key_resp.keys,key_resp.rt,instr_done_touch.x,instr_done_touch.y,instr_done_touch.leftButton,instr_done_touch.midButton,instr_done_touch.rightButton,instruction_pages.thisRepN,instruction_pages.thisTrialN,instruction_pages.thisN,instruction_pages.thisIndex,instruction_pages.ran,pageN,phase,instruct_text,has_image,instruct_image,participant,age,date,expName,psychopyVersion,OS,frameRate,response.keys,response.corr,response.rt,touch_resp.x,touch_resp.y,touch_resp.leftButton,touch_resp.midButton,touch_resp.rightButton,touch_resp.time,touch_resp.clicked_name,rt,corr,practrials.thisRepN,practrials.thisTrialN,practrials.thisN,practrials.thisIndex,practrials.ran,TrialID,Target,corrAns,end_of_practice_trials_pages.thisRepN,end_of_practice_trials_pages.thisTrialN,end_of_practice_trials_pages.thisN,end_of_practice_trials_pages.thisIndex,end_of_practice_trials_pages.ran,key_resp_2.keys,key_resp_2.corr,key_resp_2.rt,targ_click.x,targ_click.y,targ_click.leftButton,targ_click.midButton,targ_click.rightButton,targ_click.time,targ_click.clicked_name,break_done_touch.x,break_done_touch.y,break_done_touch.leftButton,break_done_touch.midButton,break_done_touch.rightButton,break_done_keyboard.keys,maintrials.thisRepN,maintrials.thisTrialN,maintrials.thisN,maintrials.thisIndex,maintrials.ran,string,blur,study,lex,stim_path,break_done_keyboard.rt,mouse_2.x,mouse_2.y,mouse_2.leftButton,mouse_2.midButton,mouse_2.rightButton,mouse_2.clicked_name,slider.response,slider.rt,trials.thisRepN,trials.thisTrialN,trials.thisN,trials.thisIndex,trials.ran,instr_done_touch.clicked_name,test_instructions.thisRepN,test_instructions.thisTrialN,test_instructions.thisN,test_instructions.thisIndex,test_instructions.ran,key_resp_3.keys,key_resp_3.corr,key_resp_3.rt,test_click.x,test_click.y,test_click.leftButton,test_click.midButton,test_click.rightButton,test_click.time,test_click.clicked_name,test_phase.thisRepN,test_phase.thisTrialN,test_phase.thisN,test_phase.thisIndex,test_phase.ran
space,12.999,0.269192423,-0.341475573,0,0,0,0,0,0,0,1,1,instructions,"INSTRUCTIONS
At the start of each trial, look at the plus sign  (+) in the center of the screen.  This tells you that a trial is about to begin and where to look. Second, the plus sign will disappear and a string of letters will appear. Your task is to determine if the string of letters is a word or not. If the item is a word press the M key (on keyboard)  or touch the word button (phone/tablet).  If the item is not a word,  press the  Z key (on keyboard)  or touch the nonword button (on phone/tablet). 
Press the space bar or touch  continue.",0,,,20,2022-02-12_13h37.59.065,lexical_decision_task_DD_L4,2021.2.3,Win32,60.0240096,,,,,,,,,,,,,,,,,,,,,,,,,,,,,,,,,,,,,,,,,,,,,,,,,,,,,,,,,,,,,,,,,,,,,,,,,,,,,,,,,,,,,,
space,5.451,0.27218345,-0.339481555,0,0,0,0,1,1,1,1,2,instructions,"If your device has a keyboard, press the 'Z' key for nonwords and the 'M' key for words.





Press the space bar or touch the button below to continue.",0,keyboard-example.gif,,20,2022-02-12_13h37.59.065,lexical_decision_task_DD_L4,2021.2.3,Win32,60.0240096,,,,,,,,,,,,,,,,,,,,,,,,,,,,,,,,,,,,,,,,,,,,,,,,,,,,,,,,,,,,,,,,,,,,,,,,,,,,,,,,,,,,,,
space,2.791,0.27218345,-0.339481555,0,0,0,0,2,2,2,1,3,instructions,"If you are using a touchscreen only device, use the buttons on the screen. Do not use the mouse.





Press the space bar or touch the button below to continue.",0,touchscreen-example.gif,,20,2022-02-12_13h37.59.065,lexical_decision_task_DD_L4,2021.2.3,Win32,60.0240096,,,,,,,,,,,,,,,,,,,,,,,,,,,,,,,,,,,,,,,,,,,,,,,,,,,,,,,,,,,,,,,,,,,,,,,,,,,,,,,,,,,,,,
space,6.662,0.27218345,-0.339481555,0,0,0,0,3,3,3,1,4,instructions,"It is very important that you respond as quickly and accurately as possible, as each letter string will only be on the screen for two seconds. If you do not respond within this time, the message 'Too slow!' will be displayed and the experiment will progress to the next letter string. The first 20 trials will be practice trials and you will receive feedback on your answers. 

Press the space bar or touch the button below to start the practice trials.",0,,,20,2022-02-12_13h37.59.065,lexical_decision_task_DD_L4,2021.2.3,Win32,60.0240096,,,,,,,,,,,,,,,,,,,,,,,,,,,,,,,,,,,,,,,,,,,,,,,,,,,,,,,,,,,,,,,,,,,,,,,,,,,,,,,,,,,,,,
,,,,,,,,,,,,,,,,,,20,2022-02-12_13h37.59.065,lexical_decision_task_DD_L4,2021.2.3,Win32,60.0240096,m,1,0.924,,,,,,,,0.924,1,0,0,0,4,1,1001,SQUEAK,m,,,,,,,,,,,,,,,,,,,,,,,,,,,,,,,,,,,,,,,,,,,,,,,,,,,,,,,,,,,,,,,,,,
,,,,,,,,,,,,,,,,,,20,2022-02-12_13h37.59.065,lexical_decision_task_DD_L4,2021.2.3,Win32,60.0240096,m,1,0.614,,,,,,,,0.614,1,0,1,1,7,1,1001,VOLUME,m,,,,,,,,,,,,,,,,,,,,,,,,,,,,,,,,,,,,,,,,,,,,,,,,,,,,,,,,,,,,,,,,,,
,,,,,,,,,,,,,,,,,,20,2022-02-12_13h37.59.065,lexical_decision_task_DD_L4,2021.2.3,Win32,60.0240096,z,1,0.761,,,,,,,,0.761,1,0,2,2,15,1,1001,WHAISE,z,,,,,,,,,,,,,,,,,,,,,,,,,,,,,,,,,,,,,,,,,,,,,,,,,,,,,,,,,,,,,,,,,,
,,,,,,,,,,,,,,,,,,20,2022-02-12_13h37.59.065,lexical_decision_task_DD_L4,2021.2.3,Win32,60.0240096,m,1,0.678,,,,,,,,0.678,1,0,3,3,0,1,1001,UTOPIA,m,,,,,,,,,,,,,,,,,,,,,,,,,,,,,,,,,,,,,,,,,,,,,,,,,,,,,,,,,,,,,,,,,,
,,,,,,,,,,,,,,,,,,20,2022-02-12_13h37.59.065,lexical_decision_task_DD_L4,2021.2.3,Win32,60.0240096,z,1,0.665,,,,,,,,0.665,1,0,4,4,9,1,1001,FARINY,z,,,,,,,,,,,,,,,,,,,,,,,,,,,,,,,,,,,,,,,,,,,,,,,,,,,,,,,,,,,,,,,,,,
,,,,,,,,,,,,,,,,,,20,2022-02-12_13h37.59.065,lexical_decision_task_DD_L4,2021.2.3,Win32,60.0240096,z,1,0.748,,,,,,,,0.748,1,0,5,5,13,1,1001,ROUPET,z,,,,,,,,,,,,,,,,,,,,,,,,,,,,,,,,,,,,,,,,,,,,,,,,,,,,,,,,,,,,,,,,,,
,,,,,,,,,,,,,,,,,,20,2022-02-12_13h37.59.065,lexical_decision_task_DD_L4,2021.2.3,Win32,60.0240096,z,1,0.907,,,,,,,,0.907,1,0,6,6,10,1,1001,INLADE,z,,,,,,,,,,,,,,,,,,,,,,,,,,,,,,,,,,,,,,,,,,,,,,,,,,,,,,,,,,,,,,,,,,
,,,,,,,,,,,,,,,,,,20,2022-02-12_13h37.59.065,lexical_decision_task_DD_L4,2021.2.3,Win32,60.0240096,z,1,0.882,,,,,,,,0.882,1,0,7,7,12,1,1001,SPRINY,z,,,,,,,,,,,,,,,,,,,,,,,,,,,,,,,,,,,,,,,,,,,,,,,,,,,,,,,,,,,,,,,,,,
,,,,,,,,,,,,,,,,,,20,2022-02-12_13h37.59.065,lexical_decision_task_DD_L4,2021.2.3,Win32,60.0240096,m,1,0.58,,,,,,,,0.58,1,0,8,8,5,1,1001,OBTAIN,m,,,,,,,,,,,,,,,,,,,,,,,,,,,,,,,,,,,,,,,,,,,,,,,,,,,,,,,,,,,,,,,,,,
,,,,,,,,,,,,,,,,,,20,2022-02-12_13h37.59.065,lexical_decision_task_DD_L4,2021.2.3,Win32,60.0240096,m,1,0.681,,,,,,,,0.681,1,0,9,9,6,1,1001,ZOMBIE,m,,,,,,,,,,,,,,,,,,,,,,,,,,,,,,,,,,,,,,,,,,,,,,,,,,,,,,,,,,,,,,,,,,
,,,,,,,,,,,,,,,,,,20,2022-02-12_13h37.59.065,lexical_decision_task_DD_L4,2021.2.3,Win32,60.0240096,z,1,0.698,,,,,,,,0.698,1,0,10,10,8,1,1001,ASLERT,z,,,,,,,,,,,,,,,,,,,,,,,,,,,,,,,,,,,,,,,,,,,,,,,,,,,,,,,,,,,,,,,,,,
,,,,,,,,,,,,,,,,,,20,2022-02-12_13h37.59.065,lexical_decision_task_DD_L4,2021.2.3,Win32,60.0240096,m,1,0.613,,,,,,,,0.613,1,0,11,11,1,1,1001,ADJUST,m,,,,,,,,,,,,,,,,,,,,,,,,,,,,,,,,,,,,,,,,,,,,,,,,,,,,,,,,,,,,,,,,,,
,,,,,,,,,,,,,,,,,,20,2022-02-12_13h37.59.065,lexical_decision_task_DD_L4,2021.2.3,Win32,60.0240096,z,1,0.648,,,,,,,,0.648,1,0,12,12,11,1,1001,RASHET,z,,,,,,,,,,,,,,,,,,,,,,,,,,,,,,,,,,,,,,,,,,,,,,,,,,,,,,,,,,,,,,,,,,
,,,,,,,,,,,,,,,,,,20,2022-02-12_13h37.59.065,lexical_decision_task_DD_L4,2021.2.3,Win32,60.0240096,m,1,0.612,,,,,,,,0.612,1,0,13,13,3,1,1001,MATRIX,m,,,,,,,,,,,,,,,,,,,,,,,,,,,,,,,,,,,,,,,,,,,,,,,,,,,,,,,,,,,,,,,,,,
,,,,,,,,,,,,,,,,,,20,2022-02-12_13h37.59.065,lexical_decision_task_DD_L4,2021.2.3,Win32,60.0240096,z,1,0.647,,,,,,,,0.647,1,0,14,14,14,1,1001,THRALE,z,,,,,,,,,,,,,,,,,,,,,,,,,,,,,,,,,,,,,,,,,,,,,,,,,,,,,,,,,,,,,,,,,,
,,,,,,,,,,,,,,,,,,20,2022-02-12_13h37.59.065,lexical_decision_task_DD_L4,2021.2.3,Win32,60.0240096,m,1,0.55,,,,,,,,0.55,1,0,15,15,2,1,1001,ALMOND,m,,,,,,,,,,,,,,,,,,,,,,,,,,,,,,,,,,,,,,,,,,,,,,,,,,,,,,,,,,,,,,,,,,
space,4.834,0.160518445,-0.5,0,0,0,,,,,,1,end_of_practice,"You have completed the practice trials. During the experimental trials, you will not receive feedback. 
Before you begin, please ensure that you are in a comfortable and quiet location and will not be disturbed for about 15 minutes, as we cannot use your data if you do not complete all the trials. 
 When you are ready to start the experimental trials, please press space or touch the button below.",,,,20,2022-02-12_13h37.59.065,lexical_decision_task_DD_L4,2021.2.3,Win32,60.0240096,,,,,,,,,,,,,,,,,,,,,0,0,0,0,1,,,,,,,,,,,,,,,,,,,,,,,,,,,,,,,,,,,,,,,,,,,,,,,,,,,,,,,,,,,,,
,,,,,,,,,,,,,,,,,,20,2022-02-12_13h37.59.065,lexical_decision_task_DD_L4,2021.2.3,Win32,60.0240096,,,,,,,,,,,0.708,1,,,,,,,,,,,,,,z,1,0.708,,,,,,,,0.160518445,-0.5,0,0,0,,0,0,0,120,1,RINED,C,old,z,./images/RINED.png,,,,,,,,,,,,,,,,,,,,,,,,,,,,,,,,,,,
,,,,,,,,,,,,,,,,,,20,2022-02-12_13h37.59.065,lexical_decision_task_DD_L4,2021.2.3,Win32,60.0240096,,,,,,,,,,,0.604,1,,,,,,,,,,,,,,m,1,0.604,,,,,,,,0.160518445,-0.5,0,0,0,,0,1,1,15,1,COLLAR,C,old,m,./images/COLLAR.png,,,,,,,,,,,,,,,,,,,,,,,,,,,,,,,,,,,
,,,,,,,,,,,,,,,,,,20,2022-02-12_13h37.59.065,lexical_decision_task_DD_L4,2021.2.3,Win32,60.0240096,,,,,,,,,,,0.789,1,,,,,,,,,,,,,,z,1,0.789,,,,,,,,0.160518445,-0.5,0,0,0,,0,2,2,119,1,PAFER,LB,old,z,./images/PAFERLB.png,,,,,,,,,,,,,,,,,,,,,,,,,,,,,,,,,,,
,,,,,,,,,,,,,,,,,,20,2022-02-12_13h37.59.065,lexical_decision_task_DD_L4,2021.2.3,Win32,60.0240096,,,,,,,,,,,0.805,1,,,,,,,,,,,,,,m,1,0.805,,,,,,,,0.160518445,-0.5,0,0,0,,0,3,3,20,1,GRANNY,LB,old,m,./images/GRANNYLB.png,,,,,,,,,,,,,,,,,,,,,,,,,,,,,,,,,,,
,,,,,,,,,,,,,,,,,,20,2022-02-12_13h37.59.065,lexical_decision_task_DD_L4,2021.2.3,Win32,60.0240096,,,,,,,,,,,1.162,1,,,,,,,,,,,,,,z,1,1.162,,,,,,,,0.160518445,-0.5,0,0,0,,0,4,4,160,1,VEETS,HB,old,z,./images/VEETSHB.png,,,,,,,,,,,,,,,,,,,,,,,,,,,,,,,,,,,
,,,,,,,,,,,,,,,,,,20,2022-02-12_13h37.59.065,lexical_decision_task_DD_L4,2021.2.3,Win32,60.0240096,,,,,,,,,,,0.854,1,,,,,,,,,,,,,,m,1,0.854,,,,,,,,0.160518445,-0.5,0,0,0,,0,5,5,81,1,DRILL,C,old,m,./images/DRILL.png,,,,,,,,,,,,,,,,,,,,,,,,,,,,,,,,,,,
,,,,,,,,,,,,,,,,,,20,2022-02-12_13h37.59.065,lexical_decision_task_DD_L4,2021.2.3,Win32,60.0240096,,,,,,,,,,,1.012,1,,,,,,,,,,,,,,m,1,1.012,,,,,,,,0.160518445,-0.5,0,0,0,,0,6,6,7,1,WAGON,HB,old,m,./images/WAGONHB.png,,,,,,,,,,,,,,,,,,,,,,,,,,,,,,,,,,,
,,,,,,,,,,,,,,,,,,20,2022-02-12_13h37.59.065,lexical_decision_task_DD_L4,2021.2.3,Win32,60.0240096,,,,,,,,,,,0.88,1,,,,,,,,,,,,,,z,1,0.88,,,,,,,,0.160518445,-0.5,0,0,0,,0,7,7,134,1,TROSS,LB,old,z,./images/TROSSLB.png,,,,,,,,,,,,,,,,,,,,,,,,,,,,,,,,,,,
,,,,,,,,,,,,,,,,,,20,2022-02-12_13h37.59.065,lexical_decision_task_DD_L4,2021.2.3,Win32,60.0240096,,,,,,,,,,,1.163,1,,,,,,,,,,,,,,m,1,1.163,,,,,,,,0.160518445,-0.5,0,0,0,,0,8,8,52,1,DESERT,HB,old,m,./images/DESERTHB.png,,,,,,,,,,,,,,,,,,,,,,,,,,,,,,,,,,,
,,,,,,,,,,,,,,,,,,20,2022-02-12_13h37.59.065,lexical_decision_task_DD_L4,2021.2.3,Win32,60.0240096,,,,,,,,,,,1.005,1,,,,,,,,,,,,,,z,1,1.005,,,,,,,,0.160518445,-0.5,0,0,0,,0,9,9,101,1,GLEET,LB,old,z,./images/GLEETLB.png,,,,,,,,,,,,,,,,,,,,,,,,,,,,,,,,,,,
,,,,,,,,,,,,,,,,,,20,2022-02-12_13h37.59.065,lexical_decision_task_DD_L4,2021.2.3,Win32,60.0240096,,,,,,,,,,,0.94,1,,,,,,,,,,,,,,m,1,0.94,,,,,,,,0.160518445,-0.5,0,0,0,,0,10,10,79,1,RULER,HB,old,m,./images/RULERHB.png,,,,,,,,,,,,,,,,,,,,,,,,,,,,,,,,,,,
,,,,,,,,,,,,,,,,,,20,2022-02-12_13h37.59.065,lexical_decision_task_DD_L4,2021.2.3,Win32,60.0240096,,,,,,,,,,,0.98,1,,,,,,,,,,,,,,m,1,0.98,,,,,,,,0.160518445,-0.5,0,0,0,,0,11,11,13,1,BUNNY,HB,old,m,./images/BUNNYHB.png,,,,,,,,,,,,,,,,,,,,,,,,,,,,,,,,,,,
,,,,,,,,,,,,,,,,,,20,2022-02-12_13h37.59.065,lexical_decision_task_DD_L4,2021.2.3,Win32,60.0240096,,,,,,,,,,,0.853,1,,,,,,,,,,,,,,m,1,0.853,,,,,,,,0.160518445,-0.5,0,0,0,,0,12,12,53,1,POSTER,LB,old,m,./images/POSTERLB.png,,,,,,,,,,,,,,,,,,,,,,,,,,,,,,,,,,,
,,,,,,,,,,,,,,,,,,20,2022-02-12_13h37.59.065,lexical_decision_task_DD_L4,2021.2.3,Win32,60.0240096,,,,,,,,,,,0.662,1,,,,,,,,,,,,,,m,1,0.662,,,,,,,,0.160518445,-0.5,0,0,0,,0,13,13,75,1,HAMMER,C,old,m,./images/HAMMER.png,,,,,,,,,,,,,,,,,,,,,,,,,,,,,,,,,,,
,,,,,,,,,,,,,,,,,,20,2022-02-12_13h37.59.065,lexical_decision_task_DD_L4,2021.2.3,Win32,60.0240096,,,,,,,,,,,0.757,1,,,,,,,,,,,,,,m,1,0.757,,,,,,,,0.160518445,-0.5,0,0,0,,0,14,14,34,1,RAZOR,HB,old,m,./images/RAZORHB.png,,,,,,,,,,,,,,,,,,,,,,,,,,,,,,,,,,,
,,,,,,,,,,,,,,,,,,20,2022-02-12_13h37.59.065,lexical_decision_task_DD_L4,2021.2.3,Win32,60.0240096,,,,,,,,,,,1.157,1,,,,,,,,,,,,,,z,1,1.157,,,,,,,,0.160518445,-0.5,0,0,0,,0,15,15,133,1,POWDY,HB,old,z,./images/POWDYHB.png,,,,,,,,,,,,,,,,,,,,,,,,,,,,,,,,,,,
,,,,,,,,,,,,,,,,,,20,2022-02-12_13h37.59.065,lexical_decision_task_DD_L4,2021.2.3,Win32,60.0240096,,,,,,,,,,,0.69,1,,,,,,,,,,,,,,m,1,0.69,,,,,,,,0.160518445,-0.5,0,0,0,,0,16,16,63,1,BAKER,C,old,m,./images/BAKER.png,,,,,,,,,,,,,,,,,,,,,,,,,,,,,,,,,,,
,,,,,,,,,,,,,,,,,,20,2022-02-12_13h37.59.065,lexical_decision_task_DD_L4,2021.2.3,Win32,60.0240096,,,,,,,,,,,0.905,1,,,,,,,,,,,,,,z,1,0.905,,,,,,,,0.160518445,-0.5,0,0,0,,0,17,17,88,1,GLUSH,HB,old,z,./images/GLUSHHB.png,,,,,,,,,,,,,,,,,,,,,,,,,,,,,,,,,,,
,,,,,,,,,,,,,,,,,,20,2022-02-12_13h37.59.065,lexical_decision_task_DD_L4,2021.2.3,Win32,60.0240096,,,,,,,,,,,1.094,1,,,,,,,,,,,,,,m,1,1.094,,,,,,,,0.160518445,-0.5,0,0,0,,0,18,18,23,1,CLOTH,LB,old,m,./images/CLOTHLB.png,,,,,,,,,,,,,,,,,,,,,,,,,,,,,,,,,,,
,,,,,,,,,,,,,,,,,,20,2022-02-12_13h37.59.065,lexical_decision_task_DD_L4,2021.2.3,Win32,60.0240096,,,,,,,,,,,0.796,1,,,,,,,,,,,,,,z,1,0.796,,,,,,,,0.160518445,-0.5,0,0,0,,0,19,19,111,1,HOSSE,C,old,z,./images/HOSSE.png,,,,,,,,,,,,,,,,,,,,,,,,,,,,,,,,,,,
,,,,,,,,,,,,,,,,,,20,2022-02-12_13h37.59.065,lexical_decision_task_DD_L4,2021.2.3,Win32,60.0240096,,,,,,,,,,,0.923,1,,,,,,,,,,,,,,z,1,0.923,,,,,,,,0.160518445,-0.5,0,0,0,,0,20,20,136,1,WERVE,HB,old,z,./images/WERVEHB.png,,,,,,,,,,,,,,,,,,,,,,,,,,,,,,,,,,,
,,,,,,,,,,,,,,,,,,20,2022-02-12_13h37.59.065,lexical_decision_task_DD_L4,2021.2.3,Win32,60.0240096,,,,,,,,,,,0.663,1,,,,,,,,,,,,,,m,1,0.663,,,,,,,,0.160518445,-0.5,0,0,0,,0,21,21,11,1,MEDAL,LB,old,m,./images/MEDALLB.png,,,,,,,,,,,,,,,,,,,,,,,,,,,,,,,,,,,
,,,,,,,,,,,,,,,,,,20,2022-02-12_13h37.59.065,lexical_decision_task_DD_L4,2021.2.3,Win32,60.0240096,,,,,,,,,,,1.321,1,,,,,,,,,,,,,,z,1,1.321,,,,,,,,0.160518445,-0.5,0,0,0,,0,22,22,106,1,CLUMS,HB,old,z,./images/CLUMSHB.png,,,,,,,,,,,,,,,,,,,,,,,,,,,,,,,,,,,
,,,,,,,,,,,,,,,,,,20,2022-02-12_13h37.59.065,lexical_decision_task_DD_L4,2021.2.3,Win32,60.0240096,,,,,,,,,,,1.08,1,,,,,,,,,,,,,,z,1,1.08,,,,,,,,0.160518445,-0.5,0,0,0,,0,23,23,155,1,CANGY,LB,old,z,./images/CANGYLB.png,,,,,,,,,,,,,,,,,,,,,,,,,,,,,,,,,,,
,,,,,,,,,,,,,,,,,,20,2022-02-12_13h37.59.065,lexical_decision_task_DD_L4,2021.2.3,Win32,60.0240096,,,,,,,,,,,0.706,1,,,,,,,,,,,,,,m,1,0.706,,,,,,,,0.160518445,-0.5,0,0,0,,0,24,24,27,1,BUTTER,C,old,m,./images/BUTTER.png,,,,,,,,,,,,,,,,,,,,,,,,,,,,,,,,,,,
,,,,,,,,,,,,,,,,,,20,2022-02-12_13h37.59.065,lexical_decision_task_DD_L4,2021.2.3,Win32,60.0240096,,,,,,,,,,,0.637,1,,,,,,,,,,,,,,m,1,0.637,,,,,,,,0.160518445,-0.5,0,0,0,,0,25,25,77,1,WHEEL,LB,old,m,./images/WHEELLB.png,,,,,,,,,,,,,,,,,,,,,,,,,,,,,,,,,,,
,,,,,,,,,,,,,,,,,,20,2022-02-12_13h37.59.065,lexical_decision_task_DD_L4,2021.2.3,Win32,60.0240096,,,,,,,,,,,0.744,1,,,,,,,,,,,,,,z,1,0.744,,,,,,,,0.160518445,-0.5,0,0,0,,0,26,26,124,1,TUNCH,HB,old,z,./images/TUNCHHB.png,,,,,,,,,,,,,,,,,,,,,,,,,,,,,,,,,,,
,,,,,,,,,,,,,,,,,,20,2022-02-12_13h37.59.065,lexical_decision_task_DD_L4,2021.2.3,Win32,60.0240096,,,,,,,,,,,0.655,1,,,,,,,,,,,,,,z,1,0.655,,,,,,,,0.160518445,-0.5,0,0,0,,0,27,27,140,1,DOVET,LB,old,z,./images/DOVETLB.png,,,,,,,,,,,,,,,,,,,,,,,,,,,,,,,,,,,
,,,,,,,,,,,,,,,,,,20,2022-02-12_13h37.59.065,lexical_decision_task_DD_L4,2021.2.3,Win32,60.0240096,,,,,,,,,,,0.954,1,,,,,,,,,,,,,,z,1,0.954,,,,,,,,0.160518445,-0.5,0,0,0,,0,28,28,163,1,GAMBA,HB,old,z,./images/GAMBAHB.png,,,,,,,,,,,,,,,,,,,,,,,,,,,,,,,,,,,
,,,,,,,,,,,,,,,,,,20,2022-02-12_13h37.59.065,lexical_decision_task_DD_L4,2021.2.3,Win32,60.0240096,,,,,,,,,,,0.689,1,,,,,,,,,,,,,,z,1,0.689,,,,,,,,0.160518445,-0.5,0,0,0,,0,29,29,92,1,PAIMS,LB,old,z,./images/PAIMSLB.png,,,,,,,,,,,,,,,,,,,,,,,,,,,,,,,,,,,
,,,,,,,,,,,,,,,,,,20,2022-02-12_13h37.59.065,lexical_decision_task_DD_L4,2021.2.3,Win32,60.0240096,,,,,,,,,,,0.694,1,,,,,,,,,,,,,,z,1,0.694,,,,,,,,0.160518445,-0.5,0,0,0,,0,30,30,150,1,NOOLS,C,old,z,./images/NOOLS.png,,,,,,,,,,,,,,,,,,,,,,,,,,,,,,,,,,,
,,,,,,,,,,,,,,,,,,20,2022-02-12_13h37.59.065,lexical_decision_task_DD_L4,2021.2.3,Win32,60.0240096,,,,,,,,,,,1.129,1,,,,,,,,,,,,,,z,1,1.129,,,,,,,,0.160518445,-0.5,0,0,0,,0,31,31,121,1,CEERS,HB,old,z,./images/CEERSHB.png,,,,,,,,,,,,,,,,,,,,,,,,,,,,,,,,,,,
,,,,,,,,,,,,,,,,,,20,2022-02-12_13h37.59.065,lexical_decision_task_DD_L4,2021.2.3,Win32,60.0240096,,,,,,,,,,,0.954,1,,,,,,,,,,,,,,m,1,0.954,,,,,,,,0.160518445,-0.5,0,0,0,,0,32,32,67,1,POKER,HB,old,m,./images/POKERHB.png,,,,,,,,,,,,,,,,,,,,,,,,,,,,,,,,,,,
,,,,,,,,,,,,,,,,,,20,2022-02-12_13h37.59.065,lexical_decision_task_DD_L4,2021.2.3,Win32,60.0240096,,,,,,,,,,,0.847,1,,,,,,,,,,,,,,z,1,0.847,,,,,,,,0.160518445,-0.5,0,0,0,,0,33,33,109,1,BURGE,HB,old,z,./images/BURGEHB.png,,,,,,,,,,,,,,,,,,,,,,,,,,,,,,,,,,,
,,,,,,,,,,,,,,,,,,20,2022-02-12_13h37.59.065,lexical_decision_task_DD_L4,2021.2.3,Win32,60.0240096,,,,,,,,,,,1.061,1,,,,,,,,,,,,,,m,1,1.061,,,,,,,,0.160518445,-0.5,0,0,0,,0,34,34,64,1,BRIDE,HB,old,m,./images/BRIDEHB.png,,,,,,,,,,,,,,,,,,,,,,,,,,,,,,,,,,,
,,,,,,,,,,,,,,,,,,20,2022-02-12_13h37.59.065,lexical_decision_task_DD_L4,2021.2.3,Win32,60.0240096,,,,,,,,,,,0.693,1,,,,,,,,,,,,,,z,1,0.693,,,,,,,,0.160518445,-0.5,0,0,0,,0,35,35,164,1,SGREW,LB,old,z,./images/SGREWLB.png,,,,,,,,,,,,,,,,,,,,,,,,,,,,,,,,,,,
,,,,,,,,,,,,,,,,,,20,2022-02-12_13h37.59.065,lexical_decision_task_DD_L4,2021.2.3,Win32,60.0240096,,,,,,,,,,,0.654,1,,,,,,,,,,,,,,m,1,0.654,,,,,,,,0.160518445,-0.5,0,0,0,,0,36,36,39,1,CANDY,C,old,m,./images/CANDY.png,,,,,,,,,,,,,,,,,,,,,,,,,,,,,,,,,,,
,,,,,,,,,,,,,,,,,,20,2022-02-12_13h37.59.065,lexical_decision_task_DD_L4,2021.2.3,Win32,60.0240096,,,,,,,,,,,0.698,1,,,,,,,,,,,,,,m,1,0.698,,,,,,,,0.160518445,-0.5,0,0,0,,0,37,37,22,1,CLOWN,HB,old,m,./images/CLOWNHB.png,,,,,,,,,,,,,,,,,,,,,,,,,,,,,,,,,,,
,,,,,,,,,,,,,,,,,,20,2022-02-12_13h37.59.065,lexical_decision_task_DD_L4,2021.2.3,Win32,60.0240096,,,,,,,,,,,0.596,1,,,,,,,,,,,,,,m,1,0.596,,,,,,,,0.160518445,-0.5,0,0,0,,0,38,38,0,1,WALNUT,C,old,m,./images/WALNUT.png,,,,,,,,,,,,,,,,,,,,,,,,,,,,,,,,,,,
,,,,,,,,,,,,,,,,,,20,2022-02-12_13h37.59.065,lexical_decision_task_DD_L4,2021.2.3,Win32,60.0240096,,,,,,,,,,,1.428,1,,,,,,,,,,,,,,z,1,1.428,,,,,,,,0.160518445,-0.5,0,0,0,,0,39,39,85,1,CHULK,HB,old,z,./images/CHULKHB.png,,,,,,,,,,,,,,,,,,,,,,,,,,,,,,,,,,,
,,,,,,,,,,,,,,,,,,20,2022-02-12_13h37.59.065,lexical_decision_task_DD_L4,2021.2.3,Win32,60.0240096,,,,,,,,,,,0.72,1,,,,,,,,,,,,,,z,1,0.72,,,,,,,,0.160518445,-0.5,0,0,0,,0,40,40,114,1,RIKES,C,old,z,./images/RIKES.png,,,,,,,,,,,,,,,,,,,,,,,,,,,,,,,,,,,
,,,,,,,,,,,,,,,,,,20,2022-02-12_13h37.59.065,lexical_decision_task_DD_L4,2021.2.3,Win32,60.0240096,,,,,,,,,,,0.762,1,,,,,,,,,,,,,,z,1,0.762,,,,,,,,0.160518445,-0.497008973,0,0,0,space,0,41,41,107,1,FASKS,LB,old,z,./images/FASKSLB.png,44.485,,,,,,,,,,,,,,,,,,,,,,,,,,,,,,,,,,
,,,,,,,,,,,,,,,,,,20,2022-02-12_13h37.59.065,lexical_decision_task_DD_L4,2021.2.3,Win32,60.0240096,,,,,,,,,,,0.639,1,,,,,,,,,,,,,,z,1,0.639,,,,,,,,0.160518445,-0.497008973,0,0,0,,0,42,42,89,1,DRIEK,LB,old,z,./images/DRIEKLB.png,,,,,,,,,,,,,,,,,,,,,,,,,,,,,,,,,,,
,,,,,,,,,,,,,,,,,,20,2022-02-12_13h37.59.065,lexical_decision_task_DD_L4,2021.2.3,Win32,60.0240096,,,,,,,,,,,0.602,1,,,,,,,,,,,,,,z,1,0.602,,,,,,,,0.160518445,-0.497008973,0,0,0,,0,43,43,117,1,STEEG,C,old,z,./images/STEEG.png,,,,,,,,,,,,,,,,,,,,,,,,,,,,,,,,,,,
,,,,,,,,,,,,,,,,,,20,2022-02-12_13h37.59.065,lexical_decision_task_DD_L4,2021.2.3,Win32,60.0240096,,,,,,,,,,,1.67,1,,,,,,,,,,,,,,z,1,1.67,,,,,,,,0.160518445,-0.497008973,0,0,0,,0,44,44,166,1,SHORY,HB,old,z,./images/SHORYHB.png,,,,,,,,,,,,,,,,,,,,,,,,,,,,,,,,,,,
,,,,,,,,,,,,,,,,,,20,2022-02-12_13h37.59.065,lexical_decision_task_DD_L4,2021.2.3,Win32,60.0240096,,,,,,,,,,,0.954,1,,,,,,,,,,,,,,z,1,0.954,,,,,,,,0.160518445,-0.497008973,0,0,0,,0,45,45,115,1,MAWNS,HB,old,z,./images/MAWNSHB.png,,,,,,,,,,,,,,,,,,,,,,,,,,,,,,,,,,,
,,,,,,,,,,,,,,,,,,20,2022-02-12_13h37.59.065,lexical_decision_task_DD_L4,2021.2.3,Win32,60.0240096,,,,,,,,,,,0.591,1,,,,,,,,,,,,,,m,1,0.591,,,,,,,,0.160518445,-0.497008973,0,0,0,,0,46,46,24,1,FLESH,C,old,m,./images/FLESH.png,,,,,,,,,,,,,,,,,,,,,,,,,,,,,,,,,,,
,,,,,,,,,,,,,,,,,,20,2022-02-12_13h37.59.065,lexical_decision_task_DD_L4,2021.2.3,Win32,60.0240096,,,,,,,,,,,0.675,1,,,,,,,,,,,,,,z,1,0.675,,,,,,,,0.160518445,-0.497008973,0,0,0,,0,47,47,158,1,EGECT,LB,old,z,./images/EGECTLB.png,,,,,,,,,,,,,,,,,,,,,,,,,,,,,,,,,,,
,,,,,,,,,,,,,,,,,,20,2022-02-12_13h37.59.065,lexical_decision_task_DD_L4,2021.2.3,Win32,60.0240096,,,,,,,,,,,0.663,1,,,,,,,,,,,,,,z,1,0.663,,,,,,,,0.160518445,-0.497008973,0,0,0,,0,48,48,149,1,VEASE,LB,old,z,./images/VEASELB.png,,,,,,,,,,,,,,,,,,,,,,,,,,,,,,,,,,,
,,,,,,,,,,,,,,,,,,20,2022-02-12_13h37.59.065,lexical_decision_task_DD_L4,2021.2.3,Win32,60.0240096,,,,,,,,,,,0.706,1,,,,,,,,,,,,,,z,1,0.706,,,,,,,,0.160518445,-0.497008973,0,0,0,,0,49,49,129,1,PRANS,C,old,z,./images/PRANS.png,,,,,,,,,,,,,,,,,,,,,,,,,,,,,,,,,,,
,,,,,,,,,,,,,,,,,,20,2022-02-12_13h37.59.065,lexical_decision_task_DD_L4,2021.2.3,Win32,60.0240096,,,,,,,,,,,0.661,1,,,,,,,,,,,,,,m,1,0.661,,,,,,,,0.160518445,-0.497008973,0,0,0,,0,50,50,3,1,CRATER,C,old,m,./images/CRATER.png,,,,,,,,,,,,,,,,,,,,,,,,,,,,,,,,,,,
,,,,,,,,,,,,,,,,,,20,2022-02-12_13h37.59.065,lexical_decision_task_DD_L4,2021.2.3,Win32,60.0240096,,,,,,,,,,,0.877,1,,,,,,,,,,,,,,m,1,0.877,,,,,,,,0.160518445,-0.497008973,0,0,0,,0,51,51,73,1,GLOVE,HB,old,m,./images/GLOVEHB.png,,,,,,,,,,,,,,,,,,,,,,,,,,,,,,,,,,,
,,,,,,,,,,,,,,,,,,20,2022-02-12_13h37.59.065,lexical_decision_task_DD_L4,2021.2.3,Win32,60.0240096,,,,,,,,,,,0.695,1,,,,,,,,,,,,,,z,1,0.695,,,,,,,,0.160518445,-0.497008973,0,0,0,,0,52,52,102,1,DULLE,C,old,z,./images/DULLE.png,,,,,,,,,,,,,,,,,,,,,,,,,,,,,,,,,,,
,,,,,,,,,,,,,,,,,,20,2022-02-12_13h37.59.065,lexical_decision_task_DD_L4,2021.2.3,Win32,60.0240096,,,,,,,,,,,0.597,1,,,,,,,,,,,,,,m,1,0.597,,,,,,,,0.160518445,-0.497008973,0,0,0,,0,53,53,48,1,SHIELD,C,old,m,./images/SHIELD.png,,,,,,,,,,,,,,,,,,,,,,,,,,,,,,,,,,,
,,,,,,,,,,,,,,,,,,20,2022-02-12_13h37.59.065,lexical_decision_task_DD_L4,2021.2.3,Win32,60.0240096,,,,,,,,,,,0.864,1,,,,,,,,,,,,,,m,1,0.864,,,,,,,,0.160518445,-0.497008973,0,0,0,,0,54,54,49,1,BISHOP,HB,old,m,./images/BISHOPHB.png,,,,,,,,,,,,,,,,,,,,,,,,,,,,,,,,,,,
,,,,,,,,,,,,,,,,,,20,2022-02-12_13h37.59.065,lexical_decision_task_DD_L4,2021.2.3,Win32,60.0240096,,,,,,,,,,,0.697,1,,,,,,,,,,,,,,m,1,0.697,,,,,,,,0.154536391,-0.495014955,0,0,0,,0,55,55,66,1,STATUE,C,old,m,./images/STATUE.png,,,,,,,,,,,,,,,,,,,,,,,,,,,,,,,,,,,
,,,,,,,,,,,,,,,,,,20,2022-02-12_13h37.59.065,lexical_decision_task_DD_L4,2021.2.3,Win32,60.0240096,,,,,,,,,,,0.854,1,,,,,,,,,,,,,,m,1,0.854,,,,,,,,0.154536391,-0.495014955,0,0,0,,0,56,56,10,1,GARDEN,HB,old,m,./images/GARDENHB.png,,,,,,,,,,,,,,,,,,,,,,,,,,,,,,,,,,,
,,,,,,,,,,,,,,,,,,20,2022-02-12_13h37.59.065,lexical_decision_task_DD_L4,2021.2.3,Win32,60.0240096,,,,,,,,,,,1.675,1,,,,,,,,,,,,,,z,1,1.675,,,,,,,,0.154536391,-0.495014955,0,0,0,,0,57,57,97,1,CHIDS,HB,old,z,./images/CHIDSHB.png,,,,,,,,,,,,,,,,,,,,,,,,,,,,,,,,,,,
,,,,,,,,,,,,,,,,,,20,2022-02-12_13h37.59.065,lexical_decision_task_DD_L4,2021.2.3,Win32,60.0240096,,,,,,,,,,,0.645,1,,,,,,,,,,,,,,m,1,0.645,,,,,,,,0.154536391,-0.495014955,0,0,0,,0,58,58,17,1,PARADE,LB,old,m,./images/PARADELB.png,,,,,,,,,,,,,,,,,,,,,,,,,,,,,,,,,,,
,,,,,,,,,,,,,,,,,,20,2022-02-12_13h37.59.065,lexical_decision_task_DD_L4,2021.2.3,Win32,60.0240096,,,,,,,,,,,0.636,1,,,,,,,,,,,,,,z,1,0.636,,,,,,,,0.154536391,-0.495014955,0,0,0,,0,59,59,125,1,MOOKY,LB,old,z,./images/MOOKYLB.png,,,,,,,,,,,,,,,,,,,,,,,,,,,,,,,,,,,
,,,,,,,,,,,,,,,,,,20,2022-02-12_13h37.59.065,lexical_decision_task_DD_L4,2021.2.3,Win32,60.0240096,,,,,,,,,,,0.804,1,,,,,,,,,,,,,,z,1,0.804,,,,,,,,0.154536391,-0.495014955,0,0,0,,0,60,60,86,1,AIFED,LB,old,z,./images/AIFEDLB.png,,,,,,,,,,,,,,,,,,,,,,,,,,,,,,,,,,,
,,,,,,,,,,,,,,,,,,20,2022-02-12_13h37.59.065,lexical_decision_task_DD_L4,2021.2.3,Win32,60.0240096,,,,,,,,,,,0.705,1,,,,,,,,,,,,,,z,1,0.705,,,,,,,,0.154536391,-0.495014955,0,0,0,,0,61,61,138,1,PLICE,C,old,z,./images/PLICE.png,,,,,,,,,,,,,,,,,,,,,,,,,,,,,,,,,,,
,,,,,,,,,,,,,,,,,,20,2022-02-12_13h37.59.065,lexical_decision_task_DD_L4,2021.2.3,Win32,60.0240096,,,,,,,,,,,0.74,1,,,,,,,,,,,,,,m,1,0.74,,,,,,,,0.154536391,-0.495014955,0,0,0,,0,62,62,8,1,CLIFF,LB,old,m,./images/CLIFFLB.png,,,,,,,,,,,,,,,,,,,,,,,,,,,,,,,,,,,
,,,,,,,,,,,,,,,,,,20,2022-02-12_13h37.59.065,lexical_decision_task_DD_L4,2021.2.3,Win32,60.0240096,,,,,,,,,,,1.039,1,,,,,,,,,,,,,,z,1,1.039,,,,,,,,0.154536391,-0.495014955,0,0,0,,0,63,63,91,1,SHENS,HB,old,z,./images/SHENSHB.png,,,,,,,,,,,,,,,,,,,,,,,,,,,,,,,,,,,
,,,,,,,,,,,,,,,,,,20,2022-02-12_13h37.59.065,lexical_decision_task_DD_L4,2021.2.3,Win32,60.0240096,,,,,,,,,,,0.757,1,,,,,,,,,,,,,,z,1,0.757,,,,,,,,0.154536391,-0.495014955,0,0,0,,0,64,64,99,1,BACKY,C,old,z,./images/BACKY.png,,,,,,,,,,,,,,,,,,,,,,,,,,,,,,,,,,,
,,,,,,,,,,,,,,,,,,20,2022-02-12_13h37.59.065,lexical_decision_task_DD_L4,2021.2.3,Win32,60.0240096,,,,,,,,,,,1.222,1,,,,,,,,,,,,,,z,1,1.222,,,,,,,,0.154536391,-0.495014955,0,0,0,,0,65,65,127,1,NINDY,HB,old,z,./images/NINDYHB.png,,,,,,,,,,,,,,,,,,,,,,,,,,,,,,,,,,,
,,,,,,,,,,,,,,,,,,20,2022-02-12_13h37.59.065,lexical_decision_task_DD_L4,2021.2.3,Win32,60.0240096,,,,,,,,,,,0.712,1,,,,,,,,,,,,,,z,1,0.712,,,,,,,,0.154536391,-0.495014955,0,0,0,,0,66,66,167,1,ZONET,LB,old,z,./images/ZONETLB.png,,,,,,,,,,,,,,,,,,,,,,,,,,,,,,,,,,,
,,,,,,,,,,,,,,,,,,20,2022-02-12_13h37.59.065,lexical_decision_task_DD_L4,2021.2.3,Win32,60.0240096,,,,,,,,,,,0.763,1,,,,,,,,,,,,,,z,1,0.763,,,,,,,,0.154536391,-0.495014955,0,0,0,,0,67,67,105,1,MOKER,C,old,z,./images/MOKER.png,,,,,,,,,,,,,,,,,,,,,,,,,,,,,,,,,,,
,,,,,,,,,,,,,,,,,,20,2022-02-12_13h37.59.065,lexical_decision_task_DD_L4,2021.2.3,Win32,60.0240096,,,,,,,,,,,0.778,1,,,,,,,,,,,,,,m,1,0.778,,,,,,,,0.154536391,-0.495014955,0,0,0,,0,68,68,37,1,TIGER,HB,old,m,./images/TIGERHB.png,,,,,,,,,,,,,,,,,,,,,,,,,,,,,,,,,,,
,,,,,,,,,,,,,,,,,,20,2022-02-12_13h37.59.065,lexical_decision_task_DD_L4,2021.2.3,Win32,60.0240096,,,,,,,,,,,0.579,1,,,,,,,,,,,,,,m,1,0.579,,,,,,,,0.154536391,-0.495014955,0,0,0,,0,69,69,38,1,ENGINE,LB,old,m,./images/ENGINELB.png,,,,,,,,,,,,,,,,,,,,,,,,,,,,,,,,,,,
,,,,,,,,,,,,,,,,,,20,2022-02-12_13h37.59.065,lexical_decision_task_DD_L4,2021.2.3,Win32,60.0240096,,,,,,,,,,,0.848,1,,,,,,,,,,,,,,z,1,0.848,,,,,,,,0.154536391,-0.495014955,0,0,0,,0,70,70,94,1,BLANS,HB,old,z,./images/BLANSHB.png,,,,,,,,,,,,,,,,,,,,,,,,,,,,,,,,,,,
,,,,,,,,,,,,,,,,,,20,2022-02-12_13h37.59.065,lexical_decision_task_DD_L4,2021.2.3,Win32,60.0240096,,,,,,,,,,,0.928,1,,,,,,,,,,,,,,z,1,0.928,,,,,,,,0.154536391,-0.495014955,0,0,0,,0,71,71,110,1,CRUNK,LB,old,z,./images/CRUNKLB.png,,,,,,,,,,,,,,,,,,,,,,,,,,,,,,,,,,,
,,,,,,,,,,,,,,,,,,20,2022-02-12_13h37.59.065,lexical_decision_task_DD_L4,2021.2.3,Win32,60.0240096,,,,,,,,,,,0.689,1,,,,,,,,,,,,,,m,1,0.689,,,,,,,,0.154536391,-0.495014955,0,0,0,,0,72,72,5,1,BAMBOO,LB,old,m,./images/BAMBOOLB.png,,,,,,,,,,,,,,,,,,,,,,,,,,,,,,,,,,,
,,,,,,,,,,,,,,,,,,20,2022-02-12_13h37.59.065,lexical_decision_task_DD_L4,2021.2.3,Win32,60.0240096,,,,,,,,,,,1.451,1,,,,,,,,,,,,,,z,1,1.451,,,,,,,,0.154536391,-0.495014955,0,0,0,,0,73,73,93,1,SMONE,C,old,z,./images/SMONE.png,,,,,,,,,,,,,,,,,,,,,,,,,,,,,,,,,,,
,,,,,,,,,,,,,,,,,,20,2022-02-12_13h37.59.065,lexical_decision_task_DD_L4,2021.2.3,Win32,60.0240096,,,,,,,,,,,0.718,1,,,,,,,,,,,,,,z,1,0.718,,,,,,,,0.154536391,-0.495014955,0,0,0,,0,74,74,146,1,MOOST,LB,old,z,./images/MOOSTLB.png,,,,,,,,,,,,,,,,,,,,,,,,,,,,,,,,,,,
,,,,,,,,,,,,,,,,,,20,2022-02-12_13h37.59.065,lexical_decision_task_DD_L4,2021.2.3,Win32,60.0240096,,,,,,,,,,,0.686,1,,,,,,,,,,,,,,z,1,0.686,,,,,,,,0.154536391,-0.495014955,0,0,0,,0,75,75,96,1,KEAMS,C,old,z,./images/KEAMS.png,,,,,,,,,,,,,,,,,,,,,,,,,,,,,,,,,,,
,,,,,,,,,,,,,,,,,,20,2022-02-12_13h37.59.065,lexical_decision_task_DD_L4,2021.2.3,Win32,60.0240096,,,,,,,,,,,0.654,1,,,,,,,,,,,,,,z,1,0.654,,,,,,,,0.154536391,-0.495014955,0,0,0,,0,76,76,90,1,NEAST,C,old,z,./images/NEAST.png,,,,,,,,,,,,,,,,,,,,,,,,,,,,,,,,,,,
,,,,,,,,,,,,,,,,,,20,2022-02-12_13h37.59.065,lexical_decision_task_DD_L4,2021.2.3,Win32,60.0240096,,,,,,,,,,,0.72,1,,,,,,,,,,,,,,z,1,0.72,,,,,,,,0.154536391,-0.495014955,0,0,0,,0,77,77,147,1,ZOLES,C,old,z,./images/ZOLES.png,,,,,,,,,,,,,,,,,,,,,,,,,,,,,,,,,,,
,,,,,,,,,,,,,,,,,,20,2022-02-12_13h37.59.065,lexical_decision_task_DD_L4,2021.2.3,Win32,60.0240096,,,,,,,,,,,0.761,1,,,,,,,,,,,,,,m,1,0.761,,,,,,,,0.154536391,-0.495014955,0,0,0,,0,78,78,31,1,STEAK,HB,old,m,./images/STEAKHB.png,,,,,,,,,,,,,,,,,,,,,,,,,,,,,,,,,,,
,,,,,,,,,,,,,,,,,,20,2022-02-12_13h37.59.065,lexical_decision_task_DD_L4,2021.2.3,Win32,60.0240096,,,,,,,,,,,0.657,1,,,,,,,,,,,,,,m,1,0.657,,,,,,,,0.154536391,-0.495014955,0,0,0,,0,79,79,30,1,SLOPE,C,old,m,./images/SLOPE.png,,,,,,,,,,,,,,,,,,,,,,,,,,,,,,,,,,,
,,,,,,,,,,,,,,,,,,20,2022-02-12_13h37.59.065,lexical_decision_task_DD_L4,2021.2.3,Win32,60.0240096,,,,,,,,,,,0.962,1,,,,,,,,,,,,,,z,1,0.962,,,,,,,,0.154536391,-0.495014955,0,0,0,,0,80,80,112,1,MYING,HB,old,z,./images/MYINGHB.png,,,,,,,,,,,,,,,,,,,,,,,,,,,,,,,,,,,
,,,,,,,,,,,,,,,,,,20,2022-02-12_13h37.59.065,lexical_decision_task_DD_L4,2021.2.3,Win32,60.0240096,,,,,,,,,,,1.644,1,,,,,,,,,,,,,,m,1,1.644,,,,,,,,0.154536391,-0.495014955,0,0,0,,0,81,81,76,1,MIDGET,HB,old,m,./images/MIDGETHB.png,,,,,,,,,,,,,,,,,,,,,,,,,,,,,,,,,,,
,,,,,,,,,,,,,,,,,,20,2022-02-12_13h37.59.065,lexical_decision_task_DD_L4,2021.2.3,Win32,60.0240096,,,,,,,,,,,1.303,1,,,,,,,,,,,,,,z,1,1.303,,,,,,,,0.154536391,-0.495014955,0,0,0,,0,82,82,118,1,BAVEL,HB,old,z,./images/BAVELHB.png,,,,,,,,,,,,,,,,,,,,,,,,,,,,,,,,,,,
,,,,,,,,,,,,,,,,,,20,2022-02-12_13h37.59.065,lexical_decision_task_DD_L4,2021.2.3,Win32,60.0240096,,,,,,,,,,,0.962,1,,,,,,,,,,,,,,z,1,0.962,,,,,,,,0.154536391,-0.495014955,0,0,0,space,0,83,83,142,1,PLASK,HB,old,z,./images/PLASKHB.png,51.906,,,,,,,,,,,,,,,,,,,,,,,,,,,,,,,,,,
,,,,,,,,,,,,,,,,,,20,2022-02-12_13h37.59.065,lexical_decision_task_DD_L4,2021.2.3,Win32,60.0240096,,,,,,,,,,,1.237,1,,,,,,,,,,,,,,m,1,1.237,,,,,,,,0.154536391,-0.495014955,0,0,0,,0,84,84,55,1,ALLEY,HB,old,m,./images/ALLEYHB.png,,,,,,,,,,,,,,,,,,,,,,,,,,,,,,,,,,,
,,,,,,,,,,,,,,,,,,20,2022-02-12_13h37.59.065,lexical_decision_task_DD_L4,2021.2.3,Win32,60.0240096,,,,,,,,,,,0.654,1,,,,,,,,,,,,,,m,1,0.654,,,,,,,,0.154536391,-0.495014955,0,0,0,,0,85,85,72,1,FLASK,C,old,m,./images/FLASK.png,,,,,,,,,,,,,,,,,,,,,,,,,,,,,,,,,,,
,,,,,,,,,,,,,,,,,,20,2022-02-12_13h37.59.065,lexical_decision_task_DD_L4,2021.2.3,Win32,60.0240096,,,,,,,,,,,0.72,1,,,,,,,,,,,,,,m,1,0.72,,,,,,,,0.154536391,-0.495014955,0,0,0,,0,86,86,70,1,BANANA,HB,old,m,./images/BANANAHB.png,,,,,,,,,,,,,,,,,,,,,,,,,,,,,,,,,,,
,,,,,,,,,,,,,,,,,,20,2022-02-12_13h37.59.065,lexical_decision_task_DD_L4,2021.2.3,Win32,60.0240096,,,,,,,,,,,0.772,1,,,,,,,,,,,,,,m,1,0.772,,,,,,,,0.154536391,-0.495014955,0,0,0,,0,87,87,4,1,BOXER,HB,old,m,./images/BOXERHB.png,,,,,,,,,,,,,,,,,,,,,,,,,,,,,,,,,,,
,,,,,,,,,,,,,,,,,,20,2022-02-12_13h37.59.065,lexical_decision_task_DD_L4,2021.2.3,Win32,60.0240096,,,,,,,,,,,1.164,1,,,,,,,,,,,,,,z,1,1.164,,,,,,,,0.154536391,-0.495014955,0,0,0,,0,88,88,100,1,DRIBS,HB,old,z,./images/DRIBSHB.png,,,,,,,,,,,,,,,,,,,,,,,,,,,,,,,,,,,
,,,,,,,,,,,,,,,,,,20,2022-02-12_13h37.59.065,lexical_decision_task_DD_L4,2021.2.3,Win32,60.0240096,,,,,,,,,,,0.69,1,,,,,,,,,,,,,,z,1,0.69,,,,,,,,0.154536391,-0.495014955,0,0,0,,0,89,89,135,1,JOODY,C,old,z,./images/JOODY.png,,,,,,,,,,,,,,,,,,,,,,,,,,,,,,,,,,,
,,,,,,,,,,,,,,,,,,20,2022-02-12_13h37.59.065,lexical_decision_task_DD_L4,2021.2.3,Win32,60.0240096,,,,,,,,,,,1.143,1,,,,,,,,,,,,,,z,1,1.143,,,,,,,,0.154536391,-0.495014955,0,0,0,,0,90,90,145,1,LAMEL,HB,old,z,./images/LAMELHB.png,,,,,,,,,,,,,,,,,,,,,,,,,,,,,,,,,,,
,,,,,,,,,,,,,,,,,,20,2022-02-12_13h37.59.065,lexical_decision_task_DD_L4,2021.2.3,Win32,60.0240096,,,,,,,,,,,0.729,1,,,,,,,,,,,,,,z,1,0.729,,,,,,,,0.154536391,-0.495014955,0,0,0,,0,91,91,143,1,MONGS,LB,old,z,./images/MONGSLB.png,,,,,,,,,,,,,,,,,,,,,,,,,,,,,,,,,,,
,,,,,,,,,,,,,,,,,,20,2022-02-12_13h37.59.065,lexical_decision_task_DD_L4,2021.2.3,Win32,60.0240096,,,,,,,,,,,0.714,1,,,,,,,,,,,,,,m,1,0.714,,,,,,,,0.154536391,-0.495014955,0,0,0,,0,92,92,21,1,DANCER,C,old,m,./images/DANCER.png,,,,,,,,,,,,,,,,,,,,,,,,,,,,,,,,,,,
,,,,,,,,,,,,,,,,,,20,2022-02-12_13h37.59.065,lexical_decision_task_DD_L4,2021.2.3,Win32,60.0240096,,,,,,,,,,,0.814,1,,,,,,,,,,,,,,m,1,0.814,,,,,,,,0.154536391,-0.495014955,0,0,0,,0,93,93,61,1,ARTIST,HB,old,m,./images/ARTISTHB.png,,,,,,,,,,,,,,,,,,,,,,,,,,,,,,,,,,,
,,,,,,,,,,,,,,,,,,20,2022-02-12_13h37.59.065,lexical_decision_task_DD_L4,2021.2.3,Win32,60.0240096,,,,,,,,,,,0.745,1,,,,,,,,,,,,,,m,1,0.745,,,,,,,,0.154536391,-0.495014955,0,0,0,,0,94,94,62,1,MAMMAL,LB,old,m,./images/MAMMALLB.png,,,,,,,,,,,,,,,,,,,,,,,,,,,,,,,,,,,
,,,,,,,,,,,,,,,,,,20,2022-02-12_13h37.59.065,lexical_decision_task_DD_L4,2021.2.3,Win32,60.0240096,,,,,,,,,,,0.721,1,,,,,,,,,,,,,,m,1,0.721,,,,,,,,0.154536391,-0.495014955,0,0,0,,0,95,95,46,1,MUMMY,HB,old,m,./images/MUMMYHB.png,,,,,,,,,,,,,,,,,,,,,,,,,,,,,,,,,,,
,,,,,,,,,,,,,,,,,,20,2022-02-12_13h37.59.065,lexical_decision_task_DD_L4,2021.2.3,Win32,60.0240096,,,,,,,,,,,0.805,1,,,,,,,,,,,,,,m,1,0.805,,,,,,,,0.154536391,-0.495014955,0,0,0,,0,96,96,19,1,DONKEY,HB,old,m,./images/DONKEYHB.png,,,,,,,,,,,,,,,,,,,,,,,,,,,,,,,,,,,
,,,,,,,,,,,,,,,,,,20,2022-02-12_13h37.59.065,lexical_decision_task_DD_L4,2021.2.3,Win32,60.0240096,,,,,,,,,,,0.737,1,,,,,,,,,,,,,,m,1,0.737,,,,,,,,0.154536391,-0.495014955,0,0,0,,0,97,97,71,1,BUBBLE,LB,old,m,./images/BUBBLELB.png,,,,,,,,,,,,,,,,,,,,,,,,,,,,,,,,,,,
,,,,,,,,,,,,,,,,,,20,2022-02-12_13h37.59.065,lexical_decision_task_DD_L4,2021.2.3,Win32,60.0240096,,,,,,,,,,,0.771,1,,,,,,,,,,,,,,m,1,0.771,,,,,,,,0.154536391,-0.495014955,0,0,0,,0,98,98,16,1,GRAPE,HB,old,m,./images/GRAPEHB.png,,,,,,,,,,,,,,,,,,,,,,,,,,,,,,,,,,,
,,,,,,,,,,,,,,,,,,20,2022-02-12_13h37.59.065,lexical_decision_task_DD_L4,2021.2.3,Win32,60.0240096,,,,,,,,,,,0.73,1,,,,,,,,,,,,,,m,1,0.73,,,,,,,,0.154536391,-0.495014955,0,0,0,,0,99,99,41,1,STREAM,LB,old,m,./images/STREAMLB.png,,,,,,,,,,,,,,,,,,,,,,,,,,,,,,,,,,,
,,,,,,,,,,,,,,,,,,20,2022-02-12_13h37.59.065,lexical_decision_task_DD_L4,2021.2.3,Win32,60.0240096,,,,,,,,,,,0.622,1,,,,,,,,,,,,,,z,1,0.622,,,,,,,,0.154536391,-0.495014955,0,0,0,,0,100,100,156,1,HIXES,C,old,z,./images/HIXES.png,,,,,,,,,,,,,,,,,,,,,,,,,,,,,,,,,,,
,,,,,,,,,,,,,,,,,,20,2022-02-12_13h37.59.065,lexical_decision_task_DD_L4,2021.2.3,Win32,60.0240096,,,,,,,,,,,0.911,1,,,,,,,,,,,,,,z,1,0.911,,,,,,,,0.154536391,-0.495014955,0,0,0,,0,101,101,157,1,INLER,HB,old,z,./images/INLERHB.png,,,,,,,,,,,,,,,,,,,,,,,,,,,,,,,,,,,
,,,,,,,,,,,,,,,,,,20,2022-02-12_13h37.59.065,lexical_decision_task_DD_L4,2021.2.3,Win32,60.0240096,,,,,,,,,,,0.724,1,,,,,,,,,,,,,,m,1,0.724,,,,,,,,0.154536391,-0.495014955,0,0,0,,0,102,102,50,1,PILOT,LB,old,m,./images/PILOTLB.png,,,,,,,,,,,,,,,,,,,,,,,,,,,,,,,,,,,
,,,,,,,,,,,,,,,,,,20,2022-02-12_13h37.59.065,lexical_decision_task_DD_L4,2021.2.3,Win32,60.0240096,,,,,,,,,,,0.672,1,,,,,,,,,,,,,,m,1,0.672,,,,,,,,0.154536391,-0.495014955,0,0,0,,0,103,103,59,1,BRUSH,LB,old,m,./images/BRUSHLB.png,,,,,,,,,,,,,,,,,,,,,,,,,,,,,,,,,,,
,,,,,,,,,,,,,,,,,,20,2022-02-12_13h37.59.065,lexical_decision_task_DD_L4,2021.2.3,Win32,60.0240096,,,,,,,,,,,0.594,1,,,,,,,,,,,,,,z,1,0.594,,,,,,,,0.154536391,-0.495014955,0,0,0,,0,104,104,104,1,GITTY,LB,old,z,./images/GITTYLB.png,,,,,,,,,,,,,,,,,,,,,,,,,,,,,,,,,,,
,,,,,,,,,,,,,,,,,,20,2022-02-12_13h37.59.065,lexical_decision_task_DD_L4,2021.2.3,Win32,60.0240096,,,,,,,,,,,0.755,1,,,,,,,,,,,,,,z,1,0.755,,,,,,,,0.154536391,-0.495014955,0,0,0,,0,105,105,126,1,GUELS,C,old,z,./images/GUELS.png,,,,,,,,,,,,,,,,,,,,,,,,,,,,,,,,,,,
,,,,,,,,,,,,,,,,,,20,2022-02-12_13h37.59.065,lexical_decision_task_DD_L4,2021.2.3,Win32,60.0240096,,,,,,,,,,,0.678,1,,,,,,,,,,,,,,z,1,0.678,,,,,,,,0.154536391,-0.495014955,0,0,0,,0,106,106,116,1,BALGY,LB,old,z,./images/BALGYLB.png,,,,,,,,,,,,,,,,,,,,,,,,,,,,,,,,,,,
,,,,,,,,,,,,,,,,,,20,2022-02-12_13h37.59.065,lexical_decision_task_DD_L4,2021.2.3,Win32,60.0240096,,,,,,,,,,,0.878,1,,,,,,,,,,,,,,m,1,0.878,,,,,,,,0.154536391,-0.495014955,0,0,0,,0,107,107,82,1,PEBBLE,HB,old,m,./images/PEBBLEHB.png,,,,,,,,,,,,,,,,,,,,,,,,,,,,,,,,,,,
,,,,,,,,,,,,,,,,,,20,2022-02-12_13h37.59.065,lexical_decision_task_DD_L4,2021.2.3,Win32,60.0240096,,,,,,,,,,,0.59,1,,,,,,,,,,,,,,m,1,0.59,,,,,,,,0.154536391,-0.495014955,0,0,0,,0,108,108,14,1,FENCE,LB,old,m,./images/FENCELB.png,,,,,,,,,,,,,,,,,,,,,,,,,,,,,,,,,,,
,,,,,,,,,,,,,,,,,,20,2022-02-12_13h37.59.065,lexical_decision_task_DD_L4,2021.2.3,Win32,60.0240096,,,,,,,,,,,0.839,1,,,,,,,,,,,,,,z,1,0.839,,,,,,,,0.154536391,-0.495014955,0,0,0,,0,109,109,130,1,CRILL,HB,old,z,./images/CRILLHB.png,,,,,,,,,,,,,,,,,,,,,,,,,,,,,,,,,,,
,,,,,,,,,,,,,,,,,,20,2022-02-12_13h37.59.065,lexical_decision_task_DD_L4,2021.2.3,Win32,60.0240096,,,,,,,,,,,0.879,1,,,,,,,,,,,,,,m,1,0.879,,,,,,,,0.154536391,-0.495014955,0,0,0,,0,110,110,36,1,BOILER,C,old,m,./images/BOILER.png,,,,,,,,,,,,,,,,,,,,,,,,,,,,,,,,,,,
,,,,,,,,,,,,,,,,,,20,2022-02-12_13h37.59.065,lexical_decision_task_DD_L4,2021.2.3,Win32,60.0240096,,,,,,,,,,,0.803,1,,,,,,,,,,,,,,m,1,0.803,,,,,,,,0.154536391,-0.495014955,0,0,0,,0,111,111,35,1,LLAMA,LB,old,m,./images/LLAMALB.png,,,,,,,,,,,,,,,,,,,,,,,,,,,,,,,,,,,
,,,,,,,,,,,,,,,,,,20,2022-02-12_13h37.59.065,lexical_decision_task_DD_L4,2021.2.3,Win32,60.0240096,,,,,,,,,,,0.737,1,,,,,,,,,,,,,,m,1,0.737,,,,,,,,0.154536391,-0.495014955,0,0,0,,0,112,112,28,1,CASINO,HB,old,m,./images/CASINOHB.png,,,,,,,,,,,,,,,,,,,,,,,,,,,,,,,,,,,
,,,,,,,,,,,,,,,,,,20,2022-02-12_13h37.59.065,lexical_decision_task_DD_L4,2021.2.3,Win32,60.0240096,,,,,,,,,,,0.788,1,,,,,,,,,,,,,,m,1,0.788,,,,,,,,0.154536391,-0.495014955,0,0,0,,0,113,113,43,1,STOOL,HB,old,m,./images/STOOLHB.png,,,,,,,,,,,,,,,,,,,,,,,,,,,,,,,,,,,
,,,,,,,,,,,,,,,,,,20,2022-02-12_13h37.59.065,lexical_decision_task_DD_L4,2021.2.3,Win32,60.0240096,,,,,,,,,,,0.622,1,,,,,,,,,,,,,,m,1,0.622,,,,,,,,0.154536391,-0.495014955,0,0,0,,0,114,114,69,1,ARROW,C,old,m,./images/ARROW.png,,,,,,,,,,,,,,,,,,,,,,,,,,,,,,,,,,,
,,,,,,,,,,,,,,,,,,20,2022-02-12_13h37.59.065,lexical_decision_task_DD_L4,2021.2.3,Win32,60.0240096,,,,,,,,,,,0.609,1,,,,,,,,,,,,,,z,1,0.609,,,,,,,,0.154536391,-0.495014955,0,0,0,,0,115,115,122,1,BLOOT,LB,old,z,./images/BLOOTLB.png,,,,,,,,,,,,,,,,,,,,,,,,,,,,,,,,,,,
,,,,,,,,,,,,,,,,,,20,2022-02-12_13h37.59.065,lexical_decision_task_DD_L4,2021.2.3,Win32,60.0240096,,,,,,,,,,,0.589,1,,,,,,,,,,,,,,m,1,0.589,,,,,,,,0.154536391,-0.495014955,0,0,0,,0,116,116,74,1,JUMPER,LB,old,m,./images/JUMPERLB.png,,,,,,,,,,,,,,,,,,,,,,,,,,,,,,,,,,,
,,,,,,,,,,,,,,,,,,20,2022-02-12_13h37.59.065,lexical_decision_task_DD_L4,2021.2.3,Win32,60.0240096,,,,,,,,,,,0.656,1,,,,,,,,,,,,,,z,1,0.656,,,,,,,,0.154536391,-0.495014955,0,0,0,,0,117,117,159,1,CUDDY,C,old,z,./images/CUDDY.png,,,,,,,,,,,,,,,,,,,,,,,,,,,,,,,,,,,
,,,,,,,,,,,,,,,,,,20,2022-02-12_13h37.59.065,lexical_decision_task_DD_L4,2021.2.3,Win32,60.0240096,,,,,,,,,,,0.557,1,,,,,,,,,,,,,,m,1,0.557,,,,,,,,0.154536391,-0.495014955,0,0,0,,0,118,118,56,1,HEATER,LB,old,m,./images/HEATERLB.png,,,,,,,,,,,,,,,,,,,,,,,,,,,,,,,,,,,
,,,,,,,,,,,,,,,,,,20,2022-02-12_13h37.59.065,lexical_decision_task_DD_L4,2021.2.3,Win32,60.0240096,,,,,,,,,,,0.804,1,,,,,,,,,,,,,,z,1,0.804,,,,,,,,0.154536391,-0.495014955,0,0,0,,0,119,119,141,1,PLEET,C,old,z,./images/PLEET.png,,,,,,,,,,,,,,,,,,,,,,,,,,,,,,,,,,,
,,,,,,,,,,,,,,,,,,20,2022-02-12_13h37.59.065,lexical_decision_task_DD_L4,2021.2.3,Win32,60.0240096,,,,,,,,,,,0.605,1,,,,,,,,,,,,,,m,1,0.605,,,,,,,,0.154536391,-0.495014955,0,0,0,,0,120,120,51,1,SAUCE,C,old,m,./images/SAUCE.png,,,,,,,,,,,,,,,,,,,,,,,,,,,,,,,,,,,
,,,,,,,,,,,,,,,,,,20,2022-02-12_13h37.59.065,lexical_decision_task_DD_L4,2021.2.3,Win32,60.0240096,,,,,,,,,,,0.67,1,,,,,,,,,,,,,,m,1,0.67,,,,,,,,0.154536391,-0.495014955,0,0,0,,0,121,121,25,1,CHALK,HB,old,m,./images/CHALKHB.png,,,,,,,,,,,,,,,,,,,,,,,,,,,,,,,,,,,
,,,,,,,,,,,,,,,,,,20,2022-02-12_13h37.59.065,lexical_decision_task_DD_L4,2021.2.3,Win32,60.0240096,,,,,,,,,,,0.755,1,,,,,,,,,,,,,,z,1,0.755,,,,,,,,0.154536391,-0.495014955,0,0,0,,0,122,122,98,1,BAMPS,LB,old,z,./images/BAMPSLB.png,,,,,,,,,,,,,,,,,,,,,,,,,,,,,,,,,,,
,,,,,,,,,,,,,,,,,,20,2022-02-12_13h37.59.065,lexical_decision_task_DD_L4,2021.2.3,Win32,60.0240096,,,,,,,,,,,0.59,1,,,,,,,,,,,,,,m,1,0.59,,,,,,,,0.154536391,-0.495014955,0,0,0,,0,123,123,47,1,LAGOON,LB,old,m,./images/LAGOONLB.png,,,,,,,,,,,,,,,,,,,,,,,,,,,,,,,,,,,
,,,,,,,,,,,,,,,,,,20,2022-02-12_13h37.59.065,lexical_decision_task_DD_L4,2021.2.3,Win32,60.0240096,,,,,,,,,,,0.628,1,,,,,,,,,,,,,,m,1,0.628,,,,,,,,0.154536391,-0.495014955,0,0,0,,0,124,124,65,1,SPINE,LB,old,m,./images/SPINELB.png,,,,,,,,,,,,,,,,,,,,,,,,,,,,,,,,,,,
,,,,,,,,,,,,,,,,,,20,2022-02-12_13h37.59.065,lexical_decision_task_DD_L4,2021.2.3,Win32,60.0240096,,,,,,,,,,,0.696,1,,,,,,,,,,,,,,m,1,0.696,,,,,,,,0.154536391,-0.495014955,0,0,0,space,0,125,125,40,1,SNAKE,HB,old,m,./images/SNAKEHB.png,57.436,,,,,,,,,,,,,,,,,,,,,,,,,,,,,,,,,,
,,,,,,,,,,,,,,,,,,20,2022-02-12_13h37.59.065,lexical_decision_task_DD_L4,2021.2.3,Win32,60.0240096,,,,,,,,,,,0.671,1,,,,,,,,,,,,,,m,1,0.671,,,,,,,,0.154536391,-0.495014955,0,0,0,,0,126,126,26,1,CLOUD,LB,old,m,./images/CLOUDLB.png,,,,,,,,,,,,,,,,,,,,,,,,,,,,,,,,,,,
,,,,,,,,,,,,,,,,,,20,2022-02-12_13h37.59.065,lexical_decision_task_DD_L4,2021.2.3,Win32,60.0240096,,,,,,,,,,,0.589,1,,,,,,,,,,,,,,z,1,0.589,,,,,,,,0.154536391,-0.495014955,0,0,0,,0,127,127,161,1,BLAPS,LB,old,z,./images/BLAPSLB.png,,,,,,,,,,,,,,,,,,,,,,,,,,,,,,,,,,,
,,,,,,,,,,,,,,,,,,20,2022-02-12_13h37.59.065,lexical_decision_task_DD_L4,2021.2.3,Win32,60.0240096,,,,,,,,,,,0.655,1,,,,,,,,,,,,,,z,1,0.655,,,,,,,,0.154536391,-0.495014955,0,0,0,,0,128,128,162,1,LEICH,C,old,z,./images/LEICH.png,,,,,,,,,,,,,,,,,,,,,,,,,,,,,,,,,,,
,,,,,,,,,,,,,,,,,,20,2022-02-12_13h37.59.065,lexical_decision_task_DD_L4,2021.2.3,Win32,60.0240096,,,,,,,,,,,0.612,1,,,,,,,,,,,,,,m,1,0.612,,,,,,,,0.154536391,-0.495014955,0,0,0,,0,129,129,68,1,VALLEY,LB,old,m,./images/VALLEYLB.png,,,,,,,,,,,,,,,,,,,,,,,,,,,,,,,,,,,
,,,,,,,,,,,,,,,,,,20,2022-02-12_13h37.59.065,lexical_decision_task_DD_L4,2021.2.3,Win32,60.0240096,,,,,,,,,,,0.593,1,,,,,,,,,,,,,,m,1,0.593,,,,,,,,0.154536391,-0.495014955,0,0,0,,0,130,130,2,1,STOVE,LB,old,m,./images/STOVELB.png,,,,,,,,,,,,,,,,,,,,,,,,,,,,,,,,,,,
,,,,,,,,,,,,,,,,,,20,2022-02-12_13h37.59.065,lexical_decision_task_DD_L4,2021.2.3,Win32,60.0240096,,,,,,,,,,,0.558,1,,,,,,,,,,,,,,m,1,0.558,,,,,,,,0.154536391,-0.495014955,0,0,0,,0,131,131,33,1,SAUNA,C,old,m,./images/SAUNA.png,,,,,,,,,,,,,,,,,,,,,,,,,,,,,,,,,,,
,,,,,,,,,,,,,,,,,,20,2022-02-12_13h37.59.065,lexical_decision_task_DD_L4,2021.2.3,Win32,60.0240096,,,,,,,,,,,0.608,1,,,,,,,,,,,,,,z,1,0.608,,,,,,,,0.154536391,-0.495014955,0,0,0,,0,132,132,103,1,FLORT,HB,old,z,./images/FLORTHB.png,,,,,,,,,,,,,,,,,,,,,,,,,,,,,,,,,,,
,,,,,,,,,,,,,,,,,,20,2022-02-12_13h37.59.065,lexical_decision_task_DD_L4,2021.2.3,Win32,60.0240096,,,,,,,,,,,0.678,1,,,,,,,,,,,,,,z,1,0.678,,,,,,,,0.154536391,-0.495014955,0,0,0,,0,133,133,87,1,TRING,C,old,z,./images/TRING.png,,,,,,,,,,,,,,,,,,,,,,,,,,,,,,,,,,,
,,,,,,,,,,,,,,,,,,20,2022-02-12_13h37.59.065,lexical_decision_task_DD_L4,2021.2.3,Win32,60.0240096,,,,,,,,,,,0.638,1,,,,,,,,,,,,,,m,1,0.638,,,,,,,,0.154536391,-0.495014955,0,0,0,,0,134,134,29,1,PISTOL,LB,old,m,./images/PISTOLLB.png,,,,,,,,,,,,,,,,,,,,,,,,,,,,,,,,,,,
,,,,,,,,,,,,,,,,,,20,2022-02-12_13h37.59.065,lexical_decision_task_DD_L4,2021.2.3,Win32,60.0240096,,,,,,,,,,,0.554,1,,,,,,,,,,,,,,m,1,0.554,,,,,,,,0.154536391,-0.495014955,0,0,0,,0,135,135,54,1,CHERRY,C,old,m,./images/CHERRY.png,,,,,,,,,,,,,,,,,,,,,,,,,,,,,,,,,,,
,,,,,,,,,,,,,,,,,,20,2022-02-12_13h37.59.065,lexical_decision_task_DD_L4,2021.2.3,Win32,60.0240096,,,,,,,,,,,0.638,1,,,,,,,,,,,,,,m,1,0.638,,,,,,,,0.154536391,-0.495014955,0,0,0,,0,136,136,44,1,BASKET,LB,old,m,./images/BASKETLB.png,,,,,,,,,,,,,,,,,,,,,,,,,,,,,,,,,,,
,,,,,,,,,,,,,,,,,,20,2022-02-12_13h37.59.065,lexical_decision_task_DD_L4,2021.2.3,Win32,60.0240096,,,,,,,,,,,1.357,1,,,,,,,,,,,,,,z,1,1.357,,,,,,,,0.154536391,-0.495014955,0,0,0,,0,137,137,151,1,TINKY,HB,old,z,./images/TINKYHB.png,,,,,,,,,,,,,,,,,,,,,,,,,,,,,,,,,,,
,,,,,,,,,,,,,,,,,,20,2022-02-12_13h37.59.065,lexical_decision_task_DD_L4,2021.2.3,Win32,60.0240096,,,,,,,,,,,2.072,0,,,,,,,,,,,,,,m,0,2.072,,,,,,,,0.154536391,-0.495014955,0,0,0,,0,138,138,123,1,SEDGE,C,old,z,./images/SEDGE.png,,,,,,,,,,,,,,,,,,,,,,,,,,,,,,,,,,,
,,,,,,,,,,,,,,,,,,20,2022-02-12_13h37.59.065,lexical_decision_task_DD_L4,2021.2.3,Win32,60.0240096,,,,,,,,,,,0.807,1,,,,,,,,,,,,,,m,1,0.807,,,,,,,,0.154536391,-0.495014955,0,0,0,,0,139,139,18,1,PARCEL,C,old,m,./images/PARCEL.png,,,,,,,,,,,,,,,,,,,,,,,,,,,,,,,,,,,
,,,,,,,,,,,,,,,,,,20,2022-02-12_13h37.59.065,lexical_decision_task_DD_L4,2021.2.3,Win32,60.0240096,,,,,,,,,,,0.607,1,,,,,,,,,,,,,,z,1,0.607,,,,,,,,0.154536391,-0.495014955,0,0,0,,0,140,140,108,1,GRUET,C,old,z,./images/GRUET.png,,,,,,,,,,,,,,,,,,,,,,,,,,,,,,,,,,,
,,,,,,,,,,,,,,,,,,20,2022-02-12_13h37.59.065,lexical_decision_task_DD_L4,2021.2.3,Win32,60.0240096,,,,,,,,,,,0.556,1,,,,,,,,,,,,,,m,1,0.556,,,,,,,,0.154536391,-0.495014955,0,0,0,,0,141,141,6,1,STAIN,C,old,m,./images/STAIN.png,,,,,,,,,,,,,,,,,,,,,,,,,,,,,,,,,,,
,,,,,,,,,,,,,,,,,,20,2022-02-12_13h37.59.065,lexical_decision_task_DD_L4,2021.2.3,Win32,60.0240096,,,,,,,,,,,0.563,1,,,,,,,,,,,,,,m,1,0.563,,,,,,,,0.154536391,-0.495014955,0,0,0,,0,142,142,60,1,CURRY,C,old,m,./images/CURRY.png,,,,,,,,,,,,,,,,,,,,,,,,,,,,,,,,,,,
,,,,,,,,,,,,,,,,,,20,2022-02-12_13h37.59.065,lexical_decision_task_DD_L4,2021.2.3,Win32,60.0240096,,,,,,,,,,,0.572,1,,,,,,,,,,,,,,z,1,0.572,,,,,,,,0.154536391,-0.495014955,0,0,0,,0,143,143,152,1,FRAIN,LB,old,z,./images/FRAINLB.png,,,,,,,,,,,,,,,,,,,,,,,,,,,,,,,,,,,
,,,,,,,,,,,,,,,,,,20,2022-02-12_13h37.59.065,lexical_decision_task_DD_L4,2021.2.3,Win32,60.0240096,,,,,,,,,,,0.624,1,,,,,,,,,,,,,,z,1,0.624,,,,,,,,0.154536391,-0.495014955,0,0,0,,0,144,144,132,1,SCIFF,C,old,z,./images/SCIFF.png,,,,,,,,,,,,,,,,,,,,,,,,,,,,,,,,,,,
,,,,,,,,,,,,,,,,,,20,2022-02-12_13h37.59.065,lexical_decision_task_DD_L4,2021.2.3,Win32,60.0240096,,,,,,,,,,,0.543,1,,,,,,,,,,,,,,m,1,0.543,,,,,,,,0.154536391,-0.495014955,0,0,0,,0,145,145,83,1,WHISKY,LB,old,m,./images/WHISKYLB.png,,,,,,,,,,,,,,,,,,,,,,,,,,,,,,,,,,,
,,,,,,,,,,,,,,,,,,20,2022-02-12_13h37.59.065,lexical_decision_task_DD_L4,2021.2.3,Win32,60.0240096,,,,,,,,,,,0.991,1,,,,,,,,,,,,,,m,1,0.991,,,,,,,,0.154536391,-0.495014955,0,0,0,,0,146,146,58,1,CANOE,HB,old,m,./images/CANOEHB.png,,,,,,,,,,,,,,,,,,,,,,,,,,,,,,,,,,,
,,,,,,,,,,,,,,,,,,20,2022-02-12_13h37.59.065,lexical_decision_task_DD_L4,2021.2.3,Win32,60.0240096,,,,,,,,,,,0.896,1,,,,,,,,,,,,,,z,1,0.896,,,,,,,,0.154536391,-0.495014955,0,0,0,,0,147,147,84,1,HAXES,C,old,z,./images/HAXES.png,,,,,,,,,,,,,,,,,,,,,,,,,,,,,,,,,,,
,,,,,,,,,,,,,,,,,,20,2022-02-12_13h37.59.065,lexical_decision_task_DD_L4,2021.2.3,Win32,60.0240096,,,,,,,,,,,0.705,1,,,,,,,,,,,,,,z,1,0.705,,,,,,,,0.154536391,-0.495014955,0,0,0,,0,148,148,128,1,GRIFT,LB,old,z,./images/GRIFTLB.png,,,,,,,,,,,,,,,,,,,,,,,,,,,,,,,,,,,
,,,,,,,,,,,,,,,,,,20,2022-02-12_13h37.59.065,lexical_decision_task_DD_L4,2021.2.3,Win32,60.0240096,,,,,,,,,,,0.805,1,,,,,,,,,,,,,,m,1,0.805,,,,,,,,0.154536391,-0.495014955,0,0,0,,0,149,149,32,1,HOCKEY,LB,old,m,./images/HOCKEYLB.png,,,,,,,,,,,,,,,,,,,,,,,,,,,,,,,,,,,
,,,,,,,,,,,,,,,,,,20,2022-02-12_13h37.59.065,lexical_decision_task_DD_L4,2021.2.3,Win32,60.0240096,,,,,,,,,,,0.805,1,,,,,,,,,,,,,,z,1,0.805,,,,,,,,0.154536391,-0.495014955,0,0,0,,0,150,150,165,1,TROWN,C,old,z,./images/TROWN.png,,,,,,,,,,,,,,,,,,,,,,,,,,,,,,,,,,,
,,,,,,,,,,,,,,,,,,20,2022-02-12_13h37.59.065,lexical_decision_task_DD_L4,2021.2.3,Win32,60.0240096,,,,,,,,,,,0.687,1,,,,,,,,,,,,,,z,1,0.687,,,,,,,,0.154536391,-0.495014955,0,0,0,,0,151,151,144,1,NAIRY,C,old,z,./images/NAIRY.png,,,,,,,,,,,,,,,,,,,,,,,,,,,,,,,,,,,
,,,,,,,,,,,,,,,,,,20,2022-02-12_13h37.59.065,lexical_decision_task_DD_L4,2021.2.3,Win32,60.0240096,,,,,,,,,,,0.557,1,,,,,,,,,,,,,,m,1,0.557,,,,,,,,0.154536391,-0.495014955,0,0,0,,0,152,152,42,1,CHAIN,C,old,m,./images/CHAIN.png,,,,,,,,,,,,,,,,,,,,,,,,,,,,,,,,,,,
,,,,,,,,,,,,,,,,,,20,2022-02-12_13h37.59.065,lexical_decision_task_DD_L4,2021.2.3,Win32,60.0240096,,,,,,,,,,,0.571,1,,,,,,,,,,,,,,m,1,0.571,,,,,,,,0.154536391,-0.495014955,0,0,0,,0,153,153,78,1,BROOM,C,old,m,./images/BROOM.png,,,,,,,,,,,,,,,,,,,,,,,,,,,,,,,,,,,
,,,,,,,,,,,,,,,,,,20,2022-02-12_13h37.59.065,lexical_decision_task_DD_L4,2021.2.3,Win32,60.0240096,,,,,,,,,,,0.704,1,,,,,,,,,,,,,,m,1,0.704,,,,,,,,0.154536391,-0.495014955,0,0,0,,0,154,154,12,1,BLOKE,C,old,m,./images/BLOKE.png,,,,,,,,,,,,,,,,,,,,,,,,,,,,,,,,,,,
,,,,,,,,,,,,,,,,,,20,2022-02-12_13h37.59.065,lexical_decision_task_DD_L4,2021.2.3,Win32,60.0240096,,,,,,,,,,,0.705,1,,,,,,,,,,,,,,z,1,0.705,,,,,,,,0.154536391,-0.495014955,0,0,0,,0,155,155,137,1,JOOST,LB,old,z,./images/JOOSTLB.png,,,,,,,,,,,,,,,,,,,,,,,,,,,,,,,,,,,
,,,,,,,,,,,,,,,,,,20,2022-02-12_13h37.59.065,lexical_decision_task_DD_L4,2021.2.3,Win32,60.0240096,,,,,,,,,,,1.038,1,,,,,,,,,,,,,,z,1,1.038,,,,,,,,0.154536391,-0.495014955,0,0,0,,0,156,156,139,1,BLEAR,HB,old,z,./images/BLEARHB.png,,,,,,,,,,,,,,,,,,,,,,,,,,,,,,,,,,,
,,,,,,,,,,,,,,,,,,20,2022-02-12_13h37.59.065,lexical_decision_task_DD_L4,2021.2.3,Win32,60.0240096,,,,,,,,,,,0.723,1,,,,,,,,,,,,,,m,1,0.723,,,,,,,,0.154536391,-0.495014955,0,0,0,,0,157,157,1,1,TOWEL,HB,old,m,./images/TOWELHB.png,,,,,,,,,,,,,,,,,,,,,,,,,,,,,,,,,,,
,,,,,,,,,,,,,,,,,,20,2022-02-12_13h37.59.065,lexical_decision_task_DD_L4,2021.2.3,Win32,60.0240096,,,,,,,,,,,0.978,1,,,,,,,,,,,,,,z,1,0.978,,,,,,,,0.154536391,-0.495014955,0,0,0,,0,158,158,148,1,JOMS,HB,old,z,./images/JOMSHB.png,,,,,,,,,,,,,,,,,,,,,,,,,,,,,,,,,,,
,,,,,,,,,,,,,,,,,,20,2022-02-12_13h37.59.065,lexical_decision_task_DD_L4,2021.2.3,Win32,60.0240096,,,,,,,,,,,0.573,1,,,,,,,,,,,,,,m,1,0.573,,,,,,,,0.154536391,-0.495014955,0,0,0,,0,159,159,80,1,PLANET,LB,old,m,./images/PLANETLB.png,,,,,,,,,,,,,,,,,,,,,,,,,,,,,,,,,,,
,,,,,,,,,,,,,,,,,,20,2022-02-12_13h37.59.065,lexical_decision_task_DD_L4,2021.2.3,Win32,60.0240096,,,,,,,,,,,0.924,1,,,,,,,,,,,,,,z,1,0.924,,,,,,,,0.154536391,-0.495014955,0,0,0,,0,160,160,113,1,LINEW,LB,old,z,./images/LINEWLB.png,,,,,,,,,,,,,,,,,,,,,,,,,,,,,,,,,,,
,,,,,,,,,,,,,,,,,,20,2022-02-12_13h37.59.065,lexical_decision_task_DD_L4,2021.2.3,Win32,60.0240096,,,,,,,,,,,0.622,1,,,,,,,,,,,,,,m,1,0.622,,,,,,,,0.154536391,-0.495014955,0,0,0,,0,161,161,57,1,FERRY,C,old,m,./images/FERRY.png,,,,,,,,,,,,,,,,,,,,,,,,,,,,,,,,,,,
,,,,,,,,,,,,,,,,,,20,2022-02-12_13h37.59.065,lexical_decision_task_DD_L4,2021.2.3,Win32,60.0240096,,,,,,,,,,,0.606,1,,,,,,,,,,,,,,m,1,0.606,,,,,,,,0.154536391,-0.495014955,0,0,0,,0,162,162,9,1,DIVER,C,old,m,./images/DIVER.png,,,,,,,,,,,,,,,,,,,,,,,,,,,,,,,,,,,
,,,,,,,,,,,,,,,,,,20,2022-02-12_13h37.59.065,lexical_decision_task_DD_L4,2021.2.3,Win32,60.0240096,,,,,,,,,,,1.182,1,,,,,,,,,,,,,,z,1,1.182,,,,,,,,0.154536391,-0.495014955,0,0,0,,0,163,163,154,1,THINT,HB,old,z,./images/THINTHB.png,,,,,,,,,,,,,,,,,,,,,,,,,,,,,,,,,,,
,,,,,,,,,,,,,,,,,,20,2022-02-12_13h37.59.065,lexical_decision_task_DD_L4,2021.2.3,Win32,60.0240096,,,,,,,,,,,0.682,1,,,,,,,,,,,,,,z,1,0.682,,,,,,,,0.154536391,-0.495014955,0,0,0,,0,164,164,95,1,HANTY,LB,old,z,./images/HANTYLB.png,,,,,,,,,,,,,,,,,,,,,,,,,,,,,,,,,,,
,,,,,,,,,,,,,,,,,,20,2022-02-12_13h37.59.065,lexical_decision_task_DD_L4,2021.2.3,Win32,60.0240096,,,,,,,,,,,0.89,1,,,,,,,,,,,,,,z,1,0.89,,,,,,,,0.154536391,-0.495014955,0,0,0,,0,165,165,131,1,NACES,LB,old,z,./images/NACESLB.png,,,,,,,,,,,,,,,,,,,,,,,,,,,,,,,,,,,
,,,,,,,,,,,,,,,,,,20,2022-02-12_13h37.59.065,lexical_decision_task_DD_L4,2021.2.3,Win32,60.0240096,,,,,,,,,,,0.84,1,,,,,,,,,,,,,,z,1,0.84,,,,,,,,0.154536391,-0.495014955,0,0,0,,0,166,166,153,1,CLUPS,C,old,z,./images/CLUPS.png,,,,,,,,,,,,,,,,,,,,,,,,,,,,,,,,,,,
,,,,,,,,,,,,,,,,,,20,2022-02-12_13h37.59.065,lexical_decision_task_DD_L4,2021.2.3,Win32,60.0240096,,,,,,,,,,,0.588,1,,,,,,,,,,,,,,m,1,0.588,,,,,,,,0.154536391,-0.495014955,0,0,0,,0,167,167,45,1,MONKEY,C,old,m,./images/MONKEY.png,,,,,,,,,,,,,,,,,,,,,,,,,,,,,,,,,,,
,,,,,,,,,,,,,,,,,,20,2022-02-12_13h37.59.065,lexical_decision_task_DD_L4,2021.2.3,Win32,60.0240096,,,,,,,,,,,,,,,,,,,,,,,,,,,,,,,,,,,,,,,,,,,,,,,,How likely will it be that you will recognize the words presented slighly blurred on a scale of 0 (not likely) to 100 (most likely)?,,,,,-0.030907278,-0.429212363,1,0,0,jol_adv,6,5.698,0,0,0,1,1,,,,,,,,,,,,,,,,,,,,,
,,,,,,,,,,,,,,,,,,20,2022-02-12_13h37.59.065,lexical_decision_task_DD_L4,2021.2.3,Win32,60.0240096,,,,,,,,,,,,,,,,,,,,,,,,,,,,,,,,,,,,,,,,,,,,,,,,How likely will it be that you will recognize the words presented clearly on a scale of 0 (not likely) to 100 (most likely)?,,,,,,,,,,,6,3.61,0,1,1,0,1,,,,,,,,,,,,,,,,,,,,,
,,,,,,,,,,,,,,,,,,20,2022-02-12_13h37.59.065,lexical_decision_task_DD_L4,2021.2.3,Win32,60.0240096,,,,,,,,,,,,,,,,,,,,,,,,,,,,,,,,,,,,,,,,,,,,,,,,How likely will it be that you will recognize the words presented very blurred on a scale of 0 (not likely) to 100 (most likely)?,,,,,,,,,,,4,2.66,0,2,2,2,1,,,,,,,,,,,,,,,,,,,,,
,,0.112662014,-0.395314058,1,0,0,,,,,,1,test,"In the next phase you will be presented with the words from the the first phase. Your job is to decide whether you remember seeing the word or not. If you remember seeing the word press ""old"" or type ""m"". If you do not remember seeing the word press ""new"" or type ""z"". Please press the space bar or click on continue to begin. ",,,,20,2022-02-12_13h37.59.065,lexical_decision_task_DD_L4,2021.2.3,Win32,60.0240096,,,,,,,,,,,,,,,,,,,,,,,,,,,,,,,,,,,,,,,,,,,,,,,,,,,,,,,,,,,,,,,,,,instr_done_button,0,0,0,0,1,,,,,,,,,,,,,,,
space,1.735,0.415752742,-0.15004985,0,0,0,,,,,,1,test,"In the next phase you will be presented with the words from the the first phase. Your job is to decide whether you remember seeing the word or not. If you remember seeing the word press ""old"" or type ""m"". If you do not remember seeing the word press ""new"" or type ""z"". Please press the space bar or click on continue to begin. ",,,,20,2022-02-12_13h37.59.065,lexical_decision_task_DD_L4,2021.2.3,Win32,60.0240096,,,,,,,,,,,,,,,,,,,,,,,,,,,,,,,,,,,,,,,,,,,,,,,,,,,,,,,,,,,,,,,,,,,1,0,1,0,1,,,,,,,,,,,,,,,
space,5.769,0.035892323,-0.366400798,0,0,0,,,,,,1,test,"In the next phase you will be presented with the words from the the first phase. Your job is to decide whether you remember seeing the word or not. If you remember seeing the word press ""old"" or type ""m"". If you do not remember seeing the word press ""new"" or type ""z"". Please press the space bar or click on continue to begin. ",,,,20,2022-02-12_13h37.59.065,lexical_decision_task_DD_L4,2021.2.3,Win32,60.0240096,,,,,,,,,,,,,,,,,,,,,,,,,,,,,,,,,,,,,,,,,,,,,,,,,,,,,,,,,,,,,,,,,,,2,0,2,0,1,,,,,,,,,,,,,,,
space,2.668,0.035892323,-0.366400798,0,0,0,,,,,,1,test,"In the next phase you will be presented with the words from the the first phase. Your job is to decide whether you remember seeing the word or not. If you remember seeing the word press ""old"" or type ""m"". If you do not remember seeing the word press ""new"" or type ""z"". Please press the space bar or click on continue to begin. ",,,,20,2022-02-12_13h37.59.065,lexical_decision_task_DD_L4,2021.2.3,Win32,60.0240096,,,,,,,,,,,,,,,,,,,,,,,,,,,,,,,,,,,,,,,,,,,,,,,,,,,,,,,,,,,,,,,,,,,3,0,3,0,1,,,,,,,,,,,,,,,
,,-0.004985045,-0.416251246,1,0,0,,,,,,1,test,"In the next phase you will be presented with the words from the the first phase. Your job is to decide whether you remember seeing the word or not. If you remember seeing the word press ""old"" or type ""m"". If you do not remember seeing the word press ""new"" or type ""z"". Please press the space bar or click on continue to begin. ",,,,20,2022-02-12_13h37.59.065,lexical_decision_task_DD_L4,2021.2.3,Win32,60.0240096,,,,,,,,,,,,,,,,,,,,,,,,,,,,,,,,,,,,,,,,,,,,,,,,,,,,,,,,,,,,,,,,,,instr_done_button,4,0,4,0,1,,,,,,,,,,,,,,,
,,,,,,,,,,,,,,,,,,20,2022-02-12_13h37.59.065,lexical_decision_task_DD_L4,2021.2.3,Win32,60.0240096,,,,,,,,,,,1.549,1,,,,,,,,,,,,,,,,,,,,,,,,0.199401795,-0.162013958,0,0,0,,,,,,,BASKET,LB,m,y,./images/BASKETLB.png,,,,,,,,,,,,,,,,,,,,,m,1,1.549,,,,,,,,0,0,0,44,1
,,,,,,,,,,,,,,,,,,20,2022-02-12_13h37.59.065,lexical_decision_task_DD_L4,2021.2.3,Win32,60.0240096,,,,,,,,,,,2.439,1,,,,,,,,,,,,,,,,,,,,,,,,0.199401795,-0.162013958,0,0,0,,,,,,,CRUMB,LB,z,y,./images/CRUMBLB.png,,,,,,,,,,,,,,,,,,,,,z,1,2.439,,,,,,,,0,1,1,113,1
,,,,,,,,,,,,,,,,,,20,2022-02-12_13h37.59.065,lexical_decision_task_DD_L4,2021.2.3,Win32,60.0240096,,,,,,,,,,,1.378,1,,,,,,,,,,,,,,,,,,,,,,,,0.199401795,-0.162013958,0,0,0,,,,,,,PEARL,HB,z,y,./images/PEARLHB.png,,,,,,,,,,,,,,,,,,,,,z,1,1.378,,,,,,,,0,2,2,130,1
,,,,,,,,,,,,,,,,,,20,2022-02-12_13h37.59.065,lexical_decision_task_DD_L4,2021.2.3,Win32,60.0240096,,,,,,,,,,,0.999,1,,,,,,,,,,,,,,,,,,,,,,,,0.199401795,-0.162013958,0,0,0,,,,,,,STREAM,LB,m,y,./images/STREAMLB.png,,,,,,,,,,,,,,,,,,,,,m,1,0.999,,,,,,,,0,3,3,41,1
,,,,,,,,,,,,,,,,,,20,2022-02-12_13h37.59.065,lexical_decision_task_DD_L4,2021.2.3,Win32,60.0240096,,,,,,,,,,,1.132,1,,,,,,,,,,,,,,,,,,,,,,,,0.199401795,-0.162013958,0,0,0,,,,,,,TWINS,C,z,y,./images/TWINS.png,,,,,,,,,,,,,,,,,,,,,z,1,1.132,,,,,,,,0,4,4,144,1
,,,,,,,,,,,,,,,,,,20,2022-02-12_13h37.59.065,lexical_decision_task_DD_L4,2021.2.3,Win32,60.0240096,,,,,,,,,,,0.997,1,,,,,,,,,,,,,,,,,,,,,,,,0.199401795,-0.162013958,0,0,0,,,,,,,TORCH,LB,z,y,./images/TORCHLB.png,,,,,,,,,,,,,,,,,,,,,z,1,0.997,,,,,,,,0,5,5,152,1
,,,,,,,,,,,,,,,,,,20,2022-02-12_13h37.59.065,lexical_decision_task_DD_L4,2021.2.3,Win32,60.0240096,,,,,,,,,,,0.92,1,,,,,,,,,,,,,,,,,,,,,,,,0.199401795,-0.162013958,0,0,0,,,,,,,ONION,C,z,y,./images/ONION.png,,,,,,,,,,,,,,,,,,,,,z,1,0.92,,,,,,,,0,6,6,135,1
,,,,,,,,,,,,,,,,,,20,2022-02-12_13h37.59.065,lexical_decision_task_DD_L4,2021.2.3,Win32,60.0240096,,,,,,,,,,,0.847,0,,,,,,,,,,,,,,,,,,,,,,,,0.199401795,-0.162013958,0,0,0,,,,,,,SCREW,C,z,y,./images/SCREW.png,,,,,,,,,,,,,,,,,,,,,m,0,0.847,,,,,,,,0,7,7,108,1
,,,,,,,,,,,,,,,,,,20,2022-02-12_13h37.59.065,lexical_decision_task_DD_L4,2021.2.3,Win32,60.0240096,,,,,,,,,,,0.848,1,,,,,,,,,,,,,,,,,,,,,,,,0.199401795,-0.162013958,0,0,0,,,,,,,BRIDE,HB,m,y,./images/BRIDEHB.png,,,,,,,,,,,,,,,,,,,,,m,1,0.848,,,,,,,,0,8,8,64,1
,,,,,,,,,,,,,,,,,,20,2022-02-12_13h37.59.065,lexical_decision_task_DD_L4,2021.2.3,Win32,60.0240096,,,,,,,,,,,0.797,1,,,,,,,,,,,,,,,,,,,,,,,,0.199401795,-0.162013958,0,0,0,,,,,,,MUMMY,HB,m,y,./images/MUMMYHB.png,,,,,,,,,,,,,,,,,,,,,m,1,0.797,,,,,,,,0,9,9,46,1
,,,,,,,,,,,,,,,,,,20,2022-02-12_13h37.59.065,lexical_decision_task_DD_L4,2021.2.3,Win32,60.0240096,,,,,,,,,,,0.815,1,,,,,,,,,,,,,,,,,,,,,,,,0.199401795,-0.162013958,0,0,0,,,,,,,JUMPER,LB,m,y,./images/JUMPERLB.png,,,,,,,,,,,,,,,,,,,,,m,1,0.815,,,,,,,,0,10,10,74,1
,,,,,,,,,,,,,,,,,,20,2022-02-12_13h37.59.065,lexical_decision_task_DD_L4,2021.2.3,Win32,60.0240096,,,,,,,,,,,1.084,1,,,,,,,,,,,,,,,,,,,,,,,,0.199401795,-0.162013958,0,0,0,,,,,,,MELON,HB,z,y,./images/MELONHB.png,,,,,,,,,,,,,,,,,,,,,z,1,1.084,,,,,,,,0,11,11,106,1
,,,,,,,,,,,,,,,,,,20,2022-02-12_13h37.59.065,lexical_decision_task_DD_L4,2021.2.3,Win32,60.0240096,,,,,,,,,,,1.407,1,,,,,,,,,,,,,,,,,,,,,,,,0.199401795,-0.162013958,0,0,0,,,,,,,KIDNEY,C,z,y,./images/KIDNEY.png,,,,,,,,,,,,,,,,,,,,,z,1,1.407,,,,,,,,0,12,12,105,1
,,,,,,,,,,,,,,,,,,20,2022-02-12_13h37.59.065,lexical_decision_task_DD_L4,2021.2.3,Win32,60.0240096,,,,,,,,,,,0.778,1,,,,,,,,,,,,,,,,,,,,,,,,0.199401795,-0.162013958,0,0,0,,,,,,,MONKEY,C,m,y,./images/MONKEY.png,,,,,,,,,,,,,,,,,,,,,m,1,0.778,,,,,,,,0,13,13,45,1
,,,,,,,,,,,,,,,,,,20,2022-02-12_13h37.59.065,lexical_decision_task_DD_L4,2021.2.3,Win32,60.0240096,,,,,,,,,,,1.141,1,,,,,,,,,,,,,,,,,,,,,,,,0.199401795,-0.162013958,0,0,0,,,,,,,BURIAL,LB,z,y,./images/BURIALLB.png,,,,,,,,,,,,,,,,,,,,,z,1,1.141,,,,,,,,0,14,14,143,1
,,,,,,,,,,,,,,,,,,20,2022-02-12_13h37.59.065,lexical_decision_task_DD_L4,2021.2.3,Win32,60.0240096,,,,,,,,,,,0.931,1,,,,,,,,,,,,,,,,,,,,,,,,0.199401795,-0.162013958,0,0,0,,,,,,,SNACK,HB,z,y,./images/SNACKHB.png,,,,,,,,,,,,,,,,,,,,,z,1,0.931,,,,,,,,0,15,15,157,1
,,,,,,,,,,,,,,,,,,20,2022-02-12_13h37.59.065,lexical_decision_task_DD_L4,2021.2.3,Win32,60.0240096,,,,,,,,,,,0.938,0,,,,,,,,,,,,,,,,,,,,,,,,0.199401795,-0.162013958,0,0,0,,,,,,,STRING,LB,z,y,./images/STRINGLB.png,,,,,,,,,,,,,,,,,,,,,m,0,0.938,,,,,,,,0,16,16,125,1
,,,,,,,,,,,,,,,,,,20,2022-02-12_13h37.59.065,lexical_decision_task_DD_L4,2021.2.3,Win32,60.0240096,,,,,,,,,,,0.78,1,,,,,,,,,,,,,,,,,,,,,,,,0.199401795,-0.162013958,0,0,0,,,,,,,CLOWN,HB,m,y,./images/CLOWNHB.png,,,,,,,,,,,,,,,,,,,,,m,1,0.78,,,,,,,,0,17,17,22,1
,,,,,,,,,,,,,,,,,,20,2022-02-12_13h37.59.065,lexical_decision_task_DD_L4,2021.2.3,Win32,60.0240096,,,,,,,,,,,0.896,1,,,,,,,,,,,,,,,,,,,,,,,,0.199401795,-0.162013958,0,0,0,,,,,,,BLOKE,C,m,y,./images/BLOKE.png,,,,,,,,,,,,,,,,,,,,,m,1,0.896,,,,,,,,0,18,18,12,1
,,,,,,,,,,,,,,,,,,20,2022-02-12_13h37.59.065,lexical_decision_task_DD_L4,2021.2.3,Win32,60.0240096,,,,,,,,,,,1.582,1,,,,,,,,,,,,,,,,,,,,,,,,0.199401795,-0.162013958,0,0,0,,,,,,,GRAIN,C,z,y,./images/GRAIN.png,,,,,,,,,,,,,,,,,,,,,z,1,1.582,,,,,,,,0,19,19,159,1
,,,,,,,,,,,,,,,,,,20,2022-02-12_13h37.59.065,lexical_decision_task_DD_L4,2021.2.3,Win32,60.0240096,,,,,,,,,,,0.795,1,,,,,,,,,,,,,,,,,,,,,,,,0.199401795,-0.162013958,0,0,0,,,,,,,MOSQUE,HB,z,y,./images/MOSQUEHB.png,,,,,,,,,,,,,,,,,,,,,z,1,0.795,,,,,,,,0,20,20,127,1
,,,,,,,,,,,,,,,,,,20,2022-02-12_13h37.59.065,lexical_decision_task_DD_L4,2021.2.3,Win32,60.0240096,,,,,,,,,,,0.814,1,,,,,,,,,,,,,,,,,,,,,,,,0.199401795,-0.162013958,0,0,0,,,,,,,CHALK,HB,m,y,./images/CHALKHB.png,,,,,,,,,,,,,,,,,,,,,m,1,0.814,,,,,,,,0,21,21,25,1
,,,,,,,,,,,,,,,,,,20,2022-02-12_13h37.59.065,lexical_decision_task_DD_L4,2021.2.3,Win32,60.0240096,,,,,,,,,,,0.779,1,,,,,,,,,,,,,,,,,,,,,,,,0.199401795,-0.162013958,0,0,0,,,,,,,LIZARD,LB,z,y,./images/LIZARDLB.png,,,,,,,,,,,,,,,,,,,,,z,1,0.779,,,,,,,,0,22,22,128,1
,,,,,,,,,,,,,,,,,,20,2022-02-12_13h37.59.065,lexical_decision_task_DD_L4,2021.2.3,Win32,60.0240096,,,,,,,,,,,0.99,1,,,,,,,,,,,,,,,,,,,,,,,,0.199401795,-0.162013958,0,0,0,,,,,,,MALLET,LB,z,y,./images/MALLETLB.png,,,,,,,,,,,,,,,,,,,,,z,1,0.99,,,,,,,,0,23,23,134,1
,,,,,,,,,,,,,,,,,,20,2022-02-12_13h37.59.065,lexical_decision_task_DD_L4,2021.2.3,Win32,60.0240096,,,,,,,,,,,0.914,1,,,,,,,,,,,,,,,,,,,,,,,,0.199401795,-0.162013958,0,0,0,,,,,,,CARPET,LB,z,y,./images/CARPETLB.png,,,,,,,,,,,,,,,,,,,,,z,1,0.914,,,,,,,,0,24,24,137,1
,,,,,,,,,,,,,,,,,,20,2022-02-12_13h37.59.065,lexical_decision_task_DD_L4,2021.2.3,Win32,60.0240096,,,,,,,,,,,0.891,1,,,,,,,,,,,,,,,,,,,,,,,,0.199401795,-0.162013958,0,0,0,,,,,,,RAZOR,HB,m,y,./images/RAZORHB.png,,,,,,,,,,,,,,,,,,,,,m,1,0.891,,,,,,,,0,25,25,34,1
,,,,,,,,,,,,,,,,,,20,2022-02-12_13h37.59.065,lexical_decision_task_DD_L4,2021.2.3,Win32,60.0240096,,,,,,,,,,,0.779,1,,,,,,,,,,,,,,,,,,,,,,,,0.199401795,-0.162013958,0,0,0,,,,,,,PARADE,LB,m,y,./images/PARADELB.png,,,,,,,,,,,,,,,,,,,,,m,1,0.779,,,,,,,,0,26,26,17,1
,,,,,,,,,,,,,,,,,,20,2022-02-12_13h37.59.065,lexical_decision_task_DD_L4,2021.2.3,Win32,60.0240096,,,,,,,,,,,0.93,1,,,,,,,,,,,,,,,,,,,,,,,,0.199401795,-0.162013958,0,0,0,,,,,,,SLOPE,C,m,y,./images/SLOPE.png,,,,,,,,,,,,,,,,,,,,,m,1,0.93,,,,,,,,0,27,27,30,1
,,,,,,,,,,,,,,,,,,20,2022-02-12_13h37.59.065,lexical_decision_task_DD_L4,2021.2.3,Win32,60.0240096,,,,,,,,,,,0.795,0,,,,,,,,,,,,,,,,,,,,,,,,0.199401795,-0.162013958,0,0,0,,,,,,,BANNER,HB,z,y,./images/BANNERHB.png,,,,,,,,,,,,,,,,,,,,,m,0,0.795,,,,,,,,0,28,28,136,1
,,,,,,,,,,,,,,,,,,20,2022-02-12_13h37.59.065,lexical_decision_task_DD_L4,2021.2.3,Win32,60.0240096,,,,,,,,,,,0.763,1,,,,,,,,,,,,,,,,,,,,,,,,0.199401795,-0.162013958,0,0,0,,,,,,,HOCKEY,LB,m,y,./images/HOCKEYLB.png,,,,,,,,,,,,,,,,,,,,,m,1,0.763,,,,,,,,0,29,29,32,1
,,,,,,,,,,,,,,,,,,20,2022-02-12_13h37.59.065,lexical_decision_task_DD_L4,2021.2.3,Win32,60.0240096,,,,,,,,,,,1.08,0,,,,,,,,,,,,,,,,,,,,,,,,0.199401795,-0.162013958,0,0,0,,,,,,,POSTER,LB,m,y,./images/POSTERLB.png,,,,,,,,,,,,,,,,,,,,,z,0,1.08,,,,,,,,0,30,30,53,1
,,,,,,,,,,,,,,,,,,20,2022-02-12_13h37.59.065,lexical_decision_task_DD_L4,2021.2.3,Win32,60.0240096,,,,,,,,,,,0.831,1,,,,,,,,,,,,,,,,,,,,,,,,0.199401795,-0.162013958,0,0,0,,,,,,,DOUGH,HB,z,y,./images/DOUGHHB.png,,,,,,,,,,,,,,,,,,,,,z,1,0.831,,,,,,,,0,31,31,103,1
,,,,,,,,,,,,,,,,,,20,2022-02-12_13h37.59.065,lexical_decision_task_DD_L4,2021.2.3,Win32,60.0240096,,,,,,,,,,,0.945,1,,,,,,,,,,,,,,,,,,,,,,,,0.199401795,-0.162013958,0,0,0,,,,,,,STATUE,C,m,y,./images/STATUE.png,,,,,,,,,,,,,,,,,,,,,m,1,0.945,,,,,,,,0,32,32,66,1
,,,,,,,,,,,,,,,,,,20,2022-02-12_13h37.59.065,lexical_decision_task_DD_L4,2021.2.3,Win32,60.0240096,,,,,,,,,,,0.714,0,,,,,,,,,,,,,,,,,,,,,,,,0.199401795,-0.162013958,0,0,0,,,,,,,CEMENT,LB,z,y,./images/CEMENTLB.png,,,,,,,,,,,,,,,,,,,,,m,0,0.714,,,,,,,,0,33,33,158,1
,,,,,,,,,,,,,,,,,,20,2022-02-12_13h37.59.065,lexical_decision_task_DD_L4,2021.2.3,Win32,60.0240096,,,,,,,,,,,0.896,1,,,,,,,,,,,,,,,,,,,,,,,,0.199401795,-0.162013958,0,0,0,,,,,,,BISHOP,HB,m,y,./images/BISHOPHB.png,,,,,,,,,,,,,,,,,,,,,m,1,0.896,,,,,,,,0,34,34,49,1
,,,,,,,,,,,,,,,,,,20,2022-02-12_13h37.59.065,lexical_decision_task_DD_L4,2021.2.3,Win32,60.0240096,,,,,,,,,,,0.897,1,,,,,,,,,,,,,,,,,,,,,,,,0.199401795,-0.162013958,0,0,0,,,,,,,BOILER,C,m,y,./images/BOILER.png,,,,,,,,,,,,,,,,,,,,,m,1,0.897,,,,,,,,0,35,35,36,1
,,,,,,,,,,,,,,,,,,20,2022-02-12_13h37.59.065,lexical_decision_task_DD_L4,2021.2.3,Win32,60.0240096,,,,,,,,,,,0.663,1,,,,,,,,,,,,,,,,,,,,,,,,0.199401795,-0.162013958,0,0,0,,,,,,,CURRY,C,m,y,./images/CURRY.png,,,,,,,,,,,,,,,,,,,,,m,1,0.663,,,,,,,,0,36,36,60,1
,,,,,,,,,,,,,,,,,,20,2022-02-12_13h37.59.065,lexical_decision_task_DD_L4,2021.2.3,Win32,60.0240096,,,,,,,,,,,0.646,1,,,,,,,,,,,,,,,,,,,,,,,,0.199401795,-0.162013958,0,0,0,,,,,,,SHIELD,C,m,y,./images/SHIELD.png,,,,,,,,,,,,,,,,,,,,,m,1,0.646,,,,,,,,0,37,37,48,1
,,,,,,,,,,,,,,,,,,20,2022-02-12_13h37.59.065,lexical_decision_task_DD_L4,2021.2.3,Win32,60.0240096,,,,,,,,,,,0.689,1,,,,,,,,,,,,,,,,,,,,,,,,0.199401795,-0.162013958,0,0,0,,,,,,,TOMATO,C,z,y,./images/TOMATO.png,,,,,,,,,,,,,,,,,,,,,z,1,0.689,,,,,,,,0,38,38,84,1
,,,,,,,,,,,,,,,,,,20,2022-02-12_13h37.59.065,lexical_decision_task_DD_L4,2021.2.3,Win32,60.0240096,,,,,,,,,,,0.648,0,,,,,,,,,,,,,,,,,,,,,,,,0.199401795,-0.162013958,0,0,0,,,,,,,SHORE,C,z,y,./images/SHORE.png,,,,,,,,,,,,,,,,,,,,,m,0,0.648,,,,,,,,0,39,39,96,1
,,,,,,,,,,,,,,,,,,20,2022-02-12_13h37.59.065,lexical_decision_task_DD_L4,2021.2.3,Win32,60.0240096,,,,,,,,,,,0.846,1,,,,,,,,,,,,,,,,,,,,,,,,0.199401795,-0.162013958,0,0,0,,,,,,,SKIING,LB,z,y,./images/SKIINGLB.png,,,,,,,,,,,,,,,,,,,,,z,1,0.846,,,,,,,,0,40,40,101,1
,,,,,,,,,,,,,,,,,,20,2022-02-12_13h37.59.065,lexical_decision_task_DD_L4,2021.2.3,Win32,60.0240096,,,,,,,,,,,0.799,0,,,,,,,,,,,,,,,,,,,,,,,,0.199401795,-0.162013958,0,0,0,space,,,,,,JAGUAR,C,z,y,./images/JAGUAR.png,1.87,,,,,,,,,,,,,,,,,,,,m,0,0.799,,,,,,,,0,41,41,102,1
,,,,,,,,,,,,,,,,,,20,2022-02-12_13h37.59.065,lexical_decision_task_DD_L4,2021.2.3,Win32,60.0240096,,,,,,,,,,,1.189,1,,,,,,,,,,,,,,,,,,,,,,,,0.199401795,-0.162013958,0,0,0,,,,,,,FENCE,LB,m,y,./images/FENCELB.png,,,,,,,,,,,,,,,,,,,,,m,1,1.189,,,,,,,,0,42,42,14,1
,,,,,,,,,,,,,,,,,,20,2022-02-12_13h37.59.065,lexical_decision_task_DD_L4,2021.2.3,Win32,60.0240096,,,,,,,,,,,0.907,1,,,,,,,,,,,,,,,,,,,,,,,,0.199401795,-0.162013958,0,0,0,,,,,,,VALLEY,LB,m,y,./images/VALLEYLB.png,,,,,,,,,,,,,,,,,,,,,m,1,0.907,,,,,,,,0,43,43,68,1
,,,,,,,,,,,,,,,,,,20,2022-02-12_13h37.59.065,lexical_decision_task_DD_L4,2021.2.3,Win32,60.0240096,,,,,,,,,,,3.029,0,,,,,,,,,,,,,,,,,,,,,,,,0.199401795,-0.162013958,0,0,0,,,,,,,BONNET,LB,z,y,./images/BONNETLB.png,,,,,,,,,,,,,,,,,,,,,m,0,3.029,,,,,,,,0,44,44,95,1
,,,,,,,,,,,,,,,,,,20,2022-02-12_13h37.59.065,lexical_decision_task_DD_L4,2021.2.3,Win32,60.0240096,,,,,,,,,,,0.963,1,,,,,,,,,,,,,,,,,,,,,,,,0.199401795,-0.162013958,0,0,0,,,,,,,POODLE,C,z,y,./images/POODLE.png,,,,,,,,,,,,,,,,,,,,,z,1,0.963,,,,,,,,0,45,45,165,1
,,,,,,,,,,,,,,,,,,20,2022-02-12_13h37.59.065,lexical_decision_task_DD_L4,2021.2.3,Win32,60.0240096,,,,,,,,,,,0.864,1,,,,,,,,,,,,,,,,,,,,,,,,0.199401795,-0.162013958,0,0,0,,,,,,,STEAK,HB,m,y,./images/STEAKHB.png,,,,,,,,,,,,,,,,,,,,,m,1,0.864,,,,,,,,0,46,46,31,1
,,,,,,,,,,,,,,,,,,20,2022-02-12_13h37.59.065,lexical_decision_task_DD_L4,2021.2.3,Win32,60.0240096,,,,,,,,,,,1.03,1,,,,,,,,,,,,,,,,,,,,,,,,0.199401795,-0.162013958,0,0,0,,,,,,,WAGON,HB,m,y,./images/WAGONHB.png,,,,,,,,,,,,,,,,,,,,,m,1,1.03,,,,,,,,0,47,47,7,1
,,,,,,,,,,,,,,,,,,20,2022-02-12_13h37.59.065,lexical_decision_task_DD_L4,2021.2.3,Win32,60.0240096,,,,,,,,,,,0.978,1,,,,,,,,,,,,,,,,,,,,,,,,0.199401795,-0.162013958,0,0,0,,,,,,,CANDLE,HB,z,y,./images/CANDLEHB.png,,,,,,,,,,,,,,,,,,,,,z,1,0.978,,,,,,,,0,48,48,145,1
,,,,,,,,,,,,,,,,,,20,2022-02-12_13h37.59.065,lexical_decision_task_DD_L4,2021.2.3,Win32,60.0240096,,,,,,,,,,,0.831,1,,,,,,,,,,,,,,,,,,,,,,,,0.199401795,-0.162013958,0,0,0,,,,,,,WALRUS,LB,z,y,./images/WALRUSLB.png,,,,,,,,,,,,,,,,,,,,,z,1,0.831,,,,,,,,0,49,49,107,1
,,,,,,,,,,,,,,,,,,20,2022-02-12_13h37.59.065,lexical_decision_task_DD_L4,2021.2.3,Win32,60.0240096,,,,,,,,,,,0.917,0,,,,,,,,,,,,,,,,,,,,,,,,0.199401795,-0.162013958,0,0,0,,,,,,,FINGER,C,z,y,./images/FINGER.png,,,,,,,,,,,,,,,,,,,,,m,0,0.917,,,,,,,,0,50,50,87,1
,,,,,,,,,,,,,,,,,,20,2022-02-12_13h37.59.065,lexical_decision_task_DD_L4,2021.2.3,Win32,60.0240096,,,,,,,,,,,1.013,1,,,,,,,,,,,,,,,,,,,,,,,,0.199401795,-0.162013958,0,0,0,,,,,,,BAMBOO,LB,m,y,./images/BAMBOOLB.png,,,,,,,,,,,,,,,,,,,,,m,1,1.013,,,,,,,,0,51,51,5,1
,,,,,,,,,,,,,,,,,,20,2022-02-12_13h37.59.065,lexical_decision_task_DD_L4,2021.2.3,Win32,60.0240096,,,,,,,,,,,0.879,1,,,,,,,,,,,,,,,,,,,,,,,,0.199401795,-0.162013958,0,0,0,,,,,,,HAMMER,C,m,y,./images/HAMMER.png,,,,,,,,,,,,,,,,,,,,,m,1,0.879,,,,,,,,0,52,52,75,1
,,,,,,,,,,,,,,,,,,20,2022-02-12_13h37.59.065,lexical_decision_task_DD_L4,2021.2.3,Win32,60.0240096,,,,,,,,,,,0.813,1,,,,,,,,,,,,,,,,,,,,,,,,0.199401795,-0.162013958,0,0,0,,,,,,,BRUSH,LB,m,y,./images/BRUSHLB.png,,,,,,,,,,,,,,,,,,,,,m,1,0.813,,,,,,,,0,53,53,59,1
,,,,,,,,,,,,,,,,,,20,2022-02-12_13h37.59.065,lexical_decision_task_DD_L4,2021.2.3,Win32,60.0240096,,,,,,,,,,,0.865,1,,,,,,,,,,,,,,,,,,,,,,,,0.199401795,-0.162013958,0,0,0,,,,,,,SAUNA,C,m,y,./images/SAUNA.png,,,,,,,,,,,,,,,,,,,,,m,1,0.865,,,,,,,,0,54,54,33,1
,,,,,,,,,,,,,,,,,,20,2022-02-12_13h37.59.065,lexical_decision_task_DD_L4,2021.2.3,Win32,60.0240096,,,,,,,,,,,0.98,1,,,,,,,,,,,,,,,,,,,,,,,,0.199401795,-0.162013958,0,0,0,,,,,,,PASTA,LB,z,y,./images/PASTALB.png,,,,,,,,,,,,,,,,,,,,,z,1,0.98,,,,,,,,0,55,55,89,1
,,,,,,,,,,,,,,,,,,20,2022-02-12_13h37.59.065,lexical_decision_task_DD_L4,2021.2.3,Win32,60.0240096,,,,,,,,,,,0.89,1,,,,,,,,,,,,,,,,,,,,,,,,0.199401795,-0.162013958,0,0,0,,,,,,,LADDER,LB,z,y,./images/LADDERLB.png,,,,,,,,,,,,,,,,,,,,,z,1,0.89,,,,,,,,0,56,56,122,1
,,,,,,,,,,,,,,,,,,20,2022-02-12_13h37.59.065,lexical_decision_task_DD_L4,2021.2.3,Win32,60.0240096,,,,,,,,,,,1.03,1,,,,,,,,,,,,,,,,,,,,,,,,0.199401795,-0.162013958,0,0,0,,,,,,,BABOON,HB,z,y,./images/BABOONHB.png,,,,,,,,,,,,,,,,,,,,,z,1,1.03,,,,,,,,0,57,57,142,1
,,,,,,,,,,,,,,,,,,20,2022-02-12_13h37.59.065,lexical_decision_task_DD_L4,2021.2.3,Win32,60.0240096,,,,,,,,,,,1.063,1,,,,,,,,,,,,,,,,,,,,,,,,0.199401795,-0.162013958,0,0,0,,,,,,,PILOT,LB,m,y,./images/PILOTLB.png,,,,,,,,,,,,,,,,,,,,,m,1,1.063,,,,,,,,0,58,58,50,1
,,,,,,,,,,,,,,,,,,20,2022-02-12_13h37.59.065,lexical_decision_task_DD_L4,2021.2.3,Win32,60.0240096,,,,,,,,,,,0.845,1,,,,,,,,,,,,,,,,,,,,,,,,0.199401795,-0.162013958,0,0,0,,,,,,,PEBBLE,HB,m,y,./images/PEBBLEHB.png,,,,,,,,,,,,,,,,,,,,,m,1,0.845,,,,,,,,0,59,59,82,1
,,,,,,,,,,,,,,,,,,20,2022-02-12_13h37.59.065,lexical_decision_task_DD_L4,2021.2.3,Win32,60.0240096,,,,,,,,,,,0.749,1,,,,,,,,,,,,,,,,,,,,,,,,0.199401795,-0.162013958,0,0,0,,,,,,,BUBBLE,LB,m,y,./images/BUBBLELB.png,,,,,,,,,,,,,,,,,,,,,m,1,0.749,,,,,,,,0,60,60,71,1
,,,,,,,,,,,,,,,,,,20,2022-02-12_13h37.59.065,lexical_decision_task_DD_L4,2021.2.3,Win32,60.0240096,,,,,,,,,,,1.047,1,,,,,,,,,,,,,,,,,,,,,,,,0.199401795,-0.162013958,0,0,0,,,,,,,PICKLE,LB,z,y,./images/PICKLELB.png,,,,,,,,,,,,,,,,,,,,,z,1,1.047,,,,,,,,0,61,61,98,1
,,,,,,,,,,,,,,,,,,20,2022-02-12_13h37.59.065,lexical_decision_task_DD_L4,2021.2.3,Win32,60.0240096,,,,,,,,,,,0.814,1,,,,,,,,,,,,,,,,,,,,,,,,0.199401795,-0.162013958,0,0,0,,,,,,,COLLAR,C,m,y,./images/COLLAR.png,,,,,,,,,,,,,,,,,,,,,m,1,0.814,,,,,,,,0,62,62,15,1
,,,,,,,,,,,,,,,,,,20,2022-02-12_13h37.59.065,lexical_decision_task_DD_L4,2021.2.3,Win32,60.0240096,,,,,,,,,,,0.849,1,,,,,,,,,,,,,,,,,,,,,,,,0.199401795,-0.162013958,0,0,0,,,,,,,PENCE,HB,z,y,./images/PENCEHB.png,,,,,,,,,,,,,,,,,,,,,z,1,0.849,,,,,,,,0,63,63,100,1
,,,,,,,,,,,,,,,,,,20,2022-02-12_13h37.59.065,lexical_decision_task_DD_L4,2021.2.3,Win32,60.0240096,,,,,,,,,,,1.269,1,,,,,,,,,,,,,,,,,,,,,,,,0.199401795,-0.162013958,0,0,0,,,,,,,WHEEL,LB,m,y,./images/WHEELLB.png,,,,,,,,,,,,,,,,,,,,,m,1,1.269,,,,,,,,0,64,64,77,1
,,,,,,,,,,,,,,,,,,20,2022-02-12_13h37.59.065,lexical_decision_task_DD_L4,2021.2.3,Win32,60.0240096,,,,,,,,,,,0.936,1,,,,,,,,,,,,,,,,,,,,,,,,0.199401795,-0.162013958,0,0,0,,,,,,,GRAPE,HB,m,y,./images/GRAPEHB.png,,,,,,,,,,,,,,,,,,,,,m,1,0.936,,,,,,,,0,65,65,16,1
,,,,,,,,,,,,,,,,,,20,2022-02-12_13h37.59.065,lexical_decision_task_DD_L4,2021.2.3,Win32,60.0240096,,,,,,,,,,,0.814,1,,,,,,,,,,,,,,,,,,,,,,,,0.199401795,-0.162013958,0,0,0,,,,,,,KITTEN,C,z,y,./images/KITTEN.png,,,,,,,,,,,,,,,,,,,,,z,1,0.814,,,,,,,,0,66,66,129,1
,,,,,,,,,,,,,,,,,,20,2022-02-12_13h37.59.065,lexical_decision_task_DD_L4,2021.2.3,Win32,60.0240096,,,,,,,,,,,0.88,1,,,,,,,,,,,,,,,,,,,,,,,,0.199401795,-0.162013958,0,0,0,,,,,,,MAGGOT,C,z,y,./images/MAGGOT.png,,,,,,,,,,,,,,,,,,,,,z,1,0.88,,,,,,,,0,67,67,117,1
,,,,,,,,,,,,,,,,,,20,2022-02-12_13h37.59.065,lexical_decision_task_DD_L4,2021.2.3,Win32,60.0240096,,,,,,,,,,,1.015,1,,,,,,,,,,,,,,,,,,,,,,,,0.199401795,-0.162013958,0,0,0,,,,,,,GREASE,C,z,y,./images/GREASE.png,,,,,,,,,,,,,,,,,,,,,z,1,1.015,,,,,,,,0,68,68,99,1
,,,,,,,,,,,,,,,,,,20,2022-02-12_13h37.59.065,lexical_decision_task_DD_L4,2021.2.3,Win32,60.0240096,,,,,,,,,,,0.116,1,,,,,,,,,,,,,,,,,,,,,,,,0.199401795,-0.162013958,0,0,0,,,,,,,RULER,HB,m,y,./images/RULERHB.png,,,,,,,,,,,,,,,,,,,,,m,1,0.116,,,,,,,,0,69,69,79,1
,,,,,,,,,,,,,,,,,,20,2022-02-12_13h37.59.065,lexical_decision_task_DD_L4,2021.2.3,Win32,60.0240096,,,,,,,,,,,0.816,1,,,,,,,,,,,,,,,,,,,,,,,,0.199401795,-0.162013958,0,0,0,,,,,,,MOTOR,HB,z,y,./images/MOTORHB.png,,,,,,,,,,,,,,,,,,,,,z,1,0.816,,,,,,,,0,70,70,97,1
,,,,,,,,,,,,,,,,,,20,2022-02-12_13h37.59.065,lexical_decision_task_DD_L4,2021.2.3,Win32,60.0240096,,,,,,,,,,,0.797,1,,,,,,,,,,,,,,,,,,,,,,,,0.199401795,-0.162013958,0,0,0,,,,,,,CRADLE,LB,z,y,./images/CRADLELB.png,,,,,,,,,,,,,,,,,,,,,z,1,0.797,,,,,,,,0,71,71,104,1
,,,,,,,,,,,,,,,,,,20,2022-02-12_13h37.59.065,lexical_decision_task_DD_L4,2021.2.3,Win32,60.0240096,,,,,,,,,,,1.18,0,,,,,,,,,,,,,,,,,,,,,,,,0.199401795,-0.162013958,0,0,0,,,,,,,ATTIC,C,z,y,./images/ATTIC.png,,,,,,,,,,,,,,,,,,,,,m,0,1.18,,,,,,,,0,72,72,111,1
,,,,,,,,,,,,,,,,,,20,2022-02-12_13h37.59.065,lexical_decision_task_DD_L4,2021.2.3,Win32,60.0240096,,,,,,,,,,,0.789,1,,,,,,,,,,,,,,,,,,,,,,,,0.199401795,-0.162013958,0,0,0,,,,,,,INFANT,HB,z,y,./images/INFANTHB.png,,,,,,,,,,,,,,,,,,,,,z,1,0.789,,,,,,,,0,73,73,160,1
,,,,,,,,,,,,,,,,,,20,2022-02-12_13h37.59.065,lexical_decision_task_DD_L4,2021.2.3,Win32,60.0240096,,,,,,,,,,,0.779,1,,,,,,,,,,,,,,,,,,,,,,,,0.199401795,-0.162013958,0,0,0,,,,,,,PARCEL,C,m,y,./images/PARCEL.png,,,,,,,,,,,,,,,,,,,,,m,1,0.779,,,,,,,,0,74,74,18,1
,,,,,,,,,,,,,,,,,,20,2022-02-12_13h37.59.065,lexical_decision_task_DD_L4,2021.2.3,Win32,60.0240096,,,,,,,,,,,0.764,1,,,,,,,,,,,,,,,,,,,,,,,,0.199401795,-0.162013958,0,0,0,,,,,,,SPORT,C,z,y,./images/SPORT.png,,,,,,,,,,,,,,,,,,,,,z,1,0.764,,,,,,,,0,75,75,132,1
,,,,,,,,,,,,,,,,,,20,2022-02-12_13h37.59.065,lexical_decision_task_DD_L4,2021.2.3,Win32,60.0240096,,,,,,,,,,,0.948,1,,,,,,,,,,,,,,,,,,,,,,,,0.199401795,-0.162013958,0,0,0,,,,,,,GLOVE,HB,m,y,./images/GLOVEHB.png,,,,,,,,,,,,,,,,,,,,,m,1,0.948,,,,,,,,0,76,76,73,1
,,,,,,,,,,,,,,,,,,20,2022-02-12_13h37.59.065,lexical_decision_task_DD_L4,2021.2.3,Win32,60.0240096,,,,,,,,,,,0.846,1,,,,,,,,,,,,,,,,,,,,,,,,0.199401795,-0.162013958,0,0,0,,,,,,,BELLY,HB,z,y,./images/BELLYHB.png,,,,,,,,,,,,,,,,,,,,,z,1,0.846,,,,,,,,0,77,77,94,1
,,,,,,,,,,,,,,,,,,20,2022-02-12_13h37.59.065,lexical_decision_task_DD_L4,2021.2.3,Win32,60.0240096,,,,,,,,,,,0.845,1,,,,,,,,,,,,,,,,,,,,,,,,0.199401795,-0.162013958,0,0,0,,,,,,,THROAT,C,z,y,./images/THROAT.png,,,,,,,,,,,,,,,,,,,,,z,1,0.845,,,,,,,,0,78,78,120,1
,,,,,,,,,,,,,,,,,,20,2022-02-12_13h37.59.065,lexical_decision_task_DD_L4,2021.2.3,Win32,60.0240096,,,,,,,,,,,0.929,1,,,,,,,,,,,,,,,,,,,,,,,,0.199401795,-0.162013958,0,0,0,,,,,,,CLOTH,LB,m,y,./images/CLOTHLB.png,,,,,,,,,,,,,,,,,,,,,m,1,0.929,,,,,,,,0,79,79,23,1
,,,,,,,,,,,,,,,,,,20,2022-02-12_13h37.59.065,lexical_decision_task_DD_L4,2021.2.3,Win32,60.0240096,,,,,,,,,,,0.98,1,,,,,,,,,,,,,,,,,,,,,,,,0.199401795,-0.162013958,0,0,0,,,,,,,SHELF,C,z,y,./images/SHELF.png,,,,,,,,,,,,,,,,,,,,,z,1,0.98,,,,,,,,0,80,80,123,1
,,,,,,,,,,,,,,,,,,20,2022-02-12_13h37.59.065,lexical_decision_task_DD_L4,2021.2.3,Win32,60.0240096,,,,,,,,,,,0.934,1,,,,,,,,,,,,,,,,,,,,,,,,0.199401795,-0.162013958,0,0,0,,,,,,,WEASEL,LB,z,y,./images/WEASELLB.png,,,,,,,,,,,,,,,,,,,,,z,1,0.934,,,,,,,,0,81,81,164,1
,,,,,,,,,,,,,,,,,,20,2022-02-12_13h37.59.065,lexical_decision_task_DD_L4,2021.2.3,Win32,60.0240096,,,,,,,,,,,1.014,0,,,,,,,,,,,,,,,,,,,,,,,,0.199401795,-0.162013958,0,0,0,,,,,,,STOVE,LB,m,y,./images/STOVELB.png,,,,,,,,,,,,,,,,,,,,,z,0,1.014,,,,,,,,0,82,82,2,1
,,,,,,,,,,,,,,,,,,20,2022-02-12_13h37.59.065,lexical_decision_task_DD_L4,2021.2.3,Win32,60.0240096,,,,,,,,,,,0.998,1,,,,,,,,,,,,,,,,,,,,,,,,0.199401795,-0.162013958,0,0,0,space,,,,,,BROOM,C,m,y,./images/BROOM.png,32.669,,,,,,,,,,,,,,,,,,,,m,1,0.998,,,,,,,,0,83,83,78,1
,,,,,,,,,,,,,,,,,,20,2022-02-12_13h37.59.065,lexical_decision_task_DD_L4,2021.2.3,Win32,60.0240096,,,,,,,,,,,0.864,1,,,,,,,,,,,,,,,,,,,,,,,,0.199401795,-0.162013958,0,0,0,,,,,,,URINE,HB,z,y,./images/URINEHB.png,,,,,,,,,,,,,,,,,,,,,z,1,0.864,,,,,,,,0,84,84,154,1
,,,,,,,,,,,,,,,,,,20,2022-02-12_13h37.59.065,lexical_decision_task_DD_L4,2021.2.3,Win32,60.0240096,,,,,,,,,,,0.895,1,,,,,,,,,,,,,,,,,,,,,,,,0.199401795,-0.162013958,0,0,0,,,,,,,PLANK,HB,z,y,./images/PLANKHB.png,,,,,,,,,,,,,,,,,,,,,z,1,0.895,,,,,,,,0,85,85,85,1
,,,,,,,,,,,,,,,,,,20,2022-02-12_13h37.59.065,lexical_decision_task_DD_L4,2021.2.3,Win32,60.0240096,,,,,,,,,,,0.755,1,,,,,,,,,,,,,,,,,,,,,,,,0.199401795,-0.162013958,0,0,0,,,,,,,BOXER,HB,m,y,./images/BOXERHB.png,,,,,,,,,,,,,,,,,,,,,m,1,0.755,,,,,,,,0,86,86,4,1
,,,,,,,,,,,,,,,,,,20,2022-02-12_13h37.59.065,lexical_decision_task_DD_L4,2021.2.3,Win32,60.0240096,,,,,,,,,,,0.78,1,,,,,,,,,,,,,,,,,,,,,,,,0.199401795,-0.162013958,0,0,0,,,,,,,STAIN,C,m,y,./images/STAIN.png,,,,,,,,,,,,,,,,,,,,,m,1,0.78,,,,,,,,0,87,87,6,1
,,,,,,,,,,,,,,,,,,20,2022-02-12_13h37.59.065,lexical_decision_task_DD_L4,2021.2.3,Win32,60.0240096,,,,,,,,,,,0.796,0,,,,,,,,,,,,,,,,,,,,,,,,0.199401795,-0.162013958,0,0,0,,,,,,,WALNUT,C,m,y,./images/WALNUT.png,,,,,,,,,,,,,,,,,,,,,z,0,0.796,,,,,,,,0,88,88,0,1
,,,,,,,,,,,,,,,,,,20,2022-02-12_13h37.59.065,lexical_decision_task_DD_L4,2021.2.3,Win32,60.0240096,,,,,,,,,,,0.829,1,,,,,,,,,,,,,,,,,,,,,,,,0.199401795,-0.162013958,0,0,0,,,,,,,CANDY,C,m,y,./images/CANDY.png,,,,,,,,,,,,,,,,,,,,,m,1,0.829,,,,,,,,0,89,89,39,1
,,,,,,,,,,,,,,,,,,20,2022-02-12_13h37.59.065,lexical_decision_task_DD_L4,2021.2.3,Win32,60.0240096,,,,,,,,,,,0.782,1,,,,,,,,,,,,,,,,,,,,,,,,0.199401795,-0.162013958,0,0,0,,,,,,,SPINE,LB,m,y,./images/SPINELB.png,,,,,,,,,,,,,,,,,,,,,m,1,0.782,,,,,,,,0,90,90,65,1
,,,,,,,,,,,,,,,,,,20,2022-02-12_13h37.59.065,lexical_decision_task_DD_L4,2021.2.3,Win32,60.0240096,,,,,,,,,,,0.729,1,,,,,,,,,,,,,,,,,,,,,,,,0.199401795,-0.162013958,0,0,0,,,,,,,SWEAT,C,z,y,./images/SWEAT.png,,,,,,,,,,,,,,,,,,,,,z,1,0.729,,,,,,,,0,91,91,150,1
,,,,,,,,,,,,,,,,,,20,2022-02-12_13h37.59.065,lexical_decision_task_DD_L4,2021.2.3,Win32,60.0240096,,,,,,,,,,,0.781,0,,,,,,,,,,,,,,,,,,,,,,,,0.199401795,-0.162013958,0,0,0,,,,,,,TIGER,HB,m,y,./images/TIGERHB.png,,,,,,,,,,,,,,,,,,,,,z,0,0.781,,,,,,,,0,92,92,37,1
,,,,,,,,,,,,,,,,,,20,2022-02-12_13h37.59.065,lexical_decision_task_DD_L4,2021.2.3,Win32,60.0240096,,,,,,,,,,,0.897,1,,,,,,,,,,,,,,,,,,,,,,,,0.199401795,-0.162013958,0,0,0,,,,,,,CRATER,C,m,y,./images/CRATER.png,,,,,,,,,,,,,,,,,,,,,m,1,0.897,,,,,,,,0,93,93,3,1
,,,,,,,,,,,,,,,,,,20,2022-02-12_13h37.59.065,lexical_decision_task_DD_L4,2021.2.3,Win32,60.0240096,,,,,,,,,,,1.077,1,,,,,,,,,,,,,,,,,,,,,,,,0.199401795,-0.162013958,0,0,0,,,,,,,STORM,C,z,y,./images/STORM.png,,,,,,,,,,,,,,,,,,,,,z,1,1.077,,,,,,,,0,94,94,114,1
,,,,,,,,,,,,,,,,,,20,2022-02-12_13h37.59.065,lexical_decision_task_DD_L4,2021.2.3,Win32,60.0240096,,,,,,,,,,,0.798,1,,,,,,,,,,,,,,,,,,,,,,,,0.199401795,-0.162013958,0,0,0,,,,,,,SNAKE,HB,m,y,./images/SNAKEHB.png,,,,,,,,,,,,,,,,,,,,,m,1,0.798,,,,,,,,0,95,95,40,1
,,,,,,,,,,,,,,,,,,20,2022-02-12_13h37.59.065,lexical_decision_task_DD_L4,2021.2.3,Win32,60.0240096,,,,,,,,,,,0.829,1,,,,,,,,,,,,,,,,,,,,,,,,0.199401795,-0.162013958,0,0,0,,,,,,,PLANET,LB,m,y,./images/PLANETLB.png,,,,,,,,,,,,,,,,,,,,,m,1,0.829,,,,,,,,0,96,96,80,1
,,,,,,,,,,,,,,,,,,20,2022-02-12_13h37.59.065,lexical_decision_task_DD_L4,2021.2.3,Win32,60.0240096,,,,,,,,,,,0.847,1,,,,,,,,,,,,,,,,,,,,,,,,0.199401795,-0.162013958,0,0,0,,,,,,,PIMPLE,LB,z,y,./images/PIMPLELB.png,,,,,,,,,,,,,,,,,,,,,z,1,0.847,,,,,,,,0,97,97,155,1
,,,,,,,,,,,,,,,,,,20,2022-02-12_13h37.59.065,lexical_decision_task_DD_L4,2021.2.3,Win32,60.0240096,,,,,,,,,,,0.93,1,,,,,,,,,,,,,,,,,,,,,,,,0.199401795,-0.162013958,0,0,0,,,,,,,PAINT,HB,z,y,./images/PAINTHB.png,,,,,,,,,,,,,,,,,,,,,z,1,0.93,,,,,,,,0,98,98,91,1
,,,,,,,,,,,,,,,,,,20,2022-02-12_13h37.59.065,lexical_decision_task_DD_L4,2021.2.3,Win32,60.0240096,,,,,,,,,,,0.745,0,,,,,,,,,,,,,,,,,,,,,,,,0.199401795,-0.162013958,0,0,0,,,,,,,JUNGLE,LB,z,y,./images/JUNGLELB.png,,,,,,,,,,,,,,,,,,,,,m,0,0.745,,,,,,,,0,99,99,167,1
,,,,,,,,,,,,,,,,,,20,2022-02-12_13h37.59.065,lexical_decision_task_DD_L4,2021.2.3,Win32,60.0240096,,,,,,,,,,,0.731,1,,,,,,,,,,,,,,,,,,,,,,,,0.199401795,-0.162013958,0,0,0,,,,,,,MUFFIN,HB,z,y,./images/MUFFINHB.png,,,,,,,,,,,,,,,,,,,,,z,1,0.731,,,,,,,,0,100,100,139,1
,,,,,,,,,,,,,,,,,,20,2022-02-12_13h37.59.065,lexical_decision_task_DD_L4,2021.2.3,Win32,60.0240096,,,,,,,,,,,0.664,1,,,,,,,,,,,,,,,,,,,,,,,,0.199401795,-0.162013958,0,0,0,,,,,,,GRANNY,LB,m,y,./images/GRANNYLB.png,,,,,,,,,,,,,,,,,,,,,m,1,0.664,,,,,,,,0,101,101,20,1
,,,,,,,,,,,,,,,,,,20,2022-02-12_13h37.59.065,lexical_decision_task_DD_L4,2021.2.3,Win32,60.0240096,,,,,,,,,,,0.646,1,,,,,,,,,,,,,,,,,,,,,,,,0.199401795,-0.162013958,0,0,0,,,,,,,MIDGET,HB,m,y,./images/MIDGETHB.png,,,,,,,,,,,,,,,,,,,,,m,1,0.646,,,,,,,,0,102,102,76,1
,,,,,,,,,,,,,,,,,,20,2022-02-12_13h37.59.065,lexical_decision_task_DD_L4,2021.2.3,Win32,60.0240096,,,,,,,,,,,0.983,1,,,,,,,,,,,,,,,,,,,,,,,,0.199401795,-0.162013958,0,0,0,,,,,,,JELLY,HB,z,y,./images/JELLYHB.png,,,,,,,,,,,,,,,,,,,,,z,1,0.983,,,,,,,,0,103,103,148,1
,,,,,,,,,,,,,,,,,,20,2022-02-12_13h37.59.065,lexical_decision_task_DD_L4,2021.2.3,Win32,60.0240096,,,,,,,,,,,0.684,1,,,,,,,,,,,,,,,,,,,,,,,,0.199401795,-0.162013958,0,0,0,,,,,,,TRIPOD,C,z,y,./images/TRIPOD.png,,,,,,,,,,,,,,,,,,,,,z,1,0.684,,,,,,,,0,104,104,138,1
,,,,,,,,,,,,,,,,,,20,2022-02-12_13h37.59.065,lexical_decision_task_DD_L4,2021.2.3,Win32,60.0240096,,,,,,,,,,,0.848,1,,,,,,,,,,,,,,,,,,,,,,,,0.199401795,-0.162013958,0,0,0,,,,,,,FARMER,LB,z,y,./images/FARMERLB.png,,,,,,,,,,,,,,,,,,,,,z,1,0.848,,,,,,,,0,105,105,149,1
,,,,,,,,,,,,,,,,,,20,2022-02-12_13h37.59.065,lexical_decision_task_DD_L4,2021.2.3,Win32,60.0240096,,,,,,,,,,,0.665,1,,,,,,,,,,,,,,,,,,,,,,,,0.199401795,-0.162013958,0,0,0,,,,,,,DIVER,C,m,y,./images/DIVER.png,,,,,,,,,,,,,,,,,,,,,m,1,0.665,,,,,,,,0,106,106,9,1
,,,,,,,,,,,,,,,,,,20,2022-02-12_13h37.59.065,lexical_decision_task_DD_L4,2021.2.3,Win32,60.0240096,,,,,,,,,,,0.698,1,,,,,,,,,,,,,,,,,,,,,,,,0.199401795,-0.162013958,0,0,0,,,,,,,TOWEL,HB,m,y,./images/TOWELHB.png,,,,,,,,,,,,,,,,,,,,,m,1,0.698,,,,,,,,0,107,107,1,1
,,,,,,,,,,,,,,,,,,20,2022-02-12_13h37.59.065,lexical_decision_task_DD_L4,2021.2.3,Win32,60.0240096,,,,,,,,,,,0.782,0,,,,,,,,,,,,,,,,,,,,,,,,0.199401795,-0.162013958,0,0,0,,,,,,,DONKEY,HB,m,y,./images/DONKEYHB.png,,,,,,,,,,,,,,,,,,,,,z,0,0.782,,,,,,,,0,108,108,19,1
,,,,,,,,,,,,,,,,,,20,2022-02-12_13h37.59.065,lexical_decision_task_DD_L4,2021.2.3,Win32,60.0240096,,,,,,,,,,,0.797,1,,,,,,,,,,,,,,,,,,,,,,,,0.199401795,-0.162013958,0,0,0,,,,,,,NOOSE,C,z,y,./images/NOOSE.png,,,,,,,,,,,,,,,,,,,,,z,1,0.797,,,,,,,,0,109,109,156,1
,,,,,,,,,,,,,,,,,,20,2022-02-12_13h37.59.065,lexical_decision_task_DD_L4,2021.2.3,Win32,60.0240096,,,,,,,,,,,0.661,1,,,,,,,,,,,,,,,,,,,,,,,,0.199401795,-0.162013958,0,0,0,,,,,,,QUILL,HB,z,y,./images/QUILLHB.png,,,,,,,,,,,,,,,,,,,,,z,1,0.661,,,,,,,,0,110,110,115,1
,,,,,,,,,,,,,,,,,,20,2022-02-12_13h37.59.065,lexical_decision_task_DD_L4,2021.2.3,Win32,60.0240096,,,,,,,,,,,0.662,1,,,,,,,,,,,,,,,,,,,,,,,,0.199401795,-0.162013958,0,0,0,,,,,,,LLAMA,LB,m,y,./images/LLAMALB.png,,,,,,,,,,,,,,,,,,,,,m,1,0.662,,,,,,,,0,111,111,35,1
,,,,,,,,,,,,,,,,,,20,2022-02-12_13h37.59.065,lexical_decision_task_DD_L4,2021.2.3,Win32,60.0240096,,,,,,,,,,,1.264,0,,,,,,,,,,,,,,,,,,,,,,,,0.199401795,-0.162013958,0,0,0,,,,,,,ENGINE,LB,m,y,./images/ENGINELB.png,,,,,,,,,,,,,,,,,,,,,z,0,1.264,,,,,,,,0,112,112,38,1
,,,,,,,,,,,,,,,,,,20,2022-02-12_13h37.59.065,lexical_decision_task_DD_L4,2021.2.3,Win32,60.0240096,,,,,,,,,,,0.78,1,,,,,,,,,,,,,,,,,,,,,,,,0.199401795,-0.162013958,0,0,0,,,,,,,DRILL,C,m,y,./images/DRILL.png,,,,,,,,,,,,,,,,,,,,,m,1,0.78,,,,,,,,0,113,113,81,1
,,,,,,,,,,,,,,,,,,20,2022-02-12_13h37.59.065,lexical_decision_task_DD_L4,2021.2.3,Win32,60.0240096,,,,,,,,,,,0.714,1,,,,,,,,,,,,,,,,,,,,,,,,0.199401795,-0.162013958,0,0,0,,,,,,,HEATER,LB,m,y,./images/HEATERLB.png,,,,,,,,,,,,,,,,,,,,,m,1,0.714,,,,,,,,0,114,114,56,1
,,,,,,,,,,,,,,,,,,20,2022-02-12_13h37.59.065,lexical_decision_task_DD_L4,2021.2.3,Win32,60.0240096,,,,,,,,,,,0.663,1,,,,,,,,,,,,,,,,,,,,,,,,0.199401795,-0.162013958,0,0,0,,,,,,,FLESH,C,m,y,./images/FLESH.png,,,,,,,,,,,,,,,,,,,,,m,1,0.663,,,,,,,,0,115,115,24,1
,,,,,,,,,,,,,,,,,,20,2022-02-12_13h37.59.065,lexical_decision_task_DD_L4,2021.2.3,Win32,60.0240096,,,,,,,,,,,0.831,1,,,,,,,,,,,,,,,,,,,,,,,,0.199401795,-0.162013958,0,0,0,,,,,,,SAUCE,C,m,y,./images/SAUCE.png,,,,,,,,,,,,,,,,,,,,,m,1,0.831,,,,,,,,0,116,116,51,1
,,,,,,,,,,,,,,,,,,20,2022-02-12_13h37.59.065,lexical_decision_task_DD_L4,2021.2.3,Win32,60.0240096,,,,,,,,,,,0.816,1,,,,,,,,,,,,,,,,,,,,,,,,0.199401795,-0.162013958,0,0,0,,,,,,,FALCON,HB,z,y,./images/FALCONHB.png,,,,,,,,,,,,,,,,,,,,,z,1,0.816,,,,,,,,0,117,117,112,1
,,,,,,,,,,,,,,,,,,20,2022-02-12_13h37.59.065,lexical_decision_task_DD_L4,2021.2.3,Win32,60.0240096,,,,,,,,,,,0.698,1,,,,,,,,,,,,,,,,,,,,,,,,0.199401795,-0.162013958,0,0,0,,,,,,,WHISKY,LB,m,y,./images/WHISKYLB.png,,,,,,,,,,,,,,,,,,,,,m,1,0.698,,,,,,,,0,118,118,83,1
,,,,,,,,,,,,,,,,,,20,2022-02-12_13h37.59.065,lexical_decision_task_DD_L4,2021.2.3,Win32,60.0240096,,,,,,,,,,,0.796,1,,,,,,,,,,,,,,,,,,,,,,,,0.199401795,-0.162013958,0,0,0,,,,,,,PEACH,LB,z,y,./images/PEACHLB.png,,,,,,,,,,,,,,,,,,,,,z,1,0.796,,,,,,,,0,119,119,119,1
,,,,,,,,,,,,,,,,,,20,2022-02-12_13h37.59.065,lexical_decision_task_DD_L4,2021.2.3,Win32,60.0240096,,,,,,,,,,,0.863,1,,,,,,,,,,,,,,,,,,,,,,,,0.199401795,-0.162013958,0,0,0,,,,,,,PURSE,LB,z,y,./images/PURSELB.png,,,,,,,,,,,,,,,,,,,,,z,1,0.863,,,,,,,,0,120,120,146,1
,,,,,,,,,,,,,,,,,,20,2022-02-12_13h37.59.065,lexical_decision_task_DD_L4,2021.2.3,Win32,60.0240096,,,,,,,,,,,0.912,1,,,,,,,,,,,,,,,,,,,,,,,,0.199401795,-0.162013958,0,0,0,,,,,,,FERRY,C,m,y,./images/FERRY.png,,,,,,,,,,,,,,,,,,,,,m,1,0.912,,,,,,,,0,121,121,57,1
,,,,,,,,,,,,,,,,,,20,2022-02-12_13h37.59.065,lexical_decision_task_DD_L4,2021.2.3,Win32,60.0240096,,,,,,,,,,,0.599,1,,,,,,,,,,,,,,,,,,,,,,,,0.199401795,-0.162013958,0,0,0,,,,,,,ARTIST,HB,m,y,./images/ARTISTHB.png,,,,,,,,,,,,,,,,,,,,,m,1,0.599,,,,,,,,0,122,122,61,1
,,,,,,,,,,,,,,,,,,20,2022-02-12_13h37.59.065,lexical_decision_task_DD_L4,2021.2.3,Win32,60.0240096,,,,,,,,,,,0.713,1,,,,,,,,,,,,,,,,,,,,,,,,0.199401795,-0.162013958,0,0,0,,,,,,,CHAIN,C,m,y,./images/CHAIN.png,,,,,,,,,,,,,,,,,,,,,m,1,0.713,,,,,,,,0,123,123,42,1
,,,,,,,,,,,,,,,,,,20,2022-02-12_13h37.59.065,lexical_decision_task_DD_L4,2021.2.3,Win32,60.0240096,,,,,,,,,,,0.646,0,,,,,,,,,,,,,,,,,,,,,,,,0.199401795,-0.162013958,0,0,0,,,,,,,MUSCLE,HB,z,y,./images/MUSCLEHB.png,,,,,,,,,,,,,,,,,,,,,m,0,0.646,,,,,,,,0,124,124,88,1
,,,,,,,,,,,,,,,,,,20,2022-02-12_13h37.59.065,lexical_decision_task_DD_L4,2021.2.3,Win32,60.0240096,,,,,,,,,,,0.566,1,,,,,,,,,,,,,,,,,,,,,,,,0.199401795,-0.162013958,0,0,0,space,,,,,,POKER,HB,m,y,./images/POKERHB.png,48.619,,,,,,,,,,,,,,,,,,,,m,1,0.566,,,,,,,,0,125,125,67,1
,,,,,,,,,,,,,,,,,,20,2022-02-12_13h37.59.065,lexical_decision_task_DD_L4,2021.2.3,Win32,60.0240096,,,,,,,,,,,0.736,1,,,,,,,,,,,,,,,,,,,,,,,,0.199401795,-0.162013958,0,0,0,,,,,,,MAMMAL,LB,m,y,./images/MAMMALLB.png,,,,,,,,,,,,,,,,,,,,,m,1,0.736,,,,,,,,0,126,126,62,1
,,,,,,,,,,,,,,,,,,20,2022-02-12_13h37.59.065,lexical_decision_task_DD_L4,2021.2.3,Win32,60.0240096,,,,,,,,,,,0.687,1,,,,,,,,,,,,,,,,,,,,,,,,0.199401795,-0.162013958,0,0,0,,,,,,,BEARD,LB,z,y,./images/BEARDLB.png,,,,,,,,,,,,,,,,,,,,,z,1,0.687,,,,,,,,0,127,127,86,1
,,,,,,,,,,,,,,,,,,20,2022-02-12_13h37.59.065,lexical_decision_task_DD_L4,2021.2.3,Win32,60.0240096,,,,,,,,,,,0.658,1,,,,,,,,,,,,,,,,,,,,,,,,0.199401795,-0.162013958,0,0,0,,,,,,,LAGOON,LB,m,y,./images/LAGOONLB.png,,,,,,,,,,,,,,,,,,,,,m,1,0.658,,,,,,,,0,128,128,47,1
,,,,,,,,,,,,,,,,,,20,2022-02-12_13h37.59.065,lexical_decision_task_DD_L4,2021.2.3,Win32,60.0240096,,,,,,,,,,,0.663,1,,,,,,,,,,,,,,,,,,,,,,,,0.199401795,-0.162013958,0,0,0,,,,,,,MEDAL,LB,m,y,./images/MEDALLB.png,,,,,,,,,,,,,,,,,,,,,m,1,0.663,,,,,,,,0,129,129,11,1
,,,,,,,,,,,,,,,,,,20,2022-02-12_13h37.59.065,lexical_decision_task_DD_L4,2021.2.3,Win32,60.0240096,,,,,,,,,,,0.652,1,,,,,,,,,,,,,,,,,,,,,,,,0.199401795,-0.162013958,0,0,0,,,,,,,PACKET,LB,z,y,./images/PACKETLB.png,,,,,,,,,,,,,,,,,,,,,z,1,0.652,,,,,,,,0,130,130,140,1
,,,,,,,,,,,,,,,,,,20,2022-02-12_13h37.59.065,lexical_decision_task_DD_L4,2021.2.3,Win32,60.0240096,,,,,,,,,,,0.596,1,,,,,,,,,,,,,,,,,,,,,,,,0.199401795,-0.162013958,0,0,0,,,,,,,COOKER,C,z,y,./images/COOKER.png,,,,,,,,,,,,,,,,,,,,,z,1,0.596,,,,,,,,0,131,131,153,1
,,,,,,,,,,,,,,,,,,20,2022-02-12_13h37.59.065,lexical_decision_task_DD_L4,2021.2.3,Win32,60.0240096,,,,,,,,,,,0.696,1,,,,,,,,,,,,,,,,,,,,,,,,0.199401795,-0.162013958,0,0,0,,,,,,,BANANA,HB,m,y,./images/BANANAHB.png,,,,,,,,,,,,,,,,,,,,,m,1,0.696,,,,,,,,0,132,132,70,1
,,,,,,,,,,,,,,,,,,20,2022-02-12_13h37.59.065,lexical_decision_task_DD_L4,2021.2.3,Win32,60.0240096,,,,,,,,,,,0.695,1,,,,,,,,,,,,,,,,,,,,,,,,0.199401795,-0.162013958,0,0,0,,,,,,,BUNNY,HB,m,y,./images/BUNNYHB.png,,,,,,,,,,,,,,,,,,,,,m,1,0.695,,,,,,,,0,133,133,13,1
,,,,,,,,,,,,,,,,,,20,2022-02-12_13h37.59.065,lexical_decision_task_DD_L4,2021.2.3,Win32,60.0240096,,,,,,,,,,,0.613,1,,,,,,,,,,,,,,,,,,,,,,,,0.199401795,-0.162013958,0,0,0,,,,,,,DANCER,C,m,y,./images/DANCER.png,,,,,,,,,,,,,,,,,,,,,m,1,0.613,,,,,,,,0,134,134,21,1
,,,,,,,,,,,,,,,,,,20,2022-02-12_13h37.59.065,lexical_decision_task_DD_L4,2021.2.3,Win32,60.0240096,,,,,,,,,,,0.614,1,,,,,,,,,,,,,,,,,,,,,,,,0.199401795,-0.162013958,0,0,0,,,,,,,CASINO,HB,m,y,./images/CASINOHB.png,,,,,,,,,,,,,,,,,,,,,m,1,0.614,,,,,,,,0,135,135,28,1
,,,,,,,,,,,,,,,,,,20,2022-02-12_13h37.59.065,lexical_decision_task_DD_L4,2021.2.3,Win32,60.0240096,,,,,,,,,,,0.713,1,,,,,,,,,,,,,,,,,,,,,,,,0.199401795,-0.162013958,0,0,0,,,,,,,SQUARE,C,z,y,./images/SQUARE.png,,,,,,,,,,,,,,,,,,,,,z,1,0.713,,,,,,,,0,136,136,90,1
,,,,,,,,,,,,,,,,,,20,2022-02-12_13h37.59.065,lexical_decision_task_DD_L4,2021.2.3,Win32,60.0240096,,,,,,,,,,,0.763,1,,,,,,,,,,,,,,,,,,,,,,,,0.199401795,-0.162013958,0,0,0,,,,,,,BERRY,LB,z,y,./images/BERRYLB.png,,,,,,,,,,,,,,,,,,,,,z,1,0.763,,,,,,,,0,137,137,131,1
,,,,,,,,,,,,,,,,,,20,2022-02-12_13h37.59.065,lexical_decision_task_DD_L4,2021.2.3,Win32,60.0240096,,,,,,,,,,,1.032,1,,,,,,,,,,,,,,,,,,,,,,,,0.199401795,-0.162013958,0,0,0,,,,,,,MIRROR,C,z,y,./images/MIRROR.png,,,,,,,,,,,,,,,,,,,,,z,1,1.032,,,,,,,,0,138,138,147,1
,,,,,,,,,,,,,,,,,,20,2022-02-12_13h37.59.065,lexical_decision_task_DD_L4,2021.2.3,Win32,60.0240096,,,,,,,,,,,0.696,0,,,,,,,,,,,,,,,,,,,,,,,,0.199401795,-0.162013958,0,0,0,,,,,,,CHERRY,C,m,y,./images/CHERRY.png,,,,,,,,,,,,,,,,,,,,,z,0,0.696,,,,,,,,0,139,139,54,1
,,,,,,,,,,,,,,,,,,20,2022-02-12_13h37.59.065,lexical_decision_task_DD_L4,2021.2.3,Win32,60.0240096,,,,,,,,,,,0.795,1,,,,,,,,,,,,,,,,,,,,,,,,0.199401795,-0.162013958,0,0,0,,,,,,,ARROW,C,m,y,./images/ARROW.png,,,,,,,,,,,,,,,,,,,,,m,1,0.795,,,,,,,,0,140,140,69,1
,,,,,,,,,,,,,,,,,,20,2022-02-12_13h37.59.065,lexical_decision_task_DD_L4,2021.2.3,Win32,60.0240096,,,,,,,,,,,0.746,1,,,,,,,,,,,,,,,,,,,,,,,,0.199401795,-0.162013958,0,0,0,,,,,,,STOOL,HB,m,y,./images/STOOLHB.png,,,,,,,,,,,,,,,,,,,,,m,1,0.746,,,,,,,,0,141,141,43,1
,,,,,,,,,,,,,,,,,,20,2022-02-12_13h37.59.065,lexical_decision_task_DD_L4,2021.2.3,Win32,60.0240096,,,,,,,,,,,0.715,1,,,,,,,,,,,,,,,,,,,,,,,,0.199401795,-0.162013958,0,0,0,,,,,,,CRUST,HB,z,y,./images/CRUSTHB.png,,,,,,,,,,,,,,,,,,,,,z,1,0.715,,,,,,,,0,142,142,163,1
,,,,,,,,,,,,,,,,,,20,2022-02-12_13h37.59.065,lexical_decision_task_DD_L4,2021.2.3,Win32,60.0240096,,,,,,,,,,,0.782,0,,,,,,,,,,,,,,,,,,,,,,,,0.199401795,-0.162013958,0,0,0,,,,,,,SWING,HB,z,y,./images/SWINGHB.png,,,,,,,,,,,,,,,,,,,,,m,0,0.782,,,,,,,,0,143,143,124,1
,,,,,,,,,,,,,,,,,,20,2022-02-12_13h37.59.065,lexical_decision_task_DD_L4,2021.2.3,Win32,60.0240096,,,,,,,,,,,0.746,1,,,,,,,,,,,,,,,,,,,,,,,,0.199401795,-0.162013958,0,0,0,,,,,,,DESERT,HB,m,y,./images/DESERTHB.png,,,,,,,,,,,,,,,,,,,,,m,1,0.746,,,,,,,,0,144,144,52,1
,,,,,,,,,,,,,,,,,,20,2022-02-12_13h37.59.065,lexical_decision_task_DD_L4,2021.2.3,Win32,60.0240096,,,,,,,,,,,0.847,1,,,,,,,,,,,,,,,,,,,,,,,,0.199401795,-0.162013958,0,0,0,,,,,,,FLASK,C,m,y,./images/FLASK.png,,,,,,,,,,,,,,,,,,,,,m,1,0.847,,,,,,,,0,145,145,72,1
,,,,,,,,,,,,,,,,,,20,2022-02-12_13h37.59.065,lexical_decision_task_DD_L4,2021.2.3,Win32,60.0240096,,,,,,,,,,,0.695,0,,,,,,,,,,,,,,,,,,,,,,,,0.199401795,-0.162013958,0,0,0,,,,,,,BUTTER,C,m,y,./images/BUTTER.png,,,,,,,,,,,,,,,,,,,,,z,0,0.695,,,,,,,,0,146,146,27,1
,,,,,,,,,,,,,,,,,,20,2022-02-12_13h37.59.065,lexical_decision_task_DD_L4,2021.2.3,Win32,60.0240096,,,,,,,,,,,0.729,1,,,,,,,,,,,,,,,,,,,,,,,,0.199401795,-0.162013958,0,0,0,,,,,,,SUNSET,HB,z,y,./images/SUNSETHB.png,,,,,,,,,,,,,,,,,,,,,z,1,0.729,,,,,,,,0,147,147,166,1
,,,,,,,,,,,,,,,,,,20,2022-02-12_13h37.59.065,lexical_decision_task_DD_L4,2021.2.3,Win32,60.0240096,,,,,,,,,,,0.684,1,,,,,,,,,,,,,,,,,,,,,,,,0.199401795,-0.162013958,0,0,0,,,,,,,CLOUD,LB,m,y,./images/CLOUDLB.png,,,,,,,,,,,,,,,,,,,,,m,1,0.684,,,,,,,,0,148,148,26,1
,,,,,,,,,,,,,,,,,,20,2022-02-12_13h37.59.065,lexical_decision_task_DD_L4,2021.2.3,Win32,60.0240096,,,,,,,,,,,0.228,1,,,,,,,,,,,,,,,,,,,,,,,,0.199401795,-0.162013958,0,0,0,,,,,,,BIRTH,HB,z,y,./images/BIRTHHB.png,,,,,,,,,,,,,,,,,,,,,z,1,0.228,,,,,,,,0,149,149,121,1
,,,,,,,,,,,,,,,,,,20,2022-02-12_13h37.59.065,lexical_decision_task_DD_L4,2021.2.3,Win32,60.0240096,,,,,,,,,,,0.745,1,,,,,,,,,,,,,,,,,,,,,,,,0.199401795,-0.162013958,0,0,0,,,,,,,FOLDER,C,z,y,./images/FOLDER.png,,,,,,,,,,,,,,,,,,,,,z,1,0.745,,,,,,,,0,150,150,126,1
,,,,,,,,,,,,,,,,,,20,2022-02-12_13h37.59.065,lexical_decision_task_DD_L4,2021.2.3,Win32,60.0240096,,,,,,,,,,,1.041,1,,,,,,,,,,,,,,,,,,,,,,,,0.199401795,-0.162013958,0,0,0,,,,,,,ALLEY,HB,m,y,./images/ALLEYHB.png,,,,,,,,,,,,,,,,,,,,,m,1,1.041,,,,,,,,0,151,151,55,1
,,,,,,,,,,,,,,,,,,20,2022-02-12_13h37.59.065,lexical_decision_task_DD_L4,2021.2.3,Win32,60.0240096,,,,,,,,,,,0.714,1,,,,,,,,,,,,,,,,,,,,,,,,0.199401795,-0.162013958,0,0,0,,,,,,,CANYON,HB,z,y,./images/CANYONHB.png,,,,,,,,,,,,,,,,,,,,,z,1,0.714,,,,,,,,0,152,152,118,1
,,,,,,,,,,,,,,,,,,20,2022-02-12_13h37.59.065,lexical_decision_task_DD_L4,2021.2.3,Win32,60.0240096,,,,,,,,,,,0.613,1,,,,,,,,,,,,,,,,,,,,,,,,0.199401795,-0.162013958,0,0,0,,,,,,,RHINO,C,z,y,./images/RHINO.png,,,,,,,,,,,,,,,,,,,,,z,1,0.613,,,,,,,,0,153,153,93,1
,,,,,,,,,,,,,,,,,,20,2022-02-12_13h37.59.065,lexical_decision_task_DD_L4,2021.2.3,Win32,60.0240096,,,,,,,,,,,0.747,0,,,,,,,,,,,,,,,,,,,,,,,,0.199401795,-0.162013958,0,0,0,,,,,,,SAILOR,HB,z,y,./images/SAILORHB.png,,,,,,,,,,,,,,,,,,,,,m,0,0.747,,,,,,,,0,154,154,151,1
,,,,,,,,,,,,,,,,,,20,2022-02-12_13h37.59.065,lexical_decision_task_DD_L4,2021.2.3,Win32,60.0240096,,,,,,,,,,,0.898,0,,,,,,,,,,,,,,,,,,,,,,,,0.199401795,-0.162013958,0,0,0,,,,,,,SMOKER,LB,z,y,./images/SMOKERLB.png,,,,,,,,,,,,,,,,,,,,,m,0,0.898,,,,,,,,0,155,155,110,1
,,,,,,,,,,,,,,,,,,20,2022-02-12_13h37.59.065,lexical_decision_task_DD_L4,2021.2.3,Win32,60.0240096,,,,,,,,,,,1.247,1,,,,,,,,,,,,,,,,,,,,,,,,0.199401795,-0.162013958,0,0,0,,,,,,,COUCH,LB,z,y,./images/COUCHLB.png,,,,,,,,,,,,,,,,,,,,,z,1,1.247,,,,,,,,0,156,156,161,1
,,,,,,,,,,,,,,,,,,20,2022-02-12_13h37.59.065,lexical_decision_task_DD_L4,2021.2.3,Win32,60.0240096,,,,,,,,,,,1.022,0,,,,,,,,,,,,,,,,,,,,,,,,0.199401795,-0.162013958,0,0,0,,,,,,,CLIFF,LB,m,y,./images/CLIFFLB.png,,,,,,,,,,,,,,,,,,,,,z,0,1.022,,,,,,,,0,157,157,8,1
,,,,,,,,,,,,,,,,,,20,2022-02-12_13h37.59.065,lexical_decision_task_DD_L4,2021.2.3,Win32,60.0240096,,,,,,,,,,,0.63,1,,,,,,,,,,,,,,,,,,,,,,,,0.199401795,-0.162013958,0,0,0,,,,,,,TULIP,LB,z,y,./images/TULIPLB.png,,,,,,,,,,,,,,,,,,,,,z,1,0.63,,,,,,,,0,158,158,92,1
,,,,,,,,,,,,,,,,,,20,2022-02-12_13h37.59.065,lexical_decision_task_DD_L4,2021.2.3,Win32,60.0240096,,,,,,,,,,,0.915,1,,,,,,,,,,,,,,,,,,,,,,,,0.199401795,-0.162013958,0,0,0,,,,,,,WRIST,HB,z,y,./images/WRISTHB.png,,,,,,,,,,,,,,,,,,,,,z,1,0.915,,,,,,,,0,159,159,109,1
,,,,,,,,,,,,,,,,,,20,2022-02-12_13h37.59.065,lexical_decision_task_DD_L4,2021.2.3,Win32,60.0240096,,,,,,,,,,,0.822,1,,,,,,,,,,,,,,,,,,,,,,,,0.199401795,-0.162013958,0,0,0,,,,,,,BAKER,C,m,y,./images/BAKER.png,,,,,,,,,,,,,,,,,,,,,m,1,0.822,,,,,,,,0,160,160,63,1
,,,,,,,,,,,,,,,,,,20,2022-02-12_13h37.59.065,lexical_decision_task_DD_L4,2021.2.3,Win32,60.0240096,,,,,,,,,,,0.663,1,,,,,,,,,,,,,,,,,,,,,,,,0.199401795,-0.162013958,0,0,0,,,,,,,PISTOL,LB,m,y,./images/PISTOLLB.png,,,,,,,,,,,,,,,,,,,,,m,1,0.663,,,,,,,,0,161,161,29,1
,,,,,,,,,,,,,,,,,,20,2022-02-12_13h37.59.065,lexical_decision_task_DD_L4,2021.2.3,Win32,60.0240096,,,,,,,,,,,0.741,1,,,,,,,,,,,,,,,,,,,,,,,,0.199401795,-0.162013958,0,0,0,,,,,,,DRUMS,HB,z,y,./images/DRUMSHB.png,,,,,,,,,,,,,,,,,,,,,z,1,0.741,,,,,,,,0,162,162,133,1
,,,,,,,,,,,,,,,,,,20,2022-02-12_13h37.59.065,lexical_decision_task_DD_L4,2021.2.3,Win32,60.0240096,,,,,,,,,,,0.678,1,,,,,,,,,,,,,,,,,,,,,,,,0.199401795,-0.162013958,0,0,0,,,,,,,GARDEN,HB,m,y,./images/GARDENHB.png,,,,,,,,,,,,,,,,,,,,,m,1,0.678,,,,,,,,0,163,163,10,1
,,,,,,,,,,,,,,,,,,20,2022-02-12_13h37.59.065,lexical_decision_task_DD_L4,2021.2.3,Win32,60.0240096,,,,,,,,,,,0.638,1,,,,,,,,,,,,,,,,,,,,,,,,0.199401795,-0.162013958,0,0,0,,,,,,,CANOE,HB,m,y,./images/CANOEHB.png,,,,,,,,,,,,,,,,,,,,,m,1,0.638,,,,,,,,0,164,164,58,1
,,,,,,,,,,,,,,,,,,20,2022-02-12_13h37.59.065,lexical_decision_task_DD_L4,2021.2.3,Win32,60.0240096,,,,,,,,,,,0.712,0,,,,,,,,,,,,,,,,,,,,,,,,0.199401795,-0.162013958,0,0,0,,,,,,,BARREL,LB,z,y,./images/BARRELLB.png,,,,,,,,,,,,,,,,,,,,,m,0,0.712,,,,,,,,0,165,165,116,1
,,,,,,,,,,,,,,,,,,20,2022-02-12_13h37.59.065,lexical_decision_task_DD_L4,2021.2.3,Win32,60.0240096,,,,,,,,,,,0.847,1,,,,,,,,,,,,,,,,,,,,,,,,0.199401795,-0.162013958,0,0,0,,,,,,,LITTER,C,z,y,./images/LITTER.png,,,,,,,,,,,,,,,,,,,,,z,1,0.847,,,,,,,,0,166,166,162,1
