key_resp.keys,key_resp.rt,instr_done_touch.x,instr_done_touch.y,instr_done_touch.leftButton,instr_done_touch.midButton,instr_done_touch.rightButton,instruction_pages.thisRepN,instruction_pages.thisTrialN,instruction_pages.thisN,instruction_pages.thisIndex,instruction_pages.ran,pageN,phase,instruct_text,has_image,instruct_image,participant,age,date,expName,psychopyVersion,OS,frameRate,response.keys,response.corr,response.rt,touch_resp.x,touch_resp.y,touch_resp.leftButton,touch_resp.midButton,touch_resp.rightButton,touch_resp.time,touch_resp.clicked_name,rt,corr,practrials.thisRepN,practrials.thisTrialN,practrials.thisN,practrials.thisIndex,practrials.ran,TrialID,Target,corrAns,end_of_practice_trials_pages.thisRepN,end_of_practice_trials_pages.thisTrialN,end_of_practice_trials_pages.thisN,end_of_practice_trials_pages.thisIndex,end_of_practice_trials_pages.ran,key_resp_2.keys,key_resp_2.corr,key_resp_2.rt,targ_click.x,targ_click.y,targ_click.leftButton,targ_click.midButton,targ_click.rightButton,targ_click.time,targ_click.clicked_name,break_done_touch.x,break_done_touch.y,break_done_touch.leftButton,break_done_touch.midButton,break_done_touch.rightButton,break_done_keyboard.keys,maintrials.thisRepN,maintrials.thisTrialN,maintrials.thisN,maintrials.thisIndex,maintrials.ran,string,blur,study,lex,stim_path,break_done_keyboard.rt,mouse_2.x,mouse_2.y,mouse_2.leftButton,mouse_2.midButton,mouse_2.rightButton,mouse_2.clicked_name,slider.response,slider.rt,trials.thisRepN,trials.thisTrialN,trials.thisN,trials.thisIndex,trials.ran,test_instructions.thisRepN,test_instructions.thisTrialN,test_instructions.thisN,test_instructions.thisIndex,test_instructions.ran,instr_done_touch.clicked_name,key_resp_3.keys,key_resp_3.corr,key_resp_3.rt,test_click.x,test_click.y,test_click.leftButton,test_click.midButton,test_click.rightButton,test_click.time,test_click.clicked_name,test_phase.thisRepN,test_phase.thisTrialN,test_phase.thisN,test_phase.thisIndex,test_phase.ran
space,33.4012,-0.744629634,-0.298148122,0,0,0,0,0,0,0,1,1,instructions,"INSTRUCTIONS
At the start of each trial, look at the plus sign  (+) in the center of the screen.  This tells you that a trial is about to begin and where to look. Second, the plus sign will disappear and a string of letters will appear. Your task is to determine if the string of letters is a word or not. If the item is a word press the M key (on keyboard)  or touch the word button (phone/tablet).  If the item is not a word,  press the  Z key (on keyboard)  or touch the nonword button (on phone/tablet). 
Press the space bar or touch  continue.",0,,,57,2022-02-12_15h59.55.894,lexical_decision_task_DD_L4,2021.2.3,Win32,59.87306909,,,,,,,,,,,,,,,,,,,,,,,,,,,,,,,,,,,,,,,,,,,,,,,,,,,,,,,,,,,,,,,,,,,,,,,,,,,,,,,,,,,,,,
space,7.3765,-0.744629634,-0.298148122,0,0,0,0,1,1,1,1,2,instructions,"If your device has a keyboard, press the 'Z' key for nonwords and the 'M' key for words.





Press the space bar or touch the button below to continue.",0,keyboard-example.gif,,57,2022-02-12_15h59.55.894,lexical_decision_task_DD_L4,2021.2.3,Win32,59.87306909,,,,,,,,,,,,,,,,,,,,,,,,,,,,,,,,,,,,,,,,,,,,,,,,,,,,,,,,,,,,,,,,,,,,,,,,,,,,,,,,,,,,,,
space,5.6153,-0.744629634,-0.298148122,0,0,0,0,2,2,2,1,3,instructions,"If you are using a touchscreen only device, use the buttons on the screen. Do not use the mouse.





Press the space bar or touch the button below to continue.",0,touchscreen-example.gif,,57,2022-02-12_15h59.55.894,lexical_decision_task_DD_L4,2021.2.3,Win32,59.87306909,,,,,,,,,,,,,,,,,,,,,,,,,,,,,,,,,,,,,,,,,,,,,,,,,,,,,,,,,,,,,,,,,,,,,,,,,,,,,,,,,,,,,,
space,14.5035,-0.744629634,-0.298148122,0,0,0,0,3,3,3,1,4,instructions,"It is very important that you respond as quickly and accurately as possible, as each letter string will only be on the screen for two seconds. If you do not respond within this time, the message 'Too slow!' will be displayed and the experiment will progress to the next letter string. The first 20 trials will be practice trials and you will receive feedback on your answers. 

Press the space bar or touch the button below to start the practice trials.",0,,,57,2022-02-12_15h59.55.894,lexical_decision_task_DD_L4,2021.2.3,Win32,59.87306909,,,,,,,,,,,,,,,,,,,,,,,,,,,,,,,,,,,,,,,,,,,,,,,,,,,,,,,,,,,,,,,,,,,,,,,,,,,,,,,,,,,,,,
,,,,,,,,,,,,,,,,,,57,2022-02-12_15h59.55.894,lexical_decision_task_DD_L4,2021.2.3,Win32,59.87306909,m,1,1.6928,,,,,,,,1.6928,1,0,0,0,4,1,1001,SQUEAK,m,,,,,,,,,,,,,,,,,,,,,,,,,,,,,,,,,,,,,,,,,,,,,,,,,,,,,,,,,,,,,,,,,,
,,,,,,,,,,,,,,,,,,57,2022-02-12_15h59.55.894,lexical_decision_task_DD_L4,2021.2.3,Win32,59.87306909,m,1,0.634,,,,,,,,0.634,1,0,1,1,7,1,1001,VOLUME,m,,,,,,,,,,,,,,,,,,,,,,,,,,,,,,,,,,,,,,,,,,,,,,,,,,,,,,,,,,,,,,,,,,
,,,,,,,,,,,,,,,,,,57,2022-02-12_15h59.55.894,lexical_decision_task_DD_L4,2021.2.3,Win32,59.87306909,m,1,0.7677,,,,,,,,0.7677,1,0,2,2,1,1,1001,ADJUST,m,,,,,,,,,,,,,,,,,,,,,,,,,,,,,,,,,,,,,,,,,,,,,,,,,,,,,,,,,,,,,,,,,,
,,,,,,,,,,,,,,,,,,57,2022-02-12_15h59.55.894,lexical_decision_task_DD_L4,2021.2.3,Win32,59.87306909,z,1,1.2451,,,,,,,,1.2451,1,0,3,3,12,1,1001,SPRINY,z,,,,,,,,,,,,,,,,,,,,,,,,,,,,,,,,,,,,,,,,,,,,,,,,,,,,,,,,,,,,,,,,,,
,,,,,,,,,,,,,,,,,,57,2022-02-12_15h59.55.894,lexical_decision_task_DD_L4,2021.2.3,Win32,59.87306909,z,1,0.867,,,,,,,,0.867,1,0,4,4,15,1,1001,WHAISE,z,,,,,,,,,,,,,,,,,,,,,,,,,,,,,,,,,,,,,,,,,,,,,,,,,,,,,,,,,,,,,,,,,,
,,,,,,,,,,,,,,,,,,57,2022-02-12_15h59.55.894,lexical_decision_task_DD_L4,2021.2.3,Win32,59.87306909,z,1,1.3539,,,,,,,,1.3539,1,0,5,5,9,1,1001,FARINY,z,,,,,,,,,,,,,,,,,,,,,,,,,,,,,,,,,,,,,,,,,,,,,,,,,,,,,,,,,,,,,,,,,,
,,,,,,,,,,,,,,,,,,57,2022-02-12_15h59.55.894,lexical_decision_task_DD_L4,2021.2.3,Win32,59.87306909,m,0,0.751,,,,,,,,0.751,0,0,6,6,11,1,1001,RASHET,z,,,,,,,,,,,,,,,,,,,,,,,,,,,,,,,,,,,,,,,,,,,,,,,,,,,,,,,,,,,,,,,,,,
,,,,,,,,,,,,,,,,,,57,2022-02-12_15h59.55.894,lexical_decision_task_DD_L4,2021.2.3,Win32,59.87306909,m,1,0.7503,,,,,,,,0.7503,1,0,7,7,0,1,1001,UTOPIA,m,,,,,,,,,,,,,,,,,,,,,,,,,,,,,,,,,,,,,,,,,,,,,,,,,,,,,,,,,,,,,,,,,,
,,,,,,,,,,,,,,,,,,57,2022-02-12_15h59.55.894,lexical_decision_task_DD_L4,2021.2.3,Win32,59.87306909,m,1,0.6586,,,,,,,,0.6586,1,0,8,8,3,1,1001,MATRIX,m,,,,,,,,,,,,,,,,,,,,,,,,,,,,,,,,,,,,,,,,,,,,,,,,,,,,,,,,,,,,,,,,,,
,,,,,,,,,,,,,,,,,,57,2022-02-12_15h59.55.894,lexical_decision_task_DD_L4,2021.2.3,Win32,59.87306909,z,1,0.8398,,,,,,,,0.8398,1,0,9,9,13,1,1001,ROUPET,z,,,,,,,,,,,,,,,,,,,,,,,,,,,,,,,,,,,,,,,,,,,,,,,,,,,,,,,,,,,,,,,,,,
,,,,,,,,,,,,,,,,,,57,2022-02-12_15h59.55.894,lexical_decision_task_DD_L4,2021.2.3,Win32,59.87306909,z,1,0.9345,,,,,,,,0.9345,1,0,10,10,8,1,1001,ASLERT,z,,,,,,,,,,,,,,,,,,,,,,,,,,,,,,,,,,,,,,,,,,,,,,,,,,,,,,,,,,,,,,,,,,
,,,,,,,,,,,,,,,,,,57,2022-02-12_15h59.55.894,lexical_decision_task_DD_L4,2021.2.3,Win32,59.87306909,z,1,0.7862,,,,,,,,0.7862,1,0,11,11,14,1,1001,THRALE,z,,,,,,,,,,,,,,,,,,,,,,,,,,,,,,,,,,,,,,,,,,,,,,,,,,,,,,,,,,,,,,,,,,
,,,,,,,,,,,,,,,,,,57,2022-02-12_15h59.55.894,lexical_decision_task_DD_L4,2021.2.3,Win32,59.87306909,m,0,0.8413,,,,,,,,0.8413,0,0,12,12,10,1,1001,INLADE,z,,,,,,,,,,,,,,,,,,,,,,,,,,,,,,,,,,,,,,,,,,,,,,,,,,,,,,,,,,,,,,,,,,
,,,,,,,,,,,,,,,,,,57,2022-02-12_15h59.55.894,lexical_decision_task_DD_L4,2021.2.3,Win32,59.87306909,m,1,0.6838,,,,,,,,0.6838,1,0,13,13,6,1,1001,ZOMBIE,m,,,,,,,,,,,,,,,,,,,,,,,,,,,,,,,,,,,,,,,,,,,,,,,,,,,,,,,,,,,,,,,,,,
,,,,,,,,,,,,,,,,,,57,2022-02-12_15h59.55.894,lexical_decision_task_DD_L4,2021.2.3,Win32,59.87306909,m,1,0.5758,,,,,,,,0.5758,1,0,14,14,2,1,1001,ALMOND,m,,,,,,,,,,,,,,,,,,,,,,,,,,,,,,,,,,,,,,,,,,,,,,,,,,,,,,,,,,,,,,,,,,
,,,,,,,,,,,,,,,,,,57,2022-02-12_15h59.55.894,lexical_decision_task_DD_L4,2021.2.3,Win32,59.87306909,m,1,0.6997,,,,,,,,0.6997,1,0,15,15,5,1,1001,OBTAIN,m,,,,,,,,,,,,,,,,,,,,,,,,,,,,,,,,,,,,,,,,,,,,,,,,,,,,,,,,,,,,,,,,,,
space,13.3482,-0.744629634,-0.298148122,0,0,0,,,,,,1,end_of_practice,"You have completed the practice trials. During the experimental trials, you will not receive feedback. 
Before you begin, please ensure that you are in a comfortable and quiet location and will not be disturbed for about 15 minutes, as we cannot use your data if you do not complete all the trials. 
 When you are ready to start the experimental trials, please press space or touch the button below.",,,,57,2022-02-12_15h59.55.894,lexical_decision_task_DD_L4,2021.2.3,Win32,59.87306909,,,,,,,,,,,,,,,,,,,,,0,0,0,0,1,,,,,,,,,,,,,,,,,,,,,,,,,,,,,,,,,,,,,,,,,,,,,,,,,,,,,,,,,,,,,
,,,,,,,,,,,,,,,,,,57,2022-02-12_15h59.55.894,lexical_decision_task_DD_L4,2021.2.3,Win32,59.87306909,,,,,,,,,,,2.0561,1,,,,,,,,,,,,,,z,1,2.0561,,,,,,,,-0.744629634,-0.298148122,0,0,0,,0,0,0,85,1,CHULK,HB,old,z,./images/CHULKHB.png,,,,,,,,,,,,,,,,,,,,,,,,,,,,,,,,,,,
,,,,,,,,,,,,,,,,,,57,2022-02-12_15h59.55.894,lexical_decision_task_DD_L4,2021.2.3,Win32,59.87306909,,,,,,,,,,,1.1859,1,,,,,,,,,,,,,,m,1,1.1859,,,,,,,,-0.744629634,-0.298148122,0,0,0,,0,1,1,7,1,WAGON,HB,old,m,./images/WAGONHB.png,,,,,,,,,,,,,,,,,,,,,,,,,,,,,,,,,,,
,,,,,,,,,,,,,,,,,,57,2022-02-12_15h59.55.894,lexical_decision_task_DD_L4,2021.2.3,Win32,59.87306909,,,,,,,,,,,0.7029,1,,,,,,,,,,,,,,m,1,0.7029,,,,,,,,-0.744629634,-0.298148122,0,0,0,,0,2,2,47,1,LAGOON,LB,old,m,./images/LAGOONLB.png,,,,,,,,,,,,,,,,,,,,,,,,,,,,,,,,,,,
,,,,,,,,,,,,,,,,,,57,2022-02-12_15h59.55.894,lexical_decision_task_DD_L4,2021.2.3,Win32,59.87306909,,,,,,,,,,,1.128,1,,,,,,,,,,,,,,z,1,1.128,,,,,,,,-0.744629634,-0.298148122,0,0,0,,0,3,3,133,1,POWDY,HB,old,z,./images/POWDYHB.png,,,,,,,,,,,,,,,,,,,,,,,,,,,,,,,,,,,
,,,,,,,,,,,,,,,,,,57,2022-02-12_15h59.55.894,lexical_decision_task_DD_L4,2021.2.3,Win32,59.87306909,,,,,,,,,,,1.4742,0,,,,,,,,,,,,,,m,0,1.4742,,,,,,,,-0.744629634,-0.298148122,0,0,0,,0,4,4,166,1,SHORY,HB,old,z,./images/SHORYHB.png,,,,,,,,,,,,,,,,,,,,,,,,,,,,,,,,,,,
,,,,,,,,,,,,,,,,,,57,2022-02-12_15h59.55.894,lexical_decision_task_DD_L4,2021.2.3,Win32,59.87306909,,,,,,,,,,,0.8717,1,,,,,,,,,,,,,,m,1,0.8717,,,,,,,,-0.744629634,-0.298148122,0,0,0,,0,5,5,15,1,COLLAR,C,old,m,./images/COLLAR.png,,,,,,,,,,,,,,,,,,,,,,,,,,,,,,,,,,,
,,,,,,,,,,,,,,,,,,57,2022-02-12_15h59.55.894,lexical_decision_task_DD_L4,2021.2.3,Win32,59.87306909,,,,,,,,,,,0.7599,1,,,,,,,,,,,,,,m,1,0.7599,,,,,,,,-0.744629634,-0.298148122,0,0,0,,0,6,6,20,1,GRANNY,LB,old,m,./images/GRANNYLB.png,,,,,,,,,,,,,,,,,,,,,,,,,,,,,,,,,,,
,,,,,,,,,,,,,,,,,,57,2022-02-12_15h59.55.894,lexical_decision_task_DD_L4,2021.2.3,Win32,59.87306909,,,,,,,,,,,0.7526,1,,,,,,,,,,,,,,z,1,0.7526,,,,,,,,-0.744629634,-0.298148122,0,0,0,,0,7,7,117,1,STEEG,C,old,z,./images/STEEG.png,,,,,,,,,,,,,,,,,,,,,,,,,,,,,,,,,,,
,,,,,,,,,,,,,,,,,,57,2022-02-12_15h59.55.894,lexical_decision_task_DD_L4,2021.2.3,Win32,59.87306909,,,,,,,,,,,0.6819,1,,,,,,,,,,,,,,m,1,0.6819,,,,,,,,-0.744629634,-0.298148122,0,0,0,,0,8,8,81,1,DRILL,C,old,m,./images/DRILL.png,,,,,,,,,,,,,,,,,,,,,,,,,,,,,,,,,,,
,,,,,,,,,,,,,,,,,,57,2022-02-12_15h59.55.894,lexical_decision_task_DD_L4,2021.2.3,Win32,59.87306909,,,,,,,,,,,0.6634,1,,,,,,,,,,,,,,m,1,0.6634,,,,,,,,-0.744629634,-0.298148122,0,0,0,,0,9,9,72,1,FLASK,C,old,m,./images/FLASK.png,,,,,,,,,,,,,,,,,,,,,,,,,,,,,,,,,,,
,,,,,,,,,,,,,,,,,,57,2022-02-12_15h59.55.894,lexical_decision_task_DD_L4,2021.2.3,Win32,59.87306909,,,,,,,,,,,0.9126,1,,,,,,,,,,,,,,z,1,0.9126,,,,,,,,-0.744629634,-0.298148122,0,0,0,,0,10,10,134,1,TROSS,LB,old,z,./images/TROSSLB.png,,,,,,,,,,,,,,,,,,,,,,,,,,,,,,,,,,,
,,,,,,,,,,,,,,,,,,57,2022-02-12_15h59.55.894,lexical_decision_task_DD_L4,2021.2.3,Win32,59.87306909,,,,,,,,,,,0.6155,1,,,,,,,,,,,,,,m,1,0.6155,,,,,,,,-0.744629634,-0.298148122,0,0,0,,0,11,11,75,1,HAMMER,C,old,m,./images/HAMMER.png,,,,,,,,,,,,,,,,,,,,,,,,,,,,,,,,,,,
,,,,,,,,,,,,,,,,,,57,2022-02-12_15h59.55.894,lexical_decision_task_DD_L4,2021.2.3,Win32,59.87306909,,,,,,,,,,,0.6241,1,,,,,,,,,,,,,,m,1,0.6241,,,,,,,,-0.744629634,-0.298148122,0,0,0,,0,12,12,30,1,SLOPE,C,old,m,./images/SLOPE.png,,,,,,,,,,,,,,,,,,,,,,,,,,,,,,,,,,,
,,,,,,,,,,,,,,,,,,57,2022-02-12_15h59.55.894,lexical_decision_task_DD_L4,2021.2.3,Win32,59.87306909,,,,,,,,,,,0.5363,1,,,,,,,,,,,,,,m,1,0.5363,,,,,,,,-0.744629634,-0.298148122,0,0,0,,0,13,13,39,1,CANDY,C,old,m,./images/CANDY.png,,,,,,,,,,,,,,,,,,,,,,,,,,,,,,,,,,,
,,,,,,,,,,,,,,,,,,57,2022-02-12_15h59.55.894,lexical_decision_task_DD_L4,2021.2.3,Win32,59.87306909,,,,,,,,,,,0.8755,1,,,,,,,,,,,,,,z,1,0.8755,,,,,,,,-0.744629634,-0.298148122,0,0,0,,0,14,14,155,1,CANGY,LB,old,z,./images/CANGYLB.png,,,,,,,,,,,,,,,,,,,,,,,,,,,,,,,,,,,
,,,,,,,,,,,,,,,,,,57,2022-02-12_15h59.55.894,lexical_decision_task_DD_L4,2021.2.3,Win32,59.87306909,,,,,,,,,,,0.6407,1,,,,,,,,,,,,,,m,1,0.6407,,,,,,,,-0.744629634,-0.298148122,0,0,0,,0,15,15,68,1,VALLEY,LB,old,m,./images/VALLEYLB.png,,,,,,,,,,,,,,,,,,,,,,,,,,,,,,,,,,,
,,,,,,,,,,,,,,,,,,57,2022-02-12_15h59.55.894,lexical_decision_task_DD_L4,2021.2.3,Win32,59.87306909,,,,,,,,,,,1.2558,1,,,,,,,,,,,,,,z,1,1.2558,,,,,,,,-0.744629634,-0.298148122,0,0,0,,0,16,16,118,1,BAVEL,HB,old,z,./images/BAVELHB.png,,,,,,,,,,,,,,,,,,,,,,,,,,,,,,,,,,,
,,,,,,,,,,,,,,,,,,57,2022-02-12_15h59.55.894,lexical_decision_task_DD_L4,2021.2.3,Win32,59.87306909,,,,,,,,,,,0.6383,1,,,,,,,,,,,,,,m,1,0.6383,,,,,,,,-0.744629634,-0.298148122,0,0,0,,0,17,17,62,1,MAMMAL,LB,old,m,./images/MAMMALLB.png,,,,,,,,,,,,,,,,,,,,,,,,,,,,,,,,,,,
,,,,,,,,,,,,,,,,,,57,2022-02-12_15h59.55.894,lexical_decision_task_DD_L4,2021.2.3,Win32,59.87306909,,,,,,,,,,,1.0239,1,,,,,,,,,,,,,,z,1,1.0239,,,,,,,,-0.744629634,-0.298148122,0,0,0,,0,18,18,147,1,ZOLES,C,old,z,./images/ZOLES.png,,,,,,,,,,,,,,,,,,,,,,,,,,,,,,,,,,,
,,,,,,,,,,,,,,,,,,57,2022-02-12_15h59.55.894,lexical_decision_task_DD_L4,2021.2.3,Win32,59.87306909,,,,,,,,,,,0.7907,1,,,,,,,,,,,,,,z,1,0.7907,,,,,,,,-0.744629634,-0.298148122,0,0,0,,0,19,19,156,1,HIXES,C,old,z,./images/HIXES.png,,,,,,,,,,,,,,,,,,,,,,,,,,,,,,,,,,,
,,,,,,,,,,,,,,,,,,57,2022-02-12_15h59.55.894,lexical_decision_task_DD_L4,2021.2.3,Win32,59.87306909,,,,,,,,,,,0.7791,1,,,,,,,,,,,,,,m,1,0.7791,,,,,,,,-0.744629634,-0.298148122,0,0,0,,0,20,20,4,1,BOXER,HB,old,m,./images/BOXERHB.png,,,,,,,,,,,,,,,,,,,,,,,,,,,,,,,,,,,
,,,,,,,,,,,,,,,,,,57,2022-02-12_15h59.55.894,lexical_decision_task_DD_L4,2021.2.3,Win32,59.87306909,,,,,,,,,,,1.0589,0,,,,,,,,,,,,,,m,0,1.0589,,,,,,,,-0.744629634,-0.298148122,0,0,0,,0,21,21,144,1,NAIRY,C,old,z,./images/NAIRY.png,,,,,,,,,,,,,,,,,,,,,,,,,,,,,,,,,,,
,,,,,,,,,,,,,,,,,,57,2022-02-12_15h59.55.894,lexical_decision_task_DD_L4,2021.2.3,Win32,59.87306909,,,,,,,,,,,0.6389,1,,,,,,,,,,,,,,m,1,0.6389,,,,,,,,-0.744629634,-0.298148122,0,0,0,,0,22,22,0,1,WALNUT,C,old,m,./images/WALNUT.png,,,,,,,,,,,,,,,,,,,,,,,,,,,,,,,,,,,
,,,,,,,,,,,,,,,,,,57,2022-02-12_15h59.55.894,lexical_decision_task_DD_L4,2021.2.3,Win32,59.87306909,,,,,,,,,,,0.6006,1,,,,,,,,,,,,,,m,1,0.6006,,,,,,,,-0.744629634,-0.298148122,0,0,0,,0,23,23,23,1,CLOTH,LB,old,m,./images/CLOTHLB.png,,,,,,,,,,,,,,,,,,,,,,,,,,,,,,,,,,,
,,,,,,,,,,,,,,,,,,57,2022-02-12_15h59.55.894,lexical_decision_task_DD_L4,2021.2.3,Win32,59.87306909,,,,,,,,,,,0.5266,1,,,,,,,,,,,,,,m,1,0.5266,,,,,,,,-0.744629634,-0.298148122,0,0,0,,0,24,24,26,1,CLOUD,LB,old,m,./images/CLOUDLB.png,,,,,,,,,,,,,,,,,,,,,,,,,,,,,,,,,,,
,,,,,,,,,,,,,,,,,,57,2022-02-12_15h59.55.894,lexical_decision_task_DD_L4,2021.2.3,Win32,59.87306909,,,,,,,,,,,2.465,1,,,,,,,,,,,,,,z,1,2.465,,,,,,,,-0.744629634,-0.298148122,0,0,0,,0,25,25,139,1,BLEAR,HB,old,z,./images/BLEARHB.png,,,,,,,,,,,,,,,,,,,,,,,,,,,,,,,,,,,
,,,,,,,,,,,,,,,,,,57,2022-02-12_15h59.55.894,lexical_decision_task_DD_L4,2021.2.3,Win32,59.87306909,,,,,,,,,,,1.9032,0,,,,,,,,,,,,,,z,0,1.9032,,,,,,,,-0.744629634,-0.298148122,0,0,0,,0,26,26,10,1,GARDEN,HB,old,m,./images/GARDENHB.png,,,,,,,,,,,,,,,,,,,,,,,,,,,,,,,,,,,
,,,,,,,,,,,,,,,,,,57,2022-02-12_15h59.55.894,lexical_decision_task_DD_L4,2021.2.3,Win32,59.87306909,,,,,,,,,,,0.9526,1,,,,,,,,,,,,,,z,1,0.9526,,,,,,,,-0.744629634,-0.298148122,0,0,0,,0,27,27,121,1,CEERS,HB,old,z,./images/CEERSHB.png,,,,,,,,,,,,,,,,,,,,,,,,,,,,,,,,,,,
,,,,,,,,,,,,,,,,,,57,2022-02-12_15h59.55.894,lexical_decision_task_DD_L4,2021.2.3,Win32,59.87306909,,,,,,,,,,,1.8443,1,,,,,,,,,,,,,,z,1,1.8443,,,,,,,,-0.744629634,-0.298148122,0,0,0,,0,28,28,115,1,MAWNS,HB,old,z,./images/MAWNSHB.png,,,,,,,,,,,,,,,,,,,,,,,,,,,,,,,,,,,
,,,,,,,,,,,,,,,,,,57,2022-02-12_15h59.55.894,lexical_decision_task_DD_L4,2021.2.3,Win32,59.87306909,,,,,,,,,,,1.2018,1,,,,,,,,,,,,,,m,1,1.2018,,,,,,,,-0.744629634,-0.298148122,0,0,0,,0,29,29,34,1,RAZOR,HB,old,m,./images/RAZORHB.png,,,,,,,,,,,,,,,,,,,,,,,,,,,,,,,,,,,
,,,,,,,,,,,,,,,,,,57,2022-02-12_15h59.55.894,lexical_decision_task_DD_L4,2021.2.3,Win32,59.87306909,,,,,,,,,,,1.0584,1,,,,,,,,,,,,,,z,1,1.0584,,,,,,,,-0.744629634,-0.298148122,0,0,0,,0,30,30,113,1,LINEW,LB,old,z,./images/LINEWLB.png,,,,,,,,,,,,,,,,,,,,,,,,,,,,,,,,,,,
,,,,,,,,,,,,,,,,,,57,2022-02-12_15h59.55.894,lexical_decision_task_DD_L4,2021.2.3,Win32,59.87306909,,,,,,,,,,,1.1708,0,,,,,,,,,,,,,,m,0,1.1708,,,,,,,,-0.744629634,-0.298148122,0,0,0,,0,31,31,142,1,PLASK,HB,old,z,./images/PLASKHB.png,,,,,,,,,,,,,,,,,,,,,,,,,,,,,,,,,,,
,,,,,,,,,,,,,,,,,,57,2022-02-12_15h59.55.894,lexical_decision_task_DD_L4,2021.2.3,Win32,59.87306909,,,,,,,,,,,1.1987,0,,,,,,,,,,,,,,m,0,1.1987,,,,,,,,-0.744629634,-0.298148122,0,0,0,,0,32,32,120,1,RINED,C,old,z,./images/RINED.png,,,,,,,,,,,,,,,,,,,,,,,,,,,,,,,,,,,
,,,,,,,,,,,,,,,,,,57,2022-02-12_15h59.55.894,lexical_decision_task_DD_L4,2021.2.3,Win32,59.87306909,,,,,,,,,,,0.6398,1,,,,,,,,,,,,,,m,1,0.6398,,,,,,,,-0.744629634,-0.298148122,0,0,0,,0,33,33,11,1,MEDAL,LB,old,m,./images/MEDALLB.png,,,,,,,,,,,,,,,,,,,,,,,,,,,,,,,,,,,
,,,,,,,,,,,,,,,,,,57,2022-02-12_15h59.55.894,lexical_decision_task_DD_L4,2021.2.3,Win32,59.87306909,,,,,,,,,,,0.7912,1,,,,,,,,,,,,,,z,1,0.7912,,,,,,,,-0.744629634,-0.298148122,0,0,0,,0,34,34,105,1,MOKER,C,old,z,./images/MOKER.png,,,,,,,,,,,,,,,,,,,,,,,,,,,,,,,,,,,
,,,,,,,,,,,,,,,,,,57,2022-02-12_15h59.55.894,lexical_decision_task_DD_L4,2021.2.3,Win32,59.87306909,,,,,,,,,,,0.7105,1,,,,,,,,,,,,,,m,1,0.7105,,,,,,,,-0.744629634,-0.298148122,0,0,0,,0,35,35,66,1,STATUE,C,old,m,./images/STATUE.png,,,,,,,,,,,,,,,,,,,,,,,,,,,,,,,,,,,
,,,,,,,,,,,,,,,,,,57,2022-02-12_15h59.55.894,lexical_decision_task_DD_L4,2021.2.3,Win32,59.87306909,,,,,,,,,,,0.8213,1,,,,,,,,,,,,,,z,1,0.8213,,,,,,,,-0.744629634,-0.298148122,0,0,0,,0,36,36,86,1,AIFED,LB,old,z,./images/AIFEDLB.png,,,,,,,,,,,,,,,,,,,,,,,,,,,,,,,,,,,
,,,,,,,,,,,,,,,,,,57,2022-02-12_15h59.55.894,lexical_decision_task_DD_L4,2021.2.3,Win32,59.87306909,,,,,,,,,,,1.0735,1,,,,,,,,,,,,,,m,1,1.0735,,,,,,,,-0.744629634,-0.298148122,0,0,0,,0,37,37,52,1,DESERT,HB,old,m,./images/DESERTHB.png,,,,,,,,,,,,,,,,,,,,,,,,,,,,,,,,,,,
,,,,,,,,,,,,,,,,,,57,2022-02-12_15h59.55.894,lexical_decision_task_DD_L4,2021.2.3,Win32,59.87306909,,,,,,,,,,,0.8029,1,,,,,,,,,,,,,,z,1,0.8029,,,,,,,,-0.744629634,-0.298148122,0,0,0,,0,38,38,101,1,GLEET,LB,old,z,./images/GLEETLB.png,,,,,,,,,,,,,,,,,,,,,,,,,,,,,,,,,,,
,,,,,,,,,,,,,,,,,,57,2022-02-12_15h59.55.894,lexical_decision_task_DD_L4,2021.2.3,Win32,59.87306909,,,,,,,,,,,2.4082,1,,,,,,,,,,,,,,z,1,2.4082,,,,,,,,-0.744629634,-0.298148122,0,0,0,,0,39,39,165,1,TROWN,C,old,z,./images/TROWN.png,,,,,,,,,,,,,,,,,,,,,,,,,,,,,,,,,,,
,,,,,,,,,,,,,,,,,,57,2022-02-12_15h59.55.894,lexical_decision_task_DD_L4,2021.2.3,Win32,59.87306909,,,,,,,,,,,0.9359,1,,,,,,,,,,,,,,z,1,0.9359,,,,,,,,-0.744629634,-0.298148122,0,0,0,,0,40,40,90,1,NEAST,C,old,z,./images/NEAST.png,,,,,,,,,,,,,,,,,,,,,,,,,,,,,,,,,,,
,,,,,,,,,,,,,,,,,,57,2022-02-12_15h59.55.894,lexical_decision_task_DD_L4,2021.2.3,Win32,59.87306909,,,,,,,,,,,0.9817,1,,,,,,,,,,,,,,m,1,0.9817,,,,,,,,-0.744629634,-0.298148122,0,0,0,space,0,41,41,79,1,RULER,HB,old,m,./images/RULERHB.png,10.4099,,,,,,,,,,,,,,,,,,,,,,,,,,,,,,,,,,
,,,,,,,,,,,,,,,,,,57,2022-02-12_15h59.55.894,lexical_decision_task_DD_L4,2021.2.3,Win32,59.87306909,,,,,,,,,,,0.9144,1,,,,,,,,,,,,,,z,1,0.9144,,,,,,,,-0.744629634,-0.298148122,0,0,0,,0,42,42,123,1,SEDGE,C,old,z,./images/SEDGE.png,,,,,,,,,,,,,,,,,,,,,,,,,,,,,,,,,,,
,,,,,,,,,,,,,,,,,,57,2022-02-12_15h59.55.894,lexical_decision_task_DD_L4,2021.2.3,Win32,59.87306909,,,,,,,,,,,0.8004,1,,,,,,,,,,,,,,m,1,0.8004,,,,,,,,-0.744629634,-0.298148122,0,0,0,,0,43,43,70,1,BANANA,HB,old,m,./images/BANANAHB.png,,,,,,,,,,,,,,,,,,,,,,,,,,,,,,,,,,,
,,,,,,,,,,,,,,,,,,57,2022-02-12_15h59.55.894,lexical_decision_task_DD_L4,2021.2.3,Win32,59.87306909,,,,,,,,,,,1.8521,1,,,,,,,,,,,,,,z,1,1.8521,,,,,,,,-0.744629634,-0.298148122,0,0,0,,0,44,44,154,1,THINT,HB,old,z,./images/THINTHB.png,,,,,,,,,,,,,,,,,,,,,,,,,,,,,,,,,,,
,,,,,,,,,,,,,,,,,,57,2022-02-12_15h59.55.894,lexical_decision_task_DD_L4,2021.2.3,Win32,59.87306909,,,,,,,,,,,1.1418,1,,,,,,,,,,,,,,m,1,1.1418,,,,,,,,-0.744629634,-0.298148122,0,0,0,,0,45,45,65,1,SPINE,LB,old,m,./images/SPINELB.png,,,,,,,,,,,,,,,,,,,,,,,,,,,,,,,,,,,
,,,,,,,,,,,,,,,,,,57,2022-02-12_15h59.55.894,lexical_decision_task_DD_L4,2021.2.3,Win32,59.87306909,,,,,,,,,,,0.6375,1,,,,,,,,,,,,,,m,1,0.6375,,,,,,,,-0.744629634,-0.298148122,0,0,0,,0,46,46,63,1,BAKER,C,old,m,./images/BAKER.png,,,,,,,,,,,,,,,,,,,,,,,,,,,,,,,,,,,
,,,,,,,,,,,,,,,,,,57,2022-02-12_15h59.55.894,lexical_decision_task_DD_L4,2021.2.3,Win32,59.87306909,,,,,,,,,,,1.3393,1,,,,,,,,,,,,,,m,1,1.3393,,,,,,,,-0.744629634,-0.298148122,0,0,0,,0,47,47,76,1,MIDGET,HB,old,m,./images/MIDGETHB.png,,,,,,,,,,,,,,,,,,,,,,,,,,,,,,,,,,,
,,,,,,,,,,,,,,,,,,57,2022-02-12_15h59.55.894,lexical_decision_task_DD_L4,2021.2.3,Win32,59.87306909,,,,,,,,,,,1.0332,1,,,,,,,,,,,,,,m,1,1.0332,,,,,,,,-0.744629634,-0.298148122,0,0,0,,0,48,48,40,1,SNAKE,HB,old,m,./images/SNAKEHB.png,,,,,,,,,,,,,,,,,,,,,,,,,,,,,,,,,,,
,,,,,,,,,,,,,,,,,,57,2022-02-12_15h59.55.894,lexical_decision_task_DD_L4,2021.2.3,Win32,59.87306909,,,,,,,,,,,1.6043,1,,,,,,,,,,,,,,z,1,1.6043,,,,,,,,-0.744629634,-0.298148122,0,0,0,,0,49,49,114,1,RIKES,C,old,z,./images/RIKES.png,,,,,,,,,,,,,,,,,,,,,,,,,,,,,,,,,,,
,,,,,,,,,,,,,,,,,,57,2022-02-12_15h59.55.894,lexical_decision_task_DD_L4,2021.2.3,Win32,59.87306909,,,,,,,,,,,0.6421,1,,,,,,,,,,,,,,m,1,0.6421,,,,,,,,-0.744629634,-0.298148122,0,0,0,,0,50,50,38,1,ENGINE,LB,old,m,./images/ENGINELB.png,,,,,,,,,,,,,,,,,,,,,,,,,,,,,,,,,,,
,,,,,,,,,,,,,,,,,,57,2022-02-12_15h59.55.894,lexical_decision_task_DD_L4,2021.2.3,Win32,59.87306909,,,,,,,,,,,0.9591,1,,,,,,,,,,,,,,z,1,0.9591,,,,,,,,-0.744629634,-0.298148122,0,0,0,,0,51,51,164,1,SGREW,LB,old,z,./images/SGREWLB.png,,,,,,,,,,,,,,,,,,,,,,,,,,,,,,,,,,,
,,,,,,,,,,,,,,,,,,57,2022-02-12_15h59.55.894,lexical_decision_task_DD_L4,2021.2.3,Win32,59.87306909,,,,,,,,,,,0.9107,1,,,,,,,,,,,,,,m,1,0.9107,,,,,,,,-0.744629634,-0.298148122,0,0,0,,0,52,52,67,1,POKER,HB,old,m,./images/POKERHB.png,,,,,,,,,,,,,,,,,,,,,,,,,,,,,,,,,,,
,,,,,,,,,,,,,,,,,,57,2022-02-12_15h59.55.894,lexical_decision_task_DD_L4,2021.2.3,Win32,59.87306909,,,,,,,,,,,1.8502,1,,,,,,,,,,,,,,z,1,1.8502,,,,,,,,-0.744629634,-0.298148122,0,0,0,,0,53,53,109,1,BURGE,HB,old,z,./images/BURGEHB.png,,,,,,,,,,,,,,,,,,,,,,,,,,,,,,,,,,,
,,,,,,,,,,,,,,,,,,57,2022-02-12_15h59.55.894,lexical_decision_task_DD_L4,2021.2.3,Win32,59.87306909,,,,,,,,,,,1.1261,1,,,,,,,,,,,,,,m,1,1.1261,,,,,,,,-0.744629634,-0.298148122,0,0,0,,0,54,54,31,1,STEAK,HB,old,m,./images/STEAKHB.png,,,,,,,,,,,,,,,,,,,,,,,,,,,,,,,,,,,
,,,,,,,,,,,,,,,,,,57,2022-02-12_15h59.55.894,lexical_decision_task_DD_L4,2021.2.3,Win32,59.87306909,,,,,,,,,,,1.267,1,,,,,,,,,,,,,,z,1,1.267,,,,,,,,-0.744629634,-0.298148122,0,0,0,,0,55,55,125,1,MOOKY,LB,old,z,./images/MOOKYLB.png,,,,,,,,,,,,,,,,,,,,,,,,,,,,,,,,,,,
,,,,,,,,,,,,,,,,,,57,2022-02-12_15h59.55.894,lexical_decision_task_DD_L4,2021.2.3,Win32,59.87306909,,,,,,,,,,,0.6483,1,,,,,,,,,,,,,,m,1,0.6483,,,,,,,,-0.744629634,-0.298148122,0,0,0,,0,56,56,9,1,DIVER,C,old,m,./images/DIVER.png,,,,,,,,,,,,,,,,,,,,,,,,,,,,,,,,,,,
,,,,,,,,,,,,,,,,,,57,2022-02-12_15h59.55.894,lexical_decision_task_DD_L4,2021.2.3,Win32,59.87306909,,,,,,,,,,,1.182,1,,,,,,,,,,,,,,z,1,1.182,,,,,,,,-0.744629634,-0.298148122,0,0,0,,0,57,57,111,1,HOSSE,C,old,z,./images/HOSSE.png,,,,,,,,,,,,,,,,,,,,,,,,,,,,,,,,,,,
,,,,,,,,,,,,,,,,,,57,2022-02-12_15h59.55.894,lexical_decision_task_DD_L4,2021.2.3,Win32,59.87306909,,,,,,,,,,,0.6133,1,,,,,,,,,,,,,,m,1,0.6133,,,,,,,,-0.744629634,-0.298148122,0,0,0,,0,58,58,54,1,CHERRY,C,old,m,./images/CHERRY.png,,,,,,,,,,,,,,,,,,,,,,,,,,,,,,,,,,,
,,,,,,,,,,,,,,,,,,57,2022-02-12_15h59.55.894,lexical_decision_task_DD_L4,2021.2.3,Win32,59.87306909,,,,,,,,,,,0.7108,1,,,,,,,,,,,,,,m,1,0.7108,,,,,,,,-0.744629634,-0.298148122,0,0,0,,0,59,59,35,1,LLAMA,LB,old,m,./images/LLAMALB.png,,,,,,,,,,,,,,,,,,,,,,,,,,,,,,,,,,,
,,,,,,,,,,,,,,,,,,57,2022-02-12_15h59.55.894,lexical_decision_task_DD_L4,2021.2.3,Win32,59.87306909,,,,,,,,,,,0.9164,1,,,,,,,,,,,,,,m,1,0.9164,,,,,,,,-0.744629634,-0.298148122,0,0,0,,0,60,60,21,1,DANCER,C,old,m,./images/DANCER.png,,,,,,,,,,,,,,,,,,,,,,,,,,,,,,,,,,,
,,,,,,,,,,,,,,,,,,57,2022-02-12_15h59.55.894,lexical_decision_task_DD_L4,2021.2.3,Win32,59.87306909,,,,,,,,,,,0.8574,1,,,,,,,,,,,,,,z,1,0.8574,,,,,,,,-0.744629634,-0.298148122,0,0,0,,0,61,61,93,1,SMONE,C,old,z,./images/SMONE.png,,,,,,,,,,,,,,,,,,,,,,,,,,,,,,,,,,,
,,,,,,,,,,,,,,,,,,57,2022-02-12_15h59.55.894,lexical_decision_task_DD_L4,2021.2.3,Win32,59.87306909,,,,,,,,,,,1.6379,0,,,,,,,,,,,,,,m,0,1.6379,,,,,,,,-0.744629634,-0.298148122,0,0,0,,0,62,62,137,1,JOOST,LB,old,z,./images/JOOSTLB.png,,,,,,,,,,,,,,,,,,,,,,,,,,,,,,,,,,,
,,,,,,,,,,,,,,,,,,57,2022-02-12_15h59.55.894,lexical_decision_task_DD_L4,2021.2.3,Win32,59.87306909,,,,,,,,,,,0.6008,1,,,,,,,,,,,,,,m,1,0.6008,,,,,,,,-0.744629634,-0.298148122,0,0,0,,0,63,63,3,1,CRATER,C,old,m,./images/CRATER.png,,,,,,,,,,,,,,,,,,,,,,,,,,,,,,,,,,,
,,,,,,,,,,,,,,,,,,57,2022-02-12_15h59.55.894,lexical_decision_task_DD_L4,2021.2.3,Win32,59.87306909,,,,,,,,,,,1.9097,1,,,,,,,,,,,,,,z,1,1.9097,,,,,,,,-0.744629634,-0.298148122,0,0,0,,0,64,64,94,1,BLANS,HB,old,z,./images/BLANSHB.png,,,,,,,,,,,,,,,,,,,,,,,,,,,,,,,,,,,
,,,,,,,,,,,,,,,,,,57,2022-02-12_15h59.55.894,lexical_decision_task_DD_L4,2021.2.3,Win32,59.87306909,,,,,,,,,,,0.6365,1,,,,,,,,,,,,,,m,1,0.6365,,,,,,,,-0.744629634,-0.298148122,0,0,0,,0,65,65,80,1,PLANET,LB,old,m,./images/PLANETLB.png,,,,,,,,,,,,,,,,,,,,,,,,,,,,,,,,,,,
,,,,,,,,,,,,,,,,,,57,2022-02-12_15h59.55.894,lexical_decision_task_DD_L4,2021.2.3,Win32,59.87306909,,,,,,,,,,,1.1158,0,,,,,,,,,,,,,,m,0,1.1158,,,,,,,,-0.744629634,-0.298148122,0,0,0,,0,66,66,100,1,DRIBS,HB,old,z,./images/DRIBSHB.png,,,,,,,,,,,,,,,,,,,,,,,,,,,,,,,,,,,
,,,,,,,,,,,,,,,,,,57,2022-02-12_15h59.55.894,lexical_decision_task_DD_L4,2021.2.3,Win32,59.87306909,,,,,,,,,,,1.3748,1,,,,,,,,,,,,,,m,1,1.3748,,,,,,,,-0.744629634,-0.298148122,0,0,0,,0,67,67,28,1,CASINO,HB,old,m,./images/CASINOHB.png,,,,,,,,,,,,,,,,,,,,,,,,,,,,,,,,,,,
,,,,,,,,,,,,,,,,,,57,2022-02-12_15h59.55.894,lexical_decision_task_DD_L4,2021.2.3,Win32,59.87306909,,,,,,,,,,,0.7122,1,,,,,,,,,,,,,,z,1,0.7122,,,,,,,,-0.744629634,-0.298148122,0,0,0,,0,68,68,150,1,NOOLS,C,old,z,./images/NOOLS.png,,,,,,,,,,,,,,,,,,,,,,,,,,,,,,,,,,,
,,,,,,,,,,,,,,,,,,57,2022-02-12_15h59.55.894,lexical_decision_task_DD_L4,2021.2.3,Win32,59.87306909,,,,,,,,,,,0.873,1,,,,,,,,,,,,,,m,1,0.873,,,,,,,,-0.744629634,-0.298148122,0,0,0,,0,69,69,73,1,GLOVE,HB,old,m,./images/GLOVEHB.png,,,,,,,,,,,,,,,,,,,,,,,,,,,,,,,,,,,
,,,,,,,,,,,,,,,,,,57,2022-02-12_15h59.55.894,lexical_decision_task_DD_L4,2021.2.3,Win32,59.87306909,,,,,,,,,,,1.3928,1,,,,,,,,,,,,,,z,1,1.3928,,,,,,,,-0.744629634,-0.298148122,0,0,0,,0,70,70,97,1,CHIDS,HB,old,z,./images/CHIDSHB.png,,,,,,,,,,,,,,,,,,,,,,,,,,,,,,,,,,,
,,,,,,,,,,,,,,,,,,57,2022-02-12_15h59.55.894,lexical_decision_task_DD_L4,2021.2.3,Win32,59.87306909,,,,,,,,,,,0.625,1,,,,,,,,,,,,,,m,1,0.625,,,,,,,,-0.744629634,-0.298148122,0,0,0,,0,71,71,33,1,SAUNA,C,old,m,./images/SAUNA.png,,,,,,,,,,,,,,,,,,,,,,,,,,,,,,,,,,,
,,,,,,,,,,,,,,,,,,57,2022-02-12_15h59.55.894,lexical_decision_task_DD_L4,2021.2.3,Win32,59.87306909,,,,,,,,,,,0.6341,1,,,,,,,,,,,,,,m,1,0.6341,,,,,,,,-0.744629634,-0.298148122,0,0,0,,0,72,72,41,1,STREAM,LB,old,m,./images/STREAMLB.png,,,,,,,,,,,,,,,,,,,,,,,,,,,,,,,,,,,
,,,,,,,,,,,,,,,,,,57,2022-02-12_15h59.55.894,lexical_decision_task_DD_L4,2021.2.3,Win32,59.87306909,,,,,,,,,,,0.6121,1,,,,,,,,,,,,,,m,1,0.6121,,,,,,,,-0.744629634,-0.298148122,0,0,0,,0,73,73,77,1,WHEEL,LB,old,m,./images/WHEELLB.png,,,,,,,,,,,,,,,,,,,,,,,,,,,,,,,,,,,
,,,,,,,,,,,,,,,,,,57,2022-02-12_15h59.55.894,lexical_decision_task_DD_L4,2021.2.3,Win32,59.87306909,,,,,,,,,,,0.7881,1,,,,,,,,,,,,,,m,1,0.7881,,,,,,,,-0.744629634,-0.298148122,0,0,0,,0,74,74,61,1,ARTIST,HB,old,m,./images/ARTISTHB.png,,,,,,,,,,,,,,,,,,,,,,,,,,,,,,,,,,,
,,,,,,,,,,,,,,,,,,57,2022-02-12_15h59.55.894,lexical_decision_task_DD_L4,2021.2.3,Win32,59.87306909,,,,,,,,,,,0.6499,1,,,,,,,,,,,,,,m,1,0.6499,,,,,,,,-0.744629634,-0.298148122,0,0,0,,0,75,75,83,1,WHISKY,LB,old,m,./images/WHISKYLB.png,,,,,,,,,,,,,,,,,,,,,,,,,,,,,,,,,,,
,,,,,,,,,,,,,,,,,,57,2022-02-12_15h59.55.894,lexical_decision_task_DD_L4,2021.2.3,Win32,59.87306909,,,,,,,,,,,1.165,0,,,,,,,,,,,,,,m,0,1.165,,,,,,,,-0.744629634,-0.298148122,0,0,0,,0,76,76,102,1,DULLE,C,old,z,./images/DULLE.png,,,,,,,,,,,,,,,,,,,,,,,,,,,,,,,,,,,
,,,,,,,,,,,,,,,,,,57,2022-02-12_15h59.55.894,lexical_decision_task_DD_L4,2021.2.3,Win32,59.87306909,,,,,,,,,,,1.1047,1,,,,,,,,,,,,,,m,1,1.1047,,,,,,,,-0.744629634,-0.298148122,0,0,0,,0,77,77,13,1,BUNNY,HB,old,m,./images/BUNNYHB.png,,,,,,,,,,,,,,,,,,,,,,,,,,,,,,,,,,,
,,,,,,,,,,,,,,,,,,57,2022-02-12_15h59.55.894,lexical_decision_task_DD_L4,2021.2.3,Win32,59.87306909,,,,,,,,,,,0.6336,1,,,,,,,,,,,,,,m,1,0.6336,,,,,,,,-0.744629634,-0.298148122,0,0,0,,0,78,78,53,1,POSTER,LB,old,m,./images/POSTERLB.png,,,,,,,,,,,,,,,,,,,,,,,,,,,,,,,,,,,
,,,,,,,,,,,,,,,,,,57,2022-02-12_15h59.55.894,lexical_decision_task_DD_L4,2021.2.3,Win32,59.87306909,,,,,,,,,,,1.4377,1,,,,,,,,,,,,,,z,1,1.4377,,,,,,,,-0.744629634,-0.298148122,0,0,0,,0,79,79,124,1,TUNCH,HB,old,z,./images/TUNCHHB.png,,,,,,,,,,,,,,,,,,,,,,,,,,,,,,,,,,,
,,,,,,,,,,,,,,,,,,57,2022-02-12_15h59.55.894,lexical_decision_task_DD_L4,2021.2.3,Win32,59.87306909,,,,,,,,,,,1.167,1,,,,,,,,,,,,,,m,1,1.167,,,,,,,,-0.744629634,-0.298148122,0,0,0,,0,80,80,37,1,TIGER,HB,old,m,./images/TIGERHB.png,,,,,,,,,,,,,,,,,,,,,,,,,,,,,,,,,,,
,,,,,,,,,,,,,,,,,,57,2022-02-12_15h59.55.894,lexical_decision_task_DD_L4,2021.2.3,Win32,59.87306909,,,,,,,,,,,0.5719,1,,,,,,,,,,,,,,m,1,0.5719,,,,,,,,-0.744629634,-0.298148122,0,0,0,,0,81,81,27,1,BUTTER,C,old,m,./images/BUTTER.png,,,,,,,,,,,,,,,,,,,,,,,,,,,,,,,,,,,
,,,,,,,,,,,,,,,,,,57,2022-02-12_15h59.55.894,lexical_decision_task_DD_L4,2021.2.3,Win32,59.87306909,,,,,,,,,,,0.9056,1,,,,,,,,,,,,,,z,1,0.9056,,,,,,,,-0.744629634,-0.298148122,0,0,0,,0,82,82,126,1,GUELS,C,old,z,./images/GUELS.png,,,,,,,,,,,,,,,,,,,,,,,,,,,,,,,,,,,
,,,,,,,,,,,,,,,,,,57,2022-02-12_15h59.55.894,lexical_decision_task_DD_L4,2021.2.3,Win32,59.87306909,,,,,,,,,,,0.6743,1,,,,,,,,,,,,,,m,1,0.6743,,,,,,,,-0.744629634,-0.298148122,0,0,0,space,0,83,83,59,1,BRUSH,LB,old,m,./images/BRUSHLB.png,11.507,,,,,,,,,,,,,,,,,,,,,,,,,,,,,,,,,,
,,,,,,,,,,,,,,,,,,57,2022-02-12_15h59.55.894,lexical_decision_task_DD_L4,2021.2.3,Win32,59.87306909,,,,,,,,,,,1.0369,1,,,,,,,,,,,,,,m,1,1.0369,,,,,,,,-0.744629634,-0.298148122,0,0,0,,0,84,84,55,1,ALLEY,HB,old,m,./images/ALLEYHB.png,,,,,,,,,,,,,,,,,,,,,,,,,,,,,,,,,,,
,,,,,,,,,,,,,,,,,,57,2022-02-12_15h59.55.894,lexical_decision_task_DD_L4,2021.2.3,Win32,59.87306909,,,,,,,,,,,1.1852,1,,,,,,,,,,,,,,m,1,1.1852,,,,,,,,-0.744629634,-0.298148122,0,0,0,,0,85,85,82,1,PEBBLE,HB,old,m,./images/PEBBLEHB.png,,,,,,,,,,,,,,,,,,,,,,,,,,,,,,,,,,,
,,,,,,,,,,,,,,,,,,57,2022-02-12_15h59.55.894,lexical_decision_task_DD_L4,2021.2.3,Win32,59.87306909,,,,,,,,,,,0.5727,1,,,,,,,,,,,,,,m,1,0.5727,,,,,,,,-0.744629634,-0.298148122,0,0,0,,0,86,86,50,1,PILOT,LB,old,m,./images/PILOTLB.png,,,,,,,,,,,,,,,,,,,,,,,,,,,,,,,,,,,
,,,,,,,,,,,,,,,,,,57,2022-02-12_15h59.55.894,lexical_decision_task_DD_L4,2021.2.3,Win32,59.87306909,,,,,,,,,,,1.5408,0,,,,,,,,,,,,,,m,0,1.5408,,,,,,,,-0.744629634,-0.298148122,0,0,0,,0,87,87,141,1,PLEET,C,old,z,./images/PLEET.png,,,,,,,,,,,,,,,,,,,,,,,,,,,,,,,,,,,
,,,,,,,,,,,,,,,,,,57,2022-02-12_15h59.55.894,lexical_decision_task_DD_L4,2021.2.3,Win32,59.87306909,,,,,,,,,,,1.5152,1,,,,,,,,,,,,,,z,1,1.5152,,,,,,,,-0.744629634,-0.298148122,0,0,0,,0,88,88,127,1,NINDY,HB,old,z,./images/NINDYHB.png,,,,,,,,,,,,,,,,,,,,,,,,,,,,,,,,,,,
,,,,,,,,,,,,,,,,,,57,2022-02-12_15h59.55.894,lexical_decision_task_DD_L4,2021.2.3,Win32,59.87306909,,,,,,,,,,,0.6458,1,,,,,,,,,,,,,,m,1,0.6458,,,,,,,,-0.744629634,-0.298148122,0,0,0,,0,89,89,48,1,SHIELD,C,old,m,./images/SHIELD.png,,,,,,,,,,,,,,,,,,,,,,,,,,,,,,,,,,,
,,,,,,,,,,,,,,,,,,57,2022-02-12_15h59.55.894,lexical_decision_task_DD_L4,2021.2.3,Win32,59.87306909,,,,,,,,,,,1.4717,1,,,,,,,,,,,,,,z,1,1.4717,,,,,,,,-0.744629634,-0.298148122,0,0,0,,0,90,90,148,1,JOMS,HB,old,z,./images/JOMSHB.png,,,,,,,,,,,,,,,,,,,,,,,,,,,,,,,,,,,
,,,,,,,,,,,,,,,,,,57,2022-02-12_15h59.55.894,lexical_decision_task_DD_L4,2021.2.3,Win32,59.87306909,,,,,,,,,,,0.6259,1,,,,,,,,,,,,,,m,1,0.6259,,,,,,,,-0.744629634,-0.298148122,0,0,0,,0,91,91,5,1,BAMBOO,LB,old,m,./images/BAMBOOLB.png,,,,,,,,,,,,,,,,,,,,,,,,,,,,,,,,,,,
,,,,,,,,,,,,,,,,,,57,2022-02-12_15h59.55.894,lexical_decision_task_DD_L4,2021.2.3,Win32,59.87306909,,,,,,,,,,,0.6586,1,,,,,,,,,,,,,,m,1,0.6586,,,,,,,,-0.744629634,-0.298148122,0,0,0,,0,92,92,8,1,CLIFF,LB,old,m,./images/CLIFFLB.png,,,,,,,,,,,,,,,,,,,,,,,,,,,,,,,,,,,
,,,,,,,,,,,,,,,,,,57,2022-02-12_15h59.55.894,lexical_decision_task_DD_L4,2021.2.3,Win32,59.87306909,,,,,,,,,,,0.5689,1,,,,,,,,,,,,,,m,1,0.5689,,,,,,,,-0.744629634,-0.298148122,0,0,0,,0,93,93,29,1,PISTOL,LB,old,m,./images/PISTOLLB.png,,,,,,,,,,,,,,,,,,,,,,,,,,,,,,,,,,,
,,,,,,,,,,,,,,,,,,57,2022-02-12_15h59.55.894,lexical_decision_task_DD_L4,2021.2.3,Win32,59.87306909,,,,,,,,,,,1.799,1,,,,,,,,,,,,,,z,1,1.799,,,,,,,,-0.744629634,-0.298148122,0,0,0,,0,94,94,140,1,DOVET,LB,old,z,./images/DOVETLB.png,,,,,,,,,,,,,,,,,,,,,,,,,,,,,,,,,,,
,,,,,,,,,,,,,,,,,,57,2022-02-12_15h59.55.894,lexical_decision_task_DD_L4,2021.2.3,Win32,59.87306909,,,,,,,,,,,0.9152,1,,,,,,,,,,,,,,z,1,0.9152,,,,,,,,-0.744629634,-0.298148122,0,0,0,,0,95,95,153,1,CLUPS,C,old,z,./images/CLUPS.png,,,,,,,,,,,,,,,,,,,,,,,,,,,,,,,,,,,
,,,,,,,,,,,,,,,,,,57,2022-02-12_15h59.55.894,lexical_decision_task_DD_L4,2021.2.3,Win32,59.87306909,,,,,,,,,,,0.6189,1,,,,,,,,,,,,,,m,1,0.6189,,,,,,,,-0.744629634,-0.298148122,0,0,0,,0,96,96,51,1,SAUCE,C,old,m,./images/SAUCE.png,,,,,,,,,,,,,,,,,,,,,,,,,,,,,,,,,,,
,,,,,,,,,,,,,,,,,,57,2022-02-12_15h59.55.894,lexical_decision_task_DD_L4,2021.2.3,Win32,59.87306909,,,,,,,,,,,0.6652,1,,,,,,,,,,,,,,m,1,0.6652,,,,,,,,-0.744629634,-0.298148122,0,0,0,,0,97,97,18,1,PARCEL,C,old,m,./images/PARCEL.png,,,,,,,,,,,,,,,,,,,,,,,,,,,,,,,,,,,
,,,,,,,,,,,,,,,,,,57,2022-02-12_15h59.55.894,lexical_decision_task_DD_L4,2021.2.3,Win32,59.87306909,,,,,,,,,,,1.6675,1,,,,,,,,,,,,,,z,1,1.6675,,,,,,,,-0.744629634,-0.298148122,0,0,0,,0,98,98,129,1,PRANS,C,old,z,./images/PRANS.png,,,,,,,,,,,,,,,,,,,,,,,,,,,,,,,,,,,
,,,,,,,,,,,,,,,,,,57,2022-02-12_15h59.55.894,lexical_decision_task_DD_L4,2021.2.3,Win32,59.87306909,,,,,,,,,,,0.8558,1,,,,,,,,,,,,,,z,1,0.8558,,,,,,,,-0.744629634,-0.298148122,0,0,0,,0,99,99,167,1,ZONET,LB,old,z,./images/ZONETLB.png,,,,,,,,,,,,,,,,,,,,,,,,,,,,,,,,,,,
,,,,,,,,,,,,,,,,,,57,2022-02-12_15h59.55.894,lexical_decision_task_DD_L4,2021.2.3,Win32,59.87306909,,,,,,,,,,,1.6338,0,,,,,,,,,,,,,,m,0,1.6338,,,,,,,,-0.744629634,-0.298148122,0,0,0,,0,100,100,130,1,CRILL,HB,old,z,./images/CRILLHB.png,,,,,,,,,,,,,,,,,,,,,,,,,,,,,,,,,,,
,,,,,,,,,,,,,,,,,,57,2022-02-12_15h59.55.894,lexical_decision_task_DD_L4,2021.2.3,Win32,59.87306909,,,,,,,,,,,0.8896,1,,,,,,,,,,,,,,m,1,0.8896,,,,,,,,-0.744629634,-0.298148122,0,0,0,,0,101,101,12,1,BLOKE,C,old,m,./images/BLOKE.png,,,,,,,,,,,,,,,,,,,,,,,,,,,,,,,,,,,
,,,,,,,,,,,,,,,,,,57,2022-02-12_15h59.55.894,lexical_decision_task_DD_L4,2021.2.3,Win32,59.87306909,,,,,,,,,,,1.6019,1,,,,,,,,,,,,,,m,1,1.6019,,,,,,,,-0.744629634,-0.298148122,0,0,0,,0,102,102,64,1,BRIDE,HB,old,m,./images/BRIDEHB.png,,,,,,,,,,,,,,,,,,,,,,,,,,,,,,,,,,,
,,,,,,,,,,,,,,,,,,57,2022-02-12_15h59.55.894,lexical_decision_task_DD_L4,2021.2.3,Win32,59.87306909,,,,,,,,,,,0.6544,1,,,,,,,,,,,,,,m,1,0.6544,,,,,,,,-0.744629634,-0.298148122,0,0,0,,0,103,103,74,1,JUMPER,LB,old,m,./images/JUMPERLB.png,,,,,,,,,,,,,,,,,,,,,,,,,,,,,,,,,,,
,,,,,,,,,,,,,,,,,,57,2022-02-12_15h59.55.894,lexical_decision_task_DD_L4,2021.2.3,Win32,59.87306909,,,,,,,,,,,0.6936,1,,,,,,,,,,,,,,m,1,0.6936,,,,,,,,-0.744629634,-0.298148122,0,0,0,,0,104,104,60,1,CURRY,C,old,m,./images/CURRY.png,,,,,,,,,,,,,,,,,,,,,,,,,,,,,,,,,,,
,,,,,,,,,,,,,,,,,,57,2022-02-12_15h59.55.894,lexical_decision_task_DD_L4,2021.2.3,Win32,59.87306909,,,,,,,,,,,0.7187,1,,,,,,,,,,,,,,m,1,0.7187,,,,,,,,-0.744629634,-0.298148122,0,0,0,,0,105,105,78,1,BROOM,C,old,m,./images/BROOM.png,,,,,,,,,,,,,,,,,,,,,,,,,,,,,,,,,,,
,,,,,,,,,,,,,,,,,,57,2022-02-12_15h59.55.894,lexical_decision_task_DD_L4,2021.2.3,Win32,59.87306909,,,,,,,,,,,0.7004,1,,,,,,,,,,,,,,m,1,0.7004,,,,,,,,-0.744629634,-0.298148122,0,0,0,,0,106,106,32,1,HOCKEY,LB,old,m,./images/HOCKEYLB.png,,,,,,,,,,,,,,,,,,,,,,,,,,,,,,,,,,,
,,,,,,,,,,,,,,,,,,57,2022-02-12_15h59.55.894,lexical_decision_task_DD_L4,2021.2.3,Win32,59.87306909,,,,,,,,,,,0.837,1,,,,,,,,,,,,,,z,1,0.837,,,,,,,,-0.744629634,-0.298148122,0,0,0,,0,107,107,116,1,BALGY,LB,old,z,./images/BALGYLB.png,,,,,,,,,,,,,,,,,,,,,,,,,,,,,,,,,,,
,,,,,,,,,,,,,,,,,,57,2022-02-12_15h59.55.894,lexical_decision_task_DD_L4,2021.2.3,Win32,59.87306909,,,,,,,,,,,0.6336,1,,,,,,,,,,,,,,m,1,0.6336,,,,,,,,-0.744629634,-0.298148122,0,0,0,,0,108,108,14,1,FENCE,LB,old,m,./images/FENCELB.png,,,,,,,,,,,,,,,,,,,,,,,,,,,,,,,,,,,
,,,,,,,,,,,,,,,,,,57,2022-02-12_15h59.55.894,lexical_decision_task_DD_L4,2021.2.3,Win32,59.87306909,,,,,,,,,,,0.7583,1,,,,,,,,,,,,,,z,1,0.7583,,,,,,,,-0.744629634,-0.298148122,0,0,0,,0,109,109,149,1,VEASE,LB,old,z,./images/VEASELB.png,,,,,,,,,,,,,,,,,,,,,,,,,,,,,,,,,,,
,,,,,,,,,,,,,,,,,,57,2022-02-12_15h59.55.894,lexical_decision_task_DD_L4,2021.2.3,Win32,59.87306909,,,,,,,,,,,0.8556,1,,,,,,,,,,,,,,m,1,0.8556,,,,,,,,-0.744629634,-0.298148122,0,0,0,,0,110,110,46,1,MUMMY,HB,old,m,./images/MUMMYHB.png,,,,,,,,,,,,,,,,,,,,,,,,,,,,,,,,,,,
,,,,,,,,,,,,,,,,,,57,2022-02-12_15h59.55.894,lexical_decision_task_DD_L4,2021.2.3,Win32,59.87306909,,,,,,,,,,,0.6056,1,,,,,,,,,,,,,,m,1,0.6056,,,,,,,,-0.744629634,-0.298148122,0,0,0,,0,111,111,45,1,MONKEY,C,old,m,./images/MONKEY.png,,,,,,,,,,,,,,,,,,,,,,,,,,,,,,,,,,,
,,,,,,,,,,,,,,,,,,57,2022-02-12_15h59.55.894,lexical_decision_task_DD_L4,2021.2.3,Win32,59.87306909,,,,,,,,,,,1.1014,0,,,,,,,,,,,,,,m,0,1.1014,,,,,,,,-0.744629634,-0.298148122,0,0,0,,0,112,112,110,1,CRUNK,LB,old,z,./images/CRUNKLB.png,,,,,,,,,,,,,,,,,,,,,,,,,,,,,,,,,,,
,,,,,,,,,,,,,,,,,,57,2022-02-12_15h59.55.894,lexical_decision_task_DD_L4,2021.2.3,Win32,59.87306909,,,,,,,,,,,0.988,1,,,,,,,,,,,,,,z,1,0.988,,,,,,,,-0.744629634,-0.298148122,0,0,0,,0,113,113,95,1,HANTY,LB,old,z,./images/HANTYLB.png,,,,,,,,,,,,,,,,,,,,,,,,,,,,,,,,,,,
,,,,,,,,,,,,,,,,,,57,2022-02-12_15h59.55.894,lexical_decision_task_DD_L4,2021.2.3,Win32,59.87306909,,,,,,,,,,,1.5857,1,,,,,,,,,,,,,,z,1,1.5857,,,,,,,,-0.744629634,-0.298148122,0,0,0,,0,114,114,143,1,MONGS,LB,old,z,./images/MONGSLB.png,,,,,,,,,,,,,,,,,,,,,,,,,,,,,,,,,,,
,,,,,,,,,,,,,,,,,,57,2022-02-12_15h59.55.894,lexical_decision_task_DD_L4,2021.2.3,Win32,59.87306909,,,,,,,,,,,0.901,1,,,,,,,,,,,,,,m,1,0.901,,,,,,,,-0.744629634,-0.298148122,0,0,0,,0,115,115,49,1,BISHOP,HB,old,m,./images/BISHOPHB.png,,,,,,,,,,,,,,,,,,,,,,,,,,,,,,,,,,,
,,,,,,,,,,,,,,,,,,57,2022-02-12_15h59.55.894,lexical_decision_task_DD_L4,2021.2.3,Win32,59.87306909,,,,,,,,,,,2.4982,0,,,,,,,,,,,,,,m,0,2.4982,,,,,,,,-0.744629634,-0.298148122,0,0,0,,0,116,116,151,1,TINKY,HB,old,z,./images/TINKYHB.png,,,,,,,,,,,,,,,,,,,,,,,,,,,,,,,,,,,
,,,,,,,,,,,,,,,,,,57,2022-02-12_15h59.55.894,lexical_decision_task_DD_L4,2021.2.3,Win32,59.87306909,,,,,,,,,,,0.8149,1,,,,,,,,,,,,,,z,1,0.8149,,,,,,,,-0.744629634,-0.298148122,0,0,0,,0,117,117,162,1,LEICH,C,old,z,./images/LEICH.png,,,,,,,,,,,,,,,,,,,,,,,,,,,,,,,,,,,
,,,,,,,,,,,,,,,,,,57,2022-02-12_15h59.55.894,lexical_decision_task_DD_L4,2021.2.3,Win32,59.87306909,,,,,,,,,,,1.0052,1,,,,,,,,,,,,,,z,1,1.0052,,,,,,,,-0.744629634,-0.298148122,0,0,0,,0,118,118,161,1,BLAPS,LB,old,z,./images/BLAPSLB.png,,,,,,,,,,,,,,,,,,,,,,,,,,,,,,,,,,,
,,,,,,,,,,,,,,,,,,57,2022-02-12_15h59.55.894,lexical_decision_task_DD_L4,2021.2.3,Win32,59.87306909,,,,,,,,,,,1.3466,1,,,,,,,,,,,,,,z,1,1.3466,,,,,,,,-0.744629634,-0.298148122,0,0,0,,0,119,119,99,1,BACKY,C,old,z,./images/BACKY.png,,,,,,,,,,,,,,,,,,,,,,,,,,,,,,,,,,,
,,,,,,,,,,,,,,,,,,57,2022-02-12_15h59.55.894,lexical_decision_task_DD_L4,2021.2.3,Win32,59.87306909,,,,,,,,,,,1.4529,1,,,,,,,,,,,,,,z,1,1.4529,,,,,,,,-0.744629634,-0.298148122,0,0,0,,0,120,120,88,1,GLUSH,HB,old,z,./images/GLUSHHB.png,,,,,,,,,,,,,,,,,,,,,,,,,,,,,,,,,,,
,,,,,,,,,,,,,,,,,,57,2022-02-12_15h59.55.894,lexical_decision_task_DD_L4,2021.2.3,Win32,59.87306909,,,,,,,,,,,1.3654,1,,,,,,,,,,,,,,z,1,1.3654,,,,,,,,-0.744629634,-0.298148122,0,0,0,,0,121,121,98,1,BAMPS,LB,old,z,./images/BAMPSLB.png,,,,,,,,,,,,,,,,,,,,,,,,,,,,,,,,,,,
,,,,,,,,,,,,,,,,,,57,2022-02-12_15h59.55.894,lexical_decision_task_DD_L4,2021.2.3,Win32,59.87306909,,,,,,,,,,,1.9827,0,,,,,,,,,,,,,,m,0,1.9827,,,,,,,,-0.744629634,-0.298148122,0,0,0,,0,122,122,91,1,SHENS,HB,old,z,./images/SHENSHB.png,,,,,,,,,,,,,,,,,,,,,,,,,,,,,,,,,,,
,,,,,,,,,,,,,,,,,,57,2022-02-12_15h59.55.894,lexical_decision_task_DD_L4,2021.2.3,Win32,59.87306909,,,,,,,,,,,0.7229,1,,,,,,,,,,,,,,m,1,0.7229,,,,,,,,-0.744629634,-0.298148122,0,0,0,,0,123,123,1,1,TOWEL,HB,old,m,./images/TOWELHB.png,,,,,,,,,,,,,,,,,,,,,,,,,,,,,,,,,,,
,,,,,,,,,,,,,,,,,,57,2022-02-12_15h59.55.894,lexical_decision_task_DD_L4,2021.2.3,Win32,59.87306909,,,,,,,,,,,1.5503,1,,,,,,,,,,,,,,z,1,1.5503,,,,,,,,-0.744629634,-0.298148122,0,0,0,,0,124,124,84,1,HAXES,C,old,z,./images/HAXES.png,,,,,,,,,,,,,,,,,,,,,,,,,,,,,,,,,,,
,,,,,,,,,,,,,,,,,,57,2022-02-12_15h59.55.894,lexical_decision_task_DD_L4,2021.2.3,Win32,59.87306909,,,,,,,,,,,1.0519,1,,,,,,,,,,,,,,z,1,1.0519,,,,,,,,-0.744629634,-0.298148122,0,0,0,space,0,125,125,108,1,GRUET,C,old,z,./images/GRUET.png,18.5522,,,,,,,,,,,,,,,,,,,,,,,,,,,,,,,,,,
,,,,,,,,,,,,,,,,,,57,2022-02-12_15h59.55.894,lexical_decision_task_DD_L4,2021.2.3,Win32,59.87306909,,,,,,,,,,,0.9674,1,,,,,,,,,,,,,,z,1,0.9674,,,,,,,,-0.744629634,-0.298148122,0,0,0,,0,126,126,96,1,KEAMS,C,old,z,./images/KEAMS.png,,,,,,,,,,,,,,,,,,,,,,,,,,,,,,,,,,,
,,,,,,,,,,,,,,,,,,57,2022-02-12_15h59.55.894,lexical_decision_task_DD_L4,2021.2.3,Win32,59.87306909,,,,,,,,,,,1.3607,1,,,,,,,,,,,,,,z,1,1.3607,,,,,,,,-0.744629634,-0.298148122,0,0,0,,0,127,127,160,1,VEETS,HB,old,z,./images/VEETSHB.png,,,,,,,,,,,,,,,,,,,,,,,,,,,,,,,,,,,
,,,,,,,,,,,,,,,,,,57,2022-02-12_15h59.55.894,lexical_decision_task_DD_L4,2021.2.3,Win32,59.87306909,,,,,,,,,,,0.7341,1,,,,,,,,,,,,,,m,1,0.7341,,,,,,,,-0.744629634,-0.298148122,0,0,0,,0,128,128,71,1,BUBBLE,LB,old,m,./images/BUBBLELB.png,,,,,,,,,,,,,,,,,,,,,,,,,,,,,,,,,,,
,,,,,,,,,,,,,,,,,,57,2022-02-12_15h59.55.894,lexical_decision_task_DD_L4,2021.2.3,Win32,59.87306909,,,,,,,,,,,1.2099,1,,,,,,,,,,,,,,z,1,1.2099,,,,,,,,-0.744629634,-0.298148122,0,0,0,,0,129,129,106,1,CLUMS,HB,old,z,./images/CLUMSHB.png,,,,,,,,,,,,,,,,,,,,,,,,,,,,,,,,,,,
,,,,,,,,,,,,,,,,,,57,2022-02-12_15h59.55.894,lexical_decision_task_DD_L4,2021.2.3,Win32,59.87306909,,,,,,,,,,,1.1509,1,,,,,,,,,,,,,,z,1,1.1509,,,,,,,,-0.744629634,-0.298148122,0,0,0,,0,130,130,103,1,FLORT,HB,old,z,./images/FLORTHB.png,,,,,,,,,,,,,,,,,,,,,,,,,,,,,,,,,,,
,,,,,,,,,,,,,,,,,,57,2022-02-12_15h59.55.894,lexical_decision_task_DD_L4,2021.2.3,Win32,59.87306909,,,,,,,,,,,0.7505,1,,,,,,,,,,,,,,m,1,0.7505,,,,,,,,-0.744629634,-0.298148122,0,0,0,,0,131,131,16,1,GRAPE,HB,old,m,./images/GRAPEHB.png,,,,,,,,,,,,,,,,,,,,,,,,,,,,,,,,,,,
,,,,,,,,,,,,,,,,,,57,2022-02-12_15h59.55.894,lexical_decision_task_DD_L4,2021.2.3,Win32,59.87306909,,,,,,,,,,,1.0309,1,,,,,,,,,,,,,,z,1,1.0309,,,,,,,,-0.744629634,-0.298148122,0,0,0,,0,132,132,159,1,CUDDY,C,old,z,./images/CUDDY.png,,,,,,,,,,,,,,,,,,,,,,,,,,,,,,,,,,,
,,,,,,,,,,,,,,,,,,57,2022-02-12_15h59.55.894,lexical_decision_task_DD_L4,2021.2.3,Win32,59.87306909,,,,,,,,,,,1.1274,1,,,,,,,,,,,,,,z,1,1.1274,,,,,,,,-0.744629634,-0.298148122,0,0,0,,0,133,133,145,1,LAMEL,HB,old,z,./images/LAMELHB.png,,,,,,,,,,,,,,,,,,,,,,,,,,,,,,,,,,,
,,,,,,,,,,,,,,,,,,57,2022-02-12_15h59.55.894,lexical_decision_task_DD_L4,2021.2.3,Win32,59.87306909,,,,,,,,,,,0.9683,1,,,,,,,,,,,,,,z,1,0.9683,,,,,,,,-0.744629634,-0.298148122,0,0,0,,0,134,134,146,1,MOOST,LB,old,z,./images/MOOSTLB.png,,,,,,,,,,,,,,,,,,,,,,,,,,,,,,,,,,,
,,,,,,,,,,,,,,,,,,57,2022-02-12_15h59.55.894,lexical_decision_task_DD_L4,2021.2.3,Win32,59.87306909,,,,,,,,,,,0.6175,1,,,,,,,,,,,,,,m,1,0.6175,,,,,,,,-0.744629634,-0.298148122,0,0,0,,0,135,135,2,1,STOVE,LB,old,m,./images/STOVELB.png,,,,,,,,,,,,,,,,,,,,,,,,,,,,,,,,,,,
,,,,,,,,,,,,,,,,,,57,2022-02-12_15h59.55.894,lexical_decision_task_DD_L4,2021.2.3,Win32,59.87306909,,,,,,,,,,,1.1167,0,,,,,,,,,,,,,,m,0,1.1167,,,,,,,,-0.744629634,-0.298148122,0,0,0,,0,136,136,104,1,GITTY,LB,old,z,./images/GITTYLB.png,,,,,,,,,,,,,,,,,,,,,,,,,,,,,,,,,,,
,,,,,,,,,,,,,,,,,,57,2022-02-12_15h59.55.894,lexical_decision_task_DD_L4,2021.2.3,Win32,59.87306909,,,,,,,,,,,2.8743,1,,,,,,,,,,,,,,z,1,2.8743,,,,,,,,-0.744629634,-0.298148122,0,0,0,,0,137,137,163,1,GAMBA,HB,old,z,./images/GAMBAHB.png,,,,,,,,,,,,,,,,,,,,,,,,,,,,,,,,,,,
,,,,,,,,,,,,,,,,,,57,2022-02-12_15h59.55.894,lexical_decision_task_DD_L4,2021.2.3,Win32,59.87306909,,,,,,,,,,,0.6365,1,,,,,,,,,,,,,,m,1,0.6365,,,,,,,,-0.744629634,-0.298148122,0,0,0,,0,138,138,69,1,ARROW,C,old,m,./images/ARROW.png,,,,,,,,,,,,,,,,,,,,,,,,,,,,,,,,,,,
,,,,,,,,,,,,,,,,,,57,2022-02-12_15h59.55.894,lexical_decision_task_DD_L4,2021.2.3,Win32,59.87306909,,,,,,,,,,,1.4252,1,,,,,,,,,,,,,,z,1,1.4252,,,,,,,,-0.744629634,-0.298148122,0,0,0,,0,139,139,112,1,MYING,HB,old,z,./images/MYINGHB.png,,,,,,,,,,,,,,,,,,,,,,,,,,,,,,,,,,,
,,,,,,,,,,,,,,,,,,57,2022-02-12_15h59.55.894,lexical_decision_task_DD_L4,2021.2.3,Win32,59.87306909,,,,,,,,,,,0.7741,1,,,,,,,,,,,,,,z,1,0.7741,,,,,,,,-0.744629634,-0.298148122,0,0,0,,0,140,140,135,1,JOODY,C,old,z,./images/JOODY.png,,,,,,,,,,,,,,,,,,,,,,,,,,,,,,,,,,,
,,,,,,,,,,,,,,,,,,57,2022-02-12_15h59.55.894,lexical_decision_task_DD_L4,2021.2.3,Win32,59.87306909,,,,,,,,,,,0.9584,1,,,,,,,,,,,,,,z,1,0.9584,,,,,,,,-0.744629634,-0.298148122,0,0,0,,0,141,141,138,1,PLICE,C,old,z,./images/PLICE.png,,,,,,,,,,,,,,,,,,,,,,,,,,,,,,,,,,,
,,,,,,,,,,,,,,,,,,57,2022-02-12_15h59.55.894,lexical_decision_task_DD_L4,2021.2.3,Win32,59.87306909,,,,,,,,,,,0.6501,1,,,,,,,,,,,,,,m,1,0.6501,,,,,,,,-0.744629634,-0.298148122,0,0,0,,0,142,142,24,1,FLESH,C,old,m,./images/FLESH.png,,,,,,,,,,,,,,,,,,,,,,,,,,,,,,,,,,,
,,,,,,,,,,,,,,,,,,57,2022-02-12_15h59.55.894,lexical_decision_task_DD_L4,2021.2.3,Win32,59.87306909,,,,,,,,,,,2.3164,1,,,,,,,,,,,,,,z,1,2.3164,,,,,,,,-0.744629634,-0.298148122,0,0,0,,0,143,143,152,1,FRAIN,LB,old,z,./images/FRAINLB.png,,,,,,,,,,,,,,,,,,,,,,,,,,,,,,,,,,,
,,,,,,,,,,,,,,,,,,57,2022-02-12_15h59.55.894,lexical_decision_task_DD_L4,2021.2.3,Win32,59.87306909,,,,,,,,,,,0.801,1,,,,,,,,,,,,,,m,1,0.801,,,,,,,,-0.744629634,-0.298148122,0,0,0,,0,144,144,25,1,CHALK,HB,old,m,./images/CHALKHB.png,,,,,,,,,,,,,,,,,,,,,,,,,,,,,,,,,,,
,,,,,,,,,,,,,,,,,,57,2022-02-12_15h59.55.894,lexical_decision_task_DD_L4,2021.2.3,Win32,59.87306909,,,,,,,,,,,1.4669,1,,,,,,,,,,,,,,z,1,1.4669,,,,,,,,-0.744629634,-0.298148122,0,0,0,,0,145,145,158,1,EGECT,LB,old,z,./images/EGECTLB.png,,,,,,,,,,,,,,,,,,,,,,,,,,,,,,,,,,,
,,,,,,,,,,,,,,,,,,57,2022-02-12_15h59.55.894,lexical_decision_task_DD_L4,2021.2.3,Win32,59.87306909,,,,,,,,,,,0.6668,1,,,,,,,,,,,,,,m,1,0.6668,,,,,,,,-0.744629634,-0.298148122,0,0,0,,0,146,146,36,1,BOILER,C,old,m,./images/BOILER.png,,,,,,,,,,,,,,,,,,,,,,,,,,,,,,,,,,,
,,,,,,,,,,,,,,,,,,57,2022-02-12_15h59.55.894,lexical_decision_task_DD_L4,2021.2.3,Win32,59.87306909,,,,,,,,,,,1.2191,1,,,,,,,,,,,,,,z,1,1.2191,,,,,,,,-0.744629634,-0.298148122,0,0,0,,0,147,147,107,1,FASKS,LB,old,z,./images/FASKSLB.png,,,,,,,,,,,,,,,,,,,,,,,,,,,,,,,,,,,
,,,,,,,,,,,,,,,,,,57,2022-02-12_15h59.55.894,lexical_decision_task_DD_L4,2021.2.3,Win32,59.87306909,,,,,,,,,,,0.8184,1,,,,,,,,,,,,,,m,1,0.8184,,,,,,,,-0.744629634,-0.298148122,0,0,0,,0,148,148,19,1,DONKEY,HB,old,m,./images/DONKEYHB.png,,,,,,,,,,,,,,,,,,,,,,,,,,,,,,,,,,,
,,,,,,,,,,,,,,,,,,57,2022-02-12_15h59.55.894,lexical_decision_task_DD_L4,2021.2.3,Win32,59.87306909,,,,,,,,,,,0.8504,1,,,,,,,,,,,,,,z,1,0.8504,,,,,,,,-0.744629634,-0.298148122,0,0,0,,0,149,149,89,1,DRIEK,LB,old,z,./images/DRIEKLB.png,,,,,,,,,,,,,,,,,,,,,,,,,,,,,,,,,,,
,,,,,,,,,,,,,,,,,,57,2022-02-12_15h59.55.894,lexical_decision_task_DD_L4,2021.2.3,Win32,59.87306909,,,,,,,,,,,1.4521,1,,,,,,,,,,,,,,z,1,1.4521,,,,,,,,-0.744629634,-0.298148122,0,0,0,,0,150,150,136,1,WERVE,HB,old,z,./images/WERVEHB.png,,,,,,,,,,,,,,,,,,,,,,,,,,,,,,,,,,,
,,,,,,,,,,,,,,,,,,57,2022-02-12_15h59.55.894,lexical_decision_task_DD_L4,2021.2.3,Win32,59.87306909,,,,,,,,,,,0.878,1,,,,,,,,,,,,,,z,1,0.878,,,,,,,,-0.744629634,-0.298148122,0,0,0,,0,151,151,119,1,PAFER,LB,old,z,./images/PAFERLB.png,,,,,,,,,,,,,,,,,,,,,,,,,,,,,,,,,,,
,,,,,,,,,,,,,,,,,,57,2022-02-12_15h59.55.894,lexical_decision_task_DD_L4,2021.2.3,Win32,59.87306909,,,,,,,,,,,0.9671,1,,,,,,,,,,,,,,z,1,0.9671,,,,,,,,-0.744629634,-0.298148122,0,0,0,,0,152,152,92,1,PAIMS,LB,old,z,./images/PAIMSLB.png,,,,,,,,,,,,,,,,,,,,,,,,,,,,,,,,,,,
,,,,,,,,,,,,,,,,,,57,2022-02-12_15h59.55.894,lexical_decision_task_DD_L4,2021.2.3,Win32,59.87306909,,,,,,,,,,,0.6661,1,,,,,,,,,,,,,,m,1,0.6661,,,,,,,,-0.744629634,-0.298148122,0,0,0,,0,153,153,44,1,BASKET,LB,old,m,./images/BASKETLB.png,,,,,,,,,,,,,,,,,,,,,,,,,,,,,,,,,,,
,,,,,,,,,,,,,,,,,,57,2022-02-12_15h59.55.894,lexical_decision_task_DD_L4,2021.2.3,Win32,59.87306909,,,,,,,,,,,0.8176,1,,,,,,,,,,,,,,m,1,0.8176,,,,,,,,-0.744629634,-0.298148122,0,0,0,,0,154,154,17,1,PARADE,LB,old,m,./images/PARADELB.png,,,,,,,,,,,,,,,,,,,,,,,,,,,,,,,,,,,
,,,,,,,,,,,,,,,,,,57,2022-02-12_15h59.55.894,lexical_decision_task_DD_L4,2021.2.3,Win32,59.87306909,,,,,,,,,,,0.8997,1,,,,,,,,,,,,,,m,1,0.8997,,,,,,,,-0.744629634,-0.298148122,0,0,0,,0,155,155,43,1,STOOL,HB,old,m,./images/STOOLHB.png,,,,,,,,,,,,,,,,,,,,,,,,,,,,,,,,,,,
,,,,,,,,,,,,,,,,,,57,2022-02-12_15h59.55.894,lexical_decision_task_DD_L4,2021.2.3,Win32,59.87306909,,,,,,,,,,,0.6904,1,,,,,,,,,,,,,,m,1,0.6904,,,,,,,,-0.744629634,-0.298148122,0,0,0,,0,156,156,42,1,CHAIN,C,old,m,./images/CHAIN.png,,,,,,,,,,,,,,,,,,,,,,,,,,,,,,,,,,,
,,,,,,,,,,,,,,,,,,57,2022-02-12_15h59.55.894,lexical_decision_task_DD_L4,2021.2.3,Win32,59.87306909,,,,,,,,,,,0.7251,1,,,,,,,,,,,,,,m,1,0.7251,,,,,,,,-0.744629634,-0.298148122,0,0,0,,0,157,157,22,1,CLOWN,HB,old,m,./images/CLOWNHB.png,,,,,,,,,,,,,,,,,,,,,,,,,,,,,,,,,,,
,,,,,,,,,,,,,,,,,,57,2022-02-12_15h59.55.894,lexical_decision_task_DD_L4,2021.2.3,Win32,59.87306909,,,,,,,,,,,0.9431,0,,,,,,,,,,,,,,m,0,0.9431,,,,,,,,-0.744629634,-0.298148122,0,0,0,,0,158,158,128,1,GRIFT,LB,old,z,./images/GRIFTLB.png,,,,,,,,,,,,,,,,,,,,,,,,,,,,,,,,,,,
,,,,,,,,,,,,,,,,,,57,2022-02-12_15h59.55.894,lexical_decision_task_DD_L4,2021.2.3,Win32,59.87306909,,,,,,,,,,,1.0062,1,,,,,,,,,,,,,,z,1,1.0062,,,,,,,,-0.744629634,-0.298148122,0,0,0,,0,159,159,87,1,TRING,C,old,z,./images/TRING.png,,,,,,,,,,,,,,,,,,,,,,,,,,,,,,,,,,,
,,,,,,,,,,,,,,,,,,57,2022-02-12_15h59.55.894,lexical_decision_task_DD_L4,2021.2.3,Win32,59.87306909,,,,,,,,,,,0.9899,1,,,,,,,,,,,,,,z,1,0.9899,,,,,,,,-0.744629634,-0.298148122,0,0,0,,0,160,160,122,1,BLOOT,LB,old,z,./images/BLOOTLB.png,,,,,,,,,,,,,,,,,,,,,,,,,,,,,,,,,,,
,,,,,,,,,,,,,,,,,,57,2022-02-12_15h59.55.894,lexical_decision_task_DD_L4,2021.2.3,Win32,59.87306909,,,,,,,,,,,0.8572,1,,,,,,,,,,,,,,z,1,0.8572,,,,,,,,-0.744629634,-0.298148122,0,0,0,,0,161,161,132,1,SCIFF,C,old,z,./images/SCIFF.png,,,,,,,,,,,,,,,,,,,,,,,,,,,,,,,,,,,
,,,,,,,,,,,,,,,,,,57,2022-02-12_15h59.55.894,lexical_decision_task_DD_L4,2021.2.3,Win32,59.87306909,,,,,,,,,,,0.664,1,,,,,,,,,,,,,,m,1,0.664,,,,,,,,-0.744629634,-0.298148122,0,0,0,,0,162,162,57,1,FERRY,C,old,m,./images/FERRY.png,,,,,,,,,,,,,,,,,,,,,,,,,,,,,,,,,,,
,,,,,,,,,,,,,,,,,,57,2022-02-12_15h59.55.894,lexical_decision_task_DD_L4,2021.2.3,Win32,59.87306909,,,,,,,,,,,0.661,1,,,,,,,,,,,,,,m,1,0.661,,,,,,,,-0.744629634,-0.298148122,0,0,0,,0,163,163,56,1,HEATER,LB,old,m,./images/HEATERLB.png,,,,,,,,,,,,,,,,,,,,,,,,,,,,,,,,,,,
,,,,,,,,,,,,,,,,,,57,2022-02-12_15h59.55.894,lexical_decision_task_DD_L4,2021.2.3,Win32,59.87306909,,,,,,,,,,,0.9552,1,,,,,,,,,,,,,,z,1,0.9552,,,,,,,,-0.744629634,-0.298148122,0,0,0,,0,164,164,131,1,NACES,LB,old,z,./images/NACESLB.png,,,,,,,,,,,,,,,,,,,,,,,,,,,,,,,,,,,
,,,,,,,,,,,,,,,,,,57,2022-02-12_15h59.55.894,lexical_decision_task_DD_L4,2021.2.3,Win32,59.87306909,,,,,,,,,,,2.0154,1,,,,,,,,,,,,,,z,1,2.0154,,,,,,,,-0.744629634,-0.298148122,0,0,0,,0,165,165,157,1,INLER,HB,old,z,./images/INLERHB.png,,,,,,,,,,,,,,,,,,,,,,,,,,,,,,,,,,,
,,,,,,,,,,,,,,,,,,57,2022-02-12_15h59.55.894,lexical_decision_task_DD_L4,2021.2.3,Win32,59.87306909,,,,,,,,,,,0.7909,1,,,,,,,,,,,,,,m,1,0.7909,,,,,,,,-0.744629634,-0.298148122,0,0,0,,0,166,166,58,1,CANOE,HB,old,m,./images/CANOEHB.png,,,,,,,,,,,,,,,,,,,,,,,,,,,,,,,,,,,
,,,,,,,,,,,,,,,,,,57,2022-02-12_15h59.55.894,lexical_decision_task_DD_L4,2021.2.3,Win32,59.87306909,,,,,,,,,,,1.3487,1,,,,,,,,,,,,,,m,1,1.3487,,,,,,,,-0.744629634,-0.298148122,0,0,0,,0,167,167,6,1,STAIN,C,old,m,./images/STAIN.png,,,,,,,,,,,,,,,,,,,,,,,,,,,,,,,,,,,
,,,,,,,,,,,,,,,,,,57,2022-02-12_15h59.55.894,lexical_decision_task_DD_L4,2021.2.3,Win32,59.87306909,,,,,,,,,,,,,,,,,,,,,,,,,,,,,,,,,,,,,,,,,,,,,,,,How likely will it be that you will recognize the words presented clearly on a scale of 0 (not likely) to 100 (most likely)?,,,,,-0.00944453,-0.406481452,1,0,0,jol_adv,4,7.4349,0,0,0,0,1,,,,,,,,,,,,,,,,,,,,,
,,,,,,,,,,,,,,,,,,57,2022-02-12_15h59.55.894,lexical_decision_task_DD_L4,2021.2.3,Win32,59.87306909,,,,,,,,,,,,,,,,,,,,,,,,,,,,,,,,,,,,,,,,,,,,,,,,How likely will it be that you will recognize the words presented slighly blurred on a scale of 0 (not likely) to 100 (most likely)?,,,,,,,,,,,4,5.142,0,1,1,1,1,,,,,,,,,,,,,,,,,,,,,
,,,,,,,,,,,,,,,,,,57,2022-02-12_15h59.55.894,lexical_decision_task_DD_L4,2021.2.3,Win32,59.87306909,,,,,,,,,,,,,,,,,,,,,,,,,,,,,,,,,,,,,,,,,,,,,,,,How likely will it be that you will recognize the words presented very blurred on a scale of 0 (not likely) to 100 (most likely)?,,,,,,,,,,,3,5.0449,0,2,2,2,1,,,,,,,,,,,,,,,,,,,,,
space,25.299,-0.01314829,-0.200925903,0,0,0,,,,,,1,test,"In the next phase you will be presented with the words from the the first phase. Your job is to decide whether you remember seeing the word or not. If you remember seeing the word press ""old"" or type ""m"". If you do not remember seeing the word press ""new"" or type ""z"". Please press the space bar or click on continue to begin. ",,,,57,2022-02-12_15h59.55.894,lexical_decision_task_DD_L4,2021.2.3,Win32,59.87306909,,,,,,,,,,,,,,,,,,,,,,,,,,,,,,,,,,,,,,,,,,,,,,,,,,,,,,,,,,,,,,,,,,0,0,0,0,1,,,,,,,,,,,,,,,,
space,4.6288,-0.01314829,-0.200925903,0,0,0,,,,,,1,test,"In the next phase you will be presented with the words from the the first phase. Your job is to decide whether you remember seeing the word or not. If you remember seeing the word press ""old"" or type ""m"". If you do not remember seeing the word press ""new"" or type ""z"". Please press the space bar or click on continue to begin. ",,,,57,2022-02-12_15h59.55.894,lexical_decision_task_DD_L4,2021.2.3,Win32,59.87306909,,,,,,,,,,,,,,,,,,,,,,,,,,,,,,,,,,,,,,,,,,,,,,,,,,,,,,,,,,,,,,,,,,1,0,1,0,1,,,,,,,,,,,,,,,,
,,0.060925903,-0.396296234,1,0,0,,,,,,1,test,"In the next phase you will be presented with the words from the the first phase. Your job is to decide whether you remember seeing the word or not. If you remember seeing the word press ""old"" or type ""m"". If you do not remember seeing the word press ""new"" or type ""z"". Please press the space bar or click on continue to begin. ",,,,57,2022-02-12_15h59.55.894,lexical_decision_task_DD_L4,2021.2.3,Win32,59.87306909,,,,,,,,,,,,,,,,,,,,,,,,,,,,,,,,,,,,,,,,,,,,,,,,,,,,,,,,,,,,,,,,,,2,0,2,0,1,instr_done_button,,,,,,,,,,,,,,,
,,0.018333247,-0.398148119,1,0,0,,,,,,1,test,"In the next phase you will be presented with the words from the the first phase. Your job is to decide whether you remember seeing the word or not. If you remember seeing the word press ""old"" or type ""m"". If you do not remember seeing the word press ""new"" or type ""z"". Please press the space bar or click on continue to begin. ",,,,57,2022-02-12_15h59.55.894,lexical_decision_task_DD_L4,2021.2.3,Win32,59.87306909,,,,,,,,,,,,,,,,,,,,,,,,,,,,,,,,,,,,,,,,,,,,,,,,,,,,,,,,,,,,,,,,,,3,0,3,0,1,instr_done_button,,,,,,,,,,,,,,,
space,14.7587,-0.02148151,-0.39629621,0,0,0,,,,,,1,test,"In the next phase you will be presented with the words from the the first phase. Your job is to decide whether you remember seeing the word or not. If you remember seeing the word press ""old"" or type ""m"". If you do not remember seeing the word press ""new"" or type ""z"". Please press the space bar or click on continue to begin. ",,,,57,2022-02-12_15h59.55.894,lexical_decision_task_DD_L4,2021.2.3,Win32,59.87306909,,,,,,,,,,,,,,,,,,,,,,,,,,,,,,,,,,,,,,,,,,,,,,,,,,,,,,,,,,,,,,,,,,4,0,4,0,1,,,,,,,,,,,,,,,,
,,,,,,,,,,,,,,,,,,57,2022-02-12_15h59.55.894,lexical_decision_task_DD_L4,2021.2.3,Win32,59.87306909,,,,,,,,,,,2.5047,0,,,,,,,,,,,,,,,,,,,,,,,,-0.02148151,-0.39629621,0,0,0,,,,,,,NOOSE,C,z,y,./images/NOOSE.png,,,,,,,,,,,,,,,,,,,,,m,0,2.5047,,,,,,,,0,0,0,156,1
,,,,,,,,,,,,,,,,,,57,2022-02-12_15h59.55.894,lexical_decision_task_DD_L4,2021.2.3,Win32,59.87306909,,,,,,,,,,,1.4683,1,,,,,,,,,,,,,,,,,,,,,,,,-0.02148151,-0.39629621,0,0,0,,,,,,,SQUARE,C,z,y,./images/SQUARE.png,,,,,,,,,,,,,,,,,,,,,z,1,1.4683,,,,,,,,0,1,1,90,1
,,,,,,,,,,,,,,,,,,57,2022-02-12_15h59.55.894,lexical_decision_task_DD_L4,2021.2.3,Win32,59.87306909,,,,,,,,,,,0.6617,1,,,,,,,,,,,,,,,,,,,,,,,,-0.02148151,-0.39629621,0,0,0,,,,,,,BASKET,LB,m,y,./images/BASKETLB.png,,,,,,,,,,,,,,,,,,,,,m,1,0.6617,,,,,,,,0,2,2,44,1
,,,,,,,,,,,,,,,,,,57,2022-02-12_15h59.55.894,lexical_decision_task_DD_L4,2021.2.3,Win32,59.87306909,,,,,,,,,,,0.6196,1,,,,,,,,,,,,,,,,,,,,,,,,-0.02148151,-0.39629621,0,0,0,,,,,,,STEAK,HB,m,y,./images/STEAKHB.png,,,,,,,,,,,,,,,,,,,,,m,1,0.6196,,,,,,,,0,3,3,31,1
,,,,,,,,,,,,,,,,,,57,2022-02-12_15h59.55.894,lexical_decision_task_DD_L4,2021.2.3,Win32,59.87306909,,,,,,,,,,,0.6232,1,,,,,,,,,,,,,,,,,,,,,,,,-0.02148151,-0.39629621,0,0,0,,,,,,,CURRY,C,m,y,./images/CURRY.png,,,,,,,,,,,,,,,,,,,,,m,1,0.6232,,,,,,,,0,4,4,60,1
,,,,,,,,,,,,,,,,,,57,2022-02-12_15h59.55.894,lexical_decision_task_DD_L4,2021.2.3,Win32,59.87306909,,,,,,,,,,,0.6428,0,,,,,,,,,,,,,,,,,,,,,,,,-0.02148151,-0.39629621,0,0,0,,,,,,,JUNGLE,LB,z,y,./images/JUNGLELB.png,,,,,,,,,,,,,,,,,,,,,m,0,0.6428,,,,,,,,0,5,5,167,1
,,,,,,,,,,,,,,,,,,57,2022-02-12_15h59.55.894,lexical_decision_task_DD_L4,2021.2.3,Win32,59.87306909,,,,,,,,,,,0.7878,0,,,,,,,,,,,,,,,,,,,,,,,,-0.02148151,-0.39629621,0,0,0,,,,,,,STORM,C,z,y,./images/STORM.png,,,,,,,,,,,,,,,,,,,,,m,0,0.7878,,,,,,,,0,6,6,114,1
,,,,,,,,,,,,,,,,,,57,2022-02-12_15h59.55.894,lexical_decision_task_DD_L4,2021.2.3,Win32,59.87306909,,,,,,,,,,,0.6009,1,,,,,,,,,,,,,,,,,,,,,,,,-0.02148151,-0.39629621,0,0,0,,,,,,,STOVE,LB,m,y,./images/STOVELB.png,,,,,,,,,,,,,,,,,,,,,m,1,0.6009,,,,,,,,0,7,7,2,1
,,,,,,,,,,,,,,,,,,57,2022-02-12_15h59.55.894,lexical_decision_task_DD_L4,2021.2.3,Win32,59.87306909,,,,,,,,,,,0.6512,0,,,,,,,,,,,,,,,,,,,,,,,,-0.02148151,-0.39629621,0,0,0,,,,,,,FOLDER,C,z,y,./images/FOLDER.png,,,,,,,,,,,,,,,,,,,,,m,0,0.6512,,,,,,,,0,8,8,126,1
,,,,,,,,,,,,,,,,,,57,2022-02-12_15h59.55.894,lexical_decision_task_DD_L4,2021.2.3,Win32,59.87306909,,,,,,,,,,,0.7077,1,,,,,,,,,,,,,,,,,,,,,,,,-0.02148151,-0.39629621,0,0,0,,,,,,,BUNNY,HB,m,y,./images/BUNNYHB.png,,,,,,,,,,,,,,,,,,,,,m,1,0.7077,,,,,,,,0,9,9,13,1
,,,,,,,,,,,,,,,,,,57,2022-02-12_15h59.55.894,lexical_decision_task_DD_L4,2021.2.3,Win32,59.87306909,,,,,,,,,,,1.0532,0,,,,,,,,,,,,,,,,,,,,,,,,-0.02148151,-0.39629621,0,0,0,,,,,,,FARMER,LB,z,y,./images/FARMERLB.png,,,,,,,,,,,,,,,,,,,,,m,0,1.0532,,,,,,,,0,10,10,149,1
,,,,,,,,,,,,,,,,,,57,2022-02-12_15h59.55.894,lexical_decision_task_DD_L4,2021.2.3,Win32,59.87306909,,,,,,,,,,,1.7421,0,,,,,,,,,,,,,,,,,,,,,,,,-0.02148151,-0.39629621,0,0,0,,,,,,,KIDNEY,C,z,y,./images/KIDNEY.png,,,,,,,,,,,,,,,,,,,,,m,0,1.7421,,,,,,,,0,11,11,105,1
,,,,,,,,,,,,,,,,,,57,2022-02-12_15h59.55.894,lexical_decision_task_DD_L4,2021.2.3,Win32,59.87306909,,,,,,,,,,,0.7504,1,,,,,,,,,,,,,,,,,,,,,,,,-0.02148151,-0.39629621,0,0,0,,,,,,,CASINO,HB,m,y,./images/CASINOHB.png,,,,,,,,,,,,,,,,,,,,,m,1,0.7504,,,,,,,,0,12,12,28,1
,,,,,,,,,,,,,,,,,,57,2022-02-12_15h59.55.894,lexical_decision_task_DD_L4,2021.2.3,Win32,59.87306909,,,,,,,,,,,1.1161,0,,,,,,,,,,,,,,,,,,,,,,,,-0.02148151,-0.39629621,0,0,0,,,,,,,PLANK,HB,z,y,./images/PLANKHB.png,,,,,,,,,,,,,,,,,,,,,m,0,1.1161,,,,,,,,0,13,13,85,1
,,,,,,,,,,,,,,,,,,57,2022-02-12_15h59.55.894,lexical_decision_task_DD_L4,2021.2.3,Win32,59.87306909,,,,,,,,,,,0.7401,1,,,,,,,,,,,,,,,,,,,,,,,,-0.02148151,-0.39629621,0,0,0,,,,,,,TOWEL,HB,m,y,./images/TOWELHB.png,,,,,,,,,,,,,,,,,,,,,m,1,0.7401,,,,,,,,0,14,14,1,1
,,,,,,,,,,,,,,,,,,57,2022-02-12_15h59.55.894,lexical_decision_task_DD_L4,2021.2.3,Win32,59.87306909,,,,,,,,,,,0.8212,1,,,,,,,,,,,,,,,,,,,,,,,,-0.02148151,-0.39629621,0,0,0,,,,,,,SUNSET,HB,z,y,./images/SUNSETHB.png,,,,,,,,,,,,,,,,,,,,,z,1,0.8212,,,,,,,,0,15,15,166,1
,,,,,,,,,,,,,,,,,,57,2022-02-12_15h59.55.894,lexical_decision_task_DD_L4,2021.2.3,Win32,59.87306909,,,,,,,,,,,1.2333,1,,,,,,,,,,,,,,,,,,,,,,,,-0.02148151,-0.39629621,0,0,0,,,,,,,CEMENT,LB,z,y,./images/CEMENTLB.png,,,,,,,,,,,,,,,,,,,,,z,1,1.2333,,,,,,,,0,16,16,158,1
,,,,,,,,,,,,,,,,,,57,2022-02-12_15h59.55.894,lexical_decision_task_DD_L4,2021.2.3,Win32,59.87306909,,,,,,,,,,,0.7587,1,,,,,,,,,,,,,,,,,,,,,,,,-0.02148151,-0.39629621,0,0,0,,,,,,,COOKER,C,z,y,./images/COOKER.png,,,,,,,,,,,,,,,,,,,,,z,1,0.7587,,,,,,,,0,17,17,153,1
,,,,,,,,,,,,,,,,,,57,2022-02-12_15h59.55.894,lexical_decision_task_DD_L4,2021.2.3,Win32,59.87306909,,,,,,,,,,,0.8242,1,,,,,,,,,,,,,,,,,,,,,,,,-0.02148151,-0.39629621,0,0,0,,,,,,,DOUGH,HB,z,y,./images/DOUGHHB.png,,,,,,,,,,,,,,,,,,,,,z,1,0.8242,,,,,,,,0,18,18,103,1
,,,,,,,,,,,,,,,,,,57,2022-02-12_15h59.55.894,lexical_decision_task_DD_L4,2021.2.3,Win32,59.87306909,,,,,,,,,,,0.8865,1,,,,,,,,,,,,,,,,,,,,,,,,-0.02148151,-0.39629621,0,0,0,,,,,,,WHISKY,LB,m,y,./images/WHISKYLB.png,,,,,,,,,,,,,,,,,,,,,m,1,0.8865,,,,,,,,0,19,19,83,1
,,,,,,,,,,,,,,,,,,57,2022-02-12_15h59.55.894,lexical_decision_task_DD_L4,2021.2.3,Win32,59.87306909,,,,,,,,,,,0.7672,1,,,,,,,,,,,,,,,,,,,,,,,,-0.02148151,-0.39629621,0,0,0,,,,,,,RAZOR,HB,m,y,./images/RAZORHB.png,,,,,,,,,,,,,,,,,,,,,m,1,0.7672,,,,,,,,0,20,20,34,1
,,,,,,,,,,,,,,,,,,57,2022-02-12_15h59.55.894,lexical_decision_task_DD_L4,2021.2.3,Win32,59.87306909,,,,,,,,,,,1.1381,0,,,,,,,,,,,,,,,,,,,,,,,,-0.02148151,-0.39629621,0,0,0,,,,,,,SHIELD,C,m,y,./images/SHIELD.png,,,,,,,,,,,,,,,,,,,,,z,0,1.1381,,,,,,,,0,21,21,48,1
,,,,,,,,,,,,,,,,,,57,2022-02-12_15h59.55.894,lexical_decision_task_DD_L4,2021.2.3,Win32,59.87306909,,,,,,,,,,,0.783,1,,,,,,,,,,,,,,,,,,,,,,,,-0.02148151,-0.39629621,0,0,0,,,,,,,ALLEY,HB,m,y,./images/ALLEYHB.png,,,,,,,,,,,,,,,,,,,,,m,1,0.783,,,,,,,,0,22,22,55,1
,,,,,,,,,,,,,,,,,,57,2022-02-12_15h59.55.894,lexical_decision_task_DD_L4,2021.2.3,Win32,59.87306909,,,,,,,,,,,0.717,1,,,,,,,,,,,,,,,,,,,,,,,,-0.02148151,-0.39629621,0,0,0,,,,,,,LLAMA,LB,m,y,./images/LLAMALB.png,,,,,,,,,,,,,,,,,,,,,m,1,0.717,,,,,,,,0,23,23,35,1
,,,,,,,,,,,,,,,,,,57,2022-02-12_15h59.55.894,lexical_decision_task_DD_L4,2021.2.3,Win32,59.87306909,,,,,,,,,,,0.8387,0,,,,,,,,,,,,,,,,,,,,,,,,-0.02148151,-0.39629621,0,0,0,,,,,,,CANYON,HB,z,y,./images/CANYONHB.png,,,,,,,,,,,,,,,,,,,,,m,0,0.8387,,,,,,,,0,24,24,118,1
,,,,,,,,,,,,,,,,,,57,2022-02-12_15h59.55.894,lexical_decision_task_DD_L4,2021.2.3,Win32,59.87306909,,,,,,,,,,,1.0405,1,,,,,,,,,,,,,,,,,,,,,,,,-0.02148151,-0.39629621,0,0,0,,,,,,,QUILL,HB,z,y,./images/QUILLHB.png,,,,,,,,,,,,,,,,,,,,,z,1,1.0405,,,,,,,,0,25,25,115,1
,,,,,,,,,,,,,,,,,,57,2022-02-12_15h59.55.894,lexical_decision_task_DD_L4,2021.2.3,Win32,59.87306909,,,,,,,,,,,2.3217,1,,,,,,,,,,,,,,,,,,,,,,,,-0.02148151,-0.39629621,0,0,0,,,,,,,BANNER,HB,z,y,./images/BANNERHB.png,,,,,,,,,,,,,,,,,,,,,z,1,2.3217,,,,,,,,0,26,26,136,1
,,,,,,,,,,,,,,,,,,57,2022-02-12_15h59.55.894,lexical_decision_task_DD_L4,2021.2.3,Win32,59.87306909,,,,,,,,,,,0.8932,1,,,,,,,,,,,,,,,,,,,,,,,,-0.02148151,-0.39629621,0,0,0,,,,,,,RHINO,C,z,y,./images/RHINO.png,,,,,,,,,,,,,,,,,,,,,z,1,0.8932,,,,,,,,0,27,27,93,1
,,,,,,,,,,,,,,,,,,57,2022-02-12_15h59.55.894,lexical_decision_task_DD_L4,2021.2.3,Win32,59.87306909,,,,,,,,,,,0.8512,1,,,,,,,,,,,,,,,,,,,,,,,,-0.02148151,-0.39629621,0,0,0,,,,,,,STREAM,LB,m,y,./images/STREAMLB.png,,,,,,,,,,,,,,,,,,,,,m,1,0.8512,,,,,,,,0,28,28,41,1
,,,,,,,,,,,,,,,,,,57,2022-02-12_15h59.55.894,lexical_decision_task_DD_L4,2021.2.3,Win32,59.87306909,,,,,,,,,,,0.754,1,,,,,,,,,,,,,,,,,,,,,,,,-0.02148151,-0.39629621,0,0,0,,,,,,,LAGOON,LB,m,y,./images/LAGOONLB.png,,,,,,,,,,,,,,,,,,,,,m,1,0.754,,,,,,,,0,29,29,47,1
,,,,,,,,,,,,,,,,,,57,2022-02-12_15h59.55.894,lexical_decision_task_DD_L4,2021.2.3,Win32,59.87306909,,,,,,,,,,,1.05,1,,,,,,,,,,,,,,,,,,,,,,,,-0.02148151,-0.39629621,0,0,0,,,,,,,DESERT,HB,m,y,./images/DESERTHB.png,,,,,,,,,,,,,,,,,,,,,m,1,1.05,,,,,,,,0,30,30,52,1
,,,,,,,,,,,,,,,,,,57,2022-02-12_15h59.55.894,lexical_decision_task_DD_L4,2021.2.3,Win32,59.87306909,,,,,,,,,,,0.769,0,,,,,,,,,,,,,,,,,,,,,,,,-0.02148151,-0.39629621,0,0,0,,,,,,,BEARD,LB,z,y,./images/BEARDLB.png,,,,,,,,,,,,,,,,,,,,,m,0,0.769,,,,,,,,0,31,31,86,1
,,,,,,,,,,,,,,,,,,57,2022-02-12_15h59.55.894,lexical_decision_task_DD_L4,2021.2.3,Win32,59.87306909,,,,,,,,,,,0.9729,1,,,,,,,,,,,,,,,,,,,,,,,,-0.02148151,-0.39629621,0,0,0,,,,,,,LITTER,C,z,y,./images/LITTER.png,,,,,,,,,,,,,,,,,,,,,z,1,0.9729,,,,,,,,0,32,32,162,1
,,,,,,,,,,,,,,,,,,57,2022-02-12_15h59.55.894,lexical_decision_task_DD_L4,2021.2.3,Win32,59.87306909,,,,,,,,,,,0.8174,1,,,,,,,,,,,,,,,,,,,,,,,,-0.02148151,-0.39629621,0,0,0,,,,,,,SAUNA,C,m,y,./images/SAUNA.png,,,,,,,,,,,,,,,,,,,,,m,1,0.8174,,,,,,,,0,33,33,33,1
,,,,,,,,,,,,,,,,,,57,2022-02-12_15h59.55.894,lexical_decision_task_DD_L4,2021.2.3,Win32,59.87306909,,,,,,,,,,,1.2705,0,,,,,,,,,,,,,,,,,,,,,,,,-0.02148151,-0.39629621,0,0,0,,,,,,,PISTOL,LB,m,y,./images/PISTOLLB.png,,,,,,,,,,,,,,,,,,,,,z,0,1.2705,,,,,,,,0,34,34,29,1
,,,,,,,,,,,,,,,,,,57,2022-02-12_15h59.55.894,lexical_decision_task_DD_L4,2021.2.3,Win32,59.87306909,,,,,,,,,,,0.7435,1,,,,,,,,,,,,,,,,,,,,,,,,-0.02148151,-0.39629621,0,0,0,,,,,,,MIDGET,HB,m,y,./images/MIDGETHB.png,,,,,,,,,,,,,,,,,,,,,m,1,0.7435,,,,,,,,0,35,35,76,1
,,,,,,,,,,,,,,,,,,57,2022-02-12_15h59.55.894,lexical_decision_task_DD_L4,2021.2.3,Win32,59.87306909,,,,,,,,,,,0.778,0,,,,,,,,,,,,,,,,,,,,,,,,-0.02148151,-0.39629621,0,0,0,,,,,,,BARREL,LB,z,y,./images/BARRELLB.png,,,,,,,,,,,,,,,,,,,,,m,0,0.778,,,,,,,,0,36,36,116,1
,,,,,,,,,,,,,,,,,,57,2022-02-12_15h59.55.894,lexical_decision_task_DD_L4,2021.2.3,Win32,59.87306909,,,,,,,,,,,0.8373,1,,,,,,,,,,,,,,,,,,,,,,,,-0.02148151,-0.39629621,0,0,0,,,,,,,BUBBLE,LB,m,y,./images/BUBBLELB.png,,,,,,,,,,,,,,,,,,,,,m,1,0.8373,,,,,,,,0,37,37,71,1
,,,,,,,,,,,,,,,,,,57,2022-02-12_15h59.55.894,lexical_decision_task_DD_L4,2021.2.3,Win32,59.87306909,,,,,,,,,,,1.1209,1,,,,,,,,,,,,,,,,,,,,,,,,-0.02148151,-0.39629621,0,0,0,,,,,,,MUFFIN,HB,z,y,./images/MUFFINHB.png,,,,,,,,,,,,,,,,,,,,,z,1,1.1209,,,,,,,,0,38,38,139,1
,,,,,,,,,,,,,,,,,,57,2022-02-12_15h59.55.894,lexical_decision_task_DD_L4,2021.2.3,Win32,59.87306909,,,,,,,,,,,0.8765,1,,,,,,,,,,,,,,,,,,,,,,,,-0.02148151,-0.39629621,0,0,0,,,,,,,PLANET,LB,m,y,./images/PLANETLB.png,,,,,,,,,,,,,,,,,,,,,m,1,0.8765,,,,,,,,0,39,39,80,1
,,,,,,,,,,,,,,,,,,57,2022-02-12_15h59.55.894,lexical_decision_task_DD_L4,2021.2.3,Win32,59.87306909,,,,,,,,,,,0.9516,1,,,,,,,,,,,,,,,,,,,,,,,,-0.02148151,-0.39629621,0,0,0,,,,,,,CRADLE,LB,z,y,./images/CRADLELB.png,,,,,,,,,,,,,,,,,,,,,z,1,0.9516,,,,,,,,0,40,40,104,1
,,,,,,,,,,,,,,,,,,57,2022-02-12_15h59.55.894,lexical_decision_task_DD_L4,2021.2.3,Win32,59.87306909,,,,,,,,,,,0.8501,1,,,,,,,,,,,,,,,,,,,,,,,,-0.02148151,-0.39629621,0,0,0,space,,,,,,FENCE,LB,m,y,./images/FENCELB.png,6.9614,,,,,,,,,,,,,,,,,,,,m,1,0.8501,,,,,,,,0,41,41,14,1
,,,,,,,,,,,,,,,,,,57,2022-02-12_15h59.55.894,lexical_decision_task_DD_L4,2021.2.3,Win32,59.87306909,,,,,,,,,,,0.934,0,,,,,,,,,,,,,,,,,,,,,,,,-0.02148151,-0.39629621,0,0,0,,,,,,,CLOWN,HB,m,y,./images/CLOWNHB.png,,,,,,,,,,,,,,,,,,,,,z,0,0.934,,,,,,,,0,42,42,22,1
,,,,,,,,,,,,,,,,,,57,2022-02-12_15h59.55.894,lexical_decision_task_DD_L4,2021.2.3,Win32,59.87306909,,,,,,,,,,,0.783,1,,,,,,,,,,,,,,,,,,,,,,,,-0.02148151,-0.39629621,0,0,0,,,,,,,DRILL,C,m,y,./images/DRILL.png,,,,,,,,,,,,,,,,,,,,,m,1,0.783,,,,,,,,0,43,43,81,1
,,,,,,,,,,,,,,,,,,57,2022-02-12_15h59.55.894,lexical_decision_task_DD_L4,2021.2.3,Win32,59.87306909,,,,,,,,,,,0.9157,0,,,,,,,,,,,,,,,,,,,,,,,,-0.02148151,-0.39629621,0,0,0,,,,,,,INFANT,HB,z,y,./images/INFANTHB.png,,,,,,,,,,,,,,,,,,,,,m,0,0.9157,,,,,,,,0,44,44,160,1
,,,,,,,,,,,,,,,,,,57,2022-02-12_15h59.55.894,lexical_decision_task_DD_L4,2021.2.3,Win32,59.87306909,,,,,,,,,,,3.1488,1,,,,,,,,,,,,,,,,,,,,,,,,-0.02148151,-0.39629621,0,0,0,,,,,,,STOOL,HB,m,y,./images/STOOLHB.png,,,,,,,,,,,,,,,,,,,,,m,1,3.1488,,,,,,,,0,45,45,43,1
,,,,,,,,,,,,,,,,,,57,2022-02-12_15h59.55.894,lexical_decision_task_DD_L4,2021.2.3,Win32,59.87306909,,,,,,,,,,,0.8675,1,,,,,,,,,,,,,,,,,,,,,,,,-0.02148151,-0.39629621,0,0,0,,,,,,,BLOKE,C,m,y,./images/BLOKE.png,,,,,,,,,,,,,,,,,,,,,m,1,0.8675,,,,,,,,0,46,46,12,1
,,,,,,,,,,,,,,,,,,57,2022-02-12_15h59.55.894,lexical_decision_task_DD_L4,2021.2.3,Win32,59.87306909,,,,,,,,,,,1.1997,0,,,,,,,,,,,,,,,,,,,,,,,,-0.02148151,-0.39629621,0,0,0,,,,,,,FLESH,C,m,y,./images/FLESH.png,,,,,,,,,,,,,,,,,,,,,z,0,1.1997,,,,,,,,0,47,47,24,1
,,,,,,,,,,,,,,,,,,57,2022-02-12_15h59.55.894,lexical_decision_task_DD_L4,2021.2.3,Win32,59.87306909,,,,,,,,,,,0.851,1,,,,,,,,,,,,,,,,,,,,,,,,-0.02148151,-0.39629621,0,0,0,,,,,,,FERRY,C,m,y,./images/FERRY.png,,,,,,,,,,,,,,,,,,,,,m,1,0.851,,,,,,,,0,48,48,57,1
,,,,,,,,,,,,,,,,,,57,2022-02-12_15h59.55.894,lexical_decision_task_DD_L4,2021.2.3,Win32,59.87306909,,,,,,,,,,,0.807,1,,,,,,,,,,,,,,,,,,,,,,,,-0.02148151,-0.39629621,0,0,0,,,,,,,BAKER,C,m,y,./images/BAKER.png,,,,,,,,,,,,,,,,,,,,,m,1,0.807,,,,,,,,0,49,49,63,1
,,,,,,,,,,,,,,,,,,57,2022-02-12_15h59.55.894,lexical_decision_task_DD_L4,2021.2.3,Win32,59.87306909,,,,,,,,,,,0.8936,1,,,,,,,,,,,,,,,,,,,,,,,,-0.02148151,-0.39629621,0,0,0,,,,,,,BUTTER,C,m,y,./images/BUTTER.png,,,,,,,,,,,,,,,,,,,,,m,1,0.8936,,,,,,,,0,50,50,27,1
,,,,,,,,,,,,,,,,,,57,2022-02-12_15h59.55.894,lexical_decision_task_DD_L4,2021.2.3,Win32,59.87306909,,,,,,,,,,,3.5908,1,,,,,,,,,,,,,,,,,,,,,,,,-0.02148151,-0.39629621,0,0,0,,,,,,,ENGINE,LB,m,y,./images/ENGINELB.png,,,,,,,,,,,,,,,,,,,,,m,1,3.5908,,,,,,,,0,51,51,38,1
,,,,,,,,,,,,,,,,,,57,2022-02-12_15h59.55.894,lexical_decision_task_DD_L4,2021.2.3,Win32,59.87306909,,,,,,,,,,,0.8211,1,,,,,,,,,,,,,,,,,,,,,,,,-0.02148151,-0.39629621,0,0,0,,,,,,,WHEEL,LB,m,y,./images/WHEELLB.png,,,,,,,,,,,,,,,,,,,,,m,1,0.8211,,,,,,,,0,52,52,77,1
,,,,,,,,,,,,,,,,,,57,2022-02-12_15h59.55.894,lexical_decision_task_DD_L4,2021.2.3,Win32,59.87306909,,,,,,,,,,,0.7722,1,,,,,,,,,,,,,,,,,,,,,,,,-0.02148151,-0.39629621,0,0,0,,,,,,,MONKEY,C,m,y,./images/MONKEY.png,,,,,,,,,,,,,,,,,,,,,m,1,0.7722,,,,,,,,0,53,53,45,1
,,,,,,,,,,,,,,,,,,57,2022-02-12_15h59.55.894,lexical_decision_task_DD_L4,2021.2.3,Win32,59.87306909,,,,,,,,,,,0.8733,1,,,,,,,,,,,,,,,,,,,,,,,,-0.02148151,-0.39629621,0,0,0,,,,,,,MOOSE,C,z,y,./images/MOOSE.png,,,,,,,,,,,,,,,,,,,,,z,1,0.8733,,,,,,,,0,54,54,141,1
,,,,,,,,,,,,,,,,,,57,2022-02-12_15h59.55.894,lexical_decision_task_DD_L4,2021.2.3,Win32,59.87306909,,,,,,,,,,,0.8339,0,,,,,,,,,,,,,,,,,,,,,,,,-0.02148151,-0.39629621,0,0,0,,,,,,,FALCON,HB,z,y,./images/FALCONHB.png,,,,,,,,,,,,,,,,,,,,,m,0,0.8339,,,,,,,,0,55,55,112,1
,,,,,,,,,,,,,,,,,,57,2022-02-12_15h59.55.894,lexical_decision_task_DD_L4,2021.2.3,Win32,59.87306909,,,,,,,,,,,0.8348,1,,,,,,,,,,,,,,,,,,,,,,,,-0.02148151,-0.39629621,0,0,0,,,,,,,PARCEL,C,m,y,./images/PARCEL.png,,,,,,,,,,,,,,,,,,,,,m,1,0.8348,,,,,,,,0,56,56,18,1
,,,,,,,,,,,,,,,,,,57,2022-02-12_15h59.55.894,lexical_decision_task_DD_L4,2021.2.3,Win32,59.87306909,,,,,,,,,,,0.9227,1,,,,,,,,,,,,,,,,,,,,,,,,-0.02148151,-0.39629621,0,0,0,,,,,,,VALLEY,LB,m,y,./images/VALLEYLB.png,,,,,,,,,,,,,,,,,,,,,m,1,0.9227,,,,,,,,0,57,57,68,1
,,,,,,,,,,,,,,,,,,57,2022-02-12_15h59.55.894,lexical_decision_task_DD_L4,2021.2.3,Win32,59.87306909,,,,,,,,,,,0.9007,1,,,,,,,,,,,,,,,,,,,,,,,,-0.02148151,-0.39629621,0,0,0,,,,,,,ARROW,C,m,y,./images/ARROW.png,,,,,,,,,,,,,,,,,,,,,m,1,0.9007,,,,,,,,0,58,58,69,1
,,,,,,,,,,,,,,,,,,57,2022-02-12_15h59.55.894,lexical_decision_task_DD_L4,2021.2.3,Win32,59.87306909,,,,,,,,,,,1.6091,1,,,,,,,,,,,,,,,,,,,,,,,,-0.02148151,-0.39629621,0,0,0,,,,,,,COUCH,LB,z,y,./images/COUCHLB.png,,,,,,,,,,,,,,,,,,,,,z,1,1.6091,,,,,,,,0,59,59,161,1
,,,,,,,,,,,,,,,,,,57,2022-02-12_15h59.55.894,lexical_decision_task_DD_L4,2021.2.3,Win32,59.87306909,,,,,,,,,,,0.718,1,,,,,,,,,,,,,,,,,,,,,,,,-0.02148151,-0.39629621,0,0,0,,,,,,,CANDY,C,m,y,./images/CANDY.png,,,,,,,,,,,,,,,,,,,,,m,1,0.718,,,,,,,,0,60,60,39,1
,,,,,,,,,,,,,,,,,,57,2022-02-12_15h59.55.894,lexical_decision_task_DD_L4,2021.2.3,Win32,59.87306909,,,,,,,,,,,2.7326,1,,,,,,,,,,,,,,,,,,,,,,,,-0.02148151,-0.39629621,0,0,0,,,,,,,TRIPOD,C,z,y,./images/TRIPOD.png,,,,,,,,,,,,,,,,,,,,,z,1,2.7326,,,,,,,,0,61,61,138,1
,,,,,,,,,,,,,,,,,,57,2022-02-12_15h59.55.894,lexical_decision_task_DD_L4,2021.2.3,Win32,59.87306909,,,,,,,,,,,1.0536,0,,,,,,,,,,,,,,,,,,,,,,,,-0.02148151,-0.39629621,0,0,0,,,,,,,GRAPE,HB,m,y,./images/GRAPEHB.png,,,,,,,,,,,,,,,,,,,,,z,0,1.0536,,,,,,,,0,62,62,16,1
,,,,,,,,,,,,,,,,,,57,2022-02-12_15h59.55.894,lexical_decision_task_DD_L4,2021.2.3,Win32,59.87306909,,,,,,,,,,,1.051,1,,,,,,,,,,,,,,,,,,,,,,,,-0.02148151,-0.39629621,0,0,0,,,,,,,WRIST,HB,z,y,./images/WRISTHB.png,,,,,,,,,,,,,,,,,,,,,z,1,1.051,,,,,,,,0,63,63,109,1
,,,,,,,,,,,,,,,,,,57,2022-02-12_15h59.55.894,lexical_decision_task_DD_L4,2021.2.3,Win32,59.87306909,,,,,,,,,,,1.3199,0,,,,,,,,,,,,,,,,,,,,,,,,-0.02148151,-0.39629621,0,0,0,,,,,,,BOILER,C,m,y,./images/BOILER.png,,,,,,,,,,,,,,,,,,,,,z,0,1.3199,,,,,,,,0,64,64,36,1
,,,,,,,,,,,,,,,,,,57,2022-02-12_15h59.55.894,lexical_decision_task_DD_L4,2021.2.3,Win32,59.87306909,,,,,,,,,,,0.6871,0,,,,,,,,,,,,,,,,,,,,,,,,-0.02148151,-0.39629621,0,0,0,,,,,,,BABOON,HB,z,y,./images/BABOONHB.png,,,,,,,,,,,,,,,,,,,,,m,0,0.6871,,,,,,,,0,65,65,142,1
,,,,,,,,,,,,,,,,,,57,2022-02-12_15h59.55.894,lexical_decision_task_DD_L4,2021.2.3,Win32,59.87306909,,,,,,,,,,,0.9609,1,,,,,,,,,,,,,,,,,,,,,,,,-0.02148151,-0.39629621,0,0,0,,,,,,,TOMATO,C,z,y,./images/TOMATO.png,,,,,,,,,,,,,,,,,,,,,z,1,0.9609,,,,,,,,0,66,66,84,1
,,,,,,,,,,,,,,,,,,57,2022-02-12_15h59.55.894,lexical_decision_task_DD_L4,2021.2.3,Win32,59.87306909,,,,,,,,,,,0.7508,1,,,,,,,,,,,,,,,,,,,,,,,,-0.02148151,-0.39629621,0,0,0,,,,,,,BOXER,HB,m,y,./images/BOXERHB.png,,,,,,,,,,,,,,,,,,,,,m,1,0.7508,,,,,,,,0,67,67,4,1
,,,,,,,,,,,,,,,,,,57,2022-02-12_15h59.55.894,lexical_decision_task_DD_L4,2021.2.3,Win32,59.87306909,,,,,,,,,,,0.9582,0,,,,,,,,,,,,,,,,,,,,,,,,-0.02148151,-0.39629621,0,0,0,,,,,,,CLOTH,LB,m,y,./images/CLOTHLB.png,,,,,,,,,,,,,,,,,,,,,z,0,0.9582,,,,,,,,0,68,68,23,1
,,,,,,,,,,,,,,,,,,57,2022-02-12_15h59.55.894,lexical_decision_task_DD_L4,2021.2.3,Win32,59.87306909,,,,,,,,,,,0.7343,1,,,,,,,,,,,,,,,,,,,,,,,,-0.02148151,-0.39629621,0,0,0,,,,,,,CLOUD,LB,m,y,./images/CLOUDLB.png,,,,,,,,,,,,,,,,,,,,,m,1,0.7343,,,,,,,,0,69,69,26,1
,,,,,,,,,,,,,,,,,,57,2022-02-12_15h59.55.894,lexical_decision_task_DD_L4,2021.2.3,Win32,59.87306909,,,,,,,,,,,0.9673,1,,,,,,,,,,,,,,,,,,,,,,,,-0.02148151,-0.39629621,0,0,0,,,,,,,SPINE,LB,m,y,./images/SPINELB.png,,,,,,,,,,,,,,,,,,,,,m,1,0.9673,,,,,,,,0,70,70,65,1
,,,,,,,,,,,,,,,,,,57,2022-02-12_15h59.55.894,lexical_decision_task_DD_L4,2021.2.3,Win32,59.87306909,,,,,,,,,,,0.9021,1,,,,,,,,,,,,,,,,,,,,,,,,-0.02148151,-0.39629621,0,0,0,,,,,,,SMOKER,LB,z,y,./images/SMOKERLB.png,,,,,,,,,,,,,,,,,,,,,z,1,0.9021,,,,,,,,0,71,71,110,1
,,,,,,,,,,,,,,,,,,57,2022-02-12_15h59.55.894,lexical_decision_task_DD_L4,2021.2.3,Win32,59.87306909,,,,,,,,,,,0.875,1,,,,,,,,,,,,,,,,,,,,,,,,-0.02148151,-0.39629621,0,0,0,,,,,,,DONKEY,HB,m,y,./images/DONKEYHB.png,,,,,,,,,,,,,,,,,,,,,m,1,0.875,,,,,,,,0,72,72,19,1
,,,,,,,,,,,,,,,,,,57,2022-02-12_15h59.55.894,lexical_decision_task_DD_L4,2021.2.3,Win32,59.87306909,,,,,,,,,,,0.822,1,,,,,,,,,,,,,,,,,,,,,,,,-0.02148151,-0.39629621,0,0,0,,,,,,,STATUE,C,m,y,./images/STATUE.png,,,,,,,,,,,,,,,,,,,,,m,1,0.822,,,,,,,,0,73,73,66,1
,,,,,,,,,,,,,,,,,,57,2022-02-12_15h59.55.894,lexical_decision_task_DD_L4,2021.2.3,Win32,59.87306909,,,,,,,,,,,2.3098,1,,,,,,,,,,,,,,,,,,,,,,,,-0.02148151,-0.39629621,0,0,0,,,,,,,BRIDE,HB,m,y,./images/BRIDEHB.png,,,,,,,,,,,,,,,,,,,,,m,1,2.3098,,,,,,,,0,74,74,64,1
,,,,,,,,,,,,,,,,,,57,2022-02-12_15h59.55.894,lexical_decision_task_DD_L4,2021.2.3,Win32,59.87306909,,,,,,,,,,,0.8549,1,,,,,,,,,,,,,,,,,,,,,,,,-0.02148151,-0.39629621,0,0,0,,,,,,,ONION,C,z,y,./images/ONION.png,,,,,,,,,,,,,,,,,,,,,z,1,0.8549,,,,,,,,0,75,75,135,1
,,,,,,,,,,,,,,,,,,57,2022-02-12_15h59.55.894,lexical_decision_task_DD_L4,2021.2.3,Win32,59.87306909,,,,,,,,,,,1.2025,1,,,,,,,,,,,,,,,,,,,,,,,,-0.02148151,-0.39629621,0,0,0,,,,,,,CHAIN,C,m,y,./images/CHAIN.png,,,,,,,,,,,,,,,,,,,,,m,1,1.2025,,,,,,,,0,76,76,42,1
,,,,,,,,,,,,,,,,,,57,2022-02-12_15h59.55.894,lexical_decision_task_DD_L4,2021.2.3,Win32,59.87306909,,,,,,,,,,,0.9992,1,,,,,,,,,,,,,,,,,,,,,,,,-0.02148151,-0.39629621,0,0,0,,,,,,,PARADE,LB,m,y,./images/PARADELB.png,,,,,,,,,,,,,,,,,,,,,m,1,0.9992,,,,,,,,0,77,77,17,1
,,,,,,,,,,,,,,,,,,57,2022-02-12_15h59.55.894,lexical_decision_task_DD_L4,2021.2.3,Win32,59.87306909,,,,,,,,,,,1.3843,0,,,,,,,,,,,,,,,,,,,,,,,,-0.02148151,-0.39629621,0,0,0,,,,,,,POODLE,C,z,y,./images/POODLE.png,,,,,,,,,,,,,,,,,,,,,m,0,1.3843,,,,,,,,0,78,78,165,1
,,,,,,,,,,,,,,,,,,57,2022-02-12_15h59.55.894,lexical_decision_task_DD_L4,2021.2.3,Win32,59.87306909,,,,,,,,,,,1.0866,1,,,,,,,,,,,,,,,,,,,,,,,,-0.02148151,-0.39629621,0,0,0,,,,,,,MUSCLE,HB,z,y,./images/MUSCLEHB.png,,,,,,,,,,,,,,,,,,,,,z,1,1.0866,,,,,,,,0,79,79,88,1
,,,,,,,,,,,,,,,,,,57,2022-02-12_15h59.55.894,lexical_decision_task_DD_L4,2021.2.3,Win32,59.87306909,,,,,,,,,,,1.034,1,,,,,,,,,,,,,,,,,,,,,,,,-0.02148151,-0.39629621,0,0,0,,,,,,,SKIING,LB,z,y,./images/SKIINGLB.png,,,,,,,,,,,,,,,,,,,,,z,1,1.034,,,,,,,,0,80,80,101,1
,,,,,,,,,,,,,,,,,,57,2022-02-12_15h59.55.894,lexical_decision_task_DD_L4,2021.2.3,Win32,59.87306909,,,,,,,,,,,4.182,1,,,,,,,,,,,,,,,,,,,,,,,,-0.02148151,-0.39629621,0,0,0,,,,,,,SNAKE,HB,m,y,./images/SNAKEHB.png,,,,,,,,,,,,,,,,,,,,,m,1,4.182,,,,,,,,0,81,81,40,1
,,,,,,,,,,,,,,,,,,57,2022-02-12_15h59.55.894,lexical_decision_task_DD_L4,2021.2.3,Win32,59.87306909,,,,,,,,,,,0.7845,1,,,,,,,,,,,,,,,,,,,,,,,,-0.02148151,-0.39629621,0,0,0,,,,,,,POSTER,LB,m,y,./images/POSTERLB.png,,,,,,,,,,,,,,,,,,,,,m,1,0.7845,,,,,,,,0,82,82,53,1
,,,,,,,,,,,,,,,,,,57,2022-02-12_15h59.55.894,lexical_decision_task_DD_L4,2021.2.3,Win32,59.87306909,,,,,,,,,,,0.8184,0,,,,,,,,,,,,,,,,,,,,,,,,-0.02148151,-0.39629621,0,0,0,space,,,,,,LIZARD,LB,z,y,./images/LIZARDLB.png,1.9999,,,,,,,,,,,,,,,,,,,,m,0,0.8184,,,,,,,,0,83,83,128,1
,,,,,,,,,,,,,,,,,,57,2022-02-12_15h59.55.894,lexical_decision_task_DD_L4,2021.2.3,Win32,59.87306909,,,,,,,,,,,1.2763,1,,,,,,,,,,,,,,,,,,,,,,,,-0.02148151,-0.39629621,0,0,0,,,,,,,STRING,LB,z,y,./images/STRINGLB.png,,,,,,,,,,,,,,,,,,,,,z,1,1.2763,,,,,,,,0,84,84,125,1
,,,,,,,,,,,,,,,,,,57,2022-02-12_15h59.55.894,lexical_decision_task_DD_L4,2021.2.3,Win32,59.87306909,,,,,,,,,,,2.8748,1,,,,,,,,,,,,,,,,,,,,,,,,-0.02148151,-0.39629621,0,0,0,,,,,,,COLLAR,C,m,y,./images/COLLAR.png,,,,,,,,,,,,,,,,,,,,,m,1,2.8748,,,,,,,,0,85,85,15,1
,,,,,,,,,,,,,,,,,,57,2022-02-12_15h59.55.894,lexical_decision_task_DD_L4,2021.2.3,Win32,59.87306909,,,,,,,,,,,1.738,1,,,,,,,,,,,,,,,,,,,,,,,,-0.02148151,-0.39629621,0,0,0,,,,,,,PICKLE,LB,z,y,./images/PICKLELB.png,,,,,,,,,,,,,,,,,,,,,z,1,1.738,,,,,,,,0,86,86,98,1
,,,,,,,,,,,,,,,,,,57,2022-02-12_15h59.55.894,lexical_decision_task_DD_L4,2021.2.3,Win32,59.87306909,,,,,,,,,,,0.8199,0,,,,,,,,,,,,,,,,,,,,,,,,-0.02148151,-0.39629621,0,0,0,,,,,,,CHERRY,C,m,y,./images/CHERRY.png,,,,,,,,,,,,,,,,,,,,,z,0,0.8199,,,,,,,,0,87,87,54,1
,,,,,,,,,,,,,,,,,,57,2022-02-12_15h59.55.894,lexical_decision_task_DD_L4,2021.2.3,Win32,59.87306909,,,,,,,,,,,0.9053,1,,,,,,,,,,,,,,,,,,,,,,,,-0.02148151,-0.39629621,0,0,0,,,,,,,MAGGOT,C,z,y,./images/MAGGOT.png,,,,,,,,,,,,,,,,,,,,,z,1,0.9053,,,,,,,,0,88,88,117,1
,,,,,,,,,,,,,,,,,,57,2022-02-12_15h59.55.894,lexical_decision_task_DD_L4,2021.2.3,Win32,59.87306909,,,,,,,,,,,2.6572,1,,,,,,,,,,,,,,,,,,,,,,,,-0.02148151,-0.39629621,0,0,0,,,,,,,FINGER,C,z,y,./images/FINGER.png,,,,,,,,,,,,,,,,,,,,,z,1,2.6572,,,,,,,,0,89,89,87,1
,,,,,,,,,,,,,,,,,,57,2022-02-12_15h59.55.894,lexical_decision_task_DD_L4,2021.2.3,Win32,59.87306909,,,,,,,,,,,0.7375,0,,,,,,,,,,,,,,,,,,,,,,,,-0.02148151,-0.39629621,0,0,0,,,,,,,ATTIC,C,z,y,./images/ATTIC.png,,,,,,,,,,,,,,,,,,,,,m,0,0.7375,,,,,,,,0,90,90,111,1
,,,,,,,,,,,,,,,,,,57,2022-02-12_15h59.55.894,lexical_decision_task_DD_L4,2021.2.3,Win32,59.87306909,,,,,,,,,,,1.0414,1,,,,,,,,,,,,,,,,,,,,,,,,-0.02148151,-0.39629621,0,0,0,,,,,,,WEASEL,LB,z,y,./images/WEASELLB.png,,,,,,,,,,,,,,,,,,,,,z,1,1.0414,,,,,,,,0,91,91,164,1
,,,,,,,,,,,,,,,,,,57,2022-02-12_15h59.55.894,lexical_decision_task_DD_L4,2021.2.3,Win32,59.87306909,,,,,,,,,,,1.7926,1,,,,,,,,,,,,,,,,,,,,,,,,-0.02148151,-0.39629621,0,0,0,,,,,,,BIRTH,HB,z,y,./images/BIRTHHB.png,,,,,,,,,,,,,,,,,,,,,z,1,1.7926,,,,,,,,0,92,92,121,1
,,,,,,,,,,,,,,,,,,57,2022-02-12_15h59.55.894,lexical_decision_task_DD_L4,2021.2.3,Win32,59.87306909,,,,,,,,,,,0.7573,1,,,,,,,,,,,,,,,,,,,,,,,,-0.02148151,-0.39629621,0,0,0,,,,,,,BISHOP,HB,m,y,./images/BISHOPHB.png,,,,,,,,,,,,,,,,,,,,,m,1,0.7573,,,,,,,,0,93,93,49,1
,,,,,,,,,,,,,,,,,,57,2022-02-12_15h59.55.894,lexical_decision_task_DD_L4,2021.2.3,Win32,59.87306909,,,,,,,,,,,3.1652,1,,,,,,,,,,,,,,,,,,,,,,,,-0.02148151,-0.39629621,0,0,0,,,,,,,PEACH,LB,z,y,./images/PEACHLB.png,,,,,,,,,,,,,,,,,,,,,z,1,3.1652,,,,,,,,0,94,94,119,1
,,,,,,,,,,,,,,,,,,57,2022-02-12_15h59.55.894,lexical_decision_task_DD_L4,2021.2.3,Win32,59.87306909,,,,,,,,,,,0.6677,1,,,,,,,,,,,,,,,,,,,,,,,,-0.02148151,-0.39629621,0,0,0,,,,,,,JUMPER,LB,m,y,./images/JUMPERLB.png,,,,,,,,,,,,,,,,,,,,,m,1,0.6677,,,,,,,,0,95,95,74,1
,,,,,,,,,,,,,,,,,,57,2022-02-12_15h59.55.894,lexical_decision_task_DD_L4,2021.2.3,Win32,59.87306909,,,,,,,,,,,0.8697,1,,,,,,,,,,,,,,,,,,,,,,,,-0.02148151,-0.39629621,0,0,0,,,,,,,SLOPE,C,m,y,./images/SLOPE.png,,,,,,,,,,,,,,,,,,,,,m,1,0.8697,,,,,,,,0,96,96,30,1
,,,,,,,,,,,,,,,,,,57,2022-02-12_15h59.55.894,lexical_decision_task_DD_L4,2021.2.3,Win32,59.87306909,,,,,,,,,,,1.0114,1,,,,,,,,,,,,,,,,,,,,,,,,-0.02148151,-0.39629621,0,0,0,,,,,,,PILOT,LB,m,y,./images/PILOTLB.png,,,,,,,,,,,,,,,,,,,,,m,1,1.0114,,,,,,,,0,97,97,50,1
,,,,,,,,,,,,,,,,,,57,2022-02-12_15h59.55.894,lexical_decision_task_DD_L4,2021.2.3,Win32,59.87306909,,,,,,,,,,,0.8271,1,,,,,,,,,,,,,,,,,,,,,,,,-0.02148151,-0.39629621,0,0,0,,,,,,,GLOVE,HB,m,y,./images/GLOVEHB.png,,,,,,,,,,,,,,,,,,,,,m,1,0.8271,,,,,,,,0,98,98,73,1
,,,,,,,,,,,,,,,,,,57,2022-02-12_15h59.55.894,lexical_decision_task_DD_L4,2021.2.3,Win32,59.87306909,,,,,,,,,,,1.2531,1,,,,,,,,,,,,,,,,,,,,,,,,-0.02148151,-0.39629621,0,0,0,,,,,,,MOTOR,HB,z,y,./images/MOTORHB.png,,,,,,,,,,,,,,,,,,,,,z,1,1.2531,,,,,,,,0,99,99,97,1
,,,,,,,,,,,,,,,,,,57,2022-02-12_15h59.55.894,lexical_decision_task_DD_L4,2021.2.3,Win32,59.87306909,,,,,,,,,,,0.7339,1,,,,,,,,,,,,,,,,,,,,,,,,-0.02148151,-0.39629621,0,0,0,,,,,,,DANCER,C,m,y,./images/DANCER.png,,,,,,,,,,,,,,,,,,,,,m,1,0.7339,,,,,,,,0,100,100,21,1
,,,,,,,,,,,,,,,,,,57,2022-02-12_15h59.55.894,lexical_decision_task_DD_L4,2021.2.3,Win32,59.87306909,,,,,,,,,,,0.9162,1,,,,,,,,,,,,,,,,,,,,,,,,-0.02148151,-0.39629621,0,0,0,,,,,,,TULIP,LB,z,y,./images/TULIPLB.png,,,,,,,,,,,,,,,,,,,,,z,1,0.9162,,,,,,,,0,101,101,92,1
,,,,,,,,,,,,,,,,,,57,2022-02-12_15h59.55.894,lexical_decision_task_DD_L4,2021.2.3,Win32,59.87306909,,,,,,,,,,,0.9744,0,,,,,,,,,,,,,,,,,,,,,,,,-0.02148151,-0.39629621,0,0,0,,,,,,,CRUMB,LB,z,y,./images/CRUMBLB.png,,,,,,,,,,,,,,,,,,,,,m,0,0.9744,,,,,,,,0,102,102,113,1
,,,,,,,,,,,,,,,,,,57,2022-02-12_15h59.55.894,lexical_decision_task_DD_L4,2021.2.3,Win32,59.87306909,,,,,,,,,,,1.3242,1,,,,,,,,,,,,,,,,,,,,,,,,-0.02148151,-0.39629621,0,0,0,,,,,,,GRANNY,LB,m,y,./images/GRANNYLB.png,,,,,,,,,,,,,,,,,,,,,m,1,1.3242,,,,,,,,0,103,103,20,1
,,,,,,,,,,,,,,,,,,57,2022-02-12_15h59.55.894,lexical_decision_task_DD_L4,2021.2.3,Win32,59.87306909,,,,,,,,,,,0.759,1,,,,,,,,,,,,,,,,,,,,,,,,-0.02148151,-0.39629621,0,0,0,,,,,,,DIVER,C,m,y,./images/DIVER.png,,,,,,,,,,,,,,,,,,,,,m,1,0.759,,,,,,,,0,104,104,9,1
,,,,,,,,,,,,,,,,,,57,2022-02-12_15h59.55.894,lexical_decision_task_DD_L4,2021.2.3,Win32,59.87306909,,,,,,,,,,,0.8394,0,,,,,,,,,,,,,,,,,,,,,,,,-0.02148151,-0.39629621,0,0,0,,,,,,,MIRROR,C,z,y,./images/MIRROR.png,,,,,,,,,,,,,,,,,,,,,m,0,0.8394,,,,,,,,0,105,105,147,1
,,,,,,,,,,,,,,,,,,57,2022-02-12_15h59.55.894,lexical_decision_task_DD_L4,2021.2.3,Win32,59.87306909,,,,,,,,,,,0.9232,1,,,,,,,,,,,,,,,,,,,,,,,,-0.02148151,-0.39629621,0,0,0,,,,,,,MOSQUE,HB,z,y,./images/MOSQUEHB.png,,,,,,,,,,,,,,,,,,,,,z,1,0.9232,,,,,,,,0,106,106,127,1
,,,,,,,,,,,,,,,,,,57,2022-02-12_15h59.55.894,lexical_decision_task_DD_L4,2021.2.3,Win32,59.87306909,,,,,,,,,,,0.793,1,,,,,,,,,,,,,,,,,,,,,,,,-0.02148151,-0.39629621,0,0,0,,,,,,,CLIFF,LB,m,y,./images/CLIFFLB.png,,,,,,,,,,,,,,,,,,,,,m,1,0.793,,,,,,,,0,107,107,8,1
,,,,,,,,,,,,,,,,,,57,2022-02-12_15h59.55.894,lexical_decision_task_DD_L4,2021.2.3,Win32,59.87306909,,,,,,,,,,,0.8889,1,,,,,,,,,,,,,,,,,,,,,,,,-0.02148151,-0.39629621,0,0,0,,,,,,,JELLY,HB,z,y,./images/JELLYHB.png,,,,,,,,,,,,,,,,,,,,,z,1,0.8889,,,,,,,,0,108,108,148,1
,,,,,,,,,,,,,,,,,,57,2022-02-12_15h59.55.894,lexical_decision_task_DD_L4,2021.2.3,Win32,59.87306909,,,,,,,,,,,0.8568,1,,,,,,,,,,,,,,,,,,,,,,,,-0.02148151,-0.39629621,0,0,0,,,,,,,FLASK,C,m,y,./images/FLASK.png,,,,,,,,,,,,,,,,,,,,,m,1,0.8568,,,,,,,,0,109,109,72,1
,,,,,,,,,,,,,,,,,,57,2022-02-12_15h59.55.894,lexical_decision_task_DD_L4,2021.2.3,Win32,59.87306909,,,,,,,,,,,1.008,1,,,,,,,,,,,,,,,,,,,,,,,,-0.02148151,-0.39629621,0,0,0,,,,,,,GREASE,C,z,y,./images/GREASE.png,,,,,,,,,,,,,,,,,,,,,z,1,1.008,,,,,,,,0,110,110,99,1
,,,,,,,,,,,,,,,,,,57,2022-02-12_15h59.55.894,lexical_decision_task_DD_L4,2021.2.3,Win32,59.87306909,,,,,,,,,,,1.3335,0,,,,,,,,,,,,,,,,,,,,,,,,-0.02148151,-0.39629621,0,0,0,,,,,,,DRUMS,HB,z,y,./images/DRUMSHB.png,,,,,,,,,,,,,,,,,,,,,m,0,1.3335,,,,,,,,0,111,111,133,1
,,,,,,,,,,,,,,,,,,57,2022-02-12_15h59.55.894,lexical_decision_task_DD_L4,2021.2.3,Win32,59.87306909,,,,,,,,,,,0.8691,1,,,,,,,,,,,,,,,,,,,,,,,,-0.02148151,-0.39629621,0,0,0,,,,,,,SAILOR,HB,z,y,./images/SAILORHB.png,,,,,,,,,,,,,,,,,,,,,z,1,0.8691,,,,,,,,0,112,112,151,1
,,,,,,,,,,,,,,,,,,57,2022-02-12_15h59.55.894,lexical_decision_task_DD_L4,2021.2.3,Win32,59.87306909,,,,,,,,,,,0.7089,1,,,,,,,,,,,,,,,,,,,,,,,,-0.02148151,-0.39629621,0,0,0,,,,,,,PAINT,HB,z,y,./images/PAINTHB.png,,,,,,,,,,,,,,,,,,,,,z,1,0.7089,,,,,,,,0,113,113,91,1
,,,,,,,,,,,,,,,,,,57,2022-02-12_15h59.55.894,lexical_decision_task_DD_L4,2021.2.3,Win32,59.87306909,,,,,,,,,,,1.652,1,,,,,,,,,,,,,,,,,,,,,,,,-0.02148151,-0.39629621,0,0,0,,,,,,,PASTA,LB,z,y,./images/PASTALB.png,,,,,,,,,,,,,,,,,,,,,z,1,1.652,,,,,,,,0,114,114,89,1
,,,,,,,,,,,,,,,,,,57,2022-02-12_15h59.55.894,lexical_decision_task_DD_L4,2021.2.3,Win32,59.87306909,,,,,,,,,,,0.9514,1,,,,,,,,,,,,,,,,,,,,,,,,-0.02148151,-0.39629621,0,0,0,,,,,,,MALLET,LB,z,y,./images/MALLETLB.png,,,,,,,,,,,,,,,,,,,,,z,1,0.9514,,,,,,,,0,115,115,134,1
,,,,,,,,,,,,,,,,,,57,2022-02-12_15h59.55.894,lexical_decision_task_DD_L4,2021.2.3,Win32,59.87306909,,,,,,,,,,,0.7563,1,,,,,,,,,,,,,,,,,,,,,,,,-0.02148151,-0.39629621,0,0,0,,,,,,,SPORT,C,z,y,./images/SPORT.png,,,,,,,,,,,,,,,,,,,,,z,1,0.7563,,,,,,,,0,116,116,132,1
,,,,,,,,,,,,,,,,,,57,2022-02-12_15h59.55.894,lexical_decision_task_DD_L4,2021.2.3,Win32,59.87306909,,,,,,,,,,,1.9339,0,,,,,,,,,,,,,,,,,,,,,,,,-0.02148151,-0.39629621,0,0,0,,,,,,,PACKET,LB,z,y,./images/PACKETLB.png,,,,,,,,,,,,,,,,,,,,,m,0,1.9339,,,,,,,,0,117,117,140,1
,,,,,,,,,,,,,,,,,,57,2022-02-12_15h59.55.894,lexical_decision_task_DD_L4,2021.2.3,Win32,59.87306909,,,,,,,,,,,0.9174,1,,,,,,,,,,,,,,,,,,,,,,,,-0.02148151,-0.39629621,0,0,0,,,,,,,SWING,HB,z,y,./images/SWINGHB.png,,,,,,,,,,,,,,,,,,,,,z,1,0.9174,,,,,,,,0,118,118,124,1
,,,,,,,,,,,,,,,,,,57,2022-02-12_15h59.55.894,lexical_decision_task_DD_L4,2021.2.3,Win32,59.87306909,,,,,,,,,,,1.3405,1,,,,,,,,,,,,,,,,,,,,,,,,-0.02148151,-0.39629621,0,0,0,,,,,,,WALRUS,LB,z,y,./images/WALRUSLB.png,,,,,,,,,,,,,,,,,,,,,z,1,1.3405,,,,,,,,0,119,119,107,1
,,,,,,,,,,,,,,,,,,57,2022-02-12_15h59.55.894,lexical_decision_task_DD_L4,2021.2.3,Win32,59.87306909,,,,,,,,,,,0.8845,0,,,,,,,,,,,,,,,,,,,,,,,,-0.02148151,-0.39629621,0,0,0,,,,,,,GARDEN,HB,m,y,./images/GARDENHB.png,,,,,,,,,,,,,,,,,,,,,z,0,0.8845,,,,,,,,0,120,120,10,1
,,,,,,,,,,,,,,,,,,57,2022-02-12_15h59.55.894,lexical_decision_task_DD_L4,2021.2.3,Win32,59.87306909,,,,,,,,,,,0.7606,1,,,,,,,,,,,,,,,,,,,,,,,,-0.02148151,-0.39629621,0,0,0,,,,,,,BANANA,HB,m,y,./images/BANANAHB.png,,,,,,,,,,,,,,,,,,,,,m,1,0.7606,,,,,,,,0,121,121,70,1
,,,,,,,,,,,,,,,,,,57,2022-02-12_15h59.55.894,lexical_decision_task_DD_L4,2021.2.3,Win32,59.87306909,,,,,,,,,,,1.649,1,,,,,,,,,,,,,,,,,,,,,,,,-0.02148151,-0.39629621,0,0,0,,,,,,,PEARL,HB,z,y,./images/PEARLHB.png,,,,,,,,,,,,,,,,,,,,,z,1,1.649,,,,,,,,0,122,122,130,1
,,,,,,,,,,,,,,,,,,57,2022-02-12_15h59.55.894,lexical_decision_task_DD_L4,2021.2.3,Win32,59.87306909,,,,,,,,,,,0.9715,1,,,,,,,,,,,,,,,,,,,,,,,,-0.02148151,-0.39629621,0,0,0,,,,,,,BURIAL,LB,z,y,./images/BURIALLB.png,,,,,,,,,,,,,,,,,,,,,z,1,0.9715,,,,,,,,0,123,123,143,1
,,,,,,,,,,,,,,,,,,57,2022-02-12_15h59.55.894,lexical_decision_task_DD_L4,2021.2.3,Win32,59.87306909,,,,,,,,,,,0.8006,1,,,,,,,,,,,,,,,,,,,,,,,,-0.02148151,-0.39629621,0,0,0,,,,,,,BAMBOO,LB,m,y,./images/BAMBOOLB.png,,,,,,,,,,,,,,,,,,,,,m,1,0.8006,,,,,,,,0,124,124,5,1
,,,,,,,,,,,,,,,,,,57,2022-02-12_15h59.55.894,lexical_decision_task_DD_L4,2021.2.3,Win32,59.87306909,,,,,,,,,,,1.5759,1,,,,,,,,,,,,,,,,,,,,,,,,-0.02148151,-0.39629621,0,0,0,space,,,,,,PIMPLE,LB,z,y,./images/PIMPLELB.png,8.4159,,,,,,,,,,,,,,,,,,,,z,1,1.5759,,,,,,,,0,125,125,155,1
,,,,,,,,,,,,,,,,,,57,2022-02-12_15h59.55.894,lexical_decision_task_DD_L4,2021.2.3,Win32,59.87306909,,,,,,,,,,,1.3933,1,,,,,,,,,,,,,,,,,,,,,,,,-0.02148151,-0.39629621,0,0,0,,,,,,,MELON,HB,z,y,./images/MELONHB.png,,,,,,,,,,,,,,,,,,,,,z,1,1.3933,,,,,,,,0,126,126,106,1
,,,,,,,,,,,,,,,,,,57,2022-02-12_15h59.55.894,lexical_decision_task_DD_L4,2021.2.3,Win32,59.87306909,,,,,,,,,,,0.7715,1,,,,,,,,,,,,,,,,,,,,,,,,-0.02148151,-0.39629621,0,0,0,,,,,,,BROOM,C,m,y,./images/BROOM.png,,,,,,,,,,,,,,,,,,,,,m,1,0.7715,,,,,,,,0,127,127,78,1
,,,,,,,,,,,,,,,,,,57,2022-02-12_15h59.55.894,lexical_decision_task_DD_L4,2021.2.3,Win32,59.87306909,,,,,,,,,,,0.7346,1,,,,,,,,,,,,,,,,,,,,,,,,-0.02148151,-0.39629621,0,0,0,,,,,,,SAUCE,C,m,y,./images/SAUCE.png,,,,,,,,,,,,,,,,,,,,,m,1,0.7346,,,,,,,,0,128,128,51,1
,,,,,,,,,,,,,,,,,,57,2022-02-12_15h59.55.894,lexical_decision_task_DD_L4,2021.2.3,Win32,59.87306909,,,,,,,,,,,0.87,1,,,,,,,,,,,,,,,,,,,,,,,,-0.02148151,-0.39629621,0,0,0,,,,,,,TWINS,C,z,y,./images/TWINS.png,,,,,,,,,,,,,,,,,,,,,z,1,0.87,,,,,,,,0,129,129,144,1
,,,,,,,,,,,,,,,,,,57,2022-02-12_15h59.55.894,lexical_decision_task_DD_L4,2021.2.3,Win32,59.87306909,,,,,,,,,,,1.0431,1,,,,,,,,,,,,,,,,,,,,,,,,-0.02148151,-0.39629621,0,0,0,,,,,,,JAGUAR,C,z,y,./images/JAGUAR.png,,,,,,,,,,,,,,,,,,,,,z,1,1.0431,,,,,,,,0,130,130,102,1
,,,,,,,,,,,,,,,,,,57,2022-02-12_15h59.55.894,lexical_decision_task_DD_L4,2021.2.3,Win32,59.87306909,,,,,,,,,,,0.8931,1,,,,,,,,,,,,,,,,,,,,,,,,-0.02148151,-0.39629621,0,0,0,,,,,,,URINE,HB,z,y,./images/URINEHB.png,,,,,,,,,,,,,,,,,,,,,z,1,0.8931,,,,,,,,0,131,131,154,1
,,,,,,,,,,,,,,,,,,57,2022-02-12_15h59.55.894,lexical_decision_task_DD_L4,2021.2.3,Win32,59.87306909,,,,,,,,,,,2.781,1,,,,,,,,,,,,,,,,,,,,,,,,-0.02148151,-0.39629621,0,0,0,,,,,,,CRATER,C,m,y,./images/CRATER.png,,,,,,,,,,,,,,,,,,,,,m,1,2.781,,,,,,,,0,132,132,3,1
,,,,,,,,,,,,,,,,,,57,2022-02-12_15h59.55.894,lexical_decision_task_DD_L4,2021.2.3,Win32,59.87306909,,,,,,,,,,,0.6836,1,,,,,,,,,,,,,,,,,,,,,,,,-0.02148151,-0.39629621,0,0,0,,,,,,,TIGER,HB,m,y,./images/TIGERHB.png,,,,,,,,,,,,,,,,,,,,,m,1,0.6836,,,,,,,,0,133,133,37,1
,,,,,,,,,,,,,,,,,,57,2022-02-12_15h59.55.894,lexical_decision_task_DD_L4,2021.2.3,Win32,59.87306909,,,,,,,,,,,1.4695,1,,,,,,,,,,,,,,,,,,,,,,,,-0.02148151,-0.39629621,0,0,0,,,,,,,CARPET,LB,z,y,./images/CARPETLB.png,,,,,,,,,,,,,,,,,,,,,z,1,1.4695,,,,,,,,0,134,134,137,1
,,,,,,,,,,,,,,,,,,57,2022-02-12_15h59.55.894,lexical_decision_task_DD_L4,2021.2.3,Win32,59.87306909,,,,,,,,,,,0.7559,1,,,,,,,,,,,,,,,,,,,,,,,,-0.02148151,-0.39629621,0,0,0,,,,,,,POKER,HB,m,y,./images/POKERHB.png,,,,,,,,,,,,,,,,,,,,,m,1,0.7559,,,,,,,,0,135,135,67,1
,,,,,,,,,,,,,,,,,,57,2022-02-12_15h59.55.894,lexical_decision_task_DD_L4,2021.2.3,Win32,59.87306909,,,,,,,,,,,1.7495,1,,,,,,,,,,,,,,,,,,,,,,,,-0.02148151,-0.39629621,0,0,0,,,,,,,GRAIN,C,z,y,./images/GRAIN.png,,,,,,,,,,,,,,,,,,,,,z,1,1.7495,,,,,,,,0,136,136,159,1
,,,,,,,,,,,,,,,,,,57,2022-02-12_15h59.55.894,lexical_decision_task_DD_L4,2021.2.3,Win32,59.87306909,,,,,,,,,,,1.2506,1,,,,,,,,,,,,,,,,,,,,,,,,-0.02148151,-0.39629621,0,0,0,,,,,,,ARTIST,HB,m,y,./images/ARTISTHB.png,,,,,,,,,,,,,,,,,,,,,m,1,1.2506,,,,,,,,0,137,137,61,1
,,,,,,,,,,,,,,,,,,57,2022-02-12_15h59.55.894,lexical_decision_task_DD_L4,2021.2.3,Win32,59.87306909,,,,,,,,,,,1.0554,1,,,,,,,,,,,,,,,,,,,,,,,,-0.02148151,-0.39629621,0,0,0,,,,,,,STAIN,C,m,y,./images/STAIN.png,,,,,,,,,,,,,,,,,,,,,m,1,1.0554,,,,,,,,0,138,138,6,1
,,,,,,,,,,,,,,,,,,57,2022-02-12_15h59.55.894,lexical_decision_task_DD_L4,2021.2.3,Win32,59.87306909,,,,,,,,,,,1.0506,1,,,,,,,,,,,,,,,,,,,,,,,,-0.02148151,-0.39629621,0,0,0,,,,,,,MAMMAL,LB,m,y,./images/MAMMALLB.png,,,,,,,,,,,,,,,,,,,,,m,1,1.0506,,,,,,,,0,139,139,62,1
,,,,,,,,,,,,,,,,,,57,2022-02-12_15h59.55.894,lexical_decision_task_DD_L4,2021.2.3,Win32,59.87306909,,,,,,,,,,,1.0392,1,,,,,,,,,,,,,,,,,,,,,,,,-0.02148151,-0.39629621,0,0,0,,,,,,,CRUST,HB,z,y,./images/CRUSTHB.png,,,,,,,,,,,,,,,,,,,,,z,1,1.0392,,,,,,,,0,140,140,163,1
,,,,,,,,,,,,,,,,,,57,2022-02-12_15h59.55.894,lexical_decision_task_DD_L4,2021.2.3,Win32,59.87306909,,,,,,,,,,,0.6862,1,,,,,,,,,,,,,,,,,,,,,,,,-0.02148151,-0.39629621,0,0,0,,,,,,,BERRY,LB,z,y,./images/BERRYLB.png,,,,,,,,,,,,,,,,,,,,,z,1,0.6862,,,,,,,,0,141,141,131,1
,,,,,,,,,,,,,,,,,,57,2022-02-12_15h59.55.894,lexical_decision_task_DD_L4,2021.2.3,Win32,59.87306909,,,,,,,,,,,0.7725,1,,,,,,,,,,,,,,,,,,,,,,,,-0.02148151,-0.39629621,0,0,0,,,,,,,CANOE,HB,m,y,./images/CANOEHB.png,,,,,,,,,,,,,,,,,,,,,m,1,0.7725,,,,,,,,0,142,142,58,1
,,,,,,,,,,,,,,,,,,57,2022-02-12_15h59.55.894,lexical_decision_task_DD_L4,2021.2.3,Win32,59.87306909,,,,,,,,,,,0.9443,0,,,,,,,,,,,,,,,,,,,,,,,,-0.02148151,-0.39629621,0,0,0,,,,,,,HOCKEY,LB,m,y,./images/HOCKEYLB.png,,,,,,,,,,,,,,,,,,,,,z,0,0.9443,,,,,,,,0,143,143,32,1
,,,,,,,,,,,,,,,,,,57,2022-02-12_15h59.55.894,lexical_decision_task_DD_L4,2021.2.3,Win32,59.87306909,,,,,,,,,,,0.7674,1,,,,,,,,,,,,,,,,,,,,,,,,-0.02148151,-0.39629621,0,0,0,,,,,,,MUMMY,HB,m,y,./images/MUMMYHB.png,,,,,,,,,,,,,,,,,,,,,m,1,0.7674,,,,,,,,0,144,144,46,1
,,,,,,,,,,,,,,,,,,57,2022-02-12_15h59.55.894,lexical_decision_task_DD_L4,2021.2.3,Win32,59.87306909,,,,,,,,,,,1.0725,1,,,,,,,,,,,,,,,,,,,,,,,,-0.02148151,-0.39629621,0,0,0,,,,,,,PEBBLE,HB,m,y,./images/PEBBLEHB.png,,,,,,,,,,,,,,,,,,,,,m,1,1.0725,,,,,,,,0,145,145,82,1
,,,,,,,,,,,,,,,,,,57,2022-02-12_15h59.55.894,lexical_decision_task_DD_L4,2021.2.3,Win32,59.87306909,,,,,,,,,,,0.7072,1,,,,,,,,,,,,,,,,,,,,,,,,-0.02148151,-0.39629621,0,0,0,,,,,,,HEATER,LB,m,y,./images/HEATERLB.png,,,,,,,,,,,,,,,,,,,,,m,1,0.7072,,,,,,,,0,146,146,56,1
,,,,,,,,,,,,,,,,,,57,2022-02-12_15h59.55.894,lexical_decision_task_DD_L4,2021.2.3,Win32,59.87306909,,,,,,,,,,,1.0169,1,,,,,,,,,,,,,,,,,,,,,,,,-0.02148151,-0.39629621,0,0,0,,,,,,,WALNUT,C,m,y,./images/WALNUT.png,,,,,,,,,,,,,,,,,,,,,m,1,1.0169,,,,,,,,0,147,147,0,1
,,,,,,,,,,,,,,,,,,57,2022-02-12_15h59.55.894,lexical_decision_task_DD_L4,2021.2.3,Win32,59.87306909,,,,,,,,,,,1.1175,0,,,,,,,,,,,,,,,,,,,,,,,,-0.02148151,-0.39629621,0,0,0,,,,,,,BRUSH,LB,m,y,./images/BRUSHLB.png,,,,,,,,,,,,,,,,,,,,,z,0,1.1175,,,,,,,,0,148,148,59,1
,,,,,,,,,,,,,,,,,,57,2022-02-12_15h59.55.894,lexical_decision_task_DD_L4,2021.2.3,Win32,59.87306909,,,,,,,,,,,3.6475,0,,,,,,,,,,,,,,,,,,,,,,,,-0.02148151,-0.39629621,0,0,0,,,,,,,PENCE,HB,z,y,./images/PENCEHB.png,,,,,,,,,,,,,,,,,,,,,m,0,3.6475,,,,,,,,0,149,149,100,1
,,,,,,,,,,,,,,,,,,57,2022-02-12_15h59.55.894,lexical_decision_task_DD_L4,2021.2.3,Win32,59.87306909,,,,,,,,,,,1.0066,1,,,,,,,,,,,,,,,,,,,,,,,,-0.02148151,-0.39629621,0,0,0,,,,,,,SCREW,C,z,y,./images/SCREW.png,,,,,,,,,,,,,,,,,,,,,z,1,1.0066,,,,,,,,0,150,150,108,1
,,,,,,,,,,,,,,,,,,57,2022-02-12_15h59.55.894,lexical_decision_task_DD_L4,2021.2.3,Win32,59.87306909,,,,,,,,,,,0.7829,1,,,,,,,,,,,,,,,,,,,,,,,,-0.02148151,-0.39629621,0,0,0,,,,,,,SHELF,C,z,y,./images/SHELF.png,,,,,,,,,,,,,,,,,,,,,z,1,0.7829,,,,,,,,0,151,151,123,1
,,,,,,,,,,,,,,,,,,57,2022-02-12_15h59.55.894,lexical_decision_task_DD_L4,2021.2.3,Win32,59.87306909,,,,,,,,,,,0.826,1,,,,,,,,,,,,,,,,,,,,,,,,-0.02148151,-0.39629621,0,0,0,,,,,,,SWEAT,C,z,y,./images/SWEAT.png,,,,,,,,,,,,,,,,,,,,,z,1,0.826,,,,,,,,0,152,152,150,1
,,,,,,,,,,,,,,,,,,57,2022-02-12_15h59.55.894,lexical_decision_task_DD_L4,2021.2.3,Win32,59.87306909,,,,,,,,,,,1.2007,1,,,,,,,,,,,,,,,,,,,,,,,,-0.02148151,-0.39629621,0,0,0,,,,,,,CANDLE,HB,z,y,./images/CANDLEHB.png,,,,,,,,,,,,,,,,,,,,,z,1,1.2007,,,,,,,,0,153,153,145,1
,,,,,,,,,,,,,,,,,,57,2022-02-12_15h59.55.894,lexical_decision_task_DD_L4,2021.2.3,Win32,59.87306909,,,,,,,,,,,1.2895,0,,,,,,,,,,,,,,,,,,,,,,,,-0.02148151,-0.39629621,0,0,0,,,,,,,WAGON,HB,m,y,./images/WAGONHB.png,,,,,,,,,,,,,,,,,,,,,z,0,1.2895,,,,,,,,0,154,154,7,1
,,,,,,,,,,,,,,,,,,57,2022-02-12_15h59.55.894,lexical_decision_task_DD_L4,2021.2.3,Win32,59.87306909,,,,,,,,,,,0.7994,1,,,,,,,,,,,,,,,,,,,,,,,,-0.02148151,-0.39629621,0,0,0,,,,,,,CHALK,HB,m,y,./images/CHALKHB.png,,,,,,,,,,,,,,,,,,,,,m,1,0.7994,,,,,,,,0,155,155,25,1
,,,,,,,,,,,,,,,,,,57,2022-02-12_15h59.55.894,lexical_decision_task_DD_L4,2021.2.3,Win32,59.87306909,,,,,,,,,,,0.8339,1,,,,,,,,,,,,,,,,,,,,,,,,-0.02148151,-0.39629621,0,0,0,,,,,,,HAMMER,C,m,y,./images/HAMMER.png,,,,,,,,,,,,,,,,,,,,,m,1,0.8339,,,,,,,,0,156,156,75,1
,,,,,,,,,,,,,,,,,,57,2022-02-12_15h59.55.894,lexical_decision_task_DD_L4,2021.2.3,Win32,59.87306909,,,,,,,,,,,1.6761,1,,,,,,,,,,,,,,,,,,,,,,,,-0.02148151,-0.39629621,0,0,0,,,,,,,LADDER,LB,z,y,./images/LADDERLB.png,,,,,,,,,,,,,,,,,,,,,z,1,1.6761,,,,,,,,0,157,157,122,1
,,,,,,,,,,,,,,,,,,57,2022-02-12_15h59.55.894,lexical_decision_task_DD_L4,2021.2.3,Win32,59.87306909,,,,,,,,,,,1.0834,0,,,,,,,,,,,,,,,,,,,,,,,,-0.02148151,-0.39629621,0,0,0,,,,,,,SNACK,HB,z,y,./images/SNACKHB.png,,,,,,,,,,,,,,,,,,,,,m,0,1.0834,,,,,,,,0,158,158,157,1
,,,,,,,,,,,,,,,,,,57,2022-02-12_15h59.55.894,lexical_decision_task_DD_L4,2021.2.3,Win32,59.87306909,,,,,,,,,,,1.1505,1,,,,,,,,,,,,,,,,,,,,,,,,-0.02148151,-0.39629621,0,0,0,,,,,,,THROAT,C,z,y,./images/THROAT.png,,,,,,,,,,,,,,,,,,,,,z,1,1.1505,,,,,,,,0,159,159,120,1
,,,,,,,,,,,,,,,,,,57,2022-02-12_15h59.55.894,lexical_decision_task_DD_L4,2021.2.3,Win32,59.87306909,,,,,,,,,,,1.1329,1,,,,,,,,,,,,,,,,,,,,,,,,-0.02148151,-0.39629621,0,0,0,,,,,,,BONNET,LB,z,y,./images/BONNETLB.png,,,,,,,,,,,,,,,,,,,,,z,1,1.1329,,,,,,,,0,160,160,95,1
