key_resp.keys,instr_done_touch.x,instr_done_touch.y,instr_done_touch.leftButton,instr_done_touch.midButton,instr_done_touch.rightButton,instr_done_touch.clicked_name,instruction_pages.thisRepN,instruction_pages.thisTrialN,instruction_pages.thisN,instruction_pages.thisIndex,instruction_pages.ran,pageN,phase,instruct_text,has_image,instruct_image,participant,age,date,expName,psychopyVersion,OS,frameRate,key_resp.rt,response.keys,response.corr,response.rt,touch_resp.x,touch_resp.y,touch_resp.leftButton,touch_resp.midButton,touch_resp.rightButton,touch_resp.time,touch_resp.clicked_name,rt,corr,practrials.thisRepN,practrials.thisTrialN,practrials.thisN,practrials.thisIndex,practrials.ran,TrialID,Target,corrAns,end_of_practice_trials_pages.thisRepN,end_of_practice_trials_pages.thisTrialN,end_of_practice_trials_pages.thisN,end_of_practice_trials_pages.thisIndex,end_of_practice_trials_pages.ran,key_resp_2.keys,key_resp_2.corr,key_resp_2.rt,targ_click.x,targ_click.y,targ_click.leftButton,targ_click.midButton,targ_click.rightButton,targ_click.time,targ_click.clicked_name,break_done_touch.x,break_done_touch.y,break_done_touch.leftButton,break_done_touch.midButton,break_done_touch.rightButton,break_done_keyboard.keys,maintrials.thisRepN,maintrials.thisTrialN,maintrials.thisN,maintrials.thisIndex,maintrials.ran,string,blur,study,lex,stim_path,break_done_keyboard.rt,mouse_2.x,mouse_2.y,mouse_2.leftButton,mouse_2.midButton,mouse_2.rightButton,mouse_2.clicked_name,slider.response,slider.rt,trials.thisRepN,trials.thisTrialN,trials.thisN,trials.thisIndex,trials.ran,test_instructions.thisRepN,test_instructions.thisTrialN,test_instructions.thisN,test_instructions.thisIndex,test_instructions.ran,key_resp_3.keys,key_resp_3.corr,key_resp_3.rt,test_click.x,test_click.y,test_click.leftButton,test_click.midButton,test_click.rightButton,test_click.time,test_click.clicked_name,test_phase.thisRepN,test_phase.thisTrialN,test_phase.thisN,test_phase.thisIndex,test_phase.ran
,0.012986111,-0.408940972,1,0,0,instr_done_button,0,0,0,0,1,1,instructions,"INSTRUCTIONS
At the start of each trial, look at the plus sign  (+) in the center of the screen.  This tells you that a trial is about to begin and where to look. Second, the plus sign will disappear and a string of letters will appear. Your task is to determine if the string of letters is a word or not. If the item is a word press the M key (on keyboard)  or touch the word button (phone/tablet).  If the item is not a word,  press the  Z key (on keyboard)  or touch the nonword button (on phone/tablet). 
Press the space bar or touch  continue.",0,,,18,2022-02-12_13h14.31.891,lexical_decision_task_DD_L4,2021.2.3,MacIntel,59.99880002,,,,,,,,,,,,,,,,,,,,,,,,,,,,,,,,,,,,,,,,,,,,,,,,,,,,,,,,,,,,,,,,,,,,,,,,,,,,,,,,,,,,,,
,0.012986111,-0.408693576,1,0,0,instr_done_button,0,1,1,1,1,2,instructions,"If your device has a keyboard, press the 'Z' key for nonwords and the 'M' key for words.





Press the space bar or touch the button below to continue.",0,keyboard-example.gif,,18,2022-02-12_13h14.31.891,lexical_decision_task_DD_L4,2021.2.3,MacIntel,59.99880002,,,,,,,,,,,,,,,,,,,,,,,,,,,,,,,,,,,,,,,,,,,,,,,,,,,,,,,,,,,,,,,,,,,,,,,,,,,,,,,,,,,,,,
,0.012986111,-0.408693576,1,0,0,instr_done_button,0,2,2,2,1,3,instructions,"If you are using a touchscreen only device, use the buttons on the screen. Do not use the mouse.





Press the space bar or touch the button below to continue.",0,touchscreen-example.gif,,18,2022-02-12_13h14.31.891,lexical_decision_task_DD_L4,2021.2.3,MacIntel,59.99880002,,,,,,,,,,,,,,,,,,,,,,,,,,,,,,,,,,,,,,,,,,,,,,,,,,,,,,,,,,,,,,,,,,,,,,,,,,,,,,,,,,,,,,
space,0.012986111,-0.408693576,0,0,0,,0,3,3,3,1,4,instructions,"It is very important that you respond as quickly and accurately as possible, as each letter string will only be on the screen for two seconds. If you do not respond within this time, the message 'Too slow!' will be displayed and the experiment will progress to the next letter string. The first 20 trials will be practice trials and you will receive feedback on your answers. 

Press the space bar or touch the button below to start the practice trials.",0,,,18,2022-02-12_13h14.31.891,lexical_decision_task_DD_L4,2021.2.3,MacIntel,59.99880002,19.2193,,,,,,,,,,,,,,,,,,,,,,,,,,,,,,,,,,,,,,,,,,,,,,,,,,,,,,,,,,,,,,,,,,,,,,,,,,,,,,,,,,,,,
,,,,,,,,,,,,,,,,,,18,2022-02-12_13h14.31.891,lexical_decision_task_DD_L4,2021.2.3,MacIntel,59.99880002,,z,1,2.5815,,,,,,,,2.5815,1,0,0,0,12,1,1001,SPRINY,z,,,,,,,,,,,,,,,,,,,,,,,,,,,,,,,,,,,,,,,,,,,,,,,,,,,,,,,,,,,,,,,,,
,,,,,,,,,,,,,,,,,,18,2022-02-12_13h14.31.891,lexical_decision_task_DD_L4,2021.2.3,MacIntel,59.99880002,,m,1,0.9878,,,,,,,,0.9878,1,0,1,1,6,1,1001,ZOMBIE,m,,,,,,,,,,,,,,,,,,,,,,,,,,,,,,,,,,,,,,,,,,,,,,,,,,,,,,,,,,,,,,,,,
,,,,,,,,,,,,,,,,,,18,2022-02-12_13h14.31.891,lexical_decision_task_DD_L4,2021.2.3,MacIntel,59.99880002,,m,1,1.2409,,,,,,,,1.2409,1,0,2,2,0,1,1001,UTOPIA,m,,,,,,,,,,,,,,,,,,,,,,,,,,,,,,,,,,,,,,,,,,,,,,,,,,,,,,,,,,,,,,,,,
,,,,,,,,,,,,,,,,,,18,2022-02-12_13h14.31.891,lexical_decision_task_DD_L4,2021.2.3,MacIntel,59.99880002,,m,1,0.9265,,,,,,,,0.9265,1,0,3,3,3,1,1001,MATRIX,m,,,,,,,,,,,,,,,,,,,,,,,,,,,,,,,,,,,,,,,,,,,,,,,,,,,,,,,,,,,,,,,,,
,,,,,,,,,,,,,,,,,,18,2022-02-12_13h14.31.891,lexical_decision_task_DD_L4,2021.2.3,MacIntel,59.99880002,,m,1,1.4315,,,,,,,,1.4315,1,0,4,4,5,1,1001,OBTAIN,m,,,,,,,,,,,,,,,,,,,,,,,,,,,,,,,,,,,,,,,,,,,,,,,,,,,,,,,,,,,,,,,,,
,,,,,,,,,,,,,,,,,,18,2022-02-12_13h14.31.891,lexical_decision_task_DD_L4,2021.2.3,MacIntel,59.99880002,,z,1,1.4157,,,,,,,,1.4157,1,0,5,5,11,1,1001,RASHET,z,,,,,,,,,,,,,,,,,,,,,,,,,,,,,,,,,,,,,,,,,,,,,,,,,,,,,,,,,,,,,,,,,
,,,,,,,,,,,,,,,,,,18,2022-02-12_13h14.31.891,lexical_decision_task_DD_L4,2021.2.3,MacIntel,59.99880002,,z,1,1.2528,,,,,,,,1.2528,1,0,6,6,14,1,1001,THRALE,z,,,,,,,,,,,,,,,,,,,,,,,,,,,,,,,,,,,,,,,,,,,,,,,,,,,,,,,,,,,,,,,,,
,,,,,,,,,,,,,,,,,,18,2022-02-12_13h14.31.891,lexical_decision_task_DD_L4,2021.2.3,MacIntel,59.99880002,,m,1,0.5788,,,,,,,,0.5788,1,0,7,7,7,1,1001,VOLUME,m,,,,,,,,,,,,,,,,,,,,,,,,,,,,,,,,,,,,,,,,,,,,,,,,,,,,,,,,,,,,,,,,,
,,,,,,,,,,,,,,,,,,18,2022-02-12_13h14.31.891,lexical_decision_task_DD_L4,2021.2.3,MacIntel,59.99880002,,z,1,1.0493,,,,,,,,1.0493,1,0,8,8,8,1,1001,ASLERT,z,,,,,,,,,,,,,,,,,,,,,,,,,,,,,,,,,,,,,,,,,,,,,,,,,,,,,,,,,,,,,,,,,
,,,,,,,,,,,,,,,,,,18,2022-02-12_13h14.31.891,lexical_decision_task_DD_L4,2021.2.3,MacIntel,59.99880002,,m,1,0.6095,,,,,,,,0.6095,1,0,9,9,4,1,1001,SQUEAK,m,,,,,,,,,,,,,,,,,,,,,,,,,,,,,,,,,,,,,,,,,,,,,,,,,,,,,,,,,,,,,,,,,
,,,,,,,,,,,,,,,,,,18,2022-02-12_13h14.31.891,lexical_decision_task_DD_L4,2021.2.3,MacIntel,59.99880002,,m,1,0.6805,,,,,,,,0.6805,1,0,10,10,1,1,1001,ADJUST,m,,,,,,,,,,,,,,,,,,,,,,,,,,,,,,,,,,,,,,,,,,,,,,,,,,,,,,,,,,,,,,,,,
,,,,,,,,,,,,,,,,,,18,2022-02-12_13h14.31.891,lexical_decision_task_DD_L4,2021.2.3,MacIntel,59.99880002,,z,1,1.0058,,,,,,,,1.0058,1,0,11,11,13,1,1001,ROUPET,z,,,,,,,,,,,,,,,,,,,,,,,,,,,,,,,,,,,,,,,,,,,,,,,,,,,,,,,,,,,,,,,,,
,,,,,,,,,,,,,,,,,,18,2022-02-12_13h14.31.891,lexical_decision_task_DD_L4,2021.2.3,MacIntel,59.99880002,,z,1,1.1345,,,,,,,,1.1345,1,0,12,12,9,1,1001,FARINY,z,,,,,,,,,,,,,,,,,,,,,,,,,,,,,,,,,,,,,,,,,,,,,,,,,,,,,,,,,,,,,,,,,
,,,,,,,,,,,,,,,,,,18,2022-02-12_13h14.31.891,lexical_decision_task_DD_L4,2021.2.3,MacIntel,59.99880002,,m,0,1.2697,,,,,,,,1.2697,0,0,13,13,10,1,1001,INLADE,z,,,,,,,,,,,,,,,,,,,,,,,,,,,,,,,,,,,,,,,,,,,,,,,,,,,,,,,,,,,,,,,,,
,,,,,,,,,,,,,,,,,,18,2022-02-12_13h14.31.891,lexical_decision_task_DD_L4,2021.2.3,MacIntel,59.99880002,,m,1,1.3521,,,,,,,,1.3521,1,0,14,14,2,1,1001,ALMOND,m,,,,,,,,,,,,,,,,,,,,,,,,,,,,,,,,,,,,,,,,,,,,,,,,,,,,,,,,,,,,,,,,,
,,,,,,,,,,,,,,,,,,18,2022-02-12_13h14.31.891,lexical_decision_task_DD_L4,2021.2.3,MacIntel,59.99880002,,z,1,0.98,,,,,,,,0.98,1,0,15,15,15,1,1001,WHAISE,z,,,,,,,,,,,,,,,,,,,,,,,,,,,,,,,,,,,,,,,,,,,,,,,,,,,,,,,,,,,,,,,,,
space,0.012560764,-0.268463542,0,0,0,,,,,,,1,end_of_practice,"You have completed the practice trials. During the experimental trials, you will not receive feedback. 
Before you begin, please ensure that you are in a comfortable and quiet location and will not be disturbed for about 15 minutes, as we cannot use your data if you do not complete all the trials. 
 When you are ready to start the experimental trials, please press space or touch the button below.",,,,18,2022-02-12_13h14.31.891,lexical_decision_task_DD_L4,2021.2.3,MacIntel,59.99880002,12.2092,,,,,,,,,,,,,,,,,,,,,0,0,0,0,1,,,,,,,,,,,,,,,,,,,,,,,,,,,,,,,,,,,,,,,,,,,,,,,,,,,,,,,,,,,,
,,,,,,,,,,,,,,,,,,18,2022-02-12_13h14.31.891,lexical_decision_task_DD_L4,2021.2.3,MacIntel,59.99880002,,,,,,,,,,,,1.4868,1,,,,,,,,,,,,,,z,1,1.4868,,,,,,,,0.012560764,-0.268463542,0,0,0,,0,0,0,161,1,BLAPS,LB,old,z,./images/BLAPSLB.png,,,,,,,,,,,,,,,,,,,,,,,,,,,,,,,,,,
,,,,,,,,,,,,,,,,,,18,2022-02-12_13h14.31.891,lexical_decision_task_DD_L4,2021.2.3,MacIntel,59.99880002,,,,,,,,,,,,2.2835,1,,,,,,,,,,,,,,z,1,2.2835,,,,,,,,0.012560764,-0.268463542,0,0,0,,0,1,1,94,1,BLANS,HB,old,z,./images/BLANSHB.png,,,,,,,,,,,,,,,,,,,,,,,,,,,,,,,,,,
,,,,,,,,,,,,,,,,,,18,2022-02-12_13h14.31.891,lexical_decision_task_DD_L4,2021.2.3,MacIntel,59.99880002,,,,,,,,,,,,1.2289,1,,,,,,,,,,,,,,m,1,1.2289,,,,,,,,0.012560764,-0.268463542,0,0,0,,0,2,2,25,1,CHALK,HB,old,m,./images/CHALKHB.png,,,,,,,,,,,,,,,,,,,,,,,,,,,,,,,,,,
,,,,,,,,,,,,,,,,,,18,2022-02-12_13h14.31.891,lexical_decision_task_DD_L4,2021.2.3,MacIntel,59.99880002,,,,,,,,,,,,1.2662,1,,,,,,,,,,,,,,m,1,1.2662,,,,,,,,0.012560764,-0.268463542,0,0,0,,0,3,3,7,1,WAGON,HB,old,m,./images/WAGONHB.png,,,,,,,,,,,,,,,,,,,,,,,,,,,,,,,,,,
,,,,,,,,,,,,,,,,,,18,2022-02-12_13h14.31.891,lexical_decision_task_DD_L4,2021.2.3,MacIntel,59.99880002,,,,,,,,,,,,0.9323,1,,,,,,,,,,,,,,m,1,0.9323,,,,,,,,0.012560764,-0.268463542,0,0,0,,0,4,4,34,1,RAZOR,HB,old,m,./images/RAZORHB.png,,,,,,,,,,,,,,,,,,,,,,,,,,,,,,,,,,
,,,,,,,,,,,,,,,,,,18,2022-02-12_13h14.31.891,lexical_decision_task_DD_L4,2021.2.3,MacIntel,59.99880002,,,,,,,,,,,,2.0482,1,,,,,,,,,,,,,,m,1,2.0482,,,,,,,,0.012560764,-0.268463542,0,0,0,,0,5,5,40,1,SNAKE,HB,old,m,./images/SNAKEHB.png,,,,,,,,,,,,,,,,,,,,,,,,,,,,,,,,,,
,,,,,,,,,,,,,,,,,,18,2022-02-12_13h14.31.891,lexical_decision_task_DD_L4,2021.2.3,MacIntel,59.99880002,,,,,,,,,,,,1.2246,1,,,,,,,,,,,,,,m,1,1.2246,,,,,,,,0.012560764,-0.268463542,0,0,0,,0,6,6,17,1,PARADE,LB,old,m,./images/PARADELB.png,,,,,,,,,,,,,,,,,,,,,,,,,,,,,,,,,,
,,,,,,,,,,,,,,,,,,18,2022-02-12_13h14.31.891,lexical_decision_task_DD_L4,2021.2.3,MacIntel,59.99880002,,,,,,,,,,,,1.1249,1,,,,,,,,,,,,,,m,1,1.1249,,,,,,,,0.012560764,-0.268463542,0,0,0,,0,7,7,9,1,DIVER,C,old,m,./images/DIVER.png,,,,,,,,,,,,,,,,,,,,,,,,,,,,,,,,,,
,,,,,,,,,,,,,,,,,,18,2022-02-12_13h14.31.891,lexical_decision_task_DD_L4,2021.2.3,MacIntel,59.99880002,,,,,,,,,,,,0.9006,1,,,,,,,,,,,,,,m,1,0.9006,,,,,,,,0.012560764,-0.268463542,0,0,0,,0,8,8,71,1,BUBBLE,LB,old,m,./images/BUBBLELB.png,,,,,,,,,,,,,,,,,,,,,,,,,,,,,,,,,,
,,,,,,,,,,,,,,,,,,18,2022-02-12_13h14.31.891,lexical_decision_task_DD_L4,2021.2.3,MacIntel,59.99880002,,,,,,,,,,,,0.9201,1,,,,,,,,,,,,,,m,1,0.9201,,,,,,,,0.012560764,-0.268463542,0,0,0,,0,9,9,50,1,PILOT,LB,old,m,./images/PILOTLB.png,,,,,,,,,,,,,,,,,,,,,,,,,,,,,,,,,,
,,,,,,,,,,,,,,,,,,18,2022-02-12_13h14.31.891,lexical_decision_task_DD_L4,2021.2.3,MacIntel,59.99880002,,,,,,,,,,,,0.9853,1,,,,,,,,,,,,,,z,1,0.9853,,,,,,,,0.012560764,-0.268463542,0,0,0,,0,10,10,110,1,CRUNK,LB,old,z,./images/CRUNKLB.png,,,,,,,,,,,,,,,,,,,,,,,,,,,,,,,,,,
,,,,,,,,,,,,,,,,,,18,2022-02-12_13h14.31.891,lexical_decision_task_DD_L4,2021.2.3,MacIntel,59.99880002,,,,,,,,,,,,2.1676,1,,,,,,,,,,,,,,z,1,2.1676,,,,,,,,0.012560764,-0.268463542,0,0,0,,0,11,11,100,1,DRIBS,HB,old,z,./images/DRIBSHB.png,,,,,,,,,,,,,,,,,,,,,,,,,,,,,,,,,,
,,,,,,,,,,,,,,,,,,18,2022-02-12_13h14.31.891,lexical_decision_task_DD_L4,2021.2.3,MacIntel,59.99880002,,,,,,,,,,,,1.0753,1,,,,,,,,,,,,,,m,1,1.0753,,,,,,,,0.012560764,-0.268463542,0,0,0,,0,12,12,28,1,CASINO,HB,old,m,./images/CASINOHB.png,,,,,,,,,,,,,,,,,,,,,,,,,,,,,,,,,,
,,,,,,,,,,,,,,,,,,18,2022-02-12_13h14.31.891,lexical_decision_task_DD_L4,2021.2.3,MacIntel,59.99880002,,,,,,,,,,,,1.7417,1,,,,,,,,,,,,,,z,1,1.7417,,,,,,,,0.012560764,-0.268463542,0,0,0,,0,13,13,133,1,POWDY,HB,old,z,./images/POWDYHB.png,,,,,,,,,,,,,,,,,,,,,,,,,,,,,,,,,,
,,,,,,,,,,,,,,,,,,18,2022-02-12_13h14.31.891,lexical_decision_task_DD_L4,2021.2.3,MacIntel,59.99880002,,,,,,,,,,,,0.7344,1,,,,,,,,,,,,,,m,1,0.7344,,,,,,,,0.012560764,-0.268463542,0,0,0,,0,14,14,43,1,STOOL,HB,old,m,./images/STOOLHB.png,,,,,,,,,,,,,,,,,,,,,,,,,,,,,,,,,,
,,,,,,,,,,,,,,,,,,18,2022-02-12_13h14.31.891,lexical_decision_task_DD_L4,2021.2.3,MacIntel,59.99880002,,,,,,,,,,,,1.845,1,,,,,,,,,,,,,,z,1,1.845,,,,,,,,0.012560764,-0.268463542,0,0,0,,0,15,15,151,1,TINKY,HB,old,z,./images/TINKYHB.png,,,,,,,,,,,,,,,,,,,,,,,,,,,,,,,,,,
,,,,,,,,,,,,,,,,,,18,2022-02-12_13h14.31.891,lexical_decision_task_DD_L4,2021.2.3,MacIntel,59.99880002,,,,,,,,,,,,0.8372,1,,,,,,,,,,,,,,m,1,0.8372,,,,,,,,0.012560764,-0.268463542,0,0,0,,0,16,16,35,1,LLAMA,LB,old,m,./images/LLAMALB.png,,,,,,,,,,,,,,,,,,,,,,,,,,,,,,,,,,
,,,,,,,,,,,,,,,,,,18,2022-02-12_13h14.31.891,lexical_decision_task_DD_L4,2021.2.3,MacIntel,59.99880002,,,,,,,,,,,,0.6066,1,,,,,,,,,,,,,,m,1,0.6066,,,,,,,,0.012560764,-0.268463542,0,0,0,,0,17,17,59,1,BRUSH,LB,old,m,./images/BRUSHLB.png,,,,,,,,,,,,,,,,,,,,,,,,,,,,,,,,,,
,,,,,,,,,,,,,,,,,,18,2022-02-12_13h14.31.891,lexical_decision_task_DD_L4,2021.2.3,MacIntel,59.99880002,,,,,,,,,,,,1.1741,1,,,,,,,,,,,,,,m,1,1.1741,,,,,,,,0.012560764,-0.268463542,0,0,0,,0,18,18,13,1,BUNNY,HB,old,m,./images/BUNNYHB.png,,,,,,,,,,,,,,,,,,,,,,,,,,,,,,,,,,
,,,,,,,,,,,,,,,,,,18,2022-02-12_13h14.31.891,lexical_decision_task_DD_L4,2021.2.3,MacIntel,59.99880002,,,,,,,,,,,,1.6808,0,,,,,,,,,,,,,,m,0,1.6808,,,,,,,,0.012560764,-0.268463542,0,0,0,,0,19,19,104,1,GITTY,LB,old,z,./images/GITTYLB.png,,,,,,,,,,,,,,,,,,,,,,,,,,,,,,,,,,
,,,,,,,,,,,,,,,,,,18,2022-02-12_13h14.31.891,lexical_decision_task_DD_L4,2021.2.3,MacIntel,59.99880002,,,,,,,,,,,,0.7226,1,,,,,,,,,,,,,,m,1,0.7226,,,,,,,,0.012560764,-0.268463542,0,0,0,,0,20,20,1,1,TOWEL,HB,old,m,./images/TOWELHB.png,,,,,,,,,,,,,,,,,,,,,,,,,,,,,,,,,,
,,,,,,,,,,,,,,,,,,18,2022-02-12_13h14.31.891,lexical_decision_task_DD_L4,2021.2.3,MacIntel,59.99880002,,,,,,,,,,,,0.8211,1,,,,,,,,,,,,,,z,1,0.8211,,,,,,,,0.012560764,-0.268463542,0,0,0,,0,21,21,158,1,EGECT,LB,old,z,./images/EGECTLB.png,,,,,,,,,,,,,,,,,,,,,,,,,,,,,,,,,,
,,,,,,,,,,,,,,,,,,18,2022-02-12_13h14.31.891,lexical_decision_task_DD_L4,2021.2.3,MacIntel,59.99880002,,,,,,,,,,,,0.8128,1,,,,,,,,,,,,,,z,1,0.8128,,,,,,,,0.012560764,-0.268463542,0,0,0,,0,22,22,86,1,AIFED,LB,old,z,./images/AIFEDLB.png,,,,,,,,,,,,,,,,,,,,,,,,,,,,,,,,,,
,,,,,,,,,,,,,,,,,,18,2022-02-12_13h14.31.891,lexical_decision_task_DD_L4,2021.2.3,MacIntel,59.99880002,,,,,,,,,,,,1.1988,1,,,,,,,,,,,,,,m,1,1.1988,,,,,,,,0.012560764,-0.268463542,0,0,0,,0,23,23,55,1,ALLEY,HB,old,m,./images/ALLEYHB.png,,,,,,,,,,,,,,,,,,,,,,,,,,,,,,,,,,
,,,,,,,,,,,,,,,,,,18,2022-02-12_13h14.31.891,lexical_decision_task_DD_L4,2021.2.3,MacIntel,59.99880002,,,,,,,,,,,,0.8632,1,,,,,,,,,,,,,,z,1,0.8632,,,,,,,,0.012560764,-0.268463542,0,0,0,,0,24,24,167,1,ZONET,LB,old,z,./images/ZONETLB.png,,,,,,,,,,,,,,,,,,,,,,,,,,,,,,,,,,
,,,,,,,,,,,,,,,,,,18,2022-02-12_13h14.31.891,lexical_decision_task_DD_L4,2021.2.3,MacIntel,59.99880002,,,,,,,,,,,,3.3659,0,,,,,,,,,,,,,,m,0,3.3659,,,,,,,,0.012560764,-0.268463542,0,0,0,,0,25,25,142,1,PLASK,HB,old,z,./images/PLASKHB.png,,,,,,,,,,,,,,,,,,,,,,,,,,,,,,,,,,
,,,,,,,,,,,,,,,,,,18,2022-02-12_13h14.31.891,lexical_decision_task_DD_L4,2021.2.3,MacIntel,59.99880002,,,,,,,,,,,,0.8907,1,,,,,,,,,,,,,,m,1,0.8907,,,,,,,,0.012560764,-0.268463542,0,0,0,,0,26,26,51,1,SAUCE,C,old,m,./images/SAUCE.png,,,,,,,,,,,,,,,,,,,,,,,,,,,,,,,,,,
,,,,,,,,,,,,,,,,,,18,2022-02-12_13h14.31.891,lexical_decision_task_DD_L4,2021.2.3,MacIntel,59.99880002,,,,,,,,,,,,1.396,1,,,,,,,,,,,,,,z,1,1.396,,,,,,,,0.012560764,-0.268463542,0,0,0,,0,27,27,130,1,CRILL,HB,old,z,./images/CRILLHB.png,,,,,,,,,,,,,,,,,,,,,,,,,,,,,,,,,,
,,,,,,,,,,,,,,,,,,18,2022-02-12_13h14.31.891,lexical_decision_task_DD_L4,2021.2.3,MacIntel,59.99880002,,,,,,,,,,,,1.1562,1,,,,,,,,,,,,,,m,1,1.1562,,,,,,,,0.012560764,-0.268463542,0,0,0,,0,28,28,82,1,PEBBLE,HB,old,m,./images/PEBBLEHB.png,,,,,,,,,,,,,,,,,,,,,,,,,,,,,,,,,,
,,,,,,,,,,,,,,,,,,18,2022-02-12_13h14.31.891,lexical_decision_task_DD_L4,2021.2.3,MacIntel,59.99880002,,,,,,,,,,,,1.2583,1,,,,,,,,,,,,,,z,1,1.2583,,,,,,,,0.012560764,-0.268463542,0,0,0,,0,29,29,105,1,MOKER,C,old,z,./images/MOKER.png,,,,,,,,,,,,,,,,,,,,,,,,,,,,,,,,,,
,,,,,,,,,,,,,,,,,,18,2022-02-12_13h14.31.891,lexical_decision_task_DD_L4,2021.2.3,MacIntel,59.99880002,,,,,,,,,,,,0.7234,1,,,,,,,,,,,,,,m,1,0.7234,,,,,,,,0.012560764,-0.268463542,0,0,0,,0,30,30,0,1,WALNUT,C,old,m,./images/WALNUT.png,,,,,,,,,,,,,,,,,,,,,,,,,,,,,,,,,,
,,,,,,,,,,,,,,,,,,18,2022-02-12_13h14.31.891,lexical_decision_task_DD_L4,2021.2.3,MacIntel,59.99880002,,,,,,,,,,,,1.1011,1,,,,,,,,,,,,,,z,1,1.1011,,,,,,,,0.012560764,-0.268463542,0,0,0,,0,31,31,155,1,CANGY,LB,old,z,./images/CANGYLB.png,,,,,,,,,,,,,,,,,,,,,,,,,,,,,,,,,,
,,,,,,,,,,,,,,,,,,18,2022-02-12_13h14.31.891,lexical_decision_task_DD_L4,2021.2.3,MacIntel,59.99880002,,,,,,,,,,,,1.5502,1,,,,,,,,,,,,,,z,1,1.5502,,,,,,,,0.012560764,-0.268463542,0,0,0,,0,32,32,136,1,WERVE,HB,old,z,./images/WERVEHB.png,,,,,,,,,,,,,,,,,,,,,,,,,,,,,,,,,,
,,,,,,,,,,,,,,,,,,18,2022-02-12_13h14.31.891,lexical_decision_task_DD_L4,2021.2.3,MacIntel,59.99880002,,,,,,,,,,,,1.2351,1,,,,,,,,,,,,,,m,1,1.2351,,,,,,,,0.012560764,-0.268463542,0,0,0,,0,33,33,72,1,FLASK,C,old,m,./images/FLASK.png,,,,,,,,,,,,,,,,,,,,,,,,,,,,,,,,,,
,,,,,,,,,,,,,,,,,,18,2022-02-12_13h14.31.891,lexical_decision_task_DD_L4,2021.2.3,MacIntel,59.99880002,,,,,,,,,,,,0.8229,1,,,,,,,,,,,,,,m,1,0.8229,,,,,,,,0.012560764,-0.268463542,0,0,0,,0,34,34,5,1,BAMBOO,LB,old,m,./images/BAMBOOLB.png,,,,,,,,,,,,,,,,,,,,,,,,,,,,,,,,,,
,,,,,,,,,,,,,,,,,,18,2022-02-12_13h14.31.891,lexical_decision_task_DD_L4,2021.2.3,MacIntel,59.99880002,,,,,,,,,,,,1.0457,1,,,,,,,,,,,,,,m,1,1.0457,,,,,,,,0.012560764,-0.268463542,0,0,0,,0,35,35,31,1,STEAK,HB,old,m,./images/STEAKHB.png,,,,,,,,,,,,,,,,,,,,,,,,,,,,,,,,,,
,,,,,,,,,,,,,,,,,,18,2022-02-12_13h14.31.891,lexical_decision_task_DD_L4,2021.2.3,MacIntel,59.99880002,,,,,,,,,,,,1.4185,1,,,,,,,,,,,,,,m,1,1.4185,,,,,,,,0.012560764,-0.268463542,0,0,0,,0,36,36,58,1,CANOE,HB,old,m,./images/CANOEHB.png,,,,,,,,,,,,,,,,,,,,,,,,,,,,,,,,,,
,,,,,,,,,,,,,,,,,,18,2022-02-12_13h14.31.891,lexical_decision_task_DD_L4,2021.2.3,MacIntel,59.99880002,,,,,,,,,,,,0.8358,1,,,,,,,,,,,,,,z,1,0.8358,,,,,,,,0.012560764,-0.268463542,0,0,0,,0,37,37,164,1,SGREW,LB,old,z,./images/SGREWLB.png,,,,,,,,,,,,,,,,,,,,,,,,,,,,,,,,,,
,,,,,,,,,,,,,,,,,,18,2022-02-12_13h14.31.891,lexical_decision_task_DD_L4,2021.2.3,MacIntel,59.99880002,,,,,,,,,,,,0.9912,1,,,,,,,,,,,,,,z,1,0.9912,,,,,,,,0.012560764,-0.268463542,0,0,0,,0,38,38,147,1,ZOLES,C,old,z,./images/ZOLES.png,,,,,,,,,,,,,,,,,,,,,,,,,,,,,,,,,,
,,,,,,,,,,,,,,,,,,18,2022-02-12_13h14.31.891,lexical_decision_task_DD_L4,2021.2.3,MacIntel,59.99880002,,,,,,,,,,,,0.8895,1,,,,,,,,,,,,,,z,1,0.8895,,,,,,,,0.012560764,-0.268463542,0,0,0,,0,39,39,87,1,TRING,C,old,z,./images/TRING.png,,,,,,,,,,,,,,,,,,,,,,,,,,,,,,,,,,
,,,,,,,,,,,,,,,,,,18,2022-02-12_13h14.31.891,lexical_decision_task_DD_L4,2021.2.3,MacIntel,59.99880002,,,,,,,,,,,,2.4673,1,,,,,,,,,,,,,,z,1,2.4673,,,,,,,,0.012560764,-0.268463542,0,0,0,,0,40,40,106,1,CLUMS,HB,old,z,./images/CLUMSHB.png,,,,,,,,,,,,,,,,,,,,,,,,,,,,,,,,,,
,,,,,,,,,,,,,,,,,,18,2022-02-12_13h14.31.891,lexical_decision_task_DD_L4,2021.2.3,MacIntel,59.99880002,,,,,,,,,,,,0.6564,1,,,,,,,,,,,,,,m,1,0.6564,,,,,,,,0.012560764,-0.268463542,0,0,0,space,0,41,41,26,1,CLOUD,LB,old,m,./images/CLOUDLB.png,95.4023,,,,,,,,,,,,,,,,,,,,,,,,,,,,,,,,,
,,,,,,,,,,,,,,,,,,18,2022-02-12_13h14.31.891,lexical_decision_task_DD_L4,2021.2.3,MacIntel,59.99880002,,,,,,,,,,,,1.0621,1,,,,,,,,,,,,,,m,1,1.0621,,,,,,,,0.012560764,-0.268463542,0,0,0,,0,42,42,44,1,BASKET,LB,old,m,./images/BASKETLB.png,,,,,,,,,,,,,,,,,,,,,,,,,,,,,,,,,,
,,,,,,,,,,,,,,,,,,18,2022-02-12_13h14.31.891,lexical_decision_task_DD_L4,2021.2.3,MacIntel,59.99880002,,,,,,,,,,,,0.8917,1,,,,,,,,,,,,,,m,1,0.8917,,,,,,,,0.012560764,-0.268463542,0,0,0,,0,43,43,39,1,CANDY,C,old,m,./images/CANDY.png,,,,,,,,,,,,,,,,,,,,,,,,,,,,,,,,,,
,,,,,,,,,,,,,,,,,,18,2022-02-12_13h14.31.891,lexical_decision_task_DD_L4,2021.2.3,MacIntel,59.99880002,,,,,,,,,,,,0.6327,1,,,,,,,,,,,,,,m,1,0.6327,,,,,,,,0.012560764,-0.268463542,0,0,0,,0,44,44,68,1,VALLEY,LB,old,m,./images/VALLEYLB.png,,,,,,,,,,,,,,,,,,,,,,,,,,,,,,,,,,
,,,,,,,,,,,,,,,,,,18,2022-02-12_13h14.31.891,lexical_decision_task_DD_L4,2021.2.3,MacIntel,59.99880002,,,,,,,,,,,,0.759,1,,,,,,,,,,,,,,z,1,0.759,,,,,,,,0.012560764,-0.268463542,0,0,0,,0,45,45,156,1,HIXES,C,old,z,./images/HIXES.png,,,,,,,,,,,,,,,,,,,,,,,,,,,,,,,,,,
,,,,,,,,,,,,,,,,,,18,2022-02-12_13h14.31.891,lexical_decision_task_DD_L4,2021.2.3,MacIntel,59.99880002,,,,,,,,,,,,0.5713,1,,,,,,,,,,,,,,m,1,0.5713,,,,,,,,0.012560764,-0.268463542,0,0,0,,0,46,46,83,1,WHISKY,LB,old,m,./images/WHISKYLB.png,,,,,,,,,,,,,,,,,,,,,,,,,,,,,,,,,,
,,,,,,,,,,,,,,,,,,18,2022-02-12_13h14.31.891,lexical_decision_task_DD_L4,2021.2.3,MacIntel,59.99880002,,,,,,,,,,,,0.5465,1,,,,,,,,,,,,,,m,1,0.5465,,,,,,,,0.012560764,-0.268463542,0,0,0,,0,47,47,78,1,BROOM,C,old,m,./images/BROOM.png,,,,,,,,,,,,,,,,,,,,,,,,,,,,,,,,,,
,,,,,,,,,,,,,,,,,,18,2022-02-12_13h14.31.891,lexical_decision_task_DD_L4,2021.2.3,MacIntel,59.99880002,,,,,,,,,,,,0.6838,1,,,,,,,,,,,,,,z,1,0.6838,,,,,,,,0.012560764,-0.268463542,0,0,0,,0,48,48,129,1,PRANS,C,old,z,./images/PRANS.png,,,,,,,,,,,,,,,,,,,,,,,,,,,,,,,,,,
,,,,,,,,,,,,,,,,,,18,2022-02-12_13h14.31.891,lexical_decision_task_DD_L4,2021.2.3,MacIntel,59.99880002,,,,,,,,,,,,0.7212,1,,,,,,,,,,,,,,m,1,0.7212,,,,,,,,0.012560764,-0.268463542,0,0,0,,0,49,49,32,1,HOCKEY,LB,old,m,./images/HOCKEYLB.png,,,,,,,,,,,,,,,,,,,,,,,,,,,,,,,,,,
,,,,,,,,,,,,,,,,,,18,2022-02-12_13h14.31.891,lexical_decision_task_DD_L4,2021.2.3,MacIntel,59.99880002,,,,,,,,,,,,0.6266,1,,,,,,,,,,,,,,m,1,0.6266,,,,,,,,0.012560764,-0.268463542,0,0,0,,0,50,50,38,1,ENGINE,LB,old,m,./images/ENGINELB.png,,,,,,,,,,,,,,,,,,,,,,,,,,,,,,,,,,
,,,,,,,,,,,,,,,,,,18,2022-02-12_13h14.31.891,lexical_decision_task_DD_L4,2021.2.3,MacIntel,59.99880002,,,,,,,,,,,,0.6007,1,,,,,,,,,,,,,,m,1,0.6007,,,,,,,,0.012560764,-0.268463542,0,0,0,,0,51,51,15,1,COLLAR,C,old,m,./images/COLLAR.png,,,,,,,,,,,,,,,,,,,,,,,,,,,,,,,,,,
,,,,,,,,,,,,,,,,,,18,2022-02-12_13h14.31.891,lexical_decision_task_DD_L4,2021.2.3,MacIntel,59.99880002,,,,,,,,,,,,0.8496,1,,,,,,,,,,,,,,m,1,0.8496,,,,,,,,0.012560764,-0.268463542,0,0,0,,0,52,52,62,1,MAMMAL,LB,old,m,./images/MAMMALLB.png,,,,,,,,,,,,,,,,,,,,,,,,,,,,,,,,,,
,,,,,,,,,,,,,,,,,,18,2022-02-12_13h14.31.891,lexical_decision_task_DD_L4,2021.2.3,MacIntel,59.99880002,,,,,,,,,,,,0.6923,1,,,,,,,,,,,,,,z,1,0.6923,,,,,,,,0.012560764,-0.268463542,0,0,0,,0,53,53,93,1,SMONE,C,old,z,./images/SMONE.png,,,,,,,,,,,,,,,,,,,,,,,,,,,,,,,,,,
,,,,,,,,,,,,,,,,,,18,2022-02-12_13h14.31.891,lexical_decision_task_DD_L4,2021.2.3,MacIntel,59.99880002,,,,,,,,,,,,1.5275,1,,,,,,,,,,,,,,z,1,1.5275,,,,,,,,0.012560764,-0.268463542,0,0,0,,0,54,54,91,1,SHENS,HB,old,z,./images/SHENSHB.png,,,,,,,,,,,,,,,,,,,,,,,,,,,,,,,,,,
,,,,,,,,,,,,,,,,,,18,2022-02-12_13h14.31.891,lexical_decision_task_DD_L4,2021.2.3,MacIntel,59.99880002,,,,,,,,,,,,1.4096,1,,,,,,,,,,,,,,z,1,1.4096,,,,,,,,0.012560764,-0.268463542,0,0,0,,0,55,55,90,1,NEAST,C,old,z,./images/NEAST.png,,,,,,,,,,,,,,,,,,,,,,,,,,,,,,,,,,
,,,,,,,,,,,,,,,,,,18,2022-02-12_13h14.31.891,lexical_decision_task_DD_L4,2021.2.3,MacIntel,59.99880002,,,,,,,,,,,,0.7418,1,,,,,,,,,,,,,,m,1,0.7418,,,,,,,,0.012560764,-0.268463542,0,0,0,,0,56,56,75,1,HAMMER,C,old,m,./images/HAMMER.png,,,,,,,,,,,,,,,,,,,,,,,,,,,,,,,,,,
,,,,,,,,,,,,,,,,,,18,2022-02-12_13h14.31.891,lexical_decision_task_DD_L4,2021.2.3,MacIntel,59.99880002,,,,,,,,,,,,0.5256,1,,,,,,,,,,,,,,m,1,0.5256,,,,,,,,0.012560764,-0.268463542,0,0,0,,0,57,57,27,1,BUTTER,C,old,m,./images/BUTTER.png,,,,,,,,,,,,,,,,,,,,,,,,,,,,,,,,,,
,,,,,,,,,,,,,,,,,,18,2022-02-12_13h14.31.891,lexical_decision_task_DD_L4,2021.2.3,MacIntel,59.99880002,,,,,,,,,,,,1.112,1,,,,,,,,,,,,,,z,1,1.112,,,,,,,,0.012560764,-0.268463542,0,0,0,,0,58,58,103,1,FLORT,HB,old,z,./images/FLORTHB.png,,,,,,,,,,,,,,,,,,,,,,,,,,,,,,,,,,
,,,,,,,,,,,,,,,,,,18,2022-02-12_13h14.31.891,lexical_decision_task_DD_L4,2021.2.3,MacIntel,59.99880002,,,,,,,,,,,,0.6935,1,,,,,,,,,,,,,,m,1,0.6935,,,,,,,,0.012560764,-0.268463542,0,0,0,,0,59,59,47,1,LAGOON,LB,old,m,./images/LAGOONLB.png,,,,,,,,,,,,,,,,,,,,,,,,,,,,,,,,,,
,,,,,,,,,,,,,,,,,,18,2022-02-12_13h14.31.891,lexical_decision_task_DD_L4,2021.2.3,MacIntel,59.99880002,,,,,,,,,,,,0.9683,1,,,,,,,,,,,,,,m,1,0.9683,,,,,,,,0.012560764,-0.268463542,0,0,0,,0,60,60,73,1,GLOVE,HB,old,m,./images/GLOVEHB.png,,,,,,,,,,,,,,,,,,,,,,,,,,,,,,,,,,
,,,,,,,,,,,,,,,,,,18,2022-02-12_13h14.31.891,lexical_decision_task_DD_L4,2021.2.3,MacIntel,59.99880002,,,,,,,,,,,,0.6906,1,,,,,,,,,,,,,,z,1,0.6906,,,,,,,,0.012560764,-0.268463542,0,0,0,,0,61,61,84,1,HAXES,C,old,z,./images/HAXES.png,,,,,,,,,,,,,,,,,,,,,,,,,,,,,,,,,,
,,,,,,,,,,,,,,,,,,18,2022-02-12_13h14.31.891,lexical_decision_task_DD_L4,2021.2.3,MacIntel,59.99880002,,,,,,,,,,,,0.557,1,,,,,,,,,,,,,,m,1,0.557,,,,,,,,0.012560764,-0.268463542,0,0,0,,0,62,62,54,1,CHERRY,C,old,m,./images/CHERRY.png,,,,,,,,,,,,,,,,,,,,,,,,,,,,,,,,,,
,,,,,,,,,,,,,,,,,,18,2022-02-12_13h14.31.891,lexical_decision_task_DD_L4,2021.2.3,MacIntel,59.99880002,,,,,,,,,,,,0.9423,1,,,,,,,,,,,,,,z,1,0.9423,,,,,,,,0.012560764,-0.268463542,0,0,0,,0,63,63,108,1,GRUET,C,old,z,./images/GRUET.png,,,,,,,,,,,,,,,,,,,,,,,,,,,,,,,,,,
,,,,,,,,,,,,,,,,,,18,2022-02-12_13h14.31.891,lexical_decision_task_DD_L4,2021.2.3,MacIntel,59.99880002,,,,,,,,,,,,1.06,1,,,,,,,,,,,,,,m,1,1.06,,,,,,,,0.012560764,-0.268463542,0,0,0,,0,64,64,66,1,STATUE,C,old,m,./images/STATUE.png,,,,,,,,,,,,,,,,,,,,,,,,,,,,,,,,,,
,,,,,,,,,,,,,,,,,,18,2022-02-12_13h14.31.891,lexical_decision_task_DD_L4,2021.2.3,MacIntel,59.99880002,,,,,,,,,,,,0.9188,1,,,,,,,,,,,,,,z,1,0.9188,,,,,,,,0.012560764,-0.268463542,0,0,0,,0,65,65,122,1,BLOOT,LB,old,z,./images/BLOOTLB.png,,,,,,,,,,,,,,,,,,,,,,,,,,,,,,,,,,
,,,,,,,,,,,,,,,,,,18,2022-02-12_13h14.31.891,lexical_decision_task_DD_L4,2021.2.3,MacIntel,59.99880002,,,,,,,,,,,,0.6688,1,,,,,,,,,,,,,,m,1,0.6688,,,,,,,,0.012560764,-0.268463542,0,0,0,,0,66,66,11,1,MEDAL,LB,old,m,./images/MEDALLB.png,,,,,,,,,,,,,,,,,,,,,,,,,,,,,,,,,,
,,,,,,,,,,,,,,,,,,18,2022-02-12_13h14.31.891,lexical_decision_task_DD_L4,2021.2.3,MacIntel,59.99880002,,,,,,,,,,,,0.9375,1,,,,,,,,,,,,,,z,1,0.9375,,,,,,,,0.012560764,-0.268463542,0,0,0,,0,67,67,143,1,MONGS,LB,old,z,./images/MONGSLB.png,,,,,,,,,,,,,,,,,,,,,,,,,,,,,,,,,,
,,,,,,,,,,,,,,,,,,18,2022-02-12_13h14.31.891,lexical_decision_task_DD_L4,2021.2.3,MacIntel,59.99880002,,,,,,,,,,,,0.7549,1,,,,,,,,,,,,,,m,1,0.7549,,,,,,,,0.012560764,-0.268463542,0,0,0,,0,68,68,18,1,PARCEL,C,old,m,./images/PARCEL.png,,,,,,,,,,,,,,,,,,,,,,,,,,,,,,,,,,
,,,,,,,,,,,,,,,,,,18,2022-02-12_13h14.31.891,lexical_decision_task_DD_L4,2021.2.3,MacIntel,59.99880002,,,,,,,,,,,,0.585,1,,,,,,,,,,,,,,m,1,0.585,,,,,,,,0.012560764,-0.268463542,0,0,0,,0,69,69,29,1,PISTOL,LB,old,m,./images/PISTOLLB.png,,,,,,,,,,,,,,,,,,,,,,,,,,,,,,,,,,
,,,,,,,,,,,,,,,,,,18,2022-02-12_13h14.31.891,lexical_decision_task_DD_L4,2021.2.3,MacIntel,59.99880002,,,,,,,,,,,,1.0686,1,,,,,,,,,,,,,,m,1,1.0686,,,,,,,,0.012560764,-0.268463542,0,0,0,,0,70,70,52,1,DESERT,HB,old,m,./images/DESERTHB.png,,,,,,,,,,,,,,,,,,,,,,,,,,,,,,,,,,
,,,,,,,,,,,,,,,,,,18,2022-02-12_13h14.31.891,lexical_decision_task_DD_L4,2021.2.3,MacIntel,59.99880002,,,,,,,,,,,,1.435,1,,,,,,,,,,,,,,z,1,1.435,,,,,,,,0.012560764,-0.268463542,0,0,0,,0,71,71,160,1,VEETS,HB,old,z,./images/VEETSHB.png,,,,,,,,,,,,,,,,,,,,,,,,,,,,,,,,,,
,,,,,,,,,,,,,,,,,,18,2022-02-12_13h14.31.891,lexical_decision_task_DD_L4,2021.2.3,MacIntel,59.99880002,,,,,,,,,,,,1.0355,1,,,,,,,,,,,,,,z,1,1.0355,,,,,,,,0.012560764,-0.268463542,0,0,0,,0,72,72,124,1,TUNCH,HB,old,z,./images/TUNCHHB.png,,,,,,,,,,,,,,,,,,,,,,,,,,,,,,,,,,
,,,,,,,,,,,,,,,,,,18,2022-02-12_13h14.31.891,lexical_decision_task_DD_L4,2021.2.3,MacIntel,59.99880002,,,,,,,,,,,,1.471,1,,,,,,,,,,,,,,z,1,1.471,,,,,,,,0.012560764,-0.268463542,0,0,0,,0,73,73,121,1,CEERS,HB,old,z,./images/CEERSHB.png,,,,,,,,,,,,,,,,,,,,,,,,,,,,,,,,,,
,,,,,,,,,,,,,,,,,,18,2022-02-12_13h14.31.891,lexical_decision_task_DD_L4,2021.2.3,MacIntel,59.99880002,,,,,,,,,,,,0.8031,1,,,,,,,,,,,,,,m,1,0.8031,,,,,,,,0.012560764,-0.268463542,0,0,0,,0,74,74,20,1,GRANNY,LB,old,m,./images/GRANNYLB.png,,,,,,,,,,,,,,,,,,,,,,,,,,,,,,,,,,
,,,,,,,,,,,,,,,,,,18,2022-02-12_13h14.31.891,lexical_decision_task_DD_L4,2021.2.3,MacIntel,59.99880002,,,,,,,,,,,,0.6439,1,,,,,,,,,,,,,,z,1,0.6439,,,,,,,,0.012560764,-0.268463542,0,0,0,,0,75,75,128,1,GRIFT,LB,old,z,./images/GRIFTLB.png,,,,,,,,,,,,,,,,,,,,,,,,,,,,,,,,,,
,,,,,,,,,,,,,,,,,,18,2022-02-12_13h14.31.891,lexical_decision_task_DD_L4,2021.2.3,MacIntel,59.99880002,,,,,,,,,,,,1.481,1,,,,,,,,,,,,,,z,1,1.481,,,,,,,,0.012560764,-0.268463542,0,0,0,,0,76,76,127,1,NINDY,HB,old,z,./images/NINDYHB.png,,,,,,,,,,,,,,,,,,,,,,,,,,,,,,,,,,
,,,,,,,,,,,,,,,,,,18,2022-02-12_13h14.31.891,lexical_decision_task_DD_L4,2021.2.3,MacIntel,59.99880002,,,,,,,,,,,,0.8519,1,,,,,,,,,,,,,,m,1,0.8519,,,,,,,,0.012560764,-0.268463542,0,0,0,,0,77,77,64,1,BRIDE,HB,old,m,./images/BRIDEHB.png,,,,,,,,,,,,,,,,,,,,,,,,,,,,,,,,,,
,,,,,,,,,,,,,,,,,,18,2022-02-12_13h14.31.891,lexical_decision_task_DD_L4,2021.2.3,MacIntel,59.99880002,,,,,,,,,,,,0.8518,1,,,,,,,,,,,,,,m,1,0.8518,,,,,,,,0.012560764,-0.268463542,0,0,0,,0,78,78,46,1,MUMMY,HB,old,m,./images/MUMMYHB.png,,,,,,,,,,,,,,,,,,,,,,,,,,,,,,,,,,
,,,,,,,,,,,,,,,,,,18,2022-02-12_13h14.31.891,lexical_decision_task_DD_L4,2021.2.3,MacIntel,59.99880002,,,,,,,,,,,,1.1305,1,,,,,,,,,,,,,,z,1,1.1305,,,,,,,,0.012560764,-0.268463542,0,0,0,,0,79,79,95,1,HANTY,LB,old,z,./images/HANTYLB.png,,,,,,,,,,,,,,,,,,,,,,,,,,,,,,,,,,
,,,,,,,,,,,,,,,,,,18,2022-02-12_13h14.31.891,lexical_decision_task_DD_L4,2021.2.3,MacIntel,59.99880002,,,,,,,,,,,,0.9681,1,,,,,,,,,,,,,,z,1,0.9681,,,,,,,,0.012560764,-0.268463542,0,0,0,,0,80,80,165,1,TROWN,C,old,z,./images/TROWN.png,,,,,,,,,,,,,,,,,,,,,,,,,,,,,,,,,,
,,,,,,,,,,,,,,,,,,18,2022-02-12_13h14.31.891,lexical_decision_task_DD_L4,2021.2.3,MacIntel,59.99880002,,,,,,,,,,,,0.7768,1,,,,,,,,,,,,,,m,1,0.7768,,,,,,,,0.012560764,-0.268463542,0,0,0,,0,81,81,33,1,SAUNA,C,old,m,./images/SAUNA.png,,,,,,,,,,,,,,,,,,,,,,,,,,,,,,,,,,
,,,,,,,,,,,,,,,,,,18,2022-02-12_13h14.31.891,lexical_decision_task_DD_L4,2021.2.3,MacIntel,59.99880002,,,,,,,,,,,,0.9237,1,,,,,,,,,,,,,,m,1,0.9237,,,,,,,,0.012560764,-0.268463542,0,0,0,,0,82,82,21,1,DANCER,C,old,m,./images/DANCER.png,,,,,,,,,,,,,,,,,,,,,,,,,,,,,,,,,,
,,,,,,,,,,,,,,,,,,18,2022-02-12_13h14.31.891,lexical_decision_task_DD_L4,2021.2.3,MacIntel,59.99880002,,,,,,,,,,,,1.1337,1,,,,,,,,,,,,,,z,1,1.1337,,,,,,,,0.012560764,-0.268463542,0,0,0,space,0,83,83,145,1,LAMEL,HB,old,z,./images/LAMELHB.png,4.4531,,,,,,,,,,,,,,,,,,,,,,,,,,,,,,,,,
,,,,,,,,,,,,,,,,,,18,2022-02-12_13h14.31.891,lexical_decision_task_DD_L4,2021.2.3,MacIntel,59.99880002,,,,,,,,,,,,1.2347,1,,,,,,,,,,,,,,z,1,1.2347,,,,,,,,0.012560764,-0.268463542,0,0,0,,0,84,84,101,1,GLEET,LB,old,z,./images/GLEETLB.png,,,,,,,,,,,,,,,,,,,,,,,,,,,,,,,,,,
,,,,,,,,,,,,,,,,,,18,2022-02-12_13h14.31.891,lexical_decision_task_DD_L4,2021.2.3,MacIntel,59.99880002,,,,,,,,,,,,2.1782,1,,,,,,,,,,,,,,z,1,2.1782,,,,,,,,0.012560764,-0.268463542,0,0,0,,0,85,85,154,1,THINT,HB,old,z,./images/THINTHB.png,,,,,,,,,,,,,,,,,,,,,,,,,,,,,,,,,,
,,,,,,,,,,,,,,,,,,18,2022-02-12_13h14.31.891,lexical_decision_task_DD_L4,2021.2.3,MacIntel,59.99880002,,,,,,,,,,,,0.6234,1,,,,,,,,,,,,,,m,1,0.6234,,,,,,,,0.012560764,-0.268463542,0,0,0,,0,86,86,65,1,SPINE,LB,old,m,./images/SPINELB.png,,,,,,,,,,,,,,,,,,,,,,,,,,,,,,,,,,
,,,,,,,,,,,,,,,,,,18,2022-02-12_13h14.31.891,lexical_decision_task_DD_L4,2021.2.3,MacIntel,59.99880002,,,,,,,,,,,,0.7365,1,,,,,,,,,,,,,,z,1,0.7365,,,,,,,,0.012560764,-0.268463542,0,0,0,,0,87,87,120,1,RINED,C,old,z,./images/RINED.png,,,,,,,,,,,,,,,,,,,,,,,,,,,,,,,,,,
,,,,,,,,,,,,,,,,,,18,2022-02-12_13h14.31.891,lexical_decision_task_DD_L4,2021.2.3,MacIntel,59.99880002,,,,,,,,,,,,0.9759,1,,,,,,,,,,,,,,z,1,0.9759,,,,,,,,0.012560764,-0.268463542,0,0,0,,0,88,88,139,1,BLEAR,HB,old,z,./images/BLEARHB.png,,,,,,,,,,,,,,,,,,,,,,,,,,,,,,,,,,
,,,,,,,,,,,,,,,,,,18,2022-02-12_13h14.31.891,lexical_decision_task_DD_L4,2021.2.3,MacIntel,59.99880002,,,,,,,,,,,,1.0679,1,,,,,,,,,,,,,,z,1,1.0679,,,,,,,,0.012560764,-0.268463542,0,0,0,,0,89,89,109,1,BURGE,HB,old,z,./images/BURGEHB.png,,,,,,,,,,,,,,,,,,,,,,,,,,,,,,,,,,
,,,,,,,,,,,,,,,,,,18,2022-02-12_13h14.31.891,lexical_decision_task_DD_L4,2021.2.3,MacIntel,59.99880002,,,,,,,,,,,,1.3858,1,,,,,,,,,,,,,,m,1,1.3858,,,,,,,,0.012560764,-0.268463542,0,0,0,,0,90,90,4,1,BOXER,HB,old,m,./images/BOXERHB.png,,,,,,,,,,,,,,,,,,,,,,,,,,,,,,,,,,
,,,,,,,,,,,,,,,,,,18,2022-02-12_13h14.31.891,lexical_decision_task_DD_L4,2021.2.3,MacIntel,59.99880002,,,,,,,,,,,,0.9146,1,,,,,,,,,,,,,,z,1,0.9146,,,,,,,,0.012560764,-0.268463542,0,0,0,,0,91,91,138,1,PLICE,C,old,z,./images/PLICE.png,,,,,,,,,,,,,,,,,,,,,,,,,,,,,,,,,,
,,,,,,,,,,,,,,,,,,18,2022-02-12_13h14.31.891,lexical_decision_task_DD_L4,2021.2.3,MacIntel,59.99880002,,,,,,,,,,,,0.6882,1,,,,,,,,,,,,,,m,1,0.6882,,,,,,,,0.012560764,-0.268463542,0,0,0,,0,92,92,24,1,FLESH,C,old,m,./images/FLESH.png,,,,,,,,,,,,,,,,,,,,,,,,,,,,,,,,,,
,,,,,,,,,,,,,,,,,,18,2022-02-12_13h14.31.891,lexical_decision_task_DD_L4,2021.2.3,MacIntel,59.99880002,,,,,,,,,,,,0.7263,1,,,,,,,,,,,,,,z,1,0.7263,,,,,,,,0.012560764,-0.268463542,0,0,0,,0,93,93,113,1,LINEW,LB,old,z,./images/LINEWLB.png,,,,,,,,,,,,,,,,,,,,,,,,,,,,,,,,,,
,,,,,,,,,,,,,,,,,,18,2022-02-12_13h14.31.891,lexical_decision_task_DD_L4,2021.2.3,MacIntel,59.99880002,,,,,,,,,,,,0.9913,1,,,,,,,,,,,,,,z,1,0.9913,,,,,,,,0.012560764,-0.268463542,0,0,0,,0,94,94,153,1,CLUPS,C,old,z,./images/CLUPS.png,,,,,,,,,,,,,,,,,,,,,,,,,,,,,,,,,,
,,,,,,,,,,,,,,,,,,18,2022-02-12_13h14.31.891,lexical_decision_task_DD_L4,2021.2.3,MacIntel,59.99880002,,,,,,,,,,,,0.8224,1,,,,,,,,,,,,,,m,1,0.8224,,,,,,,,0.012560764,-0.268463542,0,0,0,,0,95,95,37,1,TIGER,HB,old,m,./images/TIGERHB.png,,,,,,,,,,,,,,,,,,,,,,,,,,,,,,,,,,
,,,,,,,,,,,,,,,,,,18,2022-02-12_13h14.31.891,lexical_decision_task_DD_L4,2021.2.3,MacIntel,59.99880002,,,,,,,,,,,,2.1108,1,,,,,,,,,,,,,,z,1,2.1108,,,,,,,,0.012560764,-0.268463542,0,0,0,,0,96,96,112,1,MYING,HB,old,z,./images/MYINGHB.png,,,,,,,,,,,,,,,,,,,,,,,,,,,,,,,,,,
,,,,,,,,,,,,,,,,,,18,2022-02-12_13h14.31.891,lexical_decision_task_DD_L4,2021.2.3,MacIntel,59.99880002,,,,,,,,,,,,0.6189,1,,,,,,,,,,,,,,m,1,0.6189,,,,,,,,0.012560764,-0.268463542,0,0,0,,0,97,97,69,1,ARROW,C,old,m,./images/ARROW.png,,,,,,,,,,,,,,,,,,,,,,,,,,,,,,,,,,
,,,,,,,,,,,,,,,,,,18,2022-02-12_13h14.31.891,lexical_decision_task_DD_L4,2021.2.3,MacIntel,59.99880002,,,,,,,,,,,,1.2552,1,,,,,,,,,,,,,,z,1,1.2552,,,,,,,,0.012560764,-0.268463542,0,0,0,,0,98,98,88,1,GLUSH,HB,old,z,./images/GLUSHHB.png,,,,,,,,,,,,,,,,,,,,,,,,,,,,,,,,,,
,,,,,,,,,,,,,,,,,,18,2022-02-12_13h14.31.891,lexical_decision_task_DD_L4,2021.2.3,MacIntel,59.99880002,,,,,,,,,,,,0.776,1,,,,,,,,,,,,,,z,1,0.776,,,,,,,,0.012560764,-0.268463542,0,0,0,,0,99,99,134,1,TROSS,LB,old,z,./images/TROSSLB.png,,,,,,,,,,,,,,,,,,,,,,,,,,,,,,,,,,
,,,,,,,,,,,,,,,,,,18,2022-02-12_13h14.31.891,lexical_decision_task_DD_L4,2021.2.3,MacIntel,59.99880002,,,,,,,,,,,,0.6634,1,,,,,,,,,,,,,,z,1,0.6634,,,,,,,,0.012560764,-0.268463542,0,0,0,,0,100,100,150,1,NOOLS,C,old,z,./images/NOOLS.png,,,,,,,,,,,,,,,,,,,,,,,,,,,,,,,,,,
,,,,,,,,,,,,,,,,,,18,2022-02-12_13h14.31.891,lexical_decision_task_DD_L4,2021.2.3,MacIntel,59.99880002,,,,,,,,,,,,0.8606,1,,,,,,,,,,,,,,z,1,0.8606,,,,,,,,0.012560764,-0.268463542,0,0,0,,0,101,101,102,1,DULLE,C,old,z,./images/DULLE.png,,,,,,,,,,,,,,,,,,,,,,,,,,,,,,,,,,
,,,,,,,,,,,,,,,,,,18,2022-02-12_13h14.31.891,lexical_decision_task_DD_L4,2021.2.3,MacIntel,59.99880002,,,,,,,,,,,,0.8495,1,,,,,,,,,,,,,,z,1,0.8495,,,,,,,,0.012560764,-0.268463542,0,0,0,,0,102,102,137,1,JOOST,LB,old,z,./images/JOOSTLB.png,,,,,,,,,,,,,,,,,,,,,,,,,,,,,,,,,,
,,,,,,,,,,,,,,,,,,18,2022-02-12_13h14.31.891,lexical_decision_task_DD_L4,2021.2.3,MacIntel,59.99880002,,,,,,,,,,,,0.8041,1,,,,,,,,,,,,,,z,1,0.8041,,,,,,,,0.012560764,-0.268463542,0,0,0,,0,103,103,125,1,MOOKY,LB,old,z,./images/MOOKYLB.png,,,,,,,,,,,,,,,,,,,,,,,,,,,,,,,,,,
,,,,,,,,,,,,,,,,,,18,2022-02-12_13h14.31.891,lexical_decision_task_DD_L4,2021.2.3,MacIntel,59.99880002,,,,,,,,,,,,1.3214,1,,,,,,,,,,,,,,z,1,1.3214,,,,,,,,0.012560764,-0.268463542,0,0,0,,0,104,104,107,1,FASKS,LB,old,z,./images/FASKSLB.png,,,,,,,,,,,,,,,,,,,,,,,,,,,,,,,,,,
,,,,,,,,,,,,,,,,,,18,2022-02-12_13h14.31.891,lexical_decision_task_DD_L4,2021.2.3,MacIntel,59.99880002,,,,,,,,,,,,0.9196,1,,,,,,,,,,,,,,z,1,0.9196,,,,,,,,0.012560764,-0.268463542,0,0,0,,0,105,105,126,1,GUELS,C,old,z,./images/GUELS.png,,,,,,,,,,,,,,,,,,,,,,,,,,,,,,,,,,
,,,,,,,,,,,,,,,,,,18,2022-02-12_13h14.31.891,lexical_decision_task_DD_L4,2021.2.3,MacIntel,59.99880002,,,,,,,,,,,,1.9842,1,,,,,,,,,,,,,,z,1,1.9842,,,,,,,,0.012560764,-0.268463542,0,0,0,,0,106,106,166,1,SHORY,HB,old,z,./images/SHORYHB.png,,,,,,,,,,,,,,,,,,,,,,,,,,,,,,,,,,
,,,,,,,,,,,,,,,,,,18,2022-02-12_13h14.31.891,lexical_decision_task_DD_L4,2021.2.3,MacIntel,59.99880002,,,,,,,,,,,,1.1829,1,,,,,,,,,,,,,,m,1,1.1829,,,,,,,,0.012560764,-0.268463542,0,0,0,,0,107,107,76,1,MIDGET,HB,old,m,./images/MIDGETHB.png,,,,,,,,,,,,,,,,,,,,,,,,,,,,,,,,,,
,,,,,,,,,,,,,,,,,,18,2022-02-12_13h14.31.891,lexical_decision_task_DD_L4,2021.2.3,MacIntel,59.99880002,,,,,,,,,,,,1.6595,1,,,,,,,,,,,,,,z,1,1.6595,,,,,,,,0.012560764,-0.268463542,0,0,0,,0,108,108,115,1,MAWNS,HB,old,z,./images/MAWNSHB.png,,,,,,,,,,,,,,,,,,,,,,,,,,,,,,,,,,
,,,,,,,,,,,,,,,,,,18,2022-02-12_13h14.31.891,lexical_decision_task_DD_L4,2021.2.3,MacIntel,59.99880002,,,,,,,,,,,,0.6948,1,,,,,,,,,,,,,,z,1,0.6948,,,,,,,,0.012560764,-0.268463542,0,0,0,,0,109,109,119,1,PAFER,LB,old,z,./images/PAFERLB.png,,,,,,,,,,,,,,,,,,,,,,,,,,,,,,,,,,
,,,,,,,,,,,,,,,,,,18,2022-02-12_13h14.31.891,lexical_decision_task_DD_L4,2021.2.3,MacIntel,59.99880002,,,,,,,,,,,,0.7938,1,,,,,,,,,,,,,,m,1,0.7938,,,,,,,,0.012560764,-0.268463542,0,0,0,,0,110,110,53,1,POSTER,LB,old,m,./images/POSTERLB.png,,,,,,,,,,,,,,,,,,,,,,,,,,,,,,,,,,
,,,,,,,,,,,,,,,,,,18,2022-02-12_13h14.31.891,lexical_decision_task_DD_L4,2021.2.3,MacIntel,59.99880002,,,,,,,,,,,,1.2466,1,,,,,,,,,,,,,,m,1,1.2466,,,,,,,,0.012560764,-0.268463542,0,0,0,,0,111,111,3,1,CRATER,C,old,m,./images/CRATER.png,,,,,,,,,,,,,,,,,,,,,,,,,,,,,,,,,,
,,,,,,,,,,,,,,,,,,18,2022-02-12_13h14.31.891,lexical_decision_task_DD_L4,2021.2.3,MacIntel,59.99880002,,,,,,,,,,,,1.3524,1,,,,,,,,,,,,,,z,1,1.3524,,,,,,,,0.012560764,-0.268463542,0,0,0,,0,112,112,163,1,GAMBA,HB,old,z,./images/GAMBAHB.png,,,,,,,,,,,,,,,,,,,,,,,,,,,,,,,,,,
,,,,,,,,,,,,,,,,,,18,2022-02-12_13h14.31.891,lexical_decision_task_DD_L4,2021.2.3,MacIntel,59.99880002,,,,,,,,,,,,0.6193,1,,,,,,,,,,,,,,m,1,0.6193,,,,,,,,0.012560764,-0.268463542,0,0,0,,0,113,113,60,1,CURRY,C,old,m,./images/CURRY.png,,,,,,,,,,,,,,,,,,,,,,,,,,,,,,,,,,
,,,,,,,,,,,,,,,,,,18,2022-02-12_13h14.31.891,lexical_decision_task_DD_L4,2021.2.3,MacIntel,59.99880002,,,,,,,,,,,,0.5654,1,,,,,,,,,,,,,,m,1,0.5654,,,,,,,,0.012560764,-0.268463542,0,0,0,,0,114,114,63,1,BAKER,C,old,m,./images/BAKER.png,,,,,,,,,,,,,,,,,,,,,,,,,,,,,,,,,,
,,,,,,,,,,,,,,,,,,18,2022-02-12_13h14.31.891,lexical_decision_task_DD_L4,2021.2.3,MacIntel,59.99880002,,,,,,,,,,,,0.6687,1,,,,,,,,,,,,,,z,1,0.6687,,,,,,,,0.012560764,-0.268463542,0,0,0,,0,115,115,131,1,NACES,LB,old,z,./images/NACESLB.png,,,,,,,,,,,,,,,,,,,,,,,,,,,,,,,,,,
,,,,,,,,,,,,,,,,,,18,2022-02-12_13h14.31.891,lexical_decision_task_DD_L4,2021.2.3,MacIntel,59.99880002,,,,,,,,,,,,0.6856,1,,,,,,,,,,,,,,z,1,0.6856,,,,,,,,0.012560764,-0.268463542,0,0,0,,0,116,116,117,1,STEEG,C,old,z,./images/STEEG.png,,,,,,,,,,,,,,,,,,,,,,,,,,,,,,,,,,
,,,,,,,,,,,,,,,,,,18,2022-02-12_13h14.31.891,lexical_decision_task_DD_L4,2021.2.3,MacIntel,59.99880002,,,,,,,,,,,,1.4104,1,,,,,,,,,,,,,,z,1,1.4104,,,,,,,,0.012560764,-0.268463542,0,0,0,,0,117,117,97,1,CHIDS,HB,old,z,./images/CHIDSHB.png,,,,,,,,,,,,,,,,,,,,,,,,,,,,,,,,,,
,,,,,,,,,,,,,,,,,,18,2022-02-12_13h14.31.891,lexical_decision_task_DD_L4,2021.2.3,MacIntel,59.99880002,,,,,,,,,,,,0.612,1,,,,,,,,,,,,,,z,1,0.612,,,,,,,,0.012560764,-0.268463542,0,0,0,,0,118,118,111,1,HOSSE,C,old,z,./images/HOSSE.png,,,,,,,,,,,,,,,,,,,,,,,,,,,,,,,,,,
,,,,,,,,,,,,,,,,,,18,2022-02-12_13h14.31.891,lexical_decision_task_DD_L4,2021.2.3,MacIntel,59.99880002,,,,,,,,,,,,0.6864,1,,,,,,,,,,,,,,z,1,0.6864,,,,,,,,0.012560764,-0.268463542,0,0,0,,0,119,119,98,1,BAMPS,LB,old,z,./images/BAMPSLB.png,,,,,,,,,,,,,,,,,,,,,,,,,,,,,,,,,,
,,,,,,,,,,,,,,,,,,18,2022-02-12_13h14.31.891,lexical_decision_task_DD_L4,2021.2.3,MacIntel,59.99880002,,,,,,,,,,,,0.6355,1,,,,,,,,,,,,,,z,1,0.6355,,,,,,,,0.012560764,-0.268463542,0,0,0,,0,120,120,159,1,CUDDY,C,old,z,./images/CUDDY.png,,,,,,,,,,,,,,,,,,,,,,,,,,,,,,,,,,
,,,,,,,,,,,,,,,,,,18,2022-02-12_13h14.31.891,lexical_decision_task_DD_L4,2021.2.3,MacIntel,59.99880002,,,,,,,,,,,,2.2532,1,,,,,,,,,,,,,,z,1,2.2532,,,,,,,,0.012560764,-0.268463542,0,0,0,,0,121,121,85,1,CHULK,HB,old,z,./images/CHULKHB.png,,,,,,,,,,,,,,,,,,,,,,,,,,,,,,,,,,
,,,,,,,,,,,,,,,,,,18,2022-02-12_13h14.31.891,lexical_decision_task_DD_L4,2021.2.3,MacIntel,59.99880002,,,,,,,,,,,,1.0256,1,,,,,,,,,,,,,,m,1,1.0256,,,,,,,,0.012560764,-0.268463542,0,0,0,,0,122,122,81,1,DRILL,C,old,m,./images/DRILL.png,,,,,,,,,,,,,,,,,,,,,,,,,,,,,,,,,,
,,,,,,,,,,,,,,,,,,18,2022-02-12_13h14.31.891,lexical_decision_task_DD_L4,2021.2.3,MacIntel,59.99880002,,,,,,,,,,,,0.7377,1,,,,,,,,,,,,,,m,1,0.7377,,,,,,,,0.012560764,-0.268463542,0,0,0,,0,123,123,8,1,CLIFF,LB,old,m,./images/CLIFFLB.png,,,,,,,,,,,,,,,,,,,,,,,,,,,,,,,,,,
,,,,,,,,,,,,,,,,,,18,2022-02-12_13h14.31.891,lexical_decision_task_DD_L4,2021.2.3,MacIntel,59.99880002,,,,,,,,,,,,0.6978,1,,,,,,,,,,,,,,z,1,0.6978,,,,,,,,0.012560764,-0.268463542,0,0,0,,0,124,124,114,1,RIKES,C,old,z,./images/RIKES.png,,,,,,,,,,,,,,,,,,,,,,,,,,,,,,,,,,
,,,,,,,,,,,,,,,,,,18,2022-02-12_13h14.31.891,lexical_decision_task_DD_L4,2021.2.3,MacIntel,59.99880002,,,,,,,,,,,,0.6704,1,,,,,,,,,,,,,,z,1,0.6704,,,,,,,,0.012560764,-0.268463542,0,0,0,space,0,125,125,116,1,BALGY,LB,old,z,./images/BALGYLB.png,3.41,,,,,,,,,,,,,,,,,,,,,,,,,,,,,,,,,
,,,,,,,,,,,,,,,,,,18,2022-02-12_13h14.31.891,lexical_decision_task_DD_L4,2021.2.3,MacIntel,59.99880002,,,,,,,,,,,,1.2182,1,,,,,,,,,,,,,,z,1,1.2182,,,,,,,,0.012560764,-0.268463542,0,0,0,,0,126,126,148,1,JOMS,HB,old,z,./images/JOMSHB.png,,,,,,,,,,,,,,,,,,,,,,,,,,,,,,,,,,
,,,,,,,,,,,,,,,,,,18,2022-02-12_13h14.31.891,lexical_decision_task_DD_L4,2021.2.3,MacIntel,59.99880002,,,,,,,,,,,,0.616,1,,,,,,,,,,,,,,m,1,0.616,,,,,,,,0.012560764,-0.268463542,0,0,0,,0,127,127,14,1,FENCE,LB,old,m,./images/FENCELB.png,,,,,,,,,,,,,,,,,,,,,,,,,,,,,,,,,,
,,,,,,,,,,,,,,,,,,18,2022-02-12_13h14.31.891,lexical_decision_task_DD_L4,2021.2.3,MacIntel,59.99880002,,,,,,,,,,,,0.5963,1,,,,,,,,,,,,,,z,1,0.5963,,,,,,,,0.012560764,-0.268463542,0,0,0,,0,128,128,141,1,PLEET,C,old,z,./images/PLEET.png,,,,,,,,,,,,,,,,,,,,,,,,,,,,,,,,,,
,,,,,,,,,,,,,,,,,,18,2022-02-12_13h14.31.891,lexical_decision_task_DD_L4,2021.2.3,MacIntel,59.99880002,,,,,,,,,,,,1.8392,1,,,,,,,,,,,,,,z,1,1.8392,,,,,,,,0.012560764,-0.268463542,0,0,0,,0,129,129,157,1,INLER,HB,old,z,./images/INLERHB.png,,,,,,,,,,,,,,,,,,,,,,,,,,,,,,,,,,
,,,,,,,,,,,,,,,,,,18,2022-02-12_13h14.31.891,lexical_decision_task_DD_L4,2021.2.3,MacIntel,59.99880002,,,,,,,,,,,,0.7638,1,,,,,,,,,,,,,,z,1,0.7638,,,,,,,,0.012560764,-0.268463542,0,0,0,,0,130,130,149,1,VEASE,LB,old,z,./images/VEASELB.png,,,,,,,,,,,,,,,,,,,,,,,,,,,,,,,,,,
,,,,,,,,,,,,,,,,,,18,2022-02-12_13h14.31.891,lexical_decision_task_DD_L4,2021.2.3,MacIntel,59.99880002,,,,,,,,,,,,0.7215,1,,,,,,,,,,,,,,z,1,0.7215,,,,,,,,0.012560764,-0.268463542,0,0,0,,0,131,131,123,1,SEDGE,C,old,z,./images/SEDGE.png,,,,,,,,,,,,,,,,,,,,,,,,,,,,,,,,,,
,,,,,,,,,,,,,,,,,,18,2022-02-12_13h14.31.891,lexical_decision_task_DD_L4,2021.2.3,MacIntel,59.99880002,,,,,,,,,,,,0.5369,1,,,,,,,,,,,,,,m,1,0.5369,,,,,,,,0.012560764,-0.268463542,0,0,0,,0,132,132,41,1,STREAM,LB,old,m,./images/STREAMLB.png,,,,,,,,,,,,,,,,,,,,,,,,,,,,,,,,,,
,,,,,,,,,,,,,,,,,,18,2022-02-12_13h14.31.891,lexical_decision_task_DD_L4,2021.2.3,MacIntel,59.99880002,,,,,,,,,,,,0.6352,1,,,,,,,,,,,,,,z,1,0.6352,,,,,,,,0.012560764,-0.268463542,0,0,0,,0,133,133,96,1,KEAMS,C,old,z,./images/KEAMS.png,,,,,,,,,,,,,,,,,,,,,,,,,,,,,,,,,,
,,,,,,,,,,,,,,,,,,18,2022-02-12_13h14.31.891,lexical_decision_task_DD_L4,2021.2.3,MacIntel,59.99880002,,,,,,,,,,,,0.8614,1,,,,,,,,,,,,,,z,1,0.8614,,,,,,,,0.012560764,-0.268463542,0,0,0,,0,134,134,92,1,PAIMS,LB,old,z,./images/PAIMSLB.png,,,,,,,,,,,,,,,,,,,,,,,,,,,,,,,,,,
,,,,,,,,,,,,,,,,,,18,2022-02-12_13h14.31.891,lexical_decision_task_DD_L4,2021.2.3,MacIntel,59.99880002,,,,,,,,,,,,1.594,1,,,,,,,,,,,,,,z,1,1.594,,,,,,,,0.012560764,-0.268463542,0,0,0,,0,135,135,118,1,BAVEL,HB,old,z,./images/BAVELHB.png,,,,,,,,,,,,,,,,,,,,,,,,,,,,,,,,,,
,,,,,,,,,,,,,,,,,,18,2022-02-12_13h14.31.891,lexical_decision_task_DD_L4,2021.2.3,MacIntel,59.99880002,,,,,,,,,,,,0.5785,1,,,,,,,,,,,,,,z,1,0.5785,,,,,,,,0.012560764,-0.268463542,0,0,0,,0,136,136,132,1,SCIFF,C,old,z,./images/SCIFF.png,,,,,,,,,,,,,,,,,,,,,,,,,,,,,,,,,,
,,,,,,,,,,,,,,,,,,18,2022-02-12_13h14.31.891,lexical_decision_task_DD_L4,2021.2.3,MacIntel,59.99880002,,,,,,,,,,,,0.5474,1,,,,,,,,,,,,,,m,1,0.5474,,,,,,,,0.012560764,-0.268463542,0,0,0,,0,137,137,36,1,BOILER,C,old,m,./images/BOILER.png,,,,,,,,,,,,,,,,,,,,,,,,,,,,,,,,,,
,,,,,,,,,,,,,,,,,,18,2022-02-12_13h14.31.891,lexical_decision_task_DD_L4,2021.2.3,MacIntel,59.99880002,,,,,,,,,,,,0.9611,1,,,,,,,,,,,,,,z,1,0.9611,,,,,,,,0.012560764,-0.268463542,0,0,0,,0,138,138,152,1,FRAIN,LB,old,z,./images/FRAINLB.png,,,,,,,,,,,,,,,,,,,,,,,,,,,,,,,,,,
,,,,,,,,,,,,,,,,,,18,2022-02-12_13h14.31.891,lexical_decision_task_DD_L4,2021.2.3,MacIntel,59.99880002,,,,,,,,,,,,0.5763,1,,,,,,,,,,,,,,m,1,0.5763,,,,,,,,0.012560764,-0.268463542,0,0,0,,0,139,139,80,1,PLANET,LB,old,m,./images/PLANETLB.png,,,,,,,,,,,,,,,,,,,,,,,,,,,,,,,,,,
,,,,,,,,,,,,,,,,,,18,2022-02-12_13h14.31.891,lexical_decision_task_DD_L4,2021.2.3,MacIntel,59.99880002,,,,,,,,,,,,0.5363,1,,,,,,,,,,,,,,m,1,0.5363,,,,,,,,0.012560764,-0.268463542,0,0,0,,0,140,140,6,1,STAIN,C,old,m,./images/STAIN.png,,,,,,,,,,,,,,,,,,,,,,,,,,,,,,,,,,
,,,,,,,,,,,,,,,,,,18,2022-02-12_13h14.31.891,lexical_decision_task_DD_L4,2021.2.3,MacIntel,59.99880002,,,,,,,,,,,,0.4505,1,,,,,,,,,,,,,,m,1,0.4505,,,,,,,,0.012560764,-0.268463542,0,0,0,,0,141,141,45,1,MONKEY,C,old,m,./images/MONKEY.png,,,,,,,,,,,,,,,,,,,,,,,,,,,,,,,,,,
,,,,,,,,,,,,,,,,,,18,2022-02-12_13h14.31.891,lexical_decision_task_DD_L4,2021.2.3,MacIntel,59.99880002,,,,,,,,,,,,0.8482,1,,,,,,,,,,,,,,z,1,0.8482,,,,,,,,0.012560764,-0.268463542,0,0,0,,0,142,142,144,1,NAIRY,C,old,z,./images/NAIRY.png,,,,,,,,,,,,,,,,,,,,,,,,,,,,,,,,,,
,,,,,,,,,,,,,,,,,,18,2022-02-12_13h14.31.891,lexical_decision_task_DD_L4,2021.2.3,MacIntel,59.99880002,,,,,,,,,,,,0.7782,1,,,,,,,,,,,,,,m,1,0.7782,,,,,,,,0.012560764,-0.268463542,0,0,0,,0,143,143,30,1,SLOPE,C,old,m,./images/SLOPE.png,,,,,,,,,,,,,,,,,,,,,,,,,,,,,,,,,,
,,,,,,,,,,,,,,,,,,18,2022-02-12_13h14.31.891,lexical_decision_task_DD_L4,2021.2.3,MacIntel,59.99880002,,,,,,,,,,,,1.1054,1,,,,,,,,,,,,,,m,1,1.1054,,,,,,,,0.012560764,-0.268463542,0,0,0,,0,144,144,67,1,POKER,HB,old,m,./images/POKERHB.png,,,,,,,,,,,,,,,,,,,,,,,,,,,,,,,,,,
,,,,,,,,,,,,,,,,,,18,2022-02-12_13h14.31.891,lexical_decision_task_DD_L4,2021.2.3,MacIntel,59.99880002,,,,,,,,,,,,0.6001,1,,,,,,,,,,,,,,m,1,0.6001,,,,,,,,0.012560764,-0.268463542,0,0,0,,0,145,145,2,1,STOVE,LB,old,m,./images/STOVELB.png,,,,,,,,,,,,,,,,,,,,,,,,,,,,,,,,,,
,,,,,,,,,,,,,,,,,,18,2022-02-12_13h14.31.891,lexical_decision_task_DD_L4,2021.2.3,MacIntel,59.99880002,,,,,,,,,,,,0.6863,1,,,,,,,,,,,,,,z,1,0.6863,,,,,,,,0.012560764,-0.268463542,0,0,0,,0,146,146,89,1,DRIEK,LB,old,z,./images/DRIEKLB.png,,,,,,,,,,,,,,,,,,,,,,,,,,,,,,,,,,
,,,,,,,,,,,,,,,,,,18,2022-02-12_13h14.31.891,lexical_decision_task_DD_L4,2021.2.3,MacIntel,59.99880002,,,,,,,,,,,,1.02,1,,,,,,,,,,,,,,m,1,1.02,,,,,,,,0.012560764,-0.268463542,0,0,0,,0,147,147,10,1,GARDEN,HB,old,m,./images/GARDENHB.png,,,,,,,,,,,,,,,,,,,,,,,,,,,,,,,,,,
,,,,,,,,,,,,,,,,,,18,2022-02-12_13h14.31.891,lexical_decision_task_DD_L4,2021.2.3,MacIntel,59.99880002,,,,,,,,,,,,0.6451,1,,,,,,,,,,,,,,z,1,0.6451,,,,,,,,0.012560764,-0.268463542,0,0,0,,0,148,148,146,1,MOOST,LB,old,z,./images/MOOSTLB.png,,,,,,,,,,,,,,,,,,,,,,,,,,,,,,,,,,
,,,,,,,,,,,,,,,,,,18,2022-02-12_13h14.31.891,lexical_decision_task_DD_L4,2021.2.3,MacIntel,59.99880002,,,,,,,,,,,,0.6452,1,,,,,,,,,,,,,,m,1,0.6452,,,,,,,,0.012560764,-0.268463542,0,0,0,,0,149,149,56,1,HEATER,LB,old,m,./images/HEATERLB.png,,,,,,,,,,,,,,,,,,,,,,,,,,,,,,,,,,
,,,,,,,,,,,,,,,,,,18,2022-02-12_13h14.31.891,lexical_decision_task_DD_L4,2021.2.3,MacIntel,59.99880002,,,,,,,,,,,,0.5371,1,,,,,,,,,,,,,,z,1,0.5371,,,,,,,,0.012560764,-0.268463542,0,0,0,,0,150,150,135,1,JOODY,C,old,z,./images/JOODY.png,,,,,,,,,,,,,,,,,,,,,,,,,,,,,,,,,,
,,,,,,,,,,,,,,,,,,18,2022-02-12_13h14.31.891,lexical_decision_task_DD_L4,2021.2.3,MacIntel,59.99880002,,,,,,,,,,,,0.6004,1,,,,,,,,,,,,,,z,1,0.6004,,,,,,,,0.012560764,-0.268463542,0,0,0,,0,151,151,162,1,LEICH,C,old,z,./images/LEICH.png,,,,,,,,,,,,,,,,,,,,,,,,,,,,,,,,,,
,,,,,,,,,,,,,,,,,,18,2022-02-12_13h14.31.891,lexical_decision_task_DD_L4,2021.2.3,MacIntel,59.99880002,,,,,,,,,,,,1.4706,1,,,,,,,,,,,,,,m,1,1.4706,,,,,,,,0.012560764,-0.268463542,0,0,0,,0,152,152,61,1,ARTIST,HB,old,m,./images/ARTISTHB.png,,,,,,,,,,,,,,,,,,,,,,,,,,,,,,,,,,
,,,,,,,,,,,,,,,,,,18,2022-02-12_13h14.31.891,lexical_decision_task_DD_L4,2021.2.3,MacIntel,59.99880002,,,,,,,,,,,,0.7465,1,,,,,,,,,,,,,,m,1,0.7465,,,,,,,,0.012560764,-0.268463542,0,0,0,,0,153,153,57,1,FERRY,C,old,m,./images/FERRY.png,,,,,,,,,,,,,,,,,,,,,,,,,,,,,,,,,,
,,,,,,,,,,,,,,,,,,18,2022-02-12_13h14.31.891,lexical_decision_task_DD_L4,2021.2.3,MacIntel,59.99880002,,,,,,,,,,,,1.1204,1,,,,,,,,,,,,,,m,1,1.1204,,,,,,,,0.012560764,-0.268463542,0,0,0,,0,154,154,23,1,CLOTH,LB,old,m,./images/CLOTHLB.png,,,,,,,,,,,,,,,,,,,,,,,,,,,,,,,,,,
,,,,,,,,,,,,,,,,,,18,2022-02-12_13h14.31.891,lexical_decision_task_DD_L4,2021.2.3,MacIntel,59.99880002,,,,,,,,,,,,0.9218,1,,,,,,,,,,,,,,m,1,0.9218,,,,,,,,0.012560764,-0.268463542,0,0,0,,0,155,155,74,1,JUMPER,LB,old,m,./images/JUMPERLB.png,,,,,,,,,,,,,,,,,,,,,,,,,,,,,,,,,,
,,,,,,,,,,,,,,,,,,18,2022-02-12_13h14.31.891,lexical_decision_task_DD_L4,2021.2.3,MacIntel,59.99880002,,,,,,,,,,,,0.8706,1,,,,,,,,,,,,,,m,1,0.8706,,,,,,,,0.012560764,-0.268463542,0,0,0,,0,156,156,16,1,GRAPE,HB,old,m,./images/GRAPEHB.png,,,,,,,,,,,,,,,,,,,,,,,,,,,,,,,,,,
,,,,,,,,,,,,,,,,,,18,2022-02-12_13h14.31.891,lexical_decision_task_DD_L4,2021.2.3,MacIntel,59.99880002,,,,,,,,,,,,0.9833,1,,,,,,,,,,,,,,m,1,0.9833,,,,,,,,0.012560764,-0.268463542,0,0,0,,0,157,157,70,1,BANANA,HB,old,m,./images/BANANAHB.png,,,,,,,,,,,,,,,,,,,,,,,,,,,,,,,,,,
,,,,,,,,,,,,,,,,,,18,2022-02-12_13h14.31.891,lexical_decision_task_DD_L4,2021.2.3,MacIntel,59.99880002,,,,,,,,,,,,0.5976,1,,,,,,,,,,,,,,m,1,0.5976,,,,,,,,0.012560764,-0.268463542,0,0,0,,0,158,158,77,1,WHEEL,LB,old,m,./images/WHEELLB.png,,,,,,,,,,,,,,,,,,,,,,,,,,,,,,,,,,
,,,,,,,,,,,,,,,,,,18,2022-02-12_13h14.31.891,lexical_decision_task_DD_L4,2021.2.3,MacIntel,59.99880002,,,,,,,,,,,,0.9439,1,,,,,,,,,,,,,,m,1,0.9439,,,,,,,,0.012560764,-0.268463542,0,0,0,,0,159,159,49,1,BISHOP,HB,old,m,./images/BISHOPHB.png,,,,,,,,,,,,,,,,,,,,,,,,,,,,,,,,,,
,,,,,,,,,,,,,,,,,,18,2022-02-12_13h14.31.891,lexical_decision_task_DD_L4,2021.2.3,MacIntel,59.99880002,,,,,,,,,,,,1.0347,1,,,,,,,,,,,,,,z,1,1.0347,,,,,,,,0.012560764,-0.268463542,0,0,0,,0,160,160,140,1,DOVET,LB,old,z,./images/DOVETLB.png,,,,,,,,,,,,,,,,,,,,,,,,,,,,,,,,,,
,,,,,,,,,,,,,,,,,,18,2022-02-12_13h14.31.891,lexical_decision_task_DD_L4,2021.2.3,MacIntel,59.99880002,,,,,,,,,,,,0.7717,1,,,,,,,,,,,,,,m,1,0.7717,,,,,,,,0.012560764,-0.268463542,0,0,0,,0,161,161,22,1,CLOWN,HB,old,m,./images/CLOWNHB.png,,,,,,,,,,,,,,,,,,,,,,,,,,,,,,,,,,
,,,,,,,,,,,,,,,,,,18,2022-02-12_13h14.31.891,lexical_decision_task_DD_L4,2021.2.3,MacIntel,59.99880002,,,,,,,,,,,,1.0966,1,,,,,,,,,,,,,,m,1,1.0966,,,,,,,,0.012560764,-0.268463542,0,0,0,,0,162,162,12,1,BLOKE,C,old,m,./images/BLOKE.png,,,,,,,,,,,,,,,,,,,,,,,,,,,,,,,,,,
,,,,,,,,,,,,,,,,,,18,2022-02-12_13h14.31.891,lexical_decision_task_DD_L4,2021.2.3,MacIntel,59.99880002,,,,,,,,,,,,0.9468,1,,,,,,,,,,,,,,m,1,0.9468,,,,,,,,0.012560764,-0.268463542,0,0,0,,0,163,163,48,1,SHIELD,C,old,m,./images/SHIELD.png,,,,,,,,,,,,,,,,,,,,,,,,,,,,,,,,,,
,,,,,,,,,,,,,,,,,,18,2022-02-12_13h14.31.891,lexical_decision_task_DD_L4,2021.2.3,MacIntel,59.99880002,,,,,,,,,,,,1.4529,1,,,,,,,,,,,,,,m,1,1.4529,,,,,,,,0.012560764,-0.268463542,0,0,0,,0,164,164,79,1,RULER,HB,old,m,./images/RULERHB.png,,,,,,,,,,,,,,,,,,,,,,,,,,,,,,,,,,
,,,,,,,,,,,,,,,,,,18,2022-02-12_13h14.31.891,lexical_decision_task_DD_L4,2021.2.3,MacIntel,59.99880002,,,,,,,,,,,,1.1531,1,,,,,,,,,,,,,,m,1,1.1531,,,,,,,,0.012560764,-0.268463542,0,0,0,,0,165,165,19,1,DONKEY,HB,old,m,./images/DONKEYHB.png,,,,,,,,,,,,,,,,,,,,,,,,,,,,,,,,,,
,,,,,,,,,,,,,,,,,,18,2022-02-12_13h14.31.891,lexical_decision_task_DD_L4,2021.2.3,MacIntel,59.99880002,,,,,,,,,,,,0.7138,1,,,,,,,,,,,,,,z,1,0.7138,,,,,,,,0.012560764,-0.268463542,0,0,0,,0,166,166,99,1,BACKY,C,old,z,./images/BACKY.png,,,,,,,,,,,,,,,,,,,,,,,,,,,,,,,,,,
,,,,,,,,,,,,,,,,,,18,2022-02-12_13h14.31.891,lexical_decision_task_DD_L4,2021.2.3,MacIntel,59.99880002,,,,,,,,,,,,0.6984,1,,,,,,,,,,,,,,m,1,0.6984,,,,,,,,0.012560764,-0.268463542,0,0,0,,0,167,167,42,1,CHAIN,C,old,m,./images/CHAIN.png,,,,,,,,,,,,,,,,,,,,,,,,,,,,,,,,,,
,,,,,,,,,,,,,,,,,,18,2022-02-12_13h14.31.891,lexical_decision_task_DD_L4,2021.2.3,MacIntel,59.99880002,,,,,,,,,,,,,,,,,,,,,,,,,,,,,,,,,,,,,,,,,,,,,,,,,How likely will it be that you will recognize the words presented clearly on a scale of 0 (not likely) to 100 (most likely)?,,,,,-0.006315104,-0.413172743,1,0,0,jol_adv,6,8.8704,0,0,0,0,1,,,,,,,,,,,,,,,,,,,,
,,,,,,,,,,,,,,,,,,18,2022-02-12_13h14.31.891,lexical_decision_task_DD_L4,2021.2.3,MacIntel,59.99880002,,,,,,,,,,,,,,,,,,,,,,,,,,,,,,,,,,,,,,,,,,,,,,,,,How likely will it be that you will recognize the words presented slighly blurred on a scale of 0 (not likely) to 100 (most likely)?,,,,,,,,,,,5,7.6498,0,1,1,1,1,,,,,,,,,,,,,,,,,,,,
,,,,,,,,,,,,,,,,,,18,2022-02-12_13h14.31.891,lexical_decision_task_DD_L4,2021.2.3,MacIntel,59.99880002,,,,,,,,,,,,,,,,,,,,,,,,,,,,,,,,,,,,,,,,,,,,,,,,,How likely will it be that you will recognize the words presented very blurred on a scale of 0 (not likely) to 100 (most likely)?,,,,,,,,,,,3,9.1899,0,2,2,2,1,,,,,,,,,,,,,,,,,,,,
,-0.006358507,-0.390234375,1,0,0,instr_done_button,,,,,,1,test,"In the next phase you will be presented with the words from the the first phase. Your job is to decide whether you remember seeing the word or not. If you remember seeing the word press ""old"" or type ""m"". If you do not remember seeing the word press ""new"" or type ""z"". Please press the space bar or click on continue to begin. ",,,,18,2022-02-12_13h14.31.891,lexical_decision_task_DD_L4,2021.2.3,MacIntel,59.99880002,,,,,,,,,,,,,,,,,,,,,,,,,,,,,,,,,,,,,,,,,,,,,,,,,,,,,,,,,,,,,,,,,,,0,0,0,0,1,,,,,,,,,,,,,,,
space,0.011861979,-0.394852431,0,0,0,,,,,,,1,test,"In the next phase you will be presented with the words from the the first phase. Your job is to decide whether you remember seeing the word or not. If you remember seeing the word press ""old"" or type ""m"". If you do not remember seeing the word press ""new"" or type ""z"". Please press the space bar or click on continue to begin. ",,,,18,2022-02-12_13h14.31.891,lexical_decision_task_DD_L4,2021.2.3,MacIntel,59.99880002,3.8776,,,,,,,,,,,,,,,,,,,,,,,,,,,,,,,,,,,,,,,,,,,,,,,,,,,,,,,,,,,,,,,,,,1,0,1,0,1,,,,,,,,,,,,,,,
,0.020572917,-0.402938368,1,0,0,instr_done_button,,,,,,1,test,"In the next phase you will be presented with the words from the the first phase. Your job is to decide whether you remember seeing the word or not. If you remember seeing the word press ""old"" or type ""m"". If you do not remember seeing the word press ""new"" or type ""z"". Please press the space bar or click on continue to begin. ",,,,18,2022-02-12_13h14.31.891,lexical_decision_task_DD_L4,2021.2.3,MacIntel,59.99880002,,,,,,,,,,,,,,,,,,,,,,,,,,,,,,,,,,,,,,,,,,,,,,,,,,,,,,,,,,,,,,,,,,,2,0,2,0,1,,,,,,,,,,,,,,,
,0.022400174,-0.400863715,1,0,0,instr_done_button,,,,,,1,test,"In the next phase you will be presented with the words from the the first phase. Your job is to decide whether you remember seeing the word or not. If you remember seeing the word press ""old"" or type ""m"". If you do not remember seeing the word press ""new"" or type ""z"". Please press the space bar or click on continue to begin. ",,,,18,2022-02-12_13h14.31.891,lexical_decision_task_DD_L4,2021.2.3,MacIntel,59.99880002,,,,,,,,,,,,,,,,,,,,,,,,,,,,,,,,,,,,,,,,,,,,,,,,,,,,,,,,,,,,,,,,,,,3,0,3,0,1,,,,,,,,,,,,,,,
,0.022400174,-0.400863715,1,0,0,instr_done_button,,,,,,1,test,"In the next phase you will be presented with the words from the the first phase. Your job is to decide whether you remember seeing the word or not. If you remember seeing the word press ""old"" or type ""m"". If you do not remember seeing the word press ""new"" or type ""z"". Please press the space bar or click on continue to begin. ",,,,18,2022-02-12_13h14.31.891,lexical_decision_task_DD_L4,2021.2.3,MacIntel,59.99880002,,,,,,,,,,,,,,,,,,,,,,,,,,,,,,,,,,,,,,,,,,,,,,,,,,,,,,,,,,,,,,,,,,,4,0,4,0,1,,,,,,,,,,,,,,,
,,,,,,,,,,,,,,,,,,18,2022-02-12_13h14.31.891,lexical_decision_task_DD_L4,2021.2.3,MacIntel,59.99880002,,,,,,,,,,,,2.7278,1,,,,,,,,,,,,,,,,,,,,,,,,0.022400174,-0.400863715,0,0,0,,,,,,,PAINT,HB,z,y,./images/PAINTHB.png,,,,,,,,,,,,,,,,,,,,z,1,2.7278,,,,,,,,0,0,0,91,1
,,,,,,,,,,,,,,,,,,18,2022-02-12_13h14.31.891,lexical_decision_task_DD_L4,2021.2.3,MacIntel,59.99880002,,,,,,,,,,,,1.3017,1,,,,,,,,,,,,,,,,,,,,,,,,0.022400174,-0.400863715,0,0,0,,,,,,,CASINO,HB,m,y,./images/CASINOHB.png,,,,,,,,,,,,,,,,,,,,m,1,1.3017,,,,,,,,0,1,1,28,1
,,,,,,,,,,,,,,,,,,18,2022-02-12_13h14.31.891,lexical_decision_task_DD_L4,2021.2.3,MacIntel,59.99880002,,,,,,,,,,,,3.3877,1,,,,,,,,,,,,,,,,,,,,,,,,0.022400174,-0.400863715,0,0,0,,,,,,,DRUMS,HB,z,y,./images/DRUMSHB.png,,,,,,,,,,,,,,,,,,,,z,1,3.3877,,,,,,,,0,2,2,133,1
,,,,,,,,,,,,,,,,,,18,2022-02-12_13h14.31.891,lexical_decision_task_DD_L4,2021.2.3,MacIntel,59.99880002,,,,,,,,,,,,0.821,1,,,,,,,,,,,,,,,,,,,,,,,,0.022400174,-0.400863715,0,0,0,,,,,,,CHALK,HB,m,y,./images/CHALKHB.png,,,,,,,,,,,,,,,,,,,,m,1,0.821,,,,,,,,0,3,3,25,1
,,,,,,,,,,,,,,,,,,18,2022-02-12_13h14.31.891,lexical_decision_task_DD_L4,2021.2.3,MacIntel,59.99880002,,,,,,,,,,,,0.7077,1,,,,,,,,,,,,,,,,,,,,,,,,0.022400174,-0.400863715,0,0,0,,,,,,,PILOT,LB,m,y,./images/PILOTLB.png,,,,,,,,,,,,,,,,,,,,m,1,0.7077,,,,,,,,0,4,4,50,1
,,,,,,,,,,,,,,,,,,18,2022-02-12_13h14.31.891,lexical_decision_task_DD_L4,2021.2.3,MacIntel,59.99880002,,,,,,,,,,,,0.6573,1,,,,,,,,,,,,,,,,,,,,,,,,0.022400174,-0.400863715,0,0,0,,,,,,,LITTER,C,z,y,./images/LITTER.png,,,,,,,,,,,,,,,,,,,,z,1,0.6573,,,,,,,,0,5,5,162,1
,,,,,,,,,,,,,,,,,,18,2022-02-12_13h14.31.891,lexical_decision_task_DD_L4,2021.2.3,MacIntel,59.99880002,,,,,,,,,,,,0.6554,1,,,,,,,,,,,,,,,,,,,,,,,,0.022400174,-0.400863715,0,0,0,,,,,,,BRIDE,HB,m,y,./images/BRIDEHB.png,,,,,,,,,,,,,,,,,,,,m,1,0.6554,,,,,,,,0,6,6,64,1
,,,,,,,,,,,,,,,,,,18,2022-02-12_13h14.31.891,lexical_decision_task_DD_L4,2021.2.3,MacIntel,59.99880002,,,,,,,,,,,,0.7901,1,,,,,,,,,,,,,,,,,,,,,,,,0.022400174,-0.400863715,0,0,0,,,,,,,TWINS,C,z,y,./images/TWINS.png,,,,,,,,,,,,,,,,,,,,z,1,0.7901,,,,,,,,0,7,7,144,1
,,,,,,,,,,,,,,,,,,18,2022-02-12_13h14.31.891,lexical_decision_task_DD_L4,2021.2.3,MacIntel,59.99880002,,,,,,,,,,,,0.6418,1,,,,,,,,,,,,,,,,,,,,,,,,0.022400174,-0.400863715,0,0,0,,,,,,,PISTOL,LB,m,y,./images/PISTOLLB.png,,,,,,,,,,,,,,,,,,,,m,1,0.6418,,,,,,,,0,8,8,29,1
,,,,,,,,,,,,,,,,,,18,2022-02-12_13h14.31.891,lexical_decision_task_DD_L4,2021.2.3,MacIntel,59.99880002,,,,,,,,,,,,0.9406,1,,,,,,,,,,,,,,,,,,,,,,,,0.022400174,-0.400863715,0,0,0,,,,,,,CRUST,HB,z,y,./images/CRUSTHB.png,,,,,,,,,,,,,,,,,,,,z,1,0.9406,,,,,,,,0,9,9,163,1
,,,,,,,,,,,,,,,,,,18,2022-02-12_13h14.31.891,lexical_decision_task_DD_L4,2021.2.3,MacIntel,59.99880002,,,,,,,,,,,,0.8756,1,,,,,,,,,,,,,,,,,,,,,,,,0.022400174,-0.400863715,0,0,0,,,,,,,BERRY,LB,z,y,./images/BERRYLB.png,,,,,,,,,,,,,,,,,,,,z,1,0.8756,,,,,,,,0,10,10,131,1
,,,,,,,,,,,,,,,,,,18,2022-02-12_13h14.31.891,lexical_decision_task_DD_L4,2021.2.3,MacIntel,59.99880002,,,,,,,,,,,,1.1732,1,,,,,,,,,,,,,,,,,,,,,,,,0.022400174,-0.400863715,0,0,0,,,,,,,HEATER,LB,m,y,./images/HEATERLB.png,,,,,,,,,,,,,,,,,,,,m,1,1.1732,,,,,,,,0,11,11,56,1
,,,,,,,,,,,,,,,,,,18,2022-02-12_13h14.31.891,lexical_decision_task_DD_L4,2021.2.3,MacIntel,59.99880002,,,,,,,,,,,,0.6887,1,,,,,,,,,,,,,,,,,,,,,,,,0.022400174,-0.400863715,0,0,0,,,,,,,HAMMER,C,m,y,./images/HAMMER.png,,,,,,,,,,,,,,,,,,,,m,1,0.6887,,,,,,,,0,12,12,75,1
,,,,,,,,,,,,,,,,,,18,2022-02-12_13h14.31.891,lexical_decision_task_DD_L4,2021.2.3,MacIntel,59.99880002,,,,,,,,,,,,0.5585,1,,,,,,,,,,,,,,,,,,,,,,,,0.022400174,-0.400863715,0,0,0,,,,,,,DRILL,C,m,y,./images/DRILL.png,,,,,,,,,,,,,,,,,,,,m,1,0.5585,,,,,,,,0,13,13,81,1
,,,,,,,,,,,,,,,,,,18,2022-02-12_13h14.31.891,lexical_decision_task_DD_L4,2021.2.3,MacIntel,59.99880002,,,,,,,,,,,,0.556,1,,,,,,,,,,,,,,,,,,,,,,,,0.022400174,-0.400863715,0,0,0,,,,,,,CHAIN,C,m,y,./images/CHAIN.png,,,,,,,,,,,,,,,,,,,,m,1,0.556,,,,,,,,0,14,14,42,1
,,,,,,,,,,,,,,,,,,18,2022-02-12_13h14.31.891,lexical_decision_task_DD_L4,2021.2.3,MacIntel,59.99880002,,,,,,,,,,,,0.8408,1,,,,,,,,,,,,,,,,,,,,,,,,0.022400174,-0.400863715,0,0,0,,,,,,,SCREW,C,z,y,./images/SCREW.png,,,,,,,,,,,,,,,,,,,,z,1,0.8408,,,,,,,,0,15,15,108,1
,,,,,,,,,,,,,,,,,,18,2022-02-12_13h14.31.891,lexical_decision_task_DD_L4,2021.2.3,MacIntel,59.99880002,,,,,,,,,,,,0.8903,1,,,,,,,,,,,,,,,,,,,,,,,,0.022400174,-0.400863715,0,0,0,,,,,,,MELON,HB,z,y,./images/MELONHB.png,,,,,,,,,,,,,,,,,,,,z,1,0.8903,,,,,,,,0,16,16,106,1
,,,,,,,,,,,,,,,,,,18,2022-02-12_13h14.31.891,lexical_decision_task_DD_L4,2021.2.3,MacIntel,59.99880002,,,,,,,,,,,,1.1136,1,,,,,,,,,,,,,,,,,,,,,,,,0.022400174,-0.400863715,0,0,0,,,,,,,ALLEY,HB,m,y,./images/ALLEYHB.png,,,,,,,,,,,,,,,,,,,,m,1,1.1136,,,,,,,,0,17,17,55,1
,,,,,,,,,,,,,,,,,,18,2022-02-12_13h14.31.891,lexical_decision_task_DD_L4,2021.2.3,MacIntel,59.99880002,,,,,,,,,,,,1.2823,1,,,,,,,,,,,,,,,,,,,,,,,,0.022400174,-0.400863715,0,0,0,,,,,,,RAZOR,HB,m,y,./images/RAZORHB.png,,,,,,,,,,,,,,,,,,,,m,1,1.2823,,,,,,,,0,18,18,34,1
,,,,,,,,,,,,,,,,,,18,2022-02-12_13h14.31.891,lexical_decision_task_DD_L4,2021.2.3,MacIntel,59.99880002,,,,,,,,,,,,0.639,1,,,,,,,,,,,,,,,,,,,,,,,,0.022400174,-0.400863715,0,0,0,,,,,,,BAMBOO,LB,m,y,./images/BAMBOOLB.png,,,,,,,,,,,,,,,,,,,,m,1,0.639,,,,,,,,0,19,19,5,1
,,,,,,,,,,,,,,,,,,18,2022-02-12_13h14.31.891,lexical_decision_task_DD_L4,2021.2.3,MacIntel,59.99880002,,,,,,,,,,,,0.7453,1,,,,,,,,,,,,,,,,,,,,,,,,0.022400174,-0.400863715,0,0,0,,,,,,,FOLDER,C,z,y,./images/FOLDER.png,,,,,,,,,,,,,,,,,,,,z,1,0.7453,,,,,,,,0,20,20,126,1
,,,,,,,,,,,,,,,,,,18,2022-02-12_13h14.31.891,lexical_decision_task_DD_L4,2021.2.3,MacIntel,59.99880002,,,,,,,,,,,,0.916,1,,,,,,,,,,,,,,,,,,,,,,,,0.022400174,-0.400863715,0,0,0,,,,,,,PLANK,HB,z,y,./images/PLANKHB.png,,,,,,,,,,,,,,,,,,,,z,1,0.916,,,,,,,,0,21,21,85,1
,,,,,,,,,,,,,,,,,,18,2022-02-12_13h14.31.891,lexical_decision_task_DD_L4,2021.2.3,MacIntel,59.99880002,,,,,,,,,,,,0.8879,1,,,,,,,,,,,,,,,,,,,,,,,,0.022400174,-0.400863715,0,0,0,,,,,,,DOUGH,HB,z,y,./images/DOUGHHB.png,,,,,,,,,,,,,,,,,,,,z,1,0.8879,,,,,,,,0,22,22,103,1
,,,,,,,,,,,,,,,,,,18,2022-02-12_13h14.31.891,lexical_decision_task_DD_L4,2021.2.3,MacIntel,59.99880002,,,,,,,,,,,,4.0583,0,,,,,,,,,,,,,,,,,,,,,,,,0.022400174,-0.400863715,0,0,0,,,,,,,ARROW,C,m,y,./images/ARROW.png,,,,,,,,,,,,,,,,,,,,z,0,4.0583,,,,,,,,0,23,23,69,1
,,,,,,,,,,,,,,,,,,18,2022-02-12_13h14.31.891,lexical_decision_task_DD_L4,2021.2.3,MacIntel,59.99880002,,,,,,,,,,,,0.8574,1,,,,,,,,,,,,,,,,,,,,,,,,0.022400174,-0.400863715,0,0,0,,,,,,,JUNGLE,LB,z,y,./images/JUNGLELB.png,,,,,,,,,,,,,,,,,,,,z,1,0.8574,,,,,,,,0,24,24,167,1
,,,,,,,,,,,,,,,,,,18,2022-02-12_13h14.31.891,lexical_decision_task_DD_L4,2021.2.3,MacIntel,59.99880002,,,,,,,,,,,,0.6078,1,,,,,,,,,,,,,,,,,,,,,,,,0.022400174,-0.400863715,0,0,0,,,,,,,MIDGET,HB,m,y,./images/MIDGETHB.png,,,,,,,,,,,,,,,,,,,,m,1,0.6078,,,,,,,,0,25,25,76,1
,,,,,,,,,,,,,,,,,,18,2022-02-12_13h14.31.891,lexical_decision_task_DD_L4,2021.2.3,MacIntel,59.99880002,,,,,,,,,,,,0.6088,1,,,,,,,,,,,,,,,,,,,,,,,,0.022400174,-0.400863715,0,0,0,,,,,,,FLESH,C,m,y,./images/FLESH.png,,,,,,,,,,,,,,,,,,,,m,1,0.6088,,,,,,,,0,26,26,24,1
,,,,,,,,,,,,,,,,,,18,2022-02-12_13h14.31.891,lexical_decision_task_DD_L4,2021.2.3,MacIntel,59.99880002,,,,,,,,,,,,0.595,1,,,,,,,,,,,,,,,,,,,,,,,,0.022400174,-0.400863715,0,0,0,,,,,,,CLOUD,LB,m,y,./images/CLOUDLB.png,,,,,,,,,,,,,,,,,,,,m,1,0.595,,,,,,,,0,27,27,26,1
,,,,,,,,,,,,,,,,,,18,2022-02-12_13h14.31.891,lexical_decision_task_DD_L4,2021.2.3,MacIntel,59.99880002,,,,,,,,,,,,0.6316,1,,,,,,,,,,,,,,,,,,,,,,,,0.022400174,-0.400863715,0,0,0,,,,,,,CANOE,HB,m,y,./images/CANOEHB.png,,,,,,,,,,,,,,,,,,,,m,1,0.6316,,,,,,,,0,28,28,58,1
,,,,,,,,,,,,,,,,,,18,2022-02-12_13h14.31.891,lexical_decision_task_DD_L4,2021.2.3,MacIntel,59.99880002,,,,,,,,,,,,0.8128,1,,,,,,,,,,,,,,,,,,,,,,,,0.022400174,-0.400863715,0,0,0,,,,,,,CANDLE,HB,z,y,./images/CANDLEHB.png,,,,,,,,,,,,,,,,,,,,z,1,0.8128,,,,,,,,0,29,29,145,1
,,,,,,,,,,,,,,,,,,18,2022-02-12_13h14.31.891,lexical_decision_task_DD_L4,2021.2.3,MacIntel,59.99880002,,,,,,,,,,,,0.5621,0,,,,,,,,,,,,,,,,,,,,,,,,0.022400174,-0.400863715,0,0,0,,,,,,,BABOON,HB,z,y,./images/BABOONHB.png,,,,,,,,,,,,,,,,,,,,m,0,0.5621,,,,,,,,0,30,30,142,1
,,,,,,,,,,,,,,,,,,18,2022-02-12_13h14.31.891,lexical_decision_task_DD_L4,2021.2.3,MacIntel,59.99880002,,,,,,,,,,,,1.6091,0,,,,,,,,,,,,,,,,,,,,,,,,0.022400174,-0.400863715,0,0,0,,,,,,,CANDY,C,m,y,./images/CANDY.png,,,,,,,,,,,,,,,,,,,,z,0,1.6091,,,,,,,,0,31,31,39,1
,,,,,,,,,,,,,,,,,,18,2022-02-12_13h14.31.891,lexical_decision_task_DD_L4,2021.2.3,MacIntel,59.99880002,,,,,,,,,,,,0.7078,1,,,,,,,,,,,,,,,,,,,,,,,,0.022400174,-0.400863715,0,0,0,,,,,,,JELLY,HB,z,y,./images/JELLYHB.png,,,,,,,,,,,,,,,,,,,,z,1,0.7078,,,,,,,,0,32,32,148,1
,,,,,,,,,,,,,,,,,,18,2022-02-12_13h14.31.891,lexical_decision_task_DD_L4,2021.2.3,MacIntel,59.99880002,,,,,,,,,,,,0.6406,1,,,,,,,,,,,,,,,,,,,,,,,,0.022400174,-0.400863715,0,0,0,,,,,,,BISHOP,HB,m,y,./images/BISHOPHB.png,,,,,,,,,,,,,,,,,,,,m,1,0.6406,,,,,,,,0,33,33,49,1
,,,,,,,,,,,,,,,,,,18,2022-02-12_13h14.31.891,lexical_decision_task_DD_L4,2021.2.3,MacIntel,59.99880002,,,,,,,,,,,,1.0094,1,,,,,,,,,,,,,,,,,,,,,,,,0.022400174,-0.400863715,0,0,0,,,,,,,KIDNEY,C,z,y,./images/KIDNEY.png,,,,,,,,,,,,,,,,,,,,z,1,1.0094,,,,,,,,0,34,34,105,1
,,,,,,,,,,,,,,,,,,18,2022-02-12_13h14.31.891,lexical_decision_task_DD_L4,2021.2.3,MacIntel,59.99880002,,,,,,,,,,,,1.7555,1,,,,,,,,,,,,,,,,,,,,,,,,0.022400174,-0.400863715,0,0,0,,,,,,,BASKET,LB,m,y,./images/BASKETLB.png,,,,,,,,,,,,,,,,,,,,m,1,1.7555,,,,,,,,0,35,35,44,1
,,,,,,,,,,,,,,,,,,18,2022-02-12_13h14.31.891,lexical_decision_task_DD_L4,2021.2.3,MacIntel,59.99880002,,,,,,,,,,,,0.7077,1,,,,,,,,,,,,,,,,,,,,,,,,0.022400174,-0.400863715,0,0,0,,,,,,,BIRTH,HB,z,y,./images/BIRTHHB.png,,,,,,,,,,,,,,,,,,,,z,1,0.7077,,,,,,,,0,36,36,121,1
,,,,,,,,,,,,,,,,,,18,2022-02-12_13h14.31.891,lexical_decision_task_DD_L4,2021.2.3,MacIntel,59.99880002,,,,,,,,,,,,0.6448,1,,,,,,,,,,,,,,,,,,,,,,,,0.022400174,-0.400863715,0,0,0,,,,,,,FENCE,LB,m,y,./images/FENCELB.png,,,,,,,,,,,,,,,,,,,,m,1,0.6448,,,,,,,,0,37,37,14,1
,,,,,,,,,,,,,,,,,,18,2022-02-12_13h14.31.891,lexical_decision_task_DD_L4,2021.2.3,MacIntel,59.99880002,,,,,,,,,,,,0.7252,1,,,,,,,,,,,,,,,,,,,,,,,,0.022400174,-0.400863715,0,0,0,,,,,,,THROAT,C,z,y,./images/THROAT.png,,,,,,,,,,,,,,,,,,,,z,1,0.7252,,,,,,,,0,38,38,120,1
,,,,,,,,,,,,,,,,,,18,2022-02-12_13h14.31.891,lexical_decision_task_DD_L4,2021.2.3,MacIntel,59.99880002,,,,,,,,,,,,0.6378,1,,,,,,,,,,,,,,,,,,,,,,,,0.022400174,-0.400863715,0,0,0,,,,,,,WRIST,HB,z,y,./images/WRISTHB.png,,,,,,,,,,,,,,,,,,,,z,1,0.6378,,,,,,,,0,39,39,109,1
,,,,,,,,,,,,,,,,,,18,2022-02-12_13h14.31.891,lexical_decision_task_DD_L4,2021.2.3,MacIntel,59.99880002,,,,,,,,,,,,0.9823,1,,,,,,,,,,,,,,,,,,,,,,,,0.022400174,-0.400863715,0,0,0,,,,,,,CRATER,C,m,y,./images/CRATER.png,,,,,,,,,,,,,,,,,,,,m,1,0.9823,,,,,,,,0,40,40,3,1
,,,,,,,,,,,,,,,,,,18,2022-02-12_13h14.31.891,lexical_decision_task_DD_L4,2021.2.3,MacIntel,59.99880002,,,,,,,,,,,,1.3303,0,,,,,,,,,,,,,,,,,,,,,,,,0.022400174,-0.400863715,0,0,0,space,,,,,,LADDER,LB,z,y,./images/LADDERLB.png,6.9995,,,,,,,,,,,,,,,,,,,m,0,1.3303,,,,,,,,0,41,41,122,1
,,,,,,,,,,,,,,,,,,18,2022-02-12_13h14.31.891,lexical_decision_task_DD_L4,2021.2.3,MacIntel,59.99880002,,,,,,,,,,,,1.6289,0,,,,,,,,,,,,,,,,,,,,,,,,0.022400174,-0.400863715,0,0,0,,,,,,,DIVER,C,m,y,./images/DIVER.png,,,,,,,,,,,,,,,,,,,,z,0,1.6289,,,,,,,,0,42,42,9,1
,,,,,,,,,,,,,,,,,,18,2022-02-12_13h14.31.891,lexical_decision_task_DD_L4,2021.2.3,MacIntel,59.99880002,,,,,,,,,,,,0.6999,1,,,,,,,,,,,,,,,,,,,,,,,,0.022400174,-0.400863715,0,0,0,,,,,,,TORCH,LB,z,y,./images/TORCHLB.png,,,,,,,,,,,,,,,,,,,,z,1,0.6999,,,,,,,,0,43,43,152,1
,,,,,,,,,,,,,,,,,,18,2022-02-12_13h14.31.891,lexical_decision_task_DD_L4,2021.2.3,MacIntel,59.99880002,,,,,,,,,,,,2.3632,1,,,,,,,,,,,,,,,,,,,,,,,,0.022400174,-0.400863715,0,0,0,,,,,,,SUNSET,HB,z,y,./images/SUNSETHB.png,,,,,,,,,,,,,,,,,,,,z,1,2.3632,,,,,,,,0,44,44,166,1
,,,,,,,,,,,,,,,,,,18,2022-02-12_13h14.31.891,lexical_decision_task_DD_L4,2021.2.3,MacIntel,59.99880002,,,,,,,,,,,,0.6906,1,,,,,,,,,,,,,,,,,,,,,,,,0.022400174,-0.400863715,0,0,0,,,,,,,ARTIST,HB,m,y,./images/ARTISTHB.png,,,,,,,,,,,,,,,,,,,,m,1,0.6906,,,,,,,,0,45,45,61,1
,,,,,,,,,,,,,,,,,,18,2022-02-12_13h14.31.891,lexical_decision_task_DD_L4,2021.2.3,MacIntel,59.99880002,,,,,,,,,,,,2.0752,1,,,,,,,,,,,,,,,,,,,,,,,,0.022400174,-0.400863715,0,0,0,,,,,,,GRAPE,HB,m,y,./images/GRAPEHB.png,,,,,,,,,,,,,,,,,,,,m,1,2.0752,,,,,,,,0,46,46,16,1
,,,,,,,,,,,,,,,,,,18,2022-02-12_13h14.31.891,lexical_decision_task_DD_L4,2021.2.3,MacIntel,59.99880002,,,,,,,,,,,,0.8673,1,,,,,,,,,,,,,,,,,,,,,,,,0.022400174,-0.400863715,0,0,0,,,,,,,CRADLE,LB,z,y,./images/CRADLELB.png,,,,,,,,,,,,,,,,,,,,z,1,0.8673,,,,,,,,0,47,47,104,1
,,,,,,,,,,,,,,,,,,18,2022-02-12_13h14.31.891,lexical_decision_task_DD_L4,2021.2.3,MacIntel,59.99880002,,,,,,,,,,,,0.8069,1,,,,,,,,,,,,,,,,,,,,,,,,0.022400174,-0.400863715,0,0,0,,,,,,,FARMER,LB,z,y,./images/FARMERLB.png,,,,,,,,,,,,,,,,,,,,z,1,0.8069,,,,,,,,0,48,48,149,1
,,,,,,,,,,,,,,,,,,18,2022-02-12_13h14.31.891,lexical_decision_task_DD_L4,2021.2.3,MacIntel,59.99880002,,,,,,,,,,,,0.846,1,,,,,,,,,,,,,,,,,,,,,,,,0.022400174,-0.400863715,0,0,0,,,,,,,STREAM,LB,m,y,./images/STREAMLB.png,,,,,,,,,,,,,,,,,,,,m,1,0.846,,,,,,,,0,49,49,41,1
,,,,,,,,,,,,,,,,,,18,2022-02-12_13h14.31.891,lexical_decision_task_DD_L4,2021.2.3,MacIntel,59.99880002,,,,,,,,,,,,0.6409,0,,,,,,,,,,,,,,,,,,,,,,,,0.022400174,-0.400863715,0,0,0,,,,,,,MIRROR,C,z,y,./images/MIRROR.png,,,,,,,,,,,,,,,,,,,,m,0,0.6409,,,,,,,,0,50,50,147,1
,,,,,,,,,,,,,,,,,,18,2022-02-12_13h14.31.891,lexical_decision_task_DD_L4,2021.2.3,MacIntel,59.99880002,,,,,,,,,,,,0.5966,1,,,,,,,,,,,,,,,,,,,,,,,,0.022400174,-0.400863715,0,0,0,,,,,,,HOCKEY,LB,m,y,./images/HOCKEYLB.png,,,,,,,,,,,,,,,,,,,,m,1,0.5966,,,,,,,,0,51,51,32,1
,,,,,,,,,,,,,,,,,,18,2022-02-12_13h14.31.891,lexical_decision_task_DD_L4,2021.2.3,MacIntel,59.99880002,,,,,,,,,,,,0.6919,1,,,,,,,,,,,,,,,,,,,,,,,,0.022400174,-0.400863715,0,0,0,,,,,,,MALLET,LB,z,y,./images/MALLETLB.png,,,,,,,,,,,,,,,,,,,,z,1,0.6919,,,,,,,,0,52,52,134,1
,,,,,,,,,,,,,,,,,,18,2022-02-12_13h14.31.891,lexical_decision_task_DD_L4,2021.2.3,MacIntel,59.99880002,,,,,,,,,,,,0.6827,1,,,,,,,,,,,,,,,,,,,,,,,,0.022400174,-0.400863715,0,0,0,,,,,,,GLOVE,HB,m,y,./images/GLOVEHB.png,,,,,,,,,,,,,,,,,,,,m,1,0.6827,,,,,,,,0,53,53,73,1
,,,,,,,,,,,,,,,,,,18,2022-02-12_13h14.31.891,lexical_decision_task_DD_L4,2021.2.3,MacIntel,59.99880002,,,,,,,,,,,,0.7431,1,,,,,,,,,,,,,,,,,,,,,,,,0.022400174,-0.400863715,0,0,0,,,,,,,PEACH,LB,z,y,./images/PEACHLB.png,,,,,,,,,,,,,,,,,,,,z,1,0.7431,,,,,,,,0,54,54,119,1
,,,,,,,,,,,,,,,,,,18,2022-02-12_13h14.31.891,lexical_decision_task_DD_L4,2021.2.3,MacIntel,59.99880002,,,,,,,,,,,,0.6488,1,,,,,,,,,,,,,,,,,,,,,,,,0.022400174,-0.400863715,0,0,0,,,,,,,URINE,HB,z,y,./images/URINEHB.png,,,,,,,,,,,,,,,,,,,,z,1,0.6488,,,,,,,,0,55,55,154,1
,,,,,,,,,,,,,,,,,,18,2022-02-12_13h14.31.891,lexical_decision_task_DD_L4,2021.2.3,MacIntel,59.99880002,,,,,,,,,,,,0.9445,1,,,,,,,,,,,,,,,,,,,,,,,,0.022400174,-0.400863715,0,0,0,,,,,,,PIMPLE,LB,z,y,./images/PIMPLELB.png,,,,,,,,,,,,,,,,,,,,z,1,0.9445,,,,,,,,0,56,56,155,1
,,,,,,,,,,,,,,,,,,18,2022-02-12_13h14.31.891,lexical_decision_task_DD_L4,2021.2.3,MacIntel,59.99880002,,,,,,,,,,,,1.0749,0,,,,,,,,,,,,,,,,,,,,,,,,0.022400174,-0.400863715,0,0,0,,,,,,,SHELF,C,z,y,./images/SHELF.png,,,,,,,,,,,,,,,,,,,,m,0,1.0749,,,,,,,,0,57,57,123,1
,,,,,,,,,,,,,,,,,,18,2022-02-12_13h14.31.891,lexical_decision_task_DD_L4,2021.2.3,MacIntel,59.99880002,,,,,,,,,,,,0.6763,1,,,,,,,,,,,,,,,,,,,,,,,,0.022400174,-0.400863715,0,0,0,,,,,,,BROOM,C,m,y,./images/BROOM.png,,,,,,,,,,,,,,,,,,,,m,1,0.6763,,,,,,,,0,58,58,78,1
,,,,,,,,,,,,,,,,,,18,2022-02-12_13h14.31.891,lexical_decision_task_DD_L4,2021.2.3,MacIntel,59.99880002,,,,,,,,,,,,0.7451,1,,,,,,,,,,,,,,,,,,,,,,,,0.022400174,-0.400863715,0,0,0,,,,,,,FLASK,C,m,y,./images/FLASK.png,,,,,,,,,,,,,,,,,,,,m,1,0.7451,,,,,,,,0,59,59,72,1
,,,,,,,,,,,,,,,,,,18,2022-02-12_13h14.31.891,lexical_decision_task_DD_L4,2021.2.3,MacIntel,59.99880002,,,,,,,,,,,,0.9078,1,,,,,,,,,,,,,,,,,,,,,,,,0.022400174,-0.400863715,0,0,0,,,,,,,STOOL,HB,m,y,./images/STOOLHB.png,,,,,,,,,,,,,,,,,,,,m,1,0.9078,,,,,,,,0,60,60,43,1
,,,,,,,,,,,,,,,,,,18,2022-02-12_13h14.31.891,lexical_decision_task_DD_L4,2021.2.3,MacIntel,59.99880002,,,,,,,,,,,,0.765,1,,,,,,,,,,,,,,,,,,,,,,,,0.022400174,-0.400863715,0,0,0,,,,,,,SAILOR,HB,z,y,./images/SAILORHB.png,,,,,,,,,,,,,,,,,,,,z,1,0.765,,,,,,,,0,61,61,151,1
,,,,,,,,,,,,,,,,,,18,2022-02-12_13h14.31.891,lexical_decision_task_DD_L4,2021.2.3,MacIntel,59.99880002,,,,,,,,,,,,0.7092,1,,,,,,,,,,,,,,,,,,,,,,,,0.022400174,-0.400863715,0,0,0,,,,,,,SKIING,LB,z,y,./images/SKIINGLB.png,,,,,,,,,,,,,,,,,,,,z,1,0.7092,,,,,,,,0,62,62,101,1
,,,,,,,,,,,,,,,,,,18,2022-02-12_13h14.31.891,lexical_decision_task_DD_L4,2021.2.3,MacIntel,59.99880002,,,,,,,,,,,,0.8157,1,,,,,,,,,,,,,,,,,,,,,,,,0.022400174,-0.400863715,0,0,0,,,,,,,JUMPER,LB,m,y,./images/JUMPERLB.png,,,,,,,,,,,,,,,,,,,,m,1,0.8157,,,,,,,,0,63,63,74,1
,,,,,,,,,,,,,,,,,,18,2022-02-12_13h14.31.891,lexical_decision_task_DD_L4,2021.2.3,MacIntel,59.99880002,,,,,,,,,,,,0.7928,1,,,,,,,,,,,,,,,,,,,,,,,,0.022400174,-0.400863715,0,0,0,,,,,,,BEARD,LB,z,y,./images/BEARDLB.png,,,,,,,,,,,,,,,,,,,,z,1,0.7928,,,,,,,,0,64,64,86,1
,,,,,,,,,,,,,,,,,,18,2022-02-12_13h14.31.891,lexical_decision_task_DD_L4,2021.2.3,MacIntel,59.99880002,,,,,,,,,,,,0.8092,1,,,,,,,,,,,,,,,,,,,,,,,,0.022400174,-0.400863715,0,0,0,,,,,,,CEMENT,LB,z,y,./images/CEMENTLB.png,,,,,,,,,,,,,,,,,,,,z,1,0.8092,,,,,,,,0,65,65,158,1
,,,,,,,,,,,,,,,,,,18,2022-02-12_13h14.31.891,lexical_decision_task_DD_L4,2021.2.3,MacIntel,59.99880002,,,,,,,,,,,,0.7906,1,,,,,,,,,,,,,,,,,,,,,,,,0.022400174,-0.400863715,0,0,0,,,,,,,PACKET,LB,z,y,./images/PACKETLB.png,,,,,,,,,,,,,,,,,,,,z,1,0.7906,,,,,,,,0,66,66,140,1
,,,,,,,,,,,,,,,,,,18,2022-02-12_13h14.31.891,lexical_decision_task_DD_L4,2021.2.3,MacIntel,59.99880002,,,,,,,,,,,,1.1586,1,,,,,,,,,,,,,,,,,,,,,,,,0.022400174,-0.400863715,0,0,0,,,,,,,POODLE,C,z,y,./images/POODLE.png,,,,,,,,,,,,,,,,,,,,z,1,1.1586,,,,,,,,0,67,67,165,1
,,,,,,,,,,,,,,,,,,18,2022-02-12_13h14.31.891,lexical_decision_task_DD_L4,2021.2.3,MacIntel,59.99880002,,,,,,,,,,,,0.8089,1,,,,,,,,,,,,,,,,,,,,,,,,0.022400174,-0.400863715,0,0,0,,,,,,,BURIAL,LB,z,y,./images/BURIALLB.png,,,,,,,,,,,,,,,,,,,,z,1,0.8089,,,,,,,,0,68,68,143,1
,,,,,,,,,,,,,,,,,,18,2022-02-12_13h14.31.891,lexical_decision_task_DD_L4,2021.2.3,MacIntel,59.99880002,,,,,,,,,,,,0.8257,1,,,,,,,,,,,,,,,,,,,,,,,,0.022400174,-0.400863715,0,0,0,,,,,,,BANNER,HB,z,y,./images/BANNERHB.png,,,,,,,,,,,,,,,,,,,,z,1,0.8257,,,,,,,,0,69,69,136,1
,,,,,,,,,,,,,,,,,,18,2022-02-12_13h14.31.891,lexical_decision_task_DD_L4,2021.2.3,MacIntel,59.99880002,,,,,,,,,,,,1.0631,1,,,,,,,,,,,,,,,,,,,,,,,,0.022400174,-0.400863715,0,0,0,,,,,,,STEAK,HB,m,y,./images/STEAKHB.png,,,,,,,,,,,,,,,,,,,,m,1,1.0631,,,,,,,,0,70,70,31,1
,,,,,,,,,,,,,,,,,,18,2022-02-12_13h14.31.891,lexical_decision_task_DD_L4,2021.2.3,MacIntel,59.99880002,,,,,,,,,,,,0.6096,1,,,,,,,,,,,,,,,,,,,,,,,,0.022400174,-0.400863715,0,0,0,,,,,,,BOXER,HB,m,y,./images/BOXERHB.png,,,,,,,,,,,,,,,,,,,,m,1,0.6096,,,,,,,,0,71,71,4,1
,,,,,,,,,,,,,,,,,,18,2022-02-12_13h14.31.891,lexical_decision_task_DD_L4,2021.2.3,MacIntel,59.99880002,,,,,,,,,,,,0.5473,1,,,,,,,,,,,,,,,,,,,,,,,,0.022400174,-0.400863715,0,0,0,,,,,,,CLOWN,HB,m,y,./images/CLOWNHB.png,,,,,,,,,,,,,,,,,,,,m,1,0.5473,,,,,,,,0,72,72,22,1
,,,,,,,,,,,,,,,,,,18,2022-02-12_13h14.31.891,lexical_decision_task_DD_L4,2021.2.3,MacIntel,59.99880002,,,,,,,,,,,,0.8142,1,,,,,,,,,,,,,,,,,,,,,,,,0.022400174,-0.400863715,0,0,0,,,,,,,COUCH,LB,z,y,./images/COUCHLB.png,,,,,,,,,,,,,,,,,,,,z,1,0.8142,,,,,,,,0,73,73,161,1
,,,,,,,,,,,,,,,,,,18,2022-02-12_13h14.31.891,lexical_decision_task_DD_L4,2021.2.3,MacIntel,59.99880002,,,,,,,,,,,,0.7461,1,,,,,,,,,,,,,,,,,,,,,,,,0.022400174,-0.400863715,0,0,0,,,,,,,SPINE,LB,m,y,./images/SPINELB.png,,,,,,,,,,,,,,,,,,,,m,1,0.7461,,,,,,,,0,74,74,65,1
,,,,,,,,,,,,,,,,,,18,2022-02-12_13h14.31.891,lexical_decision_task_DD_L4,2021.2.3,MacIntel,59.99880002,,,,,,,,,,,,0.7217,0,,,,,,,,,,,,,,,,,,,,,,,,0.022400174,-0.400863715,0,0,0,,,,,,,SHORE,C,z,y,./images/SHORE.png,,,,,,,,,,,,,,,,,,,,m,0,0.7217,,,,,,,,0,75,75,96,1
,,,,,,,,,,,,,,,,,,18,2022-02-12_13h14.31.891,lexical_decision_task_DD_L4,2021.2.3,MacIntel,59.99880002,,,,,,,,,,,,0.9815,0,,,,,,,,,,,,,,,,,,,,,,,,0.022400174,-0.400863715,0,0,0,,,,,,,PEBBLE,HB,m,y,./images/PEBBLEHB.png,,,,,,,,,,,,,,,,,,,,z,0,0.9815,,,,,,,,0,76,76,82,1
,,,,,,,,,,,,,,,,,,18,2022-02-12_13h14.31.891,lexical_decision_task_DD_L4,2021.2.3,MacIntel,59.99880002,,,,,,,,,,,,0.6167,1,,,,,,,,,,,,,,,,,,,,,,,,0.022400174,-0.400863715,0,0,0,,,,,,,BRUSH,LB,m,y,./images/BRUSHLB.png,,,,,,,,,,,,,,,,,,,,m,1,0.6167,,,,,,,,0,77,77,59,1
,,,,,,,,,,,,,,,,,,18,2022-02-12_13h14.31.891,lexical_decision_task_DD_L4,2021.2.3,MacIntel,59.99880002,,,,,,,,,,,,0.6257,1,,,,,,,,,,,,,,,,,,,,,,,,0.022400174,-0.400863715,0,0,0,,,,,,,COLLAR,C,m,y,./images/COLLAR.png,,,,,,,,,,,,,,,,,,,,m,1,0.6257,,,,,,,,0,78,78,15,1
,,,,,,,,,,,,,,,,,,18,2022-02-12_13h14.31.891,lexical_decision_task_DD_L4,2021.2.3,MacIntel,59.99880002,,,,,,,,,,,,0.697,1,,,,,,,,,,,,,,,,,,,,,,,,0.022400174,-0.400863715,0,0,0,,,,,,,TRIPOD,C,z,y,./images/TRIPOD.png,,,,,,,,,,,,,,,,,,,,z,1,0.697,,,,,,,,0,79,79,138,1
,,,,,,,,,,,,,,,,,,18,2022-02-12_13h14.31.891,lexical_decision_task_DD_L4,2021.2.3,MacIntel,59.99880002,,,,,,,,,,,,0.6591,1,,,,,,,,,,,,,,,,,,,,,,,,0.022400174,-0.400863715,0,0,0,,,,,,,FERRY,C,m,y,./images/FERRY.png,,,,,,,,,,,,,,,,,,,,m,1,0.6591,,,,,,,,0,80,80,57,1
,,,,,,,,,,,,,,,,,,18,2022-02-12_13h14.31.891,lexical_decision_task_DD_L4,2021.2.3,MacIntel,59.99880002,,,,,,,,,,,,0.9321,1,,,,,,,,,,,,,,,,,,,,,,,,0.022400174,-0.400863715,0,0,0,,,,,,,PURSE,LB,z,y,./images/PURSELB.png,,,,,,,,,,,,,,,,,,,,z,1,0.9321,,,,,,,,0,81,81,146,1
,,,,,,,,,,,,,,,,,,18,2022-02-12_13h14.31.891,lexical_decision_task_DD_L4,2021.2.3,MacIntel,59.99880002,,,,,,,,,,,,0.6451,1,,,,,,,,,,,,,,,,,,,,,,,,0.022400174,-0.400863715,0,0,0,,,,,,,SNAKE,HB,m,y,./images/SNAKEHB.png,,,,,,,,,,,,,,,,,,,,m,1,0.6451,,,,,,,,0,82,82,40,1
,,,,,,,,,,,,,,,,,,18,2022-02-12_13h14.31.891,lexical_decision_task_DD_L4,2021.2.3,MacIntel,59.99880002,,,,,,,,,,,,0.5642,1,,,,,,,,,,,,,,,,,,,,,,,,0.022400174,-0.400863715,0,0,0,space,,,,,,PLANET,LB,m,y,./images/PLANETLB.png,16.7497,,,,,,,,,,,,,,,,,,,m,1,0.5642,,,,,,,,0,83,83,80,1
,,,,,,,,,,,,,,,,,,18,2022-02-12_13h14.31.891,lexical_decision_task_DD_L4,2021.2.3,MacIntel,59.99880002,,,,,,,,,,,,1.1128,1,,,,,,,,,,,,,,,,,,,,,,,,0.022400174,-0.400863715,0,0,0,,,,,,,DONKEY,HB,m,y,./images/DONKEYHB.png,,,,,,,,,,,,,,,,,,,,m,1,1.1128,,,,,,,,0,84,84,19,1
,,,,,,,,,,,,,,,,,,18,2022-02-12_13h14.31.891,lexical_decision_task_DD_L4,2021.2.3,MacIntel,59.99880002,,,,,,,,,,,,0.7643,1,,,,,,,,,,,,,,,,,,,,,,,,0.022400174,-0.400863715,0,0,0,,,,,,,MEDAL,LB,m,y,./images/MEDALLB.png,,,,,,,,,,,,,,,,,,,,m,1,0.7643,,,,,,,,0,85,85,11,1
,,,,,,,,,,,,,,,,,,18,2022-02-12_13h14.31.891,lexical_decision_task_DD_L4,2021.2.3,MacIntel,59.99880002,,,,,,,,,,,,0.6394,1,,,,,,,,,,,,,,,,,,,,,,,,0.022400174,-0.400863715,0,0,0,,,,,,,CHERRY,C,m,y,./images/CHERRY.png,,,,,,,,,,,,,,,,,,,,m,1,0.6394,,,,,,,,0,86,86,54,1
,,,,,,,,,,,,,,,,,,18,2022-02-12_13h14.31.891,lexical_decision_task_DD_L4,2021.2.3,MacIntel,59.99880002,,,,,,,,,,,,3.2822,1,,,,,,,,,,,,,,,,,,,,,,,,0.022400174,-0.400863715,0,0,0,,,,,,,MUMMY,HB,m,y,./images/MUMMYHB.png,,,,,,,,,,,,,,,,,,,,m,1,3.2822,,,,,,,,0,87,87,46,1
,,,,,,,,,,,,,,,,,,18,2022-02-12_13h14.31.891,lexical_decision_task_DD_L4,2021.2.3,MacIntel,59.99880002,,,,,,,,,,,,1.3641,0,,,,,,,,,,,,,,,,,,,,,,,,0.022400174,-0.400863715,0,0,0,,,,,,,TOWEL,HB,m,y,./images/TOWELHB.png,,,,,,,,,,,,,,,,,,,,z,0,1.3641,,,,,,,,0,88,88,1,1
,,,,,,,,,,,,,,,,,,18,2022-02-12_13h14.31.891,lexical_decision_task_DD_L4,2021.2.3,MacIntel,59.99880002,,,,,,,,,,,,1.0657,1,,,,,,,,,,,,,,,,,,,,,,,,0.022400174,-0.400863715,0,0,0,,,,,,,MOOSE,C,z,y,./images/MOOSE.png,,,,,,,,,,,,,,,,,,,,z,1,1.0657,,,,,,,,0,89,89,141,1
,,,,,,,,,,,,,,,,,,18,2022-02-12_13h14.31.891,lexical_decision_task_DD_L4,2021.2.3,MacIntel,59.99880002,,,,,,,,,,,,0.6253,1,,,,,,,,,,,,,,,,,,,,,,,,0.022400174,-0.400863715,0,0,0,,,,,,,WHISKY,LB,m,y,./images/WHISKYLB.png,,,,,,,,,,,,,,,,,,,,m,1,0.6253,,,,,,,,0,90,90,83,1
,,,,,,,,,,,,,,,,,,18,2022-02-12_13h14.31.891,lexical_decision_task_DD_L4,2021.2.3,MacIntel,59.99880002,,,,,,,,,,,,0.6947,0,,,,,,,,,,,,,,,,,,,,,,,,0.022400174,-0.400863715,0,0,0,,,,,,,STORM,C,z,y,./images/STORM.png,,,,,,,,,,,,,,,,,,,,m,0,0.6947,,,,,,,,0,91,91,114,1
,,,,,,,,,,,,,,,,,,18,2022-02-12_13h14.31.891,lexical_decision_task_DD_L4,2021.2.3,MacIntel,59.99880002,,,,,,,,,,,,0.7024,1,,,,,,,,,,,,,,,,,,,,,,,,0.022400174,-0.400863715,0,0,0,,,,,,,STAIN,C,m,y,./images/STAIN.png,,,,,,,,,,,,,,,,,,,,m,1,0.7024,,,,,,,,0,92,92,6,1
,,,,,,,,,,,,,,,,,,18,2022-02-12_13h14.31.891,lexical_decision_task_DD_L4,2021.2.3,MacIntel,59.99880002,,,,,,,,,,,,0.6788,0,,,,,,,,,,,,,,,,,,,,,,,,0.022400174,-0.400863715,0,0,0,,,,,,,PENCE,HB,z,y,./images/PENCEHB.png,,,,,,,,,,,,,,,,,,,,m,0,0.6788,,,,,,,,0,93,93,100,1
,,,,,,,,,,,,,,,,,,18,2022-02-12_13h14.31.891,lexical_decision_task_DD_L4,2021.2.3,MacIntel,59.99880002,,,,,,,,,,,,3.7597,1,,,,,,,,,,,,,,,,,,,,,,,,0.022400174,-0.400863715,0,0,0,,,,,,,MONKEY,C,m,y,./images/MONKEY.png,,,,,,,,,,,,,,,,,,,,m,1,3.7597,,,,,,,,0,94,94,45,1
,,,,,,,,,,,,,,,,,,18,2022-02-12_13h14.31.891,lexical_decision_task_DD_L4,2021.2.3,MacIntel,59.99880002,,,,,,,,,,,,0.843,1,,,,,,,,,,,,,,,,,,,,,,,,0.022400174,-0.400863715,0,0,0,,,,,,,STOVE,LB,m,y,./images/STOVELB.png,,,,,,,,,,,,,,,,,,,,m,1,0.843,,,,,,,,0,95,95,2,1
,,,,,,,,,,,,,,,,,,18,2022-02-12_13h14.31.891,lexical_decision_task_DD_L4,2021.2.3,MacIntel,59.99880002,,,,,,,,,,,,1.3085,1,,,,,,,,,,,,,,,,,,,,,,,,0.022400174,-0.400863715,0,0,0,,,,,,,BOILER,C,m,y,./images/BOILER.png,,,,,,,,,,,,,,,,,,,,m,1,1.3085,,,,,,,,0,96,96,36,1
,,,,,,,,,,,,,,,,,,18,2022-02-12_13h14.31.891,lexical_decision_task_DD_L4,2021.2.3,MacIntel,59.99880002,,,,,,,,,,,,0.9584,0,,,,,,,,,,,,,,,,,,,,,,,,0.022400174,-0.400863715,0,0,0,,,,,,,VALLEY,LB,m,y,./images/VALLEYLB.png,,,,,,,,,,,,,,,,,,,,z,0,0.9584,,,,,,,,0,97,97,68,1
,,,,,,,,,,,,,,,,,,18,2022-02-12_13h14.31.891,lexical_decision_task_DD_L4,2021.2.3,MacIntel,59.99880002,,,,,,,,,,,,1.0274,1,,,,,,,,,,,,,,,,,,,,,,,,0.022400174,-0.400863715,0,0,0,,,,,,,SWEAT,C,z,y,./images/SWEAT.png,,,,,,,,,,,,,,,,,,,,z,1,1.0274,,,,,,,,0,98,98,150,1
,,,,,,,,,,,,,,,,,,18,2022-02-12_13h14.31.891,lexical_decision_task_DD_L4,2021.2.3,MacIntel,59.99880002,,,,,,,,,,,,0.9787,1,,,,,,,,,,,,,,,,,,,,,,,,0.022400174,-0.400863715,0,0,0,,,,,,,PASTA,LB,z,y,./images/PASTALB.png,,,,,,,,,,,,,,,,,,,,z,1,0.9787,,,,,,,,0,99,99,89,1
,,,,,,,,,,,,,,,,,,18,2022-02-12_13h14.31.891,lexical_decision_task_DD_L4,2021.2.3,MacIntel,59.99880002,,,,,,,,,,,,0.7504,1,,,,,,,,,,,,,,,,,,,,,,,,0.022400174,-0.400863715,0,0,0,,,,,,,SPORT,C,z,y,./images/SPORT.png,,,,,,,,,,,,,,,,,,,,z,1,0.7504,,,,,,,,0,100,100,132,1
,,,,,,,,,,,,,,,,,,18,2022-02-12_13h14.31.891,lexical_decision_task_DD_L4,2021.2.3,MacIntel,59.99880002,,,,,,,,,,,,0.6615,1,,,,,,,,,,,,,,,,,,,,,,,,0.022400174,-0.400863715,0,0,0,,,,,,,BLOKE,C,m,y,./images/BLOKE.png,,,,,,,,,,,,,,,,,,,,m,1,0.6615,,,,,,,,0,101,101,12,1
,,,,,,,,,,,,,,,,,,18,2022-02-12_13h14.31.891,lexical_decision_task_DD_L4,2021.2.3,MacIntel,59.99880002,,,,,,,,,,,,1.1472,1,,,,,,,,,,,,,,,,,,,,,,,,0.022400174,-0.400863715,0,0,0,,,,,,,SMOKER,LB,z,y,./images/SMOKERLB.png,,,,,,,,,,,,,,,,,,,,z,1,1.1472,,,,,,,,0,102,102,110,1
,,,,,,,,,,,,,,,,,,18,2022-02-12_13h14.31.891,lexical_decision_task_DD_L4,2021.2.3,MacIntel,59.99880002,,,,,,,,,,,,1.9421,1,,,,,,,,,,,,,,,,,,,,,,,,0.022400174,-0.400863715,0,0,0,,,,,,,RULER,HB,m,y,./images/RULERHB.png,,,,,,,,,,,,,,,,,,,,m,1,1.9421,,,,,,,,0,103,103,79,1
,,,,,,,,,,,,,,,,,,18,2022-02-12_13h14.31.891,lexical_decision_task_DD_L4,2021.2.3,MacIntel,59.99880002,,,,,,,,,,,,1.1078,0,,,,,,,,,,,,,,,,,,,,,,,,0.022400174,-0.400863715,0,0,0,,,,,,,BUBBLE,LB,m,y,./images/BUBBLELB.png,,,,,,,,,,,,,,,,,,,,z,0,1.1078,,,,,,,,0,104,104,71,1
,,,,,,,,,,,,,,,,,,18,2022-02-12_13h14.31.891,lexical_decision_task_DD_L4,2021.2.3,MacIntel,59.99880002,,,,,,,,,,,,0.8662,1,,,,,,,,,,,,,,,,,,,,,,,,0.022400174,-0.400863715,0,0,0,,,,,,,TIGER,HB,m,y,./images/TIGERHB.png,,,,,,,,,,,,,,,,,,,,m,1,0.8662,,,,,,,,0,105,105,37,1
,,,,,,,,,,,,,,,,,,18,2022-02-12_13h14.31.891,lexical_decision_task_DD_L4,2021.2.3,MacIntel,59.99880002,,,,,,,,,,,,1.6636,1,,,,,,,,,,,,,,,,,,,,,,,,0.022400174,-0.400863715,0,0,0,,,,,,,BUTTER,C,m,y,./images/BUTTER.png,,,,,,,,,,,,,,,,,,,,m,1,1.6636,,,,,,,,0,106,106,27,1
,,,,,,,,,,,,,,,,,,18,2022-02-12_13h14.31.891,lexical_decision_task_DD_L4,2021.2.3,MacIntel,59.99880002,,,,,,,,,,,,0.9696,1,,,,,,,,,,,,,,,,,,,,,,,,0.022400174,-0.400863715,0,0,0,,,,,,,STATUE,C,m,y,./images/STATUE.png,,,,,,,,,,,,,,,,,,,,m,1,0.9696,,,,,,,,0,107,107,66,1
,,,,,,,,,,,,,,,,,,18,2022-02-12_13h14.31.891,lexical_decision_task_DD_L4,2021.2.3,MacIntel,59.99880002,,,,,,,,,,,,0.9421,1,,,,,,,,,,,,,,,,,,,,,,,,0.022400174,-0.400863715,0,0,0,,,,,,,QUILL,HB,z,y,./images/QUILLHB.png,,,,,,,,,,,,,,,,,,,,z,1,0.9421,,,,,,,,0,108,108,115,1
,,,,,,,,,,,,,,,,,,18,2022-02-12_13h14.31.891,lexical_decision_task_DD_L4,2021.2.3,MacIntel,59.99880002,,,,,,,,,,,,1.0623,1,,,,,,,,,,,,,,,,,,,,,,,,0.022400174,-0.400863715,0,0,0,,,,,,,WALRUS,LB,z,y,./images/WALRUSLB.png,,,,,,,,,,,,,,,,,,,,z,1,1.0623,,,,,,,,0,109,109,107,1
,,,,,,,,,,,,,,,,,,18,2022-02-12_13h14.31.891,lexical_decision_task_DD_L4,2021.2.3,MacIntel,59.99880002,,,,,,,,,,,,0.9527,1,,,,,,,,,,,,,,,,,,,,,,,,0.022400174,-0.400863715,0,0,0,,,,,,,PEARL,HB,z,y,./images/PEARLHB.png,,,,,,,,,,,,,,,,,,,,z,1,0.9527,,,,,,,,0,110,110,130,1
,,,,,,,,,,,,,,,,,,18,2022-02-12_13h14.31.891,lexical_decision_task_DD_L4,2021.2.3,MacIntel,59.99880002,,,,,,,,,,,,1.0327,1,,,,,,,,,,,,,,,,,,,,,,,,0.022400174,-0.400863715,0,0,0,,,,,,,TULIP,LB,z,y,./images/TULIPLB.png,,,,,,,,,,,,,,,,,,,,z,1,1.0327,,,,,,,,0,111,111,92,1
,,,,,,,,,,,,,,,,,,18,2022-02-12_13h14.31.891,lexical_decision_task_DD_L4,2021.2.3,MacIntel,59.99880002,,,,,,,,,,,,0.7459,1,,,,,,,,,,,,,,,,,,,,,,,,0.022400174,-0.400863715,0,0,0,,,,,,,PARCEL,C,m,y,./images/PARCEL.png,,,,,,,,,,,,,,,,,,,,m,1,0.7459,,,,,,,,0,112,112,18,1
,,,,,,,,,,,,,,,,,,18,2022-02-12_13h14.31.891,lexical_decision_task_DD_L4,2021.2.3,MacIntel,59.99880002,,,,,,,,,,,,0.9453,0,,,,,,,,,,,,,,,,,,,,,,,,0.022400174,-0.400863715,0,0,0,,,,,,,PARADE,LB,m,y,./images/PARADELB.png,,,,,,,,,,,,,,,,,,,,z,0,0.9453,,,,,,,,0,113,113,17,1
,,,,,,,,,,,,,,,,,,18,2022-02-12_13h14.31.891,lexical_decision_task_DD_L4,2021.2.3,MacIntel,59.99880002,,,,,,,,,,,,0.5827,1,,,,,,,,,,,,,,,,,,,,,,,,0.022400174,-0.400863715,0,0,0,,,,,,,MAMMAL,LB,m,y,./images/MAMMALLB.png,,,,,,,,,,,,,,,,,,,,m,1,0.5827,,,,,,,,0,114,114,62,1
,,,,,,,,,,,,,,,,,,18,2022-02-12_13h14.31.891,lexical_decision_task_DD_L4,2021.2.3,MacIntel,59.99880002,,,,,,,,,,,,0.6305,1,,,,,,,,,,,,,,,,,,,,,,,,0.022400174,-0.400863715,0,0,0,,,,,,,LLAMA,LB,m,y,./images/LLAMALB.png,,,,,,,,,,,,,,,,,,,,m,1,0.6305,,,,,,,,0,115,115,35,1
,,,,,,,,,,,,,,,,,,18,2022-02-12_13h14.31.891,lexical_decision_task_DD_L4,2021.2.3,MacIntel,59.99880002,,,,,,,,,,,,0.6902,1,,,,,,,,,,,,,,,,,,,,,,,,0.022400174,-0.400863715,0,0,0,,,,,,,CURRY,C,m,y,./images/CURRY.png,,,,,,,,,,,,,,,,,,,,m,1,0.6902,,,,,,,,0,116,116,60,1
,,,,,,,,,,,,,,,,,,18,2022-02-12_13h14.31.891,lexical_decision_task_DD_L4,2021.2.3,MacIntel,59.99880002,,,,,,,,,,,,0.7168,1,,,,,,,,,,,,,,,,,,,,,,,,0.022400174,-0.400863715,0,0,0,,,,,,,SQUARE,C,z,y,./images/SQUARE.png,,,,,,,,,,,,,,,,,,,,z,1,0.7168,,,,,,,,0,117,117,90,1
,,,,,,,,,,,,,,,,,,18,2022-02-12_13h14.31.891,lexical_decision_task_DD_L4,2021.2.3,MacIntel,59.99880002,,,,,,,,,,,,0.897,1,,,,,,,,,,,,,,,,,,,,,,,,0.022400174,-0.400863715,0,0,0,,,,,,,ONION,C,z,y,./images/ONION.png,,,,,,,,,,,,,,,,,,,,z,1,0.897,,,,,,,,0,118,118,135,1
,,,,,,,,,,,,,,,,,,18,2022-02-12_13h14.31.891,lexical_decision_task_DD_L4,2021.2.3,MacIntel,59.99880002,,,,,,,,,,,,0.7458,1,,,,,,,,,,,,,,,,,,,,,,,,0.022400174,-0.400863715,0,0,0,,,,,,,PICKLE,LB,z,y,./images/PICKLELB.png,,,,,,,,,,,,,,,,,,,,z,1,0.7458,,,,,,,,0,119,119,98,1
,,,,,,,,,,,,,,,,,,18,2022-02-12_13h14.31.891,lexical_decision_task_DD_L4,2021.2.3,MacIntel,59.99880002,,,,,,,,,,,,1.0465,1,,,,,,,,,,,,,,,,,,,,,,,,0.022400174,-0.400863715,0,0,0,,,,,,,LAGOON,LB,m,y,./images/LAGOONLB.png,,,,,,,,,,,,,,,,,,,,m,1,1.0465,,,,,,,,0,120,120,47,1
,,,,,,,,,,,,,,,,,,18,2022-02-12_13h14.31.891,lexical_decision_task_DD_L4,2021.2.3,MacIntel,59.99880002,,,,,,,,,,,,0.7011,1,,,,,,,,,,,,,,,,,,,,,,,,0.022400174,-0.400863715,0,0,0,,,,,,,CLIFF,LB,m,y,./images/CLIFFLB.png,,,,,,,,,,,,,,,,,,,,m,1,0.7011,,,,,,,,0,121,121,8,1
,,,,,,,,,,,,,,,,,,18,2022-02-12_13h14.31.891,lexical_decision_task_DD_L4,2021.2.3,MacIntel,59.99880002,,,,,,,,,,,,0.9431,1,,,,,,,,,,,,,,,,,,,,,,,,0.022400174,-0.400863715,0,0,0,,,,,,,POKER,HB,m,y,./images/POKERHB.png,,,,,,,,,,,,,,,,,,,,m,1,0.9431,,,,,,,,0,122,122,67,1
,,,,,,,,,,,,,,,,,,18,2022-02-12_13h14.31.891,lexical_decision_task_DD_L4,2021.2.3,MacIntel,59.99880002,,,,,,,,,,,,0.6788,1,,,,,,,,,,,,,,,,,,,,,,,,0.022400174,-0.400863715,0,0,0,,,,,,,LIZARD,LB,z,y,./images/LIZARDLB.png,,,,,,,,,,,,,,,,,,,,z,1,0.6788,,,,,,,,0,123,123,128,1
,,,,,,,,,,,,,,,,,,18,2022-02-12_13h14.31.891,lexical_decision_task_DD_L4,2021.2.3,MacIntel,59.99880002,,,,,,,,,,,,0.7421,1,,,,,,,,,,,,,,,,,,,,,,,,0.022400174,-0.400863715,0,0,0,,,,,,,FALCON,HB,z,y,./images/FALCONHB.png,,,,,,,,,,,,,,,,,,,,z,1,0.7421,,,,,,,,0,124,124,112,1
,,,,,,,,,,,,,,,,,,18,2022-02-12_13h14.31.891,lexical_decision_task_DD_L4,2021.2.3,MacIntel,59.99880002,,,,,,,,,,,,0.6968,1,,,,,,,,,,,,,,,,,,,,,,,,0.022400174,-0.400863715,0,0,0,space,,,,,,KITTEN,C,z,y,./images/KITTEN.png,1.8593,,,,,,,,,,,,,,,,,,,z,1,0.6968,,,,,,,,0,125,125,129,1
,,,,,,,,,,,,,,,,,,18,2022-02-12_13h14.31.891,lexical_decision_task_DD_L4,2021.2.3,MacIntel,59.99880002,,,,,,,,,,,,0.9294,1,,,,,,,,,,,,,,,,,,,,,,,,0.022400174,-0.400863715,0,0,0,,,,,,,DESERT,HB,m,y,./images/DESERTHB.png,,,,,,,,,,,,,,,,,,,,m,1,0.9294,,,,,,,,0,126,126,52,1
,,,,,,,,,,,,,,,,,,18,2022-02-12_13h14.31.891,lexical_decision_task_DD_L4,2021.2.3,MacIntel,59.99880002,,,,,,,,,,,,1.3295,0,,,,,,,,,,,,,,,,,,,,,,,,0.022400174,-0.400863715,0,0,0,,,,,,,SHIELD,C,m,y,./images/SHIELD.png,,,,,,,,,,,,,,,,,,,,z,0,1.3295,,,,,,,,0,127,127,48,1
,,,,,,,,,,,,,,,,,,18,2022-02-12_13h14.31.891,lexical_decision_task_DD_L4,2021.2.3,MacIntel,59.99880002,,,,,,,,,,,,0.7123,1,,,,,,,,,,,,,,,,,,,,,,,,0.022400174,-0.400863715,0,0,0,,,,,,,COOKER,C,z,y,./images/COOKER.png,,,,,,,,,,,,,,,,,,,,z,1,0.7123,,,,,,,,0,128,128,153,1
,,,,,,,,,,,,,,,,,,18,2022-02-12_13h14.31.891,lexical_decision_task_DD_L4,2021.2.3,MacIntel,59.99880002,,,,,,,,,,,,0.6519,0,,,,,,,,,,,,,,,,,,,,,,,,0.022400174,-0.400863715,0,0,0,,,,,,,ATTIC,C,z,y,./images/ATTIC.png,,,,,,,,,,,,,,,,,,,,m,0,0.6519,,,,,,,,0,129,129,111,1
,,,,,,,,,,,,,,,,,,18,2022-02-12_13h14.31.891,lexical_decision_task_DD_L4,2021.2.3,MacIntel,59.99880002,,,,,,,,,,,,0.5953,0,,,,,,,,,,,,,,,,,,,,,,,,0.022400174,-0.400863715,0,0,0,,,,,,,MUSCLE,HB,z,y,./images/MUSCLEHB.png,,,,,,,,,,,,,,,,,,,,m,0,0.5953,,,,,,,,0,130,130,88,1
,,,,,,,,,,,,,,,,,,18,2022-02-12_13h14.31.891,lexical_decision_task_DD_L4,2021.2.3,MacIntel,59.99880002,,,,,,,,,,,,0.795,0,,,,,,,,,,,,,,,,,,,,,,,,0.022400174,-0.400863715,0,0,0,,,,,,,SNACK,HB,z,y,./images/SNACKHB.png,,,,,,,,,,,,,,,,,,,,m,0,0.795,,,,,,,,0,131,131,157,1
,,,,,,,,,,,,,,,,,,18,2022-02-12_13h14.31.891,lexical_decision_task_DD_L4,2021.2.3,MacIntel,59.99880002,,,,,,,,,,,,0.6672,1,,,,,,,,,,,,,,,,,,,,,,,,0.022400174,-0.400863715,0,0,0,,,,,,,MUFFIN,HB,z,y,./images/MUFFINHB.png,,,,,,,,,,,,,,,,,,,,z,1,0.6672,,,,,,,,0,132,132,139,1
,,,,,,,,,,,,,,,,,,18,2022-02-12_13h14.31.891,lexical_decision_task_DD_L4,2021.2.3,MacIntel,59.99880002,,,,,,,,,,,,0.6797,1,,,,,,,,,,,,,,,,,,,,,,,,0.022400174,-0.400863715,0,0,0,,,,,,,DANCER,C,m,y,./images/DANCER.png,,,,,,,,,,,,,,,,,,,,m,1,0.6797,,,,,,,,0,133,133,21,1
,,,,,,,,,,,,,,,,,,18,2022-02-12_13h14.31.891,lexical_decision_task_DD_L4,2021.2.3,MacIntel,59.99880002,,,,,,,,,,,,0.7139,1,,,,,,,,,,,,,,,,,,,,,,,,0.022400174,-0.400863715,0,0,0,,,,,,,GRANNY,LB,m,y,./images/GRANNYLB.png,,,,,,,,,,,,,,,,,,,,m,1,0.7139,,,,,,,,0,134,134,20,1
,,,,,,,,,,,,,,,,,,18,2022-02-12_13h14.31.891,lexical_decision_task_DD_L4,2021.2.3,MacIntel,59.99880002,,,,,,,,,,,,0.6754,1,,,,,,,,,,,,,,,,,,,,,,,,0.022400174,-0.400863715,0,0,0,,,,,,,FINGER,C,z,y,./images/FINGER.png,,,,,,,,,,,,,,,,,,,,z,1,0.6754,,,,,,,,0,135,135,87,1
,,,,,,,,,,,,,,,,,,18,2022-02-12_13h14.31.891,lexical_decision_task_DD_L4,2021.2.3,MacIntel,59.99880002,,,,,,,,,,,,0.5969,1,,,,,,,,,,,,,,,,,,,,,,,,0.022400174,-0.400863715,0,0,0,,,,,,,JAGUAR,C,z,y,./images/JAGUAR.png,,,,,,,,,,,,,,,,,,,,z,1,0.5969,,,,,,,,0,136,136,102,1
,,,,,,,,,,,,,,,,,,18,2022-02-12_13h14.31.891,lexical_decision_task_DD_L4,2021.2.3,MacIntel,59.99880002,,,,,,,,,,,,0.7124,0,,,,,,,,,,,,,,,,,,,,,,,,0.022400174,-0.400863715,0,0,0,,,,,,,SLOPE,C,m,y,./images/SLOPE.png,,,,,,,,,,,,,,,,,,,,z,0,0.7124,,,,,,,,0,137,137,30,1
,,,,,,,,,,,,,,,,,,18,2022-02-12_13h14.31.891,lexical_decision_task_DD_L4,2021.2.3,MacIntel,59.99880002,,,,,,,,,,,,0.7424,1,,,,,,,,,,,,,,,,,,,,,,,,0.022400174,-0.400863715,0,0,0,,,,,,,INFANT,HB,z,y,./images/INFANTHB.png,,,,,,,,,,,,,,,,,,,,z,1,0.7424,,,,,,,,0,138,138,160,1
,,,,,,,,,,,,,,,,,,18,2022-02-12_13h14.31.891,lexical_decision_task_DD_L4,2021.2.3,MacIntel,59.99880002,,,,,,,,,,,,0.817,1,,,,,,,,,,,,,,,,,,,,,,,,0.022400174,-0.400863715,0,0,0,,,,,,,ENGINE,LB,m,y,./images/ENGINELB.png,,,,,,,,,,,,,,,,,,,,m,1,0.817,,,,,,,,0,139,139,38,1
,,,,,,,,,,,,,,,,,,18,2022-02-12_13h14.31.891,lexical_decision_task_DD_L4,2021.2.3,MacIntel,59.99880002,,,,,,,,,,,,0.9156,1,,,,,,,,,,,,,,,,,,,,,,,,0.022400174,-0.400863715,0,0,0,,,,,,,MOSQUE,HB,z,y,./images/MOSQUEHB.png,,,,,,,,,,,,,,,,,,,,z,1,0.9156,,,,,,,,0,140,140,127,1
,,,,,,,,,,,,,,,,,,18,2022-02-12_13h14.31.891,lexical_decision_task_DD_L4,2021.2.3,MacIntel,59.99880002,,,,,,,,,,,,0.7639,1,,,,,,,,,,,,,,,,,,,,,,,,0.022400174,-0.400863715,0,0,0,,,,,,,GARDEN,HB,m,y,./images/GARDENHB.png,,,,,,,,,,,,,,,,,,,,m,1,0.7639,,,,,,,,0,141,141,10,1
,,,,,,,,,,,,,,,,,,18,2022-02-12_13h14.31.891,lexical_decision_task_DD_L4,2021.2.3,MacIntel,59.99880002,,,,,,,,,,,,0.7785,1,,,,,,,,,,,,,,,,,,,,,,,,0.022400174,-0.400863715,0,0,0,,,,,,,CARPET,LB,z,y,./images/CARPETLB.png,,,,,,,,,,,,,,,,,,,,z,1,0.7785,,,,,,,,0,142,142,137,1
,,,,,,,,,,,,,,,,,,18,2022-02-12_13h14.31.891,lexical_decision_task_DD_L4,2021.2.3,MacIntel,59.99880002,,,,,,,,,,,,0.8648,1,,,,,,,,,,,,,,,,,,,,,,,,0.022400174,-0.400863715,0,0,0,,,,,,,NOOSE,C,z,y,./images/NOOSE.png,,,,,,,,,,,,,,,,,,,,z,1,0.8648,,,,,,,,0,143,143,156,1
,,,,,,,,,,,,,,,,,,18,2022-02-12_13h14.31.891,lexical_decision_task_DD_L4,2021.2.3,MacIntel,59.99880002,,,,,,,,,,,,0.8522,1,,,,,,,,,,,,,,,,,,,,,,,,0.022400174,-0.400863715,0,0,0,,,,,,,GREASE,C,z,y,./images/GREASE.png,,,,,,,,,,,,,,,,,,,,z,1,0.8522,,,,,,,,0,144,144,99,1
,,,,,,,,,,,,,,,,,,18,2022-02-12_13h14.31.891,lexical_decision_task_DD_L4,2021.2.3,MacIntel,59.99880002,,,,,,,,,,,,1.2818,1,,,,,,,,,,,,,,,,,,,,,,,,0.022400174,-0.400863715,0,0,0,,,,,,,CANYON,HB,z,y,./images/CANYONHB.png,,,,,,,,,,,,,,,,,,,,z,1,1.2818,,,,,,,,0,145,145,118,1
,,,,,,,,,,,,,,,,,,18,2022-02-12_13h14.31.891,lexical_decision_task_DD_L4,2021.2.3,MacIntel,59.99880002,,,,,,,,,,,,0.763,1,,,,,,,,,,,,,,,,,,,,,,,,0.022400174,-0.400863715,0,0,0,,,,,,,BELLY,HB,z,y,./images/BELLYHB.png,,,,,,,,,,,,,,,,,,,,z,1,0.763,,,,,,,,0,146,146,94,1
,,,,,,,,,,,,,,,,,,18,2022-02-12_13h14.31.891,lexical_decision_task_DD_L4,2021.2.3,MacIntel,59.99880002,,,,,,,,,,,,1.4971,1,,,,,,,,,,,,,,,,,,,,,,,,0.022400174,-0.400863715,0,0,0,,,,,,,MOTOR,HB,z,y,./images/MOTORHB.png,,,,,,,,,,,,,,,,,,,,z,1,1.4971,,,,,,,,0,147,147,97,1
,,,,,,,,,,,,,,,,,,18,2022-02-12_13h14.31.891,lexical_decision_task_DD_L4,2021.2.3,MacIntel,59.99880002,,,,,,,,,,,,1.9616,0,,,,,,,,,,,,,,,,,,,,,,,,0.022400174,-0.400863715,0,0,0,,,,,,,SWING,HB,z,y,./images/SWINGHB.png,,,,,,,,,,,,,,,,,,,,m,0,1.9616,,,,,,,,0,148,148,124,1
,,,,,,,,,,,,,,,,,,18,2022-02-12_13h14.31.891,lexical_decision_task_DD_L4,2021.2.3,MacIntel,59.99880002,,,,,,,,,,,,0.5962,1,,,,,,,,,,,,,,,,,,,,,,,,0.022400174,-0.400863715,0,0,0,,,,,,,SAUNA,C,m,y,./images/SAUNA.png,,,,,,,,,,,,,,,,,,,,m,1,0.5962,,,,,,,,0,149,149,33,1
,,,,,,,,,,,,,,,,,,18,2022-02-12_13h14.31.891,lexical_decision_task_DD_L4,2021.2.3,MacIntel,59.99880002,,,,,,,,,,,,0.7462,1,,,,,,,,,,,,,,,,,,,,,,,,0.022400174,-0.400863715,0,0,0,,,,,,,TOMATO,C,z,y,./images/TOMATO.png,,,,,,,,,,,,,,,,,,,,z,1,0.7462,,,,,,,,0,150,150,84,1
,,,,,,,,,,,,,,,,,,18,2022-02-12_13h14.31.891,lexical_decision_task_DD_L4,2021.2.3,MacIntel,59.99880002,,,,,,,,,,,,1.6915,0,,,,,,,,,,,,,,,,,,,,,,,,0.022400174,-0.400863715,0,0,0,,,,,,,RHINO,C,z,y,./images/RHINO.png,,,,,,,,,,,,,,,,,,,,m,0,1.6915,,,,,,,,0,151,151,93,1
,,,,,,,,,,,,,,,,,,18,2022-02-12_13h14.31.891,lexical_decision_task_DD_L4,2021.2.3,MacIntel,59.99880002,,,,,,,,,,,,0.8014,1,,,,,,,,,,,,,,,,,,,,,,,,0.022400174,-0.400863715,0,0,0,,,,,,,MAGGOT,C,z,y,./images/MAGGOT.png,,,,,,,,,,,,,,,,,,,,z,1,0.8014,,,,,,,,0,152,152,117,1
,,,,,,,,,,,,,,,,,,18,2022-02-12_13h14.31.891,lexical_decision_task_DD_L4,2021.2.3,MacIntel,59.99880002,,,,,,,,,,,,0.7784,1,,,,,,,,,,,,,,,,,,,,,,,,0.022400174,-0.400863715,0,0,0,,,,,,,CRUMB,LB,z,y,./images/CRUMBLB.png,,,,,,,,,,,,,,,,,,,,z,1,0.7784,,,,,,,,0,153,153,113,1
,,,,,,,,,,,,,,,,,,18,2022-02-12_13h14.31.891,lexical_decision_task_DD_L4,2021.2.3,MacIntel,59.99880002,,,,,,,,,,,,0.5966,1,,,,,,,,,,,,,,,,,,,,,,,,0.022400174,-0.400863715,0,0,0,,,,,,,POSTER,LB,m,y,./images/POSTERLB.png,,,,,,,,,,,,,,,,,,,,m,1,0.5966,,,,,,,,0,154,154,53,1
,,,,,,,,,,,,,,,,,,18,2022-02-12_13h14.31.891,lexical_decision_task_DD_L4,2021.2.3,MacIntel,59.99880002,,,,,,,,,,,,0.6135,1,,,,,,,,,,,,,,,,,,,,,,,,0.022400174,-0.400863715,0,0,0,,,,,,,WALNUT,C,m,y,./images/WALNUT.png,,,,,,,,,,,,,,,,,,,,m,1,0.6135,,,,,,,,0,155,155,0,1
,,,,,,,,,,,,,,,,,,18,2022-02-12_13h14.31.891,lexical_decision_task_DD_L4,2021.2.3,MacIntel,59.99880002,,,,,,,,,,,,0.6627,0,,,,,,,,,,,,,,,,,,,,,,,,0.022400174,-0.400863715,0,0,0,,,,,,,SAUCE,C,m,y,./images/SAUCE.png,,,,,,,,,,,,,,,,,,,,z,0,0.6627,,,,,,,,0,156,156,51,1
