key_resp.keys,instr_done_touch.x,instr_done_touch.y,instr_done_touch.leftButton,instr_done_touch.midButton,instr_done_touch.rightButton,instr_done_touch.clicked_name,instruction_pages.thisRepN,instruction_pages.thisTrialN,instruction_pages.thisN,instruction_pages.thisIndex,instruction_pages.ran,pageN,phase,instruct_text,has_image,instruct_image,participant,age,date,expName,psychopyVersion,OS,frameRate,response.keys,response.corr,touch_resp.x,touch_resp.y,touch_resp.leftButton,touch_resp.midButton,touch_resp.rightButton,touch_resp.time,touch_resp.clicked_name,rt,corr,practrials.thisRepN,practrials.thisTrialN,practrials.thisN,practrials.thisIndex,practrials.ran,TrialID,Target,corrAns,end_of_practice_trials_pages.thisRepN,end_of_practice_trials_pages.thisTrialN,end_of_practice_trials_pages.thisN,end_of_practice_trials_pages.thisIndex,end_of_practice_trials_pages.ran,key_resp_2.keys,key_resp_2.corr,targ_click.x,targ_click.y,targ_click.leftButton,targ_click.midButton,targ_click.rightButton,targ_click.time,targ_click.clicked_name,break_done_touch.x,break_done_touch.y,break_done_touch.leftButton,break_done_touch.midButton,break_done_touch.rightButton,break_done_keyboard.keys,maintrials.thisRepN,maintrials.thisTrialN,maintrials.thisN,maintrials.thisIndex,maintrials.ran,string,blur,study,lex,stim_path,break_done_touch.clicked_name,mouse_2.x,mouse_2.y,mouse_2.leftButton,mouse_2.midButton,mouse_2.rightButton,mouse_2.clicked_name,slider.response,slider.rt,trials.thisRepN,trials.thisTrialN,trials.thisN,trials.thisIndex,trials.ran,test_instructions.thisRepN,test_instructions.thisTrialN,test_instructions.thisN,test_instructions.thisIndex,test_instructions.ran,key_resp_3.keys,key_resp_3.corr,test_click.x,test_click.y,test_click.leftButton,test_click.midButton,test_click.rightButton,test_click.time,test_click.clicked_name,test_phase.thisRepN,test_phase.thisTrialN,test_phase.thisN,test_phase.thisIndex,test_phase.ran
,0.092857143,-0.390816327,1,0,0,instr_done_button,0,0,0,0,1,1,instructions,"INSTRUCTIONS
At the start of each trial, look at the plus sign  (+) in the center of the screen.  This tells you that a trial is about to begin and where to look. Second, the plus sign will disappear and a string of letters will appear. Your task is to determine if the string of letters is a word or not. If the item is a word press the M key (on keyboard)  or touch the word button (phone/tablet).  If the item is not a word,  press the  Z key (on keyboard)  or touch the nonword button (on phone/tablet). 
Press the space bar or touch  continue.",0,,,39,2022-02-12_13h48.06.175,lexical_decision_task_DD_L4,2021.2.3,iPhone,62.5,,,,,,,,,,,,,,,,,,,,,,,,,,,,,,,,,,,,,,,,,,,,,,,,,,,,,,,,,,,,,,,,,,,,,,,,,,,,,,,,,,
,0.075510204,-0.393877551,1,0,0,instr_done_button,0,1,1,1,1,2,instructions,"If your device has a keyboard, press the 'Z' key for nonwords and the 'M' key for words.





Press the space bar or touch the button below to continue.",0,keyboard-example.gif,,39,2022-02-12_13h48.06.175,lexical_decision_task_DD_L4,2021.2.3,iPhone,62.5,,,,,,,,,,,,,,,,,,,,,,,,,,,,,,,,,,,,,,,,,,,,,,,,,,,,,,,,,,,,,,,,,,,,,,,,,,,,,,,,,,
,0.085714286,-0.419387755,1,0,0,instr_done_button,0,2,2,2,1,3,instructions,"If you are using a touchscreen only device, use the buttons on the screen. Do not use the mouse.





Press the space bar or touch the button below to continue.",0,touchscreen-example.gif,,39,2022-02-12_13h48.06.175,lexical_decision_task_DD_L4,2021.2.3,iPhone,62.5,,,,,,,,,,,,,,,,,,,,,,,,,,,,,,,,,,,,,,,,,,,,,,,,,,,,,,,,,,,,,,,,,,,,,,,,,,,,,,,,,,
,0.121428571,-0.424489796,1,0,0,instr_done_button,0,3,3,3,1,4,instructions,"It is very important that you respond as quickly and accurately as possible, as each letter string will only be on the screen for two seconds. If you do not respond within this time, the message 'Too slow!' will be displayed and the experiment will progress to the next letter string. The first 20 trials will be practice trials and you will receive feedback on your answers. 

Press the space bar or touch the button below to start the practice trials.",0,,,39,2022-02-12_13h48.06.175,lexical_decision_task_DD_L4,2021.2.3,iPhone,62.5,,,,,,,,,,,,,,,,,,,,,,,,,,,,,,,,,,,,,,,,,,,,,,,,,,,,,,,,,,,,,,,,,,,,,,,,,,,,,,,,,,
,,,,,,,,,,,,,,,,,,39,2022-02-12_13h48.06.175,lexical_decision_task_DD_L4,2021.2.3,iPhone,62.5,,0,-0.317346939,-0.340816327,1,0,0,1.658,button_left,1.658,0,0,0,0,5,1,1001,OBTAIN,m,,,,,,,,,,,,,,,,,,,,,,,,,,,,,,,,,,,,,,,,,,,,,,,,,,,,,,,,,,,,,,,
,,,,,,,,,,,,,,,,,,39,2022-02-12_13h48.06.175,lexical_decision_task_DD_L4,2021.2.3,iPhone,62.5,,0,0.352040816,-0.360204082,1,0,0,1.125,button_right,1.125,1,0,1,1,1,1,1001,ADJUST,m,,,,,,,,,,,,,,,,,,,,,,,,,,,,,,,,,,,,,,,,,,,,,,,,,,,,,,,,,,,,,,,
,,,,,,,,,,,,,,,,,,39,2022-02-12_13h48.06.175,lexical_decision_task_DD_L4,2021.2.3,iPhone,62.5,,0,0.36122449,-0.307142857,1,0,0,0.739,button_right,0.739,1,0,2,2,4,1,1001,SQUEAK,m,,,,,,,,,,,,,,,,,,,,,,,,,,,,,,,,,,,,,,,,,,,,,,,,,,,,,,,,,,,,,,,
,,,,,,,,,,,,,,,,,,39,2022-02-12_13h48.06.175,lexical_decision_task_DD_L4,2021.2.3,iPhone,62.5,,0,0.371428571,-0.260204082,1,0,0,0.54,button_right,0.54,1,0,3,3,7,1,1001,VOLUME,m,,,,,,,,,,,,,,,,,,,,,,,,,,,,,,,,,,,,,,,,,,,,,,,,,,,,,,,,,,,,,,,
,,,,,,,,,,,,,,,,,,39,2022-02-12_13h48.06.175,lexical_decision_task_DD_L4,2021.2.3,iPhone,62.5,,0,-0.348979592,-0.282653061,1,0,0,0.842,button_left,0.842,1,0,4,4,12,1,1001,SPRINY,z,,,,,,,,,,,,,,,,,,,,,,,,,,,,,,,,,,,,,,,,,,,,,,,,,,,,,,,,,,,,,,,
,,,,,,,,,,,,,,,,,,39,2022-02-12_13h48.06.175,lexical_decision_task_DD_L4,2021.2.3,iPhone,62.5,,0,0.368367347,-0.285714286,1,0,0,0.656,button_right,0.656,1,0,5,5,0,1,1001,UTOPIA,m,,,,,,,,,,,,,,,,,,,,,,,,,,,,,,,,,,,,,,,,,,,,,,,,,,,,,,,,,,,,,,,
,,,,,,,,,,,,,,,,,,39,2022-02-12_13h48.06.175,lexical_decision_task_DD_L4,2021.2.3,iPhone,62.5,,0,0.37244898,-0.285714286,1,0,0,1.192,button_right,1.192,0,0,6,6,10,1,1001,INLADE,z,,,,,,,,,,,,,,,,,,,,,,,,,,,,,,,,,,,,,,,,,,,,,,,,,,,,,,,,,,,,,,,
,,,,,,,,,,,,,,,,,,39,2022-02-12_13h48.06.175,lexical_decision_task_DD_L4,2021.2.3,iPhone,62.5,,0,-0.348979592,-0.314285714,1,0,0,0.774,button_left,0.774,1,0,7,7,11,1,1001,RASHET,z,,,,,,,,,,,,,,,,,,,,,,,,,,,,,,,,,,,,,,,,,,,,,,,,,,,,,,,,,,,,,,,
,,,,,,,,,,,,,,,,,,39,2022-02-12_13h48.06.175,lexical_decision_task_DD_L4,2021.2.3,iPhone,62.5,,0,0.38877551,-0.278571429,1,0,0,0.706,button_right,0.706,1,0,8,8,3,1,1001,MATRIX,m,,,,,,,,,,,,,,,,,,,,,,,,,,,,,,,,,,,,,,,,,,,,,,,,,,,,,,,,,,,,,,,
,,,,,,,,,,,,,,,,,,39,2022-02-12_13h48.06.175,lexical_decision_task_DD_L4,2021.2.3,iPhone,62.5,,0,-0.356122449,-0.306122449,1,0,0,0.672,button_left,0.672,1,0,9,9,15,1,1001,WHAISE,z,,,,,,,,,,,,,,,,,,,,,,,,,,,,,,,,,,,,,,,,,,,,,,,,,,,,,,,,,,,,,,,
,,,,,,,,,,,,,,,,,,39,2022-02-12_13h48.06.175,lexical_decision_task_DD_L4,2021.2.3,iPhone,62.5,,0,-0.334693878,-0.326530612,1,0,0,0.775,button_left,0.775,1,0,10,10,9,1,1001,FARINY,z,,,,,,,,,,,,,,,,,,,,,,,,,,,,,,,,,,,,,,,,,,,,,,,,,,,,,,,,,,,,,,,
,,,,,,,,,,,,,,,,,,39,2022-02-12_13h48.06.175,lexical_decision_task_DD_L4,2021.2.3,iPhone,62.5,,0,-0.355102041,-0.320408163,1,0,0,0.59,button_left,0.59,1,0,11,11,8,1,1001,ASLERT,z,,,,,,,,,,,,,,,,,,,,,,,,,,,,,,,,,,,,,,,,,,,,,,,,,,,,,,,,,,,,,,,
,,,,,,,,,,,,,,,,,,39,2022-02-12_13h48.06.175,lexical_decision_task_DD_L4,2021.2.3,iPhone,62.5,,0,0.368367347,-0.298979592,1,0,0,0.458,button_right,0.458,1,0,12,12,6,1,1001,ZOMBIE,m,,,,,,,,,,,,,,,,,,,,,,,,,,,,,,,,,,,,,,,,,,,,,,,,,,,,,,,,,,,,,,,
,,,,,,,,,,,,,,,,,,39,2022-02-12_13h48.06.175,lexical_decision_task_DD_L4,2021.2.3,iPhone,62.5,,0,-0.333673469,-0.310204082,1,0,0,0.557,button_left,0.557,1,0,13,13,14,1,1001,THRALE,z,,,,,,,,,,,,,,,,,,,,,,,,,,,,,,,,,,,,,,,,,,,,,,,,,,,,,,,,,,,,,,,
,,,,,,,,,,,,,,,,,,39,2022-02-12_13h48.06.175,lexical_decision_task_DD_L4,2021.2.3,iPhone,62.5,,0,0.382653061,-0.297959184,1,0,0,0.691,button_right,0.691,1,0,14,14,2,1,1001,ALMOND,m,,,,,,,,,,,,,,,,,,,,,,,,,,,,,,,,,,,,,,,,,,,,,,,,,,,,,,,,,,,,,,,
,,,,,,,,,,,,,,,,,,39,2022-02-12_13h48.06.175,lexical_decision_task_DD_L4,2021.2.3,iPhone,62.5,,0,-0.352040816,-0.321428571,1,0,0,0.639,button_left,0.639,1,0,15,15,13,1,1001,ROUPET,z,,,,,,,,,,,,,,,,,,,,,,,,,,,,,,,,,,,,,,,,,,,,,,,,,,,,,,,,,,,,,,,
,0.133673469,-0.41122449,1,0,0,instr_done_button,,,,,,1,end_of_practice,"You have completed the practice trials. During the experimental trials, you will not receive feedback. 
Before you begin, please ensure that you are in a comfortable and quiet location and will not be disturbed for about 15 minutes, as we cannot use your data if you do not complete all the trials. 
 When you are ready to start the experimental trials, please press space or touch the button below.",,,,39,2022-02-12_13h48.06.175,lexical_decision_task_DD_L4,2021.2.3,iPhone,62.5,,,,,,,,,,,,,,,,,,,,0,0,0,0,1,,,,,,,,,,,,,,,,,,,,,,,,,,,,,,,,,,,,,,,,,,,,,,,,,,,,,,,,,,
,,,,,,,,,,,,,,,,,,39,2022-02-12_13h48.06.175,lexical_decision_task_DD_L4,2021.2.3,iPhone,62.5,,,,,,,,,,0.737,1,,,,,,,,,,,,,,,0,-0.342857143,-0.321428571,1,0,0,0.737,button_left_main,-0.342857143,-0.321428571,1,0,0,,0,0,0,158,1,EGECT,LB,old,z,./images/EGECTLB.png,,,,,,,,,,,,,,,,,,,,,,,,,,,,,,,,,
,,,,,,,,,,,,,,,,,,39,2022-02-12_13h48.06.175,lexical_decision_task_DD_L4,2021.2.3,iPhone,62.5,,,,,,,,,,0.542,1,,,,,,,,,,,,,,,0,-0.345918367,-0.292857143,1,0,0,0.542,button_left_main,-0.345918367,-0.292857143,1,0,0,,0,1,1,117,1,STEEG,C,old,z,./images/STEEG.png,,,,,,,,,,,,,,,,,,,,,,,,,,,,,,,,,
,,,,,,,,,,,,,,,,,,39,2022-02-12_13h48.06.175,lexical_decision_task_DD_L4,2021.2.3,iPhone,62.5,,,,,,,,,,1.076,1,,,,,,,,,,,,,,,0,-0.33877551,-0.32755102,1,0,0,1.076,button_left_main,-0.33877551,-0.32755102,1,0,0,,0,2,2,109,1,BURGE,HB,old,z,./images/BURGEHB.png,,,,,,,,,,,,,,,,,,,,,,,,,,,,,,,,,
,,,,,,,,,,,,,,,,,,39,2022-02-12_13h48.06.175,lexical_decision_task_DD_L4,2021.2.3,iPhone,62.5,,,,,,,,,,1.092,1,,,,,,,,,,,,,,,0,-0.342857143,-0.332653061,1,0,0,1.092,button_left_main,-0.342857143,-0.332653061,1,0,0,,0,3,3,118,1,BAVEL,HB,old,z,./images/BAVELHB.png,,,,,,,,,,,,,,,,,,,,,,,,,,,,,,,,,
,,,,,,,,,,,,,,,,,,39,2022-02-12_13h48.06.175,lexical_decision_task_DD_L4,2021.2.3,iPhone,62.5,,,,,,,,,,0.507,1,,,,,,,,,,,,,,,0,0.355102041,-0.312244898,1,0,0,0.507,button_right_main,0.355102041,-0.312244898,1,0,0,,0,4,4,53,1,POSTER,LB,old,m,./images/POSTERLB.png,,,,,,,,,,,,,,,,,,,,,,,,,,,,,,,,,
,,,,,,,,,,,,,,,,,,39,2022-02-12_13h48.06.175,lexical_decision_task_DD_L4,2021.2.3,iPhone,62.5,,,,,,,,,,0.725,1,,,,,,,,,,,,,,,0,0.364285714,-0.313265306,1,0,0,0.725,button_right_main,0.364285714,-0.313265306,1,0,0,,0,5,5,13,1,BUNNY,HB,old,m,./images/BUNNYHB.png,,,,,,,,,,,,,,,,,,,,,,,,,,,,,,,,,
,,,,,,,,,,,,,,,,,,39,2022-02-12_13h48.06.175,lexical_decision_task_DD_L4,2021.2.3,iPhone,62.5,,,,,,,,,,0.492,1,,,,,,,,,,,,,,,0,0.358163265,-0.307142857,1,0,0,0.492,button_right_main,0.358163265,-0.307142857,1,0,0,,0,6,6,14,1,FENCE,LB,old,m,./images/FENCELB.png,,,,,,,,,,,,,,,,,,,,,,,,,,,,,,,,,
,,,,,,,,,,,,,,,,,,39,2022-02-12_13h48.06.175,lexical_decision_task_DD_L4,2021.2.3,iPhone,62.5,,,,,,,,,,0.658,1,,,,,,,,,,,,,,,0,-0.353061224,-0.313265306,1,0,0,0.658,button_left_main,-0.353061224,-0.313265306,1,0,0,,0,7,7,165,1,TROWN,C,old,z,./images/TROWN.png,,,,,,,,,,,,,,,,,,,,,,,,,,,,,,,,,
,,,,,,,,,,,,,,,,,,39,2022-02-12_13h48.06.175,lexical_decision_task_DD_L4,2021.2.3,iPhone,62.5,,,,,,,,,,0.692,1,,,,,,,,,,,,,,,0,0.36122449,-0.310204082,1,0,0,0.692,button_right_main,0.36122449,-0.310204082,1,0,0,,0,8,8,8,1,CLIFF,LB,old,m,./images/CLIFFLB.png,,,,,,,,,,,,,,,,,,,,,,,,,,,,,,,,,
,,,,,,,,,,,,,,,,,,39,2022-02-12_13h48.06.175,lexical_decision_task_DD_L4,2021.2.3,iPhone,62.5,,,,,,,,,,0.441,1,,,,,,,,,,,,,,,0,0.368367347,-0.302040816,1,0,0,0.441,button_right_main,0.368367347,-0.302040816,1,0,0,,0,9,9,75,1,HAMMER,C,old,m,./images/HAMMER.png,,,,,,,,,,,,,,,,,,,,,,,,,,,,,,,,,
,,,,,,,,,,,,,,,,,,39,2022-02-12_13h48.06.175,lexical_decision_task_DD_L4,2021.2.3,iPhone,62.5,,,,,,,,,,0.591,1,,,,,,,,,,,,,,,0,0.373469388,-0.301020408,1,0,0,0.591,button_right_main,0.373469388,-0.301020408,1,0,0,,0,10,10,65,1,SPINE,LB,old,m,./images/SPINELB.png,,,,,,,,,,,,,,,,,,,,,,,,,,,,,,,,,
,,,,,,,,,,,,,,,,,,39,2022-02-12_13h48.06.175,lexical_decision_task_DD_L4,2021.2.3,iPhone,62.5,,,,,,,,,,0.825,1,,,,,,,,,,,,,,,0,-0.341836735,-0.347959184,1,0,0,0.825,button_left_main,-0.341836735,-0.347959184,1,0,0,,0,11,11,163,1,GAMBA,HB,old,z,./images/GAMBAHB.png,,,,,,,,,,,,,,,,,,,,,,,,,,,,,,,,,
,,,,,,,,,,,,,,,,,,39,2022-02-12_13h48.06.175,lexical_decision_task_DD_L4,2021.2.3,iPhone,62.5,,,,,,,,,,1.544,1,,,,,,,,,,,,,,,0,-0.332653061,-0.351020408,1,0,0,1.544,button_left_main,-0.332653061,-0.351020408,1,0,0,,0,12,12,151,1,TINKY,HB,old,z,./images/TINKYHB.png,,,,,,,,,,,,,,,,,,,,,,,,,,,,,,,,,
,,,,,,,,,,,,,,,,,,39,2022-02-12_13h48.06.175,lexical_decision_task_DD_L4,2021.2.3,iPhone,62.5,,,,,,,,,,0.942,1,,,,,,,,,,,,,,,0,-0.358163265,-0.316326531,1,0,0,0.942,button_left_main,-0.358163265,-0.316326531,1,0,0,,0,13,13,103,1,FLORT,HB,old,z,./images/FLORTHB.png,,,,,,,,,,,,,,,,,,,,,,,,,,,,,,,,,
,,,,,,,,,,,,,,,,,,39,2022-02-12_13h48.06.175,lexical_decision_task_DD_L4,2021.2.3,iPhone,62.5,,,,,,,,,,0.507,1,,,,,,,,,,,,,,,0,0.363265306,-0.306122449,1,0,0,0.507,button_right_main,0.363265306,-0.306122449,1,0,0,,0,14,14,51,1,SAUCE,C,old,m,./images/SAUCE.png,,,,,,,,,,,,,,,,,,,,,,,,,,,,,,,,,
,,,,,,,,,,,,,,,,,,39,2022-02-12_13h48.06.175,lexical_decision_task_DD_L4,2021.2.3,iPhone,62.5,,,,,,,,,,0.441,1,,,,,,,,,,,,,,,0,0.369387755,-0.291836735,1,0,0,0.441,button_right_main,0.369387755,-0.291836735,1,0,0,,0,15,15,26,1,CLOUD,LB,old,m,./images/CLOUDLB.png,,,,,,,,,,,,,,,,,,,,,,,,,,,,,,,,,
,,,,,,,,,,,,,,,,,,39,2022-02-12_13h48.06.175,lexical_decision_task_DD_L4,2021.2.3,iPhone,62.5,,,,,,,,,,0.592,1,,,,,,,,,,,,,,,0,0.373469388,-0.28877551,1,0,0,0.592,button_right_main,0.373469388,-0.28877551,1,0,0,,0,16,16,31,1,STEAK,HB,old,m,./images/STEAKHB.png,,,,,,,,,,,,,,,,,,,,,,,,,,,,,,,,,
,,,,,,,,,,,,,,,,,,39,2022-02-12_13h48.06.175,lexical_decision_task_DD_L4,2021.2.3,iPhone,62.5,,,,,,,,,,0.475,1,,,,,,,,,,,,,,,0,0.370408163,-0.298979592,1,0,0,0.475,button_right_main,0.370408163,-0.298979592,1,0,0,,0,17,17,80,1,PLANET,LB,old,m,./images/PLANETLB.png,,,,,,,,,,,,,,,,,,,,,,,,,,,,,,,,,
,,,,,,,,,,,,,,,,,,39,2022-02-12_13h48.06.175,lexical_decision_task_DD_L4,2021.2.3,iPhone,62.5,,,,,,,,,,0.757,0,,,,,,,,,,,,,,,0,0.369387755,-0.316326531,1,0,0,0.757,button_right_main,0.369387755,-0.316326531,1,0,0,,0,18,18,137,1,JOOST,LB,old,z,./images/JOOSTLB.png,,,,,,,,,,,,,,,,,,,,,,,,,,,,,,,,,
,,,,,,,,,,,,,,,,,,39,2022-02-12_13h48.06.175,lexical_decision_task_DD_L4,2021.2.3,iPhone,62.5,,,,,,,,,,0.525,1,,,,,,,,,,,,,,,0,0.371428571,-0.310204082,1,0,0,0.525,button_right_main,0.371428571,-0.310204082,1,0,0,,0,19,19,71,1,BUBBLE,LB,old,m,./images/BUBBLELB.png,,,,,,,,,,,,,,,,,,,,,,,,,,,,,,,,,
,,,,,,,,,,,,,,,,,,39,2022-02-12_13h48.06.175,lexical_decision_task_DD_L4,2021.2.3,iPhone,62.5,,,,,,,,,,0.741,1,,,,,,,,,,,,,,,0,0.374489796,-0.307142857,1,0,0,0.741,button_right_main,0.374489796,-0.307142857,1,0,0,,0,20,20,12,1,BLOKE,C,old,m,./images/BLOKE.png,,,,,,,,,,,,,,,,,,,,,,,,,,,,,,,,,
,,,,,,,,,,,,,,,,,,39,2022-02-12_13h48.06.175,lexical_decision_task_DD_L4,2021.2.3,iPhone,62.5,,,,,,,,,,0.807,1,,,,,,,,,,,,,,,0,-0.320408163,-0.318367347,1,0,0,0.807,button_left_main,-0.320408163,-0.318367347,1,0,0,,0,21,21,85,1,CHULK,HB,old,z,./images/CHULKHB.png,,,,,,,,,,,,,,,,,,,,,,,,,,,,,,,,,
,,,,,,,,,,,,,,,,,,39,2022-02-12_13h48.06.175,lexical_decision_task_DD_L4,2021.2.3,iPhone,62.5,,,,,,,,,,0.558,1,,,,,,,,,,,,,,,0,0.362244898,-0.313265306,1,0,0,0.558,button_right_main,0.362244898,-0.313265306,1,0,0,,0,22,22,54,1,CHERRY,C,old,m,./images/CHERRY.png,,,,,,,,,,,,,,,,,,,,,,,,,,,,,,,,,
,,,,,,,,,,,,,,,,,,39,2022-02-12_13h48.06.175,lexical_decision_task_DD_L4,2021.2.3,iPhone,62.5,,,,,,,,,,0.726,1,,,,,,,,,,,,,,,0,-0.335714286,-0.309183673,1,0,0,0.726,button_left_main,-0.335714286,-0.309183673,1,0,0,,0,23,23,147,1,ZOLES,C,old,z,./images/ZOLES.png,,,,,,,,,,,,,,,,,,,,,,,,,,,,,,,,,
,,,,,,,,,,,,,,,,,,39,2022-02-12_13h48.06.175,lexical_decision_task_DD_L4,2021.2.3,iPhone,62.5,,,,,,,,,,1.043,0,,,,,,,,,,,,,,,0,0.368367347,-0.308163265,1,0,0,1.043,button_right_main,0.368367347,-0.308163265,1,0,0,,0,24,24,133,1,POWDY,HB,old,z,./images/POWDYHB.png,,,,,,,,,,,,,,,,,,,,,,,,,,,,,,,,,
,,,,,,,,,,,,,,,,,,39,2022-02-12_13h48.06.175,lexical_decision_task_DD_L4,2021.2.3,iPhone,62.5,,,,,,,,,,0.657,1,,,,,,,,,,,,,,,0,0.374489796,-0.306122449,1,0,0,0.657,button_right_main,0.374489796,-0.306122449,1,0,0,,0,25,25,49,1,BISHOP,HB,old,m,./images/BISHOPHB.png,,,,,,,,,,,,,,,,,,,,,,,,,,,,,,,,,
,,,,,,,,,,,,,,,,,,39,2022-02-12_13h48.06.175,lexical_decision_task_DD_L4,2021.2.3,iPhone,62.5,,,,,,,,,,0.875,1,,,,,,,,,,,,,,,0,0.363265306,-0.318367347,1,0,0,0.875,button_right_main,0.363265306,-0.318367347,1,0,0,,0,26,26,79,1,RULER,HB,old,m,./images/RULERHB.png,,,,,,,,,,,,,,,,,,,,,,,,,,,,,,,,,
,,,,,,,,,,,,,,,,,,39,2022-02-12_13h48.06.175,lexical_decision_task_DD_L4,2021.2.3,iPhone,62.5,,,,,,,,,,0.524,1,,,,,,,,,,,,,,,0,0.375510204,-0.3,1,0,0,0.524,button_right_main,0.375510204,-0.3,1,0,0,,0,27,27,74,1,JUMPER,LB,old,m,./images/JUMPERLB.png,,,,,,,,,,,,,,,,,,,,,,,,,,,,,,,,,
,,,,,,,,,,,,,,,,,,39,2022-02-12_13h48.06.175,lexical_decision_task_DD_L4,2021.2.3,iPhone,62.5,,,,,,,,,,0.809,1,,,,,,,,,,,,,,,0,-0.331632653,-0.314285714,1,0,0,0.809,button_left_main,-0.331632653,-0.314285714,1,0,0,,0,28,28,124,1,TUNCH,HB,old,z,./images/TUNCHHB.png,,,,,,,,,,,,,,,,,,,,,,,,,,,,,,,,,
,,,,,,,,,,,,,,,,,,39,2022-02-12_13h48.06.175,lexical_decision_task_DD_L4,2021.2.3,iPhone,62.5,,,,,,,,,,0.625,1,,,,,,,,,,,,,,,0,-0.331632653,-0.298979592,1,0,0,0.625,button_left_main,-0.331632653,-0.298979592,1,0,0,,0,29,29,129,1,PRANS,C,old,z,./images/PRANS.png,,,,,,,,,,,,,,,,,,,,,,,,,,,,,,,,,
,,,,,,,,,,,,,,,,,,39,2022-02-12_13h48.06.175,lexical_decision_task_DD_L4,2021.2.3,iPhone,62.5,,,,,,,,,,0.658,1,,,,,,,,,,,,,,,0,0.371428571,-0.306122449,1,0,0,0.658,button_right_main,0.371428571,-0.306122449,1,0,0,,0,30,30,42,1,CHAIN,C,old,m,./images/CHAIN.png,,,,,,,,,,,,,,,,,,,,,,,,,,,,,,,,,
,,,,,,,,,,,,,,,,,,39,2022-02-12_13h48.06.175,lexical_decision_task_DD_L4,2021.2.3,iPhone,62.5,,,,,,,,,,0.596,1,,,,,,,,,,,,,,,0,-0.333673469,-0.308163265,1,0,0,0.596,button_left_main,-0.333673469,-0.308163265,1,0,0,,0,31,31,135,1,JOODY,C,old,z,./images/JOODY.png,,,,,,,,,,,,,,,,,,,,,,,,,,,,,,,,,
,,,,,,,,,,,,,,,,,,39,2022-02-12_13h48.06.175,lexical_decision_task_DD_L4,2021.2.3,iPhone,62.5,,,,,,,,,,0.758,1,,,,,,,,,,,,,,,0,-0.332653061,-0.340816327,1,0,0,0.758,button_left_main,-0.332653061,-0.340816327,1,0,0,,0,32,32,91,1,SHENS,HB,old,z,./images/SHENSHB.png,,,,,,,,,,,,,,,,,,,,,,,,,,,,,,,,,
,,,,,,,,,,,,,,,,,,39,2022-02-12_13h48.06.175,lexical_decision_task_DD_L4,2021.2.3,iPhone,62.5,,,,,,,,,,0.658,1,,,,,,,,,,,,,,,0,-0.336734694,-0.317346939,1,0,0,0.658,button_left_main,-0.336734694,-0.317346939,1,0,0,,0,33,33,95,1,HANTY,LB,old,z,./images/HANTYLB.png,,,,,,,,,,,,,,,,,,,,,,,,,,,,,,,,,
,,,,,,,,,,,,,,,,,,39,2022-02-12_13h48.06.175,lexical_decision_task_DD_L4,2021.2.3,iPhone,62.5,,,,,,,,,,0.474,1,,,,,,,,,,,,,,,0,0.374489796,-0.313265306,1,0,0,0.474,button_right_main,0.374489796,-0.313265306,1,0,0,,0,34,34,38,1,ENGINE,LB,old,m,./images/ENGINELB.png,,,,,,,,,,,,,,,,,,,,,,,,,,,,,,,,,
,,,,,,,,,,,,,,,,,,39,2022-02-12_13h48.06.175,lexical_decision_task_DD_L4,2021.2.3,iPhone,62.5,,,,,,,,,,0.592,1,,,,,,,,,,,,,,,0,-0.336734694,-0.325510204,1,0,0,0.592,button_left_main,-0.336734694,-0.325510204,1,0,0,,0,35,35,119,1,PAFER,LB,old,z,./images/PAFERLB.png,,,,,,,,,,,,,,,,,,,,,,,,,,,,,,,,,
,,,,,,,,,,,,,,,,,,39,2022-02-12_13h48.06.175,lexical_decision_task_DD_L4,2021.2.3,iPhone,62.5,,,,,,,,,,0.641,1,,,,,,,,,,,,,,,0,-0.334693878,-0.326530612,1,0,0,0.641,button_left_main,-0.334693878,-0.326530612,1,0,0,,0,36,36,110,1,CRUNK,LB,old,z,./images/CRUNKLB.png,,,,,,,,,,,,,,,,,,,,,,,,,,,,,,,,,
,,,,,,,,,,,,,,,,,,39,2022-02-12_13h48.06.175,lexical_decision_task_DD_L4,2021.2.3,iPhone,62.5,,,,,,,,,,0.675,1,,,,,,,,,,,,,,,0,-0.336734694,-0.344897959,1,0,0,0.675,button_left_main,-0.336734694,-0.344897959,1,0,0,,0,37,37,123,1,SEDGE,C,old,z,./images/SEDGE.png,,,,,,,,,,,,,,,,,,,,,,,,,,,,,,,,,
,,,,,,,,,,,,,,,,,,39,2022-02-12_13h48.06.175,lexical_decision_task_DD_L4,2021.2.3,iPhone,62.5,,,,,,,,,,0.742,1,,,,,,,,,,,,,,,0,0.382653061,-0.306122449,1,0,0,0.742,button_right_main,0.382653061,-0.306122449,1,0,0,,0,38,38,40,1,SNAKE,HB,old,m,./images/SNAKEHB.png,,,,,,,,,,,,,,,,,,,,,,,,,,,,,,,,,
,,,,,,,,,,,,,,,,,,39,2022-02-12_13h48.06.175,lexical_decision_task_DD_L4,2021.2.3,iPhone,62.5,,,,,,,,,,0.491,1,,,,,,,,,,,,,,,0,0.375510204,-0.310204082,1,0,0,0.491,button_right_main,0.375510204,-0.310204082,1,0,0,,0,39,39,50,1,PILOT,LB,old,m,./images/PILOTLB.png,,,,,,,,,,,,,,,,,,,,,,,,,,,,,,,,,
,,,,,,,,,,,,,,,,,,39,2022-02-12_13h48.06.175,lexical_decision_task_DD_L4,2021.2.3,iPhone,62.5,,,,,,,,,,0.674,1,,,,,,,,,,,,,,,0,0.373469388,-0.312244898,1,0,0,0.674,button_right_main,0.373469388,-0.312244898,1,0,0,,0,40,40,25,1,CHALK,HB,old,m,./images/CHALKHB.png,,,,,,,,,,,,,,,,,,,,,,,,,,,,,,,,,
,,,,,,,,,,,,,,,,,,39,2022-02-12_13h48.06.175,lexical_decision_task_DD_L4,2021.2.3,iPhone,62.5,,,,,,,,,,0.725,0,,,,,,,,,,,,,,,0,-0.333673469,-0.334693878,1,0,0,0.725,button_left_main,0.157142857,-0.394897959,1,0,0,,0,41,41,73,1,GLOVE,HB,old,m,./images/GLOVEHB.png,break_done_button,,,,,,,,,,,,,,,,,,,,,,,,,,,,,,,,
,,,,,,,,,,,,,,,,,,39,2022-02-12_13h48.06.175,lexical_decision_task_DD_L4,2021.2.3,iPhone,62.5,,,,,,,,,,0.726,1,,,,,,,,,,,,,,,0,-0.334693878,-0.320408163,1,0,0,0.726,button_left_main,-0.334693878,-0.320408163,1,0,0,,0,42,42,114,1,RIKES,C,old,z,./images/RIKES.png,,,,,,,,,,,,,,,,,,,,,,,,,,,,,,,,,
,,,,,,,,,,,,,,,,,,39,2022-02-12_13h48.06.175,lexical_decision_task_DD_L4,2021.2.3,iPhone,62.5,,,,,,,,,,0.474,1,,,,,,,,,,,,,,,0,0.373469388,-0.292857143,1,0,0,0.474,button_right_main,0.373469388,-0.292857143,1,0,0,,0,43,43,29,1,PISTOL,LB,old,m,./images/PISTOLLB.png,,,,,,,,,,,,,,,,,,,,,,,,,,,,,,,,,
,,,,,,,,,,,,,,,,,,39,2022-02-12_13h48.06.175,lexical_decision_task_DD_L4,2021.2.3,iPhone,62.5,,,,,,,,,,0.791,1,,,,,,,,,,,,,,,0,0.37244898,-0.3,1,0,0,0.791,button_right_main,0.37244898,-0.3,1,0,0,,0,44,44,3,1,CRATER,C,old,m,./images/CRATER.png,,,,,,,,,,,,,,,,,,,,,,,,,,,,,,,,,
,,,,,,,,,,,,,,,,,,39,2022-02-12_13h48.06.175,lexical_decision_task_DD_L4,2021.2.3,iPhone,62.5,,,,,,,,,,0.623,1,,,,,,,,,,,,,,,0,0.368367347,-0.304081633,1,0,0,0.623,button_right_main,0.368367347,-0.304081633,1,0,0,,0,45,45,58,1,CANOE,HB,old,m,./images/CANOEHB.png,,,,,,,,,,,,,,,,,,,,,,,,,,,,,,,,,
,,,,,,,,,,,,,,,,,,39,2022-02-12_13h48.06.175,lexical_decision_task_DD_L4,2021.2.3,iPhone,62.5,,,,,,,,,,0.925,1,,,,,,,,,,,,,,,0,0.37244898,-0.307142857,1,0,0,0.925,button_right_main,0.37244898,-0.307142857,1,0,0,,0,46,46,15,1,COLLAR,C,old,m,./images/COLLAR.png,,,,,,,,,,,,,,,,,,,,,,,,,,,,,,,,,
,,,,,,,,,,,,,,,,,,39,2022-02-12_13h48.06.175,lexical_decision_task_DD_L4,2021.2.3,iPhone,62.5,,,,,,,,,,0.475,1,,,,,,,,,,,,,,,0,0.363265306,-0.310204082,1,0,0,0.475,button_right_main,0.363265306,-0.310204082,1,0,0,,0,47,47,17,1,PARADE,LB,old,m,./images/PARADELB.png,,,,,,,,,,,,,,,,,,,,,,,,,,,,,,,,,
,,,,,,,,,,,,,,,,,,39,2022-02-12_13h48.06.175,lexical_decision_task_DD_L4,2021.2.3,iPhone,62.5,,,,,,,,,,0.524,1,,,,,,,,,,,,,,,0,0.37244898,-0.3,1,0,0,0.524,button_right_main,0.37244898,-0.3,1,0,0,,0,48,48,69,1,ARROW,C,old,m,./images/ARROW.png,,,,,,,,,,,,,,,,,,,,,,,,,,,,,,,,,
,,,,,,,,,,,,,,,,,,39,2022-02-12_13h48.06.175,lexical_decision_task_DD_L4,2021.2.3,iPhone,62.5,,,,,,,,,,0.859,1,,,,,,,,,,,,,,,0,-0.342857143,-0.329591837,1,0,0,0.859,button_left_main,-0.342857143,-0.329591837,1,0,0,,0,49,49,140,1,DOVET,LB,old,z,./images/DOVETLB.png,,,,,,,,,,,,,,,,,,,,,,,,,,,,,,,,,
,,,,,,,,,,,,,,,,,,39,2022-02-12_13h48.06.175,lexical_decision_task_DD_L4,2021.2.3,iPhone,62.5,,,,,,,,,,0.828,1,,,,,,,,,,,,,,,0,0.371428571,-0.298979592,1,0,0,0.828,button_right_main,0.371428571,-0.298979592,1,0,0,,0,50,50,20,1,GRANNY,LB,old,m,./images/GRANNYLB.png,,,,,,,,,,,,,,,,,,,,,,,,,,,,,,,,,
,,,,,,,,,,,,,,,,,,39,2022-02-12_13h48.06.175,lexical_decision_task_DD_L4,2021.2.3,iPhone,62.5,,,,,,,,,,0.64,1,,,,,,,,,,,,,,,0,0.374489796,-0.303061224,1,0,0,0.64,button_right_main,0.374489796,-0.303061224,1,0,0,,0,51,51,43,1,STOOL,HB,old,m,./images/STOOLHB.png,,,,,,,,,,,,,,,,,,,,,,,,,,,,,,,,,
,,,,,,,,,,,,,,,,,,39,2022-02-12_13h48.06.175,lexical_decision_task_DD_L4,2021.2.3,iPhone,62.5,,,,,,,,,,0.558,1,,,,,,,,,,,,,,,0,0.364285714,-0.289795918,1,0,0,0.558,button_right_main,0.364285714,-0.289795918,1,0,0,,0,52,52,35,1,LLAMA,LB,old,m,./images/LLAMALB.png,,,,,,,,,,,,,,,,,,,,,,,,,,,,,,,,,
,,,,,,,,,,,,,,,,,,39,2022-02-12_13h48.06.175,lexical_decision_task_DD_L4,2021.2.3,iPhone,62.5,,,,,,,,,,0.624,1,,,,,,,,,,,,,,,0,-0.355102041,-0.319387755,1,0,0,0.624,button_left_main,-0.355102041,-0.319387755,1,0,0,,0,53,53,155,1,CANGY,LB,old,z,./images/CANGYLB.png,,,,,,,,,,,,,,,,,,,,,,,,,,,,,,,,,
,,,,,,,,,,,,,,,,,,39,2022-02-12_13h48.06.175,lexical_decision_task_DD_L4,2021.2.3,iPhone,62.5,,,,,,,,,,0.925,1,,,,,,,,,,,,,,,0,0.374489796,-0.28877551,1,0,0,0.925,button_right_main,0.374489796,-0.28877551,1,0,0,,0,54,54,27,1,BUTTER,C,old,m,./images/BUTTER.png,,,,,,,,,,,,,,,,,,,,,,,,,,,,,,,,,
,,,,,,,,,,,,,,,,,,39,2022-02-12_13h48.06.175,lexical_decision_task_DD_L4,2021.2.3,iPhone,62.5,,,,,,,,,,0.69,1,,,,,,,,,,,,,,,0,0.376530612,-0.290816327,1,0,0,0.69,button_right_main,0.376530612,-0.290816327,1,0,0,,0,55,55,18,1,PARCEL,C,old,m,./images/PARCEL.png,,,,,,,,,,,,,,,,,,,,,,,,,,,,,,,,,
,,,,,,,,,,,,,,,,,,39,2022-02-12_13h48.06.175,lexical_decision_task_DD_L4,2021.2.3,iPhone,62.5,,,,,,,,,,0.708,1,,,,,,,,,,,,,,,0,0.371428571,-0.295918367,1,0,0,0.708,button_right_main,0.371428571,-0.295918367,1,0,0,,0,56,56,34,1,RAZOR,HB,old,m,./images/RAZORHB.png,,,,,,,,,,,,,,,,,,,,,,,,,,,,,,,,,
,,,,,,,,,,,,,,,,,,39,2022-02-12_13h48.06.175,lexical_decision_task_DD_L4,2021.2.3,iPhone,62.5,,,,,,,,,,0.592,1,,,,,,,,,,,,,,,0,-0.316326531,-0.283673469,1,0,0,0.592,button_left_main,-0.316326531,-0.283673469,1,0,0,,0,57,57,156,1,HIXES,C,old,z,./images/HIXES.png,,,,,,,,,,,,,,,,,,,,,,,,,,,,,,,,,
,,,,,,,,,,,,,,,,,,39,2022-02-12_13h48.06.175,lexical_decision_task_DD_L4,2021.2.3,iPhone,62.5,,,,,,,,,,0.524,1,,,,,,,,,,,,,,,0,0.37755102,-0.293877551,1,0,0,0.524,button_right_main,0.37755102,-0.293877551,1,0,0,,0,58,58,32,1,HOCKEY,LB,old,m,./images/HOCKEYLB.png,,,,,,,,,,,,,,,,,,,,,,,,,,,,,,,,,
,,,,,,,,,,,,,,,,,,39,2022-02-12_13h48.06.175,lexical_decision_task_DD_L4,2021.2.3,iPhone,62.5,,,,,,,,,,0.606,1,,,,,,,,,,,,,,,0,0.369387755,-0.293877551,1,0,0,0.606,button_right_main,0.369387755,-0.293877551,1,0,0,,0,59,59,83,1,WHISKY,LB,old,m,./images/WHISKYLB.png,,,,,,,,,,,,,,,,,,,,,,,,,,,,,,,,,
,,,,,,,,,,,,,,,,,,39,2022-02-12_13h48.06.175,lexical_decision_task_DD_L4,2021.2.3,iPhone,62.5,,,,,,,,,,0.589,1,,,,,,,,,,,,,,,0,-0.330612245,-0.307142857,1,0,0,0.589,button_left_main,-0.330612245,-0.307142857,1,0,0,,0,60,60,92,1,PAIMS,LB,old,z,./images/PAIMSLB.png,,,,,,,,,,,,,,,,,,,,,,,,,,,,,,,,,
,,,,,,,,,,,,,,,,,,39,2022-02-12_13h48.06.175,lexical_decision_task_DD_L4,2021.2.3,iPhone,62.5,,,,,,,,,,0.541,1,,,,,,,,,,,,,,,0,0.376530612,-0.298979592,1,0,0,0.541,button_right_main,0.376530612,-0.298979592,1,0,0,,0,61,61,57,1,FERRY,C,old,m,./images/FERRY.png,,,,,,,,,,,,,,,,,,,,,,,,,,,,,,,,,
,,,,,,,,,,,,,,,,,,39,2022-02-12_13h48.06.175,lexical_decision_task_DD_L4,2021.2.3,iPhone,62.5,,,,,,,,,,0.674,1,,,,,,,,,,,,,,,0,0.368367347,-0.303061224,1,0,0,0.674,button_right_main,0.368367347,-0.303061224,1,0,0,,0,62,62,2,1,STOVE,LB,old,m,./images/STOVELB.png,,,,,,,,,,,,,,,,,,,,,,,,,,,,,,,,,
,,,,,,,,,,,,,,,,,,39,2022-02-12_13h48.06.175,lexical_decision_task_DD_L4,2021.2.3,iPhone,62.5,,,,,,,,,,0.542,1,,,,,,,,,,,,,,,0,0.374489796,-0.296938776,1,0,0,0.542,button_right_main,0.374489796,-0.296938776,1,0,0,,0,63,63,9,1,DIVER,C,old,m,./images/DIVER.png,,,,,,,,,,,,,,,,,,,,,,,,,,,,,,,,,
,,,,,,,,,,,,,,,,,,39,2022-02-12_13h48.06.175,lexical_decision_task_DD_L4,2021.2.3,iPhone,62.5,,,,,,,,,,0.486,1,,,,,,,,,,,,,,,0,0.371428571,-0.295918367,1,0,0,0.486,button_right_main,0.371428571,-0.295918367,1,0,0,,0,64,64,23,1,CLOTH,LB,old,m,./images/CLOTHLB.png,,,,,,,,,,,,,,,,,,,,,,,,,,,,,,,,,
,,,,,,,,,,,,,,,,,,39,2022-02-12_13h48.06.175,lexical_decision_task_DD_L4,2021.2.3,iPhone,62.5,,,,,,,,,,0.74,1,,,,,,,,,,,,,,,0,-0.330612245,-0.326530612,1,0,0,0.74,button_left_main,-0.330612245,-0.326530612,1,0,0,,0,65,65,122,1,BLOOT,LB,old,z,./images/BLOOTLB.png,,,,,,,,,,,,,,,,,,,,,,,,,,,,,,,,,
,,,,,,,,,,,,,,,,,,39,2022-02-12_13h48.06.175,lexical_decision_task_DD_L4,2021.2.3,iPhone,62.5,,,,,,,,,,0.524,1,,,,,,,,,,,,,,,0,0.366326531,-0.295918367,1,0,0,0.524,button_right_main,0.366326531,-0.295918367,1,0,0,,0,66,66,44,1,BASKET,LB,old,m,./images/BASKETLB.png,,,,,,,,,,,,,,,,,,,,,,,,,,,,,,,,,
,,,,,,,,,,,,,,,,,,39,2022-02-12_13h48.06.175,lexical_decision_task_DD_L4,2021.2.3,iPhone,62.5,,,,,,,,,,0.775,1,,,,,,,,,,,,,,,0,-0.334693878,-0.320408163,1,0,0,0.775,button_left_main,-0.334693878,-0.320408163,1,0,0,,0,67,67,107,1,FASKS,LB,old,z,./images/FASKSLB.png,,,,,,,,,,,,,,,,,,,,,,,,,,,,,,,,,
,,,,,,,,,,,,,,,,,,39,2022-02-12_13h48.06.175,lexical_decision_task_DD_L4,2021.2.3,iPhone,62.5,,,,,,,,,,0.524,1,,,,,,,,,,,,,,,0,0.364285714,-0.301020408,1,0,0,0.524,button_right_main,0.364285714,-0.301020408,1,0,0,,0,68,68,5,1,BAMBOO,LB,old,m,./images/BAMBOOLB.png,,,,,,,,,,,,,,,,,,,,,,,,,,,,,,,,,
,,,,,,,,,,,,,,,,,,39,2022-02-12_13h48.06.175,lexical_decision_task_DD_L4,2021.2.3,iPhone,62.5,,,,,,,,,,0.541,1,,,,,,,,,,,,,,,0,-0.334693878,-0.337755102,1,0,0,0.541,button_left_main,-0.334693878,-0.337755102,1,0,0,,0,69,69,167,1,ZONET,LB,old,z,./images/ZONETLB.png,,,,,,,,,,,,,,,,,,,,,,,,,,,,,,,,,
,,,,,,,,,,,,,,,,,,39,2022-02-12_13h48.06.175,lexical_decision_task_DD_L4,2021.2.3,iPhone,62.5,,,,,,,,,,0.575,1,,,,,,,,,,,,,,,0,-0.330612245,-0.333673469,1,0,0,0.575,button_left_main,-0.330612245,-0.333673469,1,0,0,,0,70,70,84,1,HAXES,C,old,z,./images/HAXES.png,,,,,,,,,,,,,,,,,,,,,,,,,,,,,,,,,
,,,,,,,,,,,,,,,,,,39,2022-02-12_13h48.06.175,lexical_decision_task_DD_L4,2021.2.3,iPhone,62.5,,,,,,,,,,0.552,1,,,,,,,,,,,,,,,0,-0.335714286,-0.33877551,1,0,0,0.552,button_left_main,-0.335714286,-0.33877551,1,0,0,,0,71,71,111,1,HOSSE,C,old,z,./images/HOSSE.png,,,,,,,,,,,,,,,,,,,,,,,,,,,,,,,,,
,,,,,,,,,,,,,,,,,,39,2022-02-12_13h48.06.175,lexical_decision_task_DD_L4,2021.2.3,iPhone,62.5,,,,,,,,,,0.592,1,,,,,,,,,,,,,,,0,-0.332653061,-0.329591837,1,0,0,0.592,button_left_main,-0.332653061,-0.329591837,1,0,0,,0,72,72,146,1,MOOST,LB,old,z,./images/MOOSTLB.png,,,,,,,,,,,,,,,,,,,,,,,,,,,,,,,,,
,,,,,,,,,,,,,,,,,,39,2022-02-12_13h48.06.175,lexical_decision_task_DD_L4,2021.2.3,iPhone,62.5,,,,,,,,,,0.758,1,,,,,,,,,,,,,,,0,-0.331632653,-0.342857143,1,0,0,0.758,button_left_main,-0.331632653,-0.342857143,1,0,0,,0,73,73,115,1,MAWNS,HB,old,z,./images/MAWNSHB.png,,,,,,,,,,,,,,,,,,,,,,,,,,,,,,,,,
,,,,,,,,,,,,,,,,,,39,2022-02-12_13h48.06.175,lexical_decision_task_DD_L4,2021.2.3,iPhone,62.5,,,,,,,,,,0.743,1,,,,,,,,,,,,,,,0,0.364285714,-0.301020408,1,0,0,0.743,button_right_main,0.364285714,-0.301020408,1,0,0,,0,74,74,47,1,LAGOON,LB,old,m,./images/LAGOONLB.png,,,,,,,,,,,,,,,,,,,,,,,,,,,,,,,,,
,,,,,,,,,,,,,,,,,,39,2022-02-12_13h48.06.175,lexical_decision_task_DD_L4,2021.2.3,iPhone,62.5,,,,,,,,,,0.538,1,,,,,,,,,,,,,,,0,-0.329591837,-0.352040816,1,0,0,0.538,button_left_main,-0.329591837,-0.352040816,1,0,0,,0,75,75,89,1,DRIEK,LB,old,z,./images/DRIEKLB.png,,,,,,,,,,,,,,,,,,,,,,,,,,,,,,,,,
,,,,,,,,,,,,,,,,,,39,2022-02-12_13h48.06.175,lexical_decision_task_DD_L4,2021.2.3,iPhone,62.5,,,,,,,,,,0.758,1,,,,,,,,,,,,,,,0,0.368367347,-0.298979592,1,0,0,0.758,button_right_main,0.368367347,-0.298979592,1,0,0,,0,76,76,6,1,STAIN,C,old,m,./images/STAIN.png,,,,,,,,,,,,,,,,,,,,,,,,,,,,,,,,,
,,,,,,,,,,,,,,,,,,39,2022-02-12_13h48.06.175,lexical_decision_task_DD_L4,2021.2.3,iPhone,62.5,,,,,,,,,,0.609,1,,,,,,,,,,,,,,,0,-0.328571429,-0.347959184,1,0,0,0.609,button_left_main,-0.328571429,-0.347959184,1,0,0,,0,77,77,145,1,LAMEL,HB,old,z,./images/LAMELHB.png,,,,,,,,,,,,,,,,,,,,,,,,,,,,,,,,,
,,,,,,,,,,,,,,,,,,39,2022-02-12_13h48.06.175,lexical_decision_task_DD_L4,2021.2.3,iPhone,62.5,,,,,,,,,,0.625,1,,,,,,,,,,,,,,,0,-0.329591837,-0.360204082,1,0,0,0.625,button_left_main,-0.329591837,-0.360204082,1,0,0,,0,78,78,105,1,MOKER,C,old,z,./images/MOKER.png,,,,,,,,,,,,,,,,,,,,,,,,,,,,,,,,,
,,,,,,,,,,,,,,,,,,39,2022-02-12_13h48.06.175,lexical_decision_task_DD_L4,2021.2.3,iPhone,62.5,,,,,,,,,,0.577,1,,,,,,,,,,,,,,,0,-0.336734694,-0.36122449,1,0,0,0.577,button_left_main,-0.336734694,-0.36122449,1,0,0,,0,79,79,153,1,CLUPS,C,old,z,./images/CLUPS.png,,,,,,,,,,,,,,,,,,,,,,,,,,,,,,,,,
,,,,,,,,,,,,,,,,,,39,2022-02-12_13h48.06.175,lexical_decision_task_DD_L4,2021.2.3,iPhone,62.5,,,,,,,,,,0.943,1,,,,,,,,,,,,,,,0,0.366326531,-0.3,1,0,0,0.943,button_right_main,0.366326531,-0.3,1,0,0,,0,80,80,46,1,MUMMY,HB,old,m,./images/MUMMYHB.png,,,,,,,,,,,,,,,,,,,,,,,,,,,,,,,,,
,,,,,,,,,,,,,,,,,,39,2022-02-12_13h48.06.175,lexical_decision_task_DD_L4,2021.2.3,iPhone,62.5,,,,,,,,,,0.559,1,,,,,,,,,,,,,,,0,-0.328571429,-0.368367347,1,0,0,0.559,button_left_main,-0.328571429,-0.368367347,1,0,0,,0,81,81,144,1,NAIRY,C,old,z,./images/NAIRY.png,,,,,,,,,,,,,,,,,,,,,,,,,,,,,,,,,
,,,,,,,,,,,,,,,,,,39,2022-02-12_13h48.06.175,lexical_decision_task_DD_L4,2021.2.3,iPhone,62.5,,,,,,,,,,0.659,1,,,,,,,,,,,,,,,0,0.363265306,-0.294897959,1,0,0,0.659,button_right_main,0.363265306,-0.294897959,1,0,0,,0,82,82,72,1,FLASK,C,old,m,./images/FLASK.png,,,,,,,,,,,,,,,,,,,,,,,,,,,,,,,,,
,,,,,,,,,,,,,,,,,,39,2022-02-12_13h48.06.175,lexical_decision_task_DD_L4,2021.2.3,iPhone,62.5,,,,,,,,,,0.741,1,,,,,,,,,,,,,,,0,-0.325510204,-0.37244898,1,0,0,0.741,button_left_main,0.147959184,-0.406122449,1,0,0,,0,83,83,127,1,NINDY,HB,old,z,./images/NINDYHB.png,break_done_button,,,,,,,,,,,,,,,,,,,,,,,,,,,,,,,,
,,,,,,,,,,,,,,,,,,39,2022-02-12_13h48.06.175,lexical_decision_task_DD_L4,2021.2.3,iPhone,62.5,,,,,,,,,,0.826,1,,,,,,,,,,,,,,,0,-0.324489796,-0.368367347,1,0,0,0.826,button_left_main,-0.324489796,-0.368367347,1,0,0,,0,84,84,94,1,BLANS,HB,old,z,./images/BLANSHB.png,,,,,,,,,,,,,,,,,,,,,,,,,,,,,,,,,
,,,,,,,,,,,,,,,,,,39,2022-02-12_13h48.06.175,lexical_decision_task_DD_L4,2021.2.3,iPhone,62.5,,,,,,,,,,0.609,1,,,,,,,,,,,,,,,0,-0.32755102,-0.36122449,1,0,0,0.609,button_left_main,-0.32755102,-0.36122449,1,0,0,,0,85,85,134,1,TROSS,LB,old,z,./images/TROSSLB.png,,,,,,,,,,,,,,,,,,,,,,,,,,,,,,,,,
,,,,,,,,,,,,,,,,,,39,2022-02-12_13h48.06.175,lexical_decision_task_DD_L4,2021.2.3,iPhone,62.5,,,,,,,,,,0.589,0,,,,,,,,,,,,,,,0,-0.329591837,-0.360204082,1,0,0,0.589,button_left_main,-0.329591837,-0.360204082,1,0,0,,0,86,86,55,1,ALLEY,HB,old,m,./images/ALLEYHB.png,,,,,,,,,,,,,,,,,,,,,,,,,,,,,,,,,
,,,,,,,,,,,,,,,,,,39,2022-02-12_13h48.06.175,lexical_decision_task_DD_L4,2021.2.3,iPhone,62.5,,,,,,,,,,1.059,1,,,,,,,,,,,,,,,0,-0.334693878,-0.355102041,1,0,0,1.059,button_left_main,-0.334693878,-0.355102041,1,0,0,,0,87,87,154,1,THINT,HB,old,z,./images/THINTHB.png,,,,,,,,,,,,,,,,,,,,,,,,,,,,,,,,,
,,,,,,,,,,,,,,,,,,39,2022-02-12_13h48.06.175,lexical_decision_task_DD_L4,2021.2.3,iPhone,62.5,,,,,,,,,,0.642,1,,,,,,,,,,,,,,,0,0.341836735,-0.3,1,0,0,0.642,button_right_main,0.341836735,-0.3,1,0,0,,0,88,88,77,1,WHEEL,LB,old,m,./images/WHEELLB.png,,,,,,,,,,,,,,,,,,,,,,,,,,,,,,,,,
,,,,,,,,,,,,,,,,,,39,2022-02-12_13h48.06.175,lexical_decision_task_DD_L4,2021.2.3,iPhone,62.5,,,,,,,,,,0.607,1,,,,,,,,,,,,,,,0,0.339795918,-0.305102041,1,0,0,0.607,button_right_main,0.339795918,-0.305102041,1,0,0,,0,89,89,62,1,MAMMAL,LB,old,m,./images/MAMMALLB.png,,,,,,,,,,,,,,,,,,,,,,,,,,,,,,,,,
,,,,,,,,,,,,,,,,,,39,2022-02-12_13h48.06.175,lexical_decision_task_DD_L4,2021.2.3,iPhone,62.5,,,,,,,,,,1.442,1,,,,,,,,,,,,,,,0,0.340816327,-0.301020408,1,0,0,1.442,button_right_main,0.340816327,-0.301020408,1,0,0,,0,90,90,52,1,DESERT,HB,old,m,./images/DESERTHB.png,,,,,,,,,,,,,,,,,,,,,,,,,,,,,,,,,
,,,,,,,,,,,,,,,,,,39,2022-02-12_13h48.06.175,lexical_decision_task_DD_L4,2021.2.3,iPhone,62.5,,,,,,,,,,0.541,1,,,,,,,,,,,,,,,0,-0.32755102,-0.355102041,1,0,0,0.541,button_left_main,-0.32755102,-0.355102041,1,0,0,,0,91,91,101,1,GLEET,LB,old,z,./images/GLEETLB.png,,,,,,,,,,,,,,,,,,,,,,,,,,,,,,,,,
,,,,,,,,,,,,,,,,,,39,2022-02-12_13h48.06.175,lexical_decision_task_DD_L4,2021.2.3,iPhone,62.5,,,,,,,,,,0.659,1,,,,,,,,,,,,,,,0,0.347959184,-0.306122449,1,0,0,0.659,button_right_main,0.347959184,-0.306122449,1,0,0,,0,92,92,22,1,CLOWN,HB,old,m,./images/CLOWNHB.png,,,,,,,,,,,,,,,,,,,,,,,,,,,,,,,,,
,,,,,,,,,,,,,,,,,,39,2022-02-12_13h48.06.175,lexical_decision_task_DD_L4,2021.2.3,iPhone,62.5,,,,,,,,,,0.558,1,,,,,,,,,,,,,,,0,-0.329591837,-0.36122449,1,0,0,0.558,button_left_main,-0.329591837,-0.36122449,1,0,0,,0,93,93,120,1,RINED,C,old,z,./images/RINED.png,,,,,,,,,,,,,,,,,,,,,,,,,,,,,,,,,
,,,,,,,,,,,,,,,,,,39,2022-02-12_13h48.06.175,lexical_decision_task_DD_L4,2021.2.3,iPhone,62.5,,,,,,,,,,0.824,1,,,,,,,,,,,,,,,0,-0.332653061,-0.359183673,1,0,0,0.824,button_left_main,-0.332653061,-0.359183673,1,0,0,,0,94,94,97,1,CHIDS,HB,old,z,./images/CHIDSHB.png,,,,,,,,,,,,,,,,,,,,,,,,,,,,,,,,,
,,,,,,,,,,,,,,,,,,39,2022-02-12_13h48.06.175,lexical_decision_task_DD_L4,2021.2.3,iPhone,62.5,,,,,,,,,,0.574,1,,,,,,,,,,,,,,,0,0.341836735,-0.296938776,1,0,0,0.574,button_right_main,0.341836735,-0.296938776,1,0,0,,0,95,95,63,1,BAKER,C,old,m,./images/BAKER.png,,,,,,,,,,,,,,,,,,,,,,,,,,,,,,,,,
,,,,,,,,,,,,,,,,,,39,2022-02-12_13h48.06.175,lexical_decision_task_DD_L4,2021.2.3,iPhone,62.5,,,,,,,,,,0.59,1,,,,,,,,,,,,,,,0,-0.329591837,-0.36122449,1,0,0,0.59,button_left_main,-0.329591837,-0.36122449,1,0,0,,0,96,96,98,1,BAMPS,LB,old,z,./images/BAMPSLB.png,,,,,,,,,,,,,,,,,,,,,,,,,,,,,,,,,
,,,,,,,,,,,,,,,,,,39,2022-02-12_13h48.06.175,lexical_decision_task_DD_L4,2021.2.3,iPhone,62.5,,,,,,,,,,0.609,1,,,,,,,,,,,,,,,0,-0.335714286,-0.374489796,1,0,0,0.609,button_left_main,-0.335714286,-0.374489796,1,0,0,,0,97,97,148,1,JOMS,HB,old,z,./images/JOMSHB.png,,,,,,,,,,,,,,,,,,,,,,,,,,,,,,,,,
,,,,,,,,,,,,,,,,,,39,2022-02-12_13h48.06.175,lexical_decision_task_DD_L4,2021.2.3,iPhone,62.5,,,,,,,,,,0.875,1,,,,,,,,,,,,,,,0,-0.328571429,-0.367346939,1,0,0,0.875,button_left_main,-0.328571429,-0.367346939,1,0,0,,0,98,98,139,1,BLEAR,HB,old,z,./images/BLEARHB.png,,,,,,,,,,,,,,,,,,,,,,,,,,,,,,,,,
,,,,,,,,,,,,,,,,,,39,2022-02-12_13h48.06.175,lexical_decision_task_DD_L4,2021.2.3,iPhone,62.5,,,,,,,,,,1.527,1,,,,,,,,,,,,,,,0,-0.333673469,-0.367346939,1,0,0,1.527,button_left_main,-0.333673469,-0.367346939,1,0,0,,0,99,99,142,1,PLASK,HB,old,z,./images/PLASKHB.png,,,,,,,,,,,,,,,,,,,,,,,,,,,,,,,,,
,,,,,,,,,,,,,,,,,,39,2022-02-12_13h48.06.175,lexical_decision_task_DD_L4,2021.2.3,iPhone,62.5,,,,,,,,,,0.659,0,,,,,,,,,,,,,,,0,-0.328571429,-0.375510204,1,0,0,0.659,button_left_main,-0.328571429,-0.375510204,1,0,0,,0,100,100,19,1,DONKEY,HB,old,m,./images/DONKEYHB.png,,,,,,,,,,,,,,,,,,,,,,,,,,,,,,,,,
,,,,,,,,,,,,,,,,,,39,2022-02-12_13h48.06.175,lexical_decision_task_DD_L4,2021.2.3,iPhone,62.5,,,,,,,,,,0.407,1,,,,,,,,,,,,,,,0,0.337755102,-0.307142857,1,0,0,0.407,button_right_main,0.337755102,-0.307142857,1,0,0,,0,101,101,39,1,CANDY,C,old,m,./images/CANDY.png,,,,,,,,,,,,,,,,,,,,,,,,,,,,,,,,,
,,,,,,,,,,,,,,,,,,39,2022-02-12_13h48.06.175,lexical_decision_task_DD_L4,2021.2.3,iPhone,62.5,,,,,,,,,,0.54,1,,,,,,,,,,,,,,,0,-0.32755102,-0.382653061,1,0,0,0.54,button_left_main,-0.32755102,-0.382653061,1,0,0,,0,102,102,96,1,KEAMS,C,old,z,./images/KEAMS.png,,,,,,,,,,,,,,,,,,,,,,,,,,,,,,,,,
,,,,,,,,,,,,,,,,,,39,2022-02-12_13h48.06.175,lexical_decision_task_DD_L4,2021.2.3,iPhone,62.5,,,,,,,,,,0.558,1,,,,,,,,,,,,,,,0,0.332653061,-0.302040816,1,0,0,0.558,button_right_main,0.332653061,-0.302040816,1,0,0,,0,103,103,41,1,STREAM,LB,old,m,./images/STREAMLB.png,,,,,,,,,,,,,,,,,,,,,,,,,,,,,,,,,
,,,,,,,,,,,,,,,,,,39,2022-02-12_13h48.06.175,lexical_decision_task_DD_L4,2021.2.3,iPhone,62.5,,,,,,,,,,0.64,1,,,,,,,,,,,,,,,0,-0.328571429,-0.381632653,1,0,0,0.64,button_left_main,-0.328571429,-0.381632653,1,0,0,,0,104,104,108,1,GRUET,C,old,z,./images/GRUET.png,,,,,,,,,,,,,,,,,,,,,,,,,,,,,,,,,
,,,,,,,,,,,,,,,,,,39,2022-02-12_13h48.06.175,lexical_decision_task_DD_L4,2021.2.3,iPhone,62.5,,,,,,,,,,0.824,1,,,,,,,,,,,,,,,0,-0.32755102,-0.383673469,1,0,0,0.824,button_left_main,-0.32755102,-0.383673469,1,0,0,,0,105,105,100,1,DRIBS,HB,old,z,./images/DRIBSHB.png,,,,,,,,,,,,,,,,,,,,,,,,,,,,,,,,,
,,,,,,,,,,,,,,,,,,39,2022-02-12_13h48.06.175,lexical_decision_task_DD_L4,2021.2.3,iPhone,62.5,,,,,,,,,,0.625,1,,,,,,,,,,,,,,,0,-0.317346939,-0.401020408,1,0,0,0.625,button_left_main,-0.336734694,-0.368367347,1,0,0,,0,106,106,131,1,NACES,LB,old,z,./images/NACESLB.png,,,,,,,,,,,,,,,,,,,,,,,,,,,,,,,,,
,,,,,,,,,,,,,,,,,,39,2022-02-12_13h48.06.175,lexical_decision_task_DD_L4,2021.2.3,iPhone,62.5,,,,,,,,,,0.541,1,,,,,,,,,,,,,,,0,-0.348979592,-0.329591837,1,0,0,0.541,button_left_main,-0.348979592,-0.329591837,1,0,0,,0,107,107,150,1,NOOLS,C,old,z,./images/NOOLS.png,,,,,,,,,,,,,,,,,,,,,,,,,,,,,,,,,
,,,,,,,,,,,,,,,,,,39,2022-02-12_13h48.06.175,lexical_decision_task_DD_L4,2021.2.3,iPhone,62.5,,,,,,,,,,0.525,1,,,,,,,,,,,,,,,0,0.331632653,-0.303061224,1,0,0,0.525,button_right_main,0.331632653,-0.303061224,1,0,0,,0,108,108,59,1,BRUSH,LB,old,m,./images/BRUSHLB.png,,,,,,,,,,,,,,,,,,,,,,,,,,,,,,,,,
,,,,,,,,,,,,,,,,,,39,2022-02-12_13h48.06.175,lexical_decision_task_DD_L4,2021.2.3,iPhone,62.5,,,,,,,,,,1.092,1,,,,,,,,,,,,,,,0,0.332653061,-0.306122449,1,0,0,1.092,button_right_main,0.332653061,-0.306122449,1,0,0,,0,109,109,67,1,POKER,HB,old,m,./images/POKERHB.png,,,,,,,,,,,,,,,,,,,,,,,,,,,,,,,,,
,,,,,,,,,,,,,,,,,,39,2022-02-12_13h48.06.175,lexical_decision_task_DD_L4,2021.2.3,iPhone,62.5,,,,,,,,,,0.541,1,,,,,,,,,,,,,,,0,0.323469388,-0.298979592,1,0,0,0.541,button_right_main,0.323469388,-0.298979592,1,0,0,,0,110,110,30,1,SLOPE,C,old,m,./images/SLOPE.png,,,,,,,,,,,,,,,,,,,,,,,,,,,,,,,,,
,,,,,,,,,,,,,,,,,,39,2022-02-12_13h48.06.175,lexical_decision_task_DD_L4,2021.2.3,iPhone,62.5,,,,,,,,,,0.525,1,,,,,,,,,,,,,,,0,0.330612245,-0.293877551,1,0,0,0.525,button_right_main,0.330612245,-0.293877551,1,0,0,,0,111,111,21,1,DANCER,C,old,m,./images/DANCER.png,,,,,,,,,,,,,,,,,,,,,,,,,,,,,,,,,
,,,,,,,,,,,,,,,,,,39,2022-02-12_13h48.06.175,lexical_decision_task_DD_L4,2021.2.3,iPhone,62.5,,,,,,,,,,0.541,1,,,,,,,,,,,,,,,0,-0.328571429,-0.37244898,1,0,0,0.541,button_left_main,-0.328571429,-0.37244898,1,0,0,,0,112,112,90,1,NEAST,C,old,z,./images/NEAST.png,,,,,,,,,,,,,,,,,,,,,,,,,,,,,,,,,
,,,,,,,,,,,,,,,,,,39,2022-02-12_13h48.06.175,lexical_decision_task_DD_L4,2021.2.3,iPhone,62.5,,,,,,,,,,0.808,1,,,,,,,,,,,,,,,0,-0.33877551,-0.340816327,1,0,0,0.808,button_left_main,-0.33877551,-0.340816327,1,0,0,,0,113,113,121,1,CEERS,HB,old,z,./images/CEERSHB.png,,,,,,,,,,,,,,,,,,,,,,,,,,,,,,,,,
,,,,,,,,,,,,,,,,,,39,2022-02-12_13h48.06.175,lexical_decision_task_DD_L4,2021.2.3,iPhone,62.5,,,,,,,,,,0.659,1,,,,,,,,,,,,,,,0,-0.340816327,-0.343877551,1,0,0,0.659,button_left_main,-0.340816327,-0.343877551,1,0,0,,0,114,114,93,1,SMONE,C,old,z,./images/SMONE.png,,,,,,,,,,,,,,,,,,,,,,,,,,,,,,,,,
,,,,,,,,,,,,,,,,,,39,2022-02-12_13h48.06.175,lexical_decision_task_DD_L4,2021.2.3,iPhone,62.5,,,,,,,,,,0.542,1,,,,,,,,,,,,,,,0,-0.33877551,-0.340816327,1,0,0,0.542,button_left_main,-0.33877551,-0.340816327,1,0,0,,0,115,115,138,1,PLICE,C,old,z,./images/PLICE.png,,,,,,,,,,,,,,,,,,,,,,,,,,,,,,,,,
,,,,,,,,,,,,,,,,,,39,2022-02-12_13h48.06.175,lexical_decision_task_DD_L4,2021.2.3,iPhone,62.5,,,,,,,,,,0.492,1,,,,,,,,,,,,,,,0,-0.33877551,-0.330612245,1,0,0,0.492,button_left_main,-0.33877551,-0.330612245,1,0,0,,0,116,116,113,1,LINEW,LB,old,z,./images/LINEWLB.png,,,,,,,,,,,,,,,,,,,,,,,,,,,,,,,,,
,,,,,,,,,,,,,,,,,,39,2022-02-12_13h48.06.175,lexical_decision_task_DD_L4,2021.2.3,iPhone,62.5,,,,,,,,,,0.456,1,,,,,,,,,,,,,,,0,-0.341836735,-0.330612245,1,0,0,0.456,button_left_main,-0.341836735,-0.330612245,1,0,0,,0,117,117,104,1,GITTY,LB,old,z,./images/GITTYLB.png,,,,,,,,,,,,,,,,,,,,,,,,,,,,,,,,,
,,,,,,,,,,,,,,,,,,39,2022-02-12_13h48.06.175,lexical_decision_task_DD_L4,2021.2.3,iPhone,62.5,,,,,,,,,,0.525,1,,,,,,,,,,,,,,,0,-0.333673469,-0.345918367,1,0,0,0.525,button_left_main,-0.333673469,-0.345918367,1,0,0,,0,118,118,132,1,SCIFF,C,old,z,./images/SCIFF.png,,,,,,,,,,,,,,,,,,,,,,,,,,,,,,,,,
,,,,,,,,,,,,,,,,,,39,2022-02-12_13h48.06.175,lexical_decision_task_DD_L4,2021.2.3,iPhone,62.5,,,,,,,,,,0.776,1,,,,,,,,,,,,,,,0,0.32755102,-0.3,1,0,0,0.776,button_right_main,0.32755102,-0.3,1,0,0,,0,119,119,1,1,TOWEL,HB,old,m,./images/TOWELHB.png,,,,,,,,,,,,,,,,,,,,,,,,,,,,,,,,,
,,,,,,,,,,,,,,,,,,39,2022-02-12_13h48.06.175,lexical_decision_task_DD_L4,2021.2.3,iPhone,62.5,,,,,,,,,,0.675,1,,,,,,,,,,,,,,,0,-0.339795918,-0.337755102,1,0,0,0.675,button_left_main,-0.339795918,-0.337755102,1,0,0,,0,120,120,143,1,MONGS,LB,old,z,./images/MONGSLB.png,,,,,,,,,,,,,,,,,,,,,,,,,,,,,,,,,
,,,,,,,,,,,,,,,,,,39,2022-02-12_13h48.06.175,lexical_decision_task_DD_L4,2021.2.3,iPhone,62.5,,,,,,,,,,0.984,1,,,,,,,,,,,,,,,0,-0.342857143,-0.318367347,1,0,0,0.984,button_left_main,-0.342857143,-0.318367347,1,0,0,,0,121,121,130,1,CRILL,HB,old,z,./images/CRILLHB.png,,,,,,,,,,,,,,,,,,,,,,,,,,,,,,,,,
,,,,,,,,,,,,,,,,,,39,2022-02-12_13h48.06.175,lexical_decision_task_DD_L4,2021.2.3,iPhone,62.5,,,,,,,,,,0.655,1,,,,,,,,,,,,,,,0,0.328571429,-0.283673469,1,0,0,0.655,button_right_main,0.328571429,-0.283673469,1,0,0,,0,122,122,28,1,CASINO,HB,old,m,./images/CASINOHB.png,,,,,,,,,,,,,,,,,,,,,,,,,,,,,,,,,
,,,,,,,,,,,,,,,,,,39,2022-02-12_13h48.06.175,lexical_decision_task_DD_L4,2021.2.3,iPhone,62.5,,,,,,,,,,0.842,0,,,,,,,,,,,,,,,0,0.316326531,-0.287755102,1,0,0,0.842,button_right_main,0.316326531,-0.287755102,1,0,0,,0,123,123,128,1,GRIFT,LB,old,z,./images/GRIFTLB.png,,,,,,,,,,,,,,,,,,,,,,,,,,,,,,,,,
,,,,,,,,,,,,,,,,,,39,2022-02-12_13h48.06.175,lexical_decision_task_DD_L4,2021.2.3,iPhone,62.5,,,,,,,,,,0.506,1,,,,,,,,,,,,,,,0,0.320408163,-0.290816327,1,0,0,0.506,button_right_main,0.320408163,-0.290816327,1,0,0,,0,124,124,24,1,FLESH,C,old,m,./images/FLESH.png,,,,,,,,,,,,,,,,,,,,,,,,,,,,,,,,,
,,,,,,,,,,,,,,,,,,39,2022-02-12_13h48.06.175,lexical_decision_task_DD_L4,2021.2.3,iPhone,62.5,,,,,,,,,,0.608,1,,,,,,,,,,,,,,,0,-0.323469388,-0.346938776,1,0,0,0.608,button_left_main,0.057142857,-0.4,1,0,0,,0,125,125,164,1,SGREW,LB,old,z,./images/SGREWLB.png,break_done_button,,,,,,,,,,,,,,,,,,,,,,,,,,,,,,,,
,,,,,,,,,,,,,,,,,,39,2022-02-12_13h48.06.175,lexical_decision_task_DD_L4,2021.2.3,iPhone,62.5,,,,,,,,,,0.824,1,,,,,,,,,,,,,,,0,-0.35,-0.351020408,1,0,0,0.824,button_left_main,-0.35,-0.351020408,1,0,0,,0,126,126,160,1,VEETS,HB,old,z,./images/VEETSHB.png,,,,,,,,,,,,,,,,,,,,,,,,,,,,,,,,,
,,,,,,,,,,,,,,,,,,39,2022-02-12_13h48.06.175,lexical_decision_task_DD_L4,2021.2.3,iPhone,62.5,,,,,,,,,,0.675,1,,,,,,,,,,,,,,,0,-0.337755102,-0.309183673,1,0,0,0.675,button_left_main,-0.337755102,-0.309183673,1,0,0,,0,127,127,157,1,INLER,HB,old,z,./images/INLERHB.png,,,,,,,,,,,,,,,,,,,,,,,,,,,,,,,,,
,,,,,,,,,,,,,,,,,,39,2022-02-12_13h48.06.175,lexical_decision_task_DD_L4,2021.2.3,iPhone,62.5,,,,,,,,,,0.542,1,,,,,,,,,,,,,,,0,0.345918367,-0.303061224,1,0,0,0.542,button_right_main,0.345918367,-0.303061224,1,0,0,,0,128,128,11,1,MEDAL,LB,old,m,./images/MEDALLB.png,,,,,,,,,,,,,,,,,,,,,,,,,,,,,,,,,
,,,,,,,,,,,,,,,,,,39,2022-02-12_13h48.06.175,lexical_decision_task_DD_L4,2021.2.3,iPhone,62.5,,,,,,,,,,0.607,1,,,,,,,,,,,,,,,0,-0.321428571,-0.319387755,1,0,0,0.607,button_left_main,-0.321428571,-0.319387755,1,0,0,,0,129,129,149,1,VEASE,LB,old,z,./images/VEASELB.png,,,,,,,,,,,,,,,,,,,,,,,,,,,,,,,,,
,,,,,,,,,,,,,,,,,,39,2022-02-12_13h48.06.175,lexical_decision_task_DD_L4,2021.2.3,iPhone,62.5,,,,,,,,,,0.74,1,,,,,,,,,,,,,,,0,0.33877551,-0.289795918,1,0,0,0.74,button_right_main,0.33877551,-0.289795918,1,0,0,,0,130,130,64,1,BRIDE,HB,old,m,./images/BRIDEHB.png,,,,,,,,,,,,,,,,,,,,,,,,,,,,,,,,,
,,,,,,,,,,,,,,,,,,39,2022-02-12_13h48.06.175,lexical_decision_task_DD_L4,2021.2.3,iPhone,62.5,,,,,,,,,,0.523,1,,,,,,,,,,,,,,,0,0.326530612,-0.298979592,1,0,0,0.523,button_right_main,0.326530612,-0.298979592,1,0,0,,0,131,131,66,1,STATUE,C,old,m,./images/STATUE.png,,,,,,,,,,,,,,,,,,,,,,,,,,,,,,,,,
,,,,,,,,,,,,,,,,,,39,2022-02-12_13h48.06.175,lexical_decision_task_DD_L4,2021.2.3,iPhone,62.5,,,,,,,,,,0.524,1,,,,,,,,,,,,,,,0,0.330612245,-0.291836735,1,0,0,0.524,button_right_main,0.330612245,-0.291836735,1,0,0,,0,132,132,56,1,HEATER,LB,old,m,./images/HEATERLB.png,,,,,,,,,,,,,,,,,,,,,,,,,,,,,,,,,
,,,,,,,,,,,,,,,,,,39,2022-02-12_13h48.06.175,lexical_decision_task_DD_L4,2021.2.3,iPhone,62.5,,,,,,,,,,0.626,1,,,,,,,,,,,,,,,0,-0.328571429,-0.317346939,1,0,0,0.626,button_left_main,-0.328571429,-0.317346939,1,0,0,,0,133,133,106,1,CLUMS,HB,old,z,./images/CLUMSHB.png,,,,,,,,,,,,,,,,,,,,,,,,,,,,,,,,,
,,,,,,,,,,,,,,,,,,39,2022-02-12_13h48.06.175,lexical_decision_task_DD_L4,2021.2.3,iPhone,62.5,,,,,,,,,,0.976,1,,,,,,,,,,,,,,,0,0.332653061,-0.285714286,1,0,0,0.976,button_right_main,0.332653061,-0.285714286,1,0,0,,0,134,134,76,1,MIDGET,HB,old,m,./images/MIDGETHB.png,,,,,,,,,,,,,,,,,,,,,,,,,,,,,,,,,
,,,,,,,,,,,,,,,,,,39,2022-02-12_13h48.06.175,lexical_decision_task_DD_L4,2021.2.3,iPhone,62.5,,,,,,,,,,0.557,1,,,,,,,,,,,,,,,0,0.330612245,-0.290816327,1,0,0,0.557,button_right_main,0.330612245,-0.290816327,1,0,0,,0,135,135,16,1,GRAPE,HB,old,m,./images/GRAPEHB.png,,,,,,,,,,,,,,,,,,,,,,,,,,,,,,,,,
,,,,,,,,,,,,,,,,,,39,2022-02-12_13h48.06.175,lexical_decision_task_DD_L4,2021.2.3,iPhone,62.5,,,,,,,,,,0.607,1,,,,,,,,,,,,,,,0,-0.32755102,-0.313265306,1,0,0,0.607,button_left_main,-0.32755102,-0.313265306,1,0,0,,0,136,136,125,1,MOOKY,LB,old,z,./images/MOOKYLB.png,,,,,,,,,,,,,,,,,,,,,,,,,,,,,,,,,
,,,,,,,,,,,,,,,,,,39,2022-02-12_13h48.06.175,lexical_decision_task_DD_L4,2021.2.3,iPhone,62.5,,,,,,,,,,0.506,1,,,,,,,,,,,,,,,0,0.331632653,-0.293877551,1,0,0,0.506,button_right_main,0.331632653,-0.293877551,1,0,0,,0,137,137,78,1,BROOM,C,old,m,./images/BROOM.png,,,,,,,,,,,,,,,,,,,,,,,,,,,,,,,,,
,,,,,,,,,,,,,,,,,,39,2022-02-12_13h48.06.175,lexical_decision_task_DD_L4,2021.2.3,iPhone,62.5,,,,,,,,,,0.559,1,,,,,,,,,,,,,,,0,-0.323469388,-0.319387755,1,0,0,0.559,button_left_main,-0.323469388,-0.319387755,1,0,0,,0,138,138,162,1,LEICH,C,old,z,./images/LEICH.png,,,,,,,,,,,,,,,,,,,,,,,,,,,,,,,,,
,,,,,,,,,,,,,,,,,,39,2022-02-12_13h48.06.175,lexical_decision_task_DD_L4,2021.2.3,iPhone,62.5,,,,,,,,,,0.676,1,,,,,,,,,,,,,,,0,0.335714286,-0.293877551,1,0,0,0.676,button_right_main,0.335714286,-0.293877551,1,0,0,,0,139,139,7,1,WAGON,HB,old,m,./images/WAGONHB.png,,,,,,,,,,,,,,,,,,,,,,,,,,,,,,,,,
,,,,,,,,,,,,,,,,,,39,2022-02-12_13h48.06.175,lexical_decision_task_DD_L4,2021.2.3,iPhone,62.5,,,,,,,,,,0.624,1,,,,,,,,,,,,,,,0,0.328571429,-0.285714286,1,0,0,0.624,button_right_main,0.328571429,-0.285714286,1,0,0,,0,140,140,81,1,DRILL,C,old,m,./images/DRILL.png,,,,,,,,,,,,,,,,,,,,,,,,,,,,,,,,,
,,,,,,,,,,,,,,,,,,39,2022-02-12_13h48.06.175,lexical_decision_task_DD_L4,2021.2.3,iPhone,62.5,,,,,,,,,,0.591,1,,,,,,,,,,,,,,,0,-0.310204082,-0.33877551,1,0,0,0.591,button_left_main,-0.310204082,-0.33877551,1,0,0,,0,141,141,152,1,FRAIN,LB,old,z,./images/FRAINLB.png,,,,,,,,,,,,,,,,,,,,,,,,,,,,,,,,,
,,,,,,,,,,,,,,,,,,39,2022-02-12_13h48.06.175,lexical_decision_task_DD_L4,2021.2.3,iPhone,62.5,,,,,,,,,,0.608,0,,,,,,,,,,,,,,,0,0.333673469,-0.292857143,1,0,0,0.608,button_right_main,0.333673469,-0.292857143,1,0,0,,0,142,142,166,1,SHORY,HB,old,z,./images/SHORYHB.png,,,,,,,,,,,,,,,,,,,,,,,,,,,,,,,,,
,,,,,,,,,,,,,,,,,,39,2022-02-12_13h48.06.175,lexical_decision_task_DD_L4,2021.2.3,iPhone,62.5,,,,,,,,,,0.641,1,,,,,,,,,,,,,,,0,0.330612245,-0.290816327,1,0,0,0.641,button_right_main,0.330612245,-0.290816327,1,0,0,,0,143,143,36,1,BOILER,C,old,m,./images/BOILER.png,,,,,,,,,,,,,,,,,,,,,,,,,,,,,,,,,
,,,,,,,,,,,,,,,,,,39,2022-02-12_13h48.06.175,lexical_decision_task_DD_L4,2021.2.3,iPhone,62.5,,,,,,,,,,0.724,1,,,,,,,,,,,,,,,0,0.332653061,-0.285714286,1,0,0,0.724,button_right_main,0.332653061,-0.285714286,1,0,0,,0,144,144,33,1,SAUNA,C,old,m,./images/SAUNA.png,,,,,,,,,,,,,,,,,,,,,,,,,,,,,,,,,
,,,,,,,,,,,,,,,,,,39,2022-02-12_13h48.06.175,lexical_decision_task_DD_L4,2021.2.3,iPhone,62.5,,,,,,,,,,0.64,1,,,,,,,,,,,,,,,0,0.32755102,-0.282653061,1,0,0,0.64,button_right_main,0.32755102,-0.282653061,1,0,0,,0,145,145,48,1,SHIELD,C,old,m,./images/SHIELD.png,,,,,,,,,,,,,,,,,,,,,,,,,,,,,,,,,
,,,,,,,,,,,,,,,,,,39,2022-02-12_13h48.06.175,lexical_decision_task_DD_L4,2021.2.3,iPhone,62.5,,,,,,,,,,0.825,1,,,,,,,,,,,,,,,0,0.330612245,-0.286734694,1,0,0,0.825,button_right_main,0.330612245,-0.286734694,1,0,0,,0,146,146,60,1,CURRY,C,old,m,./images/CURRY.png,,,,,,,,,,,,,,,,,,,,,,,,,,,,,,,,,
,,,,,,,,,,,,,,,,,,39,2022-02-12_13h48.06.175,lexical_decision_task_DD_L4,2021.2.3,iPhone,62.5,,,,,,,,,,0.574,1,,,,,,,,,,,,,,,0,-0.323469388,-0.313265306,1,0,0,0.574,button_left_main,-0.323469388,-0.313265306,1,0,0,,0,147,147,116,1,BALGY,LB,old,z,./images/BALGYLB.png,,,,,,,,,,,,,,,,,,,,,,,,,,,,,,,,,
,,,,,,,,,,,,,,,,,,39,2022-02-12_13h48.06.175,lexical_decision_task_DD_L4,2021.2.3,iPhone,62.5,,,,,,,,,,0.81,1,,,,,,,,,,,,,,,0,-0.330612245,-0.306122449,1,0,0,0.81,button_left_main,-0.330612245,-0.306122449,1,0,0,,0,148,148,87,1,TRING,C,old,z,./images/TRING.png,,,,,,,,,,,,,,,,,,,,,,,,,,,,,,,,,
,,,,,,,,,,,,,,,,,,39,2022-02-12_13h48.06.175,lexical_decision_task_DD_L4,2021.2.3,iPhone,62.5,,,,,,,,,,0.575,1,,,,,,,,,,,,,,,0,-0.331632653,-0.298979592,1,0,0,0.575,button_left_main,-0.331632653,-0.298979592,1,0,0,,0,149,149,141,1,PLEET,C,old,z,./images/PLEET.png,,,,,,,,,,,,,,,,,,,,,,,,,,,,,,,,,
,,,,,,,,,,,,,,,,,,39,2022-02-12_13h48.06.175,lexical_decision_task_DD_L4,2021.2.3,iPhone,62.5,,,,,,,,,,0.658,1,,,,,,,,,,,,,,,0,-0.321428571,-0.304081633,1,0,0,0.658,button_left_main,-0.321428571,-0.304081633,1,0,0,,0,150,150,159,1,CUDDY,C,old,z,./images/CUDDY.png,,,,,,,,,,,,,,,,,,,,,,,,,,,,,,,,,
,,,,,,,,,,,,,,,,,,39,2022-02-12_13h48.06.175,lexical_decision_task_DD_L4,2021.2.3,iPhone,62.5,,,,,,,,,,1.007,1,,,,,,,,,,,,,,,0,0.335714286,-0.274489796,1,0,0,1.007,button_right_main,0.335714286,-0.274489796,1,0,0,,0,151,151,82,1,PEBBLE,HB,old,m,./images/PEBBLEHB.png,,,,,,,,,,,,,,,,,,,,,,,,,,,,,,,,,
,,,,,,,,,,,,,,,,,,39,2022-02-12_13h48.06.175,lexical_decision_task_DD_L4,2021.2.3,iPhone,62.5,,,,,,,,,,0.976,1,,,,,,,,,,,,,,,0,0.331632653,-0.27244898,1,0,0,0.976,button_right_main,0.331632653,-0.27244898,1,0,0,,0,152,152,10,1,GARDEN,HB,old,m,./images/GARDENHB.png,,,,,,,,,,,,,,,,,,,,,,,,,,,,,,,,,
,,,,,,,,,,,,,,,,,,39,2022-02-12_13h48.06.175,lexical_decision_task_DD_L4,2021.2.3,iPhone,62.5,,,,,,,,,,0.641,1,,,,,,,,,,,,,,,0,-0.324489796,-0.298979592,1,0,0,0.641,button_left_main,-0.324489796,-0.298979592,1,0,0,,0,153,153,161,1,BLAPS,LB,old,z,./images/BLAPSLB.png,,,,,,,,,,,,,,,,,,,,,,,,,,,,,,,,,
,,,,,,,,,,,,,,,,,,39,2022-02-12_13h48.06.175,lexical_decision_task_DD_L4,2021.2.3,iPhone,62.5,,,,,,,,,,0.541,1,,,,,,,,,,,,,,,0,-0.324489796,-0.298979592,1,0,0,0.541,button_left_main,-0.324489796,-0.298979592,1,0,0,,0,154,154,102,1,DULLE,C,old,z,./images/DULLE.png,,,,,,,,,,,,,,,,,,,,,,,,,,,,,,,,,
,,,,,,,,,,,,,,,,,,39,2022-02-12_13h48.06.175,lexical_decision_task_DD_L4,2021.2.3,iPhone,62.5,,,,,,,,,,0.574,1,,,,,,,,,,,,,,,0,0.329591837,-0.284693878,1,0,0,0.574,button_right_main,0.329591837,-0.284693878,1,0,0,,0,155,155,45,1,MONKEY,C,old,m,./images/MONKEY.png,,,,,,,,,,,,,,,,,,,,,,,,,,,,,,,,,
,,,,,,,,,,,,,,,,,,39,2022-02-12_13h48.06.175,lexical_decision_task_DD_L4,2021.2.3,iPhone,62.5,,,,,,,,,,0.892,1,,,,,,,,,,,,,,,0,0.333673469,-0.283673469,1,0,0,0.892,button_right_main,0.333673469,-0.283673469,1,0,0,,0,156,156,70,1,BANANA,HB,old,m,./images/BANANAHB.png,,,,,,,,,,,,,,,,,,,,,,,,,,,,,,,,,
,,,,,,,,,,,,,,,,,,39,2022-02-12_13h48.06.175,lexical_decision_task_DD_L4,2021.2.3,iPhone,62.5,,,,,,,,,,0.725,1,,,,,,,,,,,,,,,0,-0.297959184,-0.328571429,1,0,0,0.725,button_left_main,-0.297959184,-0.328571429,1,0,0,,0,157,157,136,1,WERVE,HB,old,z,./images/WERVEHB.png,,,,,,,,,,,,,,,,,,,,,,,,,,,,,,,,,
,,,,,,,,,,,,,,,,,,39,2022-02-12_13h48.06.175,lexical_decision_task_DD_L4,2021.2.3,iPhone,62.5,,,,,,,,,,0.558,1,,,,,,,,,,,,,,,0,0.334693878,-0.27755102,1,0,0,0.558,button_right_main,0.334693878,-0.27755102,1,0,0,,0,158,158,0,1,WALNUT,C,old,m,./images/WALNUT.png,,,,,,,,,,,,,,,,,,,,,,,,,,,,,,,,,
,,,,,,,,,,,,,,,,,,39,2022-02-12_13h48.06.175,lexical_decision_task_DD_L4,2021.2.3,iPhone,62.5,,,,,,,,,,0.659,1,,,,,,,,,,,,,,,0,-0.301020408,-0.326530612,1,0,0,0.659,button_left_main,-0.301020408,-0.326530612,1,0,0,,0,159,159,126,1,GUELS,C,old,z,./images/GUELS.png,,,,,,,,,,,,,,,,,,,,,,,,,,,,,,,,,
,,,,,,,,,,,,,,,,,,39,2022-02-12_13h48.06.175,lexical_decision_task_DD_L4,2021.2.3,iPhone,62.5,,,,,,,,,,1.076,0,,,,,,,,,,,,,,,0,-0.297959184,-0.307142857,1,0,0,1.076,button_left_main,-0.297959184,-0.307142857,1,0,0,,0,160,160,37,1,TIGER,HB,old,m,./images/TIGERHB.png,,,,,,,,,,,,,,,,,,,,,,,,,,,,,,,,,
,,,,,,,,,,,,,,,,,,39,2022-02-12_13h48.06.175,lexical_decision_task_DD_L4,2021.2.3,iPhone,62.5,,,,,,,,,,1.21,1,,,,,,,,,,,,,,,0,-0.321428571,-0.285714286,1,0,0,1.21,button_left_main,-0.321428571,-0.285714286,1,0,0,,0,161,161,88,1,GLUSH,HB,old,z,./images/GLUSHHB.png,,,,,,,,,,,,,,,,,,,,,,,,,,,,,,,,,
,,,,,,,,,,,,,,,,,,39,2022-02-12_13h48.06.175,lexical_decision_task_DD_L4,2021.2.3,iPhone,62.5,,,,,,,,,,1.109,1,,,,,,,,,,,,,,,0,0.336734694,-0.296938776,1,0,0,1.109,button_right_main,0.336734694,-0.296938776,1,0,0,,0,162,162,61,1,ARTIST,HB,old,m,./images/ARTISTHB.png,,,,,,,,,,,,,,,,,,,,,,,,,,,,,,,,,
,,,,,,,,,,,,,,,,,,39,2022-02-12_13h48.06.175,lexical_decision_task_DD_L4,2021.2.3,iPhone,62.5,,,,,,,,,,0.608,1,,,,,,,,,,,,,,,0,0.340816327,-0.282653061,1,0,0,0.608,button_right_main,0.340816327,-0.282653061,1,0,0,,0,163,163,68,1,VALLEY,LB,old,m,./images/VALLEYLB.png,,,,,,,,,,,,,,,,,,,,,,,,,,,,,,,,,
,,,,,,,,,,,,,,,,,,39,2022-02-12_13h48.06.175,lexical_decision_task_DD_L4,2021.2.3,iPhone,62.5,,,,,,,,,,0.908,1,,,,,,,,,,,,,,,0,0.334693878,-0.273469388,1,0,0,0.908,button_right_main,0.334693878,-0.273469388,1,0,0,,0,164,164,4,1,BOXER,HB,old,m,./images/BOXERHB.png,,,,,,,,,,,,,,,,,,,,,,,,,,,,,,,,,
,,,,,,,,,,,,,,,,,,39,2022-02-12_13h48.06.175,lexical_decision_task_DD_L4,2021.2.3,iPhone,62.5,,,,,,,,,,0.774,1,,,,,,,,,,,,,,,0,-0.297959184,-0.307142857,1,0,0,0.774,button_left_main,-0.297959184,-0.307142857,1,0,0,,0,165,165,112,1,MYING,HB,old,z,./images/MYINGHB.png,,,,,,,,,,,,,,,,,,,,,,,,,,,,,,,,,
,,,,,,,,,,,,,,,,,,39,2022-02-12_13h48.06.175,lexical_decision_task_DD_L4,2021.2.3,iPhone,62.5,,,,,,,,,,0.624,1,,,,,,,,,,,,,,,0,-0.31122449,-0.294897959,1,0,0,0.624,button_left_main,-0.31122449,-0.294897959,1,0,0,,0,166,166,86,1,AIFED,LB,old,z,./images/AIFEDLB.png,,,,,,,,,,,,,,,,,,,,,,,,,,,,,,,,,
,,,,,,,,,,,,,,,,,,39,2022-02-12_13h48.06.175,lexical_decision_task_DD_L4,2021.2.3,iPhone,62.5,,,,,,,,,,1.075,1,,,,,,,,,,,,,,,0,-0.316326531,-0.270408163,1,0,0,1.075,button_left_main,-0.316326531,-0.270408163,1,0,0,,0,167,167,99,1,BACKY,C,old,z,./images/BACKY.png,,,,,,,,,,,,,,,,,,,,,,,,,,,,,,,,,
,,,,,,,,,,,,,,,,,,39,2022-02-12_13h48.06.175,lexical_decision_task_DD_L4,2021.2.3,iPhone,62.5,,,,,,,,,,,,,,,,,,,,,,,,,,,,,,,,,,,,,,,,,,,,,,How likely will it be that you will recognize the words presented very blurred on a scale of 0 (not likely) to 100 (most likely)?,,,,,0.012244898,-0.443877551,1,0,0,jol_adv,4,8.454,0,0,0,2,1,,,,,,,,,,,,,,,,,,,
,,,,,,,,,,,,,,,,,,39,2022-02-12_13h48.06.175,lexical_decision_task_DD_L4,2021.2.3,iPhone,62.5,,,,,,,,,,,,,,,,,,,,,,,,,,,,,,,,,,,,,,,,,,,,,,How likely will it be that you will recognize the words presented clearly on a scale of 0 (not likely) to 100 (most likely)?,,,,,,,,,,,6,8.366,0,1,1,0,1,,,,,,,,,,,,,,,,,,,
,,,,,,,,,,,,,,,,,,39,2022-02-12_13h48.06.175,lexical_decision_task_DD_L4,2021.2.3,iPhone,62.5,,,,,,,,,,,,,,,,,,,,,,,,,,,,,,,,,,,,,,,,,,,,,,How likely will it be that you will recognize the words presented slighly blurred on a scale of 0 (not likely) to 100 (most likely)?,,,,,,,,,,,5,7.818,0,2,2,1,1,,,,,,,,,,,,,,,,,,,
,0.165306122,-0.41122449,1,0,0,instr_done_button,,,,,,1,test,"In the next phase you will be presented with the words from the the first phase. Your job is to decide whether you remember seeing the word or not. If you remember seeing the word press ""old"" or type ""m"". If you do not remember seeing the word press ""new"" or type ""z"". Please press the space bar or click on continue to begin. ",,,,39,2022-02-12_13h48.06.175,lexical_decision_task_DD_L4,2021.2.3,iPhone,62.5,,,,,,,,,,,,,,,,,,,,,,,,,,,,,,,,,,,,,,,,,,,,,,,,,,,,,,,,,,,,,,,,0,0,0,0,1,,,,,,,,,,,,,,
,0.168367347,-0.398979592,1,0,0,instr_done_button,,,,,,1,test,"In the next phase you will be presented with the words from the the first phase. Your job is to decide whether you remember seeing the word or not. If you remember seeing the word press ""old"" or type ""m"". If you do not remember seeing the word press ""new"" or type ""z"". Please press the space bar or click on continue to begin. ",,,,39,2022-02-12_13h48.06.175,lexical_decision_task_DD_L4,2021.2.3,iPhone,62.5,,,,,,,,,,,,,,,,,,,,,,,,,,,,,,,,,,,,,,,,,,,,,,,,,,,,,,,,,,,,,,,,1,0,1,0,1,,,,,,,,,,,,,,
,0.037755102,-0.444897959,1,0,0,instr_done_button,,,,,,1,test,"In the next phase you will be presented with the words from the the first phase. Your job is to decide whether you remember seeing the word or not. If you remember seeing the word press ""old"" or type ""m"". If you do not remember seeing the word press ""new"" or type ""z"". Please press the space bar or click on continue to begin. ",,,,39,2022-02-12_13h48.06.175,lexical_decision_task_DD_L4,2021.2.3,iPhone,62.5,,,,,,,,,,,,,,,,,,,,,,,,,,,,,,,,,,,,,,,,,,,,,,,,,,,,,,,,,,,,,,,,2,0,2,0,1,,,,,,,,,,,,,,
,0.005102041,-0.396938776,1,0,0,instr_done_button,,,,,,1,test,"In the next phase you will be presented with the words from the the first phase. Your job is to decide whether you remember seeing the word or not. If you remember seeing the word press ""old"" or type ""m"". If you do not remember seeing the word press ""new"" or type ""z"". Please press the space bar or click on continue to begin. ",,,,39,2022-02-12_13h48.06.175,lexical_decision_task_DD_L4,2021.2.3,iPhone,62.5,,,,,,,,,,,,,,,,,,,,,,,,,,,,,,,,,,,,,,,,,,,,,,,,,,,,,,,,,,,,,,,,3,0,3,0,1,,,,,,,,,,,,,,
,0.07244898,-0.376530612,1,0,0,instr_done_button,,,,,,1,test,"In the next phase you will be presented with the words from the the first phase. Your job is to decide whether you remember seeing the word or not. If you remember seeing the word press ""old"" or type ""m"". If you do not remember seeing the word press ""new"" or type ""z"". Please press the space bar or click on continue to begin. ",,,,39,2022-02-12_13h48.06.175,lexical_decision_task_DD_L4,2021.2.3,iPhone,62.5,,,,,,,,,,,,,,,,,,,,,,,,,,,,,,,,,,,,,,,,,,,,,,,,,,,,,,,,,,,,,,,,4,0,4,0,1,,,,,,,,,,,,,,
,,,,,,,,,,,,,,,,,,39,2022-02-12_13h48.06.175,lexical_decision_task_DD_L4,2021.2.3,iPhone,62.5,,,,,,,,,,2.76,1,,,,,,,,,,,,,,,,,,,,,,,-0.37244898,-0.314285714,1,0,0,,,,,,,BANNER,HB,z,y,./images/BANNERHB.png,,,,,,,,,,,,,,,,,,,,,0,-0.37244898,-0.314285714,1,0,0,2.76,button_left_test,0,0,0,136,1
,,,,,,,,,,,,,,,,,,39,2022-02-12_13h48.06.175,lexical_decision_task_DD_L4,2021.2.3,iPhone,62.5,,,,,,,,,,1.442,1,,,,,,,,,,,,,,,,,,,,,,,0.385714286,-0.329591837,1,0,0,,,,,,,CHALK,HB,m,y,./images/CHALKHB.png,,,,,,,,,,,,,,,,,,,,,0,0.385714286,-0.329591837,1,0,0,1.442,button_right_test,0,1,1,25,1
,,,,,,,,,,,,,,,,,,39,2022-02-12_13h48.06.175,lexical_decision_task_DD_L4,2021.2.3,iPhone,62.5,,,,,,,,,,1.226,0,,,,,,,,,,,,,,,,,,,,,,,0.378571429,-0.317346939,1,0,0,,,,,,,KITTEN,C,z,y,./images/KITTEN.png,,,,,,,,,,,,,,,,,,,,,0,0.378571429,-0.317346939,1,0,0,1.226,button_right_test,0,2,2,129,1
,,,,,,,,,,,,,,,,,,39,2022-02-12_13h48.06.175,lexical_decision_task_DD_L4,2021.2.3,iPhone,62.5,,,,,,,,,,0.962,0,,,,,,,,,,,,,,,,,,,,,,,0.353061224,-0.328571429,1,0,0,,,,,,,SWING,HB,z,y,./images/SWINGHB.png,,,,,,,,,,,,,,,,,,,,,0,0.353061224,-0.328571429,1,0,0,0.962,button_right_test,0,3,3,124,1
,,,,,,,,,,,,,,,,,,39,2022-02-12_13h48.06.175,lexical_decision_task_DD_L4,2021.2.3,iPhone,62.5,,,,,,,,,,1.98,1,,,,,,,,,,,,,,,,,,,,,,,-0.345918367,-0.335714286,1,0,0,,,,,,,SAILOR,HB,z,y,./images/SAILORHB.png,,,,,,,,,,,,,,,,,,,,,0,-0.345918367,-0.335714286,1,0,0,1.98,button_left_test,0,4,4,151,1
,,,,,,,,,,,,,,,,,,39,2022-02-12_13h48.06.175,lexical_decision_task_DD_L4,2021.2.3,iPhone,62.5,,,,,,,,,,1.459,0,,,,,,,,,,,,,,,,,,,,,,,-0.369387755,-0.325510204,1,0,0,,,,,,,CANDY,C,m,y,./images/CANDY.png,,,,,,,,,,,,,,,,,,,,,0,-0.369387755,-0.325510204,1,0,0,1.459,button_left_test,0,5,5,39,1
,,,,,,,,,,,,,,,,,,39,2022-02-12_13h48.06.175,lexical_decision_task_DD_L4,2021.2.3,iPhone,62.5,,,,,,,,,,0.941,0,,,,,,,,,,,,,,,,,,,,,,,0.357142857,-0.359183673,1,0,0,,,,,,,SMOKER,LB,z,y,./images/SMOKERLB.png,,,,,,,,,,,,,,,,,,,,,0,0.357142857,-0.359183673,1,0,0,0.941,button_right_test,0,6,6,110,1
,,,,,,,,,,,,,,,,,,39,2022-02-12_13h48.06.175,lexical_decision_task_DD_L4,2021.2.3,iPhone,62.5,,,,,,,,,,0.958,1,,,,,,,,,,,,,,,,,,,,,,,0.354081633,-0.373469388,1,0,0,,,,,,,BAMBOO,LB,m,y,./images/BAMBOOLB.png,,,,,,,,,,,,,,,,,,,,,0,0.354081633,-0.373469388,1,0,0,0.958,button_right_test,0,7,7,5,1
,,,,,,,,,,,,,,,,,,39,2022-02-12_13h48.06.175,lexical_decision_task_DD_L4,2021.2.3,iPhone,62.5,,,,,,,,,,0.791,0,,,,,,,,,,,,,,,,,,,,,,,0.368367347,-0.364285714,1,0,0,,,,,,,FALCON,HB,z,y,./images/FALCONHB.png,,,,,,,,,,,,,,,,,,,,,0,0.368367347,-0.364285714,1,0,0,0.791,button_right_test,0,8,8,112,1
,,,,,,,,,,,,,,,,,,39,2022-02-12_13h48.06.175,lexical_decision_task_DD_L4,2021.2.3,iPhone,62.5,,,,,,,,,,0.656,0,,,,,,,,,,,,,,,,,,,,,,,0.351020408,-0.356122449,1,0,0,,,,,,,STORM,C,z,y,./images/STORM.png,,,,,,,,,,,,,,,,,,,,,0,0.351020408,-0.356122449,1,0,0,0.656,button_right_test,0,9,9,114,1
,,,,,,,,,,,,,,,,,,39,2022-02-12_13h48.06.175,lexical_decision_task_DD_L4,2021.2.3,iPhone,62.5,,,,,,,,,,0.724,1,,,,,,,,,,,,,,,,,,,,,,,0.347959184,-0.355102041,1,0,0,,,,,,,MUMMY,HB,m,y,./images/MUMMYHB.png,,,,,,,,,,,,,,,,,,,,,0,0.347959184,-0.355102041,1,0,0,0.724,button_right_test,0,10,10,46,1
,,,,,,,,,,,,,,,,,,39,2022-02-12_13h48.06.175,lexical_decision_task_DD_L4,2021.2.3,iPhone,62.5,,,,,,,,,,0.858,0,,,,,,,,,,,,,,,,,,,,,,,0.362244898,-0.352040816,1,0,0,,,,,,,CRUST,HB,z,y,./images/CRUSTHB.png,,,,,,,,,,,,,,,,,,,,,0,0.362244898,-0.352040816,1,0,0,0.858,button_right_test,0,11,11,163,1
,,,,,,,,,,,,,,,,,,39,2022-02-12_13h48.06.175,lexical_decision_task_DD_L4,2021.2.3,iPhone,62.5,,,,,,,,,,0.991,1,,,,,,,,,,,,,,,,,,,,,,,-0.383673469,-0.309183673,1,0,0,,,,,,,SPORT,C,z,y,./images/SPORT.png,,,,,,,,,,,,,,,,,,,,,0,-0.383673469,-0.309183673,1,0,0,0.991,button_left_test,0,12,12,132,1
,,,,,,,,,,,,,,,,,,39,2022-02-12_13h48.06.175,lexical_decision_task_DD_L4,2021.2.3,iPhone,62.5,,,,,,,,,,1.208,0,,,,,,,,,,,,,,,,,,,,,,,0.363265306,-0.353061224,1,0,0,,,,,,,PACKET,LB,z,y,./images/PACKETLB.png,,,,,,,,,,,,,,,,,,,,,0,0.363265306,-0.353061224,1,0,0,1.208,button_right_test,0,13,13,140,1
,,,,,,,,,,,,,,,,,,39,2022-02-12_13h48.06.175,lexical_decision_task_DD_L4,2021.2.3,iPhone,62.5,,,,,,,,,,0.623,1,,,,,,,,,,,,,,,,,,,,,,,0.340816327,-0.353061224,1,0,0,,,,,,,PARADE,LB,m,y,./images/PARADELB.png,,,,,,,,,,,,,,,,,,,,,0,0.340816327,-0.353061224,1,0,0,0.623,button_right_test,0,14,14,17,1
,,,,,,,,,,,,,,,,,,39,2022-02-12_13h48.06.175,lexical_decision_task_DD_L4,2021.2.3,iPhone,62.5,,,,,,,,,,0.79,0,,,,,,,,,,,,,,,,,,,,,,,0.334693878,-0.351020408,1,0,0,,,,,,,POODLE,C,z,y,./images/POODLE.png,,,,,,,,,,,,,,,,,,,,,0,0.334693878,-0.351020408,1,0,0,0.79,button_right_test,0,15,15,165,1
,,,,,,,,,,,,,,,,,,39,2022-02-12_13h48.06.175,lexical_decision_task_DD_L4,2021.2.3,iPhone,62.5,,,,,,,,,,0.825,1,,,,,,,,,,,,,,,,,,,,,,,0.343877551,-0.342857143,1,0,0,,,,,,,FERRY,C,m,y,./images/FERRY.png,,,,,,,,,,,,,,,,,,,,,0,0.343877551,-0.342857143,1,0,0,0.825,button_right_test,0,16,16,57,1
,,,,,,,,,,,,,,,,,,39,2022-02-12_13h48.06.175,lexical_decision_task_DD_L4,2021.2.3,iPhone,62.5,,,,,,,,,,0.841,0,,,,,,,,,,,,,,,,,,,,,,,0.32755102,-0.355102041,1,0,0,,,,,,,BABOON,HB,z,y,./images/BABOONHB.png,,,,,,,,,,,,,,,,,,,,,0,0.32755102,-0.355102041,1,0,0,0.841,button_right_test,0,17,17,142,1
,,,,,,,,,,,,,,,,,,39,2022-02-12_13h48.06.175,lexical_decision_task_DD_L4,2021.2.3,iPhone,62.5,,,,,,,,,,0.706,1,,,,,,,,,,,,,,,,,,,,,,,0.347959184,-0.345918367,1,0,0,,,,,,,SPINE,LB,m,y,./images/SPINELB.png,,,,,,,,,,,,,,,,,,,,,0,0.347959184,-0.345918367,1,0,0,0.706,button_right_test,0,18,18,65,1
,,,,,,,,,,,,,,,,,,39,2022-02-12_13h48.06.175,lexical_decision_task_DD_L4,2021.2.3,iPhone,62.5,,,,,,,,,,0.558,1,,,,,,,,,,,,,,,,,,,,,,,0.330612245,-0.342857143,1,0,0,,,,,,,GARDEN,HB,m,y,./images/GARDENHB.png,,,,,,,,,,,,,,,,,,,,,0,0.330612245,-0.342857143,1,0,0,0.558,button_right_test,0,19,19,10,1
,,,,,,,,,,,,,,,,,,39,2022-02-12_13h48.06.175,lexical_decision_task_DD_L4,2021.2.3,iPhone,62.5,,,,,,,,,,0.825,1,,,,,,,,,,,,,,,,,,,,,,,-0.363265306,-0.316326531,1,0,0,,,,,,,PURSE,LB,z,y,./images/PURSELB.png,,,,,,,,,,,,,,,,,,,,,0,-0.363265306,-0.316326531,1,0,0,0.825,button_left_test,0,20,20,146,1
,,,,,,,,,,,,,,,,,,39,2022-02-12_13h48.06.175,lexical_decision_task_DD_L4,2021.2.3,iPhone,62.5,,,,,,,,,,0.725,1,,,,,,,,,,,,,,,,,,,,,,,0.335714286,-0.343877551,1,0,0,,,,,,,CANOE,HB,m,y,./images/CANOEHB.png,,,,,,,,,,,,,,,,,,,,,0,0.335714286,-0.343877551,1,0,0,0.725,button_right_test,0,21,21,58,1
,,,,,,,,,,,,,,,,,,39,2022-02-12_13h48.06.175,lexical_decision_task_DD_L4,2021.2.3,iPhone,62.5,,,,,,,,,,0.759,1,,,,,,,,,,,,,,,,,,,,,,,0.334693878,-0.335714286,1,0,0,,,,,,,CRATER,C,m,y,./images/CRATER.png,,,,,,,,,,,,,,,,,,,,,0,0.334693878,-0.335714286,1,0,0,0.759,button_right_test,0,22,22,3,1
,,,,,,,,,,,,,,,,,,39,2022-02-12_13h48.06.175,lexical_decision_task_DD_L4,2021.2.3,iPhone,62.5,,,,,,,,,,0.723,0,,,,,,,,,,,,,,,,,,,,,,,0.347959184,-0.359183673,1,0,0,,,,,,,CRADLE,LB,z,y,./images/CRADLELB.png,,,,,,,,,,,,,,,,,,,,,0,0.347959184,-0.359183673,1,0,0,0.723,button_right_test,0,23,23,104,1
,,,,,,,,,,,,,,,,,,39,2022-02-12_13h48.06.175,lexical_decision_task_DD_L4,2021.2.3,iPhone,62.5,,,,,,,,,,0.691,1,,,,,,,,,,,,,,,,,,,,,,,0.332653061,-0.341836735,1,0,0,,,,,,,LLAMA,LB,m,y,./images/LLAMALB.png,,,,,,,,,,,,,,,,,,,,,0,0.332653061,-0.341836735,1,0,0,0.691,button_right_test,0,24,24,35,1
,,,,,,,,,,,,,,,,,,39,2022-02-12_13h48.06.175,lexical_decision_task_DD_L4,2021.2.3,iPhone,62.5,,,,,,,,,,0.625,1,,,,,,,,,,,,,,,,,,,,,,,0.331632653,-0.341836735,1,0,0,,,,,,,WAGON,HB,m,y,./images/WAGONHB.png,,,,,,,,,,,,,,,,,,,,,0,0.331632653,-0.341836735,1,0,0,0.625,button_right_test,0,25,25,7,1
,,,,,,,,,,,,,,,,,,39,2022-02-12_13h48.06.175,lexical_decision_task_DD_L4,2021.2.3,iPhone,62.5,,,,,,,,,,0.623,1,,,,,,,,,,,,,,,,,,,,,,,0.328571429,-0.340816327,1,0,0,,,,,,,CLIFF,LB,m,y,./images/CLIFFLB.png,,,,,,,,,,,,,,,,,,,,,0,0.328571429,-0.340816327,1,0,0,0.623,button_right_test,0,26,26,8,1
,,,,,,,,,,,,,,,,,,39,2022-02-12_13h48.06.175,lexical_decision_task_DD_L4,2021.2.3,iPhone,62.5,,,,,,,,,,0.623,1,,,,,,,,,,,,,,,,,,,,,,,0.315306122,-0.347959184,1,0,0,,,,,,,FENCE,LB,m,y,./images/FENCELB.png,,,,,,,,,,,,,,,,,,,,,0,0.315306122,-0.347959184,1,0,0,0.623,button_right_test,0,27,27,14,1
,,,,,,,,,,,,,,,,,,39,2022-02-12_13h48.06.175,lexical_decision_task_DD_L4,2021.2.3,iPhone,62.5,,,,,,,,,,0.792,0,,,,,,,,,,,,,,,,,,,,,,,0.326530612,-0.347959184,1,0,0,,,,,,,BELLY,HB,z,y,./images/BELLYHB.png,,,,,,,,,,,,,,,,,,,,,0,0.326530612,-0.347959184,1,0,0,0.792,button_right_test,0,28,28,94,1
,,,,,,,,,,,,,,,,,,39,2022-02-12_13h48.06.175,lexical_decision_task_DD_L4,2021.2.3,iPhone,62.5,,,,,,,,,,0.691,1,,,,,,,,,,,,,,,,,,,,,,,0.318367347,-0.345918367,1,0,0,,,,,,,SAUNA,C,m,y,./images/SAUNA.png,,,,,,,,,,,,,,,,,,,,,0,0.318367347,-0.345918367,1,0,0,0.691,button_right_test,0,29,29,33,1
,,,,,,,,,,,,,,,,,,39,2022-02-12_13h48.06.175,lexical_decision_task_DD_L4,2021.2.3,iPhone,62.5,,,,,,,,,,1.059,1,,,,,,,,,,,,,,,,,,,,,,,-0.355102041,-0.329591837,1,0,0,,,,,,,MALLET,LB,z,y,./images/MALLETLB.png,,,,,,,,,,,,,,,,,,,,,0,-0.355102041,-0.329591837,1,0,0,1.059,button_left_test,0,30,30,134,1
,,,,,,,,,,,,,,,,,,39,2022-02-12_13h48.06.175,lexical_decision_task_DD_L4,2021.2.3,iPhone,62.5,,,,,,,,,,1.109,1,,,,,,,,,,,,,,,,,,,,,,,0.32755102,-0.347959184,1,0,0,,,,,,,GLOVE,HB,m,y,./images/GLOVEHB.png,,,,,,,,,,,,,,,,,,,,,0,0.32755102,-0.347959184,1,0,0,1.109,button_right_test,0,31,31,73,1
,,,,,,,,,,,,,,,,,,39,2022-02-12_13h48.06.175,lexical_decision_task_DD_L4,2021.2.3,iPhone,62.5,,,,,,,,,,0.859,0,,,,,,,,,,,,,,,,,,,,,,,-0.354081633,-0.35,1,0,0,,,,,,,CLOTH,LB,m,y,./images/CLOTHLB.png,,,,,,,,,,,,,,,,,,,,,0,-0.354081633,-0.35,1,0,0,0.859,button_left_test,0,32,32,23,1
,,,,,,,,,,,,,,,,,,39,2022-02-12_13h48.06.175,lexical_decision_task_DD_L4,2021.2.3,iPhone,62.5,,,,,,,,,,0.992,1,,,,,,,,,,,,,,,,,,,,,,,-0.332653061,-0.37755102,1,0,0,,,,,,,TOMATO,C,z,y,./images/TOMATO.png,,,,,,,,,,,,,,,,,,,,,0,-0.332653061,-0.37755102,1,0,0,0.992,button_left_test,0,33,33,84,1
,,,,,,,,,,,,,,,,,,39,2022-02-12_13h48.06.175,lexical_decision_task_DD_L4,2021.2.3,iPhone,62.5,,,,,,,,,,0.742,1,,,,,,,,,,,,,,,,,,,,,,,-0.341836735,-0.36122449,1,0,0,,,,,,,PEARL,HB,z,y,./images/PEARLHB.png,,,,,,,,,,,,,,,,,,,,,0,-0.341836735,-0.36122449,1,0,0,0.742,button_left_test,0,34,34,130,1
,,,,,,,,,,,,,,,,,,39,2022-02-12_13h48.06.175,lexical_decision_task_DD_L4,2021.2.3,iPhone,62.5,,,,,,,,,,0.974,1,,,,,,,,,,,,,,,,,,,,,,,-0.337755102,-0.363265306,1,0,0,,,,,,,TORCH,LB,z,y,./images/TORCHLB.png,,,,,,,,,,,,,,,,,,,,,0,-0.337755102,-0.363265306,1,0,0,0.974,button_left_test,0,35,35,152,1
,,,,,,,,,,,,,,,,,,39,2022-02-12_13h48.06.175,lexical_decision_task_DD_L4,2021.2.3,iPhone,62.5,,,,,,,,,,0.657,1,,,,,,,,,,,,,,,,,,,,,,,0.330612245,-0.368367347,1,0,0,,,,,,,BUTTER,C,m,y,./images/BUTTER.png,,,,,,,,,,,,,,,,,,,,,0,0.330612245,-0.368367347,1,0,0,0.657,button_right_test,0,36,36,27,1
,,,,,,,,,,,,,,,,,,39,2022-02-12_13h48.06.175,lexical_decision_task_DD_L4,2021.2.3,iPhone,62.5,,,,,,,,,,0.708,1,,,,,,,,,,,,,,,,,,,,,,,0.328571429,-0.364285714,1,0,0,,,,,,,GRANNY,LB,m,y,./images/GRANNYLB.png,,,,,,,,,,,,,,,,,,,,,0,0.328571429,-0.364285714,1,0,0,0.708,button_right_test,0,37,37,20,1
,,,,,,,,,,,,,,,,,,39,2022-02-12_13h48.06.175,lexical_decision_task_DD_L4,2021.2.3,iPhone,62.5,,,,,,,,,,0.957,1,,,,,,,,,,,,,,,,,,,,,,,-0.341836735,-0.374489796,1,0,0,,,,,,,CANYON,HB,z,y,./images/CANYONHB.png,,,,,,,,,,,,,,,,,,,,,0,-0.321428571,-0.430612245,1,0,0,0.957,button_left_test,0,38,38,118,1
,,,,,,,,,,,,,,,,,,39,2022-02-12_13h48.06.175,lexical_decision_task_DD_L4,2021.2.3,iPhone,62.5,,,,,,,,,,1.175,1,,,,,,,,,,,,,,,,,,,,,,,0.315306122,-0.358163265,1,0,0,,,,,,,MIDGET,HB,m,y,./images/MIDGETHB.png,,,,,,,,,,,,,,,,,,,,,0,0.315306122,-0.358163265,1,0,0,1.175,button_right_test,0,39,39,76,1
,,,,,,,,,,,,,,,,,,39,2022-02-12_13h48.06.175,lexical_decision_task_DD_L4,2021.2.3,iPhone,62.5,,,,,,,,,,1.274,1,,,,,,,,,,,,,,,,,,,,,,,-0.339795918,-0.367346939,1,0,0,,,,,,,SHORE,C,z,y,./images/SHORE.png,,,,,,,,,,,,,,,,,,,,,0,-0.339795918,-0.367346939,1,0,0,1.274,button_left_test,0,40,40,96,1
,,,,,,,,,,,,,,,,,,39,2022-02-12_13h48.06.175,lexical_decision_task_DD_L4,2021.2.3,iPhone,62.5,,,,,,,,,,0.737,1,,,,,,,,,,,,,,,,,,,,,,,0.168367347,-0.426530612,1,0,0,,,,,,,PEBBLE,HB,m,y,./images/PEBBLEHB.png,break_done_button,,,,,,,,,,,,,,,,,,,,0,0.320408163,-0.366326531,1,0,0,0.737,button_right_test,0,41,41,82,1
,,,,,,,,,,,,,,,,,,39,2022-02-12_13h48.06.175,lexical_decision_task_DD_L4,2021.2.3,iPhone,62.5,,,,,,,,,,1.493,0,,,,,,,,,,,,,,,,,,,,,,,0.310204082,-0.336734694,1,0,0,,,,,,,THROAT,C,z,y,./images/THROAT.png,,,,,,,,,,,,,,,,,,,,,0,0.310204082,-0.336734694,1,0,0,1.493,button_right_test,0,42,42,120,1
,,,,,,,,,,,,,,,,,,39,2022-02-12_13h48.06.175,lexical_decision_task_DD_L4,2021.2.3,iPhone,62.5,,,,,,,,,,0.907,1,,,,,,,,,,,,,,,,,,,,,,,0.301020408,-0.33877551,1,0,0,,,,,,,POKER,HB,m,y,./images/POKERHB.png,,,,,,,,,,,,,,,,,,,,,0,0.301020408,-0.33877551,1,0,0,0.907,button_right_test,0,43,43,67,1
,,,,,,,,,,,,,,,,,,39,2022-02-12_13h48.06.175,lexical_decision_task_DD_L4,2021.2.3,iPhone,62.5,,,,,,,,,,1.007,1,,,,,,,,,,,,,,,,,,,,,,,-0.329591837,-0.368367347,1,0,0,,,,,,,MOOSE,C,z,y,./images/MOOSE.png,,,,,,,,,,,,,,,,,,,,,0,-0.329591837,-0.368367347,1,0,0,1.007,button_left_test,0,44,44,141,1
,,,,,,,,,,,,,,,,,,39,2022-02-12_13h48.06.175,lexical_decision_task_DD_L4,2021.2.3,iPhone,62.5,,,,,,,,,,0.707,1,,,,,,,,,,,,,,,,,,,,,,,-0.321428571,-0.369387755,1,0,0,,,,,,,ONION,C,z,y,./images/ONION.png,,,,,,,,,,,,,,,,,,,,,0,-0.321428571,-0.369387755,1,0,0,0.707,button_left_test,0,45,45,135,1
,,,,,,,,,,,,,,,,,,39,2022-02-12_13h48.06.175,lexical_decision_task_DD_L4,2021.2.3,iPhone,62.5,,,,,,,,,,1.024,0,,,,,,,,,,,,,,,,,,,,,,,-0.317346939,-0.364285714,1,0,0,,,,,,,CLOWN,HB,m,y,./images/CLOWNHB.png,,,,,,,,,,,,,,,,,,,,,0,-0.317346939,-0.364285714,1,0,0,1.024,button_left_test,0,46,46,22,1
,,,,,,,,,,,,,,,,,,39,2022-02-12_13h48.06.175,lexical_decision_task_DD_L4,2021.2.3,iPhone,62.5,,,,,,,,,,0.724,1,,,,,,,,,,,,,,,,,,,,,,,0.307142857,-0.330612245,1,0,0,,,,,,,BUNNY,HB,m,y,./images/BUNNYHB.png,,,,,,,,,,,,,,,,,,,,,0,0.307142857,-0.330612245,1,0,0,0.724,button_right_test,0,47,47,13,1
,,,,,,,,,,,,,,,,,,39,2022-02-12_13h48.06.175,lexical_decision_task_DD_L4,2021.2.3,iPhone,62.5,,,,,,,,,,0.591,1,,,,,,,,,,,,,,,,,,,,,,,0.293877551,-0.341836735,1,0,0,,,,,,,WALNUT,C,m,y,./images/WALNUT.png,,,,,,,,,,,,,,,,,,,,,0,0.293877551,-0.341836735,1,0,0,0.591,button_right_test,0,48,48,0,1
,,,,,,,,,,,,,,,,,,39,2022-02-12_13h48.06.175,lexical_decision_task_DD_L4,2021.2.3,iPhone,62.5,,,,,,,,,,0.641,0,,,,,,,,,,,,,,,,,,,,,,,0.259183673,-0.38877551,1,0,0,,,,,,,SNACK,HB,z,y,./images/SNACKHB.png,,,,,,,,,,,,,,,,,,,,,0,0.259183673,-0.38877551,1,0,0,0.641,button_right_test,0,49,49,157,1
,,,,,,,,,,,,,,,,,,39,2022-02-12_13h48.06.175,lexical_decision_task_DD_L4,2021.2.3,iPhone,62.5,,,,,,,,,,0.707,1,,,,,,,,,,,,,,,,,,,,,,,-0.324489796,-0.370408163,1,0,0,,,,,,,MUSCLE,HB,z,y,./images/MUSCLEHB.png,,,,,,,,,,,,,,,,,,,,,0,-0.313265306,-0.407142857,1,0,0,0.707,button_left_test,0,50,50,88,1
,,,,,,,,,,,,,,,,,,39,2022-02-12_13h48.06.175,lexical_decision_task_DD_L4,2021.2.3,iPhone,62.5,,,,,,,,,,0.841,1,,,,,,,,,,,,,,,,,,,,,,,-0.334693878,-0.353061224,1,0,0,,,,,,,MIRROR,C,z,y,./images/MIRROR.png,,,,,,,,,,,,,,,,,,,,,0,-0.334693878,-0.353061224,1,0,0,0.841,button_left_test,0,51,51,147,1
,,,,,,,,,,,,,,,,,,39,2022-02-12_13h48.06.175,lexical_decision_task_DD_L4,2021.2.3,iPhone,62.5,,,,,,,,,,0.912,1,,,,,,,,,,,,,,,,,,,,,,,0.296938776,-0.355102041,1,0,0,,,,,,,PARCEL,C,m,y,./images/PARCEL.png,,,,,,,,,,,,,,,,,,,,,0,0.296938776,-0.355102041,1,0,0,0.912,button_right_test,0,52,52,18,1
,,,,,,,,,,,,,,,,,,39,2022-02-12_13h48.06.175,lexical_decision_task_DD_L4,2021.2.3,iPhone,62.5,,,,,,,,,,0.774,1,,,,,,,,,,,,,,,,,,,,,,,0.276530612,-0.384693878,1,0,0,,,,,,,BLOKE,C,m,y,./images/BLOKE.png,,,,,,,,,,,,,,,,,,,,,0,0.276530612,-0.384693878,1,0,0,0.774,button_right_test,0,53,53,12,1
,,,,,,,,,,,,,,,,,,39,2022-02-12_13h48.06.175,lexical_decision_task_DD_L4,2021.2.3,iPhone,62.5,,,,,,,,,,0.791,1,,,,,,,,,,,,,,,,,,,,,,,0.279591837,-0.383673469,1,0,0,,,,,,,MEDAL,LB,m,y,./images/MEDALLB.png,,,,,,,,,,,,,,,,,,,,,0,0.279591837,-0.383673469,1,0,0,0.791,button_right_test,0,54,54,11,1
,,,,,,,,,,,,,,,,,,39,2022-02-12_13h48.06.175,lexical_decision_task_DD_L4,2021.2.3,iPhone,62.5,,,,,,,,,,0.707,1,,,,,,,,,,,,,,,,,,,,,,,-0.323469388,-0.378571429,1,0,0,,,,,,,WALRUS,LB,z,y,./images/WALRUSLB.png,,,,,,,,,,,,,,,,,,,,,0,-0.323469388,-0.378571429,1,0,0,0.707,button_left_test,0,55,55,107,1
,,,,,,,,,,,,,,,,,,39,2022-02-12_13h48.06.175,lexical_decision_task_DD_L4,2021.2.3,iPhone,62.5,,,,,,,,,,0.774,1,,,,,,,,,,,,,,,,,,,,,,,0.308163265,-0.383673469,1,0,0,,,,,,,SNAKE,HB,m,y,./images/SNAKEHB.png,,,,,,,,,,,,,,,,,,,,,0,0.308163265,-0.383673469,1,0,0,0.774,button_right_test,0,56,56,40,1
,,,,,,,,,,,,,,,,,,39,2022-02-12_13h48.06.175,lexical_decision_task_DD_L4,2021.2.3,iPhone,62.5,,,,,,,,,,0.676,1,,,,,,,,,,,,,,,,,,,,,,,0.292857143,-0.360204082,1,0,0,,,,,,,BRIDE,HB,m,y,./images/BRIDEHB.png,,,,,,,,,,,,,,,,,,,,,0,0.292857143,-0.360204082,1,0,0,0.676,button_right_test,0,57,57,64,1
,,,,,,,,,,,,,,,,,,39,2022-02-12_13h48.06.175,lexical_decision_task_DD_L4,2021.2.3,iPhone,62.5,,,,,,,,,,0.975,1,,,,,,,,,,,,,,,,,,,,,,,0.3,-0.379591837,1,0,0,,,,,,,BUBBLE,LB,m,y,./images/BUBBLELB.png,,,,,,,,,,,,,,,,,,,,,0,0.3,-0.379591837,1,0,0,0.975,button_right_test,0,58,58,71,1
,,,,,,,,,,,,,,,,,,39,2022-02-12_13h48.06.175,lexical_decision_task_DD_L4,2021.2.3,iPhone,62.5,,,,,,,,,,0.724,1,,,,,,,,,,,,,,,,,,,,,,,0.278571429,-0.380612245,1,0,0,,,,,,,FLASK,C,m,y,./images/FLASK.png,,,,,,,,,,,,,,,,,,,,,0,0.278571429,-0.380612245,1,0,0,0.724,button_right_test,0,59,59,72,1
,,,,,,,,,,,,,,,,,,39,2022-02-12_13h48.06.175,lexical_decision_task_DD_L4,2021.2.3,iPhone,62.5,,,,,,,,,,0.674,1,,,,,,,,,,,,,,,,,,,,,,,0.282653061,-0.364285714,1,0,0,,,,,,,BRUSH,LB,m,y,./images/BRUSHLB.png,,,,,,,,,,,,,,,,,,,,,0,0.282653061,-0.364285714,1,0,0,0.674,button_right_test,0,60,60,59,1
,,,,,,,,,,,,,,,,,,39,2022-02-12_13h48.06.175,lexical_decision_task_DD_L4,2021.2.3,iPhone,62.5,,,,,,,,,,1.043,1,,,,,,,,,,,,,,,,,,,,,,,0.271428571,-0.379591837,1,0,0,,,,,,,ENGINE,LB,m,y,./images/ENGINELB.png,,,,,,,,,,,,,,,,,,,,,0,0.271428571,-0.379591837,1,0,0,1.043,button_right_test,0,61,61,38,1
,,,,,,,,,,,,,,,,,,39,2022-02-12_13h48.06.175,lexical_decision_task_DD_L4,2021.2.3,iPhone,62.5,,,,,,,,,,0.775,1,,,,,,,,,,,,,,,,,,,,,,,-0.332653061,-0.352040816,1,0,0,,,,,,,PICKLE,LB,z,y,./images/PICKLELB.png,,,,,,,,,,,,,,,,,,,,,0,-0.332653061,-0.352040816,1,0,0,0.775,button_left_test,0,62,62,98,1
,,,,,,,,,,,,,,,,,,39,2022-02-12_13h48.06.175,lexical_decision_task_DD_L4,2021.2.3,iPhone,62.5,,,,,,,,,,0.691,1,,,,,,,,,,,,,,,,,,,,,,,-0.328571429,-0.373469388,1,0,0,,,,,,,LITTER,C,z,y,./images/LITTER.png,,,,,,,,,,,,,,,,,,,,,0,-0.328571429,-0.373469388,1,0,0,0.691,button_left_test,0,63,63,162,1
,,,,,,,,,,,,,,,,,,39,2022-02-12_13h48.06.175,lexical_decision_task_DD_L4,2021.2.3,iPhone,62.5,,,,,,,,,,0.823,1,,,,,,,,,,,,,,,,,,,,,,,0.298979592,-0.374489796,1,0,0,,,,,,,WHISKY,LB,m,y,./images/WHISKYLB.png,,,,,,,,,,,,,,,,,,,,,0,0.251020408,-0.42755102,1,0,0,0.823,button_right_test,0,64,64,83,1
,,,,,,,,,,,,,,,,,,39,2022-02-12_13h48.06.175,lexical_decision_task_DD_L4,2021.2.3,iPhone,62.5,,,,,,,,,,0.959,0,,,,,,,,,,,,,,,,,,,,,,,0.285714286,-0.37244898,1,0,0,,,,,,,MELON,HB,z,y,./images/MELONHB.png,,,,,,,,,,,,,,,,,,,,,0,0.285714286,-0.37244898,1,0,0,0.959,button_right_test,0,65,65,106,1
,,,,,,,,,,,,,,,,,,39,2022-02-12_13h48.06.175,lexical_decision_task_DD_L4,2021.2.3,iPhone,62.5,,,,,,,,,,1.041,1,,,,,,,,,,,,,,,,,,,,,,,-0.337755102,-0.351020408,1,0,0,,,,,,,COOKER,C,z,y,./images/COOKER.png,,,,,,,,,,,,,,,,,,,,,0,-0.337755102,-0.351020408,1,0,0,1.041,button_left_test,0,66,66,153,1
,,,,,,,,,,,,,,,,,,39,2022-02-12_13h48.06.175,lexical_decision_task_DD_L4,2021.2.3,iPhone,62.5,,,,,,,,,,0.575,1,,,,,,,,,,,,,,,,,,,,,,,0.298979592,-0.344897959,1,0,0,,,,,,,STOOL,HB,m,y,./images/STOOLHB.png,,,,,,,,,,,,,,,,,,,,,0,0.298979592,-0.344897959,1,0,0,0.575,button_right_test,0,67,67,43,1
,,,,,,,,,,,,,,,,,,39,2022-02-12_13h48.06.175,lexical_decision_task_DD_L4,2021.2.3,iPhone,62.5,,,,,,,,,,0.69,1,,,,,,,,,,,,,,,,,,,,,,,0.280612245,-0.395918367,1,0,0,,,,,,,BANANA,HB,m,y,./images/BANANAHB.png,,,,,,,,,,,,,,,,,,,,,0,0.280612245,-0.395918367,1,0,0,0.69,button_right_test,0,68,68,70,1
,,,,,,,,,,,,,,,,,,39,2022-02-12_13h48.06.175,lexical_decision_task_DD_L4,2021.2.3,iPhone,62.5,,,,,,,,,,0.841,0,,,,,,,,,,,,,,,,,,,,,,,0.276530612,-0.384693878,1,0,0,,,,,,,MAGGOT,C,z,y,./images/MAGGOT.png,,,,,,,,,,,,,,,,,,,,,0,0.276530612,-0.384693878,1,0,0,0.841,button_right_test,0,69,69,117,1
,,,,,,,,,,,,,,,,,,39,2022-02-12_13h48.06.175,lexical_decision_task_DD_L4,2021.2.3,iPhone,62.5,,,,,,,,,,0.741,1,,,,,,,,,,,,,,,,,,,,,,,-0.321428571,-0.379591837,1,0,0,,,,,,,DOUGH,HB,z,y,./images/DOUGHHB.png,,,,,,,,,,,,,,,,,,,,,0,-0.321428571,-0.379591837,1,0,0,0.741,button_left_test,0,70,70,103,1
,,,,,,,,,,,,,,,,,,39,2022-02-12_13h48.06.175,lexical_decision_task_DD_L4,2021.2.3,iPhone,62.5,,,,,,,,,,1.559,1,,,,,,,,,,,,,,,,,,,,,,,-0.321428571,-0.389795918,1,0,0,,,,,,,COUCH,LB,z,y,./images/COUCHLB.png,,,,,,,,,,,,,,,,,,,,,0,-0.321428571,-0.389795918,1,0,0,1.559,button_left_test,0,71,71,161,1
,,,,,,,,,,,,,,,,,,39,2022-02-12_13h48.06.175,lexical_decision_task_DD_L4,2021.2.3,iPhone,62.5,,,,,,,,,,0.672,0,,,,,,,,,,,,,,,,,,,,,,,0.295918367,-0.365306122,1,0,0,,,,,,,MOTOR,HB,z,y,./images/MOTORHB.png,,,,,,,,,,,,,,,,,,,,,0,0.27755102,-0.406122449,1,0,0,0.672,button_right_test,0,72,72,97,1
,,,,,,,,,,,,,,,,,,39,2022-02-12_13h48.06.175,lexical_decision_task_DD_L4,2021.2.3,iPhone,62.5,,,,,,,,,,0.789,1,,,,,,,,,,,,,,,,,,,,,,,-0.318367347,-0.353061224,1,0,0,,,,,,,LIZARD,LB,z,y,./images/LIZARDLB.png,,,,,,,,,,,,,,,,,,,,,0,-0.318367347,-0.353061224,1,0,0,0.789,button_left_test,0,73,73,128,1
,,,,,,,,,,,,,,,,,,39,2022-02-12_13h48.06.175,lexical_decision_task_DD_L4,2021.2.3,iPhone,62.5,,,,,,,,,,0.926,0,,,,,,,,,,,,,,,,,,,,,,,0.32755102,-0.368367347,1,0,0,,,,,,,CRUMB,LB,z,y,./images/CRUMBLB.png,,,,,,,,,,,,,,,,,,,,,0,0.32755102,-0.368367347,1,0,0,0.926,button_right_test,0,74,74,113,1
,,,,,,,,,,,,,,,,,,39,2022-02-12_13h48.06.175,lexical_decision_task_DD_L4,2021.2.3,iPhone,62.5,,,,,,,,,,0.574,0,,,,,,,,,,,,,,,,,,,,,,,0.348979592,-0.297959184,1,0,0,,,,,,,SUNSET,HB,z,y,./images/SUNSETHB.png,,,,,,,,,,,,,,,,,,,,,0,0.348979592,-0.297959184,1,0,0,0.574,button_right_test,0,75,75,166,1
,,,,,,,,,,,,,,,,,,39,2022-02-12_13h48.06.175,lexical_decision_task_DD_L4,2021.2.3,iPhone,62.5,,,,,,,,,,0.541,1,,,,,,,,,,,,,,,,,,,,,,,-0.321428571,-0.318367347,1,0,0,,,,,,,PAINT,HB,z,y,./images/PAINTHB.png,,,,,,,,,,,,,,,,,,,,,0,-0.321428571,-0.318367347,1,0,0,0.541,button_left_test,0,76,76,91,1
,,,,,,,,,,,,,,,,,,39,2022-02-12_13h48.06.175,lexical_decision_task_DD_L4,2021.2.3,iPhone,62.5,,,,,,,,,,0.908,1,,,,,,,,,,,,,,,,,,,,,,,0.291836735,-0.313265306,1,0,0,,,,,,,VALLEY,LB,m,y,./images/VALLEYLB.png,,,,,,,,,,,,,,,,,,,,,0,0.291836735,-0.313265306,1,0,0,0.908,button_right_test,0,77,77,68,1
,,,,,,,,,,,,,,,,,,39,2022-02-12_13h48.06.175,lexical_decision_task_DD_L4,2021.2.3,iPhone,62.5,,,,,,,,,,0.574,1,,,,,,,,,,,,,,,,,,,,,,,0.293877551,-0.331632653,1,0,0,,,,,,,RAZOR,HB,m,y,./images/RAZORHB.png,,,,,,,,,,,,,,,,,,,,,0,0.293877551,-0.331632653,1,0,0,0.574,button_right_test,0,78,78,34,1
,,,,,,,,,,,,,,,,,,39,2022-02-12_13h48.06.175,lexical_decision_task_DD_L4,2021.2.3,iPhone,62.5,,,,,,,,,,0.857,1,,,,,,,,,,,,,,,,,,,,,,,-0.314285714,-0.351020408,1,0,0,,,,,,,SKIING,LB,z,y,./images/SKIINGLB.png,,,,,,,,,,,,,,,,,,,,,0,-0.314285714,-0.351020408,1,0,0,0.857,button_left_test,0,79,79,101,1
,,,,,,,,,,,,,,,,,,39,2022-02-12_13h48.06.175,lexical_decision_task_DD_L4,2021.2.3,iPhone,62.5,,,,,,,,,,0.589,1,,,,,,,,,,,,,,,,,,,,,,,-0.318367347,-0.35,1,0,0,,,,,,,WRIST,HB,z,y,./images/WRISTHB.png,,,,,,,,,,,,,,,,,,,,,0,-0.318367347,-0.35,1,0,0,0.589,button_left_test,0,80,80,109,1
,,,,,,,,,,,,,,,,,,39,2022-02-12_13h48.06.175,lexical_decision_task_DD_L4,2021.2.3,iPhone,62.5,,,,,,,,,,0.941,1,,,,,,,,,,,,,,,,,,,,,,,-0.316326531,-0.326530612,1,0,0,,,,,,,NOOSE,C,z,y,./images/NOOSE.png,,,,,,,,,,,,,,,,,,,,,0,-0.316326531,-0.326530612,1,0,0,0.941,button_left_test,0,81,81,156,1
,,,,,,,,,,,,,,,,,,39,2022-02-12_13h48.06.175,lexical_decision_task_DD_L4,2021.2.3,iPhone,62.5,,,,,,,,,,0.541,0,,,,,,,,,,,,,,,,,,,,,,,0.307142857,-0.320408163,1,0,0,,,,,,,JELLY,HB,z,y,./images/JELLYHB.png,,,,,,,,,,,,,,,,,,,,,0,0.307142857,-0.320408163,1,0,0,0.541,button_right_test,0,82,82,148,1
,,,,,,,,,,,,,,,,,,39,2022-02-12_13h48.06.175,lexical_decision_task_DD_L4,2021.2.3,iPhone,62.5,,,,,,,,,,0.706,1,,,,,,,,,,,,,,,,,,,,,,,0.144897959,-0.429591837,1,0,0,,,,,,,PIMPLE,LB,z,y,./images/PIMPLELB.png,break_done_button,,,,,,,,,,,,,,,,,,,,0,-0.314285714,-0.369387755,1,0,0,0.706,button_left_test,0,83,83,155,1
,,,,,,,,,,,,,,,,,,39,2022-02-12_13h48.06.175,lexical_decision_task_DD_L4,2021.2.3,iPhone,62.5,,,,,,,,,,0.874,1,,,,,,,,,,,,,,,,,,,,,,,0.35,-0.3,1,0,0,,,,,,,WHEEL,LB,m,y,./images/WHEELLB.png,,,,,,,,,,,,,,,,,,,,,0,0.35,-0.3,1,0,0,0.874,button_right_test,0,84,84,77,1
,,,,,,,,,,,,,,,,,,39,2022-02-12_13h48.06.175,lexical_decision_task_DD_L4,2021.2.3,iPhone,62.5,,,,,,,,,,0.825,1,,,,,,,,,,,,,,,,,,,,,,,0.326530612,-0.304081633,1,0,0,,,,,,,SLOPE,C,m,y,./images/SLOPE.png,,,,,,,,,,,,,,,,,,,,,0,0.326530612,-0.304081633,1,0,0,0.825,button_right_test,0,85,85,30,1
,,,,,,,,,,,,,,,,,,39,2022-02-12_13h48.06.175,lexical_decision_task_DD_L4,2021.2.3,iPhone,62.5,,,,,,,,,,0.673,0,,,,,,,,,,,,,,,,,,,,,,,0.313265306,-0.313265306,1,0,0,,,,,,,WEASEL,LB,z,y,./images/WEASELLB.png,,,,,,,,,,,,,,,,,,,,,0,0.313265306,-0.313265306,1,0,0,0.673,button_right_test,0,86,86,164,1
,,,,,,,,,,,,,,,,,,39,2022-02-12_13h48.06.175,lexical_decision_task_DD_L4,2021.2.3,iPhone,62.5,,,,,,,,,,0.875,1,,,,,,,,,,,,,,,,,,,,,,,-0.318367347,-0.36122449,1,0,0,,,,,,,FARMER,LB,z,y,./images/FARMERLB.png,,,,,,,,,,,,,,,,,,,,,0,-0.318367347,-0.36122449,1,0,0,0.875,button_left_test,0,87,87,149,1
,,,,,,,,,,,,,,,,,,39,2022-02-12_13h48.06.175,lexical_decision_task_DD_L4,2021.2.3,iPhone,62.5,,,,,,,,,,0.625,1,,,,,,,,,,,,,,,,,,,,,,,-0.31122449,-0.317346939,1,0,0,,,,,,,PLANK,HB,z,y,./images/PLANKHB.png,,,,,,,,,,,,,,,,,,,,,0,-0.31122449,-0.317346939,1,0,0,0.625,button_left_test,0,88,88,85,1
,,,,,,,,,,,,,,,,,,39,2022-02-12_13h48.06.175,lexical_decision_task_DD_L4,2021.2.3,iPhone,62.5,,,,,,,,,,1.108,0,,,,,,,,,,,,,,,,,,,,,,,-0.316326531,-0.337755102,1,0,0,,,,,,,CLOUD,LB,m,y,./images/CLOUDLB.png,,,,,,,,,,,,,,,,,,,,,0,-0.316326531,-0.337755102,1,0,0,1.108,button_left_test,0,89,89,26,1
,,,,,,,,,,,,,,,,,,39,2022-02-12_13h48.06.175,lexical_decision_task_DD_L4,2021.2.3,iPhone,62.5,,,,,,,,,,0.942,0,,,,,,,,,,,,,,,,,,,,,,,-0.308163265,-0.346938776,1,0,0,,,,,,,STEAK,HB,m,y,./images/STEAKHB.png,,,,,,,,,,,,,,,,,,,,,0,-0.308163265,-0.346938776,1,0,0,0.942,button_left_test,0,90,90,31,1
,,,,,,,,,,,,,,,,,,39,2022-02-12_13h48.06.175,lexical_decision_task_DD_L4,2021.2.3,iPhone,62.5,,,,,,,,,,1.157,1,,,,,,,,,,,,,,,,,,,,,,,0.323469388,-0.329591837,1,0,0,,,,,,,BAKER,C,m,y,./images/BAKER.png,,,,,,,,,,,,,,,,,,,,,0,0.323469388,-0.329591837,1,0,0,1.157,button_right_test,0,91,91,63,1
,,,,,,,,,,,,,,,,,,39,2022-02-12_13h48.06.175,lexical_decision_task_DD_L4,2021.2.3,iPhone,62.5,,,,,,,,,,0.59,1,,,,,,,,,,,,,,,,,,,,,,,0.289795918,-0.337755102,1,0,0,,,,,,,BROOM,C,m,y,./images/BROOM.png,,,,,,,,,,,,,,,,,,,,,0,0.289795918,-0.337755102,1,0,0,0.59,button_right_test,0,92,92,78,1
,,,,,,,,,,,,,,,,,,39,2022-02-12_13h48.06.175,lexical_decision_task_DD_L4,2021.2.3,iPhone,62.5,,,,,,,,,,1.092,1,,,,,,,,,,,,,,,,,,,,,,,-0.3,-0.363265306,1,0,0,,,,,,,BERRY,LB,z,y,./images/BERRYLB.png,,,,,,,,,,,,,,,,,,,,,0,-0.3,-0.363265306,1,0,0,1.092,button_left_test,0,93,93,131,1
,,,,,,,,,,,,,,,,,,39,2022-02-12_13h48.06.175,lexical_decision_task_DD_L4,2021.2.3,iPhone,62.5,,,,,,,,,,1.158,1,,,,,,,,,,,,,,,,,,,,,,,-0.307142857,-0.38877551,1,0,0,,,,,,,JAGUAR,C,z,y,./images/JAGUAR.png,,,,,,,,,,,,,,,,,,,,,0,-0.307142857,-0.38877551,1,0,0,1.158,button_left_test,0,94,94,102,1
,,,,,,,,,,,,,,,,,,39,2022-02-12_13h48.06.175,lexical_decision_task_DD_L4,2021.2.3,iPhone,62.5,,,,,,,,,,1.075,1,,,,,,,,,,,,,,,,,,,,,,,0.276530612,-0.364285714,1,0,0,,,,,,,PISTOL,LB,m,y,./images/PISTOLLB.png,,,,,,,,,,,,,,,,,,,,,0,0.276530612,-0.364285714,1,0,0,1.075,button_right_test,0,95,95,29,1
,,,,,,,,,,,,,,,,,,39,2022-02-12_13h48.06.175,lexical_decision_task_DD_L4,2021.2.3,iPhone,62.5,,,,,,,,,,0.656,1,,,,,,,,,,,,,,,,,,,,,,,0.297959184,-0.37244898,1,0,0,,,,,,,ARROW,C,m,y,./images/ARROW.png,,,,,,,,,,,,,,,,,,,,,0,0.297959184,-0.37244898,1,0,0,0.656,button_right_test,0,96,96,69,1
,,,,,,,,,,,,,,,,,,39,2022-02-12_13h48.06.175,lexical_decision_task_DD_L4,2021.2.3,iPhone,62.5,,,,,,,,,,0.909,0,,,,,,,,,,,,,,,,,,,,,,,-0.312244898,-0.376530612,1,0,0,,,,,,,TOWEL,HB,m,y,./images/TOWELHB.png,,,,,,,,,,,,,,,,,,,,,0,-0.312244898,-0.376530612,1,0,0,0.909,button_left_test,0,97,97,1,1
,,,,,,,,,,,,,,,,,,39,2022-02-12_13h48.06.175,lexical_decision_task_DD_L4,2021.2.3,iPhone,62.5,,,,,,,,,,0.591,0,,,,,,,,,,,,,,,,,,,,,,,-0.314285714,-0.38877551,1,0,0,,,,,,,GRAPE,HB,m,y,./images/GRAPEHB.png,,,,,,,,,,,,,,,,,,,,,0,-0.314285714,-0.38877551,1,0,0,0.591,button_left_test,0,98,98,16,1
,,,,,,,,,,,,,,,,,,39,2022-02-12_13h48.06.175,lexical_decision_task_DD_L4,2021.2.3,iPhone,62.5,,,,,,,,,,0.774,0,,,,,,,,,,,,,,,,,,,,,,,-0.316326531,-0.38877551,1,0,0,,,,,,,TIGER,HB,m,y,./images/TIGERHB.png,,,,,,,,,,,,,,,,,,,,,0,-0.316326531,-0.38877551,1,0,0,0.774,button_left_test,0,99,99,37,1
,,,,,,,,,,,,,,,,,,39,2022-02-12_13h48.06.175,lexical_decision_task_DD_L4,2021.2.3,iPhone,62.5,,,,,,,,,,1.04,1,,,,,,,,,,,,,,,,,,,,,,,-0.307142857,-0.4,1,0,0,,,,,,,PENCE,HB,z,y,./images/PENCEHB.png,,,,,,,,,,,,,,,,,,,,,0,-0.307142857,-0.4,1,0,0,1.04,button_left_test,0,100,100,100,1
,,,,,,,,,,,,,,,,,,39,2022-02-12_13h48.06.175,lexical_decision_task_DD_L4,2021.2.3,iPhone,62.5,,,,,,,,,,1.092,0,,,,,,,,,,,,,,,,,,,,,,,0.298979592,-0.334693878,1,0,0,,,,,,,JUNGLE,LB,z,y,./images/JUNGLELB.png,,,,,,,,,,,,,,,,,,,,,0,0.298979592,-0.334693878,1,0,0,1.092,button_right_test,0,101,101,167,1
,,,,,,,,,,,,,,,,,,39,2022-02-12_13h48.06.175,lexical_decision_task_DD_L4,2021.2.3,iPhone,62.5,,,,,,,,,,0.675,1,,,,,,,,,,,,,,,,,,,,,,,0.290816327,-0.359183673,1,0,0,,,,,,,SAUCE,C,m,y,./images/SAUCE.png,,,,,,,,,,,,,,,,,,,,,0,0.290816327,-0.359183673,1,0,0,0.675,button_right_test,0,102,102,51,1
,,,,,,,,,,,,,,,,,,39,2022-02-12_13h48.06.175,lexical_decision_task_DD_L4,2021.2.3,iPhone,62.5,,,,,,,,,,0.608,0,,,,,,,,,,,,,,,,,,,,,,,0.323469388,-0.328571429,1,0,0,,,,,,,BARREL,LB,z,y,./images/BARRELLB.png,,,,,,,,,,,,,,,,,,,,,0,0.323469388,-0.328571429,1,0,0,0.608,button_right_test,0,103,103,116,1
,,,,,,,,,,,,,,,,,,39,2022-02-12_13h48.06.175,lexical_decision_task_DD_L4,2021.2.3,iPhone,62.5,,,,,,,,,,1.255,1,,,,,,,,,,,,,,,,,,,,,,,0.326530612,-0.354081633,1,0,0,,,,,,,BOXER,HB,m,y,./images/BOXERHB.png,,,,,,,,,,,,,,,,,,,,,0,0.326530612,-0.354081633,1,0,0,1.255,button_right_test,0,104,104,4,1
,,,,,,,,,,,,,,,,,,39,2022-02-12_13h48.06.175,lexical_decision_task_DD_L4,2021.2.3,iPhone,62.5,,,,,,,,,,0.939,0,,,,,,,,,,,,,,,,,,,,,,,-0.328571429,-0.335714286,1,0,0,,,,,,,DONKEY,HB,m,y,./images/DONKEYHB.png,,,,,,,,,,,,,,,,,,,,,0,-0.328571429,-0.335714286,1,0,0,0.939,button_left_test,0,105,105,19,1
,,,,,,,,,,,,,,,,,,39,2022-02-12_13h48.06.175,lexical_decision_task_DD_L4,2021.2.3,iPhone,62.5,,,,,,,,,,1.041,0,,,,,,,,,,,,,,,,,,,,,,,0.333673469,-0.340816327,1,0,0,,,,,,,BURIAL,LB,z,y,./images/BURIALLB.png,,,,,,,,,,,,,,,,,,,,,0,0.333673469,-0.340816327,1,0,0,1.041,button_right_test,0,106,106,143,1
,,,,,,,,,,,,,,,,,,39,2022-02-12_13h48.06.175,lexical_decision_task_DD_L4,2021.2.3,iPhone,62.5,,,,,,,,,,0.891,0,,,,,,,,,,,,,,,,,,,,,,,-0.3,-0.360204082,1,0,0,,,,,,,ARTIST,HB,m,y,./images/ARTISTHB.png,,,,,,,,,,,,,,,,,,,,,0,-0.3,-0.360204082,1,0,0,0.891,button_left_test,0,107,107,61,1
,,,,,,,,,,,,,,,,,,39,2022-02-12_13h48.06.175,lexical_decision_task_DD_L4,2021.2.3,iPhone,62.5,,,,,,,,,,0.723,1,,,,,,,,,,,,,,,,,,,,,,,-0.312244898,-0.371428571,1,0,0,,,,,,,FINGER,C,z,y,./images/FINGER.png,,,,,,,,,,,,,,,,,,,,,0,-0.312244898,-0.371428571,1,0,0,0.723,button_left_test,0,108,108,87,1
,,,,,,,,,,,,,,,,,,39,2022-02-12_13h48.06.175,lexical_decision_task_DD_L4,2021.2.3,iPhone,62.5,,,,,,,,,,1.359,0,,,,,,,,,,,,,,,,,,,,,,,-0.28877551,-0.368367347,1,0,0,,,,,,,CHERRY,C,m,y,./images/CHERRY.png,,,,,,,,,,,,,,,,,,,,,0,-0.28877551,-0.368367347,1,0,0,1.359,button_left_test,0,109,109,54,1
,,,,,,,,,,,,,,,,,,39,2022-02-12_13h48.06.175,lexical_decision_task_DD_L4,2021.2.3,iPhone,62.5,,,,,,,,,,0.773,1,,,,,,,,,,,,,,,,,,,,,,,0.316326531,-0.360204082,1,0,0,,,,,,,POSTER,LB,m,y,./images/POSTERLB.png,,,,,,,,,,,,,,,,,,,,,0,0.316326531,-0.360204082,1,0,0,0.773,button_right_test,0,110,110,53,1
,,,,,,,,,,,,,,,,,,39,2022-02-12_13h48.06.175,lexical_decision_task_DD_L4,2021.2.3,iPhone,62.5,,,,,,,,,,0.907,1,,,,,,,,,,,,,,,,,,,,,,,-0.316326531,-0.375510204,1,0,0,,,,,,,KIDNEY,C,z,y,./images/KIDNEY.png,,,,,,,,,,,,,,,,,,,,,0,-0.316326531,-0.375510204,1,0,0,0.907,button_left_test,0,111,111,105,1
,,,,,,,,,,,,,,,,,,39,2022-02-12_13h48.06.175,lexical_decision_task_DD_L4,2021.2.3,iPhone,62.5,,,,,,,,,,1.443,1,,,,,,,,,,,,,,,,,,,,,,,-0.340816327,-0.367346939,1,0,0,,,,,,,SCREW,C,z,y,./images/SCREW.png,,,,,,,,,,,,,,,,,,,,,0,-0.340816327,-0.367346939,1,0,0,1.443,button_left_test,0,112,112,108,1
,,,,,,,,,,,,,,,,,,39,2022-02-12_13h48.06.175,lexical_decision_task_DD_L4,2021.2.3,iPhone,62.5,,,,,,,,,,0.756,1,,,,,,,,,,,,,,,,,,,,,,,0.319387755,-0.326530612,1,0,0,,,,,,,DIVER,C,m,y,./images/DIVER.png,,,,,,,,,,,,,,,,,,,,,0,0.319387755,-0.326530612,1,0,0,0.756,button_right_test,0,113,113,9,1
,,,,,,,,,,,,,,,,,,39,2022-02-12_13h48.06.175,lexical_decision_task_DD_L4,2021.2.3,iPhone,62.5,,,,,,,,,,1.191,0,,,,,,,,,,,,,,,,,,,,,,,0.360204082,-0.35,1,0,0,,,,,,,TULIP,LB,z,y,./images/TULIPLB.png,,,,,,,,,,,,,,,,,,,,,0,0.360204082,-0.35,1,0,0,1.191,button_right_test,0,114,114,92,1
,,,,,,,,,,,,,,,,,,39,2022-02-12_13h48.06.175,lexical_decision_task_DD_L4,2021.2.3,iPhone,62.5,,,,,,,,,,0.605,0,,,,,,,,,,,,,,,,,,,,,,,0.312244898,-0.326530612,1,0,0,,,,,,,CEMENT,LB,z,y,./images/CEMENTLB.png,,,,,,,,,,,,,,,,,,,,,0,0.312244898,-0.326530612,1,0,0,0.605,button_right_test,0,115,115,158,1
,,,,,,,,,,,,,,,,,,39,2022-02-12_13h48.06.175,lexical_decision_task_DD_L4,2021.2.3,iPhone,62.5,,,,,,,,,,0.623,1,,,,,,,,,,,,,,,,,,,,,,,0.332653061,-0.330612245,1,0,0,,,,,,,SHIELD,C,m,y,./images/SHIELD.png,,,,,,,,,,,,,,,,,,,,,0,0.332653061,-0.330612245,1,0,0,0.623,button_right_test,0,116,116,48,1
,,,,,,,,,,,,,,,,,,39,2022-02-12_13h48.06.175,lexical_decision_task_DD_L4,2021.2.3,iPhone,62.5,,,,,,,,,,0.674,0,,,,,,,,,,,,,,,,,,,,,,,0.304081633,-0.345918367,1,0,0,,,,,,,CANDLE,HB,z,y,./images/CANDLEHB.png,,,,,,,,,,,,,,,,,,,,,0,0.304081633,-0.345918367,1,0,0,0.674,button_right_test,0,117,117,145,1
,,,,,,,,,,,,,,,,,,39,2022-02-12_13h48.06.175,lexical_decision_task_DD_L4,2021.2.3,iPhone,62.5,,,,,,,,,,0.641,1,,,,,,,,,,,,,,,,,,,,,,,0.291836735,-0.354081633,1,0,0,,,,,,,CHAIN,C,m,y,./images/CHAIN.png,,,,,,,,,,,,,,,,,,,,,0,0.291836735,-0.354081633,1,0,0,0.641,button_right_test,0,118,118,42,1
,,,,,,,,,,,,,,,,,,39,2022-02-12_13h48.06.175,lexical_decision_task_DD_L4,2021.2.3,iPhone,62.5,,,,,,,,,,1.09,0,,,,,,,,,,,,,,,,,,,,,,,0.292857143,-0.351020408,1,0,0,,,,,,,SHELF,C,z,y,./images/SHELF.png,,,,,,,,,,,,,,,,,,,,,0,0.292857143,-0.351020408,1,0,0,1.09,button_right_test,0,119,119,123,1
,,,,,,,,,,,,,,,,,,39,2022-02-12_13h48.06.175,lexical_decision_task_DD_L4,2021.2.3,iPhone,62.5,,,,,,,,,,0.693,0,,,,,,,,,,,,,,,,,,,,,,,0.280612245,-0.36122449,1,0,0,,,,,,,STRING,LB,z,y,./images/STRINGLB.png,,,,,,,,,,,,,,,,,,,,,0,0.280612245,-0.36122449,1,0,0,0.693,button_right_test,0,120,120,125,1
,,,,,,,,,,,,,,,,,,39,2022-02-12_13h48.06.175,lexical_decision_task_DD_L4,2021.2.3,iPhone,62.5,,,,,,,,,,0.841,1,,,,,,,,,,,,,,,,,,,,,,,0.296938776,-0.357142857,1,0,0,,,,,,,HEATER,LB,m,y,./images/HEATERLB.png,,,,,,,,,,,,,,,,,,,,,0,0.296938776,-0.357142857,1,0,0,0.841,button_right_test,0,121,121,56,1
,,,,,,,,,,,,,,,,,,39,2022-02-12_13h48.06.175,lexical_decision_task_DD_L4,2021.2.3,iPhone,62.5,,,,,,,,,,0.725,1,,,,,,,,,,,,,,,,,,,,,,,0.296938776,-0.329591837,1,0,0,,,,,,,LAGOON,LB,m,y,./images/LAGOONLB.png,,,,,,,,,,,,,,,,,,,,,0,0.296938776,-0.329591837,1,0,0,0.725,button_right_test,0,122,122,47,1
,,,,,,,,,,,,,,,,,,39,2022-02-12_13h48.06.175,lexical_decision_task_DD_L4,2021.2.3,iPhone,62.5,,,,,,,,,,0.707,0,,,,,,,,,,,,,,,,,,,,,,,-0.307142857,-0.368367347,1,0,0,,,,,,,DRILL,C,m,y,./images/DRILL.png,,,,,,,,,,,,,,,,,,,,,0,-0.307142857,-0.368367347,1,0,0,0.707,button_left_test,0,123,123,81,1
,,,,,,,,,,,,,,,,,,39,2022-02-12_13h48.06.175,lexical_decision_task_DD_L4,2021.2.3,iPhone,62.5,,,,,,,,,,0.69,1,,,,,,,,,,,,,,,,,,,,,,,-0.314285714,-0.336734694,1,0,0,,,,,,,MUFFIN,HB,z,y,./images/MUFFINHB.png,,,,,,,,,,,,,,,,,,,,,0,-0.314285714,-0.336734694,1,0,0,0.69,button_left_test,0,124,124,139,1
,,,,,,,,,,,,,,,,,,39,2022-02-12_13h48.06.175,lexical_decision_task_DD_L4,2021.2.3,iPhone,62.5,,,,,,,,,,0.892,0,,,,,,,,,,,,,,,,,,,,,,,0.103061224,-0.419387755,1,0,0,,,,,,,STREAM,LB,m,y,./images/STREAMLB.png,break_done_button,,,,,,,,,,,,,,,,,,,,0,-0.320408163,-0.36122449,1,0,0,0.892,button_left_test,0,125,125,41,1
,,,,,,,,,,,,,,,,,,39,2022-02-12_13h48.06.175,lexical_decision_task_DD_L4,2021.2.3,iPhone,62.5,,,,,,,,,,1.644,0,,,,,,,,,,,,,,,,,,,,,,,0.416326531,-0.319387755,1,0,0,,,,,,,BONNET,LB,z,y,./images/BONNETLB.png,,,,,,,,,,,,,,,,,,,,,0,0.416326531,-0.319387755,1,0,0,1.644,button_right_test,0,126,126,95,1
,,,,,,,,,,,,,,,,,,39,2022-02-12_13h48.06.175,lexical_decision_task_DD_L4,2021.2.3,iPhone,62.5,,,,,,,,,,0.841,1,,,,,,,,,,,,,,,,,,,,,,,0.375510204,-0.332653061,1,0,0,,,,,,,FLESH,C,m,y,./images/FLESH.png,,,,,,,,,,,,,,,,,,,,,0,0.375510204,-0.332653061,1,0,0,0.841,button_right_test,0,127,127,24,1
