key_resp.keys,key_resp.rt,instr_done_touch.x,instr_done_touch.y,instr_done_touch.leftButton,instr_done_touch.midButton,instr_done_touch.rightButton,instruction_pages.thisRepN,instruction_pages.thisTrialN,instruction_pages.thisN,instruction_pages.thisIndex,instruction_pages.ran,pageN,phase,instruct_text,has_image,instruct_image,participant,age,date,expName,psychopyVersion,OS,frameRate,response.keys,response.corr,response.rt,touch_resp.x,touch_resp.y,touch_resp.leftButton,touch_resp.midButton,touch_resp.rightButton,touch_resp.time,touch_resp.clicked_name,rt,corr,practrials.thisRepN,practrials.thisTrialN,practrials.thisN,practrials.thisIndex,practrials.ran,TrialID,Target,corrAns,end_of_practice_trials_pages.thisRepN,end_of_practice_trials_pages.thisTrialN,end_of_practice_trials_pages.thisN,end_of_practice_trials_pages.thisIndex,end_of_practice_trials_pages.ran,key_resp_2.keys,key_resp_2.corr,key_resp_2.rt,targ_click.x,targ_click.y,targ_click.leftButton,targ_click.midButton,targ_click.rightButton,targ_click.time,targ_click.clicked_name,break_done_touch.x,break_done_touch.y,break_done_touch.leftButton,break_done_touch.midButton,break_done_touch.rightButton,break_done_keyboard.keys,maintrials.thisRepN,maintrials.thisTrialN,maintrials.thisN,maintrials.thisIndex,maintrials.ran,string,blur,study,lex,stim_path,break_done_keyboard.rt,mouse_2.x,mouse_2.y,mouse_2.leftButton,mouse_2.midButton,mouse_2.rightButton,mouse_2.clicked_name,slider.response,slider.rt,trials.thisRepN,trials.thisTrialN,trials.thisN,trials.thisIndex,trials.ran,test_instructions.thisRepN,test_instructions.thisTrialN,test_instructions.thisN,test_instructions.thisIndex,test_instructions.ran,instr_done_touch.clicked_name,key_resp_3.keys,key_resp_3.corr,key_resp_3.rt,test_click.x,test_click.y,test_click.leftButton,test_click.midButton,test_click.rightButton,test_click.time,test_click.clicked_name,test_phase.thisRepN,test_phase.thisTrialN,test_phase.thisN,test_phase.thisIndex,test_phase.ran
space,38.119,0.377777778,-0.236666667,0,0,0,0,0,0,0,1,1,instructions,"INSTRUCTIONS
At the start of each trial, look at the plus sign  (+) in the center of the screen.  This tells you that a trial is about to begin and where to look. Second, the plus sign will disappear and a string of letters will appear. Your task is to determine if the string of letters is a word or not. If the item is a word press the M key (on keyboard)  or touch the word button (phone/tablet).  If the item is not a word,  press the  Z key (on keyboard)  or touch the nonword button (on phone/tablet). 
Press the space bar or touch  continue.",0,,,21,2022-02-12_12h18.04.936,lexical_decision_task_DD_L4,2021.2.3,MacIntel,62.5,,,,,,,,,,,,,,,,,,,,,,,,,,,,,,,,,,,,,,,,,,,,,,,,,,,,,,,,,,,,,,,,,,,,,,,,,,,,,,,,,,,,,,
space,8.144,0.377777778,-0.236666667,0,0,0,0,1,1,1,1,2,instructions,"If your device has a keyboard, press the 'Z' key for nonwords and the 'M' key for words.





Press the space bar or touch the button below to continue.",0,keyboard-example.gif,,21,2022-02-12_12h18.04.936,lexical_decision_task_DD_L4,2021.2.3,MacIntel,62.5,,,,,,,,,,,,,,,,,,,,,,,,,,,,,,,,,,,,,,,,,,,,,,,,,,,,,,,,,,,,,,,,,,,,,,,,,,,,,,,,,,,,,,
space,2.114,0.377777778,-0.236666667,0,0,0,0,2,2,2,1,3,instructions,"If you are using a touchscreen only device, use the buttons on the screen. Do not use the mouse.





Press the space bar or touch the button below to continue.",0,touchscreen-example.gif,,21,2022-02-12_12h18.04.936,lexical_decision_task_DD_L4,2021.2.3,MacIntel,62.5,,,,,,,,,,,,,,,,,,,,,,,,,,,,,,,,,,,,,,,,,,,,,,,,,,,,,,,,,,,,,,,,,,,,,,,,,,,,,,,,,,,,,,
space,14.282,0.377777778,-0.236666667,0,0,0,0,3,3,3,1,4,instructions,"It is very important that you respond as quickly and accurately as possible, as each letter string will only be on the screen for two seconds. If you do not respond within this time, the message 'Too slow!' will be displayed and the experiment will progress to the next letter string. The first 20 trials will be practice trials and you will receive feedback on your answers. 

Press the space bar or touch the button below to start the practice trials.",0,,,21,2022-02-12_12h18.04.936,lexical_decision_task_DD_L4,2021.2.3,MacIntel,62.5,,,,,,,,,,,,,,,,,,,,,,,,,,,,,,,,,,,,,,,,,,,,,,,,,,,,,,,,,,,,,,,,,,,,,,,,,,,,,,,,,,,,,,
,,,,,,,,,,,,,,,,,,21,2022-02-12_12h18.04.936,lexical_decision_task_DD_L4,2021.2.3,MacIntel,62.5,m,0,0.838,,,,,,,,0.838,0,0,0,0,14,1,1001,THRALE,z,,,,,,,,,,,,,,,,,,,,,,,,,,,,,,,,,,,,,,,,,,,,,,,,,,,,,,,,,,,,,,,,,,
,,,,,,,,,,,,,,,,,,21,2022-02-12_12h18.04.936,lexical_decision_task_DD_L4,2021.2.3,MacIntel,62.5,z,1,0.598,,,,,,,,0.598,1,0,1,1,13,1,1001,ROUPET,z,,,,,,,,,,,,,,,,,,,,,,,,,,,,,,,,,,,,,,,,,,,,,,,,,,,,,,,,,,,,,,,,,,
,,,,,,,,,,,,,,,,,,21,2022-02-12_12h18.04.936,lexical_decision_task_DD_L4,2021.2.3,MacIntel,62.5,z,0,0.548,,,,,,,,0.548,0,0,2,2,6,1,1001,ZOMBIE,m,,,,,,,,,,,,,,,,,,,,,,,,,,,,,,,,,,,,,,,,,,,,,,,,,,,,,,,,,,,,,,,,,,
,,,,,,,,,,,,,,,,,,21,2022-02-12_12h18.04.936,lexical_decision_task_DD_L4,2021.2.3,MacIntel,62.5,z,1,0.631,,,,,,,,0.631,1,0,3,3,10,1,1001,INLADE,z,,,,,,,,,,,,,,,,,,,,,,,,,,,,,,,,,,,,,,,,,,,,,,,,,,,,,,,,,,,,,,,,,,
,,,,,,,,,,,,,,,,,,21,2022-02-12_12h18.04.936,lexical_decision_task_DD_L4,2021.2.3,MacIntel,62.5,m,1,0.449,,,,,,,,0.449,1,0,4,4,2,1,1001,ALMOND,m,,,,,,,,,,,,,,,,,,,,,,,,,,,,,,,,,,,,,,,,,,,,,,,,,,,,,,,,,,,,,,,,,,
,,,,,,,,,,,,,,,,,,21,2022-02-12_12h18.04.936,lexical_decision_task_DD_L4,2021.2.3,MacIntel,62.5,z,1,0.815,,,,,,,,0.815,1,0,5,5,9,1,1001,FARINY,z,,,,,,,,,,,,,,,,,,,,,,,,,,,,,,,,,,,,,,,,,,,,,,,,,,,,,,,,,,,,,,,,,,
,,,,,,,,,,,,,,,,,,21,2022-02-12_12h18.04.936,lexical_decision_task_DD_L4,2021.2.3,MacIntel,62.5,m,1,0.547,,,,,,,,0.547,1,0,6,6,7,1,1001,VOLUME,m,,,,,,,,,,,,,,,,,,,,,,,,,,,,,,,,,,,,,,,,,,,,,,,,,,,,,,,,,,,,,,,,,,
,,,,,,,,,,,,,,,,,,21,2022-02-12_12h18.04.936,lexical_decision_task_DD_L4,2021.2.3,MacIntel,62.5,z,1,0.699,,,,,,,,0.699,1,0,7,7,15,1,1001,WHAISE,z,,,,,,,,,,,,,,,,,,,,,,,,,,,,,,,,,,,,,,,,,,,,,,,,,,,,,,,,,,,,,,,,,,
,,,,,,,,,,,,,,,,,,21,2022-02-12_12h18.04.936,lexical_decision_task_DD_L4,2021.2.3,MacIntel,62.5,m,0,0.448,,,,,,,,0.448,0,0,8,8,11,1,1001,RASHET,z,,,,,,,,,,,,,,,,,,,,,,,,,,,,,,,,,,,,,,,,,,,,,,,,,,,,,,,,,,,,,,,,,,
,,,,,,,,,,,,,,,,,,21,2022-02-12_12h18.04.936,lexical_decision_task_DD_L4,2021.2.3,MacIntel,62.5,z,0,0.548,,,,,,,,0.548,0,0,9,9,4,1,1001,SQUEAK,m,,,,,,,,,,,,,,,,,,,,,,,,,,,,,,,,,,,,,,,,,,,,,,,,,,,,,,,,,,,,,,,,,,
,,,,,,,,,,,,,,,,,,21,2022-02-12_12h18.04.936,lexical_decision_task_DD_L4,2021.2.3,MacIntel,62.5,m,1,0.965,,,,,,,,0.965,1,0,10,10,3,1,1001,MATRIX,m,,,,,,,,,,,,,,,,,,,,,,,,,,,,,,,,,,,,,,,,,,,,,,,,,,,,,,,,,,,,,,,,,,
,,,,,,,,,,,,,,,,,,21,2022-02-12_12h18.04.936,lexical_decision_task_DD_L4,2021.2.3,MacIntel,62.5,m,1,0.697,,,,,,,,0.697,1,0,11,11,5,1,1001,OBTAIN,m,,,,,,,,,,,,,,,,,,,,,,,,,,,,,,,,,,,,,,,,,,,,,,,,,,,,,,,,,,,,,,,,,,
,,,,,,,,,,,,,,,,,,21,2022-02-12_12h18.04.936,lexical_decision_task_DD_L4,2021.2.3,MacIntel,62.5,z,1,0.822,,,,,,,,0.822,1,0,12,12,12,1,1001,SPRINY,z,,,,,,,,,,,,,,,,,,,,,,,,,,,,,,,,,,,,,,,,,,,,,,,,,,,,,,,,,,,,,,,,,,
,,,,,,,,,,,,,,,,,,21,2022-02-12_12h18.04.936,lexical_decision_task_DD_L4,2021.2.3,MacIntel,62.5,z,1,0.597,,,,,,,,0.597,1,0,13,13,8,1,1001,ASLERT,z,,,,,,,,,,,,,,,,,,,,,,,,,,,,,,,,,,,,,,,,,,,,,,,,,,,,,,,,,,,,,,,,,,
,,,,,,,,,,,,,,,,,,21,2022-02-12_12h18.04.936,lexical_decision_task_DD_L4,2021.2.3,MacIntel,62.5,m,1,0.668,,,,,,,,0.668,1,0,14,14,0,1,1001,UTOPIA,m,,,,,,,,,,,,,,,,,,,,,,,,,,,,,,,,,,,,,,,,,,,,,,,,,,,,,,,,,,,,,,,,,,
,,,,,,,,,,,,,,,,,,21,2022-02-12_12h18.04.936,lexical_decision_task_DD_L4,2021.2.3,MacIntel,62.5,m,1,0.682,,,,,,,,0.682,1,0,15,15,1,1,1001,ADJUST,m,,,,,,,,,,,,,,,,,,,,,,,,,,,,,,,,,,,,,,,,,,,,,,,,,,,,,,,,,,,,,,,,,,
space,10.115,0.377777778,-0.236666667,0,0,0,,,,,,1,end_of_practice,"You have completed the practice trials. During the experimental trials, you will not receive feedback. 
Before you begin, please ensure that you are in a comfortable and quiet location and will not be disturbed for about 15 minutes, as we cannot use your data if you do not complete all the trials. 
 When you are ready to start the experimental trials, please press space or touch the button below.",,,,21,2022-02-12_12h18.04.936,lexical_decision_task_DD_L4,2021.2.3,MacIntel,62.5,,,,,,,,,,,,,,,,,,,,,0,0,0,0,1,,,,,,,,,,,,,,,,,,,,,,,,,,,,,,,,,,,,,,,,,,,,,,,,,,,,,,,,,,,,,
,,,,,,,,,,,,,,,,,,21,2022-02-12_12h18.04.936,lexical_decision_task_DD_L4,2021.2.3,MacIntel,62.5,,,,,,,,,,,0.619,1,,,,,,,,,,,,,,m,1,0.619,,,,,,,,0.377777778,-0.236666667,0,0,0,,0,0,0,38,1,ENGINE,LB,old,m,./images/ENGINELB.png,,,,,,,,,,,,,,,,,,,,,,,,,,,,,,,,,,,
,,,,,,,,,,,,,,,,,,21,2022-02-12_12h18.04.936,lexical_decision_task_DD_L4,2021.2.3,MacIntel,62.5,,,,,,,,,,,0.55,0,,,,,,,,,,,,,,m,0,0.55,,,,,,,,0.377777778,-0.236666667,0,0,0,,0,1,1,89,1,DRIEK,LB,old,z,./images/DRIEKLB.png,,,,,,,,,,,,,,,,,,,,,,,,,,,,,,,,,,,
,,,,,,,,,,,,,,,,,,21,2022-02-12_12h18.04.936,lexical_decision_task_DD_L4,2021.2.3,MacIntel,62.5,,,,,,,,,,,0.691,1,,,,,,,,,,,,,,z,1,0.691,,,,,,,,0.377777778,-0.236666667,0,0,0,,0,2,2,136,1,WERVE,HB,old,z,./images/WERVEHB.png,,,,,,,,,,,,,,,,,,,,,,,,,,,,,,,,,,,
,,,,,,,,,,,,,,,,,,21,2022-02-12_12h18.04.936,lexical_decision_task_DD_L4,2021.2.3,MacIntel,62.5,,,,,,,,,,,0.768,0,,,,,,,,,,,,,,m,0,0.768,,,,,,,,0.377777778,-0.236666667,0,0,0,,0,3,3,163,1,GAMBA,HB,old,z,./images/GAMBAHB.png,,,,,,,,,,,,,,,,,,,,,,,,,,,,,,,,,,,
,,,,,,,,,,,,,,,,,,21,2022-02-12_12h18.04.936,lexical_decision_task_DD_L4,2021.2.3,MacIntel,62.5,,,,,,,,,,,1.051,1,,,,,,,,,,,,,,m,1,1.051,,,,,,,,0.377777778,-0.236666667,0,0,0,,0,4,4,33,1,SAUNA,C,old,m,./images/SAUNA.png,,,,,,,,,,,,,,,,,,,,,,,,,,,,,,,,,,,
,,,,,,,,,,,,,,,,,,21,2022-02-12_12h18.04.936,lexical_decision_task_DD_L4,2021.2.3,MacIntel,62.5,,,,,,,,,,,0.736,0,,,,,,,,,,,,,,z,0,0.736,,,,,,,,0.377777778,-0.236666667,0,0,0,,0,5,5,58,1,CANOE,HB,old,m,./images/CANOEHB.png,,,,,,,,,,,,,,,,,,,,,,,,,,,,,,,,,,,
,,,,,,,,,,,,,,,,,,21,2022-02-12_12h18.04.936,lexical_decision_task_DD_L4,2021.2.3,MacIntel,62.5,,,,,,,,,,,0.65,1,,,,,,,,,,,,,,z,1,0.65,,,,,,,,0.377777778,-0.236666667,0,0,0,,0,6,6,162,1,LEICH,C,old,z,./images/LEICH.png,,,,,,,,,,,,,,,,,,,,,,,,,,,,,,,,,,,
,,,,,,,,,,,,,,,,,,21,2022-02-12_12h18.04.936,lexical_decision_task_DD_L4,2021.2.3,MacIntel,62.5,,,,,,,,,,,0.633,1,,,,,,,,,,,,,,m,1,0.633,,,,,,,,0.377777778,-0.236666667,0,0,0,,0,7,7,69,1,ARROW,C,old,m,./images/ARROW.png,,,,,,,,,,,,,,,,,,,,,,,,,,,,,,,,,,,
,,,,,,,,,,,,,,,,,,21,2022-02-12_12h18.04.936,lexical_decision_task_DD_L4,2021.2.3,MacIntel,62.5,,,,,,,,,,,0.617,1,,,,,,,,,,,,,,m,1,0.617,,,,,,,,0.377777778,-0.236666667,0,0,0,,0,8,8,11,1,MEDAL,LB,old,m,./images/MEDALLB.png,,,,,,,,,,,,,,,,,,,,,,,,,,,,,,,,,,,
,,,,,,,,,,,,,,,,,,21,2022-02-12_12h18.04.936,lexical_decision_task_DD_L4,2021.2.3,MacIntel,62.5,,,,,,,,,,,0.75,1,,,,,,,,,,,,,,z,1,0.75,,,,,,,,0.377777778,-0.236666667,0,0,0,,0,9,9,108,1,GRUET,C,old,z,./images/GRUET.png,,,,,,,,,,,,,,,,,,,,,,,,,,,,,,,,,,,
,,,,,,,,,,,,,,,,,,21,2022-02-12_12h18.04.936,lexical_decision_task_DD_L4,2021.2.3,MacIntel,62.5,,,,,,,,,,,0.734,1,,,,,,,,,,,,,,z,1,0.734,,,,,,,,0.377777778,-0.236666667,0,0,0,,0,10,10,137,1,JOOST,LB,old,z,./images/JOOSTLB.png,,,,,,,,,,,,,,,,,,,,,,,,,,,,,,,,,,,
,,,,,,,,,,,,,,,,,,21,2022-02-12_12h18.04.936,lexical_decision_task_DD_L4,2021.2.3,MacIntel,62.5,,,,,,,,,,,0.584,0,,,,,,,,,,,,,,m,0,0.584,,,,,,,,0.377777778,-0.236666667,0,0,0,,0,11,11,156,1,HIXES,C,old,z,./images/HIXES.png,,,,,,,,,,,,,,,,,,,,,,,,,,,,,,,,,,,
,,,,,,,,,,,,,,,,,,21,2022-02-12_12h18.04.936,lexical_decision_task_DD_L4,2021.2.3,MacIntel,62.5,,,,,,,,,,,1.051,1,,,,,,,,,,,,,,z,1,1.051,,,,,,,,0.377777778,-0.236666667,0,0,0,,0,12,12,98,1,BAMPS,LB,old,z,./images/BAMPSLB.png,,,,,,,,,,,,,,,,,,,,,,,,,,,,,,,,,,,
,,,,,,,,,,,,,,,,,,21,2022-02-12_12h18.04.936,lexical_decision_task_DD_L4,2021.2.3,MacIntel,62.5,,,,,,,,,,,0.6,1,,,,,,,,,,,,,,m,1,0.6,,,,,,,,0.377777778,-0.236666667,0,0,0,,0,13,13,12,1,BLOKE,C,old,m,./images/BLOKE.png,,,,,,,,,,,,,,,,,,,,,,,,,,,,,,,,,,,
,,,,,,,,,,,,,,,,,,21,2022-02-12_12h18.04.936,lexical_decision_task_DD_L4,2021.2.3,MacIntel,62.5,,,,,,,,,,,0.634,1,,,,,,,,,,,,,,m,1,0.634,,,,,,,,0.377777778,-0.236666667,0,0,0,,0,14,14,8,1,CLIFF,LB,old,m,./images/CLIFFLB.png,,,,,,,,,,,,,,,,,,,,,,,,,,,,,,,,,,,
,,,,,,,,,,,,,,,,,,21,2022-02-12_12h18.04.936,lexical_decision_task_DD_L4,2021.2.3,MacIntel,62.5,,,,,,,,,,,0.951,1,,,,,,,,,,,,,,z,1,0.951,,,,,,,,0.377777778,-0.236666667,0,0,0,,0,15,15,150,1,NOOLS,C,old,z,./images/NOOLS.png,,,,,,,,,,,,,,,,,,,,,,,,,,,,,,,,,,,
,,,,,,,,,,,,,,,,,,21,2022-02-12_12h18.04.936,lexical_decision_task_DD_L4,2021.2.3,MacIntel,62.5,,,,,,,,,,,0.834,1,,,,,,,,,,,,,,z,1,0.834,,,,,,,,0.377777778,-0.236666667,0,0,0,,0,16,16,130,1,CRILL,HB,old,z,./images/CRILLHB.png,,,,,,,,,,,,,,,,,,,,,,,,,,,,,,,,,,,
,,,,,,,,,,,,,,,,,,21,2022-02-12_12h18.04.936,lexical_decision_task_DD_L4,2021.2.3,MacIntel,62.5,,,,,,,,,,,1.318,1,,,,,,,,,,,,,,m,1,1.318,,,,,,,,0.377777778,-0.236666667,0,0,0,,0,17,17,40,1,SNAKE,HB,old,m,./images/SNAKEHB.png,,,,,,,,,,,,,,,,,,,,,,,,,,,,,,,,,,,
,,,,,,,,,,,,,,,,,,21,2022-02-12_12h18.04.936,lexical_decision_task_DD_L4,2021.2.3,MacIntel,62.5,,,,,,,,,,,0.8,1,,,,,,,,,,,,,,z,1,0.8,,,,,,,,0.377777778,-0.236666667,0,0,0,,0,18,18,155,1,CANGY,LB,old,z,./images/CANGYLB.png,,,,,,,,,,,,,,,,,,,,,,,,,,,,,,,,,,,
,,,,,,,,,,,,,,,,,,21,2022-02-12_12h18.04.936,lexical_decision_task_DD_L4,2021.2.3,MacIntel,62.5,,,,,,,,,,,0.801,1,,,,,,,,,,,,,,z,1,0.801,,,,,,,,0.377777778,-0.236666667,0,0,0,,0,19,19,92,1,PAIMS,LB,old,z,./images/PAIMSLB.png,,,,,,,,,,,,,,,,,,,,,,,,,,,,,,,,,,,
,,,,,,,,,,,,,,,,,,21,2022-02-12_12h18.04.936,lexical_decision_task_DD_L4,2021.2.3,MacIntel,62.5,,,,,,,,,,,0.734,1,,,,,,,,,,,,,,m,1,0.734,,,,,,,,0.377777778,-0.236666667,0,0,0,,0,20,20,45,1,MONKEY,C,old,m,./images/MONKEY.png,,,,,,,,,,,,,,,,,,,,,,,,,,,,,,,,,,,
,,,,,,,,,,,,,,,,,,21,2022-02-12_12h18.04.936,lexical_decision_task_DD_L4,2021.2.3,MacIntel,62.5,,,,,,,,,,,0.954,1,,,,,,,,,,,,,,m,1,0.954,,,,,,,,0.377777778,-0.236666667,0,0,0,,0,21,21,82,1,PEBBLE,HB,old,m,./images/PEBBLEHB.png,,,,,,,,,,,,,,,,,,,,,,,,,,,,,,,,,,,
,,,,,,,,,,,,,,,,,,21,2022-02-12_12h18.04.936,lexical_decision_task_DD_L4,2021.2.3,MacIntel,62.5,,,,,,,,,,,0.684,1,,,,,,,,,,,,,,z,1,0.684,,,,,,,,0.377777778,-0.236666667,0,0,0,,0,22,22,101,1,GLEET,LB,old,z,./images/GLEETLB.png,,,,,,,,,,,,,,,,,,,,,,,,,,,,,,,,,,,
,,,,,,,,,,,,,,,,,,21,2022-02-12_12h18.04.936,lexical_decision_task_DD_L4,2021.2.3,MacIntel,62.5,,,,,,,,,,,0.6,1,,,,,,,,,,,,,,m,1,0.6,,,,,,,,0.377777778,-0.236666667,0,0,0,,0,23,23,35,1,LLAMA,LB,old,m,./images/LLAMALB.png,,,,,,,,,,,,,,,,,,,,,,,,,,,,,,,,,,,
,,,,,,,,,,,,,,,,,,21,2022-02-12_12h18.04.936,lexical_decision_task_DD_L4,2021.2.3,MacIntel,62.5,,,,,,,,,,,0.649,1,,,,,,,,,,,,,,m,1,0.649,,,,,,,,0.377777778,-0.236666667,0,0,0,,0,24,24,65,1,SPINE,LB,old,m,./images/SPINELB.png,,,,,,,,,,,,,,,,,,,,,,,,,,,,,,,,,,,
,,,,,,,,,,,,,,,,,,21,2022-02-12_12h18.04.936,lexical_decision_task_DD_L4,2021.2.3,MacIntel,62.5,,,,,,,,,,,0.783,1,,,,,,,,,,,,,,z,1,0.783,,,,,,,,0.377777778,-0.236666667,0,0,0,,0,25,25,151,1,TINKY,HB,old,z,./images/TINKYHB.png,,,,,,,,,,,,,,,,,,,,,,,,,,,,,,,,,,,
,,,,,,,,,,,,,,,,,,21,2022-02-12_12h18.04.936,lexical_decision_task_DD_L4,2021.2.3,MacIntel,62.5,,,,,,,,,,,0.701,1,,,,,,,,,,,,,,z,1,0.701,,,,,,,,0.377777778,-0.236666667,0,0,0,,0,26,26,116,1,BALGY,LB,old,z,./images/BALGYLB.png,,,,,,,,,,,,,,,,,,,,,,,,,,,,,,,,,,,
,,,,,,,,,,,,,,,,,,21,2022-02-12_12h18.04.936,lexical_decision_task_DD_L4,2021.2.3,MacIntel,62.5,,,,,,,,,,,1.184,1,,,,,,,,,,,,,,z,1,1.184,,,,,,,,0.377777778,-0.236666667,0,0,0,,0,27,27,146,1,MOOST,LB,old,z,./images/MOOSTLB.png,,,,,,,,,,,,,,,,,,,,,,,,,,,,,,,,,,,
,,,,,,,,,,,,,,,,,,21,2022-02-12_12h18.04.936,lexical_decision_task_DD_L4,2021.2.3,MacIntel,62.5,,,,,,,,,,,0.801,1,,,,,,,,,,,,,,z,1,0.801,,,,,,,,0.377777778,-0.236666667,0,0,0,,0,28,28,160,1,VEETS,HB,old,z,./images/VEETSHB.png,,,,,,,,,,,,,,,,,,,,,,,,,,,,,,,,,,,
,,,,,,,,,,,,,,,,,,21,2022-02-12_12h18.04.936,lexical_decision_task_DD_L4,2021.2.3,MacIntel,62.5,,,,,,,,,,,0.667,1,,,,,,,,,,,,,,m,1,0.667,,,,,,,,0.377777778,-0.236666667,0,0,0,,0,29,29,54,1,CHERRY,C,old,m,./images/CHERRY.png,,,,,,,,,,,,,,,,,,,,,,,,,,,,,,,,,,,
,,,,,,,,,,,,,,,,,,21,2022-02-12_12h18.04.936,lexical_decision_task_DD_L4,2021.2.3,MacIntel,62.5,,,,,,,,,,,0.884,1,,,,,,,,,,,,,,m,1,0.884,,,,,,,,0.377777778,-0.236666667,0,0,0,,0,30,30,6,1,STAIN,C,old,m,./images/STAIN.png,,,,,,,,,,,,,,,,,,,,,,,,,,,,,,,,,,,
,,,,,,,,,,,,,,,,,,21,2022-02-12_12h18.04.936,lexical_decision_task_DD_L4,2021.2.3,MacIntel,62.5,,,,,,,,,,,0.682,1,,,,,,,,,,,,,,z,1,0.682,,,,,,,,0.377777778,-0.236666667,0,0,0,,0,31,31,144,1,NAIRY,C,old,z,./images/NAIRY.png,,,,,,,,,,,,,,,,,,,,,,,,,,,,,,,,,,,
,,,,,,,,,,,,,,,,,,21,2022-02-12_12h18.04.936,lexical_decision_task_DD_L4,2021.2.3,MacIntel,62.5,,,,,,,,,,,0.518,1,,,,,,,,,,,,,,m,1,0.518,,,,,,,,0.377777778,-0.236666667,0,0,0,,0,32,32,51,1,SAUCE,C,old,m,./images/SAUCE.png,,,,,,,,,,,,,,,,,,,,,,,,,,,,,,,,,,,
,,,,,,,,,,,,,,,,,,21,2022-02-12_12h18.04.936,lexical_decision_task_DD_L4,2021.2.3,MacIntel,62.5,,,,,,,,,,,0.467,1,,,,,,,,,,,,,,m,1,0.467,,,,,,,,0.377777778,-0.236666667,0,0,0,,0,33,33,9,1,DIVER,C,old,m,./images/DIVER.png,,,,,,,,,,,,,,,,,,,,,,,,,,,,,,,,,,,
,,,,,,,,,,,,,,,,,,21,2022-02-12_12h18.04.936,lexical_decision_task_DD_L4,2021.2.3,MacIntel,62.5,,,,,,,,,,,0.735,1,,,,,,,,,,,,,,z,1,0.735,,,,,,,,0.377777778,-0.236666667,0,0,0,,0,34,34,161,1,BLAPS,LB,old,z,./images/BLAPSLB.png,,,,,,,,,,,,,,,,,,,,,,,,,,,,,,,,,,,
,,,,,,,,,,,,,,,,,,21,2022-02-12_12h18.04.936,lexical_decision_task_DD_L4,2021.2.3,MacIntel,62.5,,,,,,,,,,,0.734,0,,,,,,,,,,,,,,m,0,0.734,,,,,,,,0.377777778,-0.236666667,0,0,0,,0,35,35,109,1,BURGE,HB,old,z,./images/BURGEHB.png,,,,,,,,,,,,,,,,,,,,,,,,,,,,,,,,,,,
,,,,,,,,,,,,,,,,,,21,2022-02-12_12h18.04.936,lexical_decision_task_DD_L4,2021.2.3,MacIntel,62.5,,,,,,,,,,,0.634,0,,,,,,,,,,,,,,z,0,0.634,,,,,,,,0.377777778,-0.236666667,0,0,0,,0,36,36,67,1,POKER,HB,old,m,./images/POKERHB.png,,,,,,,,,,,,,,,,,,,,,,,,,,,,,,,,,,,
,,,,,,,,,,,,,,,,,,21,2022-02-12_12h18.04.936,lexical_decision_task_DD_L4,2021.2.3,MacIntel,62.5,,,,,,,,,,,0.8,1,,,,,,,,,,,,,,z,1,0.8,,,,,,,,0.377777778,-0.236666667,0,0,0,,0,37,37,135,1,JOODY,C,old,z,./images/JOODY.png,,,,,,,,,,,,,,,,,,,,,,,,,,,,,,,,,,,
,,,,,,,,,,,,,,,,,,21,2022-02-12_12h18.04.936,lexical_decision_task_DD_L4,2021.2.3,MacIntel,62.5,,,,,,,,,,,0.733,1,,,,,,,,,,,,,,m,1,0.733,,,,,,,,0.377777778,-0.236666667,0,0,0,,0,38,38,1,1,TOWEL,HB,old,m,./images/TOWELHB.png,,,,,,,,,,,,,,,,,,,,,,,,,,,,,,,,,,,
,,,,,,,,,,,,,,,,,,21,2022-02-12_12h18.04.936,lexical_decision_task_DD_L4,2021.2.3,MacIntel,62.5,,,,,,,,,,,0.9,1,,,,,,,,,,,,,,m,1,0.9,,,,,,,,0.377777778,-0.236666667,0,0,0,,0,39,39,10,1,GARDEN,HB,old,m,./images/GARDENHB.png,,,,,,,,,,,,,,,,,,,,,,,,,,,,,,,,,,,
,,,,,,,,,,,,,,,,,,21,2022-02-12_12h18.04.936,lexical_decision_task_DD_L4,2021.2.3,MacIntel,62.5,,,,,,,,,,,1.085,0,,,,,,,,,,,,,,z,0,1.085,,,,,,,,0.377777778,-0.236666667,0,0,0,,0,40,40,79,1,RULER,HB,old,m,./images/RULERHB.png,,,,,,,,,,,,,,,,,,,,,,,,,,,,,,,,,,,
,,,,,,,,,,,,,,,,,,21,2022-02-12_12h18.04.936,lexical_decision_task_DD_L4,2021.2.3,MacIntel,62.5,,,,,,,,,,,0.5,1,,,,,,,,,,,,,,m,1,0.5,,,,,,,,0.377777778,-0.236666667,0,0,0,space,0,41,41,27,1,BUTTER,C,old,m,./images/BUTTER.png,4.138,,,,,,,,,,,,,,,,,,,,,,,,,,,,,,,,,,
,,,,,,,,,,,,,,,,,,21,2022-02-12_12h18.04.936,lexical_decision_task_DD_L4,2021.2.3,MacIntel,62.5,,,,,,,,,,,0.968,1,,,,,,,,,,,,,,m,1,0.968,,,,,,,,0.377777778,-0.236666667,0,0,0,,0,42,42,28,1,CASINO,HB,old,m,./images/CASINOHB.png,,,,,,,,,,,,,,,,,,,,,,,,,,,,,,,,,,,
,,,,,,,,,,,,,,,,,,21,2022-02-12_12h18.04.936,lexical_decision_task_DD_L4,2021.2.3,MacIntel,62.5,,,,,,,,,,,0.65,1,,,,,,,,,,,,,,z,1,0.65,,,,,,,,0.377777778,-0.236666667,0,0,0,,0,43,43,126,1,GUELS,C,old,z,./images/GUELS.png,,,,,,,,,,,,,,,,,,,,,,,,,,,,,,,,,,,
,,,,,,,,,,,,,,,,,,21,2022-02-12_12h18.04.936,lexical_decision_task_DD_L4,2021.2.3,MacIntel,62.5,,,,,,,,,,,0.585,1,,,,,,,,,,,,,,m,1,0.585,,,,,,,,0.377777778,-0.236666667,0,0,0,,0,44,44,77,1,WHEEL,LB,old,m,./images/WHEELLB.png,,,,,,,,,,,,,,,,,,,,,,,,,,,,,,,,,,,
,,,,,,,,,,,,,,,,,,21,2022-02-12_12h18.04.936,lexical_decision_task_DD_L4,2021.2.3,MacIntel,62.5,,,,,,,,,,,1.418,1,,,,,,,,,,,,,,z,1,1.418,,,,,,,,0.377777778,-0.236666667,0,0,0,,0,45,45,88,1,GLUSH,HB,old,z,./images/GLUSHHB.png,,,,,,,,,,,,,,,,,,,,,,,,,,,,,,,,,,,
,,,,,,,,,,,,,,,,,,21,2022-02-12_12h18.04.936,lexical_decision_task_DD_L4,2021.2.3,MacIntel,62.5,,,,,,,,,,,1.051,1,,,,,,,,,,,,,,z,1,1.051,,,,,,,,0.377777778,-0.236666667,0,0,0,,0,46,46,90,1,NEAST,C,old,z,./images/NEAST.png,,,,,,,,,,,,,,,,,,,,,,,,,,,,,,,,,,,
,,,,,,,,,,,,,,,,,,21,2022-02-12_12h18.04.936,lexical_decision_task_DD_L4,2021.2.3,MacIntel,62.5,,,,,,,,,,,0.667,1,,,,,,,,,,,,,,z,1,0.667,,,,,,,,0.377777778,-0.236666667,0,0,0,,0,47,47,131,1,NACES,LB,old,z,./images/NACESLB.png,,,,,,,,,,,,,,,,,,,,,,,,,,,,,,,,,,,
,,,,,,,,,,,,,,,,,,21,2022-02-12_12h18.04.936,lexical_decision_task_DD_L4,2021.2.3,MacIntel,62.5,,,,,,,,,,,0.868,1,,,,,,,,,,,,,,m,1,0.868,,,,,,,,0.377777778,-0.236666667,0,0,0,,0,48,48,49,1,BISHOP,HB,old,m,./images/BISHOPHB.png,,,,,,,,,,,,,,,,,,,,,,,,,,,,,,,,,,,
,,,,,,,,,,,,,,,,,,21,2022-02-12_12h18.04.936,lexical_decision_task_DD_L4,2021.2.3,MacIntel,62.5,,,,,,,,,,,0.804,1,,,,,,,,,,,,,,m,1,0.804,,,,,,,,0.377777778,-0.236666667,0,0,0,,0,49,49,17,1,PARADE,LB,old,m,./images/PARADELB.png,,,,,,,,,,,,,,,,,,,,,,,,,,,,,,,,,,,
,,,,,,,,,,,,,,,,,,21,2022-02-12_12h18.04.936,lexical_decision_task_DD_L4,2021.2.3,MacIntel,62.5,,,,,,,,,,,1.034,1,,,,,,,,,,,,,,m,1,1.034,,,,,,,,0.377777778,-0.236666667,0,0,0,,0,50,50,73,1,GLOVE,HB,old,m,./images/GLOVEHB.png,,,,,,,,,,,,,,,,,,,,,,,,,,,,,,,,,,,
,,,,,,,,,,,,,,,,,,21,2022-02-12_12h18.04.936,lexical_decision_task_DD_L4,2021.2.3,MacIntel,62.5,,,,,,,,,,,1.75,1,,,,,,,,,,,,,,z,1,1.75,,,,,,,,0.377777778,-0.236666667,0,0,0,,0,51,51,166,1,SHORY,HB,old,z,./images/SHORYHB.png,,,,,,,,,,,,,,,,,,,,,,,,,,,,,,,,,,,
,,,,,,,,,,,,,,,,,,21,2022-02-12_12h18.04.936,lexical_decision_task_DD_L4,2021.2.3,MacIntel,62.5,,,,,,,,,,,0.75,1,,,,,,,,,,,,,,z,1,0.75,,,,,,,,0.377777778,-0.236666667,0,0,0,,0,52,52,107,1,FASKS,LB,old,z,./images/FASKSLB.png,,,,,,,,,,,,,,,,,,,,,,,,,,,,,,,,,,,
,,,,,,,,,,,,,,,,,,21,2022-02-12_12h18.04.936,lexical_decision_task_DD_L4,2021.2.3,MacIntel,62.5,,,,,,,,,,,0.701,1,,,,,,,,,,,,,,m,1,0.701,,,,,,,,0.377777778,-0.236666667,0,0,0,,0,53,53,68,1,VALLEY,LB,old,m,./images/VALLEYLB.png,,,,,,,,,,,,,,,,,,,,,,,,,,,,,,,,,,,
,,,,,,,,,,,,,,,,,,21,2022-02-12_12h18.04.936,lexical_decision_task_DD_L4,2021.2.3,MacIntel,62.5,,,,,,,,,,,0.801,1,,,,,,,,,,,,,,m,1,0.801,,,,,,,,0.377777778,-0.236666667,0,0,0,,0,54,54,4,1,BOXER,HB,old,m,./images/BOXERHB.png,,,,,,,,,,,,,,,,,,,,,,,,,,,,,,,,,,,
,,,,,,,,,,,,,,,,,,21,2022-02-12_12h18.04.936,lexical_decision_task_DD_L4,2021.2.3,MacIntel,62.5,,,,,,,,,,,1.6,0,,,,,,,,,,,,,,m,0,1.6,,,,,,,,0.377777778,-0.236666667,0,0,0,,0,55,55,133,1,POWDY,HB,old,z,./images/POWDYHB.png,,,,,,,,,,,,,,,,,,,,,,,,,,,,,,,,,,,
,,,,,,,,,,,,,,,,,,21,2022-02-12_12h18.04.936,lexical_decision_task_DD_L4,2021.2.3,MacIntel,62.5,,,,,,,,,,,1.284,1,,,,,,,,,,,,,,z,1,1.284,,,,,,,,0.377777778,-0.236666667,0,0,0,,0,56,56,121,1,CEERS,HB,old,z,./images/CEERSHB.png,,,,,,,,,,,,,,,,,,,,,,,,,,,,,,,,,,,
,,,,,,,,,,,,,,,,,,21,2022-02-12_12h18.04.936,lexical_decision_task_DD_L4,2021.2.3,MacIntel,62.5,,,,,,,,,,,0.766,1,,,,,,,,,,,,,,m,1,0.766,,,,,,,,0.377777778,-0.236666667,0,0,0,,0,57,57,2,1,STOVE,LB,old,m,./images/STOVELB.png,,,,,,,,,,,,,,,,,,,,,,,,,,,,,,,,,,,
,,,,,,,,,,,,,,,,,,21,2022-02-12_12h18.04.936,lexical_decision_task_DD_L4,2021.2.3,MacIntel,62.5,,,,,,,,,,,0.817,1,,,,,,,,,,,,,,m,1,0.817,,,,,,,,0.377777778,-0.236666667,0,0,0,,0,58,58,20,1,GRANNY,LB,old,m,./images/GRANNYLB.png,,,,,,,,,,,,,,,,,,,,,,,,,,,,,,,,,,,
,,,,,,,,,,,,,,,,,,21,2022-02-12_12h18.04.936,lexical_decision_task_DD_L4,2021.2.3,MacIntel,62.5,,,,,,,,,,,0.684,1,,,,,,,,,,,,,,z,1,0.684,,,,,,,,0.377777778,-0.236666667,0,0,0,,0,59,59,125,1,MOOKY,LB,old,z,./images/MOOKYLB.png,,,,,,,,,,,,,,,,,,,,,,,,,,,,,,,,,,,
,,,,,,,,,,,,,,,,,,21,2022-02-12_12h18.04.936,lexical_decision_task_DD_L4,2021.2.3,MacIntel,62.5,,,,,,,,,,,0.6,1,,,,,,,,,,,,,,m,1,0.6,,,,,,,,0.377777778,-0.236666667,0,0,0,,0,60,60,81,1,DRILL,C,old,m,./images/DRILL.png,,,,,,,,,,,,,,,,,,,,,,,,,,,,,,,,,,,
,,,,,,,,,,,,,,,,,,21,2022-02-12_12h18.04.936,lexical_decision_task_DD_L4,2021.2.3,MacIntel,62.5,,,,,,,,,,,0.486,1,,,,,,,,,,,,,,z,1,0.486,,,,,,,,0.377777778,-0.236666667,0,0,0,,0,61,61,105,1,MOKER,C,old,z,./images/MOKER.png,,,,,,,,,,,,,,,,,,,,,,,,,,,,,,,,,,,
,,,,,,,,,,,,,,,,,,21,2022-02-12_12h18.04.936,lexical_decision_task_DD_L4,2021.2.3,MacIntel,62.5,,,,,,,,,,,0.666,1,,,,,,,,,,,,,,m,1,0.666,,,,,,,,0.377777778,-0.236666667,0,0,0,,0,62,62,32,1,HOCKEY,LB,old,m,./images/HOCKEYLB.png,,,,,,,,,,,,,,,,,,,,,,,,,,,,,,,,,,,
,,,,,,,,,,,,,,,,,,21,2022-02-12_12h18.04.936,lexical_decision_task_DD_L4,2021.2.3,MacIntel,62.5,,,,,,,,,,,1.435,1,,,,,,,,,,,,,,z,1,1.435,,,,,,,,0.377777778,-0.236666667,0,0,0,,0,63,63,85,1,CHULK,HB,old,z,./images/CHULKHB.png,,,,,,,,,,,,,,,,,,,,,,,,,,,,,,,,,,,
,,,,,,,,,,,,,,,,,,21,2022-02-12_12h18.04.936,lexical_decision_task_DD_L4,2021.2.3,MacIntel,62.5,,,,,,,,,,,0.683,1,,,,,,,,,,,,,,m,1,0.683,,,,,,,,0.377777778,-0.236666667,0,0,0,,0,64,64,80,1,PLANET,LB,old,m,./images/PLANETLB.png,,,,,,,,,,,,,,,,,,,,,,,,,,,,,,,,,,,
,,,,,,,,,,,,,,,,,,21,2022-02-12_12h18.04.936,lexical_decision_task_DD_L4,2021.2.3,MacIntel,62.5,,,,,,,,,,,1,0,,,,,,,,,,,,,,m,0,1,,,,,,,,0.377777778,-0.236666667,0,0,0,,0,65,65,100,1,DRIBS,HB,old,z,./images/DRIBSHB.png,,,,,,,,,,,,,,,,,,,,,,,,,,,,,,,,,,,
,,,,,,,,,,,,,,,,,,21,2022-02-12_12h18.04.936,lexical_decision_task_DD_L4,2021.2.3,MacIntel,62.5,,,,,,,,,,,1.068,1,,,,,,,,,,,,,,z,1,1.068,,,,,,,,0.377777778,-0.236666667,0,0,0,,0,66,66,157,1,INLER,HB,old,z,./images/INLERHB.png,,,,,,,,,,,,,,,,,,,,,,,,,,,,,,,,,,,
,,,,,,,,,,,,,,,,,,21,2022-02-12_12h18.04.936,lexical_decision_task_DD_L4,2021.2.3,MacIntel,62.5,,,,,,,,,,,0.683,1,,,,,,,,,,,,,,m,1,0.683,,,,,,,,0.377777778,-0.236666667,0,0,0,,0,67,67,31,1,STEAK,HB,old,m,./images/STEAKHB.png,,,,,,,,,,,,,,,,,,,,,,,,,,,,,,,,,,,
,,,,,,,,,,,,,,,,,,21,2022-02-12_12h18.04.936,lexical_decision_task_DD_L4,2021.2.3,MacIntel,62.5,,,,,,,,,,,0.583,1,,,,,,,,,,,,,,m,1,0.583,,,,,,,,0.377777778,-0.236666667,0,0,0,,0,68,68,50,1,PILOT,LB,old,m,./images/PILOTLB.png,,,,,,,,,,,,,,,,,,,,,,,,,,,,,,,,,,,
,,,,,,,,,,,,,,,,,,21,2022-02-12_12h18.04.936,lexical_decision_task_DD_L4,2021.2.3,MacIntel,62.5,,,,,,,,,,,0.584,1,,,,,,,,,,,,,,m,1,0.584,,,,,,,,0.377777778,-0.236666667,0,0,0,,0,69,69,59,1,BRUSH,LB,old,m,./images/BRUSHLB.png,,,,,,,,,,,,,,,,,,,,,,,,,,,,,,,,,,,
,,,,,,,,,,,,,,,,,,21,2022-02-12_12h18.04.936,lexical_decision_task_DD_L4,2021.2.3,MacIntel,62.5,,,,,,,,,,,1.257,1,,,,,,,,,,,,,,m,1,1.257,,,,,,,,0.377777778,-0.236666667,0,0,0,,0,70,70,53,1,POSTER,LB,old,m,./images/POSTERLB.png,,,,,,,,,,,,,,,,,,,,,,,,,,,,,,,,,,,
,,,,,,,,,,,,,,,,,,21,2022-02-12_12h18.04.936,lexical_decision_task_DD_L4,2021.2.3,MacIntel,62.5,,,,,,,,,,,0.7,1,,,,,,,,,,,,,,z,1,0.7,,,,,,,,0.377777778,-0.236666667,0,0,0,,0,71,71,143,1,MONGS,LB,old,z,./images/MONGSLB.png,,,,,,,,,,,,,,,,,,,,,,,,,,,,,,,,,,,
,,,,,,,,,,,,,,,,,,21,2022-02-12_12h18.04.936,lexical_decision_task_DD_L4,2021.2.3,MacIntel,62.5,,,,,,,,,,,1.067,1,,,,,,,,,,,,,,z,1,1.067,,,,,,,,0.377777778,-0.236666667,0,0,0,,0,72,72,142,1,PLASK,HB,old,z,./images/PLASKHB.png,,,,,,,,,,,,,,,,,,,,,,,,,,,,,,,,,,,
,,,,,,,,,,,,,,,,,,21,2022-02-12_12h18.04.936,lexical_decision_task_DD_L4,2021.2.3,MacIntel,62.5,,,,,,,,,,,0.701,1,,,,,,,,,,,,,,z,1,0.701,,,,,,,,0.377777778,-0.236666667,0,0,0,,0,73,73,96,1,KEAMS,C,old,z,./images/KEAMS.png,,,,,,,,,,,,,,,,,,,,,,,,,,,,,,,,,,,
,,,,,,,,,,,,,,,,,,21,2022-02-12_12h18.04.936,lexical_decision_task_DD_L4,2021.2.3,MacIntel,62.5,,,,,,,,,,,0.584,1,,,,,,,,,,,,,,m,1,0.584,,,,,,,,0.377777778,-0.236666667,0,0,0,,0,74,74,21,1,DANCER,C,old,m,./images/DANCER.png,,,,,,,,,,,,,,,,,,,,,,,,,,,,,,,,,,,
,,,,,,,,,,,,,,,,,,21,2022-02-12_12h18.04.936,lexical_decision_task_DD_L4,2021.2.3,MacIntel,62.5,,,,,,,,,,,0.768,1,,,,,,,,,,,,,,m,1,0.768,,,,,,,,0.377777778,-0.236666667,0,0,0,,0,75,75,39,1,CANDY,C,old,m,./images/CANDY.png,,,,,,,,,,,,,,,,,,,,,,,,,,,,,,,,,,,
,,,,,,,,,,,,,,,,,,21,2022-02-12_12h18.04.936,lexical_decision_task_DD_L4,2021.2.3,MacIntel,62.5,,,,,,,,,,,0.534,1,,,,,,,,,,,,,,z,1,0.534,,,,,,,,0.377777778,-0.236666667,0,0,0,,0,76,76,87,1,TRING,C,old,z,./images/TRING.png,,,,,,,,,,,,,,,,,,,,,,,,,,,,,,,,,,,
,,,,,,,,,,,,,,,,,,21,2022-02-12_12h18.04.936,lexical_decision_task_DD_L4,2021.2.3,MacIntel,62.5,,,,,,,,,,,0.55,1,,,,,,,,,,,,,,z,1,0.55,,,,,,,,0.377777778,-0.236666667,0,0,0,,0,77,77,147,1,ZOLES,C,old,z,./images/ZOLES.png,,,,,,,,,,,,,,,,,,,,,,,,,,,,,,,,,,,
,,,,,,,,,,,,,,,,,,21,2022-02-12_12h18.04.936,lexical_decision_task_DD_L4,2021.2.3,MacIntel,62.5,,,,,,,,,,,0.668,0,,,,,,,,,,,,,,z,0,0.668,,,,,,,,0.377777778,-0.236666667,0,0,0,,0,78,78,47,1,LAGOON,LB,old,m,./images/LAGOONLB.png,,,,,,,,,,,,,,,,,,,,,,,,,,,,,,,,,,,
,,,,,,,,,,,,,,,,,,21,2022-02-12_12h18.04.936,lexical_decision_task_DD_L4,2021.2.3,MacIntel,62.5,,,,,,,,,,,0.667,1,,,,,,,,,,,,,,m,1,0.667,,,,,,,,0.377777778,-0.236666667,0,0,0,,0,79,79,57,1,FERRY,C,old,m,./images/FERRY.png,,,,,,,,,,,,,,,,,,,,,,,,,,,,,,,,,,,
,,,,,,,,,,,,,,,,,,21,2022-02-12_12h18.04.936,lexical_decision_task_DD_L4,2021.2.3,MacIntel,62.5,,,,,,,,,,,1,1,,,,,,,,,,,,,,z,1,1,,,,,,,,0.377777778,-0.236666667,0,0,0,,0,80,80,124,1,TUNCH,HB,old,z,./images/TUNCHHB.png,,,,,,,,,,,,,,,,,,,,,,,,,,,,,,,,,,,
,,,,,,,,,,,,,,,,,,21,2022-02-12_12h18.04.936,lexical_decision_task_DD_L4,2021.2.3,MacIntel,62.5,,,,,,,,,,,0.717,1,,,,,,,,,,,,,,m,1,0.717,,,,,,,,0.377777778,-0.236666667,0,0,0,,0,81,81,16,1,GRAPE,HB,old,m,./images/GRAPEHB.png,,,,,,,,,,,,,,,,,,,,,,,,,,,,,,,,,,,
,,,,,,,,,,,,,,,,,,21,2022-02-12_12h18.04.936,lexical_decision_task_DD_L4,2021.2.3,MacIntel,62.5,,,,,,,,,,,0.651,0,,,,,,,,,,,,,,z,0,0.651,,,,,,,,0.377777778,-0.236666667,0,0,0,,0,82,82,41,1,STREAM,LB,old,m,./images/STREAMLB.png,,,,,,,,,,,,,,,,,,,,,,,,,,,,,,,,,,,
,,,,,,,,,,,,,,,,,,21,2022-02-12_12h18.04.936,lexical_decision_task_DD_L4,2021.2.3,MacIntel,62.5,,,,,,,,,,,0.818,1,,,,,,,,,,,,,,z,1,0.818,,,,,,,,0.377777778,-0.236666667,0,0,0,space,0,83,83,119,1,PAFER,LB,old,z,./images/PAFERLB.png,5.166,,,,,,,,,,,,,,,,,,,,,,,,,,,,,,,,,,
,,,,,,,,,,,,,,,,,,21,2022-02-12_12h18.04.936,lexical_decision_task_DD_L4,2021.2.3,MacIntel,62.5,,,,,,,,,,,0.684,1,,,,,,,,,,,,,,z,1,0.684,,,,,,,,0.377777778,-0.236666667,0,0,0,,0,84,84,138,1,PLICE,C,old,z,./images/PLICE.png,,,,,,,,,,,,,,,,,,,,,,,,,,,,,,,,,,,
,,,,,,,,,,,,,,,,,,21,2022-02-12_12h18.04.936,lexical_decision_task_DD_L4,2021.2.3,MacIntel,62.5,,,,,,,,,,,0.501,1,,,,,,,,,,,,,,m,1,0.501,,,,,,,,0.377777778,-0.236666667,0,0,0,,0,85,85,26,1,CLOUD,LB,old,m,./images/CLOUDLB.png,,,,,,,,,,,,,,,,,,,,,,,,,,,,,,,,,,,
,,,,,,,,,,,,,,,,,,21,2022-02-12_12h18.04.936,lexical_decision_task_DD_L4,2021.2.3,MacIntel,62.5,,,,,,,,,,,1.051,0,,,,,,,,,,,,,,z,0,1.051,,,,,,,,0.377777778,-0.236666667,0,0,0,,0,86,86,13,1,BUNNY,HB,old,m,./images/BUNNYHB.png,,,,,,,,,,,,,,,,,,,,,,,,,,,,,,,,,,,
,,,,,,,,,,,,,,,,,,21,2022-02-12_12h18.04.936,lexical_decision_task_DD_L4,2021.2.3,MacIntel,62.5,,,,,,,,,,,0.935,1,,,,,,,,,,,,,,z,1,0.935,,,,,,,,0.377777778,-0.236666667,0,0,0,,0,87,87,120,1,RINED,C,old,z,./images/RINED.png,,,,,,,,,,,,,,,,,,,,,,,,,,,,,,,,,,,
,,,,,,,,,,,,,,,,,,21,2022-02-12_12h18.04.936,lexical_decision_task_DD_L4,2021.2.3,MacIntel,62.5,,,,,,,,,,,1.068,1,,,,,,,,,,,,,,z,1,1.068,,,,,,,,0.377777778,-0.236666667,0,0,0,,0,88,88,102,1,DULLE,C,old,z,./images/DULLE.png,,,,,,,,,,,,,,,,,,,,,,,,,,,,,,,,,,,
,,,,,,,,,,,,,,,,,,21,2022-02-12_12h18.04.936,lexical_decision_task_DD_L4,2021.2.3,MacIntel,62.5,,,,,,,,,,,0.567,1,,,,,,,,,,,,,,m,1,0.567,,,,,,,,0.377777778,-0.236666667,0,0,0,,0,89,89,30,1,SLOPE,C,old,m,./images/SLOPE.png,,,,,,,,,,,,,,,,,,,,,,,,,,,,,,,,,,,
,,,,,,,,,,,,,,,,,,21,2022-02-12_12h18.04.936,lexical_decision_task_DD_L4,2021.2.3,MacIntel,62.5,,,,,,,,,,,0.683,1,,,,,,,,,,,,,,z,1,0.683,,,,,,,,0.377777778,-0.236666667,0,0,0,,0,90,90,158,1,EGECT,LB,old,z,./images/EGECTLB.png,,,,,,,,,,,,,,,,,,,,,,,,,,,,,,,,,,,
,,,,,,,,,,,,,,,,,,21,2022-02-12_12h18.04.936,lexical_decision_task_DD_L4,2021.2.3,MacIntel,62.5,,,,,,,,,,,0.617,1,,,,,,,,,,,,,,m,1,0.617,,,,,,,,0.377777778,-0.236666667,0,0,0,,0,91,91,55,1,ALLEY,HB,old,m,./images/ALLEYHB.png,,,,,,,,,,,,,,,,,,,,,,,,,,,,,,,,,,,
,,,,,,,,,,,,,,,,,,21,2022-02-12_12h18.04.936,lexical_decision_task_DD_L4,2021.2.3,MacIntel,62.5,,,,,,,,,,,1.318,1,,,,,,,,,,,,,,z,1,1.318,,,,,,,,0.377777778,-0.236666667,0,0,0,,0,92,92,123,1,SEDGE,C,old,z,./images/SEDGE.png,,,,,,,,,,,,,,,,,,,,,,,,,,,,,,,,,,,
,,,,,,,,,,,,,,,,,,21,2022-02-12_12h18.04.936,lexical_decision_task_DD_L4,2021.2.3,MacIntel,62.5,,,,,,,,,,,0.767,1,,,,,,,,,,,,,,m,1,0.767,,,,,,,,0.377777778,-0.236666667,0,0,0,,0,93,93,78,1,BROOM,C,old,m,./images/BROOM.png,,,,,,,,,,,,,,,,,,,,,,,,,,,,,,,,,,,
,,,,,,,,,,,,,,,,,,21,2022-02-12_12h18.04.936,lexical_decision_task_DD_L4,2021.2.3,MacIntel,62.5,,,,,,,,,,,0.733,0,,,,,,,,,,,,,,m,0,0.733,,,,,,,,0.377777778,-0.236666667,0,0,0,,0,94,94,110,1,CRUNK,LB,old,z,./images/CRUNKLB.png,,,,,,,,,,,,,,,,,,,,,,,,,,,,,,,,,,,
,,,,,,,,,,,,,,,,,,21,2022-02-12_12h18.04.936,lexical_decision_task_DD_L4,2021.2.3,MacIntel,62.5,,,,,,,,,,,1.1,1,,,,,,,,,,,,,,z,1,1.1,,,,,,,,0.377777778,-0.236666667,0,0,0,,0,95,95,115,1,MAWNS,HB,old,z,./images/MAWNSHB.png,,,,,,,,,,,,,,,,,,,,,,,,,,,,,,,,,,,
,,,,,,,,,,,,,,,,,,21,2022-02-12_12h18.04.936,lexical_decision_task_DD_L4,2021.2.3,MacIntel,62.5,,,,,,,,,,,0.865,1,,,,,,,,,,,,,,m,1,0.865,,,,,,,,0.377777778,-0.236666667,0,0,0,,0,96,96,76,1,MIDGET,HB,old,m,./images/MIDGETHB.png,,,,,,,,,,,,,,,,,,,,,,,,,,,,,,,,,,,
,,,,,,,,,,,,,,,,,,21,2022-02-12_12h18.04.936,lexical_decision_task_DD_L4,2021.2.3,MacIntel,62.5,,,,,,,,,,,0.917,1,,,,,,,,,,,,,,z,1,0.917,,,,,,,,0.377777778,-0.236666667,0,0,0,,0,97,97,106,1,CLUMS,HB,old,z,./images/CLUMSHB.png,,,,,,,,,,,,,,,,,,,,,,,,,,,,,,,,,,,
,,,,,,,,,,,,,,,,,,21,2022-02-12_12h18.04.936,lexical_decision_task_DD_L4,2021.2.3,MacIntel,62.5,,,,,,,,,,,0.47,1,,,,,,,,,,,,,,m,1,0.47,,,,,,,,0.377777778,-0.236666667,0,0,0,,0,98,98,71,1,BUBBLE,LB,old,m,./images/BUBBLELB.png,,,,,,,,,,,,,,,,,,,,,,,,,,,,,,,,,,,
,,,,,,,,,,,,,,,,,,21,2022-02-12_12h18.04.936,lexical_decision_task_DD_L4,2021.2.3,MacIntel,62.5,,,,,,,,,,,0.65,1,,,,,,,,,,,,,,m,1,0.65,,,,,,,,0.377777778,-0.236666667,0,0,0,,0,99,99,29,1,PISTOL,LB,old,m,./images/PISTOLLB.png,,,,,,,,,,,,,,,,,,,,,,,,,,,,,,,,,,,
,,,,,,,,,,,,,,,,,,21,2022-02-12_12h18.04.936,lexical_decision_task_DD_L4,2021.2.3,MacIntel,62.5,,,,,,,,,,,0.882,0,,,,,,,,,,,,,,m,0,0.882,,,,,,,,0.377777778,-0.236666667,0,0,0,,0,100,100,91,1,SHENS,HB,old,z,./images/SHENSHB.png,,,,,,,,,,,,,,,,,,,,,,,,,,,,,,,,,,,
,,,,,,,,,,,,,,,,,,21,2022-02-12_12h18.04.936,lexical_decision_task_DD_L4,2021.2.3,MacIntel,62.5,,,,,,,,,,,1.467,1,,,,,,,,,,,,,,z,1,1.467,,,,,,,,0.377777778,-0.236666667,0,0,0,,0,101,101,127,1,NINDY,HB,old,z,./images/NINDYHB.png,,,,,,,,,,,,,,,,,,,,,,,,,,,,,,,,,,,
,,,,,,,,,,,,,,,,,,21,2022-02-12_12h18.04.936,lexical_decision_task_DD_L4,2021.2.3,MacIntel,62.5,,,,,,,,,,,1.001,1,,,,,,,,,,,,,,m,1,1.001,,,,,,,,0.377777778,-0.236666667,0,0,0,,0,102,102,70,1,BANANA,HB,old,m,./images/BANANAHB.png,,,,,,,,,,,,,,,,,,,,,,,,,,,,,,,,,,,
,,,,,,,,,,,,,,,,,,21,2022-02-12_12h18.04.936,lexical_decision_task_DD_L4,2021.2.3,MacIntel,62.5,,,,,,,,,,,0.787,1,,,,,,,,,,,,,,m,1,0.787,,,,,,,,0.377777778,-0.236666667,0,0,0,,0,103,103,56,1,HEATER,LB,old,m,./images/HEATERLB.png,,,,,,,,,,,,,,,,,,,,,,,,,,,,,,,,,,,
,,,,,,,,,,,,,,,,,,21,2022-02-12_12h18.04.936,lexical_decision_task_DD_L4,2021.2.3,MacIntel,62.5,,,,,,,,,,,0.734,1,,,,,,,,,,,,,,z,1,0.734,,,,,,,,0.377777778,-0.236666667,0,0,0,,0,104,104,153,1,CLUPS,C,old,z,./images/CLUPS.png,,,,,,,,,,,,,,,,,,,,,,,,,,,,,,,,,,,
,,,,,,,,,,,,,,,,,,21,2022-02-12_12h18.04.936,lexical_decision_task_DD_L4,2021.2.3,MacIntel,62.5,,,,,,,,,,,0.801,1,,,,,,,,,,,,,,m,1,0.801,,,,,,,,0.377777778,-0.236666667,0,0,0,,0,105,105,37,1,TIGER,HB,old,m,./images/TIGERHB.png,,,,,,,,,,,,,,,,,,,,,,,,,,,,,,,,,,,
,,,,,,,,,,,,,,,,,,21,2022-02-12_12h18.04.936,lexical_decision_task_DD_L4,2021.2.3,MacIntel,62.5,,,,,,,,,,,0.651,1,,,,,,,,,,,,,,m,1,0.651,,,,,,,,0.377777778,-0.236666667,0,0,0,,0,106,106,48,1,SHIELD,C,old,m,./images/SHIELD.png,,,,,,,,,,,,,,,,,,,,,,,,,,,,,,,,,,,
,,,,,,,,,,,,,,,,,,21,2022-02-12_12h18.04.936,lexical_decision_task_DD_L4,2021.2.3,MacIntel,62.5,,,,,,,,,,,0.766,1,,,,,,,,,,,,,,m,1,0.766,,,,,,,,0.377777778,-0.236666667,0,0,0,,0,107,107,3,1,CRATER,C,old,m,./images/CRATER.png,,,,,,,,,,,,,,,,,,,,,,,,,,,,,,,,,,,
,,,,,,,,,,,,,,,,,,21,2022-02-12_12h18.04.936,lexical_decision_task_DD_L4,2021.2.3,MacIntel,62.5,,,,,,,,,,,0.551,1,,,,,,,,,,,,,,z,1,0.551,,,,,,,,0.377777778,-0.236666667,0,0,0,,0,108,108,93,1,SMONE,C,old,z,./images/SMONE.png,,,,,,,,,,,,,,,,,,,,,,,,,,,,,,,,,,,
,,,,,,,,,,,,,,,,,,21,2022-02-12_12h18.04.936,lexical_decision_task_DD_L4,2021.2.3,MacIntel,62.5,,,,,,,,,,,0.633,1,,,,,,,,,,,,,,z,1,0.633,,,,,,,,0.377777778,-0.236666667,0,0,0,,0,109,109,86,1,AIFED,LB,old,z,./images/AIFEDLB.png,,,,,,,,,,,,,,,,,,,,,,,,,,,,,,,,,,,
,,,,,,,,,,,,,,,,,,21,2022-02-12_12h18.04.936,lexical_decision_task_DD_L4,2021.2.3,MacIntel,62.5,,,,,,,,,,,0.72,1,,,,,,,,,,,,,,z,1,0.72,,,,,,,,0.377777778,-0.236666667,0,0,0,,0,110,110,152,1,FRAIN,LB,old,z,./images/FRAINLB.png,,,,,,,,,,,,,,,,,,,,,,,,,,,,,,,,,,,
,,,,,,,,,,,,,,,,,,21,2022-02-12_12h18.04.936,lexical_decision_task_DD_L4,2021.2.3,MacIntel,62.5,,,,,,,,,,,0.585,1,,,,,,,,,,,,,,m,1,0.585,,,,,,,,0.377777778,-0.236666667,0,0,0,,0,111,111,74,1,JUMPER,LB,old,m,./images/JUMPERLB.png,,,,,,,,,,,,,,,,,,,,,,,,,,,,,,,,,,,
,,,,,,,,,,,,,,,,,,21,2022-02-12_12h18.04.936,lexical_decision_task_DD_L4,2021.2.3,MacIntel,62.5,,,,,,,,,,,0.633,1,,,,,,,,,,,,,,z,1,0.633,,,,,,,,0.377777778,-0.236666667,0,0,0,,0,112,112,140,1,DOVET,LB,old,z,./images/DOVETLB.png,,,,,,,,,,,,,,,,,,,,,,,,,,,,,,,,,,,
,,,,,,,,,,,,,,,,,,21,2022-02-12_12h18.04.936,lexical_decision_task_DD_L4,2021.2.3,MacIntel,62.5,,,,,,,,,,,0.586,1,,,,,,,,,,,,,,m,1,0.586,,,,,,,,0.377777778,-0.236666667,0,0,0,,0,113,113,63,1,BAKER,C,old,m,./images/BAKER.png,,,,,,,,,,,,,,,,,,,,,,,,,,,,,,,,,,,
,,,,,,,,,,,,,,,,,,21,2022-02-12_12h18.04.936,lexical_decision_task_DD_L4,2021.2.3,MacIntel,62.5,,,,,,,,,,,0.586,1,,,,,,,,,,,,,,z,1,0.586,,,,,,,,0.377777778,-0.236666667,0,0,0,,0,114,114,95,1,HANTY,LB,old,z,./images/HANTYLB.png,,,,,,,,,,,,,,,,,,,,,,,,,,,,,,,,,,,
,,,,,,,,,,,,,,,,,,21,2022-02-12_12h18.04.936,lexical_decision_task_DD_L4,2021.2.3,MacIntel,62.5,,,,,,,,,,,0.534,1,,,,,,,,,,,,,,m,1,0.534,,,,,,,,0.377777778,-0.236666667,0,0,0,,0,115,115,44,1,BASKET,LB,old,m,./images/BASKETLB.png,,,,,,,,,,,,,,,,,,,,,,,,,,,,,,,,,,,
,,,,,,,,,,,,,,,,,,21,2022-02-12_12h18.04.936,lexical_decision_task_DD_L4,2021.2.3,MacIntel,62.5,,,,,,,,,,,0.583,1,,,,,,,,,,,,,,m,1,0.583,,,,,,,,0.377777778,-0.236666667,0,0,0,,0,116,116,60,1,CURRY,C,old,m,./images/CURRY.png,,,,,,,,,,,,,,,,,,,,,,,,,,,,,,,,,,,
,,,,,,,,,,,,,,,,,,21,2022-02-12_12h18.04.936,lexical_decision_task_DD_L4,2021.2.3,MacIntel,62.5,,,,,,,,,,,0.537,1,,,,,,,,,,,,,,m,1,0.537,,,,,,,,0.377777778,-0.236666667,0,0,0,,0,117,117,75,1,HAMMER,C,old,m,./images/HAMMER.png,,,,,,,,,,,,,,,,,,,,,,,,,,,,,,,,,,,
,,,,,,,,,,,,,,,,,,21,2022-02-12_12h18.04.936,lexical_decision_task_DD_L4,2021.2.3,MacIntel,62.5,,,,,,,,,,,0.667,1,,,,,,,,,,,,,,z,1,0.667,,,,,,,,0.377777778,-0.236666667,0,0,0,,0,118,118,112,1,MYING,HB,old,z,./images/MYINGHB.png,,,,,,,,,,,,,,,,,,,,,,,,,,,,,,,,,,,
,,,,,,,,,,,,,,,,,,21,2022-02-12_12h18.04.936,lexical_decision_task_DD_L4,2021.2.3,MacIntel,62.5,,,,,,,,,,,0.551,1,,,,,,,,,,,,,,m,1,0.551,,,,,,,,0.377777778,-0.236666667,0,0,0,,0,119,119,62,1,MAMMAL,LB,old,m,./images/MAMMALLB.png,,,,,,,,,,,,,,,,,,,,,,,,,,,,,,,,,,,
,,,,,,,,,,,,,,,,,,21,2022-02-12_12h18.04.936,lexical_decision_task_DD_L4,2021.2.3,MacIntel,62.5,,,,,,,,,,,0.5,1,,,,,,,,,,,,,,z,1,0.5,,,,,,,,0.377777778,-0.236666667,0,0,0,,0,120,120,113,1,LINEW,LB,old,z,./images/LINEWLB.png,,,,,,,,,,,,,,,,,,,,,,,,,,,,,,,,,,,
,,,,,,,,,,,,,,,,,,21,2022-02-12_12h18.04.936,lexical_decision_task_DD_L4,2021.2.3,MacIntel,62.5,,,,,,,,,,,0.9,1,,,,,,,,,,,,,,m,1,0.9,,,,,,,,0.377777778,-0.236666667,0,0,0,,0,121,121,25,1,CHALK,HB,old,m,./images/CHALKHB.png,,,,,,,,,,,,,,,,,,,,,,,,,,,,,,,,,,,
,,,,,,,,,,,,,,,,,,21,2022-02-12_12h18.04.936,lexical_decision_task_DD_L4,2021.2.3,MacIntel,62.5,,,,,,,,,,,0.633,1,,,,,,,,,,,,,,m,1,0.633,,,,,,,,0.377777778,-0.236666667,0,0,0,,0,122,122,43,1,STOOL,HB,old,m,./images/STOOLHB.png,,,,,,,,,,,,,,,,,,,,,,,,,,,,,,,,,,,
,,,,,,,,,,,,,,,,,,21,2022-02-12_12h18.04.936,lexical_decision_task_DD_L4,2021.2.3,MacIntel,62.5,,,,,,,,,,,0.818,1,,,,,,,,,,,,,,z,1,0.818,,,,,,,,0.377777778,-0.236666667,0,0,0,,0,123,123,111,1,HOSSE,C,old,z,./images/HOSSE.png,,,,,,,,,,,,,,,,,,,,,,,,,,,,,,,,,,,
,,,,,,,,,,,,,,,,,,21,2022-02-12_12h18.04.936,lexical_decision_task_DD_L4,2021.2.3,MacIntel,62.5,,,,,,,,,,,0.617,1,,,,,,,,,,,,,,m,1,0.617,,,,,,,,0.377777778,-0.236666667,0,0,0,,0,124,124,34,1,RAZOR,HB,old,m,./images/RAZORHB.png,,,,,,,,,,,,,,,,,,,,,,,,,,,,,,,,,,,
,,,,,,,,,,,,,,,,,,21,2022-02-12_12h18.04.936,lexical_decision_task_DD_L4,2021.2.3,MacIntel,62.5,,,,,,,,,,,0.521,1,,,,,,,,,,,,,,m,1,0.521,,,,,,,,0.377777778,-0.236666667,0,0,0,space,0,125,125,15,1,COLLAR,C,old,m,./images/COLLAR.png,5.55,,,,,,,,,,,,,,,,,,,,,,,,,,,,,,,,,,
,,,,,,,,,,,,,,,,,,21,2022-02-12_12h18.04.936,lexical_decision_task_DD_L4,2021.2.3,MacIntel,62.5,,,,,,,,,,,0.551,0,,,,,,,,,,,,,,m,0,0.551,,,,,,,,0.377777778,-0.236666667,0,0,0,,0,126,126,128,1,GRIFT,LB,old,z,./images/GRIFTLB.png,,,,,,,,,,,,,,,,,,,,,,,,,,,,,,,,,,,
,,,,,,,,,,,,,,,,,,21,2022-02-12_12h18.04.936,lexical_decision_task_DD_L4,2021.2.3,MacIntel,62.5,,,,,,,,,,,0.884,1,,,,,,,,,,,,,,m,1,0.884,,,,,,,,0.377777778,-0.236666667,0,0,0,,0,127,127,46,1,MUMMY,HB,old,m,./images/MUMMYHB.png,,,,,,,,,,,,,,,,,,,,,,,,,,,,,,,,,,,
,,,,,,,,,,,,,,,,,,21,2022-02-12_12h18.04.936,lexical_decision_task_DD_L4,2021.2.3,MacIntel,62.5,,,,,,,,,,,0.634,1,,,,,,,,,,,,,,z,1,0.634,,,,,,,,0.377777778,-0.236666667,0,0,0,,0,128,128,104,1,GITTY,LB,old,z,./images/GITTYLB.png,,,,,,,,,,,,,,,,,,,,,,,,,,,,,,,,,,,
,,,,,,,,,,,,,,,,,,21,2022-02-12_12h18.04.936,lexical_decision_task_DD_L4,2021.2.3,MacIntel,62.5,,,,,,,,,,,0.734,1,,,,,,,,,,,,,,z,1,0.734,,,,,,,,0.377777778,-0.236666667,0,0,0,,0,129,129,103,1,FLORT,HB,old,z,./images/FLORTHB.png,,,,,,,,,,,,,,,,,,,,,,,,,,,,,,,,,,,
,,,,,,,,,,,,,,,,,,21,2022-02-12_12h18.04.936,lexical_decision_task_DD_L4,2021.2.3,MacIntel,62.5,,,,,,,,,,,0.633,0,,,,,,,,,,,,,,m,0,0.633,,,,,,,,0.377777778,-0.236666667,0,0,0,,0,130,130,159,1,CUDDY,C,old,z,./images/CUDDY.png,,,,,,,,,,,,,,,,,,,,,,,,,,,,,,,,,,,
,,,,,,,,,,,,,,,,,,21,2022-02-12_12h18.04.936,lexical_decision_task_DD_L4,2021.2.3,MacIntel,62.5,,,,,,,,,,,0.867,1,,,,,,,,,,,,,,z,1,0.867,,,,,,,,0.377777778,-0.236666667,0,0,0,,0,131,131,122,1,BLOOT,LB,old,z,./images/BLOOTLB.png,,,,,,,,,,,,,,,,,,,,,,,,,,,,,,,,,,,
,,,,,,,,,,,,,,,,,,21,2022-02-12_12h18.04.936,lexical_decision_task_DD_L4,2021.2.3,MacIntel,62.5,,,,,,,,,,,0.567,1,,,,,,,,,,,,,,m,1,0.567,,,,,,,,0.377777778,-0.236666667,0,0,0,,0,132,132,23,1,CLOTH,LB,old,m,./images/CLOTHLB.png,,,,,,,,,,,,,,,,,,,,,,,,,,,,,,,,,,,
,,,,,,,,,,,,,,,,,,21,2022-02-12_12h18.04.936,lexical_decision_task_DD_L4,2021.2.3,MacIntel,62.5,,,,,,,,,,,0.786,1,,,,,,,,,,,,,,z,1,0.786,,,,,,,,0.377777778,-0.236666667,0,0,0,,0,133,133,129,1,PRANS,C,old,z,./images/PRANS.png,,,,,,,,,,,,,,,,,,,,,,,,,,,,,,,,,,,
,,,,,,,,,,,,,,,,,,21,2022-02-12_12h18.04.936,lexical_decision_task_DD_L4,2021.2.3,MacIntel,62.5,,,,,,,,,,,0.718,1,,,,,,,,,,,,,,m,1,0.718,,,,,,,,0.377777778,-0.236666667,0,0,0,,0,134,134,19,1,DONKEY,HB,old,m,./images/DONKEYHB.png,,,,,,,,,,,,,,,,,,,,,,,,,,,,,,,,,,,
,,,,,,,,,,,,,,,,,,21,2022-02-12_12h18.04.936,lexical_decision_task_DD_L4,2021.2.3,MacIntel,62.5,,,,,,,,,,,0.818,0,,,,,,,,,,,,,,m,0,0.818,,,,,,,,0.377777778,-0.236666667,0,0,0,,0,135,135,148,1,JOMS,HB,old,z,./images/JOMSHB.png,,,,,,,,,,,,,,,,,,,,,,,,,,,,,,,,,,,
,,,,,,,,,,,,,,,,,,21,2022-02-12_12h18.04.936,lexical_decision_task_DD_L4,2021.2.3,MacIntel,62.5,,,,,,,,,,,0.684,1,,,,,,,,,,,,,,z,1,0.684,,,,,,,,0.377777778,-0.236666667,0,0,0,,0,136,136,132,1,SCIFF,C,old,z,./images/SCIFF.png,,,,,,,,,,,,,,,,,,,,,,,,,,,,,,,,,,,
,,,,,,,,,,,,,,,,,,21,2022-02-12_12h18.04.936,lexical_decision_task_DD_L4,2021.2.3,MacIntel,62.5,,,,,,,,,,,0.9,1,,,,,,,,,,,,,,m,1,0.9,,,,,,,,0.377777778,-0.236666667,0,0,0,,0,137,137,24,1,FLESH,C,old,m,./images/FLESH.png,,,,,,,,,,,,,,,,,,,,,,,,,,,,,,,,,,,
,,,,,,,,,,,,,,,,,,21,2022-02-12_12h18.04.936,lexical_decision_task_DD_L4,2021.2.3,MacIntel,62.5,,,,,,,,,,,0.586,1,,,,,,,,,,,,,,m,1,0.586,,,,,,,,0.377777778,-0.236666667,0,0,0,,0,138,138,5,1,BAMBOO,LB,old,m,./images/BAMBOOLB.png,,,,,,,,,,,,,,,,,,,,,,,,,,,,,,,,,,,
,,,,,,,,,,,,,,,,,,21,2022-02-12_12h18.04.936,lexical_decision_task_DD_L4,2021.2.3,MacIntel,62.5,,,,,,,,,,,1.133,0,,,,,,,,,,,,,,m,0,1.133,,,,,,,,0.377777778,-0.236666667,0,0,0,,0,139,139,139,1,BLEAR,HB,old,z,./images/BLEARHB.png,,,,,,,,,,,,,,,,,,,,,,,,,,,,,,,,,,,
,,,,,,,,,,,,,,,,,,21,2022-02-12_12h18.04.936,lexical_decision_task_DD_L4,2021.2.3,MacIntel,62.5,,,,,,,,,,,0.501,1,,,,,,,,,,,,,,z,1,0.501,,,,,,,,0.377777778,-0.236666667,0,0,0,,0,140,140,84,1,HAXES,C,old,z,./images/HAXES.png,,,,,,,,,,,,,,,,,,,,,,,,,,,,,,,,,,,
,,,,,,,,,,,,,,,,,,21,2022-02-12_12h18.04.936,lexical_decision_task_DD_L4,2021.2.3,MacIntel,62.5,,,,,,,,,,,0.701,1,,,,,,,,,,,,,,m,1,0.701,,,,,,,,0.377777778,-0.236666667,0,0,0,,0,141,141,72,1,FLASK,C,old,m,./images/FLASK.png,,,,,,,,,,,,,,,,,,,,,,,,,,,,,,,,,,,
,,,,,,,,,,,,,,,,,,21,2022-02-12_12h18.04.936,lexical_decision_task_DD_L4,2021.2.3,MacIntel,62.5,,,,,,,,,,,0.517,1,,,,,,,,,,,,,,m,1,0.517,,,,,,,,0.377777778,-0.236666667,0,0,0,,0,142,142,83,1,WHISKY,LB,old,m,./images/WHISKYLB.png,,,,,,,,,,,,,,,,,,,,,,,,,,,,,,,,,,,
,,,,,,,,,,,,,,,,,,21,2022-02-12_12h18.04.936,lexical_decision_task_DD_L4,2021.2.3,MacIntel,62.5,,,,,,,,,,,0.833,1,,,,,,,,,,,,,,m,1,0.833,,,,,,,,0.377777778,-0.236666667,0,0,0,,0,143,143,61,1,ARTIST,HB,old,m,./images/ARTISTHB.png,,,,,,,,,,,,,,,,,,,,,,,,,,,,,,,,,,,
,,,,,,,,,,,,,,,,,,21,2022-02-12_12h18.04.936,lexical_decision_task_DD_L4,2021.2.3,MacIntel,62.5,,,,,,,,,,,0.567,1,,,,,,,,,,,,,,z,1,0.567,,,,,,,,0.377777778,-0.236666667,0,0,0,,0,144,144,149,1,VEASE,LB,old,z,./images/VEASELB.png,,,,,,,,,,,,,,,,,,,,,,,,,,,,,,,,,,,
,,,,,,,,,,,,,,,,,,21,2022-02-12_12h18.04.936,lexical_decision_task_DD_L4,2021.2.3,MacIntel,62.5,,,,,,,,,,,0.734,1,,,,,,,,,,,,,,z,1,0.734,,,,,,,,0.377777778,-0.236666667,0,0,0,,0,145,145,97,1,CHIDS,HB,old,z,./images/CHIDSHB.png,,,,,,,,,,,,,,,,,,,,,,,,,,,,,,,,,,,
,,,,,,,,,,,,,,,,,,21,2022-02-12_12h18.04.936,lexical_decision_task_DD_L4,2021.2.3,MacIntel,62.5,,,,,,,,,,,0.717,0,,,,,,,,,,,,,,z,0,0.717,,,,,,,,0.377777778,-0.236666667,0,0,0,,0,146,146,52,1,DESERT,HB,old,m,./images/DESERTHB.png,,,,,,,,,,,,,,,,,,,,,,,,,,,,,,,,,,,
,,,,,,,,,,,,,,,,,,21,2022-02-12_12h18.04.936,lexical_decision_task_DD_L4,2021.2.3,MacIntel,62.5,,,,,,,,,,,0.851,1,,,,,,,,,,,,,,z,1,0.851,,,,,,,,0.377777778,-0.236666667,0,0,0,,0,147,147,145,1,LAMEL,HB,old,z,./images/LAMELHB.png,,,,,,,,,,,,,,,,,,,,,,,,,,,,,,,,,,,
,,,,,,,,,,,,,,,,,,21,2022-02-12_12h18.04.936,lexical_decision_task_DD_L4,2021.2.3,MacIntel,62.5,,,,,,,,,,,0.884,1,,,,,,,,,,,,,,m,1,0.884,,,,,,,,0.377777778,-0.236666667,0,0,0,,0,148,148,64,1,BRIDE,HB,old,m,./images/BRIDEHB.png,,,,,,,,,,,,,,,,,,,,,,,,,,,,,,,,,,,
,,,,,,,,,,,,,,,,,,21,2022-02-12_12h18.04.936,lexical_decision_task_DD_L4,2021.2.3,MacIntel,62.5,,,,,,,,,,,0.485,1,,,,,,,,,,,,,,m,1,0.485,,,,,,,,0.377777778,-0.236666667,0,0,0,,0,149,149,0,1,WALNUT,C,old,m,./images/WALNUT.png,,,,,,,,,,,,,,,,,,,,,,,,,,,,,,,,,,,
,,,,,,,,,,,,,,,,,,21,2022-02-12_12h18.04.936,lexical_decision_task_DD_L4,2021.2.3,MacIntel,62.5,,,,,,,,,,,0.7,0,,,,,,,,,,,,,,m,0,0.7,,,,,,,,0.377777778,-0.236666667,0,0,0,,0,150,150,94,1,BLANS,HB,old,z,./images/BLANSHB.png,,,,,,,,,,,,,,,,,,,,,,,,,,,,,,,,,,,
,,,,,,,,,,,,,,,,,,21,2022-02-12_12h18.04.936,lexical_decision_task_DD_L4,2021.2.3,MacIntel,62.5,,,,,,,,,,,0.667,1,,,,,,,,,,,,,,z,1,0.667,,,,,,,,0.377777778,-0.236666667,0,0,0,,0,151,151,141,1,PLEET,C,old,z,./images/PLEET.png,,,,,,,,,,,,,,,,,,,,,,,,,,,,,,,,,,,
,,,,,,,,,,,,,,,,,,21,2022-02-12_12h18.04.936,lexical_decision_task_DD_L4,2021.2.3,MacIntel,62.5,,,,,,,,,,,0.651,1,,,,,,,,,,,,,,m,1,0.651,,,,,,,,0.377777778,-0.236666667,0,0,0,,0,152,152,14,1,FENCE,LB,old,m,./images/FENCELB.png,,,,,,,,,,,,,,,,,,,,,,,,,,,,,,,,,,,
,,,,,,,,,,,,,,,,,,21,2022-02-12_12h18.04.936,lexical_decision_task_DD_L4,2021.2.3,MacIntel,62.5,,,,,,,,,,,0.934,0,,,,,,,,,,,,,,m,0,0.934,,,,,,,,0.377777778,-0.236666667,0,0,0,,0,153,153,154,1,THINT,HB,old,z,./images/THINTHB.png,,,,,,,,,,,,,,,,,,,,,,,,,,,,,,,,,,,
,,,,,,,,,,,,,,,,,,21,2022-02-12_12h18.04.936,lexical_decision_task_DD_L4,2021.2.3,MacIntel,62.5,,,,,,,,,,,0.684,1,,,,,,,,,,,,,,m,1,0.684,,,,,,,,0.377777778,-0.236666667,0,0,0,,0,154,154,7,1,WAGON,HB,old,m,./images/WAGONHB.png,,,,,,,,,,,,,,,,,,,,,,,,,,,,,,,,,,,
,,,,,,,,,,,,,,,,,,21,2022-02-12_12h18.04.936,lexical_decision_task_DD_L4,2021.2.3,MacIntel,62.5,,,,,,,,,,,0.75,1,,,,,,,,,,,,,,z,1,0.75,,,,,,,,0.377777778,-0.236666667,0,0,0,,0,155,155,167,1,ZONET,LB,old,z,./images/ZONETLB.png,,,,,,,,,,,,,,,,,,,,,,,,,,,,,,,,,,,
,,,,,,,,,,,,,,,,,,21,2022-02-12_12h18.04.936,lexical_decision_task_DD_L4,2021.2.3,MacIntel,62.5,,,,,,,,,,,0.669,1,,,,,,,,,,,,,,z,1,0.669,,,,,,,,0.377777778,-0.236666667,0,0,0,,0,156,156,99,1,BACKY,C,old,z,./images/BACKY.png,,,,,,,,,,,,,,,,,,,,,,,,,,,,,,,,,,,
,,,,,,,,,,,,,,,,,,21,2022-02-12_12h18.04.936,lexical_decision_task_DD_L4,2021.2.3,MacIntel,62.5,,,,,,,,,,,0.754,1,,,,,,,,,,,,,,z,1,0.754,,,,,,,,0.377777778,-0.236666667,0,0,0,,0,157,157,118,1,BAVEL,HB,old,z,./images/BAVELHB.png,,,,,,,,,,,,,,,,,,,,,,,,,,,,,,,,,,,
,,,,,,,,,,,,,,,,,,21,2022-02-12_12h18.04.936,lexical_decision_task_DD_L4,2021.2.3,MacIntel,62.5,,,,,,,,,,,0.8,1,,,,,,,,,,,,,,z,1,0.8,,,,,,,,0.377777778,-0.236666667,0,0,0,,0,158,158,114,1,RIKES,C,old,z,./images/RIKES.png,,,,,,,,,,,,,,,,,,,,,,,,,,,,,,,,,,,
,,,,,,,,,,,,,,,,,,21,2022-02-12_12h18.04.936,lexical_decision_task_DD_L4,2021.2.3,MacIntel,62.5,,,,,,,,,,,0.501,1,,,,,,,,,,,,,,z,1,0.501,,,,,,,,0.377777778,-0.236666667,0,0,0,,0,159,159,117,1,STEEG,C,old,z,./images/STEEG.png,,,,,,,,,,,,,,,,,,,,,,,,,,,,,,,,,,,
,,,,,,,,,,,,,,,,,,21,2022-02-12_12h18.04.936,lexical_decision_task_DD_L4,2021.2.3,MacIntel,62.5,,,,,,,,,,,0.967,1,,,,,,,,,,,,,,z,1,0.967,,,,,,,,0.377777778,-0.236666667,0,0,0,,0,160,160,165,1,TROWN,C,old,z,./images/TROWN.png,,,,,,,,,,,,,,,,,,,,,,,,,,,,,,,,,,,
,,,,,,,,,,,,,,,,,,21,2022-02-12_12h18.04.936,lexical_decision_task_DD_L4,2021.2.3,MacIntel,62.5,,,,,,,,,,,0.567,1,,,,,,,,,,,,,,z,1,0.567,,,,,,,,0.377777778,-0.236666667,0,0,0,,0,161,161,164,1,SGREW,LB,old,z,./images/SGREWLB.png,,,,,,,,,,,,,,,,,,,,,,,,,,,,,,,,,,,
,,,,,,,,,,,,,,,,,,21,2022-02-12_12h18.04.936,lexical_decision_task_DD_L4,2021.2.3,MacIntel,62.5,,,,,,,,,,,0.601,0,,,,,,,,,,,,,,z,0,0.601,,,,,,,,0.377777778,-0.236666667,0,0,0,,0,162,162,18,1,PARCEL,C,old,m,./images/PARCEL.png,,,,,,,,,,,,,,,,,,,,,,,,,,,,,,,,,,,
,,,,,,,,,,,,,,,,,,21,2022-02-12_12h18.04.936,lexical_decision_task_DD_L4,2021.2.3,MacIntel,62.5,,,,,,,,,,,0.451,1,,,,,,,,,,,,,,m,1,0.451,,,,,,,,0.377777778,-0.236666667,0,0,0,,0,163,163,42,1,CHAIN,C,old,m,./images/CHAIN.png,,,,,,,,,,,,,,,,,,,,,,,,,,,,,,,,,,,
,,,,,,,,,,,,,,,,,,21,2022-02-12_12h18.04.936,lexical_decision_task_DD_L4,2021.2.3,MacIntel,62.5,,,,,,,,,,,0.717,1,,,,,,,,,,,,,,m,1,0.717,,,,,,,,0.377777778,-0.236666667,0,0,0,,0,164,164,66,1,STATUE,C,old,m,./images/STATUE.png,,,,,,,,,,,,,,,,,,,,,,,,,,,,,,,,,,,
,,,,,,,,,,,,,,,,,,21,2022-02-12_12h18.04.936,lexical_decision_task_DD_L4,2021.2.3,MacIntel,62.5,,,,,,,,,,,0.767,1,,,,,,,,,,,,,,m,1,0.767,,,,,,,,0.377777778,-0.236666667,0,0,0,,0,165,165,36,1,BOILER,C,old,m,./images/BOILER.png,,,,,,,,,,,,,,,,,,,,,,,,,,,,,,,,,,,
,,,,,,,,,,,,,,,,,,21,2022-02-12_12h18.04.936,lexical_decision_task_DD_L4,2021.2.3,MacIntel,62.5,,,,,,,,,,,0.633,1,,,,,,,,,,,,,,z,1,0.633,,,,,,,,0.377777778,-0.236666667,0,0,0,,0,166,166,134,1,TROSS,LB,old,z,./images/TROSSLB.png,,,,,,,,,,,,,,,,,,,,,,,,,,,,,,,,,,,
,,,,,,,,,,,,,,,,,,21,2022-02-12_12h18.04.936,lexical_decision_task_DD_L4,2021.2.3,MacIntel,62.5,,,,,,,,,,,0.6,1,,,,,,,,,,,,,,m,1,0.6,,,,,,,,0.377777778,-0.236666667,0,0,0,,0,167,167,22,1,CLOWN,HB,old,m,./images/CLOWNHB.png,,,,,,,,,,,,,,,,,,,,,,,,,,,,,,,,,,,
,,,,,,,,,,,,,,,,,,21,2022-02-12_12h18.04.936,lexical_decision_task_DD_L4,2021.2.3,MacIntel,62.5,,,,,,,,,,,,,,,,,,,,,,,,,,,,,,,,,,,,,,,,,,,,,,,,How likely will it be that you will recognize the words presented clearly on a scale of 0 (not likely) to 100 (most likely)?,,,,,0.01,-0.396666667,1,0,0,jol_adv,6,6.569,0,0,0,0,1,,,,,,,,,,,,,,,,,,,,,
,,,,,,,,,,,,,,,,,,21,2022-02-12_12h18.04.936,lexical_decision_task_DD_L4,2021.2.3,MacIntel,62.5,,,,,,,,,,,,,,,,,,,,,,,,,,,,,,,,,,,,,,,,,,,,,,,,How likely will it be that you will recognize the words presented slighly blurred on a scale of 0 (not likely) to 100 (most likely)?,,,,,,,,,,,4,6.677,0,1,1,1,1,,,,,,,,,,,,,,,,,,,,,
,,,,,,,,,,,,,,,,,,21,2022-02-12_12h18.04.936,lexical_decision_task_DD_L4,2021.2.3,MacIntel,62.5,,,,,,,,,,,,,,,,,,,,,,,,,,,,,,,,,,,,,,,,,,,,,,,,How likely will it be that you will recognize the words presented very blurred on a scale of 0 (not likely) to 100 (most likely)?,,,,,,,,,,,3,6.276,0,2,2,2,1,,,,,,,,,,,,,,,,,,,,,
space,16.95,0.075555556,-0.226666667,0,0,0,,,,,,1,test,"In the next phase you will be presented with the words from the the first phase. Your job is to decide whether you remember seeing the word or not. If you remember seeing the word press ""old"" or type ""m"". If you do not remember seeing the word press ""new"" or type ""z"". Please press the space bar or click on continue to begin. ",,,,21,2022-02-12_12h18.04.936,lexical_decision_task_DD_L4,2021.2.3,MacIntel,62.5,,,,,,,,,,,,,,,,,,,,,,,,,,,,,,,,,,,,,,,,,,,,,,,,,,,,,,,,,,,,,,,,,,0,0,0,0,1,,,,,,,,,,,,,,,,
,,0.072222222,-0.402222222,1,0,0,,,,,,1,test,"In the next phase you will be presented with the words from the the first phase. Your job is to decide whether you remember seeing the word or not. If you remember seeing the word press ""old"" or type ""m"". If you do not remember seeing the word press ""new"" or type ""z"". Please press the space bar or click on continue to begin. ",,,,21,2022-02-12_12h18.04.936,lexical_decision_task_DD_L4,2021.2.3,MacIntel,62.5,,,,,,,,,,,,,,,,,,,,,,,,,,,,,,,,,,,,,,,,,,,,,,,,,,,,,,,,,,,,,,,,,,1,0,1,0,1,instr_done_button,,,,,,,,,,,,,,,
space,5.15,0.163333333,-0.112222222,0,0,0,,,,,,1,test,"In the next phase you will be presented with the words from the the first phase. Your job is to decide whether you remember seeing the word or not. If you remember seeing the word press ""old"" or type ""m"". If you do not remember seeing the word press ""new"" or type ""z"". Please press the space bar or click on continue to begin. ",,,,21,2022-02-12_12h18.04.936,lexical_decision_task_DD_L4,2021.2.3,MacIntel,62.5,,,,,,,,,,,,,,,,,,,,,,,,,,,,,,,,,,,,,,,,,,,,,,,,,,,,,,,,,,,,,,,,,,2,0,2,0,1,,,,,,,,,,,,,,,,
,,-0.035555556,-0.416666667,1,0,0,,,,,,1,test,"In the next phase you will be presented with the words from the the first phase. Your job is to decide whether you remember seeing the word or not. If you remember seeing the word press ""old"" or type ""m"". If you do not remember seeing the word press ""new"" or type ""z"". Please press the space bar or click on continue to begin. ",,,,21,2022-02-12_12h18.04.936,lexical_decision_task_DD_L4,2021.2.3,MacIntel,62.5,,,,,,,,,,,,,,,,,,,,,,,,,,,,,,,,,,,,,,,,,,,,,,,,,,,,,,,,,,,,,,,,,,3,0,3,0,1,instr_done_button,,,,,,,,,,,,,,,
space,1.454,0.093333333,-0.145555556,0,0,0,,,,,,1,test,"In the next phase you will be presented with the words from the the first phase. Your job is to decide whether you remember seeing the word or not. If you remember seeing the word press ""old"" or type ""m"". If you do not remember seeing the word press ""new"" or type ""z"". Please press the space bar or click on continue to begin. ",,,,21,2022-02-12_12h18.04.936,lexical_decision_task_DD_L4,2021.2.3,MacIntel,62.5,,,,,,,,,,,,,,,,,,,,,,,,,,,,,,,,,,,,,,,,,,,,,,,,,,,,,,,,,,,,,,,,,,4,0,4,0,1,,,,,,,,,,,,,,,,
,,,,,,,,,,,,,,,,,,21,2022-02-12_12h18.04.936,lexical_decision_task_DD_L4,2021.2.3,MacIntel,62.5,,,,,,,,,,,1.508,1,,,,,,,,,,,,,,,,,,,,,,,,0.093333333,-0.145555556,0,0,0,,,,,,,BURIAL,LB,z,y,./images/BURIALLB.png,,,,,,,,,,,,,,,,,,,,,z,1,1.508,,,,,,,,0,0,0,143,1
,,,,,,,,,,,,,,,,,,21,2022-02-12_12h18.04.936,lexical_decision_task_DD_L4,2021.2.3,MacIntel,62.5,,,,,,,,,,,1.498,1,,,,,,,,,,,,,,,,,,,,,,,,0.093333333,-0.145555556,0,0,0,,,,,,,TORCH,LB,z,y,./images/TORCHLB.png,,,,,,,,,,,,,,,,,,,,,z,1,1.498,,,,,,,,0,1,1,152,1
,,,,,,,,,,,,,,,,,,21,2022-02-12_12h18.04.936,lexical_decision_task_DD_L4,2021.2.3,MacIntel,62.5,,,,,,,,,,,1.083,0,,,,,,,,,,,,,,,,,,,,,,,,0.093333333,-0.145555556,0,0,0,,,,,,,MUFFIN,HB,z,y,./images/MUFFINHB.png,,,,,,,,,,,,,,,,,,,,,m,0,1.083,,,,,,,,0,2,2,139,1
,,,,,,,,,,,,,,,,,,21,2022-02-12_12h18.04.936,lexical_decision_task_DD_L4,2021.2.3,MacIntel,62.5,,,,,,,,,,,1.198,1,,,,,,,,,,,,,,,,,,,,,,,,0.093333333,-0.145555556,0,0,0,,,,,,,LITTER,C,z,y,./images/LITTER.png,,,,,,,,,,,,,,,,,,,,,z,1,1.198,,,,,,,,0,3,3,162,1
,,,,,,,,,,,,,,,,,,21,2022-02-12_12h18.04.936,lexical_decision_task_DD_L4,2021.2.3,MacIntel,62.5,,,,,,,,,,,1.131,0,,,,,,,,,,,,,,,,,,,,,,,,0.093333333,-0.145555556,0,0,0,,,,,,,MUSCLE,HB,z,y,./images/MUSCLEHB.png,,,,,,,,,,,,,,,,,,,,,m,0,1.131,,,,,,,,0,4,4,88,1
,,,,,,,,,,,,,,,,,,21,2022-02-12_12h18.04.936,lexical_decision_task_DD_L4,2021.2.3,MacIntel,62.5,,,,,,,,,,,1.082,1,,,,,,,,,,,,,,,,,,,,,,,,0.093333333,-0.145555556,0,0,0,,,,,,,CLOWN,HB,m,y,./images/CLOWNHB.png,,,,,,,,,,,,,,,,,,,,,m,1,1.082,,,,,,,,0,5,5,22,1
,,,,,,,,,,,,,,,,,,21,2022-02-12_12h18.04.936,lexical_decision_task_DD_L4,2021.2.3,MacIntel,62.5,,,,,,,,,,,0.83,1,,,,,,,,,,,,,,,,,,,,,,,,0.093333333,-0.145555556,0,0,0,,,,,,,BANNER,HB,z,y,./images/BANNERHB.png,,,,,,,,,,,,,,,,,,,,,z,1,0.83,,,,,,,,0,6,6,136,1
,,,,,,,,,,,,,,,,,,21,2022-02-12_12h18.04.936,lexical_decision_task_DD_L4,2021.2.3,MacIntel,62.5,,,,,,,,,,,0.771,1,,,,,,,,,,,,,,,,,,,,,,,,0.093333333,-0.145555556,0,0,0,,,,,,,LLAMA,LB,m,y,./images/LLAMALB.png,,,,,,,,,,,,,,,,,,,,,m,1,0.771,,,,,,,,0,7,7,35,1
,,,,,,,,,,,,,,,,,,21,2022-02-12_12h18.04.936,lexical_decision_task_DD_L4,2021.2.3,MacIntel,62.5,,,,,,,,,,,0.848,1,,,,,,,,,,,,,,,,,,,,,,,,0.093333333,-0.145555556,0,0,0,,,,,,,SKIING,LB,z,y,./images/SKIINGLB.png,,,,,,,,,,,,,,,,,,,,,z,1,0.848,,,,,,,,0,8,8,101,1
,,,,,,,,,,,,,,,,,,21,2022-02-12_12h18.04.936,lexical_decision_task_DD_L4,2021.2.3,MacIntel,62.5,,,,,,,,,,,1.013,0,,,,,,,,,,,,,,,,,,,,,,,,0.093333333,-0.145555556,0,0,0,,,,,,,SPORT,C,z,y,./images/SPORT.png,,,,,,,,,,,,,,,,,,,,,m,0,1.013,,,,,,,,0,9,9,132,1
,,,,,,,,,,,,,,,,,,21,2022-02-12_12h18.04.936,lexical_decision_task_DD_L4,2021.2.3,MacIntel,62.5,,,,,,,,,,,0.632,1,,,,,,,,,,,,,,,,,,,,,,,,0.093333333,-0.145555556,0,0,0,,,,,,,BISHOP,HB,m,y,./images/BISHOPHB.png,,,,,,,,,,,,,,,,,,,,,m,1,0.632,,,,,,,,0,10,10,49,1
,,,,,,,,,,,,,,,,,,21,2022-02-12_12h18.04.936,lexical_decision_task_DD_L4,2021.2.3,MacIntel,62.5,,,,,,,,,,,0.581,1,,,,,,,,,,,,,,,,,,,,,,,,0.093333333,-0.145555556,0,0,0,,,,,,,BANANA,HB,m,y,./images/BANANAHB.png,,,,,,,,,,,,,,,,,,,,,m,1,0.581,,,,,,,,0,11,11,70,1
,,,,,,,,,,,,,,,,,,21,2022-02-12_12h18.04.936,lexical_decision_task_DD_L4,2021.2.3,MacIntel,62.5,,,,,,,,,,,0.598,1,,,,,,,,,,,,,,,,,,,,,,,,0.093333333,-0.145555556,0,0,0,,,,,,,RULER,HB,m,y,./images/RULERHB.png,,,,,,,,,,,,,,,,,,,,,m,1,0.598,,,,,,,,0,12,12,79,1
,,,,,,,,,,,,,,,,,,21,2022-02-12_12h18.04.936,lexical_decision_task_DD_L4,2021.2.3,MacIntel,62.5,,,,,,,,,,,0.565,0,,,,,,,,,,,,,,,,,,,,,,,,0.093333333,-0.145555556,0,0,0,,,,,,,SNACK,HB,z,y,./images/SNACKHB.png,,,,,,,,,,,,,,,,,,,,,m,0,0.565,,,,,,,,0,13,13,157,1
,,,,,,,,,,,,,,,,,,21,2022-02-12_12h18.04.936,lexical_decision_task_DD_L4,2021.2.3,MacIntel,62.5,,,,,,,,,,,0.547,0,,,,,,,,,,,,,,,,,,,,,,,,0.093333333,-0.145555556,0,0,0,,,,,,,CRATER,C,m,y,./images/CRATER.png,,,,,,,,,,,,,,,,,,,,,z,0,0.547,,,,,,,,0,14,14,3,1
,,,,,,,,,,,,,,,,,,21,2022-02-12_12h18.04.936,lexical_decision_task_DD_L4,2021.2.3,MacIntel,62.5,,,,,,,,,,,0.665,1,,,,,,,,,,,,,,,,,,,,,,,,0.093333333,-0.145555556,0,0,0,,,,,,,PARCEL,C,m,y,./images/PARCEL.png,,,,,,,,,,,,,,,,,,,,,m,1,0.665,,,,,,,,0,15,15,18,1
,,,,,,,,,,,,,,,,,,21,2022-02-12_12h18.04.936,lexical_decision_task_DD_L4,2021.2.3,MacIntel,62.5,,,,,,,,,,,1.032,1,,,,,,,,,,,,,,,,,,,,,,,,0.093333333,-0.145555556,0,0,0,,,,,,,PACKET,LB,z,y,./images/PACKETLB.png,,,,,,,,,,,,,,,,,,,,,z,1,1.032,,,,,,,,0,16,16,140,1
,,,,,,,,,,,,,,,,,,21,2022-02-12_12h18.04.936,lexical_decision_task_DD_L4,2021.2.3,MacIntel,62.5,,,,,,,,,,,1.565,0,,,,,,,,,,,,,,,,,,,,,,,,0.093333333,-0.145555556,0,0,0,,,,,,,BLOKE,C,m,y,./images/BLOKE.png,,,,,,,,,,,,,,,,,,,,,z,0,1.565,,,,,,,,0,17,17,12,1
,,,,,,,,,,,,,,,,,,21,2022-02-12_12h18.04.936,lexical_decision_task_DD_L4,2021.2.3,MacIntel,62.5,,,,,,,,,,,0.848,1,,,,,,,,,,,,,,,,,,,,,,,,0.093333333,-0.145555556,0,0,0,,,,,,,BUTTER,C,m,y,./images/BUTTER.png,,,,,,,,,,,,,,,,,,,,,m,1,0.848,,,,,,,,0,18,18,27,1
,,,,,,,,,,,,,,,,,,21,2022-02-12_12h18.04.936,lexical_decision_task_DD_L4,2021.2.3,MacIntel,62.5,,,,,,,,,,,0.751,1,,,,,,,,,,,,,,,,,,,,,,,,0.093333333,-0.145555556,0,0,0,,,,,,,PILOT,LB,m,y,./images/PILOTLB.png,,,,,,,,,,,,,,,,,,,,,m,1,0.751,,,,,,,,0,19,19,50,1
,,,,,,,,,,,,,,,,,,21,2022-02-12_12h18.04.936,lexical_decision_task_DD_L4,2021.2.3,MacIntel,62.5,,,,,,,,,,,0.796,0,,,,,,,,,,,,,,,,,,,,,,,,0.093333333,-0.145555556,0,0,0,,,,,,,SHELF,C,z,y,./images/SHELF.png,,,,,,,,,,,,,,,,,,,,,m,0,0.796,,,,,,,,0,20,20,123,1
,,,,,,,,,,,,,,,,,,21,2022-02-12_12h18.04.936,lexical_decision_task_DD_L4,2021.2.3,MacIntel,62.5,,,,,,,,,,,0.965,1,,,,,,,,,,,,,,,,,,,,,,,,0.093333333,-0.145555556,0,0,0,,,,,,,TULIP,LB,z,y,./images/TULIPLB.png,,,,,,,,,,,,,,,,,,,,,z,1,0.965,,,,,,,,0,21,21,92,1
,,,,,,,,,,,,,,,,,,21,2022-02-12_12h18.04.936,lexical_decision_task_DD_L4,2021.2.3,MacIntel,62.5,,,,,,,,,,,0.832,1,,,,,,,,,,,,,,,,,,,,,,,,0.093333333,-0.145555556,0,0,0,,,,,,,PICKLE,LB,z,y,./images/PICKLELB.png,,,,,,,,,,,,,,,,,,,,,z,1,0.832,,,,,,,,0,22,22,98,1
,,,,,,,,,,,,,,,,,,21,2022-02-12_12h18.04.936,lexical_decision_task_DD_L4,2021.2.3,MacIntel,62.5,,,,,,,,,,,0.716,0,,,,,,,,,,,,,,,,,,,,,,,,0.093333333,-0.145555556,0,0,0,,,,,,,SQUARE,C,z,y,./images/SQUARE.png,,,,,,,,,,,,,,,,,,,,,m,0,0.716,,,,,,,,0,23,23,90,1
,,,,,,,,,,,,,,,,,,21,2022-02-12_12h18.04.936,lexical_decision_task_DD_L4,2021.2.3,MacIntel,62.5,,,,,,,,,,,0.665,1,,,,,,,,,,,,,,,,,,,,,,,,0.093333333,-0.145555556,0,0,0,,,,,,,TIGER,HB,m,y,./images/TIGERHB.png,,,,,,,,,,,,,,,,,,,,,m,1,0.665,,,,,,,,0,24,24,37,1
,,,,,,,,,,,,,,,,,,21,2022-02-12_12h18.04.936,lexical_decision_task_DD_L4,2021.2.3,MacIntel,62.5,,,,,,,,,,,1.014,1,,,,,,,,,,,,,,,,,,,,,,,,0.093333333,-0.145555556,0,0,0,,,,,,,FOLDER,C,z,y,./images/FOLDER.png,,,,,,,,,,,,,,,,,,,,,z,1,1.014,,,,,,,,0,25,25,126,1
,,,,,,,,,,,,,,,,,,21,2022-02-12_12h18.04.936,lexical_decision_task_DD_L4,2021.2.3,MacIntel,62.5,,,,,,,,,,,0.899,1,,,,,,,,,,,,,,,,,,,,,,,,0.093333333,-0.145555556,0,0,0,,,,,,,JELLY,HB,z,y,./images/JELLYHB.png,,,,,,,,,,,,,,,,,,,,,z,1,0.899,,,,,,,,0,26,26,148,1
,,,,,,,,,,,,,,,,,,21,2022-02-12_12h18.04.936,lexical_decision_task_DD_L4,2021.2.3,MacIntel,62.5,,,,,,,,,,,0.53,1,,,,,,,,,,,,,,,,,,,,,,,,0.093333333,-0.145555556,0,0,0,,,,,,,PLANET,LB,m,y,./images/PLANETLB.png,,,,,,,,,,,,,,,,,,,,,m,1,0.53,,,,,,,,0,27,27,80,1
,,,,,,,,,,,,,,,,,,21,2022-02-12_12h18.04.936,lexical_decision_task_DD_L4,2021.2.3,MacIntel,62.5,,,,,,,,,,,0.599,1,,,,,,,,,,,,,,,,,,,,,,,,0.093333333,-0.145555556,0,0,0,,,,,,,DONKEY,HB,m,y,./images/DONKEYHB.png,,,,,,,,,,,,,,,,,,,,,m,1,0.599,,,,,,,,0,28,28,19,1
,,,,,,,,,,,,,,,,,,21,2022-02-12_12h18.04.936,lexical_decision_task_DD_L4,2021.2.3,MacIntel,62.5,,,,,,,,,,,0.567,1,,,,,,,,,,,,,,,,,,,,,,,,0.093333333,-0.145555556,0,0,0,,,,,,,GLOVE,HB,m,y,./images/GLOVEHB.png,,,,,,,,,,,,,,,,,,,,,m,1,0.567,,,,,,,,0,29,29,73,1
,,,,,,,,,,,,,,,,,,21,2022-02-12_12h18.04.936,lexical_decision_task_DD_L4,2021.2.3,MacIntel,62.5,,,,,,,,,,,0.682,0,,,,,,,,,,,,,,,,,,,,,,,,0.093333333,-0.145555556,0,0,0,,,,,,,ARROW,C,m,y,./images/ARROW.png,,,,,,,,,,,,,,,,,,,,,z,0,0.682,,,,,,,,0,30,30,69,1
,,,,,,,,,,,,,,,,,,21,2022-02-12_12h18.04.936,lexical_decision_task_DD_L4,2021.2.3,MacIntel,62.5,,,,,,,,,,,0.567,1,,,,,,,,,,,,,,,,,,,,,,,,0.093333333,-0.145555556,0,0,0,,,,,,,LAGOON,LB,m,y,./images/LAGOONLB.png,,,,,,,,,,,,,,,,,,,,,m,1,0.567,,,,,,,,0,31,31,47,1
,,,,,,,,,,,,,,,,,,21,2022-02-12_12h18.04.936,lexical_decision_task_DD_L4,2021.2.3,MacIntel,62.5,,,,,,,,,,,0.531,0,,,,,,,,,,,,,,,,,,,,,,,,0.093333333,-0.145555556,0,0,0,,,,,,,PLANK,HB,z,y,./images/PLANKHB.png,,,,,,,,,,,,,,,,,,,,,m,0,0.531,,,,,,,,0,32,32,85,1
,,,,,,,,,,,,,,,,,,21,2022-02-12_12h18.04.936,lexical_decision_task_DD_L4,2021.2.3,MacIntel,62.5,,,,,,,,,,,0.616,1,,,,,,,,,,,,,,,,,,,,,,,,0.093333333,-0.145555556,0,0,0,,,,,,,GRAIN,C,z,y,./images/GRAIN.png,,,,,,,,,,,,,,,,,,,,,z,1,0.616,,,,,,,,0,33,33,159,1
,,,,,,,,,,,,,,,,,,21,2022-02-12_12h18.04.936,lexical_decision_task_DD_L4,2021.2.3,MacIntel,62.5,,,,,,,,,,,0.698,1,,,,,,,,,,,,,,,,,,,,,,,,0.093333333,-0.145555556,0,0,0,,,,,,,BAMBOO,LB,m,y,./images/BAMBOOLB.png,,,,,,,,,,,,,,,,,,,,,m,1,0.698,,,,,,,,0,34,34,5,1
,,,,,,,,,,,,,,,,,,21,2022-02-12_12h18.04.936,lexical_decision_task_DD_L4,2021.2.3,MacIntel,62.5,,,,,,,,,,,0.58,0,,,,,,,,,,,,,,,,,,,,,,,,0.093333333,-0.145555556,0,0,0,,,,,,,NOOSE,C,z,y,./images/NOOSE.png,,,,,,,,,,,,,,,,,,,,,m,0,0.58,,,,,,,,0,35,35,156,1
,,,,,,,,,,,,,,,,,,21,2022-02-12_12h18.04.936,lexical_decision_task_DD_L4,2021.2.3,MacIntel,62.5,,,,,,,,,,,1.598,1,,,,,,,,,,,,,,,,,,,,,,,,0.093333333,-0.145555556,0,0,0,,,,,,,DRUMS,HB,z,y,./images/DRUMSHB.png,,,,,,,,,,,,,,,,,,,,,z,1,1.598,,,,,,,,0,36,36,133,1
,,,,,,,,,,,,,,,,,,21,2022-02-12_12h18.04.936,lexical_decision_task_DD_L4,2021.2.3,MacIntel,62.5,,,,,,,,,,,0.631,1,,,,,,,,,,,,,,,,,,,,,,,,0.093333333,-0.145555556,0,0,0,,,,,,,FERRY,C,m,y,./images/FERRY.png,,,,,,,,,,,,,,,,,,,,,m,1,0.631,,,,,,,,0,37,37,57,1
,,,,,,,,,,,,,,,,,,21,2022-02-12_12h18.04.936,lexical_decision_task_DD_L4,2021.2.3,MacIntel,62.5,,,,,,,,,,,0.865,1,,,,,,,,,,,,,,,,,,,,,,,,0.093333333,-0.145555556,0,0,0,,,,,,,FINGER,C,z,y,./images/FINGER.png,,,,,,,,,,,,,,,,,,,,,z,1,0.865,,,,,,,,0,38,38,87,1
,,,,,,,,,,,,,,,,,,21,2022-02-12_12h18.04.936,lexical_decision_task_DD_L4,2021.2.3,MacIntel,62.5,,,,,,,,,,,0.682,1,,,,,,,,,,,,,,,,,,,,,,,,0.093333333,-0.145555556,0,0,0,,,,,,,JAGUAR,C,z,y,./images/JAGUAR.png,,,,,,,,,,,,,,,,,,,,,z,1,0.682,,,,,,,,0,39,39,102,1
,,,,,,,,,,,,,,,,,,21,2022-02-12_12h18.04.936,lexical_decision_task_DD_L4,2021.2.3,MacIntel,62.5,,,,,,,,,,,0.882,0,,,,,,,,,,,,,,,,,,,,,,,,0.093333333,-0.145555556,0,0,0,,,,,,,SAILOR,HB,z,y,./images/SAILORHB.png,,,,,,,,,,,,,,,,,,,,,m,0,0.882,,,,,,,,0,40,40,151,1
,,,,,,,,,,,,,,,,,,21,2022-02-12_12h18.04.936,lexical_decision_task_DD_L4,2021.2.3,MacIntel,62.5,,,,,,,,,,,0.748,1,,,,,,,,,,,,,,,,,,,,,,,,0.093333333,-0.145555556,0,0,0,space,,,,,,BASKET,LB,m,y,./images/BASKETLB.png,4.569,,,,,,,,,,,,,,,,,,,,m,1,0.748,,,,,,,,0,41,41,44,1
,,,,,,,,,,,,,,,,,,21,2022-02-12_12h18.04.936,lexical_decision_task_DD_L4,2021.2.3,MacIntel,62.5,,,,,,,,,,,0.598,0,,,,,,,,,,,,,,,,,,,,,,,,0.093333333,-0.145555556,0,0,0,,,,,,,PEARL,HB,z,y,./images/PEARLHB.png,,,,,,,,,,,,,,,,,,,,,m,0,0.598,,,,,,,,0,42,42,130,1
,,,,,,,,,,,,,,,,,,21,2022-02-12_12h18.04.936,lexical_decision_task_DD_L4,2021.2.3,MacIntel,62.5,,,,,,,,,,,0.598,0,,,,,,,,,,,,,,,,,,,,,,,,0.093333333,-0.145555556,0,0,0,,,,,,,WHEEL,LB,m,y,./images/WHEELLB.png,,,,,,,,,,,,,,,,,,,,,z,0,0.598,,,,,,,,0,43,43,77,1
,,,,,,,,,,,,,,,,,,21,2022-02-12_12h18.04.936,lexical_decision_task_DD_L4,2021.2.3,MacIntel,62.5,,,,,,,,,,,0.798,1,,,,,,,,,,,,,,,,,,,,,,,,0.093333333,-0.145555556,0,0,0,,,,,,,CURRY,C,m,y,./images/CURRY.png,,,,,,,,,,,,,,,,,,,,,m,1,0.798,,,,,,,,0,44,44,60,1
,,,,,,,,,,,,,,,,,,21,2022-02-12_12h18.04.936,lexical_decision_task_DD_L4,2021.2.3,MacIntel,62.5,,,,,,,,,,,0.631,1,,,,,,,,,,,,,,,,,,,,,,,,0.093333333,-0.145555556,0,0,0,,,,,,,GRANNY,LB,m,y,./images/GRANNYLB.png,,,,,,,,,,,,,,,,,,,,,m,1,0.631,,,,,,,,0,45,45,20,1
,,,,,,,,,,,,,,,,,,21,2022-02-12_12h18.04.936,lexical_decision_task_DD_L4,2021.2.3,MacIntel,62.5,,,,,,,,,,,0.632,1,,,,,,,,,,,,,,,,,,,,,,,,0.093333333,-0.145555556,0,0,0,,,,,,,ONION,C,z,y,./images/ONION.png,,,,,,,,,,,,,,,,,,,,,z,1,0.632,,,,,,,,0,46,46,135,1
,,,,,,,,,,,,,,,,,,21,2022-02-12_12h18.04.936,lexical_decision_task_DD_L4,2021.2.3,MacIntel,62.5,,,,,,,,,,,1.15,0,,,,,,,,,,,,,,,,,,,,,,,,0.093333333,-0.145555556,0,0,0,,,,,,,GRAPE,HB,m,y,./images/GRAPEHB.png,,,,,,,,,,,,,,,,,,,,,z,0,1.15,,,,,,,,0,47,47,16,1
,,,,,,,,,,,,,,,,,,21,2022-02-12_12h18.04.936,lexical_decision_task_DD_L4,2021.2.3,MacIntel,62.5,,,,,,,,,,,0.85,0,,,,,,,,,,,,,,,,,,,,,,,,0.093333333,-0.145555556,0,0,0,,,,,,,MELON,HB,z,y,./images/MELONHB.png,,,,,,,,,,,,,,,,,,,,,m,0,0.85,,,,,,,,0,48,48,106,1
,,,,,,,,,,,,,,,,,,21,2022-02-12_12h18.04.936,lexical_decision_task_DD_L4,2021.2.3,MacIntel,62.5,,,,,,,,,,,0.533,1,,,,,,,,,,,,,,,,,,,,,,,,0.093333333,-0.145555556,0,0,0,,,,,,,JUMPER,LB,m,y,./images/JUMPERLB.png,,,,,,,,,,,,,,,,,,,,,m,1,0.533,,,,,,,,0,49,49,74,1
,,,,,,,,,,,,,,,,,,21,2022-02-12_12h18.04.936,lexical_decision_task_DD_L4,2021.2.3,MacIntel,62.5,,,,,,,,,,,0.667,0,,,,,,,,,,,,,,,,,,,,,,,,0.093333333,-0.145555556,0,0,0,,,,,,,JUNGLE,LB,z,y,./images/JUNGLELB.png,,,,,,,,,,,,,,,,,,,,,m,0,0.667,,,,,,,,0,50,50,167,1
,,,,,,,,,,,,,,,,,,21,2022-02-12_12h18.04.936,lexical_decision_task_DD_L4,2021.2.3,MacIntel,62.5,,,,,,,,,,,0.698,1,,,,,,,,,,,,,,,,,,,,,,,,0.093333333,-0.145555556,0,0,0,,,,,,,URINE,HB,z,y,./images/URINEHB.png,,,,,,,,,,,,,,,,,,,,,z,1,0.698,,,,,,,,0,51,51,154,1
,,,,,,,,,,,,,,,,,,21,2022-02-12_12h18.04.936,lexical_decision_task_DD_L4,2021.2.3,MacIntel,62.5,,,,,,,,,,,1.114,0,,,,,,,,,,,,,,,,,,,,,,,,0.093333333,-0.145555556,0,0,0,,,,,,,CRADLE,LB,z,y,./images/CRADLELB.png,,,,,,,,,,,,,,,,,,,,,m,0,1.114,,,,,,,,0,52,52,104,1
,,,,,,,,,,,,,,,,,,21,2022-02-12_12h18.04.936,lexical_decision_task_DD_L4,2021.2.3,MacIntel,62.5,,,,,,,,,,,0.748,1,,,,,,,,,,,,,,,,,,,,,,,,0.093333333,-0.145555556,0,0,0,,,,,,,CHALK,HB,m,y,./images/CHALKHB.png,,,,,,,,,,,,,,,,,,,,,m,1,0.748,,,,,,,,0,53,53,25,1
,,,,,,,,,,,,,,,,,,21,2022-02-12_12h18.04.936,lexical_decision_task_DD_L4,2021.2.3,MacIntel,62.5,,,,,,,,,,,0.793,1,,,,,,,,,,,,,,,,,,,,,,,,0.093333333,-0.145555556,0,0,0,,,,,,,INFANT,HB,z,y,./images/INFANTHB.png,,,,,,,,,,,,,,,,,,,,,z,1,0.793,,,,,,,,0,54,54,160,1
,,,,,,,,,,,,,,,,,,21,2022-02-12_12h18.04.936,lexical_decision_task_DD_L4,2021.2.3,MacIntel,62.5,,,,,,,,,,,0.615,1,,,,,,,,,,,,,,,,,,,,,,,,0.093333333,-0.145555556,0,0,0,,,,,,,RHINO,C,z,y,./images/RHINO.png,,,,,,,,,,,,,,,,,,,,,z,1,0.615,,,,,,,,0,55,55,93,1
,,,,,,,,,,,,,,,,,,21,2022-02-12_12h18.04.936,lexical_decision_task_DD_L4,2021.2.3,MacIntel,62.5,,,,,,,,,,,0.947,0,,,,,,,,,,,,,,,,,,,,,,,,0.093333333,-0.145555556,0,0,0,,,,,,,BERRY,LB,z,y,./images/BERRYLB.png,,,,,,,,,,,,,,,,,,,,,m,0,0.947,,,,,,,,0,56,56,131,1
,,,,,,,,,,,,,,,,,,21,2022-02-12_12h18.04.936,lexical_decision_task_DD_L4,2021.2.3,MacIntel,62.5,,,,,,,,,,,0.515,0,,,,,,,,,,,,,,,,,,,,,,,,0.093333333,-0.145555556,0,0,0,,,,,,,BELLY,HB,z,y,./images/BELLYHB.png,,,,,,,,,,,,,,,,,,,,,m,0,0.515,,,,,,,,0,57,57,94,1
,,,,,,,,,,,,,,,,,,21,2022-02-12_12h18.04.936,lexical_decision_task_DD_L4,2021.2.3,MacIntel,62.5,,,,,,,,,,,0.598,1,,,,,,,,,,,,,,,,,,,,,,,,0.093333333,-0.145555556,0,0,0,,,,,,,BEARD,LB,z,y,./images/BEARDLB.png,,,,,,,,,,,,,,,,,,,,,z,1,0.598,,,,,,,,0,58,58,86,1
,,,,,,,,,,,,,,,,,,21,2022-02-12_12h18.04.936,lexical_decision_task_DD_L4,2021.2.3,MacIntel,62.5,,,,,,,,,,,0.898,1,,,,,,,,,,,,,,,,,,,,,,,,0.093333333,-0.145555556,0,0,0,,,,,,,KIDNEY,C,z,y,./images/KIDNEY.png,,,,,,,,,,,,,,,,,,,,,z,1,0.898,,,,,,,,0,59,59,105,1
,,,,,,,,,,,,,,,,,,21,2022-02-12_12h18.04.936,lexical_decision_task_DD_L4,2021.2.3,MacIntel,62.5,,,,,,,,,,,0.747,1,,,,,,,,,,,,,,,,,,,,,,,,0.093333333,-0.145555556,0,0,0,,,,,,,CARPET,LB,z,y,./images/CARPETLB.png,,,,,,,,,,,,,,,,,,,,,z,1,0.747,,,,,,,,0,60,60,137,1
,,,,,,,,,,,,,,,,,,21,2022-02-12_12h18.04.936,lexical_decision_task_DD_L4,2021.2.3,MacIntel,62.5,,,,,,,,,,,0.631,1,,,,,,,,,,,,,,,,,,,,,,,,0.093333333,-0.145555556,0,0,0,,,,,,,WRIST,HB,z,y,./images/WRISTHB.png,,,,,,,,,,,,,,,,,,,,,z,1,0.631,,,,,,,,0,61,61,109,1
,,,,,,,,,,,,,,,,,,21,2022-02-12_12h18.04.936,lexical_decision_task_DD_L4,2021.2.3,MacIntel,62.5,,,,,,,,,,,0.698,1,,,,,,,,,,,,,,,,,,,,,,,,0.093333333,-0.145555556,0,0,0,,,,,,,BRIDE,HB,m,y,./images/BRIDEHB.png,,,,,,,,,,,,,,,,,,,,,m,1,0.698,,,,,,,,0,62,62,64,1
,,,,,,,,,,,,,,,,,,21,2022-02-12_12h18.04.936,lexical_decision_task_DD_L4,2021.2.3,MacIntel,62.5,,,,,,,,,,,0.513,1,,,,,,,,,,,,,,,,,,,,,,,,0.093333333,-0.145555556,0,0,0,,,,,,,SHIELD,C,m,y,./images/SHIELD.png,,,,,,,,,,,,,,,,,,,,,m,1,0.513,,,,,,,,0,63,63,48,1
,,,,,,,,,,,,,,,,,,21,2022-02-12_12h18.04.936,lexical_decision_task_DD_L4,2021.2.3,MacIntel,62.5,,,,,,,,,,,0.814,0,,,,,,,,,,,,,,,,,,,,,,,,0.093333333,-0.145555556,0,0,0,,,,,,,BONNET,LB,z,y,./images/BONNETLB.png,,,,,,,,,,,,,,,,,,,,,m,0,0.814,,,,,,,,0,64,64,95,1
,,,,,,,,,,,,,,,,,,21,2022-02-12_12h18.04.936,lexical_decision_task_DD_L4,2021.2.3,MacIntel,62.5,,,,,,,,,,,0.58,1,,,,,,,,,,,,,,,,,,,,,,,,0.093333333,-0.145555556,0,0,0,,,,,,,SMOKER,LB,z,y,./images/SMOKERLB.png,,,,,,,,,,,,,,,,,,,,,z,1,0.58,,,,,,,,0,65,65,110,1
,,,,,,,,,,,,,,,,,,21,2022-02-12_12h18.04.936,lexical_decision_task_DD_L4,2021.2.3,MacIntel,62.5,,,,,,,,,,,0.981,0,,,,,,,,,,,,,,,,,,,,,,,,0.093333333,-0.145555556,0,0,0,,,,,,,SAUNA,C,m,y,./images/SAUNA.png,,,,,,,,,,,,,,,,,,,,,z,0,0.981,,,,,,,,0,66,66,33,1
,,,,,,,,,,,,,,,,,,21,2022-02-12_12h18.04.936,lexical_decision_task_DD_L4,2021.2.3,MacIntel,62.5,,,,,,,,,,,0.681,1,,,,,,,,,,,,,,,,,,,,,,,,0.093333333,-0.145555556,0,0,0,,,,,,,PIMPLE,LB,z,y,./images/PIMPLELB.png,,,,,,,,,,,,,,,,,,,,,z,1,0.681,,,,,,,,0,67,67,155,1
,,,,,,,,,,,,,,,,,,21,2022-02-12_12h18.04.936,lexical_decision_task_DD_L4,2021.2.3,MacIntel,62.5,,,,,,,,,,,1.398,0,,,,,,,,,,,,,,,,,,,,,,,,0.093333333,-0.145555556,0,0,0,,,,,,,DOUGH,HB,z,y,./images/DOUGHHB.png,,,,,,,,,,,,,,,,,,,,,m,0,1.398,,,,,,,,0,68,68,103,1
,,,,,,,,,,,,,,,,,,21,2022-02-12_12h18.04.936,lexical_decision_task_DD_L4,2021.2.3,MacIntel,62.5,,,,,,,,,,,0.781,1,,,,,,,,,,,,,,,,,,,,,,,,0.093333333,-0.145555556,0,0,0,,,,,,,CANOE,HB,m,y,./images/CANOEHB.png,,,,,,,,,,,,,,,,,,,,,m,1,0.781,,,,,,,,0,69,69,58,1
,,,,,,,,,,,,,,,,,,21,2022-02-12_12h18.04.936,lexical_decision_task_DD_L4,2021.2.3,MacIntel,62.5,,,,,,,,,,,0.565,1,,,,,,,,,,,,,,,,,,,,,,,,0.093333333,-0.145555556,0,0,0,,,,,,,FENCE,LB,m,y,./images/FENCELB.png,,,,,,,,,,,,,,,,,,,,,m,1,0.565,,,,,,,,0,70,70,14,1
,,,,,,,,,,,,,,,,,,21,2022-02-12_12h18.04.936,lexical_decision_task_DD_L4,2021.2.3,MacIntel,62.5,,,,,,,,,,,0.683,0,,,,,,,,,,,,,,,,,,,,,,,,0.093333333,-0.145555556,0,0,0,,,,,,,POKER,HB,m,y,./images/POKERHB.png,,,,,,,,,,,,,,,,,,,,,z,0,0.683,,,,,,,,0,71,71,67,1
,,,,,,,,,,,,,,,,,,21,2022-02-12_12h18.04.936,lexical_decision_task_DD_L4,2021.2.3,MacIntel,62.5,,,,,,,,,,,0.663,1,,,,,,,,,,,,,,,,,,,,,,,,0.093333333,-0.145555556,0,0,0,,,,,,,COLLAR,C,m,y,./images/COLLAR.png,,,,,,,,,,,,,,,,,,,,,m,1,0.663,,,,,,,,0,72,72,15,1
,,,,,,,,,,,,,,,,,,21,2022-02-12_12h18.04.936,lexical_decision_task_DD_L4,2021.2.3,MacIntel,62.5,,,,,,,,,,,0.731,0,,,,,,,,,,,,,,,,,,,,,,,,0.093333333,-0.145555556,0,0,0,,,,,,,KITTEN,C,z,y,./images/KITTEN.png,,,,,,,,,,,,,,,,,,,,,m,0,0.731,,,,,,,,0,73,73,129,1
,,,,,,,,,,,,,,,,,,21,2022-02-12_12h18.04.936,lexical_decision_task_DD_L4,2021.2.3,MacIntel,62.5,,,,,,,,,,,0.882,1,,,,,,,,,,,,,,,,,,,,,,,,0.093333333,-0.145555556,0,0,0,,,,,,,BAKER,C,m,y,./images/BAKER.png,,,,,,,,,,,,,,,,,,,,,m,1,0.882,,,,,,,,0,74,74,63,1
,,,,,,,,,,,,,,,,,,21,2022-02-12_12h18.04.936,lexical_decision_task_DD_L4,2021.2.3,MacIntel,62.5,,,,,,,,,,,0.581,1,,,,,,,,,,,,,,,,,,,,,,,,0.093333333,-0.145555556,0,0,0,,,,,,,WHISKY,LB,m,y,./images/WHISKYLB.png,,,,,,,,,,,,,,,,,,,,,m,1,0.581,,,,,,,,0,75,75,83,1
,,,,,,,,,,,,,,,,,,21,2022-02-12_12h18.04.936,lexical_decision_task_DD_L4,2021.2.3,MacIntel,62.5,,,,,,,,,,,0.631,1,,,,,,,,,,,,,,,,,,,,,,,,0.093333333,-0.145555556,0,0,0,,,,,,,SNAKE,HB,m,y,./images/SNAKEHB.png,,,,,,,,,,,,,,,,,,,,,m,1,0.631,,,,,,,,0,76,76,40,1
,,,,,,,,,,,,,,,,,,21,2022-02-12_12h18.04.936,lexical_decision_task_DD_L4,2021.2.3,MacIntel,62.5,,,,,,,,,,,0.549,1,,,,,,,,,,,,,,,,,,,,,,,,0.093333333,-0.145555556,0,0,0,,,,,,,FARMER,LB,z,y,./images/FARMERLB.png,,,,,,,,,,,,,,,,,,,,,z,1,0.549,,,,,,,,0,77,77,149,1
,,,,,,,,,,,,,,,,,,21,2022-02-12_12h18.04.936,lexical_decision_task_DD_L4,2021.2.3,MacIntel,62.5,,,,,,,,,,,0.683,1,,,,,,,,,,,,,,,,,,,,,,,,0.093333333,-0.145555556,0,0,0,,,,,,,PAINT,HB,z,y,./images/PAINTHB.png,,,,,,,,,,,,,,,,,,,,,z,1,0.683,,,,,,,,0,78,78,91,1
,,,,,,,,,,,,,,,,,,21,2022-02-12_12h18.04.936,lexical_decision_task_DD_L4,2021.2.3,MacIntel,62.5,,,,,,,,,,,0.883,1,,,,,,,,,,,,,,,,,,,,,,,,0.093333333,-0.145555556,0,0,0,,,,,,,MOSQUE,HB,z,y,./images/MOSQUEHB.png,,,,,,,,,,,,,,,,,,,,,z,1,0.883,,,,,,,,0,79,79,127,1
,,,,,,,,,,,,,,,,,,21,2022-02-12_12h18.04.936,lexical_decision_task_DD_L4,2021.2.3,MacIntel,62.5,,,,,,,,,,,0.699,1,,,,,,,,,,,,,,,,,,,,,,,,0.093333333,-0.145555556,0,0,0,,,,,,,DIVER,C,m,y,./images/DIVER.png,,,,,,,,,,,,,,,,,,,,,m,1,0.699,,,,,,,,0,80,80,9,1
,,,,,,,,,,,,,,,,,,21,2022-02-12_12h18.04.936,lexical_decision_task_DD_L4,2021.2.3,MacIntel,62.5,,,,,,,,,,,0.781,0,,,,,,,,,,,,,,,,,,,,,,,,0.093333333,-0.145555556,0,0,0,,,,,,,PURSE,LB,z,y,./images/PURSELB.png,,,,,,,,,,,,,,,,,,,,,m,0,0.781,,,,,,,,0,81,81,146,1
,,,,,,,,,,,,,,,,,,21,2022-02-12_12h18.04.936,lexical_decision_task_DD_L4,2021.2.3,MacIntel,62.5,,,,,,,,,,,0.732,1,,,,,,,,,,,,,,,,,,,,,,,,0.093333333,-0.145555556,0,0,0,,,,,,,WEASEL,LB,z,y,./images/WEASELLB.png,,,,,,,,,,,,,,,,,,,,,z,1,0.732,,,,,,,,0,82,82,164,1
,,,,,,,,,,,,,,,,,,21,2022-02-12_12h18.04.936,lexical_decision_task_DD_L4,2021.2.3,MacIntel,62.5,,,,,,,,,,,0.615,1,,,,,,,,,,,,,,,,,,,,,,,,0.093333333,-0.145555556,0,0,0,space,,,,,,HOCKEY,LB,m,y,./images/HOCKEYLB.png,3.8,,,,,,,,,,,,,,,,,,,,m,1,0.615,,,,,,,,0,83,83,32,1
,,,,,,,,,,,,,,,,,,21,2022-02-12_12h18.04.936,lexical_decision_task_DD_L4,2021.2.3,MacIntel,62.5,,,,,,,,,,,0.714,0,,,,,,,,,,,,,,,,,,,,,,,,0.106666667,-0.144444444,0,0,0,,,,,,,POSTER,LB,m,y,./images/POSTERLB.png,,,,,,,,,,,,,,,,,,,,,z,0,0.714,,,,,,,,0,84,84,53,1
,,,,,,,,,,,,,,,,,,21,2022-02-12_12h18.04.936,lexical_decision_task_DD_L4,2021.2.3,MacIntel,62.5,,,,,,,,,,,0.666,0,,,,,,,,,,,,,,,,,,,,,,,,0.106666667,-0.144444444,0,0,0,,,,,,,MIRROR,C,z,y,./images/MIRROR.png,,,,,,,,,,,,,,,,,,,,,m,0,0.666,,,,,,,,0,85,85,147,1
,,,,,,,,,,,,,,,,,,21,2022-02-12_12h18.04.936,lexical_decision_task_DD_L4,2021.2.3,MacIntel,62.5,,,,,,,,,,,0.798,0,,,,,,,,,,,,,,,,,,,,,,,,0.106666667,-0.144444444,0,0,0,,,,,,,TOWEL,HB,m,y,./images/TOWELHB.png,,,,,,,,,,,,,,,,,,,,,z,0,0.798,,,,,,,,0,86,86,1,1
,,,,,,,,,,,,,,,,,,21,2022-02-12_12h18.04.936,lexical_decision_task_DD_L4,2021.2.3,MacIntel,62.5,,,,,,,,,,,0.818,1,,,,,,,,,,,,,,,,,,,,,,,,0.106666667,-0.144444444,0,0,0,,,,,,,STREAM,LB,m,y,./images/STREAMLB.png,,,,,,,,,,,,,,,,,,,,,m,1,0.818,,,,,,,,0,87,87,41,1
,,,,,,,,,,,,,,,,,,21,2022-02-12_12h18.04.936,lexical_decision_task_DD_L4,2021.2.3,MacIntel,62.5,,,,,,,,,,,0.716,1,,,,,,,,,,,,,,,,,,,,,,,,0.106666667,-0.144444444,0,0,0,,,,,,,THROAT,C,z,y,./images/THROAT.png,,,,,,,,,,,,,,,,,,,,,z,1,0.716,,,,,,,,0,88,88,120,1
,,,,,,,,,,,,,,,,,,21,2022-02-12_12h18.04.936,lexical_decision_task_DD_L4,2021.2.3,MacIntel,62.5,,,,,,,,,,,0.783,1,,,,,,,,,,,,,,,,,,,,,,,,0.106666667,-0.144444444,0,0,0,,,,,,,PASTA,LB,z,y,./images/PASTALB.png,,,,,,,,,,,,,,,,,,,,,z,1,0.783,,,,,,,,0,89,89,89,1
,,,,,,,,,,,,,,,,,,21,2022-02-12_12h18.04.936,lexical_decision_task_DD_L4,2021.2.3,MacIntel,62.5,,,,,,,,,,,0.816,0,,,,,,,,,,,,,,,,,,,,,,,,0.106666667,-0.144444444,0,0,0,,,,,,,SWEAT,C,z,y,./images/SWEAT.png,,,,,,,,,,,,,,,,,,,,,m,0,0.816,,,,,,,,0,90,90,150,1
,,,,,,,,,,,,,,,,,,21,2022-02-12_12h18.04.936,lexical_decision_task_DD_L4,2021.2.3,MacIntel,62.5,,,,,,,,,,,0.631,1,,,,,,,,,,,,,,,,,,,,,,,,0.106666667,-0.144444444,0,0,0,,,,,,,FLESH,C,m,y,./images/FLESH.png,,,,,,,,,,,,,,,,,,,,,m,1,0.631,,,,,,,,0,91,91,24,1
,,,,,,,,,,,,,,,,,,21,2022-02-12_12h18.04.936,lexical_decision_task_DD_L4,2021.2.3,MacIntel,62.5,,,,,,,,,,,0.465,0,,,,,,,,,,,,,,,,,,,,,,,,0.106666667,-0.144444444,0,0,0,,,,,,,MIDGET,HB,m,y,./images/MIDGETHB.png,,,,,,,,,,,,,,,,,,,,,z,0,0.465,,,,,,,,0,92,92,76,1
,,,,,,,,,,,,,,,,,,21,2022-02-12_12h18.04.936,lexical_decision_task_DD_L4,2021.2.3,MacIntel,62.5,,,,,,,,,,,0.617,1,,,,,,,,,,,,,,,,,,,,,,,,0.106666667,-0.144444444,0,0,0,,,,,,,TWINS,C,z,y,./images/TWINS.png,,,,,,,,,,,,,,,,,,,,,z,1,0.617,,,,,,,,0,93,93,144,1
,,,,,,,,,,,,,,,,,,21,2022-02-12_12h18.04.936,lexical_decision_task_DD_L4,2021.2.3,MacIntel,62.5,,,,,,,,,,,0.597,1,,,,,,,,,,,,,,,,,,,,,,,,0.106666667,-0.144444444,0,0,0,,,,,,,MONKEY,C,m,y,./images/MONKEY.png,,,,,,,,,,,,,,,,,,,,,m,1,0.597,,,,,,,,0,94,94,45,1
,,,,,,,,,,,,,,,,,,21,2022-02-12_12h18.04.936,lexical_decision_task_DD_L4,2021.2.3,MacIntel,62.5,,,,,,,,,,,0.615,1,,,,,,,,,,,,,,,,,,,,,,,,0.106666667,-0.144444444,0,0,0,,,,,,,FALCON,HB,z,y,./images/FALCONHB.png,,,,,,,,,,,,,,,,,,,,,z,1,0.615,,,,,,,,0,95,95,112,1
,,,,,,,,,,,,,,,,,,21,2022-02-12_12h18.04.936,lexical_decision_task_DD_L4,2021.2.3,MacIntel,62.5,,,,,,,,,,,0.497,0,,,,,,,,,,,,,,,,,,,,,,,,0.106666667,-0.144444444,0,0,0,,,,,,,CANDLE,HB,z,y,./images/CANDLEHB.png,,,,,,,,,,,,,,,,,,,,,m,0,0.497,,,,,,,,0,96,96,145,1
,,,,,,,,,,,,,,,,,,21,2022-02-12_12h18.04.936,lexical_decision_task_DD_L4,2021.2.3,MacIntel,62.5,,,,,,,,,,,0.714,1,,,,,,,,,,,,,,,,,,,,,,,,0.106666667,-0.144444444,0,0,0,,,,,,,BROOM,C,m,y,./images/BROOM.png,,,,,,,,,,,,,,,,,,,,,m,1,0.714,,,,,,,,0,97,97,78,1
,,,,,,,,,,,,,,,,,,21,2022-02-12_12h18.04.936,lexical_decision_task_DD_L4,2021.2.3,MacIntel,62.5,,,,,,,,,,,0.665,0,,,,,,,,,,,,,,,,,,,,,,,,0.106666667,-0.144444444,0,0,0,,,,,,,QUILL,HB,z,y,./images/QUILLHB.png,,,,,,,,,,,,,,,,,,,,,m,0,0.665,,,,,,,,0,98,98,115,1
,,,,,,,,,,,,,,,,,,21,2022-02-12_12h18.04.936,lexical_decision_task_DD_L4,2021.2.3,MacIntel,62.5,,,,,,,,,,,0.798,1,,,,,,,,,,,,,,,,,,,,,,,,0.106666667,-0.144444444,0,0,0,,,,,,,DANCER,C,m,y,./images/DANCER.png,,,,,,,,,,,,,,,,,,,,,m,1,0.798,,,,,,,,0,99,99,21,1
,,,,,,,,,,,,,,,,,,21,2022-02-12_12h18.04.936,lexical_decision_task_DD_L4,2021.2.3,MacIntel,62.5,,,,,,,,,,,0.522,0,,,,,,,,,,,,,,,,,,,,,,,,0.106666667,-0.144444444,0,0,0,,,,,,,ALLEY,HB,m,y,./images/ALLEYHB.png,,,,,,,,,,,,,,,,,,,,,z,0,0.522,,,,,,,,0,100,100,55,1
,,,,,,,,,,,,,,,,,,21,2022-02-12_12h18.04.936,lexical_decision_task_DD_L4,2021.2.3,MacIntel,62.5,,,,,,,,,,,1.081,0,,,,,,,,,,,,,,,,,,,,,,,,0.106666667,-0.144444444,0,0,0,,,,,,,STOOL,HB,m,y,./images/STOOLHB.png,,,,,,,,,,,,,,,,,,,,,z,0,1.081,,,,,,,,0,101,101,43,1
,,,,,,,,,,,,,,,,,,21,2022-02-12_12h18.04.936,lexical_decision_task_DD_L4,2021.2.3,MacIntel,62.5,,,,,,,,,,,0.614,0,,,,,,,,,,,,,,,,,,,,,,,,0.106666667,-0.144444444,0,0,0,,,,,,,MOOSE,C,z,y,./images/MOOSE.png,,,,,,,,,,,,,,,,,,,,,m,0,0.614,,,,,,,,0,102,102,141,1
,,,,,,,,,,,,,,,,,,21,2022-02-12_12h18.04.936,lexical_decision_task_DD_L4,2021.2.3,MacIntel,62.5,,,,,,,,,,,0.664,1,,,,,,,,,,,,,,,,,,,,,,,,0.106666667,-0.144444444,0,0,0,,,,,,,CHERRY,C,m,y,./images/CHERRY.png,,,,,,,,,,,,,,,,,,,,,m,1,0.664,,,,,,,,0,103,103,54,1
,,,,,,,,,,,,,,,,,,21,2022-02-12_12h18.04.936,lexical_decision_task_DD_L4,2021.2.3,MacIntel,62.5,,,,,,,,,,,0.681,0,,,,,,,,,,,,,,,,,,,,,,,,0.106666667,-0.144444444,0,0,0,,,,,,,BIRTH,HB,z,y,./images/BIRTHHB.png,,,,,,,,,,,,,,,,,,,,,m,0,0.681,,,,,,,,0,104,104,121,1
,,,,,,,,,,,,,,,,,,21,2022-02-12_12h18.04.936,lexical_decision_task_DD_L4,2021.2.3,MacIntel,62.5,,,,,,,,,,,0.664,1,,,,,,,,,,,,,,,,,,,,,,,,0.106666667,-0.144444444,0,0,0,,,,,,,MUMMY,HB,m,y,./images/MUMMYHB.png,,,,,,,,,,,,,,,,,,,,,m,1,0.664,,,,,,,,0,105,105,46,1
,,,,,,,,,,,,,,,,,,21,2022-02-12_12h18.04.936,lexical_decision_task_DD_L4,2021.2.3,MacIntel,62.5,,,,,,,,,,,0.898,0,,,,,,,,,,,,,,,,,,,,,,,,0.106666667,-0.144444444,0,0,0,,,,,,,MEDAL,LB,m,y,./images/MEDALLB.png,,,,,,,,,,,,,,,,,,,,,z,0,0.898,,,,,,,,0,106,106,11,1
,,,,,,,,,,,,,,,,,,21,2022-02-12_12h18.04.936,lexical_decision_task_DD_L4,2021.2.3,MacIntel,62.5,,,,,,,,,,,0.815,1,,,,,,,,,,,,,,,,,,,,,,,,0.106666667,-0.144444444,0,0,0,,,,,,,CLOTH,LB,m,y,./images/CLOTHLB.png,,,,,,,,,,,,,,,,,,,,,m,1,0.815,,,,,,,,0,107,107,23,1
,,,,,,,,,,,,,,,,,,21,2022-02-12_12h18.04.936,lexical_decision_task_DD_L4,2021.2.3,MacIntel,62.5,,,,,,,,,,,0.664,0,,,,,,,,,,,,,,,,,,,,,,,,0.106666667,-0.144444444,0,0,0,,,,,,,BABOON,HB,z,y,./images/BABOONHB.png,,,,,,,,,,,,,,,,,,,,,m,0,0.664,,,,,,,,0,108,108,142,1
,,,,,,,,,,,,,,,,,,21,2022-02-12_12h18.04.936,lexical_decision_task_DD_L4,2021.2.3,MacIntel,62.5,,,,,,,,,,,0.531,1,,,,,,,,,,,,,,,,,,,,,,,,0.106666667,-0.144444444,0,0,0,,,,,,,BRUSH,LB,m,y,./images/BRUSHLB.png,,,,,,,,,,,,,,,,,,,,,m,1,0.531,,,,,,,,0,109,109,59,1
,,,,,,,,,,,,,,,,,,21,2022-02-12_12h18.04.936,lexical_decision_task_DD_L4,2021.2.3,MacIntel,62.5,,,,,,,,,,,0.531,1,,,,,,,,,,,,,,,,,,,,,,,,0.106666667,-0.144444444,0,0,0,,,,,,,ATTIC,C,z,y,./images/ATTIC.png,,,,,,,,,,,,,,,,,,,,,z,1,0.531,,,,,,,,0,110,110,111,1
,,,,,,,,,,,,,,,,,,21,2022-02-12_12h18.04.936,lexical_decision_task_DD_L4,2021.2.3,MacIntel,62.5,,,,,,,,,,,0.631,0,,,,,,,,,,,,,,,,,,,,,,,,0.106666667,-0.144444444,0,0,0,,,,,,,CEMENT,LB,z,y,./images/CEMENTLB.png,,,,,,,,,,,,,,,,,,,,,m,0,0.631,,,,,,,,0,111,111,158,1
,,,,,,,,,,,,,,,,,,21,2022-02-12_12h18.04.936,lexical_decision_task_DD_L4,2021.2.3,MacIntel,62.5,,,,,,,,,,,0.615,1,,,,,,,,,,,,,,,,,,,,,,,,0.106666667,-0.144444444,0,0,0,,,,,,,STEAK,HB,m,y,./images/STEAKHB.png,,,,,,,,,,,,,,,,,,,,,m,1,0.615,,,,,,,,0,112,112,31,1
,,,,,,,,,,,,,,,,,,21,2022-02-12_12h18.04.936,lexical_decision_task_DD_L4,2021.2.3,MacIntel,62.5,,,,,,,,,,,0.518,0,,,,,,,,,,,,,,,,,,,,,,,,0.106666667,-0.144444444,0,0,0,,,,,,,DRILL,C,m,y,./images/DRILL.png,,,,,,,,,,,,,,,,,,,,,z,0,0.518,,,,,,,,0,113,113,81,1
,,,,,,,,,,,,,,,,,,21,2022-02-12_12h18.04.936,lexical_decision_task_DD_L4,2021.2.3,MacIntel,62.5,,,,,,,,,,,0.831,1,,,,,,,,,,,,,,,,,,,,,,,,0.106666667,-0.144444444,0,0,0,,,,,,,STOVE,LB,m,y,./images/STOVELB.png,,,,,,,,,,,,,,,,,,,,,m,1,0.831,,,,,,,,0,114,114,2,1
,,,,,,,,,,,,,,,,,,21,2022-02-12_12h18.04.936,lexical_decision_task_DD_L4,2021.2.3,MacIntel,62.5,,,,,,,,,,,0.881,0,,,,,,,,,,,,,,,,,,,,,,,,0.106666667,-0.144444444,0,0,0,,,,,,,RAZOR,HB,m,y,./images/RAZORHB.png,,,,,,,,,,,,,,,,,,,,,z,0,0.881,,,,,,,,0,115,115,34,1
,,,,,,,,,,,,,,,,,,21,2022-02-12_12h18.04.936,lexical_decision_task_DD_L4,2021.2.3,MacIntel,62.5,,,,,,,,,,,0.75,1,,,,,,,,,,,,,,,,,,,,,,,,0.106666667,-0.144444444,0,0,0,,,,,,,SUNSET,HB,z,y,./images/SUNSETHB.png,,,,,,,,,,,,,,,,,,,,,z,1,0.75,,,,,,,,0,116,116,166,1
,,,,,,,,,,,,,,,,,,21,2022-02-12_12h18.04.936,lexical_decision_task_DD_L4,2021.2.3,MacIntel,62.5,,,,,,,,,,,0.714,1,,,,,,,,,,,,,,,,,,,,,,,,0.106666667,-0.144444444,0,0,0,,,,,,,WAGON,HB,m,y,./images/WAGONHB.png,,,,,,,,,,,,,,,,,,,,,m,1,0.714,,,,,,,,0,117,117,7,1
,,,,,,,,,,,,,,,,,,21,2022-02-12_12h18.04.936,lexical_decision_task_DD_L4,2021.2.3,MacIntel,62.5,,,,,,,,,,,1.217,1,,,,,,,,,,,,,,,,,,,,,,,,0.106666667,-0.144444444,0,0,0,,,,,,,BOXER,HB,m,y,./images/BOXERHB.png,,,,,,,,,,,,,,,,,,,,,m,1,1.217,,,,,,,,0,118,118,4,1
,,,,,,,,,,,,,,,,,,21,2022-02-12_12h18.04.936,lexical_decision_task_DD_L4,2021.2.3,MacIntel,62.5,,,,,,,,,,,0.665,1,,,,,,,,,,,,,,,,,,,,,,,,0.106666667,-0.144444444,0,0,0,,,,,,,STRING,LB,z,y,./images/STRINGLB.png,,,,,,,,,,,,,,,,,,,,,z,1,0.665,,,,,,,,0,119,119,125,1
,,,,,,,,,,,,,,,,,,21,2022-02-12_12h18.04.936,lexical_decision_task_DD_L4,2021.2.3,MacIntel,62.5,,,,,,,,,,,0.681,1,,,,,,,,,,,,,,,,,,,,,,,,0.106666667,-0.144444444,0,0,0,,,,,,,PISTOL,LB,m,y,./images/PISTOLLB.png,,,,,,,,,,,,,,,,,,,,,m,1,0.681,,,,,,,,0,120,120,29,1
,,,,,,,,,,,,,,,,,,21,2022-02-12_12h18.04.936,lexical_decision_task_DD_L4,2021.2.3,MacIntel,62.5,,,,,,,,,,,0.665,1,,,,,,,,,,,,,,,,,,,,,,,,0.106666667,-0.144444444,0,0,0,,,,,,,CHAIN,C,m,y,./images/CHAIN.png,,,,,,,,,,,,,,,,,,,,,m,1,0.665,,,,,,,,0,121,121,42,1
,,,,,,,,,,,,,,,,,,21,2022-02-12_12h18.04.936,lexical_decision_task_DD_L4,2021.2.3,MacIntel,62.5,,,,,,,,,,,0.898,1,,,,,,,,,,,,,,,,,,,,,,,,0.106666667,-0.144444444,0,0,0,,,,,,,STORM,C,z,y,./images/STORM.png,,,,,,,,,,,,,,,,,,,,,z,1,0.898,,,,,,,,0,122,122,114,1
,,,,,,,,,,,,,,,,,,21,2022-02-12_12h18.04.936,lexical_decision_task_DD_L4,2021.2.3,MacIntel,62.5,,,,,,,,,,,0.748,1,,,,,,,,,,,,,,,,,,,,,,,,0.106666667,-0.144444444,0,0,0,,,,,,,CASINO,HB,m,y,./images/CASINOHB.png,,,,,,,,,,,,,,,,,,,,,m,1,0.748,,,,,,,,0,123,123,28,1
,,,,,,,,,,,,,,,,,,21,2022-02-12_12h18.04.936,lexical_decision_task_DD_L4,2021.2.3,MacIntel,62.5,,,,,,,,,,,0.797,1,,,,,,,,,,,,,,,,,,,,,,,,0.106666667,-0.144444444,0,0,0,,,,,,,CANYON,HB,z,y,./images/CANYONHB.png,,,,,,,,,,,,,,,,,,,,,z,1,0.797,,,,,,,,0,124,124,118,1
,,,,,,,,,,,,,,,,,,21,2022-02-12_12h18.04.936,lexical_decision_task_DD_L4,2021.2.3,MacIntel,62.5,,,,,,,,,,,0.697,1,,,,,,,,,,,,,,,,,,,,,,,,0.106666667,-0.144444444,0,0,0,space,,,,,,HEATER,LB,m,y,./images/HEATERLB.png,4.5,,,,,,,,,,,,,,,,,,,,m,1,0.697,,,,,,,,0,125,125,56,1
,,,,,,,,,,,,,,,,,,21,2022-02-12_12h18.04.936,lexical_decision_task_DD_L4,2021.2.3,MacIntel,62.5,,,,,,,,,,,0.652,1,,,,,,,,,,,,,,,,,,,,,,,,0.106666667,-0.144444444,0,0,0,,,,,,,COOKER,C,z,y,./images/COOKER.png,,,,,,,,,,,,,,,,,,,,,z,1,0.652,,,,,,,,0,126,126,153,1
,,,,,,,,,,,,,,,,,,21,2022-02-12_12h18.04.936,lexical_decision_task_DD_L4,2021.2.3,MacIntel,62.5,,,,,,,,,,,0.984,1,,,,,,,,,,,,,,,,,,,,,,,,0.106666667,-0.144444444,0,0,0,,,,,,,TOMATO,C,z,y,./images/TOMATO.png,,,,,,,,,,,,,,,,,,,,,z,1,0.984,,,,,,,,0,127,127,84,1
,,,,,,,,,,,,,,,,,,21,2022-02-12_12h18.04.936,lexical_decision_task_DD_L4,2021.2.3,MacIntel,62.5,,,,,,,,,,,0.448,1,,,,,,,,,,,,,,,,,,,,,,,,0.106666667,-0.144444444,0,0,0,,,,,,,BUBBLE,LB,m,y,./images/BUBBLELB.png,,,,,,,,,,,,,,,,,,,,,m,1,0.448,,,,,,,,0,128,128,71,1
,,,,,,,,,,,,,,,,,,21,2022-02-12_12h18.04.936,lexical_decision_task_DD_L4,2021.2.3,MacIntel,62.5,,,,,,,,,,,0.502,1,,,,,,,,,,,,,,,,,,,,,,,,0.106666667,-0.144444444,0,0,0,,,,,,,CANDY,C,m,y,./images/CANDY.png,,,,,,,,,,,,,,,,,,,,,m,1,0.502,,,,,,,,0,129,129,39,1
,,,,,,,,,,,,,,,,,,21,2022-02-12_12h18.04.936,lexical_decision_task_DD_L4,2021.2.3,MacIntel,62.5,,,,,,,,,,,0.682,1,,,,,,,,,,,,,,,,,,,,,,,,0.106666667,-0.144444444,0,0,0,,,,,,,MALLET,LB,z,y,./images/MALLETLB.png,,,,,,,,,,,,,,,,,,,,,z,1,0.682,,,,,,,,0,130,130,134,1
,,,,,,,,,,,,,,,,,,21,2022-02-12_12h18.04.936,lexical_decision_task_DD_L4,2021.2.3,MacIntel,62.5,,,,,,,,,,,0.881,1,,,,,,,,,,,,,,,,,,,,,,,,0.106666667,-0.144444444,0,0,0,,,,,,,COUCH,LB,z,y,./images/COUCHLB.png,,,,,,,,,,,,,,,,,,,,,z,1,0.881,,,,,,,,0,131,131,161,1
,,,,,,,,,,,,,,,,,,21,2022-02-12_12h18.04.936,lexical_decision_task_DD_L4,2021.2.3,MacIntel,62.5,,,,,,,,,,,0.465,0,,,,,,,,,,,,,,,,,,,,,,,,0.106666667,-0.144444444,0,0,0,,,,,,,BARREL,LB,z,y,./images/BARRELLB.png,,,,,,,,,,,,,,,,,,,,,m,0,0.465,,,,,,,,0,132,132,116,1
,,,,,,,,,,,,,,,,,,21,2022-02-12_12h18.04.936,lexical_decision_task_DD_L4,2021.2.3,MacIntel,62.5,,,,,,,,,,,0.698,1,,,,,,,,,,,,,,,,,,,,,,,,0.106666667,-0.144444444,0,0,0,,,,,,,WALRUS,LB,z,y,./images/WALRUSLB.png,,,,,,,,,,,,,,,,,,,,,z,1,0.698,,,,,,,,0,133,133,107,1
,,,,,,,,,,,,,,,,,,21,2022-02-12_12h18.04.936,lexical_decision_task_DD_L4,2021.2.3,MacIntel,62.5,,,,,,,,,,,0.78,1,,,,,,,,,,,,,,,,,,,,,,,,0.106666667,-0.144444444,0,0,0,,,,,,,HAMMER,C,m,y,./images/HAMMER.png,,,,,,,,,,,,,,,,,,,,,m,1,0.78,,,,,,,,0,134,134,75,1
,,,,,,,,,,,,,,,,,,21,2022-02-12_12h18.04.936,lexical_decision_task_DD_L4,2021.2.3,MacIntel,62.5,,,,,,,,,,,1.298,1,,,,,,,,,,,,,,,,,,,,,,,,0.106666667,-0.144444444,0,0,0,,,,,,,CLOUD,LB,m,y,./images/CLOUDLB.png,,,,,,,,,,,,,,,,,,,,,m,1,1.298,,,,,,,,0,135,135,26,1
,,,,,,,,,,,,,,,,,,21,2022-02-12_12h18.04.936,lexical_decision_task_DD_L4,2021.2.3,MacIntel,62.5,,,,,,,,,,,0.549,1,,,,,,,,,,,,,,,,,,,,,,,,0.106666667,-0.144444444,0,0,0,,,,,,,SAUCE,C,m,y,./images/SAUCE.png,,,,,,,,,,,,,,,,,,,,,m,1,0.549,,,,,,,,0,136,136,51,1
,,,,,,,,,,,,,,,,,,21,2022-02-12_12h18.04.936,lexical_decision_task_DD_L4,2021.2.3,MacIntel,62.5,,,,,,,,,,,0.732,0,,,,,,,,,,,,,,,,,,,,,,,,0.106666667,-0.144444444,0,0,0,,,,,,,STAIN,C,m,y,./images/STAIN.png,,,,,,,,,,,,,,,,,,,,,z,0,0.732,,,,,,,,0,137,137,6,1
,,,,,,,,,,,,,,,,,,21,2022-02-12_12h18.04.936,lexical_decision_task_DD_L4,2021.2.3,MacIntel,62.5,,,,,,,,,,,1.064,1,,,,,,,,,,,,,,,,,,,,,,,,0.106666667,-0.144444444,0,0,0,,,,,,,GREASE,C,z,y,./images/GREASE.png,,,,,,,,,,,,,,,,,,,,,z,1,1.064,,,,,,,,0,138,138,99,1
,,,,,,,,,,,,,,,,,,21,2022-02-12_12h18.04.936,lexical_decision_task_DD_L4,2021.2.3,MacIntel,62.5,,,,,,,,,,,1.431,0,,,,,,,,,,,,,,,,,,,,,,,,0.106666667,-0.144444444,0,0,0,,,,,,,SCREW,C,z,y,./images/SCREW.png,,,,,,,,,,,,,,,,,,,,,m,0,1.431,,,,,,,,0,139,139,108,1
,,,,,,,,,,,,,,,,,,21,2022-02-12_12h18.04.936,lexical_decision_task_DD_L4,2021.2.3,MacIntel,62.5,,,,,,,,,,,0.632,1,,,,,,,,,,,,,,,,,,,,,,,,0.106666667,-0.144444444,0,0,0,,,,,,,ARTIST,HB,m,y,./images/ARTISTHB.png,,,,,,,,,,,,,,,,,,,,,m,1,0.632,,,,,,,,0,140,140,61,1
,,,,,,,,,,,,,,,,,,21,2022-02-12_12h18.04.936,lexical_decision_task_DD_L4,2021.2.3,MacIntel,62.5,,,,,,,,,,,0.814,1,,,,,,,,,,,,,,,,,,,,,,,,0.106666667,-0.144444444,0,0,0,,,,,,,PEACH,LB,z,y,./images/PEACHLB.png,,,,,,,,,,,,,,,,,,,,,z,1,0.814,,,,,,,,0,141,141,119,1
,,,,,,,,,,,,,,,,,,21,2022-02-12_12h18.04.936,lexical_decision_task_DD_L4,2021.2.3,MacIntel,62.5,,,,,,,,,,,0.964,1,,,,,,,,,,,,,,,,,,,,,,,,0.106666667,-0.144444444,0,0,0,,,,,,,CRUMB,LB,z,y,./images/CRUMBLB.png,,,,,,,,,,,,,,,,,,,,,z,1,0.964,,,,,,,,0,142,142,113,1
,,,,,,,,,,,,,,,,,,21,2022-02-12_12h18.04.936,lexical_decision_task_DD_L4,2021.2.3,MacIntel,62.5,,,,,,,,,,,0.53,0,,,,,,,,,,,,,,,,,,,,,,,,0.106666667,-0.144444444,0,0,0,,,,,,,POODLE,C,z,y,./images/POODLE.png,,,,,,,,,,,,,,,,,,,,,m,0,0.53,,,,,,,,0,143,143,165,1
,,,,,,,,,,,,,,,,,,21,2022-02-12_12h18.04.936,lexical_decision_task_DD_L4,2021.2.3,MacIntel,62.5,,,,,,,,,,,0.798,0,,,,,,,,,,,,,,,,,,,,,,,,0.106666667,-0.144444444,0,0,0,,,,,,,SWING,HB,z,y,./images/SWINGHB.png,,,,,,,,,,,,,,,,,,,,,m,0,0.798,,,,,,,,0,144,144,124,1
,,,,,,,,,,,,,,,,,,21,2022-02-12_12h18.04.936,lexical_decision_task_DD_L4,2021.2.3,MacIntel,62.5,,,,,,,,,,,0.781,1,,,,,,,,,,,,,,,,,,,,,,,,0.106666667,-0.144444444,0,0,0,,,,,,,DESERT,HB,m,y,./images/DESERTHB.png,,,,,,,,,,,,,,,,,,,,,m,1,0.781,,,,,,,,0,145,145,52,1
,,,,,,,,,,,,,,,,,,21,2022-02-12_12h18.04.936,lexical_decision_task_DD_L4,2021.2.3,MacIntel,62.5,,,,,,,,,,,0.631,1,,,,,,,,,,,,,,,,,,,,,,,,0.106666667,-0.144444444,0,0,0,,,,,,,PARADE,LB,m,y,./images/PARADELB.png,,,,,,,,,,,,,,,,,,,,,m,1,0.631,,,,,,,,0,146,146,17,1
,,,,,,,,,,,,,,,,,,21,2022-02-12_12h18.04.936,lexical_decision_task_DD_L4,2021.2.3,MacIntel,62.5,,,,,,,,,,,0.638,1,,,,,,,,,,,,,,,,,,,,,,,,0.106666667,-0.144444444,0,0,0,,,,,,,PENCE,HB,z,y,./images/PENCEHB.png,,,,,,,,,,,,,,,,,,,,,z,1,0.638,,,,,,,,0,147,147,100,1
,,,,,,,,,,,,,,,,,,21,2022-02-12_12h18.04.936,lexical_decision_task_DD_L4,2021.2.3,MacIntel,62.5,,,,,,,,,,,0.714,1,,,,,,,,,,,,,,,,,,,,,,,,0.106666667,-0.144444444,0,0,0,,,,,,,VALLEY,LB,m,y,./images/VALLEYLB.png,,,,,,,,,,,,,,,,,,,,,m,1,0.714,,,,,,,,0,148,148,68,1
,,,,,,,,,,,,,,,,,,21,2022-02-12_12h18.04.936,lexical_decision_task_DD_L4,2021.2.3,MacIntel,62.5,,,,,,,,,,,0.548,0,,,,,,,,,,,,,,,,,,,,,,,,0.106666667,-0.144444444,0,0,0,,,,,,,TRIPOD,C,z,y,./images/TRIPOD.png,,,,,,,,,,,,,,,,,,,,,m,0,0.548,,,,,,,,0,149,149,138,1
,,,,,,,,,,,,,,,,,,21,2022-02-12_12h18.04.936,lexical_decision_task_DD_L4,2021.2.3,MacIntel,62.5,,,,,,,,,,,1.032,1,,,,,,,,,,,,,,,,,,,,,,,,0.106666667,-0.144444444,0,0,0,,,,,,,BUNNY,HB,m,y,./images/BUNNYHB.png,,,,,,,,,,,,,,,,,,,,,m,1,1.032,,,,,,,,0,150,150,13,1
,,,,,,,,,,,,,,,,,,21,2022-02-12_12h18.04.936,lexical_decision_task_DD_L4,2021.2.3,MacIntel,62.5,,,,,,,,,,,0.63,1,,,,,,,,,,,,,,,,,,,,,,,,0.106666667,-0.144444444,0,0,0,,,,,,,SHORE,C,z,y,./images/SHORE.png,,,,,,,,,,,,,,,,,,,,,z,1,0.63,,,,,,,,0,151,151,96,1
,,,,,,,,,,,,,,,,,,21,2022-02-12_12h18.04.936,lexical_decision_task_DD_L4,2021.2.3,MacIntel,62.5,,,,,,,,,,,0.798,1,,,,,,,,,,,,,,,,,,,,,,,,0.106666667,-0.144444444,0,0,0,,,,,,,BOILER,C,m,y,./images/BOILER.png,,,,,,,,,,,,,,,,,,,,,m,1,0.798,,,,,,,,0,152,152,36,1
,,,,,,,,,,,,,,,,,,21,2022-02-12_12h18.04.936,lexical_decision_task_DD_L4,2021.2.3,MacIntel,62.5,,,,,,,,,,,0.598,0,,,,,,,,,,,,,,,,,,,,,,,,0.106666667,-0.144444444,0,0,0,,,,,,,SLOPE,C,m,y,./images/SLOPE.png,,,,,,,,,,,,,,,,,,,,,z,0,0.598,,,,,,,,0,153,153,30,1
,,,,,,,,,,,,,,,,,,21,2022-02-12_12h18.04.936,lexical_decision_task_DD_L4,2021.2.3,MacIntel,62.5,,,,,,,,,,,0.649,1,,,,,,,,,,,,,,,,,,,,,,,,0.106666667,-0.144444444,0,0,0,,,,,,,CRUST,HB,z,y,./images/CRUSTHB.png,,,,,,,,,,,,,,,,,,,,,z,1,0.649,,,,,,,,0,154,154,163,1
,,,,,,,,,,,,,,,,,,21,2022-02-12_12h18.04.936,lexical_decision_task_DD_L4,2021.2.3,MacIntel,62.5,,,,,,,,,,,0.763,1,,,,,,,,,,,,,,,,,,,,,,,,0.106666667,-0.144444444,0,0,0,,,,,,,MAMMAL,LB,m,y,./images/MAMMALLB.png,,,,,,,,,,,,,,,,,,,,,m,1,0.763,,,,,,,,0,155,155,62,1
,,,,,,,,,,,,,,,,,,21,2022-02-12_12h18.04.936,lexical_decision_task_DD_L4,2021.2.3,MacIntel,62.5,,,,,,,,,,,0.814,0,,,,,,,,,,,,,,,,,,,,,,,,0.106666667,-0.144444444,0,0,0,,,,,,,LIZARD,LB,z,y,./images/LIZARDLB.png,,,,,,,,,,,,,,,,,,,,,m,0,0.814,,,,,,,,0,156,156,128,1
,,,,,,,,,,,,,,,,,,21,2022-02-12_12h18.04.936,lexical_decision_task_DD_L4,2021.2.3,MacIntel,62.5,,,,,,,,,,,0.647,1,,,,,,,,,,,,,,,,,,,,,,,,0.106666667,-0.144444444,0,0,0,,,,,,,FLASK,C,m,y,./images/FLASK.png,,,,,,,,,,,,,,,,,,,,,m,1,0.647,,,,,,,,0,157,157,72,1
,,,,,,,,,,,,,,,,,,21,2022-02-12_12h18.04.936,lexical_decision_task_DD_L4,2021.2.3,MacIntel,62.5,,,,,,,,,,,0.715,0,,,,,,,,,,,,,,,,,,,,,,,,0.106666667,-0.144444444,0,0,0,,,,,,,GARDEN,HB,m,y,./images/GARDENHB.png,,,,,,,,,,,,,,,,,,,,,z,0,0.715,,,,,,,,0,158,158,10,1
,,,,,,,,,,,,,,,,,,21,2022-02-12_12h18.04.936,lexical_decision_task_DD_L4,2021.2.3,MacIntel,62.5,,,,,,,,,,,0.716,1,,,,,,,,,,,,,,,,,,,,,,,,0.106666667,-0.144444444,0,0,0,,,,,,,CLIFF,LB,m,y,./images/CLIFFLB.png,,,,,,,,,,,,,,,,,,,,,m,1,0.716,,,,,,,,0,159,159,8,1
,,,,,,,,,,,,,,,,,,21,2022-02-12_12h18.04.936,lexical_decision_task_DD_L4,2021.2.3,MacIntel,62.5,,,,,,,,,,,0.599,1,,,,,,,,,,,,,,,,,,,,,,,,0.106666667,-0.144444444,0,0,0,,,,,,,MOTOR,HB,z,y,./images/MOTORHB.png,,,,,,,,,,,,,,,,,,,,,z,1,0.599,,,,,,,,0,160,160,97,1
,,,,,,,,,,,,,,,,,,21,2022-02-12_12h18.04.936,lexical_decision_task_DD_L4,2021.2.3,MacIntel,62.5,,,,,,,,,,,0.764,1,,,,,,,,,,,,,,,,,,,,,,,,0.106666667,-0.144444444,0,0,0,,,,,,,ENGINE,LB,m,y,./images/ENGINELB.png,,,,,,,,,,,,,,,,,,,,,m,1,0.764,,,,,,,,0,161,161,38,1
,,,,,,,,,,,,,,,,,,21,2022-02-12_12h18.04.936,lexical_decision_task_DD_L4,2021.2.3,MacIntel,62.5,,,,,,,,,,,0.98,0,,,,,,,,,,,,,,,,,,,,,,,,0.106666667,-0.144444444,0,0,0,,,,,,,WALNUT,C,m,y,./images/WALNUT.png,,,,,,,,,,,,,,,,,,,,,z,0,0.98,,,,,,,,0,162,162,0,1
,,,,,,,,,,,,,,,,,,21,2022-02-12_12h18.04.936,lexical_decision_task_DD_L4,2021.2.3,MacIntel,62.5,,,,,,,,,,,0.833,0,,,,,,,,,,,,,,,,,,,,,,,,0.106666667,-0.144444444,0,0,0,,,,,,,PEBBLE,HB,m,y,./images/PEBBLEHB.png,,,,,,,,,,,,,,,,,,,,,z,0,0.833,,,,,,,,0,163,163,82,1
,,,,,,,,,,,,,,,,,,21,2022-02-12_12h18.04.936,lexical_decision_task_DD_L4,2021.2.3,MacIntel,62.5,,,,,,,,,,,0.781,0,,,,,,,,,,,,,,,,,,,,,,,,0.106666667,-0.144444444,0,0,0,,,,,,,MAGGOT,C,z,y,./images/MAGGOT.png,,,,,,,,,,,,,,,,,,,,,m,0,0.781,,,,,,,,0,164,164,117,1
,,,,,,,,,,,,,,,,,,21,2022-02-12_12h18.04.936,lexical_decision_task_DD_L4,2021.2.3,MacIntel,62.5,,,,,,,,,,,0.498,0,,,,,,,,,,,,,,,,,,,,,,,,0.106666667,-0.144444444,0,0,0,,,,,,,LADDER,LB,z,y,./images/LADDERLB.png,,,,,,,,,,,,,,,,,,,,,m,0,0.498,,,,,,,,0,165,165,122,1
,,,,,,,,,,,,,,,,,,21,2022-02-12_12h18.04.936,lexical_decision_task_DD_L4,2021.2.3,MacIntel,62.5,,,,,,,,,,,1.148,0,,,,,,,,,,,,,,,,,,,,,,,,0.106666667,-0.144444444,0,0,0,,,,,,,STATUE,C,m,y,./images/STATUE.png,,,,,,,,,,,,,,,,,,,,,z,0,1.148,,,,,,,,0,166,166,66,1
,,,,,,,,,,,,,,,,,,21,2022-02-12_12h18.04.936,lexical_decision_task_DD_L4,2021.2.3,MacIntel,62.5,,,,,,,,,,,1.181,0,,,,,,,,,,,,,,,,,,,,,,,,0.106666667,-0.144444444,0,0,0,,,,,,,SPINE,LB,m,y,./images/SPINELB.png,,,,,,,,,,,,,,,,,,,,,z,0,1.181,,,,,,,,0,167,167,65,1
