key_resp.keys,key_resp.rt,instr_done_touch.x,instr_done_touch.y,instr_done_touch.leftButton,instr_done_touch.midButton,instr_done_touch.rightButton,instruction_pages.thisRepN,instruction_pages.thisTrialN,instruction_pages.thisN,instruction_pages.thisIndex,instruction_pages.ran,pageN,phase,instruct_text,has_image,instruct_image,participant,age,date,expName,psychopyVersion,OS,frameRate,response.keys,response.corr,response.rt,touch_resp.x,touch_resp.y,touch_resp.leftButton,touch_resp.midButton,touch_resp.rightButton,touch_resp.time,touch_resp.clicked_name,rt,corr,practrials.thisRepN,practrials.thisTrialN,practrials.thisN,practrials.thisIndex,practrials.ran,TrialID,Target,corrAns,end_of_practice_trials_pages.thisRepN,end_of_practice_trials_pages.thisTrialN,end_of_practice_trials_pages.thisN,end_of_practice_trials_pages.thisIndex,end_of_practice_trials_pages.ran,key_resp_2.keys,key_resp_2.corr,key_resp_2.rt,targ_click.x,targ_click.y,targ_click.leftButton,targ_click.midButton,targ_click.rightButton,targ_click.time,targ_click.clicked_name,break_done_touch.x,break_done_touch.y,break_done_touch.leftButton,break_done_touch.midButton,break_done_touch.rightButton,break_done_keyboard.keys,maintrials.thisRepN,maintrials.thisTrialN,maintrials.thisN,maintrials.thisIndex,maintrials.ran,string,blur,study,lex,stim_path,break_done_keyboard.rt,mouse_2.x,mouse_2.y,mouse_2.leftButton,mouse_2.midButton,mouse_2.rightButton,mouse_2.clicked_name,slider.response,slider.rt,trials.thisRepN,trials.thisTrialN,trials.thisN,trials.thisIndex,trials.ran,test_instructions.thisRepN,test_instructions.thisTrialN,test_instructions.thisN,test_instructions.thisIndex,test_instructions.ran,instr_done_touch.clicked_name,key_resp_3.keys,key_resp_3.corr,key_resp_3.rt,test_click.x,test_click.y,test_click.leftButton,test_click.midButton,test_click.rightButton,test_click.time,test_click.clicked_name,test_phase.thisRepN,test_phase.thisTrialN,test_phase.thisN,test_phase.thisIndex,test_phase.ran
space,32.2137,0.132531087,-0.26995484,0,0,0,0,0,0,0,1,1,instructions,"INSTRUCTIONS
At the start of each trial, look at the plus sign  (+) in the center of the screen.  This tells you that a trial is about to begin and where to look. Second, the plus sign will disappear and a string of letters will appear. Your task is to determine if the string of letters is a word or not. If the item is a word press the M key (on keyboard)  or touch the word button (phone/tablet).  If the item is not a word,  press the  Z key (on keyboard)  or touch the nonword button (on phone/tablet). 
Press the space bar or touch  continue.",0,,,39,2022-02-12_12h45.07.527,lexical_decision_task_DD_L4,2021.2.3,Linux x86_64,60.09254252,,,,,,,,,,,,,,,,,,,,,,,,,,,,,,,,,,,,,,,,,,,,,,,,,,,,,,,,,,,,,,,,,,,,,,,,,,,,,,,,,,,,,,
space,7.2166,0.132531087,-0.26995484,0,0,0,0,1,1,1,1,2,instructions,"If your device has a keyboard, press the 'Z' key for nonwords and the 'M' key for words.





Press the space bar or touch the button below to continue.",0,keyboard-example.gif,,39,2022-02-12_12h45.07.527,lexical_decision_task_DD_L4,2021.2.3,Linux x86_64,60.09254252,,,,,,,,,,,,,,,,,,,,,,,,,,,,,,,,,,,,,,,,,,,,,,,,,,,,,,,,,,,,,,,,,,,,,,,,,,,,,,,,,,,,,,
space,4.623,0.132531087,-0.26995484,0,0,0,0,2,2,2,1,3,instructions,"If you are using a touchscreen only device, use the buttons on the screen. Do not use the mouse.





Press the space bar or touch the button below to continue.",0,touchscreen-example.gif,,39,2022-02-12_12h45.07.527,lexical_decision_task_DD_L4,2021.2.3,Linux x86_64,60.09254252,,,,,,,,,,,,,,,,,,,,,,,,,,,,,,,,,,,,,,,,,,,,,,,,,,,,,,,,,,,,,,,,,,,,,,,,,,,,,,,,,,,,,,
space,17.0817,0.129153411,-0.26995484,0,0,0,0,3,3,3,1,4,instructions,"It is very important that you respond as quickly and accurately as possible, as each letter string will only be on the screen for two seconds. If you do not respond within this time, the message 'Too slow!' will be displayed and the experiment will progress to the next letter string. The first 20 trials will be practice trials and you will receive feedback on your answers. 

Press the space bar or touch the button below to start the practice trials.",0,,,39,2022-02-12_12h45.07.527,lexical_decision_task_DD_L4,2021.2.3,Linux x86_64,60.09254252,,,,,,,,,,,,,,,,,,,,,,,,,,,,,,,,,,,,,,,,,,,,,,,,,,,,,,,,,,,,,,,,,,,,,,,,,,,,,,,,,,,,,,
,,,,,,,,,,,,,,,,,,39,2022-02-12_12h45.07.527,lexical_decision_task_DD_L4,2021.2.3,Linux x86_64,60.09254252,m,1,0.5781,,,,,,,,0.5781,1,0,0,0,3,1,1001,MATRIX,m,,,,,,,,,,,,,,,,,,,,,,,,,,,,,,,,,,,,,,,,,,,,,,,,,,,,,,,,,,,,,,,,,,
,,,,,,,,,,,,,,,,,,39,2022-02-12_12h45.07.527,lexical_decision_task_DD_L4,2021.2.3,Linux x86_64,60.09254252,m,1,0.5532,,,,,,,,0.5532,1,0,1,1,2,1,1001,ALMOND,m,,,,,,,,,,,,,,,,,,,,,,,,,,,,,,,,,,,,,,,,,,,,,,,,,,,,,,,,,,,,,,,,,,
,,,,,,,,,,,,,,,,,,39,2022-02-12_12h45.07.527,lexical_decision_task_DD_L4,2021.2.3,Linux x86_64,60.09254252,z,1,0.7984,,,,,,,,0.7984,1,0,2,2,9,1,1001,FARINY,z,,,,,,,,,,,,,,,,,,,,,,,,,,,,,,,,,,,,,,,,,,,,,,,,,,,,,,,,,,,,,,,,,,
,,,,,,,,,,,,,,,,,,39,2022-02-12_12h45.07.527,lexical_decision_task_DD_L4,2021.2.3,Linux x86_64,60.09254252,m,1,0.5367,,,,,,,,0.5367,1,0,3,3,1,1,1001,ADJUST,m,,,,,,,,,,,,,,,,,,,,,,,,,,,,,,,,,,,,,,,,,,,,,,,,,,,,,,,,,,,,,,,,,,
,,,,,,,,,,,,,,,,,,39,2022-02-12_12h45.07.527,lexical_decision_task_DD_L4,2021.2.3,Linux x86_64,60.09254252,m,1,0.5649,,,,,,,,0.5649,1,0,4,4,0,1,1001,UTOPIA,m,,,,,,,,,,,,,,,,,,,,,,,,,,,,,,,,,,,,,,,,,,,,,,,,,,,,,,,,,,,,,,,,,,
,,,,,,,,,,,,,,,,,,39,2022-02-12_12h45.07.527,lexical_decision_task_DD_L4,2021.2.3,Linux x86_64,60.09254252,z,1,0.8659,,,,,,,,0.8659,1,0,5,5,13,1,1001,ROUPET,z,,,,,,,,,,,,,,,,,,,,,,,,,,,,,,,,,,,,,,,,,,,,,,,,,,,,,,,,,,,,,,,,,,
,,,,,,,,,,,,,,,,,,39,2022-02-12_12h45.07.527,lexical_decision_task_DD_L4,2021.2.3,Linux x86_64,60.09254252,z,1,0.9156,,,,,,,,0.9156,1,0,6,6,11,1,1001,RASHET,z,,,,,,,,,,,,,,,,,,,,,,,,,,,,,,,,,,,,,,,,,,,,,,,,,,,,,,,,,,,,,,,,,,
,,,,,,,,,,,,,,,,,,39,2022-02-12_12h45.07.527,lexical_decision_task_DD_L4,2021.2.3,Linux x86_64,60.09254252,m,1,0.6654,,,,,,,,0.6654,1,0,7,7,7,1,1001,VOLUME,m,,,,,,,,,,,,,,,,,,,,,,,,,,,,,,,,,,,,,,,,,,,,,,,,,,,,,,,,,,,,,,,,,,
,,,,,,,,,,,,,,,,,,39,2022-02-12_12h45.07.527,lexical_decision_task_DD_L4,2021.2.3,Linux x86_64,60.09254252,z,1,1.5067,,,,,,,,1.5067,1,0,8,8,10,1,1001,INLADE,z,,,,,,,,,,,,,,,,,,,,,,,,,,,,,,,,,,,,,,,,,,,,,,,,,,,,,,,,,,,,,,,,,,
,,,,,,,,,,,,,,,,,,39,2022-02-12_12h45.07.527,lexical_decision_task_DD_L4,2021.2.3,Linux x86_64,60.09254252,m,1,0.6839,,,,,,,,0.6839,1,0,9,9,6,1,1001,ZOMBIE,m,,,,,,,,,,,,,,,,,,,,,,,,,,,,,,,,,,,,,,,,,,,,,,,,,,,,,,,,,,,,,,,,,,
,,,,,,,,,,,,,,,,,,39,2022-02-12_12h45.07.527,lexical_decision_task_DD_L4,2021.2.3,Linux x86_64,60.09254252,m,1,0.6378,,,,,,,,0.6378,1,0,10,10,4,1,1001,SQUEAK,m,,,,,,,,,,,,,,,,,,,,,,,,,,,,,,,,,,,,,,,,,,,,,,,,,,,,,,,,,,,,,,,,,,
,,,,,,,,,,,,,,,,,,39,2022-02-12_12h45.07.527,lexical_decision_task_DD_L4,2021.2.3,Linux x86_64,60.09254252,z,1,0.7988,,,,,,,,0.7988,1,0,11,11,14,1,1001,THRALE,z,,,,,,,,,,,,,,,,,,,,,,,,,,,,,,,,,,,,,,,,,,,,,,,,,,,,,,,,,,,,,,,,,,
,,,,,,,,,,,,,,,,,,39,2022-02-12_12h45.07.527,lexical_decision_task_DD_L4,2021.2.3,Linux x86_64,60.09254252,z,1,0.9368,,,,,,,,0.9368,1,0,12,12,12,1,1001,SPRINY,z,,,,,,,,,,,,,,,,,,,,,,,,,,,,,,,,,,,,,,,,,,,,,,,,,,,,,,,,,,,,,,,,,,
,,,,,,,,,,,,,,,,,,39,2022-02-12_12h45.07.527,lexical_decision_task_DD_L4,2021.2.3,Linux x86_64,60.09254252,z,1,1.0506,,,,,,,,1.0506,1,0,13,13,15,1,1001,WHAISE,z,,,,,,,,,,,,,,,,,,,,,,,,,,,,,,,,,,,,,,,,,,,,,,,,,,,,,,,,,,,,,,,,,,
,,,,,,,,,,,,,,,,,,39,2022-02-12_12h45.07.527,lexical_decision_task_DD_L4,2021.2.3,Linux x86_64,60.09254252,m,1,0.8475,,,,,,,,0.8475,1,0,14,14,5,1,1001,OBTAIN,m,,,,,,,,,,,,,,,,,,,,,,,,,,,,,,,,,,,,,,,,,,,,,,,,,,,,,,,,,,,,,,,,,,
,,,,,,,,,,,,,,,,,,39,2022-02-12_12h45.07.527,lexical_decision_task_DD_L4,2021.2.3,Linux x86_64,60.09254252,z,1,0.8064,,,,,,,,0.8064,1,0,15,15,8,1,1001,ASLERT,z,,,,,,,,,,,,,,,,,,,,,,,,,,,,,,,,,,,,,,,,,,,,,,,,,,,,,,,,,,,,,,,,,,
space,30.5724,0.129153411,-0.26995484,0,0,0,,,,,,1,end_of_practice,"You have completed the practice trials. During the experimental trials, you will not receive feedback. 
Before you begin, please ensure that you are in a comfortable and quiet location and will not be disturbed for about 15 minutes, as we cannot use your data if you do not complete all the trials. 
 When you are ready to start the experimental trials, please press space or touch the button below.",,,,39,2022-02-12_12h45.07.527,lexical_decision_task_DD_L4,2021.2.3,Linux x86_64,60.09254252,,,,,,,,,,,,,,,,,,,,,0,0,0,0,1,,,,,,,,,,,,,,,,,,,,,,,,,,,,,,,,,,,,,,,,,,,,,,,,,,,,,,,,,,,,,
,,,,,,,,,,,,,,,,,,39,2022-02-12_12h45.07.527,lexical_decision_task_DD_L4,2021.2.3,Linux x86_64,60.09254252,,,,,,,,,,,2.2912,1,,,,,,,,,,,,,,z,1,2.2912,,,,,,,,0.129153411,-0.26995484,0,0,0,,0,0,0,163,1,GAMBA,HB,old,z,./images/GAMBAHB.png,,,,,,,,,,,,,,,,,,,,,,,,,,,,,,,,,,,
,,,,,,,,,,,,,,,,,,39,2022-02-12_12h45.07.527,lexical_decision_task_DD_L4,2021.2.3,Linux x86_64,60.09254252,,,,,,,,,,,1.164,1,,,,,,,,,,,,,,z,1,1.164,,,,,,,,0.129153411,-0.26995484,0,0,0,,0,1,1,136,1,WERVE,HB,old,z,./images/WERVEHB.png,,,,,,,,,,,,,,,,,,,,,,,,,,,,,,,,,,,
,,,,,,,,,,,,,,,,,,39,2022-02-12_12h45.07.527,lexical_decision_task_DD_L4,2021.2.3,Linux x86_64,60.09254252,,,,,,,,,,,1.1489,1,,,,,,,,,,,,,,m,1,1.1489,,,,,,,,0.129153411,-0.26995484,0,0,0,,0,2,2,37,1,TIGER,HB,old,m,./images/TIGERHB.png,,,,,,,,,,,,,,,,,,,,,,,,,,,,,,,,,,,
,,,,,,,,,,,,,,,,,,39,2022-02-12_12h45.07.527,lexical_decision_task_DD_L4,2021.2.3,Linux x86_64,60.09254252,,,,,,,,,,,1.8264,1,,,,,,,,,,,,,,z,1,1.8264,,,,,,,,0.129153411,-0.26995484,0,0,0,,0,3,3,130,1,CRILL,HB,old,z,./images/CRILLHB.png,,,,,,,,,,,,,,,,,,,,,,,,,,,,,,,,,,,
,,,,,,,,,,,,,,,,,,39,2022-02-12_12h45.07.527,lexical_decision_task_DD_L4,2021.2.3,Linux x86_64,60.09254252,,,,,,,,,,,0.8754,1,,,,,,,,,,,,,,m,1,0.8754,,,,,,,,0.129153411,-0.26995484,0,0,0,,0,4,4,21,1,DANCER,C,old,m,./images/DANCER.png,,,,,,,,,,,,,,,,,,,,,,,,,,,,,,,,,,,
,,,,,,,,,,,,,,,,,,39,2022-02-12_12h45.07.527,lexical_decision_task_DD_L4,2021.2.3,Linux x86_64,60.09254252,,,,,,,,,,,0.7158,1,,,,,,,,,,,,,,z,1,0.7158,,,,,,,,0.129153411,-0.26995484,0,0,0,,0,5,5,125,1,MOOKY,LB,old,z,./images/MOOKYLB.png,,,,,,,,,,,,,,,,,,,,,,,,,,,,,,,,,,,
,,,,,,,,,,,,,,,,,,39,2022-02-12_12h45.07.527,lexical_decision_task_DD_L4,2021.2.3,Linux x86_64,60.09254252,,,,,,,,,,,0.6984,1,,,,,,,,,,,,,,m,1,0.6984,,,,,,,,0.129153411,-0.26995484,0,0,0,,0,6,6,27,1,BUTTER,C,old,m,./images/BUTTER.png,,,,,,,,,,,,,,,,,,,,,,,,,,,,,,,,,,,
,,,,,,,,,,,,,,,,,,39,2022-02-12_12h45.07.527,lexical_decision_task_DD_L4,2021.2.3,Linux x86_64,60.09254252,,,,,,,,,,,0.7247,1,,,,,,,,,,,,,,z,1,0.7247,,,,,,,,0.129153411,-0.26995484,0,0,0,,0,7,7,98,1,BAMPS,LB,old,z,./images/BAMPSLB.png,,,,,,,,,,,,,,,,,,,,,,,,,,,,,,,,,,,
,,,,,,,,,,,,,,,,,,39,2022-02-12_12h45.07.527,lexical_decision_task_DD_L4,2021.2.3,Linux x86_64,60.09254252,,,,,,,,,,,1.0341,1,,,,,,,,,,,,,,m,1,1.0341,,,,,,,,0.129153411,-0.26995484,0,0,0,,0,8,8,70,1,BANANA,HB,old,m,./images/BANANAHB.png,,,,,,,,,,,,,,,,,,,,,,,,,,,,,,,,,,,
,,,,,,,,,,,,,,,,,,39,2022-02-12_12h45.07.527,lexical_decision_task_DD_L4,2021.2.3,Linux x86_64,60.09254252,,,,,,,,,,,0.9137,1,,,,,,,,,,,,,,m,1,0.9137,,,,,,,,0.129153411,-0.26995484,0,0,0,,0,9,9,12,1,BLOKE,C,old,m,./images/BLOKE.png,,,,,,,,,,,,,,,,,,,,,,,,,,,,,,,,,,,
,,,,,,,,,,,,,,,,,,39,2022-02-12_12h45.07.527,lexical_decision_task_DD_L4,2021.2.3,Linux x86_64,60.09254252,,,,,,,,,,,0.882,1,,,,,,,,,,,,,,z,1,0.882,,,,,,,,0.129153411,-0.26995484,0,0,0,,0,10,10,149,1,VEASE,LB,old,z,./images/VEASELB.png,,,,,,,,,,,,,,,,,,,,,,,,,,,,,,,,,,,
,,,,,,,,,,,,,,,,,,39,2022-02-12_12h45.07.527,lexical_decision_task_DD_L4,2021.2.3,Linux x86_64,60.09254252,,,,,,,,,,,0.7632,1,,,,,,,,,,,,,,z,1,0.7632,,,,,,,,0.129153411,-0.26995484,0,0,0,,0,11,11,131,1,NACES,LB,old,z,./images/NACESLB.png,,,,,,,,,,,,,,,,,,,,,,,,,,,,,,,,,,,
,,,,,,,,,,,,,,,,,,39,2022-02-12_12h45.07.527,lexical_decision_task_DD_L4,2021.2.3,Linux x86_64,60.09254252,,,,,,,,,,,0.9774,1,,,,,,,,,,,,,,m,1,0.9774,,,,,,,,0.129153411,-0.26995484,0,0,0,,0,12,12,32,1,HOCKEY,LB,old,m,./images/HOCKEYLB.png,,,,,,,,,,,,,,,,,,,,,,,,,,,,,,,,,,,
,,,,,,,,,,,,,,,,,,39,2022-02-12_12h45.07.527,lexical_decision_task_DD_L4,2021.2.3,Linux x86_64,60.09254252,,,,,,,,,,,1.1155,1,,,,,,,,,,,,,,m,1,1.1155,,,,,,,,0.129153411,-0.26995484,0,0,0,,0,13,13,40,1,SNAKE,HB,old,m,./images/SNAKEHB.png,,,,,,,,,,,,,,,,,,,,,,,,,,,,,,,,,,,
,,,,,,,,,,,,,,,,,,39,2022-02-12_12h45.07.527,lexical_decision_task_DD_L4,2021.2.3,Linux x86_64,60.09254252,,,,,,,,,,,0.7216,1,,,,,,,,,,,,,,z,1,0.7216,,,,,,,,0.129153411,-0.26995484,0,0,0,,0,14,14,108,1,GRUET,C,old,z,./images/GRUET.png,,,,,,,,,,,,,,,,,,,,,,,,,,,,,,,,,,,
,,,,,,,,,,,,,,,,,,39,2022-02-12_12h45.07.527,lexical_decision_task_DD_L4,2021.2.3,Linux x86_64,60.09254252,,,,,,,,,,,1.1439,1,,,,,,,,,,,,,,z,1,1.1439,,,,,,,,0.129153411,-0.26995484,0,0,0,,0,15,15,151,1,TINKY,HB,old,z,./images/TINKYHB.png,,,,,,,,,,,,,,,,,,,,,,,,,,,,,,,,,,,
,,,,,,,,,,,,,,,,,,39,2022-02-12_12h45.07.527,lexical_decision_task_DD_L4,2021.2.3,Linux x86_64,60.09254252,,,,,,,,,,,0.7886,1,,,,,,,,,,,,,,z,1,0.7886,,,,,,,,0.129153411,-0.26995484,0,0,0,,0,16,16,102,1,DULLE,C,old,z,./images/DULLE.png,,,,,,,,,,,,,,,,,,,,,,,,,,,,,,,,,,,
,,,,,,,,,,,,,,,,,,39,2022-02-12_12h45.07.527,lexical_decision_task_DD_L4,2021.2.3,Linux x86_64,60.09254252,,,,,,,,,,,0.5806,1,,,,,,,,,,,,,,m,1,0.5806,,,,,,,,0.129153411,-0.26995484,0,0,0,,0,17,17,6,1,STAIN,C,old,m,./images/STAIN.png,,,,,,,,,,,,,,,,,,,,,,,,,,,,,,,,,,,
,,,,,,,,,,,,,,,,,,39,2022-02-12_12h45.07.527,lexical_decision_task_DD_L4,2021.2.3,Linux x86_64,60.09254252,,,,,,,,,,,0.6243,1,,,,,,,,,,,,,,z,1,0.6243,,,,,,,,0.129153411,-0.26995484,0,0,0,,0,18,18,135,1,JOODY,C,old,z,./images/JOODY.png,,,,,,,,,,,,,,,,,,,,,,,,,,,,,,,,,,,
,,,,,,,,,,,,,,,,,,39,2022-02-12_12h45.07.527,lexical_decision_task_DD_L4,2021.2.3,Linux x86_64,60.09254252,,,,,,,,,,,0.9668,1,,,,,,,,,,,,,,z,1,0.9668,,,,,,,,0.129153411,-0.26995484,0,0,0,,0,19,19,160,1,VEETS,HB,old,z,./images/VEETSHB.png,,,,,,,,,,,,,,,,,,,,,,,,,,,,,,,,,,,
,,,,,,,,,,,,,,,,,,39,2022-02-12_12h45.07.527,lexical_decision_task_DD_L4,2021.2.3,Linux x86_64,60.09254252,,,,,,,,,,,1.847,1,,,,,,,,,,,,,,z,1,1.847,,,,,,,,0.129153411,-0.26995484,0,0,0,,0,20,20,144,1,NAIRY,C,old,z,./images/NAIRY.png,,,,,,,,,,,,,,,,,,,,,,,,,,,,,,,,,,,
,,,,,,,,,,,,,,,,,,39,2022-02-12_12h45.07.527,lexical_decision_task_DD_L4,2021.2.3,Linux x86_64,60.09254252,,,,,,,,,,,1.1482,1,,,,,,,,,,,,,,z,1,1.1482,,,,,,,,0.129153411,-0.26995484,0,0,0,,0,21,21,133,1,POWDY,HB,old,z,./images/POWDYHB.png,,,,,,,,,,,,,,,,,,,,,,,,,,,,,,,,,,,
,,,,,,,,,,,,,,,,,,39,2022-02-12_12h45.07.527,lexical_decision_task_DD_L4,2021.2.3,Linux x86_64,60.09254252,,,,,,,,,,,0.8163,1,,,,,,,,,,,,,,z,1,0.8163,,,,,,,,0.129153411,-0.26995484,0,0,0,,0,22,22,158,1,EGECT,LB,old,z,./images/EGECTLB.png,,,,,,,,,,,,,,,,,,,,,,,,,,,,,,,,,,,
,,,,,,,,,,,,,,,,,,39,2022-02-12_12h45.07.527,lexical_decision_task_DD_L4,2021.2.3,Linux x86_64,60.09254252,,,,,,,,,,,0.8784,1,,,,,,,,,,,,,,z,1,0.8784,,,,,,,,0.129153411,-0.26995484,0,0,0,,0,23,23,101,1,GLEET,LB,old,z,./images/GLEETLB.png,,,,,,,,,,,,,,,,,,,,,,,,,,,,,,,,,,,
,,,,,,,,,,,,,,,,,,39,2022-02-12_12h45.07.527,lexical_decision_task_DD_L4,2021.2.3,Linux x86_64,60.09254252,,,,,,,,,,,0.6264,1,,,,,,,,,,,,,,m,1,0.6264,,,,,,,,0.129153411,-0.26995484,0,0,0,,0,24,24,80,1,PLANET,LB,old,m,./images/PLANETLB.png,,,,,,,,,,,,,,,,,,,,,,,,,,,,,,,,,,,
,,,,,,,,,,,,,,,,,,39,2022-02-12_12h45.07.527,lexical_decision_task_DD_L4,2021.2.3,Linux x86_64,60.09254252,,,,,,,,,,,0.7593,1,,,,,,,,,,,,,,m,1,0.7593,,,,,,,,0.129153411,-0.26995484,0,0,0,,0,25,25,5,1,BAMBOO,LB,old,m,./images/BAMBOOLB.png,,,,,,,,,,,,,,,,,,,,,,,,,,,,,,,,,,,
,,,,,,,,,,,,,,,,,,39,2022-02-12_12h45.07.527,lexical_decision_task_DD_L4,2021.2.3,Linux x86_64,60.09254252,,,,,,,,,,,1.0946,1,,,,,,,,,,,,,,m,1,1.0946,,,,,,,,0.129153411,-0.26995484,0,0,0,,0,26,26,61,1,ARTIST,HB,old,m,./images/ARTISTHB.png,,,,,,,,,,,,,,,,,,,,,,,,,,,,,,,,,,,
,,,,,,,,,,,,,,,,,,39,2022-02-12_12h45.07.527,lexical_decision_task_DD_L4,2021.2.3,Linux x86_64,60.09254252,,,,,,,,,,,1.0265,1,,,,,,,,,,,,,,m,1,1.0265,,,,,,,,0.129153411,-0.26995484,0,0,0,,0,27,27,76,1,MIDGET,HB,old,m,./images/MIDGETHB.png,,,,,,,,,,,,,,,,,,,,,,,,,,,,,,,,,,,
,,,,,,,,,,,,,,,,,,39,2022-02-12_12h45.07.527,lexical_decision_task_DD_L4,2021.2.3,Linux x86_64,60.09254252,,,,,,,,,,,1.4468,1,,,,,,,,,,,,,,z,1,1.4468,,,,,,,,0.129153411,-0.26995484,0,0,0,,0,28,28,100,1,DRIBS,HB,old,z,./images/DRIBSHB.png,,,,,,,,,,,,,,,,,,,,,,,,,,,,,,,,,,,
,,,,,,,,,,,,,,,,,,39,2022-02-12_12h45.07.527,lexical_decision_task_DD_L4,2021.2.3,Linux x86_64,60.09254252,,,,,,,,,,,0.8958,1,,,,,,,,,,,,,,z,1,0.8958,,,,,,,,0.129153411,-0.26995484,0,0,0,,0,29,29,152,1,FRAIN,LB,old,z,./images/FRAINLB.png,,,,,,,,,,,,,,,,,,,,,,,,,,,,,,,,,,,
,,,,,,,,,,,,,,,,,,39,2022-02-12_12h45.07.527,lexical_decision_task_DD_L4,2021.2.3,Linux x86_64,60.09254252,,,,,,,,,,,0.8634,1,,,,,,,,,,,,,,m,1,0.8634,,,,,,,,0.129153411,-0.26995484,0,0,0,,0,30,30,25,1,CHALK,HB,old,m,./images/CHALKHB.png,,,,,,,,,,,,,,,,,,,,,,,,,,,,,,,,,,,
,,,,,,,,,,,,,,,,,,39,2022-02-12_12h45.07.527,lexical_decision_task_DD_L4,2021.2.3,Linux x86_64,60.09254252,,,,,,,,,,,1.0778,1,,,,,,,,,,,,,,z,1,1.0778,,,,,,,,0.129153411,-0.26995484,0,0,0,,0,31,31,92,1,PAIMS,LB,old,z,./images/PAIMSLB.png,,,,,,,,,,,,,,,,,,,,,,,,,,,,,,,,,,,
,,,,,,,,,,,,,,,,,,39,2022-02-12_12h45.07.527,lexical_decision_task_DD_L4,2021.2.3,Linux x86_64,60.09254252,,,,,,,,,,,2.3069,1,,,,,,,,,,,,,,z,1,2.3069,,,,,,,,0.129153411,-0.26995484,0,0,0,,0,32,32,157,1,INLER,HB,old,z,./images/INLERHB.png,,,,,,,,,,,,,,,,,,,,,,,,,,,,,,,,,,,
,,,,,,,,,,,,,,,,,,39,2022-02-12_12h45.07.527,lexical_decision_task_DD_L4,2021.2.3,Linux x86_64,60.09254252,,,,,,,,,,,0.8616,1,,,,,,,,,,,,,,z,1,0.8616,,,,,,,,0.129153411,-0.26995484,0,0,0,,0,33,33,164,1,SGREW,LB,old,z,./images/SGREWLB.png,,,,,,,,,,,,,,,,,,,,,,,,,,,,,,,,,,,
,,,,,,,,,,,,,,,,,,39,2022-02-12_12h45.07.527,lexical_decision_task_DD_L4,2021.2.3,Linux x86_64,60.09254252,,,,,,,,,,,0.6643,1,,,,,,,,,,,,,,m,1,0.6643,,,,,,,,0.129153411,-0.26995484,0,0,0,,0,34,34,60,1,CURRY,C,old,m,./images/CURRY.png,,,,,,,,,,,,,,,,,,,,,,,,,,,,,,,,,,,
,,,,,,,,,,,,,,,,,,39,2022-02-12_12h45.07.527,lexical_decision_task_DD_L4,2021.2.3,Linux x86_64,60.09254252,,,,,,,,,,,0.6095,1,,,,,,,,,,,,,,m,1,0.6095,,,,,,,,0.129153411,-0.26995484,0,0,0,,0,35,35,44,1,BASKET,LB,old,m,./images/BASKETLB.png,,,,,,,,,,,,,,,,,,,,,,,,,,,,,,,,,,,
,,,,,,,,,,,,,,,,,,39,2022-02-12_12h45.07.527,lexical_decision_task_DD_L4,2021.2.3,Linux x86_64,60.09254252,,,,,,,,,,,0.5826,1,,,,,,,,,,,,,,m,1,0.5826,,,,,,,,0.129153411,-0.26995484,0,0,0,,0,36,36,57,1,FERRY,C,old,m,./images/FERRY.png,,,,,,,,,,,,,,,,,,,,,,,,,,,,,,,,,,,
,,,,,,,,,,,,,,,,,,39,2022-02-12_12h45.07.527,lexical_decision_task_DD_L4,2021.2.3,Linux x86_64,60.09254252,,,,,,,,,,,0.4816,1,,,,,,,,,,,,,,m,1,0.4816,,,,,,,,0.129153411,-0.26995484,0,0,0,,0,37,37,39,1,CANDY,C,old,m,./images/CANDY.png,,,,,,,,,,,,,,,,,,,,,,,,,,,,,,,,,,,
,,,,,,,,,,,,,,,,,,39,2022-02-12_12h45.07.527,lexical_decision_task_DD_L4,2021.2.3,Linux x86_64,60.09254252,,,,,,,,,,,0.702,1,,,,,,,,,,,,,,z,1,0.702,,,,,,,,0.129153411,-0.26995484,0,0,0,,0,38,38,99,1,BACKY,C,old,z,./images/BACKY.png,,,,,,,,,,,,,,,,,,,,,,,,,,,,,,,,,,,
,,,,,,,,,,,,,,,,,,39,2022-02-12_12h45.07.527,lexical_decision_task_DD_L4,2021.2.3,Linux x86_64,60.09254252,,,,,,,,,,,0.7493,1,,,,,,,,,,,,,,z,1,0.7493,,,,,,,,0.129153411,-0.26995484,0,0,0,,0,39,39,132,1,SCIFF,C,old,z,./images/SCIFF.png,,,,,,,,,,,,,,,,,,,,,,,,,,,,,,,,,,,
,,,,,,,,,,,,,,,,,,39,2022-02-12_12h45.07.527,lexical_decision_task_DD_L4,2021.2.3,Linux x86_64,60.09254252,,,,,,,,,,,0.6436,1,,,,,,,,,,,,,,m,1,0.6436,,,,,,,,0.129153411,-0.26995484,0,0,0,,0,40,40,2,1,STOVE,LB,old,m,./images/STOVELB.png,,,,,,,,,,,,,,,,,,,,,,,,,,,,,,,,,,,
,,,,,,,,,,,,,,,,,,39,2022-02-12_12h45.07.527,lexical_decision_task_DD_L4,2021.2.3,Linux x86_64,60.09254252,,,,,,,,,,,0.7433,1,,,,,,,,,,,,,,z,1,0.7433,,,,,,,,0.129153411,-0.26995484,0,0,0,space,0,41,41,143,1,MONGS,LB,old,z,./images/MONGSLB.png,8.8429,,,,,,,,,,,,,,,,,,,,,,,,,,,,,,,,,,
,,,,,,,,,,,,,,,,,,39,2022-02-12_12h45.07.527,lexical_decision_task_DD_L4,2021.2.3,Linux x86_64,60.09254252,,,,,,,,,,,0.7472,1,,,,,,,,,,,,,,z,1,0.7472,,,,,,,,0.129153411,-0.26995484,0,0,0,,0,42,42,90,1,NEAST,C,old,z,./images/NEAST.png,,,,,,,,,,,,,,,,,,,,,,,,,,,,,,,,,,,
,,,,,,,,,,,,,,,,,,39,2022-02-12_12h45.07.527,lexical_decision_task_DD_L4,2021.2.3,Linux x86_64,60.09254252,,,,,,,,,,,0.7416,1,,,,,,,,,,,,,,m,1,0.7416,,,,,,,,0.129153411,-0.26995484,0,0,0,,0,43,43,33,1,SAUNA,C,old,m,./images/SAUNA.png,,,,,,,,,,,,,,,,,,,,,,,,,,,,,,,,,,,
,,,,,,,,,,,,,,,,,,39,2022-02-12_12h45.07.527,lexical_decision_task_DD_L4,2021.2.3,Linux x86_64,60.09254252,,,,,,,,,,,0.7199,1,,,,,,,,,,,,,,m,1,0.7199,,,,,,,,0.129153411,-0.26995484,0,0,0,,0,44,44,9,1,DIVER,C,old,m,./images/DIVER.png,,,,,,,,,,,,,,,,,,,,,,,,,,,,,,,,,,,
,,,,,,,,,,,,,,,,,,39,2022-02-12_12h45.07.527,lexical_decision_task_DD_L4,2021.2.3,Linux x86_64,60.09254252,,,,,,,,,,,0.8287,1,,,,,,,,,,,,,,z,1,0.8287,,,,,,,,0.129153411,-0.26995484,0,0,0,,0,45,45,94,1,BLANS,HB,old,z,./images/BLANSHB.png,,,,,,,,,,,,,,,,,,,,,,,,,,,,,,,,,,,
,,,,,,,,,,,,,,,,,,39,2022-02-12_12h45.07.527,lexical_decision_task_DD_L4,2021.2.3,Linux x86_64,60.09254252,,,,,,,,,,,0.8959,1,,,,,,,,,,,,,,z,1,0.8959,,,,,,,,0.129153411,-0.26995484,0,0,0,,0,46,46,139,1,BLEAR,HB,old,z,./images/BLEARHB.png,,,,,,,,,,,,,,,,,,,,,,,,,,,,,,,,,,,
,,,,,,,,,,,,,,,,,,39,2022-02-12_12h45.07.527,lexical_decision_task_DD_L4,2021.2.3,Linux x86_64,60.09254252,,,,,,,,,,,0.6084,1,,,,,,,,,,,,,,m,1,0.6084,,,,,,,,0.129153411,-0.26995484,0,0,0,,0,47,47,68,1,VALLEY,LB,old,m,./images/VALLEYLB.png,,,,,,,,,,,,,,,,,,,,,,,,,,,,,,,,,,,
,,,,,,,,,,,,,,,,,,39,2022-02-12_12h45.07.527,lexical_decision_task_DD_L4,2021.2.3,Linux x86_64,60.09254252,,,,,,,,,,,0.7222,1,,,,,,,,,,,,,,z,1,0.7222,,,,,,,,0.129153411,-0.26995484,0,0,0,,0,48,48,147,1,ZOLES,C,old,z,./images/ZOLES.png,,,,,,,,,,,,,,,,,,,,,,,,,,,,,,,,,,,
,,,,,,,,,,,,,,,,,,39,2022-02-12_12h45.07.527,lexical_decision_task_DD_L4,2021.2.3,Linux x86_64,60.09254252,,,,,,,,,,,1.0139,1,,,,,,,,,,,,,,m,1,1.0139,,,,,,,,0.129153411,-0.26995484,0,0,0,,0,49,49,28,1,CASINO,HB,old,m,./images/CASINOHB.png,,,,,,,,,,,,,,,,,,,,,,,,,,,,,,,,,,,
,,,,,,,,,,,,,,,,,,39,2022-02-12_12h45.07.527,lexical_decision_task_DD_L4,2021.2.3,Linux x86_64,60.09254252,,,,,,,,,,,0.7501,1,,,,,,,,,,,,,,m,1,0.7501,,,,,,,,0.129153411,-0.26995484,0,0,0,,0,50,50,81,1,DRILL,C,old,m,./images/DRILL.png,,,,,,,,,,,,,,,,,,,,,,,,,,,,,,,,,,,
,,,,,,,,,,,,,,,,,,39,2022-02-12_12h45.07.527,lexical_decision_task_DD_L4,2021.2.3,Linux x86_64,60.09254252,,,,,,,,,,,0.8163,1,,,,,,,,,,,,,,z,1,0.8163,,,,,,,,0.129153411,-0.26995484,0,0,0,,0,51,51,114,1,RIKES,C,old,z,./images/RIKES.png,,,,,,,,,,,,,,,,,,,,,,,,,,,,,,,,,,,
,,,,,,,,,,,,,,,,,,39,2022-02-12_12h45.07.527,lexical_decision_task_DD_L4,2021.2.3,Linux x86_64,60.09254252,,,,,,,,,,,0.7492,1,,,,,,,,,,,,,,m,1,0.7492,,,,,,,,0.129153411,-0.26995484,0,0,0,,0,52,52,79,1,RULER,HB,old,m,./images/RULERHB.png,,,,,,,,,,,,,,,,,,,,,,,,,,,,,,,,,,,
,,,,,,,,,,,,,,,,,,39,2022-02-12_12h45.07.527,lexical_decision_task_DD_L4,2021.2.3,Linux x86_64,60.09254252,,,,,,,,,,,0.6484,1,,,,,,,,,,,,,,m,1,0.6484,,,,,,,,0.129153411,-0.26995484,0,0,0,,0,53,53,71,1,BUBBLE,LB,old,m,./images/BUBBLELB.png,,,,,,,,,,,,,,,,,,,,,,,,,,,,,,,,,,,
,,,,,,,,,,,,,,,,,,39,2022-02-12_12h45.07.527,lexical_decision_task_DD_L4,2021.2.3,Linux x86_64,60.09254252,,,,,,,,,,,0.878,1,,,,,,,,,,,,,,z,1,0.878,,,,,,,,0.129153411,-0.26995484,0,0,0,,0,54,54,88,1,GLUSH,HB,old,z,./images/GLUSHHB.png,,,,,,,,,,,,,,,,,,,,,,,,,,,,,,,,,,,
,,,,,,,,,,,,,,,,,,39,2022-02-12_12h45.07.527,lexical_decision_task_DD_L4,2021.2.3,Linux x86_64,60.09254252,,,,,,,,,,,0.6775,1,,,,,,,,,,,,,,z,1,0.6775,,,,,,,,0.129153411,-0.26995484,0,0,0,,0,55,55,119,1,PAFER,LB,old,z,./images/PAFERLB.png,,,,,,,,,,,,,,,,,,,,,,,,,,,,,,,,,,,
,,,,,,,,,,,,,,,,,,39,2022-02-12_12h45.07.527,lexical_decision_task_DD_L4,2021.2.3,Linux x86_64,60.09254252,,,,,,,,,,,0.6757,1,,,,,,,,,,,,,,m,1,0.6757,,,,,,,,0.129153411,-0.26995484,0,0,0,,0,56,56,23,1,CLOTH,LB,old,m,./images/CLOTHLB.png,,,,,,,,,,,,,,,,,,,,,,,,,,,,,,,,,,,
,,,,,,,,,,,,,,,,,,39,2022-02-12_12h45.07.527,lexical_decision_task_DD_L4,2021.2.3,Linux x86_64,60.09254252,,,,,,,,,,,0.5688,1,,,,,,,,,,,,,,z,1,0.5688,,,,,,,,0.129153411,-0.26995484,0,0,0,,0,57,57,89,1,DRIEK,LB,old,z,./images/DRIEKLB.png,,,,,,,,,,,,,,,,,,,,,,,,,,,,,,,,,,,
,,,,,,,,,,,,,,,,,,39,2022-02-12_12h45.07.527,lexical_decision_task_DD_L4,2021.2.3,Linux x86_64,60.09254252,,,,,,,,,,,0.9069,1,,,,,,,,,,,,,,z,1,0.9069,,,,,,,,0.129153411,-0.26995484,0,0,0,,0,58,58,165,1,TROWN,C,old,z,./images/TROWN.png,,,,,,,,,,,,,,,,,,,,,,,,,,,,,,,,,,,
,,,,,,,,,,,,,,,,,,39,2022-02-12_12h45.07.527,lexical_decision_task_DD_L4,2021.2.3,Linux x86_64,60.09254252,,,,,,,,,,,0.8569,1,,,,,,,,,,,,,,z,1,0.8569,,,,,,,,0.129153411,-0.26995484,0,0,0,,0,59,59,121,1,CEERS,HB,old,z,./images/CEERSHB.png,,,,,,,,,,,,,,,,,,,,,,,,,,,,,,,,,,,
,,,,,,,,,,,,,,,,,,39,2022-02-12_12h45.07.527,lexical_decision_task_DD_L4,2021.2.3,Linux x86_64,60.09254252,,,,,,,,,,,0.9286,1,,,,,,,,,,,,,,z,1,0.9286,,,,,,,,0.129153411,-0.26995484,0,0,0,,0,60,60,115,1,MAWNS,HB,old,z,./images/MAWNSHB.png,,,,,,,,,,,,,,,,,,,,,,,,,,,,,,,,,,,
,,,,,,,,,,,,,,,,,,39,2022-02-12_12h45.07.527,lexical_decision_task_DD_L4,2021.2.3,Linux x86_64,60.09254252,,,,,,,,,,,0.7071,1,,,,,,,,,,,,,,z,1,0.7071,,,,,,,,0.129153411,-0.26995484,0,0,0,,0,61,61,138,1,PLICE,C,old,z,./images/PLICE.png,,,,,,,,,,,,,,,,,,,,,,,,,,,,,,,,,,,
,,,,,,,,,,,,,,,,,,39,2022-02-12_12h45.07.527,lexical_decision_task_DD_L4,2021.2.3,Linux x86_64,60.09254252,,,,,,,,,,,0.8458,1,,,,,,,,,,,,,,m,1,0.8458,,,,,,,,0.129153411,-0.26995484,0,0,0,,0,62,62,4,1,BOXER,HB,old,m,./images/BOXERHB.png,,,,,,,,,,,,,,,,,,,,,,,,,,,,,,,,,,,
,,,,,,,,,,,,,,,,,,39,2022-02-12_12h45.07.527,lexical_decision_task_DD_L4,2021.2.3,Linux x86_64,60.09254252,,,,,,,,,,,0.9347,1,,,,,,,,,,,,,,z,1,0.9347,,,,,,,,0.129153411,-0.26995484,0,0,0,,0,63,63,97,1,CHIDS,HB,old,z,./images/CHIDSHB.png,,,,,,,,,,,,,,,,,,,,,,,,,,,,,,,,,,,
,,,,,,,,,,,,,,,,,,39,2022-02-12_12h45.07.527,lexical_decision_task_DD_L4,2021.2.3,Linux x86_64,60.09254252,,,,,,,,,,,0.9771,1,,,,,,,,,,,,,,z,1,0.9771,,,,,,,,0.129153411,-0.26995484,0,0,0,,0,64,64,166,1,SHORY,HB,old,z,./images/SHORYHB.png,,,,,,,,,,,,,,,,,,,,,,,,,,,,,,,,,,,
,,,,,,,,,,,,,,,,,,39,2022-02-12_12h45.07.527,lexical_decision_task_DD_L4,2021.2.3,Linux x86_64,60.09254252,,,,,,,,,,,0.8938,1,,,,,,,,,,,,,,m,1,0.8938,,,,,,,,0.129153411,-0.26995484,0,0,0,,0,65,65,62,1,MAMMAL,LB,old,m,./images/MAMMALLB.png,,,,,,,,,,,,,,,,,,,,,,,,,,,,,,,,,,,
,,,,,,,,,,,,,,,,,,39,2022-02-12_12h45.07.527,lexical_decision_task_DD_L4,2021.2.3,Linux x86_64,60.09254252,,,,,,,,,,,0.7011,1,,,,,,,,,,,,,,z,1,0.7011,,,,,,,,0.129153411,-0.26995484,0,0,0,,0,66,66,167,1,ZONET,LB,old,z,./images/ZONETLB.png,,,,,,,,,,,,,,,,,,,,,,,,,,,,,,,,,,,
,,,,,,,,,,,,,,,,,,39,2022-02-12_12h45.07.527,lexical_decision_task_DD_L4,2021.2.3,Linux x86_64,60.09254252,,,,,,,,,,,0.7011,1,,,,,,,,,,,,,,z,1,0.7011,,,,,,,,0.129153411,-0.26995484,0,0,0,,0,67,67,111,1,HOSSE,C,old,z,./images/HOSSE.png,,,,,,,,,,,,,,,,,,,,,,,,,,,,,,,,,,,
,,,,,,,,,,,,,,,,,,39,2022-02-12_12h45.07.527,lexical_decision_task_DD_L4,2021.2.3,Linux x86_64,60.09254252,,,,,,,,,,,0.6314,1,,,,,,,,,,,,,,m,1,0.6314,,,,,,,,0.129153411,-0.26995484,0,0,0,,0,68,68,83,1,WHISKY,LB,old,m,./images/WHISKYLB.png,,,,,,,,,,,,,,,,,,,,,,,,,,,,,,,,,,,
,,,,,,,,,,,,,,,,,,39,2022-02-12_12h45.07.527,lexical_decision_task_DD_L4,2021.2.3,Linux x86_64,60.09254252,,,,,,,,,,,0.8163,1,,,,,,,,,,,,,,z,1,0.8163,,,,,,,,0.129153411,-0.26995484,0,0,0,,0,69,69,156,1,HIXES,C,old,z,./images/HIXES.png,,,,,,,,,,,,,,,,,,,,,,,,,,,,,,,,,,,
,,,,,,,,,,,,,,,,,,39,2022-02-12_12h45.07.527,lexical_decision_task_DD_L4,2021.2.3,Linux x86_64,60.09254252,,,,,,,,,,,0.7498,1,,,,,,,,,,,,,,z,1,0.7498,,,,,,,,0.129153411,-0.26995484,0,0,0,,0,70,70,123,1,SEDGE,C,old,z,./images/SEDGE.png,,,,,,,,,,,,,,,,,,,,,,,,,,,,,,,,,,,
,,,,,,,,,,,,,,,,,,39,2022-02-12_12h45.07.527,lexical_decision_task_DD_L4,2021.2.3,Linux x86_64,60.09254252,,,,,,,,,,,0.766,1,,,,,,,,,,,,,,m,1,0.766,,,,,,,,0.129153411,-0.26995484,0,0,0,,0,71,71,75,1,HAMMER,C,old,m,./images/HAMMER.png,,,,,,,,,,,,,,,,,,,,,,,,,,,,,,,,,,,
,,,,,,,,,,,,,,,,,,39,2022-02-12_12h45.07.527,lexical_decision_task_DD_L4,2021.2.3,Linux x86_64,60.09254252,,,,,,,,,,,1.4287,1,,,,,,,,,,,,,,m,1,1.4287,,,,,,,,0.129153411,-0.26995484,0,0,0,,0,72,72,10,1,GARDEN,HB,old,m,./images/GARDENHB.png,,,,,,,,,,,,,,,,,,,,,,,,,,,,,,,,,,,
,,,,,,,,,,,,,,,,,,39,2022-02-12_12h45.07.527,lexical_decision_task_DD_L4,2021.2.3,Linux x86_64,60.09254252,,,,,,,,,,,1.1646,1,,,,,,,,,,,,,,z,1,1.1646,,,,,,,,0.129153411,-0.26995484,0,0,0,,0,73,73,159,1,CUDDY,C,old,z,./images/CUDDY.png,,,,,,,,,,,,,,,,,,,,,,,,,,,,,,,,,,,
,,,,,,,,,,,,,,,,,,39,2022-02-12_12h45.07.527,lexical_decision_task_DD_L4,2021.2.3,Linux x86_64,60.09254252,,,,,,,,,,,0.6821,1,,,,,,,,,,,,,,z,1,0.6821,,,,,,,,0.129153411,-0.26995484,0,0,0,,0,74,74,120,1,RINED,C,old,z,./images/RINED.png,,,,,,,,,,,,,,,,,,,,,,,,,,,,,,,,,,,
,,,,,,,,,,,,,,,,,,39,2022-02-12_12h45.07.527,lexical_decision_task_DD_L4,2021.2.3,Linux x86_64,60.09254252,,,,,,,,,,,0.6657,1,,,,,,,,,,,,,,m,1,0.6657,,,,,,,,0.129153411,-0.26995484,0,0,0,,0,75,75,3,1,CRATER,C,old,m,./images/CRATER.png,,,,,,,,,,,,,,,,,,,,,,,,,,,,,,,,,,,
,,,,,,,,,,,,,,,,,,39,2022-02-12_12h45.07.527,lexical_decision_task_DD_L4,2021.2.3,Linux x86_64,60.09254252,,,,,,,,,,,1.3436,1,,,,,,,,,,,,,,m,1,1.3436,,,,,,,,0.129153411,-0.26995484,0,0,0,,0,76,76,49,1,BISHOP,HB,old,m,./images/BISHOPHB.png,,,,,,,,,,,,,,,,,,,,,,,,,,,,,,,,,,,
,,,,,,,,,,,,,,,,,,39,2022-02-12_12h45.07.527,lexical_decision_task_DD_L4,2021.2.3,Linux x86_64,60.09254252,,,,,,,,,,,0.7998,1,,,,,,,,,,,,,,z,1,0.7998,,,,,,,,0.129153411,-0.26995484,0,0,0,,0,77,77,105,1,MOKER,C,old,z,./images/MOKER.png,,,,,,,,,,,,,,,,,,,,,,,,,,,,,,,,,,,
,,,,,,,,,,,,,,,,,,39,2022-02-12_12h45.07.527,lexical_decision_task_DD_L4,2021.2.3,Linux x86_64,60.09254252,,,,,,,,,,,0.5682,1,,,,,,,,,,,,,,m,1,0.5682,,,,,,,,0.129153411,-0.26995484,0,0,0,,0,78,78,48,1,SHIELD,C,old,m,./images/SHIELD.png,,,,,,,,,,,,,,,,,,,,,,,,,,,,,,,,,,,
,,,,,,,,,,,,,,,,,,39,2022-02-12_12h45.07.527,lexical_decision_task_DD_L4,2021.2.3,Linux x86_64,60.09254252,,,,,,,,,,,0.6923,1,,,,,,,,,,,,,,z,1,0.6923,,,,,,,,0.129153411,-0.26995484,0,0,0,,0,79,79,86,1,AIFED,LB,old,z,./images/AIFEDLB.png,,,,,,,,,,,,,,,,,,,,,,,,,,,,,,,,,,,
,,,,,,,,,,,,,,,,,,39,2022-02-12_12h45.07.527,lexical_decision_task_DD_L4,2021.2.3,Linux x86_64,60.09254252,,,,,,,,,,,1.0344,1,,,,,,,,,,,,,,m,1,1.0344,,,,,,,,0.129153411,-0.26995484,0,0,0,,0,80,80,18,1,PARCEL,C,old,m,./images/PARCEL.png,,,,,,,,,,,,,,,,,,,,,,,,,,,,,,,,,,,
,,,,,,,,,,,,,,,,,,39,2022-02-12_12h45.07.527,lexical_decision_task_DD_L4,2021.2.3,Linux x86_64,60.09254252,,,,,,,,,,,1.651,0,,,,,,,,,,,,,,z,0,1.651,,,,,,,,0.129153411,-0.26995484,0,0,0,,0,81,81,19,1,DONKEY,HB,old,m,./images/DONKEYHB.png,,,,,,,,,,,,,,,,,,,,,,,,,,,,,,,,,,,
,,,,,,,,,,,,,,,,,,39,2022-02-12_12h45.07.527,lexical_decision_task_DD_L4,2021.2.3,Linux x86_64,60.09254252,,,,,,,,,,,1.4263,1,,,,,,,,,,,,,,z,1,1.4263,,,,,,,,0.129153411,-0.26995484,0,0,0,,0,82,82,112,1,MYING,HB,old,z,./images/MYINGHB.png,,,,,,,,,,,,,,,,,,,,,,,,,,,,,,,,,,,
,,,,,,,,,,,,,,,,,,39,2022-02-12_12h45.07.527,lexical_decision_task_DD_L4,2021.2.3,Linux x86_64,60.09254252,,,,,,,,,,,0.9424,0,,,,,,,,,,,,,,m,0,0.9424,,,,,,,,0.129153411,-0.26995484,0,0,0,space,0,83,83,153,1,CLUPS,C,old,z,./images/CLUPS.png,1.537,,,,,,,,,,,,,,,,,,,,,,,,,,,,,,,,,,
,,,,,,,,,,,,,,,,,,39,2022-02-12_12h45.07.527,lexical_decision_task_DD_L4,2021.2.3,Linux x86_64,60.09254252,,,,,,,,,,,0.7318,1,,,,,,,,,,,,,,z,1,0.7318,,,,,,,,0.129153411,-0.26995484,0,0,0,,0,84,84,126,1,GUELS,C,old,z,./images/GUELS.png,,,,,,,,,,,,,,,,,,,,,,,,,,,,,,,,,,,
,,,,,,,,,,,,,,,,,,39,2022-02-12_12h45.07.527,lexical_decision_task_DD_L4,2021.2.3,Linux x86_64,60.09254252,,,,,,,,,,,1.0063,1,,,,,,,,,,,,,,m,1,1.0063,,,,,,,,0.129153411,-0.26995484,0,0,0,,0,85,85,56,1,HEATER,LB,old,m,./images/HEATERLB.png,,,,,,,,,,,,,,,,,,,,,,,,,,,,,,,,,,,
,,,,,,,,,,,,,,,,,,39,2022-02-12_12h45.07.527,lexical_decision_task_DD_L4,2021.2.3,Linux x86_64,60.09254252,,,,,,,,,,,1.4697,1,,,,,,,,,,,,,,m,1,1.4697,,,,,,,,0.129153411,-0.26995484,0,0,0,,0,86,86,46,1,MUMMY,HB,old,m,./images/MUMMYHB.png,,,,,,,,,,,,,,,,,,,,,,,,,,,,,,,,,,,
,,,,,,,,,,,,,,,,,,39,2022-02-12_12h45.07.527,lexical_decision_task_DD_L4,2021.2.3,Linux x86_64,60.09254252,,,,,,,,,,,1.2768,1,,,,,,,,,,,,,,z,1,1.2768,,,,,,,,0.129153411,-0.26995484,0,0,0,,0,87,87,109,1,BURGE,HB,old,z,./images/BURGEHB.png,,,,,,,,,,,,,,,,,,,,,,,,,,,,,,,,,,,
,,,,,,,,,,,,,,,,,,39,2022-02-12_12h45.07.527,lexical_decision_task_DD_L4,2021.2.3,Linux x86_64,60.09254252,,,,,,,,,,,0.6663,1,,,,,,,,,,,,,,z,1,0.6663,,,,,,,,0.129153411,-0.26995484,0,0,0,,0,88,88,117,1,STEEG,C,old,z,./images/STEEG.png,,,,,,,,,,,,,,,,,,,,,,,,,,,,,,,,,,,
,,,,,,,,,,,,,,,,,,39,2022-02-12_12h45.07.527,lexical_decision_task_DD_L4,2021.2.3,Linux x86_64,60.09254252,,,,,,,,,,,1.3262,1,,,,,,,,,,,,,,m,1,1.3262,,,,,,,,0.129153411,-0.26995484,0,0,0,,0,89,89,22,1,CLOWN,HB,old,m,./images/CLOWNHB.png,,,,,,,,,,,,,,,,,,,,,,,,,,,,,,,,,,,
,,,,,,,,,,,,,,,,,,39,2022-02-12_12h45.07.527,lexical_decision_task_DD_L4,2021.2.3,Linux x86_64,60.09254252,,,,,,,,,,,2.1362,1,,,,,,,,,,,,,,m,1,2.1362,,,,,,,,0.129153411,-0.26995484,0,0,0,,0,90,90,1,1,TOWEL,HB,old,m,./images/TOWELHB.png,,,,,,,,,,,,,,,,,,,,,,,,,,,,,,,,,,,
,,,,,,,,,,,,,,,,,,39,2022-02-12_12h45.07.527,lexical_decision_task_DD_L4,2021.2.3,Linux x86_64,60.09254252,,,,,,,,,,,0.9972,1,,,,,,,,,,,,,,z,1,0.9972,,,,,,,,0.129153411,-0.26995484,0,0,0,,0,91,91,142,1,PLASK,HB,old,z,./images/PLASKHB.png,,,,,,,,,,,,,,,,,,,,,,,,,,,,,,,,,,,
,,,,,,,,,,,,,,,,,,39,2022-02-12_12h45.07.527,lexical_decision_task_DD_L4,2021.2.3,Linux x86_64,60.09254252,,,,,,,,,,,1.9069,1,,,,,,,,,,,,,,z,1,1.9069,,,,,,,,0.129153411,-0.26995484,0,0,0,,0,92,92,127,1,NINDY,HB,old,z,./images/NINDYHB.png,,,,,,,,,,,,,,,,,,,,,,,,,,,,,,,,,,,
,,,,,,,,,,,,,,,,,,39,2022-02-12_12h45.07.527,lexical_decision_task_DD_L4,2021.2.3,Linux x86_64,60.09254252,,,,,,,,,,,0.7287,1,,,,,,,,,,,,,,m,1,0.7287,,,,,,,,0.129153411,-0.26995484,0,0,0,,0,93,93,50,1,PILOT,LB,old,m,./images/PILOTLB.png,,,,,,,,,,,,,,,,,,,,,,,,,,,,,,,,,,,
,,,,,,,,,,,,,,,,,,39,2022-02-12_12h45.07.527,lexical_decision_task_DD_L4,2021.2.3,Linux x86_64,60.09254252,,,,,,,,,,,1.394,1,,,,,,,,,,,,,,m,1,1.394,,,,,,,,0.129153411,-0.26995484,0,0,0,,0,94,94,52,1,DESERT,HB,old,m,./images/DESERTHB.png,,,,,,,,,,,,,,,,,,,,,,,,,,,,,,,,,,,
,,,,,,,,,,,,,,,,,,39,2022-02-12_12h45.07.527,lexical_decision_task_DD_L4,2021.2.3,Linux x86_64,60.09254252,,,,,,,,,,,0.7452,1,,,,,,,,,,,,,,m,1,0.7452,,,,,,,,0.129153411,-0.26995484,0,0,0,,0,95,95,41,1,STREAM,LB,old,m,./images/STREAMLB.png,,,,,,,,,,,,,,,,,,,,,,,,,,,,,,,,,,,
,,,,,,,,,,,,,,,,,,39,2022-02-12_12h45.07.527,lexical_decision_task_DD_L4,2021.2.3,Linux x86_64,60.09254252,,,,,,,,,,,0.6804,1,,,,,,,,,,,,,,m,1,0.6804,,,,,,,,0.129153411,-0.26995484,0,0,0,,0,96,96,26,1,CLOUD,LB,old,m,./images/CLOUDLB.png,,,,,,,,,,,,,,,,,,,,,,,,,,,,,,,,,,,
,,,,,,,,,,,,,,,,,,39,2022-02-12_12h45.07.527,lexical_decision_task_DD_L4,2021.2.3,Linux x86_64,60.09254252,,,,,,,,,,,0.7772,1,,,,,,,,,,,,,,z,1,0.7772,,,,,,,,0.129153411,-0.26995484,0,0,0,,0,97,97,146,1,MOOST,LB,old,z,./images/MOOSTLB.png,,,,,,,,,,,,,,,,,,,,,,,,,,,,,,,,,,,
,,,,,,,,,,,,,,,,,,39,2022-02-12_12h45.07.527,lexical_decision_task_DD_L4,2021.2.3,Linux x86_64,60.09254252,,,,,,,,,,,0.6254,1,,,,,,,,,,,,,,m,1,0.6254,,,,,,,,0.129153411,-0.26995484,0,0,0,,0,98,98,42,1,CHAIN,C,old,m,./images/CHAIN.png,,,,,,,,,,,,,,,,,,,,,,,,,,,,,,,,,,,
,,,,,,,,,,,,,,,,,,39,2022-02-12_12h45.07.527,lexical_decision_task_DD_L4,2021.2.3,Linux x86_64,60.09254252,,,,,,,,,,,0.6644,1,,,,,,,,,,,,,,m,1,0.6644,,,,,,,,0.129153411,-0.26995484,0,0,0,,0,99,99,38,1,ENGINE,LB,old,m,./images/ENGINELB.png,,,,,,,,,,,,,,,,,,,,,,,,,,,,,,,,,,,
,,,,,,,,,,,,,,,,,,39,2022-02-12_12h45.07.527,lexical_decision_task_DD_L4,2021.2.3,Linux x86_64,60.09254252,,,,,,,,,,,0.6363,1,,,,,,,,,,,,,,m,1,0.6363,,,,,,,,0.129153411,-0.26995484,0,0,0,,0,100,100,17,1,PARADE,LB,old,m,./images/PARADELB.png,,,,,,,,,,,,,,,,,,,,,,,,,,,,,,,,,,,
,,,,,,,,,,,,,,,,,,39,2022-02-12_12h45.07.527,lexical_decision_task_DD_L4,2021.2.3,Linux x86_64,60.09254252,,,,,,,,,,,1.5349,1,,,,,,,,,,,,,,m,1,1.5349,,,,,,,,0.129153411,-0.26995484,0,0,0,,0,101,101,82,1,PEBBLE,HB,old,m,./images/PEBBLEHB.png,,,,,,,,,,,,,,,,,,,,,,,,,,,,,,,,,,,
,,,,,,,,,,,,,,,,,,39,2022-02-12_12h45.07.527,lexical_decision_task_DD_L4,2021.2.3,Linux x86_64,60.09254252,,,,,,,,,,,1.0203,1,,,,,,,,,,,,,,z,1,1.0203,,,,,,,,0.129153411,-0.26995484,0,0,0,,0,102,102,145,1,LAMEL,HB,old,z,./images/LAMELHB.png,,,,,,,,,,,,,,,,,,,,,,,,,,,,,,,,,,,
,,,,,,,,,,,,,,,,,,39,2022-02-12_12h45.07.527,lexical_decision_task_DD_L4,2021.2.3,Linux x86_64,60.09254252,,,,,,,,,,,1.0125,1,,,,,,,,,,,,,,m,1,1.0125,,,,,,,,0.129153411,-0.26995484,0,0,0,,0,103,103,58,1,CANOE,HB,old,m,./images/CANOEHB.png,,,,,,,,,,,,,,,,,,,,,,,,,,,,,,,,,,,
,,,,,,,,,,,,,,,,,,39,2022-02-12_12h45.07.527,lexical_decision_task_DD_L4,2021.2.3,Linux x86_64,60.09254252,,,,,,,,,,,0.648,1,,,,,,,,,,,,,,m,1,0.648,,,,,,,,0.129153411,-0.26995484,0,0,0,,0,104,104,53,1,POSTER,LB,old,m,./images/POSTERLB.png,,,,,,,,,,,,,,,,,,,,,,,,,,,,,,,,,,,
,,,,,,,,,,,,,,,,,,39,2022-02-12_12h45.07.527,lexical_decision_task_DD_L4,2021.2.3,Linux x86_64,60.09254252,,,,,,,,,,,1.0925,1,,,,,,,,,,,,,,z,1,1.0925,,,,,,,,0.129153411,-0.26995484,0,0,0,,0,105,105,116,1,BALGY,LB,old,z,./images/BALGYLB.png,,,,,,,,,,,,,,,,,,,,,,,,,,,,,,,,,,,
,,,,,,,,,,,,,,,,,,39,2022-02-12_12h45.07.527,lexical_decision_task_DD_L4,2021.2.3,Linux x86_64,60.09254252,,,,,,,,,,,0.8808,1,,,,,,,,,,,,,,m,1,0.8808,,,,,,,,0.129153411,-0.26995484,0,0,0,,0,106,106,31,1,STEAK,HB,old,m,./images/STEAKHB.png,,,,,,,,,,,,,,,,,,,,,,,,,,,,,,,,,,,
,,,,,,,,,,,,,,,,,,39,2022-02-12_12h45.07.527,lexical_decision_task_DD_L4,2021.2.3,Linux x86_64,60.09254252,,,,,,,,,,,0.7682,1,,,,,,,,,,,,,,z,1,0.7682,,,,,,,,0.129153411,-0.26995484,0,0,0,,0,107,107,155,1,CANGY,LB,old,z,./images/CANGYLB.png,,,,,,,,,,,,,,,,,,,,,,,,,,,,,,,,,,,
,,,,,,,,,,,,,,,,,,39,2022-02-12_12h45.07.527,lexical_decision_task_DD_L4,2021.2.3,Linux x86_64,60.09254252,,,,,,,,,,,0.8603,1,,,,,,,,,,,,,,m,1,0.8603,,,,,,,,0.129153411,-0.26995484,0,0,0,,0,108,108,35,1,LLAMA,LB,old,m,./images/LLAMALB.png,,,,,,,,,,,,,,,,,,,,,,,,,,,,,,,,,,,
,,,,,,,,,,,,,,,,,,39,2022-02-12_12h45.07.527,lexical_decision_task_DD_L4,2021.2.3,Linux x86_64,60.09254252,,,,,,,,,,,1.1832,1,,,,,,,,,,,,,,z,1,1.1832,,,,,,,,0.129153411,-0.26995484,0,0,0,,0,109,109,118,1,BAVEL,HB,old,z,./images/BAVELHB.png,,,,,,,,,,,,,,,,,,,,,,,,,,,,,,,,,,,
,,,,,,,,,,,,,,,,,,39,2022-02-12_12h45.07.527,lexical_decision_task_DD_L4,2021.2.3,Linux x86_64,60.09254252,,,,,,,,,,,1.5838,1,,,,,,,,,,,,,,m,1,1.5838,,,,,,,,0.129153411,-0.26995484,0,0,0,,0,110,110,34,1,RAZOR,HB,old,m,./images/RAZORHB.png,,,,,,,,,,,,,,,,,,,,,,,,,,,,,,,,,,,
,,,,,,,,,,,,,,,,,,39,2022-02-12_12h45.07.527,lexical_decision_task_DD_L4,2021.2.3,Linux x86_64,60.09254252,,,,,,,,,,,0.7071,1,,,,,,,,,,,,,,z,1,0.7071,,,,,,,,0.129153411,-0.26995484,0,0,0,,0,111,111,129,1,PRANS,C,old,z,./images/PRANS.png,,,,,,,,,,,,,,,,,,,,,,,,,,,,,,,,,,,
,,,,,,,,,,,,,,,,,,39,2022-02-12_12h45.07.527,lexical_decision_task_DD_L4,2021.2.3,Linux x86_64,60.09254252,,,,,,,,,,,1.0954,1,,,,,,,,,,,,,,z,1,1.0954,,,,,,,,0.129153411,-0.26995484,0,0,0,,0,112,112,106,1,CLUMS,HB,old,z,./images/CLUMSHB.png,,,,,,,,,,,,,,,,,,,,,,,,,,,,,,,,,,,
,,,,,,,,,,,,,,,,,,39,2022-02-12_12h45.07.527,lexical_decision_task_DD_L4,2021.2.3,Linux x86_64,60.09254252,,,,,,,,,,,1.1928,0,,,,,,,,,,,,,,m,0,1.1928,,,,,,,,0.129153411,-0.26995484,0,0,0,,0,113,113,128,1,GRIFT,LB,old,z,./images/GRIFTLB.png,,,,,,,,,,,,,,,,,,,,,,,,,,,,,,,,,,,
,,,,,,,,,,,,,,,,,,39,2022-02-12_12h45.07.527,lexical_decision_task_DD_L4,2021.2.3,Linux x86_64,60.09254252,,,,,,,,,,,0.8697,1,,,,,,,,,,,,,,z,1,0.8697,,,,,,,,0.129153411,-0.26995484,0,0,0,,0,114,114,113,1,LINEW,LB,old,z,./images/LINEWLB.png,,,,,,,,,,,,,,,,,,,,,,,,,,,,,,,,,,,
,,,,,,,,,,,,,,,,,,39,2022-02-12_12h45.07.527,lexical_decision_task_DD_L4,2021.2.3,Linux x86_64,60.09254252,,,,,,,,,,,1.3259,1,,,,,,,,,,,,,,z,1,1.3259,,,,,,,,0.129153411,-0.26995484,0,0,0,,0,115,115,91,1,SHENS,HB,old,z,./images/SHENSHB.png,,,,,,,,,,,,,,,,,,,,,,,,,,,,,,,,,,,
,,,,,,,,,,,,,,,,,,39,2022-02-12_12h45.07.527,lexical_decision_task_DD_L4,2021.2.3,Linux x86_64,60.09254252,,,,,,,,,,,1.2659,1,,,,,,,,,,,,,,m,1,1.2659,,,,,,,,0.129153411,-0.26995484,0,0,0,,0,116,116,30,1,SLOPE,C,old,m,./images/SLOPE.png,,,,,,,,,,,,,,,,,,,,,,,,,,,,,,,,,,,
,,,,,,,,,,,,,,,,,,39,2022-02-12_12h45.07.527,lexical_decision_task_DD_L4,2021.2.3,Linux x86_64,60.09254252,,,,,,,,,,,0.9974,1,,,,,,,,,,,,,,m,1,0.9974,,,,,,,,0.129153411,-0.26995484,0,0,0,,0,117,117,65,1,SPINE,LB,old,m,./images/SPINELB.png,,,,,,,,,,,,,,,,,,,,,,,,,,,,,,,,,,,
,,,,,,,,,,,,,,,,,,39,2022-02-12_12h45.07.527,lexical_decision_task_DD_L4,2021.2.3,Linux x86_64,60.09254252,,,,,,,,,,,0.6435,1,,,,,,,,,,,,,,z,1,0.6435,,,,,,,,0.129153411,-0.26995484,0,0,0,,0,118,118,122,1,BLOOT,LB,old,z,./images/BLOOTLB.png,,,,,,,,,,,,,,,,,,,,,,,,,,,,,,,,,,,
,,,,,,,,,,,,,,,,,,39,2022-02-12_12h45.07.527,lexical_decision_task_DD_L4,2021.2.3,Linux x86_64,60.09254252,,,,,,,,,,,1.0277,1,,,,,,,,,,,,,,m,1,1.0277,,,,,,,,0.129153411,-0.26995484,0,0,0,,0,119,119,64,1,BRIDE,HB,old,m,./images/BRIDEHB.png,,,,,,,,,,,,,,,,,,,,,,,,,,,,,,,,,,,
,,,,,,,,,,,,,,,,,,39,2022-02-12_12h45.07.527,lexical_decision_task_DD_L4,2021.2.3,Linux x86_64,60.09254252,,,,,,,,,,,0.7159,1,,,,,,,,,,,,,,m,1,0.7159,,,,,,,,0.129153411,-0.26995484,0,0,0,,0,120,120,0,1,WALNUT,C,old,m,./images/WALNUT.png,,,,,,,,,,,,,,,,,,,,,,,,,,,,,,,,,,,
,,,,,,,,,,,,,,,,,,39,2022-02-12_12h45.07.527,lexical_decision_task_DD_L4,2021.2.3,Linux x86_64,60.09254252,,,,,,,,,,,0.8946,1,,,,,,,,,,,,,,m,1,0.8946,,,,,,,,0.129153411,-0.26995484,0,0,0,,0,121,121,55,1,ALLEY,HB,old,m,./images/ALLEYHB.png,,,,,,,,,,,,,,,,,,,,,,,,,,,,,,,,,,,
,,,,,,,,,,,,,,,,,,39,2022-02-12_12h45.07.527,lexical_decision_task_DD_L4,2021.2.3,Linux x86_64,60.09254252,,,,,,,,,,,0.5875,1,,,,,,,,,,,,,,m,1,0.5875,,,,,,,,0.129153411,-0.26995484,0,0,0,,0,122,122,24,1,FLESH,C,old,m,./images/FLESH.png,,,,,,,,,,,,,,,,,,,,,,,,,,,,,,,,,,,
,,,,,,,,,,,,,,,,,,39,2022-02-12_12h45.07.527,lexical_decision_task_DD_L4,2021.2.3,Linux x86_64,60.09254252,,,,,,,,,,,2.4574,1,,,,,,,,,,,,,,m,1,2.4574,,,,,,,,0.129153411,-0.26995484,0,0,0,,0,123,123,7,1,WAGON,HB,old,m,./images/WAGONHB.png,,,,,,,,,,,,,,,,,,,,,,,,,,,,,,,,,,,
,,,,,,,,,,,,,,,,,,39,2022-02-12_12h45.07.527,lexical_decision_task_DD_L4,2021.2.3,Linux x86_64,60.09254252,,,,,,,,,,,0.8913,1,,,,,,,,,,,,,,z,1,0.8913,,,,,,,,0.129153411,-0.26995484,0,0,0,,0,124,124,141,1,PLEET,C,old,z,./images/PLEET.png,,,,,,,,,,,,,,,,,,,,,,,,,,,,,,,,,,,
,,,,,,,,,,,,,,,,,,39,2022-02-12_12h45.07.527,lexical_decision_task_DD_L4,2021.2.3,Linux x86_64,60.09254252,,,,,,,,,,,0.6837,1,,,,,,,,,,,,,,m,1,0.6837,,,,,,,,0.129153411,-0.26995484,0,0,0,space,0,125,125,72,1,FLASK,C,old,m,./images/FLASK.png,25.2458,,,,,,,,,,,,,,,,,,,,,,,,,,,,,,,,,,
,,,,,,,,,,,,,,,,,,39,2022-02-12_12h45.07.527,lexical_decision_task_DD_L4,2021.2.3,Linux x86_64,60.09254252,,,,,,,,,,,0.735,1,,,,,,,,,,,,,,m,1,0.735,,,,,,,,0.129153411,-0.26995484,0,0,0,,0,126,126,47,1,LAGOON,LB,old,m,./images/LAGOONLB.png,,,,,,,,,,,,,,,,,,,,,,,,,,,,,,,,,,,
,,,,,,,,,,,,,,,,,,39,2022-02-12_12h45.07.527,lexical_decision_task_DD_L4,2021.2.3,Linux x86_64,60.09254252,,,,,,,,,,,0.8831,1,,,,,,,,,,,,,,z,1,0.8831,,,,,,,,0.129153411,-0.26995484,0,0,0,,0,127,127,95,1,HANTY,LB,old,z,./images/HANTYLB.png,,,,,,,,,,,,,,,,,,,,,,,,,,,,,,,,,,,
,,,,,,,,,,,,,,,,,,39,2022-02-12_12h45.07.527,lexical_decision_task_DD_L4,2021.2.3,Linux x86_64,60.09254252,,,,,,,,,,,0.6805,1,,,,,,,,,,,,,,m,1,0.6805,,,,,,,,0.129153411,-0.26995484,0,0,0,,0,128,128,54,1,CHERRY,C,old,m,./images/CHERRY.png,,,,,,,,,,,,,,,,,,,,,,,,,,,,,,,,,,,
,,,,,,,,,,,,,,,,,,39,2022-02-12_12h45.07.527,lexical_decision_task_DD_L4,2021.2.3,Linux x86_64,60.09254252,,,,,,,,,,,1.3781,1,,,,,,,,,,,,,,z,1,1.3781,,,,,,,,0.129153411,-0.26995484,0,0,0,,0,129,129,154,1,THINT,HB,old,z,./images/THINTHB.png,,,,,,,,,,,,,,,,,,,,,,,,,,,,,,,,,,,
,,,,,,,,,,,,,,,,,,39,2022-02-12_12h45.07.527,lexical_decision_task_DD_L4,2021.2.3,Linux x86_64,60.09254252,,,,,,,,,,,3.6989,1,,,,,,,,,,,,,,z,1,3.6989,,,,,,,,0.129153411,-0.26995484,0,0,0,,0,130,130,110,1,CRUNK,LB,old,z,./images/CRUNKLB.png,,,,,,,,,,,,,,,,,,,,,,,,,,,,,,,,,,,
,,,,,,,,,,,,,,,,,,39,2022-02-12_12h45.07.527,lexical_decision_task_DD_L4,2021.2.3,Linux x86_64,60.09254252,,,,,,,,,,,1.2648,1,,,,,,,,,,,,,,z,1,1.2648,,,,,,,,0.129153411,-0.26995484,0,0,0,,0,131,131,162,1,LEICH,C,old,z,./images/LEICH.png,,,,,,,,,,,,,,,,,,,,,,,,,,,,,,,,,,,
,,,,,,,,,,,,,,,,,,39,2022-02-12_12h45.07.527,lexical_decision_task_DD_L4,2021.2.3,Linux x86_64,60.09254252,,,,,,,,,,,1.0219,1,,,,,,,,,,,,,,m,1,1.0219,,,,,,,,0.129153411,-0.26995484,0,0,0,,0,132,132,78,1,BROOM,C,old,m,./images/BROOM.png,,,,,,,,,,,,,,,,,,,,,,,,,,,,,,,,,,,
,,,,,,,,,,,,,,,,,,39,2022-02-12_12h45.07.527,lexical_decision_task_DD_L4,2021.2.3,Linux x86_64,60.09254252,,,,,,,,,,,1.1401,1,,,,,,,,,,,,,,m,1,1.1401,,,,,,,,0.129153411,-0.26995484,0,0,0,,0,133,133,73,1,GLOVE,HB,old,m,./images/GLOVEHB.png,,,,,,,,,,,,,,,,,,,,,,,,,,,,,,,,,,,
,,,,,,,,,,,,,,,,,,39,2022-02-12_12h45.07.527,lexical_decision_task_DD_L4,2021.2.3,Linux x86_64,60.09254252,,,,,,,,,,,1.3686,1,,,,,,,,,,,,,,m,1,1.3686,,,,,,,,0.129153411,-0.26995484,0,0,0,,0,134,134,67,1,POKER,HB,old,m,./images/POKERHB.png,,,,,,,,,,,,,,,,,,,,,,,,,,,,,,,,,,,
,,,,,,,,,,,,,,,,,,39,2022-02-12_12h45.07.527,lexical_decision_task_DD_L4,2021.2.3,Linux x86_64,60.09254252,,,,,,,,,,,0.8645,1,,,,,,,,,,,,,,z,1,0.8645,,,,,,,,0.129153411,-0.26995484,0,0,0,,0,135,135,137,1,JOOST,LB,old,z,./images/JOOSTLB.png,,,,,,,,,,,,,,,,,,,,,,,,,,,,,,,,,,,
,,,,,,,,,,,,,,,,,,39,2022-02-12_12h45.07.527,lexical_decision_task_DD_L4,2021.2.3,Linux x86_64,60.09254252,,,,,,,,,,,0.6824,1,,,,,,,,,,,,,,m,1,0.6824,,,,,,,,0.129153411,-0.26995484,0,0,0,,0,136,136,45,1,MONKEY,C,old,m,./images/MONKEY.png,,,,,,,,,,,,,,,,,,,,,,,,,,,,,,,,,,,
,,,,,,,,,,,,,,,,,,39,2022-02-12_12h45.07.527,lexical_decision_task_DD_L4,2021.2.3,Linux x86_64,60.09254252,,,,,,,,,,,0.7272,1,,,,,,,,,,,,,,m,1,0.7272,,,,,,,,0.129153411,-0.26995484,0,0,0,,0,137,137,16,1,GRAPE,HB,old,m,./images/GRAPEHB.png,,,,,,,,,,,,,,,,,,,,,,,,,,,,,,,,,,,
,,,,,,,,,,,,,,,,,,39,2022-02-12_12h45.07.527,lexical_decision_task_DD_L4,2021.2.3,Linux x86_64,60.09254252,,,,,,,,,,,0.7127,1,,,,,,,,,,,,,,m,1,0.7127,,,,,,,,0.129153411,-0.26995484,0,0,0,,0,138,138,15,1,COLLAR,C,old,m,./images/COLLAR.png,,,,,,,,,,,,,,,,,,,,,,,,,,,,,,,,,,,
,,,,,,,,,,,,,,,,,,39,2022-02-12_12h45.07.527,lexical_decision_task_DD_L4,2021.2.3,Linux x86_64,60.09254252,,,,,,,,,,,0.7032,1,,,,,,,,,,,,,,m,1,0.7032,,,,,,,,0.129153411,-0.26995484,0,0,0,,0,139,139,51,1,SAUCE,C,old,m,./images/SAUCE.png,,,,,,,,,,,,,,,,,,,,,,,,,,,,,,,,,,,
,,,,,,,,,,,,,,,,,,39,2022-02-12_12h45.07.527,lexical_decision_task_DD_L4,2021.2.3,Linux x86_64,60.09254252,,,,,,,,,,,0.6716,1,,,,,,,,,,,,,,m,1,0.6716,,,,,,,,0.129153411,-0.26995484,0,0,0,,0,140,140,63,1,BAKER,C,old,m,./images/BAKER.png,,,,,,,,,,,,,,,,,,,,,,,,,,,,,,,,,,,
,,,,,,,,,,,,,,,,,,39,2022-02-12_12h45.07.527,lexical_decision_task_DD_L4,2021.2.3,Linux x86_64,60.09254252,,,,,,,,,,,1.1366,1,,,,,,,,,,,,,,z,1,1.1366,,,,,,,,0.129153411,-0.26995484,0,0,0,,0,141,141,124,1,TUNCH,HB,old,z,./images/TUNCHHB.png,,,,,,,,,,,,,,,,,,,,,,,,,,,,,,,,,,,
,,,,,,,,,,,,,,,,,,39,2022-02-12_12h45.07.527,lexical_decision_task_DD_L4,2021.2.3,Linux x86_64,60.09254252,,,,,,,,,,,1.6767,1,,,,,,,,,,,,,,m,1,1.6767,,,,,,,,0.129153411,-0.26995484,0,0,0,,0,142,142,13,1,BUNNY,HB,old,m,./images/BUNNYHB.png,,,,,,,,,,,,,,,,,,,,,,,,,,,,,,,,,,,
,,,,,,,,,,,,,,,,,,39,2022-02-12_12h45.07.527,lexical_decision_task_DD_L4,2021.2.3,Linux x86_64,60.09254252,,,,,,,,,,,0.7106,1,,,,,,,,,,,,,,m,1,0.7106,,,,,,,,0.129153411,-0.26995484,0,0,0,,0,143,143,29,1,PISTOL,LB,old,m,./images/PISTOLLB.png,,,,,,,,,,,,,,,,,,,,,,,,,,,,,,,,,,,
,,,,,,,,,,,,,,,,,,39,2022-02-12_12h45.07.527,lexical_decision_task_DD_L4,2021.2.3,Linux x86_64,60.09254252,,,,,,,,,,,1.131,1,,,,,,,,,,,,,,z,1,1.131,,,,,,,,0.129153411,-0.26995484,0,0,0,,0,144,144,93,1,SMONE,C,old,z,./images/SMONE.png,,,,,,,,,,,,,,,,,,,,,,,,,,,,,,,,,,,
,,,,,,,,,,,,,,,,,,39,2022-02-12_12h45.07.527,lexical_decision_task_DD_L4,2021.2.3,Linux x86_64,60.09254252,,,,,,,,,,,0.9659,1,,,,,,,,,,,,,,z,1,0.9659,,,,,,,,0.129153411,-0.26995484,0,0,0,,0,145,145,85,1,CHULK,HB,old,z,./images/CHULKHB.png,,,,,,,,,,,,,,,,,,,,,,,,,,,,,,,,,,,
,,,,,,,,,,,,,,,,,,39,2022-02-12_12h45.07.527,lexical_decision_task_DD_L4,2021.2.3,Linux x86_64,60.09254252,,,,,,,,,,,0.7765,1,,,,,,,,,,,,,,m,1,0.7765,,,,,,,,0.129153411,-0.26995484,0,0,0,,0,146,146,14,1,FENCE,LB,old,m,./images/FENCELB.png,,,,,,,,,,,,,,,,,,,,,,,,,,,,,,,,,,,
,,,,,,,,,,,,,,,,,,39,2022-02-12_12h45.07.527,lexical_decision_task_DD_L4,2021.2.3,Linux x86_64,60.09254252,,,,,,,,,,,0.8013,1,,,,,,,,,,,,,,z,1,0.8013,,,,,,,,0.129153411,-0.26995484,0,0,0,,0,147,147,161,1,BLAPS,LB,old,z,./images/BLAPSLB.png,,,,,,,,,,,,,,,,,,,,,,,,,,,,,,,,,,,
,,,,,,,,,,,,,,,,,,39,2022-02-12_12h45.07.527,lexical_decision_task_DD_L4,2021.2.3,Linux x86_64,60.09254252,,,,,,,,,,,0.7265,1,,,,,,,,,,,,,,m,1,0.7265,,,,,,,,0.129153411,-0.26995484,0,0,0,,0,148,148,8,1,CLIFF,LB,old,m,./images/CLIFFLB.png,,,,,,,,,,,,,,,,,,,,,,,,,,,,,,,,,,,
,,,,,,,,,,,,,,,,,,39,2022-02-12_12h45.07.527,lexical_decision_task_DD_L4,2021.2.3,Linux x86_64,60.09254252,,,,,,,,,,,0.6598,1,,,,,,,,,,,,,,m,1,0.6598,,,,,,,,0.129153411,-0.26995484,0,0,0,,0,149,149,77,1,WHEEL,LB,old,m,./images/WHEELLB.png,,,,,,,,,,,,,,,,,,,,,,,,,,,,,,,,,,,
,,,,,,,,,,,,,,,,,,39,2022-02-12_12h45.07.527,lexical_decision_task_DD_L4,2021.2.3,Linux x86_64,60.09254252,,,,,,,,,,,0.7459,1,,,,,,,,,,,,,,z,1,0.7459,,,,,,,,0.129153411,-0.26995484,0,0,0,,0,150,150,103,1,FLORT,HB,old,z,./images/FLORTHB.png,,,,,,,,,,,,,,,,,,,,,,,,,,,,,,,,,,,
,,,,,,,,,,,,,,,,,,39,2022-02-12_12h45.07.527,lexical_decision_task_DD_L4,2021.2.3,Linux x86_64,60.09254252,,,,,,,,,,,0.739,1,,,,,,,,,,,,,,m,1,0.739,,,,,,,,0.129153411,-0.26995484,0,0,0,,0,151,151,66,1,STATUE,C,old,m,./images/STATUE.png,,,,,,,,,,,,,,,,,,,,,,,,,,,,,,,,,,,
,,,,,,,,,,,,,,,,,,39,2022-02-12_12h45.07.527,lexical_decision_task_DD_L4,2021.2.3,Linux x86_64,60.09254252,,,,,,,,,,,0.6529,1,,,,,,,,,,,,,,z,1,0.6529,,,,,,,,0.129153411,-0.26995484,0,0,0,,0,152,152,150,1,NOOLS,C,old,z,./images/NOOLS.png,,,,,,,,,,,,,,,,,,,,,,,,,,,,,,,,,,,
,,,,,,,,,,,,,,,,,,39,2022-02-12_12h45.07.527,lexical_decision_task_DD_L4,2021.2.3,Linux x86_64,60.09254252,,,,,,,,,,,0.8224,1,,,,,,,,,,,,,,m,1,0.8224,,,,,,,,0.129153411,-0.26995484,0,0,0,,0,153,153,20,1,GRANNY,LB,old,m,./images/GRANNYLB.png,,,,,,,,,,,,,,,,,,,,,,,,,,,,,,,,,,,
,,,,,,,,,,,,,,,,,,39,2022-02-12_12h45.07.527,lexical_decision_task_DD_L4,2021.2.3,Linux x86_64,60.09254252,,,,,,,,,,,0.6098,1,,,,,,,,,,,,,,m,1,0.6098,,,,,,,,0.129153411,-0.26995484,0,0,0,,0,154,154,36,1,BOILER,C,old,m,./images/BOILER.png,,,,,,,,,,,,,,,,,,,,,,,,,,,,,,,,,,,
,,,,,,,,,,,,,,,,,,39,2022-02-12_12h45.07.527,lexical_decision_task_DD_L4,2021.2.3,Linux x86_64,60.09254252,,,,,,,,,,,0.6703,1,,,,,,,,,,,,,,z,1,0.6703,,,,,,,,0.129153411,-0.26995484,0,0,0,,0,155,155,84,1,HAXES,C,old,z,./images/HAXES.png,,,,,,,,,,,,,,,,,,,,,,,,,,,,,,,,,,,
,,,,,,,,,,,,,,,,,,39,2022-02-12_12h45.07.527,lexical_decision_task_DD_L4,2021.2.3,Linux x86_64,60.09254252,,,,,,,,,,,0.5431,1,,,,,,,,,,,,,,m,1,0.5431,,,,,,,,0.129153411,-0.26995484,0,0,0,,0,156,156,11,1,MEDAL,LB,old,m,./images/MEDALLB.png,,,,,,,,,,,,,,,,,,,,,,,,,,,,,,,,,,,
,,,,,,,,,,,,,,,,,,39,2022-02-12_12h45.07.527,lexical_decision_task_DD_L4,2021.2.3,Linux x86_64,60.09254252,,,,,,,,,,,0.7785,1,,,,,,,,,,,,,,z,1,0.7785,,,,,,,,0.129153411,-0.26995484,0,0,0,,0,157,157,107,1,FASKS,LB,old,z,./images/FASKSLB.png,,,,,,,,,,,,,,,,,,,,,,,,,,,,,,,,,,,
,,,,,,,,,,,,,,,,,,39,2022-02-12_12h45.07.527,lexical_decision_task_DD_L4,2021.2.3,Linux x86_64,60.09254252,,,,,,,,,,,0.5768,1,,,,,,,,,,,,,,m,1,0.5768,,,,,,,,0.129153411,-0.26995484,0,0,0,,0,158,158,59,1,BRUSH,LB,old,m,./images/BRUSHLB.png,,,,,,,,,,,,,,,,,,,,,,,,,,,,,,,,,,,
,,,,,,,,,,,,,,,,,,39,2022-02-12_12h45.07.527,lexical_decision_task_DD_L4,2021.2.3,Linux x86_64,60.09254252,,,,,,,,,,,0.7438,1,,,,,,,,,,,,,,m,1,0.7438,,,,,,,,0.129153411,-0.26995484,0,0,0,,0,159,159,74,1,JUMPER,LB,old,m,./images/JUMPERLB.png,,,,,,,,,,,,,,,,,,,,,,,,,,,,,,,,,,,
,,,,,,,,,,,,,,,,,,39,2022-02-12_12h45.07.527,lexical_decision_task_DD_L4,2021.2.3,Linux x86_64,60.09254252,,,,,,,,,,,0.5224,1,,,,,,,,,,,,,,m,1,0.5224,,,,,,,,0.129153411,-0.26995484,0,0,0,,0,160,160,69,1,ARROW,C,old,m,./images/ARROW.png,,,,,,,,,,,,,,,,,,,,,,,,,,,,,,,,,,,
,,,,,,,,,,,,,,,,,,39,2022-02-12_12h45.07.527,lexical_decision_task_DD_L4,2021.2.3,Linux x86_64,60.09254252,,,,,,,,,,,1.1087,1,,,,,,,,,,,,,,z,1,1.1087,,,,,,,,0.129153411,-0.26995484,0,0,0,,0,161,161,140,1,DOVET,LB,old,z,./images/DOVETLB.png,,,,,,,,,,,,,,,,,,,,,,,,,,,,,,,,,,,
,,,,,,,,,,,,,,,,,,39,2022-02-12_12h45.07.527,lexical_decision_task_DD_L4,2021.2.3,Linux x86_64,60.09254252,,,,,,,,,,,1.2099,1,,,,,,,,,,,,,,z,1,1.2099,,,,,,,,0.129153411,-0.26995484,0,0,0,,0,162,162,134,1,TROSS,LB,old,z,./images/TROSSLB.png,,,,,,,,,,,,,,,,,,,,,,,,,,,,,,,,,,,
,,,,,,,,,,,,,,,,,,39,2022-02-12_12h45.07.527,lexical_decision_task_DD_L4,2021.2.3,Linux x86_64,60.09254252,,,,,,,,,,,0.6846,1,,,,,,,,,,,,,,z,1,0.6846,,,,,,,,0.129153411,-0.26995484,0,0,0,,0,163,163,96,1,KEAMS,C,old,z,./images/KEAMS.png,,,,,,,,,,,,,,,,,,,,,,,,,,,,,,,,,,,
,,,,,,,,,,,,,,,,,,39,2022-02-12_12h45.07.527,lexical_decision_task_DD_L4,2021.2.3,Linux x86_64,60.09254252,,,,,,,,,,,1.0998,1,,,,,,,,,,,,,,m,1,1.0998,,,,,,,,0.129153411,-0.26995484,0,0,0,,0,164,164,43,1,STOOL,HB,old,m,./images/STOOLHB.png,,,,,,,,,,,,,,,,,,,,,,,,,,,,,,,,,,,
,,,,,,,,,,,,,,,,,,39,2022-02-12_12h45.07.527,lexical_decision_task_DD_L4,2021.2.3,Linux x86_64,60.09254252,,,,,,,,,,,0.7034,1,,,,,,,,,,,,,,z,1,0.7034,,,,,,,,0.129153411,-0.26995484,0,0,0,,0,165,165,87,1,TRING,C,old,z,./images/TRING.png,,,,,,,,,,,,,,,,,,,,,,,,,,,,,,,,,,,
,,,,,,,,,,,,,,,,,,39,2022-02-12_12h45.07.527,lexical_decision_task_DD_L4,2021.2.3,Linux x86_64,60.09254252,,,,,,,,,,,1.077,1,,,,,,,,,,,,,,z,1,1.077,,,,,,,,0.129153411,-0.26995484,0,0,0,,0,166,166,104,1,GITTY,LB,old,z,./images/GITTYLB.png,,,,,,,,,,,,,,,,,,,,,,,,,,,,,,,,,,,
,,,,,,,,,,,,,,,,,,39,2022-02-12_12h45.07.527,lexical_decision_task_DD_L4,2021.2.3,Linux x86_64,60.09254252,,,,,,,,,,,1.9692,1,,,,,,,,,,,,,,z,1,1.9692,,,,,,,,0.129153411,-0.26995484,0,0,0,,0,167,167,148,1,JOMS,HB,old,z,./images/JOMSHB.png,,,,,,,,,,,,,,,,,,,,,,,,,,,,,,,,,,,
,,,,,,,,,,,,,,,,,,39,2022-02-12_12h45.07.527,lexical_decision_task_DD_L4,2021.2.3,Linux x86_64,60.09254252,,,,,,,,,,,,,,,,,,,,,,,,,,,,,,,,,,,,,,,,,,,,,,,,How likely will it be that you will recognize the words presented slighly blurred on a scale of 0 (not likely) to 100 (most likely)?,,,,,0.020186583,-0.418697119,1,0,0,jol_adv,4,7.5357,0,0,0,1,1,,,,,,,,,,,,,,,,,,,,,
,,,,,,,,,,,,,,,,,,39,2022-02-12_12h45.07.527,lexical_decision_task_DD_L4,2021.2.3,Linux x86_64,60.09254252,,,,,,,,,,,,,,,,,,,,,,,,,,,,,,,,,,,,,,,,,,,,,,,,How likely will it be that you will recognize the words presented very blurred on a scale of 0 (not likely) to 100 (most likely)?,,,,,,,,,,,2,10.5405,0,1,1,2,1,,,,,,,,,,,,,,,,,,,,,
,,,,,,,,,,,,,,,,,,39,2022-02-12_12h45.07.527,lexical_decision_task_DD_L4,2021.2.3,Linux x86_64,60.09254252,,,,,,,,,,,,,,,,,,,,,,,,,,,,,,,,,,,,,,,,,,,,,,,,How likely will it be that you will recognize the words presented clearly on a scale of 0 (not likely) to 100 (most likely)?,,,,,,,,,,,6,6.5633,0,2,2,0,1,,,,,,,,,,,,,,,,,,,,,
space,17.966,0.491880735,-0.325161854,0,0,0,,,,,,1,test,"In the next phase you will be presented with the words from the the first phase. Your job is to decide whether you remember seeing the word or not. If you remember seeing the word press ""old"" or type ""m"". If you do not remember seeing the word press ""new"" or type ""z"". Please press the space bar or click on continue to begin. ",,,,39,2022-02-12_12h45.07.527,lexical_decision_task_DD_L4,2021.2.3,Linux x86_64,60.09254252,,,,,,,,,,,,,,,,,,,,,,,,,,,,,,,,,,,,,,,,,,,,,,,,,,,,,,,,,,,,,,,,,,0,0,0,0,1,,,,,,,,,,,,,,,,
,,0.07124575,-0.394992193,1,0,0,,,,,,1,test,"In the next phase you will be presented with the words from the the first phase. Your job is to decide whether you remember seeing the word or not. If you remember seeing the word press ""old"" or type ""m"". If you do not remember seeing the word press ""new"" or type ""z"". Please press the space bar or click on continue to begin. ",,,,39,2022-02-12_12h45.07.527,lexical_decision_task_DD_L4,2021.2.3,Linux x86_64,60.09254252,,,,,,,,,,,,,,,,,,,,,,,,,,,,,,,,,,,,,,,,,,,,,,,,,,,,,,,,,,,,,,,,,,1,0,1,0,1,instr_done_button,,,,,,,,,,,,,,,
space,4.5864,0.07124575,-0.394992193,0,0,0,,,,,,1,test,"In the next phase you will be presented with the words from the the first phase. Your job is to decide whether you remember seeing the word or not. If you remember seeing the word press ""old"" or type ""m"". If you do not remember seeing the word press ""new"" or type ""z"". Please press the space bar or click on continue to begin. ",,,,39,2022-02-12_12h45.07.527,lexical_decision_task_DD_L4,2021.2.3,Linux x86_64,60.09254252,,,,,,,,,,,,,,,,,,,,,,,,,,,,,,,,,,,,,,,,,,,,,,,,,,,,,,,,,,,,,,,,,,2,0,2,0,1,,,,,,,,,,,,,,,,
,,0.014781555,-0.368667285,1,0,0,,,,,,1,test,"In the next phase you will be presented with the words from the the first phase. Your job is to decide whether you remember seeing the word or not. If you remember seeing the word press ""old"" or type ""m"". If you do not remember seeing the word press ""new"" or type ""z"". Please press the space bar or click on continue to begin. ",,,,39,2022-02-12_12h45.07.527,lexical_decision_task_DD_L4,2021.2.3,Linux x86_64,60.09254252,,,,,,,,,,,,,,,,,,,,,,,,,,,,,,,,,,,,,,,,,,,,,,,,,,,,,,,,,,,,,,,,,,3,0,3,0,1,instr_done_button,,,,,,,,,,,,,,,
space,2.5637,0.008274476,-0.134960214,0,0,0,,,,,,1,test,"In the next phase you will be presented with the words from the the first phase. Your job is to decide whether you remember seeing the word or not. If you remember seeing the word press ""old"" or type ""m"". If you do not remember seeing the word press ""new"" or type ""z"". Please press the space bar or click on continue to begin. ",,,,39,2022-02-12_12h45.07.527,lexical_decision_task_DD_L4,2021.2.3,Linux x86_64,60.09254252,,,,,,,,,,,,,,,,,,,,,,,,,,,,,,,,,,,,,,,,,,,,,,,,,,,,,,,,,,,,,,,,,,4,0,4,0,1,,,,,,,,,,,,,,,,
,,,,,,,,,,,,,,,,,,39,2022-02-12_12h45.07.527,lexical_decision_task_DD_L4,2021.2.3,Linux x86_64,60.09254252,,,,,,,,,,,2.9813,1,,,,,,,,,,,,,,,,,,,,,,,,0.008274476,-0.134960214,0,0,0,,,,,,,DIVER,C,m,y,./images/DIVER.png,,,,,,,,,,,,,,,,,,,,,m,1,2.9813,,,,,,,,0,0,0,9,1
,,,,,,,,,,,,,,,,,,39,2022-02-12_12h45.07.527,lexical_decision_task_DD_L4,2021.2.3,Linux x86_64,60.09254252,,,,,,,,,,,2.5145,1,,,,,,,,,,,,,,,,,,,,,,,,0.008274476,-0.134960214,0,0,0,,,,,,,MOSQUE,HB,z,y,./images/MOSQUEHB.png,,,,,,,,,,,,,,,,,,,,,z,1,2.5145,,,,,,,,0,1,1,127,1
,,,,,,,,,,,,,,,,,,39,2022-02-12_12h45.07.527,lexical_decision_task_DD_L4,2021.2.3,Linux x86_64,60.09254252,,,,,,,,,,,3.8667,0,,,,,,,,,,,,,,,,,,,,,,,,0.008274476,-0.134960214,0,0,0,,,,,,,FLASK,C,m,y,./images/FLASK.png,,,,,,,,,,,,,,,,,,,,,z,0,3.8667,,,,,,,,0,2,2,72,1
,,,,,,,,,,,,,,,,,,39,2022-02-12_12h45.07.527,lexical_decision_task_DD_L4,2021.2.3,Linux x86_64,60.09254252,,,,,,,,,,,1.6458,0,,,,,,,,,,,,,,,,,,,,,,,,0.008274476,-0.134960214,0,0,0,,,,,,,BUNNY,HB,m,y,./images/BUNNYHB.png,,,,,,,,,,,,,,,,,,,,,z,0,1.6458,,,,,,,,0,3,3,13,1
,,,,,,,,,,,,,,,,,,39,2022-02-12_12h45.07.527,lexical_decision_task_DD_L4,2021.2.3,Linux x86_64,60.09254252,,,,,,,,,,,1.3469,1,,,,,,,,,,,,,,,,,,,,,,,,0.008274476,-0.134960214,0,0,0,,,,,,,MAGGOT,C,z,y,./images/MAGGOT.png,,,,,,,,,,,,,,,,,,,,,z,1,1.3469,,,,,,,,0,4,4,117,1
,,,,,,,,,,,,,,,,,,39,2022-02-12_12h45.07.527,lexical_decision_task_DD_L4,2021.2.3,Linux x86_64,60.09254252,,,,,,,,,,,1.0659,0,,,,,,,,,,,,,,,,,,,,,,,,0.008274476,-0.134960214,0,0,0,,,,,,,CLOTH,LB,m,y,./images/CLOTHLB.png,,,,,,,,,,,,,,,,,,,,,z,0,1.0659,,,,,,,,0,5,5,23,1
,,,,,,,,,,,,,,,,,,39,2022-02-12_12h45.07.527,lexical_decision_task_DD_L4,2021.2.3,Linux x86_64,60.09254252,,,,,,,,,,,1.2479,1,,,,,,,,,,,,,,,,,,,,,,,,0.008274476,-0.134960214,0,0,0,,,,,,,FENCE,LB,m,y,./images/FENCELB.png,,,,,,,,,,,,,,,,,,,,,m,1,1.2479,,,,,,,,0,6,6,14,1
,,,,,,,,,,,,,,,,,,39,2022-02-12_12h45.07.527,lexical_decision_task_DD_L4,2021.2.3,Linux x86_64,60.09254252,,,,,,,,,,,1.1145,1,,,,,,,,,,,,,,,,,,,,,,,,0.008274476,-0.134960214,0,0,0,,,,,,,MIDGET,HB,m,y,./images/MIDGETHB.png,,,,,,,,,,,,,,,,,,,,,m,1,1.1145,,,,,,,,0,7,7,76,1
,,,,,,,,,,,,,,,,,,39,2022-02-12_12h45.07.527,lexical_decision_task_DD_L4,2021.2.3,Linux x86_64,60.09254252,,,,,,,,,,,2.1806,1,,,,,,,,,,,,,,,,,,,,,,,,0.008274476,-0.134960214,0,0,0,,,,,,,BONNET,LB,z,y,./images/BONNETLB.png,,,,,,,,,,,,,,,,,,,,,z,1,2.1806,,,,,,,,0,8,8,95,1
,,,,,,,,,,,,,,,,,,39,2022-02-12_12h45.07.527,lexical_decision_task_DD_L4,2021.2.3,Linux x86_64,60.09254252,,,,,,,,,,,1.0318,1,,,,,,,,,,,,,,,,,,,,,,,,0.008274476,-0.134960214,0,0,0,,,,,,,PAINT,HB,z,y,./images/PAINTHB.png,,,,,,,,,,,,,,,,,,,,,z,1,1.0318,,,,,,,,0,9,9,91,1
,,,,,,,,,,,,,,,,,,39,2022-02-12_12h45.07.527,lexical_decision_task_DD_L4,2021.2.3,Linux x86_64,60.09254252,,,,,,,,,,,0.8912,1,,,,,,,,,,,,,,,,,,,,,,,,0.008274476,-0.134960214,0,0,0,,,,,,,WRIST,HB,z,y,./images/WRISTHB.png,,,,,,,,,,,,,,,,,,,,,z,1,0.8912,,,,,,,,0,10,10,109,1
,,,,,,,,,,,,,,,,,,39,2022-02-12_12h45.07.527,lexical_decision_task_DD_L4,2021.2.3,Linux x86_64,60.09254252,,,,,,,,,,,0.9328,1,,,,,,,,,,,,,,,,,,,,,,,,0.008274476,-0.134960214,0,0,0,,,,,,,STATUE,C,m,y,./images/STATUE.png,,,,,,,,,,,,,,,,,,,,,m,1,0.9328,,,,,,,,0,11,11,66,1
,,,,,,,,,,,,,,,,,,39,2022-02-12_12h45.07.527,lexical_decision_task_DD_L4,2021.2.3,Linux x86_64,60.09254252,,,,,,,,,,,1.0345,1,,,,,,,,,,,,,,,,,,,,,,,,0.008274476,-0.134960214,0,0,0,,,,,,,STAIN,C,m,y,./images/STAIN.png,,,,,,,,,,,,,,,,,,,,,m,1,1.0345,,,,,,,,0,12,12,6,1
,,,,,,,,,,,,,,,,,,39,2022-02-12_12h45.07.527,lexical_decision_task_DD_L4,2021.2.3,Linux x86_64,60.09254252,,,,,,,,,,,1.6558,0,,,,,,,,,,,,,,,,,,,,,,,,0.008274476,-0.134960214,0,0,0,,,,,,,GRAPE,HB,m,y,./images/GRAPEHB.png,,,,,,,,,,,,,,,,,,,,,z,0,1.6558,,,,,,,,0,13,13,16,1
,,,,,,,,,,,,,,,,,,39,2022-02-12_12h45.07.527,lexical_decision_task_DD_L4,2021.2.3,Linux x86_64,60.09254252,,,,,,,,,,,1.0645,1,,,,,,,,,,,,,,,,,,,,,,,,0.008274476,-0.134960214,0,0,0,,,,,,,WHEEL,LB,m,y,./images/WHEELLB.png,,,,,,,,,,,,,,,,,,,,,m,1,1.0645,,,,,,,,0,14,14,77,1
,,,,,,,,,,,,,,,,,,39,2022-02-12_12h45.07.527,lexical_decision_task_DD_L4,2021.2.3,Linux x86_64,60.09254252,,,,,,,,,,,1.0495,1,,,,,,,,,,,,,,,,,,,,,,,,0.008274476,-0.134960214,0,0,0,,,,,,,CASINO,HB,m,y,./images/CASINOHB.png,,,,,,,,,,,,,,,,,,,,,m,1,1.0495,,,,,,,,0,15,15,28,1
,,,,,,,,,,,,,,,,,,39,2022-02-12_12h45.07.527,lexical_decision_task_DD_L4,2021.2.3,Linux x86_64,60.09254252,,,,,,,,,,,1.1688,1,,,,,,,,,,,,,,,,,,,,,,,,0.008274476,-0.134960214,0,0,0,,,,,,,QUILL,HB,z,y,./images/QUILLHB.png,,,,,,,,,,,,,,,,,,,,,z,1,1.1688,,,,,,,,0,16,16,115,1
,,,,,,,,,,,,,,,,,,39,2022-02-12_12h45.07.527,lexical_decision_task_DD_L4,2021.2.3,Linux x86_64,60.09254252,,,,,,,,,,,0.9501,1,,,,,,,,,,,,,,,,,,,,,,,,0.008274476,-0.134960214,0,0,0,,,,,,,PACKET,LB,z,y,./images/PACKETLB.png,,,,,,,,,,,,,,,,,,,,,z,1,0.9501,,,,,,,,0,17,17,140,1
,,,,,,,,,,,,,,,,,,39,2022-02-12_12h45.07.527,lexical_decision_task_DD_L4,2021.2.3,Linux x86_64,60.09254252,,,,,,,,,,,0.8495,1,,,,,,,,,,,,,,,,,,,,,,,,0.008274476,-0.134960214,0,0,0,,,,,,,CRADLE,LB,z,y,./images/CRADLELB.png,,,,,,,,,,,,,,,,,,,,,z,1,0.8495,,,,,,,,0,18,18,104,1
,,,,,,,,,,,,,,,,,,39,2022-02-12_12h45.07.527,lexical_decision_task_DD_L4,2021.2.3,Linux x86_64,60.09254252,,,,,,,,,,,0.6861,1,,,,,,,,,,,,,,,,,,,,,,,,0.008274476,-0.134960214,0,0,0,,,,,,,MEDAL,LB,m,y,./images/MEDALLB.png,,,,,,,,,,,,,,,,,,,,,m,1,0.6861,,,,,,,,0,19,19,11,1
,,,,,,,,,,,,,,,,,,39,2022-02-12_12h45.07.527,lexical_decision_task_DD_L4,2021.2.3,Linux x86_64,60.09254252,,,,,,,,,,,0.7999,1,,,,,,,,,,,,,,,,,,,,,,,,0.008274476,-0.134960214,0,0,0,,,,,,,ARROW,C,m,y,./images/ARROW.png,,,,,,,,,,,,,,,,,,,,,m,1,0.7999,,,,,,,,0,20,20,69,1
,,,,,,,,,,,,,,,,,,39,2022-02-12_12h45.07.527,lexical_decision_task_DD_L4,2021.2.3,Linux x86_64,60.09254252,,,,,,,,,,,1.9649,1,,,,,,,,,,,,,,,,,,,,,,,,0.008274476,-0.134960214,0,0,0,,,,,,,SQUARE,C,z,y,./images/SQUARE.png,,,,,,,,,,,,,,,,,,,,,z,1,1.9649,,,,,,,,0,21,21,90,1
,,,,,,,,,,,,,,,,,,39,2022-02-12_12h45.07.527,lexical_decision_task_DD_L4,2021.2.3,Linux x86_64,60.09254252,,,,,,,,,,,1.2831,1,,,,,,,,,,,,,,,,,,,,,,,,0.008274476,-0.134960214,0,0,0,,,,,,,BERRY,LB,z,y,./images/BERRYLB.png,,,,,,,,,,,,,,,,,,,,,z,1,1.2831,,,,,,,,0,22,22,131,1
,,,,,,,,,,,,,,,,,,39,2022-02-12_12h45.07.527,lexical_decision_task_DD_L4,2021.2.3,Linux x86_64,60.09254252,,,,,,,,,,,1.0698,1,,,,,,,,,,,,,,,,,,,,,,,,0.008274476,-0.134960214,0,0,0,,,,,,,MIRROR,C,z,y,./images/MIRROR.png,,,,,,,,,,,,,,,,,,,,,z,1,1.0698,,,,,,,,0,23,23,147,1
,,,,,,,,,,,,,,,,,,39,2022-02-12_12h45.07.527,lexical_decision_task_DD_L4,2021.2.3,Linux x86_64,60.09254252,,,,,,,,,,,0.8366,1,,,,,,,,,,,,,,,,,,,,,,,,0.008274476,-0.134960214,0,0,0,,,,,,,STRING,LB,z,y,./images/STRINGLB.png,,,,,,,,,,,,,,,,,,,,,z,1,0.8366,,,,,,,,0,24,24,125,1
,,,,,,,,,,,,,,,,,,39,2022-02-12_12h45.07.527,lexical_decision_task_DD_L4,2021.2.3,Linux x86_64,60.09254252,,,,,,,,,,,0.8516,1,,,,,,,,,,,,,,,,,,,,,,,,0.008274476,-0.134960214,0,0,0,,,,,,,FALCON,HB,z,y,./images/FALCONHB.png,,,,,,,,,,,,,,,,,,,,,z,1,0.8516,,,,,,,,0,25,25,112,1
,,,,,,,,,,,,,,,,,,39,2022-02-12_12h45.07.527,lexical_decision_task_DD_L4,2021.2.3,Linux x86_64,60.09254252,,,,,,,,,,,1.348,1,,,,,,,,,,,,,,,,,,,,,,,,0.008274476,-0.134960214,0,0,0,,,,,,,STOVE,LB,m,y,./images/STOVELB.png,,,,,,,,,,,,,,,,,,,,,m,1,1.348,,,,,,,,0,26,26,2,1
,,,,,,,,,,,,,,,,,,39,2022-02-12_12h45.07.527,lexical_decision_task_DD_L4,2021.2.3,Linux x86_64,60.09254252,,,,,,,,,,,1.0237,1,,,,,,,,,,,,,,,,,,,,,,,,0.008274476,-0.134960214,0,0,0,,,,,,,VALLEY,LB,m,y,./images/VALLEYLB.png,,,,,,,,,,,,,,,,,,,,,m,1,1.0237,,,,,,,,0,27,27,68,1
,,,,,,,,,,,,,,,,,,39,2022-02-12_12h45.07.527,lexical_decision_task_DD_L4,2021.2.3,Linux x86_64,60.09254252,,,,,,,,,,,0.9207,1,,,,,,,,,,,,,,,,,,,,,,,,0.008274476,-0.134960214,0,0,0,,,,,,,TRIPOD,C,z,y,./images/TRIPOD.png,,,,,,,,,,,,,,,,,,,,,z,1,0.9207,,,,,,,,0,28,28,138,1
,,,,,,,,,,,,,,,,,,39,2022-02-12_12h45.07.527,lexical_decision_task_DD_L4,2021.2.3,Linux x86_64,60.09254252,,,,,,,,,,,1.4667,1,,,,,,,,,,,,,,,,,,,,,,,,0.008274476,-0.134960214,0,0,0,,,,,,,SUNSET,HB,z,y,./images/SUNSETHB.png,,,,,,,,,,,,,,,,,,,,,z,1,1.4667,,,,,,,,0,29,29,166,1
,,,,,,,,,,,,,,,,,,39,2022-02-12_12h45.07.527,lexical_decision_task_DD_L4,2021.2.3,Linux x86_64,60.09254252,,,,,,,,,,,0.8348,1,,,,,,,,,,,,,,,,,,,,,,,,0.008274476,-0.134960214,0,0,0,,,,,,,COOKER,C,z,y,./images/COOKER.png,,,,,,,,,,,,,,,,,,,,,z,1,0.8348,,,,,,,,0,30,30,153,1
,,,,,,,,,,,,,,,,,,39,2022-02-12_12h45.07.527,lexical_decision_task_DD_L4,2021.2.3,Linux x86_64,60.09254252,,,,,,,,,,,0.7051,1,,,,,,,,,,,,,,,,,,,,,,,,0.008274476,-0.134960214,0,0,0,,,,,,,WALRUS,LB,z,y,./images/WALRUSLB.png,,,,,,,,,,,,,,,,,,,,,z,1,0.7051,,,,,,,,0,31,31,107,1
,,,,,,,,,,,,,,,,,,39,2022-02-12_12h45.07.527,lexical_decision_task_DD_L4,2021.2.3,Linux x86_64,60.09254252,,,,,,,,,,,0.8543,1,,,,,,,,,,,,,,,,,,,,,,,,0.008274476,-0.134960214,0,0,0,,,,,,,BEARD,LB,z,y,./images/BEARDLB.png,,,,,,,,,,,,,,,,,,,,,z,1,0.8543,,,,,,,,0,32,32,86,1
,,,,,,,,,,,,,,,,,,39,2022-02-12_12h45.07.527,lexical_decision_task_DD_L4,2021.2.3,Linux x86_64,60.09254252,,,,,,,,,,,0.9175,1,,,,,,,,,,,,,,,,,,,,,,,,0.008274476,-0.134960214,0,0,0,,,,,,,BARREL,LB,z,y,./images/BARRELLB.png,,,,,,,,,,,,,,,,,,,,,z,1,0.9175,,,,,,,,0,33,33,116,1
,,,,,,,,,,,,,,,,,,39,2022-02-12_12h45.07.527,lexical_decision_task_DD_L4,2021.2.3,Linux x86_64,60.09254252,,,,,,,,,,,1.0825,0,,,,,,,,,,,,,,,,,,,,,,,,0.008274476,-0.134960214,0,0,0,,,,,,,STREAM,LB,m,y,./images/STREAMLB.png,,,,,,,,,,,,,,,,,,,,,z,0,1.0825,,,,,,,,0,34,34,41,1
,,,,,,,,,,,,,,,,,,39,2022-02-12_12h45.07.527,lexical_decision_task_DD_L4,2021.2.3,Linux x86_64,60.09254252,,,,,,,,,,,0.7848,1,,,,,,,,,,,,,,,,,,,,,,,,0.008274476,-0.134960214,0,0,0,,,,,,,KITTEN,C,z,y,./images/KITTEN.png,,,,,,,,,,,,,,,,,,,,,z,1,0.7848,,,,,,,,0,35,35,129,1
,,,,,,,,,,,,,,,,,,39,2022-02-12_12h45.07.527,lexical_decision_task_DD_L4,2021.2.3,Linux x86_64,60.09254252,,,,,,,,,,,0.6818,1,,,,,,,,,,,,,,,,,,,,,,,,0.008274476,-0.134960214,0,0,0,,,,,,,MOOSE,C,z,y,./images/MOOSE.png,,,,,,,,,,,,,,,,,,,,,z,1,0.6818,,,,,,,,0,36,36,141,1
,,,,,,,,,,,,,,,,,,39,2022-02-12_12h45.07.527,lexical_decision_task_DD_L4,2021.2.3,Linux x86_64,60.09254252,,,,,,,,,,,0.7982,0,,,,,,,,,,,,,,,,,,,,,,,,0.008274476,-0.134960214,0,0,0,,,,,,,TOWEL,HB,m,y,./images/TOWELHB.png,,,,,,,,,,,,,,,,,,,,,z,0,0.7982,,,,,,,,0,37,37,1,1
,,,,,,,,,,,,,,,,,,39,2022-02-12_12h45.07.527,lexical_decision_task_DD_L4,2021.2.3,Linux x86_64,60.09254252,,,,,,,,,,,0.7232,1,,,,,,,,,,,,,,,,,,,,,,,,0.008274476,-0.134960214,0,0,0,,,,,,,PASTA,LB,z,y,./images/PASTALB.png,,,,,,,,,,,,,,,,,,,,,z,1,0.7232,,,,,,,,0,38,38,89,1
,,,,,,,,,,,,,,,,,,39,2022-02-12_12h45.07.527,lexical_decision_task_DD_L4,2021.2.3,Linux x86_64,60.09254252,,,,,,,,,,,1.1541,1,,,,,,,,,,,,,,,,,,,,,,,,0.008274476,-0.134960214,0,0,0,,,,,,,BANANA,HB,m,y,./images/BANANAHB.png,,,,,,,,,,,,,,,,,,,,,m,1,1.1541,,,,,,,,0,39,39,70,1
,,,,,,,,,,,,,,,,,,39,2022-02-12_12h45.07.527,lexical_decision_task_DD_L4,2021.2.3,Linux x86_64,60.09254252,,,,,,,,,,,0.901,1,,,,,,,,,,,,,,,,,,,,,,,,0.008274476,-0.134960214,0,0,0,,,,,,,STORM,C,z,y,./images/STORM.png,,,,,,,,,,,,,,,,,,,,,z,1,0.901,,,,,,,,0,40,40,114,1
,,,,,,,,,,,,,,,,,,39,2022-02-12_12h45.07.527,lexical_decision_task_DD_L4,2021.2.3,Linux x86_64,60.09254252,,,,,,,,,,,0.7846,1,,,,,,,,,,,,,,,,,,,,,,,,0.008274476,-0.134960214,0,0,0,space,,,,,,JUNGLE,LB,z,y,./images/JUNGLELB.png,1.022,,,,,,,,,,,,,,,,,,,,z,1,0.7846,,,,,,,,0,41,41,167,1
,,,,,,,,,,,,,,,,,,39,2022-02-12_12h45.07.527,lexical_decision_task_DD_L4,2021.2.3,Linux x86_64,60.09254252,,,,,,,,,,,0.9835,0,,,,,,,,,,,,,,,,,,,,,,,,0.008274476,-0.134960214,0,0,0,,,,,,,ENGINE,LB,m,y,./images/ENGINELB.png,,,,,,,,,,,,,,,,,,,,,z,0,0.9835,,,,,,,,0,42,42,38,1
,,,,,,,,,,,,,,,,,,39,2022-02-12_12h45.07.527,lexical_decision_task_DD_L4,2021.2.3,Linux x86_64,60.09254252,,,,,,,,,,,1.2315,1,,,,,,,,,,,,,,,,,,,,,,,,0.008274476,-0.134960214,0,0,0,,,,,,,GARDEN,HB,m,y,./images/GARDENHB.png,,,,,,,,,,,,,,,,,,,,,m,1,1.2315,,,,,,,,0,43,43,10,1
,,,,,,,,,,,,,,,,,,39,2022-02-12_12h45.07.527,lexical_decision_task_DD_L4,2021.2.3,Linux x86_64,60.09254252,,,,,,,,,,,1.2161,1,,,,,,,,,,,,,,,,,,,,,,,,0.008274476,-0.134960214,0,0,0,,,,,,,SAILOR,HB,z,y,./images/SAILORHB.png,,,,,,,,,,,,,,,,,,,,,z,1,1.2161,,,,,,,,0,44,44,151,1
,,,,,,,,,,,,,,,,,,39,2022-02-12_12h45.07.527,lexical_decision_task_DD_L4,2021.2.3,Linux x86_64,60.09254252,,,,,,,,,,,0.9572,1,,,,,,,,,,,,,,,,,,,,,,,,0.008274476,-0.134960214,0,0,0,,,,,,,JUMPER,LB,m,y,./images/JUMPERLB.png,,,,,,,,,,,,,,,,,,,,,m,1,0.9572,,,,,,,,0,45,45,74,1
,,,,,,,,,,,,,,,,,,39,2022-02-12_12h45.07.527,lexical_decision_task_DD_L4,2021.2.3,Linux x86_64,60.09254252,,,,,,,,,,,1.204,1,,,,,,,,,,,,,,,,,,,,,,,,0.008274476,-0.134960214,0,0,0,,,,,,,CRATER,C,m,y,./images/CRATER.png,,,,,,,,,,,,,,,,,,,,,m,1,1.204,,,,,,,,0,46,46,3,1
,,,,,,,,,,,,,,,,,,39,2022-02-12_12h45.07.527,lexical_decision_task_DD_L4,2021.2.3,Linux x86_64,60.09254252,,,,,,,,,,,1.8661,1,,,,,,,,,,,,,,,,,,,,,,,,0.008274476,-0.134960214,0,0,0,,,,,,,BLOKE,C,m,y,./images/BLOKE.png,,,,,,,,,,,,,,,,,,,,,m,1,1.8661,,,,,,,,0,47,47,12,1
,,,,,,,,,,,,,,,,,,39,2022-02-12_12h45.07.527,lexical_decision_task_DD_L4,2021.2.3,Linux x86_64,60.09254252,,,,,,,,,,,1.4017,1,,,,,,,,,,,,,,,,,,,,,,,,0.008274476,-0.134960214,0,0,0,,,,,,,COUCH,LB,z,y,./images/COUCHLB.png,,,,,,,,,,,,,,,,,,,,,z,1,1.4017,,,,,,,,0,48,48,161,1
,,,,,,,,,,,,,,,,,,39,2022-02-12_12h45.07.527,lexical_decision_task_DD_L4,2021.2.3,Linux x86_64,60.09254252,,,,,,,,,,,0.8536,1,,,,,,,,,,,,,,,,,,,,,,,,0.008274476,-0.134960214,0,0,0,,,,,,,PEBBLE,HB,m,y,./images/PEBBLEHB.png,,,,,,,,,,,,,,,,,,,,,m,1,0.8536,,,,,,,,0,49,49,82,1
,,,,,,,,,,,,,,,,,,39,2022-02-12_12h45.07.527,lexical_decision_task_DD_L4,2021.2.3,Linux x86_64,60.09254252,,,,,,,,,,,1.2159,1,,,,,,,,,,,,,,,,,,,,,,,,0.008274476,-0.134960214,0,0,0,,,,,,,CARPET,LB,z,y,./images/CARPETLB.png,,,,,,,,,,,,,,,,,,,,,z,1,1.2159,,,,,,,,0,50,50,137,1
,,,,,,,,,,,,,,,,,,39,2022-02-12_12h45.07.527,lexical_decision_task_DD_L4,2021.2.3,Linux x86_64,60.09254252,,,,,,,,,,,1.4147,1,,,,,,,,,,,,,,,,,,,,,,,,0.008274476,-0.134960214,0,0,0,,,,,,,THROAT,C,z,y,./images/THROAT.png,,,,,,,,,,,,,,,,,,,,,z,1,1.4147,,,,,,,,0,51,51,120,1
,,,,,,,,,,,,,,,,,,39,2022-02-12_12h45.07.527,lexical_decision_task_DD_L4,2021.2.3,Linux x86_64,60.09254252,,,,,,,,,,,1.1644,1,,,,,,,,,,,,,,,,,,,,,,,,0.008274476,-0.134960214,0,0,0,,,,,,,HAMMER,C,m,y,./images/HAMMER.png,,,,,,,,,,,,,,,,,,,,,m,1,1.1644,,,,,,,,0,52,52,75,1
,,,,,,,,,,,,,,,,,,39,2022-02-12_12h45.07.527,lexical_decision_task_DD_L4,2021.2.3,Linux x86_64,60.09254252,,,,,,,,,,,2.2149,1,,,,,,,,,,,,,,,,,,,,,,,,0.008274476,-0.134960214,0,0,0,,,,,,,WHISKY,LB,m,y,./images/WHISKYLB.png,,,,,,,,,,,,,,,,,,,,,m,1,2.2149,,,,,,,,0,53,53,83,1
,,,,,,,,,,,,,,,,,,39,2022-02-12_12h45.07.527,lexical_decision_task_DD_L4,2021.2.3,Linux x86_64,60.09254252,,,,,,,,,,,1.4658,1,,,,,,,,,,,,,,,,,,,,,,,,0.008274476,-0.134960214,0,0,0,,,,,,,URINE,HB,z,y,./images/URINEHB.png,,,,,,,,,,,,,,,,,,,,,z,1,1.4658,,,,,,,,0,54,54,154,1
,,,,,,,,,,,,,,,,,,39,2022-02-12_12h45.07.527,lexical_decision_task_DD_L4,2021.2.3,Linux x86_64,60.09254252,,,,,,,,,,,0.8551,1,,,,,,,,,,,,,,,,,,,,,,,,0.008274476,-0.134960214,0,0,0,,,,,,,PEACH,LB,z,y,./images/PEACHLB.png,,,,,,,,,,,,,,,,,,,,,z,1,0.8551,,,,,,,,0,55,55,119,1
,,,,,,,,,,,,,,,,,,39,2022-02-12_12h45.07.527,lexical_decision_task_DD_L4,2021.2.3,Linux x86_64,60.09254252,,,,,,,,,,,0.8836,1,,,,,,,,,,,,,,,,,,,,,,,,0.008274476,-0.134960214,0,0,0,,,,,,,GREASE,C,z,y,./images/GREASE.png,,,,,,,,,,,,,,,,,,,,,z,1,0.8836,,,,,,,,0,56,56,99,1
,,,,,,,,,,,,,,,,,,39,2022-02-12_12h45.07.527,lexical_decision_task_DD_L4,2021.2.3,Linux x86_64,60.09254252,,,,,,,,,,,1.3875,1,,,,,,,,,,,,,,,,,,,,,,,,0.008274476,-0.134960214,0,0,0,,,,,,,SMOKER,LB,z,y,./images/SMOKERLB.png,,,,,,,,,,,,,,,,,,,,,z,1,1.3875,,,,,,,,0,57,57,110,1
,,,,,,,,,,,,,,,,,,39,2022-02-12_12h45.07.527,lexical_decision_task_DD_L4,2021.2.3,Linux x86_64,60.09254252,,,,,,,,,,,1.4807,1,,,,,,,,,,,,,,,,,,,,,,,,0.008274476,-0.134960214,0,0,0,,,,,,,PLANK,HB,z,y,./images/PLANKHB.png,,,,,,,,,,,,,,,,,,,,,z,1,1.4807,,,,,,,,0,58,58,85,1
,,,,,,,,,,,,,,,,,,39,2022-02-12_12h45.07.527,lexical_decision_task_DD_L4,2021.2.3,Linux x86_64,60.09254252,,,,,,,,,,,0.7693,1,,,,,,,,,,,,,,,,,,,,,,,,0.008274476,-0.134960214,0,0,0,,,,,,,KIDNEY,C,z,y,./images/KIDNEY.png,,,,,,,,,,,,,,,,,,,,,z,1,0.7693,,,,,,,,0,59,59,105,1
,,,,,,,,,,,,,,,,,,39,2022-02-12_12h45.07.527,lexical_decision_task_DD_L4,2021.2.3,Linux x86_64,60.09254252,,,,,,,,,,,1.0339,1,,,,,,,,,,,,,,,,,,,,,,,,0.008274476,-0.134960214,0,0,0,,,,,,,FERRY,C,m,y,./images/FERRY.png,,,,,,,,,,,,,,,,,,,,,m,1,1.0339,,,,,,,,0,60,60,57,1
,,,,,,,,,,,,,,,,,,39,2022-02-12_12h45.07.527,lexical_decision_task_DD_L4,2021.2.3,Linux x86_64,60.09254252,,,,,,,,,,,0.9826,1,,,,,,,,,,,,,,,,,,,,,,,,0.008274476,-0.134960214,0,0,0,,,,,,,POKER,HB,m,y,./images/POKERHB.png,,,,,,,,,,,,,,,,,,,,,m,1,0.9826,,,,,,,,0,61,61,67,1
,,,,,,,,,,,,,,,,,,39,2022-02-12_12h45.07.527,lexical_decision_task_DD_L4,2021.2.3,Linux x86_64,60.09254252,,,,,,,,,,,0.7138,1,,,,,,,,,,,,,,,,,,,,,,,,0.008274476,-0.134960214,0,0,0,,,,,,,MAMMAL,LB,m,y,./images/MAMMALLB.png,,,,,,,,,,,,,,,,,,,,,m,1,0.7138,,,,,,,,0,62,62,62,1
,,,,,,,,,,,,,,,,,,39,2022-02-12_12h45.07.527,lexical_decision_task_DD_L4,2021.2.3,Linux x86_64,60.09254252,,,,,,,,,,,1.1578,1,,,,,,,,,,,,,,,,,,,,,,,,0.008274476,-0.134960214,0,0,0,,,,,,,JELLY,HB,z,y,./images/JELLYHB.png,,,,,,,,,,,,,,,,,,,,,z,1,1.1578,,,,,,,,0,63,63,148,1
,,,,,,,,,,,,,,,,,,39,2022-02-12_12h45.07.527,lexical_decision_task_DD_L4,2021.2.3,Linux x86_64,60.09254252,,,,,,,,,,,1.3646,1,,,,,,,,,,,,,,,,,,,,,,,,0.008274476,-0.134960214,0,0,0,,,,,,,FARMER,LB,z,y,./images/FARMERLB.png,,,,,,,,,,,,,,,,,,,,,z,1,1.3646,,,,,,,,0,64,64,149,1
,,,,,,,,,,,,,,,,,,39,2022-02-12_12h45.07.527,lexical_decision_task_DD_L4,2021.2.3,Linux x86_64,60.09254252,,,,,,,,,,,1.5485,1,,,,,,,,,,,,,,,,,,,,,,,,0.008274476,-0.134960214,0,0,0,,,,,,,INFANT,HB,z,y,./images/INFANTHB.png,,,,,,,,,,,,,,,,,,,,,z,1,1.5485,,,,,,,,0,65,65,160,1
,,,,,,,,,,,,,,,,,,39,2022-02-12_12h45.07.527,lexical_decision_task_DD_L4,2021.2.3,Linux x86_64,60.09254252,,,,,,,,,,,0.9705,0,,,,,,,,,,,,,,,,,,,,,,,,0.008274476,-0.134960214,0,0,0,,,,,,,FLESH,C,m,y,./images/FLESH.png,,,,,,,,,,,,,,,,,,,,,z,0,0.9705,,,,,,,,0,66,66,24,1
,,,,,,,,,,,,,,,,,,39,2022-02-12_12h45.07.527,lexical_decision_task_DD_L4,2021.2.3,Linux x86_64,60.09254252,,,,,,,,,,,3.7458,1,,,,,,,,,,,,,,,,,,,,,,,,0.008274476,-0.134960214,0,0,0,,,,,,,CLOWN,HB,m,y,./images/CLOWNHB.png,,,,,,,,,,,,,,,,,,,,,m,1,3.7458,,,,,,,,0,67,67,22,1
,,,,,,,,,,,,,,,,,,39,2022-02-12_12h45.07.527,lexical_decision_task_DD_L4,2021.2.3,Linux x86_64,60.09254252,,,,,,,,,,,1.3565,1,,,,,,,,,,,,,,,,,,,,,,,,0.008274476,-0.134960214,0,0,0,,,,,,,BOXER,HB,m,y,./images/BOXERHB.png,,,,,,,,,,,,,,,,,,,,,m,1,1.3565,,,,,,,,0,68,68,4,1
,,,,,,,,,,,,,,,,,,39,2022-02-12_12h45.07.527,lexical_decision_task_DD_L4,2021.2.3,Linux x86_64,60.09254252,,,,,,,,,,,0.9665,0,,,,,,,,,,,,,,,,,,,,,,,,0.008274476,-0.134960214,0,0,0,,,,,,,SAUCE,C,m,y,./images/SAUCE.png,,,,,,,,,,,,,,,,,,,,,z,0,0.9665,,,,,,,,0,69,69,51,1
,,,,,,,,,,,,,,,,,,39,2022-02-12_12h45.07.527,lexical_decision_task_DD_L4,2021.2.3,Linux x86_64,60.09254252,,,,,,,,,,,1.0319,0,,,,,,,,,,,,,,,,,,,,,,,,0.008274476,-0.134960214,0,0,0,,,,,,,BRUSH,LB,m,y,./images/BRUSHLB.png,,,,,,,,,,,,,,,,,,,,,z,0,1.0319,,,,,,,,0,70,70,59,1
,,,,,,,,,,,,,,,,,,39,2022-02-12_12h45.07.527,lexical_decision_task_DD_L4,2021.2.3,Linux x86_64,60.09254252,,,,,,,,,,,1.5311,1,,,,,,,,,,,,,,,,,,,,,,,,0.008274476,-0.134960214,0,0,0,,,,,,,BROOM,C,m,y,./images/BROOM.png,,,,,,,,,,,,,,,,,,,,,m,1,1.5311,,,,,,,,0,71,71,78,1
,,,,,,,,,,,,,,,,,,39,2022-02-12_12h45.07.527,lexical_decision_task_DD_L4,2021.2.3,Linux x86_64,60.09254252,,,,,,,,,,,1.0547,1,,,,,,,,,,,,,,,,,,,,,,,,0.008274476,-0.134960214,0,0,0,,,,,,,SWING,HB,z,y,./images/SWINGHB.png,,,,,,,,,,,,,,,,,,,,,z,1,1.0547,,,,,,,,0,72,72,124,1
,,,,,,,,,,,,,,,,,,39,2022-02-12_12h45.07.527,lexical_decision_task_DD_L4,2021.2.3,Linux x86_64,60.09254252,,,,,,,,,,,1.0151,1,,,,,,,,,,,,,,,,,,,,,,,,0.008274476,-0.134960214,0,0,0,,,,,,,LIZARD,LB,z,y,./images/LIZARDLB.png,,,,,,,,,,,,,,,,,,,,,z,1,1.0151,,,,,,,,0,73,73,128,1
,,,,,,,,,,,,,,,,,,39,2022-02-12_12h45.07.527,lexical_decision_task_DD_L4,2021.2.3,Linux x86_64,60.09254252,,,,,,,,,,,0.7329,1,,,,,,,,,,,,,,,,,,,,,,,,0.008274476,-0.134960214,0,0,0,,,,,,,MUFFIN,HB,z,y,./images/MUFFINHB.png,,,,,,,,,,,,,,,,,,,,,z,1,0.7329,,,,,,,,0,74,74,139,1
,,,,,,,,,,,,,,,,,,39,2022-02-12_12h45.07.527,lexical_decision_task_DD_L4,2021.2.3,Linux x86_64,60.09254252,,,,,,,,,,,1.2364,1,,,,,,,,,,,,,,,,,,,,,,,,0.008274476,-0.134960214,0,0,0,,,,,,,SHORE,C,z,y,./images/SHORE.png,,,,,,,,,,,,,,,,,,,,,z,1,1.2364,,,,,,,,0,75,75,96,1
,,,,,,,,,,,,,,,,,,39,2022-02-12_12h45.07.527,lexical_decision_task_DD_L4,2021.2.3,Linux x86_64,60.09254252,,,,,,,,,,,0.9037,1,,,,,,,,,,,,,,,,,,,,,,,,0.008274476,-0.134960214,0,0,0,,,,,,,TULIP,LB,z,y,./images/TULIPLB.png,,,,,,,,,,,,,,,,,,,,,z,1,0.9037,,,,,,,,0,76,76,92,1
,,,,,,,,,,,,,,,,,,39,2022-02-12_12h45.07.527,lexical_decision_task_DD_L4,2021.2.3,Linux x86_64,60.09254252,,,,,,,,,,,0.9484,1,,,,,,,,,,,,,,,,,,,,,,,,0.008274476,-0.134960214,0,0,0,,,,,,,COLLAR,C,m,y,./images/COLLAR.png,,,,,,,,,,,,,,,,,,,,,m,1,0.9484,,,,,,,,0,77,77,15,1
,,,,,,,,,,,,,,,,,,39,2022-02-12_12h45.07.527,lexical_decision_task_DD_L4,2021.2.3,Linux x86_64,60.09254252,,,,,,,,,,,1.0325,1,,,,,,,,,,,,,,,,,,,,,,,,0.008274476,-0.134960214,0,0,0,,,,,,,CURRY,C,m,y,./images/CURRY.png,,,,,,,,,,,,,,,,,,,,,m,1,1.0325,,,,,,,,0,78,78,60,1
,,,,,,,,,,,,,,,,,,39,2022-02-12_12h45.07.527,lexical_decision_task_DD_L4,2021.2.3,Linux x86_64,60.09254252,,,,,,,,,,,1.1638,0,,,,,,,,,,,,,,,,,,,,,,,,0.008274476,-0.134960214,0,0,0,,,,,,,PILOT,LB,m,y,./images/PILOTLB.png,,,,,,,,,,,,,,,,,,,,,z,0,1.1638,,,,,,,,0,79,79,50,1
,,,,,,,,,,,,,,,,,,39,2022-02-12_12h45.07.527,lexical_decision_task_DD_L4,2021.2.3,Linux x86_64,60.09254252,,,,,,,,,,,0.8212,1,,,,,,,,,,,,,,,,,,,,,,,,0.008274476,-0.134960214,0,0,0,,,,,,,LAGOON,LB,m,y,./images/LAGOONLB.png,,,,,,,,,,,,,,,,,,,,,m,1,0.8212,,,,,,,,0,80,80,47,1
,,,,,,,,,,,,,,,,,,39,2022-02-12_12h45.07.527,lexical_decision_task_DD_L4,2021.2.3,Linux x86_64,60.09254252,,,,,,,,,,,0.884,1,,,,,,,,,,,,,,,,,,,,,,,,0.008274476,-0.134960214,0,0,0,,,,,,,JAGUAR,C,z,y,./images/JAGUAR.png,,,,,,,,,,,,,,,,,,,,,z,1,0.884,,,,,,,,0,81,81,102,1
,,,,,,,,,,,,,,,,,,39,2022-02-12_12h45.07.527,lexical_decision_task_DD_L4,2021.2.3,Linux x86_64,60.09254252,,,,,,,,,,,1.8209,1,,,,,,,,,,,,,,,,,,,,,,,,0.008274476,-0.134960214,0,0,0,,,,,,,NOOSE,C,z,y,./images/NOOSE.png,,,,,,,,,,,,,,,,,,,,,z,1,1.8209,,,,,,,,0,82,82,156,1
,,,,,,,,,,,,,,,,,,39,2022-02-12_12h45.07.527,lexical_decision_task_DD_L4,2021.2.3,Linux x86_64,60.09254252,,,,,,,,,,,0.784,1,,,,,,,,,,,,,,,,,,,,,,,,0.008274476,-0.134960214,0,0,0,space,,,,,,WEASEL,LB,z,y,./images/WEASELLB.png,1.0342,,,,,,,,,,,,,,,,,,,,z,1,0.784,,,,,,,,0,83,83,164,1
,,,,,,,,,,,,,,,,,,39,2022-02-12_12h45.07.527,lexical_decision_task_DD_L4,2021.2.3,Linux x86_64,60.09254252,,,,,,,,,,,1.3889,1,,,,,,,,,,,,,,,,,,,,,,,,0.008274476,-0.134960214,0,0,0,,,,,,,SPORT,C,z,y,./images/SPORT.png,,,,,,,,,,,,,,,,,,,,,z,1,1.3889,,,,,,,,0,84,84,132,1
,,,,,,,,,,,,,,,,,,39,2022-02-12_12h45.07.527,lexical_decision_task_DD_L4,2021.2.3,Linux x86_64,60.09254252,,,,,,,,,,,0.9002,0,,,,,,,,,,,,,,,,,,,,,,,,0.008274476,-0.134960214,0,0,0,,,,,,,HOCKEY,LB,m,y,./images/HOCKEYLB.png,,,,,,,,,,,,,,,,,,,,,z,0,0.9002,,,,,,,,0,85,85,32,1
,,,,,,,,,,,,,,,,,,39,2022-02-12_12h45.07.527,lexical_decision_task_DD_L4,2021.2.3,Linux x86_64,60.09254252,,,,,,,,,,,1.6813,0,,,,,,,,,,,,,,,,,,,,,,,,0.008274476,-0.134960214,0,0,0,,,,,,,TIGER,HB,m,y,./images/TIGERHB.png,,,,,,,,,,,,,,,,,,,,,z,0,1.6813,,,,,,,,0,86,86,37,1
,,,,,,,,,,,,,,,,,,39,2022-02-12_12h45.07.527,lexical_decision_task_DD_L4,2021.2.3,Linux x86_64,60.09254252,,,,,,,,,,,0.8833,1,,,,,,,,,,,,,,,,,,,,,,,,0.008274476,-0.134960214,0,0,0,,,,,,,SNAKE,HB,m,y,./images/SNAKEHB.png,,,,,,,,,,,,,,,,,,,,,m,1,0.8833,,,,,,,,0,87,87,40,1
,,,,,,,,,,,,,,,,,,39,2022-02-12_12h45.07.527,lexical_decision_task_DD_L4,2021.2.3,Linux x86_64,60.09254252,,,,,,,,,,,0.9033,0,,,,,,,,,,,,,,,,,,,,,,,,0.008274476,-0.134960214,0,0,0,,,,,,,CHERRY,C,m,y,./images/CHERRY.png,,,,,,,,,,,,,,,,,,,,,z,0,0.9033,,,,,,,,0,88,88,54,1
,,,,,,,,,,,,,,,,,,39,2022-02-12_12h45.07.527,lexical_decision_task_DD_L4,2021.2.3,Linux x86_64,60.09254252,,,,,,,,,,,1.4475,1,,,,,,,,,,,,,,,,,,,,,,,,0.008274476,-0.134960214,0,0,0,,,,,,,STOOL,HB,m,y,./images/STOOLHB.png,,,,,,,,,,,,,,,,,,,,,m,1,1.4475,,,,,,,,0,89,89,43,1
,,,,,,,,,,,,,,,,,,39,2022-02-12_12h45.07.527,lexical_decision_task_DD_L4,2021.2.3,Linux x86_64,60.09254252,,,,,,,,,,,1.1816,0,,,,,,,,,,,,,,,,,,,,,,,,0.008274476,-0.134960214,0,0,0,,,,,,,PISTOL,LB,m,y,./images/PISTOLLB.png,,,,,,,,,,,,,,,,,,,,,z,0,1.1816,,,,,,,,0,90,90,29,1
,,,,,,,,,,,,,,,,,,39,2022-02-12_12h45.07.527,lexical_decision_task_DD_L4,2021.2.3,Linux x86_64,60.09254252,,,,,,,,,,,1.0663,1,,,,,,,,,,,,,,,,,,,,,,,,0.008274476,-0.134960214,0,0,0,,,,,,,DOUGH,HB,z,y,./images/DOUGHHB.png,,,,,,,,,,,,,,,,,,,,,z,1,1.0663,,,,,,,,0,91,91,103,1
,,,,,,,,,,,,,,,,,,39,2022-02-12_12h45.07.527,lexical_decision_task_DD_L4,2021.2.3,Linux x86_64,60.09254252,,,,,,,,,,,0.7998,1,,,,,,,,,,,,,,,,,,,,,,,,0.008274476,-0.134960214,0,0,0,,,,,,,SHELF,C,z,y,./images/SHELF.png,,,,,,,,,,,,,,,,,,,,,z,1,0.7998,,,,,,,,0,92,92,123,1
,,,,,,,,,,,,,,,,,,39,2022-02-12_12h45.07.527,lexical_decision_task_DD_L4,2021.2.3,Linux x86_64,60.09254252,,,,,,,,,,,1.1879,1,,,,,,,,,,,,,,,,,,,,,,,,0.008274476,-0.134960214,0,0,0,,,,,,,PARCEL,C,m,y,./images/PARCEL.png,,,,,,,,,,,,,,,,,,,,,m,1,1.1879,,,,,,,,0,93,93,18,1
,,,,,,,,,,,,,,,,,,39,2022-02-12_12h45.07.527,lexical_decision_task_DD_L4,2021.2.3,Linux x86_64,60.09254252,,,,,,,,,,,0.9153,1,,,,,,,,,,,,,,,,,,,,,,,,0.008274476,-0.134960214,0,0,0,,,,,,,BIRTH,HB,z,y,./images/BIRTHHB.png,,,,,,,,,,,,,,,,,,,,,z,1,0.9153,,,,,,,,0,94,94,121,1
,,,,,,,,,,,,,,,,,,39,2022-02-12_12h45.07.527,lexical_decision_task_DD_L4,2021.2.3,Linux x86_64,60.09254252,,,,,,,,,,,1.0191,1,,,,,,,,,,,,,,,,,,,,,,,,0.008274476,-0.134960214,0,0,0,,,,,,,ATTIC,C,z,y,./images/ATTIC.png,,,,,,,,,,,,,,,,,,,,,z,1,1.0191,,,,,,,,0,95,95,111,1
,,,,,,,,,,,,,,,,,,39,2022-02-12_12h45.07.527,lexical_decision_task_DD_L4,2021.2.3,Linux x86_64,60.09254252,,,,,,,,,,,0.9317,1,,,,,,,,,,,,,,,,,,,,,,,,0.008274476,-0.134960214,0,0,0,,,,,,,PIMPLE,LB,z,y,./images/PIMPLELB.png,,,,,,,,,,,,,,,,,,,,,z,1,0.9317,,,,,,,,0,96,96,155,1
,,,,,,,,,,,,,,,,,,39,2022-02-12_12h45.07.527,lexical_decision_task_DD_L4,2021.2.3,Linux x86_64,60.09254252,,,,,,,,,,,0.8155,1,,,,,,,,,,,,,,,,,,,,,,,,0.008274476,-0.134960214,0,0,0,,,,,,,SPINE,LB,m,y,./images/SPINELB.png,,,,,,,,,,,,,,,,,,,,,m,1,0.8155,,,,,,,,0,97,97,65,1
,,,,,,,,,,,,,,,,,,39,2022-02-12_12h45.07.527,lexical_decision_task_DD_L4,2021.2.3,Linux x86_64,60.09254252,,,,,,,,,,,2.4798,1,,,,,,,,,,,,,,,,,,,,,,,,0.008274476,-0.134960214,0,0,0,,,,,,,FINGER,C,z,y,./images/FINGER.png,,,,,,,,,,,,,,,,,,,,,z,1,2.4798,,,,,,,,0,98,98,87,1
,,,,,,,,,,,,,,,,,,39,2022-02-12_12h45.07.527,lexical_decision_task_DD_L4,2021.2.3,Linux x86_64,60.09254252,,,,,,,,,,,0.8166,1,,,,,,,,,,,,,,,,,,,,,,,,0.008274476,-0.134960214,0,0,0,,,,,,,BAMBOO,LB,m,y,./images/BAMBOOLB.png,,,,,,,,,,,,,,,,,,,,,m,1,0.8166,,,,,,,,0,99,99,5,1
,,,,,,,,,,,,,,,,,,39,2022-02-12_12h45.07.527,lexical_decision_task_DD_L4,2021.2.3,Linux x86_64,60.09254252,,,,,,,,,,,0.8017,1,,,,,,,,,,,,,,,,,,,,,,,,0.008274476,-0.134960214,0,0,0,,,,,,,ALLEY,HB,m,y,./images/ALLEYHB.png,,,,,,,,,,,,,,,,,,,,,m,1,0.8017,,,,,,,,0,100,100,55,1
,,,,,,,,,,,,,,,,,,39,2022-02-12_12h45.07.527,lexical_decision_task_DD_L4,2021.2.3,Linux x86_64,60.09254252,,,,,,,,,,,1.0483,0,,,,,,,,,,,,,,,,,,,,,,,,0.008274476,-0.134960214,0,0,0,,,,,,,ARTIST,HB,m,y,./images/ARTISTHB.png,,,,,,,,,,,,,,,,,,,,,z,0,1.0483,,,,,,,,0,101,101,61,1
,,,,,,,,,,,,,,,,,,39,2022-02-12_12h45.07.527,lexical_decision_task_DD_L4,2021.2.3,Linux x86_64,60.09254252,,,,,,,,,,,0.8826,1,,,,,,,,,,,,,,,,,,,,,,,,0.008274476,-0.134960214,0,0,0,,,,,,,PEARL,HB,z,y,./images/PEARLHB.png,,,,,,,,,,,,,,,,,,,,,z,1,0.8826,,,,,,,,0,102,102,130,1
,,,,,,,,,,,,,,,,,,39,2022-02-12_12h45.07.527,lexical_decision_task_DD_L4,2021.2.3,Linux x86_64,60.09254252,,,,,,,,,,,1.0161,1,,,,,,,,,,,,,,,,,,,,,,,,0.008274476,-0.134960214,0,0,0,,,,,,,SWEAT,C,z,y,./images/SWEAT.png,,,,,,,,,,,,,,,,,,,,,z,1,1.0161,,,,,,,,0,103,103,150,1
,,,,,,,,,,,,,,,,,,39,2022-02-12_12h45.07.527,lexical_decision_task_DD_L4,2021.2.3,Linux x86_64,60.09254252,,,,,,,,,,,1.0997,0,,,,,,,,,,,,,,,,,,,,,,,,0.008274476,-0.134960214,0,0,0,,,,,,,PLANET,LB,m,y,./images/PLANETLB.png,,,,,,,,,,,,,,,,,,,,,z,0,1.0997,,,,,,,,0,104,104,80,1
,,,,,,,,,,,,,,,,,,39,2022-02-12_12h45.07.527,lexical_decision_task_DD_L4,2021.2.3,Linux x86_64,60.09254252,,,,,,,,,,,0.6232,1,,,,,,,,,,,,,,,,,,,,,,,,0.008274476,-0.134960214,0,0,0,,,,,,,MOTOR,HB,z,y,./images/MOTORHB.png,,,,,,,,,,,,,,,,,,,,,z,1,0.6232,,,,,,,,0,105,105,97,1
,,,,,,,,,,,,,,,,,,39,2022-02-12_12h45.07.527,lexical_decision_task_DD_L4,2021.2.3,Linux x86_64,60.09254252,,,,,,,,,,,0.6323,1,,,,,,,,,,,,,,,,,,,,,,,,0.008274476,-0.134960214,0,0,0,,,,,,,POODLE,C,z,y,./images/POODLE.png,,,,,,,,,,,,,,,,,,,,,z,1,0.6323,,,,,,,,0,106,106,165,1
,,,,,,,,,,,,,,,,,,39,2022-02-12_12h45.07.527,lexical_decision_task_DD_L4,2021.2.3,Linux x86_64,60.09254252,,,,,,,,,,,0.8478,0,,,,,,,,,,,,,,,,,,,,,,,,0.008274476,-0.134960214,0,0,0,,,,,,,WAGON,HB,m,y,./images/WAGONHB.png,,,,,,,,,,,,,,,,,,,,,z,0,0.8478,,,,,,,,0,107,107,7,1
,,,,,,,,,,,,,,,,,,39,2022-02-12_12h45.07.527,lexical_decision_task_DD_L4,2021.2.3,Linux x86_64,60.09254252,,,,,,,,,,,0.7763,1,,,,,,,,,,,,,,,,,,,,,,,,0.008274476,-0.134960214,0,0,0,,,,,,,LLAMA,LB,m,y,./images/LLAMALB.png,,,,,,,,,,,,,,,,,,,,,m,1,0.7763,,,,,,,,0,108,108,35,1
,,,,,,,,,,,,,,,,,,39,2022-02-12_12h45.07.527,lexical_decision_task_DD_L4,2021.2.3,Linux x86_64,60.09254252,,,,,,,,,,,0.8975,1,,,,,,,,,,,,,,,,,,,,,,,,0.008274476,-0.134960214,0,0,0,,,,,,,CANOE,HB,m,y,./images/CANOEHB.png,,,,,,,,,,,,,,,,,,,,,m,1,0.8975,,,,,,,,0,109,109,58,1
,,,,,,,,,,,,,,,,,,39,2022-02-12_12h45.07.527,lexical_decision_task_DD_L4,2021.2.3,Linux x86_64,60.09254252,,,,,,,,,,,0.7374,0,,,,,,,,,,,,,,,,,,,,,,,,0.008274476,-0.134960214,0,0,0,,,,,,,HEATER,LB,m,y,./images/HEATERLB.png,,,,,,,,,,,,,,,,,,,,,z,0,0.7374,,,,,,,,0,110,110,56,1
,,,,,,,,,,,,,,,,,,39,2022-02-12_12h45.07.527,lexical_decision_task_DD_L4,2021.2.3,Linux x86_64,60.09254252,,,,,,,,,,,1.0974,1,,,,,,,,,,,,,,,,,,,,,,,,0.008274476,-0.134960214,0,0,0,,,,,,,GLOVE,HB,m,y,./images/GLOVEHB.png,,,,,,,,,,,,,,,,,,,,,m,1,1.0974,,,,,,,,0,111,111,73,1
,,,,,,,,,,,,,,,,,,39,2022-02-12_12h45.07.527,lexical_decision_task_DD_L4,2021.2.3,Linux x86_64,60.09254252,,,,,,,,,,,1.5656,0,,,,,,,,,,,,,,,,,,,,,,,,0.008274476,-0.134960214,0,0,0,,,,,,,CHALK,HB,m,y,./images/CHALKHB.png,,,,,,,,,,,,,,,,,,,,,z,0,1.5656,,,,,,,,0,112,112,25,1
,,,,,,,,,,,,,,,,,,39,2022-02-12_12h45.07.527,lexical_decision_task_DD_L4,2021.2.3,Linux x86_64,60.09254252,,,,,,,,,,,1.3689,1,,,,,,,,,,,,,,,,,,,,,,,,0.008274476,-0.134960214,0,0,0,,,,,,,SCREW,C,z,y,./images/SCREW.png,,,,,,,,,,,,,,,,,,,,,z,1,1.3689,,,,,,,,0,113,113,108,1
,,,,,,,,,,,,,,,,,,39,2022-02-12_12h45.07.527,lexical_decision_task_DD_L4,2021.2.3,Linux x86_64,60.09254252,,,,,,,,,,,0.7652,1,,,,,,,,,,,,,,,,,,,,,,,,0.008274476,-0.134960214,0,0,0,,,,,,,SLOPE,C,m,y,./images/SLOPE.png,,,,,,,,,,,,,,,,,,,,,m,1,0.7652,,,,,,,,0,114,114,30,1
,,,,,,,,,,,,,,,,,,39,2022-02-12_12h45.07.527,lexical_decision_task_DD_L4,2021.2.3,Linux x86_64,60.09254252,,,,,,,,,,,2.0487,1,,,,,,,,,,,,,,,,,,,,,,,,0.008274476,-0.134960214,0,0,0,,,,,,,MALLET,LB,z,y,./images/MALLETLB.png,,,,,,,,,,,,,,,,,,,,,z,1,2.0487,,,,,,,,0,115,115,134,1
,,,,,,,,,,,,,,,,,,39,2022-02-12_12h45.07.527,lexical_decision_task_DD_L4,2021.2.3,Linux x86_64,60.09254252,,,,,,,,,,,1.0567,0,,,,,,,,,,,,,,,,,,,,,,,,0.008274476,-0.134960214,0,0,0,,,,,,,BUTTER,C,m,y,./images/BUTTER.png,,,,,,,,,,,,,,,,,,,,,z,0,1.0567,,,,,,,,0,116,116,27,1
,,,,,,,,,,,,,,,,,,39,2022-02-12_12h45.07.527,lexical_decision_task_DD_L4,2021.2.3,Linux x86_64,60.09254252,,,,,,,,,,,0.9013,1,,,,,,,,,,,,,,,,,,,,,,,,0.008274476,-0.134960214,0,0,0,,,,,,,FOLDER,C,z,y,./images/FOLDER.png,,,,,,,,,,,,,,,,,,,,,z,1,0.9013,,,,,,,,0,117,117,126,1
,,,,,,,,,,,,,,,,,,39,2022-02-12_12h45.07.527,lexical_decision_task_DD_L4,2021.2.3,Linux x86_64,60.09254252,,,,,,,,,,,0.6323,1,,,,,,,,,,,,,,,,,,,,,,,,0.008274476,-0.134960214,0,0,0,,,,,,,MUMMY,HB,m,y,./images/MUMMYHB.png,,,,,,,,,,,,,,,,,,,,,m,1,0.6323,,,,,,,,0,118,118,46,1
,,,,,,,,,,,,,,,,,,39,2022-02-12_12h45.07.527,lexical_decision_task_DD_L4,2021.2.3,Linux x86_64,60.09254252,,,,,,,,,,,1.1553,1,,,,,,,,,,,,,,,,,,,,,,,,0.008274476,-0.134960214,0,0,0,,,,,,,MONKEY,C,m,y,./images/MONKEY.png,,,,,,,,,,,,,,,,,,,,,m,1,1.1553,,,,,,,,0,119,119,45,1
,,,,,,,,,,,,,,,,,,39,2022-02-12_12h45.07.527,lexical_decision_task_DD_L4,2021.2.3,Linux x86_64,60.09254252,,,,,,,,,,,1.2321,1,,,,,,,,,,,,,,,,,,,,,,,,0.008274476,-0.134960214,0,0,0,,,,,,,STEAK,HB,m,y,./images/STEAKHB.png,,,,,,,,,,,,,,,,,,,,,m,1,1.2321,,,,,,,,0,120,120,31,1
,,,,,,,,,,,,,,,,,,39,2022-02-12_12h45.07.527,lexical_decision_task_DD_L4,2021.2.3,Linux x86_64,60.09254252,,,,,,,,,,,0.7476,0,,,,,,,,,,,,,,,,,,,,,,,,0.008274476,-0.134960214,0,0,0,,,,,,,CLIFF,LB,m,y,./images/CLIFFLB.png,,,,,,,,,,,,,,,,,,,,,z,0,0.7476,,,,,,,,0,121,121,8,1
,,,,,,,,,,,,,,,,,,39,2022-02-12_12h45.07.527,lexical_decision_task_DD_L4,2021.2.3,Linux x86_64,60.09254252,,,,,,,,,,,0.9361,1,,,,,,,,,,,,,,,,,,,,,,,,0.008274476,-0.134960214,0,0,0,,,,,,,SKIING,LB,z,y,./images/SKIINGLB.png,,,,,,,,,,,,,,,,,,,,,z,1,0.9361,,,,,,,,0,122,122,101,1
,,,,,,,,,,,,,,,,,,39,2022-02-12_12h45.07.527,lexical_decision_task_DD_L4,2021.2.3,Linux x86_64,60.09254252,,,,,,,,,,,0.7397,1,,,,,,,,,,,,,,,,,,,,,,,,0.008274476,-0.134960214,0,0,0,,,,,,,CEMENT,LB,z,y,./images/CEMENTLB.png,,,,,,,,,,,,,,,,,,,,,z,1,0.7397,,,,,,,,0,123,123,158,1
,,,,,,,,,,,,,,,,,,39,2022-02-12_12h45.07.527,lexical_decision_task_DD_L4,2021.2.3,Linux x86_64,60.09254252,,,,,,,,,,,1.1532,0,,,,,,,,,,,,,,,,,,,,,,,,0.008274476,-0.134960214,0,0,0,,,,,,,CHAIN,C,m,y,./images/CHAIN.png,,,,,,,,,,,,,,,,,,,,,z,0,1.1532,,,,,,,,0,124,124,42,1
,,,,,,,,,,,,,,,,,,39,2022-02-12_12h45.07.527,lexical_decision_task_DD_L4,2021.2.3,Linux x86_64,60.09254252,,,,,,,,,,,0.9246,1,,,,,,,,,,,,,,,,,,,,,,,,0.008274476,-0.134960214,0,0,0,space,,,,,,DESERT,HB,m,y,./images/DESERTHB.png,7.4468,,,,,,,,,,,,,,,,,,,,m,1,0.9246,,,,,,,,0,125,125,52,1
,,,,,,,,,,,,,,,,,,39,2022-02-12_12h45.07.527,lexical_decision_task_DD_L4,2021.2.3,Linux x86_64,60.09254252,,,,,,,,,,,1.3399,0,,,,,,,,,,,,,,,,,,,,,,,,0.008274476,-0.134960214,0,0,0,,,,,,,BASKET,LB,m,y,./images/BASKETLB.png,,,,,,,,,,,,,,,,,,,,,z,0,1.3399,,,,,,,,0,126,126,44,1
,,,,,,,,,,,,,,,,,,39,2022-02-12_12h45.07.527,lexical_decision_task_DD_L4,2021.2.3,Linux x86_64,60.09254252,,,,,,,,,,,0.9964,1,,,,,,,,,,,,,,,,,,,,,,,,0.008274476,-0.134960214,0,0,0,,,,,,,CANDLE,HB,z,y,./images/CANDLEHB.png,,,,,,,,,,,,,,,,,,,,,z,1,0.9964,,,,,,,,0,127,127,145,1
,,,,,,,,,,,,,,,,,,39,2022-02-12_12h45.07.527,lexical_decision_task_DD_L4,2021.2.3,Linux x86_64,60.09254252,,,,,,,,,,,0.7636,0,,,,,,,,,,,,,,,,,,,,,,,,0.008274476,-0.134960214,0,0,0,,,,,,,BOILER,C,m,y,./images/BOILER.png,,,,,,,,,,,,,,,,,,,,,z,0,0.7636,,,,,,,,0,128,128,36,1
,,,,,,,,,,,,,,,,,,39,2022-02-12_12h45.07.527,lexical_decision_task_DD_L4,2021.2.3,Linux x86_64,60.09254252,,,,,,,,,,,1.0908,1,,,,,,,,,,,,,,,,,,,,,,,,0.008274476,-0.134960214,0,0,0,,,,,,,TORCH,LB,z,y,./images/TORCHLB.png,,,,,,,,,,,,,,,,,,,,,z,1,1.0908,,,,,,,,0,129,129,152,1
,,,,,,,,,,,,,,,,,,39,2022-02-12_12h45.07.527,lexical_decision_task_DD_L4,2021.2.3,Linux x86_64,60.09254252,,,,,,,,,,,0.9072,0,,,,,,,,,,,,,,,,,,,,,,,,0.008274476,-0.134960214,0,0,0,,,,,,,DRILL,C,m,y,./images/DRILL.png,,,,,,,,,,,,,,,,,,,,,z,0,0.9072,,,,,,,,0,130,130,81,1
,,,,,,,,,,,,,,,,,,39,2022-02-12_12h45.07.527,lexical_decision_task_DD_L4,2021.2.3,Linux x86_64,60.09254252,,,,,,,,,,,0.9185,1,,,,,,,,,,,,,,,,,,,,,,,,0.008274476,-0.134960214,0,0,0,,,,,,,RAZOR,HB,m,y,./images/RAZORHB.png,,,,,,,,,,,,,,,,,,,,,m,1,0.9185,,,,,,,,0,131,131,34,1
,,,,,,,,,,,,,,,,,,39,2022-02-12_12h45.07.527,lexical_decision_task_DD_L4,2021.2.3,Linux x86_64,60.09254252,,,,,,,,,,,0.8739,1,,,,,,,,,,,,,,,,,,,,,,,,0.008274476,-0.134960214,0,0,0,,,,,,,ONION,C,z,y,./images/ONION.png,,,,,,,,,,,,,,,,,,,,,z,1,0.8739,,,,,,,,0,132,132,135,1
,,,,,,,,,,,,,,,,,,39,2022-02-12_12h45.07.527,lexical_decision_task_DD_L4,2021.2.3,Linux x86_64,60.09254252,,,,,,,,,,,1.2891,1,,,,,,,,,,,,,,,,,,,,,,,,0.008274476,-0.134960214,0,0,0,,,,,,,GRANNY,LB,m,y,./images/GRANNYLB.png,,,,,,,,,,,,,,,,,,,,,m,1,1.2891,,,,,,,,0,133,133,20,1
,,,,,,,,,,,,,,,,,,39,2022-02-12_12h45.07.527,lexical_decision_task_DD_L4,2021.2.3,Linux x86_64,60.09254252,,,,,,,,,,,1.884,1,,,,,,,,,,,,,,,,,,,,,,,,0.008274476,-0.134960214,0,0,0,,,,,,,LADDER,LB,z,y,./images/LADDERLB.png,,,,,,,,,,,,,,,,,,,,,z,1,1.884,,,,,,,,0,134,134,122,1
,,,,,,,,,,,,,,,,,,39,2022-02-12_12h45.07.527,lexical_decision_task_DD_L4,2021.2.3,Linux x86_64,60.09254252,,,,,,,,,,,0.6895,1,,,,,,,,,,,,,,,,,,,,,,,,0.008274476,-0.134960214,0,0,0,,,,,,,MUSCLE,HB,z,y,./images/MUSCLEHB.png,,,,,,,,,,,,,,,,,,,,,z,1,0.6895,,,,,,,,0,135,135,88,1
,,,,,,,,,,,,,,,,,,39,2022-02-12_12h45.07.527,lexical_decision_task_DD_L4,2021.2.3,Linux x86_64,60.09254252,,,,,,,,,,,0.638,1,,,,,,,,,,,,,,,,,,,,,,,,0.008274476,-0.134960214,0,0,0,,,,,,,TWINS,C,z,y,./images/TWINS.png,,,,,,,,,,,,,,,,,,,,,z,1,0.638,,,,,,,,0,136,136,144,1
,,,,,,,,,,,,,,,,,,39,2022-02-12_12h45.07.527,lexical_decision_task_DD_L4,2021.2.3,Linux x86_64,60.09254252,,,,,,,,,,,1.9159,1,,,,,,,,,,,,,,,,,,,,,,,,0.008274476,-0.134960214,0,0,0,,,,,,,BAKER,C,m,y,./images/BAKER.png,,,,,,,,,,,,,,,,,,,,,m,1,1.9159,,,,,,,,0,137,137,63,1
,,,,,,,,,,,,,,,,,,39,2022-02-12_12h45.07.527,lexical_decision_task_DD_L4,2021.2.3,Linux x86_64,60.09254252,,,,,,,,,,,0.6989,1,,,,,,,,,,,,,,,,,,,,,,,,0.008274476,-0.134960214,0,0,0,,,,,,,CRUST,HB,z,y,./images/CRUSTHB.png,,,,,,,,,,,,,,,,,,,,,z,1,0.6989,,,,,,,,0,138,138,163,1
,,,,,,,,,,,,,,,,,,39,2022-02-12_12h45.07.527,lexical_decision_task_DD_L4,2021.2.3,Linux x86_64,60.09254252,,,,,,,,,,,1.213,1,,,,,,,,,,,,,,,,,,,,,,,,0.008274476,-0.134960214,0,0,0,,,,,,,BRIDE,HB,m,y,./images/BRIDEHB.png,,,,,,,,,,,,,,,,,,,,,m,1,1.213,,,,,,,,0,139,139,64,1
,,,,,,,,,,,,,,,,,,39,2022-02-12_12h45.07.527,lexical_decision_task_DD_L4,2021.2.3,Linux x86_64,60.09254252,,,,,,,,,,,0.7988,1,,,,,,,,,,,,,,,,,,,,,,,,0.008274476,-0.134960214,0,0,0,,,,,,,BELLY,HB,z,y,./images/BELLYHB.png,,,,,,,,,,,,,,,,,,,,,z,1,0.7988,,,,,,,,0,140,140,94,1
,,,,,,,,,,,,,,,,,,39,2022-02-12_12h45.07.527,lexical_decision_task_DD_L4,2021.2.3,Linux x86_64,60.09254252,,,,,,,,,,,0.7357,1,,,,,,,,,,,,,,,,,,,,,,,,0.008274476,-0.134960214,0,0,0,,,,,,,PICKLE,LB,z,y,./images/PICKLELB.png,,,,,,,,,,,,,,,,,,,,,z,1,0.7357,,,,,,,,0,141,141,98,1
,,,,,,,,,,,,,,,,,,39,2022-02-12_12h45.07.527,lexical_decision_task_DD_L4,2021.2.3,Linux x86_64,60.09254252,,,,,,,,,,,1.038,1,,,,,,,,,,,,,,,,,,,,,,,,0.008274476,-0.134960214,0,0,0,,,,,,,CLOUD,LB,m,y,./images/CLOUDLB.png,,,,,,,,,,,,,,,,,,,,,m,1,1.038,,,,,,,,0,142,142,26,1
,,,,,,,,,,,,,,,,,,39,2022-02-12_12h45.07.527,lexical_decision_task_DD_L4,2021.2.3,Linux x86_64,60.09254252,,,,,,,,,,,0.6749,0,,,,,,,,,,,,,,,,,,,,,,,,0.008274476,-0.134960214,0,0,0,,,,,,,BISHOP,HB,m,y,./images/BISHOPHB.png,,,,,,,,,,,,,,,,,,,,,z,0,0.6749,,,,,,,,0,143,143,49,1
,,,,,,,,,,,,,,,,,,39,2022-02-12_12h45.07.527,lexical_decision_task_DD_L4,2021.2.3,Linux x86_64,60.09254252,,,,,,,,,,,0.7251,0,,,,,,,,,,,,,,,,,,,,,,,,0.008274476,-0.134960214,0,0,0,,,,,,,RULER,HB,m,y,./images/RULERHB.png,,,,,,,,,,,,,,,,,,,,,z,0,0.7251,,,,,,,,0,144,144,79,1
,,,,,,,,,,,,,,,,,,39,2022-02-12_12h45.07.527,lexical_decision_task_DD_L4,2021.2.3,Linux x86_64,60.09254252,,,,,,,,,,,2.2614,0,,,,,,,,,,,,,,,,,,,,,,,,0.008274476,-0.134960214,0,0,0,,,,,,,PENCE,HB,z,y,./images/PENCEHB.png,,,,,,,,,,,,,,,,,,,,,m,0,2.2614,,,,,,,,0,145,145,100,1
,,,,,,,,,,,,,,,,,,39,2022-02-12_12h45.07.527,lexical_decision_task_DD_L4,2021.2.3,Linux x86_64,60.09254252,,,,,,,,,,,2.2731,1,,,,,,,,,,,,,,,,,,,,,,,,0.008274476,-0.134960214,0,0,0,,,,,,,TOMATO,C,z,y,./images/TOMATO.png,,,,,,,,,,,,,,,,,,,,,z,1,2.2731,,,,,,,,0,146,146,84,1
,,,,,,,,,,,,,,,,,,39,2022-02-12_12h45.07.527,lexical_decision_task_DD_L4,2021.2.3,Linux x86_64,60.09254252,,,,,,,,,,,1.4683,1,,,,,,,,,,,,,,,,,,,,,,,,0.008274476,-0.134960214,0,0,0,,,,,,,BABOON,HB,z,y,./images/BABOONHB.png,,,,,,,,,,,,,,,,,,,,,z,1,1.4683,,,,,,,,0,147,147,142,1
,,,,,,,,,,,,,,,,,,39,2022-02-12_12h45.07.527,lexical_decision_task_DD_L4,2021.2.3,Linux x86_64,60.09254252,,,,,,,,,,,0.8979,1,,,,,,,,,,,,,,,,,,,,,,,,0.008274476,-0.134960214,0,0,0,,,,,,,BANNER,HB,z,y,./images/BANNERHB.png,,,,,,,,,,,,,,,,,,,,,z,1,0.8979,,,,,,,,0,148,148,136,1
,,,,,,,,,,,,,,,,,,39,2022-02-12_12h45.07.527,lexical_decision_task_DD_L4,2021.2.3,Linux x86_64,60.09254252,,,,,,,,,,,0.8383,1,,,,,,,,,,,,,,,,,,,,,,,,0.008274476,-0.134960214,0,0,0,,,,,,,DANCER,C,m,y,./images/DANCER.png,,,,,,,,,,,,,,,,,,,,,m,1,0.8383,,,,,,,,0,149,149,21,1
,,,,,,,,,,,,,,,,,,39,2022-02-12_12h45.07.527,lexical_decision_task_DD_L4,2021.2.3,Linux x86_64,60.09254252,,,,,,,,,,,0.6993,1,,,,,,,,,,,,,,,,,,,,,,,,0.008274476,-0.134960214,0,0,0,,,,,,,BURIAL,LB,z,y,./images/BURIALLB.png,,,,,,,,,,,,,,,,,,,,,z,1,0.6993,,,,,,,,0,150,150,143,1
,,,,,,,,,,,,,,,,,,39,2022-02-12_12h45.07.527,lexical_decision_task_DD_L4,2021.2.3,Linux x86_64,60.09254252,,,,,,,,,,,0.8359,1,,,,,,,,,,,,,,,,,,,,,,,,0.008274476,-0.134960214,0,0,0,,,,,,,RHINO,C,z,y,./images/RHINO.png,,,,,,,,,,,,,,,,,,,,,z,1,0.8359,,,,,,,,0,151,151,93,1
,,,,,,,,,,,,,,,,,,39,2022-02-12_12h45.07.527,lexical_decision_task_DD_L4,2021.2.3,Linux x86_64,60.09254252,,,,,,,,,,,0.8555,1,,,,,,,,,,,,,,,,,,,,,,,,0.008274476,-0.134960214,0,0,0,,,,,,,SHIELD,C,m,y,./images/SHIELD.png,,,,,,,,,,,,,,,,,,,,,m,1,0.8555,,,,,,,,0,152,152,48,1
