key_resp.keys,instr_done_touch.x,instr_done_touch.y,instr_done_touch.leftButton,instr_done_touch.midButton,instr_done_touch.rightButton,instr_done_touch.clicked_name,instruction_pages.thisRepN,instruction_pages.thisTrialN,instruction_pages.thisN,instruction_pages.thisIndex,instruction_pages.ran,pageN,phase,instruct_text,has_image,instruct_image,participant,age,date,expName,psychopyVersion,OS,frameRate,key_resp.rt,response.keys,response.corr,response.rt,touch_resp.x,touch_resp.y,touch_resp.leftButton,touch_resp.midButton,touch_resp.rightButton,touch_resp.time,touch_resp.clicked_name,rt,corr,practrials.thisRepN,practrials.thisTrialN,practrials.thisN,practrials.thisIndex,practrials.ran,TrialID,Target,corrAns,end_of_practice_trials_pages.thisRepN,end_of_practice_trials_pages.thisTrialN,end_of_practice_trials_pages.thisN,end_of_practice_trials_pages.thisIndex,end_of_practice_trials_pages.ran,key_resp_2.keys,key_resp_2.corr,key_resp_2.rt,targ_click.x,targ_click.y,targ_click.leftButton,targ_click.midButton,targ_click.rightButton,targ_click.time,targ_click.clicked_name,break_done_touch.x,break_done_touch.y,break_done_touch.leftButton,break_done_touch.midButton,break_done_touch.rightButton,break_done_keyboard.keys,maintrials.thisRepN,maintrials.thisTrialN,maintrials.thisN,maintrials.thisIndex,maintrials.ran,string,blur,study,lex,stim_path,break_done_keyboard.rt,mouse_2.x,mouse_2.y,mouse_2.leftButton,mouse_2.midButton,mouse_2.rightButton,mouse_2.clicked_name,slider.response,slider.rt,trials.thisRepN,trials.thisTrialN,trials.thisN,trials.thisIndex,trials.ran,test_instructions.thisRepN,test_instructions.thisTrialN,test_instructions.thisN,test_instructions.thisIndex,test_instructions.ran,key_resp_3.keys,key_resp_3.corr,key_resp_3.rt,test_click.x,test_click.y,test_click.leftButton,test_click.midButton,test_click.rightButton,test_click.time,test_click.clicked_name,test_phase.thisRepN,test_phase.thisTrialN,test_phase.thisN,test_phase.thisIndex,test_phase.ran
,0.01155131,-0.399940932,1,0,0,instr_done_button,0,0,0,0,1,1,instructions,"INSTRUCTIONS
At the start of each trial, look at the plus sign  (+) in the center of the screen.  This tells you that a trial is about to begin and where to look. Second, the plus sign will disappear and a string of letters will appear. Your task is to determine if the string of letters is a word or not. If the item is a word press the M key (on keyboard)  or touch the word button (phone/tablet).  If the item is not a word,  press the  Z key (on keyboard)  or touch the nonword button (on phone/tablet). 
Press the space bar or touch  continue.",0,,,37,2022-02-12_12h47.17.959,lexical_decision_task_DD_L4,2021.2.3,MacIntel,59.99880002,,,,,,,,,,,,,,,,,,,,,,,,,,,,,,,,,,,,,,,,,,,,,,,,,,,,,,,,,,,,,,,,,,,,,,,,,,,,,,,,,,,,,,
space,0.011264513,-0.398507012,0,0,0,,0,1,1,1,1,2,instructions,"If your device has a keyboard, press the 'Z' key for nonwords and the 'M' key for words.





Press the space bar or touch the button below to continue.",0,keyboard-example.gif,,37,2022-02-12_12h47.17.959,lexical_decision_task_DD_L4,2021.2.3,MacIntel,59.99880002,4.8386,,,,,,,,,,,,,,,,,,,,,,,,,,,,,,,,,,,,,,,,,,,,,,,,,,,,,,,,,,,,,,,,,,,,,,,,,,,,,,,,,,,,,
space,0.011264513,-0.398507012,0,0,0,,0,2,2,2,1,3,instructions,"If you are using a touchscreen only device, use the buttons on the screen. Do not use the mouse.





Press the space bar or touch the button below to continue.",0,touchscreen-example.gif,,37,2022-02-12_12h47.17.959,lexical_decision_task_DD_L4,2021.2.3,MacIntel,59.99880002,4.5497,,,,,,,,,,,,,,,,,,,,,,,,,,,,,,,,,,,,,,,,,,,,,,,,,,,,,,,,,,,,,,,,,,,,,,,,,,,,,,,,,,,,,
space,0.011264513,-0.398507012,0,0,0,,0,3,3,3,1,4,instructions,"It is very important that you respond as quickly and accurately as possible, as each letter string will only be on the screen for two seconds. If you do not respond within this time, the message 'Too slow!' will be displayed and the experiment will progress to the next letter string. The first 20 trials will be practice trials and you will receive feedback on your answers. 

Press the space bar or touch the button below to start the practice trials.",0,,,37,2022-02-12_12h47.17.959,lexical_decision_task_DD_L4,2021.2.3,MacIntel,59.99880002,4.1845,,,,,,,,,,,,,,,,,,,,,,,,,,,,,,,,,,,,,,,,,,,,,,,,,,,,,,,,,,,,,,,,,,,,,,,,,,,,,,,,,,,,,
,,,,,,,,,,,,,,,,,,37,2022-02-12_12h47.17.959,lexical_decision_task_DD_L4,2021.2.3,MacIntel,59.99880002,,z,1,0.844,,,,,,,,0.844,1,0,0,0,14,1,1001,THRALE,z,,,,,,,,,,,,,,,,,,,,,,,,,,,,,,,,,,,,,,,,,,,,,,,,,,,,,,,,,,,,,,,,,
,,,,,,,,,,,,,,,,,,37,2022-02-12_12h47.17.959,lexical_decision_task_DD_L4,2021.2.3,MacIntel,59.99880002,,m,1,0.4985,,,,,,,,0.4985,1,0,1,1,7,1,1001,VOLUME,m,,,,,,,,,,,,,,,,,,,,,,,,,,,,,,,,,,,,,,,,,,,,,,,,,,,,,,,,,,,,,,,,,
,,,,,,,,,,,,,,,,,,37,2022-02-12_12h47.17.959,lexical_decision_task_DD_L4,2021.2.3,MacIntel,59.99880002,,z,1,0.5999,,,,,,,,0.5999,1,0,2,2,13,1,1001,ROUPET,z,,,,,,,,,,,,,,,,,,,,,,,,,,,,,,,,,,,,,,,,,,,,,,,,,,,,,,,,,,,,,,,,,
,,,,,,,,,,,,,,,,,,37,2022-02-12_12h47.17.959,lexical_decision_task_DD_L4,2021.2.3,MacIntel,59.99880002,,m,1,0.5215,,,,,,,,0.5215,1,0,3,3,4,1,1001,SQUEAK,m,,,,,,,,,,,,,,,,,,,,,,,,,,,,,,,,,,,,,,,,,,,,,,,,,,,,,,,,,,,,,,,,,
,,,,,,,,,,,,,,,,,,37,2022-02-12_12h47.17.959,lexical_decision_task_DD_L4,2021.2.3,MacIntel,59.99880002,,m,1,0.5165,,,,,,,,0.5165,1,0,4,4,1,1,1001,ADJUST,m,,,,,,,,,,,,,,,,,,,,,,,,,,,,,,,,,,,,,,,,,,,,,,,,,,,,,,,,,,,,,,,,,
,,,,,,,,,,,,,,,,,,37,2022-02-12_12h47.17.959,lexical_decision_task_DD_L4,2021.2.3,MacIntel,59.99880002,,m,1,0.5509,,,,,,,,0.5509,1,0,5,5,2,1,1001,ALMOND,m,,,,,,,,,,,,,,,,,,,,,,,,,,,,,,,,,,,,,,,,,,,,,,,,,,,,,,,,,,,,,,,,,
,,,,,,,,,,,,,,,,,,37,2022-02-12_12h47.17.959,lexical_decision_task_DD_L4,2021.2.3,MacIntel,59.99880002,,m,1,0.5432,,,,,,,,0.5432,1,0,6,6,6,1,1001,ZOMBIE,m,,,,,,,,,,,,,,,,,,,,,,,,,,,,,,,,,,,,,,,,,,,,,,,,,,,,,,,,,,,,,,,,,
,,,,,,,,,,,,,,,,,,37,2022-02-12_12h47.17.959,lexical_decision_task_DD_L4,2021.2.3,MacIntel,59.99880002,,z,1,0.6316,,,,,,,,0.6316,1,0,7,7,9,1,1001,FARINY,z,,,,,,,,,,,,,,,,,,,,,,,,,,,,,,,,,,,,,,,,,,,,,,,,,,,,,,,,,,,,,,,,,
,,,,,,,,,,,,,,,,,,37,2022-02-12_12h47.17.959,lexical_decision_task_DD_L4,2021.2.3,MacIntel,59.99880002,,m,0,0.6,,,,,,,,0.6,0,0,8,8,10,1,1001,INLADE,z,,,,,,,,,,,,,,,,,,,,,,,,,,,,,,,,,,,,,,,,,,,,,,,,,,,,,,,,,,,,,,,,,
,,,,,,,,,,,,,,,,,,37,2022-02-12_12h47.17.959,lexical_decision_task_DD_L4,2021.2.3,MacIntel,59.99880002,,m,1,0.5509,,,,,,,,0.5509,1,0,9,9,3,1,1001,MATRIX,m,,,,,,,,,,,,,,,,,,,,,,,,,,,,,,,,,,,,,,,,,,,,,,,,,,,,,,,,,,,,,,,,,
,,,,,,,,,,,,,,,,,,37,2022-02-12_12h47.17.959,lexical_decision_task_DD_L4,2021.2.3,MacIntel,59.99880002,,z,1,0.6373,,,,,,,,0.6373,1,0,10,10,15,1,1001,WHAISE,z,,,,,,,,,,,,,,,,,,,,,,,,,,,,,,,,,,,,,,,,,,,,,,,,,,,,,,,,,,,,,,,,,
,,,,,,,,,,,,,,,,,,37,2022-02-12_12h47.17.959,lexical_decision_task_DD_L4,2021.2.3,MacIntel,59.99880002,,z,1,0.6505,,,,,,,,0.6505,1,0,11,11,8,1,1001,ASLERT,z,,,,,,,,,,,,,,,,,,,,,,,,,,,,,,,,,,,,,,,,,,,,,,,,,,,,,,,,,,,,,,,,,
,,,,,,,,,,,,,,,,,,37,2022-02-12_12h47.17.959,lexical_decision_task_DD_L4,2021.2.3,MacIntel,59.99880002,,z,1,0.7505,,,,,,,,0.7505,1,0,12,12,11,1,1001,RASHET,z,,,,,,,,,,,,,,,,,,,,,,,,,,,,,,,,,,,,,,,,,,,,,,,,,,,,,,,,,,,,,,,,,
,,,,,,,,,,,,,,,,,,37,2022-02-12_12h47.17.959,lexical_decision_task_DD_L4,2021.2.3,MacIntel,59.99880002,,z,1,0.6502,,,,,,,,0.6502,1,0,13,13,12,1,1001,SPRINY,z,,,,,,,,,,,,,,,,,,,,,,,,,,,,,,,,,,,,,,,,,,,,,,,,,,,,,,,,,,,,,,,,,
,,,,,,,,,,,,,,,,,,37,2022-02-12_12h47.17.959,lexical_decision_task_DD_L4,2021.2.3,MacIntel,59.99880002,,m,1,0.5692,,,,,,,,0.5692,1,0,14,14,5,1,1001,OBTAIN,m,,,,,,,,,,,,,,,,,,,,,,,,,,,,,,,,,,,,,,,,,,,,,,,,,,,,,,,,,,,,,,,,,
,,,,,,,,,,,,,,,,,,37,2022-02-12_12h47.17.959,lexical_decision_task_DD_L4,2021.2.3,MacIntel,59.99880002,,m,1,0.5214,,,,,,,,0.5214,1,0,15,15,0,1,1001,UTOPIA,m,,,,,,,,,,,,,,,,,,,,,,,,,,,,,,,,,,,,,,,,,,,,,,,,,,,,,,,,,,,,,,,,,
,-0.008184543,-0.406563517,1,0,0,instr_done_button,,,,,,1,end_of_practice,"You have completed the practice trials. During the experimental trials, you will not receive feedback. 
Before you begin, please ensure that you are in a comfortable and quiet location and will not be disturbed for about 15 minutes, as we cannot use your data if you do not complete all the trials. 
 When you are ready to start the experimental trials, please press space or touch the button below.",,,,37,2022-02-12_12h47.17.959,lexical_decision_task_DD_L4,2021.2.3,MacIntel,59.99880002,,,,,,,,,,,,,,,,,,,,,,0,0,0,0,1,,,,,,,,,,,,,,,,,,,,,,,,,,,,,,,,,,,,,,,,,,,,,,,,,,,,,,,,,,,,
,,,,,,,,,,,,,,,,,,37,2022-02-12_12h47.17.959,lexical_decision_task_DD_L4,2021.2.3,MacIntel,59.99880002,,,,,,,,,,,,1.9374,1,,,,,,,,,,,,,,z,1,1.9374,,,,,,,,-0.008184543,-0.406563517,0,0,0,,0,0,0,160,1,VEETS,HB,old,z,./images/VEETSHB.png,,,,,,,,,,,,,,,,,,,,,,,,,,,,,,,,,,
,,,,,,,,,,,,,,,,,,37,2022-02-12_12h47.17.959,lexical_decision_task_DD_L4,2021.2.3,MacIntel,59.99880002,,,,,,,,,,,,0.8743,1,,,,,,,,,,,,,,z,1,0.8743,,,,,,,,-0.008184543,-0.406563517,0,0,0,,0,1,1,86,1,AIFED,LB,old,z,./images/AIFEDLB.png,,,,,,,,,,,,,,,,,,,,,,,,,,,,,,,,,,
,,,,,,,,,,,,,,,,,,37,2022-02-12_12h47.17.959,lexical_decision_task_DD_L4,2021.2.3,MacIntel,59.99880002,,,,,,,,,,,,0.6633,1,,,,,,,,,,,,,,m,1,0.6633,,,,,,,,-0.008184543,-0.406563517,0,0,0,,0,2,2,35,1,LLAMA,LB,old,m,./images/LLAMALB.png,,,,,,,,,,,,,,,,,,,,,,,,,,,,,,,,,,
,,,,,,,,,,,,,,,,,,37,2022-02-12_12h47.17.959,lexical_decision_task_DD_L4,2021.2.3,MacIntel,59.99880002,,,,,,,,,,,,0.8014,1,,,,,,,,,,,,,,z,1,0.8014,,,,,,,,-0.008184543,-0.406563517,0,0,0,,0,3,3,127,1,NINDY,HB,old,z,./images/NINDYHB.png,,,,,,,,,,,,,,,,,,,,,,,,,,,,,,,,,,
,,,,,,,,,,,,,,,,,,37,2022-02-12_12h47.17.959,lexical_decision_task_DD_L4,2021.2.3,MacIntel,59.99880002,,,,,,,,,,,,0.5767,1,,,,,,,,,,,,,,m,1,0.5767,,,,,,,,-0.008184543,-0.406563517,0,0,0,,0,4,4,72,1,FLASK,C,old,m,./images/FLASK.png,,,,,,,,,,,,,,,,,,,,,,,,,,,,,,,,,,
,,,,,,,,,,,,,,,,,,37,2022-02-12_12h47.17.959,lexical_decision_task_DD_L4,2021.2.3,MacIntel,59.99880002,,,,,,,,,,,,1.2982,1,,,,,,,,,,,,,,z,1,1.2982,,,,,,,,-0.008184543,-0.406563517,0,0,0,,0,5,5,130,1,CRILL,HB,old,z,./images/CRILLHB.png,,,,,,,,,,,,,,,,,,,,,,,,,,,,,,,,,,
,,,,,,,,,,,,,,,,,,37,2022-02-12_12h47.17.959,lexical_decision_task_DD_L4,2021.2.3,MacIntel,59.99880002,,,,,,,,,,,,0.687,1,,,,,,,,,,,,,,m,1,0.687,,,,,,,,-0.008184543,-0.406563517,0,0,0,,0,6,6,3,1,CRATER,C,old,m,./images/CRATER.png,,,,,,,,,,,,,,,,,,,,,,,,,,,,,,,,,,
,,,,,,,,,,,,,,,,,,37,2022-02-12_12h47.17.959,lexical_decision_task_DD_L4,2021.2.3,MacIntel,59.99880002,,,,,,,,,,,,0.6482,1,,,,,,,,,,,,,,m,1,0.6482,,,,,,,,-0.008184543,-0.406563517,0,0,0,,0,7,7,16,1,GRAPE,HB,old,m,./images/GRAPEHB.png,,,,,,,,,,,,,,,,,,,,,,,,,,,,,,,,,,
,,,,,,,,,,,,,,,,,,37,2022-02-12_12h47.17.959,lexical_decision_task_DD_L4,2021.2.3,MacIntel,59.99880002,,,,,,,,,,,,0.6767,1,,,,,,,,,,,,,,m,1,0.6767,,,,,,,,-0.008184543,-0.406563517,0,0,0,,0,8,8,12,1,BLOKE,C,old,m,./images/BLOKE.png,,,,,,,,,,,,,,,,,,,,,,,,,,,,,,,,,,
,,,,,,,,,,,,,,,,,,37,2022-02-12_12h47.17.959,lexical_decision_task_DD_L4,2021.2.3,MacIntel,59.99880002,,,,,,,,,,,,0.7019,1,,,,,,,,,,,,,,z,1,0.7019,,,,,,,,-0.008184543,-0.406563517,0,0,0,,0,9,9,95,1,HANTY,LB,old,z,./images/HANTYLB.png,,,,,,,,,,,,,,,,,,,,,,,,,,,,,,,,,,
,,,,,,,,,,,,,,,,,,37,2022-02-12_12h47.17.959,lexical_decision_task_DD_L4,2021.2.3,MacIntel,59.99880002,,,,,,,,,,,,0.6805,1,,,,,,,,,,,,,,m,1,0.6805,,,,,,,,-0.008184543,-0.406563517,0,0,0,,0,10,10,58,1,CANOE,HB,old,m,./images/CANOEHB.png,,,,,,,,,,,,,,,,,,,,,,,,,,,,,,,,,,
,,,,,,,,,,,,,,,,,,37,2022-02-12_12h47.17.959,lexical_decision_task_DD_L4,2021.2.3,MacIntel,59.99880002,,,,,,,,,,,,0.919,1,,,,,,,,,,,,,,m,1,0.919,,,,,,,,-0.008184543,-0.406563517,0,0,0,,0,11,11,77,1,WHEEL,LB,old,m,./images/WHEELLB.png,,,,,,,,,,,,,,,,,,,,,,,,,,,,,,,,,,
,,,,,,,,,,,,,,,,,,37,2022-02-12_12h47.17.959,lexical_decision_task_DD_L4,2021.2.3,MacIntel,59.99880002,,,,,,,,,,,,0.8358,1,,,,,,,,,,,,,,z,1,0.8358,,,,,,,,-0.008184543,-0.406563517,0,0,0,,0,12,12,151,1,TINKY,HB,old,z,./images/TINKYHB.png,,,,,,,,,,,,,,,,,,,,,,,,,,,,,,,,,,
,,,,,,,,,,,,,,,,,,37,2022-02-12_12h47.17.959,lexical_decision_task_DD_L4,2021.2.3,MacIntel,59.99880002,,,,,,,,,,,,0.5872,1,,,,,,,,,,,,,,m,1,0.5872,,,,,,,,-0.008184543,-0.406563517,0,0,0,,0,13,13,55,1,ALLEY,HB,old,m,./images/ALLEYHB.png,,,,,,,,,,,,,,,,,,,,,,,,,,,,,,,,,,
,,,,,,,,,,,,,,,,,,37,2022-02-12_12h47.17.959,lexical_decision_task_DD_L4,2021.2.3,MacIntel,59.99880002,,,,,,,,,,,,0.5152,1,,,,,,,,,,,,,,m,1,0.5152,,,,,,,,-0.008184543,-0.406563517,0,0,0,,0,14,14,32,1,HOCKEY,LB,old,m,./images/HOCKEYLB.png,,,,,,,,,,,,,,,,,,,,,,,,,,,,,,,,,,
,,,,,,,,,,,,,,,,,,37,2022-02-12_12h47.17.959,lexical_decision_task_DD_L4,2021.2.3,MacIntel,59.99880002,,,,,,,,,,,,0.8522,1,,,,,,,,,,,,,,z,1,0.8522,,,,,,,,-0.008184543,-0.406563517,0,0,0,,0,15,15,97,1,CHIDS,HB,old,z,./images/CHIDSHB.png,,,,,,,,,,,,,,,,,,,,,,,,,,,,,,,,,,
,,,,,,,,,,,,,,,,,,37,2022-02-12_12h47.17.959,lexical_decision_task_DD_L4,2021.2.3,MacIntel,59.99880002,,,,,,,,,,,,0.6829,1,,,,,,,,,,,,,,z,1,0.6829,,,,,,,,-0.008184543,-0.406563517,0,0,0,,0,16,16,103,1,FLORT,HB,old,z,./images/FLORTHB.png,,,,,,,,,,,,,,,,,,,,,,,,,,,,,,,,,,
,,,,,,,,,,,,,,,,,,37,2022-02-12_12h47.17.959,lexical_decision_task_DD_L4,2021.2.3,MacIntel,59.99880002,,,,,,,,,,,,0.4718,1,,,,,,,,,,,,,,m,1,0.4718,,,,,,,,-0.008184543,-0.406563517,0,0,0,,0,17,17,62,1,MAMMAL,LB,old,m,./images/MAMMALLB.png,,,,,,,,,,,,,,,,,,,,,,,,,,,,,,,,,,
,,,,,,,,,,,,,,,,,,37,2022-02-12_12h47.17.959,lexical_decision_task_DD_L4,2021.2.3,MacIntel,59.99880002,,,,,,,,,,,,0.4652,1,,,,,,,,,,,,,,m,1,0.4652,,,,,,,,-0.008184543,-0.406563517,0,0,0,,0,18,18,48,1,SHIELD,C,old,m,./images/SHIELD.png,,,,,,,,,,,,,,,,,,,,,,,,,,,,,,,,,,
,,,,,,,,,,,,,,,,,,37,2022-02-12_12h47.17.959,lexical_decision_task_DD_L4,2021.2.3,MacIntel,59.99880002,,,,,,,,,,,,0.5995,1,,,,,,,,,,,,,,z,1,0.5995,,,,,,,,-0.008184543,-0.406563517,0,0,0,,0,19,19,164,1,SGREW,LB,old,z,./images/SGREWLB.png,,,,,,,,,,,,,,,,,,,,,,,,,,,,,,,,,,
,,,,,,,,,,,,,,,,,,37,2022-02-12_12h47.17.959,lexical_decision_task_DD_L4,2021.2.3,MacIntel,59.99880002,,,,,,,,,,,,0.7367,1,,,,,,,,,,,,,,z,1,0.7367,,,,,,,,-0.008184543,-0.406563517,0,0,0,,0,20,20,152,1,FRAIN,LB,old,z,./images/FRAINLB.png,,,,,,,,,,,,,,,,,,,,,,,,,,,,,,,,,,
,,,,,,,,,,,,,,,,,,37,2022-02-12_12h47.17.959,lexical_decision_task_DD_L4,2021.2.3,MacIntel,59.99880002,,,,,,,,,,,,0.5646,1,,,,,,,,,,,,,,m,1,0.5646,,,,,,,,-0.008184543,-0.406563517,0,0,0,,0,21,21,50,1,PILOT,LB,old,m,./images/PILOTLB.png,,,,,,,,,,,,,,,,,,,,,,,,,,,,,,,,,,
,,,,,,,,,,,,,,,,,,37,2022-02-12_12h47.17.959,lexical_decision_task_DD_L4,2021.2.3,MacIntel,59.99880002,,,,,,,,,,,,0.4752,1,,,,,,,,,,,,,,m,1,0.4752,,,,,,,,-0.008184543,-0.406563517,0,0,0,,0,22,22,42,1,CHAIN,C,old,m,./images/CHAIN.png,,,,,,,,,,,,,,,,,,,,,,,,,,,,,,,,,,
,,,,,,,,,,,,,,,,,,37,2022-02-12_12h47.17.959,lexical_decision_task_DD_L4,2021.2.3,MacIntel,59.99880002,,,,,,,,,,,,0.7828,1,,,,,,,,,,,,,,m,1,0.7828,,,,,,,,-0.008184543,-0.406563517,0,0,0,,0,23,23,52,1,DESERT,HB,old,m,./images/DESERTHB.png,,,,,,,,,,,,,,,,,,,,,,,,,,,,,,,,,,
,,,,,,,,,,,,,,,,,,37,2022-02-12_12h47.17.959,lexical_decision_task_DD_L4,2021.2.3,MacIntel,59.99880002,,,,,,,,,,,,0.661,1,,,,,,,,,,,,,,z,1,0.661,,,,,,,,-0.008184543,-0.406563517,0,0,0,,0,24,24,144,1,NAIRY,C,old,z,./images/NAIRY.png,,,,,,,,,,,,,,,,,,,,,,,,,,,,,,,,,,
,,,,,,,,,,,,,,,,,,37,2022-02-12_12h47.17.959,lexical_decision_task_DD_L4,2021.2.3,MacIntel,59.99880002,,,,,,,,,,,,0.6501,0,,,,,,,,,,,,,,m,0,0.6501,,,,,,,,-0.008184543,-0.406563517,0,0,0,,0,25,25,118,1,BAVEL,HB,old,z,./images/BAVELHB.png,,,,,,,,,,,,,,,,,,,,,,,,,,,,,,,,,,
,,,,,,,,,,,,,,,,,,37,2022-02-12_12h47.17.959,lexical_decision_task_DD_L4,2021.2.3,MacIntel,59.99880002,,,,,,,,,,,,1.1111,1,,,,,,,,,,,,,,z,1,1.1111,,,,,,,,-0.008184543,-0.406563517,0,0,0,,0,26,26,166,1,SHORY,HB,old,z,./images/SHORYHB.png,,,,,,,,,,,,,,,,,,,,,,,,,,,,,,,,,,
,,,,,,,,,,,,,,,,,,37,2022-02-12_12h47.17.959,lexical_decision_task_DD_L4,2021.2.3,MacIntel,59.99880002,,,,,,,,,,,,0.7521,1,,,,,,,,,,,,,,z,1,0.7521,,,,,,,,-0.008184543,-0.406563517,0,0,0,,0,27,27,85,1,CHULK,HB,old,z,./images/CHULKHB.png,,,,,,,,,,,,,,,,,,,,,,,,,,,,,,,,,,
,,,,,,,,,,,,,,,,,,37,2022-02-12_12h47.17.959,lexical_decision_task_DD_L4,2021.2.3,MacIntel,59.99880002,,,,,,,,,,,,0.4879,1,,,,,,,,,,,,,,m,1,0.4879,,,,,,,,-0.008184543,-0.406563517,0,0,0,,0,28,28,69,1,ARROW,C,old,m,./images/ARROW.png,,,,,,,,,,,,,,,,,,,,,,,,,,,,,,,,,,
,,,,,,,,,,,,,,,,,,37,2022-02-12_12h47.17.959,lexical_decision_task_DD_L4,2021.2.3,MacIntel,59.99880002,,,,,,,,,,,,0.7347,1,,,,,,,,,,,,,,z,1,0.7347,,,,,,,,-0.008184543,-0.406563517,0,0,0,,0,29,29,106,1,CLUMS,HB,old,z,./images/CLUMSHB.png,,,,,,,,,,,,,,,,,,,,,,,,,,,,,,,,,,
,,,,,,,,,,,,,,,,,,37,2022-02-12_12h47.17.959,lexical_decision_task_DD_L4,2021.2.3,MacIntel,59.99880002,,,,,,,,,,,,0.5956,1,,,,,,,,,,,,,,z,1,0.5956,,,,,,,,-0.008184543,-0.406563517,0,0,0,,0,30,30,158,1,EGECT,LB,old,z,./images/EGECTLB.png,,,,,,,,,,,,,,,,,,,,,,,,,,,,,,,,,,
,,,,,,,,,,,,,,,,,,37,2022-02-12_12h47.17.959,lexical_decision_task_DD_L4,2021.2.3,MacIntel,59.99880002,,,,,,,,,,,,0.4953,1,,,,,,,,,,,,,,z,1,0.4953,,,,,,,,-0.008184543,-0.406563517,0,0,0,,0,31,31,135,1,JOODY,C,old,z,./images/JOODY.png,,,,,,,,,,,,,,,,,,,,,,,,,,,,,,,,,,
,,,,,,,,,,,,,,,,,,37,2022-02-12_12h47.17.959,lexical_decision_task_DD_L4,2021.2.3,MacIntel,59.99880002,,,,,,,,,,,,0.5286,1,,,,,,,,,,,,,,z,1,0.5286,,,,,,,,-0.008184543,-0.406563517,0,0,0,,0,32,32,133,1,POWDY,HB,old,z,./images/POWDYHB.png,,,,,,,,,,,,,,,,,,,,,,,,,,,,,,,,,,
,,,,,,,,,,,,,,,,,,37,2022-02-12_12h47.17.959,lexical_decision_task_DD_L4,2021.2.3,MacIntel,59.99880002,,,,,,,,,,,,0.5692,1,,,,,,,,,,,,,,z,1,0.5692,,,,,,,,-0.008184543,-0.406563517,0,0,0,,0,33,33,145,1,LAMEL,HB,old,z,./images/LAMELHB.png,,,,,,,,,,,,,,,,,,,,,,,,,,,,,,,,,,
,,,,,,,,,,,,,,,,,,37,2022-02-12_12h47.17.959,lexical_decision_task_DD_L4,2021.2.3,MacIntel,59.99880002,,,,,,,,,,,,0.5111,1,,,,,,,,,,,,,,z,1,0.5111,,,,,,,,-0.008184543,-0.406563517,0,0,0,,0,34,34,98,1,BAMPS,LB,old,z,./images/BAMPSLB.png,,,,,,,,,,,,,,,,,,,,,,,,,,,,,,,,,,
,,,,,,,,,,,,,,,,,,37,2022-02-12_12h47.17.959,lexical_decision_task_DD_L4,2021.2.3,MacIntel,59.99880002,,,,,,,,,,,,0.6044,1,,,,,,,,,,,,,,z,1,0.6044,,,,,,,,-0.008184543,-0.406563517,0,0,0,,0,35,35,88,1,GLUSH,HB,old,z,./images/GLUSHHB.png,,,,,,,,,,,,,,,,,,,,,,,,,,,,,,,,,,
,,,,,,,,,,,,,,,,,,37,2022-02-12_12h47.17.959,lexical_decision_task_DD_L4,2021.2.3,MacIntel,59.99880002,,,,,,,,,,,,1.1682,0,,,,,,,,,,,,,,z,0,1.1682,,,,,,,,-0.008184543,-0.406563517,0,0,0,,0,36,36,82,1,PEBBLE,HB,old,m,./images/PEBBLEHB.png,,,,,,,,,,,,,,,,,,,,,,,,,,,,,,,,,,
,,,,,,,,,,,,,,,,,,37,2022-02-12_12h47.17.959,lexical_decision_task_DD_L4,2021.2.3,MacIntel,59.99880002,,,,,,,,,,,,0.6811,1,,,,,,,,,,,,,,z,1,0.6811,,,,,,,,-0.008184543,-0.406563517,0,0,0,,0,37,37,140,1,DOVET,LB,old,z,./images/DOVETLB.png,,,,,,,,,,,,,,,,,,,,,,,,,,,,,,,,,,
,,,,,,,,,,,,,,,,,,37,2022-02-12_12h47.17.959,lexical_decision_task_DD_L4,2021.2.3,MacIntel,59.99880002,,,,,,,,,,,,1.0449,1,,,,,,,,,,,,,,m,1,1.0449,,,,,,,,-0.008184543,-0.406563517,0,0,0,,0,38,38,74,1,JUMPER,LB,old,m,./images/JUMPERLB.png,,,,,,,,,,,,,,,,,,,,,,,,,,,,,,,,,,
,,,,,,,,,,,,,,,,,,37,2022-02-12_12h47.17.959,lexical_decision_task_DD_L4,2021.2.3,MacIntel,59.99880002,,,,,,,,,,,,0.8075,0,,,,,,,,,,,,,,z,0,0.8075,,,,,,,,-0.008184543,-0.406563517,0,0,0,,0,39,39,13,1,BUNNY,HB,old,m,./images/BUNNYHB.png,,,,,,,,,,,,,,,,,,,,,,,,,,,,,,,,,,
,,,,,,,,,,,,,,,,,,37,2022-02-12_12h47.17.959,lexical_decision_task_DD_L4,2021.2.3,MacIntel,59.99880002,,,,,,,,,,,,0.6762,1,,,,,,,,,,,,,,m,1,0.6762,,,,,,,,-0.008184543,-0.406563517,0,0,0,,0,40,40,0,1,WALNUT,C,old,m,./images/WALNUT.png,,,,,,,,,,,,,,,,,,,,,,,,,,,,,,,,,,
,,,,,,,,,,,,,,,,,,37,2022-02-12_12h47.17.959,lexical_decision_task_DD_L4,2021.2.3,MacIntel,59.99880002,,,,,,,,,,,,0.6094,1,,,,,,,,,,,,,,z,1,0.6094,,,,,,,,-0.008184543,-0.406563517,0,0,0,space,0,41,41,87,1,TRING,C,old,z,./images/TRING.png,3.6622,,,,,,,,,,,,,,,,,,,,,,,,,,,,,,,,,
,,,,,,,,,,,,,,,,,,37,2022-02-12_12h47.17.959,lexical_decision_task_DD_L4,2021.2.3,MacIntel,59.99880002,,,,,,,,,,,,0.8265,1,,,,,,,,,,,,,,m,1,0.8265,,,,,,,,-0.008184543,-0.406563517,0,0,0,,0,42,42,36,1,BOILER,C,old,m,./images/BOILER.png,,,,,,,,,,,,,,,,,,,,,,,,,,,,,,,,,,
,,,,,,,,,,,,,,,,,,37,2022-02-12_12h47.17.959,lexical_decision_task_DD_L4,2021.2.3,MacIntel,59.99880002,,,,,,,,,,,,0.6653,1,,,,,,,,,,,,,,z,1,0.6653,,,,,,,,-0.008184543,-0.406563517,0,0,0,,0,43,43,114,1,RIKES,C,old,z,./images/RIKES.png,,,,,,,,,,,,,,,,,,,,,,,,,,,,,,,,,,
,,,,,,,,,,,,,,,,,,37,2022-02-12_12h47.17.959,lexical_decision_task_DD_L4,2021.2.3,MacIntel,59.99880002,,,,,,,,,,,,0.8473,1,,,,,,,,,,,,,,m,1,0.8473,,,,,,,,-0.008184543,-0.406563517,0,0,0,,0,44,44,10,1,GARDEN,HB,old,m,./images/GARDENHB.png,,,,,,,,,,,,,,,,,,,,,,,,,,,,,,,,,,
,,,,,,,,,,,,,,,,,,37,2022-02-12_12h47.17.959,lexical_decision_task_DD_L4,2021.2.3,MacIntel,59.99880002,,,,,,,,,,,,0.5983,1,,,,,,,,,,,,,,m,1,0.5983,,,,,,,,-0.008184543,-0.406563517,0,0,0,,0,45,45,65,1,SPINE,LB,old,m,./images/SPINELB.png,,,,,,,,,,,,,,,,,,,,,,,,,,,,,,,,,,
,,,,,,,,,,,,,,,,,,37,2022-02-12_12h47.17.959,lexical_decision_task_DD_L4,2021.2.3,MacIntel,59.99880002,,,,,,,,,,,,0.6759,1,,,,,,,,,,,,,,m,1,0.6759,,,,,,,,-0.008184543,-0.406563517,0,0,0,,0,46,46,15,1,COLLAR,C,old,m,./images/COLLAR.png,,,,,,,,,,,,,,,,,,,,,,,,,,,,,,,,,,
,,,,,,,,,,,,,,,,,,37,2022-02-12_12h47.17.959,lexical_decision_task_DD_L4,2021.2.3,MacIntel,59.99880002,,,,,,,,,,,,0.5778,1,,,,,,,,,,,,,,z,1,0.5778,,,,,,,,-0.008184543,-0.406563517,0,0,0,,0,47,47,161,1,BLAPS,LB,old,z,./images/BLAPSLB.png,,,,,,,,,,,,,,,,,,,,,,,,,,,,,,,,,,
,,,,,,,,,,,,,,,,,,37,2022-02-12_12h47.17.959,lexical_decision_task_DD_L4,2021.2.3,MacIntel,59.99880002,,,,,,,,,,,,0.8402,1,,,,,,,,,,,,,,z,1,0.8402,,,,,,,,-0.008184543,-0.406563517,0,0,0,,0,48,48,93,1,SMONE,C,old,z,./images/SMONE.png,,,,,,,,,,,,,,,,,,,,,,,,,,,,,,,,,,
,,,,,,,,,,,,,,,,,,37,2022-02-12_12h47.17.959,lexical_decision_task_DD_L4,2021.2.3,MacIntel,59.99880002,,,,,,,,,,,,0.6709,1,,,,,,,,,,,,,,m,1,0.6709,,,,,,,,-0.008184543,-0.406563517,0,0,0,,0,49,49,2,1,STOVE,LB,old,m,./images/STOVELB.png,,,,,,,,,,,,,,,,,,,,,,,,,,,,,,,,,,
,,,,,,,,,,,,,,,,,,37,2022-02-12_12h47.17.959,lexical_decision_task_DD_L4,2021.2.3,MacIntel,59.99880002,,,,,,,,,,,,0.5806,1,,,,,,,,,,,,,,m,1,0.5806,,,,,,,,-0.008184543,-0.406563517,0,0,0,,0,50,50,41,1,STREAM,LB,old,m,./images/STREAMLB.png,,,,,,,,,,,,,,,,,,,,,,,,,,,,,,,,,,
,,,,,,,,,,,,,,,,,,37,2022-02-12_12h47.17.959,lexical_decision_task_DD_L4,2021.2.3,MacIntel,59.99880002,,,,,,,,,,,,0.578,1,,,,,,,,,,,,,,m,1,0.578,,,,,,,,-0.008184543,-0.406563517,0,0,0,,0,51,51,61,1,ARTIST,HB,old,m,./images/ARTISTHB.png,,,,,,,,,,,,,,,,,,,,,,,,,,,,,,,,,,
,,,,,,,,,,,,,,,,,,37,2022-02-12_12h47.17.959,lexical_decision_task_DD_L4,2021.2.3,MacIntel,59.99880002,,,,,,,,,,,,0.8112,1,,,,,,,,,,,,,,m,1,0.8112,,,,,,,,-0.008184543,-0.406563517,0,0,0,,0,52,52,49,1,BISHOP,HB,old,m,./images/BISHOPHB.png,,,,,,,,,,,,,,,,,,,,,,,,,,,,,,,,,,
,,,,,,,,,,,,,,,,,,37,2022-02-12_12h47.17.959,lexical_decision_task_DD_L4,2021.2.3,MacIntel,59.99880002,,,,,,,,,,,,0.507,1,,,,,,,,,,,,,,z,1,0.507,,,,,,,,-0.008184543,-0.406563517,0,0,0,,0,53,53,90,1,NEAST,C,old,z,./images/NEAST.png,,,,,,,,,,,,,,,,,,,,,,,,,,,,,,,,,,
,,,,,,,,,,,,,,,,,,37,2022-02-12_12h47.17.959,lexical_decision_task_DD_L4,2021.2.3,MacIntel,59.99880002,,,,,,,,,,,,0.5611,1,,,,,,,,,,,,,,z,1,0.5611,,,,,,,,-0.008184543,-0.406563517,0,0,0,,0,54,54,162,1,LEICH,C,old,z,./images/LEICH.png,,,,,,,,,,,,,,,,,,,,,,,,,,,,,,,,,,
,,,,,,,,,,,,,,,,,,37,2022-02-12_12h47.17.959,lexical_decision_task_DD_L4,2021.2.3,MacIntel,59.99880002,,,,,,,,,,,,0.5926,1,,,,,,,,,,,,,,z,1,0.5926,,,,,,,,-0.008184543,-0.406563517,0,0,0,,0,55,55,119,1,PAFER,LB,old,z,./images/PAFERLB.png,,,,,,,,,,,,,,,,,,,,,,,,,,,,,,,,,,
,,,,,,,,,,,,,,,,,,37,2022-02-12_12h47.17.959,lexical_decision_task_DD_L4,2021.2.3,MacIntel,59.99880002,,,,,,,,,,,,0.5949,1,,,,,,,,,,,,,,z,1,0.5949,,,,,,,,-0.008184543,-0.406563517,0,0,0,,0,56,56,120,1,RINED,C,old,z,./images/RINED.png,,,,,,,,,,,,,,,,,,,,,,,,,,,,,,,,,,
,,,,,,,,,,,,,,,,,,37,2022-02-12_12h47.17.959,lexical_decision_task_DD_L4,2021.2.3,MacIntel,59.99880002,,,,,,,,,,,,0.898,1,,,,,,,,,,,,,,m,1,0.898,,,,,,,,-0.008184543,-0.406563517,0,0,0,,0,57,57,67,1,POKER,HB,old,m,./images/POKERHB.png,,,,,,,,,,,,,,,,,,,,,,,,,,,,,,,,,,
,,,,,,,,,,,,,,,,,,37,2022-02-12_12h47.17.959,lexical_decision_task_DD_L4,2021.2.3,MacIntel,59.99880002,,,,,,,,,,,,0.5971,1,,,,,,,,,,,,,,z,1,0.5971,,,,,,,,-0.008184543,-0.406563517,0,0,0,,0,58,58,149,1,VEASE,LB,old,z,./images/VEASELB.png,,,,,,,,,,,,,,,,,,,,,,,,,,,,,,,,,,
,,,,,,,,,,,,,,,,,,37,2022-02-12_12h47.17.959,lexical_decision_task_DD_L4,2021.2.3,MacIntel,59.99880002,,,,,,,,,,,,0.5942,1,,,,,,,,,,,,,,m,1,0.5942,,,,,,,,-0.008184543,-0.406563517,0,0,0,,0,59,59,4,1,BOXER,HB,old,m,./images/BOXERHB.png,,,,,,,,,,,,,,,,,,,,,,,,,,,,,,,,,,
,,,,,,,,,,,,,,,,,,37,2022-02-12_12h47.17.959,lexical_decision_task_DD_L4,2021.2.3,MacIntel,59.99880002,,,,,,,,,,,,0.5423,1,,,,,,,,,,,,,,z,1,0.5423,,,,,,,,-0.008184543,-0.406563517,0,0,0,,0,60,60,132,1,SCIFF,C,old,z,./images/SCIFF.png,,,,,,,,,,,,,,,,,,,,,,,,,,,,,,,,,,
,,,,,,,,,,,,,,,,,,37,2022-02-12_12h47.17.959,lexical_decision_task_DD_L4,2021.2.3,MacIntel,59.99880002,,,,,,,,,,,,0.5583,1,,,,,,,,,,,,,,z,1,0.5583,,,,,,,,-0.008184543,-0.406563517,0,0,0,,0,61,61,121,1,CEERS,HB,old,z,./images/CEERSHB.png,,,,,,,,,,,,,,,,,,,,,,,,,,,,,,,,,,
,,,,,,,,,,,,,,,,,,37,2022-02-12_12h47.17.959,lexical_decision_task_DD_L4,2021.2.3,MacIntel,59.99880002,,,,,,,,,,,,0.5085,1,,,,,,,,,,,,,,m,1,0.5085,,,,,,,,-0.008184543,-0.406563517,0,0,0,,0,62,62,17,1,PARADE,LB,old,m,./images/PARADELB.png,,,,,,,,,,,,,,,,,,,,,,,,,,,,,,,,,,
,,,,,,,,,,,,,,,,,,37,2022-02-12_12h47.17.959,lexical_decision_task_DD_L4,2021.2.3,MacIntel,59.99880002,,,,,,,,,,,,0.6695,1,,,,,,,,,,,,,,z,1,0.6695,,,,,,,,-0.008184543,-0.406563517,0,0,0,,0,63,63,146,1,MOOST,LB,old,z,./images/MOOSTLB.png,,,,,,,,,,,,,,,,,,,,,,,,,,,,,,,,,,
,,,,,,,,,,,,,,,,,,37,2022-02-12_12h47.17.959,lexical_decision_task_DD_L4,2021.2.3,MacIntel,59.99880002,,,,,,,,,,,,0.714,1,,,,,,,,,,,,,,z,1,0.714,,,,,,,,-0.008184543,-0.406563517,0,0,0,,0,64,64,153,1,CLUPS,C,old,z,./images/CLUPS.png,,,,,,,,,,,,,,,,,,,,,,,,,,,,,,,,,,
,,,,,,,,,,,,,,,,,,37,2022-02-12_12h47.17.959,lexical_decision_task_DD_L4,2021.2.3,MacIntel,59.99880002,,,,,,,,,,,,0.6635,1,,,,,,,,,,,,,,m,1,0.6635,,,,,,,,-0.008184543,-0.406563517,0,0,0,,0,65,65,73,1,GLOVE,HB,old,m,./images/GLOVEHB.png,,,,,,,,,,,,,,,,,,,,,,,,,,,,,,,,,,
,,,,,,,,,,,,,,,,,,37,2022-02-12_12h47.17.959,lexical_decision_task_DD_L4,2021.2.3,MacIntel,59.99880002,,,,,,,,,,,,0.7408,1,,,,,,,,,,,,,,m,1,0.7408,,,,,,,,-0.008184543,-0.406563517,0,0,0,,0,66,66,64,1,BRIDE,HB,old,m,./images/BRIDEHB.png,,,,,,,,,,,,,,,,,,,,,,,,,,,,,,,,,,
,,,,,,,,,,,,,,,,,,37,2022-02-12_12h47.17.959,lexical_decision_task_DD_L4,2021.2.3,MacIntel,59.99880002,,,,,,,,,,,,0.5181,1,,,,,,,,,,,,,,m,1,0.5181,,,,,,,,-0.008184543,-0.406563517,0,0,0,,0,67,67,81,1,DRILL,C,old,m,./images/DRILL.png,,,,,,,,,,,,,,,,,,,,,,,,,,,,,,,,,,
,,,,,,,,,,,,,,,,,,37,2022-02-12_12h47.17.959,lexical_decision_task_DD_L4,2021.2.3,MacIntel,59.99880002,,,,,,,,,,,,0.5136,1,,,,,,,,,,,,,,z,1,0.5136,,,,,,,,-0.008184543,-0.406563517,0,0,0,,0,68,68,96,1,KEAMS,C,old,z,./images/KEAMS.png,,,,,,,,,,,,,,,,,,,,,,,,,,,,,,,,,,
,,,,,,,,,,,,,,,,,,37,2022-02-12_12h47.17.959,lexical_decision_task_DD_L4,2021.2.3,MacIntel,59.99880002,,,,,,,,,,,,0.4568,1,,,,,,,,,,,,,,m,1,0.4568,,,,,,,,-0.008184543,-0.406563517,0,0,0,,0,69,69,11,1,MEDAL,LB,old,m,./images/MEDALLB.png,,,,,,,,,,,,,,,,,,,,,,,,,,,,,,,,,,
,,,,,,,,,,,,,,,,,,37,2022-02-12_12h47.17.959,lexical_decision_task_DD_L4,2021.2.3,MacIntel,59.99880002,,,,,,,,,,,,0.6108,1,,,,,,,,,,,,,,m,1,0.6108,,,,,,,,-0.008184543,-0.406563517,0,0,0,,0,70,70,46,1,MUMMY,HB,old,m,./images/MUMMYHB.png,,,,,,,,,,,,,,,,,,,,,,,,,,,,,,,,,,
,,,,,,,,,,,,,,,,,,37,2022-02-12_12h47.17.959,lexical_decision_task_DD_L4,2021.2.3,MacIntel,59.99880002,,,,,,,,,,,,0.5788,1,,,,,,,,,,,,,,m,1,0.5788,,,,,,,,-0.008184543,-0.406563517,0,0,0,,0,71,71,19,1,DONKEY,HB,old,m,./images/DONKEYHB.png,,,,,,,,,,,,,,,,,,,,,,,,,,,,,,,,,,
,,,,,,,,,,,,,,,,,,37,2022-02-12_12h47.17.959,lexical_decision_task_DD_L4,2021.2.3,MacIntel,59.99880002,,,,,,,,,,,,0.7501,1,,,,,,,,,,,,,,z,1,0.7501,,,,,,,,-0.008184543,-0.406563517,0,0,0,,0,72,72,124,1,TUNCH,HB,old,z,./images/TUNCHHB.png,,,,,,,,,,,,,,,,,,,,,,,,,,,,,,,,,,
,,,,,,,,,,,,,,,,,,37,2022-02-12_12h47.17.959,lexical_decision_task_DD_L4,2021.2.3,MacIntel,59.99880002,,,,,,,,,,,,0.7788,1,,,,,,,,,,,,,,z,1,0.7788,,,,,,,,-0.008184543,-0.406563517,0,0,0,,0,73,73,136,1,WERVE,HB,old,z,./images/WERVEHB.png,,,,,,,,,,,,,,,,,,,,,,,,,,,,,,,,,,
,,,,,,,,,,,,,,,,,,37,2022-02-12_12h47.17.959,lexical_decision_task_DD_L4,2021.2.3,MacIntel,59.99880002,,,,,,,,,,,,0.5118,1,,,,,,,,,,,,,,m,1,0.5118,,,,,,,,-0.008184543,-0.406563517,0,0,0,,0,74,74,5,1,BAMBOO,LB,old,m,./images/BAMBOOLB.png,,,,,,,,,,,,,,,,,,,,,,,,,,,,,,,,,,
,,,,,,,,,,,,,,,,,,37,2022-02-12_12h47.17.959,lexical_decision_task_DD_L4,2021.2.3,MacIntel,59.99880002,,,,,,,,,,,,0.5937,1,,,,,,,,,,,,,,m,1,0.5937,,,,,,,,-0.008184543,-0.406563517,0,0,0,,0,75,75,53,1,POSTER,LB,old,m,./images/POSTERLB.png,,,,,,,,,,,,,,,,,,,,,,,,,,,,,,,,,,
,,,,,,,,,,,,,,,,,,37,2022-02-12_12h47.17.959,lexical_decision_task_DD_L4,2021.2.3,MacIntel,59.99880002,,,,,,,,,,,,0.6592,1,,,,,,,,,,,,,,z,1,0.6592,,,,,,,,-0.008184543,-0.406563517,0,0,0,,0,76,76,107,1,FASKS,LB,old,z,./images/FASKSLB.png,,,,,,,,,,,,,,,,,,,,,,,,,,,,,,,,,,
,,,,,,,,,,,,,,,,,,37,2022-02-12_12h47.17.959,lexical_decision_task_DD_L4,2021.2.3,MacIntel,59.99880002,,,,,,,,,,,,0.7132,1,,,,,,,,,,,,,,z,1,0.7132,,,,,,,,-0.008184543,-0.406563517,0,0,0,,0,77,77,122,1,BLOOT,LB,old,z,./images/BLOOTLB.png,,,,,,,,,,,,,,,,,,,,,,,,,,,,,,,,,,
,,,,,,,,,,,,,,,,,,37,2022-02-12_12h47.17.959,lexical_decision_task_DD_L4,2021.2.3,MacIntel,59.99880002,,,,,,,,,,,,0.5543,1,,,,,,,,,,,,,,m,1,0.5543,,,,,,,,-0.008184543,-0.406563517,0,0,0,,0,78,78,33,1,SAUNA,C,old,m,./images/SAUNA.png,,,,,,,,,,,,,,,,,,,,,,,,,,,,,,,,,,
,,,,,,,,,,,,,,,,,,37,2022-02-12_12h47.17.959,lexical_decision_task_DD_L4,2021.2.3,MacIntel,59.99880002,,,,,,,,,,,,0.507,1,,,,,,,,,,,,,,z,1,0.507,,,,,,,,-0.008184543,-0.406563517,0,0,0,,0,79,79,84,1,HAXES,C,old,z,./images/HAXES.png,,,,,,,,,,,,,,,,,,,,,,,,,,,,,,,,,,
,,,,,,,,,,,,,,,,,,37,2022-02-12_12h47.17.959,lexical_decision_task_DD_L4,2021.2.3,MacIntel,59.99880002,,,,,,,,,,,,0.546,1,,,,,,,,,,,,,,m,1,0.546,,,,,,,,-0.008184543,-0.406563517,0,0,0,,0,80,80,76,1,MIDGET,HB,old,m,./images/MIDGETHB.png,,,,,,,,,,,,,,,,,,,,,,,,,,,,,,,,,,
,,,,,,,,,,,,,,,,,,37,2022-02-12_12h47.17.959,lexical_decision_task_DD_L4,2021.2.3,MacIntel,59.99880002,,,,,,,,,,,,0.4908,1,,,,,,,,,,,,,,m,1,0.4908,,,,,,,,-0.008184543,-0.406563517,0,0,0,,0,81,81,75,1,HAMMER,C,old,m,./images/HAMMER.png,,,,,,,,,,,,,,,,,,,,,,,,,,,,,,,,,,
,,,,,,,,,,,,,,,,,,37,2022-02-12_12h47.17.959,lexical_decision_task_DD_L4,2021.2.3,MacIntel,59.99880002,,,,,,,,,,,,0.5817,1,,,,,,,,,,,,,,m,1,0.5817,,,,,,,,-0.008184543,-0.406563517,0,0,0,,0,82,82,30,1,SLOPE,C,old,m,./images/SLOPE.png,,,,,,,,,,,,,,,,,,,,,,,,,,,,,,,,,,
,,,,,,,,,,,,,,,,,,37,2022-02-12_12h47.17.959,lexical_decision_task_DD_L4,2021.2.3,MacIntel,59.99880002,,,,,,,,,,,,0.4422,1,,,,,,,,,,,,,,z,1,0.4422,,,,,,,,-0.008184543,-0.406563517,0,0,0,space,0,83,83,91,1,SHENS,HB,old,z,./images/SHENSHB.png,1.2345,,,,,,,,,,,,,,,,,,,,,,,,,,,,,,,,,
,,,,,,,,,,,,,,,,,,37,2022-02-12_12h47.17.959,lexical_decision_task_DD_L4,2021.2.3,MacIntel,59.99880002,,,,,,,,,,,,0.8778,1,,,,,,,,,,,,,,z,1,0.8778,,,,,,,,-0.008184543,-0.406563517,0,0,0,,0,84,84,112,1,MYING,HB,old,z,./images/MYINGHB.png,,,,,,,,,,,,,,,,,,,,,,,,,,,,,,,,,,
,,,,,,,,,,,,,,,,,,37,2022-02-12_12h47.17.959,lexical_decision_task_DD_L4,2021.2.3,MacIntel,59.99880002,,,,,,,,,,,,0.6815,1,,,,,,,,,,,,,,z,1,0.6815,,,,,,,,-0.008184543,-0.406563517,0,0,0,,0,85,85,157,1,INLER,HB,old,z,./images/INLERHB.png,,,,,,,,,,,,,,,,,,,,,,,,,,,,,,,,,,
,,,,,,,,,,,,,,,,,,37,2022-02-12_12h47.17.959,lexical_decision_task_DD_L4,2021.2.3,MacIntel,59.99880002,,,,,,,,,,,,0.6319,1,,,,,,,,,,,,,,z,1,0.6319,,,,,,,,-0.008184543,-0.406563517,0,0,0,,0,86,86,89,1,DRIEK,LB,old,z,./images/DRIEKLB.png,,,,,,,,,,,,,,,,,,,,,,,,,,,,,,,,,,
,,,,,,,,,,,,,,,,,,37,2022-02-12_12h47.17.959,lexical_decision_task_DD_L4,2021.2.3,MacIntel,59.99880002,,,,,,,,,,,,0.5153,1,,,,,,,,,,,,,,z,1,0.5153,,,,,,,,-0.008184543,-0.406563517,0,0,0,,0,87,87,129,1,PRANS,C,old,z,./images/PRANS.png,,,,,,,,,,,,,,,,,,,,,,,,,,,,,,,,,,
,,,,,,,,,,,,,,,,,,37,2022-02-12_12h47.17.959,lexical_decision_task_DD_L4,2021.2.3,MacIntel,59.99880002,,,,,,,,,,,,0.6167,1,,,,,,,,,,,,,,m,1,0.6167,,,,,,,,-0.008184543,-0.406563517,0,0,0,,0,88,88,79,1,RULER,HB,old,m,./images/RULERHB.png,,,,,,,,,,,,,,,,,,,,,,,,,,,,,,,,,,
,,,,,,,,,,,,,,,,,,37,2022-02-12_12h47.17.959,lexical_decision_task_DD_L4,2021.2.3,MacIntel,59.99880002,,,,,,,,,,,,0.6936,1,,,,,,,,,,,,,,m,1,0.6936,,,,,,,,-0.008184543,-0.406563517,0,0,0,,0,89,89,40,1,SNAKE,HB,old,m,./images/SNAKEHB.png,,,,,,,,,,,,,,,,,,,,,,,,,,,,,,,,,,
,,,,,,,,,,,,,,,,,,37,2022-02-12_12h47.17.959,lexical_decision_task_DD_L4,2021.2.3,MacIntel,59.99880002,,,,,,,,,,,,0.5304,1,,,,,,,,,,,,,,z,1,0.5304,,,,,,,,-0.008184543,-0.406563517,0,0,0,,0,90,90,159,1,CUDDY,C,old,z,./images/CUDDY.png,,,,,,,,,,,,,,,,,,,,,,,,,,,,,,,,,,
,,,,,,,,,,,,,,,,,,37,2022-02-12_12h47.17.959,lexical_decision_task_DD_L4,2021.2.3,MacIntel,59.99880002,,,,,,,,,,,,0.5081,1,,,,,,,,,,,,,,z,1,0.5081,,,,,,,,-0.008184543,-0.406563517,0,0,0,,0,91,91,105,1,MOKER,C,old,z,./images/MOKER.png,,,,,,,,,,,,,,,,,,,,,,,,,,,,,,,,,,
,,,,,,,,,,,,,,,,,,37,2022-02-12_12h47.17.959,lexical_decision_task_DD_L4,2021.2.3,MacIntel,59.99880002,,,,,,,,,,,,0.462,1,,,,,,,,,,,,,,z,1,0.462,,,,,,,,-0.008184543,-0.406563517,0,0,0,,0,92,92,134,1,TROSS,LB,old,z,./images/TROSSLB.png,,,,,,,,,,,,,,,,,,,,,,,,,,,,,,,,,,
,,,,,,,,,,,,,,,,,,37,2022-02-12_12h47.17.959,lexical_decision_task_DD_L4,2021.2.3,MacIntel,59.99880002,,,,,,,,,,,,0.5118,0,,,,,,,,,,,,,,z,0,0.5118,,,,,,,,-0.008184543,-0.406563517,0,0,0,,0,93,93,7,1,WAGON,HB,old,m,./images/WAGONHB.png,,,,,,,,,,,,,,,,,,,,,,,,,,,,,,,,,,
,,,,,,,,,,,,,,,,,,37,2022-02-12_12h47.17.959,lexical_decision_task_DD_L4,2021.2.3,MacIntel,59.99880002,,,,,,,,,,,,0.896,1,,,,,,,,,,,,,,z,1,0.896,,,,,,,,-0.008184543,-0.406563517,0,0,0,,0,94,94,154,1,THINT,HB,old,z,./images/THINTHB.png,,,,,,,,,,,,,,,,,,,,,,,,,,,,,,,,,,
,,,,,,,,,,,,,,,,,,37,2022-02-12_12h47.17.959,lexical_decision_task_DD_L4,2021.2.3,MacIntel,59.99880002,,,,,,,,,,,,0.7166,1,,,,,,,,,,,,,,z,1,0.7166,,,,,,,,-0.008184543,-0.406563517,0,0,0,,0,95,95,141,1,PLEET,C,old,z,./images/PLEET.png,,,,,,,,,,,,,,,,,,,,,,,,,,,,,,,,,,
,,,,,,,,,,,,,,,,,,37,2022-02-12_12h47.17.959,lexical_decision_task_DD_L4,2021.2.3,MacIntel,59.99880002,,,,,,,,,,,,0.5288,1,,,,,,,,,,,,,,z,1,0.5288,,,,,,,,-0.008184543,-0.406563517,0,0,0,,0,96,96,150,1,NOOLS,C,old,z,./images/NOOLS.png,,,,,,,,,,,,,,,,,,,,,,,,,,,,,,,,,,
,,,,,,,,,,,,,,,,,,37,2022-02-12_12h47.17.959,lexical_decision_task_DD_L4,2021.2.3,MacIntel,59.99880002,,,,,,,,,,,,0.4308,1,,,,,,,,,,,,,,m,1,0.4308,,,,,,,,-0.008184543,-0.406563517,0,0,0,,0,97,97,8,1,CLIFF,LB,old,m,./images/CLIFFLB.png,,,,,,,,,,,,,,,,,,,,,,,,,,,,,,,,,,
,,,,,,,,,,,,,,,,,,37,2022-02-12_12h47.17.959,lexical_decision_task_DD_L4,2021.2.3,MacIntel,59.99880002,,,,,,,,,,,,0.4907,1,,,,,,,,,,,,,,m,1,0.4907,,,,,,,,-0.008184543,-0.406563517,0,0,0,,0,98,98,51,1,SAUCE,C,old,m,./images/SAUCE.png,,,,,,,,,,,,,,,,,,,,,,,,,,,,,,,,,,
,,,,,,,,,,,,,,,,,,37,2022-02-12_12h47.17.959,lexical_decision_task_DD_L4,2021.2.3,MacIntel,59.99880002,,,,,,,,,,,,0.4958,1,,,,,,,,,,,,,,m,1,0.4958,,,,,,,,-0.008184543,-0.406563517,0,0,0,,0,99,99,26,1,CLOUD,LB,old,m,./images/CLOUDLB.png,,,,,,,,,,,,,,,,,,,,,,,,,,,,,,,,,,
,,,,,,,,,,,,,,,,,,37,2022-02-12_12h47.17.959,lexical_decision_task_DD_L4,2021.2.3,MacIntel,59.99880002,,,,,,,,,,,,0.4866,1,,,,,,,,,,,,,,m,1,0.4866,,,,,,,,-0.008184543,-0.406563517,0,0,0,,0,100,100,20,1,GRANNY,LB,old,m,./images/GRANNYLB.png,,,,,,,,,,,,,,,,,,,,,,,,,,,,,,,,,,
,,,,,,,,,,,,,,,,,,37,2022-02-12_12h47.17.959,lexical_decision_task_DD_L4,2021.2.3,MacIntel,59.99880002,,,,,,,,,,,,0.4872,1,,,,,,,,,,,,,,m,1,0.4872,,,,,,,,-0.008184543,-0.406563517,0,0,0,,0,101,101,44,1,BASKET,LB,old,m,./images/BASKETLB.png,,,,,,,,,,,,,,,,,,,,,,,,,,,,,,,,,,
,,,,,,,,,,,,,,,,,,37,2022-02-12_12h47.17.959,lexical_decision_task_DD_L4,2021.2.3,MacIntel,59.99880002,,,,,,,,,,,,0.6122,0,,,,,,,,,,,,,,m,0,0.6122,,,,,,,,-0.008184543,-0.406563517,0,0,0,,0,102,102,109,1,BURGE,HB,old,z,./images/BURGEHB.png,,,,,,,,,,,,,,,,,,,,,,,,,,,,,,,,,,
,,,,,,,,,,,,,,,,,,37,2022-02-12_12h47.17.959,lexical_decision_task_DD_L4,2021.2.3,MacIntel,59.99880002,,,,,,,,,,,,0.4062,1,,,,,,,,,,,,,,z,1,0.4062,,,,,,,,-0.008184543,-0.406563517,0,0,0,,0,103,103,147,1,ZOLES,C,old,z,./images/ZOLES.png,,,,,,,,,,,,,,,,,,,,,,,,,,,,,,,,,,
,,,,,,,,,,,,,,,,,,37,2022-02-12_12h47.17.959,lexical_decision_task_DD_L4,2021.2.3,MacIntel,59.99880002,,,,,,,,,,,,1.1364,0,,,,,,,,,,,,,,m,0,1.1364,,,,,,,,-0.008184543,-0.406563517,0,0,0,,0,104,104,110,1,CRUNK,LB,old,z,./images/CRUNKLB.png,,,,,,,,,,,,,,,,,,,,,,,,,,,,,,,,,,
,,,,,,,,,,,,,,,,,,37,2022-02-12_12h47.17.959,lexical_decision_task_DD_L4,2021.2.3,MacIntel,59.99880002,,,,,,,,,,,,0.6122,1,,,,,,,,,,,,,,m,1,0.6122,,,,,,,,-0.008184543,-0.406563517,0,0,0,,0,105,105,70,1,BANANA,HB,old,m,./images/BANANAHB.png,,,,,,,,,,,,,,,,,,,,,,,,,,,,,,,,,,
,,,,,,,,,,,,,,,,,,37,2022-02-12_12h47.17.959,lexical_decision_task_DD_L4,2021.2.3,MacIntel,59.99880002,,,,,,,,,,,,0.5555,1,,,,,,,,,,,,,,m,1,0.5555,,,,,,,,-0.008184543,-0.406563517,0,0,0,,0,106,106,54,1,CHERRY,C,old,m,./images/CHERRY.png,,,,,,,,,,,,,,,,,,,,,,,,,,,,,,,,,,
,,,,,,,,,,,,,,,,,,37,2022-02-12_12h47.17.959,lexical_decision_task_DD_L4,2021.2.3,MacIntel,59.99880002,,,,,,,,,,,,0.4455,1,,,,,,,,,,,,,,m,1,0.4455,,,,,,,,-0.008184543,-0.406563517,0,0,0,,0,107,107,23,1,CLOTH,LB,old,m,./images/CLOTHLB.png,,,,,,,,,,,,,,,,,,,,,,,,,,,,,,,,,,
,,,,,,,,,,,,,,,,,,37,2022-02-12_12h47.17.959,lexical_decision_task_DD_L4,2021.2.3,MacIntel,59.99880002,,,,,,,,,,,,0.4704,1,,,,,,,,,,,,,,m,1,0.4704,,,,,,,,-0.008184543,-0.406563517,0,0,0,,0,108,108,21,1,DANCER,C,old,m,./images/DANCER.png,,,,,,,,,,,,,,,,,,,,,,,,,,,,,,,,,,
,,,,,,,,,,,,,,,,,,37,2022-02-12_12h47.17.959,lexical_decision_task_DD_L4,2021.2.3,MacIntel,59.99880002,,,,,,,,,,,,0.5306,1,,,,,,,,,,,,,,z,1,0.5306,,,,,,,,-0.008184543,-0.406563517,0,0,0,,0,109,109,113,1,LINEW,LB,old,z,./images/LINEWLB.png,,,,,,,,,,,,,,,,,,,,,,,,,,,,,,,,,,
,,,,,,,,,,,,,,,,,,37,2022-02-12_12h47.17.959,lexical_decision_task_DD_L4,2021.2.3,MacIntel,59.99880002,,,,,,,,,,,,0.6048,1,,,,,,,,,,,,,,z,1,0.6048,,,,,,,,-0.008184543,-0.406563517,0,0,0,,0,110,110,111,1,HOSSE,C,old,z,./images/HOSSE.png,,,,,,,,,,,,,,,,,,,,,,,,,,,,,,,,,,
,,,,,,,,,,,,,,,,,,37,2022-02-12_12h47.17.959,lexical_decision_task_DD_L4,2021.2.3,MacIntel,59.99880002,,,,,,,,,,,,0.6347,1,,,,,,,,,,,,,,z,1,0.6347,,,,,,,,-0.008184543,-0.406563517,0,0,0,,0,111,111,101,1,GLEET,LB,old,z,./images/GLEETLB.png,,,,,,,,,,,,,,,,,,,,,,,,,,,,,,,,,,
,,,,,,,,,,,,,,,,,,37,2022-02-12_12h47.17.959,lexical_decision_task_DD_L4,2021.2.3,MacIntel,59.99880002,,,,,,,,,,,,1.3075,1,,,,,,,,,,,,,,m,1,1.3075,,,,,,,,-0.008184543,-0.406563517,0,0,0,,0,112,112,28,1,CASINO,HB,old,m,./images/CASINOHB.png,,,,,,,,,,,,,,,,,,,,,,,,,,,,,,,,,,
,,,,,,,,,,,,,,,,,,37,2022-02-12_12h47.17.959,lexical_decision_task_DD_L4,2021.2.3,MacIntel,59.99880002,,,,,,,,,,,,0.5497,1,,,,,,,,,,,,,,m,1,0.5497,,,,,,,,-0.008184543,-0.406563517,0,0,0,,0,113,113,80,1,PLANET,LB,old,m,./images/PLANETLB.png,,,,,,,,,,,,,,,,,,,,,,,,,,,,,,,,,,
,,,,,,,,,,,,,,,,,,37,2022-02-12_12h47.17.959,lexical_decision_task_DD_L4,2021.2.3,MacIntel,59.99880002,,,,,,,,,,,,1.0293,1,,,,,,,,,,,,,,m,1,1.0293,,,,,,,,-0.008184543,-0.406563517,0,0,0,,0,114,114,56,1,HEATER,LB,old,m,./images/HEATERLB.png,,,,,,,,,,,,,,,,,,,,,,,,,,,,,,,,,,
,,,,,,,,,,,,,,,,,,37,2022-02-12_12h47.17.959,lexical_decision_task_DD_L4,2021.2.3,MacIntel,59.99880002,,,,,,,,,,,,0.6745,1,,,,,,,,,,,,,,m,1,0.6745,,,,,,,,-0.008184543,-0.406563517,0,0,0,,0,115,115,39,1,CANDY,C,old,m,./images/CANDY.png,,,,,,,,,,,,,,,,,,,,,,,,,,,,,,,,,,
,,,,,,,,,,,,,,,,,,37,2022-02-12_12h47.17.959,lexical_decision_task_DD_L4,2021.2.3,MacIntel,59.99880002,,,,,,,,,,,,0.6383,1,,,,,,,,,,,,,,m,1,0.6383,,,,,,,,-0.008184543,-0.406563517,0,0,0,,0,116,116,57,1,FERRY,C,old,m,./images/FERRY.png,,,,,,,,,,,,,,,,,,,,,,,,,,,,,,,,,,
,,,,,,,,,,,,,,,,,,37,2022-02-12_12h47.17.959,lexical_decision_task_DD_L4,2021.2.3,MacIntel,59.99880002,,,,,,,,,,,,0.7218,1,,,,,,,,,,,,,,m,1,0.7218,,,,,,,,-0.008184543,-0.406563517,0,0,0,,0,117,117,47,1,LAGOON,LB,old,m,./images/LAGOONLB.png,,,,,,,,,,,,,,,,,,,,,,,,,,,,,,,,,,
,,,,,,,,,,,,,,,,,,37,2022-02-12_12h47.17.959,lexical_decision_task_DD_L4,2021.2.3,MacIntel,59.99880002,,,,,,,,,,,,0.6298,1,,,,,,,,,,,,,,m,1,0.6298,,,,,,,,-0.008184543,-0.406563517,0,0,0,,0,118,118,60,1,CURRY,C,old,m,./images/CURRY.png,,,,,,,,,,,,,,,,,,,,,,,,,,,,,,,,,,
,,,,,,,,,,,,,,,,,,37,2022-02-12_12h47.17.959,lexical_decision_task_DD_L4,2021.2.3,MacIntel,59.99880002,,,,,,,,,,,,0.6617,1,,,,,,,,,,,,,,m,1,0.6617,,,,,,,,-0.008184543,-0.406563517,0,0,0,,0,119,119,68,1,VALLEY,LB,old,m,./images/VALLEYLB.png,,,,,,,,,,,,,,,,,,,,,,,,,,,,,,,,,,
,,,,,,,,,,,,,,,,,,37,2022-02-12_12h47.17.959,lexical_decision_task_DD_L4,2021.2.3,MacIntel,59.99880002,,,,,,,,,,,,0.8617,1,,,,,,,,,,,,,,z,1,0.8617,,,,,,,,-0.008184543,-0.406563517,0,0,0,,0,120,120,108,1,GRUET,C,old,z,./images/GRUET.png,,,,,,,,,,,,,,,,,,,,,,,,,,,,,,,,,,
,,,,,,,,,,,,,,,,,,37,2022-02-12_12h47.17.959,lexical_decision_task_DD_L4,2021.2.3,MacIntel,59.99880002,,,,,,,,,,,,0.5574,1,,,,,,,,,,,,,,m,1,0.5574,,,,,,,,-0.008184543,-0.406563517,0,0,0,,0,121,121,6,1,STAIN,C,old,m,./images/STAIN.png,,,,,,,,,,,,,,,,,,,,,,,,,,,,,,,,,,
,,,,,,,,,,,,,,,,,,37,2022-02-12_12h47.17.959,lexical_decision_task_DD_L4,2021.2.3,MacIntel,59.99880002,,,,,,,,,,,,0.563,1,,,,,,,,,,,,,,m,1,0.563,,,,,,,,-0.008184543,-0.406563517,0,0,0,,0,122,122,22,1,CLOWN,HB,old,m,./images/CLOWNHB.png,,,,,,,,,,,,,,,,,,,,,,,,,,,,,,,,,,
,,,,,,,,,,,,,,,,,,37,2022-02-12_12h47.17.959,lexical_decision_task_DD_L4,2021.2.3,MacIntel,59.99880002,,,,,,,,,,,,0.4293,1,,,,,,,,,,,,,,m,1,0.4293,,,,,,,,-0.008184543,-0.406563517,0,0,0,,0,123,123,66,1,STATUE,C,old,m,./images/STATUE.png,,,,,,,,,,,,,,,,,,,,,,,,,,,,,,,,,,
,,,,,,,,,,,,,,,,,,37,2022-02-12_12h47.17.959,lexical_decision_task_DD_L4,2021.2.3,MacIntel,59.99880002,,,,,,,,,,,,0.4438,1,,,,,,,,,,,,,,m,1,0.4438,,,,,,,,-0.008184543,-0.406563517,0,0,0,,0,124,124,71,1,BUBBLE,LB,old,m,./images/BUBBLELB.png,,,,,,,,,,,,,,,,,,,,,,,,,,,,,,,,,,
,,,,,,,,,,,,,,,,,,37,2022-02-12_12h47.17.959,lexical_decision_task_DD_L4,2021.2.3,MacIntel,59.99880002,,,,,,,,,,,,0.5812,1,,,,,,,,,,,,,,m,1,0.5812,,,,,,,,-0.008184543,-0.406563517,0,0,0,space,0,125,125,37,1,TIGER,HB,old,m,./images/TIGERHB.png,1.1494,,,,,,,,,,,,,,,,,,,,,,,,,,,,,,,,,
,,,,,,,,,,,,,,,,,,37,2022-02-12_12h47.17.959,lexical_decision_task_DD_L4,2021.2.3,MacIntel,59.99880002,,,,,,,,,,,,0.5194,1,,,,,,,,,,,,,,m,1,0.5194,,,,,,,,-0.008184543,-0.406563517,0,0,0,,0,126,126,63,1,BAKER,C,old,m,./images/BAKER.png,,,,,,,,,,,,,,,,,,,,,,,,,,,,,,,,,,
,,,,,,,,,,,,,,,,,,37,2022-02-12_12h47.17.959,lexical_decision_task_DD_L4,2021.2.3,MacIntel,59.99880002,,,,,,,,,,,,0.6329,1,,,,,,,,,,,,,,z,1,0.6329,,,,,,,,-0.008184543,-0.406563517,0,0,0,,0,127,127,155,1,CANGY,LB,old,z,./images/CANGYLB.png,,,,,,,,,,,,,,,,,,,,,,,,,,,,,,,,,,
,,,,,,,,,,,,,,,,,,37,2022-02-12_12h47.17.959,lexical_decision_task_DD_L4,2021.2.3,MacIntel,59.99880002,,,,,,,,,,,,0.7036,0,,,,,,,,,,,,,,m,0,0.7036,,,,,,,,-0.008184543,-0.406563517,0,0,0,,0,128,128,99,1,BACKY,C,old,z,./images/BACKY.png,,,,,,,,,,,,,,,,,,,,,,,,,,,,,,,,,,
,,,,,,,,,,,,,,,,,,37,2022-02-12_12h47.17.959,lexical_decision_task_DD_L4,2021.2.3,MacIntel,59.99880002,,,,,,,,,,,,0.7799,1,,,,,,,,,,,,,,z,1,0.7799,,,,,,,,-0.008184543,-0.406563517,0,0,0,,0,129,129,100,1,DRIBS,HB,old,z,./images/DRIBSHB.png,,,,,,,,,,,,,,,,,,,,,,,,,,,,,,,,,,
,,,,,,,,,,,,,,,,,,37,2022-02-12_12h47.17.959,lexical_decision_task_DD_L4,2021.2.3,MacIntel,59.99880002,,,,,,,,,,,,0.6182,1,,,,,,,,,,,,,,z,1,0.6182,,,,,,,,-0.008184543,-0.406563517,0,0,0,,0,130,130,156,1,HIXES,C,old,z,./images/HIXES.png,,,,,,,,,,,,,,,,,,,,,,,,,,,,,,,,,,
,,,,,,,,,,,,,,,,,,37,2022-02-12_12h47.17.959,lexical_decision_task_DD_L4,2021.2.3,MacIntel,59.99880002,,,,,,,,,,,,0.5297,1,,,,,,,,,,,,,,m,1,0.5297,,,,,,,,-0.008184543,-0.406563517,0,0,0,,0,131,131,1,1,TOWEL,HB,old,m,./images/TOWELHB.png,,,,,,,,,,,,,,,,,,,,,,,,,,,,,,,,,,
,,,,,,,,,,,,,,,,,,37,2022-02-12_12h47.17.959,lexical_decision_task_DD_L4,2021.2.3,MacIntel,59.99880002,,,,,,,,,,,,0.5725,1,,,,,,,,,,,,,,m,1,0.5725,,,,,,,,-0.008184543,-0.406563517,0,0,0,,0,132,132,31,1,STEAK,HB,old,m,./images/STEAKHB.png,,,,,,,,,,,,,,,,,,,,,,,,,,,,,,,,,,
,,,,,,,,,,,,,,,,,,37,2022-02-12_12h47.17.959,lexical_decision_task_DD_L4,2021.2.3,MacIntel,59.99880002,,,,,,,,,,,,0.7886,1,,,,,,,,,,,,,,z,1,0.7886,,,,,,,,-0.008184543,-0.406563517,0,0,0,,0,133,133,163,1,GAMBA,HB,old,z,./images/GAMBAHB.png,,,,,,,,,,,,,,,,,,,,,,,,,,,,,,,,,,
,,,,,,,,,,,,,,,,,,37,2022-02-12_12h47.17.959,lexical_decision_task_DD_L4,2021.2.3,MacIntel,59.99880002,,,,,,,,,,,,0.635,1,,,,,,,,,,,,,,m,1,0.635,,,,,,,,-0.008184543,-0.406563517,0,0,0,,0,134,134,27,1,BUTTER,C,old,m,./images/BUTTER.png,,,,,,,,,,,,,,,,,,,,,,,,,,,,,,,,,,
,,,,,,,,,,,,,,,,,,37,2022-02-12_12h47.17.959,lexical_decision_task_DD_L4,2021.2.3,MacIntel,59.99880002,,,,,,,,,,,,0.6643,1,,,,,,,,,,,,,,z,1,0.6643,,,,,,,,-0.008184543,-0.406563517,0,0,0,,0,135,135,125,1,MOOKY,LB,old,z,./images/MOOKYLB.png,,,,,,,,,,,,,,,,,,,,,,,,,,,,,,,,,,
,,,,,,,,,,,,,,,,,,37,2022-02-12_12h47.17.959,lexical_decision_task_DD_L4,2021.2.3,MacIntel,59.99880002,,,,,,,,,,,,0.7715,1,,,,,,,,,,,,,,z,1,0.7715,,,,,,,,-0.008184543,-0.406563517,0,0,0,,0,136,136,94,1,BLANS,HB,old,z,./images/BLANSHB.png,,,,,,,,,,,,,,,,,,,,,,,,,,,,,,,,,,
,,,,,,,,,,,,,,,,,,37,2022-02-12_12h47.17.959,lexical_decision_task_DD_L4,2021.2.3,MacIntel,59.99880002,,,,,,,,,,,,0.5942,1,,,,,,,,,,,,,,z,1,0.5942,,,,,,,,-0.008184543,-0.406563517,0,0,0,,0,137,137,117,1,STEEG,C,old,z,./images/STEEG.png,,,,,,,,,,,,,,,,,,,,,,,,,,,,,,,,,,
,,,,,,,,,,,,,,,,,,37,2022-02-12_12h47.17.959,lexical_decision_task_DD_L4,2021.2.3,MacIntel,59.99880002,,,,,,,,,,,,0.7452,1,,,,,,,,,,,,,,z,1,0.7452,,,,,,,,-0.008184543,-0.406563517,0,0,0,,0,138,138,143,1,MONGS,LB,old,z,./images/MONGSLB.png,,,,,,,,,,,,,,,,,,,,,,,,,,,,,,,,,,
,,,,,,,,,,,,,,,,,,37,2022-02-12_12h47.17.959,lexical_decision_task_DD_L4,2021.2.3,MacIntel,59.99880002,,,,,,,,,,,,0.9186,1,,,,,,,,,,,,,,m,1,0.9186,,,,,,,,-0.008184543,-0.406563517,0,0,0,,0,139,139,24,1,FLESH,C,old,m,./images/FLESH.png,,,,,,,,,,,,,,,,,,,,,,,,,,,,,,,,,,
,,,,,,,,,,,,,,,,,,37,2022-02-12_12h47.17.959,lexical_decision_task_DD_L4,2021.2.3,MacIntel,59.99880002,,,,,,,,,,,,1.8621,1,,,,,,,,,,,,,,z,1,1.8621,,,,,,,,-0.008184543,-0.406563517,0,0,0,,0,140,140,92,1,PAIMS,LB,old,z,./images/PAIMSLB.png,,,,,,,,,,,,,,,,,,,,,,,,,,,,,,,,,,
,,,,,,,,,,,,,,,,,,37,2022-02-12_12h47.17.959,lexical_decision_task_DD_L4,2021.2.3,MacIntel,59.99880002,,,,,,,,,,,,0.6123,1,,,,,,,,,,,,,,z,1,0.6123,,,,,,,,-0.008184543,-0.406563517,0,0,0,,0,141,141,131,1,NACES,LB,old,z,./images/NACESLB.png,,,,,,,,,,,,,,,,,,,,,,,,,,,,,,,,,,
,,,,,,,,,,,,,,,,,,37,2022-02-12_12h47.17.959,lexical_decision_task_DD_L4,2021.2.3,MacIntel,59.99880002,,,,,,,,,,,,0.4957,1,,,,,,,,,,,,,,z,1,0.4957,,,,,,,,-0.008184543,-0.406563517,0,0,0,,0,142,142,126,1,GUELS,C,old,z,./images/GUELS.png,,,,,,,,,,,,,,,,,,,,,,,,,,,,,,,,,,
,,,,,,,,,,,,,,,,,,37,2022-02-12_12h47.17.959,lexical_decision_task_DD_L4,2021.2.3,MacIntel,59.99880002,,,,,,,,,,,,0.6449,0,,,,,,,,,,,,,,m,0,0.6449,,,,,,,,-0.008184543,-0.406563517,0,0,0,,0,143,143,128,1,GRIFT,LB,old,z,./images/GRIFTLB.png,,,,,,,,,,,,,,,,,,,,,,,,,,,,,,,,,,
,,,,,,,,,,,,,,,,,,37,2022-02-12_12h47.17.959,lexical_decision_task_DD_L4,2021.2.3,MacIntel,59.99880002,,,,,,,,,,,,0.669,1,,,,,,,,,,,,,,z,1,0.669,,,,,,,,-0.008184543,-0.406563517,0,0,0,,0,144,144,104,1,GITTY,LB,old,z,./images/GITTYLB.png,,,,,,,,,,,,,,,,,,,,,,,,,,,,,,,,,,
,,,,,,,,,,,,,,,,,,37,2022-02-12_12h47.17.959,lexical_decision_task_DD_L4,2021.2.3,MacIntel,59.99880002,,,,,,,,,,,,0.5857,1,,,,,,,,,,,,,,m,1,0.5857,,,,,,,,-0.008184543,-0.406563517,0,0,0,,0,145,145,34,1,RAZOR,HB,old,m,./images/RAZORHB.png,,,,,,,,,,,,,,,,,,,,,,,,,,,,,,,,,,
,,,,,,,,,,,,,,,,,,37,2022-02-12_12h47.17.959,lexical_decision_task_DD_L4,2021.2.3,MacIntel,59.99880002,,,,,,,,,,,,0.6195,1,,,,,,,,,,,,,,z,1,0.6195,,,,,,,,-0.008184543,-0.406563517,0,0,0,,0,146,146,115,1,MAWNS,HB,old,z,./images/MAWNSHB.png,,,,,,,,,,,,,,,,,,,,,,,,,,,,,,,,,,
,,,,,,,,,,,,,,,,,,37,2022-02-12_12h47.17.959,lexical_decision_task_DD_L4,2021.2.3,MacIntel,59.99880002,,,,,,,,,,,,0.6097,1,,,,,,,,,,,,,,z,1,0.6097,,,,,,,,-0.008184543,-0.406563517,0,0,0,,0,147,147,123,1,SEDGE,C,old,z,./images/SEDGE.png,,,,,,,,,,,,,,,,,,,,,,,,,,,,,,,,,,
,,,,,,,,,,,,,,,,,,37,2022-02-12_12h47.17.959,lexical_decision_task_DD_L4,2021.2.3,MacIntel,59.99880002,,,,,,,,,,,,0.4769,1,,,,,,,,,,,,,,z,1,0.4769,,,,,,,,-0.008184543,-0.406563517,0,0,0,,0,148,148,165,1,TROWN,C,old,z,./images/TROWN.png,,,,,,,,,,,,,,,,,,,,,,,,,,,,,,,,,,
,,,,,,,,,,,,,,,,,,37,2022-02-12_12h47.17.959,lexical_decision_task_DD_L4,2021.2.3,MacIntel,59.99880002,,,,,,,,,,,,0.7364,1,,,,,,,,,,,,,,z,1,0.7364,,,,,,,,-0.008184543,-0.406563517,0,0,0,,0,149,149,139,1,BLEAR,HB,old,z,./images/BLEARHB.png,,,,,,,,,,,,,,,,,,,,,,,,,,,,,,,,,,
,,,,,,,,,,,,,,,,,,37,2022-02-12_12h47.17.959,lexical_decision_task_DD_L4,2021.2.3,MacIntel,59.99880002,,,,,,,,,,,,1.4983,1,,,,,,,,,,,,,,z,1,1.4983,,,,,,,,-0.008184543,-0.406563517,0,0,0,,0,150,150,142,1,PLASK,HB,old,z,./images/PLASKHB.png,,,,,,,,,,,,,,,,,,,,,,,,,,,,,,,,,,
,,,,,,,,,,,,,,,,,,37,2022-02-12_12h47.17.959,lexical_decision_task_DD_L4,2021.2.3,MacIntel,59.99880002,,,,,,,,,,,,0.7461,1,,,,,,,,,,,,,,z,1,0.7461,,,,,,,,-0.008184543,-0.406563517,0,0,0,,0,151,151,148,1,JOMS,HB,old,z,./images/JOMSHB.png,,,,,,,,,,,,,,,,,,,,,,,,,,,,,,,,,,
,,,,,,,,,,,,,,,,,,37,2022-02-12_12h47.17.959,lexical_decision_task_DD_L4,2021.2.3,MacIntel,59.99880002,,,,,,,,,,,,0.4948,1,,,,,,,,,,,,,,m,1,0.4948,,,,,,,,-0.008184543,-0.406563517,0,0,0,,0,152,152,43,1,STOOL,HB,old,m,./images/STOOLHB.png,,,,,,,,,,,,,,,,,,,,,,,,,,,,,,,,,,
,,,,,,,,,,,,,,,,,,37,2022-02-12_12h47.17.959,lexical_decision_task_DD_L4,2021.2.3,MacIntel,59.99880002,,,,,,,,,,,,0.5518,1,,,,,,,,,,,,,,m,1,0.5518,,,,,,,,-0.008184543,-0.406563517,0,0,0,,0,153,153,25,1,CHALK,HB,old,m,./images/CHALKHB.png,,,,,,,,,,,,,,,,,,,,,,,,,,,,,,,,,,
,,,,,,,,,,,,,,,,,,37,2022-02-12_12h47.17.959,lexical_decision_task_DD_L4,2021.2.3,MacIntel,59.99880002,,,,,,,,,,,,0.4753,1,,,,,,,,,,,,,,m,1,0.4753,,,,,,,,-0.008184543,-0.406563517,0,0,0,,0,154,154,45,1,MONKEY,C,old,m,./images/MONKEY.png,,,,,,,,,,,,,,,,,,,,,,,,,,,,,,,,,,
,,,,,,,,,,,,,,,,,,37,2022-02-12_12h47.17.959,lexical_decision_task_DD_L4,2021.2.3,MacIntel,59.99880002,,,,,,,,,,,,0.4855,1,,,,,,,,,,,,,,z,1,0.4855,,,,,,,,-0.008184543,-0.406563517,0,0,0,,0,155,155,116,1,BALGY,LB,old,z,./images/BALGYLB.png,,,,,,,,,,,,,,,,,,,,,,,,,,,,,,,,,,
,,,,,,,,,,,,,,,,,,37,2022-02-12_12h47.17.959,lexical_decision_task_DD_L4,2021.2.3,MacIntel,59.99880002,,,,,,,,,,,,0.5335,1,,,,,,,,,,,,,,m,1,0.5335,,,,,,,,-0.008184543,-0.406563517,0,0,0,,0,156,156,59,1,BRUSH,LB,old,m,./images/BRUSHLB.png,,,,,,,,,,,,,,,,,,,,,,,,,,,,,,,,,,
,,,,,,,,,,,,,,,,,,37,2022-02-12_12h47.17.959,lexical_decision_task_DD_L4,2021.2.3,MacIntel,59.99880002,,,,,,,,,,,,0.4942,1,,,,,,,,,,,,,,m,1,0.4942,,,,,,,,-0.008184543,-0.406563517,0,0,0,,0,157,157,14,1,FENCE,LB,old,m,./images/FENCELB.png,,,,,,,,,,,,,,,,,,,,,,,,,,,,,,,,,,
,,,,,,,,,,,,,,,,,,37,2022-02-12_12h47.17.959,lexical_decision_task_DD_L4,2021.2.3,MacIntel,59.99880002,,,,,,,,,,,,0.4422,1,,,,,,,,,,,,,,m,1,0.4422,,,,,,,,-0.008184543,-0.406563517,0,0,0,,0,158,158,9,1,DIVER,C,old,m,./images/DIVER.png,,,,,,,,,,,,,,,,,,,,,,,,,,,,,,,,,,
,,,,,,,,,,,,,,,,,,37,2022-02-12_12h47.17.959,lexical_decision_task_DD_L4,2021.2.3,MacIntel,59.99880002,,,,,,,,,,,,0.5092,1,,,,,,,,,,,,,,m,1,0.5092,,,,,,,,-0.008184543,-0.406563517,0,0,0,,0,159,159,18,1,PARCEL,C,old,m,./images/PARCEL.png,,,,,,,,,,,,,,,,,,,,,,,,,,,,,,,,,,
,,,,,,,,,,,,,,,,,,37,2022-02-12_12h47.17.959,lexical_decision_task_DD_L4,2021.2.3,MacIntel,59.99880002,,,,,,,,,,,,0.568,1,,,,,,,,,,,,,,z,1,0.568,,,,,,,,-0.008184543,-0.406563517,0,0,0,,0,160,160,137,1,JOOST,LB,old,z,./images/JOOSTLB.png,,,,,,,,,,,,,,,,,,,,,,,,,,,,,,,,,,
,,,,,,,,,,,,,,,,,,37,2022-02-12_12h47.17.959,lexical_decision_task_DD_L4,2021.2.3,MacIntel,59.99880002,,,,,,,,,,,,0.4473,1,,,,,,,,,,,,,,z,1,0.4473,,,,,,,,-0.008184543,-0.406563517,0,0,0,,0,161,161,102,1,DULLE,C,old,z,./images/DULLE.png,,,,,,,,,,,,,,,,,,,,,,,,,,,,,,,,,,
,,,,,,,,,,,,,,,,,,37,2022-02-12_12h47.17.959,lexical_decision_task_DD_L4,2021.2.3,MacIntel,59.99880002,,,,,,,,,,,,0.4955,1,,,,,,,,,,,,,,m,1,0.4955,,,,,,,,-0.008184543,-0.406563517,0,0,0,,0,162,162,83,1,WHISKY,LB,old,m,./images/WHISKYLB.png,,,,,,,,,,,,,,,,,,,,,,,,,,,,,,,,,,
,,,,,,,,,,,,,,,,,,37,2022-02-12_12h47.17.959,lexical_decision_task_DD_L4,2021.2.3,MacIntel,59.99880002,,,,,,,,,,,,0.505,1,,,,,,,,,,,,,,m,1,0.505,,,,,,,,-0.008184543,-0.406563517,0,0,0,,0,163,163,38,1,ENGINE,LB,old,m,./images/ENGINELB.png,,,,,,,,,,,,,,,,,,,,,,,,,,,,,,,,,,
,,,,,,,,,,,,,,,,,,37,2022-02-12_12h47.17.959,lexical_decision_task_DD_L4,2021.2.3,MacIntel,59.99880002,,,,,,,,,,,,0.5478,1,,,,,,,,,,,,,,z,1,0.5478,,,,,,,,-0.008184543,-0.406563517,0,0,0,,0,164,164,167,1,ZONET,LB,old,z,./images/ZONETLB.png,,,,,,,,,,,,,,,,,,,,,,,,,,,,,,,,,,
,,,,,,,,,,,,,,,,,,37,2022-02-12_12h47.17.959,lexical_decision_task_DD_L4,2021.2.3,MacIntel,59.99880002,,,,,,,,,,,,0.4455,1,,,,,,,,,,,,,,m,1,0.4455,,,,,,,,-0.008184543,-0.406563517,0,0,0,,0,165,165,78,1,BROOM,C,old,m,./images/BROOM.png,,,,,,,,,,,,,,,,,,,,,,,,,,,,,,,,,,
,,,,,,,,,,,,,,,,,,37,2022-02-12_12h47.17.959,lexical_decision_task_DD_L4,2021.2.3,MacIntel,59.99880002,,,,,,,,,,,,0.6143,1,,,,,,,,,,,,,,m,1,0.6143,,,,,,,,-0.008184543,-0.406563517,0,0,0,,0,166,166,29,1,PISTOL,LB,old,m,./images/PISTOLLB.png,,,,,,,,,,,,,,,,,,,,,,,,,,,,,,,,,,
,,,,,,,,,,,,,,,,,,37,2022-02-12_12h47.17.959,lexical_decision_task_DD_L4,2021.2.3,MacIntel,59.99880002,,,,,,,,,,,,0.6334,1,,,,,,,,,,,,,,z,1,0.6334,,,,,,,,-0.008184543,-0.406563517,0,0,0,,0,167,167,138,1,PLICE,C,old,z,./images/PLICE.png,,,,,,,,,,,,,,,,,,,,,,,,,,,,,,,,,,
,,,,,,,,,,,,,,,,,,37,2022-02-12_12h47.17.959,lexical_decision_task_DD_L4,2021.2.3,MacIntel,59.99880002,,,,,,,,,,,,,,,,,,,,,,,,,,,,,,,,,,,,,,,,,,,,,,,,,How likely will it be that you will recognize the words presented very blurred on a scale of 0 (not likely) to 100 (most likely)?,,,,,0.014755317,-0.406806166,1,0,0,jol_adv,5,9.5581,0,0,0,2,1,,,,,,,,,,,,,,,,,,,,
,,,,,,,,,,,,,,,,,,37,2022-02-12_12h47.17.959,lexical_decision_task_DD_L4,2021.2.3,MacIntel,59.99880002,,,,,,,,,,,,,,,,,,,,,,,,,,,,,,,,,,,,,,,,,,,,,,,,,How likely will it be that you will recognize the words presented slighly blurred on a scale of 0 (not likely) to 100 (most likely)?,,,,,,,,,,,6,3.3461,0,1,1,1,1,,,,,,,,,,,,,,,,,,,,
,,,,,,,,,,,,,,,,,,37,2022-02-12_12h47.17.959,lexical_decision_task_DD_L4,2021.2.3,MacIntel,59.99880002,,,,,,,,,,,,,,,,,,,,,,,,,,,,,,,,,,,,,,,,,,,,,,,,,How likely will it be that you will recognize the words presented clearly on a scale of 0 (not likely) to 100 (most likely)?,,,,,,,,,,,6,2.9687,0,2,2,0,1,,,,,,,,,,,,,,,,,,,,
,0.030919461,-0.405397814,1,0,0,instr_done_button,,,,,,1,test,"In the next phase you will be presented with the words from the the first phase. Your job is to decide whether you remember seeing the word or not. If you remember seeing the word press ""old"" or type ""m"". If you do not remember seeing the word press ""new"" or type ""z"". Please press the space bar or click on continue to begin. ",,,,37,2022-02-12_12h47.17.959,lexical_decision_task_DD_L4,2021.2.3,MacIntel,59.99880002,,,,,,,,,,,,,,,,,,,,,,,,,,,,,,,,,,,,,,,,,,,,,,,,,,,,,,,,,,,,,,,,,,,0,0,0,0,1,,,,,,,,,,,,,,,
space,-0.010651177,-0.379735379,0,0,0,,,,,,,1,test,"In the next phase you will be presented with the words from the the first phase. Your job is to decide whether you remember seeing the word or not. If you remember seeing the word press ""old"" or type ""m"". If you do not remember seeing the word press ""new"" or type ""z"". Please press the space bar or click on continue to begin. ",,,,37,2022-02-12_12h47.17.959,lexical_decision_task_DD_L4,2021.2.3,MacIntel,59.99880002,4.1427,,,,,,,,,,,,,,,,,,,,,,,,,,,,,,,,,,,,,,,,,,,,,,,,,,,,,,,,,,,,,,,,,,1,0,1,0,1,,,,,,,,,,,,,,,
,-0.023568387,-0.372377658,1,0,0,instr_done_button,,,,,,1,test,"In the next phase you will be presented with the words from the the first phase. Your job is to decide whether you remember seeing the word or not. If you remember seeing the word press ""old"" or type ""m"". If you do not remember seeing the word press ""new"" or type ""z"". Please press the space bar or click on continue to begin. ",,,,37,2022-02-12_12h47.17.959,lexical_decision_task_DD_L4,2021.2.3,MacIntel,59.99880002,,,,,,,,,,,,,,,,,,,,,,,,,,,,,,,,,,,,,,,,,,,,,,,,,,,,,,,,,,,,,,,,,,,2,0,2,0,1,,,,,,,,,,,,,,,
,-0.023568387,-0.383894382,1,0,0,instr_done_button,,,,,,1,test,"In the next phase you will be presented with the words from the the first phase. Your job is to decide whether you remember seeing the word or not. If you remember seeing the word press ""old"" or type ""m"". If you do not remember seeing the word press ""new"" or type ""z"". Please press the space bar or click on continue to begin. ",,,,37,2022-02-12_12h47.17.959,lexical_decision_task_DD_L4,2021.2.3,MacIntel,59.99880002,,,,,,,,,,,,,,,,,,,,,,,,,,,,,,,,,,,,,,,,,,,,,,,,,,,,,,,,,,,,,,,,,,,3,0,3,0,1,,,,,,,,,,,,,,,
,-0.007244602,-0.391204088,1,0,0,instr_done_button,,,,,,1,test,"In the next phase you will be presented with the words from the the first phase. Your job is to decide whether you remember seeing the word or not. If you remember seeing the word press ""old"" or type ""m"". If you do not remember seeing the word press ""new"" or type ""z"". Please press the space bar or click on continue to begin. ",,,,37,2022-02-12_12h47.17.959,lexical_decision_task_DD_L4,2021.2.3,MacIntel,59.99880002,,,,,,,,,,,,,,,,,,,,,,,,,,,,,,,,,,,,,,,,,,,,,,,,,,,,,,,,,,,,,,,,,,,4,0,4,0,1,,,,,,,,,,,,,,,
,,,,,,,,,,,,,,,,,,37,2022-02-12_12h47.17.959,lexical_decision_task_DD_L4,2021.2.3,MacIntel,59.99880002,,,,,,,,,,,,2.0141,1,,,,,,,,,,,,,,,,,,,,,,,,-0.007244602,-0.391204088,0,0,0,,,,,,,COLLAR,C,m,y,./images/COLLAR.png,,,,,,,,,,,,,,,,,,,,m,1,2.0141,,,,,,,,0,0,0,15,1
,,,,,,,,,,,,,,,,,,37,2022-02-12_12h47.17.959,lexical_decision_task_DD_L4,2021.2.3,MacIntel,59.99880002,,,,,,,,,,,,1.2675,0,,,,,,,,,,,,,,,,,,,,,,,,-0.007244602,-0.391204088,0,0,0,,,,,,,ATTIC,C,z,y,./images/ATTIC.png,,,,,,,,,,,,,,,,,,,,m,0,1.2675,,,,,,,,0,1,1,111,1
,,,,,,,,,,,,,,,,,,37,2022-02-12_12h47.17.959,lexical_decision_task_DD_L4,2021.2.3,MacIntel,59.99880002,,,,,,,,,,,,0.6002,1,,,,,,,,,,,,,,,,,,,,,,,,-0.007244602,-0.391204088,0,0,0,,,,,,,GLOVE,HB,m,y,./images/GLOVEHB.png,,,,,,,,,,,,,,,,,,,,m,1,0.6002,,,,,,,,0,2,2,73,1
,,,,,,,,,,,,,,,,,,37,2022-02-12_12h47.17.959,lexical_decision_task_DD_L4,2021.2.3,MacIntel,59.99880002,,,,,,,,,,,,1.3185,1,,,,,,,,,,,,,,,,,,,,,,,,-0.007244602,-0.391204088,0,0,0,,,,,,,BUBBLE,LB,m,y,./images/BUBBLELB.png,,,,,,,,,,,,,,,,,,,,m,1,1.3185,,,,,,,,0,3,3,71,1
,,,,,,,,,,,,,,,,,,37,2022-02-12_12h47.17.959,lexical_decision_task_DD_L4,2021.2.3,MacIntel,59.99880002,,,,,,,,,,,,0.7152,1,,,,,,,,,,,,,,,,,,,,,,,,-0.007244602,-0.391204088,0,0,0,,,,,,,GRAPE,HB,m,y,./images/GRAPEHB.png,,,,,,,,,,,,,,,,,,,,m,1,0.7152,,,,,,,,0,4,4,16,1
,,,,,,,,,,,,,,,,,,37,2022-02-12_12h47.17.959,lexical_decision_task_DD_L4,2021.2.3,MacIntel,59.99880002,,,,,,,,,,,,1.551,1,,,,,,,,,,,,,,,,,,,,,,,,-0.007244602,-0.391204088,0,0,0,,,,,,,BAKER,C,m,y,./images/BAKER.png,,,,,,,,,,,,,,,,,,,,m,1,1.551,,,,,,,,0,5,5,63,1
,,,,,,,,,,,,,,,,,,37,2022-02-12_12h47.17.959,lexical_decision_task_DD_L4,2021.2.3,MacIntel,59.99880002,,,,,,,,,,,,0.8124,1,,,,,,,,,,,,,,,,,,,,,,,,-0.007244602,-0.391204088,0,0,0,,,,,,,MAGGOT,C,z,y,./images/MAGGOT.png,,,,,,,,,,,,,,,,,,,,z,1,0.8124,,,,,,,,0,6,6,117,1
,,,,,,,,,,,,,,,,,,37,2022-02-12_12h47.17.959,lexical_decision_task_DD_L4,2021.2.3,MacIntel,59.99880002,,,,,,,,,,,,0.6503,1,,,,,,,,,,,,,,,,,,,,,,,,-0.007244602,-0.391204088,0,0,0,,,,,,,MUSCLE,HB,z,y,./images/MUSCLEHB.png,,,,,,,,,,,,,,,,,,,,z,1,0.6503,,,,,,,,0,7,7,88,1
,,,,,,,,,,,,,,,,,,37,2022-02-12_12h47.17.959,lexical_decision_task_DD_L4,2021.2.3,MacIntel,59.99880002,,,,,,,,,,,,0.6376,1,,,,,,,,,,,,,,,,,,,,,,,,-0.007244602,-0.391204088,0,0,0,,,,,,,DANCER,C,m,y,./images/DANCER.png,,,,,,,,,,,,,,,,,,,,m,1,0.6376,,,,,,,,0,8,8,21,1
,,,,,,,,,,,,,,,,,,37,2022-02-12_12h47.17.959,lexical_decision_task_DD_L4,2021.2.3,MacIntel,59.99880002,,,,,,,,,,,,1.4814,1,,,,,,,,,,,,,,,,,,,,,,,,-0.007244602,-0.391204088,0,0,0,,,,,,,STAIN,C,m,y,./images/STAIN.png,,,,,,,,,,,,,,,,,,,,m,1,1.4814,,,,,,,,0,9,9,6,1
,,,,,,,,,,,,,,,,,,37,2022-02-12_12h47.17.959,lexical_decision_task_DD_L4,2021.2.3,MacIntel,59.99880002,,,,,,,,,,,,0.7786,1,,,,,,,,,,,,,,,,,,,,,,,,-0.007244602,-0.391204088,0,0,0,,,,,,,BOILER,C,m,y,./images/BOILER.png,,,,,,,,,,,,,,,,,,,,m,1,0.7786,,,,,,,,0,10,10,36,1
,,,,,,,,,,,,,,,,,,37,2022-02-12_12h47.17.959,lexical_decision_task_DD_L4,2021.2.3,MacIntel,59.99880002,,,,,,,,,,,,0.5606,1,,,,,,,,,,,,,,,,,,,,,,,,-0.007244602,-0.391204088,0,0,0,,,,,,,HAMMER,C,m,y,./images/HAMMER.png,,,,,,,,,,,,,,,,,,,,m,1,0.5606,,,,,,,,0,11,11,75,1
,,,,,,,,,,,,,,,,,,37,2022-02-12_12h47.17.959,lexical_decision_task_DD_L4,2021.2.3,MacIntel,59.99880002,,,,,,,,,,,,1.0793,0,,,,,,,,,,,,,,,,,,,,,,,,-0.007244602,-0.391204088,0,0,0,,,,,,,NOOSE,C,z,y,./images/NOOSE.png,,,,,,,,,,,,,,,,,,,,m,0,1.0793,,,,,,,,0,12,12,156,1
,,,,,,,,,,,,,,,,,,37,2022-02-12_12h47.17.959,lexical_decision_task_DD_L4,2021.2.3,MacIntel,59.99880002,,,,,,,,,,,,0.7532,1,,,,,,,,,,,,,,,,,,,,,,,,-0.007244602,-0.391204088,0,0,0,,,,,,,RHINO,C,z,y,./images/RHINO.png,,,,,,,,,,,,,,,,,,,,z,1,0.7532,,,,,,,,0,13,13,93,1
,,,,,,,,,,,,,,,,,,37,2022-02-12_12h47.17.959,lexical_decision_task_DD_L4,2021.2.3,MacIntel,59.99880002,,,,,,,,,,,,0.7134,1,,,,,,,,,,,,,,,,,,,,,,,,-0.007244602,-0.391204088,0,0,0,,,,,,,WALRUS,LB,z,y,./images/WALRUSLB.png,,,,,,,,,,,,,,,,,,,,z,1,0.7134,,,,,,,,0,14,14,107,1
,,,,,,,,,,,,,,,,,,37,2022-02-12_12h47.17.959,lexical_decision_task_DD_L4,2021.2.3,MacIntel,59.99880002,,,,,,,,,,,,0.6112,1,,,,,,,,,,,,,,,,,,,,,,,,-0.007244602,-0.391204088,0,0,0,,,,,,,CHALK,HB,m,y,./images/CHALKHB.png,,,,,,,,,,,,,,,,,,,,m,1,0.6112,,,,,,,,0,15,15,25,1
,,,,,,,,,,,,,,,,,,37,2022-02-12_12h47.17.959,lexical_decision_task_DD_L4,2021.2.3,MacIntel,59.99880002,,,,,,,,,,,,0.7523,1,,,,,,,,,,,,,,,,,,,,,,,,-0.007244602,-0.391204088,0,0,0,,,,,,,PEARL,HB,z,y,./images/PEARLHB.png,,,,,,,,,,,,,,,,,,,,z,1,0.7523,,,,,,,,0,16,16,130,1
,,,,,,,,,,,,,,,,,,37,2022-02-12_12h47.17.959,lexical_decision_task_DD_L4,2021.2.3,MacIntel,59.99880002,,,,,,,,,,,,0.6795,1,,,,,,,,,,,,,,,,,,,,,,,,-0.007244602,-0.391204088,0,0,0,,,,,,,CRADLE,LB,z,y,./images/CRADLELB.png,,,,,,,,,,,,,,,,,,,,z,1,0.6795,,,,,,,,0,17,17,104,1
,,,,,,,,,,,,,,,,,,37,2022-02-12_12h47.17.959,lexical_decision_task_DD_L4,2021.2.3,MacIntel,59.99880002,,,,,,,,,,,,0.5534,1,,,,,,,,,,,,,,,,,,,,,,,,-0.007244602,-0.391204088,0,0,0,,,,,,,DESERT,HB,m,y,./images/DESERTHB.png,,,,,,,,,,,,,,,,,,,,m,1,0.5534,,,,,,,,0,18,18,52,1
,,,,,,,,,,,,,,,,,,37,2022-02-12_12h47.17.959,lexical_decision_task_DD_L4,2021.2.3,MacIntel,59.99880002,,,,,,,,,,,,0.6489,1,,,,,,,,,,,,,,,,,,,,,,,,-0.007244602,-0.391204088,0,0,0,,,,,,,THROAT,C,z,y,./images/THROAT.png,,,,,,,,,,,,,,,,,,,,z,1,0.6489,,,,,,,,0,19,19,120,1
,,,,,,,,,,,,,,,,,,37,2022-02-12_12h47.17.959,lexical_decision_task_DD_L4,2021.2.3,MacIntel,59.99880002,,,,,,,,,,,,0.7282,1,,,,,,,,,,,,,,,,,,,,,,,,-0.007244602,-0.391204088,0,0,0,,,,,,,GARDEN,HB,m,y,./images/GARDENHB.png,,,,,,,,,,,,,,,,,,,,m,1,0.7282,,,,,,,,0,20,20,10,1
,,,,,,,,,,,,,,,,,,37,2022-02-12_12h47.17.959,lexical_decision_task_DD_L4,2021.2.3,MacIntel,59.99880002,,,,,,,,,,,,0.9549,0,,,,,,,,,,,,,,,,,,,,,,,,-0.007244602,-0.391204088,0,0,0,,,,,,,CANYON,HB,z,y,./images/CANYONHB.png,,,,,,,,,,,,,,,,,,,,m,0,0.9549,,,,,,,,0,21,21,118,1
,,,,,,,,,,,,,,,,,,37,2022-02-12_12h47.17.959,lexical_decision_task_DD_L4,2021.2.3,MacIntel,59.99880002,,,,,,,,,,,,0.6876,1,,,,,,,,,,,,,,,,,,,,,,,,-0.007244602,-0.391204088,0,0,0,,,,,,,BUNNY,HB,m,y,./images/BUNNYHB.png,,,,,,,,,,,,,,,,,,,,m,1,0.6876,,,,,,,,0,22,22,13,1
,,,,,,,,,,,,,,,,,,37,2022-02-12_12h47.17.959,lexical_decision_task_DD_L4,2021.2.3,MacIntel,59.99880002,,,,,,,,,,,,0.6375,1,,,,,,,,,,,,,,,,,,,,,,,,-0.007244602,-0.391204088,0,0,0,,,,,,,BRUSH,LB,m,y,./images/BRUSHLB.png,,,,,,,,,,,,,,,,,,,,m,1,0.6375,,,,,,,,0,23,23,59,1
,,,,,,,,,,,,,,,,,,37,2022-02-12_12h47.17.959,lexical_decision_task_DD_L4,2021.2.3,MacIntel,59.99880002,,,,,,,,,,,,0.7262,1,,,,,,,,,,,,,,,,,,,,,,,,-0.007244602,-0.391204088,0,0,0,,,,,,,FLESH,C,m,y,./images/FLESH.png,,,,,,,,,,,,,,,,,,,,m,1,0.7262,,,,,,,,0,24,24,24,1
,,,,,,,,,,,,,,,,,,37,2022-02-12_12h47.17.959,lexical_decision_task_DD_L4,2021.2.3,MacIntel,59.99880002,,,,,,,,,,,,0.4957,1,,,,,,,,,,,,,,,,,,,,,,,,-0.007244602,-0.391204088,0,0,0,,,,,,,INFANT,HB,z,y,./images/INFANTHB.png,,,,,,,,,,,,,,,,,,,,z,1,0.4957,,,,,,,,0,25,25,160,1
,,,,,,,,,,,,,,,,,,37,2022-02-12_12h47.17.959,lexical_decision_task_DD_L4,2021.2.3,MacIntel,59.99880002,,,,,,,,,,,,0.6485,1,,,,,,,,,,,,,,,,,,,,,,,,-0.007244602,-0.391204088,0,0,0,,,,,,,PICKLE,LB,z,y,./images/PICKLELB.png,,,,,,,,,,,,,,,,,,,,z,1,0.6485,,,,,,,,0,26,26,98,1
,,,,,,,,,,,,,,,,,,37,2022-02-12_12h47.17.959,lexical_decision_task_DD_L4,2021.2.3,MacIntel,59.99880002,,,,,,,,,,,,0.6017,1,,,,,,,,,,,,,,,,,,,,,,,,-0.007244602,-0.391204088,0,0,0,,,,,,,DRILL,C,m,y,./images/DRILL.png,,,,,,,,,,,,,,,,,,,,m,1,0.6017,,,,,,,,0,27,27,81,1
,,,,,,,,,,,,,,,,,,37,2022-02-12_12h47.17.959,lexical_decision_task_DD_L4,2021.2.3,MacIntel,59.99880002,,,,,,,,,,,,0.6968,1,,,,,,,,,,,,,,,,,,,,,,,,-0.007244602,-0.391204088,0,0,0,,,,,,,QUILL,HB,z,y,./images/QUILLHB.png,,,,,,,,,,,,,,,,,,,,z,1,0.6968,,,,,,,,0,28,28,115,1
,,,,,,,,,,,,,,,,,,37,2022-02-12_12h47.17.959,lexical_decision_task_DD_L4,2021.2.3,MacIntel,59.99880002,,,,,,,,,,,,0.6653,1,,,,,,,,,,,,,,,,,,,,,,,,-0.007244602,-0.391204088,0,0,0,,,,,,,HOCKEY,LB,m,y,./images/HOCKEYLB.png,,,,,,,,,,,,,,,,,,,,m,1,0.6653,,,,,,,,0,29,29,32,1
,,,,,,,,,,,,,,,,,,37,2022-02-12_12h47.17.959,lexical_decision_task_DD_L4,2021.2.3,MacIntel,59.99880002,,,,,,,,,,,,2.2539,0,,,,,,,,,,,,,,,,,,,,,,,,-0.007244602,-0.391204088,0,0,0,,,,,,,WRIST,HB,z,y,./images/WRISTHB.png,,,,,,,,,,,,,,,,,,,,m,0,2.2539,,,,,,,,0,30,30,109,1
,,,,,,,,,,,,,,,,,,37,2022-02-12_12h47.17.959,lexical_decision_task_DD_L4,2021.2.3,MacIntel,59.99880002,,,,,,,,,,,,0.6844,1,,,,,,,,,,,,,,,,,,,,,,,,-0.007244602,-0.391204088,0,0,0,,,,,,,MUFFIN,HB,z,y,./images/MUFFINHB.png,,,,,,,,,,,,,,,,,,,,z,1,0.6844,,,,,,,,0,31,31,139,1
,,,,,,,,,,,,,,,,,,37,2022-02-12_12h47.17.959,lexical_decision_task_DD_L4,2021.2.3,MacIntel,59.99880002,,,,,,,,,,,,0.601,1,,,,,,,,,,,,,,,,,,,,,,,,-0.007244602,-0.391204088,0,0,0,,,,,,,CHAIN,C,m,y,./images/CHAIN.png,,,,,,,,,,,,,,,,,,,,m,1,0.601,,,,,,,,0,32,32,42,1
,,,,,,,,,,,,,,,,,,37,2022-02-12_12h47.17.959,lexical_decision_task_DD_L4,2021.2.3,MacIntel,59.99880002,,,,,,,,,,,,0.6073,1,,,,,,,,,,,,,,,,,,,,,,,,-0.007244602,-0.391204088,0,0,0,,,,,,,PIMPLE,LB,z,y,./images/PIMPLELB.png,,,,,,,,,,,,,,,,,,,,z,1,0.6073,,,,,,,,0,33,33,155,1
,,,,,,,,,,,,,,,,,,37,2022-02-12_12h47.17.959,lexical_decision_task_DD_L4,2021.2.3,MacIntel,59.99880002,,,,,,,,,,,,0.5776,1,,,,,,,,,,,,,,,,,,,,,,,,-0.007244602,-0.391204088,0,0,0,,,,,,,STOOL,HB,m,y,./images/STOOLHB.png,,,,,,,,,,,,,,,,,,,,m,1,0.5776,,,,,,,,0,34,34,43,1
,,,,,,,,,,,,,,,,,,37,2022-02-12_12h47.17.959,lexical_decision_task_DD_L4,2021.2.3,MacIntel,59.99880002,,,,,,,,,,,,0.9522,0,,,,,,,,,,,,,,,,,,,,,,,,-0.007244602,-0.391204088,0,0,0,,,,,,,JUMPER,LB,m,y,./images/JUMPERLB.png,,,,,,,,,,,,,,,,,,,,z,0,0.9522,,,,,,,,0,35,35,74,1
,,,,,,,,,,,,,,,,,,37,2022-02-12_12h47.17.959,lexical_decision_task_DD_L4,2021.2.3,MacIntel,59.99880002,,,,,,,,,,,,0.7532,1,,,,,,,,,,,,,,,,,,,,,,,,-0.007244602,-0.391204088,0,0,0,,,,,,,ALLEY,HB,m,y,./images/ALLEYHB.png,,,,,,,,,,,,,,,,,,,,m,1,0.7532,,,,,,,,0,36,36,55,1
,,,,,,,,,,,,,,,,,,37,2022-02-12_12h47.17.959,lexical_decision_task_DD_L4,2021.2.3,MacIntel,59.99880002,,,,,,,,,,,,0.6018,1,,,,,,,,,,,,,,,,,,,,,,,,-0.007244602,-0.391204088,0,0,0,,,,,,,PURSE,LB,z,y,./images/PURSELB.png,,,,,,,,,,,,,,,,,,,,z,1,0.6018,,,,,,,,0,37,37,146,1
,,,,,,,,,,,,,,,,,,37,2022-02-12_12h47.17.959,lexical_decision_task_DD_L4,2021.2.3,MacIntel,59.99880002,,,,,,,,,,,,0.6699,0,,,,,,,,,,,,,,,,,,,,,,,,-0.007244602,-0.391204088,0,0,0,,,,,,,SNACK,HB,z,y,./images/SNACKHB.png,,,,,,,,,,,,,,,,,,,,m,0,0.6699,,,,,,,,0,38,38,157,1
,,,,,,,,,,,,,,,,,,37,2022-02-12_12h47.17.959,lexical_decision_task_DD_L4,2021.2.3,MacIntel,59.99880002,,,,,,,,,,,,0.5563,1,,,,,,,,,,,,,,,,,,,,,,,,-0.007244602,-0.391204088,0,0,0,,,,,,,BABOON,HB,z,y,./images/BABOONHB.png,,,,,,,,,,,,,,,,,,,,z,1,0.5563,,,,,,,,0,39,39,142,1
,,,,,,,,,,,,,,,,,,37,2022-02-12_12h47.17.959,lexical_decision_task_DD_L4,2021.2.3,MacIntel,59.99880002,,,,,,,,,,,,0.6749,1,,,,,,,,,,,,,,,,,,,,,,,,-0.007244602,-0.391204088,0,0,0,,,,,,,SPINE,LB,m,y,./images/SPINELB.png,,,,,,,,,,,,,,,,,,,,m,1,0.6749,,,,,,,,0,40,40,65,1
,,,,,,,,,,,,,,,,,,37,2022-02-12_12h47.17.959,lexical_decision_task_DD_L4,2021.2.3,MacIntel,59.99880002,,,,,,,,,,,,0.6518,1,,,,,,,,,,,,,,,,,,,,,,,,-0.007244602,-0.391204088,0,0,0,space,,,,,,CHERRY,C,m,y,./images/CHERRY.png,1.3897,,,,,,,,,,,,,,,,,,,m,1,0.6518,,,,,,,,0,41,41,54,1
,,,,,,,,,,,,,,,,,,37,2022-02-12_12h47.17.959,lexical_decision_task_DD_L4,2021.2.3,MacIntel,59.99880002,,,,,,,,,,,,0.6159,1,,,,,,,,,,,,,,,,,,,,,,,,-0.007244602,-0.391204088,0,0,0,,,,,,,KITTEN,C,z,y,./images/KITTEN.png,,,,,,,,,,,,,,,,,,,,z,1,0.6159,,,,,,,,0,42,42,129,1
,,,,,,,,,,,,,,,,,,37,2022-02-12_12h47.17.959,lexical_decision_task_DD_L4,2021.2.3,MacIntel,59.99880002,,,,,,,,,,,,0.4367,1,,,,,,,,,,,,,,,,,,,,,,,,-0.007244602,-0.391204088,0,0,0,,,,,,,SNAKE,HB,m,y,./images/SNAKEHB.png,,,,,,,,,,,,,,,,,,,,m,1,0.4367,,,,,,,,0,43,43,40,1
,,,,,,,,,,,,,,,,,,37,2022-02-12_12h47.17.959,lexical_decision_task_DD_L4,2021.2.3,MacIntel,59.99880002,,,,,,,,,,,,0.5552,0,,,,,,,,,,,,,,,,,,,,,,,,-0.007244602,-0.391204088,0,0,0,,,,,,,PISTOL,LB,m,y,./images/PISTOLLB.png,,,,,,,,,,,,,,,,,,,,z,0,0.5552,,,,,,,,0,44,44,29,1
,,,,,,,,,,,,,,,,,,37,2022-02-12_12h47.17.959,lexical_decision_task_DD_L4,2021.2.3,MacIntel,59.99880002,,,,,,,,,,,,0.6491,1,,,,,,,,,,,,,,,,,,,,,,,,-0.007244602,-0.391204088,0,0,0,,,,,,,MOOSE,C,z,y,./images/MOOSE.png,,,,,,,,,,,,,,,,,,,,z,1,0.6491,,,,,,,,0,45,45,141,1
,,,,,,,,,,,,,,,,,,37,2022-02-12_12h47.17.959,lexical_decision_task_DD_L4,2021.2.3,MacIntel,59.99880002,,,,,,,,,,,,0.758,0,,,,,,,,,,,,,,,,,,,,,,,,-0.007244602,-0.391204088,0,0,0,,,,,,,PLANK,HB,z,y,./images/PLANKHB.png,,,,,,,,,,,,,,,,,,,,m,0,0.758,,,,,,,,0,46,46,85,1
,,,,,,,,,,,,,,,,,,37,2022-02-12_12h47.17.959,lexical_decision_task_DD_L4,2021.2.3,MacIntel,59.99880002,,,,,,,,,,,,0.8945,1,,,,,,,,,,,,,,,,,,,,,,,,-0.007244602,-0.391204088,0,0,0,,,,,,,SCREW,C,z,y,./images/SCREW.png,,,,,,,,,,,,,,,,,,,,z,1,0.8945,,,,,,,,0,47,47,108,1
,,,,,,,,,,,,,,,,,,37,2022-02-12_12h47.17.959,lexical_decision_task_DD_L4,2021.2.3,MacIntel,59.99880002,,,,,,,,,,,,0.5062,1,,,,,,,,,,,,,,,,,,,,,,,,-0.007244602,-0.391204088,0,0,0,,,,,,,RAZOR,HB,m,y,./images/RAZORHB.png,,,,,,,,,,,,,,,,,,,,m,1,0.5062,,,,,,,,0,48,48,34,1
,,,,,,,,,,,,,,,,,,37,2022-02-12_12h47.17.959,lexical_decision_task_DD_L4,2021.2.3,MacIntel,59.99880002,,,,,,,,,,,,0.65,1,,,,,,,,,,,,,,,,,,,,,,,,-0.007244602,-0.391204088,0,0,0,,,,,,,MOSQUE,HB,z,y,./images/MOSQUEHB.png,,,,,,,,,,,,,,,,,,,,z,1,0.65,,,,,,,,0,49,49,127,1
,,,,,,,,,,,,,,,,,,37,2022-02-12_12h47.17.959,lexical_decision_task_DD_L4,2021.2.3,MacIntel,59.99880002,,,,,,,,,,,,1.0555,1,,,,,,,,,,,,,,,,,,,,,,,,-0.007244602,-0.391204088,0,0,0,,,,,,,MEDAL,LB,m,y,./images/MEDALLB.png,,,,,,,,,,,,,,,,,,,,m,1,1.0555,,,,,,,,0,50,50,11,1
,,,,,,,,,,,,,,,,,,37,2022-02-12_12h47.17.959,lexical_decision_task_DD_L4,2021.2.3,MacIntel,59.99880002,,,,,,,,,,,,0.5516,0,,,,,,,,,,,,,,,,,,,,,,,,-0.007244602,-0.391204088,0,0,0,,,,,,,MIRROR,C,z,y,./images/MIRROR.png,,,,,,,,,,,,,,,,,,,,m,0,0.5516,,,,,,,,0,51,51,147,1
,,,,,,,,,,,,,,,,,,37,2022-02-12_12h47.17.959,lexical_decision_task_DD_L4,2021.2.3,MacIntel,59.99880002,,,,,,,,,,,,0.7412,1,,,,,,,,,,,,,,,,,,,,,,,,-0.007244602,-0.391204088,0,0,0,,,,,,,BANANA,HB,m,y,./images/BANANAHB.png,,,,,,,,,,,,,,,,,,,,m,1,0.7412,,,,,,,,0,52,52,70,1
,,,,,,,,,,,,,,,,,,37,2022-02-12_12h47.17.959,lexical_decision_task_DD_L4,2021.2.3,MacIntel,59.99880002,,,,,,,,,,,,1.0492,1,,,,,,,,,,,,,,,,,,,,,,,,-0.007244602,-0.391204088,0,0,0,,,,,,,BASKET,LB,m,y,./images/BASKETLB.png,,,,,,,,,,,,,,,,,,,,m,1,1.0492,,,,,,,,0,53,53,44,1
,,,,,,,,,,,,,,,,,,37,2022-02-12_12h47.17.959,lexical_decision_task_DD_L4,2021.2.3,MacIntel,59.99880002,,,,,,,,,,,,0.4719,1,,,,,,,,,,,,,,,,,,,,,,,,-0.007244602,-0.391204088,0,0,0,,,,,,,MALLET,LB,z,y,./images/MALLETLB.png,,,,,,,,,,,,,,,,,,,,z,1,0.4719,,,,,,,,0,54,54,134,1
,,,,,,,,,,,,,,,,,,37,2022-02-12_12h47.17.959,lexical_decision_task_DD_L4,2021.2.3,MacIntel,59.99880002,,,,,,,,,,,,0.608,1,,,,,,,,,,,,,,,,,,,,,,,,-0.007244602,-0.391204088,0,0,0,,,,,,,CEMENT,LB,z,y,./images/CEMENTLB.png,,,,,,,,,,,,,,,,,,,,z,1,0.608,,,,,,,,0,55,55,158,1
,,,,,,,,,,,,,,,,,,37,2022-02-12_12h47.17.959,lexical_decision_task_DD_L4,2021.2.3,MacIntel,59.99880002,,,,,,,,,,,,0.5692,0,,,,,,,,,,,,,,,,,,,,,,,,-0.007244602,-0.391204088,0,0,0,,,,,,,GRAIN,C,z,y,./images/GRAIN.png,,,,,,,,,,,,,,,,,,,,m,0,0.5692,,,,,,,,0,56,56,159,1
,,,,,,,,,,,,,,,,,,37,2022-02-12_12h47.17.959,lexical_decision_task_DD_L4,2021.2.3,MacIntel,59.99880002,,,,,,,,,,,,1.4865,1,,,,,,,,,,,,,,,,,,,,,,,,-0.007244602,-0.391204088,0,0,0,,,,,,,BIRTH,HB,z,y,./images/BIRTHHB.png,,,,,,,,,,,,,,,,,,,,z,1,1.4865,,,,,,,,0,57,57,121,1
,,,,,,,,,,,,,,,,,,37,2022-02-12_12h47.17.959,lexical_decision_task_DD_L4,2021.2.3,MacIntel,59.99880002,,,,,,,,,,,,1.7044,1,,,,,,,,,,,,,,,,,,,,,,,,-0.007244602,-0.391204088,0,0,0,,,,,,,WAGON,HB,m,y,./images/WAGONHB.png,,,,,,,,,,,,,,,,,,,,m,1,1.7044,,,,,,,,0,58,58,7,1
,,,,,,,,,,,,,,,,,,37,2022-02-12_12h47.17.959,lexical_decision_task_DD_L4,2021.2.3,MacIntel,59.99880002,,,,,,,,,,,,0.635,1,,,,,,,,,,,,,,,,,,,,,,,,-0.007244602,-0.391204088,0,0,0,,,,,,,LITTER,C,z,y,./images/LITTER.png,,,,,,,,,,,,,,,,,,,,z,1,0.635,,,,,,,,0,59,59,162,1
,,,,,,,,,,,,,,,,,,37,2022-02-12_12h47.17.959,lexical_decision_task_DD_L4,2021.2.3,MacIntel,59.99880002,,,,,,,,,,,,0.5486,1,,,,,,,,,,,,,,,,,,,,,,,,-0.007244602,-0.391204088,0,0,0,,,,,,,ONION,C,z,y,./images/ONION.png,,,,,,,,,,,,,,,,,,,,z,1,0.5486,,,,,,,,0,60,60,135,1
,,,,,,,,,,,,,,,,,,37,2022-02-12_12h47.17.959,lexical_decision_task_DD_L4,2021.2.3,MacIntel,59.99880002,,,,,,,,,,,,0.7181,0,,,,,,,,,,,,,,,,,,,,,,,,-0.007244602,-0.391204088,0,0,0,,,,,,,HEATER,LB,m,y,./images/HEATERLB.png,,,,,,,,,,,,,,,,,,,,z,0,0.7181,,,,,,,,0,61,61,56,1
,,,,,,,,,,,,,,,,,,37,2022-02-12_12h47.17.959,lexical_decision_task_DD_L4,2021.2.3,MacIntel,59.99880002,,,,,,,,,,,,0.5216,1,,,,,,,,,,,,,,,,,,,,,,,,-0.007244602,-0.391204088,0,0,0,,,,,,,DOUGH,HB,z,y,./images/DOUGHHB.png,,,,,,,,,,,,,,,,,,,,z,1,0.5216,,,,,,,,0,62,62,103,1
,,,,,,,,,,,,,,,,,,37,2022-02-12_12h47.17.959,lexical_decision_task_DD_L4,2021.2.3,MacIntel,59.99880002,,,,,,,,,,,,0.7137,1,,,,,,,,,,,,,,,,,,,,,,,,-0.007244602,-0.391204088,0,0,0,,,,,,,URINE,HB,z,y,./images/URINEHB.png,,,,,,,,,,,,,,,,,,,,z,1,0.7137,,,,,,,,0,63,63,154,1
,,,,,,,,,,,,,,,,,,37,2022-02-12_12h47.17.959,lexical_decision_task_DD_L4,2021.2.3,MacIntel,59.99880002,,,,,,,,,,,,0.5704,0,,,,,,,,,,,,,,,,,,,,,,,,-0.007244602,-0.391204088,0,0,0,,,,,,,PAINT,HB,z,y,./images/PAINTHB.png,,,,,,,,,,,,,,,,,,,,m,0,0.5704,,,,,,,,0,64,64,91,1
,,,,,,,,,,,,,,,,,,37,2022-02-12_12h47.17.959,lexical_decision_task_DD_L4,2021.2.3,MacIntel,59.99880002,,,,,,,,,,,,0.55,1,,,,,,,,,,,,,,,,,,,,,,,,-0.007244602,-0.391204088,0,0,0,,,,,,,CANDLE,HB,z,y,./images/CANDLEHB.png,,,,,,,,,,,,,,,,,,,,z,1,0.55,,,,,,,,0,65,65,145,1
,,,,,,,,,,,,,,,,,,37,2022-02-12_12h47.17.959,lexical_decision_task_DD_L4,2021.2.3,MacIntel,59.99880002,,,,,,,,,,,,0.5817,1,,,,,,,,,,,,,,,,,,,,,,,,-0.007244602,-0.391204088,0,0,0,,,,,,,FALCON,HB,z,y,./images/FALCONHB.png,,,,,,,,,,,,,,,,,,,,z,1,0.5817,,,,,,,,0,66,66,112,1
,,,,,,,,,,,,,,,,,,37,2022-02-12_12h47.17.959,lexical_decision_task_DD_L4,2021.2.3,MacIntel,59.99880002,,,,,,,,,,,,0.4834,0,,,,,,,,,,,,,,,,,,,,,,,,-0.007244602,-0.391204088,0,0,0,,,,,,,ENGINE,LB,m,y,./images/ENGINELB.png,,,,,,,,,,,,,,,,,,,,z,0,0.4834,,,,,,,,0,67,67,38,1
,,,,,,,,,,,,,,,,,,37,2022-02-12_12h47.17.959,lexical_decision_task_DD_L4,2021.2.3,MacIntel,59.99880002,,,,,,,,,,,,0.6528,1,,,,,,,,,,,,,,,,,,,,,,,,-0.007244602,-0.391204088,0,0,0,,,,,,,LLAMA,LB,m,y,./images/LLAMALB.png,,,,,,,,,,,,,,,,,,,,m,1,0.6528,,,,,,,,0,68,68,35,1
,,,,,,,,,,,,,,,,,,37,2022-02-12_12h47.17.959,lexical_decision_task_DD_L4,2021.2.3,MacIntel,59.99880002,,,,,,,,,,,,0.6259,1,,,,,,,,,,,,,,,,,,,,,,,,-0.007244602,-0.391204088,0,0,0,,,,,,,RULER,HB,m,y,./images/RULERHB.png,,,,,,,,,,,,,,,,,,,,m,1,0.6259,,,,,,,,0,69,69,79,1
,,,,,,,,,,,,,,,,,,37,2022-02-12_12h47.17.959,lexical_decision_task_DD_L4,2021.2.3,MacIntel,59.99880002,,,,,,,,,,,,0.722,0,,,,,,,,,,,,,,,,,,,,,,,,-0.007244602,-0.391204088,0,0,0,,,,,,,SAUCE,C,m,y,./images/SAUCE.png,,,,,,,,,,,,,,,,,,,,z,0,0.722,,,,,,,,0,70,70,51,1
,,,,,,,,,,,,,,,,,,37,2022-02-12_12h47.17.959,lexical_decision_task_DD_L4,2021.2.3,MacIntel,59.99880002,,,,,,,,,,,,0.4818,1,,,,,,,,,,,,,,,,,,,,,,,,-0.007244602,-0.391204088,0,0,0,,,,,,,WHEEL,LB,m,y,./images/WHEELLB.png,,,,,,,,,,,,,,,,,,,,m,1,0.4818,,,,,,,,0,71,71,77,1
,,,,,,,,,,,,,,,,,,37,2022-02-12_12h47.17.959,lexical_decision_task_DD_L4,2021.2.3,MacIntel,59.99880002,,,,,,,,,,,,0.6938,1,,,,,,,,,,,,,,,,,,,,,,,,-0.007244602,-0.391204088,0,0,0,,,,,,,SLOPE,C,m,y,./images/SLOPE.png,,,,,,,,,,,,,,,,,,,,m,1,0.6938,,,,,,,,0,72,72,30,1
,,,,,,,,,,,,,,,,,,37,2022-02-12_12h47.17.959,lexical_decision_task_DD_L4,2021.2.3,MacIntel,59.99880002,,,,,,,,,,,,0.6563,0,,,,,,,,,,,,,,,,,,,,,,,,-0.007244602,-0.391204088,0,0,0,,,,,,,SWING,HB,z,y,./images/SWINGHB.png,,,,,,,,,,,,,,,,,,,,m,0,0.6563,,,,,,,,0,73,73,124,1
,,,,,,,,,,,,,,,,,,37,2022-02-12_12h47.17.959,lexical_decision_task_DD_L4,2021.2.3,MacIntel,59.99880002,,,,,,,,,,,,0.5164,1,,,,,,,,,,,,,,,,,,,,,,,,-0.007244602,-0.391204088,0,0,0,,,,,,,KIDNEY,C,z,y,./images/KIDNEY.png,,,,,,,,,,,,,,,,,,,,z,1,0.5164,,,,,,,,0,74,74,105,1
,,,,,,,,,,,,,,,,,,37,2022-02-12_12h47.17.959,lexical_decision_task_DD_L4,2021.2.3,MacIntel,59.99880002,,,,,,,,,,,,0.5697,0,,,,,,,,,,,,,,,,,,,,,,,,-0.007244602,-0.391204088,0,0,0,,,,,,,BERRY,LB,z,y,./images/BERRYLB.png,,,,,,,,,,,,,,,,,,,,m,0,0.5697,,,,,,,,0,75,75,131,1
,,,,,,,,,,,,,,,,,,37,2022-02-12_12h47.17.959,lexical_decision_task_DD_L4,2021.2.3,MacIntel,59.99880002,,,,,,,,,,,,0.4887,1,,,,,,,,,,,,,,,,,,,,,,,,-0.007244602,-0.391204088,0,0,0,,,,,,,WEASEL,LB,z,y,./images/WEASELLB.png,,,,,,,,,,,,,,,,,,,,z,1,0.4887,,,,,,,,0,76,76,164,1
,,,,,,,,,,,,,,,,,,37,2022-02-12_12h47.17.959,lexical_decision_task_DD_L4,2021.2.3,MacIntel,59.99880002,,,,,,,,,,,,0.4555,0,,,,,,,,,,,,,,,,,,,,,,,,-0.007244602,-0.391204088,0,0,0,,,,,,,FERRY,C,m,y,./images/FERRY.png,,,,,,,,,,,,,,,,,,,,z,0,0.4555,,,,,,,,0,77,77,57,1
,,,,,,,,,,,,,,,,,,37,2022-02-12_12h47.17.959,lexical_decision_task_DD_L4,2021.2.3,MacIntel,59.99880002,,,,,,,,,,,,0.5338,1,,,,,,,,,,,,,,,,,,,,,,,,-0.007244602,-0.391204088,0,0,0,,,,,,,POODLE,C,z,y,./images/POODLE.png,,,,,,,,,,,,,,,,,,,,z,1,0.5338,,,,,,,,0,78,78,165,1
,,,,,,,,,,,,,,,,,,37,2022-02-12_12h47.17.959,lexical_decision_task_DD_L4,2021.2.3,MacIntel,59.99880002,,,,,,,,,,,,0.5214,1,,,,,,,,,,,,,,,,,,,,,,,,-0.007244602,-0.391204088,0,0,0,,,,,,,WHISKY,LB,m,y,./images/WHISKYLB.png,,,,,,,,,,,,,,,,,,,,m,1,0.5214,,,,,,,,0,79,79,83,1
,,,,,,,,,,,,,,,,,,37,2022-02-12_12h47.17.959,lexical_decision_task_DD_L4,2021.2.3,MacIntel,59.99880002,,,,,,,,,,,,0.7852,0,,,,,,,,,,,,,,,,,,,,,,,,-0.007244602,-0.391204088,0,0,0,,,,,,,MELON,HB,z,y,./images/MELONHB.png,,,,,,,,,,,,,,,,,,,,m,0,0.7852,,,,,,,,0,80,80,106,1
,,,,,,,,,,,,,,,,,,37,2022-02-12_12h47.17.959,lexical_decision_task_DD_L4,2021.2.3,MacIntel,59.99880002,,,,,,,,,,,,0.6161,1,,,,,,,,,,,,,,,,,,,,,,,,-0.007244602,-0.391204088,0,0,0,,,,,,,FINGER,C,z,y,./images/FINGER.png,,,,,,,,,,,,,,,,,,,,z,1,0.6161,,,,,,,,0,81,81,87,1
,,,,,,,,,,,,,,,,,,37,2022-02-12_12h47.17.959,lexical_decision_task_DD_L4,2021.2.3,MacIntel,59.99880002,,,,,,,,,,,,0.6756,1,,,,,,,,,,,,,,,,,,,,,,,,-0.007244602,-0.391204088,0,0,0,,,,,,,BARREL,LB,z,y,./images/BARRELLB.png,,,,,,,,,,,,,,,,,,,,z,1,0.6756,,,,,,,,0,82,82,116,1
,,,,,,,,,,,,,,,,,,37,2022-02-12_12h47.17.959,lexical_decision_task_DD_L4,2021.2.3,MacIntel,59.99880002,,,,,,,,,,,,0.5581,1,,,,,,,,,,,,,,,,,,,,,,,,-0.007244602,-0.391204088,0,0,0,space,,,,,,ARTIST,HB,m,y,./images/ARTISTHB.png,0.6839,,,,,,,,,,,,,,,,,,,m,1,0.5581,,,,,,,,0,83,83,61,1
,,,,,,,,,,,,,,,,,,37,2022-02-12_12h47.17.959,lexical_decision_task_DD_L4,2021.2.3,MacIntel,59.99880002,,,,,,,,,,,,0.5841,1,,,,,,,,,,,,,,,,,,,,,,,,-0.007244602,-0.391204088,0,0,0,,,,,,,LIZARD,LB,z,y,./images/LIZARDLB.png,,,,,,,,,,,,,,,,,,,,z,1,0.5841,,,,,,,,0,84,84,128,1
,,,,,,,,,,,,,,,,,,37,2022-02-12_12h47.17.959,lexical_decision_task_DD_L4,2021.2.3,MacIntel,59.99880002,,,,,,,,,,,,0.5336,1,,,,,,,,,,,,,,,,,,,,,,,,-0.007244602,-0.391204088,0,0,0,,,,,,,BURIAL,LB,z,y,./images/BURIALLB.png,,,,,,,,,,,,,,,,,,,,z,1,0.5336,,,,,,,,0,85,85,143,1
,,,,,,,,,,,,,,,,,,37,2022-02-12_12h47.17.959,lexical_decision_task_DD_L4,2021.2.3,MacIntel,59.99880002,,,,,,,,,,,,0.7243,1,,,,,,,,,,,,,,,,,,,,,,,,-0.007244602,-0.391204088,0,0,0,,,,,,,SHIELD,C,m,y,./images/SHIELD.png,,,,,,,,,,,,,,,,,,,,m,1,0.7243,,,,,,,,0,86,86,48,1
,,,,,,,,,,,,,,,,,,37,2022-02-12_12h47.17.959,lexical_decision_task_DD_L4,2021.2.3,MacIntel,59.99880002,,,,,,,,,,,,0.6524,1,,,,,,,,,,,,,,,,,,,,,,,,-0.007244602,-0.391204088,0,0,0,,,,,,,POKER,HB,m,y,./images/POKERHB.png,,,,,,,,,,,,,,,,,,,,m,1,0.6524,,,,,,,,0,87,87,67,1
,,,,,,,,,,,,,,,,,,37,2022-02-12_12h47.17.959,lexical_decision_task_DD_L4,2021.2.3,MacIntel,59.99880002,,,,,,,,,,,,0.5001,1,,,,,,,,,,,,,,,,,,,,,,,,-0.007244602,-0.391204088,0,0,0,,,,,,,BANNER,HB,z,y,./images/BANNERHB.png,,,,,,,,,,,,,,,,,,,,z,1,0.5001,,,,,,,,0,88,88,136,1
,,,,,,,,,,,,,,,,,,37,2022-02-12_12h47.17.959,lexical_decision_task_DD_L4,2021.2.3,MacIntel,59.99880002,,,,,,,,,,,,0.6173,1,,,,,,,,,,,,,,,,,,,,,,,,-0.007244602,-0.391204088,0,0,0,,,,,,,MIDGET,HB,m,y,./images/MIDGETHB.png,,,,,,,,,,,,,,,,,,,,m,1,0.6173,,,,,,,,0,89,89,76,1
,,,,,,,,,,,,,,,,,,37,2022-02-12_12h47.17.959,lexical_decision_task_DD_L4,2021.2.3,MacIntel,59.99880002,,,,,,,,,,,,0.5382,0,,,,,,,,,,,,,,,,,,,,,,,,-0.007244602,-0.391204088,0,0,0,,,,,,,BUTTER,C,m,y,./images/BUTTER.png,,,,,,,,,,,,,,,,,,,,z,0,0.5382,,,,,,,,0,90,90,27,1
,,,,,,,,,,,,,,,,,,37,2022-02-12_12h47.17.959,lexical_decision_task_DD_L4,2021.2.3,MacIntel,59.99880002,,,,,,,,,,,,0.6168,1,,,,,,,,,,,,,,,,,,,,,,,,-0.007244602,-0.391204088,0,0,0,,,,,,,PENCE,HB,z,y,./images/PENCEHB.png,,,,,,,,,,,,,,,,,,,,z,1,0.6168,,,,,,,,0,91,91,100,1
,,,,,,,,,,,,,,,,,,37,2022-02-12_12h47.17.959,lexical_decision_task_DD_L4,2021.2.3,MacIntel,59.99880002,,,,,,,,,,,,1.1098,1,,,,,,,,,,,,,,,,,,,,,,,,-0.007244602,-0.391204088,0,0,0,,,,,,,BELLY,HB,z,y,./images/BELLYHB.png,,,,,,,,,,,,,,,,,,,,z,1,1.1098,,,,,,,,0,92,92,94,1
,,,,,,,,,,,,,,,,,,37,2022-02-12_12h47.17.959,lexical_decision_task_DD_L4,2021.2.3,MacIntel,59.99880002,,,,,,,,,,,,0.8007,1,,,,,,,,,,,,,,,,,,,,,,,,-0.007244602,-0.391204088,0,0,0,,,,,,,CANDY,C,m,y,./images/CANDY.png,,,,,,,,,,,,,,,,,,,,m,1,0.8007,,,,,,,,0,93,93,39,1
,,,,,,,,,,,,,,,,,,37,2022-02-12_12h47.17.959,lexical_decision_task_DD_L4,2021.2.3,MacIntel,59.99880002,,,,,,,,,,,,0.8603,1,,,,,,,,,,,,,,,,,,,,,,,,-0.007244602,-0.391204088,0,0,0,,,,,,,DIVER,C,m,y,./images/DIVER.png,,,,,,,,,,,,,,,,,,,,m,1,0.8603,,,,,,,,0,94,94,9,1
,,,,,,,,,,,,,,,,,,37,2022-02-12_12h47.17.959,lexical_decision_task_DD_L4,2021.2.3,MacIntel,59.99880002,,,,,,,,,,,,0.8158,1,,,,,,,,,,,,,,,,,,,,,,,,-0.007244602,-0.391204088,0,0,0,,,,,,,BRIDE,HB,m,y,./images/BRIDEHB.png,,,,,,,,,,,,,,,,,,,,m,1,0.8158,,,,,,,,0,95,95,64,1
,,,,,,,,,,,,,,,,,,37,2022-02-12_12h47.17.959,lexical_decision_task_DD_L4,2021.2.3,MacIntel,59.99880002,,,,,,,,,,,,0.6257,1,,,,,,,,,,,,,,,,,,,,,,,,-0.007244602,-0.391204088,0,0,0,,,,,,,PLANET,LB,m,y,./images/PLANETLB.png,,,,,,,,,,,,,,,,,,,,m,1,0.6257,,,,,,,,0,96,96,80,1
,,,,,,,,,,,,,,,,,,37,2022-02-12_12h47.17.959,lexical_decision_task_DD_L4,2021.2.3,MacIntel,59.99880002,,,,,,,,,,,,0.4703,0,,,,,,,,,,,,,,,,,,,,,,,,-0.007244602,-0.391204088,0,0,0,,,,,,,BAMBOO,LB,m,y,./images/BAMBOOLB.png,,,,,,,,,,,,,,,,,,,,z,0,0.4703,,,,,,,,0,97,97,5,1
,,,,,,,,,,,,,,,,,,37,2022-02-12_12h47.17.959,lexical_decision_task_DD_L4,2021.2.3,MacIntel,59.99880002,,,,,,,,,,,,0.7322,1,,,,,,,,,,,,,,,,,,,,,,,,-0.007244602,-0.391204088,0,0,0,,,,,,,SAILOR,HB,z,y,./images/SAILORHB.png,,,,,,,,,,,,,,,,,,,,z,1,0.7322,,,,,,,,0,98,98,151,1
,,,,,,,,,,,,,,,,,,37,2022-02-12_12h47.17.959,lexical_decision_task_DD_L4,2021.2.3,MacIntel,59.99880002,,,,,,,,,,,,0.6856,0,,,,,,,,,,,,,,,,,,,,,,,,-0.007244602,-0.391204088,0,0,0,,,,,,,TIGER,HB,m,y,./images/TIGERHB.png,,,,,,,,,,,,,,,,,,,,z,0,0.6856,,,,,,,,0,99,99,37,1
,,,,,,,,,,,,,,,,,,37,2022-02-12_12h47.17.959,lexical_decision_task_DD_L4,2021.2.3,MacIntel,59.99880002,,,,,,,,,,,,0.5669,1,,,,,,,,,,,,,,,,,,,,,,,,-0.007244602,-0.391204088,0,0,0,,,,,,,CLOWN,HB,m,y,./images/CLOWNHB.png,,,,,,,,,,,,,,,,,,,,m,1,0.5669,,,,,,,,0,100,100,22,1
,,,,,,,,,,,,,,,,,,37,2022-02-12_12h47.17.959,lexical_decision_task_DD_L4,2021.2.3,MacIntel,59.99880002,,,,,,,,,,,,0.6917,1,,,,,,,,,,,,,,,,,,,,,,,,-0.007244602,-0.391204088,0,0,0,,,,,,,SMOKER,LB,z,y,./images/SMOKERLB.png,,,,,,,,,,,,,,,,,,,,z,1,0.6917,,,,,,,,0,101,101,110,1
,,,,,,,,,,,,,,,,,,37,2022-02-12_12h47.17.959,lexical_decision_task_DD_L4,2021.2.3,MacIntel,59.99880002,,,,,,,,,,,,0.7506,1,,,,,,,,,,,,,,,,,,,,,,,,-0.007244602,-0.391204088,0,0,0,,,,,,,SQUARE,C,z,y,./images/SQUARE.png,,,,,,,,,,,,,,,,,,,,z,1,0.7506,,,,,,,,0,102,102,90,1
,,,,,,,,,,,,,,,,,,37,2022-02-12_12h47.17.959,lexical_decision_task_DD_L4,2021.2.3,MacIntel,59.99880002,,,,,,,,,,,,0.5997,1,,,,,,,,,,,,,,,,,,,,,,,,-0.007244602,-0.391204088,0,0,0,,,,,,,TWINS,C,z,y,./images/TWINS.png,,,,,,,,,,,,,,,,,,,,z,1,0.5997,,,,,,,,0,103,103,144,1
,,,,,,,,,,,,,,,,,,37,2022-02-12_12h47.17.959,lexical_decision_task_DD_L4,2021.2.3,MacIntel,59.99880002,,,,,,,,,,,,0.8665,1,,,,,,,,,,,,,,,,,,,,,,,,-0.007244602,-0.391204088,0,0,0,,,,,,,SPORT,C,z,y,./images/SPORT.png,,,,,,,,,,,,,,,,,,,,z,1,0.8665,,,,,,,,0,104,104,132,1
,,,,,,,,,,,,,,,,,,37,2022-02-12_12h47.17.959,lexical_decision_task_DD_L4,2021.2.3,MacIntel,59.99880002,,,,,,,,,,,,0.4907,0,,,,,,,,,,,,,,,,,,,,,,,,-0.007244602,-0.391204088,0,0,0,,,,,,,CRUMB,LB,z,y,./images/CRUMBLB.png,,,,,,,,,,,,,,,,,,,,m,0,0.4907,,,,,,,,0,105,105,113,1
,,,,,,,,,,,,,,,,,,37,2022-02-12_12h47.17.959,lexical_decision_task_DD_L4,2021.2.3,MacIntel,59.99880002,,,,,,,,,,,,0.8014,0,,,,,,,,,,,,,,,,,,,,,,,,-0.007244602,-0.391204088,0,0,0,,,,,,,DRUMS,HB,z,y,./images/DRUMSHB.png,,,,,,,,,,,,,,,,,,,,m,0,0.8014,,,,,,,,0,106,106,133,1
,,,,,,,,,,,,,,,,,,37,2022-02-12_12h47.17.959,lexical_decision_task_DD_L4,2021.2.3,MacIntel,59.99880002,,,,,,,,,,,,0.6159,0,,,,,,,,,,,,,,,,,,,,,,,,-0.007244602,-0.391204088,0,0,0,,,,,,,JELLY,HB,z,y,./images/JELLYHB.png,,,,,,,,,,,,,,,,,,,,m,0,0.6159,,,,,,,,0,107,107,148,1
,,,,,,,,,,,,,,,,,,37,2022-02-12_12h47.17.959,lexical_decision_task_DD_L4,2021.2.3,MacIntel,59.99880002,,,,,,,,,,,,0.6243,0,,,,,,,,,,,,,,,,,,,,,,,,-0.007244602,-0.391204088,0,0,0,,,,,,,CANOE,HB,m,y,./images/CANOEHB.png,,,,,,,,,,,,,,,,,,,,z,0,0.6243,,,,,,,,0,108,108,58,1
,,,,,,,,,,,,,,,,,,37,2022-02-12_12h47.17.959,lexical_decision_task_DD_L4,2021.2.3,MacIntel,59.99880002,,,,,,,,,,,,1.5488,0,,,,,,,,,,,,,,,,,,,,,,,,-0.007244602,-0.391204088,0,0,0,,,,,,,FARMER,LB,z,y,./images/FARMERLB.png,,,,,,,,,,,,,,,,,,,,m,0,1.5488,,,,,,,,0,109,109,149,1
,,,,,,,,,,,,,,,,,,37,2022-02-12_12h47.17.959,lexical_decision_task_DD_L4,2021.2.3,MacIntel,59.99880002,,,,,,,,,,,,0.7737,0,,,,,,,,,,,,,,,,,,,,,,,,-0.007244602,-0.391204088,0,0,0,,,,,,,POSTER,LB,m,y,./images/POSTERLB.png,,,,,,,,,,,,,,,,,,,,z,0,0.7737,,,,,,,,0,110,110,53,1
,,,,,,,,,,,,,,,,,,37,2022-02-12_12h47.17.959,lexical_decision_task_DD_L4,2021.2.3,MacIntel,59.99880002,,,,,,,,,,,,0.5346,0,,,,,,,,,,,,,,,,,,,,,,,,-0.007244602,-0.391204088,0,0,0,,,,,,,CASINO,HB,m,y,./images/CASINOHB.png,,,,,,,,,,,,,,,,,,,,z,0,0.5346,,,,,,,,0,111,111,28,1
,,,,,,,,,,,,,,,,,,37,2022-02-12_12h47.17.959,lexical_decision_task_DD_L4,2021.2.3,MacIntel,59.99880002,,,,,,,,,,,,0.8004,1,,,,,,,,,,,,,,,,,,,,,,,,-0.007244602,-0.391204088,0,0,0,,,,,,,PEACH,LB,z,y,./images/PEACHLB.png,,,,,,,,,,,,,,,,,,,,z,1,0.8004,,,,,,,,0,112,112,119,1
,,,,,,,,,,,,,,,,,,37,2022-02-12_12h47.17.959,lexical_decision_task_DD_L4,2021.2.3,MacIntel,59.99880002,,,,,,,,,,,,0.6003,0,,,,,,,,,,,,,,,,,,,,,,,,-0.007244602,-0.391204088,0,0,0,,,,,,,BLOKE,C,m,y,./images/BLOKE.png,,,,,,,,,,,,,,,,,,,,z,0,0.6003,,,,,,,,0,113,113,12,1
,,,,,,,,,,,,,,,,,,37,2022-02-12_12h47.17.959,lexical_decision_task_DD_L4,2021.2.3,MacIntel,59.99880002,,,,,,,,,,,,0.6229,1,,,,,,,,,,,,,,,,,,,,,,,,-0.007244602,-0.391204088,0,0,0,,,,,,,SAUNA,C,m,y,./images/SAUNA.png,,,,,,,,,,,,,,,,,,,,m,1,0.6229,,,,,,,,0,114,114,33,1
,,,,,,,,,,,,,,,,,,37,2022-02-12_12h47.17.959,lexical_decision_task_DD_L4,2021.2.3,MacIntel,59.99880002,,,,,,,,,,,,0.6003,1,,,,,,,,,,,,,,,,,,,,,,,,-0.007244602,-0.391204088,0,0,0,,,,,,,STOVE,LB,m,y,./images/STOVELB.png,,,,,,,,,,,,,,,,,,,,m,1,0.6003,,,,,,,,0,115,115,2,1
,,,,,,,,,,,,,,,,,,37,2022-02-12_12h47.17.959,lexical_decision_task_DD_L4,2021.2.3,MacIntel,59.99880002,,,,,,,,,,,,0.5665,0,,,,,,,,,,,,,,,,,,,,,,,,-0.007244602,-0.391204088,0,0,0,,,,,,,CRATER,C,m,y,./images/CRATER.png,,,,,,,,,,,,,,,,,,,,z,0,0.5665,,,,,,,,0,116,116,3,1
,,,,,,,,,,,,,,,,,,37,2022-02-12_12h47.17.959,lexical_decision_task_DD_L4,2021.2.3,MacIntel,59.99880002,,,,,,,,,,,,0.8515,0,,,,,,,,,,,,,,,,,,,,,,,,-0.007244602,-0.391204088,0,0,0,,,,,,,STEAK,HB,m,y,./images/STEAKHB.png,,,,,,,,,,,,,,,,,,,,z,0,0.8515,,,,,,,,0,117,117,31,1
,,,,,,,,,,,,,,,,,,37,2022-02-12_12h47.17.959,lexical_decision_task_DD_L4,2021.2.3,MacIntel,59.99880002,,,,,,,,,,,,1.0168,1,,,,,,,,,,,,,,,,,,,,,,,,-0.007244602,-0.391204088,0,0,0,,,,,,,PILOT,LB,m,y,./images/PILOTLB.png,,,,,,,,,,,,,,,,,,,,m,1,1.0168,,,,,,,,0,118,118,50,1
,,,,,,,,,,,,,,,,,,37,2022-02-12_12h47.17.959,lexical_decision_task_DD_L4,2021.2.3,MacIntel,59.99880002,,,,,,,,,,,,0.525,1,,,,,,,,,,,,,,,,,,,,,,,,-0.007244602,-0.391204088,0,0,0,,,,,,,TOWEL,HB,m,y,./images/TOWELHB.png,,,,,,,,,,,,,,,,,,,,m,1,0.525,,,,,,,,0,119,119,1,1
,,,,,,,,,,,,,,,,,,37,2022-02-12_12h47.17.959,lexical_decision_task_DD_L4,2021.2.3,MacIntel,59.99880002,,,,,,,,,,,,1.2516,1,,,,,,,,,,,,,,,,,,,,,,,,-0.007244602,-0.391204088,0,0,0,,,,,,,LAGOON,LB,m,y,./images/LAGOONLB.png,,,,,,,,,,,,,,,,,,,,m,1,1.2516,,,,,,,,0,120,120,47,1
,,,,,,,,,,,,,,,,,,37,2022-02-12_12h47.17.959,lexical_decision_task_DD_L4,2021.2.3,MacIntel,59.99880002,,,,,,,,,,,,0.6091,1,,,,,,,,,,,,,,,,,,,,,,,,-0.007244602,-0.391204088,0,0,0,,,,,,,SKIING,LB,z,y,./images/SKIINGLB.png,,,,,,,,,,,,,,,,,,,,z,1,0.6091,,,,,,,,0,121,121,101,1
,,,,,,,,,,,,,,,,,,37,2022-02-12_12h47.17.959,lexical_decision_task_DD_L4,2021.2.3,MacIntel,59.99880002,,,,,,,,,,,,0.7009,1,,,,,,,,,,,,,,,,,,,,,,,,-0.007244602,-0.391204088,0,0,0,,,,,,,MONKEY,C,m,y,./images/MONKEY.png,,,,,,,,,,,,,,,,,,,,m,1,0.7009,,,,,,,,0,122,122,45,1
,,,,,,,,,,,,,,,,,,37,2022-02-12_12h47.17.959,lexical_decision_task_DD_L4,2021.2.3,MacIntel,59.99880002,,,,,,,,,,,,0.9211,1,,,,,,,,,,,,,,,,,,,,,,,,-0.007244602,-0.391204088,0,0,0,,,,,,,PASTA,LB,z,y,./images/PASTALB.png,,,,,,,,,,,,,,,,,,,,z,1,0.9211,,,,,,,,0,123,123,89,1
,,,,,,,,,,,,,,,,,,37,2022-02-12_12h47.17.959,lexical_decision_task_DD_L4,2021.2.3,MacIntel,59.99880002,,,,,,,,,,,,0.785,0,,,,,,,,,,,,,,,,,,,,,,,,-0.007244602,-0.391204088,0,0,0,,,,,,,STREAM,LB,m,y,./images/STREAMLB.png,,,,,,,,,,,,,,,,,,,,z,0,0.785,,,,,,,,0,124,124,41,1
,,,,,,,,,,,,,,,,,,37,2022-02-12_12h47.17.959,lexical_decision_task_DD_L4,2021.2.3,MacIntel,59.99880002,,,,,,,,,,,,0.6172,1,,,,,,,,,,,,,,,,,,,,,,,,-0.007244602,-0.391204088,0,0,0,space,,,,,,CLOUD,LB,m,y,./images/CLOUDLB.png,0.653,,,,,,,,,,,,,,,,,,,m,1,0.6172,,,,,,,,0,125,125,26,1
,,,,,,,,,,,,,,,,,,37,2022-02-12_12h47.17.959,lexical_decision_task_DD_L4,2021.2.3,MacIntel,59.99880002,,,,,,,,,,,,0.7507,1,,,,,,,,,,,,,,,,,,,,,,,,-0.007244602,-0.391204088,0,0,0,,,,,,,STORM,C,z,y,./images/STORM.png,,,,,,,,,,,,,,,,,,,,z,1,0.7507,,,,,,,,0,126,126,114,1
,,,,,,,,,,,,,,,,,,37,2022-02-12_12h47.17.959,lexical_decision_task_DD_L4,2021.2.3,MacIntel,59.99880002,,,,,,,,,,,,0.4884,0,,,,,,,,,,,,,,,,,,,,,,,,-0.007244602,-0.391204088,0,0,0,,,,,,,GRANNY,LB,m,y,./images/GRANNYLB.png,,,,,,,,,,,,,,,,,,,,z,0,0.4884,,,,,,,,0,127,127,20,1
,,,,,,,,,,,,,,,,,,37,2022-02-12_12h47.17.959,lexical_decision_task_DD_L4,2021.2.3,MacIntel,59.99880002,,,,,,,,,,,,0.5194,0,,,,,,,,,,,,,,,,,,,,,,,,-0.007244602,-0.391204088,0,0,0,,,,,,,BROOM,C,m,y,./images/BROOM.png,,,,,,,,,,,,,,,,,,,,z,0,0.5194,,,,,,,,0,128,128,78,1
,,,,,,,,,,,,,,,,,,37,2022-02-12_12h47.17.959,lexical_decision_task_DD_L4,2021.2.3,MacIntel,59.99880002,,,,,,,,,,,,0.7671,0,,,,,,,,,,,,,,,,,,,,,,,,-0.007244602,-0.391204088,0,0,0,,,,,,,PARCEL,C,m,y,./images/PARCEL.png,,,,,,,,,,,,,,,,,,,,z,0,0.7671,,,,,,,,0,129,129,18,1
,,,,,,,,,,,,,,,,,,37,2022-02-12_12h47.17.959,lexical_decision_task_DD_L4,2021.2.3,MacIntel,59.99880002,,,,,,,,,,,,0.8511,1,,,,,,,,,,,,,,,,,,,,,,,,-0.007244602,-0.391204088,0,0,0,,,,,,,MUMMY,HB,m,y,./images/MUMMYHB.png,,,,,,,,,,,,,,,,,,,,m,1,0.8511,,,,,,,,0,130,130,46,1
,,,,,,,,,,,,,,,,,,37,2022-02-12_12h47.17.959,lexical_decision_task_DD_L4,2021.2.3,MacIntel,59.99880002,,,,,,,,,,,,0.7177,0,,,,,,,,,,,,,,,,,,,,,,,,-0.007244602,-0.391204088,0,0,0,,,,,,,ARROW,C,m,y,./images/ARROW.png,,,,,,,,,,,,,,,,,,,,z,0,0.7177,,,,,,,,0,131,131,69,1
,,,,,,,,,,,,,,,,,,37,2022-02-12_12h47.17.959,lexical_decision_task_DD_L4,2021.2.3,MacIntel,59.99880002,,,,,,,,,,,,0.5658,0,,,,,,,,,,,,,,,,,,,,,,,,-0.007244602,-0.391204088,0,0,0,,,,,,,BEARD,LB,z,y,./images/BEARDLB.png,,,,,,,,,,,,,,,,,,,,m,0,0.5658,,,,,,,,0,132,132,86,1
,,,,,,,,,,,,,,,,,,37,2022-02-12_12h47.17.959,lexical_decision_task_DD_L4,2021.2.3,MacIntel,59.99880002,,,,,,,,,,,,0.8774,0,,,,,,,,,,,,,,,,,,,,,,,,-0.007244602,-0.391204088,0,0,0,,,,,,,CURRY,C,m,y,./images/CURRY.png,,,,,,,,,,,,,,,,,,,,z,0,0.8774,,,,,,,,0,133,133,60,1
,,,,,,,,,,,,,,,,,,37,2022-02-12_12h47.17.959,lexical_decision_task_DD_L4,2021.2.3,MacIntel,59.99880002,,,,,,,,,,,,0.9684,1,,,,,,,,,,,,,,,,,,,,,,,,-0.007244602,-0.391204088,0,0,0,,,,,,,BONNET,LB,z,y,./images/BONNETLB.png,,,,,,,,,,,,,,,,,,,,z,1,0.9684,,,,,,,,0,134,134,95,1
,,,,,,,,,,,,,,,,,,37,2022-02-12_12h47.17.959,lexical_decision_task_DD_L4,2021.2.3,MacIntel,59.99880002,,,,,,,,,,,,0.7995,1,,,,,,,,,,,,,,,,,,,,,,,,-0.007244602,-0.391204088,0,0,0,,,,,,,VALLEY,LB,m,y,./images/VALLEYLB.png,,,,,,,,,,,,,,,,,,,,m,1,0.7995,,,,,,,,0,135,135,68,1
,,,,,,,,,,,,,,,,,,37,2022-02-12_12h47.17.959,lexical_decision_task_DD_L4,2021.2.3,MacIntel,59.99880002,,,,,,,,,,,,0.6347,1,,,,,,,,,,,,,,,,,,,,,,,,-0.007244602,-0.391204088,0,0,0,,,,,,,SHELF,C,z,y,./images/SHELF.png,,,,,,,,,,,,,,,,,,,,z,1,0.6347,,,,,,,,0,136,136,123,1
,,,,,,,,,,,,,,,,,,37,2022-02-12_12h47.17.959,lexical_decision_task_DD_L4,2021.2.3,MacIntel,59.99880002,,,,,,,,,,,,0.7838,1,,,,,,,,,,,,,,,,,,,,,,,,-0.007244602,-0.391204088,0,0,0,,,,,,,FENCE,LB,m,y,./images/FENCELB.png,,,,,,,,,,,,,,,,,,,,m,1,0.7838,,,,,,,,0,137,137,14,1
,,,,,,,,,,,,,,,,,,37,2022-02-12_12h47.17.959,lexical_decision_task_DD_L4,2021.2.3,MacIntel,59.99880002,,,,,,,,,,,,0.6328,1,,,,,,,,,,,,,,,,,,,,,,,,-0.007244602,-0.391204088,0,0,0,,,,,,,BISHOP,HB,m,y,./images/BISHOPHB.png,,,,,,,,,,,,,,,,,,,,m,1,0.6328,,,,,,,,0,138,138,49,1
,,,,,,,,,,,,,,,,,,37,2022-02-12_12h47.17.959,lexical_decision_task_DD_L4,2021.2.3,MacIntel,59.99880002,,,,,,,,,,,,0.5519,1,,,,,,,,,,,,,,,,,,,,,,,,-0.007244602,-0.391204088,0,0,0,,,,,,,FOLDER,C,z,y,./images/FOLDER.png,,,,,,,,,,,,,,,,,,,,z,1,0.5519,,,,,,,,0,139,139,126,1
,,,,,,,,,,,,,,,,,,37,2022-02-12_12h47.17.959,lexical_decision_task_DD_L4,2021.2.3,MacIntel,59.99880002,,,,,,,,,,,,0.667,1,,,,,,,,,,,,,,,,,,,,,,,,-0.007244602,-0.391204088,0,0,0,,,,,,,TULIP,LB,z,y,./images/TULIPLB.png,,,,,,,,,,,,,,,,,,,,z,1,0.667,,,,,,,,0,140,140,92,1
,,,,,,,,,,,,,,,,,,37,2022-02-12_12h47.17.959,lexical_decision_task_DD_L4,2021.2.3,MacIntel,59.99880002,,,,,,,,,,,,0.7381,1,,,,,,,,,,,,,,,,,,,,,,,,-0.007244602,-0.391204088,0,0,0,,,,,,,PEBBLE,HB,m,y,./images/PEBBLEHB.png,,,,,,,,,,,,,,,,,,,,m,1,0.7381,,,,,,,,0,141,141,82,1
,,,,,,,,,,,,,,,,,,37,2022-02-12_12h47.17.959,lexical_decision_task_DD_L4,2021.2.3,MacIntel,59.99880002,,,,,,,,,,,,0.8536,0,,,,,,,,,,,,,,,,,,,,,,,,-0.007244602,-0.391204088,0,0,0,,,,,,,CLIFF,LB,m,y,./images/CLIFFLB.png,,,,,,,,,,,,,,,,,,,,z,0,0.8536,,,,,,,,0,142,142,8,1
,,,,,,,,,,,,,,,,,,37,2022-02-12_12h47.17.959,lexical_decision_task_DD_L4,2021.2.3,MacIntel,59.99880002,,,,,,,,,,,,0.5197,1,,,,,,,,,,,,,,,,,,,,,,,,-0.007244602,-0.391204088,0,0,0,,,,,,,DONKEY,HB,m,y,./images/DONKEYHB.png,,,,,,,,,,,,,,,,,,,,m,1,0.5197,,,,,,,,0,143,143,19,1
,,,,,,,,,,,,,,,,,,37,2022-02-12_12h47.17.959,lexical_decision_task_DD_L4,2021.2.3,MacIntel,59.99880002,,,,,,,,,,,,0.6829,1,,,,,,,,,,,,,,,,,,,,,,,,-0.007244602,-0.391204088,0,0,0,,,,,,,GREASE,C,z,y,./images/GREASE.png,,,,,,,,,,,,,,,,,,,,z,1,0.6829,,,,,,,,0,144,144,99,1
,,,,,,,,,,,,,,,,,,37,2022-02-12_12h47.17.959,lexical_decision_task_DD_L4,2021.2.3,MacIntel,59.99880002,,,,,,,,,,,,0.5851,1,,,,,,,,,,,,,,,,,,,,,,,,-0.007244602,-0.391204088,0,0,0,,,,,,,SHORE,C,z,y,./images/SHORE.png,,,,,,,,,,,,,,,,,,,,z,1,0.5851,,,,,,,,0,145,145,96,1
,,,,,,,,,,,,,,,,,,37,2022-02-12_12h47.17.959,lexical_decision_task_DD_L4,2021.2.3,MacIntel,59.99880002,,,,,,,,,,,,0.5037,0,,,,,,,,,,,,,,,,,,,,,,,,-0.007244602,-0.391204088,0,0,0,,,,,,,CRUST,HB,z,y,./images/CRUSTHB.png,,,,,,,,,,,,,,,,,,,,m,0,0.5037,,,,,,,,0,146,146,163,1
,,,,,,,,,,,,,,,,,,37,2022-02-12_12h47.17.959,lexical_decision_task_DD_L4,2021.2.3,MacIntel,59.99880002,,,,,,,,,,,,0.7382,1,,,,,,,,,,,,,,,,,,,,,,,,-0.007244602,-0.391204088,0,0,0,,,,,,,CARPET,LB,z,y,./images/CARPETLB.png,,,,,,,,,,,,,,,,,,,,z,1,0.7382,,,,,,,,0,147,147,137,1
,,,,,,,,,,,,,,,,,,37,2022-02-12_12h47.17.959,lexical_decision_task_DD_L4,2021.2.3,MacIntel,59.99880002,,,,,,,,,,,,0.6506,0,,,,,,,,,,,,,,,,,,,,,,,,-0.007244602,-0.391204088,0,0,0,,,,,,,SWEAT,C,z,y,./images/SWEAT.png,,,,,,,,,,,,,,,,,,,,m,0,0.6506,,,,,,,,0,148,148,150,1
,,,,,,,,,,,,,,,,,,37,2022-02-12_12h47.17.959,lexical_decision_task_DD_L4,2021.2.3,MacIntel,59.99880002,,,,,,,,,,,,0.7837,1,,,,,,,,,,,,,,,,,,,,,,,,-0.007244602,-0.391204088,0,0,0,,,,,,,WALNUT,C,m,y,./images/WALNUT.png,,,,,,,,,,,,,,,,,,,,m,1,0.7837,,,,,,,,0,149,149,0,1
,,,,,,,,,,,,,,,,,,37,2022-02-12_12h47.17.959,lexical_decision_task_DD_L4,2021.2.3,MacIntel,59.99880002,,,,,,,,,,,,0.7507,0,,,,,,,,,,,,,,,,,,,,,,,,-0.007244602,-0.391204088,0,0,0,,,,,,,PARADE,LB,m,y,./images/PARADELB.png,,,,,,,,,,,,,,,,,,,,z,0,0.7507,,,,,,,,0,150,150,17,1
,,,,,,,,,,,,,,,,,,37,2022-02-12_12h47.17.959,lexical_decision_task_DD_L4,2021.2.3,MacIntel,59.99880002,,,,,,,,,,,,0.8008,0,,,,,,,,,,,,,,,,,,,,,,,,-0.007244602,-0.391204088,0,0,0,,,,,,,LADDER,LB,z,y,./images/LADDERLB.png,,,,,,,,,,,,,,,,,,,,m,0,0.8008,,,,,,,,0,151,151,122,1
,,,,,,,,,,,,,,,,,,37,2022-02-12_12h47.17.959,lexical_decision_task_DD_L4,2021.2.3,MacIntel,59.99880002,,,,,,,,,,,,0.6338,1,,,,,,,,,,,,,,,,,,,,,,,,-0.007244602,-0.391204088,0,0,0,,,,,,,FLASK,C,m,y,./images/FLASK.png,,,,,,,,,,,,,,,,,,,,m,1,0.6338,,,,,,,,0,152,152,72,1
,,,,,,,,,,,,,,,,,,37,2022-02-12_12h47.17.959,lexical_decision_task_DD_L4,2021.2.3,MacIntel,59.99880002,,,,,,,,,,,,0.6004,1,,,,,,,,,,,,,,,,,,,,,,,,-0.007244602,-0.391204088,0,0,0,,,,,,,SUNSET,HB,z,y,./images/SUNSETHB.png,,,,,,,,,,,,,,,,,,,,z,1,0.6004,,,,,,,,0,153,153,166,1
,,,,,,,,,,,,,,,,,,37,2022-02-12_12h47.17.959,lexical_decision_task_DD_L4,2021.2.3,MacIntel,59.99880002,,,,,,,,,,,,0.6854,0,,,,,,,,,,,,,,,,,,,,,,,,-0.007244602,-0.391204088,0,0,0,,,,,,,MAMMAL,LB,m,y,./images/MAMMALLB.png,,,,,,,,,,,,,,,,,,,,z,0,0.6854,,,,,,,,0,154,154,62,1
,,,,,,,,,,,,,,,,,,37,2022-02-12_12h47.17.959,lexical_decision_task_DD_L4,2021.2.3,MacIntel,59.99880002,,,,,,,,,,,,0.5757,1,,,,,,,,,,,,,,,,,,,,,,,,-0.007244602,-0.391204088,0,0,0,,,,,,,PACKET,LB,z,y,./images/PACKETLB.png,,,,,,,,,,,,,,,,,,,,z,1,0.5757,,,,,,,,0,155,155,140,1
