key_resp.keys,instr_done_touch.x,instr_done_touch.y,instr_done_touch.leftButton,instr_done_touch.midButton,instr_done_touch.rightButton,instr_done_touch.clicked_name,instruction_pages.thisRepN,instruction_pages.thisTrialN,instruction_pages.thisN,instruction_pages.thisIndex,instruction_pages.ran,pageN,phase,instruct_text,has_image,instruct_image,participant,age,date,expName,psychopyVersion,OS,frameRate,response.keys,response.corr,response.rt,touch_resp.x,touch_resp.y,touch_resp.leftButton,touch_resp.midButton,touch_resp.rightButton,touch_resp.time,touch_resp.clicked_name,rt,corr,practrials.thisRepN,practrials.thisTrialN,practrials.thisN,practrials.thisIndex,practrials.ran,TrialID,Target,corrAns,end_of_practice_trials_pages.thisRepN,end_of_practice_trials_pages.thisTrialN,end_of_practice_trials_pages.thisN,end_of_practice_trials_pages.thisIndex,end_of_practice_trials_pages.ran,key_resp_2.keys,key_resp_2.corr,key_resp_2.rt,targ_click.x,targ_click.y,targ_click.leftButton,targ_click.midButton,targ_click.rightButton,targ_click.time,targ_click.clicked_name,break_done_touch.x,break_done_touch.y,break_done_touch.leftButton,break_done_touch.midButton,break_done_touch.rightButton,break_done_keyboard.keys,maintrials.thisRepN,maintrials.thisTrialN,maintrials.thisN,maintrials.thisIndex,maintrials.ran,string,blur,study,lex,stim_path,break_done_keyboard.rt,mouse_2.x,mouse_2.y,mouse_2.leftButton,mouse_2.midButton,mouse_2.rightButton,mouse_2.clicked_name,slider.response,slider.rt,trials.thisRepN,trials.thisTrialN,trials.thisN,trials.thisIndex,trials.ran,test_instructions.thisRepN,test_instructions.thisTrialN,test_instructions.thisN,test_instructions.thisIndex,test_instructions.ran,key_resp.rt,key_resp_3.keys,key_resp_3.corr,key_resp_3.rt,test_click.x,test_click.y,test_click.leftButton,test_click.midButton,test_click.rightButton,test_click.time,test_click.clicked_name,test_phase.thisRepN,test_phase.thisTrialN,test_phase.thisN,test_phase.thisIndex,test_phase.ran
,0.055555556,-0.403333333,1,0,0,instr_done_button,0,0,0,0,1,1,instructions,"INSTRUCTIONS
At the start of each trial, look at the plus sign  (+) in the center of the screen.  This tells you that a trial is about to begin and where to look. Second, the plus sign will disappear and a string of letters will appear. Your task is to determine if the string of letters is a word or not. If the item is a word press the M key (on keyboard)  or touch the word button (phone/tablet).  If the item is not a word,  press the  Z key (on keyboard)  or touch the nonword button (on phone/tablet). 
Press the space bar or touch  continue.",0,,,19,2022-02-12_12h35.28.818,lexical_decision_task_DD_L4,2021.2.3,MacIntel,5.494505495,,,,,,,,,,,,,,,,,,,,,,,,,,,,,,,,,,,,,,,,,,,,,,,,,,,,,,,,,,,,,,,,,,,,,,,,,,,,,,,,,,,,,,
,0.063333333,-0.4,1,0,0,instr_done_button,0,1,1,1,1,2,instructions,"If your device has a keyboard, press the 'Z' key for nonwords and the 'M' key for words.





Press the space bar or touch the button below to continue.",0,keyboard-example.gif,,19,2022-02-12_12h35.28.818,lexical_decision_task_DD_L4,2021.2.3,MacIntel,5.494505495,,,,,,,,,,,,,,,,,,,,,,,,,,,,,,,,,,,,,,,,,,,,,,,,,,,,,,,,,,,,,,,,,,,,,,,,,,,,,,,,,,,,,,
,0.061111111,-0.421111111,1,0,0,instr_done_button,0,2,2,2,1,3,instructions,"If you are using a touchscreen only device, use the buttons on the screen. Do not use the mouse.





Press the space bar or touch the button below to continue.",0,touchscreen-example.gif,,19,2022-02-12_12h35.28.818,lexical_decision_task_DD_L4,2021.2.3,MacIntel,5.494505495,,,,,,,,,,,,,,,,,,,,,,,,,,,,,,,,,,,,,,,,,,,,,,,,,,,,,,,,,,,,,,,,,,,,,,,,,,,,,,,,,,,,,,
,0.028888889,-0.415555556,1,0,0,instr_done_button,0,3,3,3,1,4,instructions,"It is very important that you respond as quickly and accurately as possible, as each letter string will only be on the screen for two seconds. If you do not respond within this time, the message 'Too slow!' will be displayed and the experiment will progress to the next letter string. The first 20 trials will be practice trials and you will receive feedback on your answers. 

Press the space bar or touch the button below to start the practice trials.",0,,,19,2022-02-12_12h35.28.818,lexical_decision_task_DD_L4,2021.2.3,MacIntel,5.494505495,,,,,,,,,,,,,,,,,,,,,,,,,,,,,,,,,,,,,,,,,,,,,,,,,,,,,,,,,,,,,,,,,,,,,,,,,,,,,,,,,,,,,,
,,,,,,,,,,,,,,,,,,19,2022-02-12_12h35.28.818,lexical_decision_task_DD_L4,2021.2.3,MacIntel,5.494505495,m,1,2.509,,,,,,,,2.509,1,0,0,0,4,1,1001,SQUEAK,m,,,,,,,,,,,,,,,,,,,,,,,,,,,,,,,,,,,,,,,,,,,,,,,,,,,,,,,,,,,,,,,,,,
,,,,,,,,,,,,,,,,,,19,2022-02-12_12h35.28.818,lexical_decision_task_DD_L4,2021.2.3,MacIntel,5.494505495,z,1,1.319,,,,,,,,1.319,1,0,1,1,12,1,1001,SPRINY,z,,,,,,,,,,,,,,,,,,,,,,,,,,,,,,,,,,,,,,,,,,,,,,,,,,,,,,,,,,,,,,,,,,
,,,,,,,,,,,,,,,,,,19,2022-02-12_12h35.28.818,lexical_decision_task_DD_L4,2021.2.3,MacIntel,5.494505495,m,1,0.796,,,,,,,,0.796,1,0,2,2,2,1,1001,ALMOND,m,,,,,,,,,,,,,,,,,,,,,,,,,,,,,,,,,,,,,,,,,,,,,,,,,,,,,,,,,,,,,,,,,,
,,,,,,,,,,,,,,,,,,19,2022-02-12_12h35.28.818,lexical_decision_task_DD_L4,2021.2.3,MacIntel,5.494505495,m,0,1.316,,,,,,,,1.316,0,0,3,3,14,1,1001,THRALE,z,,,,,,,,,,,,,,,,,,,,,,,,,,,,,,,,,,,,,,,,,,,,,,,,,,,,,,,,,,,,,,,,,,
,,,,,,,,,,,,,,,,,,19,2022-02-12_12h35.28.818,lexical_decision_task_DD_L4,2021.2.3,MacIntel,5.494505495,m,0,1.04,,,,,,,,1.04,0,0,4,4,10,1,1001,INLADE,z,,,,,,,,,,,,,,,,,,,,,,,,,,,,,,,,,,,,,,,,,,,,,,,,,,,,,,,,,,,,,,,,,,
,,,,,,,,,,,,,,,,,,19,2022-02-12_12h35.28.818,lexical_decision_task_DD_L4,2021.2.3,MacIntel,5.494505495,z,1,1.215,,,,,,,,1.215,1,0,5,5,13,1,1001,ROUPET,z,,,,,,,,,,,,,,,,,,,,,,,,,,,,,,,,,,,,,,,,,,,,,,,,,,,,,,,,,,,,,,,,,,
,,,,,,,,,,,,,,,,,,19,2022-02-12_12h35.28.818,lexical_decision_task_DD_L4,2021.2.3,MacIntel,5.494505495,m,1,0.832,,,,,,,,0.832,1,0,6,6,0,1,1001,UTOPIA,m,,,,,,,,,,,,,,,,,,,,,,,,,,,,,,,,,,,,,,,,,,,,,,,,,,,,,,,,,,,,,,,,,,
,,,,,,,,,,,,,,,,,,19,2022-02-12_12h35.28.818,lexical_decision_task_DD_L4,2021.2.3,MacIntel,5.494505495,m,1,0.803,,,,,,,,0.803,1,0,7,7,3,1,1001,MATRIX,m,,,,,,,,,,,,,,,,,,,,,,,,,,,,,,,,,,,,,,,,,,,,,,,,,,,,,,,,,,,,,,,,,,
,,,,,,,,,,,,,,,,,,19,2022-02-12_12h35.28.818,lexical_decision_task_DD_L4,2021.2.3,MacIntel,5.494505495,m,1,1.146,,,,,,,,1.146,1,0,8,8,7,1,1001,VOLUME,m,,,,,,,,,,,,,,,,,,,,,,,,,,,,,,,,,,,,,,,,,,,,,,,,,,,,,,,,,,,,,,,,,,
,,,,,,,,,,,,,,,,,,19,2022-02-12_12h35.28.818,lexical_decision_task_DD_L4,2021.2.3,MacIntel,5.494505495,z,1,0.724,,,,,,,,0.724,1,0,9,9,15,1,1001,WHAISE,z,,,,,,,,,,,,,,,,,,,,,,,,,,,,,,,,,,,,,,,,,,,,,,,,,,,,,,,,,,,,,,,,,,
,,,,,,,,,,,,,,,,,,19,2022-02-12_12h35.28.818,lexical_decision_task_DD_L4,2021.2.3,MacIntel,5.494505495,m,1,1.055,,,,,,,,1.055,1,0,10,10,5,1,1001,OBTAIN,m,,,,,,,,,,,,,,,,,,,,,,,,,,,,,,,,,,,,,,,,,,,,,,,,,,,,,,,,,,,,,,,,,,
,,,,,,,,,,,,,,,,,,19,2022-02-12_12h35.28.818,lexical_decision_task_DD_L4,2021.2.3,MacIntel,5.494505495,m,1,0.604,,,,,,,,0.604,1,0,11,11,1,1,1001,ADJUST,m,,,,,,,,,,,,,,,,,,,,,,,,,,,,,,,,,,,,,,,,,,,,,,,,,,,,,,,,,,,,,,,,,,
,,,,,,,,,,,,,,,,,,19,2022-02-12_12h35.28.818,lexical_decision_task_DD_L4,2021.2.3,MacIntel,5.494505495,z,1,1.038,,,,,,,,1.038,1,0,12,12,8,1,1001,ASLERT,z,,,,,,,,,,,,,,,,,,,,,,,,,,,,,,,,,,,,,,,,,,,,,,,,,,,,,,,,,,,,,,,,,,
,,,,,,,,,,,,,,,,,,19,2022-02-12_12h35.28.818,lexical_decision_task_DD_L4,2021.2.3,MacIntel,5.494505495,m,1,0.606,,,,,,,,0.606,1,0,13,13,6,1,1001,ZOMBIE,m,,,,,,,,,,,,,,,,,,,,,,,,,,,,,,,,,,,,,,,,,,,,,,,,,,,,,,,,,,,,,,,,,,
,,,,,,,,,,,,,,,,,,19,2022-02-12_12h35.28.818,lexical_decision_task_DD_L4,2021.2.3,MacIntel,5.494505495,z,1,0.658,,,,,,,,0.658,1,0,14,14,11,1,1001,RASHET,z,,,,,,,,,,,,,,,,,,,,,,,,,,,,,,,,,,,,,,,,,,,,,,,,,,,,,,,,,,,,,,,,,,
,,,,,,,,,,,,,,,,,,19,2022-02-12_12h35.28.818,lexical_decision_task_DD_L4,2021.2.3,MacIntel,5.494505495,z,1,0.939,,,,,,,,0.939,1,0,15,15,9,1,1001,FARINY,z,,,,,,,,,,,,,,,,,,,,,,,,,,,,,,,,,,,,,,,,,,,,,,,,,,,,,,,,,,,,,,,,,,
,0.028888889,-0.415555556,1,0,0,instr_done_button,,,,,,1,end_of_practice,"You have completed the practice trials. During the experimental trials, you will not receive feedback. 
Before you begin, please ensure that you are in a comfortable and quiet location and will not be disturbed for about 15 minutes, as we cannot use your data if you do not complete all the trials. 
 When you are ready to start the experimental trials, please press space or touch the button below.",,,,19,2022-02-12_12h35.28.818,lexical_decision_task_DD_L4,2021.2.3,MacIntel,5.494505495,,,,,,,,,,,,,,,,,,,,,0,0,0,0,1,,,,,,,,,,,,,,,,,,,,,,,,,,,,,,,,,,,,,,,,,,,,,,,,,,,,,,,,,,,,,
,,,,,,,,,,,,,,,,,,19,2022-02-12_12h35.28.818,lexical_decision_task_DD_L4,2021.2.3,MacIntel,5.494505495,,,,,,,,,,,2.049,1,,,,,,,,,,,,,,z,1,2.049,,,,,,,,0.028888889,-0.415555556,0,0,0,,0,0,0,143,1,MONGS,LB,old,z,./images/MONGSLB.png,,,,,,,,,,,,,,,,,,,,,,,,,,,,,,,,,,,
,,,,,,,,,,,,,,,,,,19,2022-02-12_12h35.28.818,lexical_decision_task_DD_L4,2021.2.3,MacIntel,5.494505495,,,,,,,,,,,0.726,1,,,,,,,,,,,,,,m,1,0.726,,,,,,,,0.028888889,-0.415555556,0,0,0,,0,1,1,77,1,WHEEL,LB,old,m,./images/WHEELLB.png,,,,,,,,,,,,,,,,,,,,,,,,,,,,,,,,,,,
,,,,,,,,,,,,,,,,,,19,2022-02-12_12h35.28.818,lexical_decision_task_DD_L4,2021.2.3,MacIntel,5.494505495,,,,,,,,,,,0.762,1,,,,,,,,,,,,,,m,1,0.762,,,,,,,,0.028888889,-0.415555556,0,0,0,,0,2,2,39,1,CANDY,C,old,m,./images/CANDY.png,,,,,,,,,,,,,,,,,,,,,,,,,,,,,,,,,,,
,,,,,,,,,,,,,,,,,,19,2022-02-12_12h35.28.818,lexical_decision_task_DD_L4,2021.2.3,MacIntel,5.494505495,,,,,,,,,,,1.813,1,,,,,,,,,,,,,,z,1,1.813,,,,,,,,0.028888889,-0.415555556,0,0,0,,0,3,3,145,1,LAMEL,HB,old,z,./images/LAMELHB.png,,,,,,,,,,,,,,,,,,,,,,,,,,,,,,,,,,,
,,,,,,,,,,,,,,,,,,19,2022-02-12_12h35.28.818,lexical_decision_task_DD_L4,2021.2.3,MacIntel,5.494505495,,,,,,,,,,,0.837,1,,,,,,,,,,,,,,m,1,0.837,,,,,,,,0.028888889,-0.415555556,0,0,0,,0,4,4,1,1,TOWEL,HB,old,m,./images/TOWELHB.png,,,,,,,,,,,,,,,,,,,,,,,,,,,,,,,,,,,
,,,,,,,,,,,,,,,,,,19,2022-02-12_12h35.28.818,lexical_decision_task_DD_L4,2021.2.3,MacIntel,5.494505495,,,,,,,,,,,0.652,1,,,,,,,,,,,,,,m,1,0.652,,,,,,,,0.028888889,-0.415555556,0,0,0,,0,5,5,50,1,PILOT,LB,old,m,./images/PILOTLB.png,,,,,,,,,,,,,,,,,,,,,,,,,,,,,,,,,,,
,,,,,,,,,,,,,,,,,,19,2022-02-12_12h35.28.818,lexical_decision_task_DD_L4,2021.2.3,MacIntel,5.494505495,,,,,,,,,,,0.653,1,,,,,,,,,,,,,,z,1,0.653,,,,,,,,0.028888889,-0.415555556,0,0,0,,0,6,6,129,1,PRANS,C,old,z,./images/PRANS.png,,,,,,,,,,,,,,,,,,,,,,,,,,,,,,,,,,,
,,,,,,,,,,,,,,,,,,19,2022-02-12_12h35.28.818,lexical_decision_task_DD_L4,2021.2.3,MacIntel,5.494505495,,,,,,,,,,,0.611,1,,,,,,,,,,,,,,m,1,0.611,,,,,,,,0.028888889,-0.415555556,0,0,0,,0,7,7,42,1,CHAIN,C,old,m,./images/CHAIN.png,,,,,,,,,,,,,,,,,,,,,,,,,,,,,,,,,,,
,,,,,,,,,,,,,,,,,,19,2022-02-12_12h35.28.818,lexical_decision_task_DD_L4,2021.2.3,MacIntel,5.494505495,,,,,,,,,,,0.731,1,,,,,,,,,,,,,,m,1,0.731,,,,,,,,0.028888889,-0.415555556,0,0,0,,0,8,8,14,1,FENCE,LB,old,m,./images/FENCELB.png,,,,,,,,,,,,,,,,,,,,,,,,,,,,,,,,,,,
,,,,,,,,,,,,,,,,,,19,2022-02-12_12h35.28.818,lexical_decision_task_DD_L4,2021.2.3,MacIntel,5.494505495,,,,,,,,,,,0.804,1,,,,,,,,,,,,,,z,1,0.804,,,,,,,,0.028888889,-0.415555556,0,0,0,,0,9,9,130,1,CRILL,HB,old,z,./images/CRILLHB.png,,,,,,,,,,,,,,,,,,,,,,,,,,,,,,,,,,,
,,,,,,,,,,,,,,,,,,19,2022-02-12_12h35.28.818,lexical_decision_task_DD_L4,2021.2.3,MacIntel,5.494505495,,,,,,,,,,,0.529,1,,,,,,,,,,,,,,m,1,0.529,,,,,,,,0.028888889,-0.415555556,0,0,0,,0,10,10,22,1,CLOWN,HB,old,m,./images/CLOWNHB.png,,,,,,,,,,,,,,,,,,,,,,,,,,,,,,,,,,,
,,,,,,,,,,,,,,,,,,19,2022-02-12_12h35.28.818,lexical_decision_task_DD_L4,2021.2.3,MacIntel,5.494505495,,,,,,,,,,,0.812,1,,,,,,,,,,,,,,m,1,0.812,,,,,,,,0.028888889,-0.415555556,0,0,0,,0,11,11,20,1,GRANNY,LB,old,m,./images/GRANNYLB.png,,,,,,,,,,,,,,,,,,,,,,,,,,,,,,,,,,,
,,,,,,,,,,,,,,,,,,19,2022-02-12_12h35.28.818,lexical_decision_task_DD_L4,2021.2.3,MacIntel,5.494505495,,,,,,,,,,,0.912,1,,,,,,,,,,,,,,m,1,0.912,,,,,,,,0.028888889,-0.415555556,0,0,0,,0,12,12,49,1,BISHOP,HB,old,m,./images/BISHOPHB.png,,,,,,,,,,,,,,,,,,,,,,,,,,,,,,,,,,,
,,,,,,,,,,,,,,,,,,19,2022-02-12_12h35.28.818,lexical_decision_task_DD_L4,2021.2.3,MacIntel,5.494505495,,,,,,,,,,,0.652,1,,,,,,,,,,,,,,m,1,0.652,,,,,,,,0.028888889,-0.415555556,0,0,0,,0,13,13,13,1,BUNNY,HB,old,m,./images/BUNNYHB.png,,,,,,,,,,,,,,,,,,,,,,,,,,,,,,,,,,,
,,,,,,,,,,,,,,,,,,19,2022-02-12_12h35.28.818,lexical_decision_task_DD_L4,2021.2.3,MacIntel,5.494505495,,,,,,,,,,,1.112,1,,,,,,,,,,,,,,z,1,1.112,,,,,,,,0.028888889,-0.415555556,0,0,0,,0,14,14,100,1,DRIBS,HB,old,z,./images/DRIBSHB.png,,,,,,,,,,,,,,,,,,,,,,,,,,,,,,,,,,,
,,,,,,,,,,,,,,,,,,19,2022-02-12_12h35.28.818,lexical_decision_task_DD_L4,2021.2.3,MacIntel,5.494505495,,,,,,,,,,,0.773,1,,,,,,,,,,,,,,z,1,0.773,,,,,,,,0.028888889,-0.415555556,0,0,0,,0,15,15,155,1,CANGY,LB,old,z,./images/CANGYLB.png,,,,,,,,,,,,,,,,,,,,,,,,,,,,,,,,,,,
,,,,,,,,,,,,,,,,,,19,2022-02-12_12h35.28.818,lexical_decision_task_DD_L4,2021.2.3,MacIntel,5.494505495,,,,,,,,,,,0.621,1,,,,,,,,,,,,,,m,1,0.621,,,,,,,,0.028888889,-0.415555556,0,0,0,,0,16,16,16,1,GRAPE,HB,old,m,./images/GRAPEHB.png,,,,,,,,,,,,,,,,,,,,,,,,,,,,,,,,,,,
,,,,,,,,,,,,,,,,,,19,2022-02-12_12h35.28.818,lexical_decision_task_DD_L4,2021.2.3,MacIntel,5.494505495,,,,,,,,,,,0.755,1,,,,,,,,,,,,,,z,1,0.755,,,,,,,,0.028888889,-0.415555556,0,0,0,,0,17,17,113,1,LINEW,LB,old,z,./images/LINEWLB.png,,,,,,,,,,,,,,,,,,,,,,,,,,,,,,,,,,,
,,,,,,,,,,,,,,,,,,19,2022-02-12_12h35.28.818,lexical_decision_task_DD_L4,2021.2.3,MacIntel,5.494505495,,,,,,,,,,,0.796,1,,,,,,,,,,,,,,m,1,0.796,,,,,,,,0.028888889,-0.415555556,0,0,0,,0,18,18,52,1,DESERT,HB,old,m,./images/DESERTHB.png,,,,,,,,,,,,,,,,,,,,,,,,,,,,,,,,,,,
,,,,,,,,,,,,,,,,,,19,2022-02-12_12h35.28.818,lexical_decision_task_DD_L4,2021.2.3,MacIntel,5.494505495,,,,,,,,,,,0.75,1,,,,,,,,,,,,,,z,1,0.75,,,,,,,,0.028888889,-0.415555556,0,0,0,,0,19,19,98,1,BAMPS,LB,old,z,./images/BAMPSLB.png,,,,,,,,,,,,,,,,,,,,,,,,,,,,,,,,,,,
,,,,,,,,,,,,,,,,,,19,2022-02-12_12h35.28.818,lexical_decision_task_DD_L4,2021.2.3,MacIntel,5.494505495,,,,,,,,,,,0.79,0,,,,,,,,,,,,,,m,0,0.79,,,,,,,,0.028888889,-0.415555556,0,0,0,,0,20,20,166,1,SHORY,HB,old,z,./images/SHORYHB.png,,,,,,,,,,,,,,,,,,,,,,,,,,,,,,,,,,,
,,,,,,,,,,,,,,,,,,19,2022-02-12_12h35.28.818,lexical_decision_task_DD_L4,2021.2.3,MacIntel,5.494505495,,,,,,,,,,,0.806,1,,,,,,,,,,,,,,z,1,0.806,,,,,,,,0.028888889,-0.415555556,0,0,0,,0,21,21,97,1,CHIDS,HB,old,z,./images/CHIDSHB.png,,,,,,,,,,,,,,,,,,,,,,,,,,,,,,,,,,,
,,,,,,,,,,,,,,,,,,19,2022-02-12_12h35.28.818,lexical_decision_task_DD_L4,2021.2.3,MacIntel,5.494505495,,,,,,,,,,,1.057,1,,,,,,,,,,,,,,z,1,1.057,,,,,,,,0.028888889,-0.415555556,0,0,0,,0,22,22,115,1,MAWNS,HB,old,z,./images/MAWNSHB.png,,,,,,,,,,,,,,,,,,,,,,,,,,,,,,,,,,,
,,,,,,,,,,,,,,,,,,19,2022-02-12_12h35.28.818,lexical_decision_task_DD_L4,2021.2.3,MacIntel,5.494505495,,,,,,,,,,,0.946,1,,,,,,,,,,,,,,m,1,0.946,,,,,,,,0.028888889,-0.415555556,0,0,0,,0,23,23,31,1,STEAK,HB,old,m,./images/STEAKHB.png,,,,,,,,,,,,,,,,,,,,,,,,,,,,,,,,,,,
,,,,,,,,,,,,,,,,,,19,2022-02-12_12h35.28.818,lexical_decision_task_DD_L4,2021.2.3,MacIntel,5.494505495,,,,,,,,,,,0.842,1,,,,,,,,,,,,,,z,1,0.842,,,,,,,,0.028888889,-0.415555556,0,0,0,,0,24,24,102,1,DULLE,C,old,z,./images/DULLE.png,,,,,,,,,,,,,,,,,,,,,,,,,,,,,,,,,,,
,,,,,,,,,,,,,,,,,,19,2022-02-12_12h35.28.818,lexical_decision_task_DD_L4,2021.2.3,MacIntel,5.494505495,,,,,,,,,,,0.644,1,,,,,,,,,,,,,,m,1,0.644,,,,,,,,0.028888889,-0.415555556,0,0,0,,0,25,25,70,1,BANANA,HB,old,m,./images/BANANAHB.png,,,,,,,,,,,,,,,,,,,,,,,,,,,,,,,,,,,
,,,,,,,,,,,,,,,,,,19,2022-02-12_12h35.28.818,lexical_decision_task_DD_L4,2021.2.3,MacIntel,5.494505495,,,,,,,,,,,0.73,1,,,,,,,,,,,,,,z,1,0.73,,,,,,,,0.028888889,-0.415555556,0,0,0,,0,26,26,122,1,BLOOT,LB,old,z,./images/BLOOTLB.png,,,,,,,,,,,,,,,,,,,,,,,,,,,,,,,,,,,
,,,,,,,,,,,,,,,,,,19,2022-02-12_12h35.28.818,lexical_decision_task_DD_L4,2021.2.3,MacIntel,5.494505495,,,,,,,,,,,0.591,1,,,,,,,,,,,,,,m,1,0.591,,,,,,,,0.028888889,-0.415555556,0,0,0,,0,27,27,9,1,DIVER,C,old,m,./images/DIVER.png,,,,,,,,,,,,,,,,,,,,,,,,,,,,,,,,,,,
,,,,,,,,,,,,,,,,,,19,2022-02-12_12h35.28.818,lexical_decision_task_DD_L4,2021.2.3,MacIntel,5.494505495,,,,,,,,,,,0.719,1,,,,,,,,,,,,,,z,1,0.719,,,,,,,,0.028888889,-0.415555556,0,0,0,,0,28,28,117,1,STEEG,C,old,z,./images/STEEG.png,,,,,,,,,,,,,,,,,,,,,,,,,,,,,,,,,,,
,,,,,,,,,,,,,,,,,,19,2022-02-12_12h35.28.818,lexical_decision_task_DD_L4,2021.2.3,MacIntel,5.494505495,,,,,,,,,,,0.608,1,,,,,,,,,,,,,,m,1,0.608,,,,,,,,0.028888889,-0.415555556,0,0,0,,0,29,29,73,1,GLOVE,HB,old,m,./images/GLOVEHB.png,,,,,,,,,,,,,,,,,,,,,,,,,,,,,,,,,,,
,,,,,,,,,,,,,,,,,,19,2022-02-12_12h35.28.818,lexical_decision_task_DD_L4,2021.2.3,MacIntel,5.494505495,,,,,,,,,,,0.955,1,,,,,,,,,,,,,,z,1,0.955,,,,,,,,0.028888889,-0.415555556,0,0,0,,0,30,30,118,1,BAVEL,HB,old,z,./images/BAVELHB.png,,,,,,,,,,,,,,,,,,,,,,,,,,,,,,,,,,,
,,,,,,,,,,,,,,,,,,19,2022-02-12_12h35.28.818,lexical_decision_task_DD_L4,2021.2.3,MacIntel,5.494505495,,,,,,,,,,,0.762,1,,,,,,,,,,,,,,z,1,0.762,,,,,,,,0.028888889,-0.415555556,0,0,0,,0,31,31,140,1,DOVET,LB,old,z,./images/DOVETLB.png,,,,,,,,,,,,,,,,,,,,,,,,,,,,,,,,,,,
,,,,,,,,,,,,,,,,,,19,2022-02-12_12h35.28.818,lexical_decision_task_DD_L4,2021.2.3,MacIntel,5.494505495,,,,,,,,,,,0.713,1,,,,,,,,,,,,,,z,1,0.713,,,,,,,,0.028888889,-0.415555556,0,0,0,,0,32,32,114,1,RIKES,C,old,z,./images/RIKES.png,,,,,,,,,,,,,,,,,,,,,,,,,,,,,,,,,,,
,,,,,,,,,,,,,,,,,,19,2022-02-12_12h35.28.818,lexical_decision_task_DD_L4,2021.2.3,MacIntel,5.494505495,,,,,,,,,,,0.63,1,,,,,,,,,,,,,,m,1,0.63,,,,,,,,0.028888889,-0.415555556,0,0,0,,0,33,33,53,1,POSTER,LB,old,m,./images/POSTERLB.png,,,,,,,,,,,,,,,,,,,,,,,,,,,,,,,,,,,
,,,,,,,,,,,,,,,,,,19,2022-02-12_12h35.28.818,lexical_decision_task_DD_L4,2021.2.3,MacIntel,5.494505495,,,,,,,,,,,0.664,1,,,,,,,,,,,,,,m,1,0.664,,,,,,,,0.028888889,-0.415555556,0,0,0,,0,34,34,21,1,DANCER,C,old,m,./images/DANCER.png,,,,,,,,,,,,,,,,,,,,,,,,,,,,,,,,,,,
,,,,,,,,,,,,,,,,,,19,2022-02-12_12h35.28.818,lexical_decision_task_DD_L4,2021.2.3,MacIntel,5.494505495,,,,,,,,,,,0.957,1,,,,,,,,,,,,,,m,1,0.957,,,,,,,,0.028888889,-0.415555556,0,0,0,,0,35,35,65,1,SPINE,LB,old,m,./images/SPINELB.png,,,,,,,,,,,,,,,,,,,,,,,,,,,,,,,,,,,
,,,,,,,,,,,,,,,,,,19,2022-02-12_12h35.28.818,lexical_decision_task_DD_L4,2021.2.3,MacIntel,5.494505495,,,,,,,,,,,0.652,1,,,,,,,,,,,,,,z,1,0.652,,,,,,,,0.028888889,-0.415555556,0,0,0,,0,36,36,101,1,GLEET,LB,old,z,./images/GLEETLB.png,,,,,,,,,,,,,,,,,,,,,,,,,,,,,,,,,,,
,,,,,,,,,,,,,,,,,,19,2022-02-12_12h35.28.818,lexical_decision_task_DD_L4,2021.2.3,MacIntel,5.494505495,,,,,,,,,,,1.047,0,,,,,,,,,,,,,,z,0,1.047,,,,,,,,0.028888889,-0.415555556,0,0,0,,0,37,37,79,1,RULER,HB,old,m,./images/RULERHB.png,,,,,,,,,,,,,,,,,,,,,,,,,,,,,,,,,,,
,,,,,,,,,,,,,,,,,,19,2022-02-12_12h35.28.818,lexical_decision_task_DD_L4,2021.2.3,MacIntel,5.494505495,,,,,,,,,,,0.784,1,,,,,,,,,,,,,,m,1,0.784,,,,,,,,0.028888889,-0.415555556,0,0,0,,0,38,38,82,1,PEBBLE,HB,old,m,./images/PEBBLEHB.png,,,,,,,,,,,,,,,,,,,,,,,,,,,,,,,,,,,
,,,,,,,,,,,,,,,,,,19,2022-02-12_12h35.28.818,lexical_decision_task_DD_L4,2021.2.3,MacIntel,5.494505495,,,,,,,,,,,0.845,1,,,,,,,,,,,,,,z,1,0.845,,,,,,,,0.028888889,-0.415555556,0,0,0,,0,39,39,121,1,CEERS,HB,old,z,./images/CEERSHB.png,,,,,,,,,,,,,,,,,,,,,,,,,,,,,,,,,,,
,,,,,,,,,,,,,,,,,,19,2022-02-12_12h35.28.818,lexical_decision_task_DD_L4,2021.2.3,MacIntel,5.494505495,,,,,,,,,,,1.069,0,,,,,,,,,,,,,,m,0,1.069,,,,,,,,0.028888889,-0.415555556,0,0,0,,0,40,40,106,1,CLUMS,HB,old,z,./images/CLUMSHB.png,,,,,,,,,,,,,,,,,,,,,,,,,,,,,,,,,,,
,,,,,,,,,,,,,,,,,,19,2022-02-12_12h35.28.818,lexical_decision_task_DD_L4,2021.2.3,MacIntel,5.494505495,,,,,,,,,,,0.694,1,,,,,,,,,,,,,,z,1,0.694,,,,,,,,0.028888889,-0.415555556,0,0,0,space,0,41,41,149,1,VEASE,LB,old,z,./images/VEASELB.png,3.061,,,,,,,,,,,,,,,,,,,,,,,,,,,,,,,,,,
,,,,,,,,,,,,,,,,,,19,2022-02-12_12h35.28.818,lexical_decision_task_DD_L4,2021.2.3,MacIntel,5.494505495,,,,,,,,,,,0.57,1,,,,,,,,,,,,,,m,1,0.57,,,,,,,,0.028888889,-0.415555556,0,0,0,,0,42,42,45,1,MONKEY,C,old,m,./images/MONKEY.png,,,,,,,,,,,,,,,,,,,,,,,,,,,,,,,,,,,
,,,,,,,,,,,,,,,,,,19,2022-02-12_12h35.28.818,lexical_decision_task_DD_L4,2021.2.3,MacIntel,5.494505495,,,,,,,,,,,0.562,1,,,,,,,,,,,,,,z,1,0.562,,,,,,,,0.028888889,-0.415555556,0,0,0,,0,43,43,153,1,CLUPS,C,old,z,./images/CLUPS.png,,,,,,,,,,,,,,,,,,,,,,,,,,,,,,,,,,,
,,,,,,,,,,,,,,,,,,19,2022-02-12_12h35.28.818,lexical_decision_task_DD_L4,2021.2.3,MacIntel,5.494505495,,,,,,,,,,,0.985,0,,,,,,,,,,,,,,m,0,0.985,,,,,,,,0.028888889,-0.415555556,0,0,0,,0,44,44,85,1,CHULK,HB,old,z,./images/CHULKHB.png,,,,,,,,,,,,,,,,,,,,,,,,,,,,,,,,,,,
,,,,,,,,,,,,,,,,,,19,2022-02-12_12h35.28.818,lexical_decision_task_DD_L4,2021.2.3,MacIntel,5.494505495,,,,,,,,,,,0.652,1,,,,,,,,,,,,,,m,1,0.652,,,,,,,,0.028888889,-0.415555556,0,0,0,,0,45,45,59,1,BRUSH,LB,old,m,./images/BRUSHLB.png,,,,,,,,,,,,,,,,,,,,,,,,,,,,,,,,,,,
,,,,,,,,,,,,,,,,,,19,2022-02-12_12h35.28.818,lexical_decision_task_DD_L4,2021.2.3,MacIntel,5.494505495,,,,,,,,,,,0.661,1,,,,,,,,,,,,,,z,1,0.661,,,,,,,,0.028888889,-0.415555556,0,0,0,,0,46,46,105,1,MOKER,C,old,z,./images/MOKER.png,,,,,,,,,,,,,,,,,,,,,,,,,,,,,,,,,,,
,,,,,,,,,,,,,,,,,,19,2022-02-12_12h35.28.818,lexical_decision_task_DD_L4,2021.2.3,MacIntel,5.494505495,,,,,,,,,,,0.788,1,,,,,,,,,,,,,,z,1,0.788,,,,,,,,0.028888889,-0.415555556,0,0,0,,0,47,47,150,1,NOOLS,C,old,z,./images/NOOLS.png,,,,,,,,,,,,,,,,,,,,,,,,,,,,,,,,,,,
,,,,,,,,,,,,,,,,,,19,2022-02-12_12h35.28.818,lexical_decision_task_DD_L4,2021.2.3,MacIntel,5.494505495,,,,,,,,,,,0.595,1,,,,,,,,,,,,,,m,1,0.595,,,,,,,,0.028888889,-0.415555556,0,0,0,,0,48,48,0,1,WALNUT,C,old,m,./images/WALNUT.png,,,,,,,,,,,,,,,,,,,,,,,,,,,,,,,,,,,
,,,,,,,,,,,,,,,,,,19,2022-02-12_12h35.28.818,lexical_decision_task_DD_L4,2021.2.3,MacIntel,5.494505495,,,,,,,,,,,0.577,1,,,,,,,,,,,,,,m,1,0.577,,,,,,,,0.028888889,-0.415555556,0,0,0,,0,49,49,2,1,STOVE,LB,old,m,./images/STOVELB.png,,,,,,,,,,,,,,,,,,,,,,,,,,,,,,,,,,,
,,,,,,,,,,,,,,,,,,19,2022-02-12_12h35.28.818,lexical_decision_task_DD_L4,2021.2.3,MacIntel,5.494505495,,,,,,,,,,,0.549,1,,,,,,,,,,,,,,m,1,0.549,,,,,,,,0.028888889,-0.415555556,0,0,0,,0,50,50,51,1,SAUCE,C,old,m,./images/SAUCE.png,,,,,,,,,,,,,,,,,,,,,,,,,,,,,,,,,,,
,,,,,,,,,,,,,,,,,,19,2022-02-12_12h35.28.818,lexical_decision_task_DD_L4,2021.2.3,MacIntel,5.494505495,,,,,,,,,,,0.691,1,,,,,,,,,,,,,,z,1,0.691,,,,,,,,0.028888889,-0.415555556,0,0,0,,0,51,51,90,1,NEAST,C,old,z,./images/NEAST.png,,,,,,,,,,,,,,,,,,,,,,,,,,,,,,,,,,,
,,,,,,,,,,,,,,,,,,19,2022-02-12_12h35.28.818,lexical_decision_task_DD_L4,2021.2.3,MacIntel,5.494505495,,,,,,,,,,,0.562,1,,,,,,,,,,,,,,m,1,0.562,,,,,,,,0.028888889,-0.415555556,0,0,0,,0,52,52,60,1,CURRY,C,old,m,./images/CURRY.png,,,,,,,,,,,,,,,,,,,,,,,,,,,,,,,,,,,
,,,,,,,,,,,,,,,,,,19,2022-02-12_12h35.28.818,lexical_decision_task_DD_L4,2021.2.3,MacIntel,5.494505495,,,,,,,,,,,0.63,1,,,,,,,,,,,,,,m,1,0.63,,,,,,,,0.028888889,-0.415555556,0,0,0,,0,53,53,35,1,LLAMA,LB,old,m,./images/LLAMALB.png,,,,,,,,,,,,,,,,,,,,,,,,,,,,,,,,,,,
,,,,,,,,,,,,,,,,,,19,2022-02-12_12h35.28.818,lexical_decision_task_DD_L4,2021.2.3,MacIntel,5.494505495,,,,,,,,,,,0.662,1,,,,,,,,,,,,,,m,1,0.662,,,,,,,,0.028888889,-0.415555556,0,0,0,,0,54,54,32,1,HOCKEY,LB,old,m,./images/HOCKEYLB.png,,,,,,,,,,,,,,,,,,,,,,,,,,,,,,,,,,,
,,,,,,,,,,,,,,,,,,19,2022-02-12_12h35.28.818,lexical_decision_task_DD_L4,2021.2.3,MacIntel,5.494505495,,,,,,,,,,,0.615,1,,,,,,,,,,,,,,m,1,0.615,,,,,,,,0.028888889,-0.415555556,0,0,0,,0,55,55,27,1,BUTTER,C,old,m,./images/BUTTER.png,,,,,,,,,,,,,,,,,,,,,,,,,,,,,,,,,,,
,,,,,,,,,,,,,,,,,,19,2022-02-12_12h35.28.818,lexical_decision_task_DD_L4,2021.2.3,MacIntel,5.494505495,,,,,,,,,,,0.79,1,,,,,,,,,,,,,,z,1,0.79,,,,,,,,0.028888889,-0.415555556,0,0,0,,0,56,56,94,1,BLANS,HB,old,z,./images/BLANSHB.png,,,,,,,,,,,,,,,,,,,,,,,,,,,,,,,,,,,
,,,,,,,,,,,,,,,,,,19,2022-02-12_12h35.28.818,lexical_decision_task_DD_L4,2021.2.3,MacIntel,5.494505495,,,,,,,,,,,0.695,1,,,,,,,,,,,,,,m,1,0.695,,,,,,,,0.028888889,-0.415555556,0,0,0,,0,57,57,33,1,SAUNA,C,old,m,./images/SAUNA.png,,,,,,,,,,,,,,,,,,,,,,,,,,,,,,,,,,,
,,,,,,,,,,,,,,,,,,19,2022-02-12_12h35.28.818,lexical_decision_task_DD_L4,2021.2.3,MacIntel,5.494505495,,,,,,,,,,,0.879,1,,,,,,,,,,,,,,z,1,0.879,,,,,,,,0.028888889,-0.415555556,0,0,0,,0,58,58,131,1,NACES,LB,old,z,./images/NACESLB.png,,,,,,,,,,,,,,,,,,,,,,,,,,,,,,,,,,,
,,,,,,,,,,,,,,,,,,19,2022-02-12_12h35.28.818,lexical_decision_task_DD_L4,2021.2.3,MacIntel,5.494505495,,,,,,,,,,,0.649,1,,,,,,,,,,,,,,m,1,0.649,,,,,,,,0.028888889,-0.415555556,0,0,0,,0,59,59,58,1,CANOE,HB,old,m,./images/CANOEHB.png,,,,,,,,,,,,,,,,,,,,,,,,,,,,,,,,,,,
,,,,,,,,,,,,,,,,,,19,2022-02-12_12h35.28.818,lexical_decision_task_DD_L4,2021.2.3,MacIntel,5.494505495,,,,,,,,,,,0.572,1,,,,,,,,,,,,,,m,1,0.572,,,,,,,,0.028888889,-0.415555556,0,0,0,,0,60,60,6,1,STAIN,C,old,m,./images/STAIN.png,,,,,,,,,,,,,,,,,,,,,,,,,,,,,,,,,,,
,,,,,,,,,,,,,,,,,,19,2022-02-12_12h35.28.818,lexical_decision_task_DD_L4,2021.2.3,MacIntel,5.494505495,,,,,,,,,,,0.658,1,,,,,,,,,,,,,,z,1,0.658,,,,,,,,0.028888889,-0.415555556,0,0,0,,0,61,61,142,1,PLASK,HB,old,z,./images/PLASKHB.png,,,,,,,,,,,,,,,,,,,,,,,,,,,,,,,,,,,
,,,,,,,,,,,,,,,,,,19,2022-02-12_12h35.28.818,lexical_decision_task_DD_L4,2021.2.3,MacIntel,5.494505495,,,,,,,,,,,0.58,1,,,,,,,,,,,,,,m,1,0.58,,,,,,,,0.028888889,-0.415555556,0,0,0,,0,62,62,12,1,BLOKE,C,old,m,./images/BLOKE.png,,,,,,,,,,,,,,,,,,,,,,,,,,,,,,,,,,,
,,,,,,,,,,,,,,,,,,19,2022-02-12_12h35.28.818,lexical_decision_task_DD_L4,2021.2.3,MacIntel,5.494505495,,,,,,,,,,,0.869,1,,,,,,,,,,,,,,z,1,0.869,,,,,,,,0.028888889,-0.415555556,0,0,0,,0,63,63,127,1,NINDY,HB,old,z,./images/NINDYHB.png,,,,,,,,,,,,,,,,,,,,,,,,,,,,,,,,,,,
,,,,,,,,,,,,,,,,,,19,2022-02-12_12h35.28.818,lexical_decision_task_DD_L4,2021.2.3,MacIntel,5.494505495,,,,,,,,,,,0.48,1,,,,,,,,,,,,,,m,1,0.48,,,,,,,,0.028888889,-0.415555556,0,0,0,,0,64,64,69,1,ARROW,C,old,m,./images/ARROW.png,,,,,,,,,,,,,,,,,,,,,,,,,,,,,,,,,,,
,,,,,,,,,,,,,,,,,,19,2022-02-12_12h35.28.818,lexical_decision_task_DD_L4,2021.2.3,MacIntel,5.494505495,,,,,,,,,,,0.581,1,,,,,,,,,,,,,,z,1,0.581,,,,,,,,0.028888889,-0.415555556,0,0,0,,0,65,65,126,1,GUELS,C,old,z,./images/GUELS.png,,,,,,,,,,,,,,,,,,,,,,,,,,,,,,,,,,,
,,,,,,,,,,,,,,,,,,19,2022-02-12_12h35.28.818,lexical_decision_task_DD_L4,2021.2.3,MacIntel,5.494505495,,,,,,,,,,,0.643,0,,,,,,,,,,,,,,m,0,0.643,,,,,,,,0.028888889,-0.415555556,0,0,0,,0,66,66,110,1,CRUNK,LB,old,z,./images/CRUNKLB.png,,,,,,,,,,,,,,,,,,,,,,,,,,,,,,,,,,,
,,,,,,,,,,,,,,,,,,19,2022-02-12_12h35.28.818,lexical_decision_task_DD_L4,2021.2.3,MacIntel,5.494505495,,,,,,,,,,,0.886,1,,,,,,,,,,,,,,z,1,0.886,,,,,,,,0.028888889,-0.415555556,0,0,0,,0,67,67,139,1,BLEAR,HB,old,z,./images/BLEARHB.png,,,,,,,,,,,,,,,,,,,,,,,,,,,,,,,,,,,
,,,,,,,,,,,,,,,,,,19,2022-02-12_12h35.28.818,lexical_decision_task_DD_L4,2021.2.3,MacIntel,5.494505495,,,,,,,,,,,0.702,1,,,,,,,,,,,,,,z,1,0.702,,,,,,,,0.028888889,-0.415555556,0,0,0,,0,68,68,95,1,HANTY,LB,old,z,./images/HANTYLB.png,,,,,,,,,,,,,,,,,,,,,,,,,,,,,,,,,,,
,,,,,,,,,,,,,,,,,,19,2022-02-12_12h35.28.818,lexical_decision_task_DD_L4,2021.2.3,MacIntel,5.494505495,,,,,,,,,,,0.47,1,,,,,,,,,,,,,,m,1,0.47,,,,,,,,0.028888889,-0.415555556,0,0,0,,0,69,69,75,1,HAMMER,C,old,m,./images/HAMMER.png,,,,,,,,,,,,,,,,,,,,,,,,,,,,,,,,,,,
,,,,,,,,,,,,,,,,,,19,2022-02-12_12h35.28.818,lexical_decision_task_DD_L4,2021.2.3,MacIntel,5.494505495,,,,,,,,,,,0.627,1,,,,,,,,,,,,,,z,1,0.627,,,,,,,,0.028888889,-0.415555556,0,0,0,,0,70,70,156,1,HIXES,C,old,z,./images/HIXES.png,,,,,,,,,,,,,,,,,,,,,,,,,,,,,,,,,,,
,,,,,,,,,,,,,,,,,,19,2022-02-12_12h35.28.818,lexical_decision_task_DD_L4,2021.2.3,MacIntel,5.494505495,,,,,,,,,,,0.827,1,,,,,,,,,,,,,,z,1,0.827,,,,,,,,0.028888889,-0.415555556,0,0,0,,0,71,71,163,1,GAMBA,HB,old,z,./images/GAMBAHB.png,,,,,,,,,,,,,,,,,,,,,,,,,,,,,,,,,,,
,,,,,,,,,,,,,,,,,,19,2022-02-12_12h35.28.818,lexical_decision_task_DD_L4,2021.2.3,MacIntel,5.494505495,,,,,,,,,,,1.166,0,,,,,,,,,,,,,,m,0,1.166,,,,,,,,0.028888889,-0.415555556,0,0,0,,0,72,72,103,1,FLORT,HB,old,z,./images/FLORTHB.png,,,,,,,,,,,,,,,,,,,,,,,,,,,,,,,,,,,
,,,,,,,,,,,,,,,,,,19,2022-02-12_12h35.28.818,lexical_decision_task_DD_L4,2021.2.3,MacIntel,5.494505495,,,,,,,,,,,0.513,1,,,,,,,,,,,,,,m,1,0.513,,,,,,,,0.028888889,-0.415555556,0,0,0,,0,73,73,74,1,JUMPER,LB,old,m,./images/JUMPERLB.png,,,,,,,,,,,,,,,,,,,,,,,,,,,,,,,,,,,
,,,,,,,,,,,,,,,,,,19,2022-02-12_12h35.28.818,lexical_decision_task_DD_L4,2021.2.3,MacIntel,5.494505495,,,,,,,,,,,0.615,1,,,,,,,,,,,,,,m,1,0.615,,,,,,,,0.028888889,-0.415555556,0,0,0,,0,74,74,3,1,CRATER,C,old,m,./images/CRATER.png,,,,,,,,,,,,,,,,,,,,,,,,,,,,,,,,,,,
,,,,,,,,,,,,,,,,,,19,2022-02-12_12h35.28.818,lexical_decision_task_DD_L4,2021.2.3,MacIntel,5.494505495,,,,,,,,,,,0.614,1,,,,,,,,,,,,,,z,1,0.614,,,,,,,,0.028888889,-0.415555556,0,0,0,,0,75,75,125,1,MOOKY,LB,old,z,./images/MOOKYLB.png,,,,,,,,,,,,,,,,,,,,,,,,,,,,,,,,,,,
,,,,,,,,,,,,,,,,,,19,2022-02-12_12h35.28.818,lexical_decision_task_DD_L4,2021.2.3,MacIntel,5.494505495,,,,,,,,,,,0.196,1,,,,,,,,,,,,,,z,1,0.196,,,,,,,,0.028888889,-0.415555556,0,0,0,,0,76,76,92,1,PAIMS,LB,old,z,./images/PAIMSLB.png,,,,,,,,,,,,,,,,,,,,,,,,,,,,,,,,,,,
,,,,,,,,,,,,,,,,,,19,2022-02-12_12h35.28.818,lexical_decision_task_DD_L4,2021.2.3,MacIntel,5.494505495,,,,,,,,,,,0.903,1,,,,,,,,,,,,,,m,1,0.903,,,,,,,,0.028888889,-0.415555556,0,0,0,,0,77,77,61,1,ARTIST,HB,old,m,./images/ARTISTHB.png,,,,,,,,,,,,,,,,,,,,,,,,,,,,,,,,,,,
,,,,,,,,,,,,,,,,,,19,2022-02-12_12h35.28.818,lexical_decision_task_DD_L4,2021.2.3,MacIntel,5.494505495,,,,,,,,,,,0.879,1,,,,,,,,,,,,,,z,1,0.879,,,,,,,,0.028888889,-0.415555556,0,0,0,,0,78,78,154,1,THINT,HB,old,z,./images/THINTHB.png,,,,,,,,,,,,,,,,,,,,,,,,,,,,,,,,,,,
,,,,,,,,,,,,,,,,,,19,2022-02-12_12h35.28.818,lexical_decision_task_DD_L4,2021.2.3,MacIntel,5.494505495,,,,,,,,,,,0.729,1,,,,,,,,,,,,,,z,1,0.729,,,,,,,,0.028888889,-0.415555556,0,0,0,,0,79,79,152,1,FRAIN,LB,old,z,./images/FRAINLB.png,,,,,,,,,,,,,,,,,,,,,,,,,,,,,,,,,,,
,,,,,,,,,,,,,,,,,,19,2022-02-12_12h35.28.818,lexical_decision_task_DD_L4,2021.2.3,MacIntel,5.494505495,,,,,,,,,,,0.538,1,,,,,,,,,,,,,,m,1,0.538,,,,,,,,0.028888889,-0.415555556,0,0,0,,0,80,80,57,1,FERRY,C,old,m,./images/FERRY.png,,,,,,,,,,,,,,,,,,,,,,,,,,,,,,,,,,,
,,,,,,,,,,,,,,,,,,19,2022-02-12_12h35.28.818,lexical_decision_task_DD_L4,2021.2.3,MacIntel,5.494505495,,,,,,,,,,,0.565,1,,,,,,,,,,,,,,z,1,0.565,,,,,,,,0.028888889,-0.415555556,0,0,0,,0,81,81,96,1,KEAMS,C,old,z,./images/KEAMS.png,,,,,,,,,,,,,,,,,,,,,,,,,,,,,,,,,,,
,,,,,,,,,,,,,,,,,,19,2022-02-12_12h35.28.818,lexical_decision_task_DD_L4,2021.2.3,MacIntel,5.494505495,,,,,,,,,,,1.211,1,,,,,,,,,,,,,,z,1,1.211,,,,,,,,0.028888889,-0.415555556,0,0,0,,0,82,82,148,1,JOMS,HB,old,z,./images/JOMSHB.png,,,,,,,,,,,,,,,,,,,,,,,,,,,,,,,,,,,
,,,,,,,,,,,,,,,,,,19,2022-02-12_12h35.28.818,lexical_decision_task_DD_L4,2021.2.3,MacIntel,5.494505495,,,,,,,,,,,0.836,1,,,,,,,,,,,,,,m,1,0.836,,,,,,,,0.028888889,-0.415555556,0,0,0,space,0,83,83,4,1,BOXER,HB,old,m,./images/BOXERHB.png,1.44,,,,,,,,,,,,,,,,,,,,,,,,,,,,,,,,,,
,,,,,,,,,,,,,,,,,,19,2022-02-12_12h35.28.818,lexical_decision_task_DD_L4,2021.2.3,MacIntel,5.494505495,,,,,,,,,,,0.877,0,,,,,,,,,,,,,,z,0,0.877,,,,,,,,0.028888889,-0.415555556,0,0,0,,0,84,84,46,1,MUMMY,HB,old,m,./images/MUMMYHB.png,,,,,,,,,,,,,,,,,,,,,,,,,,,,,,,,,,,
,,,,,,,,,,,,,,,,,,19,2022-02-12_12h35.28.818,lexical_decision_task_DD_L4,2021.2.3,MacIntel,5.494505495,,,,,,,,,,,0.678,1,,,,,,,,,,,,,,z,1,0.678,,,,,,,,0.028888889,-0.415555556,0,0,0,,0,85,85,104,1,GITTY,LB,old,z,./images/GITTYLB.png,,,,,,,,,,,,,,,,,,,,,,,,,,,,,,,,,,,
,,,,,,,,,,,,,,,,,,19,2022-02-12_12h35.28.818,lexical_decision_task_DD_L4,2021.2.3,MacIntel,5.494505495,,,,,,,,,,,0.662,1,,,,,,,,,,,,,,m,1,0.662,,,,,,,,0.028888889,-0.415555556,0,0,0,,0,86,86,10,1,GARDEN,HB,old,m,./images/GARDENHB.png,,,,,,,,,,,,,,,,,,,,,,,,,,,,,,,,,,,
,,,,,,,,,,,,,,,,,,19,2022-02-12_12h35.28.818,lexical_decision_task_DD_L4,2021.2.3,MacIntel,5.494505495,,,,,,,,,,,0.585,1,,,,,,,,,,,,,,m,1,0.585,,,,,,,,0.028888889,-0.415555556,0,0,0,,0,87,87,8,1,CLIFF,LB,old,m,./images/CLIFFLB.png,,,,,,,,,,,,,,,,,,,,,,,,,,,,,,,,,,,
,,,,,,,,,,,,,,,,,,19,2022-02-12_12h35.28.818,lexical_decision_task_DD_L4,2021.2.3,MacIntel,5.494505495,,,,,,,,,,,0.479,1,,,,,,,,,,,,,,z,1,0.479,,,,,,,,0.028888889,-0.415555556,0,0,0,,0,88,88,167,1,ZONET,LB,old,z,./images/ZONETLB.png,,,,,,,,,,,,,,,,,,,,,,,,,,,,,,,,,,,
,,,,,,,,,,,,,,,,,,19,2022-02-12_12h35.28.818,lexical_decision_task_DD_L4,2021.2.3,MacIntel,5.494505495,,,,,,,,,,,0.952,1,,,,,,,,,,,,,,z,1,0.952,,,,,,,,0.028888889,-0.415555556,0,0,0,,0,89,89,112,1,MYING,HB,old,z,./images/MYINGHB.png,,,,,,,,,,,,,,,,,,,,,,,,,,,,,,,,,,,
,,,,,,,,,,,,,,,,,,19,2022-02-12_12h35.28.818,lexical_decision_task_DD_L4,2021.2.3,MacIntel,5.494505495,,,,,,,,,,,0.448,1,,,,,,,,,,,,,,m,1,0.448,,,,,,,,0.028888889,-0.415555556,0,0,0,,0,90,90,78,1,BROOM,C,old,m,./images/BROOM.png,,,,,,,,,,,,,,,,,,,,,,,,,,,,,,,,,,,
,,,,,,,,,,,,,,,,,,19,2022-02-12_12h35.28.818,lexical_decision_task_DD_L4,2021.2.3,MacIntel,5.494505495,,,,,,,,,,,0.487,1,,,,,,,,,,,,,,m,1,0.487,,,,,,,,0.028888889,-0.415555556,0,0,0,,0,91,91,63,1,BAKER,C,old,m,./images/BAKER.png,,,,,,,,,,,,,,,,,,,,,,,,,,,,,,,,,,,
,,,,,,,,,,,,,,,,,,19,2022-02-12_12h35.28.818,lexical_decision_task_DD_L4,2021.2.3,MacIntel,5.494505495,,,,,,,,,,,1.001,1,,,,,,,,,,,,,,m,1,1.001,,,,,,,,0.028888889,-0.415555556,0,0,0,,0,92,92,44,1,BASKET,LB,old,m,./images/BASKETLB.png,,,,,,,,,,,,,,,,,,,,,,,,,,,,,,,,,,,
,,,,,,,,,,,,,,,,,,19,2022-02-12_12h35.28.818,lexical_decision_task_DD_L4,2021.2.3,MacIntel,5.494505495,,,,,,,,,,,0.791,1,,,,,,,,,,,,,,m,1,0.791,,,,,,,,0.028888889,-0.415555556,0,0,0,,0,93,93,43,1,STOOL,HB,old,m,./images/STOOLHB.png,,,,,,,,,,,,,,,,,,,,,,,,,,,,,,,,,,,
,,,,,,,,,,,,,,,,,,19,2022-02-12_12h35.28.818,lexical_decision_task_DD_L4,2021.2.3,MacIntel,5.494505495,,,,,,,,,,,0.62,1,,,,,,,,,,,,,,z,1,0.62,,,,,,,,0.028888889,-0.415555556,0,0,0,,0,94,94,164,1,SGREW,LB,old,z,./images/SGREWLB.png,,,,,,,,,,,,,,,,,,,,,,,,,,,,,,,,,,,
,,,,,,,,,,,,,,,,,,19,2022-02-12_12h35.28.818,lexical_decision_task_DD_L4,2021.2.3,MacIntel,5.494505495,,,,,,,,,,,0.761,1,,,,,,,,,,,,,,m,1,0.761,,,,,,,,0.028888889,-0.415555556,0,0,0,,0,95,95,83,1,WHISKY,LB,old,m,./images/WHISKYLB.png,,,,,,,,,,,,,,,,,,,,,,,,,,,,,,,,,,,
,,,,,,,,,,,,,,,,,,19,2022-02-12_12h35.28.818,lexical_decision_task_DD_L4,2021.2.3,MacIntel,5.494505495,,,,,,,,,,,0.73,1,,,,,,,,,,,,,,z,1,0.73,,,,,,,,0.028888889,-0.415555556,0,0,0,,0,96,96,151,1,TINKY,HB,old,z,./images/TINKYHB.png,,,,,,,,,,,,,,,,,,,,,,,,,,,,,,,,,,,
,,,,,,,,,,,,,,,,,,19,2022-02-12_12h35.28.818,lexical_decision_task_DD_L4,2021.2.3,MacIntel,5.494505495,,,,,,,,,,,0.523,1,,,,,,,,,,,,,,m,1,0.523,,,,,,,,0.028888889,-0.415555556,0,0,0,,0,97,97,17,1,PARADE,LB,old,m,./images/PARADELB.png,,,,,,,,,,,,,,,,,,,,,,,,,,,,,,,,,,,
,,,,,,,,,,,,,,,,,,19,2022-02-12_12h35.28.818,lexical_decision_task_DD_L4,2021.2.3,MacIntel,5.494505495,,,,,,,,,,,0.585,1,,,,,,,,,,,,,,z,1,0.585,,,,,,,,0.028888889,-0.415555556,0,0,0,,0,98,98,138,1,PLICE,C,old,z,./images/PLICE.png,,,,,,,,,,,,,,,,,,,,,,,,,,,,,,,,,,,
,,,,,,,,,,,,,,,,,,19,2022-02-12_12h35.28.818,lexical_decision_task_DD_L4,2021.2.3,MacIntel,5.494505495,,,,,,,,,,,0.844,0,,,,,,,,,,,,,,z,0,0.844,,,,,,,,0.028888889,-0.415555556,0,0,0,,0,99,99,40,1,SNAKE,HB,old,m,./images/SNAKEHB.png,,,,,,,,,,,,,,,,,,,,,,,,,,,,,,,,,,,
,,,,,,,,,,,,,,,,,,19,2022-02-12_12h35.28.818,lexical_decision_task_DD_L4,2021.2.3,MacIntel,5.494505495,,,,,,,,,,,0.566,1,,,,,,,,,,,,,,m,1,0.566,,,,,,,,0.028888889,-0.415555556,0,0,0,,0,100,100,80,1,PLANET,LB,old,m,./images/PLANETLB.png,,,,,,,,,,,,,,,,,,,,,,,,,,,,,,,,,,,
,,,,,,,,,,,,,,,,,,19,2022-02-12_12h35.28.818,lexical_decision_task_DD_L4,2021.2.3,MacIntel,5.494505495,,,,,,,,,,,1.03,1,,,,,,,,,,,,,,m,1,1.03,,,,,,,,0.028888889,-0.415555556,0,0,0,,0,101,101,37,1,TIGER,HB,old,m,./images/TIGERHB.png,,,,,,,,,,,,,,,,,,,,,,,,,,,,,,,,,,,
,,,,,,,,,,,,,,,,,,19,2022-02-12_12h35.28.818,lexical_decision_task_DD_L4,2021.2.3,MacIntel,5.494505495,,,,,,,,,,,1.004,1,,,,,,,,,,,,,,z,1,1.004,,,,,,,,0.028888889,-0.415555556,0,0,0,,0,102,102,88,1,GLUSH,HB,old,z,./images/GLUSHHB.png,,,,,,,,,,,,,,,,,,,,,,,,,,,,,,,,,,,
,,,,,,,,,,,,,,,,,,19,2022-02-12_12h35.28.818,lexical_decision_task_DD_L4,2021.2.3,MacIntel,5.494505495,,,,,,,,,,,0.763,1,,,,,,,,,,,,,,z,1,0.763,,,,,,,,0.028888889,-0.415555556,0,0,0,,0,103,103,119,1,PAFER,LB,old,z,./images/PAFERLB.png,,,,,,,,,,,,,,,,,,,,,,,,,,,,,,,,,,,
,,,,,,,,,,,,,,,,,,19,2022-02-12_12h35.28.818,lexical_decision_task_DD_L4,2021.2.3,MacIntel,5.494505495,,,,,,,,,,,0.842,1,,,,,,,,,,,,,,z,1,0.842,,,,,,,,0.028888889,-0.415555556,0,0,0,,0,104,104,158,1,EGECT,LB,old,z,./images/EGECTLB.png,,,,,,,,,,,,,,,,,,,,,,,,,,,,,,,,,,,
,,,,,,,,,,,,,,,,,,19,2022-02-12_12h35.28.818,lexical_decision_task_DD_L4,2021.2.3,MacIntel,5.494505495,,,,,,,,,,,0.563,1,,,,,,,,,,,,,,m,1,0.563,,,,,,,,0.028888889,-0.415555556,0,0,0,,0,105,105,18,1,PARCEL,C,old,m,./images/PARCEL.png,,,,,,,,,,,,,,,,,,,,,,,,,,,,,,,,,,,
,,,,,,,,,,,,,,,,,,19,2022-02-12_12h35.28.818,lexical_decision_task_DD_L4,2021.2.3,MacIntel,5.494505495,,,,,,,,,,,0.72,1,,,,,,,,,,,,,,m,1,0.72,,,,,,,,0.028888889,-0.415555556,0,0,0,,0,106,106,41,1,STREAM,LB,old,m,./images/STREAMLB.png,,,,,,,,,,,,,,,,,,,,,,,,,,,,,,,,,,,
,,,,,,,,,,,,,,,,,,19,2022-02-12_12h35.28.818,lexical_decision_task_DD_L4,2021.2.3,MacIntel,5.494505495,,,,,,,,,,,0.446,1,,,,,,,,,,,,,,m,1,0.446,,,,,,,,0.028888889,-0.415555556,0,0,0,,0,107,107,54,1,CHERRY,C,old,m,./images/CHERRY.png,,,,,,,,,,,,,,,,,,,,,,,,,,,,,,,,,,,
,,,,,,,,,,,,,,,,,,19,2022-02-12_12h35.28.818,lexical_decision_task_DD_L4,2021.2.3,MacIntel,5.494505495,,,,,,,,,,,0.71,0,,,,,,,,,,,,,,m,0,0.71,,,,,,,,0.028888889,-0.415555556,0,0,0,,0,108,108,128,1,GRIFT,LB,old,z,./images/GRIFTLB.png,,,,,,,,,,,,,,,,,,,,,,,,,,,,,,,,,,,
,,,,,,,,,,,,,,,,,,19,2022-02-12_12h35.28.818,lexical_decision_task_DD_L4,2021.2.3,MacIntel,5.494505495,,,,,,,,,,,0.58,1,,,,,,,,,,,,,,z,1,0.58,,,,,,,,0.028888889,-0.415555556,0,0,0,,0,109,109,107,1,FASKS,LB,old,z,./images/FASKSLB.png,,,,,,,,,,,,,,,,,,,,,,,,,,,,,,,,,,,
,,,,,,,,,,,,,,,,,,19,2022-02-12_12h35.28.818,lexical_decision_task_DD_L4,2021.2.3,MacIntel,5.494505495,,,,,,,,,,,0.63,1,,,,,,,,,,,,,,z,1,0.63,,,,,,,,0.028888889,-0.415555556,0,0,0,,0,110,110,137,1,JOOST,LB,old,z,./images/JOOSTLB.png,,,,,,,,,,,,,,,,,,,,,,,,,,,,,,,,,,,
,,,,,,,,,,,,,,,,,,19,2022-02-12_12h35.28.818,lexical_decision_task_DD_L4,2021.2.3,MacIntel,5.494505495,,,,,,,,,,,0.546,1,,,,,,,,,,,,,,m,1,0.546,,,,,,,,0.028888889,-0.415555556,0,0,0,,0,111,111,23,1,CLOTH,LB,old,m,./images/CLOTHLB.png,,,,,,,,,,,,,,,,,,,,,,,,,,,,,,,,,,,
,,,,,,,,,,,,,,,,,,19,2022-02-12_12h35.28.818,lexical_decision_task_DD_L4,2021.2.3,MacIntel,5.494505495,,,,,,,,,,,0.645,1,,,,,,,,,,,,,,z,1,0.645,,,,,,,,0.028888889,-0.415555556,0,0,0,,0,112,112,120,1,RINED,C,old,z,./images/RINED.png,,,,,,,,,,,,,,,,,,,,,,,,,,,,,,,,,,,
,,,,,,,,,,,,,,,,,,19,2022-02-12_12h35.28.818,lexical_decision_task_DD_L4,2021.2.3,MacIntel,5.494505495,,,,,,,,,,,1.012,1,,,,,,,,,,,,,,z,1,1.012,,,,,,,,0.028888889,-0.415555556,0,0,0,,0,113,113,133,1,POWDY,HB,old,z,./images/POWDYHB.png,,,,,,,,,,,,,,,,,,,,,,,,,,,,,,,,,,,
,,,,,,,,,,,,,,,,,,19,2022-02-12_12h35.28.818,lexical_decision_task_DD_L4,2021.2.3,MacIntel,5.494505495,,,,,,,,,,,1.185,0,,,,,,,,,,,,,,z,0,1.185,,,,,,,,0.028888889,-0.415555556,0,0,0,,0,114,114,76,1,MIDGET,HB,old,m,./images/MIDGETHB.png,,,,,,,,,,,,,,,,,,,,,,,,,,,,,,,,,,,
,,,,,,,,,,,,,,,,,,19,2022-02-12_12h35.28.818,lexical_decision_task_DD_L4,2021.2.3,MacIntel,5.494505495,,,,,,,,,,,0.447,1,,,,,,,,,,,,,,m,1,0.447,,,,,,,,0.028888889,-0.415555556,0,0,0,,0,115,115,30,1,SLOPE,C,old,m,./images/SLOPE.png,,,,,,,,,,,,,,,,,,,,,,,,,,,,,,,,,,,
,,,,,,,,,,,,,,,,,,19,2022-02-12_12h35.28.818,lexical_decision_task_DD_L4,2021.2.3,MacIntel,5.494505495,,,,,,,,,,,0.57,1,,,,,,,,,,,,,,z,1,0.57,,,,,,,,0.028888889,-0.415555556,0,0,0,,0,116,116,161,1,BLAPS,LB,old,z,./images/BLAPSLB.png,,,,,,,,,,,,,,,,,,,,,,,,,,,,,,,,,,,
,,,,,,,,,,,,,,,,,,19,2022-02-12_12h35.28.818,lexical_decision_task_DD_L4,2021.2.3,MacIntel,5.494505495,,,,,,,,,,,0.647,1,,,,,,,,,,,,,,z,1,0.647,,,,,,,,0.028888889,-0.415555556,0,0,0,,0,117,117,132,1,SCIFF,C,old,z,./images/SCIFF.png,,,,,,,,,,,,,,,,,,,,,,,,,,,,,,,,,,,
,,,,,,,,,,,,,,,,,,19,2022-02-12_12h35.28.818,lexical_decision_task_DD_L4,2021.2.3,MacIntel,5.494505495,,,,,,,,,,,1.374,1,,,,,,,,,,,,,,z,1,1.374,,,,,,,,0.028888889,-0.415555556,0,0,0,,0,118,118,87,1,TRING,C,old,z,./images/TRING.png,,,,,,,,,,,,,,,,,,,,,,,,,,,,,,,,,,,
,,,,,,,,,,,,,,,,,,19,2022-02-12_12h35.28.818,lexical_decision_task_DD_L4,2021.2.3,MacIntel,5.494505495,,,,,,,,,,,0.61,1,,,,,,,,,,,,,,m,1,0.61,,,,,,,,0.028888889,-0.415555556,0,0,0,,0,119,119,56,1,HEATER,LB,old,m,./images/HEATERLB.png,,,,,,,,,,,,,,,,,,,,,,,,,,,,,,,,,,,
,,,,,,,,,,,,,,,,,,19,2022-02-12_12h35.28.818,lexical_decision_task_DD_L4,2021.2.3,MacIntel,5.494505495,,,,,,,,,,,0.607,1,,,,,,,,,,,,,,z,1,0.607,,,,,,,,0.028888889,-0.415555556,0,0,0,,0,120,120,141,1,PLEET,C,old,z,./images/PLEET.png,,,,,,,,,,,,,,,,,,,,,,,,,,,,,,,,,,,
,,,,,,,,,,,,,,,,,,19,2022-02-12_12h35.28.818,lexical_decision_task_DD_L4,2021.2.3,MacIntel,5.494505495,,,,,,,,,,,0.56,1,,,,,,,,,,,,,,m,1,0.56,,,,,,,,0.028888889,-0.415555556,0,0,0,,0,121,121,15,1,COLLAR,C,old,m,./images/COLLAR.png,,,,,,,,,,,,,,,,,,,,,,,,,,,,,,,,,,,
,,,,,,,,,,,,,,,,,,19,2022-02-12_12h35.28.818,lexical_decision_task_DD_L4,2021.2.3,MacIntel,5.494505495,,,,,,,,,,,0.605,1,,,,,,,,,,,,,,m,1,0.605,,,,,,,,0.028888889,-0.415555556,0,0,0,,0,122,122,36,1,BOILER,C,old,m,./images/BOILER.png,,,,,,,,,,,,,,,,,,,,,,,,,,,,,,,,,,,
,,,,,,,,,,,,,,,,,,19,2022-02-12_12h35.28.818,lexical_decision_task_DD_L4,2021.2.3,MacIntel,5.494505495,,,,,,,,,,,0.763,1,,,,,,,,,,,,,,m,1,0.763,,,,,,,,0.028888889,-0.415555556,0,0,0,,0,123,123,19,1,DONKEY,HB,old,m,./images/DONKEYHB.png,,,,,,,,,,,,,,,,,,,,,,,,,,,,,,,,,,,
,,,,,,,,,,,,,,,,,,19,2022-02-12_12h35.28.818,lexical_decision_task_DD_L4,2021.2.3,MacIntel,5.494505495,,,,,,,,,,,0.719,1,,,,,,,,,,,,,,m,1,0.719,,,,,,,,0.028888889,-0.415555556,0,0,0,,0,124,124,67,1,POKER,HB,old,m,./images/POKERHB.png,,,,,,,,,,,,,,,,,,,,,,,,,,,,,,,,,,,
,,,,,,,,,,,,,,,,,,19,2022-02-12_12h35.28.818,lexical_decision_task_DD_L4,2021.2.3,MacIntel,5.494505495,,,,,,,,,,,0.616,1,,,,,,,,,,,,,,z,1,0.616,,,,,,,,0.028888889,-0.415555556,0,0,0,space,0,125,125,89,1,DRIEK,LB,old,z,./images/DRIEKLB.png,1.044,,,,,,,,,,,,,,,,,,,,,,,,,,,,,,,,,,
,,,,,,,,,,,,,,,,,,19,2022-02-12_12h35.28.818,lexical_decision_task_DD_L4,2021.2.3,MacIntel,5.494505495,,,,,,,,,,,0.734,1,,,,,,,,,,,,,,z,1,0.734,,,,,,,,0.028888889,-0.415555556,0,0,0,,0,126,126,159,1,CUDDY,C,old,z,./images/CUDDY.png,,,,,,,,,,,,,,,,,,,,,,,,,,,,,,,,,,,
,,,,,,,,,,,,,,,,,,19,2022-02-12_12h35.28.818,lexical_decision_task_DD_L4,2021.2.3,MacIntel,5.494505495,,,,,,,,,,,0.516,1,,,,,,,,,,,,,,m,1,0.516,,,,,,,,0.028888889,-0.415555556,0,0,0,,0,127,127,72,1,FLASK,C,old,m,./images/FLASK.png,,,,,,,,,,,,,,,,,,,,,,,,,,,,,,,,,,,
,,,,,,,,,,,,,,,,,,19,2022-02-12_12h35.28.818,lexical_decision_task_DD_L4,2021.2.3,MacIntel,5.494505495,,,,,,,,,,,0.501,1,,,,,,,,,,,,,,m,1,0.501,,,,,,,,0.028888889,-0.415555556,0,0,0,,0,128,128,81,1,DRILL,C,old,m,./images/DRILL.png,,,,,,,,,,,,,,,,,,,,,,,,,,,,,,,,,,,
,,,,,,,,,,,,,,,,,,19,2022-02-12_12h35.28.818,lexical_decision_task_DD_L4,2021.2.3,MacIntel,5.494505495,,,,,,,,,,,0.54,1,,,,,,,,,,,,,,z,1,0.54,,,,,,,,0.028888889,-0.415555556,0,0,0,,0,129,129,162,1,LEICH,C,old,z,./images/LEICH.png,,,,,,,,,,,,,,,,,,,,,,,,,,,,,,,,,,,
,,,,,,,,,,,,,,,,,,19,2022-02-12_12h35.28.818,lexical_decision_task_DD_L4,2021.2.3,MacIntel,5.494505495,,,,,,,,,,,0.947,1,,,,,,,,,,,,,,m,1,0.947,,,,,,,,0.028888889,-0.415555556,0,0,0,,0,130,130,34,1,RAZOR,HB,old,m,./images/RAZORHB.png,,,,,,,,,,,,,,,,,,,,,,,,,,,,,,,,,,,
,,,,,,,,,,,,,,,,,,19,2022-02-12_12h35.28.818,lexical_decision_task_DD_L4,2021.2.3,MacIntel,5.494505495,,,,,,,,,,,0.711,1,,,,,,,,,,,,,,z,1,0.711,,,,,,,,0.028888889,-0.415555556,0,0,0,,0,131,131,86,1,AIFED,LB,old,z,./images/AIFEDLB.png,,,,,,,,,,,,,,,,,,,,,,,,,,,,,,,,,,,
,,,,,,,,,,,,,,,,,,19,2022-02-12_12h35.28.818,lexical_decision_task_DD_L4,2021.2.3,MacIntel,5.494505495,,,,,,,,,,,1.032,1,,,,,,,,,,,,,,z,1,1.032,,,,,,,,0.028888889,-0.415555556,0,0,0,,0,132,132,93,1,SMONE,C,old,z,./images/SMONE.png,,,,,,,,,,,,,,,,,,,,,,,,,,,,,,,,,,,
,,,,,,,,,,,,,,,,,,19,2022-02-12_12h35.28.818,lexical_decision_task_DD_L4,2021.2.3,MacIntel,5.494505495,,,,,,,,,,,1.166,1,,,,,,,,,,,,,,z,1,1.166,,,,,,,,0.028888889,-0.415555556,0,0,0,,0,133,133,123,1,SEDGE,C,old,z,./images/SEDGE.png,,,,,,,,,,,,,,,,,,,,,,,,,,,,,,,,,,,
,,,,,,,,,,,,,,,,,,19,2022-02-12_12h35.28.818,lexical_decision_task_DD_L4,2021.2.3,MacIntel,5.494505495,,,,,,,,,,,0.556,1,,,,,,,,,,,,,,m,1,0.556,,,,,,,,0.028888889,-0.415555556,0,0,0,,0,134,134,47,1,LAGOON,LB,old,m,./images/LAGOONLB.png,,,,,,,,,,,,,,,,,,,,,,,,,,,,,,,,,,,
,,,,,,,,,,,,,,,,,,19,2022-02-12_12h35.28.818,lexical_decision_task_DD_L4,2021.2.3,MacIntel,5.494505495,,,,,,,,,,,1.662,1,,,,,,,,,,,,,,z,1,1.662,,,,,,,,0.028888889,-0.415555556,0,0,0,,0,135,135,124,1,TUNCH,HB,old,z,./images/TUNCHHB.png,,,,,,,,,,,,,,,,,,,,,,,,,,,,,,,,,,,
,,,,,,,,,,,,,,,,,,19,2022-02-12_12h35.28.818,lexical_decision_task_DD_L4,2021.2.3,MacIntel,5.494505495,,,,,,,,,,,0.7,1,,,,,,,,,,,,,,z,1,0.7,,,,,,,,0.028888889,-0.415555556,0,0,0,,0,136,136,116,1,BALGY,LB,old,z,./images/BALGYLB.png,,,,,,,,,,,,,,,,,,,,,,,,,,,,,,,,,,,
,,,,,,,,,,,,,,,,,,19,2022-02-12_12h35.28.818,lexical_decision_task_DD_L4,2021.2.3,MacIntel,5.494505495,,,,,,,,,,,0.735,1,,,,,,,,,,,,,,z,1,0.735,,,,,,,,0.028888889,-0.415555556,0,0,0,,0,137,137,108,1,GRUET,C,old,z,./images/GRUET.png,,,,,,,,,,,,,,,,,,,,,,,,,,,,,,,,,,,
,,,,,,,,,,,,,,,,,,19,2022-02-12_12h35.28.818,lexical_decision_task_DD_L4,2021.2.3,MacIntel,5.494505495,,,,,,,,,,,0.528,1,,,,,,,,,,,,,,m,1,0.528,,,,,,,,0.028888889,-0.415555556,0,0,0,,0,138,138,66,1,STATUE,C,old,m,./images/STATUE.png,,,,,,,,,,,,,,,,,,,,,,,,,,,,,,,,,,,
,,,,,,,,,,,,,,,,,,19,2022-02-12_12h35.28.818,lexical_decision_task_DD_L4,2021.2.3,MacIntel,5.494505495,,,,,,,,,,,0.893,1,,,,,,,,,,,,,,z,1,0.893,,,,,,,,0.028888889,-0.415555556,0,0,0,,0,139,139,109,1,BURGE,HB,old,z,./images/BURGEHB.png,,,,,,,,,,,,,,,,,,,,,,,,,,,,,,,,,,,
,,,,,,,,,,,,,,,,,,19,2022-02-12_12h35.28.818,lexical_decision_task_DD_L4,2021.2.3,MacIntel,5.494505495,,,,,,,,,,,0.538,1,,,,,,,,,,,,,,m,1,0.538,,,,,,,,0.028888889,-0.415555556,0,0,0,,0,140,140,5,1,BAMBOO,LB,old,m,./images/BAMBOOLB.png,,,,,,,,,,,,,,,,,,,,,,,,,,,,,,,,,,,
,,,,,,,,,,,,,,,,,,19,2022-02-12_12h35.28.818,lexical_decision_task_DD_L4,2021.2.3,MacIntel,5.494505495,,,,,,,,,,,0.569,1,,,,,,,,,,,,,,m,1,0.569,,,,,,,,0.028888889,-0.415555556,0,0,0,,0,141,141,29,1,PISTOL,LB,old,m,./images/PISTOLLB.png,,,,,,,,,,,,,,,,,,,,,,,,,,,,,,,,,,,
,,,,,,,,,,,,,,,,,,19,2022-02-12_12h35.28.818,lexical_decision_task_DD_L4,2021.2.3,MacIntel,5.494505495,,,,,,,,,,,0.649,1,,,,,,,,,,,,,,m,1,0.649,,,,,,,,0.028888889,-0.415555556,0,0,0,,0,142,142,62,1,MAMMAL,LB,old,m,./images/MAMMALLB.png,,,,,,,,,,,,,,,,,,,,,,,,,,,,,,,,,,,
,,,,,,,,,,,,,,,,,,19,2022-02-12_12h35.28.818,lexical_decision_task_DD_L4,2021.2.3,MacIntel,5.494505495,,,,,,,,,,,0.59,1,,,,,,,,,,,,,,m,1,0.59,,,,,,,,0.028888889,-0.415555556,0,0,0,,0,143,143,24,1,FLESH,C,old,m,./images/FLESH.png,,,,,,,,,,,,,,,,,,,,,,,,,,,,,,,,,,,
,,,,,,,,,,,,,,,,,,19,2022-02-12_12h35.28.818,lexical_decision_task_DD_L4,2021.2.3,MacIntel,5.494505495,,,,,,,,,,,0.593,1,,,,,,,,,,,,,,z,1,0.593,,,,,,,,0.028888889,-0.415555556,0,0,0,,0,144,144,146,1,MOOST,LB,old,z,./images/MOOSTLB.png,,,,,,,,,,,,,,,,,,,,,,,,,,,,,,,,,,,
,,,,,,,,,,,,,,,,,,19,2022-02-12_12h35.28.818,lexical_decision_task_DD_L4,2021.2.3,MacIntel,5.494505495,,,,,,,,,,,0.652,1,,,,,,,,,,,,,,m,1,0.652,,,,,,,,0.028888889,-0.415555556,0,0,0,,0,145,145,11,1,MEDAL,LB,old,m,./images/MEDALLB.png,,,,,,,,,,,,,,,,,,,,,,,,,,,,,,,,,,,
,,,,,,,,,,,,,,,,,,19,2022-02-12_12h35.28.818,lexical_decision_task_DD_L4,2021.2.3,MacIntel,5.494505495,,,,,,,,,,,0.827,1,,,,,,,,,,,,,,m,1,0.827,,,,,,,,0.028888889,-0.415555556,0,0,0,,0,146,146,25,1,CHALK,HB,old,m,./images/CHALKHB.png,,,,,,,,,,,,,,,,,,,,,,,,,,,,,,,,,,,
,,,,,,,,,,,,,,,,,,19,2022-02-12_12h35.28.818,lexical_decision_task_DD_L4,2021.2.3,MacIntel,5.494505495,,,,,,,,,,,0.836,1,,,,,,,,,,,,,,z,1,0.836,,,,,,,,0.028888889,-0.415555556,0,0,0,,0,147,147,136,1,WERVE,HB,old,z,./images/WERVEHB.png,,,,,,,,,,,,,,,,,,,,,,,,,,,,,,,,,,,
,,,,,,,,,,,,,,,,,,19,2022-02-12_12h35.28.818,lexical_decision_task_DD_L4,2021.2.3,MacIntel,5.494505495,,,,,,,,,,,0.447,1,,,,,,,,,,,,,,m,1,0.447,,,,,,,,0.028888889,-0.415555556,0,0,0,,0,148,148,48,1,SHIELD,C,old,m,./images/SHIELD.png,,,,,,,,,,,,,,,,,,,,,,,,,,,,,,,,,,,
,,,,,,,,,,,,,,,,,,19,2022-02-12_12h35.28.818,lexical_decision_task_DD_L4,2021.2.3,MacIntel,5.494505495,,,,,,,,,,,0.619,1,,,,,,,,,,,,,,z,1,0.619,,,,,,,,0.028888889,-0.415555556,0,0,0,,0,149,149,111,1,HOSSE,C,old,z,./images/HOSSE.png,,,,,,,,,,,,,,,,,,,,,,,,,,,,,,,,,,,
,,,,,,,,,,,,,,,,,,19,2022-02-12_12h35.28.818,lexical_decision_task_DD_L4,2021.2.3,MacIntel,5.494505495,,,,,,,,,,,0.594,1,,,,,,,,,,,,,,z,1,0.594,,,,,,,,0.028888889,-0.415555556,0,0,0,,0,150,150,147,1,ZOLES,C,old,z,./images/ZOLES.png,,,,,,,,,,,,,,,,,,,,,,,,,,,,,,,,,,,
,,,,,,,,,,,,,,,,,,19,2022-02-12_12h35.28.818,lexical_decision_task_DD_L4,2021.2.3,MacIntel,5.494505495,,,,,,,,,,,1.138,1,,,,,,,,,,,,,,z,1,1.138,,,,,,,,0.028888889,-0.415555556,0,0,0,,0,151,151,91,1,SHENS,HB,old,z,./images/SHENSHB.png,,,,,,,,,,,,,,,,,,,,,,,,,,,,,,,,,,,
,,,,,,,,,,,,,,,,,,19,2022-02-12_12h35.28.818,lexical_decision_task_DD_L4,2021.2.3,MacIntel,5.494505495,,,,,,,,,,,0.657,1,,,,,,,,,,,,,,z,1,0.657,,,,,,,,0.028888889,-0.415555556,0,0,0,,0,152,152,84,1,HAXES,C,old,z,./images/HAXES.png,,,,,,,,,,,,,,,,,,,,,,,,,,,,,,,,,,,
,,,,,,,,,,,,,,,,,,19,2022-02-12_12h35.28.818,lexical_decision_task_DD_L4,2021.2.3,MacIntel,5.494505495,,,,,,,,,,,1.011,1,,,,,,,,,,,,,,m,1,1.011,,,,,,,,0.028888889,-0.415555556,0,0,0,,0,153,153,64,1,BRIDE,HB,old,m,./images/BRIDEHB.png,,,,,,,,,,,,,,,,,,,,,,,,,,,,,,,,,,,
,,,,,,,,,,,,,,,,,,19,2022-02-12_12h35.28.818,lexical_decision_task_DD_L4,2021.2.3,MacIntel,5.494505495,,,,,,,,,,,0.752,1,,,,,,,,,,,,,,z,1,0.752,,,,,,,,0.028888889,-0.415555556,0,0,0,,0,154,154,134,1,TROSS,LB,old,z,./images/TROSSLB.png,,,,,,,,,,,,,,,,,,,,,,,,,,,,,,,,,,,
,,,,,,,,,,,,,,,,,,19,2022-02-12_12h35.28.818,lexical_decision_task_DD_L4,2021.2.3,MacIntel,5.494505495,,,,,,,,,,,1.08,1,,,,,,,,,,,,,,z,1,1.08,,,,,,,,0.028888889,-0.415555556,0,0,0,,0,155,155,160,1,VEETS,HB,old,z,./images/VEETSHB.png,,,,,,,,,,,,,,,,,,,,,,,,,,,,,,,,,,,
,,,,,,,,,,,,,,,,,,19,2022-02-12_12h35.28.818,lexical_decision_task_DD_L4,2021.2.3,MacIntel,5.494505495,,,,,,,,,,,0.53,1,,,,,,,,,,,,,,m,1,0.53,,,,,,,,0.028888889,-0.415555556,0,0,0,,0,156,156,26,1,CLOUD,LB,old,m,./images/CLOUDLB.png,,,,,,,,,,,,,,,,,,,,,,,,,,,,,,,,,,,
,,,,,,,,,,,,,,,,,,19,2022-02-12_12h35.28.818,lexical_decision_task_DD_L4,2021.2.3,MacIntel,5.494505495,,,,,,,,,,,0.625,1,,,,,,,,,,,,,,z,1,0.625,,,,,,,,0.028888889,-0.415555556,0,0,0,,0,157,157,135,1,JOODY,C,old,z,./images/JOODY.png,,,,,,,,,,,,,,,,,,,,,,,,,,,,,,,,,,,
,,,,,,,,,,,,,,,,,,19,2022-02-12_12h35.28.818,lexical_decision_task_DD_L4,2021.2.3,MacIntel,5.494505495,,,,,,,,,,,0.648,1,,,,,,,,,,,,,,z,1,0.648,,,,,,,,0.028888889,-0.415555556,0,0,0,,0,158,158,99,1,BACKY,C,old,z,./images/BACKY.png,,,,,,,,,,,,,,,,,,,,,,,,,,,,,,,,,,,
,,,,,,,,,,,,,,,,,,19,2022-02-12_12h35.28.818,lexical_decision_task_DD_L4,2021.2.3,MacIntel,5.494505495,,,,,,,,,,,1.162,1,,,,,,,,,,,,,,m,1,1.162,,,,,,,,0.028888889,-0.415555556,0,0,0,,0,159,159,28,1,CASINO,HB,old,m,./images/CASINOHB.png,,,,,,,,,,,,,,,,,,,,,,,,,,,,,,,,,,,
,,,,,,,,,,,,,,,,,,19,2022-02-12_12h35.28.818,lexical_decision_task_DD_L4,2021.2.3,MacIntel,5.494505495,,,,,,,,,,,0.528,1,,,,,,,,,,,,,,m,1,0.528,,,,,,,,0.028888889,-0.415555556,0,0,0,,0,160,160,71,1,BUBBLE,LB,old,m,./images/BUBBLELB.png,,,,,,,,,,,,,,,,,,,,,,,,,,,,,,,,,,,
,,,,,,,,,,,,,,,,,,19,2022-02-12_12h35.28.818,lexical_decision_task_DD_L4,2021.2.3,MacIntel,5.494505495,,,,,,,,,,,1.097,1,,,,,,,,,,,,,,z,1,1.097,,,,,,,,0.028888889,-0.415555556,0,0,0,,0,161,161,157,1,INLER,HB,old,z,./images/INLERHB.png,,,,,,,,,,,,,,,,,,,,,,,,,,,,,,,,,,,
,,,,,,,,,,,,,,,,,,19,2022-02-12_12h35.28.818,lexical_decision_task_DD_L4,2021.2.3,MacIntel,5.494505495,,,,,,,,,,,0.577,1,,,,,,,,,,,,,,m,1,0.577,,,,,,,,0.028888889,-0.415555556,0,0,0,,0,162,162,68,1,VALLEY,LB,old,m,./images/VALLEYLB.png,,,,,,,,,,,,,,,,,,,,,,,,,,,,,,,,,,,
,,,,,,,,,,,,,,,,,,19,2022-02-12_12h35.28.818,lexical_decision_task_DD_L4,2021.2.3,MacIntel,5.494505495,,,,,,,,,,,1.27,1,,,,,,,,,,,,,,m,1,1.27,,,,,,,,0.028888889,-0.415555556,0,0,0,,0,163,163,7,1,WAGON,HB,old,m,./images/WAGONHB.png,,,,,,,,,,,,,,,,,,,,,,,,,,,,,,,,,,,
,,,,,,,,,,,,,,,,,,19,2022-02-12_12h35.28.818,lexical_decision_task_DD_L4,2021.2.3,MacIntel,5.494505495,,,,,,,,,,,0.661,1,,,,,,,,,,,,,,z,1,0.661,,,,,,,,0.028888889,-0.415555556,0,0,0,,0,164,164,165,1,TROWN,C,old,z,./images/TROWN.png,,,,,,,,,,,,,,,,,,,,,,,,,,,,,,,,,,,
,,,,,,,,,,,,,,,,,,19,2022-02-12_12h35.28.818,lexical_decision_task_DD_L4,2021.2.3,MacIntel,5.494505495,,,,,,,,,,,0.563,1,,,,,,,,,,,,,,m,1,0.563,,,,,,,,0.028888889,-0.415555556,0,0,0,,0,165,165,38,1,ENGINE,LB,old,m,./images/ENGINELB.png,,,,,,,,,,,,,,,,,,,,,,,,,,,,,,,,,,,
,,,,,,,,,,,,,,,,,,19,2022-02-12_12h35.28.818,lexical_decision_task_DD_L4,2021.2.3,MacIntel,5.494505495,,,,,,,,,,,1.015,1,,,,,,,,,,,,,,m,1,1.015,,,,,,,,0.028888889,-0.415555556,0,0,0,,0,166,166,55,1,ALLEY,HB,old,m,./images/ALLEYHB.png,,,,,,,,,,,,,,,,,,,,,,,,,,,,,,,,,,,
,,,,,,,,,,,,,,,,,,19,2022-02-12_12h35.28.818,lexical_decision_task_DD_L4,2021.2.3,MacIntel,5.494505495,,,,,,,,,,,1.23,1,,,,,,,,,,,,,,z,1,1.23,,,,,,,,0.028888889,-0.415555556,0,0,0,,0,167,167,144,1,NAIRY,C,old,z,./images/NAIRY.png,,,,,,,,,,,,,,,,,,,,,,,,,,,,,,,,,,,
,,,,,,,,,,,,,,,,,,19,2022-02-12_12h35.28.818,lexical_decision_task_DD_L4,2021.2.3,MacIntel,5.494505495,,,,,,,,,,,,,,,,,,,,,,,,,,,,,,,,,,,,,,,,,,,,,,,,How likely will it be that you will recognize the words presented clearly on a scale of 0 (not likely) to 100 (most likely)?,,,,,0.012222222,-0.421111111,1,0,0,jol_adv,4,8.856,0,0,0,0,1,,,,,,,,,,,,,,,,,,,,,
,,,,,,,,,,,,,,,,,,19,2022-02-12_12h35.28.818,lexical_decision_task_DD_L4,2021.2.3,MacIntel,5.494505495,,,,,,,,,,,,,,,,,,,,,,,,,,,,,,,,,,,,,,,,,,,,,,,,How likely will it be that you will recognize the words presented slighly blurred on a scale of 0 (not likely) to 100 (most likely)?,,,,,,,,,,,3,6.804,0,1,1,1,1,,,,,,,,,,,,,,,,,,,,,
,,,,,,,,,,,,,,,,,,19,2022-02-12_12h35.28.818,lexical_decision_task_DD_L4,2021.2.3,MacIntel,5.494505495,,,,,,,,,,,,,,,,,,,,,,,,,,,,,,,,,,,,,,,,,,,,,,,,How likely will it be that you will recognize the words presented very blurred on a scale of 0 (not likely) to 100 (most likely)?,,,,,,,,,,,4,5.172,0,2,2,2,1,,,,,,,,,,,,,,,,,,,,,
,0.01,-0.364444444,1,0,0,instr_done_button,,,,,,1,test,"In the next phase you will be presented with the words from the the first phase. Your job is to decide whether you remember seeing the word or not. If you remember seeing the word press ""old"" or type ""m"". If you do not remember seeing the word press ""new"" or type ""z"". Please press the space bar or click on continue to begin. ",,,,19,2022-02-12_12h35.28.818,lexical_decision_task_DD_L4,2021.2.3,MacIntel,5.494505495,,,,,,,,,,,,,,,,,,,,,,,,,,,,,,,,,,,,,,,,,,,,,,,,,,,,,,,,,,,,,,,,,,0,0,0,0,1,,,,,,,,,,,,,,,,
,0.015555556,-0.387777778,1,0,0,instr_done_button,,,,,,1,test,"In the next phase you will be presented with the words from the the first phase. Your job is to decide whether you remember seeing the word or not. If you remember seeing the word press ""old"" or type ""m"". If you do not remember seeing the word press ""new"" or type ""z"". Please press the space bar or click on continue to begin. ",,,,19,2022-02-12_12h35.28.818,lexical_decision_task_DD_L4,2021.2.3,MacIntel,5.494505495,,,,,,,,,,,,,,,,,,,,,,,,,,,,,,,,,,,,,,,,,,,,,,,,,,,,,,,,,,,,,,,,,,1,0,1,0,1,,,,,,,,,,,,,,,,
,0.024444444,-0.413333333,1,0,0,instr_done_button,,,,,,1,test,"In the next phase you will be presented with the words from the the first phase. Your job is to decide whether you remember seeing the word or not. If you remember seeing the word press ""old"" or type ""m"". If you do not remember seeing the word press ""new"" or type ""z"". Please press the space bar or click on continue to begin. ",,,,19,2022-02-12_12h35.28.818,lexical_decision_task_DD_L4,2021.2.3,MacIntel,5.494505495,,,,,,,,,,,,,,,,,,,,,,,,,,,,,,,,,,,,,,,,,,,,,,,,,,,,,,,,,,,,,,,,,,2,0,2,0,1,,,,,,,,,,,,,,,,
space,0.02,-0.407777778,0,0,0,,,,,,,1,test,"In the next phase you will be presented with the words from the the first phase. Your job is to decide whether you remember seeing the word or not. If you remember seeing the word press ""old"" or type ""m"". If you do not remember seeing the word press ""new"" or type ""z"". Please press the space bar or click on continue to begin. ",,,,19,2022-02-12_12h35.28.818,lexical_decision_task_DD_L4,2021.2.3,MacIntel,5.494505495,,,,,,,,,,,,,,,,,,,,,,,,,,,,,,,,,,,,,,,,,,,,,,,,,,,,,,,,,,,,,,,,,,3,0,3,0,1,1.218,,,,,,,,,,,,,,,
,0.02,-0.407777778,1,0,0,instr_done_button,,,,,,1,test,"In the next phase you will be presented with the words from the the first phase. Your job is to decide whether you remember seeing the word or not. If you remember seeing the word press ""old"" or type ""m"". If you do not remember seeing the word press ""new"" or type ""z"". Please press the space bar or click on continue to begin. ",,,,19,2022-02-12_12h35.28.818,lexical_decision_task_DD_L4,2021.2.3,MacIntel,5.494505495,,,,,,,,,,,,,,,,,,,,,,,,,,,,,,,,,,,,,,,,,,,,,,,,,,,,,,,,,,,,,,,,,,4,0,4,0,1,,,,,,,,,,,,,,,,
,,,,,,,,,,,,,,,,,,19,2022-02-12_12h35.28.818,lexical_decision_task_DD_L4,2021.2.3,MacIntel,5.494505495,,,,,,,,,,,3.455,1,,,,,,,,,,,,,,,,,,,,,,,,0.02,-0.407777778,0,0,0,,,,,,,SMOKER,LB,z,y,./images/SMOKERLB.png,,,,,,,,,,,,,,,,,,,,,z,1,3.455,,,,,,,,0,0,0,110,1
,,,,,,,,,,,,,,,,,,19,2022-02-12_12h35.28.818,lexical_decision_task_DD_L4,2021.2.3,MacIntel,5.494505495,,,,,,,,,,,1.379,1,,,,,,,,,,,,,,,,,,,,,,,,0.02,-0.407777778,0,0,0,,,,,,,PISTOL,LB,m,y,./images/PISTOLLB.png,,,,,,,,,,,,,,,,,,,,,m,1,1.379,,,,,,,,0,1,1,29,1
,,,,,,,,,,,,,,,,,,19,2022-02-12_12h35.28.818,lexical_decision_task_DD_L4,2021.2.3,MacIntel,5.494505495,,,,,,,,,,,1.215,1,,,,,,,,,,,,,,,,,,,,,,,,0.02,-0.407777778,0,0,0,,,,,,,TOWEL,HB,m,y,./images/TOWELHB.png,,,,,,,,,,,,,,,,,,,,,m,1,1.215,,,,,,,,0,2,2,1,1
,,,,,,,,,,,,,,,,,,19,2022-02-12_12h35.28.818,lexical_decision_task_DD_L4,2021.2.3,MacIntel,5.494505495,,,,,,,,,,,0.936,1,,,,,,,,,,,,,,,,,,,,,,,,0.02,-0.407777778,0,0,0,,,,,,,CHAIN,C,m,y,./images/CHAIN.png,,,,,,,,,,,,,,,,,,,,,m,1,0.936,,,,,,,,0,3,3,42,1
,,,,,,,,,,,,,,,,,,19,2022-02-12_12h35.28.818,lexical_decision_task_DD_L4,2021.2.3,MacIntel,5.494505495,,,,,,,,,,,0.671,1,,,,,,,,,,,,,,,,,,,,,,,,0.02,-0.407777778,0,0,0,,,,,,,WHEEL,LB,m,y,./images/WHEELLB.png,,,,,,,,,,,,,,,,,,,,,m,1,0.671,,,,,,,,0,4,4,77,1
,,,,,,,,,,,,,,,,,,19,2022-02-12_12h35.28.818,lexical_decision_task_DD_L4,2021.2.3,MacIntel,5.494505495,,,,,,,,,,,1.188,0,,,,,,,,,,,,,,,,,,,,,,,,0.02,-0.407777778,0,0,0,,,,,,,CANOE,HB,m,y,./images/CANOEHB.png,,,,,,,,,,,,,,,,,,,,,z,0,1.188,,,,,,,,0,5,5,58,1
,,,,,,,,,,,,,,,,,,19,2022-02-12_12h35.28.818,lexical_decision_task_DD_L4,2021.2.3,MacIntel,5.494505495,,,,,,,,,,,0.891,1,,,,,,,,,,,,,,,,,,,,,,,,0.02,-0.407777778,0,0,0,,,,,,,WHISKY,LB,m,y,./images/WHISKYLB.png,,,,,,,,,,,,,,,,,,,,,m,1,0.891,,,,,,,,0,6,6,83,1
,,,,,,,,,,,,,,,,,,19,2022-02-12_12h35.28.818,lexical_decision_task_DD_L4,2021.2.3,MacIntel,5.494505495,,,,,,,,,,,1.198,1,,,,,,,,,,,,,,,,,,,,,,,,0.02,-0.407777778,0,0,0,,,,,,,WALNUT,C,m,y,./images/WALNUT.png,,,,,,,,,,,,,,,,,,,,,m,1,1.198,,,,,,,,0,7,7,0,1
,,,,,,,,,,,,,,,,,,19,2022-02-12_12h35.28.818,lexical_decision_task_DD_L4,2021.2.3,MacIntel,5.494505495,,,,,,,,,,,1.18,1,,,,,,,,,,,,,,,,,,,,,,,,0.02,-0.407777778,0,0,0,,,,,,,PACKET,LB,z,y,./images/PACKETLB.png,,,,,,,,,,,,,,,,,,,,,z,1,1.18,,,,,,,,0,8,8,140,1
,,,,,,,,,,,,,,,,,,19,2022-02-12_12h35.28.818,lexical_decision_task_DD_L4,2021.2.3,MacIntel,5.494505495,,,,,,,,,,,1.081,1,,,,,,,,,,,,,,,,,,,,,,,,0.02,-0.407777778,0,0,0,,,,,,,SKIING,LB,z,y,./images/SKIINGLB.png,,,,,,,,,,,,,,,,,,,,,z,1,1.081,,,,,,,,0,9,9,101,1
,,,,,,,,,,,,,,,,,,19,2022-02-12_12h35.28.818,lexical_decision_task_DD_L4,2021.2.3,MacIntel,5.494505495,,,,,,,,,,,1.198,0,,,,,,,,,,,,,,,,,,,,,,,,0.02,-0.407777778,0,0,0,,,,,,,RULER,HB,m,y,./images/RULERHB.png,,,,,,,,,,,,,,,,,,,,,z,0,1.198,,,,,,,,0,10,10,79,1
,,,,,,,,,,,,,,,,,,19,2022-02-12_12h35.28.818,lexical_decision_task_DD_L4,2021.2.3,MacIntel,5.494505495,,,,,,,,,,,1.195,0,,,,,,,,,,,,,,,,,,,,,,,,0.02,-0.407777778,0,0,0,,,,,,,MUMMY,HB,m,y,./images/MUMMYHB.png,,,,,,,,,,,,,,,,,,,,,z,0,1.195,,,,,,,,0,11,11,46,1
,,,,,,,,,,,,,,,,,,19,2022-02-12_12h35.28.818,lexical_decision_task_DD_L4,2021.2.3,MacIntel,5.494505495,,,,,,,,,,,1.172,1,,,,,,,,,,,,,,,,,,,,,,,,0.02,-0.407777778,0,0,0,,,,,,,DRUMS,HB,z,y,./images/DRUMSHB.png,,,,,,,,,,,,,,,,,,,,,z,1,1.172,,,,,,,,0,12,12,133,1
,,,,,,,,,,,,,,,,,,19,2022-02-12_12h35.28.818,lexical_decision_task_DD_L4,2021.2.3,MacIntel,5.494505495,,,,,,,,,,,0.755,1,,,,,,,,,,,,,,,,,,,,,,,,0.02,-0.407777778,0,0,0,,,,,,,SUNSET,HB,z,y,./images/SUNSETHB.png,,,,,,,,,,,,,,,,,,,,,z,1,0.755,,,,,,,,0,13,13,166,1
,,,,,,,,,,,,,,,,,,19,2022-02-12_12h35.28.818,lexical_decision_task_DD_L4,2021.2.3,MacIntel,5.494505495,,,,,,,,,,,0.839,0,,,,,,,,,,,,,,,,,,,,,,,,0.02,-0.407777778,0,0,0,,,,,,,STORM,C,z,y,./images/STORM.png,,,,,,,,,,,,,,,,,,,,,m,0,0.839,,,,,,,,0,14,14,114,1
,,,,,,,,,,,,,,,,,,19,2022-02-12_12h35.28.818,lexical_decision_task_DD_L4,2021.2.3,MacIntel,5.494505495,,,,,,,,,,,0.88,1,,,,,,,,,,,,,,,,,,,,,,,,0.02,-0.407777778,0,0,0,,,,,,,MELON,HB,z,y,./images/MELONHB.png,,,,,,,,,,,,,,,,,,,,,z,1,0.88,,,,,,,,0,15,15,106,1
,,,,,,,,,,,,,,,,,,19,2022-02-12_12h35.28.818,lexical_decision_task_DD_L4,2021.2.3,MacIntel,5.494505495,,,,,,,,,,,1.088,1,,,,,,,,,,,,,,,,,,,,,,,,0.02,-0.407777778,0,0,0,,,,,,,BEARD,LB,z,y,./images/BEARDLB.png,,,,,,,,,,,,,,,,,,,,,z,1,1.088,,,,,,,,0,16,16,86,1
,,,,,,,,,,,,,,,,,,19,2022-02-12_12h35.28.818,lexical_decision_task_DD_L4,2021.2.3,MacIntel,5.494505495,,,,,,,,,,,0.764,1,,,,,,,,,,,,,,,,,,,,,,,,0.02,-0.407777778,0,0,0,,,,,,,CLIFF,LB,m,y,./images/CLIFFLB.png,,,,,,,,,,,,,,,,,,,,,m,1,0.764,,,,,,,,0,17,17,8,1
,,,,,,,,,,,,,,,,,,19,2022-02-12_12h35.28.818,lexical_decision_task_DD_L4,2021.2.3,MacIntel,5.494505495,,,,,,,,,,,0.951,1,,,,,,,,,,,,,,,,,,,,,,,,0.02,-0.407777778,0,0,0,,,,,,,CRUMB,LB,z,y,./images/CRUMBLB.png,,,,,,,,,,,,,,,,,,,,,z,1,0.951,,,,,,,,0,18,18,113,1
,,,,,,,,,,,,,,,,,,19,2022-02-12_12h35.28.818,lexical_decision_task_DD_L4,2021.2.3,MacIntel,5.494505495,,,,,,,,,,,0.687,1,,,,,,,,,,,,,,,,,,,,,,,,0.02,-0.407777778,0,0,0,,,,,,,BASKET,LB,m,y,./images/BASKETLB.png,,,,,,,,,,,,,,,,,,,,,m,1,0.687,,,,,,,,0,19,19,44,1
,,,,,,,,,,,,,,,,,,19,2022-02-12_12h35.28.818,lexical_decision_task_DD_L4,2021.2.3,MacIntel,5.494505495,,,,,,,,,,,0.806,1,,,,,,,,,,,,,,,,,,,,,,,,0.02,-0.407777778,0,0,0,,,,,,,WEASEL,LB,z,y,./images/WEASELLB.png,,,,,,,,,,,,,,,,,,,,,z,1,0.806,,,,,,,,0,20,20,164,1
,,,,,,,,,,,,,,,,,,19,2022-02-12_12h35.28.818,lexical_decision_task_DD_L4,2021.2.3,MacIntel,5.494505495,,,,,,,,,,,0.797,0,,,,,,,,,,,,,,,,,,,,,,,,0.02,-0.407777778,0,0,0,,,,,,,BONNET,LB,z,y,./images/BONNETLB.png,,,,,,,,,,,,,,,,,,,,,m,0,0.797,,,,,,,,0,21,21,95,1
,,,,,,,,,,,,,,,,,,19,2022-02-12_12h35.28.818,lexical_decision_task_DD_L4,2021.2.3,MacIntel,5.494505495,,,,,,,,,,,0.626,1,,,,,,,,,,,,,,,,,,,,,,,,0.02,-0.407777778,0,0,0,,,,,,,BRIDE,HB,m,y,./images/BRIDEHB.png,,,,,,,,,,,,,,,,,,,,,m,1,0.626,,,,,,,,0,22,22,64,1
,,,,,,,,,,,,,,,,,,19,2022-02-12_12h35.28.818,lexical_decision_task_DD_L4,2021.2.3,MacIntel,5.494505495,,,,,,,,,,,0.625,1,,,,,,,,,,,,,,,,,,,,,,,,0.02,-0.407777778,0,0,0,,,,,,,ENGINE,LB,m,y,./images/ENGINELB.png,,,,,,,,,,,,,,,,,,,,,m,1,0.625,,,,,,,,0,23,23,38,1
,,,,,,,,,,,,,,,,,,19,2022-02-12_12h35.28.818,lexical_decision_task_DD_L4,2021.2.3,MacIntel,5.494505495,,,,,,,,,,,0.717,1,,,,,,,,,,,,,,,,,,,,,,,,0.02,-0.407777778,0,0,0,,,,,,,CHALK,HB,m,y,./images/CHALKHB.png,,,,,,,,,,,,,,,,,,,,,m,1,0.717,,,,,,,,0,24,24,25,1
,,,,,,,,,,,,,,,,,,19,2022-02-12_12h35.28.818,lexical_decision_task_DD_L4,2021.2.3,MacIntel,5.494505495,,,,,,,,,,,0.834,1,,,,,,,,,,,,,,,,,,,,,,,,0.02,-0.407777778,0,0,0,,,,,,,DRILL,C,m,y,./images/DRILL.png,,,,,,,,,,,,,,,,,,,,,m,1,0.834,,,,,,,,0,25,25,81,1
,,,,,,,,,,,,,,,,,,19,2022-02-12_12h35.28.818,lexical_decision_task_DD_L4,2021.2.3,MacIntel,5.494505495,,,,,,,,,,,0.847,0,,,,,,,,,,,,,,,,,,,,,,,,0.02,-0.407777778,0,0,0,,,,,,,CLOWN,HB,m,y,./images/CLOWNHB.png,,,,,,,,,,,,,,,,,,,,,z,0,0.847,,,,,,,,0,26,26,22,1
,,,,,,,,,,,,,,,,,,19,2022-02-12_12h35.28.818,lexical_decision_task_DD_L4,2021.2.3,MacIntel,5.494505495,,,,,,,,,,,0.728,1,,,,,,,,,,,,,,,,,,,,,,,,0.02,-0.407777778,0,0,0,,,,,,,CASINO,HB,m,y,./images/CASINOHB.png,,,,,,,,,,,,,,,,,,,,,m,1,0.728,,,,,,,,0,27,27,28,1
,,,,,,,,,,,,,,,,,,19,2022-02-12_12h35.28.818,lexical_decision_task_DD_L4,2021.2.3,MacIntel,5.494505495,,,,,,,,,,,1.029,1,,,,,,,,,,,,,,,,,,,,,,,,0.02,-0.407777778,0,0,0,,,,,,,QUILL,HB,z,y,./images/QUILLHB.png,,,,,,,,,,,,,,,,,,,,,z,1,1.029,,,,,,,,0,28,28,115,1
,,,,,,,,,,,,,,,,,,19,2022-02-12_12h35.28.818,lexical_decision_task_DD_L4,2021.2.3,MacIntel,5.494505495,,,,,,,,,,,1.306,1,,,,,,,,,,,,,,,,,,,,,,,,0.02,-0.407777778,0,0,0,,,,,,,BUNNY,HB,m,y,./images/BUNNYHB.png,,,,,,,,,,,,,,,,,,,,,m,1,1.306,,,,,,,,0,29,29,13,1
,,,,,,,,,,,,,,,,,,19,2022-02-12_12h35.28.818,lexical_decision_task_DD_L4,2021.2.3,MacIntel,5.494505495,,,,,,,,,,,0.671,1,,,,,,,,,,,,,,,,,,,,,,,,0.02,-0.407777778,0,0,0,,,,,,,JUMPER,LB,m,y,./images/JUMPERLB.png,,,,,,,,,,,,,,,,,,,,,m,1,0.671,,,,,,,,0,30,30,74,1
,,,,,,,,,,,,,,,,,,19,2022-02-12_12h35.28.818,lexical_decision_task_DD_L4,2021.2.3,MacIntel,5.494505495,,,,,,,,,,,0.601,0,,,,,,,,,,,,,,,,,,,,,,,,0.02,-0.407777778,0,0,0,,,,,,,ATTIC,C,z,y,./images/ATTIC.png,,,,,,,,,,,,,,,,,,,,,m,0,0.601,,,,,,,,0,31,31,111,1
,,,,,,,,,,,,,,,,,,19,2022-02-12_12h35.28.818,lexical_decision_task_DD_L4,2021.2.3,MacIntel,5.494505495,,,,,,,,,,,0.681,1,,,,,,,,,,,,,,,,,,,,,,,,0.02,-0.407777778,0,0,0,,,,,,,SAILOR,HB,z,y,./images/SAILORHB.png,,,,,,,,,,,,,,,,,,,,,z,1,0.681,,,,,,,,0,32,32,151,1
,,,,,,,,,,,,,,,,,,19,2022-02-12_12h35.28.818,lexical_decision_task_DD_L4,2021.2.3,MacIntel,5.494505495,,,,,,,,,,,0.792,1,,,,,,,,,,,,,,,,,,,,,,,,0.02,-0.407777778,0,0,0,,,,,,,PASTA,LB,z,y,./images/PASTALB.png,,,,,,,,,,,,,,,,,,,,,z,1,0.792,,,,,,,,0,33,33,89,1
,,,,,,,,,,,,,,,,,,19,2022-02-12_12h35.28.818,lexical_decision_task_DD_L4,2021.2.3,MacIntel,5.494505495,,,,,,,,,,,0.917,0,,,,,,,,,,,,,,,,,,,,,,,,0.02,-0.407777778,0,0,0,,,,,,,TIGER,HB,m,y,./images/TIGERHB.png,,,,,,,,,,,,,,,,,,,,,z,0,0.917,,,,,,,,0,34,34,37,1
,,,,,,,,,,,,,,,,,,19,2022-02-12_12h35.28.818,lexical_decision_task_DD_L4,2021.2.3,MacIntel,5.494505495,,,,,,,,,,,0.865,1,,,,,,,,,,,,,,,,,,,,,,,,0.02,-0.407777778,0,0,0,,,,,,,MIRROR,C,z,y,./images/MIRROR.png,,,,,,,,,,,,,,,,,,,,,z,1,0.865,,,,,,,,0,35,35,147,1
,,,,,,,,,,,,,,,,,,19,2022-02-12_12h35.28.818,lexical_decision_task_DD_L4,2021.2.3,MacIntel,5.494505495,,,,,,,,,,,0.73,1,,,,,,,,,,,,,,,,,,,,,,,,0.02,-0.407777778,0,0,0,,,,,,,SPORT,C,z,y,./images/SPORT.png,,,,,,,,,,,,,,,,,,,,,z,1,0.73,,,,,,,,0,36,36,132,1
,,,,,,,,,,,,,,,,,,19,2022-02-12_12h35.28.818,lexical_decision_task_DD_L4,2021.2.3,MacIntel,5.494505495,,,,,,,,,,,0.797,0,,,,,,,,,,,,,,,,,,,,,,,,0.02,-0.407777778,0,0,0,,,,,,,BUTTER,C,m,y,./images/BUTTER.png,,,,,,,,,,,,,,,,,,,,,z,0,0.797,,,,,,,,0,37,37,27,1
,,,,,,,,,,,,,,,,,,19,2022-02-12_12h35.28.818,lexical_decision_task_DD_L4,2021.2.3,MacIntel,5.494505495,,,,,,,,,,,1.022,1,,,,,,,,,,,,,,,,,,,,,,,,0.02,-0.407777778,0,0,0,,,,,,,PEARL,HB,z,y,./images/PEARLHB.png,,,,,,,,,,,,,,,,,,,,,z,1,1.022,,,,,,,,0,38,38,130,1
,,,,,,,,,,,,,,,,,,19,2022-02-12_12h35.28.818,lexical_decision_task_DD_L4,2021.2.3,MacIntel,5.494505495,,,,,,,,,,,0.741,0,,,,,,,,,,,,,,,,,,,,,,,,0.02,-0.407777778,0,0,0,,,,,,,COOKER,C,z,y,./images/COOKER.png,,,,,,,,,,,,,,,,,,,,,m,0,0.741,,,,,,,,0,39,39,153,1
,,,,,,,,,,,,,,,,,,19,2022-02-12_12h35.28.818,lexical_decision_task_DD_L4,2021.2.3,MacIntel,5.494505495,,,,,,,,,,,0.982,0,,,,,,,,,,,,,,,,,,,,,,,,0.02,-0.407777778,0,0,0,,,,,,,PILOT,LB,m,y,./images/PILOTLB.png,,,,,,,,,,,,,,,,,,,,,z,0,0.982,,,,,,,,0,40,40,50,1
,,,,,,,,,,,,,,,,,,19,2022-02-12_12h35.28.818,lexical_decision_task_DD_L4,2021.2.3,MacIntel,5.494505495,,,,,,,,,,,0.795,1,,,,,,,,,,,,,,,,,,,,,,,,0.02,-0.407777778,0,0,0,space,,,,,,STAIN,C,m,y,./images/STAIN.png,1.047,,,,,,,,,,,,,,,,,,,,m,1,0.795,,,,,,,,0,41,41,6,1
,,,,,,,,,,,,,,,,,,19,2022-02-12_12h35.28.818,lexical_decision_task_DD_L4,2021.2.3,MacIntel,5.494505495,,,,,,,,,,,1.139,1,,,,,,,,,,,,,,,,,,,,,,,,0.02,-0.407777778,0,0,0,,,,,,,GREASE,C,z,y,./images/GREASE.png,,,,,,,,,,,,,,,,,,,,,z,1,1.139,,,,,,,,0,42,42,99,1
,,,,,,,,,,,,,,,,,,19,2022-02-12_12h35.28.818,lexical_decision_task_DD_L4,2021.2.3,MacIntel,5.494505495,,,,,,,,,,,0.799,0,,,,,,,,,,,,,,,,,,,,,,,,0.02,-0.407777778,0,0,0,,,,,,,JELLY,HB,z,y,./images/JELLYHB.png,,,,,,,,,,,,,,,,,,,,,m,0,0.799,,,,,,,,0,43,43,148,1
,,,,,,,,,,,,,,,,,,19,2022-02-12_12h35.28.818,lexical_decision_task_DD_L4,2021.2.3,MacIntel,5.494505495,,,,,,,,,,,0.889,0,,,,,,,,,,,,,,,,,,,,,,,,0.02,-0.407777778,0,0,0,,,,,,,BELLY,HB,z,y,./images/BELLYHB.png,,,,,,,,,,,,,,,,,,,,,m,0,0.889,,,,,,,,0,44,44,94,1
,,,,,,,,,,,,,,,,,,19,2022-02-12_12h35.28.818,lexical_decision_task_DD_L4,2021.2.3,MacIntel,5.494505495,,,,,,,,,,,0.759,1,,,,,,,,,,,,,,,,,,,,,,,,0.02,-0.407777778,0,0,0,,,,,,,CLOTH,LB,m,y,./images/CLOTHLB.png,,,,,,,,,,,,,,,,,,,,,m,1,0.759,,,,,,,,0,45,45,23,1
,,,,,,,,,,,,,,,,,,19,2022-02-12_12h35.28.818,lexical_decision_task_DD_L4,2021.2.3,MacIntel,5.494505495,,,,,,,,,,,1.167,0,,,,,,,,,,,,,,,,,,,,,,,,0.02,-0.407777778,0,0,0,,,,,,,BISHOP,HB,m,y,./images/BISHOPHB.png,,,,,,,,,,,,,,,,,,,,,z,0,1.167,,,,,,,,0,46,46,49,1
,,,,,,,,,,,,,,,,,,19,2022-02-12_12h35.28.818,lexical_decision_task_DD_L4,2021.2.3,MacIntel,5.494505495,,,,,,,,,,,0.963,0,,,,,,,,,,,,,,,,,,,,,,,,0.02,-0.407777778,0,0,0,,,,,,,HAMMER,C,m,y,./images/HAMMER.png,,,,,,,,,,,,,,,,,,,,,z,0,0.963,,,,,,,,0,47,47,75,1
,,,,,,,,,,,,,,,,,,19,2022-02-12_12h35.28.818,lexical_decision_task_DD_L4,2021.2.3,MacIntel,5.494505495,,,,,,,,,,,0.751,0,,,,,,,,,,,,,,,,,,,,,,,,0.02,-0.407777778,0,0,0,,,,,,,CANDLE,HB,z,y,./images/CANDLEHB.png,,,,,,,,,,,,,,,,,,,,,m,0,0.751,,,,,,,,0,48,48,145,1
,,,,,,,,,,,,,,,,,,19,2022-02-12_12h35.28.818,lexical_decision_task_DD_L4,2021.2.3,MacIntel,5.494505495,,,,,,,,,,,0.574,1,,,,,,,,,,,,,,,,,,,,,,,,0.02,-0.407777778,0,0,0,,,,,,,VALLEY,LB,m,y,./images/VALLEYLB.png,,,,,,,,,,,,,,,,,,,,,m,1,0.574,,,,,,,,0,49,49,68,1
,,,,,,,,,,,,,,,,,,19,2022-02-12_12h35.28.818,lexical_decision_task_DD_L4,2021.2.3,MacIntel,5.494505495,,,,,,,,,,,0.913,1,,,,,,,,,,,,,,,,,,,,,,,,0.02,-0.407777778,0,0,0,,,,,,,BIRTH,HB,z,y,./images/BIRTHHB.png,,,,,,,,,,,,,,,,,,,,,z,1,0.913,,,,,,,,0,50,50,121,1
,,,,,,,,,,,,,,,,,,19,2022-02-12_12h35.28.818,lexical_decision_task_DD_L4,2021.2.3,MacIntel,5.494505495,,,,,,,,,,,0.707,1,,,,,,,,,,,,,,,,,,,,,,,,0.02,-0.407777778,0,0,0,,,,,,,CARPET,LB,z,y,./images/CARPETLB.png,,,,,,,,,,,,,,,,,,,,,z,1,0.707,,,,,,,,0,51,51,137,1
,,,,,,,,,,,,,,,,,,19,2022-02-12_12h35.28.818,lexical_decision_task_DD_L4,2021.2.3,MacIntel,5.494505495,,,,,,,,,,,0.718,1,,,,,,,,,,,,,,,,,,,,,,,,0.02,-0.407777778,0,0,0,,,,,,,HOCKEY,LB,m,y,./images/HOCKEYLB.png,,,,,,,,,,,,,,,,,,,,,m,1,0.718,,,,,,,,0,52,52,32,1
,,,,,,,,,,,,,,,,,,19,2022-02-12_12h35.28.818,lexical_decision_task_DD_L4,2021.2.3,MacIntel,5.494505495,,,,,,,,,,,0.688,1,,,,,,,,,,,,,,,,,,,,,,,,0.02,-0.407777778,0,0,0,,,,,,,PICKLE,LB,z,y,./images/PICKLELB.png,,,,,,,,,,,,,,,,,,,,,z,1,0.688,,,,,,,,0,53,53,98,1
,,,,,,,,,,,,,,,,,,19,2022-02-12_12h35.28.818,lexical_decision_task_DD_L4,2021.2.3,MacIntel,5.494505495,,,,,,,,,,,1.114,1,,,,,,,,,,,,,,,,,,,,,,,,0.02,-0.407777778,0,0,0,,,,,,,URINE,HB,z,y,./images/URINEHB.png,,,,,,,,,,,,,,,,,,,,,z,1,1.114,,,,,,,,0,54,54,154,1
,,,,,,,,,,,,,,,,,,19,2022-02-12_12h35.28.818,lexical_decision_task_DD_L4,2021.2.3,MacIntel,5.494505495,,,,,,,,,,,0.637,1,,,,,,,,,,,,,,,,,,,,,,,,0.02,-0.407777778,0,0,0,,,,,,,DANCER,C,m,y,./images/DANCER.png,,,,,,,,,,,,,,,,,,,,,m,1,0.637,,,,,,,,0,55,55,21,1
,,,,,,,,,,,,,,,,,,19,2022-02-12_12h35.28.818,lexical_decision_task_DD_L4,2021.2.3,MacIntel,5.494505495,,,,,,,,,,,0.787,1,,,,,,,,,,,,,,,,,,,,,,,,0.02,-0.407777778,0,0,0,,,,,,,COLLAR,C,m,y,./images/COLLAR.png,,,,,,,,,,,,,,,,,,,,,m,1,0.787,,,,,,,,0,56,56,15,1
,,,,,,,,,,,,,,,,,,19,2022-02-12_12h35.28.818,lexical_decision_task_DD_L4,2021.2.3,MacIntel,5.494505495,,,,,,,,,,,1.181,0,,,,,,,,,,,,,,,,,,,,,,,,0.02,-0.407777778,0,0,0,,,,,,,STRING,LB,z,y,./images/STRINGLB.png,,,,,,,,,,,,,,,,,,,,,m,0,1.181,,,,,,,,0,57,57,125,1
,,,,,,,,,,,,,,,,,,19,2022-02-12_12h35.28.818,lexical_decision_task_DD_L4,2021.2.3,MacIntel,5.494505495,,,,,,,,,,,1.158,0,,,,,,,,,,,,,,,,,,,,,,,,0.02,-0.407777778,0,0,0,,,,,,,SAUNA,C,m,y,./images/SAUNA.png,,,,,,,,,,,,,,,,,,,,,z,0,1.158,,,,,,,,0,58,58,33,1
,,,,,,,,,,,,,,,,,,19,2022-02-12_12h35.28.818,lexical_decision_task_DD_L4,2021.2.3,MacIntel,5.494505495,,,,,,,,,,,0.873,1,,,,,,,,,,,,,,,,,,,,,,,,0.02,-0.407777778,0,0,0,,,,,,,MEDAL,LB,m,y,./images/MEDALLB.png,,,,,,,,,,,,,,,,,,,,,m,1,0.873,,,,,,,,0,59,59,11,1
,,,,,,,,,,,,,,,,,,19,2022-02-12_12h35.28.818,lexical_decision_task_DD_L4,2021.2.3,MacIntel,5.494505495,,,,,,,,,,,0.683,1,,,,,,,,,,,,,,,,,,,,,,,,0.02,-0.407777778,0,0,0,,,,,,,PLANET,LB,m,y,./images/PLANETLB.png,,,,,,,,,,,,,,,,,,,,,m,1,0.683,,,,,,,,0,60,60,80,1
,,,,,,,,,,,,,,,,,,19,2022-02-12_12h35.28.818,lexical_decision_task_DD_L4,2021.2.3,MacIntel,5.494505495,,,,,,,,,,,0.729,1,,,,,,,,,,,,,,,,,,,,,,,,0.02,-0.407777778,0,0,0,,,,,,,THROAT,C,z,y,./images/THROAT.png,,,,,,,,,,,,,,,,,,,,,z,1,0.729,,,,,,,,0,61,61,120,1
,,,,,,,,,,,,,,,,,,19,2022-02-12_12h35.28.818,lexical_decision_task_DD_L4,2021.2.3,MacIntel,5.494505495,,,,,,,,,,,0.689,0,,,,,,,,,,,,,,,,,,,,,,,,0.02,-0.407777778,0,0,0,,,,,,,PAINT,HB,z,y,./images/PAINTHB.png,,,,,,,,,,,,,,,,,,,,,m,0,0.689,,,,,,,,0,62,62,91,1
,,,,,,,,,,,,,,,,,,19,2022-02-12_12h35.28.818,lexical_decision_task_DD_L4,2021.2.3,MacIntel,5.494505495,,,,,,,,,,,0.78,1,,,,,,,,,,,,,,,,,,,,,,,,0.02,-0.407777778,0,0,0,,,,,,,FALCON,HB,z,y,./images/FALCONHB.png,,,,,,,,,,,,,,,,,,,,,z,1,0.78,,,,,,,,0,63,63,112,1
,,,,,,,,,,,,,,,,,,19,2022-02-12_12h35.28.818,lexical_decision_task_DD_L4,2021.2.3,MacIntel,5.494505495,,,,,,,,,,,0.764,1,,,,,,,,,,,,,,,,,,,,,,,,0.02,-0.407777778,0,0,0,,,,,,,STEAK,HB,m,y,./images/STEAKHB.png,,,,,,,,,,,,,,,,,,,,,m,1,0.764,,,,,,,,0,64,64,31,1
,,,,,,,,,,,,,,,,,,19,2022-02-12_12h35.28.818,lexical_decision_task_DD_L4,2021.2.3,MacIntel,5.494505495,,,,,,,,,,,0.63,1,,,,,,,,,,,,,,,,,,,,,,,,0.02,-0.407777778,0,0,0,,,,,,,CRATER,C,m,y,./images/CRATER.png,,,,,,,,,,,,,,,,,,,,,m,1,0.63,,,,,,,,0,65,65,3,1
,,,,,,,,,,,,,,,,,,19,2022-02-12_12h35.28.818,lexical_decision_task_DD_L4,2021.2.3,MacIntel,5.494505495,,,,,,,,,,,0.714,1,,,,,,,,,,,,,,,,,,,,,,,,0.02,-0.407777778,0,0,0,,,,,,,PURSE,LB,z,y,./images/PURSELB.png,,,,,,,,,,,,,,,,,,,,,z,1,0.714,,,,,,,,0,66,66,146,1
,,,,,,,,,,,,,,,,,,19,2022-02-12_12h35.28.818,lexical_decision_task_DD_L4,2021.2.3,MacIntel,5.494505495,,,,,,,,,,,0.677,0,,,,,,,,,,,,,,,,,,,,,,,,0.02,-0.407777778,0,0,0,,,,,,,FOLDER,C,z,y,./images/FOLDER.png,,,,,,,,,,,,,,,,,,,,,m,0,0.677,,,,,,,,0,67,67,126,1
,,,,,,,,,,,,,,,,,,19,2022-02-12_12h35.28.818,lexical_decision_task_DD_L4,2021.2.3,MacIntel,5.494505495,,,,,,,,,,,0.749,1,,,,,,,,,,,,,,,,,,,,,,,,0.02,-0.407777778,0,0,0,,,,,,,POSTER,LB,m,y,./images/POSTERLB.png,,,,,,,,,,,,,,,,,,,,,m,1,0.749,,,,,,,,0,68,68,53,1
,,,,,,,,,,,,,,,,,,19,2022-02-12_12h35.28.818,lexical_decision_task_DD_L4,2021.2.3,MacIntel,5.494505495,,,,,,,,,,,0.721,0,,,,,,,,,,,,,,,,,,,,,,,,0.02,-0.407777778,0,0,0,,,,,,,PEACH,LB,z,y,./images/PEACHLB.png,,,,,,,,,,,,,,,,,,,,,m,0,0.721,,,,,,,,0,69,69,119,1
,,,,,,,,,,,,,,,,,,19,2022-02-12_12h35.28.818,lexical_decision_task_DD_L4,2021.2.3,MacIntel,5.494505495,,,,,,,,,,,0.779,1,,,,,,,,,,,,,,,,,,,,,,,,0.02,-0.407777778,0,0,0,,,,,,,GLOVE,HB,m,y,./images/GLOVEHB.png,,,,,,,,,,,,,,,,,,,,,m,1,0.779,,,,,,,,0,70,70,73,1
,,,,,,,,,,,,,,,,,,19,2022-02-12_12h35.28.818,lexical_decision_task_DD_L4,2021.2.3,MacIntel,5.494505495,,,,,,,,,,,0.541,0,,,,,,,,,,,,,,,,,,,,,,,,0.02,-0.407777778,0,0,0,,,,,,,MIDGET,HB,m,y,./images/MIDGETHB.png,,,,,,,,,,,,,,,,,,,,,z,0,0.541,,,,,,,,0,71,71,76,1
,,,,,,,,,,,,,,,,,,19,2022-02-12_12h35.28.818,lexical_decision_task_DD_L4,2021.2.3,MacIntel,5.494505495,,,,,,,,,,,0.63,1,,,,,,,,,,,,,,,,,,,,,,,,0.02,-0.407777778,0,0,0,,,,,,,STREAM,LB,m,y,./images/STREAMLB.png,,,,,,,,,,,,,,,,,,,,,m,1,0.63,,,,,,,,0,72,72,41,1
,,,,,,,,,,,,,,,,,,19,2022-02-12_12h35.28.818,lexical_decision_task_DD_L4,2021.2.3,MacIntel,5.494505495,,,,,,,,,,,0.915,1,,,,,,,,,,,,,,,,,,,,,,,,0.02,-0.407777778,0,0,0,,,,,,,SWING,HB,z,y,./images/SWINGHB.png,,,,,,,,,,,,,,,,,,,,,z,1,0.915,,,,,,,,0,73,73,124,1
,,,,,,,,,,,,,,,,,,19,2022-02-12_12h35.28.818,lexical_decision_task_DD_L4,2021.2.3,MacIntel,5.494505495,,,,,,,,,,,0.597,1,,,,,,,,,,,,,,,,,,,,,,,,0.02,-0.407777778,0,0,0,,,,,,,LLAMA,LB,m,y,./images/LLAMALB.png,,,,,,,,,,,,,,,,,,,,,m,1,0.597,,,,,,,,0,74,74,35,1
,,,,,,,,,,,,,,,,,,19,2022-02-12_12h35.28.818,lexical_decision_task_DD_L4,2021.2.3,MacIntel,5.494505495,,,,,,,,,,,0.755,1,,,,,,,,,,,,,,,,,,,,,,,,0.02,-0.407777778,0,0,0,,,,,,,RHINO,C,z,y,./images/RHINO.png,,,,,,,,,,,,,,,,,,,,,z,1,0.755,,,,,,,,0,75,75,93,1
,,,,,,,,,,,,,,,,,,19,2022-02-12_12h35.28.818,lexical_decision_task_DD_L4,2021.2.3,MacIntel,5.494505495,,,,,,,,,,,0.88,1,,,,,,,,,,,,,,,,,,,,,,,,0.02,-0.407777778,0,0,0,,,,,,,BANNER,HB,z,y,./images/BANNERHB.png,,,,,,,,,,,,,,,,,,,,,z,1,0.88,,,,,,,,0,76,76,136,1
,,,,,,,,,,,,,,,,,,19,2022-02-12_12h35.28.818,lexical_decision_task_DD_L4,2021.2.3,MacIntel,5.494505495,,,,,,,,,,,0.688,0,,,,,,,,,,,,,,,,,,,,,,,,0.02,-0.407777778,0,0,0,,,,,,,BARREL,LB,z,y,./images/BARRELLB.png,,,,,,,,,,,,,,,,,,,,,m,0,0.688,,,,,,,,0,77,77,116,1
,,,,,,,,,,,,,,,,,,19,2022-02-12_12h35.28.818,lexical_decision_task_DD_L4,2021.2.3,MacIntel,5.494505495,,,,,,,,,,,0.713,1,,,,,,,,,,,,,,,,,,,,,,,,0.02,-0.407777778,0,0,0,,,,,,,RAZOR,HB,m,y,./images/RAZORHB.png,,,,,,,,,,,,,,,,,,,,,m,1,0.713,,,,,,,,0,78,78,34,1
,,,,,,,,,,,,,,,,,,19,2022-02-12_12h35.28.818,lexical_decision_task_DD_L4,2021.2.3,MacIntel,5.494505495,,,,,,,,,,,0.596,1,,,,,,,,,,,,,,,,,,,,,,,,0.02,-0.407777778,0,0,0,,,,,,,MOSQUE,HB,z,y,./images/MOSQUEHB.png,,,,,,,,,,,,,,,,,,,,,z,1,0.596,,,,,,,,0,79,79,127,1
,,,,,,,,,,,,,,,,,,19,2022-02-12_12h35.28.818,lexical_decision_task_DD_L4,2021.2.3,MacIntel,5.494505495,,,,,,,,,,,0.622,1,,,,,,,,,,,,,,,,,,,,,,,,0.02,-0.407777778,0,0,0,,,,,,,HEATER,LB,m,y,./images/HEATERLB.png,,,,,,,,,,,,,,,,,,,,,m,1,0.622,,,,,,,,0,80,80,56,1
,,,,,,,,,,,,,,,,,,19,2022-02-12_12h35.28.818,lexical_decision_task_DD_L4,2021.2.3,MacIntel,5.494505495,,,,,,,,,,,0.655,1,,,,,,,,,,,,,,,,,,,,,,,,0.02,-0.407777778,0,0,0,,,,,,,PLANK,HB,z,y,./images/PLANKHB.png,,,,,,,,,,,,,,,,,,,,,z,1,0.655,,,,,,,,0,81,81,85,1
,,,,,,,,,,,,,,,,,,19,2022-02-12_12h35.28.818,lexical_decision_task_DD_L4,2021.2.3,MacIntel,5.494505495,,,,,,,,,,,0.822,1,,,,,,,,,,,,,,,,,,,,,,,,0.02,-0.407777778,0,0,0,,,,,,,PENCE,HB,z,y,./images/PENCEHB.png,,,,,,,,,,,,,,,,,,,,,z,1,0.822,,,,,,,,0,82,82,100,1
,,,,,,,,,,,,,,,,,,19,2022-02-12_12h35.28.818,lexical_decision_task_DD_L4,2021.2.3,MacIntel,5.494505495,,,,,,,,,,,1.115,1,,,,,,,,,,,,,,,,,,,,,,,,0.02,-0.407777778,0,0,0,space,,,,,,TWINS,C,z,y,./images/TWINS.png,0.839,,,,,,,,,,,,,,,,,,,,z,1,1.115,,,,,,,,0,83,83,144,1
,,,,,,,,,,,,,,,,,,19,2022-02-12_12h35.28.818,lexical_decision_task_DD_L4,2021.2.3,MacIntel,5.494505495,,,,,,,,,,,0.784,1,,,,,,,,,,,,,,,,,,,,,,,,0.02,-0.407777778,0,0,0,,,,,,,STATUE,C,m,y,./images/STATUE.png,,,,,,,,,,,,,,,,,,,,,m,1,0.784,,,,,,,,0,84,84,66,1
,,,,,,,,,,,,,,,,,,19,2022-02-12_12h35.28.818,lexical_decision_task_DD_L4,2021.2.3,MacIntel,5.494505495,,,,,,,,,,,0.643,1,,,,,,,,,,,,,,,,,,,,,,,,0.02,-0.407777778,0,0,0,,,,,,,DONKEY,HB,m,y,./images/DONKEYHB.png,,,,,,,,,,,,,,,,,,,,,m,1,0.643,,,,,,,,0,85,85,19,1
,,,,,,,,,,,,,,,,,,19,2022-02-12_12h35.28.818,lexical_decision_task_DD_L4,2021.2.3,MacIntel,5.494505495,,,,,,,,,,,0.782,1,,,,,,,,,,,,,,,,,,,,,,,,0.02,-0.407777778,0,0,0,,,,,,,DIVER,C,m,y,./images/DIVER.png,,,,,,,,,,,,,,,,,,,,,m,1,0.782,,,,,,,,0,86,86,9,1
,,,,,,,,,,,,,,,,,,19,2022-02-12_12h35.28.818,lexical_decision_task_DD_L4,2021.2.3,MacIntel,5.494505495,,,,,,,,,,,0.784,1,,,,,,,,,,,,,,,,,,,,,,,,0.02,-0.407777778,0,0,0,,,,,,,FLASK,C,m,y,./images/FLASK.png,,,,,,,,,,,,,,,,,,,,,m,1,0.784,,,,,,,,0,87,87,72,1
,,,,,,,,,,,,,,,,,,19,2022-02-12_12h35.28.818,lexical_decision_task_DD_L4,2021.2.3,MacIntel,5.494505495,,,,,,,,,,,0.914,0,,,,,,,,,,,,,,,,,,,,,,,,0.02,-0.407777778,0,0,0,,,,,,,CRADLE,LB,z,y,./images/CRADLELB.png,,,,,,,,,,,,,,,,,,,,,m,0,0.914,,,,,,,,0,88,88,104,1
,,,,,,,,,,,,,,,,,,19,2022-02-12_12h35.28.818,lexical_decision_task_DD_L4,2021.2.3,MacIntel,5.494505495,,,,,,,,,,,0.605,1,,,,,,,,,,,,,,,,,,,,,,,,0.02,-0.407777778,0,0,0,,,,,,,JAGUAR,C,z,y,./images/JAGUAR.png,,,,,,,,,,,,,,,,,,,,,z,1,0.605,,,,,,,,0,89,89,102,1
,,,,,,,,,,,,,,,,,,19,2022-02-12_12h35.28.818,lexical_decision_task_DD_L4,2021.2.3,MacIntel,5.494505495,,,,,,,,,,,0.746,1,,,,,,,,,,,,,,,,,,,,,,,,0.02,-0.407777778,0,0,0,,,,,,,PARCEL,C,m,y,./images/PARCEL.png,,,,,,,,,,,,,,,,,,,,,m,1,0.746,,,,,,,,0,90,90,18,1
,,,,,,,,,,,,,,,,,,19,2022-02-12_12h35.28.818,lexical_decision_task_DD_L4,2021.2.3,MacIntel,5.494505495,,,,,,,,,,,0.745,1,,,,,,,,,,,,,,,,,,,,,,,,0.02,-0.407777778,0,0,0,,,,,,,KITTEN,C,z,y,./images/KITTEN.png,,,,,,,,,,,,,,,,,,,,,z,1,0.745,,,,,,,,0,91,91,129,1
,,,,,,,,,,,,,,,,,,19,2022-02-12_12h35.28.818,lexical_decision_task_DD_L4,2021.2.3,MacIntel,5.494505495,,,,,,,,,,,0.841,1,,,,,,,,,,,,,,,,,,,,,,,,0.02,-0.407777778,0,0,0,,,,,,,BURIAL,LB,z,y,./images/BURIALLB.png,,,,,,,,,,,,,,,,,,,,,z,1,0.841,,,,,,,,0,92,92,143,1
,,,,,,,,,,,,,,,,,,19,2022-02-12_12h35.28.818,lexical_decision_task_DD_L4,2021.2.3,MacIntel,5.494505495,,,,,,,,,,,1.097,1,,,,,,,,,,,,,,,,,,,,,,,,0.02,-0.407777778,0,0,0,,,,,,,CHERRY,C,m,y,./images/CHERRY.png,,,,,,,,,,,,,,,,,,,,,m,1,1.097,,,,,,,,0,93,93,54,1
,,,,,,,,,,,,,,,,,,19,2022-02-12_12h35.28.818,lexical_decision_task_DD_L4,2021.2.3,MacIntel,5.494505495,,,,,,,,,,,0.666,1,,,,,,,,,,,,,,,,,,,,,,,,0.02,-0.407777778,0,0,0,,,,,,,SHIELD,C,m,y,./images/SHIELD.png,,,,,,,,,,,,,,,,,,,,,m,1,0.666,,,,,,,,0,94,94,48,1
,,,,,,,,,,,,,,,,,,19,2022-02-12_12h35.28.818,lexical_decision_task_DD_L4,2021.2.3,MacIntel,5.494505495,,,,,,,,,,,0.679,1,,,,,,,,,,,,,,,,,,,,,,,,0.02,-0.407777778,0,0,0,,,,,,,ARTIST,HB,m,y,./images/ARTISTHB.png,,,,,,,,,,,,,,,,,,,,,m,1,0.679,,,,,,,,0,95,95,61,1
,,,,,,,,,,,,,,,,,,19,2022-02-12_12h35.28.818,lexical_decision_task_DD_L4,2021.2.3,MacIntel,5.494505495,,,,,,,,,,,0.799,1,,,,,,,,,,,,,,,,,,,,,,,,0.02,-0.407777778,0,0,0,,,,,,,STOOL,HB,m,y,./images/STOOLHB.png,,,,,,,,,,,,,,,,,,,,,m,1,0.799,,,,,,,,0,96,96,43,1
,,,,,,,,,,,,,,,,,,19,2022-02-12_12h35.28.818,lexical_decision_task_DD_L4,2021.2.3,MacIntel,5.494505495,,,,,,,,,,,0.7,1,,,,,,,,,,,,,,,,,,,,,,,,0.02,-0.407777778,0,0,0,,,,,,,NOOSE,C,z,y,./images/NOOSE.png,,,,,,,,,,,,,,,,,,,,,z,1,0.7,,,,,,,,0,97,97,156,1
,,,,,,,,,,,,,,,,,,19,2022-02-12_12h35.28.818,lexical_decision_task_DD_L4,2021.2.3,MacIntel,5.494505495,,,,,,,,,,,0.964,1,,,,,,,,,,,,,,,,,,,,,,,,0.02,-0.407777778,0,0,0,,,,,,,FINGER,C,z,y,./images/FINGER.png,,,,,,,,,,,,,,,,,,,,,z,1,0.964,,,,,,,,0,98,98,87,1
,,,,,,,,,,,,,,,,,,19,2022-02-12_12h35.28.818,lexical_decision_task_DD_L4,2021.2.3,MacIntel,5.494505495,,,,,,,,,,,0.722,1,,,,,,,,,,,,,,,,,,,,,,,,0.02,-0.407777778,0,0,0,,,,,,,STOVE,LB,m,y,./images/STOVELB.png,,,,,,,,,,,,,,,,,,,,,m,1,0.722,,,,,,,,0,99,99,2,1
,,,,,,,,,,,,,,,,,,19,2022-02-12_12h35.28.818,lexical_decision_task_DD_L4,2021.2.3,MacIntel,5.494505495,,,,,,,,,,,0.622,1,,,,,,,,,,,,,,,,,,,,,,,,0.02,-0.407777778,0,0,0,,,,,,,BRUSH,LB,m,y,./images/BRUSHLB.png,,,,,,,,,,,,,,,,,,,,,m,1,0.622,,,,,,,,0,100,100,59,1
,,,,,,,,,,,,,,,,,,19,2022-02-12_12h35.28.818,lexical_decision_task_DD_L4,2021.2.3,MacIntel,5.494505495,,,,,,,,,,,0.858,1,,,,,,,,,,,,,,,,,,,,,,,,0.02,-0.407777778,0,0,0,,,,,,,GRANNY,LB,m,y,./images/GRANNYLB.png,,,,,,,,,,,,,,,,,,,,,m,1,0.858,,,,,,,,0,101,101,20,1
,,,,,,,,,,,,,,,,,,19,2022-02-12_12h35.28.818,lexical_decision_task_DD_L4,2021.2.3,MacIntel,5.494505495,,,,,,,,,,,0.689,1,,,,,,,,,,,,,,,,,,,,,,,,0.02,-0.407777778,0,0,0,,,,,,,CLOUD,LB,m,y,./images/CLOUDLB.png,,,,,,,,,,,,,,,,,,,,,m,1,0.689,,,,,,,,0,102,102,26,1
,,,,,,,,,,,,,,,,,,19,2022-02-12_12h35.28.818,lexical_decision_task_DD_L4,2021.2.3,MacIntel,5.494505495,,,,,,,,,,,0.94,1,,,,,,,,,,,,,,,,,,,,,,,,0.02,-0.407777778,0,0,0,,,,,,,FARMER,LB,z,y,./images/FARMERLB.png,,,,,,,,,,,,,,,,,,,,,z,1,0.94,,,,,,,,0,103,103,149,1
,,,,,,,,,,,,,,,,,,19,2022-02-12_12h35.28.818,lexical_decision_task_DD_L4,2021.2.3,MacIntel,5.494505495,,,,,,,,,,,0.908,0,,,,,,,,,,,,,,,,,,,,,,,,0.02,-0.407777778,0,0,0,,,,,,,JUNGLE,LB,z,y,./images/JUNGLELB.png,,,,,,,,,,,,,,,,,,,,,m,0,0.908,,,,,,,,0,104,104,167,1
,,,,,,,,,,,,,,,,,,19,2022-02-12_12h35.28.818,lexical_decision_task_DD_L4,2021.2.3,MacIntel,5.494505495,,,,,,,,,,,0.699,1,,,,,,,,,,,,,,,,,,,,,,,,0.02,-0.407777778,0,0,0,,,,,,,MUSCLE,HB,z,y,./images/MUSCLEHB.png,,,,,,,,,,,,,,,,,,,,,z,1,0.699,,,,,,,,0,105,105,88,1
,,,,,,,,,,,,,,,,,,19,2022-02-12_12h35.28.818,lexical_decision_task_DD_L4,2021.2.3,MacIntel,5.494505495,,,,,,,,,,,0.615,0,,,,,,,,,,,,,,,,,,,,,,,,0.02,-0.407777778,0,0,0,,,,,,,CANYON,HB,z,y,./images/CANYONHB.png,,,,,,,,,,,,,,,,,,,,,m,0,0.615,,,,,,,,0,106,106,118,1
,,,,,,,,,,,,,,,,,,19,2022-02-12_12h35.28.818,lexical_decision_task_DD_L4,2021.2.3,MacIntel,5.494505495,,,,,,,,,,,1.047,0,,,,,,,,,,,,,,,,,,,,,,,,0.02,-0.407777778,0,0,0,,,,,,,BUBBLE,LB,m,y,./images/BUBBLELB.png,,,,,,,,,,,,,,,,,,,,,z,0,1.047,,,,,,,,0,107,107,71,1
,,,,,,,,,,,,,,,,,,19,2022-02-12_12h35.28.818,lexical_decision_task_DD_L4,2021.2.3,MacIntel,5.494505495,,,,,,,,,,,0.845,1,,,,,,,,,,,,,,,,,,,,,,,,0.02,-0.407777778,0,0,0,,,,,,,BROOM,C,m,y,./images/BROOM.png,,,,,,,,,,,,,,,,,,,,,m,1,0.845,,,,,,,,0,108,108,78,1
,,,,,,,,,,,,,,,,,,19,2022-02-12_12h35.28.818,lexical_decision_task_DD_L4,2021.2.3,MacIntel,5.494505495,,,,,,,,,,,0.824,0,,,,,,,,,,,,,,,,,,,,,,,,0.02,-0.407777778,0,0,0,,,,,,,SAUCE,C,m,y,./images/SAUCE.png,,,,,,,,,,,,,,,,,,,,,z,0,0.824,,,,,,,,0,109,109,51,1
,,,,,,,,,,,,,,,,,,19,2022-02-12_12h35.28.818,lexical_decision_task_DD_L4,2021.2.3,MacIntel,5.494505495,,,,,,,,,,,0.688,1,,,,,,,,,,,,,,,,,,,,,,,,0.02,-0.407777778,0,0,0,,,,,,,MONKEY,C,m,y,./images/MONKEY.png,,,,,,,,,,,,,,,,,,,,,m,1,0.688,,,,,,,,0,110,110,45,1
,,,,,,,,,,,,,,,,,,19,2022-02-12_12h35.28.818,lexical_decision_task_DD_L4,2021.2.3,MacIntel,5.494505495,,,,,,,,,,,0.621,1,,,,,,,,,,,,,,,,,,,,,,,,0.02,-0.407777778,0,0,0,,,,,,,MUFFIN,HB,z,y,./images/MUFFINHB.png,,,,,,,,,,,,,,,,,,,,,z,1,0.621,,,,,,,,0,111,111,139,1
,,,,,,,,,,,,,,,,,,19,2022-02-12_12h35.28.818,lexical_decision_task_DD_L4,2021.2.3,MacIntel,5.494505495,,,,,,,,,,,1.173,1,,,,,,,,,,,,,,,,,,,,,,,,0.02,-0.407777778,0,0,0,,,,,,,CRUST,HB,z,y,./images/CRUSTHB.png,,,,,,,,,,,,,,,,,,,,,z,1,1.173,,,,,,,,0,112,112,163,1
,,,,,,,,,,,,,,,,,,19,2022-02-12_12h35.28.818,lexical_decision_task_DD_L4,2021.2.3,MacIntel,5.494505495,,,,,,,,,,,1.147,0,,,,,,,,,,,,,,,,,,,,,,,,0.02,-0.407777778,0,0,0,,,,,,,SHORE,C,z,y,./images/SHORE.png,,,,,,,,,,,,,,,,,,,,,m,0,1.147,,,,,,,,0,113,113,96,1
,,,,,,,,,,,,,,,,,,19,2022-02-12_12h35.28.818,lexical_decision_task_DD_L4,2021.2.3,MacIntel,5.494505495,,,,,,,,,,,0.889,1,,,,,,,,,,,,,,,,,,,,,,,,0.02,-0.407777778,0,0,0,,,,,,,SQUARE,C,z,y,./images/SQUARE.png,,,,,,,,,,,,,,,,,,,,,z,1,0.889,,,,,,,,0,114,114,90,1
,,,,,,,,,,,,,,,,,,19,2022-02-12_12h35.28.818,lexical_decision_task_DD_L4,2021.2.3,MacIntel,5.494505495,,,,,,,,,,,0.718,1,,,,,,,,,,,,,,,,,,,,,,,,0.02,-0.407777778,0,0,0,,,,,,,INFANT,HB,z,y,./images/INFANTHB.png,,,,,,,,,,,,,,,,,,,,,z,1,0.718,,,,,,,,0,115,115,160,1
,,,,,,,,,,,,,,,,,,19,2022-02-12_12h35.28.818,lexical_decision_task_DD_L4,2021.2.3,MacIntel,5.494505495,,,,,,,,,,,0.688,1,,,,,,,,,,,,,,,,,,,,,,,,0.02,-0.407777778,0,0,0,,,,,,,GARDEN,HB,m,y,./images/GARDENHB.png,,,,,,,,,,,,,,,,,,,,,m,1,0.688,,,,,,,,0,116,116,10,1
,,,,,,,,,,,,,,,,,,19,2022-02-12_12h35.28.818,lexical_decision_task_DD_L4,2021.2.3,MacIntel,5.494505495,,,,,,,,,,,0.613,1,,,,,,,,,,,,,,,,,,,,,,,,0.02,-0.407777778,0,0,0,,,,,,,ONION,C,z,y,./images/ONION.png,,,,,,,,,,,,,,,,,,,,,z,1,0.613,,,,,,,,0,117,117,135,1
,,,,,,,,,,,,,,,,,,19,2022-02-12_12h35.28.818,lexical_decision_task_DD_L4,2021.2.3,MacIntel,5.494505495,,,,,,,,,,,0.958,1,,,,,,,,,,,,,,,,,,,,,,,,0.02,-0.407777778,0,0,0,,,,,,,POODLE,C,z,y,./images/POODLE.png,,,,,,,,,,,,,,,,,,,,,z,1,0.958,,,,,,,,0,118,118,165,1
,,,,,,,,,,,,,,,,,,19,2022-02-12_12h35.28.818,lexical_decision_task_DD_L4,2021.2.3,MacIntel,5.494505495,,,,,,,,,,,0.667,1,,,,,,,,,,,,,,,,,,,,,,,,0.02,-0.407777778,0,0,0,,,,,,,BAMBOO,LB,m,y,./images/BAMBOOLB.png,,,,,,,,,,,,,,,,,,,,,m,1,0.667,,,,,,,,0,119,119,5,1
,,,,,,,,,,,,,,,,,,19,2022-02-12_12h35.28.818,lexical_decision_task_DD_L4,2021.2.3,MacIntel,5.494505495,,,,,,,,,,,0.764,1,,,,,,,,,,,,,,,,,,,,,,,,0.02,-0.407777778,0,0,0,,,,,,,GRAIN,C,z,y,./images/GRAIN.png,,,,,,,,,,,,,,,,,,,,,z,1,0.764,,,,,,,,0,120,120,159,1
,,,,,,,,,,,,,,,,,,19,2022-02-12_12h35.28.818,lexical_decision_task_DD_L4,2021.2.3,MacIntel,5.494505495,,,,,,,,,,,0.655,0,,,,,,,,,,,,,,,,,,,,,,,,0.02,-0.407777778,0,0,0,,,,,,,SNAKE,HB,m,y,./images/SNAKEHB.png,,,,,,,,,,,,,,,,,,,,,z,0,0.655,,,,,,,,0,121,121,40,1
,,,,,,,,,,,,,,,,,,19,2022-02-12_12h35.28.818,lexical_decision_task_DD_L4,2021.2.3,MacIntel,5.494505495,,,,,,,,,,,0.554,1,,,,,,,,,,,,,,,,,,,,,,,,0.02,-0.407777778,0,0,0,,,,,,,BAKER,C,m,y,./images/BAKER.png,,,,,,,,,,,,,,,,,,,,,m,1,0.554,,,,,,,,0,122,122,63,1
,,,,,,,,,,,,,,,,,,19,2022-02-12_12h35.28.818,lexical_decision_task_DD_L4,2021.2.3,MacIntel,5.494505495,,,,,,,,,,,0.648,0,,,,,,,,,,,,,,,,,,,,,,,,0.02,-0.407777778,0,0,0,,,,,,,SWEAT,C,z,y,./images/SWEAT.png,,,,,,,,,,,,,,,,,,,,,m,0,0.648,,,,,,,,0,123,123,150,1
,,,,,,,,,,,,,,,,,,19,2022-02-12_12h35.28.818,lexical_decision_task_DD_L4,2021.2.3,MacIntel,5.494505495,,,,,,,,,,,1.849,1,,,,,,,,,,,,,,,,,,,,,,,,0.02,-0.407777778,0,0,0,,,,,,,BANANA,HB,m,y,./images/BANANAHB.png,,,,,,,,,,,,,,,,,,,,,m,1,1.849,,,,,,,,0,124,124,70,1
,,,,,,,,,,,,,,,,,,19,2022-02-12_12h35.28.818,lexical_decision_task_DD_L4,2021.2.3,MacIntel,5.494505495,,,,,,,,,,,0.958,0,,,,,,,,,,,,,,,,,,,,,,,,0.02,-0.407777778,0,0,0,space,,,,,,MALLET,LB,z,y,./images/MALLETLB.png,0.731,,,,,,,,,,,,,,,,,,,,m,0,0.958,,,,,,,,0,125,125,134,1
,,,,,,,,,,,,,,,,,,19,2022-02-12_12h35.28.818,lexical_decision_task_DD_L4,2021.2.3,MacIntel,5.494505495,,,,,,,,,,,0.663,1,,,,,,,,,,,,,,,,,,,,,,,,0.02,-0.407777778,0,0,0,,,,,,,POKER,HB,m,y,./images/POKERHB.png,,,,,,,,,,,,,,,,,,,,,m,1,0.663,,,,,,,,0,126,126,67,1
,,,,,,,,,,,,,,,,,,19,2022-02-12_12h35.28.818,lexical_decision_task_DD_L4,2021.2.3,MacIntel,5.494505495,,,,,,,,,,,0.978,1,,,,,,,,,,,,,,,,,,,,,,,,0.02,-0.407777778,0,0,0,,,,,,,MOTOR,HB,z,y,./images/MOTORHB.png,,,,,,,,,,,,,,,,,,,,,z,1,0.978,,,,,,,,0,127,127,97,1
,,,,,,,,,,,,,,,,,,19,2022-02-12_12h35.28.818,lexical_decision_task_DD_L4,2021.2.3,MacIntel,5.494505495,,,,,,,,,,,0.656,1,,,,,,,,,,,,,,,,,,,,,,,,0.02,-0.407777778,0,0,0,,,,,,,PIMPLE,LB,z,y,./images/PIMPLELB.png,,,,,,,,,,,,,,,,,,,,,z,1,0.656,,,,,,,,0,128,128,155,1
,,,,,,,,,,,,,,,,,,19,2022-02-12_12h35.28.818,lexical_decision_task_DD_L4,2021.2.3,MacIntel,5.494505495,,,,,,,,,,,0.714,1,,,,,,,,,,,,,,,,,,,,,,,,0.02,-0.407777778,0,0,0,,,,,,,CURRY,C,m,y,./images/CURRY.png,,,,,,,,,,,,,,,,,,,,,m,1,0.714,,,,,,,,0,129,129,60,1
,,,,,,,,,,,,,,,,,,19,2022-02-12_12h35.28.818,lexical_decision_task_DD_L4,2021.2.3,MacIntel,5.494505495,,,,,,,,,,,0.648,0,,,,,,,,,,,,,,,,,,,,,,,,0.02,-0.407777778,0,0,0,,,,,,,COUCH,LB,z,y,./images/COUCHLB.png,,,,,,,,,,,,,,,,,,,,,m,0,0.648,,,,,,,,0,130,130,161,1
,,,,,,,,,,,,,,,,,,19,2022-02-12_12h35.28.818,lexical_decision_task_DD_L4,2021.2.3,MacIntel,5.494505495,,,,,,,,,,,0.624,1,,,,,,,,,,,,,,,,,,,,,,,,0.02,-0.407777778,0,0,0,,,,,,,LAGOON,LB,m,y,./images/LAGOONLB.png,,,,,,,,,,,,,,,,,,,,,m,1,0.624,,,,,,,,0,131,131,47,1
,,,,,,,,,,,,,,,,,,19,2022-02-12_12h35.28.818,lexical_decision_task_DD_L4,2021.2.3,MacIntel,5.494505495,,,,,,,,,,,0.641,1,,,,,,,,,,,,,,,,,,,,,,,,0.02,-0.407777778,0,0,0,,,,,,,ARROW,C,m,y,./images/ARROW.png,,,,,,,,,,,,,,,,,,,,,m,1,0.641,,,,,,,,0,132,132,69,1
,,,,,,,,,,,,,,,,,,19,2022-02-12_12h35.28.818,lexical_decision_task_DD_L4,2021.2.3,MacIntel,5.494505495,,,,,,,,,,,1.037,1,,,,,,,,,,,,,,,,,,,,,,,,0.02,-0.407777778,0,0,0,,,,,,,MOOSE,C,z,y,./images/MOOSE.png,,,,,,,,,,,,,,,,,,,,,z,1,1.037,,,,,,,,0,133,133,141,1
,,,,,,,,,,,,,,,,,,19,2022-02-12_12h35.28.818,lexical_decision_task_DD_L4,2021.2.3,MacIntel,5.494505495,,,,,,,,,,,0.647,1,,,,,,,,,,,,,,,,,,,,,,,,0.02,-0.407777778,0,0,0,,,,,,,ALLEY,HB,m,y,./images/ALLEYHB.png,,,,,,,,,,,,,,,,,,,,,m,1,0.647,,,,,,,,0,134,134,55,1
,,,,,,,,,,,,,,,,,,19,2022-02-12_12h35.28.818,lexical_decision_task_DD_L4,2021.2.3,MacIntel,5.494505495,,,,,,,,,,,0.728,1,,,,,,,,,,,,,,,,,,,,,,,,0.02,-0.407777778,0,0,0,,,,,,,DOUGH,HB,z,y,./images/DOUGHHB.png,,,,,,,,,,,,,,,,,,,,,z,1,0.728,,,,,,,,0,135,135,103,1
,,,,,,,,,,,,,,,,,,19,2022-02-12_12h35.28.818,lexical_decision_task_DD_L4,2021.2.3,MacIntel,5.494505495,,,,,,,,,,,0.73,1,,,,,,,,,,,,,,,,,,,,,,,,0.02,-0.407777778,0,0,0,,,,,,,FERRY,C,m,y,./images/FERRY.png,,,,,,,,,,,,,,,,,,,,,m,1,0.73,,,,,,,,0,136,136,57,1
,,,,,,,,,,,,,,,,,,19,2022-02-12_12h35.28.818,lexical_decision_task_DD_L4,2021.2.3,MacIntel,5.494505495,,,,,,,,,,,0.682,1,,,,,,,,,,,,,,,,,,,,,,,,0.02,-0.407777778,0,0,0,,,,,,,WRIST,HB,z,y,./images/WRISTHB.png,,,,,,,,,,,,,,,,,,,,,z,1,0.682,,,,,,,,0,137,137,109,1
,,,,,,,,,,,,,,,,,,19,2022-02-12_12h35.28.818,lexical_decision_task_DD_L4,2021.2.3,MacIntel,5.494505495,,,,,,,,,,,0.645,1,,,,,,,,,,,,,,,,,,,,,,,,0.02,-0.407777778,0,0,0,,,,,,,CEMENT,LB,z,y,./images/CEMENTLB.png,,,,,,,,,,,,,,,,,,,,,z,1,0.645,,,,,,,,0,138,138,158,1
,,,,,,,,,,,,,,,,,,19,2022-02-12_12h35.28.818,lexical_decision_task_DD_L4,2021.2.3,MacIntel,5.494505495,,,,,,,,,,,0.613,1,,,,,,,,,,,,,,,,,,,,,,,,0.02,-0.407777778,0,0,0,,,,,,,SPINE,LB,m,y,./images/SPINELB.png,,,,,,,,,,,,,,,,,,,,,m,1,0.613,,,,,,,,0,139,139,65,1
,,,,,,,,,,,,,,,,,,19,2022-02-12_12h35.28.818,lexical_decision_task_DD_L4,2021.2.3,MacIntel,5.494505495,,,,,,,,,,,0.854,1,,,,,,,,,,,,,,,,,,,,,,,,0.02,-0.407777778,0,0,0,,,,,,,BERRY,LB,z,y,./images/BERRYLB.png,,,,,,,,,,,,,,,,,,,,,z,1,0.854,,,,,,,,0,140,140,131,1
,,,,,,,,,,,,,,,,,,19,2022-02-12_12h35.28.818,lexical_decision_task_DD_L4,2021.2.3,MacIntel,5.494505495,,,,,,,,,,,0.566,1,,,,,,,,,,,,,,,,,,,,,,,,0.02,-0.407777778,0,0,0,,,,,,,WAGON,HB,m,y,./images/WAGONHB.png,,,,,,,,,,,,,,,,,,,,,m,1,0.566,,,,,,,,0,141,141,7,1
,,,,,,,,,,,,,,,,,,19,2022-02-12_12h35.28.818,lexical_decision_task_DD_L4,2021.2.3,MacIntel,5.494505495,,,,,,,,,,,0.738,1,,,,,,,,,,,,,,,,,,,,,,,,0.02,-0.407777778,0,0,0,,,,,,,SLOPE,C,m,y,./images/SLOPE.png,,,,,,,,,,,,,,,,,,,,,m,1,0.738,,,,,,,,0,142,142,30,1
,,,,,,,,,,,,,,,,,,19,2022-02-12_12h35.28.818,lexical_decision_task_DD_L4,2021.2.3,MacIntel,5.494505495,,,,,,,,,,,0.567,1,,,,,,,,,,,,,,,,,,,,,,,,0.02,-0.407777778,0,0,0,,,,,,,LIZARD,LB,z,y,./images/LIZARDLB.png,,,,,,,,,,,,,,,,,,,,,z,1,0.567,,,,,,,,0,143,143,128,1
,,,,,,,,,,,,,,,,,,19,2022-02-12_12h35.28.818,lexical_decision_task_DD_L4,2021.2.3,MacIntel,5.494505495,,,,,,,,,,,0.923,1,,,,,,,,,,,,,,,,,,,,,,,,0.02,-0.407777778,0,0,0,,,,,,,SNACK,HB,z,y,./images/SNACKHB.png,,,,,,,,,,,,,,,,,,,,,z,1,0.923,,,,,,,,0,144,144,157,1
,,,,,,,,,,,,,,,,,,19,2022-02-12_12h35.28.818,lexical_decision_task_DD_L4,2021.2.3,MacIntel,5.494505495,,,,,,,,,,,1.14,1,,,,,,,,,,,,,,,,,,,,,,,,0.02,-0.407777778,0,0,0,,,,,,,WALRUS,LB,z,y,./images/WALRUSLB.png,,,,,,,,,,,,,,,,,,,,,z,1,1.14,,,,,,,,0,145,145,107,1
,,,,,,,,,,,,,,,,,,19,2022-02-12_12h35.28.818,lexical_decision_task_DD_L4,2021.2.3,MacIntel,5.494505495,,,,,,,,,,,0.711,0,,,,,,,,,,,,,,,,,,,,,,,,0.02,-0.407777778,0,0,0,,,,,,,LADDER,LB,z,y,./images/LADDERLB.png,,,,,,,,,,,,,,,,,,,,,m,0,0.711,,,,,,,,0,146,146,122,1
,,,,,,,,,,,,,,,,,,19,2022-02-12_12h35.28.818,lexical_decision_task_DD_L4,2021.2.3,MacIntel,5.494505495,,,,,,,,,,,0.93,1,,,,,,,,,,,,,,,,,,,,,,,,0.02,-0.407777778,0,0,0,,,,,,,CANDY,C,m,y,./images/CANDY.png,,,,,,,,,,,,,,,,,,,,,m,1,0.93,,,,,,,,0,147,147,39,1
,,,,,,,,,,,,,,,,,,19,2022-02-12_12h35.28.818,lexical_decision_task_DD_L4,2021.2.3,MacIntel,5.494505495,,,,,,,,,,,0.682,1,,,,,,,,,,,,,,,,,,,,,,,,0.02,-0.407777778,0,0,0,,,,,,,BOILER,C,m,y,./images/BOILER.png,,,,,,,,,,,,,,,,,,,,,m,1,0.682,,,,,,,,0,148,148,36,1
,,,,,,,,,,,,,,,,,,19,2022-02-12_12h35.28.818,lexical_decision_task_DD_L4,2021.2.3,MacIntel,5.494505495,,,,,,,,,,,0.572,1,,,,,,,,,,,,,,,,,,,,,,,,0.02,-0.407777778,0,0,0,,,,,,,TRIPOD,C,z,y,./images/TRIPOD.png,,,,,,,,,,,,,,,,,,,,,z,1,0.572,,,,,,,,0,149,149,138,1
,,,,,,,,,,,,,,,,,,19,2022-02-12_12h35.28.818,lexical_decision_task_DD_L4,2021.2.3,MacIntel,5.494505495,,,,,,,,,,,0.633,1,,,,,,,,,,,,,,,,,,,,,,,,0.02,-0.407777778,0,0,0,,,,,,,PARADE,LB,m,y,./images/PARADELB.png,,,,,,,,,,,,,,,,,,,,,m,1,0.633,,,,,,,,0,150,150,17,1
,,,,,,,,,,,,,,,,,,19,2022-02-12_12h35.28.818,lexical_decision_task_DD_L4,2021.2.3,MacIntel,5.494505495,,,,,,,,,,,1.021,0,,,,,,,,,,,,,,,,,,,,,,,,0.02,-0.407777778,0,0,0,,,,,,,DESERT,HB,m,y,./images/DESERTHB.png,,,,,,,,,,,,,,,,,,,,,z,0,1.021,,,,,,,,0,151,151,52,1
,,,,,,,,,,,,,,,,,,19,2022-02-12_12h35.28.818,lexical_decision_task_DD_L4,2021.2.3,MacIntel,5.494505495,,,,,,,,,,,0.988,0,,,,,,,,,,,,,,,,,,,,,,,,0.02,-0.407777778,0,0,0,,,,,,,GRAPE,HB,m,y,./images/GRAPEHB.png,,,,,,,,,,,,,,,,,,,,,z,0,0.988,,,,,,,,0,152,152,16,1
,,,,,,,,,,,,,,,,,,19,2022-02-12_12h35.28.818,lexical_decision_task_DD_L4,2021.2.3,MacIntel,5.494505495,,,,,,,,,,,1.337,1,,,,,,,,,,,,,,,,,,,,,,,,0.02,-0.407777778,0,0,0,,,,,,,FLESH,C,m,y,./images/FLESH.png,,,,,,,,,,,,,,,,,,,,,m,1,1.337,,,,,,,,0,153,153,24,1
,,,,,,,,,,,,,,,,,,19,2022-02-12_12h35.28.818,lexical_decision_task_DD_L4,2021.2.3,MacIntel,5.494505495,,,,,,,,,,,0.809,0,,,,,,,,,,,,,,,,,,,,,,,,0.02,-0.407777778,0,0,0,,,,,,,TORCH,LB,z,y,./images/TORCHLB.png,,,,,,,,,,,,,,,,,,,,,m,0,0.809,,,,,,,,0,154,154,152,1
,,,,,,,,,,,,,,,,,,19,2022-02-12_12h35.28.818,lexical_decision_task_DD_L4,2021.2.3,MacIntel,5.494505495,,,,,,,,,,,0.78,0,,,,,,,,,,,,,,,,,,,,,,,,0.02,-0.407777778,0,0,0,,,,,,,SCREW,C,z,y,./images/SCREW.png,,,,,,,,,,,,,,,,,,,,,m,0,0.78,,,,,,,,0,155,155,108,1
,,,,,,,,,,,,,,,,,,19,2022-02-12_12h35.28.818,lexical_decision_task_DD_L4,2021.2.3,MacIntel,5.494505495,,,,,,,,,,,0.572,1,,,,,,,,,,,,,,,,,,,,,,,,0.02,-0.407777778,0,0,0,,,,,,,TOMATO,C,z,y,./images/TOMATO.png,,,,,,,,,,,,,,,,,,,,,z,1,0.572,,,,,,,,0,156,156,84,1
,,,,,,,,,,,,,,,,,,19,2022-02-12_12h35.28.818,lexical_decision_task_DD_L4,2021.2.3,MacIntel,5.494505495,,,,,,,,,,,0.748,0,,,,,,,,,,,,,,,,,,,,,,,,0.02,-0.407777778,0,0,0,,,,,,,SHELF,C,z,y,./images/SHELF.png,,,,,,,,,,,,,,,,,,,,,m,0,0.748,,,,,,,,0,157,157,123,1
,,,,,,,,,,,,,,,,,,19,2022-02-12_12h35.28.818,lexical_decision_task_DD_L4,2021.2.3,MacIntel,5.494505495,,,,,,,,,,,0.648,1,,,,,,,,,,,,,,,,,,,,,,,,0.02,-0.407777778,0,0,0,,,,,,,BOXER,HB,m,y,./images/BOXERHB.png,,,,,,,,,,,,,,,,,,,,,m,1,0.648,,,,,,,,0,158,158,4,1
,,,,,,,,,,,,,,,,,,19,2022-02-12_12h35.28.818,lexical_decision_task_DD_L4,2021.2.3,MacIntel,5.494505495,,,,,,,,,,,0.689,1,,,,,,,,,,,,,,,,,,,,,,,,0.02,-0.407777778,0,0,0,,,,,,,TULIP,LB,z,y,./images/TULIPLB.png,,,,,,,,,,,,,,,,,,,,,z,1,0.689,,,,,,,,0,159,159,92,1
,,,,,,,,,,,,,,,,,,19,2022-02-12_12h35.28.818,lexical_decision_task_DD_L4,2021.2.3,MacIntel,5.494505495,,,,,,,,,,,0.809,1,,,,,,,,,,,,,,,,,,,,,,,,0.02,-0.407777778,0,0,0,,,,,,,MAMMAL,LB,m,y,./images/MAMMALLB.png,,,,,,,,,,,,,,,,,,,,,m,1,0.809,,,,,,,,0,160,160,62,1
,,,,,,,,,,,,,,,,,,19,2022-02-12_12h35.28.818,lexical_decision_task_DD_L4,2021.2.3,MacIntel,5.494505495,,,,,,,,,,,0.64,1,,,,,,,,,,,,,,,,,,,,,,,,0.02,-0.407777778,0,0,0,,,,,,,FENCE,LB,m,y,./images/FENCELB.png,,,,,,,,,,,,,,,,,,,,,m,1,0.64,,,,,,,,0,161,161,14,1
,,,,,,,,,,,,,,,,,,19,2022-02-12_12h35.28.818,lexical_decision_task_DD_L4,2021.2.3,MacIntel,5.494505495,,,,,,,,,,,0.77,1,,,,,,,,,,,,,,,,,,,,,,,,0.02,-0.407777778,0,0,0,,,,,,,LITTER,C,z,y,./images/LITTER.png,,,,,,,,,,,,,,,,,,,,,z,1,0.77,,,,,,,,0,162,162,162,1
,,,,,,,,,,,,,,,,,,19,2022-02-12_12h35.28.818,lexical_decision_task_DD_L4,2021.2.3,MacIntel,5.494505495,,,,,,,,,,,0.681,1,,,,,,,,,,,,,,,,,,,,,,,,0.02,-0.407777778,0,0,0,,,,,,,PEBBLE,HB,m,y,./images/PEBBLEHB.png,,,,,,,,,,,,,,,,,,,,,m,1,0.681,,,,,,,,0,163,163,82,1
