key_resp.keys,instr_done_touch.x,instr_done_touch.y,instr_done_touch.leftButton,instr_done_touch.midButton,instr_done_touch.rightButton,instr_done_touch.clicked_name,instruction_pages.thisRepN,instruction_pages.thisTrialN,instruction_pages.thisN,instruction_pages.thisIndex,instruction_pages.ran,pageN,phase,instruct_text,has_image,instruct_image,participant,age,date,expName,psychopyVersion,OS,frameRate,key_resp.rt,response.keys,response.corr,response.rt,touch_resp.x,touch_resp.y,touch_resp.leftButton,touch_resp.midButton,touch_resp.rightButton,touch_resp.time,touch_resp.clicked_name,rt,corr,practrials.thisRepN,practrials.thisTrialN,practrials.thisN,practrials.thisIndex,practrials.ran,TrialID,Target,corrAns,end_of_practice_trials_pages.thisRepN,end_of_practice_trials_pages.thisTrialN,end_of_practice_trials_pages.thisN,end_of_practice_trials_pages.thisIndex,end_of_practice_trials_pages.ran,key_resp_2.keys,key_resp_2.corr,key_resp_2.rt,targ_click.x,targ_click.y,targ_click.leftButton,targ_click.midButton,targ_click.rightButton,targ_click.time,targ_click.clicked_name,break_done_touch.x,break_done_touch.y,break_done_touch.leftButton,break_done_touch.midButton,break_done_touch.rightButton,break_done_keyboard.keys,maintrials.thisRepN,maintrials.thisTrialN,maintrials.thisN,maintrials.thisIndex,maintrials.ran,string,blur,study,lex,stim_path,break_done_touch.clicked_name,break_done_keyboard.rt,mouse_2.x,mouse_2.y,mouse_2.leftButton,mouse_2.midButton,mouse_2.rightButton,mouse_2.clicked_name,slider.response,slider.rt,trials.thisRepN,trials.thisTrialN,trials.thisN,trials.thisIndex,trials.ran,test_instructions.thisRepN,test_instructions.thisTrialN,test_instructions.thisN,test_instructions.thisIndex,test_instructions.ran,key_resp_3.keys,key_resp_3.corr,key_resp_3.rt,test_click.x,test_click.y,test_click.leftButton,test_click.midButton,test_click.rightButton,test_click.time,test_click.clicked_name,test_phase.thisRepN,test_phase.thisTrialN,test_phase.thisN,test_phase.thisIndex,test_phase.ran
,0.150192555,-0.361360719,1,0,0,instr_done_button,0,0,0,0,1,1,instructions,"INSTRUCTIONS
At the start of each trial, look at the plus sign  (+) in the center of the screen.  This tells you that a trial is about to begin and where to look. Second, the plus sign will disappear and a string of letters will appear. Your task is to determine if the string of letters is a word or not. If the item is a word press the M key (on keyboard)  or touch the word button (phone/tablet).  If the item is not a word,  press the  Z key (on keyboard)  or touch the nonword button (on phone/tablet). 
Press the space bar or touch  continue.",0,,5b4991de56e0140001acb76b,25,2022-02-12_18h01.30.649,lexical_decision_task_DD_L4,2021.2.3,Win32,60.06366749,,,,,,,,,,,,,,,,,,,,,,,,,,,,,,,,,,,,,,,,,,,,,,,,,,,,,,,,,,,,,,,,,,,,,,,,,,,,,,,,,,,,,,,
,0.150192555,-0.360077022,1,0,0,instr_done_button,0,1,1,1,1,2,instructions,"If your device has a keyboard, press the 'Z' key for nonwords and the 'M' key for words.





Press the space bar or touch the button below to continue.",0,keyboard-example.gif,5b4991de56e0140001acb76b,25,2022-02-12_18h01.30.649,lexical_decision_task_DD_L4,2021.2.3,Win32,60.06366749,,,,,,,,,,,,,,,,,,,,,,,,,,,,,,,,,,,,,,,,,,,,,,,,,,,,,,,,,,,,,,,,,,,,,,,,,,,,,,,,,,,,,,,
space,0.250320924,-0.129011553,0,0,0,,0,2,2,2,1,3,instructions,"If you are using a touchscreen only device, use the buttons on the screen. Do not use the mouse.





Press the space bar or touch the button below to continue.",0,touchscreen-example.gif,5b4991de56e0140001acb76b,25,2022-02-12_18h01.30.649,lexical_decision_task_DD_L4,2021.2.3,Win32,60.06366749,3.2665,,,,,,,,,,,,,,,,,,,,,,,,,,,,,,,,,,,,,,,,,,,,,,,,,,,,,,,,,,,,,,,,,,,,,,,,,,,,,,,,,,,,,,
space,0.250320924,-0.129011553,0,0,0,,0,3,3,3,1,4,instructions,"It is very important that you respond as quickly and accurately as possible, as each letter string will only be on the screen for two seconds. If you do not respond within this time, the message 'Too slow!' will be displayed and the experiment will progress to the next letter string. The first 20 trials will be practice trials and you will receive feedback on your answers. 

Press the space bar or touch the button below to start the practice trials.",0,,5b4991de56e0140001acb76b,25,2022-02-12_18h01.30.649,lexical_decision_task_DD_L4,2021.2.3,Win32,60.06366749,5.0382,,,,,,,,,,,,,,,,,,,,,,,,,,,,,,,,,,,,,,,,,,,,,,,,,,,,,,,,,,,,,,,,,,,,,,,,,,,,,,,,,,,,,,
,,,,,,,,,,,,,,,,,5b4991de56e0140001acb76b,25,2022-02-12_18h01.30.649,lexical_decision_task_DD_L4,2021.2.3,Win32,60.06366749,,m,1,0.8003,,,,,,,,0.8003,1,0,0,0,7,1,1001,VOLUME,m,,,,,,,,,,,,,,,,,,,,,,,,,,,,,,,,,,,,,,,,,,,,,,,,,,,,,,,,,,,,,,,,,,
,,,,,,,,,,,,,,,,,5b4991de56e0140001acb76b,25,2022-02-12_18h01.30.649,lexical_decision_task_DD_L4,2021.2.3,Win32,60.06366749,,m,1,0.4626,,,,,,,,0.4626,1,0,1,1,2,1,1001,ALMOND,m,,,,,,,,,,,,,,,,,,,,,,,,,,,,,,,,,,,,,,,,,,,,,,,,,,,,,,,,,,,,,,,,,,
,,,,,,,,,,,,,,,,,5b4991de56e0140001acb76b,25,2022-02-12_18h01.30.649,lexical_decision_task_DD_L4,2021.2.3,Win32,60.06366749,,m,1,0.7417,,,,,,,,0.7417,1,0,2,2,0,1,1001,UTOPIA,m,,,,,,,,,,,,,,,,,,,,,,,,,,,,,,,,,,,,,,,,,,,,,,,,,,,,,,,,,,,,,,,,,,
,,,,,,,,,,,,,,,,,5b4991de56e0140001acb76b,25,2022-02-12_18h01.30.649,lexical_decision_task_DD_L4,2021.2.3,Win32,60.06366749,,z,1,0.6164,,,,,,,,0.6164,1,0,3,3,15,1,1001,WHAISE,z,,,,,,,,,,,,,,,,,,,,,,,,,,,,,,,,,,,,,,,,,,,,,,,,,,,,,,,,,,,,,,,,,,
,,,,,,,,,,,,,,,,,5b4991de56e0140001acb76b,25,2022-02-12_18h01.30.649,lexical_decision_task_DD_L4,2021.2.3,Win32,60.06366749,,m,1,0.5931,,,,,,,,0.5931,1,0,4,4,1,1,1001,ADJUST,m,,,,,,,,,,,,,,,,,,,,,,,,,,,,,,,,,,,,,,,,,,,,,,,,,,,,,,,,,,,,,,,,,,
,,,,,,,,,,,,,,,,,5b4991de56e0140001acb76b,25,2022-02-12_18h01.30.649,lexical_decision_task_DD_L4,2021.2.3,Win32,60.06366749,,z,1,0.8495,,,,,,,,0.8495,1,0,5,5,12,1,1001,SPRINY,z,,,,,,,,,,,,,,,,,,,,,,,,,,,,,,,,,,,,,,,,,,,,,,,,,,,,,,,,,,,,,,,,,,
,,,,,,,,,,,,,,,,,5b4991de56e0140001acb76b,25,2022-02-12_18h01.30.649,lexical_decision_task_DD_L4,2021.2.3,Win32,60.06366749,,z,1,0.6201,,,,,,,,0.6201,1,0,6,6,11,1,1001,RASHET,z,,,,,,,,,,,,,,,,,,,,,,,,,,,,,,,,,,,,,,,,,,,,,,,,,,,,,,,,,,,,,,,,,,
,,,,,,,,,,,,,,,,,5b4991de56e0140001acb76b,25,2022-02-12_18h01.30.649,lexical_decision_task_DD_L4,2021.2.3,Win32,60.06366749,,m,1,0.5361,,,,,,,,0.5361,1,0,7,7,5,1,1001,OBTAIN,m,,,,,,,,,,,,,,,,,,,,,,,,,,,,,,,,,,,,,,,,,,,,,,,,,,,,,,,,,,,,,,,,,,
,,,,,,,,,,,,,,,,,5b4991de56e0140001acb76b,25,2022-02-12_18h01.30.649,lexical_decision_task_DD_L4,2021.2.3,Win32,60.06366749,,m,1,0.5479,,,,,,,,0.5479,1,0,8,8,6,1,1001,ZOMBIE,m,,,,,,,,,,,,,,,,,,,,,,,,,,,,,,,,,,,,,,,,,,,,,,,,,,,,,,,,,,,,,,,,,,
,,,,,,,,,,,,,,,,,5b4991de56e0140001acb76b,25,2022-02-12_18h01.30.649,lexical_decision_task_DD_L4,2021.2.3,Win32,60.06366749,,z,1,0.5813,,,,,,,,0.5813,1,0,9,9,14,1,1001,THRALE,z,,,,,,,,,,,,,,,,,,,,,,,,,,,,,,,,,,,,,,,,,,,,,,,,,,,,,,,,,,,,,,,,,,
,,,,,,,,,,,,,,,,,5b4991de56e0140001acb76b,25,2022-02-12_18h01.30.649,lexical_decision_task_DD_L4,2021.2.3,Win32,60.06366749,,z,1,0.6721,,,,,,,,0.6721,1,0,10,10,10,1,1001,INLADE,z,,,,,,,,,,,,,,,,,,,,,,,,,,,,,,,,,,,,,,,,,,,,,,,,,,,,,,,,,,,,,,,,,,
,,,,,,,,,,,,,,,,,5b4991de56e0140001acb76b,25,2022-02-12_18h01.30.649,lexical_decision_task_DD_L4,2021.2.3,Win32,60.06366749,,z,1,0.548,,,,,,,,0.548,1,0,11,11,13,1,1001,ROUPET,z,,,,,,,,,,,,,,,,,,,,,,,,,,,,,,,,,,,,,,,,,,,,,,,,,,,,,,,,,,,,,,,,,,
,,,,,,,,,,,,,,,,,5b4991de56e0140001acb76b,25,2022-02-12_18h01.30.649,lexical_decision_task_DD_L4,2021.2.3,Win32,60.06366749,,m,1,0.6835,,,,,,,,0.6835,1,0,12,12,3,1,1001,MATRIX,m,,,,,,,,,,,,,,,,,,,,,,,,,,,,,,,,,,,,,,,,,,,,,,,,,,,,,,,,,,,,,,,,,,
,,,,,,,,,,,,,,,,,5b4991de56e0140001acb76b,25,2022-02-12_18h01.30.649,lexical_decision_task_DD_L4,2021.2.3,Win32,60.06366749,,z,1,0.7451,,,,,,,,0.7451,1,0,13,13,8,1,1001,ASLERT,z,,,,,,,,,,,,,,,,,,,,,,,,,,,,,,,,,,,,,,,,,,,,,,,,,,,,,,,,,,,,,,,,,,
,,,,,,,,,,,,,,,,,5b4991de56e0140001acb76b,25,2022-02-12_18h01.30.649,lexical_decision_task_DD_L4,2021.2.3,Win32,60.06366749,,z,1,0.6321,,,,,,,,0.6321,1,0,14,14,9,1,1001,FARINY,z,,,,,,,,,,,,,,,,,,,,,,,,,,,,,,,,,,,,,,,,,,,,,,,,,,,,,,,,,,,,,,,,,,
,,,,,,,,,,,,,,,,,5b4991de56e0140001acb76b,25,2022-02-12_18h01.30.649,lexical_decision_task_DD_L4,2021.2.3,Win32,60.06366749,,m,1,0.7626,,,,,,,,0.7626,1,0,15,15,4,1,1001,SQUEAK,m,,,,,,,,,,,,,,,,,,,,,,,,,,,,,,,,,,,,,,,,,,,,,,,,,,,,,,,,,,,,,,,,,,
space,0.115532734,-0.157252888,0,0,0,,,,,,,1,end_of_practice,"You have completed the practice trials. During the experimental trials, you will not receive feedback. 
Before you begin, please ensure that you are in a comfortable and quiet location and will not be disturbed for about 15 minutes, as we cannot use your data if you do not complete all the trials. 
 When you are ready to start the experimental trials, please press space or touch the button below.",,,5b4991de56e0140001acb76b,25,2022-02-12_18h01.30.649,lexical_decision_task_DD_L4,2021.2.3,Win32,60.06366749,31.7917,,,,,,,,,,,,,,,,,,,,,0,0,0,0,1,,,,,,,,,,,,,,,,,,,,,,,,,,,,,,,,,,,,,,,,,,,,,,,,,,,,,,,,,,,,,
,,,,,,,,,,,,,,,,,5b4991de56e0140001acb76b,25,2022-02-12_18h01.30.649,lexical_decision_task_DD_L4,2021.2.3,Win32,60.06366749,,,,,,,,,,,,0.7131,1,,,,,,,,,,,,,,m,1,0.7131,,,,,,,,0.115532734,-0.157252888,0,0,0,,0,0,0,9,1,DIVER,C,old,m,./images/DIVER.png,,,,,,,,,,,,,,,,,,,,,,,,,,,,,,,,,,,
,,,,,,,,,,,,,,,,,5b4991de56e0140001acb76b,25,2022-02-12_18h01.30.649,lexical_decision_task_DD_L4,2021.2.3,Win32,60.06366749,,,,,,,,,,,,0.5026,1,,,,,,,,,,,,,,m,1,0.5026,,,,,,,,0.115532734,-0.157252888,0,0,0,,0,1,1,14,1,FENCE,LB,old,m,./images/FENCELB.png,,,,,,,,,,,,,,,,,,,,,,,,,,,,,,,,,,,
,,,,,,,,,,,,,,,,,5b4991de56e0140001acb76b,25,2022-02-12_18h01.30.649,lexical_decision_task_DD_L4,2021.2.3,Win32,60.06366749,,,,,,,,,,,,0.4494,1,,,,,,,,,,,,,,m,1,0.4494,,,,,,,,0.115532734,-0.157252888,0,0,0,,0,2,2,27,1,BUTTER,C,old,m,./images/BUTTER.png,,,,,,,,,,,,,,,,,,,,,,,,,,,,,,,,,,,
,,,,,,,,,,,,,,,,,5b4991de56e0140001acb76b,25,2022-02-12_18h01.30.649,lexical_decision_task_DD_L4,2021.2.3,Win32,60.06366749,,,,,,,,,,,,0.6393,1,,,,,,,,,,,,,,z,1,0.6393,,,,,,,,0.115532734,-0.157252888,0,0,0,,0,3,3,143,1,MONGS,LB,old,z,./images/MONGSLB.png,,,,,,,,,,,,,,,,,,,,,,,,,,,,,,,,,,,
,,,,,,,,,,,,,,,,,5b4991de56e0140001acb76b,25,2022-02-12_18h01.30.649,lexical_decision_task_DD_L4,2021.2.3,Win32,60.06366749,,,,,,,,,,,,0.6959,1,,,,,,,,,,,,,,m,1,0.6959,,,,,,,,0.115532734,-0.157252888,0,0,0,,0,4,4,34,1,RAZOR,HB,old,m,./images/RAZORHB.png,,,,,,,,,,,,,,,,,,,,,,,,,,,,,,,,,,,
,,,,,,,,,,,,,,,,,5b4991de56e0140001acb76b,25,2022-02-12_18h01.30.649,lexical_decision_task_DD_L4,2021.2.3,Win32,60.06366749,,,,,,,,,,,,0.6562,1,,,,,,,,,,,,,,z,1,0.6562,,,,,,,,0.115532734,-0.157252888,0,0,0,,0,5,5,159,1,CUDDY,C,old,z,./images/CUDDY.png,,,,,,,,,,,,,,,,,,,,,,,,,,,,,,,,,,,
,,,,,,,,,,,,,,,,,5b4991de56e0140001acb76b,25,2022-02-12_18h01.30.649,lexical_decision_task_DD_L4,2021.2.3,Win32,60.06366749,,,,,,,,,,,,0.6715,1,,,,,,,,,,,,,,m,1,0.6715,,,,,,,,0.115532734,-0.157252888,0,0,0,,0,6,6,1,1,TOWEL,HB,old,m,./images/TOWELHB.png,,,,,,,,,,,,,,,,,,,,,,,,,,,,,,,,,,,
,,,,,,,,,,,,,,,,,5b4991de56e0140001acb76b,25,2022-02-12_18h01.30.649,lexical_decision_task_DD_L4,2021.2.3,Win32,60.06366749,,,,,,,,,,,,0.6321,1,,,,,,,,,,,,,,z,1,0.6321,,,,,,,,0.115532734,-0.157252888,0,0,0,,0,7,7,152,1,FRAIN,LB,old,z,./images/FRAINLB.png,,,,,,,,,,,,,,,,,,,,,,,,,,,,,,,,,,,
,,,,,,,,,,,,,,,,,5b4991de56e0140001acb76b,25,2022-02-12_18h01.30.649,lexical_decision_task_DD_L4,2021.2.3,Win32,60.06366749,,,,,,,,,,,,0.6467,1,,,,,,,,,,,,,,z,1,0.6467,,,,,,,,0.115532734,-0.157252888,0,0,0,,0,8,8,142,1,PLASK,HB,old,z,./images/PLASKHB.png,,,,,,,,,,,,,,,,,,,,,,,,,,,,,,,,,,,
,,,,,,,,,,,,,,,,,5b4991de56e0140001acb76b,25,2022-02-12_18h01.30.649,lexical_decision_task_DD_L4,2021.2.3,Win32,60.06366749,,,,,,,,,,,,0.6028,1,,,,,,,,,,,,,,z,1,0.6028,,,,,,,,-0.215661104,-0.366495507,0,0,0,,0,9,9,126,1,GUELS,C,old,z,./images/GUELS.png,,,,,,,,,,,,,,,,,,,,,,,,,,,,,,,,,,,
,,,,,,,,,,,,,,,,,5b4991de56e0140001acb76b,25,2022-02-12_18h01.30.649,lexical_decision_task_DD_L4,2021.2.3,Win32,60.06366749,,,,,,,,,,,,0.6782,1,,,,,,,,,,,,,,m,1,0.6782,,,,,,,,-0.215661104,-0.366495507,0,0,0,,0,10,10,46,1,MUMMY,HB,old,m,./images/MUMMYHB.png,,,,,,,,,,,,,,,,,,,,,,,,,,,,,,,,,,,
,,,,,,,,,,,,,,,,,5b4991de56e0140001acb76b,25,2022-02-12_18h01.30.649,lexical_decision_task_DD_L4,2021.2.3,Win32,60.06366749,,,,,,,,,,,,0.5112,1,,,,,,,,,,,,,,m,1,0.5112,,,,,,,,-0.215661104,-0.366495507,0,0,0,,0,11,11,31,1,STEAK,HB,old,m,./images/STEAKHB.png,,,,,,,,,,,,,,,,,,,,,,,,,,,,,,,,,,,
,,,,,,,,,,,,,,,,,5b4991de56e0140001acb76b,25,2022-02-12_18h01.30.649,lexical_decision_task_DD_L4,2021.2.3,Win32,60.06366749,,,,,,,,,,,,0.9665,1,,,,,,,,,,,,,,m,1,0.9665,,,,,,,,-0.215661104,-0.366495507,0,0,0,,0,12,12,20,1,GRANNY,LB,old,m,./images/GRANNYLB.png,,,,,,,,,,,,,,,,,,,,,,,,,,,,,,,,,,,
,,,,,,,,,,,,,,,,,5b4991de56e0140001acb76b,25,2022-02-12_18h01.30.649,lexical_decision_task_DD_L4,2021.2.3,Win32,60.06366749,,,,,,,,,,,,0.5325,1,,,,,,,,,,,,,,m,1,0.5325,,,,,,,,-0.215661104,-0.366495507,0,0,0,,0,13,13,0,1,WALNUT,C,old,m,./images/WALNUT.png,,,,,,,,,,,,,,,,,,,,,,,,,,,,,,,,,,,
,,,,,,,,,,,,,,,,,5b4991de56e0140001acb76b,25,2022-02-12_18h01.30.649,lexical_decision_task_DD_L4,2021.2.3,Win32,60.06366749,,,,,,,,,,,,0.6523,1,,,,,,,,,,,,,,z,1,0.6523,,,,,,,,-0.215661104,-0.366495507,0,0,0,,0,14,14,101,1,GLEET,LB,old,z,./images/GLEETLB.png,,,,,,,,,,,,,,,,,,,,,,,,,,,,,,,,,,,
,,,,,,,,,,,,,,,,,5b4991de56e0140001acb76b,25,2022-02-12_18h01.30.649,lexical_decision_task_DD_L4,2021.2.3,Win32,60.06366749,,,,,,,,,,,,0.7373,1,,,,,,,,,,,,,,z,1,0.7373,,,,,,,,-0.215661104,-0.366495507,0,0,0,,0,15,15,140,1,DOVET,LB,old,z,./images/DOVETLB.png,,,,,,,,,,,,,,,,,,,,,,,,,,,,,,,,,,,
,,,,,,,,,,,,,,,,,5b4991de56e0140001acb76b,25,2022-02-12_18h01.30.649,lexical_decision_task_DD_L4,2021.2.3,Win32,60.06366749,,,,,,,,,,,,0.6656,1,,,,,,,,,,,,,,z,1,0.6656,,,,,,,,-0.215661104,-0.366495507,0,0,0,,0,16,16,134,1,TROSS,LB,old,z,./images/TROSSLB.png,,,,,,,,,,,,,,,,,,,,,,,,,,,,,,,,,,,
,,,,,,,,,,,,,,,,,5b4991de56e0140001acb76b,25,2022-02-12_18h01.30.649,lexical_decision_task_DD_L4,2021.2.3,Win32,60.06366749,,,,,,,,,,,,0.5132,1,,,,,,,,,,,,,,z,1,0.5132,,,,,,,,-0.215661104,-0.366495507,0,0,0,,0,17,17,98,1,BAMPS,LB,old,z,./images/BAMPSLB.png,,,,,,,,,,,,,,,,,,,,,,,,,,,,,,,,,,,
,,,,,,,,,,,,,,,,,5b4991de56e0140001acb76b,25,2022-02-12_18h01.30.649,lexical_decision_task_DD_L4,2021.2.3,Win32,60.06366749,,,,,,,,,,,,0.8311,1,,,,,,,,,,,,,,m,1,0.8311,,,,,,,,-0.215661104,-0.366495507,0,0,0,,0,18,18,3,1,CRATER,C,old,m,./images/CRATER.png,,,,,,,,,,,,,,,,,,,,,,,,,,,,,,,,,,,
,,,,,,,,,,,,,,,,,5b4991de56e0140001acb76b,25,2022-02-12_18h01.30.649,lexical_decision_task_DD_L4,2021.2.3,Win32,60.06366749,,,,,,,,,,,,0.6703,1,,,,,,,,,,,,,,m,1,0.6703,,,,,,,,-0.215661104,-0.366495507,0,0,0,,0,19,19,16,1,GRAPE,HB,old,m,./images/GRAPEHB.png,,,,,,,,,,,,,,,,,,,,,,,,,,,,,,,,,,,
,,,,,,,,,,,,,,,,,5b4991de56e0140001acb76b,25,2022-02-12_18h01.30.649,lexical_decision_task_DD_L4,2021.2.3,Win32,60.06366749,,,,,,,,,,,,0.551,1,,,,,,,,,,,,,,z,1,0.551,,,,,,,,-0.215661104,-0.366495507,0,0,0,,0,20,20,133,1,POWDY,HB,old,z,./images/POWDYHB.png,,,,,,,,,,,,,,,,,,,,,,,,,,,,,,,,,,,
,,,,,,,,,,,,,,,,,5b4991de56e0140001acb76b,25,2022-02-12_18h01.30.649,lexical_decision_task_DD_L4,2021.2.3,Win32,60.06366749,,,,,,,,,,,,0.6096,1,,,,,,,,,,,,,,m,1,0.6096,,,,,,,,-0.215661104,-0.366495507,0,0,0,,0,21,21,44,1,BASKET,LB,old,m,./images/BASKETLB.png,,,,,,,,,,,,,,,,,,,,,,,,,,,,,,,,,,,
,,,,,,,,,,,,,,,,,5b4991de56e0140001acb76b,25,2022-02-12_18h01.30.649,lexical_decision_task_DD_L4,2021.2.3,Win32,60.06366749,,,,,,,,,,,,0.621,1,,,,,,,,,,,,,,z,1,0.621,,,,,,,,-0.215661104,-0.366495507,0,0,0,,0,22,22,89,1,DRIEK,LB,old,z,./images/DRIEKLB.png,,,,,,,,,,,,,,,,,,,,,,,,,,,,,,,,,,,
,,,,,,,,,,,,,,,,,5b4991de56e0140001acb76b,25,2022-02-12_18h01.30.649,lexical_decision_task_DD_L4,2021.2.3,Win32,60.06366749,,,,,,,,,,,,0.7294,1,,,,,,,,,,,,,,m,1,0.7294,,,,,,,,-0.215661104,-0.366495507,0,0,0,,0,23,23,30,1,SLOPE,C,old,m,./images/SLOPE.png,,,,,,,,,,,,,,,,,,,,,,,,,,,,,,,,,,,
,,,,,,,,,,,,,,,,,5b4991de56e0140001acb76b,25,2022-02-12_18h01.30.649,lexical_decision_task_DD_L4,2021.2.3,Win32,60.06366749,,,,,,,,,,,,0.591,1,,,,,,,,,,,,,,m,1,0.591,,,,,,,,-0.215661104,-0.366495507,0,0,0,,0,24,24,75,1,HAMMER,C,old,m,./images/HAMMER.png,,,,,,,,,,,,,,,,,,,,,,,,,,,,,,,,,,,
,,,,,,,,,,,,,,,,,5b4991de56e0140001acb76b,25,2022-02-12_18h01.30.649,lexical_decision_task_DD_L4,2021.2.3,Win32,60.06366749,,,,,,,,,,,,0.5461,1,,,,,,,,,,,,,,z,1,0.5461,,,,,,,,-0.215661104,-0.366495507,0,0,0,,0,25,25,96,1,KEAMS,C,old,z,./images/KEAMS.png,,,,,,,,,,,,,,,,,,,,,,,,,,,,,,,,,,,
,,,,,,,,,,,,,,,,,5b4991de56e0140001acb76b,25,2022-02-12_18h01.30.649,lexical_decision_task_DD_L4,2021.2.3,Win32,60.06366749,,,,,,,,,,,,0.7764,0,,,,,,,,,,,,,,m,0,0.7764,,,,,,,,-0.215661104,-0.366495507,0,0,0,,0,26,26,109,1,BURGE,HB,old,z,./images/BURGEHB.png,,,,,,,,,,,,,,,,,,,,,,,,,,,,,,,,,,,
,,,,,,,,,,,,,,,,,5b4991de56e0140001acb76b,25,2022-02-12_18h01.30.649,lexical_decision_task_DD_L4,2021.2.3,Win32,60.06366749,,,,,,,,,,,,0.9385,1,,,,,,,,,,,,,,z,1,0.9385,,,,,,,,-0.215661104,-0.366495507,0,0,0,,0,27,27,85,1,CHULK,HB,old,z,./images/CHULKHB.png,,,,,,,,,,,,,,,,,,,,,,,,,,,,,,,,,,,
,,,,,,,,,,,,,,,,,5b4991de56e0140001acb76b,25,2022-02-12_18h01.30.649,lexical_decision_task_DD_L4,2021.2.3,Win32,60.06366749,,,,,,,,,,,,1.1364,1,,,,,,,,,,,,,,z,1,1.1364,,,,,,,,-0.215661104,-0.366495507,0,0,0,,0,28,28,112,1,MYING,HB,old,z,./images/MYINGHB.png,,,,,,,,,,,,,,,,,,,,,,,,,,,,,,,,,,,
,,,,,,,,,,,,,,,,,5b4991de56e0140001acb76b,25,2022-02-12_18h01.30.649,lexical_decision_task_DD_L4,2021.2.3,Win32,60.06366749,,,,,,,,,,,,0.806,1,,,,,,,,,,,,,,m,1,0.806,,,,,,,,-0.215661104,-0.366495507,0,0,0,,0,29,29,55,1,ALLEY,HB,old,m,./images/ALLEYHB.png,,,,,,,,,,,,,,,,,,,,,,,,,,,,,,,,,,,
,,,,,,,,,,,,,,,,,5b4991de56e0140001acb76b,25,2022-02-12_18h01.30.649,lexical_decision_task_DD_L4,2021.2.3,Win32,60.06366749,,,,,,,,,,,,0.7536,1,,,,,,,,,,,,,,z,1,0.7536,,,,,,,,-0.215661104,-0.366495507,0,0,0,,0,30,30,158,1,EGECT,LB,old,z,./images/EGECTLB.png,,,,,,,,,,,,,,,,,,,,,,,,,,,,,,,,,,,
,,,,,,,,,,,,,,,,,5b4991de56e0140001acb76b,25,2022-02-12_18h01.30.649,lexical_decision_task_DD_L4,2021.2.3,Win32,60.06366749,,,,,,,,,,,,0.7708,1,,,,,,,,,,,,,,m,1,0.7708,,,,,,,,-0.215661104,-0.366495507,0,0,0,,0,31,31,61,1,ARTIST,HB,old,m,./images/ARTISTHB.png,,,,,,,,,,,,,,,,,,,,,,,,,,,,,,,,,,,
,,,,,,,,,,,,,,,,,5b4991de56e0140001acb76b,25,2022-02-12_18h01.30.649,lexical_decision_task_DD_L4,2021.2.3,Win32,60.06366749,,,,,,,,,,,,0.6693,1,,,,,,,,,,,,,,z,1,0.6693,,,,,,,,-0.215661104,-0.366495507,0,0,0,,0,32,32,139,1,BLEAR,HB,old,z,./images/BLEARHB.png,,,,,,,,,,,,,,,,,,,,,,,,,,,,,,,,,,,
,,,,,,,,,,,,,,,,,5b4991de56e0140001acb76b,25,2022-02-12_18h01.30.649,lexical_decision_task_DD_L4,2021.2.3,Win32,60.06366749,,,,,,,,,,,,0.5711,1,,,,,,,,,,,,,,z,1,0.5711,,,,,,,,-0.215661104,-0.366495507,0,0,0,,0,33,33,99,1,BACKY,C,old,z,./images/BACKY.png,,,,,,,,,,,,,,,,,,,,,,,,,,,,,,,,,,,
,,,,,,,,,,,,,,,,,5b4991de56e0140001acb76b,25,2022-02-12_18h01.30.649,lexical_decision_task_DD_L4,2021.2.3,Win32,60.06366749,,,,,,,,,,,,0.8162,1,,,,,,,,,,,,,,z,1,0.8162,,,,,,,,-0.215661104,-0.366495507,0,0,0,,0,34,34,88,1,GLUSH,HB,old,z,./images/GLUSHHB.png,,,,,,,,,,,,,,,,,,,,,,,,,,,,,,,,,,,
,,,,,,,,,,,,,,,,,5b4991de56e0140001acb76b,25,2022-02-12_18h01.30.649,lexical_decision_task_DD_L4,2021.2.3,Win32,60.06366749,,,,,,,,,,,,0.6793,1,,,,,,,,,,,,,,m,1,0.6793,,,,,,,,-0.215661104,-0.366495507,0,0,0,,0,35,35,39,1,CANDY,C,old,m,./images/CANDY.png,,,,,,,,,,,,,,,,,,,,,,,,,,,,,,,,,,,
,,,,,,,,,,,,,,,,,5b4991de56e0140001acb76b,25,2022-02-12_18h01.30.649,lexical_decision_task_DD_L4,2021.2.3,Win32,60.06366749,,,,,,,,,,,,0.5972,1,,,,,,,,,,,,,,m,1,0.5972,,,,,,,,-0.215661104,-0.366495507,0,0,0,,0,36,36,57,1,FERRY,C,old,m,./images/FERRY.png,,,,,,,,,,,,,,,,,,,,,,,,,,,,,,,,,,,
,,,,,,,,,,,,,,,,,5b4991de56e0140001acb76b,25,2022-02-12_18h01.30.649,lexical_decision_task_DD_L4,2021.2.3,Win32,60.06366749,,,,,,,,,,,,0.5795,1,,,,,,,,,,,,,,m,1,0.5795,,,,,,,,-0.215661104,-0.366495507,0,0,0,,0,37,37,59,1,BRUSH,LB,old,m,./images/BRUSHLB.png,,,,,,,,,,,,,,,,,,,,,,,,,,,,,,,,,,,
,,,,,,,,,,,,,,,,,5b4991de56e0140001acb76b,25,2022-02-12_18h01.30.649,lexical_decision_task_DD_L4,2021.2.3,Win32,60.06366749,,,,,,,,,,,,0.5192,1,,,,,,,,,,,,,,m,1,0.5192,,,,,,,,-0.215661104,-0.366495507,0,0,0,,0,38,38,54,1,CHERRY,C,old,m,./images/CHERRY.png,,,,,,,,,,,,,,,,,,,,,,,,,,,,,,,,,,,
,,,,,,,,,,,,,,,,,5b4991de56e0140001acb76b,25,2022-02-12_18h01.30.649,lexical_decision_task_DD_L4,2021.2.3,Win32,60.06366749,,,,,,,,,,,,0.616,1,,,,,,,,,,,,,,z,1,0.616,,,,,,,,-0.215661104,-0.366495507,0,0,0,,0,39,39,156,1,HIXES,C,old,z,./images/HIXES.png,,,,,,,,,,,,,,,,,,,,,,,,,,,,,,,,,,,
,,,,,,,,,,,,,,,,,5b4991de56e0140001acb76b,25,2022-02-12_18h01.30.649,lexical_decision_task_DD_L4,2021.2.3,Win32,60.06366749,,,,,,,,,,,,0.7357,1,,,,,,,,,,,,,,m,1,0.7357,,,,,,,,-0.215661104,-0.366495507,0,0,0,,0,40,40,19,1,DONKEY,HB,old,m,./images/DONKEYHB.png,,,,,,,,,,,,,,,,,,,,,,,,,,,,,,,,,,,
,,,,,,,,,,,,,,,,,5b4991de56e0140001acb76b,25,2022-02-12_18h01.30.649,lexical_decision_task_DD_L4,2021.2.3,Win32,60.06366749,,,,,,,,,,,,0.6701,1,,,,,,,,,,,,,,m,1,0.6701,,,,,,,,0.080872914,-0.405006418,1,0,0,,0,41,41,10,1,GARDEN,HB,old,m,./images/GARDENHB.png,break_done_button,,,,,,,,,,,,,,,,,,,,,,,,,,,,,,,,,,
,,,,,,,,,,,,,,,,,5b4991de56e0140001acb76b,25,2022-02-12_18h01.30.649,lexical_decision_task_DD_L4,2021.2.3,Win32,60.06366749,,,,,,,,,,,,0.7546,1,,,,,,,,,,,,,,z,1,0.7546,,,,,,,,0.236200257,-0.035301669,0,0,0,,0,42,42,91,1,SHENS,HB,old,z,./images/SHENSHB.png,,,,,,,,,,,,,,,,,,,,,,,,,,,,,,,,,,,
,,,,,,,,,,,,,,,,,5b4991de56e0140001acb76b,25,2022-02-12_18h01.30.649,lexical_decision_task_DD_L4,2021.2.3,Win32,60.06366749,,,,,,,,,,,,0.5522,1,,,,,,,,,,,,,,m,1,0.5522,,,,,,,,0.236200257,-0.035301669,0,0,0,,0,43,43,45,1,MONKEY,C,old,m,./images/MONKEY.png,,,,,,,,,,,,,,,,,,,,,,,,,,,,,,,,,,,
,,,,,,,,,,,,,,,,,5b4991de56e0140001acb76b,25,2022-02-12_18h01.30.649,lexical_decision_task_DD_L4,2021.2.3,Win32,60.06366749,,,,,,,,,,,,0.5293,1,,,,,,,,,,,,,,z,1,0.5293,,,,,,,,0.236200257,-0.035301669,0,0,0,,0,44,44,119,1,PAFER,LB,old,z,./images/PAFERLB.png,,,,,,,,,,,,,,,,,,,,,,,,,,,,,,,,,,,
,,,,,,,,,,,,,,,,,5b4991de56e0140001acb76b,25,2022-02-12_18h01.30.649,lexical_decision_task_DD_L4,2021.2.3,Win32,60.06366749,,,,,,,,,,,,0.513,1,,,,,,,,,,,,,,z,1,0.513,,,,,,,,0.236200257,-0.035301669,0,0,0,,0,45,45,117,1,STEEG,C,old,z,./images/STEEG.png,,,,,,,,,,,,,,,,,,,,,,,,,,,,,,,,,,,
,,,,,,,,,,,,,,,,,5b4991de56e0140001acb76b,25,2022-02-12_18h01.30.649,lexical_decision_task_DD_L4,2021.2.3,Win32,60.06366749,,,,,,,,,,,,0.5402,1,,,,,,,,,,,,,,m,1,0.5402,,,,,,,,0.236200257,-0.035301669,0,0,0,,0,46,46,80,1,PLANET,LB,old,m,./images/PLANETLB.png,,,,,,,,,,,,,,,,,,,,,,,,,,,,,,,,,,,
,,,,,,,,,,,,,,,,,5b4991de56e0140001acb76b,25,2022-02-12_18h01.30.649,lexical_decision_task_DD_L4,2021.2.3,Win32,60.06366749,,,,,,,,,,,,0.4967,0,,,,,,,,,,,,,,z,0,0.4967,,,,,,,,0.236200257,-0.035301669,0,0,0,,0,47,47,33,1,SAUNA,C,old,m,./images/SAUNA.png,,,,,,,,,,,,,,,,,,,,,,,,,,,,,,,,,,,
,,,,,,,,,,,,,,,,,5b4991de56e0140001acb76b,25,2022-02-12_18h01.30.649,lexical_decision_task_DD_L4,2021.2.3,Win32,60.06366749,,,,,,,,,,,,0.6097,1,,,,,,,,,,,,,,m,1,0.6097,,,,,,,,0.236200257,-0.035301669,0,0,0,,0,48,48,15,1,COLLAR,C,old,m,./images/COLLAR.png,,,,,,,,,,,,,,,,,,,,,,,,,,,,,,,,,,,
,,,,,,,,,,,,,,,,,5b4991de56e0140001acb76b,25,2022-02-12_18h01.30.649,lexical_decision_task_DD_L4,2021.2.3,Win32,60.06366749,,,,,,,,,,,,0.4747,1,,,,,,,,,,,,,,m,1,0.4747,,,,,,,,0.236200257,-0.035301669,0,0,0,,0,49,49,48,1,SHIELD,C,old,m,./images/SHIELD.png,,,,,,,,,,,,,,,,,,,,,,,,,,,,,,,,,,,
,,,,,,,,,,,,,,,,,5b4991de56e0140001acb76b,25,2022-02-12_18h01.30.649,lexical_decision_task_DD_L4,2021.2.3,Win32,60.06366749,,,,,,,,,,,,0.6476,1,,,,,,,,,,,,,,z,1,0.6476,,,,,,,,0.236200257,-0.035301669,0,0,0,,0,50,50,114,1,RIKES,C,old,z,./images/RIKES.png,,,,,,,,,,,,,,,,,,,,,,,,,,,,,,,,,,,
,,,,,,,,,,,,,,,,,5b4991de56e0140001acb76b,25,2022-02-12_18h01.30.649,lexical_decision_task_DD_L4,2021.2.3,Win32,60.06366749,,,,,,,,,,,,1.0471,1,,,,,,,,,,,,,,z,1,1.0471,,,,,,,,0.236200257,-0.035301669,0,0,0,,0,51,51,121,1,CEERS,HB,old,z,./images/CEERSHB.png,,,,,,,,,,,,,,,,,,,,,,,,,,,,,,,,,,,
,,,,,,,,,,,,,,,,,5b4991de56e0140001acb76b,25,2022-02-12_18h01.30.649,lexical_decision_task_DD_L4,2021.2.3,Win32,60.06366749,,,,,,,,,,,,0.7261,1,,,,,,,,,,,,,,m,1,0.7261,,,,,,,,0.236200257,-0.035301669,0,0,0,,0,52,52,43,1,STOOL,HB,old,m,./images/STOOLHB.png,,,,,,,,,,,,,,,,,,,,,,,,,,,,,,,,,,,
,,,,,,,,,,,,,,,,,5b4991de56e0140001acb76b,25,2022-02-12_18h01.30.649,lexical_decision_task_DD_L4,2021.2.3,Win32,60.06366749,,,,,,,,,,,,0.673,1,,,,,,,,,,,,,,z,1,0.673,,,,,,,,0.236200257,-0.035301669,0,0,0,,0,53,53,150,1,NOOLS,C,old,z,./images/NOOLS.png,,,,,,,,,,,,,,,,,,,,,,,,,,,,,,,,,,,
,,,,,,,,,,,,,,,,,5b4991de56e0140001acb76b,25,2022-02-12_18h01.30.649,lexical_decision_task_DD_L4,2021.2.3,Win32,60.06366749,,,,,,,,,,,,0.7404,1,,,,,,,,,,,,,,z,1,0.7404,,,,,,,,0.236200257,-0.035301669,0,0,0,,0,54,54,103,1,FLORT,HB,old,z,./images/FLORTHB.png,,,,,,,,,,,,,,,,,,,,,,,,,,,,,,,,,,,
,,,,,,,,,,,,,,,,,5b4991de56e0140001acb76b,25,2022-02-12_18h01.30.649,lexical_decision_task_DD_L4,2021.2.3,Win32,60.06366749,,,,,,,,,,,,0.6169,1,,,,,,,,,,,,,,z,1,0.6169,,,,,,,,0.236200257,-0.035301669,0,0,0,,0,55,55,149,1,VEASE,LB,old,z,./images/VEASELB.png,,,,,,,,,,,,,,,,,,,,,,,,,,,,,,,,,,,
,,,,,,,,,,,,,,,,,5b4991de56e0140001acb76b,25,2022-02-12_18h01.30.649,lexical_decision_task_DD_L4,2021.2.3,Win32,60.06366749,,,,,,,,,,,,0.6564,1,,,,,,,,,,,,,,m,1,0.6564,,,,,,,,0.236200257,-0.035301669,0,0,0,,0,56,56,64,1,BRIDE,HB,old,m,./images/BRIDEHB.png,,,,,,,,,,,,,,,,,,,,,,,,,,,,,,,,,,,
,,,,,,,,,,,,,,,,,5b4991de56e0140001acb76b,25,2022-02-12_18h01.30.649,lexical_decision_task_DD_L4,2021.2.3,Win32,60.06366749,,,,,,,,,,,,0.5357,1,,,,,,,,,,,,,,m,1,0.5357,,,,,,,,0.236200257,-0.035301669,0,0,0,,0,57,57,32,1,HOCKEY,LB,old,m,./images/HOCKEYLB.png,,,,,,,,,,,,,,,,,,,,,,,,,,,,,,,,,,,
,,,,,,,,,,,,,,,,,5b4991de56e0140001acb76b,25,2022-02-12_18h01.30.649,lexical_decision_task_DD_L4,2021.2.3,Win32,60.06366749,,,,,,,,,,,,0.5238,1,,,,,,,,,,,,,,z,1,0.5238,,,,,,,,0.236200257,-0.035301669,0,0,0,,0,58,58,93,1,SMONE,C,old,z,./images/SMONE.png,,,,,,,,,,,,,,,,,,,,,,,,,,,,,,,,,,,
,,,,,,,,,,,,,,,,,5b4991de56e0140001acb76b,25,2022-02-12_18h01.30.649,lexical_decision_task_DD_L4,2021.2.3,Win32,60.06366749,,,,,,,,,,,,0.5765,1,,,,,,,,,,,,,,z,1,0.5765,,,,,,,,0.236200257,-0.035301669,0,0,0,,0,59,59,167,1,ZONET,LB,old,z,./images/ZONETLB.png,,,,,,,,,,,,,,,,,,,,,,,,,,,,,,,,,,,
,,,,,,,,,,,,,,,,,5b4991de56e0140001acb76b,25,2022-02-12_18h01.30.649,lexical_decision_task_DD_L4,2021.2.3,Win32,60.06366749,,,,,,,,,,,,0.563,1,,,,,,,,,,,,,,m,1,0.563,,,,,,,,0.236200257,-0.035301669,0,0,0,,0,60,60,21,1,DANCER,C,old,m,./images/DANCER.png,,,,,,,,,,,,,,,,,,,,,,,,,,,,,,,,,,,
,,,,,,,,,,,,,,,,,5b4991de56e0140001acb76b,25,2022-02-12_18h01.30.649,lexical_decision_task_DD_L4,2021.2.3,Win32,60.06366749,,,,,,,,,,,,0.9626,1,,,,,,,,,,,,,,m,1,0.9626,,,,,,,,0.236200257,-0.035301669,0,0,0,,0,61,61,37,1,TIGER,HB,old,m,./images/TIGERHB.png,,,,,,,,,,,,,,,,,,,,,,,,,,,,,,,,,,,
,,,,,,,,,,,,,,,,,5b4991de56e0140001acb76b,25,2022-02-12_18h01.30.649,lexical_decision_task_DD_L4,2021.2.3,Win32,60.06366749,,,,,,,,,,,,0.6006,1,,,,,,,,,,,,,,m,1,0.6006,,,,,,,,0.236200257,-0.035301669,0,0,0,,0,62,62,63,1,BAKER,C,old,m,./images/BAKER.png,,,,,,,,,,,,,,,,,,,,,,,,,,,,,,,,,,,
,,,,,,,,,,,,,,,,,5b4991de56e0140001acb76b,25,2022-02-12_18h01.30.649,lexical_decision_task_DD_L4,2021.2.3,Win32,60.06366749,,,,,,,,,,,,0.4857,1,,,,,,,,,,,,,,m,1,0.4857,,,,,,,,0.236200257,-0.035301669,0,0,0,,0,63,63,51,1,SAUCE,C,old,m,./images/SAUCE.png,,,,,,,,,,,,,,,,,,,,,,,,,,,,,,,,,,,
,,,,,,,,,,,,,,,,,5b4991de56e0140001acb76b,25,2022-02-12_18h01.30.649,lexical_decision_task_DD_L4,2021.2.3,Win32,60.06366749,,,,,,,,,,,,0.4988,1,,,,,,,,,,,,,,z,1,0.4988,,,,,,,,0.236200257,-0.035301669,0,0,0,,0,64,64,137,1,JOOST,LB,old,z,./images/JOOSTLB.png,,,,,,,,,,,,,,,,,,,,,,,,,,,,,,,,,,,
,,,,,,,,,,,,,,,,,5b4991de56e0140001acb76b,25,2022-02-12_18h01.30.649,lexical_decision_task_DD_L4,2021.2.3,Win32,60.06366749,,,,,,,,,,,,0.6178,1,,,,,,,,,,,,,,z,1,0.6178,,,,,,,,0.236200257,-0.035301669,0,0,0,,0,65,65,148,1,JOMS,HB,old,z,./images/JOMSHB.png,,,,,,,,,,,,,,,,,,,,,,,,,,,,,,,,,,,
,,,,,,,,,,,,,,,,,5b4991de56e0140001acb76b,25,2022-02-12_18h01.30.649,lexical_decision_task_DD_L4,2021.2.3,Win32,60.06366749,,,,,,,,,,,,0.5223,1,,,,,,,,,,,,,,z,1,0.5223,,,,,,,,0.236200257,-0.035301669,0,0,0,,0,66,66,164,1,SGREW,LB,old,z,./images/SGREWLB.png,,,,,,,,,,,,,,,,,,,,,,,,,,,,,,,,,,,
,,,,,,,,,,,,,,,,,5b4991de56e0140001acb76b,25,2022-02-12_18h01.30.649,lexical_decision_task_DD_L4,2021.2.3,Win32,60.06366749,,,,,,,,,,,,0.6546,1,,,,,,,,,,,,,,m,1,0.6546,,,,,,,,0.236200257,-0.035301669,0,0,0,,0,67,67,66,1,STATUE,C,old,m,./images/STATUE.png,,,,,,,,,,,,,,,,,,,,,,,,,,,,,,,,,,,
,,,,,,,,,,,,,,,,,5b4991de56e0140001acb76b,25,2022-02-12_18h01.30.649,lexical_decision_task_DD_L4,2021.2.3,Win32,60.06366749,,,,,,,,,,,,0.9343,0,,,,,,,,,,,,,,z,0,0.9343,,,,,,,,0.236200257,-0.035301669,0,0,0,,0,68,68,82,1,PEBBLE,HB,old,m,./images/PEBBLEHB.png,,,,,,,,,,,,,,,,,,,,,,,,,,,,,,,,,,,
,,,,,,,,,,,,,,,,,5b4991de56e0140001acb76b,25,2022-02-12_18h01.30.649,lexical_decision_task_DD_L4,2021.2.3,Win32,60.06366749,,,,,,,,,,,,0.8381,1,,,,,,,,,,,,,,z,1,0.8381,,,,,,,,0.236200257,-0.035301669,0,0,0,,0,69,69,154,1,THINT,HB,old,z,./images/THINTHB.png,,,,,,,,,,,,,,,,,,,,,,,,,,,,,,,,,,,
,,,,,,,,,,,,,,,,,5b4991de56e0140001acb76b,25,2022-02-12_18h01.30.649,lexical_decision_task_DD_L4,2021.2.3,Win32,60.06366749,,,,,,,,,,,,0.5513,0,,,,,,,,,,,,,,z,0,0.5513,,,,,,,,0.236200257,-0.035301669,0,0,0,,0,70,70,12,1,BLOKE,C,old,m,./images/BLOKE.png,,,,,,,,,,,,,,,,,,,,,,,,,,,,,,,,,,,
,,,,,,,,,,,,,,,,,5b4991de56e0140001acb76b,25,2022-02-12_18h01.30.649,lexical_decision_task_DD_L4,2021.2.3,Win32,60.06366749,,,,,,,,,,,,0.6489,1,,,,,,,,,,,,,,z,1,0.6489,,,,,,,,0.236200257,-0.035301669,0,0,0,,0,71,71,130,1,CRILL,HB,old,z,./images/CRILLHB.png,,,,,,,,,,,,,,,,,,,,,,,,,,,,,,,,,,,
,,,,,,,,,,,,,,,,,5b4991de56e0140001acb76b,25,2022-02-12_18h01.30.649,lexical_decision_task_DD_L4,2021.2.3,Win32,60.06366749,,,,,,,,,,,,0.5683,1,,,,,,,,,,,,,,z,1,0.5683,,,,,,,,0.236200257,-0.035301669,0,0,0,,0,72,72,129,1,PRANS,C,old,z,./images/PRANS.png,,,,,,,,,,,,,,,,,,,,,,,,,,,,,,,,,,,
,,,,,,,,,,,,,,,,,5b4991de56e0140001acb76b,25,2022-02-12_18h01.30.649,lexical_decision_task_DD_L4,2021.2.3,Win32,60.06366749,,,,,,,,,,,,0.6384,1,,,,,,,,,,,,,,z,1,0.6384,,,,,,,,0.236200257,-0.035301669,0,0,0,,0,73,73,145,1,LAMEL,HB,old,z,./images/LAMELHB.png,,,,,,,,,,,,,,,,,,,,,,,,,,,,,,,,,,,
,,,,,,,,,,,,,,,,,5b4991de56e0140001acb76b,25,2022-02-12_18h01.30.649,lexical_decision_task_DD_L4,2021.2.3,Win32,60.06366749,,,,,,,,,,,,0.5894,1,,,,,,,,,,,,,,z,1,0.5894,,,,,,,,0.236200257,-0.035301669,0,0,0,,0,74,74,120,1,RINED,C,old,z,./images/RINED.png,,,,,,,,,,,,,,,,,,,,,,,,,,,,,,,,,,,
,,,,,,,,,,,,,,,,,5b4991de56e0140001acb76b,25,2022-02-12_18h01.30.649,lexical_decision_task_DD_L4,2021.2.3,Win32,60.06366749,,,,,,,,,,,,0.5322,1,,,,,,,,,,,,,,z,1,0.5322,,,,,,,,0.508344031,0.316431322,0,0,0,,0,75,75,132,1,SCIFF,C,old,z,./images/SCIFF.png,,,,,,,,,,,,,,,,,,,,,,,,,,,,,,,,,,,
,,,,,,,,,,,,,,,,,5b4991de56e0140001acb76b,25,2022-02-12_18h01.30.649,lexical_decision_task_DD_L4,2021.2.3,Win32,60.06366749,,,,,,,,,,,,0.6067,1,,,,,,,,,,,,,,m,1,0.6067,,,,,,,,0.508344031,0.316431322,0,0,0,,0,76,76,36,1,BOILER,C,old,m,./images/BOILER.png,,,,,,,,,,,,,,,,,,,,,,,,,,,,,,,,,,,
,,,,,,,,,,,,,,,,,5b4991de56e0140001acb76b,25,2022-02-12_18h01.30.649,lexical_decision_task_DD_L4,2021.2.3,Win32,60.06366749,,,,,,,,,,,,0.4955,1,,,,,,,,,,,,,,m,1,0.4955,,,,,,,,0.508344031,0.316431322,0,0,0,,0,77,77,77,1,WHEEL,LB,old,m,./images/WHEELLB.png,,,,,,,,,,,,,,,,,,,,,,,,,,,,,,,,,,,
,,,,,,,,,,,,,,,,,5b4991de56e0140001acb76b,25,2022-02-12_18h01.30.649,lexical_decision_task_DD_L4,2021.2.3,Win32,60.06366749,,,,,,,,,,,,0.7582,1,,,,,,,,,,,,,,m,1,0.7582,,,,,,,,0.508344031,0.316431322,0,0,0,,0,78,78,78,1,BROOM,C,old,m,./images/BROOM.png,,,,,,,,,,,,,,,,,,,,,,,,,,,,,,,,,,,
,,,,,,,,,,,,,,,,,5b4991de56e0140001acb76b,25,2022-02-12_18h01.30.649,lexical_decision_task_DD_L4,2021.2.3,Win32,60.06366749,,,,,,,,,,,,0.7977,1,,,,,,,,,,,,,,z,1,0.7977,,,,,,,,0.508344031,0.316431322,0,0,0,,0,79,79,115,1,MAWNS,HB,old,z,./images/MAWNSHB.png,,,,,,,,,,,,,,,,,,,,,,,,,,,,,,,,,,,
,,,,,,,,,,,,,,,,,5b4991de56e0140001acb76b,25,2022-02-12_18h01.30.649,lexical_decision_task_DD_L4,2021.2.3,Win32,60.06366749,,,,,,,,,,,,0.9243,1,,,,,,,,,,,,,,m,1,0.9243,,,,,,,,0.508344031,0.316431322,0,0,0,,0,80,80,4,1,BOXER,HB,old,m,./images/BOXERHB.png,,,,,,,,,,,,,,,,,,,,,,,,,,,,,,,,,,,
,,,,,,,,,,,,,,,,,5b4991de56e0140001acb76b,25,2022-02-12_18h01.30.649,lexical_decision_task_DD_L4,2021.2.3,Win32,60.06366749,,,,,,,,,,,,1.0597,1,,,,,,,,,,,,,,z,1,1.0597,,,,,,,,0.508344031,0.316431322,0,0,0,,0,81,81,166,1,SHORY,HB,old,z,./images/SHORYHB.png,,,,,,,,,,,,,,,,,,,,,,,,,,,,,,,,,,,
,,,,,,,,,,,,,,,,,5b4991de56e0140001acb76b,25,2022-02-12_18h01.30.649,lexical_decision_task_DD_L4,2021.2.3,Win32,60.06366749,,,,,,,,,,,,0.756,0,,,,,,,,,,,,,,z,0,0.756,,,,,,,,0.508344031,0.316431322,0,0,0,,0,82,82,7,1,WAGON,HB,old,m,./images/WAGONHB.png,,,,,,,,,,,,,,,,,,,,,,,,,,,,,,,,,,,
,,,,,,,,,,,,,,,,,5b4991de56e0140001acb76b,25,2022-02-12_18h01.30.649,lexical_decision_task_DD_L4,2021.2.3,Win32,60.06366749,,,,,,,,,,,,0.8929,1,,,,,,,,,,,,,,z,1,0.8929,,,,,,,,0.17843389,0.111039795,0,0,0,space,0,83,83,131,1,NACES,LB,old,z,./images/NACESLB.png,,410.0702,,,,,,,,,,,,,,,,,,,,,,,,,,,,,,,,,
,,,,,,,,,,,,,,,,,5b4991de56e0140001acb76b,25,2022-02-12_18h01.30.649,lexical_decision_task_DD_L4,2021.2.3,Win32,60.06366749,,,,,,,,,,,,0.8201,1,,,,,,,,,,,,,,z,1,0.8201,,,,,,,,0.17843389,0.111039795,0,0,0,,0,84,84,136,1,WERVE,HB,old,z,./images/WERVEHB.png,,,,,,,,,,,,,,,,,,,,,,,,,,,,,,,,,,,
,,,,,,,,,,,,,,,,,5b4991de56e0140001acb76b,25,2022-02-12_18h01.30.649,lexical_decision_task_DD_L4,2021.2.3,Win32,60.06366749,,,,,,,,,,,,0.49,1,,,,,,,,,,,,,,z,1,0.49,,,,,,,,0.17843389,0.111039795,0,0,0,,0,85,85,108,1,GRUET,C,old,z,./images/GRUET.png,,,,,,,,,,,,,,,,,,,,,,,,,,,,,,,,,,,
,,,,,,,,,,,,,,,,,5b4991de56e0140001acb76b,25,2022-02-12_18h01.30.649,lexical_decision_task_DD_L4,2021.2.3,Win32,60.06366749,,,,,,,,,,,,0.4484,1,,,,,,,,,,,,,,z,1,0.4484,,,,,,,,0.17843389,0.111039795,0,0,0,,0,86,86,162,1,LEICH,C,old,z,./images/LEICH.png,,,,,,,,,,,,,,,,,,,,,,,,,,,,,,,,,,,
,,,,,,,,,,,,,,,,,5b4991de56e0140001acb76b,25,2022-02-12_18h01.30.649,lexical_decision_task_DD_L4,2021.2.3,Win32,60.06366749,,,,,,,,,,,,0.6314,1,,,,,,,,,,,,,,m,1,0.6314,,,,,,,,0.17843389,0.111039795,0,0,0,,0,87,87,22,1,CLOWN,HB,old,m,./images/CLOWNHB.png,,,,,,,,,,,,,,,,,,,,,,,,,,,,,,,,,,,
,,,,,,,,,,,,,,,,,5b4991de56e0140001acb76b,25,2022-02-12_18h01.30.649,lexical_decision_task_DD_L4,2021.2.3,Win32,60.06366749,,,,,,,,,,,,0.5402,1,,,,,,,,,,,,,,z,1,0.5402,,,,,,,,0.17843389,0.111039795,0,0,0,,0,88,88,86,1,AIFED,LB,old,z,./images/AIFEDLB.png,,,,,,,,,,,,,,,,,,,,,,,,,,,,,,,,,,,
,,,,,,,,,,,,,,,,,5b4991de56e0140001acb76b,25,2022-02-12_18h01.30.649,lexical_decision_task_DD_L4,2021.2.3,Win32,60.06366749,,,,,,,,,,,,0.6837,1,,,,,,,,,,,,,,m,1,0.6837,,,,,,,,0.17843389,0.111039795,0,0,0,,0,89,89,70,1,BANANA,HB,old,m,./images/BANANAHB.png,,,,,,,,,,,,,,,,,,,,,,,,,,,,,,,,,,,
,,,,,,,,,,,,,,,,,5b4991de56e0140001acb76b,25,2022-02-12_18h01.30.649,lexical_decision_task_DD_L4,2021.2.3,Win32,60.06366749,,,,,,,,,,,,0.775,1,,,,,,,,,,,,,,m,1,0.775,,,,,,,,0.17843389,0.111039795,0,0,0,,0,90,90,58,1,CANOE,HB,old,m,./images/CANOEHB.png,,,,,,,,,,,,,,,,,,,,,,,,,,,,,,,,,,,
,,,,,,,,,,,,,,,,,5b4991de56e0140001acb76b,25,2022-02-12_18h01.30.649,lexical_decision_task_DD_L4,2021.2.3,Win32,60.06366749,,,,,,,,,,,,0.7081,1,,,,,,,,,,,,,,m,1,0.7081,,,,,,,,0.17843389,0.111039795,0,0,0,,0,91,91,67,1,POKER,HB,old,m,./images/POKERHB.png,,,,,,,,,,,,,,,,,,,,,,,,,,,,,,,,,,,
,,,,,,,,,,,,,,,,,5b4991de56e0140001acb76b,25,2022-02-12_18h01.30.649,lexical_decision_task_DD_L4,2021.2.3,Win32,60.06366749,,,,,,,,,,,,0.6849,1,,,,,,,,,,,,,,m,1,0.6849,,,,,,,,0.17843389,0.111039795,0,0,0,,0,92,92,52,1,DESERT,HB,old,m,./images/DESERTHB.png,,,,,,,,,,,,,,,,,,,,,,,,,,,,,,,,,,,
,,,,,,,,,,,,,,,,,5b4991de56e0140001acb76b,25,2022-02-12_18h01.30.649,lexical_decision_task_DD_L4,2021.2.3,Win32,60.06366749,,,,,,,,,,,,0.5386,1,,,,,,,,,,,,,,m,1,0.5386,,,,,,,,0.17843389,0.111039795,0,0,0,,0,93,93,17,1,PARADE,LB,old,m,./images/PARADELB.png,,,,,,,,,,,,,,,,,,,,,,,,,,,,,,,,,,,
,,,,,,,,,,,,,,,,,5b4991de56e0140001acb76b,25,2022-02-12_18h01.30.649,lexical_decision_task_DD_L4,2021.2.3,Win32,60.06366749,,,,,,,,,,,,0.5148,1,,,,,,,,,,,,,,m,1,0.5148,,,,,,,,0.17843389,0.111039795,0,0,0,,0,94,94,53,1,POSTER,LB,old,m,./images/POSTERLB.png,,,,,,,,,,,,,,,,,,,,,,,,,,,,,,,,,,,
,,,,,,,,,,,,,,,,,5b4991de56e0140001acb76b,25,2022-02-12_18h01.30.649,lexical_decision_task_DD_L4,2021.2.3,Win32,60.06366749,,,,,,,,,,,,0.4939,1,,,,,,,,,,,,,,m,1,0.4939,,,,,,,,0.17843389,0.111039795,0,0,0,,0,95,95,6,1,STAIN,C,old,m,./images/STAIN.png,,,,,,,,,,,,,,,,,,,,,,,,,,,,,,,,,,,
,,,,,,,,,,,,,,,,,5b4991de56e0140001acb76b,25,2022-02-12_18h01.30.649,lexical_decision_task_DD_L4,2021.2.3,Win32,60.06366749,,,,,,,,,,,,0.6766,1,,,,,,,,,,,,,,z,1,0.6766,,,,,,,,0.17843389,0.111039795,0,0,0,,0,96,96,118,1,BAVEL,HB,old,z,./images/BAVELHB.png,,,,,,,,,,,,,,,,,,,,,,,,,,,,,,,,,,,
,,,,,,,,,,,,,,,,,5b4991de56e0140001acb76b,25,2022-02-12_18h01.30.649,lexical_decision_task_DD_L4,2021.2.3,Win32,60.06366749,,,,,,,,,,,,0.7424,1,,,,,,,,,,,,,,m,1,0.7424,,,,,,,,0.17843389,0.111039795,0,0,0,,0,97,97,29,1,PISTOL,LB,old,m,./images/PISTOLLB.png,,,,,,,,,,,,,,,,,,,,,,,,,,,,,,,,,,,
,,,,,,,,,,,,,,,,,5b4991de56e0140001acb76b,25,2022-02-12_18h01.30.649,lexical_decision_task_DD_L4,2021.2.3,Win32,60.06366749,,,,,,,,,,,,0.8031,1,,,,,,,,,,,,,,z,1,0.8031,,,,,,,,0.17843389,0.111039795,0,0,0,,0,98,98,104,1,GITTY,LB,old,z,./images/GITTYLB.png,,,,,,,,,,,,,,,,,,,,,,,,,,,,,,,,,,,
,,,,,,,,,,,,,,,,,5b4991de56e0140001acb76b,25,2022-02-12_18h01.30.649,lexical_decision_task_DD_L4,2021.2.3,Win32,60.06366749,,,,,,,,,,,,0.8828,1,,,,,,,,,,,,,,z,1,0.8828,,,,,,,,0.17843389,0.111039795,0,0,0,,0,99,99,151,1,TINKY,HB,old,z,./images/TINKYHB.png,,,,,,,,,,,,,,,,,,,,,,,,,,,,,,,,,,,
,,,,,,,,,,,,,,,,,5b4991de56e0140001acb76b,25,2022-02-12_18h01.30.649,lexical_decision_task_DD_L4,2021.2.3,Win32,60.06366749,,,,,,,,,,,,1.0015,1,,,,,,,,,,,,,,z,1,1.0015,,,,,,,,0.17843389,0.111039795,0,0,0,,0,100,100,163,1,GAMBA,HB,old,z,./images/GAMBAHB.png,,,,,,,,,,,,,,,,,,,,,,,,,,,,,,,,,,,
,,,,,,,,,,,,,,,,,5b4991de56e0140001acb76b,25,2022-02-12_18h01.30.649,lexical_decision_task_DD_L4,2021.2.3,Win32,60.06366749,,,,,,,,,,,,0.5891,1,,,,,,,,,,,,,,z,1,0.5891,,,,,,,,0.17843389,0.111039795,0,0,0,,0,101,101,110,1,CRUNK,LB,old,z,./images/CRUNKLB.png,,,,,,,,,,,,,,,,,,,,,,,,,,,,,,,,,,,
,,,,,,,,,,,,,,,,,5b4991de56e0140001acb76b,25,2022-02-12_18h01.30.649,lexical_decision_task_DD_L4,2021.2.3,Win32,60.06366749,,,,,,,,,,,,0.6308,1,,,,,,,,,,,,,,z,1,0.6308,,,,,,,,0.17843389,0.111039795,0,0,0,,0,102,102,146,1,MOOST,LB,old,z,./images/MOOSTLB.png,,,,,,,,,,,,,,,,,,,,,,,,,,,,,,,,,,,
,,,,,,,,,,,,,,,,,5b4991de56e0140001acb76b,25,2022-02-12_18h01.30.649,lexical_decision_task_DD_L4,2021.2.3,Win32,60.06366749,,,,,,,,,,,,0.6893,1,,,,,,,,,,,,,,m,1,0.6893,,,,,,,,0.17843389,0.111039795,0,0,0,,0,103,103,13,1,BUNNY,HB,old,m,./images/BUNNYHB.png,,,,,,,,,,,,,,,,,,,,,,,,,,,,,,,,,,,
,,,,,,,,,,,,,,,,,5b4991de56e0140001acb76b,25,2022-02-12_18h01.30.649,lexical_decision_task_DD_L4,2021.2.3,Win32,60.06366749,,,,,,,,,,,,0.7357,1,,,,,,,,,,,,,,m,1,0.7357,,,,,,,,0.17843389,0.111039795,0,0,0,,0,104,104,18,1,PARCEL,C,old,m,./images/PARCEL.png,,,,,,,,,,,,,,,,,,,,,,,,,,,,,,,,,,,
,,,,,,,,,,,,,,,,,5b4991de56e0140001acb76b,25,2022-02-12_18h01.30.649,lexical_decision_task_DD_L4,2021.2.3,Win32,60.06366749,,,,,,,,,,,,0.6059,1,,,,,,,,,,,,,,m,1,0.6059,,,,,,,,0.17843389,0.111039795,0,0,0,,0,105,105,83,1,WHISKY,LB,old,m,./images/WHISKYLB.png,,,,,,,,,,,,,,,,,,,,,,,,,,,,,,,,,,,
,,,,,,,,,,,,,,,,,5b4991de56e0140001acb76b,25,2022-02-12_18h01.30.649,lexical_decision_task_DD_L4,2021.2.3,Win32,60.06366749,,,,,,,,,,,,0.5111,1,,,,,,,,,,,,,,z,1,0.5111,,,,,,,,0.17843389,0.111039795,0,0,0,,0,106,106,102,1,DULLE,C,old,z,./images/DULLE.png,,,,,,,,,,,,,,,,,,,,,,,,,,,,,,,,,,,
,,,,,,,,,,,,,,,,,5b4991de56e0140001acb76b,25,2022-02-12_18h01.30.649,lexical_decision_task_DD_L4,2021.2.3,Win32,60.06366749,,,,,,,,,,,,0.5155,1,,,,,,,,,,,,,,z,1,0.5155,,,,,,,,0.17843389,0.111039795,0,0,0,,0,107,107,113,1,LINEW,LB,old,z,./images/LINEWLB.png,,,,,,,,,,,,,,,,,,,,,,,,,,,,,,,,,,,
,,,,,,,,,,,,,,,,,5b4991de56e0140001acb76b,25,2022-02-12_18h01.30.649,lexical_decision_task_DD_L4,2021.2.3,Win32,60.06366749,,,,,,,,,,,,0.6589,1,,,,,,,,,,,,,,m,1,0.6589,,,,,,,,0.17843389,0.111039795,0,0,0,,0,108,108,50,1,PILOT,LB,old,m,./images/PILOTLB.png,,,,,,,,,,,,,,,,,,,,,,,,,,,,,,,,,,,
,,,,,,,,,,,,,,,,,5b4991de56e0140001acb76b,25,2022-02-12_18h01.30.649,lexical_decision_task_DD_L4,2021.2.3,Win32,60.06366749,,,,,,,,,,,,0.5756,1,,,,,,,,,,,,,,m,1,0.5756,,,,,,,,0.17843389,0.111039795,0,0,0,,0,109,109,60,1,CURRY,C,old,m,./images/CURRY.png,,,,,,,,,,,,,,,,,,,,,,,,,,,,,,,,,,,
,,,,,,,,,,,,,,,,,5b4991de56e0140001acb76b,25,2022-02-12_18h01.30.649,lexical_decision_task_DD_L4,2021.2.3,Win32,60.06366749,,,,,,,,,,,,0.6306,1,,,,,,,,,,,,,,z,1,0.6306,,,,,,,,0.17843389,0.111039795,0,0,0,,0,110,110,165,1,TROWN,C,old,z,./images/TROWN.png,,,,,,,,,,,,,,,,,,,,,,,,,,,,,,,,,,,
,,,,,,,,,,,,,,,,,5b4991de56e0140001acb76b,25,2022-02-12_18h01.30.649,lexical_decision_task_DD_L4,2021.2.3,Win32,60.06366749,,,,,,,,,,,,0.5792,1,,,,,,,,,,,,,,z,1,0.5792,,,,,,,,0.17843389,0.111039795,0,0,0,,0,111,111,84,1,HAXES,C,old,z,./images/HAXES.png,,,,,,,,,,,,,,,,,,,,,,,,,,,,,,,,,,,
,,,,,,,,,,,,,,,,,5b4991de56e0140001acb76b,25,2022-02-12_18h01.30.649,lexical_decision_task_DD_L4,2021.2.3,Win32,60.06366749,,,,,,,,,,,,1.1119,0,,,,,,,,,,,,,,z,0,1.1119,,,,,,,,0.17843389,0.111039795,0,0,0,,0,112,112,25,1,CHALK,HB,old,m,./images/CHALKHB.png,,,,,,,,,,,,,,,,,,,,,,,,,,,,,,,,,,,
,,,,,,,,,,,,,,,,,5b4991de56e0140001acb76b,25,2022-02-12_18h01.30.649,lexical_decision_task_DD_L4,2021.2.3,Win32,60.06366749,,,,,,,,,,,,0.844,1,,,,,,,,,,,,,,m,1,0.844,,,,,,,,0.17843389,0.111039795,0,0,0,,0,113,113,8,1,CLIFF,LB,old,m,./images/CLIFFLB.png,,,,,,,,,,,,,,,,,,,,,,,,,,,,,,,,,,,
,,,,,,,,,,,,,,,,,5b4991de56e0140001acb76b,25,2022-02-12_18h01.30.649,lexical_decision_task_DD_L4,2021.2.3,Win32,60.06366749,,,,,,,,,,,,0.5888,1,,,,,,,,,,,,,,m,1,0.5888,,,,,,,,0.17843389,0.111039795,0,0,0,,0,114,114,74,1,JUMPER,LB,old,m,./images/JUMPERLB.png,,,,,,,,,,,,,,,,,,,,,,,,,,,,,,,,,,,
,,,,,,,,,,,,,,,,,5b4991de56e0140001acb76b,25,2022-02-12_18h01.30.649,lexical_decision_task_DD_L4,2021.2.3,Win32,60.06366749,,,,,,,,,,,,0.6223,1,,,,,,,,,,,,,,z,1,0.6223,,,,,,,,0.17843389,0.111039795,0,0,0,,0,115,115,144,1,NAIRY,C,old,z,./images/NAIRY.png,,,,,,,,,,,,,,,,,,,,,,,,,,,,,,,,,,,
,,,,,,,,,,,,,,,,,5b4991de56e0140001acb76b,25,2022-02-12_18h01.30.649,lexical_decision_task_DD_L4,2021.2.3,Win32,60.06366749,,,,,,,,,,,,0.8911,1,,,,,,,,,,,,,,m,1,0.8911,,,,,,,,0.17843389,0.111039795,0,0,0,,0,116,116,72,1,FLASK,C,old,m,./images/FLASK.png,,,,,,,,,,,,,,,,,,,,,,,,,,,,,,,,,,,
,,,,,,,,,,,,,,,,,5b4991de56e0140001acb76b,25,2022-02-12_18h01.30.649,lexical_decision_task_DD_L4,2021.2.3,Win32,60.06366749,,,,,,,,,,,,0.7753,1,,,,,,,,,,,,,,z,1,0.7753,,,,,,,,0.17843389,0.111039795,0,0,0,,0,117,117,106,1,CLUMS,HB,old,z,./images/CLUMSHB.png,,,,,,,,,,,,,,,,,,,,,,,,,,,,,,,,,,,
,,,,,,,,,,,,,,,,,5b4991de56e0140001acb76b,25,2022-02-12_18h01.30.649,lexical_decision_task_DD_L4,2021.2.3,Win32,60.06366749,,,,,,,,,,,,0.679,1,,,,,,,,,,,,,,m,1,0.679,,,,,,,,0.17843389,0.111039795,0,0,0,,0,118,118,47,1,LAGOON,LB,old,m,./images/LAGOONLB.png,,,,,,,,,,,,,,,,,,,,,,,,,,,,,,,,,,,
,,,,,,,,,,,,,,,,,5b4991de56e0140001acb76b,25,2022-02-12_18h01.30.649,lexical_decision_task_DD_L4,2021.2.3,Win32,60.06366749,,,,,,,,,,,,0.9774,1,,,,,,,,,,,,,,m,1,0.9774,,,,,,,,0.17843389,0.111039795,0,0,0,,0,119,119,73,1,GLOVE,HB,old,m,./images/GLOVEHB.png,,,,,,,,,,,,,,,,,,,,,,,,,,,,,,,,,,,
,,,,,,,,,,,,,,,,,5b4991de56e0140001acb76b,25,2022-02-12_18h01.30.649,lexical_decision_task_DD_L4,2021.2.3,Win32,60.06366749,,,,,,,,,,,,1.0843,1,,,,,,,,,,,,,,m,1,1.0843,,,,,,,,0.17843389,0.111039795,0,0,0,,0,120,120,41,1,STREAM,LB,old,m,./images/STREAMLB.png,,,,,,,,,,,,,,,,,,,,,,,,,,,,,,,,,,,
,,,,,,,,,,,,,,,,,5b4991de56e0140001acb76b,25,2022-02-12_18h01.30.649,lexical_decision_task_DD_L4,2021.2.3,Win32,60.06366749,,,,,,,,,,,,0.72,1,,,,,,,,,,,,,,z,1,0.72,,,,,,,,0.17843389,0.111039795,0,0,0,,0,121,121,122,1,BLOOT,LB,old,z,./images/BLOOTLB.png,,,,,,,,,,,,,,,,,,,,,,,,,,,,,,,,,,,
,,,,,,,,,,,,,,,,,5b4991de56e0140001acb76b,25,2022-02-12_18h01.30.649,lexical_decision_task_DD_L4,2021.2.3,Win32,60.06366749,,,,,,,,,,,,0.9697,1,,,,,,,,,,,,,,z,1,0.9697,,,,,,,,0.17843389,0.111039795,0,0,0,,0,122,122,160,1,VEETS,HB,old,z,./images/VEETSHB.png,,,,,,,,,,,,,,,,,,,,,,,,,,,,,,,,,,,
,,,,,,,,,,,,,,,,,5b4991de56e0140001acb76b,25,2022-02-12_18h01.30.649,lexical_decision_task_DD_L4,2021.2.3,Win32,60.06366749,,,,,,,,,,,,0.8923,1,,,,,,,,,,,,,,z,1,0.8923,,,,,,,,0.17843389,0.111039795,0,0,0,,0,123,123,157,1,INLER,HB,old,z,./images/INLERHB.png,,,,,,,,,,,,,,,,,,,,,,,,,,,,,,,,,,,
,,,,,,,,,,,,,,,,,5b4991de56e0140001acb76b,25,2022-02-12_18h01.30.649,lexical_decision_task_DD_L4,2021.2.3,Win32,60.06366749,,,,,,,,,,,,0.9871,1,,,,,,,,,,,,,,z,1,0.9871,,,,,,,,0.17843389,0.111039795,0,0,0,,0,124,124,97,1,CHIDS,HB,old,z,./images/CHIDSHB.png,,,,,,,,,,,,,,,,,,,,,,,,,,,,,,,,,,,
,,,,,,,,,,,,,,,,,5b4991de56e0140001acb76b,25,2022-02-12_18h01.30.649,lexical_decision_task_DD_L4,2021.2.3,Win32,60.06366749,,,,,,,,,,,,0.8773,1,,,,,,,,,,,,,,z,1,0.8773,,,,,,,,0.038510911,-0.389602054,1,0,0,,0,125,125,107,1,FASKS,LB,old,z,./images/FASKSLB.png,break_done_button,,,,,,,,,,,,,,,,,,,,,,,,,,,,,,,,,,
,,,,,,,,,,,,,,,,,5b4991de56e0140001acb76b,25,2022-02-12_18h01.30.649,lexical_decision_task_DD_L4,2021.2.3,Win32,60.06366749,,,,,,,,,,,,0.7697,1,,,,,,,,,,,,,,m,1,0.7697,,,,,,,,0.077021823,-0.048138639,0,0,0,,0,126,126,69,1,ARROW,C,old,m,./images/ARROW.png,,,,,,,,,,,,,,,,,,,,,,,,,,,,,,,,,,,
,,,,,,,,,,,,,,,,,5b4991de56e0140001acb76b,25,2022-02-12_18h01.30.649,lexical_decision_task_DD_L4,2021.2.3,Win32,60.06366749,,,,,,,,,,,,0.6056,1,,,,,,,,,,,,,,z,1,0.6056,,,,,,,,0.077021823,-0.048138639,0,0,0,,0,127,127,116,1,BALGY,LB,old,z,./images/BALGYLB.png,,,,,,,,,,,,,,,,,,,,,,,,,,,,,,,,,,,
,,,,,,,,,,,,,,,,,5b4991de56e0140001acb76b,25,2022-02-12_18h01.30.649,lexical_decision_task_DD_L4,2021.2.3,Win32,60.06366749,,,,,,,,,,,,0.5666,1,,,,,,,,,,,,,,z,1,0.5666,,,,,,,,0.077021823,-0.048138639,0,0,0,,0,128,128,138,1,PLICE,C,old,z,./images/PLICE.png,,,,,,,,,,,,,,,,,,,,,,,,,,,,,,,,,,,
,,,,,,,,,,,,,,,,,5b4991de56e0140001acb76b,25,2022-02-12_18h01.30.649,lexical_decision_task_DD_L4,2021.2.3,Win32,60.06366749,,,,,,,,,,,,0.5066,1,,,,,,,,,,,,,,z,1,0.5066,,,,,,,,0.077021823,-0.048138639,0,0,0,,0,129,129,90,1,NEAST,C,old,z,./images/NEAST.png,,,,,,,,,,,,,,,,,,,,,,,,,,,,,,,,,,,
,,,,,,,,,,,,,,,,,5b4991de56e0140001acb76b,25,2022-02-12_18h01.30.649,lexical_decision_task_DD_L4,2021.2.3,Win32,60.06366749,,,,,,,,,,,,0.6102,1,,,,,,,,,,,,,,z,1,0.6102,,,,,,,,0.077021823,-0.048138639,0,0,0,,0,130,130,105,1,MOKER,C,old,z,./images/MOKER.png,,,,,,,,,,,,,,,,,,,,,,,,,,,,,,,,,,,
,,,,,,,,,,,,,,,,,5b4991de56e0140001acb76b,25,2022-02-12_18h01.30.649,lexical_decision_task_DD_L4,2021.2.3,Win32,60.06366749,,,,,,,,,,,,0.7869,1,,,,,,,,,,,,,,m,1,0.7869,,,,,,,,0.077021823,-0.048138639,0,0,0,,0,131,131,79,1,RULER,HB,old,m,./images/RULERHB.png,,,,,,,,,,,,,,,,,,,,,,,,,,,,,,,,,,,
,,,,,,,,,,,,,,,,,5b4991de56e0140001acb76b,25,2022-02-12_18h01.30.649,lexical_decision_task_DD_L4,2021.2.3,Win32,60.06366749,,,,,,,,,,,,0.6073,1,,,,,,,,,,,,,,m,1,0.6073,,,,,,,,0.077021823,-0.048138639,0,0,0,,0,132,132,40,1,SNAKE,HB,old,m,./images/SNAKEHB.png,,,,,,,,,,,,,,,,,,,,,,,,,,,,,,,,,,,
,,,,,,,,,,,,,,,,,5b4991de56e0140001acb76b,25,2022-02-12_18h01.30.649,lexical_decision_task_DD_L4,2021.2.3,Win32,60.06366749,,,,,,,,,,,,0.5489,1,,,,,,,,,,,,,,m,1,0.5489,,,,,,,,0.077021823,-0.048138639,0,0,0,,0,133,133,42,1,CHAIN,C,old,m,./images/CHAIN.png,,,,,,,,,,,,,,,,,,,,,,,,,,,,,,,,,,,
,,,,,,,,,,,,,,,,,5b4991de56e0140001acb76b,25,2022-02-12_18h01.30.649,lexical_decision_task_DD_L4,2021.2.3,Win32,60.06366749,,,,,,,,,,,,0.7738,1,,,,,,,,,,,,,,m,1,0.7738,,,,,,,,0.077021823,-0.048138639,0,0,0,,0,134,134,35,1,LLAMA,LB,old,m,./images/LLAMALB.png,,,,,,,,,,,,,,,,,,,,,,,,,,,,,,,,,,,
,,,,,,,,,,,,,,,,,5b4991de56e0140001acb76b,25,2022-02-12_18h01.30.649,lexical_decision_task_DD_L4,2021.2.3,Win32,60.06366749,,,,,,,,,,,,0.5319,1,,,,,,,,,,,,,,m,1,0.5319,,,,,,,,0.077021823,-0.048138639,0,0,0,,0,135,135,65,1,SPINE,LB,old,m,./images/SPINELB.png,,,,,,,,,,,,,,,,,,,,,,,,,,,,,,,,,,,
,,,,,,,,,,,,,,,,,5b4991de56e0140001acb76b,25,2022-02-12_18h01.30.649,lexical_decision_task_DD_L4,2021.2.3,Win32,60.06366749,,,,,,,,,,,,0.789,1,,,,,,,,,,,,,,z,1,0.789,,,,,,,,0.077021823,-0.048138639,0,0,0,,0,136,136,127,1,NINDY,HB,old,z,./images/NINDYHB.png,,,,,,,,,,,,,,,,,,,,,,,,,,,,,,,,,,,
,,,,,,,,,,,,,,,,,5b4991de56e0140001acb76b,25,2022-02-12_18h01.30.649,lexical_decision_task_DD_L4,2021.2.3,Win32,60.06366749,,,,,,,,,,,,0.5676,1,,,,,,,,,,,,,,z,1,0.5676,,,,,,,,0.077021823,-0.048138639,0,0,0,,0,137,137,111,1,HOSSE,C,old,z,./images/HOSSE.png,,,,,,,,,,,,,,,,,,,,,,,,,,,,,,,,,,,
,,,,,,,,,,,,,,,,,5b4991de56e0140001acb76b,25,2022-02-12_18h01.30.649,lexical_decision_task_DD_L4,2021.2.3,Win32,60.06366749,,,,,,,,,,,,0.7429,1,,,,,,,,,,,,,,m,1,0.7429,,,,,,,,0.077021823,-0.048138639,0,0,0,,0,138,138,11,1,MEDAL,LB,old,m,./images/MEDALLB.png,,,,,,,,,,,,,,,,,,,,,,,,,,,,,,,,,,,
,,,,,,,,,,,,,,,,,5b4991de56e0140001acb76b,25,2022-02-12_18h01.30.649,lexical_decision_task_DD_L4,2021.2.3,Win32,60.06366749,,,,,,,,,,,,0.5444,1,,,,,,,,,,,,,,z,1,0.5444,,,,,,,,0.077021823,-0.048138639,0,0,0,,0,139,139,135,1,JOODY,C,old,z,./images/JOODY.png,,,,,,,,,,,,,,,,,,,,,,,,,,,,,,,,,,,
,,,,,,,,,,,,,,,,,5b4991de56e0140001acb76b,25,2022-02-12_18h01.30.649,lexical_decision_task_DD_L4,2021.2.3,Win32,60.06366749,,,,,,,,,,,,0.6594,1,,,,,,,,,,,,,,m,1,0.6594,,,,,,,,0.077021823,-0.048138639,0,0,0,,0,140,140,2,1,STOVE,LB,old,m,./images/STOVELB.png,,,,,,,,,,,,,,,,,,,,,,,,,,,,,,,,,,,
,,,,,,,,,,,,,,,,,5b4991de56e0140001acb76b,25,2022-02-12_18h01.30.649,lexical_decision_task_DD_L4,2021.2.3,Win32,60.06366749,,,,,,,,,,,,0.5701,1,,,,,,,,,,,,,,z,1,0.5701,,,,,,,,0.077021823,-0.048138639,0,0,0,,0,141,141,123,1,SEDGE,C,old,z,./images/SEDGE.png,,,,,,,,,,,,,,,,,,,,,,,,,,,,,,,,,,,
,,,,,,,,,,,,,,,,,5b4991de56e0140001acb76b,25,2022-02-12_18h01.30.649,lexical_decision_task_DD_L4,2021.2.3,Win32,60.06366749,,,,,,,,,,,,0.6233,1,,,,,,,,,,,,,,z,1,0.6233,,,,,,,,0.077021823,-0.048138639,0,0,0,,0,142,142,92,1,PAIMS,LB,old,z,./images/PAIMSLB.png,,,,,,,,,,,,,,,,,,,,,,,,,,,,,,,,,,,
,,,,,,,,,,,,,,,,,5b4991de56e0140001acb76b,25,2022-02-12_18h01.30.649,lexical_decision_task_DD_L4,2021.2.3,Win32,60.06366749,,,,,,,,,,,,0.6912,1,,,,,,,,,,,,,,m,1,0.6912,,,,,,,,0.077021823,-0.048138639,0,0,0,,0,143,143,56,1,HEATER,LB,old,m,./images/HEATERLB.png,,,,,,,,,,,,,,,,,,,,,,,,,,,,,,,,,,,
,,,,,,,,,,,,,,,,,5b4991de56e0140001acb76b,25,2022-02-12_18h01.30.649,lexical_decision_task_DD_L4,2021.2.3,Win32,60.06366749,,,,,,,,,,,,0.57,1,,,,,,,,,,,,,,z,1,0.57,,,,,,,,0.077021823,-0.048138639,0,0,0,,0,144,144,155,1,CANGY,LB,old,z,./images/CANGYLB.png,,,,,,,,,,,,,,,,,,,,,,,,,,,,,,,,,,,
,,,,,,,,,,,,,,,,,5b4991de56e0140001acb76b,25,2022-02-12_18h01.30.649,lexical_decision_task_DD_L4,2021.2.3,Win32,60.06366749,,,,,,,,,,,,0.4959,1,,,,,,,,,,,,,,z,1,0.4959,,,,,,,,0.077021823,-0.048138639,0,0,0,,0,145,145,87,1,TRING,C,old,z,./images/TRING.png,,,,,,,,,,,,,,,,,,,,,,,,,,,,,,,,,,,
,,,,,,,,,,,,,,,,,5b4991de56e0140001acb76b,25,2022-02-12_18h01.30.649,lexical_decision_task_DD_L4,2021.2.3,Win32,60.06366749,,,,,,,,,,,,0.5636,1,,,,,,,,,,,,,,z,1,0.5636,,,,,,,,0.077021823,-0.048138639,0,0,0,,0,146,146,141,1,PLEET,C,old,z,./images/PLEET.png,,,,,,,,,,,,,,,,,,,,,,,,,,,,,,,,,,,
,,,,,,,,,,,,,,,,,5b4991de56e0140001acb76b,25,2022-02-12_18h01.30.649,lexical_decision_task_DD_L4,2021.2.3,Win32,60.06366749,,,,,,,,,,,,0.7381,1,,,,,,,,,,,,,,m,1,0.7381,,,,,,,,0.077021823,-0.048138639,0,0,0,,0,147,147,38,1,ENGINE,LB,old,m,./images/ENGINELB.png,,,,,,,,,,,,,,,,,,,,,,,,,,,,,,,,,,,
,,,,,,,,,,,,,,,,,5b4991de56e0140001acb76b,25,2022-02-12_18h01.30.649,lexical_decision_task_DD_L4,2021.2.3,Win32,60.06366749,,,,,,,,,,,,0.5693,1,,,,,,,,,,,,,,z,1,0.5693,,,,,,,,0.077021823,-0.048138639,0,0,0,,0,148,148,128,1,GRIFT,LB,old,z,./images/GRIFTLB.png,,,,,,,,,,,,,,,,,,,,,,,,,,,,,,,,,,,
,,,,,,,,,,,,,,,,,5b4991de56e0140001acb76b,25,2022-02-12_18h01.30.649,lexical_decision_task_DD_L4,2021.2.3,Win32,60.06366749,,,,,,,,,,,,0.7028,1,,,,,,,,,,,,,,m,1,0.7028,,,,,,,,0.077021823,-0.048138639,0,0,0,,0,149,149,26,1,CLOUD,LB,old,m,./images/CLOUDLB.png,,,,,,,,,,,,,,,,,,,,,,,,,,,,,,,,,,,
,,,,,,,,,,,,,,,,,5b4991de56e0140001acb76b,25,2022-02-12_18h01.30.649,lexical_decision_task_DD_L4,2021.2.3,Win32,60.06366749,,,,,,,,,,,,0.7439,1,,,,,,,,,,,,,,m,1,0.7439,,,,,,,,0.077021823,-0.048138639,0,0,0,,0,150,150,62,1,MAMMAL,LB,old,m,./images/MAMMALLB.png,,,,,,,,,,,,,,,,,,,,,,,,,,,,,,,,,,,
,,,,,,,,,,,,,,,,,5b4991de56e0140001acb76b,25,2022-02-12_18h01.30.649,lexical_decision_task_DD_L4,2021.2.3,Win32,60.06366749,,,,,,,,,,,,0.6816,1,,,,,,,,,,,,,,m,1,0.6816,,,,,,,,0.077021823,-0.048138639,0,0,0,,0,151,151,5,1,BAMBOO,LB,old,m,./images/BAMBOOLB.png,,,,,,,,,,,,,,,,,,,,,,,,,,,,,,,,,,,
,,,,,,,,,,,,,,,,,5b4991de56e0140001acb76b,25,2022-02-12_18h01.30.649,lexical_decision_task_DD_L4,2021.2.3,Win32,60.06366749,,,,,,,,,,,,1.1706,1,,,,,,,,,,,,,,z,1,1.1706,,,,,,,,0.077021823,-0.048138639,0,0,0,,0,152,152,94,1,BLANS,HB,old,z,./images/BLANSHB.png,,,,,,,,,,,,,,,,,,,,,,,,,,,,,,,,,,,
,,,,,,,,,,,,,,,,,5b4991de56e0140001acb76b,25,2022-02-12_18h01.30.649,lexical_decision_task_DD_L4,2021.2.3,Win32,60.06366749,,,,,,,,,,,,0.7404,1,,,,,,,,,,,,,,z,1,0.7404,,,,,,,,0.077021823,-0.048138639,0,0,0,,0,153,153,161,1,BLAPS,LB,old,z,./images/BLAPSLB.png,,,,,,,,,,,,,,,,,,,,,,,,,,,,,,,,,,,
,,,,,,,,,,,,,,,,,5b4991de56e0140001acb76b,25,2022-02-12_18h01.30.649,lexical_decision_task_DD_L4,2021.2.3,Win32,60.06366749,,,,,,,,,,,,0.6974,1,,,,,,,,,,,,,,m,1,0.6974,,,,,,,,0.077021823,-0.048138639,0,0,0,,0,154,154,71,1,BUBBLE,LB,old,m,./images/BUBBLELB.png,,,,,,,,,,,,,,,,,,,,,,,,,,,,,,,,,,,
,,,,,,,,,,,,,,,,,5b4991de56e0140001acb76b,25,2022-02-12_18h01.30.649,lexical_decision_task_DD_L4,2021.2.3,Win32,60.06366749,,,,,,,,,,,,0.7383,1,,,,,,,,,,,,,,m,1,0.7383,,,,,,,,0.077021823,-0.048138639,0,0,0,,0,155,155,23,1,CLOTH,LB,old,m,./images/CLOTHLB.png,,,,,,,,,,,,,,,,,,,,,,,,,,,,,,,,,,,
,,,,,,,,,,,,,,,,,5b4991de56e0140001acb76b,25,2022-02-12_18h01.30.649,lexical_decision_task_DD_L4,2021.2.3,Win32,60.06366749,,,,,,,,,,,,0.6235,1,,,,,,,,,,,,,,z,1,0.6235,,,,,,,,0.077021823,-0.048138639,0,0,0,,0,156,156,95,1,HANTY,LB,old,z,./images/HANTYLB.png,,,,,,,,,,,,,,,,,,,,,,,,,,,,,,,,,,,
,,,,,,,,,,,,,,,,,5b4991de56e0140001acb76b,25,2022-02-12_18h01.30.649,lexical_decision_task_DD_L4,2021.2.3,Win32,60.06366749,,,,,,,,,,,,0.8214,1,,,,,,,,,,,,,,z,1,0.8214,,,,,,,,0.077021823,-0.048138639,0,0,0,,0,157,157,100,1,DRIBS,HB,old,z,./images/DRIBSHB.png,,,,,,,,,,,,,,,,,,,,,,,,,,,,,,,,,,,
,,,,,,,,,,,,,,,,,5b4991de56e0140001acb76b,25,2022-02-12_18h01.30.649,lexical_decision_task_DD_L4,2021.2.3,Win32,60.06366749,,,,,,,,,,,,0.6249,1,,,,,,,,,,,,,,z,1,0.6249,,,,,,,,0.077021823,-0.048138639,0,0,0,,0,158,158,153,1,CLUPS,C,old,z,./images/CLUPS.png,,,,,,,,,,,,,,,,,,,,,,,,,,,,,,,,,,,
,,,,,,,,,,,,,,,,,5b4991de56e0140001acb76b,25,2022-02-12_18h01.30.649,lexical_decision_task_DD_L4,2021.2.3,Win32,60.06366749,,,,,,,,,,,,0.6602,1,,,,,,,,,,,,,,m,1,0.6602,,,,,,,,0.077021823,-0.048138639,0,0,0,,0,159,159,81,1,DRILL,C,old,m,./images/DRILL.png,,,,,,,,,,,,,,,,,,,,,,,,,,,,,,,,,,,
,,,,,,,,,,,,,,,,,5b4991de56e0140001acb76b,25,2022-02-12_18h01.30.649,lexical_decision_task_DD_L4,2021.2.3,Win32,60.06366749,,,,,,,,,,,,1.0578,1,,,,,,,,,,,,,,m,1,1.0578,,,,,,,,0.077021823,-0.048138639,0,0,0,,0,160,160,76,1,MIDGET,HB,old,m,./images/MIDGETHB.png,,,,,,,,,,,,,,,,,,,,,,,,,,,,,,,,,,,
,,,,,,,,,,,,,,,,,5b4991de56e0140001acb76b,25,2022-02-12_18h01.30.649,lexical_decision_task_DD_L4,2021.2.3,Win32,60.06366749,,,,,,,,,,,,0.6121,1,,,,,,,,,,,,,,m,1,0.6121,,,,,,,,0.077021823,-0.048138639,0,0,0,,0,161,161,24,1,FLESH,C,old,m,./images/FLESH.png,,,,,,,,,,,,,,,,,,,,,,,,,,,,,,,,,,,
,,,,,,,,,,,,,,,,,5b4991de56e0140001acb76b,25,2022-02-12_18h01.30.649,lexical_decision_task_DD_L4,2021.2.3,Win32,60.06366749,,,,,,,,,,,,0.8886,1,,,,,,,,,,,,,,m,1,0.8886,,,,,,,,0.077021823,-0.048138639,0,0,0,,0,162,162,49,1,BISHOP,HB,old,m,./images/BISHOPHB.png,,,,,,,,,,,,,,,,,,,,,,,,,,,,,,,,,,,
,,,,,,,,,,,,,,,,,5b4991de56e0140001acb76b,25,2022-02-12_18h01.30.649,lexical_decision_task_DD_L4,2021.2.3,Win32,60.06366749,,,,,,,,,,,,0.654,1,,,,,,,,,,,,,,z,1,0.654,,,,,,,,0.077021823,-0.048138639,0,0,0,,0,163,163,147,1,ZOLES,C,old,z,./images/ZOLES.png,,,,,,,,,,,,,,,,,,,,,,,,,,,,,,,,,,,
,,,,,,,,,,,,,,,,,5b4991de56e0140001acb76b,25,2022-02-12_18h01.30.649,lexical_decision_task_DD_L4,2021.2.3,Win32,60.06366749,,,,,,,,,,,,0.6578,1,,,,,,,,,,,,,,z,1,0.6578,,,,,,,,0.077021823,-0.048138639,0,0,0,,0,164,164,125,1,MOOKY,LB,old,z,./images/MOOKYLB.png,,,,,,,,,,,,,,,,,,,,,,,,,,,,,,,,,,,
,,,,,,,,,,,,,,,,,5b4991de56e0140001acb76b,25,2022-02-12_18h01.30.649,lexical_decision_task_DD_L4,2021.2.3,Win32,60.06366749,,,,,,,,,,,,0.9422,1,,,,,,,,,,,,,,z,1,0.9422,,,,,,,,0.077021823,-0.048138639,0,0,0,,0,165,165,124,1,TUNCH,HB,old,z,./images/TUNCHHB.png,,,,,,,,,,,,,,,,,,,,,,,,,,,,,,,,,,,
,,,,,,,,,,,,,,,,,5b4991de56e0140001acb76b,25,2022-02-12_18h01.30.649,lexical_decision_task_DD_L4,2021.2.3,Win32,60.06366749,,,,,,,,,,,,0.7083,1,,,,,,,,,,,,,,m,1,0.7083,,,,,,,,0.077021823,-0.048138639,0,0,0,,0,166,166,68,1,VALLEY,LB,old,m,./images/VALLEYLB.png,,,,,,,,,,,,,,,,,,,,,,,,,,,,,,,,,,,
,,,,,,,,,,,,,,,,,5b4991de56e0140001acb76b,25,2022-02-12_18h01.30.649,lexical_decision_task_DD_L4,2021.2.3,Win32,60.06366749,,,,,,,,,,,,0.6923,1,,,,,,,,,,,,,,m,1,0.6923,,,,,,,,0.077021823,-0.048138639,0,0,0,,0,167,167,28,1,CASINO,HB,old,m,./images/CASINOHB.png,,,,,,,,,,,,,,,,,,,,,,,,,,,,,,,,,,,
,,,,,,,,,,,,,,,,,5b4991de56e0140001acb76b,25,2022-02-12_18h01.30.649,lexical_decision_task_DD_L4,2021.2.3,Win32,60.06366749,,,,,,,,,,,,,,,,,,,,,,,,,,,,,,,,,,,,,,,,,,,,,,,,,How likely will it be that you will recognize the words presented clearly on a scale of 0 (not likely) to 100 (most likely)?,,,,,,0.016688062,-0.405006418,1,0,0,jol_adv,1,4.4516,0,0,0,0,1,,,,,,,,,,,,,,,,,,,,
,,,,,,,,,,,,,,,,,5b4991de56e0140001acb76b,25,2022-02-12_18h01.30.649,lexical_decision_task_DD_L4,2021.2.3,Win32,60.06366749,,,,,,,,,,,,,,,,,,,,,,,,,,,,,,,,,,,,,,,,,,,,,,,,,How likely will it be that you will recognize the words presented very blurred on a scale of 0 (not likely) to 100 (most likely)?,,,,,,,,,,,,2,6.3874,0,1,1,2,1,,,,,,,,,,,,,,,,,,,,
,,,,,,,,,,,,,,,,,5b4991de56e0140001acb76b,25,2022-02-12_18h01.30.649,lexical_decision_task_DD_L4,2021.2.3,Win32,60.06366749,,,,,,,,,,,,,,,,,,,,,,,,,,,,,,,,,,,,,,,,,,,,,,,,,How likely will it be that you will recognize the words presented slighly blurred on a scale of 0 (not likely) to 100 (most likely)?,,,,,,,,,,,,4,2.5778,0,2,2,1,1,,,,,,,,,,,,,,,,,,,,
space,-0.044929397,0.295892169,0,0,0,,,,,,,1,test,"In the next phase you will be presented with the words from the the first phase. Your job is to decide whether you remember seeing the word or not. If you remember seeing the word press ""old"" or type ""m"". If you do not remember seeing the word press ""new"" or type ""z"". Please press the space bar or click on continue to begin. ",,,5b4991de56e0140001acb76b,25,2022-02-12_18h01.30.649,lexical_decision_task_DD_L4,2021.2.3,Win32,60.06366749,11.3287,,,,,,,,,,,,,,,,,,,,,,,,,,,,,,,,,,,,,,,,,,,,,,,,,,,,,,,,,,,,,,,,,,,0,0,0,0,1,,,,,,,,,,,,,,,
,0.062901155,-0.417843389,1,0,0,instr_done_button,,,,,,1,test,"In the next phase you will be presented with the words from the the first phase. Your job is to decide whether you remember seeing the word or not. If you remember seeing the word press ""old"" or type ""m"". If you do not remember seeing the word press ""new"" or type ""z"". Please press the space bar or click on continue to begin. ",,,5b4991de56e0140001acb76b,25,2022-02-12_18h01.30.649,lexical_decision_task_DD_L4,2021.2.3,Win32,60.06366749,,,,,,,,,,,,,,,,,,,,,,,,,,,,,,,,,,,,,,,,,,,,,,,,,,,,,,,,,,,,,,,,,,,,1,0,1,0,1,,,,,,,,,,,,,,,
,0.053915276,-0.380616175,1,0,0,instr_done_button,,,,,,1,test,"In the next phase you will be presented with the words from the the first phase. Your job is to decide whether you remember seeing the word or not. If you remember seeing the word press ""old"" or type ""m"". If you do not remember seeing the word press ""new"" or type ""z"". Please press the space bar or click on continue to begin. ",,,5b4991de56e0140001acb76b,25,2022-02-12_18h01.30.649,lexical_decision_task_DD_L4,2021.2.3,Win32,60.06366749,,,,,,,,,,,,,,,,,,,,,,,,,,,,,,,,,,,,,,,,,,,,,,,,,,,,,,,,,,,,,,,,,,,,2,0,2,0,1,,,,,,,,,,,,,,,
space,0.145057766,-0.149550706,0,0,0,,,,,,,1,test,"In the next phase you will be presented with the words from the the first phase. Your job is to decide whether you remember seeing the word or not. If you remember seeing the word press ""old"" or type ""m"". If you do not remember seeing the word press ""new"" or type ""z"". Please press the space bar or click on continue to begin. ",,,5b4991de56e0140001acb76b,25,2022-02-12_18h01.30.649,lexical_decision_task_DD_L4,2021.2.3,Win32,60.06366749,0.7156,,,,,,,,,,,,,,,,,,,,,,,,,,,,,,,,,,,,,,,,,,,,,,,,,,,,,,,,,,,,,,,,,,,3,0,3,0,1,,,,,,,,,,,,,,,
space,0.201540436,-0.046854942,0,0,0,,,,,,,1,test,"In the next phase you will be presented with the words from the the first phase. Your job is to decide whether you remember seeing the word or not. If you remember seeing the word press ""old"" or type ""m"". If you do not remember seeing the word press ""new"" or type ""z"". Please press the space bar or click on continue to begin. ",,,5b4991de56e0140001acb76b,25,2022-02-12_18h01.30.649,lexical_decision_task_DD_L4,2021.2.3,Win32,60.06366749,1.4796,,,,,,,,,,,,,,,,,,,,,,,,,,,,,,,,,,,,,,,,,,,,,,,,,,,,,,,,,,,,,,,,,,,4,0,4,0,1,,,,,,,,,,,,,,,
,,,,,,,,,,,,,,,,,5b4991de56e0140001acb76b,25,2022-02-12_18h01.30.649,lexical_decision_task_DD_L4,2021.2.3,Win32,60.06366749,,,,,,,,,,,,2.9909,0,,,,,,,,,,,,,,,,,,,,,,,,0.201540436,-0.046854942,0,0,0,,,,,,,MELON,HB,z,y,./images/MELONHB.png,,,,,,,,,,,,,,,,,,,,,m,0,2.9909,,,,,,,,0,0,0,106,1
,,,,,,,,,,,,,,,,,5b4991de56e0140001acb76b,25,2022-02-12_18h01.30.649,lexical_decision_task_DD_L4,2021.2.3,Win32,60.06366749,,,,,,,,,,,,1.0698,1,,,,,,,,,,,,,,,,,,,,,,,,0.201540436,-0.046854942,0,0,0,,,,,,,INFANT,HB,z,y,./images/INFANTHB.png,,,,,,,,,,,,,,,,,,,,,z,1,1.0698,,,,,,,,0,1,1,160,1
,,,,,,,,,,,,,,,,,5b4991de56e0140001acb76b,25,2022-02-12_18h01.30.649,lexical_decision_task_DD_L4,2021.2.3,Win32,60.06366749,,,,,,,,,,,,0.7357,1,,,,,,,,,,,,,,,,,,,,,,,,0.201540436,-0.046854942,0,0,0,,,,,,,DOUGH,HB,z,y,./images/DOUGHHB.png,,,,,,,,,,,,,,,,,,,,,z,1,0.7357,,,,,,,,0,2,2,103,1
,,,,,,,,,,,,,,,,,5b4991de56e0140001acb76b,25,2022-02-12_18h01.30.649,lexical_decision_task_DD_L4,2021.2.3,Win32,60.06366749,,,,,,,,,,,,1.0063,1,,,,,,,,,,,,,,,,,,,,,,,,0.201540436,-0.046854942,0,0,0,,,,,,,BAKER,C,m,y,./images/BAKER.png,,,,,,,,,,,,,,,,,,,,,m,1,1.0063,,,,,,,,0,3,3,63,1
,,,,,,,,,,,,,,,,,5b4991de56e0140001acb76b,25,2022-02-12_18h01.30.649,lexical_decision_task_DD_L4,2021.2.3,Win32,60.06366749,,,,,,,,,,,,1.0966,1,,,,,,,,,,,,,,,,,,,,,,,,0.201540436,-0.046854942,0,0,0,,,,,,,POODLE,C,z,y,./images/POODLE.png,,,,,,,,,,,,,,,,,,,,,z,1,1.0966,,,,,,,,0,4,4,165,1
,,,,,,,,,,,,,,,,,5b4991de56e0140001acb76b,25,2022-02-12_18h01.30.649,lexical_decision_task_DD_L4,2021.2.3,Win32,60.06366749,,,,,,,,,,,,1.047,1,,,,,,,,,,,,,,,,,,,,,,,,0.201540436,-0.046854942,0,0,0,,,,,,,CLOUD,LB,m,y,./images/CLOUDLB.png,,,,,,,,,,,,,,,,,,,,,m,1,1.047,,,,,,,,0,5,5,26,1
,,,,,,,,,,,,,,,,,5b4991de56e0140001acb76b,25,2022-02-12_18h01.30.649,lexical_decision_task_DD_L4,2021.2.3,Win32,60.06366749,,,,,,,,,,,,0.5708,1,,,,,,,,,,,,,,,,,,,,,,,,0.201540436,-0.046854942,0,0,0,,,,,,,CURRY,C,m,y,./images/CURRY.png,,,,,,,,,,,,,,,,,,,,,m,1,0.5708,,,,,,,,0,6,6,60,1
,,,,,,,,,,,,,,,,,5b4991de56e0140001acb76b,25,2022-02-12_18h01.30.649,lexical_decision_task_DD_L4,2021.2.3,Win32,60.06366749,,,,,,,,,,,,0.9315,1,,,,,,,,,,,,,,,,,,,,,,,,0.201540436,-0.046854942,0,0,0,,,,,,,MOTOR,HB,z,y,./images/MOTORHB.png,,,,,,,,,,,,,,,,,,,,,z,1,0.9315,,,,,,,,0,7,7,97,1
,,,,,,,,,,,,,,,,,5b4991de56e0140001acb76b,25,2022-02-12_18h01.30.649,lexical_decision_task_DD_L4,2021.2.3,Win32,60.06366749,,,,,,,,,,,,1.3167,1,,,,,,,,,,,,,,,,,,,,,,,,0.201540436,-0.046854942,0,0,0,,,,,,,FOLDER,C,z,y,./images/FOLDER.png,,,,,,,,,,,,,,,,,,,,,z,1,1.3167,,,,,,,,0,8,8,126,1
,,,,,,,,,,,,,,,,,5b4991de56e0140001acb76b,25,2022-02-12_18h01.30.649,lexical_decision_task_DD_L4,2021.2.3,Win32,60.06366749,,,,,,,,,,,,0.7824,1,,,,,,,,,,,,,,,,,,,,,,,,0.201540436,-0.046854942,0,0,0,,,,,,,LAGOON,LB,m,y,./images/LAGOONLB.png,,,,,,,,,,,,,,,,,,,,,m,1,0.7824,,,,,,,,0,9,9,47,1
,,,,,,,,,,,,,,,,,5b4991de56e0140001acb76b,25,2022-02-12_18h01.30.649,lexical_decision_task_DD_L4,2021.2.3,Win32,60.06366749,,,,,,,,,,,,0.7871,1,,,,,,,,,,,,,,,,,,,,,,,,0.201540436,-0.046854942,0,0,0,,,,,,,PAINT,HB,z,y,./images/PAINTHB.png,,,,,,,,,,,,,,,,,,,,,z,1,0.7871,,,,,,,,0,10,10,91,1
,,,,,,,,,,,,,,,,,5b4991de56e0140001acb76b,25,2022-02-12_18h01.30.649,lexical_decision_task_DD_L4,2021.2.3,Win32,60.06366749,,,,,,,,,,,,1.1651,1,,,,,,,,,,,,,,,,,,,,,,,,0.201540436,-0.046854942,0,0,0,,,,,,,GREASE,C,z,y,./images/GREASE.png,,,,,,,,,,,,,,,,,,,,,z,1,1.1651,,,,,,,,0,11,11,99,1
,,,,,,,,,,,,,,,,,5b4991de56e0140001acb76b,25,2022-02-12_18h01.30.649,lexical_decision_task_DD_L4,2021.2.3,Win32,60.06366749,,,,,,,,,,,,0.9873,1,,,,,,,,,,,,,,,,,,,,,,,,0.201540436,-0.046854942,0,0,0,,,,,,,WAGON,HB,m,y,./images/WAGONHB.png,,,,,,,,,,,,,,,,,,,,,m,1,0.9873,,,,,,,,0,12,12,7,1
,,,,,,,,,,,,,,,,,5b4991de56e0140001acb76b,25,2022-02-12_18h01.30.649,lexical_decision_task_DD_L4,2021.2.3,Win32,60.06366749,,,,,,,,,,,,0.9443,1,,,,,,,,,,,,,,,,,,,,,,,,0.201540436,-0.046854942,0,0,0,,,,,,,PENCE,HB,z,y,./images/PENCEHB.png,,,,,,,,,,,,,,,,,,,,,z,1,0.9443,,,,,,,,0,13,13,100,1
,,,,,,,,,,,,,,,,,5b4991de56e0140001acb76b,25,2022-02-12_18h01.30.649,lexical_decision_task_DD_L4,2021.2.3,Win32,60.06366749,,,,,,,,,,,,1.36,1,,,,,,,,,,,,,,,,,,,,,,,,0.201540436,-0.046854942,0,0,0,,,,,,,SKIING,LB,z,y,./images/SKIINGLB.png,,,,,,,,,,,,,,,,,,,,,z,1,1.36,,,,,,,,0,14,14,101,1
,,,,,,,,,,,,,,,,,5b4991de56e0140001acb76b,25,2022-02-12_18h01.30.649,lexical_decision_task_DD_L4,2021.2.3,Win32,60.06366749,,,,,,,,,,,,0.7646,1,,,,,,,,,,,,,,,,,,,,,,,,0.201540436,-0.046854942,0,0,0,,,,,,,STOVE,LB,m,y,./images/STOVELB.png,,,,,,,,,,,,,,,,,,,,,m,1,0.7646,,,,,,,,0,15,15,2,1
,,,,,,,,,,,,,,,,,5b4991de56e0140001acb76b,25,2022-02-12_18h01.30.649,lexical_decision_task_DD_L4,2021.2.3,Win32,60.06366749,,,,,,,,,,,,1.8933,1,,,,,,,,,,,,,,,,,,,,,,,,0.201540436,-0.046854942,0,0,0,,,,,,,BLOKE,C,m,y,./images/BLOKE.png,,,,,,,,,,,,,,,,,,,,,m,1,1.8933,,,,,,,,0,16,16,12,1
,,,,,,,,,,,,,,,,,5b4991de56e0140001acb76b,25,2022-02-12_18h01.30.649,lexical_decision_task_DD_L4,2021.2.3,Win32,60.06366749,,,,,,,,,,,,1.3855,1,,,,,,,,,,,,,,,,,,,,,,,,0.201540436,-0.046854942,0,0,0,,,,,,,MIDGET,HB,m,y,./images/MIDGETHB.png,,,,,,,,,,,,,,,,,,,,,m,1,1.3855,,,,,,,,0,17,17,76,1
,,,,,,,,,,,,,,,,,5b4991de56e0140001acb76b,25,2022-02-12_18h01.30.649,lexical_decision_task_DD_L4,2021.2.3,Win32,60.06366749,,,,,,,,,,,,0.7032,1,,,,,,,,,,,,,,,,,,,,,,,,0.201540436,-0.046854942,0,0,0,,,,,,,BROOM,C,m,y,./images/BROOM.png,,,,,,,,,,,,,,,,,,,,,m,1,0.7032,,,,,,,,0,18,18,78,1
,,,,,,,,,,,,,,,,,5b4991de56e0140001acb76b,25,2022-02-12_18h01.30.649,lexical_decision_task_DD_L4,2021.2.3,Win32,60.06366749,,,,,,,,,,,,0.6365,1,,,,,,,,,,,,,,,,,,,,,,,,0.201540436,-0.046854942,0,0,0,,,,,,,ONION,C,z,y,./images/ONION.png,,,,,,,,,,,,,,,,,,,,,z,1,0.6365,,,,,,,,0,19,19,135,1
,,,,,,,,,,,,,,,,,5b4991de56e0140001acb76b,25,2022-02-12_18h01.30.649,lexical_decision_task_DD_L4,2021.2.3,Win32,60.06366749,,,,,,,,,,,,0.7322,1,,,,,,,,,,,,,,,,,,,,,,,,0.201540436,-0.046854942,0,0,0,,,,,,,STORM,C,z,y,./images/STORM.png,,,,,,,,,,,,,,,,,,,,,z,1,0.7322,,,,,,,,0,20,20,114,1
,,,,,,,,,,,,,,,,,5b4991de56e0140001acb76b,25,2022-02-12_18h01.30.649,lexical_decision_task_DD_L4,2021.2.3,Win32,60.06366749,,,,,,,,,,,,0.8014,1,,,,,,,,,,,,,,,,,,,,,,,,0.201540436,-0.046854942,0,0,0,,,,,,,BARREL,LB,z,y,./images/BARRELLB.png,,,,,,,,,,,,,,,,,,,,,z,1,0.8014,,,,,,,,0,21,21,116,1
,,,,,,,,,,,,,,,,,5b4991de56e0140001acb76b,25,2022-02-12_18h01.30.649,lexical_decision_task_DD_L4,2021.2.3,Win32,60.06366749,,,,,,,,,,,,0.8698,0,,,,,,,,,,,,,,,,,,,,,,,,0.201540436,-0.046854942,0,0,0,,,,,,,MIRROR,C,z,y,./images/MIRROR.png,,,,,,,,,,,,,,,,,,,,,m,0,0.8698,,,,,,,,0,22,22,147,1
,,,,,,,,,,,,,,,,,5b4991de56e0140001acb76b,25,2022-02-12_18h01.30.649,lexical_decision_task_DD_L4,2021.2.3,Win32,60.06366749,,,,,,,,,,,,0.9761,1,,,,,,,,,,,,,,,,,,,,,,,,0.201540436,-0.046854942,0,0,0,,,,,,,PIMPLE,LB,z,y,./images/PIMPLELB.png,,,,,,,,,,,,,,,,,,,,,z,1,0.9761,,,,,,,,0,23,23,155,1
,,,,,,,,,,,,,,,,,5b4991de56e0140001acb76b,25,2022-02-12_18h01.30.649,lexical_decision_task_DD_L4,2021.2.3,Win32,60.06366749,,,,,,,,,,,,1.0312,1,,,,,,,,,,,,,,,,,,,,,,,,0.201540436,-0.046854942,0,0,0,,,,,,,KIDNEY,C,z,y,./images/KIDNEY.png,,,,,,,,,,,,,,,,,,,,,z,1,1.0312,,,,,,,,0,24,24,105,1
,,,,,,,,,,,,,,,,,5b4991de56e0140001acb76b,25,2022-02-12_18h01.30.649,lexical_decision_task_DD_L4,2021.2.3,Win32,60.06366749,,,,,,,,,,,,0.8191,1,,,,,,,,,,,,,,,,,,,,,,,,0.201540436,-0.046854942,0,0,0,,,,,,,LLAMA,LB,m,y,./images/LLAMALB.png,,,,,,,,,,,,,,,,,,,,,m,1,0.8191,,,,,,,,0,25,25,35,1
,,,,,,,,,,,,,,,,,5b4991de56e0140001acb76b,25,2022-02-12_18h01.30.649,lexical_decision_task_DD_L4,2021.2.3,Win32,60.06366749,,,,,,,,,,,,0.7362,1,,,,,,,,,,,,,,,,,,,,,,,,0.201540436,-0.046854942,0,0,0,,,,,,,BOILER,C,m,y,./images/BOILER.png,,,,,,,,,,,,,,,,,,,,,m,1,0.7362,,,,,,,,0,26,26,36,1
,,,,,,,,,,,,,,,,,5b4991de56e0140001acb76b,25,2022-02-12_18h01.30.649,lexical_decision_task_DD_L4,2021.2.3,Win32,60.06366749,,,,,,,,,,,,0.8,0,,,,,,,,,,,,,,,,,,,,,,,,0.201540436,-0.046854942,0,0,0,,,,,,,RAZOR,HB,m,y,./images/RAZORHB.png,,,,,,,,,,,,,,,,,,,,,z,0,0.8,,,,,,,,0,27,27,34,1
,,,,,,,,,,,,,,,,,5b4991de56e0140001acb76b,25,2022-02-12_18h01.30.649,lexical_decision_task_DD_L4,2021.2.3,Win32,60.06366749,,,,,,,,,,,,1.0453,1,,,,,,,,,,,,,,,,,,,,,,,,0.201540436,-0.046854942,0,0,0,,,,,,,SPORT,C,z,y,./images/SPORT.png,,,,,,,,,,,,,,,,,,,,,z,1,1.0453,,,,,,,,0,28,28,132,1
,,,,,,,,,,,,,,,,,5b4991de56e0140001acb76b,25,2022-02-12_18h01.30.649,lexical_decision_task_DD_L4,2021.2.3,Win32,60.06366749,,,,,,,,,,,,0.9379,1,,,,,,,,,,,,,,,,,,,,,,,,0.201540436,-0.046854942,0,0,0,,,,,,,BAMBOO,LB,m,y,./images/BAMBOOLB.png,,,,,,,,,,,,,,,,,,,,,m,1,0.9379,,,,,,,,0,29,29,5,1
,,,,,,,,,,,,,,,,,5b4991de56e0140001acb76b,25,2022-02-12_18h01.30.649,lexical_decision_task_DD_L4,2021.2.3,Win32,60.06366749,,,,,,,,,,,,1.1503,1,,,,,,,,,,,,,,,,,,,,,,,,0.201540436,-0.046854942,0,0,0,,,,,,,PARCEL,C,m,y,./images/PARCEL.png,,,,,,,,,,,,,,,,,,,,,m,1,1.1503,,,,,,,,0,30,30,18,1
,,,,,,,,,,,,,,,,,5b4991de56e0140001acb76b,25,2022-02-12_18h01.30.649,lexical_decision_task_DD_L4,2021.2.3,Win32,60.06366749,,,,,,,,,,,,1.0005,1,,,,,,,,,,,,,,,,,,,,,,,,0.201540436,-0.046854942,0,0,0,,,,,,,CASINO,HB,m,y,./images/CASINOHB.png,,,,,,,,,,,,,,,,,,,,,m,1,1.0005,,,,,,,,0,31,31,28,1
,,,,,,,,,,,,,,,,,5b4991de56e0140001acb76b,25,2022-02-12_18h01.30.649,lexical_decision_task_DD_L4,2021.2.3,Win32,60.06366749,,,,,,,,,,,,1.4008,1,,,,,,,,,,,,,,,,,,,,,,,,0.201540436,-0.046854942,0,0,0,,,,,,,SNACK,HB,z,y,./images/SNACKHB.png,,,,,,,,,,,,,,,,,,,,,z,1,1.4008,,,,,,,,0,32,32,157,1
,,,,,,,,,,,,,,,,,5b4991de56e0140001acb76b,25,2022-02-12_18h01.30.649,lexical_decision_task_DD_L4,2021.2.3,Win32,60.06366749,,,,,,,,,,,,0.6782,1,,,,,,,,,,,,,,,,,,,,,,,,0.201540436,-0.046854942,0,0,0,,,,,,,PACKET,LB,z,y,./images/PACKETLB.png,,,,,,,,,,,,,,,,,,,,,z,1,0.6782,,,,,,,,0,33,33,140,1
,,,,,,,,,,,,,,,,,5b4991de56e0140001acb76b,25,2022-02-12_18h01.30.649,lexical_decision_task_DD_L4,2021.2.3,Win32,60.06366749,,,,,,,,,,,,0.6127,1,,,,,,,,,,,,,,,,,,,,,,,,0.201540436,-0.046854942,0,0,0,,,,,,,DRUMS,HB,z,y,./images/DRUMSHB.png,,,,,,,,,,,,,,,,,,,,,z,1,0.6127,,,,,,,,0,34,34,133,1
,,,,,,,,,,,,,,,,,5b4991de56e0140001acb76b,25,2022-02-12_18h01.30.649,lexical_decision_task_DD_L4,2021.2.3,Win32,60.06366749,,,,,,,,,,,,0.9068,1,,,,,,,,,,,,,,,,,,,,,,,,0.201540436,-0.046854942,0,0,0,,,,,,,DONKEY,HB,m,y,./images/DONKEYHB.png,,,,,,,,,,,,,,,,,,,,,m,1,0.9068,,,,,,,,0,35,35,19,1
,,,,,,,,,,,,,,,,,5b4991de56e0140001acb76b,25,2022-02-12_18h01.30.649,lexical_decision_task_DD_L4,2021.2.3,Win32,60.06366749,,,,,,,,,,,,0.7813,1,,,,,,,,,,,,,,,,,,,,,,,,0.201540436,-0.046854942,0,0,0,,,,,,,LITTER,C,z,y,./images/LITTER.png,,,,,,,,,,,,,,,,,,,,,z,1,0.7813,,,,,,,,0,36,36,162,1
,,,,,,,,,,,,,,,,,5b4991de56e0140001acb76b,25,2022-02-12_18h01.30.649,lexical_decision_task_DD_L4,2021.2.3,Win32,60.06366749,,,,,,,,,,,,1.1101,1,,,,,,,,,,,,,,,,,,,,,,,,0.201540436,-0.046854942,0,0,0,,,,,,,CANOE,HB,m,y,./images/CANOEHB.png,,,,,,,,,,,,,,,,,,,,,m,1,1.1101,,,,,,,,0,37,37,58,1
,,,,,,,,,,,,,,,,,5b4991de56e0140001acb76b,25,2022-02-12_18h01.30.649,lexical_decision_task_DD_L4,2021.2.3,Win32,60.06366749,,,,,,,,,,,,1.4997,1,,,,,,,,,,,,,,,,,,,,,,,,0.201540436,-0.046854942,0,0,0,,,,,,,COUCH,LB,z,y,./images/COUCHLB.png,,,,,,,,,,,,,,,,,,,,,z,1,1.4997,,,,,,,,0,38,38,161,1
,,,,,,,,,,,,,,,,,5b4991de56e0140001acb76b,25,2022-02-12_18h01.30.649,lexical_decision_task_DD_L4,2021.2.3,Win32,60.06366749,,,,,,,,,,,,1.3657,1,,,,,,,,,,,,,,,,,,,,,,,,0.201540436,-0.046854942,0,0,0,,,,,,,SAILOR,HB,z,y,./images/SAILORHB.png,,,,,,,,,,,,,,,,,,,,,z,1,1.3657,,,,,,,,0,39,39,151,1
,,,,,,,,,,,,,,,,,5b4991de56e0140001acb76b,25,2022-02-12_18h01.30.649,lexical_decision_task_DD_L4,2021.2.3,Win32,60.06366749,,,,,,,,,,,,0.5827,0,,,,,,,,,,,,,,,,,,,,,,,,0.201540436,-0.046854942,0,0,0,,,,,,,ENGINE,LB,m,y,./images/ENGINELB.png,,,,,,,,,,,,,,,,,,,,,z,0,0.5827,,,,,,,,0,40,40,38,1
,,,,,,,,,,,,,,,,,5b4991de56e0140001acb76b,25,2022-02-12_18h01.30.649,lexical_decision_task_DD_L4,2021.2.3,Win32,60.06366749,,,,,,,,,,,,1.0866,1,,,,,,,,,,,,,,,,,,,,,,,,0.201540436,-0.046854942,0,0,0,space,,,,,,PURSE,LB,z,y,./images/PURSELB.png,,1.8373,,,,,,,,,,,,,,,,,,,z,1,1.0866,,,,,,,,0,41,41,146,1
,,,,,,,,,,,,,,,,,5b4991de56e0140001acb76b,25,2022-02-12_18h01.30.649,lexical_decision_task_DD_L4,2021.2.3,Win32,60.06366749,,,,,,,,,,,,0.7498,1,,,,,,,,,,,,,,,,,,,,,,,,0.201540436,-0.046854942,0,0,0,,,,,,,CARPET,LB,z,y,./images/CARPETLB.png,,,,,,,,,,,,,,,,,,,,,z,1,0.7498,,,,,,,,0,42,42,137,1
,,,,,,,,,,,,,,,,,5b4991de56e0140001acb76b,25,2022-02-12_18h01.30.649,lexical_decision_task_DD_L4,2021.2.3,Win32,60.06366749,,,,,,,,,,,,0.8027,1,,,,,,,,,,,,,,,,,,,,,,,,0.201540436,-0.046854942,0,0,0,,,,,,,COLLAR,C,m,y,./images/COLLAR.png,,,,,,,,,,,,,,,,,,,,,m,1,0.8027,,,,,,,,0,43,43,15,1
,,,,,,,,,,,,,,,,,5b4991de56e0140001acb76b,25,2022-02-12_18h01.30.649,lexical_decision_task_DD_L4,2021.2.3,Win32,60.06366749,,,,,,,,,,,,0.7451,1,,,,,,,,,,,,,,,,,,,,,,,,0.201540436,-0.046854942,0,0,0,,,,,,,TIGER,HB,m,y,./images/TIGERHB.png,,,,,,,,,,,,,,,,,,,,,m,1,0.7451,,,,,,,,0,44,44,37,1
,,,,,,,,,,,,,,,,,5b4991de56e0140001acb76b,25,2022-02-12_18h01.30.649,lexical_decision_task_DD_L4,2021.2.3,Win32,60.06366749,,,,,,,,,,,,1.045,1,,,,,,,,,,,,,,,,,,,,,,,,0.201540436,-0.046854942,0,0,0,,,,,,,FENCE,LB,m,y,./images/FENCELB.png,,,,,,,,,,,,,,,,,,,,,m,1,1.045,,,,,,,,0,45,45,14,1
,,,,,,,,,,,,,,,,,5b4991de56e0140001acb76b,25,2022-02-12_18h01.30.649,lexical_decision_task_DD_L4,2021.2.3,Win32,60.06366749,,,,,,,,,,,,0.7156,0,,,,,,,,,,,,,,,,,,,,,,,,0.201540436,-0.046854942,0,0,0,,,,,,,GLOVE,HB,m,y,./images/GLOVEHB.png,,,,,,,,,,,,,,,,,,,,,z,0,0.7156,,,,,,,,0,46,46,73,1
,,,,,,,,,,,,,,,,,5b4991de56e0140001acb76b,25,2022-02-12_18h01.30.649,lexical_decision_task_DD_L4,2021.2.3,Win32,60.06366749,,,,,,,,,,,,0.8094,1,,,,,,,,,,,,,,,,,,,,,,,,0.201540436,-0.046854942,0,0,0,,,,,,,PASTA,LB,z,y,./images/PASTALB.png,,,,,,,,,,,,,,,,,,,,,z,1,0.8094,,,,,,,,0,47,47,89,1
,,,,,,,,,,,,,,,,,5b4991de56e0140001acb76b,25,2022-02-12_18h01.30.649,lexical_decision_task_DD_L4,2021.2.3,Win32,60.06366749,,,,,,,,,,,,1.035,0,,,,,,,,,,,,,,,,,,,,,,,,0.201540436,-0.046854942,0,0,0,,,,,,,WHEEL,LB,m,y,./images/WHEELLB.png,,,,,,,,,,,,,,,,,,,,,z,0,1.035,,,,,,,,0,48,48,77,1
,,,,,,,,,,,,,,,,,5b4991de56e0140001acb76b,25,2022-02-12_18h01.30.649,lexical_decision_task_DD_L4,2021.2.3,Win32,60.06366749,,,,,,,,,,,,1.032,1,,,,,,,,,,,,,,,,,,,,,,,,0.201540436,-0.046854942,0,0,0,,,,,,,TOWEL,HB,m,y,./images/TOWELHB.png,,,,,,,,,,,,,,,,,,,,,m,1,1.032,,,,,,,,0,49,49,1,1
,,,,,,,,,,,,,,,,,5b4991de56e0140001acb76b,25,2022-02-12_18h01.30.649,lexical_decision_task_DD_L4,2021.2.3,Win32,60.06366749,,,,,,,,,,,,1.5518,1,,,,,,,,,,,,,,,,,,,,,,,,0.201540436,-0.046854942,0,0,0,,,,,,,URINE,HB,z,y,./images/URINEHB.png,,,,,,,,,,,,,,,,,,,,,z,1,1.5518,,,,,,,,0,50,50,154,1
,,,,,,,,,,,,,,,,,5b4991de56e0140001acb76b,25,2022-02-12_18h01.30.649,lexical_decision_task_DD_L4,2021.2.3,Win32,60.06366749,,,,,,,,,,,,1.0721,1,,,,,,,,,,,,,,,,,,,,,,,,0.201540436,-0.046854942,0,0,0,,,,,,,CANDLE,HB,z,y,./images/CANDLEHB.png,,,,,,,,,,,,,,,,,,,,,z,1,1.0721,,,,,,,,0,51,51,145,1
,,,,,,,,,,,,,,,,,5b4991de56e0140001acb76b,25,2022-02-12_18h01.30.649,lexical_decision_task_DD_L4,2021.2.3,Win32,60.06366749,,,,,,,,,,,,0.6793,1,,,,,,,,,,,,,,,,,,,,,,,,0.201540436,-0.046854942,0,0,0,,,,,,,SPINE,LB,m,y,./images/SPINELB.png,,,,,,,,,,,,,,,,,,,,,m,1,0.6793,,,,,,,,0,52,52,65,1
,,,,,,,,,,,,,,,,,5b4991de56e0140001acb76b,25,2022-02-12_18h01.30.649,lexical_decision_task_DD_L4,2021.2.3,Win32,60.06366749,,,,,,,,,,,,0.6323,1,,,,,,,,,,,,,,,,,,,,,,,,0.201540436,-0.046854942,0,0,0,,,,,,,BELLY,HB,z,y,./images/BELLYHB.png,,,,,,,,,,,,,,,,,,,,,z,1,0.6323,,,,,,,,0,53,53,94,1
,,,,,,,,,,,,,,,,,5b4991de56e0140001acb76b,25,2022-02-12_18h01.30.649,lexical_decision_task_DD_L4,2021.2.3,Win32,60.06366749,,,,,,,,,,,,1.0453,0,,,,,,,,,,,,,,,,,,,,,,,,0.201540436,-0.046854942,0,0,0,,,,,,,MONKEY,C,m,y,./images/MONKEY.png,,,,,,,,,,,,,,,,,,,,,z,0,1.0453,,,,,,,,0,54,54,45,1
,,,,,,,,,,,,,,,,,5b4991de56e0140001acb76b,25,2022-02-12_18h01.30.649,lexical_decision_task_DD_L4,2021.2.3,Win32,60.06366749,,,,,,,,,,,,0.8602,0,,,,,,,,,,,,,,,,,,,,,,,,0.201540436,-0.046854942,0,0,0,,,,,,,HEATER,LB,m,y,./images/HEATERLB.png,,,,,,,,,,,,,,,,,,,,,z,0,0.8602,,,,,,,,0,55,55,56,1
,,,,,,,,,,,,,,,,,5b4991de56e0140001acb76b,25,2022-02-12_18h01.30.649,lexical_decision_task_DD_L4,2021.2.3,Win32,60.06366749,,,,,,,,,,,,1.5781,0,,,,,,,,,,,,,,,,,,,,,,,,0.201540436,-0.046854942,0,0,0,,,,,,,CHERRY,C,m,y,./images/CHERRY.png,,,,,,,,,,,,,,,,,,,,,z,0,1.5781,,,,,,,,0,56,56,54,1
,,,,,,,,,,,,,,,,,5b4991de56e0140001acb76b,25,2022-02-12_18h01.30.649,lexical_decision_task_DD_L4,2021.2.3,Win32,60.06366749,,,,,,,,,,,,1.0096,1,,,,,,,,,,,,,,,,,,,,,,,,0.201540436,-0.046854942,0,0,0,,,,,,,PISTOL,LB,m,y,./images/PISTOLLB.png,,,,,,,,,,,,,,,,,,,,,m,1,1.0096,,,,,,,,0,57,57,29,1
,,,,,,,,,,,,,,,,,5b4991de56e0140001acb76b,25,2022-02-12_18h01.30.649,lexical_decision_task_DD_L4,2021.2.3,Win32,60.06366749,,,,,,,,,,,,1.4321,0,,,,,,,,,,,,,,,,,,,,,,,,0.201540436,-0.046854942,0,0,0,,,,,,,PLANET,LB,m,y,./images/PLANETLB.png,,,,,,,,,,,,,,,,,,,,,z,0,1.4321,,,,,,,,0,58,58,80,1
,,,,,,,,,,,,,,,,,5b4991de56e0140001acb76b,25,2022-02-12_18h01.30.649,lexical_decision_task_DD_L4,2021.2.3,Win32,60.06366749,,,,,,,,,,,,1.3008,1,,,,,,,,,,,,,,,,,,,,,,,,0.201540436,-0.046854942,0,0,0,,,,,,,SHELF,C,z,y,./images/SHELF.png,,,,,,,,,,,,,,,,,,,,,z,1,1.3008,,,,,,,,0,59,59,123,1
,,,,,,,,,,,,,,,,,5b4991de56e0140001acb76b,25,2022-02-12_18h01.30.649,lexical_decision_task_DD_L4,2021.2.3,Win32,60.06366749,,,,,,,,,,,,0.9546,1,,,,,,,,,,,,,,,,,,,,,,,,0.201540436,-0.046854942,0,0,0,,,,,,,BISHOP,HB,m,y,./images/BISHOPHB.png,,,,,,,,,,,,,,,,,,,,,m,1,0.9546,,,,,,,,0,60,60,49,1
,,,,,,,,,,,,,,,,,5b4991de56e0140001acb76b,25,2022-02-12_18h01.30.649,lexical_decision_task_DD_L4,2021.2.3,Win32,60.06366749,,,,,,,,,,,,0.67,1,,,,,,,,,,,,,,,,,,,,,,,,0.201540436,-0.046854942,0,0,0,,,,,,,TOMATO,C,z,y,./images/TOMATO.png,,,,,,,,,,,,,,,,,,,,,z,1,0.67,,,,,,,,0,61,61,84,1
,,,,,,,,,,,,,,,,,5b4991de56e0140001acb76b,25,2022-02-12_18h01.30.649,lexical_decision_task_DD_L4,2021.2.3,Win32,60.06366749,,,,,,,,,,,,0.7348,1,,,,,,,,,,,,,,,,,,,,,,,,0.201540436,-0.046854942,0,0,0,,,,,,,CLOTH,LB,m,y,./images/CLOTHLB.png,,,,,,,,,,,,,,,,,,,,,m,1,0.7348,,,,,,,,0,62,62,23,1
,,,,,,,,,,,,,,,,,5b4991de56e0140001acb76b,25,2022-02-12_18h01.30.649,lexical_decision_task_DD_L4,2021.2.3,Win32,60.06366749,,,,,,,,,,,,0.6931,1,,,,,,,,,,,,,,,,,,,,,,,,0.201540436,-0.046854942,0,0,0,,,,,,,CANYON,HB,z,y,./images/CANYONHB.png,,,,,,,,,,,,,,,,,,,,,z,1,0.6931,,,,,,,,0,63,63,118,1
,,,,,,,,,,,,,,,,,5b4991de56e0140001acb76b,25,2022-02-12_18h01.30.649,lexical_decision_task_DD_L4,2021.2.3,Win32,60.06366749,,,,,,,,,,,,0.8237,1,,,,,,,,,,,,,,,,,,,,,,,,0.201540436,-0.046854942,0,0,0,,,,,,,COOKER,C,z,y,./images/COOKER.png,,,,,,,,,,,,,,,,,,,,,z,1,0.8237,,,,,,,,0,64,64,153,1
,,,,,,,,,,,,,,,,,5b4991de56e0140001acb76b,25,2022-02-12_18h01.30.649,lexical_decision_task_DD_L4,2021.2.3,Win32,60.06366749,,,,,,,,,,,,0.5891,1,,,,,,,,,,,,,,,,,,,,,,,,0.201540436,-0.046854942,0,0,0,,,,,,,TRIPOD,C,z,y,./images/TRIPOD.png,,,,,,,,,,,,,,,,,,,,,z,1,0.5891,,,,,,,,0,65,65,138,1
,,,,,,,,,,,,,,,,,5b4991de56e0140001acb76b,25,2022-02-12_18h01.30.649,lexical_decision_task_DD_L4,2021.2.3,Win32,60.06366749,,,,,,,,,,,,0.5632,1,,,,,,,,,,,,,,,,,,,,,,,,0.201540436,-0.046854942,0,0,0,,,,,,,TULIP,LB,z,y,./images/TULIPLB.png,,,,,,,,,,,,,,,,,,,,,z,1,0.5632,,,,,,,,0,66,66,92,1
,,,,,,,,,,,,,,,,,5b4991de56e0140001acb76b,25,2022-02-12_18h01.30.649,lexical_decision_task_DD_L4,2021.2.3,Win32,60.06366749,,,,,,,,,,,,0.653,0,,,,,,,,,,,,,,,,,,,,,,,,0.201540436,-0.046854942,0,0,0,,,,,,,BUBBLE,LB,m,y,./images/BUBBLELB.png,,,,,,,,,,,,,,,,,,,,,z,0,0.653,,,,,,,,0,67,67,71,1
,,,,,,,,,,,,,,,,,5b4991de56e0140001acb76b,25,2022-02-12_18h01.30.649,lexical_decision_task_DD_L4,2021.2.3,Win32,60.06366749,,,,,,,,,,,,0.7642,0,,,,,,,,,,,,,,,,,,,,,,,,0.201540436,-0.046854942,0,0,0,,,,,,,ALLEY,HB,m,y,./images/ALLEYHB.png,,,,,,,,,,,,,,,,,,,,,z,0,0.7642,,,,,,,,0,68,68,55,1
,,,,,,,,,,,,,,,,,5b4991de56e0140001acb76b,25,2022-02-12_18h01.30.649,lexical_decision_task_DD_L4,2021.2.3,Win32,60.06366749,,,,,,,,,,,,0.6885,1,,,,,,,,,,,,,,,,,,,,,,,,0.201540436,-0.046854942,0,0,0,,,,,,,CEMENT,LB,z,y,./images/CEMENTLB.png,,,,,,,,,,,,,,,,,,,,,z,1,0.6885,,,,,,,,0,69,69,158,1
,,,,,,,,,,,,,,,,,5b4991de56e0140001acb76b,25,2022-02-12_18h01.30.649,lexical_decision_task_DD_L4,2021.2.3,Win32,60.06366749,,,,,,,,,,,,0.9267,0,,,,,,,,,,,,,,,,,,,,,,,,0.201540436,-0.046854942,0,0,0,,,,,,,MEDAL,LB,m,y,./images/MEDALLB.png,,,,,,,,,,,,,,,,,,,,,z,0,0.9267,,,,,,,,0,70,70,11,1
,,,,,,,,,,,,,,,,,5b4991de56e0140001acb76b,25,2022-02-12_18h01.30.649,lexical_decision_task_DD_L4,2021.2.3,Win32,60.06366749,,,,,,,,,,,,1.0978,1,,,,,,,,,,,,,,,,,,,,,,,,0.201540436,-0.046854942,0,0,0,,,,,,,TORCH,LB,z,y,./images/TORCHLB.png,,,,,,,,,,,,,,,,,,,,,z,1,1.0978,,,,,,,,0,71,71,152,1
,,,,,,,,,,,,,,,,,5b4991de56e0140001acb76b,25,2022-02-12_18h01.30.649,lexical_decision_task_DD_L4,2021.2.3,Win32,60.06366749,,,,,,,,,,,,0.964,0,,,,,,,,,,,,,,,,,,,,,,,,0.201540436,-0.046854942,0,0,0,,,,,,,SNAKE,HB,m,y,./images/SNAKEHB.png,,,,,,,,,,,,,,,,,,,,,z,0,0.964,,,,,,,,0,72,72,40,1
,,,,,,,,,,,,,,,,,5b4991de56e0140001acb76b,25,2022-02-12_18h01.30.649,lexical_decision_task_DD_L4,2021.2.3,Win32,60.06366749,,,,,,,,,,,,0.8628,0,,,,,,,,,,,,,,,,,,,,,,,,0.201540436,-0.046854942,0,0,0,,,,,,,BASKET,LB,m,y,./images/BASKETLB.png,,,,,,,,,,,,,,,,,,,,,z,0,0.8628,,,,,,,,0,73,73,44,1
,,,,,,,,,,,,,,,,,5b4991de56e0140001acb76b,25,2022-02-12_18h01.30.649,lexical_decision_task_DD_L4,2021.2.3,Win32,60.06366749,,,,,,,,,,,,1.1361,0,,,,,,,,,,,,,,,,,,,,,,,,0.201540436,-0.046854942,0,0,0,,,,,,,JUMPER,LB,m,y,./images/JUMPERLB.png,,,,,,,,,,,,,,,,,,,,,z,0,1.1361,,,,,,,,0,74,74,74,1
,,,,,,,,,,,,,,,,,5b4991de56e0140001acb76b,25,2022-02-12_18h01.30.649,lexical_decision_task_DD_L4,2021.2.3,Win32,60.06366749,,,,,,,,,,,,0.8817,1,,,,,,,,,,,,,,,,,,,,,,,,0.201540436,-0.046854942,0,0,0,,,,,,,SWEAT,C,z,y,./images/SWEAT.png,,,,,,,,,,,,,,,,,,,,,z,1,0.8817,,,,,,,,0,75,75,150,1
,,,,,,,,,,,,,,,,,5b4991de56e0140001acb76b,25,2022-02-12_18h01.30.649,lexical_decision_task_DD_L4,2021.2.3,Win32,60.06366749,,,,,,,,,,,,1.3438,1,,,,,,,,,,,,,,,,,,,,,,,,0.201540436,-0.046854942,0,0,0,,,,,,,FALCON,HB,z,y,./images/FALCONHB.png,,,,,,,,,,,,,,,,,,,,,z,1,1.3438,,,,,,,,0,76,76,112,1
,,,,,,,,,,,,,,,,,5b4991de56e0140001acb76b,25,2022-02-12_18h01.30.649,lexical_decision_task_DD_L4,2021.2.3,Win32,60.06366749,,,,,,,,,,,,3.415,1,,,,,,,,,,,,,,,,,,,,,,,,0.201540436,-0.046854942,0,0,0,,,,,,,JELLY,HB,z,y,./images/JELLYHB.png,,,,,,,,,,,,,,,,,,,,,z,1,3.415,,,,,,,,0,77,77,148,1
,,,,,,,,,,,,,,,,,5b4991de56e0140001acb76b,25,2022-02-12_18h01.30.649,lexical_decision_task_DD_L4,2021.2.3,Win32,60.06366749,,,,,,,,,,,,2.8352,1,,,,,,,,,,,,,,,,,,,,,,,,0.201540436,-0.046854942,0,0,0,,,,,,,SQUARE,C,z,y,./images/SQUARE.png,,,,,,,,,,,,,,,,,,,,,z,1,2.8352,,,,,,,,0,78,78,90,1
,,,,,,,,,,,,,,,,,5b4991de56e0140001acb76b,25,2022-02-12_18h01.30.649,lexical_decision_task_DD_L4,2021.2.3,Win32,60.06366749,,,,,,,,,,,,0.9537,1,,,,,,,,,,,,,,,,,,,,,,,,0.201540436,-0.046854942,0,0,0,,,,,,,SAUNA,C,m,y,./images/SAUNA.png,,,,,,,,,,,,,,,,,,,,,m,1,0.9537,,,,,,,,0,79,79,33,1
,,,,,,,,,,,,,,,,,5b4991de56e0140001acb76b,25,2022-02-12_18h01.30.649,lexical_decision_task_DD_L4,2021.2.3,Win32,60.06366749,,,,,,,,,,,,0.8614,1,,,,,,,,,,,,,,,,,,,,,,,,0.201540436,-0.046854942,0,0,0,,,,,,,LIZARD,LB,z,y,./images/LIZARDLB.png,,,,,,,,,,,,,,,,,,,,,z,1,0.8614,,,,,,,,0,80,80,128,1
,,,,,,,,,,,,,,,,,5b4991de56e0140001acb76b,25,2022-02-12_18h01.30.649,lexical_decision_task_DD_L4,2021.2.3,Win32,60.06366749,,,,,,,,,,,,0.8392,1,,,,,,,,,,,,,,,,,,,,,,,,0.201540436,-0.046854942,0,0,0,,,,,,,RHINO,C,z,y,./images/RHINO.png,,,,,,,,,,,,,,,,,,,,,z,1,0.8392,,,,,,,,0,81,81,93,1
,,,,,,,,,,,,,,,,,5b4991de56e0140001acb76b,25,2022-02-12_18h01.30.649,lexical_decision_task_DD_L4,2021.2.3,Win32,60.06366749,,,,,,,,,,,,0.7465,0,,,,,,,,,,,,,,,,,,,,,,,,0.201540436,-0.046854942,0,0,0,,,,,,,BUTTER,C,m,y,./images/BUTTER.png,,,,,,,,,,,,,,,,,,,,,z,0,0.7465,,,,,,,,0,82,82,27,1
,,,,,,,,,,,,,,,,,5b4991de56e0140001acb76b,25,2022-02-12_18h01.30.649,lexical_decision_task_DD_L4,2021.2.3,Win32,60.06366749,,,,,,,,,,,,0.817,1,,,,,,,,,,,,,,,,,,,,,,,,0.201540436,-0.046854942,0,0,0,space,,,,,,QUILL,HB,z,y,./images/QUILLHB.png,,2.0342,,,,,,,,,,,,,,,,,,,z,1,0.817,,,,,,,,0,83,83,115,1
,,,,,,,,,,,,,,,,,5b4991de56e0140001acb76b,25,2022-02-12_18h01.30.649,lexical_decision_task_DD_L4,2021.2.3,Win32,60.06366749,,,,,,,,,,,,1.8465,0,,,,,,,,,,,,,,,,,,,,,,,,0.201540436,-0.046854942,0,0,0,,,,,,,FERRY,C,m,y,./images/FERRY.png,,,,,,,,,,,,,,,,,,,,,z,0,1.8465,,,,,,,,0,84,84,57,1
,,,,,,,,,,,,,,,,,5b4991de56e0140001acb76b,25,2022-02-12_18h01.30.649,lexical_decision_task_DD_L4,2021.2.3,Win32,60.06366749,,,,,,,,,,,,1.1064,1,,,,,,,,,,,,,,,,,,,,,,,,0.201540436,-0.046854942,0,0,0,,,,,,,SHORE,C,z,y,./images/SHORE.png,,,,,,,,,,,,,,,,,,,,,z,1,1.1064,,,,,,,,0,85,85,96,1
,,,,,,,,,,,,,,,,,5b4991de56e0140001acb76b,25,2022-02-12_18h01.30.649,lexical_decision_task_DD_L4,2021.2.3,Win32,60.06366749,,,,,,,,,,,,1.4964,1,,,,,,,,,,,,,,,,,,,,,,,,0.201540436,-0.046854942,0,0,0,,,,,,,PLANK,HB,z,y,./images/PLANKHB.png,,,,,,,,,,,,,,,,,,,,,z,1,1.4964,,,,,,,,0,86,86,85,1
,,,,,,,,,,,,,,,,,5b4991de56e0140001acb76b,25,2022-02-12_18h01.30.649,lexical_decision_task_DD_L4,2021.2.3,Win32,60.06366749,,,,,,,,,,,,0.9948,1,,,,,,,,,,,,,,,,,,,,,,,,0.201540436,-0.046854942,0,0,0,,,,,,,PARADE,LB,m,y,./images/PARADELB.png,,,,,,,,,,,,,,,,,,,,,m,1,0.9948,,,,,,,,0,87,87,17,1
,,,,,,,,,,,,,,,,,5b4991de56e0140001acb76b,25,2022-02-12_18h01.30.649,lexical_decision_task_DD_L4,2021.2.3,Win32,60.06366749,,,,,,,,,,,,1.0893,1,,,,,,,,,,,,,,,,,,,,,,,,0.201540436,-0.046854942,0,0,0,,,,,,,PEARL,HB,z,y,./images/PEARLHB.png,,,,,,,,,,,,,,,,,,,,,z,1,1.0893,,,,,,,,0,88,88,130,1
,,,,,,,,,,,,,,,,,5b4991de56e0140001acb76b,25,2022-02-12_18h01.30.649,lexical_decision_task_DD_L4,2021.2.3,Win32,60.06366749,,,,,,,,,,,,1.0669,0,,,,,,,,,,,,,,,,,,,,,,,,0.201540436,-0.046854942,0,0,0,,,,,,,BRUSH,LB,m,y,./images/BRUSHLB.png,,,,,,,,,,,,,,,,,,,,,z,0,1.0669,,,,,,,,0,89,89,59,1
,,,,,,,,,,,,,,,,,5b4991de56e0140001acb76b,25,2022-02-12_18h01.30.649,lexical_decision_task_DD_L4,2021.2.3,Win32,60.06366749,,,,,,,,,,,,0.6666,0,,,,,,,,,,,,,,,,,,,,,,,,0.201540436,-0.046854942,0,0,0,,,,,,,POSTER,LB,m,y,./images/POSTERLB.png,,,,,,,,,,,,,,,,,,,,,z,0,0.6666,,,,,,,,0,90,90,53,1
,,,,,,,,,,,,,,,,,5b4991de56e0140001acb76b,25,2022-02-12_18h01.30.649,lexical_decision_task_DD_L4,2021.2.3,Win32,60.06366749,,,,,,,,,,,,0.9464,0,,,,,,,,,,,,,,,,,,,,,,,,0.201540436,-0.046854942,0,0,0,,,,,,,DANCER,C,m,y,./images/DANCER.png,,,,,,,,,,,,,,,,,,,,,z,0,0.9464,,,,,,,,0,91,91,21,1
,,,,,,,,,,,,,,,,,5b4991de56e0140001acb76b,25,2022-02-12_18h01.30.649,lexical_decision_task_DD_L4,2021.2.3,Win32,60.06366749,,,,,,,,,,,,0.7633,0,,,,,,,,,,,,,,,,,,,,,,,,0.201540436,-0.046854942,0,0,0,,,,,,,DESERT,HB,m,y,./images/DESERTHB.png,,,,,,,,,,,,,,,,,,,,,z,0,0.7633,,,,,,,,0,92,92,52,1
,,,,,,,,,,,,,,,,,5b4991de56e0140001acb76b,25,2022-02-12_18h01.30.649,lexical_decision_task_DD_L4,2021.2.3,Win32,60.06366749,,,,,,,,,,,,0.6032,1,,,,,,,,,,,,,,,,,,,,,,,,0.201540436,-0.046854942,0,0,0,,,,,,,BANANA,HB,m,y,./images/BANANAHB.png,,,,,,,,,,,,,,,,,,,,,m,1,0.6032,,,,,,,,0,93,93,70,1
,,,,,,,,,,,,,,,,,5b4991de56e0140001acb76b,25,2022-02-12_18h01.30.649,lexical_decision_task_DD_L4,2021.2.3,Win32,60.06366749,,,,,,,,,,,,0.5779,1,,,,,,,,,,,,,,,,,,,,,,,,0.201540436,-0.046854942,0,0,0,,,,,,,BURIAL,LB,z,y,./images/BURIALLB.png,,,,,,,,,,,,,,,,,,,,,z,1,0.5779,,,,,,,,0,94,94,143,1
,,,,,,,,,,,,,,,,,5b4991de56e0140001acb76b,25,2022-02-12_18h01.30.649,lexical_decision_task_DD_L4,2021.2.3,Win32,60.06366749,,,,,,,,,,,,0.6552,0,,,,,,,,,,,,,,,,,,,,,,,,0.201540436,-0.046854942,0,0,0,,,,,,,FLESH,C,m,y,./images/FLESH.png,,,,,,,,,,,,,,,,,,,,,z,0,0.6552,,,,,,,,0,95,95,24,1
,,,,,,,,,,,,,,,,,5b4991de56e0140001acb76b,25,2022-02-12_18h01.30.649,lexical_decision_task_DD_L4,2021.2.3,Win32,60.06366749,,,,,,,,,,,,0.9971,1,,,,,,,,,,,,,,,,,,,,,,,,0.201540436,-0.046854942,0,0,0,,,,,,,FLASK,C,m,y,./images/FLASK.png,,,,,,,,,,,,,,,,,,,,,m,1,0.9971,,,,,,,,0,96,96,72,1
,,,,,,,,,,,,,,,,,5b4991de56e0140001acb76b,25,2022-02-12_18h01.30.649,lexical_decision_task_DD_L4,2021.2.3,Win32,60.06366749,,,,,,,,,,,,0.7481,1,,,,,,,,,,,,,,,,,,,,,,,,0.201540436,-0.046854942,0,0,0,,,,,,,MUFFIN,HB,z,y,./images/MUFFINHB.png,,,,,,,,,,,,,,,,,,,,,z,1,0.7481,,,,,,,,0,97,97,139,1
,,,,,,,,,,,,,,,,,5b4991de56e0140001acb76b,25,2022-02-12_18h01.30.649,lexical_decision_task_DD_L4,2021.2.3,Win32,60.06366749,,,,,,,,,,,,0.6698,0,,,,,,,,,,,,,,,,,,,,,,,,0.201540436,-0.046854942,0,0,0,,,,,,,RULER,HB,m,y,./images/RULERHB.png,,,,,,,,,,,,,,,,,,,,,z,0,0.6698,,,,,,,,0,98,98,79,1
,,,,,,,,,,,,,,,,,5b4991de56e0140001acb76b,25,2022-02-12_18h01.30.649,lexical_decision_task_DD_L4,2021.2.3,Win32,60.06366749,,,,,,,,,,,,0.7954,0,,,,,,,,,,,,,,,,,,,,,,,,0.201540436,-0.046854942,0,0,0,,,,,,,GARDEN,HB,m,y,./images/GARDENHB.png,,,,,,,,,,,,,,,,,,,,,z,0,0.7954,,,,,,,,0,99,99,10,1
,,,,,,,,,,,,,,,,,5b4991de56e0140001acb76b,25,2022-02-12_18h01.30.649,lexical_decision_task_DD_L4,2021.2.3,Win32,60.06366749,,,,,,,,,,,,0.65,0,,,,,,,,,,,,,,,,,,,,,,,,0.201540436,-0.046854942,0,0,0,,,,,,,CRADLE,LB,z,y,./images/CRADLELB.png,,,,,,,,,,,,,,,,,,,,,m,0,0.65,,,,,,,,0,100,100,104,1
,,,,,,,,,,,,,,,,,5b4991de56e0140001acb76b,25,2022-02-12_18h01.30.649,lexical_decision_task_DD_L4,2021.2.3,Win32,60.06366749,,,,,,,,,,,,0.6946,0,,,,,,,,,,,,,,,,,,,,,,,,0.201540436,-0.046854942,0,0,0,,,,,,,MAMMAL,LB,m,y,./images/MAMMALLB.png,,,,,,,,,,,,,,,,,,,,,z,0,0.6946,,,,,,,,0,101,101,62,1
,,,,,,,,,,,,,,,,,5b4991de56e0140001acb76b,25,2022-02-12_18h01.30.649,lexical_decision_task_DD_L4,2021.2.3,Win32,60.06366749,,,,,,,,,,,,0.7557,1,,,,,,,,,,,,,,,,,,,,,,,,0.201540436,-0.046854942,0,0,0,,,,,,,BIRTH,HB,z,y,./images/BIRTHHB.png,,,,,,,,,,,,,,,,,,,,,z,1,0.7557,,,,,,,,0,102,102,121,1
,,,,,,,,,,,,,,,,,5b4991de56e0140001acb76b,25,2022-02-12_18h01.30.649,lexical_decision_task_DD_L4,2021.2.3,Win32,60.06366749,,,,,,,,,,,,1.0858,1,,,,,,,,,,,,,,,,,,,,,,,,0.201540436,-0.046854942,0,0,0,,,,,,,BANNER,HB,z,y,./images/BANNERHB.png,,,,,,,,,,,,,,,,,,,,,z,1,1.0858,,,,,,,,0,103,103,136,1
,,,,,,,,,,,,,,,,,5b4991de56e0140001acb76b,25,2022-02-12_18h01.30.649,lexical_decision_task_DD_L4,2021.2.3,Win32,60.06366749,,,,,,,,,,,,0.7949,1,,,,,,,,,,,,,,,,,,,,,,,,0.201540436,-0.046854942,0,0,0,,,,,,,STREAM,LB,m,y,./images/STREAMLB.png,,,,,,,,,,,,,,,,,,,,,m,1,0.7949,,,,,,,,0,104,104,41,1
,,,,,,,,,,,,,,,,,5b4991de56e0140001acb76b,25,2022-02-12_18h01.30.649,lexical_decision_task_DD_L4,2021.2.3,Win32,60.06366749,,,,,,,,,,,,0.5834,1,,,,,,,,,,,,,,,,,,,,,,,,0.201540436,-0.046854942,0,0,0,,,,,,,NOOSE,C,z,y,./images/NOOSE.png,,,,,,,,,,,,,,,,,,,,,z,1,0.5834,,,,,,,,0,105,105,156,1
,,,,,,,,,,,,,,,,,5b4991de56e0140001acb76b,25,2022-02-12_18h01.30.649,lexical_decision_task_DD_L4,2021.2.3,Win32,60.06366749,,,,,,,,,,,,0.8282,1,,,,,,,,,,,,,,,,,,,,,,,,0.201540436,-0.046854942,0,0,0,,,,,,,PEACH,LB,z,y,./images/PEACHLB.png,,,,,,,,,,,,,,,,,,,,,z,1,0.8282,,,,,,,,0,106,106,119,1
,,,,,,,,,,,,,,,,,5b4991de56e0140001acb76b,25,2022-02-12_18h01.30.649,lexical_decision_task_DD_L4,2021.2.3,Win32,60.06366749,,,,,,,,,,,,0.7075,1,,,,,,,,,,,,,,,,,,,,,,,,0.201540436,-0.046854942,0,0,0,,,,,,,BONNET,LB,z,y,./images/BONNETLB.png,,,,,,,,,,,,,,,,,,,,,z,1,0.7075,,,,,,,,0,107,107,95,1
,,,,,,,,,,,,,,,,,5b4991de56e0140001acb76b,25,2022-02-12_18h01.30.649,lexical_decision_task_DD_L4,2021.2.3,Win32,60.06366749,,,,,,,,,,,,0.54,1,,,,,,,,,,,,,,,,,,,,,,,,0.201540436,-0.046854942,0,0,0,,,,,,,STRING,LB,z,y,./images/STRINGLB.png,,,,,,,,,,,,,,,,,,,,,z,1,0.54,,,,,,,,0,108,108,125,1
,,,,,,,,,,,,,,,,,5b4991de56e0140001acb76b,25,2022-02-12_18h01.30.649,lexical_decision_task_DD_L4,2021.2.3,Win32,60.06366749,,,,,,,,,,,,0.5737,0,,,,,,,,,,,,,,,,,,,,,,,,0.201540436,-0.046854942,0,0,0,,,,,,,DIVER,C,m,y,./images/DIVER.png,,,,,,,,,,,,,,,,,,,,,z,0,0.5737,,,,,,,,0,109,109,9,1
,,,,,,,,,,,,,,,,,5b4991de56e0140001acb76b,25,2022-02-12_18h01.30.649,lexical_decision_task_DD_L4,2021.2.3,Win32,60.06366749,,,,,,,,,,,,0.5974,0,,,,,,,,,,,,,,,,,,,,,,,,0.201540436,-0.046854942,0,0,0,,,,,,,STATUE,C,m,y,./images/STATUE.png,,,,,,,,,,,,,,,,,,,,,z,0,0.5974,,,,,,,,0,110,110,66,1
,,,,,,,,,,,,,,,,,5b4991de56e0140001acb76b,25,2022-02-12_18h01.30.649,lexical_decision_task_DD_L4,2021.2.3,Win32,60.06366749,,,,,,,,,,,,0.4854,0,,,,,,,,,,,,,,,,,,,,,,,,0.201540436,-0.046854942,0,0,0,,,,,,,KITTEN,C,z,y,./images/KITTEN.png,,,,,,,,,,,,,,,,,,,,,m,0,0.4854,,,,,,,,0,111,111,129,1
,,,,,,,,,,,,,,,,,5b4991de56e0140001acb76b,25,2022-02-12_18h01.30.649,lexical_decision_task_DD_L4,2021.2.3,Win32,60.06366749,,,,,,,,,,,,0.9773,1,,,,,,,,,,,,,,,,,,,,,,,,0.201540436,-0.046854942,0,0,0,,,,,,,TWINS,C,z,y,./images/TWINS.png,,,,,,,,,,,,,,,,,,,,,z,1,0.9773,,,,,,,,0,112,112,144,1
,,,,,,,,,,,,,,,,,5b4991de56e0140001acb76b,25,2022-02-12_18h01.30.649,lexical_decision_task_DD_L4,2021.2.3,Win32,60.06366749,,,,,,,,,,,,0.7011,1,,,,,,,,,,,,,,,,,,,,,,,,0.201540436,-0.046854942,0,0,0,,,,,,,SWING,HB,z,y,./images/SWINGHB.png,,,,,,,,,,,,,,,,,,,,,z,1,0.7011,,,,,,,,0,113,113,124,1
,,,,,,,,,,,,,,,,,5b4991de56e0140001acb76b,25,2022-02-12_18h01.30.649,lexical_decision_task_DD_L4,2021.2.3,Win32,60.06366749,,,,,,,,,,,,0.9023,1,,,,,,,,,,,,,,,,,,,,,,,,0.201540436,-0.046854942,0,0,0,,,,,,,HOCKEY,LB,m,y,./images/HOCKEYLB.png,,,,,,,,,,,,,,,,,,,,,m,1,0.9023,,,,,,,,0,114,114,32,1
,,,,,,,,,,,,,,,,,5b4991de56e0140001acb76b,25,2022-02-12_18h01.30.649,lexical_decision_task_DD_L4,2021.2.3,Win32,60.06366749,,,,,,,,,,,,0.815,1,,,,,,,,,,,,,,,,,,,,,,,,0.201540436,-0.046854942,0,0,0,,,,,,,MUMMY,HB,m,y,./images/MUMMYHB.png,,,,,,,,,,,,,,,,,,,,,m,1,0.815,,,,,,,,0,115,115,46,1
,,,,,,,,,,,,,,,,,5b4991de56e0140001acb76b,25,2022-02-12_18h01.30.649,lexical_decision_task_DD_L4,2021.2.3,Win32,60.06366749,,,,,,,,,,,,0.577,0,,,,,,,,,,,,,,,,,,,,,,,,0.201540436,-0.046854942,0,0,0,,,,,,,DRILL,C,m,y,./images/DRILL.png,,,,,,,,,,,,,,,,,,,,,z,0,0.577,,,,,,,,0,116,116,81,1
,,,,,,,,,,,,,,,,,5b4991de56e0140001acb76b,25,2022-02-12_18h01.30.649,lexical_decision_task_DD_L4,2021.2.3,Win32,60.06366749,,,,,,,,,,,,0.9051,1,,,,,,,,,,,,,,,,,,,,,,,,0.201540436,-0.046854942,0,0,0,,,,,,,PICKLE,LB,z,y,./images/PICKLELB.png,,,,,,,,,,,,,,,,,,,,,z,1,0.9051,,,,,,,,0,117,117,98,1
,,,,,,,,,,,,,,,,,5b4991de56e0140001acb76b,25,2022-02-12_18h01.30.649,lexical_decision_task_DD_L4,2021.2.3,Win32,60.06366749,,,,,,,,,,,,0.7033,1,,,,,,,,,,,,,,,,,,,,,,,,0.201540436,-0.046854942,0,0,0,,,,,,,JAGUAR,C,z,y,./images/JAGUAR.png,,,,,,,,,,,,,,,,,,,,,z,1,0.7033,,,,,,,,0,118,118,102,1
,,,,,,,,,,,,,,,,,5b4991de56e0140001acb76b,25,2022-02-12_18h01.30.649,lexical_decision_task_DD_L4,2021.2.3,Win32,60.06366749,,,,,,,,,,,,0.8985,1,,,,,,,,,,,,,,,,,,,,,,,,0.201540436,-0.046854942,0,0,0,,,,,,,CLOWN,HB,m,y,./images/CLOWNHB.png,,,,,,,,,,,,,,,,,,,,,m,1,0.8985,,,,,,,,0,119,119,22,1
,,,,,,,,,,,,,,,,,5b4991de56e0140001acb76b,25,2022-02-12_18h01.30.649,lexical_decision_task_DD_L4,2021.2.3,Win32,60.06366749,,,,,,,,,,,,0.8812,1,,,,,,,,,,,,,,,,,,,,,,,,0.201540436,-0.046854942,0,0,0,,,,,,,MOSQUE,HB,z,y,./images/MOSQUEHB.png,,,,,,,,,,,,,,,,,,,,,z,1,0.8812,,,,,,,,0,120,120,127,1
,,,,,,,,,,,,,,,,,5b4991de56e0140001acb76b,25,2022-02-12_18h01.30.649,lexical_decision_task_DD_L4,2021.2.3,Win32,60.06366749,,,,,,,,,,,,1.4111,1,,,,,,,,,,,,,,,,,,,,,,,,0.201540436,-0.046854942,0,0,0,,,,,,,MOOSE,C,z,y,./images/MOOSE.png,,,,,,,,,,,,,,,,,,,,,z,1,1.4111,,,,,,,,0,121,121,141,1
,,,,,,,,,,,,,,,,,5b4991de56e0140001acb76b,25,2022-02-12_18h01.30.649,lexical_decision_task_DD_L4,2021.2.3,Win32,60.06366749,,,,,,,,,,,,1.2629,0,,,,,,,,,,,,,,,,,,,,,,,,0.201540436,-0.046854942,0,0,0,,,,,,,ARROW,C,m,y,./images/ARROW.png,,,,,,,,,,,,,,,,,,,,,z,0,1.2629,,,,,,,,0,122,122,69,1
,,,,,,,,,,,,,,,,,5b4991de56e0140001acb76b,25,2022-02-12_18h01.30.649,lexical_decision_task_DD_L4,2021.2.3,Win32,60.06366749,,,,,,,,,,,,0.7024,1,,,,,,,,,,,,,,,,,,,,,,,,0.201540436,-0.046854942,0,0,0,,,,,,,JUNGLE,LB,z,y,./images/JUNGLELB.png,,,,,,,,,,,,,,,,,,,,,z,1,0.7024,,,,,,,,0,123,123,167,1
,,,,,,,,,,,,,,,,,5b4991de56e0140001acb76b,25,2022-02-12_18h01.30.649,lexical_decision_task_DD_L4,2021.2.3,Win32,60.06366749,,,,,,,,,,,,0.8288,0,,,,,,,,,,,,,,,,,,,,,,,,0.201540436,-0.046854942,0,0,0,,,,,,,PILOT,LB,m,y,./images/PILOTLB.png,,,,,,,,,,,,,,,,,,,,,z,0,0.8288,,,,,,,,0,124,124,50,1
,,,,,,,,,,,,,,,,,5b4991de56e0140001acb76b,25,2022-02-12_18h01.30.649,lexical_decision_task_DD_L4,2021.2.3,Win32,60.06366749,,,,,,,,,,,,0.9661,0,,,,,,,,,,,,,,,,,,,,,,,,0.093709884,-0.39987163,1,0,0,,,,,,,SLOPE,C,m,y,./images/SLOPE.png,break_done_button,,,,,,,,,,,,,,,,,,,,z,0,0.9661,,,,,,,,0,125,125,30,1
,,,,,,,,,,,,,,,,,5b4991de56e0140001acb76b,25,2022-02-12_18h01.30.649,lexical_decision_task_DD_L4,2021.2.3,Win32,60.06366749,,,,,,,,,,,,0.7165,1,,,,,,,,,,,,,,,,,,,,,,,,0.019255456,-0.069961489,0,0,0,,,,,,,ARTIST,HB,m,y,./images/ARTISTHB.png,,,,,,,,,,,,,,,,,,,,,m,1,0.7165,,,,,,,,0,126,126,61,1
,,,,,,,,,,,,,,,,,5b4991de56e0140001acb76b,25,2022-02-12_18h01.30.649,lexical_decision_task_DD_L4,2021.2.3,Win32,60.06366749,,,,,,,,,,,,0.5839,1,,,,,,,,,,,,,,,,,,,,,,,,0.019255456,-0.069961489,0,0,0,,,,,,,FINGER,C,z,y,./images/FINGER.png,,,,,,,,,,,,,,,,,,,,,z,1,0.5839,,,,,,,,0,127,127,87,1
,,,,,,,,,,,,,,,,,5b4991de56e0140001acb76b,25,2022-02-12_18h01.30.649,lexical_decision_task_DD_L4,2021.2.3,Win32,60.06366749,,,,,,,,,,,,0.6453,0,,,,,,,,,,,,,,,,,,,,,,,,0.019255456,-0.069961489,0,0,0,,,,,,,BRIDE,HB,m,y,./images/BRIDEHB.png,,,,,,,,,,,,,,,,,,,,,z,0,0.6453,,,,,,,,0,128,128,64,1
,,,,,,,,,,,,,,,,,5b4991de56e0140001acb76b,25,2022-02-12_18h01.30.649,lexical_decision_task_DD_L4,2021.2.3,Win32,60.06366749,,,,,,,,,,,,0.5129,0,,,,,,,,,,,,,,,,,,,,,,,,0.019255456,-0.069961489,0,0,0,,,,,,,GRANNY,LB,m,y,./images/GRANNYLB.png,,,,,,,,,,,,,,,,,,,,,z,0,0.5129,,,,,,,,0,129,129,20,1
,,,,,,,,,,,,,,,,,5b4991de56e0140001acb76b,25,2022-02-12_18h01.30.649,lexical_decision_task_DD_L4,2021.2.3,Win32,60.06366749,,,,,,,,,,,,0.6555,0,,,,,,,,,,,,,,,,,,,,,,,,0.019255456,-0.069961489,0,0,0,,,,,,,CANDY,C,m,y,./images/CANDY.png,,,,,,,,,,,,,,,,,,,,,z,0,0.6555,,,,,,,,0,130,130,39,1
