key_resp.keys,key_resp.rt,instr_done_touch.x,instr_done_touch.y,instr_done_touch.leftButton,instr_done_touch.midButton,instr_done_touch.rightButton,instruction_pages.thisRepN,instruction_pages.thisTrialN,instruction_pages.thisN,instruction_pages.thisIndex,instruction_pages.ran,pageN,phase,instruct_text,has_image,instruct_image,participant,age,date,expName,psychopyVersion,OS,frameRate,response.keys,response.corr,response.rt,touch_resp.x,touch_resp.y,touch_resp.leftButton,touch_resp.midButton,touch_resp.rightButton,touch_resp.time,touch_resp.clicked_name,rt,corr,practrials.thisRepN,practrials.thisTrialN,practrials.thisN,practrials.thisIndex,practrials.ran,TrialID,Target,corrAns,end_of_practice_trials_pages.thisRepN,end_of_practice_trials_pages.thisTrialN,end_of_practice_trials_pages.thisN,end_of_practice_trials_pages.thisIndex,end_of_practice_trials_pages.ran,key_resp_2.keys,key_resp_2.corr,key_resp_2.rt,targ_click.x,targ_click.y,targ_click.leftButton,targ_click.midButton,targ_click.rightButton,targ_click.time,targ_click.clicked_name,break_done_touch.x,break_done_touch.y,break_done_touch.leftButton,break_done_touch.midButton,break_done_touch.rightButton,break_done_keyboard.keys,maintrials.thisRepN,maintrials.thisTrialN,maintrials.thisN,maintrials.thisIndex,maintrials.ran,string,blur,study,lex,stim_path,break_done_keyboard.rt,mouse_2.x,mouse_2.y,mouse_2.leftButton,mouse_2.midButton,mouse_2.rightButton,mouse_2.clicked_name,slider.response,slider.rt,trials.thisRepN,trials.thisTrialN,trials.thisN,trials.thisIndex,trials.ran,instr_done_touch.clicked_name,test_instructions.thisRepN,test_instructions.thisTrialN,test_instructions.thisN,test_instructions.thisIndex,test_instructions.ran,key_resp_3.keys,key_resp_3.corr,key_resp_3.rt,test_click.x,test_click.y,test_click.leftButton,test_click.midButton,test_click.rightButton,test_click.time,test_click.clicked_name,test_phase.thisRepN,test_phase.thisTrialN,test_phase.thisN,test_phase.thisIndex,test_phase.ran
space,59.3687,-0.227777778,-0.225,0,0,0,0,0,0,0,1,1,instructions,"INSTRUCTIONS
At the start of each trial, look at the plus sign  (+) in the center of the screen.  This tells you that a trial is about to begin and where to look. Second, the plus sign will disappear and a string of letters will appear. Your task is to determine if the string of letters is a word or not. If the item is a word press the M key (on keyboard)  or touch the word button (phone/tablet).  If the item is not a word,  press the  Z key (on keyboard)  or touch the nonword button (on phone/tablet). 
Press the space bar or touch  continue.",0,,5e38e79295ff561112eae457,36,2022-02-12_15h08.15.494,lexical_decision_task_DD_L4,2021.2.3,Win32,59.93766483,,,,,,,,,,,,,,,,,,,,,,,,,,,,,,,,,,,,,,,,,,,,,,,,,,,,,,,,,,,,,,,,,,,,,,,,,,,,,,,,,,,,,,
space,5.6554,-0.227777778,-0.225,0,0,0,0,1,1,1,1,2,instructions,"If your device has a keyboard, press the 'Z' key for nonwords and the 'M' key for words.





Press the space bar or touch the button below to continue.",0,keyboard-example.gif,5e38e79295ff561112eae457,36,2022-02-12_15h08.15.494,lexical_decision_task_DD_L4,2021.2.3,Win32,59.93766483,,,,,,,,,,,,,,,,,,,,,,,,,,,,,,,,,,,,,,,,,,,,,,,,,,,,,,,,,,,,,,,,,,,,,,,,,,,,,,,,,,,,,,
space,3.6555,-0.227777778,-0.225,0,0,0,0,2,2,2,1,3,instructions,"If you are using a touchscreen only device, use the buttons on the screen. Do not use the mouse.





Press the space bar or touch the button below to continue.",0,touchscreen-example.gif,5e38e79295ff561112eae457,36,2022-02-12_15h08.15.494,lexical_decision_task_DD_L4,2021.2.3,Win32,59.93766483,,,,,,,,,,,,,,,,,,,,,,,,,,,,,,,,,,,,,,,,,,,,,,,,,,,,,,,,,,,,,,,,,,,,,,,,,,,,,,,,,,,,,,
space,21.3517,-0.208333333,-0.212962963,0,0,0,0,3,3,3,1,4,instructions,"It is very important that you respond as quickly and accurately as possible, as each letter string will only be on the screen for two seconds. If you do not respond within this time, the message 'Too slow!' will be displayed and the experiment will progress to the next letter string. The first 20 trials will be practice trials and you will receive feedback on your answers. 

Press the space bar or touch the button below to start the practice trials.",0,,5e38e79295ff561112eae457,36,2022-02-12_15h08.15.494,lexical_decision_task_DD_L4,2021.2.3,Win32,59.93766483,,,,,,,,,,,,,,,,,,,,,,,,,,,,,,,,,,,,,,,,,,,,,,,,,,,,,,,,,,,,,,,,,,,,,,,,,,,,,,,,,,,,,,
,,,,,,,,,,,,,,,,,5e38e79295ff561112eae457,36,2022-02-12_15h08.15.494,lexical_decision_task_DD_L4,2021.2.3,Win32,59.93766483,m,1,0.8595,,,,,,,,0.8595,1,0,0,0,4,1,1001,SQUEAK,m,,,,,,,,,,,,,,,,,,,,,,,,,,,,,,,,,,,,,,,,,,,,,,,,,,,,,,,,,,,,,,,,,,
,,,,,,,,,,,,,,,,,5e38e79295ff561112eae457,36,2022-02-12_15h08.15.494,lexical_decision_task_DD_L4,2021.2.3,Win32,59.93766483,z,1,0.7941,,,,,,,,0.7941,1,0,1,1,15,1,1001,WHAISE,z,,,,,,,,,,,,,,,,,,,,,,,,,,,,,,,,,,,,,,,,,,,,,,,,,,,,,,,,,,,,,,,,,,
,,,,,,,,,,,,,,,,,5e38e79295ff561112eae457,36,2022-02-12_15h08.15.494,lexical_decision_task_DD_L4,2021.2.3,Win32,59.93766483,m,1,0.8031,,,,,,,,0.8031,1,0,2,2,5,1,1001,OBTAIN,m,,,,,,,,,,,,,,,,,,,,,,,,,,,,,,,,,,,,,,,,,,,,,,,,,,,,,,,,,,,,,,,,,,
,,,,,,,,,,,,,,,,,5e38e79295ff561112eae457,36,2022-02-12_15h08.15.494,lexical_decision_task_DD_L4,2021.2.3,Win32,59.93766483,z,1,1.001,,,,,,,,1.001,1,0,3,3,11,1,1001,RASHET,z,,,,,,,,,,,,,,,,,,,,,,,,,,,,,,,,,,,,,,,,,,,,,,,,,,,,,,,,,,,,,,,,,,
,,,,,,,,,,,,,,,,,5e38e79295ff561112eae457,36,2022-02-12_15h08.15.494,lexical_decision_task_DD_L4,2021.2.3,Win32,59.93766483,m,1,0.7562,,,,,,,,0.7562,1,0,4,4,1,1,1001,ADJUST,m,,,,,,,,,,,,,,,,,,,,,,,,,,,,,,,,,,,,,,,,,,,,,,,,,,,,,,,,,,,,,,,,,,
,,,,,,,,,,,,,,,,,5e38e79295ff561112eae457,36,2022-02-12_15h08.15.494,lexical_decision_task_DD_L4,2021.2.3,Win32,59.93766483,m,1,0.7265,,,,,,,,0.7265,1,0,5,5,3,1,1001,MATRIX,m,,,,,,,,,,,,,,,,,,,,,,,,,,,,,,,,,,,,,,,,,,,,,,,,,,,,,,,,,,,,,,,,,,
,,,,,,,,,,,,,,,,,5e38e79295ff561112eae457,36,2022-02-12_15h08.15.494,lexical_decision_task_DD_L4,2021.2.3,Win32,59.93766483,z,1,0.682,,,,,,,,0.682,1,0,6,6,13,1,1001,ROUPET,z,,,,,,,,,,,,,,,,,,,,,,,,,,,,,,,,,,,,,,,,,,,,,,,,,,,,,,,,,,,,,,,,,,
,,,,,,,,,,,,,,,,,5e38e79295ff561112eae457,36,2022-02-12_15h08.15.494,lexical_decision_task_DD_L4,2021.2.3,Win32,59.93766483,m,1,0.5757,,,,,,,,0.5757,1,0,7,7,6,1,1001,ZOMBIE,m,,,,,,,,,,,,,,,,,,,,,,,,,,,,,,,,,,,,,,,,,,,,,,,,,,,,,,,,,,,,,,,,,,
,,,,,,,,,,,,,,,,,5e38e79295ff561112eae457,36,2022-02-12_15h08.15.494,lexical_decision_task_DD_L4,2021.2.3,Win32,59.93766483,m,1,0.6018,,,,,,,,0.6018,1,0,8,8,7,1,1001,VOLUME,m,,,,,,,,,,,,,,,,,,,,,,,,,,,,,,,,,,,,,,,,,,,,,,,,,,,,,,,,,,,,,,,,,,
,,,,,,,,,,,,,,,,,5e38e79295ff561112eae457,36,2022-02-12_15h08.15.494,lexical_decision_task_DD_L4,2021.2.3,Win32,59.93766483,z,1,0.5864,,,,,,,,0.5864,1,0,9,9,8,1,1001,ASLERT,z,,,,,,,,,,,,,,,,,,,,,,,,,,,,,,,,,,,,,,,,,,,,,,,,,,,,,,,,,,,,,,,,,,
,,,,,,,,,,,,,,,,,5e38e79295ff561112eae457,36,2022-02-12_15h08.15.494,lexical_decision_task_DD_L4,2021.2.3,Win32,59.93766483,z,1,0.6841,,,,,,,,0.6841,1,0,10,10,14,1,1001,THRALE,z,,,,,,,,,,,,,,,,,,,,,,,,,,,,,,,,,,,,,,,,,,,,,,,,,,,,,,,,,,,,,,,,,,
,,,,,,,,,,,,,,,,,5e38e79295ff561112eae457,36,2022-02-12_15h08.15.494,lexical_decision_task_DD_L4,2021.2.3,Win32,59.93766483,z,1,0.7365,,,,,,,,0.7365,1,0,11,11,12,1,1001,SPRINY,z,,,,,,,,,,,,,,,,,,,,,,,,,,,,,,,,,,,,,,,,,,,,,,,,,,,,,,,,,,,,,,,,,,
,,,,,,,,,,,,,,,,,5e38e79295ff561112eae457,36,2022-02-12_15h08.15.494,lexical_decision_task_DD_L4,2021.2.3,Win32,59.93766483,z,1,0.8516,,,,,,,,0.8516,1,0,12,12,10,1,1001,INLADE,z,,,,,,,,,,,,,,,,,,,,,,,,,,,,,,,,,,,,,,,,,,,,,,,,,,,,,,,,,,,,,,,,,,
,,,,,,,,,,,,,,,,,5e38e79295ff561112eae457,36,2022-02-12_15h08.15.494,lexical_decision_task_DD_L4,2021.2.3,Win32,59.93766483,m,1,0.7057,,,,,,,,0.7057,1,0,13,13,2,1,1001,ALMOND,m,,,,,,,,,,,,,,,,,,,,,,,,,,,,,,,,,,,,,,,,,,,,,,,,,,,,,,,,,,,,,,,,,,
,,,,,,,,,,,,,,,,,5e38e79295ff561112eae457,36,2022-02-12_15h08.15.494,lexical_decision_task_DD_L4,2021.2.3,Win32,59.93766483,z,1,0.7103,,,,,,,,0.7103,1,0,14,14,9,1,1001,FARINY,z,,,,,,,,,,,,,,,,,,,,,,,,,,,,,,,,,,,,,,,,,,,,,,,,,,,,,,,,,,,,,,,,,,
,,,,,,,,,,,,,,,,,5e38e79295ff561112eae457,36,2022-02-12_15h08.15.494,lexical_decision_task_DD_L4,2021.2.3,Win32,59.93766483,m,1,0.7145,,,,,,,,0.7145,1,0,15,15,0,1,1001,UTOPIA,m,,,,,,,,,,,,,,,,,,,,,,,,,,,,,,,,,,,,,,,,,,,,,,,,,,,,,,,,,,,,,,,,,,
space,18.775,0.302777778,-0.049074074,0,0,0,,,,,,1,end_of_practice,"You have completed the practice trials. During the experimental trials, you will not receive feedback. 
Before you begin, please ensure that you are in a comfortable and quiet location and will not be disturbed for about 15 minutes, as we cannot use your data if you do not complete all the trials. 
 When you are ready to start the experimental trials, please press space or touch the button below.",,,5e38e79295ff561112eae457,36,2022-02-12_15h08.15.494,lexical_decision_task_DD_L4,2021.2.3,Win32,59.93766483,,,,,,,,,,,,,,,,,,,,,0,0,0,0,1,,,,,,,,,,,,,,,,,,,,,,,,,,,,,,,,,,,,,,,,,,,,,,,,,,,,,,,,,,,,,
,,,,,,,,,,,,,,,,,5e38e79295ff561112eae457,36,2022-02-12_15h08.15.494,lexical_decision_task_DD_L4,2021.2.3,Win32,59.93766483,,,,,,,,,,,0.6351,1,,,,,,,,,,,,,,m,1,0.6351,,,,,,,,0.302777778,-0.049074074,0,0,0,,0,0,0,72,1,FLASK,C,old,m,./images/FLASK.png,,,,,,,,,,,,,,,,,,,,,,,,,,,,,,,,,,,
,,,,,,,,,,,,,,,,,5e38e79295ff561112eae457,36,2022-02-12_15h08.15.494,lexical_decision_task_DD_L4,2021.2.3,Win32,59.93766483,,,,,,,,,,,0.8174,1,,,,,,,,,,,,,,z,1,0.8174,,,,,,,,0.302777778,-0.049074074,0,0,0,,0,1,1,143,1,MONGS,LB,old,z,./images/MONGSLB.png,,,,,,,,,,,,,,,,,,,,,,,,,,,,,,,,,,,
,,,,,,,,,,,,,,,,,5e38e79295ff561112eae457,36,2022-02-12_15h08.15.494,lexical_decision_task_DD_L4,2021.2.3,Win32,59.93766483,,,,,,,,,,,0.7718,1,,,,,,,,,,,,,,m,1,0.7718,,,,,,,,0.302777778,-0.049074074,0,0,0,,0,2,2,30,1,SLOPE,C,old,m,./images/SLOPE.png,,,,,,,,,,,,,,,,,,,,,,,,,,,,,,,,,,,
,,,,,,,,,,,,,,,,,5e38e79295ff561112eae457,36,2022-02-12_15h08.15.494,lexical_decision_task_DD_L4,2021.2.3,Win32,59.93766483,,,,,,,,,,,1.0818,1,,,,,,,,,,,,,,m,1,1.0818,,,,,,,,0.302777778,-0.049074074,0,0,0,,0,3,3,64,1,BRIDE,HB,old,m,./images/BRIDEHB.png,,,,,,,,,,,,,,,,,,,,,,,,,,,,,,,,,,,
,,,,,,,,,,,,,,,,,5e38e79295ff561112eae457,36,2022-02-12_15h08.15.494,lexical_decision_task_DD_L4,2021.2.3,Win32,59.93766483,,,,,,,,,,,0.8516,1,,,,,,,,,,,,,,m,1,0.8516,,,,,,,,0.302777778,-0.049074074,0,0,0,,0,4,4,6,1,STAIN,C,old,m,./images/STAIN.png,,,,,,,,,,,,,,,,,,,,,,,,,,,,,,,,,,,
,,,,,,,,,,,,,,,,,5e38e79295ff561112eae457,36,2022-02-12_15h08.15.494,lexical_decision_task_DD_L4,2021.2.3,Win32,59.93766483,,,,,,,,,,,0.67,1,,,,,,,,,,,,,,m,1,0.67,,,,,,,,0.302777778,-0.049074074,0,0,0,,0,5,5,27,1,BUTTER,C,old,m,./images/BUTTER.png,,,,,,,,,,,,,,,,,,,,,,,,,,,,,,,,,,,
,,,,,,,,,,,,,,,,,5e38e79295ff561112eae457,36,2022-02-12_15h08.15.494,lexical_decision_task_DD_L4,2021.2.3,Win32,59.93766483,,,,,,,,,,,0.888,1,,,,,,,,,,,,,,m,1,0.888,,,,,,,,0.302777778,-0.049074074,0,0,0,,0,6,6,34,1,RAZOR,HB,old,m,./images/RAZORHB.png,,,,,,,,,,,,,,,,,,,,,,,,,,,,,,,,,,,
,,,,,,,,,,,,,,,,,5e38e79295ff561112eae457,36,2022-02-12_15h08.15.494,lexical_decision_task_DD_L4,2021.2.3,Win32,59.93766483,,,,,,,,,,,1.0651,1,,,,,,,,,,,,,,m,1,1.0651,,,,,,,,0.302777778,-0.049074074,0,0,0,,0,7,7,37,1,TIGER,HB,old,m,./images/TIGERHB.png,,,,,,,,,,,,,,,,,,,,,,,,,,,,,,,,,,,
,,,,,,,,,,,,,,,,,5e38e79295ff561112eae457,36,2022-02-12_15h08.15.494,lexical_decision_task_DD_L4,2021.2.3,Win32,59.93766483,,,,,,,,,,,0.7316,1,,,,,,,,,,,,,,z,1,0.7316,,,,,,,,0.302777778,-0.049074074,0,0,0,,0,8,8,126,1,GUELS,C,old,z,./images/GUELS.png,,,,,,,,,,,,,,,,,,,,,,,,,,,,,,,,,,,
,,,,,,,,,,,,,,,,,5e38e79295ff561112eae457,36,2022-02-12_15h08.15.494,lexical_decision_task_DD_L4,2021.2.3,Win32,59.93766483,,,,,,,,,,,0.6505,1,,,,,,,,,,,,,,z,1,0.6505,,,,,,,,0.302777778,-0.049074074,0,0,0,,0,9,9,129,1,PRANS,C,old,z,./images/PRANS.png,,,,,,,,,,,,,,,,,,,,,,,,,,,,,,,,,,,
,,,,,,,,,,,,,,,,,5e38e79295ff561112eae457,36,2022-02-12_15h08.15.494,lexical_decision_task_DD_L4,2021.2.3,Win32,59.93766483,,,,,,,,,,,0.6789,1,,,,,,,,,,,,,,m,1,0.6789,,,,,,,,0.302777778,-0.049074074,0,0,0,,0,10,10,8,1,CLIFF,LB,old,m,./images/CLIFFLB.png,,,,,,,,,,,,,,,,,,,,,,,,,,,,,,,,,,,
,,,,,,,,,,,,,,,,,5e38e79295ff561112eae457,36,2022-02-12_15h08.15.494,lexical_decision_task_DD_L4,2021.2.3,Win32,59.93766483,,,,,,,,,,,1.0729,1,,,,,,,,,,,,,,z,1,1.0729,,,,,,,,0.302777778,-0.049074074,0,0,0,,0,11,11,130,1,CRILL,HB,old,z,./images/CRILLHB.png,,,,,,,,,,,,,,,,,,,,,,,,,,,,,,,,,,,
,,,,,,,,,,,,,,,,,5e38e79295ff561112eae457,36,2022-02-12_15h08.15.494,lexical_decision_task_DD_L4,2021.2.3,Win32,59.93766483,,,,,,,,,,,1.3547,1,,,,,,,,,,,,,,m,1,1.3547,,,,,,,,0.302777778,-0.049074074,0,0,0,,0,12,12,76,1,MIDGET,HB,old,m,./images/MIDGETHB.png,,,,,,,,,,,,,,,,,,,,,,,,,,,,,,,,,,,
,,,,,,,,,,,,,,,,,5e38e79295ff561112eae457,36,2022-02-12_15h08.15.494,lexical_decision_task_DD_L4,2021.2.3,Win32,59.93766483,,,,,,,,,,,1.1511,1,,,,,,,,,,,,,,z,1,1.1511,,,,,,,,0.302777778,-0.049074074,0,0,0,,0,13,13,91,1,SHENS,HB,old,z,./images/SHENSHB.png,,,,,,,,,,,,,,,,,,,,,,,,,,,,,,,,,,,
,,,,,,,,,,,,,,,,,5e38e79295ff561112eae457,36,2022-02-12_15h08.15.494,lexical_decision_task_DD_L4,2021.2.3,Win32,59.93766483,,,,,,,,,,,0.8718,1,,,,,,,,,,,,,,z,1,0.8718,,,,,,,,0.302777778,-0.049074074,0,0,0,,0,14,14,116,1,BALGY,LB,old,z,./images/BALGYLB.png,,,,,,,,,,,,,,,,,,,,,,,,,,,,,,,,,,,
,,,,,,,,,,,,,,,,,5e38e79295ff561112eae457,36,2022-02-12_15h08.15.494,lexical_decision_task_DD_L4,2021.2.3,Win32,59.93766483,,,,,,,,,,,0.6655,1,,,,,,,,,,,,,,m,1,0.6655,,,,,,,,0.302777778,-0.049074074,0,0,0,,0,15,15,44,1,BASKET,LB,old,m,./images/BASKETLB.png,,,,,,,,,,,,,,,,,,,,,,,,,,,,,,,,,,,
,,,,,,,,,,,,,,,,,5e38e79295ff561112eae457,36,2022-02-12_15h08.15.494,lexical_decision_task_DD_L4,2021.2.3,Win32,59.93766483,,,,,,,,,,,0.6842,1,,,,,,,,,,,,,,m,1,0.6842,,,,,,,,0.302777778,-0.049074074,0,0,0,,0,16,16,16,1,GRAPE,HB,old,m,./images/GRAPEHB.png,,,,,,,,,,,,,,,,,,,,,,,,,,,,,,,,,,,
,,,,,,,,,,,,,,,,,5e38e79295ff561112eae457,36,2022-02-12_15h08.15.494,lexical_decision_task_DD_L4,2021.2.3,Win32,59.93766483,,,,,,,,,,,0.7504,1,,,,,,,,,,,,,,z,1,0.7504,,,,,,,,0.302777778,-0.049074074,0,0,0,,0,17,17,93,1,SMONE,C,old,z,./images/SMONE.png,,,,,,,,,,,,,,,,,,,,,,,,,,,,,,,,,,,
,,,,,,,,,,,,,,,,,5e38e79295ff561112eae457,36,2022-02-12_15h08.15.494,lexical_decision_task_DD_L4,2021.2.3,Win32,59.93766483,,,,,,,,,,,1.0283,1,,,,,,,,,,,,,,z,1,1.0283,,,,,,,,0.302777778,-0.049074074,0,0,0,,0,18,18,148,1,JOMS,HB,old,z,./images/JOMSHB.png,,,,,,,,,,,,,,,,,,,,,,,,,,,,,,,,,,,
,,,,,,,,,,,,,,,,,5e38e79295ff561112eae457,36,2022-02-12_15h08.15.494,lexical_decision_task_DD_L4,2021.2.3,Win32,59.93766483,,,,,,,,,,,0.7359,1,,,,,,,,,,,,,,m,1,0.7359,,,,,,,,0.302777778,-0.049074074,0,0,0,,0,19,19,70,1,BANANA,HB,old,m,./images/BANANAHB.png,,,,,,,,,,,,,,,,,,,,,,,,,,,,,,,,,,,
,,,,,,,,,,,,,,,,,5e38e79295ff561112eae457,36,2022-02-12_15h08.15.494,lexical_decision_task_DD_L4,2021.2.3,Win32,59.93766483,,,,,,,,,,,1.0235,1,,,,,,,,,,,,,,z,1,1.0235,,,,,,,,0.302777778,-0.049074074,0,0,0,,0,20,20,145,1,LAMEL,HB,old,z,./images/LAMELHB.png,,,,,,,,,,,,,,,,,,,,,,,,,,,,,,,,,,,
,,,,,,,,,,,,,,,,,5e38e79295ff561112eae457,36,2022-02-12_15h08.15.494,lexical_decision_task_DD_L4,2021.2.3,Win32,59.93766483,,,,,,,,,,,0.8589,1,,,,,,,,,,,,,,m,1,0.8589,,,,,,,,0.302777778,-0.049074074,0,0,0,,0,21,21,31,1,STEAK,HB,old,m,./images/STEAKHB.png,,,,,,,,,,,,,,,,,,,,,,,,,,,,,,,,,,,
,,,,,,,,,,,,,,,,,5e38e79295ff561112eae457,36,2022-02-12_15h08.15.494,lexical_decision_task_DD_L4,2021.2.3,Win32,59.93766483,,,,,,,,,,,0.6855,1,,,,,,,,,,,,,,z,1,0.6855,,,,,,,,0.302777778,-0.049074074,0,0,0,,0,22,22,141,1,PLEET,C,old,z,./images/PLEET.png,,,,,,,,,,,,,,,,,,,,,,,,,,,,,,,,,,,
,,,,,,,,,,,,,,,,,5e38e79295ff561112eae457,36,2022-02-12_15h08.15.494,lexical_decision_task_DD_L4,2021.2.3,Win32,59.93766483,,,,,,,,,,,0.9588,1,,,,,,,,,,,,,,m,1,0.9588,,,,,,,,0.302777778,-0.049074074,0,0,0,,0,23,23,79,1,RULER,HB,old,m,./images/RULERHB.png,,,,,,,,,,,,,,,,,,,,,,,,,,,,,,,,,,,
,,,,,,,,,,,,,,,,,5e38e79295ff561112eae457,36,2022-02-12_15h08.15.494,lexical_decision_task_DD_L4,2021.2.3,Win32,59.93766483,,,,,,,,,,,0.6213,1,,,,,,,,,,,,,,m,1,0.6213,,,,,,,,0.302777778,-0.049074074,0,0,0,,0,24,24,11,1,MEDAL,LB,old,m,./images/MEDALLB.png,,,,,,,,,,,,,,,,,,,,,,,,,,,,,,,,,,,
,,,,,,,,,,,,,,,,,5e38e79295ff561112eae457,36,2022-02-12_15h08.15.494,lexical_decision_task_DD_L4,2021.2.3,Win32,59.93766483,,,,,,,,,,,0.6653,1,,,,,,,,,,,,,,z,1,0.6653,,,,,,,,0.302777778,-0.049074074,0,0,0,,0,25,25,101,1,GLEET,LB,old,z,./images/GLEETLB.png,,,,,,,,,,,,,,,,,,,,,,,,,,,,,,,,,,,
,,,,,,,,,,,,,,,,,5e38e79295ff561112eae457,36,2022-02-12_15h08.15.494,lexical_decision_task_DD_L4,2021.2.3,Win32,59.93766483,,,,,,,,,,,0.7883,1,,,,,,,,,,,,,,m,1,0.7883,,,,,,,,0.302777778,-0.049074074,0,0,0,,0,26,26,12,1,BLOKE,C,old,m,./images/BLOKE.png,,,,,,,,,,,,,,,,,,,,,,,,,,,,,,,,,,,
,,,,,,,,,,,,,,,,,5e38e79295ff561112eae457,36,2022-02-12_15h08.15.494,lexical_decision_task_DD_L4,2021.2.3,Win32,59.93766483,,,,,,,,,,,0.8174,1,,,,,,,,,,,,,,m,1,0.8174,,,,,,,,0.302777778,-0.049074074,0,0,0,,0,27,27,10,1,GARDEN,HB,old,m,./images/GARDENHB.png,,,,,,,,,,,,,,,,,,,,,,,,,,,,,,,,,,,
,,,,,,,,,,,,,,,,,5e38e79295ff561112eae457,36,2022-02-12_15h08.15.494,lexical_decision_task_DD_L4,2021.2.3,Win32,59.93766483,,,,,,,,,,,0.7094,1,,,,,,,,,,,,,,m,1,0.7094,,,,,,,,0.302777778,-0.049074074,0,0,0,,0,28,28,14,1,FENCE,LB,old,m,./images/FENCELB.png,,,,,,,,,,,,,,,,,,,,,,,,,,,,,,,,,,,
,,,,,,,,,,,,,,,,,5e38e79295ff561112eae457,36,2022-02-12_15h08.15.494,lexical_decision_task_DD_L4,2021.2.3,Win32,59.93766483,,,,,,,,,,,0.5821,1,,,,,,,,,,,,,,z,1,0.5821,,,,,,,,0.302777778,-0.049074074,0,0,0,,0,29,29,108,1,GRUET,C,old,z,./images/GRUET.png,,,,,,,,,,,,,,,,,,,,,,,,,,,,,,,,,,,
,,,,,,,,,,,,,,,,,5e38e79295ff561112eae457,36,2022-02-12_15h08.15.494,lexical_decision_task_DD_L4,2021.2.3,Win32,59.93766483,,,,,,,,,,,0.6171,1,,,,,,,,,,,,,,m,1,0.6171,,,,,,,,0.302777778,-0.049074074,0,0,0,,0,30,30,75,1,HAMMER,C,old,m,./images/HAMMER.png,,,,,,,,,,,,,,,,,,,,,,,,,,,,,,,,,,,
,,,,,,,,,,,,,,,,,5e38e79295ff561112eae457,36,2022-02-12_15h08.15.494,lexical_decision_task_DD_L4,2021.2.3,Win32,59.93766483,,,,,,,,,,,0.6411,1,,,,,,,,,,,,,,m,1,0.6411,,,,,,,,0.302777778,-0.049074074,0,0,0,,0,31,31,35,1,LLAMA,LB,old,m,./images/LLAMALB.png,,,,,,,,,,,,,,,,,,,,,,,,,,,,,,,,,,,
,,,,,,,,,,,,,,,,,5e38e79295ff561112eae457,36,2022-02-12_15h08.15.494,lexical_decision_task_DD_L4,2021.2.3,Win32,59.93766483,,,,,,,,,,,1.1806,1,,,,,,,,,,,,,,z,1,1.1806,,,,,,,,0.302777778,-0.049074074,0,0,0,,0,32,32,157,1,INLER,HB,old,z,./images/INLERHB.png,,,,,,,,,,,,,,,,,,,,,,,,,,,,,,,,,,,
,,,,,,,,,,,,,,,,,5e38e79295ff561112eae457,36,2022-02-12_15h08.15.494,lexical_decision_task_DD_L4,2021.2.3,Win32,59.93766483,,,,,,,,,,,1.0259,1,,,,,,,,,,,,,,m,1,1.0259,,,,,,,,0.302777778,-0.049074074,0,0,0,,0,33,33,40,1,SNAKE,HB,old,m,./images/SNAKEHB.png,,,,,,,,,,,,,,,,,,,,,,,,,,,,,,,,,,,
,,,,,,,,,,,,,,,,,5e38e79295ff561112eae457,36,2022-02-12_15h08.15.494,lexical_decision_task_DD_L4,2021.2.3,Win32,59.93766483,,,,,,,,,,,1.3178,1,,,,,,,,,,,,,,z,1,1.3178,,,,,,,,0.302777778,-0.049074074,0,0,0,,0,34,34,127,1,NINDY,HB,old,z,./images/NINDYHB.png,,,,,,,,,,,,,,,,,,,,,,,,,,,,,,,,,,,
,,,,,,,,,,,,,,,,,5e38e79295ff561112eae457,36,2022-02-12_15h08.15.494,lexical_decision_task_DD_L4,2021.2.3,Win32,59.93766483,,,,,,,,,,,0.7338,1,,,,,,,,,,,,,,z,1,0.7338,,,,,,,,0.302777778,-0.049074074,0,0,0,,0,35,35,114,1,RIKES,C,old,z,./images/RIKES.png,,,,,,,,,,,,,,,,,,,,,,,,,,,,,,,,,,,
,,,,,,,,,,,,,,,,,5e38e79295ff561112eae457,36,2022-02-12_15h08.15.494,lexical_decision_task_DD_L4,2021.2.3,Win32,59.93766483,,,,,,,,,,,0.7404,1,,,,,,,,,,,,,,m,1,0.7404,,,,,,,,0.302777778,-0.049074074,0,0,0,,0,36,36,73,1,GLOVE,HB,old,m,./images/GLOVEHB.png,,,,,,,,,,,,,,,,,,,,,,,,,,,,,,,,,,,
,,,,,,,,,,,,,,,,,5e38e79295ff561112eae457,36,2022-02-12_15h08.15.494,lexical_decision_task_DD_L4,2021.2.3,Win32,59.93766483,,,,,,,,,,,0.7477,1,,,,,,,,,,,,,,z,1,0.7477,,,,,,,,0.302777778,-0.049074074,0,0,0,,0,37,37,167,1,ZONET,LB,old,z,./images/ZONETLB.png,,,,,,,,,,,,,,,,,,,,,,,,,,,,,,,,,,,
,,,,,,,,,,,,,,,,,5e38e79295ff561112eae457,36,2022-02-12_15h08.15.494,lexical_decision_task_DD_L4,2021.2.3,Win32,59.93766483,,,,,,,,,,,1.235,1,,,,,,,,,,,,,,z,1,1.235,,,,,,,,0.302777778,-0.049074074,0,0,0,,0,38,38,94,1,BLANS,HB,old,z,./images/BLANSHB.png,,,,,,,,,,,,,,,,,,,,,,,,,,,,,,,,,,,
,,,,,,,,,,,,,,,,,5e38e79295ff561112eae457,36,2022-02-12_15h08.15.494,lexical_decision_task_DD_L4,2021.2.3,Win32,59.93766483,,,,,,,,,,,0.734,1,,,,,,,,,,,,,,m,1,0.734,,,,,,,,0.302777778,-0.049074074,0,0,0,,0,39,39,57,1,FERRY,C,old,m,./images/FERRY.png,,,,,,,,,,,,,,,,,,,,,,,,,,,,,,,,,,,
,,,,,,,,,,,,,,,,,5e38e79295ff561112eae457,36,2022-02-12_15h08.15.494,lexical_decision_task_DD_L4,2021.2.3,Win32,59.93766483,,,,,,,,,,,0.6771,1,,,,,,,,,,,,,,m,1,0.6771,,,,,,,,0.302777778,-0.049074074,0,0,0,,0,40,40,41,1,STREAM,LB,old,m,./images/STREAMLB.png,,,,,,,,,,,,,,,,,,,,,,,,,,,,,,,,,,,
,,,,,,,,,,,,,,,,,5e38e79295ff561112eae457,36,2022-02-12_15h08.15.494,lexical_decision_task_DD_L4,2021.2.3,Win32,59.93766483,,,,,,,,,,,0.8551,1,,,,,,,,,,,,,,m,1,0.8551,,,,,,,,0.302777778,-0.049074074,0,0,0,space,0,41,41,67,1,POKER,HB,old,m,./images/POKERHB.png,11.499,,,,,,,,,,,,,,,,,,,,,,,,,,,,,,,,,,
,,,,,,,,,,,,,,,,,5e38e79295ff561112eae457,36,2022-02-12_15h08.15.494,lexical_decision_task_DD_L4,2021.2.3,Win32,59.93766483,,,,,,,,,,,0.6653,1,,,,,,,,,,,,,,z,1,0.6653,,,,,,,,0.302777778,-0.049074074,0,0,0,,0,42,42,152,1,FRAIN,LB,old,z,./images/FRAINLB.png,,,,,,,,,,,,,,,,,,,,,,,,,,,,,,,,,,,
,,,,,,,,,,,,,,,,,5e38e79295ff561112eae457,36,2022-02-12_15h08.15.494,lexical_decision_task_DD_L4,2021.2.3,Win32,59.93766483,,,,,,,,,,,0.66,1,,,,,,,,,,,,,,z,1,0.66,,,,,,,,0.302777778,-0.049074074,0,0,0,,0,43,43,98,1,BAMPS,LB,old,z,./images/BAMPSLB.png,,,,,,,,,,,,,,,,,,,,,,,,,,,,,,,,,,,
,,,,,,,,,,,,,,,,,5e38e79295ff561112eae457,36,2022-02-12_15h08.15.494,lexical_decision_task_DD_L4,2021.2.3,Win32,59.93766483,,,,,,,,,,,0.5587,1,,,,,,,,,,,,,,m,1,0.5587,,,,,,,,0.302777778,-0.049074074,0,0,0,,0,44,44,24,1,FLESH,C,old,m,./images/FLESH.png,,,,,,,,,,,,,,,,,,,,,,,,,,,,,,,,,,,
,,,,,,,,,,,,,,,,,5e38e79295ff561112eae457,36,2022-02-12_15h08.15.494,lexical_decision_task_DD_L4,2021.2.3,Win32,59.93766483,,,,,,,,,,,0.5097,1,,,,,,,,,,,,,,m,1,0.5097,,,,,,,,0.302777778,-0.049074074,0,0,0,,0,45,45,9,1,DIVER,C,old,m,./images/DIVER.png,,,,,,,,,,,,,,,,,,,,,,,,,,,,,,,,,,,
,,,,,,,,,,,,,,,,,5e38e79295ff561112eae457,36,2022-02-12_15h08.15.494,lexical_decision_task_DD_L4,2021.2.3,Win32,59.93766483,,,,,,,,,,,0.9585,1,,,,,,,,,,,,,,z,1,0.9585,,,,,,,,0.302777778,-0.049074074,0,0,0,,0,46,46,133,1,POWDY,HB,old,z,./images/POWDYHB.png,,,,,,,,,,,,,,,,,,,,,,,,,,,,,,,,,,,
,,,,,,,,,,,,,,,,,5e38e79295ff561112eae457,36,2022-02-12_15h08.15.494,lexical_decision_task_DD_L4,2021.2.3,Win32,59.93766483,,,,,,,,,,,0.6771,1,,,,,,,,,,,,,,z,1,0.6771,,,,,,,,0.302777778,-0.049074074,0,0,0,,0,47,47,149,1,VEASE,LB,old,z,./images/VEASELB.png,,,,,,,,,,,,,,,,,,,,,,,,,,,,,,,,,,,
,,,,,,,,,,,,,,,,,5e38e79295ff561112eae457,36,2022-02-12_15h08.15.494,lexical_decision_task_DD_L4,2021.2.3,Win32,59.93766483,,,,,,,,,,,0.5429,1,,,,,,,,,,,,,,m,1,0.5429,,,,,,,,0.302777778,-0.049074074,0,0,0,,0,48,48,54,1,CHERRY,C,old,m,./images/CHERRY.png,,,,,,,,,,,,,,,,,,,,,,,,,,,,,,,,,,,
,,,,,,,,,,,,,,,,,5e38e79295ff561112eae457,36,2022-02-12_15h08.15.494,lexical_decision_task_DD_L4,2021.2.3,Win32,59.93766483,,,,,,,,,,,0.6626,1,,,,,,,,,,,,,,z,1,0.6626,,,,,,,,0.302777778,-0.049074074,0,0,0,,0,49,49,120,1,RINED,C,old,z,./images/RINED.png,,,,,,,,,,,,,,,,,,,,,,,,,,,,,,,,,,,
,,,,,,,,,,,,,,,,,5e38e79295ff561112eae457,36,2022-02-12_15h08.15.494,lexical_decision_task_DD_L4,2021.2.3,Win32,59.93766483,,,,,,,,,,,0.7293,1,,,,,,,,,,,,,,m,1,0.7293,,,,,,,,0.302777778,-0.049074074,0,0,0,,0,50,50,7,1,WAGON,HB,old,m,./images/WAGONHB.png,,,,,,,,,,,,,,,,,,,,,,,,,,,,,,,,,,,
,,,,,,,,,,,,,,,,,5e38e79295ff561112eae457,36,2022-02-12_15h08.15.494,lexical_decision_task_DD_L4,2021.2.3,Win32,59.93766483,,,,,,,,,,,0.6493,1,,,,,,,,,,,,,,z,1,0.6493,,,,,,,,0.302777778,-0.049074074,0,0,0,,0,51,51,146,1,MOOST,LB,old,z,./images/MOOSTLB.png,,,,,,,,,,,,,,,,,,,,,,,,,,,,,,,,,,,
,,,,,,,,,,,,,,,,,5e38e79295ff561112eae457,36,2022-02-12_15h08.15.494,lexical_decision_task_DD_L4,2021.2.3,Win32,59.93766483,,,,,,,,,,,0.6447,1,,,,,,,,,,,,,,z,1,0.6447,,,,,,,,0.302777778,-0.049074074,0,0,0,,0,52,52,131,1,NACES,LB,old,z,./images/NACESLB.png,,,,,,,,,,,,,,,,,,,,,,,,,,,,,,,,,,,
,,,,,,,,,,,,,,,,,5e38e79295ff561112eae457,36,2022-02-12_15h08.15.494,lexical_decision_task_DD_L4,2021.2.3,Win32,59.93766483,,,,,,,,,,,0.8803,1,,,,,,,,,,,,,,z,1,0.8803,,,,,,,,0.302777778,-0.049074074,0,0,0,,0,53,53,110,1,CRUNK,LB,old,z,./images/CRUNKLB.png,,,,,,,,,,,,,,,,,,,,,,,,,,,,,,,,,,,
,,,,,,,,,,,,,,,,,5e38e79295ff561112eae457,36,2022-02-12_15h08.15.494,lexical_decision_task_DD_L4,2021.2.3,Win32,59.93766483,,,,,,,,,,,0.8505,1,,,,,,,,,,,,,,z,1,0.8505,,,,,,,,0.302777778,-0.049074074,0,0,0,,0,54,54,113,1,LINEW,LB,old,z,./images/LINEWLB.png,,,,,,,,,,,,,,,,,,,,,,,,,,,,,,,,,,,
,,,,,,,,,,,,,,,,,5e38e79295ff561112eae457,36,2022-02-12_15h08.15.494,lexical_decision_task_DD_L4,2021.2.3,Win32,59.93766483,,,,,,,,,,,0.7804,1,,,,,,,,,,,,,,m,1,0.7804,,,,,,,,0.302777778,-0.049074074,0,0,0,,0,55,55,58,1,CANOE,HB,old,m,./images/CANOEHB.png,,,,,,,,,,,,,,,,,,,,,,,,,,,,,,,,,,,
,,,,,,,,,,,,,,,,,5e38e79295ff561112eae457,36,2022-02-12_15h08.15.494,lexical_decision_task_DD_L4,2021.2.3,Win32,59.93766483,,,,,,,,,,,0.6106,1,,,,,,,,,,,,,,m,1,0.6106,,,,,,,,0.302777778,-0.049074074,0,0,0,,0,56,56,5,1,BAMBOO,LB,old,m,./images/BAMBOOLB.png,,,,,,,,,,,,,,,,,,,,,,,,,,,,,,,,,,,
,,,,,,,,,,,,,,,,,5e38e79295ff561112eae457,36,2022-02-12_15h08.15.494,lexical_decision_task_DD_L4,2021.2.3,Win32,59.93766483,,,,,,,,,,,0.7839,1,,,,,,,,,,,,,,m,1,0.7839,,,,,,,,0.302777778,-0.049074074,0,0,0,,0,57,57,59,1,BRUSH,LB,old,m,./images/BRUSHLB.png,,,,,,,,,,,,,,,,,,,,,,,,,,,,,,,,,,,
,,,,,,,,,,,,,,,,,5e38e79295ff561112eae457,36,2022-02-12_15h08.15.494,lexical_decision_task_DD_L4,2021.2.3,Win32,59.93766483,,,,,,,,,,,0.6286,1,,,,,,,,,,,,,,z,1,0.6286,,,,,,,,0.302777778,-0.049074074,0,0,0,,0,58,58,147,1,ZOLES,C,old,z,./images/ZOLES.png,,,,,,,,,,,,,,,,,,,,,,,,,,,,,,,,,,,
,,,,,,,,,,,,,,,,,5e38e79295ff561112eae457,36,2022-02-12_15h08.15.494,lexical_decision_task_DD_L4,2021.2.3,Win32,59.93766483,,,,,,,,,,,0.6008,1,,,,,,,,,,,,,,m,1,0.6008,,,,,,,,0.302777778,-0.049074074,0,0,0,,0,59,59,66,1,STATUE,C,old,m,./images/STATUE.png,,,,,,,,,,,,,,,,,,,,,,,,,,,,,,,,,,,
,,,,,,,,,,,,,,,,,5e38e79295ff561112eae457,36,2022-02-12_15h08.15.494,lexical_decision_task_DD_L4,2021.2.3,Win32,59.93766483,,,,,,,,,,,1.1254,1,,,,,,,,,,,,,,m,1,1.1254,,,,,,,,0.302777778,-0.049074074,0,0,0,,0,60,60,28,1,CASINO,HB,old,m,./images/CASINOHB.png,,,,,,,,,,,,,,,,,,,,,,,,,,,,,,,,,,,
,,,,,,,,,,,,,,,,,5e38e79295ff561112eae457,36,2022-02-12_15h08.15.494,lexical_decision_task_DD_L4,2021.2.3,Win32,59.93766483,,,,,,,,,,,0.6051,1,,,,,,,,,,,,,,m,1,0.6051,,,,,,,,0.302777778,-0.049074074,0,0,0,,0,61,61,0,1,WALNUT,C,old,m,./images/WALNUT.png,,,,,,,,,,,,,,,,,,,,,,,,,,,,,,,,,,,
,,,,,,,,,,,,,,,,,5e38e79295ff561112eae457,36,2022-02-12_15h08.15.494,lexical_decision_task_DD_L4,2021.2.3,Win32,59.93766483,,,,,,,,,,,0.7378,1,,,,,,,,,,,,,,m,1,0.7378,,,,,,,,0.302777778,-0.049074074,0,0,0,,0,62,62,22,1,CLOWN,HB,old,m,./images/CLOWNHB.png,,,,,,,,,,,,,,,,,,,,,,,,,,,,,,,,,,,
,,,,,,,,,,,,,,,,,5e38e79295ff561112eae457,36,2022-02-12_15h08.15.494,lexical_decision_task_DD_L4,2021.2.3,Win32,59.93766483,,,,,,,,,,,1.2011,1,,,,,,,,,,,,,,z,1,1.2011,,,,,,,,0.302777778,-0.049074074,0,0,0,,0,63,63,136,1,WERVE,HB,old,z,./images/WERVEHB.png,,,,,,,,,,,,,,,,,,,,,,,,,,,,,,,,,,,
,,,,,,,,,,,,,,,,,5e38e79295ff561112eae457,36,2022-02-12_15h08.15.494,lexical_decision_task_DD_L4,2021.2.3,Win32,59.93766483,,,,,,,,,,,0.6936,1,,,,,,,,,,,,,,z,1,0.6936,,,,,,,,0.302777778,-0.049074074,0,0,0,,0,64,64,102,1,DULLE,C,old,z,./images/DULLE.png,,,,,,,,,,,,,,,,,,,,,,,,,,,,,,,,,,,
,,,,,,,,,,,,,,,,,5e38e79295ff561112eae457,36,2022-02-12_15h08.15.494,lexical_decision_task_DD_L4,2021.2.3,Win32,59.93766483,,,,,,,,,,,0.5748,1,,,,,,,,,,,,,,m,1,0.5748,,,,,,,,0.302777778,-0.049074074,0,0,0,,0,65,65,83,1,WHISKY,LB,old,m,./images/WHISKYLB.png,,,,,,,,,,,,,,,,,,,,,,,,,,,,,,,,,,,
,,,,,,,,,,,,,,,,,5e38e79295ff561112eae457,36,2022-02-12_15h08.15.494,lexical_decision_task_DD_L4,2021.2.3,Win32,59.93766483,,,,,,,,,,,0.6209,1,,,,,,,,,,,,,,m,1,0.6209,,,,,,,,0.302777778,-0.049074074,0,0,0,,0,66,66,15,1,COLLAR,C,old,m,./images/COLLAR.png,,,,,,,,,,,,,,,,,,,,,,,,,,,,,,,,,,,
,,,,,,,,,,,,,,,,,5e38e79295ff561112eae457,36,2022-02-12_15h08.15.494,lexical_decision_task_DD_L4,2021.2.3,Win32,59.93766483,,,,,,,,,,,0.8809,1,,,,,,,,,,,,,,z,1,0.8809,,,,,,,,0.302777778,-0.049074074,0,0,0,,0,67,67,121,1,CEERS,HB,old,z,./images/CEERSHB.png,,,,,,,,,,,,,,,,,,,,,,,,,,,,,,,,,,,
,,,,,,,,,,,,,,,,,5e38e79295ff561112eae457,36,2022-02-12_15h08.15.494,lexical_decision_task_DD_L4,2021.2.3,Win32,59.93766483,,,,,,,,,,,0.6335,1,,,,,,,,,,,,,,z,1,0.6335,,,,,,,,0.302777778,-0.049074074,0,0,0,,0,68,68,162,1,LEICH,C,old,z,./images/LEICH.png,,,,,,,,,,,,,,,,,,,,,,,,,,,,,,,,,,,
,,,,,,,,,,,,,,,,,5e38e79295ff561112eae457,36,2022-02-12_15h08.15.494,lexical_decision_task_DD_L4,2021.2.3,Win32,59.93766483,,,,,,,,,,,0.775,1,,,,,,,,,,,,,,z,1,0.775,,,,,,,,0.302777778,-0.049074074,0,0,0,,0,69,69,99,1,BACKY,C,old,z,./images/BACKY.png,,,,,,,,,,,,,,,,,,,,,,,,,,,,,,,,,,,
,,,,,,,,,,,,,,,,,5e38e79295ff561112eae457,36,2022-02-12_15h08.15.494,lexical_decision_task_DD_L4,2021.2.3,Win32,59.93766483,,,,,,,,,,,0.6771,1,,,,,,,,,,,,,,z,1,0.6771,,,,,,,,0.302777778,-0.049074074,0,0,0,,0,70,70,95,1,HANTY,LB,old,z,./images/HANTYLB.png,,,,,,,,,,,,,,,,,,,,,,,,,,,,,,,,,,,
,,,,,,,,,,,,,,,,,5e38e79295ff561112eae457,36,2022-02-12_15h08.15.494,lexical_decision_task_DD_L4,2021.2.3,Win32,59.93766483,,,,,,,,,,,0.711,1,,,,,,,,,,,,,,m,1,0.711,,,,,,,,0.302777778,-0.049074074,0,0,0,,0,71,71,19,1,DONKEY,HB,old,m,./images/DONKEYHB.png,,,,,,,,,,,,,,,,,,,,,,,,,,,,,,,,,,,
,,,,,,,,,,,,,,,,,5e38e79295ff561112eae457,36,2022-02-12_15h08.15.494,lexical_decision_task_DD_L4,2021.2.3,Win32,59.93766483,,,,,,,,,,,0.6838,1,,,,,,,,,,,,,,z,1,0.6838,,,,,,,,0.302777778,-0.049074074,0,0,0,,0,72,72,160,1,VEETS,HB,old,z,./images/VEETSHB.png,,,,,,,,,,,,,,,,,,,,,,,,,,,,,,,,,,,
,,,,,,,,,,,,,,,,,5e38e79295ff561112eae457,36,2022-02-12_15h08.15.494,lexical_decision_task_DD_L4,2021.2.3,Win32,59.93766483,,,,,,,,,,,0.5858,1,,,,,,,,,,,,,,z,1,0.5858,,,,,,,,0.302777778,-0.049074074,0,0,0,,0,73,73,117,1,STEEG,C,old,z,./images/STEEG.png,,,,,,,,,,,,,,,,,,,,,,,,,,,,,,,,,,,
,,,,,,,,,,,,,,,,,5e38e79295ff561112eae457,36,2022-02-12_15h08.15.494,lexical_decision_task_DD_L4,2021.2.3,Win32,59.93766483,,,,,,,,,,,0.6233,1,,,,,,,,,,,,,,z,1,0.6233,,,,,,,,0.302777778,-0.049074074,0,0,0,,0,74,74,161,1,BLAPS,LB,old,z,./images/BLAPSLB.png,,,,,,,,,,,,,,,,,,,,,,,,,,,,,,,,,,,
,,,,,,,,,,,,,,,,,5e38e79295ff561112eae457,36,2022-02-12_15h08.15.494,lexical_decision_task_DD_L4,2021.2.3,Win32,59.93766483,,,,,,,,,,,0.5953,1,,,,,,,,,,,,,,m,1,0.5953,,,,,,,,0.302777778,-0.049074074,0,0,0,,0,75,75,71,1,BUBBLE,LB,old,m,./images/BUBBLELB.png,,,,,,,,,,,,,,,,,,,,,,,,,,,,,,,,,,,
,,,,,,,,,,,,,,,,,5e38e79295ff561112eae457,36,2022-02-12_15h08.15.494,lexical_decision_task_DD_L4,2021.2.3,Win32,59.93766483,,,,,,,,,,,0.609,1,,,,,,,,,,,,,,m,1,0.609,,,,,,,,0.302777778,-0.049074074,0,0,0,,0,76,76,21,1,DANCER,C,old,m,./images/DANCER.png,,,,,,,,,,,,,,,,,,,,,,,,,,,,,,,,,,,
,,,,,,,,,,,,,,,,,5e38e79295ff561112eae457,36,2022-02-12_15h08.15.494,lexical_decision_task_DD_L4,2021.2.3,Win32,59.93766483,,,,,,,,,,,0.7256,1,,,,,,,,,,,,,,m,1,0.7256,,,,,,,,0.302777778,-0.049074074,0,0,0,,0,77,77,82,1,PEBBLE,HB,old,m,./images/PEBBLEHB.png,,,,,,,,,,,,,,,,,,,,,,,,,,,,,,,,,,,
,,,,,,,,,,,,,,,,,5e38e79295ff561112eae457,36,2022-02-12_15h08.15.494,lexical_decision_task_DD_L4,2021.2.3,Win32,59.93766483,,,,,,,,,,,0.5415,1,,,,,,,,,,,,,,m,1,0.5415,,,,,,,,0.302777778,-0.049074074,0,0,0,,0,78,78,50,1,PILOT,LB,old,m,./images/PILOTLB.png,,,,,,,,,,,,,,,,,,,,,,,,,,,,,,,,,,,
,,,,,,,,,,,,,,,,,5e38e79295ff561112eae457,36,2022-02-12_15h08.15.494,lexical_decision_task_DD_L4,2021.2.3,Win32,59.93766483,,,,,,,,,,,0.6371,1,,,,,,,,,,,,,,m,1,0.6371,,,,,,,,0.302777778,-0.049074074,0,0,0,,0,79,79,1,1,TOWEL,HB,old,m,./images/TOWELHB.png,,,,,,,,,,,,,,,,,,,,,,,,,,,,,,,,,,,
,,,,,,,,,,,,,,,,,5e38e79295ff561112eae457,36,2022-02-12_15h08.15.494,lexical_decision_task_DD_L4,2021.2.3,Win32,59.93766483,,,,,,,,,,,0.5606,1,,,,,,,,,,,,,,m,1,0.5606,,,,,,,,0.302777778,-0.049074074,0,0,0,,0,80,80,2,1,STOVE,LB,old,m,./images/STOVELB.png,,,,,,,,,,,,,,,,,,,,,,,,,,,,,,,,,,,
,,,,,,,,,,,,,,,,,5e38e79295ff561112eae457,36,2022-02-12_15h08.15.494,lexical_decision_task_DD_L4,2021.2.3,Win32,59.93766483,,,,,,,,,,,0.5754,1,,,,,,,,,,,,,,m,1,0.5754,,,,,,,,0.302777778,-0.049074074,0,0,0,,0,81,81,48,1,SHIELD,C,old,m,./images/SHIELD.png,,,,,,,,,,,,,,,,,,,,,,,,,,,,,,,,,,,
,,,,,,,,,,,,,,,,,5e38e79295ff561112eae457,36,2022-02-12_15h08.15.494,lexical_decision_task_DD_L4,2021.2.3,Win32,59.93766483,,,,,,,,,,,0.5417,1,,,,,,,,,,,,,,m,1,0.5417,,,,,,,,0.302777778,-0.049074074,0,0,0,,0,82,82,62,1,MAMMAL,LB,old,m,./images/MAMMALLB.png,,,,,,,,,,,,,,,,,,,,,,,,,,,,,,,,,,,
,,,,,,,,,,,,,,,,,5e38e79295ff561112eae457,36,2022-02-12_15h08.15.494,lexical_decision_task_DD_L4,2021.2.3,Win32,59.93766483,,,,,,,,,,,0.949,1,,,,,,,,,,,,,,z,1,0.949,,,,,,,,0.302777778,-0.049074074,0,0,0,space,0,83,83,106,1,CLUMS,HB,old,z,./images/CLUMSHB.png,16.0931,,,,,,,,,,,,,,,,,,,,,,,,,,,,,,,,,,
,,,,,,,,,,,,,,,,,5e38e79295ff561112eae457,36,2022-02-12_15h08.15.494,lexical_decision_task_DD_L4,2021.2.3,Win32,59.93766483,,,,,,,,,,,0.617,1,,,,,,,,,,,,,,m,1,0.617,,,,,,,,0.302777778,-0.049074074,0,0,0,,0,84,84,20,1,GRANNY,LB,old,m,./images/GRANNYLB.png,,,,,,,,,,,,,,,,,,,,,,,,,,,,,,,,,,,
,,,,,,,,,,,,,,,,,5e38e79295ff561112eae457,36,2022-02-12_15h08.15.494,lexical_decision_task_DD_L4,2021.2.3,Win32,59.93766483,,,,,,,,,,,0.7885,1,,,,,,,,,,,,,,z,1,0.7885,,,,,,,,0.302777778,-0.049074074,0,0,0,,0,85,85,103,1,FLORT,HB,old,z,./images/FLORTHB.png,,,,,,,,,,,,,,,,,,,,,,,,,,,,,,,,,,,
,,,,,,,,,,,,,,,,,5e38e79295ff561112eae457,36,2022-02-12_15h08.15.494,lexical_decision_task_DD_L4,2021.2.3,Win32,59.93766483,,,,,,,,,,,0.6258,1,,,,,,,,,,,,,,m,1,0.6258,,,,,,,,0.302777778,-0.049074074,0,0,0,,0,86,86,18,1,PARCEL,C,old,m,./images/PARCEL.png,,,,,,,,,,,,,,,,,,,,,,,,,,,,,,,,,,,
,,,,,,,,,,,,,,,,,5e38e79295ff561112eae457,36,2022-02-12_15h08.15.494,lexical_decision_task_DD_L4,2021.2.3,Win32,59.93766483,,,,,,,,,,,0.766,1,,,,,,,,,,,,,,m,1,0.766,,,,,,,,0.302777778,-0.049074074,0,0,0,,0,87,87,46,1,MUMMY,HB,old,m,./images/MUMMYHB.png,,,,,,,,,,,,,,,,,,,,,,,,,,,,,,,,,,,
,,,,,,,,,,,,,,,,,5e38e79295ff561112eae457,36,2022-02-12_15h08.15.494,lexical_decision_task_DD_L4,2021.2.3,Win32,59.93766483,,,,,,,,,,,0.6168,1,,,,,,,,,,,,,,z,1,0.6168,,,,,,,,0.302777778,-0.049074074,0,0,0,,0,88,88,104,1,GITTY,LB,old,z,./images/GITTYLB.png,,,,,,,,,,,,,,,,,,,,,,,,,,,,,,,,,,,
,,,,,,,,,,,,,,,,,5e38e79295ff561112eae457,36,2022-02-12_15h08.15.494,lexical_decision_task_DD_L4,2021.2.3,Win32,59.93766483,,,,,,,,,,,0.9935,1,,,,,,,,,,,,,,z,1,0.9935,,,,,,,,0.302777778,-0.049074074,0,0,0,,0,89,89,109,1,BURGE,HB,old,z,./images/BURGEHB.png,,,,,,,,,,,,,,,,,,,,,,,,,,,,,,,,,,,
,,,,,,,,,,,,,,,,,5e38e79295ff561112eae457,36,2022-02-12_15h08.15.494,lexical_decision_task_DD_L4,2021.2.3,Win32,59.93766483,,,,,,,,,,,1.1983,1,,,,,,,,,,,,,,z,1,1.1983,,,,,,,,0.302777778,-0.049074074,0,0,0,,0,90,90,166,1,SHORY,HB,old,z,./images/SHORYHB.png,,,,,,,,,,,,,,,,,,,,,,,,,,,,,,,,,,,
,,,,,,,,,,,,,,,,,5e38e79295ff561112eae457,36,2022-02-12_15h08.15.494,lexical_decision_task_DD_L4,2021.2.3,Win32,59.93766483,,,,,,,,,,,0.9233,1,,,,,,,,,,,,,,z,1,0.9233,,,,,,,,0.302777778,-0.049074074,0,0,0,,0,91,91,165,1,TROWN,C,old,z,./images/TROWN.png,,,,,,,,,,,,,,,,,,,,,,,,,,,,,,,,,,,
,,,,,,,,,,,,,,,,,5e38e79295ff561112eae457,36,2022-02-12_15h08.15.494,lexical_decision_task_DD_L4,2021.2.3,Win32,59.93766483,,,,,,,,,,,0.627,1,,,,,,,,,,,,,,z,1,0.627,,,,,,,,0.302777778,-0.049074074,0,0,0,,0,92,92,87,1,TRING,C,old,z,./images/TRING.png,,,,,,,,,,,,,,,,,,,,,,,,,,,,,,,,,,,
,,,,,,,,,,,,,,,,,5e38e79295ff561112eae457,36,2022-02-12_15h08.15.494,lexical_decision_task_DD_L4,2021.2.3,Win32,59.93766483,,,,,,,,,,,0.6231,1,,,,,,,,,,,,,,m,1,0.6231,,,,,,,,0.302777778,-0.049074074,0,0,0,,0,93,93,23,1,CLOTH,LB,old,m,./images/CLOTHLB.png,,,,,,,,,,,,,,,,,,,,,,,,,,,,,,,,,,,
,,,,,,,,,,,,,,,,,5e38e79295ff561112eae457,36,2022-02-12_15h08.15.494,lexical_decision_task_DD_L4,2021.2.3,Win32,59.93766483,,,,,,,,,,,0.6837,1,,,,,,,,,,,,,,z,1,0.6837,,,,,,,,0.302777778,-0.049074074,0,0,0,,0,94,94,123,1,SEDGE,C,old,z,./images/SEDGE.png,,,,,,,,,,,,,,,,,,,,,,,,,,,,,,,,,,,
,,,,,,,,,,,,,,,,,5e38e79295ff561112eae457,36,2022-02-12_15h08.15.494,lexical_decision_task_DD_L4,2021.2.3,Win32,59.93766483,,,,,,,,,,,1.0366,1,,,,,,,,,,,,,,z,1,1.0366,,,,,,,,0.302777778,-0.049074074,0,0,0,,0,95,95,139,1,BLEAR,HB,old,z,./images/BLEARHB.png,,,,,,,,,,,,,,,,,,,,,,,,,,,,,,,,,,,
,,,,,,,,,,,,,,,,,5e38e79295ff561112eae457,36,2022-02-12_15h08.15.494,lexical_decision_task_DD_L4,2021.2.3,Win32,59.93766483,,,,,,,,,,,0.6797,1,,,,,,,,,,,,,,m,1,0.6797,,,,,,,,0.302777778,-0.049074074,0,0,0,,0,96,96,29,1,PISTOL,LB,old,m,./images/PISTOLLB.png,,,,,,,,,,,,,,,,,,,,,,,,,,,,,,,,,,,
,,,,,,,,,,,,,,,,,5e38e79295ff561112eae457,36,2022-02-12_15h08.15.494,lexical_decision_task_DD_L4,2021.2.3,Win32,59.93766483,,,,,,,,,,,0.7218,1,,,,,,,,,,,,,,m,1,0.7218,,,,,,,,0.302777778,-0.049074074,0,0,0,,0,97,97,55,1,ALLEY,HB,old,m,./images/ALLEYHB.png,,,,,,,,,,,,,,,,,,,,,,,,,,,,,,,,,,,
,,,,,,,,,,,,,,,,,5e38e79295ff561112eae457,36,2022-02-12_15h08.15.494,lexical_decision_task_DD_L4,2021.2.3,Win32,59.93766483,,,,,,,,,,,1.5059,1,,,,,,,,,,,,,,m,1,1.5059,,,,,,,,0.302777778,-0.049074074,0,0,0,,0,98,98,4,1,BOXER,HB,old,m,./images/BOXERHB.png,,,,,,,,,,,,,,,,,,,,,,,,,,,,,,,,,,,
,,,,,,,,,,,,,,,,,5e38e79295ff561112eae457,36,2022-02-12_15h08.15.494,lexical_decision_task_DD_L4,2021.2.3,Win32,59.93766483,,,,,,,,,,,0.8339,1,,,,,,,,,,,,,,z,1,0.8339,,,,,,,,0.302777778,-0.049074074,0,0,0,,0,99,99,124,1,TUNCH,HB,old,z,./images/TUNCHHB.png,,,,,,,,,,,,,,,,,,,,,,,,,,,,,,,,,,,
,,,,,,,,,,,,,,,,,5e38e79295ff561112eae457,36,2022-02-12_15h08.15.494,lexical_decision_task_DD_L4,2021.2.3,Win32,59.93766483,,,,,,,,,,,0.6456,1,,,,,,,,,,,,,,m,1,0.6456,,,,,,,,0.302777778,-0.049074074,0,0,0,,0,100,100,78,1,BROOM,C,old,m,./images/BROOM.png,,,,,,,,,,,,,,,,,,,,,,,,,,,,,,,,,,,
,,,,,,,,,,,,,,,,,5e38e79295ff561112eae457,36,2022-02-12_15h08.15.494,lexical_decision_task_DD_L4,2021.2.3,Win32,59.93766483,,,,,,,,,,,0.6004,1,,,,,,,,,,,,,,z,1,0.6004,,,,,,,,0.302777778,-0.049074074,0,0,0,,0,101,101,138,1,PLICE,C,old,z,./images/PLICE.png,,,,,,,,,,,,,,,,,,,,,,,,,,,,,,,,,,,
,,,,,,,,,,,,,,,,,5e38e79295ff561112eae457,36,2022-02-12_15h08.15.494,lexical_decision_task_DD_L4,2021.2.3,Win32,59.93766483,,,,,,,,,,,0.4944,1,,,,,,,,,,,,,,m,1,0.4944,,,,,,,,0.302777778,-0.049074074,0,0,0,,0,102,102,42,1,CHAIN,C,old,m,./images/CHAIN.png,,,,,,,,,,,,,,,,,,,,,,,,,,,,,,,,,,,
,,,,,,,,,,,,,,,,,5e38e79295ff561112eae457,36,2022-02-12_15h08.15.494,lexical_decision_task_DD_L4,2021.2.3,Win32,59.93766483,,,,,,,,,,,0.52,1,,,,,,,,,,,,,,m,1,0.52,,,,,,,,0.302777778,-0.049074074,0,0,0,,0,103,103,38,1,ENGINE,LB,old,m,./images/ENGINELB.png,,,,,,,,,,,,,,,,,,,,,,,,,,,,,,,,,,,
,,,,,,,,,,,,,,,,,5e38e79295ff561112eae457,36,2022-02-12_15h08.15.494,lexical_decision_task_DD_L4,2021.2.3,Win32,59.93766483,,,,,,,,,,,0.667,1,,,,,,,,,,,,,,m,1,0.667,,,,,,,,0.302777778,-0.049074074,0,0,0,,0,104,104,32,1,HOCKEY,LB,old,m,./images/HOCKEYLB.png,,,,,,,,,,,,,,,,,,,,,,,,,,,,,,,,,,,
,,,,,,,,,,,,,,,,,5e38e79295ff561112eae457,36,2022-02-12_15h08.15.494,lexical_decision_task_DD_L4,2021.2.3,Win32,59.93766483,,,,,,,,,,,0.8505,1,,,,,,,,,,,,,,m,1,0.8505,,,,,,,,0.302777778,-0.049074074,0,0,0,,0,105,105,52,1,DESERT,HB,old,m,./images/DESERTHB.png,,,,,,,,,,,,,,,,,,,,,,,,,,,,,,,,,,,
,,,,,,,,,,,,,,,,,5e38e79295ff561112eae457,36,2022-02-12_15h08.15.494,lexical_decision_task_DD_L4,2021.2.3,Win32,59.93766483,,,,,,,,,,,0.7182,1,,,,,,,,,,,,,,m,1,0.7182,,,,,,,,0.302777778,-0.049074074,0,0,0,,0,106,106,49,1,BISHOP,HB,old,m,./images/BISHOPHB.png,,,,,,,,,,,,,,,,,,,,,,,,,,,,,,,,,,,
,,,,,,,,,,,,,,,,,5e38e79295ff561112eae457,36,2022-02-12_15h08.15.494,lexical_decision_task_DD_L4,2021.2.3,Win32,59.93766483,,,,,,,,,,,0.5182,1,,,,,,,,,,,,,,z,1,0.5182,,,,,,,,0.302777778,-0.049074074,0,0,0,,0,107,107,132,1,SCIFF,C,old,z,./images/SCIFF.png,,,,,,,,,,,,,,,,,,,,,,,,,,,,,,,,,,,
,,,,,,,,,,,,,,,,,5e38e79295ff561112eae457,36,2022-02-12_15h08.15.494,lexical_decision_task_DD_L4,2021.2.3,Win32,59.93766483,,,,,,,,,,,0.7265,1,,,,,,,,,,,,,,z,1,0.7265,,,,,,,,0.302777778,-0.049074074,0,0,0,,0,108,108,89,1,DRIEK,LB,old,z,./images/DRIEKLB.png,,,,,,,,,,,,,,,,,,,,,,,,,,,,,,,,,,,
,,,,,,,,,,,,,,,,,5e38e79295ff561112eae457,36,2022-02-12_15h08.15.494,lexical_decision_task_DD_L4,2021.2.3,Win32,59.93766483,,,,,,,,,,,0.7585,1,,,,,,,,,,,,,,m,1,0.7585,,,,,,,,0.302777778,-0.049074074,0,0,0,,0,109,109,33,1,SAUNA,C,old,m,./images/SAUNA.png,,,,,,,,,,,,,,,,,,,,,,,,,,,,,,,,,,,
,,,,,,,,,,,,,,,,,5e38e79295ff561112eae457,36,2022-02-12_15h08.15.494,lexical_decision_task_DD_L4,2021.2.3,Win32,59.93766483,,,,,,,,,,,0.629,1,,,,,,,,,,,,,,m,1,0.629,,,,,,,,0.302777778,-0.049074074,0,0,0,,0,110,110,47,1,LAGOON,LB,old,m,./images/LAGOONLB.png,,,,,,,,,,,,,,,,,,,,,,,,,,,,,,,,,,,
,,,,,,,,,,,,,,,,,5e38e79295ff561112eae457,36,2022-02-12_15h08.15.494,lexical_decision_task_DD_L4,2021.2.3,Win32,59.93766483,,,,,,,,,,,0.6654,1,,,,,,,,,,,,,,z,1,0.6654,,,,,,,,0.302777778,-0.049074074,0,0,0,,0,111,111,125,1,MOOKY,LB,old,z,./images/MOOKYLB.png,,,,,,,,,,,,,,,,,,,,,,,,,,,,,,,,,,,
,,,,,,,,,,,,,,,,,5e38e79295ff561112eae457,36,2022-02-12_15h08.15.494,lexical_decision_task_DD_L4,2021.2.3,Win32,59.93766483,,,,,,,,,,,0.684,1,,,,,,,,,,,,,,z,1,0.684,,,,,,,,0.302777778,-0.049074074,0,0,0,,0,112,112,155,1,CANGY,LB,old,z,./images/CANGYLB.png,,,,,,,,,,,,,,,,,,,,,,,,,,,,,,,,,,,
,,,,,,,,,,,,,,,,,5e38e79295ff561112eae457,36,2022-02-12_15h08.15.494,lexical_decision_task_DD_L4,2021.2.3,Win32,59.93766483,,,,,,,,,,,0.9012,1,,,,,,,,,,,,,,z,1,0.9012,,,,,,,,0.302777778,-0.049074074,0,0,0,,0,113,113,100,1,DRIBS,HB,old,z,./images/DRIBSHB.png,,,,,,,,,,,,,,,,,,,,,,,,,,,,,,,,,,,
,,,,,,,,,,,,,,,,,5e38e79295ff561112eae457,36,2022-02-12_15h08.15.494,lexical_decision_task_DD_L4,2021.2.3,Win32,59.93766483,,,,,,,,,,,0.6058,1,,,,,,,,,,,,,,z,1,0.6058,,,,,,,,0.302777778,-0.049074074,0,0,0,,0,114,114,84,1,HAXES,C,old,z,./images/HAXES.png,,,,,,,,,,,,,,,,,,,,,,,,,,,,,,,,,,,
,,,,,,,,,,,,,,,,,5e38e79295ff561112eae457,36,2022-02-12_15h08.15.494,lexical_decision_task_DD_L4,2021.2.3,Win32,59.93766483,,,,,,,,,,,0.6346,1,,,,,,,,,,,,,,m,1,0.6346,,,,,,,,0.302777778,-0.049074074,0,0,0,,0,115,115,56,1,HEATER,LB,old,m,./images/HEATERLB.png,,,,,,,,,,,,,,,,,,,,,,,,,,,,,,,,,,,
,,,,,,,,,,,,,,,,,5e38e79295ff561112eae457,36,2022-02-12_15h08.15.494,lexical_decision_task_DD_L4,2021.2.3,Win32,59.93766483,,,,,,,,,,,0.5503,1,,,,,,,,,,,,,,m,1,0.5503,,,,,,,,0.302777778,-0.049074074,0,0,0,,0,116,116,3,1,CRATER,C,old,m,./images/CRATER.png,,,,,,,,,,,,,,,,,,,,,,,,,,,,,,,,,,,
,,,,,,,,,,,,,,,,,5e38e79295ff561112eae457,36,2022-02-12_15h08.15.494,lexical_decision_task_DD_L4,2021.2.3,Win32,59.93766483,,,,,,,,,,,0.581,1,,,,,,,,,,,,,,z,1,0.581,,,,,,,,0.302777778,-0.049074074,0,0,0,,0,117,117,153,1,CLUPS,C,old,z,./images/CLUPS.png,,,,,,,,,,,,,,,,,,,,,,,,,,,,,,,,,,,
,,,,,,,,,,,,,,,,,5e38e79295ff561112eae457,36,2022-02-12_15h08.15.494,lexical_decision_task_DD_L4,2021.2.3,Win32,59.93766483,,,,,,,,,,,0.603,1,,,,,,,,,,,,,,m,1,0.603,,,,,,,,0.302777778,-0.049074074,0,0,0,,0,118,118,53,1,POSTER,LB,old,m,./images/POSTERLB.png,,,,,,,,,,,,,,,,,,,,,,,,,,,,,,,,,,,
,,,,,,,,,,,,,,,,,5e38e79295ff561112eae457,36,2022-02-12_15h08.15.494,lexical_decision_task_DD_L4,2021.2.3,Win32,59.93766483,,,,,,,,,,,0.717,1,,,,,,,,,,,,,,m,1,0.717,,,,,,,,0.302777778,-0.049074074,0,0,0,,0,119,119,13,1,BUNNY,HB,old,m,./images/BUNNYHB.png,,,,,,,,,,,,,,,,,,,,,,,,,,,,,,,,,,,
,,,,,,,,,,,,,,,,,5e38e79295ff561112eae457,36,2022-02-12_15h08.15.494,lexical_decision_task_DD_L4,2021.2.3,Win32,59.93766483,,,,,,,,,,,0.8004,1,,,,,,,,,,,,,,z,1,0.8004,,,,,,,,0.302777778,-0.049074074,0,0,0,,0,120,120,163,1,GAMBA,HB,old,z,./images/GAMBAHB.png,,,,,,,,,,,,,,,,,,,,,,,,,,,,,,,,,,,
,,,,,,,,,,,,,,,,,5e38e79295ff561112eae457,36,2022-02-12_15h08.15.494,lexical_decision_task_DD_L4,2021.2.3,Win32,59.93766483,,,,,,,,,,,0.5169,1,,,,,,,,,,,,,,m,1,0.5169,,,,,,,,0.302777778,-0.049074074,0,0,0,,0,121,121,69,1,ARROW,C,old,m,./images/ARROW.png,,,,,,,,,,,,,,,,,,,,,,,,,,,,,,,,,,,
,,,,,,,,,,,,,,,,,5e38e79295ff561112eae457,36,2022-02-12_15h08.15.494,lexical_decision_task_DD_L4,2021.2.3,Win32,59.93766483,,,,,,,,,,,0.5099,1,,,,,,,,,,,,,,z,1,0.5099,,,,,,,,0.302777778,-0.049074074,0,0,0,,0,122,122,150,1,NOOLS,C,old,z,./images/NOOLS.png,,,,,,,,,,,,,,,,,,,,,,,,,,,,,,,,,,,
,,,,,,,,,,,,,,,,,5e38e79295ff561112eae457,36,2022-02-12_15h08.15.494,lexical_decision_task_DD_L4,2021.2.3,Win32,59.93766483,,,,,,,,,,,0.551,1,,,,,,,,,,,,,,z,1,0.551,,,,,,,,0.302777778,-0.049074074,0,0,0,,0,123,123,134,1,TROSS,LB,old,z,./images/TROSSLB.png,,,,,,,,,,,,,,,,,,,,,,,,,,,,,,,,,,,
,,,,,,,,,,,,,,,,,5e38e79295ff561112eae457,36,2022-02-12_15h08.15.494,lexical_decision_task_DD_L4,2021.2.3,Win32,59.93766483,,,,,,,,,,,0.5177,1,,,,,,,,,,,,,,z,1,0.5177,,,,,,,,0.302777778,-0.049074074,0,0,0,,0,124,124,96,1,KEAMS,C,old,z,./images/KEAMS.png,,,,,,,,,,,,,,,,,,,,,,,,,,,,,,,,,,,
,,,,,,,,,,,,,,,,,5e38e79295ff561112eae457,36,2022-02-12_15h08.15.494,lexical_decision_task_DD_L4,2021.2.3,Win32,59.93766483,,,,,,,,,,,0.6219,1,,,,,,,,,,,,,,z,1,0.6219,,,,,,,,0.302777778,-0.049074074,0,0,0,space,0,125,125,164,1,SGREW,LB,old,z,./images/SGREWLB.png,18.9949,,,,,,,,,,,,,,,,,,,,,,,,,,,,,,,,,,
,,,,,,,,,,,,,,,,,5e38e79295ff561112eae457,36,2022-02-12_15h08.15.494,lexical_decision_task_DD_L4,2021.2.3,Win32,59.93766483,,,,,,,,,,,0.5906,1,,,,,,,,,,,,,,m,1,0.5906,,,,,,,,0.302777778,-0.049074074,0,0,0,,0,126,126,26,1,CLOUD,LB,old,m,./images/CLOUDLB.png,,,,,,,,,,,,,,,,,,,,,,,,,,,,,,,,,,,
,,,,,,,,,,,,,,,,,5e38e79295ff561112eae457,36,2022-02-12_15h08.15.494,lexical_decision_task_DD_L4,2021.2.3,Win32,59.93766483,,,,,,,,,,,0.6121,1,,,,,,,,,,,,,,z,1,0.6121,,,,,,,,0.302777778,-0.049074074,0,0,0,,0,127,127,105,1,MOKER,C,old,z,./images/MOKER.png,,,,,,,,,,,,,,,,,,,,,,,,,,,,,,,,,,,
,,,,,,,,,,,,,,,,,5e38e79295ff561112eae457,36,2022-02-12_15h08.15.494,lexical_decision_task_DD_L4,2021.2.3,Win32,59.93766483,,,,,,,,,,,0.7929,0,,,,,,,,,,,,,,m,0,0.7929,,,,,,,,0.302777778,-0.049074074,0,0,0,,0,128,128,128,1,GRIFT,LB,old,z,./images/GRIFTLB.png,,,,,,,,,,,,,,,,,,,,,,,,,,,,,,,,,,,
,,,,,,,,,,,,,,,,,5e38e79295ff561112eae457,36,2022-02-12_15h08.15.494,lexical_decision_task_DD_L4,2021.2.3,Win32,59.93766483,,,,,,,,,,,0.5582,1,,,,,,,,,,,,,,m,1,0.5582,,,,,,,,0.302777778,-0.049074074,0,0,0,,0,129,129,51,1,SAUCE,C,old,m,./images/SAUCE.png,,,,,,,,,,,,,,,,,,,,,,,,,,,,,,,,,,,
,,,,,,,,,,,,,,,,,5e38e79295ff561112eae457,36,2022-02-12_15h08.15.494,lexical_decision_task_DD_L4,2021.2.3,Win32,59.93766483,,,,,,,,,,,0.677,1,,,,,,,,,,,,,,z,1,0.677,,,,,,,,0.302777778,-0.049074074,0,0,0,,0,130,130,85,1,CHULK,HB,old,z,./images/CHULKHB.png,,,,,,,,,,,,,,,,,,,,,,,,,,,,,,,,,,,
,,,,,,,,,,,,,,,,,5e38e79295ff561112eae457,36,2022-02-12_15h08.15.494,lexical_decision_task_DD_L4,2021.2.3,Win32,59.93766483,,,,,,,,,,,0.5837,1,,,,,,,,,,,,,,z,1,0.5837,,,,,,,,0.302777778,-0.049074074,0,0,0,,0,131,131,137,1,JOOST,LB,old,z,./images/JOOSTLB.png,,,,,,,,,,,,,,,,,,,,,,,,,,,,,,,,,,,
,,,,,,,,,,,,,,,,,5e38e79295ff561112eae457,36,2022-02-12_15h08.15.494,lexical_decision_task_DD_L4,2021.2.3,Win32,59.93766483,,,,,,,,,,,0.5965,1,,,,,,,,,,,,,,m,1,0.5965,,,,,,,,0.302777778,-0.049074074,0,0,0,,0,132,132,65,1,SPINE,LB,old,m,./images/SPINELB.png,,,,,,,,,,,,,,,,,,,,,,,,,,,,,,,,,,,
,,,,,,,,,,,,,,,,,5e38e79295ff561112eae457,36,2022-02-12_15h08.15.494,lexical_decision_task_DD_L4,2021.2.3,Win32,59.93766483,,,,,,,,,,,0.5141,1,,,,,,,,,,,,,,m,1,0.5141,,,,,,,,0.302777778,-0.049074074,0,0,0,,0,133,133,77,1,WHEEL,LB,old,m,./images/WHEELLB.png,,,,,,,,,,,,,,,,,,,,,,,,,,,,,,,,,,,
,,,,,,,,,,,,,,,,,5e38e79295ff561112eae457,36,2022-02-12_15h08.15.494,lexical_decision_task_DD_L4,2021.2.3,Win32,59.93766483,,,,,,,,,,,0.6268,1,,,,,,,,,,,,,,z,1,0.6268,,,,,,,,0.302777778,-0.049074074,0,0,0,,0,134,134,86,1,AIFED,LB,old,z,./images/AIFEDLB.png,,,,,,,,,,,,,,,,,,,,,,,,,,,,,,,,,,,
,,,,,,,,,,,,,,,,,5e38e79295ff561112eae457,36,2022-02-12_15h08.15.494,lexical_decision_task_DD_L4,2021.2.3,Win32,59.93766483,,,,,,,,,,,0.495,1,,,,,,,,,,,,,,m,1,0.495,,,,,,,,0.302777778,-0.049074074,0,0,0,,0,135,135,39,1,CANDY,C,old,m,./images/CANDY.png,,,,,,,,,,,,,,,,,,,,,,,,,,,,,,,,,,,
,,,,,,,,,,,,,,,,,5e38e79295ff561112eae457,36,2022-02-12_15h08.15.494,lexical_decision_task_DD_L4,2021.2.3,Win32,59.93766483,,,,,,,,,,,0.5286,1,,,,,,,,,,,,,,z,1,0.5286,,,,,,,,0.302777778,-0.049074074,0,0,0,,0,136,136,144,1,NAIRY,C,old,z,./images/NAIRY.png,,,,,,,,,,,,,,,,,,,,,,,,,,,,,,,,,,,
,,,,,,,,,,,,,,,,,5e38e79295ff561112eae457,36,2022-02-12_15h08.15.494,lexical_decision_task_DD_L4,2021.2.3,Win32,59.93766483,,,,,,,,,,,0.737,1,,,,,,,,,,,,,,m,1,0.737,,,,,,,,0.302777778,-0.049074074,0,0,0,,0,137,137,25,1,CHALK,HB,old,m,./images/CHALKHB.png,,,,,,,,,,,,,,,,,,,,,,,,,,,,,,,,,,,
,,,,,,,,,,,,,,,,,5e38e79295ff561112eae457,36,2022-02-12_15h08.15.494,lexical_decision_task_DD_L4,2021.2.3,Win32,59.93766483,,,,,,,,,,,0.5681,1,,,,,,,,,,,,,,m,1,0.5681,,,,,,,,0.302777778,-0.049074074,0,0,0,,0,138,138,63,1,BAKER,C,old,m,./images/BAKER.png,,,,,,,,,,,,,,,,,,,,,,,,,,,,,,,,,,,
,,,,,,,,,,,,,,,,,5e38e79295ff561112eae457,36,2022-02-12_15h08.15.494,lexical_decision_task_DD_L4,2021.2.3,Win32,59.93766483,,,,,,,,,,,0.7343,0,,,,,,,,,,,,,,z,0,0.7343,,,,,,,,0.302777778,-0.049074074,0,0,0,,0,139,139,43,1,STOOL,HB,old,m,./images/STOOLHB.png,,,,,,,,,,,,,,,,,,,,,,,,,,,,,,,,,,,
,,,,,,,,,,,,,,,,,5e38e79295ff561112eae457,36,2022-02-12_15h08.15.494,lexical_decision_task_DD_L4,2021.2.3,Win32,59.93766483,,,,,,,,,,,0.5897,1,,,,,,,,,,,,,,z,1,0.5897,,,,,,,,0.302777778,-0.049074074,0,0,0,,0,140,140,135,1,JOODY,C,old,z,./images/JOODY.png,,,,,,,,,,,,,,,,,,,,,,,,,,,,,,,,,,,
,,,,,,,,,,,,,,,,,5e38e79295ff561112eae457,36,2022-02-12_15h08.15.494,lexical_decision_task_DD_L4,2021.2.3,Win32,59.93766483,,,,,,,,,,,1.0111,1,,,,,,,,,,,,,,z,1,1.0111,,,,,,,,0.302777778,-0.049074074,0,0,0,,0,141,141,97,1,CHIDS,HB,old,z,./images/CHIDSHB.png,,,,,,,,,,,,,,,,,,,,,,,,,,,,,,,,,,,
,,,,,,,,,,,,,,,,,5e38e79295ff561112eae457,36,2022-02-12_15h08.15.494,lexical_decision_task_DD_L4,2021.2.3,Win32,59.93766483,,,,,,,,,,,0.5354,1,,,,,,,,,,,,,,z,1,0.5354,,,,,,,,0.302777778,-0.049074074,0,0,0,,0,142,142,111,1,HOSSE,C,old,z,./images/HOSSE.png,,,,,,,,,,,,,,,,,,,,,,,,,,,,,,,,,,,
,,,,,,,,,,,,,,,,,5e38e79295ff561112eae457,36,2022-02-12_15h08.15.494,lexical_decision_task_DD_L4,2021.2.3,Win32,59.93766483,,,,,,,,,,,0.6311,1,,,,,,,,,,,,,,m,1,0.6311,,,,,,,,0.302777778,-0.049074074,0,0,0,,0,143,143,36,1,BOILER,C,old,m,./images/BOILER.png,,,,,,,,,,,,,,,,,,,,,,,,,,,,,,,,,,,
,,,,,,,,,,,,,,,,,5e38e79295ff561112eae457,36,2022-02-12_15h08.15.494,lexical_decision_task_DD_L4,2021.2.3,Win32,59.93766483,,,,,,,,,,,0.5552,1,,,,,,,,,,,,,,z,1,0.5552,,,,,,,,0.302777778,-0.049074074,0,0,0,,0,144,144,122,1,BLOOT,LB,old,z,./images/BLOOTLB.png,,,,,,,,,,,,,,,,,,,,,,,,,,,,,,,,,,,
,,,,,,,,,,,,,,,,,5e38e79295ff561112eae457,36,2022-02-12_15h08.15.494,lexical_decision_task_DD_L4,2021.2.3,Win32,59.93766483,,,,,,,,,,,0.5776,1,,,,,,,,,,,,,,z,1,0.5776,,,,,,,,0.302777778,-0.049074074,0,0,0,,0,145,145,156,1,HIXES,C,old,z,./images/HIXES.png,,,,,,,,,,,,,,,,,,,,,,,,,,,,,,,,,,,
,,,,,,,,,,,,,,,,,5e38e79295ff561112eae457,36,2022-02-12_15h08.15.494,lexical_decision_task_DD_L4,2021.2.3,Win32,59.93766483,,,,,,,,,,,0.7521,0,,,,,,,,,,,,,,m,0,0.7521,,,,,,,,0.302777778,-0.049074074,0,0,0,,0,146,146,142,1,PLASK,HB,old,z,./images/PLASKHB.png,,,,,,,,,,,,,,,,,,,,,,,,,,,,,,,,,,,
,,,,,,,,,,,,,,,,,5e38e79295ff561112eae457,36,2022-02-12_15h08.15.494,lexical_decision_task_DD_L4,2021.2.3,Win32,59.93766483,,,,,,,,,,,0.6387,1,,,,,,,,,,,,,,z,1,0.6387,,,,,,,,0.302777778,-0.049074074,0,0,0,,0,147,147,158,1,EGECT,LB,old,z,./images/EGECTLB.png,,,,,,,,,,,,,,,,,,,,,,,,,,,,,,,,,,,
,,,,,,,,,,,,,,,,,5e38e79295ff561112eae457,36,2022-02-12_15h08.15.494,lexical_decision_task_DD_L4,2021.2.3,Win32,59.93766483,,,,,,,,,,,0.6982,1,,,,,,,,,,,,,,z,1,0.6982,,,,,,,,0.302777778,-0.049074074,0,0,0,,0,148,148,88,1,GLUSH,HB,old,z,./images/GLUSHHB.png,,,,,,,,,,,,,,,,,,,,,,,,,,,,,,,,,,,
,,,,,,,,,,,,,,,,,5e38e79295ff561112eae457,36,2022-02-12_15h08.15.494,lexical_decision_task_DD_L4,2021.2.3,Win32,59.93766483,,,,,,,,,,,0.5478,1,,,,,,,,,,,,,,m,1,0.5478,,,,,,,,0.302777778,-0.049074074,0,0,0,,0,149,149,17,1,PARADE,LB,old,m,./images/PARADELB.png,,,,,,,,,,,,,,,,,,,,,,,,,,,,,,,,,,,
,,,,,,,,,,,,,,,,,5e38e79295ff561112eae457,36,2022-02-12_15h08.15.494,lexical_decision_task_DD_L4,2021.2.3,Win32,59.93766483,,,,,,,,,,,0.5791,1,,,,,,,,,,,,,,z,1,0.5791,,,,,,,,0.302777778,-0.049074074,0,0,0,,0,150,150,159,1,CUDDY,C,old,z,./images/CUDDY.png,,,,,,,,,,,,,,,,,,,,,,,,,,,,,,,,,,,
,,,,,,,,,,,,,,,,,5e38e79295ff561112eae457,36,2022-02-12_15h08.15.494,lexical_decision_task_DD_L4,2021.2.3,Win32,59.93766483,,,,,,,,,,,0.8972,1,,,,,,,,,,,,,,z,1,0.8972,,,,,,,,0.302777778,-0.049074074,0,0,0,,0,151,151,118,1,BAVEL,HB,old,z,./images/BAVELHB.png,,,,,,,,,,,,,,,,,,,,,,,,,,,,,,,,,,,
,,,,,,,,,,,,,,,,,5e38e79295ff561112eae457,36,2022-02-12_15h08.15.494,lexical_decision_task_DD_L4,2021.2.3,Win32,59.93766483,,,,,,,,,,,0.6344,1,,,,,,,,,,,,,,m,1,0.6344,,,,,,,,0.302777778,-0.049074074,0,0,0,,0,152,152,74,1,JUMPER,LB,old,m,./images/JUMPERLB.png,,,,,,,,,,,,,,,,,,,,,,,,,,,,,,,,,,,
,,,,,,,,,,,,,,,,,5e38e79295ff561112eae457,36,2022-02-12_15h08.15.494,lexical_decision_task_DD_L4,2021.2.3,Win32,59.93766483,,,,,,,,,,,0.8618,1,,,,,,,,,,,,,,z,1,0.8618,,,,,,,,0.302777778,-0.049074074,0,0,0,,0,153,153,115,1,MAWNS,HB,old,z,./images/MAWNSHB.png,,,,,,,,,,,,,,,,,,,,,,,,,,,,,,,,,,,
,,,,,,,,,,,,,,,,,5e38e79295ff561112eae457,36,2022-02-12_15h08.15.494,lexical_decision_task_DD_L4,2021.2.3,Win32,59.93766483,,,,,,,,,,,0.617,1,,,,,,,,,,,,,,m,1,0.617,,,,,,,,0.302777778,-0.049074074,0,0,0,,0,154,154,61,1,ARTIST,HB,old,m,./images/ARTISTHB.png,,,,,,,,,,,,,,,,,,,,,,,,,,,,,,,,,,,
,,,,,,,,,,,,,,,,,5e38e79295ff561112eae457,36,2022-02-12_15h08.15.494,lexical_decision_task_DD_L4,2021.2.3,Win32,59.93766483,,,,,,,,,,,0.9407,1,,,,,,,,,,,,,,z,1,0.9407,,,,,,,,0.302777778,-0.049074074,0,0,0,,0,155,155,151,1,TINKY,HB,old,z,./images/TINKYHB.png,,,,,,,,,,,,,,,,,,,,,,,,,,,,,,,,,,,
,,,,,,,,,,,,,,,,,5e38e79295ff561112eae457,36,2022-02-12_15h08.15.494,lexical_decision_task_DD_L4,2021.2.3,Win32,59.93766483,,,,,,,,,,,0.7476,1,,,,,,,,,,,,,,z,1,0.7476,,,,,,,,0.302777778,-0.049074074,0,0,0,,0,156,156,107,1,FASKS,LB,old,z,./images/FASKSLB.png,,,,,,,,,,,,,,,,,,,,,,,,,,,,,,,,,,,
,,,,,,,,,,,,,,,,,5e38e79295ff561112eae457,36,2022-02-12_15h08.15.494,lexical_decision_task_DD_L4,2021.2.3,Win32,59.93766483,,,,,,,,,,,0.523,1,,,,,,,,,,,,,,m,1,0.523,,,,,,,,0.302777778,-0.049074074,0,0,0,,0,157,157,80,1,PLANET,LB,old,m,./images/PLANETLB.png,,,,,,,,,,,,,,,,,,,,,,,,,,,,,,,,,,,
,,,,,,,,,,,,,,,,,5e38e79295ff561112eae457,36,2022-02-12_15h08.15.494,lexical_decision_task_DD_L4,2021.2.3,Win32,59.93766483,,,,,,,,,,,0.6271,1,,,,,,,,,,,,,,z,1,0.6271,,,,,,,,0.302777778,-0.049074074,0,0,0,,0,158,158,92,1,PAIMS,LB,old,z,./images/PAIMSLB.png,,,,,,,,,,,,,,,,,,,,,,,,,,,,,,,,,,,
,,,,,,,,,,,,,,,,,5e38e79295ff561112eae457,36,2022-02-12_15h08.15.494,lexical_decision_task_DD_L4,2021.2.3,Win32,59.93766483,,,,,,,,,,,0.6232,1,,,,,,,,,,,,,,m,1,0.6232,,,,,,,,0.302777778,-0.049074074,0,0,0,,0,159,159,81,1,DRILL,C,old,m,./images/DRILL.png,,,,,,,,,,,,,,,,,,,,,,,,,,,,,,,,,,,
,,,,,,,,,,,,,,,,,5e38e79295ff561112eae457,36,2022-02-12_15h08.15.494,lexical_decision_task_DD_L4,2021.2.3,Win32,59.93766483,,,,,,,,,,,0.5873,1,,,,,,,,,,,,,,z,1,0.5873,,,,,,,,0.302777778,-0.049074074,0,0,0,,0,160,160,119,1,PAFER,LB,old,z,./images/PAFERLB.png,,,,,,,,,,,,,,,,,,,,,,,,,,,,,,,,,,,
,,,,,,,,,,,,,,,,,5e38e79295ff561112eae457,36,2022-02-12_15h08.15.494,lexical_decision_task_DD_L4,2021.2.3,Win32,59.93766483,,,,,,,,,,,0.569,1,,,,,,,,,,,,,,z,1,0.569,,,,,,,,0.302777778,-0.049074074,0,0,0,,0,161,161,90,1,NEAST,C,old,z,./images/NEAST.png,,,,,,,,,,,,,,,,,,,,,,,,,,,,,,,,,,,
,,,,,,,,,,,,,,,,,5e38e79295ff561112eae457,36,2022-02-12_15h08.15.494,lexical_decision_task_DD_L4,2021.2.3,Win32,59.93766483,,,,,,,,,,,0.7909,1,,,,,,,,,,,,,,z,1,0.7909,,,,,,,,0.302777778,-0.049074074,0,0,0,,0,162,162,112,1,MYING,HB,old,z,./images/MYINGHB.png,,,,,,,,,,,,,,,,,,,,,,,,,,,,,,,,,,,
,,,,,,,,,,,,,,,,,5e38e79295ff561112eae457,36,2022-02-12_15h08.15.494,lexical_decision_task_DD_L4,2021.2.3,Win32,59.93766483,,,,,,,,,,,0.5563,1,,,,,,,,,,,,,,m,1,0.5563,,,,,,,,0.302777778,-0.049074074,0,0,0,,0,163,163,68,1,VALLEY,LB,old,m,./images/VALLEYLB.png,,,,,,,,,,,,,,,,,,,,,,,,,,,,,,,,,,,
,,,,,,,,,,,,,,,,,5e38e79295ff561112eae457,36,2022-02-12_15h08.15.494,lexical_decision_task_DD_L4,2021.2.3,Win32,59.93766483,,,,,,,,,,,0.5951,1,,,,,,,,,,,,,,m,1,0.5951,,,,,,,,0.302777778,-0.049074074,0,0,0,,0,164,164,60,1,CURRY,C,old,m,./images/CURRY.png,,,,,,,,,,,,,,,,,,,,,,,,,,,,,,,,,,,
,,,,,,,,,,,,,,,,,5e38e79295ff561112eae457,36,2022-02-12_15h08.15.494,lexical_decision_task_DD_L4,2021.2.3,Win32,59.93766483,,,,,,,,,,,0.7925,1,,,,,,,,,,,,,,z,1,0.7925,,,,,,,,0.302777778,-0.049074074,0,0,0,,0,165,165,154,1,THINT,HB,old,z,./images/THINTHB.png,,,,,,,,,,,,,,,,,,,,,,,,,,,,,,,,,,,
,,,,,,,,,,,,,,,,,5e38e79295ff561112eae457,36,2022-02-12_15h08.15.494,lexical_decision_task_DD_L4,2021.2.3,Win32,59.93766483,,,,,,,,,,,0.5899,1,,,,,,,,,,,,,,m,1,0.5899,,,,,,,,0.302777778,-0.049074074,0,0,0,,0,166,166,45,1,MONKEY,C,old,m,./images/MONKEY.png,,,,,,,,,,,,,,,,,,,,,,,,,,,,,,,,,,,
,,,,,,,,,,,,,,,,,5e38e79295ff561112eae457,36,2022-02-12_15h08.15.494,lexical_decision_task_DD_L4,2021.2.3,Win32,59.93766483,,,,,,,,,,,0.6356,1,,,,,,,,,,,,,,z,1,0.6356,,,,,,,,0.302777778,-0.049074074,0,0,0,,0,167,167,140,1,DOVET,LB,old,z,./images/DOVETLB.png,,,,,,,,,,,,,,,,,,,,,,,,,,,,,,,,,,,
,,,,,,,,,,,,,,,,,5e38e79295ff561112eae457,36,2022-02-12_15h08.15.494,lexical_decision_task_DD_L4,2021.2.3,Win32,59.93766483,,,,,,,,,,,,,,,,,,,,,,,,,,,,,,,,,,,,,,,,,,,,,,,,How likely will it be that you will recognize the words presented very blurred on a scale of 0 (not likely) to 100 (most likely)?,,,,,0.025,-0.423148148,1,0,0,jol_adv,2,14.9059,0,0,0,2,1,,,,,,,,,,,,,,,,,,,,,
,,,,,,,,,,,,,,,,,5e38e79295ff561112eae457,36,2022-02-12_15h08.15.494,lexical_decision_task_DD_L4,2021.2.3,Win32,59.93766483,,,,,,,,,,,,,,,,,,,,,,,,,,,,,,,,,,,,,,,,,,,,,,,,How likely will it be that you will recognize the words presented clearly on a scale of 0 (not likely) to 100 (most likely)?,,,,,,,,,,,6,4.0929,0,1,1,0,1,,,,,,,,,,,,,,,,,,,,,
,,,,,,,,,,,,,,,,,5e38e79295ff561112eae457,36,2022-02-12_15h08.15.494,lexical_decision_task_DD_L4,2021.2.3,Win32,59.93766483,,,,,,,,,,,,,,,,,,,,,,,,,,,,,,,,,,,,,,,,,,,,,,,,How likely will it be that you will recognize the words presented slighly blurred on a scale of 0 (not likely) to 100 (most likely)?,,,,,,,,,,,6,6.3387,0,2,2,1,1,,,,,,,,,,,,,,,,,,,,,
,,0.071296296,-0.377777778,1,0,0,,,,,,1,test,"In the next phase you will be presented with the words from the the first phase. Your job is to decide whether you remember seeing the word or not. If you remember seeing the word press ""old"" or type ""m"". If you do not remember seeing the word press ""new"" or type ""z"". Please press the space bar or click on continue to begin. ",,,5e38e79295ff561112eae457,36,2022-02-12_15h08.15.494,lexical_decision_task_DD_L4,2021.2.3,Win32,59.93766483,,,,,,,,,,,,,,,,,,,,,,,,,,,,,,,,,,,,,,,,,,,,,,,,,,,,,,,,,,,,,,,,,,instr_done_button,0,0,0,0,1,,,,,,,,,,,,,,,
,,0.062962963,-0.39537037,1,0,0,,,,,,1,test,"In the next phase you will be presented with the words from the the first phase. Your job is to decide whether you remember seeing the word or not. If you remember seeing the word press ""old"" or type ""m"". If you do not remember seeing the word press ""new"" or type ""z"". Please press the space bar or click on continue to begin. ",,,5e38e79295ff561112eae457,36,2022-02-12_15h08.15.494,lexical_decision_task_DD_L4,2021.2.3,Win32,59.93766483,,,,,,,,,,,,,,,,,,,,,,,,,,,,,,,,,,,,,,,,,,,,,,,,,,,,,,,,,,,,,,,,,,instr_done_button,1,0,1,0,1,,,,,,,,,,,,,,,
,,0.002777778,-0.397222222,1,0,0,,,,,,1,test,"In the next phase you will be presented with the words from the the first phase. Your job is to decide whether you remember seeing the word or not. If you remember seeing the word press ""old"" or type ""m"". If you do not remember seeing the word press ""new"" or type ""z"". Please press the space bar or click on continue to begin. ",,,5e38e79295ff561112eae457,36,2022-02-12_15h08.15.494,lexical_decision_task_DD_L4,2021.2.3,Win32,59.93766483,,,,,,,,,,,,,,,,,,,,,,,,,,,,,,,,,,,,,,,,,,,,,,,,,,,,,,,,,,,,,,,,,,instr_done_button,2,0,2,0,1,,,,,,,,,,,,,,,
space,7.2952,0.840740741,-0.217592593,0,0,0,,,,,,1,test,"In the next phase you will be presented with the words from the the first phase. Your job is to decide whether you remember seeing the word or not. If you remember seeing the word press ""old"" or type ""m"". If you do not remember seeing the word press ""new"" or type ""z"". Please press the space bar or click on continue to begin. ",,,5e38e79295ff561112eae457,36,2022-02-12_15h08.15.494,lexical_decision_task_DD_L4,2021.2.3,Win32,59.93766483,,,,,,,,,,,,,,,,,,,,,,,,,,,,,,,,,,,,,,,,,,,,,,,,,,,,,,,,,,,,,,,,,,,3,0,3,0,1,,,,,,,,,,,,,,,
space,2.3233,0.840740741,-0.217592593,0,0,0,,,,,,1,test,"In the next phase you will be presented with the words from the the first phase. Your job is to decide whether you remember seeing the word or not. If you remember seeing the word press ""old"" or type ""m"". If you do not remember seeing the word press ""new"" or type ""z"". Please press the space bar or click on continue to begin. ",,,5e38e79295ff561112eae457,36,2022-02-12_15h08.15.494,lexical_decision_task_DD_L4,2021.2.3,Win32,59.93766483,,,,,,,,,,,,,,,,,,,,,,,,,,,,,,,,,,,,,,,,,,,,,,,,,,,,,,,,,,,,,,,,,,,4,0,4,0,1,,,,,,,,,,,,,,,
,,,,,,,,,,,,,,,,,5e38e79295ff561112eae457,36,2022-02-12_15h08.15.494,lexical_decision_task_DD_L4,2021.2.3,Win32,59.93766483,,,,,,,,,,,1.1617,1,,,,,,,,,,,,,,,,,,,,,,,,0.840740741,-0.217592593,0,0,0,,,,,,,STEAK,HB,m,y,./images/STEAKHB.png,,,,,,,,,,,,,,,,,,,,,m,1,1.1617,,,,,,,,0,0,0,31,1
,,,,,,,,,,,,,,,,,5e38e79295ff561112eae457,36,2022-02-12_15h08.15.494,lexical_decision_task_DD_L4,2021.2.3,Win32,59.93766483,,,,,,,,,,,0.7037,1,,,,,,,,,,,,,,,,,,,,,,,,0.840740741,-0.217592593,0,0,0,,,,,,,LAGOON,LB,m,y,./images/LAGOONLB.png,,,,,,,,,,,,,,,,,,,,,m,1,0.7037,,,,,,,,0,1,1,47,1
,,,,,,,,,,,,,,,,,5e38e79295ff561112eae457,36,2022-02-12_15h08.15.494,lexical_decision_task_DD_L4,2021.2.3,Win32,59.93766483,,,,,,,,,,,0.6805,1,,,,,,,,,,,,,,,,,,,,,,,,0.840740741,-0.217592593,0,0,0,,,,,,,SAUNA,C,m,y,./images/SAUNA.png,,,,,,,,,,,,,,,,,,,,,m,1,0.6805,,,,,,,,0,2,2,33,1
,,,,,,,,,,,,,,,,,5e38e79295ff561112eae457,36,2022-02-12_15h08.15.494,lexical_decision_task_DD_L4,2021.2.3,Win32,59.93766483,,,,,,,,,,,0.7625,1,,,,,,,,,,,,,,,,,,,,,,,,0.840740741,-0.217592593,0,0,0,,,,,,,TORCH,LB,z,y,./images/TORCHLB.png,,,,,,,,,,,,,,,,,,,,,z,1,0.7625,,,,,,,,0,3,3,152,1
,,,,,,,,,,,,,,,,,5e38e79295ff561112eae457,36,2022-02-12_15h08.15.494,lexical_decision_task_DD_L4,2021.2.3,Win32,59.93766483,,,,,,,,,,,0.8891,0,,,,,,,,,,,,,,,,,,,,,,,,0.840740741,-0.217592593,0,0,0,,,,,,,MALLET,LB,z,y,./images/MALLETLB.png,,,,,,,,,,,,,,,,,,,,,m,0,0.8891,,,,,,,,0,4,4,134,1
,,,,,,,,,,,,,,,,,5e38e79295ff561112eae457,36,2022-02-12_15h08.15.494,lexical_decision_task_DD_L4,2021.2.3,Win32,59.93766483,,,,,,,,,,,0.6673,1,,,,,,,,,,,,,,,,,,,,,,,,0.840740741,-0.217592593,0,0,0,,,,,,,WALRUS,LB,z,y,./images/WALRUSLB.png,,,,,,,,,,,,,,,,,,,,,z,1,0.6673,,,,,,,,0,5,5,107,1
,,,,,,,,,,,,,,,,,5e38e79295ff561112eae457,36,2022-02-12_15h08.15.494,lexical_decision_task_DD_L4,2021.2.3,Win32,59.93766483,,,,,,,,,,,0.7647,1,,,,,,,,,,,,,,,,,,,,,,,,0.840740741,-0.217592593,0,0,0,,,,,,,BANNER,HB,z,y,./images/BANNERHB.png,,,,,,,,,,,,,,,,,,,,,z,1,0.7647,,,,,,,,0,6,6,136,1
,,,,,,,,,,,,,,,,,5e38e79295ff561112eae457,36,2022-02-12_15h08.15.494,lexical_decision_task_DD_L4,2021.2.3,Win32,59.93766483,,,,,,,,,,,0.611,1,,,,,,,,,,,,,,,,,,,,,,,,0.840740741,-0.217592593,0,0,0,,,,,,,STRING,LB,z,y,./images/STRINGLB.png,,,,,,,,,,,,,,,,,,,,,z,1,0.611,,,,,,,,0,7,7,125,1
,,,,,,,,,,,,,,,,,5e38e79295ff561112eae457,36,2022-02-12_15h08.15.494,lexical_decision_task_DD_L4,2021.2.3,Win32,59.93766483,,,,,,,,,,,0.856,1,,,,,,,,,,,,,,,,,,,,,,,,0.840740741,-0.217592593,0,0,0,,,,,,,SCREW,C,z,y,./images/SCREW.png,,,,,,,,,,,,,,,,,,,,,z,1,0.856,,,,,,,,0,8,8,108,1
,,,,,,,,,,,,,,,,,5e38e79295ff561112eae457,36,2022-02-12_15h08.15.494,lexical_decision_task_DD_L4,2021.2.3,Win32,59.93766483,,,,,,,,,,,0.6745,1,,,,,,,,,,,,,,,,,,,,,,,,0.840740741,-0.217592593,0,0,0,,,,,,,FERRY,C,m,y,./images/FERRY.png,,,,,,,,,,,,,,,,,,,,,m,1,0.6745,,,,,,,,0,9,9,57,1
,,,,,,,,,,,,,,,,,5e38e79295ff561112eae457,36,2022-02-12_15h08.15.494,lexical_decision_task_DD_L4,2021.2.3,Win32,59.93766483,,,,,,,,,,,0.6285,1,,,,,,,,,,,,,,,,,,,,,,,,0.840740741,-0.217592593,0,0,0,,,,,,,MUSCLE,HB,z,y,./images/MUSCLEHB.png,,,,,,,,,,,,,,,,,,,,,z,1,0.6285,,,,,,,,0,10,10,88,1
,,,,,,,,,,,,,,,,,5e38e79295ff561112eae457,36,2022-02-12_15h08.15.494,lexical_decision_task_DD_L4,2021.2.3,Win32,59.93766483,,,,,,,,,,,0.6246,1,,,,,,,,,,,,,,,,,,,,,,,,0.840740741,-0.217592593,0,0,0,,,,,,,CEMENT,LB,z,y,./images/CEMENTLB.png,,,,,,,,,,,,,,,,,,,,,z,1,0.6246,,,,,,,,0,11,11,158,1
,,,,,,,,,,,,,,,,,5e38e79295ff561112eae457,36,2022-02-12_15h08.15.494,lexical_decision_task_DD_L4,2021.2.3,Win32,59.93766483,,,,,,,,,,,0.605,1,,,,,,,,,,,,,,,,,,,,,,,,0.840740741,-0.217592593,0,0,0,,,,,,,RULER,HB,m,y,./images/RULERHB.png,,,,,,,,,,,,,,,,,,,,,m,1,0.605,,,,,,,,0,12,12,79,1
,,,,,,,,,,,,,,,,,5e38e79295ff561112eae457,36,2022-02-12_15h08.15.494,lexical_decision_task_DD_L4,2021.2.3,Win32,59.93766483,,,,,,,,,,,0.8256,1,,,,,,,,,,,,,,,,,,,,,,,,0.840740741,-0.217592593,0,0,0,,,,,,,CARPET,LB,z,y,./images/CARPETLB.png,,,,,,,,,,,,,,,,,,,,,z,1,0.8256,,,,,,,,0,13,13,137,1
,,,,,,,,,,,,,,,,,5e38e79295ff561112eae457,36,2022-02-12_15h08.15.494,lexical_decision_task_DD_L4,2021.2.3,Win32,59.93766483,,,,,,,,,,,0.6507,1,,,,,,,,,,,,,,,,,,,,,,,,0.840740741,-0.217592593,0,0,0,,,,,,,BUTTER,C,m,y,./images/BUTTER.png,,,,,,,,,,,,,,,,,,,,,m,1,0.6507,,,,,,,,0,14,14,27,1
,,,,,,,,,,,,,,,,,5e38e79295ff561112eae457,36,2022-02-12_15h08.15.494,lexical_decision_task_DD_L4,2021.2.3,Win32,59.93766483,,,,,,,,,,,0.5369,1,,,,,,,,,,,,,,,,,,,,,,,,0.840740741,-0.217592593,0,0,0,,,,,,,FENCE,LB,m,y,./images/FENCELB.png,,,,,,,,,,,,,,,,,,,,,m,1,0.5369,,,,,,,,0,15,15,14,1
,,,,,,,,,,,,,,,,,5e38e79295ff561112eae457,36,2022-02-12_15h08.15.494,lexical_decision_task_DD_L4,2021.2.3,Win32,59.93766483,,,,,,,,,,,0.6725,1,,,,,,,,,,,,,,,,,,,,,,,,0.840740741,-0.217592593,0,0,0,,,,,,,SHELF,C,z,y,./images/SHELF.png,,,,,,,,,,,,,,,,,,,,,z,1,0.6725,,,,,,,,0,16,16,123,1
,,,,,,,,,,,,,,,,,5e38e79295ff561112eae457,36,2022-02-12_15h08.15.494,lexical_decision_task_DD_L4,2021.2.3,Win32,59.93766483,,,,,,,,,,,0.8025,0,,,,,,,,,,,,,,,,,,,,,,,,0.840740741,-0.217592593,0,0,0,,,,,,,BONNET,LB,z,y,./images/BONNETLB.png,,,,,,,,,,,,,,,,,,,,,m,0,0.8025,,,,,,,,0,17,17,95,1
,,,,,,,,,,,,,,,,,5e38e79295ff561112eae457,36,2022-02-12_15h08.15.494,lexical_decision_task_DD_L4,2021.2.3,Win32,59.93766483,,,,,,,,,,,0.5592,1,,,,,,,,,,,,,,,,,,,,,,,,0.840740741,-0.217592593,0,0,0,,,,,,,MONKEY,C,m,y,./images/MONKEY.png,,,,,,,,,,,,,,,,,,,,,m,1,0.5592,,,,,,,,0,18,18,45,1
,,,,,,,,,,,,,,,,,5e38e79295ff561112eae457,36,2022-02-12_15h08.15.494,lexical_decision_task_DD_L4,2021.2.3,Win32,59.93766483,,,,,,,,,,,0.6059,1,,,,,,,,,,,,,,,,,,,,,,,,0.840740741,-0.217592593,0,0,0,,,,,,,SAILOR,HB,z,y,./images/SAILORHB.png,,,,,,,,,,,,,,,,,,,,,z,1,0.6059,,,,,,,,0,19,19,151,1
,,,,,,,,,,,,,,,,,5e38e79295ff561112eae457,36,2022-02-12_15h08.15.494,lexical_decision_task_DD_L4,2021.2.3,Win32,59.93766483,,,,,,,,,,,0.7227,1,,,,,,,,,,,,,,,,,,,,,,,,0.840740741,-0.217592593,0,0,0,,,,,,,ONION,C,z,y,./images/ONION.png,,,,,,,,,,,,,,,,,,,,,z,1,0.7227,,,,,,,,0,20,20,135,1
,,,,,,,,,,,,,,,,,5e38e79295ff561112eae457,36,2022-02-12_15h08.15.494,lexical_decision_task_DD_L4,2021.2.3,Win32,59.93766483,,,,,,,,,,,0.6026,1,,,,,,,,,,,,,,,,,,,,,,,,0.840740741,-0.217592593,0,0,0,,,,,,,JUMPER,LB,m,y,./images/JUMPERLB.png,,,,,,,,,,,,,,,,,,,,,m,1,0.6026,,,,,,,,0,21,21,74,1
,,,,,,,,,,,,,,,,,5e38e79295ff561112eae457,36,2022-02-12_15h08.15.494,lexical_decision_task_DD_L4,2021.2.3,Win32,59.93766483,,,,,,,,,,,0.5115,1,,,,,,,,,,,,,,,,,,,,,,,,0.840740741,-0.217592593,0,0,0,,,,,,,COLLAR,C,m,y,./images/COLLAR.png,,,,,,,,,,,,,,,,,,,,,m,1,0.5115,,,,,,,,0,22,22,15,1
,,,,,,,,,,,,,,,,,5e38e79295ff561112eae457,36,2022-02-12_15h08.15.494,lexical_decision_task_DD_L4,2021.2.3,Win32,59.93766483,,,,,,,,,,,0.7444,0,,,,,,,,,,,,,,,,,,,,,,,,0.840740741,-0.217592593,0,0,0,,,,,,,LADDER,LB,z,y,./images/LADDERLB.png,,,,,,,,,,,,,,,,,,,,,m,0,0.7444,,,,,,,,0,23,23,122,1
,,,,,,,,,,,,,,,,,5e38e79295ff561112eae457,36,2022-02-12_15h08.15.494,lexical_decision_task_DD_L4,2021.2.3,Win32,59.93766483,,,,,,,,,,,0.5439,1,,,,,,,,,,,,,,,,,,,,,,,,0.840740741,-0.217592593,0,0,0,,,,,,,MAMMAL,LB,m,y,./images/MAMMALLB.png,,,,,,,,,,,,,,,,,,,,,m,1,0.5439,,,,,,,,0,24,24,62,1
,,,,,,,,,,,,,,,,,5e38e79295ff561112eae457,36,2022-02-12_15h08.15.494,lexical_decision_task_DD_L4,2021.2.3,Win32,59.93766483,,,,,,,,,,,0.6072,1,,,,,,,,,,,,,,,,,,,,,,,,0.840740741,-0.217592593,0,0,0,,,,,,,FALCON,HB,z,y,./images/FALCONHB.png,,,,,,,,,,,,,,,,,,,,,z,1,0.6072,,,,,,,,0,25,25,112,1
,,,,,,,,,,,,,,,,,5e38e79295ff561112eae457,36,2022-02-12_15h08.15.494,lexical_decision_task_DD_L4,2021.2.3,Win32,59.93766483,,,,,,,,,,,0.492,1,,,,,,,,,,,,,,,,,,,,,,,,0.840740741,-0.217592593,0,0,0,,,,,,,URINE,HB,z,y,./images/URINEHB.png,,,,,,,,,,,,,,,,,,,,,z,1,0.492,,,,,,,,0,26,26,154,1
,,,,,,,,,,,,,,,,,5e38e79295ff561112eae457,36,2022-02-12_15h08.15.494,lexical_decision_task_DD_L4,2021.2.3,Win32,59.93766483,,,,,,,,,,,0.6695,1,,,,,,,,,,,,,,,,,,,,,,,,0.840740741,-0.217592593,0,0,0,,,,,,,SMOKER,LB,z,y,./images/SMOKERLB.png,,,,,,,,,,,,,,,,,,,,,z,1,0.6695,,,,,,,,0,27,27,110,1
,,,,,,,,,,,,,,,,,5e38e79295ff561112eae457,36,2022-02-12_15h08.15.494,lexical_decision_task_DD_L4,2021.2.3,Win32,59.93766483,,,,,,,,,,,0.5839,1,,,,,,,,,,,,,,,,,,,,,,,,0.840740741,-0.217592593,0,0,0,,,,,,,POODLE,C,z,y,./images/POODLE.png,,,,,,,,,,,,,,,,,,,,,z,1,0.5839,,,,,,,,0,28,28,165,1
,,,,,,,,,,,,,,,,,5e38e79295ff561112eae457,36,2022-02-12_15h08.15.494,lexical_decision_task_DD_L4,2021.2.3,Win32,59.93766483,,,,,,,,,,,1.0538,0,,,,,,,,,,,,,,,,,,,,,,,,0.840740741,-0.217592593,0,0,0,,,,,,,PARADE,LB,m,y,./images/PARADELB.png,,,,,,,,,,,,,,,,,,,,,z,0,1.0538,,,,,,,,0,29,29,17,1
,,,,,,,,,,,,,,,,,5e38e79295ff561112eae457,36,2022-02-12_15h08.15.494,lexical_decision_task_DD_L4,2021.2.3,Win32,59.93766483,,,,,,,,,,,0.5684,1,,,,,,,,,,,,,,,,,,,,,,,,0.840740741,-0.217592593,0,0,0,,,,,,,POKER,HB,m,y,./images/POKERHB.png,,,,,,,,,,,,,,,,,,,,,m,1,0.5684,,,,,,,,0,30,30,67,1
,,,,,,,,,,,,,,,,,5e38e79295ff561112eae457,36,2022-02-12_15h08.15.494,lexical_decision_task_DD_L4,2021.2.3,Win32,59.93766483,,,,,,,,,,,0.5744,1,,,,,,,,,,,,,,,,,,,,,,,,0.840740741,-0.217592593,0,0,0,,,,,,,CRUMB,LB,z,y,./images/CRUMBLB.png,,,,,,,,,,,,,,,,,,,,,z,1,0.5744,,,,,,,,0,31,31,113,1
,,,,,,,,,,,,,,,,,5e38e79295ff561112eae457,36,2022-02-12_15h08.15.494,lexical_decision_task_DD_L4,2021.2.3,Win32,59.93766483,,,,,,,,,,,0.6845,1,,,,,,,,,,,,,,,,,,,,,,,,0.840740741,-0.217592593,0,0,0,,,,,,,COOKER,C,z,y,./images/COOKER.png,,,,,,,,,,,,,,,,,,,,,z,1,0.6845,,,,,,,,0,32,32,153,1
,,,,,,,,,,,,,,,,,5e38e79295ff561112eae457,36,2022-02-12_15h08.15.494,lexical_decision_task_DD_L4,2021.2.3,Win32,59.93766483,,,,,,,,,,,0.6378,1,,,,,,,,,,,,,,,,,,,,,,,,0.840740741,-0.217592593,0,0,0,,,,,,,COUCH,LB,z,y,./images/COUCHLB.png,,,,,,,,,,,,,,,,,,,,,z,1,0.6378,,,,,,,,0,33,33,161,1
,,,,,,,,,,,,,,,,,5e38e79295ff561112eae457,36,2022-02-12_15h08.15.494,lexical_decision_task_DD_L4,2021.2.3,Win32,59.93766483,,,,,,,,,,,0.6094,1,,,,,,,,,,,,,,,,,,,,,,,,0.840740741,-0.217592593,0,0,0,,,,,,,BASKET,LB,m,y,./images/BASKETLB.png,,,,,,,,,,,,,,,,,,,,,m,1,0.6094,,,,,,,,0,34,34,44,1
,,,,,,,,,,,,,,,,,5e38e79295ff561112eae457,36,2022-02-12_15h08.15.494,lexical_decision_task_DD_L4,2021.2.3,Win32,59.93766483,,,,,,,,,,,0.7341,1,,,,,,,,,,,,,,,,,,,,,,,,0.840740741,-0.217592593,0,0,0,,,,,,,TOMATO,C,z,y,./images/TOMATO.png,,,,,,,,,,,,,,,,,,,,,z,1,0.7341,,,,,,,,0,35,35,84,1
,,,,,,,,,,,,,,,,,5e38e79295ff561112eae457,36,2022-02-12_15h08.15.494,lexical_decision_task_DD_L4,2021.2.3,Win32,59.93766483,,,,,,,,,,,0.5257,1,,,,,,,,,,,,,,,,,,,,,,,,0.840740741,-0.217592593,0,0,0,,,,,,,DRILL,C,m,y,./images/DRILL.png,,,,,,,,,,,,,,,,,,,,,m,1,0.5257,,,,,,,,0,36,36,81,1
,,,,,,,,,,,,,,,,,5e38e79295ff561112eae457,36,2022-02-12_15h08.15.494,lexical_decision_task_DD_L4,2021.2.3,Win32,59.93766483,,,,,,,,,,,0.5975,1,,,,,,,,,,,,,,,,,,,,,,,,0.840740741,-0.217592593,0,0,0,,,,,,,BEARD,LB,z,y,./images/BEARDLB.png,,,,,,,,,,,,,,,,,,,,,z,1,0.5975,,,,,,,,0,37,37,86,1
,,,,,,,,,,,,,,,,,5e38e79295ff561112eae457,36,2022-02-12_15h08.15.494,lexical_decision_task_DD_L4,2021.2.3,Win32,59.93766483,,,,,,,,,,,0.5506,1,,,,,,,,,,,,,,,,,,,,,,,,0.840740741,-0.217592593,0,0,0,,,,,,,CHERRY,C,m,y,./images/CHERRY.png,,,,,,,,,,,,,,,,,,,,,m,1,0.5506,,,,,,,,0,38,38,54,1
,,,,,,,,,,,,,,,,,5e38e79295ff561112eae457,36,2022-02-12_15h08.15.494,lexical_decision_task_DD_L4,2021.2.3,Win32,59.93766483,,,,,,,,,,,0.7145,1,,,,,,,,,,,,,,,,,,,,,,,,0.840740741,-0.217592593,0,0,0,,,,,,,PACKET,LB,z,y,./images/PACKETLB.png,,,,,,,,,,,,,,,,,,,,,z,1,0.7145,,,,,,,,0,39,39,140,1
,,,,,,,,,,,,,,,,,5e38e79295ff561112eae457,36,2022-02-12_15h08.15.494,lexical_decision_task_DD_L4,2021.2.3,Win32,59.93766483,,,,,,,,,,,0.8993,1,,,,,,,,,,,,,,,,,,,,,,,,0.840740741,-0.217592593,0,0,0,,,,,,,MELON,HB,z,y,./images/MELONHB.png,,,,,,,,,,,,,,,,,,,,,z,1,0.8993,,,,,,,,0,40,40,106,1
,,,,,,,,,,,,,,,,,5e38e79295ff561112eae457,36,2022-02-12_15h08.15.494,lexical_decision_task_DD_L4,2021.2.3,Win32,59.93766483,,,,,,,,,,,0.6285,1,,,,,,,,,,,,,,,,,,,,,,,,0.840740741,-0.217592593,0,0,0,space,,,,,,DANCER,C,m,y,./images/DANCER.png,6.5378,,,,,,,,,,,,,,,,,,,,m,1,0.6285,,,,,,,,0,41,41,21,1
,,,,,,,,,,,,,,,,,5e38e79295ff561112eae457,36,2022-02-12_15h08.15.494,lexical_decision_task_DD_L4,2021.2.3,Win32,59.93766483,,,,,,,,,,,0.564,1,,,,,,,,,,,,,,,,,,,,,,,,0.840740741,-0.217592593,0,0,0,,,,,,,CLOWN,HB,m,y,./images/CLOWNHB.png,,,,,,,,,,,,,,,,,,,,,m,1,0.564,,,,,,,,0,42,42,22,1
,,,,,,,,,,,,,,,,,5e38e79295ff561112eae457,36,2022-02-12_15h08.15.494,lexical_decision_task_DD_L4,2021.2.3,Win32,59.93766483,,,,,,,,,,,0.9467,0,,,,,,,,,,,,,,,,,,,,,,,,0.840740741,-0.217592593,0,0,0,,,,,,,NOOSE,C,z,y,./images/NOOSE.png,,,,,,,,,,,,,,,,,,,,,m,0,0.9467,,,,,,,,0,43,43,156,1
,,,,,,,,,,,,,,,,,5e38e79295ff561112eae457,36,2022-02-12_15h08.15.494,lexical_decision_task_DD_L4,2021.2.3,Win32,59.93766483,,,,,,,,,,,0.7509,1,,,,,,,,,,,,,,,,,,,,,,,,0.840740741,-0.217592593,0,0,0,,,,,,,SWING,HB,z,y,./images/SWINGHB.png,,,,,,,,,,,,,,,,,,,,,z,1,0.7509,,,,,,,,0,44,44,124,1
,,,,,,,,,,,,,,,,,5e38e79295ff561112eae457,36,2022-02-12_15h08.15.494,lexical_decision_task_DD_L4,2021.2.3,Win32,59.93766483,,,,,,,,,,,0.6092,1,,,,,,,,,,,,,,,,,,,,,,,,0.840740741,-0.217592593,0,0,0,,,,,,,GRAPE,HB,m,y,./images/GRAPEHB.png,,,,,,,,,,,,,,,,,,,,,m,1,0.6092,,,,,,,,0,45,45,16,1
,,,,,,,,,,,,,,,,,5e38e79295ff561112eae457,36,2022-02-12_15h08.15.494,lexical_decision_task_DD_L4,2021.2.3,Win32,59.93766483,,,,,,,,,,,0.566,1,,,,,,,,,,,,,,,,,,,,,,,,0.840740741,-0.217592593,0,0,0,,,,,,,PLANET,LB,m,y,./images/PLANETLB.png,,,,,,,,,,,,,,,,,,,,,m,1,0.566,,,,,,,,0,46,46,80,1
,,,,,,,,,,,,,,,,,5e38e79295ff561112eae457,36,2022-02-12_15h08.15.494,lexical_decision_task_DD_L4,2021.2.3,Win32,59.93766483,,,,,,,,,,,0.5571,0,,,,,,,,,,,,,,,,,,,,,,,,0.840740741,-0.217592593,0,0,0,,,,,,,BARREL,LB,z,y,./images/BARRELLB.png,,,,,,,,,,,,,,,,,,,,,m,0,0.5571,,,,,,,,0,47,47,116,1
,,,,,,,,,,,,,,,,,5e38e79295ff561112eae457,36,2022-02-12_15h08.15.494,lexical_decision_task_DD_L4,2021.2.3,Win32,59.93766483,,,,,,,,,,,0.5635,1,,,,,,,,,,,,,,,,,,,,,,,,0.840740741,-0.217592593,0,0,0,,,,,,,HEATER,LB,m,y,./images/HEATERLB.png,,,,,,,,,,,,,,,,,,,,,m,1,0.5635,,,,,,,,0,48,48,56,1
,,,,,,,,,,,,,,,,,5e38e79295ff561112eae457,36,2022-02-12_15h08.15.494,lexical_decision_task_DD_L4,2021.2.3,Win32,59.93766483,,,,,,,,,,,0.4826,1,,,,,,,,,,,,,,,,,,,,,,,,0.840740741,-0.217592593,0,0,0,,,,,,,TULIP,LB,z,y,./images/TULIPLB.png,,,,,,,,,,,,,,,,,,,,,z,1,0.4826,,,,,,,,0,49,49,92,1
,,,,,,,,,,,,,,,,,5e38e79295ff561112eae457,36,2022-02-12_15h08.15.494,lexical_decision_task_DD_L4,2021.2.3,Win32,59.93766483,,,,,,,,,,,0.5568,1,,,,,,,,,,,,,,,,,,,,,,,,0.840740741,-0.217592593,0,0,0,,,,,,,SHORE,C,z,y,./images/SHORE.png,,,,,,,,,,,,,,,,,,,,,z,1,0.5568,,,,,,,,0,50,50,96,1
,,,,,,,,,,,,,,,,,5e38e79295ff561112eae457,36,2022-02-12_15h08.15.494,lexical_decision_task_DD_L4,2021.2.3,Win32,59.93766483,,,,,,,,,,,0.5839,1,,,,,,,,,,,,,,,,,,,,,,,,0.840740741,-0.217592593,0,0,0,,,,,,,BIRTH,HB,z,y,./images/BIRTHHB.png,,,,,,,,,,,,,,,,,,,,,z,1,0.5839,,,,,,,,0,51,51,121,1
,,,,,,,,,,,,,,,,,5e38e79295ff561112eae457,36,2022-02-12_15h08.15.494,lexical_decision_task_DD_L4,2021.2.3,Win32,59.93766483,,,,,,,,,,,0.5618,1,,,,,,,,,,,,,,,,,,,,,,,,0.840740741,-0.217592593,0,0,0,,,,,,,CURRY,C,m,y,./images/CURRY.png,,,,,,,,,,,,,,,,,,,,,m,1,0.5618,,,,,,,,0,52,52,60,1
,,,,,,,,,,,,,,,,,5e38e79295ff561112eae457,36,2022-02-12_15h08.15.494,lexical_decision_task_DD_L4,2021.2.3,Win32,59.93766483,,,,,,,,,,,0.7049,1,,,,,,,,,,,,,,,,,,,,,,,,0.840740741,-0.217592593,0,0,0,,,,,,,JUNGLE,LB,z,y,./images/JUNGLELB.png,,,,,,,,,,,,,,,,,,,,,z,1,0.7049,,,,,,,,0,53,53,167,1
,,,,,,,,,,,,,,,,,5e38e79295ff561112eae457,36,2022-02-12_15h08.15.494,lexical_decision_task_DD_L4,2021.2.3,Win32,59.93766483,,,,,,,,,,,0.6252,1,,,,,,,,,,,,,,,,,,,,,,,,0.840740741,-0.217592593,0,0,0,,,,,,,JAGUAR,C,z,y,./images/JAGUAR.png,,,,,,,,,,,,,,,,,,,,,z,1,0.6252,,,,,,,,0,54,54,102,1
,,,,,,,,,,,,,,,,,5e38e79295ff561112eae457,36,2022-02-12_15h08.15.494,lexical_decision_task_DD_L4,2021.2.3,Win32,59.93766483,,,,,,,,,,,0.5654,1,,,,,,,,,,,,,,,,,,,,,,,,0.840740741,-0.217592593,0,0,0,,,,,,,BAKER,C,m,y,./images/BAKER.png,,,,,,,,,,,,,,,,,,,,,m,1,0.5654,,,,,,,,0,55,55,63,1
,,,,,,,,,,,,,,,,,5e38e79295ff561112eae457,36,2022-02-12_15h08.15.494,lexical_decision_task_DD_L4,2021.2.3,Win32,59.93766483,,,,,,,,,,,0.5883,1,,,,,,,,,,,,,,,,,,,,,,,,0.840740741,-0.217592593,0,0,0,,,,,,,KIDNEY,C,z,y,./images/KIDNEY.png,,,,,,,,,,,,,,,,,,,,,z,1,0.5883,,,,,,,,0,56,56,105,1
,,,,,,,,,,,,,,,,,5e38e79295ff561112eae457,36,2022-02-12_15h08.15.494,lexical_decision_task_DD_L4,2021.2.3,Win32,59.93766483,,,,,,,,,,,0.5458,1,,,,,,,,,,,,,,,,,,,,,,,,0.840740741,-0.217592593,0,0,0,,,,,,,GARDEN,HB,m,y,./images/GARDENHB.png,,,,,,,,,,,,,,,,,,,,,m,1,0.5458,,,,,,,,0,57,57,10,1
,,,,,,,,,,,,,,,,,5e38e79295ff561112eae457,36,2022-02-12_15h08.15.494,lexical_decision_task_DD_L4,2021.2.3,Win32,59.93766483,,,,,,,,,,,0.5452,1,,,,,,,,,,,,,,,,,,,,,,,,0.840740741,-0.217592593,0,0,0,,,,,,,CLOTH,LB,m,y,./images/CLOTHLB.png,,,,,,,,,,,,,,,,,,,,,m,1,0.5452,,,,,,,,0,58,58,23,1
,,,,,,,,,,,,,,,,,5e38e79295ff561112eae457,36,2022-02-12_15h08.15.494,lexical_decision_task_DD_L4,2021.2.3,Win32,59.93766483,,,,,,,,,,,0.649,1,,,,,,,,,,,,,,,,,,,,,,,,0.840740741,-0.217592593,0,0,0,,,,,,,MIRROR,C,z,y,./images/MIRROR.png,,,,,,,,,,,,,,,,,,,,,z,1,0.649,,,,,,,,0,59,59,147,1
,,,,,,,,,,,,,,,,,5e38e79295ff561112eae457,36,2022-02-12_15h08.15.494,lexical_decision_task_DD_L4,2021.2.3,Win32,59.93766483,,,,,,,,,,,0.5004,1,,,,,,,,,,,,,,,,,,,,,,,,0.840740741,-0.217592593,0,0,0,,,,,,,TWINS,C,z,y,./images/TWINS.png,,,,,,,,,,,,,,,,,,,,,z,1,0.5004,,,,,,,,0,60,60,144,1
,,,,,,,,,,,,,,,,,5e38e79295ff561112eae457,36,2022-02-12_15h08.15.494,lexical_decision_task_DD_L4,2021.2.3,Win32,59.93766483,,,,,,,,,,,0.5339,1,,,,,,,,,,,,,,,,,,,,,,,,0.840740741,-0.217592593,0,0,0,,,,,,,HAMMER,C,m,y,./images/HAMMER.png,,,,,,,,,,,,,,,,,,,,,m,1,0.5339,,,,,,,,0,61,61,75,1
,,,,,,,,,,,,,,,,,5e38e79295ff561112eae457,36,2022-02-12_15h08.15.494,lexical_decision_task_DD_L4,2021.2.3,Win32,59.93766483,,,,,,,,,,,0.5672,1,,,,,,,,,,,,,,,,,,,,,,,,0.840740741,-0.217592593,0,0,0,,,,,,,BURIAL,LB,z,y,./images/BURIALLB.png,,,,,,,,,,,,,,,,,,,,,z,1,0.5672,,,,,,,,0,62,62,143,1
,,,,,,,,,,,,,,,,,5e38e79295ff561112eae457,36,2022-02-12_15h08.15.494,lexical_decision_task_DD_L4,2021.2.3,Win32,59.93766483,,,,,,,,,,,0.6594,1,,,,,,,,,,,,,,,,,,,,,,,,0.840740741,-0.217592593,0,0,0,,,,,,,PENCE,HB,z,y,./images/PENCEHB.png,,,,,,,,,,,,,,,,,,,,,z,1,0.6594,,,,,,,,0,63,63,100,1
,,,,,,,,,,,,,,,,,5e38e79295ff561112eae457,36,2022-02-12_15h08.15.494,lexical_decision_task_DD_L4,2021.2.3,Win32,59.93766483,,,,,,,,,,,0.7506,0,,,,,,,,,,,,,,,,,,,,,,,,0.840740741,-0.217592593,0,0,0,,,,,,,PICKLE,LB,z,y,./images/PICKLELB.png,,,,,,,,,,,,,,,,,,,,,m,0,0.7506,,,,,,,,0,64,64,98,1
,,,,,,,,,,,,,,,,,5e38e79295ff561112eae457,36,2022-02-12_15h08.15.494,lexical_decision_task_DD_L4,2021.2.3,Win32,59.93766483,,,,,,,,,,,0.6217,1,,,,,,,,,,,,,,,,,,,,,,,,0.840740741,-0.217592593,0,0,0,,,,,,,MOSQUE,HB,z,y,./images/MOSQUEHB.png,,,,,,,,,,,,,,,,,,,,,z,1,0.6217,,,,,,,,0,65,65,127,1
,,,,,,,,,,,,,,,,,5e38e79295ff561112eae457,36,2022-02-12_15h08.15.494,lexical_decision_task_DD_L4,2021.2.3,Win32,59.93766483,,,,,,,,,,,0.7174,1,,,,,,,,,,,,,,,,,,,,,,,,0.840740741,-0.217592593,0,0,0,,,,,,,GLOVE,HB,m,y,./images/GLOVEHB.png,,,,,,,,,,,,,,,,,,,,,m,1,0.7174,,,,,,,,0,66,66,73,1
,,,,,,,,,,,,,,,,,5e38e79295ff561112eae457,36,2022-02-12_15h08.15.494,lexical_decision_task_DD_L4,2021.2.3,Win32,59.93766483,,,,,,,,,,,0.8024,1,,,,,,,,,,,,,,,,,,,,,,,,0.840740741,-0.217592593,0,0,0,,,,,,,JELLY,HB,z,y,./images/JELLYHB.png,,,,,,,,,,,,,,,,,,,,,z,1,0.8024,,,,,,,,0,67,67,148,1
,,,,,,,,,,,,,,,,,5e38e79295ff561112eae457,36,2022-02-12_15h08.15.494,lexical_decision_task_DD_L4,2021.2.3,Win32,59.93766483,,,,,,,,,,,0.615,1,,,,,,,,,,,,,,,,,,,,,,,,0.840740741,-0.217592593,0,0,0,,,,,,,RAZOR,HB,m,y,./images/RAZORHB.png,,,,,,,,,,,,,,,,,,,,,m,1,0.615,,,,,,,,0,68,68,34,1
,,,,,,,,,,,,,,,,,5e38e79295ff561112eae457,36,2022-02-12_15h08.15.494,lexical_decision_task_DD_L4,2021.2.3,Win32,59.93766483,,,,,,,,,,,0.6758,1,,,,,,,,,,,,,,,,,,,,,,,,0.840740741,-0.217592593,0,0,0,,,,,,,DRUMS,HB,z,y,./images/DRUMSHB.png,,,,,,,,,,,,,,,,,,,,,z,1,0.6758,,,,,,,,0,69,69,133,1
,,,,,,,,,,,,,,,,,5e38e79295ff561112eae457,36,2022-02-12_15h08.15.494,lexical_decision_task_DD_L4,2021.2.3,Win32,59.93766483,,,,,,,,,,,0.5505,1,,,,,,,,,,,,,,,,,,,,,,,,0.840740741,-0.217592593,0,0,0,,,,,,,ARTIST,HB,m,y,./images/ARTISTHB.png,,,,,,,,,,,,,,,,,,,,,m,1,0.5505,,,,,,,,0,70,70,61,1
,,,,,,,,,,,,,,,,,5e38e79295ff561112eae457,36,2022-02-12_15h08.15.494,lexical_decision_task_DD_L4,2021.2.3,Win32,59.93766483,,,,,,,,,,,0.5728,1,,,,,,,,,,,,,,,,,,,,,,,,0.840740741,-0.217592593,0,0,0,,,,,,,PARCEL,C,m,y,./images/PARCEL.png,,,,,,,,,,,,,,,,,,,,,m,1,0.5728,,,,,,,,0,71,71,18,1
,,,,,,,,,,,,,,,,,5e38e79295ff561112eae457,36,2022-02-12_15h08.15.494,lexical_decision_task_DD_L4,2021.2.3,Win32,59.93766483,,,,,,,,,,,0.6908,1,,,,,,,,,,,,,,,,,,,,,,,,0.840740741,-0.217592593,0,0,0,,,,,,,BRUSH,LB,m,y,./images/BRUSHLB.png,,,,,,,,,,,,,,,,,,,,,m,1,0.6908,,,,,,,,0,72,72,59,1
,,,,,,,,,,,,,,,,,5e38e79295ff561112eae457,36,2022-02-12_15h08.15.494,lexical_decision_task_DD_L4,2021.2.3,Win32,59.93766483,,,,,,,,,,,0.7482,1,,,,,,,,,,,,,,,,,,,,,,,,0.840740741,-0.217592593,0,0,0,,,,,,,CANDLE,HB,z,y,./images/CANDLEHB.png,,,,,,,,,,,,,,,,,,,,,z,1,0.7482,,,,,,,,0,73,73,145,1
,,,,,,,,,,,,,,,,,5e38e79295ff561112eae457,36,2022-02-12_15h08.15.494,lexical_decision_task_DD_L4,2021.2.3,Win32,59.93766483,,,,,,,,,,,0.9715,1,,,,,,,,,,,,,,,,,,,,,,,,0.840740741,-0.217592593,0,0,0,,,,,,,SWEAT,C,z,y,./images/SWEAT.png,,,,,,,,,,,,,,,,,,,,,z,1,0.9715,,,,,,,,0,74,74,150,1
,,,,,,,,,,,,,,,,,5e38e79295ff561112eae457,36,2022-02-12_15h08.15.494,lexical_decision_task_DD_L4,2021.2.3,Win32,59.93766483,,,,,,,,,,,0.8573,1,,,,,,,,,,,,,,,,,,,,,,,,0.840740741,-0.217592593,0,0,0,,,,,,,SUNSET,HB,z,y,./images/SUNSETHB.png,,,,,,,,,,,,,,,,,,,,,z,1,0.8573,,,,,,,,0,75,75,166,1
,,,,,,,,,,,,,,,,,5e38e79295ff561112eae457,36,2022-02-12_15h08.15.494,lexical_decision_task_DD_L4,2021.2.3,Win32,59.93766483,,,,,,,,,,,0.612,1,,,,,,,,,,,,,,,,,,,,,,,,0.840740741,-0.217592593,0,0,0,,,,,,,LIZARD,LB,z,y,./images/LIZARDLB.png,,,,,,,,,,,,,,,,,,,,,z,1,0.612,,,,,,,,0,76,76,128,1
,,,,,,,,,,,,,,,,,5e38e79295ff561112eae457,36,2022-02-12_15h08.15.494,lexical_decision_task_DD_L4,2021.2.3,Win32,59.93766483,,,,,,,,,,,0.7606,1,,,,,,,,,,,,,,,,,,,,,,,,0.840740741,-0.217592593,0,0,0,,,,,,,INFANT,HB,z,y,./images/INFANTHB.png,,,,,,,,,,,,,,,,,,,,,z,1,0.7606,,,,,,,,0,77,77,160,1
,,,,,,,,,,,,,,,,,5e38e79295ff561112eae457,36,2022-02-12_15h08.15.494,lexical_decision_task_DD_L4,2021.2.3,Win32,59.93766483,,,,,,,,,,,0.5753,1,,,,,,,,,,,,,,,,,,,,,,,,0.840740741,-0.217592593,0,0,0,,,,,,,SHIELD,C,m,y,./images/SHIELD.png,,,,,,,,,,,,,,,,,,,,,m,1,0.5753,,,,,,,,0,78,78,48,1
,,,,,,,,,,,,,,,,,5e38e79295ff561112eae457,36,2022-02-12_15h08.15.494,lexical_decision_task_DD_L4,2021.2.3,Win32,59.93766483,,,,,,,,,,,0.5814,1,,,,,,,,,,,,,,,,,,,,,,,,0.840740741,-0.217592593,0,0,0,,,,,,,DESERT,HB,m,y,./images/DESERTHB.png,,,,,,,,,,,,,,,,,,,,,m,1,0.5814,,,,,,,,0,79,79,52,1
,,,,,,,,,,,,,,,,,5e38e79295ff561112eae457,36,2022-02-12_15h08.15.494,lexical_decision_task_DD_L4,2021.2.3,Win32,59.93766483,,,,,,,,,,,0.6675,0,,,,,,,,,,,,,,,,,,,,,,,,0.840740741,-0.217592593,0,0,0,,,,,,,PLANK,HB,z,y,./images/PLANKHB.png,,,,,,,,,,,,,,,,,,,,,m,0,0.6675,,,,,,,,0,80,80,85,1
,,,,,,,,,,,,,,,,,5e38e79295ff561112eae457,36,2022-02-12_15h08.15.494,lexical_decision_task_DD_L4,2021.2.3,Win32,59.93766483,,,,,,,,,,,0.6537,1,,,,,,,,,,,,,,,,,,,,,,,,0.840740741,-0.217592593,0,0,0,,,,,,,POSTER,LB,m,y,./images/POSTERLB.png,,,,,,,,,,,,,,,,,,,,,m,1,0.6537,,,,,,,,0,81,81,53,1
,,,,,,,,,,,,,,,,,5e38e79295ff561112eae457,36,2022-02-12_15h08.15.494,lexical_decision_task_DD_L4,2021.2.3,Win32,59.93766483,,,,,,,,,,,1.5284,0,,,,,,,,,,,,,,,,,,,,,,,,0.840740741,-0.217592593,0,0,0,,,,,,,CANYON,HB,z,y,./images/CANYONHB.png,,,,,,,,,,,,,,,,,,,,,m,0,1.5284,,,,,,,,0,82,82,118,1
,,,,,,,,,,,,,,,,,5e38e79295ff561112eae457,36,2022-02-12_15h08.15.494,lexical_decision_task_DD_L4,2021.2.3,Win32,59.93766483,,,,,,,,,,,0.8235,1,,,,,,,,,,,,,,,,,,,,,,,,0.840740741,-0.217592593,0,0,0,space,,,,,,BELLY,HB,z,y,./images/BELLYHB.png,11.0044,,,,,,,,,,,,,,,,,,,,z,1,0.8235,,,,,,,,0,83,83,94,1
,,,,,,,,,,,,,,,,,5e38e79295ff561112eae457,36,2022-02-12_15h08.15.494,lexical_decision_task_DD_L4,2021.2.3,Win32,59.93766483,,,,,,,,,,,0.8155,1,,,,,,,,,,,,,,,,,,,,,,,,0.840740741,-0.217592593,0,0,0,,,,,,,SQUARE,C,z,y,./images/SQUARE.png,,,,,,,,,,,,,,,,,,,,,z,1,0.8155,,,,,,,,0,84,84,90,1
,,,,,,,,,,,,,,,,,5e38e79295ff561112eae457,36,2022-02-12_15h08.15.494,lexical_decision_task_DD_L4,2021.2.3,Win32,59.93766483,,,,,,,,,,,0.8362,0,,,,,,,,,,,,,,,,,,,,,,,,0.840740741,-0.217592593,0,0,0,,,,,,,SNAKE,HB,m,y,./images/SNAKEHB.png,,,,,,,,,,,,,,,,,,,,,z,0,0.8362,,,,,,,,0,85,85,40,1
,,,,,,,,,,,,,,,,,5e38e79295ff561112eae457,36,2022-02-12_15h08.15.494,lexical_decision_task_DD_L4,2021.2.3,Win32,59.93766483,,,,,,,,,,,0.7914,0,,,,,,,,,,,,,,,,,,,,,,,,0.840740741,-0.217592593,0,0,0,,,,,,,BERRY,LB,z,y,./images/BERRYLB.png,,,,,,,,,,,,,,,,,,,,,m,0,0.7914,,,,,,,,0,86,86,131,1
,,,,,,,,,,,,,,,,,5e38e79295ff561112eae457,36,2022-02-12_15h08.15.494,lexical_decision_task_DD_L4,2021.2.3,Win32,59.93766483,,,,,,,,,,,0.7245,1,,,,,,,,,,,,,,,,,,,,,,,,0.840740741,-0.217592593,0,0,0,,,,,,,SPORT,C,z,y,./images/SPORT.png,,,,,,,,,,,,,,,,,,,,,z,1,0.7245,,,,,,,,0,87,87,132,1
,,,,,,,,,,,,,,,,,5e38e79295ff561112eae457,36,2022-02-12_15h08.15.494,lexical_decision_task_DD_L4,2021.2.3,Win32,59.93766483,,,,,,,,,,,0.5647,1,,,,,,,,,,,,,,,,,,,,,,,,0.840740741,-0.217592593,0,0,0,,,,,,,SAUCE,C,m,y,./images/SAUCE.png,,,,,,,,,,,,,,,,,,,,,m,1,0.5647,,,,,,,,0,88,88,51,1
,,,,,,,,,,,,,,,,,5e38e79295ff561112eae457,36,2022-02-12_15h08.15.494,lexical_decision_task_DD_L4,2021.2.3,Win32,59.93766483,,,,,,,,,,,0.8115,0,,,,,,,,,,,,,,,,,,,,,,,,0.840740741,-0.217592593,0,0,0,,,,,,,SPINE,LB,m,y,./images/SPINELB.png,,,,,,,,,,,,,,,,,,,,,z,0,0.8115,,,,,,,,0,89,89,65,1
,,,,,,,,,,,,,,,,,5e38e79295ff561112eae457,36,2022-02-12_15h08.15.494,lexical_decision_task_DD_L4,2021.2.3,Win32,59.93766483,,,,,,,,,,,0.8802,1,,,,,,,,,,,,,,,,,,,,,,,,0.840740741,-0.217592593,0,0,0,,,,,,,PEBBLE,HB,m,y,./images/PEBBLEHB.png,,,,,,,,,,,,,,,,,,,,,m,1,0.8802,,,,,,,,0,90,90,82,1
,,,,,,,,,,,,,,,,,5e38e79295ff561112eae457,36,2022-02-12_15h08.15.494,lexical_decision_task_DD_L4,2021.2.3,Win32,59.93766483,,,,,,,,,,,0.7381,1,,,,,,,,,,,,,,,,,,,,,,,,0.840740741,-0.217592593,0,0,0,,,,,,,STORM,C,z,y,./images/STORM.png,,,,,,,,,,,,,,,,,,,,,z,1,0.7381,,,,,,,,0,91,91,114,1
,,,,,,,,,,,,,,,,,5e38e79295ff561112eae457,36,2022-02-12_15h08.15.494,lexical_decision_task_DD_L4,2021.2.3,Win32,59.93766483,,,,,,,,,,,0.7291,1,,,,,,,,,,,,,,,,,,,,,,,,0.840740741,-0.217592593,0,0,0,,,,,,,STAIN,C,m,y,./images/STAIN.png,,,,,,,,,,,,,,,,,,,,,m,1,0.7291,,,,,,,,0,92,92,6,1
,,,,,,,,,,,,,,,,,5e38e79295ff561112eae457,36,2022-02-12_15h08.15.494,lexical_decision_task_DD_L4,2021.2.3,Win32,59.93766483,,,,,,,,,,,0.5932,1,,,,,,,,,,,,,,,,,,,,,,,,0.840740741,-0.217592593,0,0,0,,,,,,,TIGER,HB,m,y,./images/TIGERHB.png,,,,,,,,,,,,,,,,,,,,,m,1,0.5932,,,,,,,,0,93,93,37,1
,,,,,,,,,,,,,,,,,5e38e79295ff561112eae457,36,2022-02-12_15h08.15.494,lexical_decision_task_DD_L4,2021.2.3,Win32,59.93766483,,,,,,,,,,,1.0389,1,,,,,,,,,,,,,,,,,,,,,,,,0.840740741,-0.217592593,0,0,0,,,,,,,PEARL,HB,z,y,./images/PEARLHB.png,,,,,,,,,,,,,,,,,,,,,z,1,1.0389,,,,,,,,0,94,94,130,1
,,,,,,,,,,,,,,,,,5e38e79295ff561112eae457,36,2022-02-12_15h08.15.494,lexical_decision_task_DD_L4,2021.2.3,Win32,59.93766483,,,,,,,,,,,0.6674,1,,,,,,,,,,,,,,,,,,,,,,,,0.840740741,-0.217592593,0,0,0,,,,,,,QUILL,HB,z,y,./images/QUILLHB.png,,,,,,,,,,,,,,,,,,,,,z,1,0.6674,,,,,,,,0,95,95,115,1
,,,,,,,,,,,,,,,,,5e38e79295ff561112eae457,36,2022-02-12_15h08.15.494,lexical_decision_task_DD_L4,2021.2.3,Win32,59.93766483,,,,,,,,,,,0.7007,1,,,,,,,,,,,,,,,,,,,,,,,,0.840740741,-0.217592593,0,0,0,,,,,,,THROAT,C,z,y,./images/THROAT.png,,,,,,,,,,,,,,,,,,,,,z,1,0.7007,,,,,,,,0,96,96,120,1
,,,,,,,,,,,,,,,,,5e38e79295ff561112eae457,36,2022-02-12_15h08.15.494,lexical_decision_task_DD_L4,2021.2.3,Win32,59.93766483,,,,,,,,,,,0.5652,1,,,,,,,,,,,,,,,,,,,,,,,,0.840740741,-0.217592593,0,0,0,,,,,,,ARROW,C,m,y,./images/ARROW.png,,,,,,,,,,,,,,,,,,,,,m,1,0.5652,,,,,,,,0,97,97,69,1
,,,,,,,,,,,,,,,,,5e38e79295ff561112eae457,36,2022-02-12_15h08.15.494,lexical_decision_task_DD_L4,2021.2.3,Win32,59.93766483,,,,,,,,,,,0.612,1,,,,,,,,,,,,,,,,,,,,,,,,0.840740741,-0.217592593,0,0,0,,,,,,,WAGON,HB,m,y,./images/WAGONHB.png,,,,,,,,,,,,,,,,,,,,,m,1,0.612,,,,,,,,0,98,98,7,1
,,,,,,,,,,,,,,,,,5e38e79295ff561112eae457,36,2022-02-12_15h08.15.494,lexical_decision_task_DD_L4,2021.2.3,Win32,59.93766483,,,,,,,,,,,0.8807,0,,,,,,,,,,,,,,,,,,,,,,,,0.840740741,-0.217592593,0,0,0,,,,,,,KITTEN,C,z,y,./images/KITTEN.png,,,,,,,,,,,,,,,,,,,,,m,0,0.8807,,,,,,,,0,99,99,129,1
,,,,,,,,,,,,,,,,,5e38e79295ff561112eae457,36,2022-02-12_15h08.15.494,lexical_decision_task_DD_L4,2021.2.3,Win32,59.93766483,,,,,,,,,,,0.6028,1,,,,,,,,,,,,,,,,,,,,,,,,0.840740741,-0.217592593,0,0,0,,,,,,,MOTOR,HB,z,y,./images/MOTORHB.png,,,,,,,,,,,,,,,,,,,,,z,1,0.6028,,,,,,,,0,100,100,97,1
,,,,,,,,,,,,,,,,,5e38e79295ff561112eae457,36,2022-02-12_15h08.15.494,lexical_decision_task_DD_L4,2021.2.3,Win32,59.93766483,,,,,,,,,,,0.8315,0,,,,,,,,,,,,,,,,,,,,,,,,0.840740741,-0.217592593,0,0,0,,,,,,,STREAM,LB,m,y,./images/STREAMLB.png,,,,,,,,,,,,,,,,,,,,,z,0,0.8315,,,,,,,,0,101,101,41,1
,,,,,,,,,,,,,,,,,5e38e79295ff561112eae457,36,2022-02-12_15h08.15.494,lexical_decision_task_DD_L4,2021.2.3,Win32,59.93766483,,,,,,,,,,,0.7175,1,,,,,,,,,,,,,,,,,,,,,,,,0.840740741,-0.217592593,0,0,0,,,,,,,CRUST,HB,z,y,./images/CRUSTHB.png,,,,,,,,,,,,,,,,,,,,,z,1,0.7175,,,,,,,,0,102,102,163,1
,,,,,,,,,,,,,,,,,5e38e79295ff561112eae457,36,2022-02-12_15h08.15.494,lexical_decision_task_DD_L4,2021.2.3,Win32,59.93766483,,,,,,,,,,,0.62,1,,,,,,,,,,,,,,,,,,,,,,,,0.840740741,-0.217592593,0,0,0,,,,,,,BANANA,HB,m,y,./images/BANANAHB.png,,,,,,,,,,,,,,,,,,,,,m,1,0.62,,,,,,,,0,103,103,70,1
,,,,,,,,,,,,,,,,,5e38e79295ff561112eae457,36,2022-02-12_15h08.15.494,lexical_decision_task_DD_L4,2021.2.3,Win32,59.93766483,,,,,,,,,,,0.7362,1,,,,,,,,,,,,,,,,,,,,,,,,0.840740741,-0.217592593,0,0,0,,,,,,,BABOON,HB,z,y,./images/BABOONHB.png,,,,,,,,,,,,,,,,,,,,,z,1,0.7362,,,,,,,,0,104,104,142,1
,,,,,,,,,,,,,,,,,5e38e79295ff561112eae457,36,2022-02-12_15h08.15.494,lexical_decision_task_DD_L4,2021.2.3,Win32,59.93766483,,,,,,,,,,,0.6236,1,,,,,,,,,,,,,,,,,,,,,,,,0.840740741,-0.217592593,0,0,0,,,,,,,CANOE,HB,m,y,./images/CANOEHB.png,,,,,,,,,,,,,,,,,,,,,m,1,0.6236,,,,,,,,0,105,105,58,1
,,,,,,,,,,,,,,,,,5e38e79295ff561112eae457,36,2022-02-12_15h08.15.494,lexical_decision_task_DD_L4,2021.2.3,Win32,59.93766483,,,,,,,,,,,0.6197,1,,,,,,,,,,,,,,,,,,,,,,,,0.840740741,-0.217592593,0,0,0,,,,,,,BOXER,HB,m,y,./images/BOXERHB.png,,,,,,,,,,,,,,,,,,,,,m,1,0.6197,,,,,,,,0,106,106,4,1
,,,,,,,,,,,,,,,,,5e38e79295ff561112eae457,36,2022-02-12_15h08.15.494,lexical_decision_task_DD_L4,2021.2.3,Win32,59.93766483,,,,,,,,,,,0.8638,1,,,,,,,,,,,,,,,,,,,,,,,,0.840740741,-0.217592593,0,0,0,,,,,,,MUFFIN,HB,z,y,./images/MUFFINHB.png,,,,,,,,,,,,,,,,,,,,,z,1,0.8638,,,,,,,,0,107,107,139,1
,,,,,,,,,,,,,,,,,5e38e79295ff561112eae457,36,2022-02-12_15h08.15.494,lexical_decision_task_DD_L4,2021.2.3,Win32,59.93766483,,,,,,,,,,,0.6022,1,,,,,,,,,,,,,,,,,,,,,,,,0.840740741,-0.217592593,0,0,0,,,,,,,BLOKE,C,m,y,./images/BLOKE.png,,,,,,,,,,,,,,,,,,,,,m,1,0.6022,,,,,,,,0,108,108,12,1
,,,,,,,,,,,,,,,,,5e38e79295ff561112eae457,36,2022-02-12_15h08.15.494,lexical_decision_task_DD_L4,2021.2.3,Win32,59.93766483,,,,,,,,,,,0.6469,1,,,,,,,,,,,,,,,,,,,,,,,,0.840740741,-0.217592593,0,0,0,,,,,,,LLAMA,LB,m,y,./images/LLAMALB.png,,,,,,,,,,,,,,,,,,,,,m,1,0.6469,,,,,,,,0,109,109,35,1
,,,,,,,,,,,,,,,,,5e38e79295ff561112eae457,36,2022-02-12_15h08.15.494,lexical_decision_task_DD_L4,2021.2.3,Win32,59.93766483,,,,,,,,,,,0.6184,1,,,,,,,,,,,,,,,,,,,,,,,,0.840740741,-0.217592593,0,0,0,,,,,,,TOWEL,HB,m,y,./images/TOWELHB.png,,,,,,,,,,,,,,,,,,,,,m,1,0.6184,,,,,,,,0,110,110,1,1
,,,,,,,,,,,,,,,,,5e38e79295ff561112eae457,36,2022-02-12_15h08.15.494,lexical_decision_task_DD_L4,2021.2.3,Win32,59.93766483,,,,,,,,,,,0.7986,0,,,,,,,,,,,,,,,,,,,,,,,,0.840740741,-0.217592593,0,0,0,,,,,,,CHALK,HB,m,y,./images/CHALKHB.png,,,,,,,,,,,,,,,,,,,,,z,0,0.7986,,,,,,,,0,111,111,25,1
,,,,,,,,,,,,,,,,,5e38e79295ff561112eae457,36,2022-02-12_15h08.15.494,lexical_decision_task_DD_L4,2021.2.3,Win32,59.93766483,,,,,,,,,,,0.652,1,,,,,,,,,,,,,,,,,,,,,,,,0.840740741,-0.217592593,0,0,0,,,,,,,CANDY,C,m,y,./images/CANDY.png,,,,,,,,,,,,,,,,,,,,,m,1,0.652,,,,,,,,0,112,112,39,1
,,,,,,,,,,,,,,,,,5e38e79295ff561112eae457,36,2022-02-12_15h08.15.494,lexical_decision_task_DD_L4,2021.2.3,Win32,59.93766483,,,,,,,,,,,0.6306,1,,,,,,,,,,,,,,,,,,,,,,,,0.840740741,-0.217592593,0,0,0,,,,,,,FLESH,C,m,y,./images/FLESH.png,,,,,,,,,,,,,,,,,,,,,m,1,0.6306,,,,,,,,0,113,113,24,1
,,,,,,,,,,,,,,,,,5e38e79295ff561112eae457,36,2022-02-12_15h08.15.494,lexical_decision_task_DD_L4,2021.2.3,Win32,59.93766483,,,,,,,,,,,0.5788,1,,,,,,,,,,,,,,,,,,,,,,,,0.840740741,-0.217592593,0,0,0,,,,,,,CHAIN,C,m,y,./images/CHAIN.png,,,,,,,,,,,,,,,,,,,,,m,1,0.5788,,,,,,,,0,114,114,42,1
,,,,,,,,,,,,,,,,,5e38e79295ff561112eae457,36,2022-02-12_15h08.15.494,lexical_decision_task_DD_L4,2021.2.3,Win32,59.93766483,,,,,,,,,,,0.6729,1,,,,,,,,,,,,,,,,,,,,,,,,0.840740741,-0.217592593,0,0,0,,,,,,,MUMMY,HB,m,y,./images/MUMMYHB.png,,,,,,,,,,,,,,,,,,,,,m,1,0.6729,,,,,,,,0,115,115,46,1
,,,,,,,,,,,,,,,,,5e38e79295ff561112eae457,36,2022-02-12_15h08.15.494,lexical_decision_task_DD_L4,2021.2.3,Win32,59.93766483,,,,,,,,,,,0.6108,1,,,,,,,,,,,,,,,,,,,,,,,,0.840740741,-0.217592593,0,0,0,,,,,,,ALLEY,HB,m,y,./images/ALLEYHB.png,,,,,,,,,,,,,,,,,,,,,m,1,0.6108,,,,,,,,0,116,116,55,1
,,,,,,,,,,,,,,,,,5e38e79295ff561112eae457,36,2022-02-12_15h08.15.494,lexical_decision_task_DD_L4,2021.2.3,Win32,59.93766483,,,,,,,,,,,0.8477,1,,,,,,,,,,,,,,,,,,,,,,,,0.840740741,-0.217592593,0,0,0,,,,,,,BAMBOO,LB,m,y,./images/BAMBOOLB.png,,,,,,,,,,,,,,,,,,,,,m,1,0.8477,,,,,,,,0,117,117,5,1
,,,,,,,,,,,,,,,,,5e38e79295ff561112eae457,36,2022-02-12_15h08.15.494,lexical_decision_task_DD_L4,2021.2.3,Win32,59.93766483,,,,,,,,,,,0.6191,1,,,,,,,,,,,,,,,,,,,,,,,,0.840740741,-0.217592593,0,0,0,,,,,,,STATUE,C,m,y,./images/STATUE.png,,,,,,,,,,,,,,,,,,,,,m,1,0.6191,,,,,,,,0,118,118,66,1
,,,,,,,,,,,,,,,,,5e38e79295ff561112eae457,36,2022-02-12_15h08.15.494,lexical_decision_task_DD_L4,2021.2.3,Win32,59.93766483,,,,,,,,,,,0.639,1,,,,,,,,,,,,,,,,,,,,,,,,0.840740741,-0.217592593,0,0,0,,,,,,,CRATER,C,m,y,./images/CRATER.png,,,,,,,,,,,,,,,,,,,,,m,1,0.639,,,,,,,,0,119,119,3,1
,,,,,,,,,,,,,,,,,5e38e79295ff561112eae457,36,2022-02-12_15h08.15.494,lexical_decision_task_DD_L4,2021.2.3,Win32,59.93766483,,,,,,,,,,,0.7865,1,,,,,,,,,,,,,,,,,,,,,,,,0.840740741,-0.217592593,0,0,0,,,,,,,BRIDE,HB,m,y,./images/BRIDEHB.png,,,,,,,,,,,,,,,,,,,,,m,1,0.7865,,,,,,,,0,120,120,64,1
,,,,,,,,,,,,,,,,,5e38e79295ff561112eae457,36,2022-02-12_15h08.15.494,lexical_decision_task_DD_L4,2021.2.3,Win32,59.93766483,,,,,,,,,,,0.6005,1,,,,,,,,,,,,,,,,,,,,,,,,0.840740741,-0.217592593,0,0,0,,,,,,,HOCKEY,LB,m,y,./images/HOCKEYLB.png,,,,,,,,,,,,,,,,,,,,,m,1,0.6005,,,,,,,,0,121,121,32,1
,,,,,,,,,,,,,,,,,5e38e79295ff561112eae457,36,2022-02-12_15h08.15.494,lexical_decision_task_DD_L4,2021.2.3,Win32,59.93766483,,,,,,,,,,,0.5726,1,,,,,,,,,,,,,,,,,,,,,,,,0.840740741,-0.217592593,0,0,0,,,,,,,FLASK,C,m,y,./images/FLASK.png,,,,,,,,,,,,,,,,,,,,,m,1,0.5726,,,,,,,,0,122,122,72,1
,,,,,,,,,,,,,,,,,5e38e79295ff561112eae457,36,2022-02-12_15h08.15.494,lexical_decision_task_DD_L4,2021.2.3,Win32,59.93766483,,,,,,,,,,,1.4188,1,,,,,,,,,,,,,,,,,,,,,,,,0.840740741,-0.217592593,0,0,0,,,,,,,FARMER,LB,z,y,./images/FARMERLB.png,,,,,,,,,,,,,,,,,,,,,z,1,1.4188,,,,,,,,0,123,123,149,1
,,,,,,,,,,,,,,,,,5e38e79295ff561112eae457,36,2022-02-12_15h08.15.494,lexical_decision_task_DD_L4,2021.2.3,Win32,59.93766483,,,,,,,,,,,0.782,1,,,,,,,,,,,,,,,,,,,,,,,,0.840740741,-0.217592593,0,0,0,,,,,,,ATTIC,C,z,y,./images/ATTIC.png,,,,,,,,,,,,,,,,,,,,,z,1,0.782,,,,,,,,0,124,124,111,1
,,,,,,,,,,,,,,,,,5e38e79295ff561112eae457,36,2022-02-12_15h08.15.494,lexical_decision_task_DD_L4,2021.2.3,Win32,59.93766483,,,,,,,,,,,0.9799,1,,,,,,,,,,,,,,,,,,,,,,,,0.840740741,-0.217592593,0,0,0,space,,,,,,WRIST,HB,z,y,./images/WRISTHB.png,9.3707,,,,,,,,,,,,,,,,,,,,z,1,0.9799,,,,,,,,0,125,125,109,1
,,,,,,,,,,,,,,,,,5e38e79295ff561112eae457,36,2022-02-12_15h08.15.494,lexical_decision_task_DD_L4,2021.2.3,Win32,59.93766483,,,,,,,,,,,1.0488,1,,,,,,,,,,,,,,,,,,,,,,,,0.840740741,-0.217592593,0,0,0,,,,,,,CLOUD,LB,m,y,./images/CLOUDLB.png,,,,,,,,,,,,,,,,,,,,,m,1,1.0488,,,,,,,,0,126,126,26,1
,,,,,,,,,,,,,,,,,5e38e79295ff561112eae457,36,2022-02-12_15h08.15.494,lexical_decision_task_DD_L4,2021.2.3,Win32,59.93766483,,,,,,,,,,,0.6278,1,,,,,,,,,,,,,,,,,,,,,,,,0.840740741,-0.217592593,0,0,0,,,,,,,DOUGH,HB,z,y,./images/DOUGHHB.png,,,,,,,,,,,,,,,,,,,,,z,1,0.6278,,,,,,,,0,127,127,103,1
,,,,,,,,,,,,,,,,,5e38e79295ff561112eae457,36,2022-02-12_15h08.15.494,lexical_decision_task_DD_L4,2021.2.3,Win32,59.93766483,,,,,,,,,,,0.7039,1,,,,,,,,,,,,,,,,,,,,,,,,0.840740741,-0.217592593,0,0,0,,,,,,,PISTOL,LB,m,y,./images/PISTOLLB.png,,,,,,,,,,,,,,,,,,,,,m,1,0.7039,,,,,,,,0,128,128,29,1
,,,,,,,,,,,,,,,,,5e38e79295ff561112eae457,36,2022-02-12_15h08.15.494,lexical_decision_task_DD_L4,2021.2.3,Win32,59.93766483,,,,,,,,,,,0.6886,1,,,,,,,,,,,,,,,,,,,,,,,,0.840740741,-0.217592593,0,0,0,,,,,,,PIMPLE,LB,z,y,./images/PIMPLELB.png,,,,,,,,,,,,,,,,,,,,,z,1,0.6886,,,,,,,,0,129,129,155,1
,,,,,,,,,,,,,,,,,5e38e79295ff561112eae457,36,2022-02-12_15h08.15.494,lexical_decision_task_DD_L4,2021.2.3,Win32,59.93766483,,,,,,,,,,,0.802,1,,,,,,,,,,,,,,,,,,,,,,,,0.840740741,-0.217592593,0,0,0,,,,,,,STOOL,HB,m,y,./images/STOOLHB.png,,,,,,,,,,,,,,,,,,,,,m,1,0.802,,,,,,,,0,130,130,43,1
,,,,,,,,,,,,,,,,,5e38e79295ff561112eae457,36,2022-02-12_15h08.15.494,lexical_decision_task_DD_L4,2021.2.3,Win32,59.93766483,,,,,,,,,,,0.8306,1,,,,,,,,,,,,,,,,,,,,,,,,0.840740741,-0.217592593,0,0,0,,,,,,,WALNUT,C,m,y,./images/WALNUT.png,,,,,,,,,,,,,,,,,,,,,m,1,0.8306,,,,,,,,0,131,131,0,1
