key_resp.keys,instr_done_touch.x,instr_done_touch.y,instr_done_touch.leftButton,instr_done_touch.midButton,instr_done_touch.rightButton,instr_done_touch.clicked_name,instruction_pages.thisRepN,instruction_pages.thisTrialN,instruction_pages.thisN,instruction_pages.thisIndex,instruction_pages.ran,pageN,phase,instruct_text,has_image,instruct_image,participant,age,date,expName,psychopyVersion,OS,frameRate,response.keys,response.corr,response.rt,touch_resp.x,touch_resp.y,touch_resp.leftButton,touch_resp.midButton,touch_resp.rightButton,touch_resp.time,touch_resp.clicked_name,rt,corr,practrials.thisRepN,practrials.thisTrialN,practrials.thisN,practrials.thisIndex,practrials.ran,TrialID,Target,corrAns,key_resp.rt,end_of_practice_trials_pages.thisRepN,end_of_practice_trials_pages.thisTrialN,end_of_practice_trials_pages.thisN,end_of_practice_trials_pages.thisIndex,end_of_practice_trials_pages.ran,key_resp_2.keys,key_resp_2.corr,key_resp_2.rt,targ_click.x,targ_click.y,targ_click.leftButton,targ_click.midButton,targ_click.rightButton,targ_click.time,targ_click.clicked_name,break_done_touch.x,break_done_touch.y,break_done_touch.leftButton,break_done_touch.midButton,break_done_touch.rightButton,break_done_keyboard.keys,maintrials.thisRepN,maintrials.thisTrialN,maintrials.thisN,maintrials.thisIndex,maintrials.ran,string,blur,study,lex,stim_path,break_done_touch.clicked_name,mouse_2.x,mouse_2.y,mouse_2.leftButton,mouse_2.midButton,mouse_2.rightButton,mouse_2.clicked_name,slider.response,slider.rt,trials.thisRepN,trials.thisTrialN,trials.thisN,trials.thisIndex,trials.ran,test_instructions.thisRepN,test_instructions.thisTrialN,test_instructions.thisN,test_instructions.thisIndex,test_instructions.ran,key_resp_3.keys,key_resp_3.corr,key_resp_3.rt,test_click.x,test_click.y,test_click.leftButton,test_click.midButton,test_click.rightButton,test_click.time,test_click.clicked_name,test_phase.thisRepN,test_phase.thisTrialN,test_phase.thisN,test_phase.thisIndex,test_phase.ran
,0.069319805,-0.365991241,1,0,0,instr_done_button,0,0,0,0,1,1,instructions,"INSTRUCTIONS
At the start of each trial, look at the plus sign  (+) in the center of the screen.  This tells you that a trial is about to begin and where to look. Second, the plus sign will disappear and a string of letters will appear. Your task is to determine if the string of letters is a word or not. If the item is a word press the M key (on keyboard)  or touch the word button (phone/tablet).  If the item is not a word,  press the  Z key (on keyboard)  or touch the nonword button (on phone/tablet). 
Press the space bar or touch  continue.",0,,60ffbc4214cb2255dd442bc8,25,2022-02-12_14h58.33.325,lexical_decision_task_DD_L4,2021.2.3,Win32,59.71575302,,,,,,,,,,,,,,,,,,,,,,,,,,,,,,,,,,,,,,,,,,,,,,,,,,,,,,,,,,,,,,,,,,,,,,,,,,,,,,,,,,,,,,
,0.069319805,-0.365991241,1,0,0,instr_done_button,0,1,1,1,1,2,instructions,"If your device has a keyboard, press the 'Z' key for nonwords and the 'M' key for words.





Press the space bar or touch the button below to continue.",0,keyboard-example.gif,60ffbc4214cb2255dd442bc8,25,2022-02-12_14h58.33.325,lexical_decision_task_DD_L4,2021.2.3,Win32,59.71575302,,,,,,,,,,,,,,,,,,,,,,,,,,,,,,,,,,,,,,,,,,,,,,,,,,,,,,,,,,,,,,,,,,,,,,,,,,,,,,,,,,,,,,
,0.069319805,-0.365991241,1,0,0,instr_done_button,0,2,2,2,1,3,instructions,"If you are using a touchscreen only device, use the buttons on the screen. Do not use the mouse.





Press the space bar or touch the button below to continue.",0,touchscreen-example.gif,60ffbc4214cb2255dd442bc8,25,2022-02-12_14h58.33.325,lexical_decision_task_DD_L4,2021.2.3,Win32,59.71575302,,,,,,,,,,,,,,,,,,,,,,,,,,,,,,,,,,,,,,,,,,,,,,,,,,,,,,,,,,,,,,,,,,,,,,,,,,,,,,,,,,,,,,
,0.069319805,-0.365991241,1,0,0,instr_done_button,0,3,3,3,1,4,instructions,"It is very important that you respond as quickly and accurately as possible, as each letter string will only be on the screen for two seconds. If you do not respond within this time, the message 'Too slow!' will be displayed and the experiment will progress to the next letter string. The first 20 trials will be practice trials and you will receive feedback on your answers. 

Press the space bar or touch the button below to start the practice trials.",0,,60ffbc4214cb2255dd442bc8,25,2022-02-12_14h58.33.325,lexical_decision_task_DD_L4,2021.2.3,Win32,59.71575302,,,,,,,,,,,,,,,,,,,,,,,,,,,,,,,,,,,,,,,,,,,,,,,,,,,,,,,,,,,,,,,,,,,,,,,,,,,,,,,,,,,,,,
,,,,,,,,,,,,,,,,,60ffbc4214cb2255dd442bc8,25,2022-02-12_14h58.33.325,lexical_decision_task_DD_L4,2021.2.3,Win32,59.71575302,z,1,3.6895,,,,,,,,3.6895,1,0,0,0,9,1,1001,FARINY,z,,,,,,,,,,,,,,,,,,,,,,,,,,,,,,,,,,,,,,,,,,,,,,,,,,,,,,,,,,,,,,,,,,
,,,,,,,,,,,,,,,,,60ffbc4214cb2255dd442bc8,25,2022-02-12_14h58.33.325,lexical_decision_task_DD_L4,2021.2.3,Win32,59.71575302,m,1,2.1993,,,,,,,,2.1993,1,0,1,1,5,1,1001,OBTAIN,m,,,,,,,,,,,,,,,,,,,,,,,,,,,,,,,,,,,,,,,,,,,,,,,,,,,,,,,,,,,,,,,,,,
,,,,,,,,,,,,,,,,,60ffbc4214cb2255dd442bc8,25,2022-02-12_14h58.33.325,lexical_decision_task_DD_L4,2021.2.3,Win32,59.71575302,m,1,1.1323,,,,,,,,1.1323,1,0,2,2,7,1,1001,VOLUME,m,,,,,,,,,,,,,,,,,,,,,,,,,,,,,,,,,,,,,,,,,,,,,,,,,,,,,,,,,,,,,,,,,,
,,,,,,,,,,,,,,,,,60ffbc4214cb2255dd442bc8,25,2022-02-12_14h58.33.325,lexical_decision_task_DD_L4,2021.2.3,Win32,59.71575302,m,0,1.2537,,,,,,,,1.2537,0,0,3,3,13,1,1001,ROUPET,z,,,,,,,,,,,,,,,,,,,,,,,,,,,,,,,,,,,,,,,,,,,,,,,,,,,,,,,,,,,,,,,,,,
,,,,,,,,,,,,,,,,,60ffbc4214cb2255dd442bc8,25,2022-02-12_14h58.33.325,lexical_decision_task_DD_L4,2021.2.3,Win32,59.71575302,m,1,0.8224,,,,,,,,0.8224,1,0,4,4,0,1,1001,UTOPIA,m,,,,,,,,,,,,,,,,,,,,,,,,,,,,,,,,,,,,,,,,,,,,,,,,,,,,,,,,,,,,,,,,,,
,,,,,,,,,,,,,,,,,60ffbc4214cb2255dd442bc8,25,2022-02-12_14h58.33.325,lexical_decision_task_DD_L4,2021.2.3,Win32,59.71575302,z,1,0.8278,,,,,,,,0.8278,1,0,5,5,8,1,1001,ASLERT,z,,,,,,,,,,,,,,,,,,,,,,,,,,,,,,,,,,,,,,,,,,,,,,,,,,,,,,,,,,,,,,,,,,
,,,,,,,,,,,,,,,,,60ffbc4214cb2255dd442bc8,25,2022-02-12_14h58.33.325,lexical_decision_task_DD_L4,2021.2.3,Win32,59.71575302,m,1,0.7108,,,,,,,,0.7108,1,0,6,6,1,1,1001,ADJUST,m,,,,,,,,,,,,,,,,,,,,,,,,,,,,,,,,,,,,,,,,,,,,,,,,,,,,,,,,,,,,,,,,,,
,,,,,,,,,,,,,,,,,60ffbc4214cb2255dd442bc8,25,2022-02-12_14h58.33.325,lexical_decision_task_DD_L4,2021.2.3,Win32,59.71575302,m,1,0.767,,,,,,,,0.767,1,0,7,7,3,1,1001,MATRIX,m,,,,,,,,,,,,,,,,,,,,,,,,,,,,,,,,,,,,,,,,,,,,,,,,,,,,,,,,,,,,,,,,,,
,,,,,,,,,,,,,,,,,60ffbc4214cb2255dd442bc8,25,2022-02-12_14h58.33.325,lexical_decision_task_DD_L4,2021.2.3,Win32,59.71575302,m,1,0.5616,,,,,,,,0.5616,1,0,8,8,6,1,1001,ZOMBIE,m,,,,,,,,,,,,,,,,,,,,,,,,,,,,,,,,,,,,,,,,,,,,,,,,,,,,,,,,,,,,,,,,,,
,,,,,,,,,,,,,,,,,60ffbc4214cb2255dd442bc8,25,2022-02-12_14h58.33.325,lexical_decision_task_DD_L4,2021.2.3,Win32,59.71575302,z,1,0.8308,,,,,,,,0.8308,1,0,9,9,14,1,1001,THRALE,z,,,,,,,,,,,,,,,,,,,,,,,,,,,,,,,,,,,,,,,,,,,,,,,,,,,,,,,,,,,,,,,,,,
,,,,,,,,,,,,,,,,,60ffbc4214cb2255dd442bc8,25,2022-02-12_14h58.33.325,lexical_decision_task_DD_L4,2021.2.3,Win32,59.71575302,z,1,0.7115,,,,,,,,0.7115,1,0,10,10,15,1,1001,WHAISE,z,,,,,,,,,,,,,,,,,,,,,,,,,,,,,,,,,,,,,,,,,,,,,,,,,,,,,,,,,,,,,,,,,,
,,,,,,,,,,,,,,,,,60ffbc4214cb2255dd442bc8,25,2022-02-12_14h58.33.325,lexical_decision_task_DD_L4,2021.2.3,Win32,59.71575302,m,1,0.6655,,,,,,,,0.6655,1,0,11,11,2,1,1001,ALMOND,m,,,,,,,,,,,,,,,,,,,,,,,,,,,,,,,,,,,,,,,,,,,,,,,,,,,,,,,,,,,,,,,,,,
,,,,,,,,,,,,,,,,,60ffbc4214cb2255dd442bc8,25,2022-02-12_14h58.33.325,lexical_decision_task_DD_L4,2021.2.3,Win32,59.71575302,z,1,1.4735,,,,,,,,1.4735,1,0,12,12,12,1,1001,SPRINY,z,,,,,,,,,,,,,,,,,,,,,,,,,,,,,,,,,,,,,,,,,,,,,,,,,,,,,,,,,,,,,,,,,,
,,,,,,,,,,,,,,,,,60ffbc4214cb2255dd442bc8,25,2022-02-12_14h58.33.325,lexical_decision_task_DD_L4,2021.2.3,Win32,59.71575302,z,1,1.0059,,,,,,,,1.0059,1,0,13,13,11,1,1001,RASHET,z,,,,,,,,,,,,,,,,,,,,,,,,,,,,,,,,,,,,,,,,,,,,,,,,,,,,,,,,,,,,,,,,,,
,,,,,,,,,,,,,,,,,60ffbc4214cb2255dd442bc8,25,2022-02-12_14h58.33.325,lexical_decision_task_DD_L4,2021.2.3,Win32,59.71575302,m,1,0.711,,,,,,,,0.711,1,0,14,14,4,1,1001,SQUEAK,m,,,,,,,,,,,,,,,,,,,,,,,,,,,,,,,,,,,,,,,,,,,,,,,,,,,,,,,,,,,,,,,,,,
,,,,,,,,,,,,,,,,,60ffbc4214cb2255dd442bc8,25,2022-02-12_14h58.33.325,lexical_decision_task_DD_L4,2021.2.3,Win32,59.71575302,z,1,1.0458,,,,,,,,1.0458,1,0,15,15,10,1,1001,INLADE,z,,,,,,,,,,,,,,,,,,,,,,,,,,,,,,,,,,,,,,,,,,,,,,,,,,,,,,,,,,,,,,,,,,
space,0.001707707,-0.404891498,0,0,0,,,,,,,1,end_of_practice,"You have completed the practice trials. During the experimental trials, you will not receive feedback. 
Before you begin, please ensure that you are in a comfortable and quiet location and will not be disturbed for about 15 minutes, as we cannot use your data if you do not complete all the trials. 
 When you are ready to start the experimental trials, please press space or touch the button below.",,,60ffbc4214cb2255dd442bc8,25,2022-02-12_14h58.33.325,lexical_decision_task_DD_L4,2021.2.3,Win32,59.71575302,,,,,,,,,,,,,,,,,,,,,29.953,0,0,0,0,1,,,,,,,,,,,,,,,,,,,,,,,,,,,,,,,,,,,,,,,,,,,,,,,,,,,,,,,,,,,,
,,,,,,,,,,,,,,,,,60ffbc4214cb2255dd442bc8,25,2022-02-12_14h58.33.325,lexical_decision_task_DD_L4,2021.2.3,Win32,59.71575302,,,,,,,,,,,1.2981,1,,,,,,,,,,,,,,,z,1,1.2981,,,,,,,,0.001707707,-0.404891498,0,0,0,,0,0,0,102,1,DULLE,C,old,z,./images/DULLE.png,,,,,,,,,,,,,,,,,,,,,,,,,,,,,,,,,,
,,,,,,,,,,,,,,,,,60ffbc4214cb2255dd442bc8,25,2022-02-12_14h58.33.325,lexical_decision_task_DD_L4,2021.2.3,Win32,59.71575302,,,,,,,,,,,0.8978,1,,,,,,,,,,,,,,,m,1,0.8978,,,,,,,,0.001707707,-0.404891498,0,0,0,,0,1,1,14,1,FENCE,LB,old,m,./images/FENCELB.png,,,,,,,,,,,,,,,,,,,,,,,,,,,,,,,,,,
,,,,,,,,,,,,,,,,,60ffbc4214cb2255dd442bc8,25,2022-02-12_14h58.33.325,lexical_decision_task_DD_L4,2021.2.3,Win32,59.71575302,,,,,,,,,,,0.6933,1,,,,,,,,,,,,,,,m,1,0.6933,,,,,,,,0.001707707,-0.404891498,0,0,0,,0,2,2,63,1,BAKER,C,old,m,./images/BAKER.png,,,,,,,,,,,,,,,,,,,,,,,,,,,,,,,,,,
,,,,,,,,,,,,,,,,,60ffbc4214cb2255dd442bc8,25,2022-02-12_14h58.33.325,lexical_decision_task_DD_L4,2021.2.3,Win32,59.71575302,,,,,,,,,,,0.7964,1,,,,,,,,,,,,,,,z,1,0.7964,,,,,,,,0.001707707,-0.404891498,0,0,0,,0,3,3,90,1,NEAST,C,old,z,./images/NEAST.png,,,,,,,,,,,,,,,,,,,,,,,,,,,,,,,,,,
,,,,,,,,,,,,,,,,,60ffbc4214cb2255dd442bc8,25,2022-02-12_14h58.33.325,lexical_decision_task_DD_L4,2021.2.3,Win32,59.71575302,,,,,,,,,,,1.1405,1,,,,,,,,,,,,,,,z,1,1.1405,,,,,,,,0.001707707,-0.404891498,0,0,0,,0,4,4,156,1,HIXES,C,old,z,./images/HIXES.png,,,,,,,,,,,,,,,,,,,,,,,,,,,,,,,,,,
,,,,,,,,,,,,,,,,,60ffbc4214cb2255dd442bc8,25,2022-02-12_14h58.33.325,lexical_decision_task_DD_L4,2021.2.3,Win32,59.71575302,,,,,,,,,,,0.7629,1,,,,,,,,,,,,,,,m,1,0.7629,,,,,,,,0.001707707,-0.404891498,0,0,0,,0,5,5,55,1,ALLEY,HB,old,m,./images/ALLEYHB.png,,,,,,,,,,,,,,,,,,,,,,,,,,,,,,,,,,
,,,,,,,,,,,,,,,,,60ffbc4214cb2255dd442bc8,25,2022-02-12_14h58.33.325,lexical_decision_task_DD_L4,2021.2.3,Win32,59.71575302,,,,,,,,,,,1.3547,1,,,,,,,,,,,,,,,m,1,1.3547,,,,,,,,0.001707707,-0.404891498,0,0,0,,0,6,6,19,1,DONKEY,HB,old,m,./images/DONKEYHB.png,,,,,,,,,,,,,,,,,,,,,,,,,,,,,,,,,,
,,,,,,,,,,,,,,,,,60ffbc4214cb2255dd442bc8,25,2022-02-12_14h58.33.325,lexical_decision_task_DD_L4,2021.2.3,Win32,59.71575302,,,,,,,,,,,0.7067,0,,,,,,,,,,,,,,,z,0,0.7067,,,,,,,,0.001707707,-0.404891498,0,0,0,,0,7,7,33,1,SAUNA,C,old,m,./images/SAUNA.png,,,,,,,,,,,,,,,,,,,,,,,,,,,,,,,,,,
,,,,,,,,,,,,,,,,,60ffbc4214cb2255dd442bc8,25,2022-02-12_14h58.33.325,lexical_decision_task_DD_L4,2021.2.3,Win32,59.71575302,,,,,,,,,,,0.6403,1,,,,,,,,,,,,,,,m,1,0.6403,,,,,,,,0.001707707,-0.404891498,0,0,0,,0,8,8,39,1,CANDY,C,old,m,./images/CANDY.png,,,,,,,,,,,,,,,,,,,,,,,,,,,,,,,,,,
,,,,,,,,,,,,,,,,,60ffbc4214cb2255dd442bc8,25,2022-02-12_14h58.33.325,lexical_decision_task_DD_L4,2021.2.3,Win32,59.71575302,,,,,,,,,,,1.0157,1,,,,,,,,,,,,,,,m,1,1.0157,,,,,,,,0.001707707,-0.404891498,0,0,0,,0,9,9,72,1,FLASK,C,old,m,./images/FLASK.png,,,,,,,,,,,,,,,,,,,,,,,,,,,,,,,,,,
,,,,,,,,,,,,,,,,,60ffbc4214cb2255dd442bc8,25,2022-02-12_14h58.33.325,lexical_decision_task_DD_L4,2021.2.3,Win32,59.71575302,,,,,,,,,,,1.144,1,,,,,,,,,,,,,,,z,1,1.144,,,,,,,,0.001707707,-0.404891498,0,0,0,,0,10,10,107,1,FASKS,LB,old,z,./images/FASKSLB.png,,,,,,,,,,,,,,,,,,,,,,,,,,,,,,,,,,
,,,,,,,,,,,,,,,,,60ffbc4214cb2255dd442bc8,25,2022-02-12_14h58.33.325,lexical_decision_task_DD_L4,2021.2.3,Win32,59.71575302,,,,,,,,,,,0.733,1,,,,,,,,,,,,,,,m,1,0.733,,,,,,,,0.001707707,-0.404891498,0,0,0,,0,11,11,6,1,STAIN,C,old,m,./images/STAIN.png,,,,,,,,,,,,,,,,,,,,,,,,,,,,,,,,,,
,,,,,,,,,,,,,,,,,60ffbc4214cb2255dd442bc8,25,2022-02-12_14h58.33.325,lexical_decision_task_DD_L4,2021.2.3,Win32,59.71575302,,,,,,,,,,,1.124,0,,,,,,,,,,,,,,,m,0,1.124,,,,,,,,0.001707707,-0.404891498,0,0,0,,0,12,12,104,1,GITTY,LB,old,z,./images/GITTYLB.png,,,,,,,,,,,,,,,,,,,,,,,,,,,,,,,,,,
,,,,,,,,,,,,,,,,,60ffbc4214cb2255dd442bc8,25,2022-02-12_14h58.33.325,lexical_decision_task_DD_L4,2021.2.3,Win32,59.71575302,,,,,,,,,,,0.9153,1,,,,,,,,,,,,,,,m,1,0.9153,,,,,,,,0.001707707,-0.404891498,0,0,0,,0,13,13,12,1,BLOKE,C,old,m,./images/BLOKE.png,,,,,,,,,,,,,,,,,,,,,,,,,,,,,,,,,,
,,,,,,,,,,,,,,,,,60ffbc4214cb2255dd442bc8,25,2022-02-12_14h58.33.325,lexical_decision_task_DD_L4,2021.2.3,Win32,59.71575302,,,,,,,,,,,0.8005,1,,,,,,,,,,,,,,,z,1,0.8005,,,,,,,,0.001707707,-0.404891498,0,0,0,,0,14,14,105,1,MOKER,C,old,z,./images/MOKER.png,,,,,,,,,,,,,,,,,,,,,,,,,,,,,,,,,,
,,,,,,,,,,,,,,,,,60ffbc4214cb2255dd442bc8,25,2022-02-12_14h58.33.325,lexical_decision_task_DD_L4,2021.2.3,Win32,59.71575302,,,,,,,,,,,0.6767,0,,,,,,,,,,,,,,,m,0,0.6767,,,,,,,,0.001707707,-0.404891498,0,0,0,,0,15,15,88,1,GLUSH,HB,old,z,./images/GLUSHHB.png,,,,,,,,,,,,,,,,,,,,,,,,,,,,,,,,,,
,,,,,,,,,,,,,,,,,60ffbc4214cb2255dd442bc8,25,2022-02-12_14h58.33.325,lexical_decision_task_DD_L4,2021.2.3,Win32,59.71575302,,,,,,,,,,,0.9271,1,,,,,,,,,,,,,,,m,1,0.9271,,,,,,,,0.001707707,-0.404891498,0,0,0,,0,16,16,46,1,MUMMY,HB,old,m,./images/MUMMYHB.png,,,,,,,,,,,,,,,,,,,,,,,,,,,,,,,,,,
,,,,,,,,,,,,,,,,,60ffbc4214cb2255dd442bc8,25,2022-02-12_14h58.33.325,lexical_decision_task_DD_L4,2021.2.3,Win32,59.71575302,,,,,,,,,,,1.0801,1,,,,,,,,,,,,,,,z,1,1.0801,,,,,,,,0.001707707,-0.404891498,0,0,0,,0,17,17,103,1,FLORT,HB,old,z,./images/FLORTHB.png,,,,,,,,,,,,,,,,,,,,,,,,,,,,,,,,,,
,,,,,,,,,,,,,,,,,60ffbc4214cb2255dd442bc8,25,2022-02-12_14h58.33.325,lexical_decision_task_DD_L4,2021.2.3,Win32,59.71575302,,,,,,,,,,,0.7248,1,,,,,,,,,,,,,,,m,1,0.7248,,,,,,,,0.001707707,-0.404891498,0,0,0,,0,18,18,44,1,BASKET,LB,old,m,./images/BASKETLB.png,,,,,,,,,,,,,,,,,,,,,,,,,,,,,,,,,,
,,,,,,,,,,,,,,,,,60ffbc4214cb2255dd442bc8,25,2022-02-12_14h58.33.325,lexical_decision_task_DD_L4,2021.2.3,Win32,59.71575302,,,,,,,,,,,0.7641,1,,,,,,,,,,,,,,,z,1,0.7641,,,,,,,,0.001707707,-0.404891498,0,0,0,,0,19,19,149,1,VEASE,LB,old,z,./images/VEASELB.png,,,,,,,,,,,,,,,,,,,,,,,,,,,,,,,,,,
,,,,,,,,,,,,,,,,,60ffbc4214cb2255dd442bc8,25,2022-02-12_14h58.33.325,lexical_decision_task_DD_L4,2021.2.3,Win32,59.71575302,,,,,,,,,,,1.3667,1,,,,,,,,,,,,,,,m,1,1.3667,,,,,,,,0.001707707,-0.404891498,0,0,0,,0,20,20,16,1,GRAPE,HB,old,m,./images/GRAPEHB.png,,,,,,,,,,,,,,,,,,,,,,,,,,,,,,,,,,
,,,,,,,,,,,,,,,,,60ffbc4214cb2255dd442bc8,25,2022-02-12_14h58.33.325,lexical_decision_task_DD_L4,2021.2.3,Win32,59.71575302,,,,,,,,,,,0.8435,1,,,,,,,,,,,,,,,m,1,0.8435,,,,,,,,0.001707707,-0.404891498,0,0,0,,0,21,21,52,1,DESERT,HB,old,m,./images/DESERTHB.png,,,,,,,,,,,,,,,,,,,,,,,,,,,,,,,,,,
,,,,,,,,,,,,,,,,,60ffbc4214cb2255dd442bc8,25,2022-02-12_14h58.33.325,lexical_decision_task_DD_L4,2021.2.3,Win32,59.71575302,,,,,,,,,,,0.7739,1,,,,,,,,,,,,,,,m,1,0.7739,,,,,,,,0.001707707,-0.404891498,0,0,0,,0,22,22,25,1,CHALK,HB,old,m,./images/CHALKHB.png,,,,,,,,,,,,,,,,,,,,,,,,,,,,,,,,,,
,,,,,,,,,,,,,,,,,60ffbc4214cb2255dd442bc8,25,2022-02-12_14h58.33.325,lexical_decision_task_DD_L4,2021.2.3,Win32,59.71575302,,,,,,,,,,,0.729,1,,,,,,,,,,,,,,,m,1,0.729,,,,,,,,0.001707707,-0.404891498,0,0,0,,0,23,23,4,1,BOXER,HB,old,m,./images/BOXERHB.png,,,,,,,,,,,,,,,,,,,,,,,,,,,,,,,,,,
,,,,,,,,,,,,,,,,,60ffbc4214cb2255dd442bc8,25,2022-02-12_14h58.33.325,lexical_decision_task_DD_L4,2021.2.3,Win32,59.71575302,,,,,,,,,,,0.7287,1,,,,,,,,,,,,,,,m,1,0.7287,,,,,,,,0.001707707,-0.404891498,0,0,0,,0,24,24,34,1,RAZOR,HB,old,m,./images/RAZORHB.png,,,,,,,,,,,,,,,,,,,,,,,,,,,,,,,,,,
,,,,,,,,,,,,,,,,,60ffbc4214cb2255dd442bc8,25,2022-02-12_14h58.33.325,lexical_decision_task_DD_L4,2021.2.3,Win32,59.71575302,,,,,,,,,,,1.0958,1,,,,,,,,,,,,,,,z,1,1.0958,,,,,,,,0.001707707,-0.404891498,0,0,0,,0,25,25,145,1,LAMEL,HB,old,z,./images/LAMELHB.png,,,,,,,,,,,,,,,,,,,,,,,,,,,,,,,,,,
,,,,,,,,,,,,,,,,,60ffbc4214cb2255dd442bc8,25,2022-02-12_14h58.33.325,lexical_decision_task_DD_L4,2021.2.3,Win32,59.71575302,,,,,,,,,,,1.1279,1,,,,,,,,,,,,,,,m,1,1.1279,,,,,,,,0.001707707,-0.404891498,0,0,0,,0,26,26,48,1,SHIELD,C,old,m,./images/SHIELD.png,,,,,,,,,,,,,,,,,,,,,,,,,,,,,,,,,,
,,,,,,,,,,,,,,,,,60ffbc4214cb2255dd442bc8,25,2022-02-12_14h58.33.325,lexical_decision_task_DD_L4,2021.2.3,Win32,59.71575302,,,,,,,,,,,0.9466,1,,,,,,,,,,,,,,,z,1,0.9466,,,,,,,,0.001707707,-0.404891498,0,0,0,,0,27,27,139,1,BLEAR,HB,old,z,./images/BLEARHB.png,,,,,,,,,,,,,,,,,,,,,,,,,,,,,,,,,,
,,,,,,,,,,,,,,,,,60ffbc4214cb2255dd442bc8,25,2022-02-12_14h58.33.325,lexical_decision_task_DD_L4,2021.2.3,Win32,59.71575302,,,,,,,,,,,0.6936,1,,,,,,,,,,,,,,,m,1,0.6936,,,,,,,,0.001707707,-0.404891498,0,0,0,,0,28,28,5,1,BAMBOO,LB,old,m,./images/BAMBOOLB.png,,,,,,,,,,,,,,,,,,,,,,,,,,,,,,,,,,
,,,,,,,,,,,,,,,,,60ffbc4214cb2255dd442bc8,25,2022-02-12_14h58.33.325,lexical_decision_task_DD_L4,2021.2.3,Win32,59.71575302,,,,,,,,,,,0.5664,1,,,,,,,,,,,,,,,m,1,0.5664,,,,,,,,0.001707707,-0.404891498,0,0,0,,0,29,29,29,1,PISTOL,LB,old,m,./images/PISTOLLB.png,,,,,,,,,,,,,,,,,,,,,,,,,,,,,,,,,,
,,,,,,,,,,,,,,,,,60ffbc4214cb2255dd442bc8,25,2022-02-12_14h58.33.325,lexical_decision_task_DD_L4,2021.2.3,Win32,59.71575302,,,,,,,,,,,0.6932,1,,,,,,,,,,,,,,,z,1,0.6932,,,,,,,,0.001707707,-0.404891498,0,0,0,,0,30,30,116,1,BALGY,LB,old,z,./images/BALGYLB.png,,,,,,,,,,,,,,,,,,,,,,,,,,,,,,,,,,
,,,,,,,,,,,,,,,,,60ffbc4214cb2255dd442bc8,25,2022-02-12_14h58.33.325,lexical_decision_task_DD_L4,2021.2.3,Win32,59.71575302,,,,,,,,,,,0.7565,1,,,,,,,,,,,,,,,m,1,0.7565,,,,,,,,0.001707707,-0.404891498,0,0,0,,0,31,31,78,1,BROOM,C,old,m,./images/BROOM.png,,,,,,,,,,,,,,,,,,,,,,,,,,,,,,,,,,
,,,,,,,,,,,,,,,,,60ffbc4214cb2255dd442bc8,25,2022-02-12_14h58.33.325,lexical_decision_task_DD_L4,2021.2.3,Win32,59.71575302,,,,,,,,,,,0.6582,1,,,,,,,,,,,,,,,m,1,0.6582,,,,,,,,0.001707707,-0.404891498,0,0,0,,0,32,32,73,1,GLOVE,HB,old,m,./images/GLOVEHB.png,,,,,,,,,,,,,,,,,,,,,,,,,,,,,,,,,,
,,,,,,,,,,,,,,,,,60ffbc4214cb2255dd442bc8,25,2022-02-12_14h58.33.325,lexical_decision_task_DD_L4,2021.2.3,Win32,59.71575302,,,,,,,,,,,0.5995,1,,,,,,,,,,,,,,,m,1,0.5995,,,,,,,,0.001707707,-0.404891498,0,0,0,,0,33,33,66,1,STATUE,C,old,m,./images/STATUE.png,,,,,,,,,,,,,,,,,,,,,,,,,,,,,,,,,,
,,,,,,,,,,,,,,,,,60ffbc4214cb2255dd442bc8,25,2022-02-12_14h58.33.325,lexical_decision_task_DD_L4,2021.2.3,Win32,59.71575302,,,,,,,,,,,0.6181,1,,,,,,,,,,,,,,,m,1,0.6181,,,,,,,,0.001707707,-0.404891498,0,0,0,,0,34,34,38,1,ENGINE,LB,old,m,./images/ENGINELB.png,,,,,,,,,,,,,,,,,,,,,,,,,,,,,,,,,,
,,,,,,,,,,,,,,,,,60ffbc4214cb2255dd442bc8,25,2022-02-12_14h58.33.325,lexical_decision_task_DD_L4,2021.2.3,Win32,59.71575302,,,,,,,,,,,0.8858,1,,,,,,,,,,,,,,,z,1,0.8858,,,,,,,,0.001707707,-0.404891498,0,0,0,,0,35,35,160,1,VEETS,HB,old,z,./images/VEETSHB.png,,,,,,,,,,,,,,,,,,,,,,,,,,,,,,,,,,
,,,,,,,,,,,,,,,,,60ffbc4214cb2255dd442bc8,25,2022-02-12_14h58.33.325,lexical_decision_task_DD_L4,2021.2.3,Win32,59.71575302,,,,,,,,,,,0.5838,1,,,,,,,,,,,,,,,m,1,0.5838,,,,,,,,0.001707707,-0.404891498,0,0,0,,0,36,36,9,1,DIVER,C,old,m,./images/DIVER.png,,,,,,,,,,,,,,,,,,,,,,,,,,,,,,,,,,
,,,,,,,,,,,,,,,,,60ffbc4214cb2255dd442bc8,25,2022-02-12_14h58.33.325,lexical_decision_task_DD_L4,2021.2.3,Win32,59.71575302,,,,,,,,,,,0.5306,1,,,,,,,,,,,,,,,m,1,0.5306,,,,,,,,0.001707707,-0.404891498,0,0,0,,0,37,37,53,1,POSTER,LB,old,m,./images/POSTERLB.png,,,,,,,,,,,,,,,,,,,,,,,,,,,,,,,,,,
,,,,,,,,,,,,,,,,,60ffbc4214cb2255dd442bc8,25,2022-02-12_14h58.33.325,lexical_decision_task_DD_L4,2021.2.3,Win32,59.71575302,,,,,,,,,,,1.0916,1,,,,,,,,,,,,,,,z,1,1.0916,,,,,,,,0.001707707,-0.404891498,0,0,0,,0,38,38,121,1,CEERS,HB,old,z,./images/CEERSHB.png,,,,,,,,,,,,,,,,,,,,,,,,,,,,,,,,,,
,,,,,,,,,,,,,,,,,60ffbc4214cb2255dd442bc8,25,2022-02-12_14h58.33.325,lexical_decision_task_DD_L4,2021.2.3,Win32,59.71575302,,,,,,,,,,,0.7542,1,,,,,,,,,,,,,,,z,1,0.7542,,,,,,,,0.001707707,-0.404891498,0,0,0,,0,39,39,140,1,DOVET,LB,old,z,./images/DOVETLB.png,,,,,,,,,,,,,,,,,,,,,,,,,,,,,,,,,,
,,,,,,,,,,,,,,,,,60ffbc4214cb2255dd442bc8,25,2022-02-12_14h58.33.325,lexical_decision_task_DD_L4,2021.2.3,Win32,59.71575302,,,,,,,,,,,0.9074,1,,,,,,,,,,,,,,,z,1,0.9074,,,,,,,,0.001707707,-0.404891498,0,0,0,,0,40,40,93,1,SMONE,C,old,z,./images/SMONE.png,,,,,,,,,,,,,,,,,,,,,,,,,,,,,,,,,,
,,,,,,,,,,,,,,,,,60ffbc4214cb2255dd442bc8,25,2022-02-12_14h58.33.325,lexical_decision_task_DD_L4,2021.2.3,Win32,59.71575302,,,,,,,,,,,0.7356,1,,,,,,,,,,,,,,,m,1,0.7356,,,,,,,,0.001707707,-0.404891498,1,0,0,,0,41,41,77,1,WHEEL,LB,old,m,./images/WHEELLB.png,break_done_button,,,,,,,,,,,,,,,,,,,,,,,,,,,,,,,,,
,,,,,,,,,,,,,,,,,60ffbc4214cb2255dd442bc8,25,2022-02-12_14h58.33.325,lexical_decision_task_DD_L4,2021.2.3,Win32,59.71575302,,,,,,,,,,,0.8396,1,,,,,,,,,,,,,,,z,1,0.8396,,,,,,,,0.001707707,-0.404891498,0,0,0,,0,42,42,163,1,GAMBA,HB,old,z,./images/GAMBAHB.png,,,,,,,,,,,,,,,,,,,,,,,,,,,,,,,,,,
,,,,,,,,,,,,,,,,,60ffbc4214cb2255dd442bc8,25,2022-02-12_14h58.33.325,lexical_decision_task_DD_L4,2021.2.3,Win32,59.71575302,,,,,,,,,,,0.9339,1,,,,,,,,,,,,,,,z,1,0.9339,,,,,,,,0.001707707,-0.404891498,0,0,0,,0,43,43,87,1,TRING,C,old,z,./images/TRING.png,,,,,,,,,,,,,,,,,,,,,,,,,,,,,,,,,,
,,,,,,,,,,,,,,,,,60ffbc4214cb2255dd442bc8,25,2022-02-12_14h58.33.325,lexical_decision_task_DD_L4,2021.2.3,Win32,59.71575302,,,,,,,,,,,0.8863,1,,,,,,,,,,,,,,,m,1,0.8863,,,,,,,,0.001707707,-0.404891498,0,0,0,,0,44,44,49,1,BISHOP,HB,old,m,./images/BISHOPHB.png,,,,,,,,,,,,,,,,,,,,,,,,,,,,,,,,,,
,,,,,,,,,,,,,,,,,60ffbc4214cb2255dd442bc8,25,2022-02-12_14h58.33.325,lexical_decision_task_DD_L4,2021.2.3,Win32,59.71575302,,,,,,,,,,,0.6452,1,,,,,,,,,,,,,,,z,1,0.6452,,,,,,,,0.001707707,-0.404891498,0,0,0,,0,45,45,101,1,GLEET,LB,old,z,./images/GLEETLB.png,,,,,,,,,,,,,,,,,,,,,,,,,,,,,,,,,,
,,,,,,,,,,,,,,,,,60ffbc4214cb2255dd442bc8,25,2022-02-12_14h58.33.325,lexical_decision_task_DD_L4,2021.2.3,Win32,59.71575302,,,,,,,,,,,0.8266,1,,,,,,,,,,,,,,,m,1,0.8266,,,,,,,,0.001707707,-0.404891498,0,0,0,,0,46,46,11,1,MEDAL,LB,old,m,./images/MEDALLB.png,,,,,,,,,,,,,,,,,,,,,,,,,,,,,,,,,,
,,,,,,,,,,,,,,,,,60ffbc4214cb2255dd442bc8,25,2022-02-12_14h58.33.325,lexical_decision_task_DD_L4,2021.2.3,Win32,59.71575302,,,,,,,,,,,0.7013,1,,,,,,,,,,,,,,,m,1,0.7013,,,,,,,,0.001707707,-0.404891498,0,0,0,,0,47,47,47,1,LAGOON,LB,old,m,./images/LAGOONLB.png,,,,,,,,,,,,,,,,,,,,,,,,,,,,,,,,,,
,,,,,,,,,,,,,,,,,60ffbc4214cb2255dd442bc8,25,2022-02-12_14h58.33.325,lexical_decision_task_DD_L4,2021.2.3,Win32,59.71575302,,,,,,,,,,,1.0181,1,,,,,,,,,,,,,,,z,1,1.0181,,,,,,,,0.001707707,-0.404891498,0,0,0,,0,48,48,133,1,POWDY,HB,old,z,./images/POWDYHB.png,,,,,,,,,,,,,,,,,,,,,,,,,,,,,,,,,,
,,,,,,,,,,,,,,,,,60ffbc4214cb2255dd442bc8,25,2022-02-12_14h58.33.325,lexical_decision_task_DD_L4,2021.2.3,Win32,59.71575302,,,,,,,,,,,1.1839,1,,,,,,,,,,,,,,,z,1,1.1839,,,,,,,,0.001707707,-0.404891498,0,0,0,,0,49,49,113,1,LINEW,LB,old,z,./images/LINEWLB.png,,,,,,,,,,,,,,,,,,,,,,,,,,,,,,,,,,
,,,,,,,,,,,,,,,,,60ffbc4214cb2255dd442bc8,25,2022-02-12_14h58.33.325,lexical_decision_task_DD_L4,2021.2.3,Win32,59.71575302,,,,,,,,,,,0.6672,1,,,,,,,,,,,,,,,m,1,0.6672,,,,,,,,0.001707707,-0.404891498,0,0,0,,0,50,50,8,1,CLIFF,LB,old,m,./images/CLIFFLB.png,,,,,,,,,,,,,,,,,,,,,,,,,,,,,,,,,,
,,,,,,,,,,,,,,,,,60ffbc4214cb2255dd442bc8,25,2022-02-12_14h58.33.325,lexical_decision_task_DD_L4,2021.2.3,Win32,59.71575302,,,,,,,,,,,0.7042,1,,,,,,,,,,,,,,,m,1,0.7042,,,,,,,,0.001707707,-0.404891498,0,0,0,,0,51,51,82,1,PEBBLE,HB,old,m,./images/PEBBLEHB.png,,,,,,,,,,,,,,,,,,,,,,,,,,,,,,,,,,
,,,,,,,,,,,,,,,,,60ffbc4214cb2255dd442bc8,25,2022-02-12_14h58.33.325,lexical_decision_task_DD_L4,2021.2.3,Win32,59.71575302,,,,,,,,,,,1.1054,1,,,,,,,,,,,,,,,z,1,1.1054,,,,,,,,0.001707707,-0.404891498,0,0,0,,0,52,52,110,1,CRUNK,LB,old,z,./images/CRUNKLB.png,,,,,,,,,,,,,,,,,,,,,,,,,,,,,,,,,,
,,,,,,,,,,,,,,,,,60ffbc4214cb2255dd442bc8,25,2022-02-12_14h58.33.325,lexical_decision_task_DD_L4,2021.2.3,Win32,59.71575302,,,,,,,,,,,1.039,1,,,,,,,,,,,,,,,z,1,1.039,,,,,,,,0.001707707,-0.404891498,0,0,0,,0,53,53,115,1,MAWNS,HB,old,z,./images/MAWNSHB.png,,,,,,,,,,,,,,,,,,,,,,,,,,,,,,,,,,
,,,,,,,,,,,,,,,,,60ffbc4214cb2255dd442bc8,25,2022-02-12_14h58.33.325,lexical_decision_task_DD_L4,2021.2.3,Win32,59.71575302,,,,,,,,,,,1.0878,1,,,,,,,,,,,,,,,z,1,1.0878,,,,,,,,0.001707707,-0.404891498,0,0,0,,0,54,54,130,1,CRILL,HB,old,z,./images/CRILLHB.png,,,,,,,,,,,,,,,,,,,,,,,,,,,,,,,,,,
,,,,,,,,,,,,,,,,,60ffbc4214cb2255dd442bc8,25,2022-02-12_14h58.33.325,lexical_decision_task_DD_L4,2021.2.3,Win32,59.71575302,,,,,,,,,,,0.6892,0,,,,,,,,,,,,,,,m,0,0.6892,,,,,,,,0.001707707,-0.404891498,0,0,0,,0,55,55,159,1,CUDDY,C,old,z,./images/CUDDY.png,,,,,,,,,,,,,,,,,,,,,,,,,,,,,,,,,,
,,,,,,,,,,,,,,,,,60ffbc4214cb2255dd442bc8,25,2022-02-12_14h58.33.325,lexical_decision_task_DD_L4,2021.2.3,Win32,59.71575302,,,,,,,,,,,0.7101,1,,,,,,,,,,,,,,,m,1,0.7101,,,,,,,,0.001707707,-0.404891498,0,0,0,,0,56,56,75,1,HAMMER,C,old,m,./images/HAMMER.png,,,,,,,,,,,,,,,,,,,,,,,,,,,,,,,,,,
,,,,,,,,,,,,,,,,,60ffbc4214cb2255dd442bc8,25,2022-02-12_14h58.33.325,lexical_decision_task_DD_L4,2021.2.3,Win32,59.71575302,,,,,,,,,,,0.9509,1,,,,,,,,,,,,,,,z,1,0.9509,,,,,,,,0.001707707,-0.404891498,0,0,0,,0,57,57,94,1,BLANS,HB,old,z,./images/BLANSHB.png,,,,,,,,,,,,,,,,,,,,,,,,,,,,,,,,,,
,,,,,,,,,,,,,,,,,60ffbc4214cb2255dd442bc8,25,2022-02-12_14h58.33.325,lexical_decision_task_DD_L4,2021.2.3,Win32,59.71575302,,,,,,,,,,,1.1676,0,,,,,,,,,,,,,,,z,0,1.1676,,,,,,,,0.001707707,-0.404891498,0,0,0,,0,58,58,64,1,BRIDE,HB,old,m,./images/BRIDEHB.png,,,,,,,,,,,,,,,,,,,,,,,,,,,,,,,,,,
,,,,,,,,,,,,,,,,,60ffbc4214cb2255dd442bc8,25,2022-02-12_14h58.33.325,lexical_decision_task_DD_L4,2021.2.3,Win32,59.71575302,,,,,,,,,,,0.8004,1,,,,,,,,,,,,,,,z,1,0.8004,,,,,,,,0.001707707,-0.404891498,0,0,0,,0,59,59,117,1,STEEG,C,old,z,./images/STEEG.png,,,,,,,,,,,,,,,,,,,,,,,,,,,,,,,,,,
,,,,,,,,,,,,,,,,,60ffbc4214cb2255dd442bc8,25,2022-02-12_14h58.33.325,lexical_decision_task_DD_L4,2021.2.3,Win32,59.71575302,,,,,,,,,,,0.7357,1,,,,,,,,,,,,,,,z,1,0.7357,,,,,,,,0.001707707,-0.404891498,0,0,0,,0,60,60,132,1,SCIFF,C,old,z,./images/SCIFF.png,,,,,,,,,,,,,,,,,,,,,,,,,,,,,,,,,,
,,,,,,,,,,,,,,,,,60ffbc4214cb2255dd442bc8,25,2022-02-12_14h58.33.325,lexical_decision_task_DD_L4,2021.2.3,Win32,59.71575302,,,,,,,,,,,0.8235,1,,,,,,,,,,,,,,,m,1,0.8235,,,,,,,,0.001707707,-0.404891498,0,0,0,,0,61,61,74,1,JUMPER,LB,old,m,./images/JUMPERLB.png,,,,,,,,,,,,,,,,,,,,,,,,,,,,,,,,,,
,,,,,,,,,,,,,,,,,60ffbc4214cb2255dd442bc8,25,2022-02-12_14h58.33.325,lexical_decision_task_DD_L4,2021.2.3,Win32,59.71575302,,,,,,,,,,,0.7359,1,,,,,,,,,,,,,,,m,1,0.7359,,,,,,,,0.001707707,-0.404891498,0,0,0,,0,62,62,22,1,CLOWN,HB,old,m,./images/CLOWNHB.png,,,,,,,,,,,,,,,,,,,,,,,,,,,,,,,,,,
,,,,,,,,,,,,,,,,,60ffbc4214cb2255dd442bc8,25,2022-02-12_14h58.33.325,lexical_decision_task_DD_L4,2021.2.3,Win32,59.71575302,,,,,,,,,,,0.5842,1,,,,,,,,,,,,,,,m,1,0.5842,,,,,,,,0.001707707,-0.404891498,0,0,0,,0,63,63,0,1,WALNUT,C,old,m,./images/WALNUT.png,,,,,,,,,,,,,,,,,,,,,,,,,,,,,,,,,,
,,,,,,,,,,,,,,,,,60ffbc4214cb2255dd442bc8,25,2022-02-12_14h58.33.325,lexical_decision_task_DD_L4,2021.2.3,Win32,59.71575302,,,,,,,,,,,0.779,1,,,,,,,,,,,,,,,z,1,0.779,,,,,,,,0.001707707,-0.404891498,0,0,0,,0,64,64,150,1,NOOLS,C,old,z,./images/NOOLS.png,,,,,,,,,,,,,,,,,,,,,,,,,,,,,,,,,,
,,,,,,,,,,,,,,,,,60ffbc4214cb2255dd442bc8,25,2022-02-12_14h58.33.325,lexical_decision_task_DD_L4,2021.2.3,Win32,59.71575302,,,,,,,,,,,0.751,1,,,,,,,,,,,,,,,m,1,0.751,,,,,,,,0.001707707,-0.404891498,0,0,0,,0,65,65,69,1,ARROW,C,old,m,./images/ARROW.png,,,,,,,,,,,,,,,,,,,,,,,,,,,,,,,,,,
,,,,,,,,,,,,,,,,,60ffbc4214cb2255dd442bc8,25,2022-02-12_14h58.33.325,lexical_decision_task_DD_L4,2021.2.3,Win32,59.71575302,,,,,,,,,,,0.6594,1,,,,,,,,,,,,,,,z,1,0.6594,,,,,,,,0.001707707,-0.404891498,0,0,0,,0,66,66,138,1,PLICE,C,old,z,./images/PLICE.png,,,,,,,,,,,,,,,,,,,,,,,,,,,,,,,,,,
,,,,,,,,,,,,,,,,,60ffbc4214cb2255dd442bc8,25,2022-02-12_14h58.33.325,lexical_decision_task_DD_L4,2021.2.3,Win32,59.71575302,,,,,,,,,,,0.937,1,,,,,,,,,,,,,,,z,1,0.937,,,,,,,,0.001707707,-0.404891498,0,0,0,,0,67,67,166,1,SHORY,HB,old,z,./images/SHORYHB.png,,,,,,,,,,,,,,,,,,,,,,,,,,,,,,,,,,
,,,,,,,,,,,,,,,,,60ffbc4214cb2255dd442bc8,25,2022-02-12_14h58.33.325,lexical_decision_task_DD_L4,2021.2.3,Win32,59.71575302,,,,,,,,,,,1.3174,1,,,,,,,,,,,,,,,z,1,1.3174,,,,,,,,0.001707707,-0.404891498,0,0,0,,0,68,68,141,1,PLEET,C,old,z,./images/PLEET.png,,,,,,,,,,,,,,,,,,,,,,,,,,,,,,,,,,
,,,,,,,,,,,,,,,,,60ffbc4214cb2255dd442bc8,25,2022-02-12_14h58.33.325,lexical_decision_task_DD_L4,2021.2.3,Win32,59.71575302,,,,,,,,,,,0.725,1,,,,,,,,,,,,,,,m,1,0.725,,,,,,,,0.001707707,-0.404891498,0,0,0,,0,69,69,83,1,WHISKY,LB,old,m,./images/WHISKYLB.png,,,,,,,,,,,,,,,,,,,,,,,,,,,,,,,,,,
,,,,,,,,,,,,,,,,,60ffbc4214cb2255dd442bc8,25,2022-02-12_14h58.33.325,lexical_decision_task_DD_L4,2021.2.3,Win32,59.71575302,,,,,,,,,,,0.6512,1,,,,,,,,,,,,,,,z,1,0.6512,,,,,,,,0.001707707,-0.404891498,0,0,0,,0,70,70,119,1,PAFER,LB,old,z,./images/PAFERLB.png,,,,,,,,,,,,,,,,,,,,,,,,,,,,,,,,,,
,,,,,,,,,,,,,,,,,60ffbc4214cb2255dd442bc8,25,2022-02-12_14h58.33.325,lexical_decision_task_DD_L4,2021.2.3,Win32,59.71575302,,,,,,,,,,,0.6177,1,,,,,,,,,,,,,,,z,1,0.6177,,,,,,,,0.001707707,-0.404891498,0,0,0,,0,71,71,89,1,DRIEK,LB,old,z,./images/DRIEKLB.png,,,,,,,,,,,,,,,,,,,,,,,,,,,,,,,,,,
,,,,,,,,,,,,,,,,,60ffbc4214cb2255dd442bc8,25,2022-02-12_14h58.33.325,lexical_decision_task_DD_L4,2021.2.3,Win32,59.71575302,,,,,,,,,,,0.7666,1,,,,,,,,,,,,,,,z,1,0.7666,,,,,,,,0.001707707,-0.404891498,0,0,0,,0,72,72,155,1,CANGY,LB,old,z,./images/CANGYLB.png,,,,,,,,,,,,,,,,,,,,,,,,,,,,,,,,,,
,,,,,,,,,,,,,,,,,60ffbc4214cb2255dd442bc8,25,2022-02-12_14h58.33.325,lexical_decision_task_DD_L4,2021.2.3,Win32,59.71575302,,,,,,,,,,,0.6934,1,,,,,,,,,,,,,,,z,1,0.6934,,,,,,,,0.001707707,-0.404891498,0,0,0,,0,73,73,96,1,KEAMS,C,old,z,./images/KEAMS.png,,,,,,,,,,,,,,,,,,,,,,,,,,,,,,,,,,
,,,,,,,,,,,,,,,,,60ffbc4214cb2255dd442bc8,25,2022-02-12_14h58.33.325,lexical_decision_task_DD_L4,2021.2.3,Win32,59.71575302,,,,,,,,,,,1.4002,1,,,,,,,,,,,,,,,m,1,1.4002,,,,,,,,0.001707707,-0.404891498,0,0,0,,0,74,74,70,1,BANANA,HB,old,m,./images/BANANAHB.png,,,,,,,,,,,,,,,,,,,,,,,,,,,,,,,,,,
,,,,,,,,,,,,,,,,,60ffbc4214cb2255dd442bc8,25,2022-02-12_14h58.33.325,lexical_decision_task_DD_L4,2021.2.3,Win32,59.71575302,,,,,,,,,,,1.2889,1,,,,,,,,,,,,,,,m,1,1.2889,,,,,,,,0.001707707,-0.404891498,0,0,0,,0,75,75,24,1,FLESH,C,old,m,./images/FLESH.png,,,,,,,,,,,,,,,,,,,,,,,,,,,,,,,,,,
,,,,,,,,,,,,,,,,,60ffbc4214cb2255dd442bc8,25,2022-02-12_14h58.33.325,lexical_decision_task_DD_L4,2021.2.3,Win32,59.71575302,,,,,,,,,,,0.5185,1,,,,,,,,,,,,,,,m,1,0.5185,,,,,,,,0.001707707,-0.404891498,0,0,0,,0,76,76,41,1,STREAM,LB,old,m,./images/STREAMLB.png,,,,,,,,,,,,,,,,,,,,,,,,,,,,,,,,,,
,,,,,,,,,,,,,,,,,60ffbc4214cb2255dd442bc8,25,2022-02-12_14h58.33.325,lexical_decision_task_DD_L4,2021.2.3,Win32,59.71575302,,,,,,,,,,,0.59,1,,,,,,,,,,,,,,,m,1,0.59,,,,,,,,0.001707707,-0.404891498,0,0,0,,0,77,77,15,1,COLLAR,C,old,m,./images/COLLAR.png,,,,,,,,,,,,,,,,,,,,,,,,,,,,,,,,,,
,,,,,,,,,,,,,,,,,60ffbc4214cb2255dd442bc8,25,2022-02-12_14h58.33.325,lexical_decision_task_DD_L4,2021.2.3,Win32,59.71575302,,,,,,,,,,,0.6677,1,,,,,,,,,,,,,,,m,1,0.6677,,,,,,,,0.001707707,-0.404891498,0,0,0,,0,78,78,13,1,BUNNY,HB,old,m,./images/BUNNYHB.png,,,,,,,,,,,,,,,,,,,,,,,,,,,,,,,,,,
,,,,,,,,,,,,,,,,,60ffbc4214cb2255dd442bc8,25,2022-02-12_14h58.33.325,lexical_decision_task_DD_L4,2021.2.3,Win32,59.71575302,,,,,,,,,,,0.7678,1,,,,,,,,,,,,,,,z,1,0.7678,,,,,,,,0.001707707,-0.404891498,0,0,0,,0,79,79,167,1,ZONET,LB,old,z,./images/ZONETLB.png,,,,,,,,,,,,,,,,,,,,,,,,,,,,,,,,,,
,,,,,,,,,,,,,,,,,60ffbc4214cb2255dd442bc8,25,2022-02-12_14h58.33.325,lexical_decision_task_DD_L4,2021.2.3,Win32,59.71575302,,,,,,,,,,,0.9203,0,,,,,,,,,,,,,,,m,0,0.9203,,,,,,,,0.001707707,-0.404891498,0,0,0,,0,80,80,97,1,CHIDS,HB,old,z,./images/CHIDSHB.png,,,,,,,,,,,,,,,,,,,,,,,,,,,,,,,,,,
,,,,,,,,,,,,,,,,,60ffbc4214cb2255dd442bc8,25,2022-02-12_14h58.33.325,lexical_decision_task_DD_L4,2021.2.3,Win32,59.71575302,,,,,,,,,,,0.8609,1,,,,,,,,,,,,,,,m,1,0.8609,,,,,,,,0.001707707,-0.404891498,0,0,0,,0,81,81,3,1,CRATER,C,old,m,./images/CRATER.png,,,,,,,,,,,,,,,,,,,,,,,,,,,,,,,,,,
,,,,,,,,,,,,,,,,,60ffbc4214cb2255dd442bc8,25,2022-02-12_14h58.33.325,lexical_decision_task_DD_L4,2021.2.3,Win32,59.71575302,,,,,,,,,,,0.8743,1,,,,,,,,,,,,,,,m,1,0.8743,,,,,,,,0.001707707,-0.404891498,0,0,0,,0,82,82,57,1,FERRY,C,old,m,./images/FERRY.png,,,,,,,,,,,,,,,,,,,,,,,,,,,,,,,,,,
,,,,,,,,,,,,,,,,,60ffbc4214cb2255dd442bc8,25,2022-02-12_14h58.33.325,lexical_decision_task_DD_L4,2021.2.3,Win32,59.71575302,,,,,,,,,,,0.8904,1,,,,,,,,,,,,,,,z,1,0.8904,,,,,,,,0.001707707,-0.404891498,1,0,0,,0,83,83,128,1,GRIFT,LB,old,z,./images/GRIFTLB.png,break_done_button,,,,,,,,,,,,,,,,,,,,,,,,,,,,,,,,,
,,,,,,,,,,,,,,,,,60ffbc4214cb2255dd442bc8,25,2022-02-12_14h58.33.325,lexical_decision_task_DD_L4,2021.2.3,Win32,59.71575302,,,,,,,,,,,0.9507,1,,,,,,,,,,,,,,,z,1,0.9507,,,,,,,,0.001707707,-0.404891498,0,0,0,,0,84,84,144,1,NAIRY,C,old,z,./images/NAIRY.png,,,,,,,,,,,,,,,,,,,,,,,,,,,,,,,,,,
,,,,,,,,,,,,,,,,,60ffbc4214cb2255dd442bc8,25,2022-02-12_14h58.33.325,lexical_decision_task_DD_L4,2021.2.3,Win32,59.71575302,,,,,,,,,,,0.6373,1,,,,,,,,,,,,,,,m,1,0.6373,,,,,,,,0.001707707,-0.404891498,0,0,0,,0,85,85,30,1,SLOPE,C,old,m,./images/SLOPE.png,,,,,,,,,,,,,,,,,,,,,,,,,,,,,,,,,,
,,,,,,,,,,,,,,,,,60ffbc4214cb2255dd442bc8,25,2022-02-12_14h58.33.325,lexical_decision_task_DD_L4,2021.2.3,Win32,59.71575302,,,,,,,,,,,0.8525,1,,,,,,,,,,,,,,,m,1,0.8525,,,,,,,,0.001707707,-0.404891498,0,0,0,,0,86,86,36,1,BOILER,C,old,m,./images/BOILER.png,,,,,,,,,,,,,,,,,,,,,,,,,,,,,,,,,,
,,,,,,,,,,,,,,,,,60ffbc4214cb2255dd442bc8,25,2022-02-12_14h58.33.325,lexical_decision_task_DD_L4,2021.2.3,Win32,59.71575302,,,,,,,,,,,0.5863,1,,,,,,,,,,,,,,,z,1,0.5863,,,,,,,,0.001707707,-0.404891498,0,0,0,,0,87,87,108,1,GRUET,C,old,z,./images/GRUET.png,,,,,,,,,,,,,,,,,,,,,,,,,,,,,,,,,,
,,,,,,,,,,,,,,,,,60ffbc4214cb2255dd442bc8,25,2022-02-12_14h58.33.325,lexical_decision_task_DD_L4,2021.2.3,Win32,59.71575302,,,,,,,,,,,0.6183,1,,,,,,,,,,,,,,,m,1,0.6183,,,,,,,,0.001707707,-0.404891498,0,0,0,,0,88,88,23,1,CLOTH,LB,old,m,./images/CLOTHLB.png,,,,,,,,,,,,,,,,,,,,,,,,,,,,,,,,,,
,,,,,,,,,,,,,,,,,60ffbc4214cb2255dd442bc8,25,2022-02-12_14h58.33.325,lexical_decision_task_DD_L4,2021.2.3,Win32,59.71575302,,,,,,,,,,,0.5782,1,,,,,,,,,,,,,,,z,1,0.5782,,,,,,,,0.001707707,-0.404891498,0,0,0,,0,89,89,111,1,HOSSE,C,old,z,./images/HOSSE.png,,,,,,,,,,,,,,,,,,,,,,,,,,,,,,,,,,
,,,,,,,,,,,,,,,,,60ffbc4214cb2255dd442bc8,25,2022-02-12_14h58.33.325,lexical_decision_task_DD_L4,2021.2.3,Win32,59.71575302,,,,,,,,,,,0.5341,1,,,,,,,,,,,,,,,m,1,0.5341,,,,,,,,0.001707707,-0.404891498,0,0,0,,0,90,90,51,1,SAUCE,C,old,m,./images/SAUCE.png,,,,,,,,,,,,,,,,,,,,,,,,,,,,,,,,,,
,,,,,,,,,,,,,,,,,60ffbc4214cb2255dd442bc8,25,2022-02-12_14h58.33.325,lexical_decision_task_DD_L4,2021.2.3,Win32,59.71575302,,,,,,,,,,,0.8048,1,,,,,,,,,,,,,,,z,1,0.8048,,,,,,,,0.001707707,-0.404891498,0,0,0,,0,91,91,122,1,BLOOT,LB,old,z,./images/BLOOTLB.png,,,,,,,,,,,,,,,,,,,,,,,,,,,,,,,,,,
,,,,,,,,,,,,,,,,,60ffbc4214cb2255dd442bc8,25,2022-02-12_14h58.33.325,lexical_decision_task_DD_L4,2021.2.3,Win32,59.71575302,,,,,,,,,,,0.7178,1,,,,,,,,,,,,,,,z,1,0.7178,,,,,,,,0.001707707,-0.404891498,0,0,0,,0,92,92,114,1,RIKES,C,old,z,./images/RIKES.png,,,,,,,,,,,,,,,,,,,,,,,,,,,,,,,,,,
,,,,,,,,,,,,,,,,,60ffbc4214cb2255dd442bc8,25,2022-02-12_14h58.33.325,lexical_decision_task_DD_L4,2021.2.3,Win32,59.71575302,,,,,,,,,,,0.823,1,,,,,,,,,,,,,,,m,1,0.823,,,,,,,,0.001707707,-0.404891498,0,0,0,,0,93,93,18,1,PARCEL,C,old,m,./images/PARCEL.png,,,,,,,,,,,,,,,,,,,,,,,,,,,,,,,,,,
,,,,,,,,,,,,,,,,,60ffbc4214cb2255dd442bc8,25,2022-02-12_14h58.33.325,lexical_decision_task_DD_L4,2021.2.3,Win32,59.71575302,,,,,,,,,,,0.6194,1,,,,,,,,,,,,,,,z,1,0.6194,,,,,,,,0.001707707,-0.404891498,0,0,0,,0,94,94,126,1,GUELS,C,old,z,./images/GUELS.png,,,,,,,,,,,,,,,,,,,,,,,,,,,,,,,,,,
,,,,,,,,,,,,,,,,,60ffbc4214cb2255dd442bc8,25,2022-02-12_14h58.33.325,lexical_decision_task_DD_L4,2021.2.3,Win32,59.71575302,,,,,,,,,,,0.9674,1,,,,,,,,,,,,,,,z,1,0.9674,,,,,,,,0.001707707,-0.404891498,0,0,0,,0,95,95,99,1,BACKY,C,old,z,./images/BACKY.png,,,,,,,,,,,,,,,,,,,,,,,,,,,,,,,,,,
,,,,,,,,,,,,,,,,,60ffbc4214cb2255dd442bc8,25,2022-02-12_14h58.33.325,lexical_decision_task_DD_L4,2021.2.3,Win32,59.71575302,,,,,,,,,,,0.6598,1,,,,,,,,,,,,,,,m,1,0.6598,,,,,,,,0.001707707,-0.404891498,0,0,0,,0,96,96,37,1,TIGER,HB,old,m,./images/TIGERHB.png,,,,,,,,,,,,,,,,,,,,,,,,,,,,,,,,,,
,,,,,,,,,,,,,,,,,60ffbc4214cb2255dd442bc8,25,2022-02-12_14h58.33.325,lexical_decision_task_DD_L4,2021.2.3,Win32,59.71575302,,,,,,,,,,,0.574,1,,,,,,,,,,,,,,,m,1,0.574,,,,,,,,0.001707707,-0.404891498,0,0,0,,0,97,97,65,1,SPINE,LB,old,m,./images/SPINELB.png,,,,,,,,,,,,,,,,,,,,,,,,,,,,,,,,,,
,,,,,,,,,,,,,,,,,60ffbc4214cb2255dd442bc8,25,2022-02-12_14h58.33.325,lexical_decision_task_DD_L4,2021.2.3,Win32,59.71575302,,,,,,,,,,,0.6697,1,,,,,,,,,,,,,,,m,1,0.6697,,,,,,,,0.001707707,-0.404891498,0,0,0,,0,98,98,54,1,CHERRY,C,old,m,./images/CHERRY.png,,,,,,,,,,,,,,,,,,,,,,,,,,,,,,,,,,
,,,,,,,,,,,,,,,,,60ffbc4214cb2255dd442bc8,25,2022-02-12_14h58.33.325,lexical_decision_task_DD_L4,2021.2.3,Win32,59.71575302,,,,,,,,,,,0.6247,1,,,,,,,,,,,,,,,m,1,0.6247,,,,,,,,0.001707707,-0.404891498,0,0,0,,0,99,99,1,1,TOWEL,HB,old,m,./images/TOWELHB.png,,,,,,,,,,,,,,,,,,,,,,,,,,,,,,,,,,
,,,,,,,,,,,,,,,,,60ffbc4214cb2255dd442bc8,25,2022-02-12_14h58.33.325,lexical_decision_task_DD_L4,2021.2.3,Win32,59.71575302,,,,,,,,,,,0.9507,1,,,,,,,,,,,,,,,m,1,0.9507,,,,,,,,0.001707707,-0.404891498,0,0,0,,0,100,100,76,1,MIDGET,HB,old,m,./images/MIDGETHB.png,,,,,,,,,,,,,,,,,,,,,,,,,,,,,,,,,,
,,,,,,,,,,,,,,,,,60ffbc4214cb2255dd442bc8,25,2022-02-12_14h58.33.325,lexical_decision_task_DD_L4,2021.2.3,Win32,59.71575302,,,,,,,,,,,0.9924,1,,,,,,,,,,,,,,,m,1,0.9924,,,,,,,,0.001707707,-0.404891498,0,0,0,,0,101,101,67,1,POKER,HB,old,m,./images/POKERHB.png,,,,,,,,,,,,,,,,,,,,,,,,,,,,,,,,,,
,,,,,,,,,,,,,,,,,60ffbc4214cb2255dd442bc8,25,2022-02-12_14h58.33.325,lexical_decision_task_DD_L4,2021.2.3,Win32,59.71575302,,,,,,,,,,,0.6176,1,,,,,,,,,,,,,,,m,1,0.6176,,,,,,,,0.001707707,-0.404891498,0,0,0,,0,102,102,32,1,HOCKEY,LB,old,m,./images/HOCKEYLB.png,,,,,,,,,,,,,,,,,,,,,,,,,,,,,,,,,,
,,,,,,,,,,,,,,,,,60ffbc4214cb2255dd442bc8,25,2022-02-12_14h58.33.325,lexical_decision_task_DD_L4,2021.2.3,Win32,59.71575302,,,,,,,,,,,0.7731,1,,,,,,,,,,,,,,,z,1,0.7731,,,,,,,,0.001707707,-0.404891498,0,0,0,,0,103,103,143,1,MONGS,LB,old,z,./images/MONGSLB.png,,,,,,,,,,,,,,,,,,,,,,,,,,,,,,,,,,
,,,,,,,,,,,,,,,,,60ffbc4214cb2255dd442bc8,25,2022-02-12_14h58.33.325,lexical_decision_task_DD_L4,2021.2.3,Win32,59.71575302,,,,,,,,,,,0.8336,1,,,,,,,,,,,,,,,z,1,0.8336,,,,,,,,0.001707707,-0.404891498,0,0,0,,0,104,104,165,1,TROWN,C,old,z,./images/TROWN.png,,,,,,,,,,,,,,,,,,,,,,,,,,,,,,,,,,
,,,,,,,,,,,,,,,,,60ffbc4214cb2255dd442bc8,25,2022-02-12_14h58.33.325,lexical_decision_task_DD_L4,2021.2.3,Win32,59.71575302,,,,,,,,,,,0.7015,1,,,,,,,,,,,,,,,m,1,0.7015,,,,,,,,0.001707707,-0.404891498,0,0,0,,0,105,105,21,1,DANCER,C,old,m,./images/DANCER.png,,,,,,,,,,,,,,,,,,,,,,,,,,,,,,,,,,
,,,,,,,,,,,,,,,,,60ffbc4214cb2255dd442bc8,25,2022-02-12_14h58.33.325,lexical_decision_task_DD_L4,2021.2.3,Win32,59.71575302,,,,,,,,,,,0.5865,1,,,,,,,,,,,,,,,m,1,0.5865,,,,,,,,0.001707707,-0.404891498,0,0,0,,0,106,106,26,1,CLOUD,LB,old,m,./images/CLOUDLB.png,,,,,,,,,,,,,,,,,,,,,,,,,,,,,,,,,,
,,,,,,,,,,,,,,,,,60ffbc4214cb2255dd442bc8,25,2022-02-12_14h58.33.325,lexical_decision_task_DD_L4,2021.2.3,Win32,59.71575302,,,,,,,,,,,1.0711,1,,,,,,,,,,,,,,,z,1,1.0711,,,,,,,,0.001707707,-0.404891498,0,0,0,,0,107,107,91,1,SHENS,HB,old,z,./images/SHENSHB.png,,,,,,,,,,,,,,,,,,,,,,,,,,,,,,,,,,
,,,,,,,,,,,,,,,,,60ffbc4214cb2255dd442bc8,25,2022-02-12_14h58.33.325,lexical_decision_task_DD_L4,2021.2.3,Win32,59.71575302,,,,,,,,,,,0.8767,1,,,,,,,,,,,,,,,m,1,0.8767,,,,,,,,0.001707707,-0.404891498,0,0,0,,0,108,108,40,1,SNAKE,HB,old,m,./images/SNAKEHB.png,,,,,,,,,,,,,,,,,,,,,,,,,,,,,,,,,,
,,,,,,,,,,,,,,,,,60ffbc4214cb2255dd442bc8,25,2022-02-12_14h58.33.325,lexical_decision_task_DD_L4,2021.2.3,Win32,59.71575302,,,,,,,,,,,0.7545,1,,,,,,,,,,,,,,,z,1,0.7545,,,,,,,,0.001707707,-0.404891498,0,0,0,,0,109,109,98,1,BAMPS,LB,old,z,./images/BAMPSLB.png,,,,,,,,,,,,,,,,,,,,,,,,,,,,,,,,,,
,,,,,,,,,,,,,,,,,60ffbc4214cb2255dd442bc8,25,2022-02-12_14h58.33.325,lexical_decision_task_DD_L4,2021.2.3,Win32,59.71575302,,,,,,,,,,,0.6957,1,,,,,,,,,,,,,,,z,1,0.6957,,,,,,,,0.001707707,-0.404891498,0,0,0,,0,110,110,164,1,SGREW,LB,old,z,./images/SGREWLB.png,,,,,,,,,,,,,,,,,,,,,,,,,,,,,,,,,,
,,,,,,,,,,,,,,,,,60ffbc4214cb2255dd442bc8,25,2022-02-12_14h58.33.325,lexical_decision_task_DD_L4,2021.2.3,Win32,59.71575302,,,,,,,,,,,0.6429,1,,,,,,,,,,,,,,,z,1,0.6429,,,,,,,,0.001707707,-0.404891498,0,0,0,,0,111,111,120,1,RINED,C,old,z,./images/RINED.png,,,,,,,,,,,,,,,,,,,,,,,,,,,,,,,,,,
,,,,,,,,,,,,,,,,,60ffbc4214cb2255dd442bc8,25,2022-02-12_14h58.33.325,lexical_decision_task_DD_L4,2021.2.3,Win32,59.71575302,,,,,,,,,,,1.0869,1,,,,,,,,,,,,,,,m,1,1.0869,,,,,,,,0.001707707,-0.404891498,0,0,0,,0,112,112,35,1,LLAMA,LB,old,m,./images/LLAMALB.png,,,,,,,,,,,,,,,,,,,,,,,,,,,,,,,,,,
,,,,,,,,,,,,,,,,,60ffbc4214cb2255dd442bc8,25,2022-02-12_14h58.33.325,lexical_decision_task_DD_L4,2021.2.3,Win32,59.71575302,,,,,,,,,,,0.7183,1,,,,,,,,,,,,,,,m,1,0.7183,,,,,,,,0.001707707,-0.404891498,0,0,0,,0,113,113,81,1,DRILL,C,old,m,./images/DRILL.png,,,,,,,,,,,,,,,,,,,,,,,,,,,,,,,,,,
,,,,,,,,,,,,,,,,,60ffbc4214cb2255dd442bc8,25,2022-02-12_14h58.33.325,lexical_decision_task_DD_L4,2021.2.3,Win32,59.71575302,,,,,,,,,,,0.7574,0,,,,,,,,,,,,,,,m,0,0.7574,,,,,,,,0.001707707,-0.404891498,0,0,0,,0,114,114,85,1,CHULK,HB,old,z,./images/CHULKHB.png,,,,,,,,,,,,,,,,,,,,,,,,,,,,,,,,,,
,,,,,,,,,,,,,,,,,60ffbc4214cb2255dd442bc8,25,2022-02-12_14h58.33.325,lexical_decision_task_DD_L4,2021.2.3,Win32,59.71575302,,,,,,,,,,,0.5904,1,,,,,,,,,,,,,,,z,1,0.5904,,,,,,,,0.001707707,-0.404891498,0,0,0,,0,115,115,131,1,NACES,LB,old,z,./images/NACESLB.png,,,,,,,,,,,,,,,,,,,,,,,,,,,,,,,,,,
,,,,,,,,,,,,,,,,,60ffbc4214cb2255dd442bc8,25,2022-02-12_14h58.33.325,lexical_decision_task_DD_L4,2021.2.3,Win32,59.71575302,,,,,,,,,,,1.089,1,,,,,,,,,,,,,,,z,1,1.089,,,,,,,,0.001707707,-0.404891498,0,0,0,,0,116,116,127,1,NINDY,HB,old,z,./images/NINDYHB.png,,,,,,,,,,,,,,,,,,,,,,,,,,,,,,,,,,
,,,,,,,,,,,,,,,,,60ffbc4214cb2255dd442bc8,25,2022-02-12_14h58.33.325,lexical_decision_task_DD_L4,2021.2.3,Win32,59.71575302,,,,,,,,,,,0.6574,1,,,,,,,,,,,,,,,z,1,0.6574,,,,,,,,0.001707707,-0.404891498,0,0,0,,0,117,117,137,1,JOOST,LB,old,z,./images/JOOSTLB.png,,,,,,,,,,,,,,,,,,,,,,,,,,,,,,,,,,
,,,,,,,,,,,,,,,,,60ffbc4214cb2255dd442bc8,25,2022-02-12_14h58.33.325,lexical_decision_task_DD_L4,2021.2.3,Win32,59.71575302,,,,,,,,,,,0.8107,0,,,,,,,,,,,,,,,m,0,0.8107,,,,,,,,0.001707707,-0.404891498,0,0,0,,0,118,118,84,1,HAXES,C,old,z,./images/HAXES.png,,,,,,,,,,,,,,,,,,,,,,,,,,,,,,,,,,
,,,,,,,,,,,,,,,,,60ffbc4214cb2255dd442bc8,25,2022-02-12_14h58.33.325,lexical_decision_task_DD_L4,2021.2.3,Win32,59.71575302,,,,,,,,,,,0.6342,1,,,,,,,,,,,,,,,m,1,0.6342,,,,,,,,0.001707707,-0.404891498,0,0,0,,0,119,119,42,1,CHAIN,C,old,m,./images/CHAIN.png,,,,,,,,,,,,,,,,,,,,,,,,,,,,,,,,,,
,,,,,,,,,,,,,,,,,60ffbc4214cb2255dd442bc8,25,2022-02-12_14h58.33.325,lexical_decision_task_DD_L4,2021.2.3,Win32,59.71575302,,,,,,,,,,,0.7914,1,,,,,,,,,,,,,,,m,1,0.7914,,,,,,,,0.001707707,-0.404891498,0,0,0,,0,120,120,61,1,ARTIST,HB,old,m,./images/ARTISTHB.png,,,,,,,,,,,,,,,,,,,,,,,,,,,,,,,,,,
,,,,,,,,,,,,,,,,,60ffbc4214cb2255dd442bc8,25,2022-02-12_14h58.33.325,lexical_decision_task_DD_L4,2021.2.3,Win32,59.71575302,,,,,,,,,,,0.584,1,,,,,,,,,,,,,,,m,1,0.584,,,,,,,,0.001707707,-0.404891498,0,0,0,,0,121,121,62,1,MAMMAL,LB,old,m,./images/MAMMALLB.png,,,,,,,,,,,,,,,,,,,,,,,,,,,,,,,,,,
,,,,,,,,,,,,,,,,,60ffbc4214cb2255dd442bc8,25,2022-02-12_14h58.33.325,lexical_decision_task_DD_L4,2021.2.3,Win32,59.71575302,,,,,,,,,,,0.8738,1,,,,,,,,,,,,,,,z,1,0.8738,,,,,,,,0.001707707,-0.404891498,0,0,0,,0,122,122,148,1,JOMS,HB,old,z,./images/JOMSHB.png,,,,,,,,,,,,,,,,,,,,,,,,,,,,,,,,,,
,,,,,,,,,,,,,,,,,60ffbc4214cb2255dd442bc8,25,2022-02-12_14h58.33.325,lexical_decision_task_DD_L4,2021.2.3,Win32,59.71575302,,,,,,,,,,,1.0418,0,,,,,,,,,,,,,,,m,0,1.0418,,,,,,,,0.001707707,-0.404891498,0,0,0,,0,123,123,154,1,THINT,HB,old,z,./images/THINTHB.png,,,,,,,,,,,,,,,,,,,,,,,,,,,,,,,,,,
,,,,,,,,,,,,,,,,,60ffbc4214cb2255dd442bc8,25,2022-02-12_14h58.33.325,lexical_decision_task_DD_L4,2021.2.3,Win32,59.71575302,,,,,,,,,,,0.6057,1,,,,,,,,,,,,,,,z,1,0.6057,,,,,,,,0.001707707,-0.404891498,0,0,0,,0,124,124,86,1,AIFED,LB,old,z,./images/AIFEDLB.png,,,,,,,,,,,,,,,,,,,,,,,,,,,,,,,,,,
,,,,,,,,,,,,,,,,,60ffbc4214cb2255dd442bc8,25,2022-02-12_14h58.33.325,lexical_decision_task_DD_L4,2021.2.3,Win32,59.71575302,,,,,,,,,,,0.7512,1,,,,,,,,,,,,,,,z,1,0.7512,,,,,,,,0.001707707,-0.404891498,1,0,0,,0,125,125,129,1,PRANS,C,old,z,./images/PRANS.png,break_done_button,,,,,,,,,,,,,,,,,,,,,,,,,,,,,,,,,
,,,,,,,,,,,,,,,,,60ffbc4214cb2255dd442bc8,25,2022-02-12_14h58.33.325,lexical_decision_task_DD_L4,2021.2.3,Win32,59.71575302,,,,,,,,,,,1.3012,1,,,,,,,,,,,,,,,m,1,1.3012,,,,,,,,0.001707707,-0.404891498,0,0,0,,0,126,126,68,1,VALLEY,LB,old,m,./images/VALLEYLB.png,,,,,,,,,,,,,,,,,,,,,,,,,,,,,,,,,,
,,,,,,,,,,,,,,,,,60ffbc4214cb2255dd442bc8,25,2022-02-12_14h58.33.325,lexical_decision_task_DD_L4,2021.2.3,Win32,59.71575302,,,,,,,,,,,0.9341,1,,,,,,,,,,,,,,,m,1,0.9341,,,,,,,,0.001707707,-0.404891498,0,0,0,,0,127,127,17,1,PARADE,LB,old,m,./images/PARADELB.png,,,,,,,,,,,,,,,,,,,,,,,,,,,,,,,,,,
,,,,,,,,,,,,,,,,,60ffbc4214cb2255dd442bc8,25,2022-02-12_14h58.33.325,lexical_decision_task_DD_L4,2021.2.3,Win32,59.71575302,,,,,,,,,,,0.7394,1,,,,,,,,,,,,,,,z,1,0.7394,,,,,,,,0.001707707,-0.404891498,0,0,0,,0,128,128,123,1,SEDGE,C,old,z,./images/SEDGE.png,,,,,,,,,,,,,,,,,,,,,,,,,,,,,,,,,,
,,,,,,,,,,,,,,,,,60ffbc4214cb2255dd442bc8,25,2022-02-12_14h58.33.325,lexical_decision_task_DD_L4,2021.2.3,Win32,59.71575302,,,,,,,,,,,0.5871,1,,,,,,,,,,,,,,,z,1,0.5871,,,,,,,,0.001707707,-0.404891498,0,0,0,,0,129,129,134,1,TROSS,LB,old,z,./images/TROSSLB.png,,,,,,,,,,,,,,,,,,,,,,,,,,,,,,,,,,
,,,,,,,,,,,,,,,,,60ffbc4214cb2255dd442bc8,25,2022-02-12_14h58.33.325,lexical_decision_task_DD_L4,2021.2.3,Win32,59.71575302,,,,,,,,,,,0.6516,1,,,,,,,,,,,,,,,z,1,0.6516,,,,,,,,0.001707707,-0.404891498,0,0,0,,0,130,130,100,1,DRIBS,HB,old,z,./images/DRIBSHB.png,,,,,,,,,,,,,,,,,,,,,,,,,,,,,,,,,,
,,,,,,,,,,,,,,,,,60ffbc4214cb2255dd442bc8,25,2022-02-12_14h58.33.325,lexical_decision_task_DD_L4,2021.2.3,Win32,59.71575302,,,,,,,,,,,0.6735,1,,,,,,,,,,,,,,,z,1,0.6735,,,,,,,,0.001707707,-0.404891498,0,0,0,,0,131,131,157,1,INLER,HB,old,z,./images/INLERHB.png,,,,,,,,,,,,,,,,,,,,,,,,,,,,,,,,,,
,,,,,,,,,,,,,,,,,60ffbc4214cb2255dd442bc8,25,2022-02-12_14h58.33.325,lexical_decision_task_DD_L4,2021.2.3,Win32,59.71575302,,,,,,,,,,,0.7867,1,,,,,,,,,,,,,,,z,1,0.7867,,,,,,,,0.001707707,-0.404891498,0,0,0,,0,132,132,136,1,WERVE,HB,old,z,./images/WERVEHB.png,,,,,,,,,,,,,,,,,,,,,,,,,,,,,,,,,,
,,,,,,,,,,,,,,,,,60ffbc4214cb2255dd442bc8,25,2022-02-12_14h58.33.325,lexical_decision_task_DD_L4,2021.2.3,Win32,59.71575302,,,,,,,,,,,0.6506,1,,,,,,,,,,,,,,,m,1,0.6506,,,,,,,,0.001707707,-0.404891498,0,0,0,,0,133,133,45,1,MONKEY,C,old,m,./images/MONKEY.png,,,,,,,,,,,,,,,,,,,,,,,,,,,,,,,,,,
,,,,,,,,,,,,,,,,,60ffbc4214cb2255dd442bc8,25,2022-02-12_14h58.33.325,lexical_decision_task_DD_L4,2021.2.3,Win32,59.71575302,,,,,,,,,,,1.0839,1,,,,,,,,,,,,,,,z,1,1.0839,,,,,,,,0.001707707,-0.404891498,0,0,0,,0,134,134,142,1,PLASK,HB,old,z,./images/PLASKHB.png,,,,,,,,,,,,,,,,,,,,,,,,,,,,,,,,,,
,,,,,,,,,,,,,,,,,60ffbc4214cb2255dd442bc8,25,2022-02-12_14h58.33.325,lexical_decision_task_DD_L4,2021.2.3,Win32,59.71575302,,,,,,,,,,,0.651,1,,,,,,,,,,,,,,,z,1,0.651,,,,,,,,0.001707707,-0.404891498,0,0,0,,0,135,135,153,1,CLUPS,C,old,z,./images/CLUPS.png,,,,,,,,,,,,,,,,,,,,,,,,,,,,,,,,,,
,,,,,,,,,,,,,,,,,60ffbc4214cb2255dd442bc8,25,2022-02-12_14h58.33.325,lexical_decision_task_DD_L4,2021.2.3,Win32,59.71575302,,,,,,,,,,,0.5752,0,,,,,,,,,,,,,,,m,0,0.5752,,,,,,,,0.001707707,-0.404891498,0,0,0,,0,136,136,146,1,MOOST,LB,old,z,./images/MOOSTLB.png,,,,,,,,,,,,,,,,,,,,,,,,,,,,,,,,,,
,,,,,,,,,,,,,,,,,60ffbc4214cb2255dd442bc8,25,2022-02-12_14h58.33.325,lexical_decision_task_DD_L4,2021.2.3,Win32,59.71575302,,,,,,,,,,,0.5438,1,,,,,,,,,,,,,,,z,1,0.5438,,,,,,,,0.001707707,-0.404891498,0,0,0,,0,137,137,135,1,JOODY,C,old,z,./images/JOODY.png,,,,,,,,,,,,,,,,,,,,,,,,,,,,,,,,,,
,,,,,,,,,,,,,,,,,60ffbc4214cb2255dd442bc8,25,2022-02-12_14h58.33.325,lexical_decision_task_DD_L4,2021.2.3,Win32,59.71575302,,,,,,,,,,,0.6927,1,,,,,,,,,,,,,,,z,1,0.6927,,,,,,,,0.001707707,-0.404891498,0,0,0,,0,138,138,118,1,BAVEL,HB,old,z,./images/BAVELHB.png,,,,,,,,,,,,,,,,,,,,,,,,,,,,,,,,,,
,,,,,,,,,,,,,,,,,60ffbc4214cb2255dd442bc8,25,2022-02-12_14h58.33.325,lexical_decision_task_DD_L4,2021.2.3,Win32,59.71575302,,,,,,,,,,,0.4929,0,,,,,,,,,,,,,,,z,0,0.4929,,,,,,,,0.001707707,-0.404891498,0,0,0,,0,139,139,2,1,STOVE,LB,old,m,./images/STOVELB.png,,,,,,,,,,,,,,,,,,,,,,,,,,,,,,,,,,
,,,,,,,,,,,,,,,,,60ffbc4214cb2255dd442bc8,25,2022-02-12_14h58.33.325,lexical_decision_task_DD_L4,2021.2.3,Win32,59.71575302,,,,,,,,,,,0.8029,1,,,,,,,,,,,,,,,z,1,0.8029,,,,,,,,0.001707707,-0.404891498,0,0,0,,0,140,140,125,1,MOOKY,LB,old,z,./images/MOOKYLB.png,,,,,,,,,,,,,,,,,,,,,,,,,,,,,,,,,,
,,,,,,,,,,,,,,,,,60ffbc4214cb2255dd442bc8,25,2022-02-12_14h58.33.325,lexical_decision_task_DD_L4,2021.2.3,Win32,59.71575302,,,,,,,,,,,0.6454,1,,,,,,,,,,,,,,,z,1,0.6454,,,,,,,,0.001707707,-0.404891498,0,0,0,,0,141,141,152,1,FRAIN,LB,old,z,./images/FRAINLB.png,,,,,,,,,,,,,,,,,,,,,,,,,,,,,,,,,,
,,,,,,,,,,,,,,,,,60ffbc4214cb2255dd442bc8,25,2022-02-12_14h58.33.325,lexical_decision_task_DD_L4,2021.2.3,Win32,59.71575302,,,,,,,,,,,0.7841,1,,,,,,,,,,,,,,,z,1,0.7841,,,,,,,,0.001707707,-0.404891498,0,0,0,,0,142,142,151,1,TINKY,HB,old,z,./images/TINKYHB.png,,,,,,,,,,,,,,,,,,,,,,,,,,,,,,,,,,
,,,,,,,,,,,,,,,,,60ffbc4214cb2255dd442bc8,25,2022-02-12_14h58.33.325,lexical_decision_task_DD_L4,2021.2.3,Win32,59.71575302,,,,,,,,,,,0.779,1,,,,,,,,,,,,,,,z,1,0.779,,,,,,,,0.001707707,-0.404891498,0,0,0,,0,143,143,92,1,PAIMS,LB,old,z,./images/PAIMSLB.png,,,,,,,,,,,,,,,,,,,,,,,,,,,,,,,,,,
,,,,,,,,,,,,,,,,,60ffbc4214cb2255dd442bc8,25,2022-02-12_14h58.33.325,lexical_decision_task_DD_L4,2021.2.3,Win32,59.71575302,,,,,,,,,,,0.8284,1,,,,,,,,,,,,,,,m,1,0.8284,,,,,,,,0.001707707,-0.404891498,0,0,0,,0,144,144,60,1,CURRY,C,old,m,./images/CURRY.png,,,,,,,,,,,,,,,,,,,,,,,,,,,,,,,,,,
,,,,,,,,,,,,,,,,,60ffbc4214cb2255dd442bc8,25,2022-02-12_14h58.33.325,lexical_decision_task_DD_L4,2021.2.3,Win32,59.71575302,,,,,,,,,,,1.4199,0,,,,,,,,,,,,,,,m,0,1.4199,,,,,,,,0.001707707,-0.404891498,0,0,0,,0,145,145,106,1,CLUMS,HB,old,z,./images/CLUMSHB.png,,,,,,,,,,,,,,,,,,,,,,,,,,,,,,,,,,
,,,,,,,,,,,,,,,,,60ffbc4214cb2255dd442bc8,25,2022-02-12_14h58.33.325,lexical_decision_task_DD_L4,2021.2.3,Win32,59.71575302,,,,,,,,,,,0.7408,1,,,,,,,,,,,,,,,z,1,0.7408,,,,,,,,0.001707707,-0.404891498,0,0,0,,0,146,146,109,1,BURGE,HB,old,z,./images/BURGEHB.png,,,,,,,,,,,,,,,,,,,,,,,,,,,,,,,,,,
,,,,,,,,,,,,,,,,,60ffbc4214cb2255dd442bc8,25,2022-02-12_14h58.33.325,lexical_decision_task_DD_L4,2021.2.3,Win32,59.71575302,,,,,,,,,,,0.9946,1,,,,,,,,,,,,,,,m,1,0.9946,,,,,,,,0.001707707,-0.404891498,0,0,0,,0,147,147,79,1,RULER,HB,old,m,./images/RULERHB.png,,,,,,,,,,,,,,,,,,,,,,,,,,,,,,,,,,
,,,,,,,,,,,,,,,,,60ffbc4214cb2255dd442bc8,25,2022-02-12_14h58.33.325,lexical_decision_task_DD_L4,2021.2.3,Win32,59.71575302,,,,,,,,,,,0.7504,1,,,,,,,,,,,,,,,z,1,0.7504,,,,,,,,0.001707707,-0.404891498,0,0,0,,0,148,148,124,1,TUNCH,HB,old,z,./images/TUNCHHB.png,,,,,,,,,,,,,,,,,,,,,,,,,,,,,,,,,,
,,,,,,,,,,,,,,,,,60ffbc4214cb2255dd442bc8,25,2022-02-12_14h58.33.325,lexical_decision_task_DD_L4,2021.2.3,Win32,59.71575302,,,,,,,,,,,0.8197,1,,,,,,,,,,,,,,,m,1,0.8197,,,,,,,,0.001707707,-0.404891498,0,0,0,,0,149,149,43,1,STOOL,HB,old,m,./images/STOOLHB.png,,,,,,,,,,,,,,,,,,,,,,,,,,,,,,,,,,
,,,,,,,,,,,,,,,,,60ffbc4214cb2255dd442bc8,25,2022-02-12_14h58.33.325,lexical_decision_task_DD_L4,2021.2.3,Win32,59.71575302,,,,,,,,,,,0.635,1,,,,,,,,,,,,,,,z,1,0.635,,,,,,,,0.001707707,-0.404891498,0,0,0,,0,150,150,158,1,EGECT,LB,old,z,./images/EGECTLB.png,,,,,,,,,,,,,,,,,,,,,,,,,,,,,,,,,,
,,,,,,,,,,,,,,,,,60ffbc4214cb2255dd442bc8,25,2022-02-12_14h58.33.325,lexical_decision_task_DD_L4,2021.2.3,Win32,59.71575302,,,,,,,,,,,0.6512,1,,,,,,,,,,,,,,,z,1,0.6512,,,,,,,,0.001707707,-0.404891498,0,0,0,,0,151,151,95,1,HANTY,LB,old,z,./images/HANTYLB.png,,,,,,,,,,,,,,,,,,,,,,,,,,,,,,,,,,
,,,,,,,,,,,,,,,,,60ffbc4214cb2255dd442bc8,25,2022-02-12_14h58.33.325,lexical_decision_task_DD_L4,2021.2.3,Win32,59.71575302,,,,,,,,,,,0.6593,1,,,,,,,,,,,,,,,z,1,0.6593,,,,,,,,0.001707707,-0.404891498,0,0,0,,0,152,152,162,1,LEICH,C,old,z,./images/LEICH.png,,,,,,,,,,,,,,,,,,,,,,,,,,,,,,,,,,
,,,,,,,,,,,,,,,,,60ffbc4214cb2255dd442bc8,25,2022-02-12_14h58.33.325,lexical_decision_task_DD_L4,2021.2.3,Win32,59.71575302,,,,,,,,,,,0.6397,1,,,,,,,,,,,,,,,z,1,0.6397,,,,,,,,0.001707707,-0.404891498,0,0,0,,0,153,153,147,1,ZOLES,C,old,z,./images/ZOLES.png,,,,,,,,,,,,,,,,,,,,,,,,,,,,,,,,,,
,,,,,,,,,,,,,,,,,60ffbc4214cb2255dd442bc8,25,2022-02-12_14h58.33.325,lexical_decision_task_DD_L4,2021.2.3,Win32,59.71575302,,,,,,,,,,,0.7175,1,,,,,,,,,,,,,,,m,1,0.7175,,,,,,,,0.001707707,-0.404891498,0,0,0,,0,154,154,28,1,CASINO,HB,old,m,./images/CASINOHB.png,,,,,,,,,,,,,,,,,,,,,,,,,,,,,,,,,,
,,,,,,,,,,,,,,,,,60ffbc4214cb2255dd442bc8,25,2022-02-12_14h58.33.325,lexical_decision_task_DD_L4,2021.2.3,Win32,59.71575302,,,,,,,,,,,0.5928,1,,,,,,,,,,,,,,,m,1,0.5928,,,,,,,,0.001707707,-0.404891498,0,0,0,,0,155,155,71,1,BUBBLE,LB,old,m,./images/BUBBLELB.png,,,,,,,,,,,,,,,,,,,,,,,,,,,,,,,,,,
,,,,,,,,,,,,,,,,,60ffbc4214cb2255dd442bc8,25,2022-02-12_14h58.33.325,lexical_decision_task_DD_L4,2021.2.3,Win32,59.71575302,,,,,,,,,,,0.5751,1,,,,,,,,,,,,,,,m,1,0.5751,,,,,,,,0.001707707,-0.404891498,0,0,0,,0,156,156,80,1,PLANET,LB,old,m,./images/PLANETLB.png,,,,,,,,,,,,,,,,,,,,,,,,,,,,,,,,,,
,,,,,,,,,,,,,,,,,60ffbc4214cb2255dd442bc8,25,2022-02-12_14h58.33.325,lexical_decision_task_DD_L4,2021.2.3,Win32,59.71575302,,,,,,,,,,,0.6681,1,,,,,,,,,,,,,,,m,1,0.6681,,,,,,,,0.001707707,-0.404891498,0,0,0,,0,157,157,56,1,HEATER,LB,old,m,./images/HEATERLB.png,,,,,,,,,,,,,,,,,,,,,,,,,,,,,,,,,,
,,,,,,,,,,,,,,,,,60ffbc4214cb2255dd442bc8,25,2022-02-12_14h58.33.325,lexical_decision_task_DD_L4,2021.2.3,Win32,59.71575302,,,,,,,,,,,0.951,0,,,,,,,,,,,,,,,z,0,0.951,,,,,,,,0.001707707,-0.404891498,0,0,0,,0,158,158,7,1,WAGON,HB,old,m,./images/WAGONHB.png,,,,,,,,,,,,,,,,,,,,,,,,,,,,,,,,,,
,,,,,,,,,,,,,,,,,60ffbc4214cb2255dd442bc8,25,2022-02-12_14h58.33.325,lexical_decision_task_DD_L4,2021.2.3,Win32,59.71575302,,,,,,,,,,,1.0591,1,,,,,,,,,,,,,,,z,1,1.0591,,,,,,,,0.001707707,-0.404891498,0,0,0,,0,159,159,112,1,MYING,HB,old,z,./images/MYINGHB.png,,,,,,,,,,,,,,,,,,,,,,,,,,,,,,,,,,
,,,,,,,,,,,,,,,,,60ffbc4214cb2255dd442bc8,25,2022-02-12_14h58.33.325,lexical_decision_task_DD_L4,2021.2.3,Win32,59.71575302,,,,,,,,,,,0.534,1,,,,,,,,,,,,,,,m,1,0.534,,,,,,,,0.001707707,-0.404891498,0,0,0,,0,160,160,59,1,BRUSH,LB,old,m,./images/BRUSHLB.png,,,,,,,,,,,,,,,,,,,,,,,,,,,,,,,,,,
,,,,,,,,,,,,,,,,,60ffbc4214cb2255dd442bc8,25,2022-02-12_14h58.33.325,lexical_decision_task_DD_L4,2021.2.3,Win32,59.71575302,,,,,,,,,,,0.6893,1,,,,,,,,,,,,,,,m,1,0.6893,,,,,,,,0.001707707,-0.404891498,0,0,0,,0,161,161,58,1,CANOE,HB,old,m,./images/CANOEHB.png,,,,,,,,,,,,,,,,,,,,,,,,,,,,,,,,,,
,,,,,,,,,,,,,,,,,60ffbc4214cb2255dd442bc8,25,2022-02-12_14h58.33.325,lexical_decision_task_DD_L4,2021.2.3,Win32,59.71575302,,,,,,,,,,,0.5702,1,,,,,,,,,,,,,,,m,1,0.5702,,,,,,,,0.001707707,-0.404891498,0,0,0,,0,162,162,50,1,PILOT,LB,old,m,./images/PILOTLB.png,,,,,,,,,,,,,,,,,,,,,,,,,,,,,,,,,,
,,,,,,,,,,,,,,,,,60ffbc4214cb2255dd442bc8,25,2022-02-12_14h58.33.325,lexical_decision_task_DD_L4,2021.2.3,Win32,59.71575302,,,,,,,,,,,0.7218,1,,,,,,,,,,,,,,,m,1,0.7218,,,,,,,,0.001707707,-0.404891498,0,0,0,,0,163,163,10,1,GARDEN,HB,old,m,./images/GARDENHB.png,,,,,,,,,,,,,,,,,,,,,,,,,,,,,,,,,,
,,,,,,,,,,,,,,,,,60ffbc4214cb2255dd442bc8,25,2022-02-12_14h58.33.325,lexical_decision_task_DD_L4,2021.2.3,Win32,59.71575302,,,,,,,,,,,0.6424,1,,,,,,,,,,,,,,,m,1,0.6424,,,,,,,,0.001707707,-0.404891498,0,0,0,,0,164,164,20,1,GRANNY,LB,old,m,./images/GRANNYLB.png,,,,,,,,,,,,,,,,,,,,,,,,,,,,,,,,,,
,,,,,,,,,,,,,,,,,60ffbc4214cb2255dd442bc8,25,2022-02-12_14h58.33.325,lexical_decision_task_DD_L4,2021.2.3,Win32,59.71575302,,,,,,,,,,,0.6711,1,,,,,,,,,,,,,,,z,1,0.6711,,,,,,,,0.001707707,-0.404891498,0,0,0,,0,165,165,161,1,BLAPS,LB,old,z,./images/BLAPSLB.png,,,,,,,,,,,,,,,,,,,,,,,,,,,,,,,,,,
,,,,,,,,,,,,,,,,,60ffbc4214cb2255dd442bc8,25,2022-02-12_14h58.33.325,lexical_decision_task_DD_L4,2021.2.3,Win32,59.71575302,,,,,,,,,,,0.5714,1,,,,,,,,,,,,,,,m,1,0.5714,,,,,,,,0.001707707,-0.404891498,0,0,0,,0,166,166,27,1,BUTTER,C,old,m,./images/BUTTER.png,,,,,,,,,,,,,,,,,,,,,,,,,,,,,,,,,,
,,,,,,,,,,,,,,,,,60ffbc4214cb2255dd442bc8,25,2022-02-12_14h58.33.325,lexical_decision_task_DD_L4,2021.2.3,Win32,59.71575302,,,,,,,,,,,1.0363,1,,,,,,,,,,,,,,,m,1,1.0363,,,,,,,,0.001707707,-0.404891498,0,0,0,,0,167,167,31,1,STEAK,HB,old,m,./images/STEAKHB.png,,,,,,,,,,,,,,,,,,,,,,,,,,,,,,,,,,
,,,,,,,,,,,,,,,,,60ffbc4214cb2255dd442bc8,25,2022-02-12_14h58.33.325,lexical_decision_task_DD_L4,2021.2.3,Win32,59.71575302,,,,,,,,,,,,,,,,,,,,,,,,,,,,,,,,,,,,,,,,,,,,,,,,,How likely will it be that you will recognize the words presented clearly on a scale of 0 (not likely) to 100 (most likely)?,,,,,0.004486175,-0.417858156,1,0,0,jol_adv,4,8.2292,0,0,0,0,1,,,,,,,,,,,,,,,,,,,,
,,,,,,,,,,,,,,,,,60ffbc4214cb2255dd442bc8,25,2022-02-12_14h58.33.325,lexical_decision_task_DD_L4,2021.2.3,Win32,59.71575302,,,,,,,,,,,,,,,,,,,,,,,,,,,,,,,,,,,,,,,,,,,,,,,,,How likely will it be that you will recognize the words presented very blurred on a scale of 0 (not likely) to 100 (most likely)?,,,,,,,,,,,3,8.2797,0,1,1,2,1,,,,,,,,,,,,,,,,,,,,
,,,,,,,,,,,,,,,,,60ffbc4214cb2255dd442bc8,25,2022-02-12_14h58.33.325,lexical_decision_task_DD_L4,2021.2.3,Win32,59.71575302,,,,,,,,,,,,,,,,,,,,,,,,,,,,,,,,,,,,,,,,,,,,,,,,,How likely will it be that you will recognize the words presented slighly blurred on a scale of 0 (not likely) to 100 (most likely)?,,,,,,,,,,,5,3.8862,0,2,2,1,1,,,,,,,,,,,,,,,,,,,,
,0.051722121,-0.390072282,1,0,0,instr_done_button,,,,,,1,test,"In the next phase you will be presented with the words from the the first phase. Your job is to decide whether you remember seeing the word or not. If you remember seeing the word press ""old"" or type ""m"". If you do not remember seeing the word press ""new"" or type ""z"". Please press the space bar or click on continue to begin. ",,,60ffbc4214cb2255dd442bc8,25,2022-02-12_14h58.33.325,lexical_decision_task_DD_L4,2021.2.3,Win32,59.71575302,,,,,,,,,,,,,,,,,,,,,,,,,,,,,,,,,,,,,,,,,,,,,,,,,,,,,,,,,,,,,,,,,,,0,0,0,0,1,,,,,,,,,,,,,,,
,0.003559981,-0.378031762,1,0,0,instr_done_button,,,,,,1,test,"In the next phase you will be presented with the words from the the first phase. Your job is to decide whether you remember seeing the word or not. If you remember seeing the word press ""old"" or type ""m"". If you do not remember seeing the word press ""new"" or type ""z"". Please press the space bar or click on continue to begin. ",,,60ffbc4214cb2255dd442bc8,25,2022-02-12_14h58.33.325,lexical_decision_task_DD_L4,2021.2.3,Win32,59.71575302,,,,,,,,,,,,,,,,,,,,,,,,,,,,,,,,,,,,,,,,,,,,,,,,,,,,,,,,,,,,,,,,,,,1,0,1,0,1,,,,,,,,,,,,,,,
,-0.012185258,-0.410448605,1,0,0,instr_done_button,,,,,,1,test,"In the next phase you will be presented with the words from the the first phase. Your job is to decide whether you remember seeing the word or not. If you remember seeing the word press ""old"" or type ""m"". If you do not remember seeing the word press ""new"" or type ""z"". Please press the space bar or click on continue to begin. ",,,60ffbc4214cb2255dd442bc8,25,2022-02-12_14h58.33.325,lexical_decision_task_DD_L4,2021.2.3,Win32,59.71575302,,,,,,,,,,,,,,,,,,,,,,,,,,,,,,,,,,,,,,,,,,,,,,,,,,,,,,,,,,,,,,,,,,,2,0,2,0,1,,,,,,,,,,,,,,,
space,-0.023299642,-0.282633846,0,0,0,,,,,,,1,test,"In the next phase you will be presented with the words from the the first phase. Your job is to decide whether you remember seeing the word or not. If you remember seeing the word press ""old"" or type ""m"". If you do not remember seeing the word press ""new"" or type ""z"". Please press the space bar or click on continue to begin. ",,,60ffbc4214cb2255dd442bc8,25,2022-02-12_14h58.33.325,lexical_decision_task_DD_L4,2021.2.3,Win32,59.71575302,,,,,,,,,,,,,,,,,,,,,1.2564,,,,,,,,,,,,,,,,,,,,,,,,,,,,,,,,,,,,,,,,,,,,,,3,0,3,0,1,,,,,,,,,,,,,,,
,-0.028856749,-0.352098389,1,0,0,instr_done_button,,,,,,1,test,"In the next phase you will be presented with the words from the the first phase. Your job is to decide whether you remember seeing the word or not. If you remember seeing the word press ""old"" or type ""m"". If you do not remember seeing the word press ""new"" or type ""z"". Please press the space bar or click on continue to begin. ",,,60ffbc4214cb2255dd442bc8,25,2022-02-12_14h58.33.325,lexical_decision_task_DD_L4,2021.2.3,Win32,59.71575302,,,,,,,,,,,,,,,,,,,,,,,,,,,,,,,,,,,,,,,,,,,,,,,,,,,,,,,,,,,,,,,,,,,4,0,4,0,1,,,,,,,,,,,,,,,
,,,,,,,,,,,,,,,,,60ffbc4214cb2255dd442bc8,25,2022-02-12_14h58.33.325,lexical_decision_task_DD_L4,2021.2.3,Win32,59.71575302,,,,,,,,,,,4.9508,1,,,,,,,,,,,,,,,,,,,,,,,,,-0.028856749,-0.352098389,0,0,0,,,,,,,QUILL,HB,z,y,./images/QUILLHB.png,,,,,,,,,,,,,,,,,,,,z,1,4.9508,-0.028856749,-0.352098389,1,0,0,0.1112,,0,0,0,115,1
,,,,,,,,,,,,,,,,,60ffbc4214cb2255dd442bc8,25,2022-02-12_14h58.33.325,lexical_decision_task_DD_L4,2021.2.3,Win32,59.71575302,,,,,,,,,,,1.1505,1,,,,,,,,,,,,,,,,,,,,,,,,,-0.028856749,-0.352098389,0,0,0,,,,,,,BIRTH,HB,z,y,./images/BIRTHHB.png,,,,,,,,,,,,,,,,,,,,z,1,1.1505,,,,,,,,0,1,1,121,1
,,,,,,,,,,,,,,,,,60ffbc4214cb2255dd442bc8,25,2022-02-12_14h58.33.325,lexical_decision_task_DD_L4,2021.2.3,Win32,59.71575302,,,,,,,,,,,1.2204,1,,,,,,,,,,,,,,,,,,,,,,,,,-0.028856749,-0.352098389,0,0,0,,,,,,,HEATER,LB,m,y,./images/HEATERLB.png,,,,,,,,,,,,,,,,,,,,m,1,1.2204,,,,,,,,0,2,2,56,1
,,,,,,,,,,,,,,,,,60ffbc4214cb2255dd442bc8,25,2022-02-12_14h58.33.325,lexical_decision_task_DD_L4,2021.2.3,Win32,59.71575302,,,,,,,,,,,0.9615,0,,,,,,,,,,,,,,,,,,,,,,,,,-0.028856749,-0.352098389,0,0,0,,,,,,,BRIDE,HB,m,y,./images/BRIDEHB.png,,,,,,,,,,,,,,,,,,,,z,0,0.9615,,,,,,,,0,3,3,64,1
,,,,,,,,,,,,,,,,,60ffbc4214cb2255dd442bc8,25,2022-02-12_14h58.33.325,lexical_decision_task_DD_L4,2021.2.3,Win32,59.71575302,,,,,,,,,,,0.7045,1,,,,,,,,,,,,,,,,,,,,,,,,,-0.028856749,-0.352098389,0,0,0,,,,,,,CANOE,HB,m,y,./images/CANOEHB.png,,,,,,,,,,,,,,,,,,,,m,1,0.7045,,,,,,,,0,4,4,58,1
,,,,,,,,,,,,,,,,,60ffbc4214cb2255dd442bc8,25,2022-02-12_14h58.33.325,lexical_decision_task_DD_L4,2021.2.3,Win32,59.71575302,,,,,,,,,,,0.8506,1,,,,,,,,,,,,,,,,,,,,,,,,,-0.028856749,-0.352098389,0,0,0,,,,,,,COOKER,C,z,y,./images/COOKER.png,,,,,,,,,,,,,,,,,,,,z,1,0.8506,,,,,,,,0,5,5,153,1
,,,,,,,,,,,,,,,,,60ffbc4214cb2255dd442bc8,25,2022-02-12_14h58.33.325,lexical_decision_task_DD_L4,2021.2.3,Win32,59.71575302,,,,,,,,,,,0.7844,1,,,,,,,,,,,,,,,,,,,,,,,,,-0.028856749,-0.352098389,0,0,0,,,,,,,PARADE,LB,m,y,./images/PARADELB.png,,,,,,,,,,,,,,,,,,,,m,1,0.7844,,,,,,,,0,6,6,17,1
,,,,,,,,,,,,,,,,,60ffbc4214cb2255dd442bc8,25,2022-02-12_14h58.33.325,lexical_decision_task_DD_L4,2021.2.3,Win32,59.71575302,,,,,,,,,,,0.7263,1,,,,,,,,,,,,,,,,,,,,,,,,,-0.028856749,-0.352098389,0,0,0,,,,,,,PLANET,LB,m,y,./images/PLANETLB.png,,,,,,,,,,,,,,,,,,,,m,1,0.7263,,,,,,,,0,7,7,80,1
,,,,,,,,,,,,,,,,,60ffbc4214cb2255dd442bc8,25,2022-02-12_14h58.33.325,lexical_decision_task_DD_L4,2021.2.3,Win32,59.71575302,,,,,,,,,,,1.7541,1,,,,,,,,,,,,,,,,,,,,,,,,,-0.028856749,-0.352098389,0,0,0,,,,,,,TRIPOD,C,z,y,./images/TRIPOD.png,,,,,,,,,,,,,,,,,,,,z,1,1.7541,,,,,,,,0,8,8,138,1
,,,,,,,,,,,,,,,,,60ffbc4214cb2255dd442bc8,25,2022-02-12_14h58.33.325,lexical_decision_task_DD_L4,2021.2.3,Win32,59.71575302,,,,,,,,,,,0.9907,1,,,,,,,,,,,,,,,,,,,,,,,,,-0.028856749,-0.352098389,0,0,0,,,,,,,BLOKE,C,m,y,./images/BLOKE.png,,,,,,,,,,,,,,,,,,,,m,1,0.9907,,,,,,,,0,9,9,12,1
,,,,,,,,,,,,,,,,,60ffbc4214cb2255dd442bc8,25,2022-02-12_14h58.33.325,lexical_decision_task_DD_L4,2021.2.3,Win32,59.71575302,,,,,,,,,,,1.2393,1,,,,,,,,,,,,,,,,,,,,,,,,,-0.028856749,-0.352098389,0,0,0,,,,,,,SKIING,LB,z,y,./images/SKIINGLB.png,,,,,,,,,,,,,,,,,,,,z,1,1.2393,,,,,,,,0,10,10,101,1
,,,,,,,,,,,,,,,,,60ffbc4214cb2255dd442bc8,25,2022-02-12_14h58.33.325,lexical_decision_task_DD_L4,2021.2.3,Win32,59.71575302,,,,,,,,,,,0.667,1,,,,,,,,,,,,,,,,,,,,,,,,,-0.028856749,-0.352098389,0,0,0,,,,,,,WHEEL,LB,m,y,./images/WHEELLB.png,,,,,,,,,,,,,,,,,,,,m,1,0.667,,,,,,,,0,11,11,77,1
,,,,,,,,,,,,,,,,,60ffbc4214cb2255dd442bc8,25,2022-02-12_14h58.33.325,lexical_decision_task_DD_L4,2021.2.3,Win32,59.71575302,,,,,,,,,,,0.9892,1,,,,,,,,,,,,,,,,,,,,,,,,,-0.028856749,-0.352098389,0,0,0,,,,,,,BRUSH,LB,m,y,./images/BRUSHLB.png,,,,,,,,,,,,,,,,,,,,m,1,0.9892,,,,,,,,0,12,12,59,1
,,,,,,,,,,,,,,,,,60ffbc4214cb2255dd442bc8,25,2022-02-12_14h58.33.325,lexical_decision_task_DD_L4,2021.2.3,Win32,59.71575302,,,,,,,,,,,0.9543,0,,,,,,,,,,,,,,,,,,,,,,,,,-0.028856749,-0.352098389,0,0,0,,,,,,,SHORE,C,z,y,./images/SHORE.png,,,,,,,,,,,,,,,,,,,,m,0,0.9543,,,,,,,,0,13,13,96,1
,,,,,,,,,,,,,,,,,60ffbc4214cb2255dd442bc8,25,2022-02-12_14h58.33.325,lexical_decision_task_DD_L4,2021.2.3,Win32,59.71575302,,,,,,,,,,,1.6672,0,,,,,,,,,,,,,,,,,,,,,,,,,-0.028856749,-0.352098389,0,0,0,,,,,,,BOILER,C,m,y,./images/BOILER.png,,,,,,,,,,,,,,,,,,,,z,0,1.6672,,,,,,,,0,14,14,36,1
,,,,,,,,,,,,,,,,,60ffbc4214cb2255dd442bc8,25,2022-02-12_14h58.33.325,lexical_decision_task_DD_L4,2021.2.3,Win32,59.71575302,,,,,,,,,,,1.1345,1,,,,,,,,,,,,,,,,,,,,,,,,,-0.028856749,-0.352098389,0,0,0,,,,,,,PACKET,LB,z,y,./images/PACKETLB.png,,,,,,,,,,,,,,,,,,,,z,1,1.1345,,,,,,,,0,15,15,140,1
,,,,,,,,,,,,,,,,,60ffbc4214cb2255dd442bc8,25,2022-02-12_14h58.33.325,lexical_decision_task_DD_L4,2021.2.3,Win32,59.71575302,,,,,,,,,,,2.626,1,,,,,,,,,,,,,,,,,,,,,,,,,-0.028856749,-0.352098389,0,0,0,,,,,,,BONNET,LB,z,y,./images/BONNETLB.png,,,,,,,,,,,,,,,,,,,,z,1,2.626,,,,,,,,0,16,16,95,1
,,,,,,,,,,,,,,,,,60ffbc4214cb2255dd442bc8,25,2022-02-12_14h58.33.325,lexical_decision_task_DD_L4,2021.2.3,Win32,59.71575302,,,,,,,,,,,0.7858,1,,,,,,,,,,,,,,,,,,,,,,,,,-0.028856749,-0.352098389,0,0,0,,,,,,,NOOSE,C,z,y,./images/NOOSE.png,,,,,,,,,,,,,,,,,,,,z,1,0.7858,,,,,,,,0,17,17,156,1
,,,,,,,,,,,,,,,,,60ffbc4214cb2255dd442bc8,25,2022-02-12_14h58.33.325,lexical_decision_task_DD_L4,2021.2.3,Win32,59.71575302,,,,,,,,,,,0.8507,1,,,,,,,,,,,,,,,,,,,,,,,,,-0.028856749,-0.352098389,0,0,0,,,,,,,CLOTH,LB,m,y,./images/CLOTHLB.png,,,,,,,,,,,,,,,,,,,,m,1,0.8507,,,,,,,,0,18,18,23,1
,,,,,,,,,,,,,,,,,60ffbc4214cb2255dd442bc8,25,2022-02-12_14h58.33.325,lexical_decision_task_DD_L4,2021.2.3,Win32,59.71575302,,,,,,,,,,,0.7333,1,,,,,,,,,,,,,,,,,,,,,,,,,-0.028856749,-0.352098389,0,0,0,,,,,,,DRUMS,HB,z,y,./images/DRUMSHB.png,,,,,,,,,,,,,,,,,,,,z,1,0.7333,,,,,,,,0,19,19,133,1
,,,,,,,,,,,,,,,,,60ffbc4214cb2255dd442bc8,25,2022-02-12_14h58.33.325,lexical_decision_task_DD_L4,2021.2.3,Win32,59.71575302,,,,,,,,,,,0.6171,1,,,,,,,,,,,,,,,,,,,,,,,,,-0.028856749,-0.352098389,0,0,0,,,,,,,TULIP,LB,z,y,./images/TULIPLB.png,,,,,,,,,,,,,,,,,,,,z,1,0.6171,,,,,,,,0,20,20,92,1
,,,,,,,,,,,,,,,,,60ffbc4214cb2255dd442bc8,25,2022-02-12_14h58.33.325,lexical_decision_task_DD_L4,2021.2.3,Win32,59.71575302,,,,,,,,,,,0.7257,1,,,,,,,,,,,,,,,,,,,,,,,,,-0.028856749,-0.352098389,0,0,0,,,,,,,MALLET,LB,z,y,./images/MALLETLB.png,,,,,,,,,,,,,,,,,,,,z,1,0.7257,,,,,,,,0,21,21,134,1
,,,,,,,,,,,,,,,,,60ffbc4214cb2255dd442bc8,25,2022-02-12_14h58.33.325,lexical_decision_task_DD_L4,2021.2.3,Win32,59.71575302,,,,,,,,,,,1.804,1,,,,,,,,,,,,,,,,,,,,,,,,,-0.028856749,-0.352098389,0,0,0,,,,,,,MOTOR,HB,z,y,./images/MOTORHB.png,,,,,,,,,,,,,,,,,,,,z,1,1.804,,,,,,,,0,22,22,97,1
,,,,,,,,,,,,,,,,,60ffbc4214cb2255dd442bc8,25,2022-02-12_14h58.33.325,lexical_decision_task_DD_L4,2021.2.3,Win32,59.71575302,,,,,,,,,,,1.3014,1,,,,,,,,,,,,,,,,,,,,,,,,,-0.028856749,-0.352098389,0,0,0,,,,,,,STORM,C,z,y,./images/STORM.png,,,,,,,,,,,,,,,,,,,,z,1,1.3014,,,,,,,,0,23,23,114,1
,,,,,,,,,,,,,,,,,60ffbc4214cb2255dd442bc8,25,2022-02-12_14h58.33.325,lexical_decision_task_DD_L4,2021.2.3,Win32,59.71575302,,,,,,,,,,,0.6845,1,,,,,,,,,,,,,,,,,,,,,,,,,-0.028856749,-0.352098389,0,0,0,,,,,,,PISTOL,LB,m,y,./images/PISTOLLB.png,,,,,,,,,,,,,,,,,,,,m,1,0.6845,,,,,,,,0,24,24,29,1
,,,,,,,,,,,,,,,,,60ffbc4214cb2255dd442bc8,25,2022-02-12_14h58.33.325,lexical_decision_task_DD_L4,2021.2.3,Win32,59.71575302,,,,,,,,,,,0.7391,1,,,,,,,,,,,,,,,,,,,,,,,,,-0.028856749,-0.352098389,0,0,0,,,,,,,BISHOP,HB,m,y,./images/BISHOPHB.png,,,,,,,,,,,,,,,,,,,,m,1,0.7391,,,,,,,,0,25,25,49,1
,,,,,,,,,,,,,,,,,60ffbc4214cb2255dd442bc8,25,2022-02-12_14h58.33.325,lexical_decision_task_DD_L4,2021.2.3,Win32,59.71575302,,,,,,,,,,,0.7185,1,,,,,,,,,,,,,,,,,,,,,,,,,-0.028856749,-0.352098389,0,0,0,,,,,,,SCREW,C,z,y,./images/SCREW.png,,,,,,,,,,,,,,,,,,,,z,1,0.7185,,,,,,,,0,26,26,108,1
,,,,,,,,,,,,,,,,,60ffbc4214cb2255dd442bc8,25,2022-02-12_14h58.33.325,lexical_decision_task_DD_L4,2021.2.3,Win32,59.71575302,,,,,,,,,,,0.9055,1,,,,,,,,,,,,,,,,,,,,,,,,,-0.028856749,-0.352098389,0,0,0,,,,,,,PEBBLE,HB,m,y,./images/PEBBLEHB.png,,,,,,,,,,,,,,,,,,,,m,1,0.9055,,,,,,,,0,27,27,82,1
,,,,,,,,,,,,,,,,,60ffbc4214cb2255dd442bc8,25,2022-02-12_14h58.33.325,lexical_decision_task_DD_L4,2021.2.3,Win32,59.71575302,,,,,,,,,,,0.7006,1,,,,,,,,,,,,,,,,,,,,,,,,,-0.028856749,-0.352098389,0,0,0,,,,,,,COLLAR,C,m,y,./images/COLLAR.png,,,,,,,,,,,,,,,,,,,,m,1,0.7006,,,,,,,,0,28,28,15,1
,,,,,,,,,,,,,,,,,60ffbc4214cb2255dd442bc8,25,2022-02-12_14h58.33.325,lexical_decision_task_DD_L4,2021.2.3,Win32,59.71575302,,,,,,,,,,,0.7174,1,,,,,,,,,,,,,,,,,,,,,,,,,-0.028856749,-0.352098389,0,0,0,,,,,,,POSTER,LB,m,y,./images/POSTERLB.png,,,,,,,,,,,,,,,,,,,,m,1,0.7174,,,,,,,,0,29,29,53,1
,,,,,,,,,,,,,,,,,60ffbc4214cb2255dd442bc8,25,2022-02-12_14h58.33.325,lexical_decision_task_DD_L4,2021.2.3,Win32,59.71575302,,,,,,,,,,,1.0179,1,,,,,,,,,,,,,,,,,,,,,,,,,-0.028856749,-0.352098389,0,0,0,,,,,,,SAILOR,HB,z,y,./images/SAILORHB.png,,,,,,,,,,,,,,,,,,,,z,1,1.0179,,,,,,,,0,30,30,151,1
,,,,,,,,,,,,,,,,,60ffbc4214cb2255dd442bc8,25,2022-02-12_14h58.33.325,lexical_decision_task_DD_L4,2021.2.3,Win32,59.71575302,,,,,,,,,,,0.9007,1,,,,,,,,,,,,,,,,,,,,,,,,,-0.028856749,-0.352098389,0,0,0,,,,,,,SLOPE,C,m,y,./images/SLOPE.png,,,,,,,,,,,,,,,,,,,,m,1,0.9007,,,,,,,,0,31,31,30,1
,,,,,,,,,,,,,,,,,60ffbc4214cb2255dd442bc8,25,2022-02-12_14h58.33.325,lexical_decision_task_DD_L4,2021.2.3,Win32,59.71575302,,,,,,,,,,,0.74,1,,,,,,,,,,,,,,,,,,,,,,,,,-0.028856749,-0.352098389,0,0,0,,,,,,,FALCON,HB,z,y,./images/FALCONHB.png,,,,,,,,,,,,,,,,,,,,z,1,0.74,,,,,,,,0,32,32,112,1
,,,,,,,,,,,,,,,,,60ffbc4214cb2255dd442bc8,25,2022-02-12_14h58.33.325,lexical_decision_task_DD_L4,2021.2.3,Win32,59.71575302,,,,,,,,,,,0.984,1,,,,,,,,,,,,,,,,,,,,,,,,,-0.028856749,-0.352098389,0,0,0,,,,,,,CRUMB,LB,z,y,./images/CRUMBLB.png,,,,,,,,,,,,,,,,,,,,z,1,0.984,,,,,,,,0,33,33,113,1
,,,,,,,,,,,,,,,,,60ffbc4214cb2255dd442bc8,25,2022-02-12_14h58.33.325,lexical_decision_task_DD_L4,2021.2.3,Win32,59.71575302,,,,,,,,,,,0.7684,1,,,,,,,,,,,,,,,,,,,,,,,,,-0.028856749,-0.352098389,0,0,0,,,,,,,KIDNEY,C,z,y,./images/KIDNEY.png,,,,,,,,,,,,,,,,,,,,z,1,0.7684,,,,,,,,0,34,34,105,1
,,,,,,,,,,,,,,,,,60ffbc4214cb2255dd442bc8,25,2022-02-12_14h58.33.325,lexical_decision_task_DD_L4,2021.2.3,Win32,59.71575302,,,,,,,,,,,0.9747,1,,,,,,,,,,,,,,,,,,,,,,,,,-0.028856749,-0.352098389,0,0,0,,,,,,,BELLY,HB,z,y,./images/BELLYHB.png,,,,,,,,,,,,,,,,,,,,z,1,0.9747,,,,,,,,0,35,35,94,1
,,,,,,,,,,,,,,,,,60ffbc4214cb2255dd442bc8,25,2022-02-12_14h58.33.325,lexical_decision_task_DD_L4,2021.2.3,Win32,59.71575302,,,,,,,,,,,0.9845,1,,,,,,,,,,,,,,,,,,,,,,,,,-0.028856749,-0.352098389,0,0,0,,,,,,,SPORT,C,z,y,./images/SPORT.png,,,,,,,,,,,,,,,,,,,,z,1,0.9845,,,,,,,,0,36,36,132,1
,,,,,,,,,,,,,,,,,60ffbc4214cb2255dd442bc8,25,2022-02-12_14h58.33.325,lexical_decision_task_DD_L4,2021.2.3,Win32,59.71575302,,,,,,,,,,,0.6713,1,,,,,,,,,,,,,,,,,,,,,,,,,-0.028856749,-0.352098389,0,0,0,,,,,,,PILOT,LB,m,y,./images/PILOTLB.png,,,,,,,,,,,,,,,,,,,,m,1,0.6713,,,,,,,,0,37,37,50,1
,,,,,,,,,,,,,,,,,60ffbc4214cb2255dd442bc8,25,2022-02-12_14h58.33.325,lexical_decision_task_DD_L4,2021.2.3,Win32,59.71575302,,,,,,,,,,,0.8726,1,,,,,,,,,,,,,,,,,,,,,,,,,-0.028856749,-0.352098389,0,0,0,,,,,,,TIGER,HB,m,y,./images/TIGERHB.png,,,,,,,,,,,,,,,,,,,,m,1,0.8726,,,,,,,,0,38,38,37,1
,,,,,,,,,,,,,,,,,60ffbc4214cb2255dd442bc8,25,2022-02-12_14h58.33.325,lexical_decision_task_DD_L4,2021.2.3,Win32,59.71575302,,,,,,,,,,,0.7028,1,,,,,,,,,,,,,,,,,,,,,,,,,-0.028856749,-0.352098389,0,0,0,,,,,,,DRILL,C,m,y,./images/DRILL.png,,,,,,,,,,,,,,,,,,,,m,1,0.7028,,,,,,,,0,39,39,81,1
,,,,,,,,,,,,,,,,,60ffbc4214cb2255dd442bc8,25,2022-02-12_14h58.33.325,lexical_decision_task_DD_L4,2021.2.3,Win32,59.71575302,,,,,,,,,,,1.5675,0,,,,,,,,,,,,,,,,,,,,,,,,,-0.028856749,-0.352098389,0,0,0,,,,,,,BARREL,LB,z,y,./images/BARRELLB.png,,,,,,,,,,,,,,,,,,,,m,0,1.5675,,,,,,,,0,40,40,116,1
,,,,,,,,,,,,,,,,,60ffbc4214cb2255dd442bc8,25,2022-02-12_14h58.33.325,lexical_decision_task_DD_L4,2021.2.3,Win32,59.71575302,,,,,,,,,,,0.9178,1,,,,,,,,,,,,,,,,,,,,,,,,,-0.028856749,-0.352098389,1,0,0,,,,,,,MOSQUE,HB,z,y,./images/MOSQUEHB.png,break_done_button,,,,,,,,,,,,,,,,,,,z,1,0.9178,,,,,,,,0,41,41,127,1
,,,,,,,,,,,,,,,,,60ffbc4214cb2255dd442bc8,25,2022-02-12_14h58.33.325,lexical_decision_task_DD_L4,2021.2.3,Win32,59.71575302,,,,,,,,,,,1.4023,1,,,,,,,,,,,,,,,,,,,,,,,,,-0.028856749,-0.352098389,0,0,0,,,,,,,ARROW,C,m,y,./images/ARROW.png,,,,,,,,,,,,,,,,,,,,m,1,1.4023,,,,,,,,0,42,42,69,1
,,,,,,,,,,,,,,,,,60ffbc4214cb2255dd442bc8,25,2022-02-12_14h58.33.325,lexical_decision_task_DD_L4,2021.2.3,Win32,59.71575302,,,,,,,,,,,0.961,1,,,,,,,,,,,,,,,,,,,,,,,,,-0.028856749,-0.352098389,0,0,0,,,,,,,CANDLE,HB,z,y,./images/CANDLEHB.png,,,,,,,,,,,,,,,,,,,,z,1,0.961,,,,,,,,0,43,43,145,1
,,,,,,,,,,,,,,,,,60ffbc4214cb2255dd442bc8,25,2022-02-12_14h58.33.325,lexical_decision_task_DD_L4,2021.2.3,Win32,59.71575302,,,,,,,,,,,0.6698,1,,,,,,,,,,,,,,,,,,,,,,,,,-0.028856749,-0.352098389,0,0,0,,,,,,,WALNUT,C,m,y,./images/WALNUT.png,,,,,,,,,,,,,,,,,,,,m,1,0.6698,,,,,,,,0,44,44,0,1
,,,,,,,,,,,,,,,,,60ffbc4214cb2255dd442bc8,25,2022-02-12_14h58.33.325,lexical_decision_task_DD_L4,2021.2.3,Win32,59.71575302,,,,,,,,,,,0.9676,1,,,,,,,,,,,,,,,,,,,,,,,,,-0.028856749,-0.352098389,0,0,0,,,,,,,PURSE,LB,z,y,./images/PURSELB.png,,,,,,,,,,,,,,,,,,,,z,1,0.9676,,,,,,,,0,45,45,146,1
,,,,,,,,,,,,,,,,,60ffbc4214cb2255dd442bc8,25,2022-02-12_14h58.33.325,lexical_decision_task_DD_L4,2021.2.3,Win32,59.71575302,,,,,,,,,,,1.2523,0,,,,,,,,,,,,,,,,,,,,,,,,,-0.028856749,-0.352098389,0,0,0,,,,,,,DIVER,C,m,y,./images/DIVER.png,,,,,,,,,,,,,,,,,,,,z,0,1.2523,,,,,,,,0,46,46,9,1
,,,,,,,,,,,,,,,,,60ffbc4214cb2255dd442bc8,25,2022-02-12_14h58.33.325,lexical_decision_task_DD_L4,2021.2.3,Win32,59.71575302,,,,,,,,,,,0.739,1,,,,,,,,,,,,,,,,,,,,,,,,,-0.028856749,-0.352098389,0,0,0,,,,,,,TWINS,C,z,y,./images/TWINS.png,,,,,,,,,,,,,,,,,,,,z,1,0.739,,,,,,,,0,47,47,144,1
,,,,,,,,,,,,,,,,,60ffbc4214cb2255dd442bc8,25,2022-02-12_14h58.33.325,lexical_decision_task_DD_L4,2021.2.3,Win32,59.71575302,,,,,,,,,,,0.639,1,,,,,,,,,,,,,,,,,,,,,,,,,-0.028856749,-0.352098389,0,0,0,,,,,,,SAUCE,C,m,y,./images/SAUCE.png,,,,,,,,,,,,,,,,,,,,m,1,0.639,,,,,,,,0,48,48,51,1
,,,,,,,,,,,,,,,,,60ffbc4214cb2255dd442bc8,25,2022-02-12_14h58.33.325,lexical_decision_task_DD_L4,2021.2.3,Win32,59.71575302,,,,,,,,,,,0.7859,1,,,,,,,,,,,,,,,,,,,,,,,,,-0.028856749,-0.352098389,0,0,0,,,,,,,PEACH,LB,z,y,./images/PEACHLB.png,,,,,,,,,,,,,,,,,,,,z,1,0.7859,,,,,,,,0,49,49,119,1
,,,,,,,,,,,,,,,,,60ffbc4214cb2255dd442bc8,25,2022-02-12_14h58.33.325,lexical_decision_task_DD_L4,2021.2.3,Win32,59.71575302,,,,,,,,,,,0.7173,1,,,,,,,,,,,,,,,,,,,,,,,,,-0.028856749,-0.352098389,0,0,0,,,,,,,TOWEL,HB,m,y,./images/TOWELHB.png,,,,,,,,,,,,,,,,,,,,m,1,0.7173,,,,,,,,0,50,50,1,1
,,,,,,,,,,,,,,,,,60ffbc4214cb2255dd442bc8,25,2022-02-12_14h58.33.325,lexical_decision_task_DD_L4,2021.2.3,Win32,59.71575302,,,,,,,,,,,1.105,1,,,,,,,,,,,,,,,,,,,,,,,,,-0.028856749,-0.352098389,0,0,0,,,,,,,BAKER,C,m,y,./images/BAKER.png,,,,,,,,,,,,,,,,,,,,m,1,1.105,,,,,,,,0,51,51,63,1
,,,,,,,,,,,,,,,,,60ffbc4214cb2255dd442bc8,25,2022-02-12_14h58.33.325,lexical_decision_task_DD_L4,2021.2.3,Win32,59.71575302,,,,,,,,,,,0.8704,0,,,,,,,,,,,,,,,,,,,,,,,,,-0.028856749,-0.352098389,0,0,0,,,,,,,COUCH,LB,z,y,./images/COUCHLB.png,,,,,,,,,,,,,,,,,,,,m,0,0.8704,,,,,,,,0,52,52,161,1
,,,,,,,,,,,,,,,,,60ffbc4214cb2255dd442bc8,25,2022-02-12_14h58.33.325,lexical_decision_task_DD_L4,2021.2.3,Win32,59.71575302,,,,,,,,,,,0.7204,1,,,,,,,,,,,,,,,,,,,,,,,,,-0.028856749,-0.352098389,0,0,0,,,,,,,STOOL,HB,m,y,./images/STOOLHB.png,,,,,,,,,,,,,,,,,,,,m,1,0.7204,,,,,,,,0,53,53,43,1
,,,,,,,,,,,,,,,,,60ffbc4214cb2255dd442bc8,25,2022-02-12_14h58.33.325,lexical_decision_task_DD_L4,2021.2.3,Win32,59.71575302,,,,,,,,,,,0.7877,1,,,,,,,,,,,,,,,,,,,,,,,,,-0.028856749,-0.352098389,0,0,0,,,,,,,PIMPLE,LB,z,y,./images/PIMPLELB.png,,,,,,,,,,,,,,,,,,,,z,1,0.7877,,,,,,,,0,54,54,155,1
,,,,,,,,,,,,,,,,,60ffbc4214cb2255dd442bc8,25,2022-02-12_14h58.33.325,lexical_decision_task_DD_L4,2021.2.3,Win32,59.71575302,,,,,,,,,,,0.9175,1,,,,,,,,,,,,,,,,,,,,,,,,,-0.028856749,-0.352098389,0,0,0,,,,,,,SPINE,LB,m,y,./images/SPINELB.png,,,,,,,,,,,,,,,,,,,,m,1,0.9175,,,,,,,,0,55,55,65,1
,,,,,,,,,,,,,,,,,60ffbc4214cb2255dd442bc8,25,2022-02-12_14h58.33.325,lexical_decision_task_DD_L4,2021.2.3,Win32,59.71575302,,,,,,,,,,,0.7007,1,,,,,,,,,,,,,,,,,,,,,,,,,-0.028856749,-0.352098389,0,0,0,,,,,,,CURRY,C,m,y,./images/CURRY.png,,,,,,,,,,,,,,,,,,,,m,1,0.7007,,,,,,,,0,56,56,60,1
,,,,,,,,,,,,,,,,,60ffbc4214cb2255dd442bc8,25,2022-02-12_14h58.33.325,lexical_decision_task_DD_L4,2021.2.3,Win32,59.71575302,,,,,,,,,,,0.7342,1,,,,,,,,,,,,,,,,,,,,,,,,,-0.028856749,-0.352098389,0,0,0,,,,,,,BUNNY,HB,m,y,./images/BUNNYHB.png,,,,,,,,,,,,,,,,,,,,m,1,0.7342,,,,,,,,0,57,57,13,1
,,,,,,,,,,,,,,,,,60ffbc4214cb2255dd442bc8,25,2022-02-12_14h58.33.325,lexical_decision_task_DD_L4,2021.2.3,Win32,59.71575302,,,,,,,,,,,0.7581,1,,,,,,,,,,,,,,,,,,,,,,,,,-0.028856749,-0.352098389,0,0,0,,,,,,,CEMENT,LB,z,y,./images/CEMENTLB.png,,,,,,,,,,,,,,,,,,,,z,1,0.7581,,,,,,,,0,58,58,158,1
,,,,,,,,,,,,,,,,,60ffbc4214cb2255dd442bc8,25,2022-02-12_14h58.33.325,lexical_decision_task_DD_L4,2021.2.3,Win32,59.71575302,,,,,,,,,,,0.7111,1,,,,,,,,,,,,,,,,,,,,,,,,,-0.028856749,-0.352098389,0,0,0,,,,,,,CRADLE,LB,z,y,./images/CRADLELB.png,,,,,,,,,,,,,,,,,,,,z,1,0.7111,,,,,,,,0,59,59,104,1
,,,,,,,,,,,,,,,,,60ffbc4214cb2255dd442bc8,25,2022-02-12_14h58.33.325,lexical_decision_task_DD_L4,2021.2.3,Win32,59.71575302,,,,,,,,,,,0.6083,1,,,,,,,,,,,,,,,,,,,,,,,,,-0.028856749,-0.352098389,0,0,0,,,,,,,CASINO,HB,m,y,./images/CASINOHB.png,,,,,,,,,,,,,,,,,,,,m,1,0.6083,,,,,,,,0,60,60,28,1
,,,,,,,,,,,,,,,,,60ffbc4214cb2255dd442bc8,25,2022-02-12_14h58.33.325,lexical_decision_task_DD_L4,2021.2.3,Win32,59.71575302,,,,,,,,,,,0.7745,1,,,,,,,,,,,,,,,,,,,,,,,,,-0.028856749,-0.352098389,0,0,0,,,,,,,RULER,HB,m,y,./images/RULERHB.png,,,,,,,,,,,,,,,,,,,,m,1,0.7745,,,,,,,,0,61,61,79,1
,,,,,,,,,,,,,,,,,60ffbc4214cb2255dd442bc8,25,2022-02-12_14h58.33.325,lexical_decision_task_DD_L4,2021.2.3,Win32,59.71575302,,,,,,,,,,,0.5703,1,,,,,,,,,,,,,,,,,,,,,,,,,-0.028856749,-0.352098389,0,0,0,,,,,,,FERRY,C,m,y,./images/FERRY.png,,,,,,,,,,,,,,,,,,,,m,1,0.5703,,,,,,,,0,62,62,57,1
,,,,,,,,,,,,,,,,,60ffbc4214cb2255dd442bc8,25,2022-02-12_14h58.33.325,lexical_decision_task_DD_L4,2021.2.3,Win32,59.71575302,,,,,,,,,,,0.8905,1,,,,,,,,,,,,,,,,,,,,,,,,,-0.028856749,-0.352098389,0,0,0,,,,,,,BURIAL,LB,z,y,./images/BURIALLB.png,,,,,,,,,,,,,,,,,,,,z,1,0.8905,,,,,,,,0,63,63,143,1
,,,,,,,,,,,,,,,,,60ffbc4214cb2255dd442bc8,25,2022-02-12_14h58.33.325,lexical_decision_task_DD_L4,2021.2.3,Win32,59.71575302,,,,,,,,,,,0.8911,1,,,,,,,,,,,,,,,,,,,,,,,,,-0.028856749,-0.352098389,0,0,0,,,,,,,BEARD,LB,z,y,./images/BEARDLB.png,,,,,,,,,,,,,,,,,,,,z,1,0.8911,,,,,,,,0,64,64,86,1
,,,,,,,,,,,,,,,,,60ffbc4214cb2255dd442bc8,25,2022-02-12_14h58.33.325,lexical_decision_task_DD_L4,2021.2.3,Win32,59.71575302,,,,,,,,,,,1.2773,1,,,,,,,,,,,,,,,,,,,,,,,,,-0.028856749,-0.352098389,0,0,0,,,,,,,FOLDER,C,z,y,./images/FOLDER.png,,,,,,,,,,,,,,,,,,,,z,1,1.2773,,,,,,,,0,65,65,126,1
,,,,,,,,,,,,,,,,,60ffbc4214cb2255dd442bc8,25,2022-02-12_14h58.33.325,lexical_decision_task_DD_L4,2021.2.3,Win32,59.71575302,,,,,,,,,,,0.8415,1,,,,,,,,,,,,,,,,,,,,,,,,,-0.028856749,-0.352098389,0,0,0,,,,,,,HAMMER,C,m,y,./images/HAMMER.png,,,,,,,,,,,,,,,,,,,,m,1,0.8415,,,,,,,,0,66,66,75,1
,,,,,,,,,,,,,,,,,60ffbc4214cb2255dd442bc8,25,2022-02-12_14h58.33.325,lexical_decision_task_DD_L4,2021.2.3,Win32,59.71575302,,,,,,,,,,,0.6539,1,,,,,,,,,,,,,,,,,,,,,,,,,-0.028856749,-0.352098389,0,0,0,,,,,,,WEASEL,LB,z,y,./images/WEASELLB.png,,,,,,,,,,,,,,,,,,,,z,1,0.6539,,,,,,,,0,67,67,164,1
,,,,,,,,,,,,,,,,,60ffbc4214cb2255dd442bc8,25,2022-02-12_14h58.33.325,lexical_decision_task_DD_L4,2021.2.3,Win32,59.71575302,,,,,,,,,,,0.6929,1,,,,,,,,,,,,,,,,,,,,,,,,,-0.028856749,-0.352098389,0,0,0,,,,,,,ONION,C,z,y,./images/ONION.png,,,,,,,,,,,,,,,,,,,,z,1,0.6929,,,,,,,,0,68,68,135,1
,,,,,,,,,,,,,,,,,60ffbc4214cb2255dd442bc8,25,2022-02-12_14h58.33.325,lexical_decision_task_DD_L4,2021.2.3,Win32,59.71575302,,,,,,,,,,,0.8195,1,,,,,,,,,,,,,,,,,,,,,,,,,-0.028856749,-0.352098389,0,0,0,,,,,,,URINE,HB,z,y,./images/URINEHB.png,,,,,,,,,,,,,,,,,,,,z,1,0.8195,,,,,,,,0,69,69,154,1
,,,,,,,,,,,,,,,,,60ffbc4214cb2255dd442bc8,25,2022-02-12_14h58.33.325,lexical_decision_task_DD_L4,2021.2.3,Win32,59.71575302,,,,,,,,,,,0.6898,1,,,,,,,,,,,,,,,,,,,,,,,,,-0.028856749,-0.352098389,0,0,0,,,,,,,FINGER,C,z,y,./images/FINGER.png,,,,,,,,,,,,,,,,,,,,z,1,0.6898,,,,,,,,0,70,70,87,1
,,,,,,,,,,,,,,,,,60ffbc4214cb2255dd442bc8,25,2022-02-12_14h58.33.325,lexical_decision_task_DD_L4,2021.2.3,Win32,59.71575302,,,,,,,,,,,0.6061,1,,,,,,,,,,,,,,,,,,,,,,,,,-0.028856749,-0.352098389,0,0,0,,,,,,,INFANT,HB,z,y,./images/INFANTHB.png,,,,,,,,,,,,,,,,,,,,z,1,0.6061,,,,,,,,0,71,71,160,1
,,,,,,,,,,,,,,,,,60ffbc4214cb2255dd442bc8,25,2022-02-12_14h58.33.325,lexical_decision_task_DD_L4,2021.2.3,Win32,59.71575302,,,,,,,,,,,1.5195,0,,,,,,,,,,,,,,,,,,,,,,,,,-0.028856749,-0.352098389,0,0,0,,,,,,,CRATER,C,m,y,./images/CRATER.png,,,,,,,,,,,,,,,,,,,,z,0,1.5195,,,,,,,,0,72,72,3,1
,,,,,,,,,,,,,,,,,60ffbc4214cb2255dd442bc8,25,2022-02-12_14h58.33.325,lexical_decision_task_DD_L4,2021.2.3,Win32,59.71575302,,,,,,,,,,,0.7506,1,,,,,,,,,,,,,,,,,,,,,,,,,-0.028856749,-0.352098389,0,0,0,,,,,,,PENCE,HB,z,y,./images/PENCEHB.png,,,,,,,,,,,,,,,,,,,,z,1,0.7506,,,,,,,,0,73,73,100,1
,,,,,,,,,,,,,,,,,60ffbc4214cb2255dd442bc8,25,2022-02-12_14h58.33.325,lexical_decision_task_DD_L4,2021.2.3,Win32,59.71575302,,,,,,,,,,,1.667,0,,,,,,,,,,,,,,,,,,,,,,,,,-0.028856749,-0.352098389,0,0,0,,,,,,,SWING,HB,z,y,./images/SWINGHB.png,,,,,,,,,,,,,,,,,,,,m,0,1.667,,,,,,,,0,74,74,124,1
,,,,,,,,,,,,,,,,,60ffbc4214cb2255dd442bc8,25,2022-02-12_14h58.33.325,lexical_decision_task_DD_L4,2021.2.3,Win32,59.71575302,,,,,,,,,,,0.7392,1,,,,,,,,,,,,,,,,,,,,,,,,,-0.028856749,-0.352098389,0,0,0,,,,,,,DANCER,C,m,y,./images/DANCER.png,,,,,,,,,,,,,,,,,,,,m,1,0.7392,,,,,,,,0,75,75,21,1
,,,,,,,,,,,,,,,,,60ffbc4214cb2255dd442bc8,25,2022-02-12_14h58.33.325,lexical_decision_task_DD_L4,2021.2.3,Win32,59.71575302,,,,,,,,,,,0.7176,1,,,,,,,,,,,,,,,,,,,,,,,,,-0.028856749,-0.352098389,0,0,0,,,,,,,CRUST,HB,z,y,./images/CRUSTHB.png,,,,,,,,,,,,,,,,,,,,z,1,0.7176,,,,,,,,0,76,76,163,1
,,,,,,,,,,,,,,,,,60ffbc4214cb2255dd442bc8,25,2022-02-12_14h58.33.325,lexical_decision_task_DD_L4,2021.2.3,Win32,59.71575302,,,,,,,,,,,0.7451,1,,,,,,,,,,,,,,,,,,,,,,,,,-0.028856749,-0.352098389,0,0,0,,,,,,,WALRUS,LB,z,y,./images/WALRUSLB.png,,,,,,,,,,,,,,,,,,,,z,1,0.7451,,,,,,,,0,77,77,107,1
,,,,,,,,,,,,,,,,,60ffbc4214cb2255dd442bc8,25,2022-02-12_14h58.33.325,lexical_decision_task_DD_L4,2021.2.3,Win32,59.71575302,,,,,,,,,,,1.2106,0,,,,,,,,,,,,,,,,,,,,,,,,,-0.028856749,-0.352098389,0,0,0,,,,,,,SWEAT,C,z,y,./images/SWEAT.png,,,,,,,,,,,,,,,,,,,,m,0,1.2106,,,,,,,,0,78,78,150,1
,,,,,,,,,,,,,,,,,60ffbc4214cb2255dd442bc8,25,2022-02-12_14h58.33.325,lexical_decision_task_DD_L4,2021.2.3,Win32,59.71575302,,,,,,,,,,,1.0178,1,,,,,,,,,,,,,,,,,,,,,,,,,-0.028856749,-0.352098389,0,0,0,,,,,,,PASTA,LB,z,y,./images/PASTALB.png,,,,,,,,,,,,,,,,,,,,z,1,1.0178,,,,,,,,0,79,79,89,1
,,,,,,,,,,,,,,,,,60ffbc4214cb2255dd442bc8,25,2022-02-12_14h58.33.325,lexical_decision_task_DD_L4,2021.2.3,Win32,59.71575302,,,,,,,,,,,0.8038,1,,,,,,,,,,,,,,,,,,,,,,,,,-0.028856749,-0.352098389,0,0,0,,,,,,,CANYON,HB,z,y,./images/CANYONHB.png,,,,,,,,,,,,,,,,,,,,z,1,0.8038,,,,,,,,0,80,80,118,1
,,,,,,,,,,,,,,,,,60ffbc4214cb2255dd442bc8,25,2022-02-12_14h58.33.325,lexical_decision_task_DD_L4,2021.2.3,Win32,59.71575302,,,,,,,,,,,0.5678,1,,,,,,,,,,,,,,,,,,,,,,,,,-0.028856749,-0.352098389,0,0,0,,,,,,,LADDER,LB,z,y,./images/LADDERLB.png,,,,,,,,,,,,,,,,,,,,z,1,0.5678,,,,,,,,0,81,81,122,1
,,,,,,,,,,,,,,,,,60ffbc4214cb2255dd442bc8,25,2022-02-12_14h58.33.325,lexical_decision_task_DD_L4,2021.2.3,Win32,59.71575302,,,,,,,,,,,1.0279,0,,,,,,,,,,,,,,,,,,,,,,,,,-0.028856749,-0.352098389,0,0,0,,,,,,,CARPET,LB,z,y,./images/CARPETLB.png,,,,,,,,,,,,,,,,,,,,m,0,1.0279,,,,,,,,0,82,82,137,1
,,,,,,,,,,,,,,,,,60ffbc4214cb2255dd442bc8,25,2022-02-12_14h58.33.325,lexical_decision_task_DD_L4,2021.2.3,Win32,59.71575302,,,,,,,,,,,0.6678,0,,,,,,,,,,,,,,,,,,,,,,,,,-0.035340106,-0.358581803,1,0,0,,,,,,,BUBBLE,LB,m,y,./images/BUBBLELB.png,break_done_button,,,,,,,,,,,,,,,,,,,z,0,0.6678,,,,,,,,0,83,83,71,1
,,,,,,,,,,,,,,,,,60ffbc4214cb2255dd442bc8,25,2022-02-12_14h58.33.325,lexical_decision_task_DD_L4,2021.2.3,Win32,59.71575302,,,,,,,,,,,1.1348,1,,,,,,,,,,,,,,,,,,,,,,,,,-0.035340106,-0.358581803,0,0,0,,,,,,,GREASE,C,z,y,./images/GREASE.png,,,,,,,,,,,,,,,,,,,,z,1,1.1348,,,,,,,,0,84,84,99,1
,,,,,,,,,,,,,,,,,60ffbc4214cb2255dd442bc8,25,2022-02-12_14h58.33.325,lexical_decision_task_DD_L4,2021.2.3,Win32,59.71575302,,,,,,,,,,,0.9179,1,,,,,,,,,,,,,,,,,,,,,,,,,-0.035340106,-0.358581803,0,0,0,,,,,,,LITTER,C,z,y,./images/LITTER.png,,,,,,,,,,,,,,,,,,,,z,1,0.9179,,,,,,,,0,85,85,162,1
,,,,,,,,,,,,,,,,,60ffbc4214cb2255dd442bc8,25,2022-02-12_14h58.33.325,lexical_decision_task_DD_L4,2021.2.3,Win32,59.71575302,,,,,,,,,,,0.6065,1,,,,,,,,,,,,,,,,,,,,,,,,,-0.035340106,-0.358581803,0,0,0,,,,,,,DOUGH,HB,z,y,./images/DOUGHHB.png,,,,,,,,,,,,,,,,,,,,z,1,0.6065,,,,,,,,0,86,86,103,1
,,,,,,,,,,,,,,,,,60ffbc4214cb2255dd442bc8,25,2022-02-12_14h58.33.325,lexical_decision_task_DD_L4,2021.2.3,Win32,59.71575302,,,,,,,,,,,0.7598,1,,,,,,,,,,,,,,,,,,,,,,,,,-0.035340106,-0.358581803,0,0,0,,,,,,,FLESH,C,m,y,./images/FLESH.png,,,,,,,,,,,,,,,,,,,,m,1,0.7598,,,,,,,,0,87,87,24,1
,,,,,,,,,,,,,,,,,60ffbc4214cb2255dd442bc8,25,2022-02-12_14h58.33.325,lexical_decision_task_DD_L4,2021.2.3,Win32,59.71575302,,,,,,,,,,,0.6011,1,,,,,,,,,,,,,,,,,,,,,,,,,-0.035340106,-0.358581803,0,0,0,,,,,,,FENCE,LB,m,y,./images/FENCELB.png,,,,,,,,,,,,,,,,,,,,m,1,0.6011,,,,,,,,0,88,88,14,1
,,,,,,,,,,,,,,,,,60ffbc4214cb2255dd442bc8,25,2022-02-12_14h58.33.325,lexical_decision_task_DD_L4,2021.2.3,Win32,59.71575302,,,,,,,,,,,0.6515,1,,,,,,,,,,,,,,,,,,,,,,,,,-0.035340106,-0.358581803,0,0,0,,,,,,,STREAM,LB,m,y,./images/STREAMLB.png,,,,,,,,,,,,,,,,,,,,m,1,0.6515,,,,,,,,0,89,89,41,1
,,,,,,,,,,,,,,,,,60ffbc4214cb2255dd442bc8,25,2022-02-12_14h58.33.325,lexical_decision_task_DD_L4,2021.2.3,Win32,59.71575302,,,,,,,,,,,0.6252,1,,,,,,,,,,,,,,,,,,,,,,,,,-0.035340106,-0.358581803,0,0,0,,,,,,,STEAK,HB,m,y,./images/STEAKHB.png,,,,,,,,,,,,,,,,,,,,m,1,0.6252,,,,,,,,0,90,90,31,1
,,,,,,,,,,,,,,,,,60ffbc4214cb2255dd442bc8,25,2022-02-12_14h58.33.325,lexical_decision_task_DD_L4,2021.2.3,Win32,59.71575302,,,,,,,,,,,0.8686,0,,,,,,,,,,,,,,,,,,,,,,,,,-0.035340106,-0.358581803,0,0,0,,,,,,,KITTEN,C,z,y,./images/KITTEN.png,,,,,,,,,,,,,,,,,,,,m,0,0.8686,,,,,,,,0,91,91,129,1
,,,,,,,,,,,,,,,,,60ffbc4214cb2255dd442bc8,25,2022-02-12_14h58.33.325,lexical_decision_task_DD_L4,2021.2.3,Win32,59.71575302,,,,,,,,,,,0.6196,1,,,,,,,,,,,,,,,,,,,,,,,,,-0.035340106,-0.358581803,0,0,0,,,,,,,STOVE,LB,m,y,./images/STOVELB.png,,,,,,,,,,,,,,,,,,,,m,1,0.6196,,,,,,,,0,92,92,2,1
,,,,,,,,,,,,,,,,,60ffbc4214cb2255dd442bc8,25,2022-02-12_14h58.33.325,lexical_decision_task_DD_L4,2021.2.3,Win32,59.71575302,,,,,,,,,,,0.5519,1,,,,,,,,,,,,,,,,,,,,,,,,,-0.035340106,-0.358581803,0,0,0,,,,,,,ATTIC,C,z,y,./images/ATTIC.png,,,,,,,,,,,,,,,,,,,,z,1,0.5519,,,,,,,,0,93,93,111,1
,,,,,,,,,,,,,,,,,60ffbc4214cb2255dd442bc8,25,2022-02-12_14h58.33.325,lexical_decision_task_DD_L4,2021.2.3,Win32,59.71575302,,,,,,,,,,,1.4747,1,,,,,,,,,,,,,,,,,,,,,,,,,-0.035340106,-0.358581803,0,0,0,,,,,,,SMOKER,LB,z,y,./images/SMOKERLB.png,,,,,,,,,,,,,,,,,,,,z,1,1.4747,,,,,,,,0,94,94,110,1
,,,,,,,,,,,,,,,,,60ffbc4214cb2255dd442bc8,25,2022-02-12_14h58.33.325,lexical_decision_task_DD_L4,2021.2.3,Win32,59.71575302,,,,,,,,,,,0.7864,1,,,,,,,,,,,,,,,,,,,,,,,,,-0.035340106,-0.358581803,0,0,0,,,,,,,TORCH,LB,z,y,./images/TORCHLB.png,,,,,,,,,,,,,,,,,,,,z,1,0.7864,,,,,,,,0,95,95,152,1
,,,,,,,,,,,,,,,,,60ffbc4214cb2255dd442bc8,25,2022-02-12_14h58.33.325,lexical_decision_task_DD_L4,2021.2.3,Win32,59.71575302,,,,,,,,,,,1.0842,0,,,,,,,,,,,,,,,,,,,,,,,,,-0.035340106,-0.358581803,0,0,0,,,,,,,SNACK,HB,z,y,./images/SNACKHB.png,,,,,,,,,,,,,,,,,,,,m,0,1.0842,,,,,,,,0,96,96,157,1
,,,,,,,,,,,,,,,,,60ffbc4214cb2255dd442bc8,25,2022-02-12_14h58.33.325,lexical_decision_task_DD_L4,2021.2.3,Win32,59.71575302,,,,,,,,,,,0.7357,1,,,,,,,,,,,,,,,,,,,,,,,,,-0.035340106,-0.358581803,0,0,0,,,,,,,LLAMA,LB,m,y,./images/LLAMALB.png,,,,,,,,,,,,,,,,,,,,m,1,0.7357,,,,,,,,0,97,97,35,1
,,,,,,,,,,,,,,,,,60ffbc4214cb2255dd442bc8,25,2022-02-12_14h58.33.325,lexical_decision_task_DD_L4,2021.2.3,Win32,59.71575302,,,,,,,,,,,0.6709,1,,,,,,,,,,,,,,,,,,,,,,,,,-0.035340106,-0.358581803,0,0,0,,,,,,,PEARL,HB,z,y,./images/PEARLHB.png,,,,,,,,,,,,,,,,,,,,z,1,0.6709,,,,,,,,0,98,98,130,1
,,,,,,,,,,,,,,,,,60ffbc4214cb2255dd442bc8,25,2022-02-12_14h58.33.325,lexical_decision_task_DD_L4,2021.2.3,Win32,59.71575302,,,,,,,,,,,0.6681,0,,,,,,,,,,,,,,,,,,,,,,,,,-0.035340106,-0.358581803,0,0,0,,,,,,,GRAPE,HB,m,y,./images/GRAPEHB.png,,,,,,,,,,,,,,,,,,,,z,0,0.6681,,,,,,,,0,99,99,16,1
,,,,,,,,,,,,,,,,,60ffbc4214cb2255dd442bc8,25,2022-02-12_14h58.33.325,lexical_decision_task_DD_L4,2021.2.3,Win32,59.71575302,,,,,,,,,,,0.7106,1,,,,,,,,,,,,,,,,,,,,,,,,,-0.035340106,-0.358581803,0,0,0,,,,,,,WHISKY,LB,m,y,./images/WHISKYLB.png,,,,,,,,,,,,,,,,,,,,m,1,0.7106,,,,,,,,0,100,100,83,1
,,,,,,,,,,,,,,,,,60ffbc4214cb2255dd442bc8,25,2022-02-12_14h58.33.325,lexical_decision_task_DD_L4,2021.2.3,Win32,59.71575302,,,,,,,,,,,0.6678,1,,,,,,,,,,,,,,,,,,,,,,,,,-0.035340106,-0.358581803,0,0,0,,,,,,,BUTTER,C,m,y,./images/BUTTER.png,,,,,,,,,,,,,,,,,,,,m,1,0.6678,,,,,,,,0,101,101,27,1
,,,,,,,,,,,,,,,,,60ffbc4214cb2255dd442bc8,25,2022-02-12_14h58.33.325,lexical_decision_task_DD_L4,2021.2.3,Win32,59.71575302,,,,,,,,,,,0.6842,1,,,,,,,,,,,,,,,,,,,,,,,,,-0.035340106,-0.358581803,0,0,0,,,,,,,BANANA,HB,m,y,./images/BANANAHB.png,,,,,,,,,,,,,,,,,,,,m,1,0.6842,,,,,,,,0,102,102,70,1
,,,,,,,,,,,,,,,,,60ffbc4214cb2255dd442bc8,25,2022-02-12_14h58.33.325,lexical_decision_task_DD_L4,2021.2.3,Win32,59.71575302,,,,,,,,,,,0.9125,1,,,,,,,,,,,,,,,,,,,,,,,,,-0.035340106,-0.358581803,0,0,0,,,,,,,SAUNA,C,m,y,./images/SAUNA.png,,,,,,,,,,,,,,,,,,,,m,1,0.9125,,,,,,,,0,103,103,33,1
,,,,,,,,,,,,,,,,,60ffbc4214cb2255dd442bc8,25,2022-02-12_14h58.33.325,lexical_decision_task_DD_L4,2021.2.3,Win32,59.71575302,,,,,,,,,,,1.5364,1,,,,,,,,,,,,,,,,,,,,,,,,,-0.035340106,-0.358581803,0,0,0,,,,,,,PARCEL,C,m,y,./images/PARCEL.png,,,,,,,,,,,,,,,,,,,,m,1,1.5364,,,,,,,,0,104,104,18,1
,,,,,,,,,,,,,,,,,60ffbc4214cb2255dd442bc8,25,2022-02-12_14h58.33.325,lexical_decision_task_DD_L4,2021.2.3,Win32,59.71575302,,,,,,,,,,,0.8696,1,,,,,,,,,,,,,,,,,,,,,,,,,-0.035340106,-0.358581803,0,0,0,,,,,,,BROOM,C,m,y,./images/BROOM.png,,,,,,,,,,,,,,,,,,,,m,1,0.8696,,,,,,,,0,105,105,78,1
,,,,,,,,,,,,,,,,,60ffbc4214cb2255dd442bc8,25,2022-02-12_14h58.33.325,lexical_decision_task_DD_L4,2021.2.3,Win32,59.71575302,,,,,,,,,,,0.7407,1,,,,,,,,,,,,,,,,,,,,,,,,,-0.035340106,-0.358581803,0,0,0,,,,,,,CLOUD,LB,m,y,./images/CLOUDLB.png,,,,,,,,,,,,,,,,,,,,m,1,0.7407,,,,,,,,0,106,106,26,1
,,,,,,,,,,,,,,,,,60ffbc4214cb2255dd442bc8,25,2022-02-12_14h58.33.325,lexical_decision_task_DD_L4,2021.2.3,Win32,59.71575302,,,,,,,,,,,0.851,1,,,,,,,,,,,,,,,,,,,,,,,,,-0.035340106,-0.358581803,0,0,0,,,,,,,MUFFIN,HB,z,y,./images/MUFFINHB.png,,,,,,,,,,,,,,,,,,,,z,1,0.851,,,,,,,,0,107,107,139,1
,,,,,,,,,,,,,,,,,60ffbc4214cb2255dd442bc8,25,2022-02-12_14h58.33.325,lexical_decision_task_DD_L4,2021.2.3,Win32,59.71575302,,,,,,,,,,,0.821,1,,,,,,,,,,,,,,,,,,,,,,,,,-0.035340106,-0.358581803,0,0,0,,,,,,,STATUE,C,m,y,./images/STATUE.png,,,,,,,,,,,,,,,,,,,,m,1,0.821,,,,,,,,0,108,108,66,1
,,,,,,,,,,,,,,,,,60ffbc4214cb2255dd442bc8,25,2022-02-12_14h58.33.325,lexical_decision_task_DD_L4,2021.2.3,Win32,59.71575302,,,,,,,,,,,0.6682,1,,,,,,,,,,,,,,,,,,,,,,,,,-0.035340106,-0.358581803,0,0,0,,,,,,,THROAT,C,z,y,./images/THROAT.png,,,,,,,,,,,,,,,,,,,,z,1,0.6682,,,,,,,,0,109,109,120,1
,,,,,,,,,,,,,,,,,60ffbc4214cb2255dd442bc8,25,2022-02-12_14h58.33.325,lexical_decision_task_DD_L4,2021.2.3,Win32,59.71575302,,,,,,,,,,,0.7007,1,,,,,,,,,,,,,,,,,,,,,,,,,-0.035340106,-0.358581803,0,0,0,,,,,,,MIDGET,HB,m,y,./images/MIDGETHB.png,,,,,,,,,,,,,,,,,,,,m,1,0.7007,,,,,,,,0,110,110,76,1
,,,,,,,,,,,,,,,,,60ffbc4214cb2255dd442bc8,25,2022-02-12_14h58.33.325,lexical_decision_task_DD_L4,2021.2.3,Win32,59.71575302,,,,,,,,,,,2.3854,1,,,,,,,,,,,,,,,,,,,,,,,,,-0.035340106,-0.358581803,0,0,0,,,,,,,SHELF,C,z,y,./images/SHELF.png,,,,,,,,,,,,,,,,,,,,z,1,2.3854,,,,,,,,0,111,111,123,1
,,,,,,,,,,,,,,,,,60ffbc4214cb2255dd442bc8,25,2022-02-12_14h58.33.325,lexical_decision_task_DD_L4,2021.2.3,Win32,59.71575302,,,,,,,,,,,0.8852,1,,,,,,,,,,,,,,,,,,,,,,,,,-0.035340106,-0.358581803,0,0,0,,,,,,,PAINT,HB,z,y,./images/PAINTHB.png,,,,,,,,,,,,,,,,,,,,z,1,0.8852,,,,,,,,0,112,112,91,1
,,,,,,,,,,,,,,,,,60ffbc4214cb2255dd442bc8,25,2022-02-12_14h58.33.325,lexical_decision_task_DD_L4,2021.2.3,Win32,59.71575302,,,,,,,,,,,2.4206,1,,,,,,,,,,,,,,,,,,,,,,,,,-0.035340106,-0.358581803,0,0,0,,,,,,,MUSCLE,HB,z,y,./images/MUSCLEHB.png,,,,,,,,,,,,,,,,,,,,z,1,2.4206,,,,,,,,0,113,113,88,1
,,,,,,,,,,,,,,,,,60ffbc4214cb2255dd442bc8,25,2022-02-12_14h58.33.325,lexical_decision_task_DD_L4,2021.2.3,Win32,59.71575302,,,,,,,,,,,0.6911,1,,,,,,,,,,,,,,,,,,,,,,,,,-0.035340106,-0.358581803,0,0,0,,,,,,,RAZOR,HB,m,y,./images/RAZORHB.png,,,,,,,,,,,,,,,,,,,,m,1,0.6911,,,,,,,,0,114,114,34,1
,,,,,,,,,,,,,,,,,60ffbc4214cb2255dd442bc8,25,2022-02-12_14h58.33.325,lexical_decision_task_DD_L4,2021.2.3,Win32,59.71575302,,,,,,,,,,,0.6019,0,,,,,,,,,,,,,,,,,,,,,,,,,-0.035340106,-0.358581803,0,0,0,,,,,,,LIZARD,LB,z,y,./images/LIZARDLB.png,,,,,,,,,,,,,,,,,,,,m,0,0.6019,,,,,,,,0,115,115,128,1
,,,,,,,,,,,,,,,,,60ffbc4214cb2255dd442bc8,25,2022-02-12_14h58.33.325,lexical_decision_task_DD_L4,2021.2.3,Win32,59.71575302,,,,,,,,,,,0.656,1,,,,,,,,,,,,,,,,,,,,,,,,,-0.035340106,-0.358581803,0,0,0,,,,,,,GRAIN,C,z,y,./images/GRAIN.png,,,,,,,,,,,,,,,,,,,,z,1,0.656,,,,,,,,0,116,116,159,1
,,,,,,,,,,,,,,,,,60ffbc4214cb2255dd442bc8,25,2022-02-12_14h58.33.325,lexical_decision_task_DD_L4,2021.2.3,Win32,59.71575302,,,,,,,,,,,0.7676,1,,,,,,,,,,,,,,,,,,,,,,,,,-0.035340106,-0.358581803,0,0,0,,,,,,,MEDAL,LB,m,y,./images/MEDALLB.png,,,,,,,,,,,,,,,,,,,,m,1,0.7676,,,,,,,,0,117,117,11,1
,,,,,,,,,,,,,,,,,60ffbc4214cb2255dd442bc8,25,2022-02-12_14h58.33.325,lexical_decision_task_DD_L4,2021.2.3,Win32,59.71575302,,,,,,,,,,,0.601,1,,,,,,,,,,,,,,,,,,,,,,,,,-0.035340106,-0.358581803,0,0,0,,,,,,,BOXER,HB,m,y,./images/BOXERHB.png,,,,,,,,,,,,,,,,,,,,m,1,0.601,,,,,,,,0,118,118,4,1
,,,,,,,,,,,,,,,,,60ffbc4214cb2255dd442bc8,25,2022-02-12_14h58.33.325,lexical_decision_task_DD_L4,2021.2.3,Win32,59.71575302,,,,,,,,,,,1.9705,0,,,,,,,,,,,,,,,,,,,,,,,,,-0.035340106,-0.358581803,0,0,0,,,,,,,FARMER,LB,z,y,./images/FARMERLB.png,,,,,,,,,,,,,,,,,,,,m,0,1.9705,,,,,,,,0,119,119,149,1
,,,,,,,,,,,,,,,,,60ffbc4214cb2255dd442bc8,25,2022-02-12_14h58.33.325,lexical_decision_task_DD_L4,2021.2.3,Win32,59.71575302,,,,,,,,,,,0.65,1,,,,,,,,,,,,,,,,,,,,,,,,,-0.035340106,-0.358581803,0,0,0,,,,,,,MUMMY,HB,m,y,./images/MUMMYHB.png,,,,,,,,,,,,,,,,,,,,m,1,0.65,,,,,,,,0,120,120,46,1
,,,,,,,,,,,,,,,,,60ffbc4214cb2255dd442bc8,25,2022-02-12_14h58.33.325,lexical_decision_task_DD_L4,2021.2.3,Win32,59.71575302,,,,,,,,,,,1.2593,1,,,,,,,,,,,,,,,,,,,,,,,,,-0.035340106,-0.358581803,0,0,0,,,,,,,MONKEY,C,m,y,./images/MONKEY.png,,,,,,,,,,,,,,,,,,,,m,1,1.2593,,,,,,,,0,121,121,45,1
,,,,,,,,,,,,,,,,,60ffbc4214cb2255dd442bc8,25,2022-02-12_14h58.33.325,lexical_decision_task_DD_L4,2021.2.3,Win32,59.71575302,,,,,,,,,,,0.7673,1,,,,,,,,,,,,,,,,,,,,,,,,,-0.035340106,-0.358581803,0,0,0,,,,,,,SQUARE,C,z,y,./images/SQUARE.png,,,,,,,,,,,,,,,,,,,,z,1,0.7673,,,,,,,,0,122,122,90,1
,,,,,,,,,,,,,,,,,60ffbc4214cb2255dd442bc8,25,2022-02-12_14h58.33.325,lexical_decision_task_DD_L4,2021.2.3,Win32,59.71575302,,,,,,,,,,,1.1262,1,,,,,,,,,,,,,,,,,,,,,,,,,-0.035340106,-0.358581803,0,0,0,,,,,,,CANDY,C,m,y,./images/CANDY.png,,,,,,,,,,,,,,,,,,,,m,1,1.1262,,,,,,,,0,123,123,39,1
,,,,,,,,,,,,,,,,,60ffbc4214cb2255dd442bc8,25,2022-02-12_14h58.33.325,lexical_decision_task_DD_L4,2021.2.3,Win32,59.71575302,,,,,,,,,,,0.9502,1,,,,,,,,,,,,,,,,,,,,,,,,,-0.035340106,-0.358581803,0,0,0,,,,,,,BASKET,LB,m,y,./images/BASKETLB.png,,,,,,,,,,,,,,,,,,,,m,1,0.9502,,,,,,,,0,124,124,44,1
,,,,,,,,,,,,,,,,,60ffbc4214cb2255dd442bc8,25,2022-02-12_14h58.33.325,lexical_decision_task_DD_L4,2021.2.3,Win32,59.71575302,,,,,,,,,,,0.6058,1,,,,,,,,,,,,,,,,,,,,,,,,,-0.040897269,-0.393777058,1,0,0,,,,,,,FLASK,C,m,y,./images/FLASK.png,break_done_button,,,,,,,,,,,,,,,,,,,m,1,0.6058,,,,,,,,0,125,125,72,1
,,,,,,,,,,,,,,,,,60ffbc4214cb2255dd442bc8,25,2022-02-12_14h58.33.325,lexical_decision_task_DD_L4,2021.2.3,Win32,59.71575302,,,,,,,,,,,0.7548,1,,,,,,,,,,,,,,,,,,,,,,,,,-0.040897269,-0.393777058,0,0,0,,,,,,,JUNGLE,LB,z,y,./images/JUNGLELB.png,,,,,,,,,,,,,,,,,,,,z,1,0.7548,,,,,,,,0,126,126,167,1
,,,,,,,,,,,,,,,,,60ffbc4214cb2255dd442bc8,25,2022-02-12_14h58.33.325,lexical_decision_task_DD_L4,2021.2.3,Win32,59.71575302,,,,,,,,,,,1.0369,0,,,,,,,,,,,,,,,,,,,,,,,,,-0.040897269,-0.393777058,0,0,0,,,,,,,BABOON,HB,z,y,./images/BABOONHB.png,,,,,,,,,,,,,,,,,,,,m,0,1.0369,,,,,,,,0,127,127,142,1
,,,,,,,,,,,,,,,,,60ffbc4214cb2255dd442bc8,25,2022-02-12_14h58.33.325,lexical_decision_task_DD_L4,2021.2.3,Win32,59.71575302,,,,,,,,,,,1.0377,1,,,,,,,,,,,,,,,,,,,,,,,,,-0.040897269,-0.393777058,0,0,0,,,,,,,CLIFF,LB,m,y,./images/CLIFFLB.png,,,,,,,,,,,,,,,,,,,,m,1,1.0377,,,,,,,,0,128,128,8,1
,,,,,,,,,,,,,,,,,60ffbc4214cb2255dd442bc8,25,2022-02-12_14h58.33.325,lexical_decision_task_DD_L4,2021.2.3,Win32,59.71575302,,,,,,,,,,,0.7538,1,,,,,,,,,,,,,,,,,,,,,,,,,-0.040897269,-0.393777058,0,0,0,,,,,,,ENGINE,LB,m,y,./images/ENGINELB.png,,,,,,,,,,,,,,,,,,,,m,1,0.7538,,,,,,,,0,129,129,38,1
,,,,,,,,,,,,,,,,,60ffbc4214cb2255dd442bc8,25,2022-02-12_14h58.33.325,lexical_decision_task_DD_L4,2021.2.3,Win32,59.71575302,,,,,,,,,,,0.6579,0,,,,,,,,,,,,,,,,,,,,,,,,,-0.040897269,-0.393777058,0,0,0,,,,,,,STRING,LB,z,y,./images/STRINGLB.png,,,,,,,,,,,,,,,,,,,,m,0,0.6579,,,,,,,,0,130,130,125,1
