key_resp.keys,key_resp.rt,instr_done_touch.x,instr_done_touch.y,instr_done_touch.leftButton,instr_done_touch.midButton,instr_done_touch.rightButton,instruction_pages.thisRepN,instruction_pages.thisTrialN,instruction_pages.thisN,instruction_pages.thisIndex,instruction_pages.ran,pageN,phase,instruct_text,has_image,instruct_image,participant,age,date,expName,psychopyVersion,OS,frameRate,response.keys,response.corr,response.rt,touch_resp.x,touch_resp.y,touch_resp.leftButton,touch_resp.midButton,touch_resp.rightButton,touch_resp.time,touch_resp.clicked_name,rt,corr,practrials.thisRepN,practrials.thisTrialN,practrials.thisN,practrials.thisIndex,practrials.ran,TrialID,Target,corrAns,end_of_practice_trials_pages.thisRepN,end_of_practice_trials_pages.thisTrialN,end_of_practice_trials_pages.thisN,end_of_practice_trials_pages.thisIndex,end_of_practice_trials_pages.ran,key_resp_2.keys,key_resp_2.corr,key_resp_2.rt,targ_click.x,targ_click.y,targ_click.leftButton,targ_click.midButton,targ_click.rightButton,targ_click.time,targ_click.clicked_name,break_done_touch.x,break_done_touch.y,break_done_touch.leftButton,break_done_touch.midButton,break_done_touch.rightButton,break_done_keyboard.keys,maintrials.thisRepN,maintrials.thisTrialN,maintrials.thisN,maintrials.thisIndex,maintrials.ran,string,blur,study,lex,stim_path,break_done_keyboard.rt,mouse_2.x,mouse_2.y,mouse_2.leftButton,mouse_2.midButton,mouse_2.rightButton,mouse_2.clicked_name,slider.response,slider.rt,trials.thisRepN,trials.thisTrialN,trials.thisN,trials.thisIndex,trials.ran,test_instructions.thisRepN,test_instructions.thisTrialN,test_instructions.thisN,test_instructions.thisIndex,test_instructions.ran,instr_done_touch.clicked_name,key_resp_3.keys,key_resp_3.corr,key_resp_3.rt,test_click.x,test_click.y,test_click.leftButton,test_click.midButton,test_click.rightButton,test_click.time,test_click.clicked_name,test_phase.thisRepN,test_phase.thisTrialN,test_phase.thisN,test_phase.thisIndex,test_phase.ran
space,39.3625,0.243351508,-0.16965332,0,0,0,0,0,0,0,1,1,instructions,"INSTRUCTIONS
At the start of each trial, look at the plus sign  (+) in the center of the screen.  This tells you that a trial is about to begin and where to look. Second, the plus sign will disappear and a string of letters will appear. Your task is to determine if the string of letters is a word or not. If the item is a word press the M key (on keyboard)  or touch the word button (phone/tablet).  If the item is not a word,  press the  Z key (on keyboard)  or touch the nonword button (on phone/tablet). 
Press the space bar or touch  continue.",0,,,23,2022-02-12_13h18.17.624,lexical_decision_task_DD_L4,2021.2.3,MacIntel,60.0024001,,,,,,,,,,,,,,,,,,,,,,,,,,,,,,,,,,,,,,,,,,,,,,,,,,,,,,,,,,,,,,,,,,,,,,,,,,,,,,,,,,,,,,
space,12.7914,0.243351508,-0.16965332,0,0,0,0,1,1,1,1,2,instructions,"If your device has a keyboard, press the 'Z' key for nonwords and the 'M' key for words.





Press the space bar or touch the button below to continue.",0,keyboard-example.gif,,23,2022-02-12_13h18.17.624,lexical_decision_task_DD_L4,2021.2.3,MacIntel,60.0024001,,,,,,,,,,,,,,,,,,,,,,,,,,,,,,,,,,,,,,,,,,,,,,,,,,,,,,,,,,,,,,,,,,,,,,,,,,,,,,,,,,,,,,
space,9.836,0.243351508,-0.16965332,0,0,0,0,2,2,2,1,3,instructions,"If you are using a touchscreen only device, use the buttons on the screen. Do not use the mouse.





Press the space bar or touch the button below to continue.",0,touchscreen-example.gif,,23,2022-02-12_13h18.17.624,lexical_decision_task_DD_L4,2021.2.3,MacIntel,60.0024001,,,,,,,,,,,,,,,,,,,,,,,,,,,,,,,,,,,,,,,,,,,,,,,,,,,,,,,,,,,,,,,,,,,,,,,,,,,,,,,,,,,,,,
space,22.8332,0.243351508,-0.16965332,0,0,0,0,3,3,3,1,4,instructions,"It is very important that you respond as quickly and accurately as possible, as each letter string will only be on the screen for two seconds. If you do not respond within this time, the message 'Too slow!' will be displayed and the experiment will progress to the next letter string. The first 20 trials will be practice trials and you will receive feedback on your answers. 

Press the space bar or touch the button below to start the practice trials.",0,,,23,2022-02-12_13h18.17.624,lexical_decision_task_DD_L4,2021.2.3,MacIntel,60.0024001,,,,,,,,,,,,,,,,,,,,,,,,,,,,,,,,,,,,,,,,,,,,,,,,,,,,,,,,,,,,,,,,,,,,,,,,,,,,,,,,,,,,,,
,,,,,,,,,,,,,,,,,,23,2022-02-12_13h18.17.624,lexical_decision_task_DD_L4,2021.2.3,MacIntel,60.0024001,m,0,1.1051,,,,,,,,1.1051,0,0,0,0,12,1,1001,SPRINY,z,,,,,,,,,,,,,,,,,,,,,,,,,,,,,,,,,,,,,,,,,,,,,,,,,,,,,,,,,,,,,,,,,,
,,,,,,,,,,,,,,,,,,23,2022-02-12_13h18.17.624,lexical_decision_task_DD_L4,2021.2.3,MacIntel,60.0024001,z,1,1.2299,,,,,,,,1.2299,1,0,1,1,8,1,1001,ASLERT,z,,,,,,,,,,,,,,,,,,,,,,,,,,,,,,,,,,,,,,,,,,,,,,,,,,,,,,,,,,,,,,,,,,
,,,,,,,,,,,,,,,,,,23,2022-02-12_13h18.17.624,lexical_decision_task_DD_L4,2021.2.3,MacIntel,60.0024001,z,1,1.03,,,,,,,,1.03,1,0,2,2,13,1,1001,ROUPET,z,,,,,,,,,,,,,,,,,,,,,,,,,,,,,,,,,,,,,,,,,,,,,,,,,,,,,,,,,,,,,,,,,,
,,,,,,,,,,,,,,,,,,23,2022-02-12_13h18.17.624,lexical_decision_task_DD_L4,2021.2.3,MacIntel,60.0024001,m,1,0.7123,,,,,,,,0.7123,1,0,3,3,4,1,1001,SQUEAK,m,,,,,,,,,,,,,,,,,,,,,,,,,,,,,,,,,,,,,,,,,,,,,,,,,,,,,,,,,,,,,,,,,,
,,,,,,,,,,,,,,,,,,23,2022-02-12_13h18.17.624,lexical_decision_task_DD_L4,2021.2.3,MacIntel,60.0024001,m,1,0.6646,,,,,,,,0.6646,1,0,4,4,2,1,1001,ALMOND,m,,,,,,,,,,,,,,,,,,,,,,,,,,,,,,,,,,,,,,,,,,,,,,,,,,,,,,,,,,,,,,,,,,
,,,,,,,,,,,,,,,,,,23,2022-02-12_13h18.17.624,lexical_decision_task_DD_L4,2021.2.3,MacIntel,60.0024001,m,1,0.6518,,,,,,,,0.6518,1,0,5,5,7,1,1001,VOLUME,m,,,,,,,,,,,,,,,,,,,,,,,,,,,,,,,,,,,,,,,,,,,,,,,,,,,,,,,,,,,,,,,,,,
,,,,,,,,,,,,,,,,,,23,2022-02-12_13h18.17.624,lexical_decision_task_DD_L4,2021.2.3,MacIntel,60.0024001,m,1,0.9857,,,,,,,,0.9857,1,0,6,6,0,1,1001,UTOPIA,m,,,,,,,,,,,,,,,,,,,,,,,,,,,,,,,,,,,,,,,,,,,,,,,,,,,,,,,,,,,,,,,,,,
,,,,,,,,,,,,,,,,,,23,2022-02-12_13h18.17.624,lexical_decision_task_DD_L4,2021.2.3,MacIntel,60.0024001,z,1,1.2164,,,,,,,,1.2164,1,0,7,7,9,1,1001,FARINY,z,,,,,,,,,,,,,,,,,,,,,,,,,,,,,,,,,,,,,,,,,,,,,,,,,,,,,,,,,,,,,,,,,,
,,,,,,,,,,,,,,,,,,23,2022-02-12_13h18.17.624,lexical_decision_task_DD_L4,2021.2.3,MacIntel,60.0024001,z,1,0.8677,,,,,,,,0.8677,1,0,8,8,11,1,1001,RASHET,z,,,,,,,,,,,,,,,,,,,,,,,,,,,,,,,,,,,,,,,,,,,,,,,,,,,,,,,,,,,,,,,,,,
,,,,,,,,,,,,,,,,,,23,2022-02-12_13h18.17.624,lexical_decision_task_DD_L4,2021.2.3,MacIntel,60.0024001,m,0,1.1988,,,,,,,,1.1988,0,0,9,9,15,1,1001,WHAISE,z,,,,,,,,,,,,,,,,,,,,,,,,,,,,,,,,,,,,,,,,,,,,,,,,,,,,,,,,,,,,,,,,,,
,,,,,,,,,,,,,,,,,,23,2022-02-12_13h18.17.624,lexical_decision_task_DD_L4,2021.2.3,MacIntel,60.0024001,z,1,0.75,,,,,,,,0.75,1,0,10,10,14,1,1001,THRALE,z,,,,,,,,,,,,,,,,,,,,,,,,,,,,,,,,,,,,,,,,,,,,,,,,,,,,,,,,,,,,,,,,,,
,,,,,,,,,,,,,,,,,,23,2022-02-12_13h18.17.624,lexical_decision_task_DD_L4,2021.2.3,MacIntel,60.0024001,m,1,0.7681,,,,,,,,0.7681,1,0,11,11,1,1,1001,ADJUST,m,,,,,,,,,,,,,,,,,,,,,,,,,,,,,,,,,,,,,,,,,,,,,,,,,,,,,,,,,,,,,,,,,,
,,,,,,,,,,,,,,,,,,23,2022-02-12_13h18.17.624,lexical_decision_task_DD_L4,2021.2.3,MacIntel,60.0024001,m,0,1.0002,,,,,,,,1.0002,0,0,12,12,10,1,1001,INLADE,z,,,,,,,,,,,,,,,,,,,,,,,,,,,,,,,,,,,,,,,,,,,,,,,,,,,,,,,,,,,,,,,,,,
,,,,,,,,,,,,,,,,,,23,2022-02-12_13h18.17.624,lexical_decision_task_DD_L4,2021.2.3,MacIntel,60.0024001,m,1,0.7841,,,,,,,,0.7841,1,0,13,13,3,1,1001,MATRIX,m,,,,,,,,,,,,,,,,,,,,,,,,,,,,,,,,,,,,,,,,,,,,,,,,,,,,,,,,,,,,,,,,,,
,,,,,,,,,,,,,,,,,,23,2022-02-12_13h18.17.624,lexical_decision_task_DD_L4,2021.2.3,MacIntel,60.0024001,m,1,0.7818,,,,,,,,0.7818,1,0,14,14,6,1,1001,ZOMBIE,m,,,,,,,,,,,,,,,,,,,,,,,,,,,,,,,,,,,,,,,,,,,,,,,,,,,,,,,,,,,,,,,,,,
,,,,,,,,,,,,,,,,,,23,2022-02-12_13h18.17.624,lexical_decision_task_DD_L4,2021.2.3,MacIntel,60.0024001,m,1,0.7002,,,,,,,,0.7002,1,0,15,15,5,1,1001,OBTAIN,m,,,,,,,,,,,,,,,,,,,,,,,,,,,,,,,,,,,,,,,,,,,,,,,,,,,,,,,,,,,,,,,,,,
space,17.443,0.799982639,-0.012229445,0,0,0,,,,,,1,end_of_practice,"You have completed the practice trials. During the experimental trials, you will not receive feedback. 
Before you begin, please ensure that you are in a comfortable and quiet location and will not be disturbed for about 15 minutes, as we cannot use your data if you do not complete all the trials. 
 When you are ready to start the experimental trials, please press space or touch the button below.",,,,23,2022-02-12_13h18.17.624,lexical_decision_task_DD_L4,2021.2.3,MacIntel,60.0024001,,,,,,,,,,,,,,,,,,,,,0,0,0,0,1,,,,,,,,,,,,,,,,,,,,,,,,,,,,,,,,,,,,,,,,,,,,,,,,,,,,,,,,,,,,,
,,,,,,,,,,,,,,,,,,23,2022-02-12_13h18.17.624,lexical_decision_task_DD_L4,2021.2.3,MacIntel,60.0024001,,,,,,,,,,,0.7129,1,,,,,,,,,,,,,,m,1,0.7129,,,,,,,,0.799982639,-0.012229445,0,0,0,,0,0,0,30,1,SLOPE,C,old,m,./images/SLOPE.png,,,,,,,,,,,,,,,,,,,,,,,,,,,,,,,,,,,
,,,,,,,,,,,,,,,,,,23,2022-02-12_13h18.17.624,lexical_decision_task_DD_L4,2021.2.3,MacIntel,60.0024001,,,,,,,,,,,0.8797,1,,,,,,,,,,,,,,z,1,0.8797,,,,,,,,0.799982639,-0.012229445,0,0,0,,0,1,1,117,1,STEEG,C,old,z,./images/STEEG.png,,,,,,,,,,,,,,,,,,,,,,,,,,,,,,,,,,,
,,,,,,,,,,,,,,,,,,23,2022-02-12_13h18.17.624,lexical_decision_task_DD_L4,2021.2.3,MacIntel,60.0024001,,,,,,,,,,,2.3653,1,,,,,,,,,,,,,,z,1,2.3653,,,,,,,,0.799982639,-0.012229445,0,0,0,,0,2,2,148,1,JOMS,HB,old,z,./images/JOMSHB.png,,,,,,,,,,,,,,,,,,,,,,,,,,,,,,,,,,,
,,,,,,,,,,,,,,,,,,23,2022-02-12_13h18.17.624,lexical_decision_task_DD_L4,2021.2.3,MacIntel,60.0024001,,,,,,,,,,,1.2848,1,,,,,,,,,,,,,,m,1,1.2848,,,,,,,,0.799982639,-0.012229445,0,0,0,,0,3,3,25,1,CHALK,HB,old,m,./images/CHALKHB.png,,,,,,,,,,,,,,,,,,,,,,,,,,,,,,,,,,,
,,,,,,,,,,,,,,,,,,23,2022-02-12_13h18.17.624,lexical_decision_task_DD_L4,2021.2.3,MacIntel,60.0024001,,,,,,,,,,,1.1993,1,,,,,,,,,,,,,,m,1,1.1993,,,,,,,,0.799982639,-0.012229445,0,0,0,,0,4,4,3,1,CRATER,C,old,m,./images/CRATER.png,,,,,,,,,,,,,,,,,,,,,,,,,,,,,,,,,,,
,,,,,,,,,,,,,,,,,,23,2022-02-12_13h18.17.624,lexical_decision_task_DD_L4,2021.2.3,MacIntel,60.0024001,,,,,,,,,,,1.0311,1,,,,,,,,,,,,,,m,1,1.0311,,,,,,,,0.799982639,-0.012229445,0,0,0,,0,5,5,43,1,STOOL,HB,old,m,./images/STOOLHB.png,,,,,,,,,,,,,,,,,,,,,,,,,,,,,,,,,,,
,,,,,,,,,,,,,,,,,,23,2022-02-12_13h18.17.624,lexical_decision_task_DD_L4,2021.2.3,MacIntel,60.0024001,,,,,,,,,,,0.8813,1,,,,,,,,,,,,,,m,1,0.8813,,,,,,,,0.799982639,-0.012229445,0,0,0,,0,6,6,23,1,CLOTH,LB,old,m,./images/CLOTHLB.png,,,,,,,,,,,,,,,,,,,,,,,,,,,,,,,,,,,
,,,,,,,,,,,,,,,,,,23,2022-02-12_13h18.17.624,lexical_decision_task_DD_L4,2021.2.3,MacIntel,60.0024001,,,,,,,,,,,0.8041,1,,,,,,,,,,,,,,m,1,0.8041,,,,,,,,0.799982639,-0.012229445,0,0,0,,0,7,7,61,1,ARTIST,HB,old,m,./images/ARTISTHB.png,,,,,,,,,,,,,,,,,,,,,,,,,,,,,,,,,,,
,,,,,,,,,,,,,,,,,,23,2022-02-12_13h18.17.624,lexical_decision_task_DD_L4,2021.2.3,MacIntel,60.0024001,,,,,,,,,,,1.4337,1,,,,,,,,,,,,,,z,1,1.4337,,,,,,,,0.799982639,-0.012229445,0,0,0,,0,8,8,131,1,NACES,LB,old,z,./images/NACESLB.png,,,,,,,,,,,,,,,,,,,,,,,,,,,,,,,,,,,
,,,,,,,,,,,,,,,,,,23,2022-02-12_13h18.17.624,lexical_decision_task_DD_L4,2021.2.3,MacIntel,60.0024001,,,,,,,,,,,0.6521,1,,,,,,,,,,,,,,m,1,0.6521,,,,,,,,0.799982639,-0.012229445,0,0,0,,0,9,9,83,1,WHISKY,LB,old,m,./images/WHISKYLB.png,,,,,,,,,,,,,,,,,,,,,,,,,,,,,,,,,,,
,,,,,,,,,,,,,,,,,,23,2022-02-12_13h18.17.624,lexical_decision_task_DD_L4,2021.2.3,MacIntel,60.0024001,,,,,,,,,,,0.7983,1,,,,,,,,,,,,,,z,1,0.7983,,,,,,,,0.799982639,-0.012229445,0,0,0,,0,10,10,167,1,ZONET,LB,old,z,./images/ZONETLB.png,,,,,,,,,,,,,,,,,,,,,,,,,,,,,,,,,,,
,,,,,,,,,,,,,,,,,,23,2022-02-12_13h18.17.624,lexical_decision_task_DD_L4,2021.2.3,MacIntel,60.0024001,,,,,,,,,,,0.9521,1,,,,,,,,,,,,,,z,1,0.9521,,,,,,,,0.799982639,-0.012229445,0,0,0,,0,11,11,144,1,NAIRY,C,old,z,./images/NAIRY.png,,,,,,,,,,,,,,,,,,,,,,,,,,,,,,,,,,,
,,,,,,,,,,,,,,,,,,23,2022-02-12_13h18.17.624,lexical_decision_task_DD_L4,2021.2.3,MacIntel,60.0024001,,,,,,,,,,,0.7181,1,,,,,,,,,,,,,,m,1,0.7181,,,,,,,,0.799982639,-0.012229445,0,0,0,,0,12,12,20,1,GRANNY,LB,old,m,./images/GRANNYLB.png,,,,,,,,,,,,,,,,,,,,,,,,,,,,,,,,,,,
,,,,,,,,,,,,,,,,,,23,2022-02-12_13h18.17.624,lexical_decision_task_DD_L4,2021.2.3,MacIntel,60.0024001,,,,,,,,,,,1.5391,0,,,,,,,,,,,,,,m,0,1.5391,,,,,,,,0.799982639,-0.012229445,0,0,0,,0,13,13,94,1,BLANS,HB,old,z,./images/BLANSHB.png,,,,,,,,,,,,,,,,,,,,,,,,,,,,,,,,,,,
,,,,,,,,,,,,,,,,,,23,2022-02-12_13h18.17.624,lexical_decision_task_DD_L4,2021.2.3,MacIntel,60.0024001,,,,,,,,,,,0.8808,1,,,,,,,,,,,,,,z,1,0.8808,,,,,,,,0.799982639,-0.012229445,0,0,0,,0,14,14,165,1,TROWN,C,old,z,./images/TROWN.png,,,,,,,,,,,,,,,,,,,,,,,,,,,,,,,,,,,
,,,,,,,,,,,,,,,,,,23,2022-02-12_13h18.17.624,lexical_decision_task_DD_L4,2021.2.3,MacIntel,60.0024001,,,,,,,,,,,0.7824,1,,,,,,,,,,,,,,z,1,0.7824,,,,,,,,0.799982639,-0.012229445,0,0,0,,0,15,15,119,1,PAFER,LB,old,z,./images/PAFERLB.png,,,,,,,,,,,,,,,,,,,,,,,,,,,,,,,,,,,
,,,,,,,,,,,,,,,,,,23,2022-02-12_13h18.17.624,lexical_decision_task_DD_L4,2021.2.3,MacIntel,60.0024001,,,,,,,,,,,0.9148,0,,,,,,,,,,,,,,m,0,0.9148,,,,,,,,0.799982639,-0.012229445,0,0,0,,0,16,16,106,1,CLUMS,HB,old,z,./images/CLUMSHB.png,,,,,,,,,,,,,,,,,,,,,,,,,,,,,,,,,,,
,,,,,,,,,,,,,,,,,,23,2022-02-12_13h18.17.624,lexical_decision_task_DD_L4,2021.2.3,MacIntel,60.0024001,,,,,,,,,,,1.313,1,,,,,,,,,,,,,,z,1,1.313,,,,,,,,0.799982639,-0.012229445,0,0,0,,0,17,17,127,1,NINDY,HB,old,z,./images/NINDYHB.png,,,,,,,,,,,,,,,,,,,,,,,,,,,,,,,,,,,
,,,,,,,,,,,,,,,,,,23,2022-02-12_13h18.17.624,lexical_decision_task_DD_L4,2021.2.3,MacIntel,60.0024001,,,,,,,,,,,1.2309,1,,,,,,,,,,,,,,z,1,1.2309,,,,,,,,0.799982639,-0.012229445,0,0,0,,0,18,18,152,1,FRAIN,LB,old,z,./images/FRAINLB.png,,,,,,,,,,,,,,,,,,,,,,,,,,,,,,,,,,,
,,,,,,,,,,,,,,,,,,23,2022-02-12_13h18.17.624,lexical_decision_task_DD_L4,2021.2.3,MacIntel,60.0024001,,,,,,,,,,,1.0991,1,,,,,,,,,,,,,,z,1,1.0991,,,,,,,,0.799982639,-0.012229445,0,0,0,,0,19,19,108,1,GRUET,C,old,z,./images/GRUET.png,,,,,,,,,,,,,,,,,,,,,,,,,,,,,,,,,,,
,,,,,,,,,,,,,,,,,,23,2022-02-12_13h18.17.624,lexical_decision_task_DD_L4,2021.2.3,MacIntel,60.0024001,,,,,,,,,,,0.7475,1,,,,,,,,,,,,,,z,1,0.7475,,,,,,,,0.799982639,-0.012229445,0,0,0,,0,20,20,89,1,DRIEK,LB,old,z,./images/DRIEKLB.png,,,,,,,,,,,,,,,,,,,,,,,,,,,,,,,,,,,
,,,,,,,,,,,,,,,,,,23,2022-02-12_13h18.17.624,lexical_decision_task_DD_L4,2021.2.3,MacIntel,60.0024001,,,,,,,,,,,0.6474,1,,,,,,,,,,,,,,m,1,0.6474,,,,,,,,0.799982639,-0.012229445,0,0,0,,0,21,21,36,1,BOILER,C,old,m,./images/BOILER.png,,,,,,,,,,,,,,,,,,,,,,,,,,,,,,,,,,,
,,,,,,,,,,,,,,,,,,23,2022-02-12_13h18.17.624,lexical_decision_task_DD_L4,2021.2.3,MacIntel,60.0024001,,,,,,,,,,,0.7496,1,,,,,,,,,,,,,,z,1,0.7496,,,,,,,,0.799982639,-0.012229445,0,0,0,,0,22,22,161,1,BLAPS,LB,old,z,./images/BLAPSLB.png,,,,,,,,,,,,,,,,,,,,,,,,,,,,,,,,,,,
,,,,,,,,,,,,,,,,,,23,2022-02-12_13h18.17.624,lexical_decision_task_DD_L4,2021.2.3,MacIntel,60.0024001,,,,,,,,,,,1.0816,0,,,,,,,,,,,,,,m,0,1.0816,,,,,,,,0.799982639,-0.012229445,0,0,0,,0,23,23,143,1,MONGS,LB,old,z,./images/MONGSLB.png,,,,,,,,,,,,,,,,,,,,,,,,,,,,,,,,,,,
,,,,,,,,,,,,,,,,,,23,2022-02-12_13h18.17.624,lexical_decision_task_DD_L4,2021.2.3,MacIntel,60.0024001,,,,,,,,,,,0.7478,1,,,,,,,,,,,,,,z,1,0.7478,,,,,,,,0.799982639,-0.012229445,0,0,0,,0,24,24,132,1,SCIFF,C,old,z,./images/SCIFF.png,,,,,,,,,,,,,,,,,,,,,,,,,,,,,,,,,,,
,,,,,,,,,,,,,,,,,,23,2022-02-12_13h18.17.624,lexical_decision_task_DD_L4,2021.2.3,MacIntel,60.0024001,,,,,,,,,,,1.1672,1,,,,,,,,,,,,,,z,1,1.1672,,,,,,,,0.799982639,-0.012229445,0,0,0,,0,25,25,140,1,DOVET,LB,old,z,./images/DOVETLB.png,,,,,,,,,,,,,,,,,,,,,,,,,,,,,,,,,,,
,,,,,,,,,,,,,,,,,,23,2022-02-12_13h18.17.624,lexical_decision_task_DD_L4,2021.2.3,MacIntel,60.0024001,,,,,,,,,,,0.8598,1,,,,,,,,,,,,,,z,1,0.8598,,,,,,,,0.799982639,-0.012229445,0,0,0,,0,26,26,114,1,RIKES,C,old,z,./images/RIKES.png,,,,,,,,,,,,,,,,,,,,,,,,,,,,,,,,,,,
,,,,,,,,,,,,,,,,,,23,2022-02-12_13h18.17.624,lexical_decision_task_DD_L4,2021.2.3,MacIntel,60.0024001,,,,,,,,,,,1.2683,1,,,,,,,,,,,,,,m,1,1.2683,,,,,,,,0.799982639,-0.012229445,0,0,0,,0,27,27,13,1,BUNNY,HB,old,m,./images/BUNNYHB.png,,,,,,,,,,,,,,,,,,,,,,,,,,,,,,,,,,,
,,,,,,,,,,,,,,,,,,23,2022-02-12_13h18.17.624,lexical_decision_task_DD_L4,2021.2.3,MacIntel,60.0024001,,,,,,,,,,,0.6652,1,,,,,,,,,,,,,,m,1,0.6652,,,,,,,,0.799982639,-0.012229445,0,0,0,,0,28,28,33,1,SAUNA,C,old,m,./images/SAUNA.png,,,,,,,,,,,,,,,,,,,,,,,,,,,,,,,,,,,
,,,,,,,,,,,,,,,,,,23,2022-02-12_13h18.17.624,lexical_decision_task_DD_L4,2021.2.3,MacIntel,60.0024001,,,,,,,,,,,0.6991,1,,,,,,,,,,,,,,m,1,0.6991,,,,,,,,0.799982639,-0.012229445,0,0,0,,0,29,29,48,1,SHIELD,C,old,m,./images/SHIELD.png,,,,,,,,,,,,,,,,,,,,,,,,,,,,,,,,,,,
,,,,,,,,,,,,,,,,,,23,2022-02-12_13h18.17.624,lexical_decision_task_DD_L4,2021.2.3,MacIntel,60.0024001,,,,,,,,,,,0.7524,1,,,,,,,,,,,,,,m,1,0.7524,,,,,,,,0.799982639,-0.012229445,0,0,0,,0,30,30,60,1,CURRY,C,old,m,./images/CURRY.png,,,,,,,,,,,,,,,,,,,,,,,,,,,,,,,,,,,
,,,,,,,,,,,,,,,,,,23,2022-02-12_13h18.17.624,lexical_decision_task_DD_L4,2021.2.3,MacIntel,60.0024001,,,,,,,,,,,0.6151,1,,,,,,,,,,,,,,m,1,0.6151,,,,,,,,0.799982639,-0.012229445,0,0,0,,0,31,31,69,1,ARROW,C,old,m,./images/ARROW.png,,,,,,,,,,,,,,,,,,,,,,,,,,,,,,,,,,,
,,,,,,,,,,,,,,,,,,23,2022-02-12_13h18.17.624,lexical_decision_task_DD_L4,2021.2.3,MacIntel,60.0024001,,,,,,,,,,,1.0514,1,,,,,,,,,,,,,,m,1,1.0514,,,,,,,,0.799982639,-0.012229445,0,0,0,,0,32,32,52,1,DESERT,HB,old,m,./images/DESERTHB.png,,,,,,,,,,,,,,,,,,,,,,,,,,,,,,,,,,,
,,,,,,,,,,,,,,,,,,23,2022-02-12_13h18.17.624,lexical_decision_task_DD_L4,2021.2.3,MacIntel,60.0024001,,,,,,,,,,,0.7082,1,,,,,,,,,,,,,,m,1,0.7082,,,,,,,,0.799982639,-0.012229445,0,0,0,,0,33,33,77,1,WHEEL,LB,old,m,./images/WHEELLB.png,,,,,,,,,,,,,,,,,,,,,,,,,,,,,,,,,,,
,,,,,,,,,,,,,,,,,,23,2022-02-12_13h18.17.624,lexical_decision_task_DD_L4,2021.2.3,MacIntel,60.0024001,,,,,,,,,,,0.8989,1,,,,,,,,,,,,,,z,1,0.8989,,,,,,,,0.799982639,-0.012229445,0,0,0,,0,34,34,164,1,SGREW,LB,old,z,./images/SGREWLB.png,,,,,,,,,,,,,,,,,,,,,,,,,,,,,,,,,,,
,,,,,,,,,,,,,,,,,,23,2022-02-12_13h18.17.624,lexical_decision_task_DD_L4,2021.2.3,MacIntel,60.0024001,,,,,,,,,,,0.9495,1,,,,,,,,,,,,,,z,1,0.9495,,,,,,,,0.799982639,-0.012229445,0,0,0,,0,35,35,129,1,PRANS,C,old,z,./images/PRANS.png,,,,,,,,,,,,,,,,,,,,,,,,,,,,,,,,,,,
,,,,,,,,,,,,,,,,,,23,2022-02-12_13h18.17.624,lexical_decision_task_DD_L4,2021.2.3,MacIntel,60.0024001,,,,,,,,,,,0.7173,1,,,,,,,,,,,,,,m,1,0.7173,,,,,,,,0.799982639,-0.012229445,0,0,0,,0,36,36,1,1,TOWEL,HB,old,m,./images/TOWELHB.png,,,,,,,,,,,,,,,,,,,,,,,,,,,,,,,,,,,
,,,,,,,,,,,,,,,,,,23,2022-02-12_13h18.17.624,lexical_decision_task_DD_L4,2021.2.3,MacIntel,60.0024001,,,,,,,,,,,1.3828,1,,,,,,,,,,,,,,m,1,1.3828,,,,,,,,0.799982639,-0.012229445,0,0,0,,0,37,37,76,1,MIDGET,HB,old,m,./images/MIDGETHB.png,,,,,,,,,,,,,,,,,,,,,,,,,,,,,,,,,,,
,,,,,,,,,,,,,,,,,,23,2022-02-12_13h18.17.624,lexical_decision_task_DD_L4,2021.2.3,MacIntel,60.0024001,,,,,,,,,,,0.5624,1,,,,,,,,,,,,,,m,1,0.5624,,,,,,,,0.799982639,-0.012229445,0,0,0,,0,38,38,66,1,STATUE,C,old,m,./images/STATUE.png,,,,,,,,,,,,,,,,,,,,,,,,,,,,,,,,,,,
,,,,,,,,,,,,,,,,,,23,2022-02-12_13h18.17.624,lexical_decision_task_DD_L4,2021.2.3,MacIntel,60.0024001,,,,,,,,,,,0.513,1,,,,,,,,,,,,,,m,1,0.513,,,,,,,,0.799982639,-0.012229445,0,0,0,,0,39,39,42,1,CHAIN,C,old,m,./images/CHAIN.png,,,,,,,,,,,,,,,,,,,,,,,,,,,,,,,,,,,
,,,,,,,,,,,,,,,,,,23,2022-02-12_13h18.17.624,lexical_decision_task_DD_L4,2021.2.3,MacIntel,60.0024001,,,,,,,,,,,1.2834,1,,,,,,,,,,,,,,m,1,1.2834,,,,,,,,0.799982639,-0.012229445,0,0,0,,0,40,40,4,1,BOXER,HB,old,m,./images/BOXERHB.png,,,,,,,,,,,,,,,,,,,,,,,,,,,,,,,,,,,
,,,,,,,,,,,,,,,,,,23,2022-02-12_13h18.17.624,lexical_decision_task_DD_L4,2021.2.3,MacIntel,60.0024001,,,,,,,,,,,0.8962,1,,,,,,,,,,,,,,m,1,0.8962,,,,,,,,0.799982639,-0.012229445,0,0,0,space,0,41,41,79,1,RULER,HB,old,m,./images/RULERHB.png,15.1459,,,,,,,,,,,,,,,,,,,,,,,,,,,,,,,,,,
,,,,,,,,,,,,,,,,,,23,2022-02-12_13h18.17.624,lexical_decision_task_DD_L4,2021.2.3,MacIntel,60.0024001,,,,,,,,,,,0.5817,1,,,,,,,,,,,,,,m,1,0.5817,,,,,,,,0.799982639,-0.012229445,0,0,0,,0,42,42,71,1,BUBBLE,LB,old,m,./images/BUBBLELB.png,,,,,,,,,,,,,,,,,,,,,,,,,,,,,,,,,,,
,,,,,,,,,,,,,,,,,,23,2022-02-12_13h18.17.624,lexical_decision_task_DD_L4,2021.2.3,MacIntel,60.0024001,,,,,,,,,,,0.6664,1,,,,,,,,,,,,,,m,1,0.6664,,,,,,,,0.799982639,-0.012229445,0,0,0,,0,43,43,63,1,BAKER,C,old,m,./images/BAKER.png,,,,,,,,,,,,,,,,,,,,,,,,,,,,,,,,,,,
,,,,,,,,,,,,,,,,,,23,2022-02-12_13h18.17.624,lexical_decision_task_DD_L4,2021.2.3,MacIntel,60.0024001,,,,,,,,,,,1.483,1,,,,,,,,,,,,,,z,1,1.483,,,,,,,,0.799982639,-0.012229445,0,0,0,,0,44,44,160,1,VEETS,HB,old,z,./images/VEETSHB.png,,,,,,,,,,,,,,,,,,,,,,,,,,,,,,,,,,,
,,,,,,,,,,,,,,,,,,23,2022-02-12_13h18.17.624,lexical_decision_task_DD_L4,2021.2.3,MacIntel,60.0024001,,,,,,,,,,,1.7181,1,,,,,,,,,,,,,,z,1,1.7181,,,,,,,,0.799982639,-0.012229445,0,0,0,,0,45,45,100,1,DRIBS,HB,old,z,./images/DRIBSHB.png,,,,,,,,,,,,,,,,,,,,,,,,,,,,,,,,,,,
,,,,,,,,,,,,,,,,,,23,2022-02-12_13h18.17.624,lexical_decision_task_DD_L4,2021.2.3,MacIntel,60.0024001,,,,,,,,,,,1.1518,1,,,,,,,,,,,,,,z,1,1.1518,,,,,,,,0.799982639,-0.012229445,0,0,0,,0,46,46,166,1,SHORY,HB,old,z,./images/SHORYHB.png,,,,,,,,,,,,,,,,,,,,,,,,,,,,,,,,,,,
,,,,,,,,,,,,,,,,,,23,2022-02-12_13h18.17.624,lexical_decision_task_DD_L4,2021.2.3,MacIntel,60.0024001,,,,,,,,,,,0.7338,1,,,,,,,,,,,,,,m,1,0.7338,,,,,,,,0.799982639,-0.012229445,0,0,0,,0,47,47,50,1,PILOT,LB,old,m,./images/PILOTLB.png,,,,,,,,,,,,,,,,,,,,,,,,,,,,,,,,,,,
,,,,,,,,,,,,,,,,,,23,2022-02-12_13h18.17.624,lexical_decision_task_DD_L4,2021.2.3,MacIntel,60.0024001,,,,,,,,,,,0.9147,1,,,,,,,,,,,,,,z,1,0.9147,,,,,,,,0.799982639,-0.012229445,0,0,0,,0,48,48,155,1,CANGY,LB,old,z,./images/CANGYLB.png,,,,,,,,,,,,,,,,,,,,,,,,,,,,,,,,,,,
,,,,,,,,,,,,,,,,,,23,2022-02-12_13h18.17.624,lexical_decision_task_DD_L4,2021.2.3,MacIntel,60.0024001,,,,,,,,,,,0.9148,1,,,,,,,,,,,,,,m,1,0.9148,,,,,,,,0.799982639,-0.012229445,0,0,0,,0,49,49,55,1,ALLEY,HB,old,m,./images/ALLEYHB.png,,,,,,,,,,,,,,,,,,,,,,,,,,,,,,,,,,,
,,,,,,,,,,,,,,,,,,23,2022-02-12_13h18.17.624,lexical_decision_task_DD_L4,2021.2.3,MacIntel,60.0024001,,,,,,,,,,,1.133,1,,,,,,,,,,,,,,z,1,1.133,,,,,,,,0.799982639,-0.012229445,0,0,0,,0,50,50,145,1,LAMEL,HB,old,z,./images/LAMELHB.png,,,,,,,,,,,,,,,,,,,,,,,,,,,,,,,,,,,
,,,,,,,,,,,,,,,,,,23,2022-02-12_13h18.17.624,lexical_decision_task_DD_L4,2021.2.3,MacIntel,60.0024001,,,,,,,,,,,1.1356,1,,,,,,,,,,,,,,z,1,1.1356,,,,,,,,0.799982639,-0.012229445,0,0,0,,0,51,51,112,1,MYING,HB,old,z,./images/MYINGHB.png,,,,,,,,,,,,,,,,,,,,,,,,,,,,,,,,,,,
,,,,,,,,,,,,,,,,,,23,2022-02-12_13h18.17.624,lexical_decision_task_DD_L4,2021.2.3,MacIntel,60.0024001,,,,,,,,,,,0.6501,1,,,,,,,,,,,,,,m,1,0.6501,,,,,,,,0.799982639,-0.012229445,0,0,0,,0,52,52,56,1,HEATER,LB,old,m,./images/HEATERLB.png,,,,,,,,,,,,,,,,,,,,,,,,,,,,,,,,,,,
,,,,,,,,,,,,,,,,,,23,2022-02-12_13h18.17.624,lexical_decision_task_DD_L4,2021.2.3,MacIntel,60.0024001,,,,,,,,,,,1.148,1,,,,,,,,,,,,,,m,1,1.148,,,,,,,,0.799982639,-0.012229445,0,0,0,,0,53,53,68,1,VALLEY,LB,old,m,./images/VALLEYLB.png,,,,,,,,,,,,,,,,,,,,,,,,,,,,,,,,,,,
,,,,,,,,,,,,,,,,,,23,2022-02-12_13h18.17.624,lexical_decision_task_DD_L4,2021.2.3,MacIntel,60.0024001,,,,,,,,,,,0.8661,1,,,,,,,,,,,,,,z,1,0.8661,,,,,,,,0.799982639,-0.012229445,0,0,0,,0,54,54,125,1,MOOKY,LB,old,z,./images/MOOKYLB.png,,,,,,,,,,,,,,,,,,,,,,,,,,,,,,,,,,,
,,,,,,,,,,,,,,,,,,23,2022-02-12_13h18.17.624,lexical_decision_task_DD_L4,2021.2.3,MacIntel,60.0024001,,,,,,,,,,,0.5811,1,,,,,,,,,,,,,,m,1,0.5811,,,,,,,,0.799982639,-0.012229445,0,0,0,,0,55,55,45,1,MONKEY,C,old,m,./images/MONKEY.png,,,,,,,,,,,,,,,,,,,,,,,,,,,,,,,,,,,
,,,,,,,,,,,,,,,,,,23,2022-02-12_13h18.17.624,lexical_decision_task_DD_L4,2021.2.3,MacIntel,60.0024001,,,,,,,,,,,0.7291,1,,,,,,,,,,,,,,m,1,0.7291,,,,,,,,0.799982639,-0.012229445,0,0,0,,0,56,56,73,1,GLOVE,HB,old,m,./images/GLOVEHB.png,,,,,,,,,,,,,,,,,,,,,,,,,,,,,,,,,,,
,,,,,,,,,,,,,,,,,,23,2022-02-12_13h18.17.624,lexical_decision_task_DD_L4,2021.2.3,MacIntel,60.0024001,,,,,,,,,,,0.6724,1,,,,,,,,,,,,,,z,1,0.6724,,,,,,,,0.799982639,-0.012229445,0,0,0,,0,57,57,150,1,NOOLS,C,old,z,./images/NOOLS.png,,,,,,,,,,,,,,,,,,,,,,,,,,,,,,,,,,,
,,,,,,,,,,,,,,,,,,23,2022-02-12_13h18.17.624,lexical_decision_task_DD_L4,2021.2.3,MacIntel,60.0024001,,,,,,,,,,,0.7326,1,,,,,,,,,,,,,,z,1,0.7326,,,,,,,,0.799982639,-0.012229445,0,0,0,,0,58,58,137,1,JOOST,LB,old,z,./images/JOOSTLB.png,,,,,,,,,,,,,,,,,,,,,,,,,,,,,,,,,,,
,,,,,,,,,,,,,,,,,,23,2022-02-12_13h18.17.624,lexical_decision_task_DD_L4,2021.2.3,MacIntel,60.0024001,,,,,,,,,,,1.1823,0,,,,,,,,,,,,,,m,0,1.1823,,,,,,,,0.799982639,-0.012229445,0,0,0,,0,59,59,133,1,POWDY,HB,old,z,./images/POWDYHB.png,,,,,,,,,,,,,,,,,,,,,,,,,,,,,,,,,,,
,,,,,,,,,,,,,,,,,,23,2022-02-12_13h18.17.624,lexical_decision_task_DD_L4,2021.2.3,MacIntel,60.0024001,,,,,,,,,,,0.9544,1,,,,,,,,,,,,,,m,1,0.9544,,,,,,,,0.799982639,-0.012229445,0,0,0,,0,60,60,31,1,STEAK,HB,old,m,./images/STEAKHB.png,,,,,,,,,,,,,,,,,,,,,,,,,,,,,,,,,,,
,,,,,,,,,,,,,,,,,,23,2022-02-12_13h18.17.624,lexical_decision_task_DD_L4,2021.2.3,MacIntel,60.0024001,,,,,,,,,,,1.0335,1,,,,,,,,,,,,,,z,1,1.0335,,,,,,,,0.799982639,-0.012229445,0,0,0,,0,61,61,122,1,BLOOT,LB,old,z,./images/BLOOTLB.png,,,,,,,,,,,,,,,,,,,,,,,,,,,,,,,,,,,
,,,,,,,,,,,,,,,,,,23,2022-02-12_13h18.17.624,lexical_decision_task_DD_L4,2021.2.3,MacIntel,60.0024001,,,,,,,,,,,0.8321,1,,,,,,,,,,,,,,m,1,0.8321,,,,,,,,0.799982639,-0.012229445,0,0,0,,0,62,62,82,1,PEBBLE,HB,old,m,./images/PEBBLEHB.png,,,,,,,,,,,,,,,,,,,,,,,,,,,,,,,,,,,
,,,,,,,,,,,,,,,,,,23,2022-02-12_13h18.17.624,lexical_decision_task_DD_L4,2021.2.3,MacIntel,60.0024001,,,,,,,,,,,1.1822,1,,,,,,,,,,,,,,m,1,1.1822,,,,,,,,0.799982639,-0.012229445,0,0,0,,0,63,63,10,1,GARDEN,HB,old,m,./images/GARDENHB.png,,,,,,,,,,,,,,,,,,,,,,,,,,,,,,,,,,,
,,,,,,,,,,,,,,,,,,23,2022-02-12_13h18.17.624,lexical_decision_task_DD_L4,2021.2.3,MacIntel,60.0024001,,,,,,,,,,,0.7034,1,,,,,,,,,,,,,,z,1,0.7034,,,,,,,,0.799982639,-0.012229445,0,0,0,,0,64,64,98,1,BAMPS,LB,old,z,./images/BAMPSLB.png,,,,,,,,,,,,,,,,,,,,,,,,,,,,,,,,,,,
,,,,,,,,,,,,,,,,,,23,2022-02-12_13h18.17.624,lexical_decision_task_DD_L4,2021.2.3,MacIntel,60.0024001,,,,,,,,,,,0.8132,1,,,,,,,,,,,,,,m,1,0.8132,,,,,,,,0.799982639,-0.012229445,0,0,0,,0,65,65,81,1,DRILL,C,old,m,./images/DRILL.png,,,,,,,,,,,,,,,,,,,,,,,,,,,,,,,,,,,
,,,,,,,,,,,,,,,,,,23,2022-02-12_13h18.17.624,lexical_decision_task_DD_L4,2021.2.3,MacIntel,60.0024001,,,,,,,,,,,0.6324,1,,,,,,,,,,,,,,m,1,0.6324,,,,,,,,0.799982639,-0.012229445,0,0,0,,0,66,66,39,1,CANDY,C,old,m,./images/CANDY.png,,,,,,,,,,,,,,,,,,,,,,,,,,,,,,,,,,,
,,,,,,,,,,,,,,,,,,23,2022-02-12_13h18.17.624,lexical_decision_task_DD_L4,2021.2.3,MacIntel,60.0024001,,,,,,,,,,,1.4161,1,,,,,,,,,,,,,,z,1,1.4161,,,,,,,,0.799982639,-0.012229445,0,0,0,,0,67,67,85,1,CHULK,HB,old,z,./images/CHULKHB.png,,,,,,,,,,,,,,,,,,,,,,,,,,,,,,,,,,,
,,,,,,,,,,,,,,,,,,23,2022-02-12_13h18.17.624,lexical_decision_task_DD_L4,2021.2.3,MacIntel,60.0024001,,,,,,,,,,,1.0486,1,,,,,,,,,,,,,,z,1,1.0486,,,,,,,,0.799982639,-0.012229445,0,0,0,,0,68,68,120,1,RINED,C,old,z,./images/RINED.png,,,,,,,,,,,,,,,,,,,,,,,,,,,,,,,,,,,
,,,,,,,,,,,,,,,,,,23,2022-02-12_13h18.17.624,lexical_decision_task_DD_L4,2021.2.3,MacIntel,60.0024001,,,,,,,,,,,0.8502,1,,,,,,,,,,,,,,m,1,0.8502,,,,,,,,0.799982639,-0.012229445,0,0,0,,0,69,69,70,1,BANANA,HB,old,m,./images/BANANAHB.png,,,,,,,,,,,,,,,,,,,,,,,,,,,,,,,,,,,
,,,,,,,,,,,,,,,,,,23,2022-02-12_13h18.17.624,lexical_decision_task_DD_L4,2021.2.3,MacIntel,60.0024001,,,,,,,,,,,1.0818,1,,,,,,,,,,,,,,z,1,1.0818,,,,,,,,0.799982639,-0.012229445,0,0,0,,0,70,70,107,1,FASKS,LB,old,z,./images/FASKSLB.png,,,,,,,,,,,,,,,,,,,,,,,,,,,,,,,,,,,
,,,,,,,,,,,,,,,,,,23,2022-02-12_13h18.17.624,lexical_decision_task_DD_L4,2021.2.3,MacIntel,60.0024001,,,,,,,,,,,1.1214,1,,,,,,,,,,,,,,m,1,1.1214,,,,,,,,0.799982639,-0.012229445,0,0,0,,0,71,71,37,1,TIGER,HB,old,m,./images/TIGERHB.png,,,,,,,,,,,,,,,,,,,,,,,,,,,,,,,,,,,
,,,,,,,,,,,,,,,,,,23,2022-02-12_13h18.17.624,lexical_decision_task_DD_L4,2021.2.3,MacIntel,60.0024001,,,,,,,,,,,0.5991,1,,,,,,,,,,,,,,m,1,0.5991,,,,,,,,0.799982639,-0.012229445,0,0,0,,0,72,72,62,1,MAMMAL,LB,old,m,./images/MAMMALLB.png,,,,,,,,,,,,,,,,,,,,,,,,,,,,,,,,,,,
,,,,,,,,,,,,,,,,,,23,2022-02-12_13h18.17.624,lexical_decision_task_DD_L4,2021.2.3,MacIntel,60.0024001,,,,,,,,,,,0.7023,1,,,,,,,,,,,,,,z,1,0.7023,,,,,,,,0.799982639,-0.012229445,0,0,0,,0,73,73,126,1,GUELS,C,old,z,./images/GUELS.png,,,,,,,,,,,,,,,,,,,,,,,,,,,,,,,,,,,
,,,,,,,,,,,,,,,,,,23,2022-02-12_13h18.17.624,lexical_decision_task_DD_L4,2021.2.3,MacIntel,60.0024001,,,,,,,,,,,0.7265,1,,,,,,,,,,,,,,z,1,0.7265,,,,,,,,0.799982639,-0.012229445,0,0,0,,0,74,74,105,1,MOKER,C,old,z,./images/MOKER.png,,,,,,,,,,,,,,,,,,,,,,,,,,,,,,,,,,,
,,,,,,,,,,,,,,,,,,23,2022-02-12_13h18.17.624,lexical_decision_task_DD_L4,2021.2.3,MacIntel,60.0024001,,,,,,,,,,,1.3983,1,,,,,,,,,,,,,,z,1,1.3983,,,,,,,,0.799982639,-0.012229445,0,0,0,,0,75,75,91,1,SHENS,HB,old,z,./images/SHENSHB.png,,,,,,,,,,,,,,,,,,,,,,,,,,,,,,,,,,,
,,,,,,,,,,,,,,,,,,23,2022-02-12_13h18.17.624,lexical_decision_task_DD_L4,2021.2.3,MacIntel,60.0024001,,,,,,,,,,,0.8139,1,,,,,,,,,,,,,,z,1,0.8139,,,,,,,,0.799982639,-0.012229445,0,0,0,,0,76,76,93,1,SMONE,C,old,z,./images/SMONE.png,,,,,,,,,,,,,,,,,,,,,,,,,,,,,,,,,,,
,,,,,,,,,,,,,,,,,,23,2022-02-12_13h18.17.624,lexical_decision_task_DD_L4,2021.2.3,MacIntel,60.0024001,,,,,,,,,,,1.2274,1,,,,,,,,,,,,,,z,1,1.2274,,,,,,,,0.799982639,-0.012229445,0,0,0,,0,77,77,158,1,EGECT,LB,old,z,./images/EGECTLB.png,,,,,,,,,,,,,,,,,,,,,,,,,,,,,,,,,,,
,,,,,,,,,,,,,,,,,,23,2022-02-12_13h18.17.624,lexical_decision_task_DD_L4,2021.2.3,MacIntel,60.0024001,,,,,,,,,,,0.7383,1,,,,,,,,,,,,,,z,1,0.7383,,,,,,,,0.799982639,-0.012229445,0,0,0,,0,78,78,146,1,MOOST,LB,old,z,./images/MOOSTLB.png,,,,,,,,,,,,,,,,,,,,,,,,,,,,,,,,,,,
,,,,,,,,,,,,,,,,,,23,2022-02-12_13h18.17.624,lexical_decision_task_DD_L4,2021.2.3,MacIntel,60.0024001,,,,,,,,,,,0.583,1,,,,,,,,,,,,,,m,1,0.583,,,,,,,,0.799982639,-0.012229445,0,0,0,,0,79,79,11,1,MEDAL,LB,old,m,./images/MEDALLB.png,,,,,,,,,,,,,,,,,,,,,,,,,,,,,,,,,,,
,,,,,,,,,,,,,,,,,,23,2022-02-12_13h18.17.624,lexical_decision_task_DD_L4,2021.2.3,MacIntel,60.0024001,,,,,,,,,,,0.5983,1,,,,,,,,,,,,,,z,1,0.5983,,,,,,,,0.799982639,-0.012229445,0,0,0,,0,80,80,135,1,JOODY,C,old,z,./images/JOODY.png,,,,,,,,,,,,,,,,,,,,,,,,,,,,,,,,,,,
,,,,,,,,,,,,,,,,,,23,2022-02-12_13h18.17.624,lexical_decision_task_DD_L4,2021.2.3,MacIntel,60.0024001,,,,,,,,,,,0.696,1,,,,,,,,,,,,,,z,1,0.696,,,,,,,,0.799982639,-0.012229445,0,0,0,,0,81,81,147,1,ZOLES,C,old,z,./images/ZOLES.png,,,,,,,,,,,,,,,,,,,,,,,,,,,,,,,,,,,
,,,,,,,,,,,,,,,,,,23,2022-02-12_13h18.17.624,lexical_decision_task_DD_L4,2021.2.3,MacIntel,60.0024001,,,,,,,,,,,0.7486,1,,,,,,,,,,,,,,z,1,0.7486,,,,,,,,0.799982639,-0.012229445,0,0,0,,0,82,82,159,1,CUDDY,C,old,z,./images/CUDDY.png,,,,,,,,,,,,,,,,,,,,,,,,,,,,,,,,,,,
,,,,,,,,,,,,,,,,,,23,2022-02-12_13h18.17.624,lexical_decision_task_DD_L4,2021.2.3,MacIntel,60.0024001,,,,,,,,,,,0.6168,1,,,,,,,,,,,,,,m,1,0.6168,,,,,,,,0.799982639,-0.012229445,0,0,0,space,0,83,83,65,1,SPINE,LB,old,m,./images/SPINELB.png,4.3181,,,,,,,,,,,,,,,,,,,,,,,,,,,,,,,,,,
,,,,,,,,,,,,,,,,,,23,2022-02-12_13h18.17.624,lexical_decision_task_DD_L4,2021.2.3,MacIntel,60.0024001,,,,,,,,,,,0.6988,1,,,,,,,,,,,,,,m,1,0.6988,,,,,,,,0.799982639,-0.012229445,0,0,0,,0,84,84,16,1,GRAPE,HB,old,m,./images/GRAPEHB.png,,,,,,,,,,,,,,,,,,,,,,,,,,,,,,,,,,,
,,,,,,,,,,,,,,,,,,23,2022-02-12_13h18.17.624,lexical_decision_task_DD_L4,2021.2.3,MacIntel,60.0024001,,,,,,,,,,,0.5472,1,,,,,,,,,,,,,,m,1,0.5472,,,,,,,,0.799982639,-0.012229445,0,0,0,,0,85,85,27,1,BUTTER,C,old,m,./images/BUTTER.png,,,,,,,,,,,,,,,,,,,,,,,,,,,,,,,,,,,
,,,,,,,,,,,,,,,,,,23,2022-02-12_13h18.17.624,lexical_decision_task_DD_L4,2021.2.3,MacIntel,60.0024001,,,,,,,,,,,0.8518,1,,,,,,,,,,,,,,m,1,0.8518,,,,,,,,0.799982639,-0.012229445,0,0,0,,0,86,86,19,1,DONKEY,HB,old,m,./images/DONKEYHB.png,,,,,,,,,,,,,,,,,,,,,,,,,,,,,,,,,,,
,,,,,,,,,,,,,,,,,,23,2022-02-12_13h18.17.624,lexical_decision_task_DD_L4,2021.2.3,MacIntel,60.0024001,,,,,,,,,,,1.2969,1,,,,,,,,,,,,,,z,1,1.2969,,,,,,,,0.799982639,-0.012229445,0,0,0,,0,87,87,151,1,TINKY,HB,old,z,./images/TINKYHB.png,,,,,,,,,,,,,,,,,,,,,,,,,,,,,,,,,,,
,,,,,,,,,,,,,,,,,,23,2022-02-12_13h18.17.624,lexical_decision_task_DD_L4,2021.2.3,MacIntel,60.0024001,,,,,,,,,,,0.6493,1,,,,,,,,,,,,,,z,1,0.6493,,,,,,,,0.799982639,-0.012229445,0,0,0,,0,88,88,123,1,SEDGE,C,old,z,./images/SEDGE.png,,,,,,,,,,,,,,,,,,,,,,,,,,,,,,,,,,,
,,,,,,,,,,,,,,,,,,23,2022-02-12_13h18.17.624,lexical_decision_task_DD_L4,2021.2.3,MacIntel,60.0024001,,,,,,,,,,,0.6844,1,,,,,,,,,,,,,,m,1,0.6844,,,,,,,,0.799982639,-0.012229445,0,0,0,,0,89,89,5,1,BAMBOO,LB,old,m,./images/BAMBOOLB.png,,,,,,,,,,,,,,,,,,,,,,,,,,,,,,,,,,,
,,,,,,,,,,,,,,,,,,23,2022-02-12_13h18.17.624,lexical_decision_task_DD_L4,2021.2.3,MacIntel,60.0024001,,,,,,,,,,,1.3013,1,,,,,,,,,,,,,,m,1,1.3013,,,,,,,,0.799982639,-0.012229445,0,0,0,,0,90,90,28,1,CASINO,HB,old,m,./images/CASINOHB.png,,,,,,,,,,,,,,,,,,,,,,,,,,,,,,,,,,,
,,,,,,,,,,,,,,,,,,23,2022-02-12_13h18.17.624,lexical_decision_task_DD_L4,2021.2.3,MacIntel,60.0024001,,,,,,,,,,,0.8666,1,,,,,,,,,,,,,,m,1,0.8666,,,,,,,,0.799982639,-0.012229445,0,0,0,,0,91,91,14,1,FENCE,LB,old,m,./images/FENCELB.png,,,,,,,,,,,,,,,,,,,,,,,,,,,,,,,,,,,
,,,,,,,,,,,,,,,,,,23,2022-02-12_13h18.17.624,lexical_decision_task_DD_L4,2021.2.3,MacIntel,60.0024001,,,,,,,,,,,1.1494,1,,,,,,,,,,,,,,z,1,1.1494,,,,,,,,0.799982639,-0.012229445,0,0,0,,0,92,92,139,1,BLEAR,HB,old,z,./images/BLEARHB.png,,,,,,,,,,,,,,,,,,,,,,,,,,,,,,,,,,,
,,,,,,,,,,,,,,,,,,23,2022-02-12_13h18.17.624,lexical_decision_task_DD_L4,2021.2.3,MacIntel,60.0024001,,,,,,,,,,,0.7164,1,,,,,,,,,,,,,,z,1,0.7164,,,,,,,,0.799982639,-0.012229445,0,0,0,,0,93,93,116,1,BALGY,LB,old,z,./images/BALGYLB.png,,,,,,,,,,,,,,,,,,,,,,,,,,,,,,,,,,,
,,,,,,,,,,,,,,,,,,23,2022-02-12_13h18.17.624,lexical_decision_task_DD_L4,2021.2.3,MacIntel,60.0024001,,,,,,,,,,,0.6199,1,,,,,,,,,,,,,,z,1,0.6199,,,,,,,,0.799982639,-0.012229445,0,0,0,,0,94,94,102,1,DULLE,C,old,z,./images/DULLE.png,,,,,,,,,,,,,,,,,,,,,,,,,,,,,,,,,,,
,,,,,,,,,,,,,,,,,,23,2022-02-12_13h18.17.624,lexical_decision_task_DD_L4,2021.2.3,MacIntel,60.0024001,,,,,,,,,,,1.7217,1,,,,,,,,,,,,,,m,1,1.7217,,,,,,,,0.799982639,-0.012229445,0,0,0,,0,95,95,64,1,BRIDE,HB,old,m,./images/BRIDEHB.png,,,,,,,,,,,,,,,,,,,,,,,,,,,,,,,,,,,
,,,,,,,,,,,,,,,,,,23,2022-02-12_13h18.17.624,lexical_decision_task_DD_L4,2021.2.3,MacIntel,60.0024001,,,,,,,,,,,0.7794,1,,,,,,,,,,,,,,z,1,0.7794,,,,,,,,0.799982639,-0.012229445,0,0,0,,0,96,96,90,1,NEAST,C,old,z,./images/NEAST.png,,,,,,,,,,,,,,,,,,,,,,,,,,,,,,,,,,,
,,,,,,,,,,,,,,,,,,23,2022-02-12_13h18.17.624,lexical_decision_task_DD_L4,2021.2.3,MacIntel,60.0024001,,,,,,,,,,,0.5352,1,,,,,,,,,,,,,,m,1,0.5352,,,,,,,,0.799982639,-0.012229445,0,0,0,,0,97,97,80,1,PLANET,LB,old,m,./images/PLANETLB.png,,,,,,,,,,,,,,,,,,,,,,,,,,,,,,,,,,,
,,,,,,,,,,,,,,,,,,23,2022-02-12_13h18.17.624,lexical_decision_task_DD_L4,2021.2.3,MacIntel,60.0024001,,,,,,,,,,,0.8263,1,,,,,,,,,,,,,,z,1,0.8263,,,,,,,,0.799982639,-0.012229445,0,0,0,,0,98,98,162,1,LEICH,C,old,z,./images/LEICH.png,,,,,,,,,,,,,,,,,,,,,,,,,,,,,,,,,,,
,,,,,,,,,,,,,,,,,,23,2022-02-12_13h18.17.624,lexical_decision_task_DD_L4,2021.2.3,MacIntel,60.0024001,,,,,,,,,,,1.6831,0,,,,,,,,,,,,,,m,0,1.6831,,,,,,,,0.799982639,-0.012229445,0,0,0,,0,99,99,109,1,BURGE,HB,old,z,./images/BURGEHB.png,,,,,,,,,,,,,,,,,,,,,,,,,,,,,,,,,,,
,,,,,,,,,,,,,,,,,,23,2022-02-12_13h18.17.624,lexical_decision_task_DD_L4,2021.2.3,MacIntel,60.0024001,,,,,,,,,,,0.6608,1,,,,,,,,,,,,,,m,1,0.6608,,,,,,,,0.799982639,-0.012229445,0,0,0,,0,100,100,8,1,CLIFF,LB,old,m,./images/CLIFFLB.png,,,,,,,,,,,,,,,,,,,,,,,,,,,,,,,,,,,
,,,,,,,,,,,,,,,,,,23,2022-02-12_13h18.17.624,lexical_decision_task_DD_L4,2021.2.3,MacIntel,60.0024001,,,,,,,,,,,0.65,1,,,,,,,,,,,,,,m,1,0.65,,,,,,,,0.799982639,-0.012229445,0,0,0,,0,101,101,15,1,COLLAR,C,old,m,./images/COLLAR.png,,,,,,,,,,,,,,,,,,,,,,,,,,,,,,,,,,,
,,,,,,,,,,,,,,,,,,23,2022-02-12_13h18.17.624,lexical_decision_task_DD_L4,2021.2.3,MacIntel,60.0024001,,,,,,,,,,,0.6458,1,,,,,,,,,,,,,,m,1,0.6458,,,,,,,,0.799982639,-0.012229445,0,0,0,,0,102,102,35,1,LLAMA,LB,old,m,./images/LLAMALB.png,,,,,,,,,,,,,,,,,,,,,,,,,,,,,,,,,,,
,,,,,,,,,,,,,,,,,,23,2022-02-12_13h18.17.624,lexical_decision_task_DD_L4,2021.2.3,MacIntel,60.0024001,,,,,,,,,,,0.7831,1,,,,,,,,,,,,,,m,1,0.7831,,,,,,,,0.799982639,-0.012229445,0,0,0,,0,103,103,22,1,CLOWN,HB,old,m,./images/CLOWNHB.png,,,,,,,,,,,,,,,,,,,,,,,,,,,,,,,,,,,
,,,,,,,,,,,,,,,,,,23,2022-02-12_13h18.17.624,lexical_decision_task_DD_L4,2021.2.3,MacIntel,60.0024001,,,,,,,,,,,0.6531,1,,,,,,,,,,,,,,z,1,0.6531,,,,,,,,0.799982639,-0.012229445,0,0,0,,0,104,104,156,1,HIXES,C,old,z,./images/HIXES.png,,,,,,,,,,,,,,,,,,,,,,,,,,,,,,,,,,,
,,,,,,,,,,,,,,,,,,23,2022-02-12_13h18.17.624,lexical_decision_task_DD_L4,2021.2.3,MacIntel,60.0024001,,,,,,,,,,,1.0822,1,,,,,,,,,,,,,,z,1,1.0822,,,,,,,,0.799982639,-0.012229445,0,0,0,,0,105,105,149,1,VEASE,LB,old,z,./images/VEASELB.png,,,,,,,,,,,,,,,,,,,,,,,,,,,,,,,,,,,
,,,,,,,,,,,,,,,,,,23,2022-02-12_13h18.17.624,lexical_decision_task_DD_L4,2021.2.3,MacIntel,60.0024001,,,,,,,,,,,0.733,1,,,,,,,,,,,,,,m,1,0.733,,,,,,,,0.799982639,-0.012229445,0,0,0,,0,106,106,32,1,HOCKEY,LB,old,m,./images/HOCKEYLB.png,,,,,,,,,,,,,,,,,,,,,,,,,,,,,,,,,,,
,,,,,,,,,,,,,,,,,,23,2022-02-12_13h18.17.624,lexical_decision_task_DD_L4,2021.2.3,MacIntel,60.0024001,,,,,,,,,,,0.6464,1,,,,,,,,,,,,,,m,1,0.6464,,,,,,,,0.799982639,-0.012229445,0,0,0,,0,107,107,24,1,FLESH,C,old,m,./images/FLESH.png,,,,,,,,,,,,,,,,,,,,,,,,,,,,,,,,,,,
,,,,,,,,,,,,,,,,,,23,2022-02-12_13h18.17.624,lexical_decision_task_DD_L4,2021.2.3,MacIntel,60.0024001,,,,,,,,,,,0.9504,1,,,,,,,,,,,,,,m,1,0.9504,,,,,,,,0.799982639,-0.012229445,0,0,0,,0,108,108,46,1,MUMMY,HB,old,m,./images/MUMMYHB.png,,,,,,,,,,,,,,,,,,,,,,,,,,,,,,,,,,,
,,,,,,,,,,,,,,,,,,23,2022-02-12_13h18.17.624,lexical_decision_task_DD_L4,2021.2.3,MacIntel,60.0024001,,,,,,,,,,,0.6683,1,,,,,,,,,,,,,,m,1,0.6683,,,,,,,,0.799982639,-0.012229445,0,0,0,,0,109,109,53,1,POSTER,LB,old,m,./images/POSTERLB.png,,,,,,,,,,,,,,,,,,,,,,,,,,,,,,,,,,,
,,,,,,,,,,,,,,,,,,23,2022-02-12_13h18.17.624,lexical_decision_task_DD_L4,2021.2.3,MacIntel,60.0024001,,,,,,,,,,,0.5987,1,,,,,,,,,,,,,,z,1,0.5987,,,,,,,,0.799982639,-0.012229445,0,0,0,,0,110,110,84,1,HAXES,C,old,z,./images/HAXES.png,,,,,,,,,,,,,,,,,,,,,,,,,,,,,,,,,,,
,,,,,,,,,,,,,,,,,,23,2022-02-12_13h18.17.624,lexical_decision_task_DD_L4,2021.2.3,MacIntel,60.0024001,,,,,,,,,,,1.3175,1,,,,,,,,,,,,,,z,1,1.3175,,,,,,,,0.799982639,-0.012229445,0,0,0,,0,111,111,115,1,MAWNS,HB,old,z,./images/MAWNSHB.png,,,,,,,,,,,,,,,,,,,,,,,,,,,,,,,,,,,
,,,,,,,,,,,,,,,,,,23,2022-02-12_13h18.17.624,lexical_decision_task_DD_L4,2021.2.3,MacIntel,60.0024001,,,,,,,,,,,0.7171,1,,,,,,,,,,,,,,m,1,0.7171,,,,,,,,0.799982639,-0.012229445,0,0,0,,0,112,112,26,1,CLOUD,LB,old,m,./images/CLOUDLB.png,,,,,,,,,,,,,,,,,,,,,,,,,,,,,,,,,,,
,,,,,,,,,,,,,,,,,,23,2022-02-12_13h18.17.624,lexical_decision_task_DD_L4,2021.2.3,MacIntel,60.0024001,,,,,,,,,,,1.1669,1,,,,,,,,,,,,,,z,1,1.1669,,,,,,,,0.799982639,-0.012229445,0,0,0,,0,113,113,103,1,FLORT,HB,old,z,./images/FLORTHB.png,,,,,,,,,,,,,,,,,,,,,,,,,,,,,,,,,,,
,,,,,,,,,,,,,,,,,,23,2022-02-12_13h18.17.624,lexical_decision_task_DD_L4,2021.2.3,MacIntel,60.0024001,,,,,,,,,,,1.185,1,,,,,,,,,,,,,,z,1,1.185,,,,,,,,0.799982639,-0.012229445,0,0,0,,0,114,114,88,1,GLUSH,HB,old,z,./images/GLUSHHB.png,,,,,,,,,,,,,,,,,,,,,,,,,,,,,,,,,,,
,,,,,,,,,,,,,,,,,,23,2022-02-12_13h18.17.624,lexical_decision_task_DD_L4,2021.2.3,MacIntel,60.0024001,,,,,,,,,,,1.0668,1,,,,,,,,,,,,,,m,1,1.0668,,,,,,,,0.799982639,-0.012229445,0,0,0,,0,115,115,38,1,ENGINE,LB,old,m,./images/ENGINELB.png,,,,,,,,,,,,,,,,,,,,,,,,,,,,,,,,,,,
,,,,,,,,,,,,,,,,,,23,2022-02-12_13h18.17.624,lexical_decision_task_DD_L4,2021.2.3,MacIntel,60.0024001,,,,,,,,,,,0.7145,1,,,,,,,,,,,,,,z,1,0.7145,,,,,,,,0.799982639,-0.012229445,0,0,0,,0,116,116,153,1,CLUPS,C,old,z,./images/CLUPS.png,,,,,,,,,,,,,,,,,,,,,,,,,,,,,,,,,,,
,,,,,,,,,,,,,,,,,,23,2022-02-12_13h18.17.624,lexical_decision_task_DD_L4,2021.2.3,MacIntel,60.0024001,,,,,,,,,,,0.7328,1,,,,,,,,,,,,,,z,1,0.7328,,,,,,,,0.799982639,-0.012229445,0,0,0,,0,117,117,128,1,GRIFT,LB,old,z,./images/GRIFTLB.png,,,,,,,,,,,,,,,,,,,,,,,,,,,,,,,,,,,
,,,,,,,,,,,,,,,,,,23,2022-02-12_13h18.17.624,lexical_decision_task_DD_L4,2021.2.3,MacIntel,60.0024001,,,,,,,,,,,1.1307,0,,,,,,,,,,,,,,z,0,1.1307,,,,,,,,0.799982639,-0.012229445,0,0,0,,0,118,118,57,1,FERRY,C,old,m,./images/FERRY.png,,,,,,,,,,,,,,,,,,,,,,,,,,,,,,,,,,,
,,,,,,,,,,,,,,,,,,23,2022-02-12_13h18.17.624,lexical_decision_task_DD_L4,2021.2.3,MacIntel,60.0024001,,,,,,,,,,,0.634,1,,,,,,,,,,,,,,m,1,0.634,,,,,,,,0.799982639,-0.012229445,0,0,0,,0,119,119,74,1,JUMPER,LB,old,m,./images/JUMPERLB.png,,,,,,,,,,,,,,,,,,,,,,,,,,,,,,,,,,,
,,,,,,,,,,,,,,,,,,23,2022-02-12_13h18.17.624,lexical_decision_task_DD_L4,2021.2.3,MacIntel,60.0024001,,,,,,,,,,,0.5797,1,,,,,,,,,,,,,,m,1,0.5797,,,,,,,,0.799982639,-0.012229445,0,0,0,,0,120,120,21,1,DANCER,C,old,m,./images/DANCER.png,,,,,,,,,,,,,,,,,,,,,,,,,,,,,,,,,,,
,,,,,,,,,,,,,,,,,,23,2022-02-12_13h18.17.624,lexical_decision_task_DD_L4,2021.2.3,MacIntel,60.0024001,,,,,,,,,,,0.8648,1,,,,,,,,,,,,,,z,1,0.8648,,,,,,,,0.799982639,-0.012229445,0,0,0,,0,121,121,141,1,PLEET,C,old,z,./images/PLEET.png,,,,,,,,,,,,,,,,,,,,,,,,,,,,,,,,,,,
,,,,,,,,,,,,,,,,,,23,2022-02-12_13h18.17.624,lexical_decision_task_DD_L4,2021.2.3,MacIntel,60.0024001,,,,,,,,,,,0.5967,1,,,,,,,,,,,,,,m,1,0.5967,,,,,,,,0.799982639,-0.012229445,0,0,0,,0,122,122,75,1,HAMMER,C,old,m,./images/HAMMER.png,,,,,,,,,,,,,,,,,,,,,,,,,,,,,,,,,,,
,,,,,,,,,,,,,,,,,,23,2022-02-12_13h18.17.624,lexical_decision_task_DD_L4,2021.2.3,MacIntel,60.0024001,,,,,,,,,,,0.7144,1,,,,,,,,,,,,,,m,1,0.7144,,,,,,,,0.799982639,-0.012229445,0,0,0,,0,123,123,78,1,BROOM,C,old,m,./images/BROOM.png,,,,,,,,,,,,,,,,,,,,,,,,,,,,,,,,,,,
,,,,,,,,,,,,,,,,,,23,2022-02-12_13h18.17.624,lexical_decision_task_DD_L4,2021.2.3,MacIntel,60.0024001,,,,,,,,,,,0.968,1,,,,,,,,,,,,,,m,1,0.968,,,,,,,,0.799982639,-0.012229445,0,0,0,,0,124,124,49,1,BISHOP,HB,old,m,./images/BISHOPHB.png,,,,,,,,,,,,,,,,,,,,,,,,,,,,,,,,,,,
,,,,,,,,,,,,,,,,,,23,2022-02-12_13h18.17.624,lexical_decision_task_DD_L4,2021.2.3,MacIntel,60.0024001,,,,,,,,,,,0.5713,1,,,,,,,,,,,,,,m,1,0.5713,,,,,,,,0.799982639,-0.012229445,0,0,0,space,0,125,125,41,1,STREAM,LB,old,m,./images/STREAMLB.png,3.6867,,,,,,,,,,,,,,,,,,,,,,,,,,,,,,,,,,
,,,,,,,,,,,,,,,,,,23,2022-02-12_13h18.17.624,lexical_decision_task_DD_L4,2021.2.3,MacIntel,60.0024001,,,,,,,,,,,1.231,1,,,,,,,,,,,,,,z,1,1.231,,,,,,,,0.799982639,-0.012229445,0,0,0,,0,126,126,121,1,CEERS,HB,old,z,./images/CEERSHB.png,,,,,,,,,,,,,,,,,,,,,,,,,,,,,,,,,,,
,,,,,,,,,,,,,,,,,,23,2022-02-12_13h18.17.624,lexical_decision_task_DD_L4,2021.2.3,MacIntel,60.0024001,,,,,,,,,,,1.1861,1,,,,,,,,,,,,,,z,1,1.1861,,,,,,,,0.799982639,-0.012229445,0,0,0,,0,127,127,136,1,WERVE,HB,old,z,./images/WERVEHB.png,,,,,,,,,,,,,,,,,,,,,,,,,,,,,,,,,,,
,,,,,,,,,,,,,,,,,,23,2022-02-12_13h18.17.624,lexical_decision_task_DD_L4,2021.2.3,MacIntel,60.0024001,,,,,,,,,,,0.6149,1,,,,,,,,,,,,,,m,1,0.6149,,,,,,,,0.799982639,-0.012229445,0,0,0,,0,128,128,72,1,FLASK,C,old,m,./images/FLASK.png,,,,,,,,,,,,,,,,,,,,,,,,,,,,,,,,,,,
,,,,,,,,,,,,,,,,,,23,2022-02-12_13h18.17.624,lexical_decision_task_DD_L4,2021.2.3,MacIntel,60.0024001,,,,,,,,,,,0.5828,1,,,,,,,,,,,,,,m,1,0.5828,,,,,,,,0.799982639,-0.012229445,0,0,0,,0,129,129,47,1,LAGOON,LB,old,m,./images/LAGOONLB.png,,,,,,,,,,,,,,,,,,,,,,,,,,,,,,,,,,,
,,,,,,,,,,,,,,,,,,23,2022-02-12_13h18.17.624,lexical_decision_task_DD_L4,2021.2.3,MacIntel,60.0024001,,,,,,,,,,,0.4992,1,,,,,,,,,,,,,,m,1,0.4992,,,,,,,,0.799982639,-0.012229445,0,0,0,,0,130,130,59,1,BRUSH,LB,old,m,./images/BRUSHLB.png,,,,,,,,,,,,,,,,,,,,,,,,,,,,,,,,,,,
,,,,,,,,,,,,,,,,,,23,2022-02-12_13h18.17.624,lexical_decision_task_DD_L4,2021.2.3,MacIntel,60.0024001,,,,,,,,,,,0.5209,1,,,,,,,,,,,,,,m,1,0.5209,,,,,,,,0.799982639,-0.012229445,0,0,0,,0,131,131,9,1,DIVER,C,old,m,./images/DIVER.png,,,,,,,,,,,,,,,,,,,,,,,,,,,,,,,,,,,
,,,,,,,,,,,,,,,,,,23,2022-02-12_13h18.17.624,lexical_decision_task_DD_L4,2021.2.3,MacIntel,60.0024001,,,,,,,,,,,0.6497,1,,,,,,,,,,,,,,z,1,0.6497,,,,,,,,0.799982639,-0.012229445,0,0,0,,0,132,132,95,1,HANTY,LB,old,z,./images/HANTYLB.png,,,,,,,,,,,,,,,,,,,,,,,,,,,,,,,,,,,
,,,,,,,,,,,,,,,,,,23,2022-02-12_13h18.17.624,lexical_decision_task_DD_L4,2021.2.3,MacIntel,60.0024001,,,,,,,,,,,1.0826,1,,,,,,,,,,,,,,z,1,1.0826,,,,,,,,0.799982639,-0.012229445,0,0,0,,0,133,133,163,1,GAMBA,HB,old,z,./images/GAMBAHB.png,,,,,,,,,,,,,,,,,,,,,,,,,,,,,,,,,,,
,,,,,,,,,,,,,,,,,,23,2022-02-12_13h18.17.624,lexical_decision_task_DD_L4,2021.2.3,MacIntel,60.0024001,,,,,,,,,,,0.8791,1,,,,,,,,,,,,,,z,1,0.8791,,,,,,,,0.799982639,-0.012229445,0,0,0,,0,134,134,87,1,TRING,C,old,z,./images/TRING.png,,,,,,,,,,,,,,,,,,,,,,,,,,,,,,,,,,,
,,,,,,,,,,,,,,,,,,23,2022-02-12_13h18.17.624,lexical_decision_task_DD_L4,2021.2.3,MacIntel,60.0024001,,,,,,,,,,,0.9493,1,,,,,,,,,,,,,,z,1,0.9493,,,,,,,,0.799982639,-0.012229445,0,0,0,,0,135,135,124,1,TUNCH,HB,old,z,./images/TUNCHHB.png,,,,,,,,,,,,,,,,,,,,,,,,,,,,,,,,,,,
,,,,,,,,,,,,,,,,,,23,2022-02-12_13h18.17.624,lexical_decision_task_DD_L4,2021.2.3,MacIntel,60.0024001,,,,,,,,,,,0.8168,1,,,,,,,,,,,,,,m,1,0.8168,,,,,,,,0.799982639,-0.012229445,0,0,0,,0,136,136,67,1,POKER,HB,old,m,./images/POKERHB.png,,,,,,,,,,,,,,,,,,,,,,,,,,,,,,,,,,,
,,,,,,,,,,,,,,,,,,23,2022-02-12_13h18.17.624,lexical_decision_task_DD_L4,2021.2.3,MacIntel,60.0024001,,,,,,,,,,,0.6217,1,,,,,,,,,,,,,,m,1,0.6217,,,,,,,,0.799982639,-0.012229445,0,0,0,,0,137,137,18,1,PARCEL,C,old,m,./images/PARCEL.png,,,,,,,,,,,,,,,,,,,,,,,,,,,,,,,,,,,
,,,,,,,,,,,,,,,,,,23,2022-02-12_13h18.17.624,lexical_decision_task_DD_L4,2021.2.3,MacIntel,60.0024001,,,,,,,,,,,0.7344,1,,,,,,,,,,,,,,z,1,0.7344,,,,,,,,0.799982639,-0.012229445,0,0,0,,0,138,138,92,1,PAIMS,LB,old,z,./images/PAIMSLB.png,,,,,,,,,,,,,,,,,,,,,,,,,,,,,,,,,,,
,,,,,,,,,,,,,,,,,,23,2022-02-12_13h18.17.624,lexical_decision_task_DD_L4,2021.2.3,MacIntel,60.0024001,,,,,,,,,,,1.4512,1,,,,,,,,,,,,,,z,1,1.4512,,,,,,,,0.799982639,-0.012229445,0,0,0,,0,139,139,130,1,CRILL,HB,old,z,./images/CRILLHB.png,,,,,,,,,,,,,,,,,,,,,,,,,,,,,,,,,,,
,,,,,,,,,,,,,,,,,,23,2022-02-12_13h18.17.624,lexical_decision_task_DD_L4,2021.2.3,MacIntel,60.0024001,,,,,,,,,,,0.6662,1,,,,,,,,,,,,,,m,1,0.6662,,,,,,,,0.799982639,-0.012229445,0,0,0,,0,140,140,7,1,WAGON,HB,old,m,./images/WAGONHB.png,,,,,,,,,,,,,,,,,,,,,,,,,,,,,,,,,,,
,,,,,,,,,,,,,,,,,,23,2022-02-12_13h18.17.624,lexical_decision_task_DD_L4,2021.2.3,MacIntel,60.0024001,,,,,,,,,,,0.5647,1,,,,,,,,,,,,,,m,1,0.5647,,,,,,,,0.799982639,-0.012229445,0,0,0,,0,141,141,17,1,PARADE,LB,old,m,./images/PARADELB.png,,,,,,,,,,,,,,,,,,,,,,,,,,,,,,,,,,,
,,,,,,,,,,,,,,,,,,23,2022-02-12_13h18.17.624,lexical_decision_task_DD_L4,2021.2.3,MacIntel,60.0024001,,,,,,,,,,,0.9513,0,,,,,,,,,,,,,,m,0,0.9513,,,,,,,,0.799982639,-0.012229445,0,0,0,,0,142,142,110,1,CRUNK,LB,old,z,./images/CRUNKLB.png,,,,,,,,,,,,,,,,,,,,,,,,,,,,,,,,,,,
,,,,,,,,,,,,,,,,,,23,2022-02-12_13h18.17.624,lexical_decision_task_DD_L4,2021.2.3,MacIntel,60.0024001,,,,,,,,,,,0.7327,1,,,,,,,,,,,,,,m,1,0.7327,,,,,,,,0.799982639,-0.012229445,0,0,0,,0,143,143,6,1,STAIN,C,old,m,./images/STAIN.png,,,,,,,,,,,,,,,,,,,,,,,,,,,,,,,,,,,
,,,,,,,,,,,,,,,,,,23,2022-02-12_13h18.17.624,lexical_decision_task_DD_L4,2021.2.3,MacIntel,60.0024001,,,,,,,,,,,0.9652,1,,,,,,,,,,,,,,z,1,0.9652,,,,,,,,0.799982639,-0.012229445,0,0,0,,0,144,144,157,1,INLER,HB,old,z,./images/INLERHB.png,,,,,,,,,,,,,,,,,,,,,,,,,,,,,,,,,,,
,,,,,,,,,,,,,,,,,,23,2022-02-12_13h18.17.624,lexical_decision_task_DD_L4,2021.2.3,MacIntel,60.0024001,,,,,,,,,,,0.6138,1,,,,,,,,,,,,,,m,1,0.6138,,,,,,,,0.799982639,-0.012229445,0,0,0,,0,145,145,51,1,SAUCE,C,old,m,./images/SAUCE.png,,,,,,,,,,,,,,,,,,,,,,,,,,,,,,,,,,,
,,,,,,,,,,,,,,,,,,23,2022-02-12_13h18.17.624,lexical_decision_task_DD_L4,2021.2.3,MacIntel,60.0024001,,,,,,,,,,,0.5659,1,,,,,,,,,,,,,,m,1,0.5659,,,,,,,,0.799982639,-0.012229445,0,0,0,,0,146,146,2,1,STOVE,LB,old,m,./images/STOVELB.png,,,,,,,,,,,,,,,,,,,,,,,,,,,,,,,,,,,
,,,,,,,,,,,,,,,,,,23,2022-02-12_13h18.17.624,lexical_decision_task_DD_L4,2021.2.3,MacIntel,60.0024001,,,,,,,,,,,0.7436,1,,,,,,,,,,,,,,z,1,0.7436,,,,,,,,0.799982639,-0.012229445,0,0,0,,0,147,147,113,1,LINEW,LB,old,z,./images/LINEWLB.png,,,,,,,,,,,,,,,,,,,,,,,,,,,,,,,,,,,
,,,,,,,,,,,,,,,,,,23,2022-02-12_13h18.17.624,lexical_decision_task_DD_L4,2021.2.3,MacIntel,60.0024001,,,,,,,,,,,0.731,1,,,,,,,,,,,,,,m,1,0.731,,,,,,,,0.799982639,-0.012229445,0,0,0,,0,148,148,34,1,RAZOR,HB,old,m,./images/RAZORHB.png,,,,,,,,,,,,,,,,,,,,,,,,,,,,,,,,,,,
,,,,,,,,,,,,,,,,,,23,2022-02-12_13h18.17.624,lexical_decision_task_DD_L4,2021.2.3,MacIntel,60.0024001,,,,,,,,,,,0.8337,0,,,,,,,,,,,,,,m,0,0.8337,,,,,,,,0.799982639,-0.012229445,0,0,0,,0,149,149,142,1,PLASK,HB,old,z,./images/PLASKHB.png,,,,,,,,,,,,,,,,,,,,,,,,,,,,,,,,,,,
,,,,,,,,,,,,,,,,,,23,2022-02-12_13h18.17.624,lexical_decision_task_DD_L4,2021.2.3,MacIntel,60.0024001,,,,,,,,,,,1.6995,0,,,,,,,,,,,,,,z,0,1.6995,,,,,,,,0.799982639,-0.012229445,0,0,0,,0,150,150,58,1,CANOE,HB,old,m,./images/CANOEHB.png,,,,,,,,,,,,,,,,,,,,,,,,,,,,,,,,,,,
,,,,,,,,,,,,,,,,,,23,2022-02-12_13h18.17.624,lexical_decision_task_DD_L4,2021.2.3,MacIntel,60.0024001,,,,,,,,,,,0.9642,1,,,,,,,,,,,,,,z,1,0.9642,,,,,,,,0.799982639,-0.012229445,0,0,0,,0,151,151,96,1,KEAMS,C,old,z,./images/KEAMS.png,,,,,,,,,,,,,,,,,,,,,,,,,,,,,,,,,,,
,,,,,,,,,,,,,,,,,,23,2022-02-12_13h18.17.624,lexical_decision_task_DD_L4,2021.2.3,MacIntel,60.0024001,,,,,,,,,,,1.1132,1,,,,,,,,,,,,,,z,1,1.1132,,,,,,,,0.799982639,-0.012229445,0,0,0,,0,152,152,99,1,BACKY,C,old,z,./images/BACKY.png,,,,,,,,,,,,,,,,,,,,,,,,,,,,,,,,,,,
,,,,,,,,,,,,,,,,,,23,2022-02-12_13h18.17.624,lexical_decision_task_DD_L4,2021.2.3,MacIntel,60.0024001,,,,,,,,,,,0.7328,1,,,,,,,,,,,,,,m,1,0.7328,,,,,,,,0.799982639,-0.012229445,0,0,0,,0,153,153,44,1,BASKET,LB,old,m,./images/BASKETLB.png,,,,,,,,,,,,,,,,,,,,,,,,,,,,,,,,,,,
,,,,,,,,,,,,,,,,,,23,2022-02-12_13h18.17.624,lexical_decision_task_DD_L4,2021.2.3,MacIntel,60.0024001,,,,,,,,,,,0.9007,1,,,,,,,,,,,,,,z,1,0.9007,,,,,,,,0.799982639,-0.012229445,0,0,0,,0,154,154,118,1,BAVEL,HB,old,z,./images/BAVELHB.png,,,,,,,,,,,,,,,,,,,,,,,,,,,,,,,,,,,
,,,,,,,,,,,,,,,,,,23,2022-02-12_13h18.17.624,lexical_decision_task_DD_L4,2021.2.3,MacIntel,60.0024001,,,,,,,,,,,0.7003,1,,,,,,,,,,,,,,z,1,0.7003,,,,,,,,0.799982639,-0.012229445,0,0,0,,0,155,155,104,1,GITTY,LB,old,z,./images/GITTYLB.png,,,,,,,,,,,,,,,,,,,,,,,,,,,,,,,,,,,
,,,,,,,,,,,,,,,,,,23,2022-02-12_13h18.17.624,lexical_decision_task_DD_L4,2021.2.3,MacIntel,60.0024001,,,,,,,,,,,1.1824,1,,,,,,,,,,,,,,z,1,1.1824,,,,,,,,0.799982639,-0.012229445,0,0,0,,0,156,156,101,1,GLEET,LB,old,z,./images/GLEETLB.png,,,,,,,,,,,,,,,,,,,,,,,,,,,,,,,,,,,
,,,,,,,,,,,,,,,,,,23,2022-02-12_13h18.17.624,lexical_decision_task_DD_L4,2021.2.3,MacIntel,60.0024001,,,,,,,,,,,1.0647,1,,,,,,,,,,,,,,z,1,1.0647,,,,,,,,0.799982639,-0.012229445,0,0,0,,0,157,157,138,1,PLICE,C,old,z,./images/PLICE.png,,,,,,,,,,,,,,,,,,,,,,,,,,,,,,,,,,,
,,,,,,,,,,,,,,,,,,23,2022-02-12_13h18.17.624,lexical_decision_task_DD_L4,2021.2.3,MacIntel,60.0024001,,,,,,,,,,,0.6468,1,,,,,,,,,,,,,,m,1,0.6468,,,,,,,,0.799982639,-0.012229445,0,0,0,,0,158,158,0,1,WALNUT,C,old,m,./images/WALNUT.png,,,,,,,,,,,,,,,,,,,,,,,,,,,,,,,,,,,
,,,,,,,,,,,,,,,,,,23,2022-02-12_13h18.17.624,lexical_decision_task_DD_L4,2021.2.3,MacIntel,60.0024001,,,,,,,,,,,1.2494,1,,,,,,,,,,,,,,z,1,1.2494,,,,,,,,0.799982639,-0.012229445,0,0,0,,0,159,159,154,1,THINT,HB,old,z,./images/THINTHB.png,,,,,,,,,,,,,,,,,,,,,,,,,,,,,,,,,,,
,,,,,,,,,,,,,,,,,,23,2022-02-12_13h18.17.624,lexical_decision_task_DD_L4,2021.2.3,MacIntel,60.0024001,,,,,,,,,,,0.7665,1,,,,,,,,,,,,,,z,1,0.7665,,,,,,,,0.799982639,-0.012229445,0,0,0,,0,160,160,86,1,AIFED,LB,old,z,./images/AIFEDLB.png,,,,,,,,,,,,,,,,,,,,,,,,,,,,,,,,,,,
,,,,,,,,,,,,,,,,,,23,2022-02-12_13h18.17.624,lexical_decision_task_DD_L4,2021.2.3,MacIntel,60.0024001,,,,,,,,,,,0.582,1,,,,,,,,,,,,,,m,1,0.582,,,,,,,,0.799982639,-0.012229445,0,0,0,,0,161,161,29,1,PISTOL,LB,old,m,./images/PISTOLLB.png,,,,,,,,,,,,,,,,,,,,,,,,,,,,,,,,,,,
,,,,,,,,,,,,,,,,,,23,2022-02-12_13h18.17.624,lexical_decision_task_DD_L4,2021.2.3,MacIntel,60.0024001,,,,,,,,,,,0.7319,1,,,,,,,,,,,,,,m,1,0.7319,,,,,,,,0.799982639,-0.012229445,0,0,0,,0,162,162,40,1,SNAKE,HB,old,m,./images/SNAKEHB.png,,,,,,,,,,,,,,,,,,,,,,,,,,,,,,,,,,,
,,,,,,,,,,,,,,,,,,23,2022-02-12_13h18.17.624,lexical_decision_task_DD_L4,2021.2.3,MacIntel,60.0024001,,,,,,,,,,,0.6302,1,,,,,,,,,,,,,,z,1,0.6302,,,,,,,,0.799982639,-0.012229445,0,0,0,,0,163,163,111,1,HOSSE,C,old,z,./images/HOSSE.png,,,,,,,,,,,,,,,,,,,,,,,,,,,,,,,,,,,
,,,,,,,,,,,,,,,,,,23,2022-02-12_13h18.17.624,lexical_decision_task_DD_L4,2021.2.3,MacIntel,60.0024001,,,,,,,,,,,0.75,1,,,,,,,,,,,,,,z,1,0.75,,,,,,,,0.799982639,-0.012229445,0,0,0,,0,164,164,134,1,TROSS,LB,old,z,./images/TROSSLB.png,,,,,,,,,,,,,,,,,,,,,,,,,,,,,,,,,,,
,,,,,,,,,,,,,,,,,,23,2022-02-12_13h18.17.624,lexical_decision_task_DD_L4,2021.2.3,MacIntel,60.0024001,,,,,,,,,,,0.7131,1,,,,,,,,,,,,,,m,1,0.7131,,,,,,,,0.799982639,-0.012229445,0,0,0,,0,165,165,12,1,BLOKE,C,old,m,./images/BLOKE.png,,,,,,,,,,,,,,,,,,,,,,,,,,,,,,,,,,,
,,,,,,,,,,,,,,,,,,23,2022-02-12_13h18.17.624,lexical_decision_task_DD_L4,2021.2.3,MacIntel,60.0024001,,,,,,,,,,,1.1522,1,,,,,,,,,,,,,,z,1,1.1522,,,,,,,,0.799982639,-0.012229445,0,0,0,,0,166,166,97,1,CHIDS,HB,old,z,./images/CHIDSHB.png,,,,,,,,,,,,,,,,,,,,,,,,,,,,,,,,,,,
,,,,,,,,,,,,,,,,,,23,2022-02-12_13h18.17.624,lexical_decision_task_DD_L4,2021.2.3,MacIntel,60.0024001,,,,,,,,,,,0.7991,1,,,,,,,,,,,,,,m,1,0.7991,,,,,,,,0.799982639,-0.012229445,0,0,0,,0,167,167,54,1,CHERRY,C,old,m,./images/CHERRY.png,,,,,,,,,,,,,,,,,,,,,,,,,,,,,,,,,,,
,,,,,,,,,,,,,,,,,,23,2022-02-12_13h18.17.624,lexical_decision_task_DD_L4,2021.2.3,MacIntel,60.0024001,,,,,,,,,,,,,,,,,,,,,,,,,,,,,,,,,,,,,,,,,,,,,,,,How likely will it be that you will recognize the words presented slighly blurred on a scale of 0 (not likely) to 100 (most likely)?,,,,,-0.000724759,-0.437649061,1,0,0,jol_adv,4,9.856,0,0,0,1,1,,,,,,,,,,,,,,,,,,,,,
,,,,,,,,,,,,,,,,,,23,2022-02-12_13h18.17.624,lexical_decision_task_DD_L4,2021.2.3,MacIntel,60.0024001,,,,,,,,,,,,,,,,,,,,,,,,,,,,,,,,,,,,,,,,,,,,,,,,How likely will it be that you will recognize the words presented very blurred on a scale of 0 (not likely) to 100 (most likely)?,,,,,,,,,,,3,10.3377,0,1,1,2,1,,,,,,,,,,,,,,,,,,,,,
,,,,,,,,,,,,,,,,,,23,2022-02-12_13h18.17.624,lexical_decision_task_DD_L4,2021.2.3,MacIntel,60.0024001,,,,,,,,,,,,,,,,,,,,,,,,,,,,,,,,,,,,,,,,,,,,,,,,How likely will it be that you will recognize the words presented clearly on a scale of 0 (not likely) to 100 (most likely)?,,,,,,,,,,,6,5.05,0,2,2,0,1,,,,,,,,,,,,,,,,,,,,,
space,21.2833,0.483317464,-0.199903632,0,0,0,,,,,,1,test,"In the next phase you will be presented with the words from the the first phase. Your job is to decide whether you remember seeing the word or not. If you remember seeing the word press ""old"" or type ""m"". If you do not remember seeing the word press ""new"" or type ""z"". Please press the space bar or click on continue to begin. ",,,,23,2022-02-12_13h18.17.624,lexical_decision_task_DD_L4,2021.2.3,MacIntel,60.0024001,,,,,,,,,,,,,,,,,,,,,,,,,,,,,,,,,,,,,,,,,,,,,,,,,,,,,,,,,,,,,,,,,,0,0,0,0,1,,,,,,,,,,,,,,,,
,,0.108059964,-0.379328139,1,0,0,,,,,,1,test,"In the next phase you will be presented with the words from the the first phase. Your job is to decide whether you remember seeing the word or not. If you remember seeing the word press ""old"" or type ""m"". If you do not remember seeing the word press ""new"" or type ""z"". Please press the space bar or click on continue to begin. ",,,,23,2022-02-12_13h18.17.624,lexical_decision_task_DD_L4,2021.2.3,MacIntel,60.0024001,,,,,,,,,,,,,,,,,,,,,,,,,,,,,,,,,,,,,,,,,,,,,,,,,,,,,,,,,,,,,,,,,,1,0,1,0,1,instr_done_button,,,,,,,,,,,,,,,
space,4.8092,0.799982639,-0.155626492,0,0,0,,,,,,1,test,"In the next phase you will be presented with the words from the the first phase. Your job is to decide whether you remember seeing the word or not. If you remember seeing the word press ""old"" or type ""m"". If you do not remember seeing the word press ""new"" or type ""z"". Please press the space bar or click on continue to begin. ",,,,23,2022-02-12_13h18.17.624,lexical_decision_task_DD_L4,2021.2.3,MacIntel,60.0024001,,,,,,,,,,,,,,,,,,,,,,,,,,,,,,,,,,,,,,,,,,,,,,,,,,,,,,,,,,,,,,,,,,2,0,2,0,1,,,,,,,,,,,,,,,,
space,0.5752,0.799982639,-0.155626492,0,0,0,,,,,,1,test,"In the next phase you will be presented with the words from the the first phase. Your job is to decide whether you remember seeing the word or not. If you remember seeing the word press ""old"" or type ""m"". If you do not remember seeing the word press ""new"" or type ""z"". Please press the space bar or click on continue to begin. ",,,,23,2022-02-12_13h18.17.624,lexical_decision_task_DD_L4,2021.2.3,MacIntel,60.0024001,,,,,,,,,,,,,,,,,,,,,,,,,,,,,,,,,,,,,,,,,,,,,,,,,,,,,,,,,,,,,,,,,,3,0,3,0,1,,,,,,,,,,,,,,,,
space,0.8867,0.799982639,-0.155626492,0,0,0,,,,,,1,test,"In the next phase you will be presented with the words from the the first phase. Your job is to decide whether you remember seeing the word or not. If you remember seeing the word press ""old"" or type ""m"". If you do not remember seeing the word press ""new"" or type ""z"". Please press the space bar or click on continue to begin. ",,,,23,2022-02-12_13h18.17.624,lexical_decision_task_DD_L4,2021.2.3,MacIntel,60.0024001,,,,,,,,,,,,,,,,,,,,,,,,,,,,,,,,,,,,,,,,,,,,,,,,,,,,,,,,,,,,,,,,,,4,0,4,0,1,,,,,,,,,,,,,,,,
,,,,,,,,,,,,,,,,,,23,2022-02-12_13h18.17.624,lexical_decision_task_DD_L4,2021.2.3,MacIntel,60.0024001,,,,,,,,,,,2.0024,1,,,,,,,,,,,,,,,,,,,,,,,,0.799982639,-0.155626492,0,0,0,,,,,,,GLOVE,HB,m,y,./images/GLOVEHB.png,,,,,,,,,,,,,,,,,,,,,m,1,2.0024,,,,,,,,0,0,0,73,1
,,,,,,,,,,,,,,,,,,23,2022-02-12_13h18.17.624,lexical_decision_task_DD_L4,2021.2.3,MacIntel,60.0024001,,,,,,,,,,,0.9997,1,,,,,,,,,,,,,,,,,,,,,,,,0.799982639,-0.155626492,0,0,0,,,,,,,STEAK,HB,m,y,./images/STEAKHB.png,,,,,,,,,,,,,,,,,,,,,m,1,0.9997,,,,,,,,0,1,1,31,1
,,,,,,,,,,,,,,,,,,23,2022-02-12_13h18.17.624,lexical_decision_task_DD_L4,2021.2.3,MacIntel,60.0024001,,,,,,,,,,,1.4332,1,,,,,,,,,,,,,,,,,,,,,,,,0.799982639,-0.155626492,0,0,0,,,,,,,CANDLE,HB,z,y,./images/CANDLEHB.png,,,,,,,,,,,,,,,,,,,,,z,1,1.4332,,,,,,,,0,2,2,145,1
,,,,,,,,,,,,,,,,,,23,2022-02-12_13h18.17.624,lexical_decision_task_DD_L4,2021.2.3,MacIntel,60.0024001,,,,,,,,,,,0.8,1,,,,,,,,,,,,,,,,,,,,,,,,0.799982639,-0.155626492,0,0,0,,,,,,,SAUNA,C,m,y,./images/SAUNA.png,,,,,,,,,,,,,,,,,,,,,m,1,0.8,,,,,,,,0,3,3,33,1
,,,,,,,,,,,,,,,,,,23,2022-02-12_13h18.17.624,lexical_decision_task_DD_L4,2021.2.3,MacIntel,60.0024001,,,,,,,,,,,0.7,1,,,,,,,,,,,,,,,,,,,,,,,,0.799982639,-0.155626492,0,0,0,,,,,,,BROOM,C,m,y,./images/BROOM.png,,,,,,,,,,,,,,,,,,,,,m,1,0.7,,,,,,,,0,4,4,78,1
,,,,,,,,,,,,,,,,,,23,2022-02-12_13h18.17.624,lexical_decision_task_DD_L4,2021.2.3,MacIntel,60.0024001,,,,,,,,,,,1.0163,1,,,,,,,,,,,,,,,,,,,,,,,,0.799982639,-0.155626492,0,0,0,,,,,,,URINE,HB,z,y,./images/URINEHB.png,,,,,,,,,,,,,,,,,,,,,z,1,1.0163,,,,,,,,0,5,5,154,1
,,,,,,,,,,,,,,,,,,23,2022-02-12_13h18.17.624,lexical_decision_task_DD_L4,2021.2.3,MacIntel,60.0024001,,,,,,,,,,,1.487,1,,,,,,,,,,,,,,,,,,,,,,,,0.799982639,-0.155626492,0,0,0,,,,,,,CARPET,LB,z,y,./images/CARPETLB.png,,,,,,,,,,,,,,,,,,,,,z,1,1.487,,,,,,,,0,6,6,137,1
,,,,,,,,,,,,,,,,,,23,2022-02-12_13h18.17.624,lexical_decision_task_DD_L4,2021.2.3,MacIntel,60.0024001,,,,,,,,,,,1.0195,1,,,,,,,,,,,,,,,,,,,,,,,,0.799982639,-0.155626492,0,0,0,,,,,,,BEARD,LB,z,y,./images/BEARDLB.png,,,,,,,,,,,,,,,,,,,,,z,1,1.0195,,,,,,,,0,7,7,86,1
,,,,,,,,,,,,,,,,,,23,2022-02-12_13h18.17.624,lexical_decision_task_DD_L4,2021.2.3,MacIntel,60.0024001,,,,,,,,,,,0.8711,1,,,,,,,,,,,,,,,,,,,,,,,,0.799982639,-0.155626492,0,0,0,,,,,,,FINGER,C,z,y,./images/FINGER.png,,,,,,,,,,,,,,,,,,,,,z,1,0.8711,,,,,,,,0,8,8,87,1
,,,,,,,,,,,,,,,,,,23,2022-02-12_13h18.17.624,lexical_decision_task_DD_L4,2021.2.3,MacIntel,60.0024001,,,,,,,,,,,0.8186,1,,,,,,,,,,,,,,,,,,,,,,,,0.799982639,-0.155626492,0,0,0,,,,,,,LITTER,C,z,y,./images/LITTER.png,,,,,,,,,,,,,,,,,,,,,z,1,0.8186,,,,,,,,0,9,9,162,1
,,,,,,,,,,,,,,,,,,23,2022-02-12_13h18.17.624,lexical_decision_task_DD_L4,2021.2.3,MacIntel,60.0024001,,,,,,,,,,,0.6506,1,,,,,,,,,,,,,,,,,,,,,,,,0.799982639,-0.155626492,0,0,0,,,,,,,FLASK,C,m,y,./images/FLASK.png,,,,,,,,,,,,,,,,,,,,,m,1,0.6506,,,,,,,,0,10,10,72,1
,,,,,,,,,,,,,,,,,,23,2022-02-12_13h18.17.624,lexical_decision_task_DD_L4,2021.2.3,MacIntel,60.0024001,,,,,,,,,,,0.8838,1,,,,,,,,,,,,,,,,,,,,,,,,0.799982639,-0.155626492,0,0,0,,,,,,,SHELF,C,z,y,./images/SHELF.png,,,,,,,,,,,,,,,,,,,,,z,1,0.8838,,,,,,,,0,11,11,123,1
,,,,,,,,,,,,,,,,,,23,2022-02-12_13h18.17.624,lexical_decision_task_DD_L4,2021.2.3,MacIntel,60.0024001,,,,,,,,,,,0.6208,1,,,,,,,,,,,,,,,,,,,,,,,,0.799982639,-0.155626492,0,0,0,,,,,,,BOXER,HB,m,y,./images/BOXERHB.png,,,,,,,,,,,,,,,,,,,,,m,1,0.6208,,,,,,,,0,12,12,4,1
,,,,,,,,,,,,,,,,,,23,2022-02-12_13h18.17.624,lexical_decision_task_DD_L4,2021.2.3,MacIntel,60.0024001,,,,,,,,,,,0.8838,1,,,,,,,,,,,,,,,,,,,,,,,,0.799982639,-0.155626492,0,0,0,,,,,,,SQUARE,C,z,y,./images/SQUARE.png,,,,,,,,,,,,,,,,,,,,,z,1,0.8838,,,,,,,,0,13,13,90,1
,,,,,,,,,,,,,,,,,,23,2022-02-12_13h18.17.624,lexical_decision_task_DD_L4,2021.2.3,MacIntel,60.0024001,,,,,,,,,,,1.4833,1,,,,,,,,,,,,,,,,,,,,,,,,0.799982639,-0.155626492,0,0,0,,,,,,,SHORE,C,z,y,./images/SHORE.png,,,,,,,,,,,,,,,,,,,,,z,1,1.4833,,,,,,,,0,14,14,96,1
,,,,,,,,,,,,,,,,,,23,2022-02-12_13h18.17.624,lexical_decision_task_DD_L4,2021.2.3,MacIntel,60.0024001,,,,,,,,,,,0.7331,1,,,,,,,,,,,,,,,,,,,,,,,,0.799982639,-0.155626492,0,0,0,,,,,,,FENCE,LB,m,y,./images/FENCELB.png,,,,,,,,,,,,,,,,,,,,,m,1,0.7331,,,,,,,,0,15,15,14,1
,,,,,,,,,,,,,,,,,,23,2022-02-12_13h18.17.624,lexical_decision_task_DD_L4,2021.2.3,MacIntel,60.0024001,,,,,,,,,,,1.3335,1,,,,,,,,,,,,,,,,,,,,,,,,0.799982639,-0.155626492,0,0,0,,,,,,,NOOSE,C,z,y,./images/NOOSE.png,,,,,,,,,,,,,,,,,,,,,z,1,1.3335,,,,,,,,0,16,16,156,1
,,,,,,,,,,,,,,,,,,23,2022-02-12_13h18.17.624,lexical_decision_task_DD_L4,2021.2.3,MacIntel,60.0024001,,,,,,,,,,,1.1338,1,,,,,,,,,,,,,,,,,,,,,,,,0.799982639,-0.155626492,0,0,0,,,,,,,BANNER,HB,z,y,./images/BANNERHB.png,,,,,,,,,,,,,,,,,,,,,z,1,1.1338,,,,,,,,0,17,17,136,1
,,,,,,,,,,,,,,,,,,23,2022-02-12_13h18.17.624,lexical_decision_task_DD_L4,2021.2.3,MacIntel,60.0024001,,,,,,,,,,,0.6341,1,,,,,,,,,,,,,,,,,,,,,,,,0.799982639,-0.155626492,0,0,0,,,,,,,STAIN,C,m,y,./images/STAIN.png,,,,,,,,,,,,,,,,,,,,,m,1,0.6341,,,,,,,,0,18,18,6,1
,,,,,,,,,,,,,,,,,,23,2022-02-12_13h18.17.624,lexical_decision_task_DD_L4,2021.2.3,MacIntel,60.0024001,,,,,,,,,,,0.6852,1,,,,,,,,,,,,,,,,,,,,,,,,0.799982639,-0.155626492,0,0,0,,,,,,,COLLAR,C,m,y,./images/COLLAR.png,,,,,,,,,,,,,,,,,,,,,m,1,0.6852,,,,,,,,0,19,19,15,1
,,,,,,,,,,,,,,,,,,23,2022-02-12_13h18.17.624,lexical_decision_task_DD_L4,2021.2.3,MacIntel,60.0024001,,,,,,,,,,,0.9005,1,,,,,,,,,,,,,,,,,,,,,,,,0.799982639,-0.155626492,0,0,0,,,,,,,CLOTH,LB,m,y,./images/CLOTHLB.png,,,,,,,,,,,,,,,,,,,,,m,1,0.9005,,,,,,,,0,20,20,23,1
,,,,,,,,,,,,,,,,,,23,2022-02-12_13h18.17.624,lexical_decision_task_DD_L4,2021.2.3,MacIntel,60.0024001,,,,,,,,,,,1.1372,1,,,,,,,,,,,,,,,,,,,,,,,,0.799982639,-0.155626492,0,0,0,,,,,,,MUFFIN,HB,z,y,./images/MUFFINHB.png,,,,,,,,,,,,,,,,,,,,,z,1,1.1372,,,,,,,,0,21,21,139,1
,,,,,,,,,,,,,,,,,,23,2022-02-12_13h18.17.624,lexical_decision_task_DD_L4,2021.2.3,MacIntel,60.0024001,,,,,,,,,,,0.7511,1,,,,,,,,,,,,,,,,,,,,,,,,0.799982639,-0.155626492,0,0,0,,,,,,,CASINO,HB,m,y,./images/CASINOHB.png,,,,,,,,,,,,,,,,,,,,,m,1,0.7511,,,,,,,,0,22,22,28,1
,,,,,,,,,,,,,,,,,,23,2022-02-12_13h18.17.624,lexical_decision_task_DD_L4,2021.2.3,MacIntel,60.0024001,,,,,,,,,,,0.706,1,,,,,,,,,,,,,,,,,,,,,,,,0.799982639,-0.155626492,0,0,0,,,,,,,TWINS,C,z,y,./images/TWINS.png,,,,,,,,,,,,,,,,,,,,,z,1,0.706,,,,,,,,0,23,23,144,1
,,,,,,,,,,,,,,,,,,23,2022-02-12_13h18.17.624,lexical_decision_task_DD_L4,2021.2.3,MacIntel,60.0024001,,,,,,,,,,,1.2347,1,,,,,,,,,,,,,,,,,,,,,,,,0.799982639,-0.155626492,0,0,0,,,,,,,PLANK,HB,z,y,./images/PLANKHB.png,,,,,,,,,,,,,,,,,,,,,z,1,1.2347,,,,,,,,0,24,24,85,1
,,,,,,,,,,,,,,,,,,23,2022-02-12_13h18.17.624,lexical_decision_task_DD_L4,2021.2.3,MacIntel,60.0024001,,,,,,,,,,,0.7171,1,,,,,,,,,,,,,,,,,,,,,,,,0.799982639,-0.155626492,0,0,0,,,,,,,CLIFF,LB,m,y,./images/CLIFFLB.png,,,,,,,,,,,,,,,,,,,,,m,1,0.7171,,,,,,,,0,25,25,8,1
,,,,,,,,,,,,,,,,,,23,2022-02-12_13h18.17.624,lexical_decision_task_DD_L4,2021.2.3,MacIntel,60.0024001,,,,,,,,,,,0.6557,1,,,,,,,,,,,,,,,,,,,,,,,,0.799982639,-0.155626492,0,0,0,,,,,,,TOMATO,C,z,y,./images/TOMATO.png,,,,,,,,,,,,,,,,,,,,,z,1,0.6557,,,,,,,,0,26,26,84,1
,,,,,,,,,,,,,,,,,,23,2022-02-12_13h18.17.624,lexical_decision_task_DD_L4,2021.2.3,MacIntel,60.0024001,,,,,,,,,,,0.972,1,,,,,,,,,,,,,,,,,,,,,,,,0.799982639,-0.155626492,0,0,0,,,,,,,HEATER,LB,m,y,./images/HEATERLB.png,,,,,,,,,,,,,,,,,,,,,m,1,0.972,,,,,,,,0,27,27,56,1
,,,,,,,,,,,,,,,,,,23,2022-02-12_13h18.17.624,lexical_decision_task_DD_L4,2021.2.3,MacIntel,60.0024001,,,,,,,,,,,1.0506,1,,,,,,,,,,,,,,,,,,,,,,,,0.799982639,-0.155626492,0,0,0,,,,,,,TORCH,LB,z,y,./images/TORCHLB.png,,,,,,,,,,,,,,,,,,,,,z,1,1.0506,,,,,,,,0,28,28,152,1
,,,,,,,,,,,,,,,,,,23,2022-02-12_13h18.17.624,lexical_decision_task_DD_L4,2021.2.3,MacIntel,60.0024001,,,,,,,,,,,0.6503,1,,,,,,,,,,,,,,,,,,,,,,,,0.799982639,-0.155626492,0,0,0,,,,,,,TIGER,HB,m,y,./images/TIGERHB.png,,,,,,,,,,,,,,,,,,,,,m,1,0.6503,,,,,,,,0,29,29,37,1
,,,,,,,,,,,,,,,,,,23,2022-02-12_13h18.17.624,lexical_decision_task_DD_L4,2021.2.3,MacIntel,60.0024001,,,,,,,,,,,0.7326,1,,,,,,,,,,,,,,,,,,,,,,,,0.799982639,-0.155626492,0,0,0,,,,,,,FERRY,C,m,y,./images/FERRY.png,,,,,,,,,,,,,,,,,,,,,m,1,0.7326,,,,,,,,0,30,30,57,1
,,,,,,,,,,,,,,,,,,23,2022-02-12_13h18.17.624,lexical_decision_task_DD_L4,2021.2.3,MacIntel,60.0024001,,,,,,,,,,,0.8333,1,,,,,,,,,,,,,,,,,,,,,,,,0.799982639,-0.155626492,0,0,0,,,,,,,COUCH,LB,z,y,./images/COUCHLB.png,,,,,,,,,,,,,,,,,,,,,z,1,0.8333,,,,,,,,0,31,31,161,1
,,,,,,,,,,,,,,,,,,23,2022-02-12_13h18.17.624,lexical_decision_task_DD_L4,2021.2.3,MacIntel,60.0024001,,,,,,,,,,,1.5004,0,,,,,,,,,,,,,,,,,,,,,,,,0.799982639,-0.155626492,0,0,0,,,,,,,MAGGOT,C,z,y,./images/MAGGOT.png,,,,,,,,,,,,,,,,,,,,,m,0,1.5004,,,,,,,,0,32,32,117,1
,,,,,,,,,,,,,,,,,,23,2022-02-12_13h18.17.624,lexical_decision_task_DD_L4,2021.2.3,MacIntel,60.0024001,,,,,,,,,,,0.7199,1,,,,,,,,,,,,,,,,,,,,,,,,0.799982639,-0.155626492,0,0,0,,,,,,,BELLY,HB,z,y,./images/BELLYHB.png,,,,,,,,,,,,,,,,,,,,,z,1,0.7199,,,,,,,,0,33,33,94,1
,,,,,,,,,,,,,,,,,,23,2022-02-12_13h18.17.624,lexical_decision_task_DD_L4,2021.2.3,MacIntel,60.0024001,,,,,,,,,,,0.6667,1,,,,,,,,,,,,,,,,,,,,,,,,0.799982639,-0.155626492,0,0,0,,,,,,,BOILER,C,m,y,./images/BOILER.png,,,,,,,,,,,,,,,,,,,,,m,1,0.6667,,,,,,,,0,34,34,36,1
,,,,,,,,,,,,,,,,,,23,2022-02-12_13h18.17.624,lexical_decision_task_DD_L4,2021.2.3,MacIntel,60.0024001,,,,,,,,,,,0.9715,1,,,,,,,,,,,,,,,,,,,,,,,,0.799982639,-0.155626492,0,0,0,,,,,,,MOOSE,C,z,y,./images/MOOSE.png,,,,,,,,,,,,,,,,,,,,,z,1,0.9715,,,,,,,,0,35,35,141,1
,,,,,,,,,,,,,,,,,,23,2022-02-12_13h18.17.624,lexical_decision_task_DD_L4,2021.2.3,MacIntel,60.0024001,,,,,,,,,,,1.014,1,,,,,,,,,,,,,,,,,,,,,,,,0.799982639,-0.155626492,0,0,0,,,,,,,TRIPOD,C,z,y,./images/TRIPOD.png,,,,,,,,,,,,,,,,,,,,,z,1,1.014,,,,,,,,0,36,36,138,1
,,,,,,,,,,,,,,,,,,23,2022-02-12_13h18.17.624,lexical_decision_task_DD_L4,2021.2.3,MacIntel,60.0024001,,,,,,,,,,,0.5999,1,,,,,,,,,,,,,,,,,,,,,,,,0.799982639,-0.155626492,0,0,0,,,,,,,SPINE,LB,m,y,./images/SPINELB.png,,,,,,,,,,,,,,,,,,,,,m,1,0.5999,,,,,,,,0,37,37,65,1
,,,,,,,,,,,,,,,,,,23,2022-02-12_13h18.17.624,lexical_decision_task_DD_L4,2021.2.3,MacIntel,60.0024001,,,,,,,,,,,1.0506,1,,,,,,,,,,,,,,,,,,,,,,,,0.799982639,-0.155626492,0,0,0,,,,,,,CRATER,C,m,y,./images/CRATER.png,,,,,,,,,,,,,,,,,,,,,m,1,1.0506,,,,,,,,0,38,38,3,1
,,,,,,,,,,,,,,,,,,23,2022-02-12_13h18.17.624,lexical_decision_task_DD_L4,2021.2.3,MacIntel,60.0024001,,,,,,,,,,,0.8387,1,,,,,,,,,,,,,,,,,,,,,,,,0.799982639,-0.155626492,0,0,0,,,,,,,PEARL,HB,z,y,./images/PEARLHB.png,,,,,,,,,,,,,,,,,,,,,z,1,0.8387,,,,,,,,0,39,39,130,1
,,,,,,,,,,,,,,,,,,23,2022-02-12_13h18.17.624,lexical_decision_task_DD_L4,2021.2.3,MacIntel,60.0024001,,,,,,,,,,,0.6353,1,,,,,,,,,,,,,,,,,,,,,,,,0.799982639,-0.155626492,0,0,0,,,,,,,CLOWN,HB,m,y,./images/CLOWNHB.png,,,,,,,,,,,,,,,,,,,,,m,1,0.6353,,,,,,,,0,40,40,22,1
,,,,,,,,,,,,,,,,,,23,2022-02-12_13h18.17.624,lexical_decision_task_DD_L4,2021.2.3,MacIntel,60.0024001,,,,,,,,,,,0.6796,1,,,,,,,,,,,,,,,,,,,,,,,,0.799982639,-0.155626492,0,0,0,space,,,,,,BUBBLE,LB,m,y,./images/BUBBLELB.png,2.8,,,,,,,,,,,,,,,,,,,,m,1,0.6796,,,,,,,,0,41,41,71,1
,,,,,,,,,,,,,,,,,,23,2022-02-12_13h18.17.624,lexical_decision_task_DD_L4,2021.2.3,MacIntel,60.0024001,,,,,,,,,,,0.9837,1,,,,,,,,,,,,,,,,,,,,,,,,0.799982639,-0.155626492,0,0,0,,,,,,,DRILL,C,m,y,./images/DRILL.png,,,,,,,,,,,,,,,,,,,,,m,1,0.9837,,,,,,,,0,42,42,81,1
,,,,,,,,,,,,,,,,,,23,2022-02-12_13h18.17.624,lexical_decision_task_DD_L4,2021.2.3,MacIntel,60.0024001,,,,,,,,,,,1.0843,1,,,,,,,,,,,,,,,,,,,,,,,,0.799982639,-0.155626492,0,0,0,,,,,,,BRUSH,LB,m,y,./images/BRUSHLB.png,,,,,,,,,,,,,,,,,,,,,m,1,1.0843,,,,,,,,0,43,43,59,1
,,,,,,,,,,,,,,,,,,23,2022-02-12_13h18.17.624,lexical_decision_task_DD_L4,2021.2.3,MacIntel,60.0024001,,,,,,,,,,,1.0184,0,,,,,,,,,,,,,,,,,,,,,,,,0.799982639,-0.155626492,0,0,0,,,,,,,ENGINE,LB,m,y,./images/ENGINELB.png,,,,,,,,,,,,,,,,,,,,,z,0,1.0184,,,,,,,,0,44,44,38,1
,,,,,,,,,,,,,,,,,,23,2022-02-12_13h18.17.624,lexical_decision_task_DD_L4,2021.2.3,MacIntel,60.0024001,,,,,,,,,,,0.7177,1,,,,,,,,,,,,,,,,,,,,,,,,0.799982639,-0.155626492,0,0,0,,,,,,,BLOKE,C,m,y,./images/BLOKE.png,,,,,,,,,,,,,,,,,,,,,m,1,0.7177,,,,,,,,0,45,45,12,1
,,,,,,,,,,,,,,,,,,23,2022-02-12_13h18.17.624,lexical_decision_task_DD_L4,2021.2.3,MacIntel,60.0024001,,,,,,,,,,,0.8506,1,,,,,,,,,,,,,,,,,,,,,,,,0.799982639,-0.155626492,0,0,0,,,,,,,FARMER,LB,z,y,./images/FARMERLB.png,,,,,,,,,,,,,,,,,,,,,z,1,0.8506,,,,,,,,0,46,46,149,1
,,,,,,,,,,,,,,,,,,23,2022-02-12_13h18.17.624,lexical_decision_task_DD_L4,2021.2.3,MacIntel,60.0024001,,,,,,,,,,,0.7178,1,,,,,,,,,,,,,,,,,,,,,,,,0.799982639,-0.155626492,0,0,0,,,,,,,BRIDE,HB,m,y,./images/BRIDEHB.png,,,,,,,,,,,,,,,,,,,,,m,1,0.7178,,,,,,,,0,47,47,64,1
,,,,,,,,,,,,,,,,,,23,2022-02-12_13h18.17.624,lexical_decision_task_DD_L4,2021.2.3,MacIntel,60.0024001,,,,,,,,,,,0.5997,1,,,,,,,,,,,,,,,,,,,,,,,,0.799982639,-0.155626492,0,0,0,,,,,,,BUNNY,HB,m,y,./images/BUNNYHB.png,,,,,,,,,,,,,,,,,,,,,m,1,0.5997,,,,,,,,0,48,48,13,1
,,,,,,,,,,,,,,,,,,23,2022-02-12_13h18.17.624,lexical_decision_task_DD_L4,2021.2.3,MacIntel,60.0024001,,,,,,,,,,,0.9001,1,,,,,,,,,,,,,,,,,,,,,,,,0.799982639,-0.155626492,0,0,0,,,,,,,CEMENT,LB,z,y,./images/CEMENTLB.png,,,,,,,,,,,,,,,,,,,,,z,1,0.9001,,,,,,,,0,49,49,158,1
,,,,,,,,,,,,,,,,,,23,2022-02-12_13h18.17.624,lexical_decision_task_DD_L4,2021.2.3,MacIntel,60.0024001,,,,,,,,,,,0.9502,1,,,,,,,,,,,,,,,,,,,,,,,,0.799982639,-0.155626492,0,0,0,,,,,,,WALRUS,LB,z,y,./images/WALRUSLB.png,,,,,,,,,,,,,,,,,,,,,z,1,0.9502,,,,,,,,0,50,50,107,1
,,,,,,,,,,,,,,,,,,23,2022-02-12_13h18.17.624,lexical_decision_task_DD_L4,2021.2.3,MacIntel,60.0024001,,,,,,,,,,,0.9418,1,,,,,,,,,,,,,,,,,,,,,,,,0.799982639,-0.155626492,0,0,0,,,,,,,INFANT,HB,z,y,./images/INFANTHB.png,,,,,,,,,,,,,,,,,,,,,z,1,0.9418,,,,,,,,0,51,51,160,1
,,,,,,,,,,,,,,,,,,23,2022-02-12_13h18.17.624,lexical_decision_task_DD_L4,2021.2.3,MacIntel,60.0024001,,,,,,,,,,,1.1178,1,,,,,,,,,,,,,,,,,,,,,,,,0.799982639,-0.155626492,0,0,0,,,,,,,CRADLE,LB,z,y,./images/CRADLELB.png,,,,,,,,,,,,,,,,,,,,,z,1,1.1178,,,,,,,,0,52,52,104,1
,,,,,,,,,,,,,,,,,,23,2022-02-12_13h18.17.624,lexical_decision_task_DD_L4,2021.2.3,MacIntel,60.0024001,,,,,,,,,,,0.6683,1,,,,,,,,,,,,,,,,,,,,,,,,0.799982639,-0.155626492,0,0,0,,,,,,,WAGON,HB,m,y,./images/WAGONHB.png,,,,,,,,,,,,,,,,,,,,,m,1,0.6683,,,,,,,,0,53,53,7,1
,,,,,,,,,,,,,,,,,,23,2022-02-12_13h18.17.624,lexical_decision_task_DD_L4,2021.2.3,MacIntel,60.0024001,,,,,,,,,,,0.7509,1,,,,,,,,,,,,,,,,,,,,,,,,0.799982639,-0.155626492,0,0,0,,,,,,,LAGOON,LB,m,y,./images/LAGOONLB.png,,,,,,,,,,,,,,,,,,,,,m,1,0.7509,,,,,,,,0,54,54,47,1
,,,,,,,,,,,,,,,,,,23,2022-02-12_13h18.17.624,lexical_decision_task_DD_L4,2021.2.3,MacIntel,60.0024001,,,,,,,,,,,0.8316,1,,,,,,,,,,,,,,,,,,,,,,,,0.799982639,-0.155626492,0,0,0,,,,,,,STATUE,C,m,y,./images/STATUE.png,,,,,,,,,,,,,,,,,,,,,m,1,0.8316,,,,,,,,0,55,55,66,1
,,,,,,,,,,,,,,,,,,23,2022-02-12_13h18.17.624,lexical_decision_task_DD_L4,2021.2.3,MacIntel,60.0024001,,,,,,,,,,,0.7014,1,,,,,,,,,,,,,,,,,,,,,,,,0.799982639,-0.155626492,0,0,0,,,,,,,MUSCLE,HB,z,y,./images/MUSCLEHB.png,,,,,,,,,,,,,,,,,,,,,z,1,0.7014,,,,,,,,0,56,56,88,1
,,,,,,,,,,,,,,,,,,23,2022-02-12_13h18.17.624,lexical_decision_task_DD_L4,2021.2.3,MacIntel,60.0024001,,,,,,,,,,,0.9836,1,,,,,,,,,,,,,,,,,,,,,,,,0.799982639,-0.155626492,0,0,0,,,,,,,STOVE,LB,m,y,./images/STOVELB.png,,,,,,,,,,,,,,,,,,,,,m,1,0.9836,,,,,,,,0,57,57,2,1
,,,,,,,,,,,,,,,,,,23,2022-02-12_13h18.17.624,lexical_decision_task_DD_L4,2021.2.3,MacIntel,60.0024001,,,,,,,,,,,0.7351,1,,,,,,,,,,,,,,,,,,,,,,,,0.799982639,-0.155626492,0,0,0,,,,,,,SAILOR,HB,z,y,./images/SAILORHB.png,,,,,,,,,,,,,,,,,,,,,z,1,0.7351,,,,,,,,0,58,58,151,1
,,,,,,,,,,,,,,,,,,23,2022-02-12_13h18.17.624,lexical_decision_task_DD_L4,2021.2.3,MacIntel,60.0024001,,,,,,,,,,,0.8337,1,,,,,,,,,,,,,,,,,,,,,,,,0.799982639,-0.155626492,0,0,0,,,,,,,GREASE,C,z,y,./images/GREASE.png,,,,,,,,,,,,,,,,,,,,,z,1,0.8337,,,,,,,,0,59,59,99,1
,,,,,,,,,,,,,,,,,,23,2022-02-12_13h18.17.624,lexical_decision_task_DD_L4,2021.2.3,MacIntel,60.0024001,,,,,,,,,,,0.9998,1,,,,,,,,,,,,,,,,,,,,,,,,0.799982639,-0.155626492,0,0,0,,,,,,,BANANA,HB,m,y,./images/BANANAHB.png,,,,,,,,,,,,,,,,,,,,,m,1,0.9998,,,,,,,,0,60,60,70,1
,,,,,,,,,,,,,,,,,,23,2022-02-12_13h18.17.624,lexical_decision_task_DD_L4,2021.2.3,MacIntel,60.0024001,,,,,,,,,,,0.701,1,,,,,,,,,,,,,,,,,,,,,,,,0.799982639,-0.155626492,0,0,0,,,,,,,MUMMY,HB,m,y,./images/MUMMYHB.png,,,,,,,,,,,,,,,,,,,,,m,1,0.701,,,,,,,,0,61,61,46,1
,,,,,,,,,,,,,,,,,,23,2022-02-12_13h18.17.624,lexical_decision_task_DD_L4,2021.2.3,MacIntel,60.0024001,,,,,,,,,,,0.723,1,,,,,,,,,,,,,,,,,,,,,,,,0.799982639,-0.155626492,0,0,0,,,,,,,PICKLE,LB,z,y,./images/PICKLELB.png,,,,,,,,,,,,,,,,,,,,,z,1,0.723,,,,,,,,0,62,62,98,1
,,,,,,,,,,,,,,,,,,23,2022-02-12_13h18.17.624,lexical_decision_task_DD_L4,2021.2.3,MacIntel,60.0024001,,,,,,,,,,,0.653,1,,,,,,,,,,,,,,,,,,,,,,,,0.799982639,-0.155626492,0,0,0,,,,,,,BISHOP,HB,m,y,./images/BISHOPHB.png,,,,,,,,,,,,,,,,,,,,,m,1,0.653,,,,,,,,0,63,63,49,1
,,,,,,,,,,,,,,,,,,23,2022-02-12_13h18.17.624,lexical_decision_task_DD_L4,2021.2.3,MacIntel,60.0024001,,,,,,,,,,,0.6339,1,,,,,,,,,,,,,,,,,,,,,,,,0.799982639,-0.155626492,0,0,0,,,,,,,GRAPE,HB,m,y,./images/GRAPEHB.png,,,,,,,,,,,,,,,,,,,,,m,1,0.6339,,,,,,,,0,64,64,16,1
,,,,,,,,,,,,,,,,,,23,2022-02-12_13h18.17.624,lexical_decision_task_DD_L4,2021.2.3,MacIntel,60.0024001,,,,,,,,,,,0.6834,1,,,,,,,,,,,,,,,,,,,,,,,,0.799982639,-0.155626492,0,0,0,,,,,,,STORM,C,z,y,./images/STORM.png,,,,,,,,,,,,,,,,,,,,,z,1,0.6834,,,,,,,,0,65,65,114,1
,,,,,,,,,,,,,,,,,,23,2022-02-12_13h18.17.624,lexical_decision_task_DD_L4,2021.2.3,MacIntel,60.0024001,,,,,,,,,,,0.6197,1,,,,,,,,,,,,,,,,,,,,,,,,0.799982639,-0.155626492,0,0,0,,,,,,,LLAMA,LB,m,y,./images/LLAMALB.png,,,,,,,,,,,,,,,,,,,,,m,1,0.6197,,,,,,,,0,66,66,35,1
,,,,,,,,,,,,,,,,,,23,2022-02-12_13h18.17.624,lexical_decision_task_DD_L4,2021.2.3,MacIntel,60.0024001,,,,,,,,,,,0.6329,1,,,,,,,,,,,,,,,,,,,,,,,,0.799982639,-0.155626492,0,0,0,,,,,,,PARCEL,C,m,y,./images/PARCEL.png,,,,,,,,,,,,,,,,,,,,,m,1,0.6329,,,,,,,,0,67,67,18,1
,,,,,,,,,,,,,,,,,,23,2022-02-12_13h18.17.624,lexical_decision_task_DD_L4,2021.2.3,MacIntel,60.0024001,,,,,,,,,,,0.8672,1,,,,,,,,,,,,,,,,,,,,,,,,0.799982639,-0.155626492,0,0,0,,,,,,,SNAKE,HB,m,y,./images/SNAKEHB.png,,,,,,,,,,,,,,,,,,,,,m,1,0.8672,,,,,,,,0,68,68,40,1
,,,,,,,,,,,,,,,,,,23,2022-02-12_13h18.17.624,lexical_decision_task_DD_L4,2021.2.3,MacIntel,60.0024001,,,,,,,,,,,1.3359,0,,,,,,,,,,,,,,,,,,,,,,,,0.799982639,-0.155626492,0,0,0,,,,,,,WEASEL,LB,z,y,./images/WEASELLB.png,,,,,,,,,,,,,,,,,,,,,m,0,1.3359,,,,,,,,0,69,69,164,1
,,,,,,,,,,,,,,,,,,23,2022-02-12_13h18.17.624,lexical_decision_task_DD_L4,2021.2.3,MacIntel,60.0024001,,,,,,,,,,,0.8028,1,,,,,,,,,,,,,,,,,,,,,,,,0.799982639,-0.155626492,0,0,0,,,,,,,PASTA,LB,z,y,./images/PASTALB.png,,,,,,,,,,,,,,,,,,,,,z,1,0.8028,,,,,,,,0,70,70,89,1
,,,,,,,,,,,,,,,,,,23,2022-02-12_13h18.17.624,lexical_decision_task_DD_L4,2021.2.3,MacIntel,60.0024001,,,,,,,,,,,0.8155,1,,,,,,,,,,,,,,,,,,,,,,,,0.799982639,-0.155626492,0,0,0,,,,,,,RULER,HB,m,y,./images/RULERHB.png,,,,,,,,,,,,,,,,,,,,,m,1,0.8155,,,,,,,,0,71,71,79,1
,,,,,,,,,,,,,,,,,,23,2022-02-12_13h18.17.624,lexical_decision_task_DD_L4,2021.2.3,MacIntel,60.0024001,,,,,,,,,,,0.9,1,,,,,,,,,,,,,,,,,,,,,,,,0.799982639,-0.155626492,0,0,0,,,,,,,TOWEL,HB,m,y,./images/TOWELHB.png,,,,,,,,,,,,,,,,,,,,,m,1,0.9,,,,,,,,0,72,72,1,1
,,,,,,,,,,,,,,,,,,23,2022-02-12_13h18.17.624,lexical_decision_task_DD_L4,2021.2.3,MacIntel,60.0024001,,,,,,,,,,,0.7489,1,,,,,,,,,,,,,,,,,,,,,,,,0.799982639,-0.155626492,0,0,0,,,,,,,SWING,HB,z,y,./images/SWINGHB.png,,,,,,,,,,,,,,,,,,,,,z,1,0.7489,,,,,,,,0,73,73,124,1
,,,,,,,,,,,,,,,,,,23,2022-02-12_13h18.17.624,lexical_decision_task_DD_L4,2021.2.3,MacIntel,60.0024001,,,,,,,,,,,0.6679,1,,,,,,,,,,,,,,,,,,,,,,,,0.799982639,-0.155626492,0,0,0,,,,,,,CANDY,C,m,y,./images/CANDY.png,,,,,,,,,,,,,,,,,,,,,m,1,0.6679,,,,,,,,0,74,74,39,1
,,,,,,,,,,,,,,,,,,23,2022-02-12_13h18.17.624,lexical_decision_task_DD_L4,2021.2.3,MacIntel,60.0024001,,,,,,,,,,,0.8883,1,,,,,,,,,,,,,,,,,,,,,,,,0.799982639,-0.155626492,0,0,0,,,,,,,DESERT,HB,m,y,./images/DESERTHB.png,,,,,,,,,,,,,,,,,,,,,m,1,0.8883,,,,,,,,0,75,75,52,1
,,,,,,,,,,,,,,,,,,23,2022-02-12_13h18.17.624,lexical_decision_task_DD_L4,2021.2.3,MacIntel,60.0024001,,,,,,,,,,,0.7041,1,,,,,,,,,,,,,,,,,,,,,,,,0.799982639,-0.155626492,0,0,0,,,,,,,GARDEN,HB,m,y,./images/GARDENHB.png,,,,,,,,,,,,,,,,,,,,,m,1,0.7041,,,,,,,,0,76,76,10,1
,,,,,,,,,,,,,,,,,,23,2022-02-12_13h18.17.624,lexical_decision_task_DD_L4,2021.2.3,MacIntel,60.0024001,,,,,,,,,,,0.6669,1,,,,,,,,,,,,,,,,,,,,,,,,0.799982639,-0.155626492,0,0,0,,,,,,,BUTTER,C,m,y,./images/BUTTER.png,,,,,,,,,,,,,,,,,,,,,m,1,0.6669,,,,,,,,0,77,77,27,1
,,,,,,,,,,,,,,,,,,23,2022-02-12_13h18.17.624,lexical_decision_task_DD_L4,2021.2.3,MacIntel,60.0024001,,,,,,,,,,,0.7042,1,,,,,,,,,,,,,,,,,,,,,,,,0.799982639,-0.155626492,0,0,0,,,,,,,FLESH,C,m,y,./images/FLESH.png,,,,,,,,,,,,,,,,,,,,,m,1,0.7042,,,,,,,,0,78,78,24,1
,,,,,,,,,,,,,,,,,,23,2022-02-12_13h18.17.624,lexical_decision_task_DD_L4,2021.2.3,MacIntel,60.0024001,,,,,,,,,,,0.8857,1,,,,,,,,,,,,,,,,,,,,,,,,0.799982639,-0.155626492,0,0,0,,,,,,,PENCE,HB,z,y,./images/PENCEHB.png,,,,,,,,,,,,,,,,,,,,,z,1,0.8857,,,,,,,,0,79,79,100,1
,,,,,,,,,,,,,,,,,,23,2022-02-12_13h18.17.624,lexical_decision_task_DD_L4,2021.2.3,MacIntel,60.0024001,,,,,,,,,,,0.6667,1,,,,,,,,,,,,,,,,,,,,,,,,0.799982639,-0.155626492,0,0,0,,,,,,,CHERRY,C,m,y,./images/CHERRY.png,,,,,,,,,,,,,,,,,,,,,m,1,0.6667,,,,,,,,0,80,80,54,1
,,,,,,,,,,,,,,,,,,23,2022-02-12_13h18.17.624,lexical_decision_task_DD_L4,2021.2.3,MacIntel,60.0024001,,,,,,,,,,,0.7465,0,,,,,,,,,,,,,,,,,,,,,,,,0.799982639,-0.155626492,0,0,0,,,,,,,BONNET,LB,z,y,./images/BONNETLB.png,,,,,,,,,,,,,,,,,,,,,m,0,0.7465,,,,,,,,0,81,81,95,1
,,,,,,,,,,,,,,,,,,23,2022-02-12_13h18.17.624,lexical_decision_task_DD_L4,2021.2.3,MacIntel,60.0024001,,,,,,,,,,,0.9499,1,,,,,,,,,,,,,,,,,,,,,,,,0.799982639,-0.155626492,0,0,0,,,,,,,KITTEN,C,z,y,./images/KITTEN.png,,,,,,,,,,,,,,,,,,,,,z,1,0.9499,,,,,,,,0,82,82,129,1
,,,,,,,,,,,,,,,,,,23,2022-02-12_13h18.17.624,lexical_decision_task_DD_L4,2021.2.3,MacIntel,60.0024001,,,,,,,,,,,1.4172,1,,,,,,,,,,,,,,,,,,,,,,,,0.799982639,-0.155626492,0,0,0,space,,,,,,SMOKER,LB,z,y,./images/SMOKERLB.png,1.8373,,,,,,,,,,,,,,,,,,,,z,1,1.4172,,,,,,,,0,83,83,110,1
,,,,,,,,,,,,,,,,,,23,2022-02-12_13h18.17.624,lexical_decision_task_DD_L4,2021.2.3,MacIntel,60.0024001,,,,,,,,,,,0.7844,1,,,,,,,,,,,,,,,,,,,,,,,,0.799982639,-0.155626492,0,0,0,,,,,,,WRIST,HB,z,y,./images/WRISTHB.png,,,,,,,,,,,,,,,,,,,,,z,1,0.7844,,,,,,,,0,84,84,109,1
,,,,,,,,,,,,,,,,,,23,2022-02-12_13h18.17.624,lexical_decision_task_DD_L4,2021.2.3,MacIntel,60.0024001,,,,,,,,,,,1.2671,1,,,,,,,,,,,,,,,,,,,,,,,,0.799982639,-0.155626492,0,0,0,,,,,,,COOKER,C,z,y,./images/COOKER.png,,,,,,,,,,,,,,,,,,,,,z,1,1.2671,,,,,,,,0,85,85,153,1
,,,,,,,,,,,,,,,,,,23,2022-02-12_13h18.17.624,lexical_decision_task_DD_L4,2021.2.3,MacIntel,60.0024001,,,,,,,,,,,1.2026,0,,,,,,,,,,,,,,,,,,,,,,,,0.799982639,-0.155626492,0,0,0,,,,,,,HAMMER,C,m,y,./images/HAMMER.png,,,,,,,,,,,,,,,,,,,,,z,0,1.2026,,,,,,,,0,86,86,75,1
,,,,,,,,,,,,,,,,,,23,2022-02-12_13h18.17.624,lexical_decision_task_DD_L4,2021.2.3,MacIntel,60.0024001,,,,,,,,,,,0.703,1,,,,,,,,,,,,,,,,,,,,,,,,0.799982639,-0.155626492,0,0,0,,,,,,,RHINO,C,z,y,./images/RHINO.png,,,,,,,,,,,,,,,,,,,,,z,1,0.703,,,,,,,,0,87,87,93,1
,,,,,,,,,,,,,,,,,,23,2022-02-12_13h18.17.624,lexical_decision_task_DD_L4,2021.2.3,MacIntel,60.0024001,,,,,,,,,,,0.8171,0,,,,,,,,,,,,,,,,,,,,,,,,0.799982639,-0.155626492,0,0,0,,,,,,,JUMPER,LB,m,y,./images/JUMPERLB.png,,,,,,,,,,,,,,,,,,,,,z,0,0.8171,,,,,,,,0,88,88,74,1
,,,,,,,,,,,,,,,,,,23,2022-02-12_13h18.17.624,lexical_decision_task_DD_L4,2021.2.3,MacIntel,60.0024001,,,,,,,,,,,0.6007,1,,,,,,,,,,,,,,,,,,,,,,,,0.799982639,-0.155626492,0,0,0,,,,,,,SAUCE,C,m,y,./images/SAUCE.png,,,,,,,,,,,,,,,,,,,,,m,1,0.6007,,,,,,,,0,89,89,51,1
,,,,,,,,,,,,,,,,,,23,2022-02-12_13h18.17.624,lexical_decision_task_DD_L4,2021.2.3,MacIntel,60.0024001,,,,,,,,,,,0.9173,1,,,,,,,,,,,,,,,,,,,,,,,,0.799982639,-0.155626492,0,0,0,,,,,,,CANOE,HB,m,y,./images/CANOEHB.png,,,,,,,,,,,,,,,,,,,,,m,1,0.9173,,,,,,,,0,90,90,58,1
,,,,,,,,,,,,,,,,,,23,2022-02-12_13h18.17.624,lexical_decision_task_DD_L4,2021.2.3,MacIntel,60.0024001,,,,,,,,,,,0.7201,1,,,,,,,,,,,,,,,,,,,,,,,,0.799982639,-0.155626492,0,0,0,,,,,,,MALLET,LB,z,y,./images/MALLETLB.png,,,,,,,,,,,,,,,,,,,,,z,1,0.7201,,,,,,,,0,91,91,134,1
,,,,,,,,,,,,,,,,,,23,2022-02-12_13h18.17.624,lexical_decision_task_DD_L4,2021.2.3,MacIntel,60.0024001,,,,,,,,,,,0.8657,1,,,,,,,,,,,,,,,,,,,,,,,,0.799982639,-0.155626492,0,0,0,,,,,,,SWEAT,C,z,y,./images/SWEAT.png,,,,,,,,,,,,,,,,,,,,,z,1,0.8657,,,,,,,,0,92,92,150,1
,,,,,,,,,,,,,,,,,,23,2022-02-12_13h18.17.624,lexical_decision_task_DD_L4,2021.2.3,MacIntel,60.0024001,,,,,,,,,,,0.9046,1,,,,,,,,,,,,,,,,,,,,,,,,0.799982639,-0.155626492,0,0,0,,,,,,,MOTOR,HB,z,y,./images/MOTORHB.png,,,,,,,,,,,,,,,,,,,,,z,1,0.9046,,,,,,,,0,93,93,97,1
,,,,,,,,,,,,,,,,,,23,2022-02-12_13h18.17.624,lexical_decision_task_DD_L4,2021.2.3,MacIntel,60.0024001,,,,,,,,,,,0.6533,1,,,,,,,,,,,,,,,,,,,,,,,,0.799982639,-0.155626492,0,0,0,,,,,,,SHIELD,C,m,y,./images/SHIELD.png,,,,,,,,,,,,,,,,,,,,,m,1,0.6533,,,,,,,,0,94,94,48,1
,,,,,,,,,,,,,,,,,,23,2022-02-12_13h18.17.624,lexical_decision_task_DD_L4,2021.2.3,MacIntel,60.0024001,,,,,,,,,,,0.6886,1,,,,,,,,,,,,,,,,,,,,,,,,0.799982639,-0.155626492,0,0,0,,,,,,,ONION,C,z,y,./images/ONION.png,,,,,,,,,,,,,,,,,,,,,z,1,0.6886,,,,,,,,0,95,95,135,1
,,,,,,,,,,,,,,,,,,23,2022-02-12_13h18.17.624,lexical_decision_task_DD_L4,2021.2.3,MacIntel,60.0024001,,,,,,,,,,,1.3359,1,,,,,,,,,,,,,,,,,,,,,,,,0.799982639,-0.155626492,0,0,0,,,,,,,DONKEY,HB,m,y,./images/DONKEYHB.png,,,,,,,,,,,,,,,,,,,,,m,1,1.3359,,,,,,,,0,96,96,19,1
,,,,,,,,,,,,,,,,,,23,2022-02-12_13h18.17.624,lexical_decision_task_DD_L4,2021.2.3,MacIntel,60.0024001,,,,,,,,,,,1.3003,0,,,,,,,,,,,,,,,,,,,,,,,,0.799982639,-0.155626492,0,0,0,,,,,,,STOOL,HB,m,y,./images/STOOLHB.png,,,,,,,,,,,,,,,,,,,,,z,0,1.3003,,,,,,,,0,97,97,43,1
,,,,,,,,,,,,,,,,,,23,2022-02-12_13h18.17.624,lexical_decision_task_DD_L4,2021.2.3,MacIntel,60.0024001,,,,,,,,,,,1.2672,0,,,,,,,,,,,,,,,,,,,,,,,,0.799982639,-0.155626492,0,0,0,,,,,,,SLOPE,C,m,y,./images/SLOPE.png,,,,,,,,,,,,,,,,,,,,,z,0,1.2672,,,,,,,,0,98,98,30,1
,,,,,,,,,,,,,,,,,,23,2022-02-12_13h18.17.624,lexical_decision_task_DD_L4,2021.2.3,MacIntel,60.0024001,,,,,,,,,,,0.801,1,,,,,,,,,,,,,,,,,,,,,,,,0.799982639,-0.155626492,0,0,0,,,,,,,JAGUAR,C,z,y,./images/JAGUAR.png,,,,,,,,,,,,,,,,,,,,,z,1,0.801,,,,,,,,0,99,99,102,1
,,,,,,,,,,,,,,,,,,23,2022-02-12_13h18.17.624,lexical_decision_task_DD_L4,2021.2.3,MacIntel,60.0024001,,,,,,,,,,,0.7534,1,,,,,,,,,,,,,,,,,,,,,,,,0.799982639,-0.155626492,0,0,0,,,,,,,ARROW,C,m,y,./images/ARROW.png,,,,,,,,,,,,,,,,,,,,,m,1,0.7534,,,,,,,,0,100,100,69,1
,,,,,,,,,,,,,,,,,,23,2022-02-12_13h18.17.624,lexical_decision_task_DD_L4,2021.2.3,MacIntel,60.0024001,,,,,,,,,,,0.6496,1,,,,,,,,,,,,,,,,,,,,,,,,0.799982639,-0.155626492,0,0,0,,,,,,,PISTOL,LB,m,y,./images/PISTOLLB.png,,,,,,,,,,,,,,,,,,,,,m,1,0.6496,,,,,,,,0,101,101,29,1
,,,,,,,,,,,,,,,,,,23,2022-02-12_13h18.17.624,lexical_decision_task_DD_L4,2021.2.3,MacIntel,60.0024001,,,,,,,,,,,0.8169,1,,,,,,,,,,,,,,,,,,,,,,,,0.799982639,-0.155626492,0,0,0,,,,,,,BABOON,HB,z,y,./images/BABOONHB.png,,,,,,,,,,,,,,,,,,,,,z,1,0.8169,,,,,,,,0,102,102,142,1
,,,,,,,,,,,,,,,,,,23,2022-02-12_13h18.17.624,lexical_decision_task_DD_L4,2021.2.3,MacIntel,60.0024001,,,,,,,,,,,0.8835,1,,,,,,,,,,,,,,,,,,,,,,,,0.799982639,-0.155626492,0,0,0,,,,,,,CHAIN,C,m,y,./images/CHAIN.png,,,,,,,,,,,,,,,,,,,,,m,1,0.8835,,,,,,,,0,103,103,42,1
,,,,,,,,,,,,,,,,,,23,2022-02-12_13h18.17.624,lexical_decision_task_DD_L4,2021.2.3,MacIntel,60.0024001,,,,,,,,,,,0.7505,1,,,,,,,,,,,,,,,,,,,,,,,,0.799982639,-0.155626492,0,0,0,,,,,,,MIDGET,HB,m,y,./images/MIDGETHB.png,,,,,,,,,,,,,,,,,,,,,m,1,0.7505,,,,,,,,0,104,104,76,1
,,,,,,,,,,,,,,,,,,23,2022-02-12_13h18.17.624,lexical_decision_task_DD_L4,2021.2.3,MacIntel,60.0024001,,,,,,,,,,,1.4493,0,,,,,,,,,,,,,,,,,,,,,,,,0.799982639,-0.155626492,0,0,0,,,,,,,CHALK,HB,m,y,./images/CHALKHB.png,,,,,,,,,,,,,,,,,,,,,z,0,1.4493,,,,,,,,0,105,105,25,1
,,,,,,,,,,,,,,,,,,23,2022-02-12_13h18.17.624,lexical_decision_task_DD_L4,2021.2.3,MacIntel,60.0024001,,,,,,,,,,,0.8669,1,,,,,,,,,,,,,,,,,,,,,,,,0.799982639,-0.155626492,0,0,0,,,,,,,GRAIN,C,z,y,./images/GRAIN.png,,,,,,,,,,,,,,,,,,,,,z,1,0.8669,,,,,,,,0,106,106,159,1
,,,,,,,,,,,,,,,,,,23,2022-02-12_13h18.17.624,lexical_decision_task_DD_L4,2021.2.3,MacIntel,60.0024001,,,,,,,,,,,0.7165,1,,,,,,,,,,,,,,,,,,,,,,,,0.799982639,-0.155626492,0,0,0,,,,,,,PARADE,LB,m,y,./images/PARADELB.png,,,,,,,,,,,,,,,,,,,,,m,1,0.7165,,,,,,,,0,107,107,17,1
,,,,,,,,,,,,,,,,,,23,2022-02-12_13h18.17.624,lexical_decision_task_DD_L4,2021.2.3,MacIntel,60.0024001,,,,,,,,,,,0.7333,1,,,,,,,,,,,,,,,,,,,,,,,,0.799982639,-0.155626492,0,0,0,,,,,,,BAMBOO,LB,m,y,./images/BAMBOOLB.png,,,,,,,,,,,,,,,,,,,,,m,1,0.7333,,,,,,,,0,108,108,5,1
,,,,,,,,,,,,,,,,,,23,2022-02-12_13h18.17.624,lexical_decision_task_DD_L4,2021.2.3,MacIntel,60.0024001,,,,,,,,,,,0.7833,1,,,,,,,,,,,,,,,,,,,,,,,,0.799982639,-0.155626492,0,0,0,,,,,,,DOUGH,HB,z,y,./images/DOUGHHB.png,,,,,,,,,,,,,,,,,,,,,z,1,0.7833,,,,,,,,0,109,109,103,1
,,,,,,,,,,,,,,,,,,23,2022-02-12_13h18.17.624,lexical_decision_task_DD_L4,2021.2.3,MacIntel,60.0024001,,,,,,,,,,,0.8659,1,,,,,,,,,,,,,,,,,,,,,,,,0.799982639,-0.155626492,0,0,0,,,,,,,STRING,LB,z,y,./images/STRINGLB.png,,,,,,,,,,,,,,,,,,,,,z,1,0.8659,,,,,,,,0,110,110,125,1
,,,,,,,,,,,,,,,,,,23,2022-02-12_13h18.17.624,lexical_decision_task_DD_L4,2021.2.3,MacIntel,60.0024001,,,,,,,,,,,0.867,1,,,,,,,,,,,,,,,,,,,,,,,,0.799982639,-0.155626492,0,0,0,,,,,,,PEACH,LB,z,y,./images/PEACHLB.png,,,,,,,,,,,,,,,,,,,,,z,1,0.867,,,,,,,,0,111,111,119,1
,,,,,,,,,,,,,,,,,,23,2022-02-12_13h18.17.624,lexical_decision_task_DD_L4,2021.2.3,MacIntel,60.0024001,,,,,,,,,,,0.6885,1,,,,,,,,,,,,,,,,,,,,,,,,0.799982639,-0.155626492,0,0,0,,,,,,,PURSE,LB,z,y,./images/PURSELB.png,,,,,,,,,,,,,,,,,,,,,z,1,0.6885,,,,,,,,0,112,112,146,1
,,,,,,,,,,,,,,,,,,23,2022-02-12_13h18.17.624,lexical_decision_task_DD_L4,2021.2.3,MacIntel,60.0024001,,,,,,,,,,,0.7554,1,,,,,,,,,,,,,,,,,,,,,,,,0.799982639,-0.155626492,0,0,0,,,,,,,MEDAL,LB,m,y,./images/MEDALLB.png,,,,,,,,,,,,,,,,,,,,,m,1,0.7554,,,,,,,,0,113,113,11,1
,,,,,,,,,,,,,,,,,,23,2022-02-12_13h18.17.624,lexical_decision_task_DD_L4,2021.2.3,MacIntel,60.0024001,,,,,,,,,,,1.1012,1,,,,,,,,,,,,,,,,,,,,,,,,0.799982639,-0.155626492,0,0,0,,,,,,,DRUMS,HB,z,y,./images/DRUMSHB.png,,,,,,,,,,,,,,,,,,,,,z,1,1.1012,,,,,,,,0,114,114,133,1
,,,,,,,,,,,,,,,,,,23,2022-02-12_13h18.17.624,lexical_decision_task_DD_L4,2021.2.3,MacIntel,60.0024001,,,,,,,,,,,0.7881,1,,,,,,,,,,,,,,,,,,,,,,,,0.799982639,-0.155626492,0,0,0,,,,,,,MIRROR,C,z,y,./images/MIRROR.png,,,,,,,,,,,,,,,,,,,,,z,1,0.7881,,,,,,,,0,115,115,147,1
,,,,,,,,,,,,,,,,,,23,2022-02-12_13h18.17.624,lexical_decision_task_DD_L4,2021.2.3,MacIntel,60.0024001,,,,,,,,,,,0.7194,1,,,,,,,,,,,,,,,,,,,,,,,,0.799982639,-0.155626492,0,0,0,,,,,,,STREAM,LB,m,y,./images/STREAMLB.png,,,,,,,,,,,,,,,,,,,,,m,1,0.7194,,,,,,,,0,116,116,41,1
,,,,,,,,,,,,,,,,,,23,2022-02-12_13h18.17.624,lexical_decision_task_DD_L4,2021.2.3,MacIntel,60.0024001,,,,,,,,,,,0.953,1,,,,,,,,,,,,,,,,,,,,,,,,0.799982639,-0.155626492,0,0,0,,,,,,,LIZARD,LB,z,y,./images/LIZARDLB.png,,,,,,,,,,,,,,,,,,,,,z,1,0.953,,,,,,,,0,117,117,128,1
,,,,,,,,,,,,,,,,,,23,2022-02-12_13h18.17.624,lexical_decision_task_DD_L4,2021.2.3,MacIntel,60.0024001,,,,,,,,,,,0.9194,1,,,,,,,,,,,,,,,,,,,,,,,,0.799982639,-0.155626492,0,0,0,,,,,,,DIVER,C,m,y,./images/DIVER.png,,,,,,,,,,,,,,,,,,,,,m,1,0.9194,,,,,,,,0,118,118,9,1
,,,,,,,,,,,,,,,,,,23,2022-02-12_13h18.17.624,lexical_decision_task_DD_L4,2021.2.3,MacIntel,60.0024001,,,,,,,,,,,0.9637,1,,,,,,,,,,,,,,,,,,,,,,,,0.799982639,-0.155626492,0,0,0,,,,,,,VALLEY,LB,m,y,./images/VALLEYLB.png,,,,,,,,,,,,,,,,,,,,,m,1,0.9637,,,,,,,,0,119,119,68,1
,,,,,,,,,,,,,,,,,,23,2022-02-12_13h18.17.624,lexical_decision_task_DD_L4,2021.2.3,MacIntel,60.0024001,,,,,,,,,,,0.8545,1,,,,,,,,,,,,,,,,,,,,,,,,0.799982639,-0.155626492,0,0,0,,,,,,,ARTIST,HB,m,y,./images/ARTISTHB.png,,,,,,,,,,,,,,,,,,,,,m,1,0.8545,,,,,,,,0,120,120,61,1
,,,,,,,,,,,,,,,,,,23,2022-02-12_13h18.17.624,lexical_decision_task_DD_L4,2021.2.3,MacIntel,60.0024001,,,,,,,,,,,0.7342,1,,,,,,,,,,,,,,,,,,,,,,,,0.799982639,-0.155626492,0,0,0,,,,,,,CLOUD,LB,m,y,./images/CLOUDLB.png,,,,,,,,,,,,,,,,,,,,,m,1,0.7342,,,,,,,,0,121,121,26,1
,,,,,,,,,,,,,,,,,,23,2022-02-12_13h18.17.624,lexical_decision_task_DD_L4,2021.2.3,MacIntel,60.0024001,,,,,,,,,,,0.8339,1,,,,,,,,,,,,,,,,,,,,,,,,0.799982639,-0.155626492,0,0,0,,,,,,,JELLY,HB,z,y,./images/JELLYHB.png,,,,,,,,,,,,,,,,,,,,,z,1,0.8339,,,,,,,,0,122,122,148,1
,,,,,,,,,,,,,,,,,,23,2022-02-12_13h18.17.624,lexical_decision_task_DD_L4,2021.2.3,MacIntel,60.0024001,,,,,,,,,,,1.1339,1,,,,,,,,,,,,,,,,,,,,,,,,0.799982639,-0.155626492,0,0,0,,,,,,,CRUST,HB,z,y,./images/CRUSTHB.png,,,,,,,,,,,,,,,,,,,,,z,1,1.1339,,,,,,,,0,123,123,163,1
,,,,,,,,,,,,,,,,,,23,2022-02-12_13h18.17.624,lexical_decision_task_DD_L4,2021.2.3,MacIntel,60.0024001,,,,,,,,,,,0.6849,0,,,,,,,,,,,,,,,,,,,,,,,,0.799982639,-0.155626492,0,0,0,,,,,,,LADDER,LB,z,y,./images/LADDERLB.png,,,,,,,,,,,,,,,,,,,,,m,0,0.6849,,,,,,,,0,124,124,122,1
,,,,,,,,,,,,,,,,,,23,2022-02-12_13h18.17.624,lexical_decision_task_DD_L4,2021.2.3,MacIntel,60.0024001,,,,,,,,,,,0.7006,1,,,,,,,,,,,,,,,,,,,,,,,,0.799982639,-0.155626492,0,0,0,space,,,,,,RAZOR,HB,m,y,./images/RAZORHB.png,1.5725,,,,,,,,,,,,,,,,,,,,m,1,0.7006,,,,,,,,0,125,125,34,1
,,,,,,,,,,,,,,,,,,23,2022-02-12_13h18.17.624,lexical_decision_task_DD_L4,2021.2.3,MacIntel,60.0024001,,,,,,,,,,,0.8372,1,,,,,,,,,,,,,,,,,,,,,,,,0.799982639,-0.155626492,0,0,0,,,,,,,BARREL,LB,z,y,./images/BARRELLB.png,,,,,,,,,,,,,,,,,,,,,z,1,0.8372,,,,,,,,0,126,126,116,1
,,,,,,,,,,,,,,,,,,23,2022-02-12_13h18.17.624,lexical_decision_task_DD_L4,2021.2.3,MacIntel,60.0024001,,,,,,,,,,,0.6176,1,,,,,,,,,,,,,,,,,,,,,,,,0.799982639,-0.155626492,0,0,0,,,,,,,THROAT,C,z,y,./images/THROAT.png,,,,,,,,,,,,,,,,,,,,,z,1,0.6176,,,,,,,,0,127,127,120,1
,,,,,,,,,,,,,,,,,,23,2022-02-12_13h18.17.624,lexical_decision_task_DD_L4,2021.2.3,MacIntel,60.0024001,,,,,,,,,,,0.6507,1,,,,,,,,,,,,,,,,,,,,,,,,0.799982639,-0.155626492,0,0,0,,,,,,,GRANNY,LB,m,y,./images/GRANNYLB.png,,,,,,,,,,,,,,,,,,,,,m,1,0.6507,,,,,,,,0,128,128,20,1
,,,,,,,,,,,,,,,,,,23,2022-02-12_13h18.17.624,lexical_decision_task_DD_L4,2021.2.3,MacIntel,60.0024001,,,,,,,,,,,0.5865,1,,,,,,,,,,,,,,,,,,,,,,,,0.799982639,-0.155626492,0,0,0,,,,,,,PILOT,LB,m,y,./images/PILOTLB.png,,,,,,,,,,,,,,,,,,,,,m,1,0.5865,,,,,,,,0,129,129,50,1
,,,,,,,,,,,,,,,,,,23,2022-02-12_13h18.17.624,lexical_decision_task_DD_L4,2021.2.3,MacIntel,60.0024001,,,,,,,,,,,0.7996,1,,,,,,,,,,,,,,,,,,,,,,,,0.799982639,-0.155626492,0,0,0,,,,,,,CANYON,HB,z,y,./images/CANYONHB.png,,,,,,,,,,,,,,,,,,,,,z,1,0.7996,,,,,,,,0,130,130,118,1
,,,,,,,,,,,,,,,,,,23,2022-02-12_13h18.17.624,lexical_decision_task_DD_L4,2021.2.3,MacIntel,60.0024001,,,,,,,,,,,0.7678,1,,,,,,,,,,,,,,,,,,,,,,,,0.799982639,-0.155626492,0,0,0,,,,,,,JUNGLE,LB,z,y,./images/JUNGLELB.png,,,,,,,,,,,,,,,,,,,,,z,1,0.7678,,,,,,,,0,131,131,167,1
,,,,,,,,,,,,,,,,,,23,2022-02-12_13h18.17.624,lexical_decision_task_DD_L4,2021.2.3,MacIntel,60.0024001,,,,,,,,,,,0.7005,1,,,,,,,,,,,,,,,,,,,,,,,,0.799982639,-0.155626492,0,0,0,,,,,,,BAKER,C,m,y,./images/BAKER.png,,,,,,,,,,,,,,,,,,,,,m,1,0.7005,,,,,,,,0,132,132,63,1
,,,,,,,,,,,,,,,,,,23,2022-02-12_13h18.17.624,lexical_decision_task_DD_L4,2021.2.3,MacIntel,60.0024001,,,,,,,,,,,0.7682,1,,,,,,,,,,,,,,,,,,,,,,,,0.799982639,-0.155626492,0,0,0,,,,,,,ATTIC,C,z,y,./images/ATTIC.png,,,,,,,,,,,,,,,,,,,,,z,1,0.7682,,,,,,,,0,133,133,111,1
,,,,,,,,,,,,,,,,,,23,2022-02-12_13h18.17.624,lexical_decision_task_DD_L4,2021.2.3,MacIntel,60.0024001,,,,,,,,,,,0.8726,1,,,,,,,,,,,,,,,,,,,,,,,,0.799982639,-0.155626492,0,0,0,,,,,,,SNACK,HB,z,y,./images/SNACKHB.png,,,,,,,,,,,,,,,,,,,,,z,1,0.8726,,,,,,,,0,134,134,157,1
,,,,,,,,,,,,,,,,,,23,2022-02-12_13h18.17.624,lexical_decision_task_DD_L4,2021.2.3,MacIntel,60.0024001,,,,,,,,,,,1.4003,0,,,,,,,,,,,,,,,,,,,,,,,,0.799982639,-0.155626492,0,0,0,,,,,,,DANCER,C,m,y,./images/DANCER.png,,,,,,,,,,,,,,,,,,,,,z,0,1.4003,,,,,,,,0,135,135,21,1
,,,,,,,,,,,,,,,,,,23,2022-02-12_13h18.17.624,lexical_decision_task_DD_L4,2021.2.3,MacIntel,60.0024001,,,,,,,,,,,0.7338,1,,,,,,,,,,,,,,,,,,,,,,,,0.799982639,-0.155626492,0,0,0,,,,,,,SPORT,C,z,y,./images/SPORT.png,,,,,,,,,,,,,,,,,,,,,z,1,0.7338,,,,,,,,0,136,136,132,1
,,,,,,,,,,,,,,,,,,23,2022-02-12_13h18.17.624,lexical_decision_task_DD_L4,2021.2.3,MacIntel,60.0024001,,,,,,,,,,,0.6837,1,,,,,,,,,,,,,,,,,,,,,,,,0.799982639,-0.155626492,0,0,0,,,,,,,BURIAL,LB,z,y,./images/BURIALLB.png,,,,,,,,,,,,,,,,,,,,,z,1,0.6837,,,,,,,,0,137,137,143,1
,,,,,,,,,,,,,,,,,,23,2022-02-12_13h18.17.624,lexical_decision_task_DD_L4,2021.2.3,MacIntel,60.0024001,,,,,,,,,,,0.7836,1,,,,,,,,,,,,,,,,,,,,,,,,0.799982639,-0.155626492,0,0,0,,,,,,,SKIING,LB,z,y,./images/SKIINGLB.png,,,,,,,,,,,,,,,,,,,,,z,1,0.7836,,,,,,,,0,138,138,101,1
,,,,,,,,,,,,,,,,,,23,2022-02-12_13h18.17.624,lexical_decision_task_DD_L4,2021.2.3,MacIntel,60.0024001,,,,,,,,,,,0.7845,1,,,,,,,,,,,,,,,,,,,,,,,,0.799982639,-0.155626492,0,0,0,,,,,,,BERRY,LB,z,y,./images/BERRYLB.png,,,,,,,,,,,,,,,,,,,,,z,1,0.7845,,,,,,,,0,139,139,131,1
,,,,,,,,,,,,,,,,,,23,2022-02-12_13h18.17.624,lexical_decision_task_DD_L4,2021.2.3,MacIntel,60.0024001,,,,,,,,,,,0.7507,0,,,,,,,,,,,,,,,,,,,,,,,,0.799982639,-0.155626492,0,0,0,,,,,,,SCREW,C,z,y,./images/SCREW.png,,,,,,,,,,,,,,,,,,,,,m,0,0.7507,,,,,,,,0,140,140,108,1
,,,,,,,,,,,,,,,,,,23,2022-02-12_13h18.17.624,lexical_decision_task_DD_L4,2021.2.3,MacIntel,60.0024001,,,,,,,,,,,0.6504,1,,,,,,,,,,,,,,,,,,,,,,,,0.799982639,-0.155626492,0,0,0,,,,,,,MONKEY,C,m,y,./images/MONKEY.png,,,,,,,,,,,,,,,,,,,,,m,1,0.6504,,,,,,,,0,141,141,45,1
,,,,,,,,,,,,,,,,,,23,2022-02-12_13h18.17.624,lexical_decision_task_DD_L4,2021.2.3,MacIntel,60.0024001,,,,,,,,,,,0.6348,1,,,,,,,,,,,,,,,,,,,,,,,,0.799982639,-0.155626492,0,0,0,,,,,,,POSTER,LB,m,y,./images/POSTERLB.png,,,,,,,,,,,,,,,,,,,,,m,1,0.6348,,,,,,,,0,142,142,53,1
,,,,,,,,,,,,,,,,,,23,2022-02-12_13h18.17.624,lexical_decision_task_DD_L4,2021.2.3,MacIntel,60.0024001,,,,,,,,,,,0.7173,1,,,,,,,,,,,,,,,,,,,,,,,,0.799982639,-0.155626492,0,0,0,,,,,,,CURRY,C,m,y,./images/CURRY.png,,,,,,,,,,,,,,,,,,,,,m,1,0.7173,,,,,,,,0,143,143,60,1
,,,,,,,,,,,,,,,,,,23,2022-02-12_13h18.17.624,lexical_decision_task_DD_L4,2021.2.3,MacIntel,60.0024001,,,,,,,,,,,0.8199,1,,,,,,,,,,,,,,,,,,,,,,,,0.799982639,-0.155626492,0,0,0,,,,,,,PEBBLE,HB,m,y,./images/PEBBLEHB.png,,,,,,,,,,,,,,,,,,,,,m,1,0.8199,,,,,,,,0,144,144,82,1
,,,,,,,,,,,,,,,,,,23,2022-02-12_13h18.17.624,lexical_decision_task_DD_L4,2021.2.3,MacIntel,60.0024001,,,,,,,,,,,0.9226,1,,,,,,,,,,,,,,,,,,,,,,,,0.799982639,-0.155626492,0,0,0,,,,,,,WHEEL,LB,m,y,./images/WHEELLB.png,,,,,,,,,,,,,,,,,,,,,m,1,0.9226,,,,,,,,0,145,145,77,1
,,,,,,,,,,,,,,,,,,23,2022-02-12_13h18.17.624,lexical_decision_task_DD_L4,2021.2.3,MacIntel,60.0024001,,,,,,,,,,,0.7387,1,,,,,,,,,,,,,,,,,,,,,,,,0.799982639,-0.155626492,0,0,0,,,,,,,KIDNEY,C,z,y,./images/KIDNEY.png,,,,,,,,,,,,,,,,,,,,,z,1,0.7387,,,,,,,,0,146,146,105,1
,,,,,,,,,,,,,,,,,,23,2022-02-12_13h18.17.624,lexical_decision_task_DD_L4,2021.2.3,MacIntel,60.0024001,,,,,,,,,,,0.7189,1,,,,,,,,,,,,,,,,,,,,,,,,0.799982639,-0.155626492,0,0,0,,,,,,,HOCKEY,LB,m,y,./images/HOCKEYLB.png,,,,,,,,,,,,,,,,,,,,,m,1,0.7189,,,,,,,,0,147,147,32,1
,,,,,,,,,,,,,,,,,,23,2022-02-12_13h18.17.624,lexical_decision_task_DD_L4,2021.2.3,MacIntel,60.0024001,,,,,,,,,,,0.8006,1,,,,,,,,,,,,,,,,,,,,,,,,0.799982639,-0.155626492,0,0,0,,,,,,,PACKET,LB,z,y,./images/PACKETLB.png,,,,,,,,,,,,,,,,,,,,,z,1,0.8006,,,,,,,,0,148,148,140,1
,,,,,,,,,,,,,,,,,,23,2022-02-12_13h18.17.624,lexical_decision_task_DD_L4,2021.2.3,MacIntel,60.0024001,,,,,,,,,,,0.7341,1,,,,,,,,,,,,,,,,,,,,,,,,0.799982639,-0.155626492,0,0,0,,,,,,,TULIP,LB,z,y,./images/TULIPLB.png,,,,,,,,,,,,,,,,,,,,,z,1,0.7341,,,,,,,,0,149,149,92,1
,,,,,,,,,,,,,,,,,,23,2022-02-12_13h18.17.624,lexical_decision_task_DD_L4,2021.2.3,MacIntel,60.0024001,,,,,,,,,,,0.7501,1,,,,,,,,,,,,,,,,,,,,,,,,0.799982639,-0.155626492,0,0,0,,,,,,,CRUMB,LB,z,y,./images/CRUMBLB.png,,,,,,,,,,,,,,,,,,,,,z,1,0.7501,,,,,,,,0,150,150,113,1
,,,,,,,,,,,,,,,,,,23,2022-02-12_13h18.17.624,lexical_decision_task_DD_L4,2021.2.3,MacIntel,60.0024001,,,,,,,,,,,0.6499,1,,,,,,,,,,,,,,,,,,,,,,,,0.799982639,-0.155626492,0,0,0,,,,,,,POKER,HB,m,y,./images/POKERHB.png,,,,,,,,,,,,,,,,,,,,,m,1,0.6499,,,,,,,,0,151,151,67,1
,,,,,,,,,,,,,,,,,,23,2022-02-12_13h18.17.624,lexical_decision_task_DD_L4,2021.2.3,MacIntel,60.0024001,,,,,,,,,,,0.7201,1,,,,,,,,,,,,,,,,,,,,,,,,0.799982639,-0.155626492,0,0,0,,,,,,,FOLDER,C,z,y,./images/FOLDER.png,,,,,,,,,,,,,,,,,,,,,z,1,0.7201,,,,,,,,0,152,152,126,1
,,,,,,,,,,,,,,,,,,23,2022-02-12_13h18.17.624,lexical_decision_task_DD_L4,2021.2.3,MacIntel,60.0024001,,,,,,,,,,,0.817,1,,,,,,,,,,,,,,,,,,,,,,,,0.799982639,-0.155626492,0,0,0,,,,,,,POODLE,C,z,y,./images/POODLE.png,,,,,,,,,,,,,,,,,,,,,z,1,0.817,,,,,,,,0,153,153,165,1
,,,,,,,,,,,,,,,,,,23,2022-02-12_13h18.17.624,lexical_decision_task_DD_L4,2021.2.3,MacIntel,60.0024001,,,,,,,,,,,0.7201,1,,,,,,,,,,,,,,,,,,,,,,,,0.799982639,-0.155626492,0,0,0,,,,,,,PIMPLE,LB,z,y,./images/PIMPLELB.png,,,,,,,,,,,,,,,,,,,,,z,1,0.7201,,,,,,,,0,154,154,155,1
,,,,,,,,,,,,,,,,,,23,2022-02-12_13h18.17.624,lexical_decision_task_DD_L4,2021.2.3,MacIntel,60.0024001,,,,,,,,,,,0.6673,1,,,,,,,,,,,,,,,,,,,,,,,,0.799982639,-0.155626492,0,0,0,,,,,,,BASKET,LB,m,y,./images/BASKETLB.png,,,,,,,,,,,,,,,,,,,,,m,1,0.6673,,,,,,,,0,155,155,44,1
,,,,,,,,,,,,,,,,,,23,2022-02-12_13h18.17.624,lexical_decision_task_DD_L4,2021.2.3,MacIntel,60.0024001,,,,,,,,,,,0.72,1,,,,,,,,,,,,,,,,,,,,,,,,0.799982639,-0.155626492,0,0,0,,,,,,,MAMMAL,LB,m,y,./images/MAMMALLB.png,,,,,,,,,,,,,,,,,,,,,m,1,0.72,,,,,,,,0,156,156,62,1
,,,,,,,,,,,,,,,,,,23,2022-02-12_13h18.17.624,lexical_decision_task_DD_L4,2021.2.3,MacIntel,60.0024001,,,,,,,,,,,0.6686,1,,,,,,,,,,,,,,,,,,,,,,,,0.799982639,-0.155626492,0,0,0,,,,,,,BIRTH,HB,z,y,./images/BIRTHHB.png,,,,,,,,,,,,,,,,,,,,,z,1,0.6686,,,,,,,,0,157,157,121,1
,,,,,,,,,,,,,,,,,,23,2022-02-12_13h18.17.624,lexical_decision_task_DD_L4,2021.2.3,MacIntel,60.0024001,,,,,,,,,,,0.8336,1,,,,,,,,,,,,,,,,,,,,,,,,0.799982639,-0.155626492,0,0,0,,,,,,,MELON,HB,z,y,./images/MELONHB.png,,,,,,,,,,,,,,,,,,,,,z,1,0.8336,,,,,,,,0,158,158,106,1
