key_resp.keys,key_resp.rt,instr_done_touch.x,instr_done_touch.y,instr_done_touch.leftButton,instr_done_touch.midButton,instr_done_touch.rightButton,instruction_pages.thisRepN,instruction_pages.thisTrialN,instruction_pages.thisN,instruction_pages.thisIndex,instruction_pages.ran,pageN,phase,instruct_text,has_image,instruct_image,participant,age,date,expName,psychopyVersion,OS,frameRate,response.keys,response.corr,response.rt,touch_resp.x,touch_resp.y,touch_resp.leftButton,touch_resp.midButton,touch_resp.rightButton,touch_resp.time,touch_resp.clicked_name,rt,corr,practrials.thisRepN,practrials.thisTrialN,practrials.thisN,practrials.thisIndex,practrials.ran,TrialID,Target,corrAns,end_of_practice_trials_pages.thisRepN,end_of_practice_trials_pages.thisTrialN,end_of_practice_trials_pages.thisN,end_of_practice_trials_pages.thisIndex,end_of_practice_trials_pages.ran,key_resp_2.keys,key_resp_2.corr,key_resp_2.rt,targ_click.x,targ_click.y,targ_click.leftButton,targ_click.midButton,targ_click.rightButton,targ_click.time,targ_click.clicked_name,break_done_touch.x,break_done_touch.y,break_done_touch.leftButton,break_done_touch.midButton,break_done_touch.rightButton,break_done_keyboard.keys,maintrials.thisRepN,maintrials.thisTrialN,maintrials.thisN,maintrials.thisIndex,maintrials.ran,string,blur,study,lex,stim_path,break_done_keyboard.rt,mouse_2.x,mouse_2.y,mouse_2.leftButton,mouse_2.midButton,mouse_2.rightButton,mouse_2.clicked_name,slider.response,slider.rt,trials.thisRepN,trials.thisTrialN,trials.thisN,trials.thisIndex,trials.ran,instr_done_touch.clicked_name,test_instructions.thisRepN,test_instructions.thisTrialN,test_instructions.thisN,test_instructions.thisIndex,test_instructions.ran,key_resp_3.keys,key_resp_3.corr,key_resp_3.rt,test_click.x,test_click.y,test_click.leftButton,test_click.midButton,test_click.rightButton,test_click.time,test_click.clicked_name,test_phase.thisRepN,test_phase.thisTrialN,test_phase.thisN,test_phase.thisIndex,test_phase.ran
space,29.1831,0.193941504,-0.276146849,0,0,0,0,0,0,0,1,1,instructions,"INSTRUCTIONS
At the start of each trial, look at the plus sign  (+) in the center of the screen.  This tells you that a trial is about to begin and where to look. Second, the plus sign will disappear and a string of letters will appear. Your task is to determine if the string of letters is a word or not. If the item is a word press the M key (on keyboard)  or touch the word button (phone/tablet).  If the item is not a word,  press the  Z key (on keyboard)  or touch the nonword button (on phone/tablet). 
Press the space bar or touch  continue.",0,,,23,2022-02-12_12h37.55.308,lexical_decision_task_DD_L4,2021.2.3,MacIntel,59.99880002,,,,,,,,,,,,,,,,,,,,,,,,,,,,,,,,,,,,,,,,,,,,,,,,,,,,,,,,,,,,,,,,,,,,,,,,,,,,,,,,,,,,,,
space,5.4946,0.193941504,-0.276146849,0,0,0,0,1,1,1,1,2,instructions,"If your device has a keyboard, press the 'Z' key for nonwords and the 'M' key for words.





Press the space bar or touch the button below to continue.",0,keyboard-example.gif,,23,2022-02-12_12h37.55.308,lexical_decision_task_DD_L4,2021.2.3,MacIntel,59.99880002,,,,,,,,,,,,,,,,,,,,,,,,,,,,,,,,,,,,,,,,,,,,,,,,,,,,,,,,,,,,,,,,,,,,,,,,,,,,,,,,,,,,,,
space,2.337,0.193941504,-0.276146849,0,0,0,0,2,2,2,1,3,instructions,"If you are using a touchscreen only device, use the buttons on the screen. Do not use the mouse.





Press the space bar or touch the button below to continue.",0,touchscreen-example.gif,,23,2022-02-12_12h37.55.308,lexical_decision_task_DD_L4,2021.2.3,MacIntel,59.99880002,,,,,,,,,,,,,,,,,,,,,,,,,,,,,,,,,,,,,,,,,,,,,,,,,,,,,,,,,,,,,,,,,,,,,,,,,,,,,,,,,,,,,,
space,10.043,0.193941504,-0.276146849,0,0,0,0,3,3,3,1,4,instructions,"It is very important that you respond as quickly and accurately as possible, as each letter string will only be on the screen for two seconds. If you do not respond within this time, the message 'Too slow!' will be displayed and the experiment will progress to the next letter string. The first 20 trials will be practice trials and you will receive feedback on your answers. 

Press the space bar or touch the button below to start the practice trials.",0,,,23,2022-02-12_12h37.55.308,lexical_decision_task_DD_L4,2021.2.3,MacIntel,59.99880002,,,,,,,,,,,,,,,,,,,,,,,,,,,,,,,,,,,,,,,,,,,,,,,,,,,,,,,,,,,,,,,,,,,,,,,,,,,,,,,,,,,,,,
,,,,,,,,,,,,,,,,,,23,2022-02-12_12h37.55.308,lexical_decision_task_DD_L4,2021.2.3,MacIntel,59.99880002,m,0,1.041,,,,,,,,1.041,0,0,0,0,9,1,1001,FARINY,z,,,,,,,,,,,,,,,,,,,,,,,,,,,,,,,,,,,,,,,,,,,,,,,,,,,,,,,,,,,,,,,,,,
,,,,,,,,,,,,,,,,,,23,2022-02-12_12h37.55.308,lexical_decision_task_DD_L4,2021.2.3,MacIntel,59.99880002,m,1,0.8133,,,,,,,,0.8133,1,0,1,1,2,1,1001,ALMOND,m,,,,,,,,,,,,,,,,,,,,,,,,,,,,,,,,,,,,,,,,,,,,,,,,,,,,,,,,,,,,,,,,,,
,,,,,,,,,,,,,,,,,,23,2022-02-12_12h37.55.308,lexical_decision_task_DD_L4,2021.2.3,MacIntel,59.99880002,m,1,0.702,,,,,,,,0.702,1,0,2,2,4,1,1001,SQUEAK,m,,,,,,,,,,,,,,,,,,,,,,,,,,,,,,,,,,,,,,,,,,,,,,,,,,,,,,,,,,,,,,,,,,
,,,,,,,,,,,,,,,,,,23,2022-02-12_12h37.55.308,lexical_decision_task_DD_L4,2021.2.3,MacIntel,59.99880002,m,1,0.6542,,,,,,,,0.6542,1,0,3,3,6,1,1001,ZOMBIE,m,,,,,,,,,,,,,,,,,,,,,,,,,,,,,,,,,,,,,,,,,,,,,,,,,,,,,,,,,,,,,,,,,,
,,,,,,,,,,,,,,,,,,23,2022-02-12_12h37.55.308,lexical_decision_task_DD_L4,2021.2.3,MacIntel,59.99880002,m,1,0.657,,,,,,,,0.657,1,0,4,4,1,1,1001,ADJUST,m,,,,,,,,,,,,,,,,,,,,,,,,,,,,,,,,,,,,,,,,,,,,,,,,,,,,,,,,,,,,,,,,,,
,,,,,,,,,,,,,,,,,,23,2022-02-12_12h37.55.308,lexical_decision_task_DD_L4,2021.2.3,MacIntel,59.99880002,z,1,0.8163,,,,,,,,0.8163,1,0,5,5,11,1,1001,RASHET,z,,,,,,,,,,,,,,,,,,,,,,,,,,,,,,,,,,,,,,,,,,,,,,,,,,,,,,,,,,,,,,,,,,
,,,,,,,,,,,,,,,,,,23,2022-02-12_12h37.55.308,lexical_decision_task_DD_L4,2021.2.3,MacIntel,59.99880002,m,1,0.5215,,,,,,,,0.5215,1,0,6,6,7,1,1001,VOLUME,m,,,,,,,,,,,,,,,,,,,,,,,,,,,,,,,,,,,,,,,,,,,,,,,,,,,,,,,,,,,,,,,,,,
,,,,,,,,,,,,,,,,,,23,2022-02-12_12h37.55.308,lexical_decision_task_DD_L4,2021.2.3,MacIntel,59.99880002,m,1,0.5785,,,,,,,,0.5785,1,0,7,7,3,1,1001,MATRIX,m,,,,,,,,,,,,,,,,,,,,,,,,,,,,,,,,,,,,,,,,,,,,,,,,,,,,,,,,,,,,,,,,,,
,,,,,,,,,,,,,,,,,,23,2022-02-12_12h37.55.308,lexical_decision_task_DD_L4,2021.2.3,MacIntel,59.99880002,m,0,0.9679,,,,,,,,0.9679,0,0,8,8,10,1,1001,INLADE,z,,,,,,,,,,,,,,,,,,,,,,,,,,,,,,,,,,,,,,,,,,,,,,,,,,,,,,,,,,,,,,,,,,
,,,,,,,,,,,,,,,,,,23,2022-02-12_12h37.55.308,lexical_decision_task_DD_L4,2021.2.3,MacIntel,59.99880002,z,1,0.8886,,,,,,,,0.8886,1,0,9,9,12,1,1001,SPRINY,z,,,,,,,,,,,,,,,,,,,,,,,,,,,,,,,,,,,,,,,,,,,,,,,,,,,,,,,,,,,,,,,,,,
,,,,,,,,,,,,,,,,,,23,2022-02-12_12h37.55.308,lexical_decision_task_DD_L4,2021.2.3,MacIntel,59.99880002,z,1,0.7018,,,,,,,,0.7018,1,0,10,10,8,1,1001,ASLERT,z,,,,,,,,,,,,,,,,,,,,,,,,,,,,,,,,,,,,,,,,,,,,,,,,,,,,,,,,,,,,,,,,,,
,,,,,,,,,,,,,,,,,,23,2022-02-12_12h37.55.308,lexical_decision_task_DD_L4,2021.2.3,MacIntel,59.99880002,z,1,0.6602,,,,,,,,0.6602,1,0,11,11,14,1,1001,THRALE,z,,,,,,,,,,,,,,,,,,,,,,,,,,,,,,,,,,,,,,,,,,,,,,,,,,,,,,,,,,,,,,,,,,
,,,,,,,,,,,,,,,,,,23,2022-02-12_12h37.55.308,lexical_decision_task_DD_L4,2021.2.3,MacIntel,59.99880002,z,1,0.6897,,,,,,,,0.6897,1,0,12,12,15,1,1001,WHAISE,z,,,,,,,,,,,,,,,,,,,,,,,,,,,,,,,,,,,,,,,,,,,,,,,,,,,,,,,,,,,,,,,,,,
,,,,,,,,,,,,,,,,,,23,2022-02-12_12h37.55.308,lexical_decision_task_DD_L4,2021.2.3,MacIntel,59.99880002,m,1,0.6389,,,,,,,,0.6389,1,0,13,13,0,1,1001,UTOPIA,m,,,,,,,,,,,,,,,,,,,,,,,,,,,,,,,,,,,,,,,,,,,,,,,,,,,,,,,,,,,,,,,,,,
,,,,,,,,,,,,,,,,,,23,2022-02-12_12h37.55.308,lexical_decision_task_DD_L4,2021.2.3,MacIntel,59.99880002,m,1,0.6941,,,,,,,,0.6941,1,0,14,14,5,1,1001,OBTAIN,m,,,,,,,,,,,,,,,,,,,,,,,,,,,,,,,,,,,,,,,,,,,,,,,,,,,,,,,,,,,,,,,,,,
,,,,,,,,,,,,,,,,,,23,2022-02-12_12h37.55.308,lexical_decision_task_DD_L4,2021.2.3,MacIntel,59.99880002,z,1,0.6134,,,,,,,,0.6134,1,0,15,15,13,1,1001,ROUPET,z,,,,,,,,,,,,,,,,,,,,,,,,,,,,,,,,,,,,,,,,,,,,,,,,,,,,,,,,,,,,,,,,,,
space,8.8173,0.193941504,-0.276146849,0,0,0,,,,,,1,end_of_practice,"You have completed the practice trials. During the experimental trials, you will not receive feedback. 
Before you begin, please ensure that you are in a comfortable and quiet location and will not be disturbed for about 15 minutes, as we cannot use your data if you do not complete all the trials. 
 When you are ready to start the experimental trials, please press space or touch the button below.",,,,23,2022-02-12_12h37.55.308,lexical_decision_task_DD_L4,2021.2.3,MacIntel,59.99880002,,,,,,,,,,,,,,,,,,,,,0,0,0,0,1,,,,,,,,,,,,,,,,,,,,,,,,,,,,,,,,,,,,,,,,,,,,,,,,,,,,,,,,,,,,,
,,,,,,,,,,,,,,,,,,23,2022-02-12_12h37.55.308,lexical_decision_task_DD_L4,2021.2.3,MacIntel,59.99880002,,,,,,,,,,,0.828,1,,,,,,,,,,,,,,z,1,0.828,,,,,,,,0.193941504,-0.276146849,0,0,0,,0,0,0,128,1,GRIFT,LB,old,z,./images/GRIFTLB.png,,,,,,,,,,,,,,,,,,,,,,,,,,,,,,,,,,,
,,,,,,,,,,,,,,,,,,23,2022-02-12_12h37.55.308,lexical_decision_task_DD_L4,2021.2.3,MacIntel,59.99880002,,,,,,,,,,,0.789,1,,,,,,,,,,,,,,z,1,0.789,,,,,,,,0.193941504,-0.276146849,0,0,0,,0,1,1,90,1,NEAST,C,old,z,./images/NEAST.png,,,,,,,,,,,,,,,,,,,,,,,,,,,,,,,,,,,
,,,,,,,,,,,,,,,,,,23,2022-02-12_12h37.55.308,lexical_decision_task_DD_L4,2021.2.3,MacIntel,59.99880002,,,,,,,,,,,1.0624,1,,,,,,,,,,,,,,m,1,1.0624,,,,,,,,0.193941504,-0.276146849,0,0,0,,0,2,2,11,1,MEDAL,LB,old,m,./images/MEDALLB.png,,,,,,,,,,,,,,,,,,,,,,,,,,,,,,,,,,,
,,,,,,,,,,,,,,,,,,23,2022-02-12_12h37.55.308,lexical_decision_task_DD_L4,2021.2.3,MacIntel,59.99880002,,,,,,,,,,,0.6623,1,,,,,,,,,,,,,,m,1,0.6623,,,,,,,,0.193941504,-0.276146849,0,0,0,,0,3,3,9,1,DIVER,C,old,m,./images/DIVER.png,,,,,,,,,,,,,,,,,,,,,,,,,,,,,,,,,,,
,,,,,,,,,,,,,,,,,,23,2022-02-12_12h37.55.308,lexical_decision_task_DD_L4,2021.2.3,MacIntel,59.99880002,,,,,,,,,,,0.7094,1,,,,,,,,,,,,,,z,1,0.7094,,,,,,,,0.193941504,-0.276146849,0,0,0,,0,4,4,158,1,EGECT,LB,old,z,./images/EGECTLB.png,,,,,,,,,,,,,,,,,,,,,,,,,,,,,,,,,,,
,,,,,,,,,,,,,,,,,,23,2022-02-12_12h37.55.308,lexical_decision_task_DD_L4,2021.2.3,MacIntel,59.99880002,,,,,,,,,,,0.6282,1,,,,,,,,,,,,,,z,1,0.6282,,,,,,,,0.193941504,-0.276146849,0,0,0,,0,5,5,89,1,DRIEK,LB,old,z,./images/DRIEKLB.png,,,,,,,,,,,,,,,,,,,,,,,,,,,,,,,,,,,
,,,,,,,,,,,,,,,,,,23,2022-02-12_12h37.55.308,lexical_decision_task_DD_L4,2021.2.3,MacIntel,59.99880002,,,,,,,,,,,0.5772,1,,,,,,,,,,,,,,z,1,0.5772,,,,,,,,0.193941504,-0.276146849,0,0,0,,0,6,6,86,1,AIFED,LB,old,z,./images/AIFEDLB.png,,,,,,,,,,,,,,,,,,,,,,,,,,,,,,,,,,,
,,,,,,,,,,,,,,,,,,23,2022-02-12_12h37.55.308,lexical_decision_task_DD_L4,2021.2.3,MacIntel,59.99880002,,,,,,,,,,,0.6859,1,,,,,,,,,,,,,,z,1,0.6859,,,,,,,,0.193941504,-0.276146849,0,0,0,,0,7,7,147,1,ZOLES,C,old,z,./images/ZOLES.png,,,,,,,,,,,,,,,,,,,,,,,,,,,,,,,,,,,
,,,,,,,,,,,,,,,,,,23,2022-02-12_12h37.55.308,lexical_decision_task_DD_L4,2021.2.3,MacIntel,59.99880002,,,,,,,,,,,0.5319,1,,,,,,,,,,,,,,m,1,0.5319,,,,,,,,0.193941504,-0.276146849,0,0,0,,0,8,8,39,1,CANDY,C,old,m,./images/CANDY.png,,,,,,,,,,,,,,,,,,,,,,,,,,,,,,,,,,,
,,,,,,,,,,,,,,,,,,23,2022-02-12_12h37.55.308,lexical_decision_task_DD_L4,2021.2.3,MacIntel,59.99880002,,,,,,,,,,,1.1668,1,,,,,,,,,,,,,,m,1,1.1668,,,,,,,,0.193941504,-0.276146849,0,0,0,,0,9,9,82,1,PEBBLE,HB,old,m,./images/PEBBLEHB.png,,,,,,,,,,,,,,,,,,,,,,,,,,,,,,,,,,,
,,,,,,,,,,,,,,,,,,23,2022-02-12_12h37.55.308,lexical_decision_task_DD_L4,2021.2.3,MacIntel,59.99880002,,,,,,,,,,,0.629,1,,,,,,,,,,,,,,m,1,0.629,,,,,,,,0.193941504,-0.276146849,0,0,0,,0,10,10,17,1,PARADE,LB,old,m,./images/PARADELB.png,,,,,,,,,,,,,,,,,,,,,,,,,,,,,,,,,,,
,,,,,,,,,,,,,,,,,,23,2022-02-12_12h37.55.308,lexical_decision_task_DD_L4,2021.2.3,MacIntel,59.99880002,,,,,,,,,,,0.8755,1,,,,,,,,,,,,,,z,1,0.8755,,,,,,,,0.193941504,-0.276146849,0,0,0,,0,11,11,160,1,VEETS,HB,old,z,./images/VEETSHB.png,,,,,,,,,,,,,,,,,,,,,,,,,,,,,,,,,,,
,,,,,,,,,,,,,,,,,,23,2022-02-12_12h37.55.308,lexical_decision_task_DD_L4,2021.2.3,MacIntel,59.99880002,,,,,,,,,,,0.7751,1,,,,,,,,,,,,,,z,1,0.7751,,,,,,,,0.193941504,-0.276146849,0,0,0,,0,12,12,84,1,HAXES,C,old,z,./images/HAXES.png,,,,,,,,,,,,,,,,,,,,,,,,,,,,,,,,,,,
,,,,,,,,,,,,,,,,,,23,2022-02-12_12h37.55.308,lexical_decision_task_DD_L4,2021.2.3,MacIntel,59.99880002,,,,,,,,,,,0.5808,1,,,,,,,,,,,,,,m,1,0.5808,,,,,,,,0.193941504,-0.276146849,0,0,0,,0,13,13,45,1,MONKEY,C,old,m,./images/MONKEY.png,,,,,,,,,,,,,,,,,,,,,,,,,,,,,,,,,,,
,,,,,,,,,,,,,,,,,,23,2022-02-12_12h37.55.308,lexical_decision_task_DD_L4,2021.2.3,MacIntel,59.99880002,,,,,,,,,,,0.8158,1,,,,,,,,,,,,,,z,1,0.8158,,,,,,,,0.193941504,-0.276146849,0,0,0,,0,14,14,93,1,SMONE,C,old,z,./images/SMONE.png,,,,,,,,,,,,,,,,,,,,,,,,,,,,,,,,,,,
,,,,,,,,,,,,,,,,,,23,2022-02-12_12h37.55.308,lexical_decision_task_DD_L4,2021.2.3,MacIntel,59.99880002,,,,,,,,,,,0.6982,1,,,,,,,,,,,,,,z,1,0.6982,,,,,,,,0.193941504,-0.276146849,0,0,0,,0,15,15,111,1,HOSSE,C,old,z,./images/HOSSE.png,,,,,,,,,,,,,,,,,,,,,,,,,,,,,,,,,,,
,,,,,,,,,,,,,,,,,,23,2022-02-12_12h37.55.308,lexical_decision_task_DD_L4,2021.2.3,MacIntel,59.99880002,,,,,,,,,,,0.7165,1,,,,,,,,,,,,,,m,1,0.7165,,,,,,,,0.193941504,-0.276146849,0,0,0,,0,16,16,58,1,CANOE,HB,old,m,./images/CANOEHB.png,,,,,,,,,,,,,,,,,,,,,,,,,,,,,,,,,,,
,,,,,,,,,,,,,,,,,,23,2022-02-12_12h37.55.308,lexical_decision_task_DD_L4,2021.2.3,MacIntel,59.99880002,,,,,,,,,,,0.9076,1,,,,,,,,,,,,,,z,1,0.9076,,,,,,,,0.193941504,-0.276146849,0,0,0,,0,17,17,107,1,FASKS,LB,old,z,./images/FASKSLB.png,,,,,,,,,,,,,,,,,,,,,,,,,,,,,,,,,,,
,,,,,,,,,,,,,,,,,,23,2022-02-12_12h37.55.308,lexical_decision_task_DD_L4,2021.2.3,MacIntel,59.99880002,,,,,,,,,,,0.6015,1,,,,,,,,,,,,,,m,1,0.6015,,,,,,,,0.193941504,-0.276146849,0,0,0,,0,18,18,69,1,ARROW,C,old,m,./images/ARROW.png,,,,,,,,,,,,,,,,,,,,,,,,,,,,,,,,,,,
,,,,,,,,,,,,,,,,,,23,2022-02-12_12h37.55.308,lexical_decision_task_DD_L4,2021.2.3,MacIntel,59.99880002,,,,,,,,,,,0.5504,1,,,,,,,,,,,,,,m,1,0.5504,,,,,,,,0.193941504,-0.276146849,0,0,0,,0,19,19,32,1,HOCKEY,LB,old,m,./images/HOCKEYLB.png,,,,,,,,,,,,,,,,,,,,,,,,,,,,,,,,,,,
,,,,,,,,,,,,,,,,,,23,2022-02-12_12h37.55.308,lexical_decision_task_DD_L4,2021.2.3,MacIntel,59.99880002,,,,,,,,,,,0.9429,1,,,,,,,,,,,,,,z,1,0.9429,,,,,,,,0.193941504,-0.276146849,0,0,0,,0,20,20,121,1,CEERS,HB,old,z,./images/CEERSHB.png,,,,,,,,,,,,,,,,,,,,,,,,,,,,,,,,,,,
,,,,,,,,,,,,,,,,,,23,2022-02-12_12h37.55.308,lexical_decision_task_DD_L4,2021.2.3,MacIntel,59.99880002,,,,,,,,,,,0.7071,1,,,,,,,,,,,,,,z,1,0.7071,,,,,,,,0.193941504,-0.276146849,0,0,0,,0,21,21,108,1,GRUET,C,old,z,./images/GRUET.png,,,,,,,,,,,,,,,,,,,,,,,,,,,,,,,,,,,
,,,,,,,,,,,,,,,,,,23,2022-02-12_12h37.55.308,lexical_decision_task_DD_L4,2021.2.3,MacIntel,59.99880002,,,,,,,,,,,1.1571,1,,,,,,,,,,,,,,z,1,1.1571,,,,,,,,0.193941504,-0.276146849,0,0,0,,0,22,22,112,1,MYING,HB,old,z,./images/MYINGHB.png,,,,,,,,,,,,,,,,,,,,,,,,,,,,,,,,,,,
,,,,,,,,,,,,,,,,,,23,2022-02-12_12h37.55.308,lexical_decision_task_DD_L4,2021.2.3,MacIntel,59.99880002,,,,,,,,,,,0.5853,1,,,,,,,,,,,,,,m,1,0.5853,,,,,,,,0.193941504,-0.276146849,0,0,0,,0,23,23,24,1,FLESH,C,old,m,./images/FLESH.png,,,,,,,,,,,,,,,,,,,,,,,,,,,,,,,,,,,
,,,,,,,,,,,,,,,,,,23,2022-02-12_12h37.55.308,lexical_decision_task_DD_L4,2021.2.3,MacIntel,59.99880002,,,,,,,,,,,0.5206,1,,,,,,,,,,,,,,m,1,0.5206,,,,,,,,0.193941504,-0.276146849,0,0,0,,0,24,24,65,1,SPINE,LB,old,m,./images/SPINELB.png,,,,,,,,,,,,,,,,,,,,,,,,,,,,,,,,,,,
,,,,,,,,,,,,,,,,,,23,2022-02-12_12h37.55.308,lexical_decision_task_DD_L4,2021.2.3,MacIntel,59.99880002,,,,,,,,,,,0.5778,1,,,,,,,,,,,,,,z,1,0.5778,,,,,,,,0.193941504,-0.276146849,0,0,0,,0,25,25,135,1,JOODY,C,old,z,./images/JOODY.png,,,,,,,,,,,,,,,,,,,,,,,,,,,,,,,,,,,
,,,,,,,,,,,,,,,,,,23,2022-02-12_12h37.55.308,lexical_decision_task_DD_L4,2021.2.3,MacIntel,59.99880002,,,,,,,,,,,0.5776,1,,,,,,,,,,,,,,m,1,0.5776,,,,,,,,0.193941504,-0.276146849,0,0,0,,0,26,26,18,1,PARCEL,C,old,m,./images/PARCEL.png,,,,,,,,,,,,,,,,,,,,,,,,,,,,,,,,,,,
,,,,,,,,,,,,,,,,,,23,2022-02-12_12h37.55.308,lexical_decision_task_DD_L4,2021.2.3,MacIntel,59.99880002,,,,,,,,,,,0.636,1,,,,,,,,,,,,,,z,1,0.636,,,,,,,,0.193941504,-0.276146849,0,0,0,,0,27,27,162,1,LEICH,C,old,z,./images/LEICH.png,,,,,,,,,,,,,,,,,,,,,,,,,,,,,,,,,,,
,,,,,,,,,,,,,,,,,,23,2022-02-12_12h37.55.308,lexical_decision_task_DD_L4,2021.2.3,MacIntel,59.99880002,,,,,,,,,,,0.9265,1,,,,,,,,,,,,,,m,1,0.9265,,,,,,,,0.193941504,-0.276146849,0,0,0,,0,28,28,55,1,ALLEY,HB,old,m,./images/ALLEYHB.png,,,,,,,,,,,,,,,,,,,,,,,,,,,,,,,,,,,
,,,,,,,,,,,,,,,,,,23,2022-02-12_12h37.55.308,lexical_decision_task_DD_L4,2021.2.3,MacIntel,59.99880002,,,,,,,,,,,0.9159,1,,,,,,,,,,,,,,m,1,0.9159,,,,,,,,0.193941504,-0.276146849,0,0,0,,0,29,29,67,1,POKER,HB,old,m,./images/POKERHB.png,,,,,,,,,,,,,,,,,,,,,,,,,,,,,,,,,,,
,,,,,,,,,,,,,,,,,,23,2022-02-12_12h37.55.308,lexical_decision_task_DD_L4,2021.2.3,MacIntel,59.99880002,,,,,,,,,,,0.5916,1,,,,,,,,,,,,,,m,1,0.5916,,,,,,,,0.193941504,-0.276146849,0,0,0,,0,30,30,0,1,WALNUT,C,old,m,./images/WALNUT.png,,,,,,,,,,,,,,,,,,,,,,,,,,,,,,,,,,,
,,,,,,,,,,,,,,,,,,23,2022-02-12_12h37.55.308,lexical_decision_task_DD_L4,2021.2.3,MacIntel,59.99880002,,,,,,,,,,,0.8262,1,,,,,,,,,,,,,,z,1,0.8262,,,,,,,,0.193941504,-0.276146849,0,0,0,,0,31,31,87,1,TRING,C,old,z,./images/TRING.png,,,,,,,,,,,,,,,,,,,,,,,,,,,,,,,,,,,
,,,,,,,,,,,,,,,,,,23,2022-02-12_12h37.55.308,lexical_decision_task_DD_L4,2021.2.3,MacIntel,59.99880002,,,,,,,,,,,0.658,1,,,,,,,,,,,,,,m,1,0.658,,,,,,,,0.193941504,-0.276146849,0,0,0,,0,32,32,20,1,GRANNY,LB,old,m,./images/GRANNYLB.png,,,,,,,,,,,,,,,,,,,,,,,,,,,,,,,,,,,
,,,,,,,,,,,,,,,,,,23,2022-02-12_12h37.55.308,lexical_decision_task_DD_L4,2021.2.3,MacIntel,59.99880002,,,,,,,,,,,0.8409,1,,,,,,,,,,,,,,m,1,0.8409,,,,,,,,0.193941504,-0.276146849,0,0,0,,0,33,33,34,1,RAZOR,HB,old,m,./images/RAZORHB.png,,,,,,,,,,,,,,,,,,,,,,,,,,,,,,,,,,,
,,,,,,,,,,,,,,,,,,23,2022-02-12_12h37.55.308,lexical_decision_task_DD_L4,2021.2.3,MacIntel,59.99880002,,,,,,,,,,,0.6756,1,,,,,,,,,,,,,,m,1,0.6756,,,,,,,,0.193941504,-0.276146849,0,0,0,,0,34,34,8,1,CLIFF,LB,old,m,./images/CLIFFLB.png,,,,,,,,,,,,,,,,,,,,,,,,,,,,,,,,,,,
,,,,,,,,,,,,,,,,,,23,2022-02-12_12h37.55.308,lexical_decision_task_DD_L4,2021.2.3,MacIntel,59.99880002,,,,,,,,,,,0.7076,1,,,,,,,,,,,,,,m,1,0.7076,,,,,,,,0.193941504,-0.276146849,0,0,0,,0,35,35,60,1,CURRY,C,old,m,./images/CURRY.png,,,,,,,,,,,,,,,,,,,,,,,,,,,,,,,,,,,
,,,,,,,,,,,,,,,,,,23,2022-02-12_12h37.55.308,lexical_decision_task_DD_L4,2021.2.3,MacIntel,59.99880002,,,,,,,,,,,0.8585,1,,,,,,,,,,,,,,m,1,0.8585,,,,,,,,0.193941504,-0.276146849,0,0,0,,0,36,36,14,1,FENCE,LB,old,m,./images/FENCELB.png,,,,,,,,,,,,,,,,,,,,,,,,,,,,,,,,,,,
,,,,,,,,,,,,,,,,,,23,2022-02-12_12h37.55.308,lexical_decision_task_DD_L4,2021.2.3,MacIntel,59.99880002,,,,,,,,,,,0.8367,1,,,,,,,,,,,,,,m,1,0.8367,,,,,,,,0.193941504,-0.276146849,0,0,0,,0,37,37,4,1,BOXER,HB,old,m,./images/BOXERHB.png,,,,,,,,,,,,,,,,,,,,,,,,,,,,,,,,,,,
,,,,,,,,,,,,,,,,,,23,2022-02-12_12h37.55.308,lexical_decision_task_DD_L4,2021.2.3,MacIntel,59.99880002,,,,,,,,,,,1.1041,1,,,,,,,,,,,,,,z,1,1.1041,,,,,,,,0.193941504,-0.276146849,0,0,0,,0,38,38,165,1,TROWN,C,old,z,./images/TROWN.png,,,,,,,,,,,,,,,,,,,,,,,,,,,,,,,,,,,
,,,,,,,,,,,,,,,,,,23,2022-02-12_12h37.55.308,lexical_decision_task_DD_L4,2021.2.3,MacIntel,59.99880002,,,,,,,,,,,1.1936,1,,,,,,,,,,,,,,z,1,1.1936,,,,,,,,0.193941504,-0.276146849,0,0,0,,0,39,39,118,1,BAVEL,HB,old,z,./images/BAVELHB.png,,,,,,,,,,,,,,,,,,,,,,,,,,,,,,,,,,,
,,,,,,,,,,,,,,,,,,23,2022-02-12_12h37.55.308,lexical_decision_task_DD_L4,2021.2.3,MacIntel,59.99880002,,,,,,,,,,,1.2602,1,,,,,,,,,,,,,,z,1,1.2602,,,,,,,,0.193941504,-0.276146849,0,0,0,,0,40,40,94,1,BLANS,HB,old,z,./images/BLANSHB.png,,,,,,,,,,,,,,,,,,,,,,,,,,,,,,,,,,,
,,,,,,,,,,,,,,,,,,23,2022-02-12_12h37.55.308,lexical_decision_task_DD_L4,2021.2.3,MacIntel,59.99880002,,,,,,,,,,,0.5149,1,,,,,,,,,,,,,,m,1,0.5149,,,,,,,,0.193941504,-0.276146849,0,0,0,space,0,41,41,75,1,HAMMER,C,old,m,./images/HAMMER.png,4.7984,,,,,,,,,,,,,,,,,,,,,,,,,,,,,,,,,,
,,,,,,,,,,,,,,,,,,23,2022-02-12_12h37.55.308,lexical_decision_task_DD_L4,2021.2.3,MacIntel,59.99880002,,,,,,,,,,,0.8436,1,,,,,,,,,,,,,,m,1,0.8436,,,,,,,,0.193941504,-0.276146849,0,0,0,,0,42,42,46,1,MUMMY,HB,old,m,./images/MUMMYHB.png,,,,,,,,,,,,,,,,,,,,,,,,,,,,,,,,,,,
,,,,,,,,,,,,,,,,,,23,2022-02-12_12h37.55.308,lexical_decision_task_DD_L4,2021.2.3,MacIntel,59.99880002,,,,,,,,,,,1.7297,0,,,,,,,,,,,,,,m,0,1.7297,,,,,,,,0.193941504,-0.276146849,0,0,0,,0,43,43,166,1,SHORY,HB,old,z,./images/SHORYHB.png,,,,,,,,,,,,,,,,,,,,,,,,,,,,,,,,,,,
,,,,,,,,,,,,,,,,,,23,2022-02-12_12h37.55.308,lexical_decision_task_DD_L4,2021.2.3,MacIntel,59.99880002,,,,,,,,,,,0.9615,1,,,,,,,,,,,,,,m,1,0.9615,,,,,,,,0.193941504,-0.276146849,0,0,0,,0,44,44,10,1,GARDEN,HB,old,m,./images/GARDENHB.png,,,,,,,,,,,,,,,,,,,,,,,,,,,,,,,,,,,
,,,,,,,,,,,,,,,,,,23,2022-02-12_12h37.55.308,lexical_decision_task_DD_L4,2021.2.3,MacIntel,59.99880002,,,,,,,,,,,0.742,1,,,,,,,,,,,,,,z,1,0.742,,,,,,,,0.193941504,-0.276146849,0,0,0,,0,45,45,92,1,PAIMS,LB,old,z,./images/PAIMSLB.png,,,,,,,,,,,,,,,,,,,,,,,,,,,,,,,,,,,
,,,,,,,,,,,,,,,,,,23,2022-02-12_12h37.55.308,lexical_decision_task_DD_L4,2021.2.3,MacIntel,59.99880002,,,,,,,,,,,0.7239,1,,,,,,,,,,,,,,m,1,0.7239,,,,,,,,0.193941504,-0.276146849,0,0,0,,0,46,46,5,1,BAMBOO,LB,old,m,./images/BAMBOOLB.png,,,,,,,,,,,,,,,,,,,,,,,,,,,,,,,,,,,
,,,,,,,,,,,,,,,,,,23,2022-02-12_12h37.55.308,lexical_decision_task_DD_L4,2021.2.3,MacIntel,59.99880002,,,,,,,,,,,0.7303,1,,,,,,,,,,,,,,z,1,0.7303,,,,,,,,0.193941504,-0.276146849,0,0,0,,0,47,47,113,1,LINEW,LB,old,z,./images/LINEWLB.png,,,,,,,,,,,,,,,,,,,,,,,,,,,,,,,,,,,
,,,,,,,,,,,,,,,,,,23,2022-02-12_12h37.55.308,lexical_decision_task_DD_L4,2021.2.3,MacIntel,59.99880002,,,,,,,,,,,0.746,1,,,,,,,,,,,,,,z,1,0.746,,,,,,,,0.193941504,-0.276146849,0,0,0,,0,48,48,146,1,MOOST,LB,old,z,./images/MOOSTLB.png,,,,,,,,,,,,,,,,,,,,,,,,,,,,,,,,,,,
,,,,,,,,,,,,,,,,,,23,2022-02-12_12h37.55.308,lexical_decision_task_DD_L4,2021.2.3,MacIntel,59.99880002,,,,,,,,,,,0.9856,1,,,,,,,,,,,,,,z,1,0.9856,,,,,,,,0.193941504,-0.276146849,0,0,0,,0,49,49,120,1,RINED,C,old,z,./images/RINED.png,,,,,,,,,,,,,,,,,,,,,,,,,,,,,,,,,,,
,,,,,,,,,,,,,,,,,,23,2022-02-12_12h37.55.308,lexical_decision_task_DD_L4,2021.2.3,MacIntel,59.99880002,,,,,,,,,,,0.8131,1,,,,,,,,,,,,,,m,1,0.8131,,,,,,,,0.193941504,-0.276146849,0,0,0,,0,50,50,13,1,BUNNY,HB,old,m,./images/BUNNYHB.png,,,,,,,,,,,,,,,,,,,,,,,,,,,,,,,,,,,
,,,,,,,,,,,,,,,,,,23,2022-02-12_12h37.55.308,lexical_decision_task_DD_L4,2021.2.3,MacIntel,59.99880002,,,,,,,,,,,1.1475,0,,,,,,,,,,,,,,m,0,1.1475,,,,,,,,0.193941504,-0.276146849,0,0,0,,0,51,51,130,1,CRILL,HB,old,z,./images/CRILLHB.png,,,,,,,,,,,,,,,,,,,,,,,,,,,,,,,,,,,
,,,,,,,,,,,,,,,,,,23,2022-02-12_12h37.55.308,lexical_decision_task_DD_L4,2021.2.3,MacIntel,59.99880002,,,,,,,,,,,0.635,1,,,,,,,,,,,,,,m,1,0.635,,,,,,,,0.193941504,-0.276146849,0,0,0,,0,52,52,35,1,LLAMA,LB,old,m,./images/LLAMALB.png,,,,,,,,,,,,,,,,,,,,,,,,,,,,,,,,,,,
,,,,,,,,,,,,,,,,,,23,2022-02-12_12h37.55.308,lexical_decision_task_DD_L4,2021.2.3,MacIntel,59.99880002,,,,,,,,,,,0.9052,1,,,,,,,,,,,,,,m,1,0.9052,,,,,,,,0.193941504,-0.276146849,0,0,0,,0,53,53,12,1,BLOKE,C,old,m,./images/BLOKE.png,,,,,,,,,,,,,,,,,,,,,,,,,,,,,,,,,,,
,,,,,,,,,,,,,,,,,,23,2022-02-12_12h37.55.308,lexical_decision_task_DD_L4,2021.2.3,MacIntel,59.99880002,,,,,,,,,,,1.149,1,,,,,,,,,,,,,,m,1,1.149,,,,,,,,0.193941504,-0.276146849,0,0,0,,0,54,54,28,1,CASINO,HB,old,m,./images/CASINOHB.png,,,,,,,,,,,,,,,,,,,,,,,,,,,,,,,,,,,
,,,,,,,,,,,,,,,,,,23,2022-02-12_12h37.55.308,lexical_decision_task_DD_L4,2021.2.3,MacIntel,59.99880002,,,,,,,,,,,0.5588,1,,,,,,,,,,,,,,m,1,0.5588,,,,,,,,0.193941504,-0.276146849,0,0,0,,0,55,55,53,1,POSTER,LB,old,m,./images/POSTERLB.png,,,,,,,,,,,,,,,,,,,,,,,,,,,,,,,,,,,
,,,,,,,,,,,,,,,,,,23,2022-02-12_12h37.55.308,lexical_decision_task_DD_L4,2021.2.3,MacIntel,59.99880002,,,,,,,,,,,0.4823,1,,,,,,,,,,,,,,m,1,0.4823,,,,,,,,0.193941504,-0.276146849,0,0,0,,0,56,56,74,1,JUMPER,LB,old,m,./images/JUMPERLB.png,,,,,,,,,,,,,,,,,,,,,,,,,,,,,,,,,,,
,,,,,,,,,,,,,,,,,,23,2022-02-12_12h37.55.308,lexical_decision_task_DD_L4,2021.2.3,MacIntel,59.99880002,,,,,,,,,,,0.8261,1,,,,,,,,,,,,,,z,1,0.8261,,,,,,,,0.193941504,-0.276146849,0,0,0,,0,57,57,153,1,CLUPS,C,old,z,./images/CLUPS.png,,,,,,,,,,,,,,,,,,,,,,,,,,,,,,,,,,,
,,,,,,,,,,,,,,,,,,23,2022-02-12_12h37.55.308,lexical_decision_task_DD_L4,2021.2.3,MacIntel,59.99880002,,,,,,,,,,,0.5966,1,,,,,,,,,,,,,,z,1,0.5966,,,,,,,,0.193941504,-0.276146849,0,0,0,,0,58,58,156,1,HIXES,C,old,z,./images/HIXES.png,,,,,,,,,,,,,,,,,,,,,,,,,,,,,,,,,,,
,,,,,,,,,,,,,,,,,,23,2022-02-12_12h37.55.308,lexical_decision_task_DD_L4,2021.2.3,MacIntel,59.99880002,,,,,,,,,,,1.6147,1,,,,,,,,,,,,,,z,1,1.6147,,,,,,,,0.193941504,-0.276146849,0,0,0,,0,59,59,104,1,GITTY,LB,old,z,./images/GITTYLB.png,,,,,,,,,,,,,,,,,,,,,,,,,,,,,,,,,,,
,,,,,,,,,,,,,,,,,,23,2022-02-12_12h37.55.308,lexical_decision_task_DD_L4,2021.2.3,MacIntel,59.99880002,,,,,,,,,,,0.6636,1,,,,,,,,,,,,,,m,1,0.6636,,,,,,,,0.193941504,-0.276146849,0,0,0,,0,60,60,16,1,GRAPE,HB,old,m,./images/GRAPEHB.png,,,,,,,,,,,,,,,,,,,,,,,,,,,,,,,,,,,
,,,,,,,,,,,,,,,,,,23,2022-02-12_12h37.55.308,lexical_decision_task_DD_L4,2021.2.3,MacIntel,59.99880002,,,,,,,,,,,0.8485,0,,,,,,,,,,,,,,m,0,0.8485,,,,,,,,0.193941504,-0.276146849,0,0,0,,0,61,61,109,1,BURGE,HB,old,z,./images/BURGEHB.png,,,,,,,,,,,,,,,,,,,,,,,,,,,,,,,,,,,
,,,,,,,,,,,,,,,,,,23,2022-02-12_12h37.55.308,lexical_decision_task_DD_L4,2021.2.3,MacIntel,59.99880002,,,,,,,,,,,0.5662,1,,,,,,,,,,,,,,m,1,0.5662,,,,,,,,0.193941504,-0.276146849,0,0,0,,0,62,62,66,1,STATUE,C,old,m,./images/STATUE.png,,,,,,,,,,,,,,,,,,,,,,,,,,,,,,,,,,,
,,,,,,,,,,,,,,,,,,23,2022-02-12_12h37.55.308,lexical_decision_task_DD_L4,2021.2.3,MacIntel,59.99880002,,,,,,,,,,,0.5458,1,,,,,,,,,,,,,,m,1,0.5458,,,,,,,,0.193941504,-0.276146849,0,0,0,,0,63,63,38,1,ENGINE,LB,old,m,./images/ENGINELB.png,,,,,,,,,,,,,,,,,,,,,,,,,,,,,,,,,,,
,,,,,,,,,,,,,,,,,,23,2022-02-12_12h37.55.308,lexical_decision_task_DD_L4,2021.2.3,MacIntel,59.99880002,,,,,,,,,,,0.5911,1,,,,,,,,,,,,,,m,1,0.5911,,,,,,,,0.193941504,-0.276146849,0,0,0,,0,64,64,21,1,DANCER,C,old,m,./images/DANCER.png,,,,,,,,,,,,,,,,,,,,,,,,,,,,,,,,,,,
,,,,,,,,,,,,,,,,,,23,2022-02-12_12h37.55.308,lexical_decision_task_DD_L4,2021.2.3,MacIntel,59.99880002,,,,,,,,,,,0.732,1,,,,,,,,,,,,,,z,1,0.732,,,,,,,,0.193941504,-0.276146849,0,0,0,,0,65,65,134,1,TROSS,LB,old,z,./images/TROSSLB.png,,,,,,,,,,,,,,,,,,,,,,,,,,,,,,,,,,,
,,,,,,,,,,,,,,,,,,23,2022-02-12_12h37.55.308,lexical_decision_task_DD_L4,2021.2.3,MacIntel,59.99880002,,,,,,,,,,,0.5785,1,,,,,,,,,,,,,,m,1,0.5785,,,,,,,,0.193941504,-0.276146849,0,0,0,,0,66,66,41,1,STREAM,LB,old,m,./images/STREAMLB.png,,,,,,,,,,,,,,,,,,,,,,,,,,,,,,,,,,,
,,,,,,,,,,,,,,,,,,23,2022-02-12_12h37.55.308,lexical_decision_task_DD_L4,2021.2.3,MacIntel,59.99880002,,,,,,,,,,,0.7824,1,,,,,,,,,,,,,,z,1,0.7824,,,,,,,,0.193941504,-0.276146849,0,0,0,,0,67,67,125,1,MOOKY,LB,old,z,./images/MOOKYLB.png,,,,,,,,,,,,,,,,,,,,,,,,,,,,,,,,,,,
,,,,,,,,,,,,,,,,,,23,2022-02-12_12h37.55.308,lexical_decision_task_DD_L4,2021.2.3,MacIntel,59.99880002,,,,,,,,,,,1.042,1,,,,,,,,,,,,,,m,1,1.042,,,,,,,,0.193941504,-0.276146849,0,0,0,,0,68,68,76,1,MIDGET,HB,old,m,./images/MIDGETHB.png,,,,,,,,,,,,,,,,,,,,,,,,,,,,,,,,,,,
,,,,,,,,,,,,,,,,,,23,2022-02-12_12h37.55.308,lexical_decision_task_DD_L4,2021.2.3,MacIntel,59.99880002,,,,,,,,,,,0.625,1,,,,,,,,,,,,,,m,1,0.625,,,,,,,,0.193941504,-0.276146849,0,0,0,,0,69,69,83,1,WHISKY,LB,old,m,./images/WHISKYLB.png,,,,,,,,,,,,,,,,,,,,,,,,,,,,,,,,,,,
,,,,,,,,,,,,,,,,,,23,2022-02-12_12h37.55.308,lexical_decision_task_DD_L4,2021.2.3,MacIntel,59.99880002,,,,,,,,,,,0.648,1,,,,,,,,,,,,,,m,1,0.648,,,,,,,,0.193941504,-0.276146849,0,0,0,,0,70,70,49,1,BISHOP,HB,old,m,./images/BISHOPHB.png,,,,,,,,,,,,,,,,,,,,,,,,,,,,,,,,,,,
,,,,,,,,,,,,,,,,,,23,2022-02-12_12h37.55.308,lexical_decision_task_DD_L4,2021.2.3,MacIntel,59.99880002,,,,,,,,,,,0.6436,1,,,,,,,,,,,,,,m,1,0.6436,,,,,,,,0.193941504,-0.276146849,0,0,0,,0,71,71,52,1,DESERT,HB,old,m,./images/DESERTHB.png,,,,,,,,,,,,,,,,,,,,,,,,,,,,,,,,,,,
,,,,,,,,,,,,,,,,,,23,2022-02-12_12h37.55.308,lexical_decision_task_DD_L4,2021.2.3,MacIntel,59.99880002,,,,,,,,,,,0.5642,1,,,,,,,,,,,,,,m,1,0.5642,,,,,,,,0.193941504,-0.276146849,0,0,0,,0,72,72,43,1,STOOL,HB,old,m,./images/STOOLHB.png,,,,,,,,,,,,,,,,,,,,,,,,,,,,,,,,,,,
,,,,,,,,,,,,,,,,,,23,2022-02-12_12h37.55.308,lexical_decision_task_DD_L4,2021.2.3,MacIntel,59.99880002,,,,,,,,,,,0.9573,1,,,,,,,,,,,,,,z,1,0.9573,,,,,,,,0.193941504,-0.276146849,0,0,0,,0,73,73,115,1,MAWNS,HB,old,z,./images/MAWNSHB.png,,,,,,,,,,,,,,,,,,,,,,,,,,,,,,,,,,,
,,,,,,,,,,,,,,,,,,23,2022-02-12_12h37.55.308,lexical_decision_task_DD_L4,2021.2.3,MacIntel,59.99880002,,,,,,,,,,,0.6145,1,,,,,,,,,,,,,,m,1,0.6145,,,,,,,,0.193941504,-0.276146849,0,0,0,,0,74,74,30,1,SLOPE,C,old,m,./images/SLOPE.png,,,,,,,,,,,,,,,,,,,,,,,,,,,,,,,,,,,
,,,,,,,,,,,,,,,,,,23,2022-02-12_12h37.55.308,lexical_decision_task_DD_L4,2021.2.3,MacIntel,59.99880002,,,,,,,,,,,0.8796,0,,,,,,,,,,,,,,m,0,0.8796,,,,,,,,0.193941504,-0.276146849,0,0,0,,0,75,75,141,1,PLEET,C,old,z,./images/PLEET.png,,,,,,,,,,,,,,,,,,,,,,,,,,,,,,,,,,,
,,,,,,,,,,,,,,,,,,23,2022-02-12_12h37.55.308,lexical_decision_task_DD_L4,2021.2.3,MacIntel,59.99880002,,,,,,,,,,,0.4953,1,,,,,,,,,,,,,,m,1,0.4953,,,,,,,,0.193941504,-0.276146849,0,0,0,,0,76,76,42,1,CHAIN,C,old,m,./images/CHAIN.png,,,,,,,,,,,,,,,,,,,,,,,,,,,,,,,,,,,
,,,,,,,,,,,,,,,,,,23,2022-02-12_12h37.55.308,lexical_decision_task_DD_L4,2021.2.3,MacIntel,59.99880002,,,,,,,,,,,0.7221,1,,,,,,,,,,,,,,z,1,0.7221,,,,,,,,0.193941504,-0.276146849,0,0,0,,0,77,77,132,1,SCIFF,C,old,z,./images/SCIFF.png,,,,,,,,,,,,,,,,,,,,,,,,,,,,,,,,,,,
,,,,,,,,,,,,,,,,,,23,2022-02-12_12h37.55.308,lexical_decision_task_DD_L4,2021.2.3,MacIntel,59.99880002,,,,,,,,,,,0.5588,1,,,,,,,,,,,,,,m,1,0.5588,,,,,,,,0.193941504,-0.276146849,0,0,0,,0,78,78,36,1,BOILER,C,old,m,./images/BOILER.png,,,,,,,,,,,,,,,,,,,,,,,,,,,,,,,,,,,
,,,,,,,,,,,,,,,,,,23,2022-02-12_12h37.55.308,lexical_decision_task_DD_L4,2021.2.3,MacIntel,59.99880002,,,,,,,,,,,0.7455,1,,,,,,,,,,,,,,z,1,0.7455,,,,,,,,0.193941504,-0.276146849,0,0,0,,0,79,79,144,1,NAIRY,C,old,z,./images/NAIRY.png,,,,,,,,,,,,,,,,,,,,,,,,,,,,,,,,,,,
,,,,,,,,,,,,,,,,,,23,2022-02-12_12h37.55.308,lexical_decision_task_DD_L4,2021.2.3,MacIntel,59.99880002,,,,,,,,,,,1.0273,0,,,,,,,,,,,,,,m,0,1.0273,,,,,,,,0.193941504,-0.276146849,0,0,0,,0,80,80,142,1,PLASK,HB,old,z,./images/PLASKHB.png,,,,,,,,,,,,,,,,,,,,,,,,,,,,,,,,,,,
,,,,,,,,,,,,,,,,,,23,2022-02-12_12h37.55.308,lexical_decision_task_DD_L4,2021.2.3,MacIntel,59.99880002,,,,,,,,,,,0.5792,1,,,,,,,,,,,,,,m,1,0.5792,,,,,,,,0.193941504,-0.276146849,0,0,0,,0,81,81,68,1,VALLEY,LB,old,m,./images/VALLEYLB.png,,,,,,,,,,,,,,,,,,,,,,,,,,,,,,,,,,,
,,,,,,,,,,,,,,,,,,23,2022-02-12_12h37.55.308,lexical_decision_task_DD_L4,2021.2.3,MacIntel,59.99880002,,,,,,,,,,,0.8643,1,,,,,,,,,,,,,,m,1,0.8643,,,,,,,,0.193941504,-0.276146849,0,0,0,,0,82,82,31,1,STEAK,HB,old,m,./images/STEAKHB.png,,,,,,,,,,,,,,,,,,,,,,,,,,,,,,,,,,,
,,,,,,,,,,,,,,,,,,23,2022-02-12_12h37.55.308,lexical_decision_task_DD_L4,2021.2.3,MacIntel,59.99880002,,,,,,,,,,,0.7096,1,,,,,,,,,,,,,,z,1,0.7096,,,,,,,,0.193941504,-0.276146849,0,0,0,space,0,83,83,114,1,RIKES,C,old,z,./images/RIKES.png,3.2872,,,,,,,,,,,,,,,,,,,,,,,,,,,,,,,,,,
,,,,,,,,,,,,,,,,,,23,2022-02-12_12h37.55.308,lexical_decision_task_DD_L4,2021.2.3,MacIntel,59.99880002,,,,,,,,,,,0.578,1,,,,,,,,,,,,,,m,1,0.578,,,,,,,,0.193941504,-0.276146849,0,0,0,,0,84,84,44,1,BASKET,LB,old,m,./images/BASKETLB.png,,,,,,,,,,,,,,,,,,,,,,,,,,,,,,,,,,,
,,,,,,,,,,,,,,,,,,23,2022-02-12_12h37.55.308,lexical_decision_task_DD_L4,2021.2.3,MacIntel,59.99880002,,,,,,,,,,,0.4772,1,,,,,,,,,,,,,,m,1,0.4772,,,,,,,,0.193941504,-0.276146849,0,0,0,,0,85,85,27,1,BUTTER,C,old,m,./images/BUTTER.png,,,,,,,,,,,,,,,,,,,,,,,,,,,,,,,,,,,
,,,,,,,,,,,,,,,,,,23,2022-02-12_12h37.55.308,lexical_decision_task_DD_L4,2021.2.3,MacIntel,59.99880002,,,,,,,,,,,0.6335,1,,,,,,,,,,,,,,z,1,0.6335,,,,,,,,0.193941504,-0.276146849,0,0,0,,0,86,86,137,1,JOOST,LB,old,z,./images/JOOSTLB.png,,,,,,,,,,,,,,,,,,,,,,,,,,,,,,,,,,,
,,,,,,,,,,,,,,,,,,23,2022-02-12_12h37.55.308,lexical_decision_task_DD_L4,2021.2.3,MacIntel,59.99880002,,,,,,,,,,,1.0761,1,,,,,,,,,,,,,,z,1,1.0761,,,,,,,,0.193941504,-0.276146849,0,0,0,,0,87,87,145,1,LAMEL,HB,old,z,./images/LAMELHB.png,,,,,,,,,,,,,,,,,,,,,,,,,,,,,,,,,,,
,,,,,,,,,,,,,,,,,,23,2022-02-12_12h37.55.308,lexical_decision_task_DD_L4,2021.2.3,MacIntel,59.99880002,,,,,,,,,,,0.7821,1,,,,,,,,,,,,,,z,1,0.7821,,,,,,,,0.193941504,-0.276146849,0,0,0,,0,88,88,103,1,FLORT,HB,old,z,./images/FLORTHB.png,,,,,,,,,,,,,,,,,,,,,,,,,,,,,,,,,,,
,,,,,,,,,,,,,,,,,,23,2022-02-12_12h37.55.308,lexical_decision_task_DD_L4,2021.2.3,MacIntel,59.99880002,,,,,,,,,,,0.8319,1,,,,,,,,,,,,,,m,1,0.8319,,,,,,,,0.193941504,-0.276146849,0,0,0,,0,89,89,22,1,CLOWN,HB,old,m,./images/CLOWNHB.png,,,,,,,,,,,,,,,,,,,,,,,,,,,,,,,,,,,
,,,,,,,,,,,,,,,,,,23,2022-02-12_12h37.55.308,lexical_decision_task_DD_L4,2021.2.3,MacIntel,59.99880002,,,,,,,,,,,0.5716,1,,,,,,,,,,,,,,m,1,0.5716,,,,,,,,0.193941504,-0.276146849,0,0,0,,0,90,90,62,1,MAMMAL,LB,old,m,./images/MAMMALLB.png,,,,,,,,,,,,,,,,,,,,,,,,,,,,,,,,,,,
,,,,,,,,,,,,,,,,,,23,2022-02-12_12h37.55.308,lexical_decision_task_DD_L4,2021.2.3,MacIntel,59.99880002,,,,,,,,,,,0.6105,1,,,,,,,,,,,,,,z,1,0.6105,,,,,,,,0.193941504,-0.276146849,0,0,0,,0,91,91,119,1,PAFER,LB,old,z,./images/PAFERLB.png,,,,,,,,,,,,,,,,,,,,,,,,,,,,,,,,,,,
,,,,,,,,,,,,,,,,,,23,2022-02-12_12h37.55.308,lexical_decision_task_DD_L4,2021.2.3,MacIntel,59.99880002,,,,,,,,,,,1.0971,1,,,,,,,,,,,,,,z,1,1.0971,,,,,,,,0.193941504,-0.276146849,0,0,0,,0,92,92,106,1,CLUMS,HB,old,z,./images/CLUMSHB.png,,,,,,,,,,,,,,,,,,,,,,,,,,,,,,,,,,,
,,,,,,,,,,,,,,,,,,23,2022-02-12_12h37.55.308,lexical_decision_task_DD_L4,2021.2.3,MacIntel,59.99880002,,,,,,,,,,,0.766,1,,,,,,,,,,,,,,z,1,0.766,,,,,,,,0.193941504,-0.276146849,0,0,0,,0,93,93,124,1,TUNCH,HB,old,z,./images/TUNCHHB.png,,,,,,,,,,,,,,,,,,,,,,,,,,,,,,,,,,,
,,,,,,,,,,,,,,,,,,23,2022-02-12_12h37.55.308,lexical_decision_task_DD_L4,2021.2.3,MacIntel,59.99880002,,,,,,,,,,,0.6768,1,,,,,,,,,,,,,,z,1,0.6768,,,,,,,,0.193941504,-0.276146849,0,0,0,,0,94,94,95,1,HANTY,LB,old,z,./images/HANTYLB.png,,,,,,,,,,,,,,,,,,,,,,,,,,,,,,,,,,,
,,,,,,,,,,,,,,,,,,23,2022-02-12_12h37.55.308,lexical_decision_task_DD_L4,2021.2.3,MacIntel,59.99880002,,,,,,,,,,,0.5942,1,,,,,,,,,,,,,,m,1,0.5942,,,,,,,,0.193941504,-0.276146849,0,0,0,,0,95,95,63,1,BAKER,C,old,m,./images/BAKER.png,,,,,,,,,,,,,,,,,,,,,,,,,,,,,,,,,,,
,,,,,,,,,,,,,,,,,,23,2022-02-12_12h37.55.308,lexical_decision_task_DD_L4,2021.2.3,MacIntel,59.99880002,,,,,,,,,,,0.6906,1,,,,,,,,,,,,,,z,1,0.6906,,,,,,,,0.193941504,-0.276146849,0,0,0,,0,96,96,139,1,BLEAR,HB,old,z,./images/BLEARHB.png,,,,,,,,,,,,,,,,,,,,,,,,,,,,,,,,,,,
,,,,,,,,,,,,,,,,,,23,2022-02-12_12h37.55.308,lexical_decision_task_DD_L4,2021.2.3,MacIntel,59.99880002,,,,,,,,,,,0.7165,1,,,,,,,,,,,,,,z,1,0.7165,,,,,,,,0.193941504,-0.276146849,0,0,0,,0,97,97,122,1,BLOOT,LB,old,z,./images/BLOOTLB.png,,,,,,,,,,,,,,,,,,,,,,,,,,,,,,,,,,,
,,,,,,,,,,,,,,,,,,23,2022-02-12_12h37.55.308,lexical_decision_task_DD_L4,2021.2.3,MacIntel,59.99880002,,,,,,,,,,,0.6543,1,,,,,,,,,,,,,,m,1,0.6543,,,,,,,,0.193941504,-0.276146849,0,0,0,,0,98,98,29,1,PISTOL,LB,old,m,./images/PISTOLLB.png,,,,,,,,,,,,,,,,,,,,,,,,,,,,,,,,,,,
,,,,,,,,,,,,,,,,,,23,2022-02-12_12h37.55.308,lexical_decision_task_DD_L4,2021.2.3,MacIntel,59.99880002,,,,,,,,,,,0.5627,1,,,,,,,,,,,,,,z,1,0.5627,,,,,,,,0.193941504,-0.276146849,0,0,0,,0,99,99,167,1,ZONET,LB,old,z,./images/ZONETLB.png,,,,,,,,,,,,,,,,,,,,,,,,,,,,,,,,,,,
,,,,,,,,,,,,,,,,,,23,2022-02-12_12h37.55.308,lexical_decision_task_DD_L4,2021.2.3,MacIntel,59.99880002,,,,,,,,,,,1.0933,1,,,,,,,,,,,,,,z,1,1.0933,,,,,,,,0.193941504,-0.276146849,0,0,0,,0,100,100,102,1,DULLE,C,old,z,./images/DULLE.png,,,,,,,,,,,,,,,,,,,,,,,,,,,,,,,,,,,
,,,,,,,,,,,,,,,,,,23,2022-02-12_12h37.55.308,lexical_decision_task_DD_L4,2021.2.3,MacIntel,59.99880002,,,,,,,,,,,1.2617,0,,,,,,,,,,,,,,z,0,1.2617,,,,,,,,0.193941504,-0.276146849,0,0,0,,0,101,101,79,1,RULER,HB,old,m,./images/RULERHB.png,,,,,,,,,,,,,,,,,,,,,,,,,,,,,,,,,,,
,,,,,,,,,,,,,,,,,,23,2022-02-12_12h37.55.308,lexical_decision_task_DD_L4,2021.2.3,MacIntel,59.99880002,,,,,,,,,,,1.0629,1,,,,,,,,,,,,,,m,1,1.0629,,,,,,,,0.193941504,-0.276146849,0,0,0,,0,102,102,56,1,HEATER,LB,old,m,./images/HEATERLB.png,,,,,,,,,,,,,,,,,,,,,,,,,,,,,,,,,,,
,,,,,,,,,,,,,,,,,,23,2022-02-12_12h37.55.308,lexical_decision_task_DD_L4,2021.2.3,MacIntel,59.99880002,,,,,,,,,,,0.9111,1,,,,,,,,,,,,,,z,1,0.9111,,,,,,,,0.193941504,-0.276146849,0,0,0,,0,103,103,164,1,SGREW,LB,old,z,./images/SGREWLB.png,,,,,,,,,,,,,,,,,,,,,,,,,,,,,,,,,,,
,,,,,,,,,,,,,,,,,,23,2022-02-12_12h37.55.308,lexical_decision_task_DD_L4,2021.2.3,MacIntel,59.99880002,,,,,,,,,,,1.46,1,,,,,,,,,,,,,,m,1,1.46,,,,,,,,0.193941504,-0.276146849,0,0,0,,0,104,104,64,1,BRIDE,HB,old,m,./images/BRIDEHB.png,,,,,,,,,,,,,,,,,,,,,,,,,,,,,,,,,,,
,,,,,,,,,,,,,,,,,,23,2022-02-12_12h37.55.308,lexical_decision_task_DD_L4,2021.2.3,MacIntel,59.99880002,,,,,,,,,,,0.6003,1,,,,,,,,,,,,,,m,1,0.6003,,,,,,,,0.193941504,-0.276146849,0,0,0,,0,105,105,70,1,BANANA,HB,old,m,./images/BANANAHB.png,,,,,,,,,,,,,,,,,,,,,,,,,,,,,,,,,,,
,,,,,,,,,,,,,,,,,,23,2022-02-12_12h37.55.308,lexical_decision_task_DD_L4,2021.2.3,MacIntel,59.99880002,,,,,,,,,,,0.7765,1,,,,,,,,,,,,,,m,1,0.7765,,,,,,,,0.193941504,-0.276146849,0,0,0,,0,106,106,19,1,DONKEY,HB,old,m,./images/DONKEYHB.png,,,,,,,,,,,,,,,,,,,,,,,,,,,,,,,,,,,
,,,,,,,,,,,,,,,,,,23,2022-02-12_12h37.55.308,lexical_decision_task_DD_L4,2021.2.3,MacIntel,59.99880002,,,,,,,,,,,0.464,1,,,,,,,,,,,,,,m,1,0.464,,,,,,,,0.193941504,-0.276146849,0,0,0,,0,107,107,2,1,STOVE,LB,old,m,./images/STOVELB.png,,,,,,,,,,,,,,,,,,,,,,,,,,,,,,,,,,,
,,,,,,,,,,,,,,,,,,23,2022-02-12_12h37.55.308,lexical_decision_task_DD_L4,2021.2.3,MacIntel,59.99880002,,,,,,,,,,,0.6966,1,,,,,,,,,,,,,,m,1,0.6966,,,,,,,,0.193941504,-0.276146849,0,0,0,,0,108,108,47,1,LAGOON,LB,old,m,./images/LAGOONLB.png,,,,,,,,,,,,,,,,,,,,,,,,,,,,,,,,,,,
,,,,,,,,,,,,,,,,,,23,2022-02-12_12h37.55.308,lexical_decision_task_DD_L4,2021.2.3,MacIntel,59.99880002,,,,,,,,,,,0.7747,1,,,,,,,,,,,,,,m,1,0.7747,,,,,,,,0.193941504,-0.276146849,0,0,0,,0,109,109,73,1,GLOVE,HB,old,m,./images/GLOVEHB.png,,,,,,,,,,,,,,,,,,,,,,,,,,,,,,,,,,,
,,,,,,,,,,,,,,,,,,23,2022-02-12_12h37.55.308,lexical_decision_task_DD_L4,2021.2.3,MacIntel,59.99880002,,,,,,,,,,,0.5917,1,,,,,,,,,,,,,,m,1,0.5917,,,,,,,,0.193941504,-0.276146849,0,0,0,,0,110,110,57,1,FERRY,C,old,m,./images/FERRY.png,,,,,,,,,,,,,,,,,,,,,,,,,,,,,,,,,,,
,,,,,,,,,,,,,,,,,,23,2022-02-12_12h37.55.308,lexical_decision_task_DD_L4,2021.2.3,MacIntel,59.99880002,,,,,,,,,,,0.7746,1,,,,,,,,,,,,,,z,1,0.7746,,,,,,,,0.193941504,-0.276146849,0,0,0,,0,111,111,105,1,MOKER,C,old,z,./images/MOKER.png,,,,,,,,,,,,,,,,,,,,,,,,,,,,,,,,,,,
,,,,,,,,,,,,,,,,,,23,2022-02-12_12h37.55.308,lexical_decision_task_DD_L4,2021.2.3,MacIntel,59.99880002,,,,,,,,,,,0.4669,1,,,,,,,,,,,,,,m,1,0.4669,,,,,,,,0.193941504,-0.276146849,0,0,0,,0,112,112,26,1,CLOUD,LB,old,m,./images/CLOUDLB.png,,,,,,,,,,,,,,,,,,,,,,,,,,,,,,,,,,,
,,,,,,,,,,,,,,,,,,23,2022-02-12_12h37.55.308,lexical_decision_task_DD_L4,2021.2.3,MacIntel,59.99880002,,,,,,,,,,,1.1275,1,,,,,,,,,,,,,,z,1,1.1275,,,,,,,,0.193941504,-0.276146849,0,0,0,,0,113,113,91,1,SHENS,HB,old,z,./images/SHENSHB.png,,,,,,,,,,,,,,,,,,,,,,,,,,,,,,,,,,,
,,,,,,,,,,,,,,,,,,23,2022-02-12_12h37.55.308,lexical_decision_task_DD_L4,2021.2.3,MacIntel,59.99880002,,,,,,,,,,,0.6685,1,,,,,,,,,,,,,,m,1,0.6685,,,,,,,,0.193941504,-0.276146849,0,0,0,,0,114,114,61,1,ARTIST,HB,old,m,./images/ARTISTHB.png,,,,,,,,,,,,,,,,,,,,,,,,,,,,,,,,,,,
,,,,,,,,,,,,,,,,,,23,2022-02-12_12h37.55.308,lexical_decision_task_DD_L4,2021.2.3,MacIntel,59.99880002,,,,,,,,,,,0.4843,1,,,,,,,,,,,,,,m,1,0.4843,,,,,,,,0.193941504,-0.276146849,0,0,0,,0,115,115,77,1,WHEEL,LB,old,m,./images/WHEELLB.png,,,,,,,,,,,,,,,,,,,,,,,,,,,,,,,,,,,
,,,,,,,,,,,,,,,,,,23,2022-02-12_12h37.55.308,lexical_decision_task_DD_L4,2021.2.3,MacIntel,59.99880002,,,,,,,,,,,0.6129,1,,,,,,,,,,,,,,z,1,0.6129,,,,,,,,0.193941504,-0.276146849,0,0,0,,0,116,116,96,1,KEAMS,C,old,z,./images/KEAMS.png,,,,,,,,,,,,,,,,,,,,,,,,,,,,,,,,,,,
,,,,,,,,,,,,,,,,,,23,2022-02-12_12h37.55.308,lexical_decision_task_DD_L4,2021.2.3,MacIntel,59.99880002,,,,,,,,,,,0.7255,1,,,,,,,,,,,,,,z,1,0.7255,,,,,,,,0.193941504,-0.276146849,0,0,0,,0,117,117,155,1,CANGY,LB,old,z,./images/CANGYLB.png,,,,,,,,,,,,,,,,,,,,,,,,,,,,,,,,,,,
,,,,,,,,,,,,,,,,,,23,2022-02-12_12h37.55.308,lexical_decision_task_DD_L4,2021.2.3,MacIntel,59.99880002,,,,,,,,,,,0.6284,1,,,,,,,,,,,,,,m,1,0.6284,,,,,,,,0.193941504,-0.276146849,0,0,0,,0,118,118,25,1,CHALK,HB,old,m,./images/CHALKHB.png,,,,,,,,,,,,,,,,,,,,,,,,,,,,,,,,,,,
,,,,,,,,,,,,,,,,,,23,2022-02-12_12h37.55.308,lexical_decision_task_DD_L4,2021.2.3,MacIntel,59.99880002,,,,,,,,,,,0.4621,1,,,,,,,,,,,,,,m,1,0.4621,,,,,,,,0.193941504,-0.276146849,0,0,0,,0,119,119,59,1,BRUSH,LB,old,m,./images/BRUSHLB.png,,,,,,,,,,,,,,,,,,,,,,,,,,,,,,,,,,,
,,,,,,,,,,,,,,,,,,23,2022-02-12_12h37.55.308,lexical_decision_task_DD_L4,2021.2.3,MacIntel,59.99880002,,,,,,,,,,,0.5091,1,,,,,,,,,,,,,,m,1,0.5091,,,,,,,,0.193941504,-0.276146849,0,0,0,,0,120,120,81,1,DRILL,C,old,m,./images/DRILL.png,,,,,,,,,,,,,,,,,,,,,,,,,,,,,,,,,,,
,,,,,,,,,,,,,,,,,,23,2022-02-12_12h37.55.308,lexical_decision_task_DD_L4,2021.2.3,MacIntel,59.99880002,,,,,,,,,,,0.6988,1,,,,,,,,,,,,,,z,1,0.6988,,,,,,,,0.193941504,-0.276146849,0,0,0,,0,121,121,110,1,CRUNK,LB,old,z,./images/CRUNKLB.png,,,,,,,,,,,,,,,,,,,,,,,,,,,,,,,,,,,
,,,,,,,,,,,,,,,,,,23,2022-02-12_12h37.55.308,lexical_decision_task_DD_L4,2021.2.3,MacIntel,59.99880002,,,,,,,,,,,0.7645,1,,,,,,,,,,,,,,z,1,0.7645,,,,,,,,0.193941504,-0.276146849,0,0,0,,0,122,122,131,1,NACES,LB,old,z,./images/NACESLB.png,,,,,,,,,,,,,,,,,,,,,,,,,,,,,,,,,,,
,,,,,,,,,,,,,,,,,,23,2022-02-12_12h37.55.308,lexical_decision_task_DD_L4,2021.2.3,MacIntel,59.99880002,,,,,,,,,,,0.8097,1,,,,,,,,,,,,,,m,1,0.8097,,,,,,,,0.193941504,-0.276146849,0,0,0,,0,123,123,78,1,BROOM,C,old,m,./images/BROOM.png,,,,,,,,,,,,,,,,,,,,,,,,,,,,,,,,,,,
,,,,,,,,,,,,,,,,,,23,2022-02-12_12h37.55.308,lexical_decision_task_DD_L4,2021.2.3,MacIntel,59.99880002,,,,,,,,,,,0.5075,1,,,,,,,,,,,,,,m,1,0.5075,,,,,,,,0.193941504,-0.276146849,0,0,0,,0,124,124,50,1,PILOT,LB,old,m,./images/PILOTLB.png,,,,,,,,,,,,,,,,,,,,,,,,,,,,,,,,,,,
,,,,,,,,,,,,,,,,,,23,2022-02-12_12h37.55.308,lexical_decision_task_DD_L4,2021.2.3,MacIntel,59.99880002,,,,,,,,,,,0.6762,1,,,,,,,,,,,,,,z,1,0.6762,,,,,,,,0.193941504,-0.276146849,0,0,0,space,0,125,125,123,1,SEDGE,C,old,z,./images/SEDGE.png,4.639,,,,,,,,,,,,,,,,,,,,,,,,,,,,,,,,,,
,,,,,,,,,,,,,,,,,,23,2022-02-12_12h37.55.308,lexical_decision_task_DD_L4,2021.2.3,MacIntel,59.99880002,,,,,,,,,,,0.6141,1,,,,,,,,,,,,,,z,1,0.6141,,,,,,,,0.193941504,-0.276146849,0,0,0,,0,126,126,143,1,MONGS,LB,old,z,./images/MONGSLB.png,,,,,,,,,,,,,,,,,,,,,,,,,,,,,,,,,,,
,,,,,,,,,,,,,,,,,,23,2022-02-12_12h37.55.308,lexical_decision_task_DD_L4,2021.2.3,MacIntel,59.99880002,,,,,,,,,,,0.6152,1,,,,,,,,,,,,,,m,1,0.6152,,,,,,,,0.193941504,-0.276146849,0,0,0,,0,127,127,33,1,SAUNA,C,old,m,./images/SAUNA.png,,,,,,,,,,,,,,,,,,,,,,,,,,,,,,,,,,,
,,,,,,,,,,,,,,,,,,23,2022-02-12_12h37.55.308,lexical_decision_task_DD_L4,2021.2.3,MacIntel,59.99880002,,,,,,,,,,,0.4598,1,,,,,,,,,,,,,,m,1,0.4598,,,,,,,,0.193941504,-0.276146849,0,0,0,,0,128,128,54,1,CHERRY,C,old,m,./images/CHERRY.png,,,,,,,,,,,,,,,,,,,,,,,,,,,,,,,,,,,
,,,,,,,,,,,,,,,,,,23,2022-02-12_12h37.55.308,lexical_decision_task_DD_L4,2021.2.3,MacIntel,59.99880002,,,,,,,,,,,0.4627,1,,,,,,,,,,,,,,m,1,0.4627,,,,,,,,0.193941504,-0.276146849,0,0,0,,0,129,129,6,1,STAIN,C,old,m,./images/STAIN.png,,,,,,,,,,,,,,,,,,,,,,,,,,,,,,,,,,,
,,,,,,,,,,,,,,,,,,23,2022-02-12_12h37.55.308,lexical_decision_task_DD_L4,2021.2.3,MacIntel,59.99880002,,,,,,,,,,,0.7307,1,,,,,,,,,,,,,,m,1,0.7307,,,,,,,,0.193941504,-0.276146849,0,0,0,,0,130,130,37,1,TIGER,HB,old,m,./images/TIGERHB.png,,,,,,,,,,,,,,,,,,,,,,,,,,,,,,,,,,,
,,,,,,,,,,,,,,,,,,23,2022-02-12_12h37.55.308,lexical_decision_task_DD_L4,2021.2.3,MacIntel,59.99880002,,,,,,,,,,,0.4342,1,,,,,,,,,,,,,,m,1,0.4342,,,,,,,,0.193941504,-0.276146849,0,0,0,,0,131,131,51,1,SAUCE,C,old,m,./images/SAUCE.png,,,,,,,,,,,,,,,,,,,,,,,,,,,,,,,,,,,
,,,,,,,,,,,,,,,,,,23,2022-02-12_12h37.55.308,lexical_decision_task_DD_L4,2021.2.3,MacIntel,59.99880002,,,,,,,,,,,0.9509,1,,,,,,,,,,,,,,z,1,0.9509,,,,,,,,0.193941504,-0.276146849,0,0,0,,0,132,132,151,1,TINKY,HB,old,z,./images/TINKYHB.png,,,,,,,,,,,,,,,,,,,,,,,,,,,,,,,,,,,
,,,,,,,,,,,,,,,,,,23,2022-02-12_12h37.55.308,lexical_decision_task_DD_L4,2021.2.3,MacIntel,59.99880002,,,,,,,,,,,1.162,1,,,,,,,,,,,,,,z,1,1.162,,,,,,,,0.193941504,-0.276146849,0,0,0,,0,133,133,163,1,GAMBA,HB,old,z,./images/GAMBAHB.png,,,,,,,,,,,,,,,,,,,,,,,,,,,,,,,,,,,
,,,,,,,,,,,,,,,,,,23,2022-02-12_12h37.55.308,lexical_decision_task_DD_L4,2021.2.3,MacIntel,59.99880002,,,,,,,,,,,1.1401,1,,,,,,,,,,,,,,z,1,1.1401,,,,,,,,0.193941504,-0.276146849,0,0,0,,0,134,134,154,1,THINT,HB,old,z,./images/THINTHB.png,,,,,,,,,,,,,,,,,,,,,,,,,,,,,,,,,,,
,,,,,,,,,,,,,,,,,,23,2022-02-12_12h37.55.308,lexical_decision_task_DD_L4,2021.2.3,MacIntel,59.99880002,,,,,,,,,,,0.8739,1,,,,,,,,,,,,,,m,1,0.8739,,,,,,,,0.193941504,-0.276146849,0,0,0,,0,135,135,3,1,CRATER,C,old,m,./images/CRATER.png,,,,,,,,,,,,,,,,,,,,,,,,,,,,,,,,,,,
,,,,,,,,,,,,,,,,,,23,2022-02-12_12h37.55.308,lexical_decision_task_DD_L4,2021.2.3,MacIntel,59.99880002,,,,,,,,,,,1.4117,1,,,,,,,,,,,,,,z,1,1.4117,,,,,,,,0.193941504,-0.276146849,0,0,0,,0,136,136,133,1,POWDY,HB,old,z,./images/POWDYHB.png,,,,,,,,,,,,,,,,,,,,,,,,,,,,,,,,,,,
,,,,,,,,,,,,,,,,,,23,2022-02-12_12h37.55.308,lexical_decision_task_DD_L4,2021.2.3,MacIntel,59.99880002,,,,,,,,,,,0.5609,1,,,,,,,,,,,,,,m,1,0.5609,,,,,,,,0.193941504,-0.276146849,0,0,0,,0,137,137,15,1,COLLAR,C,old,m,./images/COLLAR.png,,,,,,,,,,,,,,,,,,,,,,,,,,,,,,,,,,,
,,,,,,,,,,,,,,,,,,23,2022-02-12_12h37.55.308,lexical_decision_task_DD_L4,2021.2.3,MacIntel,59.99880002,,,,,,,,,,,0.4656,1,,,,,,,,,,,,,,m,1,0.4656,,,,,,,,0.193941504,-0.276146849,0,0,0,,0,138,138,72,1,FLASK,C,old,m,./images/FLASK.png,,,,,,,,,,,,,,,,,,,,,,,,,,,,,,,,,,,
,,,,,,,,,,,,,,,,,,23,2022-02-12_12h37.55.308,lexical_decision_task_DD_L4,2021.2.3,MacIntel,59.99880002,,,,,,,,,,,0.7351,1,,,,,,,,,,,,,,z,1,0.7351,,,,,,,,0.193941504,-0.276146849,0,0,0,,0,139,139,98,1,BAMPS,LB,old,z,./images/BAMPSLB.png,,,,,,,,,,,,,,,,,,,,,,,,,,,,,,,,,,,
,,,,,,,,,,,,,,,,,,23,2022-02-12_12h37.55.308,lexical_decision_task_DD_L4,2021.2.3,MacIntel,59.99880002,,,,,,,,,,,0.6048,1,,,,,,,,,,,,,,z,1,0.6048,,,,,,,,0.193941504,-0.276146849,0,0,0,,0,140,140,99,1,BACKY,C,old,z,./images/BACKY.png,,,,,,,,,,,,,,,,,,,,,,,,,,,,,,,,,,,
,,,,,,,,,,,,,,,,,,23,2022-02-12_12h37.55.308,lexical_decision_task_DD_L4,2021.2.3,MacIntel,59.99880002,,,,,,,,,,,0.5204,1,,,,,,,,,,,,,,m,1,0.5204,,,,,,,,0.193941504,-0.276146849,0,0,0,,0,141,141,48,1,SHIELD,C,old,m,./images/SHIELD.png,,,,,,,,,,,,,,,,,,,,,,,,,,,,,,,,,,,
,,,,,,,,,,,,,,,,,,23,2022-02-12_12h37.55.308,lexical_decision_task_DD_L4,2021.2.3,MacIntel,59.99880002,,,,,,,,,,,0.9481,1,,,,,,,,,,,,,,z,1,0.9481,,,,,,,,0.193941504,-0.276146849,0,0,0,,0,142,142,127,1,NINDY,HB,old,z,./images/NINDYHB.png,,,,,,,,,,,,,,,,,,,,,,,,,,,,,,,,,,,
,,,,,,,,,,,,,,,,,,23,2022-02-12_12h37.55.308,lexical_decision_task_DD_L4,2021.2.3,MacIntel,59.99880002,,,,,,,,,,,1.0427,1,,,,,,,,,,,,,,z,1,1.0427,,,,,,,,0.193941504,-0.276146849,0,0,0,,0,143,143,88,1,GLUSH,HB,old,z,./images/GLUSHHB.png,,,,,,,,,,,,,,,,,,,,,,,,,,,,,,,,,,,
,,,,,,,,,,,,,,,,,,23,2022-02-12_12h37.55.308,lexical_decision_task_DD_L4,2021.2.3,MacIntel,59.99880002,,,,,,,,,,,1.0391,1,,,,,,,,,,,,,,z,1,1.0391,,,,,,,,0.193941504,-0.276146849,0,0,0,,0,144,144,85,1,CHULK,HB,old,z,./images/CHULKHB.png,,,,,,,,,,,,,,,,,,,,,,,,,,,,,,,,,,,
,,,,,,,,,,,,,,,,,,23,2022-02-12_12h37.55.308,lexical_decision_task_DD_L4,2021.2.3,MacIntel,59.99880002,,,,,,,,,,,0.7284,1,,,,,,,,,,,,,,m,1,0.7284,,,,,,,,0.193941504,-0.276146849,0,0,0,,0,145,145,40,1,SNAKE,HB,old,m,./images/SNAKEHB.png,,,,,,,,,,,,,,,,,,,,,,,,,,,,,,,,,,,
,,,,,,,,,,,,,,,,,,23,2022-02-12_12h37.55.308,lexical_decision_task_DD_L4,2021.2.3,MacIntel,59.99880002,,,,,,,,,,,0.7112,1,,,,,,,,,,,,,,z,1,0.7112,,,,,,,,0.193941504,-0.276146849,0,0,0,,0,146,146,149,1,VEASE,LB,old,z,./images/VEASELB.png,,,,,,,,,,,,,,,,,,,,,,,,,,,,,,,,,,,
,,,,,,,,,,,,,,,,,,23,2022-02-12_12h37.55.308,lexical_decision_task_DD_L4,2021.2.3,MacIntel,59.99880002,,,,,,,,,,,0.9522,0,,,,,,,,,,,,,,m,0,0.9522,,,,,,,,0.193941504,-0.276146849,0,0,0,,0,147,147,140,1,DOVET,LB,old,z,./images/DOVETLB.png,,,,,,,,,,,,,,,,,,,,,,,,,,,,,,,,,,,
,,,,,,,,,,,,,,,,,,23,2022-02-12_12h37.55.308,lexical_decision_task_DD_L4,2021.2.3,MacIntel,59.99880002,,,,,,,,,,,1.6064,1,,,,,,,,,,,,,,z,1,1.6064,,,,,,,,0.193941504,-0.276146849,0,0,0,,0,148,148,136,1,WERVE,HB,old,z,./images/WERVEHB.png,,,,,,,,,,,,,,,,,,,,,,,,,,,,,,,,,,,
,,,,,,,,,,,,,,,,,,23,2022-02-12_12h37.55.308,lexical_decision_task_DD_L4,2021.2.3,MacIntel,59.99880002,,,,,,,,,,,1.0584,1,,,,,,,,,,,,,,z,1,1.0584,,,,,,,,0.193941504,-0.276146849,0,0,0,,0,149,149,100,1,DRIBS,HB,old,z,./images/DRIBSHB.png,,,,,,,,,,,,,,,,,,,,,,,,,,,,,,,,,,,
,,,,,,,,,,,,,,,,,,23,2022-02-12_12h37.55.308,lexical_decision_task_DD_L4,2021.2.3,MacIntel,59.99880002,,,,,,,,,,,1.0168,1,,,,,,,,,,,,,,z,1,1.0168,,,,,,,,0.193941504,-0.276146849,0,0,0,,0,150,150,97,1,CHIDS,HB,old,z,./images/CHIDSHB.png,,,,,,,,,,,,,,,,,,,,,,,,,,,,,,,,,,,
,,,,,,,,,,,,,,,,,,23,2022-02-12_12h37.55.308,lexical_decision_task_DD_L4,2021.2.3,MacIntel,59.99880002,,,,,,,,,,,0.6148,1,,,,,,,,,,,,,,m,1,0.6148,,,,,,,,0.193941504,-0.276146849,0,0,0,,0,151,151,80,1,PLANET,LB,old,m,./images/PLANETLB.png,,,,,,,,,,,,,,,,,,,,,,,,,,,,,,,,,,,
,,,,,,,,,,,,,,,,,,23,2022-02-12_12h37.55.308,lexical_decision_task_DD_L4,2021.2.3,MacIntel,59.99880002,,,,,,,,,,,0.9682,1,,,,,,,,,,,,,,z,1,0.9682,,,,,,,,0.193941504,-0.276146849,0,0,0,,0,152,152,157,1,INLER,HB,old,z,./images/INLERHB.png,,,,,,,,,,,,,,,,,,,,,,,,,,,,,,,,,,,
,,,,,,,,,,,,,,,,,,23,2022-02-12_12h37.55.308,lexical_decision_task_DD_L4,2021.2.3,MacIntel,59.99880002,,,,,,,,,,,0.6068,1,,,,,,,,,,,,,,z,1,0.6068,,,,,,,,0.193941504,-0.276146849,0,0,0,,0,153,153,161,1,BLAPS,LB,old,z,./images/BLAPSLB.png,,,,,,,,,,,,,,,,,,,,,,,,,,,,,,,,,,,
,,,,,,,,,,,,,,,,,,23,2022-02-12_12h37.55.308,lexical_decision_task_DD_L4,2021.2.3,MacIntel,59.99880002,,,,,,,,,,,0.5446,1,,,,,,,,,,,,,,z,1,0.5446,,,,,,,,0.193941504,-0.276146849,0,0,0,,0,154,154,152,1,FRAIN,LB,old,z,./images/FRAINLB.png,,,,,,,,,,,,,,,,,,,,,,,,,,,,,,,,,,,
,,,,,,,,,,,,,,,,,,23,2022-02-12_12h37.55.308,lexical_decision_task_DD_L4,2021.2.3,MacIntel,59.99880002,,,,,,,,,,,0.4891,1,,,,,,,,,,,,,,z,1,0.4891,,,,,,,,0.193941504,-0.276146849,0,0,0,,0,155,155,101,1,GLEET,LB,old,z,./images/GLEETLB.png,,,,,,,,,,,,,,,,,,,,,,,,,,,,,,,,,,,
,,,,,,,,,,,,,,,,,,23,2022-02-12_12h37.55.308,lexical_decision_task_DD_L4,2021.2.3,MacIntel,59.99880002,,,,,,,,,,,0.5978,1,,,,,,,,,,,,,,z,1,0.5978,,,,,,,,0.193941504,-0.276146849,0,0,0,,0,156,156,117,1,STEEG,C,old,z,./images/STEEG.png,,,,,,,,,,,,,,,,,,,,,,,,,,,,,,,,,,,
,,,,,,,,,,,,,,,,,,23,2022-02-12_12h37.55.308,lexical_decision_task_DD_L4,2021.2.3,MacIntel,59.99880002,,,,,,,,,,,0.5211,1,,,,,,,,,,,,,,z,1,0.5211,,,,,,,,0.193941504,-0.276146849,0,0,0,,0,157,157,126,1,GUELS,C,old,z,./images/GUELS.png,,,,,,,,,,,,,,,,,,,,,,,,,,,,,,,,,,,
,,,,,,,,,,,,,,,,,,23,2022-02-12_12h37.55.308,lexical_decision_task_DD_L4,2021.2.3,MacIntel,59.99880002,,,,,,,,,,,0.6804,1,,,,,,,,,,,,,,z,1,0.6804,,,,,,,,0.193941504,-0.276146849,0,0,0,,0,158,158,138,1,PLICE,C,old,z,./images/PLICE.png,,,,,,,,,,,,,,,,,,,,,,,,,,,,,,,,,,,
,,,,,,,,,,,,,,,,,,23,2022-02-12_12h37.55.308,lexical_decision_task_DD_L4,2021.2.3,MacIntel,59.99880002,,,,,,,,,,,0.6408,1,,,,,,,,,,,,,,m,1,0.6408,,,,,,,,0.193941504,-0.276146849,0,0,0,,0,159,159,7,1,WAGON,HB,old,m,./images/WAGONHB.png,,,,,,,,,,,,,,,,,,,,,,,,,,,,,,,,,,,
,,,,,,,,,,,,,,,,,,23,2022-02-12_12h37.55.308,lexical_decision_task_DD_L4,2021.2.3,MacIntel,59.99880002,,,,,,,,,,,0.5739,1,,,,,,,,,,,,,,z,1,0.5739,,,,,,,,0.193941504,-0.276146849,0,0,0,,0,160,160,150,1,NOOLS,C,old,z,./images/NOOLS.png,,,,,,,,,,,,,,,,,,,,,,,,,,,,,,,,,,,
,,,,,,,,,,,,,,,,,,23,2022-02-12_12h37.55.308,lexical_decision_task_DD_L4,2021.2.3,MacIntel,59.99880002,,,,,,,,,,,0.9073,1,,,,,,,,,,,,,,z,1,0.9073,,,,,,,,0.193941504,-0.276146849,0,0,0,,0,161,161,159,1,CUDDY,C,old,z,./images/CUDDY.png,,,,,,,,,,,,,,,,,,,,,,,,,,,,,,,,,,,
,,,,,,,,,,,,,,,,,,23,2022-02-12_12h37.55.308,lexical_decision_task_DD_L4,2021.2.3,MacIntel,59.99880002,,,,,,,,,,,0.6029,1,,,,,,,,,,,,,,m,1,0.6029,,,,,,,,0.193941504,-0.276146849,0,0,0,,0,162,162,23,1,CLOTH,LB,old,m,./images/CLOTHLB.png,,,,,,,,,,,,,,,,,,,,,,,,,,,,,,,,,,,
,,,,,,,,,,,,,,,,,,23,2022-02-12_12h37.55.308,lexical_decision_task_DD_L4,2021.2.3,MacIntel,59.99880002,,,,,,,,,,,0.7443,1,,,,,,,,,,,,,,m,1,0.7443,,,,,,,,0.193941504,-0.276146849,0,0,0,,0,163,163,1,1,TOWEL,HB,old,m,./images/TOWELHB.png,,,,,,,,,,,,,,,,,,,,,,,,,,,,,,,,,,,
,,,,,,,,,,,,,,,,,,23,2022-02-12_12h37.55.308,lexical_decision_task_DD_L4,2021.2.3,MacIntel,59.99880002,,,,,,,,,,,0.6294,1,,,,,,,,,,,,,,z,1,0.6294,,,,,,,,0.193941504,-0.276146849,0,0,0,,0,164,164,129,1,PRANS,C,old,z,./images/PRANS.png,,,,,,,,,,,,,,,,,,,,,,,,,,,,,,,,,,,
,,,,,,,,,,,,,,,,,,23,2022-02-12_12h37.55.308,lexical_decision_task_DD_L4,2021.2.3,MacIntel,59.99880002,,,,,,,,,,,0.5492,1,,,,,,,,,,,,,,m,1,0.5492,,,,,,,,0.193941504,-0.276146849,0,0,0,,0,165,165,71,1,BUBBLE,LB,old,m,./images/BUBBLELB.png,,,,,,,,,,,,,,,,,,,,,,,,,,,,,,,,,,,
,,,,,,,,,,,,,,,,,,23,2022-02-12_12h37.55.308,lexical_decision_task_DD_L4,2021.2.3,MacIntel,59.99880002,,,,,,,,,,,0.6543,1,,,,,,,,,,,,,,z,1,0.6543,,,,,,,,0.193941504,-0.276146849,0,0,0,,0,166,166,116,1,BALGY,LB,old,z,./images/BALGYLB.png,,,,,,,,,,,,,,,,,,,,,,,,,,,,,,,,,,,
,,,,,,,,,,,,,,,,,,23,2022-02-12_12h37.55.308,lexical_decision_task_DD_L4,2021.2.3,MacIntel,59.99880002,,,,,,,,,,,1.0763,1,,,,,,,,,,,,,,z,1,1.0763,,,,,,,,0.193941504,-0.276146849,0,0,0,,0,167,167,148,1,JOMS,HB,old,z,./images/JOMSHB.png,,,,,,,,,,,,,,,,,,,,,,,,,,,,,,,,,,,
,,,,,,,,,,,,,,,,,,23,2022-02-12_12h37.55.308,lexical_decision_task_DD_L4,2021.2.3,MacIntel,59.99880002,,,,,,,,,,,,,,,,,,,,,,,,,,,,,,,,,,,,,,,,,,,,,,,,How likely will it be that you will recognize the words presented slighly blurred on a scale of 0 (not likely) to 100 (most likely)?,,,,,0.029139102,-0.438609854,1,0,0,jol_adv,4,8.0012,0,0,0,1,1,,,,,,,,,,,,,,,,,,,,,
,,,,,,,,,,,,,,,,,,23,2022-02-12_12h37.55.308,lexical_decision_task_DD_L4,2021.2.3,MacIntel,59.99880002,,,,,,,,,,,,,,,,,,,,,,,,,,,,,,,,,,,,,,,,,,,,,,,,How likely will it be that you will recognize the words presented clearly on a scale of 0 (not likely) to 100 (most likely)?,,,,,,,,,,,6,7.7463,0,1,1,0,1,,,,,,,,,,,,,,,,,,,,,
,,,,,,,,,,,,,,,,,,23,2022-02-12_12h37.55.308,lexical_decision_task_DD_L4,2021.2.3,MacIntel,59.99880002,,,,,,,,,,,,,,,,,,,,,,,,,,,,,,,,,,,,,,,,,,,,,,,,How likely will it be that you will recognize the words presented very blurred on a scale of 0 (not likely) to 100 (most likely)?,,,,,,,,,,,3,8.1376,0,2,2,2,1,,,,,,,,,,,,,,,,,,,,,
,,0.017420352,-0.407827733,1,0,0,,,,,,1,test,"In the next phase you will be presented with the words from the the first phase. Your job is to decide whether you remember seeing the word or not. If you remember seeing the word press ""old"" or type ""m"". If you do not remember seeing the word press ""new"" or type ""z"". Please press the space bar or click on continue to begin. ",,,,23,2022-02-12_12h37.55.308,lexical_decision_task_DD_L4,2021.2.3,MacIntel,59.99880002,,,,,,,,,,,,,,,,,,,,,,,,,,,,,,,,,,,,,,,,,,,,,,,,,,,,,,,,,,,,,,,,,,instr_done_button,0,0,0,0,1,,,,,,,,,,,,,,,
space,4.2042,0.017420352,-0.407827733,0,0,0,,,,,,1,test,"In the next phase you will be presented with the words from the the first phase. Your job is to decide whether you remember seeing the word or not. If you remember seeing the word press ""old"" or type ""m"". If you do not remember seeing the word press ""new"" or type ""z"". Please press the space bar or click on continue to begin. ",,,,23,2022-02-12_12h37.55.308,lexical_decision_task_DD_L4,2021.2.3,MacIntel,59.99880002,,,,,,,,,,,,,,,,,,,,,,,,,,,,,,,,,,,,,,,,,,,,,,,,,,,,,,,,,,,,,,,,,,,1,0,1,0,1,,,,,,,,,,,,,,,
space,5.2755,0.01929731,-0.282599234,0,0,0,,,,,,1,test,"In the next phase you will be presented with the words from the the first phase. Your job is to decide whether you remember seeing the word or not. If you remember seeing the word press ""old"" or type ""m"". If you do not remember seeing the word press ""new"" or type ""z"". Please press the space bar or click on continue to begin. ",,,,23,2022-02-12_12h37.55.308,lexical_decision_task_DD_L4,2021.2.3,MacIntel,59.99880002,,,,,,,,,,,,,,,,,,,,,,,,,,,,,,,,,,,,,,,,,,,,,,,,,,,,,,,,,,,,,,,,,,,2,0,2,0,1,,,,,,,,,,,,,,,
space,3.3881,-0.10262339,0.196123128,0,0,0,,,,,,1,test,"In the next phase you will be presented with the words from the the first phase. Your job is to decide whether you remember seeing the word or not. If you remember seeing the word press ""old"" or type ""m"". If you do not remember seeing the word press ""new"" or type ""z"". Please press the space bar or click on continue to begin. ",,,,23,2022-02-12_12h37.55.308,lexical_decision_task_DD_L4,2021.2.3,MacIntel,59.99880002,,,,,,,,,,,,,,,,,,,,,,,,,,,,,,,,,,,,,,,,,,,,,,,,,,,,,,,,,,,,,,,,,,,3,0,3,0,1,,,,,,,,,,,,,,,
,,-0.015494429,-0.399318854,1,0,0,,,,,,1,test,"In the next phase you will be presented with the words from the the first phase. Your job is to decide whether you remember seeing the word or not. If you remember seeing the word press ""old"" or type ""m"". If you do not remember seeing the word press ""new"" or type ""z"". Please press the space bar or click on continue to begin. ",,,,23,2022-02-12_12h37.55.308,lexical_decision_task_DD_L4,2021.2.3,MacIntel,59.99880002,,,,,,,,,,,,,,,,,,,,,,,,,,,,,,,,,,,,,,,,,,,,,,,,,,,,,,,,,,,,,,,,,,instr_done_button,4,0,4,0,1,,,,,,,,,,,,,,,
,,,,,,,,,,,,,,,,,,23,2022-02-12_12h37.55.308,lexical_decision_task_DD_L4,2021.2.3,MacIntel,59.99880002,,,,,,,,,,,1.8365,1,,,,,,,,,,,,,,,,,,,,,,,,-0.015494429,-0.356464354,0,0,0,,,,,,,CHERRY,C,m,y,./images/CHERRY.png,,,,,,,,,,,,,,,,,,,,,m,1,1.8365,,,,,,,,0,0,0,54,1
,,,,,,,,,,,,,,,,,,23,2022-02-12_12h37.55.308,lexical_decision_task_DD_L4,2021.2.3,MacIntel,59.99880002,,,,,,,,,,,1.2772,0,,,,,,,,,,,,,,,,,,,,,,,,-0.015494429,-0.356464354,0,0,0,,,,,,,PAINT,HB,z,y,./images/PAINTHB.png,,,,,,,,,,,,,,,,,,,,,m,0,1.2772,,,,,,,,0,1,1,91,1
,,,,,,,,,,,,,,,,,,23,2022-02-12_12h37.55.308,lexical_decision_task_DD_L4,2021.2.3,MacIntel,59.99880002,,,,,,,,,,,1.2492,1,,,,,,,,,,,,,,,,,,,,,,,,-0.015494429,-0.356464354,0,0,0,,,,,,,SQUARE,C,z,y,./images/SQUARE.png,,,,,,,,,,,,,,,,,,,,,z,1,1.2492,,,,,,,,0,2,2,90,1
,,,,,,,,,,,,,,,,,,23,2022-02-12_12h37.55.308,lexical_decision_task_DD_L4,2021.2.3,MacIntel,59.99880002,,,,,,,,,,,0.7695,1,,,,,,,,,,,,,,,,,,,,,,,,-0.015494429,-0.356464354,0,0,0,,,,,,,CANDY,C,m,y,./images/CANDY.png,,,,,,,,,,,,,,,,,,,,,m,1,0.7695,,,,,,,,0,3,3,39,1
,,,,,,,,,,,,,,,,,,23,2022-02-12_12h37.55.308,lexical_decision_task_DD_L4,2021.2.3,MacIntel,59.99880002,,,,,,,,,,,1.2162,1,,,,,,,,,,,,,,,,,,,,,,,,-0.015494429,-0.356464354,0,0,0,,,,,,,PEARL,HB,z,y,./images/PEARLHB.png,,,,,,,,,,,,,,,,,,,,,z,1,1.2162,,,,,,,,0,4,4,130,1
,,,,,,,,,,,,,,,,,,23,2022-02-12_12h37.55.308,lexical_decision_task_DD_L4,2021.2.3,MacIntel,59.99880002,,,,,,,,,,,0.7646,1,,,,,,,,,,,,,,,,,,,,,,,,-0.015494429,-0.356464354,0,0,0,,,,,,,VALLEY,LB,m,y,./images/VALLEYLB.png,,,,,,,,,,,,,,,,,,,,,m,1,0.7646,,,,,,,,0,5,5,68,1
,,,,,,,,,,,,,,,,,,23,2022-02-12_12h37.55.308,lexical_decision_task_DD_L4,2021.2.3,MacIntel,59.99880002,,,,,,,,,,,0.8723,0,,,,,,,,,,,,,,,,,,,,,,,,-0.015494429,-0.356464354,0,0,0,,,,,,,RHINO,C,z,y,./images/RHINO.png,,,,,,,,,,,,,,,,,,,,,m,0,0.8723,,,,,,,,0,6,6,93,1
,,,,,,,,,,,,,,,,,,23,2022-02-12_12h37.55.308,lexical_decision_task_DD_L4,2021.2.3,MacIntel,59.99880002,,,,,,,,,,,0.9678,1,,,,,,,,,,,,,,,,,,,,,,,,-0.015494429,-0.356464354,0,0,0,,,,,,,FOLDER,C,z,y,./images/FOLDER.png,,,,,,,,,,,,,,,,,,,,,z,1,0.9678,,,,,,,,0,7,7,126,1
,,,,,,,,,,,,,,,,,,23,2022-02-12_12h37.55.308,lexical_decision_task_DD_L4,2021.2.3,MacIntel,59.99880002,,,,,,,,,,,0.8985,0,,,,,,,,,,,,,,,,,,,,,,,,-0.015494429,-0.356464354,0,0,0,,,,,,,PEBBLE,HB,m,y,./images/PEBBLEHB.png,,,,,,,,,,,,,,,,,,,,,z,0,0.8985,,,,,,,,0,8,8,82,1
,,,,,,,,,,,,,,,,,,23,2022-02-12_12h37.55.308,lexical_decision_task_DD_L4,2021.2.3,MacIntel,59.99880002,,,,,,,,,,,0.7234,1,,,,,,,,,,,,,,,,,,,,,,,,-0.015494429,-0.356464354,0,0,0,,,,,,,CASINO,HB,m,y,./images/CASINOHB.png,,,,,,,,,,,,,,,,,,,,,m,1,0.7234,,,,,,,,0,9,9,28,1
,,,,,,,,,,,,,,,,,,23,2022-02-12_12h37.55.308,lexical_decision_task_DD_L4,2021.2.3,MacIntel,59.99880002,,,,,,,,,,,0.8354,1,,,,,,,,,,,,,,,,,,,,,,,,-0.015494429,-0.356464354,0,0,0,,,,,,,MUSCLE,HB,z,y,./images/MUSCLEHB.png,,,,,,,,,,,,,,,,,,,,,z,1,0.8354,,,,,,,,0,10,10,88,1
,,,,,,,,,,,,,,,,,,23,2022-02-12_12h37.55.308,lexical_decision_task_DD_L4,2021.2.3,MacIntel,59.99880002,,,,,,,,,,,1.2308,1,,,,,,,,,,,,,,,,,,,,,,,,-0.015494429,-0.356464354,0,0,0,,,,,,,JELLY,HB,z,y,./images/JELLYHB.png,,,,,,,,,,,,,,,,,,,,,z,1,1.2308,,,,,,,,0,11,11,148,1
,,,,,,,,,,,,,,,,,,23,2022-02-12_12h37.55.308,lexical_decision_task_DD_L4,2021.2.3,MacIntel,59.99880002,,,,,,,,,,,1.6811,1,,,,,,,,,,,,,,,,,,,,,,,,-0.015494429,-0.356464354,0,0,0,,,,,,,SMOKER,LB,z,y,./images/SMOKERLB.png,,,,,,,,,,,,,,,,,,,,,z,1,1.6811,,,,,,,,0,12,12,110,1
,,,,,,,,,,,,,,,,,,23,2022-02-12_12h37.55.308,lexical_decision_task_DD_L4,2021.2.3,MacIntel,59.99880002,,,,,,,,,,,0.8226,1,,,,,,,,,,,,,,,,,,,,,,,,-0.015494429,-0.356464354,0,0,0,,,,,,,LIZARD,LB,z,y,./images/LIZARDLB.png,,,,,,,,,,,,,,,,,,,,,z,1,0.8226,,,,,,,,0,13,13,128,1
,,,,,,,,,,,,,,,,,,23,2022-02-12_12h37.55.308,lexical_decision_task_DD_L4,2021.2.3,MacIntel,59.99880002,,,,,,,,,,,1.4868,0,,,,,,,,,,,,,,,,,,,,,,,,-0.015494429,-0.356464354,0,0,0,,,,,,,MUFFIN,HB,z,y,./images/MUFFINHB.png,,,,,,,,,,,,,,,,,,,,,m,0,1.4868,,,,,,,,0,14,14,139,1
,,,,,,,,,,,,,,,,,,23,2022-02-12_12h37.55.308,lexical_decision_task_DD_L4,2021.2.3,MacIntel,59.99880002,,,,,,,,,,,0.8272,1,,,,,,,,,,,,,,,,,,,,,,,,-0.015494429,-0.356464354,0,0,0,,,,,,,FLASK,C,m,y,./images/FLASK.png,,,,,,,,,,,,,,,,,,,,,m,1,0.8272,,,,,,,,0,15,15,72,1
,,,,,,,,,,,,,,,,,,23,2022-02-12_12h37.55.308,lexical_decision_task_DD_L4,2021.2.3,MacIntel,59.99880002,,,,,,,,,,,0.8357,1,,,,,,,,,,,,,,,,,,,,,,,,-0.015494429,-0.356464354,0,0,0,,,,,,,STATUE,C,m,y,./images/STATUE.png,,,,,,,,,,,,,,,,,,,,,m,1,0.8357,,,,,,,,0,16,16,66,1
,,,,,,,,,,,,,,,,,,23,2022-02-12_12h37.55.308,lexical_decision_task_DD_L4,2021.2.3,MacIntel,59.99880002,,,,,,,,,,,1.0745,1,,,,,,,,,,,,,,,,,,,,,,,,-0.015494429,-0.356464354,0,0,0,,,,,,,TRIPOD,C,z,y,./images/TRIPOD.png,,,,,,,,,,,,,,,,,,,,,z,1,1.0745,,,,,,,,0,17,17,138,1
,,,,,,,,,,,,,,,,,,23,2022-02-12_12h37.55.308,lexical_decision_task_DD_L4,2021.2.3,MacIntel,59.99880002,,,,,,,,,,,1.1249,1,,,,,,,,,,,,,,,,,,,,,,,,-0.015494429,-0.356464354,0,0,0,,,,,,,GREASE,C,z,y,./images/GREASE.png,,,,,,,,,,,,,,,,,,,,,z,1,1.1249,,,,,,,,0,18,18,99,1
,,,,,,,,,,,,,,,,,,23,2022-02-12_12h37.55.308,lexical_decision_task_DD_L4,2021.2.3,MacIntel,59.99880002,,,,,,,,,,,0.6915,1,,,,,,,,,,,,,,,,,,,,,,,,-0.015494429,-0.356464354,0,0,0,,,,,,,GLOVE,HB,m,y,./images/GLOVEHB.png,,,,,,,,,,,,,,,,,,,,,m,1,0.6915,,,,,,,,0,19,19,73,1
,,,,,,,,,,,,,,,,,,23,2022-02-12_12h37.55.308,lexical_decision_task_DD_L4,2021.2.3,MacIntel,59.99880002,,,,,,,,,,,1.923,1,,,,,,,,,,,,,,,,,,,,,,,,-0.015494429,-0.356464354,0,0,0,,,,,,,SNAKE,HB,m,y,./images/SNAKEHB.png,,,,,,,,,,,,,,,,,,,,,m,1,1.923,,,,,,,,0,20,20,40,1
,,,,,,,,,,,,,,,,,,23,2022-02-12_12h37.55.308,lexical_decision_task_DD_L4,2021.2.3,MacIntel,59.99880002,,,,,,,,,,,0.9209,1,,,,,,,,,,,,,,,,,,,,,,,,-0.015494429,-0.356464354,0,0,0,,,,,,,MELON,HB,z,y,./images/MELONHB.png,,,,,,,,,,,,,,,,,,,,,z,1,0.9209,,,,,,,,0,21,21,106,1
,,,,,,,,,,,,,,,,,,23,2022-02-12_12h37.55.308,lexical_decision_task_DD_L4,2021.2.3,MacIntel,59.99880002,,,,,,,,,,,0.8003,1,,,,,,,,,,,,,,,,,,,,,,,,-0.015494429,-0.356464354,0,0,0,,,,,,,CLOTH,LB,m,y,./images/CLOTHLB.png,,,,,,,,,,,,,,,,,,,,,m,1,0.8003,,,,,,,,0,22,22,23,1
,,,,,,,,,,,,,,,,,,23,2022-02-12_12h37.55.308,lexical_decision_task_DD_L4,2021.2.3,MacIntel,59.99880002,,,,,,,,,,,1.2634,1,,,,,,,,,,,,,,,,,,,,,,,,-0.015494429,-0.356464354,0,0,0,,,,,,,MAGGOT,C,z,y,./images/MAGGOT.png,,,,,,,,,,,,,,,,,,,,,z,1,1.2634,,,,,,,,0,23,23,117,1
,,,,,,,,,,,,,,,,,,23,2022-02-12_12h37.55.308,lexical_decision_task_DD_L4,2021.2.3,MacIntel,59.99880002,,,,,,,,,,,1.5654,0,,,,,,,,,,,,,,,,,,,,,,,,-0.015494429,-0.356464354,0,0,0,,,,,,,PISTOL,LB,m,y,./images/PISTOLLB.png,,,,,,,,,,,,,,,,,,,,,z,0,1.5654,,,,,,,,0,24,24,29,1
,,,,,,,,,,,,,,,,,,23,2022-02-12_12h37.55.308,lexical_decision_task_DD_L4,2021.2.3,MacIntel,59.99880002,,,,,,,,,,,0.967,0,,,,,,,,,,,,,,,,,,,,,,,,-0.015494429,-0.356464354,0,0,0,,,,,,,PEACH,LB,z,y,./images/PEACHLB.png,,,,,,,,,,,,,,,,,,,,,m,0,0.967,,,,,,,,0,25,25,119,1
,,,,,,,,,,,,,,,,,,23,2022-02-12_12h37.55.308,lexical_decision_task_DD_L4,2021.2.3,MacIntel,59.99880002,,,,,,,,,,,0.9041,1,,,,,,,,,,,,,,,,,,,,,,,,-0.015494429,-0.356464354,0,0,0,,,,,,,ATTIC,C,z,y,./images/ATTIC.png,,,,,,,,,,,,,,,,,,,,,z,1,0.9041,,,,,,,,0,26,26,111,1
,,,,,,,,,,,,,,,,,,23,2022-02-12_12h37.55.308,lexical_decision_task_DD_L4,2021.2.3,MacIntel,59.99880002,,,,,,,,,,,0.8319,1,,,,,,,,,,,,,,,,,,,,,,,,-0.015494429,-0.356464354,0,0,0,,,,,,,COUCH,LB,z,y,./images/COUCHLB.png,,,,,,,,,,,,,,,,,,,,,z,1,0.8319,,,,,,,,0,27,27,161,1
,,,,,,,,,,,,,,,,,,23,2022-02-12_12h37.55.308,lexical_decision_task_DD_L4,2021.2.3,MacIntel,59.99880002,,,,,,,,,,,0.8208,1,,,,,,,,,,,,,,,,,,,,,,,,-0.015494429,-0.356464354,0,0,0,,,,,,,BAKER,C,m,y,./images/BAKER.png,,,,,,,,,,,,,,,,,,,,,m,1,0.8208,,,,,,,,0,28,28,63,1
,,,,,,,,,,,,,,,,,,23,2022-02-12_12h37.55.308,lexical_decision_task_DD_L4,2021.2.3,MacIntel,59.99880002,,,,,,,,,,,1.0331,1,,,,,,,,,,,,,,,,,,,,,,,,-0.015494429,-0.356464354,0,0,0,,,,,,,HOCKEY,LB,m,y,./images/HOCKEYLB.png,,,,,,,,,,,,,,,,,,,,,m,1,1.0331,,,,,,,,0,29,29,32,1
,,,,,,,,,,,,,,,,,,23,2022-02-12_12h37.55.308,lexical_decision_task_DD_L4,2021.2.3,MacIntel,59.99880002,,,,,,,,,,,0.9325,0,,,,,,,,,,,,,,,,,,,,,,,,-0.015494429,-0.356464354,0,0,0,,,,,,,MOOSE,C,z,y,./images/MOOSE.png,,,,,,,,,,,,,,,,,,,,,m,0,0.9325,,,,,,,,0,30,30,141,1
,,,,,,,,,,,,,,,,,,23,2022-02-12_12h37.55.308,lexical_decision_task_DD_L4,2021.2.3,MacIntel,59.99880002,,,,,,,,,,,0.7413,1,,,,,,,,,,,,,,,,,,,,,,,,-0.015494429,-0.356464354,0,0,0,,,,,,,MIDGET,HB,m,y,./images/MIDGETHB.png,,,,,,,,,,,,,,,,,,,,,m,1,0.7413,,,,,,,,0,31,31,76,1
,,,,,,,,,,,,,,,,,,23,2022-02-12_12h37.55.308,lexical_decision_task_DD_L4,2021.2.3,MacIntel,59.99880002,,,,,,,,,,,0.8803,1,,,,,,,,,,,,,,,,,,,,,,,,-0.015494429,-0.356464354,0,0,0,,,,,,,WRIST,HB,z,y,./images/WRISTHB.png,,,,,,,,,,,,,,,,,,,,,z,1,0.8803,,,,,,,,0,32,32,109,1
,,,,,,,,,,,,,,,,,,23,2022-02-12_12h37.55.308,lexical_decision_task_DD_L4,2021.2.3,MacIntel,59.99880002,,,,,,,,,,,0.8505,1,,,,,,,,,,,,,,,,,,,,,,,,-0.015494429,-0.356464354,0,0,0,,,,,,,TOMATO,C,z,y,./images/TOMATO.png,,,,,,,,,,,,,,,,,,,,,z,1,0.8505,,,,,,,,0,33,33,84,1
,,,,,,,,,,,,,,,,,,23,2022-02-12_12h37.55.308,lexical_decision_task_DD_L4,2021.2.3,MacIntel,59.99880002,,,,,,,,,,,1.0278,0,,,,,,,,,,,,,,,,,,,,,,,,-0.015494429,-0.356464354,0,0,0,,,,,,,BONNET,LB,z,y,./images/BONNETLB.png,,,,,,,,,,,,,,,,,,,,,m,0,1.0278,,,,,,,,0,34,34,95,1
,,,,,,,,,,,,,,,,,,23,2022-02-12_12h37.55.308,lexical_decision_task_DD_L4,2021.2.3,MacIntel,59.99880002,,,,,,,,,,,0.6818,1,,,,,,,,,,,,,,,,,,,,,,,,-0.015494429,-0.356464354,0,0,0,,,,,,,CURRY,C,m,y,./images/CURRY.png,,,,,,,,,,,,,,,,,,,,,m,1,0.6818,,,,,,,,0,35,35,60,1
,,,,,,,,,,,,,,,,,,23,2022-02-12_12h37.55.308,lexical_decision_task_DD_L4,2021.2.3,MacIntel,59.99880002,,,,,,,,,,,1.3025,0,,,,,,,,,,,,,,,,,,,,,,,,-0.015494429,-0.356464354,0,0,0,,,,,,,DIVER,C,m,y,./images/DIVER.png,,,,,,,,,,,,,,,,,,,,,z,0,1.3025,,,,,,,,0,36,36,9,1
,,,,,,,,,,,,,,,,,,23,2022-02-12_12h37.55.308,lexical_decision_task_DD_L4,2021.2.3,MacIntel,59.99880002,,,,,,,,,,,0.9845,0,,,,,,,,,,,,,,,,,,,,,,,,-0.015494429,-0.356464354,0,0,0,,,,,,,BROOM,C,m,y,./images/BROOM.png,,,,,,,,,,,,,,,,,,,,,z,0,0.9845,,,,,,,,0,37,37,78,1
,,,,,,,,,,,,,,,,,,23,2022-02-12_12h37.55.308,lexical_decision_task_DD_L4,2021.2.3,MacIntel,59.99880002,,,,,,,,,,,1.2283,1,,,,,,,,,,,,,,,,,,,,,,,,-0.015494429,-0.356464354,0,0,0,,,,,,,PARCEL,C,m,y,./images/PARCEL.png,,,,,,,,,,,,,,,,,,,,,m,1,1.2283,,,,,,,,0,38,38,18,1
,,,,,,,,,,,,,,,,,,23,2022-02-12_12h37.55.308,lexical_decision_task_DD_L4,2021.2.3,MacIntel,59.99880002,,,,,,,,,,,0.7239,0,,,,,,,,,,,,,,,,,,,,,,,,-0.015494429,-0.356464354,0,0,0,,,,,,,BUTTER,C,m,y,./images/BUTTER.png,,,,,,,,,,,,,,,,,,,,,z,0,0.7239,,,,,,,,0,39,39,27,1
,,,,,,,,,,,,,,,,,,23,2022-02-12_12h37.55.308,lexical_decision_task_DD_L4,2021.2.3,MacIntel,59.99880002,,,,,,,,,,,0.9465,1,,,,,,,,,,,,,,,,,,,,,,,,-0.015494429,-0.356464354,0,0,0,,,,,,,TORCH,LB,z,y,./images/TORCHLB.png,,,,,,,,,,,,,,,,,,,,,z,1,0.9465,,,,,,,,0,40,40,152,1
,,,,,,,,,,,,,,,,,,23,2022-02-12_12h37.55.308,lexical_decision_task_DD_L4,2021.2.3,MacIntel,59.99880002,,,,,,,,,,,0.8522,0,,,,,,,,,,,,,,,,,,,,,,,,-0.015494429,-0.356464354,0,0,0,space,,,,,,POODLE,C,z,y,./images/POODLE.png,13.68,,,,,,,,,,,,,,,,,,,,m,0,0.8522,,,,,,,,0,41,41,165,1
,,,,,,,,,,,,,,,,,,23,2022-02-12_12h37.55.308,lexical_decision_task_DD_L4,2021.2.3,MacIntel,59.99880002,,,,,,,,,,,0.7874,1,,,,,,,,,,,,,,,,,,,,,,,,-0.015494429,-0.356464354,0,0,0,,,,,,,WALNUT,C,m,y,./images/WALNUT.png,,,,,,,,,,,,,,,,,,,,,m,1,0.7874,,,,,,,,0,42,42,0,1
,,,,,,,,,,,,,,,,,,23,2022-02-12_12h37.55.308,lexical_decision_task_DD_L4,2021.2.3,MacIntel,59.99880002,,,,,,,,,,,0.6805,1,,,,,,,,,,,,,,,,,,,,,,,,-0.015494429,-0.356464354,0,0,0,,,,,,,COOKER,C,z,y,./images/COOKER.png,,,,,,,,,,,,,,,,,,,,,z,1,0.6805,,,,,,,,0,43,43,153,1
,,,,,,,,,,,,,,,,,,23,2022-02-12_12h37.55.308,lexical_decision_task_DD_L4,2021.2.3,MacIntel,59.99880002,,,,,,,,,,,0.6702,1,,,,,,,,,,,,,,,,,,,,,,,,-0.015494429,-0.356464354,0,0,0,,,,,,,STORM,C,z,y,./images/STORM.png,,,,,,,,,,,,,,,,,,,,,z,1,0.6702,,,,,,,,0,44,44,114,1
,,,,,,,,,,,,,,,,,,23,2022-02-12_12h37.55.308,lexical_decision_task_DD_L4,2021.2.3,MacIntel,59.99880002,,,,,,,,,,,0.7484,1,,,,,,,,,,,,,,,,,,,,,,,,-0.015494429,-0.356464354,0,0,0,,,,,,,SPORT,C,z,y,./images/SPORT.png,,,,,,,,,,,,,,,,,,,,,z,1,0.7484,,,,,,,,0,45,45,132,1
,,,,,,,,,,,,,,,,,,23,2022-02-12_12h37.55.308,lexical_decision_task_DD_L4,2021.2.3,MacIntel,59.99880002,,,,,,,,,,,0.6607,1,,,,,,,,,,,,,,,,,,,,,,,,-0.015494429,-0.356464354,0,0,0,,,,,,,CLOWN,HB,m,y,./images/CLOWNHB.png,,,,,,,,,,,,,,,,,,,,,m,1,0.6607,,,,,,,,0,46,46,22,1
,,,,,,,,,,,,,,,,,,23,2022-02-12_12h37.55.308,lexical_decision_task_DD_L4,2021.2.3,MacIntel,59.99880002,,,,,,,,,,,0.8352,1,,,,,,,,,,,,,,,,,,,,,,,,-0.015494429,-0.356464354,0,0,0,,,,,,,PACKET,LB,z,y,./images/PACKETLB.png,,,,,,,,,,,,,,,,,,,,,z,1,0.8352,,,,,,,,0,47,47,140,1
,,,,,,,,,,,,,,,,,,23,2022-02-12_12h37.55.308,lexical_decision_task_DD_L4,2021.2.3,MacIntel,59.99880002,,,,,,,,,,,1.2923,0,,,,,,,,,,,,,,,,,,,,,,,,-0.015494429,-0.356464354,0,0,0,,,,,,,DRILL,C,m,y,./images/DRILL.png,,,,,,,,,,,,,,,,,,,,,z,0,1.2923,,,,,,,,0,48,48,81,1
,,,,,,,,,,,,,,,,,,23,2022-02-12_12h37.55.308,lexical_decision_task_DD_L4,2021.2.3,MacIntel,59.99880002,,,,,,,,,,,1.0184,0,,,,,,,,,,,,,,,,,,,,,,,,-0.015494429,-0.356464354,0,0,0,,,,,,,WALRUS,LB,z,y,./images/WALRUSLB.png,,,,,,,,,,,,,,,,,,,,,m,0,1.0184,,,,,,,,0,49,49,107,1
,,,,,,,,,,,,,,,,,,23,2022-02-12_12h37.55.308,lexical_decision_task_DD_L4,2021.2.3,MacIntel,59.99880002,,,,,,,,,,,0.8235,0,,,,,,,,,,,,,,,,,,,,,,,,-0.015494429,-0.356464354,0,0,0,,,,,,,CRUST,HB,z,y,./images/CRUSTHB.png,,,,,,,,,,,,,,,,,,,,,m,0,0.8235,,,,,,,,0,50,50,163,1
,,,,,,,,,,,,,,,,,,23,2022-02-12_12h37.55.308,lexical_decision_task_DD_L4,2021.2.3,MacIntel,59.99880002,,,,,,,,,,,1.1005,1,,,,,,,,,,,,,,,,,,,,,,,,-0.015494429,-0.356464354,0,0,0,,,,,,,KIDNEY,C,z,y,./images/KIDNEY.png,,,,,,,,,,,,,,,,,,,,,z,1,1.1005,,,,,,,,0,51,51,105,1
,,,,,,,,,,,,,,,,,,23,2022-02-12_12h37.55.308,lexical_decision_task_DD_L4,2021.2.3,MacIntel,59.99880002,,,,,,,,,,,1.6821,1,,,,,,,,,,,,,,,,,,,,,,,,-0.015494429,-0.356464354,0,0,0,,,,,,,SHELF,C,z,y,./images/SHELF.png,,,,,,,,,,,,,,,,,,,,,z,1,1.6821,,,,,,,,0,52,52,123,1
,,,,,,,,,,,,,,,,,,23,2022-02-12_12h37.55.308,lexical_decision_task_DD_L4,2021.2.3,MacIntel,59.99880002,,,,,,,,,,,1.2718,1,,,,,,,,,,,,,,,,,,,,,,,,-0.015494429,-0.356464354,0,0,0,,,,,,,GRANNY,LB,m,y,./images/GRANNYLB.png,,,,,,,,,,,,,,,,,,,,,m,1,1.2718,,,,,,,,0,53,53,20,1
,,,,,,,,,,,,,,,,,,23,2022-02-12_12h37.55.308,lexical_decision_task_DD_L4,2021.2.3,MacIntel,59.99880002,,,,,,,,,,,0.7743,1,,,,,,,,,,,,,,,,,,,,,,,,-0.015494429,-0.356464354,0,0,0,,,,,,,DESERT,HB,m,y,./images/DESERTHB.png,,,,,,,,,,,,,,,,,,,,,m,1,0.7743,,,,,,,,0,54,54,52,1
,,,,,,,,,,,,,,,,,,23,2022-02-12_12h37.55.308,lexical_decision_task_DD_L4,2021.2.3,MacIntel,59.99880002,,,,,,,,,,,0.7857,1,,,,,,,,,,,,,,,,,,,,,,,,-0.015494429,-0.356464354,0,0,0,,,,,,,RULER,HB,m,y,./images/RULERHB.png,,,,,,,,,,,,,,,,,,,,,m,1,0.7857,,,,,,,,0,55,55,79,1
,,,,,,,,,,,,,,,,,,23,2022-02-12_12h37.55.308,lexical_decision_task_DD_L4,2021.2.3,MacIntel,59.99880002,,,,,,,,,,,1.5167,1,,,,,,,,,,,,,,,,,,,,,,,,-0.015494429,-0.356464354,0,0,0,,,,,,,MOTOR,HB,z,y,./images/MOTORHB.png,,,,,,,,,,,,,,,,,,,,,z,1,1.5167,,,,,,,,0,56,56,97,1
,,,,,,,,,,,,,,,,,,23,2022-02-12_12h37.55.308,lexical_decision_task_DD_L4,2021.2.3,MacIntel,59.99880002,,,,,,,,,,,0.9827,1,,,,,,,,,,,,,,,,,,,,,,,,-0.015494429,-0.356464354,0,0,0,,,,,,,CANOE,HB,m,y,./images/CANOEHB.png,,,,,,,,,,,,,,,,,,,,,m,1,0.9827,,,,,,,,0,57,57,58,1
,,,,,,,,,,,,,,,,,,23,2022-02-12_12h37.55.308,lexical_decision_task_DD_L4,2021.2.3,MacIntel,59.99880002,,,,,,,,,,,1.1152,0,,,,,,,,,,,,,,,,,,,,,,,,-0.015494429,-0.356464354,0,0,0,,,,,,,STREAM,LB,m,y,./images/STREAMLB.png,,,,,,,,,,,,,,,,,,,,,z,0,1.1152,,,,,,,,0,58,58,41,1
,,,,,,,,,,,,,,,,,,23,2022-02-12_12h37.55.308,lexical_decision_task_DD_L4,2021.2.3,MacIntel,59.99880002,,,,,,,,,,,3.0494,0,,,,,,,,,,,,,,,,,,,,,,,,-0.015494429,-0.356464354,0,0,0,,,,,,,GARDEN,HB,m,y,./images/GARDENHB.png,,,,,,,,,,,,,,,,,,,,,z,0,3.0494,,,,,,,,0,59,59,10,1
,,,,,,,,,,,,,,,,,,23,2022-02-12_12h37.55.308,lexical_decision_task_DD_L4,2021.2.3,MacIntel,59.99880002,,,,,,,,,,,1.1138,0,,,,,,,,,,,,,,,,,,,,,,,,-0.015494429,-0.356464354,0,0,0,,,,,,,BARREL,LB,z,y,./images/BARRELLB.png,,,,,,,,,,,,,,,,,,,,,m,0,1.1138,,,,,,,,0,60,60,116,1
,,,,,,,,,,,,,,,,,,23,2022-02-12_12h37.55.308,lexical_decision_task_DD_L4,2021.2.3,MacIntel,59.99880002,,,,,,,,,,,2.6668,1,,,,,,,,,,,,,,,,,,,,,,,,-0.015494429,-0.356464354,0,0,0,,,,,,,BAMBOO,LB,m,y,./images/BAMBOOLB.png,,,,,,,,,,,,,,,,,,,,,m,1,2.6668,,,,,,,,0,61,61,5,1
,,,,,,,,,,,,,,,,,,23,2022-02-12_12h37.55.308,lexical_decision_task_DD_L4,2021.2.3,MacIntel,59.99880002,,,,,,,,,,,1.1447,0,,,,,,,,,,,,,,,,,,,,,,,,-0.015494429,-0.356464354,0,0,0,,,,,,,WEASEL,LB,z,y,./images/WEASELLB.png,,,,,,,,,,,,,,,,,,,,,m,0,1.1447,,,,,,,,0,62,62,164,1
,,,,,,,,,,,,,,,,,,23,2022-02-12_12h37.55.308,lexical_decision_task_DD_L4,2021.2.3,MacIntel,59.99880002,,,,,,,,,,,0.7539,0,,,,,,,,,,,,,,,,,,,,,,,,-0.015494429,-0.356464354,0,0,0,,,,,,,PICKLE,LB,z,y,./images/PICKLELB.png,,,,,,,,,,,,,,,,,,,,,m,0,0.7539,,,,,,,,0,63,63,98,1
,,,,,,,,,,,,,,,,,,23,2022-02-12_12h37.55.308,lexical_decision_task_DD_L4,2021.2.3,MacIntel,59.99880002,,,,,,,,,,,0.7728,1,,,,,,,,,,,,,,,,,,,,,,,,-0.015494429,-0.356464354,0,0,0,,,,,,,WAGON,HB,m,y,./images/WAGONHB.png,,,,,,,,,,,,,,,,,,,,,m,1,0.7728,,,,,,,,0,64,64,7,1
,,,,,,,,,,,,,,,,,,23,2022-02-12_12h37.55.308,lexical_decision_task_DD_L4,2021.2.3,MacIntel,59.99880002,,,,,,,,,,,1.0073,1,,,,,,,,,,,,,,,,,,,,,,,,-0.015494429,-0.356464354,0,0,0,,,,,,,CRATER,C,m,y,./images/CRATER.png,,,,,,,,,,,,,,,,,,,,,m,1,1.0073,,,,,,,,0,65,65,3,1
,,,,,,,,,,,,,,,,,,23,2022-02-12_12h37.55.308,lexical_decision_task_DD_L4,2021.2.3,MacIntel,59.99880002,,,,,,,,,,,3.1367,0,,,,,,,,,,,,,,,,,,,,,,,,-0.015494429,-0.356464354,0,0,0,,,,,,,DONKEY,HB,m,y,./images/DONKEYHB.png,,,,,,,,,,,,,,,,,,,,,z,0,3.1367,,,,,,,,0,66,66,19,1
,,,,,,,,,,,,,,,,,,23,2022-02-12_12h37.55.308,lexical_decision_task_DD_L4,2021.2.3,MacIntel,59.99880002,,,,,,,,,,,1.0082,1,,,,,,,,,,,,,,,,,,,,,,,,-0.015494429,-0.356464354,0,0,0,,,,,,,MUMMY,HB,m,y,./images/MUMMYHB.png,,,,,,,,,,,,,,,,,,,,,m,1,1.0082,,,,,,,,0,67,67,46,1
,,,,,,,,,,,,,,,,,,23,2022-02-12_12h37.55.308,lexical_decision_task_DD_L4,2021.2.3,MacIntel,59.99880002,,,,,,,,,,,0.9998,1,,,,,,,,,,,,,,,,,,,,,,,,-0.015494429,-0.356464354,0,0,0,,,,,,,HAMMER,C,m,y,./images/HAMMER.png,,,,,,,,,,,,,,,,,,,,,m,1,0.9998,,,,,,,,0,68,68,75,1
,,,,,,,,,,,,,,,,,,23,2022-02-12_12h37.55.308,lexical_decision_task_DD_L4,2021.2.3,MacIntel,59.99880002,,,,,,,,,,,0.7373,0,,,,,,,,,,,,,,,,,,,,,,,,-0.015494429,-0.356464354,0,0,0,,,,,,,JUNGLE,LB,z,y,./images/JUNGLELB.png,,,,,,,,,,,,,,,,,,,,,m,0,0.7373,,,,,,,,0,69,69,167,1
,,,,,,,,,,,,,,,,,,23,2022-02-12_12h37.55.308,lexical_decision_task_DD_L4,2021.2.3,MacIntel,59.99880002,,,,,,,,,,,0.7258,1,,,,,,,,,,,,,,,,,,,,,,,,-0.015494429,-0.356464354,0,0,0,,,,,,,PILOT,LB,m,y,./images/PILOTLB.png,,,,,,,,,,,,,,,,,,,,,m,1,0.7258,,,,,,,,0,70,70,50,1
,,,,,,,,,,,,,,,,,,23,2022-02-12_12h37.55.308,lexical_decision_task_DD_L4,2021.2.3,MacIntel,59.99880002,,,,,,,,,,,0.9368,1,,,,,,,,,,,,,,,,,,,,,,,,-0.015494429,-0.356464354,0,0,0,,,,,,,SLOPE,C,m,y,./images/SLOPE.png,,,,,,,,,,,,,,,,,,,,,m,1,0.9368,,,,,,,,0,71,71,30,1
,,,,,,,,,,,,,,,,,,23,2022-02-12_12h37.55.308,lexical_decision_task_DD_L4,2021.2.3,MacIntel,59.99880002,,,,,,,,,,,0.9871,0,,,,,,,,,,,,,,,,,,,,,,,,-0.015494429,-0.356464354,0,0,0,,,,,,,CHAIN,C,m,y,./images/CHAIN.png,,,,,,,,,,,,,,,,,,,,,z,0,0.9871,,,,,,,,0,72,72,42,1
,,,,,,,,,,,,,,,,,,23,2022-02-12_12h37.55.308,lexical_decision_task_DD_L4,2021.2.3,MacIntel,59.99880002,,,,,,,,,,,1.138,0,,,,,,,,,,,,,,,,,,,,,,,,-0.015494429,-0.356464354,0,0,0,,,,,,,TULIP,LB,z,y,./images/TULIPLB.png,,,,,,,,,,,,,,,,,,,,,m,0,1.138,,,,,,,,0,73,73,92,1
,,,,,,,,,,,,,,,,,,23,2022-02-12_12h37.55.308,lexical_decision_task_DD_L4,2021.2.3,MacIntel,59.99880002,,,,,,,,,,,1.0864,1,,,,,,,,,,,,,,,,,,,,,,,,-0.015494429,-0.356464354,0,0,0,,,,,,,KITTEN,C,z,y,./images/KITTEN.png,,,,,,,,,,,,,,,,,,,,,z,1,1.0864,,,,,,,,0,74,74,129,1
,,,,,,,,,,,,,,,,,,23,2022-02-12_12h37.55.308,lexical_decision_task_DD_L4,2021.2.3,MacIntel,59.99880002,,,,,,,,,,,0.8281,1,,,,,,,,,,,,,,,,,,,,,,,,-0.015494429,-0.356464354,0,0,0,,,,,,,LAGOON,LB,m,y,./images/LAGOONLB.png,,,,,,,,,,,,,,,,,,,,,m,1,0.8281,,,,,,,,0,75,75,47,1
,,,,,,,,,,,,,,,,,,23,2022-02-12_12h37.55.308,lexical_decision_task_DD_L4,2021.2.3,MacIntel,59.99880002,,,,,,,,,,,0.6338,1,,,,,,,,,,,,,,,,,,,,,,,,-0.015494429,-0.356464354,0,0,0,,,,,,,CHALK,HB,m,y,./images/CHALKHB.png,,,,,,,,,,,,,,,,,,,,,m,1,0.6338,,,,,,,,0,76,76,25,1
,,,,,,,,,,,,,,,,,,23,2022-02-12_12h37.55.308,lexical_decision_task_DD_L4,2021.2.3,MacIntel,59.99880002,,,,,,,,,,,1.2121,1,,,,,,,,,,,,,,,,,,,,,,,,-0.015494429,-0.356464354,0,0,0,,,,,,,THROAT,C,z,y,./images/THROAT.png,,,,,,,,,,,,,,,,,,,,,z,1,1.2121,,,,,,,,0,77,77,120,1
,,,,,,,,,,,,,,,,,,23,2022-02-12_12h37.55.308,lexical_decision_task_DD_L4,2021.2.3,MacIntel,59.99880002,,,,,,,,,,,0.7159,1,,,,,,,,,,,,,,,,,,,,,,,,-0.015494429,-0.356464354,0,0,0,,,,,,,RAZOR,HB,m,y,./images/RAZORHB.png,,,,,,,,,,,,,,,,,,,,,m,1,0.7159,,,,,,,,0,78,78,34,1
,,,,,,,,,,,,,,,,,,23,2022-02-12_12h37.55.308,lexical_decision_task_DD_L4,2021.2.3,MacIntel,59.99880002,,,,,,,,,,,0.7888,0,,,,,,,,,,,,,,,,,,,,,,,,-0.015494429,-0.356464354,0,0,0,,,,,,,LADDER,LB,z,y,./images/LADDERLB.png,,,,,,,,,,,,,,,,,,,,,m,0,0.7888,,,,,,,,0,79,79,122,1
,,,,,,,,,,,,,,,,,,23,2022-02-12_12h37.55.308,lexical_decision_task_DD_L4,2021.2.3,MacIntel,59.99880002,,,,,,,,,,,0.7875,1,,,,,,,,,,,,,,,,,,,,,,,,-0.015494429,-0.356464354,0,0,0,,,,,,,WHEEL,LB,m,y,./images/WHEELLB.png,,,,,,,,,,,,,,,,,,,,,m,1,0.7875,,,,,,,,0,80,80,77,1
,,,,,,,,,,,,,,,,,,23,2022-02-12_12h37.55.308,lexical_decision_task_DD_L4,2021.2.3,MacIntel,59.99880002,,,,,,,,,,,1.6552,1,,,,,,,,,,,,,,,,,,,,,,,,-0.015494429,-0.356464354,0,0,0,,,,,,,SNACK,HB,z,y,./images/SNACKHB.png,,,,,,,,,,,,,,,,,,,,,z,1,1.6552,,,,,,,,0,81,81,157,1
,,,,,,,,,,,,,,,,,,23,2022-02-12_12h37.55.308,lexical_decision_task_DD_L4,2021.2.3,MacIntel,59.99880002,,,,,,,,,,,0.7295,1,,,,,,,,,,,,,,,,,,,,,,,,-0.015494429,-0.356464354,0,0,0,,,,,,,FLESH,C,m,y,./images/FLESH.png,,,,,,,,,,,,,,,,,,,,,m,1,0.7295,,,,,,,,0,82,82,24,1
,,,,,,,,,,,,,,,,,,23,2022-02-12_12h37.55.308,lexical_decision_task_DD_L4,2021.2.3,MacIntel,59.99880002,,,,,,,,,,,1.0934,1,,,,,,,,,,,,,,,,,,,,,,,,-0.015494429,-0.356464354,0,0,0,space,,,,,,CEMENT,LB,z,y,./images/CEMENTLB.png,3.5539,,,,,,,,,,,,,,,,,,,,z,1,1.0934,,,,,,,,0,83,83,158,1
,,,,,,,,,,,,,,,,,,23,2022-02-12_12h37.55.308,lexical_decision_task_DD_L4,2021.2.3,MacIntel,59.99880002,,,,,,,,,,,0.9135,1,,,,,,,,,,,,,,,,,,,,,,,,-0.015494429,-0.356464354,0,0,0,,,,,,,ARTIST,HB,m,y,./images/ARTISTHB.png,,,,,,,,,,,,,,,,,,,,,m,1,0.9135,,,,,,,,0,84,84,61,1
,,,,,,,,,,,,,,,,,,23,2022-02-12_12h37.55.308,lexical_decision_task_DD_L4,2021.2.3,MacIntel,59.99880002,,,,,,,,,,,0.6755,1,,,,,,,,,,,,,,,,,,,,,,,,-0.015494429,-0.356464354,0,0,0,,,,,,,NOOSE,C,z,y,./images/NOOSE.png,,,,,,,,,,,,,,,,,,,,,z,1,0.6755,,,,,,,,0,85,85,156,1
,,,,,,,,,,,,,,,,,,23,2022-02-12_12h37.55.308,lexical_decision_task_DD_L4,2021.2.3,MacIntel,59.99880002,,,,,,,,,,,0.723,1,,,,,,,,,,,,,,,,,,,,,,,,-0.015494429,-0.356464354,0,0,0,,,,,,,BANANA,HB,m,y,./images/BANANAHB.png,,,,,,,,,,,,,,,,,,,,,m,1,0.723,,,,,,,,0,86,86,70,1
,,,,,,,,,,,,,,,,,,23,2022-02-12_12h37.55.308,lexical_decision_task_DD_L4,2021.2.3,MacIntel,59.99880002,,,,,,,,,,,0.9389,0,,,,,,,,,,,,,,,,,,,,,,,,-0.015494429,-0.356464354,0,0,0,,,,,,,BRUSH,LB,m,y,./images/BRUSHLB.png,,,,,,,,,,,,,,,,,,,,,z,0,0.9389,,,,,,,,0,87,87,59,1
,,,,,,,,,,,,,,,,,,23,2022-02-12_12h37.55.308,lexical_decision_task_DD_L4,2021.2.3,MacIntel,59.99880002,,,,,,,,,,,0.8326,1,,,,,,,,,,,,,,,,,,,,,,,,-0.015494429,-0.356464354,0,0,0,,,,,,,FENCE,LB,m,y,./images/FENCELB.png,,,,,,,,,,,,,,,,,,,,,m,1,0.8326,,,,,,,,0,88,88,14,1
,,,,,,,,,,,,,,,,,,23,2022-02-12_12h37.55.308,lexical_decision_task_DD_L4,2021.2.3,MacIntel,59.99880002,,,,,,,,,,,0.5881,1,,,,,,,,,,,,,,,,,,,,,,,,-0.015494429,-0.356464354,0,0,0,,,,,,,LLAMA,LB,m,y,./images/LLAMALB.png,,,,,,,,,,,,,,,,,,,,,m,1,0.5881,,,,,,,,0,89,89,35,1
,,,,,,,,,,,,,,,,,,23,2022-02-12_12h37.55.308,lexical_decision_task_DD_L4,2021.2.3,MacIntel,59.99880002,,,,,,,,,,,0.828,1,,,,,,,,,,,,,,,,,,,,,,,,-0.015494429,-0.356464354,0,0,0,,,,,,,FALCON,HB,z,y,./images/FALCONHB.png,,,,,,,,,,,,,,,,,,,,,z,1,0.828,,,,,,,,0,90,90,112,1
,,,,,,,,,,,,,,,,,,23,2022-02-12_12h37.55.308,lexical_decision_task_DD_L4,2021.2.3,MacIntel,59.99880002,,,,,,,,,,,1.4039,1,,,,,,,,,,,,,,,,,,,,,,,,-0.015494429,-0.356464354,0,0,0,,,,,,,WHISKY,LB,m,y,./images/WHISKYLB.png,,,,,,,,,,,,,,,,,,,,,m,1,1.4039,,,,,,,,0,91,91,83,1
,,,,,,,,,,,,,,,,,,23,2022-02-12_12h37.55.308,lexical_decision_task_DD_L4,2021.2.3,MacIntel,59.99880002,,,,,,,,,,,0.7486,0,,,,,,,,,,,,,,,,,,,,,,,,-0.015494429,-0.356464354,0,0,0,,,,,,,SPINE,LB,m,y,./images/SPINELB.png,,,,,,,,,,,,,,,,,,,,,z,0,0.7486,,,,,,,,0,92,92,65,1
,,,,,,,,,,,,,,,,,,23,2022-02-12_12h37.55.308,lexical_decision_task_DD_L4,2021.2.3,MacIntel,59.99880002,,,,,,,,,,,1.8902,1,,,,,,,,,,,,,,,,,,,,,,,,-0.015494429,-0.356464354,0,0,0,,,,,,,SHORE,C,z,y,./images/SHORE.png,,,,,,,,,,,,,,,,,,,,,z,1,1.8902,,,,,,,,0,93,93,96,1
,,,,,,,,,,,,,,,,,,23,2022-02-12_12h37.55.308,lexical_decision_task_DD_L4,2021.2.3,MacIntel,59.99880002,,,,,,,,,,,0.8465,0,,,,,,,,,,,,,,,,,,,,,,,,-0.015494429,-0.356464354,0,0,0,,,,,,,MIRROR,C,z,y,./images/MIRROR.png,,,,,,,,,,,,,,,,,,,,,m,0,0.8465,,,,,,,,0,94,94,147,1
,,,,,,,,,,,,,,,,,,23,2022-02-12_12h37.55.308,lexical_decision_task_DD_L4,2021.2.3,MacIntel,59.99880002,,,,,,,,,,,2.2324,0,,,,,,,,,,,,,,,,,,,,,,,,-0.015494429,-0.356464354,0,0,0,,,,,,,POKER,HB,m,y,./images/POKERHB.png,,,,,,,,,,,,,,,,,,,,,z,0,2.2324,,,,,,,,0,95,95,67,1
,,,,,,,,,,,,,,,,,,23,2022-02-12_12h37.55.308,lexical_decision_task_DD_L4,2021.2.3,MacIntel,59.99880002,,,,,,,,,,,0.8965,1,,,,,,,,,,,,,,,,,,,,,,,,-0.015494429,-0.356464354,0,0,0,,,,,,,PURSE,LB,z,y,./images/PURSELB.png,,,,,,,,,,,,,,,,,,,,,z,1,0.8965,,,,,,,,0,96,96,146,1
,,,,,,,,,,,,,,,,,,23,2022-02-12_12h37.55.308,lexical_decision_task_DD_L4,2021.2.3,MacIntel,59.99880002,,,,,,,,,,,1.4786,1,,,,,,,,,,,,,,,,,,,,,,,,-0.015494429,-0.356464354,0,0,0,,,,,,,ONION,C,z,y,./images/ONION.png,,,,,,,,,,,,,,,,,,,,,z,1,1.4786,,,,,,,,0,97,97,135,1
,,,,,,,,,,,,,,,,,,23,2022-02-12_12h37.55.308,lexical_decision_task_DD_L4,2021.2.3,MacIntel,59.99880002,,,,,,,,,,,0.8009,1,,,,,,,,,,,,,,,,,,,,,,,,-0.015494429,-0.356464354,0,0,0,,,,,,,FERRY,C,m,y,./images/FERRY.png,,,,,,,,,,,,,,,,,,,,,m,1,0.8009,,,,,,,,0,98,98,57,1
,,,,,,,,,,,,,,,,,,23,2022-02-12_12h37.55.308,lexical_decision_task_DD_L4,2021.2.3,MacIntel,59.99880002,,,,,,,,,,,0.9134,1,,,,,,,,,,,,,,,,,,,,,,,,-0.015494429,-0.356464354,0,0,0,,,,,,,PIMPLE,LB,z,y,./images/PIMPLELB.png,,,,,,,,,,,,,,,,,,,,,z,1,0.9134,,,,,,,,0,99,99,155,1
,,,,,,,,,,,,,,,,,,23,2022-02-12_12h37.55.308,lexical_decision_task_DD_L4,2021.2.3,MacIntel,59.99880002,,,,,,,,,,,0.7745,1,,,,,,,,,,,,,,,,,,,,,,,,-0.015494429,-0.356464354,0,0,0,,,,,,,SAUNA,C,m,y,./images/SAUNA.png,,,,,,,,,,,,,,,,,,,,,m,1,0.7745,,,,,,,,0,100,100,33,1
,,,,,,,,,,,,,,,,,,23,2022-02-12_12h37.55.308,lexical_decision_task_DD_L4,2021.2.3,MacIntel,59.99880002,,,,,,,,,,,3.303,0,,,,,,,,,,,,,,,,,,,,,,,,-0.015494429,-0.356464354,0,0,0,,,,,,,MEDAL,LB,m,y,./images/MEDALLB.png,,,,,,,,,,,,,,,,,,,,,z,0,3.303,,,,,,,,0,101,101,11,1
,,,,,,,,,,,,,,,,,,23,2022-02-12_12h37.55.308,lexical_decision_task_DD_L4,2021.2.3,MacIntel,59.99880002,,,,,,,,,,,1.8744,0,,,,,,,,,,,,,,,,,,,,,,,,-0.015494429,-0.356464354,0,0,0,,,,,,,STOOL,HB,m,y,./images/STOOLHB.png,,,,,,,,,,,,,,,,,,,,,z,0,1.8744,,,,,,,,0,102,102,43,1
,,,,,,,,,,,,,,,,,,23,2022-02-12_12h37.55.308,lexical_decision_task_DD_L4,2021.2.3,MacIntel,59.99880002,,,,,,,,,,,1.5142,1,,,,,,,,,,,,,,,,,,,,,,,,-0.015494429,-0.356464354,0,0,0,,,,,,,ARROW,C,m,y,./images/ARROW.png,,,,,,,,,,,,,,,,,,,,,m,1,1.5142,,,,,,,,0,103,103,69,1
,,,,,,,,,,,,,,,,,,23,2022-02-12_12h37.55.308,lexical_decision_task_DD_L4,2021.2.3,MacIntel,59.99880002,,,,,,,,,,,0.872,1,,,,,,,,,,,,,,,,,,,,,,,,-0.015494429,-0.356464354,0,0,0,,,,,,,JAGUAR,C,z,y,./images/JAGUAR.png,,,,,,,,,,,,,,,,,,,,,z,1,0.872,,,,,,,,0,104,104,102,1
,,,,,,,,,,,,,,,,,,23,2022-02-12_12h37.55.308,lexical_decision_task_DD_L4,2021.2.3,MacIntel,59.99880002,,,,,,,,,,,0.7826,1,,,,,,,,,,,,,,,,,,,,,,,,-0.015494429,-0.356464354,0,0,0,,,,,,,BIRTH,HB,z,y,./images/BIRTHHB.png,,,,,,,,,,,,,,,,,,,,,z,1,0.7826,,,,,,,,0,105,105,121,1
,,,,,,,,,,,,,,,,,,23,2022-02-12_12h37.55.308,lexical_decision_task_DD_L4,2021.2.3,MacIntel,59.99880002,,,,,,,,,,,1.6556,1,,,,,,,,,,,,,,,,,,,,,,,,-0.015494429,-0.356464354,0,0,0,,,,,,,DOUGH,HB,z,y,./images/DOUGHHB.png,,,,,,,,,,,,,,,,,,,,,z,1,1.6556,,,,,,,,0,106,106,103,1
,,,,,,,,,,,,,,,,,,23,2022-02-12_12h37.55.308,lexical_decision_task_DD_L4,2021.2.3,MacIntel,59.99880002,,,,,,,,,,,0.7675,0,,,,,,,,,,,,,,,,,,,,,,,,-0.015494429,-0.356464354,0,0,0,,,,,,,BOXER,HB,m,y,./images/BOXERHB.png,,,,,,,,,,,,,,,,,,,,,z,0,0.7675,,,,,,,,0,107,107,4,1
,,,,,,,,,,,,,,,,,,23,2022-02-12_12h37.55.308,lexical_decision_task_DD_L4,2021.2.3,MacIntel,59.99880002,,,,,,,,,,,1.3003,1,,,,,,,,,,,,,,,,,,,,,,,,-0.015494429,-0.356464354,0,0,0,,,,,,,FARMER,LB,z,y,./images/FARMERLB.png,,,,,,,,,,,,,,,,,,,,,z,1,1.3003,,,,,,,,0,108,108,149,1
,,,,,,,,,,,,,,,,,,23,2022-02-12_12h37.55.308,lexical_decision_task_DD_L4,2021.2.3,MacIntel,59.99880002,,,,,,,,,,,0.8039,1,,,,,,,,,,,,,,,,,,,,,,,,-0.015494429,-0.356464354,0,0,0,,,,,,,BLOKE,C,m,y,./images/BLOKE.png,,,,,,,,,,,,,,,,,,,,,m,1,0.8039,,,,,,,,0,109,109,12,1
,,,,,,,,,,,,,,,,,,23,2022-02-12_12h37.55.308,lexical_decision_task_DD_L4,2021.2.3,MacIntel,59.99880002,,,,,,,,,,,1.2414,0,,,,,,,,,,,,,,,,,,,,,,,,-0.015494429,-0.356464354,0,0,0,,,,,,,TIGER,HB,m,y,./images/TIGERHB.png,,,,,,,,,,,,,,,,,,,,,z,0,1.2414,,,,,,,,0,110,110,37,1
,,,,,,,,,,,,,,,,,,23,2022-02-12_12h37.55.308,lexical_decision_task_DD_L4,2021.2.3,MacIntel,59.99880002,,,,,,,,,,,2.5762,1,,,,,,,,,,,,,,,,,,,,,,,,-0.015494429,-0.356464354,0,0,0,,,,,,,SCREW,C,z,y,./images/SCREW.png,,,,,,,,,,,,,,,,,,,,,z,1,2.5762,,,,,,,,0,111,111,108,1
,,,,,,,,,,,,,,,,,,23,2022-02-12_12h37.55.308,lexical_decision_task_DD_L4,2021.2.3,MacIntel,59.99880002,,,,,,,,,,,1.5495,1,,,,,,,,,,,,,,,,,,,,,,,,-0.015494429,-0.356464354,0,0,0,,,,,,,PENCE,HB,z,y,./images/PENCEHB.png,,,,,,,,,,,,,,,,,,,,,z,1,1.5495,,,,,,,,0,112,112,100,1
,,,,,,,,,,,,,,,,,,23,2022-02-12_12h37.55.308,lexical_decision_task_DD_L4,2021.2.3,MacIntel,59.99880002,,,,,,,,,,,1.0003,1,,,,,,,,,,,,,,,,,,,,,,,,-0.015494429,-0.356464354,0,0,0,,,,,,,MALLET,LB,z,y,./images/MALLETLB.png,,,,,,,,,,,,,,,,,,,,,z,1,1.0003,,,,,,,,0,113,113,134,1
,,,,,,,,,,,,,,,,,,23,2022-02-12_12h37.55.308,lexical_decision_task_DD_L4,2021.2.3,MacIntel,59.99880002,,,,,,,,,,,2.824,1,,,,,,,,,,,,,,,,,,,,,,,,-0.015494429,-0.356464354,0,0,0,,,,,,,SWING,HB,z,y,./images/SWINGHB.png,,,,,,,,,,,,,,,,,,,,,z,1,2.824,,,,,,,,0,114,114,124,1
,,,,,,,,,,,,,,,,,,23,2022-02-12_12h37.55.308,lexical_decision_task_DD_L4,2021.2.3,MacIntel,59.99880002,,,,,,,,,,,1.4343,0,,,,,,,,,,,,,,,,,,,,,,,,-0.015494429,-0.356464354,0,0,0,,,,,,,GRAPE,HB,m,y,./images/GRAPEHB.png,,,,,,,,,,,,,,,,,,,,,z,0,1.4343,,,,,,,,0,115,115,16,1
,,,,,,,,,,,,,,,,,,23,2022-02-12_12h37.55.308,lexical_decision_task_DD_L4,2021.2.3,MacIntel,59.99880002,,,,,,,,,,,0.9033,0,,,,,,,,,,,,,,,,,,,,,,,,-0.015494429,-0.356464354,0,0,0,,,,,,,COLLAR,C,m,y,./images/COLLAR.png,,,,,,,,,,,,,,,,,,,,,z,0,0.9033,,,,,,,,0,116,116,15,1
,,,,,,,,,,,,,,,,,,23,2022-02-12_12h37.55.308,lexical_decision_task_DD_L4,2021.2.3,MacIntel,59.99880002,,,,,,,,,,,1.4956,1,,,,,,,,,,,,,,,,,,,,,,,,-0.015494429,-0.356464354,0,0,0,,,,,,,BUNNY,HB,m,y,./images/BUNNYHB.png,,,,,,,,,,,,,,,,,,,,,m,1,1.4956,,,,,,,,0,117,117,13,1
,,,,,,,,,,,,,,,,,,23,2022-02-12_12h37.55.308,lexical_decision_task_DD_L4,2021.2.3,MacIntel,59.99880002,,,,,,,,,,,0.8648,1,,,,,,,,,,,,,,,,,,,,,,,,-0.015494429,-0.356464354,0,0,0,,,,,,,DANCER,C,m,y,./images/DANCER.png,,,,,,,,,,,,,,,,,,,,,m,1,0.8648,,,,,,,,0,118,118,21,1
,,,,,,,,,,,,,,,,,,23,2022-02-12_12h37.55.308,lexical_decision_task_DD_L4,2021.2.3,MacIntel,59.99880002,,,,,,,,,,,1.0256,1,,,,,,,,,,,,,,,,,,,,,,,,-0.015494429,-0.356464354,0,0,0,,,,,,,CRUMB,LB,z,y,./images/CRUMBLB.png,,,,,,,,,,,,,,,,,,,,,z,1,1.0256,,,,,,,,0,119,119,113,1
,,,,,,,,,,,,,,,,,,23,2022-02-12_12h37.55.308,lexical_decision_task_DD_L4,2021.2.3,MacIntel,59.99880002,,,,,,,,,,,1.4669,0,,,,,,,,,,,,,,,,,,,,,,,,-0.015494429,-0.356464354,0,0,0,,,,,,,TOWEL,HB,m,y,./images/TOWELHB.png,,,,,,,,,,,,,,,,,,,,,z,0,1.4669,,,,,,,,0,120,120,1,1
,,,,,,,,,,,,,,,,,,23,2022-02-12_12h37.55.308,lexical_decision_task_DD_L4,2021.2.3,MacIntel,59.99880002,,,,,,,,,,,1.2406,0,,,,,,,,,,,,,,,,,,,,,,,,-0.015494429,-0.356464354,0,0,0,,,,,,,MAMMAL,LB,m,y,./images/MAMMALLB.png,,,,,,,,,,,,,,,,,,,,,z,0,1.2406,,,,,,,,0,121,121,62,1
,,,,,,,,,,,,,,,,,,23,2022-02-12_12h37.55.308,lexical_decision_task_DD_L4,2021.2.3,MacIntel,59.99880002,,,,,,,,,,,1.4036,1,,,,,,,,,,,,,,,,,,,,,,,,-0.015494429,-0.356464354,0,0,0,,,,,,,LITTER,C,z,y,./images/LITTER.png,,,,,,,,,,,,,,,,,,,,,z,1,1.4036,,,,,,,,0,122,122,162,1
,,,,,,,,,,,,,,,,,,23,2022-02-12_12h37.55.308,lexical_decision_task_DD_L4,2021.2.3,MacIntel,59.99880002,,,,,,,,,,,1.3159,1,,,,,,,,,,,,,,,,,,,,,,,,-0.015494429,-0.356464354,0,0,0,,,,,,,CANDLE,HB,z,y,./images/CANDLEHB.png,,,,,,,,,,,,,,,,,,,,,z,1,1.3159,,,,,,,,0,123,123,145,1
,,,,,,,,,,,,,,,,,,23,2022-02-12_12h37.55.308,lexical_decision_task_DD_L4,2021.2.3,MacIntel,59.99880002,,,,,,,,,,,2.9527,1,,,,,,,,,,,,,,,,,,,,,,,,-0.015494429,-0.356464354,0,0,0,,,,,,,STRING,LB,z,y,./images/STRINGLB.png,,,,,,,,,,,,,,,,,,,,,z,1,2.9527,,,,,,,,0,124,124,125,1
,,,,,,,,,,,,,,,,,,23,2022-02-12_12h37.55.308,lexical_decision_task_DD_L4,2021.2.3,MacIntel,59.99880002,,,,,,,,,,,0.9327,1,,,,,,,,,,,,,,,,,,,,,,,,-0.015494429,-0.356464354,0,0,0,space,,,,,,SKIING,LB,z,y,./images/SKIINGLB.png,2.1179,,,,,,,,,,,,,,,,,,,,z,1,0.9327,,,,,,,,0,125,125,101,1
,,,,,,,,,,,,,,,,,,23,2022-02-12_12h37.55.308,lexical_decision_task_DD_L4,2021.2.3,MacIntel,59.99880002,,,,,,,,,,,0.9867,1,,,,,,,,,,,,,,,,,,,,,,,,-0.015494429,-0.356464354,0,0,0,,,,,,,GRAIN,C,z,y,./images/GRAIN.png,,,,,,,,,,,,,,,,,,,,,z,1,0.9867,,,,,,,,0,126,126,159,1
,,,,,,,,,,,,,,,,,,23,2022-02-12_12h37.55.308,lexical_decision_task_DD_L4,2021.2.3,MacIntel,59.99880002,,,,,,,,,,,1.5958,0,,,,,,,,,,,,,,,,,,,,,,,,-0.015494429,-0.356464354,0,0,0,,,,,,,BASKET,LB,m,y,./images/BASKETLB.png,,,,,,,,,,,,,,,,,,,,,z,0,1.5958,,,,,,,,0,127,127,44,1
,,,,,,,,,,,,,,,,,,23,2022-02-12_12h37.55.308,lexical_decision_task_DD_L4,2021.2.3,MacIntel,59.99880002,,,,,,,,,,,0.8798,1,,,,,,,,,,,,,,,,,,,,,,,,-0.015494429,-0.356464354,0,0,0,,,,,,,PARADE,LB,m,y,./images/PARADELB.png,,,,,,,,,,,,,,,,,,,,,m,1,0.8798,,,,,,,,0,128,128,17,1
,,,,,,,,,,,,,,,,,,23,2022-02-12_12h37.55.308,lexical_decision_task_DD_L4,2021.2.3,MacIntel,59.99880002,,,,,,,,,,,1.0526,1,,,,,,,,,,,,,,,,,,,,,,,,-0.015494429,-0.356464354,0,0,0,,,,,,,STOVE,LB,m,y,./images/STOVELB.png,,,,,,,,,,,,,,,,,,,,,m,1,1.0526,,,,,,,,0,129,129,2,1
,,,,,,,,,,,,,,,,,,23,2022-02-12_12h37.55.308,lexical_decision_task_DD_L4,2021.2.3,MacIntel,59.99880002,,,,,,,,,,,1.6641,0,,,,,,,,,,,,,,,,,,,,,,,,-0.015494429,-0.356464354,0,0,0,,,,,,,PLANET,LB,m,y,./images/PLANETLB.png,,,,,,,,,,,,,,,,,,,,,z,0,1.6641,,,,,,,,0,130,130,80,1
,,,,,,,,,,,,,,,,,,23,2022-02-12_12h37.55.308,lexical_decision_task_DD_L4,2021.2.3,MacIntel,59.99880002,,,,,,,,,,,0.901,1,,,,,,,,,,,,,,,,,,,,,,,,-0.015494429,-0.356464354,0,0,0,,,,,,,TWINS,C,z,y,./images/TWINS.png,,,,,,,,,,,,,,,,,,,,,z,1,0.901,,,,,,,,0,131,131,144,1
,,,,,,,,,,,,,,,,,,23,2022-02-12_12h37.55.308,lexical_decision_task_DD_L4,2021.2.3,MacIntel,59.99880002,,,,,,,,,,,0.7803,1,,,,,,,,,,,,,,,,,,,,,,,,-0.015494429,-0.356464354,0,0,0,,,,,,,URINE,HB,z,y,./images/URINEHB.png,,,,,,,,,,,,,,,,,,,,,z,1,0.7803,,,,,,,,0,132,132,154,1
,,,,,,,,,,,,,,,,,,23,2022-02-12_12h37.55.308,lexical_decision_task_DD_L4,2021.2.3,MacIntel,59.99880002,,,,,,,,,,,0.7974,1,,,,,,,,,,,,,,,,,,,,,,,,-0.015494429,-0.356464354,0,0,0,,,,,,,QUILL,HB,z,y,./images/QUILLHB.png,,,,,,,,,,,,,,,,,,,,,z,1,0.7974,,,,,,,,0,133,133,115,1
,,,,,,,,,,,,,,,,,,23,2022-02-12_12h37.55.308,lexical_decision_task_DD_L4,2021.2.3,MacIntel,59.99880002,,,,,,,,,,,0.9696,0,,,,,,,,,,,,,,,,,,,,,,,,-0.015494429,-0.356464354,0,0,0,,,,,,,HEATER,LB,m,y,./images/HEATERLB.png,,,,,,,,,,,,,,,,,,,,,z,0,0.9696,,,,,,,,0,134,134,56,1
,,,,,,,,,,,,,,,,,,23,2022-02-12_12h37.55.308,lexical_decision_task_DD_L4,2021.2.3,MacIntel,59.99880002,,,,,,,,,,,1.3019,1,,,,,,,,,,,,,,,,,,,,,,,,-0.015494429,-0.356464354,0,0,0,,,,,,,PLANK,HB,z,y,./images/PLANKHB.png,,,,,,,,,,,,,,,,,,,,,z,1,1.3019,,,,,,,,0,135,135,85,1
,,,,,,,,,,,,,,,,,,23,2022-02-12_12h37.55.308,lexical_decision_task_DD_L4,2021.2.3,MacIntel,59.99880002,,,,,,,,,,,0.7374,1,,,,,,,,,,,,,,,,,,,,,,,,-0.015494429,-0.356464354,0,0,0,,,,,,,JUMPER,LB,m,y,./images/JUMPERLB.png,,,,,,,,,,,,,,,,,,,,,m,1,0.7374,,,,,,,,0,136,136,74,1
,,,,,,,,,,,,,,,,,,23,2022-02-12_12h37.55.308,lexical_decision_task_DD_L4,2021.2.3,MacIntel,59.99880002,,,,,,,,,,,0.9584,1,,,,,,,,,,,,,,,,,,,,,,,,-0.015494429,-0.356464354,0,0,0,,,,,,,STAIN,C,m,y,./images/STAIN.png,,,,,,,,,,,,,,,,,,,,,m,1,0.9584,,,,,,,,0,137,137,6,1
,,,,,,,,,,,,,,,,,,23,2022-02-12_12h37.55.308,lexical_decision_task_DD_L4,2021.2.3,MacIntel,59.99880002,,,,,,,,,,,0.8387,1,,,,,,,,,,,,,,,,,,,,,,,,-0.015494429,-0.356464354,0,0,0,,,,,,,BEARD,LB,z,y,./images/BEARDLB.png,,,,,,,,,,,,,,,,,,,,,z,1,0.8387,,,,,,,,0,138,138,86,1
,,,,,,,,,,,,,,,,,,23,2022-02-12_12h37.55.308,lexical_decision_task_DD_L4,2021.2.3,MacIntel,59.99880002,,,,,,,,,,,1.2385,0,,,,,,,,,,,,,,,,,,,,,,,,-0.015494429,-0.356464354,0,0,0,,,,,,,ENGINE,LB,m,y,./images/ENGINELB.png,,,,,,,,,,,,,,,,,,,,,z,0,1.2385,,,,,,,,0,139,139,38,1
,,,,,,,,,,,,,,,,,,23,2022-02-12_12h37.55.308,lexical_decision_task_DD_L4,2021.2.3,MacIntel,59.99880002,,,,,,,,,,,2.4188,1,,,,,,,,,,,,,,,,,,,,,,,,-0.015494429,-0.356464354,0,0,0,,,,,,,DRUMS,HB,z,y,./images/DRUMSHB.png,,,,,,,,,,,,,,,,,,,,,z,1,2.4188,,,,,,,,0,140,140,133,1
,,,,,,,,,,,,,,,,,,23,2022-02-12_12h37.55.308,lexical_decision_task_DD_L4,2021.2.3,MacIntel,59.99880002,,,,,,,,,,,1.1643,1,,,,,,,,,,,,,,,,,,,,,,,,-0.015494429,-0.356464354,0,0,0,,,,,,,SAILOR,HB,z,y,./images/SAILORHB.png,,,,,,,,,,,,,,,,,,,,,z,1,1.1643,,,,,,,,0,141,141,151,1
,,,,,,,,,,,,,,,,,,23,2022-02-12_12h37.55.308,lexical_decision_task_DD_L4,2021.2.3,MacIntel,59.99880002,,,,,,,,,,,0.845,1,,,,,,,,,,,,,,,,,,,,,,,,-0.015494429,-0.356464354,0,0,0,,,,,,,PASTA,LB,z,y,./images/PASTALB.png,,,,,,,,,,,,,,,,,,,,,z,1,0.845,,,,,,,,0,142,142,89,1
,,,,,,,,,,,,,,,,,,23,2022-02-12_12h37.55.308,lexical_decision_task_DD_L4,2021.2.3,MacIntel,59.99880002,,,,,,,,,,,0.9146,0,,,,,,,,,,,,,,,,,,,,,,,,-0.015494429,-0.356464354,0,0,0,,,,,,,BUBBLE,LB,m,y,./images/BUBBLELB.png,,,,,,,,,,,,,,,,,,,,,z,0,0.9146,,,,,,,,0,143,143,71,1
,,,,,,,,,,,,,,,,,,23,2022-02-12_12h37.55.308,lexical_decision_task_DD_L4,2021.2.3,MacIntel,59.99880002,,,,,,,,,,,0.7179,1,,,,,,,,,,,,,,,,,,,,,,,,-0.015494429,-0.356464354,0,0,0,,,,,,,BISHOP,HB,m,y,./images/BISHOPHB.png,,,,,,,,,,,,,,,,,,,,,m,1,0.7179,,,,,,,,0,144,144,49,1
,,,,,,,,,,,,,,,,,,23,2022-02-12_12h37.55.308,lexical_decision_task_DD_L4,2021.2.3,MacIntel,59.99880002,,,,,,,,,,,1.45,0,,,,,,,,,,,,,,,,,,,,,,,,-0.015494429,-0.356464354,0,0,0,,,,,,,CARPET,LB,z,y,./images/CARPETLB.png,,,,,,,,,,,,,,,,,,,,,m,0,1.45,,,,,,,,0,145,145,137,1
,,,,,,,,,,,,,,,,,,23,2022-02-12_12h37.55.308,lexical_decision_task_DD_L4,2021.2.3,MacIntel,59.99880002,,,,,,,,,,,0.8877,0,,,,,,,,,,,,,,,,,,,,,,,,-0.015494429,-0.356464354,0,0,0,,,,,,,BERRY,LB,z,y,./images/BERRYLB.png,,,,,,,,,,,,,,,,,,,,,m,0,0.8877,,,,,,,,0,146,146,131,1
,,,,,,,,,,,,,,,,,,23,2022-02-12_12h37.55.308,lexical_decision_task_DD_L4,2021.2.3,MacIntel,59.99880002,,,,,,,,,,,0.8372,0,,,,,,,,,,,,,,,,,,,,,,,,-0.015494429,-0.356464354,0,0,0,,,,,,,CANYON,HB,z,y,./images/CANYONHB.png,,,,,,,,,,,,,,,,,,,,,m,0,0.8372,,,,,,,,0,147,147,118,1
,,,,,,,,,,,,,,,,,,23,2022-02-12_12h37.55.308,lexical_decision_task_DD_L4,2021.2.3,MacIntel,59.99880002,,,,,,,,,,,0.9116,0,,,,,,,,,,,,,,,,,,,,,,,,-0.015494429,-0.356464354,0,0,0,,,,,,,CLOUD,LB,m,y,./images/CLOUDLB.png,,,,,,,,,,,,,,,,,,,,,z,0,0.9116,,,,,,,,0,148,148,26,1
,,,,,,,,,,,,,,,,,,23,2022-02-12_12h37.55.308,lexical_decision_task_DD_L4,2021.2.3,MacIntel,59.99880002,,,,,,,,,,,1.3652,0,,,,,,,,,,,,,,,,,,,,,,,,-0.015494429,-0.356464354,0,0,0,,,,,,,STEAK,HB,m,y,./images/STEAKHB.png,,,,,,,,,,,,,,,,,,,,,z,0,1.3652,,,,,,,,0,149,149,31,1
,,,,,,,,,,,,,,,,,,23,2022-02-12_12h37.55.308,lexical_decision_task_DD_L4,2021.2.3,MacIntel,59.99880002,,,,,,,,,,,0.9163,1,,,,,,,,,,,,,,,,,,,,,,,,-0.015494429,-0.356464354,0,0,0,,,,,,,CRADLE,LB,z,y,./images/CRADLELB.png,,,,,,,,,,,,,,,,,,,,,z,1,0.9163,,,,,,,,0,150,150,104,1
,,,,,,,,,,,,,,,,,,23,2022-02-12_12h37.55.308,lexical_decision_task_DD_L4,2021.2.3,MacIntel,59.99880002,,,,,,,,,,,0.8323,1,,,,,,,,,,,,,,,,,,,,,,,,-0.015494429,-0.356464354,0,0,0,,,,,,,BELLY,HB,z,y,./images/BELLYHB.png,,,,,,,,,,,,,,,,,,,,,z,1,0.8323,,,,,,,,0,151,151,94,1
,,,,,,,,,,,,,,,,,,23,2022-02-12_12h37.55.308,lexical_decision_task_DD_L4,2021.2.3,MacIntel,59.99880002,,,,,,,,,,,1.1052,1,,,,,,,,,,,,,,,,,,,,,,,,-0.015494429,-0.356464354,0,0,0,,,,,,,POSTER,LB,m,y,./images/POSTERLB.png,,,,,,,,,,,,,,,,,,,,,m,1,1.1052,,,,,,,,0,152,152,53,1
,,,,,,,,,,,,,,,,,,23,2022-02-12_12h37.55.308,lexical_decision_task_DD_L4,2021.2.3,MacIntel,59.99880002,,,,,,,,,,,0.9495,1,,,,,,,,,,,,,,,,,,,,,,,,-0.015494429,-0.356464354,0,0,0,,,,,,,SUNSET,HB,z,y,./images/SUNSETHB.png,,,,,,,,,,,,,,,,,,,,,z,1,0.9495,,,,,,,,0,153,153,166,1
,,,,,,,,,,,,,,,,,,23,2022-02-12_12h37.55.308,lexical_decision_task_DD_L4,2021.2.3,MacIntel,59.99880002,,,,,,,,,,,0.836,1,,,,,,,,,,,,,,,,,,,,,,,,-0.015494429,-0.356464354,0,0,0,,,,,,,BOILER,C,m,y,./images/BOILER.png,,,,,,,,,,,,,,,,,,,,,m,1,0.836,,,,,,,,0,154,154,36,1
,,,,,,,,,,,,,,,,,,23,2022-02-12_12h37.55.308,lexical_decision_task_DD_L4,2021.2.3,MacIntel,59.99880002,,,,,,,,,,,0.9803,0,,,,,,,,,,,,,,,,,,,,,,,,-0.015494429,-0.356464354,0,0,0,,,,,,,SAUCE,C,m,y,./images/SAUCE.png,,,,,,,,,,,,,,,,,,,,,z,0,0.9803,,,,,,,,0,155,155,51,1
,,,,,,,,,,,,,,,,,,23,2022-02-12_12h37.55.308,lexical_decision_task_DD_L4,2021.2.3,MacIntel,59.99880002,,,,,,,,,,,0.7175,1,,,,,,,,,,,,,,,,,,,,,,,,-0.015494429,-0.356464354,0,0,0,,,,,,,MONKEY,C,m,y,./images/MONKEY.png,,,,,,,,,,,,,,,,,,,,,m,1,0.7175,,,,,,,,0,156,156,45,1
