key_resp.keys,instr_done_touch.x,instr_done_touch.y,instr_done_touch.leftButton,instr_done_touch.midButton,instr_done_touch.rightButton,instr_done_touch.clicked_name,instruction_pages.thisRepN,instruction_pages.thisTrialN,instruction_pages.thisN,instruction_pages.thisIndex,instruction_pages.ran,pageN,phase,instruct_text,has_image,instruct_image,participant,age,date,expName,psychopyVersion,OS,frameRate,response.keys,response.corr,touch_resp.x,touch_resp.y,touch_resp.leftButton,touch_resp.midButton,touch_resp.rightButton,touch_resp.time,touch_resp.clicked_name,rt,corr,practrials.thisRepN,practrials.thisTrialN,practrials.thisN,practrials.thisIndex,practrials.ran,TrialID,Target,corrAns,end_of_practice_trials_pages.thisRepN,end_of_practice_trials_pages.thisTrialN,end_of_practice_trials_pages.thisN,end_of_practice_trials_pages.thisIndex,end_of_practice_trials_pages.ran,key_resp_2.keys,key_resp_2.corr,targ_click.x,targ_click.y,targ_click.leftButton,targ_click.midButton,targ_click.rightButton,targ_click.time,targ_click.clicked_name,break_done_touch.x,break_done_touch.y,break_done_touch.leftButton,break_done_touch.midButton,break_done_touch.rightButton,break_done_keyboard.keys,maintrials.thisRepN,maintrials.thisTrialN,maintrials.thisN,maintrials.thisIndex,maintrials.ran,string,blur,study,lex,stim_path,break_done_touch.clicked_name,mouse_2.x,mouse_2.y,mouse_2.leftButton,mouse_2.midButton,mouse_2.rightButton,mouse_2.clicked_name,slider.response,slider.rt,trials.thisRepN,trials.thisTrialN,trials.thisN,trials.thisIndex,trials.ran,test_instructions.thisRepN,test_instructions.thisTrialN,test_instructions.thisN,test_instructions.thisIndex,test_instructions.ran,key_resp_3.keys,key_resp_3.corr,test_click.x,test_click.y,test_click.leftButton,test_click.midButton,test_click.rightButton,test_click.time,test_click.clicked_name,test_phase.thisRepN,test_phase.thisTrialN,test_phase.thisN,test_phase.thisIndex,test_phase.ran
,0.11122449,-0.416326531,1,0,0,instr_done_button,0,0,0,0,1,1,instructions,"INSTRUCTIONS
At the start of each trial, look at the plus sign  (+) in the center of the screen.  This tells you that a trial is about to begin and where to look. Second, the plus sign will disappear and a string of letters will appear. Your task is to determine if the string of letters is a word or not. If the item is a word press the M key (on keyboard)  or touch the word button (phone/tablet).  If the item is not a word,  press the  Z key (on keyboard)  or touch the nonword button (on phone/tablet). 
Press the space bar or touch  continue.",0,,,26,2022-02-12_13h39.45.501,lexical_decision_task_DD_L4,2021.2.3,iPhone,58.82352941,,,,,,,,,,,,,,,,,,,,,,,,,,,,,,,,,,,,,,,,,,,,,,,,,,,,,,,,,,,,,,,,,,,,,,,,,,,,,,,,,,
,0.068367347,-0.409183673,1,0,0,instr_done_button,0,1,1,1,1,2,instructions,"If your device has a keyboard, press the 'Z' key for nonwords and the 'M' key for words.





Press the space bar or touch the button below to continue.",0,keyboard-example.gif,,26,2022-02-12_13h39.45.501,lexical_decision_task_DD_L4,2021.2.3,iPhone,58.82352941,,,,,,,,,,,,,,,,,,,,,,,,,,,,,,,,,,,,,,,,,,,,,,,,,,,,,,,,,,,,,,,,,,,,,,,,,,,,,,,,,,
,0.018367347,-0.389795918,1,0,0,instr_done_button,0,2,2,2,1,3,instructions,"If you are using a touchscreen only device, use the buttons on the screen. Do not use the mouse.





Press the space bar or touch the button below to continue.",0,touchscreen-example.gif,,26,2022-02-12_13h39.45.501,lexical_decision_task_DD_L4,2021.2.3,iPhone,58.82352941,,,,,,,,,,,,,,,,,,,,,,,,,,,,,,,,,,,,,,,,,,,,,,,,,,,,,,,,,,,,,,,,,,,,,,,,,,,,,,,,,,
,0.037755102,-0.409183673,1,0,0,instr_done_button,0,3,3,3,1,4,instructions,"It is very important that you respond as quickly and accurately as possible, as each letter string will only be on the screen for two seconds. If you do not respond within this time, the message 'Too slow!' will be displayed and the experiment will progress to the next letter string. The first 20 trials will be practice trials and you will receive feedback on your answers. 

Press the space bar or touch the button below to start the practice trials.",0,,,26,2022-02-12_13h39.45.501,lexical_decision_task_DD_L4,2021.2.3,iPhone,58.82352941,,,,,,,,,,,,,,,,,,,,,,,,,,,,,,,,,,,,,,,,,,,,,,,,,,,,,,,,,,,,,,,,,,,,,,,,,,,,,,,,,,
,,,,,,,,,,,,,,,,,,26,2022-02-12_13h39.45.501,lexical_decision_task_DD_L4,2021.2.3,iPhone,58.82352941,,0,0.384693878,-0.315306122,1,0,0,1.199,button_right,1.199,1,0,0,0,0,1,1001,UTOPIA,m,,,,,,,,,,,,,,,,,,,,,,,,,,,,,,,,,,,,,,,,,,,,,,,,,,,,,,,,,,,,,,,
,,,,,,,,,,,,,,,,,,26,2022-02-12_13h39.45.501,lexical_decision_task_DD_L4,2021.2.3,iPhone,58.82352941,,0,-0.285714286,-0.297959184,1,0,0,0.883,button_left,0.883,1,0,1,1,15,1,1001,WHAISE,z,,,,,,,,,,,,,,,,,,,,,,,,,,,,,,,,,,,,,,,,,,,,,,,,,,,,,,,,,,,,,,,
,,,,,,,,,,,,,,,,,,26,2022-02-12_13h39.45.501,lexical_decision_task_DD_L4,2021.2.3,iPhone,58.82352941,,0,-0.302040816,-0.323469388,1,0,0,0.884,button_left,0.884,1,0,2,2,11,1,1001,RASHET,z,,,,,,,,,,,,,,,,,,,,,,,,,,,,,,,,,,,,,,,,,,,,,,,,,,,,,,,,,,,,,,,
,,,,,,,,,,,,,,,,,,26,2022-02-12_13h39.45.501,lexical_decision_task_DD_L4,2021.2.3,iPhone,58.82352941,,0,-0.293877551,-0.333673469,1,0,0,0.921,button_left,0.921,1,0,3,3,8,1,1001,ASLERT,z,,,,,,,,,,,,,,,,,,,,,,,,,,,,,,,,,,,,,,,,,,,,,,,,,,,,,,,,,,,,,,,
,,,,,,,,,,,,,,,,,,26,2022-02-12_13h39.45.501,lexical_decision_task_DD_L4,2021.2.3,iPhone,58.82352941,,0,-0.297959184,-0.309183673,1,0,0,0.9,button_left,0.9,1,0,4,4,10,1,1001,INLADE,z,,,,,,,,,,,,,,,,,,,,,,,,,,,,,,,,,,,,,,,,,,,,,,,,,,,,,,,,,,,,,,,
,,,,,,,,,,,,,,,,,,26,2022-02-12_13h39.45.501,lexical_decision_task_DD_L4,2021.2.3,iPhone,58.82352941,,0,0.401020408,-0.37244898,1,0,0,0.751,button_right,0.751,1,0,5,5,2,1,1001,ALMOND,m,,,,,,,,,,,,,,,,,,,,,,,,,,,,,,,,,,,,,,,,,,,,,,,,,,,,,,,,,,,,,,,
,,,,,,,,,,,,,,,,,,26,2022-02-12_13h39.45.501,lexical_decision_task_DD_L4,2021.2.3,iPhone,58.82352941,,0,0.346938776,-0.331632653,1,0,0,0.686,button_right,0.686,1,0,6,6,1,1,1001,ADJUST,m,,,,,,,,,,,,,,,,,,,,,,,,,,,,,,,,,,,,,,,,,,,,,,,,,,,,,,,,,,,,,,,
,,,,,,,,,,,,,,,,,,26,2022-02-12_13h39.45.501,lexical_decision_task_DD_L4,2021.2.3,iPhone,58.82352941,,0,0.315306122,-0.337755102,1,0,0,0.666,button_right,0.666,1,0,7,7,6,1,1001,ZOMBIE,m,,,,,,,,,,,,,,,,,,,,,,,,,,,,,,,,,,,,,,,,,,,,,,,,,,,,,,,,,,,,,,,
,,,,,,,,,,,,,,,,,,26,2022-02-12_13h39.45.501,lexical_decision_task_DD_L4,2021.2.3,iPhone,58.82352941,,0,0.32755102,-0.335714286,1,0,0,0.653,button_right,0.653,1,0,8,8,4,1,1001,SQUEAK,m,,,,,,,,,,,,,,,,,,,,,,,,,,,,,,,,,,,,,,,,,,,,,,,,,,,,,,,,,,,,,,,
,,,,,,,,,,,,,,,,,,26,2022-02-12_13h39.45.501,lexical_decision_task_DD_L4,2021.2.3,iPhone,58.82352941,,0,-0.380612245,-0.307142857,1,0,0,0.819,button_left,0.819,1,0,9,9,9,1,1001,FARINY,z,,,,,,,,,,,,,,,,,,,,,,,,,,,,,,,,,,,,,,,,,,,,,,,,,,,,,,,,,,,,,,,
,,,,,,,,,,,,,,,,,,26,2022-02-12_13h39.45.501,lexical_decision_task_DD_L4,2021.2.3,iPhone,58.82352941,,0,-0.285714286,-0.306122449,1,0,0,0.767,button_left,0.767,1,0,10,10,12,1,1001,SPRINY,z,,,,,,,,,,,,,,,,,,,,,,,,,,,,,,,,,,,,,,,,,,,,,,,,,,,,,,,,,,,,,,,
,,,,,,,,,,,,,,,,,,26,2022-02-12_13h39.45.501,lexical_decision_task_DD_L4,2021.2.3,iPhone,58.82352941,,0,0.318367347,-0.430612245,1,0,0,0.676,button_right,0.676,1,0,11,11,7,1,1001,VOLUME,m,,,,,,,,,,,,,,,,,,,,,,,,,,,,,,,,,,,,,,,,,,,,,,,,,,,,,,,,,,,,,,,
,,,,,,,,,,,,,,,,,,26,2022-02-12_13h39.45.501,lexical_decision_task_DD_L4,2021.2.3,iPhone,58.82352941,,0,0.340816327,-0.413265306,1,0,0,0.735,button_right,0.735,1,0,12,12,5,1,1001,OBTAIN,m,,,,,,,,,,,,,,,,,,,,,,,,,,,,,,,,,,,,,,,,,,,,,,,,,,,,,,,,,,,,,,,
,,,,,,,,,,,,,,,,,,26,2022-02-12_13h39.45.501,lexical_decision_task_DD_L4,2021.2.3,iPhone,58.82352941,,0,-0.314285714,-0.298979592,1,0,0,0.784,button_left,0.784,1,0,13,13,14,1,1001,THRALE,z,,,,,,,,,,,,,,,,,,,,,,,,,,,,,,,,,,,,,,,,,,,,,,,,,,,,,,,,,,,,,,,
,,,,,,,,,,,,,,,,,,26,2022-02-12_13h39.45.501,lexical_decision_task_DD_L4,2021.2.3,iPhone,58.82352941,,0,-0.37755102,-0.291836735,1,0,0,0.852,button_left,0.852,1,0,14,14,13,1,1001,ROUPET,z,,,,,,,,,,,,,,,,,,,,,,,,,,,,,,,,,,,,,,,,,,,,,,,,,,,,,,,,,,,,,,,
,,,,,,,,,,,,,,,,,,26,2022-02-12_13h39.45.501,lexical_decision_task_DD_L4,2021.2.3,iPhone,58.82352941,,0,0.339795918,-0.316326531,1,0,0,0.819,button_right,0.819,1,0,15,15,3,1,1001,MATRIX,m,,,,,,,,,,,,,,,,,,,,,,,,,,,,,,,,,,,,,,,,,,,,,,,,,,,,,,,,,,,,,,,
,0.026530612,-0.424489796,1,0,0,instr_done_button,,,,,,1,end_of_practice,"You have completed the practice trials. During the experimental trials, you will not receive feedback. 
Before you begin, please ensure that you are in a comfortable and quiet location and will not be disturbed for about 15 minutes, as we cannot use your data if you do not complete all the trials. 
 When you are ready to start the experimental trials, please press space or touch the button below.",,,,26,2022-02-12_13h39.45.501,lexical_decision_task_DD_L4,2021.2.3,iPhone,58.82352941,,,,,,,,,,,,,,,,,,,,0,0,0,0,1,,,,,,,,,,,,,,,,,,,,,,,,,,,,,,,,,,,,,,,,,,,,,,,,,,,,,,,,,,
,,,,,,,,,,,,,,,,,,26,2022-02-12_13h39.45.501,lexical_decision_task_DD_L4,2021.2.3,iPhone,58.82352941,,,,,,,,,,0.864,1,,,,,,,,,,,,,,,0,-0.281632653,-0.323469388,1,0,0,0.864,button_left_main,-0.281632653,-0.323469388,1,0,0,,0,0,0,117,1,STEEG,C,old,z,./images/STEEG.png,,,,,,,,,,,,,,,,,,,,,,,,,,,,,,,,,
,,,,,,,,,,,,,,,,,,26,2022-02-12_13h39.45.501,lexical_decision_task_DD_L4,2021.2.3,iPhone,58.82352941,,,,,,,,,,0.802,1,,,,,,,,,,,,,,,0,-0.284693878,-0.314285714,1,0,0,0.802,button_left_main,-0.284693878,-0.314285714,1,0,0,,0,1,1,155,1,CANGY,LB,old,z,./images/CANGYLB.png,,,,,,,,,,,,,,,,,,,,,,,,,,,,,,,,,
,,,,,,,,,,,,,,,,,,26,2022-02-12_13h39.45.501,lexical_decision_task_DD_L4,2021.2.3,iPhone,58.82352941,,,,,,,,,,0.818,1,,,,,,,,,,,,,,,0,-0.258163265,-0.318367347,1,0,0,0.818,button_left_main,-0.258163265,-0.318367347,1,0,0,,0,2,2,87,1,TRING,C,old,z,./images/TRING.png,,,,,,,,,,,,,,,,,,,,,,,,,,,,,,,,,
,,,,,,,,,,,,,,,,,,26,2022-02-12_13h39.45.501,lexical_decision_task_DD_L4,2021.2.3,iPhone,58.82352941,,,,,,,,,,0.955,1,,,,,,,,,,,,,,,0,0.378571429,-0.32755102,1,0,0,0.955,button_right_main,0.378571429,-0.32755102,1,0,0,,0,3,3,70,1,BANANA,HB,old,m,./images/BANANAHB.png,,,,,,,,,,,,,,,,,,,,,,,,,,,,,,,,,
,,,,,,,,,,,,,,,,,,26,2022-02-12_13h39.45.501,lexical_decision_task_DD_L4,2021.2.3,iPhone,58.82352941,,,,,,,,,,1.514,1,,,,,,,,,,,,,,,0,-0.316326531,-0.318367347,1,0,0,1.514,button_left_main,-0.316326531,-0.318367347,1,0,0,,0,4,4,124,1,TUNCH,HB,old,z,./images/TUNCHHB.png,,,,,,,,,,,,,,,,,,,,,,,,,,,,,,,,,
,,,,,,,,,,,,,,,,,,26,2022-02-12_13h39.45.501,lexical_decision_task_DD_L4,2021.2.3,iPhone,58.82352941,,,,,,,,,,1.07,1,,,,,,,,,,,,,,,0,0.375510204,-0.307142857,1,0,0,1.07,button_right_main,0.375510204,-0.307142857,1,0,0,,0,5,5,4,1,BOXER,HB,old,m,./images/BOXERHB.png,,,,,,,,,,,,,,,,,,,,,,,,,,,,,,,,,
,,,,,,,,,,,,,,,,,,26,2022-02-12_13h39.45.501,lexical_decision_task_DD_L4,2021.2.3,iPhone,58.82352941,,,,,,,,,,1.403,1,,,,,,,,,,,,,,,0,-0.307142857,-0.324489796,1,0,0,1.403,button_left_main,-0.307142857,-0.324489796,1,0,0,,0,6,6,109,1,BURGE,HB,old,z,./images/BURGEHB.png,,,,,,,,,,,,,,,,,,,,,,,,,,,,,,,,,
,,,,,,,,,,,,,,,,,,26,2022-02-12_13h39.45.501,lexical_decision_task_DD_L4,2021.2.3,iPhone,58.82352941,,,,,,,,,,0.867,1,,,,,,,,,,,,,,,0,-0.318367347,-0.281632653,1,0,0,0.867,button_left_main,-0.318367347,-0.281632653,1,0,0,,0,7,7,126,1,GUELS,C,old,z,./images/GUELS.png,,,,,,,,,,,,,,,,,,,,,,,,,,,,,,,,,
,,,,,,,,,,,,,,,,,,26,2022-02-12_13h39.45.501,lexical_decision_task_DD_L4,2021.2.3,iPhone,58.82352941,,,,,,,,,,0.802,1,,,,,,,,,,,,,,,0,-0.296938776,-0.326530612,1,0,0,0.802,button_left_main,-0.296938776,-0.326530612,1,0,0,,0,8,8,156,1,HIXES,C,old,z,./images/HIXES.png,,,,,,,,,,,,,,,,,,,,,,,,,,,,,,,,,
,,,,,,,,,,,,,,,,,,26,2022-02-12_13h39.45.501,lexical_decision_task_DD_L4,2021.2.3,iPhone,58.82352941,,,,,,,,,,0.819,1,,,,,,,,,,,,,,,0,-0.345918367,-0.332653061,1,0,0,0.819,button_left_main,-0.345918367,-0.332653061,1,0,0,,0,9,9,95,1,HANTY,LB,old,z,./images/HANTYLB.png,,,,,,,,,,,,,,,,,,,,,,,,,,,,,,,,,
,,,,,,,,,,,,,,,,,,26,2022-02-12_13h39.45.501,lexical_decision_task_DD_L4,2021.2.3,iPhone,58.82352941,,,,,,,,,,0.987,0,,,,,,,,,,,,,,,0,0.375510204,-0.319387755,1,0,0,0.987,button_right_main,0.375510204,-0.319387755,1,0,0,,0,10,10,104,1,GITTY,LB,old,z,./images/GITTYLB.png,,,,,,,,,,,,,,,,,,,,,,,,,,,,,,,,,
,,,,,,,,,,,,,,,,,,26,2022-02-12_13h39.45.501,lexical_decision_task_DD_L4,2021.2.3,iPhone,58.82352941,,,,,,,,,,0.836,1,,,,,,,,,,,,,,,0,-0.351020408,-0.340816327,1,0,0,0.836,button_left_main,-0.351020408,-0.340816327,1,0,0,,0,11,11,134,1,TROSS,LB,old,z,./images/TROSSLB.png,,,,,,,,,,,,,,,,,,,,,,,,,,,,,,,,,
,,,,,,,,,,,,,,,,,,26,2022-02-12_13h39.45.501,lexical_decision_task_DD_L4,2021.2.3,iPhone,58.82352941,,,,,,,,,,0.919,1,,,,,,,,,,,,,,,0,-0.234693878,-0.362244898,1,0,0,0.919,button_left_main,-0.234693878,-0.362244898,1,0,0,,0,12,12,84,1,HAXES,C,old,z,./images/HAXES.png,,,,,,,,,,,,,,,,,,,,,,,,,,,,,,,,,
,,,,,,,,,,,,,,,,,,26,2022-02-12_13h39.45.501,lexical_decision_task_DD_L4,2021.2.3,iPhone,58.82352941,,,,,,,,,,0.785,1,,,,,,,,,,,,,,,0,0.32755102,-0.303061224,1,0,0,0.785,button_right_main,0.32755102,-0.303061224,1,0,0,,0,13,13,68,1,VALLEY,LB,old,m,./images/VALLEYLB.png,,,,,,,,,,,,,,,,,,,,,,,,,,,,,,,,,
,,,,,,,,,,,,,,,,,,26,2022-02-12_13h39.45.501,lexical_decision_task_DD_L4,2021.2.3,iPhone,58.82352941,,,,,,,,,,0.853,1,,,,,,,,,,,,,,,0,-0.296938776,-0.336734694,1,0,0,0.853,button_left_main,-0.296938776,-0.336734694,1,0,0,,0,14,14,88,1,GLUSH,HB,old,z,./images/GLUSHHB.png,,,,,,,,,,,,,,,,,,,,,,,,,,,,,,,,,
,,,,,,,,,,,,,,,,,,26,2022-02-12_13h39.45.501,lexical_decision_task_DD_L4,2021.2.3,iPhone,58.82352941,,,,,,,,,,0.786,1,,,,,,,,,,,,,,,0,-0.27755102,-0.31122449,1,0,0,0.786,button_left_main,-0.27755102,-0.31122449,1,0,0,,0,15,15,93,1,SMONE,C,old,z,./images/SMONE.png,,,,,,,,,,,,,,,,,,,,,,,,,,,,,,,,,
,,,,,,,,,,,,,,,,,,26,2022-02-12_13h39.45.501,lexical_decision_task_DD_L4,2021.2.3,iPhone,58.82352941,,,,,,,,,,0.802,1,,,,,,,,,,,,,,,0,-0.266326531,-0.32755102,1,0,0,0.802,button_left_main,-0.266326531,-0.32755102,1,0,0,,0,16,16,125,1,MOOKY,LB,old,z,./images/MOOKYLB.png,,,,,,,,,,,,,,,,,,,,,,,,,,,,,,,,,
,,,,,,,,,,,,,,,,,,26,2022-02-12_13h39.45.501,lexical_decision_task_DD_L4,2021.2.3,iPhone,58.82352941,,,,,,,,,,0.752,1,,,,,,,,,,,,,,,0,0.316326531,-0.296938776,1,0,0,0.752,button_right_main,0.316326531,-0.296938776,1,0,0,,0,17,17,16,1,GRAPE,HB,old,m,./images/GRAPEHB.png,,,,,,,,,,,,,,,,,,,,,,,,,,,,,,,,,
,,,,,,,,,,,,,,,,,,26,2022-02-12_13h39.45.501,lexical_decision_task_DD_L4,2021.2.3,iPhone,58.82352941,,,,,,,,,,0.735,1,,,,,,,,,,,,,,,0,0.305102041,-0.363265306,1,0,0,0.735,button_right_main,0.305102041,-0.363265306,1,0,0,,0,18,18,33,1,SAUNA,C,old,m,./images/SAUNA.png,,,,,,,,,,,,,,,,,,,,,,,,,,,,,,,,,
,,,,,,,,,,,,,,,,,,26,2022-02-12_13h39.45.501,lexical_decision_task_DD_L4,2021.2.3,iPhone,58.82352941,,,,,,,,,,0.686,1,,,,,,,,,,,,,,,0,0.324489796,-0.353061224,1,0,0,0.686,button_right_main,0.324489796,-0.353061224,1,0,0,,0,19,19,43,1,STOOL,HB,old,m,./images/STOOLHB.png,,,,,,,,,,,,,,,,,,,,,,,,,,,,,,,,,
,,,,,,,,,,,,,,,,,,26,2022-02-12_13h39.45.501,lexical_decision_task_DD_L4,2021.2.3,iPhone,58.82352941,,,,,,,,,,0.669,1,,,,,,,,,,,,,,,0,0.328571429,-0.318367347,1,0,0,0.669,button_right_main,0.328571429,-0.318367347,1,0,0,,0,20,20,60,1,CURRY,C,old,m,./images/CURRY.png,,,,,,,,,,,,,,,,,,,,,,,,,,,,,,,,,
,,,,,,,,,,,,,,,,,,26,2022-02-12_13h39.45.501,lexical_decision_task_DD_L4,2021.2.3,iPhone,58.82352941,,,,,,,,,,0.67,1,,,,,,,,,,,,,,,0,0.353061224,-0.316326531,1,0,0,0.67,button_right_main,0.353061224,-0.316326531,1,0,0,,0,21,21,54,1,CHERRY,C,old,m,./images/CHERRY.png,,,,,,,,,,,,,,,,,,,,,,,,,,,,,,,,,
,,,,,,,,,,,,,,,,,,26,2022-02-12_13h39.45.501,lexical_decision_task_DD_L4,2021.2.3,iPhone,58.82352941,,,,,,,,,,1.821,1,,,,,,,,,,,,,,,0,-0.341836735,-0.278571429,1,0,0,1.821,button_left_main,-0.341836735,-0.278571429,1,0,0,,0,22,22,152,1,FRAIN,LB,old,z,./images/FRAINLB.png,,,,,,,,,,,,,,,,,,,,,,,,,,,,,,,,,
,,,,,,,,,,,,,,,,,,26,2022-02-12_13h39.45.501,lexical_decision_task_DD_L4,2021.2.3,iPhone,58.82352941,,,,,,,,,,0.668,1,,,,,,,,,,,,,,,0,0.391836735,-0.296938776,1,0,0,0.668,button_right_main,0.391836735,-0.296938776,1,0,0,,0,23,23,31,1,STEAK,HB,old,m,./images/STEAKHB.png,,,,,,,,,,,,,,,,,,,,,,,,,,,,,,,,,
,,,,,,,,,,,,,,,,,,26,2022-02-12_13h39.45.501,lexical_decision_task_DD_L4,2021.2.3,iPhone,58.82352941,,,,,,,,,,0.635,1,,,,,,,,,,,,,,,0,0.41122449,-0.323469388,1,0,0,0.635,button_right_main,0.41122449,-0.323469388,1,0,0,,0,24,24,65,1,SPINE,LB,old,m,./images/SPINELB.png,,,,,,,,,,,,,,,,,,,,,,,,,,,,,,,,,
,,,,,,,,,,,,,,,,,,26,2022-02-12_13h39.45.501,lexical_decision_task_DD_L4,2021.2.3,iPhone,58.82352941,,,,,,,,,,0.754,1,,,,,,,,,,,,,,,0,-0.340816327,-0.333673469,1,0,0,0.754,button_left_main,-0.340816327,-0.333673469,1,0,0,,0,25,25,161,1,BLAPS,LB,old,z,./images/BLAPSLB.png,,,,,,,,,,,,,,,,,,,,,,,,,,,,,,,,,
,,,,,,,,,,,,,,,,,,26,2022-02-12_13h39.45.501,lexical_decision_task_DD_L4,2021.2.3,iPhone,58.82352941,,,,,,,,,,0.637,1,,,,,,,,,,,,,,,0,0.346938776,-0.336734694,1,0,0,0.637,button_right_main,0.346938776,-0.336734694,1,0,0,,0,26,26,32,1,HOCKEY,LB,old,m,./images/HOCKEYLB.png,,,,,,,,,,,,,,,,,,,,,,,,,,,,,,,,,
,,,,,,,,,,,,,,,,,,26,2022-02-12_13h39.45.501,lexical_decision_task_DD_L4,2021.2.3,iPhone,58.82352941,,,,,,,,,,0.619,1,,,,,,,,,,,,,,,0,0.346938776,-0.314285714,1,0,0,0.619,button_right_main,0.346938776,-0.314285714,1,0,0,,0,27,27,71,1,BUBBLE,LB,old,m,./images/BUBBLELB.png,,,,,,,,,,,,,,,,,,,,,,,,,,,,,,,,,
,,,,,,,,,,,,,,,,,,26,2022-02-12_13h39.45.501,lexical_decision_task_DD_L4,2021.2.3,iPhone,58.82352941,,,,,,,,,,0.952,1,,,,,,,,,,,,,,,0,0.340816327,-0.267346939,1,0,0,0.952,button_right_main,0.340816327,-0.267346939,1,0,0,,0,28,28,23,1,CLOTH,LB,old,m,./images/CLOTHLB.png,,,,,,,,,,,,,,,,,,,,,,,,,,,,,,,,,
,,,,,,,,,,,,,,,,,,26,2022-02-12_13h39.45.501,lexical_decision_task_DD_L4,2021.2.3,iPhone,58.82352941,,,,,,,,,,0.586,1,,,,,,,,,,,,,,,0,0.384693878,-0.289795918,1,0,0,0.586,button_right_main,0.384693878,-0.289795918,1,0,0,,0,29,29,27,1,BUTTER,C,old,m,./images/BUTTER.png,,,,,,,,,,,,,,,,,,,,,,,,,,,,,,,,,
,,,,,,,,,,,,,,,,,,26,2022-02-12_13h39.45.501,lexical_decision_task_DD_L4,2021.2.3,iPhone,58.82352941,,,,,,,,,,0.936,1,,,,,,,,,,,,,,,0,0.439795918,-0.313265306,1,0,0,0.936,button_right_main,0.439795918,-0.313265306,1,0,0,,0,30,30,28,1,CASINO,HB,old,m,./images/CASINOHB.png,,,,,,,,,,,,,,,,,,,,,,,,,,,,,,,,,
,,,,,,,,,,,,,,,,,,26,2022-02-12_13h39.45.501,lexical_decision_task_DD_L4,2021.2.3,iPhone,58.82352941,,,,,,,,,,0.721,1,,,,,,,,,,,,,,,0,-0.342857143,-0.330612245,1,0,0,0.721,button_left_main,-0.342857143,-0.330612245,1,0,0,,0,31,31,90,1,NEAST,C,old,z,./images/NEAST.png,,,,,,,,,,,,,,,,,,,,,,,,,,,,,,,,,
,,,,,,,,,,,,,,,,,,26,2022-02-12_13h39.45.501,lexical_decision_task_DD_L4,2021.2.3,iPhone,58.82352941,,,,,,,,,,0.835,1,,,,,,,,,,,,,,,0,-0.32755102,-0.305102041,1,0,0,0.835,button_left_main,-0.32755102,-0.305102041,1,0,0,,0,32,32,112,1,MYING,HB,old,z,./images/MYINGHB.png,,,,,,,,,,,,,,,,,,,,,,,,,,,,,,,,,
,,,,,,,,,,,,,,,,,,26,2022-02-12_13h39.45.501,lexical_decision_task_DD_L4,2021.2.3,iPhone,58.82352941,,,,,,,,,,0.685,1,,,,,,,,,,,,,,,0,-0.321428571,-0.298979592,1,0,0,0.685,button_left_main,-0.321428571,-0.298979592,1,0,0,,0,33,33,108,1,GRUET,C,old,z,./images/GRUET.png,,,,,,,,,,,,,,,,,,,,,,,,,,,,,,,,,
,,,,,,,,,,,,,,,,,,26,2022-02-12_13h39.45.501,lexical_decision_task_DD_L4,2021.2.3,iPhone,58.82352941,,,,,,,,,,0.62,1,,,,,,,,,,,,,,,0,-0.296938776,-0.316326531,1,0,0,0.62,button_left_main,-0.296938776,-0.316326531,1,0,0,,0,34,34,147,1,ZOLES,C,old,z,./images/ZOLES.png,,,,,,,,,,,,,,,,,,,,,,,,,,,,,,,,,
,,,,,,,,,,,,,,,,,,26,2022-02-12_13h39.45.501,lexical_decision_task_DD_L4,2021.2.3,iPhone,58.82352941,,,,,,,,,,0.704,1,,,,,,,,,,,,,,,0,0.439795918,-0.41122449,1,0,0,0.704,button_right_main,0.41122449,-0.281632653,1,0,0,,0,35,35,2,1,STOVE,LB,old,m,./images/STOVELB.png,,,,,,,,,,,,,,,,,,,,,,,,,,,,,,,,,
,,,,,,,,,,,,,,,,,,26,2022-02-12_13h39.45.501,lexical_decision_task_DD_L4,2021.2.3,iPhone,58.82352941,,,,,,,,,,0.653,1,,,,,,,,,,,,,,,0,0.354081633,-0.292857143,1,0,0,0.653,button_right_main,0.354081633,-0.292857143,1,0,0,,0,36,36,9,1,DIVER,C,old,m,./images/DIVER.png,,,,,,,,,,,,,,,,,,,,,,,,,,,,,,,,,
,,,,,,,,,,,,,,,,,,26,2022-02-12_13h39.45.501,lexical_decision_task_DD_L4,2021.2.3,iPhone,58.82352941,,,,,,,,,,0.654,1,,,,,,,,,,,,,,,0,0.351020408,-0.295918367,1,0,0,0.654,button_right_main,0.351020408,-0.295918367,1,0,0,,0,37,37,78,1,BROOM,C,old,m,./images/BROOM.png,,,,,,,,,,,,,,,,,,,,,,,,,,,,,,,,,
,,,,,,,,,,,,,,,,,,26,2022-02-12_13h39.45.501,lexical_decision_task_DD_L4,2021.2.3,iPhone,58.82352941,,,,,,,,,,0.602,1,,,,,,,,,,,,,,,0,0.376530612,-0.309183673,1,0,0,0.602,button_right_main,0.376530612,-0.309183673,1,0,0,,0,38,38,63,1,BAKER,C,old,m,./images/BAKER.png,,,,,,,,,,,,,,,,,,,,,,,,,,,,,,,,,
,,,,,,,,,,,,,,,,,,26,2022-02-12_13h39.45.501,lexical_decision_task_DD_L4,2021.2.3,iPhone,58.82352941,,,,,,,,,,0.619,1,,,,,,,,,,,,,,,0,0.392857143,-0.341836735,1,0,0,0.619,button_right_main,0.392857143,-0.341836735,1,0,0,,0,39,39,3,1,CRATER,C,old,m,./images/CRATER.png,,,,,,,,,,,,,,,,,,,,,,,,,,,,,,,,,
,,,,,,,,,,,,,,,,,,26,2022-02-12_13h39.45.501,lexical_decision_task_DD_L4,2021.2.3,iPhone,58.82352941,,,,,,,,,,0.836,1,,,,,,,,,,,,,,,0,-0.271428571,-0.279591837,1,0,0,0.836,button_left_main,-0.271428571,-0.279591837,1,0,0,,0,40,40,149,1,VEASE,LB,old,z,./images/VEASELB.png,,,,,,,,,,,,,,,,,,,,,,,,,,,,,,,,,
,,,,,,,,,,,,,,,,,,26,2022-02-12_13h39.45.501,lexical_decision_task_DD_L4,2021.2.3,iPhone,58.82352941,,,,,,,,,,0.703,1,,,,,,,,,,,,,,,0,-0.31122449,-0.293877551,1,0,0,0.703,button_left_main,0.091836735,-0.42755102,1,0,0,,0,41,41,120,1,RINED,C,old,z,./images/RINED.png,break_done_button,,,,,,,,,,,,,,,,,,,,,,,,,,,,,,,,
,,,,,,,,,,,,,,,,,,26,2022-02-12_13h39.45.501,lexical_decision_task_DD_L4,2021.2.3,iPhone,58.82352941,,,,,,,,,,2.069,1,,,,,,,,,,,,,,,0,-0.358163265,-0.295918367,1,0,0,2.069,button_left_main,-0.358163265,-0.295918367,1,0,0,,0,42,42,114,1,RIKES,C,old,z,./images/RIKES.png,,,,,,,,,,,,,,,,,,,,,,,,,,,,,,,,,
,,,,,,,,,,,,,,,,,,26,2022-02-12_13h39.45.501,lexical_decision_task_DD_L4,2021.2.3,iPhone,58.82352941,,,,,,,,,,1.068,1,,,,,,,,,,,,,,,0,-0.328571429,-0.340816327,1,0,0,1.068,button_left_main,-0.328571429,-0.340816327,1,0,0,,0,43,43,146,1,MOOST,LB,old,z,./images/MOOSTLB.png,,,,,,,,,,,,,,,,,,,,,,,,,,,,,,,,,
,,,,,,,,,,,,,,,,,,26,2022-02-12_13h39.45.501,lexical_decision_task_DD_L4,2021.2.3,iPhone,58.82352941,,,,,,,,,,0.767,1,,,,,,,,,,,,,,,0,-0.416326531,-0.32755102,1,0,0,0.767,button_left_main,-0.416326531,-0.32755102,1,0,0,,0,44,44,122,1,BLOOT,LB,old,z,./images/BLOOTLB.png,,,,,,,,,,,,,,,,,,,,,,,,,,,,,,,,,
,,,,,,,,,,,,,,,,,,26,2022-02-12_13h39.45.501,lexical_decision_task_DD_L4,2021.2.3,iPhone,58.82352941,,,,,,,,,,1.634,1,,,,,,,,,,,,,,,0,-0.369387755,-0.339795918,1,0,0,1.634,button_left_main,-0.369387755,-0.339795918,1,0,0,,0,45,45,145,1,LAMEL,HB,old,z,./images/LAMELHB.png,,,,,,,,,,,,,,,,,,,,,,,,,,,,,,,,,
,,,,,,,,,,,,,,,,,,26,2022-02-12_13h39.45.501,lexical_decision_task_DD_L4,2021.2.3,iPhone,58.82352941,,,,,,,,,,1.518,1,,,,,,,,,,,,,,,0,-0.35,-0.35,1,0,0,1.518,button_left_main,-0.35,-0.35,1,0,0,,0,46,46,154,1,THINT,HB,old,z,./images/THINTHB.png,,,,,,,,,,,,,,,,,,,,,,,,,,,,,,,,,
,,,,,,,,,,,,,,,,,,26,2022-02-12_13h39.45.501,lexical_decision_task_DD_L4,2021.2.3,iPhone,58.82352941,,,,,,,,,,0.602,1,,,,,,,,,,,,,,,0,-0.363265306,-0.326530612,1,0,0,0.602,button_left_main,-0.363265306,-0.326530612,1,0,0,,0,47,47,103,1,FLORT,HB,old,z,./images/FLORTHB.png,,,,,,,,,,,,,,,,,,,,,,,,,,,,,,,,,
,,,,,,,,,,,,,,,,,,26,2022-02-12_13h39.45.501,lexical_decision_task_DD_L4,2021.2.3,iPhone,58.82352941,,,,,,,,,,0.787,1,,,,,,,,,,,,,,,0,0.380612245,-0.324489796,1,0,0,0.787,button_right_main,0.380612245,-0.324489796,1,0,0,,0,48,48,52,1,DESERT,HB,old,m,./images/DESERTHB.png,,,,,,,,,,,,,,,,,,,,,,,,,,,,,,,,,
,,,,,,,,,,,,,,,,,,26,2022-02-12_13h39.45.501,lexical_decision_task_DD_L4,2021.2.3,iPhone,58.82352941,,,,,,,,,,0.786,1,,,,,,,,,,,,,,,0,-0.307142857,-0.323469388,1,0,0,0.786,button_left_main,-0.307142857,-0.323469388,1,0,0,,0,49,49,94,1,BLANS,HB,old,z,./images/BLANSHB.png,,,,,,,,,,,,,,,,,,,,,,,,,,,,,,,,,
,,,,,,,,,,,,,,,,,,26,2022-02-12_13h39.45.501,lexical_decision_task_DD_L4,2021.2.3,iPhone,58.82352941,,,,,,,,,,0.652,1,,,,,,,,,,,,,,,0,-0.31122449,-0.32244898,1,0,0,0.652,button_left_main,-0.31122449,-0.32244898,1,0,0,,0,50,50,113,1,LINEW,LB,old,z,./images/LINEWLB.png,,,,,,,,,,,,,,,,,,,,,,,,,,,,,,,,,
,,,,,,,,,,,,,,,,,,26,2022-02-12_13h39.45.501,lexical_decision_task_DD_L4,2021.2.3,iPhone,58.82352941,,,,,,,,,,0.752,1,,,,,,,,,,,,,,,0,-0.303061224,-0.328571429,1,0,0,0.752,button_left_main,-0.303061224,-0.328571429,1,0,0,,0,51,51,138,1,PLICE,C,old,z,./images/PLICE.png,,,,,,,,,,,,,,,,,,,,,,,,,,,,,,,,,
,,,,,,,,,,,,,,,,,,26,2022-02-12_13h39.45.501,lexical_decision_task_DD_L4,2021.2.3,iPhone,58.82352941,,,,,,,,,,0.636,1,,,,,,,,,,,,,,,0,0.336734694,-0.279591837,1,0,0,0.636,button_right_main,0.336734694,-0.279591837,1,0,0,,0,52,52,5,1,BAMBOO,LB,old,m,./images/BAMBOOLB.png,,,,,,,,,,,,,,,,,,,,,,,,,,,,,,,,,
,,,,,,,,,,,,,,,,,,26,2022-02-12_13h39.45.501,lexical_decision_task_DD_L4,2021.2.3,iPhone,58.82352941,,,,,,,,,,0.817,1,,,,,,,,,,,,,,,0,0.339795918,-0.371428571,1,0,0,0.817,button_right_main,0.339795918,-0.371428571,1,0,0,,0,53,53,13,1,BUNNY,HB,old,m,./images/BUNNYHB.png,,,,,,,,,,,,,,,,,,,,,,,,,,,,,,,,,
,,,,,,,,,,,,,,,,,,26,2022-02-12_13h39.45.501,lexical_decision_task_DD_L4,2021.2.3,iPhone,58.82352941,,,,,,,,,,0.95,1,,,,,,,,,,,,,,,0,-0.196938776,-0.291836735,1,0,0,0.95,button_left_main,-0.297959184,-0.309183673,1,0,0,,0,54,54,99,1,BACKY,C,old,z,./images/BACKY.png,,,,,,,,,,,,,,,,,,,,,,,,,,,,,,,,,
,,,,,,,,,,,,,,,,,,26,2022-02-12_13h39.45.501,lexical_decision_task_DD_L4,2021.2.3,iPhone,58.82352941,,,,,,,,,,0.636,1,,,,,,,,,,,,,,,0,-0.344897959,-0.32244898,1,0,0,0.636,button_left_main,-0.344897959,-0.32244898,1,0,0,,0,55,55,133,1,POWDY,HB,old,z,./images/POWDYHB.png,,,,,,,,,,,,,,,,,,,,,,,,,,,,,,,,,
,,,,,,,,,,,,,,,,,,26,2022-02-12_13h39.45.501,lexical_decision_task_DD_L4,2021.2.3,iPhone,58.82352941,,,,,,,,,,0.735,1,,,,,,,,,,,,,,,0,0.362244898,-0.320408163,1,0,0,0.735,button_right_main,0.362244898,-0.320408163,1,0,0,,0,56,56,48,1,SHIELD,C,old,m,./images/SHIELD.png,,,,,,,,,,,,,,,,,,,,,,,,,,,,,,,,,
,,,,,,,,,,,,,,,,,,26,2022-02-12_13h39.45.501,lexical_decision_task_DD_L4,2021.2.3,iPhone,58.82352941,,,,,,,,,,0.704,1,,,,,,,,,,,,,,,0,0.326530612,-0.315306122,1,0,0,0.704,button_right_main,0.326530612,-0.315306122,1,0,0,,0,57,57,20,1,GRANNY,LB,old,m,./images/GRANNYLB.png,,,,,,,,,,,,,,,,,,,,,,,,,,,,,,,,,
,,,,,,,,,,,,,,,,,,26,2022-02-12_13h39.45.501,lexical_decision_task_DD_L4,2021.2.3,iPhone,58.82352941,,,,,,,,,,0.753,1,,,,,,,,,,,,,,,0,0.381632653,-0.354081633,1,0,0,0.753,button_right_main,0.381632653,-0.354081633,1,0,0,,0,58,58,35,1,LLAMA,LB,old,m,./images/LLAMALB.png,,,,,,,,,,,,,,,,,,,,,,,,,,,,,,,,,
,,,,,,,,,,,,,,,,,,26,2022-02-12_13h39.45.501,lexical_decision_task_DD_L4,2021.2.3,iPhone,58.82352941,,,,,,,,,,0.718,1,,,,,,,,,,,,,,,0,0.384693878,-0.32755102,1,0,0,0.718,button_right_main,0.384693878,-0.32755102,1,0,0,,0,59,59,29,1,PISTOL,LB,old,m,./images/PISTOLLB.png,,,,,,,,,,,,,,,,,,,,,,,,,,,,,,,,,
,,,,,,,,,,,,,,,,,,26,2022-02-12_13h39.45.501,lexical_decision_task_DD_L4,2021.2.3,iPhone,58.82352941,,,,,,,,,,0.601,1,,,,,,,,,,,,,,,0,0.403061224,-0.332653061,1,0,0,0.601,button_right_main,0.403061224,-0.332653061,1,0,0,,0,60,60,74,1,JUMPER,LB,old,m,./images/JUMPERLB.png,,,,,,,,,,,,,,,,,,,,,,,,,,,,,,,,,
,,,,,,,,,,,,,,,,,,26,2022-02-12_13h39.45.501,lexical_decision_task_DD_L4,2021.2.3,iPhone,58.82352941,,,,,,,,,,0.652,1,,,,,,,,,,,,,,,0,-0.329591837,-0.305102041,1,0,0,0.652,button_left_main,-0.329591837,-0.305102041,1,0,0,,0,61,61,107,1,FASKS,LB,old,z,./images/FASKSLB.png,,,,,,,,,,,,,,,,,,,,,,,,,,,,,,,,,
,,,,,,,,,,,,,,,,,,26,2022-02-12_13h39.45.501,lexical_decision_task_DD_L4,2021.2.3,iPhone,58.82352941,,,,,,,,,,0.619,1,,,,,,,,,,,,,,,0,-0.385714286,-0.309183673,1,0,0,0.619,button_left_main,-0.385714286,-0.309183673,1,0,0,,0,62,62,167,1,ZONET,LB,old,z,./images/ZONETLB.png,,,,,,,,,,,,,,,,,,,,,,,,,,,,,,,,,
,,,,,,,,,,,,,,,,,,26,2022-02-12_13h39.45.501,lexical_decision_task_DD_L4,2021.2.3,iPhone,58.82352941,,,,,,,,,,0.701,1,,,,,,,,,,,,,,,0,-0.262244898,-0.291836735,1,0,0,0.701,button_left_main,-0.262244898,-0.291836735,1,0,0,,0,63,63,110,1,CRUNK,LB,old,z,./images/CRUNKLB.png,,,,,,,,,,,,,,,,,,,,,,,,,,,,,,,,,
,,,,,,,,,,,,,,,,,,26,2022-02-12_13h39.45.501,lexical_decision_task_DD_L4,2021.2.3,iPhone,58.82352941,,,,,,,,,,0.805,1,,,,,,,,,,,,,,,0,0.375510204,-0.370408163,1,0,0,0.805,button_right_main,0.375510204,-0.370408163,1,0,0,,0,64,64,22,1,CLOWN,HB,old,m,./images/CLOWNHB.png,,,,,,,,,,,,,,,,,,,,,,,,,,,,,,,,,
,,,,,,,,,,,,,,,,,,26,2022-02-12_13h39.45.501,lexical_decision_task_DD_L4,2021.2.3,iPhone,58.82352941,,,,,,,,,,0.884,1,,,,,,,,,,,,,,,0,-0.284693878,-0.303061224,1,0,0,0.884,button_left_main,-0.284693878,-0.303061224,1,0,0,,0,65,65,130,1,CRILL,HB,old,z,./images/CRILLHB.png,,,,,,,,,,,,,,,,,,,,,,,,,,,,,,,,,
,,,,,,,,,,,,,,,,,,26,2022-02-12_13h39.45.501,lexical_decision_task_DD_L4,2021.2.3,iPhone,58.82352941,,,,,,,,,,0.619,1,,,,,,,,,,,,,,,0,0.396938776,-0.32244898,1,0,0,0.619,button_right_main,0.396938776,-0.32244898,1,0,0,,0,66,66,66,1,STATUE,C,old,m,./images/STATUE.png,,,,,,,,,,,,,,,,,,,,,,,,,,,,,,,,,
,,,,,,,,,,,,,,,,,,26,2022-02-12_13h39.45.501,lexical_decision_task_DD_L4,2021.2.3,iPhone,58.82352941,,,,,,,,,,1.17,1,,,,,,,,,,,,,,,0,0.443877551,-0.358163265,1,0,0,1.17,button_right_main,0.443877551,-0.358163265,1,0,0,,0,67,67,17,1,PARADE,LB,old,m,./images/PARADELB.png,,,,,,,,,,,,,,,,,,,,,,,,,,,,,,,,,
,,,,,,,,,,,,,,,,,,26,2022-02-12_13h39.45.501,lexical_decision_task_DD_L4,2021.2.3,iPhone,58.82352941,,,,,,,,,,0.686,1,,,,,,,,,,,,,,,0,0.320408163,-0.319387755,1,0,0,0.686,button_right_main,0.320408163,-0.319387755,1,0,0,,0,68,68,7,1,WAGON,HB,old,m,./images/WAGONHB.png,,,,,,,,,,,,,,,,,,,,,,,,,,,,,,,,,
,,,,,,,,,,,,,,,,,,26,2022-02-12_13h39.45.501,lexical_decision_task_DD_L4,2021.2.3,iPhone,58.82352941,,,,,,,,,,0.702,1,,,,,,,,,,,,,,,0,-0.333673469,-0.314285714,1,0,0,0.702,button_left_main,-0.333673469,-0.314285714,1,0,0,,0,69,69,143,1,MONGS,LB,old,z,./images/MONGSLB.png,,,,,,,,,,,,,,,,,,,,,,,,,,,,,,,,,
,,,,,,,,,,,,,,,,,,26,2022-02-12_13h39.45.501,lexical_decision_task_DD_L4,2021.2.3,iPhone,58.82352941,,,,,,,,,,0.737,1,,,,,,,,,,,,,,,0,0.401020408,-0.313265306,1,0,0,0.737,button_right_main,0.401020408,-0.313265306,1,0,0,,0,70,70,1,1,TOWEL,HB,old,m,./images/TOWELHB.png,,,,,,,,,,,,,,,,,,,,,,,,,,,,,,,,,
,,,,,,,,,,,,,,,,,,26,2022-02-12_13h39.45.501,lexical_decision_task_DD_L4,2021.2.3,iPhone,58.82352941,,,,,,,,,,0.869,1,,,,,,,,,,,,,,,0,0.395918367,-0.314285714,1,0,0,0.869,button_right_main,0.395918367,-0.314285714,1,0,0,,0,71,71,82,1,PEBBLE,HB,old,m,./images/PEBBLEHB.png,,,,,,,,,,,,,,,,,,,,,,,,,,,,,,,,,
,,,,,,,,,,,,,,,,,,26,2022-02-12_13h39.45.501,lexical_decision_task_DD_L4,2021.2.3,iPhone,58.82352941,,,,,,,,,,0.904,1,,,,,,,,,,,,,,,0,0.378571429,-0.331632653,1,0,0,0.904,button_right_main,0.378571429,-0.331632653,1,0,0,,0,72,72,46,1,MUMMY,HB,old,m,./images/MUMMYHB.png,,,,,,,,,,,,,,,,,,,,,,,,,,,,,,,,,
,,,,,,,,,,,,,,,,,,26,2022-02-12_13h39.45.501,lexical_decision_task_DD_L4,2021.2.3,iPhone,58.82352941,,,,,,,,,,0.669,1,,,,,,,,,,,,,,,0,0.383673469,-0.328571429,1,0,0,0.669,button_right_main,0.383673469,-0.328571429,1,0,0,,0,73,73,37,1,TIGER,HB,old,m,./images/TIGERHB.png,,,,,,,,,,,,,,,,,,,,,,,,,,,,,,,,,
,,,,,,,,,,,,,,,,,,26,2022-02-12_13h39.45.501,lexical_decision_task_DD_L4,2021.2.3,iPhone,58.82352941,,,,,,,,,,1.636,1,,,,,,,,,,,,,,,0,-0.352040816,-0.291836735,1,0,0,1.636,button_left_main,-0.352040816,-0.291836735,1,0,0,,0,74,74,157,1,INLER,HB,old,z,./images/INLERHB.png,,,,,,,,,,,,,,,,,,,,,,,,,,,,,,,,,
,,,,,,,,,,,,,,,,,,26,2022-02-12_13h39.45.501,lexical_decision_task_DD_L4,2021.2.3,iPhone,58.82352941,,,,,,,,,,0.902,1,,,,,,,,,,,,,,,0,-0.294897959,-0.283673469,1,0,0,0.902,button_left_main,-0.294897959,-0.283673469,1,0,0,,0,75,75,100,1,DRIBS,HB,old,z,./images/DRIBSHB.png,,,,,,,,,,,,,,,,,,,,,,,,,,,,,,,,,
,,,,,,,,,,,,,,,,,,26,2022-02-12_13h39.45.501,lexical_decision_task_DD_L4,2021.2.3,iPhone,58.82352941,,,,,,,,,,0.703,1,,,,,,,,,,,,,,,0,0.35,-0.333673469,1,0,0,0.703,button_right_main,0.35,-0.333673469,1,0,0,,0,76,76,58,1,CANOE,HB,old,m,./images/CANOEHB.png,,,,,,,,,,,,,,,,,,,,,,,,,,,,,,,,,
,,,,,,,,,,,,,,,,,,26,2022-02-12_13h39.45.501,lexical_decision_task_DD_L4,2021.2.3,iPhone,58.82352941,,,,,,,,,,0.603,1,,,,,,,,,,,,,,,0,0.389795918,-0.296938776,1,0,0,0.603,button_right_main,0.389795918,-0.296938776,1,0,0,,0,77,77,64,1,BRIDE,HB,old,m,./images/BRIDEHB.png,,,,,,,,,,,,,,,,,,,,,,,,,,,,,,,,,
,,,,,,,,,,,,,,,,,,26,2022-02-12_13h39.45.501,lexical_decision_task_DD_L4,2021.2.3,iPhone,58.82352941,,,,,,,,,,1.32,1,,,,,,,,,,,,,,,0,-0.304081633,-0.278571429,1,0,0,1.32,button_left_main,-0.304081633,-0.278571429,1,0,0,,0,78,78,85,1,CHULK,HB,old,z,./images/CHULKHB.png,,,,,,,,,,,,,,,,,,,,,,,,,,,,,,,,,
,,,,,,,,,,,,,,,,,,26,2022-02-12_13h39.45.501,lexical_decision_task_DD_L4,2021.2.3,iPhone,58.82352941,,,,,,,,,,0.621,1,,,,,,,,,,,,,,,0,0.341836735,-0.285714286,1,0,0,0.621,button_right_main,0.341836735,-0.285714286,1,0,0,,0,79,79,6,1,STAIN,C,old,m,./images/STAIN.png,,,,,,,,,,,,,,,,,,,,,,,,,,,,,,,,,
,,,,,,,,,,,,,,,,,,26,2022-02-12_13h39.45.501,lexical_decision_task_DD_L4,2021.2.3,iPhone,58.82352941,,,,,,,,,,0.736,1,,,,,,,,,,,,,,,0,-0.321428571,-0.278571429,1,0,0,0.736,button_left_main,-0.321428571,-0.278571429,1,0,0,,0,80,80,98,1,BAMPS,LB,old,z,./images/BAMPSLB.png,,,,,,,,,,,,,,,,,,,,,,,,,,,,,,,,,
,,,,,,,,,,,,,,,,,,26,2022-02-12_13h39.45.501,lexical_decision_task_DD_L4,2021.2.3,iPhone,58.82352941,,,,,,,,,,0.752,1,,,,,,,,,,,,,,,0,-0.321428571,-0.297959184,1,0,0,0.752,button_left_main,-0.321428571,-0.297959184,1,0,0,,0,81,81,144,1,NAIRY,C,old,z,./images/NAIRY.png,,,,,,,,,,,,,,,,,,,,,,,,,,,,,,,,,
,,,,,,,,,,,,,,,,,,26,2022-02-12_13h39.45.501,lexical_decision_task_DD_L4,2021.2.3,iPhone,58.82352941,,,,,,,,,,0.719,1,,,,,,,,,,,,,,,0,-0.271428571,-0.305102041,1,0,0,0.719,button_left_main,-0.271428571,-0.305102041,1,0,0,,0,82,82,111,1,HOSSE,C,old,z,./images/HOSSE.png,,,,,,,,,,,,,,,,,,,,,,,,,,,,,,,,,
,,,,,,,,,,,,,,,,,,26,2022-02-12_13h39.45.501,lexical_decision_task_DD_L4,2021.2.3,iPhone,58.82352941,,,,,,,,,,0.619,1,,,,,,,,,,,,,,,0,0.409183673,-0.319387755,1,0,0,0.619,button_right_main,0.068367347,-0.419387755,1,0,0,,0,83,83,36,1,BOILER,C,old,m,./images/BOILER.png,break_done_button,,,,,,,,,,,,,,,,,,,,,,,,,,,,,,,,
,,,,,,,,,,,,,,,,,,26,2022-02-12_13h39.45.501,lexical_decision_task_DD_L4,2021.2.3,iPhone,58.82352941,,,,,,,,,,0.737,1,,,,,,,,,,,,,,,0,-0.407142857,-0.364285714,1,0,0,0.737,button_left_main,-0.407142857,-0.364285714,1,0,0,,0,84,84,86,1,AIFED,LB,old,z,./images/AIFEDLB.png,,,,,,,,,,,,,,,,,,,,,,,,,,,,,,,,,
,,,,,,,,,,,,,,,,,,26,2022-02-12_13h39.45.501,lexical_decision_task_DD_L4,2021.2.3,iPhone,58.82352941,,,,,,,,,,0.604,1,,,,,,,,,,,,,,,0,0.392857143,-0.333673469,1,0,0,0.604,button_right_main,0.392857143,-0.333673469,1,0,0,,0,85,85,0,1,WALNUT,C,old,m,./images/WALNUT.png,,,,,,,,,,,,,,,,,,,,,,,,,,,,,,,,,
,,,,,,,,,,,,,,,,,,26,2022-02-12_13h39.45.501,lexical_decision_task_DD_L4,2021.2.3,iPhone,58.82352941,,,,,,,,,,0.636,1,,,,,,,,,,,,,,,0,-0.312244898,-0.332653061,1,0,0,0.636,button_left_main,-0.312244898,-0.332653061,1,0,0,,0,86,86,116,1,BALGY,LB,old,z,./images/BALGYLB.png,,,,,,,,,,,,,,,,,,,,,,,,,,,,,,,,,
,,,,,,,,,,,,,,,,,,26,2022-02-12_13h39.45.501,lexical_decision_task_DD_L4,2021.2.3,iPhone,58.82352941,,,,,,,,,,0.952,1,,,,,,,,,,,,,,,0,-0.259183673,-0.324489796,1,0,0,0.952,button_left_main,-0.259183673,-0.324489796,1,0,0,,0,87,87,139,1,BLEAR,HB,old,z,./images/BLEARHB.png,,,,,,,,,,,,,,,,,,,,,,,,,,,,,,,,,
,,,,,,,,,,,,,,,,,,26,2022-02-12_13h39.45.501,lexical_decision_task_DD_L4,2021.2.3,iPhone,58.82352941,,,,,,,,,,0.786,1,,,,,,,,,,,,,,,0,0.332653061,-0.302040816,1,0,0,0.786,button_right_main,0.332653061,-0.302040816,1,0,0,,0,88,88,25,1,CHALK,HB,old,m,./images/CHALKHB.png,,,,,,,,,,,,,,,,,,,,,,,,,,,,,,,,,
,,,,,,,,,,,,,,,,,,26,2022-02-12_13h39.45.501,lexical_decision_task_DD_L4,2021.2.3,iPhone,58.82352941,,,,,,,,,,1.001,1,,,,,,,,,,,,,,,0,-0.292857143,-0.315306122,1,0,0,1.001,button_left_main,-0.292857143,-0.315306122,1,0,0,,0,89,89,160,1,VEETS,HB,old,z,./images/VEETSHB.png,,,,,,,,,,,,,,,,,,,,,,,,,,,,,,,,,
,,,,,,,,,,,,,,,,,,26,2022-02-12_13h39.45.501,lexical_decision_task_DD_L4,2021.2.3,iPhone,58.82352941,,,,,,,,,,0.553,1,,,,,,,,,,,,,,,0,0.324489796,-0.301020408,1,0,0,0.553,button_right_main,0.324489796,-0.301020408,1,0,0,,0,90,90,11,1,MEDAL,LB,old,m,./images/MEDALLB.png,,,,,,,,,,,,,,,,,,,,,,,,,,,,,,,,,
,,,,,,,,,,,,,,,,,,26,2022-02-12_13h39.45.501,lexical_decision_task_DD_L4,2021.2.3,iPhone,58.82352941,,,,,,,,,,0.736,1,,,,,,,,,,,,,,,0,-0.35,-0.324489796,1,0,0,0.736,button_left_main,-0.35,-0.324489796,1,0,0,,0,91,91,158,1,EGECT,LB,old,z,./images/EGECTLB.png,,,,,,,,,,,,,,,,,,,,,,,,,,,,,,,,,
,,,,,,,,,,,,,,,,,,26,2022-02-12_13h39.45.501,lexical_decision_task_DD_L4,2021.2.3,iPhone,58.82352941,,,,,,,,,,0.669,1,,,,,,,,,,,,,,,0,0.310204082,-0.289795918,1,0,0,0.669,button_right_main,0.310204082,-0.289795918,1,0,0,,0,92,92,8,1,CLIFF,LB,old,m,./images/CLIFFLB.png,,,,,,,,,,,,,,,,,,,,,,,,,,,,,,,,,
,,,,,,,,,,,,,,,,,,26,2022-02-12_13h39.45.501,lexical_decision_task_DD_L4,2021.2.3,iPhone,58.82352941,,,,,,,,,,0.754,1,,,,,,,,,,,,,,,0,-0.321428571,-0.285714286,1,0,0,0.754,button_left_main,-0.321428571,-0.285714286,1,0,0,,0,93,93,97,1,CHIDS,HB,old,z,./images/CHIDSHB.png,,,,,,,,,,,,,,,,,,,,,,,,,,,,,,,,,
,,,,,,,,,,,,,,,,,,26,2022-02-12_13h39.45.501,lexical_decision_task_DD_L4,2021.2.3,iPhone,58.82352941,,,,,,,,,,0.669,1,,,,,,,,,,,,,,,0,-0.297959184,-0.297959184,1,0,0,0.669,button_left_main,-0.297959184,-0.297959184,1,0,0,,0,94,94,131,1,NACES,LB,old,z,./images/NACESLB.png,,,,,,,,,,,,,,,,,,,,,,,,,,,,,,,,,
,,,,,,,,,,,,,,,,,,26,2022-02-12_13h39.45.501,lexical_decision_task_DD_L4,2021.2.3,iPhone,58.82352941,,,,,,,,,,1.186,1,,,,,,,,,,,,,,,0,-0.302040816,-0.285714286,1,0,0,1.186,button_left_main,-0.302040816,-0.285714286,1,0,0,,0,95,95,91,1,SHENS,HB,old,z,./images/SHENSHB.png,,,,,,,,,,,,,,,,,,,,,,,,,,,,,,,,,
,,,,,,,,,,,,,,,,,,26,2022-02-12_13h39.45.501,lexical_decision_task_DD_L4,2021.2.3,iPhone,58.82352941,,,,,,,,,,0.902,1,,,,,,,,,,,,,,,0,0.368367347,-0.318367347,1,0,0,0.902,button_right_main,0.368367347,-0.318367347,1,0,0,,0,96,96,49,1,BISHOP,HB,old,m,./images/BISHOPHB.png,,,,,,,,,,,,,,,,,,,,,,,,,,,,,,,,,
,,,,,,,,,,,,,,,,,,26,2022-02-12_13h39.45.501,lexical_decision_task_DD_L4,2021.2.3,iPhone,58.82352941,,,,,,,,,,0.737,1,,,,,,,,,,,,,,,0,-0.385714286,-0.291836735,1,0,0,0.737,button_left_main,-0.385714286,-0.291836735,1,0,0,,0,97,97,129,1,PRANS,C,old,z,./images/PRANS.png,,,,,,,,,,,,,,,,,,,,,,,,,,,,,,,,,
,,,,,,,,,,,,,,,,,,26,2022-02-12_13h39.45.501,lexical_decision_task_DD_L4,2021.2.3,iPhone,58.82352941,,,,,,,,,,0.585,1,,,,,,,,,,,,,,,0,0.364285714,-0.266326531,1,0,0,0.585,button_right_main,0.364285714,-0.266326531,1,0,0,,0,98,98,77,1,WHEEL,LB,old,m,./images/WHEELLB.png,,,,,,,,,,,,,,,,,,,,,,,,,,,,,,,,,
,,,,,,,,,,,,,,,,,,26,2022-02-12_13h39.45.501,lexical_decision_task_DD_L4,2021.2.3,iPhone,58.82352941,,,,,,,,,,0.687,1,,,,,,,,,,,,,,,0,-0.344897959,-0.324489796,1,0,0,0.687,button_left_main,-0.344897959,-0.324489796,1,0,0,,0,99,99,92,1,PAIMS,LB,old,z,./images/PAIMSLB.png,,,,,,,,,,,,,,,,,,,,,,,,,,,,,,,,,
,,,,,,,,,,,,,,,,,,26,2022-02-12_13h39.45.501,lexical_decision_task_DD_L4,2021.2.3,iPhone,58.82352941,,,,,,,,,,0.82,1,,,,,,,,,,,,,,,0,-0.332653061,-0.320408163,1,0,0,0.82,button_left_main,-0.332653061,-0.320408163,1,0,0,,0,100,100,142,1,PLASK,HB,old,z,./images/PLASKHB.png,,,,,,,,,,,,,,,,,,,,,,,,,,,,,,,,,
,,,,,,,,,,,,,,,,,,26,2022-02-12_13h39.45.501,lexical_decision_task_DD_L4,2021.2.3,iPhone,58.82352941,,,,,,,,,,0.986,1,,,,,,,,,,,,,,,0,-0.303061224,-0.296938776,1,0,0,0.986,button_left_main,-0.303061224,-0.296938776,1,0,0,,0,101,101,119,1,PAFER,LB,old,z,./images/PAFERLB.png,,,,,,,,,,,,,,,,,,,,,,,,,,,,,,,,,
,,,,,,,,,,,,,,,,,,26,2022-02-12_13h39.45.501,lexical_decision_task_DD_L4,2021.2.3,iPhone,58.82352941,,,,,,,,,,0.768,1,,,,,,,,,,,,,,,0,0.363265306,-0.302040816,1,0,0,0.768,button_right_main,0.363265306,-0.302040816,1,0,0,,0,102,102,30,1,SLOPE,C,old,m,./images/SLOPE.png,,,,,,,,,,,,,,,,,,,,,,,,,,,,,,,,,
,,,,,,,,,,,,,,,,,,26,2022-02-12_13h39.45.501,lexical_decision_task_DD_L4,2021.2.3,iPhone,58.82352941,,,,,,,,,,0.669,1,,,,,,,,,,,,,,,0,-0.302040816,-0.284693878,1,0,0,0.669,button_left_main,-0.302040816,-0.284693878,1,0,0,,0,103,103,135,1,JOODY,C,old,z,./images/JOODY.png,,,,,,,,,,,,,,,,,,,,,,,,,,,,,,,,,
,,,,,,,,,,,,,,,,,,26,2022-02-12_13h39.45.501,lexical_decision_task_DD_L4,2021.2.3,iPhone,58.82352941,,,,,,,,,,0.702,1,,,,,,,,,,,,,,,0,0.35,-0.320408163,1,0,0,0.702,button_right_main,0.35,-0.320408163,1,0,0,,0,104,104,50,1,PILOT,LB,old,m,./images/PILOTLB.png,,,,,,,,,,,,,,,,,,,,,,,,,,,,,,,,,
,,,,,,,,,,,,,,,,,,26,2022-02-12_13h39.45.501,lexical_decision_task_DD_L4,2021.2.3,iPhone,58.82352941,,,,,,,,,,0.553,1,,,,,,,,,,,,,,,0,0.332653061,-0.280612245,1,0,0,0.553,button_right_main,0.332653061,-0.280612245,1,0,0,,0,105,105,45,1,MONKEY,C,old,m,./images/MONKEY.png,,,,,,,,,,,,,,,,,,,,,,,,,,,,,,,,,
,,,,,,,,,,,,,,,,,,26,2022-02-12_13h39.45.501,lexical_decision_task_DD_L4,2021.2.3,iPhone,58.82352941,,,,,,,,,,0.786,1,,,,,,,,,,,,,,,0,0.331632653,-0.323469388,1,0,0,0.786,button_right_main,0.331632653,-0.323469388,1,0,0,,0,106,106,73,1,GLOVE,HB,old,m,./images/GLOVEHB.png,,,,,,,,,,,,,,,,,,,,,,,,,,,,,,,,,
,,,,,,,,,,,,,,,,,,26,2022-02-12_13h39.45.501,lexical_decision_task_DD_L4,2021.2.3,iPhone,58.82352941,,,,,,,,,,0.635,1,,,,,,,,,,,,,,,0,0.343877551,-0.289795918,1,0,0,0.635,button_right_main,0.343877551,-0.289795918,1,0,0,,0,107,107,14,1,FENCE,LB,old,m,./images/FENCELB.png,,,,,,,,,,,,,,,,,,,,,,,,,,,,,,,,,
,,,,,,,,,,,,,,,,,,26,2022-02-12_13h39.45.501,lexical_decision_task_DD_L4,2021.2.3,iPhone,58.82352941,,,,,,,,,,0.77,1,,,,,,,,,,,,,,,0,-0.298979592,-0.287755102,1,0,0,0.77,button_left_main,-0.298979592,-0.287755102,1,0,0,,0,108,108,118,1,BAVEL,HB,old,z,./images/BAVELHB.png,,,,,,,,,,,,,,,,,,,,,,,,,,,,,,,,,
,,,,,,,,,,,,,,,,,,26,2022-02-12_13h39.45.501,lexical_decision_task_DD_L4,2021.2.3,iPhone,58.82352941,,,,,,,,,,0.753,1,,,,,,,,,,,,,,,0,0.392857143,-0.323469388,1,0,0,0.753,button_right_main,0.392857143,-0.323469388,1,0,0,,0,109,109,61,1,ARTIST,HB,old,m,./images/ARTISTHB.png,,,,,,,,,,,,,,,,,,,,,,,,,,,,,,,,,
,,,,,,,,,,,,,,,,,,26,2022-02-12_13h39.45.501,lexical_decision_task_DD_L4,2021.2.3,iPhone,58.82352941,,,,,,,,,,0.836,1,,,,,,,,,,,,,,,0,0.35,-0.31122449,1,0,0,0.836,button_right_main,0.35,-0.31122449,1,0,0,,0,110,110,10,1,GARDEN,HB,old,m,./images/GARDENHB.png,,,,,,,,,,,,,,,,,,,,,,,,,,,,,,,,,
,,,,,,,,,,,,,,,,,,26,2022-02-12_13h39.45.501,lexical_decision_task_DD_L4,2021.2.3,iPhone,58.82352941,,,,,,,,,,0.72,1,,,,,,,,,,,,,,,0,-0.341836735,-0.31122449,1,0,0,0.72,button_left_main,-0.341836735,-0.31122449,1,0,0,,0,111,111,140,1,DOVET,LB,old,z,./images/DOVETLB.png,,,,,,,,,,,,,,,,,,,,,,,,,,,,,,,,,
,,,,,,,,,,,,,,,,,,26,2022-02-12_13h39.45.501,lexical_decision_task_DD_L4,2021.2.3,iPhone,58.82352941,,,,,,,,,,0.569,1,,,,,,,,,,,,,,,0,0.346938776,-0.319387755,1,0,0,0.569,button_right_main,0.346938776,-0.319387755,1,0,0,,0,112,112,80,1,PLANET,LB,old,m,./images/PLANETLB.png,,,,,,,,,,,,,,,,,,,,,,,,,,,,,,,,,
,,,,,,,,,,,,,,,,,,26,2022-02-12_13h39.45.501,lexical_decision_task_DD_L4,2021.2.3,iPhone,58.82352941,,,,,,,,,,0.636,1,,,,,,,,,,,,,,,0,0.395918367,-0.351020408,1,0,0,0.636,button_right_main,0.395918367,-0.351020408,1,0,0,,0,113,113,19,1,DONKEY,HB,old,m,./images/DONKEYHB.png,,,,,,,,,,,,,,,,,,,,,,,,,,,,,,,,,
,,,,,,,,,,,,,,,,,,26,2022-02-12_13h39.45.501,lexical_decision_task_DD_L4,2021.2.3,iPhone,58.82352941,,,,,,,,,,0.621,1,,,,,,,,,,,,,,,0,0.420408163,-0.32244898,1,0,0,0.621,button_right_main,0.420408163,-0.32244898,1,0,0,,0,114,114,38,1,ENGINE,LB,old,m,./images/ENGINELB.png,,,,,,,,,,,,,,,,,,,,,,,,,,,,,,,,,
,,,,,,,,,,,,,,,,,,26,2022-02-12_13h39.45.501,lexical_decision_task_DD_L4,2021.2.3,iPhone,58.82352941,,,,,,,,,,0.636,1,,,,,,,,,,,,,,,0,0.380612245,-0.307142857,1,0,0,0.636,button_right_main,0.380612245,-0.307142857,1,0,0,,0,115,115,79,1,RULER,HB,old,m,./images/RULERHB.png,,,,,,,,,,,,,,,,,,,,,,,,,,,,,,,,,
,,,,,,,,,,,,,,,,,,26,2022-02-12_13h39.45.501,lexical_decision_task_DD_L4,2021.2.3,iPhone,58.82352941,,,,,,,,,,0.671,1,,,,,,,,,,,,,,,0,-0.266326531,-0.296938776,1,0,0,0.671,button_left_main,-0.266326531,-0.296938776,1,0,0,,0,116,116,101,1,GLEET,LB,old,z,./images/GLEETLB.png,,,,,,,,,,,,,,,,,,,,,,,,,,,,,,,,,
,,,,,,,,,,,,,,,,,,26,2022-02-12_13h39.45.501,lexical_decision_task_DD_L4,2021.2.3,iPhone,58.82352941,,,,,,,,,,0.921,1,,,,,,,,,,,,,,,0,0.359183673,-0.331632653,1,0,0,0.921,button_right_main,0.359183673,-0.331632653,1,0,0,,0,117,117,53,1,POSTER,LB,old,m,./images/POSTERLB.png,,,,,,,,,,,,,,,,,,,,,,,,,,,,,,,,,
,,,,,,,,,,,,,,,,,,26,2022-02-12_13h39.45.501,lexical_decision_task_DD_L4,2021.2.3,iPhone,58.82352941,,,,,,,,,,1.419,1,,,,,,,,,,,,,,,0,-0.329591837,-0.37244898,1,0,0,1.419,button_left_main,-0.329591837,-0.37244898,1,0,0,,0,118,118,137,1,JOOST,LB,old,z,./images/JOOSTLB.png,,,,,,,,,,,,,,,,,,,,,,,,,,,,,,,,,
,,,,,,,,,,,,,,,,,,26,2022-02-12_13h39.45.501,lexical_decision_task_DD_L4,2021.2.3,iPhone,58.82352941,,,,,,,,,,0.72,1,,,,,,,,,,,,,,,0,0.345918367,-0.257142857,1,0,0,0.72,button_right_main,0.345918367,-0.257142857,1,0,0,,0,119,119,34,1,RAZOR,HB,old,m,./images/RAZORHB.png,,,,,,,,,,,,,,,,,,,,,,,,,,,,,,,,,
,,,,,,,,,,,,,,,,,,26,2022-02-12_13h39.45.501,lexical_decision_task_DD_L4,2021.2.3,iPhone,58.82352941,,,,,,,,,,0.67,1,,,,,,,,,,,,,,,0,-0.352040816,-0.244897959,1,0,0,0.67,button_left_main,-0.352040816,-0.244897959,1,0,0,,0,120,120,102,1,DULLE,C,old,z,./images/DULLE.png,,,,,,,,,,,,,,,,,,,,,,,,,,,,,,,,,
,,,,,,,,,,,,,,,,,,26,2022-02-12_13h39.45.501,lexical_decision_task_DD_L4,2021.2.3,iPhone,58.82352941,,,,,,,,,,0.786,1,,,,,,,,,,,,,,,0,0.405102041,-0.310204082,1,0,0,0.786,button_right_main,0.405102041,-0.310204082,1,0,0,,0,121,121,67,1,POKER,HB,old,m,./images/POKERHB.png,,,,,,,,,,,,,,,,,,,,,,,,,,,,,,,,,
,,,,,,,,,,,,,,,,,,26,2022-02-12_13h39.45.501,lexical_decision_task_DD_L4,2021.2.3,iPhone,58.82352941,,,,,,,,,,0.603,1,,,,,,,,,,,,,,,0,0.410204082,-0.335714286,1,0,0,0.603,button_right_main,0.410204082,-0.335714286,1,0,0,,0,122,122,62,1,MAMMAL,LB,old,m,./images/MAMMALLB.png,,,,,,,,,,,,,,,,,,,,,,,,,,,,,,,,,
,,,,,,,,,,,,,,,,,,26,2022-02-12_13h39.45.501,lexical_decision_task_DD_L4,2021.2.3,iPhone,58.82352941,,,,,,,,,,0.77,1,,,,,,,,,,,,,,,0,-0.321428571,-0.291836735,1,0,0,0.77,button_left_main,-0.321428571,-0.291836735,1,0,0,,0,123,123,89,1,DRIEK,LB,old,z,./images/DRIEKLB.png,,,,,,,,,,,,,,,,,,,,,,,,,,,,,,,,,
,,,,,,,,,,,,,,,,,,26,2022-02-12_13h39.45.501,lexical_decision_task_DD_L4,2021.2.3,iPhone,58.82352941,,,,,,,,,,0.853,1,,,,,,,,,,,,,,,0,-0.31122449,-0.280612245,1,0,0,0.853,button_left_main,-0.31122449,-0.280612245,1,0,0,,0,124,124,148,1,JOMS,HB,old,z,./images/JOMSHB.png,,,,,,,,,,,,,,,,,,,,,,,,,,,,,,,,,
,,,,,,,,,,,,,,,,,,26,2022-02-12_13h39.45.501,lexical_decision_task_DD_L4,2021.2.3,iPhone,58.82352941,,,,,,,,,,0.653,1,,,,,,,,,,,,,,,0,0.455102041,-0.336734694,1,0,0,0.653,button_right_main,0.089795918,-0.405102041,1,0,0,,0,125,125,15,1,COLLAR,C,old,m,./images/COLLAR.png,break_done_button,,,,,,,,,,,,,,,,,,,,,,,,,,,,,,,,
,,,,,,,,,,,,,,,,,,26,2022-02-12_13h39.45.501,lexical_decision_task_DD_L4,2021.2.3,iPhone,58.82352941,,,,,,,,,,1.182,1,,,,,,,,,,,,,,,0,0.343877551,-0.310204082,1,0,0,1.182,button_right_main,0.343877551,-0.310204082,1,0,0,,0,126,126,12,1,BLOKE,C,old,m,./images/BLOKE.png,,,,,,,,,,,,,,,,,,,,,,,,,,,,,,,,,
,,,,,,,,,,,,,,,,,,26,2022-02-12_13h39.45.501,lexical_decision_task_DD_L4,2021.2.3,iPhone,58.82352941,,,,,,,,,,0.953,1,,,,,,,,,,,,,,,0,-0.246938776,-0.301020408,1,0,0,0.953,button_left_main,-0.246938776,-0.301020408,1,0,0,,0,127,127,106,1,CLUMS,HB,old,z,./images/CLUMSHB.png,,,,,,,,,,,,,,,,,,,,,,,,,,,,,,,,,
,,,,,,,,,,,,,,,,,,26,2022-02-12_13h39.45.501,lexical_decision_task_DD_L4,2021.2.3,iPhone,58.82352941,,,,,,,,,,1.12,1,,,,,,,,,,,,,,,0,-0.315306122,-0.298979592,1,0,0,1.12,button_left_main,-0.315306122,-0.298979592,1,0,0,,0,128,128,166,1,SHORY,HB,old,z,./images/SHORYHB.png,,,,,,,,,,,,,,,,,,,,,,,,,,,,,,,,,
,,,,,,,,,,,,,,,,,,26,2022-02-12_13h39.45.501,lexical_decision_task_DD_L4,2021.2.3,iPhone,58.82352941,,,,,,,,,,0.667,1,,,,,,,,,,,,,,,0,-0.308163265,-0.291836735,1,0,0,0.667,button_left_main,-0.308163265,-0.291836735,1,0,0,,0,129,129,141,1,PLEET,C,old,z,./images/PLEET.png,,,,,,,,,,,,,,,,,,,,,,,,,,,,,,,,,
,,,,,,,,,,,,,,,,,,26,2022-02-12_13h39.45.501,lexical_decision_task_DD_L4,2021.2.3,iPhone,58.82352941,,,,,,,,,,0.853,0,,,,,,,,,,,,,,,0,0.397959184,-0.307142857,1,0,0,0.853,button_right_main,0.397959184,-0.307142857,1,0,0,,0,130,130,128,1,GRIFT,LB,old,z,./images/GRIFTLB.png,,,,,,,,,,,,,,,,,,,,,,,,,,,,,,,,,
,,,,,,,,,,,,,,,,,,26,2022-02-12_13h39.45.501,lexical_decision_task_DD_L4,2021.2.3,iPhone,58.82352941,,,,,,,,,,0.552,1,,,,,,,,,,,,,,,0,0.410204082,-0.28877551,1,0,0,0.552,button_right_main,0.410204082,-0.28877551,1,0,0,,0,131,131,56,1,HEATER,LB,old,m,./images/HEATERLB.png,,,,,,,,,,,,,,,,,,,,,,,,,,,,,,,,,
,,,,,,,,,,,,,,,,,,26,2022-02-12_13h39.45.501,lexical_decision_task_DD_L4,2021.2.3,iPhone,58.82352941,,,,,,,,,,0.586,0,,,,,,,,,,,,,,,0,0.395918367,-0.27244898,1,0,0,0.586,button_right_main,0.395918367,-0.27244898,1,0,0,,0,132,132,159,1,CUDDY,C,old,z,./images/CUDDY.png,,,,,,,,,,,,,,,,,,,,,,,,,,,,,,,,,
,,,,,,,,,,,,,,,,,,26,2022-02-12_13h39.45.501,lexical_decision_task_DD_L4,2021.2.3,iPhone,58.82352941,,,,,,,,,,0.701,1,,,,,,,,,,,,,,,0,-0.331632653,-0.280612245,1,0,0,0.701,button_left_main,-0.331632653,-0.280612245,1,0,0,,0,133,133,96,1,KEAMS,C,old,z,./images/KEAMS.png,,,,,,,,,,,,,,,,,,,,,,,,,,,,,,,,,
,,,,,,,,,,,,,,,,,,26,2022-02-12_13h39.45.501,lexical_decision_task_DD_L4,2021.2.3,iPhone,58.82352941,,,,,,,,,,0.636,1,,,,,,,,,,,,,,,0,0.353061224,-0.32244898,1,0,0,0.636,button_right_main,0.353061224,-0.32244898,1,0,0,,0,134,134,72,1,FLASK,C,old,m,./images/FLASK.png,,,,,,,,,,,,,,,,,,,,,,,,,,,,,,,,,
,,,,,,,,,,,,,,,,,,26,2022-02-12_13h39.45.501,lexical_decision_task_DD_L4,2021.2.3,iPhone,58.82352941,,,,,,,,,,0.568,1,,,,,,,,,,,,,,,0,0.367346939,-0.31122449,1,0,0,0.568,button_right_main,0.367346939,-0.31122449,1,0,0,,0,135,135,26,1,CLOUD,LB,old,m,./images/CLOUDLB.png,,,,,,,,,,,,,,,,,,,,,,,,,,,,,,,,,
,,,,,,,,,,,,,,,,,,26,2022-02-12_13h39.45.501,lexical_decision_task_DD_L4,2021.2.3,iPhone,58.82352941,,,,,,,,,,0.836,1,,,,,,,,,,,,,,,0,-0.301020408,-0.292857143,1,0,0,0.836,button_left_main,-0.301020408,-0.292857143,1,0,0,,0,136,136,115,1,MAWNS,HB,old,z,./images/MAWNSHB.png,,,,,,,,,,,,,,,,,,,,,,,,,,,,,,,,,
,,,,,,,,,,,,,,,,,,26,2022-02-12_13h39.45.501,lexical_decision_task_DD_L4,2021.2.3,iPhone,58.82352941,,,,,,,,,,0.654,1,,,,,,,,,,,,,,,0,0.391836735,-0.326530612,1,0,0,0.654,button_right_main,0.391836735,-0.326530612,1,0,0,,0,137,137,42,1,CHAIN,C,old,m,./images/CHAIN.png,,,,,,,,,,,,,,,,,,,,,,,,,,,,,,,,,
,,,,,,,,,,,,,,,,,,26,2022-02-12_13h39.45.501,lexical_decision_task_DD_L4,2021.2.3,iPhone,58.82352941,,,,,,,,,,0.985,1,,,,,,,,,,,,,,,0,-0.376530612,-0.28877551,1,0,0,0.985,button_left_main,-0.376530612,-0.28877551,1,0,0,,0,138,138,121,1,CEERS,HB,old,z,./images/CEERSHB.png,,,,,,,,,,,,,,,,,,,,,,,,,,,,,,,,,
,,,,,,,,,,,,,,,,,,26,2022-02-12_13h39.45.501,lexical_decision_task_DD_L4,2021.2.3,iPhone,58.82352941,,,,,,,,,,0.803,1,,,,,,,,,,,,,,,0,-0.324489796,-0.318367347,1,0,0,0.803,button_left_main,-0.324489796,-0.318367347,1,0,0,,0,139,139,162,1,LEICH,C,old,z,./images/LEICH.png,,,,,,,,,,,,,,,,,,,,,,,,,,,,,,,,,
,,,,,,,,,,,,,,,,,,26,2022-02-12_13h39.45.501,lexical_decision_task_DD_L4,2021.2.3,iPhone,58.82352941,,,,,,,,,,0.769,1,,,,,,,,,,,,,,,0,-0.308163265,-0.285714286,1,0,0,0.769,button_left_main,-0.308163265,-0.285714286,1,0,0,,0,140,140,105,1,MOKER,C,old,z,./images/MOKER.png,,,,,,,,,,,,,,,,,,,,,,,,,,,,,,,,,
,,,,,,,,,,,,,,,,,,26,2022-02-12_13h39.45.501,lexical_decision_task_DD_L4,2021.2.3,iPhone,58.82352941,,,,,,,,,,0.887,1,,,,,,,,,,,,,,,0,-0.283673469,-0.307142857,1,0,0,0.887,button_left_main,-0.283673469,-0.307142857,1,0,0,,0,141,141,164,1,SGREW,LB,old,z,./images/SGREWLB.png,,,,,,,,,,,,,,,,,,,,,,,,,,,,,,,,,
,,,,,,,,,,,,,,,,,,26,2022-02-12_13h39.45.501,lexical_decision_task_DD_L4,2021.2.3,iPhone,58.82352941,,,,,,,,,,0.853,1,,,,,,,,,,,,,,,0,0.366326531,-0.332653061,1,0,0,0.853,button_right_main,0.366326531,-0.332653061,1,0,0,,0,142,142,44,1,BASKET,LB,old,m,./images/BASKETLB.png,,,,,,,,,,,,,,,,,,,,,,,,,,,,,,,,,
,,,,,,,,,,,,,,,,,,26,2022-02-12_13h39.45.501,lexical_decision_task_DD_L4,2021.2.3,iPhone,58.82352941,,,,,,,,,,0.587,1,,,,,,,,,,,,,,,0,0.371428571,-0.262244898,1,0,0,0.587,button_right_main,0.371428571,-0.262244898,1,0,0,,0,143,143,21,1,DANCER,C,old,m,./images/DANCER.png,,,,,,,,,,,,,,,,,,,,,,,,,,,,,,,,,
,,,,,,,,,,,,,,,,,,26,2022-02-12_13h39.45.501,lexical_decision_task_DD_L4,2021.2.3,iPhone,58.82352941,,,,,,,,,,0.67,1,,,,,,,,,,,,,,,0,0.374489796,-0.266326531,1,0,0,0.67,button_right_main,0.374489796,-0.266326531,1,0,0,,0,144,144,59,1,BRUSH,LB,old,m,./images/BRUSHLB.png,,,,,,,,,,,,,,,,,,,,,,,,,,,,,,,,,
,,,,,,,,,,,,,,,,,,26,2022-02-12_13h39.45.501,lexical_decision_task_DD_L4,2021.2.3,iPhone,58.82352941,,,,,,,,,,0.586,1,,,,,,,,,,,,,,,0,0.403061224,-0.354081633,1,0,0,0.586,button_right_main,0.403061224,-0.354081633,1,0,0,,0,145,145,81,1,DRILL,C,old,m,./images/DRILL.png,,,,,,,,,,,,,,,,,,,,,,,,,,,,,,,,,
,,,,,,,,,,,,,,,,,,26,2022-02-12_13h39.45.501,lexical_decision_task_DD_L4,2021.2.3,iPhone,58.82352941,,,,,,,,,,0.71,1,,,,,,,,,,,,,,,0,0.38877551,-0.296938776,1,0,0,0.71,button_right_main,0.38877551,-0.296938776,1,0,0,,0,146,146,24,1,FLESH,C,old,m,./images/FLESH.png,,,,,,,,,,,,,,,,,,,,,,,,,,,,,,,,,
,,,,,,,,,,,,,,,,,,26,2022-02-12_13h39.45.501,lexical_decision_task_DD_L4,2021.2.3,iPhone,58.82352941,,,,,,,,,,0.67,1,,,,,,,,,,,,,,,0,0.368367347,-0.276530612,1,0,0,0.67,button_right_main,0.368367347,-0.276530612,1,0,0,,0,147,147,40,1,SNAKE,HB,old,m,./images/SNAKEHB.png,,,,,,,,,,,,,,,,,,,,,,,,,,,,,,,,,
,,,,,,,,,,,,,,,,,,26,2022-02-12_13h39.45.501,lexical_decision_task_DD_L4,2021.2.3,iPhone,58.82352941,,,,,,,,,,0.803,1,,,,,,,,,,,,,,,0,-0.301020408,-0.328571429,1,0,0,0.803,button_left_main,-0.301020408,-0.328571429,1,0,0,,0,148,148,150,1,NOOLS,C,old,z,./images/NOOLS.png,,,,,,,,,,,,,,,,,,,,,,,,,,,,,,,,,
,,,,,,,,,,,,,,,,,,26,2022-02-12_13h39.45.501,lexical_decision_task_DD_L4,2021.2.3,iPhone,58.82352941,,,,,,,,,,0.619,1,,,,,,,,,,,,,,,0,0.35,-0.318367347,1,0,0,0.619,button_right_main,0.35,-0.318367347,1,0,0,,0,149,149,75,1,HAMMER,C,old,m,./images/HAMMER.png,,,,,,,,,,,,,,,,,,,,,,,,,,,,,,,,,
,,,,,,,,,,,,,,,,,,26,2022-02-12_13h39.45.501,lexical_decision_task_DD_L4,2021.2.3,iPhone,58.82352941,,,,,,,,,,0.685,1,,,,,,,,,,,,,,,0,0.35,-0.324489796,1,0,0,0.685,button_right_main,0.35,-0.324489796,1,0,0,,0,150,150,57,1,FERRY,C,old,m,./images/FERRY.png,,,,,,,,,,,,,,,,,,,,,,,,,,,,,,,,,
,,,,,,,,,,,,,,,,,,26,2022-02-12_13h39.45.501,lexical_decision_task_DD_L4,2021.2.3,iPhone,58.82352941,,,,,,,,,,0.769,1,,,,,,,,,,,,,,,0,-0.297959184,-0.293877551,1,0,0,0.769,button_left_main,-0.297959184,-0.293877551,1,0,0,,0,151,151,151,1,TINKY,HB,old,z,./images/TINKYHB.png,,,,,,,,,,,,,,,,,,,,,,,,,,,,,,,,,
,,,,,,,,,,,,,,,,,,26,2022-02-12_13h39.45.501,lexical_decision_task_DD_L4,2021.2.3,iPhone,58.82352941,,,,,,,,,,1.069,1,,,,,,,,,,,,,,,0,-0.298979592,-0.298979592,1,0,0,1.069,button_left_main,-0.298979592,-0.298979592,1,0,0,,0,152,152,163,1,GAMBA,HB,old,z,./images/GAMBAHB.png,,,,,,,,,,,,,,,,,,,,,,,,,,,,,,,,,
,,,,,,,,,,,,,,,,,,26,2022-02-12_13h39.45.501,lexical_decision_task_DD_L4,2021.2.3,iPhone,58.82352941,,,,,,,,,,0.704,1,,,,,,,,,,,,,,,0,0.384693878,-0.32755102,1,0,0,0.704,button_right_main,0.384693878,-0.32755102,1,0,0,,0,153,153,47,1,LAGOON,LB,old,m,./images/LAGOONLB.png,,,,,,,,,,,,,,,,,,,,,,,,,,,,,,,,,
,,,,,,,,,,,,,,,,,,26,2022-02-12_13h39.45.501,lexical_decision_task_DD_L4,2021.2.3,iPhone,58.82352941,,,,,,,,,,0.904,1,,,,,,,,,,,,,,,0,-0.35,-0.330612245,1,0,0,0.904,button_left_main,-0.35,-0.330612245,1,0,0,,0,154,154,165,1,TROWN,C,old,z,./images/TROWN.png,,,,,,,,,,,,,,,,,,,,,,,,,,,,,,,,,
,,,,,,,,,,,,,,,,,,26,2022-02-12_13h39.45.501,lexical_decision_task_DD_L4,2021.2.3,iPhone,58.82352941,,,,,,,,,,1.502,1,,,,,,,,,,,,,,,0,0.36122449,-0.347959184,1,0,0,1.502,button_right_main,0.36122449,-0.347959184,1,0,0,,0,155,155,76,1,MIDGET,HB,old,m,./images/MIDGETHB.png,,,,,,,,,,,,,,,,,,,,,,,,,,,,,,,,,
,,,,,,,,,,,,,,,,,,26,2022-02-12_13h39.45.501,lexical_decision_task_DD_L4,2021.2.3,iPhone,58.82352941,,,,,,,,,,0.786,1,,,,,,,,,,,,,,,0,0.363265306,-0.32755102,1,0,0,0.786,button_right_main,0.363265306,-0.32755102,1,0,0,,0,156,156,18,1,PARCEL,C,old,m,./images/PARCEL.png,,,,,,,,,,,,,,,,,,,,,,,,,,,,,,,,,
,,,,,,,,,,,,,,,,,,26,2022-02-12_13h39.45.501,lexical_decision_task_DD_L4,2021.2.3,iPhone,58.82352941,,,,,,,,,,0.719,1,,,,,,,,,,,,,,,0,-0.32755102,-0.293877551,1,0,0,0.719,button_left_main,-0.32755102,-0.293877551,1,0,0,,0,157,157,132,1,SCIFF,C,old,z,./images/SCIFF.png,,,,,,,,,,,,,,,,,,,,,,,,,,,,,,,,,
,,,,,,,,,,,,,,,,,,26,2022-02-12_13h39.45.501,lexical_decision_task_DD_L4,2021.2.3,iPhone,58.82352941,,,,,,,,,,0.638,1,,,,,,,,,,,,,,,0,0.381632653,-0.292857143,1,0,0,0.638,button_right_main,0.381632653,-0.292857143,1,0,0,,0,158,158,51,1,SAUCE,C,old,m,./images/SAUCE.png,,,,,,,,,,,,,,,,,,,,,,,,,,,,,,,,,
,,,,,,,,,,,,,,,,,,26,2022-02-12_13h39.45.501,lexical_decision_task_DD_L4,2021.2.3,iPhone,58.82352941,,,,,,,,,,0.553,1,,,,,,,,,,,,,,,0,0.393877551,-0.295918367,1,0,0,0.553,button_right_main,0.393877551,-0.295918367,1,0,0,,0,159,159,83,1,WHISKY,LB,old,m,./images/WHISKYLB.png,,,,,,,,,,,,,,,,,,,,,,,,,,,,,,,,,
,,,,,,,,,,,,,,,,,,26,2022-02-12_13h39.45.501,lexical_decision_task_DD_L4,2021.2.3,iPhone,58.82352941,,,,,,,,,,0.668,1,,,,,,,,,,,,,,,0,0.370408163,-0.353061224,1,0,0,0.668,button_right_main,0.370408163,-0.353061224,1,0,0,,0,160,160,69,1,ARROW,C,old,m,./images/ARROW.png,,,,,,,,,,,,,,,,,,,,,,,,,,,,,,,,,
,,,,,,,,,,,,,,,,,,26,2022-02-12_13h39.45.501,lexical_decision_task_DD_L4,2021.2.3,iPhone,58.82352941,,,,,,,,,,0.769,1,,,,,,,,,,,,,,,0,-0.298979592,-0.278571429,1,0,0,0.769,button_left_main,-0.298979592,-0.278571429,1,0,0,,0,161,161,136,1,WERVE,HB,old,z,./images/WERVEHB.png,,,,,,,,,,,,,,,,,,,,,,,,,,,,,,,,,
,,,,,,,,,,,,,,,,,,26,2022-02-12_13h39.45.501,lexical_decision_task_DD_L4,2021.2.3,iPhone,58.82352941,,,,,,,,,,0.852,1,,,,,,,,,,,,,,,0,-0.321428571,-0.303061224,1,0,0,0.852,button_left_main,-0.321428571,-0.303061224,1,0,0,,0,162,162,127,1,NINDY,HB,old,z,./images/NINDYHB.png,,,,,,,,,,,,,,,,,,,,,,,,,,,,,,,,,
,,,,,,,,,,,,,,,,,,26,2022-02-12_13h39.45.501,lexical_decision_task_DD_L4,2021.2.3,iPhone,58.82352941,,,,,,,,,,0.669,1,,,,,,,,,,,,,,,0,-0.316326531,-0.301020408,1,0,0,0.669,button_left_main,-0.316326531,-0.301020408,1,0,0,,0,163,163,123,1,SEDGE,C,old,z,./images/SEDGE.png,,,,,,,,,,,,,,,,,,,,,,,,,,,,,,,,,
,,,,,,,,,,,,,,,,,,26,2022-02-12_13h39.45.501,lexical_decision_task_DD_L4,2021.2.3,iPhone,58.82352941,,,,,,,,,,0.721,1,,,,,,,,,,,,,,,0,0.363265306,-0.339795918,1,0,0,0.721,button_right_main,0.363265306,-0.339795918,1,0,0,,0,164,164,55,1,ALLEY,HB,old,m,./images/ALLEYHB.png,,,,,,,,,,,,,,,,,,,,,,,,,,,,,,,,,
,,,,,,,,,,,,,,,,,,26,2022-02-12_13h39.45.501,lexical_decision_task_DD_L4,2021.2.3,iPhone,58.82352941,,,,,,,,,,0.619,1,,,,,,,,,,,,,,,0,0.401020408,-0.213265306,1,0,0,0.619,button_right_main,0.401020408,-0.213265306,1,0,0,,0,165,165,41,1,STREAM,LB,old,m,./images/STREAMLB.png,,,,,,,,,,,,,,,,,,,,,,,,,,,,,,,,,
,,,,,,,,,,,,,,,,,,26,2022-02-12_13h39.45.501,lexical_decision_task_DD_L4,2021.2.3,iPhone,58.82352941,,,,,,,,,,0.738,1,,,,,,,,,,,,,,,0,-0.318367347,-0.328571429,1,0,0,0.738,button_left_main,-0.318367347,-0.328571429,1,0,0,,0,166,166,153,1,CLUPS,C,old,z,./images/CLUPS.png,,,,,,,,,,,,,,,,,,,,,,,,,,,,,,,,,
,,,,,,,,,,,,,,,,,,26,2022-02-12_13h39.45.501,lexical_decision_task_DD_L4,2021.2.3,iPhone,58.82352941,,,,,,,,,,0.553,1,,,,,,,,,,,,,,,0,0.402040816,-0.323469388,1,0,0,0.553,button_right_main,0.402040816,-0.323469388,1,0,0,,0,167,167,39,1,CANDY,C,old,m,./images/CANDY.png,,,,,,,,,,,,,,,,,,,,,,,,,,,,,,,,,
,,,,,,,,,,,,,,,,,,26,2022-02-12_13h39.45.501,lexical_decision_task_DD_L4,2021.2.3,iPhone,58.82352941,,,,,,,,,,,,,,,,,,,,,,,,,,,,,,,,,,,,,,,,,,,,,,How likely will it be that you will recognize the words presented very blurred on a scale of 0 (not likely) to 100 (most likely)?,,,,,-0.004081633,-0.424489796,1,0,0,jol_adv,5,4.38,0,0,0,2,1,,,,,,,,,,,,,,,,,,,
,,,,,,,,,,,,,,,,,,26,2022-02-12_13h39.45.501,lexical_decision_task_DD_L4,2021.2.3,iPhone,58.82352941,,,,,,,,,,,,,,,,,,,,,,,,,,,,,,,,,,,,,,,,,,,,,,How likely will it be that you will recognize the words presented clearly on a scale of 0 (not likely) to 100 (most likely)?,,,,,,,,,,,5,2.939,0,1,1,0,1,,,,,,,,,,,,,,,,,,,
,,,,,,,,,,,,,,,,,,26,2022-02-12_13h39.45.501,lexical_decision_task_DD_L4,2021.2.3,iPhone,58.82352941,,,,,,,,,,,,,,,,,,,,,,,,,,,,,,,,,,,,,,,,,,,,,,How likely will it be that you will recognize the words presented slighly blurred on a scale of 0 (not likely) to 100 (most likely)?,,,,,,,,,,,5,2.046,0,2,2,1,1,,,,,,,,,,,,,,,,,,,
,0.135714286,-0.396938776,1,0,0,instr_done_button,,,,,,1,test,"In the next phase you will be presented with the words from the the first phase. Your job is to decide whether you remember seeing the word or not. If you remember seeing the word press ""old"" or type ""m"". If you do not remember seeing the word press ""new"" or type ""z"". Please press the space bar or click on continue to begin. ",,,,26,2022-02-12_13h39.45.501,lexical_decision_task_DD_L4,2021.2.3,iPhone,58.82352941,,,,,,,,,,,,,,,,,,,,,,,,,,,,,,,,,,,,,,,,,,,,,,,,,,,,,,,,,,,,,,,,0,0,0,0,1,,,,,,,,,,,,,,
,0.001020408,-0.414285714,1,0,0,instr_done_button,,,,,,1,test,"In the next phase you will be presented with the words from the the first phase. Your job is to decide whether you remember seeing the word or not. If you remember seeing the word press ""old"" or type ""m"". If you do not remember seeing the word press ""new"" or type ""z"". Please press the space bar or click on continue to begin. ",,,,26,2022-02-12_13h39.45.501,lexical_decision_task_DD_L4,2021.2.3,iPhone,58.82352941,,,,,,,,,,,,,,,,,,,,,,,,,,,,,,,,,,,,,,,,,,,,,,,,,,,,,,,,,,,,,,,,1,0,1,0,1,,,,,,,,,,,,,,
,0.087755102,-0.389795918,1,0,0,instr_done_button,,,,,,1,test,"In the next phase you will be presented with the words from the the first phase. Your job is to decide whether you remember seeing the word or not. If you remember seeing the word press ""old"" or type ""m"". If you do not remember seeing the word press ""new"" or type ""z"". Please press the space bar or click on continue to begin. ",,,,26,2022-02-12_13h39.45.501,lexical_decision_task_DD_L4,2021.2.3,iPhone,58.82352941,,,,,,,,,,,,,,,,,,,,,,,,,,,,,,,,,,,,,,,,,,,,,,,,,,,,,,,,,,,,,,,,2,0,2,0,1,,,,,,,,,,,,,,
,0.055102041,-0.413265306,1,0,0,instr_done_button,,,,,,1,test,"In the next phase you will be presented with the words from the the first phase. Your job is to decide whether you remember seeing the word or not. If you remember seeing the word press ""old"" or type ""m"". If you do not remember seeing the word press ""new"" or type ""z"". Please press the space bar or click on continue to begin. ",,,,26,2022-02-12_13h39.45.501,lexical_decision_task_DD_L4,2021.2.3,iPhone,58.82352941,,,,,,,,,,,,,,,,,,,,,,,,,,,,,,,,,,,,,,,,,,,,,,,,,,,,,,,,,,,,,,,,3,0,3,0,1,,,,,,,,,,,,,,
,-0.006122449,-0.392857143,1,0,0,instr_done_button,,,,,,1,test,"In the next phase you will be presented with the words from the the first phase. Your job is to decide whether you remember seeing the word or not. If you remember seeing the word press ""old"" or type ""m"". If you do not remember seeing the word press ""new"" or type ""z"". Please press the space bar or click on continue to begin. ",,,,26,2022-02-12_13h39.45.501,lexical_decision_task_DD_L4,2021.2.3,iPhone,58.82352941,,,,,,,,,,,,,,,,,,,,,,,,,,,,,,,,,,,,,,,,,,,,,,,,,,,,,,,,,,,,,,,,4,0,4,0,1,,,,,,,,,,,,,,
,,,,,,,,,,,,,,,,,,26,2022-02-12_13h39.45.501,lexical_decision_task_DD_L4,2021.2.3,iPhone,58.82352941,,,,,,,,,,1.163,1,,,,,,,,,,,,,,,,,,,,,,,0.333673469,-0.335714286,1,0,0,,,,,,,SHIELD,C,m,y,./images/SHIELD.png,,,,,,,,,,,,,,,,,,,,,0,0.333673469,-0.335714286,1,0,0,1.163,button_right_test,0,0,0,48,1
,,,,,,,,,,,,,,,,,,26,2022-02-12_13h39.45.501,lexical_decision_task_DD_L4,2021.2.3,iPhone,58.82352941,,,,,,,,,,0.718,1,,,,,,,,,,,,,,,,,,,,,,,0.333673469,-0.324489796,1,0,0,,,,,,,CURRY,C,m,y,./images/CURRY.png,,,,,,,,,,,,,,,,,,,,,0,0.333673469,-0.324489796,1,0,0,0.718,button_right_test,0,1,1,60,1
,,,,,,,,,,,,,,,,,,26,2022-02-12_13h39.45.501,lexical_decision_task_DD_L4,2021.2.3,iPhone,58.82352941,,,,,,,,,,0.648,1,,,,,,,,,,,,,,,,,,,,,,,0.358163265,-0.314285714,1,0,0,,,,,,,WHEEL,LB,m,y,./images/WHEELLB.png,,,,,,,,,,,,,,,,,,,,,0,0.358163265,-0.314285714,1,0,0,0.648,button_right_test,0,2,2,77,1
,,,,,,,,,,,,,,,,,,26,2022-02-12_13h39.45.501,lexical_decision_task_DD_L4,2021.2.3,iPhone,58.82352941,,,,,,,,,,0.784,1,,,,,,,,,,,,,,,,,,,,,,,0.346938776,-0.319387755,1,0,0,,,,,,,CASINO,HB,m,y,./images/CASINOHB.png,,,,,,,,,,,,,,,,,,,,,0,0.346938776,-0.319387755,1,0,0,0.784,button_right_test,0,3,3,28,1
,,,,,,,,,,,,,,,,,,26,2022-02-12_13h39.45.501,lexical_decision_task_DD_L4,2021.2.3,iPhone,58.82352941,,,,,,,,,,0.898,1,,,,,,,,,,,,,,,,,,,,,,,-0.334693878,-0.353061224,1,0,0,,,,,,,TOMATO,C,z,y,./images/TOMATO.png,,,,,,,,,,,,,,,,,,,,,0,-0.334693878,-0.353061224,1,0,0,0.898,button_left_test,0,4,4,84,1
,,,,,,,,,,,,,,,,,,26,2022-02-12_13h39.45.501,lexical_decision_task_DD_L4,2021.2.3,iPhone,58.82352941,,,,,,,,,,0.852,1,,,,,,,,,,,,,,,,,,,,,,,-0.31122449,-0.324489796,1,0,0,,,,,,,SUNSET,HB,z,y,./images/SUNSETHB.png,,,,,,,,,,,,,,,,,,,,,0,-0.31122449,-0.324489796,1,0,0,0.852,button_left_test,0,5,5,166,1
,,,,,,,,,,,,,,,,,,26,2022-02-12_13h39.45.501,lexical_decision_task_DD_L4,2021.2.3,iPhone,58.82352941,,,,,,,,,,1.12,1,,,,,,,,,,,,,,,,,,,,,,,0.358163265,-0.336734694,1,0,0,,,,,,,TIGER,HB,m,y,./images/TIGERHB.png,,,,,,,,,,,,,,,,,,,,,0,0.358163265,-0.336734694,1,0,0,1.12,button_right_test,0,6,6,37,1
,,,,,,,,,,,,,,,,,,26,2022-02-12_13h39.45.501,lexical_decision_task_DD_L4,2021.2.3,iPhone,58.82352941,,,,,,,,,,0.668,1,,,,,,,,,,,,,,,,,,,,,,,0.368367347,-0.328571429,1,0,0,,,,,,,CLIFF,LB,m,y,./images/CLIFFLB.png,,,,,,,,,,,,,,,,,,,,,0,0.368367347,-0.328571429,1,0,0,0.668,button_right_test,0,7,7,8,1
,,,,,,,,,,,,,,,,,,26,2022-02-12_13h39.45.501,lexical_decision_task_DD_L4,2021.2.3,iPhone,58.82352941,,,,,,,,,,0.785,1,,,,,,,,,,,,,,,,,,,,,,,-0.320408163,-0.333673469,1,0,0,,,,,,,RHINO,C,z,y,./images/RHINO.png,,,,,,,,,,,,,,,,,,,,,0,-0.320408163,-0.333673469,1,0,0,0.785,button_left_test,0,8,8,93,1
,,,,,,,,,,,,,,,,,,26,2022-02-12_13h39.45.501,lexical_decision_task_DD_L4,2021.2.3,iPhone,58.82352941,,,,,,,,,,0.901,1,,,,,,,,,,,,,,,,,,,,,,,0.378571429,-0.387755102,1,0,0,,,,,,,DONKEY,HB,m,y,./images/DONKEYHB.png,,,,,,,,,,,,,,,,,,,,,0,0.378571429,-0.387755102,1,0,0,0.901,button_right_test,0,9,9,19,1
,,,,,,,,,,,,,,,,,,26,2022-02-12_13h39.45.501,lexical_decision_task_DD_L4,2021.2.3,iPhone,58.82352941,,,,,,,,,,0.618,1,,,,,,,,,,,,,,,,,,,,,,,0.364285714,-0.243877551,1,0,0,,,,,,,CANDY,C,m,y,./images/CANDY.png,,,,,,,,,,,,,,,,,,,,,0,0.364285714,-0.243877551,1,0,0,0.618,button_right_test,0,10,10,39,1
,,,,,,,,,,,,,,,,,,26,2022-02-12_13h39.45.501,lexical_decision_task_DD_L4,2021.2.3,iPhone,58.82352941,,,,,,,,,,1.218,1,,,,,,,,,,,,,,,,,,,,,,,0.328571429,-0.35,1,0,0,,,,,,,RULER,HB,m,y,./images/RULERHB.png,,,,,,,,,,,,,,,,,,,,,0,0.328571429,-0.35,1,0,0,1.218,button_right_test,0,11,11,79,1
,,,,,,,,,,,,,,,,,,26,2022-02-12_13h39.45.501,lexical_decision_task_DD_L4,2021.2.3,iPhone,58.82352941,,,,,,,,,,0.687,0,,,,,,,,,,,,,,,,,,,,,,,0.376530612,-0.398979592,1,0,0,,,,,,,PLANK,HB,z,y,./images/PLANKHB.png,,,,,,,,,,,,,,,,,,,,,0,0.376530612,-0.398979592,1,0,0,0.687,button_right_test,0,12,12,85,1
,,,,,,,,,,,,,,,,,,26,2022-02-12_13h39.45.501,lexical_decision_task_DD_L4,2021.2.3,iPhone,58.82352941,,,,,,,,,,0.703,1,,,,,,,,,,,,,,,,,,,,,,,0.379591837,-0.262244898,1,0,0,,,,,,,FENCE,LB,m,y,./images/FENCELB.png,,,,,,,,,,,,,,,,,,,,,0,0.379591837,-0.262244898,1,0,0,0.703,button_right_test,0,13,13,14,1
,,,,,,,,,,,,,,,,,,26,2022-02-12_13h39.45.501,lexical_decision_task_DD_L4,2021.2.3,iPhone,58.82352941,,,,,,,,,,0.885,1,,,,,,,,,,,,,,,,,,,,,,,-0.28877551,-0.318367347,1,0,0,,,,,,,TWINS,C,z,y,./images/TWINS.png,,,,,,,,,,,,,,,,,,,,,0,-0.28877551,-0.318367347,1,0,0,0.885,button_left_test,0,14,14,144,1
,,,,,,,,,,,,,,,,,,26,2022-02-12_13h39.45.501,lexical_decision_task_DD_L4,2021.2.3,iPhone,58.82352941,,,,,,,,,,0.668,1,,,,,,,,,,,,,,,,,,,,,,,0.374489796,-0.305102041,1,0,0,,,,,,,BASKET,LB,m,y,./images/BASKETLB.png,,,,,,,,,,,,,,,,,,,,,0,0.374489796,-0.305102041,1,0,0,0.668,button_right_test,0,15,15,44,1
,,,,,,,,,,,,,,,,,,26,2022-02-12_13h39.45.501,lexical_decision_task_DD_L4,2021.2.3,iPhone,58.82352941,,,,,,,,,,1.049,0,,,,,,,,,,,,,,,,,,,,,,,0.335714286,-0.330612245,1,0,0,,,,,,,MIRROR,C,z,y,./images/MIRROR.png,,,,,,,,,,,,,,,,,,,,,0,0.335714286,-0.330612245,1,0,0,1.049,button_right_test,0,16,16,147,1
,,,,,,,,,,,,,,,,,,26,2022-02-12_13h39.45.501,lexical_decision_task_DD_L4,2021.2.3,iPhone,58.82352941,,,,,,,,,,0.784,1,,,,,,,,,,,,,,,,,,,,,,,-0.298979592,-0.339795918,1,0,0,,,,,,,PIMPLE,LB,z,y,./images/PIMPLELB.png,,,,,,,,,,,,,,,,,,,,,0,-0.298979592,-0.339795918,1,0,0,0.784,button_left_test,0,17,17,155,1
,,,,,,,,,,,,,,,,,,26,2022-02-12_13h39.45.501,lexical_decision_task_DD_L4,2021.2.3,iPhone,58.82352941,,,,,,,,,,0.783,1,,,,,,,,,,,,,,,,,,,,,,,-0.292857143,-0.316326531,1,0,0,,,,,,,FINGER,C,z,y,./images/FINGER.png,,,,,,,,,,,,,,,,,,,,,0,-0.292857143,-0.316326531,1,0,0,0.783,button_left_test,0,18,18,87,1
,,,,,,,,,,,,,,,,,,26,2022-02-12_13h39.45.501,lexical_decision_task_DD_L4,2021.2.3,iPhone,58.82352941,,,,,,,,,,0.935,1,,,,,,,,,,,,,,,,,,,,,,,-0.281632653,-0.302040816,1,0,0,,,,,,,JUNGLE,LB,z,y,./images/JUNGLELB.png,,,,,,,,,,,,,,,,,,,,,0,-0.281632653,-0.302040816,1,0,0,0.935,button_left_test,0,19,19,167,1
,,,,,,,,,,,,,,,,,,26,2022-02-12_13h39.45.501,lexical_decision_task_DD_L4,2021.2.3,iPhone,58.82352941,,,,,,,,,,0.669,0,,,,,,,,,,,,,,,,,,,,,,,0.384693878,-0.339795918,1,0,0,,,,,,,MELON,HB,z,y,./images/MELONHB.png,,,,,,,,,,,,,,,,,,,,,0,0.384693878,-0.339795918,1,0,0,0.669,button_right_test,0,20,20,106,1
,,,,,,,,,,,,,,,,,,26,2022-02-12_13h39.45.501,lexical_decision_task_DD_L4,2021.2.3,iPhone,58.82352941,,,,,,,,,,0.85,1,,,,,,,,,,,,,,,,,,,,,,,-0.286734694,-0.265306122,1,0,0,,,,,,,PENCE,HB,z,y,./images/PENCEHB.png,,,,,,,,,,,,,,,,,,,,,0,-0.286734694,-0.265306122,1,0,0,0.85,button_left_test,0,21,21,100,1
,,,,,,,,,,,,,,,,,,26,2022-02-12_13h39.45.501,lexical_decision_task_DD_L4,2021.2.3,iPhone,58.82352941,,,,,,,,,,0.766,1,,,,,,,,,,,,,,,,,,,,,,,0.376530612,-0.32244898,1,0,0,,,,,,,ARTIST,HB,m,y,./images/ARTISTHB.png,,,,,,,,,,,,,,,,,,,,,0,0.376530612,-0.32244898,1,0,0,0.766,button_right_test,0,22,22,61,1
,,,,,,,,,,,,,,,,,,26,2022-02-12_13h39.45.501,lexical_decision_task_DD_L4,2021.2.3,iPhone,58.82352941,,,,,,,,,,0.736,1,,,,,,,,,,,,,,,,,,,,,,,0.339795918,-0.363265306,1,0,0,,,,,,,STOOL,HB,m,y,./images/STOOLHB.png,,,,,,,,,,,,,,,,,,,,,0,0.339795918,-0.363265306,1,0,0,0.736,button_right_test,0,23,23,43,1
,,,,,,,,,,,,,,,,,,26,2022-02-12_13h39.45.501,lexical_decision_task_DD_L4,2021.2.3,iPhone,58.82352941,,,,,,,,,,1.819,1,,,,,,,,,,,,,,,,,,,,,,,0.293877551,-0.337755102,1,0,0,,,,,,,FLASK,C,m,y,./images/FLASK.png,,,,,,,,,,,,,,,,,,,,,0,0.293877551,-0.337755102,1,0,0,1.819,button_right_test,0,24,24,72,1
,,,,,,,,,,,,,,,,,,26,2022-02-12_13h39.45.501,lexical_decision_task_DD_L4,2021.2.3,iPhone,58.82352941,,,,,,,,,,0.984,1,,,,,,,,,,,,,,,,,,,,,,,0.366326531,-0.319387755,1,0,0,,,,,,,GRAPE,HB,m,y,./images/GRAPEHB.png,,,,,,,,,,,,,,,,,,,,,0,0.36122449,-0.407142857,1,0,0,0.984,button_right_test,0,25,25,16,1
,,,,,,,,,,,,,,,,,,26,2022-02-12_13h39.45.501,lexical_decision_task_DD_L4,2021.2.3,iPhone,58.82352941,,,,,,,,,,0.684,1,,,,,,,,,,,,,,,,,,,,,,,0.351020408,-0.316326531,1,0,0,,,,,,,WALNUT,C,m,y,./images/WALNUT.png,,,,,,,,,,,,,,,,,,,,,0,0.351020408,-0.316326531,1,0,0,0.684,button_right_test,0,26,26,0,1
,,,,,,,,,,,,,,,,,,26,2022-02-12_13h39.45.501,lexical_decision_task_DD_L4,2021.2.3,iPhone,58.82352941,,,,,,,,,,0.835,0,,,,,,,,,,,,,,,,,,,,,,,-0.279591837,-0.274489796,1,0,0,,,,,,,POKER,HB,m,y,./images/POKERHB.png,,,,,,,,,,,,,,,,,,,,,0,-0.279591837,-0.274489796,1,0,0,0.835,button_left_test,0,27,27,67,1
,,,,,,,,,,,,,,,,,,26,2022-02-12_13h39.45.501,lexical_decision_task_DD_L4,2021.2.3,iPhone,58.82352941,,,,,,,,,,0.886,0,,,,,,,,,,,,,,,,,,,,,,,-0.269387755,-0.323469388,1,0,0,,,,,,,SAUCE,C,m,y,./images/SAUCE.png,,,,,,,,,,,,,,,,,,,,,0,-0.269387755,-0.323469388,1,0,0,0.886,button_left_test,0,28,28,51,1
,,,,,,,,,,,,,,,,,,26,2022-02-12_13h39.45.501,lexical_decision_task_DD_L4,2021.2.3,iPhone,58.82352941,,,,,,,,,,0.684,1,,,,,,,,,,,,,,,,,,,,,,,0.440816327,-0.297959184,1,0,0,,,,,,,MAMMAL,LB,m,y,./images/MAMMALLB.png,,,,,,,,,,,,,,,,,,,,,0,0.440816327,-0.297959184,1,0,0,0.684,button_right_test,0,29,29,62,1
,,,,,,,,,,,,,,,,,,26,2022-02-12_13h39.45.501,lexical_decision_task_DD_L4,2021.2.3,iPhone,58.82352941,,,,,,,,,,0.835,1,,,,,,,,,,,,,,,,,,,,,,,-0.269387755,-0.283673469,1,0,0,,,,,,,FARMER,LB,z,y,./images/FARMERLB.png,,,,,,,,,,,,,,,,,,,,,0,-0.269387755,-0.283673469,1,0,0,0.835,button_left_test,0,30,30,149,1
,,,,,,,,,,,,,,,,,,26,2022-02-12_13h39.45.501,lexical_decision_task_DD_L4,2021.2.3,iPhone,58.82352941,,,,,,,,,,0.918,0,,,,,,,,,,,,,,,,,,,,,,,-0.345918367,-0.31122449,1,0,0,,,,,,,ENGINE,LB,m,y,./images/ENGINELB.png,,,,,,,,,,,,,,,,,,,,,0,-0.345918367,-0.31122449,1,0,0,0.918,button_left_test,0,31,31,38,1
,,,,,,,,,,,,,,,,,,26,2022-02-12_13h39.45.501,lexical_decision_task_DD_L4,2021.2.3,iPhone,58.82352941,,,,,,,,,,0.801,1,,,,,,,,,,,,,,,,,,,,,,,-0.280612245,-0.284693878,1,0,0,,,,,,,CEMENT,LB,z,y,./images/CEMENTLB.png,,,,,,,,,,,,,,,,,,,,,0,-0.280612245,-0.284693878,1,0,0,0.801,button_left_test,0,32,32,158,1
,,,,,,,,,,,,,,,,,,26,2022-02-12_13h39.45.501,lexical_decision_task_DD_L4,2021.2.3,iPhone,58.82352941,,,,,,,,,,0.768,0,,,,,,,,,,,,,,,,,,,,,,,0.370408163,-0.383673469,1,0,0,,,,,,,SAILOR,HB,z,y,./images/SAILORHB.png,,,,,,,,,,,,,,,,,,,,,0,0.370408163,-0.383673469,1,0,0,0.768,button_right_test,0,33,33,151,1
,,,,,,,,,,,,,,,,,,26,2022-02-12_13h39.45.501,lexical_decision_task_DD_L4,2021.2.3,iPhone,58.82352941,,,,,,,,,,0.819,0,,,,,,,,,,,,,,,,,,,,,,,0.332653061,-0.341836735,1,0,0,,,,,,,DOUGH,HB,z,y,./images/DOUGHHB.png,,,,,,,,,,,,,,,,,,,,,0,0.332653061,-0.341836735,1,0,0,0.819,button_right_test,0,34,34,103,1
,,,,,,,,,,,,,,,,,,26,2022-02-12_13h39.45.501,lexical_decision_task_DD_L4,2021.2.3,iPhone,58.82352941,,,,,,,,,,0.732,0,,,,,,,,,,,,,,,,,,,,,,,0.339795918,-0.293877551,1,0,0,,,,,,,MOOSE,C,z,y,./images/MOOSE.png,,,,,,,,,,,,,,,,,,,,,0,0.339795918,-0.293877551,1,0,0,0.732,button_right_test,0,35,35,141,1
,,,,,,,,,,,,,,,,,,26,2022-02-12_13h39.45.501,lexical_decision_task_DD_L4,2021.2.3,iPhone,58.82352941,,,,,,,,,,0.719,1,,,,,,,,,,,,,,,,,,,,,,,0.379591837,-0.367346939,1,0,0,,,,,,,MUMMY,HB,m,y,./images/MUMMYHB.png,,,,,,,,,,,,,,,,,,,,,0,0.379591837,-0.367346939,1,0,0,0.719,button_right_test,0,36,36,46,1
,,,,,,,,,,,,,,,,,,26,2022-02-12_13h39.45.501,lexical_decision_task_DD_L4,2021.2.3,iPhone,58.82352941,,,,,,,,,,0.75,1,,,,,,,,,,,,,,,,,,,,,,,0.348979592,-0.323469388,1,0,0,,,,,,,VALLEY,LB,m,y,./images/VALLEYLB.png,,,,,,,,,,,,,,,,,,,,,0,0.348979592,-0.323469388,1,0,0,0.75,button_right_test,0,37,37,68,1
,,,,,,,,,,,,,,,,,,26,2022-02-12_13h39.45.501,lexical_decision_task_DD_L4,2021.2.3,iPhone,58.82352941,,,,,,,,,,0.885,0,,,,,,,,,,,,,,,,,,,,,,,0.329591837,-0.355102041,1,0,0,,,,,,,SMOKER,LB,z,y,./images/SMOKERLB.png,,,,,,,,,,,,,,,,,,,,,0,0.329591837,-0.355102041,1,0,0,0.885,button_right_test,0,38,38,110,1
,,,,,,,,,,,,,,,,,,26,2022-02-12_13h39.45.501,lexical_decision_task_DD_L4,2021.2.3,iPhone,58.82352941,,,,,,,,,,1.201,1,,,,,,,,,,,,,,,,,,,,,,,0.353061224,-0.323469388,1,0,0,,,,,,,SNAKE,HB,m,y,./images/SNAKEHB.png,,,,,,,,,,,,,,,,,,,,,0,0.353061224,-0.323469388,1,0,0,1.201,button_right_test,0,39,39,40,1
,,,,,,,,,,,,,,,,,,26,2022-02-12_13h39.45.501,lexical_decision_task_DD_L4,2021.2.3,iPhone,58.82352941,,,,,,,,,,0.783,0,,,,,,,,,,,,,,,,,,,,,,,0.371428571,-0.291836735,1,0,0,,,,,,,SPORT,C,z,y,./images/SPORT.png,,,,,,,,,,,,,,,,,,,,,0,0.371428571,-0.291836735,1,0,0,0.783,button_right_test,0,40,40,132,1
,,,,,,,,,,,,,,,,,,26,2022-02-12_13h39.45.501,lexical_decision_task_DD_L4,2021.2.3,iPhone,58.82352941,,,,,,,,,,0.952,1,,,,,,,,,,,,,,,,,,,,,,,0.096938776,-0.368367347,1,0,0,,,,,,,CLOTH,LB,m,y,./images/CLOTHLB.png,break_done_button,,,,,,,,,,,,,,,,,,,,0,0.316326531,-0.31122449,1,0,0,0.952,button_right_test,0,41,41,23,1
,,,,,,,,,,,,,,,,,,26,2022-02-12_13h39.45.501,lexical_decision_task_DD_L4,2021.2.3,iPhone,58.82352941,,,,,,,,,,1.004,1,,,,,,,,,,,,,,,,,,,,,,,0.37244898,-0.381632653,1,0,0,,,,,,,GRANNY,LB,m,y,./images/GRANNYLB.png,,,,,,,,,,,,,,,,,,,,,0,0.37244898,-0.381632653,1,0,0,1.004,button_right_test,0,42,42,20,1
,,,,,,,,,,,,,,,,,,26,2022-02-12_13h39.45.501,lexical_decision_task_DD_L4,2021.2.3,iPhone,58.82352941,,,,,,,,,,0.631,0,,,,,,,,,,,,,,,,,,,,,,,0.385714286,-0.347959184,1,0,0,,,,,,,LADDER,LB,z,y,./images/LADDERLB.png,,,,,,,,,,,,,,,,,,,,,0,0.385714286,-0.347959184,1,0,0,0.631,button_right_test,0,43,43,122,1
,,,,,,,,,,,,,,,,,,26,2022-02-12_13h39.45.501,lexical_decision_task_DD_L4,2021.2.3,iPhone,58.82352941,,,,,,,,,,0.667,0,,,,,,,,,,,,,,,,,,,,,,,-0.360204082,-0.305102041,1,0,0,,,,,,,POSTER,LB,m,y,./images/POSTERLB.png,,,,,,,,,,,,,,,,,,,,,0,-0.360204082,-0.305102041,1,0,0,0.667,button_left_test,0,44,44,53,1
,,,,,,,,,,,,,,,,,,26,2022-02-12_13h39.45.501,lexical_decision_task_DD_L4,2021.2.3,iPhone,58.82352941,,,,,,,,,,0.619,1,,,,,,,,,,,,,,,,,,,,,,,0.393877551,-0.336734694,1,0,0,,,,,,,PISTOL,LB,m,y,./images/PISTOLLB.png,,,,,,,,,,,,,,,,,,,,,0,0.393877551,-0.336734694,1,0,0,0.619,button_right_test,0,45,45,29,1
,,,,,,,,,,,,,,,,,,26,2022-02-12_13h39.45.501,lexical_decision_task_DD_L4,2021.2.3,iPhone,58.82352941,,,,,,,,,,0.684,1,,,,,,,,,,,,,,,,,,,,,,,-0.360204082,-0.28877551,1,0,0,,,,,,,CRADLE,LB,z,y,./images/CRADLELB.png,,,,,,,,,,,,,,,,,,,,,0,-0.360204082,-0.28877551,1,0,0,0.684,button_left_test,0,46,46,104,1
,,,,,,,,,,,,,,,,,,26,2022-02-12_13h39.45.501,lexical_decision_task_DD_L4,2021.2.3,iPhone,58.82352941,,,,,,,,,,0.52,1,,,,,,,,,,,,,,,,,,,,,,,0.378571429,-0.331632653,1,0,0,,,,,,,HOCKEY,LB,m,y,./images/HOCKEYLB.png,,,,,,,,,,,,,,,,,,,,,0,0.378571429,-0.331632653,1,0,0,0.52,button_right_test,0,47,47,32,1
,,,,,,,,,,,,,,,,,,26,2022-02-12_13h39.45.501,lexical_decision_task_DD_L4,2021.2.3,iPhone,58.82352941,,,,,,,,,,0.667,1,,,,,,,,,,,,,,,,,,,,,,,-0.363265306,-0.274489796,1,0,0,,,,,,,GRAIN,C,z,y,./images/GRAIN.png,,,,,,,,,,,,,,,,,,,,,0,-0.363265306,-0.274489796,1,0,0,0.667,button_left_test,0,48,48,159,1
,,,,,,,,,,,,,,,,,,26,2022-02-12_13h39.45.501,lexical_decision_task_DD_L4,2021.2.3,iPhone,58.82352941,,,,,,,,,,0.619,1,,,,,,,,,,,,,,,,,,,,,,,-0.373469388,-0.281632653,1,0,0,,,,,,,PEARL,HB,z,y,./images/PEARLHB.png,,,,,,,,,,,,,,,,,,,,,0,-0.373469388,-0.281632653,1,0,0,0.619,button_left_test,0,49,49,130,1
,,,,,,,,,,,,,,,,,,26,2022-02-12_13h39.45.501,lexical_decision_task_DD_L4,2021.2.3,iPhone,58.82352941,,,,,,,,,,1.051,1,,,,,,,,,,,,,,,,,,,,,,,-0.368367347,-0.281632653,1,0,0,,,,,,,NOOSE,C,z,y,./images/NOOSE.png,,,,,,,,,,,,,,,,,,,,,0,-0.368367347,-0.281632653,1,0,0,1.051,button_left_test,0,50,50,156,1
,,,,,,,,,,,,,,,,,,26,2022-02-12_13h39.45.501,lexical_decision_task_DD_L4,2021.2.3,iPhone,58.82352941,,,,,,,,,,0.853,1,,,,,,,,,,,,,,,,,,,,,,,-0.368367347,-0.28877551,1,0,0,,,,,,,CRUST,HB,z,y,./images/CRUSTHB.png,,,,,,,,,,,,,,,,,,,,,0,-0.368367347,-0.28877551,1,0,0,0.853,button_left_test,0,51,51,163,1
,,,,,,,,,,,,,,,,,,26,2022-02-12_13h39.45.501,lexical_decision_task_DD_L4,2021.2.3,iPhone,58.82352941,,,,,,,,,,0.703,1,,,,,,,,,,,,,,,,,,,,,,,0.395918367,-0.331632653,1,0,0,,,,,,,BAMBOO,LB,m,y,./images/BAMBOOLB.png,,,,,,,,,,,,,,,,,,,,,0,0.395918367,-0.331632653,1,0,0,0.703,button_right_test,0,52,52,5,1
,,,,,,,,,,,,,,,,,,26,2022-02-12_13h39.45.501,lexical_decision_task_DD_L4,2021.2.3,iPhone,58.82352941,,,,,,,,,,0.785,1,,,,,,,,,,,,,,,,,,,,,,,0.451020408,-0.320408163,1,0,0,,,,,,,BAKER,C,m,y,./images/BAKER.png,,,,,,,,,,,,,,,,,,,,,0,0.451020408,-0.320408163,1,0,0,0.785,button_right_test,0,53,53,63,1
,,,,,,,,,,,,,,,,,,26,2022-02-12_13h39.45.501,lexical_decision_task_DD_L4,2021.2.3,iPhone,58.82352941,,,,,,,,,,0.73,1,,,,,,,,,,,,,,,,,,,,,,,-0.354081633,-0.301020408,1,0,0,,,,,,,SKIING,LB,z,y,./images/SKIINGLB.png,,,,,,,,,,,,,,,,,,,,,0,-0.354081633,-0.301020408,1,0,0,0.73,button_left_test,0,54,54,101,1
,,,,,,,,,,,,,,,,,,26,2022-02-12_13h39.45.501,lexical_decision_task_DD_L4,2021.2.3,iPhone,58.82352941,,,,,,,,,,0.718,0,,,,,,,,,,,,,,,,,,,,,,,0.451020408,-0.336734694,1,0,0,,,,,,,SWEAT,C,z,y,./images/SWEAT.png,,,,,,,,,,,,,,,,,,,,,0,0.451020408,-0.336734694,1,0,0,0.718,button_right_test,0,55,55,150,1
,,,,,,,,,,,,,,,,,,26,2022-02-12_13h39.45.501,lexical_decision_task_DD_L4,2021.2.3,iPhone,58.82352941,,,,,,,,,,0.852,1,,,,,,,,,,,,,,,,,,,,,,,-0.394897959,-0.305102041,1,0,0,,,,,,,STRING,LB,z,y,./images/STRINGLB.png,,,,,,,,,,,,,,,,,,,,,0,-0.394897959,-0.305102041,1,0,0,0.852,button_left_test,0,56,56,125,1
,,,,,,,,,,,,,,,,,,26,2022-02-12_13h39.45.501,lexical_decision_task_DD_L4,2021.2.3,iPhone,58.82352941,,,,,,,,,,0.669,0,,,,,,,,,,,,,,,,,,,,,,,-0.381632653,-0.292857143,1,0,0,,,,,,,BRIDE,HB,m,y,./images/BRIDEHB.png,,,,,,,,,,,,,,,,,,,,,0,-0.381632653,-0.292857143,1,0,0,0.669,button_left_test,0,57,57,64,1
,,,,,,,,,,,,,,,,,,26,2022-02-12_13h39.45.501,lexical_decision_task_DD_L4,2021.2.3,iPhone,58.82352941,,,,,,,,,,0.651,1,,,,,,,,,,,,,,,,,,,,,,,0.433673469,-0.333673469,1,0,0,,,,,,,WHISKY,LB,m,y,./images/WHISKYLB.png,,,,,,,,,,,,,,,,,,,,,0,0.433673469,-0.333673469,1,0,0,0.651,button_right_test,0,58,58,83,1
,,,,,,,,,,,,,,,,,,26,2022-02-12_13h39.45.501,lexical_decision_task_DD_L4,2021.2.3,iPhone,58.82352941,,,,,,,,,,0.87,1,,,,,,,,,,,,,,,,,,,,,,,0.45,-0.332653061,1,0,0,,,,,,,JUMPER,LB,m,y,./images/JUMPERLB.png,,,,,,,,,,,,,,,,,,,,,0,0.45,-0.332653061,1,0,0,0.87,button_right_test,0,59,59,74,1
,,,,,,,,,,,,,,,,,,26,2022-02-12_13h39.45.501,lexical_decision_task_DD_L4,2021.2.3,iPhone,58.82352941,,,,,,,,,,0.635,1,,,,,,,,,,,,,,,,,,,,,,,0.420408163,-0.335714286,1,0,0,,,,,,,BUBBLE,LB,m,y,./images/BUBBLELB.png,,,,,,,,,,,,,,,,,,,,,0,0.420408163,-0.335714286,1,0,0,0.635,button_right_test,0,60,60,71,1
,,,,,,,,,,,,,,,,,,26,2022-02-12_13h39.45.501,lexical_decision_task_DD_L4,2021.2.3,iPhone,58.82352941,,,,,,,,,,0.734,1,,,,,,,,,,,,,,,,,,,,,,,-0.355102041,-0.265306122,1,0,0,,,,,,,SHORE,C,z,y,./images/SHORE.png,,,,,,,,,,,,,,,,,,,,,0,-0.355102041,-0.265306122,1,0,0,0.734,button_left_test,0,61,61,96,1
,,,,,,,,,,,,,,,,,,26,2022-02-12_13h39.45.501,lexical_decision_task_DD_L4,2021.2.3,iPhone,58.82352941,,,,,,,,,,3.101,0,,,,,,,,,,,,,,,,,,,,,,,-0.379591837,-0.318367347,1,0,0,,,,,,,DIVER,C,m,y,./images/DIVER.png,,,,,,,,,,,,,,,,,,,,,0,-0.379591837,-0.318367347,1,0,0,3.101,button_left_test,0,62,62,9,1
,,,,,,,,,,,,,,,,,,26,2022-02-12_13h39.45.501,lexical_decision_task_DD_L4,2021.2.3,iPhone,58.82352941,,,,,,,,,,0.719,1,,,,,,,,,,,,,,,,,,,,,,,0.424489796,-0.35,1,0,0,,,,,,,WAGON,HB,m,y,./images/WAGONHB.png,,,,,,,,,,,,,,,,,,,,,0,0.424489796,-0.35,1,0,0,0.719,button_right_test,0,63,63,7,1
,,,,,,,,,,,,,,,,,,26,2022-02-12_13h39.45.501,lexical_decision_task_DD_L4,2021.2.3,iPhone,58.82352941,,,,,,,,,,0.768,1,,,,,,,,,,,,,,,,,,,,,,,-0.380612245,-0.301020408,1,0,0,,,,,,,TULIP,LB,z,y,./images/TULIPLB.png,,,,,,,,,,,,,,,,,,,,,0,-0.380612245,-0.301020408,1,0,0,0.768,button_left_test,0,64,64,92,1
,,,,,,,,,,,,,,,,,,26,2022-02-12_13h39.45.501,lexical_decision_task_DD_L4,2021.2.3,iPhone,58.82352941,,,,,,,,,,1.168,0,,,,,,,,,,,,,,,,,,,,,,,0.343877551,-0.362244898,1,0,0,,,,,,,MUSCLE,HB,z,y,./images/MUSCLEHB.png,,,,,,,,,,,,,,,,,,,,,0,0.343877551,-0.362244898,1,0,0,1.168,button_right_test,0,65,65,88,1
,,,,,,,,,,,,,,,,,,26,2022-02-12_13h39.45.501,lexical_decision_task_DD_L4,2021.2.3,iPhone,58.82352941,,,,,,,,,,1.199,1,,,,,,,,,,,,,,,,,,,,,,,-0.354081633,-0.287755102,1,0,0,,,,,,,GREASE,C,z,y,./images/GREASE.png,,,,,,,,,,,,,,,,,,,,,0,-0.354081633,-0.287755102,1,0,0,1.199,button_left_test,0,66,66,99,1
,,,,,,,,,,,,,,,,,,26,2022-02-12_13h39.45.501,lexical_decision_task_DD_L4,2021.2.3,iPhone,58.82352941,,,,,,,,,,1.05,1,,,,,,,,,,,,,,,,,,,,,,,-0.351020408,-0.315306122,1,0,0,,,,,,,THROAT,C,z,y,./images/THROAT.png,,,,,,,,,,,,,,,,,,,,,0,-0.351020408,-0.315306122,1,0,0,1.05,button_left_test,0,67,67,120,1
,,,,,,,,,,,,,,,,,,26,2022-02-12_13h39.45.501,lexical_decision_task_DD_L4,2021.2.3,iPhone,58.82352941,,,,,,,,,,1.237,1,,,,,,,,,,,,,,,,,,,,,,,-0.348979592,-0.295918367,1,0,0,,,,,,,TORCH,LB,z,y,./images/TORCHLB.png,,,,,,,,,,,,,,,,,,,,,0,-0.348979592,-0.295918367,1,0,0,1.237,button_left_test,0,68,68,152,1
,,,,,,,,,,,,,,,,,,26,2022-02-12_13h39.45.501,lexical_decision_task_DD_L4,2021.2.3,iPhone,58.82352941,,,,,,,,,,0.718,1,,,,,,,,,,,,,,,,,,,,,,,-0.352040816,-0.271428571,1,0,0,,,,,,,BELLY,HB,z,y,./images/BELLYHB.png,,,,,,,,,,,,,,,,,,,,,0,-0.352040816,-0.271428571,1,0,0,0.718,button_left_test,0,69,69,94,1
,,,,,,,,,,,,,,,,,,26,2022-02-12_13h39.45.501,lexical_decision_task_DD_L4,2021.2.3,iPhone,58.82352941,,,,,,,,,,0.653,1,,,,,,,,,,,,,,,,,,,,,,,0.401020408,-0.340816327,1,0,0,,,,,,,BUTTER,C,m,y,./images/BUTTER.png,,,,,,,,,,,,,,,,,,,,,0,0.401020408,-0.340816327,1,0,0,0.653,button_right_test,0,70,70,27,1
,,,,,,,,,,,,,,,,,,26,2022-02-12_13h39.45.501,lexical_decision_task_DD_L4,2021.2.3,iPhone,58.82352941,,,,,,,,,,0.599,0,,,,,,,,,,,,,,,,,,,,,,,-0.355102041,-0.298979592,1,0,0,,,,,,,ARROW,C,m,y,./images/ARROW.png,,,,,,,,,,,,,,,,,,,,,0,-0.355102041,-0.298979592,1,0,0,0.599,button_left_test,0,71,71,69,1
,,,,,,,,,,,,,,,,,,26,2022-02-12_13h39.45.501,lexical_decision_task_DD_L4,2021.2.3,iPhone,58.82352941,,,,,,,,,,0.801,1,,,,,,,,,,,,,,,,,,,,,,,-0.331632653,-0.315306122,1,0,0,,,,,,,KIDNEY,C,z,y,./images/KIDNEY.png,,,,,,,,,,,,,,,,,,,,,0,-0.331632653,-0.315306122,1,0,0,0.801,button_left_test,0,72,72,105,1
,,,,,,,,,,,,,,,,,,26,2022-02-12_13h39.45.501,lexical_decision_task_DD_L4,2021.2.3,iPhone,58.82352941,,,,,,,,,,2.819,1,,,,,,,,,,,,,,,,,,,,,,,-0.331632653,-0.335714286,1,0,0,,,,,,,ONION,C,z,y,./images/ONION.png,,,,,,,,,,,,,,,,,,,,,0,-0.331632653,-0.335714286,1,0,0,2.819,button_left_test,0,73,73,135,1
,,,,,,,,,,,,,,,,,,26,2022-02-12_13h39.45.501,lexical_decision_task_DD_L4,2021.2.3,iPhone,58.82352941,,,,,,,,,,0.583,1,,,,,,,,,,,,,,,,,,,,,,,-0.337755102,-0.323469388,1,0,0,,,,,,,QUILL,HB,z,y,./images/QUILLHB.png,,,,,,,,,,,,,,,,,,,,,0,-0.337755102,-0.323469388,1,0,0,0.583,button_left_test,0,74,74,115,1
,,,,,,,,,,,,,,,,,,26,2022-02-12_13h39.45.501,lexical_decision_task_DD_L4,2021.2.3,iPhone,58.82352941,,,,,,,,,,0.768,0,,,,,,,,,,,,,,,,,,,,,,,-0.264285714,-0.278571429,1,0,0,,,,,,,PARCEL,C,m,y,./images/PARCEL.png,,,,,,,,,,,,,,,,,,,,,0,-0.264285714,-0.278571429,1,0,0,0.768,button_left_test,0,75,75,18,1
,,,,,,,,,,,,,,,,,,26,2022-02-12_13h39.45.501,lexical_decision_task_DD_L4,2021.2.3,iPhone,58.82352941,,,,,,,,,,0.652,0,,,,,,,,,,,,,,,,,,,,,,,0.358163265,-0.348979592,1,0,0,,,,,,,CANYON,HB,z,y,./images/CANYONHB.png,,,,,,,,,,,,,,,,,,,,,0,0.358163265,-0.348979592,1,0,0,0.652,button_right_test,0,76,76,118,1
,,,,,,,,,,,,,,,,,,26,2022-02-12_13h39.45.501,lexical_decision_task_DD_L4,2021.2.3,iPhone,58.82352941,,,,,,,,,,0.702,1,,,,,,,,,,,,,,,,,,,,,,,-0.333673469,-0.324489796,1,0,0,,,,,,,BERRY,LB,z,y,./images/BERRYLB.png,,,,,,,,,,,,,,,,,,,,,0,-0.333673469,-0.324489796,1,0,0,0.702,button_left_test,0,77,77,131,1
,,,,,,,,,,,,,,,,,,26,2022-02-12_13h39.45.501,lexical_decision_task_DD_L4,2021.2.3,iPhone,58.82352941,,,,,,,,,,0.734,0,,,,,,,,,,,,,,,,,,,,,,,0.345918367,-0.348979592,1,0,0,,,,,,,SWING,HB,z,y,./images/SWINGHB.png,,,,,,,,,,,,,,,,,,,,,0,0.345918367,-0.348979592,1,0,0,0.734,button_right_test,0,78,78,124,1
,,,,,,,,,,,,,,,,,,26,2022-02-12_13h39.45.501,lexical_decision_task_DD_L4,2021.2.3,iPhone,58.82352941,,,,,,,,,,0.567,1,,,,,,,,,,,,,,,,,,,,,,,-0.320408163,-0.313265306,1,0,0,,,,,,,FALCON,HB,z,y,./images/FALCONHB.png,,,,,,,,,,,,,,,,,,,,,0,-0.320408163,-0.313265306,1,0,0,0.567,button_left_test,0,79,79,112,1
,,,,,,,,,,,,,,,,,,26,2022-02-12_13h39.45.501,lexical_decision_task_DD_L4,2021.2.3,iPhone,58.82352941,,,,,,,,,,0.635,0,,,,,,,,,,,,,,,,,,,,,,,-0.314285714,-0.319387755,1,0,0,,,,,,,BOXER,HB,m,y,./images/BOXERHB.png,,,,,,,,,,,,,,,,,,,,,0,-0.314285714,-0.319387755,1,0,0,0.635,button_left_test,0,80,80,4,1
,,,,,,,,,,,,,,,,,,26,2022-02-12_13h39.45.501,lexical_decision_task_DD_L4,2021.2.3,iPhone,58.82352941,,,,,,,,,,0.584,1,,,,,,,,,,,,,,,,,,,,,,,0.344897959,-0.351020408,1,0,0,,,,,,,LLAMA,LB,m,y,./images/LLAMALB.png,,,,,,,,,,,,,,,,,,,,,0,0.344897959,-0.351020408,1,0,0,0.584,button_right_test,0,81,81,35,1
,,,,,,,,,,,,,,,,,,26,2022-02-12_13h39.45.501,lexical_decision_task_DD_L4,2021.2.3,iPhone,58.82352941,,,,,,,,,,0.684,1,,,,,,,,,,,,,,,,,,,,,,,0.35,-0.357142857,1,0,0,,,,,,,GLOVE,HB,m,y,./images/GLOVEHB.png,,,,,,,,,,,,,,,,,,,,,0,0.35,-0.357142857,1,0,0,0.684,button_right_test,0,82,82,73,1
,,,,,,,,,,,,,,,,,,26,2022-02-12_13h39.45.501,lexical_decision_task_DD_L4,2021.2.3,iPhone,58.82352941,,,,,,,,,,0.617,0,,,,,,,,,,,,,,,,,,,,,,,0.137755102,-0.436734694,1,0,0,,,,,,,BRUSH,LB,m,y,./images/BRUSHLB.png,break_done_button,,,,,,,,,,,,,,,,,,,,0,-0.315306122,-0.31122449,1,0,0,0.617,button_left_test,0,83,83,59,1
,,,,,,,,,,,,,,,,,,26,2022-02-12_13h39.45.501,lexical_decision_task_DD_L4,2021.2.3,iPhone,58.82352941,,,,,,,,,,0.703,1,,,,,,,,,,,,,,,,,,,,,,,0.335714286,-0.363265306,1,0,0,,,,,,,SAUNA,C,m,y,./images/SAUNA.png,,,,,,,,,,,,,,,,,,,,,0,0.335714286,-0.363265306,1,0,0,0.703,button_right_test,0,84,84,33,1
,,,,,,,,,,,,,,,,,,26,2022-02-12_13h39.45.501,lexical_decision_task_DD_L4,2021.2.3,iPhone,58.82352941,,,,,,,,,,0.65,1,,,,,,,,,,,,,,,,,,,,,,,-0.337755102,-0.297959184,1,0,0,,,,,,,LIZARD,LB,z,y,./images/LIZARDLB.png,,,,,,,,,,,,,,,,,,,,,0,-0.337755102,-0.297959184,1,0,0,0.65,button_left_test,0,85,85,128,1
,,,,,,,,,,,,,,,,,,26,2022-02-12_13h39.45.501,lexical_decision_task_DD_L4,2021.2.3,iPhone,58.82352941,,,,,,,,,,0.597,1,,,,,,,,,,,,,,,,,,,,,,,-0.331632653,-0.306122449,1,0,0,,,,,,,PASTA,LB,z,y,./images/PASTALB.png,,,,,,,,,,,,,,,,,,,,,0,-0.331632653,-0.306122449,1,0,0,0.597,button_left_test,0,86,86,89,1
,,,,,,,,,,,,,,,,,,26,2022-02-12_13h39.45.501,lexical_decision_task_DD_L4,2021.2.3,iPhone,58.82352941,,,,,,,,,,0.751,1,,,,,,,,,,,,,,,,,,,,,,,-0.32755102,-0.31122449,1,0,0,,,,,,,PURSE,LB,z,y,./images/PURSELB.png,,,,,,,,,,,,,,,,,,,,,0,-0.32755102,-0.31122449,1,0,0,0.751,button_left_test,0,87,87,146,1
,,,,,,,,,,,,,,,,,,26,2022-02-12_13h39.45.501,lexical_decision_task_DD_L4,2021.2.3,iPhone,58.82352941,,,,,,,,,,0.985,1,,,,,,,,,,,,,,,,,,,,,,,-0.328571429,-0.297959184,1,0,0,,,,,,,JELLY,HB,z,y,./images/JELLYHB.png,,,,,,,,,,,,,,,,,,,,,0,-0.328571429,-0.297959184,1,0,0,0.985,button_left_test,0,88,88,148,1
,,,,,,,,,,,,,,,,,,26,2022-02-12_13h39.45.501,lexical_decision_task_DD_L4,2021.2.3,iPhone,58.82352941,,,,,,,,,,0.986,0,,,,,,,,,,,,,,,,,,,,,,,0.335714286,-0.358163265,1,0,0,,,,,,,SHELF,C,z,y,./images/SHELF.png,,,,,,,,,,,,,,,,,,,,,0,0.335714286,-0.358163265,1,0,0,0.986,button_right_test,0,89,89,123,1
,,,,,,,,,,,,,,,,,,26,2022-02-12_13h39.45.501,lexical_decision_task_DD_L4,2021.2.3,iPhone,58.82352941,,,,,,,,,,0.785,0,,,,,,,,,,,,,,,,,,,,,,,0.329591837,-0.36122449,1,0,0,,,,,,,COUCH,LB,z,y,./images/COUCHLB.png,,,,,,,,,,,,,,,,,,,,,0,0.329591837,-0.36122449,1,0,0,0.785,button_right_test,0,90,90,161,1
,,,,,,,,,,,,,,,,,,26,2022-02-12_13h39.45.501,lexical_decision_task_DD_L4,2021.2.3,iPhone,58.82352941,,,,,,,,,,0.635,1,,,,,,,,,,,,,,,,,,,,,,,-0.320408163,-0.314285714,1,0,0,,,,,,,SCREW,C,z,y,./images/SCREW.png,,,,,,,,,,,,,,,,,,,,,0,-0.320408163,-0.314285714,1,0,0,0.635,button_left_test,0,91,91,108,1
,,,,,,,,,,,,,,,,,,26,2022-02-12_13h39.45.501,lexical_decision_task_DD_L4,2021.2.3,iPhone,58.82352941,,,,,,,,,,0.584,1,,,,,,,,,,,,,,,,,,,,,,,0.326530612,-0.36122449,1,0,0,,,,,,,PILOT,LB,m,y,./images/PILOTLB.png,,,,,,,,,,,,,,,,,,,,,0,0.326530612,-0.36122449,1,0,0,0.584,button_right_test,0,92,92,50,1
,,,,,,,,,,,,,,,,,,26,2022-02-12_13h39.45.501,lexical_decision_task_DD_L4,2021.2.3,iPhone,58.82352941,,,,,,,,,,1.119,1,,,,,,,,,,,,,,,,,,,,,,,-0.316326531,-0.316326531,1,0,0,,,,,,,BEARD,LB,z,y,./images/BEARDLB.png,,,,,,,,,,,,,,,,,,,,,0,-0.316326531,-0.316326531,1,0,0,1.119,button_left_test,0,93,93,86,1
,,,,,,,,,,,,,,,,,,26,2022-02-12_13h39.45.501,lexical_decision_task_DD_L4,2021.2.3,iPhone,58.82352941,,,,,,,,,,0.534,1,,,,,,,,,,,,,,,,,,,,,,,0.328571429,-0.358163265,1,0,0,,,,,,,CHERRY,C,m,y,./images/CHERRY.png,,,,,,,,,,,,,,,,,,,,,0,0.328571429,-0.358163265,1,0,0,0.534,button_right_test,0,94,94,54,1
,,,,,,,,,,,,,,,,,,26,2022-02-12_13h39.45.501,lexical_decision_task_DD_L4,2021.2.3,iPhone,58.82352941,,,,,,,,,,0.635,1,,,,,,,,,,,,,,,,,,,,,,,0.319387755,-0.362244898,1,0,0,,,,,,,DESERT,HB,m,y,./images/DESERTHB.png,,,,,,,,,,,,,,,,,,,,,0,0.319387755,-0.362244898,1,0,0,0.635,button_right_test,0,95,95,52,1
,,,,,,,,,,,,,,,,,,26,2022-02-12_13h39.45.501,lexical_decision_task_DD_L4,2021.2.3,iPhone,58.82352941,,,,,,,,,,0.767,1,,,,,,,,,,,,,,,,,,,,,,,-0.314285714,-0.318367347,1,0,0,,,,,,,SNACK,HB,z,y,./images/SNACKHB.png,,,,,,,,,,,,,,,,,,,,,0,-0.314285714,-0.318367347,1,0,0,0.767,button_left_test,0,96,96,157,1
,,,,,,,,,,,,,,,,,,26,2022-02-12_13h39.45.501,lexical_decision_task_DD_L4,2021.2.3,iPhone,58.82352941,,,,,,,,,,0.651,0,,,,,,,,,,,,,,,,,,,,,,,0.320408163,-0.366326531,1,0,0,,,,,,,MALLET,LB,z,y,./images/MALLETLB.png,,,,,,,,,,,,,,,,,,,,,0,0.320408163,-0.366326531,1,0,0,0.651,button_right_test,0,97,97,134,1
,,,,,,,,,,,,,,,,,,26,2022-02-12_13h39.45.501,lexical_decision_task_DD_L4,2021.2.3,iPhone,58.82352941,,,,,,,,,,0.551,1,,,,,,,,,,,,,,,,,,,,,,,0.320408163,-0.366326531,1,0,0,,,,,,,CANOE,HB,m,y,./images/CANOEHB.png,,,,,,,,,,,,,,,,,,,,,0,0.320408163,-0.366326531,1,0,0,0.551,button_right_test,0,98,98,58,1
,,,,,,,,,,,,,,,,,,26,2022-02-12_13h39.45.501,lexical_decision_task_DD_L4,2021.2.3,iPhone,58.82352941,,,,,,,,,,0.568,0,,,,,,,,,,,,,,,,,,,,,,,0.318367347,-0.371428571,1,0,0,,,,,,,WRIST,HB,z,y,./images/WRISTHB.png,,,,,,,,,,,,,,,,,,,,,0,0.318367347,-0.371428571,1,0,0,0.568,button_right_test,0,99,99,109,1
,,,,,,,,,,,,,,,,,,26,2022-02-12_13h39.45.501,lexical_decision_task_DD_L4,2021.2.3,iPhone,58.82352941,,,,,,,,,,0.535,1,,,,,,,,,,,,,,,,,,,,,,,0.315306122,-0.37244898,1,0,0,,,,,,,HAMMER,C,m,y,./images/HAMMER.png,,,,,,,,,,,,,,,,,,,,,0,0.315306122,-0.37244898,1,0,0,0.535,button_right_test,0,100,100,75,1
,,,,,,,,,,,,,,,,,,26,2022-02-12_13h39.45.501,lexical_decision_task_DD_L4,2021.2.3,iPhone,58.82352941,,,,,,,,,,0.702,0,,,,,,,,,,,,,,,,,,,,,,,-0.316326531,-0.315306122,1,0,0,,,,,,,GARDEN,HB,m,y,./images/GARDENHB.png,,,,,,,,,,,,,,,,,,,,,0,-0.316326531,-0.315306122,1,0,0,0.702,button_left_test,0,101,101,10,1
,,,,,,,,,,,,,,,,,,26,2022-02-12_13h39.45.501,lexical_decision_task_DD_L4,2021.2.3,iPhone,58.82352941,,,,,,,,,,0.618,1,,,,,,,,,,,,,,,,,,,,,,,-0.316326531,-0.324489796,1,0,0,,,,,,,BARREL,LB,z,y,./images/BARRELLB.png,,,,,,,,,,,,,,,,,,,,,0,-0.316326531,-0.324489796,1,0,0,0.618,button_left_test,0,102,102,116,1
,,,,,,,,,,,,,,,,,,26,2022-02-12_13h39.45.501,lexical_decision_task_DD_L4,2021.2.3,iPhone,58.82352941,,,,,,,,,,0.684,0,,,,,,,,,,,,,,,,,,,,,,,0.307142857,-0.379591837,1,0,0,,,,,,,PAINT,HB,z,y,./images/PAINTHB.png,,,,,,,,,,,,,,,,,,,,,0,0.307142857,-0.379591837,1,0,0,0.684,button_right_test,0,103,103,91,1
,,,,,,,,,,,,,,,,,,26,2022-02-12_13h39.45.501,lexical_decision_task_DD_L4,2021.2.3,iPhone,58.82352941,,,,,,,,,,0.634,1,,,,,,,,,,,,,,,,,,,,,,,0.314285714,-0.376530612,1,0,0,,,,,,,STEAK,HB,m,y,./images/STEAKHB.png,,,,,,,,,,,,,,,,,,,,,0,0.314285714,-0.376530612,1,0,0,0.634,button_right_test,0,104,104,31,1
,,,,,,,,,,,,,,,,,,26,2022-02-12_13h39.45.501,lexical_decision_task_DD_L4,2021.2.3,iPhone,58.82352941,,,,,,,,,,0.852,1,,,,,,,,,,,,,,,,,,,,,,,-0.31122449,-0.323469388,1,0,0,,,,,,,BABOON,HB,z,y,./images/BABOONHB.png,,,,,,,,,,,,,,,,,,,,,0,-0.31122449,-0.323469388,1,0,0,0.852,button_left_test,0,105,105,142,1
,,,,,,,,,,,,,,,,,,26,2022-02-12_13h39.45.501,lexical_decision_task_DD_L4,2021.2.3,iPhone,58.82352941,,,,,,,,,,0.852,1,,,,,,,,,,,,,,,,,,,,,,,-0.312244898,-0.326530612,1,0,0,,,,,,,BANNER,HB,z,y,./images/BANNERHB.png,,,,,,,,,,,,,,,,,,,,,0,-0.312244898,-0.326530612,1,0,0,0.852,button_left_test,0,106,106,136,1
,,,,,,,,,,,,,,,,,,26,2022-02-12_13h39.45.501,lexical_decision_task_DD_L4,2021.2.3,iPhone,58.82352941,,,,,,,,,,0.617,1,,,,,,,,,,,,,,,,,,,,,,,0.298979592,-0.385714286,1,0,0,,,,,,,MONKEY,C,m,y,./images/MONKEY.png,,,,,,,,,,,,,,,,,,,,,0,0.298979592,-0.385714286,1,0,0,0.617,button_right_test,0,107,107,45,1
,,,,,,,,,,,,,,,,,,26,2022-02-12_13h39.45.501,lexical_decision_task_DD_L4,2021.2.3,iPhone,58.82352941,,,,,,,,,,0.735,1,,,,,,,,,,,,,,,,,,,,,,,-0.314285714,-0.323469388,1,0,0,,,,,,,MOSQUE,HB,z,y,./images/MOSQUEHB.png,,,,,,,,,,,,,,,,,,,,,0,-0.314285714,-0.323469388,1,0,0,0.735,button_left_test,0,108,108,127,1
,,,,,,,,,,,,,,,,,,26,2022-02-12_13h39.45.501,lexical_decision_task_DD_L4,2021.2.3,iPhone,58.82352941,,,,,,,,,,0.601,1,,,,,,,,,,,,,,,,,,,,,,,-0.312244898,-0.320408163,1,0,0,,,,,,,BIRTH,HB,z,y,./images/BIRTHHB.png,,,,,,,,,,,,,,,,,,,,,0,-0.312244898,-0.320408163,1,0,0,0.601,button_left_test,0,109,109,121,1
,,,,,,,,,,,,,,,,,,26,2022-02-12_13h39.45.501,lexical_decision_task_DD_L4,2021.2.3,iPhone,58.82352941,,,,,,,,,,0.683,1,,,,,,,,,,,,,,,,,,,,,,,0.314285714,-0.379591837,1,0,0,,,,,,,ALLEY,HB,m,y,./images/ALLEYHB.png,,,,,,,,,,,,,,,,,,,,,0,0.314285714,-0.379591837,1,0,0,0.683,button_right_test,0,110,110,55,1
,,,,,,,,,,,,,,,,,,26,2022-02-12_13h39.45.501,lexical_decision_task_DD_L4,2021.2.3,iPhone,58.82352941,,,,,,,,,,0.653,1,,,,,,,,,,,,,,,,,,,,,,,-0.31122449,-0.316326531,1,0,0,,,,,,,POODLE,C,z,y,./images/POODLE.png,,,,,,,,,,,,,,,,,,,,,0,-0.31122449,-0.316326531,1,0,0,0.653,button_left_test,0,111,111,165,1
,,,,,,,,,,,,,,,,,,26,2022-02-12_13h39.45.501,lexical_decision_task_DD_L4,2021.2.3,iPhone,58.82352941,,,,,,,,,,0.584,1,,,,,,,,,,,,,,,,,,,,,,,-0.310204082,-0.320408163,1,0,0,,,,,,,INFANT,HB,z,y,./images/INFANTHB.png,,,,,,,,,,,,,,,,,,,,,0,-0.310204082,-0.320408163,1,0,0,0.584,button_left_test,0,112,112,160,1
,,,,,,,,,,,,,,,,,,26,2022-02-12_13h39.45.501,lexical_decision_task_DD_L4,2021.2.3,iPhone,58.82352941,,,,,,,,,,0.584,1,,,,,,,,,,,,,,,,,,,,,,,0.324489796,-0.370408163,1,0,0,,,,,,,DRILL,C,m,y,./images/DRILL.png,,,,,,,,,,,,,,,,,,,,,0,0.324489796,-0.370408163,1,0,0,0.584,button_right_test,0,113,113,81,1
,,,,,,,,,,,,,,,,,,26,2022-02-12_13h39.45.501,lexical_decision_task_DD_L4,2021.2.3,iPhone,58.82352941,,,,,,,,,,0.652,1,,,,,,,,,,,,,,,,,,,,,,,0.329591837,-0.374489796,1,0,0,,,,,,,CLOUD,LB,m,y,./images/CLOUDLB.png,,,,,,,,,,,,,,,,,,,,,0,0.329591837,-0.374489796,1,0,0,0.652,button_right_test,0,114,114,26,1
,,,,,,,,,,,,,,,,,,26,2022-02-12_13h39.45.501,lexical_decision_task_DD_L4,2021.2.3,iPhone,58.82352941,,,,,,,,,,0.518,0,,,,,,,,,,,,,,,,,,,,,,,-0.310204082,-0.292857143,1,0,0,,,,,,,STREAM,LB,m,y,./images/STREAMLB.png,,,,,,,,,,,,,,,,,,,,,0,-0.310204082,-0.292857143,1,0,0,0.518,button_left_test,0,115,115,41,1
,,,,,,,,,,,,,,,,,,26,2022-02-12_13h39.45.501,lexical_decision_task_DD_L4,2021.2.3,iPhone,58.82352941,,,,,,,,,,0.516,1,,,,,,,,,,,,,,,,,,,,,,,0.31122449,-0.379591837,1,0,0,,,,,,,BISHOP,HB,m,y,./images/BISHOPHB.png,,,,,,,,,,,,,,,,,,,,,0,0.31122449,-0.379591837,1,0,0,0.516,button_right_test,0,116,116,49,1
,,,,,,,,,,,,,,,,,,26,2022-02-12_13h39.45.501,lexical_decision_task_DD_L4,2021.2.3,iPhone,58.82352941,,,,,,,,,,0.782,0,,,,,,,,,,,,,,,,,,,,,,,-0.318367347,-0.287755102,1,0,0,,,,,,,TOWEL,HB,m,y,./images/TOWELHB.png,,,,,,,,,,,,,,,,,,,,,0,-0.318367347,-0.287755102,1,0,0,0.782,button_left_test,0,117,117,1,1
,,,,,,,,,,,,,,,,,,26,2022-02-12_13h39.45.501,lexical_decision_task_DD_L4,2021.2.3,iPhone,58.82352941,,,,,,,,,,0.651,1,,,,,,,,,,,,,,,,,,,,,,,-0.316326531,-0.315306122,1,0,0,,,,,,,TRIPOD,C,z,y,./images/TRIPOD.png,,,,,,,,,,,,,,,,,,,,,0,-0.316326531,-0.315306122,1,0,0,0.651,button_left_test,0,118,118,138,1
,,,,,,,,,,,,,,,,,,26,2022-02-12_13h39.45.501,lexical_decision_task_DD_L4,2021.2.3,iPhone,58.82352941,,,,,,,,,,1.464,0,,,,,,,,,,,,,,,,,,,,,,,0.32244898,-0.364285714,1,0,0,,,,,,,DRUMS,HB,z,y,./images/DRUMSHB.png,,,,,,,,,,,,,,,,,,,,,0,0.32244898,-0.364285714,1,0,0,1.464,button_right_test,0,119,119,133,1
