key_resp.keys,key_resp.rt,instr_done_touch.x,instr_done_touch.y,instr_done_touch.leftButton,instr_done_touch.midButton,instr_done_touch.rightButton,instruction_pages.thisRepN,instruction_pages.thisTrialN,instruction_pages.thisN,instruction_pages.thisIndex,instruction_pages.ran,pageN,phase,instruct_text,has_image,instruct_image,participant,age,date,expName,psychopyVersion,OS,frameRate,response.keys,response.corr,response.rt,touch_resp.x,touch_resp.y,touch_resp.leftButton,touch_resp.midButton,touch_resp.rightButton,touch_resp.time,touch_resp.clicked_name,rt,corr,practrials.thisRepN,practrials.thisTrialN,practrials.thisN,practrials.thisIndex,practrials.ran,TrialID,Target,corrAns,end_of_practice_trials_pages.thisRepN,end_of_practice_trials_pages.thisTrialN,end_of_practice_trials_pages.thisN,end_of_practice_trials_pages.thisIndex,end_of_practice_trials_pages.ran,key_resp_2.keys,key_resp_2.corr,key_resp_2.rt,targ_click.x,targ_click.y,targ_click.leftButton,targ_click.midButton,targ_click.rightButton,targ_click.time,targ_click.clicked_name,break_done_touch.x,break_done_touch.y,break_done_touch.leftButton,break_done_touch.midButton,break_done_touch.rightButton,break_done_keyboard.keys,maintrials.thisRepN,maintrials.thisTrialN,maintrials.thisN,maintrials.thisIndex,maintrials.ran,string,blur,study,lex,stim_path,break_done_keyboard.rt,mouse_2.x,mouse_2.y,mouse_2.leftButton,mouse_2.midButton,mouse_2.rightButton,mouse_2.clicked_name,slider.response,slider.rt,trials.thisRepN,trials.thisTrialN,trials.thisN,trials.thisIndex,trials.ran,test_instructions.thisRepN,test_instructions.thisTrialN,test_instructions.thisN,test_instructions.thisIndex,test_instructions.ran,instr_done_touch.clicked_name,key_resp_3.keys,key_resp_3.corr,key_resp_3.rt,test_click.x,test_click.y,test_click.leftButton,test_click.midButton,test_click.rightButton,test_click.time,test_click.clicked_name,test_phase.thisRepN,test_phase.thisTrialN,test_phase.thisN,test_phase.thisIndex,test_phase.ran
space,17.811,-0.379994032,-0.416243829,0,0,0,0,0,0,0,1,1,instructions,"INSTRUCTIONS
At the start of each trial, look at the plus sign  (+) in the center of the screen.  This tells you that a trial is about to begin and where to look. Second, the plus sign will disappear and a string of letters will appear. Your task is to determine if the string of letters is a word or not. If the item is a word press the M key (on keyboard)  or touch the word button (phone/tablet).  If the item is not a word,  press the  Z key (on keyboard)  or touch the nonword button (on phone/tablet). 
Press the space bar or touch  continue.",0,,,24,2022-02-12_12h31.33.716,lexical_decision_task_DD_L4,2021.2.3,MacIntel,60.0024001,,,,,,,,,,,,,,,,,,,,,,,,,,,,,,,,,,,,,,,,,,,,,,,,,,,,,,,,,,,,,,,,,,,,,,,,,,,,,,,,,,,,,,
space,3.2443,-0.377125154,-0.413738788,0,0,0,0,1,1,1,1,2,instructions,"If your device has a keyboard, press the 'Z' key for nonwords and the 'M' key for words.





Press the space bar or touch the button below to continue.",0,keyboard-example.gif,,24,2022-02-12_12h31.33.716,lexical_decision_task_DD_L4,2021.2.3,MacIntel,60.0024001,,,,,,,,,,,,,,,,,,,,,,,,,,,,,,,,,,,,,,,,,,,,,,,,,,,,,,,,,,,,,,,,,,,,,,,,,,,,,,,,,,,,,,
space,0.8519,-0.377125154,-0.413738788,0,0,0,0,2,2,2,1,3,instructions,"If you are using a touchscreen only device, use the buttons on the screen. Do not use the mouse.





Press the space bar or touch the button below to continue.",0,touchscreen-example.gif,,24,2022-02-12_12h31.33.716,lexical_decision_task_DD_L4,2021.2.3,MacIntel,60.0024001,,,,,,,,,,,,,,,,,,,,,,,,,,,,,,,,,,,,,,,,,,,,,,,,,,,,,,,,,,,,,,,,,,,,,,,,,,,,,,,,,,,,,,
space,3.0666,-0.377125154,-0.41265564,0,0,0,0,3,3,3,1,4,instructions,"It is very important that you respond as quickly and accurately as possible, as each letter string will only be on the screen for two seconds. If you do not respond within this time, the message 'Too slow!' will be displayed and the experiment will progress to the next letter string. The first 20 trials will be practice trials and you will receive feedback on your answers. 

Press the space bar or touch the button below to start the practice trials.",0,,,24,2022-02-12_12h31.33.716,lexical_decision_task_DD_L4,2021.2.3,MacIntel,60.0024001,,,,,,,,,,,,,,,,,,,,,,,,,,,,,,,,,,,,,,,,,,,,,,,,,,,,,,,,,,,,,,,,,,,,,,,,,,,,,,,,,,,,,,
,,,,,,,,,,,,,,,,,,24,2022-02-12_12h31.33.716,lexical_decision_task_DD_L4,2021.2.3,MacIntel,60.0024001,z,1,1.3795,,,,,,,,1.3795,1,0,0,0,12,1,1001,SPRINY,z,,,,,,,,,,,,,,,,,,,,,,,,,,,,,,,,,,,,,,,,,,,,,,,,,,,,,,,,,,,,,,,,,,
,,,,,,,,,,,,,,,,,,24,2022-02-12_12h31.33.716,lexical_decision_task_DD_L4,2021.2.3,MacIntel,60.0024001,m,1,0.542,,,,,,,,0.542,1,0,1,1,4,1,1001,SQUEAK,m,,,,,,,,,,,,,,,,,,,,,,,,,,,,,,,,,,,,,,,,,,,,,,,,,,,,,,,,,,,,,,,,,,
,,,,,,,,,,,,,,,,,,24,2022-02-12_12h31.33.716,lexical_decision_task_DD_L4,2021.2.3,MacIntel,60.0024001,z,1,0.8437,,,,,,,,0.8437,1,0,2,2,14,1,1001,THRALE,z,,,,,,,,,,,,,,,,,,,,,,,,,,,,,,,,,,,,,,,,,,,,,,,,,,,,,,,,,,,,,,,,,,
,,,,,,,,,,,,,,,,,,24,2022-02-12_12h31.33.716,lexical_decision_task_DD_L4,2021.2.3,MacIntel,60.0024001,m,1,0.5377,,,,,,,,0.5377,1,0,3,3,3,1,1001,MATRIX,m,,,,,,,,,,,,,,,,,,,,,,,,,,,,,,,,,,,,,,,,,,,,,,,,,,,,,,,,,,,,,,,,,,
,,,,,,,,,,,,,,,,,,24,2022-02-12_12h31.33.716,lexical_decision_task_DD_L4,2021.2.3,MacIntel,60.0024001,m,1,0.5267,,,,,,,,0.5267,1,0,4,4,0,1,1001,UTOPIA,m,,,,,,,,,,,,,,,,,,,,,,,,,,,,,,,,,,,,,,,,,,,,,,,,,,,,,,,,,,,,,,,,,,
,,,,,,,,,,,,,,,,,,24,2022-02-12_12h31.33.716,lexical_decision_task_DD_L4,2021.2.3,MacIntel,60.0024001,z,1,0.917,,,,,,,,0.917,1,0,5,5,15,1,1001,WHAISE,z,,,,,,,,,,,,,,,,,,,,,,,,,,,,,,,,,,,,,,,,,,,,,,,,,,,,,,,,,,,,,,,,,,
,,,,,,,,,,,,,,,,,,24,2022-02-12_12h31.33.716,lexical_decision_task_DD_L4,2021.2.3,MacIntel,60.0024001,z,1,0.9055,,,,,,,,0.9055,1,0,6,6,11,1,1001,RASHET,z,,,,,,,,,,,,,,,,,,,,,,,,,,,,,,,,,,,,,,,,,,,,,,,,,,,,,,,,,,,,,,,,,,
,,,,,,,,,,,,,,,,,,24,2022-02-12_12h31.33.716,lexical_decision_task_DD_L4,2021.2.3,MacIntel,60.0024001,z,1,0.7155,,,,,,,,0.7155,1,0,7,7,13,1,1001,ROUPET,z,,,,,,,,,,,,,,,,,,,,,,,,,,,,,,,,,,,,,,,,,,,,,,,,,,,,,,,,,,,,,,,,,,
,,,,,,,,,,,,,,,,,,24,2022-02-12_12h31.33.716,lexical_decision_task_DD_L4,2021.2.3,MacIntel,60.0024001,m,1,0.4943,,,,,,,,0.4943,1,0,8,8,7,1,1001,VOLUME,m,,,,,,,,,,,,,,,,,,,,,,,,,,,,,,,,,,,,,,,,,,,,,,,,,,,,,,,,,,,,,,,,,,
,,,,,,,,,,,,,,,,,,24,2022-02-12_12h31.33.716,lexical_decision_task_DD_L4,2021.2.3,MacIntel,60.0024001,m,1,0.5225,,,,,,,,0.5225,1,0,9,9,5,1,1001,OBTAIN,m,,,,,,,,,,,,,,,,,,,,,,,,,,,,,,,,,,,,,,,,,,,,,,,,,,,,,,,,,,,,,,,,,,
,,,,,,,,,,,,,,,,,,24,2022-02-12_12h31.33.716,lexical_decision_task_DD_L4,2021.2.3,MacIntel,60.0024001,z,1,0.9705,,,,,,,,0.9705,1,0,10,10,10,1,1001,INLADE,z,,,,,,,,,,,,,,,,,,,,,,,,,,,,,,,,,,,,,,,,,,,,,,,,,,,,,,,,,,,,,,,,,,
,,,,,,,,,,,,,,,,,,24,2022-02-12_12h31.33.716,lexical_decision_task_DD_L4,2021.2.3,MacIntel,60.0024001,m,1,0.5392,,,,,,,,0.5392,1,0,11,11,6,1,1001,ZOMBIE,m,,,,,,,,,,,,,,,,,,,,,,,,,,,,,,,,,,,,,,,,,,,,,,,,,,,,,,,,,,,,,,,,,,
,,,,,,,,,,,,,,,,,,24,2022-02-12_12h31.33.716,lexical_decision_task_DD_L4,2021.2.3,MacIntel,60.0024001,z,1,0.7735,,,,,,,,0.7735,1,0,12,12,8,1,1001,ASLERT,z,,,,,,,,,,,,,,,,,,,,,,,,,,,,,,,,,,,,,,,,,,,,,,,,,,,,,,,,,,,,,,,,,,
,,,,,,,,,,,,,,,,,,24,2022-02-12_12h31.33.716,lexical_decision_task_DD_L4,2021.2.3,MacIntel,60.0024001,z,1,0.7556,,,,,,,,0.7556,1,0,13,13,9,1,1001,FARINY,z,,,,,,,,,,,,,,,,,,,,,,,,,,,,,,,,,,,,,,,,,,,,,,,,,,,,,,,,,,,,,,,,,,
,,,,,,,,,,,,,,,,,,24,2022-02-12_12h31.33.716,lexical_decision_task_DD_L4,2021.2.3,MacIntel,60.0024001,m,1,0.4984,,,,,,,,0.4984,1,0,14,14,1,1,1001,ADJUST,m,,,,,,,,,,,,,,,,,,,,,,,,,,,,,,,,,,,,,,,,,,,,,,,,,,,,,,,,,,,,,,,,,,
,,,,,,,,,,,,,,,,,,24,2022-02-12_12h31.33.716,lexical_decision_task_DD_L4,2021.2.3,MacIntel,60.0024001,m,1,0.4665,,,,,,,,0.4665,1,0,15,15,2,1,1001,ALMOND,m,,,,,,,,,,,,,,,,,,,,,,,,,,,,,,,,,,,,,,,,,,,,,,,,,,,,,,,,,,,,,,,,,,
space,40.5288,-0.377125154,-0.41265564,0,0,0,,,,,,1,end_of_practice,"You have completed the practice trials. During the experimental trials, you will not receive feedback. 
Before you begin, please ensure that you are in a comfortable and quiet location and will not be disturbed for about 15 minutes, as we cannot use your data if you do not complete all the trials. 
 When you are ready to start the experimental trials, please press space or touch the button below.",,,,24,2022-02-12_12h31.33.716,lexical_decision_task_DD_L4,2021.2.3,MacIntel,60.0024001,,,,,,,,,,,,,,,,,,,,,0,0,0,0,1,,,,,,,,,,,,,,,,,,,,,,,,,,,,,,,,,,,,,,,,,,,,,,,,,,,,,,,,,,,,,
,,,,,,,,,,,,,,,,,,24,2022-02-12_12h31.33.716,lexical_decision_task_DD_L4,2021.2.3,MacIntel,60.0024001,,,,,,,,,,,1.6119,1,,,,,,,,,,,,,,z,1,1.6119,,,,,,,,-0.377125154,-0.41265564,0,0,0,,0,0,0,106,1,CLUMS,HB,old,z,./images/CLUMSHB.png,,,,,,,,,,,,,,,,,,,,,,,,,,,,,,,,,,,
,,,,,,,,,,,,,,,,,,24,2022-02-12_12h31.33.716,lexical_decision_task_DD_L4,2021.2.3,MacIntel,60.0024001,,,,,,,,,,,0.5307,1,,,,,,,,,,,,,,m,1,0.5307,,,,,,,,-0.377125154,-0.41265564,0,0,0,,0,1,1,1,1,TOWEL,HB,old,m,./images/TOWELHB.png,,,,,,,,,,,,,,,,,,,,,,,,,,,,,,,,,,,
,,,,,,,,,,,,,,,,,,24,2022-02-12_12h31.33.716,lexical_decision_task_DD_L4,2021.2.3,MacIntel,60.0024001,,,,,,,,,,,0.4156,1,,,,,,,,,,,,,,m,1,0.4156,,,,,,,,-0.377125154,-0.41265564,0,0,0,,0,2,2,47,1,LAGOON,LB,old,m,./images/LAGOONLB.png,,,,,,,,,,,,,,,,,,,,,,,,,,,,,,,,,,,
,,,,,,,,,,,,,,,,,,24,2022-02-12_12h31.33.716,lexical_decision_task_DD_L4,2021.2.3,MacIntel,60.0024001,,,,,,,,,,,0.4344,0,,,,,,,,,,,,,,m,0,0.4344,,,,,,,,-0.377125154,-0.41265564,0,0,0,,0,3,3,150,1,NOOLS,C,old,z,./images/NOOLS.png,,,,,,,,,,,,,,,,,,,,,,,,,,,,,,,,,,,
,,,,,,,,,,,,,,,,,,24,2022-02-12_12h31.33.716,lexical_decision_task_DD_L4,2021.2.3,MacIntel,60.0024001,,,,,,,,,,,0.5958,1,,,,,,,,,,,,,,m,1,0.5958,,,,,,,,-0.377125154,-0.41265564,0,0,0,,0,4,4,45,1,MONKEY,C,old,m,./images/MONKEY.png,,,,,,,,,,,,,,,,,,,,,,,,,,,,,,,,,,,
,,,,,,,,,,,,,,,,,,24,2022-02-12_12h31.33.716,lexical_decision_task_DD_L4,2021.2.3,MacIntel,60.0024001,,,,,,,,,,,0.711,1,,,,,,,,,,,,,,z,1,0.711,,,,,,,,-0.377125154,-0.41265564,0,0,0,,0,5,5,164,1,SGREW,LB,old,z,./images/SGREWLB.png,,,,,,,,,,,,,,,,,,,,,,,,,,,,,,,,,,,
,,,,,,,,,,,,,,,,,,24,2022-02-12_12h31.33.716,lexical_decision_task_DD_L4,2021.2.3,MacIntel,60.0024001,,,,,,,,,,,0.7303,1,,,,,,,,,,,,,,m,1,0.7303,,,,,,,,-0.377125154,-0.41265564,0,0,0,,0,6,6,25,1,CHALK,HB,old,m,./images/CHALKHB.png,,,,,,,,,,,,,,,,,,,,,,,,,,,,,,,,,,,
,,,,,,,,,,,,,,,,,,24,2022-02-12_12h31.33.716,lexical_decision_task_DD_L4,2021.2.3,MacIntel,60.0024001,,,,,,,,,,,0.4679,1,,,,,,,,,,,,,,m,1,0.4679,,,,,,,,-0.377125154,-0.41265564,0,0,0,,0,7,7,59,1,BRUSH,LB,old,m,./images/BRUSHLB.png,,,,,,,,,,,,,,,,,,,,,,,,,,,,,,,,,,,
,,,,,,,,,,,,,,,,,,24,2022-02-12_12h31.33.716,lexical_decision_task_DD_L4,2021.2.3,MacIntel,60.0024001,,,,,,,,,,,1.2114,1,,,,,,,,,,,,,,m,1,1.2114,,,,,,,,-0.377125154,-0.41265564,0,0,0,,0,8,8,67,1,POKER,HB,old,m,./images/POKERHB.png,,,,,,,,,,,,,,,,,,,,,,,,,,,,,,,,,,,
,,,,,,,,,,,,,,,,,,24,2022-02-12_12h31.33.716,lexical_decision_task_DD_L4,2021.2.3,MacIntel,60.0024001,,,,,,,,,,,0.5985,1,,,,,,,,,,,,,,z,1,0.5985,,,,,,,,-0.377125154,-0.41265564,0,0,0,,0,9,9,156,1,HIXES,C,old,z,./images/HIXES.png,,,,,,,,,,,,,,,,,,,,,,,,,,,,,,,,,,,
,,,,,,,,,,,,,,,,,,24,2022-02-12_12h31.33.716,lexical_decision_task_DD_L4,2021.2.3,MacIntel,60.0024001,,,,,,,,,,,0.8618,1,,,,,,,,,,,,,,z,1,0.8618,,,,,,,,-0.377125154,-0.41265564,0,0,0,,0,10,10,160,1,VEETS,HB,old,z,./images/VEETSHB.png,,,,,,,,,,,,,,,,,,,,,,,,,,,,,,,,,,,
,,,,,,,,,,,,,,,,,,24,2022-02-12_12h31.33.716,lexical_decision_task_DD_L4,2021.2.3,MacIntel,60.0024001,,,,,,,,,,,0.5146,0,,,,,,,,,,,,,,m,0,0.5146,,,,,,,,-0.377125154,-0.41265564,0,0,0,,0,11,11,149,1,VEASE,LB,old,z,./images/VEASELB.png,,,,,,,,,,,,,,,,,,,,,,,,,,,,,,,,,,,
,,,,,,,,,,,,,,,,,,24,2022-02-12_12h31.33.716,lexical_decision_task_DD_L4,2021.2.3,MacIntel,60.0024001,,,,,,,,,,,1.1289,1,,,,,,,,,,,,,,z,1,1.1289,,,,,,,,-0.377125154,-0.41265564,0,0,0,,0,12,12,163,1,GAMBA,HB,old,z,./images/GAMBAHB.png,,,,,,,,,,,,,,,,,,,,,,,,,,,,,,,,,,,
,,,,,,,,,,,,,,,,,,24,2022-02-12_12h31.33.716,lexical_decision_task_DD_L4,2021.2.3,MacIntel,60.0024001,,,,,,,,,,,0.7038,1,,,,,,,,,,,,,,m,1,0.7038,,,,,,,,-0.377125154,-0.41265564,0,0,0,,0,13,13,73,1,GLOVE,HB,old,m,./images/GLOVEHB.png,,,,,,,,,,,,,,,,,,,,,,,,,,,,,,,,,,,
,,,,,,,,,,,,,,,,,,24,2022-02-12_12h31.33.716,lexical_decision_task_DD_L4,2021.2.3,MacIntel,60.0024001,,,,,,,,,,,0.5092,1,,,,,,,,,,,,,,m,1,0.5092,,,,,,,,-0.377125154,-0.41265564,0,0,0,,0,14,14,0,1,WALNUT,C,old,m,./images/WALNUT.png,,,,,,,,,,,,,,,,,,,,,,,,,,,,,,,,,,,
,,,,,,,,,,,,,,,,,,24,2022-02-12_12h31.33.716,lexical_decision_task_DD_L4,2021.2.3,MacIntel,60.0024001,,,,,,,,,,,0.6625,1,,,,,,,,,,,,,,m,1,0.6625,,,,,,,,-0.377125154,-0.41265564,0,0,0,,0,15,15,49,1,BISHOP,HB,old,m,./images/BISHOPHB.png,,,,,,,,,,,,,,,,,,,,,,,,,,,,,,,,,,,
,,,,,,,,,,,,,,,,,,24,2022-02-12_12h31.33.716,lexical_decision_task_DD_L4,2021.2.3,MacIntel,60.0024001,,,,,,,,,,,0.6489,1,,,,,,,,,,,,,,z,1,0.6489,,,,,,,,-0.377125154,-0.41265564,0,0,0,,0,16,16,126,1,GUELS,C,old,z,./images/GUELS.png,,,,,,,,,,,,,,,,,,,,,,,,,,,,,,,,,,,
,,,,,,,,,,,,,,,,,,24,2022-02-12_12h31.33.716,lexical_decision_task_DD_L4,2021.2.3,MacIntel,60.0024001,,,,,,,,,,,0.5819,1,,,,,,,,,,,,,,m,1,0.5819,,,,,,,,-0.377125154,-0.41265564,0,0,0,,0,17,17,42,1,CHAIN,C,old,m,./images/CHAIN.png,,,,,,,,,,,,,,,,,,,,,,,,,,,,,,,,,,,
,,,,,,,,,,,,,,,,,,24,2022-02-12_12h31.33.716,lexical_decision_task_DD_L4,2021.2.3,MacIntel,60.0024001,,,,,,,,,,,0.5521,1,,,,,,,,,,,,,,z,1,0.5521,,,,,,,,-0.377125154,-0.41265564,0,0,0,,0,18,18,137,1,JOOST,LB,old,z,./images/JOOSTLB.png,,,,,,,,,,,,,,,,,,,,,,,,,,,,,,,,,,,
,,,,,,,,,,,,,,,,,,24,2022-02-12_12h31.33.716,lexical_decision_task_DD_L4,2021.2.3,MacIntel,60.0024001,,,,,,,,,,,0.7125,1,,,,,,,,,,,,,,z,1,0.7125,,,,,,,,-0.377125154,-0.41265564,0,0,0,,0,19,19,122,1,BLOOT,LB,old,z,./images/BLOOTLB.png,,,,,,,,,,,,,,,,,,,,,,,,,,,,,,,,,,,
,,,,,,,,,,,,,,,,,,24,2022-02-12_12h31.33.716,lexical_decision_task_DD_L4,2021.2.3,MacIntel,60.0024001,,,,,,,,,,,0.5788,1,,,,,,,,,,,,,,z,1,0.5788,,,,,,,,-0.377125154,-0.41265564,0,0,0,,0,20,20,113,1,LINEW,LB,old,z,./images/LINEWLB.png,,,,,,,,,,,,,,,,,,,,,,,,,,,,,,,,,,,
,,,,,,,,,,,,,,,,,,24,2022-02-12_12h31.33.716,lexical_decision_task_DD_L4,2021.2.3,MacIntel,60.0024001,,,,,,,,,,,0.4956,1,,,,,,,,,,,,,,m,1,0.4956,,,,,,,,-0.377125154,-0.41265564,0,0,0,,0,21,21,23,1,CLOTH,LB,old,m,./images/CLOTHLB.png,,,,,,,,,,,,,,,,,,,,,,,,,,,,,,,,,,,
,,,,,,,,,,,,,,,,,,24,2022-02-12_12h31.33.716,lexical_decision_task_DD_L4,2021.2.3,MacIntel,60.0024001,,,,,,,,,,,0.5625,1,,,,,,,,,,,,,,m,1,0.5625,,,,,,,,-0.377125154,-0.41265564,0,0,0,,0,22,22,2,1,STOVE,LB,old,m,./images/STOVELB.png,,,,,,,,,,,,,,,,,,,,,,,,,,,,,,,,,,,
,,,,,,,,,,,,,,,,,,24,2022-02-12_12h31.33.716,lexical_decision_task_DD_L4,2021.2.3,MacIntel,60.0024001,,,,,,,,,,,0.5681,1,,,,,,,,,,,,,,z,1,0.5681,,,,,,,,-0.377125154,-0.41265564,0,0,0,,0,23,23,134,1,TROSS,LB,old,z,./images/TROSSLB.png,,,,,,,,,,,,,,,,,,,,,,,,,,,,,,,,,,,
,,,,,,,,,,,,,,,,,,24,2022-02-12_12h31.33.716,lexical_decision_task_DD_L4,2021.2.3,MacIntel,60.0024001,,,,,,,,,,,0.9971,1,,,,,,,,,,,,,,z,1,0.9971,,,,,,,,-0.377125154,-0.41265564,0,0,0,,0,24,24,121,1,CEERS,HB,old,z,./images/CEERSHB.png,,,,,,,,,,,,,,,,,,,,,,,,,,,,,,,,,,,
,,,,,,,,,,,,,,,,,,24,2022-02-12_12h31.33.716,lexical_decision_task_DD_L4,2021.2.3,MacIntel,60.0024001,,,,,,,,,,,0.6306,1,,,,,,,,,,,,,,z,1,0.6306,,,,,,,,-0.377125154,-0.41265564,0,0,0,,0,25,25,111,1,HOSSE,C,old,z,./images/HOSSE.png,,,,,,,,,,,,,,,,,,,,,,,,,,,,,,,,,,,
,,,,,,,,,,,,,,,,,,24,2022-02-12_12h31.33.716,lexical_decision_task_DD_L4,2021.2.3,MacIntel,60.0024001,,,,,,,,,,,0.5627,1,,,,,,,,,,,,,,z,1,0.5627,,,,,,,,-0.377125154,-0.41265564,0,0,0,,0,26,26,138,1,PLICE,C,old,z,./images/PLICE.png,,,,,,,,,,,,,,,,,,,,,,,,,,,,,,,,,,,
,,,,,,,,,,,,,,,,,,24,2022-02-12_12h31.33.716,lexical_decision_task_DD_L4,2021.2.3,MacIntel,60.0024001,,,,,,,,,,,0.6187,1,,,,,,,,,,,,,,z,1,0.6187,,,,,,,,-0.377125154,-0.41265564,0,0,0,,0,27,27,89,1,DRIEK,LB,old,z,./images/DRIEKLB.png,,,,,,,,,,,,,,,,,,,,,,,,,,,,,,,,,,,
,,,,,,,,,,,,,,,,,,24,2022-02-12_12h31.33.716,lexical_decision_task_DD_L4,2021.2.3,MacIntel,60.0024001,,,,,,,,,,,0.5822,1,,,,,,,,,,,,,,z,1,0.5822,,,,,,,,-0.377125154,-0.41265564,0,0,0,,0,28,28,128,1,GRIFT,LB,old,z,./images/GRIFTLB.png,,,,,,,,,,,,,,,,,,,,,,,,,,,,,,,,,,,
,,,,,,,,,,,,,,,,,,24,2022-02-12_12h31.33.716,lexical_decision_task_DD_L4,2021.2.3,MacIntel,60.0024001,,,,,,,,,,,0.6774,1,,,,,,,,,,,,,,z,1,0.6774,,,,,,,,-0.377125154,-0.41265564,0,0,0,,0,29,29,161,1,BLAPS,LB,old,z,./images/BLAPSLB.png,,,,,,,,,,,,,,,,,,,,,,,,,,,,,,,,,,,
,,,,,,,,,,,,,,,,,,24,2022-02-12_12h31.33.716,lexical_decision_task_DD_L4,2021.2.3,MacIntel,60.0024001,,,,,,,,,,,0.6222,1,,,,,,,,,,,,,,m,1,0.6222,,,,,,,,-0.377125154,-0.41265564,0,0,0,,0,30,30,53,1,POSTER,LB,old,m,./images/POSTERLB.png,,,,,,,,,,,,,,,,,,,,,,,,,,,,,,,,,,,
,,,,,,,,,,,,,,,,,,24,2022-02-12_12h31.33.716,lexical_decision_task_DD_L4,2021.2.3,MacIntel,60.0024001,,,,,,,,,,,0.6095,1,,,,,,,,,,,,,,z,1,0.6095,,,,,,,,-0.377125154,-0.41265564,0,0,0,,0,31,31,114,1,RIKES,C,old,z,./images/RIKES.png,,,,,,,,,,,,,,,,,,,,,,,,,,,,,,,,,,,
,,,,,,,,,,,,,,,,,,24,2022-02-12_12h31.33.716,lexical_decision_task_DD_L4,2021.2.3,MacIntel,60.0024001,,,,,,,,,,,0.6019,1,,,,,,,,,,,,,,z,1,0.6019,,,,,,,,-0.377125154,-0.41265564,0,0,0,,0,32,32,143,1,MONGS,LB,old,z,./images/MONGSLB.png,,,,,,,,,,,,,,,,,,,,,,,,,,,,,,,,,,,
,,,,,,,,,,,,,,,,,,24,2022-02-12_12h31.33.716,lexical_decision_task_DD_L4,2021.2.3,MacIntel,60.0024001,,,,,,,,,,,0.5368,1,,,,,,,,,,,,,,z,1,0.5368,,,,,,,,-0.377125154,-0.41265564,0,0,0,,0,33,33,86,1,AIFED,LB,old,z,./images/AIFEDLB.png,,,,,,,,,,,,,,,,,,,,,,,,,,,,,,,,,,,
,,,,,,,,,,,,,,,,,,24,2022-02-12_12h31.33.716,lexical_decision_task_DD_L4,2021.2.3,MacIntel,60.0024001,,,,,,,,,,,0.6605,1,,,,,,,,,,,,,,z,1,0.6605,,,,,,,,-0.377125154,-0.41265564,0,0,0,,0,34,34,124,1,TUNCH,HB,old,z,./images/TUNCHHB.png,,,,,,,,,,,,,,,,,,,,,,,,,,,,,,,,,,,
,,,,,,,,,,,,,,,,,,24,2022-02-12_12h31.33.716,lexical_decision_task_DD_L4,2021.2.3,MacIntel,60.0024001,,,,,,,,,,,0.7441,1,,,,,,,,,,,,,,m,1,0.7441,,,,,,,,-0.377125154,-0.41265564,0,0,0,,0,35,35,62,1,MAMMAL,LB,old,m,./images/MAMMALLB.png,,,,,,,,,,,,,,,,,,,,,,,,,,,,,,,,,,,
,,,,,,,,,,,,,,,,,,24,2022-02-12_12h31.33.716,lexical_decision_task_DD_L4,2021.2.3,MacIntel,60.0024001,,,,,,,,,,,0.5588,1,,,,,,,,,,,,,,z,1,0.5588,,,,,,,,-0.377125154,-0.41265564,0,0,0,,0,36,36,129,1,PRANS,C,old,z,./images/PRANS.png,,,,,,,,,,,,,,,,,,,,,,,,,,,,,,,,,,,
,,,,,,,,,,,,,,,,,,24,2022-02-12_12h31.33.716,lexical_decision_task_DD_L4,2021.2.3,MacIntel,60.0024001,,,,,,,,,,,0.5115,1,,,,,,,,,,,,,,m,1,0.5115,,,,,,,,-0.377125154,-0.41265564,0,0,0,,0,37,37,21,1,DANCER,C,old,m,./images/DANCER.png,,,,,,,,,,,,,,,,,,,,,,,,,,,,,,,,,,,
,,,,,,,,,,,,,,,,,,24,2022-02-12_12h31.33.716,lexical_decision_task_DD_L4,2021.2.3,MacIntel,60.0024001,,,,,,,,,,,0.9381,0,,,,,,,,,,,,,,m,0,0.9381,,,,,,,,-0.377125154,-0.41265564,0,0,0,,0,38,38,109,1,BURGE,HB,old,z,./images/BURGEHB.png,,,,,,,,,,,,,,,,,,,,,,,,,,,,,,,,,,,
,,,,,,,,,,,,,,,,,,24,2022-02-12_12h31.33.716,lexical_decision_task_DD_L4,2021.2.3,MacIntel,60.0024001,,,,,,,,,,,0.5801,1,,,,,,,,,,,,,,z,1,0.5801,,,,,,,,-0.377125154,-0.41265564,0,0,0,,0,39,39,120,1,RINED,C,old,z,./images/RINED.png,,,,,,,,,,,,,,,,,,,,,,,,,,,,,,,,,,,
,,,,,,,,,,,,,,,,,,24,2022-02-12_12h31.33.716,lexical_decision_task_DD_L4,2021.2.3,MacIntel,60.0024001,,,,,,,,,,,0.5955,1,,,,,,,,,,,,,,m,1,0.5955,,,,,,,,-0.377125154,-0.41265564,0,0,0,,0,40,40,63,1,BAKER,C,old,m,./images/BAKER.png,,,,,,,,,,,,,,,,,,,,,,,,,,,,,,,,,,,
,,,,,,,,,,,,,,,,,,24,2022-02-12_12h31.33.716,lexical_decision_task_DD_L4,2021.2.3,MacIntel,60.0024001,,,,,,,,,,,2.107,1,,,,,,,,,,,,,,z,1,2.107,,,,,,,,-0.377125154,-0.41265564,0,0,0,space,0,41,41,91,1,SHENS,HB,old,z,./images/SHENSHB.png,1.9523,,,,,,,,,,,,,,,,,,,,,,,,,,,,,,,,,,
,,,,,,,,,,,,,,,,,,24,2022-02-12_12h31.33.716,lexical_decision_task_DD_L4,2021.2.3,MacIntel,60.0024001,,,,,,,,,,,0.582,1,,,,,,,,,,,,,,z,1,0.582,,,,,,,,-0.377125154,-0.41265564,0,0,0,,0,42,42,84,1,HAXES,C,old,z,./images/HAXES.png,,,,,,,,,,,,,,,,,,,,,,,,,,,,,,,,,,,
,,,,,,,,,,,,,,,,,,24,2022-02-12_12h31.33.716,lexical_decision_task_DD_L4,2021.2.3,MacIntel,60.0024001,,,,,,,,,,,0.4755,1,,,,,,,,,,,,,,m,1,0.4755,,,,,,,,-0.377125154,-0.41265564,0,0,0,,0,43,43,81,1,DRILL,C,old,m,./images/DRILL.png,,,,,,,,,,,,,,,,,,,,,,,,,,,,,,,,,,,
,,,,,,,,,,,,,,,,,,24,2022-02-12_12h31.33.716,lexical_decision_task_DD_L4,2021.2.3,MacIntel,60.0024001,,,,,,,,,,,0.5262,1,,,,,,,,,,,,,,z,1,0.5262,,,,,,,,-0.377125154,-0.41265564,0,0,0,,0,44,44,87,1,TRING,C,old,z,./images/TRING.png,,,,,,,,,,,,,,,,,,,,,,,,,,,,,,,,,,,
,,,,,,,,,,,,,,,,,,24,2022-02-12_12h31.33.716,lexical_decision_task_DD_L4,2021.2.3,MacIntel,60.0024001,,,,,,,,,,,0.4334,1,,,,,,,,,,,,,,m,1,0.4334,,,,,,,,-0.377125154,-0.41265564,0,0,0,,0,45,45,39,1,CANDY,C,old,m,./images/CANDY.png,,,,,,,,,,,,,,,,,,,,,,,,,,,,,,,,,,,
,,,,,,,,,,,,,,,,,,24,2022-02-12_12h31.33.716,lexical_decision_task_DD_L4,2021.2.3,MacIntel,60.0024001,,,,,,,,,,,0.52,1,,,,,,,,,,,,,,z,1,0.52,,,,,,,,-0.377125154,-0.41265564,0,0,0,,0,46,46,102,1,DULLE,C,old,z,./images/DULLE.png,,,,,,,,,,,,,,,,,,,,,,,,,,,,,,,,,,,
,,,,,,,,,,,,,,,,,,24,2022-02-12_12h31.33.716,lexical_decision_task_DD_L4,2021.2.3,MacIntel,60.0024001,,,,,,,,,,,0.7724,1,,,,,,,,,,,,,,m,1,0.7724,,,,,,,,-0.377125154,-0.41265564,0,0,0,,0,47,47,50,1,PILOT,LB,old,m,./images/PILOTLB.png,,,,,,,,,,,,,,,,,,,,,,,,,,,,,,,,,,,
,,,,,,,,,,,,,,,,,,24,2022-02-12_12h31.33.716,lexical_decision_task_DD_L4,2021.2.3,MacIntel,60.0024001,,,,,,,,,,,0.6253,1,,,,,,,,,,,,,,m,1,0.6253,,,,,,,,-0.377125154,-0.41265564,0,0,0,,0,48,48,36,1,BOILER,C,old,m,./images/BOILER.png,,,,,,,,,,,,,,,,,,,,,,,,,,,,,,,,,,,
,,,,,,,,,,,,,,,,,,24,2022-02-12_12h31.33.716,lexical_decision_task_DD_L4,2021.2.3,MacIntel,60.0024001,,,,,,,,,,,0.6986,1,,,,,,,,,,,,,,m,1,0.6986,,,,,,,,-0.377125154,-0.41265564,0,0,0,,0,49,49,55,1,ALLEY,HB,old,m,./images/ALLEYHB.png,,,,,,,,,,,,,,,,,,,,,,,,,,,,,,,,,,,
,,,,,,,,,,,,,,,,,,24,2022-02-12_12h31.33.716,lexical_decision_task_DD_L4,2021.2.3,MacIntel,60.0024001,,,,,,,,,,,0.7168,1,,,,,,,,,,,,,,z,1,0.7168,,,,,,,,-0.377125154,-0.41265564,0,0,0,,0,50,50,93,1,SMONE,C,old,z,./images/SMONE.png,,,,,,,,,,,,,,,,,,,,,,,,,,,,,,,,,,,
,,,,,,,,,,,,,,,,,,24,2022-02-12_12h31.33.716,lexical_decision_task_DD_L4,2021.2.3,MacIntel,60.0024001,,,,,,,,,,,0.5507,1,,,,,,,,,,,,,,m,1,0.5507,,,,,,,,-0.377125154,-0.41265564,0,0,0,,0,51,51,72,1,FLASK,C,old,m,./images/FLASK.png,,,,,,,,,,,,,,,,,,,,,,,,,,,,,,,,,,,
,,,,,,,,,,,,,,,,,,24,2022-02-12_12h31.33.716,lexical_decision_task_DD_L4,2021.2.3,MacIntel,60.0024001,,,,,,,,,,,0.6448,1,,,,,,,,,,,,,,z,1,0.6448,,,,,,,,-0.377125154,-0.41265564,0,0,0,,0,52,52,152,1,FRAIN,LB,old,z,./images/FRAINLB.png,,,,,,,,,,,,,,,,,,,,,,,,,,,,,,,,,,,
,,,,,,,,,,,,,,,,,,24,2022-02-12_12h31.33.716,lexical_decision_task_DD_L4,2021.2.3,MacIntel,60.0024001,,,,,,,,,,,0.7418,1,,,,,,,,,,,,,,m,1,0.7418,,,,,,,,-0.377125154,-0.41265564,0,0,0,,0,53,53,20,1,GRANNY,LB,old,m,./images/GRANNYLB.png,,,,,,,,,,,,,,,,,,,,,,,,,,,,,,,,,,,
,,,,,,,,,,,,,,,,,,24,2022-02-12_12h31.33.716,lexical_decision_task_DD_L4,2021.2.3,MacIntel,60.0024001,,,,,,,,,,,0.8012,1,,,,,,,,,,,,,,z,1,0.8012,,,,,,,,-0.377125154,-0.41265564,0,0,0,,0,54,54,99,1,BACKY,C,old,z,./images/BACKY.png,,,,,,,,,,,,,,,,,,,,,,,,,,,,,,,,,,,
,,,,,,,,,,,,,,,,,,24,2022-02-12_12h31.33.716,lexical_decision_task_DD_L4,2021.2.3,MacIntel,60.0024001,,,,,,,,,,,0.7915,1,,,,,,,,,,,,,,z,1,0.7915,,,,,,,,-0.377125154,-0.41265564,0,0,0,,0,55,55,145,1,LAMEL,HB,old,z,./images/LAMELHB.png,,,,,,,,,,,,,,,,,,,,,,,,,,,,,,,,,,,
,,,,,,,,,,,,,,,,,,24,2022-02-12_12h31.33.716,lexical_decision_task_DD_L4,2021.2.3,MacIntel,60.0024001,,,,,,,,,,,0.6829,1,,,,,,,,,,,,,,z,1,0.6829,,,,,,,,-0.377125154,-0.41265564,0,0,0,,0,56,56,95,1,HANTY,LB,old,z,./images/HANTYLB.png,,,,,,,,,,,,,,,,,,,,,,,,,,,,,,,,,,,
,,,,,,,,,,,,,,,,,,24,2022-02-12_12h31.33.716,lexical_decision_task_DD_L4,2021.2.3,MacIntel,60.0024001,,,,,,,,,,,0.6001,1,,,,,,,,,,,,,,m,1,0.6001,,,,,,,,-0.377125154,-0.41265564,0,0,0,,0,57,57,6,1,STAIN,C,old,m,./images/STAIN.png,,,,,,,,,,,,,,,,,,,,,,,,,,,,,,,,,,,
,,,,,,,,,,,,,,,,,,24,2022-02-12_12h31.33.716,lexical_decision_task_DD_L4,2021.2.3,MacIntel,60.0024001,,,,,,,,,,,0.7914,1,,,,,,,,,,,,,,m,1,0.7914,,,,,,,,-0.377125154,-0.41265564,0,0,0,,0,58,58,19,1,DONKEY,HB,old,m,./images/DONKEYHB.png,,,,,,,,,,,,,,,,,,,,,,,,,,,,,,,,,,,
,,,,,,,,,,,,,,,,,,24,2022-02-12_12h31.33.716,lexical_decision_task_DD_L4,2021.2.3,MacIntel,60.0024001,,,,,,,,,,,0.5701,1,,,,,,,,,,,,,,m,1,0.5701,,,,,,,,-0.377125154,-0.41265564,0,0,0,,0,59,59,54,1,CHERRY,C,old,m,./images/CHERRY.png,,,,,,,,,,,,,,,,,,,,,,,,,,,,,,,,,,,
,,,,,,,,,,,,,,,,,,24,2022-02-12_12h31.33.716,lexical_decision_task_DD_L4,2021.2.3,MacIntel,60.0024001,,,,,,,,,,,1.0663,1,,,,,,,,,,,,,,z,1,1.0663,,,,,,,,-0.377125154,-0.41265564,0,0,0,,0,60,60,148,1,JOMS,HB,old,z,./images/JOMSHB.png,,,,,,,,,,,,,,,,,,,,,,,,,,,,,,,,,,,
,,,,,,,,,,,,,,,,,,24,2022-02-12_12h31.33.716,lexical_decision_task_DD_L4,2021.2.3,MacIntel,60.0024001,,,,,,,,,,,0.6503,1,,,,,,,,,,,,,,z,1,0.6503,,,,,,,,-0.377125154,-0.41265564,0,0,0,,0,61,61,90,1,NEAST,C,old,z,./images/NEAST.png,,,,,,,,,,,,,,,,,,,,,,,,,,,,,,,,,,,
,,,,,,,,,,,,,,,,,,24,2022-02-12_12h31.33.716,lexical_decision_task_DD_L4,2021.2.3,MacIntel,60.0024001,,,,,,,,,,,0.5825,1,,,,,,,,,,,,,,z,1,0.5825,,,,,,,,-0.377125154,-0.41265564,0,0,0,,0,62,62,125,1,MOOKY,LB,old,z,./images/MOOKYLB.png,,,,,,,,,,,,,,,,,,,,,,,,,,,,,,,,,,,
,,,,,,,,,,,,,,,,,,24,2022-02-12_12h31.33.716,lexical_decision_task_DD_L4,2021.2.3,MacIntel,60.0024001,,,,,,,,,,,1.3702,1,,,,,,,,,,,,,,m,1,1.3702,,,,,,,,-0.377125154,-0.41265564,0,0,0,,0,63,63,64,1,BRIDE,HB,old,m,./images/BRIDEHB.png,,,,,,,,,,,,,,,,,,,,,,,,,,,,,,,,,,,
,,,,,,,,,,,,,,,,,,24,2022-02-12_12h31.33.716,lexical_decision_task_DD_L4,2021.2.3,MacIntel,60.0024001,,,,,,,,,,,1.2807,1,,,,,,,,,,,,,,m,1,1.2807,,,,,,,,-0.377125154,-0.41265564,0,0,0,,0,64,64,82,1,PEBBLE,HB,old,m,./images/PEBBLEHB.png,,,,,,,,,,,,,,,,,,,,,,,,,,,,,,,,,,,
,,,,,,,,,,,,,,,,,,24,2022-02-12_12h31.33.716,lexical_decision_task_DD_L4,2021.2.3,MacIntel,60.0024001,,,,,,,,,,,0.6687,1,,,,,,,,,,,,,,m,1,0.6687,,,,,,,,-0.377125154,-0.41265564,0,0,0,,0,65,65,24,1,FLESH,C,old,m,./images/FLESH.png,,,,,,,,,,,,,,,,,,,,,,,,,,,,,,,,,,,
,,,,,,,,,,,,,,,,,,24,2022-02-12_12h31.33.716,lexical_decision_task_DD_L4,2021.2.3,MacIntel,60.0024001,,,,,,,,,,,0.758,1,,,,,,,,,,,,,,m,1,0.758,,,,,,,,-0.377125154,-0.41265564,0,0,0,,0,66,66,10,1,GARDEN,HB,old,m,./images/GARDENHB.png,,,,,,,,,,,,,,,,,,,,,,,,,,,,,,,,,,,
,,,,,,,,,,,,,,,,,,24,2022-02-12_12h31.33.716,lexical_decision_task_DD_L4,2021.2.3,MacIntel,60.0024001,,,,,,,,,,,1.1191,1,,,,,,,,,,,,,,z,1,1.1191,,,,,,,,-0.377125154,-0.41265564,0,0,0,,0,67,67,133,1,POWDY,HB,old,z,./images/POWDYHB.png,,,,,,,,,,,,,,,,,,,,,,,,,,,,,,,,,,,
,,,,,,,,,,,,,,,,,,24,2022-02-12_12h31.33.716,lexical_decision_task_DD_L4,2021.2.3,MacIntel,60.0024001,,,,,,,,,,,0.5701,1,,,,,,,,,,,,,,z,1,0.5701,,,,,,,,-0.377125154,-0.41265564,0,0,0,,0,68,68,117,1,STEEG,C,old,z,./images/STEEG.png,,,,,,,,,,,,,,,,,,,,,,,,,,,,,,,,,,,
,,,,,,,,,,,,,,,,,,24,2022-02-12_12h31.33.716,lexical_decision_task_DD_L4,2021.2.3,MacIntel,60.0024001,,,,,,,,,,,0.7155,1,,,,,,,,,,,,,,z,1,0.7155,,,,,,,,-0.377125154,-0.41265564,0,0,0,,0,69,69,136,1,WERVE,HB,old,z,./images/WERVEHB.png,,,,,,,,,,,,,,,,,,,,,,,,,,,,,,,,,,,
,,,,,,,,,,,,,,,,,,24,2022-02-12_12h31.33.716,lexical_decision_task_DD_L4,2021.2.3,MacIntel,60.0024001,,,,,,,,,,,0.6322,1,,,,,,,,,,,,,,z,1,0.6322,,,,,,,,-0.377125154,-0.41265564,0,0,0,,0,70,70,155,1,CANGY,LB,old,z,./images/CANGYLB.png,,,,,,,,,,,,,,,,,,,,,,,,,,,,,,,,,,,
,,,,,,,,,,,,,,,,,,24,2022-02-12_12h31.33.716,lexical_decision_task_DD_L4,2021.2.3,MacIntel,60.0024001,,,,,,,,,,,0.7127,1,,,,,,,,,,,,,,m,1,0.7127,,,,,,,,-0.377125154,-0.41265564,0,0,0,,0,71,71,27,1,BUTTER,C,old,m,./images/BUTTER.png,,,,,,,,,,,,,,,,,,,,,,,,,,,,,,,,,,,
,,,,,,,,,,,,,,,,,,24,2022-02-12_12h31.33.716,lexical_decision_task_DD_L4,2021.2.3,MacIntel,60.0024001,,,,,,,,,,,1.2151,1,,,,,,,,,,,,,,m,1,1.2151,,,,,,,,-0.377125154,-0.41265564,0,0,0,,0,72,72,79,1,RULER,HB,old,m,./images/RULERHB.png,,,,,,,,,,,,,,,,,,,,,,,,,,,,,,,,,,,
,,,,,,,,,,,,,,,,,,24,2022-02-12_12h31.33.716,lexical_decision_task_DD_L4,2021.2.3,MacIntel,60.0024001,,,,,,,,,,,0.6129,1,,,,,,,,,,,,,,m,1,0.6129,,,,,,,,-0.377125154,-0.41265564,0,0,0,,0,73,73,15,1,COLLAR,C,old,m,./images/COLLAR.png,,,,,,,,,,,,,,,,,,,,,,,,,,,,,,,,,,,
,,,,,,,,,,,,,,,,,,24,2022-02-12_12h31.33.716,lexical_decision_task_DD_L4,2021.2.3,MacIntel,60.0024001,,,,,,,,,,,0.6616,1,,,,,,,,,,,,,,z,1,0.6616,,,,,,,,-0.377125154,-0.41265564,0,0,0,,0,74,74,162,1,LEICH,C,old,z,./images/LEICH.png,,,,,,,,,,,,,,,,,,,,,,,,,,,,,,,,,,,
,,,,,,,,,,,,,,,,,,24,2022-02-12_12h31.33.716,lexical_decision_task_DD_L4,2021.2.3,MacIntel,60.0024001,,,,,,,,,,,0.6869,1,,,,,,,,,,,,,,z,1,0.6869,,,,,,,,-0.377125154,-0.41265564,0,0,0,,0,75,75,135,1,JOODY,C,old,z,./images/JOODY.png,,,,,,,,,,,,,,,,,,,,,,,,,,,,,,,,,,,
,,,,,,,,,,,,,,,,,,24,2022-02-12_12h31.33.716,lexical_decision_task_DD_L4,2021.2.3,MacIntel,60.0024001,,,,,,,,,,,0.6117,1,,,,,,,,,,,,,,m,1,0.6117,,,,,,,,-0.377125154,-0.41265564,0,0,0,,0,76,76,29,1,PISTOL,LB,old,m,./images/PISTOLLB.png,,,,,,,,,,,,,,,,,,,,,,,,,,,,,,,,,,,
,,,,,,,,,,,,,,,,,,24,2022-02-12_12h31.33.716,lexical_decision_task_DD_L4,2021.2.3,MacIntel,60.0024001,,,,,,,,,,,0.8351,1,,,,,,,,,,,,,,m,1,0.8351,,,,,,,,-0.377125154,-0.41265564,0,0,0,,0,77,77,28,1,CASINO,HB,old,m,./images/CASINOHB.png,,,,,,,,,,,,,,,,,,,,,,,,,,,,,,,,,,,
,,,,,,,,,,,,,,,,,,24,2022-02-12_12h31.33.716,lexical_decision_task_DD_L4,2021.2.3,MacIntel,60.0024001,,,,,,,,,,,0.5981,1,,,,,,,,,,,,,,z,1,0.5981,,,,,,,,-0.377125154,-0.41265564,0,0,0,,0,78,78,116,1,BALGY,LB,old,z,./images/BALGYLB.png,,,,,,,,,,,,,,,,,,,,,,,,,,,,,,,,,,,
,,,,,,,,,,,,,,,,,,24,2022-02-12_12h31.33.716,lexical_decision_task_DD_L4,2021.2.3,MacIntel,60.0024001,,,,,,,,,,,0.5821,1,,,,,,,,,,,,,,z,1,0.5821,,,,,,,,-0.377125154,-0.41265564,0,0,0,,0,79,79,92,1,PAIMS,LB,old,z,./images/PAIMSLB.png,,,,,,,,,,,,,,,,,,,,,,,,,,,,,,,,,,,
,,,,,,,,,,,,,,,,,,24,2022-02-12_12h31.33.716,lexical_decision_task_DD_L4,2021.2.3,MacIntel,60.0024001,,,,,,,,,,,0.5797,1,,,,,,,,,,,,,,m,1,0.5797,,,,,,,,-0.377125154,-0.41265564,0,0,0,,0,80,80,77,1,WHEEL,LB,old,m,./images/WHEELLB.png,,,,,,,,,,,,,,,,,,,,,,,,,,,,,,,,,,,
,,,,,,,,,,,,,,,,,,24,2022-02-12_12h31.33.716,lexical_decision_task_DD_L4,2021.2.3,MacIntel,60.0024001,,,,,,,,,,,0.6467,1,,,,,,,,,,,,,,m,1,0.6467,,,,,,,,-0.377125154,-0.41265564,0,0,0,,0,81,81,31,1,STEAK,HB,old,m,./images/STEAKHB.png,,,,,,,,,,,,,,,,,,,,,,,,,,,,,,,,,,,
,,,,,,,,,,,,,,,,,,24,2022-02-12_12h31.33.716,lexical_decision_task_DD_L4,2021.2.3,MacIntel,60.0024001,,,,,,,,,,,0.9677,1,,,,,,,,,,,,,,m,1,0.9677,,,,,,,,-0.377125154,-0.41265564,0,0,0,,0,82,82,7,1,WAGON,HB,old,m,./images/WAGONHB.png,,,,,,,,,,,,,,,,,,,,,,,,,,,,,,,,,,,
,,,,,,,,,,,,,,,,,,24,2022-02-12_12h31.33.716,lexical_decision_task_DD_L4,2021.2.3,MacIntel,60.0024001,,,,,,,,,,,0.5636,1,,,,,,,,,,,,,,z,1,0.5636,,,,,,,,-0.377125154,-0.41265564,0,0,0,space,0,83,83,107,1,FASKS,LB,old,z,./images/FASKSLB.png,1.4741,,,,,,,,,,,,,,,,,,,,,,,,,,,,,,,,,,
,,,,,,,,,,,,,,,,,,24,2022-02-12_12h31.33.716,lexical_decision_task_DD_L4,2021.2.3,MacIntel,60.0024001,,,,,,,,,,,0.7364,0,,,,,,,,,,,,,,z,0,0.7364,,,,,,,,-0.377125154,-0.41265564,0,0,0,,0,84,84,76,1,MIDGET,HB,old,m,./images/MIDGETHB.png,,,,,,,,,,,,,,,,,,,,,,,,,,,,,,,,,,,
,,,,,,,,,,,,,,,,,,24,2022-02-12_12h31.33.716,lexical_decision_task_DD_L4,2021.2.3,MacIntel,60.0024001,,,,,,,,,,,0.4973,1,,,,,,,,,,,,,,m,1,0.4973,,,,,,,,-0.377125154,-0.41265564,0,0,0,,0,85,85,32,1,HOCKEY,LB,old,m,./images/HOCKEYLB.png,,,,,,,,,,,,,,,,,,,,,,,,,,,,,,,,,,,
,,,,,,,,,,,,,,,,,,24,2022-02-12_12h31.33.716,lexical_decision_task_DD_L4,2021.2.3,MacIntel,60.0024001,,,,,,,,,,,0.5969,1,,,,,,,,,,,,,,z,1,0.5969,,,,,,,,-0.377125154,-0.41265564,0,0,0,,0,86,86,140,1,DOVET,LB,old,z,./images/DOVETLB.png,,,,,,,,,,,,,,,,,,,,,,,,,,,,,,,,,,,
,,,,,,,,,,,,,,,,,,24,2022-02-12_12h31.33.716,lexical_decision_task_DD_L4,2021.2.3,MacIntel,60.0024001,,,,,,,,,,,0.7647,1,,,,,,,,,,,,,,z,1,0.7647,,,,,,,,-0.377125154,-0.41265564,0,0,0,,0,87,87,103,1,FLORT,HB,old,z,./images/FLORTHB.png,,,,,,,,,,,,,,,,,,,,,,,,,,,,,,,,,,,
,,,,,,,,,,,,,,,,,,24,2022-02-12_12h31.33.716,lexical_decision_task_DD_L4,2021.2.3,MacIntel,60.0024001,,,,,,,,,,,0.6096,1,,,,,,,,,,,,,,m,1,0.6096,,,,,,,,-0.377125154,-0.41265564,0,0,0,,0,88,88,30,1,SLOPE,C,old,m,./images/SLOPE.png,,,,,,,,,,,,,,,,,,,,,,,,,,,,,,,,,,,
,,,,,,,,,,,,,,,,,,24,2022-02-12_12h31.33.716,lexical_decision_task_DD_L4,2021.2.3,MacIntel,60.0024001,,,,,,,,,,,1.2783,1,,,,,,,,,,,,,,z,1,1.2783,,,,,,,,-0.377125154,-0.41265564,0,0,0,,0,89,89,157,1,INLER,HB,old,z,./images/INLERHB.png,,,,,,,,,,,,,,,,,,,,,,,,,,,,,,,,,,,
,,,,,,,,,,,,,,,,,,24,2022-02-12_12h31.33.716,lexical_decision_task_DD_L4,2021.2.3,MacIntel,60.0024001,,,,,,,,,,,0.5819,1,,,,,,,,,,,,,,m,1,0.5819,,,,,,,,-0.377125154,-0.41265564,0,0,0,,0,90,90,68,1,VALLEY,LB,old,m,./images/VALLEYLB.png,,,,,,,,,,,,,,,,,,,,,,,,,,,,,,,,,,,
,,,,,,,,,,,,,,,,,,24,2022-02-12_12h31.33.716,lexical_decision_task_DD_L4,2021.2.3,MacIntel,60.0024001,,,,,,,,,,,0.6032,1,,,,,,,,,,,,,,m,1,0.6032,,,,,,,,-0.377125154,-0.41265564,0,0,0,,0,91,91,17,1,PARADE,LB,old,m,./images/PARADELB.png,,,,,,,,,,,,,,,,,,,,,,,,,,,,,,,,,,,
,,,,,,,,,,,,,,,,,,24,2022-02-12_12h31.33.716,lexical_decision_task_DD_L4,2021.2.3,MacIntel,60.0024001,,,,,,,,,,,0.6967,1,,,,,,,,,,,,,,m,1,0.6967,,,,,,,,-0.377125154,-0.41265564,0,0,0,,0,92,92,5,1,BAMBOO,LB,old,m,./images/BAMBOOLB.png,,,,,,,,,,,,,,,,,,,,,,,,,,,,,,,,,,,
,,,,,,,,,,,,,,,,,,24,2022-02-12_12h31.33.716,lexical_decision_task_DD_L4,2021.2.3,MacIntel,60.0024001,,,,,,,,,,,0.5638,1,,,,,,,,,,,,,,z,1,0.5638,,,,,,,,-0.377125154,-0.41265564,0,0,0,,0,93,93,119,1,PAFER,LB,old,z,./images/PAFERLB.png,,,,,,,,,,,,,,,,,,,,,,,,,,,,,,,,,,,
,,,,,,,,,,,,,,,,,,24,2022-02-12_12h31.33.716,lexical_decision_task_DD_L4,2021.2.3,MacIntel,60.0024001,,,,,,,,,,,0.53,1,,,,,,,,,,,,,,m,1,0.53,,,,,,,,-0.377125154,-0.41265564,0,0,0,,0,94,94,65,1,SPINE,LB,old,m,./images/SPINELB.png,,,,,,,,,,,,,,,,,,,,,,,,,,,,,,,,,,,
,,,,,,,,,,,,,,,,,,24,2022-02-12_12h31.33.716,lexical_decision_task_DD_L4,2021.2.3,MacIntel,60.0024001,,,,,,,,,,,0.5465,1,,,,,,,,,,,,,,m,1,0.5465,,,,,,,,-0.377125154,-0.41265564,0,0,0,,0,95,95,14,1,FENCE,LB,old,m,./images/FENCELB.png,,,,,,,,,,,,,,,,,,,,,,,,,,,,,,,,,,,
,,,,,,,,,,,,,,,,,,24,2022-02-12_12h31.33.716,lexical_decision_task_DD_L4,2021.2.3,MacIntel,60.0024001,,,,,,,,,,,0.6045,1,,,,,,,,,,,,,,z,1,0.6045,,,,,,,,-0.377125154,-0.41265564,0,0,0,,0,96,96,167,1,ZONET,LB,old,z,./images/ZONETLB.png,,,,,,,,,,,,,,,,,,,,,,,,,,,,,,,,,,,
,,,,,,,,,,,,,,,,,,24,2022-02-12_12h31.33.716,lexical_decision_task_DD_L4,2021.2.3,MacIntel,60.0024001,,,,,,,,,,,1.6943,0,,,,,,,,,,,,,,z,0,1.6943,,,,,,,,-0.377125154,-0.41265564,0,0,0,,0,97,97,37,1,TIGER,HB,old,m,./images/TIGERHB.png,,,,,,,,,,,,,,,,,,,,,,,,,,,,,,,,,,,
,,,,,,,,,,,,,,,,,,24,2022-02-12_12h31.33.716,lexical_decision_task_DD_L4,2021.2.3,MacIntel,60.0024001,,,,,,,,,,,4.0305,1,,,,,,,,,,,,,,z,1,4.0305,,,,,,,,-0.377125154,-0.41265564,0,0,0,,0,98,98,85,1,CHULK,HB,old,z,./images/CHULKHB.png,,,,,,,,,,,,,,,,,,,,,,,,,,,,,,,,,,,
,,,,,,,,,,,,,,,,,,24,2022-02-12_12h31.33.716,lexical_decision_task_DD_L4,2021.2.3,MacIntel,60.0024001,,,,,,,,,,,0.5821,1,,,,,,,,,,,,,,z,1,0.5821,,,,,,,,-0.377125154,-0.41265564,0,0,0,,0,99,99,158,1,EGECT,LB,old,z,./images/EGECTLB.png,,,,,,,,,,,,,,,,,,,,,,,,,,,,,,,,,,,
,,,,,,,,,,,,,,,,,,24,2022-02-12_12h31.33.716,lexical_decision_task_DD_L4,2021.2.3,MacIntel,60.0024001,,,,,,,,,,,1.9309,1,,,,,,,,,,,,,,m,1,1.9309,,,,,,,,-0.377125154,-0.41265564,0,0,0,,0,100,100,58,1,CANOE,HB,old,m,./images/CANOEHB.png,,,,,,,,,,,,,,,,,,,,,,,,,,,,,,,,,,,
,,,,,,,,,,,,,,,,,,24,2022-02-12_12h31.33.716,lexical_decision_task_DD_L4,2021.2.3,MacIntel,60.0024001,,,,,,,,,,,0.7115,1,,,,,,,,,,,,,,z,1,0.7115,,,,,,,,-0.377125154,-0.41265564,0,0,0,,0,101,101,146,1,MOOST,LB,old,z,./images/MOOSTLB.png,,,,,,,,,,,,,,,,,,,,,,,,,,,,,,,,,,,
,,,,,,,,,,,,,,,,,,24,2022-02-12_12h31.33.716,lexical_decision_task_DD_L4,2021.2.3,MacIntel,60.0024001,,,,,,,,,,,0.5718,1,,,,,,,,,,,,,,z,1,0.5718,,,,,,,,-0.377125154,-0.41265564,0,0,0,,0,102,102,108,1,GRUET,C,old,z,./images/GRUET.png,,,,,,,,,,,,,,,,,,,,,,,,,,,,,,,,,,,
,,,,,,,,,,,,,,,,,,24,2022-02-12_12h31.33.716,lexical_decision_task_DD_L4,2021.2.3,MacIntel,60.0024001,,,,,,,,,,,1.6493,1,,,,,,,,,,,,,,m,1,1.6493,,,,,,,,-0.377125154,-0.41265564,0,0,0,,0,103,103,4,1,BOXER,HB,old,m,./images/BOXERHB.png,,,,,,,,,,,,,,,,,,,,,,,,,,,,,,,,,,,
,,,,,,,,,,,,,,,,,,24,2022-02-12_12h31.33.716,lexical_decision_task_DD_L4,2021.2.3,MacIntel,60.0024001,,,,,,,,,,,0.8628,1,,,,,,,,,,,,,,m,1,0.8628,,,,,,,,-0.377125154,-0.41265564,0,0,0,,0,104,104,34,1,RAZOR,HB,old,m,./images/RAZORHB.png,,,,,,,,,,,,,,,,,,,,,,,,,,,,,,,,,,,
,,,,,,,,,,,,,,,,,,24,2022-02-12_12h31.33.716,lexical_decision_task_DD_L4,2021.2.3,MacIntel,60.0024001,,,,,,,,,,,0.5518,1,,,,,,,,,,,,,,m,1,0.5518,,,,,,,,-0.377125154,-0.41265564,0,0,0,,0,105,105,71,1,BUBBLE,LB,old,m,./images/BUBBLELB.png,,,,,,,,,,,,,,,,,,,,,,,,,,,,,,,,,,,
,,,,,,,,,,,,,,,,,,24,2022-02-12_12h31.33.716,lexical_decision_task_DD_L4,2021.2.3,MacIntel,60.0024001,,,,,,,,,,,0.8943,1,,,,,,,,,,,,,,z,1,0.8943,,,,,,,,-0.377125154,-0.41265564,0,0,0,,0,106,106,123,1,SEDGE,C,old,z,./images/SEDGE.png,,,,,,,,,,,,,,,,,,,,,,,,,,,,,,,,,,,
,,,,,,,,,,,,,,,,,,24,2022-02-12_12h31.33.716,lexical_decision_task_DD_L4,2021.2.3,MacIntel,60.0024001,,,,,,,,,,,0.509,1,,,,,,,,,,,,,,z,1,0.509,,,,,,,,-0.377125154,-0.41265564,0,0,0,,0,107,107,147,1,ZOLES,C,old,z,./images/ZOLES.png,,,,,,,,,,,,,,,,,,,,,,,,,,,,,,,,,,,
,,,,,,,,,,,,,,,,,,24,2022-02-12_12h31.33.716,lexical_decision_task_DD_L4,2021.2.3,MacIntel,60.0024001,,,,,,,,,,,0.6131,1,,,,,,,,,,,,,,m,1,0.6131,,,,,,,,-0.377125154,-0.41265564,0,0,0,,0,108,108,13,1,BUNNY,HB,old,m,./images/BUNNYHB.png,,,,,,,,,,,,,,,,,,,,,,,,,,,,,,,,,,,
,,,,,,,,,,,,,,,,,,24,2022-02-12_12h31.33.716,lexical_decision_task_DD_L4,2021.2.3,MacIntel,60.0024001,,,,,,,,,,,1.6868,1,,,,,,,,,,,,,,z,1,1.6868,,,,,,,,-0.377125154,-0.41265564,0,0,0,,0,109,109,112,1,MYING,HB,old,z,./images/MYINGHB.png,,,,,,,,,,,,,,,,,,,,,,,,,,,,,,,,,,,
,,,,,,,,,,,,,,,,,,24,2022-02-12_12h31.33.716,lexical_decision_task_DD_L4,2021.2.3,MacIntel,60.0024001,,,,,,,,,,,2.0705,1,,,,,,,,,,,,,,z,1,2.0705,,,,,,,,-0.377125154,-0.41265564,0,0,0,,0,110,110,151,1,TINKY,HB,old,z,./images/TINKYHB.png,,,,,,,,,,,,,,,,,,,,,,,,,,,,,,,,,,,
,,,,,,,,,,,,,,,,,,24,2022-02-12_12h31.33.716,lexical_decision_task_DD_L4,2021.2.3,MacIntel,60.0024001,,,,,,,,,,,0.7142,1,,,,,,,,,,,,,,m,1,0.7142,,,,,,,,-0.377125154,-0.41265564,0,0,0,,0,111,111,61,1,ARTIST,HB,old,m,./images/ARTISTHB.png,,,,,,,,,,,,,,,,,,,,,,,,,,,,,,,,,,,
,,,,,,,,,,,,,,,,,,24,2022-02-12_12h31.33.716,lexical_decision_task_DD_L4,2021.2.3,MacIntel,60.0024001,,,,,,,,,,,0.6304,1,,,,,,,,,,,,,,m,1,0.6304,,,,,,,,-0.377125154,-0.41265564,0,0,0,,0,112,112,22,1,CLOWN,HB,old,m,./images/CLOWNHB.png,,,,,,,,,,,,,,,,,,,,,,,,,,,,,,,,,,,
,,,,,,,,,,,,,,,,,,24,2022-02-12_12h31.33.716,lexical_decision_task_DD_L4,2021.2.3,MacIntel,60.0024001,,,,,,,,,,,0.4884,1,,,,,,,,,,,,,,m,1,0.4884,,,,,,,,-0.377125154,-0.41265564,0,0,0,,0,113,113,75,1,HAMMER,C,old,m,./images/HAMMER.png,,,,,,,,,,,,,,,,,,,,,,,,,,,,,,,,,,,
,,,,,,,,,,,,,,,,,,24,2022-02-12_12h31.33.716,lexical_decision_task_DD_L4,2021.2.3,MacIntel,60.0024001,,,,,,,,,,,1.859,1,,,,,,,,,,,,,,z,1,1.859,,,,,,,,-0.377125154,-0.41265564,0,0,0,,0,114,114,139,1,BLEAR,HB,old,z,./images/BLEARHB.png,,,,,,,,,,,,,,,,,,,,,,,,,,,,,,,,,,,
,,,,,,,,,,,,,,,,,,24,2022-02-12_12h31.33.716,lexical_decision_task_DD_L4,2021.2.3,MacIntel,60.0024001,,,,,,,,,,,1.6879,1,,,,,,,,,,,,,,z,1,1.6879,,,,,,,,-0.377125154,-0.41265564,0,0,0,,0,115,115,97,1,CHIDS,HB,old,z,./images/CHIDSHB.png,,,,,,,,,,,,,,,,,,,,,,,,,,,,,,,,,,,
,,,,,,,,,,,,,,,,,,24,2022-02-12_12h31.33.716,lexical_decision_task_DD_L4,2021.2.3,MacIntel,60.0024001,,,,,,,,,,,0.5187,1,,,,,,,,,,,,,,m,1,0.5187,,,,,,,,-0.377125154,-0.41265564,0,0,0,,0,116,116,66,1,STATUE,C,old,m,./images/STATUE.png,,,,,,,,,,,,,,,,,,,,,,,,,,,,,,,,,,,
,,,,,,,,,,,,,,,,,,24,2022-02-12_12h31.33.716,lexical_decision_task_DD_L4,2021.2.3,MacIntel,60.0024001,,,,,,,,,,,0.7396,1,,,,,,,,,,,,,,m,1,0.7396,,,,,,,,-0.377125154,-0.41265564,0,0,0,,0,117,117,16,1,GRAPE,HB,old,m,./images/GRAPEHB.png,,,,,,,,,,,,,,,,,,,,,,,,,,,,,,,,,,,
,,,,,,,,,,,,,,,,,,24,2022-02-12_12h31.33.716,lexical_decision_task_DD_L4,2021.2.3,MacIntel,60.0024001,,,,,,,,,,,0.9148,1,,,,,,,,,,,,,,z,1,0.9148,,,,,,,,-0.377125154,-0.41265564,0,0,0,,0,118,118,115,1,MAWNS,HB,old,z,./images/MAWNSHB.png,,,,,,,,,,,,,,,,,,,,,,,,,,,,,,,,,,,
,,,,,,,,,,,,,,,,,,24,2022-02-12_12h31.33.716,lexical_decision_task_DD_L4,2021.2.3,MacIntel,60.0024001,,,,,,,,,,,0.3776,1,,,,,,,,,,,,,,m,1,0.3776,,,,,,,,-0.377125154,-0.41265564,0,0,0,,0,119,119,12,1,BLOKE,C,old,m,./images/BLOKE.png,,,,,,,,,,,,,,,,,,,,,,,,,,,,,,,,,,,
,,,,,,,,,,,,,,,,,,24,2022-02-12_12h31.33.716,lexical_decision_task_DD_L4,2021.2.3,MacIntel,60.0024001,,,,,,,,,,,0.5814,1,,,,,,,,,,,,,,m,1,0.5814,,,,,,,,-0.377125154,-0.41265564,0,0,0,,0,120,120,57,1,FERRY,C,old,m,./images/FERRY.png,,,,,,,,,,,,,,,,,,,,,,,,,,,,,,,,,,,
,,,,,,,,,,,,,,,,,,24,2022-02-12_12h31.33.716,lexical_decision_task_DD_L4,2021.2.3,MacIntel,60.0024001,,,,,,,,,,,0.6082,1,,,,,,,,,,,,,,m,1,0.6082,,,,,,,,-0.377125154,-0.41265564,0,0,0,,0,121,121,43,1,STOOL,HB,old,m,./images/STOOLHB.png,,,,,,,,,,,,,,,,,,,,,,,,,,,,,,,,,,,
,,,,,,,,,,,,,,,,,,24,2022-02-12_12h31.33.716,lexical_decision_task_DD_L4,2021.2.3,MacIntel,60.0024001,,,,,,,,,,,0.5359,1,,,,,,,,,,,,,,m,1,0.5359,,,,,,,,-0.377125154,-0.41265564,0,0,0,,0,122,122,18,1,PARCEL,C,old,m,./images/PARCEL.png,,,,,,,,,,,,,,,,,,,,,,,,,,,,,,,,,,,
,,,,,,,,,,,,,,,,,,24,2022-02-12_12h31.33.716,lexical_decision_task_DD_L4,2021.2.3,MacIntel,60.0024001,,,,,,,,,,,0.4843,1,,,,,,,,,,,,,,m,1,0.4843,,,,,,,,-0.377125154,-0.41265564,0,0,0,,0,123,123,60,1,CURRY,C,old,m,./images/CURRY.png,,,,,,,,,,,,,,,,,,,,,,,,,,,,,,,,,,,
,,,,,,,,,,,,,,,,,,24,2022-02-12_12h31.33.716,lexical_decision_task_DD_L4,2021.2.3,MacIntel,60.0024001,,,,,,,,,,,0.4982,1,,,,,,,,,,,,,,m,1,0.4982,,,,,,,,-0.377125154,-0.41265564,0,0,0,,0,124,124,51,1,SAUCE,C,old,m,./images/SAUCE.png,,,,,,,,,,,,,,,,,,,,,,,,,,,,,,,,,,,
,,,,,,,,,,,,,,,,,,24,2022-02-12_12h31.33.716,lexical_decision_task_DD_L4,2021.2.3,MacIntel,60.0024001,,,,,,,,,,,0.7619,1,,,,,,,,,,,,,,m,1,0.7619,,,,,,,,-0.377125154,-0.41265564,0,0,0,space,0,125,125,52,1,DESERT,HB,old,m,./images/DESERTHB.png,1.3725,,,,,,,,,,,,,,,,,,,,,,,,,,,,,,,,,,
,,,,,,,,,,,,,,,,,,24,2022-02-12_12h31.33.716,lexical_decision_task_DD_L4,2021.2.3,MacIntel,60.0024001,,,,,,,,,,,0.9758,1,,,,,,,,,,,,,,z,1,0.9758,,,,,,,,-0.377125154,-0.41265564,0,0,0,,0,126,126,130,1,CRILL,HB,old,z,./images/CRILLHB.png,,,,,,,,,,,,,,,,,,,,,,,,,,,,,,,,,,,
,,,,,,,,,,,,,,,,,,24,2022-02-12_12h31.33.716,lexical_decision_task_DD_L4,2021.2.3,MacIntel,60.0024001,,,,,,,,,,,0.6522,1,,,,,,,,,,,,,,z,1,0.6522,,,,,,,,-0.377125154,-0.41265564,0,0,0,,0,127,127,165,1,TROWN,C,old,z,./images/TROWN.png,,,,,,,,,,,,,,,,,,,,,,,,,,,,,,,,,,,
,,,,,,,,,,,,,,,,,,24,2022-02-12_12h31.33.716,lexical_decision_task_DD_L4,2021.2.3,MacIntel,60.0024001,,,,,,,,,,,0.5313,1,,,,,,,,,,,,,,m,1,0.5313,,,,,,,,-0.377125154,-0.41265564,0,0,0,,0,128,128,48,1,SHIELD,C,old,m,./images/SHIELD.png,,,,,,,,,,,,,,,,,,,,,,,,,,,,,,,,,,,
,,,,,,,,,,,,,,,,,,24,2022-02-12_12h31.33.716,lexical_decision_task_DD_L4,2021.2.3,MacIntel,60.0024001,,,,,,,,,,,0.504,1,,,,,,,,,,,,,,m,1,0.504,,,,,,,,-0.377125154,-0.41265564,0,0,0,,0,129,129,83,1,WHISKY,LB,old,m,./images/WHISKYLB.png,,,,,,,,,,,,,,,,,,,,,,,,,,,,,,,,,,,
,,,,,,,,,,,,,,,,,,24,2022-02-12_12h31.33.716,lexical_decision_task_DD_L4,2021.2.3,MacIntel,60.0024001,,,,,,,,,,,0.7234,1,,,,,,,,,,,,,,z,1,0.7234,,,,,,,,-0.377125154,-0.41265564,0,0,0,,0,130,130,153,1,CLUPS,C,old,z,./images/CLUPS.png,,,,,,,,,,,,,,,,,,,,,,,,,,,,,,,,,,,
,,,,,,,,,,,,,,,,,,24,2022-02-12_12h31.33.716,lexical_decision_task_DD_L4,2021.2.3,MacIntel,60.0024001,,,,,,,,,,,0.5438,1,,,,,,,,,,,,,,m,1,0.5438,,,,,,,,-0.377125154,-0.41265564,0,0,0,,0,131,131,74,1,JUMPER,LB,old,m,./images/JUMPERLB.png,,,,,,,,,,,,,,,,,,,,,,,,,,,,,,,,,,,
,,,,,,,,,,,,,,,,,,24,2022-02-12_12h31.33.716,lexical_decision_task_DD_L4,2021.2.3,MacIntel,60.0024001,,,,,,,,,,,1.0335,1,,,,,,,,,,,,,,z,1,1.0335,,,,,,,,-0.377125154,-0.41265564,0,0,0,,0,132,132,94,1,BLANS,HB,old,z,./images/BLANSHB.png,,,,,,,,,,,,,,,,,,,,,,,,,,,,,,,,,,,
,,,,,,,,,,,,,,,,,,24,2022-02-12_12h31.33.716,lexical_decision_task_DD_L4,2021.2.3,MacIntel,60.0024001,,,,,,,,,,,0.4819,1,,,,,,,,,,,,,,m,1,0.4819,,,,,,,,-0.377125154,-0.41265564,0,0,0,,0,133,133,26,1,CLOUD,LB,old,m,./images/CLOUDLB.png,,,,,,,,,,,,,,,,,,,,,,,,,,,,,,,,,,,
,,,,,,,,,,,,,,,,,,24,2022-02-12_12h31.33.716,lexical_decision_task_DD_L4,2021.2.3,MacIntel,60.0024001,,,,,,,,,,,1.7365,1,,,,,,,,,,,,,,z,1,1.7365,,,,,,,,-0.377125154,-0.41265564,0,0,0,,0,134,134,118,1,BAVEL,HB,old,z,./images/BAVELHB.png,,,,,,,,,,,,,,,,,,,,,,,,,,,,,,,,,,,
,,,,,,,,,,,,,,,,,,24,2022-02-12_12h31.33.716,lexical_decision_task_DD_L4,2021.2.3,MacIntel,60.0024001,,,,,,,,,,,1.1335,1,,,,,,,,,,,,,,z,1,1.1335,,,,,,,,-0.377125154,-0.41265564,0,0,0,,0,135,135,88,1,GLUSH,HB,old,z,./images/GLUSHHB.png,,,,,,,,,,,,,,,,,,,,,,,,,,,,,,,,,,,
,,,,,,,,,,,,,,,,,,24,2022-02-12_12h31.33.716,lexical_decision_task_DD_L4,2021.2.3,MacIntel,60.0024001,,,,,,,,,,,0.651,1,,,,,,,,,,,,,,z,1,0.651,,,,,,,,-0.377125154,-0.41265564,0,0,0,,0,136,136,101,1,GLEET,LB,old,z,./images/GLEETLB.png,,,,,,,,,,,,,,,,,,,,,,,,,,,,,,,,,,,
,,,,,,,,,,,,,,,,,,24,2022-02-12_12h31.33.716,lexical_decision_task_DD_L4,2021.2.3,MacIntel,60.0024001,,,,,,,,,,,0.7002,1,,,,,,,,,,,,,,m,1,0.7002,,,,,,,,-0.377125154,-0.41265564,0,0,0,,0,137,137,70,1,BANANA,HB,old,m,./images/BANANAHB.png,,,,,,,,,,,,,,,,,,,,,,,,,,,,,,,,,,,
,,,,,,,,,,,,,,,,,,24,2022-02-12_12h31.33.716,lexical_decision_task_DD_L4,2021.2.3,MacIntel,60.0024001,,,,,,,,,,,0.713,1,,,,,,,,,,,,,,m,1,0.713,,,,,,,,-0.377125154,-0.41265564,0,0,0,,0,138,138,78,1,BROOM,C,old,m,./images/BROOM.png,,,,,,,,,,,,,,,,,,,,,,,,,,,,,,,,,,,
,,,,,,,,,,,,,,,,,,24,2022-02-12_12h31.33.716,lexical_decision_task_DD_L4,2021.2.3,MacIntel,60.0024001,,,,,,,,,,,0.6163,1,,,,,,,,,,,,,,m,1,0.6163,,,,,,,,-0.377125154,-0.41265564,0,0,0,,0,139,139,41,1,STREAM,LB,old,m,./images/STREAMLB.png,,,,,,,,,,,,,,,,,,,,,,,,,,,,,,,,,,,
,,,,,,,,,,,,,,,,,,24,2022-02-12_12h31.33.716,lexical_decision_task_DD_L4,2021.2.3,MacIntel,60.0024001,,,,,,,,,,,0.6978,1,,,,,,,,,,,,,,m,1,0.6978,,,,,,,,-0.377125154,-0.41265564,0,0,0,,0,140,140,8,1,CLIFF,LB,old,m,./images/CLIFFLB.png,,,,,,,,,,,,,,,,,,,,,,,,,,,,,,,,,,,
,,,,,,,,,,,,,,,,,,24,2022-02-12_12h31.33.716,lexical_decision_task_DD_L4,2021.2.3,MacIntel,60.0024001,,,,,,,,,,,0.8349,1,,,,,,,,,,,,,,z,1,0.8349,,,,,,,,-0.377125154,-0.41265564,0,0,0,,0,141,141,110,1,CRUNK,LB,old,z,./images/CRUNKLB.png,,,,,,,,,,,,,,,,,,,,,,,,,,,,,,,,,,,
,,,,,,,,,,,,,,,,,,24,2022-02-12_12h31.33.716,lexical_decision_task_DD_L4,2021.2.3,MacIntel,60.0024001,,,,,,,,,,,0.648,1,,,,,,,,,,,,,,m,1,0.648,,,,,,,,-0.377125154,-0.41265564,0,0,0,,0,142,142,38,1,ENGINE,LB,old,m,./images/ENGINELB.png,,,,,,,,,,,,,,,,,,,,,,,,,,,,,,,,,,,
,,,,,,,,,,,,,,,,,,24,2022-02-12_12h31.33.716,lexical_decision_task_DD_L4,2021.2.3,MacIntel,60.0024001,,,,,,,,,,,0.6311,1,,,,,,,,,,,,,,z,1,0.6311,,,,,,,,-0.377125154,-0.41265564,0,0,0,,0,143,143,159,1,CUDDY,C,old,z,./images/CUDDY.png,,,,,,,,,,,,,,,,,,,,,,,,,,,,,,,,,,,
,,,,,,,,,,,,,,,,,,24,2022-02-12_12h31.33.716,lexical_decision_task_DD_L4,2021.2.3,MacIntel,60.0024001,,,,,,,,,,,1.6345,1,,,,,,,,,,,,,,z,1,1.6345,,,,,,,,-0.377125154,-0.41265564,0,0,0,,0,144,144,166,1,SHORY,HB,old,z,./images/SHORYHB.png,,,,,,,,,,,,,,,,,,,,,,,,,,,,,,,,,,,
,,,,,,,,,,,,,,,,,,24,2022-02-12_12h31.33.716,lexical_decision_task_DD_L4,2021.2.3,MacIntel,60.0024001,,,,,,,,,,,1.0024,1,,,,,,,,,,,,,,z,1,1.0024,,,,,,,,-0.377125154,-0.41265564,0,0,0,,0,145,145,98,1,BAMPS,LB,old,z,./images/BAMPSLB.png,,,,,,,,,,,,,,,,,,,,,,,,,,,,,,,,,,,
,,,,,,,,,,,,,,,,,,24,2022-02-12_12h31.33.716,lexical_decision_task_DD_L4,2021.2.3,MacIntel,60.0024001,,,,,,,,,,,0.5807,1,,,,,,,,,,,,,,z,1,0.5807,,,,,,,,-0.377125154,-0.41265564,0,0,0,,0,146,146,105,1,MOKER,C,old,z,./images/MOKER.png,,,,,,,,,,,,,,,,,,,,,,,,,,,,,,,,,,,
,,,,,,,,,,,,,,,,,,24,2022-02-12_12h31.33.716,lexical_decision_task_DD_L4,2021.2.3,MacIntel,60.0024001,,,,,,,,,,,1.3293,1,,,,,,,,,,,,,,m,1,1.3293,,,,,,,,-0.377125154,-0.41265564,0,0,0,,0,147,147,40,1,SNAKE,HB,old,m,./images/SNAKEHB.png,,,,,,,,,,,,,,,,,,,,,,,,,,,,,,,,,,,
,,,,,,,,,,,,,,,,,,24,2022-02-12_12h31.33.716,lexical_decision_task_DD_L4,2021.2.3,MacIntel,60.0024001,,,,,,,,,,,0.5645,1,,,,,,,,,,,,,,z,1,0.5645,,,,,,,,-0.377125154,-0.41265564,0,0,0,,0,148,148,131,1,NACES,LB,old,z,./images/NACESLB.png,,,,,,,,,,,,,,,,,,,,,,,,,,,,,,,,,,,
,,,,,,,,,,,,,,,,,,24,2022-02-12_12h31.33.716,lexical_decision_task_DD_L4,2021.2.3,MacIntel,60.0024001,,,,,,,,,,,0.5184,1,,,,,,,,,,,,,,m,1,0.5184,,,,,,,,-0.377125154,-0.41265564,0,0,0,,0,149,149,80,1,PLANET,LB,old,m,./images/PLANETLB.png,,,,,,,,,,,,,,,,,,,,,,,,,,,,,,,,,,,
,,,,,,,,,,,,,,,,,,24,2022-02-12_12h31.33.716,lexical_decision_task_DD_L4,2021.2.3,MacIntel,60.0024001,,,,,,,,,,,0.7838,1,,,,,,,,,,,,,,z,1,0.7838,,,,,,,,-0.377125154,-0.41265564,0,0,0,,0,150,150,100,1,DRIBS,HB,old,z,./images/DRIBSHB.png,,,,,,,,,,,,,,,,,,,,,,,,,,,,,,,,,,,
,,,,,,,,,,,,,,,,,,24,2022-02-12_12h31.33.716,lexical_decision_task_DD_L4,2021.2.3,MacIntel,60.0024001,,,,,,,,,,,0.5763,1,,,,,,,,,,,,,,z,1,0.5763,,,,,,,,-0.377125154,-0.41265564,0,0,0,,0,151,151,144,1,NAIRY,C,old,z,./images/NAIRY.png,,,,,,,,,,,,,,,,,,,,,,,,,,,,,,,,,,,
,,,,,,,,,,,,,,,,,,24,2022-02-12_12h31.33.716,lexical_decision_task_DD_L4,2021.2.3,MacIntel,60.0024001,,,,,,,,,,,0.8816,1,,,,,,,,,,,,,,z,1,0.8816,,,,,,,,-0.377125154,-0.41265564,0,0,0,,0,152,152,154,1,THINT,HB,old,z,./images/THINTHB.png,,,,,,,,,,,,,,,,,,,,,,,,,,,,,,,,,,,
,,,,,,,,,,,,,,,,,,24,2022-02-12_12h31.33.716,lexical_decision_task_DD_L4,2021.2.3,MacIntel,60.0024001,,,,,,,,,,,1.0404,0,,,,,,,,,,,,,,m,0,1.0404,,,,,,,,-0.377125154,-0.41265564,0,0,0,,0,153,153,142,1,PLASK,HB,old,z,./images/PLASKHB.png,,,,,,,,,,,,,,,,,,,,,,,,,,,,,,,,,,,
,,,,,,,,,,,,,,,,,,24,2022-02-12_12h31.33.716,lexical_decision_task_DD_L4,2021.2.3,MacIntel,60.0024001,,,,,,,,,,,0.6276,1,,,,,,,,,,,,,,m,1,0.6276,,,,,,,,-0.377125154,-0.41265564,0,0,0,,0,154,154,9,1,DIVER,C,old,m,./images/DIVER.png,,,,,,,,,,,,,,,,,,,,,,,,,,,,,,,,,,,
,,,,,,,,,,,,,,,,,,24,2022-02-12_12h31.33.716,lexical_decision_task_DD_L4,2021.2.3,MacIntel,60.0024001,,,,,,,,,,,0.5968,1,,,,,,,,,,,,,,m,1,0.5968,,,,,,,,-0.377125154,-0.41265564,0,0,0,,0,155,155,3,1,CRATER,C,old,m,./images/CRATER.png,,,,,,,,,,,,,,,,,,,,,,,,,,,,,,,,,,,
,,,,,,,,,,,,,,,,,,24,2022-02-12_12h31.33.716,lexical_decision_task_DD_L4,2021.2.3,MacIntel,60.0024001,,,,,,,,,,,0.6277,1,,,,,,,,,,,,,,z,1,0.6277,,,,,,,,-0.377125154,-0.41265564,0,0,0,,0,156,156,132,1,SCIFF,C,old,z,./images/SCIFF.png,,,,,,,,,,,,,,,,,,,,,,,,,,,,,,,,,,,
,,,,,,,,,,,,,,,,,,24,2022-02-12_12h31.33.716,lexical_decision_task_DD_L4,2021.2.3,MacIntel,60.0024001,,,,,,,,,,,0.4975,1,,,,,,,,,,,,,,m,1,0.4975,,,,,,,,-0.377125154,-0.41265564,0,0,0,,0,157,157,44,1,BASKET,LB,old,m,./images/BASKETLB.png,,,,,,,,,,,,,,,,,,,,,,,,,,,,,,,,,,,
,,,,,,,,,,,,,,,,,,24,2022-02-12_12h31.33.716,lexical_decision_task_DD_L4,2021.2.3,MacIntel,60.0024001,,,,,,,,,,,0.6978,1,,,,,,,,,,,,,,m,1,0.6978,,,,,,,,-0.377125154,-0.41265564,0,0,0,,0,158,158,46,1,MUMMY,HB,old,m,./images/MUMMYHB.png,,,,,,,,,,,,,,,,,,,,,,,,,,,,,,,,,,,
,,,,,,,,,,,,,,,,,,24,2022-02-12_12h31.33.716,lexical_decision_task_DD_L4,2021.2.3,MacIntel,60.0024001,,,,,,,,,,,1.0953,1,,,,,,,,,,,,,,m,1,1.0953,,,,,,,,-0.377125154,-0.41265564,0,0,0,,0,159,159,35,1,LLAMA,LB,old,m,./images/LLAMALB.png,,,,,,,,,,,,,,,,,,,,,,,,,,,,,,,,,,,
,,,,,,,,,,,,,,,,,,24,2022-02-12_12h31.33.716,lexical_decision_task_DD_L4,2021.2.3,MacIntel,60.0024001,,,,,,,,,,,0.5783,1,,,,,,,,,,,,,,m,1,0.5783,,,,,,,,-0.377125154,-0.41265564,0,0,0,,0,160,160,11,1,MEDAL,LB,old,m,./images/MEDALLB.png,,,,,,,,,,,,,,,,,,,,,,,,,,,,,,,,,,,
,,,,,,,,,,,,,,,,,,24,2022-02-12_12h31.33.716,lexical_decision_task_DD_L4,2021.2.3,MacIntel,60.0024001,,,,,,,,,,,0.9632,1,,,,,,,,,,,,,,z,1,0.9632,,,,,,,,-0.377125154,-0.41265564,0,0,0,,0,161,161,127,1,NINDY,HB,old,z,./images/NINDYHB.png,,,,,,,,,,,,,,,,,,,,,,,,,,,,,,,,,,,
,,,,,,,,,,,,,,,,,,24,2022-02-12_12h31.33.716,lexical_decision_task_DD_L4,2021.2.3,MacIntel,60.0024001,,,,,,,,,,,0.5871,1,,,,,,,,,,,,,,z,1,0.5871,,,,,,,,-0.377125154,-0.41265564,0,0,0,,0,162,162,141,1,PLEET,C,old,z,./images/PLEET.png,,,,,,,,,,,,,,,,,,,,,,,,,,,,,,,,,,,
,,,,,,,,,,,,,,,,,,24,2022-02-12_12h31.33.716,lexical_decision_task_DD_L4,2021.2.3,MacIntel,60.0024001,,,,,,,,,,,0.5025,1,,,,,,,,,,,,,,m,1,0.5025,,,,,,,,-0.377125154,-0.41265564,0,0,0,,0,163,163,69,1,ARROW,C,old,m,./images/ARROW.png,,,,,,,,,,,,,,,,,,,,,,,,,,,,,,,,,,,
,,,,,,,,,,,,,,,,,,24,2022-02-12_12h31.33.716,lexical_decision_task_DD_L4,2021.2.3,MacIntel,60.0024001,,,,,,,,,,,0.6563,1,,,,,,,,,,,,,,z,1,0.6563,,,,,,,,-0.377125154,-0.41265564,0,0,0,,0,164,164,104,1,GITTY,LB,old,z,./images/GITTYLB.png,,,,,,,,,,,,,,,,,,,,,,,,,,,,,,,,,,,
,,,,,,,,,,,,,,,,,,24,2022-02-12_12h31.33.716,lexical_decision_task_DD_L4,2021.2.3,MacIntel,60.0024001,,,,,,,,,,,0.8181,1,,,,,,,,,,,,,,z,1,0.8181,,,,,,,,-0.377125154,-0.41265564,0,0,0,,0,165,165,96,1,KEAMS,C,old,z,./images/KEAMS.png,,,,,,,,,,,,,,,,,,,,,,,,,,,,,,,,,,,
,,,,,,,,,,,,,,,,,,24,2022-02-12_12h31.33.716,lexical_decision_task_DD_L4,2021.2.3,MacIntel,60.0024001,,,,,,,,,,,0.555,1,,,,,,,,,,,,,,m,1,0.555,,,,,,,,-0.377125154,-0.41265564,0,0,0,,0,166,166,56,1,HEATER,LB,old,m,./images/HEATERLB.png,,,,,,,,,,,,,,,,,,,,,,,,,,,,,,,,,,,
,,,,,,,,,,,,,,,,,,24,2022-02-12_12h31.33.716,lexical_decision_task_DD_L4,2021.2.3,MacIntel,60.0024001,,,,,,,,,,,0.6274,1,,,,,,,,,,,,,,m,1,0.6274,,,,,,,,-0.377125154,-0.41265564,0,0,0,,0,167,167,33,1,SAUNA,C,old,m,./images/SAUNA.png,,,,,,,,,,,,,,,,,,,,,,,,,,,,,,,,,,,
,,,,,,,,,,,,,,,,,,24,2022-02-12_12h31.33.716,lexical_decision_task_DD_L4,2021.2.3,MacIntel,60.0024001,,,,,,,,,,,,,,,,,,,,,,,,,,,,,,,,,,,,,,,,,,,,,,,,How likely will it be that you will recognize the words presented clearly on a scale of 0 (not likely) to 100 (most likely)?,,,,,-0.010155854,-0.405587995,1,0,0,jol_adv,6,5.335,0,0,0,0,1,,,,,,,,,,,,,,,,,,,,,
,,,,,,,,,,,,,,,,,,24,2022-02-12_12h31.33.716,lexical_decision_task_DD_L4,2021.2.3,MacIntel,60.0024001,,,,,,,,,,,,,,,,,,,,,,,,,,,,,,,,,,,,,,,,,,,,,,,,How likely will it be that you will recognize the words presented slighly blurred on a scale of 0 (not likely) to 100 (most likely)?,,,,,,,,,,,6,3.5143,0,1,1,1,1,,,,,,,,,,,,,,,,,,,,,
,,,,,,,,,,,,,,,,,,24,2022-02-12_12h31.33.716,lexical_decision_task_DD_L4,2021.2.3,MacIntel,60.0024001,,,,,,,,,,,,,,,,,,,,,,,,,,,,,,,,,,,,,,,,,,,,,,,,How likely will it be that you will recognize the words presented very blurred on a scale of 0 (not likely) to 100 (most likely)?,,,,,,,,,,,3,2.8729,0,2,2,2,1,,,,,,,,,,,,,,,,,,,,,
space,13.7262,-0.10326086,-0.248277226,0,0,0,,,,,,1,test,"In the next phase you will be presented with the words from the the first phase. Your job is to decide whether you remember seeing the word or not. If you remember seeing the word press ""old"" or type ""m"". If you do not remember seeing the word press ""new"" or type ""z"". Please press the space bar or click on continue to begin. ",,,,24,2022-02-12_12h31.33.716,lexical_decision_task_DD_L4,2021.2.3,MacIntel,60.0024001,,,,,,,,,,,,,,,,,,,,,,,,,,,,,,,,,,,,,,,,,,,,,,,,,,,,,,,,,,,,,,,,,,0,0,0,0,1,,,,,,,,,,,,,,,,
,,-0.010558517,-0.389114889,1,0,0,,,,,,1,test,"In the next phase you will be presented with the words from the the first phase. Your job is to decide whether you remember seeing the word or not. If you remember seeing the word press ""old"" or type ""m"". If you do not remember seeing the word press ""new"" or type ""z"". Please press the space bar or click on continue to begin. ",,,,24,2022-02-12_12h31.33.716,lexical_decision_task_DD_L4,2021.2.3,MacIntel,60.0024001,,,,,,,,,,,,,,,,,,,,,,,,,,,,,,,,,,,,,,,,,,,,,,,,,,,,,,,,,,,,,,,,,,1,0,1,0,1,instr_done_button,,,,,,,,,,,,,,,
space,2.4558,-0.030548661,-0.289252726,0,0,0,,,,,,1,test,"In the next phase you will be presented with the words from the the first phase. Your job is to decide whether you remember seeing the word or not. If you remember seeing the word press ""old"" or type ""m"". If you do not remember seeing the word press ""new"" or type ""z"". Please press the space bar or click on continue to begin. ",,,,24,2022-02-12_12h31.33.716,lexical_decision_task_DD_L4,2021.2.3,MacIntel,60.0024001,,,,,,,,,,,,,,,,,,,,,,,,,,,,,,,,,,,,,,,,,,,,,,,,,,,,,,,,,,,,,,,,,,2,0,2,0,1,,,,,,,,,,,,,,,,
space,0.4843,-0.030548661,-0.289252726,0,0,0,,,,,,1,test,"In the next phase you will be presented with the words from the the first phase. Your job is to decide whether you remember seeing the word or not. If you remember seeing the word press ""old"" or type ""m"". If you do not remember seeing the word press ""new"" or type ""z"". Please press the space bar or click on continue to begin. ",,,,24,2022-02-12_12h31.33.716,lexical_decision_task_DD_L4,2021.2.3,MacIntel,60.0024001,,,,,,,,,,,,,,,,,,,,,,,,,,,,,,,,,,,,,,,,,,,,,,,,,,,,,,,,,,,,,,,,,,3,0,3,0,1,,,,,,,,,,,,,,,,
space,1.0519,-0.030548661,-0.289252726,0,0,0,,,,,,1,test,"In the next phase you will be presented with the words from the the first phase. Your job is to decide whether you remember seeing the word or not. If you remember seeing the word press ""old"" or type ""m"". If you do not remember seeing the word press ""new"" or type ""z"". Please press the space bar or click on continue to begin. ",,,,24,2022-02-12_12h31.33.716,lexical_decision_task_DD_L4,2021.2.3,MacIntel,60.0024001,,,,,,,,,,,,,,,,,,,,,,,,,,,,,,,,,,,,,,,,,,,,,,,,,,,,,,,,,,,,,,,,,,4,0,4,0,1,,,,,,,,,,,,,,,,
,,,,,,,,,,,,,,,,,,24,2022-02-12_12h31.33.716,lexical_decision_task_DD_L4,2021.2.3,MacIntel,60.0024001,,,,,,,,,,,2.0271,1,,,,,,,,,,,,,,,,,,,,,,,,-0.030548661,-0.289252726,0,0,0,,,,,,,MOSQUE,HB,z,y,./images/MOSQUEHB.png,,,,,,,,,,,,,,,,,,,,,z,1,2.0271,,,,,,,,0,0,0,127,1
,,,,,,,,,,,,,,,,,,24,2022-02-12_12h31.33.716,lexical_decision_task_DD_L4,2021.2.3,MacIntel,60.0024001,,,,,,,,,,,1.2047,1,,,,,,,,,,,,,,,,,,,,,,,,-0.030548661,-0.289252726,0,0,0,,,,,,,WALRUS,LB,z,y,./images/WALRUSLB.png,,,,,,,,,,,,,,,,,,,,,z,1,1.2047,,,,,,,,0,1,1,107,1
,,,,,,,,,,,,,,,,,,24,2022-02-12_12h31.33.716,lexical_decision_task_DD_L4,2021.2.3,MacIntel,60.0024001,,,,,,,,,,,0.7834,0,,,,,,,,,,,,,,,,,,,,,,,,-0.030548661,-0.289252726,0,0,0,,,,,,,TORCH,LB,z,y,./images/TORCHLB.png,,,,,,,,,,,,,,,,,,,,,m,0,0.7834,,,,,,,,0,2,2,152,1
,,,,,,,,,,,,,,,,,,24,2022-02-12_12h31.33.716,lexical_decision_task_DD_L4,2021.2.3,MacIntel,60.0024001,,,,,,,,,,,0.5842,1,,,,,,,,,,,,,,,,,,,,,,,,-0.030548661,-0.289252726,0,0,0,,,,,,,ALLEY,HB,m,y,./images/ALLEYHB.png,,,,,,,,,,,,,,,,,,,,,m,1,0.5842,,,,,,,,0,3,3,55,1
,,,,,,,,,,,,,,,,,,24,2022-02-12_12h31.33.716,lexical_decision_task_DD_L4,2021.2.3,MacIntel,60.0024001,,,,,,,,,,,0.4925,1,,,,,,,,,,,,,,,,,,,,,,,,-0.030548661,-0.289252726,0,0,0,,,,,,,STEAK,HB,m,y,./images/STEAKHB.png,,,,,,,,,,,,,,,,,,,,,m,1,0.4925,,,,,,,,0,4,4,31,1
,,,,,,,,,,,,,,,,,,24,2022-02-12_12h31.33.716,lexical_decision_task_DD_L4,2021.2.3,MacIntel,60.0024001,,,,,,,,,,,0.9477,1,,,,,,,,,,,,,,,,,,,,,,,,-0.030548661,-0.289252726,0,0,0,,,,,,,MUSCLE,HB,z,y,./images/MUSCLEHB.png,,,,,,,,,,,,,,,,,,,,,z,1,0.9477,,,,,,,,0,5,5,88,1
,,,,,,,,,,,,,,,,,,24,2022-02-12_12h31.33.716,lexical_decision_task_DD_L4,2021.2.3,MacIntel,60.0024001,,,,,,,,,,,0.6091,1,,,,,,,,,,,,,,,,,,,,,,,,-0.030548661,-0.289252726,0,0,0,,,,,,,HEATER,LB,m,y,./images/HEATERLB.png,,,,,,,,,,,,,,,,,,,,,m,1,0.6091,,,,,,,,0,6,6,56,1
,,,,,,,,,,,,,,,,,,24,2022-02-12_12h31.33.716,lexical_decision_task_DD_L4,2021.2.3,MacIntel,60.0024001,,,,,,,,,,,0.555,1,,,,,,,,,,,,,,,,,,,,,,,,-0.030548661,-0.289252726,0,0,0,,,,,,,PILOT,LB,m,y,./images/PILOTLB.png,,,,,,,,,,,,,,,,,,,,,m,1,0.555,,,,,,,,0,7,7,50,1
,,,,,,,,,,,,,,,,,,24,2022-02-12_12h31.33.716,lexical_decision_task_DD_L4,2021.2.3,MacIntel,60.0024001,,,,,,,,,,,0.8315,1,,,,,,,,,,,,,,,,,,,,,,,,-0.030548661,-0.289252726,0,0,0,,,,,,,BEARD,LB,z,y,./images/BEARDLB.png,,,,,,,,,,,,,,,,,,,,,z,1,0.8315,,,,,,,,0,8,8,86,1
,,,,,,,,,,,,,,,,,,24,2022-02-12_12h31.33.716,lexical_decision_task_DD_L4,2021.2.3,MacIntel,60.0024001,,,,,,,,,,,0.8868,1,,,,,,,,,,,,,,,,,,,,,,,,-0.030548661,-0.289252726,0,0,0,,,,,,,STORM,C,z,y,./images/STORM.png,,,,,,,,,,,,,,,,,,,,,z,1,0.8868,,,,,,,,0,9,9,114,1
,,,,,,,,,,,,,,,,,,24,2022-02-12_12h31.33.716,lexical_decision_task_DD_L4,2021.2.3,MacIntel,60.0024001,,,,,,,,,,,0.7552,1,,,,,,,,,,,,,,,,,,,,,,,,-0.030548661,-0.289252726,0,0,0,,,,,,,PEACH,LB,z,y,./images/PEACHLB.png,,,,,,,,,,,,,,,,,,,,,z,1,0.7552,,,,,,,,0,10,10,119,1
,,,,,,,,,,,,,,,,,,24,2022-02-12_12h31.33.716,lexical_decision_task_DD_L4,2021.2.3,MacIntel,60.0024001,,,,,,,,,,,0.8717,1,,,,,,,,,,,,,,,,,,,,,,,,-0.030548661,-0.289252726,0,0,0,,,,,,,DRUMS,HB,z,y,./images/DRUMSHB.png,,,,,,,,,,,,,,,,,,,,,z,1,0.8717,,,,,,,,0,11,11,133,1
,,,,,,,,,,,,,,,,,,24,2022-02-12_12h31.33.716,lexical_decision_task_DD_L4,2021.2.3,MacIntel,60.0024001,,,,,,,,,,,0.964,1,,,,,,,,,,,,,,,,,,,,,,,,-0.030548661,-0.289252726,0,0,0,,,,,,,PLANET,LB,m,y,./images/PLANETLB.png,,,,,,,,,,,,,,,,,,,,,m,1,0.964,,,,,,,,0,12,12,80,1
,,,,,,,,,,,,,,,,,,24,2022-02-12_12h31.33.716,lexical_decision_task_DD_L4,2021.2.3,MacIntel,60.0024001,,,,,,,,,,,0.7399,0,,,,,,,,,,,,,,,,,,,,,,,,-0.030548661,-0.289252726,0,0,0,,,,,,,WHEEL,LB,m,y,./images/WHEELLB.png,,,,,,,,,,,,,,,,,,,,,z,0,0.7399,,,,,,,,0,13,13,77,1
,,,,,,,,,,,,,,,,,,24,2022-02-12_12h31.33.716,lexical_decision_task_DD_L4,2021.2.3,MacIntel,60.0024001,,,,,,,,,,,0.9289,0,,,,,,,,,,,,,,,,,,,,,,,,-0.030548661,-0.289252726,0,0,0,,,,,,,SUNSET,HB,z,y,./images/SUNSETHB.png,,,,,,,,,,,,,,,,,,,,,m,0,0.9289,,,,,,,,0,14,14,166,1
,,,,,,,,,,,,,,,,,,24,2022-02-12_12h31.33.716,lexical_decision_task_DD_L4,2021.2.3,MacIntel,60.0024001,,,,,,,,,,,1.1886,0,,,,,,,,,,,,,,,,,,,,,,,,-0.030548661,-0.289252726,0,0,0,,,,,,,MAGGOT,C,z,y,./images/MAGGOT.png,,,,,,,,,,,,,,,,,,,,,m,0,1.1886,,,,,,,,0,15,15,117,1
,,,,,,,,,,,,,,,,,,24,2022-02-12_12h31.33.716,lexical_decision_task_DD_L4,2021.2.3,MacIntel,60.0024001,,,,,,,,,,,0.6402,1,,,,,,,,,,,,,,,,,,,,,,,,-0.030548661,-0.289252726,0,0,0,,,,,,,CHALK,HB,m,y,./images/CHALKHB.png,,,,,,,,,,,,,,,,,,,,,m,1,0.6402,,,,,,,,0,16,16,25,1
,,,,,,,,,,,,,,,,,,24,2022-02-12_12h31.33.716,lexical_decision_task_DD_L4,2021.2.3,MacIntel,60.0024001,,,,,,,,,,,0.6677,1,,,,,,,,,,,,,,,,,,,,,,,,-0.030548661,-0.289252726,0,0,0,,,,,,,PIMPLE,LB,z,y,./images/PIMPLELB.png,,,,,,,,,,,,,,,,,,,,,z,1,0.6677,,,,,,,,0,17,17,155,1
,,,,,,,,,,,,,,,,,,24,2022-02-12_12h31.33.716,lexical_decision_task_DD_L4,2021.2.3,MacIntel,60.0024001,,,,,,,,,,,0.6969,0,,,,,,,,,,,,,,,,,,,,,,,,-0.030548661,-0.289252726,0,0,0,,,,,,,SNACK,HB,z,y,./images/SNACKHB.png,,,,,,,,,,,,,,,,,,,,,m,0,0.6969,,,,,,,,0,18,18,157,1
,,,,,,,,,,,,,,,,,,24,2022-02-12_12h31.33.716,lexical_decision_task_DD_L4,2021.2.3,MacIntel,60.0024001,,,,,,,,,,,0.7792,0,,,,,,,,,,,,,,,,,,,,,,,,-0.030548661,-0.289252726,0,0,0,,,,,,,MOTOR,HB,z,y,./images/MOTORHB.png,,,,,,,,,,,,,,,,,,,,,m,0,0.7792,,,,,,,,0,19,19,97,1
,,,,,,,,,,,,,,,,,,24,2022-02-12_12h31.33.716,lexical_decision_task_DD_L4,2021.2.3,MacIntel,60.0024001,,,,,,,,,,,0.6716,0,,,,,,,,,,,,,,,,,,,,,,,,-0.030548661,-0.289252726,0,0,0,,,,,,,CLOTH,LB,m,y,./images/CLOTHLB.png,,,,,,,,,,,,,,,,,,,,,z,0,0.6716,,,,,,,,0,20,20,23,1
,,,,,,,,,,,,,,,,,,24,2022-02-12_12h31.33.716,lexical_decision_task_DD_L4,2021.2.3,MacIntel,60.0024001,,,,,,,,,,,0.6109,1,,,,,,,,,,,,,,,,,,,,,,,,-0.030548661,-0.289252726,0,0,0,,,,,,,FERRY,C,m,y,./images/FERRY.png,,,,,,,,,,,,,,,,,,,,,m,1,0.6109,,,,,,,,0,21,21,57,1
,,,,,,,,,,,,,,,,,,24,2022-02-12_12h31.33.716,lexical_decision_task_DD_L4,2021.2.3,MacIntel,60.0024001,,,,,,,,,,,0.6907,1,,,,,,,,,,,,,,,,,,,,,,,,-0.030548661,-0.289252726,0,0,0,,,,,,,STATUE,C,m,y,./images/STATUE.png,,,,,,,,,,,,,,,,,,,,,m,1,0.6907,,,,,,,,0,22,22,66,1
,,,,,,,,,,,,,,,,,,24,2022-02-12_12h31.33.716,lexical_decision_task_DD_L4,2021.2.3,MacIntel,60.0024001,,,,,,,,,,,0.7202,1,,,,,,,,,,,,,,,,,,,,,,,,-0.030548661,-0.289252726,0,0,0,,,,,,,PENCE,HB,z,y,./images/PENCEHB.png,,,,,,,,,,,,,,,,,,,,,z,1,0.7202,,,,,,,,0,23,23,100,1
,,,,,,,,,,,,,,,,,,24,2022-02-12_12h31.33.716,lexical_decision_task_DD_L4,2021.2.3,MacIntel,60.0024001,,,,,,,,,,,1.4144,1,,,,,,,,,,,,,,,,,,,,,,,,-0.030548661,-0.289252726,0,0,0,,,,,,,SWING,HB,z,y,./images/SWINGHB.png,,,,,,,,,,,,,,,,,,,,,z,1,1.4144,,,,,,,,0,24,24,124,1
,,,,,,,,,,,,,,,,,,24,2022-02-12_12h31.33.716,lexical_decision_task_DD_L4,2021.2.3,MacIntel,60.0024001,,,,,,,,,,,1.1488,1,,,,,,,,,,,,,,,,,,,,,,,,-0.030548661,-0.289252726,0,0,0,,,,,,,JUMPER,LB,m,y,./images/JUMPERLB.png,,,,,,,,,,,,,,,,,,,,,m,1,1.1488,,,,,,,,0,25,25,74,1
,,,,,,,,,,,,,,,,,,24,2022-02-12_12h31.33.716,lexical_decision_task_DD_L4,2021.2.3,MacIntel,60.0024001,,,,,,,,,,,1.1519,0,,,,,,,,,,,,,,,,,,,,,,,,-0.030548661,-0.289252726,0,0,0,,,,,,,CEMENT,LB,z,y,./images/CEMENTLB.png,,,,,,,,,,,,,,,,,,,,,m,0,1.1519,,,,,,,,0,26,26,158,1
,,,,,,,,,,,,,,,,,,24,2022-02-12_12h31.33.716,lexical_decision_task_DD_L4,2021.2.3,MacIntel,60.0024001,,,,,,,,,,,0.993,1,,,,,,,,,,,,,,,,,,,,,,,,-0.030548661,-0.289252726,0,0,0,,,,,,,NOOSE,C,z,y,./images/NOOSE.png,,,,,,,,,,,,,,,,,,,,,z,1,0.993,,,,,,,,0,27,27,156,1
,,,,,,,,,,,,,,,,,,24,2022-02-12_12h31.33.716,lexical_decision_task_DD_L4,2021.2.3,MacIntel,60.0024001,,,,,,,,,,,0.6993,1,,,,,,,,,,,,,,,,,,,,,,,,-0.030548661,-0.289252726,0,0,0,,,,,,,FARMER,LB,z,y,./images/FARMERLB.png,,,,,,,,,,,,,,,,,,,,,z,1,0.6993,,,,,,,,0,28,28,149,1
,,,,,,,,,,,,,,,,,,24,2022-02-12_12h31.33.716,lexical_decision_task_DD_L4,2021.2.3,MacIntel,60.0024001,,,,,,,,,,,0.687,1,,,,,,,,,,,,,,,,,,,,,,,,-0.030548661,-0.289252726,0,0,0,,,,,,,CLIFF,LB,m,y,./images/CLIFFLB.png,,,,,,,,,,,,,,,,,,,,,m,1,0.687,,,,,,,,0,29,29,8,1
,,,,,,,,,,,,,,,,,,24,2022-02-12_12h31.33.716,lexical_decision_task_DD_L4,2021.2.3,MacIntel,60.0024001,,,,,,,,,,,1.4301,0,,,,,,,,,,,,,,,,,,,,,,,,-0.030548661,-0.289252726,0,0,0,,,,,,,RHINO,C,z,y,./images/RHINO.png,,,,,,,,,,,,,,,,,,,,,m,0,1.4301,,,,,,,,0,30,30,93,1
,,,,,,,,,,,,,,,,,,24,2022-02-12_12h31.33.716,lexical_decision_task_DD_L4,2021.2.3,MacIntel,60.0024001,,,,,,,,,,,0.6082,1,,,,,,,,,,,,,,,,,,,,,,,,-0.030548661,-0.289252726,0,0,0,,,,,,,SPINE,LB,m,y,./images/SPINELB.png,,,,,,,,,,,,,,,,,,,,,m,1,0.6082,,,,,,,,0,31,31,65,1
,,,,,,,,,,,,,,,,,,24,2022-02-12_12h31.33.716,lexical_decision_task_DD_L4,2021.2.3,MacIntel,60.0024001,,,,,,,,,,,0.6985,1,,,,,,,,,,,,,,,,,,,,,,,,-0.030548661,-0.289252726,0,0,0,,,,,,,CRATER,C,m,y,./images/CRATER.png,,,,,,,,,,,,,,,,,,,,,m,1,0.6985,,,,,,,,0,32,32,3,1
,,,,,,,,,,,,,,,,,,24,2022-02-12_12h31.33.716,lexical_decision_task_DD_L4,2021.2.3,MacIntel,60.0024001,,,,,,,,,,,1.0025,1,,,,,,,,,,,,,,,,,,,,,,,,-0.030548661,-0.289252726,0,0,0,,,,,,,STREAM,LB,m,y,./images/STREAMLB.png,,,,,,,,,,,,,,,,,,,,,m,1,1.0025,,,,,,,,0,33,33,41,1
,,,,,,,,,,,,,,,,,,24,2022-02-12_12h31.33.716,lexical_decision_task_DD_L4,2021.2.3,MacIntel,60.0024001,,,,,,,,,,,0.746,0,,,,,,,,,,,,,,,,,,,,,,,,-0.030548661,-0.289252726,0,0,0,,,,,,,MOOSE,C,z,y,./images/MOOSE.png,,,,,,,,,,,,,,,,,,,,,m,0,0.746,,,,,,,,0,34,34,141,1
,,,,,,,,,,,,,,,,,,24,2022-02-12_12h31.33.716,lexical_decision_task_DD_L4,2021.2.3,MacIntel,60.0024001,,,,,,,,,,,0.7349,1,,,,,,,,,,,,,,,,,,,,,,,,-0.030548661,-0.289252726,0,0,0,,,,,,,CLOWN,HB,m,y,./images/CLOWNHB.png,,,,,,,,,,,,,,,,,,,,,m,1,0.7349,,,,,,,,0,35,35,22,1
,,,,,,,,,,,,,,,,,,24,2022-02-12_12h31.33.716,lexical_decision_task_DD_L4,2021.2.3,MacIntel,60.0024001,,,,,,,,,,,0.7888,1,,,,,,,,,,,,,,,,,,,,,,,,-0.030548661,-0.289252726,0,0,0,,,,,,,WRIST,HB,z,y,./images/WRISTHB.png,,,,,,,,,,,,,,,,,,,,,z,1,0.7888,,,,,,,,0,36,36,109,1
,,,,,,,,,,,,,,,,,,24,2022-02-12_12h31.33.716,lexical_decision_task_DD_L4,2021.2.3,MacIntel,60.0024001,,,,,,,,,,,0.5816,1,,,,,,,,,,,,,,,,,,,,,,,,-0.030548661,-0.289252726,0,0,0,,,,,,,MUMMY,HB,m,y,./images/MUMMYHB.png,,,,,,,,,,,,,,,,,,,,,m,1,0.5816,,,,,,,,0,37,37,46,1
,,,,,,,,,,,,,,,,,,24,2022-02-12_12h31.33.716,lexical_decision_task_DD_L4,2021.2.3,MacIntel,60.0024001,,,,,,,,,,,0.6007,1,,,,,,,,,,,,,,,,,,,,,,,,-0.030548661,-0.289252726,0,0,0,,,,,,,DESERT,HB,m,y,./images/DESERTHB.png,,,,,,,,,,,,,,,,,,,,,m,1,0.6007,,,,,,,,0,38,38,52,1
,,,,,,,,,,,,,,,,,,24,2022-02-12_12h31.33.716,lexical_decision_task_DD_L4,2021.2.3,MacIntel,60.0024001,,,,,,,,,,,0.7336,1,,,,,,,,,,,,,,,,,,,,,,,,-0.030548661,-0.289252726,0,0,0,,,,,,,WEASEL,LB,z,y,./images/WEASELLB.png,,,,,,,,,,,,,,,,,,,,,z,1,0.7336,,,,,,,,0,39,39,164,1
,,,,,,,,,,,,,,,,,,24,2022-02-12_12h31.33.716,lexical_decision_task_DD_L4,2021.2.3,MacIntel,60.0024001,,,,,,,,,,,0.8817,1,,,,,,,,,,,,,,,,,,,,,,,,-0.030548661,-0.289252726,0,0,0,,,,,,,GARDEN,HB,m,y,./images/GARDENHB.png,,,,,,,,,,,,,,,,,,,,,m,1,0.8817,,,,,,,,0,40,40,10,1
,,,,,,,,,,,,,,,,,,24,2022-02-12_12h31.33.716,lexical_decision_task_DD_L4,2021.2.3,MacIntel,60.0024001,,,,,,,,,,,0.632,1,,,,,,,,,,,,,,,,,,,,,,,,-0.030548661,-0.289252726,0,0,0,space,,,,,,PEBBLE,HB,m,y,./images/PEBBLEHB.png,2.0047,,,,,,,,,,,,,,,,,,,,m,1,0.632,,,,,,,,0,41,41,82,1
,,,,,,,,,,,,,,,,,,24,2022-02-12_12h31.33.716,lexical_decision_task_DD_L4,2021.2.3,MacIntel,60.0024001,,,,,,,,,,,0.6994,1,,,,,,,,,,,,,,,,,,,,,,,,-0.030548661,-0.289252726,0,0,0,,,,,,,TRIPOD,C,z,y,./images/TRIPOD.png,,,,,,,,,,,,,,,,,,,,,z,1,0.6994,,,,,,,,0,42,42,138,1
,,,,,,,,,,,,,,,,,,24,2022-02-12_12h31.33.716,lexical_decision_task_DD_L4,2021.2.3,MacIntel,60.0024001,,,,,,,,,,,0.6824,1,,,,,,,,,,,,,,,,,,,,,,,,-0.030548661,-0.289252726,0,0,0,,,,,,,PARCEL,C,m,y,./images/PARCEL.png,,,,,,,,,,,,,,,,,,,,,m,1,0.6824,,,,,,,,0,43,43,18,1
,,,,,,,,,,,,,,,,,,24,2022-02-12_12h31.33.716,lexical_decision_task_DD_L4,2021.2.3,MacIntel,60.0024001,,,,,,,,,,,1.1661,1,,,,,,,,,,,,,,,,,,,,,,,,-0.030548661,-0.289252726,0,0,0,,,,,,,POSTER,LB,m,y,./images/POSTERLB.png,,,,,,,,,,,,,,,,,,,,,m,1,1.1661,,,,,,,,0,44,44,53,1
,,,,,,,,,,,,,,,,,,24,2022-02-12_12h31.33.716,lexical_decision_task_DD_L4,2021.2.3,MacIntel,60.0024001,,,,,,,,,,,0.6491,1,,,,,,,,,,,,,,,,,,,,,,,,-0.030548661,-0.289252726,0,0,0,,,,,,,BROOM,C,m,y,./images/BROOM.png,,,,,,,,,,,,,,,,,,,,,m,1,0.6491,,,,,,,,0,45,45,78,1
,,,,,,,,,,,,,,,,,,24,2022-02-12_12h31.33.716,lexical_decision_task_DD_L4,2021.2.3,MacIntel,60.0024001,,,,,,,,,,,1.1322,0,,,,,,,,,,,,,,,,,,,,,,,,-0.030548661,-0.289252726,0,0,0,,,,,,,STAIN,C,m,y,./images/STAIN.png,,,,,,,,,,,,,,,,,,,,,z,0,1.1322,,,,,,,,0,46,46,6,1
,,,,,,,,,,,,,,,,,,24,2022-02-12_12h31.33.716,lexical_decision_task_DD_L4,2021.2.3,MacIntel,60.0024001,,,,,,,,,,,0.9647,1,,,,,,,,,,,,,,,,,,,,,,,,-0.030548661,-0.289252726,0,0,0,,,,,,,SHIELD,C,m,y,./images/SHIELD.png,,,,,,,,,,,,,,,,,,,,,m,1,0.9647,,,,,,,,0,47,47,48,1
,,,,,,,,,,,,,,,,,,24,2022-02-12_12h31.33.716,lexical_decision_task_DD_L4,2021.2.3,MacIntel,60.0024001,,,,,,,,,,,1.0062,0,,,,,,,,,,,,,,,,,,,,,,,,-0.030548661,-0.289252726,0,0,0,,,,,,,MIDGET,HB,m,y,./images/MIDGETHB.png,,,,,,,,,,,,,,,,,,,,,z,0,1.0062,,,,,,,,0,48,48,76,1
,,,,,,,,,,,,,,,,,,24,2022-02-12_12h31.33.716,lexical_decision_task_DD_L4,2021.2.3,MacIntel,60.0024001,,,,,,,,,,,0.7171,1,,,,,,,,,,,,,,,,,,,,,,,,-0.030548661,-0.289252726,0,0,0,,,,,,,BANANA,HB,m,y,./images/BANANAHB.png,,,,,,,,,,,,,,,,,,,,,m,1,0.7171,,,,,,,,0,49,49,70,1
,,,,,,,,,,,,,,,,,,24,2022-02-12_12h31.33.716,lexical_decision_task_DD_L4,2021.2.3,MacIntel,60.0024001,,,,,,,,,,,0.8337,0,,,,,,,,,,,,,,,,,,,,,,,,-0.030548661,-0.289252726,0,0,0,,,,,,,ENGINE,LB,m,y,./images/ENGINELB.png,,,,,,,,,,,,,,,,,,,,,z,0,0.8337,,,,,,,,0,50,50,38,1
,,,,,,,,,,,,,,,,,,24,2022-02-12_12h31.33.716,lexical_decision_task_DD_L4,2021.2.3,MacIntel,60.0024001,,,,,,,,,,,0.8396,1,,,,,,,,,,,,,,,,,,,,,,,,-0.030548661,-0.289252726,0,0,0,,,,,,,ONION,C,z,y,./images/ONION.png,,,,,,,,,,,,,,,,,,,,,z,1,0.8396,,,,,,,,0,51,51,135,1
,,,,,,,,,,,,,,,,,,24,2022-02-12_12h31.33.716,lexical_decision_task_DD_L4,2021.2.3,MacIntel,60.0024001,,,,,,,,,,,1.1326,0,,,,,,,,,,,,,,,,,,,,,,,,-0.030548661,-0.289252726,0,0,0,,,,,,,LADDER,LB,z,y,./images/LADDERLB.png,,,,,,,,,,,,,,,,,,,,,m,0,1.1326,,,,,,,,0,52,52,122,1
,,,,,,,,,,,,,,,,,,24,2022-02-12_12h31.33.716,lexical_decision_task_DD_L4,2021.2.3,MacIntel,60.0024001,,,,,,,,,,,1.4153,1,,,,,,,,,,,,,,,,,,,,,,,,-0.030548661,-0.289252726,0,0,0,,,,,,,PISTOL,LB,m,y,./images/PISTOLLB.png,,,,,,,,,,,,,,,,,,,,,m,1,1.4153,,,,,,,,0,53,53,29,1
,,,,,,,,,,,,,,,,,,24,2022-02-12_12h31.33.716,lexical_decision_task_DD_L4,2021.2.3,MacIntel,60.0024001,,,,,,,,,,,0.7166,1,,,,,,,,,,,,,,,,,,,,,,,,-0.030548661,-0.289252726,0,0,0,,,,,,,FLASK,C,m,y,./images/FLASK.png,,,,,,,,,,,,,,,,,,,,,m,1,0.7166,,,,,,,,0,54,54,72,1
,,,,,,,,,,,,,,,,,,24,2022-02-12_12h31.33.716,lexical_decision_task_DD_L4,2021.2.3,MacIntel,60.0024001,,,,,,,,,,,0.6511,1,,,,,,,,,,,,,,,,,,,,,,,,-0.030548661,-0.289252726,0,0,0,,,,,,,QUILL,HB,z,y,./images/QUILLHB.png,,,,,,,,,,,,,,,,,,,,,z,1,0.6511,,,,,,,,0,55,55,115,1
,,,,,,,,,,,,,,,,,,24,2022-02-12_12h31.33.716,lexical_decision_task_DD_L4,2021.2.3,MacIntel,60.0024001,,,,,,,,,,,0.556,1,,,,,,,,,,,,,,,,,,,,,,,,-0.030548661,-0.289252726,0,0,0,,,,,,,SNAKE,HB,m,y,./images/SNAKEHB.png,,,,,,,,,,,,,,,,,,,,,m,1,0.556,,,,,,,,0,56,56,40,1
,,,,,,,,,,,,,,,,,,24,2022-02-12_12h31.33.716,lexical_decision_task_DD_L4,2021.2.3,MacIntel,60.0024001,,,,,,,,,,,0.6953,1,,,,,,,,,,,,,,,,,,,,,,,,-0.030548661,-0.289252726,0,0,0,,,,,,,BELLY,HB,z,y,./images/BELLYHB.png,,,,,,,,,,,,,,,,,,,,,z,1,0.6953,,,,,,,,0,57,57,94,1
,,,,,,,,,,,,,,,,,,24,2022-02-12_12h31.33.716,lexical_decision_task_DD_L4,2021.2.3,MacIntel,60.0024001,,,,,,,,,,,0.7669,1,,,,,,,,,,,,,,,,,,,,,,,,-0.030548661,-0.289252726,0,0,0,,,,,,,COOKER,C,z,y,./images/COOKER.png,,,,,,,,,,,,,,,,,,,,,z,1,0.7669,,,,,,,,0,58,58,153,1
,,,,,,,,,,,,,,,,,,24,2022-02-12_12h31.33.716,lexical_decision_task_DD_L4,2021.2.3,MacIntel,60.0024001,,,,,,,,,,,1.2318,1,,,,,,,,,,,,,,,,,,,,,,,,-0.030548661,-0.289252726,0,0,0,,,,,,,COLLAR,C,m,y,./images/COLLAR.png,,,,,,,,,,,,,,,,,,,,,m,1,1.2318,,,,,,,,0,59,59,15,1
,,,,,,,,,,,,,,,,,,24,2022-02-12_12h31.33.716,lexical_decision_task_DD_L4,2021.2.3,MacIntel,60.0024001,,,,,,,,,,,0.7311,1,,,,,,,,,,,,,,,,,,,,,,,,-0.030548661,-0.289252726,0,0,0,,,,,,,SMOKER,LB,z,y,./images/SMOKERLB.png,,,,,,,,,,,,,,,,,,,,,z,1,0.7311,,,,,,,,0,60,60,110,1
,,,,,,,,,,,,,,,,,,24,2022-02-12_12h31.33.716,lexical_decision_task_DD_L4,2021.2.3,MacIntel,60.0024001,,,,,,,,,,,0.6085,1,,,,,,,,,,,,,,,,,,,,,,,,-0.030548661,-0.289252726,0,0,0,,,,,,,LAGOON,LB,m,y,./images/LAGOONLB.png,,,,,,,,,,,,,,,,,,,,,m,1,0.6085,,,,,,,,0,61,61,47,1
,,,,,,,,,,,,,,,,,,24,2022-02-12_12h31.33.716,lexical_decision_task_DD_L4,2021.2.3,MacIntel,60.0024001,,,,,,,,,,,0.6102,1,,,,,,,,,,,,,,,,,,,,,,,,-0.030548661,-0.289252726,0,0,0,,,,,,,GREASE,C,z,y,./images/GREASE.png,,,,,,,,,,,,,,,,,,,,,z,1,0.6102,,,,,,,,0,62,62,99,1
,,,,,,,,,,,,,,,,,,24,2022-02-12_12h31.33.716,lexical_decision_task_DD_L4,2021.2.3,MacIntel,60.0024001,,,,,,,,,,,0.5924,1,,,,,,,,,,,,,,,,,,,,,,,,-0.030548661,-0.289252726,0,0,0,,,,,,,INFANT,HB,z,y,./images/INFANTHB.png,,,,,,,,,,,,,,,,,,,,,z,1,0.5924,,,,,,,,0,63,63,160,1
,,,,,,,,,,,,,,,,,,24,2022-02-12_12h31.33.716,lexical_decision_task_DD_L4,2021.2.3,MacIntel,60.0024001,,,,,,,,,,,1.4656,1,,,,,,,,,,,,,,,,,,,,,,,,-0.030548661,-0.289252726,0,0,0,,,,,,,TOMATO,C,z,y,./images/TOMATO.png,,,,,,,,,,,,,,,,,,,,,z,1,1.4656,,,,,,,,0,64,64,84,1
,,,,,,,,,,,,,,,,,,24,2022-02-12_12h31.33.716,lexical_decision_task_DD_L4,2021.2.3,MacIntel,60.0024001,,,,,,,,,,,1.2824,0,,,,,,,,,,,,,,,,,,,,,,,,-0.030548661,-0.289252726,0,0,0,,,,,,,SLOPE,C,m,y,./images/SLOPE.png,,,,,,,,,,,,,,,,,,,,,z,0,1.2824,,,,,,,,0,65,65,30,1
,,,,,,,,,,,,,,,,,,24,2022-02-12_12h31.33.716,lexical_decision_task_DD_L4,2021.2.3,MacIntel,60.0024001,,,,,,,,,,,0.5624,1,,,,,,,,,,,,,,,,,,,,,,,,-0.030548661,-0.289252726,0,0,0,,,,,,,CHERRY,C,m,y,./images/CHERRY.png,,,,,,,,,,,,,,,,,,,,,m,1,0.5624,,,,,,,,0,66,66,54,1
,,,,,,,,,,,,,,,,,,24,2022-02-12_12h31.33.716,lexical_decision_task_DD_L4,2021.2.3,MacIntel,60.0024001,,,,,,,,,,,0.7317,1,,,,,,,,,,,,,,,,,,,,,,,,-0.030548661,-0.289252726,0,0,0,,,,,,,SKIING,LB,z,y,./images/SKIINGLB.png,,,,,,,,,,,,,,,,,,,,,z,1,0.7317,,,,,,,,0,67,67,101,1
,,,,,,,,,,,,,,,,,,24,2022-02-12_12h31.33.716,lexical_decision_task_DD_L4,2021.2.3,MacIntel,60.0024001,,,,,,,,,,,0.7426,1,,,,,,,,,,,,,,,,,,,,,,,,-0.030548661,-0.289252726,0,0,0,,,,,,,MELON,HB,z,y,./images/MELONHB.png,,,,,,,,,,,,,,,,,,,,,z,1,0.7426,,,,,,,,0,68,68,106,1
,,,,,,,,,,,,,,,,,,24,2022-02-12_12h31.33.716,lexical_decision_task_DD_L4,2021.2.3,MacIntel,60.0024001,,,,,,,,,,,0.9034,1,,,,,,,,,,,,,,,,,,,,,,,,-0.030548661,-0.289252726,0,0,0,,,,,,,ATTIC,C,z,y,./images/ATTIC.png,,,,,,,,,,,,,,,,,,,,,z,1,0.9034,,,,,,,,0,69,69,111,1
,,,,,,,,,,,,,,,,,,24,2022-02-12_12h31.33.716,lexical_decision_task_DD_L4,2021.2.3,MacIntel,60.0024001,,,,,,,,,,,0.74,1,,,,,,,,,,,,,,,,,,,,,,,,-0.030548661,-0.289252726,0,0,0,,,,,,,CANYON,HB,z,y,./images/CANYONHB.png,,,,,,,,,,,,,,,,,,,,,z,1,0.74,,,,,,,,0,70,70,118,1
,,,,,,,,,,,,,,,,,,24,2022-02-12_12h31.33.716,lexical_decision_task_DD_L4,2021.2.3,MacIntel,60.0024001,,,,,,,,,,,1.033,1,,,,,,,,,,,,,,,,,,,,,,,,-0.030548661,-0.289252726,0,0,0,,,,,,,ARROW,C,m,y,./images/ARROW.png,,,,,,,,,,,,,,,,,,,,,m,1,1.033,,,,,,,,0,71,71,69,1
,,,,,,,,,,,,,,,,,,24,2022-02-12_12h31.33.716,lexical_decision_task_DD_L4,2021.2.3,MacIntel,60.0024001,,,,,,,,,,,0.819,1,,,,,,,,,,,,,,,,,,,,,,,,-0.030548661,-0.289252726,0,0,0,,,,,,,POODLE,C,z,y,./images/POODLE.png,,,,,,,,,,,,,,,,,,,,,z,1,0.819,,,,,,,,0,72,72,165,1
,,,,,,,,,,,,,,,,,,24,2022-02-12_12h31.33.716,lexical_decision_task_DD_L4,2021.2.3,MacIntel,60.0024001,,,,,,,,,,,0.5245,1,,,,,,,,,,,,,,,,,,,,,,,,-0.030548661,-0.289252726,0,0,0,,,,,,,FINGER,C,z,y,./images/FINGER.png,,,,,,,,,,,,,,,,,,,,,z,1,0.5245,,,,,,,,0,73,73,87,1
,,,,,,,,,,,,,,,,,,24,2022-02-12_12h31.33.716,lexical_decision_task_DD_L4,2021.2.3,MacIntel,60.0024001,,,,,,,,,,,0.7314,1,,,,,,,,,,,,,,,,,,,,,,,,-0.030548661,-0.289252726,0,0,0,,,,,,,HAMMER,C,m,y,./images/HAMMER.png,,,,,,,,,,,,,,,,,,,,,m,1,0.7314,,,,,,,,0,74,74,75,1
,,,,,,,,,,,,,,,,,,24,2022-02-12_12h31.33.716,lexical_decision_task_DD_L4,2021.2.3,MacIntel,60.0024001,,,,,,,,,,,1.07,1,,,,,,,,,,,,,,,,,,,,,,,,-0.030548661,-0.289252726,0,0,0,,,,,,,RULER,HB,m,y,./images/RULERHB.png,,,,,,,,,,,,,,,,,,,,,m,1,1.07,,,,,,,,0,75,75,79,1
,,,,,,,,,,,,,,,,,,24,2022-02-12_12h31.33.716,lexical_decision_task_DD_L4,2021.2.3,MacIntel,60.0024001,,,,,,,,,,,0.8187,0,,,,,,,,,,,,,,,,,,,,,,,,-0.030548661,-0.289252726,0,0,0,,,,,,,STOOL,HB,m,y,./images/STOOLHB.png,,,,,,,,,,,,,,,,,,,,,z,0,0.8187,,,,,,,,0,76,76,43,1
,,,,,,,,,,,,,,,,,,24,2022-02-12_12h31.33.716,lexical_decision_task_DD_L4,2021.2.3,MacIntel,60.0024001,,,,,,,,,,,0.7514,1,,,,,,,,,,,,,,,,,,,,,,,,-0.030548661,-0.289252726,0,0,0,,,,,,,DONKEY,HB,m,y,./images/DONKEYHB.png,,,,,,,,,,,,,,,,,,,,,m,1,0.7514,,,,,,,,0,77,77,19,1
,,,,,,,,,,,,,,,,,,24,2022-02-12_12h31.33.716,lexical_decision_task_DD_L4,2021.2.3,MacIntel,60.0024001,,,,,,,,,,,0.6309,1,,,,,,,,,,,,,,,,,,,,,,,,-0.030548661,-0.289252726,0,0,0,,,,,,,PACKET,LB,z,y,./images/PACKETLB.png,,,,,,,,,,,,,,,,,,,,,z,1,0.6309,,,,,,,,0,78,78,140,1
,,,,,,,,,,,,,,,,,,24,2022-02-12_12h31.33.716,lexical_decision_task_DD_L4,2021.2.3,MacIntel,60.0024001,,,,,,,,,,,0.7499,1,,,,,,,,,,,,,,,,,,,,,,,,-0.030548661,-0.289252726,0,0,0,,,,,,,PLANK,HB,z,y,./images/PLANKHB.png,,,,,,,,,,,,,,,,,,,,,z,1,0.7499,,,,,,,,0,79,79,85,1
,,,,,,,,,,,,,,,,,,24,2022-02-12_12h31.33.716,lexical_decision_task_DD_L4,2021.2.3,MacIntel,60.0024001,,,,,,,,,,,1.1636,1,,,,,,,,,,,,,,,,,,,,,,,,-0.030548661,-0.289252726,0,0,0,,,,,,,CANDLE,HB,z,y,./images/CANDLEHB.png,,,,,,,,,,,,,,,,,,,,,z,1,1.1636,,,,,,,,0,80,80,145,1
,,,,,,,,,,,,,,,,,,24,2022-02-12_12h31.33.716,lexical_decision_task_DD_L4,2021.2.3,MacIntel,60.0024001,,,,,,,,,,,0.6992,1,,,,,,,,,,,,,,,,,,,,,,,,-0.030548661,-0.289252726,0,0,0,,,,,,,PICKLE,LB,z,y,./images/PICKLELB.png,,,,,,,,,,,,,,,,,,,,,z,1,0.6992,,,,,,,,0,81,81,98,1
,,,,,,,,,,,,,,,,,,24,2022-02-12_12h31.33.716,lexical_decision_task_DD_L4,2021.2.3,MacIntel,60.0024001,,,,,,,,,,,0.721,1,,,,,,,,,,,,,,,,,,,,,,,,-0.030548661,-0.289252726,0,0,0,,,,,,,MUFFIN,HB,z,y,./images/MUFFINHB.png,,,,,,,,,,,,,,,,,,,,,z,1,0.721,,,,,,,,0,82,82,139,1
,,,,,,,,,,,,,,,,,,24,2022-02-12_12h31.33.716,lexical_decision_task_DD_L4,2021.2.3,MacIntel,60.0024001,,,,,,,,,,,0.59,1,,,,,,,,,,,,,,,,,,,,,,,,-0.030548661,-0.289252726,0,0,0,space,,,,,,VALLEY,LB,m,y,./images/VALLEYLB.png,1.1906,,,,,,,,,,,,,,,,,,,,m,1,0.59,,,,,,,,0,83,83,68,1
,,,,,,,,,,,,,,,,,,24,2022-02-12_12h31.33.716,lexical_decision_task_DD_L4,2021.2.3,MacIntel,60.0024001,,,,,,,,,,,0.7209,1,,,,,,,,,,,,,,,,,,,,,,,,-0.030548661,-0.289252726,0,0,0,,,,,,,BRIDE,HB,m,y,./images/BRIDEHB.png,,,,,,,,,,,,,,,,,,,,,m,1,0.7209,,,,,,,,0,84,84,64,1
,,,,,,,,,,,,,,,,,,24,2022-02-12_12h31.33.716,lexical_decision_task_DD_L4,2021.2.3,MacIntel,60.0024001,,,,,,,,,,,0.794,1,,,,,,,,,,,,,,,,,,,,,,,,-0.030548661,-0.289252726,0,0,0,,,,,,,SPORT,C,z,y,./images/SPORT.png,,,,,,,,,,,,,,,,,,,,,z,1,0.794,,,,,,,,0,85,85,132,1
,,,,,,,,,,,,,,,,,,24,2022-02-12_12h31.33.716,lexical_decision_task_DD_L4,2021.2.3,MacIntel,60.0024001,,,,,,,,,,,1.0052,1,,,,,,,,,,,,,,,,,,,,,,,,-0.030548661,-0.289252726,0,0,0,,,,,,,FOLDER,C,z,y,./images/FOLDER.png,,,,,,,,,,,,,,,,,,,,,z,1,1.0052,,,,,,,,0,86,86,126,1
,,,,,,,,,,,,,,,,,,24,2022-02-12_12h31.33.716,lexical_decision_task_DD_L4,2021.2.3,MacIntel,60.0024001,,,,,,,,,,,0.6173,1,,,,,,,,,,,,,,,,,,,,,,,,-0.030548661,-0.289252726,0,0,0,,,,,,,SAUNA,C,m,y,./images/SAUNA.png,,,,,,,,,,,,,,,,,,,,,m,1,0.6173,,,,,,,,0,87,87,33,1
,,,,,,,,,,,,,,,,,,24,2022-02-12_12h31.33.716,lexical_decision_task_DD_L4,2021.2.3,MacIntel,60.0024001,,,,,,,,,,,0.6723,0,,,,,,,,,,,,,,,,,,,,,,,,-0.030548661,-0.289252726,0,0,0,,,,,,,CRADLE,LB,z,y,./images/CRADLELB.png,,,,,,,,,,,,,,,,,,,,,m,0,0.6723,,,,,,,,0,88,88,104,1
,,,,,,,,,,,,,,,,,,24,2022-02-12_12h31.33.716,lexical_decision_task_DD_L4,2021.2.3,MacIntel,60.0024001,,,,,,,,,,,1.4384,0,,,,,,,,,,,,,,,,,,,,,,,,-0.030548661,-0.289252726,0,0,0,,,,,,,PURSE,LB,z,y,./images/PURSELB.png,,,,,,,,,,,,,,,,,,,,,m,0,1.4384,,,,,,,,0,89,89,146,1
,,,,,,,,,,,,,,,,,,24,2022-02-12_12h31.33.716,lexical_decision_task_DD_L4,2021.2.3,MacIntel,60.0024001,,,,,,,,,,,1.0169,0,,,,,,,,,,,,,,,,,,,,,,,,-0.030548661,-0.289252726,0,0,0,,,,,,,SCREW,C,z,y,./images/SCREW.png,,,,,,,,,,,,,,,,,,,,,m,0,1.0169,,,,,,,,0,90,90,108,1
,,,,,,,,,,,,,,,,,,24,2022-02-12_12h31.33.716,lexical_decision_task_DD_L4,2021.2.3,MacIntel,60.0024001,,,,,,,,,,,1.156,1,,,,,,,,,,,,,,,,,,,,,,,,-0.030548661,-0.289252726,0,0,0,,,,,,,BUBBLE,LB,m,y,./images/BUBBLELB.png,,,,,,,,,,,,,,,,,,,,,m,1,1.156,,,,,,,,0,91,91,71,1
,,,,,,,,,,,,,,,,,,24,2022-02-12_12h31.33.716,lexical_decision_task_DD_L4,2021.2.3,MacIntel,60.0024001,,,,,,,,,,,1.5661,1,,,,,,,,,,,,,,,,,,,,,,,,-0.030548661,-0.289252726,0,0,0,,,,,,,BABOON,HB,z,y,./images/BABOONHB.png,,,,,,,,,,,,,,,,,,,,,z,1,1.5661,,,,,,,,0,92,92,142,1
,,,,,,,,,,,,,,,,,,24,2022-02-12_12h31.33.716,lexical_decision_task_DD_L4,2021.2.3,MacIntel,60.0024001,,,,,,,,,,,0.8847,0,,,,,,,,,,,,,,,,,,,,,,,,-0.030548661,-0.289252726,0,0,0,,,,,,,STOVE,LB,m,y,./images/STOVELB.png,,,,,,,,,,,,,,,,,,,,,z,0,0.8847,,,,,,,,0,93,93,2,1
,,,,,,,,,,,,,,,,,,24,2022-02-12_12h31.33.716,lexical_decision_task_DD_L4,2021.2.3,MacIntel,60.0024001,,,,,,,,,,,0.9685,1,,,,,,,,,,,,,,,,,,,,,,,,-0.030548661,-0.289252726,0,0,0,,,,,,,BISHOP,HB,m,y,./images/BISHOPHB.png,,,,,,,,,,,,,,,,,,,,,m,1,0.9685,,,,,,,,0,94,94,49,1
,,,,,,,,,,,,,,,,,,24,2022-02-12_12h31.33.716,lexical_decision_task_DD_L4,2021.2.3,MacIntel,60.0024001,,,,,,,,,,,1.4875,1,,,,,,,,,,,,,,,,,,,,,,,,-0.030548661,-0.289252726,0,0,0,,,,,,,COUCH,LB,z,y,./images/COUCHLB.png,,,,,,,,,,,,,,,,,,,,,z,1,1.4875,,,,,,,,0,95,95,161,1
,,,,,,,,,,,,,,,,,,24,2022-02-12_12h31.33.716,lexical_decision_task_DD_L4,2021.2.3,MacIntel,60.0024001,,,,,,,,,,,0.6234,1,,,,,,,,,,,,,,,,,,,,,,,,-0.030548661,-0.289252726,0,0,0,,,,,,,CANOE,HB,m,y,./images/CANOEHB.png,,,,,,,,,,,,,,,,,,,,,m,1,0.6234,,,,,,,,0,96,96,58,1
,,,,,,,,,,,,,,,,,,24,2022-02-12_12h31.33.716,lexical_decision_task_DD_L4,2021.2.3,MacIntel,60.0024001,,,,,,,,,,,0.898,1,,,,,,,,,,,,,,,,,,,,,,,,-0.030548661,-0.289252726,0,0,0,,,,,,,CRUMB,LB,z,y,./images/CRUMBLB.png,,,,,,,,,,,,,,,,,,,,,z,1,0.898,,,,,,,,0,97,97,113,1
,,,,,,,,,,,,,,,,,,24,2022-02-12_12h31.33.716,lexical_decision_task_DD_L4,2021.2.3,MacIntel,60.0024001,,,,,,,,,,,0.6844,1,,,,,,,,,,,,,,,,,,,,,,,,-0.030548661,-0.289252726,0,0,0,,,,,,,GRANNY,LB,m,y,./images/GRANNYLB.png,,,,,,,,,,,,,,,,,,,,,m,1,0.6844,,,,,,,,0,98,98,20,1
,,,,,,,,,,,,,,,,,,24,2022-02-12_12h31.33.716,lexical_decision_task_DD_L4,2021.2.3,MacIntel,60.0024001,,,,,,,,,,,0.6755,1,,,,,,,,,,,,,,,,,,,,,,,,-0.030548661,-0.289252726,0,0,0,,,,,,,STRING,LB,z,y,./images/STRINGLB.png,,,,,,,,,,,,,,,,,,,,,z,1,0.6755,,,,,,,,0,99,99,125,1
,,,,,,,,,,,,,,,,,,24,2022-02-12_12h31.33.716,lexical_decision_task_DD_L4,2021.2.3,MacIntel,60.0024001,,,,,,,,,,,0.6697,1,,,,,,,,,,,,,,,,,,,,,,,,-0.030548661,-0.289252726,0,0,0,,,,,,,LIZARD,LB,z,y,./images/LIZARDLB.png,,,,,,,,,,,,,,,,,,,,,z,1,0.6697,,,,,,,,0,100,100,128,1
,,,,,,,,,,,,,,,,,,24,2022-02-12_12h31.33.716,lexical_decision_task_DD_L4,2021.2.3,MacIntel,60.0024001,,,,,,,,,,,0.5826,1,,,,,,,,,,,,,,,,,,,,,,,,-0.030548661,-0.289252726,0,0,0,,,,,,,SAUCE,C,m,y,./images/SAUCE.png,,,,,,,,,,,,,,,,,,,,,m,1,0.5826,,,,,,,,0,101,101,51,1
,,,,,,,,,,,,,,,,,,24,2022-02-12_12h31.33.716,lexical_decision_task_DD_L4,2021.2.3,MacIntel,60.0024001,,,,,,,,,,,0.7856,0,,,,,,,,,,,,,,,,,,,,,,,,-0.030548661,-0.289252726,0,0,0,,,,,,,GRAIN,C,z,y,./images/GRAIN.png,,,,,,,,,,,,,,,,,,,,,m,0,0.7856,,,,,,,,0,102,102,159,1
,,,,,,,,,,,,,,,,,,24,2022-02-12_12h31.33.716,lexical_decision_task_DD_L4,2021.2.3,MacIntel,60.0024001,,,,,,,,,,,0.6179,1,,,,,,,,,,,,,,,,,,,,,,,,-0.030548661,-0.289252726,0,0,0,,,,,,,BOXER,HB,m,y,./images/BOXERHB.png,,,,,,,,,,,,,,,,,,,,,m,1,0.6179,,,,,,,,0,103,103,4,1
,,,,,,,,,,,,,,,,,,24,2022-02-12_12h31.33.716,lexical_decision_task_DD_L4,2021.2.3,MacIntel,60.0024001,,,,,,,,,,,1.3976,1,,,,,,,,,,,,,,,,,,,,,,,,-0.030548661,-0.289252726,0,0,0,,,,,,,FLESH,C,m,y,./images/FLESH.png,,,,,,,,,,,,,,,,,,,,,m,1,1.3976,,,,,,,,0,104,104,24,1
,,,,,,,,,,,,,,,,,,24,2022-02-12_12h31.33.716,lexical_decision_task_DD_L4,2021.2.3,MacIntel,60.0024001,,,,,,,,,,,0.7519,1,,,,,,,,,,,,,,,,,,,,,,,,-0.030548661,-0.289252726,0,0,0,,,,,,,DOUGH,HB,z,y,./images/DOUGHHB.png,,,,,,,,,,,,,,,,,,,,,z,1,0.7519,,,,,,,,0,105,105,103,1
,,,,,,,,,,,,,,,,,,24,2022-02-12_12h31.33.716,lexical_decision_task_DD_L4,2021.2.3,MacIntel,60.0024001,,,,,,,,,,,0.9331,0,,,,,,,,,,,,,,,,,,,,,,,,-0.030548661,-0.289252726,0,0,0,,,,,,,BONNET,LB,z,y,./images/BONNETLB.png,,,,,,,,,,,,,,,,,,,,,m,0,0.9331,,,,,,,,0,106,106,95,1
,,,,,,,,,,,,,,,,,,24,2022-02-12_12h31.33.716,lexical_decision_task_DD_L4,2021.2.3,MacIntel,60.0024001,,,,,,,,,,,0.6682,1,,,,,,,,,,,,,,,,,,,,,,,,-0.030548661,-0.289252726,0,0,0,,,,,,,DIVER,C,m,y,./images/DIVER.png,,,,,,,,,,,,,,,,,,,,,m,1,0.6682,,,,,,,,0,107,107,9,1
,,,,,,,,,,,,,,,,,,24,2022-02-12_12h31.33.716,lexical_decision_task_DD_L4,2021.2.3,MacIntel,60.0024001,,,,,,,,,,,0.9385,0,,,,,,,,,,,,,,,,,,,,,,,,-0.030548661,-0.289252726,0,0,0,,,,,,,GLOVE,HB,m,y,./images/GLOVEHB.png,,,,,,,,,,,,,,,,,,,,,z,0,0.9385,,,,,,,,0,108,108,73,1
,,,,,,,,,,,,,,,,,,24,2022-02-12_12h31.33.716,lexical_decision_task_DD_L4,2021.2.3,MacIntel,60.0024001,,,,,,,,,,,0.7179,1,,,,,,,,,,,,,,,,,,,,,,,,-0.030548661,-0.289252726,0,0,0,,,,,,,PEARL,HB,z,y,./images/PEARLHB.png,,,,,,,,,,,,,,,,,,,,,z,1,0.7179,,,,,,,,0,109,109,130,1
,,,,,,,,,,,,,,,,,,24,2022-02-12_12h31.33.716,lexical_decision_task_DD_L4,2021.2.3,MacIntel,60.0024001,,,,,,,,,,,0.6502,1,,,,,,,,,,,,,,,,,,,,,,,,-0.030548661,-0.289252726,0,0,0,,,,,,,SQUARE,C,z,y,./images/SQUARE.png,,,,,,,,,,,,,,,,,,,,,z,1,0.6502,,,,,,,,0,110,110,90,1
,,,,,,,,,,,,,,,,,,24,2022-02-12_12h31.33.716,lexical_decision_task_DD_L4,2021.2.3,MacIntel,60.0024001,,,,,,,,,,,0.5546,1,,,,,,,,,,,,,,,,,,,,,,,,-0.030548661,-0.289252726,0,0,0,,,,,,,FALCON,HB,z,y,./images/FALCONHB.png,,,,,,,,,,,,,,,,,,,,,z,1,0.5546,,,,,,,,0,111,111,112,1
,,,,,,,,,,,,,,,,,,24,2022-02-12_12h31.33.716,lexical_decision_task_DD_L4,2021.2.3,MacIntel,60.0024001,,,,,,,,,,,0.5982,1,,,,,,,,,,,,,,,,,,,,,,,,-0.030548661,-0.289252726,0,0,0,,,,,,,BAMBOO,LB,m,y,./images/BAMBOOLB.png,,,,,,,,,,,,,,,,,,,,,m,1,0.5982,,,,,,,,0,112,112,5,1
,,,,,,,,,,,,,,,,,,24,2022-02-12_12h31.33.716,lexical_decision_task_DD_L4,2021.2.3,MacIntel,60.0024001,,,,,,,,,,,0.6315,1,,,,,,,,,,,,,,,,,,,,,,,,-0.030548661,-0.289252726,0,0,0,,,,,,,BLOKE,C,m,y,./images/BLOKE.png,,,,,,,,,,,,,,,,,,,,,m,1,0.6315,,,,,,,,0,113,113,12,1
,,,,,,,,,,,,,,,,,,24,2022-02-12_12h31.33.716,lexical_decision_task_DD_L4,2021.2.3,MacIntel,60.0024001,,,,,,,,,,,0.6704,1,,,,,,,,,,,,,,,,,,,,,,,,-0.030548661,-0.289252726,0,0,0,,,,,,,MAMMAL,LB,m,y,./images/MAMMALLB.png,,,,,,,,,,,,,,,,,,,,,m,1,0.6704,,,,,,,,0,114,114,62,1
,,,,,,,,,,,,,,,,,,24,2022-02-12_12h31.33.716,lexical_decision_task_DD_L4,2021.2.3,MacIntel,60.0024001,,,,,,,,,,,1.1052,1,,,,,,,,,,,,,,,,,,,,,,,,-0.030548661,-0.289252726,0,0,0,,,,,,,TOWEL,HB,m,y,./images/TOWELHB.png,,,,,,,,,,,,,,,,,,,,,m,1,1.1052,,,,,,,,0,115,115,1,1
,,,,,,,,,,,,,,,,,,24,2022-02-12_12h31.33.716,lexical_decision_task_DD_L4,2021.2.3,MacIntel,60.0024001,,,,,,,,,,,0.8862,1,,,,,,,,,,,,,,,,,,,,,,,,-0.030548661,-0.289252726,0,0,0,,,,,,,FENCE,LB,m,y,./images/FENCELB.png,,,,,,,,,,,,,,,,,,,,,m,1,0.8862,,,,,,,,0,116,116,14,1
,,,,,,,,,,,,,,,,,,24,2022-02-12_12h31.33.716,lexical_decision_task_DD_L4,2021.2.3,MacIntel,60.0024001,,,,,,,,,,,0.7214,1,,,,,,,,,,,,,,,,,,,,,,,,-0.030548661,-0.289252726,0,0,0,,,,,,,BASKET,LB,m,y,./images/BASKETLB.png,,,,,,,,,,,,,,,,,,,,,m,1,0.7214,,,,,,,,0,117,117,44,1
,,,,,,,,,,,,,,,,,,24,2022-02-12_12h31.33.716,lexical_decision_task_DD_L4,2021.2.3,MacIntel,60.0024001,,,,,,,,,,,0.7671,1,,,,,,,,,,,,,,,,,,,,,,,,-0.030548661,-0.289252726,0,0,0,,,,,,,MEDAL,LB,m,y,./images/MEDALLB.png,,,,,,,,,,,,,,,,,,,,,m,1,0.7671,,,,,,,,0,118,118,11,1
,,,,,,,,,,,,,,,,,,24,2022-02-12_12h31.33.716,lexical_decision_task_DD_L4,2021.2.3,MacIntel,60.0024001,,,,,,,,,,,0.6326,1,,,,,,,,,,,,,,,,,,,,,,,,-0.030548661,-0.289252726,0,0,0,,,,,,,TIGER,HB,m,y,./images/TIGERHB.png,,,,,,,,,,,,,,,,,,,,,m,1,0.6326,,,,,,,,0,119,119,37,1
,,,,,,,,,,,,,,,,,,24,2022-02-12_12h31.33.716,lexical_decision_task_DD_L4,2021.2.3,MacIntel,60.0024001,,,,,,,,,,,0.733,1,,,,,,,,,,,,,,,,,,,,,,,,-0.030548661,-0.289252726,0,0,0,,,,,,,CARPET,LB,z,y,./images/CARPETLB.png,,,,,,,,,,,,,,,,,,,,,z,1,0.733,,,,,,,,0,120,120,137,1
,,,,,,,,,,,,,,,,,,24,2022-02-12_12h31.33.716,lexical_decision_task_DD_L4,2021.2.3,MacIntel,60.0024001,,,,,,,,,,,0.7155,0,,,,,,,,,,,,,,,,,,,,,,,,-0.030548661,-0.289252726,0,0,0,,,,,,,BIRTH,HB,z,y,./images/BIRTHHB.png,,,,,,,,,,,,,,,,,,,,,m,0,0.7155,,,,,,,,0,121,121,121,1
,,,,,,,,,,,,,,,,,,24,2022-02-12_12h31.33.716,lexical_decision_task_DD_L4,2021.2.3,MacIntel,60.0024001,,,,,,,,,,,0.9171,0,,,,,,,,,,,,,,,,,,,,,,,,-0.030548661,-0.289252726,0,0,0,,,,,,,CLOUD,LB,m,y,./images/CLOUDLB.png,,,,,,,,,,,,,,,,,,,,,z,0,0.9171,,,,,,,,0,122,122,26,1
,,,,,,,,,,,,,,,,,,24,2022-02-12_12h31.33.716,lexical_decision_task_DD_L4,2021.2.3,MacIntel,60.0024001,,,,,,,,,,,0.9159,0,,,,,,,,,,,,,,,,,,,,,,,,-0.030548661,-0.289252726,0,0,0,,,,,,,DRILL,C,m,y,./images/DRILL.png,,,,,,,,,,,,,,,,,,,,,z,0,0.9159,,,,,,,,0,123,123,81,1
,,,,,,,,,,,,,,,,,,24,2022-02-12_12h31.33.716,lexical_decision_task_DD_L4,2021.2.3,MacIntel,60.0024001,,,,,,,,,,,0.7178,1,,,,,,,,,,,,,,,,,,,,,,,,-0.030548661,-0.289252726,0,0,0,,,,,,,JUNGLE,LB,z,y,./images/JUNGLELB.png,,,,,,,,,,,,,,,,,,,,,z,1,0.7178,,,,,,,,0,124,124,167,1
,,,,,,,,,,,,,,,,,,24,2022-02-12_12h31.33.716,lexical_decision_task_DD_L4,2021.2.3,MacIntel,60.0024001,,,,,,,,,,,0.624,0,,,,,,,,,,,,,,,,,,,,,,,,-0.030548661,-0.289252726,0,0,0,space,,,,,,SAILOR,HB,z,y,./images/SAILORHB.png,1.2663,,,,,,,,,,,,,,,,,,,,m,0,0.624,,,,,,,,0,125,125,151,1
,,,,,,,,,,,,,,,,,,24,2022-02-12_12h31.33.716,lexical_decision_task_DD_L4,2021.2.3,MacIntel,60.0024001,,,,,,,,,,,0.9775,1,,,,,,,,,,,,,,,,,,,,,,,,-0.030548661,-0.289252726,0,0,0,,,,,,,MIRROR,C,z,y,./images/MIRROR.png,,,,,,,,,,,,,,,,,,,,,z,1,0.9775,,,,,,,,0,126,126,147,1
,,,,,,,,,,,,,,,,,,24,2022-02-12_12h31.33.716,lexical_decision_task_DD_L4,2021.2.3,MacIntel,60.0024001,,,,,,,,,,,0.6521,1,,,,,,,,,,,,,,,,,,,,,,,,-0.030548661,-0.289252726,0,0,0,,,,,,,BUNNY,HB,m,y,./images/BUNNYHB.png,,,,,,,,,,,,,,,,,,,,,m,1,0.6521,,,,,,,,0,127,127,13,1
,,,,,,,,,,,,,,,,,,24,2022-02-12_12h31.33.716,lexical_decision_task_DD_L4,2021.2.3,MacIntel,60.0024001,,,,,,,,,,,0.6113,1,,,,,,,,,,,,,,,,,,,,,,,,-0.030548661,-0.289252726,0,0,0,,,,,,,PASTA,LB,z,y,./images/PASTALB.png,,,,,,,,,,,,,,,,,,,,,z,1,0.6113,,,,,,,,0,128,128,89,1
,,,,,,,,,,,,,,,,,,24,2022-02-12_12h31.33.716,lexical_decision_task_DD_L4,2021.2.3,MacIntel,60.0024001,,,,,,,,,,,1.1612,0,,,,,,,,,,,,,,,,,,,,,,,,-0.030548661,-0.289252726,0,0,0,,,,,,,BERRY,LB,z,y,./images/BERRYLB.png,,,,,,,,,,,,,,,,,,,,,m,0,1.1612,,,,,,,,0,129,129,131,1
,,,,,,,,,,,,,,,,,,24,2022-02-12_12h31.33.716,lexical_decision_task_DD_L4,2021.2.3,MacIntel,60.0024001,,,,,,,,,,,0.893,1,,,,,,,,,,,,,,,,,,,,,,,,-0.030548661,-0.289252726,0,0,0,,,,,,,JAGUAR,C,z,y,./images/JAGUAR.png,,,,,,,,,,,,,,,,,,,,,z,1,0.893,,,,,,,,0,130,130,102,1
,,,,,,,,,,,,,,,,,,24,2022-02-12_12h31.33.716,lexical_decision_task_DD_L4,2021.2.3,MacIntel,60.0024001,,,,,,,,,,,0.889,1,,,,,,,,,,,,,,,,,,,,,,,,-0.030548661,-0.289252726,0,0,0,,,,,,,BARREL,LB,z,y,./images/BARRELLB.png,,,,,,,,,,,,,,,,,,,,,z,1,0.889,,,,,,,,0,131,131,116,1
,,,,,,,,,,,,,,,,,,24,2022-02-12_12h31.33.716,lexical_decision_task_DD_L4,2021.2.3,MacIntel,60.0024001,,,,,,,,,,,0.7418,1,,,,,,,,,,,,,,,,,,,,,,,,-0.030548661,-0.289252726,0,0,0,,,,,,,DANCER,C,m,y,./images/DANCER.png,,,,,,,,,,,,,,,,,,,,,m,1,0.7418,,,,,,,,0,132,132,21,1
,,,,,,,,,,,,,,,,,,24,2022-02-12_12h31.33.716,lexical_decision_task_DD_L4,2021.2.3,MacIntel,60.0024001,,,,,,,,,,,0.6683,1,,,,,,,,,,,,,,,,,,,,,,,,-0.030548661,-0.289252726,0,0,0,,,,,,,MONKEY,C,m,y,./images/MONKEY.png,,,,,,,,,,,,,,,,,,,,,m,1,0.6683,,,,,,,,0,133,133,45,1
,,,,,,,,,,,,,,,,,,24,2022-02-12_12h31.33.716,lexical_decision_task_DD_L4,2021.2.3,MacIntel,60.0024001,,,,,,,,,,,0.6507,0,,,,,,,,,,,,,,,,,,,,,,,,-0.030548661,-0.289252726,0,0,0,,,,,,,ARTIST,HB,m,y,./images/ARTISTHB.png,,,,,,,,,,,,,,,,,,,,,z,0,0.6507,,,,,,,,0,134,134,61,1
,,,,,,,,,,,,,,,,,,24,2022-02-12_12h31.33.716,lexical_decision_task_DD_L4,2021.2.3,MacIntel,60.0024001,,,,,,,,,,,0.6958,1,,,,,,,,,,,,,,,,,,,,,,,,-0.030548661,-0.289252726,0,0,0,,,,,,,CASINO,HB,m,y,./images/CASINOHB.png,,,,,,,,,,,,,,,,,,,,,m,1,0.6958,,,,,,,,0,135,135,28,1
,,,,,,,,,,,,,,,,,,24,2022-02-12_12h31.33.716,lexical_decision_task_DD_L4,2021.2.3,MacIntel,60.0024001,,,,,,,,,,,0.7597,1,,,,,,,,,,,,,,,,,,,,,,,,-0.030548661,-0.289252726,0,0,0,,,,,,,CHAIN,C,m,y,./images/CHAIN.png,,,,,,,,,,,,,,,,,,,,,m,1,0.7597,,,,,,,,0,136,136,42,1
,,,,,,,,,,,,,,,,,,24,2022-02-12_12h31.33.716,lexical_decision_task_DD_L4,2021.2.3,MacIntel,60.0024001,,,,,,,,,,,0.6473,1,,,,,,,,,,,,,,,,,,,,,,,,-0.030548661,-0.289252726,0,0,0,,,,,,,SHELF,C,z,y,./images/SHELF.png,,,,,,,,,,,,,,,,,,,,,z,1,0.6473,,,,,,,,0,137,137,123,1
,,,,,,,,,,,,,,,,,,24,2022-02-12_12h31.33.716,lexical_decision_task_DD_L4,2021.2.3,MacIntel,60.0024001,,,,,,,,,,,1.4517,1,,,,,,,,,,,,,,,,,,,,,,,,-0.030548661,-0.289252726,0,0,0,,,,,,,SWEAT,C,z,y,./images/SWEAT.png,,,,,,,,,,,,,,,,,,,,,z,1,1.4517,,,,,,,,0,138,138,150,1
,,,,,,,,,,,,,,,,,,24,2022-02-12_12h31.33.716,lexical_decision_task_DD_L4,2021.2.3,MacIntel,60.0024001,,,,,,,,,,,0.9816,0,,,,,,,,,,,,,,,,,,,,,,,,-0.030548661,-0.289252726,0,0,0,,,,,,,BRUSH,LB,m,y,./images/BRUSHLB.png,,,,,,,,,,,,,,,,,,,,,z,0,0.9816,,,,,,,,0,139,139,59,1
,,,,,,,,,,,,,,,,,,24,2022-02-12_12h31.33.716,lexical_decision_task_DD_L4,2021.2.3,MacIntel,60.0024001,,,,,,,,,,,0.8814,1,,,,,,,,,,,,,,,,,,,,,,,,-0.030548661,-0.289252726,0,0,0,,,,,,,PARADE,LB,m,y,./images/PARADELB.png,,,,,,,,,,,,,,,,,,,,,m,1,0.8814,,,,,,,,0,140,140,17,1
,,,,,,,,,,,,,,,,,,24,2022-02-12_12h31.33.716,lexical_decision_task_DD_L4,2021.2.3,MacIntel,60.0024001,,,,,,,,,,,1.0012,1,,,,,,,,,,,,,,,,,,,,,,,,-0.030548661,-0.289252726,0,0,0,,,,,,,POKER,HB,m,y,./images/POKERHB.png,,,,,,,,,,,,,,,,,,,,,m,1,1.0012,,,,,,,,0,141,141,67,1
,,,,,,,,,,,,,,,,,,24,2022-02-12_12h31.33.716,lexical_decision_task_DD_L4,2021.2.3,MacIntel,60.0024001,,,,,,,,,,,0.642,0,,,,,,,,,,,,,,,,,,,,,,,,-0.030548661,-0.289252726,0,0,0,,,,,,,WALNUT,C,m,y,./images/WALNUT.png,,,,,,,,,,,,,,,,,,,,,z,0,0.642,,,,,,,,0,142,142,0,1
,,,,,,,,,,,,,,,,,,24,2022-02-12_12h31.33.716,lexical_decision_task_DD_L4,2021.2.3,MacIntel,60.0024001,,,,,,,,,,,0.975,1,,,,,,,,,,,,,,,,,,,,,,,,-0.030548661,-0.289252726,0,0,0,,,,,,,CANDY,C,m,y,./images/CANDY.png,,,,,,,,,,,,,,,,,,,,,m,1,0.975,,,,,,,,0,143,143,39,1
,,,,,,,,,,,,,,,,,,24,2022-02-12_12h31.33.716,lexical_decision_task_DD_L4,2021.2.3,MacIntel,60.0024001,,,,,,,,,,,0.66,1,,,,,,,,,,,,,,,,,,,,,,,,-0.030548661,-0.289252726,0,0,0,,,,,,,CURRY,C,m,y,./images/CURRY.png,,,,,,,,,,,,,,,,,,,,,m,1,0.66,,,,,,,,0,144,144,60,1
,,,,,,,,,,,,,,,,,,24,2022-02-12_12h31.33.716,lexical_decision_task_DD_L4,2021.2.3,MacIntel,60.0024001,,,,,,,,,,,0.9308,1,,,,,,,,,,,,,,,,,,,,,,,,-0.030548661,-0.289252726,0,0,0,,,,,,,BURIAL,LB,z,y,./images/BURIALLB.png,,,,,,,,,,,,,,,,,,,,,z,1,0.9308,,,,,,,,0,145,145,143,1
,,,,,,,,,,,,,,,,,,24,2022-02-12_12h31.33.716,lexical_decision_task_DD_L4,2021.2.3,MacIntel,60.0024001,,,,,,,,,,,0.7108,1,,,,,,,,,,,,,,,,,,,,,,,,-0.030548661,-0.289252726,0,0,0,,,,,,,KITTEN,C,z,y,./images/KITTEN.png,,,,,,,,,,,,,,,,,,,,,z,1,0.7108,,,,,,,,0,146,146,129,1
,,,,,,,,,,,,,,,,,,24,2022-02-12_12h31.33.716,lexical_decision_task_DD_L4,2021.2.3,MacIntel,60.0024001,,,,,,,,,,,0.6265,1,,,,,,,,,,,,,,,,,,,,,,,,-0.030548661,-0.289252726,0,0,0,,,,,,,MALLET,LB,z,y,./images/MALLETLB.png,,,,,,,,,,,,,,,,,,,,,z,1,0.6265,,,,,,,,0,147,147,134,1
,,,,,,,,,,,,,,,,,,24,2022-02-12_12h31.33.716,lexical_decision_task_DD_L4,2021.2.3,MacIntel,60.0024001,,,,,,,,,,,0.7414,0,,,,,,,,,,,,,,,,,,,,,,,,-0.030548661,-0.289252726,0,0,0,,,,,,,RAZOR,HB,m,y,./images/RAZORHB.png,,,,,,,,,,,,,,,,,,,,,z,0,0.7414,,,,,,,,0,148,148,34,1
,,,,,,,,,,,,,,,,,,24,2022-02-12_12h31.33.716,lexical_decision_task_DD_L4,2021.2.3,MacIntel,60.0024001,,,,,,,,,,,0.7214,1,,,,,,,,,,,,,,,,,,,,,,,,-0.030548661,-0.289252726,0,0,0,,,,,,,LITTER,C,z,y,./images/LITTER.png,,,,,,,,,,,,,,,,,,,,,z,1,0.7214,,,,,,,,0,149,149,162,1
,,,,,,,,,,,,,,,,,,24,2022-02-12_12h31.33.716,lexical_decision_task_DD_L4,2021.2.3,MacIntel,60.0024001,,,,,,,,,,,0.7219,1,,,,,,,,,,,,,,,,,,,,,,,,-0.030548661,-0.289252726,0,0,0,,,,,,,LLAMA,LB,m,y,./images/LLAMALB.png,,,,,,,,,,,,,,,,,,,,,m,1,0.7219,,,,,,,,0,150,150,35,1
,,,,,,,,,,,,,,,,,,24,2022-02-12_12h31.33.716,lexical_decision_task_DD_L4,2021.2.3,MacIntel,60.0024001,,,,,,,,,,,0.5608,1,,,,,,,,,,,,,,,,,,,,,,,,-0.030548661,-0.289252726,0,0,0,,,,,,,BAKER,C,m,y,./images/BAKER.png,,,,,,,,,,,,,,,,,,,,,m,1,0.5608,,,,,,,,0,151,151,63,1
,,,,,,,,,,,,,,,,,,24,2022-02-12_12h31.33.716,lexical_decision_task_DD_L4,2021.2.3,MacIntel,60.0024001,,,,,,,,,,,0.7901,0,,,,,,,,,,,,,,,,,,,,,,,,-0.030548661,-0.289252726,0,0,0,,,,,,,BOILER,C,m,y,./images/BOILER.png,,,,,,,,,,,,,,,,,,,,,z,0,0.7901,,,,,,,,0,152,152,36,1
,,,,,,,,,,,,,,,,,,24,2022-02-12_12h31.33.716,lexical_decision_task_DD_L4,2021.2.3,MacIntel,60.0024001,,,,,,,,,,,0.5561,1,,,,,,,,,,,,,,,,,,,,,,,,-0.030548661,-0.289252726,0,0,0,,,,,,,WAGON,HB,m,y,./images/WAGONHB.png,,,,,,,,,,,,,,,,,,,,,m,1,0.5561,,,,,,,,0,153,153,7,1
,,,,,,,,,,,,,,,,,,24,2022-02-12_12h31.33.716,lexical_decision_task_DD_L4,2021.2.3,MacIntel,60.0024001,,,,,,,,,,,0.5997,1,,,,,,,,,,,,,,,,,,,,,,,,-0.030548661,-0.289252726,0,0,0,,,,,,,THROAT,C,z,y,./images/THROAT.png,,,,,,,,,,,,,,,,,,,,,z,1,0.5997,,,,,,,,0,154,154,120,1
,,,,,,,,,,,,,,,,,,24,2022-02-12_12h31.33.716,lexical_decision_task_DD_L4,2021.2.3,MacIntel,60.0024001,,,,,,,,,,,0.6846,1,,,,,,,,,,,,,,,,,,,,,,,,-0.030548661,-0.289252726,0,0,0,,,,,,,TWINS,C,z,y,./images/TWINS.png,,,,,,,,,,,,,,,,,,,,,z,1,0.6846,,,,,,,,0,155,155,144,1
,,,,,,,,,,,,,,,,,,24,2022-02-12_12h31.33.716,lexical_decision_task_DD_L4,2021.2.3,MacIntel,60.0024001,,,,,,,,,,,0.5159,1,,,,,,,,,,,,,,,,,,,,,,,,-0.030548661,-0.289252726,0,0,0,,,,,,,TULIP,LB,z,y,./images/TULIPLB.png,,,,,,,,,,,,,,,,,,,,,z,1,0.5159,,,,,,,,0,156,156,92,1
,,,,,,,,,,,,,,,,,,24,2022-02-12_12h31.33.716,lexical_decision_task_DD_L4,2021.2.3,MacIntel,60.0024001,,,,,,,,,,,0.645,1,,,,,,,,,,,,,,,,,,,,,,,,-0.030548661,-0.289252726,0,0,0,,,,,,,URINE,HB,z,y,./images/URINEHB.png,,,,,,,,,,,,,,,,,,,,,z,1,0.645,,,,,,,,0,157,157,154,1
