key_resp.keys,instr_done_touch.x,instr_done_touch.y,instr_done_touch.leftButton,instr_done_touch.midButton,instr_done_touch.rightButton,instr_done_touch.clicked_name,instruction_pages.thisRepN,instruction_pages.thisTrialN,instruction_pages.thisN,instruction_pages.thisIndex,instruction_pages.ran,pageN,phase,instruct_text,has_image,instruct_image,participant,age,date,expName,psychopyVersion,OS,frameRate,key_resp.rt,response.keys,response.corr,response.rt,touch_resp.x,touch_resp.y,touch_resp.leftButton,touch_resp.midButton,touch_resp.rightButton,touch_resp.time,touch_resp.clicked_name,rt,corr,practrials.thisRepN,practrials.thisTrialN,practrials.thisN,practrials.thisIndex,practrials.ran,TrialID,Target,corrAns,end_of_practice_trials_pages.thisRepN,end_of_practice_trials_pages.thisTrialN,end_of_practice_trials_pages.thisN,end_of_practice_trials_pages.thisIndex,end_of_practice_trials_pages.ran,key_resp_2.keys,key_resp_2.corr,key_resp_2.rt,targ_click.x,targ_click.y,targ_click.leftButton,targ_click.midButton,targ_click.rightButton,targ_click.time,targ_click.clicked_name,break_done_touch.x,break_done_touch.y,break_done_touch.leftButton,break_done_touch.midButton,break_done_touch.rightButton,break_done_keyboard.keys,maintrials.thisRepN,maintrials.thisTrialN,maintrials.thisN,maintrials.thisIndex,maintrials.ran,string,blur,study,lex,stim_path,break_done_keyboard.rt,mouse_2.x,mouse_2.y,mouse_2.leftButton,mouse_2.midButton,mouse_2.rightButton,mouse_2.clicked_name,slider.response,slider.rt,trials.thisRepN,trials.thisTrialN,trials.thisN,trials.thisIndex,trials.ran,test_instructions.thisRepN,test_instructions.thisTrialN,test_instructions.thisN,test_instructions.thisIndex,test_instructions.ran,key_resp_3.keys,key_resp_3.corr,key_resp_3.rt,test_click.x,test_click.y,test_click.leftButton,test_click.midButton,test_click.rightButton,test_click.time,test_click.clicked_name,test_phase.thisRepN,test_phase.thisTrialN,test_phase.thisN,test_phase.thisIndex,test_phase.ran
,0.042592606,-0.394444458,1,0,0,instr_done_button,0,0,0,0,1,1,instructions,"INSTRUCTIONS
At the start of each trial, look at the plus sign  (+) in the center of the screen.  This tells you that a trial is about to begin and where to look. Second, the plus sign will disappear and a string of letters will appear. Your task is to determine if the string of letters is a word or not. If the item is a word press the M key (on keyboard)  or touch the word button (phone/tablet).  If the item is not a word,  press the  Z key (on keyboard)  or touch the nonword button (on phone/tablet). 
Press the space bar or touch  continue.",0,,,27,2022-02-12_17h21.20.976,lexical_decision_task_DD_L4,2021.2.3,Win32,60.11421701,,,,,,,,,,,,,,,,,,,,,,,,,,,,,,,,,,,,,,,,,,,,,,,,,,,,,,,,,,,,,,,,,,,,,,,,,,,,,,,,,,,,,,
space,0.094444459,-0.397222236,0,0,0,,0,1,1,1,1,2,instructions,"If your device has a keyboard, press the 'Z' key for nonwords and the 'M' key for words.





Press the space bar or touch the button below to continue.",0,keyboard-example.gif,,27,2022-02-12_17h21.20.976,lexical_decision_task_DD_L4,2021.2.3,Win32,60.11421701,6.0937,,,,,,,,,,,,,,,,,,,,,,,,,,,,,,,,,,,,,,,,,,,,,,,,,,,,,,,,,,,,,,,,,,,,,,,,,,,,,,,,,,,,,
space,0.094444459,-0.397222236,0,0,0,,0,2,2,2,1,3,instructions,"If you are using a touchscreen only device, use the buttons on the screen. Do not use the mouse.





Press the space bar or touch the button below to continue.",0,touchscreen-example.gif,,27,2022-02-12_17h21.20.976,lexical_decision_task_DD_L4,2021.2.3,Win32,60.11421701,1.788,,,,,,,,,,,,,,,,,,,,,,,,,,,,,,,,,,,,,,,,,,,,,,,,,,,,,,,,,,,,,,,,,,,,,,,,,,,,,,,,,,,,,
space,0.094444459,-0.397222236,0,0,0,,0,3,3,3,1,4,instructions,"It is very important that you respond as quickly and accurately as possible, as each letter string will only be on the screen for two seconds. If you do not respond within this time, the message 'Too slow!' will be displayed and the experiment will progress to the next letter string. The first 20 trials will be practice trials and you will receive feedback on your answers. 

Press the space bar or touch the button below to start the practice trials.",0,,,27,2022-02-12_17h21.20.976,lexical_decision_task_DD_L4,2021.2.3,Win32,60.11421701,4.2035,,,,,,,,,,,,,,,,,,,,,,,,,,,,,,,,,,,,,,,,,,,,,,,,,,,,,,,,,,,,,,,,,,,,,,,,,,,,,,,,,,,,,
,,,,,,,,,,,,,,,,,,27,2022-02-12_17h21.20.976,lexical_decision_task_DD_L4,2021.2.3,Win32,60.11421701,,m,0,0.8544,,,,,,,,0.8544,0,0,0,0,9,1,1001,FARINY,z,,,,,,,,,,,,,,,,,,,,,,,,,,,,,,,,,,,,,,,,,,,,,,,,,,,,,,,,,,,,,,,,,
,,,,,,,,,,,,,,,,,,27,2022-02-12_17h21.20.976,lexical_decision_task_DD_L4,2021.2.3,Win32,60.11421701,,m,0,1.5435,,,,,,,,1.5435,0,0,1,1,15,1,1001,WHAISE,z,,,,,,,,,,,,,,,,,,,,,,,,,,,,,,,,,,,,,,,,,,,,,,,,,,,,,,,,,,,,,,,,,
,,,,,,,,,,,,,,,,,,27,2022-02-12_17h21.20.976,lexical_decision_task_DD_L4,2021.2.3,Win32,60.11421701,,z,1,1.5498,,,,,,,,1.5498,1,0,2,2,13,1,1001,ROUPET,z,,,,,,,,,,,,,,,,,,,,,,,,,,,,,,,,,,,,,,,,,,,,,,,,,,,,,,,,,,,,,,,,,
,,,,,,,,,,,,,,,,,,27,2022-02-12_17h21.20.976,lexical_decision_task_DD_L4,2021.2.3,Win32,60.11421701,,m,0,1.1827,,,,,,,,1.1827,0,0,3,3,12,1,1001,SPRINY,z,,,,,,,,,,,,,,,,,,,,,,,,,,,,,,,,,,,,,,,,,,,,,,,,,,,,,,,,,,,,,,,,,
,,,,,,,,,,,,,,,,,,27,2022-02-12_17h21.20.976,lexical_decision_task_DD_L4,2021.2.3,Win32,60.11421701,,m,1,0.7839,,,,,,,,0.7839,1,0,4,4,6,1,1001,ZOMBIE,m,,,,,,,,,,,,,,,,,,,,,,,,,,,,,,,,,,,,,,,,,,,,,,,,,,,,,,,,,,,,,,,,,
,,,,,,,,,,,,,,,,,,27,2022-02-12_17h21.20.976,lexical_decision_task_DD_L4,2021.2.3,Win32,60.11421701,,m,1,0.6828,,,,,,,,0.6828,1,0,5,5,7,1,1001,VOLUME,m,,,,,,,,,,,,,,,,,,,,,,,,,,,,,,,,,,,,,,,,,,,,,,,,,,,,,,,,,,,,,,,,,
,,,,,,,,,,,,,,,,,,27,2022-02-12_17h21.20.976,lexical_decision_task_DD_L4,2021.2.3,Win32,60.11421701,,z,1,0.5118,,,,,,,,0.5118,1,0,6,6,11,1,1001,RASHET,z,,,,,,,,,,,,,,,,,,,,,,,,,,,,,,,,,,,,,,,,,,,,,,,,,,,,,,,,,,,,,,,,,
,,,,,,,,,,,,,,,,,,27,2022-02-12_17h21.20.976,lexical_decision_task_DD_L4,2021.2.3,Win32,60.11421701,,m,1,0.6283,,,,,,,,0.6283,1,0,7,7,4,1,1001,SQUEAK,m,,,,,,,,,,,,,,,,,,,,,,,,,,,,,,,,,,,,,,,,,,,,,,,,,,,,,,,,,,,,,,,,,
,,,,,,,,,,,,,,,,,,27,2022-02-12_17h21.20.976,lexical_decision_task_DD_L4,2021.2.3,Win32,60.11421701,,m,1,0.6834,,,,,,,,0.6834,1,0,8,8,5,1,1001,OBTAIN,m,,,,,,,,,,,,,,,,,,,,,,,,,,,,,,,,,,,,,,,,,,,,,,,,,,,,,,,,,,,,,,,,,
,,,,,,,,,,,,,,,,,,27,2022-02-12_17h21.20.976,lexical_decision_task_DD_L4,2021.2.3,Win32,60.11421701,,z,1,0.7905,,,,,,,,0.7905,1,0,9,9,8,1,1001,ASLERT,z,,,,,,,,,,,,,,,,,,,,,,,,,,,,,,,,,,,,,,,,,,,,,,,,,,,,,,,,,,,,,,,,,
,,,,,,,,,,,,,,,,,,27,2022-02-12_17h21.20.976,lexical_decision_task_DD_L4,2021.2.3,Win32,60.11421701,,z,1,1.1857,,,,,,,,1.1857,1,0,10,10,10,1,1001,INLADE,z,,,,,,,,,,,,,,,,,,,,,,,,,,,,,,,,,,,,,,,,,,,,,,,,,,,,,,,,,,,,,,,,,
,,,,,,,,,,,,,,,,,,27,2022-02-12_17h21.20.976,lexical_decision_task_DD_L4,2021.2.3,Win32,60.11421701,,m,1,0.5746,,,,,,,,0.5746,1,0,11,11,3,1,1001,MATRIX,m,,,,,,,,,,,,,,,,,,,,,,,,,,,,,,,,,,,,,,,,,,,,,,,,,,,,,,,,,,,,,,,,,
,,,,,,,,,,,,,,,,,,27,2022-02-12_17h21.20.976,lexical_decision_task_DD_L4,2021.2.3,Win32,60.11421701,,m,1,0.5911,,,,,,,,0.5911,1,0,12,12,0,1,1001,UTOPIA,m,,,,,,,,,,,,,,,,,,,,,,,,,,,,,,,,,,,,,,,,,,,,,,,,,,,,,,,,,,,,,,,,,
,,,,,,,,,,,,,,,,,,27,2022-02-12_17h21.20.976,lexical_decision_task_DD_L4,2021.2.3,Win32,60.11421701,,z,1,0.6771,,,,,,,,0.6771,1,0,13,13,14,1,1001,THRALE,z,,,,,,,,,,,,,,,,,,,,,,,,,,,,,,,,,,,,,,,,,,,,,,,,,,,,,,,,,,,,,,,,,
,,,,,,,,,,,,,,,,,,27,2022-02-12_17h21.20.976,lexical_decision_task_DD_L4,2021.2.3,Win32,60.11421701,,m,1,0.5838,,,,,,,,0.5838,1,0,14,14,2,1,1001,ALMOND,m,,,,,,,,,,,,,,,,,,,,,,,,,,,,,,,,,,,,,,,,,,,,,,,,,,,,,,,,,,,,,,,,,
,,,,,,,,,,,,,,,,,,27,2022-02-12_17h21.20.976,lexical_decision_task_DD_L4,2021.2.3,Win32,60.11421701,,m,1,0.6235,,,,,,,,0.6235,1,0,15,15,1,1,1001,ADJUST,m,,,,,,,,,,,,,,,,,,,,,,,,,,,,,,,,,,,,,,,,,,,,,,,,,,,,,,,,,,,,,,,,,
space,0.094444459,-0.397222236,0,0,0,,,,,,,1,end_of_practice,"You have completed the practice trials. During the experimental trials, you will not receive feedback. 
Before you begin, please ensure that you are in a comfortable and quiet location and will not be disturbed for about 15 minutes, as we cannot use your data if you do not complete all the trials. 
 When you are ready to start the experimental trials, please press space or touch the button below.",,,,27,2022-02-12_17h21.20.976,lexical_decision_task_DD_L4,2021.2.3,Win32,60.11421701,1.3333,,,,,,,,,,,,,,,,,,,,,0,0,0,0,1,,,,,,,,,,,,,,,,,,,,,,,,,,,,,,,,,,,,,,,,,,,,,,,,,,,,,,,,,,,,
,,,,,,,,,,,,,,,,,,27,2022-02-12_17h21.20.976,lexical_decision_task_DD_L4,2021.2.3,Win32,60.11421701,,,,,,,,,,,,0.7611,1,,,,,,,,,,,,,,m,1,0.7611,,,,,,,,0.094444459,-0.397222236,0,0,0,,0,0,0,6,1,STAIN,C,old,m,./images/STAIN.png,,,,,,,,,,,,,,,,,,,,,,,,,,,,,,,,,,
,,,,,,,,,,,,,,,,,,27,2022-02-12_17h21.20.976,lexical_decision_task_DD_L4,2021.2.3,Win32,60.11421701,,,,,,,,,,,,0.677,1,,,,,,,,,,,,,,z,1,0.677,,,,,,,,0.094444459,-0.397222236,0,0,0,,0,1,1,161,1,BLAPS,LB,old,z,./images/BLAPSLB.png,,,,,,,,,,,,,,,,,,,,,,,,,,,,,,,,,,
,,,,,,,,,,,,,,,,,,27,2022-02-12_17h21.20.976,lexical_decision_task_DD_L4,2021.2.3,Win32,60.11421701,,,,,,,,,,,,0.8709,1,,,,,,,,,,,,,,z,1,0.8709,,,,,,,,0.094444459,-0.397222236,0,0,0,,0,2,2,125,1,MOOKY,LB,old,z,./images/MOOKYLB.png,,,,,,,,,,,,,,,,,,,,,,,,,,,,,,,,,,
,,,,,,,,,,,,,,,,,,27,2022-02-12_17h21.20.976,lexical_decision_task_DD_L4,2021.2.3,Win32,60.11421701,,,,,,,,,,,,0.9382,0,,,,,,,,,,,,,,m,0,0.9382,,,,,,,,0.094444459,-0.397222236,0,0,0,,0,3,3,97,1,CHIDS,HB,old,z,./images/CHIDSHB.png,,,,,,,,,,,,,,,,,,,,,,,,,,,,,,,,,,
,,,,,,,,,,,,,,,,,,27,2022-02-12_17h21.20.976,lexical_decision_task_DD_L4,2021.2.3,Win32,60.11421701,,,,,,,,,,,,1.1388,1,,,,,,,,,,,,,,m,1,1.1388,,,,,,,,0.094444459,-0.397222236,0,0,0,,0,4,4,26,1,CLOUD,LB,old,m,./images/CLOUDLB.png,,,,,,,,,,,,,,,,,,,,,,,,,,,,,,,,,,
,,,,,,,,,,,,,,,,,,27,2022-02-12_17h21.20.976,lexical_decision_task_DD_L4,2021.2.3,Win32,60.11421701,,,,,,,,,,,,1.2245,1,,,,,,,,,,,,,,z,1,1.2245,,,,,,,,0.094444459,-0.397222236,0,0,0,,0,5,5,121,1,CEERS,HB,old,z,./images/CEERSHB.png,,,,,,,,,,,,,,,,,,,,,,,,,,,,,,,,,,
,,,,,,,,,,,,,,,,,,27,2022-02-12_17h21.20.976,lexical_decision_task_DD_L4,2021.2.3,Win32,60.11421701,,,,,,,,,,,,0.8597,1,,,,,,,,,,,,,,z,1,0.8597,,,,,,,,0.094444459,-0.397222236,0,0,0,,0,6,6,95,1,HANTY,LB,old,z,./images/HANTYLB.png,,,,,,,,,,,,,,,,,,,,,,,,,,,,,,,,,,
,,,,,,,,,,,,,,,,,,27,2022-02-12_17h21.20.976,lexical_decision_task_DD_L4,2021.2.3,Win32,60.11421701,,,,,,,,,,,,0.5943,0,,,,,,,,,,,,,,m,0,0.5943,,,,,,,,0.094444459,-0.397222236,0,0,0,,0,7,7,159,1,CUDDY,C,old,z,./images/CUDDY.png,,,,,,,,,,,,,,,,,,,,,,,,,,,,,,,,,,
,,,,,,,,,,,,,,,,,,27,2022-02-12_17h21.20.976,lexical_decision_task_DD_L4,2021.2.3,Win32,60.11421701,,,,,,,,,,,,0.8775,0,,,,,,,,,,,,,,m,0,0.8775,,,,,,,,0.094444459,-0.397222236,0,0,0,,0,8,8,123,1,SEDGE,C,old,z,./images/SEDGE.png,,,,,,,,,,,,,,,,,,,,,,,,,,,,,,,,,,
,,,,,,,,,,,,,,,,,,27,2022-02-12_17h21.20.976,lexical_decision_task_DD_L4,2021.2.3,Win32,60.11421701,,,,,,,,,,,,0.8763,1,,,,,,,,,,,,,,z,1,0.8763,,,,,,,,0.094444459,-0.397222236,0,0,0,,0,9,9,103,1,FLORT,HB,old,z,./images/FLORTHB.png,,,,,,,,,,,,,,,,,,,,,,,,,,,,,,,,,,
,,,,,,,,,,,,,,,,,,27,2022-02-12_17h21.20.976,lexical_decision_task_DD_L4,2021.2.3,Win32,60.11421701,,,,,,,,,,,,0.7249,1,,,,,,,,,,,,,,m,1,0.7249,,,,,,,,0.094444459,-0.397222236,0,0,0,,0,10,10,60,1,CURRY,C,old,m,./images/CURRY.png,,,,,,,,,,,,,,,,,,,,,,,,,,,,,,,,,,
,,,,,,,,,,,,,,,,,,27,2022-02-12_17h21.20.976,lexical_decision_task_DD_L4,2021.2.3,Win32,60.11421701,,,,,,,,,,,,0.7791,1,,,,,,,,,,,,,,m,1,0.7791,,,,,,,,0.094444459,-0.397222236,0,0,0,,0,11,11,44,1,BASKET,LB,old,m,./images/BASKETLB.png,,,,,,,,,,,,,,,,,,,,,,,,,,,,,,,,,,
,,,,,,,,,,,,,,,,,,27,2022-02-12_17h21.20.976,lexical_decision_task_DD_L4,2021.2.3,Win32,60.11421701,,,,,,,,,,,,0.783,1,,,,,,,,,,,,,,z,1,0.783,,,,,,,,0.094444459,-0.397222236,0,0,0,,0,12,12,139,1,BLEAR,HB,old,z,./images/BLEARHB.png,,,,,,,,,,,,,,,,,,,,,,,,,,,,,,,,,,
,,,,,,,,,,,,,,,,,,27,2022-02-12_17h21.20.976,lexical_decision_task_DD_L4,2021.2.3,Win32,60.11421701,,,,,,,,,,,,0.5833,1,,,,,,,,,,,,,,m,1,0.5833,,,,,,,,0.094444459,-0.397222236,0,0,0,,0,13,13,54,1,CHERRY,C,old,m,./images/CHERRY.png,,,,,,,,,,,,,,,,,,,,,,,,,,,,,,,,,,
,,,,,,,,,,,,,,,,,,27,2022-02-12_17h21.20.976,lexical_decision_task_DD_L4,2021.2.3,Win32,60.11421701,,,,,,,,,,,,1.4484,1,,,,,,,,,,,,,,z,1,1.4484,,,,,,,,0.094444459,-0.397222236,0,0,0,,0,14,14,129,1,PRANS,C,old,z,./images/PRANS.png,,,,,,,,,,,,,,,,,,,,,,,,,,,,,,,,,,
,,,,,,,,,,,,,,,,,,27,2022-02-12_17h21.20.976,lexical_decision_task_DD_L4,2021.2.3,Win32,60.11421701,,,,,,,,,,,,0.8752,1,,,,,,,,,,,,,,z,1,0.8752,,,,,,,,0.094444459,-0.397222236,0,0,0,,0,15,15,99,1,BACKY,C,old,z,./images/BACKY.png,,,,,,,,,,,,,,,,,,,,,,,,,,,,,,,,,,
,,,,,,,,,,,,,,,,,,27,2022-02-12_17h21.20.976,lexical_decision_task_DD_L4,2021.2.3,Win32,60.11421701,,,,,,,,,,,,1.1318,1,,,,,,,,,,,,,,m,1,1.1318,,,,,,,,0.094444459,-0.397222236,0,0,0,,0,16,16,55,1,ALLEY,HB,old,m,./images/ALLEYHB.png,,,,,,,,,,,,,,,,,,,,,,,,,,,,,,,,,,
,,,,,,,,,,,,,,,,,,27,2022-02-12_17h21.20.976,lexical_decision_task_DD_L4,2021.2.3,Win32,60.11421701,,,,,,,,,,,,0.756,1,,,,,,,,,,,,,,m,1,0.756,,,,,,,,0.094444459,-0.397222236,0,0,0,,0,17,17,56,1,HEATER,LB,old,m,./images/HEATERLB.png,,,,,,,,,,,,,,,,,,,,,,,,,,,,,,,,,,
,,,,,,,,,,,,,,,,,,27,2022-02-12_17h21.20.976,lexical_decision_task_DD_L4,2021.2.3,Win32,60.11421701,,,,,,,,,,,,1.025,1,,,,,,,,,,,,,,z,1,1.025,,,,,,,,0.094444459,-0.397222236,0,0,0,,0,18,18,153,1,CLUPS,C,old,z,./images/CLUPS.png,,,,,,,,,,,,,,,,,,,,,,,,,,,,,,,,,,
,,,,,,,,,,,,,,,,,,27,2022-02-12_17h21.20.976,lexical_decision_task_DD_L4,2021.2.3,Win32,60.11421701,,,,,,,,,,,,1.5321,1,,,,,,,,,,,,,,z,1,1.5321,,,,,,,,0.094444459,-0.397222236,0,0,0,,0,19,19,134,1,TROSS,LB,old,z,./images/TROSSLB.png,,,,,,,,,,,,,,,,,,,,,,,,,,,,,,,,,,
,,,,,,,,,,,,,,,,,,27,2022-02-12_17h21.20.976,lexical_decision_task_DD_L4,2021.2.3,Win32,60.11421701,,,,,,,,,,,,1.3125,1,,,,,,,,,,,,,,z,1,1.3125,,,,,,,,0.094444459,-0.397222236,0,0,0,,0,20,20,98,1,BAMPS,LB,old,z,./images/BAMPSLB.png,,,,,,,,,,,,,,,,,,,,,,,,,,,,,,,,,,
,,,,,,,,,,,,,,,,,,27,2022-02-12_17h21.20.976,lexical_decision_task_DD_L4,2021.2.3,Win32,60.11421701,,,,,,,,,,,,1.1459,0,,,,,,,,,,,,,,m,0,1.1459,,,,,,,,0.094444459,-0.397222236,0,0,0,,0,21,21,130,1,CRILL,HB,old,z,./images/CRILLHB.png,,,,,,,,,,,,,,,,,,,,,,,,,,,,,,,,,,
,,,,,,,,,,,,,,,,,,27,2022-02-12_17h21.20.976,lexical_decision_task_DD_L4,2021.2.3,Win32,60.11421701,,,,,,,,,,,,0.7013,0,,,,,,,,,,,,,,m,0,0.7013,,,,,,,,0.094444459,-0.397222236,0,0,0,,0,22,22,166,1,SHORY,HB,old,z,./images/SHORYHB.png,,,,,,,,,,,,,,,,,,,,,,,,,,,,,,,,,,
,,,,,,,,,,,,,,,,,,27,2022-02-12_17h21.20.976,lexical_decision_task_DD_L4,2021.2.3,Win32,60.11421701,,,,,,,,,,,,1.0225,0,,,,,,,,,,,,,,m,0,1.0225,,,,,,,,0.094444459,-0.397222236,0,0,0,,0,23,23,128,1,GRIFT,LB,old,z,./images/GRIFTLB.png,,,,,,,,,,,,,,,,,,,,,,,,,,,,,,,,,,
,,,,,,,,,,,,,,,,,,27,2022-02-12_17h21.20.976,lexical_decision_task_DD_L4,2021.2.3,Win32,60.11421701,,,,,,,,,,,,1.2191,1,,,,,,,,,,,,,,z,1,1.2191,,,,,,,,0.094444459,-0.397222236,0,0,0,,0,24,24,145,1,LAMEL,HB,old,z,./images/LAMELHB.png,,,,,,,,,,,,,,,,,,,,,,,,,,,,,,,,,,
,,,,,,,,,,,,,,,,,,27,2022-02-12_17h21.20.976,lexical_decision_task_DD_L4,2021.2.3,Win32,60.11421701,,,,,,,,,,,,0.7703,1,,,,,,,,,,,,,,z,1,0.7703,,,,,,,,0.094444459,-0.397222236,0,0,0,,0,25,25,143,1,MONGS,LB,old,z,./images/MONGSLB.png,,,,,,,,,,,,,,,,,,,,,,,,,,,,,,,,,,
,,,,,,,,,,,,,,,,,,27,2022-02-12_17h21.20.976,lexical_decision_task_DD_L4,2021.2.3,Win32,60.11421701,,,,,,,,,,,,0.6163,1,,,,,,,,,,,,,,m,1,0.6163,,,,,,,,0.094444459,-0.397222236,0,0,0,,0,26,26,72,1,FLASK,C,old,m,./images/FLASK.png,,,,,,,,,,,,,,,,,,,,,,,,,,,,,,,,,,
,,,,,,,,,,,,,,,,,,27,2022-02-12_17h21.20.976,lexical_decision_task_DD_L4,2021.2.3,Win32,60.11421701,,,,,,,,,,,,0.5899,1,,,,,,,,,,,,,,m,1,0.5899,,,,,,,,0.094444459,-0.397222236,0,0,0,,0,27,27,41,1,STREAM,LB,old,m,./images/STREAMLB.png,,,,,,,,,,,,,,,,,,,,,,,,,,,,,,,,,,
,,,,,,,,,,,,,,,,,,27,2022-02-12_17h21.20.976,lexical_decision_task_DD_L4,2021.2.3,Win32,60.11421701,,,,,,,,,,,,1.0486,1,,,,,,,,,,,,,,m,1,1.0486,,,,,,,,0.094444459,-0.397222236,0,0,0,,0,28,28,67,1,POKER,HB,old,m,./images/POKERHB.png,,,,,,,,,,,,,,,,,,,,,,,,,,,,,,,,,,
,,,,,,,,,,,,,,,,,,27,2022-02-12_17h21.20.976,lexical_decision_task_DD_L4,2021.2.3,Win32,60.11421701,,,,,,,,,,,,0.6659,1,,,,,,,,,,,,,,z,1,0.6659,,,,,,,,0.094444459,-0.397222236,0,0,0,,0,29,29,147,1,ZOLES,C,old,z,./images/ZOLES.png,,,,,,,,,,,,,,,,,,,,,,,,,,,,,,,,,,
,,,,,,,,,,,,,,,,,,27,2022-02-12_17h21.20.976,lexical_decision_task_DD_L4,2021.2.3,Win32,60.11421701,,,,,,,,,,,,0.5428,1,,,,,,,,,,,,,,m,1,0.5428,,,,,,,,0.094444459,-0.397222236,0,0,0,,0,30,30,17,1,PARADE,LB,old,m,./images/PARADELB.png,,,,,,,,,,,,,,,,,,,,,,,,,,,,,,,,,,
,,,,,,,,,,,,,,,,,,27,2022-02-12_17h21.20.976,lexical_decision_task_DD_L4,2021.2.3,Win32,60.11421701,,,,,,,,,,,,0.5764,1,,,,,,,,,,,,,,m,1,0.5764,,,,,,,,0.094444459,-0.397222236,0,0,0,,0,31,31,5,1,BAMBOO,LB,old,m,./images/BAMBOOLB.png,,,,,,,,,,,,,,,,,,,,,,,,,,,,,,,,,,
,,,,,,,,,,,,,,,,,,27,2022-02-12_17h21.20.976,lexical_decision_task_DD_L4,2021.2.3,Win32,60.11421701,,,,,,,,,,,,0.5878,1,,,,,,,,,,,,,,m,1,0.5878,,,,,,,,0.094444459,-0.397222236,0,0,0,,0,32,32,21,1,DANCER,C,old,m,./images/DANCER.png,,,,,,,,,,,,,,,,,,,,,,,,,,,,,,,,,,
,,,,,,,,,,,,,,,,,,27,2022-02-12_17h21.20.976,lexical_decision_task_DD_L4,2021.2.3,Win32,60.11421701,,,,,,,,,,,,0.6946,1,,,,,,,,,,,,,,m,1,0.6946,,,,,,,,0.094444459,-0.397222236,0,0,0,,0,33,33,75,1,HAMMER,C,old,m,./images/HAMMER.png,,,,,,,,,,,,,,,,,,,,,,,,,,,,,,,,,,
,,,,,,,,,,,,,,,,,,27,2022-02-12_17h21.20.976,lexical_decision_task_DD_L4,2021.2.3,Win32,60.11421701,,,,,,,,,,,,0.9481,1,,,,,,,,,,,,,,m,1,0.9481,,,,,,,,0.094444459,-0.397222236,0,0,0,,0,34,34,13,1,BUNNY,HB,old,m,./images/BUNNYHB.png,,,,,,,,,,,,,,,,,,,,,,,,,,,,,,,,,,
,,,,,,,,,,,,,,,,,,27,2022-02-12_17h21.20.976,lexical_decision_task_DD_L4,2021.2.3,Win32,60.11421701,,,,,,,,,,,,0.9351,1,,,,,,,,,,,,,,z,1,0.9351,,,,,,,,0.094444459,-0.397222236,0,0,0,,0,35,35,115,1,MAWNS,HB,old,z,./images/MAWNSHB.png,,,,,,,,,,,,,,,,,,,,,,,,,,,,,,,,,,
,,,,,,,,,,,,,,,,,,27,2022-02-12_17h21.20.976,lexical_decision_task_DD_L4,2021.2.3,Win32,60.11421701,,,,,,,,,,,,1.0159,1,,,,,,,,,,,,,,z,1,1.0159,,,,,,,,0.094444459,-0.397222236,0,0,0,,0,36,36,100,1,DRIBS,HB,old,z,./images/DRIBSHB.png,,,,,,,,,,,,,,,,,,,,,,,,,,,,,,,,,,
,,,,,,,,,,,,,,,,,,27,2022-02-12_17h21.20.976,lexical_decision_task_DD_L4,2021.2.3,Win32,60.11421701,,,,,,,,,,,,1.2752,1,,,,,,,,,,,,,,z,1,1.2752,,,,,,,,0.094444459,-0.397222236,0,0,0,,0,37,37,109,1,BURGE,HB,old,z,./images/BURGEHB.png,,,,,,,,,,,,,,,,,,,,,,,,,,,,,,,,,,
,,,,,,,,,,,,,,,,,,27,2022-02-12_17h21.20.976,lexical_decision_task_DD_L4,2021.2.3,Win32,60.11421701,,,,,,,,,,,,0.7633,1,,,,,,,,,,,,,,z,1,0.7633,,,,,,,,0.094444459,-0.397222236,0,0,0,,0,38,38,111,1,HOSSE,C,old,z,./images/HOSSE.png,,,,,,,,,,,,,,,,,,,,,,,,,,,,,,,,,,
,,,,,,,,,,,,,,,,,,27,2022-02-12_17h21.20.976,lexical_decision_task_DD_L4,2021.2.3,Win32,60.11421701,,,,,,,,,,,,0.6034,1,,,,,,,,,,,,,,m,1,0.6034,,,,,,,,0.094444459,-0.397222236,0,0,0,,0,39,39,57,1,FERRY,C,old,m,./images/FERRY.png,,,,,,,,,,,,,,,,,,,,,,,,,,,,,,,,,,
,,,,,,,,,,,,,,,,,,27,2022-02-12_17h21.20.976,lexical_decision_task_DD_L4,2021.2.3,Win32,60.11421701,,,,,,,,,,,,0.6859,1,,,,,,,,,,,,,,m,1,0.6859,,,,,,,,0.094444459,-0.397222236,0,0,0,,0,40,40,18,1,PARCEL,C,old,m,./images/PARCEL.png,,,,,,,,,,,,,,,,,,,,,,,,,,,,,,,,,,
,,,,,,,,,,,,,,,,,,27,2022-02-12_17h21.20.976,lexical_decision_task_DD_L4,2021.2.3,Win32,60.11421701,,,,,,,,,,,,0.792,1,,,,,,,,,,,,,,m,1,0.792,,,,,,,,0.094444459,-0.397222236,0,0,0,space,0,41,41,1,1,TOWEL,HB,old,m,./images/TOWELHB.png,13.8356,,,,,,,,,,,,,,,,,,,,,,,,,,,,,,,,,
,,,,,,,,,,,,,,,,,,27,2022-02-12_17h21.20.976,lexical_decision_task_DD_L4,2021.2.3,Win32,60.11421701,,,,,,,,,,,,0.5965,1,,,,,,,,,,,,,,z,1,0.5965,,,,,,,,0.094444459,-0.397222236,0,0,0,,0,42,42,164,1,SGREW,LB,old,z,./images/SGREWLB.png,,,,,,,,,,,,,,,,,,,,,,,,,,,,,,,,,,
,,,,,,,,,,,,,,,,,,27,2022-02-12_17h21.20.976,lexical_decision_task_DD_L4,2021.2.3,Win32,60.11421701,,,,,,,,,,,,0.7302,1,,,,,,,,,,,,,,z,1,0.7302,,,,,,,,0.094444459,-0.397222236,0,0,0,,0,43,43,107,1,FASKS,LB,old,z,./images/FASKSLB.png,,,,,,,,,,,,,,,,,,,,,,,,,,,,,,,,,,
,,,,,,,,,,,,,,,,,,27,2022-02-12_17h21.20.976,lexical_decision_task_DD_L4,2021.2.3,Win32,60.11421701,,,,,,,,,,,,0.9697,1,,,,,,,,,,,,,,z,1,0.9697,,,,,,,,0.094444459,-0.397222236,0,0,0,,0,44,44,146,1,MOOST,LB,old,z,./images/MOOSTLB.png,,,,,,,,,,,,,,,,,,,,,,,,,,,,,,,,,,
,,,,,,,,,,,,,,,,,,27,2022-02-12_17h21.20.976,lexical_decision_task_DD_L4,2021.2.3,Win32,60.11421701,,,,,,,,,,,,1.1157,1,,,,,,,,,,,,,,m,1,1.1157,,,,,,,,0.094444459,-0.397222236,0,0,0,,0,45,45,65,1,SPINE,LB,old,m,./images/SPINELB.png,,,,,,,,,,,,,,,,,,,,,,,,,,,,,,,,,,
,,,,,,,,,,,,,,,,,,27,2022-02-12_17h21.20.976,lexical_decision_task_DD_L4,2021.2.3,Win32,60.11421701,,,,,,,,,,,,0.7655,1,,,,,,,,,,,,,,z,1,0.7655,,,,,,,,0.094444459,-0.397222236,0,0,0,,0,46,46,149,1,VEASE,LB,old,z,./images/VEASELB.png,,,,,,,,,,,,,,,,,,,,,,,,,,,,,,,,,,
,,,,,,,,,,,,,,,,,,27,2022-02-12_17h21.20.976,lexical_decision_task_DD_L4,2021.2.3,Win32,60.11421701,,,,,,,,,,,,0.7473,1,,,,,,,,,,,,,,z,1,0.7473,,,,,,,,0.094444459,-0.397222236,0,0,0,,0,47,47,150,1,NOOLS,C,old,z,./images/NOOLS.png,,,,,,,,,,,,,,,,,,,,,,,,,,,,,,,,,,
,,,,,,,,,,,,,,,,,,27,2022-02-12_17h21.20.976,lexical_decision_task_DD_L4,2021.2.3,Win32,60.11421701,,,,,,,,,,,,0.6093,1,,,,,,,,,,,,,,m,1,0.6093,,,,,,,,0.094444459,-0.397222236,0,0,0,,0,48,48,24,1,FLESH,C,old,m,./images/FLESH.png,,,,,,,,,,,,,,,,,,,,,,,,,,,,,,,,,,
,,,,,,,,,,,,,,,,,,27,2022-02-12_17h21.20.976,lexical_decision_task_DD_L4,2021.2.3,Win32,60.11421701,,,,,,,,,,,,0.6145,1,,,,,,,,,,,,,,z,1,0.6145,,,,,,,,0.094444459,-0.397222236,0,0,0,,0,49,49,138,1,PLICE,C,old,z,./images/PLICE.png,,,,,,,,,,,,,,,,,,,,,,,,,,,,,,,,,,
,,,,,,,,,,,,,,,,,,27,2022-02-12_17h21.20.976,lexical_decision_task_DD_L4,2021.2.3,Win32,60.11421701,,,,,,,,,,,,0.7714,1,,,,,,,,,,,,,,z,1,0.7714,,,,,,,,0.094444459,-0.397222236,0,0,0,,0,50,50,162,1,LEICH,C,old,z,./images/LEICH.png,,,,,,,,,,,,,,,,,,,,,,,,,,,,,,,,,,
,,,,,,,,,,,,,,,,,,27,2022-02-12_17h21.20.976,lexical_decision_task_DD_L4,2021.2.3,Win32,60.11421701,,,,,,,,,,,,1.0535,1,,,,,,,,,,,,,,z,1,1.0535,,,,,,,,0.094444459,-0.397222236,0,0,0,,0,51,51,156,1,HIXES,C,old,z,./images/HIXES.png,,,,,,,,,,,,,,,,,,,,,,,,,,,,,,,,,,
,,,,,,,,,,,,,,,,,,27,2022-02-12_17h21.20.976,lexical_decision_task_DD_L4,2021.2.3,Win32,60.11421701,,,,,,,,,,,,1.0434,1,,,,,,,,,,,,,,z,1,1.0434,,,,,,,,0.094444459,-0.397222236,0,0,0,,0,52,52,124,1,TUNCH,HB,old,z,./images/TUNCHHB.png,,,,,,,,,,,,,,,,,,,,,,,,,,,,,,,,,,
,,,,,,,,,,,,,,,,,,27,2022-02-12_17h21.20.976,lexical_decision_task_DD_L4,2021.2.3,Win32,60.11421701,,,,,,,,,,,,0.7492,1,,,,,,,,,,,,,,z,1,0.7492,,,,,,,,0.094444459,-0.397222236,0,0,0,,0,53,53,137,1,JOOST,LB,old,z,./images/JOOSTLB.png,,,,,,,,,,,,,,,,,,,,,,,,,,,,,,,,,,
,,,,,,,,,,,,,,,,,,27,2022-02-12_17h21.20.976,lexical_decision_task_DD_L4,2021.2.3,Win32,60.11421701,,,,,,,,,,,,1.2742,1,,,,,,,,,,,,,,z,1,1.2742,,,,,,,,0.094444459,-0.397222236,0,0,0,,0,54,54,96,1,KEAMS,C,old,z,./images/KEAMS.png,,,,,,,,,,,,,,,,,,,,,,,,,,,,,,,,,,
,,,,,,,,,,,,,,,,,,27,2022-02-12_17h21.20.976,lexical_decision_task_DD_L4,2021.2.3,Win32,60.11421701,,,,,,,,,,,,0.538,1,,,,,,,,,,,,,,m,1,0.538,,,,,,,,0.094444459,-0.397222236,0,0,0,,0,55,55,29,1,PISTOL,LB,old,m,./images/PISTOLLB.png,,,,,,,,,,,,,,,,,,,,,,,,,,,,,,,,,,
,,,,,,,,,,,,,,,,,,27,2022-02-12_17h21.20.976,lexical_decision_task_DD_L4,2021.2.3,Win32,60.11421701,,,,,,,,,,,,0.631,1,,,,,,,,,,,,,,m,1,0.631,,,,,,,,0.094444459,-0.397222236,0,0,0,,0,56,56,50,1,PILOT,LB,old,m,./images/PILOTLB.png,,,,,,,,,,,,,,,,,,,,,,,,,,,,,,,,,,
,,,,,,,,,,,,,,,,,,27,2022-02-12_17h21.20.976,lexical_decision_task_DD_L4,2021.2.3,Win32,60.11421701,,,,,,,,,,,,0.6052,1,,,,,,,,,,,,,,m,1,0.6052,,,,,,,,0.094444459,-0.397222236,0,0,0,,0,57,57,20,1,GRANNY,LB,old,m,./images/GRANNYLB.png,,,,,,,,,,,,,,,,,,,,,,,,,,,,,,,,,,
,,,,,,,,,,,,,,,,,,27,2022-02-12_17h21.20.976,lexical_decision_task_DD_L4,2021.2.3,Win32,60.11421701,,,,,,,,,,,,0.76,1,,,,,,,,,,,,,,m,1,0.76,,,,,,,,0.094444459,-0.397222236,0,0,0,,0,58,58,22,1,CLOWN,HB,old,m,./images/CLOWNHB.png,,,,,,,,,,,,,,,,,,,,,,,,,,,,,,,,,,
,,,,,,,,,,,,,,,,,,27,2022-02-12_17h21.20.976,lexical_decision_task_DD_L4,2021.2.3,Win32,60.11421701,,,,,,,,,,,,0.5341,1,,,,,,,,,,,,,,m,1,0.5341,,,,,,,,0.094444459,-0.397222236,0,0,0,,0,59,59,59,1,BRUSH,LB,old,m,./images/BRUSHLB.png,,,,,,,,,,,,,,,,,,,,,,,,,,,,,,,,,,
,,,,,,,,,,,,,,,,,,27,2022-02-12_17h21.20.976,lexical_decision_task_DD_L4,2021.2.3,Win32,60.11421701,,,,,,,,,,,,0.5295,1,,,,,,,,,,,,,,m,1,0.5295,,,,,,,,0.094444459,-0.397222236,0,0,0,,0,60,60,32,1,HOCKEY,LB,old,m,./images/HOCKEYLB.png,,,,,,,,,,,,,,,,,,,,,,,,,,,,,,,,,,
,,,,,,,,,,,,,,,,,,27,2022-02-12_17h21.20.976,lexical_decision_task_DD_L4,2021.2.3,Win32,60.11421701,,,,,,,,,,,,0.6195,1,,,,,,,,,,,,,,z,1,0.6195,,,,,,,,0.094444459,-0.397222236,0,0,0,,0,61,61,122,1,BLOOT,LB,old,z,./images/BLOOTLB.png,,,,,,,,,,,,,,,,,,,,,,,,,,,,,,,,,,
,,,,,,,,,,,,,,,,,,27,2022-02-12_17h21.20.976,lexical_decision_task_DD_L4,2021.2.3,Win32,60.11421701,,,,,,,,,,,,0.7894,1,,,,,,,,,,,,,,m,1,0.7894,,,,,,,,0.094444459,-0.397222236,0,0,0,,0,62,62,76,1,MIDGET,HB,old,m,./images/MIDGETHB.png,,,,,,,,,,,,,,,,,,,,,,,,,,,,,,,,,,
,,,,,,,,,,,,,,,,,,27,2022-02-12_17h21.20.976,lexical_decision_task_DD_L4,2021.2.3,Win32,60.11421701,,,,,,,,,,,,0.724,1,,,,,,,,,,,,,,z,1,0.724,,,,,,,,0.094444459,-0.397222236,0,0,0,,0,63,63,108,1,GRUET,C,old,z,./images/GRUET.png,,,,,,,,,,,,,,,,,,,,,,,,,,,,,,,,,,
,,,,,,,,,,,,,,,,,,27,2022-02-12_17h21.20.976,lexical_decision_task_DD_L4,2021.2.3,Win32,60.11421701,,,,,,,,,,,,0.9977,1,,,,,,,,,,,,,,z,1,0.9977,,,,,,,,0.094444459,-0.397222236,0,0,0,,0,64,64,158,1,EGECT,LB,old,z,./images/EGECTLB.png,,,,,,,,,,,,,,,,,,,,,,,,,,,,,,,,,,
,,,,,,,,,,,,,,,,,,27,2022-02-12_17h21.20.976,lexical_decision_task_DD_L4,2021.2.3,Win32,60.11421701,,,,,,,,,,,,1.0701,1,,,,,,,,,,,,,,z,1,1.0701,,,,,,,,0.094444459,-0.397222236,0,0,0,,0,65,65,148,1,JOMS,HB,old,z,./images/JOMSHB.png,,,,,,,,,,,,,,,,,,,,,,,,,,,,,,,,,,
,,,,,,,,,,,,,,,,,,27,2022-02-12_17h21.20.976,lexical_decision_task_DD_L4,2021.2.3,Win32,60.11421701,,,,,,,,,,,,0.6494,1,,,,,,,,,,,,,,m,1,0.6494,,,,,,,,0.094444459,-0.397222236,0,0,0,,0,66,66,37,1,TIGER,HB,old,m,./images/TIGERHB.png,,,,,,,,,,,,,,,,,,,,,,,,,,,,,,,,,,
,,,,,,,,,,,,,,,,,,27,2022-02-12_17h21.20.976,lexical_decision_task_DD_L4,2021.2.3,Win32,60.11421701,,,,,,,,,,,,0.7519,1,,,,,,,,,,,,,,z,1,0.7519,,,,,,,,0.094444459,-0.397222236,0,0,0,,0,67,67,117,1,STEEG,C,old,z,./images/STEEG.png,,,,,,,,,,,,,,,,,,,,,,,,,,,,,,,,,,
,,,,,,,,,,,,,,,,,,27,2022-02-12_17h21.20.976,lexical_decision_task_DD_L4,2021.2.3,Win32,60.11421701,,,,,,,,,,,,0.6145,1,,,,,,,,,,,,,,m,1,0.6145,,,,,,,,0.094444459,-0.397222236,0,0,0,,0,68,68,82,1,PEBBLE,HB,old,m,./images/PEBBLEHB.png,,,,,,,,,,,,,,,,,,,,,,,,,,,,,,,,,,
,,,,,,,,,,,,,,,,,,27,2022-02-12_17h21.20.976,lexical_decision_task_DD_L4,2021.2.3,Win32,60.11421701,,,,,,,,,,,,0.5954,1,,,,,,,,,,,,,,z,1,0.5954,,,,,,,,0.094444459,-0.397222236,0,0,0,,0,69,69,89,1,DRIEK,LB,old,z,./images/DRIEKLB.png,,,,,,,,,,,,,,,,,,,,,,,,,,,,,,,,,,
,,,,,,,,,,,,,,,,,,27,2022-02-12_17h21.20.976,lexical_decision_task_DD_L4,2021.2.3,Win32,60.11421701,,,,,,,,,,,,0.789,0,,,,,,,,,,,,,,z,0,0.789,,,,,,,,0.094444459,-0.397222236,0,0,0,,0,70,70,4,1,BOXER,HB,old,m,./images/BOXERHB.png,,,,,,,,,,,,,,,,,,,,,,,,,,,,,,,,,,
,,,,,,,,,,,,,,,,,,27,2022-02-12_17h21.20.976,lexical_decision_task_DD_L4,2021.2.3,Win32,60.11421701,,,,,,,,,,,,0.8877,1,,,,,,,,,,,,,,z,1,0.8877,,,,,,,,0.094444459,-0.397222236,0,0,0,,0,71,71,144,1,NAIRY,C,old,z,./images/NAIRY.png,,,,,,,,,,,,,,,,,,,,,,,,,,,,,,,,,,
,,,,,,,,,,,,,,,,,,27,2022-02-12_17h21.20.976,lexical_decision_task_DD_L4,2021.2.3,Win32,60.11421701,,,,,,,,,,,,0.9159,1,,,,,,,,,,,,,,z,1,0.9159,,,,,,,,0.094444459,-0.397222236,0,0,0,,0,72,72,87,1,TRING,C,old,z,./images/TRING.png,,,,,,,,,,,,,,,,,,,,,,,,,,,,,,,,,,
,,,,,,,,,,,,,,,,,,27,2022-02-12_17h21.20.976,lexical_decision_task_DD_L4,2021.2.3,Win32,60.11421701,,,,,,,,,,,,0.9325,1,,,,,,,,,,,,,,z,1,0.9325,,,,,,,,0.094444459,-0.397222236,0,0,0,,0,73,73,93,1,SMONE,C,old,z,./images/SMONE.png,,,,,,,,,,,,,,,,,,,,,,,,,,,,,,,,,,
,,,,,,,,,,,,,,,,,,27,2022-02-12_17h21.20.976,lexical_decision_task_DD_L4,2021.2.3,Win32,60.11421701,,,,,,,,,,,,0.7792,0,,,,,,,,,,,,,,m,0,0.7792,,,,,,,,0.094444459,-0.397222236,0,0,0,,0,74,74,127,1,NINDY,HB,old,z,./images/NINDYHB.png,,,,,,,,,,,,,,,,,,,,,,,,,,,,,,,,,,
,,,,,,,,,,,,,,,,,,27,2022-02-12_17h21.20.976,lexical_decision_task_DD_L4,2021.2.3,Win32,60.11421701,,,,,,,,,,,,0.6542,1,,,,,,,,,,,,,,z,1,0.6542,,,,,,,,0.094444459,-0.397222236,0,0,0,,0,75,75,126,1,GUELS,C,old,z,./images/GUELS.png,,,,,,,,,,,,,,,,,,,,,,,,,,,,,,,,,,
,,,,,,,,,,,,,,,,,,27,2022-02-12_17h21.20.976,lexical_decision_task_DD_L4,2021.2.3,Win32,60.11421701,,,,,,,,,,,,0.6828,1,,,,,,,,,,,,,,z,1,0.6828,,,,,,,,0.094444459,-0.397222236,0,0,0,,0,76,76,152,1,FRAIN,LB,old,z,./images/FRAINLB.png,,,,,,,,,,,,,,,,,,,,,,,,,,,,,,,,,,
,,,,,,,,,,,,,,,,,,27,2022-02-12_17h21.20.976,lexical_decision_task_DD_L4,2021.2.3,Win32,60.11421701,,,,,,,,,,,,0.6462,1,,,,,,,,,,,,,,z,1,0.6462,,,,,,,,0.094444459,-0.397222236,0,0,0,,0,77,77,141,1,PLEET,C,old,z,./images/PLEET.png,,,,,,,,,,,,,,,,,,,,,,,,,,,,,,,,,,
,,,,,,,,,,,,,,,,,,27,2022-02-12_17h21.20.976,lexical_decision_task_DD_L4,2021.2.3,Win32,60.11421701,,,,,,,,,,,,1.1424,1,,,,,,,,,,,,,,z,1,1.1424,,,,,,,,0.094444459,-0.397222236,0,0,0,,0,78,78,104,1,GITTY,LB,old,z,./images/GITTYLB.png,,,,,,,,,,,,,,,,,,,,,,,,,,,,,,,,,,
,,,,,,,,,,,,,,,,,,27,2022-02-12_17h21.20.976,lexical_decision_task_DD_L4,2021.2.3,Win32,60.11421701,,,,,,,,,,,,0.7434,1,,,,,,,,,,,,,,m,1,0.7434,,,,,,,,0.094444459,-0.397222236,0,0,0,,0,79,79,28,1,CASINO,HB,old,m,./images/CASINOHB.png,,,,,,,,,,,,,,,,,,,,,,,,,,,,,,,,,,
,,,,,,,,,,,,,,,,,,27,2022-02-12_17h21.20.976,lexical_decision_task_DD_L4,2021.2.3,Win32,60.11421701,,,,,,,,,,,,0.7829,0,,,,,,,,,,,,,,m,0,0.7829,,,,,,,,0.094444459,-0.397222236,0,0,0,,0,80,80,110,1,CRUNK,LB,old,z,./images/CRUNKLB.png,,,,,,,,,,,,,,,,,,,,,,,,,,,,,,,,,,
,,,,,,,,,,,,,,,,,,27,2022-02-12_17h21.20.976,lexical_decision_task_DD_L4,2021.2.3,Win32,60.11421701,,,,,,,,,,,,0.6043,1,,,,,,,,,,,,,,m,1,0.6043,,,,,,,,0.094444459,-0.397222236,0,0,0,,0,81,81,38,1,ENGINE,LB,old,m,./images/ENGINELB.png,,,,,,,,,,,,,,,,,,,,,,,,,,,,,,,,,,
,,,,,,,,,,,,,,,,,,27,2022-02-12_17h21.20.976,lexical_decision_task_DD_L4,2021.2.3,Win32,60.11421701,,,,,,,,,,,,0.5629,1,,,,,,,,,,,,,,z,1,0.5629,,,,,,,,0.094444459,-0.397222236,0,0,0,,0,82,82,101,1,GLEET,LB,old,z,./images/GLEETLB.png,,,,,,,,,,,,,,,,,,,,,,,,,,,,,,,,,,
,,,,,,,,,,,,,,,,,,27,2022-02-12_17h21.20.976,lexical_decision_task_DD_L4,2021.2.3,Win32,60.11421701,,,,,,,,,,,,0.7505,1,,,,,,,,,,,,,,m,1,0.7505,,,,,,,,0.094444459,-0.397222236,0,0,0,space,0,83,83,66,1,STATUE,C,old,m,./images/STATUE.png,1.5147,,,,,,,,,,,,,,,,,,,,,,,,,,,,,,,,,
,,,,,,,,,,,,,,,,,,27,2022-02-12_17h21.20.976,lexical_decision_task_DD_L4,2021.2.3,Win32,60.11421701,,,,,,,,,,,,0.7288,1,,,,,,,,,,,,,,m,1,0.7288,,,,,,,,0.094444459,-0.397222236,0,0,0,,0,84,84,30,1,SLOPE,C,old,m,./images/SLOPE.png,,,,,,,,,,,,,,,,,,,,,,,,,,,,,,,,,,
,,,,,,,,,,,,,,,,,,27,2022-02-12_17h21.20.976,lexical_decision_task_DD_L4,2021.2.3,Win32,60.11421701,,,,,,,,,,,,1.1981,1,,,,,,,,,,,,,,z,1,1.1981,,,,,,,,0.094444459,-0.397222236,0,0,0,,0,85,85,154,1,THINT,HB,old,z,./images/THINTHB.png,,,,,,,,,,,,,,,,,,,,,,,,,,,,,,,,,,
,,,,,,,,,,,,,,,,,,27,2022-02-12_17h21.20.976,lexical_decision_task_DD_L4,2021.2.3,Win32,60.11421701,,,,,,,,,,,,0.6008,1,,,,,,,,,,,,,,m,1,0.6008,,,,,,,,0.094444459,-0.397222236,0,0,0,,0,86,86,79,1,RULER,HB,old,m,./images/RULERHB.png,,,,,,,,,,,,,,,,,,,,,,,,,,,,,,,,,,
,,,,,,,,,,,,,,,,,,27,2022-02-12_17h21.20.976,lexical_decision_task_DD_L4,2021.2.3,Win32,60.11421701,,,,,,,,,,,,0.5765,1,,,,,,,,,,,,,,z,1,0.5765,,,,,,,,0.094444459,-0.397222236,0,0,0,,0,87,87,131,1,NACES,LB,old,z,./images/NACESLB.png,,,,,,,,,,,,,,,,,,,,,,,,,,,,,,,,,,
,,,,,,,,,,,,,,,,,,27,2022-02-12_17h21.20.976,lexical_decision_task_DD_L4,2021.2.3,Win32,60.11421701,,,,,,,,,,,,0.4591,1,,,,,,,,,,,,,,m,1,0.4591,,,,,,,,0.094444459,-0.397222236,0,0,0,,0,88,88,42,1,CHAIN,C,old,m,./images/CHAIN.png,,,,,,,,,,,,,,,,,,,,,,,,,,,,,,,,,,
,,,,,,,,,,,,,,,,,,27,2022-02-12_17h21.20.976,lexical_decision_task_DD_L4,2021.2.3,Win32,60.11421701,,,,,,,,,,,,0.577,1,,,,,,,,,,,,,,m,1,0.577,,,,,,,,0.094444459,-0.397222236,0,0,0,,0,89,89,15,1,COLLAR,C,old,m,./images/COLLAR.png,,,,,,,,,,,,,,,,,,,,,,,,,,,,,,,,,,
,,,,,,,,,,,,,,,,,,27,2022-02-12_17h21.20.976,lexical_decision_task_DD_L4,2021.2.3,Win32,60.11421701,,,,,,,,,,,,0.4971,1,,,,,,,,,,,,,,m,1,0.4971,,,,,,,,0.094444459,-0.397222236,0,0,0,,0,90,90,53,1,POSTER,LB,old,m,./images/POSTERLB.png,,,,,,,,,,,,,,,,,,,,,,,,,,,,,,,,,,
,,,,,,,,,,,,,,,,,,27,2022-02-12_17h21.20.976,lexical_decision_task_DD_L4,2021.2.3,Win32,60.11421701,,,,,,,,,,,,0.5338,1,,,,,,,,,,,,,,m,1,0.5338,,,,,,,,0.094444459,-0.397222236,0,0,0,,0,91,91,2,1,STOVE,LB,old,m,./images/STOVELB.png,,,,,,,,,,,,,,,,,,,,,,,,,,,,,,,,,,
,,,,,,,,,,,,,,,,,,27,2022-02-12_17h21.20.976,lexical_decision_task_DD_L4,2021.2.3,Win32,60.11421701,,,,,,,,,,,,0.564,1,,,,,,,,,,,,,,z,1,0.564,,,,,,,,0.094444459,-0.397222236,0,0,0,,0,92,92,165,1,TROWN,C,old,z,./images/TROWN.png,,,,,,,,,,,,,,,,,,,,,,,,,,,,,,,,,,
,,,,,,,,,,,,,,,,,,27,2022-02-12_17h21.20.976,lexical_decision_task_DD_L4,2021.2.3,Win32,60.11421701,,,,,,,,,,,,0.5585,1,,,,,,,,,,,,,,z,1,0.5585,,,,,,,,0.094444459,-0.397222236,0,0,0,,0,93,93,132,1,SCIFF,C,old,z,./images/SCIFF.png,,,,,,,,,,,,,,,,,,,,,,,,,,,,,,,,,,
,,,,,,,,,,,,,,,,,,27,2022-02-12_17h21.20.976,lexical_decision_task_DD_L4,2021.2.3,Win32,60.11421701,,,,,,,,,,,,0.5297,1,,,,,,,,,,,,,,m,1,0.5297,,,,,,,,0.094444459,-0.397222236,0,0,0,,0,94,94,52,1,DESERT,HB,old,m,./images/DESERTHB.png,,,,,,,,,,,,,,,,,,,,,,,,,,,,,,,,,,
,,,,,,,,,,,,,,,,,,27,2022-02-12_17h21.20.976,lexical_decision_task_DD_L4,2021.2.3,Win32,60.11421701,,,,,,,,,,,,0.604,1,,,,,,,,,,,,,,z,1,0.604,,,,,,,,0.094444459,-0.397222236,0,0,0,,0,95,95,160,1,VEETS,HB,old,z,./images/VEETSHB.png,,,,,,,,,,,,,,,,,,,,,,,,,,,,,,,,,,
,,,,,,,,,,,,,,,,,,27,2022-02-12_17h21.20.976,lexical_decision_task_DD_L4,2021.2.3,Win32,60.11421701,,,,,,,,,,,,0.5556,1,,,,,,,,,,,,,,m,1,0.5556,,,,,,,,0.094444459,-0.397222236,0,0,0,,0,96,96,31,1,STEAK,HB,old,m,./images/STEAKHB.png,,,,,,,,,,,,,,,,,,,,,,,,,,,,,,,,,,
,,,,,,,,,,,,,,,,,,27,2022-02-12_17h21.20.976,lexical_decision_task_DD_L4,2021.2.3,Win32,60.11421701,,,,,,,,,,,,0.6473,1,,,,,,,,,,,,,,m,1,0.6473,,,,,,,,0.094444459,-0.397222236,0,0,0,,0,97,97,80,1,PLANET,LB,old,m,./images/PLANETLB.png,,,,,,,,,,,,,,,,,,,,,,,,,,,,,,,,,,
,,,,,,,,,,,,,,,,,,27,2022-02-12_17h21.20.976,lexical_decision_task_DD_L4,2021.2.3,Win32,60.11421701,,,,,,,,,,,,0.5366,1,,,,,,,,,,,,,,z,1,0.5366,,,,,,,,0.094444459,-0.397222236,0,0,0,,0,98,98,120,1,RINED,C,old,z,./images/RINED.png,,,,,,,,,,,,,,,,,,,,,,,,,,,,,,,,,,
,,,,,,,,,,,,,,,,,,27,2022-02-12_17h21.20.976,lexical_decision_task_DD_L4,2021.2.3,Win32,60.11421701,,,,,,,,,,,,0.7451,1,,,,,,,,,,,,,,m,1,0.7451,,,,,,,,0.094444459,-0.397222236,0,0,0,,0,99,99,40,1,SNAKE,HB,old,m,./images/SNAKEHB.png,,,,,,,,,,,,,,,,,,,,,,,,,,,,,,,,,,
,,,,,,,,,,,,,,,,,,27,2022-02-12_17h21.20.976,lexical_decision_task_DD_L4,2021.2.3,Win32,60.11421701,,,,,,,,,,,,0.6427,1,,,,,,,,,,,,,,m,1,0.6427,,,,,,,,0.094444459,-0.397222236,0,0,0,,0,100,100,35,1,LLAMA,LB,old,m,./images/LLAMALB.png,,,,,,,,,,,,,,,,,,,,,,,,,,,,,,,,,,
,,,,,,,,,,,,,,,,,,27,2022-02-12_17h21.20.976,lexical_decision_task_DD_L4,2021.2.3,Win32,60.11421701,,,,,,,,,,,,1.167,1,,,,,,,,,,,,,,z,1,1.167,,,,,,,,0.094444459,-0.397222236,0,0,0,,0,101,101,142,1,PLASK,HB,old,z,./images/PLASKHB.png,,,,,,,,,,,,,,,,,,,,,,,,,,,,,,,,,,
,,,,,,,,,,,,,,,,,,27,2022-02-12_17h21.20.976,lexical_decision_task_DD_L4,2021.2.3,Win32,60.11421701,,,,,,,,,,,,1.2139,1,,,,,,,,,,,,,,z,1,1.2139,,,,,,,,0.094444459,-0.397222236,0,0,0,,0,102,102,133,1,POWDY,HB,old,z,./images/POWDYHB.png,,,,,,,,,,,,,,,,,,,,,,,,,,,,,,,,,,
,,,,,,,,,,,,,,,,,,27,2022-02-12_17h21.20.976,lexical_decision_task_DD_L4,2021.2.3,Win32,60.11421701,,,,,,,,,,,,1.114,1,,,,,,,,,,,,,,z,1,1.114,,,,,,,,0.094444459,-0.397222236,0,0,0,,0,103,103,118,1,BAVEL,HB,old,z,./images/BAVELHB.png,,,,,,,,,,,,,,,,,,,,,,,,,,,,,,,,,,
,,,,,,,,,,,,,,,,,,27,2022-02-12_17h21.20.976,lexical_decision_task_DD_L4,2021.2.3,Win32,60.11421701,,,,,,,,,,,,0.5037,1,,,,,,,,,,,,,,m,1,0.5037,,,,,,,,0.094444459,-0.397222236,0,0,0,,0,104,104,48,1,SHIELD,C,old,m,./images/SHIELD.png,,,,,,,,,,,,,,,,,,,,,,,,,,,,,,,,,,
,,,,,,,,,,,,,,,,,,27,2022-02-12_17h21.20.976,lexical_decision_task_DD_L4,2021.2.3,Win32,60.11421701,,,,,,,,,,,,0.7026,1,,,,,,,,,,,,,,z,1,0.7026,,,,,,,,0.094444459,-0.397222236,0,0,0,,0,105,105,136,1,WERVE,HB,old,z,./images/WERVEHB.png,,,,,,,,,,,,,,,,,,,,,,,,,,,,,,,,,,
,,,,,,,,,,,,,,,,,,27,2022-02-12_17h21.20.976,lexical_decision_task_DD_L4,2021.2.3,Win32,60.11421701,,,,,,,,,,,,0.5333,1,,,,,,,,,,,,,,m,1,0.5333,,,,,,,,0.094444459,-0.397222236,0,0,0,,0,106,106,47,1,LAGOON,LB,old,m,./images/LAGOONLB.png,,,,,,,,,,,,,,,,,,,,,,,,,,,,,,,,,,
,,,,,,,,,,,,,,,,,,27,2022-02-12_17h21.20.976,lexical_decision_task_DD_L4,2021.2.3,Win32,60.11421701,,,,,,,,,,,,0.4875,1,,,,,,,,,,,,,,z,1,0.4875,,,,,,,,0.094444459,-0.397222236,0,0,0,,0,107,107,90,1,NEAST,C,old,z,./images/NEAST.png,,,,,,,,,,,,,,,,,,,,,,,,,,,,,,,,,,
,,,,,,,,,,,,,,,,,,27,2022-02-12_17h21.20.976,lexical_decision_task_DD_L4,2021.2.3,Win32,60.11421701,,,,,,,,,,,,0.5448,1,,,,,,,,,,,,,,m,1,0.5448,,,,,,,,0.094444459,-0.397222236,0,0,0,,0,108,108,81,1,DRILL,C,old,m,./images/DRILL.png,,,,,,,,,,,,,,,,,,,,,,,,,,,,,,,,,,
,,,,,,,,,,,,,,,,,,27,2022-02-12_17h21.20.976,lexical_decision_task_DD_L4,2021.2.3,Win32,60.11421701,,,,,,,,,,,,0.8476,1,,,,,,,,,,,,,,m,1,0.8476,,,,,,,,0.094444459,-0.397222236,0,0,0,,0,109,109,16,1,GRAPE,HB,old,m,./images/GRAPEHB.png,,,,,,,,,,,,,,,,,,,,,,,,,,,,,,,,,,
,,,,,,,,,,,,,,,,,,27,2022-02-12_17h21.20.976,lexical_decision_task_DD_L4,2021.2.3,Win32,60.11421701,,,,,,,,,,,,0.7931,1,,,,,,,,,,,,,,m,1,0.7931,,,,,,,,0.094444459,-0.397222236,0,0,0,,0,110,110,33,1,SAUNA,C,old,m,./images/SAUNA.png,,,,,,,,,,,,,,,,,,,,,,,,,,,,,,,,,,
,,,,,,,,,,,,,,,,,,27,2022-02-12_17h21.20.976,lexical_decision_task_DD_L4,2021.2.3,Win32,60.11421701,,,,,,,,,,,,0.6032,1,,,,,,,,,,,,,,m,1,0.6032,,,,,,,,0.094444459,-0.397222236,0,0,0,,0,111,111,11,1,MEDAL,LB,old,m,./images/MEDALLB.png,,,,,,,,,,,,,,,,,,,,,,,,,,,,,,,,,,
,,,,,,,,,,,,,,,,,,27,2022-02-12_17h21.20.976,lexical_decision_task_DD_L4,2021.2.3,Win32,60.11421701,,,,,,,,,,,,0.8456,1,,,,,,,,,,,,,,m,1,0.8456,,,,,,,,0.094444459,-0.397222236,0,0,0,,0,112,112,19,1,DONKEY,HB,old,m,./images/DONKEYHB.png,,,,,,,,,,,,,,,,,,,,,,,,,,,,,,,,,,
,,,,,,,,,,,,,,,,,,27,2022-02-12_17h21.20.976,lexical_decision_task_DD_L4,2021.2.3,Win32,60.11421701,,,,,,,,,,,,0.5799,1,,,,,,,,,,,,,,m,1,0.5799,,,,,,,,0.094444459,-0.397222236,0,0,0,,0,113,113,70,1,BANANA,HB,old,m,./images/BANANAHB.png,,,,,,,,,,,,,,,,,,,,,,,,,,,,,,,,,,
,,,,,,,,,,,,,,,,,,27,2022-02-12_17h21.20.976,lexical_decision_task_DD_L4,2021.2.3,Win32,60.11421701,,,,,,,,,,,,0.9691,1,,,,,,,,,,,,,,z,1,0.9691,,,,,,,,0.094444459,-0.397222236,0,0,0,,0,114,114,84,1,HAXES,C,old,z,./images/HAXES.png,,,,,,,,,,,,,,,,,,,,,,,,,,,,,,,,,,
,,,,,,,,,,,,,,,,,,27,2022-02-12_17h21.20.976,lexical_decision_task_DD_L4,2021.2.3,Win32,60.11421701,,,,,,,,,,,,0.5776,1,,,,,,,,,,,,,,m,1,0.5776,,,,,,,,0.094444459,-0.397222236,0,0,0,,0,115,115,10,1,GARDEN,HB,old,m,./images/GARDENHB.png,,,,,,,,,,,,,,,,,,,,,,,,,,,,,,,,,,
,,,,,,,,,,,,,,,,,,27,2022-02-12_17h21.20.976,lexical_decision_task_DD_L4,2021.2.3,Win32,60.11421701,,,,,,,,,,,,0.7108,1,,,,,,,,,,,,,,m,1,0.7108,,,,,,,,0.094444459,-0.397222236,0,0,0,,0,116,116,46,1,MUMMY,HB,old,m,./images/MUMMYHB.png,,,,,,,,,,,,,,,,,,,,,,,,,,,,,,,,,,
,,,,,,,,,,,,,,,,,,27,2022-02-12_17h21.20.976,lexical_decision_task_DD_L4,2021.2.3,Win32,60.11421701,,,,,,,,,,,,0.6052,1,,,,,,,,,,,,,,z,1,0.6052,,,,,,,,0.094444459,-0.397222236,0,0,0,,0,117,117,113,1,LINEW,LB,old,z,./images/LINEWLB.png,,,,,,,,,,,,,,,,,,,,,,,,,,,,,,,,,,
,,,,,,,,,,,,,,,,,,27,2022-02-12_17h21.20.976,lexical_decision_task_DD_L4,2021.2.3,Win32,60.11421701,,,,,,,,,,,,0.6554,1,,,,,,,,,,,,,,z,1,0.6554,,,,,,,,0.094444459,-0.397222236,0,0,0,,0,118,118,102,1,DULLE,C,old,z,./images/DULLE.png,,,,,,,,,,,,,,,,,,,,,,,,,,,,,,,,,,
,,,,,,,,,,,,,,,,,,27,2022-02-12_17h21.20.976,lexical_decision_task_DD_L4,2021.2.3,Win32,60.11421701,,,,,,,,,,,,1.1267,1,,,,,,,,,,,,,,z,1,1.1267,,,,,,,,0.094444459,-0.397222236,0,0,0,,0,119,119,157,1,INLER,HB,old,z,./images/INLERHB.png,,,,,,,,,,,,,,,,,,,,,,,,,,,,,,,,,,
,,,,,,,,,,,,,,,,,,27,2022-02-12_17h21.20.976,lexical_decision_task_DD_L4,2021.2.3,Win32,60.11421701,,,,,,,,,,,,0.5166,1,,,,,,,,,,,,,,m,1,0.5166,,,,,,,,0.094444459,-0.397222236,0,0,0,,0,120,120,83,1,WHISKY,LB,old,m,./images/WHISKYLB.png,,,,,,,,,,,,,,,,,,,,,,,,,,,,,,,,,,
,,,,,,,,,,,,,,,,,,27,2022-02-12_17h21.20.976,lexical_decision_task_DD_L4,2021.2.3,Win32,60.11421701,,,,,,,,,,,,0.8585,1,,,,,,,,,,,,,,z,1,0.8585,,,,,,,,0.094444459,-0.397222236,0,0,0,,0,121,121,112,1,MYING,HB,old,z,./images/MYINGHB.png,,,,,,,,,,,,,,,,,,,,,,,,,,,,,,,,,,
,,,,,,,,,,,,,,,,,,27,2022-02-12_17h21.20.976,lexical_decision_task_DD_L4,2021.2.3,Win32,60.11421701,,,,,,,,,,,,0.5462,1,,,,,,,,,,,,,,m,1,0.5462,,,,,,,,0.094444459,-0.397222236,0,0,0,,0,122,122,61,1,ARTIST,HB,old,m,./images/ARTISTHB.png,,,,,,,,,,,,,,,,,,,,,,,,,,,,,,,,,,
,,,,,,,,,,,,,,,,,,27,2022-02-12_17h21.20.976,lexical_decision_task_DD_L4,2021.2.3,Win32,60.11421701,,,,,,,,,,,,0.6066,1,,,,,,,,,,,,,,m,1,0.6066,,,,,,,,0.094444459,-0.397222236,0,0,0,,0,123,123,64,1,BRIDE,HB,old,m,./images/BRIDEHB.png,,,,,,,,,,,,,,,,,,,,,,,,,,,,,,,,,,
,,,,,,,,,,,,,,,,,,27,2022-02-12_17h21.20.976,lexical_decision_task_DD_L4,2021.2.3,Win32,60.11421701,,,,,,,,,,,,0.9215,1,,,,,,,,,,,,,,m,1,0.9215,,,,,,,,0.094444459,-0.397222236,0,0,0,,0,124,124,43,1,STOOL,HB,old,m,./images/STOOLHB.png,,,,,,,,,,,,,,,,,,,,,,,,,,,,,,,,,,
,,,,,,,,,,,,,,,,,,27,2022-02-12_17h21.20.976,lexical_decision_task_DD_L4,2021.2.3,Win32,60.11421701,,,,,,,,,,,,0.6342,1,,,,,,,,,,,,,,z,1,0.6342,,,,,,,,0.094444459,-0.397222236,0,0,0,space,0,125,125,86,1,AIFED,LB,old,z,./images/AIFEDLB.png,0.7667,,,,,,,,,,,,,,,,,,,,,,,,,,,,,,,,,
,,,,,,,,,,,,,,,,,,27,2022-02-12_17h21.20.976,lexical_decision_task_DD_L4,2021.2.3,Win32,60.11421701,,,,,,,,,,,,0.5976,1,,,,,,,,,,,,,,m,1,0.5976,,,,,,,,0.094444459,-0.397222236,0,0,0,,0,126,126,8,1,CLIFF,LB,old,m,./images/CLIFFLB.png,,,,,,,,,,,,,,,,,,,,,,,,,,,,,,,,,,
,,,,,,,,,,,,,,,,,,27,2022-02-12_17h21.20.976,lexical_decision_task_DD_L4,2021.2.3,Win32,60.11421701,,,,,,,,,,,,0.5204,1,,,,,,,,,,,,,,m,1,0.5204,,,,,,,,0.094444459,-0.397222236,0,0,0,,0,127,127,12,1,BLOKE,C,old,m,./images/BLOKE.png,,,,,,,,,,,,,,,,,,,,,,,,,,,,,,,,,,
,,,,,,,,,,,,,,,,,,27,2022-02-12_17h21.20.976,lexical_decision_task_DD_L4,2021.2.3,Win32,60.11421701,,,,,,,,,,,,0.5939,1,,,,,,,,,,,,,,m,1,0.5939,,,,,,,,0.094444459,-0.397222236,0,0,0,,0,128,128,74,1,JUMPER,LB,old,m,./images/JUMPERLB.png,,,,,,,,,,,,,,,,,,,,,,,,,,,,,,,,,,
,,,,,,,,,,,,,,,,,,27,2022-02-12_17h21.20.976,lexical_decision_task_DD_L4,2021.2.3,Win32,60.11421701,,,,,,,,,,,,0.5764,1,,,,,,,,,,,,,,z,1,0.5764,,,,,,,,0.094444459,-0.397222236,0,0,0,,0,129,129,135,1,JOODY,C,old,z,./images/JOODY.png,,,,,,,,,,,,,,,,,,,,,,,,,,,,,,,,,,
,,,,,,,,,,,,,,,,,,27,2022-02-12_17h21.20.976,lexical_decision_task_DD_L4,2021.2.3,Win32,60.11421701,,,,,,,,,,,,0.5116,1,,,,,,,,,,,,,,m,1,0.5116,,,,,,,,0.094444459,-0.397222236,0,0,0,,0,130,130,78,1,BROOM,C,old,m,./images/BROOM.png,,,,,,,,,,,,,,,,,,,,,,,,,,,,,,,,,,
,,,,,,,,,,,,,,,,,,27,2022-02-12_17h21.20.976,lexical_decision_task_DD_L4,2021.2.3,Win32,60.11421701,,,,,,,,,,,,0.5057,1,,,,,,,,,,,,,,z,1,0.5057,,,,,,,,0.094444459,-0.397222236,0,0,0,,0,131,131,155,1,CANGY,LB,old,z,./images/CANGYLB.png,,,,,,,,,,,,,,,,,,,,,,,,,,,,,,,,,,
,,,,,,,,,,,,,,,,,,27,2022-02-12_17h21.20.976,lexical_decision_task_DD_L4,2021.2.3,Win32,60.11421701,,,,,,,,,,,,0.6124,1,,,,,,,,,,,,,,z,1,0.6124,,,,,,,,0.094444459,-0.397222236,0,0,0,,0,132,132,116,1,BALGY,LB,old,z,./images/BALGYLB.png,,,,,,,,,,,,,,,,,,,,,,,,,,,,,,,,,,
,,,,,,,,,,,,,,,,,,27,2022-02-12_17h21.20.976,lexical_decision_task_DD_L4,2021.2.3,Win32,60.11421701,,,,,,,,,,,,0.7159,1,,,,,,,,,,,,,,m,1,0.7159,,,,,,,,0.094444459,-0.397222236,0,0,0,,0,133,133,69,1,ARROW,C,old,m,./images/ARROW.png,,,,,,,,,,,,,,,,,,,,,,,,,,,,,,,,,,
,,,,,,,,,,,,,,,,,,27,2022-02-12_17h21.20.976,lexical_decision_task_DD_L4,2021.2.3,Win32,60.11421701,,,,,,,,,,,,0.6535,1,,,,,,,,,,,,,,z,1,0.6535,,,,,,,,0.094444459,-0.397222236,0,0,0,,0,134,134,167,1,ZONET,LB,old,z,./images/ZONETLB.png,,,,,,,,,,,,,,,,,,,,,,,,,,,,,,,,,,
,,,,,,,,,,,,,,,,,,27,2022-02-12_17h21.20.976,lexical_decision_task_DD_L4,2021.2.3,Win32,60.11421701,,,,,,,,,,,,0.5634,1,,,,,,,,,,,,,,m,1,0.5634,,,,,,,,0.094444459,-0.397222236,0,0,0,,0,135,135,34,1,RAZOR,HB,old,m,./images/RAZORHB.png,,,,,,,,,,,,,,,,,,,,,,,,,,,,,,,,,,
,,,,,,,,,,,,,,,,,,27,2022-02-12_17h21.20.976,lexical_decision_task_DD_L4,2021.2.3,Win32,60.11421701,,,,,,,,,,,,0.4997,1,,,,,,,,,,,,,,m,1,0.4997,,,,,,,,0.094444459,-0.397222236,0,0,0,,0,136,136,63,1,BAKER,C,old,m,./images/BAKER.png,,,,,,,,,,,,,,,,,,,,,,,,,,,,,,,,,,
,,,,,,,,,,,,,,,,,,27,2022-02-12_17h21.20.976,lexical_decision_task_DD_L4,2021.2.3,Win32,60.11421701,,,,,,,,,,,,0.4732,1,,,,,,,,,,,,,,m,1,0.4732,,,,,,,,0.094444459,-0.397222236,0,0,0,,0,137,137,77,1,WHEEL,LB,old,m,./images/WHEELLB.png,,,,,,,,,,,,,,,,,,,,,,,,,,,,,,,,,,
,,,,,,,,,,,,,,,,,,27,2022-02-12_17h21.20.976,lexical_decision_task_DD_L4,2021.2.3,Win32,60.11421701,,,,,,,,,,,,0.7504,1,,,,,,,,,,,,,,m,1,0.7504,,,,,,,,0.094444459,-0.397222236,0,0,0,,0,138,138,9,1,DIVER,C,old,m,./images/DIVER.png,,,,,,,,,,,,,,,,,,,,,,,,,,,,,,,,,,
,,,,,,,,,,,,,,,,,,27,2022-02-12_17h21.20.976,lexical_decision_task_DD_L4,2021.2.3,Win32,60.11421701,,,,,,,,,,,,0.4638,1,,,,,,,,,,,,,,m,1,0.4638,,,,,,,,0.094444459,-0.397222236,0,0,0,,0,139,139,51,1,SAUCE,C,old,m,./images/SAUCE.png,,,,,,,,,,,,,,,,,,,,,,,,,,,,,,,,,,
,,,,,,,,,,,,,,,,,,27,2022-02-12_17h21.20.976,lexical_decision_task_DD_L4,2021.2.3,Win32,60.11421701,,,,,,,,,,,,0.5917,1,,,,,,,,,,,,,,m,1,0.5917,,,,,,,,0.094444459,-0.397222236,0,0,0,,0,140,140,27,1,BUTTER,C,old,m,./images/BUTTER.png,,,,,,,,,,,,,,,,,,,,,,,,,,,,,,,,,,
,,,,,,,,,,,,,,,,,,27,2022-02-12_17h21.20.976,lexical_decision_task_DD_L4,2021.2.3,Win32,60.11421701,,,,,,,,,,,,0.4719,1,,,,,,,,,,,,,,z,1,0.4719,,,,,,,,0.094444459,-0.397222236,0,0,0,,0,141,141,114,1,RIKES,C,old,z,./images/RIKES.png,,,,,,,,,,,,,,,,,,,,,,,,,,,,,,,,,,
,,,,,,,,,,,,,,,,,,27,2022-02-12_17h21.20.976,lexical_decision_task_DD_L4,2021.2.3,Win32,60.11421701,,,,,,,,,,,,0.4813,1,,,,,,,,,,,,,,m,1,0.4813,,,,,,,,0.094444459,-0.397222236,0,0,0,,0,142,142,39,1,CANDY,C,old,m,./images/CANDY.png,,,,,,,,,,,,,,,,,,,,,,,,,,,,,,,,,,
,,,,,,,,,,,,,,,,,,27,2022-02-12_17h21.20.976,lexical_decision_task_DD_L4,2021.2.3,Win32,60.11421701,,,,,,,,,,,,0.6083,0,,,,,,,,,,,,,,z,0,0.6083,,,,,,,,0.094444459,-0.397222236,0,0,0,,0,143,143,7,1,WAGON,HB,old,m,./images/WAGONHB.png,,,,,,,,,,,,,,,,,,,,,,,,,,,,,,,,,,
,,,,,,,,,,,,,,,,,,27,2022-02-12_17h21.20.976,lexical_decision_task_DD_L4,2021.2.3,Win32,60.11421701,,,,,,,,,,,,1.1635,1,,,,,,,,,,,,,,z,1,1.1635,,,,,,,,0.094444459,-0.397222236,0,0,0,,0,144,144,91,1,SHENS,HB,old,z,./images/SHENSHB.png,,,,,,,,,,,,,,,,,,,,,,,,,,,,,,,,,,
,,,,,,,,,,,,,,,,,,27,2022-02-12_17h21.20.976,lexical_decision_task_DD_L4,2021.2.3,Win32,60.11421701,,,,,,,,,,,,1.0154,1,,,,,,,,,,,,,,z,1,1.0154,,,,,,,,0.094444459,-0.397222236,0,0,0,,0,145,145,151,1,TINKY,HB,old,z,./images/TINKYHB.png,,,,,,,,,,,,,,,,,,,,,,,,,,,,,,,,,,
,,,,,,,,,,,,,,,,,,27,2022-02-12_17h21.20.976,lexical_decision_task_DD_L4,2021.2.3,Win32,60.11421701,,,,,,,,,,,,0.51,1,,,,,,,,,,,,,,m,1,0.51,,,,,,,,0.094444459,-0.397222236,0,0,0,,0,146,146,14,1,FENCE,LB,old,m,./images/FENCELB.png,,,,,,,,,,,,,,,,,,,,,,,,,,,,,,,,,,
,,,,,,,,,,,,,,,,,,27,2022-02-12_17h21.20.976,lexical_decision_task_DD_L4,2021.2.3,Win32,60.11421701,,,,,,,,,,,,0.8623,1,,,,,,,,,,,,,,z,1,0.8623,,,,,,,,0.094444459,-0.397222236,0,0,0,,0,147,147,163,1,GAMBA,HB,old,z,./images/GAMBAHB.png,,,,,,,,,,,,,,,,,,,,,,,,,,,,,,,,,,
,,,,,,,,,,,,,,,,,,27,2022-02-12_17h21.20.976,lexical_decision_task_DD_L4,2021.2.3,Win32,60.11421701,,,,,,,,,,,,0.7017,1,,,,,,,,,,,,,,z,1,0.7017,,,,,,,,0.094444459,-0.397222236,0,0,0,,0,148,148,119,1,PAFER,LB,old,z,./images/PAFERLB.png,,,,,,,,,,,,,,,,,,,,,,,,,,,,,,,,,,
,,,,,,,,,,,,,,,,,,27,2022-02-12_17h21.20.976,lexical_decision_task_DD_L4,2021.2.3,Win32,60.11421701,,,,,,,,,,,,0.6712,1,,,,,,,,,,,,,,m,1,0.6712,,,,,,,,0.094444459,-0.397222236,0,0,0,,0,149,149,49,1,BISHOP,HB,old,m,./images/BISHOPHB.png,,,,,,,,,,,,,,,,,,,,,,,,,,,,,,,,,,
,,,,,,,,,,,,,,,,,,27,2022-02-12_17h21.20.976,lexical_decision_task_DD_L4,2021.2.3,Win32,60.11421701,,,,,,,,,,,,0.5845,1,,,,,,,,,,,,,,m,1,0.5845,,,,,,,,0.094444459,-0.397222236,0,0,0,,0,150,150,3,1,CRATER,C,old,m,./images/CRATER.png,,,,,,,,,,,,,,,,,,,,,,,,,,,,,,,,,,
,,,,,,,,,,,,,,,,,,27,2022-02-12_17h21.20.976,lexical_decision_task_DD_L4,2021.2.3,Win32,60.11421701,,,,,,,,,,,,0.8523,1,,,,,,,,,,,,,,m,1,0.8523,,,,,,,,0.094444459,-0.397222236,0,0,0,,0,151,151,36,1,BOILER,C,old,m,./images/BOILER.png,,,,,,,,,,,,,,,,,,,,,,,,,,,,,,,,,,
,,,,,,,,,,,,,,,,,,27,2022-02-12_17h21.20.976,lexical_decision_task_DD_L4,2021.2.3,Win32,60.11421701,,,,,,,,,,,,0.5528,1,,,,,,,,,,,,,,z,1,0.5528,,,,,,,,0.094444459,-0.397222236,0,0,0,,0,152,152,92,1,PAIMS,LB,old,z,./images/PAIMSLB.png,,,,,,,,,,,,,,,,,,,,,,,,,,,,,,,,,,
,,,,,,,,,,,,,,,,,,27,2022-02-12_17h21.20.976,lexical_decision_task_DD_L4,2021.2.3,Win32,60.11421701,,,,,,,,,,,,0.4941,1,,,,,,,,,,,,,,m,1,0.4941,,,,,,,,0.094444459,-0.397222236,0,0,0,,0,153,153,45,1,MONKEY,C,old,m,./images/MONKEY.png,,,,,,,,,,,,,,,,,,,,,,,,,,,,,,,,,,
,,,,,,,,,,,,,,,,,,27,2022-02-12_17h21.20.976,lexical_decision_task_DD_L4,2021.2.3,Win32,60.11421701,,,,,,,,,,,,0.7094,1,,,,,,,,,,,,,,m,1,0.7094,,,,,,,,0.094444459,-0.397222236,0,0,0,,0,154,154,73,1,GLOVE,HB,old,m,./images/GLOVEHB.png,,,,,,,,,,,,,,,,,,,,,,,,,,,,,,,,,,
,,,,,,,,,,,,,,,,,,27,2022-02-12_17h21.20.976,lexical_decision_task_DD_L4,2021.2.3,Win32,60.11421701,,,,,,,,,,,,0.4766,1,,,,,,,,,,,,,,m,1,0.4766,,,,,,,,0.094444459,-0.397222236,0,0,0,,0,155,155,68,1,VALLEY,LB,old,m,./images/VALLEYLB.png,,,,,,,,,,,,,,,,,,,,,,,,,,,,,,,,,,
,,,,,,,,,,,,,,,,,,27,2022-02-12_17h21.20.976,lexical_decision_task_DD_L4,2021.2.3,Win32,60.11421701,,,,,,,,,,,,0.3963,1,,,,,,,,,,,,,,m,1,0.3963,,,,,,,,0.094444459,-0.397222236,0,0,0,,0,156,156,62,1,MAMMAL,LB,old,m,./images/MAMMALLB.png,,,,,,,,,,,,,,,,,,,,,,,,,,,,,,,,,,
,,,,,,,,,,,,,,,,,,27,2022-02-12_17h21.20.976,lexical_decision_task_DD_L4,2021.2.3,Win32,60.11421701,,,,,,,,,,,,0.6304,1,,,,,,,,,,,,,,z,1,0.6304,,,,,,,,0.094444459,-0.397222236,0,0,0,,0,157,157,140,1,DOVET,LB,old,z,./images/DOVETLB.png,,,,,,,,,,,,,,,,,,,,,,,,,,,,,,,,,,
,,,,,,,,,,,,,,,,,,27,2022-02-12_17h21.20.976,lexical_decision_task_DD_L4,2021.2.3,Win32,60.11421701,,,,,,,,,,,,0.3756,1,,,,,,,,,,,,,,m,1,0.3756,,,,,,,,0.094444459,-0.397222236,0,0,0,,0,158,158,23,1,CLOTH,LB,old,m,./images/CLOTHLB.png,,,,,,,,,,,,,,,,,,,,,,,,,,,,,,,,,,
,,,,,,,,,,,,,,,,,,27,2022-02-12_17h21.20.976,lexical_decision_task_DD_L4,2021.2.3,Win32,60.11421701,,,,,,,,,,,,0.5755,1,,,,,,,,,,,,,,m,1,0.5755,,,,,,,,0.094444459,-0.397222236,0,0,0,,0,159,159,25,1,CHALK,HB,old,m,./images/CHALKHB.png,,,,,,,,,,,,,,,,,,,,,,,,,,,,,,,,,,
,,,,,,,,,,,,,,,,,,27,2022-02-12_17h21.20.976,lexical_decision_task_DD_L4,2021.2.3,Win32,60.11421701,,,,,,,,,,,,0.6931,1,,,,,,,,,,,,,,m,1,0.6931,,,,,,,,0.094444459,-0.397222236,0,0,0,,0,160,160,58,1,CANOE,HB,old,m,./images/CANOEHB.png,,,,,,,,,,,,,,,,,,,,,,,,,,,,,,,,,,
,,,,,,,,,,,,,,,,,,27,2022-02-12_17h21.20.976,lexical_decision_task_DD_L4,2021.2.3,Win32,60.11421701,,,,,,,,,,,,0.6974,1,,,,,,,,,,,,,,z,1,0.6974,,,,,,,,0.094444459,-0.397222236,0,0,0,,0,161,161,88,1,GLUSH,HB,old,z,./images/GLUSHHB.png,,,,,,,,,,,,,,,,,,,,,,,,,,,,,,,,,,
,,,,,,,,,,,,,,,,,,27,2022-02-12_17h21.20.976,lexical_decision_task_DD_L4,2021.2.3,Win32,60.11421701,,,,,,,,,,,,0.6952,1,,,,,,,,,,,,,,z,1,0.6952,,,,,,,,0.094444459,-0.397222236,0,0,0,,0,162,162,106,1,CLUMS,HB,old,z,./images/CLUMSHB.png,,,,,,,,,,,,,,,,,,,,,,,,,,,,,,,,,,
,,,,,,,,,,,,,,,,,,27,2022-02-12_17h21.20.976,lexical_decision_task_DD_L4,2021.2.3,Win32,60.11421701,,,,,,,,,,,,0.5344,1,,,,,,,,,,,,,,m,1,0.5344,,,,,,,,0.094444459,-0.397222236,0,0,0,,0,163,163,71,1,BUBBLE,LB,old,m,./images/BUBBLELB.png,,,,,,,,,,,,,,,,,,,,,,,,,,,,,,,,,,
,,,,,,,,,,,,,,,,,,27,2022-02-12_17h21.20.976,lexical_decision_task_DD_L4,2021.2.3,Win32,60.11421701,,,,,,,,,,,,0.6541,1,,,,,,,,,,,,,,z,1,0.6541,,,,,,,,0.094444459,-0.397222236,0,0,0,,0,164,164,94,1,BLANS,HB,old,z,./images/BLANSHB.png,,,,,,,,,,,,,,,,,,,,,,,,,,,,,,,,,,
,,,,,,,,,,,,,,,,,,27,2022-02-12_17h21.20.976,lexical_decision_task_DD_L4,2021.2.3,Win32,60.11421701,,,,,,,,,,,,0.7277,1,,,,,,,,,,,,,,z,1,0.7277,,,,,,,,0.094444459,-0.397222236,0,0,0,,0,165,165,105,1,MOKER,C,old,z,./images/MOKER.png,,,,,,,,,,,,,,,,,,,,,,,,,,,,,,,,,,
,,,,,,,,,,,,,,,,,,27,2022-02-12_17h21.20.976,lexical_decision_task_DD_L4,2021.2.3,Win32,60.11421701,,,,,,,,,,,,1.1659,1,,,,,,,,,,,,,,z,1,1.1659,,,,,,,,0.094444459,-0.397222236,0,0,0,,0,166,166,85,1,CHULK,HB,old,z,./images/CHULKHB.png,,,,,,,,,,,,,,,,,,,,,,,,,,,,,,,,,,
,,,,,,,,,,,,,,,,,,27,2022-02-12_17h21.20.976,lexical_decision_task_DD_L4,2021.2.3,Win32,60.11421701,,,,,,,,,,,,0.613,1,,,,,,,,,,,,,,m,1,0.613,,,,,,,,0.094444459,-0.397222236,0,0,0,,0,167,167,0,1,WALNUT,C,old,m,./images/WALNUT.png,,,,,,,,,,,,,,,,,,,,,,,,,,,,,,,,,,
,,,,,,,,,,,,,,,,,,27,2022-02-12_17h21.20.976,lexical_decision_task_DD_L4,2021.2.3,Win32,60.11421701,,,,,,,,,,,,,,,,,,,,,,,,,,,,,,,,,,,,,,,,,,,,,,,,,How likely will it be that you will recognize the words presented very blurred on a scale of 0 (not likely) to 100 (most likely)?,,,,,0.006481551,-0.411111125,1,0,0,jol_adv,4,3.0426,0,0,0,2,1,,,,,,,,,,,,,,,,,,,,
,,,,,,,,,,,,,,,,,,27,2022-02-12_17h21.20.976,lexical_decision_task_DD_L4,2021.2.3,Win32,60.11421701,,,,,,,,,,,,,,,,,,,,,,,,,,,,,,,,,,,,,,,,,,,,,,,,,How likely will it be that you will recognize the words presented slighly blurred on a scale of 0 (not likely) to 100 (most likely)?,,,,,,,,,,,4,0.2163,0,1,1,1,1,,,,,,,,,,,,,,,,,,,,
,,,,,,,,,,,,,,,,,,27,2022-02-12_17h21.20.976,lexical_decision_task_DD_L4,2021.2.3,Win32,60.11421701,,,,,,,,,,,,,,,,,,,,,,,,,,,,,,,,,,,,,,,,,,,,,,,,,How likely will it be that you will recognize the words presented clearly on a scale of 0 (not likely) to 100 (most likely)?,,,,,,,,,,,4,2.8279,0,2,2,0,1,,,,,,,,,,,,,,,,,,,,
,0.05555557,-0.435185199,1,0,0,instr_done_button,,,,,,1,test,"In the next phase you will be presented with the words from the the first phase. Your job is to decide whether you remember seeing the word or not. If you remember seeing the word press ""old"" or type ""m"". If you do not remember seeing the word press ""new"" or type ""z"". Please press the space bar or click on continue to begin. ",,,,27,2022-02-12_17h21.20.976,lexical_decision_task_DD_L4,2021.2.3,Win32,60.11421701,,,,,,,,,,,,,,,,,,,,,,,,,,,,,,,,,,,,,,,,,,,,,,,,,,,,,,,,,,,,,,,,,,,0,0,0,0,1,,,,,,,,,,,,,,,
,0.070370385,-0.417592606,1,0,0,instr_done_button,,,,,,1,test,"In the next phase you will be presented with the words from the the first phase. Your job is to decide whether you remember seeing the word or not. If you remember seeing the word press ""old"" or type ""m"". If you do not remember seeing the word press ""new"" or type ""z"". Please press the space bar or click on continue to begin. ",,,,27,2022-02-12_17h21.20.976,lexical_decision_task_DD_L4,2021.2.3,Win32,60.11421701,,,,,,,,,,,,,,,,,,,,,,,,,,,,,,,,,,,,,,,,,,,,,,,,,,,,,,,,,,,,,,,,,,,1,0,1,0,1,,,,,,,,,,,,,,,
,-0.012036967,-0.368518531,1,0,0,instr_done_button,,,,,,1,test,"In the next phase you will be presented with the words from the the first phase. Your job is to decide whether you remember seeing the word or not. If you remember seeing the word press ""old"" or type ""m"". If you do not remember seeing the word press ""new"" or type ""z"". Please press the space bar or click on continue to begin. ",,,,27,2022-02-12_17h21.20.976,lexical_decision_task_DD_L4,2021.2.3,Win32,60.11421701,,,,,,,,,,,,,,,,,,,,,,,,,,,,,,,,,,,,,,,,,,,,,,,,,,,,,,,,,,,,,,,,,,,2,0,2,0,1,,,,,,,,,,,,,,,
,-0.012036967,-0.368518531,1,0,0,instr_done_button,,,,,,1,test,"In the next phase you will be presented with the words from the the first phase. Your job is to decide whether you remember seeing the word or not. If you remember seeing the word press ""old"" or type ""m"". If you do not remember seeing the word press ""new"" or type ""z"". Please press the space bar or click on continue to begin. ",,,,27,2022-02-12_17h21.20.976,lexical_decision_task_DD_L4,2021.2.3,Win32,60.11421701,,,,,,,,,,,,,,,,,,,,,,,,,,,,,,,,,,,,,,,,,,,,,,,,,,,,,,,,,,,,,,,,,,,3,0,3,0,1,,,,,,,,,,,,,,,
,-0.007407338,-0.407407421,1,0,0,instr_done_button,,,,,,1,test,"In the next phase you will be presented with the words from the the first phase. Your job is to decide whether you remember seeing the word or not. If you remember seeing the word press ""old"" or type ""m"". If you do not remember seeing the word press ""new"" or type ""z"". Please press the space bar or click on continue to begin. ",,,,27,2022-02-12_17h21.20.976,lexical_decision_task_DD_L4,2021.2.3,Win32,60.11421701,,,,,,,,,,,,,,,,,,,,,,,,,,,,,,,,,,,,,,,,,,,,,,,,,,,,,,,,,,,,,,,,,,,4,0,4,0,1,,,,,,,,,,,,,,,
,,,,,,,,,,,,,,,,,,27,2022-02-12_17h21.20.976,lexical_decision_task_DD_L4,2021.2.3,Win32,60.11421701,,,,,,,,,,,,1.6338,1,,,,,,,,,,,,,,,,,,,,,,,,-0.007407338,-0.407407421,0,0,0,,,,,,,WALNUT,C,m,y,./images/WALNUT.png,,,,,,,,,,,,,,,,,,,,m,1,1.6338,,,,,,,,0,0,0,0,1
,,,,,,,,,,,,,,,,,,27,2022-02-12_17h21.20.976,lexical_decision_task_DD_L4,2021.2.3,Win32,60.11421701,,,,,,,,,,,,0.9041,1,,,,,,,,,,,,,,,,,,,,,,,,-0.007407338,-0.407407421,0,0,0,,,,,,,SKIING,LB,z,y,./images/SKIINGLB.png,,,,,,,,,,,,,,,,,,,,z,1,0.9041,,,,,,,,0,1,1,101,1
,,,,,,,,,,,,,,,,,,27,2022-02-12_17h21.20.976,lexical_decision_task_DD_L4,2021.2.3,Win32,60.11421701,,,,,,,,,,,,0.8669,1,,,,,,,,,,,,,,,,,,,,,,,,-0.007407338,-0.407407421,0,0,0,,,,,,,JUMPER,LB,m,y,./images/JUMPERLB.png,,,,,,,,,,,,,,,,,,,,m,1,0.8669,,,,,,,,0,2,2,74,1
,,,,,,,,,,,,,,,,,,27,2022-02-12_17h21.20.976,lexical_decision_task_DD_L4,2021.2.3,Win32,60.11421701,,,,,,,,,,,,0.7503,1,,,,,,,,,,,,,,,,,,,,,,,,-0.007407338,-0.407407421,0,0,0,,,,,,,BOXER,HB,m,y,./images/BOXERHB.png,,,,,,,,,,,,,,,,,,,,m,1,0.7503,,,,,,,,0,3,3,4,1
,,,,,,,,,,,,,,,,,,27,2022-02-12_17h21.20.976,lexical_decision_task_DD_L4,2021.2.3,Win32,60.11421701,,,,,,,,,,,,0.9111,0,,,,,,,,,,,,,,,,,,,,,,,,-0.007407338,-0.407407421,0,0,0,,,,,,,PAINT,HB,z,y,./images/PAINTHB.png,,,,,,,,,,,,,,,,,,,,m,0,0.9111,,,,,,,,0,4,4,91,1
,,,,,,,,,,,,,,,,,,27,2022-02-12_17h21.20.976,lexical_decision_task_DD_L4,2021.2.3,Win32,60.11421701,,,,,,,,,,,,0.9002,1,,,,,,,,,,,,,,,,,,,,,,,,-0.007407338,-0.407407421,0,0,0,,,,,,,SPORT,C,z,y,./images/SPORT.png,,,,,,,,,,,,,,,,,,,,z,1,0.9002,,,,,,,,0,5,5,132,1
,,,,,,,,,,,,,,,,,,27,2022-02-12_17h21.20.976,lexical_decision_task_DD_L4,2021.2.3,Win32,60.11421701,,,,,,,,,,,,0.625,1,,,,,,,,,,,,,,,,,,,,,,,,-0.007407338,-0.407407421,0,0,0,,,,,,,GARDEN,HB,m,y,./images/GARDENHB.png,,,,,,,,,,,,,,,,,,,,m,1,0.625,,,,,,,,0,6,6,10,1
,,,,,,,,,,,,,,,,,,27,2022-02-12_17h21.20.976,lexical_decision_task_DD_L4,2021.2.3,Win32,60.11421701,,,,,,,,,,,,0.6169,1,,,,,,,,,,,,,,,,,,,,,,,,-0.007407338,-0.407407421,0,0,0,,,,,,,CHERRY,C,m,y,./images/CHERRY.png,,,,,,,,,,,,,,,,,,,,m,1,0.6169,,,,,,,,0,7,7,54,1
,,,,,,,,,,,,,,,,,,27,2022-02-12_17h21.20.976,lexical_decision_task_DD_L4,2021.2.3,Win32,60.11421701,,,,,,,,,,,,1.4673,1,,,,,,,,,,,,,,,,,,,,,,,,-0.007407338,-0.407407421,0,0,0,,,,,,,KITTEN,C,z,y,./images/KITTEN.png,,,,,,,,,,,,,,,,,,,,z,1,1.4673,,,,,,,,0,8,8,129,1
,,,,,,,,,,,,,,,,,,27,2022-02-12_17h21.20.976,lexical_decision_task_DD_L4,2021.2.3,Win32,60.11421701,,,,,,,,,,,,1.0608,1,,,,,,,,,,,,,,,,,,,,,,,,-0.007407338,-0.407407421,0,0,0,,,,,,,NOOSE,C,z,y,./images/NOOSE.png,,,,,,,,,,,,,,,,,,,,z,1,1.0608,,,,,,,,0,9,9,156,1
,,,,,,,,,,,,,,,,,,27,2022-02-12_17h21.20.976,lexical_decision_task_DD_L4,2021.2.3,Win32,60.11421701,,,,,,,,,,,,0.722,1,,,,,,,,,,,,,,,,,,,,,,,,-0.007407338,-0.407407421,0,0,0,,,,,,,SHIELD,C,m,y,./images/SHIELD.png,,,,,,,,,,,,,,,,,,,,m,1,0.722,,,,,,,,0,10,10,48,1
,,,,,,,,,,,,,,,,,,27,2022-02-12_17h21.20.976,lexical_decision_task_DD_L4,2021.2.3,Win32,60.11421701,,,,,,,,,,,,0.9566,0,,,,,,,,,,,,,,,,,,,,,,,,-0.007407338,-0.407407421,0,0,0,,,,,,,WHISKY,LB,m,y,./images/WHISKYLB.png,,,,,,,,,,,,,,,,,,,,z,0,0.9566,,,,,,,,0,11,11,83,1
,,,,,,,,,,,,,,,,,,27,2022-02-12_17h21.20.976,lexical_decision_task_DD_L4,2021.2.3,Win32,60.11421701,,,,,,,,,,,,0.7169,0,,,,,,,,,,,,,,,,,,,,,,,,-0.007407338,-0.407407421,0,0,0,,,,,,,BASKET,LB,m,y,./images/BASKETLB.png,,,,,,,,,,,,,,,,,,,,z,0,0.7169,,,,,,,,0,12,12,44,1
,,,,,,,,,,,,,,,,,,27,2022-02-12_17h21.20.976,lexical_decision_task_DD_L4,2021.2.3,Win32,60.11421701,,,,,,,,,,,,0.7738,1,,,,,,,,,,,,,,,,,,,,,,,,-0.007407338,-0.407407421,0,0,0,,,,,,,DESERT,HB,m,y,./images/DESERTHB.png,,,,,,,,,,,,,,,,,,,,m,1,0.7738,,,,,,,,0,13,13,52,1
,,,,,,,,,,,,,,,,,,27,2022-02-12_17h21.20.976,lexical_decision_task_DD_L4,2021.2.3,Win32,60.11421701,,,,,,,,,,,,0.7558,0,,,,,,,,,,,,,,,,,,,,,,,,-0.007407338,-0.407407421,0,0,0,,,,,,,QUILL,HB,z,y,./images/QUILLHB.png,,,,,,,,,,,,,,,,,,,,m,0,0.7558,,,,,,,,0,14,14,115,1
,,,,,,,,,,,,,,,,,,27,2022-02-12_17h21.20.976,lexical_decision_task_DD_L4,2021.2.3,Win32,60.11421701,,,,,,,,,,,,0.5858,1,,,,,,,,,,,,,,,,,,,,,,,,-0.007407338,-0.407407421,0,0,0,,,,,,,STREAM,LB,m,y,./images/STREAMLB.png,,,,,,,,,,,,,,,,,,,,m,1,0.5858,,,,,,,,0,15,15,41,1
,,,,,,,,,,,,,,,,,,27,2022-02-12_17h21.20.976,lexical_decision_task_DD_L4,2021.2.3,Win32,60.11421701,,,,,,,,,,,,0.7745,1,,,,,,,,,,,,,,,,,,,,,,,,-0.007407338,-0.407407421,0,0,0,,,,,,,DRUMS,HB,z,y,./images/DRUMSHB.png,,,,,,,,,,,,,,,,,,,,z,1,0.7745,,,,,,,,0,16,16,133,1
,,,,,,,,,,,,,,,,,,27,2022-02-12_17h21.20.976,lexical_decision_task_DD_L4,2021.2.3,Win32,60.11421701,,,,,,,,,,,,0.4742,1,,,,,,,,,,,,,,,,,,,,,,,,-0.007407338,-0.407407421,0,0,0,,,,,,,ALLEY,HB,m,y,./images/ALLEYHB.png,,,,,,,,,,,,,,,,,,,,m,1,0.4742,,,,,,,,0,17,17,55,1
,,,,,,,,,,,,,,,,,,27,2022-02-12_17h21.20.976,lexical_decision_task_DD_L4,2021.2.3,Win32,60.11421701,,,,,,,,,,,,0.6827,1,,,,,,,,,,,,,,,,,,,,,,,,-0.007407338,-0.407407421,0,0,0,,,,,,,CLIFF,LB,m,y,./images/CLIFFLB.png,,,,,,,,,,,,,,,,,,,,m,1,0.6827,,,,,,,,0,18,18,8,1
,,,,,,,,,,,,,,,,,,27,2022-02-12_17h21.20.976,lexical_decision_task_DD_L4,2021.2.3,Win32,60.11421701,,,,,,,,,,,,0.6099,1,,,,,,,,,,,,,,,,,,,,,,,,-0.007407338,-0.407407421,0,0,0,,,,,,,FLESH,C,m,y,./images/FLESH.png,,,,,,,,,,,,,,,,,,,,m,1,0.6099,,,,,,,,0,19,19,24,1
,,,,,,,,,,,,,,,,,,27,2022-02-12_17h21.20.976,lexical_decision_task_DD_L4,2021.2.3,Win32,60.11421701,,,,,,,,,,,,0.7497,1,,,,,,,,,,,,,,,,,,,,,,,,-0.007407338,-0.407407421,0,0,0,,,,,,,RAZOR,HB,m,y,./images/RAZORHB.png,,,,,,,,,,,,,,,,,,,,m,1,0.7497,,,,,,,,0,20,20,34,1
,,,,,,,,,,,,,,,,,,27,2022-02-12_17h21.20.976,lexical_decision_task_DD_L4,2021.2.3,Win32,60.11421701,,,,,,,,,,,,0.734,1,,,,,,,,,,,,,,,,,,,,,,,,-0.007407338,-0.407407421,0,0,0,,,,,,,MUSCLE,HB,z,y,./images/MUSCLEHB.png,,,,,,,,,,,,,,,,,,,,z,1,0.734,,,,,,,,0,21,21,88,1
,,,,,,,,,,,,,,,,,,27,2022-02-12_17h21.20.976,lexical_decision_task_DD_L4,2021.2.3,Win32,60.11421701,,,,,,,,,,,,0.9861,0,,,,,,,,,,,,,,,,,,,,,,,,-0.007407338,-0.407407421,0,0,0,,,,,,,MAGGOT,C,z,y,./images/MAGGOT.png,,,,,,,,,,,,,,,,,,,,m,0,0.9861,,,,,,,,0,22,22,117,1
,,,,,,,,,,,,,,,,,,27,2022-02-12_17h21.20.976,lexical_decision_task_DD_L4,2021.2.3,Win32,60.11421701,,,,,,,,,,,,0.5941,1,,,,,,,,,,,,,,,,,,,,,,,,-0.007407338,-0.407407421,0,0,0,,,,,,,LIZARD,LB,z,y,./images/LIZARDLB.png,,,,,,,,,,,,,,,,,,,,z,1,0.5941,,,,,,,,0,23,23,128,1
,,,,,,,,,,,,,,,,,,27,2022-02-12_17h21.20.976,lexical_decision_task_DD_L4,2021.2.3,Win32,60.11421701,,,,,,,,,,,,0.8444,1,,,,,,,,,,,,,,,,,,,,,,,,-0.007407338,-0.407407421,0,0,0,,,,,,,POKER,HB,m,y,./images/POKERHB.png,,,,,,,,,,,,,,,,,,,,m,1,0.8444,,,,,,,,0,24,24,67,1
,,,,,,,,,,,,,,,,,,27,2022-02-12_17h21.20.976,lexical_decision_task_DD_L4,2021.2.3,Win32,60.11421701,,,,,,,,,,,,1.3175,0,,,,,,,,,,,,,,,,,,,,,,,,-0.007407338,-0.407407421,0,0,0,,,,,,,SAILOR,HB,z,y,./images/SAILORHB.png,,,,,,,,,,,,,,,,,,,,m,0,1.3175,,,,,,,,0,25,25,151,1
,,,,,,,,,,,,,,,,,,27,2022-02-12_17h21.20.976,lexical_decision_task_DD_L4,2021.2.3,Win32,60.11421701,,,,,,,,,,,,0.5402,1,,,,,,,,,,,,,,,,,,,,,,,,-0.007407338,-0.407407421,0,0,0,,,,,,,CRUST,HB,z,y,./images/CRUSTHB.png,,,,,,,,,,,,,,,,,,,,z,1,0.5402,,,,,,,,0,26,26,163,1
,,,,,,,,,,,,,,,,,,27,2022-02-12_17h21.20.976,lexical_decision_task_DD_L4,2021.2.3,Win32,60.11421701,,,,,,,,,,,,0.7281,0,,,,,,,,,,,,,,,,,,,,,,,,-0.007407338,-0.407407421,0,0,0,,,,,,,JUNGLE,LB,z,y,./images/JUNGLELB.png,,,,,,,,,,,,,,,,,,,,m,0,0.7281,,,,,,,,0,27,27,167,1
,,,,,,,,,,,,,,,,,,27,2022-02-12_17h21.20.976,lexical_decision_task_DD_L4,2021.2.3,Win32,60.11421701,,,,,,,,,,,,0.7408,1,,,,,,,,,,,,,,,,,,,,,,,,-0.007407338,-0.407407421,0,0,0,,,,,,,BUNNY,HB,m,y,./images/BUNNYHB.png,,,,,,,,,,,,,,,,,,,,m,1,0.7408,,,,,,,,0,28,28,13,1
,,,,,,,,,,,,,,,,,,27,2022-02-12_17h21.20.976,lexical_decision_task_DD_L4,2021.2.3,Win32,60.11421701,,,,,,,,,,,,0.6209,1,,,,,,,,,,,,,,,,,,,,,,,,-0.007407338,-0.407407421,0,0,0,,,,,,,BONNET,LB,z,y,./images/BONNETLB.png,,,,,,,,,,,,,,,,,,,,z,1,0.6209,,,,,,,,0,29,29,95,1
,,,,,,,,,,,,,,,,,,27,2022-02-12_17h21.20.976,lexical_decision_task_DD_L4,2021.2.3,Win32,60.11421701,,,,,,,,,,,,1.4998,0,,,,,,,,,,,,,,,,,,,,,,,,-0.007407338,-0.407407421,0,0,0,,,,,,,PLANET,LB,m,y,./images/PLANETLB.png,,,,,,,,,,,,,,,,,,,,z,0,1.4998,,,,,,,,0,30,30,80,1
,,,,,,,,,,,,,,,,,,27,2022-02-12_17h21.20.976,lexical_decision_task_DD_L4,2021.2.3,Win32,60.11421701,,,,,,,,,,,,0.8833,1,,,,,,,,,,,,,,,,,,,,,,,,-0.007407338,-0.407407421,0,0,0,,,,,,,DANCER,C,m,y,./images/DANCER.png,,,,,,,,,,,,,,,,,,,,m,1,0.8833,,,,,,,,0,31,31,21,1
,,,,,,,,,,,,,,,,,,27,2022-02-12_17h21.20.976,lexical_decision_task_DD_L4,2021.2.3,Win32,60.11421701,,,,,,,,,,,,0.8449,1,,,,,,,,,,,,,,,,,,,,,,,,-0.007407338,-0.407407421,0,0,0,,,,,,,PILOT,LB,m,y,./images/PILOTLB.png,,,,,,,,,,,,,,,,,,,,m,1,0.8449,,,,,,,,0,32,32,50,1
,,,,,,,,,,,,,,,,,,27,2022-02-12_17h21.20.976,lexical_decision_task_DD_L4,2021.2.3,Win32,60.11421701,,,,,,,,,,,,0.857,1,,,,,,,,,,,,,,,,,,,,,,,,-0.007407338,-0.407407421,0,0,0,,,,,,,FALCON,HB,z,y,./images/FALCONHB.png,,,,,,,,,,,,,,,,,,,,z,1,0.857,,,,,,,,0,33,33,112,1
,,,,,,,,,,,,,,,,,,27,2022-02-12_17h21.20.976,lexical_decision_task_DD_L4,2021.2.3,Win32,60.11421701,,,,,,,,,,,,1.5674,0,,,,,,,,,,,,,,,,,,,,,,,,-0.007407338,-0.407407421,0,0,0,,,,,,,LADDER,LB,z,y,./images/LADDERLB.png,,,,,,,,,,,,,,,,,,,,m,0,1.5674,,,,,,,,0,34,34,122,1
,,,,,,,,,,,,,,,,,,27,2022-02-12_17h21.20.976,lexical_decision_task_DD_L4,2021.2.3,Win32,60.11421701,,,,,,,,,,,,0.6168,1,,,,,,,,,,,,,,,,,,,,,,,,-0.007407338,-0.407407421,0,0,0,,,,,,,FOLDER,C,z,y,./images/FOLDER.png,,,,,,,,,,,,,,,,,,,,z,1,0.6168,,,,,,,,0,35,35,126,1
,,,,,,,,,,,,,,,,,,27,2022-02-12_17h21.20.976,lexical_decision_task_DD_L4,2021.2.3,Win32,60.11421701,,,,,,,,,,,,0.8831,1,,,,,,,,,,,,,,,,,,,,,,,,-0.007407338,-0.407407421,0,0,0,,,,,,,VALLEY,LB,m,y,./images/VALLEYLB.png,,,,,,,,,,,,,,,,,,,,m,1,0.8831,,,,,,,,0,36,36,68,1
,,,,,,,,,,,,,,,,,,27,2022-02-12_17h21.20.976,lexical_decision_task_DD_L4,2021.2.3,Win32,60.11421701,,,,,,,,,,,,1.1831,0,,,,,,,,,,,,,,,,,,,,,,,,-0.007407338,-0.407407421,0,0,0,,,,,,,ATTIC,C,z,y,./images/ATTIC.png,,,,,,,,,,,,,,,,,,,,m,0,1.1831,,,,,,,,0,37,37,111,1
,,,,,,,,,,,,,,,,,,27,2022-02-12_17h21.20.976,lexical_decision_task_DD_L4,2021.2.3,Win32,60.11421701,,,,,,,,,,,,0.8364,1,,,,,,,,,,,,,,,,,,,,,,,,-0.007407338,-0.407407421,0,0,0,,,,,,,LAGOON,LB,m,y,./images/LAGOONLB.png,,,,,,,,,,,,,,,,,,,,m,1,0.8364,,,,,,,,0,38,38,47,1
,,,,,,,,,,,,,,,,,,27,2022-02-12_17h21.20.976,lexical_decision_task_DD_L4,2021.2.3,Win32,60.11421701,,,,,,,,,,,,0.9328,1,,,,,,,,,,,,,,,,,,,,,,,,-0.007407338,-0.407407421,0,0,0,,,,,,,GREASE,C,z,y,./images/GREASE.png,,,,,,,,,,,,,,,,,,,,z,1,0.9328,,,,,,,,0,39,39,99,1
,,,,,,,,,,,,,,,,,,27,2022-02-12_17h21.20.976,lexical_decision_task_DD_L4,2021.2.3,Win32,60.11421701,,,,,,,,,,,,0.8192,1,,,,,,,,,,,,,,,,,,,,,,,,-0.007407338,-0.407407421,0,0,0,,,,,,,DOUGH,HB,z,y,./images/DOUGHHB.png,,,,,,,,,,,,,,,,,,,,z,1,0.8192,,,,,,,,0,40,40,103,1
,,,,,,,,,,,,,,,,,,27,2022-02-12_17h21.20.976,lexical_decision_task_DD_L4,2021.2.3,Win32,60.11421701,,,,,,,,,,,,0.611,1,,,,,,,,,,,,,,,,,,,,,,,,-0.007407338,-0.407407421,0,0,0,space,,,,,,STOOL,HB,m,y,./images/STOOLHB.png,40.0155,,,,,,,,,,,,,,,,,,,m,1,0.611,,,,,,,,0,41,41,43,1
,,,,,,,,,,,,,,,,,,27,2022-02-12_17h21.20.976,lexical_decision_task_DD_L4,2021.2.3,Win32,60.11421701,,,,,,,,,,,,0.6166,1,,,,,,,,,,,,,,,,,,,,,,,,-0.007407338,-0.407407421,0,0,0,,,,,,,BERRY,LB,z,y,./images/BERRYLB.png,,,,,,,,,,,,,,,,,,,,z,1,0.6166,,,,,,,,0,42,42,131,1
,,,,,,,,,,,,,,,,,,27,2022-02-12_17h21.20.976,lexical_decision_task_DD_L4,2021.2.3,Win32,60.11421701,,,,,,,,,,,,0.5263,1,,,,,,,,,,,,,,,,,,,,,,,,-0.007407338,-0.407407421,0,0,0,,,,,,,TIGER,HB,m,y,./images/TIGERHB.png,,,,,,,,,,,,,,,,,,,,m,1,0.5263,,,,,,,,0,43,43,37,1
,,,,,,,,,,,,,,,,,,27,2022-02-12_17h21.20.976,lexical_decision_task_DD_L4,2021.2.3,Win32,60.11421701,,,,,,,,,,,,0.6501,1,,,,,,,,,,,,,,,,,,,,,,,,-0.007407338,-0.407407421,0,0,0,,,,,,,TORCH,LB,z,y,./images/TORCHLB.png,,,,,,,,,,,,,,,,,,,,z,1,0.6501,,,,,,,,0,44,44,152,1
,,,,,,,,,,,,,,,,,,27,2022-02-12_17h21.20.976,lexical_decision_task_DD_L4,2021.2.3,Win32,60.11421701,,,,,,,,,,,,0.7773,0,,,,,,,,,,,,,,,,,,,,,,,,-0.007407338,-0.407407421,0,0,0,,,,,,,POSTER,LB,m,y,./images/POSTERLB.png,,,,,,,,,,,,,,,,,,,,z,0,0.7773,,,,,,,,0,45,45,53,1
,,,,,,,,,,,,,,,,,,27,2022-02-12_17h21.20.976,lexical_decision_task_DD_L4,2021.2.3,Win32,60.11421701,,,,,,,,,,,,0.9189,0,,,,,,,,,,,,,,,,,,,,,,,,-0.007407338,-0.407407421,0,0,0,,,,,,,CARPET,LB,z,y,./images/CARPETLB.png,,,,,,,,,,,,,,,,,,,,m,0,0.9189,,,,,,,,0,46,46,137,1
,,,,,,,,,,,,,,,,,,27,2022-02-12_17h21.20.976,lexical_decision_task_DD_L4,2021.2.3,Win32,60.11421701,,,,,,,,,,,,0.6573,1,,,,,,,,,,,,,,,,,,,,,,,,-0.007407338,-0.407407421,0,0,0,,,,,,,PASTA,LB,z,y,./images/PASTALB.png,,,,,,,,,,,,,,,,,,,,z,1,0.6573,,,,,,,,0,47,47,89,1
,,,,,,,,,,,,,,,,,,27,2022-02-12_17h21.20.976,lexical_decision_task_DD_L4,2021.2.3,Win32,60.11421701,,,,,,,,,,,,1.0544,0,,,,,,,,,,,,,,,,,,,,,,,,-0.007407338,-0.407407421,0,0,0,,,,,,,BANNER,HB,z,y,./images/BANNERHB.png,,,,,,,,,,,,,,,,,,,,m,0,1.0544,,,,,,,,0,48,48,136,1
,,,,,,,,,,,,,,,,,,27,2022-02-12_17h21.20.976,lexical_decision_task_DD_L4,2021.2.3,Win32,60.11421701,,,,,,,,,,,,1.079,1,,,,,,,,,,,,,,,,,,,,,,,,-0.007407338,-0.407407421,0,0,0,,,,,,,MOSQUE,HB,z,y,./images/MOSQUEHB.png,,,,,,,,,,,,,,,,,,,,z,1,1.079,,,,,,,,0,49,49,127,1
,,,,,,,,,,,,,,,,,,27,2022-02-12_17h21.20.976,lexical_decision_task_DD_L4,2021.2.3,Win32,60.11421701,,,,,,,,,,,,0.6367,1,,,,,,,,,,,,,,,,,,,,,,,,-0.007407338,-0.407407421,0,0,0,,,,,,,SNAKE,HB,m,y,./images/SNAKEHB.png,,,,,,,,,,,,,,,,,,,,m,1,0.6367,,,,,,,,0,50,50,40,1
,,,,,,,,,,,,,,,,,,27,2022-02-12_17h21.20.976,lexical_decision_task_DD_L4,2021.2.3,Win32,60.11421701,,,,,,,,,,,,0.6501,1,,,,,,,,,,,,,,,,,,,,,,,,-0.007407338,-0.407407421,0,0,0,,,,,,,CEMENT,LB,z,y,./images/CEMENTLB.png,,,,,,,,,,,,,,,,,,,,z,1,0.6501,,,,,,,,0,51,51,158,1
,,,,,,,,,,,,,,,,,,27,2022-02-12_17h21.20.976,lexical_decision_task_DD_L4,2021.2.3,Win32,60.11421701,,,,,,,,,,,,0.6393,1,,,,,,,,,,,,,,,,,,,,,,,,-0.007407338,-0.407407421,0,0,0,,,,,,,POODLE,C,z,y,./images/POODLE.png,,,,,,,,,,,,,,,,,,,,z,1,0.6393,,,,,,,,0,52,52,165,1
,,,,,,,,,,,,,,,,,,27,2022-02-12_17h21.20.976,lexical_decision_task_DD_L4,2021.2.3,Win32,60.11421701,,,,,,,,,,,,0.7235,1,,,,,,,,,,,,,,,,,,,,,,,,-0.007407338,-0.407407421,0,0,0,,,,,,,GRAPE,HB,m,y,./images/GRAPEHB.png,,,,,,,,,,,,,,,,,,,,m,1,0.7235,,,,,,,,0,53,53,16,1
,,,,,,,,,,,,,,,,,,27,2022-02-12_17h21.20.976,lexical_decision_task_DD_L4,2021.2.3,Win32,60.11421701,,,,,,,,,,,,0.7908,1,,,,,,,,,,,,,,,,,,,,,,,,-0.007407338,-0.407407421,0,0,0,,,,,,,CANDY,C,m,y,./images/CANDY.png,,,,,,,,,,,,,,,,,,,,m,1,0.7908,,,,,,,,0,54,54,39,1
,,,,,,,,,,,,,,,,,,27,2022-02-12_17h21.20.976,lexical_decision_task_DD_L4,2021.2.3,Win32,60.11421701,,,,,,,,,,,,0.7116,1,,,,,,,,,,,,,,,,,,,,,,,,-0.007407338,-0.407407421,0,0,0,,,,,,,DONKEY,HB,m,y,./images/DONKEYHB.png,,,,,,,,,,,,,,,,,,,,m,1,0.7116,,,,,,,,0,55,55,19,1
,,,,,,,,,,,,,,,,,,27,2022-02-12_17h21.20.976,lexical_decision_task_DD_L4,2021.2.3,Win32,60.11421701,,,,,,,,,,,,0.5423,1,,,,,,,,,,,,,,,,,,,,,,,,-0.007407338,-0.407407421,0,0,0,,,,,,,MALLET,LB,z,y,./images/MALLETLB.png,,,,,,,,,,,,,,,,,,,,z,1,0.5423,,,,,,,,0,56,56,134,1
,,,,,,,,,,,,,,,,,,27,2022-02-12_17h21.20.976,lexical_decision_task_DD_L4,2021.2.3,Win32,60.11421701,,,,,,,,,,,,2.199,0,,,,,,,,,,,,,,,,,,,,,,,,-0.007407338,-0.407407421,0,0,0,,,,,,,PACKET,LB,z,y,./images/PACKETLB.png,,,,,,,,,,,,,,,,,,,,m,0,2.199,,,,,,,,0,57,57,140,1
,,,,,,,,,,,,,,,,,,27,2022-02-12_17h21.20.976,lexical_decision_task_DD_L4,2021.2.3,Win32,60.11421701,,,,,,,,,,,,1.6919,1,,,,,,,,,,,,,,,,,,,,,,,,-0.007407338,-0.407407421,0,0,0,,,,,,,MUMMY,HB,m,y,./images/MUMMYHB.png,,,,,,,,,,,,,,,,,,,,m,1,1.6919,,,,,,,,0,58,58,46,1
,,,,,,,,,,,,,,,,,,27,2022-02-12_17h21.20.976,lexical_decision_task_DD_L4,2021.2.3,Win32,60.11421701,,,,,,,,,,,,0.8899,0,,,,,,,,,,,,,,,,,,,,,,,,-0.007407338,-0.407407421,0,0,0,,,,,,,SWING,HB,z,y,./images/SWINGHB.png,,,,,,,,,,,,,,,,,,,,m,0,0.8899,,,,,,,,0,59,59,124,1
,,,,,,,,,,,,,,,,,,27,2022-02-12_17h21.20.976,lexical_decision_task_DD_L4,2021.2.3,Win32,60.11421701,,,,,,,,,,,,0.8996,0,,,,,,,,,,,,,,,,,,,,,,,,-0.007407338,-0.407407421,0,0,0,,,,,,,FERRY,C,m,y,./images/FERRY.png,,,,,,,,,,,,,,,,,,,,z,0,0.8996,,,,,,,,0,60,60,57,1
,,,,,,,,,,,,,,,,,,27,2022-02-12_17h21.20.976,lexical_decision_task_DD_L4,2021.2.3,Win32,60.11421701,,,,,,,,,,,,0.7061,1,,,,,,,,,,,,,,,,,,,,,,,,-0.007407338,-0.407407421,0,0,0,,,,,,,PIMPLE,LB,z,y,./images/PIMPLELB.png,,,,,,,,,,,,,,,,,,,,z,1,0.7061,,,,,,,,0,61,61,155,1
,,,,,,,,,,,,,,,,,,27,2022-02-12_17h21.20.976,lexical_decision_task_DD_L4,2021.2.3,Win32,60.11421701,,,,,,,,,,,,1.0606,1,,,,,,,,,,,,,,,,,,,,,,,,-0.007407338,-0.407407421,0,0,0,,,,,,,BEARD,LB,z,y,./images/BEARDLB.png,,,,,,,,,,,,,,,,,,,,z,1,1.0606,,,,,,,,0,62,62,86,1
,,,,,,,,,,,,,,,,,,27,2022-02-12_17h21.20.976,lexical_decision_task_DD_L4,2021.2.3,Win32,60.11421701,,,,,,,,,,,,0.524,0,,,,,,,,,,,,,,,,,,,,,,,,-0.007407338,-0.407407421,0,0,0,,,,,,,GRAIN,C,z,y,./images/GRAIN.png,,,,,,,,,,,,,,,,,,,,m,0,0.524,,,,,,,,0,63,63,159,1
,,,,,,,,,,,,,,,,,,27,2022-02-12_17h21.20.976,lexical_decision_task_DD_L4,2021.2.3,Win32,60.11421701,,,,,,,,,,,,0.5909,1,,,,,,,,,,,,,,,,,,,,,,,,-0.007407338,-0.407407421,0,0,0,,,,,,,PISTOL,LB,m,y,./images/PISTOLLB.png,,,,,,,,,,,,,,,,,,,,m,1,0.5909,,,,,,,,0,64,64,29,1
,,,,,,,,,,,,,,,,,,27,2022-02-12_17h21.20.976,lexical_decision_task_DD_L4,2021.2.3,Win32,60.11421701,,,,,,,,,,,,0.5797,1,,,,,,,,,,,,,,,,,,,,,,,,-0.007407338,-0.407407421,0,0,0,,,,,,,BOILER,C,m,y,./images/BOILER.png,,,,,,,,,,,,,,,,,,,,m,1,0.5797,,,,,,,,0,65,65,36,1
,,,,,,,,,,,,,,,,,,27,2022-02-12_17h21.20.976,lexical_decision_task_DD_L4,2021.2.3,Win32,60.11421701,,,,,,,,,,,,1.0568,0,,,,,,,,,,,,,,,,,,,,,,,,-0.007407338,-0.407407421,0,0,0,,,,,,,PURSE,LB,z,y,./images/PURSELB.png,,,,,,,,,,,,,,,,,,,,m,0,1.0568,,,,,,,,0,66,66,146,1
,,,,,,,,,,,,,,,,,,27,2022-02-12_17h21.20.976,lexical_decision_task_DD_L4,2021.2.3,Win32,60.11421701,,,,,,,,,,,,0.8703,1,,,,,,,,,,,,,,,,,,,,,,,,-0.007407338,-0.407407421,0,0,0,,,,,,,SLOPE,C,m,y,./images/SLOPE.png,,,,,,,,,,,,,,,,,,,,m,1,0.8703,,,,,,,,0,67,67,30,1
,,,,,,,,,,,,,,,,,,27,2022-02-12_17h21.20.976,lexical_decision_task_DD_L4,2021.2.3,Win32,60.11421701,,,,,,,,,,,,1.2014,0,,,,,,,,,,,,,,,,,,,,,,,,-0.007407338,-0.407407421,0,0,0,,,,,,,KIDNEY,C,z,y,./images/KIDNEY.png,,,,,,,,,,,,,,,,,,,,m,0,1.2014,,,,,,,,0,68,68,105,1
,,,,,,,,,,,,,,,,,,27,2022-02-12_17h21.20.976,lexical_decision_task_DD_L4,2021.2.3,Win32,60.11421701,,,,,,,,,,,,1.2666,1,,,,,,,,,,,,,,,,,,,,,,,,-0.007407338,-0.407407421,0,0,0,,,,,,,SUNSET,HB,z,y,./images/SUNSETHB.png,,,,,,,,,,,,,,,,,,,,z,1,1.2666,,,,,,,,0,69,69,166,1
,,,,,,,,,,,,,,,,,,27,2022-02-12_17h21.20.976,lexical_decision_task_DD_L4,2021.2.3,Win32,60.11421701,,,,,,,,,,,,0.7204,1,,,,,,,,,,,,,,,,,,,,,,,,-0.007407338,-0.407407421,0,0,0,,,,,,,PEARL,HB,z,y,./images/PEARLHB.png,,,,,,,,,,,,,,,,,,,,z,1,0.7204,,,,,,,,0,70,70,130,1
,,,,,,,,,,,,,,,,,,27,2022-02-12_17h21.20.976,lexical_decision_task_DD_L4,2021.2.3,Win32,60.11421701,,,,,,,,,,,,0.5863,0,,,,,,,,,,,,,,,,,,,,,,,,-0.007407338,-0.407407421,0,0,0,,,,,,,CANDLE,HB,z,y,./images/CANDLEHB.png,,,,,,,,,,,,,,,,,,,,m,0,0.5863,,,,,,,,0,71,71,145,1
,,,,,,,,,,,,,,,,,,27,2022-02-12_17h21.20.976,lexical_decision_task_DD_L4,2021.2.3,Win32,60.11421701,,,,,,,,,,,,0.7028,0,,,,,,,,,,,,,,,,,,,,,,,,-0.007407338,-0.407407421,0,0,0,,,,,,,PLANK,HB,z,y,./images/PLANKHB.png,,,,,,,,,,,,,,,,,,,,m,0,0.7028,,,,,,,,0,72,72,85,1
,,,,,,,,,,,,,,,,,,27,2022-02-12_17h21.20.976,lexical_decision_task_DD_L4,2021.2.3,Win32,60.11421701,,,,,,,,,,,,0.6706,1,,,,,,,,,,,,,,,,,,,,,,,,-0.007407338,-0.407407421,0,0,0,,,,,,,DRILL,C,m,y,./images/DRILL.png,,,,,,,,,,,,,,,,,,,,m,1,0.6706,,,,,,,,0,73,73,81,1
,,,,,,,,,,,,,,,,,,27,2022-02-12_17h21.20.976,lexical_decision_task_DD_L4,2021.2.3,Win32,60.11421701,,,,,,,,,,,,0.6216,0,,,,,,,,,,,,,,,,,,,,,,,,-0.007407338,-0.407407421,0,0,0,,,,,,,BUBBLE,LB,m,y,./images/BUBBLELB.png,,,,,,,,,,,,,,,,,,,,z,0,0.6216,,,,,,,,0,74,74,71,1
,,,,,,,,,,,,,,,,,,27,2022-02-12_17h21.20.976,lexical_decision_task_DD_L4,2021.2.3,Win32,60.11421701,,,,,,,,,,,,0.7742,1,,,,,,,,,,,,,,,,,,,,,,,,-0.007407338,-0.407407421,0,0,0,,,,,,,PEACH,LB,z,y,./images/PEACHLB.png,,,,,,,,,,,,,,,,,,,,z,1,0.7742,,,,,,,,0,75,75,119,1
,,,,,,,,,,,,,,,,,,27,2022-02-12_17h21.20.976,lexical_decision_task_DD_L4,2021.2.3,Win32,60.11421701,,,,,,,,,,,,0.544,1,,,,,,,,,,,,,,,,,,,,,,,,-0.007407338,-0.407407421,0,0,0,,,,,,,HOCKEY,LB,m,y,./images/HOCKEYLB.png,,,,,,,,,,,,,,,,,,,,m,1,0.544,,,,,,,,0,76,76,32,1
,,,,,,,,,,,,,,,,,,27,2022-02-12_17h21.20.976,lexical_decision_task_DD_L4,2021.2.3,Win32,60.11421701,,,,,,,,,,,,0.574,1,,,,,,,,,,,,,,,,,,,,,,,,-0.007407338,-0.407407421,0,0,0,,,,,,,BRIDE,HB,m,y,./images/BRIDEHB.png,,,,,,,,,,,,,,,,,,,,m,1,0.574,,,,,,,,0,77,77,64,1
,,,,,,,,,,,,,,,,,,27,2022-02-12_17h21.20.976,lexical_decision_task_DD_L4,2021.2.3,Win32,60.11421701,,,,,,,,,,,,0.6686,1,,,,,,,,,,,,,,,,,,,,,,,,-0.007407338,-0.407407421,0,0,0,,,,,,,BISHOP,HB,m,y,./images/BISHOPHB.png,,,,,,,,,,,,,,,,,,,,m,1,0.6686,,,,,,,,0,78,78,49,1
,,,,,,,,,,,,,,,,,,27,2022-02-12_17h21.20.976,lexical_decision_task_DD_L4,2021.2.3,Win32,60.11421701,,,,,,,,,,,,0.5532,1,,,,,,,,,,,,,,,,,,,,,,,,-0.007407338,-0.407407421,0,0,0,,,,,,,WEASEL,LB,z,y,./images/WEASELLB.png,,,,,,,,,,,,,,,,,,,,z,1,0.5532,,,,,,,,0,79,79,164,1
,,,,,,,,,,,,,,,,,,27,2022-02-12_17h21.20.976,lexical_decision_task_DD_L4,2021.2.3,Win32,60.11421701,,,,,,,,,,,,0.5032,1,,,,,,,,,,,,,,,,,,,,,,,,-0.007407338,-0.407407421,0,0,0,,,,,,,BUTTER,C,m,y,./images/BUTTER.png,,,,,,,,,,,,,,,,,,,,m,1,0.5032,,,,,,,,0,80,80,27,1
,,,,,,,,,,,,,,,,,,27,2022-02-12_17h21.20.976,lexical_decision_task_DD_L4,2021.2.3,Win32,60.11421701,,,,,,,,,,,,0.8055,1,,,,,,,,,,,,,,,,,,,,,,,,-0.007407338,-0.407407421,0,0,0,,,,,,,CANYON,HB,z,y,./images/CANYONHB.png,,,,,,,,,,,,,,,,,,,,z,1,0.8055,,,,,,,,0,81,81,118,1
,,,,,,,,,,,,,,,,,,27,2022-02-12_17h21.20.976,lexical_decision_task_DD_L4,2021.2.3,Win32,60.11421701,,,,,,,,,,,,0.6249,1,,,,,,,,,,,,,,,,,,,,,,,,-0.007407338,-0.407407421,0,0,0,,,,,,,WAGON,HB,m,y,./images/WAGONHB.png,,,,,,,,,,,,,,,,,,,,m,1,0.6249,,,,,,,,0,82,82,7,1
,,,,,,,,,,,,,,,,,,27,2022-02-12_17h21.20.976,lexical_decision_task_DD_L4,2021.2.3,Win32,60.11421701,,,,,,,,,,,,0.7835,1,,,,,,,,,,,,,,,,,,,,,,,,-0.007407338,-0.407407421,0,0,0,space,,,,,,BANANA,HB,m,y,./images/BANANAHB.png,13.0664,,,,,,,,,,,,,,,,,,,m,1,0.7835,,,,,,,,0,83,83,70,1
,,,,,,,,,,,,,,,,,,27,2022-02-12_17h21.20.976,lexical_decision_task_DD_L4,2021.2.3,Win32,60.11421701,,,,,,,,,,,,0.7164,0,,,,,,,,,,,,,,,,,,,,,,,,-0.007407338,-0.407407421,0,0,0,,,,,,,BLOKE,C,m,y,./images/BLOKE.png,,,,,,,,,,,,,,,,,,,,z,0,0.7164,,,,,,,,0,84,84,12,1
,,,,,,,,,,,,,,,,,,27,2022-02-12_17h21.20.976,lexical_decision_task_DD_L4,2021.2.3,Win32,60.11421701,,,,,,,,,,,,0.5056,1,,,,,,,,,,,,,,,,,,,,,,,,-0.007407338,-0.407407421,0,0,0,,,,,,,WHEEL,LB,m,y,./images/WHEELLB.png,,,,,,,,,,,,,,,,,,,,m,1,0.5056,,,,,,,,0,85,85,77,1
,,,,,,,,,,,,,,,,,,27,2022-02-12_17h21.20.976,lexical_decision_task_DD_L4,2021.2.3,Win32,60.11421701,,,,,,,,,,,,0.9052,1,,,,,,,,,,,,,,,,,,,,,,,,-0.007407338,-0.407407421,0,0,0,,,,,,,MIRROR,C,z,y,./images/MIRROR.png,,,,,,,,,,,,,,,,,,,,z,1,0.9052,,,,,,,,0,86,86,147,1
,,,,,,,,,,,,,,,,,,27,2022-02-12_17h21.20.976,lexical_decision_task_DD_L4,2021.2.3,Win32,60.11421701,,,,,,,,,,,,0.8332,1,,,,,,,,,,,,,,,,,,,,,,,,-0.007407338,-0.407407421,0,0,0,,,,,,,BURIAL,LB,z,y,./images/BURIALLB.png,,,,,,,,,,,,,,,,,,,,z,1,0.8332,,,,,,,,0,87,87,143,1
,,,,,,,,,,,,,,,,,,27,2022-02-12_17h21.20.976,lexical_decision_task_DD_L4,2021.2.3,Win32,60.11421701,,,,,,,,,,,,1.0841,1,,,,,,,,,,,,,,,,,,,,,,,,-0.007407338,-0.407407421,0,0,0,,,,,,,WRIST,HB,z,y,./images/WRISTHB.png,,,,,,,,,,,,,,,,,,,,z,1,1.0841,,,,,,,,0,88,88,109,1
,,,,,,,,,,,,,,,,,,27,2022-02-12_17h21.20.976,lexical_decision_task_DD_L4,2021.2.3,Win32,60.11421701,,,,,,,,,,,,1.9327,1,,,,,,,,,,,,,,,,,,,,,,,,-0.007407338,-0.407407421,0,0,0,,,,,,,ONION,C,z,y,./images/ONION.png,,,,,,,,,,,,,,,,,,,,z,1,1.9327,,,,,,,,0,89,89,135,1
,,,,,,,,,,,,,,,,,,27,2022-02-12_17h21.20.976,lexical_decision_task_DD_L4,2021.2.3,Win32,60.11421701,,,,,,,,,,,,1.6058,1,,,,,,,,,,,,,,,,,,,,,,,,-0.007407338,-0.407407421,0,0,0,,,,,,,RHINO,C,z,y,./images/RHINO.png,,,,,,,,,,,,,,,,,,,,z,1,1.6058,,,,,,,,0,90,90,93,1
,,,,,,,,,,,,,,,,,,27,2022-02-12_17h21.20.976,lexical_decision_task_DD_L4,2021.2.3,Win32,60.11421701,,,,,,,,,,,,0.6903,1,,,,,,,,,,,,,,,,,,,,,,,,-0.007407338,-0.407407421,0,0,0,,,,,,,CANOE,HB,m,y,./images/CANOEHB.png,,,,,,,,,,,,,,,,,,,,m,1,0.6903,,,,,,,,0,91,91,58,1
,,,,,,,,,,,,,,,,,,27,2022-02-12_17h21.20.976,lexical_decision_task_DD_L4,2021.2.3,Win32,60.11421701,,,,,,,,,,,,0.5173,0,,,,,,,,,,,,,,,,,,,,,,,,-0.007407338,-0.407407421,0,0,0,,,,,,,FENCE,LB,m,y,./images/FENCELB.png,,,,,,,,,,,,,,,,,,,,z,0,0.5173,,,,,,,,0,92,92,14,1
,,,,,,,,,,,,,,,,,,27,2022-02-12_17h21.20.976,lexical_decision_task_DD_L4,2021.2.3,Win32,60.11421701,,,,,,,,,,,,0.7865,1,,,,,,,,,,,,,,,,,,,,,,,,-0.007407338,-0.407407421,0,0,0,,,,,,,STOVE,LB,m,y,./images/STOVELB.png,,,,,,,,,,,,,,,,,,,,m,1,0.7865,,,,,,,,0,93,93,2,1
,,,,,,,,,,,,,,,,,,27,2022-02-12_17h21.20.976,lexical_decision_task_DD_L4,2021.2.3,Win32,60.11421701,,,,,,,,,,,,0.6336,1,,,,,,,,,,,,,,,,,,,,,,,,-0.007407338,-0.407407421,0,0,0,,,,,,,TULIP,LB,z,y,./images/TULIPLB.png,,,,,,,,,,,,,,,,,,,,z,1,0.6336,,,,,,,,0,94,94,92,1
,,,,,,,,,,,,,,,,,,27,2022-02-12_17h21.20.976,lexical_decision_task_DD_L4,2021.2.3,Win32,60.11421701,,,,,,,,,,,,0.9613,0,,,,,,,,,,,,,,,,,,,,,,,,-0.007407338,-0.407407421,0,0,0,,,,,,,CRUMB,LB,z,y,./images/CRUMBLB.png,,,,,,,,,,,,,,,,,,,,m,0,0.9613,,,,,,,,0,95,95,113,1
,,,,,,,,,,,,,,,,,,27,2022-02-12_17h21.20.976,lexical_decision_task_DD_L4,2021.2.3,Win32,60.11421701,,,,,,,,,,,,0.7071,1,,,,,,,,,,,,,,,,,,,,,,,,-0.007407338,-0.407407421,0,0,0,,,,,,,SPINE,LB,m,y,./images/SPINELB.png,,,,,,,,,,,,,,,,,,,,m,1,0.7071,,,,,,,,0,96,96,65,1
,,,,,,,,,,,,,,,,,,27,2022-02-12_17h21.20.976,lexical_decision_task_DD_L4,2021.2.3,Win32,60.11421701,,,,,,,,,,,,1.0833,1,,,,,,,,,,,,,,,,,,,,,,,,-0.007407338,-0.407407421,0,0,0,,,,,,,BRUSH,LB,m,y,./images/BRUSHLB.png,,,,,,,,,,,,,,,,,,,,m,1,1.0833,,,,,,,,0,97,97,59,1
,,,,,,,,,,,,,,,,,,27,2022-02-12_17h21.20.976,lexical_decision_task_DD_L4,2021.2.3,Win32,60.11421701,,,,,,,,,,,,0.6663,0,,,,,,,,,,,,,,,,,,,,,,,,-0.007407338,-0.407407421,0,0,0,,,,,,,SHORE,C,z,y,./images/SHORE.png,,,,,,,,,,,,,,,,,,,,m,0,0.6663,,,,,,,,0,98,98,96,1
,,,,,,,,,,,,,,,,,,27,2022-02-12_17h21.20.976,lexical_decision_task_DD_L4,2021.2.3,Win32,60.11421701,,,,,,,,,,,,0.527,1,,,,,,,,,,,,,,,,,,,,,,,,-0.007407338,-0.407407421,0,0,0,,,,,,,PENCE,HB,z,y,./images/PENCEHB.png,,,,,,,,,,,,,,,,,,,,z,1,0.527,,,,,,,,0,99,99,100,1
,,,,,,,,,,,,,,,,,,27,2022-02-12_17h21.20.976,lexical_decision_task_DD_L4,2021.2.3,Win32,60.11421701,,,,,,,,,,,,0.6709,0,,,,,,,,,,,,,,,,,,,,,,,,-0.007407338,-0.407407421,0,0,0,,,,,,,ARROW,C,m,y,./images/ARROW.png,,,,,,,,,,,,,,,,,,,,z,0,0.6709,,,,,,,,0,100,100,69,1
,,,,,,,,,,,,,,,,,,27,2022-02-12_17h21.20.976,lexical_decision_task_DD_L4,2021.2.3,Win32,60.11421701,,,,,,,,,,,,1.0083,1,,,,,,,,,,,,,,,,,,,,,,,,-0.007407338,-0.407407421,0,0,0,,,,,,,BARREL,LB,z,y,./images/BARRELLB.png,,,,,,,,,,,,,,,,,,,,z,1,1.0083,,,,,,,,0,101,101,116,1
,,,,,,,,,,,,,,,,,,27,2022-02-12_17h21.20.976,lexical_decision_task_DD_L4,2021.2.3,Win32,60.11421701,,,,,,,,,,,,0.8868,1,,,,,,,,,,,,,,,,,,,,,,,,-0.007407338,-0.407407421,0,0,0,,,,,,,PARADE,LB,m,y,./images/PARADELB.png,,,,,,,,,,,,,,,,,,,,m,1,0.8868,,,,,,,,0,102,102,17,1
,,,,,,,,,,,,,,,,,,27,2022-02-12_17h21.20.976,lexical_decision_task_DD_L4,2021.2.3,Win32,60.11421701,,,,,,,,,,,,0.5571,1,,,,,,,,,,,,,,,,,,,,,,,,-0.007407338,-0.407407421,0,0,0,,,,,,,FARMER,LB,z,y,./images/FARMERLB.png,,,,,,,,,,,,,,,,,,,,z,1,0.5571,,,,,,,,0,103,103,149,1
,,,,,,,,,,,,,,,,,,27,2022-02-12_17h21.20.976,lexical_decision_task_DD_L4,2021.2.3,Win32,60.11421701,,,,,,,,,,,,0.5193,1,,,,,,,,,,,,,,,,,,,,,,,,-0.007407338,-0.407407421,0,0,0,,,,,,,SHELF,C,z,y,./images/SHELF.png,,,,,,,,,,,,,,,,,,,,z,1,0.5193,,,,,,,,0,104,104,123,1
,,,,,,,,,,,,,,,,,,27,2022-02-12_17h21.20.976,lexical_decision_task_DD_L4,2021.2.3,Win32,60.11421701,,,,,,,,,,,,0.5381,1,,,,,,,,,,,,,,,,,,,,,,,,-0.007407338,-0.407407421,0,0,0,,,,,,,GLOVE,HB,m,y,./images/GLOVEHB.png,,,,,,,,,,,,,,,,,,,,m,1,0.5381,,,,,,,,0,105,105,73,1
,,,,,,,,,,,,,,,,,,27,2022-02-12_17h21.20.976,lexical_decision_task_DD_L4,2021.2.3,Win32,60.11421701,,,,,,,,,,,,0.6364,1,,,,,,,,,,,,,,,,,,,,,,,,-0.007407338,-0.407407421,0,0,0,,,,,,,CHAIN,C,m,y,./images/CHAIN.png,,,,,,,,,,,,,,,,,,,,m,1,0.6364,,,,,,,,0,106,106,42,1
,,,,,,,,,,,,,,,,,,27,2022-02-12_17h21.20.976,lexical_decision_task_DD_L4,2021.2.3,Win32,60.11421701,,,,,,,,,,,,1.4786,0,,,,,,,,,,,,,,,,,,,,,,,,-0.007407338,-0.407407421,0,0,0,,,,,,,FLASK,C,m,y,./images/FLASK.png,,,,,,,,,,,,,,,,,,,,z,0,1.4786,,,,,,,,0,107,107,72,1
,,,,,,,,,,,,,,,,,,27,2022-02-12_17h21.20.976,lexical_decision_task_DD_L4,2021.2.3,Win32,60.11421701,,,,,,,,,,,,0.7499,1,,,,,,,,,,,,,,,,,,,,,,,,-0.007407338,-0.407407421,0,0,0,,,,,,,INFANT,HB,z,y,./images/INFANTHB.png,,,,,,,,,,,,,,,,,,,,z,1,0.7499,,,,,,,,0,108,108,160,1
,,,,,,,,,,,,,,,,,,27,2022-02-12_17h21.20.976,lexical_decision_task_DD_L4,2021.2.3,Win32,60.11421701,,,,,,,,,,,,0.5997,1,,,,,,,,,,,,,,,,,,,,,,,,-0.007407338,-0.407407421,0,0,0,,,,,,,JELLY,HB,z,y,./images/JELLYHB.png,,,,,,,,,,,,,,,,,,,,z,1,0.5997,,,,,,,,0,109,109,148,1
,,,,,,,,,,,,,,,,,,27,2022-02-12_17h21.20.976,lexical_decision_task_DD_L4,2021.2.3,Win32,60.11421701,,,,,,,,,,,,0.5659,0,,,,,,,,,,,,,,,,,,,,,,,,-0.007407338,-0.407407421,0,0,0,,,,,,,CLOUD,LB,m,y,./images/CLOUDLB.png,,,,,,,,,,,,,,,,,,,,z,0,0.5659,,,,,,,,0,110,110,26,1
,,,,,,,,,,,,,,,,,,27,2022-02-12_17h21.20.976,lexical_decision_task_DD_L4,2021.2.3,Win32,60.11421701,,,,,,,,,,,,0.7502,1,,,,,,,,,,,,,,,,,,,,,,,,-0.007407338,-0.407407421,0,0,0,,,,,,,HAMMER,C,m,y,./images/HAMMER.png,,,,,,,,,,,,,,,,,,,,m,1,0.7502,,,,,,,,0,111,111,75,1
,,,,,,,,,,,,,,,,,,27,2022-02-12_17h21.20.976,lexical_decision_task_DD_L4,2021.2.3,Win32,60.11421701,,,,,,,,,,,,0.641,1,,,,,,,,,,,,,,,,,,,,,,,,-0.007407338,-0.407407421,0,0,0,,,,,,,TWINS,C,z,y,./images/TWINS.png,,,,,,,,,,,,,,,,,,,,z,1,0.641,,,,,,,,0,112,112,144,1
,,,,,,,,,,,,,,,,,,27,2022-02-12_17h21.20.976,lexical_decision_task_DD_L4,2021.2.3,Win32,60.11421701,,,,,,,,,,,,0.9172,1,,,,,,,,,,,,,,,,,,,,,,,,-0.007407338,-0.407407421,0,0,0,,,,,,,STORM,C,z,y,./images/STORM.png,,,,,,,,,,,,,,,,,,,,z,1,0.9172,,,,,,,,0,113,113,114,1
,,,,,,,,,,,,,,,,,,27,2022-02-12_17h21.20.976,lexical_decision_task_DD_L4,2021.2.3,Win32,60.11421701,,,,,,,,,,,,0.9681,1,,,,,,,,,,,,,,,,,,,,,,,,-0.007407338,-0.407407421,0,0,0,,,,,,,HEATER,LB,m,y,./images/HEATERLB.png,,,,,,,,,,,,,,,,,,,,m,1,0.9681,,,,,,,,0,114,114,56,1
,,,,,,,,,,,,,,,,,,27,2022-02-12_17h21.20.976,lexical_decision_task_DD_L4,2021.2.3,Win32,60.11421701,,,,,,,,,,,,0.7403,1,,,,,,,,,,,,,,,,,,,,,,,,-0.007407338,-0.407407421,0,0,0,,,,,,,COLLAR,C,m,y,./images/COLLAR.png,,,,,,,,,,,,,,,,,,,,m,1,0.7403,,,,,,,,0,115,115,15,1
,,,,,,,,,,,,,,,,,,27,2022-02-12_17h21.20.976,lexical_decision_task_DD_L4,2021.2.3,Win32,60.11421701,,,,,,,,,,,,1.4566,1,,,,,,,,,,,,,,,,,,,,,,,,-0.007407338,-0.407407421,0,0,0,,,,,,,BIRTH,HB,z,y,./images/BIRTHHB.png,,,,,,,,,,,,,,,,,,,,z,1,1.4566,,,,,,,,0,116,116,121,1
,,,,,,,,,,,,,,,,,,27,2022-02-12_17h21.20.976,lexical_decision_task_DD_L4,2021.2.3,Win32,60.11421701,,,,,,,,,,,,1.5719,0,,,,,,,,,,,,,,,,,,,,,,,,-0.007407338,-0.407407421,0,0,0,,,,,,,SAUNA,C,m,y,./images/SAUNA.png,,,,,,,,,,,,,,,,,,,,z,0,1.5719,,,,,,,,0,117,117,33,1
,,,,,,,,,,,,,,,,,,27,2022-02-12_17h21.20.976,lexical_decision_task_DD_L4,2021.2.3,Win32,60.11421701,,,,,,,,,,,,0.9545,1,,,,,,,,,,,,,,,,,,,,,,,,-0.007407338,-0.407407421,0,0,0,,,,,,,CLOWN,HB,m,y,./images/CLOWNHB.png,,,,,,,,,,,,,,,,,,,,m,1,0.9545,,,,,,,,0,118,118,22,1
,,,,,,,,,,,,,,,,,,27,2022-02-12_17h21.20.976,lexical_decision_task_DD_L4,2021.2.3,Win32,60.11421701,,,,,,,,,,,,1.2184,1,,,,,,,,,,,,,,,,,,,,,,,,-0.007407338,-0.407407421,0,0,0,,,,,,,PARCEL,C,m,y,./images/PARCEL.png,,,,,,,,,,,,,,,,,,,,m,1,1.2184,,,,,,,,0,119,119,18,1
,,,,,,,,,,,,,,,,,,27,2022-02-12_17h21.20.976,lexical_decision_task_DD_L4,2021.2.3,Win32,60.11421701,,,,,,,,,,,,0.7067,1,,,,,,,,,,,,,,,,,,,,,,,,-0.007407338,-0.407407421,0,0,0,,,,,,,SCREW,C,z,y,./images/SCREW.png,,,,,,,,,,,,,,,,,,,,z,1,0.7067,,,,,,,,0,120,120,108,1
,,,,,,,,,,,,,,,,,,27,2022-02-12_17h21.20.976,lexical_decision_task_DD_L4,2021.2.3,Win32,60.11421701,,,,,,,,,,,,0.5364,1,,,,,,,,,,,,,,,,,,,,,,,,-0.007407338,-0.407407421,0,0,0,,,,,,,DIVER,C,m,y,./images/DIVER.png,,,,,,,,,,,,,,,,,,,,m,1,0.5364,,,,,,,,0,121,121,9,1
,,,,,,,,,,,,,,,,,,27,2022-02-12_17h21.20.976,lexical_decision_task_DD_L4,2021.2.3,Win32,60.11421701,,,,,,,,,,,,0.7429,1,,,,,,,,,,,,,,,,,,,,,,,,-0.007407338,-0.407407421,0,0,0,,,,,,,URINE,HB,z,y,./images/URINEHB.png,,,,,,,,,,,,,,,,,,,,z,1,0.7429,,,,,,,,0,122,122,154,1
,,,,,,,,,,,,,,,,,,27,2022-02-12_17h21.20.976,lexical_decision_task_DD_L4,2021.2.3,Win32,60.11421701,,,,,,,,,,,,0.81,1,,,,,,,,,,,,,,,,,,,,,,,,-0.007407338,-0.407407421,0,0,0,,,,,,,SQUARE,C,z,y,./images/SQUARE.png,,,,,,,,,,,,,,,,,,,,z,1,0.81,,,,,,,,0,123,123,90,1
,,,,,,,,,,,,,,,,,,27,2022-02-12_17h21.20.976,lexical_decision_task_DD_L4,2021.2.3,Win32,60.11421701,,,,,,,,,,,,0.9129,1,,,,,,,,,,,,,,,,,,,,,,,,-0.007407338,-0.407407421,0,0,0,,,,,,,TOMATO,C,z,y,./images/TOMATO.png,,,,,,,,,,,,,,,,,,,,z,1,0.9129,,,,,,,,0,124,124,84,1
,,,,,,,,,,,,,,,,,,27,2022-02-12_17h21.20.976,lexical_decision_task_DD_L4,2021.2.3,Win32,60.11421701,,,,,,,,,,,,0.7895,1,,,,,,,,,,,,,,,,,,,,,,,,-0.007407338,-0.407407421,0,0,0,space,,,,,,MOTOR,HB,z,y,./images/MOTORHB.png,1.3085,,,,,,,,,,,,,,,,,,,z,1,0.7895,,,,,,,,0,125,125,97,1
,,,,,,,,,,,,,,,,,,27,2022-02-12_17h21.20.976,lexical_decision_task_DD_L4,2021.2.3,Win32,60.11421701,,,,,,,,,,,,0.862,0,,,,,,,,,,,,,,,,,,,,,,,,-0.007407338,-0.407407421,0,0,0,,,,,,,CLOTH,LB,m,y,./images/CLOTHLB.png,,,,,,,,,,,,,,,,,,,,z,0,0.862,,,,,,,,0,126,126,23,1
,,,,,,,,,,,,,,,,,,27,2022-02-12_17h21.20.976,lexical_decision_task_DD_L4,2021.2.3,Win32,60.11421701,,,,,,,,,,,,0.5461,0,,,,,,,,,,,,,,,,,,,,,,,,-0.007407338,-0.407407421,0,0,0,,,,,,,COUCH,LB,z,y,./images/COUCHLB.png,,,,,,,,,,,,,,,,,,,,m,0,0.5461,,,,,,,,0,127,127,161,1
,,,,,,,,,,,,,,,,,,27,2022-02-12_17h21.20.976,lexical_decision_task_DD_L4,2021.2.3,Win32,60.11421701,,,,,,,,,,,,0.7335,1,,,,,,,,,,,,,,,,,,,,,,,,-0.007407338,-0.407407421,0,0,0,,,,,,,LITTER,C,z,y,./images/LITTER.png,,,,,,,,,,,,,,,,,,,,z,1,0.7335,,,,,,,,0,128,128,162,1
,,,,,,,,,,,,,,,,,,27,2022-02-12_17h21.20.976,lexical_decision_task_DD_L4,2021.2.3,Win32,60.11421701,,,,,,,,,,,,0.6501,0,,,,,,,,,,,,,,,,,,,,,,,,-0.007407338,-0.407407421,0,0,0,,,,,,,SWEAT,C,z,y,./images/SWEAT.png,,,,,,,,,,,,,,,,,,,,m,0,0.6501,,,,,,,,0,129,129,150,1
,,,,,,,,,,,,,,,,,,27,2022-02-12_17h21.20.976,lexical_decision_task_DD_L4,2021.2.3,Win32,60.11421701,,,,,,,,,,,,0.6402,1,,,,,,,,,,,,,,,,,,,,,,,,-0.007407338,-0.407407421,0,0,0,,,,,,,BAMBOO,LB,m,y,./images/BAMBOOLB.png,,,,,,,,,,,,,,,,,,,,m,1,0.6402,,,,,,,,0,130,130,5,1
,,,,,,,,,,,,,,,,,,27,2022-02-12_17h21.20.976,lexical_decision_task_DD_L4,2021.2.3,Win32,60.11421701,,,,,,,,,,,,0.7109,1,,,,,,,,,,,,,,,,,,,,,,,,-0.007407338,-0.407407421,0,0,0,,,,,,,ARTIST,HB,m,y,./images/ARTISTHB.png,,,,,,,,,,,,,,,,,,,,m,1,0.7109,,,,,,,,0,131,131,61,1
,,,,,,,,,,,,,,,,,,27,2022-02-12_17h21.20.976,lexical_decision_task_DD_L4,2021.2.3,Win32,60.11421701,,,,,,,,,,,,0.5672,0,,,,,,,,,,,,,,,,,,,,,,,,-0.007407338,-0.407407421,0,0,0,,,,,,,CRATER,C,m,y,./images/CRATER.png,,,,,,,,,,,,,,,,,,,,z,0,0.5672,,,,,,,,0,132,132,3,1
,,,,,,,,,,,,,,,,,,27,2022-02-12_17h21.20.976,lexical_decision_task_DD_L4,2021.2.3,Win32,60.11421701,,,,,,,,,,,,0.7551,1,,,,,,,,,,,,,,,,,,,,,,,,-0.007407338,-0.407407421,0,0,0,,,,,,,CRADLE,LB,z,y,./images/CRADLELB.png,,,,,,,,,,,,,,,,,,,,z,1,0.7551,,,,,,,,0,133,133,104,1
,,,,,,,,,,,,,,,,,,27,2022-02-12_17h21.20.976,lexical_decision_task_DD_L4,2021.2.3,Win32,60.11421701,,,,,,,,,,,,1.3743,0,,,,,,,,,,,,,,,,,,,,,,,,-0.007407338,-0.407407421,0,0,0,,,,,,,STRING,LB,z,y,./images/STRINGLB.png,,,,,,,,,,,,,,,,,,,,m,0,1.3743,,,,,,,,0,134,134,125,1
,,,,,,,,,,,,,,,,,,27,2022-02-12_17h21.20.976,lexical_decision_task_DD_L4,2021.2.3,Win32,60.11421701,,,,,,,,,,,,0.5669,0,,,,,,,,,,,,,,,,,,,,,,,,-0.007407338,-0.407407421,0,0,0,,,,,,,BABOON,HB,z,y,./images/BABOONHB.png,,,,,,,,,,,,,,,,,,,,m,0,0.5669,,,,,,,,0,135,135,142,1
,,,,,,,,,,,,,,,,,,27,2022-02-12_17h21.20.976,lexical_decision_task_DD_L4,2021.2.3,Win32,60.11421701,,,,,,,,,,,,0.8159,1,,,,,,,,,,,,,,,,,,,,,,,,-0.007407338,-0.407407421,0,0,0,,,,,,,SNACK,HB,z,y,./images/SNACKHB.png,,,,,,,,,,,,,,,,,,,,z,1,0.8159,,,,,,,,0,136,136,157,1
,,,,,,,,,,,,,,,,,,27,2022-02-12_17h21.20.976,lexical_decision_task_DD_L4,2021.2.3,Win32,60.11421701,,,,,,,,,,,,0.7608,1,,,,,,,,,,,,,,,,,,,,,,,,-0.007407338,-0.407407421,0,0,0,,,,,,,COOKER,C,z,y,./images/COOKER.png,,,,,,,,,,,,,,,,,,,,z,1,0.7608,,,,,,,,0,137,137,153,1
,,,,,,,,,,,,,,,,,,27,2022-02-12_17h21.20.976,lexical_decision_task_DD_L4,2021.2.3,Win32,60.11421701,,,,,,,,,,,,0.8494,1,,,,,,,,,,,,,,,,,,,,,,,,-0.007407338,-0.407407421,0,0,0,,,,,,,PICKLE,LB,z,y,./images/PICKLELB.png,,,,,,,,,,,,,,,,,,,,z,1,0.8494,,,,,,,,0,138,138,98,1
,,,,,,,,,,,,,,,,,,27,2022-02-12_17h21.20.976,lexical_decision_task_DD_L4,2021.2.3,Win32,60.11421701,,,,,,,,,,,,0.5594,1,,,,,,,,,,,,,,,,,,,,,,,,-0.007407338,-0.407407421,0,0,0,,,,,,,CASINO,HB,m,y,./images/CASINOHB.png,,,,,,,,,,,,,,,,,,,,m,1,0.5594,,,,,,,,0,139,139,28,1
,,,,,,,,,,,,,,,,,,27,2022-02-12_17h21.20.976,lexical_decision_task_DD_L4,2021.2.3,Win32,60.11421701,,,,,,,,,,,,1.6704,0,,,,,,,,,,,,,,,,,,,,,,,,-0.007407338,-0.407407421,0,0,0,,,,,,,SAUCE,C,m,y,./images/SAUCE.png,,,,,,,,,,,,,,,,,,,,z,0,1.6704,,,,,,,,0,140,140,51,1
,,,,,,,,,,,,,,,,,,27,2022-02-12_17h21.20.976,lexical_decision_task_DD_L4,2021.2.3,Win32,60.11421701,,,,,,,,,,,,1.3002,1,,,,,,,,,,,,,,,,,,,,,,,,-0.007407338,-0.407407421,0,0,0,,,,,,,ENGINE,LB,m,y,./images/ENGINELB.png,,,,,,,,,,,,,,,,,,,,m,1,1.3002,,,,,,,,0,141,141,38,1
,,,,,,,,,,,,,,,,,,27,2022-02-12_17h21.20.976,lexical_decision_task_DD_L4,2021.2.3,Win32,60.11421701,,,,,,,,,,,,0.6925,0,,,,,,,,,,,,,,,,,,,,,,,,-0.007407338,-0.407407421,0,0,0,,,,,,,GRANNY,LB,m,y,./images/GRANNYLB.png,,,,,,,,,,,,,,,,,,,,z,0,0.6925,,,,,,,,0,142,142,20,1
,,,,,,,,,,,,,,,,,,27,2022-02-12_17h21.20.976,lexical_decision_task_DD_L4,2021.2.3,Win32,60.11421701,,,,,,,,,,,,0.578,1,,,,,,,,,,,,,,,,,,,,,,,,-0.007407338,-0.407407421,0,0,0,,,,,,,MIDGET,HB,m,y,./images/MIDGETHB.png,,,,,,,,,,,,,,,,,,,,m,1,0.578,,,,,,,,0,143,143,76,1
,,,,,,,,,,,,,,,,,,27,2022-02-12_17h21.20.976,lexical_decision_task_DD_L4,2021.2.3,Win32,60.11421701,,,,,,,,,,,,1.0946,0,,,,,,,,,,,,,,,,,,,,,,,,-0.007407338,-0.407407421,0,0,0,,,,,,,MEDAL,LB,m,y,./images/MEDALLB.png,,,,,,,,,,,,,,,,,,,,z,0,1.0946,,,,,,,,0,144,144,11,1
,,,,,,,,,,,,,,,,,,27,2022-02-12_17h21.20.976,lexical_decision_task_DD_L4,2021.2.3,Win32,60.11421701,,,,,,,,,,,,0.7349,1,,,,,,,,,,,,,,,,,,,,,,,,-0.007407338,-0.407407421,0,0,0,,,,,,,MAMMAL,LB,m,y,./images/MAMMALLB.png,,,,,,,,,,,,,,,,,,,,m,1,0.7349,,,,,,,,0,145,145,62,1
,,,,,,,,,,,,,,,,,,27,2022-02-12_17h21.20.976,lexical_decision_task_DD_L4,2021.2.3,Win32,60.11421701,,,,,,,,,,,,0.8933,1,,,,,,,,,,,,,,,,,,,,,,,,-0.007407338,-0.407407421,0,0,0,,,,,,,LLAMA,LB,m,y,./images/LLAMALB.png,,,,,,,,,,,,,,,,,,,,m,1,0.8933,,,,,,,,0,146,146,35,1
,,,,,,,,,,,,,,,,,,27,2022-02-12_17h21.20.976,lexical_decision_task_DD_L4,2021.2.3,Win32,60.11421701,,,,,,,,,,,,0.5565,1,,,,,,,,,,,,,,,,,,,,,,,,-0.007407338,-0.407407421,0,0,0,,,,,,,BELLY,HB,z,y,./images/BELLYHB.png,,,,,,,,,,,,,,,,,,,,z,1,0.5565,,,,,,,,0,147,147,94,1
,,,,,,,,,,,,,,,,,,27,2022-02-12_17h21.20.976,lexical_decision_task_DD_L4,2021.2.3,Win32,60.11421701,,,,,,,,,,,,0.7432,1,,,,,,,,,,,,,,,,,,,,,,,,-0.007407338,-0.407407421,0,0,0,,,,,,,CURRY,C,m,y,./images/CURRY.png,,,,,,,,,,,,,,,,,,,,m,1,0.7432,,,,,,,,0,148,148,60,1
,,,,,,,,,,,,,,,,,,27,2022-02-12_17h21.20.976,lexical_decision_task_DD_L4,2021.2.3,Win32,60.11421701,,,,,,,,,,,,1.4059,1,,,,,,,,,,,,,,,,,,,,,,,,-0.007407338,-0.407407421,0,0,0,,,,,,,STAIN,C,m,y,./images/STAIN.png,,,,,,,,,,,,,,,,,,,,m,1,1.4059,,,,,,,,0,149,149,6,1
,,,,,,,,,,,,,,,,,,27,2022-02-12_17h21.20.976,lexical_decision_task_DD_L4,2021.2.3,Win32,60.11421701,,,,,,,,,,,,0.7338,0,,,,,,,,,,,,,,,,,,,,,,,,-0.007407338,-0.407407421,0,0,0,,,,,,,JAGUAR,C,z,y,./images/JAGUAR.png,,,,,,,,,,,,,,,,,,,,m,0,0.7338,,,,,,,,0,150,150,102,1
,,,,,,,,,,,,,,,,,,27,2022-02-12_17h21.20.976,lexical_decision_task_DD_L4,2021.2.3,Win32,60.11421701,,,,,,,,,,,,0.6062,0,,,,,,,,,,,,,,,,,,,,,,,,-0.007407338,-0.407407421,0,0,0,,,,,,,PEBBLE,HB,m,y,./images/PEBBLEHB.png,,,,,,,,,,,,,,,,,,,,z,0,0.6062,,,,,,,,0,151,151,82,1
,,,,,,,,,,,,,,,,,,27,2022-02-12_17h21.20.976,lexical_decision_task_DD_L4,2021.2.3,Win32,60.11421701,,,,,,,,,,,,0.6667,1,,,,,,,,,,,,,,,,,,,,,,,,-0.007407338,-0.407407421,0,0,0,,,,,,,SMOKER,LB,z,y,./images/SMOKERLB.png,,,,,,,,,,,,,,,,,,,,z,1,0.6667,,,,,,,,0,152,152,110,1
,,,,,,,,,,,,,,,,,,27,2022-02-12_17h21.20.976,lexical_decision_task_DD_L4,2021.2.3,Win32,60.11421701,,,,,,,,,,,,0.9226,1,,,,,,,,,,,,,,,,,,,,,,,,-0.007407338,-0.407407421,0,0,0,,,,,,,STEAK,HB,m,y,./images/STEAKHB.png,,,,,,,,,,,,,,,,,,,,m,1,0.9226,,,,,,,,0,153,153,31,1
,,,,,,,,,,,,,,,,,,27,2022-02-12_17h21.20.976,lexical_decision_task_DD_L4,2021.2.3,Win32,60.11421701,,,,,,,,,,,,1.1526,0,,,,,,,,,,,,,,,,,,,,,,,,-0.007407338,-0.407407421,0,0,0,,,,,,,MONKEY,C,m,y,./images/MONKEY.png,,,,,,,,,,,,,,,,,,,,z,0,1.1526,,,,,,,,0,154,154,45,1
,,,,,,,,,,,,,,,,,,27,2022-02-12_17h21.20.976,lexical_decision_task_DD_L4,2021.2.3,Win32,60.11421701,,,,,,,,,,,,1.3937,1,,,,,,,,,,,,,,,,,,,,,,,,-0.007407338,-0.407407421,0,0,0,,,,,,,MOOSE,C,z,y,./images/MOOSE.png,,,,,,,,,,,,,,,,,,,,z,1,1.3937,,,,,,,,0,155,155,141,1
,,,,,,,,,,,,,,,,,,27,2022-02-12_17h21.20.976,lexical_decision_task_DD_L4,2021.2.3,Win32,60.11421701,,,,,,,,,,,,0.8499,1,,,,,,,,,,,,,,,,,,,,,,,,-0.007407338,-0.407407421,0,0,0,,,,,,,BAKER,C,m,y,./images/BAKER.png,,,,,,,,,,,,,,,,,,,,m,1,0.8499,,,,,,,,0,156,156,63,1
,,,,,,,,,,,,,,,,,,27,2022-02-12_17h21.20.976,lexical_decision_task_DD_L4,2021.2.3,Win32,60.11421701,,,,,,,,,,,,1.2126,1,,,,,,,,,,,,,,,,,,,,,,,,-0.007407338,-0.407407421,0,0,0,,,,,,,STATUE,C,m,y,./images/STATUE.png,,,,,,,,,,,,,,,,,,,,m,1,1.2126,,,,,,,,0,157,157,66,1
,,,,,,,,,,,,,,,,,,27,2022-02-12_17h21.20.976,lexical_decision_task_DD_L4,2021.2.3,Win32,60.11421701,,,,,,,,,,,,0.8004,0,,,,,,,,,,,,,,,,,,,,,,,,-0.007407338,-0.407407421,0,0,0,,,,,,,BROOM,C,m,y,./images/BROOM.png,,,,,,,,,,,,,,,,,,,,z,0,0.8004,,,,,,,,0,158,158,78,1
,,,,,,,,,,,,,,,,,,27,2022-02-12_17h21.20.976,lexical_decision_task_DD_L4,2021.2.3,Win32,60.11421701,,,,,,,,,,,,0.9787,1,,,,,,,,,,,,,,,,,,,,,,,,-0.007407338,-0.407407421,0,0,0,,,,,,,TRIPOD,C,z,y,./images/TRIPOD.png,,,,,,,,,,,,,,,,,,,,z,1,0.9787,,,,,,,,0,159,159,138,1
,,,,,,,,,,,,,,,,,,27,2022-02-12_17h21.20.976,lexical_decision_task_DD_L4,2021.2.3,Win32,60.11421701,,,,,,,,,,,,0.6335,1,,,,,,,,,,,,,,,,,,,,,,,,-0.007407338,-0.407407421,0,0,0,,,,,,,MELON,HB,z,y,./images/MELONHB.png,,,,,,,,,,,,,,,,,,,,z,1,0.6335,,,,,,,,0,160,160,106,1
