key_resp.keys,instr_done_touch.x,instr_done_touch.y,instr_done_touch.leftButton,instr_done_touch.midButton,instr_done_touch.rightButton,instr_done_touch.clicked_name,instruction_pages.thisRepN,instruction_pages.thisTrialN,instruction_pages.thisN,instruction_pages.thisIndex,instruction_pages.ran,pageN,phase,instruct_text,has_image,instruct_image,participant,age,date,expName,psychopyVersion,OS,frameRate,key_resp.rt,response.keys,response.corr,response.rt,touch_resp.x,touch_resp.y,touch_resp.leftButton,touch_resp.midButton,touch_resp.rightButton,touch_resp.time,touch_resp.clicked_name,rt,corr,practrials.thisRepN,practrials.thisTrialN,practrials.thisN,practrials.thisIndex,practrials.ran,TrialID,Target,corrAns,end_of_practice_trials_pages.thisRepN,end_of_practice_trials_pages.thisTrialN,end_of_practice_trials_pages.thisN,end_of_practice_trials_pages.thisIndex,end_of_practice_trials_pages.ran,key_resp_2.keys,key_resp_2.corr,key_resp_2.rt,targ_click.x,targ_click.y,targ_click.leftButton,targ_click.midButton,targ_click.rightButton,targ_click.time,targ_click.clicked_name,break_done_touch.x,break_done_touch.y,break_done_touch.leftButton,break_done_touch.midButton,break_done_touch.rightButton,break_done_keyboard.keys,maintrials.thisRepN,maintrials.thisTrialN,maintrials.thisN,maintrials.thisIndex,maintrials.ran,string,blur,study,lex,stim_path,break_done_keyboard.rt,break_done_touch.clicked_name,mouse_2.x,mouse_2.y,mouse_2.leftButton,mouse_2.midButton,mouse_2.rightButton,mouse_2.clicked_name,slider.response,slider.rt,trials.thisRepN,trials.thisTrialN,trials.thisN,trials.thisIndex,trials.ran,test_instructions.thisRepN,test_instructions.thisTrialN,test_instructions.thisN,test_instructions.thisIndex,test_instructions.ran,key_resp_3.keys,key_resp_3.corr,key_resp_3.rt,test_click.x,test_click.y,test_click.leftButton,test_click.midButton,test_click.rightButton,test_click.time,test_click.clicked_name,test_phase.thisRepN,test_phase.thisTrialN,test_phase.thisN,test_phase.thisIndex,test_phase.ran
,-0.051928711,-0.397871094,1,0,0,instr_done_button,0,0,0,0,1,1,instructions,"INSTRUCTIONS
At the start of each trial, look at the plus sign  (+) in the center of the screen.  This tells you that a trial is about to begin and where to look. Second, the plus sign will disappear and a string of letters will appear. Your task is to determine if the string of letters is a word or not. If the item is a word press the M key (on keyboard)  or touch the word button (phone/tablet).  If the item is not a word,  press the  Z key (on keyboard)  or touch the nonword button (on phone/tablet). 
Press the space bar or touch  continue.",0,,,23,2022-02-12_12h52.56.710,lexical_decision_task_DD_L4,2021.2.3,MacIntel,59.97361161,,,,,,,,,,,,,,,,,,,,,,,,,,,,,,,,,,,,,,,,,,,,,,,,,,,,,,,,,,,,,,,,,,,,,,,,,,,,,,,,,,,,,,,
space,-0.051967773,-0.396044922,0,0,0,,0,1,1,1,1,2,instructions,"If your device has a keyboard, press the 'Z' key for nonwords and the 'M' key for words.





Press the space bar or touch the button below to continue.",0,keyboard-example.gif,,23,2022-02-12_12h52.56.710,lexical_decision_task_DD_L4,2021.2.3,MacIntel,59.97361161,2.5775,,,,,,,,,,,,,,,,,,,,,,,,,,,,,,,,,,,,,,,,,,,,,,,,,,,,,,,,,,,,,,,,,,,,,,,,,,,,,,,,,,,,,,
,0.012099609,-0.415380859,1,0,0,instr_done_button,0,2,2,2,1,3,instructions,"If you are using a touchscreen only device, use the buttons on the screen. Do not use the mouse.





Press the space bar or touch the button below to continue.",0,touchscreen-example.gif,,23,2022-02-12_12h52.56.710,lexical_decision_task_DD_L4,2021.2.3,MacIntel,59.97361161,,,,,,,,,,,,,,,,,,,,,,,,,,,,,,,,,,,,,,,,,,,,,,,,,,,,,,,,,,,,,,,,,,,,,,,,,,,,,,,,,,,,,,,
,0.012089844,-0.415405273,1,0,0,instr_done_button,0,3,3,3,1,4,instructions,"It is very important that you respond as quickly and accurately as possible, as each letter string will only be on the screen for two seconds. If you do not respond within this time, the message 'Too slow!' will be displayed and the experiment will progress to the next letter string. The first 20 trials will be practice trials and you will receive feedback on your answers. 

Press the space bar or touch the button below to start the practice trials.",0,,,23,2022-02-12_12h52.56.710,lexical_decision_task_DD_L4,2021.2.3,MacIntel,59.97361161,,,,,,,,,,,,,,,,,,,,,,,,,,,,,,,,,,,,,,,,,,,,,,,,,,,,,,,,,,,,,,,,,,,,,,,,,,,,,,,,,,,,,,,
,,,,,,,,,,,,,,,,,,23,2022-02-12_12h52.56.710,lexical_decision_task_DD_L4,2021.2.3,MacIntel,59.97361161,,m,1,1.2012,,,,,,,,1.2012,1,0,0,0,6,1,1001,ZOMBIE,m,,,,,,,,,,,,,,,,,,,,,,,,,,,,,,,,,,,,,,,,,,,,,,,,,,,,,,,,,,,,,,,,,,
,,,,,,,,,,,,,,,,,,23,2022-02-12_12h52.56.710,lexical_decision_task_DD_L4,2021.2.3,MacIntel,59.97361161,,m,1,0.6789,,,,,,,,0.6789,1,0,1,1,7,1,1001,VOLUME,m,,,,,,,,,,,,,,,,,,,,,,,,,,,,,,,,,,,,,,,,,,,,,,,,,,,,,,,,,,,,,,,,,,
,,,,,,,,,,,,,,,,,,23,2022-02-12_12h52.56.710,lexical_decision_task_DD_L4,2021.2.3,MacIntel,59.97361161,,m,1,0.598,,,,,,,,0.598,1,0,2,2,2,1,1001,ALMOND,m,,,,,,,,,,,,,,,,,,,,,,,,,,,,,,,,,,,,,,,,,,,,,,,,,,,,,,,,,,,,,,,,,,
,,,,,,,,,,,,,,,,,,23,2022-02-12_12h52.56.710,lexical_decision_task_DD_L4,2021.2.3,MacIntel,59.97361161,,z,1,1.3805,,,,,,,,1.3805,1,0,3,3,11,1,1001,RASHET,z,,,,,,,,,,,,,,,,,,,,,,,,,,,,,,,,,,,,,,,,,,,,,,,,,,,,,,,,,,,,,,,,,,
,,,,,,,,,,,,,,,,,,23,2022-02-12_12h52.56.710,lexical_decision_task_DD_L4,2021.2.3,MacIntel,59.97361161,,z,1,1.6106,,,,,,,,1.6106,1,0,4,4,14,1,1001,THRALE,z,,,,,,,,,,,,,,,,,,,,,,,,,,,,,,,,,,,,,,,,,,,,,,,,,,,,,,,,,,,,,,,,,,
,,,,,,,,,,,,,,,,,,23,2022-02-12_12h52.56.710,lexical_decision_task_DD_L4,2021.2.3,MacIntel,59.97361161,,z,1,0.6177,,,,,,,,0.6177,1,0,5,5,13,1,1001,ROUPET,z,,,,,,,,,,,,,,,,,,,,,,,,,,,,,,,,,,,,,,,,,,,,,,,,,,,,,,,,,,,,,,,,,,
,,,,,,,,,,,,,,,,,,23,2022-02-12_12h52.56.710,lexical_decision_task_DD_L4,2021.2.3,MacIntel,59.97361161,,z,1,0.5477,,,,,,,,0.5477,1,0,6,6,15,1,1001,WHAISE,z,,,,,,,,,,,,,,,,,,,,,,,,,,,,,,,,,,,,,,,,,,,,,,,,,,,,,,,,,,,,,,,,,,
,,,,,,,,,,,,,,,,,,23,2022-02-12_12h52.56.710,lexical_decision_task_DD_L4,2021.2.3,MacIntel,59.97361161,,z,1,0.5821,,,,,,,,0.5821,1,0,7,7,8,1,1001,ASLERT,z,,,,,,,,,,,,,,,,,,,,,,,,,,,,,,,,,,,,,,,,,,,,,,,,,,,,,,,,,,,,,,,,,,
,,,,,,,,,,,,,,,,,,23,2022-02-12_12h52.56.710,lexical_decision_task_DD_L4,2021.2.3,MacIntel,59.97361161,,z,1,0.7971,,,,,,,,0.7971,1,0,8,8,12,1,1001,SPRINY,z,,,,,,,,,,,,,,,,,,,,,,,,,,,,,,,,,,,,,,,,,,,,,,,,,,,,,,,,,,,,,,,,,,
,,,,,,,,,,,,,,,,,,23,2022-02-12_12h52.56.710,lexical_decision_task_DD_L4,2021.2.3,MacIntel,59.97361161,,m,1,0.6192,,,,,,,,0.6192,1,0,9,9,5,1,1001,OBTAIN,m,,,,,,,,,,,,,,,,,,,,,,,,,,,,,,,,,,,,,,,,,,,,,,,,,,,,,,,,,,,,,,,,,,
,,,,,,,,,,,,,,,,,,23,2022-02-12_12h52.56.710,lexical_decision_task_DD_L4,2021.2.3,MacIntel,59.97361161,,m,1,0.6262,,,,,,,,0.6262,1,0,10,10,3,1,1001,MATRIX,m,,,,,,,,,,,,,,,,,,,,,,,,,,,,,,,,,,,,,,,,,,,,,,,,,,,,,,,,,,,,,,,,,,
,,,,,,,,,,,,,,,,,,23,2022-02-12_12h52.56.710,lexical_decision_task_DD_L4,2021.2.3,MacIntel,59.97361161,,z,1,0.7364,,,,,,,,0.7364,1,0,11,11,10,1,1001,INLADE,z,,,,,,,,,,,,,,,,,,,,,,,,,,,,,,,,,,,,,,,,,,,,,,,,,,,,,,,,,,,,,,,,,,
,,,,,,,,,,,,,,,,,,23,2022-02-12_12h52.56.710,lexical_decision_task_DD_L4,2021.2.3,MacIntel,59.97361161,,m,1,0.5472,,,,,,,,0.5472,1,0,12,12,4,1,1001,SQUEAK,m,,,,,,,,,,,,,,,,,,,,,,,,,,,,,,,,,,,,,,,,,,,,,,,,,,,,,,,,,,,,,,,,,,
,,,,,,,,,,,,,,,,,,23,2022-02-12_12h52.56.710,lexical_decision_task_DD_L4,2021.2.3,MacIntel,59.97361161,,m,1,0.7119,,,,,,,,0.7119,1,0,13,13,0,1,1001,UTOPIA,m,,,,,,,,,,,,,,,,,,,,,,,,,,,,,,,,,,,,,,,,,,,,,,,,,,,,,,,,,,,,,,,,,,
,,,,,,,,,,,,,,,,,,23,2022-02-12_12h52.56.710,lexical_decision_task_DD_L4,2021.2.3,MacIntel,59.97361161,,m,1,0.7467,,,,,,,,0.7467,1,0,14,14,1,1,1001,ADJUST,m,,,,,,,,,,,,,,,,,,,,,,,,,,,,,,,,,,,,,,,,,,,,,,,,,,,,,,,,,,,,,,,,,,
,,,,,,,,,,,,,,,,,,23,2022-02-12_12h52.56.710,lexical_decision_task_DD_L4,2021.2.3,MacIntel,59.97361161,,z,1,0.6659,,,,,,,,0.6659,1,0,15,15,9,1,1001,FARINY,z,,,,,,,,,,,,,,,,,,,,,,,,,,,,,,,,,,,,,,,,,,,,,,,,,,,,,,,,,,,,,,,,,,
space,0.012089844,-0.415405273,0,0,0,,,,,,,1,end_of_practice,"You have completed the practice trials. During the experimental trials, you will not receive feedback. 
Before you begin, please ensure that you are in a comfortable and quiet location and will not be disturbed for about 15 minutes, as we cannot use your data if you do not complete all the trials. 
 When you are ready to start the experimental trials, please press space or touch the button below.",,,,23,2022-02-12_12h52.56.710,lexical_decision_task_DD_L4,2021.2.3,MacIntel,59.97361161,278.2972,,,,,,,,,,,,,,,,,,,,,0,0,0,0,1,,,,,,,,,,,,,,,,,,,,,,,,,,,,,,,,,,,,,,,,,,,,,,,,,,,,,,,,,,,,,
,,,,,,,,,,,,,,,,,,23,2022-02-12_12h52.56.710,lexical_decision_task_DD_L4,2021.2.3,MacIntel,59.97361161,,,,,,,,,,,,1.6664,1,,,,,,,,,,,,,,m,1,1.6664,,,,,,,,0.012089844,-0.415405273,0,0,0,,0,0,0,3,1,CRATER,C,old,m,./images/CRATER.png,,,,,,,,,,,,,,,,,,,,,,,,,,,,,,,,,,,
,,,,,,,,,,,,,,,,,,23,2022-02-12_12h52.56.710,lexical_decision_task_DD_L4,2021.2.3,MacIntel,59.97361161,,,,,,,,,,,,2.7451,1,,,,,,,,,,,,,,z,1,2.7451,,,,,,,,0.012089844,-0.415405273,0,0,0,,0,1,1,133,1,POWDY,HB,old,z,./images/POWDYHB.png,,,,,,,,,,,,,,,,,,,,,,,,,,,,,,,,,,,
,,,,,,,,,,,,,,,,,,23,2022-02-12_12h52.56.710,lexical_decision_task_DD_L4,2021.2.3,MacIntel,59.97361161,,,,,,,,,,,,1.695,1,,,,,,,,,,,,,,m,1,1.695,,,,,,,,0.012089844,-0.415405273,0,0,0,,0,2,2,66,1,STATUE,C,old,m,./images/STATUE.png,,,,,,,,,,,,,,,,,,,,,,,,,,,,,,,,,,,
,,,,,,,,,,,,,,,,,,23,2022-02-12_12h52.56.710,lexical_decision_task_DD_L4,2021.2.3,MacIntel,59.97361161,,,,,,,,,,,,1.1349,1,,,,,,,,,,,,,,z,1,1.1349,,,,,,,,0.012089844,-0.415405273,0,0,0,,0,3,3,129,1,PRANS,C,old,z,./images/PRANS.png,,,,,,,,,,,,,,,,,,,,,,,,,,,,,,,,,,,
,,,,,,,,,,,,,,,,,,23,2022-02-12_12h52.56.710,lexical_decision_task_DD_L4,2021.2.3,MacIntel,59.97361161,,,,,,,,,,,,0.7784,1,,,,,,,,,,,,,,m,1,0.7784,,,,,,,,0.012089844,-0.415405273,0,0,0,,0,4,4,26,1,CLOUD,LB,old,m,./images/CLOUDLB.png,,,,,,,,,,,,,,,,,,,,,,,,,,,,,,,,,,,
,,,,,,,,,,,,,,,,,,23,2022-02-12_12h52.56.710,lexical_decision_task_DD_L4,2021.2.3,MacIntel,59.97361161,,,,,,,,,,,,1.1946,1,,,,,,,,,,,,,,z,1,1.1946,,,,,,,,0.012089844,-0.415405273,0,0,0,,0,5,5,143,1,MONGS,LB,old,z,./images/MONGSLB.png,,,,,,,,,,,,,,,,,,,,,,,,,,,,,,,,,,,
,,,,,,,,,,,,,,,,,,23,2022-02-12_12h52.56.710,lexical_decision_task_DD_L4,2021.2.3,MacIntel,59.97361161,,,,,,,,,,,,0.6448,1,,,,,,,,,,,,,,z,1,0.6448,,,,,,,,0.012089844,-0.415405273,0,0,0,,0,6,6,113,1,LINEW,LB,old,z,./images/LINEWLB.png,,,,,,,,,,,,,,,,,,,,,,,,,,,,,,,,,,,
,,,,,,,,,,,,,,,,,,23,2022-02-12_12h52.56.710,lexical_decision_task_DD_L4,2021.2.3,MacIntel,59.97361161,,,,,,,,,,,,0.679,0,,,,,,,,,,,,,,m,0,0.679,,,,,,,,0.012089844,-0.415405273,0,0,0,,0,7,7,102,1,DULLE,C,old,z,./images/DULLE.png,,,,,,,,,,,,,,,,,,,,,,,,,,,,,,,,,,,
,,,,,,,,,,,,,,,,,,23,2022-02-12_12h52.56.710,lexical_decision_task_DD_L4,2021.2.3,MacIntel,59.97361161,,,,,,,,,,,,0.9612,1,,,,,,,,,,,,,,z,1,0.9612,,,,,,,,0.012089844,-0.415405273,0,0,0,,0,8,8,148,1,JOMS,HB,old,z,./images/JOMSHB.png,,,,,,,,,,,,,,,,,,,,,,,,,,,,,,,,,,,
,,,,,,,,,,,,,,,,,,23,2022-02-12_12h52.56.710,lexical_decision_task_DD_L4,2021.2.3,MacIntel,59.97361161,,,,,,,,,,,,0.6916,1,,,,,,,,,,,,,,z,1,0.6916,,,,,,,,0.012089844,-0.415405273,0,0,0,,0,9,9,105,1,MOKER,C,old,z,./images/MOKER.png,,,,,,,,,,,,,,,,,,,,,,,,,,,,,,,,,,,
,,,,,,,,,,,,,,,,,,23,2022-02-12_12h52.56.710,lexical_decision_task_DD_L4,2021.2.3,MacIntel,59.97361161,,,,,,,,,,,,1.1735,1,,,,,,,,,,,,,,z,1,1.1735,,,,,,,,0.012089844,-0.415405273,0,0,0,,0,10,10,96,1,KEAMS,C,old,z,./images/KEAMS.png,,,,,,,,,,,,,,,,,,,,,,,,,,,,,,,,,,,
,,,,,,,,,,,,,,,,,,23,2022-02-12_12h52.56.710,lexical_decision_task_DD_L4,2021.2.3,MacIntel,59.97361161,,,,,,,,,,,,0.7126,1,,,,,,,,,,,,,,m,1,0.7126,,,,,,,,0.012089844,-0.415405273,0,0,0,,0,11,11,10,1,GARDEN,HB,old,m,./images/GARDENHB.png,,,,,,,,,,,,,,,,,,,,,,,,,,,,,,,,,,,
,,,,,,,,,,,,,,,,,,23,2022-02-12_12h52.56.710,lexical_decision_task_DD_L4,2021.2.3,MacIntel,59.97361161,,,,,,,,,,,,0.4793,1,,,,,,,,,,,,,,m,1,0.4793,,,,,,,,0.012089844,-0.415405273,0,0,0,,0,12,12,41,1,STREAM,LB,old,m,./images/STREAMLB.png,,,,,,,,,,,,,,,,,,,,,,,,,,,,,,,,,,,
,,,,,,,,,,,,,,,,,,23,2022-02-12_12h52.56.710,lexical_decision_task_DD_L4,2021.2.3,MacIntel,59.97361161,,,,,,,,,,,,0.613,1,,,,,,,,,,,,,,m,1,0.613,,,,,,,,0.012089844,-0.415405273,0,0,0,,0,13,13,61,1,ARTIST,HB,old,m,./images/ARTISTHB.png,,,,,,,,,,,,,,,,,,,,,,,,,,,,,,,,,,,
,,,,,,,,,,,,,,,,,,23,2022-02-12_12h52.56.710,lexical_decision_task_DD_L4,2021.2.3,MacIntel,59.97361161,,,,,,,,,,,,0.6949,1,,,,,,,,,,,,,,m,1,0.6949,,,,,,,,0.012089844,-0.415405273,0,0,0,,0,14,14,43,1,STOOL,HB,old,m,./images/STOOLHB.png,,,,,,,,,,,,,,,,,,,,,,,,,,,,,,,,,,,
,,,,,,,,,,,,,,,,,,23,2022-02-12_12h52.56.710,lexical_decision_task_DD_L4,2021.2.3,MacIntel,59.97361161,,,,,,,,,,,,0.6753,1,,,,,,,,,,,,,,z,1,0.6753,,,,,,,,0.012089844,-0.415405273,0,0,0,,0,15,15,162,1,LEICH,C,old,z,./images/LEICH.png,,,,,,,,,,,,,,,,,,,,,,,,,,,,,,,,,,,
,,,,,,,,,,,,,,,,,,23,2022-02-12_12h52.56.710,lexical_decision_task_DD_L4,2021.2.3,MacIntel,59.97361161,,,,,,,,,,,,0.5471,1,,,,,,,,,,,,,,z,1,0.5471,,,,,,,,0.012089844,-0.415405273,0,0,0,,0,16,16,167,1,ZONET,LB,old,z,./images/ZONETLB.png,,,,,,,,,,,,,,,,,,,,,,,,,,,,,,,,,,,
,,,,,,,,,,,,,,,,,,23,2022-02-12_12h52.56.710,lexical_decision_task_DD_L4,2021.2.3,MacIntel,59.97361161,,,,,,,,,,,,0.664,1,,,,,,,,,,,,,,m,1,0.664,,,,,,,,0.012089844,-0.415405273,0,0,0,,0,17,17,56,1,HEATER,LB,old,m,./images/HEATERLB.png,,,,,,,,,,,,,,,,,,,,,,,,,,,,,,,,,,,
,,,,,,,,,,,,,,,,,,23,2022-02-12_12h52.56.710,lexical_decision_task_DD_L4,2021.2.3,MacIntel,59.97361161,,,,,,,,,,,,0.6128,1,,,,,,,,,,,,,,m,1,0.6128,,,,,,,,0.012089844,-0.415405273,0,0,0,,0,18,18,31,1,STEAK,HB,old,m,./images/STEAKHB.png,,,,,,,,,,,,,,,,,,,,,,,,,,,,,,,,,,,
,,,,,,,,,,,,,,,,,,23,2022-02-12_12h52.56.710,lexical_decision_task_DD_L4,2021.2.3,MacIntel,59.97361161,,,,,,,,,,,,0.8142,1,,,,,,,,,,,,,,m,1,0.8142,,,,,,,,0.012089844,-0.415405273,0,0,0,,0,19,19,28,1,CASINO,HB,old,m,./images/CASINOHB.png,,,,,,,,,,,,,,,,,,,,,,,,,,,,,,,,,,,
,,,,,,,,,,,,,,,,,,23,2022-02-12_12h52.56.710,lexical_decision_task_DD_L4,2021.2.3,MacIntel,59.97361161,,,,,,,,,,,,0.6306,1,,,,,,,,,,,,,,z,1,0.6306,,,,,,,,0.012089844,-0.415405273,0,0,0,,0,20,20,131,1,NACES,LB,old,z,./images/NACESLB.png,,,,,,,,,,,,,,,,,,,,,,,,,,,,,,,,,,,
,,,,,,,,,,,,,,,,,,23,2022-02-12_12h52.56.710,lexical_decision_task_DD_L4,2021.2.3,MacIntel,59.97361161,,,,,,,,,,,,0.5592,1,,,,,,,,,,,,,,m,1,0.5592,,,,,,,,0.012089844,-0.415405273,0,0,0,,0,21,21,80,1,PLANET,LB,old,m,./images/PLANETLB.png,,,,,,,,,,,,,,,,,,,,,,,,,,,,,,,,,,,
,,,,,,,,,,,,,,,,,,23,2022-02-12_12h52.56.710,lexical_decision_task_DD_L4,2021.2.3,MacIntel,59.97361161,,,,,,,,,,,,0.6599,1,,,,,,,,,,,,,,z,1,0.6599,,,,,,,,0.012089844,-0.415405273,0,0,0,,0,22,22,84,1,HAXES,C,old,z,./images/HAXES.png,,,,,,,,,,,,,,,,,,,,,,,,,,,,,,,,,,,
,,,,,,,,,,,,,,,,,,23,2022-02-12_12h52.56.710,lexical_decision_task_DD_L4,2021.2.3,MacIntel,59.97361161,,,,,,,,,,,,0.6471,1,,,,,,,,,,,,,,m,1,0.6471,,,,,,,,0.012089844,-0.415405273,0,0,0,,0,23,23,76,1,MIDGET,HB,old,m,./images/MIDGETHB.png,,,,,,,,,,,,,,,,,,,,,,,,,,,,,,,,,,,
,,,,,,,,,,,,,,,,,,23,2022-02-12_12h52.56.710,lexical_decision_task_DD_L4,2021.2.3,MacIntel,59.97361161,,,,,,,,,,,,0.563,1,,,,,,,,,,,,,,m,1,0.563,,,,,,,,0.012089844,-0.415405273,0,0,0,,0,24,24,54,1,CHERRY,C,old,m,./images/CHERRY.png,,,,,,,,,,,,,,,,,,,,,,,,,,,,,,,,,,,
,,,,,,,,,,,,,,,,,,23,2022-02-12_12h52.56.710,lexical_decision_task_DD_L4,2021.2.3,MacIntel,59.97361161,,,,,,,,,,,,0.8138,1,,,,,,,,,,,,,,z,1,0.8138,,,,,,,,0.012089844,-0.415405273,0,0,0,,0,25,25,130,1,CRILL,HB,old,z,./images/CRILLHB.png,,,,,,,,,,,,,,,,,,,,,,,,,,,,,,,,,,,
,,,,,,,,,,,,,,,,,,23,2022-02-12_12h52.56.710,lexical_decision_task_DD_L4,2021.2.3,MacIntel,59.97361161,,,,,,,,,,,,0.6928,1,,,,,,,,,,,,,,z,1,0.6928,,,,,,,,0.012089844,-0.415405273,0,0,0,,0,26,26,120,1,RINED,C,old,z,./images/RINED.png,,,,,,,,,,,,,,,,,,,,,,,,,,,,,,,,,,,
,,,,,,,,,,,,,,,,,,23,2022-02-12_12h52.56.710,lexical_decision_task_DD_L4,2021.2.3,MacIntel,59.97361161,,,,,,,,,,,,0.7633,1,,,,,,,,,,,,,,z,1,0.7633,,,,,,,,0.012089844,-0.415405273,0,0,0,,0,27,27,154,1,THINT,HB,old,z,./images/THINTHB.png,,,,,,,,,,,,,,,,,,,,,,,,,,,,,,,,,,,
,,,,,,,,,,,,,,,,,,23,2022-02-12_12h52.56.710,lexical_decision_task_DD_L4,2021.2.3,MacIntel,59.97361161,,,,,,,,,,,,0.6796,1,,,,,,,,,,,,,,z,1,0.6796,,,,,,,,0.012089844,-0.415405273,0,0,0,,0,28,28,93,1,SMONE,C,old,z,./images/SMONE.png,,,,,,,,,,,,,,,,,,,,,,,,,,,,,,,,,,,
,,,,,,,,,,,,,,,,,,23,2022-02-12_12h52.56.710,lexical_decision_task_DD_L4,2021.2.3,MacIntel,59.97361161,,,,,,,,,,,,0.593,1,,,,,,,,,,,,,,m,1,0.593,,,,,,,,0.012089844,-0.415405273,0,0,0,,0,29,29,48,1,SHIELD,C,old,m,./images/SHIELD.png,,,,,,,,,,,,,,,,,,,,,,,,,,,,,,,,,,,
,,,,,,,,,,,,,,,,,,23,2022-02-12_12h52.56.710,lexical_decision_task_DD_L4,2021.2.3,MacIntel,59.97361161,,,,,,,,,,,,0.5153,1,,,,,,,,,,,,,,z,1,0.5153,,,,,,,,0.012089844,-0.415405273,0,0,0,,0,30,30,134,1,TROSS,LB,old,z,./images/TROSSLB.png,,,,,,,,,,,,,,,,,,,,,,,,,,,,,,,,,,,
,,,,,,,,,,,,,,,,,,23,2022-02-12_12h52.56.710,lexical_decision_task_DD_L4,2021.2.3,MacIntel,59.97361161,,,,,,,,,,,,0.4913,0,,,,,,,,,,,,,,z,0,0.4913,,,,,,,,0.012089844,-0.415405273,0,0,0,,0,31,31,18,1,PARCEL,C,old,m,./images/PARCEL.png,,,,,,,,,,,,,,,,,,,,,,,,,,,,,,,,,,,
,,,,,,,,,,,,,,,,,,23,2022-02-12_12h52.56.710,lexical_decision_task_DD_L4,2021.2.3,MacIntel,59.97361161,,,,,,,,,,,,0.6434,1,,,,,,,,,,,,,,m,1,0.6434,,,,,,,,0.012089844,-0.415405273,0,0,0,,0,32,32,73,1,GLOVE,HB,old,m,./images/GLOVEHB.png,,,,,,,,,,,,,,,,,,,,,,,,,,,,,,,,,,,
,,,,,,,,,,,,,,,,,,23,2022-02-12_12h52.56.710,lexical_decision_task_DD_L4,2021.2.3,MacIntel,59.97361161,,,,,,,,,,,,0.5269,1,,,,,,,,,,,,,,m,1,0.5269,,,,,,,,0.012089844,-0.415405273,0,0,0,,0,33,33,78,1,BROOM,C,old,m,./images/BROOM.png,,,,,,,,,,,,,,,,,,,,,,,,,,,,,,,,,,,
,,,,,,,,,,,,,,,,,,23,2022-02-12_12h52.56.710,lexical_decision_task_DD_L4,2021.2.3,MacIntel,59.97361161,,,,,,,,,,,,0.6268,1,,,,,,,,,,,,,,z,1,0.6268,,,,,,,,0.012089844,-0.415405273,0,0,0,,0,34,34,101,1,GLEET,LB,old,z,./images/GLEETLB.png,,,,,,,,,,,,,,,,,,,,,,,,,,,,,,,,,,,
,,,,,,,,,,,,,,,,,,23,2022-02-12_12h52.56.710,lexical_decision_task_DD_L4,2021.2.3,MacIntel,59.97361161,,,,,,,,,,,,0.5777,1,,,,,,,,,,,,,,z,1,0.5777,,,,,,,,0.012089844,-0.415405273,0,0,0,,0,35,35,112,1,MYING,HB,old,z,./images/MYINGHB.png,,,,,,,,,,,,,,,,,,,,,,,,,,,,,,,,,,,
,,,,,,,,,,,,,,,,,,23,2022-02-12_12h52.56.710,lexical_decision_task_DD_L4,2021.2.3,MacIntel,59.97361161,,,,,,,,,,,,1.0358,0,,,,,,,,,,,,,,z,0,1.0358,,,,,,,,0.012089844,-0.415405273,0,0,0,,0,36,36,82,1,PEBBLE,HB,old,m,./images/PEBBLEHB.png,,,,,,,,,,,,,,,,,,,,,,,,,,,,,,,,,,,
,,,,,,,,,,,,,,,,,,23,2022-02-12_12h52.56.710,lexical_decision_task_DD_L4,2021.2.3,MacIntel,59.97361161,,,,,,,,,,,,0.5124,1,,,,,,,,,,,,,,m,1,0.5124,,,,,,,,0.012089844,-0.415405273,0,0,0,,0,37,37,81,1,DRILL,C,old,m,./images/DRILL.png,,,,,,,,,,,,,,,,,,,,,,,,,,,,,,,,,,,
,,,,,,,,,,,,,,,,,,23,2022-02-12_12h52.56.710,lexical_decision_task_DD_L4,2021.2.3,MacIntel,59.97361161,,,,,,,,,,,,0.576,1,,,,,,,,,,,,,,z,1,0.576,,,,,,,,0.012089844,-0.415405273,0,0,0,,0,38,38,117,1,STEEG,C,old,z,./images/STEEG.png,,,,,,,,,,,,,,,,,,,,,,,,,,,,,,,,,,,
,,,,,,,,,,,,,,,,,,23,2022-02-12_12h52.56.710,lexical_decision_task_DD_L4,2021.2.3,MacIntel,59.97361161,,,,,,,,,,,,0.7986,1,,,,,,,,,,,,,,z,1,0.7986,,,,,,,,0.012089844,-0.415405273,0,0,0,,0,39,39,145,1,LAMEL,HB,old,z,./images/LAMELHB.png,,,,,,,,,,,,,,,,,,,,,,,,,,,,,,,,,,,
,,,,,,,,,,,,,,,,,,23,2022-02-12_12h52.56.710,lexical_decision_task_DD_L4,2021.2.3,MacIntel,59.97361161,,,,,,,,,,,,0.6642,1,,,,,,,,,,,,,,m,1,0.6642,,,,,,,,0.012089844,-0.415405273,0,0,0,,0,40,40,62,1,MAMMAL,LB,old,m,./images/MAMMALLB.png,,,,,,,,,,,,,,,,,,,,,,,,,,,,,,,,,,,
,,,,,,,,,,,,,,,,,,23,2022-02-12_12h52.56.710,lexical_decision_task_DD_L4,2021.2.3,MacIntel,59.97361161,,,,,,,,,,,,0.7467,1,,,,,,,,,,,,,,m,1,0.7467,,,,,,,,0.012089844,-0.415405273,0,0,0,space,0,41,41,13,1,BUNNY,HB,old,m,./images/BUNNYHB.png,35.5257,,,,,,,,,,,,,,,,,,,,,,,,,,,,,,,,,,
,,,,,,,,,,,,,,,,,,23,2022-02-12_12h52.56.710,lexical_decision_task_DD_L4,2021.2.3,MacIntel,59.97361161,,,,,,,,,,,,1.079,1,,,,,,,,,,,,,,z,1,1.079,,,,,,,,0.012089844,-0.415405273,0,0,0,,0,42,42,142,1,PLASK,HB,old,z,./images/PLASKHB.png,,,,,,,,,,,,,,,,,,,,,,,,,,,,,,,,,,,
,,,,,,,,,,,,,,,,,,23,2022-02-12_12h52.56.710,lexical_decision_task_DD_L4,2021.2.3,MacIntel,59.97361161,,,,,,,,,,,,0.6299,1,,,,,,,,,,,,,,m,1,0.6299,,,,,,,,0.012089844,-0.415405273,0,0,0,,0,43,43,53,1,POSTER,LB,old,m,./images/POSTERLB.png,,,,,,,,,,,,,,,,,,,,,,,,,,,,,,,,,,,
,,,,,,,,,,,,,,,,,,23,2022-02-12_12h52.56.710,lexical_decision_task_DD_L4,2021.2.3,MacIntel,59.97361161,,,,,,,,,,,,0.5277,1,,,,,,,,,,,,,,m,1,0.5277,,,,,,,,0.012089844,-0.415405273,0,0,0,,0,44,44,21,1,DANCER,C,old,m,./images/DANCER.png,,,,,,,,,,,,,,,,,,,,,,,,,,,,,,,,,,,
,,,,,,,,,,,,,,,,,,23,2022-02-12_12h52.56.710,lexical_decision_task_DD_L4,2021.2.3,MacIntel,59.97361161,,,,,,,,,,,,1.1796,1,,,,,,,,,,,,,,z,1,1.1796,,,,,,,,0.012089844,-0.415405273,0,0,0,,0,45,45,128,1,GRIFT,LB,old,z,./images/GRIFTLB.png,,,,,,,,,,,,,,,,,,,,,,,,,,,,,,,,,,,
,,,,,,,,,,,,,,,,,,23,2022-02-12_12h52.56.710,lexical_decision_task_DD_L4,2021.2.3,MacIntel,59.97361161,,,,,,,,,,,,0.7453,1,,,,,,,,,,,,,,z,1,0.7453,,,,,,,,0.012089844,-0.415405273,0,0,0,,0,46,46,99,1,BACKY,C,old,z,./images/BACKY.png,,,,,,,,,,,,,,,,,,,,,,,,,,,,,,,,,,,
,,,,,,,,,,,,,,,,,,23,2022-02-12_12h52.56.710,lexical_decision_task_DD_L4,2021.2.3,MacIntel,59.97361161,,,,,,,,,,,,0.6278,1,,,,,,,,,,,,,,m,1,0.6278,,,,,,,,0.012089844,-0.415405273,0,0,0,,0,47,47,24,1,FLESH,C,old,m,./images/FLESH.png,,,,,,,,,,,,,,,,,,,,,,,,,,,,,,,,,,,
,,,,,,,,,,,,,,,,,,23,2022-02-12_12h52.56.710,lexical_decision_task_DD_L4,2021.2.3,MacIntel,59.97361161,,,,,,,,,,,,0.595,1,,,,,,,,,,,,,,m,1,0.595,,,,,,,,0.012089844,-0.415405273,0,0,0,,0,48,48,32,1,HOCKEY,LB,old,m,./images/HOCKEYLB.png,,,,,,,,,,,,,,,,,,,,,,,,,,,,,,,,,,,
,,,,,,,,,,,,,,,,,,23,2022-02-12_12h52.56.710,lexical_decision_task_DD_L4,2021.2.3,MacIntel,59.97361161,,,,,,,,,,,,1.0656,1,,,,,,,,,,,,,,z,1,1.0656,,,,,,,,0.012089844,-0.415405273,0,0,0,,0,49,49,97,1,CHIDS,HB,old,z,./images/CHIDSHB.png,,,,,,,,,,,,,,,,,,,,,,,,,,,,,,,,,,,
,,,,,,,,,,,,,,,,,,23,2022-02-12_12h52.56.710,lexical_decision_task_DD_L4,2021.2.3,MacIntel,59.97361161,,,,,,,,,,,,0.7298,1,,,,,,,,,,,,,,z,1,0.7298,,,,,,,,0.012089844,-0.415405273,0,0,0,,0,50,50,157,1,INLER,HB,old,z,./images/INLERHB.png,,,,,,,,,,,,,,,,,,,,,,,,,,,,,,,,,,,
,,,,,,,,,,,,,,,,,,23,2022-02-12_12h52.56.710,lexical_decision_task_DD_L4,2021.2.3,MacIntel,59.97361161,,,,,,,,,,,,3.4447,1,,,,,,,,,,,,,,z,1,3.4447,,,,,,,,0.012089844,-0.415405273,0,0,0,,0,51,51,125,1,MOOKY,LB,old,z,./images/MOOKYLB.png,,,,,,,,,,,,,,,,,,,,,,,,,,,,,,,,,,,
,,,,,,,,,,,,,,,,,,23,2022-02-12_12h52.56.710,lexical_decision_task_DD_L4,2021.2.3,MacIntel,59.97361161,,,,,,,,,,,,1.9798,1,,,,,,,,,,,,,,m,1,1.9798,,,,,,,,0.012089844,-0.415405273,0,0,0,,0,52,52,20,1,GRANNY,LB,old,m,./images/GRANNYLB.png,,,,,,,,,,,,,,,,,,,,,,,,,,,,,,,,,,,
,,,,,,,,,,,,,,,,,,23,2022-02-12_12h52.56.710,lexical_decision_task_DD_L4,2021.2.3,MacIntel,59.97361161,,,,,,,,,,,,0.6125,1,,,,,,,,,,,,,,z,1,0.6125,,,,,,,,0.012089844,-0.415405273,0,0,0,,0,53,53,92,1,PAIMS,LB,old,z,./images/PAIMSLB.png,,,,,,,,,,,,,,,,,,,,,,,,,,,,,,,,,,,
,,,,,,,,,,,,,,,,,,23,2022-02-12_12h52.56.710,lexical_decision_task_DD_L4,2021.2.3,MacIntel,59.97361161,,,,,,,,,,,,1.7947,1,,,,,,,,,,,,,,m,1,1.7947,,,,,,,,0.012089844,-0.415405273,0,0,0,,0,54,54,51,1,SAUCE,C,old,m,./images/SAUCE.png,,,,,,,,,,,,,,,,,,,,,,,,,,,,,,,,,,,
,,,,,,,,,,,,,,,,,,23,2022-02-12_12h52.56.710,lexical_decision_task_DD_L4,2021.2.3,MacIntel,59.97361161,,,,,,,,,,,,1.6954,1,,,,,,,,,,,,,,z,1,1.6954,,,,,,,,0.012089844,-0.415405273,0,0,0,,0,55,55,127,1,NINDY,HB,old,z,./images/NINDYHB.png,,,,,,,,,,,,,,,,,,,,,,,,,,,,,,,,,,,
,,,,,,,,,,,,,,,,,,23,2022-02-12_12h52.56.710,lexical_decision_task_DD_L4,2021.2.3,MacIntel,59.97361161,,,,,,,,,,,,1.0291,1,,,,,,,,,,,,,,m,1,1.0291,,,,,,,,0.012089844,-0.415405273,0,0,0,,0,56,56,50,1,PILOT,LB,old,m,./images/PILOTLB.png,,,,,,,,,,,,,,,,,,,,,,,,,,,,,,,,,,,
,,,,,,,,,,,,,,,,,,23,2022-02-12_12h52.56.710,lexical_decision_task_DD_L4,2021.2.3,MacIntel,59.97361161,,,,,,,,,,,,3.3775,1,,,,,,,,,,,,,,m,1,3.3775,,,,,,,,0.012089844,-0.415405273,0,0,0,,0,57,57,23,1,CLOTH,LB,old,m,./images/CLOTHLB.png,,,,,,,,,,,,,,,,,,,,,,,,,,,,,,,,,,,
,,,,,,,,,,,,,,,,,,23,2022-02-12_12h52.56.710,lexical_decision_task_DD_L4,2021.2.3,MacIntel,59.97361161,,,,,,,,,,,,0.7091,1,,,,,,,,,,,,,,m,1,0.7091,,,,,,,,0.012089844,-0.415405273,0,0,0,,0,58,58,35,1,LLAMA,LB,old,m,./images/LLAMALB.png,,,,,,,,,,,,,,,,,,,,,,,,,,,,,,,,,,,
,,,,,,,,,,,,,,,,,,23,2022-02-12_12h52.56.710,lexical_decision_task_DD_L4,2021.2.3,MacIntel,59.97361161,,,,,,,,,,,,1.4496,1,,,,,,,,,,,,,,m,1,1.4496,,,,,,,,0.012089844,-0.415405273,0,0,0,,0,59,59,5,1,BAMBOO,LB,old,m,./images/BAMBOOLB.png,,,,,,,,,,,,,,,,,,,,,,,,,,,,,,,,,,,
,,,,,,,,,,,,,,,,,,23,2022-02-12_12h52.56.710,lexical_decision_task_DD_L4,2021.2.3,MacIntel,59.97361161,,,,,,,,,,,,0.7459,1,,,,,,,,,,,,,,m,1,0.7459,,,,,,,,0.012089844,-0.415405273,0,0,0,,0,60,60,83,1,WHISKY,LB,old,m,./images/WHISKYLB.png,,,,,,,,,,,,,,,,,,,,,,,,,,,,,,,,,,,
,,,,,,,,,,,,,,,,,,23,2022-02-12_12h52.56.710,lexical_decision_task_DD_L4,2021.2.3,MacIntel,59.97361161,,,,,,,,,,,,7.0818,0,,,,,,,,,,,,,,m,0,7.0818,,,,,,,,0.012089844,-0.415405273,0,0,0,,0,61,61,110,1,CRUNK,LB,old,z,./images/CRUNKLB.png,,,,,,,,,,,,,,,,,,,,,,,,,,,,,,,,,,,
,,,,,,,,,,,,,,,,,,23,2022-02-12_12h52.56.710,lexical_decision_task_DD_L4,2021.2.3,MacIntel,59.97361161,,,,,,,,,,,,2.3728,1,,,,,,,,,,,,,,m,1,2.3728,,,,,,,,0.012089844,-0.415405273,0,0,0,,0,62,62,25,1,CHALK,HB,old,m,./images/CHALKHB.png,,,,,,,,,,,,,,,,,,,,,,,,,,,,,,,,,,,
,,,,,,,,,,,,,,,,,,23,2022-02-12_12h52.56.710,lexical_decision_task_DD_L4,2021.2.3,MacIntel,59.97361161,,,,,,,,,,,,0.6269,1,,,,,,,,,,,,,,m,1,0.6269,,,,,,,,0.012089844,-0.415405273,0,0,0,,0,63,63,11,1,MEDAL,LB,old,m,./images/MEDALLB.png,,,,,,,,,,,,,,,,,,,,,,,,,,,,,,,,,,,
,,,,,,,,,,,,,,,,,,23,2022-02-12_12h52.56.710,lexical_decision_task_DD_L4,2021.2.3,MacIntel,59.97361161,,,,,,,,,,,,0.5574,1,,,,,,,,,,,,,,m,1,0.5574,,,,,,,,0.012089844,-0.415405273,0,0,0,,0,64,64,64,1,BRIDE,HB,old,m,./images/BRIDEHB.png,,,,,,,,,,,,,,,,,,,,,,,,,,,,,,,,,,,
,,,,,,,,,,,,,,,,,,23,2022-02-12_12h52.56.710,lexical_decision_task_DD_L4,2021.2.3,MacIntel,59.97361161,,,,,,,,,,,,0.9659,1,,,,,,,,,,,,,,z,1,0.9659,,,,,,,,0.012089844,-0.415405273,0,0,0,,0,65,65,118,1,BAVEL,HB,old,z,./images/BAVELHB.png,,,,,,,,,,,,,,,,,,,,,,,,,,,,,,,,,,,
,,,,,,,,,,,,,,,,,,23,2022-02-12_12h52.56.710,lexical_decision_task_DD_L4,2021.2.3,MacIntel,59.97361161,,,,,,,,,,,,1.0339,1,,,,,,,,,,,,,,z,1,1.0339,,,,,,,,0.012089844,-0.415405273,0,0,0,,0,66,66,94,1,BLANS,HB,old,z,./images/BLANSHB.png,,,,,,,,,,,,,,,,,,,,,,,,,,,,,,,,,,,
,,,,,,,,,,,,,,,,,,23,2022-02-12_12h52.56.710,lexical_decision_task_DD_L4,2021.2.3,MacIntel,59.97361161,,,,,,,,,,,,0.9268,1,,,,,,,,,,,,,,z,1,0.9268,,,,,,,,0.012089844,-0.415405273,0,0,0,,0,67,67,88,1,GLUSH,HB,old,z,./images/GLUSHHB.png,,,,,,,,,,,,,,,,,,,,,,,,,,,,,,,,,,,
,,,,,,,,,,,,,,,,,,23,2022-02-12_12h52.56.710,lexical_decision_task_DD_L4,2021.2.3,MacIntel,59.97361161,,,,,,,,,,,,0.7736,1,,,,,,,,,,,,,,z,1,0.7736,,,,,,,,0.012089844,-0.415405273,0,0,0,,0,68,68,115,1,MAWNS,HB,old,z,./images/MAWNSHB.png,,,,,,,,,,,,,,,,,,,,,,,,,,,,,,,,,,,
,,,,,,,,,,,,,,,,,,23,2022-02-12_12h52.56.710,lexical_decision_task_DD_L4,2021.2.3,MacIntel,59.97361161,,,,,,,,,,,,0.5462,1,,,,,,,,,,,,,,m,1,0.5462,,,,,,,,0.012089844,-0.415405273,0,0,0,,0,69,69,27,1,BUTTER,C,old,m,./images/BUTTER.png,,,,,,,,,,,,,,,,,,,,,,,,,,,,,,,,,,,
,,,,,,,,,,,,,,,,,,23,2022-02-12_12h52.56.710,lexical_decision_task_DD_L4,2021.2.3,MacIntel,59.97361161,,,,,,,,,,,,0.6485,1,,,,,,,,,,,,,,z,1,0.6485,,,,,,,,0.012089844,-0.415405273,0,0,0,,0,70,70,122,1,BLOOT,LB,old,z,./images/BLOOTLB.png,,,,,,,,,,,,,,,,,,,,,,,,,,,,,,,,,,,
,,,,,,,,,,,,,,,,,,23,2022-02-12_12h52.56.710,lexical_decision_task_DD_L4,2021.2.3,MacIntel,59.97361161,,,,,,,,,,,,0.6271,1,,,,,,,,,,,,,,m,1,0.6271,,,,,,,,0.012089844,-0.415405273,0,0,0,,0,71,71,6,1,STAIN,C,old,m,./images/STAIN.png,,,,,,,,,,,,,,,,,,,,,,,,,,,,,,,,,,,
,,,,,,,,,,,,,,,,,,23,2022-02-12_12h52.56.710,lexical_decision_task_DD_L4,2021.2.3,MacIntel,59.97361161,,,,,,,,,,,,0.9761,1,,,,,,,,,,,,,,z,1,0.9761,,,,,,,,0.012089844,-0.415405273,0,0,0,,0,72,72,91,1,SHENS,HB,old,z,./images/SHENSHB.png,,,,,,,,,,,,,,,,,,,,,,,,,,,,,,,,,,,
,,,,,,,,,,,,,,,,,,23,2022-02-12_12h52.56.710,lexical_decision_task_DD_L4,2021.2.3,MacIntel,59.97361161,,,,,,,,,,,,1.2636,1,,,,,,,,,,,,,,z,1,1.2636,,,,,,,,0.012089844,-0.415405273,0,0,0,,0,73,73,161,1,BLAPS,LB,old,z,./images/BLAPSLB.png,,,,,,,,,,,,,,,,,,,,,,,,,,,,,,,,,,,
,,,,,,,,,,,,,,,,,,23,2022-02-12_12h52.56.710,lexical_decision_task_DD_L4,2021.2.3,MacIntel,59.97361161,,,,,,,,,,,,1.0087,1,,,,,,,,,,,,,,z,1,1.0087,,,,,,,,0.012089844,-0.415405273,0,0,0,,0,74,74,121,1,CEERS,HB,old,z,./images/CEERSHB.png,,,,,,,,,,,,,,,,,,,,,,,,,,,,,,,,,,,
,,,,,,,,,,,,,,,,,,23,2022-02-12_12h52.56.710,lexical_decision_task_DD_L4,2021.2.3,MacIntel,59.97361161,,,,,,,,,,,,2.2007,1,,,,,,,,,,,,,,z,1,2.2007,,,,,,,,0.012089844,-0.415405273,0,0,0,,0,75,75,141,1,PLEET,C,old,z,./images/PLEET.png,,,,,,,,,,,,,,,,,,,,,,,,,,,,,,,,,,,
,,,,,,,,,,,,,,,,,,23,2022-02-12_12h52.56.710,lexical_decision_task_DD_L4,2021.2.3,MacIntel,59.97361161,,,,,,,,,,,,1.0757,1,,,,,,,,,,,,,,z,1,1.0757,,,,,,,,0.012089844,-0.415405273,0,0,0,,0,76,76,90,1,NEAST,C,old,z,./images/NEAST.png,,,,,,,,,,,,,,,,,,,,,,,,,,,,,,,,,,,
,,,,,,,,,,,,,,,,,,23,2022-02-12_12h52.56.710,lexical_decision_task_DD_L4,2021.2.3,MacIntel,59.97361161,,,,,,,,,,,,0.5962,1,,,,,,,,,,,,,,z,1,0.5962,,,,,,,,0.012089844,-0.415405273,0,0,0,,0,77,77,98,1,BAMPS,LB,old,z,./images/BAMPSLB.png,,,,,,,,,,,,,,,,,,,,,,,,,,,,,,,,,,,
,,,,,,,,,,,,,,,,,,23,2022-02-12_12h52.56.710,lexical_decision_task_DD_L4,2021.2.3,MacIntel,59.97361161,,,,,,,,,,,,1.0124,1,,,,,,,,,,,,,,m,1,1.0124,,,,,,,,0.012089844,-0.415405273,0,0,0,,0,78,78,65,1,SPINE,LB,old,m,./images/SPINELB.png,,,,,,,,,,,,,,,,,,,,,,,,,,,,,,,,,,,
,,,,,,,,,,,,,,,,,,23,2022-02-12_12h52.56.710,lexical_decision_task_DD_L4,2021.2.3,MacIntel,59.97361161,,,,,,,,,,,,0.6787,1,,,,,,,,,,,,,,m,1,0.6787,,,,,,,,0.012089844,-0.415405273,0,0,0,,0,79,79,68,1,VALLEY,LB,old,m,./images/VALLEYLB.png,,,,,,,,,,,,,,,,,,,,,,,,,,,,,,,,,,,
,,,,,,,,,,,,,,,,,,23,2022-02-12_12h52.56.710,lexical_decision_task_DD_L4,2021.2.3,MacIntel,59.97361161,,,,,,,,,,,,0.8003,1,,,,,,,,,,,,,,m,1,0.8003,,,,,,,,0.012089844,-0.415405273,0,0,0,,0,80,80,52,1,DESERT,HB,old,m,./images/DESERTHB.png,,,,,,,,,,,,,,,,,,,,,,,,,,,,,,,,,,,
,,,,,,,,,,,,,,,,,,23,2022-02-12_12h52.56.710,lexical_decision_task_DD_L4,2021.2.3,MacIntel,59.97361161,,,,,,,,,,,,0.6622,1,,,,,,,,,,,,,,z,1,0.6622,,,,,,,,0.012089844,-0.415405273,0,0,0,,0,81,81,158,1,EGECT,LB,old,z,./images/EGECTLB.png,,,,,,,,,,,,,,,,,,,,,,,,,,,,,,,,,,,
,,,,,,,,,,,,,,,,,,23,2022-02-12_12h52.56.710,lexical_decision_task_DD_L4,2021.2.3,MacIntel,59.97361161,,,,,,,,,,,,0.6352,1,,,,,,,,,,,,,,m,1,0.6352,,,,,,,,0.012089844,-0.415405273,0,0,0,,0,82,82,74,1,JUMPER,LB,old,m,./images/JUMPERLB.png,,,,,,,,,,,,,,,,,,,,,,,,,,,,,,,,,,,
,,,,,,,,,,,,,,,,,,23,2022-02-12_12h52.56.710,lexical_decision_task_DD_L4,2021.2.3,MacIntel,59.97361161,,,,,,,,,,,,0.7613,1,,,,,,,,,,,,,,z,1,0.7613,,,,,,,,0.012089844,-0.415405273,1,0,0,,0,83,83,85,1,CHULK,HB,old,z,./images/CHULKHB.png,,break_done_button,,,,,,,,,,,,,,,,,,,,,,,,,,,,,,,,,
,,,,,,,,,,,,,,,,,,23,2022-02-12_12h52.56.710,lexical_decision_task_DD_L4,2021.2.3,MacIntel,59.97361161,,,,,,,,,,,,0.9328,1,,,,,,,,,,,,,,z,1,0.9328,,,,,,,,0.012089844,-0.415405273,0,0,0,,0,84,84,156,1,HIXES,C,old,z,./images/HIXES.png,,,,,,,,,,,,,,,,,,,,,,,,,,,,,,,,,,,
,,,,,,,,,,,,,,,,,,23,2022-02-12_12h52.56.710,lexical_decision_task_DD_L4,2021.2.3,MacIntel,59.97361161,,,,,,,,,,,,0.844,1,,,,,,,,,,,,,,m,1,0.844,,,,,,,,0.012089844,-0.415405273,0,0,0,,0,85,85,72,1,FLASK,C,old,m,./images/FLASK.png,,,,,,,,,,,,,,,,,,,,,,,,,,,,,,,,,,,
,,,,,,,,,,,,,,,,,,23,2022-02-12_12h52.56.710,lexical_decision_task_DD_L4,2021.2.3,MacIntel,59.97361161,,,,,,,,,,,,2.287,1,,,,,,,,,,,,,,m,1,2.287,,,,,,,,0.012089844,-0.415405273,0,0,0,,0,86,86,71,1,BUBBLE,LB,old,m,./images/BUBBLELB.png,,,,,,,,,,,,,,,,,,,,,,,,,,,,,,,,,,,
,,,,,,,,,,,,,,,,,,23,2022-02-12_12h52.56.710,lexical_decision_task_DD_L4,2021.2.3,MacIntel,59.97361161,,,,,,,,,,,,0.66,1,,,,,,,,,,,,,,z,1,0.66,,,,,,,,0.012089844,-0.415405273,0,0,0,,0,87,87,136,1,WERVE,HB,old,z,./images/WERVEHB.png,,,,,,,,,,,,,,,,,,,,,,,,,,,,,,,,,,,
,,,,,,,,,,,,,,,,,,23,2022-02-12_12h52.56.710,lexical_decision_task_DD_L4,2021.2.3,MacIntel,59.97361161,,,,,,,,,,,,0.753,1,,,,,,,,,,,,,,z,1,0.753,,,,,,,,0.012089844,-0.415405273,0,0,0,,0,88,88,151,1,TINKY,HB,old,z,./images/TINKYHB.png,,,,,,,,,,,,,,,,,,,,,,,,,,,,,,,,,,,
,,,,,,,,,,,,,,,,,,23,2022-02-12_12h52.56.710,lexical_decision_task_DD_L4,2021.2.3,MacIntel,59.97361161,,,,,,,,,,,,0.591,1,,,,,,,,,,,,,,z,1,0.591,,,,,,,,0.012089844,-0.415405273,0,0,0,,0,89,89,114,1,RIKES,C,old,z,./images/RIKES.png,,,,,,,,,,,,,,,,,,,,,,,,,,,,,,,,,,,
,,,,,,,,,,,,,,,,,,23,2022-02-12_12h52.56.710,lexical_decision_task_DD_L4,2021.2.3,MacIntel,59.97361161,,,,,,,,,,,,0.6101,1,,,,,,,,,,,,,,m,1,0.6101,,,,,,,,0.012089844,-0.415405273,0,0,0,,0,90,90,2,1,STOVE,LB,old,m,./images/STOVELB.png,,,,,,,,,,,,,,,,,,,,,,,,,,,,,,,,,,,
,,,,,,,,,,,,,,,,,,23,2022-02-12_12h52.56.710,lexical_decision_task_DD_L4,2021.2.3,MacIntel,59.97361161,,,,,,,,,,,,0.5935,1,,,,,,,,,,,,,,m,1,0.5935,,,,,,,,0.012089844,-0.415405273,0,0,0,,0,91,91,79,1,RULER,HB,old,m,./images/RULERHB.png,,,,,,,,,,,,,,,,,,,,,,,,,,,,,,,,,,,
,,,,,,,,,,,,,,,,,,23,2022-02-12_12h52.56.710,lexical_decision_task_DD_L4,2021.2.3,MacIntel,59.97361161,,,,,,,,,,,,0.9535,1,,,,,,,,,,,,,,z,1,0.9535,,,,,,,,0.012089844,-0.415405273,0,0,0,,0,92,92,166,1,SHORY,HB,old,z,./images/SHORYHB.png,,,,,,,,,,,,,,,,,,,,,,,,,,,,,,,,,,,
,,,,,,,,,,,,,,,,,,23,2022-02-12_12h52.56.710,lexical_decision_task_DD_L4,2021.2.3,MacIntel,59.97361161,,,,,,,,,,,,0.6448,1,,,,,,,,,,,,,,m,1,0.6448,,,,,,,,0.012089844,-0.415405273,0,0,0,,0,93,93,34,1,RAZOR,HB,old,m,./images/RAZORHB.png,,,,,,,,,,,,,,,,,,,,,,,,,,,,,,,,,,,
,,,,,,,,,,,,,,,,,,23,2022-02-12_12h52.56.710,lexical_decision_task_DD_L4,2021.2.3,MacIntel,59.97361161,,,,,,,,,,,,0.5771,1,,,,,,,,,,,,,,m,1,0.5771,,,,,,,,0.012089844,-0.415405273,0,0,0,,0,94,94,14,1,FENCE,LB,old,m,./images/FENCELB.png,,,,,,,,,,,,,,,,,,,,,,,,,,,,,,,,,,,
,,,,,,,,,,,,,,,,,,23,2022-02-12_12h52.56.710,lexical_decision_task_DD_L4,2021.2.3,MacIntel,59.97361161,,,,,,,,,,,,0.7155,1,,,,,,,,,,,,,,m,1,0.7155,,,,,,,,0.012089844,-0.415405273,0,0,0,,0,95,95,46,1,MUMMY,HB,old,m,./images/MUMMYHB.png,,,,,,,,,,,,,,,,,,,,,,,,,,,,,,,,,,,
,,,,,,,,,,,,,,,,,,23,2022-02-12_12h52.56.710,lexical_decision_task_DD_L4,2021.2.3,MacIntel,59.97361161,,,,,,,,,,,,0.6232,1,,,,,,,,,,,,,,z,1,0.6232,,,,,,,,0.012089844,-0.415405273,0,0,0,,0,96,96,159,1,CUDDY,C,old,z,./images/CUDDY.png,,,,,,,,,,,,,,,,,,,,,,,,,,,,,,,,,,,
,,,,,,,,,,,,,,,,,,23,2022-02-12_12h52.56.710,lexical_decision_task_DD_L4,2021.2.3,MacIntel,59.97361161,,,,,,,,,,,,0.5669,1,,,,,,,,,,,,,,z,1,0.5669,,,,,,,,0.012089844,-0.415405273,0,0,0,,0,97,97,144,1,NAIRY,C,old,z,./images/NAIRY.png,,,,,,,,,,,,,,,,,,,,,,,,,,,,,,,,,,,
,,,,,,,,,,,,,,,,,,23,2022-02-12_12h52.56.710,lexical_decision_task_DD_L4,2021.2.3,MacIntel,59.97361161,,,,,,,,,,,,0.5402,1,,,,,,,,,,,,,,z,1,0.5402,,,,,,,,0.012089844,-0.415405273,0,0,0,,0,98,98,135,1,JOODY,C,old,z,./images/JOODY.png,,,,,,,,,,,,,,,,,,,,,,,,,,,,,,,,,,,
,,,,,,,,,,,,,,,,,,23,2022-02-12_12h52.56.710,lexical_decision_task_DD_L4,2021.2.3,MacIntel,59.97361161,,,,,,,,,,,,0.5511,1,,,,,,,,,,,,,,m,1,0.5511,,,,,,,,0.012089844,-0.415405273,0,0,0,,0,99,99,45,1,MONKEY,C,old,m,./images/MONKEY.png,,,,,,,,,,,,,,,,,,,,,,,,,,,,,,,,,,,
,,,,,,,,,,,,,,,,,,23,2022-02-12_12h52.56.710,lexical_decision_task_DD_L4,2021.2.3,MacIntel,59.97361161,,,,,,,,,,,,1.0592,1,,,,,,,,,,,,,,z,1,1.0592,,,,,,,,0.012089844,-0.415405273,0,0,0,,0,100,100,111,1,HOSSE,C,old,z,./images/HOSSE.png,,,,,,,,,,,,,,,,,,,,,,,,,,,,,,,,,,,
,,,,,,,,,,,,,,,,,,23,2022-02-12_12h52.56.710,lexical_decision_task_DD_L4,2021.2.3,MacIntel,59.97361161,,,,,,,,,,,,0.9591,1,,,,,,,,,,,,,,z,1,0.9591,,,,,,,,0.012089844,-0.415405273,0,0,0,,0,101,101,138,1,PLICE,C,old,z,./images/PLICE.png,,,,,,,,,,,,,,,,,,,,,,,,,,,,,,,,,,,
,,,,,,,,,,,,,,,,,,23,2022-02-12_12h52.56.710,lexical_decision_task_DD_L4,2021.2.3,MacIntel,59.97361161,,,,,,,,,,,,0.5501,1,,,,,,,,,,,,,,z,1,0.5501,,,,,,,,0.012089844,-0.415405273,0,0,0,,0,102,102,147,1,ZOLES,C,old,z,./images/ZOLES.png,,,,,,,,,,,,,,,,,,,,,,,,,,,,,,,,,,,
,,,,,,,,,,,,,,,,,,23,2022-02-12_12h52.56.710,lexical_decision_task_DD_L4,2021.2.3,MacIntel,59.97361161,,,,,,,,,,,,0.7321,1,,,,,,,,,,,,,,z,1,0.7321,,,,,,,,0.012089844,-0.415405273,0,0,0,,0,103,103,164,1,SGREW,LB,old,z,./images/SGREWLB.png,,,,,,,,,,,,,,,,,,,,,,,,,,,,,,,,,,,
,,,,,,,,,,,,,,,,,,23,2022-02-12_12h52.56.710,lexical_decision_task_DD_L4,2021.2.3,MacIntel,59.97361161,,,,,,,,,,,,0.6277,0,,,,,,,,,,,,,,z,0,0.6277,,,,,,,,0.012089844,-0.415405273,0,0,0,,0,104,104,58,1,CANOE,HB,old,m,./images/CANOEHB.png,,,,,,,,,,,,,,,,,,,,,,,,,,,,,,,,,,,
,,,,,,,,,,,,,,,,,,23,2022-02-12_12h52.56.710,lexical_decision_task_DD_L4,2021.2.3,MacIntel,59.97361161,,,,,,,,,,,,0.4768,1,,,,,,,,,,,,,,z,1,0.4768,,,,,,,,0.012089844,-0.415405273,0,0,0,,0,105,105,86,1,AIFED,LB,old,z,./images/AIFEDLB.png,,,,,,,,,,,,,,,,,,,,,,,,,,,,,,,,,,,
,,,,,,,,,,,,,,,,,,23,2022-02-12_12h52.56.710,lexical_decision_task_DD_L4,2021.2.3,MacIntel,59.97361161,,,,,,,,,,,,0.593,1,,,,,,,,,,,,,,z,1,0.593,,,,,,,,0.012089844,-0.415405273,0,0,0,,0,106,106,124,1,TUNCH,HB,old,z,./images/TUNCHHB.png,,,,,,,,,,,,,,,,,,,,,,,,,,,,,,,,,,,
,,,,,,,,,,,,,,,,,,23,2022-02-12_12h52.56.710,lexical_decision_task_DD_L4,2021.2.3,MacIntel,59.97361161,,,,,,,,,,,,0.5783,1,,,,,,,,,,,,,,z,1,0.5783,,,,,,,,0.012089844,-0.415405273,0,0,0,,0,107,107,107,1,FASKS,LB,old,z,./images/FASKSLB.png,,,,,,,,,,,,,,,,,,,,,,,,,,,,,,,,,,,
,,,,,,,,,,,,,,,,,,23,2022-02-12_12h52.56.710,lexical_decision_task_DD_L4,2021.2.3,MacIntel,59.97361161,,,,,,,,,,,,0.5245,1,,,,,,,,,,,,,,m,1,0.5245,,,,,,,,0.012089844,-0.415405273,0,0,0,,0,108,108,30,1,SLOPE,C,old,m,./images/SLOPE.png,,,,,,,,,,,,,,,,,,,,,,,,,,,,,,,,,,,
,,,,,,,,,,,,,,,,,,23,2022-02-12_12h52.56.710,lexical_decision_task_DD_L4,2021.2.3,MacIntel,59.97361161,,,,,,,,,,,,0.5254,1,,,,,,,,,,,,,,z,1,0.5254,,,,,,,,0.012089844,-0.415405273,0,0,0,,0,109,109,160,1,VEETS,HB,old,z,./images/VEETSHB.png,,,,,,,,,,,,,,,,,,,,,,,,,,,,,,,,,,,
,,,,,,,,,,,,,,,,,,23,2022-02-12_12h52.56.710,lexical_decision_task_DD_L4,2021.2.3,MacIntel,59.97361161,,,,,,,,,,,,0.6238,1,,,,,,,,,,,,,,m,1,0.6238,,,,,,,,0.012089844,-0.415405273,0,0,0,,0,110,110,75,1,HAMMER,C,old,m,./images/HAMMER.png,,,,,,,,,,,,,,,,,,,,,,,,,,,,,,,,,,,
,,,,,,,,,,,,,,,,,,23,2022-02-12_12h52.56.710,lexical_decision_task_DD_L4,2021.2.3,MacIntel,59.97361161,,,,,,,,,,,,0.5259,1,,,,,,,,,,,,,,m,1,0.5259,,,,,,,,0.012089844,-0.415405273,0,0,0,,0,111,111,15,1,COLLAR,C,old,m,./images/COLLAR.png,,,,,,,,,,,,,,,,,,,,,,,,,,,,,,,,,,,
,,,,,,,,,,,,,,,,,,23,2022-02-12_12h52.56.710,lexical_decision_task_DD_L4,2021.2.3,MacIntel,59.97361161,,,,,,,,,,,,0.5801,1,,,,,,,,,,,,,,z,1,0.5801,,,,,,,,0.012089844,-0.415405273,0,0,0,,0,112,112,106,1,CLUMS,HB,old,z,./images/CLUMSHB.png,,,,,,,,,,,,,,,,,,,,,,,,,,,,,,,,,,,
,,,,,,,,,,,,,,,,,,23,2022-02-12_12h52.56.710,lexical_decision_task_DD_L4,2021.2.3,MacIntel,59.97361161,,,,,,,,,,,,0.5115,0,,,,,,,,,,,,,,z,0,0.5115,,,,,,,,0.012089844,-0.415405273,0,0,0,,0,113,113,16,1,GRAPE,HB,old,m,./images/GRAPEHB.png,,,,,,,,,,,,,,,,,,,,,,,,,,,,,,,,,,,
,,,,,,,,,,,,,,,,,,23,2022-02-12_12h52.56.710,lexical_decision_task_DD_L4,2021.2.3,MacIntel,59.97361161,,,,,,,,,,,,0.5905,1,,,,,,,,,,,,,,z,1,0.5905,,,,,,,,0.012089844,-0.415405273,0,0,0,,0,114,114,165,1,TROWN,C,old,z,./images/TROWN.png,,,,,,,,,,,,,,,,,,,,,,,,,,,,,,,,,,,
,,,,,,,,,,,,,,,,,,23,2022-02-12_12h52.56.710,lexical_decision_task_DD_L4,2021.2.3,MacIntel,59.97361161,,,,,,,,,,,,0.5063,1,,,,,,,,,,,,,,m,1,0.5063,,,,,,,,0.012089844,-0.415405273,0,0,0,,0,115,115,63,1,BAKER,C,old,m,./images/BAKER.png,,,,,,,,,,,,,,,,,,,,,,,,,,,,,,,,,,,
,,,,,,,,,,,,,,,,,,23,2022-02-12_12h52.56.710,lexical_decision_task_DD_L4,2021.2.3,MacIntel,59.97361161,,,,,,,,,,,,0.528,1,,,,,,,,,,,,,,m,1,0.528,,,,,,,,0.012089844,-0.415405273,0,0,0,,0,116,116,59,1,BRUSH,LB,old,m,./images/BRUSHLB.png,,,,,,,,,,,,,,,,,,,,,,,,,,,,,,,,,,,
,,,,,,,,,,,,,,,,,,23,2022-02-12_12h52.56.710,lexical_decision_task_DD_L4,2021.2.3,MacIntel,59.97361161,,,,,,,,,,,,0.4946,1,,,,,,,,,,,,,,m,1,0.4946,,,,,,,,0.012089844,-0.415405273,0,0,0,,0,117,117,47,1,LAGOON,LB,old,m,./images/LAGOONLB.png,,,,,,,,,,,,,,,,,,,,,,,,,,,,,,,,,,,
,,,,,,,,,,,,,,,,,,23,2022-02-12_12h52.56.710,lexical_decision_task_DD_L4,2021.2.3,MacIntel,59.97361161,,,,,,,,,,,,0.7625,1,,,,,,,,,,,,,,z,1,0.7625,,,,,,,,0.012089844,-0.415405273,0,0,0,,0,118,118,137,1,JOOST,LB,old,z,./images/JOOSTLB.png,,,,,,,,,,,,,,,,,,,,,,,,,,,,,,,,,,,
,,,,,,,,,,,,,,,,,,23,2022-02-12_12h52.56.710,lexical_decision_task_DD_L4,2021.2.3,MacIntel,59.97361161,,,,,,,,,,,,0.7444,1,,,,,,,,,,,,,,z,1,0.7444,,,,,,,,0.012089844,-0.415405273,0,0,0,,0,119,119,109,1,BURGE,HB,old,z,./images/BURGEHB.png,,,,,,,,,,,,,,,,,,,,,,,,,,,,,,,,,,,
,,,,,,,,,,,,,,,,,,23,2022-02-12_12h52.56.710,lexical_decision_task_DD_L4,2021.2.3,MacIntel,59.97361161,,,,,,,,,,,,0.5772,1,,,,,,,,,,,,,,z,1,0.5772,,,,,,,,0.012089844,-0.415405273,0,0,0,,0,120,120,155,1,CANGY,LB,old,z,./images/CANGYLB.png,,,,,,,,,,,,,,,,,,,,,,,,,,,,,,,,,,,
,,,,,,,,,,,,,,,,,,23,2022-02-12_12h52.56.710,lexical_decision_task_DD_L4,2021.2.3,MacIntel,59.97361161,,,,,,,,,,,,0.4583,1,,,,,,,,,,,,,,m,1,0.4583,,,,,,,,0.012089844,-0.415405273,0,0,0,,0,121,121,69,1,ARROW,C,old,m,./images/ARROW.png,,,,,,,,,,,,,,,,,,,,,,,,,,,,,,,,,,,
,,,,,,,,,,,,,,,,,,23,2022-02-12_12h52.56.710,lexical_decision_task_DD_L4,2021.2.3,MacIntel,59.97361161,,,,,,,,,,,,0.5688,1,,,,,,,,,,,,,,z,1,0.5688,,,,,,,,0.012089844,-0.415405273,0,0,0,,0,122,122,150,1,NOOLS,C,old,z,./images/NOOLS.png,,,,,,,,,,,,,,,,,,,,,,,,,,,,,,,,,,,
,,,,,,,,,,,,,,,,,,23,2022-02-12_12h52.56.710,lexical_decision_task_DD_L4,2021.2.3,MacIntel,59.97361161,,,,,,,,,,,,0.7138,1,,,,,,,,,,,,,,z,1,0.7138,,,,,,,,0.012089844,-0.415405273,0,0,0,,0,123,123,104,1,GITTY,LB,old,z,./images/GITTYLB.png,,,,,,,,,,,,,,,,,,,,,,,,,,,,,,,,,,,
,,,,,,,,,,,,,,,,,,23,2022-02-12_12h52.56.710,lexical_decision_task_DD_L4,2021.2.3,MacIntel,59.97361161,,,,,,,,,,,,0.7099,1,,,,,,,,,,,,,,z,1,0.7099,,,,,,,,0.012089844,-0.415405273,0,0,0,,0,124,124,103,1,FLORT,HB,old,z,./images/FLORTHB.png,,,,,,,,,,,,,,,,,,,,,,,,,,,,,,,,,,,
,,,,,,,,,,,,,,,,,,23,2022-02-12_12h52.56.710,lexical_decision_task_DD_L4,2021.2.3,MacIntel,59.97361161,,,,,,,,,,,,0.5239,1,,,,,,,,,,,,,,z,1,0.5239,,,,,,,,-0.007416992,-0.434423828,1,0,0,,0,125,125,132,1,SCIFF,C,old,z,./images/SCIFF.png,,break_done_button,,,,,,,,,,,,,,,,,,,,,,,,,,,,,,,,,
,,,,,,,,,,,,,,,,,,23,2022-02-12_12h52.56.710,lexical_decision_task_DD_L4,2021.2.3,MacIntel,59.97361161,,,,,,,,,,,,0.4767,0,,,,,,,,,,,,,,z,0,0.4767,,,,,,,,-0.001606445,-0.428378906,0,0,0,,0,126,126,8,1,CLIFF,LB,old,m,./images/CLIFFLB.png,,,,,,,,,,,,,,,,,,,,,,,,,,,,,,,,,,,
,,,,,,,,,,,,,,,,,,23,2022-02-12_12h52.56.710,lexical_decision_task_DD_L4,2021.2.3,MacIntel,59.97361161,,,,,,,,,,,,0.525,1,,,,,,,,,,,,,,m,1,0.525,,,,,,,,-0.001606445,-0.428378906,0,0,0,,0,127,127,39,1,CANDY,C,old,m,./images/CANDY.png,,,,,,,,,,,,,,,,,,,,,,,,,,,,,,,,,,,
,,,,,,,,,,,,,,,,,,23,2022-02-12_12h52.56.710,lexical_decision_task_DD_L4,2021.2.3,MacIntel,59.97361161,,,,,,,,,,,,0.6099,1,,,,,,,,,,,,,,m,1,0.6099,,,,,,,,-0.001606445,-0.428378906,0,0,0,,0,128,128,33,1,SAUNA,C,old,m,./images/SAUNA.png,,,,,,,,,,,,,,,,,,,,,,,,,,,,,,,,,,,
,,,,,,,,,,,,,,,,,,23,2022-02-12_12h52.56.710,lexical_decision_task_DD_L4,2021.2.3,MacIntel,59.97361161,,,,,,,,,,,,0.7734,1,,,,,,,,,,,,,,z,1,0.7734,,,,,,,,-0.001606445,-0.428378906,0,0,0,,0,129,129,126,1,GUELS,C,old,z,./images/GUELS.png,,,,,,,,,,,,,,,,,,,,,,,,,,,,,,,,,,,
,,,,,,,,,,,,,,,,,,23,2022-02-12_12h52.56.710,lexical_decision_task_DD_L4,2021.2.3,MacIntel,59.97361161,,,,,,,,,,,,0.5928,1,,,,,,,,,,,,,,m,1,0.5928,,,,,,,,-0.001606445,-0.428378906,0,0,0,,0,130,130,42,1,CHAIN,C,old,m,./images/CHAIN.png,,,,,,,,,,,,,,,,,,,,,,,,,,,,,,,,,,,
,,,,,,,,,,,,,,,,,,23,2022-02-12_12h52.56.710,lexical_decision_task_DD_L4,2021.2.3,MacIntel,59.97361161,,,,,,,,,,,,0.7478,1,,,,,,,,,,,,,,m,1,0.7478,,,,,,,,-0.001606445,-0.428378906,0,0,0,,0,131,131,4,1,BOXER,HB,old,m,./images/BOXERHB.png,,,,,,,,,,,,,,,,,,,,,,,,,,,,,,,,,,,
,,,,,,,,,,,,,,,,,,23,2022-02-12_12h52.56.710,lexical_decision_task_DD_L4,2021.2.3,MacIntel,59.97361161,,,,,,,,,,,,0.7122,1,,,,,,,,,,,,,,m,1,0.7122,,,,,,,,-0.001606445,-0.428378906,0,0,0,,0,132,132,49,1,BISHOP,HB,old,m,./images/BISHOPHB.png,,,,,,,,,,,,,,,,,,,,,,,,,,,,,,,,,,,
,,,,,,,,,,,,,,,,,,23,2022-02-12_12h52.56.710,lexical_decision_task_DD_L4,2021.2.3,MacIntel,59.97361161,,,,,,,,,,,,0.8443,1,,,,,,,,,,,,,,z,1,0.8443,,,,,,,,-0.001606445,-0.428378906,0,0,0,,0,133,133,87,1,TRING,C,old,z,./images/TRING.png,,,,,,,,,,,,,,,,,,,,,,,,,,,,,,,,,,,
,,,,,,,,,,,,,,,,,,23,2022-02-12_12h52.56.710,lexical_decision_task_DD_L4,2021.2.3,MacIntel,59.97361161,,,,,,,,,,,,0.9111,1,,,,,,,,,,,,,,z,1,0.9111,,,,,,,,-0.001606445,-0.428378906,0,0,0,,0,134,134,149,1,VEASE,LB,old,z,./images/VEASELB.png,,,,,,,,,,,,,,,,,,,,,,,,,,,,,,,,,,,
,,,,,,,,,,,,,,,,,,23,2022-02-12_12h52.56.710,lexical_decision_task_DD_L4,2021.2.3,MacIntel,59.97361161,,,,,,,,,,,,0.7164,1,,,,,,,,,,,,,,z,1,0.7164,,,,,,,,-0.001606445,-0.428378906,0,0,0,,0,135,135,116,1,BALGY,LB,old,z,./images/BALGYLB.png,,,,,,,,,,,,,,,,,,,,,,,,,,,,,,,,,,,
,,,,,,,,,,,,,,,,,,23,2022-02-12_12h52.56.710,lexical_decision_task_DD_L4,2021.2.3,MacIntel,59.97361161,,,,,,,,,,,,0.6422,1,,,,,,,,,,,,,,m,1,0.6422,,,,,,,,-0.001606445,-0.428378906,0,0,0,,0,136,136,36,1,BOILER,C,old,m,./images/BOILER.png,,,,,,,,,,,,,,,,,,,,,,,,,,,,,,,,,,,
,,,,,,,,,,,,,,,,,,23,2022-02-12_12h52.56.710,lexical_decision_task_DD_L4,2021.2.3,MacIntel,59.97361161,,,,,,,,,,,,0.6968,1,,,,,,,,,,,,,,m,1,0.6968,,,,,,,,-0.001606445,-0.428378906,0,0,0,,0,137,137,22,1,CLOWN,HB,old,m,./images/CLOWNHB.png,,,,,,,,,,,,,,,,,,,,,,,,,,,,,,,,,,,
,,,,,,,,,,,,,,,,,,23,2022-02-12_12h52.56.710,lexical_decision_task_DD_L4,2021.2.3,MacIntel,59.97361161,,,,,,,,,,,,0.5643,1,,,,,,,,,,,,,,m,1,0.5643,,,,,,,,-0.001606445,-0.428378906,0,0,0,,0,138,138,29,1,PISTOL,LB,old,m,./images/PISTOLLB.png,,,,,,,,,,,,,,,,,,,,,,,,,,,,,,,,,,,
,,,,,,,,,,,,,,,,,,23,2022-02-12_12h52.56.710,lexical_decision_task_DD_L4,2021.2.3,MacIntel,59.97361161,,,,,,,,,,,,0.5953,1,,,,,,,,,,,,,,m,1,0.5953,,,,,,,,-0.001606445,-0.428378906,0,0,0,,0,139,139,70,1,BANANA,HB,old,m,./images/BANANAHB.png,,,,,,,,,,,,,,,,,,,,,,,,,,,,,,,,,,,
,,,,,,,,,,,,,,,,,,23,2022-02-12_12h52.56.710,lexical_decision_task_DD_L4,2021.2.3,MacIntel,59.97361161,,,,,,,,,,,,0.5277,1,,,,,,,,,,,,,,m,1,0.5277,,,,,,,,-0.001606445,-0.428378906,0,0,0,,0,140,140,0,1,WALNUT,C,old,m,./images/WALNUT.png,,,,,,,,,,,,,,,,,,,,,,,,,,,,,,,,,,,
,,,,,,,,,,,,,,,,,,23,2022-02-12_12h52.56.710,lexical_decision_task_DD_L4,2021.2.3,MacIntel,59.97361161,,,,,,,,,,,,0.7319,1,,,,,,,,,,,,,,z,1,0.7319,,,,,,,,-0.001606445,-0.428378906,0,0,0,,0,141,141,152,1,FRAIN,LB,old,z,./images/FRAINLB.png,,,,,,,,,,,,,,,,,,,,,,,,,,,,,,,,,,,
,,,,,,,,,,,,,,,,,,23,2022-02-12_12h52.56.710,lexical_decision_task_DD_L4,2021.2.3,MacIntel,59.97361161,,,,,,,,,,,,0.7587,1,,,,,,,,,,,,,,z,1,0.7587,,,,,,,,-0.001606445,-0.428378906,0,0,0,,0,142,142,153,1,CLUPS,C,old,z,./images/CLUPS.png,,,,,,,,,,,,,,,,,,,,,,,,,,,,,,,,,,,
,,,,,,,,,,,,,,,,,,23,2022-02-12_12h52.56.710,lexical_decision_task_DD_L4,2021.2.3,MacIntel,59.97361161,,,,,,,,,,,,0.7456,1,,,,,,,,,,,,,,m,1,0.7456,,,,,,,,-0.001606445,-0.428378906,0,0,0,,0,143,143,55,1,ALLEY,HB,old,m,./images/ALLEYHB.png,,,,,,,,,,,,,,,,,,,,,,,,,,,,,,,,,,,
,,,,,,,,,,,,,,,,,,23,2022-02-12_12h52.56.710,lexical_decision_task_DD_L4,2021.2.3,MacIntel,59.97361161,,,,,,,,,,,,0.7133,1,,,,,,,,,,,,,,m,1,0.7133,,,,,,,,-0.001606445,-0.428378906,0,0,0,,0,144,144,19,1,DONKEY,HB,old,m,./images/DONKEYHB.png,,,,,,,,,,,,,,,,,,,,,,,,,,,,,,,,,,,
,,,,,,,,,,,,,,,,,,23,2022-02-12_12h52.56.710,lexical_decision_task_DD_L4,2021.2.3,MacIntel,59.97361161,,,,,,,,,,,,0.6453,1,,,,,,,,,,,,,,m,1,0.6453,,,,,,,,-0.001606445,-0.428378906,0,0,0,,0,145,145,67,1,POKER,HB,old,m,./images/POKERHB.png,,,,,,,,,,,,,,,,,,,,,,,,,,,,,,,,,,,
,,,,,,,,,,,,,,,,,,23,2022-02-12_12h52.56.710,lexical_decision_task_DD_L4,2021.2.3,MacIntel,59.97361161,,,,,,,,,,,,0.811,1,,,,,,,,,,,,,,z,1,0.811,,,,,,,,-0.001606445,-0.428378906,0,0,0,,0,146,146,100,1,DRIBS,HB,old,z,./images/DRIBSHB.png,,,,,,,,,,,,,,,,,,,,,,,,,,,,,,,,,,,
,,,,,,,,,,,,,,,,,,23,2022-02-12_12h52.56.710,lexical_decision_task_DD_L4,2021.2.3,MacIntel,59.97361161,,,,,,,,,,,,0.6119,1,,,,,,,,,,,,,,m,1,0.6119,,,,,,,,-0.001606445,-0.428378906,0,0,0,,0,147,147,17,1,PARADE,LB,old,m,./images/PARADELB.png,,,,,,,,,,,,,,,,,,,,,,,,,,,,,,,,,,,
,,,,,,,,,,,,,,,,,,23,2022-02-12_12h52.56.710,lexical_decision_task_DD_L4,2021.2.3,MacIntel,59.97361161,,,,,,,,,,,,0.5947,1,,,,,,,,,,,,,,m,1,0.5947,,,,,,,,-0.001606445,-0.428378906,0,0,0,,0,148,148,1,1,TOWEL,HB,old,m,./images/TOWELHB.png,,,,,,,,,,,,,,,,,,,,,,,,,,,,,,,,,,,
,,,,,,,,,,,,,,,,,,23,2022-02-12_12h52.56.710,lexical_decision_task_DD_L4,2021.2.3,MacIntel,59.97361161,,,,,,,,,,,,0.7118,1,,,,,,,,,,,,,,z,1,0.7118,,,,,,,,-0.001606445,-0.428378906,0,0,0,,0,149,149,119,1,PAFER,LB,old,z,./images/PAFERLB.png,,,,,,,,,,,,,,,,,,,,,,,,,,,,,,,,,,,
,,,,,,,,,,,,,,,,,,23,2022-02-12_12h52.56.710,lexical_decision_task_DD_L4,2021.2.3,MacIntel,59.97361161,,,,,,,,,,,,0.728,1,,,,,,,,,,,,,,m,1,0.728,,,,,,,,-0.001606445,-0.428378906,0,0,0,,0,150,150,40,1,SNAKE,HB,old,m,./images/SNAKEHB.png,,,,,,,,,,,,,,,,,,,,,,,,,,,,,,,,,,,
,,,,,,,,,,,,,,,,,,23,2022-02-12_12h52.56.710,lexical_decision_task_DD_L4,2021.2.3,MacIntel,59.97361161,,,,,,,,,,,,0.6452,1,,,,,,,,,,,,,,z,1,0.6452,,,,,,,,-0.001606445,-0.428378906,0,0,0,,0,151,151,140,1,DOVET,LB,old,z,./images/DOVETLB.png,,,,,,,,,,,,,,,,,,,,,,,,,,,,,,,,,,,
,,,,,,,,,,,,,,,,,,23,2022-02-12_12h52.56.710,lexical_decision_task_DD_L4,2021.2.3,MacIntel,59.97361161,,,,,,,,,,,,0.912,1,,,,,,,,,,,,,,m,1,0.912,,,,,,,,-0.001606445,-0.428378906,0,0,0,,0,152,152,37,1,TIGER,HB,old,m,./images/TIGERHB.png,,,,,,,,,,,,,,,,,,,,,,,,,,,,,,,,,,,
,,,,,,,,,,,,,,,,,,23,2022-02-12_12h52.56.710,lexical_decision_task_DD_L4,2021.2.3,MacIntel,59.97361161,,,,,,,,,,,,0.6803,1,,,,,,,,,,,,,,m,1,0.6803,,,,,,,,-0.001606445,-0.428378906,0,0,0,,0,153,153,38,1,ENGINE,LB,old,m,./images/ENGINELB.png,,,,,,,,,,,,,,,,,,,,,,,,,,,,,,,,,,,
,,,,,,,,,,,,,,,,,,23,2022-02-12_12h52.56.710,lexical_decision_task_DD_L4,2021.2.3,MacIntel,59.97361161,,,,,,,,,,,,1.2789,1,,,,,,,,,,,,,,z,1,1.2789,,,,,,,,-0.001606445,-0.428378906,0,0,0,,0,154,154,163,1,GAMBA,HB,old,z,./images/GAMBAHB.png,,,,,,,,,,,,,,,,,,,,,,,,,,,,,,,,,,,
,,,,,,,,,,,,,,,,,,23,2022-02-12_12h52.56.710,lexical_decision_task_DD_L4,2021.2.3,MacIntel,59.97361161,,,,,,,,,,,,2.1117,1,,,,,,,,,,,,,,m,1,2.1117,,,,,,,,-0.001606445,-0.428378906,0,0,0,,0,155,155,7,1,WAGON,HB,old,m,./images/WAGONHB.png,,,,,,,,,,,,,,,,,,,,,,,,,,,,,,,,,,,
,,,,,,,,,,,,,,,,,,23,2022-02-12_12h52.56.710,lexical_decision_task_DD_L4,2021.2.3,MacIntel,59.97361161,,,,,,,,,,,,1.2114,1,,,,,,,,,,,,,,z,1,1.2114,,,,,,,,-0.001606445,-0.428378906,0,0,0,,0,156,156,95,1,HANTY,LB,old,z,./images/HANTYLB.png,,,,,,,,,,,,,,,,,,,,,,,,,,,,,,,,,,,
,,,,,,,,,,,,,,,,,,23,2022-02-12_12h52.56.710,lexical_decision_task_DD_L4,2021.2.3,MacIntel,59.97361161,,,,,,,,,,,,0.8986,1,,,,,,,,,,,,,,m,1,0.8986,,,,,,,,-0.001606445,-0.428378906,0,0,0,,0,157,157,44,1,BASKET,LB,old,m,./images/BASKETLB.png,,,,,,,,,,,,,,,,,,,,,,,,,,,,,,,,,,,
,,,,,,,,,,,,,,,,,,23,2022-02-12_12h52.56.710,lexical_decision_task_DD_L4,2021.2.3,MacIntel,59.97361161,,,,,,,,,,,,1.0798,1,,,,,,,,,,,,,,z,1,1.0798,,,,,,,,-0.001606445,-0.428378906,0,0,0,,0,158,158,89,1,DRIEK,LB,old,z,./images/DRIEKLB.png,,,,,,,,,,,,,,,,,,,,,,,,,,,,,,,,,,,
,,,,,,,,,,,,,,,,,,23,2022-02-12_12h52.56.710,lexical_decision_task_DD_L4,2021.2.3,MacIntel,59.97361161,,,,,,,,,,,,1.0964,1,,,,,,,,,,,,,,z,1,1.0964,,,,,,,,-0.001606445,-0.428378906,0,0,0,,0,159,159,146,1,MOOST,LB,old,z,./images/MOOSTLB.png,,,,,,,,,,,,,,,,,,,,,,,,,,,,,,,,,,,
,,,,,,,,,,,,,,,,,,23,2022-02-12_12h52.56.710,lexical_decision_task_DD_L4,2021.2.3,MacIntel,59.97361161,,,,,,,,,,,,0.6453,1,,,,,,,,,,,,,,z,1,0.6453,,,,,,,,-0.001606445,-0.428378906,0,0,0,,0,160,160,139,1,BLEAR,HB,old,z,./images/BLEARHB.png,,,,,,,,,,,,,,,,,,,,,,,,,,,,,,,,,,,
,,,,,,,,,,,,,,,,,,23,2022-02-12_12h52.56.710,lexical_decision_task_DD_L4,2021.2.3,MacIntel,59.97361161,,,,,,,,,,,,1.0798,1,,,,,,,,,,,,,,m,1,1.0798,,,,,,,,-0.001606445,-0.428378906,0,0,0,,0,161,161,60,1,CURRY,C,old,m,./images/CURRY.png,,,,,,,,,,,,,,,,,,,,,,,,,,,,,,,,,,,
,,,,,,,,,,,,,,,,,,23,2022-02-12_12h52.56.710,lexical_decision_task_DD_L4,2021.2.3,MacIntel,59.97361161,,,,,,,,,,,,1.1092,0,,,,,,,,,,,,,,z,0,1.1092,,,,,,,,-0.001606445,-0.428378906,0,0,0,,0,162,162,12,1,BLOKE,C,old,m,./images/BLOKE.png,,,,,,,,,,,,,,,,,,,,,,,,,,,,,,,,,,,
,,,,,,,,,,,,,,,,,,23,2022-02-12_12h52.56.710,lexical_decision_task_DD_L4,2021.2.3,MacIntel,59.97361161,,,,,,,,,,,,0.9113,1,,,,,,,,,,,,,,m,1,0.9113,,,,,,,,-0.001606445,-0.428378906,0,0,0,,0,163,163,77,1,WHEEL,LB,old,m,./images/WHEELLB.png,,,,,,,,,,,,,,,,,,,,,,,,,,,,,,,,,,,
,,,,,,,,,,,,,,,,,,23,2022-02-12_12h52.56.710,lexical_decision_task_DD_L4,2021.2.3,MacIntel,59.97361161,,,,,,,,,,,,0.6921,1,,,,,,,,,,,,,,m,1,0.6921,,,,,,,,-0.001606445,-0.428378906,0,0,0,,0,164,164,9,1,DIVER,C,old,m,./images/DIVER.png,,,,,,,,,,,,,,,,,,,,,,,,,,,,,,,,,,,
,,,,,,,,,,,,,,,,,,23,2022-02-12_12h52.56.710,lexical_decision_task_DD_L4,2021.2.3,MacIntel,59.97361161,,,,,,,,,,,,1.1821,1,,,,,,,,,,,,,,z,1,1.1821,,,,,,,,-0.001606445,-0.428378906,0,0,0,,0,165,165,108,1,GRUET,C,old,z,./images/GRUET.png,,,,,,,,,,,,,,,,,,,,,,,,,,,,,,,,,,,
,,,,,,,,,,,,,,,,,,23,2022-02-12_12h52.56.710,lexical_decision_task_DD_L4,2021.2.3,MacIntel,59.97361161,,,,,,,,,,,,0.6275,1,,,,,,,,,,,,,,z,1,0.6275,,,,,,,,-0.001606445,-0.428378906,0,0,0,,0,166,166,123,1,SEDGE,C,old,z,./images/SEDGE.png,,,,,,,,,,,,,,,,,,,,,,,,,,,,,,,,,,,
,,,,,,,,,,,,,,,,,,23,2022-02-12_12h52.56.710,lexical_decision_task_DD_L4,2021.2.3,MacIntel,59.97361161,,,,,,,,,,,,6.8456,1,,,,,,,,,,,,,,m,1,6.8456,,,,,,,,-0.001606445,-0.428378906,0,0,0,,0,167,167,57,1,FERRY,C,old,m,./images/FERRY.png,,,,,,,,,,,,,,,,,,,,,,,,,,,,,,,,,,,
,,,,,,,,,,,,,,,,,,23,2022-02-12_12h52.56.710,lexical_decision_task_DD_L4,2021.2.3,MacIntel,59.97361161,,,,,,,,,,,,,,,,,,,,,,,,,,,,,,,,,,,,,,,,,,,,,,,,,How likely will it be that you will recognize the words presented clearly on a scale of 0 (not likely) to 100 (most likely)?,,,,,,0.001396484,-0.393188477,1,0,0,jol_adv,6,4.2665,0,0,0,0,1,,,,,,,,,,,,,,,,,,,,
,,,,,,,,,,,,,,,,,,23,2022-02-12_12h52.56.710,lexical_decision_task_DD_L4,2021.2.3,MacIntel,59.97361161,,,,,,,,,,,,,,,,,,,,,,,,,,,,,,,,,,,,,,,,,,,,,,,,,How likely will it be that you will recognize the words presented slighly blurred on a scale of 0 (not likely) to 100 (most likely)?,,,,,,,,,,,,5,6.7807,0,1,1,1,1,,,,,,,,,,,,,,,,,,,,
,,,,,,,,,,,,,,,,,,23,2022-02-12_12h52.56.710,lexical_decision_task_DD_L4,2021.2.3,MacIntel,59.97361161,,,,,,,,,,,,,,,,,,,,,,,,,,,,,,,,,,,,,,,,,,,,,,,,,How likely will it be that you will recognize the words presented very blurred on a scale of 0 (not likely) to 100 (most likely)?,,,,,,,,,,,,4,3.0612,0,2,2,2,1,,,,,,,,,,,,,,,,,,,,
,-0.026484375,-0.399067383,1,0,0,instr_done_button,,,,,,1,test,"In the next phase you will be presented with the words from the the first phase. Your job is to decide whether you remember seeing the word or not. If you remember seeing the word press ""old"" or type ""m"". If you do not remember seeing the word press ""new"" or type ""z"". Please press the space bar or click on continue to begin. ",,,,23,2022-02-12_12h52.56.710,lexical_decision_task_DD_L4,2021.2.3,MacIntel,59.97361161,,,,,,,,,,,,,,,,,,,,,,,,,,,,,,,,,,,,,,,,,,,,,,,,,,,,,,,,,,,,,,,,,,,,0,0,0,0,1,,,,,,,,,,,,,,,
,0.028369141,-0.390332031,1,0,0,instr_done_button,,,,,,1,test,"In the next phase you will be presented with the words from the the first phase. Your job is to decide whether you remember seeing the word or not. If you remember seeing the word press ""old"" or type ""m"". If you do not remember seeing the word press ""new"" or type ""z"". Please press the space bar or click on continue to begin. ",,,,23,2022-02-12_12h52.56.710,lexical_decision_task_DD_L4,2021.2.3,MacIntel,59.97361161,,,,,,,,,,,,,,,,,,,,,,,,,,,,,,,,,,,,,,,,,,,,,,,,,,,,,,,,,,,,,,,,,,,,1,0,1,0,1,,,,,,,,,,,,,,,
,-0.015698242,-0.417734375,1,0,0,instr_done_button,,,,,,1,test,"In the next phase you will be presented with the words from the the first phase. Your job is to decide whether you remember seeing the word or not. If you remember seeing the word press ""old"" or type ""m"". If you do not remember seeing the word press ""new"" or type ""z"". Please press the space bar or click on continue to begin. ",,,,23,2022-02-12_12h52.56.710,lexical_decision_task_DD_L4,2021.2.3,MacIntel,59.97361161,,,,,,,,,,,,,,,,,,,,,,,,,,,,,,,,,,,,,,,,,,,,,,,,,,,,,,,,,,,,,,,,,,,,2,0,2,0,1,,,,,,,,,,,,,,,
,0.062871094,-0.394555664,1,0,0,instr_done_button,,,,,,1,test,"In the next phase you will be presented with the words from the the first phase. Your job is to decide whether you remember seeing the word or not. If you remember seeing the word press ""old"" or type ""m"". If you do not remember seeing the word press ""new"" or type ""z"". Please press the space bar or click on continue to begin. ",,,,23,2022-02-12_12h52.56.710,lexical_decision_task_DD_L4,2021.2.3,MacIntel,59.97361161,,,,,,,,,,,,,,,,,,,,,,,,,,,,,,,,,,,,,,,,,,,,,,,,,,,,,,,,,,,,,,,,,,,,3,0,3,0,1,,,,,,,,,,,,,,,
,0.113176384,-0.414586829,1,0,0,instr_done_button,,,,,,1,test,"In the next phase you will be presented with the words from the the first phase. Your job is to decide whether you remember seeing the word or not. If you remember seeing the word press ""old"" or type ""m"". If you do not remember seeing the word press ""new"" or type ""z"". Please press the space bar or click on continue to begin. ",,,,23,2022-02-12_12h52.56.710,lexical_decision_task_DD_L4,2021.2.3,MacIntel,59.97361161,,,,,,,,,,,,,,,,,,,,,,,,,,,,,,,,,,,,,,,,,,,,,,,,,,,,,,,,,,,,,,,,,,,,4,0,4,0,1,,,,,,,,,,,,,,,
,,,,,,,,,,,,,,,,,,23,2022-02-12_12h52.56.710,lexical_decision_task_DD_L4,2021.2.3,MacIntel,59.97361161,,,,,,,,,,,,3.4108,1,,,,,,,,,,,,,,,,,,,,,,,,0.113176384,-0.414586829,0,0,0,,,,,,,BOXER,HB,m,y,./images/BOXERHB.png,,,,,,,,,,,,,,,,,,,,,m,1,3.4108,,,,,,,,0,0,0,4,1
,,,,,,,,,,,,,,,,,,23,2022-02-12_12h52.56.710,lexical_decision_task_DD_L4,2021.2.3,MacIntel,59.97361161,,,,,,,,,,,,0.8368,0,,,,,,,,,,,,,,,,,,,,,,,,0.113176384,-0.414586829,0,0,0,,,,,,,BARREL,LB,z,y,./images/BARRELLB.png,,,,,,,,,,,,,,,,,,,,,m,0,0.8368,,,,,,,,0,1,1,116,1
,,,,,,,,,,,,,,,,,,23,2022-02-12_12h52.56.710,lexical_decision_task_DD_L4,2021.2.3,MacIntel,59.97361161,,,,,,,,,,,,3.2058,1,,,,,,,,,,,,,,,,,,,,,,,,0.113176384,-0.414586829,0,0,0,,,,,,,SQUARE,C,z,y,./images/SQUARE.png,,,,,,,,,,,,,,,,,,,,,z,1,3.2058,,,,,,,,0,2,2,90,1
,,,,,,,,,,,,,,,,,,23,2022-02-12_12h52.56.710,lexical_decision_task_DD_L4,2021.2.3,MacIntel,59.97361161,,,,,,,,,,,,0.8858,1,,,,,,,,,,,,,,,,,,,,,,,,0.113176384,-0.414586829,0,0,0,,,,,,,DANCER,C,m,y,./images/DANCER.png,,,,,,,,,,,,,,,,,,,,,m,1,0.8858,,,,,,,,0,3,3,21,1
,,,,,,,,,,,,,,,,,,23,2022-02-12_12h52.56.710,lexical_decision_task_DD_L4,2021.2.3,MacIntel,59.97361161,,,,,,,,,,,,1.0496,1,,,,,,,,,,,,,,,,,,,,,,,,0.113176384,-0.414586829,0,0,0,,,,,,,SNACK,HB,z,y,./images/SNACKHB.png,,,,,,,,,,,,,,,,,,,,,z,1,1.0496,,,,,,,,0,4,4,157,1
,,,,,,,,,,,,,,,,,,23,2022-02-12_12h52.56.710,lexical_decision_task_DD_L4,2021.2.3,MacIntel,59.97361161,,,,,,,,,,,,0.8128,1,,,,,,,,,,,,,,,,,,,,,,,,0.113176384,-0.414586829,0,0,0,,,,,,,JAGUAR,C,z,y,./images/JAGUAR.png,,,,,,,,,,,,,,,,,,,,,z,1,0.8128,,,,,,,,0,5,5,102,1
,,,,,,,,,,,,,,,,,,23,2022-02-12_12h52.56.710,lexical_decision_task_DD_L4,2021.2.3,MacIntel,59.97361161,,,,,,,,,,,,0.6785,1,,,,,,,,,,,,,,,,,,,,,,,,0.113176384,-0.414586829,0,0,0,,,,,,,SKIING,LB,z,y,./images/SKIINGLB.png,,,,,,,,,,,,,,,,,,,,,z,1,0.6785,,,,,,,,0,6,6,101,1
,,,,,,,,,,,,,,,,,,23,2022-02-12_12h52.56.710,lexical_decision_task_DD_L4,2021.2.3,MacIntel,59.97361161,,,,,,,,,,,,0.633,1,,,,,,,,,,,,,,,,,,,,,,,,0.113176384,-0.414586829,0,0,0,,,,,,,MEDAL,LB,m,y,./images/MEDALLB.png,,,,,,,,,,,,,,,,,,,,,m,1,0.633,,,,,,,,0,7,7,11,1
,,,,,,,,,,,,,,,,,,23,2022-02-12_12h52.56.710,lexical_decision_task_DD_L4,2021.2.3,MacIntel,59.97361161,,,,,,,,,,,,0.6214,1,,,,,,,,,,,,,,,,,,,,,,,,0.113176384,-0.414586829,0,0,0,,,,,,,DESERT,HB,m,y,./images/DESERTHB.png,,,,,,,,,,,,,,,,,,,,,m,1,0.6214,,,,,,,,0,8,8,52,1
,,,,,,,,,,,,,,,,,,23,2022-02-12_12h52.56.710,lexical_decision_task_DD_L4,2021.2.3,MacIntel,59.97361161,,,,,,,,,,,,1.6288,0,,,,,,,,,,,,,,,,,,,,,,,,0.113176384,-0.414586829,0,0,0,,,,,,,BABOON,HB,z,y,./images/BABOONHB.png,,,,,,,,,,,,,,,,,,,,,m,0,1.6288,,,,,,,,0,9,9,142,1
,,,,,,,,,,,,,,,,,,23,2022-02-12_12h52.56.710,lexical_decision_task_DD_L4,2021.2.3,MacIntel,59.97361161,,,,,,,,,,,,0.7054,0,,,,,,,,,,,,,,,,,,,,,,,,0.113176384,-0.414586829,0,0,0,,,,,,,SMOKER,LB,z,y,./images/SMOKERLB.png,,,,,,,,,,,,,,,,,,,,,m,0,0.7054,,,,,,,,0,10,10,110,1
,,,,,,,,,,,,,,,,,,23,2022-02-12_12h52.56.710,lexical_decision_task_DD_L4,2021.2.3,MacIntel,59.97361161,,,,,,,,,,,,0.6873,1,,,,,,,,,,,,,,,,,,,,,,,,0.113176384,-0.414586829,0,0,0,,,,,,,POSTER,LB,m,y,./images/POSTERLB.png,,,,,,,,,,,,,,,,,,,,,m,1,0.6873,,,,,,,,0,11,11,53,1
,,,,,,,,,,,,,,,,,,23,2022-02-12_12h52.56.710,lexical_decision_task_DD_L4,2021.2.3,MacIntel,59.97361161,,,,,,,,,,,,0.6283,1,,,,,,,,,,,,,,,,,,,,,,,,0.113176384,-0.414586829,0,0,0,,,,,,,DOUGH,HB,z,y,./images/DOUGHHB.png,,,,,,,,,,,,,,,,,,,,,z,1,0.6283,,,,,,,,0,12,12,103,1
,,,,,,,,,,,,,,,,,,23,2022-02-12_12h52.56.710,lexical_decision_task_DD_L4,2021.2.3,MacIntel,59.97361161,,,,,,,,,,,,0.7149,1,,,,,,,,,,,,,,,,,,,,,,,,0.113176384,-0.414586829,0,0,0,,,,,,,CARPET,LB,z,y,./images/CARPETLB.png,,,,,,,,,,,,,,,,,,,,,z,1,0.7149,,,,,,,,0,13,13,137,1
,,,,,,,,,,,,,,,,,,23,2022-02-12_12h52.56.710,lexical_decision_task_DD_L4,2021.2.3,MacIntel,59.97361161,,,,,,,,,,,,0.6394,1,,,,,,,,,,,,,,,,,,,,,,,,0.113176384,-0.414586829,0,0,0,,,,,,,CANYON,HB,z,y,./images/CANYONHB.png,,,,,,,,,,,,,,,,,,,,,z,1,0.6394,,,,,,,,0,14,14,118,1
,,,,,,,,,,,,,,,,,,23,2022-02-12_12h52.56.710,lexical_decision_task_DD_L4,2021.2.3,MacIntel,59.97361161,,,,,,,,,,,,0.6478,1,,,,,,,,,,,,,,,,,,,,,,,,0.113176384,-0.414586829,0,0,0,,,,,,,SAUNA,C,m,y,./images/SAUNA.png,,,,,,,,,,,,,,,,,,,,,m,1,0.6478,,,,,,,,0,15,15,33,1
,,,,,,,,,,,,,,,,,,23,2022-02-12_12h52.56.710,lexical_decision_task_DD_L4,2021.2.3,MacIntel,59.97361161,,,,,,,,,,,,0.6897,1,,,,,,,,,,,,,,,,,,,,,,,,0.113176384,-0.414586829,0,0,0,,,,,,,WAGON,HB,m,y,./images/WAGONHB.png,,,,,,,,,,,,,,,,,,,,,m,1,0.6897,,,,,,,,0,16,16,7,1
,,,,,,,,,,,,,,,,,,23,2022-02-12_12h52.56.710,lexical_decision_task_DD_L4,2021.2.3,MacIntel,59.97361161,,,,,,,,,,,,0.94,1,,,,,,,,,,,,,,,,,,,,,,,,0.113176384,-0.414586829,0,0,0,,,,,,,STOOL,HB,m,y,./images/STOOLHB.png,,,,,,,,,,,,,,,,,,,,,m,1,0.94,,,,,,,,0,17,17,43,1
,,,,,,,,,,,,,,,,,,23,2022-02-12_12h52.56.710,lexical_decision_task_DD_L4,2021.2.3,MacIntel,59.97361161,,,,,,,,,,,,0.8316,0,,,,,,,,,,,,,,,,,,,,,,,,0.113176384,-0.414586829,0,0,0,,,,,,,BEARD,LB,z,y,./images/BEARDLB.png,,,,,,,,,,,,,,,,,,,,,m,0,0.8316,,,,,,,,0,18,18,86,1
,,,,,,,,,,,,,,,,,,23,2022-02-12_12h52.56.710,lexical_decision_task_DD_L4,2021.2.3,MacIntel,59.97361161,,,,,,,,,,,,2.0296,0,,,,,,,,,,,,,,,,,,,,,,,,0.113176384,-0.414586829,0,0,0,,,,,,,PAINT,HB,z,y,./images/PAINTHB.png,,,,,,,,,,,,,,,,,,,,,m,0,2.0296,,,,,,,,0,19,19,91,1
,,,,,,,,,,,,,,,,,,23,2022-02-12_12h52.56.710,lexical_decision_task_DD_L4,2021.2.3,MacIntel,59.97361161,,,,,,,,,,,,0.5879,1,,,,,,,,,,,,,,,,,,,,,,,,0.113176384,-0.414586829,0,0,0,,,,,,,BELLY,HB,z,y,./images/BELLYHB.png,,,,,,,,,,,,,,,,,,,,,z,1,0.5879,,,,,,,,0,20,20,94,1
,,,,,,,,,,,,,,,,,,23,2022-02-12_12h52.56.710,lexical_decision_task_DD_L4,2021.2.3,MacIntel,59.97361161,,,,,,,,,,,,0.7197,1,,,,,,,,,,,,,,,,,,,,,,,,0.113176384,-0.414586829,0,0,0,,,,,,,DRUMS,HB,z,y,./images/DRUMSHB.png,,,,,,,,,,,,,,,,,,,,,z,1,0.7197,,,,,,,,0,21,21,133,1
,,,,,,,,,,,,,,,,,,23,2022-02-12_12h52.56.710,lexical_decision_task_DD_L4,2021.2.3,MacIntel,59.97361161,,,,,,,,,,,,0.6868,1,,,,,,,,,,,,,,,,,,,,,,,,0.113176384,-0.414586829,0,0,0,,,,,,,BISHOP,HB,m,y,./images/BISHOPHB.png,,,,,,,,,,,,,,,,,,,,,m,1,0.6868,,,,,,,,0,22,22,49,1
,,,,,,,,,,,,,,,,,,23,2022-02-12_12h52.56.710,lexical_decision_task_DD_L4,2021.2.3,MacIntel,59.97361161,,,,,,,,,,,,0.5542,1,,,,,,,,,,,,,,,,,,,,,,,,0.113176384,-0.414586829,0,0,0,,,,,,,SAUCE,C,m,y,./images/SAUCE.png,,,,,,,,,,,,,,,,,,,,,m,1,0.5542,,,,,,,,0,23,23,51,1
,,,,,,,,,,,,,,,,,,23,2022-02-12_12h52.56.710,lexical_decision_task_DD_L4,2021.2.3,MacIntel,59.97361161,,,,,,,,,,,,0.7979,1,,,,,,,,,,,,,,,,,,,,,,,,0.113176384,-0.414586829,0,0,0,,,,,,,FLASK,C,m,y,./images/FLASK.png,,,,,,,,,,,,,,,,,,,,,m,1,0.7979,,,,,,,,0,24,24,72,1
,,,,,,,,,,,,,,,,,,23,2022-02-12_12h52.56.710,lexical_decision_task_DD_L4,2021.2.3,MacIntel,59.97361161,,,,,,,,,,,,0.9658,1,,,,,,,,,,,,,,,,,,,,,,,,0.113176384,-0.414586829,0,0,0,,,,,,,CHAIN,C,m,y,./images/CHAIN.png,,,,,,,,,,,,,,,,,,,,,m,1,0.9658,,,,,,,,0,25,25,42,1
,,,,,,,,,,,,,,,,,,23,2022-02-12_12h52.56.710,lexical_decision_task_DD_L4,2021.2.3,MacIntel,59.97361161,,,,,,,,,,,,0.5573,1,,,,,,,,,,,,,,,,,,,,,,,,0.113176384,-0.414586829,0,0,0,,,,,,,JUNGLE,LB,z,y,./images/JUNGLELB.png,,,,,,,,,,,,,,,,,,,,,z,1,0.5573,,,,,,,,0,26,26,167,1
,,,,,,,,,,,,,,,,,,23,2022-02-12_12h52.56.710,lexical_decision_task_DD_L4,2021.2.3,MacIntel,59.97361161,,,,,,,,,,,,0.6236,1,,,,,,,,,,,,,,,,,,,,,,,,0.113176384,-0.414586829,0,0,0,,,,,,,CLOWN,HB,m,y,./images/CLOWNHB.png,,,,,,,,,,,,,,,,,,,,,m,1,0.6236,,,,,,,,0,27,27,22,1
,,,,,,,,,,,,,,,,,,23,2022-02-12_12h52.56.710,lexical_decision_task_DD_L4,2021.2.3,MacIntel,59.97361161,,,,,,,,,,,,0.7466,1,,,,,,,,,,,,,,,,,,,,,,,,0.113176384,-0.414586829,0,0,0,,,,,,,PISTOL,LB,m,y,./images/PISTOLLB.png,,,,,,,,,,,,,,,,,,,,,m,1,0.7466,,,,,,,,0,28,28,29,1
,,,,,,,,,,,,,,,,,,23,2022-02-12_12h52.56.710,lexical_decision_task_DD_L4,2021.2.3,MacIntel,59.97361161,,,,,,,,,,,,0.5993,1,,,,,,,,,,,,,,,,,,,,,,,,0.113176384,-0.414586829,0,0,0,,,,,,,BROOM,C,m,y,./images/BROOM.png,,,,,,,,,,,,,,,,,,,,,m,1,0.5993,,,,,,,,0,29,29,78,1
,,,,,,,,,,,,,,,,,,23,2022-02-12_12h52.56.710,lexical_decision_task_DD_L4,2021.2.3,MacIntel,59.97361161,,,,,,,,,,,,0.7741,1,,,,,,,,,,,,,,,,,,,,,,,,0.113176384,-0.414586829,0,0,0,,,,,,,MONKEY,C,m,y,./images/MONKEY.png,,,,,,,,,,,,,,,,,,,,,m,1,0.7741,,,,,,,,0,30,30,45,1
,,,,,,,,,,,,,,,,,,23,2022-02-12_12h52.56.710,lexical_decision_task_DD_L4,2021.2.3,MacIntel,59.97361161,,,,,,,,,,,,0.5566,0,,,,,,,,,,,,,,,,,,,,,,,,0.113176384,-0.414586829,0,0,0,,,,,,,BOILER,C,m,y,./images/BOILER.png,,,,,,,,,,,,,,,,,,,,,z,0,0.5566,,,,,,,,0,31,31,36,1
,,,,,,,,,,,,,,,,,,23,2022-02-12_12h52.56.710,lexical_decision_task_DD_L4,2021.2.3,MacIntel,59.97361161,,,,,,,,,,,,0.7516,1,,,,,,,,,,,,,,,,,,,,,,,,0.113176384,-0.414586829,0,0,0,,,,,,,SLOPE,C,m,y,./images/SLOPE.png,,,,,,,,,,,,,,,,,,,,,m,1,0.7516,,,,,,,,0,32,32,30,1
,,,,,,,,,,,,,,,,,,23,2022-02-12_12h52.56.710,lexical_decision_task_DD_L4,2021.2.3,MacIntel,59.97361161,,,,,,,,,,,,0.6796,1,,,,,,,,,,,,,,,,,,,,,,,,0.113176384,-0.414586829,0,0,0,,,,,,,SPINE,LB,m,y,./images/SPINELB.png,,,,,,,,,,,,,,,,,,,,,m,1,0.6796,,,,,,,,0,33,33,65,1
,,,,,,,,,,,,,,,,,,23,2022-02-12_12h52.56.710,lexical_decision_task_DD_L4,2021.2.3,MacIntel,59.97361161,,,,,,,,,,,,0.6848,1,,,,,,,,,,,,,,,,,,,,,,,,0.113176384,-0.414586829,0,0,0,,,,,,,PEACH,LB,z,y,./images/PEACHLB.png,,,,,,,,,,,,,,,,,,,,,z,1,0.6848,,,,,,,,0,34,34,119,1
,,,,,,,,,,,,,,,,,,23,2022-02-12_12h52.56.710,lexical_decision_task_DD_L4,2021.2.3,MacIntel,59.97361161,,,,,,,,,,,,0.8643,0,,,,,,,,,,,,,,,,,,,,,,,,0.113176384,-0.414586829,0,0,0,,,,,,,ALLEY,HB,m,y,./images/ALLEYHB.png,,,,,,,,,,,,,,,,,,,,,z,0,0.8643,,,,,,,,0,35,35,55,1
,,,,,,,,,,,,,,,,,,23,2022-02-12_12h52.56.710,lexical_decision_task_DD_L4,2021.2.3,MacIntel,59.97361161,,,,,,,,,,,,0.7302,1,,,,,,,,,,,,,,,,,,,,,,,,0.113176384,-0.414586829,0,0,0,,,,,,,LITTER,C,z,y,./images/LITTER.png,,,,,,,,,,,,,,,,,,,,,z,1,0.7302,,,,,,,,0,36,36,162,1
,,,,,,,,,,,,,,,,,,23,2022-02-12_12h52.56.710,lexical_decision_task_DD_L4,2021.2.3,MacIntel,59.97361161,,,,,,,,,,,,2.499,0,,,,,,,,,,,,,,,,,,,,,,,,0.113176384,-0.414586829,0,0,0,,,,,,,HAMMER,C,m,y,./images/HAMMER.png,,,,,,,,,,,,,,,,,,,,,z,0,2.499,,,,,,,,0,37,37,75,1
,,,,,,,,,,,,,,,,,,23,2022-02-12_12h52.56.710,lexical_decision_task_DD_L4,2021.2.3,MacIntel,59.97361161,,,,,,,,,,,,0.7153,1,,,,,,,,,,,,,,,,,,,,,,,,0.113176384,-0.414586829,0,0,0,,,,,,,STREAM,LB,m,y,./images/STREAMLB.png,,,,,,,,,,,,,,,,,,,,,m,1,0.7153,,,,,,,,0,38,38,41,1
,,,,,,,,,,,,,,,,,,23,2022-02-12_12h52.56.710,lexical_decision_task_DD_L4,2021.2.3,MacIntel,59.97361161,,,,,,,,,,,,0.9683,1,,,,,,,,,,,,,,,,,,,,,,,,0.113176384,-0.414586829,0,0,0,,,,,,,CRUST,HB,z,y,./images/CRUSTHB.png,,,,,,,,,,,,,,,,,,,,,z,1,0.9683,,,,,,,,0,39,39,163,1
,,,,,,,,,,,,,,,,,,23,2022-02-12_12h52.56.710,lexical_decision_task_DD_L4,2021.2.3,MacIntel,59.97361161,,,,,,,,,,,,0.758,1,,,,,,,,,,,,,,,,,,,,,,,,0.113176384,-0.414586829,0,0,0,,,,,,,PARCEL,C,m,y,./images/PARCEL.png,,,,,,,,,,,,,,,,,,,,,m,1,0.758,,,,,,,,0,40,40,18,1
,,,,,,,,,,,,,,,,,,23,2022-02-12_12h52.56.710,lexical_decision_task_DD_L4,2021.2.3,MacIntel,59.97361161,,,,,,,,,,,,0.7645,0,,,,,,,,,,,,,,,,,,,,,,,,0.027289912,-0.401667783,1,0,0,,,,,,,BLOKE,C,m,y,./images/BLOKE.png,,break_done_button,,,,,,,,,,,,,,,,,,,z,0,0.7645,,,,,,,,0,41,41,12,1
,,,,,,,,,,,,,,,,,,23,2022-02-12_12h52.56.710,lexical_decision_task_DD_L4,2021.2.3,MacIntel,59.97361161,,,,,,,,,,,,0.9975,0,,,,,,,,,,,,,,,,,,,,,,,,0.027289912,-0.401308863,0,0,0,,,,,,,JELLY,HB,z,y,./images/JELLYHB.png,,,,,,,,,,,,,,,,,,,,,m,0,0.9975,,,,,,,,0,42,42,148,1
,,,,,,,,,,,,,,,,,,23,2022-02-12_12h52.56.710,lexical_decision_task_DD_L4,2021.2.3,MacIntel,59.97361161,,,,,,,,,,,,0.8315,1,,,,,,,,,,,,,,,,,,,,,,,,0.027289912,-0.401308863,0,0,0,,,,,,,BIRTH,HB,z,y,./images/BIRTHHB.png,,,,,,,,,,,,,,,,,,,,,z,1,0.8315,,,,,,,,0,43,43,121,1
,,,,,,,,,,,,,,,,,,23,2022-02-12_12h52.56.710,lexical_decision_task_DD_L4,2021.2.3,MacIntel,59.97361161,,,,,,,,,,,,5.5149,1,,,,,,,,,,,,,,,,,,,,,,,,0.027289912,-0.401308863,0,0,0,,,,,,,BRUSH,LB,m,y,./images/BRUSHLB.png,,,,,,,,,,,,,,,,,,,,,m,1,5.5149,,,,,,,,0,44,44,59,1
,,,,,,,,,,,,,,,,,,23,2022-02-12_12h52.56.710,lexical_decision_task_DD_L4,2021.2.3,MacIntel,59.97361161,,,,,,,,,,,,1.0688,1,,,,,,,,,,,,,,,,,,,,,,,,0.027289912,-0.401308863,0,0,0,,,,,,,GRAPE,HB,m,y,./images/GRAPEHB.png,,,,,,,,,,,,,,,,,,,,,m,1,1.0688,,,,,,,,0,45,45,16,1
,,,,,,,,,,,,,,,,,,23,2022-02-12_12h52.56.710,lexical_decision_task_DD_L4,2021.2.3,MacIntel,59.97361161,,,,,,,,,,,,0.6973,1,,,,,,,,,,,,,,,,,,,,,,,,0.027289912,-0.401308863,0,0,0,,,,,,,CRATER,C,m,y,./images/CRATER.png,,,,,,,,,,,,,,,,,,,,,m,1,0.6973,,,,,,,,0,46,46,3,1
,,,,,,,,,,,,,,,,,,23,2022-02-12_12h52.56.710,lexical_decision_task_DD_L4,2021.2.3,MacIntel,59.97361161,,,,,,,,,,,,0.7797,1,,,,,,,,,,,,,,,,,,,,,,,,0.027289912,-0.401308863,0,0,0,,,,,,,CLIFF,LB,m,y,./images/CLIFFLB.png,,,,,,,,,,,,,,,,,,,,,m,1,0.7797,,,,,,,,0,47,47,8,1
,,,,,,,,,,,,,,,,,,23,2022-02-12_12h52.56.710,lexical_decision_task_DD_L4,2021.2.3,MacIntel,59.97361161,,,,,,,,,,,,0.734,0,,,,,,,,,,,,,,,,,,,,,,,,0.027289912,-0.401308863,0,0,0,,,,,,,WRIST,HB,z,y,./images/WRISTHB.png,,,,,,,,,,,,,,,,,,,,,m,0,0.734,,,,,,,,0,48,48,109,1
,,,,,,,,,,,,,,,,,,23,2022-02-12_12h52.56.710,lexical_decision_task_DD_L4,2021.2.3,MacIntel,59.97361161,,,,,,,,,,,,0.5817,1,,,,,,,,,,,,,,,,,,,,,,,,0.027289912,-0.401308863,0,0,0,,,,,,,MAGGOT,C,z,y,./images/MAGGOT.png,,,,,,,,,,,,,,,,,,,,,z,1,0.5817,,,,,,,,0,49,49,117,1
,,,,,,,,,,,,,,,,,,23,2022-02-12_12h52.56.710,lexical_decision_task_DD_L4,2021.2.3,MacIntel,59.97361161,,,,,,,,,,,,0.5126,0,,,,,,,,,,,,,,,,,,,,,,,,0.027289912,-0.401308863,0,0,0,,,,,,,CURRY,C,m,y,./images/CURRY.png,,,,,,,,,,,,,,,,,,,,,z,0,0.5126,,,,,,,,0,50,50,60,1
,,,,,,,,,,,,,,,,,,23,2022-02-12_12h52.56.710,lexical_decision_task_DD_L4,2021.2.3,MacIntel,59.97361161,,,,,,,,,,,,0.5639,1,,,,,,,,,,,,,,,,,,,,,,,,0.027289912,-0.401308863,0,0,0,,,,,,,PACKET,LB,z,y,./images/PACKETLB.png,,,,,,,,,,,,,,,,,,,,,z,1,0.5639,,,,,,,,0,51,51,140,1
,,,,,,,,,,,,,,,,,,23,2022-02-12_12h52.56.710,lexical_decision_task_DD_L4,2021.2.3,MacIntel,59.97361161,,,,,,,,,,,,0.6483,1,,,,,,,,,,,,,,,,,,,,,,,,0.027289912,-0.401308863,0,0,0,,,,,,,COUCH,LB,z,y,./images/COUCHLB.png,,,,,,,,,,,,,,,,,,,,,z,1,0.6483,,,,,,,,0,52,52,161,1
,,,,,,,,,,,,,,,,,,23,2022-02-12_12h52.56.710,lexical_decision_task_DD_L4,2021.2.3,MacIntel,59.97361161,,,,,,,,,,,,0.9469,0,,,,,,,,,,,,,,,,,,,,,,,,0.027289912,-0.401308863,0,0,0,,,,,,,CANDLE,HB,z,y,./images/CANDLEHB.png,,,,,,,,,,,,,,,,,,,,,m,0,0.9469,,,,,,,,0,53,53,145,1
,,,,,,,,,,,,,,,,,,23,2022-02-12_12h52.56.710,lexical_decision_task_DD_L4,2021.2.3,MacIntel,59.97361161,,,,,,,,,,,,0.534,0,,,,,,,,,,,,,,,,,,,,,,,,0.027289912,-0.401308863,0,0,0,,,,,,,TIGER,HB,m,y,./images/TIGERHB.png,,,,,,,,,,,,,,,,,,,,,z,0,0.534,,,,,,,,0,54,54,37,1
,,,,,,,,,,,,,,,,,,23,2022-02-12_12h52.56.710,lexical_decision_task_DD_L4,2021.2.3,MacIntel,59.97361161,,,,,,,,,,,,0.6654,1,,,,,,,,,,,,,,,,,,,,,,,,0.027289912,-0.401308863,0,0,0,,,,,,,WEASEL,LB,z,y,./images/WEASELLB.png,,,,,,,,,,,,,,,,,,,,,z,1,0.6654,,,,,,,,0,55,55,164,1
,,,,,,,,,,,,,,,,,,23,2022-02-12_12h52.56.710,lexical_decision_task_DD_L4,2021.2.3,MacIntel,59.97361161,,,,,,,,,,,,0.6307,1,,,,,,,,,,,,,,,,,,,,,,,,0.027289912,-0.401308863,0,0,0,,,,,,,BRIDE,HB,m,y,./images/BRIDEHB.png,,,,,,,,,,,,,,,,,,,,,m,1,0.6307,,,,,,,,0,56,56,64,1
,,,,,,,,,,,,,,,,,,23,2022-02-12_12h52.56.710,lexical_decision_task_DD_L4,2021.2.3,MacIntel,59.97361161,,,,,,,,,,,,0.7664,0,,,,,,,,,,,,,,,,,,,,,,,,0.027289912,-0.401308863,0,0,0,,,,,,,CASINO,HB,m,y,./images/CASINOHB.png,,,,,,,,,,,,,,,,,,,,,z,0,0.7664,,,,,,,,0,57,57,28,1
,,,,,,,,,,,,,,,,,,23,2022-02-12_12h52.56.710,lexical_decision_task_DD_L4,2021.2.3,MacIntel,59.97361161,,,,,,,,,,,,0.566,1,,,,,,,,,,,,,,,,,,,,,,,,0.027289912,-0.401308863,0,0,0,,,,,,,BAMBOO,LB,m,y,./images/BAMBOOLB.png,,,,,,,,,,,,,,,,,,,,,m,1,0.566,,,,,,,,0,58,58,5,1
,,,,,,,,,,,,,,,,,,23,2022-02-12_12h52.56.710,lexical_decision_task_DD_L4,2021.2.3,MacIntel,59.97361161,,,,,,,,,,,,0.9171,0,,,,,,,,,,,,,,,,,,,,,,,,0.027289912,-0.401308863,0,0,0,,,,,,,CANDY,C,m,y,./images/CANDY.png,,,,,,,,,,,,,,,,,,,,,z,0,0.9171,,,,,,,,0,59,59,39,1
,,,,,,,,,,,,,,,,,,23,2022-02-12_12h52.56.710,lexical_decision_task_DD_L4,2021.2.3,MacIntel,59.97361161,,,,,,,,,,,,0.6005,1,,,,,,,,,,,,,,,,,,,,,,,,0.027289912,-0.401308863,0,0,0,,,,,,,SHORE,C,z,y,./images/SHORE.png,,,,,,,,,,,,,,,,,,,,,z,1,0.6005,,,,,,,,0,60,60,96,1
,,,,,,,,,,,,,,,,,,23,2022-02-12_12h52.56.710,lexical_decision_task_DD_L4,2021.2.3,MacIntel,59.97361161,,,,,,,,,,,,0.581,1,,,,,,,,,,,,,,,,,,,,,,,,0.027289912,-0.401308863,0,0,0,,,,,,,INFANT,HB,z,y,./images/INFANTHB.png,,,,,,,,,,,,,,,,,,,,,z,1,0.581,,,,,,,,0,61,61,160,1
,,,,,,,,,,,,,,,,,,23,2022-02-12_12h52.56.710,lexical_decision_task_DD_L4,2021.2.3,MacIntel,59.97361161,,,,,,,,,,,,0.599,1,,,,,,,,,,,,,,,,,,,,,,,,0.027289912,-0.401308863,0,0,0,,,,,,,FERRY,C,m,y,./images/FERRY.png,,,,,,,,,,,,,,,,,,,,,m,1,0.599,,,,,,,,0,62,62,57,1
,,,,,,,,,,,,,,,,,,23,2022-02-12_12h52.56.710,lexical_decision_task_DD_L4,2021.2.3,MacIntel,59.97361161,,,,,,,,,,,,0.7476,0,,,,,,,,,,,,,,,,,,,,,,,,0.027289912,-0.401308863,0,0,0,,,,,,,ARTIST,HB,m,y,./images/ARTISTHB.png,,,,,,,,,,,,,,,,,,,,,z,0,0.7476,,,,,,,,0,63,63,61,1
,,,,,,,,,,,,,,,,,,23,2022-02-12_12h52.56.710,lexical_decision_task_DD_L4,2021.2.3,MacIntel,59.97361161,,,,,,,,,,,,0.765,0,,,,,,,,,,,,,,,,,,,,,,,,0.027289912,-0.401308863,0,0,0,,,,,,,STOVE,LB,m,y,./images/STOVELB.png,,,,,,,,,,,,,,,,,,,,,z,0,0.765,,,,,,,,0,64,64,2,1
,,,,,,,,,,,,,,,,,,23,2022-02-12_12h52.56.710,lexical_decision_task_DD_L4,2021.2.3,MacIntel,59.97361161,,,,,,,,,,,,0.6797,0,,,,,,,,,,,,,,,,,,,,,,,,0.027289912,-0.401308863,0,0,0,,,,,,,HOCKEY,LB,m,y,./images/HOCKEYLB.png,,,,,,,,,,,,,,,,,,,,,z,0,0.6797,,,,,,,,0,65,65,32,1
,,,,,,,,,,,,,,,,,,23,2022-02-12_12h52.56.710,lexical_decision_task_DD_L4,2021.2.3,MacIntel,59.97361161,,,,,,,,,,,,0.5658,1,,,,,,,,,,,,,,,,,,,,,,,,0.027289912,-0.401308863,0,0,0,,,,,,,PENCE,HB,z,y,./images/PENCEHB.png,,,,,,,,,,,,,,,,,,,,,z,1,0.5658,,,,,,,,0,66,66,100,1
,,,,,,,,,,,,,,,,,,23,2022-02-12_12h52.56.710,lexical_decision_task_DD_L4,2021.2.3,MacIntel,59.97361161,,,,,,,,,,,,0.553,1,,,,,,,,,,,,,,,,,,,,,,,,0.027289912,-0.401308863,0,0,0,,,,,,,BANNER,HB,z,y,./images/BANNERHB.png,,,,,,,,,,,,,,,,,,,,,z,1,0.553,,,,,,,,0,67,67,136,1
,,,,,,,,,,,,,,,,,,23,2022-02-12_12h52.56.710,lexical_decision_task_DD_L4,2021.2.3,MacIntel,59.97361161,,,,,,,,,,,,0.6315,0,,,,,,,,,,,,,,,,,,,,,,,,0.027289912,-0.401308863,0,0,0,,,,,,,BAKER,C,m,y,./images/BAKER.png,,,,,,,,,,,,,,,,,,,,,z,0,0.6315,,,,,,,,0,68,68,63,1
,,,,,,,,,,,,,,,,,,23,2022-02-12_12h52.56.710,lexical_decision_task_DD_L4,2021.2.3,MacIntel,59.97361161,,,,,,,,,,,,0.5595,1,,,,,,,,,,,,,,,,,,,,,,,,0.027289912,-0.401308863,0,0,0,,,,,,,CHERRY,C,m,y,./images/CHERRY.png,,,,,,,,,,,,,,,,,,,,,m,1,0.5595,,,,,,,,0,69,69,54,1
,,,,,,,,,,,,,,,,,,23,2022-02-12_12h52.56.710,lexical_decision_task_DD_L4,2021.2.3,MacIntel,59.97361161,,,,,,,,,,,,0.7162,1,,,,,,,,,,,,,,,,,,,,,,,,0.027289912,-0.401308863,0,0,0,,,,,,,MIDGET,HB,m,y,./images/MIDGETHB.png,,,,,,,,,,,,,,,,,,,,,m,1,0.7162,,,,,,,,0,70,70,76,1
,,,,,,,,,,,,,,,,,,23,2022-02-12_12h52.56.710,lexical_decision_task_DD_L4,2021.2.3,MacIntel,59.97361161,,,,,,,,,,,,0.6305,1,,,,,,,,,,,,,,,,,,,,,,,,0.027289912,-0.401308863,0,0,0,,,,,,,PEBBLE,HB,m,y,./images/PEBBLEHB.png,,,,,,,,,,,,,,,,,,,,,m,1,0.6305,,,,,,,,0,71,71,82,1
,,,,,,,,,,,,,,,,,,23,2022-02-12_12h52.56.710,lexical_decision_task_DD_L4,2021.2.3,MacIntel,59.97361161,,,,,,,,,,,,0.7361,1,,,,,,,,,,,,,,,,,,,,,,,,0.027289912,-0.401308863,0,0,0,,,,,,,PASTA,LB,z,y,./images/PASTALB.png,,,,,,,,,,,,,,,,,,,,,z,1,0.7361,,,,,,,,0,72,72,89,1
,,,,,,,,,,,,,,,,,,23,2022-02-12_12h52.56.710,lexical_decision_task_DD_L4,2021.2.3,MacIntel,59.97361161,,,,,,,,,,,,0.732,0,,,,,,,,,,,,,,,,,,,,,,,,0.027289912,-0.401308863,0,0,0,,,,,,,FENCE,LB,m,y,./images/FENCELB.png,,,,,,,,,,,,,,,,,,,,,z,0,0.732,,,,,,,,0,73,73,14,1
,,,,,,,,,,,,,,,,,,23,2022-02-12_12h52.56.710,lexical_decision_task_DD_L4,2021.2.3,MacIntel,59.97361161,,,,,,,,,,,,0.7477,0,,,,,,,,,,,,,,,,,,,,,,,,0.027289912,-0.401308863,0,0,0,,,,,,,STEAK,HB,m,y,./images/STEAKHB.png,,,,,,,,,,,,,,,,,,,,,z,0,0.7477,,,,,,,,0,74,74,31,1
,,,,,,,,,,,,,,,,,,23,2022-02-12_12h52.56.710,lexical_decision_task_DD_L4,2021.2.3,MacIntel,59.97361161,,,,,,,,,,,,0.7142,0,,,,,,,,,,,,,,,,,,,,,,,,0.027289912,-0.401308863,0,0,0,,,,,,,BONNET,LB,z,y,./images/BONNETLB.png,,,,,,,,,,,,,,,,,,,,,m,0,0.7142,,,,,,,,0,75,75,95,1
,,,,,,,,,,,,,,,,,,23,2022-02-12_12h52.56.710,lexical_decision_task_DD_L4,2021.2.3,MacIntel,59.97361161,,,,,,,,,,,,0.6487,0,,,,,,,,,,,,,,,,,,,,,,,,0.027289912,-0.401308863,0,0,0,,,,,,,COOKER,C,z,y,./images/COOKER.png,,,,,,,,,,,,,,,,,,,,,m,0,0.6487,,,,,,,,0,76,76,153,1
,,,,,,,,,,,,,,,,,,23,2022-02-12_12h52.56.710,lexical_decision_task_DD_L4,2021.2.3,MacIntel,59.97361161,,,,,,,,,,,,0.6653,1,,,,,,,,,,,,,,,,,,,,,,,,0.027289912,-0.401308863,0,0,0,,,,,,,MALLET,LB,z,y,./images/MALLETLB.png,,,,,,,,,,,,,,,,,,,,,z,1,0.6653,,,,,,,,0,77,77,134,1
,,,,,,,,,,,,,,,,,,23,2022-02-12_12h52.56.710,lexical_decision_task_DD_L4,2021.2.3,MacIntel,59.97361161,,,,,,,,,,,,0.6163,0,,,,,,,,,,,,,,,,,,,,,,,,0.027289912,-0.401308863,0,0,0,,,,,,,BUTTER,C,m,y,./images/BUTTER.png,,,,,,,,,,,,,,,,,,,,,z,0,0.6163,,,,,,,,0,78,78,27,1
,,,,,,,,,,,,,,,,,,23,2022-02-12_12h52.56.710,lexical_decision_task_DD_L4,2021.2.3,MacIntel,59.97361161,,,,,,,,,,,,0.6327,0,,,,,,,,,,,,,,,,,,,,,,,,0.027289912,-0.401308863,0,0,0,,,,,,,MUMMY,HB,m,y,./images/MUMMYHB.png,,,,,,,,,,,,,,,,,,,,,z,0,0.6327,,,,,,,,0,79,79,46,1
,,,,,,,,,,,,,,,,,,23,2022-02-12_12h52.56.710,lexical_decision_task_DD_L4,2021.2.3,MacIntel,59.97361161,,,,,,,,,,,,0.7478,1,,,,,,,,,,,,,,,,,,,,,,,,0.027289912,-0.401308863,0,0,0,,,,,,,KITTEN,C,z,y,./images/KITTEN.png,,,,,,,,,,,,,,,,,,,,,z,1,0.7478,,,,,,,,0,80,80,129,1
,,,,,,,,,,,,,,,,,,23,2022-02-12_12h52.56.710,lexical_decision_task_DD_L4,2021.2.3,MacIntel,59.97361161,,,,,,,,,,,,1.0804,0,,,,,,,,,,,,,,,,,,,,,,,,0.027289912,-0.401308863,0,0,0,,,,,,,SWING,HB,z,y,./images/SWINGHB.png,,,,,,,,,,,,,,,,,,,,,m,0,1.0804,,,,,,,,0,81,81,124,1
,,,,,,,,,,,,,,,,,,23,2022-02-12_12h52.56.710,lexical_decision_task_DD_L4,2021.2.3,MacIntel,59.97361161,,,,,,,,,,,,0.6296,0,,,,,,,,,,,,,,,,,,,,,,,,0.027289912,-0.401308863,0,0,0,,,,,,,PURSE,LB,z,y,./images/PURSELB.png,,,,,,,,,,,,,,,,,,,,,m,0,0.6296,,,,,,,,0,82,82,146,1
,,,,,,,,,,,,,,,,,,23,2022-02-12_12h52.56.710,lexical_decision_task_DD_L4,2021.2.3,MacIntel,59.97361161,,,,,,,,,,,,0.7991,1,,,,,,,,,,,,,,,,,,,,,,,,-0.009248181,-0.402289912,1,0,0,,,,,,,BUNNY,HB,m,y,./images/BUNNYHB.png,,break_done_button,,,,,,,,,,,,,,,,,,,m,1,0.7991,,,,,,,,0,83,83,13,1
,,,,,,,,,,,,,,,,,,23,2022-02-12_12h52.56.710,lexical_decision_task_DD_L4,2021.2.3,MacIntel,59.97361161,,,,,,,,,,,,0.7467,0,,,,,,,,,,,,,,,,,,,,,,,,-0.009248181,-0.402289912,0,0,0,,,,,,,QUILL,HB,z,y,./images/QUILLHB.png,,,,,,,,,,,,,,,,,,,,,m,0,0.7467,,,,,,,,0,84,84,115,1
,,,,,,,,,,,,,,,,,,23,2022-02-12_12h52.56.710,lexical_decision_task_DD_L4,2021.2.3,MacIntel,59.97361161,,,,,,,,,,,,7.4524,1,,,,,,,,,,,,,,,,,,,,,,,,-0.009248181,-0.402289912,0,0,0,,,,,,,SPORT,C,z,y,./images/SPORT.png,,,,,,,,,,,,,,,,,,,,,z,1,7.4524,,,,,,,,0,85,85,132,1
,,,,,,,,,,,,,,,,,,23,2022-02-12_12h52.56.710,lexical_decision_task_DD_L4,2021.2.3,MacIntel,59.97361161,,,,,,,,,,,,1.5176,0,,,,,,,,,,,,,,,,,,,,,,,,-0.009248181,-0.402289912,0,0,0,,,,,,,COLLAR,C,m,y,./images/COLLAR.png,,,,,,,,,,,,,,,,,,,,,z,0,1.5176,,,,,,,,0,86,86,15,1
,,,,,,,,,,,,,,,,,,23,2022-02-12_12h52.56.710,lexical_decision_task_DD_L4,2021.2.3,MacIntel,59.97361161,,,,,,,,,,,,0.9495,0,,,,,,,,,,,,,,,,,,,,,,,,-0.009248181,-0.402289912,0,0,0,,,,,,,MIRROR,C,z,y,./images/MIRROR.png,,,,,,,,,,,,,,,,,,,,,m,0,0.9495,,,,,,,,0,87,87,147,1
,,,,,,,,,,,,,,,,,,23,2022-02-12_12h52.56.710,lexical_decision_task_DD_L4,2021.2.3,MacIntel,59.97361161,,,,,,,,,,,,0.7816,1,,,,,,,,,,,,,,,,,,,,,,,,-0.009248181,-0.402289912,0,0,0,,,,,,,PIMPLE,LB,z,y,./images/PIMPLELB.png,,,,,,,,,,,,,,,,,,,,,z,1,0.7816,,,,,,,,0,88,88,155,1
,,,,,,,,,,,,,,,,,,23,2022-02-12_12h52.56.710,lexical_decision_task_DD_L4,2021.2.3,MacIntel,59.97361161,,,,,,,,,,,,3.0832,1,,,,,,,,,,,,,,,,,,,,,,,,-0.009248181,-0.402289912,0,0,0,,,,,,,STATUE,C,m,y,./images/STATUE.png,,,,,,,,,,,,,,,,,,,,,m,1,3.0832,,,,,,,,0,89,89,66,1
,,,,,,,,,,,,,,,,,,23,2022-02-12_12h52.56.710,lexical_decision_task_DD_L4,2021.2.3,MacIntel,59.97361161,,,,,,,,,,,,0.7209,1,,,,,,,,,,,,,,,,,,,,,,,,-0.009248181,-0.402289912,0,0,0,,,,,,,PICKLE,LB,z,y,./images/PICKLELB.png,,,,,,,,,,,,,,,,,,,,,z,1,0.7209,,,,,,,,0,90,90,98,1
,,,,,,,,,,,,,,,,,,23,2022-02-12_12h52.56.710,lexical_decision_task_DD_L4,2021.2.3,MacIntel,59.97361161,,,,,,,,,,,,0.6486,1,,,,,,,,,,,,,,,,,,,,,,,,-0.009248181,-0.402289912,0,0,0,,,,,,,URINE,HB,z,y,./images/URINEHB.png,,,,,,,,,,,,,,,,,,,,,z,1,0.6486,,,,,,,,0,91,91,154,1
,,,,,,,,,,,,,,,,,,23,2022-02-12_12h52.56.710,lexical_decision_task_DD_L4,2021.2.3,MacIntel,59.97361161,,,,,,,,,,,,1.0648,1,,,,,,,,,,,,,,,,,,,,,,,,-0.009248181,-0.402289912,0,0,0,,,,,,,TOMATO,C,z,y,./images/TOMATO.png,,,,,,,,,,,,,,,,,,,,,z,1,1.0648,,,,,,,,0,92,92,84,1
,,,,,,,,,,,,,,,,,,23,2022-02-12_12h52.56.710,lexical_decision_task_DD_L4,2021.2.3,MacIntel,59.97361161,,,,,,,,,,,,1.1461,1,,,,,,,,,,,,,,,,,,,,,,,,-0.009248181,-0.402289912,0,0,0,,,,,,,PLANK,HB,z,y,./images/PLANKHB.png,,,,,,,,,,,,,,,,,,,,,z,1,1.1461,,,,,,,,0,93,93,85,1
,,,,,,,,,,,,,,,,,,23,2022-02-12_12h52.56.710,lexical_decision_task_DD_L4,2021.2.3,MacIntel,59.97361161,,,,,,,,,,,,0.7295,1,,,,,,,,,,,,,,,,,,,,,,,,-0.009248181,-0.402289912,0,0,0,,,,,,,POKER,HB,m,y,./images/POKERHB.png,,,,,,,,,,,,,,,,,,,,,m,1,0.7295,,,,,,,,0,94,94,67,1
,,,,,,,,,,,,,,,,,,23,2022-02-12_12h52.56.710,lexical_decision_task_DD_L4,2021.2.3,MacIntel,59.97361161,,,,,,,,,,,,0.9655,1,,,,,,,,,,,,,,,,,,,,,,,,-0.009248181,-0.402289912,0,0,0,,,,,,,ONION,C,z,y,./images/ONION.png,,,,,,,,,,,,,,,,,,,,,z,1,0.9655,,,,,,,,0,95,95,135,1
,,,,,,,,,,,,,,,,,,23,2022-02-12_12h52.56.710,lexical_decision_task_DD_L4,2021.2.3,MacIntel,59.97361161,,,,,,,,,,,,0.9658,0,,,,,,,,,,,,,,,,,,,,,,,,-0.009248181,-0.402289912,0,0,0,,,,,,,VALLEY,LB,m,y,./images/VALLEYLB.png,,,,,,,,,,,,,,,,,,,,,z,0,0.9658,,,,,,,,0,96,96,68,1
,,,,,,,,,,,,,,,,,,23,2022-02-12_12h52.56.710,lexical_decision_task_DD_L4,2021.2.3,MacIntel,59.97361161,,,,,,,,,,,,0.7153,1,,,,,,,,,,,,,,,,,,,,,,,,-0.009248181,-0.402289912,0,0,0,,,,,,,DONKEY,HB,m,y,./images/DONKEYHB.png,,,,,,,,,,,,,,,,,,,,,m,1,0.7153,,,,,,,,0,97,97,19,1
,,,,,,,,,,,,,,,,,,23,2022-02-12_12h52.56.710,lexical_decision_task_DD_L4,2021.2.3,MacIntel,59.97361161,,,,,,,,,,,,1.2302,0,,,,,,,,,,,,,,,,,,,,,,,,-0.009248181,-0.402289912,0,0,0,,,,,,,FARMER,LB,z,y,./images/FARMERLB.png,,,,,,,,,,,,,,,,,,,,,m,0,1.2302,,,,,,,,0,98,98,149,1
,,,,,,,,,,,,,,,,,,23,2022-02-12_12h52.56.710,lexical_decision_task_DD_L4,2021.2.3,MacIntel,59.97361161,,,,,,,,,,,,1.2123,0,,,,,,,,,,,,,,,,,,,,,,,,-0.009248181,-0.402289912,0,0,0,,,,,,,FLESH,C,m,y,./images/FLESH.png,,,,,,,,,,,,,,,,,,,,,z,0,1.2123,,,,,,,,0,99,99,24,1
,,,,,,,,,,,,,,,,,,23,2022-02-12_12h52.56.710,lexical_decision_task_DD_L4,2021.2.3,MacIntel,59.97361161,,,,,,,,,,,,0.7655,0,,,,,,,,,,,,,,,,,,,,,,,,-0.009248181,-0.402289912,0,0,0,,,,,,,RHINO,C,z,y,./images/RHINO.png,,,,,,,,,,,,,,,,,,,,,m,0,0.7655,,,,,,,,0,100,100,93,1
,,,,,,,,,,,,,,,,,,23,2022-02-12_12h52.56.710,lexical_decision_task_DD_L4,2021.2.3,MacIntel,59.97361161,,,,,,,,,,,,1.0678,0,,,,,,,,,,,,,,,,,,,,,,,,-0.009248181,-0.402289912,0,0,0,,,,,,,CRADLE,LB,z,y,./images/CRADLELB.png,,,,,,,,,,,,,,,,,,,,,m,0,1.0678,,,,,,,,0,101,101,104,1
,,,,,,,,,,,,,,,,,,23,2022-02-12_12h52.56.710,lexical_decision_task_DD_L4,2021.2.3,MacIntel,59.97361161,,,,,,,,,,,,1.333,0,,,,,,,,,,,,,,,,,,,,,,,,-0.009248181,-0.402289912,0,0,0,,,,,,,SWEAT,C,z,y,./images/SWEAT.png,,,,,,,,,,,,,,,,,,,,,m,0,1.333,,,,,,,,0,102,102,150,1
,,,,,,,,,,,,,,,,,,23,2022-02-12_12h52.56.710,lexical_decision_task_DD_L4,2021.2.3,MacIntel,59.97361161,,,,,,,,,,,,2.9005,0,,,,,,,,,,,,,,,,,,,,,,,,-0.298579872,-0.227280341,1,0,0,,,,,,,SNAKE,HB,m,y,./images/SNAKEHB.png,,,,,,,,,,,,,,,,,,,,,,0,,-0.298579872,-0.227280341,1,0,0,2.9005,button_left_test,0,103,103,40,1
,,,,,,,,,,,,,,,,,,23,2022-02-12_12h52.56.710,lexical_decision_task_DD_L4,2021.2.3,MacIntel,59.97361161,,,,,,,,,,,,1.2471,1,,,,,,,,,,,,,,,,,,,,,,,,-0.307038428,-0.279030676,1,0,0,,,,,,,NOOSE,C,z,y,./images/NOOSE.png,,,,,,,,,,,,,,,,,,,,,,0,,-0.307038428,-0.279030676,1,0,0,1.2471,button_left_test,0,104,104,156,1
,,,,,,,,,,,,,,,,,,23,2022-02-12_12h52.56.710,lexical_decision_task_DD_L4,2021.2.3,MacIntel,59.97361161,,,,,,,,,,,,0.9313,0,,,,,,,,,,,,,,,,,,,,,,,,-0.275447454,-0.259158451,1,0,0,,,,,,,ENGINE,LB,m,y,./images/ENGINELB.png,,,,,,,,,,,,,,,,,,,,,,0,,-0.275447454,-0.259158451,1,0,0,0.9313,button_left_test,0,105,105,38,1
,,,,,,,,,,,,,,,,,,23,2022-02-12_12h52.56.710,lexical_decision_task_DD_L4,2021.2.3,MacIntel,59.97361161,,,,,,,,,,,,0.9164,1,,,,,,,,,,,,,,,,,,,,,,,,0.294799244,-0.343905532,1,0,0,,,,,,,LLAMA,LB,m,y,./images/LLAMALB.png,,,,,,,,,,,,,,,,,,,,,,0,,0.294799244,-0.343905532,1,0,0,0.9164,button_right_test,0,106,106,35,1
,,,,,,,,,,,,,,,,,,23,2022-02-12_12h52.56.710,lexical_decision_task_DD_L4,2021.2.3,MacIntel,59.97361161,,,,,,,,,,,,9.9699,0,,,,,,,,,,,,,,,,,,,,,,,,0.294799244,-0.343905532,0,0,0,,,,,,,CRUMB,LB,z,y,./images/CRUMBLB.png,,,,,,,,,,,,,,,,,,,,,m,0,9.9699,,,,,,,,0,107,107,113,1
,,,,,,,,,,,,,,,,,,23,2022-02-12_12h52.56.710,lexical_decision_task_DD_L4,2021.2.3,MacIntel,59.97361161,,,,,,,,,,,,20.7929,1,,,,,,,,,,,,,,,,,,,,,,,,0.294799244,-0.343905532,0,0,0,,,,,,,MUSCLE,HB,z,y,./images/MUSCLEHB.png,,,,,,,,,,,,,,,,,,,,,z,1,20.7929,,,,,,,,0,108,108,88,1
,,,,,,,,,,,,,,,,,,23,2022-02-12_12h52.56.710,lexical_decision_task_DD_L4,2021.2.3,MacIntel,59.97361161,,,,,,,,,,,,2.1699,1,,,,,,,,,,,,,,,,,,,,,,,,0.294799244,-0.343905532,0,0,0,,,,,,,HEATER,LB,m,y,./images/HEATERLB.png,,,,,,,,,,,,,,,,,,,,,m,1,2.1699,,,,,,,,0,109,109,56,1
,,,,,,,,,,,,,,,,,,23,2022-02-12_12h52.56.710,lexical_decision_task_DD_L4,2021.2.3,MacIntel,59.97361161,,,,,,,,,,,,1.8897,1,,,,,,,,,,,,,,,,,,,,,,,,0.294799244,-0.343905532,0,0,0,,,,,,,ATTIC,C,z,y,./images/ATTIC.png,,,,,,,,,,,,,,,,,,,,,z,1,1.8897,,,,,,,,0,110,110,111,1
,,,,,,,,,,,,,,,,,,23,2022-02-12_12h52.56.710,lexical_decision_task_DD_L4,2021.2.3,MacIntel,59.97361161,,,,,,,,,,,,2.1354,0,,,,,,,,,,,,,,,,,,,,,,,,0.294799244,-0.343905532,0,0,0,,,,,,,SHIELD,C,m,y,./images/SHIELD.png,,,,,,,,,,,,,,,,,,,,,z,0,2.1354,,,,,,,,0,111,111,48,1
,,,,,,,,,,,,,,,,,,23,2022-02-12_12h52.56.710,lexical_decision_task_DD_L4,2021.2.3,MacIntel,59.97361161,,,,,,,,,,,,0.6986,0,,,,,,,,,,,,,,,,,,,,,,,,0.294799244,-0.343905532,0,0,0,,,,,,,STAIN,C,m,y,./images/STAIN.png,,,,,,,,,,,,,,,,,,,,,z,0,0.6986,,,,,,,,0,112,112,6,1
,,,,,,,,,,,,,,,,,,23,2022-02-12_12h52.56.710,lexical_decision_task_DD_L4,2021.2.3,MacIntel,59.97361161,,,,,,,,,,,,1.5843,1,,,,,,,,,,,,,,,,,,,,,,,,0.294799244,-0.343905532,0,0,0,,,,,,,LADDER,LB,z,y,./images/LADDERLB.png,,,,,,,,,,,,,,,,,,,,,z,1,1.5843,,,,,,,,0,113,113,122,1
,,,,,,,,,,,,,,,,,,23,2022-02-12_12h52.56.710,lexical_decision_task_DD_L4,2021.2.3,MacIntel,59.97361161,,,,,,,,,,,,0.8486,0,,,,,,,,,,,,,,,,,,,,,,,,0.294799244,-0.343905532,0,0,0,,,,,,,WHISKY,LB,m,y,./images/WHISKYLB.png,,,,,,,,,,,,,,,,,,,,,z,0,0.8486,,,,,,,,0,114,114,83,1
,,,,,,,,,,,,,,,,,,23,2022-02-12_12h52.56.710,lexical_decision_task_DD_L4,2021.2.3,MacIntel,59.97361161,,,,,,,,,,,,0.7814,0,,,,,,,,,,,,,,,,,,,,,,,,0.294799244,-0.343905532,0,0,0,,,,,,,FALCON,HB,z,y,./images/FALCONHB.png,,,,,,,,,,,,,,,,,,,,,m,0,0.7814,,,,,,,,0,115,115,112,1
,,,,,,,,,,,,,,,,,,23,2022-02-12_12h52.56.710,lexical_decision_task_DD_L4,2021.2.3,MacIntel,59.97361161,,,,,,,,,,,,0.5979,1,,,,,,,,,,,,,,,,,,,,,,,,0.294799244,-0.343905532,0,0,0,,,,,,,RAZOR,HB,m,y,./images/RAZORHB.png,,,,,,,,,,,,,,,,,,,,,m,1,0.5979,,,,,,,,0,116,116,34,1
,,,,,,,,,,,,,,,,,,23,2022-02-12_12h52.56.710,lexical_decision_task_DD_L4,2021.2.3,MacIntel,59.97361161,,,,,,,,,,,,0.5845,1,,,,,,,,,,,,,,,,,,,,,,,,0.294799244,-0.343905532,0,0,0,,,,,,,BANANA,HB,m,y,./images/BANANAHB.png,,,,,,,,,,,,,,,,,,,,,m,1,0.5845,,,,,,,,0,117,117,70,1
,,,,,,,,,,,,,,,,,,23,2022-02-12_12h52.56.710,lexical_decision_task_DD_L4,2021.2.3,MacIntel,59.97361161,,,,,,,,,,,,0.951,1,,,,,,,,,,,,,,,,,,,,,,,,0.294799244,-0.343905532,0,0,0,,,,,,,TORCH,LB,z,y,./images/TORCHLB.png,,,,,,,,,,,,,,,,,,,,,z,1,0.951,,,,,,,,0,118,118,152,1
,,,,,,,,,,,,,,,,,,23,2022-02-12_12h52.56.710,lexical_decision_task_DD_L4,2021.2.3,MacIntel,59.97361161,,,,,,,,,,,,1.1859,1,,,,,,,,,,,,,,,,,,,,,,,,0.294799244,-0.343905532,0,0,0,,,,,,,STORM,C,z,y,./images/STORM.png,,,,,,,,,,,,,,,,,,,,,z,1,1.1859,,,,,,,,0,119,119,114,1
,,,,,,,,,,,,,,,,,,23,2022-02-12_12h52.56.710,lexical_decision_task_DD_L4,2021.2.3,MacIntel,59.97361161,,,,,,,,,,,,0.9135,1,,,,,,,,,,,,,,,,,,,,,,,,0.294799244,-0.343905532,0,0,0,,,,,,,MELON,HB,z,y,./images/MELONHB.png,,,,,,,,,,,,,,,,,,,,,z,1,0.9135,,,,,,,,0,120,120,106,1
,,,,,,,,,,,,,,,,,,23,2022-02-12_12h52.56.710,lexical_decision_task_DD_L4,2021.2.3,MacIntel,59.97361161,,,,,,,,,,,,0.6349,1,,,,,,,,,,,,,,,,,,,,,,,,0.294799244,-0.343905532,0,0,0,,,,,,,TRIPOD,C,z,y,./images/TRIPOD.png,,,,,,,,,,,,,,,,,,,,,z,1,0.6349,,,,,,,,0,121,121,138,1
,,,,,,,,,,,,,,,,,,23,2022-02-12_12h52.56.710,lexical_decision_task_DD_L4,2021.2.3,MacIntel,59.97361161,,,,,,,,,,,,1.1185,1,,,,,,,,,,,,,,,,,,,,,,,,0.294799244,-0.343905532,0,0,0,,,,,,,GRANNY,LB,m,y,./images/GRANNYLB.png,,,,,,,,,,,,,,,,,,,,,m,1,1.1185,,,,,,,,0,122,122,20,1
,,,,,,,,,,,,,,,,,,23,2022-02-12_12h52.56.710,lexical_decision_task_DD_L4,2021.2.3,MacIntel,59.97361161,,,,,,,,,,,,0.5806,1,,,,,,,,,,,,,,,,,,,,,,,,0.294799244,-0.343905532,0,0,0,,,,,,,WHEEL,LB,m,y,./images/WHEELLB.png,,,,,,,,,,,,,,,,,,,,,m,1,0.5806,,,,,,,,0,123,123,77,1
,,,,,,,,,,,,,,,,,,23,2022-02-12_12h52.56.710,lexical_decision_task_DD_L4,2021.2.3,MacIntel,59.97361161,,,,,,,,,,,,0.631,1,,,,,,,,,,,,,,,,,,,,,,,,0.294799244,-0.343905532,0,0,0,,,,,,,CHALK,HB,m,y,./images/CHALKHB.png,,,,,,,,,,,,,,,,,,,,,m,1,0.631,,,,,,,,0,124,124,25,1
,,,,,,,,,,,,,,,,,,23,2022-02-12_12h52.56.710,lexical_decision_task_DD_L4,2021.2.3,MacIntel,59.97361161,,,,,,,,,,,,0.7489,1,,,,,,,,,,,,,,,,,,,,,,,,0.062571784,-0.378972052,1,0,0,,,,,,,KIDNEY,C,z,y,./images/KIDNEY.png,,break_done_button,,,,,,,,,,,,,,,,,,,z,1,0.7489,,,,,,,,0,125,125,105,1
,,,,,,,,,,,,,,,,,,23,2022-02-12_12h52.56.710,lexical_decision_task_DD_L4,2021.2.3,MacIntel,59.97361161,,,,,,,,,,,,0.6678,0,,,,,,,,,,,,,,,,,,,,,,,,0.062571784,-0.378972052,0,0,0,,,,,,,GARDEN,HB,m,y,./images/GARDENHB.png,,,,,,,,,,,,,,,,,,,,,z,0,0.6678,,,,,,,,0,126,126,10,1
,,,,,,,,,,,,,,,,,,23,2022-02-12_12h52.56.710,lexical_decision_task_DD_L4,2021.2.3,MacIntel,59.97361161,,,,,,,,,,,,0.6393,0,,,,,,,,,,,,,,,,,,,,,,,,0.062571784,-0.378972052,0,0,0,,,,,,,CLOUD,LB,m,y,./images/CLOUDLB.png,,,,,,,,,,,,,,,,,,,,,z,0,0.6393,,,,,,,,0,127,127,26,1
,,,,,,,,,,,,,,,,,,23,2022-02-12_12h52.56.710,lexical_decision_task_DD_L4,2021.2.3,MacIntel,59.97361161,,,,,,,,,,,,1.0377,1,,,,,,,,,,,,,,,,,,,,,,,,0.062571784,-0.378972052,0,0,0,,,,,,,DIVER,C,m,y,./images/DIVER.png,,,,,,,,,,,,,,,,,,,,,m,1,1.0377,,,,,,,,0,128,128,9,1
,,,,,,,,,,,,,,,,,,23,2022-02-12_12h52.56.710,lexical_decision_task_DD_L4,2021.2.3,MacIntel,59.97361161,,,,,,,,,,,,0.5866,1,,,,,,,,,,,,,,,,,,,,,,,,0.062571784,-0.378972052,0,0,0,,,,,,,MAMMAL,LB,m,y,./images/MAMMALLB.png,,,,,,,,,,,,,,,,,,,,,m,1,0.5866,,,,,,,,0,129,129,62,1
,,,,,,,,,,,,,,,,,,23,2022-02-12_12h52.56.710,lexical_decision_task_DD_L4,2021.2.3,MacIntel,59.97361161,,,,,,,,,,,,0.9022,1,,,,,,,,,,,,,,,,,,,,,,,,0.062571784,-0.378972052,0,0,0,,,,,,,TOWEL,HB,m,y,./images/TOWELHB.png,,,,,,,,,,,,,,,,,,,,,m,1,0.9022,,,,,,,,0,130,130,1,1
,,,,,,,,,,,,,,,,,,23,2022-02-12_12h52.56.710,lexical_decision_task_DD_L4,2021.2.3,MacIntel,59.97361161,,,,,,,,,,,,0.6846,1,,,,,,,,,,,,,,,,,,,,,,,,0.062571784,-0.378972052,0,0,0,,,,,,,SUNSET,HB,z,y,./images/SUNSETHB.png,,,,,,,,,,,,,,,,,,,,,z,1,0.6846,,,,,,,,0,131,131,166,1
,,,,,,,,,,,,,,,,,,23,2022-02-12_12h52.56.710,lexical_decision_task_DD_L4,2021.2.3,MacIntel,59.97361161,,,,,,,,,,,,0.752,1,,,,,,,,,,,,,,,,,,,,,,,,0.062571784,-0.378972052,0,0,0,,,,,,,LAGOON,LB,m,y,./images/LAGOONLB.png,,,,,,,,,,,,,,,,,,,,,m,1,0.752,,,,,,,,0,132,132,47,1
,,,,,,,,,,,,,,,,,,23,2022-02-12_12h52.56.710,lexical_decision_task_DD_L4,2021.2.3,MacIntel,59.97361161,,,,,,,,,,,,0.8668,1,,,,,,,,,,,,,,,,,,,,,,,,0.062571784,-0.378972052,0,0,0,,,,,,,PEARL,HB,z,y,./images/PEARLHB.png,,,,,,,,,,,,,,,,,,,,,z,1,0.8668,,,,,,,,0,133,133,130,1
,,,,,,,,,,,,,,,,,,23,2022-02-12_12h52.56.710,lexical_decision_task_DD_L4,2021.2.3,MacIntel,59.97361161,,,,,,,,,,,,0.6546,0,,,,,,,,,,,,,,,,,,,,,,,,0.062571784,-0.378972052,0,0,0,,,,,,,BASKET,LB,m,y,./images/BASKETLB.png,,,,,,,,,,,,,,,,,,,,,z,0,0.6546,,,,,,,,0,134,134,44,1
,,,,,,,,,,,,,,,,,,23,2022-02-12_12h52.56.710,lexical_decision_task_DD_L4,2021.2.3,MacIntel,59.97361161,,,,,,,,,,,,0.5866,1,,,,,,,,,,,,,,,,,,,,,,,,0.062571784,-0.378972052,0,0,0,,,,,,,FOLDER,C,z,y,./images/FOLDER.png,,,,,,,,,,,,,,,,,,,,,z,1,0.5866,,,,,,,,0,135,135,126,1
,,,,,,,,,,,,,,,,,,23,2022-02-12_12h52.56.710,lexical_decision_task_DD_L4,2021.2.3,MacIntel,59.97361161,,,,,,,,,,,,0.8023,1,,,,,,,,,,,,,,,,,,,,,,,,0.062571784,-0.378972052,0,0,0,,,,,,,SHELF,C,z,y,./images/SHELF.png,,,,,,,,,,,,,,,,,,,,,z,1,0.8023,,,,,,,,0,136,136,123,1
,,,,,,,,,,,,,,,,,,23,2022-02-12_12h52.56.710,lexical_decision_task_DD_L4,2021.2.3,MacIntel,59.97361161,,,,,,,,,,,,1.1553,1,,,,,,,,,,,,,,,,,,,,,,,,0.062571784,-0.378972052,0,0,0,,,,,,,PILOT,LB,m,y,./images/PILOTLB.png,,,,,,,,,,,,,,,,,,,,,m,1,1.1553,,,,,,,,0,137,137,50,1
,,,,,,,,,,,,,,,,,,23,2022-02-12_12h52.56.710,lexical_decision_task_DD_L4,2021.2.3,MacIntel,59.97361161,,,,,,,,,,,,0.7041,1,,,,,,,,,,,,,,,,,,,,,,,,0.062571784,-0.378972052,0,0,0,,,,,,,CEMENT,LB,z,y,./images/CEMENTLB.png,,,,,,,,,,,,,,,,,,,,,z,1,0.7041,,,,,,,,0,138,138,158,1
,,,,,,,,,,,,,,,,,,23,2022-02-12_12h52.56.710,lexical_decision_task_DD_L4,2021.2.3,MacIntel,59.97361161,,,,,,,,,,,,28.2976,0,,,,,,,,,,,,,,,,,,,,,,,,0.062571784,-0.378972052,0,0,0,,,,,,,JUMPER,LB,m,y,./images/JUMPERLB.png,,,,,,,,,,,,,,,,,,,,,z,0,28.2976,,,,,,,,0,139,139,74,1
,,,,,,,,,,,,,,,,,,23,2022-02-12_12h52.56.710,lexical_decision_task_DD_L4,2021.2.3,MacIntel,59.97361161,,,,,,,,,,,,0.7461,1,,,,,,,,,,,,,,,,,,,,,,,,0.062571784,-0.378972052,0,0,0,,,,,,,POODLE,C,z,y,./images/POODLE.png,,,,,,,,,,,,,,,,,,,,,z,1,0.7461,,,,,,,,0,140,140,165,1
,,,,,,,,,,,,,,,,,,23,2022-02-12_12h52.56.710,lexical_decision_task_DD_L4,2021.2.3,MacIntel,59.97361161,,,,,,,,,,,,0.6702,1,,,,,,,,,,,,,,,,,,,,,,,,0.062571784,-0.378972052,0,0,0,,,,,,,TWINS,C,z,y,./images/TWINS.png,,,,,,,,,,,,,,,,,,,,,z,1,0.6702,,,,,,,,0,141,141,144,1
,,,,,,,,,,,,,,,,,,23,2022-02-12_12h52.56.710,lexical_decision_task_DD_L4,2021.2.3,MacIntel,59.97361161,,,,,,,,,,,,1.8542,1,,,,,,,,,,,,,,,,,,,,,,,,0.062571784,-0.378972052,0,0,0,,,,,,,GLOVE,HB,m,y,./images/GLOVEHB.png,,,,,,,,,,,,,,,,,,,,,m,1,1.8542,,,,,,,,0,142,142,73,1
,,,,,,,,,,,,,,,,,,23,2022-02-12_12h52.56.710,lexical_decision_task_DD_L4,2021.2.3,MacIntel,59.97361161,,,,,,,,,,,,0.4829,1,,,,,,,,,,,,,,,,,,,,,,,,0.062571784,-0.378972052,0,0,0,,,,,,,MOSQUE,HB,z,y,./images/MOSQUEHB.png,,,,,,,,,,,,,,,,,,,,,z,1,0.4829,,,,,,,,0,143,143,127,1
,,,,,,,,,,,,,,,,,,23,2022-02-12_12h52.56.710,lexical_decision_task_DD_L4,2021.2.3,MacIntel,59.97361161,,,,,,,,,,,,1.3795,0,,,,,,,,,,,,,,,,,,,,,,,,0.062571784,-0.378972052,0,0,0,,,,,,,STRING,LB,z,y,./images/STRINGLB.png,,,,,,,,,,,,,,,,,,,,,m,0,1.3795,,,,,,,,0,144,144,125,1
,,,,,,,,,,,,,,,,,,23,2022-02-12_12h52.56.710,lexical_decision_task_DD_L4,2021.2.3,MacIntel,59.97361161,,,,,,,,,,,,0.6387,1,,,,,,,,,,,,,,,,,,,,,,,,0.062571784,-0.378972052,0,0,0,,,,,,,BERRY,LB,z,y,./images/BERRYLB.png,,,,,,,,,,,,,,,,,,,,,z,1,0.6387,,,,,,,,0,145,145,131,1
,,,,,,,,,,,,,,,,,,23,2022-02-12_12h52.56.710,lexical_decision_task_DD_L4,2021.2.3,MacIntel,59.97361161,,,,,,,,,,,,0.7731,0,,,,,,,,,,,,,,,,,,,,,,,,0.062571784,-0.378972052,0,0,0,,,,,,,TULIP,LB,z,y,./images/TULIPLB.png,,,,,,,,,,,,,,,,,,,,,m,0,0.7731,,,,,,,,0,146,146,92,1
,,,,,,,,,,,,,,,,,,23,2022-02-12_12h52.56.710,lexical_decision_task_DD_L4,2021.2.3,MacIntel,59.97361161,,,,,,,,,,,,0.7274,0,,,,,,,,,,,,,,,,,,,,,,,,0.062571784,-0.378972052,0,0,0,,,,,,,MUFFIN,HB,z,y,./images/MUFFINHB.png,,,,,,,,,,,,,,,,,,,,,m,0,0.7274,,,,,,,,0,147,147,139,1
,,,,,,,,,,,,,,,,,,23,2022-02-12_12h52.56.710,lexical_decision_task_DD_L4,2021.2.3,MacIntel,59.97361161,,,,,,,,,,,,6.1341,1,,,,,,,,,,,,,,,,,,,,,,,,0.062571784,-0.378972052,0,0,0,,,,,,,LIZARD,LB,z,y,./images/LIZARDLB.png,,,,,,,,,,,,,,,,,,,,,z,1,6.1341,,,,,,,,0,148,148,128,1
,,,,,,,,,,,,,,,,,,23,2022-02-12_12h52.56.710,lexical_decision_task_DD_L4,2021.2.3,MacIntel,59.97361161,,,,,,,,,,,,1.3052,1,,,,,,,,,,,,,,,,,,,,,,,,0.062571784,-0.378972052,0,0,0,,,,,,,RULER,HB,m,y,./images/RULERHB.png,,,,,,,,,,,,,,,,,,,,,m,1,1.3052,,,,,,,,0,149,149,79,1
,,,,,,,,,,,,,,,,,,23,2022-02-12_12h52.56.710,lexical_decision_task_DD_L4,2021.2.3,MacIntel,59.97361161,,,,,,,,,,,,3.7649,1,,,,,,,,,,,,,,,,,,,,,,,,0.062571784,-0.378972052,0,0,0,,,,,,,SCREW,C,z,y,./images/SCREW.png,,,,,,,,,,,,,,,,,,,,,z,1,3.7649,,,,,,,,0,150,150,108,1
,,,,,,,,,,,,,,,,,,23,2022-02-12_12h52.56.710,lexical_decision_task_DD_L4,2021.2.3,MacIntel,59.97361161,,,,,,,,,,,,89.5059,0,,,,,,,,,,,,,,,,,,,,,,,,0.062571784,-0.378972052,0,0,0,,,,,,,MOTOR,HB,z,y,./images/MOTORHB.png,,,,,,,,,,,,,,,,,,,,,m,0,89.5059,,,,,,,,0,151,151,97,1
,,,,,,,,,,,,,,,,,,23,2022-02-12_12h52.56.710,lexical_decision_task_DD_L4,2021.2.3,MacIntel,59.97361161,,,,,,,,,,,,1.3075,1,,,,,,,,,,,,,,,,,,,,,,,,0.062571784,-0.378972052,0,0,0,,,,,,,BURIAL,LB,z,y,./images/BURIALLB.png,,,,,,,,,,,,,,,,,,,,,z,1,1.3075,,,,,,,,0,152,152,143,1
,,,,,,,,,,,,,,,,,,23,2022-02-12_12h52.56.710,lexical_decision_task_DD_L4,2021.2.3,MacIntel,59.97361161,,,,,,,,,,,,3.8661,1,,,,,,,,,,,,,,,,,,,,,,,,0.062571784,-0.378972052,0,0,0,,,,,,,WALNUT,C,m,y,./images/WALNUT.png,,,,,,,,,,,,,,,,,,,,,m,1,3.8661,,,,,,,,0,153,153,0,1
,,,,,,,,,,,,,,,,,,23,2022-02-12_12h52.56.710,lexical_decision_task_DD_L4,2021.2.3,MacIntel,59.97361161,,,,,,,,,,,,16.1404,1,,,,,,,,,,,,,,,,,,,,,,,,0.062571784,-0.378972052,0,0,0,,,,,,,PARADE,LB,m,y,./images/PARADELB.png,,,,,,,,,,,,,,,,,,,,,m,1,16.1404,,,,,,,,0,154,154,17,1
