key_resp.keys,key_resp.rt,instr_done_touch.x,instr_done_touch.y,instr_done_touch.leftButton,instr_done_touch.midButton,instr_done_touch.rightButton,instruction_pages.thisRepN,instruction_pages.thisTrialN,instruction_pages.thisN,instruction_pages.thisIndex,instruction_pages.ran,pageN,phase,instruct_text,has_image,instruct_image,participant,age,date,expName,psychopyVersion,OS,frameRate,instr_done_touch.clicked_name,response.keys,response.corr,response.rt,touch_resp.x,touch_resp.y,touch_resp.leftButton,touch_resp.midButton,touch_resp.rightButton,touch_resp.time,touch_resp.clicked_name,rt,corr,practrials.thisRepN,practrials.thisTrialN,practrials.thisN,practrials.thisIndex,practrials.ran,TrialID,Target,corrAns,end_of_practice_trials_pages.thisRepN,end_of_practice_trials_pages.thisTrialN,end_of_practice_trials_pages.thisN,end_of_practice_trials_pages.thisIndex,end_of_practice_trials_pages.ran,key_resp_2.keys,key_resp_2.corr,key_resp_2.rt,targ_click.x,targ_click.y,targ_click.leftButton,targ_click.midButton,targ_click.rightButton,targ_click.time,targ_click.clicked_name,break_done_touch.x,break_done_touch.y,break_done_touch.leftButton,break_done_touch.midButton,break_done_touch.rightButton,break_done_keyboard.keys,maintrials.thisRepN,maintrials.thisTrialN,maintrials.thisN,maintrials.thisIndex,maintrials.ran,string,blur,study,lex,stim_path,break_done_touch.clicked_name,break_done_keyboard.rt,mouse_2.x,mouse_2.y,mouse_2.leftButton,mouse_2.midButton,mouse_2.rightButton,mouse_2.clicked_name,slider.response,slider.rt,trials.thisRepN,trials.thisTrialN,trials.thisN,trials.thisIndex,trials.ran,test_instructions.thisRepN,test_instructions.thisTrialN,test_instructions.thisN,test_instructions.thisIndex,test_instructions.ran,key_resp_3.keys,key_resp_3.corr,key_resp_3.rt,test_click.x,test_click.y,test_click.leftButton,test_click.midButton,test_click.rightButton,test_click.time,test_click.clicked_name,test_phase.thisRepN,test_phase.thisTrialN,test_phase.thisN,test_phase.thisIndex,test_phase.ran
space,19.1187,0.210185202,-0.196296363,0,0,0,0,0,0,0,1,1,instructions,"INSTRUCTIONS
At the start of each trial, look at the plus sign  (+) in the center of the screen.  This tells you that a trial is about to begin and where to look. Second, the plus sign will disappear and a string of letters will appear. Your task is to determine if the string of letters is a word or not. If the item is a word press the M key (on keyboard)  or touch the word button (phone/tablet).  If the item is not a word,  press the  Z key (on keyboard)  or touch the nonword button (on phone/tablet). 
Press the space bar or touch  continue.",0,,,27,2022-02-12_13h30.03.823,lexical_decision_task_DD_L4,2021.2.3,Win32,120.105693,,,,,,,,,,,,,,,,,,,,,,,,,,,,,,,,,,,,,,,,,,,,,,,,,,,,,,,,,,,,,,,,,,,,,,,,,,,,,,,,,,,,,,,
space,5.1177,0.210185202,-0.196296363,0,0,0,0,1,1,1,1,2,instructions,"If your device has a keyboard, press the 'Z' key for nonwords and the 'M' key for words.





Press the space bar or touch the button below to continue.",0,keyboard-example.gif,,27,2022-02-12_13h30.03.823,lexical_decision_task_DD_L4,2021.2.3,Win32,120.105693,,,,,,,,,,,,,,,,,,,,,,,,,,,,,,,,,,,,,,,,,,,,,,,,,,,,,,,,,,,,,,,,,,,,,,,,,,,,,,,,,,,,,,,
,,-0.024999987,-0.40000007,1,0,0,0,2,2,2,1,3,instructions,"If you are using a touchscreen only device, use the buttons on the screen. Do not use the mouse.





Press the space bar or touch the button below to continue.",0,touchscreen-example.gif,,27,2022-02-12_13h30.03.823,lexical_decision_task_DD_L4,2021.2.3,Win32,120.105693,instr_done_button,,,,,,,,,,,,,,,,,,,,,,,,,,,,,,,,,,,,,,,,,,,,,,,,,,,,,,,,,,,,,,,,,,,,,,,,,,,,,,,,,,,,,,
space,8.8966,-0.025925857,-0.40000007,0,0,0,0,3,3,3,1,4,instructions,"It is very important that you respond as quickly and accurately as possible, as each letter string will only be on the screen for two seconds. If you do not respond within this time, the message 'Too slow!' will be displayed and the experiment will progress to the next letter string. The first 20 trials will be practice trials and you will receive feedback on your answers. 

Press the space bar or touch the button below to start the practice trials.",0,,,27,2022-02-12_13h30.03.823,lexical_decision_task_DD_L4,2021.2.3,Win32,120.105693,,,,,,,,,,,,,,,,,,,,,,,,,,,,,,,,,,,,,,,,,,,,,,,,,,,,,,,,,,,,,,,,,,,,,,,,,,,,,,,,,,,,,,,
,,,,,,,,,,,,,,,,,,27,2022-02-12_13h30.03.823,lexical_decision_task_DD_L4,2021.2.3,Win32,120.105693,,z,1,1.0174,,,,,,,,1.0174,1,0,0,0,8,1,1001,ASLERT,z,,,,,,,,,,,,,,,,,,,,,,,,,,,,,,,,,,,,,,,,,,,,,,,,,,,,,,,,,,,,,,,,,,
,,,,,,,,,,,,,,,,,,27,2022-02-12_13h30.03.823,lexical_decision_task_DD_L4,2021.2.3,Win32,120.105693,,z,1,0.6596,,,,,,,,0.6596,1,0,1,1,11,1,1001,RASHET,z,,,,,,,,,,,,,,,,,,,,,,,,,,,,,,,,,,,,,,,,,,,,,,,,,,,,,,,,,,,,,,,,,,
,,,,,,,,,,,,,,,,,,27,2022-02-12_13h30.03.823,lexical_decision_task_DD_L4,2021.2.3,Win32,120.105693,,z,1,0.6932,,,,,,,,0.6932,1,0,2,2,15,1,1001,WHAISE,z,,,,,,,,,,,,,,,,,,,,,,,,,,,,,,,,,,,,,,,,,,,,,,,,,,,,,,,,,,,,,,,,,,
,,,,,,,,,,,,,,,,,,27,2022-02-12_13h30.03.823,lexical_decision_task_DD_L4,2021.2.3,Win32,120.105693,,m,1,0.6106,,,,,,,,0.6106,1,0,3,3,2,1,1001,ALMOND,m,,,,,,,,,,,,,,,,,,,,,,,,,,,,,,,,,,,,,,,,,,,,,,,,,,,,,,,,,,,,,,,,,,
,,,,,,,,,,,,,,,,,,27,2022-02-12_13h30.03.823,lexical_decision_task_DD_L4,2021.2.3,Win32,120.105693,,m,1,0.7744,,,,,,,,0.7744,1,0,4,4,0,1,1001,UTOPIA,m,,,,,,,,,,,,,,,,,,,,,,,,,,,,,,,,,,,,,,,,,,,,,,,,,,,,,,,,,,,,,,,,,,
,,,,,,,,,,,,,,,,,,27,2022-02-12_13h30.03.823,lexical_decision_task_DD_L4,2021.2.3,Win32,120.105693,,m,1,0.7563,,,,,,,,0.7563,1,0,5,5,5,1,1001,OBTAIN,m,,,,,,,,,,,,,,,,,,,,,,,,,,,,,,,,,,,,,,,,,,,,,,,,,,,,,,,,,,,,,,,,,,
,,,,,,,,,,,,,,,,,,27,2022-02-12_13h30.03.823,lexical_decision_task_DD_L4,2021.2.3,Win32,120.105693,,m,1,0.5494,,,,,,,,0.5494,1,0,6,6,7,1,1001,VOLUME,m,,,,,,,,,,,,,,,,,,,,,,,,,,,,,,,,,,,,,,,,,,,,,,,,,,,,,,,,,,,,,,,,,,
,,,,,,,,,,,,,,,,,,27,2022-02-12_13h30.03.823,lexical_decision_task_DD_L4,2021.2.3,Win32,120.105693,,z,1,0.7344,,,,,,,,0.7344,1,0,7,7,9,1,1001,FARINY,z,,,,,,,,,,,,,,,,,,,,,,,,,,,,,,,,,,,,,,,,,,,,,,,,,,,,,,,,,,,,,,,,,,
,,,,,,,,,,,,,,,,,,27,2022-02-12_13h30.03.823,lexical_decision_task_DD_L4,2021.2.3,Win32,120.105693,,z,1,0.6173,,,,,,,,0.6173,1,0,8,8,13,1,1001,ROUPET,z,,,,,,,,,,,,,,,,,,,,,,,,,,,,,,,,,,,,,,,,,,,,,,,,,,,,,,,,,,,,,,,,,,
,,,,,,,,,,,,,,,,,,27,2022-02-12_13h30.03.823,lexical_decision_task_DD_L4,2021.2.3,Win32,120.105693,,m,1,0.6438,,,,,,,,0.6438,1,0,9,9,3,1,1001,MATRIX,m,,,,,,,,,,,,,,,,,,,,,,,,,,,,,,,,,,,,,,,,,,,,,,,,,,,,,,,,,,,,,,,,,,
,,,,,,,,,,,,,,,,,,27,2022-02-12_13h30.03.823,lexical_decision_task_DD_L4,2021.2.3,Win32,120.105693,,z,1,2.3247,,,,,,,,2.3247,1,0,10,10,14,1,1001,THRALE,z,,,,,,,,,,,,,,,,,,,,,,,,,,,,,,,,,,,,,,,,,,,,,,,,,,,,,,,,,,,,,,,,,,
,,,,,,,,,,,,,,,,,,27,2022-02-12_13h30.03.823,lexical_decision_task_DD_L4,2021.2.3,Win32,120.105693,,m,1,2.9698,,,,,,,,2.9698,1,0,11,11,6,1,1001,ZOMBIE,m,,,,,,,,,,,,,,,,,,,,,,,,,,,,,,,,,,,,,,,,,,,,,,,,,,,,,,,,,,,,,,,,,,
,,,,,,,,,,,,,,,,,,27,2022-02-12_13h30.03.823,lexical_decision_task_DD_L4,2021.2.3,Win32,120.105693,,m,1,3.734,,,,,,,,3.734,1,0,12,12,1,1,1001,ADJUST,m,,,,,,,,,,,,,,,,,,,,,,,,,,,,,,,,,,,,,,,,,,,,,,,,,,,,,,,,,,,,,,,,,,
,,,,,,,,,,,,,,,,,,27,2022-02-12_13h30.03.823,lexical_decision_task_DD_L4,2021.2.3,Win32,120.105693,,z,1,2.8077,,,,,,,,2.8077,1,0,13,13,10,1,1001,INLADE,z,,,,,,,,,,,,,,,,,,,,,,,,,,,,,,,,,,,,,,,,,,,,,,,,,,,,,,,,,,,,,,,,,,
,,,,,,,,,,,,,,,,,,27,2022-02-12_13h30.03.823,lexical_decision_task_DD_L4,2021.2.3,Win32,120.105693,,m,1,1.1061,,,,,,,,1.1061,1,0,14,14,4,1,1001,SQUEAK,m,,,,,,,,,,,,,,,,,,,,,,,,,,,,,,,,,,,,,,,,,,,,,,,,,,,,,,,,,,,,,,,,,,
,,,,,,,,,,,,,,,,,,27,2022-02-12_13h30.03.823,lexical_decision_task_DD_L4,2021.2.3,Win32,120.105693,,z,1,2.5854,,,,,,,,2.5854,1,0,15,15,12,1,1001,SPRINY,z,,,,,,,,,,,,,,,,,,,,,,,,,,,,,,,,,,,,,,,,,,,,,,,,,,,,,,,,,,,,,,,,,,
,,0.017592606,-0.38703705,1,0,0,,,,,,1,end_of_practice,"You have completed the practice trials. During the experimental trials, you will not receive feedback. 
Before you begin, please ensure that you are in a comfortable and quiet location and will not be disturbed for about 15 minutes, as we cannot use your data if you do not complete all the trials. 
 When you are ready to start the experimental trials, please press space or touch the button below.",,,,27,2022-02-12_13h30.03.823,lexical_decision_task_DD_L4,2021.2.3,Win32,120.105693,instr_done_button,,,,,,,,,,,,,,,,,,,,,0,0,0,0,1,,,,,,,,,,,,,,,,,,,,,,,,,,,,,,,,,,,,,,,,,,,,,,,,,,,,,,,,,,,,,
,,,,,,,,,,,,,,,,,,27,2022-02-12_13h30.03.823,lexical_decision_task_DD_L4,2021.2.3,Win32,120.105693,,,,,,,,,,,,1.8449,1,,,,,,,,,,,,,,z,1,1.8449,,,,,,,,0.017592606,-0.38703705,0,0,0,,0,0,0,115,1,MAWNS,HB,old,z,./images/MAWNSHB.png,,,,,,,,,,,,,,,,,,,,,,,,,,,,,,,,,,,
,,,,,,,,,,,,,,,,,,27,2022-02-12_13h30.03.823,lexical_decision_task_DD_L4,2021.2.3,Win32,120.105693,,,,,,,,,,,,0.7786,1,,,,,,,,,,,,,,m,1,0.7786,,,,,,,,0.017592606,-0.38703705,0,0,0,,0,1,1,5,1,BAMBOO,LB,old,m,./images/BAMBOOLB.png,,,,,,,,,,,,,,,,,,,,,,,,,,,,,,,,,,,
,,,,,,,,,,,,,,,,,,27,2022-02-12_13h30.03.823,lexical_decision_task_DD_L4,2021.2.3,Win32,120.105693,,,,,,,,,,,,0.9604,1,,,,,,,,,,,,,,z,1,0.9604,,,,,,,,0.017592606,-0.38703705,0,0,0,,0,2,2,159,1,CUDDY,C,old,z,./images/CUDDY.png,,,,,,,,,,,,,,,,,,,,,,,,,,,,,,,,,,,
,,,,,,,,,,,,,,,,,,27,2022-02-12_13h30.03.823,lexical_decision_task_DD_L4,2021.2.3,Win32,120.105693,,,,,,,,,,,,1.275,1,,,,,,,,,,,,,,z,1,1.275,,,,,,,,0.017592606,-0.38703705,0,0,0,,0,3,3,84,1,HAXES,C,old,z,./images/HAXES.png,,,,,,,,,,,,,,,,,,,,,,,,,,,,,,,,,,,
,,,,,,,,,,,,,,,,,,27,2022-02-12_13h30.03.823,lexical_decision_task_DD_L4,2021.2.3,Win32,120.105693,,,,,,,,,,,,1.059,1,,,,,,,,,,,,,,z,1,1.059,,,,,,,,0.017592606,-0.38703705,0,0,0,,0,4,4,155,1,CANGY,LB,old,z,./images/CANGYLB.png,,,,,,,,,,,,,,,,,,,,,,,,,,,,,,,,,,,
,,,,,,,,,,,,,,,,,,27,2022-02-12_13h30.03.823,lexical_decision_task_DD_L4,2021.2.3,Win32,120.105693,,,,,,,,,,,,1.2711,1,,,,,,,,,,,,,,z,1,1.2711,,,,,,,,0.017592606,-0.38703705,0,0,0,,0,5,5,147,1,ZOLES,C,old,z,./images/ZOLES.png,,,,,,,,,,,,,,,,,,,,,,,,,,,,,,,,,,,
,,,,,,,,,,,,,,,,,,27,2022-02-12_13h30.03.823,lexical_decision_task_DD_L4,2021.2.3,Win32,120.105693,,,,,,,,,,,,0.625,1,,,,,,,,,,,,,,m,1,0.625,,,,,,,,0.017592606,-0.38703705,0,0,0,,0,6,6,62,1,MAMMAL,LB,old,m,./images/MAMMALLB.png,,,,,,,,,,,,,,,,,,,,,,,,,,,,,,,,,,,
,,,,,,,,,,,,,,,,,,27,2022-02-12_13h30.03.823,lexical_decision_task_DD_L4,2021.2.3,Win32,120.105693,,,,,,,,,,,,0.5893,1,,,,,,,,,,,,,,m,1,0.5893,,,,,,,,0.017592606,-0.38703705,0,0,0,,0,7,7,3,1,CRATER,C,old,m,./images/CRATER.png,,,,,,,,,,,,,,,,,,,,,,,,,,,,,,,,,,,
,,,,,,,,,,,,,,,,,,27,2022-02-12_13h30.03.823,lexical_decision_task_DD_L4,2021.2.3,Win32,120.105693,,,,,,,,,,,,0.9388,1,,,,,,,,,,,,,,m,1,0.9388,,,,,,,,0.017592606,-0.38703705,0,0,0,,0,8,8,78,1,BROOM,C,old,m,./images/BROOM.png,,,,,,,,,,,,,,,,,,,,,,,,,,,,,,,,,,,
,,,,,,,,,,,,,,,,,,27,2022-02-12_13h30.03.823,lexical_decision_task_DD_L4,2021.2.3,Win32,120.105693,,,,,,,,,,,,0.6211,1,,,,,,,,,,,,,,m,1,0.6211,,,,,,,,0.017592606,-0.38703705,0,0,0,,0,9,9,56,1,HEATER,LB,old,m,./images/HEATERLB.png,,,,,,,,,,,,,,,,,,,,,,,,,,,,,,,,,,,
,,,,,,,,,,,,,,,,,,27,2022-02-12_13h30.03.823,lexical_decision_task_DD_L4,2021.2.3,Win32,120.105693,,,,,,,,,,,,2.2481,0,,,,,,,,,,,,,,m,0,2.2481,,,,,,,,0.017592606,-0.38703705,0,0,0,,0,10,10,133,1,POWDY,HB,old,z,./images/POWDYHB.png,,,,,,,,,,,,,,,,,,,,,,,,,,,,,,,,,,,
,,,,,,,,,,,,,,,,,,27,2022-02-12_13h30.03.823,lexical_decision_task_DD_L4,2021.2.3,Win32,120.105693,,,,,,,,,,,,1.8249,1,,,,,,,,,,,,,,z,1,1.8249,,,,,,,,0.017592606,-0.38703705,0,0,0,,0,11,11,124,1,TUNCH,HB,old,z,./images/TUNCHHB.png,,,,,,,,,,,,,,,,,,,,,,,,,,,,,,,,,,,
,,,,,,,,,,,,,,,,,,27,2022-02-12_13h30.03.823,lexical_decision_task_DD_L4,2021.2.3,Win32,120.105693,,,,,,,,,,,,0.9351,1,,,,,,,,,,,,,,m,1,0.9351,,,,,,,,0.017592606,-0.38703705,0,0,0,,0,12,12,82,1,PEBBLE,HB,old,m,./images/PEBBLEHB.png,,,,,,,,,,,,,,,,,,,,,,,,,,,,,,,,,,,
,,,,,,,,,,,,,,,,,,27,2022-02-12_13h30.03.823,lexical_decision_task_DD_L4,2021.2.3,Win32,120.105693,,,,,,,,,,,,1.3575,1,,,,,,,,,,,,,,m,1,1.3575,,,,,,,,0.017592606,-0.38703705,0,0,0,,0,13,13,70,1,BANANA,HB,old,m,./images/BANANAHB.png,,,,,,,,,,,,,,,,,,,,,,,,,,,,,,,,,,,
,,,,,,,,,,,,,,,,,,27,2022-02-12_13h30.03.823,lexical_decision_task_DD_L4,2021.2.3,Win32,120.105693,,,,,,,,,,,,0.5773,1,,,,,,,,,,,,,,m,1,0.5773,,,,,,,,0.017592606,-0.38703705,0,0,0,,0,14,14,75,1,HAMMER,C,old,m,./images/HAMMER.png,,,,,,,,,,,,,,,,,,,,,,,,,,,,,,,,,,,
,,,,,,,,,,,,,,,,,,27,2022-02-12_13h30.03.823,lexical_decision_task_DD_L4,2021.2.3,Win32,120.105693,,,,,,,,,,,,1.2761,1,,,,,,,,,,,,,,z,1,1.2761,,,,,,,,0.017592606,-0.38703705,0,0,0,,0,15,15,136,1,WERVE,HB,old,z,./images/WERVEHB.png,,,,,,,,,,,,,,,,,,,,,,,,,,,,,,,,,,,
,,,,,,,,,,,,,,,,,,27,2022-02-12_13h30.03.823,lexical_decision_task_DD_L4,2021.2.3,Win32,120.105693,,,,,,,,,,,,1.0735,1,,,,,,,,,,,,,,m,1,1.0735,,,,,,,,0.017592606,-0.38703705,0,0,0,,0,16,16,25,1,CHALK,HB,old,m,./images/CHALKHB.png,,,,,,,,,,,,,,,,,,,,,,,,,,,,,,,,,,,
,,,,,,,,,,,,,,,,,,27,2022-02-12_13h30.03.823,lexical_decision_task_DD_L4,2021.2.3,Win32,120.105693,,,,,,,,,,,,0.5905,1,,,,,,,,,,,,,,m,1,0.5905,,,,,,,,0.017592606,-0.38703705,0,0,0,,0,17,17,18,1,PARCEL,C,old,m,./images/PARCEL.png,,,,,,,,,,,,,,,,,,,,,,,,,,,,,,,,,,,
,,,,,,,,,,,,,,,,,,27,2022-02-12_13h30.03.823,lexical_decision_task_DD_L4,2021.2.3,Win32,120.105693,,,,,,,,,,,,0.9494,1,,,,,,,,,,,,,,z,1,0.9494,,,,,,,,0.017592606,-0.38703705,0,0,0,,0,18,18,137,1,JOOST,LB,old,z,./images/JOOSTLB.png,,,,,,,,,,,,,,,,,,,,,,,,,,,,,,,,,,,
,,,,,,,,,,,,,,,,,,27,2022-02-12_13h30.03.823,lexical_decision_task_DD_L4,2021.2.3,Win32,120.105693,,,,,,,,,,,,0.8017,1,,,,,,,,,,,,,,z,1,0.8017,,,,,,,,0.017592606,-0.38703705,0,0,0,,0,19,19,93,1,SMONE,C,old,z,./images/SMONE.png,,,,,,,,,,,,,,,,,,,,,,,,,,,,,,,,,,,
,,,,,,,,,,,,,,,,,,27,2022-02-12_13h30.03.823,lexical_decision_task_DD_L4,2021.2.3,Win32,120.105693,,,,,,,,,,,,0.7159,1,,,,,,,,,,,,,,z,1,0.7159,,,,,,,,0.017592606,-0.38703705,0,0,0,,0,20,20,144,1,NAIRY,C,old,z,./images/NAIRY.png,,,,,,,,,,,,,,,,,,,,,,,,,,,,,,,,,,,
,,,,,,,,,,,,,,,,,,27,2022-02-12_13h30.03.823,lexical_decision_task_DD_L4,2021.2.3,Win32,120.105693,,,,,,,,,,,,0.6119,1,,,,,,,,,,,,,,m,1,0.6119,,,,,,,,0.017592606,-0.38703705,0,0,0,,0,21,21,68,1,VALLEY,LB,old,m,./images/VALLEYLB.png,,,,,,,,,,,,,,,,,,,,,,,,,,,,,,,,,,,
,,,,,,,,,,,,,,,,,,27,2022-02-12_13h30.03.823,lexical_decision_task_DD_L4,2021.2.3,Win32,120.105693,,,,,,,,,,,,0.8022,1,,,,,,,,,,,,,,m,1,0.8022,,,,,,,,0.017592606,-0.38703705,0,0,0,,0,22,22,22,1,CLOWN,HB,old,m,./images/CLOWNHB.png,,,,,,,,,,,,,,,,,,,,,,,,,,,,,,,,,,,
,,,,,,,,,,,,,,,,,,27,2022-02-12_13h30.03.823,lexical_decision_task_DD_L4,2021.2.3,Win32,120.105693,,,,,,,,,,,,1.4824,1,,,,,,,,,,,,,,z,1,1.4824,,,,,,,,0.017592606,-0.38703705,0,0,0,,0,23,23,129,1,PRANS,C,old,z,./images/PRANS.png,,,,,,,,,,,,,,,,,,,,,,,,,,,,,,,,,,,
,,,,,,,,,,,,,,,,,,27,2022-02-12_13h30.03.823,lexical_decision_task_DD_L4,2021.2.3,Win32,120.105693,,,,,,,,,,,,1.1584,1,,,,,,,,,,,,,,z,1,1.1584,,,,,,,,0.017592606,-0.38703705,0,0,0,,0,24,24,107,1,FASKS,LB,old,z,./images/FASKSLB.png,,,,,,,,,,,,,,,,,,,,,,,,,,,,,,,,,,,
,,,,,,,,,,,,,,,,,,27,2022-02-12_13h30.03.823,lexical_decision_task_DD_L4,2021.2.3,Win32,120.105693,,,,,,,,,,,,0.6235,1,,,,,,,,,,,,,,m,1,0.6235,,,,,,,,0.017592606,-0.38703705,0,0,0,,0,25,25,54,1,CHERRY,C,old,m,./images/CHERRY.png,,,,,,,,,,,,,,,,,,,,,,,,,,,,,,,,,,,
,,,,,,,,,,,,,,,,,,27,2022-02-12_13h30.03.823,lexical_decision_task_DD_L4,2021.2.3,Win32,120.105693,,,,,,,,,,,,0.7561,1,,,,,,,,,,,,,,z,1,0.7561,,,,,,,,0.017592606,-0.38703705,0,0,0,,0,26,26,86,1,AIFED,LB,old,z,./images/AIFEDLB.png,,,,,,,,,,,,,,,,,,,,,,,,,,,,,,,,,,,
,,,,,,,,,,,,,,,,,,27,2022-02-12_13h30.03.823,lexical_decision_task_DD_L4,2021.2.3,Win32,120.105693,,,,,,,,,,,,1.6666,1,,,,,,,,,,,,,,m,1,1.6666,,,,,,,,0.017592606,-0.38703705,0,0,0,,0,27,27,9,1,DIVER,C,old,m,./images/DIVER.png,,,,,,,,,,,,,,,,,,,,,,,,,,,,,,,,,,,
,,,,,,,,,,,,,,,,,,27,2022-02-12_13h30.03.823,lexical_decision_task_DD_L4,2021.2.3,Win32,120.105693,,,,,,,,,,,,2.2499,1,,,,,,,,,,,,,,z,1,2.2499,,,,,,,,0.017592606,-0.38703705,0,0,0,,0,28,28,125,1,MOOKY,LB,old,z,./images/MOOKYLB.png,,,,,,,,,,,,,,,,,,,,,,,,,,,,,,,,,,,
,,,,,,,,,,,,,,,,,,27,2022-02-12_13h30.03.823,lexical_decision_task_DD_L4,2021.2.3,Win32,120.105693,,,,,,,,,,,,1.1043,1,,,,,,,,,,,,,,m,1,1.1043,,,,,,,,0.017592606,-0.38703705,0,0,0,,0,29,29,39,1,CANDY,C,old,m,./images/CANDY.png,,,,,,,,,,,,,,,,,,,,,,,,,,,,,,,,,,,
,,,,,,,,,,,,,,,,,,27,2022-02-12_13h30.03.823,lexical_decision_task_DD_L4,2021.2.3,Win32,120.105693,,,,,,,,,,,,0.6855,1,,,,,,,,,,,,,,m,1,0.6855,,,,,,,,0.017592606,-0.38703705,0,0,0,,0,30,30,66,1,STATUE,C,old,m,./images/STATUE.png,,,,,,,,,,,,,,,,,,,,,,,,,,,,,,,,,,,
,,,,,,,,,,,,,,,,,,27,2022-02-12_13h30.03.823,lexical_decision_task_DD_L4,2021.2.3,Win32,120.105693,,,,,,,,,,,,0.7759,1,,,,,,,,,,,,,,m,1,0.7759,,,,,,,,0.017592606,-0.38703705,0,0,0,,0,31,31,51,1,SAUCE,C,old,m,./images/SAUCE.png,,,,,,,,,,,,,,,,,,,,,,,,,,,,,,,,,,,
,,,,,,,,,,,,,,,,,,27,2022-02-12_13h30.03.823,lexical_decision_task_DD_L4,2021.2.3,Win32,120.105693,,,,,,,,,,,,0.9576,1,,,,,,,,,,,,,,z,1,0.9576,,,,,,,,0.017592606,-0.38703705,0,0,0,,0,32,32,112,1,MYING,HB,old,z,./images/MYINGHB.png,,,,,,,,,,,,,,,,,,,,,,,,,,,,,,,,,,,
,,,,,,,,,,,,,,,,,,27,2022-02-12_13h30.03.823,lexical_decision_task_DD_L4,2021.2.3,Win32,120.105693,,,,,,,,,,,,0.841,1,,,,,,,,,,,,,,z,1,0.841,,,,,,,,0.017592606,-0.38703705,0,0,0,,0,33,33,145,1,LAMEL,HB,old,z,./images/LAMELHB.png,,,,,,,,,,,,,,,,,,,,,,,,,,,,,,,,,,,
,,,,,,,,,,,,,,,,,,27,2022-02-12_13h30.03.823,lexical_decision_task_DD_L4,2021.2.3,Win32,120.105693,,,,,,,,,,,,0.5844,1,,,,,,,,,,,,,,m,1,0.5844,,,,,,,,0.017592606,-0.38703705,0,0,0,,0,34,34,74,1,JUMPER,LB,old,m,./images/JUMPERLB.png,,,,,,,,,,,,,,,,,,,,,,,,,,,,,,,,,,,
,,,,,,,,,,,,,,,,,,27,2022-02-12_13h30.03.823,lexical_decision_task_DD_L4,2021.2.3,Win32,120.105693,,,,,,,,,,,,0.6391,1,,,,,,,,,,,,,,z,1,0.6391,,,,,,,,0.017592606,-0.38703705,0,0,0,,0,35,35,134,1,TROSS,LB,old,z,./images/TROSSLB.png,,,,,,,,,,,,,,,,,,,,,,,,,,,,,,,,,,,
,,,,,,,,,,,,,,,,,,27,2022-02-12_13h30.03.823,lexical_decision_task_DD_L4,2021.2.3,Win32,120.105693,,,,,,,,,,,,1.1965,1,,,,,,,,,,,,,,m,1,1.1965,,,,,,,,0.017592606,-0.38703705,0,0,0,,0,36,36,49,1,BISHOP,HB,old,m,./images/BISHOPHB.png,,,,,,,,,,,,,,,,,,,,,,,,,,,,,,,,,,,
,,,,,,,,,,,,,,,,,,27,2022-02-12_13h30.03.823,lexical_decision_task_DD_L4,2021.2.3,Win32,120.105693,,,,,,,,,,,,1.0757,1,,,,,,,,,,,,,,m,1,1.0757,,,,,,,,0.017592606,-0.38703705,0,0,0,,0,37,37,13,1,BUNNY,HB,old,m,./images/BUNNYHB.png,,,,,,,,,,,,,,,,,,,,,,,,,,,,,,,,,,,
,,,,,,,,,,,,,,,,,,27,2022-02-12_13h30.03.823,lexical_decision_task_DD_L4,2021.2.3,Win32,120.105693,,,,,,,,,,,,0.5708,1,,,,,,,,,,,,,,m,1,0.5708,,,,,,,,0.017592606,-0.38703705,0,0,0,,0,38,38,27,1,BUTTER,C,old,m,./images/BUTTER.png,,,,,,,,,,,,,,,,,,,,,,,,,,,,,,,,,,,
,,,,,,,,,,,,,,,,,,27,2022-02-12_13h30.03.823,lexical_decision_task_DD_L4,2021.2.3,Win32,120.105693,,,,,,,,,,,,0.9125,1,,,,,,,,,,,,,,m,1,0.9125,,,,,,,,0.017592606,-0.38703705,0,0,0,,0,39,39,34,1,RAZOR,HB,old,m,./images/RAZORHB.png,,,,,,,,,,,,,,,,,,,,,,,,,,,,,,,,,,,
,,,,,,,,,,,,,,,,,,27,2022-02-12_13h30.03.823,lexical_decision_task_DD_L4,2021.2.3,Win32,120.105693,,,,,,,,,,,,0.4762,1,,,,,,,,,,,,,,m,1,0.4762,,,,,,,,0.017592606,-0.38703705,0,0,0,,0,40,40,8,1,CLIFF,LB,old,m,./images/CLIFFLB.png,,,,,,,,,,,,,,,,,,,,,,,,,,,,,,,,,,,
,,,,,,,,,,,,,,,,,,27,2022-02-12_13h30.03.823,lexical_decision_task_DD_L4,2021.2.3,Win32,120.105693,,,,,,,,,,,,1.2348,1,,,,,,,,,,,,,,m,1,1.2348,,,,,,,,0.017592606,-0.38703705,1,0,0,,0,41,41,47,1,LAGOON,LB,old,m,./images/LAGOONLB.png,break_done_button,,,,,,,,,,,,,,,,,,,,,,,,,,,,,,,,,,
,,,,,,,,,,,,,,,,,,27,2022-02-12_13h30.03.823,lexical_decision_task_DD_L4,2021.2.3,Win32,120.105693,,,,,,,,,,,,1.167,1,,,,,,,,,,,,,,z,1,1.167,,,,,,,,0.017592606,-0.38703705,0,0,0,,0,42,42,99,1,BACKY,C,old,z,./images/BACKY.png,,,,,,,,,,,,,,,,,,,,,,,,,,,,,,,,,,,
,,,,,,,,,,,,,,,,,,27,2022-02-12_13h30.03.823,lexical_decision_task_DD_L4,2021.2.3,Win32,120.105693,,,,,,,,,,,,0.7732,1,,,,,,,,,,,,,,z,1,0.7732,,,,,,,,0.017592606,-0.38703705,0,0,0,,0,43,43,116,1,BALGY,LB,old,z,./images/BALGYLB.png,,,,,,,,,,,,,,,,,,,,,,,,,,,,,,,,,,,
,,,,,,,,,,,,,,,,,,27,2022-02-12_13h30.03.823,lexical_decision_task_DD_L4,2021.2.3,Win32,120.105693,,,,,,,,,,,,0.5589,1,,,,,,,,,,,,,,m,1,0.5589,,,,,,,,0.017592606,-0.38703705,0,0,0,,0,44,44,29,1,PISTOL,LB,old,m,./images/PISTOLLB.png,,,,,,,,,,,,,,,,,,,,,,,,,,,,,,,,,,,
,,,,,,,,,,,,,,,,,,27,2022-02-12_13h30.03.823,lexical_decision_task_DD_L4,2021.2.3,Win32,120.105693,,,,,,,,,,,,0.5053,1,,,,,,,,,,,,,,m,1,0.5053,,,,,,,,0.017592606,-0.38703705,0,0,0,,0,45,45,59,1,BRUSH,LB,old,m,./images/BRUSHLB.png,,,,,,,,,,,,,,,,,,,,,,,,,,,,,,,,,,,
,,,,,,,,,,,,,,,,,,27,2022-02-12_13h30.03.823,lexical_decision_task_DD_L4,2021.2.3,Win32,120.105693,,,,,,,,,,,,0.7695,1,,,,,,,,,,,,,,m,1,0.7695,,,,,,,,0.017592606,-0.38703705,0,0,0,,0,46,46,72,1,FLASK,C,old,m,./images/FLASK.png,,,,,,,,,,,,,,,,,,,,,,,,,,,,,,,,,,,
,,,,,,,,,,,,,,,,,,27,2022-02-12_13h30.03.823,lexical_decision_task_DD_L4,2021.2.3,Win32,120.105693,,,,,,,,,,,,1.2008,1,,,,,,,,,,,,,,z,1,1.2008,,,,,,,,0.017592606,-0.38703705,0,0,0,,0,47,47,141,1,PLEET,C,old,z,./images/PLEET.png,,,,,,,,,,,,,,,,,,,,,,,,,,,,,,,,,,,
,,,,,,,,,,,,,,,,,,27,2022-02-12_13h30.03.823,lexical_decision_task_DD_L4,2021.2.3,Win32,120.105693,,,,,,,,,,,,0.8106,1,,,,,,,,,,,,,,z,1,0.8106,,,,,,,,0.017592606,-0.38703705,0,0,0,,0,48,48,95,1,HANTY,LB,old,z,./images/HANTYLB.png,,,,,,,,,,,,,,,,,,,,,,,,,,,,,,,,,,,
,,,,,,,,,,,,,,,,,,27,2022-02-12_13h30.03.823,lexical_decision_task_DD_L4,2021.2.3,Win32,120.105693,,,,,,,,,,,,0.5741,1,,,,,,,,,,,,,,m,1,0.5741,,,,,,,,0.017592606,-0.38703705,0,0,0,,0,49,49,11,1,MEDAL,LB,old,m,./images/MEDALLB.png,,,,,,,,,,,,,,,,,,,,,,,,,,,,,,,,,,,
,,,,,,,,,,,,,,,,,,27,2022-02-12_13h30.03.823,lexical_decision_task_DD_L4,2021.2.3,Win32,120.105693,,,,,,,,,,,,0.9266,1,,,,,,,,,,,,,,z,1,0.9266,,,,,,,,0.017592606,-0.38703705,0,0,0,,0,50,50,162,1,LEICH,C,old,z,./images/LEICH.png,,,,,,,,,,,,,,,,,,,,,,,,,,,,,,,,,,,
,,,,,,,,,,,,,,,,,,27,2022-02-12_13h30.03.823,lexical_decision_task_DD_L4,2021.2.3,Win32,120.105693,,,,,,,,,,,,1.1354,1,,,,,,,,,,,,,,m,1,1.1354,,,,,,,,0.017592606,-0.38703705,0,0,0,,0,51,51,12,1,BLOKE,C,old,m,./images/BLOKE.png,,,,,,,,,,,,,,,,,,,,,,,,,,,,,,,,,,,
,,,,,,,,,,,,,,,,,,27,2022-02-12_13h30.03.823,lexical_decision_task_DD_L4,2021.2.3,Win32,120.105693,,,,,,,,,,,,0.6205,1,,,,,,,,,,,,,,m,1,0.6205,,,,,,,,0.017592606,-0.38703705,0,0,0,,0,52,52,83,1,WHISKY,LB,old,m,./images/WHISKYLB.png,,,,,,,,,,,,,,,,,,,,,,,,,,,,,,,,,,,
,,,,,,,,,,,,,,,,,,27,2022-02-12_13h30.03.823,lexical_decision_task_DD_L4,2021.2.3,Win32,120.105693,,,,,,,,,,,,1.0673,1,,,,,,,,,,,,,,z,1,1.0673,,,,,,,,0.017592606,-0.38703705,0,0,0,,0,53,53,135,1,JOODY,C,old,z,./images/JOODY.png,,,,,,,,,,,,,,,,,,,,,,,,,,,,,,,,,,,
,,,,,,,,,,,,,,,,,,27,2022-02-12_13h30.03.823,lexical_decision_task_DD_L4,2021.2.3,Win32,120.105693,,,,,,,,,,,,0.6586,1,,,,,,,,,,,,,,m,1,0.6586,,,,,,,,0.017592606,-0.38703705,0,0,0,,0,54,54,0,1,WALNUT,C,old,m,./images/WALNUT.png,,,,,,,,,,,,,,,,,,,,,,,,,,,,,,,,,,,
,,,,,,,,,,,,,,,,,,27,2022-02-12_13h30.03.823,lexical_decision_task_DD_L4,2021.2.3,Win32,120.105693,,,,,,,,,,,,1.5958,1,,,,,,,,,,,,,,z,1,1.5958,,,,,,,,0.017592606,-0.38703705,0,0,0,,0,55,55,94,1,BLANS,HB,old,z,./images/BLANSHB.png,,,,,,,,,,,,,,,,,,,,,,,,,,,,,,,,,,,
,,,,,,,,,,,,,,,,,,27,2022-02-12_13h30.03.823,lexical_decision_task_DD_L4,2021.2.3,Win32,120.105693,,,,,,,,,,,,0.8539,1,,,,,,,,,,,,,,m,1,0.8539,,,,,,,,0.017592606,-0.38703705,0,0,0,,0,56,56,60,1,CURRY,C,old,m,./images/CURRY.png,,,,,,,,,,,,,,,,,,,,,,,,,,,,,,,,,,,
,,,,,,,,,,,,,,,,,,27,2022-02-12_13h30.03.823,lexical_decision_task_DD_L4,2021.2.3,Win32,120.105693,,,,,,,,,,,,0.6103,1,,,,,,,,,,,,,,m,1,0.6103,,,,,,,,0.017592606,-0.38703705,0,0,0,,0,57,57,23,1,CLOTH,LB,old,m,./images/CLOTHLB.png,,,,,,,,,,,,,,,,,,,,,,,,,,,,,,,,,,,
,,,,,,,,,,,,,,,,,,27,2022-02-12_13h30.03.823,lexical_decision_task_DD_L4,2021.2.3,Win32,120.105693,,,,,,,,,,,,2.2169,1,,,,,,,,,,,,,,z,1,2.2169,,,,,,,,0.017592606,-0.38703705,0,0,0,,0,58,58,106,1,CLUMS,HB,old,z,./images/CLUMSHB.png,,,,,,,,,,,,,,,,,,,,,,,,,,,,,,,,,,,
,,,,,,,,,,,,,,,,,,27,2022-02-12_13h30.03.823,lexical_decision_task_DD_L4,2021.2.3,Win32,120.105693,,,,,,,,,,,,0.6582,1,,,,,,,,,,,,,,m,1,0.6582,,,,,,,,0.017592606,-0.38703705,0,0,0,,0,59,59,55,1,ALLEY,HB,old,m,./images/ALLEYHB.png,,,,,,,,,,,,,,,,,,,,,,,,,,,,,,,,,,,
,,,,,,,,,,,,,,,,,,27,2022-02-12_13h30.03.823,lexical_decision_task_DD_L4,2021.2.3,Win32,120.105693,,,,,,,,,,,,1.4246,1,,,,,,,,,,,,,,m,1,1.4246,,,,,,,,0.017592606,-0.38703705,0,0,0,,0,60,60,19,1,DONKEY,HB,old,m,./images/DONKEYHB.png,,,,,,,,,,,,,,,,,,,,,,,,,,,,,,,,,,,
,,,,,,,,,,,,,,,,,,27,2022-02-12_13h30.03.823,lexical_decision_task_DD_L4,2021.2.3,Win32,120.105693,,,,,,,,,,,,1.6502,1,,,,,,,,,,,,,,z,1,1.6502,,,,,,,,0.017592606,-0.38703705,0,0,0,,0,61,61,148,1,JOMS,HB,old,z,./images/JOMSHB.png,,,,,,,,,,,,,,,,,,,,,,,,,,,,,,,,,,,
,,,,,,,,,,,,,,,,,,27,2022-02-12_13h30.03.823,lexical_decision_task_DD_L4,2021.2.3,Win32,120.105693,,,,,,,,,,,,0.9414,1,,,,,,,,,,,,,,m,1,0.9414,,,,,,,,0.017592606,-0.38703705,0,0,0,,0,62,62,37,1,TIGER,HB,old,m,./images/TIGERHB.png,,,,,,,,,,,,,,,,,,,,,,,,,,,,,,,,,,,
,,,,,,,,,,,,,,,,,,27,2022-02-12_13h30.03.823,lexical_decision_task_DD_L4,2021.2.3,Win32,120.105693,,,,,,,,,,,,0.6854,1,,,,,,,,,,,,,,m,1,0.6854,,,,,,,,0.017592606,-0.38703705,0,0,0,,0,63,63,64,1,BRIDE,HB,old,m,./images/BRIDEHB.png,,,,,,,,,,,,,,,,,,,,,,,,,,,,,,,,,,,
,,,,,,,,,,,,,,,,,,27,2022-02-12_13h30.03.823,lexical_decision_task_DD_L4,2021.2.3,Win32,120.105693,,,,,,,,,,,,0.5458,1,,,,,,,,,,,,,,m,1,0.5458,,,,,,,,0.017592606,-0.38703705,0,0,0,,0,64,64,77,1,WHEEL,LB,old,m,./images/WHEELLB.png,,,,,,,,,,,,,,,,,,,,,,,,,,,,,,,,,,,
,,,,,,,,,,,,,,,,,,27,2022-02-12_13h30.03.823,lexical_decision_task_DD_L4,2021.2.3,Win32,120.105693,,,,,,,,,,,,1.2994,1,,,,,,,,,,,,,,z,1,1.2994,,,,,,,,0.017592606,-0.38703705,0,0,0,,0,65,65,160,1,VEETS,HB,old,z,./images/VEETSHB.png,,,,,,,,,,,,,,,,,,,,,,,,,,,,,,,,,,,
,,,,,,,,,,,,,,,,,,27,2022-02-12_13h30.03.823,lexical_decision_task_DD_L4,2021.2.3,Win32,120.105693,,,,,,,,,,,,1.9147,1,,,,,,,,,,,,,,z,1,1.9147,,,,,,,,0.017592606,-0.38703705,0,0,0,,0,66,66,100,1,DRIBS,HB,old,z,./images/DRIBSHB.png,,,,,,,,,,,,,,,,,,,,,,,,,,,,,,,,,,,
,,,,,,,,,,,,,,,,,,27,2022-02-12_13h30.03.823,lexical_decision_task_DD_L4,2021.2.3,Win32,120.105693,,,,,,,,,,,,1.4837,0,,,,,,,,,,,,,,m,0,1.4837,,,,,,,,0.017592606,-0.38703705,0,0,0,,0,67,67,153,1,CLUPS,C,old,z,./images/CLUPS.png,,,,,,,,,,,,,,,,,,,,,,,,,,,,,,,,,,,
,,,,,,,,,,,,,,,,,,27,2022-02-12_13h30.03.823,lexical_decision_task_DD_L4,2021.2.3,Win32,120.105693,,,,,,,,,,,,1.6258,1,,,,,,,,,,,,,,z,1,1.6258,,,,,,,,0.017592606,-0.38703705,0,0,0,,0,68,68,130,1,CRILL,HB,old,z,./images/CRILLHB.png,,,,,,,,,,,,,,,,,,,,,,,,,,,,,,,,,,,
,,,,,,,,,,,,,,,,,,27,2022-02-12_13h30.03.823,lexical_decision_task_DD_L4,2021.2.3,Win32,120.105693,,,,,,,,,,,,1.6475,1,,,,,,,,,,,,,,m,1,1.6475,,,,,,,,0.017592606,-0.38703705,0,0,0,,0,69,69,35,1,LLAMA,LB,old,m,./images/LLAMALB.png,,,,,,,,,,,,,,,,,,,,,,,,,,,,,,,,,,,
,,,,,,,,,,,,,,,,,,27,2022-02-12_13h30.03.823,lexical_decision_task_DD_L4,2021.2.3,Win32,120.105693,,,,,,,,,,,,1.0623,0,,,,,,,,,,,,,,m,0,1.0623,,,,,,,,0.017592606,-0.38703705,0,0,0,,0,70,70,166,1,SHORY,HB,old,z,./images/SHORYHB.png,,,,,,,,,,,,,,,,,,,,,,,,,,,,,,,,,,,
,,,,,,,,,,,,,,,,,,27,2022-02-12_13h30.03.823,lexical_decision_task_DD_L4,2021.2.3,Win32,120.105693,,,,,,,,,,,,0.5524,1,,,,,,,,,,,,,,m,1,0.5524,,,,,,,,0.017592606,-0.38703705,0,0,0,,0,71,71,44,1,BASKET,LB,old,m,./images/BASKETLB.png,,,,,,,,,,,,,,,,,,,,,,,,,,,,,,,,,,,
,,,,,,,,,,,,,,,,,,27,2022-02-12_13h30.03.823,lexical_decision_task_DD_L4,2021.2.3,Win32,120.105693,,,,,,,,,,,,0.6268,1,,,,,,,,,,,,,,m,1,0.6268,,,,,,,,0.017592606,-0.38703705,0,0,0,,0,72,72,30,1,SLOPE,C,old,m,./images/SLOPE.png,,,,,,,,,,,,,,,,,,,,,,,,,,,,,,,,,,,
,,,,,,,,,,,,,,,,,,27,2022-02-12_13h30.03.823,lexical_decision_task_DD_L4,2021.2.3,Win32,120.105693,,,,,,,,,,,,0.701,1,,,,,,,,,,,,,,z,1,0.701,,,,,,,,0.017592606,-0.38703705,0,0,0,,0,73,73,117,1,STEEG,C,old,z,./images/STEEG.png,,,,,,,,,,,,,,,,,,,,,,,,,,,,,,,,,,,
,,,,,,,,,,,,,,,,,,27,2022-02-12_13h30.03.823,lexical_decision_task_DD_L4,2021.2.3,Win32,120.105693,,,,,,,,,,,,0.819,1,,,,,,,,,,,,,,z,1,0.819,,,,,,,,0.017592606,-0.38703705,0,0,0,,0,74,74,140,1,DOVET,LB,old,z,./images/DOVETLB.png,,,,,,,,,,,,,,,,,,,,,,,,,,,,,,,,,,,
,,,,,,,,,,,,,,,,,,27,2022-02-12_13h30.03.823,lexical_decision_task_DD_L4,2021.2.3,Win32,120.105693,,,,,,,,,,,,0.53,1,,,,,,,,,,,,,,m,1,0.53,,,,,,,,0.017592606,-0.38703705,0,0,0,,0,75,75,33,1,SAUNA,C,old,m,./images/SAUNA.png,,,,,,,,,,,,,,,,,,,,,,,,,,,,,,,,,,,
,,,,,,,,,,,,,,,,,,27,2022-02-12_13h30.03.823,lexical_decision_task_DD_L4,2021.2.3,Win32,120.105693,,,,,,,,,,,,1.254,1,,,,,,,,,,,,,,z,1,1.254,,,,,,,,0.017592606,-0.38703705,0,0,0,,0,76,76,109,1,BURGE,HB,old,z,./images/BURGEHB.png,,,,,,,,,,,,,,,,,,,,,,,,,,,,,,,,,,,
,,,,,,,,,,,,,,,,,,27,2022-02-12_13h30.03.823,lexical_decision_task_DD_L4,2021.2.3,Win32,120.105693,,,,,,,,,,,,0.9575,1,,,,,,,,,,,,,,z,1,0.9575,,,,,,,,0.017592606,-0.38703705,0,0,0,,0,77,77,123,1,SEDGE,C,old,z,./images/SEDGE.png,,,,,,,,,,,,,,,,,,,,,,,,,,,,,,,,,,,
,,,,,,,,,,,,,,,,,,27,2022-02-12_13h30.03.823,lexical_decision_task_DD_L4,2021.2.3,Win32,120.105693,,,,,,,,,,,,0.7677,1,,,,,,,,,,,,,,m,1,0.7677,,,,,,,,0.017592606,-0.38703705,0,0,0,,0,78,78,16,1,GRAPE,HB,old,m,./images/GRAPEHB.png,,,,,,,,,,,,,,,,,,,,,,,,,,,,,,,,,,,
,,,,,,,,,,,,,,,,,,27,2022-02-12_13h30.03.823,lexical_decision_task_DD_L4,2021.2.3,Win32,120.105693,,,,,,,,,,,,0.7572,1,,,,,,,,,,,,,,z,1,0.7572,,,,,,,,0.017592606,-0.38703705,0,0,0,,0,79,79,92,1,PAIMS,LB,old,z,./images/PAIMSLB.png,,,,,,,,,,,,,,,,,,,,,,,,,,,,,,,,,,,
,,,,,,,,,,,,,,,,,,27,2022-02-12_13h30.03.823,lexical_decision_task_DD_L4,2021.2.3,Win32,120.105693,,,,,,,,,,,,0.7539,1,,,,,,,,,,,,,,m,1,0.7539,,,,,,,,0.017592606,-0.38703705,0,0,0,,0,80,80,2,1,STOVE,LB,old,m,./images/STOVELB.png,,,,,,,,,,,,,,,,,,,,,,,,,,,,,,,,,,,
,,,,,,,,,,,,,,,,,,27,2022-02-12_13h30.03.823,lexical_decision_task_DD_L4,2021.2.3,Win32,120.105693,,,,,,,,,,,,0.7802,1,,,,,,,,,,,,,,z,1,0.7802,,,,,,,,0.017592606,-0.38703705,0,0,0,,0,81,81,113,1,LINEW,LB,old,z,./images/LINEWLB.png,,,,,,,,,,,,,,,,,,,,,,,,,,,,,,,,,,,
,,,,,,,,,,,,,,,,,,27,2022-02-12_13h30.03.823,lexical_decision_task_DD_L4,2021.2.3,Win32,120.105693,,,,,,,,,,,,0.6652,1,,,,,,,,,,,,,,z,1,0.6652,,,,,,,,0.017592606,-0.38703705,0,0,0,,0,82,82,164,1,SGREW,LB,old,z,./images/SGREWLB.png,,,,,,,,,,,,,,,,,,,,,,,,,,,,,,,,,,,
,,,,,,,,,,,,,,,,,,27,2022-02-12_13h30.03.823,lexical_decision_task_DD_L4,2021.2.3,Win32,120.105693,,,,,,,,,,,,0.8417,1,,,,,,,,,,,,,,z,1,0.8417,,,,,,,,0.017592606,-0.38703705,1,0,0,,0,83,83,138,1,PLICE,C,old,z,./images/PLICE.png,break_done_button,,,,,,,,,,,,,,,,,,,,,,,,,,,,,,,,,,
,,,,,,,,,,,,,,,,,,27,2022-02-12_13h30.03.823,lexical_decision_task_DD_L4,2021.2.3,Win32,120.105693,,,,,,,,,,,,0.7198,1,,,,,,,,,,,,,,z,1,0.7198,,,,,,,,0.017592606,-0.38703705,0,0,0,,0,84,84,146,1,MOOST,LB,old,z,./images/MOOSTLB.png,,,,,,,,,,,,,,,,,,,,,,,,,,,,,,,,,,,
,,,,,,,,,,,,,,,,,,27,2022-02-12_13h30.03.823,lexical_decision_task_DD_L4,2021.2.3,Win32,120.105693,,,,,,,,,,,,0.6151,1,,,,,,,,,,,,,,z,1,0.6151,,,,,,,,0.017592606,-0.38703705,0,0,0,,0,85,85,87,1,TRING,C,old,z,./images/TRING.png,,,,,,,,,,,,,,,,,,,,,,,,,,,,,,,,,,,
,,,,,,,,,,,,,,,,,,27,2022-02-12_13h30.03.823,lexical_decision_task_DD_L4,2021.2.3,Win32,120.105693,,,,,,,,,,,,0.7431,0,,,,,,,,,,,,,,m,0,0.7431,,,,,,,,0.017592606,-0.38703705,0,0,0,,0,86,86,128,1,GRIFT,LB,old,z,./images/GRIFTLB.png,,,,,,,,,,,,,,,,,,,,,,,,,,,,,,,,,,,
,,,,,,,,,,,,,,,,,,27,2022-02-12_13h30.03.823,lexical_decision_task_DD_L4,2021.2.3,Win32,120.105693,,,,,,,,,,,,0.6284,1,,,,,,,,,,,,,,m,1,0.6284,,,,,,,,0.017592606,-0.38703705,0,0,0,,0,87,87,17,1,PARADE,LB,old,m,./images/PARADELB.png,,,,,,,,,,,,,,,,,,,,,,,,,,,,,,,,,,,
,,,,,,,,,,,,,,,,,,27,2022-02-12_13h30.03.823,lexical_decision_task_DD_L4,2021.2.3,Win32,120.105693,,,,,,,,,,,,0.4606,1,,,,,,,,,,,,,,m,1,0.4606,,,,,,,,0.017592606,-0.38703705,0,0,0,,0,88,88,32,1,HOCKEY,LB,old,m,./images/HOCKEYLB.png,,,,,,,,,,,,,,,,,,,,,,,,,,,,,,,,,,,
,,,,,,,,,,,,,,,,,,27,2022-02-12_13h30.03.823,lexical_decision_task_DD_L4,2021.2.3,Win32,120.105693,,,,,,,,,,,,0.4036,0,,,,,,,,,,,,,,m,0,0.4036,,,,,,,,0.017592606,-0.38703705,0,0,0,,0,89,89,132,1,SCIFF,C,old,z,./images/SCIFF.png,,,,,,,,,,,,,,,,,,,,,,,,,,,,,,,,,,,
,,,,,,,,,,,,,,,,,,27,2022-02-12_13h30.03.823,lexical_decision_task_DD_L4,2021.2.3,Win32,120.105693,,,,,,,,,,,,0.6302,1,,,,,,,,,,,,,,z,1,0.6302,,,,,,,,0.017592606,-0.38703705,0,0,0,,0,90,90,101,1,GLEET,LB,old,z,./images/GLEETLB.png,,,,,,,,,,,,,,,,,,,,,,,,,,,,,,,,,,,
,,,,,,,,,,,,,,,,,,27,2022-02-12_13h30.03.823,lexical_decision_task_DD_L4,2021.2.3,Win32,120.105693,,,,,,,,,,,,0.6526,1,,,,,,,,,,,,,,z,1,0.6526,,,,,,,,0.017592606,-0.38703705,0,0,0,,0,91,91,105,1,MOKER,C,old,z,./images/MOKER.png,,,,,,,,,,,,,,,,,,,,,,,,,,,,,,,,,,,
,,,,,,,,,,,,,,,,,,27,2022-02-12_13h30.03.823,lexical_decision_task_DD_L4,2021.2.3,Win32,120.105693,,,,,,,,,,,,0.5256,1,,,,,,,,,,,,,,m,1,0.5256,,,,,,,,0.017592606,-0.38703705,0,0,0,,0,92,92,6,1,STAIN,C,old,m,./images/STAIN.png,,,,,,,,,,,,,,,,,,,,,,,,,,,,,,,,,,,
,,,,,,,,,,,,,,,,,,27,2022-02-12_13h30.03.823,lexical_decision_task_DD_L4,2021.2.3,Win32,120.105693,,,,,,,,,,,,0.6112,1,,,,,,,,,,,,,,m,1,0.6112,,,,,,,,0.017592606,-0.38703705,0,0,0,,0,93,93,31,1,STEAK,HB,old,m,./images/STEAKHB.png,,,,,,,,,,,,,,,,,,,,,,,,,,,,,,,,,,,
,,,,,,,,,,,,,,,,,,27,2022-02-12_13h30.03.823,lexical_decision_task_DD_L4,2021.2.3,Win32,120.105693,,,,,,,,,,,,1.2442,1,,,,,,,,,,,,,,m,1,1.2442,,,,,,,,0.017592606,-0.38703705,0,0,0,,0,94,94,52,1,DESERT,HB,old,m,./images/DESERTHB.png,,,,,,,,,,,,,,,,,,,,,,,,,,,,,,,,,,,
,,,,,,,,,,,,,,,,,,27,2022-02-12_13h30.03.823,lexical_decision_task_DD_L4,2021.2.3,Win32,120.105693,,,,,,,,,,,,1.3958,1,,,,,,,,,,,,,,z,1,1.3958,,,,,,,,0.017592606,-0.38703705,0,0,0,,0,95,95,118,1,BAVEL,HB,old,z,./images/BAVELHB.png,,,,,,,,,,,,,,,,,,,,,,,,,,,,,,,,,,,
,,,,,,,,,,,,,,,,,,27,2022-02-12_13h30.03.823,lexical_decision_task_DD_L4,2021.2.3,Win32,120.105693,,,,,,,,,,,,0.6222,1,,,,,,,,,,,,,,m,1,0.6222,,,,,,,,0.017592606,-0.38703705,0,0,0,,0,96,96,26,1,CLOUD,LB,old,m,./images/CLOUDLB.png,,,,,,,,,,,,,,,,,,,,,,,,,,,,,,,,,,,
,,,,,,,,,,,,,,,,,,27,2022-02-12_13h30.03.823,lexical_decision_task_DD_L4,2021.2.3,Win32,120.105693,,,,,,,,,,,,0.6867,1,,,,,,,,,,,,,,z,1,0.6867,,,,,,,,0.017592606,-0.38703705,0,0,0,,0,97,97,152,1,FRAIN,LB,old,z,./images/FRAINLB.png,,,,,,,,,,,,,,,,,,,,,,,,,,,,,,,,,,,
,,,,,,,,,,,,,,,,,,27,2022-02-12_13h30.03.823,lexical_decision_task_DD_L4,2021.2.3,Win32,120.105693,,,,,,,,,,,,0.7814,1,,,,,,,,,,,,,,z,1,0.7814,,,,,,,,0.017592606,-0.38703705,0,0,0,,0,98,98,122,1,BLOOT,LB,old,z,./images/BLOOTLB.png,,,,,,,,,,,,,,,,,,,,,,,,,,,,,,,,,,,
,,,,,,,,,,,,,,,,,,27,2022-02-12_13h30.03.823,lexical_decision_task_DD_L4,2021.2.3,Win32,120.105693,,,,,,,,,,,,0.6273,1,,,,,,,,,,,,,,m,1,0.6273,,,,,,,,0.017592606,-0.38703705,0,0,0,,0,99,99,45,1,MONKEY,C,old,m,./images/MONKEY.png,,,,,,,,,,,,,,,,,,,,,,,,,,,,,,,,,,,
,,,,,,,,,,,,,,,,,,27,2022-02-12_13h30.03.823,lexical_decision_task_DD_L4,2021.2.3,Win32,120.105693,,,,,,,,,,,,0.7545,1,,,,,,,,,,,,,,m,1,0.7545,,,,,,,,0.017592606,-0.38703705,0,0,0,,0,100,100,71,1,BUBBLE,LB,old,m,./images/BUBBLELB.png,,,,,,,,,,,,,,,,,,,,,,,,,,,,,,,,,,,
,,,,,,,,,,,,,,,,,,27,2022-02-12_13h30.03.823,lexical_decision_task_DD_L4,2021.2.3,Win32,120.105693,,,,,,,,,,,,0.8527,1,,,,,,,,,,,,,,m,1,0.8527,,,,,,,,0.017592606,-0.38703705,0,0,0,,0,101,101,76,1,MIDGET,HB,old,m,./images/MIDGETHB.png,,,,,,,,,,,,,,,,,,,,,,,,,,,,,,,,,,,
,,,,,,,,,,,,,,,,,,27,2022-02-12_13h30.03.823,lexical_decision_task_DD_L4,2021.2.3,Win32,120.105693,,,,,,,,,,,,0.4967,1,,,,,,,,,,,,,,m,1,0.4967,,,,,,,,0.017592606,-0.38703705,0,0,0,,0,102,102,21,1,DANCER,C,old,m,./images/DANCER.png,,,,,,,,,,,,,,,,,,,,,,,,,,,,,,,,,,,
,,,,,,,,,,,,,,,,,,27,2022-02-12_13h30.03.823,lexical_decision_task_DD_L4,2021.2.3,Win32,120.105693,,,,,,,,,,,,0.8457,1,,,,,,,,,,,,,,z,1,0.8457,,,,,,,,0.017592606,-0.38703705,0,0,0,,0,103,103,154,1,THINT,HB,old,z,./images/THINTHB.png,,,,,,,,,,,,,,,,,,,,,,,,,,,,,,,,,,,
,,,,,,,,,,,,,,,,,,27,2022-02-12_13h30.03.823,lexical_decision_task_DD_L4,2021.2.3,Win32,120.105693,,,,,,,,,,,,0.8265,1,,,,,,,,,,,,,,z,1,0.8265,,,,,,,,0.017592606,-0.38703705,0,0,0,,0,104,104,131,1,NACES,LB,old,z,./images/NACESLB.png,,,,,,,,,,,,,,,,,,,,,,,,,,,,,,,,,,,
,,,,,,,,,,,,,,,,,,27,2022-02-12_13h30.03.823,lexical_decision_task_DD_L4,2021.2.3,Win32,120.105693,,,,,,,,,,,,0.7272,1,,,,,,,,,,,,,,z,1,0.7272,,,,,,,,0.017592606,-0.38703705,0,0,0,,0,105,105,91,1,SHENS,HB,old,z,./images/SHENSHB.png,,,,,,,,,,,,,,,,,,,,,,,,,,,,,,,,,,,
,,,,,,,,,,,,,,,,,,27,2022-02-12_13h30.03.823,lexical_decision_task_DD_L4,2021.2.3,Win32,120.105693,,,,,,,,,,,,0.5921,1,,,,,,,,,,,,,,m,1,0.5921,,,,,,,,0.017592606,-0.38703705,0,0,0,,0,106,106,50,1,PILOT,LB,old,m,./images/PILOTLB.png,,,,,,,,,,,,,,,,,,,,,,,,,,,,,,,,,,,
,,,,,,,,,,,,,,,,,,27,2022-02-12_13h30.03.823,lexical_decision_task_DD_L4,2021.2.3,Win32,120.105693,,,,,,,,,,,,0.6679,1,,,,,,,,,,,,,,z,1,0.6679,,,,,,,,0.017592606,-0.38703705,0,0,0,,0,107,107,161,1,BLAPS,LB,old,z,./images/BLAPSLB.png,,,,,,,,,,,,,,,,,,,,,,,,,,,,,,,,,,,
,,,,,,,,,,,,,,,,,,27,2022-02-12_13h30.03.823,lexical_decision_task_DD_L4,2021.2.3,Win32,120.105693,,,,,,,,,,,,0.8517,1,,,,,,,,,,,,,,z,1,0.8517,,,,,,,,0.017592606,-0.38703705,0,0,0,,0,108,108,108,1,GRUET,C,old,z,./images/GRUET.png,,,,,,,,,,,,,,,,,,,,,,,,,,,,,,,,,,,
,,,,,,,,,,,,,,,,,,27,2022-02-12_13h30.03.823,lexical_decision_task_DD_L4,2021.2.3,Win32,120.105693,,,,,,,,,,,,0.6661,1,,,,,,,,,,,,,,z,1,0.6661,,,,,,,,0.017592606,-0.38703705,0,0,0,,0,109,109,89,1,DRIEK,LB,old,z,./images/DRIEKLB.png,,,,,,,,,,,,,,,,,,,,,,,,,,,,,,,,,,,
,,,,,,,,,,,,,,,,,,27,2022-02-12_13h30.03.823,lexical_decision_task_DD_L4,2021.2.3,Win32,120.105693,,,,,,,,,,,,0.5545,1,,,,,,,,,,,,,,z,1,0.5545,,,,,,,,0.017592606,-0.38703705,0,0,0,,0,110,110,167,1,ZONET,LB,old,z,./images/ZONETLB.png,,,,,,,,,,,,,,,,,,,,,,,,,,,,,,,,,,,
,,,,,,,,,,,,,,,,,,27,2022-02-12_13h30.03.823,lexical_decision_task_DD_L4,2021.2.3,Win32,120.105693,,,,,,,,,,,,0.7007,1,,,,,,,,,,,,,,z,1,0.7007,,,,,,,,0.017592606,-0.38703705,0,0,0,,0,111,111,90,1,NEAST,C,old,z,./images/NEAST.png,,,,,,,,,,,,,,,,,,,,,,,,,,,,,,,,,,,
,,,,,,,,,,,,,,,,,,27,2022-02-12_13h30.03.823,lexical_decision_task_DD_L4,2021.2.3,Win32,120.105693,,,,,,,,,,,,0.8003,0,,,,,,,,,,,,,,m,0,0.8003,,,,,,,,0.017592606,-0.38703705,0,0,0,,0,112,112,102,1,DULLE,C,old,z,./images/DULLE.png,,,,,,,,,,,,,,,,,,,,,,,,,,,,,,,,,,,
,,,,,,,,,,,,,,,,,,27,2022-02-12_13h30.03.823,lexical_decision_task_DD_L4,2021.2.3,Win32,120.105693,,,,,,,,,,,,0.6956,1,,,,,,,,,,,,,,m,1,0.6956,,,,,,,,0.017592606,-0.38703705,0,0,0,,0,113,113,24,1,FLESH,C,old,m,./images/FLESH.png,,,,,,,,,,,,,,,,,,,,,,,,,,,,,,,,,,,
,,,,,,,,,,,,,,,,,,27,2022-02-12_13h30.03.823,lexical_decision_task_DD_L4,2021.2.3,Win32,120.105693,,,,,,,,,,,,0.9526,1,,,,,,,,,,,,,,z,1,0.9526,,,,,,,,0.017592606,-0.38703705,0,0,0,,0,114,114,121,1,CEERS,HB,old,z,./images/CEERSHB.png,,,,,,,,,,,,,,,,,,,,,,,,,,,,,,,,,,,
,,,,,,,,,,,,,,,,,,27,2022-02-12_13h30.03.823,lexical_decision_task_DD_L4,2021.2.3,Win32,120.105693,,,,,,,,,,,,0.658,1,,,,,,,,,,,,,,m,1,0.658,,,,,,,,0.017592606,-0.38703705,0,0,0,,0,115,115,20,1,GRANNY,LB,old,m,./images/GRANNYLB.png,,,,,,,,,,,,,,,,,,,,,,,,,,,,,,,,,,,
,,,,,,,,,,,,,,,,,,27,2022-02-12_13h30.03.823,lexical_decision_task_DD_L4,2021.2.3,Win32,120.105693,,,,,,,,,,,,0.5457,1,,,,,,,,,,,,,,m,1,0.5457,,,,,,,,0.017592606,-0.38703705,0,0,0,,0,116,116,48,1,SHIELD,C,old,m,./images/SHIELD.png,,,,,,,,,,,,,,,,,,,,,,,,,,,,,,,,,,,
,,,,,,,,,,,,,,,,,,27,2022-02-12_13h30.03.823,lexical_decision_task_DD_L4,2021.2.3,Win32,120.105693,,,,,,,,,,,,0.5017,1,,,,,,,,,,,,,,m,1,0.5017,,,,,,,,0.017592606,-0.38703705,0,0,0,,0,117,117,41,1,STREAM,LB,old,m,./images/STREAMLB.png,,,,,,,,,,,,,,,,,,,,,,,,,,,,,,,,,,,
,,,,,,,,,,,,,,,,,,27,2022-02-12_13h30.03.823,lexical_decision_task_DD_L4,2021.2.3,Win32,120.105693,,,,,,,,,,,,1.1014,0,,,,,,,,,,,,,,z,0,1.1014,,,,,,,,0.017592606,-0.38703705,0,0,0,,0,118,118,58,1,CANOE,HB,old,m,./images/CANOEHB.png,,,,,,,,,,,,,,,,,,,,,,,,,,,,,,,,,,,
,,,,,,,,,,,,,,,,,,27,2022-02-12_13h30.03.823,lexical_decision_task_DD_L4,2021.2.3,Win32,120.105693,,,,,,,,,,,,0.6136,1,,,,,,,,,,,,,,m,1,0.6136,,,,,,,,0.017592606,-0.38703705,0,0,0,,0,119,119,63,1,BAKER,C,old,m,./images/BAKER.png,,,,,,,,,,,,,,,,,,,,,,,,,,,,,,,,,,,
,,,,,,,,,,,,,,,,,,27,2022-02-12_13h30.03.823,lexical_decision_task_DD_L4,2021.2.3,Win32,120.105693,,,,,,,,,,,,0.7911,1,,,,,,,,,,,,,,m,1,0.7911,,,,,,,,0.017592606,-0.38703705,0,0,0,,0,120,120,28,1,CASINO,HB,old,m,./images/CASINOHB.png,,,,,,,,,,,,,,,,,,,,,,,,,,,,,,,,,,,
,,,,,,,,,,,,,,,,,,27,2022-02-12_13h30.03.823,lexical_decision_task_DD_L4,2021.2.3,Win32,120.105693,,,,,,,,,,,,0.5864,1,,,,,,,,,,,,,,m,1,0.5864,,,,,,,,0.017592606,-0.38703705,0,0,0,,0,121,121,15,1,COLLAR,C,old,m,./images/COLLAR.png,,,,,,,,,,,,,,,,,,,,,,,,,,,,,,,,,,,
,,,,,,,,,,,,,,,,,,27,2022-02-12_13h30.03.823,lexical_decision_task_DD_L4,2021.2.3,Win32,120.105693,,,,,,,,,,,,1.2721,1,,,,,,,,,,,,,,z,1,1.2721,,,,,,,,0.017592606,-0.38703705,0,0,0,,0,122,122,103,1,FLORT,HB,old,z,./images/FLORTHB.png,,,,,,,,,,,,,,,,,,,,,,,,,,,,,,,,,,,
,,,,,,,,,,,,,,,,,,27,2022-02-12_13h30.03.823,lexical_decision_task_DD_L4,2021.2.3,Win32,120.105693,,,,,,,,,,,,0.8804,1,,,,,,,,,,,,,,m,1,0.8804,,,,,,,,0.017592606,-0.38703705,0,0,0,,0,123,123,4,1,BOXER,HB,old,m,./images/BOXERHB.png,,,,,,,,,,,,,,,,,,,,,,,,,,,,,,,,,,,
,,,,,,,,,,,,,,,,,,27,2022-02-12_13h30.03.823,lexical_decision_task_DD_L4,2021.2.3,Win32,120.105693,,,,,,,,,,,,0.6089,1,,,,,,,,,,,,,,z,1,0.6089,,,,,,,,0.017592606,-0.38703705,0,0,0,,0,124,124,150,1,NOOLS,C,old,z,./images/NOOLS.png,,,,,,,,,,,,,,,,,,,,,,,,,,,,,,,,,,,
,,,,,,,,,,,,,,,,,,27,2022-02-12_13h30.03.823,lexical_decision_task_DD_L4,2021.2.3,Win32,120.105693,,,,,,,,,,,,0.5857,1,,,,,,,,,,,,,,m,1,0.5857,,,,,,,,0.017592606,-0.38703705,0,0,0,space,0,125,125,53,1,POSTER,LB,old,m,./images/POSTERLB.png,,85.2359,,,,,,,,,,,,,,,,,,,,,,,,,,,,,,,,,
,,,,,,,,,,,,,,,,,,27,2022-02-12_13h30.03.823,lexical_decision_task_DD_L4,2021.2.3,Win32,120.105693,,,,,,,,,,,,0.7495,1,,,,,,,,,,,,,,m,1,0.7495,,,,,,,,0.017592606,-0.38703705,0,0,0,,0,126,126,1,1,TOWEL,HB,old,m,./images/TOWELHB.png,,,,,,,,,,,,,,,,,,,,,,,,,,,,,,,,,,,
,,,,,,,,,,,,,,,,,,27,2022-02-12_13h30.03.823,lexical_decision_task_DD_L4,2021.2.3,Win32,120.105693,,,,,,,,,,,,0.6992,1,,,,,,,,,,,,,,m,1,0.6992,,,,,,,,0.017592606,-0.38703705,0,0,0,,0,127,127,14,1,FENCE,LB,old,m,./images/FENCELB.png,,,,,,,,,,,,,,,,,,,,,,,,,,,,,,,,,,,
,,,,,,,,,,,,,,,,,,27,2022-02-12_13h30.03.823,lexical_decision_task_DD_L4,2021.2.3,Win32,120.105693,,,,,,,,,,,,0.5498,1,,,,,,,,,,,,,,z,1,0.5498,,,,,,,,0.017592606,-0.38703705,0,0,0,,0,128,128,96,1,KEAMS,C,old,z,./images/KEAMS.png,,,,,,,,,,,,,,,,,,,,,,,,,,,,,,,,,,,
,,,,,,,,,,,,,,,,,,27,2022-02-12_13h30.03.823,lexical_decision_task_DD_L4,2021.2.3,Win32,120.105693,,,,,,,,,,,,1.0914,1,,,,,,,,,,,,,,m,1,1.0914,,,,,,,,0.017592606,-0.38703705,0,0,0,,0,129,129,7,1,WAGON,HB,old,m,./images/WAGONHB.png,,,,,,,,,,,,,,,,,,,,,,,,,,,,,,,,,,,
,,,,,,,,,,,,,,,,,,27,2022-02-12_13h30.03.823,lexical_decision_task_DD_L4,2021.2.3,Win32,120.105693,,,,,,,,,,,,0.6652,1,,,,,,,,,,,,,,z,1,0.6652,,,,,,,,0.017592606,-0.38703705,0,0,0,,0,130,130,143,1,MONGS,LB,old,z,./images/MONGSLB.png,,,,,,,,,,,,,,,,,,,,,,,,,,,,,,,,,,,
,,,,,,,,,,,,,,,,,,27,2022-02-12_13h30.03.823,lexical_decision_task_DD_L4,2021.2.3,Win32,120.105693,,,,,,,,,,,,0.864,0,,,,,,,,,,,,,,z,0,0.864,,,,,,,,0.017592606,-0.38703705,0,0,0,,0,131,131,40,1,SNAKE,HB,old,m,./images/SNAKEHB.png,,,,,,,,,,,,,,,,,,,,,,,,,,,,,,,,,,,
,,,,,,,,,,,,,,,,,,27,2022-02-12_13h30.03.823,lexical_decision_task_DD_L4,2021.2.3,Win32,120.105693,,,,,,,,,,,,0.6107,1,,,,,,,,,,,,,,z,1,0.6107,,,,,,,,0.017592606,-0.38703705,0,0,0,,0,132,132,120,1,RINED,C,old,z,./images/RINED.png,,,,,,,,,,,,,,,,,,,,,,,,,,,,,,,,,,,
,,,,,,,,,,,,,,,,,,27,2022-02-12_13h30.03.823,lexical_decision_task_DD_L4,2021.2.3,Win32,120.105693,,,,,,,,,,,,0.5916,0,,,,,,,,,,,,,,m,0,0.5916,,,,,,,,0.017592606,-0.38703705,0,0,0,,0,133,133,139,1,BLEAR,HB,old,z,./images/BLEARHB.png,,,,,,,,,,,,,,,,,,,,,,,,,,,,,,,,,,,
,,,,,,,,,,,,,,,,,,27,2022-02-12_13h30.03.823,lexical_decision_task_DD_L4,2021.2.3,Win32,120.105693,,,,,,,,,,,,0.5159,1,,,,,,,,,,,,,,m,1,0.5159,,,,,,,,0.017592606,-0.38703705,0,0,0,,0,134,134,65,1,SPINE,LB,old,m,./images/SPINELB.png,,,,,,,,,,,,,,,,,,,,,,,,,,,,,,,,,,,
,,,,,,,,,,,,,,,,,,27,2022-02-12_13h30.03.823,lexical_decision_task_DD_L4,2021.2.3,Win32,120.105693,,,,,,,,,,,,0.4904,0,,,,,,,,,,,,,,m,0,0.4904,,,,,,,,0.017592606,-0.38703705,0,0,0,,0,135,135,110,1,CRUNK,LB,old,z,./images/CRUNKLB.png,,,,,,,,,,,,,,,,,,,,,,,,,,,,,,,,,,,
,,,,,,,,,,,,,,,,,,27,2022-02-12_13h30.03.823,lexical_decision_task_DD_L4,2021.2.3,Win32,120.105693,,,,,,,,,,,,2.8987,0,,,,,,,,,,,,,,m,0,2.8987,,,,,,,,0.017592606,-0.38703705,0,0,0,,0,136,136,157,1,INLER,HB,old,z,./images/INLERHB.png,,,,,,,,,,,,,,,,,,,,,,,,,,,,,,,,,,,
,,,,,,,,,,,,,,,,,,27,2022-02-12_13h30.03.823,lexical_decision_task_DD_L4,2021.2.3,Win32,120.105693,,,,,,,,,,,,0.6424,1,,,,,,,,,,,,,,z,1,0.6424,,,,,,,,0.017592606,-0.38703705,0,0,0,,0,137,137,97,1,CHIDS,HB,old,z,./images/CHIDSHB.png,,,,,,,,,,,,,,,,,,,,,,,,,,,,,,,,,,,
,,,,,,,,,,,,,,,,,,27,2022-02-12_13h30.03.823,lexical_decision_task_DD_L4,2021.2.3,Win32,120.105693,,,,,,,,,,,,0.9793,0,,,,,,,,,,,,,,m,0,0.9793,,,,,,,,0.017592606,-0.38703705,0,0,0,,0,138,138,163,1,GAMBA,HB,old,z,./images/GAMBAHB.png,,,,,,,,,,,,,,,,,,,,,,,,,,,,,,,,,,,
,,,,,,,,,,,,,,,,,,27,2022-02-12_13h30.03.823,lexical_decision_task_DD_L4,2021.2.3,Win32,120.105693,,,,,,,,,,,,0.6244,1,,,,,,,,,,,,,,m,1,0.6244,,,,,,,,0.017592606,-0.38703705,0,0,0,,0,139,139,61,1,ARTIST,HB,old,m,./images/ARTISTHB.png,,,,,,,,,,,,,,,,,,,,,,,,,,,,,,,,,,,
,,,,,,,,,,,,,,,,,,27,2022-02-12_13h30.03.823,lexical_decision_task_DD_L4,2021.2.3,Win32,120.105693,,,,,,,,,,,,1.3251,1,,,,,,,,,,,,,,z,1,1.3251,,,,,,,,0.017592606,-0.38703705,0,0,0,,0,140,140,158,1,EGECT,LB,old,z,./images/EGECTLB.png,,,,,,,,,,,,,,,,,,,,,,,,,,,,,,,,,,,
,,,,,,,,,,,,,,,,,,27,2022-02-12_13h30.03.823,lexical_decision_task_DD_L4,2021.2.3,Win32,120.105693,,,,,,,,,,,,0.5787,1,,,,,,,,,,,,,,m,1,0.5787,,,,,,,,0.017592606,-0.38703705,0,0,0,,0,141,141,42,1,CHAIN,C,old,m,./images/CHAIN.png,,,,,,,,,,,,,,,,,,,,,,,,,,,,,,,,,,,
,,,,,,,,,,,,,,,,,,27,2022-02-12_13h30.03.823,lexical_decision_task_DD_L4,2021.2.3,Win32,120.105693,,,,,,,,,,,,1.2396,0,,,,,,,,,,,,,,m,0,1.2396,,,,,,,,0.017592606,-0.38703705,0,0,0,,0,142,142,88,1,GLUSH,HB,old,z,./images/GLUSHHB.png,,,,,,,,,,,,,,,,,,,,,,,,,,,,,,,,,,,
,,,,,,,,,,,,,,,,,,27,2022-02-12_13h30.03.823,lexical_decision_task_DD_L4,2021.2.3,Win32,120.105693,,,,,,,,,,,,0.6124,1,,,,,,,,,,,,,,m,1,0.6124,,,,,,,,0.017592606,-0.38703705,0,0,0,,0,143,143,10,1,GARDEN,HB,old,m,./images/GARDENHB.png,,,,,,,,,,,,,,,,,,,,,,,,,,,,,,,,,,,
,,,,,,,,,,,,,,,,,,27,2022-02-12_13h30.03.823,lexical_decision_task_DD_L4,2021.2.3,Win32,120.105693,,,,,,,,,,,,0.6574,1,,,,,,,,,,,,,,z,1,0.6574,,,,,,,,0.017592606,-0.38703705,0,0,0,,0,144,144,119,1,PAFER,LB,old,z,./images/PAFERLB.png,,,,,,,,,,,,,,,,,,,,,,,,,,,,,,,,,,,
,,,,,,,,,,,,,,,,,,27,2022-02-12_13h30.03.823,lexical_decision_task_DD_L4,2021.2.3,Win32,120.105693,,,,,,,,,,,,0.5457,1,,,,,,,,,,,,,,m,1,0.5457,,,,,,,,0.017592606,-0.38703705,0,0,0,,0,145,145,57,1,FERRY,C,old,m,./images/FERRY.png,,,,,,,,,,,,,,,,,,,,,,,,,,,,,,,,,,,
,,,,,,,,,,,,,,,,,,27,2022-02-12_13h30.03.823,lexical_decision_task_DD_L4,2021.2.3,Win32,120.105693,,,,,,,,,,,,1.0464,0,,,,,,,,,,,,,,m,0,1.0464,,,,,,,,0.017592606,-0.38703705,0,0,0,,0,146,146,104,1,GITTY,LB,old,z,./images/GITTYLB.png,,,,,,,,,,,,,,,,,,,,,,,,,,,,,,,,,,,
,,,,,,,,,,,,,,,,,,27,2022-02-12_13h30.03.823,lexical_decision_task_DD_L4,2021.2.3,Win32,120.105693,,,,,,,,,,,,1.8905,1,,,,,,,,,,,,,,z,1,1.8905,,,,,,,,0.017592606,-0.38703705,0,0,0,,0,147,147,127,1,NINDY,HB,old,z,./images/NINDYHB.png,,,,,,,,,,,,,,,,,,,,,,,,,,,,,,,,,,,
,,,,,,,,,,,,,,,,,,27,2022-02-12_13h30.03.823,lexical_decision_task_DD_L4,2021.2.3,Win32,120.105693,,,,,,,,,,,,0.7814,1,,,,,,,,,,,,,,z,1,0.7814,,,,,,,,0.017592606,-0.38703705,0,0,0,,0,148,148,156,1,HIXES,C,old,z,./images/HIXES.png,,,,,,,,,,,,,,,,,,,,,,,,,,,,,,,,,,,
,,,,,,,,,,,,,,,,,,27,2022-02-12_13h30.03.823,lexical_decision_task_DD_L4,2021.2.3,Win32,120.105693,,,,,,,,,,,,1.365,1,,,,,,,,,,,,,,m,1,1.365,,,,,,,,0.017592606,-0.38703705,0,0,0,,0,149,149,43,1,STOOL,HB,old,m,./images/STOOLHB.png,,,,,,,,,,,,,,,,,,,,,,,,,,,,,,,,,,,
,,,,,,,,,,,,,,,,,,27,2022-02-12_13h30.03.823,lexical_decision_task_DD_L4,2021.2.3,Win32,120.105693,,,,,,,,,,,,0.9654,1,,,,,,,,,,,,,,z,1,0.9654,,,,,,,,0.017592606,-0.38703705,0,0,0,,0,150,150,98,1,BAMPS,LB,old,z,./images/BAMPSLB.png,,,,,,,,,,,,,,,,,,,,,,,,,,,,,,,,,,,
,,,,,,,,,,,,,,,,,,27,2022-02-12_13h30.03.823,lexical_decision_task_DD_L4,2021.2.3,Win32,120.105693,,,,,,,,,,,,0.7388,1,,,,,,,,,,,,,,m,1,0.7388,,,,,,,,0.017592606,-0.38703705,0,0,0,,0,151,151,46,1,MUMMY,HB,old,m,./images/MUMMYHB.png,,,,,,,,,,,,,,,,,,,,,,,,,,,,,,,,,,,
,,,,,,,,,,,,,,,,,,27,2022-02-12_13h30.03.823,lexical_decision_task_DD_L4,2021.2.3,Win32,120.105693,,,,,,,,,,,,0.5664,1,,,,,,,,,,,,,,m,1,0.5664,,,,,,,,0.017592606,-0.38703705,0,0,0,,0,152,152,36,1,BOILER,C,old,m,./images/BOILER.png,,,,,,,,,,,,,,,,,,,,,,,,,,,,,,,,,,,
,,,,,,,,,,,,,,,,,,27,2022-02-12_13h30.03.823,lexical_decision_task_DD_L4,2021.2.3,Win32,120.105693,,,,,,,,,,,,0.9065,1,,,,,,,,,,,,,,z,1,0.9065,,,,,,,,0.017592606,-0.38703705,0,0,0,,0,153,153,142,1,PLASK,HB,old,z,./images/PLASKHB.png,,,,,,,,,,,,,,,,,,,,,,,,,,,,,,,,,,,
,,,,,,,,,,,,,,,,,,27,2022-02-12_13h30.03.823,lexical_decision_task_DD_L4,2021.2.3,Win32,120.105693,,,,,,,,,,,,0.5012,1,,,,,,,,,,,,,,m,1,0.5012,,,,,,,,0.017592606,-0.38703705,0,0,0,,0,154,154,81,1,DRILL,C,old,m,./images/DRILL.png,,,,,,,,,,,,,,,,,,,,,,,,,,,,,,,,,,,
,,,,,,,,,,,,,,,,,,27,2022-02-12_13h30.03.823,lexical_decision_task_DD_L4,2021.2.3,Win32,120.105693,,,,,,,,,,,,0.9294,1,,,,,,,,,,,,,,z,1,0.9294,,,,,,,,0.017592606,-0.38703705,0,0,0,,0,155,155,165,1,TROWN,C,old,z,./images/TROWN.png,,,,,,,,,,,,,,,,,,,,,,,,,,,,,,,,,,,
,,,,,,,,,,,,,,,,,,27,2022-02-12_13h30.03.823,lexical_decision_task_DD_L4,2021.2.3,Win32,120.105693,,,,,,,,,,,,1.4999,0,,,,,,,,,,,,,,m,0,1.4999,,,,,,,,0.017592606,-0.38703705,0,0,0,,0,156,156,85,1,CHULK,HB,old,z,./images/CHULKHB.png,,,,,,,,,,,,,,,,,,,,,,,,,,,,,,,,,,,
,,,,,,,,,,,,,,,,,,27,2022-02-12_13h30.03.823,lexical_decision_task_DD_L4,2021.2.3,Win32,120.105693,,,,,,,,,,,,0.8226,1,,,,,,,,,,,,,,m,1,0.8226,,,,,,,,0.017592606,-0.38703705,0,0,0,,0,157,157,79,1,RULER,HB,old,m,./images/RULERHB.png,,,,,,,,,,,,,,,,,,,,,,,,,,,,,,,,,,,
,,,,,,,,,,,,,,,,,,27,2022-02-12_13h30.03.823,lexical_decision_task_DD_L4,2021.2.3,Win32,120.105693,,,,,,,,,,,,0.5265,1,,,,,,,,,,,,,,m,1,0.5265,,,,,,,,0.017592606,-0.38703705,0,0,0,,0,158,158,69,1,ARROW,C,old,m,./images/ARROW.png,,,,,,,,,,,,,,,,,,,,,,,,,,,,,,,,,,,
,,,,,,,,,,,,,,,,,,27,2022-02-12_13h30.03.823,lexical_decision_task_DD_L4,2021.2.3,Win32,120.105693,,,,,,,,,,,,0.6408,1,,,,,,,,,,,,,,m,1,0.6408,,,,,,,,0.017592606,-0.38703705,0,0,0,,0,159,159,67,1,POKER,HB,old,m,./images/POKERHB.png,,,,,,,,,,,,,,,,,,,,,,,,,,,,,,,,,,,
,,,,,,,,,,,,,,,,,,27,2022-02-12_13h30.03.823,lexical_decision_task_DD_L4,2021.2.3,Win32,120.105693,,,,,,,,,,,,0.7446,1,,,,,,,,,,,,,,z,1,0.7446,,,,,,,,0.017592606,-0.38703705,0,0,0,,0,160,160,111,1,HOSSE,C,old,z,./images/HOSSE.png,,,,,,,,,,,,,,,,,,,,,,,,,,,,,,,,,,,
,,,,,,,,,,,,,,,,,,27,2022-02-12_13h30.03.823,lexical_decision_task_DD_L4,2021.2.3,Win32,120.105693,,,,,,,,,,,,1.9225,1,,,,,,,,,,,,,,z,1,1.9225,,,,,,,,0.017592606,-0.38703705,0,0,0,,0,161,161,151,1,TINKY,HB,old,z,./images/TINKYHB.png,,,,,,,,,,,,,,,,,,,,,,,,,,,,,,,,,,,
,,,,,,,,,,,,,,,,,,27,2022-02-12_13h30.03.823,lexical_decision_task_DD_L4,2021.2.3,Win32,120.105693,,,,,,,,,,,,0.6789,1,,,,,,,,,,,,,,z,1,0.6789,,,,,,,,0.017592606,-0.38703705,0,0,0,,0,162,162,149,1,VEASE,LB,old,z,./images/VEASELB.png,,,,,,,,,,,,,,,,,,,,,,,,,,,,,,,,,,,
,,,,,,,,,,,,,,,,,,27,2022-02-12_13h30.03.823,lexical_decision_task_DD_L4,2021.2.3,Win32,120.105693,,,,,,,,,,,,0.589,1,,,,,,,,,,,,,,m,1,0.589,,,,,,,,0.017592606,-0.38703705,0,0,0,,0,163,163,73,1,GLOVE,HB,old,m,./images/GLOVEHB.png,,,,,,,,,,,,,,,,,,,,,,,,,,,,,,,,,,,
,,,,,,,,,,,,,,,,,,27,2022-02-12_13h30.03.823,lexical_decision_task_DD_L4,2021.2.3,Win32,120.105693,,,,,,,,,,,,1.6053,1,,,,,,,,,,,,,,z,1,1.6053,,,,,,,,0.017592606,-0.38703705,0,0,0,,0,164,164,114,1,RIKES,C,old,z,./images/RIKES.png,,,,,,,,,,,,,,,,,,,,,,,,,,,,,,,,,,,
,,,,,,,,,,,,,,,,,,27,2022-02-12_13h30.03.823,lexical_decision_task_DD_L4,2021.2.3,Win32,120.105693,,,,,,,,,,,,0.752,1,,,,,,,,,,,,,,m,1,0.752,,,,,,,,0.017592606,-0.38703705,0,0,0,,0,165,165,80,1,PLANET,LB,old,m,./images/PLANETLB.png,,,,,,,,,,,,,,,,,,,,,,,,,,,,,,,,,,,
,,,,,,,,,,,,,,,,,,27,2022-02-12_13h30.03.823,lexical_decision_task_DD_L4,2021.2.3,Win32,120.105693,,,,,,,,,,,,0.5848,1,,,,,,,,,,,,,,m,1,0.5848,,,,,,,,0.017592606,-0.38703705,0,0,0,,0,166,166,38,1,ENGINE,LB,old,m,./images/ENGINELB.png,,,,,,,,,,,,,,,,,,,,,,,,,,,,,,,,,,,
,,,,,,,,,,,,,,,,,,27,2022-02-12_13h30.03.823,lexical_decision_task_DD_L4,2021.2.3,Win32,120.105693,,,,,,,,,,,,0.8785,1,,,,,,,,,,,,,,z,1,0.8785,,,,,,,,0.017592606,-0.38703705,0,0,0,,0,167,167,126,1,GUELS,C,old,z,./images/GUELS.png,,,,,,,,,,,,,,,,,,,,,,,,,,,,,,,,,,,
,,,,,,,,,,,,,,,,,,27,2022-02-12_13h30.03.823,lexical_decision_task_DD_L4,2021.2.3,Win32,120.105693,,,,,,,,,,,,,,,,,,,,,,,,,,,,,,,,,,,,,,,,,,,,,,,,,How likely will it be that you will recognize the words presented clearly on a scale of 0 (not likely) to 100 (most likely)?,,,,,,-0.006481468,-0.412037051,1,0,0,jol_adv,3,7.527,0,0,0,0,1,,,,,,,,,,,,,,,,,,,,
,,,,,,,,,,,,,,,,,,27,2022-02-12_13h30.03.823,lexical_decision_task_DD_L4,2021.2.3,Win32,120.105693,,,,,,,,,,,,,,,,,,,,,,,,,,,,,,,,,,,,,,,,,,,,,,,,,How likely will it be that you will recognize the words presented slighly blurred on a scale of 0 (not likely) to 100 (most likely)?,,,,,,,,,,,,3,0.4653,0,1,1,1,1,,,,,,,,,,,,,,,,,,,,
,,,,,,,,,,,,,,,,,,27,2022-02-12_13h30.03.823,lexical_decision_task_DD_L4,2021.2.3,Win32,120.105693,,,,,,,,,,,,,,,,,,,,,,,,,,,,,,,,,,,,,,,,,,,,,,,,,How likely will it be that you will recognize the words presented very blurred on a scale of 0 (not likely) to 100 (most likely)?,,,,,,,,,,,,3,0.6024,0,2,2,2,1,,,,,,,,,,,,,,,,,,,,
,,-0.013888876,-0.392592606,1,0,0,,,,,,1,test,"In the next phase you will be presented with the words from the the first phase. Your job is to decide whether you remember seeing the word or not. If you remember seeing the word press ""old"" or type ""m"". If you do not remember seeing the word press ""new"" or type ""z"". Please press the space bar or click on continue to begin. ",,,,27,2022-02-12_13h30.03.823,lexical_decision_task_DD_L4,2021.2.3,Win32,120.105693,instr_done_button,,,,,,,,,,,,,,,,,,,,,,,,,,,,,,,,,,,,,,,,,,,,,,,,,,,,,,,,,,,,,,,,,,,0,0,0,0,1,,,,,,,,,,,,,,,
,,-0.029629617,-0.388888902,1,0,0,,,,,,1,test,"In the next phase you will be presented with the words from the the first phase. Your job is to decide whether you remember seeing the word or not. If you remember seeing the word press ""old"" or type ""m"". If you do not remember seeing the word press ""new"" or type ""z"". Please press the space bar or click on continue to begin. ",,,,27,2022-02-12_13h30.03.823,lexical_decision_task_DD_L4,2021.2.3,Win32,120.105693,instr_done_button,,,,,,,,,,,,,,,,,,,,,,,,,,,,,,,,,,,,,,,,,,,,,,,,,,,,,,,,,,,,,,,,,,,1,0,1,0,1,,,,,,,,,,,,,,,
,,-0.033333321,-0.412037051,1,0,0,,,,,,1,test,"In the next phase you will be presented with the words from the the first phase. Your job is to decide whether you remember seeing the word or not. If you remember seeing the word press ""old"" or type ""m"". If you do not remember seeing the word press ""new"" or type ""z"". Please press the space bar or click on continue to begin. ",,,,27,2022-02-12_13h30.03.823,lexical_decision_task_DD_L4,2021.2.3,Win32,120.105693,instr_done_button,,,,,,,,,,,,,,,,,,,,,,,,,,,,,,,,,,,,,,,,,,,,,,,,,,,,,,,,,,,,,,,,,,,2,0,2,0,1,,,,,,,,,,,,,,,
space,1.3118,-0.039814746,-0.20925927,0,0,0,,,,,,1,test,"In the next phase you will be presented with the words from the the first phase. Your job is to decide whether you remember seeing the word or not. If you remember seeing the word press ""old"" or type ""m"". If you do not remember seeing the word press ""new"" or type ""z"". Please press the space bar or click on continue to begin. ",,,,27,2022-02-12_13h30.03.823,lexical_decision_task_DD_L4,2021.2.3,Win32,120.105693,,,,,,,,,,,,,,,,,,,,,,,,,,,,,,,,,,,,,,,,,,,,,,,,,,,,,,,,,,,,,,,,,,,,3,0,3,0,1,,,,,,,,,,,,,,,
space,2.5245,-0.028703691,-0.144444454,0,0,0,,,,,,1,test,"In the next phase you will be presented with the words from the the first phase. Your job is to decide whether you remember seeing the word or not. If you remember seeing the word press ""old"" or type ""m"". If you do not remember seeing the word press ""new"" or type ""z"". Please press the space bar or click on continue to begin. ",,,,27,2022-02-12_13h30.03.823,lexical_decision_task_DD_L4,2021.2.3,Win32,120.105693,,,,,,,,,,,,,,,,,,,,,,,,,,,,,,,,,,,,,,,,,,,,,,,,,,,,,,,,,,,,,,,,,,,,4,0,4,0,1,,,,,,,,,,,,,,,
,,,,,,,,,,,,,,,,,,27,2022-02-12_13h30.03.823,lexical_decision_task_DD_L4,2021.2.3,Win32,120.105693,,,,,,,,,,,,1.5446,1,,,,,,,,,,,,,,,,,,,,,,,,-0.028703691,-0.144444454,0,0,0,,,,,,,URINE,HB,z,y,./images/URINEHB.png,,,,,,,,,,,,,,,,,,,,,z,1,1.5446,,,,,,,,0,0,0,154,1
,,,,,,,,,,,,,,,,,,27,2022-02-12_13h30.03.823,lexical_decision_task_DD_L4,2021.2.3,Win32,120.105693,,,,,,,,,,,,0.9269,1,,,,,,,,,,,,,,,,,,,,,,,,-0.028703691,-0.144444454,0,0,0,,,,,,,KITTEN,C,z,y,./images/KITTEN.png,,,,,,,,,,,,,,,,,,,,,z,1,0.9269,,,,,,,,0,1,1,129,1
,,,,,,,,,,,,,,,,,,27,2022-02-12_13h30.03.823,lexical_decision_task_DD_L4,2021.2.3,Win32,120.105693,,,,,,,,,,,,1.0674,1,,,,,,,,,,,,,,,,,,,,,,,,-0.028703691,-0.144444454,0,0,0,,,,,,,STEAK,HB,m,y,./images/STEAKHB.png,,,,,,,,,,,,,,,,,,,,,m,1,1.0674,,,,,,,,0,2,2,31,1
,,,,,,,,,,,,,,,,,,27,2022-02-12_13h30.03.823,lexical_decision_task_DD_L4,2021.2.3,Win32,120.105693,,,,,,,,,,,,0.9344,1,,,,,,,,,,,,,,,,,,,,,,,,-0.028703691,-0.144444454,0,0,0,,,,,,,JELLY,HB,z,y,./images/JELLYHB.png,,,,,,,,,,,,,,,,,,,,,z,1,0.9344,,,,,,,,0,3,3,148,1
,,,,,,,,,,,,,,,,,,27,2022-02-12_13h30.03.823,lexical_decision_task_DD_L4,2021.2.3,Win32,120.105693,,,,,,,,,,,,0.7675,1,,,,,,,,,,,,,,,,,,,,,,,,-0.028703691,-0.144444454,0,0,0,,,,,,,SNACK,HB,z,y,./images/SNACKHB.png,,,,,,,,,,,,,,,,,,,,,z,1,0.7675,,,,,,,,0,4,4,157,1
,,,,,,,,,,,,,,,,,,27,2022-02-12_13h30.03.823,lexical_decision_task_DD_L4,2021.2.3,Win32,120.105693,,,,,,,,,,,,0.8243,1,,,,,,,,,,,,,,,,,,,,,,,,-0.028703691,-0.144444454,0,0,0,,,,,,,SPORT,C,z,y,./images/SPORT.png,,,,,,,,,,,,,,,,,,,,,z,1,0.8243,,,,,,,,0,5,5,132,1
,,,,,,,,,,,,,,,,,,27,2022-02-12_13h30.03.823,lexical_decision_task_DD_L4,2021.2.3,Win32,120.105693,,,,,,,,,,,,0.8076,1,,,,,,,,,,,,,,,,,,,,,,,,-0.028703691,-0.144444454,0,0,0,,,,,,,WALNUT,C,m,y,./images/WALNUT.png,,,,,,,,,,,,,,,,,,,,,m,1,0.8076,,,,,,,,0,6,6,0,1
,,,,,,,,,,,,,,,,,,27,2022-02-12_13h30.03.823,lexical_decision_task_DD_L4,2021.2.3,Win32,120.105693,,,,,,,,,,,,1.0166,1,,,,,,,,,,,,,,,,,,,,,,,,-0.028703691,-0.144444454,0,0,0,,,,,,,GRANNY,LB,m,y,./images/GRANNYLB.png,,,,,,,,,,,,,,,,,,,,,m,1,1.0166,,,,,,,,0,7,7,20,1
,,,,,,,,,,,,,,,,,,27,2022-02-12_13h30.03.823,lexical_decision_task_DD_L4,2021.2.3,Win32,120.105693,,,,,,,,,,,,1.146,1,,,,,,,,,,,,,,,,,,,,,,,,-0.028703691,-0.144444454,0,0,0,,,,,,,WALRUS,LB,z,y,./images/WALRUSLB.png,,,,,,,,,,,,,,,,,,,,,z,1,1.146,,,,,,,,0,8,8,107,1
,,,,,,,,,,,,,,,,,,27,2022-02-12_13h30.03.823,lexical_decision_task_DD_L4,2021.2.3,Win32,120.105693,,,,,,,,,,,,1.2582,1,,,,,,,,,,,,,,,,,,,,,,,,-0.028703691,-0.144444454,0,0,0,,,,,,,TWINS,C,z,y,./images/TWINS.png,,,,,,,,,,,,,,,,,,,,,z,1,1.2582,,,,,,,,0,9,9,144,1
,,,,,,,,,,,,,,,,,,27,2022-02-12_13h30.03.823,lexical_decision_task_DD_L4,2021.2.3,Win32,120.105693,,,,,,,,,,,,0.8092,1,,,,,,,,,,,,,,,,,,,,,,,,-0.028703691,-0.144444454,0,0,0,,,,,,,TULIP,LB,z,y,./images/TULIPLB.png,,,,,,,,,,,,,,,,,,,,,z,1,0.8092,,,,,,,,0,10,10,92,1
,,,,,,,,,,,,,,,,,,27,2022-02-12_13h30.03.823,lexical_decision_task_DD_L4,2021.2.3,Win32,120.105693,,,,,,,,,,,,0.7108,1,,,,,,,,,,,,,,,,,,,,,,,,-0.028703691,-0.144444454,0,0,0,,,,,,,GARDEN,HB,m,y,./images/GARDENHB.png,,,,,,,,,,,,,,,,,,,,,m,1,0.7108,,,,,,,,0,11,11,10,1
,,,,,,,,,,,,,,,,,,27,2022-02-12_13h30.03.823,lexical_decision_task_DD_L4,2021.2.3,Win32,120.105693,,,,,,,,,,,,0.8713,1,,,,,,,,,,,,,,,,,,,,,,,,-0.028703691,-0.144444454,0,0,0,,,,,,,CANDLE,HB,z,y,./images/CANDLEHB.png,,,,,,,,,,,,,,,,,,,,,z,1,0.8713,,,,,,,,0,12,12,145,1
,,,,,,,,,,,,,,,,,,27,2022-02-12_13h30.03.823,lexical_decision_task_DD_L4,2021.2.3,Win32,120.105693,,,,,,,,,,,,0.7432,1,,,,,,,,,,,,,,,,,,,,,,,,-0.028703691,-0.144444454,0,0,0,,,,,,,LADDER,LB,z,y,./images/LADDERLB.png,,,,,,,,,,,,,,,,,,,,,z,1,0.7432,,,,,,,,0,13,13,122,1
,,,,,,,,,,,,,,,,,,27,2022-02-12_13h30.03.823,lexical_decision_task_DD_L4,2021.2.3,Win32,120.105693,,,,,,,,,,,,0.7167,1,,,,,,,,,,,,,,,,,,,,,,,,-0.028703691,-0.144444454,0,0,0,,,,,,,ATTIC,C,z,y,./images/ATTIC.png,,,,,,,,,,,,,,,,,,,,,z,1,0.7167,,,,,,,,0,14,14,111,1
,,,,,,,,,,,,,,,,,,27,2022-02-12_13h30.03.823,lexical_decision_task_DD_L4,2021.2.3,Win32,120.105693,,,,,,,,,,,,1.5514,0,,,,,,,,,,,,,,,,,,,,,,,,-0.028703691,-0.144444454,0,0,0,,,,,,,BRUSH,LB,m,y,./images/BRUSHLB.png,,,,,,,,,,,,,,,,,,,,,z,0,1.5514,,,,,,,,0,15,15,59,1
,,,,,,,,,,,,,,,,,,27,2022-02-12_13h30.03.823,lexical_decision_task_DD_L4,2021.2.3,Win32,120.105693,,,,,,,,,,,,1.2081,1,,,,,,,,,,,,,,,,,,,,,,,,-0.028703691,-0.144444454,0,0,0,,,,,,,SCREW,C,z,y,./images/SCREW.png,,,,,,,,,,,,,,,,,,,,,z,1,1.2081,,,,,,,,0,16,16,108,1
,,,,,,,,,,,,,,,,,,27,2022-02-12_13h30.03.823,lexical_decision_task_DD_L4,2021.2.3,Win32,120.105693,,,,,,,,,,,,0.6503,1,,,,,,,,,,,,,,,,,,,,,,,,-0.028703691,-0.144444454,0,0,0,,,,,,,PEARL,HB,z,y,./images/PEARLHB.png,,,,,,,,,,,,,,,,,,,,,z,1,0.6503,,,,,,,,0,17,17,130,1
,,,,,,,,,,,,,,,,,,27,2022-02-12_13h30.03.823,lexical_decision_task_DD_L4,2021.2.3,Win32,120.105693,,,,,,,,,,,,0.8421,1,,,,,,,,,,,,,,,,,,,,,,,,-0.028703691,-0.144444454,0,0,0,,,,,,,POSTER,LB,m,y,./images/POSTERLB.png,,,,,,,,,,,,,,,,,,,,,m,1,0.8421,,,,,,,,0,18,18,53,1
,,,,,,,,,,,,,,,,,,27,2022-02-12_13h30.03.823,lexical_decision_task_DD_L4,2021.2.3,Win32,120.105693,,,,,,,,,,,,0.6677,1,,,,,,,,,,,,,,,,,,,,,,,,-0.028703691,-0.144444454,0,0,0,,,,,,,CRATER,C,m,y,./images/CRATER.png,,,,,,,,,,,,,,,,,,,,,m,1,0.6677,,,,,,,,0,19,19,3,1
,,,,,,,,,,,,,,,,,,27,2022-02-12_13h30.03.823,lexical_decision_task_DD_L4,2021.2.3,Win32,120.105693,,,,,,,,,,,,0.8492,1,,,,,,,,,,,,,,,,,,,,,,,,-0.028703691,-0.144444454,0,0,0,,,,,,,BIRTH,HB,z,y,./images/BIRTHHB.png,,,,,,,,,,,,,,,,,,,,,z,1,0.8492,,,,,,,,0,20,20,121,1
,,,,,,,,,,,,,,,,,,27,2022-02-12_13h30.03.823,lexical_decision_task_DD_L4,2021.2.3,Win32,120.105693,,,,,,,,,,,,0.6762,1,,,,,,,,,,,,,,,,,,,,,,,,-0.028703691,-0.144444454,0,0,0,,,,,,,WHISKY,LB,m,y,./images/WHISKYLB.png,,,,,,,,,,,,,,,,,,,,,m,1,0.6762,,,,,,,,0,21,21,83,1
,,,,,,,,,,,,,,,,,,27,2022-02-12_13h30.03.823,lexical_decision_task_DD_L4,2021.2.3,Win32,120.105693,,,,,,,,,,,,2.8825,1,,,,,,,,,,,,,,,,,,,,,,,,-0.028703691,-0.144444454,0,0,0,,,,,,,POODLE,C,z,y,./images/POODLE.png,,,,,,,,,,,,,,,,,,,,,z,1,2.8825,,,,,,,,0,22,22,165,1
,,,,,,,,,,,,,,,,,,27,2022-02-12_13h30.03.823,lexical_decision_task_DD_L4,2021.2.3,Win32,120.105693,,,,,,,,,,,,0.6128,1,,,,,,,,,,,,,,,,,,,,,,,,-0.028703691,-0.144444454,0,0,0,,,,,,,MAMMAL,LB,m,y,./images/MAMMALLB.png,,,,,,,,,,,,,,,,,,,,,m,1,0.6128,,,,,,,,0,23,23,62,1
,,,,,,,,,,,,,,,,,,27,2022-02-12_13h30.03.823,lexical_decision_task_DD_L4,2021.2.3,Win32,120.105693,,,,,,,,,,,,0.7333,1,,,,,,,,,,,,,,,,,,,,,,,,-0.028703691,-0.144444454,0,0,0,,,,,,,CHERRY,C,m,y,./images/CHERRY.png,,,,,,,,,,,,,,,,,,,,,m,1,0.7333,,,,,,,,0,24,24,54,1
,,,,,,,,,,,,,,,,,,27,2022-02-12_13h30.03.823,lexical_decision_task_DD_L4,2021.2.3,Win32,120.105693,,,,,,,,,,,,0.7242,1,,,,,,,,,,,,,,,,,,,,,,,,-0.028703691,-0.144444454,0,0,0,,,,,,,BAKER,C,m,y,./images/BAKER.png,,,,,,,,,,,,,,,,,,,,,m,1,0.7242,,,,,,,,0,25,25,63,1
,,,,,,,,,,,,,,,,,,27,2022-02-12_13h30.03.823,lexical_decision_task_DD_L4,2021.2.3,Win32,120.105693,,,,,,,,,,,,1.1564,0,,,,,,,,,,,,,,,,,,,,,,,,-0.028703691,-0.144444454,0,0,0,,,,,,,PENCE,HB,z,y,./images/PENCEHB.png,,,,,,,,,,,,,,,,,,,,,m,0,1.1564,,,,,,,,0,26,26,100,1
,,,,,,,,,,,,,,,,,,27,2022-02-12_13h30.03.823,lexical_decision_task_DD_L4,2021.2.3,Win32,120.105693,,,,,,,,,,,,0.5935,1,,,,,,,,,,,,,,,,,,,,,,,,-0.028703691,-0.144444454,0,0,0,,,,,,,LLAMA,LB,m,y,./images/LLAMALB.png,,,,,,,,,,,,,,,,,,,,,m,1,0.5935,,,,,,,,0,27,27,35,1
,,,,,,,,,,,,,,,,,,27,2022-02-12_13h30.03.823,lexical_decision_task_DD_L4,2021.2.3,Win32,120.105693,,,,,,,,,,,,0.7504,1,,,,,,,,,,,,,,,,,,,,,,,,-0.028703691,-0.144444454,0,0,0,,,,,,,BEARD,LB,z,y,./images/BEARDLB.png,,,,,,,,,,,,,,,,,,,,,z,1,0.7504,,,,,,,,0,28,28,86,1
,,,,,,,,,,,,,,,,,,27,2022-02-12_13h30.03.823,lexical_decision_task_DD_L4,2021.2.3,Win32,120.105693,,,,,,,,,,,,0.6021,1,,,,,,,,,,,,,,,,,,,,,,,,-0.028703691,-0.144444454,0,0,0,,,,,,,BANANA,HB,m,y,./images/BANANAHB.png,,,,,,,,,,,,,,,,,,,,,m,1,0.6021,,,,,,,,0,29,29,70,1
,,,,,,,,,,,,,,,,,,27,2022-02-12_13h30.03.823,lexical_decision_task_DD_L4,2021.2.3,Win32,120.105693,,,,,,,,,,,,0.5945,1,,,,,,,,,,,,,,,,,,,,,,,,-0.028703691,-0.144444454,0,0,0,,,,,,,VALLEY,LB,m,y,./images/VALLEYLB.png,,,,,,,,,,,,,,,,,,,,,m,1,0.5945,,,,,,,,0,30,30,68,1
,,,,,,,,,,,,,,,,,,27,2022-02-12_13h30.03.823,lexical_decision_task_DD_L4,2021.2.3,Win32,120.105693,,,,,,,,,,,,0.5388,1,,,,,,,,,,,,,,,,,,,,,,,,-0.028703691,-0.144444454,0,0,0,,,,,,,JUMPER,LB,m,y,./images/JUMPERLB.png,,,,,,,,,,,,,,,,,,,,,m,1,0.5388,,,,,,,,0,31,31,74,1
,,,,,,,,,,,,,,,,,,27,2022-02-12_13h30.03.823,lexical_decision_task_DD_L4,2021.2.3,Win32,120.105693,,,,,,,,,,,,0.5015,1,,,,,,,,,,,,,,,,,,,,,,,,-0.028703691,-0.144444454,0,0,0,,,,,,,CLOTH,LB,m,y,./images/CLOTHLB.png,,,,,,,,,,,,,,,,,,,,,m,1,0.5015,,,,,,,,0,32,32,23,1
,,,,,,,,,,,,,,,,,,27,2022-02-12_13h30.03.823,lexical_decision_task_DD_L4,2021.2.3,Win32,120.105693,,,,,,,,,,,,0.4936,1,,,,,,,,,,,,,,,,,,,,,,,,-0.028703691,-0.144444454,0,0,0,,,,,,,ARTIST,HB,m,y,./images/ARTISTHB.png,,,,,,,,,,,,,,,,,,,,,m,1,0.4936,,,,,,,,0,33,33,61,1
,,,,,,,,,,,,,,,,,,27,2022-02-12_13h30.03.823,lexical_decision_task_DD_L4,2021.2.3,Win32,120.105693,,,,,,,,,,,,0.5787,1,,,,,,,,,,,,,,,,,,,,,,,,-0.028703691,-0.144444454,0,0,0,,,,,,,SHIELD,C,m,y,./images/SHIELD.png,,,,,,,,,,,,,,,,,,,,,m,1,0.5787,,,,,,,,0,34,34,48,1
,,,,,,,,,,,,,,,,,,27,2022-02-12_13h30.03.823,lexical_decision_task_DD_L4,2021.2.3,Win32,120.105693,,,,,,,,,,,,0.5095,1,,,,,,,,,,,,,,,,,,,,,,,,-0.028703691,-0.144444454,0,0,0,,,,,,,STOVE,LB,m,y,./images/STOVELB.png,,,,,,,,,,,,,,,,,,,,,m,1,0.5095,,,,,,,,0,35,35,2,1
,,,,,,,,,,,,,,,,,,27,2022-02-12_13h30.03.823,lexical_decision_task_DD_L4,2021.2.3,Win32,120.105693,,,,,,,,,,,,0.4696,0,,,,,,,,,,,,,,,,,,,,,,,,-0.028703691,-0.144444454,0,0,0,,,,,,,PACKET,LB,z,y,./images/PACKETLB.png,,,,,,,,,,,,,,,,,,,,,m,0,0.4696,,,,,,,,0,36,36,140,1
,,,,,,,,,,,,,,,,,,27,2022-02-12_13h30.03.823,lexical_decision_task_DD_L4,2021.2.3,Win32,120.105693,,,,,,,,,,,,0.8434,1,,,,,,,,,,,,,,,,,,,,,,,,-0.028703691,-0.144444454,0,0,0,,,,,,,DRUMS,HB,z,y,./images/DRUMSHB.png,,,,,,,,,,,,,,,,,,,,,z,1,0.8434,,,,,,,,0,37,37,133,1
,,,,,,,,,,,,,,,,,,27,2022-02-12_13h30.03.823,lexical_decision_task_DD_L4,2021.2.3,Win32,120.105693,,,,,,,,,,,,0.5689,1,,,,,,,,,,,,,,,,,,,,,,,,-0.028703691,-0.144444454,0,0,0,,,,,,,PILOT,LB,m,y,./images/PILOTLB.png,,,,,,,,,,,,,,,,,,,,,m,1,0.5689,,,,,,,,0,38,38,50,1
,,,,,,,,,,,,,,,,,,27,2022-02-12_13h30.03.823,lexical_decision_task_DD_L4,2021.2.3,Win32,120.105693,,,,,,,,,,,,0.5981,1,,,,,,,,,,,,,,,,,,,,,,,,-0.028703691,-0.144444454,0,0,0,,,,,,,MIDGET,HB,m,y,./images/MIDGETHB.png,,,,,,,,,,,,,,,,,,,,,m,1,0.5981,,,,,,,,0,39,39,76,1
,,,,,,,,,,,,,,,,,,27,2022-02-12_13h30.03.823,lexical_decision_task_DD_L4,2021.2.3,Win32,120.105693,,,,,,,,,,,,0.566,1,,,,,,,,,,,,,,,,,,,,,,,,-0.028703691,-0.144444454,0,0,0,,,,,,,CHAIN,C,m,y,./images/CHAIN.png,,,,,,,,,,,,,,,,,,,,,m,1,0.566,,,,,,,,0,40,40,42,1
,,,,,,,,,,,,,,,,,,27,2022-02-12_13h30.03.823,lexical_decision_task_DD_L4,2021.2.3,Win32,120.105693,,,,,,,,,,,,0.525,0,,,,,,,,,,,,,,,,,,,,,,,,-0.028703691,-0.144444454,0,0,0,space,,,,,,RHINO,C,z,y,./images/RHINO.png,,8.3238,,,,,,,,,,,,,,,,,,,m,0,0.525,,,,,,,,0,41,41,93,1
,,,,,,,,,,,,,,,,,,27,2022-02-12_13h30.03.823,lexical_decision_task_DD_L4,2021.2.3,Win32,120.105693,,,,,,,,,,,,1.2919,1,,,,,,,,,,,,,,,,,,,,,,,,-0.028703691,-0.144444454,0,0,0,,,,,,,GRAIN,C,z,y,./images/GRAIN.png,,,,,,,,,,,,,,,,,,,,,z,1,1.2919,,,,,,,,0,42,42,159,1
,,,,,,,,,,,,,,,,,,27,2022-02-12_13h30.03.823,lexical_decision_task_DD_L4,2021.2.3,Win32,120.105693,,,,,,,,,,,,0.6576,1,,,,,,,,,,,,,,,,,,,,,,,,-0.028703691,-0.144444454,0,0,0,,,,,,,CHALK,HB,m,y,./images/CHALKHB.png,,,,,,,,,,,,,,,,,,,,,m,1,0.6576,,,,,,,,0,43,43,25,1
,,,,,,,,,,,,,,,,,,27,2022-02-12_13h30.03.823,lexical_decision_task_DD_L4,2021.2.3,Win32,120.105693,,,,,,,,,,,,0.5245,1,,,,,,,,,,,,,,,,,,,,,,,,-0.028703691,-0.144444454,0,0,0,,,,,,,BUNNY,HB,m,y,./images/BUNNYHB.png,,,,,,,,,,,,,,,,,,,,,m,1,0.5245,,,,,,,,0,44,44,13,1
,,,,,,,,,,,,,,,,,,27,2022-02-12_13h30.03.823,lexical_decision_task_DD_L4,2021.2.3,Win32,120.105693,,,,,,,,,,,,0.5665,1,,,,,,,,,,,,,,,,,,,,,,,,-0.028703691,-0.144444454,0,0,0,,,,,,,TIGER,HB,m,y,./images/TIGERHB.png,,,,,,,,,,,,,,,,,,,,,m,1,0.5665,,,,,,,,0,45,45,37,1
,,,,,,,,,,,,,,,,,,27,2022-02-12_13h30.03.823,lexical_decision_task_DD_L4,2021.2.3,Win32,120.105693,,,,,,,,,,,,0.5692,0,,,,,,,,,,,,,,,,,,,,,,,,-0.028703691,-0.144444454,0,0,0,,,,,,,FALCON,HB,z,y,./images/FALCONHB.png,,,,,,,,,,,,,,,,,,,,,m,0,0.5692,,,,,,,,0,46,46,112,1
,,,,,,,,,,,,,,,,,,27,2022-02-12_13h30.03.823,lexical_decision_task_DD_L4,2021.2.3,Win32,120.105693,,,,,,,,,,,,0.4834,1,,,,,,,,,,,,,,,,,,,,,,,,-0.028703691,-0.144444454,0,0,0,,,,,,,TOWEL,HB,m,y,./images/TOWELHB.png,,,,,,,,,,,,,,,,,,,,,m,1,0.4834,,,,,,,,0,47,47,1,1
,,,,,,,,,,,,,,,,,,27,2022-02-12_13h30.03.823,lexical_decision_task_DD_L4,2021.2.3,Win32,120.105693,,,,,,,,,,,,0.4747,1,,,,,,,,,,,,,,,,,,,,,,,,-0.028703691,-0.144444454,0,0,0,,,,,,,ARROW,C,m,y,./images/ARROW.png,,,,,,,,,,,,,,,,,,,,,m,1,0.4747,,,,,,,,0,48,48,69,1
,,,,,,,,,,,,,,,,,,27,2022-02-12_13h30.03.823,lexical_decision_task_DD_L4,2021.2.3,Win32,120.105693,,,,,,,,,,,,0.5087,1,,,,,,,,,,,,,,,,,,,,,,,,-0.028703691,-0.144444454,0,0,0,,,,,,,BUBBLE,LB,m,y,./images/BUBBLELB.png,,,,,,,,,,,,,,,,,,,,,m,1,0.5087,,,,,,,,0,49,49,71,1
,,,,,,,,,,,,,,,,,,27,2022-02-12_13h30.03.823,lexical_decision_task_DD_L4,2021.2.3,Win32,120.105693,,,,,,,,,,,,0.7002,1,,,,,,,,,,,,,,,,,,,,,,,,-0.028703691,-0.144444454,0,0,0,,,,,,,SWING,HB,z,y,./images/SWINGHB.png,,,,,,,,,,,,,,,,,,,,,z,1,0.7002,,,,,,,,0,50,50,124,1
,,,,,,,,,,,,,,,,,,27,2022-02-12_13h30.03.823,lexical_decision_task_DD_L4,2021.2.3,Win32,120.105693,,,,,,,,,,,,0.5432,1,,,,,,,,,,,,,,,,,,,,,,,,-0.028703691,-0.144444454,0,0,0,,,,,,,PARADE,LB,m,y,./images/PARADELB.png,,,,,,,,,,,,,,,,,,,,,m,1,0.5432,,,,,,,,0,51,51,17,1
,,,,,,,,,,,,,,,,,,27,2022-02-12_13h30.03.823,lexical_decision_task_DD_L4,2021.2.3,Win32,120.105693,,,,,,,,,,,,0.4996,1,,,,,,,,,,,,,,,,,,,,,,,,-0.028703691,-0.144444454,0,0,0,,,,,,,FERRY,C,m,y,./images/FERRY.png,,,,,,,,,,,,,,,,,,,,,m,1,0.4996,,,,,,,,0,52,52,57,1
,,,,,,,,,,,,,,,,,,27,2022-02-12_13h30.03.823,lexical_decision_task_DD_L4,2021.2.3,Win32,120.105693,,,,,,,,,,,,0.511,1,,,,,,,,,,,,,,,,,,,,,,,,-0.028703691,-0.144444454,0,0,0,,,,,,,BUTTER,C,m,y,./images/BUTTER.png,,,,,,,,,,,,,,,,,,,,,m,1,0.511,,,,,,,,0,53,53,27,1
,,,,,,,,,,,,,,,,,,27,2022-02-12_13h30.03.823,lexical_decision_task_DD_L4,2021.2.3,Win32,120.105693,,,,,,,,,,,,0.6843,0,,,,,,,,,,,,,,,,,,,,,,,,-0.028703691,-0.144444454,0,0,0,,,,,,,MOTOR,HB,z,y,./images/MOTORHB.png,,,,,,,,,,,,,,,,,,,,,m,0,0.6843,,,,,,,,0,54,54,97,1
,,,,,,,,,,,,,,,,,,27,2022-02-12_13h30.03.823,lexical_decision_task_DD_L4,2021.2.3,Win32,120.105693,,,,,,,,,,,,0.7426,1,,,,,,,,,,,,,,,,,,,,,,,,-0.028703691,-0.144444454,0,0,0,,,,,,,HEATER,LB,m,y,./images/HEATERLB.png,,,,,,,,,,,,,,,,,,,,,m,1,0.7426,,,,,,,,0,55,55,56,1
,,,,,,,,,,,,,,,,,,27,2022-02-12_13h30.03.823,lexical_decision_task_DD_L4,2021.2.3,Win32,120.105693,,,,,,,,,,,,0.486,1,,,,,,,,,,,,,,,,,,,,,,,,-0.028703691,-0.144444454,0,0,0,,,,,,,POKER,HB,m,y,./images/POKERHB.png,,,,,,,,,,,,,,,,,,,,,m,1,0.486,,,,,,,,0,56,56,67,1
,,,,,,,,,,,,,,,,,,27,2022-02-12_13h30.03.823,lexical_decision_task_DD_L4,2021.2.3,Win32,120.105693,,,,,,,,,,,,0.5509,0,,,,,,,,,,,,,,,,,,,,,,,,-0.028703691,-0.144444454,0,0,0,,,,,,,CARPET,LB,z,y,./images/CARPETLB.png,,,,,,,,,,,,,,,,,,,,,m,0,0.5509,,,,,,,,0,57,57,137,1
,,,,,,,,,,,,,,,,,,27,2022-02-12_13h30.03.823,lexical_decision_task_DD_L4,2021.2.3,Win32,120.105693,,,,,,,,,,,,0.7591,1,,,,,,,,,,,,,,,,,,,,,,,,-0.028703691,-0.144444454,0,0,0,,,,,,,MOSQUE,HB,z,y,./images/MOSQUEHB.png,,,,,,,,,,,,,,,,,,,,,z,1,0.7591,,,,,,,,0,58,58,127,1
,,,,,,,,,,,,,,,,,,27,2022-02-12_13h30.03.823,lexical_decision_task_DD_L4,2021.2.3,Win32,120.105693,,,,,,,,,,,,0.6181,1,,,,,,,,,,,,,,,,,,,,,,,,-0.028703691,-0.144444454,0,0,0,,,,,,,RULER,HB,m,y,./images/RULERHB.png,,,,,,,,,,,,,,,,,,,,,m,1,0.6181,,,,,,,,0,59,59,79,1
,,,,,,,,,,,,,,,,,,27,2022-02-12_13h30.03.823,lexical_decision_task_DD_L4,2021.2.3,Win32,120.105693,,,,,,,,,,,,0.5423,1,,,,,,,,,,,,,,,,,,,,,,,,-0.028703691,-0.144444454,0,0,0,,,,,,,MONKEY,C,m,y,./images/MONKEY.png,,,,,,,,,,,,,,,,,,,,,m,1,0.5423,,,,,,,,0,60,60,45,1
,,,,,,,,,,,,,,,,,,27,2022-02-12_13h30.03.823,lexical_decision_task_DD_L4,2021.2.3,Win32,120.105693,,,,,,,,,,,,0.5913,1,,,,,,,,,,,,,,,,,,,,,,,,-0.028703691,-0.144444454,0,0,0,,,,,,,BASKET,LB,m,y,./images/BASKETLB.png,,,,,,,,,,,,,,,,,,,,,m,1,0.5913,,,,,,,,0,61,61,44,1
,,,,,,,,,,,,,,,,,,27,2022-02-12_13h30.03.823,lexical_decision_task_DD_L4,2021.2.3,Win32,120.105693,,,,,,,,,,,,0.6495,1,,,,,,,,,,,,,,,,,,,,,,,,-0.028703691,-0.144444454,0,0,0,,,,,,,BURIAL,LB,z,y,./images/BURIALLB.png,,,,,,,,,,,,,,,,,,,,,z,1,0.6495,,,,,,,,0,62,62,143,1
,,,,,,,,,,,,,,,,,,27,2022-02-12_13h30.03.823,lexical_decision_task_DD_L4,2021.2.3,Win32,120.105693,,,,,,,,,,,,0.5756,1,,,,,,,,,,,,,,,,,,,,,,,,-0.028703691,-0.144444454,0,0,0,,,,,,,PISTOL,LB,m,y,./images/PISTOLLB.png,,,,,,,,,,,,,,,,,,,,,m,1,0.5756,,,,,,,,0,63,63,29,1
,,,,,,,,,,,,,,,,,,27,2022-02-12_13h30.03.823,lexical_decision_task_DD_L4,2021.2.3,Win32,120.105693,,,,,,,,,,,,0.8511,1,,,,,,,,,,,,,,,,,,,,,,,,-0.028703691,-0.144444454,0,0,0,,,,,,,SPINE,LB,m,y,./images/SPINELB.png,,,,,,,,,,,,,,,,,,,,,m,1,0.8511,,,,,,,,0,64,64,65,1
,,,,,,,,,,,,,,,,,,27,2022-02-12_13h30.03.823,lexical_decision_task_DD_L4,2021.2.3,Win32,120.105693,,,,,,,,,,,,1.4835,0,,,,,,,,,,,,,,,,,,,,,,,,-0.028703691,-0.144444454,0,0,0,,,,,,,PLANK,HB,z,y,./images/PLANKHB.png,,,,,,,,,,,,,,,,,,,,,m,0,1.4835,,,,,,,,0,65,65,85,1
,,,,,,,,,,,,,,,,,,27,2022-02-12_13h30.03.823,lexical_decision_task_DD_L4,2021.2.3,Win32,120.105693,,,,,,,,,,,,0.8773,1,,,,,,,,,,,,,,,,,,,,,,,,-0.028703691,-0.144444454,0,0,0,,,,,,,WRIST,HB,z,y,./images/WRISTHB.png,,,,,,,,,,,,,,,,,,,,,z,1,0.8773,,,,,,,,0,66,66,109,1
,,,,,,,,,,,,,,,,,,27,2022-02-12_13h30.03.823,lexical_decision_task_DD_L4,2021.2.3,Win32,120.105693,,,,,,,,,,,,0.8781,1,,,,,,,,,,,,,,,,,,,,,,,,-0.028703691,-0.144444454,0,0,0,,,,,,,CRUMB,LB,z,y,./images/CRUMBLB.png,,,,,,,,,,,,,,,,,,,,,z,1,0.8781,,,,,,,,0,67,67,113,1
,,,,,,,,,,,,,,,,,,27,2022-02-12_13h30.03.823,lexical_decision_task_DD_L4,2021.2.3,Win32,120.105693,,,,,,,,,,,,0.6431,1,,,,,,,,,,,,,,,,,,,,,,,,-0.028703691,-0.144444454,0,0,0,,,,,,,CLOUD,LB,m,y,./images/CLOUDLB.png,,,,,,,,,,,,,,,,,,,,,m,1,0.6431,,,,,,,,0,68,68,26,1
,,,,,,,,,,,,,,,,,,27,2022-02-12_13h30.03.823,lexical_decision_task_DD_L4,2021.2.3,Win32,120.105693,,,,,,,,,,,,0.5837,1,,,,,,,,,,,,,,,,,,,,,,,,-0.028703691,-0.144444454,0,0,0,,,,,,,PLANET,LB,m,y,./images/PLANETLB.png,,,,,,,,,,,,,,,,,,,,,m,1,0.5837,,,,,,,,0,69,69,80,1
,,,,,,,,,,,,,,,,,,27,2022-02-12_13h30.03.823,lexical_decision_task_DD_L4,2021.2.3,Win32,120.105693,,,,,,,,,,,,0.4667,0,,,,,,,,,,,,,,,,,,,,,,,,-0.028703691,-0.144444454,0,0,0,,,,,,,MIRROR,C,z,y,./images/MIRROR.png,,,,,,,,,,,,,,,,,,,,,m,0,0.4667,,,,,,,,0,70,70,147,1
,,,,,,,,,,,,,,,,,,27,2022-02-12_13h30.03.823,lexical_decision_task_DD_L4,2021.2.3,Win32,120.105693,,,,,,,,,,,,0.71,1,,,,,,,,,,,,,,,,,,,,,,,,-0.028703691,-0.144444454,0,0,0,,,,,,,LIZARD,LB,z,y,./images/LIZARDLB.png,,,,,,,,,,,,,,,,,,,,,z,1,0.71,,,,,,,,0,71,71,128,1
,,,,,,,,,,,,,,,,,,27,2022-02-12_13h30.03.823,lexical_decision_task_DD_L4,2021.2.3,Win32,120.105693,,,,,,,,,,,,0.6007,1,,,,,,,,,,,,,,,,,,,,,,,,-0.028703691,-0.144444454,0,0,0,,,,,,,PIMPLE,LB,z,y,./images/PIMPLELB.png,,,,,,,,,,,,,,,,,,,,,z,1,0.6007,,,,,,,,0,72,72,155,1
,,,,,,,,,,,,,,,,,,27,2022-02-12_13h30.03.823,lexical_decision_task_DD_L4,2021.2.3,Win32,120.105693,,,,,,,,,,,,0.6997,0,,,,,,,,,,,,,,,,,,,,,,,,-0.028703691,-0.144444454,0,0,0,,,,,,,PEBBLE,HB,m,y,./images/PEBBLEHB.png,,,,,,,,,,,,,,,,,,,,,z,0,0.6997,,,,,,,,0,73,73,82,1
,,,,,,,,,,,,,,,,,,27,2022-02-12_13h30.03.823,lexical_decision_task_DD_L4,2021.2.3,Win32,120.105693,,,,,,,,,,,,0.8362,1,,,,,,,,,,,,,,,,,,,,,,,,-0.028703691,-0.144444454,0,0,0,,,,,,,DRILL,C,m,y,./images/DRILL.png,,,,,,,,,,,,,,,,,,,,,m,1,0.8362,,,,,,,,0,74,74,81,1
,,,,,,,,,,,,,,,,,,27,2022-02-12_13h30.03.823,lexical_decision_task_DD_L4,2021.2.3,Win32,120.105693,,,,,,,,,,,,0.8929,1,,,,,,,,,,,,,,,,,,,,,,,,-0.028703691,-0.144444454,0,0,0,,,,,,,BABOON,HB,z,y,./images/BABOONHB.png,,,,,,,,,,,,,,,,,,,,,z,1,0.8929,,,,,,,,0,75,75,142,1
,,,,,,,,,,,,,,,,,,27,2022-02-12_13h30.03.823,lexical_decision_task_DD_L4,2021.2.3,Win32,120.105693,,,,,,,,,,,,1.2577,0,,,,,,,,,,,,,,,,,,,,,,,,-0.028703691,-0.144444454,0,0,0,,,,,,,CLIFF,LB,m,y,./images/CLIFFLB.png,,,,,,,,,,,,,,,,,,,,,z,0,1.2577,,,,,,,,0,76,76,8,1
,,,,,,,,,,,,,,,,,,27,2022-02-12_13h30.03.823,lexical_decision_task_DD_L4,2021.2.3,Win32,120.105693,,,,,,,,,,,,0.6769,1,,,,,,,,,,,,,,,,,,,,,,,,-0.028703691,-0.144444454,0,0,0,,,,,,,THROAT,C,z,y,./images/THROAT.png,,,,,,,,,,,,,,,,,,,,,z,1,0.6769,,,,,,,,0,77,77,120,1
,,,,,,,,,,,,,,,,,,27,2022-02-12_13h30.03.823,lexical_decision_task_DD_L4,2021.2.3,Win32,120.105693,,,,,,,,,,,,1.0506,1,,,,,,,,,,,,,,,,,,,,,,,,-0.028703691,-0.144444454,0,0,0,,,,,,,GLOVE,HB,m,y,./images/GLOVEHB.png,,,,,,,,,,,,,,,,,,,,,m,1,1.0506,,,,,,,,0,78,78,73,1
,,,,,,,,,,,,,,,,,,27,2022-02-12_13h30.03.823,lexical_decision_task_DD_L4,2021.2.3,Win32,120.105693,,,,,,,,,,,,0.6162,1,,,,,,,,,,,,,,,,,,,,,,,,-0.028703691,-0.144444454,0,0,0,,,,,,,MUSCLE,HB,z,y,./images/MUSCLEHB.png,,,,,,,,,,,,,,,,,,,,,z,1,0.6162,,,,,,,,0,79,79,88,1
,,,,,,,,,,,,,,,,,,27,2022-02-12_13h30.03.823,lexical_decision_task_DD_L4,2021.2.3,Win32,120.105693,,,,,,,,,,,,0.6432,1,,,,,,,,,,,,,,,,,,,,,,,,-0.028703691,-0.144444454,0,0,0,,,,,,,PURSE,LB,z,y,./images/PURSELB.png,,,,,,,,,,,,,,,,,,,,,z,1,0.6432,,,,,,,,0,80,80,146,1
,,,,,,,,,,,,,,,,,,27,2022-02-12_13h30.03.823,lexical_decision_task_DD_L4,2021.2.3,Win32,120.105693,,,,,,,,,,,,0.6349,1,,,,,,,,,,,,,,,,,,,,,,,,-0.028703691,-0.144444454,0,0,0,,,,,,,JAGUAR,C,z,y,./images/JAGUAR.png,,,,,,,,,,,,,,,,,,,,,z,1,0.6349,,,,,,,,0,81,81,102,1
,,,,,,,,,,,,,,,,,,27,2022-02-12_13h30.03.823,lexical_decision_task_DD_L4,2021.2.3,Win32,120.105693,,,,,,,,,,,,0.6551,0,,,,,,,,,,,,,,,,,,,,,,,,-0.028703691,-0.144444454,0,0,0,,,,,,,PAINT,HB,z,y,./images/PAINTHB.png,,,,,,,,,,,,,,,,,,,,,m,0,0.6551,,,,,,,,0,82,82,91,1
,,,,,,,,,,,,,,,,,,27,2022-02-12_13h30.03.823,lexical_decision_task_DD_L4,2021.2.3,Win32,120.105693,,,,,,,,,,,,1.587,0,,,,,,,,,,,,,,,,,,,,,,,,-0.028703691,-0.144444454,0,0,0,space,,,,,,STORM,C,z,y,./images/STORM.png,,66.6018,,,,,,,,,,,,,,,,,,,m,0,1.587,,,,,,,,0,83,83,114,1
,,,,,,,,,,,,,,,,,,27,2022-02-12_13h30.03.823,lexical_decision_task_DD_L4,2021.2.3,Win32,120.105693,,,,,,,,,,,,0.8004,1,,,,,,,,,,,,,,,,,,,,,,,,-0.028703691,-0.144444454,0,0,0,,,,,,,STOOL,HB,m,y,./images/STOOLHB.png,,,,,,,,,,,,,,,,,,,,,m,1,0.8004,,,,,,,,0,84,84,43,1
,,,,,,,,,,,,,,,,,,27,2022-02-12_13h30.03.823,lexical_decision_task_DD_L4,2021.2.3,Win32,120.105693,,,,,,,,,,,,1.4833,1,,,,,,,,,,,,,,,,,,,,,,,,-0.028703691,-0.144444454,0,0,0,,,,,,,COUCH,LB,z,y,./images/COUCHLB.png,,,,,,,,,,,,,,,,,,,,,z,1,1.4833,,,,,,,,0,85,85,161,1
,,,,,,,,,,,,,,,,,,27,2022-02-12_13h30.03.823,lexical_decision_task_DD_L4,2021.2.3,Win32,120.105693,,,,,,,,,,,,0.7744,1,,,,,,,,,,,,,,,,,,,,,,,,-0.028703691,-0.144444454,0,0,0,,,,,,,FINGER,C,z,y,./images/FINGER.png,,,,,,,,,,,,,,,,,,,,,z,1,0.7744,,,,,,,,0,86,86,87,1
,,,,,,,,,,,,,,,,,,27,2022-02-12_13h30.03.823,lexical_decision_task_DD_L4,2021.2.3,Win32,120.105693,,,,,,,,,,,,0.9577,1,,,,,,,,,,,,,,,,,,,,,,,,-0.028703691,-0.144444454,0,0,0,,,,,,,SAUNA,C,m,y,./images/SAUNA.png,,,,,,,,,,,,,,,,,,,,,m,1,0.9577,,,,,,,,0,87,87,33,1
,,,,,,,,,,,,,,,,,,27,2022-02-12_13h30.03.823,lexical_decision_task_DD_L4,2021.2.3,Win32,120.105693,,,,,,,,,,,,0.8083,1,,,,,,,,,,,,,,,,,,,,,,,,-0.028703691,-0.144444454,0,0,0,,,,,,,MELON,HB,z,y,./images/MELONHB.png,,,,,,,,,,,,,,,,,,,,,z,1,0.8083,,,,,,,,0,88,88,106,1
,,,,,,,,,,,,,,,,,,27,2022-02-12_13h30.03.823,lexical_decision_task_DD_L4,2021.2.3,Win32,120.105693,,,,,,,,,,,,0.6504,1,,,,,,,,,,,,,,,,,,,,,,,,-0.028703691,-0.144444454,0,0,0,,,,,,,BAMBOO,LB,m,y,./images/BAMBOOLB.png,,,,,,,,,,,,,,,,,,,,,m,1,0.6504,,,,,,,,0,89,89,5,1
,,,,,,,,,,,,,,,,,,27,2022-02-12_13h30.03.823,lexical_decision_task_DD_L4,2021.2.3,Win32,120.105693,,,,,,,,,,,,0.7344,0,,,,,,,,,,,,,,,,,,,,,,,,-0.028703691,-0.144444454,0,0,0,,,,,,,MOOSE,C,z,y,./images/MOOSE.png,,,,,,,,,,,,,,,,,,,,,m,0,0.7344,,,,,,,,0,90,90,141,1
,,,,,,,,,,,,,,,,,,27,2022-02-12_13h30.03.823,lexical_decision_task_DD_L4,2021.2.3,Win32,120.105693,,,,,,,,,,,,0.6589,1,,,,,,,,,,,,,,,,,,,,,,,,-0.028703691,-0.144444454,0,0,0,,,,,,,CURRY,C,m,y,./images/CURRY.png,,,,,,,,,,,,,,,,,,,,,m,1,0.6589,,,,,,,,0,91,91,60,1
,,,,,,,,,,,,,,,,,,27,2022-02-12_13h30.03.823,lexical_decision_task_DD_L4,2021.2.3,Win32,120.105693,,,,,,,,,,,,0.5755,1,,,,,,,,,,,,,,,,,,,,,,,,-0.028703691,-0.144444454,0,0,0,,,,,,,CASINO,HB,m,y,./images/CASINOHB.png,,,,,,,,,,,,,,,,,,,,,m,1,0.5755,,,,,,,,0,92,92,28,1
,,,,,,,,,,,,,,,,,,27,2022-02-12_13h30.03.823,lexical_decision_task_DD_L4,2021.2.3,Win32,120.105693,,,,,,,,,,,,0.6838,0,,,,,,,,,,,,,,,,,,,,,,,,-0.028703691,-0.144444454,0,0,0,,,,,,,CRUST,HB,z,y,./images/CRUSTHB.png,,,,,,,,,,,,,,,,,,,,,m,0,0.6838,,,,,,,,0,93,93,163,1
,,,,,,,,,,,,,,,,,,27,2022-02-12_13h30.03.823,lexical_decision_task_DD_L4,2021.2.3,Win32,120.105693,,,,,,,,,,,,0.7598,0,,,,,,,,,,,,,,,,,,,,,,,,-0.028703691,-0.144444454,0,0,0,,,,,,,STREAM,LB,m,y,./images/STREAMLB.png,,,,,,,,,,,,,,,,,,,,,z,0,0.7598,,,,,,,,0,94,94,41,1
,,,,,,,,,,,,,,,,,,27,2022-02-12_13h30.03.823,lexical_decision_task_DD_L4,2021.2.3,Win32,120.105693,,,,,,,,,,,,0.953,1,,,,,,,,,,,,,,,,,,,,,,,,-0.028703691,-0.144444454,0,0,0,,,,,,,JUNGLE,LB,z,y,./images/JUNGLELB.png,,,,,,,,,,,,,,,,,,,,,z,1,0.953,,,,,,,,0,95,95,167,1
,,,,,,,,,,,,,,,,,,27,2022-02-12_13h30.03.823,lexical_decision_task_DD_L4,2021.2.3,Win32,120.105693,,,,,,,,,,,,0.7434,0,,,,,,,,,,,,,,,,,,,,,,,,-0.028703691,-0.144444454,0,0,0,,,,,,,PICKLE,LB,z,y,./images/PICKLELB.png,,,,,,,,,,,,,,,,,,,,,m,0,0.7434,,,,,,,,0,96,96,98,1
,,,,,,,,,,,,,,,,,,27,2022-02-12_13h30.03.823,lexical_decision_task_DD_L4,2021.2.3,Win32,120.105693,,,,,,,,,,,,1.1827,1,,,,,,,,,,,,,,,,,,,,,,,,-0.028703691,-0.144444454,0,0,0,,,,,,,WHEEL,LB,m,y,./images/WHEELLB.png,,,,,,,,,,,,,,,,,,,,,m,1,1.1827,,,,,,,,0,97,97,77,1
,,,,,,,,,,,,,,,,,,27,2022-02-12_13h30.03.823,lexical_decision_task_DD_L4,2021.2.3,Win32,120.105693,,,,,,,,,,,,0.5756,1,,,,,,,,,,,,,,,,,,,,,,,,-0.028703691,-0.144444454,0,0,0,,,,,,,ALLEY,HB,m,y,./images/ALLEYHB.png,,,,,,,,,,,,,,,,,,,,,m,1,0.5756,,,,,,,,0,98,98,55,1
,,,,,,,,,,,,,,,,,,27,2022-02-12_13h30.03.823,lexical_decision_task_DD_L4,2021.2.3,Win32,120.105693,,,,,,,,,,,,0.6743,1,,,,,,,,,,,,,,,,,,,,,,,,-0.028703691,-0.144444454,0,0,0,,,,,,,BANNER,HB,z,y,./images/BANNERHB.png,,,,,,,,,,,,,,,,,,,,,z,1,0.6743,,,,,,,,0,99,99,136,1
,,,,,,,,,,,,,,,,,,27,2022-02-12_13h30.03.823,lexical_decision_task_DD_L4,2021.2.3,Win32,120.105693,,,,,,,,,,,,0.6832,1,,,,,,,,,,,,,,,,,,,,,,,,-0.028703691,-0.144444454,0,0,0,,,,,,,BOXER,HB,m,y,./images/BOXERHB.png,,,,,,,,,,,,,,,,,,,,,m,1,0.6832,,,,,,,,0,100,100,4,1
,,,,,,,,,,,,,,,,,,27,2022-02-12_13h30.03.823,lexical_decision_task_DD_L4,2021.2.3,Win32,120.105693,,,,,,,,,,,,0.6701,1,,,,,,,,,,,,,,,,,,,,,,,,-0.028703691,-0.144444454,0,0,0,,,,,,,PASTA,LB,z,y,./images/PASTALB.png,,,,,,,,,,,,,,,,,,,,,z,1,0.6701,,,,,,,,0,101,101,89,1
,,,,,,,,,,,,,,,,,,27,2022-02-12_13h30.03.823,lexical_decision_task_DD_L4,2021.2.3,Win32,120.105693,,,,,,,,,,,,0.6514,1,,,,,,,,,,,,,,,,,,,,,,,,-0.028703691,-0.144444454,0,0,0,,,,,,,DESERT,HB,m,y,./images/DESERTHB.png,,,,,,,,,,,,,,,,,,,,,m,1,0.6514,,,,,,,,0,102,102,52,1
,,,,,,,,,,,,,,,,,,27,2022-02-12_13h30.03.823,lexical_decision_task_DD_L4,2021.2.3,Win32,120.105693,,,,,,,,,,,,0.5584,1,,,,,,,,,,,,,,,,,,,,,,,,-0.028703691,-0.144444454,0,0,0,,,,,,,PARCEL,C,m,y,./images/PARCEL.png,,,,,,,,,,,,,,,,,,,,,m,1,0.5584,,,,,,,,0,103,103,18,1
,,,,,,,,,,,,,,,,,,27,2022-02-12_13h30.03.823,lexical_decision_task_DD_L4,2021.2.3,Win32,120.105693,,,,,,,,,,,,0.9487,1,,,,,,,,,,,,,,,,,,,,,,,,-0.028703691,-0.144444454,0,0,0,,,,,,,SAILOR,HB,z,y,./images/SAILORHB.png,,,,,,,,,,,,,,,,,,,,,z,1,0.9487,,,,,,,,0,104,104,151,1
,,,,,,,,,,,,,,,,,,27,2022-02-12_13h30.03.823,lexical_decision_task_DD_L4,2021.2.3,Win32,120.105693,,,,,,,,,,,,0.5506,1,,,,,,,,,,,,,,,,,,,,,,,,-0.028703691,-0.144444454,0,0,0,,,,,,,CANDY,C,m,y,./images/CANDY.png,,,,,,,,,,,,,,,,,,,,,m,1,0.5506,,,,,,,,0,105,105,39,1
,,,,,,,,,,,,,,,,,,27,2022-02-12_13h30.03.823,lexical_decision_task_DD_L4,2021.2.3,Win32,120.105693,,,,,,,,,,,,0.6847,1,,,,,,,,,,,,,,,,,,,,,,,,-0.028703691,-0.144444454,0,0,0,,,,,,,ONION,C,z,y,./images/ONION.png,,,,,,,,,,,,,,,,,,,,,z,1,0.6847,,,,,,,,0,106,106,135,1
,,,,,,,,,,,,,,,,,,27,2022-02-12_13h30.03.823,lexical_decision_task_DD_L4,2021.2.3,Win32,120.105693,,,,,,,,,,,,0.6418,1,,,,,,,,,,,,,,,,,,,,,,,,-0.028703691,-0.144444454,0,0,0,,,,,,,GRAPE,HB,m,y,./images/GRAPEHB.png,,,,,,,,,,,,,,,,,,,,,m,1,0.6418,,,,,,,,0,107,107,16,1
,,,,,,,,,,,,,,,,,,27,2022-02-12_13h30.03.823,lexical_decision_task_DD_L4,2021.2.3,Win32,120.105693,,,,,,,,,,,,0.5677,0,,,,,,,,,,,,,,,,,,,,,,,,-0.028703691,-0.144444454,0,0,0,,,,,,,SMOKER,LB,z,y,./images/SMOKERLB.png,,,,,,,,,,,,,,,,,,,,,m,0,0.5677,,,,,,,,0,108,108,110,1
,,,,,,,,,,,,,,,,,,27,2022-02-12_13h30.03.823,lexical_decision_task_DD_L4,2021.2.3,Win32,120.105693,,,,,,,,,,,,0.5835,1,,,,,,,,,,,,,,,,,,,,,,,,-0.028703691,-0.144444454,0,0,0,,,,,,,DANCER,C,m,y,./images/DANCER.png,,,,,,,,,,,,,,,,,,,,,m,1,0.5835,,,,,,,,0,109,109,21,1
,,,,,,,,,,,,,,,,,,27,2022-02-12_13h30.03.823,lexical_decision_task_DD_L4,2021.2.3,Win32,120.105693,,,,,,,,,,,,1.0282,1,,,,,,,,,,,,,,,,,,,,,,,,-0.028703691,-0.144444454,0,0,0,,,,,,,LITTER,C,z,y,./images/LITTER.png,,,,,,,,,,,,,,,,,,,,,z,1,1.0282,,,,,,,,0,110,110,162,1
,,,,,,,,,,,,,,,,,,27,2022-02-12_13h30.03.823,lexical_decision_task_DD_L4,2021.2.3,Win32,120.105693,,,,,,,,,,,,0.7691,0,,,,,,,,,,,,,,,,,,,,,,,,-0.028703691,-0.144444454,0,0,0,,,,,,,SHORE,C,z,y,./images/SHORE.png,,,,,,,,,,,,,,,,,,,,,m,0,0.7691,,,,,,,,0,111,111,96,1
,,,,,,,,,,,,,,,,,,27,2022-02-12_13h30.03.823,lexical_decision_task_DD_L4,2021.2.3,Win32,120.105693,,,,,,,,,,,,0.5579,1,,,,,,,,,,,,,,,,,,,,,,,,-0.028703691,-0.144444454,0,0,0,,,,,,,HOCKEY,LB,m,y,./images/HOCKEYLB.png,,,,,,,,,,,,,,,,,,,,,m,1,0.5579,,,,,,,,0,112,112,32,1
,,,,,,,,,,,,,,,,,,27,2022-02-12_13h30.03.823,lexical_decision_task_DD_L4,2021.2.3,Win32,120.105693,,,,,,,,,,,,0.8755,0,,,,,,,,,,,,,,,,,,,,,,,,-0.028703691,-0.144444454,0,0,0,,,,,,,BONNET,LB,z,y,./images/BONNETLB.png,,,,,,,,,,,,,,,,,,,,,m,0,0.8755,,,,,,,,0,113,113,95,1
,,,,,,,,,,,,,,,,,,27,2022-02-12_13h30.03.823,lexical_decision_task_DD_L4,2021.2.3,Win32,120.105693,,,,,,,,,,,,1.2254,0,,,,,,,,,,,,,,,,,,,,,,,,-0.028703691,-0.144444454,0,0,0,,,,,,,NOOSE,C,z,y,./images/NOOSE.png,,,,,,,,,,,,,,,,,,,,,m,0,1.2254,,,,,,,,0,114,114,156,1
,,,,,,,,,,,,,,,,,,27,2022-02-12_13h30.03.823,lexical_decision_task_DD_L4,2021.2.3,Win32,120.105693,,,,,,,,,,,,0.5589,1,,,,,,,,,,,,,,,,,,,,,,,,-0.028703691,-0.144444454,0,0,0,,,,,,,FLASK,C,m,y,./images/FLASK.png,,,,,,,,,,,,,,,,,,,,,m,1,0.5589,,,,,,,,0,115,115,72,1
,,,,,,,,,,,,,,,,,,27,2022-02-12_13h30.03.823,lexical_decision_task_DD_L4,2021.2.3,Win32,120.105693,,,,,,,,,,,,0.5276,1,,,,,,,,,,,,,,,,,,,,,,,,-0.028703691,-0.144444454,0,0,0,,,,,,,HAMMER,C,m,y,./images/HAMMER.png,,,,,,,,,,,,,,,,,,,,,m,1,0.5276,,,,,,,,0,116,116,75,1
,,,,,,,,,,,,,,,,,,27,2022-02-12_13h30.03.823,lexical_decision_task_DD_L4,2021.2.3,Win32,120.105693,,,,,,,,,,,,0.6443,0,,,,,,,,,,,,,,,,,,,,,,,,-0.028703691,-0.144444454,0,0,0,,,,,,,STRING,LB,z,y,./images/STRINGLB.png,,,,,,,,,,,,,,,,,,,,,m,0,0.6443,,,,,,,,0,117,117,125,1
,,,,,,,,,,,,,,,,,,27,2022-02-12_13h30.03.823,lexical_decision_task_DD_L4,2021.2.3,Win32,120.105693,,,,,,,,,,,,0.7081,1,,,,,,,,,,,,,,,,,,,,,,,,-0.028703691,-0.144444454,0,0,0,,,,,,,INFANT,HB,z,y,./images/INFANTHB.png,,,,,,,,,,,,,,,,,,,,,z,1,0.7081,,,,,,,,0,118,118,160,1
,,,,,,,,,,,,,,,,,,27,2022-02-12_13h30.03.823,lexical_decision_task_DD_L4,2021.2.3,Win32,120.105693,,,,,,,,,,,,0.5508,1,,,,,,,,,,,,,,,,,,,,,,,,-0.028703691,-0.144444454,0,0,0,,,,,,,MEDAL,LB,m,y,./images/MEDALLB.png,,,,,,,,,,,,,,,,,,,,,m,1,0.5508,,,,,,,,0,119,119,11,1
,,,,,,,,,,,,,,,,,,27,2022-02-12_13h30.03.823,lexical_decision_task_DD_L4,2021.2.3,Win32,120.105693,,,,,,,,,,,,0.7009,1,,,,,,,,,,,,,,,,,,,,,,,,-0.028703691,-0.144444454,0,0,0,,,,,,,BLOKE,C,m,y,./images/BLOKE.png,,,,,,,,,,,,,,,,,,,,,m,1,0.7009,,,,,,,,0,120,120,12,1
,,,,,,,,,,,,,,,,,,27,2022-02-12_13h30.03.823,lexical_decision_task_DD_L4,2021.2.3,Win32,120.105693,,,,,,,,,,,,0.8094,0,,,,,,,,,,,,,,,,,,,,,,,,-0.028703691,-0.144444454,0,0,0,,,,,,,COOKER,C,z,y,./images/COOKER.png,,,,,,,,,,,,,,,,,,,,,m,0,0.8094,,,,,,,,0,121,121,153,1
,,,,,,,,,,,,,,,,,,27,2022-02-12_13h30.03.823,lexical_decision_task_DD_L4,2021.2.3,Win32,120.105693,,,,,,,,,,,,0.8508,1,,,,,,,,,,,,,,,,,,,,,,,,-0.028703691,-0.144444454,0,0,0,,,,,,,KIDNEY,C,z,y,./images/KIDNEY.png,,,,,,,,,,,,,,,,,,,,,z,1,0.8508,,,,,,,,0,122,122,105,1
,,,,,,,,,,,,,,,,,,27,2022-02-12_13h30.03.823,lexical_decision_task_DD_L4,2021.2.3,Win32,120.105693,,,,,,,,,,,,0.8916,1,,,,,,,,,,,,,,,,,,,,,,,,-0.028703691,-0.144444454,0,0,0,,,,,,,CEMENT,LB,z,y,./images/CEMENTLB.png,,,,,,,,,,,,,,,,,,,,,z,1,0.8916,,,,,,,,0,123,123,158,1
,,,,,,,,,,,,,,,,,,27,2022-02-12_13h30.03.823,lexical_decision_task_DD_L4,2021.2.3,Win32,120.105693,,,,,,,,,,,,0.9281,1,,,,,,,,,,,,,,,,,,,,,,,,-0.028703691,-0.144444454,0,0,0,,,,,,,COLLAR,C,m,y,./images/COLLAR.png,,,,,,,,,,,,,,,,,,,,,m,1,0.9281,,,,,,,,0,124,124,15,1
,,,,,,,,,,,,,,,,,,27,2022-02-12_13h30.03.823,lexical_decision_task_DD_L4,2021.2.3,Win32,120.105693,,,,,,,,,,,,0.8429,1,,,,,,,,,,,,,,,,,,,,,,,,-0.028703691,-0.144444454,0,0,0,space,,,,,,QUILL,HB,z,y,./images/QUILLHB.png,,15.842,,,,,,,,,,,,,,,,,,,z,1,0.8429,,,,,,,,0,125,125,115,1
,,,,,,,,,,,,,,,,,,27,2022-02-12_13h30.03.823,lexical_decision_task_DD_L4,2021.2.3,Win32,120.105693,,,,,,,,,,,,0.8165,1,,,,,,,,,,,,,,,,,,,,,,,,-0.028703691,-0.144444454,0,0,0,,,,,,,DOUGH,HB,z,y,./images/DOUGHHB.png,,,,,,,,,,,,,,,,,,,,,z,1,0.8165,,,,,,,,0,126,126,103,1
,,,,,,,,,,,,,,,,,,27,2022-02-12_13h30.03.823,lexical_decision_task_DD_L4,2021.2.3,Win32,120.105693,,,,,,,,,,,,0.7926,1,,,,,,,,,,,,,,,,,,,,,,,,-0.028703691,-0.144444454,0,0,0,,,,,,,CLOWN,HB,m,y,./images/CLOWNHB.png,,,,,,,,,,,,,,,,,,,,,m,1,0.7926,,,,,,,,0,127,127,22,1
,,,,,,,,,,,,,,,,,,27,2022-02-12_13h30.03.823,lexical_decision_task_DD_L4,2021.2.3,Win32,120.105693,,,,,,,,,,,,0.6166,1,,,,,,,,,,,,,,,,,,,,,,,,-0.028703691,-0.144444454,0,0,0,,,,,,,TOMATO,C,z,y,./images/TOMATO.png,,,,,,,,,,,,,,,,,,,,,z,1,0.6166,,,,,,,,0,128,128,84,1
,,,,,,,,,,,,,,,,,,27,2022-02-12_13h30.03.823,lexical_decision_task_DD_L4,2021.2.3,Win32,120.105693,,,,,,,,,,,,0.7909,1,,,,,,,,,,,,,,,,,,,,,,,,-0.028703691,-0.144444454,0,0,0,,,,,,,GREASE,C,z,y,./images/GREASE.png,,,,,,,,,,,,,,,,,,,,,z,1,0.7909,,,,,,,,0,129,129,99,1
,,,,,,,,,,,,,,,,,,27,2022-02-12_13h30.03.823,lexical_decision_task_DD_L4,2021.2.3,Win32,120.105693,,,,,,,,,,,,0.6576,1,,,,,,,,,,,,,,,,,,,,,,,,-0.028703691,-0.144444454,0,0,0,,,,,,,ENGINE,LB,m,y,./images/ENGINELB.png,,,,,,,,,,,,,,,,,,,,,m,1,0.6576,,,,,,,,0,130,130,38,1
,,,,,,,,,,,,,,,,,,27,2022-02-12_13h30.03.823,lexical_decision_task_DD_L4,2021.2.3,Win32,120.105693,,,,,,,,,,,,0.7922,1,,,,,,,,,,,,,,,,,,,,,,,,-0.028703691,-0.144444454,0,0,0,,,,,,,BOILER,C,m,y,./images/BOILER.png,,,,,,,,,,,,,,,,,,,,,m,1,0.7922,,,,,,,,0,131,131,36,1
,,,,,,,,,,,,,,,,,,27,2022-02-12_13h30.03.823,lexical_decision_task_DD_L4,2021.2.3,Win32,120.105693,,,,,,,,,,,,1.2998,1,,,,,,,,,,,,,,,,,,,,,,,,-0.028703691,-0.144444454,0,0,0,,,,,,,CRADLE,LB,z,y,./images/CRADLELB.png,,,,,,,,,,,,,,,,,,,,,z,1,1.2998,,,,,,,,0,132,132,104,1
,,,,,,,,,,,,,,,,,,27,2022-02-12_13h30.03.823,lexical_decision_task_DD_L4,2021.2.3,Win32,120.105693,,,,,,,,,,,,0.6334,1,,,,,,,,,,,,,,,,,,,,,,,,-0.028703691,-0.144444454,0,0,0,,,,,,,TORCH,LB,z,y,./images/TORCHLB.png,,,,,,,,,,,,,,,,,,,,,z,1,0.6334,,,,,,,,0,133,133,152,1
,,,,,,,,,,,,,,,,,,27,2022-02-12_13h30.03.823,lexical_decision_task_DD_L4,2021.2.3,Win32,120.105693,,,,,,,,,,,,0.6483,1,,,,,,,,,,,,,,,,,,,,,,,,-0.028703691,-0.144444454,0,0,0,,,,,,,STATUE,C,m,y,./images/STATUE.png,,,,,,,,,,,,,,,,,,,,,m,1,0.6483,,,,,,,,0,134,134,66,1
,,,,,,,,,,,,,,,,,,27,2022-02-12_13h30.03.823,lexical_decision_task_DD_L4,2021.2.3,Win32,120.105693,,,,,,,,,,,,0.5647,1,,,,,,,,,,,,,,,,,,,,,,,,-0.028703691,-0.144444454,0,0,0,,,,,,,MUMMY,HB,m,y,./images/MUMMYHB.png,,,,,,,,,,,,,,,,,,,,,m,1,0.5647,,,,,,,,0,135,135,46,1
,,,,,,,,,,,,,,,,,,27,2022-02-12_13h30.03.823,lexical_decision_task_DD_L4,2021.2.3,Win32,120.105693,,,,,,,,,,,,0.6207,1,,,,,,,,,,,,,,,,,,,,,,,,-0.028703691,-0.144444454,0,0,0,,,,,,,BISHOP,HB,m,y,./images/BISHOPHB.png,,,,,,,,,,,,,,,,,,,,,m,1,0.6207,,,,,,,,0,136,136,49,1
,,,,,,,,,,,,,,,,,,27,2022-02-12_13h30.03.823,lexical_decision_task_DD_L4,2021.2.3,Win32,120.105693,,,,,,,,,,,,0.816,1,,,,,,,,,,,,,,,,,,,,,,,,-0.028703691,-0.144444454,0,0,0,,,,,,,MUFFIN,HB,z,y,./images/MUFFINHB.png,,,,,,,,,,,,,,,,,,,,,z,1,0.816,,,,,,,,0,137,137,139,1
,,,,,,,,,,,,,,,,,,27,2022-02-12_13h30.03.823,lexical_decision_task_DD_L4,2021.2.3,Win32,120.105693,,,,,,,,,,,,0.6584,1,,,,,,,,,,,,,,,,,,,,,,,,-0.028703691,-0.144444454,0,0,0,,,,,,,SUNSET,HB,z,y,./images/SUNSETHB.png,,,,,,,,,,,,,,,,,,,,,z,1,0.6584,,,,,,,,0,138,138,166,1
,,,,,,,,,,,,,,,,,,27,2022-02-12_13h30.03.823,lexical_decision_task_DD_L4,2021.2.3,Win32,120.105693,,,,,,,,,,,,0.8461,1,,,,,,,,,,,,,,,,,,,,,,,,-0.028703691,-0.144444454,0,0,0,,,,,,,WAGON,HB,m,y,./images/WAGONHB.png,,,,,,,,,,,,,,,,,,,,,m,1,0.8461,,,,,,,,0,139,139,7,1
,,,,,,,,,,,,,,,,,,27,2022-02-12_13h30.03.823,lexical_decision_task_DD_L4,2021.2.3,Win32,120.105693,,,,,,,,,,,,0.5369,1,,,,,,,,,,,,,,,,,,,,,,,,-0.028703691,-0.144444454,0,0,0,,,,,,,DIVER,C,m,y,./images/DIVER.png,,,,,,,,,,,,,,,,,,,,,m,1,0.5369,,,,,,,,0,140,140,9,1
,,,,,,,,,,,,,,,,,,27,2022-02-12_13h30.03.823,lexical_decision_task_DD_L4,2021.2.3,Win32,120.105693,,,,,,,,,,,,0.6848,1,,,,,,,,,,,,,,,,,,,,,,,,-0.028703691,-0.144444454,0,0,0,,,,,,,WEASEL,LB,z,y,./images/WEASELLB.png,,,,,,,,,,,,,,,,,,,,,z,1,0.6848,,,,,,,,0,141,141,164,1
,,,,,,,,,,,,,,,,,,27,2022-02-12_13h30.03.823,lexical_decision_task_DD_L4,2021.2.3,Win32,120.105693,,,,,,,,,,,,0.6187,1,,,,,,,,,,,,,,,,,,,,,,,,-0.028703691,-0.144444454,0,0,0,,,,,,,SQUARE,C,z,y,./images/SQUARE.png,,,,,,,,,,,,,,,,,,,,,z,1,0.6187,,,,,,,,0,142,142,90,1
,,,,,,,,,,,,,,,,,,27,2022-02-12_13h30.03.823,lexical_decision_task_DD_L4,2021.2.3,Win32,120.105693,,,,,,,,,,,,0.6038,1,,,,,,,,,,,,,,,,,,,,,,,,-0.028703691,-0.144444454,0,0,0,,,,,,,SLOPE,C,m,y,./images/SLOPE.png,,,,,,,,,,,,,,,,,,,,,m,1,0.6038,,,,,,,,0,143,143,30,1
,,,,,,,,,,,,,,,,,,27,2022-02-12_13h30.03.823,lexical_decision_task_DD_L4,2021.2.3,Win32,120.105693,,,,,,,,,,,,0.5647,1,,,,,,,,,,,,,,,,,,,,,,,,-0.028703691,-0.144444454,0,0,0,,,,,,,DONKEY,HB,m,y,./images/DONKEYHB.png,,,,,,,,,,,,,,,,,,,,,m,1,0.5647,,,,,,,,0,144,144,19,1
,,,,,,,,,,,,,,,,,,27,2022-02-12_13h30.03.823,lexical_decision_task_DD_L4,2021.2.3,Win32,120.105693,,,,,,,,,,,,0.5919,1,,,,,,,,,,,,,,,,,,,,,,,,-0.028703691,-0.144444454,0,0,0,,,,,,,BROOM,C,m,y,./images/BROOM.png,,,,,,,,,,,,,,,,,,,,,m,1,0.5919,,,,,,,,0,145,145,78,1
,,,,,,,,,,,,,,,,,,27,2022-02-12_13h30.03.823,lexical_decision_task_DD_L4,2021.2.3,Win32,120.105693,,,,,,,,,,,,0.5583,0,,,,,,,,,,,,,,,,,,,,,,,,-0.028703691,-0.144444454,0,0,0,,,,,,,MAGGOT,C,z,y,./images/MAGGOT.png,,,,,,,,,,,,,,,,,,,,,m,0,0.5583,,,,,,,,0,146,146,117,1
,,,,,,,,,,,,,,,,,,27,2022-02-12_13h30.03.823,lexical_decision_task_DD_L4,2021.2.3,Win32,120.105693,,,,,,,,,,,,1.1427,0,,,,,,,,,,,,,,,,,,,,,,,,-0.028703691,-0.144444454,0,0,0,,,,,,,BERRY,LB,z,y,./images/BERRYLB.png,,,,,,,,,,,,,,,,,,,,,m,0,1.1427,,,,,,,,0,147,147,131,1
,,,,,,,,,,,,,,,,,,27,2022-02-12_13h30.03.823,lexical_decision_task_DD_L4,2021.2.3,Win32,120.105693,,,,,,,,,,,,0.7927,1,,,,,,,,,,,,,,,,,,,,,,,,-0.028703691,-0.144444454,0,0,0,,,,,,,CANOE,HB,m,y,./images/CANOEHB.png,,,,,,,,,,,,,,,,,,,,,m,1,0.7927,,,,,,,,0,148,148,58,1
,,,,,,,,,,,,,,,,,,27,2022-02-12_13h30.03.823,lexical_decision_task_DD_L4,2021.2.3,Win32,120.105693,,,,,,,,,,,,0.6666,1,,,,,,,,,,,,,,,,,,,,,,,,-0.028703691,-0.144444454,0,0,0,,,,,,,LAGOON,LB,m,y,./images/LAGOONLB.png,,,,,,,,,,,,,,,,,,,,,m,1,0.6666,,,,,,,,0,149,149,47,1
,,,,,,,,,,,,,,,,,,27,2022-02-12_13h30.03.823,lexical_decision_task_DD_L4,2021.2.3,Win32,120.105693,,,,,,,,,,,,0.7921,1,,,,,,,,,,,,,,,,,,,,,,,,-0.028703691,-0.144444454,0,0,0,,,,,,,SKIING,LB,z,y,./images/SKIINGLB.png,,,,,,,,,,,,,,,,,,,,,z,1,0.7921,,,,,,,,0,150,150,101,1
,,,,,,,,,,,,,,,,,,27,2022-02-12_13h30.03.823,lexical_decision_task_DD_L4,2021.2.3,Win32,120.105693,,,,,,,,,,,,0.6244,1,,,,,,,,,,,,,,,,,,,,,,,,-0.028703691,-0.144444454,0,0,0,,,,,,,SAUCE,C,m,y,./images/SAUCE.png,,,,,,,,,,,,,,,,,,,,,m,1,0.6244,,,,,,,,0,151,151,51,1
,,,,,,,,,,,,,,,,,,27,2022-02-12_13h30.03.823,lexical_decision_task_DD_L4,2021.2.3,Win32,120.105693,,,,,,,,,,,,0.733,1,,,,,,,,,,,,,,,,,,,,,,,,-0.028703691,-0.144444454,0,0,0,,,,,,,STAIN,C,m,y,./images/STAIN.png,,,,,,,,,,,,,,,,,,,,,m,1,0.733,,,,,,,,0,152,152,6,1
,,,,,,,,,,,,,,,,,,27,2022-02-12_13h30.03.823,lexical_decision_task_DD_L4,2021.2.3,Win32,120.105693,,,,,,,,,,,,0.9001,1,,,,,,,,,,,,,,,,,,,,,,,,-0.028703691,-0.144444454,0,0,0,,,,,,,BELLY,HB,z,y,./images/BELLYHB.png,,,,,,,,,,,,,,,,,,,,,z,1,0.9001,,,,,,,,0,153,153,94,1
,,,,,,,,,,,,,,,,,,27,2022-02-12_13h30.03.823,lexical_decision_task_DD_L4,2021.2.3,Win32,120.105693,,,,,,,,,,,,0.7857,1,,,,,,,,,,,,,,,,,,,,,,,,-0.028703691,-0.144444454,0,0,0,,,,,,,FLESH,C,m,y,./images/FLESH.png,,,,,,,,,,,,,,,,,,,,,m,1,0.7857,,,,,,,,0,154,154,24,1
,,,,,,,,,,,,,,,,,,27,2022-02-12_13h30.03.823,lexical_decision_task_DD_L4,2021.2.3,Win32,120.105693,,,,,,,,,,,,0.8426,1,,,,,,,,,,,,,,,,,,,,,,,,-0.028703691,-0.144444454,0,0,0,,,,,,,FARMER,LB,z,y,./images/FARMERLB.png,,,,,,,,,,,,,,,,,,,,,z,1,0.8426,,,,,,,,0,155,155,149,1
,,,,,,,,,,,,,,,,,,27,2022-02-12_13h30.03.823,lexical_decision_task_DD_L4,2021.2.3,Win32,120.105693,,,,,,,,,,,,0.6935,1,,,,,,,,,,,,,,,,,,,,,,,,-0.028703691,-0.144444454,0,0,0,,,,,,,FOLDER,C,z,y,./images/FOLDER.png,,,,,,,,,,,,,,,,,,,,,z,1,0.6935,,,,,,,,0,156,156,126,1
,,,,,,,,,,,,,,,,,,27,2022-02-12_13h30.03.823,lexical_decision_task_DD_L4,2021.2.3,Win32,120.105693,,,,,,,,,,,,0.5664,1,,,,,,,,,,,,,,,,,,,,,,,,-0.028703691,-0.144444454,0,0,0,,,,,,,SWEAT,C,z,y,./images/SWEAT.png,,,,,,,,,,,,,,,,,,,,,z,1,0.5664,,,,,,,,0,157,157,150,1
,,,,,,,,,,,,,,,,,,27,2022-02-12_13h30.03.823,lexical_decision_task_DD_L4,2021.2.3,Win32,120.105693,,,,,,,,,,,,0.7491,1,,,,,,,,,,,,,,,,,,,,,,,,-0.028703691,-0.144444454,0,0,0,,,,,,,FENCE,LB,m,y,./images/FENCELB.png,,,,,,,,,,,,,,,,,,,,,m,1,0.7491,,,,,,,,0,158,158,14,1
,,,,,,,,,,,,,,,,,,27,2022-02-12_13h30.03.823,lexical_decision_task_DD_L4,2021.2.3,Win32,120.105693,,,,,,,,,,,,0.8119,1,,,,,,,,,,,,,,,,,,,,,,,,-0.028703691,-0.144444454,0,0,0,,,,,,,BRIDE,HB,m,y,./images/BRIDEHB.png,,,,,,,,,,,,,,,,,,,,,m,1,0.8119,,,,,,,,0,159,159,64,1
,,,,,,,,,,,,,,,,,,27,2022-02-12_13h30.03.823,lexical_decision_task_DD_L4,2021.2.3,Win32,120.105693,,,,,,,,,,,,0.8971,1,,,,,,,,,,,,,,,,,,,,,,,,-0.028703691,-0.144444454,0,0,0,,,,,,,MALLET,LB,z,y,./images/MALLETLB.png,,,,,,,,,,,,,,,,,,,,,z,1,0.8971,,,,,,,,0,160,160,134,1
