key_resp.keys,instr_done_touch.x,instr_done_touch.y,instr_done_touch.leftButton,instr_done_touch.midButton,instr_done_touch.rightButton,instr_done_touch.clicked_name,instruction_pages.thisRepN,instruction_pages.thisTrialN,instruction_pages.thisN,instruction_pages.thisIndex,instruction_pages.ran,pageN,phase,instruct_text,has_image,instruct_image,participant,age,date,expName,psychopyVersion,OS,frameRate,response.keys,response.corr,touch_resp.x,touch_resp.y,touch_resp.leftButton,touch_resp.midButton,touch_resp.rightButton,touch_resp.time,touch_resp.clicked_name,rt,corr,practrials.thisRepN,practrials.thisTrialN,practrials.thisN,practrials.thisIndex,practrials.ran,TrialID,Target,corrAns,end_of_practice_trials_pages.thisRepN,end_of_practice_trials_pages.thisTrialN,end_of_practice_trials_pages.thisN,end_of_practice_trials_pages.thisIndex,end_of_practice_trials_pages.ran,key_resp_2.keys,key_resp_2.corr,targ_click.x,targ_click.y,targ_click.leftButton,targ_click.midButton,targ_click.rightButton,targ_click.time,targ_click.clicked_name,break_done_touch.x,break_done_touch.y,break_done_touch.leftButton,break_done_touch.midButton,break_done_touch.rightButton,break_done_keyboard.keys,maintrials.thisRepN,maintrials.thisTrialN,maintrials.thisN,maintrials.thisIndex,maintrials.ran,string,blur,study,lex,stim_path,break_done_touch.clicked_name,mouse_2.x,mouse_2.y,mouse_2.leftButton,mouse_2.midButton,mouse_2.rightButton,mouse_2.clicked_name,slider.response,slider.rt,trials.thisRepN,trials.thisTrialN,trials.thisN,trials.thisIndex,trials.ran,test_instructions.thisRepN,test_instructions.thisTrialN,test_instructions.thisN,test_instructions.thisIndex,test_instructions.ran,key_resp_3.keys,key_resp_3.corr,test_click.x,test_click.y,test_click.leftButton,test_click.midButton,test_click.rightButton,test_click.time,test_click.clicked_name,test_phase.thisRepN,test_phase.thisTrialN,test_phase.thisN,test_phase.thisIndex,test_phase.ran
,0.075652174,-0.420869565,1,0,0,instr_done_button,0,0,0,0,1,1,instructions,"INSTRUCTIONS
At the start of each trial, look at the plus sign  (+) in the center of the screen.  This tells you that a trial is about to begin and where to look. Second, the plus sign will disappear and a string of letters will appear. Your task is to determine if the string of letters is a word or not. If the item is a word press the M key (on keyboard)  or touch the word button (phone/tablet).  If the item is not a word,  press the  Z key (on keyboard)  or touch the nonword button (on phone/tablet). 
Press the space bar or touch  continue.",0,,,23,2022-02-12_17h23.36.178,lexical_decision_task_DD_L4,2021.2.3,iPhone,58.82352941,,,,,,,,,,,,,,,,,,,,,,,,,,,,,,,,,,,,,,,,,,,,,,,,,,,,,,,,,,,,,,,,,,,,,,,,,,,,,,,,,,
,0.066956522,-0.412173913,1,0,0,instr_done_button,0,1,1,1,1,2,instructions,"If your device has a keyboard, press the 'Z' key for nonwords and the 'M' key for words.





Press the space bar or touch the button below to continue.",0,keyboard-example.gif,,23,2022-02-12_17h23.36.178,lexical_decision_task_DD_L4,2021.2.3,iPhone,58.82352941,,,,,,,,,,,,,,,,,,,,,,,,,,,,,,,,,,,,,,,,,,,,,,,,,,,,,,,,,,,,,,,,,,,,,,,,,,,,,,,,,,
,0.1,-0.410434783,1,0,0,instr_done_button,0,2,2,2,1,3,instructions,"If you are using a touchscreen only device, use the buttons on the screen. Do not use the mouse.





Press the space bar or touch the button below to continue.",0,touchscreen-example.gif,,23,2022-02-12_17h23.36.178,lexical_decision_task_DD_L4,2021.2.3,iPhone,58.82352941,,,,,,,,,,,,,,,,,,,,,,,,,,,,,,,,,,,,,,,,,,,,,,,,,,,,,,,,,,,,,,,,,,,,,,,,,,,,,,,,,,
,0.087826087,-0.391304348,1,0,0,instr_done_button,0,3,3,3,1,4,instructions,"It is very important that you respond as quickly and accurately as possible, as each letter string will only be on the screen for two seconds. If you do not respond within this time, the message 'Too slow!' will be displayed and the experiment will progress to the next letter string. The first 20 trials will be practice trials and you will receive feedback on your answers. 

Press the space bar or touch the button below to start the practice trials.",0,,,23,2022-02-12_17h23.36.178,lexical_decision_task_DD_L4,2021.2.3,iPhone,58.82352941,,,,,,,,,,,,,,,,,,,,,,,,,,,,,,,,,,,,,,,,,,,,,,,,,,,,,,,,,,,,,,,,,,,,,,,,,,,,,,,,,,
,,,,,,,,,,,,,,,,,,23,2022-02-12_17h23.36.178,lexical_decision_task_DD_L4,2021.2.3,iPhone,58.82352941,,0,0.45826087,-0.316521739,1,0,0,1.13,button_right,1.13,1,0,0,0,5,1,1001,OBTAIN,m,,,,,,,,,,,,,,,,,,,,,,,,,,,,,,,,,,,,,,,,,,,,,,,,,,,,,,,,,,,,,,,
,,,,,,,,,,,,,,,,,,23,2022-02-12_17h23.36.178,lexical_decision_task_DD_L4,2021.2.3,iPhone,58.82352941,,0,0.423478261,-0.342608696,1,0,0,0.833,button_right,0.833,1,0,1,1,2,1,1001,ALMOND,m,,,,,,,,,,,,,,,,,,,,,,,,,,,,,,,,,,,,,,,,,,,,,,,,,,,,,,,,,,,,,,,
,,,,,,,,,,,,,,,,,,23,2022-02-12_17h23.36.178,lexical_decision_task_DD_L4,2021.2.3,iPhone,58.82352941,,0,-0.322608696,-0.307826087,1,0,0,0.889,button_left,0.889,1,0,2,2,8,1,1001,ASLERT,z,,,,,,,,,,,,,,,,,,,,,,,,,,,,,,,,,,,,,,,,,,,,,,,,,,,,,,,,,,,,,,,
,,,,,,,,,,,,,,,,,,23,2022-02-12_17h23.36.178,lexical_decision_task_DD_L4,2021.2.3,iPhone,58.82352941,,0,0.37826087,-0.307826087,1,0,0,0.899,button_right,0.899,1,0,3,3,1,1,1001,ADJUST,m,,,,,,,,,,,,,,,,,,,,,,,,,,,,,,,,,,,,,,,,,,,,,,,,,,,,,,,,,,,,,,,
,,,,,,,,,,,,,,,,,,23,2022-02-12_17h23.36.178,lexical_decision_task_DD_L4,2021.2.3,iPhone,58.82352941,,0,-0.34173913,-0.27826087,1,0,0,1.023,button_left,1.023,1,0,4,4,9,1,1001,FARINY,z,,,,,,,,,,,,,,,,,,,,,,,,,,,,,,,,,,,,,,,,,,,,,,,,,,,,,,,,,,,,,,,
,,,,,,,,,,,,,,,,,,23,2022-02-12_17h23.36.178,lexical_decision_task_DD_L4,2021.2.3,iPhone,58.82352941,,0,0.369565217,-0.283478261,1,0,0,0.95,button_right,0.95,1,0,5,5,0,1,1001,UTOPIA,m,,,,,,,,,,,,,,,,,,,,,,,,,,,,,,,,,,,,,,,,,,,,,,,,,,,,,,,,,,,,,,,
,,,,,,,,,,,,,,,,,,23,2022-02-12_17h23.36.178,lexical_decision_task_DD_L4,2021.2.3,iPhone,58.82352941,,0,0.369565217,-0.356521739,1,0,0,0.783,button_right,0.783,1,0,6,6,3,1,1001,MATRIX,m,,,,,,,,,,,,,,,,,,,,,,,,,,,,,,,,,,,,,,,,,,,,,,,,,,,,,,,,,,,,,,,
,,,,,,,,,,,,,,,,,,23,2022-02-12_17h23.36.178,lexical_decision_task_DD_L4,2021.2.3,iPhone,58.82352941,,0,-0.324347826,-0.304347826,1,0,0,0.757,button_left,0.757,1,0,7,7,12,1,1001,SPRINY,z,,,,,,,,,,,,,,,,,,,,,,,,,,,,,,,,,,,,,,,,,,,,,,,,,,,,,,,,,,,,,,,
,,,,,,,,,,,,,,,,,,23,2022-02-12_17h23.36.178,lexical_decision_task_DD_L4,2021.2.3,iPhone,58.82352941,,0,0.331304348,-0.31826087,1,0,0,0.622,button_right,0.622,1,0,8,8,7,1,1001,VOLUME,m,,,,,,,,,,,,,,,,,,,,,,,,,,,,,,,,,,,,,,,,,,,,,,,,,,,,,,,,,,,,,,,
,,,,,,,,,,,,,,,,,,23,2022-02-12_17h23.36.178,lexical_decision_task_DD_L4,2021.2.3,iPhone,58.82352941,,0,-0.322608696,-0.326956522,1,0,0,0.788,button_left,0.788,1,0,9,9,14,1,1001,THRALE,z,,,,,,,,,,,,,,,,,,,,,,,,,,,,,,,,,,,,,,,,,,,,,,,,,,,,,,,,,,,,,,,
,,,,,,,,,,,,,,,,,,23,2022-02-12_17h23.36.178,lexical_decision_task_DD_L4,2021.2.3,iPhone,58.82352941,,0,-0.303478261,-0.290434783,1,0,0,0.766,button_left,0.766,1,0,10,10,15,1,1001,WHAISE,z,,,,,,,,,,,,,,,,,,,,,,,,,,,,,,,,,,,,,,,,,,,,,,,,,,,,,,,,,,,,,,,
,,,,,,,,,,,,,,,,,,23,2022-02-12_17h23.36.178,lexical_decision_task_DD_L4,2021.2.3,iPhone,58.82352941,,0,-0.296521739,-0.307826087,1,0,0,0.722,button_left,0.722,1,0,11,11,11,1,1001,RASHET,z,,,,,,,,,,,,,,,,,,,,,,,,,,,,,,,,,,,,,,,,,,,,,,,,,,,,,,,,,,,,,,,
,,,,,,,,,,,,,,,,,,23,2022-02-12_17h23.36.178,lexical_decision_task_DD_L4,2021.2.3,iPhone,58.82352941,,0,-0.296521739,-0.288695652,1,0,0,0.858,button_left,0.858,1,0,12,12,10,1,1001,INLADE,z,,,,,,,,,,,,,,,,,,,,,,,,,,,,,,,,,,,,,,,,,,,,,,,,,,,,,,,,,,,,,,,
,,,,,,,,,,,,,,,,,,23,2022-02-12_17h23.36.178,lexical_decision_task_DD_L4,2021.2.3,iPhone,58.82352941,,0,-0.360869565,-0.288695652,1,0,0,0.773,button_left,0.773,1,0,13,13,13,1,1001,ROUPET,z,,,,,,,,,,,,,,,,,,,,,,,,,,,,,,,,,,,,,,,,,,,,,,,,,,,,,,,,,,,,,,,
,,,,,,,,,,,,,,,,,,23,2022-02-12_17h23.36.178,lexical_decision_task_DD_L4,2021.2.3,iPhone,58.82352941,,0,0.336521739,-0.32,1,0,0,0.648,button_right,0.648,1,0,14,14,6,1,1001,ZOMBIE,m,,,,,,,,,,,,,,,,,,,,,,,,,,,,,,,,,,,,,,,,,,,,,,,,,,,,,,,,,,,,,,,
,,,,,,,,,,,,,,,,,,23,2022-02-12_17h23.36.178,lexical_decision_task_DD_L4,2021.2.3,iPhone,58.82352941,,0,0.312173913,-0.32,1,0,0,0.696,button_right,0.696,1,0,15,15,4,1,1001,SQUEAK,m,,,,,,,,,,,,,,,,,,,,,,,,,,,,,,,,,,,,,,,,,,,,,,,,,,,,,,,,,,,,,,,
,0.075652174,-0.391304348,1,0,0,instr_done_button,,,,,,1,end_of_practice,"You have completed the practice trials. During the experimental trials, you will not receive feedback. 
Before you begin, please ensure that you are in a comfortable and quiet location and will not be disturbed for about 15 minutes, as we cannot use your data if you do not complete all the trials. 
 When you are ready to start the experimental trials, please press space or touch the button below.",,,,23,2022-02-12_17h23.36.178,lexical_decision_task_DD_L4,2021.2.3,iPhone,58.82352941,,,,,,,,,,,,,,,,,,,,0,0,0,0,1,,,,,,,,,,,,,,,,,,,,,,,,,,,,,,,,,,,,,,,,,,,,,,,,,,,,,,,,,,
,,,,,,,,,,,,,,,,,,23,2022-02-12_17h23.36.178,lexical_decision_task_DD_L4,2021.2.3,iPhone,58.82352941,,,,,,,,,,0.805,1,,,,,,,,,,,,,,,0,0.45826087,-0.347826087,1,0,0,0.805,button_right_main,0.45826087,-0.347826087,1,0,0,,0,0,0,48,1,SHIELD,C,old,m,./images/SHIELD.png,,,,,,,,,,,,,,,,,,,,,,,,,,,,,,,,,
,,,,,,,,,,,,,,,,,,23,2022-02-12_17h23.36.178,lexical_decision_task_DD_L4,2021.2.3,iPhone,58.82352941,,,,,,,,,,0.732,1,,,,,,,,,,,,,,,0,-0.317391304,-0.377391304,1,0,0,0.732,button_left_main,-0.317391304,-0.377391304,1,0,0,,0,1,1,84,1,HAXES,C,old,z,./images/HAXES.png,,,,,,,,,,,,,,,,,,,,,,,,,,,,,,,,,
,,,,,,,,,,,,,,,,,,23,2022-02-12_17h23.36.178,lexical_decision_task_DD_L4,2021.2.3,iPhone,58.82352941,,,,,,,,,,0.982,1,,,,,,,,,,,,,,,0,0.306956522,-0.286956522,1,0,0,0.982,button_right_main,0.306956522,-0.286956522,1,0,0,,0,2,2,4,1,BOXER,HB,old,m,./images/BOXERHB.png,,,,,,,,,,,,,,,,,,,,,,,,,,,,,,,,,
,,,,,,,,,,,,,,,,,,23,2022-02-12_17h23.36.178,lexical_decision_task_DD_L4,2021.2.3,iPhone,58.82352941,,,,,,,,,,1.183,0,,,,,,,,,,,,,,,0,-0.249565217,-0.311304348,1,0,0,1.183,button_left_main,-0.249565217,-0.311304348,1,0,0,,0,3,3,37,1,TIGER,HB,old,m,./images/TIGERHB.png,,,,,,,,,,,,,,,,,,,,,,,,,,,,,,,,,
,,,,,,,,,,,,,,,,,,23,2022-02-12_17h23.36.178,lexical_decision_task_DD_L4,2021.2.3,iPhone,58.82352941,,,,,,,,,,0.965,1,,,,,,,,,,,,,,,0,-0.326086957,-0.297391304,1,0,0,0.965,button_left_main,-0.326086957,-0.297391304,1,0,0,,0,4,4,139,1,BLEAR,HB,old,z,./images/BLEARHB.png,,,,,,,,,,,,,,,,,,,,,,,,,,,,,,,,,
,,,,,,,,,,,,,,,,,,23,2022-02-12_17h23.36.178,lexical_decision_task_DD_L4,2021.2.3,iPhone,58.82352941,,,,,,,,,,0.734,1,,,,,,,,,,,,,,,0,0.444347826,-0.300869565,1,0,0,0.734,button_right_main,0.444347826,-0.300869565,1,0,0,,0,5,5,65,1,SPINE,LB,old,m,./images/SPINELB.png,,,,,,,,,,,,,,,,,,,,,,,,,,,,,,,,,
,,,,,,,,,,,,,,,,,,23,2022-02-12_17h23.36.178,lexical_decision_task_DD_L4,2021.2.3,iPhone,58.82352941,,,,,,,,,,0.847,1,,,,,,,,,,,,,,,0,0.367826087,-0.295652174,1,0,0,0.847,button_right_main,0.367826087,-0.295652174,1,0,0,,0,6,6,7,1,WAGON,HB,old,m,./images/WAGONHB.png,,,,,,,,,,,,,,,,,,,,,,,,,,,,,,,,,
,,,,,,,,,,,,,,,,,,23,2022-02-12_17h23.36.178,lexical_decision_task_DD_L4,2021.2.3,iPhone,58.82352941,,,,,,,,,,0.873,1,,,,,,,,,,,,,,,0,0.360869565,-0.300869565,1,0,0,0.873,button_right_main,0.360869565,-0.300869565,1,0,0,,0,7,7,30,1,SLOPE,C,old,m,./images/SLOPE.png,,,,,,,,,,,,,,,,,,,,,,,,,,,,,,,,,
,,,,,,,,,,,,,,,,,,23,2022-02-12_17h23.36.178,lexical_decision_task_DD_L4,2021.2.3,iPhone,58.82352941,,,,,,,,,,0.84,1,,,,,,,,,,,,,,,0,0.312173913,-0.306086957,1,0,0,0.84,button_right_main,0.312173913,-0.306086957,1,0,0,,0,8,8,70,1,BANANA,HB,old,m,./images/BANANAHB.png,,,,,,,,,,,,,,,,,,,,,,,,,,,,,,,,,
,,,,,,,,,,,,,,,,,,23,2022-02-12_17h23.36.178,lexical_decision_task_DD_L4,2021.2.3,iPhone,58.82352941,,,,,,,,,,0.699,1,,,,,,,,,,,,,,,0,0.367826087,-0.304347826,1,0,0,0.699,button_right_main,0.367826087,-0.304347826,1,0,0,,0,9,9,5,1,BAMBOO,LB,old,m,./images/BAMBOOLB.png,,,,,,,,,,,,,,,,,,,,,,,,,,,,,,,,,
,,,,,,,,,,,,,,,,,,23,2022-02-12_17h23.36.178,lexical_decision_task_DD_L4,2021.2.3,iPhone,58.82352941,,,,,,,,,,0.756,1,,,,,,,,,,,,,,,0,0.390434783,-0.307826087,1,0,0,0.756,button_right_main,0.390434783,-0.307826087,1,0,0,,0,10,10,51,1,SAUCE,C,old,m,./images/SAUCE.png,,,,,,,,,,,,,,,,,,,,,,,,,,,,,,,,,
,,,,,,,,,,,,,,,,,,23,2022-02-12_17h23.36.178,lexical_decision_task_DD_L4,2021.2.3,iPhone,58.82352941,,,,,,,,,,0.801,1,,,,,,,,,,,,,,,0,-0.294782609,-0.269565217,1,0,0,0.801,button_left_main,-0.294782609,-0.269565217,1,0,0,,0,11,11,105,1,MOKER,C,old,z,./images/MOKER.png,,,,,,,,,,,,,,,,,,,,,,,,,,,,,,,,,
,,,,,,,,,,,,,,,,,,23,2022-02-12_17h23.36.178,lexical_decision_task_DD_L4,2021.2.3,iPhone,58.82352941,,,,,,,,,,0.774,1,,,,,,,,,,,,,,,0,0.353913043,-0.307826087,1,0,0,0.774,button_right_main,0.353913043,-0.307826087,1,0,0,,0,12,12,1,1,TOWEL,HB,old,m,./images/TOWELHB.png,,,,,,,,,,,,,,,,,,,,,,,,,,,,,,,,,
,,,,,,,,,,,,,,,,,,23,2022-02-12_17h23.36.178,lexical_decision_task_DD_L4,2021.2.3,iPhone,58.82352941,,,,,,,,,,0.717,1,,,,,,,,,,,,,,,0,-0.345217391,-0.299130435,1,0,0,0.717,button_left_main,-0.345217391,-0.299130435,1,0,0,,0,13,13,167,1,ZONET,LB,old,z,./images/ZONETLB.png,,,,,,,,,,,,,,,,,,,,,,,,,,,,,,,,,
,,,,,,,,,,,,,,,,,,23,2022-02-12_17h23.36.178,lexical_decision_task_DD_L4,2021.2.3,iPhone,58.82352941,,,,,,,,,,0.842,0,,,,,,,,,,,,,,,0,-0.272173913,-0.285217391,1,0,0,0.842,button_left_main,-0.272173913,-0.285217391,1,0,0,,0,14,14,55,1,ALLEY,HB,old,m,./images/ALLEYHB.png,,,,,,,,,,,,,,,,,,,,,,,,,,,,,,,,,
,,,,,,,,,,,,,,,,,,23,2022-02-12_17h23.36.178,lexical_decision_task_DD_L4,2021.2.3,iPhone,58.82352941,,,,,,,,,,0.809,1,,,,,,,,,,,,,,,0,-0.249565217,-0.260869565,1,0,0,0.809,button_left_main,-0.249565217,-0.260869565,1,0,0,,0,15,15,131,1,NACES,LB,old,z,./images/NACESLB.png,,,,,,,,,,,,,,,,,,,,,,,,,,,,,,,,,
,,,,,,,,,,,,,,,,,,23,2022-02-12_17h23.36.178,lexical_decision_task_DD_L4,2021.2.3,iPhone,58.82352941,,,,,,,,,,0.734,1,,,,,,,,,,,,,,,0,-0.289565217,-0.276521739,1,0,0,0.734,button_left_main,-0.289565217,-0.276521739,1,0,0,,0,16,16,111,1,HOSSE,C,old,z,./images/HOSSE.png,,,,,,,,,,,,,,,,,,,,,,,,,,,,,,,,,
,,,,,,,,,,,,,,,,,,23,2022-02-12_17h23.36.178,lexical_decision_task_DD_L4,2021.2.3,iPhone,58.82352941,,,,,,,,,,0.94,1,,,,,,,,,,,,,,,0,-0.324347826,-0.314782609,1,0,0,0.94,button_left_main,-0.324347826,-0.314782609,1,0,0,,0,17,17,115,1,MAWNS,HB,old,z,./images/MAWNSHB.png,,,,,,,,,,,,,,,,,,,,,,,,,,,,,,,,,
,,,,,,,,,,,,,,,,,,23,2022-02-12_17h23.36.178,lexical_decision_task_DD_L4,2021.2.3,iPhone,58.82352941,,,,,,,,,,0.917,1,,,,,,,,,,,,,,,0,-0.294782609,-0.307826087,1,0,0,0.917,button_left_main,-0.294782609,-0.307826087,1,0,0,,0,18,18,163,1,GAMBA,HB,old,z,./images/GAMBAHB.png,,,,,,,,,,,,,,,,,,,,,,,,,,,,,,,,,
,,,,,,,,,,,,,,,,,,23,2022-02-12_17h23.36.178,lexical_decision_task_DD_L4,2021.2.3,iPhone,58.82352941,,,,,,,,,,0.617,1,,,,,,,,,,,,,,,0,0.343478261,-0.31826087,1,0,0,0.617,button_right_main,0.343478261,-0.31826087,1,0,0,,0,19,19,11,1,MEDAL,LB,old,m,./images/MEDALLB.png,,,,,,,,,,,,,,,,,,,,,,,,,,,,,,,,,
,,,,,,,,,,,,,,,,,,23,2022-02-12_17h23.36.178,lexical_decision_task_DD_L4,2021.2.3,iPhone,58.82352941,,,,,,,,,,0.692,1,,,,,,,,,,,,,,,0,0.390434783,-0.35826087,1,0,0,0.692,button_right_main,0.390434783,-0.35826087,1,0,0,,0,20,20,6,1,STAIN,C,old,m,./images/STAIN.png,,,,,,,,,,,,,,,,,,,,,,,,,,,,,,,,,
,,,,,,,,,,,,,,,,,,23,2022-02-12_17h23.36.178,lexical_decision_task_DD_L4,2021.2.3,iPhone,58.82352941,,,,,,,,,,0.933,1,,,,,,,,,,,,,,,0,-0.312173913,-0.295652174,1,0,0,0.933,button_left_main,-0.312173913,-0.295652174,1,0,0,,0,21,21,164,1,SGREW,LB,old,z,./images/SGREWLB.png,,,,,,,,,,,,,,,,,,,,,,,,,,,,,,,,,
,,,,,,,,,,,,,,,,,,23,2022-02-12_17h23.36.178,lexical_decision_task_DD_L4,2021.2.3,iPhone,58.82352941,,,,,,,,,,0.624,1,,,,,,,,,,,,,,,0,0.308695652,-0.311304348,1,0,0,0.624,button_right_main,0.308695652,-0.311304348,1,0,0,,0,22,22,2,1,STOVE,LB,old,m,./images/STOVELB.png,,,,,,,,,,,,,,,,,,,,,,,,,,,,,,,,,
,,,,,,,,,,,,,,,,,,23,2022-02-12_17h23.36.178,lexical_decision_task_DD_L4,2021.2.3,iPhone,58.82352941,,,,,,,,,,1.09,1,,,,,,,,,,,,,,,0,0.263478261,-0.313043478,1,0,0,1.09,button_right_main,0.263478261,-0.313043478,1,0,0,,0,23,23,79,1,RULER,HB,old,m,./images/RULERHB.png,,,,,,,,,,,,,,,,,,,,,,,,,,,,,,,,,
,,,,,,,,,,,,,,,,,,23,2022-02-12_17h23.36.178,lexical_decision_task_DD_L4,2021.2.3,iPhone,58.82352941,,,,,,,,,,0.699,1,,,,,,,,,,,,,,,0,0.343478261,-0.325217391,1,0,0,0.699,button_right_main,0.343478261,-0.325217391,1,0,0,,0,24,24,41,1,STREAM,LB,old,m,./images/STREAMLB.png,,,,,,,,,,,,,,,,,,,,,,,,,,,,,,,,,
,,,,,,,,,,,,,,,,,,23,2022-02-12_17h23.36.178,lexical_decision_task_DD_L4,2021.2.3,iPhone,58.82352941,,,,,,,,,,0.7,1,,,,,,,,,,,,,,,0,0.416521739,-0.307826087,1,0,0,0.7,button_right_main,0.416521739,-0.307826087,1,0,0,,0,25,25,74,1,JUMPER,LB,old,m,./images/JUMPERLB.png,,,,,,,,,,,,,,,,,,,,,,,,,,,,,,,,,
,,,,,,,,,,,,,,,,,,23,2022-02-12_17h23.36.178,lexical_decision_task_DD_L4,2021.2.3,iPhone,58.82352941,,,,,,,,,,0.908,1,,,,,,,,,,,,,,,0,0.373043478,-0.339130435,1,0,0,0.908,button_right_main,0.373043478,-0.339130435,1,0,0,,0,26,26,13,1,BUNNY,HB,old,m,./images/BUNNYHB.png,,,,,,,,,,,,,,,,,,,,,,,,,,,,,,,,,
,,,,,,,,,,,,,,,,,,23,2022-02-12_17h23.36.178,lexical_decision_task_DD_L4,2021.2.3,iPhone,58.82352941,,,,,,,,,,0.951,1,,,,,,,,,,,,,,,0,-0.333043478,-0.311304348,1,0,0,0.951,button_left_main,-0.333043478,-0.311304348,1,0,0,,0,27,27,99,1,BACKY,C,old,z,./images/BACKY.png,,,,,,,,,,,,,,,,,,,,,,,,,,,,,,,,,
,,,,,,,,,,,,,,,,,,23,2022-02-12_17h23.36.178,lexical_decision_task_DD_L4,2021.2.3,iPhone,58.82352941,,,,,,,,,,1.174,1,,,,,,,,,,,,,,,0,0.334782609,-0.316521739,1,0,0,1.174,button_right_main,0.334782609,-0.316521739,1,0,0,,0,28,28,82,1,PEBBLE,HB,old,m,./images/PEBBLEHB.png,,,,,,,,,,,,,,,,,,,,,,,,,,,,,,,,,
,,,,,,,,,,,,,,,,,,23,2022-02-12_17h23.36.178,lexical_decision_task_DD_L4,2021.2.3,iPhone,58.82352941,,,,,,,,,,0.866,1,,,,,,,,,,,,,,,0,0.395652174,-0.285217391,1,0,0,0.866,button_right_main,0.395652174,-0.285217391,1,0,0,,0,29,29,50,1,PILOT,LB,old,m,./images/PILOTLB.png,,,,,,,,,,,,,,,,,,,,,,,,,,,,,,,,,
,,,,,,,,,,,,,,,,,,23,2022-02-12_17h23.36.178,lexical_decision_task_DD_L4,2021.2.3,iPhone,58.82352941,,,,,,,,,,0.996,1,,,,,,,,,,,,,,,0,-0.249565217,-0.307826087,1,0,0,0.996,button_left_main,-0.249565217,-0.307826087,1,0,0,,0,30,30,88,1,GLUSH,HB,old,z,./images/GLUSHHB.png,,,,,,,,,,,,,,,,,,,,,,,,,,,,,,,,,
,,,,,,,,,,,,,,,,,,23,2022-02-12_17h23.36.178,lexical_decision_task_DD_L4,2021.2.3,iPhone,58.82352941,,,,,,,,,,1.147,1,,,,,,,,,,,,,,,0,-0.293043478,-0.326956522,1,0,0,1.147,button_left_main,-0.293043478,-0.326956522,1,0,0,,0,31,31,91,1,SHENS,HB,old,z,./images/SHENSHB.png,,,,,,,,,,,,,,,,,,,,,,,,,,,,,,,,,
,,,,,,,,,,,,,,,,,,23,2022-02-12_17h23.36.178,lexical_decision_task_DD_L4,2021.2.3,iPhone,58.82352941,,,,,,,,,,0.673,1,,,,,,,,,,,,,,,0,0.367826087,-0.330434783,1,0,0,0.673,button_right_main,0.367826087,-0.330434783,1,0,0,,0,32,32,53,1,POSTER,LB,old,m,./images/POSTERLB.png,,,,,,,,,,,,,,,,,,,,,,,,,,,,,,,,,
,,,,,,,,,,,,,,,,,,23,2022-02-12_17h23.36.178,lexical_decision_task_DD_L4,2021.2.3,iPhone,58.82352941,,,,,,,,,,0.741,1,,,,,,,,,,,,,,,0,0.34173913,-0.20173913,1,0,0,0.741,button_right_main,0.34173913,-0.20173913,1,0,0,,0,33,33,18,1,PARCEL,C,old,m,./images/PARCEL.png,,,,,,,,,,,,,,,,,,,,,,,,,,,,,,,,,
,,,,,,,,,,,,,,,,,,23,2022-02-12_17h23.36.178,lexical_decision_task_DD_L4,2021.2.3,iPhone,58.82352941,,,,,,,,,,0.784,1,,,,,,,,,,,,,,,0,-0.303478261,-0.28,1,0,0,0.784,button_left_main,-0.303478261,-0.28,1,0,0,,0,34,34,150,1,NOOLS,C,old,z,./images/NOOLS.png,,,,,,,,,,,,,,,,,,,,,,,,,,,,,,,,,
,,,,,,,,,,,,,,,,,,23,2022-02-12_17h23.36.178,lexical_decision_task_DD_L4,2021.2.3,iPhone,58.82352941,,,,,,,,,,0.792,1,,,,,,,,,,,,,,,0,0.357391304,-0.323478261,1,0,0,0.792,button_right_main,0.357391304,-0.323478261,1,0,0,,0,35,35,49,1,BISHOP,HB,old,m,./images/BISHOPHB.png,,,,,,,,,,,,,,,,,,,,,,,,,,,,,,,,,
,,,,,,,,,,,,,,,,,,23,2022-02-12_17h23.36.178,lexical_decision_task_DD_L4,2021.2.3,iPhone,58.82352941,,,,,,,,,,1.016,1,,,,,,,,,,,,,,,0,-0.333043478,-0.328695652,1,0,0,1.016,button_left_main,-0.333043478,-0.328695652,1,0,0,,0,36,36,130,1,CRILL,HB,old,z,./images/CRILLHB.png,,,,,,,,,,,,,,,,,,,,,,,,,,,,,,,,,
,,,,,,,,,,,,,,,,,,23,2022-02-12_17h23.36.178,lexical_decision_task_DD_L4,2021.2.3,iPhone,58.82352941,,,,,,,,,,1.083,1,,,,,,,,,,,,,,,0,-0.327826087,-0.307826087,1,0,0,1.083,button_left_main,-0.327826087,-0.307826087,1,0,0,,0,37,37,158,1,EGECT,LB,old,z,./images/EGECTLB.png,,,,,,,,,,,,,,,,,,,,,,,,,,,,,,,,,
,,,,,,,,,,,,,,,,,,23,2022-02-12_17h23.36.178,lexical_decision_task_DD_L4,2021.2.3,iPhone,58.82352941,,,,,,,,,,0.742,1,,,,,,,,,,,,,,,0,-0.336521739,-0.292173913,1,0,0,0.742,button_left_main,-0.336521739,-0.292173913,1,0,0,,0,38,38,117,1,STEEG,C,old,z,./images/STEEG.png,,,,,,,,,,,,,,,,,,,,,,,,,,,,,,,,,
,,,,,,,,,,,,,,,,,,23,2022-02-12_17h23.36.178,lexical_decision_task_DD_L4,2021.2.3,iPhone,58.82352941,,,,,,,,,,0.974,1,,,,,,,,,,,,,,,0,-0.345217391,-0.288695652,1,0,0,0.974,button_left_main,-0.345217391,-0.288695652,1,0,0,,0,39,39,136,1,WERVE,HB,old,z,./images/WERVEHB.png,,,,,,,,,,,,,,,,,,,,,,,,,,,,,,,,,
,,,,,,,,,,,,,,,,,,23,2022-02-12_17h23.36.178,lexical_decision_task_DD_L4,2021.2.3,iPhone,58.82352941,,,,,,,,,,0.9,1,,,,,,,,,,,,,,,0,0.296521739,-0.300869565,1,0,0,0.9,button_right_main,0.296521739,-0.300869565,1,0,0,,0,40,40,47,1,LAGOON,LB,old,m,./images/LAGOONLB.png,,,,,,,,,,,,,,,,,,,,,,,,,,,,,,,,,
,,,,,,,,,,,,,,,,,,23,2022-02-12_17h23.36.178,lexical_decision_task_DD_L4,2021.2.3,iPhone,58.82352941,,,,,,,,,,0.642,1,,,,,,,,,,,,,,,0,0.327826087,-0.311304348,1,0,0,0.642,button_right_main,0.070434783,-0.410434783,1,0,0,,0,41,41,32,1,HOCKEY,LB,old,m,./images/HOCKEYLB.png,break_done_button,,,,,,,,,,,,,,,,,,,,,,,,,,,,,,,,
,,,,,,,,,,,,,,,,,,23,2022-02-12_17h23.36.178,lexical_decision_task_DD_L4,2021.2.3,iPhone,58.82352941,,,,,,,,,,0.766,1,,,,,,,,,,,,,,,0,-0.407826087,-0.32,1,0,0,0.766,button_left_main,-0.407826087,-0.32,1,0,0,,0,42,42,87,1,TRING,C,old,z,./images/TRING.png,,,,,,,,,,,,,,,,,,,,,,,,,,,,,,,,,
,,,,,,,,,,,,,,,,,,23,2022-02-12_17h23.36.178,lexical_decision_task_DD_L4,2021.2.3,iPhone,58.82352941,,,,,,,,,,1.175,1,,,,,,,,,,,,,,,0,-0.293043478,-0.314782609,1,0,0,1.175,button_left_main,-0.293043478,-0.314782609,1,0,0,,0,43,43,148,1,JOMS,HB,old,z,./images/JOMSHB.png,,,,,,,,,,,,,,,,,,,,,,,,,,,,,,,,,
,,,,,,,,,,,,,,,,,,23,2022-02-12_17h23.36.178,lexical_decision_task_DD_L4,2021.2.3,iPhone,58.82352941,,,,,,,,,,0.683,1,,,,,,,,,,,,,,,0,0.362608696,-0.285217391,1,0,0,0.683,button_right_main,0.362608696,-0.285217391,1,0,0,,0,44,44,78,1,BROOM,C,old,m,./images/BROOM.png,,,,,,,,,,,,,,,,,,,,,,,,,,,,,,,,,
,,,,,,,,,,,,,,,,,,23,2022-02-12_17h23.36.178,lexical_decision_task_DD_L4,2021.2.3,iPhone,58.82352941,,,,,,,,,,0.756,1,,,,,,,,,,,,,,,0,0.371304348,-0.257391304,1,0,0,0.756,button_right_main,0.371304348,-0.257391304,1,0,0,,0,45,45,66,1,STATUE,C,old,m,./images/STATUE.png,,,,,,,,,,,,,,,,,,,,,,,,,,,,,,,,,
,,,,,,,,,,,,,,,,,,23,2022-02-12_17h23.36.178,lexical_decision_task_DD_L4,2021.2.3,iPhone,58.82352941,,,,,,,,,,0.766,1,,,,,,,,,,,,,,,0,-0.315652174,-0.300869565,1,0,0,0.766,button_left_main,-0.315652174,-0.300869565,1,0,0,,0,46,46,137,1,JOOST,LB,old,z,./images/JOOSTLB.png,,,,,,,,,,,,,,,,,,,,,,,,,,,,,,,,,
,,,,,,,,,,,,,,,,,,23,2022-02-12_17h23.36.178,lexical_decision_task_DD_L4,2021.2.3,iPhone,58.82352941,,,,,,,,,,0.75,1,,,,,,,,,,,,,,,0,-0.319130435,-0.328695652,1,0,0,0.75,button_left_main,-0.319130435,-0.328695652,1,0,0,,0,47,47,101,1,GLEET,LB,old,z,./images/GLEETLB.png,,,,,,,,,,,,,,,,,,,,,,,,,,,,,,,,,
,,,,,,,,,,,,,,,,,,23,2022-02-12_17h23.36.178,lexical_decision_task_DD_L4,2021.2.3,iPhone,58.82352941,,,,,,,,,,0.873,1,,,,,,,,,,,,,,,0,-0.320869565,-0.32,1,0,0,0.873,button_left_main,-0.320869565,-0.32,1,0,0,,0,48,48,165,1,TROWN,C,old,z,./images/TROWN.png,,,,,,,,,,,,,,,,,,,,,,,,,,,,,,,,,
,,,,,,,,,,,,,,,,,,23,2022-02-12_17h23.36.178,lexical_decision_task_DD_L4,2021.2.3,iPhone,58.82352941,,,,,,,,,,0.776,1,,,,,,,,,,,,,,,0,0.371304348,-0.313043478,1,0,0,0.776,button_right_main,0.371304348,-0.313043478,1,0,0,,0,49,49,46,1,MUMMY,HB,old,m,./images/MUMMYHB.png,,,,,,,,,,,,,,,,,,,,,,,,,,,,,,,,,
,,,,,,,,,,,,,,,,,,23,2022-02-12_17h23.36.178,lexical_decision_task_DD_L4,2021.2.3,iPhone,58.82352941,,,,,,,,,,0.666,1,,,,,,,,,,,,,,,0,0.385217391,-0.276521739,1,0,0,0.666,button_right_main,0.385217391,-0.276521739,1,0,0,,0,50,50,45,1,MONKEY,C,old,m,./images/MONKEY.png,,,,,,,,,,,,,,,,,,,,,,,,,,,,,,,,,
,,,,,,,,,,,,,,,,,,23,2022-02-12_17h23.36.178,lexical_decision_task_DD_L4,2021.2.3,iPhone,58.82352941,,,,,,,,,,1.04,1,,,,,,,,,,,,,,,0,-0.33826087,-0.292173913,1,0,0,1.04,button_left_main,-0.33826087,-0.292173913,1,0,0,,0,51,51,133,1,POWDY,HB,old,z,./images/POWDYHB.png,,,,,,,,,,,,,,,,,,,,,,,,,,,,,,,,,
,,,,,,,,,,,,,,,,,,23,2022-02-12_17h23.36.178,lexical_decision_task_DD_L4,2021.2.3,iPhone,58.82352941,,,,,,,,,,0.716,1,,,,,,,,,,,,,,,0,0.413043478,-0.28173913,1,0,0,0.716,button_right_main,0.413043478,-0.28173913,1,0,0,,0,52,52,14,1,FENCE,LB,old,m,./images/FENCELB.png,,,,,,,,,,,,,,,,,,,,,,,,,,,,,,,,,
,,,,,,,,,,,,,,,,,,23,2022-02-12_17h23.36.178,lexical_decision_task_DD_L4,2021.2.3,iPhone,58.82352941,,,,,,,,,,0.783,1,,,,,,,,,,,,,,,0,-0.296521739,-0.264347826,1,0,0,0.783,button_left_main,-0.296521739,-0.264347826,1,0,0,,0,53,53,120,1,RINED,C,old,z,./images/RINED.png,,,,,,,,,,,,,,,,,,,,,,,,,,,,,,,,,
,,,,,,,,,,,,,,,,,,23,2022-02-12_17h23.36.178,lexical_decision_task_DD_L4,2021.2.3,iPhone,58.82352941,,,,,,,,,,0.818,1,,,,,,,,,,,,,,,0,-0.319130435,-0.316521739,1,0,0,0.818,button_left_main,-0.319130435,-0.316521739,1,0,0,,0,54,54,124,1,TUNCH,HB,old,z,./images/TUNCHHB.png,,,,,,,,,,,,,,,,,,,,,,,,,,,,,,,,,
,,,,,,,,,,,,,,,,,,23,2022-02-12_17h23.36.178,lexical_decision_task_DD_L4,2021.2.3,iPhone,58.82352941,,,,,,,,,,0.684,1,,,,,,,,,,,,,,,0,-0.305217391,-0.24173913,1,0,0,0.684,button_left_main,-0.305217391,-0.24173913,1,0,0,,0,55,55,123,1,SEDGE,C,old,z,./images/SEDGE.png,,,,,,,,,,,,,,,,,,,,,,,,,,,,,,,,,
,,,,,,,,,,,,,,,,,,23,2022-02-12_17h23.36.178,lexical_decision_task_DD_L4,2021.2.3,iPhone,58.82352941,,,,,,,,,,0.658,1,,,,,,,,,,,,,,,0,0.34,-0.32,1,0,0,0.658,button_right_main,0.34,-0.32,1,0,0,,0,56,56,29,1,PISTOL,LB,old,m,./images/PISTOLLB.png,,,,,,,,,,,,,,,,,,,,,,,,,,,,,,,,,
,,,,,,,,,,,,,,,,,,23,2022-02-12_17h23.36.178,lexical_decision_task_DD_L4,2021.2.3,iPhone,58.82352941,,,,,,,,,,1.107,1,,,,,,,,,,,,,,,0,-0.272173913,-0.290434783,1,0,0,1.107,button_left_main,-0.272173913,-0.290434783,1,0,0,,0,57,57,100,1,DRIBS,HB,old,z,./images/DRIBSHB.png,,,,,,,,,,,,,,,,,,,,,,,,,,,,,,,,,
,,,,,,,,,,,,,,,,,,23,2022-02-12_17h23.36.178,lexical_decision_task_DD_L4,2021.2.3,iPhone,58.82352941,,,,,,,,,,0.775,1,,,,,,,,,,,,,,,0,-0.270434783,-0.314782609,1,0,0,0.775,button_left_main,-0.270434783,-0.314782609,1,0,0,,0,58,58,140,1,DOVET,LB,old,z,./images/DOVETLB.png,,,,,,,,,,,,,,,,,,,,,,,,,,,,,,,,,
,,,,,,,,,,,,,,,,,,23,2022-02-12_17h23.36.178,lexical_decision_task_DD_L4,2021.2.3,iPhone,58.82352941,,,,,,,,,,0.833,1,,,,,,,,,,,,,,,0,0.367826087,-0.285217391,1,0,0,0.833,button_right_main,0.367826087,-0.285217391,1,0,0,,0,59,59,31,1,STEAK,HB,old,m,./images/STEAKHB.png,,,,,,,,,,,,,,,,,,,,,,,,,,,,,,,,,
,,,,,,,,,,,,,,,,,,23,2022-02-12_17h23.36.178,lexical_decision_task_DD_L4,2021.2.3,iPhone,58.82352941,,,,,,,,,,0.724,1,,,,,,,,,,,,,,,0,-0.312173913,-0.302608696,1,0,0,0.724,button_left_main,-0.312173913,-0.302608696,1,0,0,,0,60,60,102,1,DULLE,C,old,z,./images/DULLE.png,,,,,,,,,,,,,,,,,,,,,,,,,,,,,,,,,
,,,,,,,,,,,,,,,,,,23,2022-02-12_17h23.36.178,lexical_decision_task_DD_L4,2021.2.3,iPhone,58.82352941,,,,,,,,,,1.267,1,,,,,,,,,,,,,,,0,-0.313913043,-0.335652174,1,0,0,1.267,button_left_main,-0.313913043,-0.335652174,1,0,0,,0,61,61,166,1,SHORY,HB,old,z,./images/SHORYHB.png,,,,,,,,,,,,,,,,,,,,,,,,,,,,,,,,,
,,,,,,,,,,,,,,,,,,23,2022-02-12_17h23.36.178,lexical_decision_task_DD_L4,2021.2.3,iPhone,58.82352941,,,,,,,,,,0.873,1,,,,,,,,,,,,,,,0,0.371304348,-0.330434783,1,0,0,0.873,button_right_main,0.371304348,-0.330434783,1,0,0,,0,62,62,58,1,CANOE,HB,old,m,./images/CANOEHB.png,,,,,,,,,,,,,,,,,,,,,,,,,,,,,,,,,
,,,,,,,,,,,,,,,,,,23,2022-02-12_17h23.36.178,lexical_decision_task_DD_L4,2021.2.3,iPhone,58.82352941,,,,,,,,,,0.767,1,,,,,,,,,,,,,,,0,-0.286086957,-0.307826087,1,0,0,0.767,button_left_main,-0.286086957,-0.307826087,1,0,0,,0,63,63,161,1,BLAPS,LB,old,z,./images/BLAPSLB.png,,,,,,,,,,,,,,,,,,,,,,,,,,,,,,,,,
,,,,,,,,,,,,,,,,,,23,2022-02-12_17h23.36.178,lexical_decision_task_DD_L4,2021.2.3,iPhone,58.82352941,,,,,,,,,,0.768,1,,,,,,,,,,,,,,,0,-0.317391304,-0.297391304,1,0,0,0.768,button_left_main,-0.317391304,-0.297391304,1,0,0,,0,64,64,152,1,FRAIN,LB,old,z,./images/FRAINLB.png,,,,,,,,,,,,,,,,,,,,,,,,,,,,,,,,,
,,,,,,,,,,,,,,,,,,23,2022-02-12_17h23.36.178,lexical_decision_task_DD_L4,2021.2.3,iPhone,58.82352941,,,,,,,,,,0.86,1,,,,,,,,,,,,,,,0,0.404347826,-0.285217391,1,0,0,0.86,button_right_main,0.404347826,-0.285217391,1,0,0,,0,65,65,25,1,CHALK,HB,old,m,./images/CHALKHB.png,,,,,,,,,,,,,,,,,,,,,,,,,,,,,,,,,
,,,,,,,,,,,,,,,,,,23,2022-02-12_17h23.36.178,lexical_decision_task_DD_L4,2021.2.3,iPhone,58.82352941,,,,,,,,,,0.714,1,,,,,,,,,,,,,,,0,-0.322608696,-0.264347826,1,0,0,0.714,button_left_main,-0.322608696,-0.264347826,1,0,0,,0,66,66,132,1,SCIFF,C,old,z,./images/SCIFF.png,,,,,,,,,,,,,,,,,,,,,,,,,,,,,,,,,
,,,,,,,,,,,,,,,,,,23,2022-02-12_17h23.36.178,lexical_decision_task_DD_L4,2021.2.3,iPhone,58.82352941,,,,,,,,,,0.974,1,,,,,,,,,,,,,,,0,-0.313913043,-0.297391304,1,0,0,0.974,button_left_main,-0.313913043,-0.297391304,1,0,0,,0,67,67,154,1,THINT,HB,old,z,./images/THINTHB.png,,,,,,,,,,,,,,,,,,,,,,,,,,,,,,,,,
,,,,,,,,,,,,,,,,,,23,2022-02-12_17h23.36.178,lexical_decision_task_DD_L4,2021.2.3,iPhone,58.82352941,,,,,,,,,,0.824,1,,,,,,,,,,,,,,,0,-0.303478261,-0.304347826,1,0,0,0.824,button_left_main,-0.303478261,-0.304347826,1,0,0,,0,68,68,129,1,PRANS,C,old,z,./images/PRANS.png,,,,,,,,,,,,,,,,,,,,,,,,,,,,,,,,,
,,,,,,,,,,,,,,,,,,23,2022-02-12_17h23.36.178,lexical_decision_task_DD_L4,2021.2.3,iPhone,58.82352941,,,,,,,,,,0.767,1,,,,,,,,,,,,,,,0,-0.268695652,-0.304347826,1,0,0,0.767,button_left_main,-0.268695652,-0.304347826,1,0,0,,0,69,69,116,1,BALGY,LB,old,z,./images/BALGYLB.png,,,,,,,,,,,,,,,,,,,,,,,,,,,,,,,,,
,,,,,,,,,,,,,,,,,,23,2022-02-12_17h23.36.178,lexical_decision_task_DD_L4,2021.2.3,iPhone,58.82352941,,,,,,,,,,0.734,1,,,,,,,,,,,,,,,0,-0.305217391,-0.307826087,1,0,0,0.734,button_left_main,-0.305217391,-0.307826087,1,0,0,,0,70,70,135,1,JOODY,C,old,z,./images/JOODY.png,,,,,,,,,,,,,,,,,,,,,,,,,,,,,,,,,
,,,,,,,,,,,,,,,,,,23,2022-02-12_17h23.36.178,lexical_decision_task_DD_L4,2021.2.3,iPhone,58.82352941,,,,,,,,,,0.668,1,,,,,,,,,,,,,,,0,0.374782609,-0.292173913,1,0,0,0.668,button_right_main,0.374782609,-0.292173913,1,0,0,,0,71,71,63,1,BAKER,C,old,m,./images/BAKER.png,,,,,,,,,,,,,,,,,,,,,,,,,,,,,,,,,
,,,,,,,,,,,,,,,,,,23,2022-02-12_17h23.36.178,lexical_decision_task_DD_L4,2021.2.3,iPhone,58.82352941,,,,,,,,,,0.74,1,,,,,,,,,,,,,,,0,-0.322608696,-0.300869565,1,0,0,0.74,button_left_main,-0.322608696,-0.300869565,1,0,0,,0,72,72,156,1,HIXES,C,old,z,./images/HIXES.png,,,,,,,,,,,,,,,,,,,,,,,,,,,,,,,,,
,,,,,,,,,,,,,,,,,,23,2022-02-12_17h23.36.178,lexical_decision_task_DD_L4,2021.2.3,iPhone,58.82352941,,,,,,,,,,0.724,1,,,,,,,,,,,,,,,0,-0.280869565,-0.307826087,1,0,0,0.724,button_left_main,-0.280869565,-0.307826087,1,0,0,,0,73,73,107,1,FASKS,LB,old,z,./images/FASKSLB.png,,,,,,,,,,,,,,,,,,,,,,,,,,,,,,,,,
,,,,,,,,,,,,,,,,,,23,2022-02-12_17h23.36.178,lexical_decision_task_DD_L4,2021.2.3,iPhone,58.82352941,,,,,,,,,,0.74,1,,,,,,,,,,,,,,,0,0.388695652,-0.316521739,1,0,0,0.74,button_right_main,0.388695652,-0.316521739,1,0,0,,0,74,74,67,1,POKER,HB,old,m,./images/POKERHB.png,,,,,,,,,,,,,,,,,,,,,,,,,,,,,,,,,
,,,,,,,,,,,,,,,,,,23,2022-02-12_17h23.36.178,lexical_decision_task_DD_L4,2021.2.3,iPhone,58.82352941,,,,,,,,,,0.857,1,,,,,,,,,,,,,,,0,-0.303478261,-0.307826087,1,0,0,0.857,button_left_main,-0.303478261,-0.307826087,1,0,0,,0,75,75,145,1,LAMEL,HB,old,z,./images/LAMELHB.png,,,,,,,,,,,,,,,,,,,,,,,,,,,,,,,,,
,,,,,,,,,,,,,,,,,,23,2022-02-12_17h23.36.178,lexical_decision_task_DD_L4,2021.2.3,iPhone,58.82352941,,,,,,,,,,0.884,1,,,,,,,,,,,,,,,0,0.376521739,-0.335652174,1,0,0,0.884,button_right_main,0.376521739,-0.335652174,1,0,0,,0,76,76,61,1,ARTIST,HB,old,m,./images/ARTISTHB.png,,,,,,,,,,,,,,,,,,,,,,,,,,,,,,,,,
,,,,,,,,,,,,,,,,,,23,2022-02-12_17h23.36.178,lexical_decision_task_DD_L4,2021.2.3,iPhone,58.82352941,,,,,,,,,,0.723,1,,,,,,,,,,,,,,,0,-0.3,-0.292173913,1,0,0,0.723,button_left_main,-0.3,-0.292173913,1,0,0,,0,77,77,104,1,GITTY,LB,old,z,./images/GITTYLB.png,,,,,,,,,,,,,,,,,,,,,,,,,,,,,,,,,
,,,,,,,,,,,,,,,,,,23,2022-02-12_17h23.36.178,lexical_decision_task_DD_L4,2021.2.3,iPhone,58.82352941,,,,,,,,,,0.775,1,,,,,,,,,,,,,,,0,-0.327826087,-0.32173913,1,0,0,0.775,button_left_main,-0.327826087,-0.32173913,1,0,0,,0,78,78,113,1,LINEW,LB,old,z,./images/LINEWLB.png,,,,,,,,,,,,,,,,,,,,,,,,,,,,,,,,,
,,,,,,,,,,,,,,,,,,23,2022-02-12_17h23.36.178,lexical_decision_task_DD_L4,2021.2.3,iPhone,58.82352941,,,,,,,,,,0.741,1,,,,,,,,,,,,,,,0,0.374782609,-0.276521739,1,0,0,0.741,button_right_main,0.374782609,-0.276521739,1,0,0,,0,79,79,57,1,FERRY,C,old,m,./images/FERRY.png,,,,,,,,,,,,,,,,,,,,,,,,,,,,,,,,,
,,,,,,,,,,,,,,,,,,23,2022-02-12_17h23.36.178,lexical_decision_task_DD_L4,2021.2.3,iPhone,58.82352941,,,,,,,,,,0.8,1,,,,,,,,,,,,,,,0,0.362608696,-0.328695652,1,0,0,0.8,button_right_main,0.362608696,-0.328695652,1,0,0,,0,80,80,10,1,GARDEN,HB,old,m,./images/GARDENHB.png,,,,,,,,,,,,,,,,,,,,,,,,,,,,,,,,,
,,,,,,,,,,,,,,,,,,23,2022-02-12_17h23.36.178,lexical_decision_task_DD_L4,2021.2.3,iPhone,58.82352941,,,,,,,,,,0.823,1,,,,,,,,,,,,,,,0,-0.275652174,-0.27826087,1,0,0,0.823,button_left_main,-0.275652174,-0.27826087,1,0,0,,0,81,81,128,1,GRIFT,LB,old,z,./images/GRIFTLB.png,,,,,,,,,,,,,,,,,,,,,,,,,,,,,,,,,
,,,,,,,,,,,,,,,,,,23,2022-02-12_17h23.36.178,lexical_decision_task_DD_L4,2021.2.3,iPhone,58.82352941,,,,,,,,,,0.726,1,,,,,,,,,,,,,,,0,-0.310434783,-0.306086957,1,0,0,0.726,button_left_main,-0.310434783,-0.306086957,1,0,0,,0,82,82,141,1,PLEET,C,old,z,./images/PLEET.png,,,,,,,,,,,,,,,,,,,,,,,,,,,,,,,,,
,,,,,,,,,,,,,,,,,,23,2022-02-12_17h23.36.178,lexical_decision_task_DD_L4,2021.2.3,iPhone,58.82352941,,,,,,,,,,0.849,1,,,,,,,,,,,,,,,0,-0.322608696,-0.311304348,1,0,0,0.849,button_left_main,0.119130435,-0.408695652,1,0,0,,0,83,83,157,1,INLER,HB,old,z,./images/INLERHB.png,break_done_button,,,,,,,,,,,,,,,,,,,,,,,,,,,,,,,,
,,,,,,,,,,,,,,,,,,23,2022-02-12_17h23.36.178,lexical_decision_task_DD_L4,2021.2.3,iPhone,58.82352941,,,,,,,,,,0.95,1,,,,,,,,,,,,,,,0,0.270434783,-0.260869565,1,0,0,0.95,button_right_main,0.270434783,-0.260869565,1,0,0,,0,84,84,40,1,SNAKE,HB,old,m,./images/SNAKEHB.png,,,,,,,,,,,,,,,,,,,,,,,,,,,,,,,,,
,,,,,,,,,,,,,,,,,,23,2022-02-12_17h23.36.178,lexical_decision_task_DD_L4,2021.2.3,iPhone,58.82352941,,,,,,,,,,0.666,1,,,,,,,,,,,,,,,0,0.315652174,-0.292173913,1,0,0,0.666,button_right_main,0.315652174,-0.292173913,1,0,0,,0,85,85,36,1,BOILER,C,old,m,./images/BOILER.png,,,,,,,,,,,,,,,,,,,,,,,,,,,,,,,,,
,,,,,,,,,,,,,,,,,,23,2022-02-12_17h23.36.178,lexical_decision_task_DD_L4,2021.2.3,iPhone,58.82352941,,,,,,,,,,0.591,1,,,,,,,,,,,,,,,0,0.34,-0.307826087,1,0,0,0.591,button_right_main,0.34,-0.307826087,1,0,0,,0,86,86,9,1,DIVER,C,old,m,./images/DIVER.png,,,,,,,,,,,,,,,,,,,,,,,,,,,,,,,,,
,,,,,,,,,,,,,,,,,,23,2022-02-12_17h23.36.178,lexical_decision_task_DD_L4,2021.2.3,iPhone,58.82352941,,,,,,,,,,0.917,1,,,,,,,,,,,,,,,0,-0.306956522,-0.295652174,1,0,0,0.917,button_left_main,-0.306956522,-0.295652174,1,0,0,,0,87,87,160,1,VEETS,HB,old,z,./images/VEETSHB.png,,,,,,,,,,,,,,,,,,,,,,,,,,,,,,,,,
,,,,,,,,,,,,,,,,,,23,2022-02-12_17h23.36.178,lexical_decision_task_DD_L4,2021.2.3,iPhone,58.82352941,,,,,,,,,,0.774,1,,,,,,,,,,,,,,,0,-0.279130435,-0.31826087,1,0,0,0.774,button_left_main,-0.279130435,-0.31826087,1,0,0,,0,88,88,122,1,BLOOT,LB,old,z,./images/BLOOTLB.png,,,,,,,,,,,,,,,,,,,,,,,,,,,,,,,,,
,,,,,,,,,,,,,,,,,,23,2022-02-12_17h23.36.178,lexical_decision_task_DD_L4,2021.2.3,iPhone,58.82352941,,,,,,,,,,0.701,1,,,,,,,,,,,,,,,0,0.350434783,-0.293913043,1,0,0,0.701,button_right_main,0.350434783,-0.293913043,1,0,0,,0,89,89,20,1,GRANNY,LB,old,m,./images/GRANNYLB.png,,,,,,,,,,,,,,,,,,,,,,,,,,,,,,,,,
,,,,,,,,,,,,,,,,,,23,2022-02-12_17h23.36.178,lexical_decision_task_DD_L4,2021.2.3,iPhone,58.82352941,,,,,,,,,,0.891,1,,,,,,,,,,,,,,,0,-0.282608696,-0.304347826,1,0,0,0.891,button_left_main,-0.282608696,-0.304347826,1,0,0,,0,90,90,149,1,VEASE,LB,old,z,./images/VEASELB.png,,,,,,,,,,,,,,,,,,,,,,,,,,,,,,,,,
,,,,,,,,,,,,,,,,,,23,2022-02-12_17h23.36.178,lexical_decision_task_DD_L4,2021.2.3,iPhone,58.82352941,,,,,,,,,,0.672,1,,,,,,,,,,,,,,,0,-0.360869565,-0.32,1,0,0,0.672,button_left_main,-0.360869565,-0.32,1,0,0,,0,91,91,89,1,DRIEK,LB,old,z,./images/DRIEKLB.png,,,,,,,,,,,,,,,,,,,,,,,,,,,,,,,,,
,,,,,,,,,,,,,,,,,,23,2022-02-12_17h23.36.178,lexical_decision_task_DD_L4,2021.2.3,iPhone,58.82352941,,,,,,,,,,0.774,0,,,,,,,,,,,,,,,0,0.308695652,-0.314782609,1,0,0,0.774,button_right_main,0.308695652,-0.314782609,1,0,0,,0,92,92,142,1,PLASK,HB,old,z,./images/PLASKHB.png,,,,,,,,,,,,,,,,,,,,,,,,,,,,,,,,,
,,,,,,,,,,,,,,,,,,23,2022-02-12_17h23.36.178,lexical_decision_task_DD_L4,2021.2.3,iPhone,58.82352941,,,,,,,,,,0.69,1,,,,,,,,,,,,,,,0,0.291304348,-0.366956522,1,0,0,0.69,button_right_main,0.291304348,-0.366956522,1,0,0,,0,93,93,59,1,BRUSH,LB,old,m,./images/BRUSHLB.png,,,,,,,,,,,,,,,,,,,,,,,,,,,,,,,,,
,,,,,,,,,,,,,,,,,,23,2022-02-12_17h23.36.178,lexical_decision_task_DD_L4,2021.2.3,iPhone,58.82352941,,,,,,,,,,0.75,1,,,,,,,,,,,,,,,0,0.308695652,-0.307826087,1,0,0,0.75,button_right_main,0.308695652,-0.307826087,1,0,0,,0,94,94,60,1,CURRY,C,old,m,./images/CURRY.png,,,,,,,,,,,,,,,,,,,,,,,,,,,,,,,,,
,,,,,,,,,,,,,,,,,,23,2022-02-12_17h23.36.178,lexical_decision_task_DD_L4,2021.2.3,iPhone,58.82352941,,,,,,,,,,0.799,1,,,,,,,,,,,,,,,0,-0.327826087,-0.323478261,1,0,0,0.799,button_left_main,-0.327826087,-0.323478261,1,0,0,,0,95,95,153,1,CLUPS,C,old,z,./images/CLUPS.png,,,,,,,,,,,,,,,,,,,,,,,,,,,,,,,,,
,,,,,,,,,,,,,,,,,,23,2022-02-12_17h23.36.178,lexical_decision_task_DD_L4,2021.2.3,iPhone,58.82352941,,,,,,,,,,0.847,1,,,,,,,,,,,,,,,0,-0.346956522,-0.347826087,1,0,0,0.847,button_left_main,-0.346956522,-0.347826087,1,0,0,,0,96,96,121,1,CEERS,HB,old,z,./images/CEERSHB.png,,,,,,,,,,,,,,,,,,,,,,,,,,,,,,,,,
,,,,,,,,,,,,,,,,,,23,2022-02-12_17h23.36.178,lexical_decision_task_DD_L4,2021.2.3,iPhone,58.82352941,,,,,,,,,,0.859,1,,,,,,,,,,,,,,,0,-0.263478261,-0.349565217,1,0,0,0.859,button_left_main,-0.263478261,-0.349565217,1,0,0,,0,97,97,146,1,MOOST,LB,old,z,./images/MOOSTLB.png,,,,,,,,,,,,,,,,,,,,,,,,,,,,,,,,,
,,,,,,,,,,,,,,,,,,23,2022-02-12_17h23.36.178,lexical_decision_task_DD_L4,2021.2.3,iPhone,58.82352941,,,,,,,,,,0.999,0,,,,,,,,,,,,,,,0,0.350434783,-0.299130435,1,0,0,0.999,button_right_main,0.350434783,-0.299130435,1,0,0,,0,98,98,127,1,NINDY,HB,old,z,./images/NINDYHB.png,,,,,,,,,,,,,,,,,,,,,,,,,,,,,,,,,
,,,,,,,,,,,,,,,,,,23,2022-02-12_17h23.36.178,lexical_decision_task_DD_L4,2021.2.3,iPhone,58.82352941,,,,,,,,,,0.69,1,,,,,,,,,,,,,,,0,0.355652174,-0.306086957,1,0,0,0.69,button_right_main,0.355652174,-0.306086957,1,0,0,,0,99,99,16,1,GRAPE,HB,old,m,./images/GRAPEHB.png,,,,,,,,,,,,,,,,,,,,,,,,,,,,,,,,,
,,,,,,,,,,,,,,,,,,23,2022-02-12_17h23.36.178,lexical_decision_task_DD_L4,2021.2.3,iPhone,58.82352941,,,,,,,,,,0.825,1,,,,,,,,,,,,,,,0,0.312173913,-0.313043478,1,0,0,0.825,button_right_main,0.312173913,-0.313043478,1,0,0,,0,100,100,56,1,HEATER,LB,old,m,./images/HEATERLB.png,,,,,,,,,,,,,,,,,,,,,,,,,,,,,,,,,
,,,,,,,,,,,,,,,,,,23,2022-02-12_17h23.36.178,lexical_decision_task_DD_L4,2021.2.3,iPhone,58.82352941,,,,,,,,,,0.659,1,,,,,,,,,,,,,,,0,0.346956522,-0.32,1,0,0,0.659,button_right_main,0.346956522,-0.32,1,0,0,,0,101,101,71,1,BUBBLE,LB,old,m,./images/BUBBLELB.png,,,,,,,,,,,,,,,,,,,,,,,,,,,,,,,,,
,,,,,,,,,,,,,,,,,,23,2022-02-12_17h23.36.178,lexical_decision_task_DD_L4,2021.2.3,iPhone,58.82352941,,,,,,,,,,0.691,1,,,,,,,,,,,,,,,0,0.353913043,-0.32173913,1,0,0,0.691,button_right_main,0.353913043,-0.32173913,1,0,0,,0,102,102,62,1,MAMMAL,LB,old,m,./images/MAMMALLB.png,,,,,,,,,,,,,,,,,,,,,,,,,,,,,,,,,
,,,,,,,,,,,,,,,,,,23,2022-02-12_17h23.36.178,lexical_decision_task_DD_L4,2021.2.3,iPhone,58.82352941,,,,,,,,,,0.683,1,,,,,,,,,,,,,,,0,0.360869565,-0.306086957,1,0,0,0.683,button_right_main,0.360869565,-0.306086957,1,0,0,,0,103,103,81,1,DRILL,C,old,m,./images/DRILL.png,,,,,,,,,,,,,,,,,,,,,,,,,,,,,,,,,
,,,,,,,,,,,,,,,,,,23,2022-02-12_17h23.36.178,lexical_decision_task_DD_L4,2021.2.3,iPhone,58.82352941,,,,,,,,,,0.724,1,,,,,,,,,,,,,,,0,-0.319130435,-0.354782609,1,0,0,0.724,button_left_main,-0.319130435,-0.354782609,1,0,0,,0,104,104,86,1,AIFED,LB,old,z,./images/AIFEDLB.png,,,,,,,,,,,,,,,,,,,,,,,,,,,,,,,,,
,,,,,,,,,,,,,,,,,,23,2022-02-12_17h23.36.178,lexical_decision_task_DD_L4,2021.2.3,iPhone,58.82352941,,,,,,,,,,1.051,1,,,,,,,,,,,,,,,0,-0.270434783,-0.328695652,1,0,0,1.051,button_left_main,-0.270434783,-0.328695652,1,0,0,,0,105,105,93,1,SMONE,C,old,z,./images/SMONE.png,,,,,,,,,,,,,,,,,,,,,,,,,,,,,,,,,
,,,,,,,,,,,,,,,,,,23,2022-02-12_17h23.36.178,lexical_decision_task_DD_L4,2021.2.3,iPhone,58.82352941,,,,,,,,,,0.783,1,,,,,,,,,,,,,,,0,0.346956522,-0.313043478,1,0,0,0.783,button_right_main,0.346956522,-0.313043478,1,0,0,,0,106,106,8,1,CLIFF,LB,old,m,./images/CLIFFLB.png,,,,,,,,,,,,,,,,,,,,,,,,,,,,,,,,,
,,,,,,,,,,,,,,,,,,23,2022-02-12_17h23.36.178,lexical_decision_task_DD_L4,2021.2.3,iPhone,58.82352941,,,,,,,,,,0.957,1,,,,,,,,,,,,,,,0,-0.29826087,-0.347826087,1,0,0,0.957,button_left_main,-0.29826087,-0.347826087,1,0,0,,0,107,107,106,1,CLUMS,HB,old,z,./images/CLUMSHB.png,,,,,,,,,,,,,,,,,,,,,,,,,,,,,,,,,
,,,,,,,,,,,,,,,,,,23,2022-02-12_17h23.36.178,lexical_decision_task_DD_L4,2021.2.3,iPhone,58.82352941,,,,,,,,,,0.873,1,,,,,,,,,,,,,,,0,-0.25826087,-0.314782609,1,0,0,0.873,button_left_main,-0.25826087,-0.314782609,1,0,0,,0,108,108,94,1,BLANS,HB,old,z,./images/BLANSHB.png,,,,,,,,,,,,,,,,,,,,,,,,,,,,,,,,,
,,,,,,,,,,,,,,,,,,23,2022-02-12_17h23.36.178,lexical_decision_task_DD_L4,2021.2.3,iPhone,58.82352941,,,,,,,,,,0.598,1,,,,,,,,,,,,,,,0,0.334782609,-0.337391304,1,0,0,0.598,button_right_main,0.334782609,-0.337391304,1,0,0,,0,109,109,27,1,BUTTER,C,old,m,./images/BUTTER.png,,,,,,,,,,,,,,,,,,,,,,,,,,,,,,,,,
,,,,,,,,,,,,,,,,,,23,2022-02-12_17h23.36.178,lexical_decision_task_DD_L4,2021.2.3,iPhone,58.82352941,,,,,,,,,,0.675,1,,,,,,,,,,,,,,,0,-0.3,-0.36,1,0,0,0.675,button_left_main,-0.3,-0.36,1,0,0,,0,110,110,114,1,RIKES,C,old,z,./images/RIKES.png,,,,,,,,,,,,,,,,,,,,,,,,,,,,,,,,,
,,,,,,,,,,,,,,,,,,23,2022-02-12_17h23.36.178,lexical_decision_task_DD_L4,2021.2.3,iPhone,58.82352941,,,,,,,,,,0.625,1,,,,,,,,,,,,,,,0,0.303478261,-0.306086957,1,0,0,0.625,button_right_main,0.303478261,-0.306086957,1,0,0,,0,111,111,83,1,WHISKY,LB,old,m,./images/WHISKYLB.png,,,,,,,,,,,,,,,,,,,,,,,,,,,,,,,,,
,,,,,,,,,,,,,,,,,,23,2022-02-12_17h23.36.178,lexical_decision_task_DD_L4,2021.2.3,iPhone,58.82352941,,,,,,,,,,0.684,1,,,,,,,,,,,,,,,0,0.343478261,-0.276521739,1,0,0,0.684,button_right_main,0.343478261,-0.276521739,1,0,0,,0,112,112,22,1,CLOWN,HB,old,m,./images/CLOWNHB.png,,,,,,,,,,,,,,,,,,,,,,,,,,,,,,,,,
,,,,,,,,,,,,,,,,,,23,2022-02-12_17h23.36.178,lexical_decision_task_DD_L4,2021.2.3,iPhone,58.82352941,,,,,,,,,,0.824,1,,,,,,,,,,,,,,,0,-0.334782609,-0.313043478,1,0,0,0.824,button_left_main,-0.334782609,-0.313043478,1,0,0,,0,113,113,103,1,FLORT,HB,old,z,./images/FLORTHB.png,,,,,,,,,,,,,,,,,,,,,,,,,,,,,,,,,
,,,,,,,,,,,,,,,,,,23,2022-02-12_17h23.36.178,lexical_decision_task_DD_L4,2021.2.3,iPhone,58.82352941,,,,,,,,,,0.842,1,,,,,,,,,,,,,,,0,0.373043478,-0.309565217,1,0,0,0.842,button_right_main,0.373043478,-0.309565217,1,0,0,,0,114,114,34,1,RAZOR,HB,old,m,./images/RAZORHB.png,,,,,,,,,,,,,,,,,,,,,,,,,,,,,,,,,
,,,,,,,,,,,,,,,,,,23,2022-02-12_17h23.36.178,lexical_decision_task_DD_L4,2021.2.3,iPhone,58.82352941,,,,,,,,,,0.923,1,,,,,,,,,,,,,,,0,0.333043478,-0.32,1,0,0,0.923,button_right_main,0.333043478,-0.32,1,0,0,,0,115,115,28,1,CASINO,HB,old,m,./images/CASINOHB.png,,,,,,,,,,,,,,,,,,,,,,,,,,,,,,,,,
,,,,,,,,,,,,,,,,,,23,2022-02-12_17h23.36.178,lexical_decision_task_DD_L4,2021.2.3,iPhone,58.82352941,,,,,,,,,,0.659,1,,,,,,,,,,,,,,,0,0.34,-0.32,1,0,0,0.659,button_right_main,0.34,-0.32,1,0,0,,0,116,116,77,1,WHEEL,LB,old,m,./images/WHEELLB.png,,,,,,,,,,,,,,,,,,,,,,,,,,,,,,,,,
,,,,,,,,,,,,,,,,,,23,2022-02-12_17h23.36.178,lexical_decision_task_DD_L4,2021.2.3,iPhone,58.82352941,,,,,,,,,,1.188,1,,,,,,,,,,,,,,,0,0.355652174,-0.293913043,1,0,0,1.188,button_right_main,0.355652174,-0.293913043,1,0,0,,0,117,117,19,1,DONKEY,HB,old,m,./images/DONKEYHB.png,,,,,,,,,,,,,,,,,,,,,,,,,,,,,,,,,
,,,,,,,,,,,,,,,,,,23,2022-02-12_17h23.36.178,lexical_decision_task_DD_L4,2021.2.3,iPhone,58.82352941,,,,,,,,,,0.816,1,,,,,,,,,,,,,,,0,0.366086957,-0.307826087,1,0,0,0.816,button_right_main,0.366086957,-0.307826087,1,0,0,,0,118,118,12,1,BLOKE,C,old,m,./images/BLOKE.png,,,,,,,,,,,,,,,,,,,,,,,,,,,,,,,,,
,,,,,,,,,,,,,,,,,,23,2022-02-12_17h23.36.178,lexical_decision_task_DD_L4,2021.2.3,iPhone,58.82352941,,,,,,,,,,0.616,1,,,,,,,,,,,,,,,0,0.331304348,-0.349565217,1,0,0,0.616,button_right_main,0.331304348,-0.349565217,1,0,0,,0,119,119,39,1,CANDY,C,old,m,./images/CANDY.png,,,,,,,,,,,,,,,,,,,,,,,,,,,,,,,,,
,,,,,,,,,,,,,,,,,,23,2022-02-12_17h23.36.178,lexical_decision_task_DD_L4,2021.2.3,iPhone,58.82352941,,,,,,,,,,0.624,1,,,,,,,,,,,,,,,0,0.346956522,-0.351304348,1,0,0,0.624,button_right_main,0.346956522,-0.351304348,1,0,0,,0,120,120,35,1,LLAMA,LB,old,m,./images/LLAMALB.png,,,,,,,,,,,,,,,,,,,,,,,,,,,,,,,,,
,,,,,,,,,,,,,,,,,,23,2022-02-12_17h23.36.178,lexical_decision_task_DD_L4,2021.2.3,iPhone,58.82352941,,,,,,,,,,0.898,1,,,,,,,,,,,,,,,0,-0.306956522,-0.351304348,1,0,0,0.898,button_left_main,-0.306956522,-0.351304348,1,0,0,,0,121,121,85,1,CHULK,HB,old,z,./images/CHULKHB.png,,,,,,,,,,,,,,,,,,,,,,,,,,,,,,,,,
,,,,,,,,,,,,,,,,,,23,2022-02-12_17h23.36.178,lexical_decision_task_DD_L4,2021.2.3,iPhone,58.82352941,,,,,,,,,,0.808,1,,,,,,,,,,,,,,,0,-0.25826087,-0.356521739,1,0,0,0.808,button_left_main,-0.25826087,-0.356521739,1,0,0,,0,122,122,98,1,BAMPS,LB,old,z,./images/BAMPSLB.png,,,,,,,,,,,,,,,,,,,,,,,,,,,,,,,,,
,,,,,,,,,,,,,,,,,,23,2022-02-12_17h23.36.178,lexical_decision_task_DD_L4,2021.2.3,iPhone,58.82352941,,,,,,,,,,0.683,1,,,,,,,,,,,,,,,0,-0.34,-0.307826087,1,0,0,0.683,button_left_main,-0.34,-0.307826087,1,0,0,,0,123,123,147,1,ZOLES,C,old,z,./images/ZOLES.png,,,,,,,,,,,,,,,,,,,,,,,,,,,,,,,,,
,,,,,,,,,,,,,,,,,,23,2022-02-12_17h23.36.178,lexical_decision_task_DD_L4,2021.2.3,iPhone,58.82352941,,,,,,,,,,0.658,1,,,,,,,,,,,,,,,0,0.390434783,-0.394782609,1,0,0,0.658,button_right_main,0.390434783,-0.394782609,1,0,0,,0,124,124,73,1,GLOVE,HB,old,m,./images/GLOVEHB.png,,,,,,,,,,,,,,,,,,,,,,,,,,,,,,,,,
,,,,,,,,,,,,,,,,,,23,2022-02-12_17h23.36.178,lexical_decision_task_DD_L4,2021.2.3,iPhone,58.82352941,,,,,,,,,,0.717,1,,,,,,,,,,,,,,,0,-0.312173913,-0.346086957,1,0,0,0.717,button_left_main,0.105217391,-0.40173913,1,0,0,,0,125,125,108,1,GRUET,C,old,z,./images/GRUET.png,break_done_button,,,,,,,,,,,,,,,,,,,,,,,,,,,,,,,,
,,,,,,,,,,,,,,,,,,23,2022-02-12_17h23.36.178,lexical_decision_task_DD_L4,2021.2.3,iPhone,58.82352941,,,,,,,,,,0.89,1,,,,,,,,,,,,,,,0,-0.305217391,-0.387826087,1,0,0,0.89,button_left_main,-0.305217391,-0.387826087,1,0,0,,0,126,126,151,1,TINKY,HB,old,z,./images/TINKYHB.png,,,,,,,,,,,,,,,,,,,,,,,,,,,,,,,,,
,,,,,,,,,,,,,,,,,,23,2022-02-12_17h23.36.178,lexical_decision_task_DD_L4,2021.2.3,iPhone,58.82352941,,,,,,,,,,0.641,1,,,,,,,,,,,,,,,0,0.399130435,-0.292173913,1,0,0,0.641,button_right_main,0.399130435,-0.292173913,1,0,0,,0,127,127,44,1,BASKET,LB,old,m,./images/BASKETLB.png,,,,,,,,,,,,,,,,,,,,,,,,,,,,,,,,,
,,,,,,,,,,,,,,,,,,23,2022-02-12_17h23.36.178,lexical_decision_task_DD_L4,2021.2.3,iPhone,58.82352941,,,,,,,,,,0.95,1,,,,,,,,,,,,,,,0,-0.233913043,-0.328695652,1,0,0,0.95,button_left_main,-0.233913043,-0.328695652,1,0,0,,0,128,128,109,1,BURGE,HB,old,z,./images/BURGEHB.png,,,,,,,,,,,,,,,,,,,,,,,,,,,,,,,,,
,,,,,,,,,,,,,,,,,,23,2022-02-12_17h23.36.178,lexical_decision_task_DD_L4,2021.2.3,iPhone,58.82352941,,,,,,,,,,1.134,1,,,,,,,,,,,,,,,0,0.324347826,-0.299130435,1,0,0,1.134,button_right_main,0.324347826,-0.299130435,1,0,0,,0,129,129,64,1,BRIDE,HB,old,m,./images/BRIDEHB.png,,,,,,,,,,,,,,,,,,,,,,,,,,,,,,,,,
,,,,,,,,,,,,,,,,,,23,2022-02-12_17h23.36.178,lexical_decision_task_DD_L4,2021.2.3,iPhone,58.82352941,,,,,,,,,,0.783,1,,,,,,,,,,,,,,,0,-0.279130435,-0.306086957,1,0,0,0.783,button_left_main,-0.279130435,-0.306086957,1,0,0,,0,130,130,144,1,NAIRY,C,old,z,./images/NAIRY.png,,,,,,,,,,,,,,,,,,,,,,,,,,,,,,,,,
,,,,,,,,,,,,,,,,,,23,2022-02-12_17h23.36.178,lexical_decision_task_DD_L4,2021.2.3,iPhone,58.82352941,,,,,,,,,,0.768,1,,,,,,,,,,,,,,,0,-0.240869565,-0.325217391,1,0,0,0.768,button_left_main,-0.240869565,-0.325217391,1,0,0,,0,131,131,126,1,GUELS,C,old,z,./images/GUELS.png,,,,,,,,,,,,,,,,,,,,,,,,,,,,,,,,,
,,,,,,,,,,,,,,,,,,23,2022-02-12_17h23.36.178,lexical_decision_task_DD_L4,2021.2.3,iPhone,58.82352941,,,,,,,,,,0.783,1,,,,,,,,,,,,,,,0,-0.272173913,-0.285217391,1,0,0,0.783,button_left_main,-0.272173913,-0.285217391,1,0,0,,0,132,132,155,1,CANGY,LB,old,z,./images/CANGYLB.png,,,,,,,,,,,,,,,,,,,,,,,,,,,,,,,,,
,,,,,,,,,,,,,,,,,,23,2022-02-12_17h23.36.178,lexical_decision_task_DD_L4,2021.2.3,iPhone,58.82352941,,,,,,,,,,0.735,1,,,,,,,,,,,,,,,0,0.374782609,-0.260869565,1,0,0,0.735,button_right_main,0.374782609,-0.260869565,1,0,0,,0,133,133,80,1,PLANET,LB,old,m,./images/PLANETLB.png,,,,,,,,,,,,,,,,,,,,,,,,,,,,,,,,,
,,,,,,,,,,,,,,,,,,23,2022-02-12_17h23.36.178,lexical_decision_task_DD_L4,2021.2.3,iPhone,58.82352941,,,,,,,,,,0.707,1,,,,,,,,,,,,,,,0,-0.263478261,-0.311304348,1,0,0,0.707,button_left_main,-0.263478261,-0.311304348,1,0,0,,0,134,134,134,1,TROSS,LB,old,z,./images/TROSSLB.png,,,,,,,,,,,,,,,,,,,,,,,,,,,,,,,,,
,,,,,,,,,,,,,,,,,,23,2022-02-12_17h23.36.178,lexical_decision_task_DD_L4,2021.2.3,iPhone,58.82352941,,,,,,,,,,0.701,1,,,,,,,,,,,,,,,0,-0.237391304,-0.297391304,1,0,0,0.701,button_left_main,-0.237391304,-0.297391304,1,0,0,,0,135,135,125,1,MOOKY,LB,old,z,./images/MOOKYLB.png,,,,,,,,,,,,,,,,,,,,,,,,,,,,,,,,,
,,,,,,,,,,,,,,,,,,23,2022-02-12_17h23.36.178,lexical_decision_task_DD_L4,2021.2.3,iPhone,58.82352941,,,,,,,,,,0.64,1,,,,,,,,,,,,,,,0,0.411304348,-0.356521739,1,0,0,0.64,button_right_main,0.411304348,-0.356521739,1,0,0,,0,136,136,21,1,DANCER,C,old,m,./images/DANCER.png,,,,,,,,,,,,,,,,,,,,,,,,,,,,,,,,,
,,,,,,,,,,,,,,,,,,23,2022-02-12_17h23.36.178,lexical_decision_task_DD_L4,2021.2.3,iPhone,58.82352941,,,,,,,,,,0.7,1,,,,,,,,,,,,,,,0,0.449565217,-0.333913043,1,0,0,0.7,button_right_main,0.449565217,-0.333913043,1,0,0,,0,137,137,17,1,PARADE,LB,old,m,./images/PARADELB.png,,,,,,,,,,,,,,,,,,,,,,,,,,,,,,,,,
,,,,,,,,,,,,,,,,,,23,2022-02-12_17h23.36.178,lexical_decision_task_DD_L4,2021.2.3,iPhone,58.82352941,,,,,,,,,,0.784,1,,,,,,,,,,,,,,,0,-0.25826087,-0.292173913,1,0,0,0.784,button_left_main,-0.25826087,-0.292173913,1,0,0,,0,138,138,92,1,PAIMS,LB,old,z,./images/PAIMSLB.png,,,,,,,,,,,,,,,,,,,,,,,,,,,,,,,,,
,,,,,,,,,,,,,,,,,,23,2022-02-12_17h23.36.178,lexical_decision_task_DD_L4,2021.2.3,iPhone,58.82352941,,,,,,,,,,0.885,1,,,,,,,,,,,,,,,0,-0.25826087,-0.300869565,1,0,0,0.885,button_left_main,-0.25826087,-0.300869565,1,0,0,,0,139,139,159,1,CUDDY,C,old,z,./images/CUDDY.png,,,,,,,,,,,,,,,,,,,,,,,,,,,,,,,,,
,,,,,,,,,,,,,,,,,,23,2022-02-12_17h23.36.178,lexical_decision_task_DD_L4,2021.2.3,iPhone,58.82352941,,,,,,,,,,0.817,1,,,,,,,,,,,,,,,0,-0.315652174,-0.290434783,1,0,0,0.817,button_left_main,-0.315652174,-0.290434783,1,0,0,,0,140,140,138,1,PLICE,C,old,z,./images/PLICE.png,,,,,,,,,,,,,,,,,,,,,,,,,,,,,,,,,
,,,,,,,,,,,,,,,,,,23,2022-02-12_17h23.36.178,lexical_decision_task_DD_L4,2021.2.3,iPhone,58.82352941,,,,,,,,,,0.867,1,,,,,,,,,,,,,,,0,0.402608696,-0.328695652,1,0,0,0.867,button_right_main,0.402608696,-0.328695652,1,0,0,,0,141,141,3,1,CRATER,C,old,m,./images/CRATER.png,,,,,,,,,,,,,,,,,,,,,,,,,,,,,,,,,
,,,,,,,,,,,,,,,,,,23,2022-02-12_17h23.36.178,lexical_decision_task_DD_L4,2021.2.3,iPhone,58.82352941,,,,,,,,,,0.751,1,,,,,,,,,,,,,,,0,0.385217391,-0.351304348,1,0,0,0.751,button_right_main,0.385217391,-0.351304348,1,0,0,,0,142,142,43,1,STOOL,HB,old,m,./images/STOOLHB.png,,,,,,,,,,,,,,,,,,,,,,,,,,,,,,,,,
,,,,,,,,,,,,,,,,,,23,2022-02-12_17h23.36.178,lexical_decision_task_DD_L4,2021.2.3,iPhone,58.82352941,,,,,,,,,,0.69,1,,,,,,,,,,,,,,,0,0.376521739,-0.314782609,1,0,0,0.69,button_right_main,0.376521739,-0.314782609,1,0,0,,0,143,143,68,1,VALLEY,LB,old,m,./images/VALLEYLB.png,,,,,,,,,,,,,,,,,,,,,,,,,,,,,,,,,
,,,,,,,,,,,,,,,,,,23,2022-02-12_17h23.36.178,lexical_decision_task_DD_L4,2021.2.3,iPhone,58.82352941,,,,,,,,,,0.706,1,,,,,,,,,,,,,,,0,0.369565217,-0.32173913,1,0,0,0.706,button_right_main,0.369565217,-0.32173913,1,0,0,,0,144,144,15,1,COLLAR,C,old,m,./images/COLLAR.png,,,,,,,,,,,,,,,,,,,,,,,,,,,,,,,,,
,,,,,,,,,,,,,,,,,,23,2022-02-12_17h23.36.178,lexical_decision_task_DD_L4,2021.2.3,iPhone,58.82352941,,,,,,,,,,0.775,1,,,,,,,,,,,,,,,0,-0.317391304,-0.316521739,1,0,0,0.775,button_left_main,-0.317391304,-0.316521739,1,0,0,,0,145,145,143,1,MONGS,LB,old,z,./images/MONGSLB.png,,,,,,,,,,,,,,,,,,,,,,,,,,,,,,,,,
,,,,,,,,,,,,,,,,,,23,2022-02-12_17h23.36.178,lexical_decision_task_DD_L4,2021.2.3,iPhone,58.82352941,,,,,,,,,,0.766,1,,,,,,,,,,,,,,,0,-0.268695652,-0.302608696,1,0,0,0.766,button_left_main,-0.268695652,-0.302608696,1,0,0,,0,146,146,96,1,KEAMS,C,old,z,./images/KEAMS.png,,,,,,,,,,,,,,,,,,,,,,,,,,,,,,,,,
,,,,,,,,,,,,,,,,,,23,2022-02-12_17h23.36.178,lexical_decision_task_DD_L4,2021.2.3,iPhone,58.82352941,,,,,,,,,,0.958,1,,,,,,,,,,,,,,,0,-0.244347826,-0.332173913,1,0,0,0.958,button_left_main,-0.244347826,-0.332173913,1,0,0,,0,147,147,118,1,BAVEL,HB,old,z,./images/BAVELHB.png,,,,,,,,,,,,,,,,,,,,,,,,,,,,,,,,,
,,,,,,,,,,,,,,,,,,23,2022-02-12_17h23.36.178,lexical_decision_task_DD_L4,2021.2.3,iPhone,58.82352941,,,,,,,,,,0.801,1,,,,,,,,,,,,,,,0,-0.244347826,-0.344347826,1,0,0,0.801,button_left_main,-0.244347826,-0.344347826,1,0,0,,0,148,148,110,1,CRUNK,LB,old,z,./images/CRUNKLB.png,,,,,,,,,,,,,,,,,,,,,,,,,,,,,,,,,
,,,,,,,,,,,,,,,,,,23,2022-02-12_17h23.36.178,lexical_decision_task_DD_L4,2021.2.3,iPhone,58.82352941,,,,,,,,,,0.766,1,,,,,,,,,,,,,,,0,0.346956522,-0.325217391,1,0,0,0.766,button_right_main,0.346956522,-0.325217391,1,0,0,,0,149,149,33,1,SAUNA,C,old,m,./images/SAUNA.png,,,,,,,,,,,,,,,,,,,,,,,,,,,,,,,,,
,,,,,,,,,,,,,,,,,,23,2022-02-12_17h23.36.178,lexical_decision_task_DD_L4,2021.2.3,iPhone,58.82352941,,,,,,,,,,0.641,1,,,,,,,,,,,,,,,0,0.392173913,-0.300869565,1,0,0,0.641,button_right_main,0.392173913,-0.300869565,1,0,0,,0,150,150,54,1,CHERRY,C,old,m,./images/CHERRY.png,,,,,,,,,,,,,,,,,,,,,,,,,,,,,,,,,
,,,,,,,,,,,,,,,,,,23,2022-02-12_17h23.36.178,lexical_decision_task_DD_L4,2021.2.3,iPhone,58.82352941,,,,,,,,,,0.65,1,,,,,,,,,,,,,,,0,0.343478261,-0.295652174,1,0,0,0.65,button_right_main,0.343478261,-0.295652174,1,0,0,,0,151,151,26,1,CLOUD,LB,old,m,./images/CLOUDLB.png,,,,,,,,,,,,,,,,,,,,,,,,,,,,,,,,,
,,,,,,,,,,,,,,,,,,23,2022-02-12_17h23.36.178,lexical_decision_task_DD_L4,2021.2.3,iPhone,58.82352941,,,,,,,,,,0.651,1,,,,,,,,,,,,,,,0,0.312173913,-0.339130435,1,0,0,0.651,button_right_main,0.312173913,-0.339130435,1,0,0,,0,152,152,23,1,CLOTH,LB,old,m,./images/CLOTHLB.png,,,,,,,,,,,,,,,,,,,,,,,,,,,,,,,,,
,,,,,,,,,,,,,,,,,,23,2022-02-12_17h23.36.178,lexical_decision_task_DD_L4,2021.2.3,iPhone,58.82352941,,,,,,,,,,0.692,1,,,,,,,,,,,,,,,0,-0.333043478,-0.36,1,0,0,0.692,button_left_main,-0.333043478,-0.36,1,0,0,,0,153,153,119,1,PAFER,LB,old,z,./images/PAFERLB.png,,,,,,,,,,,,,,,,,,,,,,,,,,,,,,,,,
,,,,,,,,,,,,,,,,,,23,2022-02-12_17h23.36.178,lexical_decision_task_DD_L4,2021.2.3,iPhone,58.82352941,,,,,,,,,,0.891,1,,,,,,,,,,,,,,,0,-0.291304348,-0.32,1,0,0,0.891,button_left_main,-0.291304348,-0.32,1,0,0,,0,154,154,112,1,MYING,HB,old,z,./images/MYINGHB.png,,,,,,,,,,,,,,,,,,,,,,,,,,,,,,,,,
,,,,,,,,,,,,,,,,,,23,2022-02-12_17h23.36.178,lexical_decision_task_DD_L4,2021.2.3,iPhone,58.82352941,,,,,,,,,,0.734,1,,,,,,,,,,,,,,,0,0.37826087,-0.306086957,1,0,0,0.734,button_right_main,0.37826087,-0.306086957,1,0,0,,0,155,155,69,1,ARROW,C,old,m,./images/ARROW.png,,,,,,,,,,,,,,,,,,,,,,,,,,,,,,,,,
,,,,,,,,,,,,,,,,,,23,2022-02-12_17h23.36.178,lexical_decision_task_DD_L4,2021.2.3,iPhone,58.82352941,,,,,,,,,,0.724,1,,,,,,,,,,,,,,,0,0.343478261,-0.339130435,1,0,0,0.724,button_right_main,0.343478261,-0.339130435,1,0,0,,0,156,156,72,1,FLASK,C,old,m,./images/FLASK.png,,,,,,,,,,,,,,,,,,,,,,,,,,,,,,,,,
,,,,,,,,,,,,,,,,,,23,2022-02-12_17h23.36.178,lexical_decision_task_DD_L4,2021.2.3,iPhone,58.82352941,,,,,,,,,,0.717,1,,,,,,,,,,,,,,,0,0.343478261,-0.285217391,1,0,0,0.717,button_right_main,0.343478261,-0.285217391,1,0,0,,0,157,157,75,1,HAMMER,C,old,m,./images/HAMMER.png,,,,,,,,,,,,,,,,,,,,,,,,,,,,,,,,,
,,,,,,,,,,,,,,,,,,23,2022-02-12_17h23.36.178,lexical_decision_task_DD_L4,2021.2.3,iPhone,58.82352941,,,,,,,,,,0.665,1,,,,,,,,,,,,,,,0,0.327826087,-0.370434783,1,0,0,0.665,button_right_main,0.327826087,-0.370434783,1,0,0,,0,158,158,0,1,WALNUT,C,old,m,./images/WALNUT.png,,,,,,,,,,,,,,,,,,,,,,,,,,,,,,,,,
,,,,,,,,,,,,,,,,,,23,2022-02-12_17h23.36.178,lexical_decision_task_DD_L4,2021.2.3,iPhone,58.82352941,,,,,,,,,,0.765,1,,,,,,,,,,,,,,,0,-0.303478261,-0.314782609,1,0,0,0.765,button_left_main,-0.303478261,-0.314782609,1,0,0,,0,159,159,162,1,LEICH,C,old,z,./images/LEICH.png,,,,,,,,,,,,,,,,,,,,,,,,,,,,,,,,,
,,,,,,,,,,,,,,,,,,23,2022-02-12_17h23.36.178,lexical_decision_task_DD_L4,2021.2.3,iPhone,58.82352941,,,,,,,,,,0.708,1,,,,,,,,,,,,,,,0,0.360869565,-0.297391304,1,0,0,0.708,button_right_main,0.360869565,-0.297391304,1,0,0,,0,160,160,42,1,CHAIN,C,old,m,./images/CHAIN.png,,,,,,,,,,,,,,,,,,,,,,,,,,,,,,,,,
,,,,,,,,,,,,,,,,,,23,2022-02-12_17h23.36.178,lexical_decision_task_DD_L4,2021.2.3,iPhone,58.82352941,,,,,,,,,,0.857,1,,,,,,,,,,,,,,,0,-0.272173913,-0.314782609,1,0,0,0.857,button_left_main,-0.272173913,-0.314782609,1,0,0,,0,161,161,97,1,CHIDS,HB,old,z,./images/CHIDSHB.png,,,,,,,,,,,,,,,,,,,,,,,,,,,,,,,,,
,,,,,,,,,,,,,,,,,,23,2022-02-12_17h23.36.178,lexical_decision_task_DD_L4,2021.2.3,iPhone,58.82352941,,,,,,,,,,0.934,0,,,,,,,,,,,,,,,0,-0.249565217,-0.292173913,1,0,0,0.934,button_left_main,-0.249565217,-0.292173913,1,0,0,,0,162,162,76,1,MIDGET,HB,old,m,./images/MIDGETHB.png,,,,,,,,,,,,,,,,,,,,,,,,,,,,,,,,,
,,,,,,,,,,,,,,,,,,23,2022-02-12_17h23.36.178,lexical_decision_task_DD_L4,2021.2.3,iPhone,58.82352941,,,,,,,,,,1.016,1,,,,,,,,,,,,,,,0,-0.253043478,-0.316521739,1,0,0,1.016,button_left_main,-0.253043478,-0.316521739,1,0,0,,0,163,163,95,1,HANTY,LB,old,z,./images/HANTYLB.png,,,,,,,,,,,,,,,,,,,,,,,,,,,,,,,,,
,,,,,,,,,,,,,,,,,,23,2022-02-12_17h23.36.178,lexical_decision_task_DD_L4,2021.2.3,iPhone,58.82352941,,,,,,,,,,0.666,1,,,,,,,,,,,,,,,0,0.345217391,-0.363478261,1,0,0,0.666,button_right_main,0.345217391,-0.363478261,1,0,0,,0,164,164,38,1,ENGINE,LB,old,m,./images/ENGINELB.png,,,,,,,,,,,,,,,,,,,,,,,,,,,,,,,,,
,,,,,,,,,,,,,,,,,,23,2022-02-12_17h23.36.178,lexical_decision_task_DD_L4,2021.2.3,iPhone,58.82352941,,,,,,,,,,0.803,1,,,,,,,,,,,,,,,0,0.246086957,-0.27826087,1,0,0,0.803,button_right_main,0.246086957,-0.27826087,1,0,0,,0,165,165,24,1,FLESH,C,old,m,./images/FLESH.png,,,,,,,,,,,,,,,,,,,,,,,,,,,,,,,,,
,,,,,,,,,,,,,,,,,,23,2022-02-12_17h23.36.178,lexical_decision_task_DD_L4,2021.2.3,iPhone,58.82352941,,,,,,,,,,0.823,1,,,,,,,,,,,,,,,0,-0.284347826,-0.304347826,1,0,0,0.823,button_left_main,-0.284347826,-0.304347826,1,0,0,,0,166,166,90,1,NEAST,C,old,z,./images/NEAST.png,,,,,,,,,,,,,,,,,,,,,,,,,,,,,,,,,
,,,,,,,,,,,,,,,,,,23,2022-02-12_17h23.36.178,lexical_decision_task_DD_L4,2021.2.3,iPhone,58.82352941,,,,,,,,,,0.851,1,,,,,,,,,,,,,,,0,0.317391304,-0.335652174,1,0,0,0.851,button_right_main,0.317391304,-0.335652174,1,0,0,,0,167,167,52,1,DESERT,HB,old,m,./images/DESERTHB.png,,,,,,,,,,,,,,,,,,,,,,,,,,,,,,,,,
,,,,,,,,,,,,,,,,,,23,2022-02-12_17h23.36.178,lexical_decision_task_DD_L4,2021.2.3,iPhone,58.82352941,,,,,,,,,,,,,,,,,,,,,,,,,,,,,,,,,,,,,,,,,,,,,,How likely will it be that you will recognize the words presented clearly on a scale of 0 (not likely) to 100 (most likely)?,,,,,-0.007826087,-0.434782609,1,0,0,jol_adv,6,18.6,0,0,0,0,1,,,,,,,,,,,,,,,,,,,
,,,,,,,,,,,,,,,,,,23,2022-02-12_17h23.36.178,lexical_decision_task_DD_L4,2021.2.3,iPhone,58.82352941,,,,,,,,,,,,,,,,,,,,,,,,,,,,,,,,,,,,,,,,,,,,,,How likely will it be that you will recognize the words presented slighly blurred on a scale of 0 (not likely) to 100 (most likely)?,,,,,,,,,,,6,1.52,0,1,1,1,1,,,,,,,,,,,,,,,,,,,
,,,,,,,,,,,,,,,,,,23,2022-02-12_17h23.36.178,lexical_decision_task_DD_L4,2021.2.3,iPhone,58.82352941,,,,,,,,,,,,,,,,,,,,,,,,,,,,,,,,,,,,,,,,,,,,,,How likely will it be that you will recognize the words presented very blurred on a scale of 0 (not likely) to 100 (most likely)?,,,,,,,,,,,2,7.958,0,2,2,2,1,,,,,,,,,,,,,,,,,,,
,0.131304348,-0.414782609,1,0,0,instr_done_button,,,,,,1,test,"In the next phase you will be presented with the words from the the first phase. Your job is to decide whether you remember seeing the word or not. If you remember seeing the word press ""old"" or type ""m"". If you do not remember seeing the word press ""new"" or type ""z"". Please press the space bar or click on continue to begin. ",,,,23,2022-02-12_17h23.36.178,lexical_decision_task_DD_L4,2021.2.3,iPhone,58.82352941,,,,,,,,,,,,,,,,,,,,,,,,,,,,,,,,,,,,,,,,,,,,,,,,,,,,,,,,,,,,,,,,0,0,0,0,1,,,,,,,,,,,,,,
,0.063478261,-0.413043478,1,0,0,instr_done_button,,,,,,1,test,"In the next phase you will be presented with the words from the the first phase. Your job is to decide whether you remember seeing the word or not. If you remember seeing the word press ""old"" or type ""m"". If you do not remember seeing the word press ""new"" or type ""z"". Please press the space bar or click on continue to begin. ",,,,23,2022-02-12_17h23.36.178,lexical_decision_task_DD_L4,2021.2.3,iPhone,58.82352941,,,,,,,,,,,,,,,,,,,,,,,,,,,,,,,,,,,,,,,,,,,,,,,,,,,,,,,,,,,,,,,,1,0,1,0,1,,,,,,,,,,,,,,
,0.054782609,-0.414782609,1,0,0,instr_done_button,,,,,,1,test,"In the next phase you will be presented with the words from the the first phase. Your job is to decide whether you remember seeing the word or not. If you remember seeing the word press ""old"" or type ""m"". If you do not remember seeing the word press ""new"" or type ""z"". Please press the space bar or click on continue to begin. ",,,,23,2022-02-12_17h23.36.178,lexical_decision_task_DD_L4,2021.2.3,iPhone,58.82352941,,,,,,,,,,,,,,,,,,,,,,,,,,,,,,,,,,,,,,,,,,,,,,,,,,,,,,,,,,,,,,,,2,0,2,0,1,,,,,,,,,,,,,,
,-0.013043478,-0.367826087,1,0,0,instr_done_button,,,,,,1,test,"In the next phase you will be presented with the words from the the first phase. Your job is to decide whether you remember seeing the word or not. If you remember seeing the word press ""old"" or type ""m"". If you do not remember seeing the word press ""new"" or type ""z"". Please press the space bar or click on continue to begin. ",,,,23,2022-02-12_17h23.36.178,lexical_decision_task_DD_L4,2021.2.3,iPhone,58.82352941,,,,,,,,,,,,,,,,,,,,,,,,,,,,,,,,,,,,,,,,,,,,,,,,,,,,,,,,,,,,,,,,3,0,3,0,1,,,,,,,,,,,,,,
,0.007826087,-0.400869565,1,0,0,instr_done_button,,,,,,1,test,"In the next phase you will be presented with the words from the the first phase. Your job is to decide whether you remember seeing the word or not. If you remember seeing the word press ""old"" or type ""m"". If you do not remember seeing the word press ""new"" or type ""z"". Please press the space bar or click on continue to begin. ",,,,23,2022-02-12_17h23.36.178,lexical_decision_task_DD_L4,2021.2.3,iPhone,58.82352941,,,,,,,,,,,,,,,,,,,,,,,,,,,,,,,,,,,,,,,,,,,,,,,,,,,,,,,,,,,,,,,,4,0,4,0,1,,,,,,,,,,,,,,
,,,,,,,,,,,,,,,,,,23,2022-02-12_17h23.36.178,lexical_decision_task_DD_L4,2021.2.3,iPhone,58.82352941,,,,,,,,,,1.402,1,,,,,,,,,,,,,,,,,,,,,,,0.327826087,-0.293043478,1,0,0,,,,,,,FLESH,C,m,y,./images/FLESH.png,,,,,,,,,,,,,,,,,,,,,0,0.327826087,-0.293043478,1,0,0,1.402,button_right_test,0,0,0,24,1
,,,,,,,,,,,,,,,,,,23,2022-02-12_17h23.36.178,lexical_decision_task_DD_L4,2021.2.3,iPhone,58.82352941,,,,,,,,,,0.833,1,,,,,,,,,,,,,,,,,,,,,,,0.37826087,-0.306956522,1,0,0,,,,,,,MONKEY,C,m,y,./images/MONKEY.png,,,,,,,,,,,,,,,,,,,,,0,0.37826087,-0.306956522,1,0,0,0.833,button_right_test,0,1,1,45,1
,,,,,,,,,,,,,,,,,,23,2022-02-12_17h23.36.178,lexical_decision_task_DD_L4,2021.2.3,iPhone,58.82352941,,,,,,,,,,0.75,1,,,,,,,,,,,,,,,,,,,,,,,0.343478261,-0.333043478,1,0,0,,,,,,,CLIFF,LB,m,y,./images/CLIFFLB.png,,,,,,,,,,,,,,,,,,,,,0,0.343478261,-0.333043478,1,0,0,0.75,button_right_test,0,2,2,8,1
,,,,,,,,,,,,,,,,,,23,2022-02-12_17h23.36.178,lexical_decision_task_DD_L4,2021.2.3,iPhone,58.82352941,,,,,,,,,,0.839,1,,,,,,,,,,,,,,,,,,,,,,,-0.315652174,-0.350434783,1,0,0,,,,,,,SPORT,C,z,y,./images/SPORT.png,,,,,,,,,,,,,,,,,,,,,0,-0.315652174,-0.350434783,1,0,0,0.839,button_left_test,0,3,3,132,1
,,,,,,,,,,,,,,,,,,23,2022-02-12_17h23.36.178,lexical_decision_task_DD_L4,2021.2.3,iPhone,58.82352941,,,,,,,,,,0.766,1,,,,,,,,,,,,,,,,,,,,,,,0.355652174,-0.313913043,1,0,0,,,,,,,BAKER,C,m,y,./images/BAKER.png,,,,,,,,,,,,,,,,,,,,,0,0.355652174,-0.313913043,1,0,0,0.766,button_right_test,0,4,4,63,1
,,,,,,,,,,,,,,,,,,23,2022-02-12_17h23.36.178,lexical_decision_task_DD_L4,2021.2.3,iPhone,58.82352941,,,,,,,,,,0.849,1,,,,,,,,,,,,,,,,,,,,,,,0.392173913,-0.312173913,1,0,0,,,,,,,TIGER,HB,m,y,./images/TIGERHB.png,,,,,,,,,,,,,,,,,,,,,0,0.392173913,-0.312173913,1,0,0,0.849,button_right_test,0,5,5,37,1
,,,,,,,,,,,,,,,,,,23,2022-02-12_17h23.36.178,lexical_decision_task_DD_L4,2021.2.3,iPhone,58.82352941,,,,,,,,,,0.841,1,,,,,,,,,,,,,,,,,,,,,,,-0.286086957,-0.312173913,1,0,0,,,,,,,DRUMS,HB,z,y,./images/DRUMSHB.png,,,,,,,,,,,,,,,,,,,,,0,-0.286086957,-0.312173913,1,0,0,0.841,button_left_test,0,6,6,133,1
,,,,,,,,,,,,,,,,,,23,2022-02-12_17h23.36.178,lexical_decision_task_DD_L4,2021.2.3,iPhone,58.82352941,,,,,,,,,,0.798,1,,,,,,,,,,,,,,,,,,,,,,,0.364347826,-0.313913043,1,0,0,,,,,,,LLAMA,LB,m,y,./images/LLAMALB.png,,,,,,,,,,,,,,,,,,,,,0,0.364347826,-0.313913043,1,0,0,0.798,button_right_test,0,7,7,35,1
,,,,,,,,,,,,,,,,,,23,2022-02-12_17h23.36.178,lexical_decision_task_DD_L4,2021.2.3,iPhone,58.82352941,,,,,,,,,,0.856,1,,,,,,,,,,,,,,,,,,,,,,,0.352173913,-0.312173913,1,0,0,,,,,,,WHEEL,LB,m,y,./images/WHEELLB.png,,,,,,,,,,,,,,,,,,,,,0,0.352173913,-0.312173913,1,0,0,0.856,button_right_test,0,8,8,77,1
,,,,,,,,,,,,,,,,,,23,2022-02-12_17h23.36.178,lexical_decision_task_DD_L4,2021.2.3,iPhone,58.82352941,,,,,,,,,,0.731,1,,,,,,,,,,,,,,,,,,,,,,,0.371304348,-0.270434783,1,0,0,,,,,,,CHALK,HB,m,y,./images/CHALKHB.png,,,,,,,,,,,,,,,,,,,,,0,0.371304348,-0.270434783,1,0,0,0.731,button_right_test,0,9,9,25,1
,,,,,,,,,,,,,,,,,,23,2022-02-12_17h23.36.178,lexical_decision_task_DD_L4,2021.2.3,iPhone,58.82352941,,,,,,,,,,0.772,1,,,,,,,,,,,,,,,,,,,,,,,0.369565217,-0.317391304,1,0,0,,,,,,,BRUSH,LB,m,y,./images/BRUSHLB.png,,,,,,,,,,,,,,,,,,,,,0,0.369565217,-0.317391304,1,0,0,0.772,button_right_test,0,10,10,59,1
,,,,,,,,,,,,,,,,,,23,2022-02-12_17h23.36.178,lexical_decision_task_DD_L4,2021.2.3,iPhone,58.82352941,,,,,,,,,,0.933,1,,,,,,,,,,,,,,,,,,,,,,,0.371304348,-0.256521739,1,0,0,,,,,,,ENGINE,LB,m,y,./images/ENGINELB.png,,,,,,,,,,,,,,,,,,,,,0,0.371304348,-0.256521739,1,0,0,0.933,button_right_test,0,11,11,38,1
,,,,,,,,,,,,,,,,,,23,2022-02-12_17h23.36.178,lexical_decision_task_DD_L4,2021.2.3,iPhone,58.82352941,,,,,,,,,,1.188,1,,,,,,,,,,,,,,,,,,,,,,,-0.312173913,-0.315652174,1,0,0,,,,,,,MAGGOT,C,z,y,./images/MAGGOT.png,,,,,,,,,,,,,,,,,,,,,0,-0.312173913,-0.315652174,1,0,0,1.188,button_left_test,0,12,12,117,1
,,,,,,,,,,,,,,,,,,23,2022-02-12_17h23.36.178,lexical_decision_task_DD_L4,2021.2.3,iPhone,58.82352941,,,,,,,,,,1.048,1,,,,,,,,,,,,,,,,,,,,,,,-0.294782609,-0.282608696,1,0,0,,,,,,,JAGUAR,C,z,y,./images/JAGUAR.png,,,,,,,,,,,,,,,,,,,,,0,-0.294782609,-0.282608696,1,0,0,1.048,button_left_test,0,13,13,102,1
,,,,,,,,,,,,,,,,,,23,2022-02-12_17h23.36.178,lexical_decision_task_DD_L4,2021.2.3,iPhone,58.82352941,,,,,,,,,,0.791,1,,,,,,,,,,,,,,,,,,,,,,,0.38,-0.247826087,1,0,0,,,,,,,CANDY,C,m,y,./images/CANDY.png,,,,,,,,,,,,,,,,,,,,,0,0.38,-0.247826087,1,0,0,0.791,button_right_test,0,14,14,39,1
,,,,,,,,,,,,,,,,,,23,2022-02-12_17h23.36.178,lexical_decision_task_DD_L4,2021.2.3,iPhone,58.82352941,,,,,,,,,,1.006,1,,,,,,,,,,,,,,,,,,,,,,,0.393913043,-0.296521739,1,0,0,,,,,,,DONKEY,HB,m,y,./images/DONKEYHB.png,,,,,,,,,,,,,,,,,,,,,0,0.393913043,-0.296521739,1,0,0,1.006,button_right_test,0,15,15,19,1
,,,,,,,,,,,,,,,,,,23,2022-02-12_17h23.36.178,lexical_decision_task_DD_L4,2021.2.3,iPhone,58.82352941,,,,,,,,,,0.783,1,,,,,,,,,,,,,,,,,,,,,,,0.360869565,-0.293043478,1,0,0,,,,,,,LAGOON,LB,m,y,./images/LAGOONLB.png,,,,,,,,,,,,,,,,,,,,,0,0.360869565,-0.293043478,1,0,0,0.783,button_right_test,0,16,16,47,1
,,,,,,,,,,,,,,,,,,23,2022-02-12_17h23.36.178,lexical_decision_task_DD_L4,2021.2.3,iPhone,58.82352941,,,,,,,,,,1.59,1,,,,,,,,,,,,,,,,,,,,,,,-0.360869565,-0.34,1,0,0,,,,,,,SHORE,C,z,y,./images/SHORE.png,,,,,,,,,,,,,,,,,,,,,0,-0.360869565,-0.34,1,0,0,1.59,button_left_test,0,17,17,96,1
,,,,,,,,,,,,,,,,,,23,2022-02-12_17h23.36.178,lexical_decision_task_DD_L4,2021.2.3,iPhone,58.82352941,,,,,,,,,,1.266,0,,,,,,,,,,,,,,,,,,,,,,,-0.317391304,-0.334782609,1,0,0,,,,,,,STATUE,C,m,y,./images/STATUE.png,,,,,,,,,,,,,,,,,,,,,0,-0.317391304,-0.334782609,1,0,0,1.266,button_left_test,0,18,18,66,1
,,,,,,,,,,,,,,,,,,23,2022-02-12_17h23.36.178,lexical_decision_task_DD_L4,2021.2.3,iPhone,58.82352941,,,,,,,,,,1.409,1,,,,,,,,,,,,,,,,,,,,,,,-0.326086957,-0.296521739,1,0,0,,,,,,,MALLET,LB,z,y,./images/MALLETLB.png,,,,,,,,,,,,,,,,,,,,,0,-0.326086957,-0.296521739,1,0,0,1.409,button_left_test,0,19,19,134,1
,,,,,,,,,,,,,,,,,,23,2022-02-12_17h23.36.178,lexical_decision_task_DD_L4,2021.2.3,iPhone,58.82352941,,,,,,,,,,1.275,1,,,,,,,,,,,,,,,,,,,,,,,-0.296521739,-0.305217391,1,0,0,,,,,,,PASTA,LB,z,y,./images/PASTALB.png,,,,,,,,,,,,,,,,,,,,,0,-0.296521739,-0.305217391,1,0,0,1.275,button_left_test,0,20,20,89,1
,,,,,,,,,,,,,,,,,,23,2022-02-12_17h23.36.178,lexical_decision_task_DD_L4,2021.2.3,iPhone,58.82352941,,,,,,,,,,0.773,1,,,,,,,,,,,,,,,,,,,,,,,0.414782609,-0.320869565,1,0,0,,,,,,,FLASK,C,m,y,./images/FLASK.png,,,,,,,,,,,,,,,,,,,,,0,0.414782609,-0.320869565,1,0,0,0.773,button_right_test,0,21,21,72,1
,,,,,,,,,,,,,,,,,,23,2022-02-12_17h23.36.178,lexical_decision_task_DD_L4,2021.2.3,iPhone,58.82352941,,,,,,,,,,0.723,1,,,,,,,,,,,,,,,,,,,,,,,0.334782609,-0.333043478,1,0,0,,,,,,,CHERRY,C,m,y,./images/CHERRY.png,,,,,,,,,,,,,,,,,,,,,0,0.334782609,-0.333043478,1,0,0,0.723,button_right_test,0,22,22,54,1
,,,,,,,,,,,,,,,,,,23,2022-02-12_17h23.36.178,lexical_decision_task_DD_L4,2021.2.3,iPhone,58.82352941,,,,,,,,,,0.882,1,,,,,,,,,,,,,,,,,,,,,,,-0.336521739,-0.348695652,1,0,0,,,,,,,PIMPLE,LB,z,y,./images/PIMPLELB.png,,,,,,,,,,,,,,,,,,,,,0,-0.336521739,-0.348695652,1,0,0,0.882,button_left_test,0,23,23,155,1
,,,,,,,,,,,,,,,,,,23,2022-02-12_17h23.36.178,lexical_decision_task_DD_L4,2021.2.3,iPhone,58.82352941,,,,,,,,,,0.956,0,,,,,,,,,,,,,,,,,,,,,,,0.346956522,-0.305217391,1,0,0,,,,,,,BONNET,LB,z,y,./images/BONNETLB.png,,,,,,,,,,,,,,,,,,,,,0,0.346956522,-0.305217391,1,0,0,0.956,button_right_test,0,24,24,95,1
,,,,,,,,,,,,,,,,,,23,2022-02-12_17h23.36.178,lexical_decision_task_DD_L4,2021.2.3,iPhone,58.82352941,,,,,,,,,,1.356,1,,,,,,,,,,,,,,,,,,,,,,,-0.319130435,-0.310434783,1,0,0,,,,,,,MOOSE,C,z,y,./images/MOOSE.png,,,,,,,,,,,,,,,,,,,,,0,-0.319130435,-0.310434783,1,0,0,1.356,button_left_test,0,25,25,141,1
,,,,,,,,,,,,,,,,,,23,2022-02-12_17h23.36.178,lexical_decision_task_DD_L4,2021.2.3,iPhone,58.82352941,,,,,,,,,,0.901,1,,,,,,,,,,,,,,,,,,,,,,,0.350434783,-0.305217391,1,0,0,,,,,,,PILOT,LB,m,y,./images/PILOTLB.png,,,,,,,,,,,,,,,,,,,,,0,0.350434783,-0.305217391,1,0,0,0.901,button_right_test,0,26,26,50,1
,,,,,,,,,,,,,,,,,,23,2022-02-12_17h23.36.178,lexical_decision_task_DD_L4,2021.2.3,iPhone,58.82352941,,,,,,,,,,0.874,1,,,,,,,,,,,,,,,,,,,,,,,-0.333043478,-0.34,1,0,0,,,,,,,RHINO,C,z,y,./images/RHINO.png,,,,,,,,,,,,,,,,,,,,,0,-0.333043478,-0.34,1,0,0,0.874,button_left_test,0,27,27,93,1
,,,,,,,,,,,,,,,,,,23,2022-02-12_17h23.36.178,lexical_decision_task_DD_L4,2021.2.3,iPhone,58.82352941,,,,,,,,,,0.865,1,,,,,,,,,,,,,,,,,,,,,,,-0.362608696,-0.333043478,1,0,0,,,,,,,LIZARD,LB,z,y,./images/LIZARDLB.png,,,,,,,,,,,,,,,,,,,,,0,-0.362608696,-0.333043478,1,0,0,0.865,button_left_test,0,28,28,128,1
,,,,,,,,,,,,,,,,,,23,2022-02-12_17h23.36.178,lexical_decision_task_DD_L4,2021.2.3,iPhone,58.82352941,,,,,,,,,,0.798,1,,,,,,,,,,,,,,,,,,,,,,,0.352173913,-0.333043478,1,0,0,,,,,,,SAUNA,C,m,y,./images/SAUNA.png,,,,,,,,,,,,,,,,,,,,,0,0.352173913,-0.333043478,1,0,0,0.798,button_right_test,0,29,29,33,1
,,,,,,,,,,,,,,,,,,23,2022-02-12_17h23.36.178,lexical_decision_task_DD_L4,2021.2.3,iPhone,58.82352941,,,,,,,,,,0.822,1,,,,,,,,,,,,,,,,,,,,,,,0.374782609,-0.308695652,1,0,0,,,,,,,BISHOP,HB,m,y,./images/BISHOPHB.png,,,,,,,,,,,,,,,,,,,,,0,0.374782609,-0.308695652,1,0,0,0.822,button_right_test,0,30,30,49,1
,,,,,,,,,,,,,,,,,,23,2022-02-12_17h23.36.178,lexical_decision_task_DD_L4,2021.2.3,iPhone,58.82352941,,,,,,,,,,0.873,1,,,,,,,,,,,,,,,,,,,,,,,0.33826087,-0.33826087,1,0,0,,,,,,,ARROW,C,m,y,./images/ARROW.png,,,,,,,,,,,,,,,,,,,,,0,0.33826087,-0.33826087,1,0,0,0.873,button_right_test,0,31,31,69,1
,,,,,,,,,,,,,,,,,,23,2022-02-12_17h23.36.178,lexical_decision_task_DD_L4,2021.2.3,iPhone,58.82352941,,,,,,,,,,0.772,1,,,,,,,,,,,,,,,,,,,,,,,0.317391304,-0.367826087,1,0,0,,,,,,,BANANA,HB,m,y,./images/BANANAHB.png,,,,,,,,,,,,,,,,,,,,,0,0.317391304,-0.367826087,1,0,0,0.772,button_right_test,0,32,32,70,1
,,,,,,,,,,,,,,,,,,23,2022-02-12_17h23.36.178,lexical_decision_task_DD_L4,2021.2.3,iPhone,58.82352941,,,,,,,,,,0.914,1,,,,,,,,,,,,,,,,,,,,,,,-0.315652174,-0.33826087,1,0,0,,,,,,,MUSCLE,HB,z,y,./images/MUSCLEHB.png,,,,,,,,,,,,,,,,,,,,,0,-0.315652174,-0.33826087,1,0,0,0.914,button_left_test,0,33,33,88,1
,,,,,,,,,,,,,,,,,,23,2022-02-12_17h23.36.178,lexical_decision_task_DD_L4,2021.2.3,iPhone,58.82352941,,,,,,,,,,1.032,1,,,,,,,,,,,,,,,,,,,,,,,-0.329565217,-0.287826087,1,0,0,,,,,,,CRUMB,LB,z,y,./images/CRUMBLB.png,,,,,,,,,,,,,,,,,,,,,0,-0.329565217,-0.287826087,1,0,0,1.032,button_left_test,0,34,34,113,1
,,,,,,,,,,,,,,,,,,23,2022-02-12_17h23.36.178,lexical_decision_task_DD_L4,2021.2.3,iPhone,58.82352941,,,,,,,,,,0.981,1,,,,,,,,,,,,,,,,,,,,,,,-0.327826087,-0.284347826,1,0,0,,,,,,,WALRUS,LB,z,y,./images/WALRUSLB.png,,,,,,,,,,,,,,,,,,,,,0,-0.327826087,-0.284347826,1,0,0,0.981,button_left_test,0,35,35,107,1
,,,,,,,,,,,,,,,,,,23,2022-02-12_17h23.36.178,lexical_decision_task_DD_L4,2021.2.3,iPhone,58.82352941,,,,,,,,,,0.889,1,,,,,,,,,,,,,,,,,,,,,,,0.348695652,-0.282608696,1,0,0,,,,,,,BLOKE,C,m,y,./images/BLOKE.png,,,,,,,,,,,,,,,,,,,,,0,0.348695652,-0.282608696,1,0,0,0.889,button_right_test,0,36,36,12,1
,,,,,,,,,,,,,,,,,,23,2022-02-12_17h23.36.178,lexical_decision_task_DD_L4,2021.2.3,iPhone,58.82352941,,,,,,,,,,0.816,1,,,,,,,,,,,,,,,,,,,,,,,0.329565217,-0.324347826,1,0,0,,,,,,,GARDEN,HB,m,y,./images/GARDENHB.png,,,,,,,,,,,,,,,,,,,,,0,0.329565217,-0.324347826,1,0,0,0.816,button_right_test,0,37,37,10,1
,,,,,,,,,,,,,,,,,,23,2022-02-12_17h23.36.178,lexical_decision_task_DD_L4,2021.2.3,iPhone,58.82352941,,,,,,,,,,0.916,1,,,,,,,,,,,,,,,,,,,,,,,-0.327826087,-0.334782609,1,0,0,,,,,,,GREASE,C,z,y,./images/GREASE.png,,,,,,,,,,,,,,,,,,,,,0,-0.327826087,-0.334782609,1,0,0,0.916,button_left_test,0,38,38,99,1
,,,,,,,,,,,,,,,,,,23,2022-02-12_17h23.36.178,lexical_decision_task_DD_L4,2021.2.3,iPhone,58.82352941,,,,,,,,,,0.965,1,,,,,,,,,,,,,,,,,,,,,,,-0.306956522,-0.265217391,1,0,0,,,,,,,SAILOR,HB,z,y,./images/SAILORHB.png,,,,,,,,,,,,,,,,,,,,,0,-0.306956522,-0.265217391,1,0,0,0.965,button_left_test,0,39,39,151,1
,,,,,,,,,,,,,,,,,,23,2022-02-12_17h23.36.178,lexical_decision_task_DD_L4,2021.2.3,iPhone,58.82352941,,,,,,,,,,0.841,1,,,,,,,,,,,,,,,,,,,,,,,0.353913043,-0.249565217,1,0,0,,,,,,,POKER,HB,m,y,./images/POKERHB.png,,,,,,,,,,,,,,,,,,,,,0,0.353913043,-0.249565217,1,0,0,0.841,button_right_test,0,40,40,67,1
,,,,,,,,,,,,,,,,,,23,2022-02-12_17h23.36.178,lexical_decision_task_DD_L4,2021.2.3,iPhone,58.82352941,,,,,,,,,,0.966,0,,,,,,,,,,,,,,,,,,,,,,,0.113913043,-0.393913043,1,0,0,,,,,,,WEASEL,LB,z,y,./images/WEASELLB.png,break_done_button,,,,,,,,,,,,,,,,,,,,0,0.315652174,-0.296521739,1,0,0,0.966,button_right_test,0,41,41,164,1
,,,,,,,,,,,,,,,,,,23,2022-02-12_17h23.36.178,lexical_decision_task_DD_L4,2021.2.3,iPhone,58.82352941,,,,,,,,,,0.922,1,,,,,,,,,,,,,,,,,,,,,,,0.37826087,-0.312173913,1,0,0,,,,,,,HOCKEY,LB,m,y,./images/HOCKEYLB.png,,,,,,,,,,,,,,,,,,,,,0,0.37826087,-0.312173913,1,0,0,0.922,button_right_test,0,42,42,32,1
,,,,,,,,,,,,,,,,,,23,2022-02-12_17h23.36.178,lexical_decision_task_DD_L4,2021.2.3,iPhone,58.82352941,,,,,,,,,,0.8,1,,,,,,,,,,,,,,,,,,,,,,,0.393913043,-0.312173913,1,0,0,,,,,,,MUMMY,HB,m,y,./images/MUMMYHB.png,,,,,,,,,,,,,,,,,,,,,0,0.393913043,-0.312173913,1,0,0,0.8,button_right_test,0,43,43,46,1
,,,,,,,,,,,,,,,,,,23,2022-02-12_17h23.36.178,lexical_decision_task_DD_L4,2021.2.3,iPhone,58.82352941,,,,,,,,,,1.089,1,,,,,,,,,,,,,,,,,,,,,,,0.336521739,-0.313913043,1,0,0,,,,,,,STOOL,HB,m,y,./images/STOOLHB.png,,,,,,,,,,,,,,,,,,,,,0,0.336521739,-0.313913043,1,0,0,1.089,button_right_test,0,44,44,43,1
,,,,,,,,,,,,,,,,,,23,2022-02-12_17h23.36.178,lexical_decision_task_DD_L4,2021.2.3,iPhone,58.82352941,,,,,,,,,,0.749,1,,,,,,,,,,,,,,,,,,,,,,,0.437391304,-0.289565217,1,0,0,,,,,,,HAMMER,C,m,y,./images/HAMMER.png,,,,,,,,,,,,,,,,,,,,,0,0.437391304,-0.289565217,1,0,0,0.749,button_right_test,0,45,45,75,1
,,,,,,,,,,,,,,,,,,23,2022-02-12_17h23.36.178,lexical_decision_task_DD_L4,2021.2.3,iPhone,58.82352941,,,,,,,,,,0.874,1,,,,,,,,,,,,,,,,,,,,,,,-0.282608696,-0.305217391,1,0,0,,,,,,,COOKER,C,z,y,./images/COOKER.png,,,,,,,,,,,,,,,,,,,,,0,-0.282608696,-0.305217391,1,0,0,0.874,button_left_test,0,46,46,153,1
,,,,,,,,,,,,,,,,,,23,2022-02-12_17h23.36.178,lexical_decision_task_DD_L4,2021.2.3,iPhone,58.82352941,,,,,,,,,,0.791,1,,,,,,,,,,,,,,,,,,,,,,,-0.319130435,-0.333043478,1,0,0,,,,,,,TRIPOD,C,z,y,./images/TRIPOD.png,,,,,,,,,,,,,,,,,,,,,0,-0.319130435,-0.333043478,1,0,0,0.791,button_left_test,0,47,47,138,1
,,,,,,,,,,,,,,,,,,23,2022-02-12_17h23.36.178,lexical_decision_task_DD_L4,2021.2.3,iPhone,58.82352941,,,,,,,,,,1.074,1,,,,,,,,,,,,,,,,,,,,,,,-0.329565217,-0.293043478,1,0,0,,,,,,,NOOSE,C,z,y,./images/NOOSE.png,,,,,,,,,,,,,,,,,,,,,0,-0.329565217,-0.293043478,1,0,0,1.074,button_left_test,0,48,48,156,1
,,,,,,,,,,,,,,,,,,23,2022-02-12_17h23.36.178,lexical_decision_task_DD_L4,2021.2.3,iPhone,58.82352941,,,,,,,,,,0.839,1,,,,,,,,,,,,,,,,,,,,,,,-0.327826087,-0.293043478,1,0,0,,,,,,,DOUGH,HB,z,y,./images/DOUGHHB.png,,,,,,,,,,,,,,,,,,,,,0,-0.327826087,-0.293043478,1,0,0,0.839,button_left_test,0,49,49,103,1
,,,,,,,,,,,,,,,,,,23,2022-02-12_17h23.36.178,lexical_decision_task_DD_L4,2021.2.3,iPhone,58.82352941,,,,,,,,,,0.856,1,,,,,,,,,,,,,,,,,,,,,,,0.399130435,-0.280869565,1,0,0,,,,,,,CASINO,HB,m,y,./images/CASINOHB.png,,,,,,,,,,,,,,,,,,,,,0,0.399130435,-0.280869565,1,0,0,0.856,button_right_test,0,50,50,28,1
,,,,,,,,,,,,,,,,,,23,2022-02-12_17h23.36.178,lexical_decision_task_DD_L4,2021.2.3,iPhone,58.82352941,,,,,,,,,,0.907,1,,,,,,,,,,,,,,,,,,,,,,,-0.34173913,-0.346956522,1,0,0,,,,,,,URINE,HB,z,y,./images/URINEHB.png,,,,,,,,,,,,,,,,,,,,,0,-0.34173913,-0.346956522,1,0,0,0.907,button_left_test,0,51,51,154,1
,,,,,,,,,,,,,,,,,,23,2022-02-12_17h23.36.178,lexical_decision_task_DD_L4,2021.2.3,iPhone,58.82352941,,,,,,,,,,0.933,1,,,,,,,,,,,,,,,,,,,,,,,-0.327826087,-0.293043478,1,0,0,,,,,,,MOSQUE,HB,z,y,./images/MOSQUEHB.png,,,,,,,,,,,,,,,,,,,,,0,-0.327826087,-0.293043478,1,0,0,0.933,button_left_test,0,52,52,127,1
,,,,,,,,,,,,,,,,,,23,2022-02-12_17h23.36.178,lexical_decision_task_DD_L4,2021.2.3,iPhone,58.82352941,,,,,,,,,,0.915,1,,,,,,,,,,,,,,,,,,,,,,,-0.327826087,-0.3,1,0,0,,,,,,,TORCH,LB,z,y,./images/TORCHLB.png,,,,,,,,,,,,,,,,,,,,,0,-0.327826087,-0.3,1,0,0,0.915,button_left_test,0,53,53,152,1
,,,,,,,,,,,,,,,,,,23,2022-02-12_17h23.36.178,lexical_decision_task_DD_L4,2021.2.3,iPhone,58.82352941,,,,,,,,,,1.082,1,,,,,,,,,,,,,,,,,,,,,,,-0.334782609,-0.291304348,1,0,0,,,,,,,BANNER,HB,z,y,./images/BANNERHB.png,,,,,,,,,,,,,,,,,,,,,0,-0.334782609,-0.291304348,1,0,0,1.082,button_left_test,0,54,54,136,1
,,,,,,,,,,,,,,,,,,23,2022-02-12_17h23.36.178,lexical_decision_task_DD_L4,2021.2.3,iPhone,58.82352941,,,,,,,,,,1.349,0,,,,,,,,,,,,,,,,,,,,,,,-0.3,-0.270434783,1,0,0,,,,,,,GLOVE,HB,m,y,./images/GLOVEHB.png,,,,,,,,,,,,,,,,,,,,,0,-0.3,-0.270434783,1,0,0,1.349,button_left_test,0,55,55,73,1
,,,,,,,,,,,,,,,,,,23,2022-02-12_17h23.36.178,lexical_decision_task_DD_L4,2021.2.3,iPhone,58.82352941,,,,,,,,,,0.83,1,,,,,,,,,,,,,,,,,,,,,,,0.411304348,-0.306956522,1,0,0,,,,,,,PARCEL,C,m,y,./images/PARCEL.png,,,,,,,,,,,,,,,,,,,,,0,0.411304348,-0.306956522,1,0,0,0.83,button_right_test,0,56,56,18,1
,,,,,,,,,,,,,,,,,,23,2022-02-12_17h23.36.178,lexical_decision_task_DD_L4,2021.2.3,iPhone,58.82352941,,,,,,,,,,0.982,1,,,,,,,,,,,,,,,,,,,,,,,0.386956522,-0.249565217,1,0,0,,,,,,,MAMMAL,LB,m,y,./images/MAMMALLB.png,,,,,,,,,,,,,,,,,,,,,0,0.386956522,-0.249565217,1,0,0,0.982,button_right_test,0,57,57,62,1
,,,,,,,,,,,,,,,,,,23,2022-02-12_17h23.36.178,lexical_decision_task_DD_L4,2021.2.3,iPhone,58.82352941,,,,,,,,,,0.948,1,,,,,,,,,,,,,,,,,,,,,,,0.397391304,-0.322608696,1,0,0,,,,,,,DIVER,C,m,y,./images/DIVER.png,,,,,,,,,,,,,,,,,,,,,0,0.397391304,-0.322608696,1,0,0,0.948,button_right_test,0,58,58,9,1
,,,,,,,,,,,,,,,,,,23,2022-02-12_17h23.36.178,lexical_decision_task_DD_L4,2021.2.3,iPhone,58.82352941,,,,,,,,,,0.907,0,,,,,,,,,,,,,,,,,,,,,,,-0.360869565,-0.319130435,1,0,0,,,,,,,SHIELD,C,m,y,./images/SHIELD.png,,,,,,,,,,,,,,,,,,,,,0,-0.360869565,-0.319130435,1,0,0,0.907,button_left_test,0,59,59,48,1
,,,,,,,,,,,,,,,,,,23,2022-02-12_17h23.36.178,lexical_decision_task_DD_L4,2021.2.3,iPhone,58.82352941,,,,,,,,,,1.058,0,,,,,,,,,,,,,,,,,,,,,,,-0.306956522,-0.303478261,1,0,0,,,,,,,SPINE,LB,m,y,./images/SPINELB.png,,,,,,,,,,,,,,,,,,,,,0,-0.306956522,-0.303478261,1,0,0,1.058,button_left_test,0,60,60,65,1
,,,,,,,,,,,,,,,,,,23,2022-02-12_17h23.36.178,lexical_decision_task_DD_L4,2021.2.3,iPhone,58.82352941,,,,,,,,,,0.905,1,,,,,,,,,,,,,,,,,,,,,,,-0.352173913,-0.3,1,0,0,,,,,,,SQUARE,C,z,y,./images/SQUARE.png,,,,,,,,,,,,,,,,,,,,,0,-0.352173913,-0.3,1,0,0,0.905,button_left_test,0,61,61,90,1
,,,,,,,,,,,,,,,,,,23,2022-02-12_17h23.36.178,lexical_decision_task_DD_L4,2021.2.3,iPhone,58.82352941,,,,,,,,,,0.939,1,,,,,,,,,,,,,,,,,,,,,,,0.390434783,-0.289565217,1,0,0,,,,,,,PLANET,LB,m,y,./images/PLANETLB.png,,,,,,,,,,,,,,,,,,,,,0,0.390434783,-0.289565217,1,0,0,0.939,button_right_test,0,62,62,80,1
,,,,,,,,,,,,,,,,,,23,2022-02-12_17h23.36.178,lexical_decision_task_DD_L4,2021.2.3,iPhone,58.82352941,,,,,,,,,,1.232,0,,,,,,,,,,,,,,,,,,,,,,,-0.279130435,-0.249565217,1,0,0,,,,,,,BROOM,C,m,y,./images/BROOM.png,,,,,,,,,,,,,,,,,,,,,0,-0.279130435,-0.249565217,1,0,0,1.232,button_left_test,0,63,63,78,1
,,,,,,,,,,,,,,,,,,23,2022-02-12_17h23.36.178,lexical_decision_task_DD_L4,2021.2.3,iPhone,58.82352941,,,,,,,,,,0.981,1,,,,,,,,,,,,,,,,,,,,,,,0.388695652,-0.26173913,1,0,0,,,,,,,RULER,HB,m,y,./images/RULERHB.png,,,,,,,,,,,,,,,,,,,,,0,0.388695652,-0.26173913,1,0,0,0.981,button_right_test,0,64,64,79,1
,,,,,,,,,,,,,,,,,,23,2022-02-12_17h23.36.178,lexical_decision_task_DD_L4,2021.2.3,iPhone,58.82352941,,,,,,,,,,0.981,1,,,,,,,,,,,,,,,,,,,,,,,0.357391304,-0.315652174,1,0,0,,,,,,,CLOWN,HB,m,y,./images/CLOWNHB.png,,,,,,,,,,,,,,,,,,,,,0,0.357391304,-0.315652174,1,0,0,0.981,button_right_test,0,65,65,22,1
,,,,,,,,,,,,,,,,,,23,2022-02-12_17h23.36.178,lexical_decision_task_DD_L4,2021.2.3,iPhone,58.82352941,,,,,,,,,,1.156,1,,,,,,,,,,,,,,,,,,,,,,,0.406086957,-0.293043478,1,0,0,,,,,,,COLLAR,C,m,y,./images/COLLAR.png,,,,,,,,,,,,,,,,,,,,,0,0.406086957,-0.293043478,1,0,0,1.156,button_right_test,0,66,66,15,1
,,,,,,,,,,,,,,,,,,23,2022-02-12_17h23.36.178,lexical_decision_task_DD_L4,2021.2.3,iPhone,58.82352941,,,,,,,,,,1.074,0,,,,,,,,,,,,,,,,,,,,,,,-0.327826087,-0.303478261,1,0,0,,,,,,,BUBBLE,LB,m,y,./images/BUBBLELB.png,,,,,,,,,,,,,,,,,,,,,0,-0.327826087,-0.303478261,1,0,0,1.074,button_left_test,0,67,67,71,1
,,,,,,,,,,,,,,,,,,23,2022-02-12_17h23.36.178,lexical_decision_task_DD_L4,2021.2.3,iPhone,58.82352941,,,,,,,,,,1.065,0,,,,,,,,,,,,,,,,,,,,,,,-0.313913043,-0.266956522,1,0,0,,,,,,,BOILER,C,m,y,./images/BOILER.png,,,,,,,,,,,,,,,,,,,,,0,-0.313913043,-0.266956522,1,0,0,1.065,button_left_test,0,68,68,36,1
,,,,,,,,,,,,,,,,,,23,2022-02-12_17h23.36.178,lexical_decision_task_DD_L4,2021.2.3,iPhone,58.82352941,,,,,,,,,,0.838,1,,,,,,,,,,,,,,,,,,,,,,,-0.388695652,-0.364347826,1,0,0,,,,,,,JELLY,HB,z,y,./images/JELLYHB.png,,,,,,,,,,,,,,,,,,,,,0,-0.388695652,-0.364347826,1,0,0,0.838,button_left_test,0,69,69,148,1
,,,,,,,,,,,,,,,,,,23,2022-02-12_17h23.36.178,lexical_decision_task_DD_L4,2021.2.3,iPhone,58.82352941,,,,,,,,,,0.865,1,,,,,,,,,,,,,,,,,,,,,,,0.390434783,-0.331304348,1,0,0,,,,,,,WAGON,HB,m,y,./images/WAGONHB.png,,,,,,,,,,,,,,,,,,,,,0,0.390434783,-0.331304348,1,0,0,0.865,button_right_test,0,70,70,7,1
,,,,,,,,,,,,,,,,,,23,2022-02-12_17h23.36.178,lexical_decision_task_DD_L4,2021.2.3,iPhone,58.82352941,,,,,,,,,,0.892,1,,,,,,,,,,,,,,,,,,,,,,,0.38,-0.315652174,1,0,0,,,,,,,PISTOL,LB,m,y,./images/PISTOLLB.png,,,,,,,,,,,,,,,,,,,,,0,0.38,-0.315652174,1,0,0,0.892,button_right_test,0,71,71,29,1
,,,,,,,,,,,,,,,,,,23,2022-02-12_17h23.36.178,lexical_decision_task_DD_L4,2021.2.3,iPhone,58.82352941,,,,,,,,,,1.057,0,,,,,,,,,,,,,,,,,,,,,,,0.331304348,-0.246086957,1,0,0,,,,,,,COUCH,LB,z,y,./images/COUCHLB.png,,,,,,,,,,,,,,,,,,,,,0,0.331304348,-0.246086957,1,0,0,1.057,button_right_test,0,72,72,161,1
,,,,,,,,,,,,,,,,,,23,2022-02-12_17h23.36.178,lexical_decision_task_DD_L4,2021.2.3,iPhone,58.82352941,,,,,,,,,,1.34,0,,,,,,,,,,,,,,,,,,,,,,,-0.310434783,-0.3,1,0,0,,,,,,,BUTTER,C,m,y,./images/BUTTER.png,,,,,,,,,,,,,,,,,,,,,0,-0.310434783,-0.3,1,0,0,1.34,button_left_test,0,73,73,27,1
,,,,,,,,,,,,,,,,,,23,2022-02-12_17h23.36.178,lexical_decision_task_DD_L4,2021.2.3,iPhone,58.82352941,,,,,,,,,,0.889,1,,,,,,,,,,,,,,,,,,,,,,,-0.346956522,-0.291304348,1,0,0,,,,,,,PLANK,HB,z,y,./images/PLANKHB.png,,,,,,,,,,,,,,,,,,,,,0,-0.346956522,-0.291304348,1,0,0,0.889,button_left_test,0,74,74,85,1
,,,,,,,,,,,,,,,,,,23,2022-02-12_17h23.36.178,lexical_decision_task_DD_L4,2021.2.3,iPhone,58.82352941,,,,,,,,,,0.88,1,,,,,,,,,,,,,,,,,,,,,,,0.411304348,-0.305217391,1,0,0,,,,,,,DANCER,C,m,y,./images/DANCER.png,,,,,,,,,,,,,,,,,,,,,0,0.411304348,-0.305217391,1,0,0,0.88,button_right_test,0,75,75,21,1
,,,,,,,,,,,,,,,,,,23,2022-02-12_17h23.36.178,lexical_decision_task_DD_L4,2021.2.3,iPhone,58.82352941,,,,,,,,,,0.981,1,,,,,,,,,,,,,,,,,,,,,,,0.369565217,-0.289565217,1,0,0,,,,,,,SNAKE,HB,m,y,./images/SNAKEHB.png,,,,,,,,,,,,,,,,,,,,,0,0.369565217,-0.289565217,1,0,0,0.981,button_right_test,0,76,76,40,1
,,,,,,,,,,,,,,,,,,23,2022-02-12_17h23.36.178,lexical_decision_task_DD_L4,2021.2.3,iPhone,58.82352941,,,,,,,,,,0.824,1,,,,,,,,,,,,,,,,,,,,,,,-0.313913043,-0.273913043,1,0,0,,,,,,,MELON,HB,z,y,./images/MELONHB.png,,,,,,,,,,,,,,,,,,,,,0,-0.313913043,-0.273913043,1,0,0,0.824,button_left_test,0,77,77,106,1
,,,,,,,,,,,,,,,,,,23,2022-02-12_17h23.36.178,lexical_decision_task_DD_L4,2021.2.3,iPhone,58.82352941,,,,,,,,,,0.816,1,,,,,,,,,,,,,,,,,,,,,,,-0.29826087,-0.284347826,1,0,0,,,,,,,PACKET,LB,z,y,./images/PACKETLB.png,,,,,,,,,,,,,,,,,,,,,0,-0.29826087,-0.284347826,1,0,0,0.816,button_left_test,0,78,78,140,1
,,,,,,,,,,,,,,,,,,23,2022-02-12_17h23.36.178,lexical_decision_task_DD_L4,2021.2.3,iPhone,58.82352941,,,,,,,,,,0.791,1,,,,,,,,,,,,,,,,,,,,,,,-0.346956522,-0.324347826,1,0,0,,,,,,,ONION,C,z,y,./images/ONION.png,,,,,,,,,,,,,,,,,,,,,0,-0.346956522,-0.324347826,1,0,0,0.791,button_left_test,0,79,79,135,1
,,,,,,,,,,,,,,,,,,23,2022-02-12_17h23.36.178,lexical_decision_task_DD_L4,2021.2.3,iPhone,58.82352941,,,,,,,,,,0.805,1,,,,,,,,,,,,,,,,,,,,,,,0.366086957,-0.277391304,1,0,0,,,,,,,ARTIST,HB,m,y,./images/ARTISTHB.png,,,,,,,,,,,,,,,,,,,,,0,0.366086957,-0.277391304,1,0,0,0.805,button_right_test,0,80,80,61,1
,,,,,,,,,,,,,,,,,,23,2022-02-12_17h23.36.178,lexical_decision_task_DD_L4,2021.2.3,iPhone,58.82352941,,,,,,,,,,0.805,1,,,,,,,,,,,,,,,,,,,,,,,-0.334782609,-0.364347826,1,0,0,,,,,,,BELLY,HB,z,y,./images/BELLYHB.png,,,,,,,,,,,,,,,,,,,,,0,-0.334782609,-0.364347826,1,0,0,0.805,button_left_test,0,81,81,94,1
,,,,,,,,,,,,,,,,,,23,2022-02-12_17h23.36.178,lexical_decision_task_DD_L4,2021.2.3,iPhone,58.82352941,,,,,,,,,,0.806,1,,,,,,,,,,,,,,,,,,,,,,,0.376521739,-0.289565217,1,0,0,,,,,,,CLOUD,LB,m,y,./images/CLOUDLB.png,,,,,,,,,,,,,,,,,,,,,0,0.376521739,-0.289565217,1,0,0,0.806,button_right_test,0,82,82,26,1
,,,,,,,,,,,,,,,,,,23,2022-02-12_17h23.36.178,lexical_decision_task_DD_L4,2021.2.3,iPhone,58.82352941,,,,,,,,,,0.773,1,,,,,,,,,,,,,,,,,,,,,,,0.119130435,-0.404347826,1,0,0,,,,,,,MIRROR,C,z,y,./images/MIRROR.png,break_done_button,,,,,,,,,,,,,,,,,,,,0,-0.315652174,-0.343478261,1,0,0,0.773,button_left_test,0,83,83,147,1
,,,,,,,,,,,,,,,,,,23,2022-02-12_17h23.36.178,lexical_decision_task_DD_L4,2021.2.3,iPhone,58.82352941,,,,,,,,,,0.956,1,,,,,,,,,,,,,,,,,,,,,,,0.386956522,-0.280869565,1,0,0,,,,,,,STAIN,C,m,y,./images/STAIN.png,,,,,,,,,,,,,,,,,,,,,0,0.386956522,-0.280869565,1,0,0,0.956,button_right_test,0,84,84,6,1
,,,,,,,,,,,,,,,,,,23,2022-02-12_17h23.36.178,lexical_decision_task_DD_L4,2021.2.3,iPhone,58.82352941,,,,,,,,,,0.864,1,,,,,,,,,,,,,,,,,,,,,,,-0.334782609,-0.263478261,1,0,0,,,,,,,SUNSET,HB,z,y,./images/SUNSETHB.png,,,,,,,,,,,,,,,,,,,,,0,-0.334782609,-0.263478261,1,0,0,0.864,button_left_test,0,85,85,166,1
,,,,,,,,,,,,,,,,,,23,2022-02-12_17h23.36.178,lexical_decision_task_DD_L4,2021.2.3,iPhone,58.82352941,,,,,,,,,,0.998,0,,,,,,,,,,,,,,,,,,,,,,,-0.284347826,-0.289565217,1,0,0,,,,,,,STREAM,LB,m,y,./images/STREAMLB.png,,,,,,,,,,,,,,,,,,,,,0,-0.284347826,-0.289565217,1,0,0,0.998,button_left_test,0,86,86,41,1
,,,,,,,,,,,,,,,,,,23,2022-02-12_17h23.36.178,lexical_decision_task_DD_L4,2021.2.3,iPhone,58.82352941,,,,,,,,,,0.899,1,,,,,,,,,,,,,,,,,,,,,,,-0.324347826,-0.353913043,1,0,0,,,,,,,CANYON,HB,z,y,./images/CANYONHB.png,,,,,,,,,,,,,,,,,,,,,0,-0.324347826,-0.353913043,1,0,0,0.899,button_left_test,0,87,87,118,1
,,,,,,,,,,,,,,,,,,23,2022-02-12_17h23.36.178,lexical_decision_task_DD_L4,2021.2.3,iPhone,58.82352941,,,,,,,,,,1.001,1,,,,,,,,,,,,,,,,,,,,,,,-0.289565217,-0.286086957,1,0,0,,,,,,,SHELF,C,z,y,./images/SHELF.png,,,,,,,,,,,,,,,,,,,,,0,-0.289565217,-0.286086957,1,0,0,1.001,button_left_test,0,88,88,123,1
,,,,,,,,,,,,,,,,,,23,2022-02-12_17h23.36.178,lexical_decision_task_DD_L4,2021.2.3,iPhone,58.82352941,,,,,,,,,,0.891,1,,,,,,,,,,,,,,,,,,,,,,,-0.313913043,-0.308695652,1,0,0,,,,,,,SWING,HB,z,y,./images/SWINGHB.png,,,,,,,,,,,,,,,,,,,,,0,-0.313913043,-0.308695652,1,0,0,0.891,button_left_test,0,89,89,124,1
,,,,,,,,,,,,,,,,,,23,2022-02-12_17h23.36.178,lexical_decision_task_DD_L4,2021.2.3,iPhone,58.82352941,,,,,,,,,,0.956,1,,,,,,,,,,,,,,,,,,,,,,,-0.268695652,-0.289565217,1,0,0,,,,,,,TOMATO,C,z,y,./images/TOMATO.png,,,,,,,,,,,,,,,,,,,,,0,-0.268695652,-0.289565217,1,0,0,0.956,button_left_test,0,90,90,84,1
,,,,,,,,,,,,,,,,,,23,2022-02-12_17h23.36.178,lexical_decision_task_DD_L4,2021.2.3,iPhone,58.82352941,,,,,,,,,,1.08,0,,,,,,,,,,,,,,,,,,,,,,,-0.293043478,-0.273913043,1,0,0,,,,,,,DESERT,HB,m,y,./images/DESERTHB.png,,,,,,,,,,,,,,,,,,,,,0,-0.293043478,-0.273913043,1,0,0,1.08,button_left_test,0,91,91,52,1
,,,,,,,,,,,,,,,,,,23,2022-02-12_17h23.36.178,lexical_decision_task_DD_L4,2021.2.3,iPhone,58.82352941,,,,,,,,,,0.939,1,,,,,,,,,,,,,,,,,,,,,,,-0.296521739,-0.305217391,1,0,0,,,,,,,KITTEN,C,z,y,./images/KITTEN.png,,,,,,,,,,,,,,,,,,,,,0,-0.296521739,-0.305217391,1,0,0,0.939,button_left_test,0,92,92,129,1
,,,,,,,,,,,,,,,,,,23,2022-02-12_17h23.36.178,lexical_decision_task_DD_L4,2021.2.3,iPhone,58.82352941,,,,,,,,,,0.941,0,,,,,,,,,,,,,,,,,,,,,,,0.383478261,-0.294782609,1,0,0,,,,,,,MOTOR,HB,z,y,./images/MOTORHB.png,,,,,,,,,,,,,,,,,,,,,0,0.383478261,-0.294782609,1,0,0,0.941,button_right_test,0,93,93,97,1
,,,,,,,,,,,,,,,,,,23,2022-02-12_17h23.36.178,lexical_decision_task_DD_L4,2021.2.3,iPhone,58.82352941,,,,,,,,,,0.839,1,,,,,,,,,,,,,,,,,,,,,,,-0.34,-0.286086957,1,0,0,,,,,,,JUNGLE,LB,z,y,./images/JUNGLELB.png,,,,,,,,,,,,,,,,,,,,,0,-0.34,-0.286086957,1,0,0,0.839,button_left_test,0,94,94,167,1
,,,,,,,,,,,,,,,,,,23,2022-02-12_17h23.36.178,lexical_decision_task_DD_L4,2021.2.3,iPhone,58.82352941,,,,,,,,,,1.19,1,,,,,,,,,,,,,,,,,,,,,,,-0.306956522,-0.315652174,1,0,0,,,,,,,PEACH,LB,z,y,./images/PEACHLB.png,,,,,,,,,,,,,,,,,,,,,0,-0.306956522,-0.315652174,1,0,0,1.19,button_left_test,0,95,95,119,1
,,,,,,,,,,,,,,,,,,23,2022-02-12_17h23.36.178,lexical_decision_task_DD_L4,2021.2.3,iPhone,58.82352941,,,,,,,,,,0.888,1,,,,,,,,,,,,,,,,,,,,,,,0.400869565,-0.289565217,1,0,0,,,,,,,WHISKY,LB,m,y,./images/WHISKYLB.png,,,,,,,,,,,,,,,,,,,,,0,0.400869565,-0.289565217,1,0,0,0.888,button_right_test,0,96,96,83,1
,,,,,,,,,,,,,,,,,,23,2022-02-12_17h23.36.178,lexical_decision_task_DD_L4,2021.2.3,iPhone,58.82352941,,,,,,,,,,1.116,1,,,,,,,,,,,,,,,,,,,,,,,-0.305217391,-0.312173913,1,0,0,,,,,,,SKIING,LB,z,y,./images/SKIINGLB.png,,,,,,,,,,,,,,,,,,,,,0,-0.305217391,-0.312173913,1,0,0,1.116,button_left_test,0,97,97,101,1
,,,,,,,,,,,,,,,,,,23,2022-02-12_17h23.36.178,lexical_decision_task_DD_L4,2021.2.3,iPhone,58.82352941,,,,,,,,,,0.939,0,,,,,,,,,,,,,,,,,,,,,,,0.386956522,-0.296521739,1,0,0,,,,,,,STORM,C,z,y,./images/STORM.png,,,,,,,,,,,,,,,,,,,,,0,0.386956522,-0.296521739,1,0,0,0.939,button_right_test,0,98,98,114,1
,,,,,,,,,,,,,,,,,,23,2022-02-12_17h23.36.178,lexical_decision_task_DD_L4,2021.2.3,iPhone,58.82352941,,,,,,,,,,0.998,1,,,,,,,,,,,,,,,,,,,,,,,-0.315652174,-0.313913043,1,0,0,,,,,,,SMOKER,LB,z,y,./images/SMOKERLB.png,,,,,,,,,,,,,,,,,,,,,0,-0.315652174,-0.313913043,1,0,0,0.998,button_left_test,0,99,99,110,1
,,,,,,,,,,,,,,,,,,23,2022-02-12_17h23.36.178,lexical_decision_task_DD_L4,2021.2.3,iPhone,58.82352941,,,,,,,,,,0.9,1,,,,,,,,,,,,,,,,,,,,,,,0.41826087,-0.287826087,1,0,0,,,,,,,RAZOR,HB,m,y,./images/RAZORHB.png,,,,,,,,,,,,,,,,,,,,,0,0.41826087,-0.287826087,1,0,0,0.9,button_right_test,0,100,100,34,1
,,,,,,,,,,,,,,,,,,23,2022-02-12_17h23.36.178,lexical_decision_task_DD_L4,2021.2.3,iPhone,58.82352941,,,,,,,,,,0.966,1,,,,,,,,,,,,,,,,,,,,,,,0.34,-0.286086957,1,0,0,,,,,,,BAMBOO,LB,m,y,./images/BAMBOOLB.png,,,,,,,,,,,,,,,,,,,,,0,0.34,-0.286086957,1,0,0,0.966,button_right_test,0,101,101,5,1
,,,,,,,,,,,,,,,,,,23,2022-02-12_17h23.36.178,lexical_decision_task_DD_L4,2021.2.3,iPhone,58.82352941,,,,,,,,,,1.149,1,,,,,,,,,,,,,,,,,,,,,,,-0.29826087,-0.25826087,1,0,0,,,,,,,INFANT,HB,z,y,./images/INFANTHB.png,,,,,,,,,,,,,,,,,,,,,0,-0.29826087,-0.25826087,1,0,0,1.149,button_left_test,0,102,102,160,1
,,,,,,,,,,,,,,,,,,23,2022-02-12_17h23.36.178,lexical_decision_task_DD_L4,2021.2.3,iPhone,58.82352941,,,,,,,,,,0.983,1,,,,,,,,,,,,,,,,,,,,,,,-0.312173913,-0.286086957,1,0,0,,,,,,,PEARL,HB,z,y,./images/PEARLHB.png,,,,,,,,,,,,,,,,,,,,,0,-0.312173913,-0.286086957,1,0,0,0.983,button_left_test,0,103,103,130,1
,,,,,,,,,,,,,,,,,,23,2022-02-12_17h23.36.178,lexical_decision_task_DD_L4,2021.2.3,iPhone,58.82352941,,,,,,,,,,0.874,1,,,,,,,,,,,,,,,,,,,,,,,0.367826087,-0.315652174,1,0,0,,,,,,,VALLEY,LB,m,y,./images/VALLEYLB.png,,,,,,,,,,,,,,,,,,,,,0,0.367826087,-0.315652174,1,0,0,0.874,button_right_test,0,104,104,68,1
,,,,,,,,,,,,,,,,,,23,2022-02-12_17h23.36.178,lexical_decision_task_DD_L4,2021.2.3,iPhone,58.82352941,,,,,,,,,,0.855,1,,,,,,,,,,,,,,,,,,,,,,,0.416521739,-0.294782609,1,0,0,,,,,,,CLOTH,LB,m,y,./images/CLOTHLB.png,,,,,,,,,,,,,,,,,,,,,0,0.416521739,-0.294782609,1,0,0,0.855,button_right_test,0,105,105,23,1
,,,,,,,,,,,,,,,,,,23,2022-02-12_17h23.36.178,lexical_decision_task_DD_L4,2021.2.3,iPhone,58.82352941,,,,,,,,,,1.489,0,,,,,,,,,,,,,,,,,,,,,,,0.343478261,-0.294782609,1,0,0,,,,,,,SWEAT,C,z,y,./images/SWEAT.png,,,,,,,,,,,,,,,,,,,,,0,0.343478261,-0.294782609,1,0,0,1.489,button_right_test,0,106,106,150,1
,,,,,,,,,,,,,,,,,,23,2022-02-12_17h23.36.178,lexical_decision_task_DD_L4,2021.2.3,iPhone,58.82352941,,,,,,,,,,0.848,1,,,,,,,,,,,,,,,,,,,,,,,0.371304348,-0.353913043,1,0,0,,,,,,,SAUCE,C,m,y,./images/SAUCE.png,,,,,,,,,,,,,,,,,,,,,0,0.371304348,-0.353913043,1,0,0,0.848,button_right_test,0,107,107,51,1
,,,,,,,,,,,,,,,,,,23,2022-02-12_17h23.36.178,lexical_decision_task_DD_L4,2021.2.3,iPhone,58.82352941,,,,,,,,,,0.789,1,,,,,,,,,,,,,,,,,,,,,,,0.399130435,-0.317391304,1,0,0,,,,,,,WALNUT,C,m,y,./images/WALNUT.png,,,,,,,,,,,,,,,,,,,,,0,0.399130435,-0.317391304,1,0,0,0.789,button_right_test,0,108,108,0,1
,,,,,,,,,,,,,,,,,,23,2022-02-12_17h23.36.178,lexical_decision_task_DD_L4,2021.2.3,iPhone,58.82352941,,,,,,,,,,0.905,1,,,,,,,,,,,,,,,,,,,,,,,-0.275652174,-0.29826087,1,0,0,,,,,,,BURIAL,LB,z,y,./images/BURIALLB.png,,,,,,,,,,,,,,,,,,,,,0,-0.275652174,-0.29826087,1,0,0,0.905,button_left_test,0,109,109,143,1
,,,,,,,,,,,,,,,,,,23,2022-02-12_17h23.36.178,lexical_decision_task_DD_L4,2021.2.3,iPhone,58.82352941,,,,,,,,,,1.049,1,,,,,,,,,,,,,,,,,,,,,,,0.34,-0.294782609,1,0,0,,,,,,,GRAPE,HB,m,y,./images/GRAPEHB.png,,,,,,,,,,,,,,,,,,,,,0,0.34,-0.294782609,1,0,0,1.049,button_right_test,0,110,110,16,1
,,,,,,,,,,,,,,,,,,23,2022-02-12_17h23.36.178,lexical_decision_task_DD_L4,2021.2.3,iPhone,58.82352941,,,,,,,,,,0.822,1,,,,,,,,,,,,,,,,,,,,,,,0.442608696,-0.3,1,0,0,,,,,,,GRANNY,LB,m,y,./images/GRANNYLB.png,,,,,,,,,,,,,,,,,,,,,0,0.442608696,-0.3,1,0,0,0.822,button_right_test,0,111,111,20,1
,,,,,,,,,,,,,,,,,,23,2022-02-12_17h23.36.178,lexical_decision_task_DD_L4,2021.2.3,iPhone,58.82352941,,,,,,,,,,0.883,1,,,,,,,,,,,,,,,,,,,,,,,-0.353913043,-0.265217391,1,0,0,,,,,,,QUILL,HB,z,y,./images/QUILLHB.png,,,,,,,,,,,,,,,,,,,,,0,-0.353913043,-0.265217391,1,0,0,0.883,button_left_test,0,112,112,115,1
,,,,,,,,,,,,,,,,,,23,2022-02-12_17h23.36.178,lexical_decision_task_DD_L4,2021.2.3,iPhone,58.82352941,,,,,,,,,,0.914,1,,,,,,,,,,,,,,,,,,,,,,,-0.336521739,-0.305217391,1,0,0,,,,,,,TULIP,LB,z,y,./images/TULIPLB.png,,,,,,,,,,,,,,,,,,,,,0,-0.336521739,-0.305217391,1,0,0,0.914,button_left_test,0,113,113,92,1
,,,,,,,,,,,,,,,,,,23,2022-02-12_17h23.36.178,lexical_decision_task_DD_L4,2021.2.3,iPhone,58.82352941,,,,,,,,,,1.216,1,,,,,,,,,,,,,,,,,,,,,,,-0.320869565,-0.305217391,1,0,0,,,,,,,BIRTH,HB,z,y,./images/BIRTHHB.png,,,,,,,,,,,,,,,,,,,,,0,-0.320869565,-0.305217391,1,0,0,1.216,button_left_test,0,114,114,121,1
,,,,,,,,,,,,,,,,,,23,2022-02-12_17h23.36.178,lexical_decision_task_DD_L4,2021.2.3,iPhone,58.82352941,,,,,,,,,,1.114,1,,,,,,,,,,,,,,,,,,,,,,,0.38173913,-0.293043478,1,0,0,,,,,,,BRIDE,HB,m,y,./images/BRIDEHB.png,,,,,,,,,,,,,,,,,,,,,0,0.38173913,-0.293043478,1,0,0,1.114,button_right_test,0,115,115,64,1
,,,,,,,,,,,,,,,,,,23,2022-02-12_17h23.36.178,lexical_decision_task_DD_L4,2021.2.3,iPhone,58.82352941,,,,,,,,,,0.965,0,,,,,,,,,,,,,,,,,,,,,,,-0.333043478,-0.319130435,1,0,0,,,,,,,BOXER,HB,m,y,./images/BOXERHB.png,,,,,,,,,,,,,,,,,,,,,0,-0.333043478,-0.319130435,1,0,0,0.965,button_left_test,0,116,116,4,1
,,,,,,,,,,,,,,,,,,23,2022-02-12_17h23.36.178,lexical_decision_task_DD_L4,2021.2.3,iPhone,58.82352941,,,,,,,,,,0.779,0,,,,,,,,,,,,,,,,,,,,,,,0.371304348,-0.324347826,1,0,0,,,,,,,SNACK,HB,z,y,./images/SNACKHB.png,,,,,,,,,,,,,,,,,,,,,0,0.371304348,-0.324347826,1,0,0,0.779,button_right_test,0,117,117,157,1
,,,,,,,,,,,,,,,,,,23,2022-02-12_17h23.36.178,lexical_decision_task_DD_L4,2021.2.3,iPhone,58.82352941,,,,,,,,,,0.971,0,,,,,,,,,,,,,,,,,,,,,,,-0.343478261,-0.324347826,1,0,0,,,,,,,STOVE,LB,m,y,./images/STOVELB.png,,,,,,,,,,,,,,,,,,,,,0,-0.343478261,-0.324347826,1,0,0,0.971,button_left_test,0,118,118,2,1
,,,,,,,,,,,,,,,,,,23,2022-02-12_17h23.36.178,lexical_decision_task_DD_L4,2021.2.3,iPhone,58.82352941,,,,,,,,,,0.848,1,,,,,,,,,,,,,,,,,,,,,,,-0.303478261,-0.308695652,1,0,0,,,,,,,PENCE,HB,z,y,./images/PENCEHB.png,,,,,,,,,,,,,,,,,,,,,0,-0.303478261,-0.308695652,1,0,0,0.848,button_left_test,0,119,119,100,1
,,,,,,,,,,,,,,,,,,23,2022-02-12_17h23.36.178,lexical_decision_task_DD_L4,2021.2.3,iPhone,58.82352941,,,,,,,,,,1.033,1,,,,,,,,,,,,,,,,,,,,,,,-0.33826087,-0.280869565,1,0,0,,,,,,,CRADLE,LB,z,y,./images/CRADLELB.png,,,,,,,,,,,,,,,,,,,,,0,-0.33826087,-0.280869565,1,0,0,1.033,button_left_test,0,120,120,104,1
