key_resp.keys,instr_done_touch.x,instr_done_touch.y,instr_done_touch.leftButton,instr_done_touch.midButton,instr_done_touch.rightButton,instr_done_touch.clicked_name,instruction_pages.thisRepN,instruction_pages.thisTrialN,instruction_pages.thisN,instruction_pages.thisIndex,instruction_pages.ran,pageN,phase,instruct_text,has_image,instruct_image,participant,age,date,expName,psychopyVersion,OS,frameRate,response.keys,response.corr,touch_resp.x,touch_resp.y,touch_resp.leftButton,touch_resp.midButton,touch_resp.rightButton,touch_resp.time,touch_resp.clicked_name,rt,corr,practrials.thisRepN,practrials.thisTrialN,practrials.thisN,practrials.thisIndex,practrials.ran,TrialID,Target,corrAns,end_of_practice_trials_pages.thisRepN,end_of_practice_trials_pages.thisTrialN,end_of_practice_trials_pages.thisN,end_of_practice_trials_pages.thisIndex,end_of_practice_trials_pages.ran,key_resp_2.keys,key_resp_2.corr,targ_click.x,targ_click.y,targ_click.leftButton,targ_click.midButton,targ_click.rightButton,targ_click.time,targ_click.clicked_name,break_done_touch.x,break_done_touch.y,break_done_touch.leftButton,break_done_touch.midButton,break_done_touch.rightButton,break_done_keyboard.keys,maintrials.thisRepN,maintrials.thisTrialN,maintrials.thisN,maintrials.thisIndex,maintrials.ran,string,blur,study,lex,stim_path,break_done_touch.clicked_name,mouse_2.x,mouse_2.y,mouse_2.leftButton,mouse_2.midButton,mouse_2.rightButton,mouse_2.clicked_name,slider.response,slider.rt,trials.thisRepN,trials.thisTrialN,trials.thisN,trials.thisIndex,trials.ran,test_instructions.thisRepN,test_instructions.thisTrialN,test_instructions.thisN,test_instructions.thisIndex,test_instructions.ran,key_resp_3.keys,key_resp_3.corr,test_click.x,test_click.y,test_click.leftButton,test_click.midButton,test_click.rightButton,test_click.time,test_click.clicked_name,test_phase.thisRepN,test_phase.thisTrialN,test_phase.thisN,test_phase.thisIndex,test_phase.ran
,-0.069743227,-0.372310881,1,0,0,instr_done_button,0,0,0,0,1,1,instructions,"INSTRUCTIONS
At the start of each trial, look at the plus sign  (+) in the center of the screen.  This tells you that a trial is about to begin and where to look. Second, the plus sign will disappear and a string of letters will appear. Your task is to determine if the string of letters is a word or not. If the item is a word press the M key (on keyboard)  or touch the word button (phone/tablet).  If the item is not a word,  press the  Z key (on keyboard)  or touch the nonword button (on phone/tablet). 
Press the space bar or touch  continue.",0,,,39,2022-02-12_17h11.50.685,lexical_decision_task_DD_L4,2021.2.3,Linux aarch64,60.03842459,,,,,,,,,,,,,,,,,,,,,,,,,,,,,,,,,,,,,,,,,,,,,,,,,,,,,,,,,,,,,,,,,,,,,,,,,,,,,,,,,,
,-0.086398331,-0.42505209,1,0,0,instr_done_button,0,1,1,1,1,2,instructions,"If your device has a keyboard, press the 'Z' key for nonwords and the 'M' key for words.





Press the space bar or touch the button below to continue.",0,keyboard-example.gif,,39,2022-02-12_17h11.50.685,lexical_decision_task_DD_L4,2021.2.3,Linux aarch64,60.03842459,,,,,,,,,,,,,,,,,,,,,,,,,,,,,,,,,,,,,,,,,,,,,,,,,,,,,,,,,,,,,,,,,,,,,,,,,,,,,,,,,,
,-0.104903981,-0.378787907,1,0,0,instr_done_button,0,2,2,2,1,3,instructions,"If you are using a touchscreen only device, use the buttons on the screen. Do not use the mouse.





Press the space bar or touch the button below to continue.",0,touchscreen-example.gif,,39,2022-02-12_17h11.50.685,lexical_decision_task_DD_L4,2021.2.3,Linux aarch64,60.03842459,,,,,,,,,,,,,,,,,,,,,,,,,,,,,,,,,,,,,,,,,,,,,,,,,,,,,,,,,,,,,,,,,,,,,,,,,,,,,,,,,,
,-0.116932682,-0.391741959,1,0,0,instr_done_button,0,3,3,3,1,4,instructions,"It is very important that you respond as quickly and accurately as possible, as each letter string will only be on the screen for two seconds. If you do not respond within this time, the message 'Too slow!' will be displayed and the experiment will progress to the next letter string. The first 20 trials will be practice trials and you will receive feedback on your answers. 

Press the space bar or touch the button below to start the practice trials.",0,,,39,2022-02-12_17h11.50.685,lexical_decision_task_DD_L4,2021.2.3,Linux aarch64,60.03842459,,,,,,,,,,,,,,,,,,,,,,,,,,,,,,,,,,,,,,,,,,,,,,,,,,,,,,,,,,,,,,,,,,,,,,,,,,,,,,,,,,
,,,,,,,,,,,,,,,,,,39,2022-02-12_17h11.50.685,lexical_decision_task_DD_L4,2021.2.3,Linux aarch64,60.03842459,,0,0.338306844,-0.310317023,1,0,0,1.5931,button_right,1.5931,1,0,0,0,7,1,1001,VOLUME,m,,,,,,,,,,,,,,,,,,,,,,,,,,,,,,,,,,,,,,,,,,,,,,,,,,,,,,,,,,,,,,,
,,,,,,,,,,,,,,,,,,39,2022-02-12_17h11.50.685,lexical_decision_task_DD_L4,2021.2.3,Linux aarch64,60.03842459,,0,0.374392832,-0.335299659,1,0,0,0.9194,button_right,0.9194,1,0,1,1,3,1,1001,MATRIX,m,,,,,,,,,,,,,,,,,,,,,,,,,,,,,,,,,,,,,,,,,,,,,,,,,,,,,,,,,,,,,,,
,,,,,,,,,,,,,,,,,,39,2022-02-12_17h11.50.685,lexical_decision_task_DD_L4,2021.2.3,Linux aarch64,60.03842459,,0,-0.314018036,-0.317719205,1,0,0,1.2151,button_left,1.2151,1,0,2,2,8,1,1001,ASLERT,z,,,,,,,,,,,,,,,,,,,,,,,,,,,,,,,,,,,,,,,,,,,,,,,,,,,,,,,,,,,,,,,
,,,,,,,,,,,,,,,,,,39,2022-02-12_17h11.50.685,lexical_decision_task_DD_L4,2021.2.3,Linux aarch64,60.03842459,,0,0.358663078,-0.351029491,1,0,0,0.796,button_right,0.796,1,0,3,3,5,1,1001,OBTAIN,m,,,,,,,,,,,,,,,,,,,,,,,,,,,,,,,,,,,,,,,,,,,,,,,,,,,,,,,,,,,,,,,
,,,,,,,,,,,,,,,,,,39,2022-02-12_17h11.50.685,lexical_decision_task_DD_L4,2021.2.3,Linux aarch64,60.03842459,,0,-0.313092763,-0.272380334,1,0,0,1.1464,button_left,1.1464,1,0,4,4,13,1,1001,ROUPET,z,,,,,,,,,,,,,,,,,,,,,,,,,,,,,,,,,,,,,,,,,,,,,,,,,,,,,,,,,,,,,,,
,,,,,,,,,,,,,,,,,,39,2022-02-12_17h11.50.685,lexical_decision_task_DD_L4,2021.2.3,Linux aarch64,60.03842459,,0,-0.353805222,-0.264052762,1,0,0,0.9468,button_left,0.9468,1,0,5,5,15,1,1001,WHAISE,z,,,,,,,,,,,,,,,,,,,,,,,,,,,,,,,,,,,,,,,,,,,,,,,,,,,,,,,,,,,,,,,
,,,,,,,,,,,,,,,,,,39,2022-02-12_17h11.50.685,lexical_decision_task_DD_L4,2021.2.3,Linux aarch64,60.03842459,,0,0.358663078,-0.36860979,1,0,0,0.7409,button_right,0.7409,1,0,6,6,0,1,1001,UTOPIA,m,,,,,,,,,,,,,,,,,,,,,,,,,,,,,,,,,,,,,,,,,,,,,,,,,,,,,,,,,,,,,,,
,,,,,,,,,,,,,,,,,,39,2022-02-12_17h11.50.685,lexical_decision_task_DD_L4,2021.2.3,Linux aarch64,60.03842459,,0,-0.357506361,-0.319569828,1,0,0,1.3454,button_left,1.3454,1,0,7,7,10,1,1001,INLADE,z,,,,,,,,,,,,,,,,,,,,,,,,,,,,,,,,,,,,,,,,,,,,,,,,,,,,,,,,,,,,,,,
,,,,,,,,,,,,,,,,,,39,2022-02-12_17h11.50.685,lexical_decision_task_DD_L4,2021.2.3,Linux aarch64,60.03842459,,0,-0.322345588,-0.288110165,1,0,0,1.0138,button_left,1.0138,1,0,8,8,9,1,1001,FARINY,z,,,,,,,,,,,,,,,,,,,,,,,,,,,,,,,,,,,,,,,,,,,,,,,,,,,,,,,,,,,,,,,
,,,,,,,,,,,,,,,,,,39,2022-02-12_17h11.50.685,lexical_decision_task_DD_L4,2021.2.3,Linux aarch64,60.03842459,,0,-0.347328244,-0.308466399,1,0,0,1.2789,button_left,1.2789,1,0,9,9,14,1,1001,THRALE,z,,,,,,,,,,,,,,,,,,,,,,,,,,,,,,,,,,,,,,,,,,,,,,,,,,,,,,,,,,,,,,,
,,,,,,,,,,,,,,,,,,39,2022-02-12_17h11.50.685,lexical_decision_task_DD_L4,2021.2.3,Linux aarch64,60.03842459,,0,0.332755052,-0.284408996,1,0,0,0.699,button_right,0.699,1,0,10,10,1,1,1001,ADJUST,m,,,,,,,,,,,,,,,,,,,,,,,,,,,,,,,,,,,,,,,,,,,,,,,,,,,,,,,,,,,,,,,
,,,,,,,,,,,,,,,,,,39,2022-02-12_17h11.50.685,lexical_decision_task_DD_L4,2021.2.3,Linux aarch64,60.03842459,,0,0.334605598,-0.281633139,1,0,0,0.7126,button_right,0.7126,1,0,11,11,6,1,1001,ZOMBIE,m,,,,,,,,,,,,,,,,,,,,,,,,,,,,,,,,,,,,,,,,,,,,,,,,,,,,,,,,,,,,,,,
,,,,,,,,,,,,,,,,,,39,2022-02-12_17h11.50.685,lexical_decision_task_DD_L4,2021.2.3,Linux aarch64,60.03842459,,0,-0.316793893,-0.281633139,1,0,0,1.1035,button_left,1.1035,1,0,12,12,11,1,1001,RASHET,z,,,,,,,,,,,,,,,,,,,,,,,,,,,,,,,,,,,,,,,,,,,,,,,,,,,,,,,,,,,,,,,
,,,,,,,,,,,,,,,,,,39,2022-02-12_17h11.50.685,lexical_decision_task_DD_L4,2021.2.3,Linux aarch64,60.03842459,,0,0.371617053,-0.311242179,1,0,0,1.0468,button_right,1.0468,1,0,13,13,4,1,1001,SQUEAK,m,,,,,,,,,,,,,,,,,,,,,,,,,,,,,,,,,,,,,,,,,,,,,,,,,,,,,,,,,,,,,,,
,,,,,,,,,,,,,,,,,,39,2022-02-12_17h11.50.685,lexical_decision_task_DD_L4,2021.2.3,Linux aarch64,60.03842459,,0,0.370691663,-0.308466399,1,0,0,1.6305,button_right,1.6305,0,0,14,14,12,1,1001,SPRINY,z,,,,,,,,,,,,,,,,,,,,,,,,,,,,,,,,,,,,,,,,,,,,,,,,,,,,,,,,,,,,,,,
,,,,,,,,,,,,,,,,,,39,2022-02-12_17h11.50.685,lexical_decision_task_DD_L4,2021.2.3,Linux aarch64,60.03842459,,0,0.319801078,-0.305690464,1,0,0,0.9305,button_right,0.9305,1,0,15,15,2,1,1001,ALMOND,m,,,,,,,,,,,,,,,,,,,,,,,,,,,,,,,,,,,,,,,,,,,,,,,,,,,,,,,,,,,,,,,
,0.11438823,-0.413023349,1,0,0,instr_done_button,,,,,,1,end_of_practice,"You have completed the practice trials. During the experimental trials, you will not receive feedback. 
Before you begin, please ensure that you are in a comfortable and quiet location and will not be disturbed for about 15 minutes, as we cannot use your data if you do not complete all the trials. 
 When you are ready to start the experimental trials, please press space or touch the button below.",,,,39,2022-02-12_17h11.50.685,lexical_decision_task_DD_L4,2021.2.3,Linux aarch64,60.03842459,,,,,,,,,,,,,,,,,,,,0,0,0,0,1,,,,,,,,,,,,,,,,,,,,,,,,,,,,,,,,,,,,,,,,,,,,,,,,,,,,,,,,,,
,,,,,,,,,,,,,,,,,,39,2022-02-12_17h11.50.685,lexical_decision_task_DD_L4,2021.2.3,Linux aarch64,60.03842459,,,,,,,,,,0.7359,1,,,,,,,,,,,,,,,0,0.298519532,-0.32697201,1,0,0,0.7359,button_right_main,0.298519532,-0.32697201,1,0,0,,0,0,0,14,1,FENCE,LB,old,m,./images/FENCELB.png,,,,,,,,,,,,,,,,,,,,,,,,,,,,,,,,,
,,,,,,,,,,,,,,,,,,39,2022-02-12_17h11.50.685,lexical_decision_task_DD_L4,2021.2.3,Linux aarch64,60.03842459,,,,,,,,,,1.1703,1,,,,,,,,,,,,,,,0,0.329979195,-0.301989373,1,0,0,1.1703,button_right_main,0.329979195,-0.301989373,1,0,0,,0,1,1,78,1,BROOM,C,old,m,./images/BROOM.png,,,,,,,,,,,,,,,,,,,,,,,,,,,,,,,,,
,,,,,,,,,,,,,,,,,,39,2022-02-12_17h11.50.685,lexical_decision_task_DD_L4,2021.2.3,Linux aarch64,60.03842459,,,,,,,,,,1.0341,1,,,,,,,,,,,,,,,0,-0.33437427,-0.266828619,1,0,0,1.0341,button_left_main,-0.33437427,-0.266828619,1,0,0,,0,2,2,95,1,HANTY,LB,old,z,./images/HANTYLB.png,,,,,,,,,,,,,,,,,,,,,,,,,,,,,,,,,
,,,,,,,,,,,,,,,,,,39,2022-02-12_17h11.50.685,lexical_decision_task_DD_L4,2021.2.3,Linux aarch64,60.03842459,,,,,,,,,,0.9354,1,,,,,,,,,,,,,,,0,0.309622961,-0.291811256,1,0,0,0.9354,button_right_main,0.309622961,-0.291811256,1,0,0,,0,3,3,72,1,FLASK,C,old,m,./images/FLASK.png,,,,,,,,,,,,,,,,,,,,,,,,,,,,,,,,,
,,,,,,,,,,,,,,,,,,39,2022-02-12_17h11.50.685,lexical_decision_task_DD_L4,2021.2.3,Linux aarch64,60.03842459,,,,,,,,,,0.8142,1,,,,,,,,,,,,,,,0,0.30592187,-0.291811256,1,0,0,0.8142,button_right_main,0.30592187,-0.291811256,1,0,0,,0,4,4,34,1,RAZOR,HB,old,m,./images/RAZORHB.png,,,,,,,,,,,,,,,,,,,,,,,,,,,,,,,,,
,,,,,,,,,,,,,,,,,,39,2022-02-12_17h11.50.685,lexical_decision_task_DD_L4,2021.2.3,Linux aarch64,60.03842459,,,,,,,,,,0.7319,1,,,,,,,,,,,,,,,0,0.317025221,-0.288110165,1,0,0,0.7319,button_right_main,0.317025221,-0.288110165,1,0,0,,0,5,5,1,1,TOWEL,HB,old,m,./images/TOWELHB.png,,,,,,,,,,,,,,,,,,,,,,,,,,,,,,,,,
,,,,,,,,,,,,,,,,,,39,2022-02-12_17h11.50.685,lexical_decision_task_DD_L4,2021.2.3,Linux aarch64,60.03842459,,,,,,,,,,0.5645,1,,,,,,,,,,,,,,,0,0.325352793,-0.314018269,1,0,0,0.5645,button_right_main,0.325352793,-0.314018269,1,0,0,,0,6,6,23,1,CLOTH,LB,old,m,./images/CLOTHLB.png,,,,,,,,,,,,,,,,,,,,,,,,,,,,,,,,,
,,,,,,,,,,,,,,,,,,39,2022-02-12_17h11.50.685,lexical_decision_task_DD_L4,2021.2.3,Linux aarch64,60.03842459,,,,,,,,,,1.9677,1,,,,,,,,,,,,,,,0,0.325352793,-0.32049514,1,0,0,1.9677,button_right_main,0.325352793,-0.32049514,1,0,0,,0,7,7,49,1,BISHOP,HB,old,m,./images/BISHOPHB.png,,,,,,,,,,,,,,,,,,,,,,,,,,,,,,,,,
,,,,,,,,,,,,,,,,,,39,2022-02-12_17h11.50.685,lexical_decision_task_DD_L4,2021.2.3,Linux aarch64,60.03842459,,,,,,,,,,1.0338,1,,,,,,,,,,,,,,,0,-0.317719166,-0.293662035,1,0,0,1.0338,button_left_main,-0.317719166,-0.293662035,1,0,0,,0,8,8,160,1,VEETS,HB,old,z,./images/VEETSHB.png,,,,,,,,,,,,,,,,,,,,,,,,,,,,,,,,,
,,,,,,,,,,,,,,,,,,39,2022-02-12_17h11.50.685,lexical_decision_task_DD_L4,2021.2.3,Linux aarch64,60.03842459,,,,,,,,,,1.3158,1,,,,,,,,,,,,,,,0,0.378093923,-0.300138905,1,0,0,1.3158,button_right_main,0.378093923,-0.300138905,1,0,0,,0,9,9,68,1,VALLEY,LB,old,m,./images/VALLEYLB.png,,,,,,,,,,,,,,,,,,,,,,,,,,,,,,,,,
,,,,,,,,,,,,,,,,,,39,2022-02-12_17h11.50.685,lexical_decision_task_DD_L4,2021.2.3,Linux aarch64,60.03842459,,,,,,,,,,0.9327,1,,,,,,,,,,,,,,,0,-0.300138789,-0.307541088,1,0,0,0.9327,button_left_main,-0.300138789,-0.307541088,1,0,0,,0,10,10,107,1,FASKS,LB,old,z,./images/FASKSLB.png,,,,,,,,,,,,,,,,,,,,,,,,,,,,,,,,,
,,,,,,,,,,,,,,,,,,39,2022-02-12_17h11.50.685,lexical_decision_task_DD_L4,2021.2.3,Linux aarch64,60.03842459,,,,,,,,,,1.6501,1,,,,,,,,,,,,,,,0,0.350335429,-0.280707983,1,0,0,1.6501,button_right_main,0.350335429,-0.280707983,1,0,0,,0,11,11,56,1,HEATER,LB,old,m,./images/HEATERLB.png,,,,,,,,,,,,,,,,,,,,,,,,,,,,,,,,,
,,,,,,,,,,,,,,,,,,39,2022-02-12_17h11.50.685,lexical_decision_task_DD_L4,2021.2.3,Linux aarch64,60.03842459,,,,,,,,,,1.2507,1,,,,,,,,,,,,,,,0,0.322576935,-0.296437659,1,0,0,1.2507,button_right_main,0.322576935,-0.296437659,1,0,0,,0,12,12,64,1,BRIDE,HB,old,m,./images/BRIDEHB.png,,,,,,,,,,,,,,,,,,,,,,,,,,,,,,,,,
,,,,,,,,,,,,,,,,,,39,2022-02-12_17h11.50.685,lexical_decision_task_DD_L4,2021.2.3,Linux aarch64,60.03842459,,,,,,,,,,2.2547,0,,,,,,,,,,,,,,,0,0.370691663,-0.299213594,1,0,0,2.2547,button_right_main,0.370691663,-0.299213594,1,0,0,,0,13,13,100,1,DRIBS,HB,old,z,./images/DRIBSHB.png,,,,,,,,,,,,,,,,,,,,,,,,,,,,,,,,,
,,,,,,,,,,,,,,,,,,39,2022-02-12_17h11.50.685,lexical_decision_task_DD_L4,2021.2.3,Linux aarch64,60.03842459,,,,,,,,,,1.632,1,,,,,,,,,,,,,,,0,-0.282558393,-0.270529866,1,0,0,1.632,button_left_main,-0.282558393,-0.270529866,1,0,0,,0,14,14,158,1,EGECT,LB,old,z,./images/EGECTLB.png,,,,,,,,,,,,,,,,,,,,,,,,,,,,,,,,,
,,,,,,,,,,,,,,,,,,39,2022-02-12_17h11.50.685,lexical_decision_task_DD_L4,2021.2.3,Linux aarch64,60.03842459,,,,,,,,,,1.9502,1,,,,,,,,,,,,,,,0,-0.289960672,-0.314943425,1,0,0,1.9502,button_left_main,-0.289960672,-0.314943425,1,0,0,,0,15,15,136,1,WERVE,HB,old,z,./images/WERVEHB.png,,,,,,,,,,,,,,,,,,,,,,,,,,,,,,,,,
,,,,,,,,,,,,,,,,,,39,2022-02-12_17h11.50.685,lexical_decision_task_DD_L4,2021.2.3,Linux aarch64,60.03842459,,,,,,,,,,0.7649,1,,,,,,,,,,,,,,,0,0.338306844,-0.323270919,1,0,0,0.7649,button_right_main,0.338306844,-0.323270919,1,0,0,,0,16,16,15,1,COLLAR,C,old,m,./images/COLLAR.png,,,,,,,,,,,,,,,,,,,,,,,,,,,,,,,,,
,,,,,,,,,,,,,,,,,,39,2022-02-12_17h11.50.685,lexical_decision_task_DD_L4,2021.2.3,Linux aarch64,60.03842459,,,,,,,,,,0.9506,1,,,,,,,,,,,,,,,0,-0.318644458,-0.282558451,1,0,0,0.9506,button_left_main,-0.318644458,-0.282558451,1,0,0,,0,17,17,155,1,CANGY,LB,old,z,./images/CANGYLB.png,,,,,,,,,,,,,,,,,,,,,,,,,,,,,,,,,
,,,,,,,,,,,,,,,,,,39,2022-02-12_17h11.50.685,lexical_decision_task_DD_L4,2021.2.3,Linux aarch64,60.03842459,,,,,,,,,,1.5481,1,,,,,,,,,,,,,,,0,0.341082702,-0.279782594,1,0,0,1.5481,button_right_main,0.341082702,-0.279782594,1,0,0,,0,18,18,16,1,GRAPE,HB,old,m,./images/GRAPEHB.png,,,,,,,,,,,,,,,,,,,,,,,,,,,,,,,,,
,,,,,,,,,,,,,,,,,,39,2022-02-12_17h11.50.685,lexical_decision_task_DD_L4,2021.2.3,Linux aarch64,60.03842459,,,,,,,,,,1.4303,1,,,,,,,,,,,,,,,0,-0.353805222,-0.322345607,1,0,0,1.4303,button_left_main,-0.353805222,-0.322345607,1,0,0,,0,19,19,84,1,HAXES,C,old,z,./images/HAXES.png,,,,,,,,,,,,,,,,,,,,,,,,,,,,,,,,,
,,,,,,,,,,,,,,,,,,39,2022-02-12_17h11.50.685,lexical_decision_task_DD_L4,2021.2.3,Linux aarch64,60.03842459,,,,,,,,,,1.6152,1,,,,,,,,,,,,,,,0,0.397524923,-0.311242179,1,0,0,1.6152,button_right_main,0.397524923,-0.311242179,1,0,0,,0,20,20,43,1,STOOL,HB,old,m,./images/STOOLHB.png,,,,,,,,,,,,,,,,,,,,,,,,,,,,,,,,,
,,,,,,,,,,,,,,,,,,39,2022-02-12_17h11.50.685,lexical_decision_task_DD_L4,2021.2.3,Linux aarch64,60.03842459,,,,,,,,,,1.5494,1,,,,,,,,,,,,,,,0,-0.289960672,-0.285334308,1,0,0,1.5494,button_left_main,-0.289960672,-0.285334308,1,0,0,,0,21,21,91,1,SHENS,HB,old,z,./images/SHENSHB.png,,,,,,,,,,,,,,,,,,,,,,,,,,,,,,,,,
,,,,,,,,,,,,,,,,,,39,2022-02-12_17h11.50.685,lexical_decision_task_DD_L4,2021.2.3,Linux aarch64,60.03842459,,,,,,,,,,1.4674,1,,,,,,,,,,,,,,,0,-0.298288224,-0.289035477,1,0,0,1.4674,button_left_main,-0.298288224,-0.289035477,1,0,0,,0,22,22,108,1,GRUET,C,old,z,./images/GRUET.png,,,,,,,,,,,,,,,,,,,,,,,,,,,,,,,,,
,,,,,,,,,,,,,,,,,,39,2022-02-12_17h11.50.685,lexical_decision_task_DD_L4,2021.2.3,Linux aarch64,60.03842459,,,,,,,,,,0.8102,1,,,,,,,,,,,,,,,0,0.306847104,-0.328822633,1,0,0,0.8102,button_right_main,0.306847104,-0.328822633,1,0,0,,0,23,23,62,1,MAMMAL,LB,old,m,./images/MAMMALLB.png,,,,,,,,,,,,,,,,,,,,,,,,,,,,,,,,,
,,,,,,,,,,,,,,,,,,39,2022-02-12_17h11.50.685,lexical_decision_task_DD_L4,2021.2.3,Linux aarch64,60.03842459,,,,,,,,,,0.8662,1,,,,,,,,,,,,,,,0,-0.329747848,-0.360282296,1,0,0,0.8662,button_left_main,-0.329747848,-0.360282296,1,0,0,,0,24,24,97,1,CHIDS,HB,old,z,./images/CHIDSHB.png,,,,,,,,,,,,,,,,,,,,,,,,,,,,,,,,,
,,,,,,,,,,,,,,,,,,39,2022-02-12_17h11.50.685,lexical_decision_task_DD_L4,2021.2.3,Linux aarch64,60.03842459,,,,,,,,,,1.2664,1,,,,,,,,,,,,,,,0,-0.276081425,-0.317719205,1,0,0,1.2664,button_left_main,-0.276081425,-0.317719205,1,0,0,,0,25,25,144,1,NAIRY,C,old,z,./images/NAIRY.png,,,,,,,,,,,,,,,,,,,,,,,,,,,,,,,,,
,,,,,,,,,,,,,,,,,,39,2022-02-12_17h11.50.685,lexical_decision_task_DD_L4,2021.2.3,Linux aarch64,60.03842459,,,,,,,,,,1.265,1,,,,,,,,,,,,,,,0,0.284640324,-0.230742554,1,0,0,1.265,button_right_main,0.284640324,-0.230742554,1,0,0,,0,26,26,74,1,JUMPER,LB,old,m,./images/JUMPERLB.png,,,,,,,,,,,,,,,,,,,,,,,,,,,,,,,,,
,,,,,,,,,,,,,,,,,,39,2022-02-12_17h11.50.685,lexical_decision_task_DD_L4,2021.2.3,Linux aarch64,60.03842459,,,,,,,,,,0.6818,1,,,,,,,,,,,,,,,0,0.329979195,-0.276081425,1,0,0,0.6818,button_right_main,0.329979195,-0.276081425,1,0,0,,0,27,27,80,1,PLANET,LB,old,m,./images/PLANETLB.png,,,,,,,,,,,,,,,,,,,,,,,,,,,,,,,,,
,,,,,,,,,,,,,,,,,,39,2022-02-12_17h11.50.685,lexical_decision_task_DD_L4,2021.2.3,Linux aarch64,60.03842459,,,,,,,,,,1.1161,1,,,,,,,,,,,,,,,0,-0.363983339,-0.319569828,1,0,0,1.1161,button_left_main,-0.363983339,-0.319569828,1,0,0,,0,28,28,85,1,CHULK,HB,old,z,./images/CHULKHB.png,,,,,,,,,,,,,,,,,,,,,,,,,,,,,,,,,
,,,,,,,,,,,,,,,,,,39,2022-02-12_17h11.50.685,lexical_decision_task_DD_L4,2021.2.3,Linux aarch64,60.03842459,,,,,,,,,,0.9329,1,,,,,,,,,,,,,,,0,-0.299213497,-0.314943425,1,0,0,0.9329,button_left_main,-0.299213497,-0.314943425,1,0,0,,0,29,29,167,1,ZONET,LB,old,z,./images/ZONETLB.png,,,,,,,,,,,,,,,,,,,,,,,,,,,,,,,,,
,,,,,,,,,,,,,,,,,,39,2022-02-12_17h11.50.685,lexical_decision_task_DD_L4,2021.2.3,Linux aarch64,60.03842459,,,,,,,,,,0.6506,1,,,,,,,,,,,,,,,0,0.373467521,-0.32049514,1,0,0,0.6506,button_right_main,0.373467521,-0.32049514,1,0,0,,0,30,30,40,1,SNAKE,HB,old,m,./images/SNAKEHB.png,,,,,,,,,,,,,,,,,,,,,,,,,,,,,,,,,
,,,,,,,,,,,,,,,,,,39,2022-02-12_17h11.50.685,lexical_decision_task_DD_L4,2021.2.3,Linux aarch64,60.03842459,,,,,,,,,,0.8648,1,,,,,,,,,,,,,,,0,-0.271455003,-0.285334308,1,0,0,0.8648,button_left_main,-0.271455003,-0.285334308,1,0,0,,0,31,31,126,1,GUELS,C,old,z,./images/GUELS.png,,,,,,,,,,,,,,,,,,,,,,,,,,,,,,,,,
,,,,,,,,,,,,,,,,,,39,2022-02-12_17h11.50.685,lexical_decision_task_DD_L4,2021.2.3,Linux aarch64,60.03842459,,,,,,,,,,0.9005,1,,,,,,,,,,,,,,,0,-0.275156113,-0.295512347,1,0,0,0.9005,button_left_main,-0.275156113,-0.295512347,1,0,0,,0,32,32,123,1,SEDGE,C,old,z,./images/SEDGE.png,,,,,,,,,,,,,,,,,,,,,,,,,,,,,,,,,
,,,,,,,,,,,,,,,,,,39,2022-02-12_17h11.50.685,lexical_decision_task_DD_L4,2021.2.3,Linux aarch64,60.03842459,,,,,,,,,,0.8652,1,,,,,,,,,,,,,,,0,0.384570949,-0.301064062,1,0,0,0.8652,button_right_main,0.384570949,-0.301064062,1,0,0,,0,33,33,3,1,CRATER,C,old,m,./images/CRATER.png,,,,,,,,,,,,,,,,,,,,,,,,,,,,,,,,,
,,,,,,,,,,,,,,,,,,39,2022-02-12_17h11.50.685,lexical_decision_task_DD_L4,2021.2.3,Linux aarch64,60.03842459,,,,,,,,,,1.0324,1,,,,,,,,,,,,,,,0,-0.310316906,-0.306615776,1,0,0,1.0324,button_left_main,-0.310316906,-0.306615776,1,0,0,,0,34,34,119,1,PAFER,LB,old,z,./images/PAFERLB.png,,,,,,,,,,,,,,,,,,,,,,,,,,,,,,,,,
,,,,,,,,,,,,,,,,,,39,2022-02-12_17h11.50.685,lexical_decision_task_DD_L4,2021.2.3,Linux aarch64,60.03842459,,,,,,,,,,1.1648,1,,,,,,,,,,,,,,,0,-0.333448997,-0.296437659,1,0,0,1.1648,button_left_main,-0.333448997,-0.296437659,1,0,0,,0,35,35,154,1,THINT,HB,old,z,./images/THINTHB.png,,,,,,,,,,,,,,,,,,,,,,,,,,,,,,,,,
,,,,,,,,,,,,,,,,,,39,2022-02-12_17h11.50.685,lexical_decision_task_DD_L4,2021.2.3,Linux aarch64,60.03842459,,,,,,,,,,1.5824,1,,,,,,,,,,,,,,,0,-0.295512347,-0.253874645,1,0,0,1.5824,button_left_main,-0.295512347,-0.253874645,1,0,0,,0,36,36,150,1,NOOLS,C,old,z,./images/NOOLS.png,,,,,,,,,,,,,,,,,,,,,,,,,,,,,,,,,
,,,,,,,,,,,,,,,,,,39,2022-02-12_17h11.50.685,lexical_decision_task_DD_L4,2021.2.3,Linux aarch64,60.03842459,,,,,,,,,,1.2322,1,,,,,,,,,,,,,,,0,-0.353805222,-0.335299659,1,0,0,1.2322,button_left_main,-0.353805222,-0.335299659,1,0,0,,0,37,37,130,1,CRILL,HB,old,z,./images/CRILLHB.png,,,,,,,,,,,,,,,,,,,,,,,,,,,,,,,,,
,,,,,,,,,,,,,,,,,,39,2022-02-12_17h11.50.685,lexical_decision_task_DD_L4,2021.2.3,Linux aarch64,60.03842459,,,,,,,,,,0.8484,1,,,,,,,,,,,,,,,0,0.418806392,-0.307541088,1,0,0,0.8484,button_right_main,0.418806392,-0.307541088,1,0,0,,0,38,38,37,1,TIGER,HB,old,m,./images/TIGERHB.png,,,,,,,,,,,,,,,,,,,,,,,,,,,,,,,,,
,,,,,,,,,,,,,,,,,,39,2022-02-12_17h11.50.685,lexical_decision_task_DD_L4,2021.2.3,Linux aarch64,60.03842459,,,,,,,,,,0.85,1,,,,,,,,,,,,,,,0,0.368841196,-0.297362971,1,0,0,0.85,button_right_main,0.368841196,-0.297362971,1,0,0,,0,39,39,31,1,STEAK,HB,old,m,./images/STEAKHB.png,,,,,,,,,,,,,,,,,,,,,,,,,,,,,,,,,
,,,,,,,,,,,,,,,,,,39,2022-02-12_17h11.50.685,lexical_decision_task_DD_L4,2021.2.3,Linux aarch64,60.03842459,,,,,,,,,,0.9992,1,,,,,,,,,,,,,,,0,0.378093923,-0.296437659,1,0,0,0.9992,button_right_main,0.378093923,-0.296437659,1,0,0,,0,40,40,73,1,GLOVE,HB,old,m,./images/GLOVEHB.png,,,,,,,,,,,,,,,,,,,,,,,,,,,,,,,,,
,,,,,,,,,,,,,,,,,,39,2022-02-12_17h11.50.685,lexical_decision_task_DD_L4,2021.2.3,Linux aarch64,60.03842459,,,,,,,,,,1.2807,1,,,,,,,,,,,,,,,0,-0.339925975,-0.313092802,1,0,0,1.2807,button_left_main,0.081077983,-0.358431673,1,0,0,,0,41,41,140,1,DOVET,LB,old,z,./images/DOVETLB.png,break_done_button,,,,,,,,,,,,,,,,,,,,,,,,,,,,,,,,
,,,,,,,,,,,,,,,,,,39,2022-02-12_17h11.50.685,lexical_decision_task_DD_L4,2021.2.3,Linux aarch64,60.03842459,,,,,,,,,,0.865,1,,,,,,,,,,,,,,,0,-0.352879939,-0.313092802,1,0,0,0.865,button_left_main,-0.352879939,-0.313092802,1,0,0,,0,42,42,86,1,AIFED,LB,old,z,./images/AIFEDLB.png,,,,,,,,,,,,,,,,,,,,,,,,,,,,,,,,,
,,,,,,,,,,,,,,,,,,39,2022-02-12_17h11.50.685,lexical_decision_task_DD_L4,2021.2.3,Linux aarch64,60.03842459,,,,,,,,,,1.4154,1,,,,,,,,,,,,,,,0,-0.34177654,-0.28348384,1,0,0,1.4154,button_left_main,-0.34177654,-0.28348384,1,0,0,,0,43,43,106,1,CLUMS,HB,old,z,./images/CLUMSHB.png,,,,,,,,,,,,,,,,,,,,,,,,,,,,,,,,,
,,,,,,,,,,,,,,,,,,39,2022-02-12_17h11.50.685,lexical_decision_task_DD_L4,2021.2.3,Linux aarch64,60.03842459,,,,,,,,,,0.667,1,,,,,,,,,,,,,,,0,0.356812455,-0.294587191,1,0,0,0.667,button_right_main,0.356812455,-0.294587191,1,0,0,,0,44,44,47,1,LAGOON,LB,old,m,./images/LAGOONLB.png,,,,,,,,,,,,,,,,,,,,,,,,,,,,,,,,,
,,,,,,,,,,,,,,,,,,39,2022-02-12_17h11.50.685,lexical_decision_task_DD_L4,2021.2.3,Linux aarch64,60.03842459,,,,,,,,,,0.8476,1,,,,,,,,,,,,,,,0,0.31332413,-0.305690464,1,0,0,0.8476,button_right_main,0.31332413,-0.305690464,1,0,0,,0,45,45,81,1,DRILL,C,old,m,./images/DRILL.png,,,,,,,,,,,,,,,,,,,,,,,,,,,,,,,,,
,,,,,,,,,,,,,,,,,,39,2022-02-12_17h11.50.685,lexical_decision_task_DD_L4,2021.2.3,Linux aarch64,60.03842459,,,,,,,,,,0.933,1,,,,,,,,,,,,,,,0,-0.373236173,-0.291811256,1,0,0,0.933,button_left_main,-0.373236173,-0.291811256,1,0,0,,0,46,46,104,1,GITTY,LB,old,z,./images/GITTYLB.png,,,,,,,,,,,,,,,,,,,,,,,,,,,,,,,,,
,,,,,,,,,,,,,,,,,,39,2022-02-12_17h11.50.685,lexical_decision_task_DD_L4,2021.2.3,Linux aarch64,60.03842459,,,,,,,,,,1.3481,1,,,,,,,,,,,,,,,0,0.362364092,-0.298288282,1,0,0,1.3481,button_right_main,0.362364092,-0.298288282,1,0,0,,0,47,47,70,1,BANANA,HB,old,m,./images/BANANAHB.png,,,,,,,,,,,,,,,,,,,,,,,,,,,,,,,,,
,,,,,,,,,,,,,,,,,,39,2022-02-12_17h11.50.685,lexical_decision_task_DD_L4,2021.2.3,Linux aarch64,60.03842459,,,,,,,,,,1.5323,1,,,,,,,,,,,,,,,0,0.328128727,-0.33900075,1,0,0,1.5323,button_right_main,0.328128727,-0.33900075,1,0,0,,0,48,48,76,1,MIDGET,HB,old,m,./images/MIDGETHB.png,,,,,,,,,,,,,,,,,,,,,,,,,,,,,,,,,
,,,,,,,,,,,,,,,,,,39,2022-02-12_17h11.50.685,lexical_decision_task_DD_L4,2021.2.3,Linux aarch64,60.03842459,,,,,,,,,,0.9964,1,,,,,,,,,,,,,,,0,-0.33807541,-0.298288282,1,0,0,0.9964,button_left_main,-0.33807541,-0.298288282,1,0,0,,0,49,49,111,1,HOSSE,C,old,z,./images/HOSSE.png,,,,,,,,,,,,,,,,,,,,,,,,,,,,,,,,,
,,,,,,,,,,,,,,,,,,39,2022-02-12_17h11.50.685,lexical_decision_task_DD_L4,2021.2.3,Linux aarch64,60.03842459,,,,,,,,,,0.9832,1,,,,,,,,,,,,,,,0,0.341082702,-0.319569828,1,0,0,0.9832,button_right_main,0.341082702,-0.319569828,1,0,0,,0,50,50,53,1,POSTER,LB,old,m,./images/POSTERLB.png,,,,,,,,,,,,,,,,,,,,,,,,,,,,,,,,,
,,,,,,,,,,,,,,,,,,39,2022-02-12_17h11.50.685,lexical_decision_task_DD_L4,2021.2.3,Linux aarch64,60.03842459,,,,,,,,,,0.7457,1,,,,,,,,,,,,,,,0,0.379944547,-0.34177653,1,0,0,0.7457,button_right_main,0.379944547,-0.34177653,1,0,0,,0,51,51,79,1,RULER,HB,old,m,./images/RULERHB.png,,,,,,,,,,,,,,,,,,,,,,,,,,,,,,,,,
,,,,,,,,,,,,,,,,,,39,2022-02-12_17h11.50.685,lexical_decision_task_DD_L4,2021.2.3,Linux aarch64,60.03842459,,,,,,,,,,1.1634,1,,,,,,,,,,,,,,,0,0.354036598,-0.345477776,1,0,0,1.1634,button_right_main,0.354036598,-0.345477776,1,0,0,,0,52,52,7,1,WAGON,HB,old,m,./images/WAGONHB.png,,,,,,,,,,,,,,,,,,,,,,,,,,,,,,,,,
,,,,,,,,,,,,,,,,,,39,2022-02-12_17h11.50.685,lexical_decision_task_DD_L4,2021.2.3,Linux aarch64,60.03842459,,,,,,,,,,1.1149,1,,,,,,,,,,,,,,,0,-0.310316906,-0.315868582,1,0,0,1.1149,button_left_main,-0.310316906,-0.315868582,1,0,0,,0,53,53,127,1,NINDY,HB,old,z,./images/NINDYHB.png,,,,,,,,,,,,,,,,,,,,,,,,,,,,,,,,,
,,,,,,,,,,,,,,,,,,39,2022-02-12_17h11.50.685,lexical_decision_task_DD_L4,2021.2.3,Linux aarch64,60.03842459,,,,,,,,,,0.918,1,,,,,,,,,,,,,,,0,0.333680364,-0.291811256,1,0,0,0.918,button_right_main,0.333680364,-0.291811256,1,0,0,,0,54,54,4,1,BOXER,HB,old,m,./images/BOXERHB.png,,,,,,,,,,,,,,,,,,,,,,,,,,,,,,,,,
,,,,,,,,,,,,,,,,,,39,2022-02-12_17h11.50.685,lexical_decision_task_DD_L4,2021.2.3,Linux aarch64,60.03842459,,,,,,,,,,0.8818,1,,,,,,,,,,,,,,,0,0.352185975,-0.340851374,1,0,0,0.8818,button_right_main,0.352185975,-0.340851374,1,0,0,,0,55,55,27,1,BUTTER,C,old,m,./images/BUTTER.png,,,,,,,,,,,,,,,,,,,,,,,,,,,,,,,,,
,,,,,,,,,,,,,,,,,,39,2022-02-12_17h11.50.685,lexical_decision_task_DD_L4,2021.2.3,Linux aarch64,60.03842459,,,,,,,,,,0.6451,1,,,,,,,,,,,,,,,0,0.272611662,-0.289035477,1,0,0,0.6451,button_right_main,0.272611662,-0.289035477,1,0,0,,0,56,56,5,1,BAMBOO,LB,old,m,./images/BAMBOOLB.png,,,,,,,,,,,,,,,,,,,,,,,,,,,,,,,,,
,,,,,,,,,,,,,,,,,,39,2022-02-12_17h11.50.685,lexical_decision_task_DD_L4,2021.2.3,Linux aarch64,60.03842459,,,,,,,,,,0.6986,1,,,,,,,,,,,,,,,0,0.292967896,-0.282558451,1,0,0,0.6986,button_right_main,0.292967896,-0.282558451,1,0,0,,0,57,57,57,1,FERRY,C,old,m,./images/FERRY.png,,,,,,,,,,,,,,,,,,,,,,,,,,,,,,,,,
,,,,,,,,,,,,,,,,,,39,2022-02-12_17h11.50.685,lexical_decision_task_DD_L4,2021.2.3,Linux aarch64,60.03842459,,,,,,,,,,1.399,1,,,,,,,,,,,,,,,0,-0.340851257,-0.266828619,1,0,0,1.399,button_left_main,-0.340851257,-0.266828619,1,0,0,,0,58,58,115,1,MAWNS,HB,old,z,./images/MAWNSHB.png,,,,,,,,,,,,,,,,,,,,,,,,,,,,,,,,,
,,,,,,,,,,,,,,,,,,39,2022-02-12_17h11.50.685,lexical_decision_task_DD_L4,2021.2.3,Linux aarch64,60.03842459,,,,,,,,,,0.8494,1,,,,,,,,,,,,,,,0,-0.335299562,-0.318644516,1,0,0,0.8494,button_left_main,-0.335299562,-0.318644516,1,0,0,,0,59,59,163,1,GAMBA,HB,old,z,./images/GAMBAHB.png,,,,,,,,,,,,,,,,,,,,,,,,,,,,,,,,,
,,,,,,,,,,,,,,,,,,39,2022-02-12_17h11.50.685,lexical_decision_task_DD_L4,2021.2.3,Linux aarch64,60.03842459,,,,,,,,,,0.8665,1,,,,,,,,,,,,,,,0,0.345709027,-0.334374503,1,0,0,0.8665,button_right_main,0.345709027,-0.334374503,1,0,0,,0,60,60,19,1,DONKEY,HB,old,m,./images/DONKEYHB.png,,,,,,,,,,,,,,,,,,,,,,,,,,,,,,,,,
,,,,,,,,,,,,,,,,,,39,2022-02-12_17h11.50.685,lexical_decision_task_DD_L4,2021.2.3,Linux aarch64,60.03842459,,,,,,,,,,1.9939,1,,,,,,,,,,,,,,,0,0.324427481,-0.281633139,1,0,0,1.9939,button_right_main,0.324427481,-0.281633139,1,0,0,,0,61,61,71,1,BUBBLE,LB,old,m,./images/BUBBLELB.png,,,,,,,,,,,,,,,,,,,,,,,,,,,,,,,,,
,,,,,,,,,,,,,,,,,,39,2022-02-12_17h11.50.685,lexical_decision_task_DD_L4,2021.2.3,Linux aarch64,60.03842459,,,,,,,,,,1.0365,1,,,,,,,,,,,,,,,0,-0.331598413,-0.299213594,1,0,0,1.0365,button_left_main,-0.331598413,-0.299213594,1,0,0,,0,62,62,101,1,GLEET,LB,old,z,./images/GLEETLB.png,,,,,,,,,,,,,,,,,,,,,,,,,,,,,,,,,
,,,,,,,,,,,,,,,,,,39,2022-02-12_17h11.50.685,lexical_decision_task_DD_L4,2021.2.3,Linux aarch64,60.03842459,,,,,,,,,,2.9493,1,,,,,,,,,,,,,,,0,-0.33437427,-0.261276905,1,0,0,2.9493,button_left_main,-0.33437427,-0.261276905,1,0,0,,0,63,63,145,1,LAMEL,HB,old,z,./images/LAMELHB.png,,,,,,,,,,,,,,,,,,,,,,,,,,,,,,,,,
,,,,,,,,,,,,,,,,,,39,2022-02-12_17h11.50.685,lexical_decision_task_DD_L4,2021.2.3,Linux aarch64,60.03842459,,,,,,,,,,1.1318,1,,,,,,,,,,,,,,,0,-0.412098077,-0.281633139,1,0,0,1.1318,button_left_main,-0.412098077,-0.281633139,1,0,0,,0,64,64,102,1,DULLE,C,old,z,./images/DULLE.png,,,,,,,,,,,,,,,,,,,,,,,,,,,,,,,,,
,,,,,,,,,,,,,,,,,,39,2022-02-12_17h11.50.685,lexical_decision_task_DD_L4,2021.2.3,Linux aarch64,60.03842459,,,,,,,,,,1.032,1,,,,,,,,,,,,,,,0,0.342933169,-0.325121542,1,0,0,1.032,button_right_main,0.342933169,-0.325121542,1,0,0,,0,65,65,60,1,CURRY,C,old,m,./images/CURRY.png,,,,,,,,,,,,,,,,,,,,,,,,,,,,,,,,,
,,,,,,,,,,,,,,,,,,39,2022-02-12_17h11.50.685,lexical_decision_task_DD_L4,2021.2.3,Linux aarch64,60.03842459,,,,,,,,,,3.9369,1,,,,,,,,,,,,,,,0,-0.365833894,-0.289035477,1,0,0,3.9369,button_left_main,-0.365833894,-0.289035477,1,0,0,,0,66,66,120,1,RINED,C,old,z,./images/RINED.png,,,,,,,,,,,,,,,,,,,,,,,,,,,,,,,,,
,,,,,,,,,,,,,,,,,,39,2022-02-12_17h11.50.685,lexical_decision_task_DD_L4,2021.2.3,Linux aarch64,60.03842459,,,,,,,,,,2.4366,1,,,,,,,,,,,,,,,0,0.356812455,-0.322345607,1,0,0,2.4366,button_right_main,0.356812455,-0.322345607,1,0,0,,0,67,67,77,1,WHEEL,LB,old,m,./images/WHEELLB.png,,,,,,,,,,,,,,,,,,,,,,,,,,,,,,,,,
,,,,,,,,,,,,,,,,,,39,2022-02-12_17h11.50.685,lexical_decision_task_DD_L4,2021.2.3,Linux aarch64,60.03842459,,,,,,,,,,1.6713,1,,,,,,,,,,,,,,,0,-0.332523705,-0.334374503,1,0,0,1.6713,button_left_main,-0.332523705,-0.334374503,1,0,0,,0,68,68,138,1,PLICE,C,old,z,./images/PLICE.png,,,,,,,,,,,,,,,,,,,,,,,,,,,,,,,,,
,,,,,,,,,,,,,,,,,,39,2022-02-12_17h11.50.685,lexical_decision_task_DD_L4,2021.2.3,Linux aarch64,60.03842459,,,,,,,,,,1.5942,1,,,,,,,,,,,,,,,0,0.404001872,-0.21038632,1,0,0,1.5942,button_right_main,0.404001872,-0.21038632,1,0,0,,0,69,69,33,1,SAUNA,C,old,m,./images/SAUNA.png,,,,,,,,,,,,,,,,,,,,,,,,,,,,,,,,,
,,,,,,,,,,,,,,,,,,39,2022-02-12_17h11.50.685,lexical_decision_task_DD_L4,2021.2.3,Linux aarch64,60.03842459,,,,,,,,,,1.9828,1,,,,,,,,,,,,,,,0,-0.343627105,-0.323270919,1,0,0,1.9828,button_left_main,-0.343627105,-0.323270919,1,0,0,,0,70,70,114,1,RIKES,C,old,z,./images/RIKES.png,,,,,,,,,,,,,,,,,,,,,,,,,,,,,,,,,
,,,,,,,,,,,,,,,,,,39,2022-02-12_17h11.50.685,lexical_decision_task_DD_L4,2021.2.3,Linux aarch64,60.03842459,,,,,,,,,,2.8078,1,,,,,,,,,,,,,,,0,0.337381455,-0.351029491,1,0,0,2.8078,button_right_main,0.337381455,-0.351029491,1,0,0,,0,71,71,18,1,PARCEL,C,old,m,./images/PARCEL.png,,,,,,,,,,,,,,,,,,,,,,,,,,,,,,,,,
,,,,,,,,,,,,,,,,,,39,2022-02-12_17h11.50.685,lexical_decision_task_DD_L4,2021.2.3,Linux aarch64,60.03842459,,,,,,,,,,2.4504,1,,,,,,,,,,,,,,,0,-0.320495023,-0.264052762,1,0,0,2.4504,button_left_main,-0.320495023,-0.264052762,1,0,0,,0,72,72,153,1,CLUPS,C,old,z,./images/CLUPS.png,,,,,,,,,,,,,,,,,,,,,,,,,,,,,,,,,
,,,,,,,,,,,,,,,,,,39,2022-02-12_17h11.50.685,lexical_decision_task_DD_L4,2021.2.3,Linux aarch64,60.03842459,,,,,,,,,,1.8662,1,,,,,,,,,,,,,,,0,-0.317719166,-0.28348384,1,0,0,1.8662,button_left_main,-0.317719166,-0.28348384,1,0,0,,0,73,73,148,1,JOMS,HB,old,z,./images/JOMSHB.png,,,,,,,,,,,,,,,,,,,,,,,,,,,,,,,,,
,,,,,,,,,,,,,,,,,,39,2022-02-12_17h11.50.685,lexical_decision_task_DD_L4,2021.2.3,Linux aarch64,60.03842459,,,,,,,,,,7.1716,1,,,,,,,,,,,,,,,0,-0.389891277,-0.265903308,1,0,0,7.1716,button_left_main,-0.389891277,-0.265903308,1,0,0,,0,74,74,137,1,JOOST,LB,old,z,./images/JOOSTLB.png,,,,,,,,,,,,,,,,,,,,,,,,,,,,,,,,,
,,,,,,,,,,,,,,,,,,39,2022-02-12_17h11.50.685,lexical_decision_task_DD_L4,2021.2.3,Linux aarch64,60.03842459,,,,,,,,,,3.0037,1,,,,,,,,,,,,,,,0,0.366065261,-0.367684478,1,0,0,3.0037,button_right_main,0.366065261,-0.367684478,1,0,0,,0,75,75,65,1,SPINE,LB,old,m,./images/SPINELB.png,,,,,,,,,,,,,,,,,,,,,,,,,,,,,,,,,
,,,,,,,,,,,,,,,,,,39,2022-02-12_17h11.50.685,lexical_decision_task_DD_L4,2021.2.3,Linux aarch64,60.03842459,,,,,,,,,,3.3281,1,,,,,,,,,,,,,,,0,0.401226015,-0.319569828,1,0,0,3.3281,button_right_main,0.401226015,-0.319569828,1,0,0,,0,76,76,48,1,SHIELD,C,old,m,./images/SHIELD.png,,,,,,,,,,,,,,,,,,,,,,,,,,,,,,,,,
,,,,,,,,,,,,,,,,,,39,2022-02-12_17h11.50.685,lexical_decision_task_DD_L4,2021.2.3,Linux aarch64,60.03842459,,,,,,,,,,4.9704,1,,,,,,,,,,,,,,,0,-0.420425629,-0.373236193,1,0,0,4.9704,button_left_main,-0.420425629,-0.373236193,1,0,0,,0,77,77,112,1,MYING,HB,old,z,./images/MYINGHB.png,,,,,,,,,,,,,,,,,,,,,,,,,,,,,,,,,
,,,,,,,,,,,,,,,,,,39,2022-02-12_17h11.50.685,lexical_decision_task_DD_L4,2021.2.3,Linux aarch64,60.03842459,,,,,,,,,,1.6003,1,,,,,,,,,,,,,,,0,0.3956743,-0.301064062,1,0,0,1.6003,button_right_main,0.3956743,-0.301064062,1,0,0,,0,78,78,30,1,SLOPE,C,old,m,./images/SLOPE.png,,,,,,,,,,,,,,,,,,,,,,,,,,,,,,,,,
,,,,,,,,,,,,,,,,,,39,2022-02-12_17h11.50.685,lexical_decision_task_DD_L4,2021.2.3,Linux aarch64,60.03842459,,,,,,,,,,5.7247,1,,,,,,,,,,,,,,,0,-0.409322229,-0.329747945,1,0,0,5.7247,button_left_main,-0.409322229,-0.329747945,1,0,0,,0,79,79,94,1,BLANS,HB,old,z,./images/BLANSHB.png,,,,,,,,,,,,,,,,,,,,,,,,,,,,,,,,,
,,,,,,,,,,,,,,,,,,39,2022-02-12_17h11.50.685,lexical_decision_task_DD_L4,2021.2.3,Linux aarch64,60.03842459,,,,,,,,,,3.4837,1,,,,,,,,,,,,,,,0,0.369766429,-0.332523725,1,0,0,3.4837,button_right_main,0.369766429,-0.332523725,1,0,0,,0,80,80,54,1,CHERRY,C,old,m,./images/CHERRY.png,,,,,,,,,,,,,,,,,,,,,,,,,,,,,,,,,
,,,,,,,,,,,,,,,,,,39,2022-02-12_17h11.50.685,lexical_decision_task_DD_L4,2021.2.3,Linux aarch64,60.03842459,,,,,,,,,,0.7476,1,,,,,,,,,,,,,,,0,-0.331598413,-0.36860979,1,0,0,0.7476,button_left_main,-0.331598413,-0.36860979,1,0,0,,0,81,81,152,1,FRAIN,LB,old,z,./images/FRAINLB.png,,,,,,,,,,,,,,,,,,,,,,,,,,,,,,,,,
,,,,,,,,,,,,,,,,,,39,2022-02-12_17h11.50.685,lexical_decision_task_DD_L4,2021.2.3,Linux aarch64,60.03842459,,,,,,,,,,1.0839,1,,,,,,,,,,,,,,,0,-0.32327088,-0.273305723,1,0,0,1.0839,button_left_main,-0.32327088,-0.273305723,1,0,0,,0,82,82,156,1,HIXES,C,old,z,./images/HIXES.png,,,,,,,,,,,,,,,,,,,,,,,,,,,,,,,,,
,,,,,,,,,,,,,,,,,,39,2022-02-12_17h11.50.685,lexical_decision_task_DD_L4,2021.2.3,Linux aarch64,60.03842459,,,,,,,,,,1.9996,1,,,,,,,,,,,,,,,0,0.358663078,-0.293662035,1,0,0,1.9996,button_right_main,-0.004048044,-0.408396947,1,0,0,,0,83,83,6,1,STAIN,C,old,m,./images/STAIN.png,break_done_button,,,,,,,,,,,,,,,,,,,,,,,,,,,,,,,,
,,,,,,,,,,,,,,,,,,39,2022-02-12_17h11.50.685,lexical_decision_task_DD_L4,2021.2.3,Linux aarch64,60.03842459,,,,,,,,,,0.8934,1,,,,,,,,,,,,,,,0,-0.342701822,-0.317719205,1,0,0,0.8934,button_left_main,-0.342701822,-0.317719205,1,0,0,,0,84,84,134,1,TROSS,LB,old,z,./images/TROSSLB.png,,,,,,,,,,,,,,,,,,,,,,,,,,,,,,,,,
,,,,,,,,,,,,,,,,,,39,2022-02-12_17h11.50.685,lexical_decision_task_DD_L4,2021.2.3,Linux aarch64,60.03842459,,,,,,,,,,2.2184,1,,,,,,,,,,,,,,,0,0.342007858,-0.304765308,1,0,0,2.2184,button_right_main,0.342007858,-0.304765308,1,0,0,,0,85,85,58,1,CANOE,HB,old,m,./images/CANOEHB.png,,,,,,,,,,,,,,,,,,,,,,,,,,,,,,,,,
,,,,,,,,,,,,,,,,,,39,2022-02-12_17h11.50.685,lexical_decision_task_DD_L4,2021.2.3,Linux aarch64,60.03842459,,,,,,,,,,0.7817,1,,,,,,,,,,,,,,,0,-0.319569731,-0.339926062,1,0,0,0.7817,button_left_main,-0.319569731,-0.339926062,1,0,0,,0,86,86,105,1,MOKER,C,old,z,./images/MOKER.png,,,,,,,,,,,,,,,,,,,,,,,,,,,,,,,,,
,,,,,,,,,,,,,,,,,,39,2022-02-12_17h11.50.685,lexical_decision_task_DD_L4,2021.2.3,Linux aarch64,60.03842459,,,,,,,,,,1.7995,1,,,,,,,,,,,,,,,0,0.31332413,-0.264978074,1,0,0,1.7995,button_right_main,0.31332413,-0.264978074,1,0,0,,0,87,87,69,1,ARROW,C,old,m,./images/ARROW.png,,,,,,,,,,,,,,,,,,,,,,,,,,,,,,,,,
,,,,,,,,,,,,,,,,,,39,2022-02-12_17h11.50.685,lexical_decision_task_DD_L4,2021.2.3,Linux aarch64,60.03842459,,,,,,,,,,0.7662,1,,,,,,,,,,,,,,,0,0.280013922,-0.35380527,1,0,0,0.7662,button_right_main,0.280013922,-0.35380527,1,0,0,,0,88,88,63,1,BAKER,C,old,m,./images/BAKER.png,,,,,,,,,,,,,,,,,,,,,,,,,,,,,,,,,
,,,,,,,,,,,,,,,,,,39,2022-02-12_17h11.50.685,lexical_decision_task_DD_L4,2021.2.3,Linux aarch64,60.03842459,,,,,,,,,,2.8171,1,,,,,,,,,,,,,,,0,0.318875767,-0.295512347,1,0,0,2.8171,button_right_main,0.318875767,-0.295512347,1,0,0,,0,89,89,26,1,CLOUD,LB,old,m,./images/CLOUDLB.png,,,,,,,,,,,,,,,,,,,,,,,,,,,,,,,,,
,,,,,,,,,,,,,,,,,,39,2022-02-12_17h11.50.685,lexical_decision_task_DD_L4,2021.2.3,Linux aarch64,60.03842459,,,,,,,,,,5.4186,1,,,,,,,,,,,,,,,0,0.324427481,-0.32697201,1,0,0,5.4186,button_right_main,0.324427481,-0.32697201,1,0,0,,0,90,90,44,1,BASKET,LB,old,m,./images/BASKETLB.png,,,,,,,,,,,,,,,,,,,,,,,,,,,,,,,,,
,,,,,,,,,,,,,,,,,,39,2022-02-12_17h11.50.685,lexical_decision_task_DD_L4,2021.2.3,Linux aarch64,60.03842459,,,,,,,,,,0.8153,1,,,,,,,,,,,,,,,0,0.341082702,-0.337150127,1,0,0,0.8153,button_right_main,0.341082702,-0.337150127,1,0,0,,0,91,91,83,1,WHISKY,LB,old,m,./images/WHISKYLB.png,,,,,,,,,,,,,,,,,,,,,,,,,,,,,,,,,
,,,,,,,,,,,,,,,,,,39,2022-02-12_17h11.50.685,lexical_decision_task_DD_L4,2021.2.3,Linux aarch64,60.03842459,,,,,,,,,,0.7992,1,,,,,,,,,,,,,,,0,-0.319569731,-0.322345607,1,0,0,0.7992,button_left_main,-0.319569731,-0.322345607,1,0,0,,0,92,92,129,1,PRANS,C,old,z,./images/PRANS.png,,,,,,,,,,,,,,,,,,,,,,,,,,,,,,,,,
,,,,,,,,,,,,,,,,,,39,2022-02-12_17h11.50.685,lexical_decision_task_DD_L4,2021.2.3,Linux aarch64,60.03842459,,,,,,,,,,1.0018,1,,,,,,,,,,,,,,,0,-0.34177654,-0.333449036,1,0,0,1.0018,button_left_main,-0.34177654,-0.333449036,1,0,0,,0,93,93,147,1,ZOLES,C,old,z,./images/ZOLES.png,,,,,,,,,,,,,,,,,,,,,,,,,,,,,,,,,
,,,,,,,,,,,,,,,,,,39,2022-02-12_17h11.50.685,lexical_decision_task_DD_L4,2021.2.3,Linux aarch64,60.03842459,,,,,,,,,,2.1495,1,,,,,,,,,,,,,,,0,-0.259426321,-0.277006737,1,0,0,2.1495,button_left_main,-0.259426321,-0.277006737,1,0,0,,0,94,94,98,1,BAMPS,LB,old,z,./images/BAMPSLB.png,,,,,,,,,,,,,,,,,,,,,,,,,,,,,,,,,
,,,,,,,,,,,,,,,,,,39,2022-02-12_17h11.50.685,lexical_decision_task_DD_L4,2021.2.3,Linux aarch64,60.03842459,,,,,,,,,,0.8491,1,,,,,,,,,,,,,,,0,0.340157312,-0.304765308,1,0,0,0.8491,button_right_main,0.340157312,-0.304765308,1,0,0,,0,95,95,82,1,PEBBLE,HB,old,m,./images/PEBBLEHB.png,,,,,,,,,,,,,,,,,,,,,,,,,,,,,,,,,
,,,,,,,,,,,,,,,,,,39,2022-02-12_17h11.50.685,lexical_decision_task_DD_L4,2021.2.3,Linux aarch64,60.03842459,,,,,,,,,,0.7991,1,,,,,,,,,,,,,,,0,-0.298288224,-0.284408996,1,0,0,0.7991,button_left_main,-0.298288224,-0.284408996,1,0,0,,0,96,96,159,1,CUDDY,C,old,z,./images/CUDDY.png,,,,,,,,,,,,,,,,,,,,,,,,,,,,,,,,,
,,,,,,,,,,,,,,,,,,39,2022-02-12_17h11.50.685,lexical_decision_task_DD_L4,2021.2.3,Linux aarch64,60.03842459,,,,,,,,,,2.384,1,,,,,,,,,,,,,,,0,0.353111287,-0.288110165,1,0,0,2.384,button_right_main,0.353111287,-0.288110165,1,0,0,,0,97,97,52,1,DESERT,HB,old,m,./images/DESERTHB.png,,,,,,,,,,,,,,,,,,,,,,,,,,,,,,,,,
,,,,,,,,,,,,,,,,,,39,2022-02-12_17h11.50.685,lexical_decision_task_DD_L4,2021.2.3,Linux aarch64,60.03842459,,,,,,,,,,0.8503,1,,,,,,,,,,,,,,,0,0.302220701,-0.329747945,1,0,0,0.8503,button_right_main,0.302220701,-0.329747945,1,0,0,,0,98,98,75,1,HAMMER,C,old,m,./images/HAMMER.png,,,,,,,,,,,,,,,,,,,,,,,,,,,,,,,,,
,,,,,,,,,,,,,,,,,,39,2022-02-12_17h11.50.685,lexical_decision_task_DD_L4,2021.2.3,Linux aarch64,60.03842459,,,,,,,,,,1.5842,1,,,,,,,,,,,,,,,0,-0.296437659,-0.272380334,1,0,0,1.5842,button_left_main,-0.296437659,-0.272380334,1,0,0,,0,99,99,164,1,SGREW,LB,old,z,./images/SGREWLB.png,,,,,,,,,,,,,,,,,,,,,,,,,,,,,,,,,
,,,,,,,,,,,,,,,,,,39,2022-02-12_17h11.50.685,lexical_decision_task_DD_L4,2021.2.3,Linux aarch64,60.03842459,,,,,,,,,,1.1326,1,,,,,,,,,,,,,,,0,0.327203338,-0.265903308,1,0,0,1.1326,button_right_main,0.327203338,-0.265903308,1,0,0,,0,100,100,10,1,GARDEN,HB,old,m,./images/GARDENHB.png,,,,,,,,,,,,,,,,,,,,,,,,,,,,,,,,,
,,,,,,,,,,,,,,,,,,39,2022-02-12_17h11.50.685,lexical_decision_task_DD_L4,2021.2.3,Linux aarch64,60.03842459,,,,,,,,,,3.7747,1,,,,,,,,,,,,,,,0,-0.286259542,-0.293662035,1,0,0,3.7747,button_left_main,-0.286259542,-0.293662035,1,0,0,,0,101,101,90,1,NEAST,C,old,z,./images/NEAST.png,,,,,,,,,,,,,,,,,,,,,,,,,,,,,,,,,
,,,,,,,,,,,,,,,,,,39,2022-02-12_17h11.50.685,lexical_decision_task_DD_L4,2021.2.3,Linux aarch64,60.03842459,,,,,,,,,,3.7041,1,,,,,,,,,,,,,,,0,0.336456221,-0.324196386,1,0,0,3.7041,button_right_main,0.336456221,-0.324196386,1,0,0,,0,102,102,13,1,BUNNY,HB,old,m,./images/BUNNYHB.png,,,,,,,,,,,,,,,,,,,,,,,,,,,,,,,,,
,,,,,,,,,,,,,,,,,,39,2022-02-12_17h11.50.685,lexical_decision_task_DD_L4,2021.2.3,Linux aarch64,60.03842459,,,,,,,,,,3.6188,1,,,,,,,,,,,,,,,0,0.315174675,-0.317719205,1,0,0,3.6188,button_right_main,0.315174675,-0.317719205,1,0,0,,0,103,103,50,1,PILOT,LB,old,m,./images/PILOTLB.png,,,,,,,,,,,,,,,,,,,,,,,,,,,,,,,,,
,,,,,,,,,,,,,,,,,,39,2022-02-12_17h11.50.685,lexical_decision_task_DD_L4,2021.2.3,Linux aarch64,60.03842459,,,,,,,,,,0.88,1,,,,,,,,,,,,,,,0,-0.339925975,-0.292736568,1,0,0,0.88,button_left_main,-0.339925975,-0.292736568,1,0,0,,0,104,104,146,1,MOOST,LB,old,z,./images/MOOSTLB.png,,,,,,,,,,,,,,,,,,,,,,,,,,,,,,,,,
,,,,,,,,,,,,,,,,,,39,2022-02-12_17h11.50.685,lexical_decision_task_DD_L4,2021.2.3,Linux aarch64,60.03842459,,,,,,,,,,1.3493,1,,,,,,,,,,,,,,,0,-0.291811237,-0.343627153,1,0,0,1.3493,button_left_main,-0.291811237,-0.343627153,1,0,0,,0,105,105,124,1,TUNCH,HB,old,z,./images/TUNCHHB.png,,,,,,,,,,,,,,,,,,,,,,,,,,,,,,,,,
,,,,,,,,,,,,,,,,,,39,2022-02-12_17h11.50.685,lexical_decision_task_DD_L4,2021.2.3,Linux aarch64,60.03842459,,,,,,,,,,1.1994,1,,,,,,,,,,,,,,,0,0.32072639,-0.329747945,1,0,0,1.1994,button_right_main,0.32072639,-0.329747945,1,0,0,,0,106,106,17,1,PARADE,LB,old,m,./images/PARADELB.png,,,,,,,,,,,,,,,,,,,,,,,,,,,,,,,,,
,,,,,,,,,,,,,,,,,,39,2022-02-12_17h11.50.685,lexical_decision_task_DD_L4,2021.2.3,Linux aarch64,60.03842459,,,,,,,,,,1.1336,1,,,,,,,,,,,,,,,0,-0.278857263,-0.289035477,1,0,0,1.1336,button_left_main,-0.278857263,-0.289035477,1,0,0,,0,107,107,139,1,BLEAR,HB,old,z,./images/BLEARHB.png,,,,,,,,,,,,,,,,,,,,,,,,,,,,,,,,,
,,,,,,,,,,,,,,,,,,39,2022-02-12_17h11.50.685,lexical_decision_task_DD_L4,2021.2.3,Linux aarch64,60.03842459,,,,,,,,,,0.7491,1,,,,,,,,,,,,,,,0,0.327203338,-0.308466399,1,0,0,0.7491,button_right_main,0.327203338,-0.308466399,1,0,0,,0,108,108,61,1,ARTIST,HB,old,m,./images/ARTISTHB.png,,,,,,,,,,,,,,,,,,,,,,,,,,,,,,,,,
,,,,,,,,,,,,,,,,,,39,2022-02-12_17h11.50.685,lexical_decision_task_DD_L4,2021.2.3,Linux aarch64,60.03842459,,,,,,,,,,1.2836,1,,,,,,,,,,,,,,,0,-0.259426321,-0.28348384,1,0,0,1.2836,button_left_main,-0.259426321,-0.28348384,1,0,0,,0,109,109,165,1,TROWN,C,old,z,./images/TROWN.png,,,,,,,,,,,,,,,,,,,,,,,,,,,,,,,,,
,,,,,,,,,,,,,,,,,,39,2022-02-12_17h11.50.685,lexical_decision_task_DD_L4,2021.2.3,Linux aarch64,60.03842459,,,,,,,,,,2.1171,1,,,,,,,,,,,,,,,0,-0.326046699,-0.277006737,1,0,0,2.1171,button_left_main,-0.326046699,-0.277006737,1,0,0,,0,110,110,135,1,JOODY,C,old,z,./images/JOODY.png,,,,,,,,,,,,,,,,,,,,,,,,,,,,,,,,,
,,,,,,,,,,,,,,,,,,39,2022-02-12_17h11.50.685,lexical_decision_task_DD_L4,2021.2.3,Linux aarch64,60.03842459,,,,,,,,,,1.5345,1,,,,,,,,,,,,,,,0,-0.365833894,-0.305690464,1,0,0,1.5345,button_left_main,-0.365833894,-0.305690464,1,0,0,,0,111,111,113,1,LINEW,LB,old,z,./images/LINEWLB.png,,,,,,,,,,,,,,,,,,,,,,,,,,,,,,,,,
,,,,,,,,,,,,,,,,,,39,2022-02-12_17h11.50.685,lexical_decision_task_DD_L4,2021.2.3,Linux aarch64,60.03842459,,,,,,,,,,3.1677,1,,,,,,,,,,,,,,,0,-0.314943328,-0.319569828,1,0,0,3.1677,button_left_main,-0.314943328,-0.319569828,1,0,0,,0,112,112,99,1,BACKY,C,old,z,./images/BACKY.png,,,,,,,,,,,,,,,,,,,,,,,,,,,,,,,,,
,,,,,,,,,,,,,,,,,,39,2022-02-12_17h11.50.685,lexical_decision_task_DD_L4,2021.2.3,Linux aarch64,60.03842459,,,,,,,,,,0.7488,1,,,,,,,,,,,,,,,0,0.375318066,-0.275156191,1,0,0,0.7488,button_right_main,0.375318066,-0.275156191,1,0,0,,0,113,113,66,1,STATUE,C,old,m,./images/STATUE.png,,,,,,,,,,,,,,,,,,,,,,,,,,,,,,,,,
,,,,,,,,,,,,,,,,,,39,2022-02-12_17h11.50.685,lexical_decision_task_DD_L4,2021.2.3,Linux aarch64,60.03842459,,,,,,,,,,1.3681,1,,,,,,,,,,,,,,,0,0.347559572,-0.291811256,1,0,0,1.3681,button_right_main,0.347559572,-0.291811256,1,0,0,,0,114,114,20,1,GRANNY,LB,old,m,./images/GRANNYLB.png,,,,,,,,,,,,,,,,,,,,,,,,,,,,,,,,,
,,,,,,,,,,,,,,,,,,39,2022-02-12_17h11.50.685,lexical_decision_task_DD_L4,2021.2.3,Linux aarch64,60.03842459,,,,,,,,,,0.6331,1,,,,,,,,,,,,,,,0,0.306847104,-0.32049514,1,0,0,0.6331,button_right_main,0.306847104,-0.32049514,1,0,0,,0,115,115,25,1,CHALK,HB,old,m,./images/CHALKHB.png,,,,,,,,,,,,,,,,,,,,,,,,,,,,,,,,,
,,,,,,,,,,,,,,,,,,39,2022-02-12_17h11.50.685,lexical_decision_task_DD_L4,2021.2.3,Linux aarch64,60.03842459,,,,,,,,,,0.9338,1,,,,,,,,,,,,,,,0,-0.383414281,-0.362132764,1,0,0,0.9338,button_left_main,-0.383414281,-0.362132764,1,0,0,,0,116,116,122,1,BLOOT,LB,old,z,./images/BLOOTLB.png,,,,,,,,,,,,,,,,,,,,,,,,,,,,,,,,,
,,,,,,,,,,,,,,,,,,39,2022-02-12_17h11.50.685,lexical_decision_task_DD_L4,2021.2.3,Linux aarch64,60.03842459,,,,,,,,,,5.6043,1,,,,,,,,,,,,,,,0,0.340157312,-0.342701842,1,0,0,5.6043,button_right_main,0.340157312,-0.342701842,1,0,0,,0,117,117,22,1,CLOWN,HB,old,m,./images/CLOWNHB.png,,,,,,,,,,,,,,,,,,,,,,,,,,,,,,,,,
,,,,,,,,,,,,,,,,,,39,2022-02-12_17h11.50.685,lexical_decision_task_DD_L4,2021.2.3,Linux aarch64,60.03842459,,,,,,,,,,1.8325,0,,,,,,,,,,,,,,,0,-0.28163312,-0.327897322,1,0,0,1.8325,button_left_main,-0.28163312,-0.327897322,1,0,0,,0,118,118,35,1,LLAMA,LB,old,m,./images/LLAMALB.png,,,,,,,,,,,,,,,,,,,,,,,,,,,,,,,,,
,,,,,,,,,,,,,,,,,,39,2022-02-12_17h11.50.685,lexical_decision_task_DD_L4,2021.2.3,Linux aarch64,60.03842459,,,,,,,,,,1.3019,1,,,,,,,,,,,,,,,0,-0.301989354,-0.315868582,1,0,0,1.3019,button_left_main,-0.301989354,-0.315868582,1,0,0,,0,119,119,162,1,LEICH,C,old,z,./images/LEICH.png,,,,,,,,,,,,,,,,,,,,,,,,,,,,,,,,,
,,,,,,,,,,,,,,,,,,39,2022-02-12_17h11.50.685,lexical_decision_task_DD_L4,2021.2.3,Linux aarch64,60.03842459,,,,,,,,,,1.1313,1,,,,,,,,,,,,,,,0,0.379944547,-0.323270919,1,0,0,1.1313,button_right_main,0.379944547,-0.323270919,1,0,0,,0,120,120,12,1,BLOKE,C,old,m,./images/BLOKE.png,,,,,,,,,,,,,,,,,,,,,,,,,,,,,,,,,
,,,,,,,,,,,,,,,,,,39,2022-02-12_17h11.50.685,lexical_decision_task_DD_L4,2021.2.3,Linux aarch64,60.03842459,,,,,,,,,,0.5571,1,,,,,,,,,,,,,,,0,0.255956519,-0.319569828,1,0,0,0.5571,button_right_main,0.255956519,-0.319569828,1,0,0,,0,121,121,39,1,CANDY,C,old,m,./images/CANDY.png,,,,,,,,,,,,,,,,,,,,,,,,,,,,,,,,,
,,,,,,,,,,,,,,,,,,39,2022-02-12_17h11.50.685,lexical_decision_task_DD_L4,2021.2.3,Linux aarch64,60.03842459,,,,,,,,,,0.8504,1,,,,,,,,,,,,,,,0,-0.368609761,-0.331598413,1,0,0,0.8504,button_left_main,-0.368609761,-0.331598413,1,0,0,,0,122,122,116,1,BALGY,LB,old,z,./images/BALGYLB.png,,,,,,,,,,,,,,,,,,,,,,,,,,,,,,,,,
,,,,,,,,,,,,,,,,,,39,2022-02-12_17h11.50.685,lexical_decision_task_DD_L4,2021.2.3,Linux aarch64,60.03842459,,,,,,,,,,1.2319,1,,,,,,,,,,,,,,,0,-0.309391614,-0.311242179,1,0,0,1.2319,button_left_main,-0.309391614,-0.311242179,1,0,0,,0,123,123,118,1,BAVEL,HB,old,z,./images/BAVELHB.png,,,,,,,,,,,,,,,,,,,,,,,,,,,,,,,,,
,,,,,,,,,,,,,,,,,,39,2022-02-12_17h11.50.685,lexical_decision_task_DD_L4,2021.2.3,Linux aarch64,60.03842459,,,,,,,,,,0.9331,1,,,,,,,,,,,,,,,0,0.291117273,-0.33900075,1,0,0,0.9331,button_right_main,0.291117273,-0.33900075,1,0,0,,0,124,124,36,1,BOILER,C,old,m,./images/BOILER.png,,,,,,,,,,,,,,,,,,,,,,,,,,,,,,,,,
,,,,,,,,,,,,,,,,,,39,2022-02-12_17h11.50.685,lexical_decision_task_DD_L4,2021.2.3,Linux aarch64,60.03842459,,,,,,,,,,0.8685,1,,,,,,,,,,,,,,,0,0.275387519,-0.292736568,1,0,0,0.8685,button_right_main,0.049618321,-0.404695855,1,0,0,,0,125,125,29,1,PISTOL,LB,old,m,./images/PISTOLLB.png,break_done_button,,,,,,,,,,,,,,,,,,,,,,,,,,,,,,,,
,,,,,,,,,,,,,,,,,,39,2022-02-12_17h11.50.685,lexical_decision_task_DD_L4,2021.2.3,Linux aarch64,60.03842459,,,,,,,,,,4.3525,1,,,,,,,,,,,,,,,0,-0.311242179,-0.343627153,1,0,0,4.3525,button_left_main,-0.311242179,-0.343627153,1,0,0,,0,126,126,131,1,NACES,LB,old,z,./images/NACESLB.png,,,,,,,,,,,,,,,,,,,,,,,,,,,,,,,,,
,,,,,,,,,,,,,,,,,,39,2022-02-12_17h11.50.685,lexical_decision_task_DD_L4,2021.2.3,Linux aarch64,60.03842459,,,,,,,,,,1.2153,1,,,,,,,,,,,,,,,0,0.365139949,-0.314943425,1,0,0,1.2153,button_right_main,0.365139949,-0.314943425,1,0,0,,0,127,127,67,1,POKER,HB,old,m,./images/POKERHB.png,,,,,,,,,,,,,,,,,,,,,,,,,,,,,,,,,
,,,,,,,,,,,,,,,,,,39,2022-02-12_17h11.50.685,lexical_decision_task_DD_L4,2021.2.3,Linux aarch64,60.03842459,,,,,,,,,,1.0669,1,,,,,,,,,,,,,,,0,0.346634338,-0.289960788,1,0,0,1.0669,button_right_main,0.346634338,-0.289960788,1,0,0,,0,128,128,55,1,ALLEY,HB,old,m,./images/ALLEYHB.png,,,,,,,,,,,,,,,,,,,,,,,,,,,,,,,,,
,,,,,,,,,,,,,,,,,,39,2022-02-12_17h11.50.685,lexical_decision_task_DD_L4,2021.2.3,Linux aarch64,60.03842459,,,,,,,,,,0.8147,1,,,,,,,,,,,,,,,0,0.326278104,-0.296437659,1,0,0,0.8147,button_right_main,0.326278104,-0.296437659,1,0,0,,0,129,129,42,1,CHAIN,C,old,m,./images/CHAIN.png,,,,,,,,,,,,,,,,,,,,,,,,,,,,,,,,,
,,,,,,,,,,,,,,,,,,39,2022-02-12_17h11.50.685,lexical_decision_task_DD_L4,2021.2.3,Linux aarch64,60.03842459,,,,,,,,,,1.2438,1,,,,,,,,,,,,,,,0,0.312398818,-0.340851374,1,0,0,1.2438,button_right_main,0.312398818,-0.340851374,1,0,0,,0,130,130,2,1,STOVE,LB,old,m,./images/STOVELB.png,,,,,,,,,,,,,,,,,,,,,,,,,,,,,,,,,
,,,,,,,,,,,,,,,,,,39,2022-02-12_17h11.50.685,lexical_decision_task_DD_L4,2021.2.3,Linux aarch64,60.03842459,,,,,,,,,,1.0158,1,,,,,,,,,,,,,,,0,-0.308466341,-0.289960788,1,0,0,1.0158,button_left_main,-0.308466341,-0.289960788,1,0,0,,0,131,131,151,1,TINKY,HB,old,z,./images/TINKYHB.png,,,,,,,,,,,,,,,,,,,,,,,,,,,,,,,,,
,,,,,,,,,,,,,,,,,,39,2022-02-12_17h11.50.685,lexical_decision_task_DD_L4,2021.2.3,Linux aarch64,60.03842459,,,,,,,,,,3.8843,1,,,,,,,,,,,,,,,0,-0.289960672,-0.301989373,1,0,0,3.8843,button_left_main,-0.289960672,-0.301989373,1,0,0,,0,132,132,157,1,INLER,HB,old,z,./images/INLERHB.png,,,,,,,,,,,,,,,,,,,,,,,,,,,,,,,,,
,,,,,,,,,,,,,,,,,,39,2022-02-12_17h11.50.685,lexical_decision_task_DD_L4,2021.2.3,Linux aarch64,60.03842459,,,,,,,,,,1.097,1,,,,,,,,,,,,,,,0,-0.28533423,-0.265903308,1,0,0,1.097,button_left_main,-0.28533423,-0.265903308,1,0,0,,0,133,133,141,1,PLEET,C,old,z,./images/PLEET.png,,,,,,,,,,,,,,,,,,,,,,,,,,,,,,,,,
,,,,,,,,,,,,,,,,,,39,2022-02-12_17h11.50.685,lexical_decision_task_DD_L4,2021.2.3,Linux aarch64,60.03842459,,,,,,,,,,1.2156,1,,,,,,,,,,,,,,,0,0.355887144,-0.305690464,1,0,0,1.2156,button_right_main,0.355887144,-0.305690464,1,0,0,,0,134,134,28,1,CASINO,HB,old,m,./images/CASINOHB.png,,,,,,,,,,,,,,,,,,,,,,,,,,,,,,,,,
,,,,,,,,,,,,,,,,,,39,2022-02-12_17h11.50.685,lexical_decision_task_DD_L4,2021.2.3,Linux aarch64,60.03842459,,,,,,,,,,0.9648,1,,,,,,,,,,,,,,,0,0.310548273,-0.317719205,1,0,0,0.9648,button_right_main,0.310548273,-0.317719205,1,0,0,,0,135,135,41,1,STREAM,LB,old,m,./images/STREAMLB.png,,,,,,,,,,,,,,,,,,,,,,,,,,,,,,,,,
,,,,,,,,,,,,,,,,,,39,2022-02-12_17h11.50.685,lexical_decision_task_DD_L4,2021.2.3,Linux aarch64,60.03842459,,,,,,,,,,0.8322,1,,,,,,,,,,,,,,,0,0.32072639,-0.266828619,1,0,0,0.8322,button_right_main,0.32072639,-0.266828619,1,0,0,,0,136,136,32,1,HOCKEY,LB,old,m,./images/HOCKEYLB.png,,,,,,,,,,,,,,,,,,,,,,,,,,,,,,,,,
,,,,,,,,,,,,,,,,,,39,2022-02-12_17h11.50.685,lexical_decision_task_DD_L4,2021.2.3,Linux aarch64,60.03842459,,,,,,,,,,3.4353,1,,,,,,,,,,,,,,,0,-0.286259542,-0.313092802,1,0,0,3.4353,button_left_main,-0.286259542,-0.313092802,1,0,0,,0,137,137,166,1,SHORY,HB,old,z,./images/SHORYHB.png,,,,,,,,,,,,,,,,,,,,,,,,,,,,,,,,,
,,,,,,,,,,,,,,,,,,39,2022-02-12_17h11.50.685,lexical_decision_task_DD_L4,2021.2.3,Linux aarch64,60.03842459,,,,,,,,,,1.2255,1,,,,,,,,,,,,,,,0,-0.292736529,-0.266828619,1,0,0,1.2255,button_left_main,-0.292736529,-0.266828619,1,0,0,,0,138,138,96,1,KEAMS,C,old,z,./images/KEAMS.png,,,,,,,,,,,,,,,,,,,,,,,,,,,,,,,,,
,,,,,,,,,,,,,,,,,,39,2022-02-12_17h11.50.685,lexical_decision_task_DD_L4,2021.2.3,Linux aarch64,60.03842459,,,,,,,,,,1.4259,1,,,,,,,,,,,,,,,0,0.331829741,-0.315868582,1,0,0,1.4259,button_right_main,0.331829741,-0.315868582,1,0,0,,0,139,139,51,1,SAUCE,C,old,m,./images/SAUCE.png,,,,,,,,,,,,,,,,,,,,,,,,,,,,,,,,,
,,,,,,,,,,,,,,,,,,39,2022-02-12_17h11.50.685,lexical_decision_task_DD_L4,2021.2.3,Linux aarch64,60.03842459,,,,,,,,,,1.8822,1,,,,,,,,,,,,,,,0,-0.291811237,-0.328822633,1,0,0,1.8822,button_left_main,-0.291811237,-0.328822633,1,0,0,,0,140,140,143,1,MONGS,LB,old,z,./images/MONGSLB.png,,,,,,,,,,,,,,,,,,,,,,,,,,,,,,,,,
,,,,,,,,,,,,,,,,,,39,2022-02-12_17h11.50.685,lexical_decision_task_DD_L4,2021.2.3,Linux aarch64,60.03842459,,,,,,,,,,2.1018,1,,,,,,,,,,,,,,,0,0.328128727,-0.338075439,1,0,0,2.1018,button_right_main,0.328128727,-0.338075439,1,0,0,,0,141,141,46,1,MUMMY,HB,old,m,./images/MUMMYHB.png,,,,,,,,,,,,,,,,,,,,,,,,,,,,,,,,,
,,,,,,,,,,,,,,,,,,39,2022-02-12_17h11.50.685,lexical_decision_task_DD_L4,2021.2.3,Linux aarch64,60.03842459,,,,,,,,,,1.0477,1,,,,,,,,,,,,,,,0,-0.260351594,-0.308466399,1,0,0,1.0477,button_left_main,-0.260351594,-0.308466399,1,0,0,,0,142,142,149,1,VEASE,LB,old,z,./images/VEASELB.png,,,,,,,,,,,,,,,,,,,,,,,,,,,,,,,,,
,,,,,,,,,,,,,,,,,,39,2022-02-12_17h11.50.685,lexical_decision_task_DD_L4,2021.2.3,Linux aarch64,60.03842459,,,,,,,,,,0.7155,1,,,,,,,,,,,,,,,0,0.361438936,-0.345477776,1,0,0,0.7155,button_right_main,0.361438936,-0.345477776,1,0,0,,0,143,143,59,1,BRUSH,LB,old,m,./images/BRUSHLB.png,,,,,,,,,,,,,,,,,,,,,,,,,,,,,,,,,
,,,,,,,,,,,,,,,,,,39,2022-02-12_17h11.50.685,lexical_decision_task_DD_L4,2021.2.3,Linux aarch64,60.03842459,,,,,,,,,,0.9488,1,,,,,,,,,,,,,,,0,-0.315868582,-0.302914685,1,0,0,0.9488,button_left_main,-0.315868582,-0.302914685,1,0,0,,0,144,144,88,1,GLUSH,HB,old,z,./images/GLUSHHB.png,,,,,,,,,,,,,,,,,,,,,,,,,,,,,,,,,
,,,,,,,,,,,,,,,,,,39,2022-02-12_17h11.50.685,lexical_decision_task_DD_L4,2021.2.3,Linux aarch64,60.03842459,,,,,,,,,,0.6814,1,,,,,,,,,,,,,,,0,0.300370156,-0.301064062,1,0,0,0.6814,button_right_main,0.300370156,-0.301064062,1,0,0,,0,145,145,21,1,DANCER,C,old,m,./images/DANCER.png,,,,,,,,,,,,,,,,,,,,,,,,,,,,,,,,,
,,,,,,,,,,,,,,,,,,39,2022-02-12_17h11.50.685,lexical_decision_task_DD_L4,2021.2.3,Linux aarch64,60.03842459,,,,,,,,,,1.033,1,,,,,,,,,,,,,,,0,-0.275156113,-0.286259542,1,0,0,1.033,button_left_main,-0.275156113,-0.286259542,1,0,0,,0,146,146,103,1,FLORT,HB,old,z,./images/FLORTHB.png,,,,,,,,,,,,,,,,,,,,,,,,,,,,,,,,,
,,,,,,,,,,,,,,,,,,39,2022-02-12_17h11.50.685,lexical_decision_task_DD_L4,2021.2.3,Linux aarch64,60.03842459,,,,,,,,,,1.7835,1,,,,,,,,,,,,,,,0,0.329979195,-0.347328244,1,0,0,1.7835,button_right_main,0.329979195,-0.347328244,1,0,0,,0,147,147,11,1,MEDAL,LB,old,m,./images/MEDALLB.png,,,,,,,,,,,,,,,,,,,,,,,,,,,,,,,,,
,,,,,,,,,,,,,,,,,,39,2022-02-12_17h11.50.685,lexical_decision_task_DD_L4,2021.2.3,Linux aarch64,60.03842459,,,,,,,,,,1.4304,1,,,,,,,,,,,,,,,0,0.345709027,-0.32697201,1,0,0,1.4304,button_right_main,0.345709027,-0.32697201,1,0,0,,0,148,148,24,1,FLESH,C,old,m,./images/FLESH.png,,,,,,,,,,,,,,,,,,,,,,,,,,,,,,,,,
,,,,,,,,,,,,,,,,,,39,2022-02-12_17h11.50.685,lexical_decision_task_DD_L4,2021.2.3,Linux aarch64,60.03842459,,,,,,,,,,0.9392,1,,,,,,,,,,,,,,,0,-0.296437659,-0.289035477,1,0,0,0.9392,button_left_main,-0.296437659,-0.289035477,1,0,0,,0,149,149,128,1,GRIFT,LB,old,z,./images/GRIFTLB.png,,,,,,,,,,,,,,,,,,,,,,,,,,,,,,,,,
,,,,,,,,,,,,,,,,,,39,2022-02-12_17h11.50.685,lexical_decision_task_DD_L4,2021.2.3,Linux aarch64,60.03842459,,,,,,,,,,3.0003,1,,,,,,,,,,,,,,,0,-0.272380276,-0.300138905,1,0,0,3.0003,button_left_main,-0.272380276,-0.300138905,1,0,0,,0,150,150,92,1,PAIMS,LB,old,z,./images/PAIMSLB.png,,,,,,,,,,,,,,,,,,,,,,,,,,,,,,,,,
,,,,,,,,,,,,,,,,,,39,2022-02-12_17h11.50.685,lexical_decision_task_DD_L4,2021.2.3,Linux aarch64,60.03842459,,,,,,,,,,2.5335,1,,,,,,,,,,,,,,,0,-0.279782555,-0.314018269,1,0,0,2.5335,button_left_main,-0.279782555,-0.314018269,1,0,0,,0,151,151,133,1,POWDY,HB,old,z,./images/POWDYHB.png,,,,,,,,,,,,,,,,,,,,,,,,,,,,,,,,,
,,,,,,,,,,,,,,,,,,39,2022-02-12_17h11.50.685,lexical_decision_task_DD_L4,2021.2.3,Linux aarch64,60.03842459,,,,,,,,,,0.7812,1,,,,,,,,,,,,,,,0,0.365139949,-0.260351749,1,0,0,0.7812,button_right_main,0.365139949,-0.260351749,1,0,0,,0,152,152,38,1,ENGINE,LB,old,m,./images/ENGINELB.png,,,,,,,,,,,,,,,,,,,,,,,,,,,,,,,,,
,,,,,,,,,,,,,,,,,,39,2022-02-12_17h11.50.685,lexical_decision_task_DD_L4,2021.2.3,Linux aarch64,60.03842459,,,,,,,,,,1.6151,1,,,,,,,,,,,,,,,0,-0.266828561,-0.314943425,1,0,0,1.6151,button_left_main,-0.266828561,-0.314943425,1,0,0,,0,153,153,161,1,BLAPS,LB,old,z,./images/BLAPSLB.png,,,,,,,,,,,,,,,,,,,,,,,,,,,,,,,,,
,,,,,,,,,,,,,,,,,,39,2022-02-12_17h11.50.685,lexical_decision_task_DD_L4,2021.2.3,Linux aarch64,60.03842459,,,,,,,,,,0.9546,1,,,,,,,,,,,,,,,0,-0.301989354,-0.295512347,1,0,0,0.9546,button_left_main,-0.301989354,-0.295512347,1,0,0,,0,154,154,109,1,BURGE,HB,old,z,./images/BURGEHB.png,,,,,,,,,,,,,,,,,,,,,,,,,,,,,,,,,
,,,,,,,,,,,,,,,,,,39,2022-02-12_17h11.50.685,lexical_decision_task_DD_L4,2021.2.3,Linux aarch64,60.03842459,,,,,,,,,,1.9162,1,,,,,,,,,,,,,,,0,-0.344552387,-0.289960788,1,0,0,1.9162,button_left_main,-0.344552387,-0.289960788,1,0,0,,0,155,155,87,1,TRING,C,old,z,./images/TRING.png,,,,,,,,,,,,,,,,,,,,,,,,,,,,,,,,,
,,,,,,,,,,,,,,,,,,39,2022-02-12_17h11.50.685,lexical_decision_task_DD_L4,2021.2.3,Linux aarch64,60.03842459,,,,,,,,,,0.7809,1,,,,,,,,,,,,,,,0,-0.344552387,-0.296437659,1,0,0,0.7809,button_left_main,-0.344552387,-0.296437659,1,0,0,,0,156,156,132,1,SCIFF,C,old,z,./images/SCIFF.png,,,,,,,,,,,,,,,,,,,,,,,,,,,,,,,,,
,,,,,,,,,,,,,,,,,,39,2022-02-12_17h11.50.685,lexical_decision_task_DD_L4,2021.2.3,Linux aarch64,60.03842459,,,,,,,,,,2.5507,1,,,,,,,,,,,,,,,0,0.252255428,-0.301064062,1,0,0,2.5507,button_right_main,0.252255428,-0.301064062,1,0,0,,0,157,157,8,1,CLIFF,LB,old,m,./images/CLIFFLB.png,,,,,,,,,,,,,,,,,,,,,,,,,,,,,,,,,
,,,,,,,,,,,,,,,,,,39,2022-02-12_17h11.50.685,lexical_decision_task_DD_L4,2021.2.3,Linux aarch64,60.03842459,,,,,,,,,,1.1658,1,,,,,,,,,,,,,,,0,-0.336224816,-0.260351749,1,0,0,1.1658,button_left_main,-0.336224816,-0.260351749,1,0,0,,0,158,158,89,1,DRIEK,LB,old,z,./images/DRIEKLB.png,,,,,,,,,,,,,,,,,,,,,,,,,,,,,,,,,
,,,,,,,,,,,,,,,,,,39,2022-02-12_17h11.50.685,lexical_decision_task_DD_L4,2021.2.3,Linux aarch64,60.03842459,,,,,,,,,,0.8813,1,,,,,,,,,,,,,,,0,-0.325121445,-0.314018269,1,0,0,0.8813,button_left_main,-0.325121445,-0.314018269,1,0,0,,0,159,159,93,1,SMONE,C,old,z,./images/SMONE.png,,,,,,,,,,,,,,,,,,,,,,,,,,,,,,,,,
,,,,,,,,,,,,,,,,,,39,2022-02-12_17h11.50.685,lexical_decision_task_DD_L4,2021.2.3,Linux aarch64,60.03842459,,,,,,,,,,0.915,1,,,,,,,,,,,,,,,0,0.385496183,-0.307541088,1,0,0,0.915,button_right_main,0.385496183,-0.307541088,1,0,0,,0,160,160,9,1,DIVER,C,old,m,./images/DIVER.png,,,,,,,,,,,,,,,,,,,,,,,,,,,,,,,,,
,,,,,,,,,,,,,,,,,,39,2022-02-12_17h11.50.685,lexical_decision_task_DD_L4,2021.2.3,Linux aarch64,60.03842459,,,,,,,,,,1.1318,1,,,,,,,,,,,,,,,0,0.363289404,-0.306615776,1,0,0,1.1318,button_right_main,0.363289404,-0.306615776,1,0,0,,0,161,161,0,1,WALNUT,C,old,m,./images/WALNUT.png,,,,,,,,,,,,,,,,,,,,,,,,,,,,,,,,,
,,,,,,,,,,,,,,,,,,39,2022-02-12_17h11.50.685,lexical_decision_task_DD_L4,2021.2.3,Linux aarch64,60.03842459,,,,,,,,,,2.5702,1,,,,,,,,,,,,,,,0,0.328128727,-0.333449036,1,0,0,2.5702,button_right_main,0.328128727,-0.333449036,1,0,0,,0,162,162,45,1,MONKEY,C,old,m,./images/MONKEY.png,,,,,,,,,,,,,,,,,,,,,,,,,,,,,,,,,
,,,,,,,,,,,,,,,,,,39,2022-02-12_17h11.50.685,lexical_decision_task_DD_L4,2021.2.3,Linux aarch64,60.03842459,,,,,,,,,,3.5509,1,,,,,,,,,,,,,,,0,-0.295512347,-0.301989373,1,0,0,3.5509,button_left_main,-0.295512347,-0.301989373,1,0,0,,0,163,163,142,1,PLASK,HB,old,z,./images/PLASKHB.png,,,,,,,,,,,,,,,,,,,,,,,,,,,,,,,,,
,,,,,,,,,,,,,,,,,,39,2022-02-12_17h11.50.685,lexical_decision_task_DD_L4,2021.2.3,Linux aarch64,60.03842459,,,,,,,,,,2.0172,1,,,,,,,,,,,,,,,0,-0.314018036,-0.299213594,1,0,0,2.0172,button_left_main,-0.314018036,-0.299213594,1,0,0,,0,164,164,117,1,STEEG,C,old,z,./images/STEEG.png,,,,,,,,,,,,,,,,,,,,,,,,,,,,,,,,,
,,,,,,,,,,,,,,,,,,39,2022-02-12_17h11.50.685,lexical_decision_task_DD_L4,2021.2.3,Linux aarch64,60.03842459,,,,,,,,,,2.5837,1,,,,,,,,,,,,,,,0,-0.296437659,-0.308466399,1,0,0,2.5837,button_left_main,-0.296437659,-0.308466399,1,0,0,,0,165,165,125,1,MOOKY,LB,old,z,./images/MOOKYLB.png,,,,,,,,,,,,,,,,,,,,,,,,,,,,,,,,,
,,,,,,,,,,,,,,,,,,39,2022-02-12_17h11.50.685,lexical_decision_task_DD_L4,2021.2.3,Linux aarch64,60.03842459,,,,,,,,,,0.8616,1,,,,,,,,,,,,,,,0,-0.331598413,-0.264052762,1,0,0,0.8616,button_left_main,-0.331598413,-0.264052762,1,0,0,,0,166,166,121,1,CEERS,HB,old,z,./images/CEERSHB.png,,,,,,,,,,,,,,,,,,,,,,,,,,,,,,,,,
,,,,,,,,,,,,,,,,,,39,2022-02-12_17h11.50.685,lexical_decision_task_DD_L4,2021.2.3,Linux aarch64,60.03842459,,,,,,,,,,2.9497,1,,,,,,,,,,,,,,,0,-0.306615776,-0.31216749,1,0,0,2.9497,button_left_main,-0.306615776,-0.31216749,1,0,0,,0,167,167,110,1,CRUNK,LB,old,z,./images/CRUNKLB.png,,,,,,,,,,,,,,,,,,,,,,,,,,,,,,,,,
,,,,,,,,,,,,,,,,,,39,2022-02-12_17h11.50.685,lexical_decision_task_DD_L4,2021.2.3,Linux aarch64,60.03842459,,,,,,,,,,,,,,,,,,,,,,,,,,,,,,,,,,,,,,,,,,,,,,How likely will it be that you will recognize the words presented slighly blurred on a scale of 0 (not likely) to 100 (most likely)?,,,,,-0.031806616,-0.42505209,1,0,0,jol_adv,4,3.3438,0,0,0,1,1,,,,,,,,,,,,,,,,,,,
,,,,,,,,,,,,,,,,,,39,2022-02-12_17h11.50.685,lexical_decision_task_DD_L4,2021.2.3,Linux aarch64,60.03842459,,,,,,,,,,,,,,,,,,,,,,,,,,,,,,,,,,,,,,,,,,,,,,How likely will it be that you will recognize the words presented very blurred on a scale of 0 (not likely) to 100 (most likely)?,,,,,,,,,,,3,3.3098,0,1,1,2,1,,,,,,,,,,,,,,,,,,,
,,,,,,,,,,,,,,,,,,39,2022-02-12_17h11.50.685,lexical_decision_task_DD_L4,2021.2.3,Linux aarch64,60.03842459,,,,,,,,,,,,,,,,,,,,,,,,,,,,,,,,,,,,,,,,,,,,,,How likely will it be that you will recognize the words presented clearly on a scale of 0 (not likely) to 100 (most likely)?,,,,,,,,,,,5,2.9168,0,2,2,0,1,,,,,,,,,,,,,,,,,,,
,0.083853879,-0.403770544,1,0,0,instr_done_button,,,,,,1,test,"In the next phase you will be presented with the words from the the first phase. Your job is to decide whether you remember seeing the word or not. If you remember seeing the word press ""old"" or type ""m"". If you do not remember seeing the word press ""new"" or type ""z"". Please press the space bar or click on continue to begin. ",,,,39,2022-02-12_17h11.50.685,lexical_decision_task_DD_L4,2021.2.3,Linux aarch64,60.03842459,,,,,,,,,,,,,,,,,,,,,,,,,,,,,,,,,,,,,,,,,,,,,,,,,,,,,,,,,,,,,,,,0,0,0,0,1,,,,,,,,,,,,,,
,-0.000346953,-0.403770544,1,0,0,instr_done_button,,,,,,1,test,"In the next phase you will be presented with the words from the the first phase. Your job is to decide whether you remember seeing the word or not. If you remember seeing the word press ""old"" or type ""m"". If you do not remember seeing the word press ""new"" or type ""z"". Please press the space bar or click on continue to begin. ",,,,39,2022-02-12_17h11.50.685,lexical_decision_task_DD_L4,2021.2.3,Linux aarch64,60.03842459,,,,,,,,,,,,,,,,,,,,,,,,,,,,,,,,,,,,,,,,,,,,,,,,,,,,,,,,,,,,,,,,1,0,1,0,1,,,,,,,,,,,,,,
,0.057020658,-0.414873972,1,0,0,instr_done_button,,,,,,1,test,"In the next phase you will be presented with the words from the the first phase. Your job is to decide whether you remember seeing the word or not. If you remember seeing the word press ""old"" or type ""m"". If you do not remember seeing the word press ""new"" or type ""z"". Please press the space bar or click on continue to begin. ",,,,39,2022-02-12_17h11.50.685,lexical_decision_task_DD_L4,2021.2.3,Linux aarch64,60.03842459,,,,,,,,,,,,,,,,,,,,,,,,,,,,,,,,,,,,,,,,,,,,,,,,,,,,,,,,,,,,,,,,2,0,2,0,1,,,,,,,,,,,,,,
,0.010756437,-0.423201466,1,0,0,instr_done_button,,,,,,1,test,"In the next phase you will be presented with the words from the the first phase. Your job is to decide whether you remember seeing the word or not. If you remember seeing the word press ""old"" or type ""m"". If you do not remember seeing the word press ""new"" or type ""z"". Please press the space bar or click on continue to begin. ",,,,39,2022-02-12_17h11.50.685,lexical_decision_task_DD_L4,2021.2.3,Linux aarch64,60.03842459,,,,,,,,,,,,,,,,,,,,,,,,,,,,,,,,,,,,,,,,,,,,,,,,,,,,,,,,,,,,,,,,3,0,3,0,1,,,,,,,,,,,,,,
,0.028336814,-0.430603804,1,0,0,instr_done_button,,,,,,1,test,"In the next phase you will be presented with the words from the the first phase. Your job is to decide whether you remember seeing the word or not. If you remember seeing the word press ""old"" or type ""m"". If you do not remember seeing the word press ""new"" or type ""z"". Please press the space bar or click on continue to begin. ",,,,39,2022-02-12_17h11.50.685,lexical_decision_task_DD_L4,2021.2.3,Linux aarch64,60.03842459,,,,,,,,,,,,,,,,,,,,,,,,,,,,,,,,,,,,,,,,,,,,,,,,,,,,,,,,,,,,,,,,4,0,4,0,1,,,,,,,,,,,,,,
,,,,,,,,,,,,,,,,,,39,2022-02-12_17h11.50.685,lexical_decision_task_DD_L4,2021.2.3,Linux aarch64,60.03842459,,,,,,,,,,2.9272,0,,,,,,,,,,,,,,,,,,,,,,,-0.311242179,-0.301989373,1,0,0,,,,,,,BASKET,LB,m,y,./images/BASKETLB.png,,,,,,,,,,,,,,,,,,,,,0,-0.311242179,-0.301989373,1,0,0,2.9272,button_left_test,0,0,0,44,1
,,,,,,,,,,,,,,,,,,39,2022-02-12_17h11.50.685,lexical_decision_task_DD_L4,2021.2.3,Linux aarch64,60.03842459,,,,,,,,,,1.1969,1,,,,,,,,,,,,,,,,,,,,,,,0.324427481,-0.311242179,1,0,0,,,,,,,MEDAL,LB,m,y,./images/MEDALLB.png,,,,,,,,,,,,,,,,,,,,,0,0.324427481,-0.311242179,1,0,0,1.1969,button_right_test,0,1,1,11,1
,,,,,,,,,,,,,,,,,,39,2022-02-12_17h11.50.685,lexical_decision_task_DD_L4,2021.2.3,Linux aarch64,60.03842459,,,,,,,,,,1.1321,1,,,,,,,,,,,,,,,,,,,,,,,-0.307541049,-0.294587191,1,0,0,,,,,,,SMOKER,LB,z,y,./images/SMOKERLB.png,,,,,,,,,,,,,,,,,,,,,0,-0.307541049,-0.294587191,1,0,0,1.1321,button_left_test,0,2,2,110,1
,,,,,,,,,,,,,,,,,,39,2022-02-12_17h11.50.685,lexical_decision_task_DD_L4,2021.2.3,Linux aarch64,60.03842459,,,,,,,,,,2.1804,1,,,,,,,,,,,,,,,,,,,,,,,-0.371385608,-0.273305723,1,0,0,,,,,,,PENCE,HB,z,y,./images/PENCEHB.png,,,,,,,,,,,,,,,,,,,,,0,-0.371385608,-0.273305723,1,0,0,2.1804,button_left_test,0,3,3,100,1
,,,,,,,,,,,,,,,,,,39,2022-02-12_17h11.50.685,lexical_decision_task_DD_L4,2021.2.3,Linux aarch64,60.03842459,,,,,,,,,,1.18,1,,,,,,,,,,,,,,,,,,,,,,,0.357737689,-0.348253556,1,0,0,,,,,,,CLOTH,LB,m,y,./images/CLOTHLB.png,,,,,,,,,,,,,,,,,,,,,0,0.357737689,-0.348253556,1,0,0,1.18,button_right_test,0,4,4,23,1
,,,,,,,,,,,,,,,,,,39,2022-02-12_17h11.50.685,lexical_decision_task_DD_L4,2021.2.3,Linux aarch64,60.03842459,,,,,,,,,,1.0634,1,,,,,,,,,,,,,,,,,,,,,,,-0.355655777,-0.302914685,1,0,0,,,,,,,FINGER,C,z,y,./images/FINGER.png,,,,,,,,,,,,,,,,,,,,,0,-0.355655777,-0.302914685,1,0,0,1.0634,button_left_test,0,5,5,87,1
,,,,,,,,,,,,,,,,,,39,2022-02-12_17h11.50.685,lexical_decision_task_DD_L4,2021.2.3,Linux aarch64,60.03842459,,,,,,,,,,1.0965,1,,,,,,,,,,,,,,,,,,,,,,,0.362364092,-0.351029491,1,0,0,,,,,,,DESERT,HB,m,y,./images/DESERTHB.png,,,,,,,,,,,,,,,,,,,,,0,0.362364092,-0.351029491,1,0,0,1.0965,button_right_test,0,6,6,52,1
,,,,,,,,,,,,,,,,,,39,2022-02-12_17h11.50.685,lexical_decision_task_DD_L4,2021.2.3,Linux aarch64,60.03842459,,,,,,,,,,0.9639,0,,,,,,,,,,,,,,,,,,,,,,,0.297594376,-0.334374503,1,0,0,,,,,,,PLANK,HB,z,y,./images/PLANKHB.png,,,,,,,,,,,,,,,,,,,,,0,0.297594376,-0.334374503,1,0,0,0.9639,button_right_test,0,7,7,85,1
,,,,,,,,,,,,,,,,,,39,2022-02-12_17h11.50.685,lexical_decision_task_DD_L4,2021.2.3,Linux aarch64,60.03842459,,,,,,,,,,1.1497,0,,,,,,,,,,,,,,,,,,,,,,,0.280013922,-0.290885945,1,0,0,,,,,,,STRING,LB,z,y,./images/STRINGLB.png,,,,,,,,,,,,,,,,,,,,,0,0.280013922,-0.290885945,1,0,0,1.1497,button_right_test,0,8,8,125,1
,,,,,,,,,,,,,,,,,,39,2022-02-12_17h11.50.685,lexical_decision_task_DD_L4,2021.2.3,Linux aarch64,60.03842459,,,,,,,,,,1.1314,0,,,,,,,,,,,,,,,,,,,,,,,-0.333448997,-0.267753931,1,0,0,,,,,,,CHALK,HB,m,y,./images/CHALKHB.png,,,,,,,,,,,,,,,,,,,,,0,-0.333448997,-0.267753931,1,0,0,1.1314,button_left_test,0,9,9,25,1
,,,,,,,,,,,,,,,,,,39,2022-02-12_17h11.50.685,lexical_decision_task_DD_L4,2021.2.3,Linux aarch64,60.03842459,,,,,,,,,,1.4317,1,,,,,,,,,,,,,,,,,,,,,,,0.319801078,-0.317719205,1,0,0,,,,,,,ALLEY,HB,m,y,./images/ALLEYHB.png,,,,,,,,,,,,,,,,,,,,,0,0.319801078,-0.317719205,1,0,0,1.4317,button_right_test,0,10,10,55,1
,,,,,,,,,,,,,,,,,,39,2022-02-12_17h11.50.685,lexical_decision_task_DD_L4,2021.2.3,Linux aarch64,60.03842459,,,,,,,,,,2.1653,0,,,,,,,,,,,,,,,,,,,,,,,-0.305690464,-0.284408996,1,0,0,,,,,,,STOVE,LB,m,y,./images/STOVELB.png,,,,,,,,,,,,,,,,,,,,,0,-0.305690464,-0.284408996,1,0,0,2.1653,button_left_test,0,11,11,2,1
,,,,,,,,,,,,,,,,,,39,2022-02-12_17h11.50.685,lexical_decision_task_DD_L4,2021.2.3,Linux aarch64,60.03842459,,,,,,,,,,0.9294,1,,,,,,,,,,,,,,,,,,,,,,,-0.269604438,-0.294587191,1,0,0,,,,,,,MOSQUE,HB,z,y,./images/MOSQUEHB.png,,,,,,,,,,,,,,,,,,,,,0,-0.269604438,-0.294587191,1,0,0,0.9294,button_left_test,0,12,12,127,1
,,,,,,,,,,,,,,,,,,39,2022-02-12_17h11.50.685,lexical_decision_task_DD_L4,2021.2.3,Linux aarch64,60.03842459,,,,,,,,,,1.5832,1,,,,,,,,,,,,,,,,,,,,,,,-0.320495023,-0.290885945,1,0,0,,,,,,,NOOSE,C,z,y,./images/NOOSE.png,,,,,,,,,,,,,,,,,,,,,0,-0.320495023,-0.290885945,1,0,0,1.5832,button_left_test,0,13,13,156,1
,,,,,,,,,,,,,,,,,,39,2022-02-12_17h11.50.685,lexical_decision_task_DD_L4,2021.2.3,Linux aarch64,60.03842459,,,,,,,,,,1.0175,0,,,,,,,,,,,,,,,,,,,,,,,0.280939156,-0.350104179,1,0,0,,,,,,,BIRTH,HB,z,y,./images/BIRTHHB.png,,,,,,,,,,,,,,,,,,,,,0,0.280939156,-0.350104179,1,0,0,1.0175,button_right_test,0,14,14,121,1
,,,,,,,,,,,,,,,,,,39,2022-02-12_17h11.50.685,lexical_decision_task_DD_L4,2021.2.3,Linux aarch64,60.03842459,,,,,,,,,,0.9124,1,,,,,,,,,,,,,,,,,,,,,,,0.292967896,-0.285334308,1,0,0,,,,,,,STOOL,HB,m,y,./images/STOOLHB.png,,,,,,,,,,,,,,,,,,,,,0,0.292967896,-0.285334308,1,0,0,0.9124,button_right_test,0,15,15,43,1
,,,,,,,,,,,,,,,,,,39,2022-02-12_17h11.50.685,lexical_decision_task_DD_L4,2021.2.3,Linux aarch64,60.03842459,,,,,,,,,,1.2875,1,,,,,,,,,,,,,,,,,,,,,,,0.329979195,-0.301989373,1,0,0,,,,,,,STAIN,C,m,y,./images/STAIN.png,,,,,,,,,,,,,,,,,,,,,0,0.329979195,-0.301989373,1,0,0,1.2875,button_right_test,0,16,16,6,1
,,,,,,,,,,,,,,,,,,39,2022-02-12_17h11.50.685,lexical_decision_task_DD_L4,2021.2.3,Linux aarch64,60.03842459,,,,,,,,,,4.5045,1,,,,,,,,,,,,,,,,,,,,,,,-0.361207491,-0.258501048,1,0,0,,,,,,,WRIST,HB,z,y,./images/WRISTHB.png,,,,,,,,,,,,,,,,,,,,,0,-0.361207491,-0.258501048,1,0,0,4.5045,button_left_test,0,17,17,109,1
,,,,,,,,,,,,,,,,,,39,2022-02-12_17h11.50.685,lexical_decision_task_DD_L4,2021.2.3,Linux aarch64,60.03842459,,,,,,,,,,1.4975,1,,,,,,,,,,,,,,,,,,,,,,,-0.252024022,-0.289960788,1,0,0,,,,,,,GRAIN,C,z,y,./images/GRAIN.png,,,,,,,,,,,,,,,,,,,,,0,-0.252024022,-0.289960788,1,0,0,1.4975,button_left_test,0,18,18,159,1
,,,,,,,,,,,,,,,,,,39,2022-02-12_17h11.50.685,lexical_decision_task_DD_L4,2021.2.3,Linux aarch64,60.03842459,,,,,,,,,,0.8455,1,,,,,,,,,,,,,,,,,,,,,,,0.360513546,-0.293662035,1,0,0,,,,,,,RAZOR,HB,m,y,./images/RAZORHB.png,,,,,,,,,,,,,,,,,,,,,0,0.360513546,-0.293662035,1,0,0,0.8455,button_right_test,0,19,19,34,1
,,,,,,,,,,,,,,,,,,39,2022-02-12_17h11.50.685,lexical_decision_task_DD_L4,2021.2.3,Linux aarch64,60.03842459,,,,,,,,,,0.9133,0,,,,,,,,,,,,,,,,,,,,,,,0.310548273,-0.304765308,1,0,0,,,,,,,THROAT,C,z,y,./images/THROAT.png,,,,,,,,,,,,,,,,,,,,,0,0.310548273,-0.304765308,1,0,0,0.9133,button_right_test,0,20,20,120,1
,,,,,,,,,,,,,,,,,,39,2022-02-12_17h11.50.685,lexical_decision_task_DD_L4,2021.2.3,Linux aarch64,60.03842459,,,,,,,,,,2.414,0,,,,,,,,,,,,,,,,,,,,,,,0.319801078,-0.304765308,1,0,0,,,,,,,DOUGH,HB,z,y,./images/DOUGHHB.png,,,,,,,,,,,,,,,,,,,,,0,0.319801078,-0.304765308,1,0,0,2.414,button_right_test,0,21,21,103,1
,,,,,,,,,,,,,,,,,,39,2022-02-12_17h11.50.685,lexical_decision_task_DD_L4,2021.2.3,Linux aarch64,60.03842459,,,,,,,,,,1.0636,0,,,,,,,,,,,,,,,,,,,,,,,0.261508233,-0.290885945,1,0,0,,,,,,,SWEAT,C,z,y,./images/SWEAT.png,,,,,,,,,,,,,,,,,,,,,0,0.261508233,-0.290885945,1,0,0,1.0636,button_right_test,0,22,22,150,1
,,,,,,,,,,,,,,,,,,39,2022-02-12_17h11.50.685,lexical_decision_task_DD_L4,2021.2.3,Linux aarch64,60.03842459,,,,,,,,,,1.3953,0,,,,,,,,,,,,,,,,,,,,,,,-0.343627105,-0.268679165,1,0,0,,,,,,,BUNNY,HB,m,y,./images/BUNNYHB.png,,,,,,,,,,,,,,,,,,,,,0,-0.343627105,-0.268679165,1,0,0,1.3953,button_left_test,0,23,23,13,1
,,,,,,,,,,,,,,,,,,39,2022-02-12_17h11.50.685,lexical_decision_task_DD_L4,2021.2.3,Linux aarch64,60.03842459,,,,,,,,,,1.2297,1,,,,,,,,,,,,,,,,,,,,,,,-0.344552387,-0.340851374,1,0,0,,,,,,,MOOSE,C,z,y,./images/MOOSE.png,,,,,,,,,,,,,,,,,,,,,0,-0.344552387,-0.340851374,1,0,0,1.2297,button_left_test,0,24,24,141,1
,,,,,,,,,,,,,,,,,,39,2022-02-12_17h11.50.685,lexical_decision_task_DD_L4,2021.2.3,Linux aarch64,60.03842459,,,,,,,,,,1.3142,1,,,,,,,,,,,,,,,,,,,,,,,-0.298288224,-0.355655893,1,0,0,,,,,,,PEACH,LB,z,y,./images/PEACHLB.png,,,,,,,,,,,,,,,,,,,,,0,-0.298288224,-0.355655893,1,0,0,1.3142,button_left_test,0,25,25,119,1
,,,,,,,,,,,,,,,,,,39,2022-02-12_17h11.50.685,lexical_decision_task_DD_L4,2021.2.3,Linux aarch64,60.03842459,,,,,,,,,,1.214,1,,,,,,,,,,,,,,,,,,,,,,,0.38919743,-0.352879959,1,0,0,,,,,,,POKER,HB,m,y,./images/POKERHB.png,,,,,,,,,,,,,,,,,,,,,0,0.38919743,-0.352879959,1,0,0,1.214,button_right_test,0,26,26,67,1
,,,,,,,,,,,,,,,,,,39,2022-02-12_17h11.50.685,lexical_decision_task_DD_L4,2021.2.3,Linux aarch64,60.03842459,,,,,,,,,,0.914,1,,,,,,,,,,,,,,,,,,,,,,,0.288341415,-0.295512347,1,0,0,,,,,,,STATUE,C,m,y,./images/STATUE.png,,,,,,,,,,,,,,,,,,,,,0,0.288341415,-0.295512347,1,0,0,0.914,button_right_test,0,27,27,66,1
,,,,,,,,,,,,,,,,,,39,2022-02-12_17h11.50.685,lexical_decision_task_DD_L4,2021.2.3,Linux aarch64,60.03842459,,,,,,,,,,3.7988,0,,,,,,,,,,,,,,,,,,,,,,,0.374392832,-0.334374503,1,0,0,,,,,,,CEMENT,LB,z,y,./images/CEMENTLB.png,,,,,,,,,,,,,,,,,,,,,0,0.374392832,-0.334374503,1,0,0,3.7988,button_right_test,0,28,28,158,1
,,,,,,,,,,,,,,,,,,39,2022-02-12_17h11.50.685,lexical_decision_task_DD_L4,2021.2.3,Linux aarch64,60.03842459,,,,,,,,,,1.0663,0,,,,,,,,,,,,,,,,,,,,,,,0.304071247,-0.297362971,1,0,0,,,,,,,SQUARE,C,z,y,./images/SQUARE.png,,,,,,,,,,,,,,,,,,,,,0,0.304071247,-0.297362971,1,0,0,1.0663,button_right_test,0,29,29,90,1
,,,,,,,,,,,,,,,,,,39,2022-02-12_17h11.50.685,lexical_decision_task_DD_L4,2021.2.3,Linux aarch64,60.03842459,,,,,,,,,,0.982,1,,,,,,,,,,,,,,,,,,,,,,,0.300370156,-0.339926062,1,0,0,,,,,,,ENGINE,LB,m,y,./images/ENGINELB.png,,,,,,,,,,,,,,,,,,,,,0,0.300370156,-0.339926062,1,0,0,0.982,button_right_test,0,30,30,38,1
,,,,,,,,,,,,,,,,,,39,2022-02-12_17h11.50.685,lexical_decision_task_DD_L4,2021.2.3,Linux aarch64,60.03842459,,,,,,,,,,1.1174,1,,,,,,,,,,,,,,,,,,,,,,,-0.289960672,-0.304765308,1,0,0,,,,,,,TWINS,C,z,y,./images/TWINS.png,,,,,,,,,,,,,,,,,,,,,0,-0.289960672,-0.304765308,1,0,0,1.1174,button_left_test,0,31,31,144,1
,,,,,,,,,,,,,,,,,,39,2022-02-12_17h11.50.685,lexical_decision_task_DD_L4,2021.2.3,Linux aarch64,60.03842459,,,,,,,,,,2.9305,0,,,,,,,,,,,,,,,,,,,,,,,-0.261276886,-0.290885945,1,0,0,,,,,,,DANCER,C,m,y,./images/DANCER.png,,,,,,,,,,,,,,,,,,,,,0,-0.261276886,-0.290885945,1,0,0,2.9305,button_left_test,0,32,32,21,1
,,,,,,,,,,,,,,,,,,39,2022-02-12_17h11.50.685,lexical_decision_task_DD_L4,2021.2.3,Linux aarch64,60.03842459,,,,,,,,,,1.113,1,,,,,,,,,,,,,,,,,,,,,,,-0.293661802,-0.297362971,1,0,0,,,,,,,MUFFIN,HB,z,y,./images/MUFFINHB.png,,,,,,,,,,,,,,,,,,,,,0,-0.293661802,-0.297362971,1,0,0,1.113,button_left_test,0,33,33,139,1
,,,,,,,,,,,,,,,,,,39,2022-02-12_17h11.50.685,lexical_decision_task_DD_L4,2021.2.3,Linux aarch64,60.03842459,,,,,,,,,,1.0127,1,,,,,,,,,,,,,,,,,,,,,,,0.323502247,-0.321420296,1,0,0,,,,,,,GLOVE,HB,m,y,./images/GLOVEHB.png,,,,,,,,,,,,,,,,,,,,,0,0.323502247,-0.321420296,1,0,0,1.0127,button_right_test,0,34,34,73,1
,,,,,,,,,,,,,,,,,,39,2022-02-12_17h11.50.685,lexical_decision_task_DD_L4,2021.2.3,Linux aarch64,60.03842459,,,,,,,,,,1.0462,1,,,,,,,,,,,,,,,,,,,,,,,0.288341415,-0.28348384,1,0,0,,,,,,,CLOUD,LB,m,y,./images/CLOUDLB.png,,,,,,,,,,,,,,,,,,,,,0,0.288341415,-0.28348384,1,0,0,1.0462,button_right_test,0,35,35,26,1
,,,,,,,,,,,,,,,,,,39,2022-02-12_17h11.50.685,lexical_decision_task_DD_L4,2021.2.3,Linux aarch64,60.03842459,,,,,,,,,,1.5463,1,,,,,,,,,,,,,,,,,,,,,,,-0.342701822,-0.31216749,1,0,0,,,,,,,SUNSET,HB,z,y,./images/SUNSETHB.png,,,,,,,,,,,,,,,,,,,,,0,-0.342701822,-0.31216749,1,0,0,1.5463,button_left_test,0,36,36,166,1
,,,,,,,,,,,,,,,,,,39,2022-02-12_17h11.50.685,lexical_decision_task_DD_L4,2021.2.3,Linux aarch64,60.03842459,,,,,,,,,,1.2466,0,,,,,,,,,,,,,,,,,,,,,,,-0.297362932,-0.32049514,1,0,0,,,,,,,SLOPE,C,m,y,./images/SLOPE.png,,,,,,,,,,,,,,,,,,,,,0,-0.297362932,-0.32049514,1,0,0,1.2466,button_left_test,0,37,37,30,1
,,,,,,,,,,,,,,,,,,39,2022-02-12_17h11.50.685,lexical_decision_task_DD_L4,2021.2.3,Linux aarch64,60.03842459,,,,,,,,,,0.7626,0,,,,,,,,,,,,,,,,,,,,,,,0.352185975,-0.319569828,1,0,0,,,,,,,QUILL,HB,z,y,./images/QUILLHB.png,,,,,,,,,,,,,,,,,,,,,0,0.352185975,-0.319569828,1,0,0,0.7626,button_right_test,0,38,38,115,1
,,,,,,,,,,,,,,,,,,39,2022-02-12_17h11.50.685,lexical_decision_task_DD_L4,2021.2.3,Linux aarch64,60.03842459,,,,,,,,,,1.0123,1,,,,,,,,,,,,,,,,,,,,,,,0.328128727,-0.318644516,1,0,0,,,,,,,BAMBOO,LB,m,y,./images/BAMBOOLB.png,,,,,,,,,,,,,,,,,,,,,0,0.328128727,-0.318644516,1,0,0,1.0123,button_right_test,0,39,39,5,1
,,,,,,,,,,,,,,,,,,39,2022-02-12_17h11.50.685,lexical_decision_task_DD_L4,2021.2.3,Linux aarch64,60.03842459,,,,,,,,,,0.8679,1,,,,,,,,,,,,,,,,,,,,,,,0.38086978,-0.277932048,1,0,0,,,,,,,CLOWN,HB,m,y,./images/CLOWNHB.png,,,,,,,,,,,,,,,,,,,,,0,0.38086978,-0.277932048,1,0,0,0.8679,button_right_test,0,40,40,22,1
,,,,,,,,,,,,,,,,,,39,2022-02-12_17h11.50.685,lexical_decision_task_DD_L4,2021.2.3,Linux aarch64,60.03842459,,,,,,,,,,1.6473,1,,,,,,,,,,,,,,,,,,,,,,,0.051468905,-0.389891336,1,0,0,,,,,,,CANDLE,HB,z,y,./images/CANDLEHB.png,break_done_button,,,,,,,,,,,,,,,,,,,,0,-0.337150127,-0.307541088,1,0,0,1.6473,button_left_test,0,41,41,145,1
,,,,,,,,,,,,,,,,,,39,2022-02-12_17h11.50.685,lexical_decision_task_DD_L4,2021.2.3,Linux aarch64,60.03842459,,,,,,,,,,1.9281,1,,,,,,,,,,,,,,,,,,,,,,,0.368841196,-0.324196386,1,0,0,,,,,,,BLOKE,C,m,y,./images/BLOKE.png,,,,,,,,,,,,,,,,,,,,,0,0.368841196,-0.324196386,1,0,0,1.9281,button_right_test,0,42,42,12,1
,,,,,,,,,,,,,,,,,,39,2022-02-12_17h11.50.685,lexical_decision_task_DD_L4,2021.2.3,Linux aarch64,60.03842459,,,,,,,,,,2.265,1,,,,,,,,,,,,,,,,,,,,,,,0.275387519,-0.265903308,1,0,0,,,,,,,LLAMA,LB,m,y,./images/LLAMALB.png,,,,,,,,,,,,,,,,,,,,,0,0.275387519,-0.265903308,1,0,0,2.265,button_right_test,0,43,43,35,1
,,,,,,,,,,,,,,,,,,39,2022-02-12_17h11.50.685,lexical_decision_task_DD_L4,2021.2.3,Linux aarch64,60.03842459,,,,,,,,,,1.0816,0,,,,,,,,,,,,,,,,,,,,,,,0.284640324,-0.297362971,1,0,0,,,,,,,CRUMB,LB,z,y,./images/CRUMBLB.png,,,,,,,,,,,,,,,,,,,,,0,0.284640324,-0.297362971,1,0,0,1.0816,button_right_test,0,44,44,113,1
,,,,,,,,,,,,,,,,,,39,2022-02-12_17h11.50.685,lexical_decision_task_DD_L4,2021.2.3,Linux aarch64,60.03842459,,,,,,,,,,1.1908,0,,,,,,,,,,,,,,,,,,,,,,,0.340157312,-0.276081425,1,0,0,,,,,,,LIZARD,LB,z,y,./images/LIZARDLB.png,,,,,,,,,,,,,,,,,,,,,0,0.340157312,-0.276081425,1,0,0,1.1908,button_right_test,0,45,45,128,1
,,,,,,,,,,,,,,,,,,39,2022-02-12_17h11.50.685,lexical_decision_task_DD_L4,2021.2.3,Linux aarch64,60.03842459,,,,,,,,,,0.8471,1,,,,,,,,,,,,,,,,,,,,,,,0.318875767,-0.253874645,1,0,0,,,,,,,FLESH,C,m,y,./images/FLESH.png,,,,,,,,,,,,,,,,,,,,,0,0.318875767,-0.253874645,1,0,0,0.8471,button_right_test,0,46,46,24,1
,,,,,,,,,,,,,,,,,,39,2022-02-12_17h11.50.685,lexical_decision_task_DD_L4,2021.2.3,Linux aarch64,60.03842459,,,,,,,,,,0.7973,0,,,,,,,,,,,,,,,,,,,,,,,-0.295512347,-0.235368957,1,0,0,,,,,,,BRUSH,LB,m,y,./images/BRUSHLB.png,,,,,,,,,,,,,,,,,,,,,0,-0.295512347,-0.235368957,1,0,0,0.7973,button_left_test,0,47,47,59,1
,,,,,,,,,,,,,,,,,,39,2022-02-12_17h11.50.685,lexical_decision_task_DD_L4,2021.2.3,Linux aarch64,60.03842459,,,,,,,,,,1.1472,1,,,,,,,,,,,,,,,,,,,,,,,-0.296437659,-0.33900075,1,0,0,,,,,,,FOLDER,C,z,y,./images/FOLDER.png,,,,,,,,,,,,,,,,,,,,,0,-0.296437659,-0.33900075,1,0,0,1.1472,button_left_test,0,48,48,126,1
,,,,,,,,,,,,,,,,,,39,2022-02-12_17h11.50.685,lexical_decision_task_DD_L4,2021.2.3,Linux aarch64,60.03842459,,,,,,,,,,1.9933,1,,,,,,,,,,,,,,,,,,,,,,,-0.259426321,-0.297362971,1,0,0,,,,,,,MALLET,LB,z,y,./images/MALLETLB.png,,,,,,,,,,,,,,,,,,,,,0,-0.259426321,-0.297362971,1,0,0,1.9933,button_left_test,0,49,49,134,1
,,,,,,,,,,,,,,,,,,39,2022-02-12_17h11.50.685,lexical_decision_task_DD_L4,2021.2.3,Linux aarch64,60.03842459,,,,,,,,,,1.6325,0,,,,,,,,,,,,,,,,,,,,,,,-0.270529711,-0.287184854,1,0,0,,,,,,,HEATER,LB,m,y,./images/HEATERLB.png,,,,,,,,,,,,,,,,,,,,,0,-0.270529711,-0.287184854,1,0,0,1.6325,button_left_test,0,50,50,56,1
,,,,,,,,,,,,,,,,,,39,2022-02-12_17h11.50.685,lexical_decision_task_DD_L4,2021.2.3,Linux aarch64,60.03842459,,,,,,,,,,1.1632,1,,,,,,,,,,,,,,,,,,,,,,,0.303146013,-0.270529866,1,0,0,,,,,,,BAKER,C,m,y,./images/BAKER.png,,,,,,,,,,,,,,,,,,,,,0,0.303146013,-0.270529866,1,0,0,1.1632,button_right_test,0,51,51,63,1
,,,,,,,,,,,,,,,,,,39,2022-02-12_17h11.50.685,lexical_decision_task_DD_L4,2021.2.3,Linux aarch64,60.03842459,,,,,,,,,,0.7135,1,,,,,,,,,,,,,,,,,,,,,,,0.339232078,-0.330673257,1,0,0,,,,,,,COLLAR,C,m,y,./images/COLLAR.png,,,,,,,,,,,,,,,,,,,,,0,0.339232078,-0.330673257,1,0,0,0.7135,button_right_test,0,52,52,15,1
,,,,,,,,,,,,,,,,,,39,2022-02-12_17h11.50.685,lexical_decision_task_DD_L4,2021.2.3,Linux aarch64,60.03842459,,,,,,,,,,2.8905,1,,,,,,,,,,,,,,,,,,,,,,,-0.283483685,-0.321420296,1,0,0,,,,,,,TORCH,LB,z,y,./images/TORCHLB.png,,,,,,,,,,,,,,,,,,,,,0,-0.283483685,-0.321420296,1,0,0,2.8905,button_left_test,0,53,53,152,1
,,,,,,,,,,,,,,,,,,39,2022-02-12_17h11.50.685,lexical_decision_task_DD_L4,2021.2.3,Linux aarch64,60.03842459,,,,,,,,,,1.3814,0,,,,,,,,,,,,,,,,,,,,,,,0.3956743,-0.34455262,1,0,0,,,,,,,BELLY,HB,z,y,./images/BELLYHB.png,,,,,,,,,,,,,,,,,,,,,0,0.3956743,-0.34455262,1,0,0,1.3814,button_right_test,0,54,54,94,1
,,,,,,,,,,,,,,,,,,39,2022-02-12_17h11.50.685,lexical_decision_task_DD_L4,2021.2.3,Linux aarch64,60.03842459,,,,,,,,,,0.8134,1,,,,,,,,,,,,,,,,,,,,,,,0.326278104,-0.295512347,1,0,0,,,,,,,SPINE,LB,m,y,./images/SPINELB.png,,,,,,,,,,,,,,,,,,,,,0,0.326278104,-0.295512347,1,0,0,0.8134,button_right_test,0,55,55,65,1
,,,,,,,,,,,,,,,,,,39,2022-02-12_17h11.50.685,lexical_decision_task_DD_L4,2021.2.3,Linux aarch64,60.03842459,,,,,,,,,,1.0013,1,,,,,,,,,,,,,,,,,,,,,,,-0.287184795,-0.293662035,1,0,0,,,,,,,URINE,HB,z,y,./images/URINEHB.png,,,,,,,,,,,,,,,,,,,,,0,-0.287184795,-0.293662035,1,0,0,1.0013,button_left_test,0,56,56,154,1
,,,,,,,,,,,,,,,,,,39,2022-02-12_17h11.50.685,lexical_decision_task_DD_L4,2021.2.3,Linux aarch64,60.03842459,,,,,,,,,,2.3997,0,,,,,,,,,,,,,,,,,,,,,,,0.312398818,-0.311242179,1,0,0,,,,,,,SKIING,LB,z,y,./images/SKIINGLB.png,,,,,,,,,,,,,,,,,,,,,0,0.312398818,-0.311242179,1,0,0,2.3997,button_right_test,0,57,57,101,1
,,,,,,,,,,,,,,,,,,39,2022-02-12_17h11.50.685,lexical_decision_task_DD_L4,2021.2.3,Linux aarch64,60.03842459,,,,,,,,,,1.2639,1,,,,,,,,,,,,,,,,,,,,,,,0.340157312,-0.284408996,1,0,0,,,,,,,SNAKE,HB,m,y,./images/SNAKEHB.png,,,,,,,,,,,,,,,,,,,,,0,0.340157312,-0.284408996,1,0,0,1.2639,button_right_test,0,58,58,40,1
,,,,,,,,,,,,,,,,,,39,2022-02-12_17h11.50.685,lexical_decision_task_DD_L4,2021.2.3,Linux aarch64,60.03842459,,,,,,,,,,1.1146,0,,,,,,,,,,,,,,,,,,,,,,,0.359588312,-0.329747945,1,0,0,,,,,,,FARMER,LB,z,y,./images/FARMERLB.png,,,,,,,,,,,,,,,,,,,,,0,-0.261276886,-0.405621322,1,0,0,1.1146,button_right_test,0,59,59,149,1
,,,,,,,,,,,,,,,,,,39,2022-02-12_17h11.50.685,lexical_decision_task_DD_L4,2021.2.3,Linux aarch64,60.03842459,,,,,,,,,,2.1285,1,,,,,,,,,,,,,,,,,,,,,,,-0.271455003,-0.253874645,1,0,0,,,,,,,PACKET,LB,z,y,./images/PACKETLB.png,,,,,,,,,,,,,,,,,,,,,0,-0.271455003,-0.253874645,1,0,0,2.1285,button_left_test,0,60,60,140,1
,,,,,,,,,,,,,,,,,,39,2022-02-12_17h11.50.685,lexical_decision_task_DD_L4,2021.2.3,Linux aarch64,60.03842459,,,,,,,,,,2.1034,0,,,,,,,,,,,,,,,,,,,,,,,0.342007858,-0.317719205,1,0,0,,,,,,,BABOON,HB,z,y,./images/BABOONHB.png,,,,,,,,,,,,,,,,,,,,,0,0.342007858,-0.317719205,1,0,0,2.1034,button_right_test,0,61,61,142,1
,,,,,,,,,,,,,,,,,,39,2022-02-12_17h11.50.685,lexical_decision_task_DD_L4,2021.2.3,Linux aarch64,60.03842459,,,,,,,,,,2.9986,0,,,,,,,,,,,,,,,,,,,,,,,-0.279782555,-0.236294268,1,0,0,,,,,,,HAMMER,C,m,y,./images/HAMMER.png,,,,,,,,,,,,,,,,,,,,,0,-0.279782555,-0.236294268,1,0,0,2.9986,button_left_test,0,62,62,75,1
,,,,,,,,,,,,,,,,,,39,2022-02-12_17h11.50.685,lexical_decision_task_DD_L4,2021.2.3,Linux aarch64,60.03842459,,,,,,,,,,2.9257,0,,,,,,,,,,,,,,,,,,,,,,,-0.227966677,-0.260351749,1,0,0,,,,,,,PEBBLE,HB,m,y,./images/PEBBLEHB.png,,,,,,,,,,,,,,,,,,,,,0,-0.227966677,-0.260351749,1,0,0,2.9257,button_left_test,0,63,63,82,1
,,,,,,,,,,,,,,,,,,39,2022-02-12_17h11.50.685,lexical_decision_task_DD_L4,2021.2.3,Linux aarch64,60.03842459,,,,,,,,,,1.8893,0,,,,,,,,,,,,,,,,,,,,,,,0.347559572,-0.325121542,1,0,0,,,,,,,SNACK,HB,z,y,./images/SNACKHB.png,,,,,,,,,,,,,,,,,,,,,0,0.347559572,-0.325121542,1,0,0,1.8893,button_right_test,0,64,64,157,1
,,,,,,,,,,,,,,,,,,39,2022-02-12_17h11.50.685,lexical_decision_task_DD_L4,2021.2.3,Linux aarch64,60.03842459,,,,,,,,,,3.9151,0,,,,,,,,,,,,,,,,,,,,,,,0.252255428,-0.299213594,1,0,0,,,,,,,PASTA,LB,z,y,./images/PASTALB.png,,,,,,,,,,,,,,,,,,,,,0,0.252255428,-0.299213594,1,0,0,3.9151,button_right_test,0,65,65,89,1
,,,,,,,,,,,,,,,,,,39,2022-02-12_17h11.50.685,lexical_decision_task_DD_L4,2021.2.3,Linux aarch64,60.03842459,,,,,,,,,,1.6804,1,,,,,,,,,,,,,,,,,,,,,,,-0.260351594,-0.266828619,1,0,0,,,,,,,POODLE,C,z,y,./images/POODLE.png,,,,,,,,,,,,,,,,,,,,,0,-0.260351594,-0.266828619,1,0,0,1.6804,button_left_test,0,66,66,165,1
,,,,,,,,,,,,,,,,,,39,2022-02-12_17h11.50.685,lexical_decision_task_DD_L4,2021.2.3,Linux aarch64,60.03842459,,,,,,,,,,5.3682,0,,,,,,,,,,,,,,,,,,,,,,,0.333680364,-0.323270919,1,0,0,,,,,,,RHINO,C,z,y,./images/RHINO.png,,,,,,,,,,,,,,,,,,,,,0,0.333680364,-0.323270919,1,0,0,5.3682,button_right_test,0,67,67,93,1
,,,,,,,,,,,,,,,,,,39,2022-02-12_17h11.50.685,lexical_decision_task_DD_L4,2021.2.3,Linux aarch64,60.03842459,,,,,,,,,,0.8307,1,,,,,,,,,,,,,,,,,,,,,,,0.342933169,-0.343627153,1,0,0,,,,,,,JUMPER,LB,m,y,./images/JUMPERLB.png,,,,,,,,,,,,,,,,,,,,,0,0.342933169,-0.343627153,1,0,0,0.8307,button_right_test,0,68,68,74,1
,,,,,,,,,,,,,,,,,,39,2022-02-12_17h11.50.685,lexical_decision_task_DD_L4,2021.2.3,Linux aarch64,60.03842459,,,,,,,,,,0.948,1,,,,,,,,,,,,,,,,,,,,,,,0.331829741,-0.305690464,1,0,0,,,,,,,GRAPE,HB,m,y,./images/GRAPEHB.png,,,,,,,,,,,,,,,,,,,,,0,0.331829741,-0.305690464,1,0,0,0.948,button_right_test,0,69,69,16,1
,,,,,,,,,,,,,,,,,,39,2022-02-12_17h11.50.685,lexical_decision_task_DD_L4,2021.2.3,Linux aarch64,60.03842459,,,,,,,,,,1.1143,1,,,,,,,,,,,,,,,,,,,,,,,0.322576935,-0.31216749,1,0,0,,,,,,,GRANNY,LB,m,y,./images/GRANNYLB.png,,,,,,,,,,,,,,,,,,,,,0,0.322576935,-0.31216749,1,0,0,1.1143,button_right_test,0,70,70,20,1
,,,,,,,,,,,,,,,,,,39,2022-02-12_17h11.50.685,lexical_decision_task_DD_L4,2021.2.3,Linux aarch64,60.03842459,,,,,,,,,,2.6485,0,,,,,,,,,,,,,,,,,,,,,,,-0.259426321,-0.329747945,1,0,0,,,,,,,CANOE,HB,m,y,./images/CANOEHB.png,,,,,,,,,,,,,,,,,,,,,0,-0.259426321,-0.329747945,1,0,0,2.6485,button_left_test,0,71,71,58,1
,,,,,,,,,,,,,,,,,,39,2022-02-12_17h11.50.685,lexical_decision_task_DD_L4,2021.2.3,Linux aarch64,60.03842459,,,,,,,,,,1.0137,0,,,,,,,,,,,,,,,,,,,,,,,-0.303839919,-0.331598413,1,0,0,,,,,,,FENCE,LB,m,y,./images/FENCELB.png,,,,,,,,,,,,,,,,,,,,,0,-0.303839919,-0.331598413,1,0,0,1.0137,button_left_test,0,72,72,14,1
,,,,,,,,,,,,,,,,,,39,2022-02-12_17h11.50.685,lexical_decision_task_DD_L4,2021.2.3,Linux aarch64,60.03842459,,,,,,,,,,1.4825,0,,,,,,,,,,,,,,,,,,,,,,,-0.277006678,-0.323270919,1,0,0,,,,,,,DIVER,C,m,y,./images/DIVER.png,,,,,,,,,,,,,,,,,,,,,0,-0.277006678,-0.323270919,1,0,0,1.4825,button_left_test,0,73,73,9,1
,,,,,,,,,,,,,,,,,,39,2022-02-12_17h11.50.685,lexical_decision_task_DD_L4,2021.2.3,Linux aarch64,60.03842459,,,,,,,,,,1.0322,1,,,,,,,,,,,,,,,,,,,,,,,0.401226015,-0.362132764,1,0,0,,,,,,,MONKEY,C,m,y,./images/MONKEY.png,,,,,,,,,,,,,,,,,,,,,0,0.401226015,-0.362132764,1,0,0,1.0322,button_right_test,0,74,74,45,1
,,,,,,,,,,,,,,,,,,39,2022-02-12_17h11.50.685,lexical_decision_task_DD_L4,2021.2.3,Linux aarch64,60.03842459,,,,,,,,,,1.2975,1,,,,,,,,,,,,,,,,,,,,,,,0.38919743,-0.32697201,1,0,0,,,,,,,PILOT,LB,m,y,./images/PILOTLB.png,,,,,,,,,,,,,,,,,,,,,0,0.38919743,-0.32697201,1,0,0,1.2975,button_right_test,0,75,75,50,1
,,,,,,,,,,,,,,,,,,39,2022-02-12_17h11.50.685,lexical_decision_task_DD_L4,2021.2.3,Linux aarch64,60.03842459,,,,,,,,,,0.7821,1,,,,,,,,,,,,,,,,,,,,,,,0.33553091,-0.289035477,1,0,0,,,,,,,BOXER,HB,m,y,./images/BOXERHB.png,,,,,,,,,,,,,,,,,,,,,0,0.33553091,-0.289035477,1,0,0,0.7821,button_right_test,0,76,76,4,1
,,,,,,,,,,,,,,,,,,39,2022-02-12_17h11.50.685,lexical_decision_task_DD_L4,2021.2.3,Linux aarch64,60.03842459,,,,,,,,,,2.9505,1,,,,,,,,,,,,,,,,,,,,,,,0.315174675,-0.295512347,1,0,0,,,,,,,TOWEL,HB,m,y,./images/TOWELHB.png,,,,,,,,,,,,,,,,,,,,,0,0.315174675,-0.295512347,1,0,0,2.9505,button_right_test,0,77,77,1,1
,,,,,,,,,,,,,,,,,,39,2022-02-12_17h11.50.685,lexical_decision_task_DD_L4,2021.2.3,Linux aarch64,60.03842459,,,,,,,,,,3.3202,1,,,,,,,,,,,,,,,,,,,,,,,0.372542209,-0.317719205,1,0,0,,,,,,,MAMMAL,LB,m,y,./images/MAMMALLB.png,,,,,,,,,,,,,,,,,,,,,0,0.372542209,-0.317719205,1,0,0,3.3202,button_right_test,0,78,78,62,1
,,,,,,,,,,,,,,,,,,39,2022-02-12_17h11.50.685,lexical_decision_task_DD_L4,2021.2.3,Linux aarch64,60.03842459,,,,,,,,,,0.9804,1,,,,,,,,,,,,,,,,,,,,,,,-0.28163312,-0.299213594,1,0,0,,,,,,,CRADLE,LB,z,y,./images/CRADLELB.png,,,,,,,,,,,,,,,,,,,,,0,-0.28163312,-0.299213594,1,0,0,0.9804,button_left_test,0,79,79,104,1
,,,,,,,,,,,,,,,,,,39,2022-02-12_17h11.50.685,lexical_decision_task_DD_L4,2021.2.3,Linux aarch64,60.03842459,,,,,,,,,,2.1159,1,,,,,,,,,,,,,,,,,,,,,,,0.299444844,-0.301064062,1,0,0,,,,,,,PARCEL,C,m,y,./images/PARCEL.png,,,,,,,,,,,,,,,,,,,,,0,0.299444844,-0.301064062,1,0,0,2.1159,button_right_test,0,80,80,18,1
,,,,,,,,,,,,,,,,,,39,2022-02-12_17h11.50.685,lexical_decision_task_DD_L4,2021.2.3,Linux aarch64,60.03842459,,,,,,,,,,1.914,1,,,,,,,,,,,,,,,,,,,,,,,-0.299213497,-0.280707983,1,0,0,,,,,,,CANYON,HB,z,y,./images/CANYONHB.png,,,,,,,,,,,,,,,,,,,,,0,-0.299213497,-0.280707983,1,0,0,1.914,button_left_test,0,81,81,118,1
,,,,,,,,,,,,,,,,,,39,2022-02-12_17h11.50.685,lexical_decision_task_DD_L4,2021.2.3,Linux aarch64,60.03842459,,,,,,,,,,0.7969,0,,,,,,,,,,,,,,,,,,,,,,,0.307772493,-0.300138905,1,0,0,,,,,,,MELON,HB,z,y,./images/MELONHB.png,,,,,,,,,,,,,,,,,,,,,0,0.307772493,-0.300138905,1,0,0,0.7969,button_right_test,0,82,82,106,1
,,,,,,,,,,,,,,,,,,39,2022-02-12_17h11.50.685,lexical_decision_task_DD_L4,2021.2.3,Linux aarch64,60.03842459,,,,,,,,,,0.7165,0,,,,,,,,,,,,,,,,,,,,,,,0.116238737,-0.395443205,1,0,0,,,,,,,SHELF,C,z,y,./images/SHELF.png,break_done_button,,,,,,,,,,,,,,,,,,,,0,0.309622961,-0.323270919,1,0,0,0.7165,button_right_test,0,83,83,123,1
,,,,,,,,,,,,,,,,,,39,2022-02-12_17h11.50.685,lexical_decision_task_DD_L4,2021.2.3,Linux aarch64,60.03842459,,,,,,,,,,1.2301,1,,,,,,,,,,,,,,,,,,,,,,,0.329053884,-0.285334308,1,0,0,,,,,,,CASINO,HB,m,y,./images/CASINOHB.png,,,,,,,,,,,,,,,,,,,,,0,0.329053884,-0.285334308,1,0,0,1.2301,button_right_test,0,84,84,28,1
,,,,,,,,,,,,,,,,,,39,2022-02-12_17h11.50.685,lexical_decision_task_DD_L4,2021.2.3,Linux aarch64,60.03842459,,,,,,,,,,2.3949,1,,,,,,,,,,,,,,,,,,,,,,,0.346634338,-0.291811256,1,0,0,,,,,,,DRILL,C,m,y,./images/DRILL.png,,,,,,,,,,,,,,,,,,,,,0,0.346634338,-0.291811256,1,0,0,2.3949,button_right_test,0,85,85,81,1
,,,,,,,,,,,,,,,,,,39,2022-02-12_17h11.50.685,lexical_decision_task_DD_L4,2021.2.3,Linux aarch64,60.03842459,,,,,,,,,,2.6991,1,,,,,,,,,,,,,,,,,,,,,,,0.350335429,-0.285334308,1,0,0,,,,,,,WHEEL,LB,m,y,./images/WHEELLB.png,,,,,,,,,,,,,,,,,,,,,0,0.350335429,-0.285334308,1,0,0,2.6991,button_right_test,0,86,86,77,1
,,,,,,,,,,,,,,,,,,39,2022-02-12_17h11.50.685,lexical_decision_task_DD_L4,2021.2.3,Linux aarch64,60.03842459,,,,,,,,,,1.014,1,,,,,,,,,,,,,,,,,,,,,,,-0.368609761,-0.295512347,1,0,0,,,,,,,BEARD,LB,z,y,./images/BEARDLB.png,,,,,,,,,,,,,,,,,,,,,0,-0.368609761,-0.295512347,1,0,0,1.014,button_left_test,0,87,87,86,1
,,,,,,,,,,,,,,,,,,39,2022-02-12_17h11.50.685,lexical_decision_task_DD_L4,2021.2.3,Linux aarch64,60.03842459,,,,,,,,,,1.6137,1,,,,,,,,,,,,,,,,,,,,,,,0.3956743,-0.327897322,1,0,0,,,,,,,ARROW,C,m,y,./images/ARROW.png,,,,,,,,,,,,,,,,,,,,,0,0.3956743,-0.327897322,1,0,0,1.6137,button_right_test,0,88,88,69,1
,,,,,,,,,,,,,,,,,,39,2022-02-12_17h11.50.685,lexical_decision_task_DD_L4,2021.2.3,Linux aarch64,60.03842459,,,,,,,,,,1.4131,1,,,,,,,,,,,,,,,,,,,,,,,-0.354730504,-0.35380527,1,0,0,,,,,,,TOMATO,C,z,y,./images/TOMATO.png,,,,,,,,,,,,,,,,,,,,,0,-0.354730504,-0.35380527,1,0,0,1.4131,button_left_test,0,89,89,84,1
,,,,,,,,,,,,,,,,,,39,2022-02-12_17h11.50.685,lexical_decision_task_DD_L4,2021.2.3,Linux aarch64,60.03842459,,,,,,,,,,1.2885,1,,,,,,,,,,,,,,,,,,,,,,,-0.413948641,-0.296437659,1,0,0,,,,,,,COOKER,C,z,y,./images/COOKER.png,,,,,,,,,,,,,,,,,,,,,0,-0.413948641,-0.296437659,1,0,0,1.2885,button_left_test,0,90,90,153,1
,,,,,,,,,,,,,,,,,,39,2022-02-12_17h11.50.685,lexical_decision_task_DD_L4,2021.2.3,Linux aarch64,60.03842459,,,,,,,,,,1.2359,0,,,,,,,,,,,,,,,,,,,,,,,0.32072639,-0.316793893,1,0,0,,,,,,,ATTIC,C,z,y,./images/ATTIC.png,,,,,,,,,,,,,,,,,,,,,0,0.32072639,-0.316793893,1,0,0,1.2359,button_right_test,0,91,91,111,1
,,,,,,,,,,,,,,,,,,39,2022-02-12_17h11.50.685,lexical_decision_task_DD_L4,2021.2.3,Linux aarch64,60.03842459,,,,,,,,,,0.5972,1,,,,,,,,,,,,,,,,,,,,,,,0.326278104,-0.332523725,1,0,0,,,,,,,ARTIST,HB,m,y,./images/ARTISTHB.png,,,,,,,,,,,,,,,,,,,,,0,0.326278104,-0.332523725,1,0,0,0.5972,button_right_test,0,92,92,61,1
,,,,,,,,,,,,,,,,,,39,2022-02-12_17h11.50.685,lexical_decision_task_DD_L4,2021.2.3,Linux aarch64,60.03842459,,,,,,,,,,1.3369,0,,,,,,,,,,,,,,,,,,,,,,,0.371617053,-0.325121542,1,0,0,,,,,,,GREASE,C,z,y,./images/GREASE.png,,,,,,,,,,,,,,,,,,,,,0,0.371617053,-0.325121542,1,0,0,1.3369,button_right_test,0,93,93,99,1
,,,,,,,,,,,,,,,,,,39,2022-02-12_17h11.50.685,lexical_decision_task_DD_L4,2021.2.3,Linux aarch64,60.03842459,,,,,,,,,,2.0389,1,,,,,,,,,,,,,,,,,,,,,,,-0.304765211,-0.304765308,1,0,0,,,,,,,PURSE,LB,z,y,./images/PURSELB.png,,,,,,,,,,,,,,,,,,,,,0,-0.304765211,-0.304765308,1,0,0,2.0389,button_left_test,0,94,94,146,1
,,,,,,,,,,,,,,,,,,39,2022-02-12_17h11.50.685,lexical_decision_task_DD_L4,2021.2.3,Linux aarch64,60.03842459,,,,,,,,,,1.0652,1,,,,,,,,,,,,,,,,,,,,,,,0.360513546,-0.323270919,1,0,0,,,,,,,CLIFF,LB,m,y,./images/CLIFFLB.png,,,,,,,,,,,,,,,,,,,,,0,0.360513546,-0.323270919,1,0,0,1.0652,button_right_test,0,95,95,8,1
,,,,,,,,,,,,,,,,,,39,2022-02-12_17h11.50.685,lexical_decision_task_DD_L4,2021.2.3,Linux aarch64,60.03842459,,,,,,,,,,1.7307,0,,,,,,,,,,,,,,,,,,,,,,,0.297594376,-0.346402933,1,0,0,,,,,,,CRUST,HB,z,y,./images/CRUSTHB.png,,,,,,,,,,,,,,,,,,,,,0,0.297594376,-0.346402933,1,0,0,1.7307,button_right_test,0,96,96,163,1
,,,,,,,,,,,,,,,,,,39,2022-02-12_17h11.50.685,lexical_decision_task_DD_L4,2021.2.3,Linux aarch64,60.03842459,,,,,,,,,,2.2606,0,,,,,,,,,,,,,,,,,,,,,,,-0.378787878,-0.328822633,1,0,0,,,,,,,POSTER,LB,m,y,./images/POSTERLB.png,,,,,,,,,,,,,,,,,,,,,0,-0.378787878,-0.328822633,1,0,0,2.2606,button_left_test,0,97,97,53,1
,,,,,,,,,,,,,,,,,,39,2022-02-12_17h11.50.685,lexical_decision_task_DD_L4,2021.2.3,Linux aarch64,60.03842459,,,,,,,,,,1.397,0,,,,,,,,,,,,,,,,,,,,,,,0.337381455,-0.34177653,1,0,0,,,,,,,PIMPLE,LB,z,y,./images/PIMPLELB.png,,,,,,,,,,,,,,,,,,,,,0,0.337381455,-0.34177653,1,0,0,1.397,button_right_test,0,98,98,155,1
,,,,,,,,,,,,,,,,,,39,2022-02-12_17h11.50.685,lexical_decision_task_DD_L4,2021.2.3,Linux aarch64,60.03842459,,,,,,,,,,0.5616,1,,,,,,,,,,,,,,,,,,,,,,,0.315174675,-0.359356985,1,0,0,,,,,,,SHIELD,C,m,y,./images/SHIELD.png,,,,,,,,,,,,,,,,,,,,,0,0.315174675,-0.359356985,1,0,0,0.5616,button_right_test,0,99,99,48,1
,,,,,,,,,,,,,,,,,,39,2022-02-12_17h11.50.685,lexical_decision_task_DD_L4,2021.2.3,Linux aarch64,60.03842459,,,,,,,,,,2.0128,0,,,,,,,,,,,,,,,,,,,,,,,-0.319569731,-0.339926062,1,0,0,,,,,,,BRIDE,HB,m,y,./images/BRIDEHB.png,,,,,,,,,,,,,,,,,,,,,0,-0.319569731,-0.339926062,1,0,0,2.0128,button_left_test,0,100,100,64,1
,,,,,,,,,,,,,,,,,,39,2022-02-12_17h11.50.685,lexical_decision_task_DD_L4,2021.2.3,Linux aarch64,60.03842459,,,,,,,,,,0.7135,1,,,,,,,,,,,,,,,,,,,,,,,-0.322345588,-0.336224816,1,0,0,,,,,,,BURIAL,LB,z,y,./images/BURIALLB.png,,,,,,,,,,,,,,,,,,,,,0,-0.322345588,-0.336224816,1,0,0,0.7135,button_left_test,0,101,101,143,1
,,,,,,,,,,,,,,,,,,39,2022-02-12_17h11.50.685,lexical_decision_task_DD_L4,2021.2.3,Linux aarch64,60.03842459,,,,,,,,,,1.0144,1,,,,,,,,,,,,,,,,,,,,,,,0.270761039,-0.338075439,1,0,0,,,,,,,CHERRY,C,m,y,./images/CHERRY.png,,,,,,,,,,,,,,,,,,,,,0,0.270761039,-0.338075439,1,0,0,1.0144,button_right_test,0,102,102,54,1
,,,,,,,,,,,,,,,,,,39,2022-02-12_17h11.50.685,lexical_decision_task_DD_L4,2021.2.3,Linux aarch64,60.03842459,,,,,,,,,,1.2113,1,,,,,,,,,,,,,,,,,,,,,,,0.319801078,-0.323270919,1,0,0,,,,,,,DONKEY,HB,m,y,./images/DONKEYHB.png,,,,,,,,,,,,,,,,,,,,,0,0.319801078,-0.323270919,1,0,0,1.2113,button_right_test,0,103,103,19,1
,,,,,,,,,,,,,,,,,,39,2022-02-12_17h11.50.685,lexical_decision_task_DD_L4,2021.2.3,Linux aarch64,60.03842459,,,,,,,,,,0.9794,1,,,,,,,,,,,,,,,,,,,,,,,0.368841196,-0.305690464,1,0,0,,,,,,,WAGON,HB,m,y,./images/WAGONHB.png,,,,,,,,,,,,,,,,,,,,,0,0.368841196,-0.305690464,1,0,0,0.9794,button_right_test,0,104,104,7,1
,,,,,,,,,,,,,,,,,,39,2022-02-12_17h11.50.685,lexical_decision_task_DD_L4,2021.2.3,Linux aarch64,60.03842459,,,,,,,,,,3.1167,0,,,,,,,,,,,,,,,,,,,,,,,0.350335429,-0.32697201,1,0,0,,,,,,,PEARL,HB,z,y,./images/PEARLHB.png,,,,,,,,,,,,,,,,,,,,,0,0.350335429,-0.32697201,1,0,0,3.1167,button_right_test,0,105,105,130,1
,,,,,,,,,,,,,,,,,,39,2022-02-12_17h11.50.685,lexical_decision_task_DD_L4,2021.2.3,Linux aarch64,60.03842459,,,,,,,,,,1.5636,0,,,,,,,,,,,,,,,,,,,,,,,-0.296437659,-0.280707983,1,0,0,,,,,,,SAUCE,C,m,y,./images/SAUCE.png,,,,,,,,,,,,,,,,,,,,,0,-0.296437659,-0.280707983,1,0,0,1.5636,button_left_test,0,106,106,51,1
,,,,,,,,,,,,,,,,,,39,2022-02-12_17h11.50.685,lexical_decision_task_DD_L4,2021.2.3,Linux aarch64,60.03842459,,,,,,,,,,2.1305,0,,,,,,,,,,,,,,,,,,,,,,,-0.270529711,-0.249248243,1,0,0,,,,,,,CURRY,C,m,y,./images/CURRY.png,,,,,,,,,,,,,,,,,,,,,0,-0.270529711,-0.249248243,1,0,0,2.1305,button_left_test,0,107,107,60,1
,,,,,,,,,,,,,,,,,,39,2022-02-12_17h11.50.685,lexical_decision_task_DD_L4,2021.2.3,Linux aarch64,60.03842459,,,,,,,,,,1.9811,0,,,,,,,,,,,,,,,,,,,,,,,0.289266727,-0.324196386,1,0,0,,,,,,,JUNGLE,LB,z,y,./images/JUNGLELB.png,,,,,,,,,,,,,,,,,,,,,0,0.289266727,-0.324196386,1,0,0,1.9811,button_right_test,0,108,108,167,1
,,,,,,,,,,,,,,,,,,39,2022-02-12_17h11.50.685,lexical_decision_task_DD_L4,2021.2.3,Linux aarch64,60.03842459,,,,,,,,,,0.7648,0,,,,,,,,,,,,,,,,,,,,,,,0.33553091,-0.287184854,1,0,0,,,,,,,BERRY,LB,z,y,./images/BERRYLB.png,,,,,,,,,,,,,,,,,,,,,0,0.33553091,-0.287184854,1,0,0,0.7648,button_right_test,0,109,109,131,1
