key_resp.keys,key_resp.rt,instr_done_touch.x,instr_done_touch.y,instr_done_touch.leftButton,instr_done_touch.midButton,instr_done_touch.rightButton,instruction_pages.thisRepN,instruction_pages.thisTrialN,instruction_pages.thisN,instruction_pages.thisIndex,instruction_pages.ran,pageN,phase,instruct_text,has_image,instruct_image,participant,age,date,expName,psychopyVersion,OS,frameRate,response.keys,response.corr,response.rt,touch_resp.x,touch_resp.y,touch_resp.leftButton,touch_resp.midButton,touch_resp.rightButton,touch_resp.time,touch_resp.clicked_name,rt,corr,practrials.thisRepN,practrials.thisTrialN,practrials.thisN,practrials.thisIndex,practrials.ran,TrialID,Target,corrAns,end_of_practice_trials_pages.thisRepN,end_of_practice_trials_pages.thisTrialN,end_of_practice_trials_pages.thisN,end_of_practice_trials_pages.thisIndex,end_of_practice_trials_pages.ran,key_resp_2.keys,key_resp_2.corr,key_resp_2.rt,targ_click.x,targ_click.y,targ_click.leftButton,targ_click.midButton,targ_click.rightButton,targ_click.time,targ_click.clicked_name,break_done_touch.x,break_done_touch.y,break_done_touch.leftButton,break_done_touch.midButton,break_done_touch.rightButton,break_done_keyboard.keys,maintrials.thisRepN,maintrials.thisTrialN,maintrials.thisN,maintrials.thisIndex,maintrials.ran,string,blur,study,lex,stim_path,break_done_keyboard.rt,mouse_2.x,mouse_2.y,mouse_2.leftButton,mouse_2.midButton,mouse_2.rightButton,mouse_2.clicked_name,slider.response,slider.rt,trials.thisRepN,trials.thisTrialN,trials.thisN,trials.thisIndex,trials.ran,test_instructions.thisRepN,test_instructions.thisTrialN,test_instructions.thisN,test_instructions.thisIndex,test_instructions.ran,instr_done_touch.clicked_name,key_resp_3.keys,key_resp_3.corr,key_resp_3.rt,test_click.x,test_click.y,test_click.leftButton,test_click.midButton,test_click.rightButton,test_click.time,test_click.clicked_name,test_phase.thisRepN,test_phase.thisTrialN,test_phase.thisN,test_phase.thisIndex,test_phase.ran
space,29.2475,0.006510417,-0.38671875,0,0,0,0,0,0,0,1,1,instructions,"INSTRUCTIONS
At the start of each trial, look at the plus sign  (+) in the center of the screen.  This tells you that a trial is about to begin and where to look. Second, the plus sign will disappear and a string of letters will appear. Your task is to determine if the string of letters is a word or not. If the item is a word press the M key (on keyboard)  or touch the word button (phone/tablet).  If the item is not a word,  press the  Z key (on keyboard)  or touch the nonword button (on phone/tablet). 
Press the space bar or touch  continue.",0,,,44,2022-02-12_12h16.23.369,lexical_decision_task_DD_L4,2021.2.3,Win32,60.0132029,,,,,,,,,,,,,,,,,,,,,,,,,,,,,,,,,,,,,,,,,,,,,,,,,,,,,,,,,,,,,,,,,,,,,,,,,,,,,,,,,,,,,,
space,5.0458,0.006510417,-0.38671875,0,0,0,0,1,1,1,1,2,instructions,"If your device has a keyboard, press the 'Z' key for nonwords and the 'M' key for words.





Press the space bar or touch the button below to continue.",0,keyboard-example.gif,,44,2022-02-12_12h16.23.369,lexical_decision_task_DD_L4,2021.2.3,Win32,60.0132029,,,,,,,,,,,,,,,,,,,,,,,,,,,,,,,,,,,,,,,,,,,,,,,,,,,,,,,,,,,,,,,,,,,,,,,,,,,,,,,,,,,,,,
space,6.225,0.006510417,-0.38671875,0,0,0,0,2,2,2,1,3,instructions,"If you are using a touchscreen only device, use the buttons on the screen. Do not use the mouse.





Press the space bar or touch the button below to continue.",0,touchscreen-example.gif,,44,2022-02-12_12h16.23.369,lexical_decision_task_DD_L4,2021.2.3,Win32,60.0132029,,,,,,,,,,,,,,,,,,,,,,,,,,,,,,,,,,,,,,,,,,,,,,,,,,,,,,,,,,,,,,,,,,,,,,,,,,,,,,,,,,,,,,
space,8.7607,0.006510417,-0.38671875,0,0,0,0,3,3,3,1,4,instructions,"It is very important that you respond as quickly and accurately as possible, as each letter string will only be on the screen for two seconds. If you do not respond within this time, the message 'Too slow!' will be displayed and the experiment will progress to the next letter string. The first 20 trials will be practice trials and you will receive feedback on your answers. 

Press the space bar or touch the button below to start the practice trials.",0,,,44,2022-02-12_12h16.23.369,lexical_decision_task_DD_L4,2021.2.3,Win32,60.0132029,,,,,,,,,,,,,,,,,,,,,,,,,,,,,,,,,,,,,,,,,,,,,,,,,,,,,,,,,,,,,,,,,,,,,,,,,,,,,,,,,,,,,,
,,,,,,,,,,,,,,,,,,44,2022-02-12_12h16.23.369,lexical_decision_task_DD_L4,2021.2.3,Win32,60.0132029,z,1,0.1638,,,,,,,,0.1638,1,0,0,0,9,1,1001,FARINY,z,,,,,,,,,,,,,,,,,,,,,,,,,,,,,,,,,,,,,,,,,,,,,,,,,,,,,,,,,,,,,,,,,,
,,,,,,,,,,,,,,,,,,44,2022-02-12_12h16.23.369,lexical_decision_task_DD_L4,2021.2.3,Win32,60.0132029,m,0,0.701,,,,,,,,0.701,0,0,1,1,15,1,1001,WHAISE,z,,,,,,,,,,,,,,,,,,,,,,,,,,,,,,,,,,,,,,,,,,,,,,,,,,,,,,,,,,,,,,,,,,
,,,,,,,,,,,,,,,,,,44,2022-02-12_12h16.23.369,lexical_decision_task_DD_L4,2021.2.3,Win32,60.0132029,m,0,0.7512,,,,,,,,0.7512,0,0,2,2,13,1,1001,ROUPET,z,,,,,,,,,,,,,,,,,,,,,,,,,,,,,,,,,,,,,,,,,,,,,,,,,,,,,,,,,,,,,,,,,,
,,,,,,,,,,,,,,,,,,44,2022-02-12_12h16.23.369,lexical_decision_task_DD_L4,2021.2.3,Win32,60.0132029,z,1,1.1203,,,,,,,,1.1203,1,0,3,3,12,1,1001,SPRINY,z,,,,,,,,,,,,,,,,,,,,,,,,,,,,,,,,,,,,,,,,,,,,,,,,,,,,,,,,,,,,,,,,,,
,,,,,,,,,,,,,,,,,,44,2022-02-12_12h16.23.369,lexical_decision_task_DD_L4,2021.2.3,Win32,60.0132029,m,1,0.6351,,,,,,,,0.6351,1,0,4,4,6,1,1001,ZOMBIE,m,,,,,,,,,,,,,,,,,,,,,,,,,,,,,,,,,,,,,,,,,,,,,,,,,,,,,,,,,,,,,,,,,,
,,,,,,,,,,,,,,,,,,44,2022-02-12_12h16.23.369,lexical_decision_task_DD_L4,2021.2.3,Win32,60.0132029,z,1,0.9179,,,,,,,,0.9179,1,0,5,5,8,1,1001,ASLERT,z,,,,,,,,,,,,,,,,,,,,,,,,,,,,,,,,,,,,,,,,,,,,,,,,,,,,,,,,,,,,,,,,,,
,,,,,,,,,,,,,,,,,,44,2022-02-12_12h16.23.369,lexical_decision_task_DD_L4,2021.2.3,Win32,60.0132029,z,1,0.7711,,,,,,,,0.7711,1,0,6,6,14,1,1001,THRALE,z,,,,,,,,,,,,,,,,,,,,,,,,,,,,,,,,,,,,,,,,,,,,,,,,,,,,,,,,,,,,,,,,,,
,,,,,,,,,,,,,,,,,,44,2022-02-12_12h16.23.369,lexical_decision_task_DD_L4,2021.2.3,Win32,60.0132029,m,1,0.801,,,,,,,,0.801,1,0,7,7,2,1,1001,ALMOND,m,,,,,,,,,,,,,,,,,,,,,,,,,,,,,,,,,,,,,,,,,,,,,,,,,,,,,,,,,,,,,,,,,,
,,,,,,,,,,,,,,,,,,44,2022-02-12_12h16.23.369,lexical_decision_task_DD_L4,2021.2.3,Win32,60.0132029,m,0,0.9535,,,,,,,,0.9535,0,0,8,8,10,1,1001,INLADE,z,,,,,,,,,,,,,,,,,,,,,,,,,,,,,,,,,,,,,,,,,,,,,,,,,,,,,,,,,,,,,,,,,,
,,,,,,,,,,,,,,,,,,44,2022-02-12_12h16.23.369,lexical_decision_task_DD_L4,2021.2.3,Win32,60.0132029,m,1,0.7668,,,,,,,,0.7668,1,0,9,9,4,1,1001,SQUEAK,m,,,,,,,,,,,,,,,,,,,,,,,,,,,,,,,,,,,,,,,,,,,,,,,,,,,,,,,,,,,,,,,,,,
,,,,,,,,,,,,,,,,,,44,2022-02-12_12h16.23.369,lexical_decision_task_DD_L4,2021.2.3,Win32,60.0132029,m,1,0.7375,,,,,,,,0.7375,1,0,10,10,0,1,1001,UTOPIA,m,,,,,,,,,,,,,,,,,,,,,,,,,,,,,,,,,,,,,,,,,,,,,,,,,,,,,,,,,,,,,,,,,,
,,,,,,,,,,,,,,,,,,44,2022-02-12_12h16.23.369,lexical_decision_task_DD_L4,2021.2.3,Win32,60.0132029,m,1,0.7014,,,,,,,,0.7014,1,0,11,11,1,1,1001,ADJUST,m,,,,,,,,,,,,,,,,,,,,,,,,,,,,,,,,,,,,,,,,,,,,,,,,,,,,,,,,,,,,,,,,,,
,,,,,,,,,,,,,,,,,,44,2022-02-12_12h16.23.369,lexical_decision_task_DD_L4,2021.2.3,Win32,60.0132029,m,1,0.6521,,,,,,,,0.6521,1,0,12,12,7,1,1001,VOLUME,m,,,,,,,,,,,,,,,,,,,,,,,,,,,,,,,,,,,,,,,,,,,,,,,,,,,,,,,,,,,,,,,,,,
,,,,,,,,,,,,,,,,,,44,2022-02-12_12h16.23.369,lexical_decision_task_DD_L4,2021.2.3,Win32,60.0132029,z,1,0.7842,,,,,,,,0.7842,1,0,13,13,11,1,1001,RASHET,z,,,,,,,,,,,,,,,,,,,,,,,,,,,,,,,,,,,,,,,,,,,,,,,,,,,,,,,,,,,,,,,,,,
,,,,,,,,,,,,,,,,,,44,2022-02-12_12h16.23.369,lexical_decision_task_DD_L4,2021.2.3,Win32,60.0132029,m,1,0.7686,,,,,,,,0.7686,1,0,14,14,5,1,1001,OBTAIN,m,,,,,,,,,,,,,,,,,,,,,,,,,,,,,,,,,,,,,,,,,,,,,,,,,,,,,,,,,,,,,,,,,,
,,,,,,,,,,,,,,,,,,44,2022-02-12_12h16.23.369,lexical_decision_task_DD_L4,2021.2.3,Win32,60.0132029,m,1,0.6894,,,,,,,,0.6894,1,0,15,15,3,1,1001,MATRIX,m,,,,,,,,,,,,,,,,,,,,,,,,,,,,,,,,,,,,,,,,,,,,,,,,,,,,,,,,,,,,,,,,,,
space,8.5377,0.006510417,-0.38671875,0,0,0,,,,,,1,end_of_practice,"You have completed the practice trials. During the experimental trials, you will not receive feedback. 
Before you begin, please ensure that you are in a comfortable and quiet location and will not be disturbed for about 15 minutes, as we cannot use your data if you do not complete all the trials. 
 When you are ready to start the experimental trials, please press space or touch the button below.",,,,44,2022-02-12_12h16.23.369,lexical_decision_task_DD_L4,2021.2.3,Win32,60.0132029,,,,,,,,,,,,,,,,,,,,,0,0,0,0,1,,,,,,,,,,,,,,,,,,,,,,,,,,,,,,,,,,,,,,,,,,,,,,,,,,,,,,,,,,,,,
,,,,,,,,,,,,,,,,,,44,2022-02-12_12h16.23.369,lexical_decision_task_DD_L4,2021.2.3,Win32,60.0132029,,,,,,,,,,,0.8074,1,,,,,,,,,,,,,,m,1,0.8074,,,,,,,,0.006510417,-0.38671875,0,0,0,,0,0,0,17,1,PARADE,LB,old,m,./images/PARADELB.png,,,,,,,,,,,,,,,,,,,,,,,,,,,,,,,,,,,
,,,,,,,,,,,,,,,,,,44,2022-02-12_12h16.23.369,lexical_decision_task_DD_L4,2021.2.3,Win32,60.0132029,,,,,,,,,,,0.708,1,,,,,,,,,,,,,,m,1,0.708,,,,,,,,0.006510417,-0.38671875,0,0,0,,0,1,1,74,1,JUMPER,LB,old,m,./images/JUMPERLB.png,,,,,,,,,,,,,,,,,,,,,,,,,,,,,,,,,,,
,,,,,,,,,,,,,,,,,,44,2022-02-12_12h16.23.369,lexical_decision_task_DD_L4,2021.2.3,Win32,60.0132029,,,,,,,,,,,0.7142,1,,,,,,,,,,,,,,m,1,0.7142,,,,,,,,0.006510417,-0.38671875,0,0,0,,0,2,2,47,1,LAGOON,LB,old,m,./images/LAGOONLB.png,,,,,,,,,,,,,,,,,,,,,,,,,,,,,,,,,,,
,,,,,,,,,,,,,,,,,,44,2022-02-12_12h16.23.369,lexical_decision_task_DD_L4,2021.2.3,Win32,60.0132029,,,,,,,,,,,0.7697,1,,,,,,,,,,,,,,z,1,0.7697,,,,,,,,0.006510417,-0.38671875,0,0,0,,0,3,3,89,1,DRIEK,LB,old,z,./images/DRIEKLB.png,,,,,,,,,,,,,,,,,,,,,,,,,,,,,,,,,,,
,,,,,,,,,,,,,,,,,,44,2022-02-12_12h16.23.369,lexical_decision_task_DD_L4,2021.2.3,Win32,60.0132029,,,,,,,,,,,1.2303,1,,,,,,,,,,,,,,z,1,1.2303,,,,,,,,0.006510417,-0.38671875,0,0,0,,0,4,4,124,1,TUNCH,HB,old,z,./images/TUNCHHB.png,,,,,,,,,,,,,,,,,,,,,,,,,,,,,,,,,,,
,,,,,,,,,,,,,,,,,,44,2022-02-12_12h16.23.369,lexical_decision_task_DD_L4,2021.2.3,Win32,60.0132029,,,,,,,,,,,1.3251,1,,,,,,,,,,,,,,z,1,1.3251,,,,,,,,0.006510417,-0.38671875,0,0,0,,0,5,5,112,1,MYING,HB,old,z,./images/MYINGHB.png,,,,,,,,,,,,,,,,,,,,,,,,,,,,,,,,,,,
,,,,,,,,,,,,,,,,,,44,2022-02-12_12h16.23.369,lexical_decision_task_DD_L4,2021.2.3,Win32,60.0132029,,,,,,,,,,,1.0968,1,,,,,,,,,,,,,,z,1,1.0968,,,,,,,,0.006510417,-0.38671875,0,0,0,,0,6,6,137,1,JOOST,LB,old,z,./images/JOOSTLB.png,,,,,,,,,,,,,,,,,,,,,,,,,,,,,,,,,,,
,,,,,,,,,,,,,,,,,,44,2022-02-12_12h16.23.369,lexical_decision_task_DD_L4,2021.2.3,Win32,60.0132029,,,,,,,,,,,0.7028,1,,,,,,,,,,,,,,z,1,0.7028,,,,,,,,0.006510417,-0.38671875,0,0,0,,0,7,7,111,1,HOSSE,C,old,z,./images/HOSSE.png,,,,,,,,,,,,,,,,,,,,,,,,,,,,,,,,,,,
,,,,,,,,,,,,,,,,,,44,2022-02-12_12h16.23.369,lexical_decision_task_DD_L4,2021.2.3,Win32,60.0132029,,,,,,,,,,,1.3085,1,,,,,,,,,,,,,,z,1,1.3085,,,,,,,,0.006510417,-0.38671875,0,0,0,,0,8,8,100,1,DRIBS,HB,old,z,./images/DRIBSHB.png,,,,,,,,,,,,,,,,,,,,,,,,,,,,,,,,,,,
,,,,,,,,,,,,,,,,,,44,2022-02-12_12h16.23.369,lexical_decision_task_DD_L4,2021.2.3,Win32,60.0132029,,,,,,,,,,,0.5671,1,,,,,,,,,,,,,,m,1,0.5671,,,,,,,,0.006510417,-0.38671875,0,0,0,,0,9,9,54,1,CHERRY,C,old,m,./images/CHERRY.png,,,,,,,,,,,,,,,,,,,,,,,,,,,,,,,,,,,
,,,,,,,,,,,,,,,,,,44,2022-02-12_12h16.23.369,lexical_decision_task_DD_L4,2021.2.3,Win32,60.0132029,,,,,,,,,,,1.0642,1,,,,,,,,,,,,,,z,1,1.0642,,,,,,,,0.006510417,-0.38671875,0,0,0,,0,10,10,106,1,CLUMS,HB,old,z,./images/CLUMSHB.png,,,,,,,,,,,,,,,,,,,,,,,,,,,,,,,,,,,
,,,,,,,,,,,,,,,,,,44,2022-02-12_12h16.23.369,lexical_decision_task_DD_L4,2021.2.3,Win32,60.0132029,,,,,,,,,,,1.1249,1,,,,,,,,,,,,,,z,1,1.1249,,,,,,,,0.006510417,-0.38671875,0,0,0,,0,11,11,136,1,WERVE,HB,old,z,./images/WERVEHB.png,,,,,,,,,,,,,,,,,,,,,,,,,,,,,,,,,,,
,,,,,,,,,,,,,,,,,,44,2022-02-12_12h16.23.369,lexical_decision_task_DD_L4,2021.2.3,Win32,60.0132029,,,,,,,,,,,0.6729,1,,,,,,,,,,,,,,m,1,0.6729,,,,,,,,0.006510417,-0.38671875,0,0,0,,0,12,12,21,1,DANCER,C,old,m,./images/DANCER.png,,,,,,,,,,,,,,,,,,,,,,,,,,,,,,,,,,,
,,,,,,,,,,,,,,,,,,44,2022-02-12_12h16.23.369,lexical_decision_task_DD_L4,2021.2.3,Win32,60.0132029,,,,,,,,,,,0.7922,1,,,,,,,,,,,,,,z,1,0.7922,,,,,,,,0.006510417,-0.38671875,0,0,0,,0,13,13,103,1,FLORT,HB,old,z,./images/FLORTHB.png,,,,,,,,,,,,,,,,,,,,,,,,,,,,,,,,,,,
,,,,,,,,,,,,,,,,,,44,2022-02-12_12h16.23.369,lexical_decision_task_DD_L4,2021.2.3,Win32,60.0132029,,,,,,,,,,,0.7232,1,,,,,,,,,,,,,,m,1,0.7232,,,,,,,,0.006510417,-0.38671875,0,0,0,,0,14,14,72,1,FLASK,C,old,m,./images/FLASK.png,,,,,,,,,,,,,,,,,,,,,,,,,,,,,,,,,,,
,,,,,,,,,,,,,,,,,,44,2022-02-12_12h16.23.369,lexical_decision_task_DD_L4,2021.2.3,Win32,60.0132029,,,,,,,,,,,0.7176,1,,,,,,,,,,,,,,m,1,0.7176,,,,,,,,0.006510417,-0.38671875,0,0,0,,0,15,15,80,1,PLANET,LB,old,m,./images/PLANETLB.png,,,,,,,,,,,,,,,,,,,,,,,,,,,,,,,,,,,
,,,,,,,,,,,,,,,,,,44,2022-02-12_12h16.23.369,lexical_decision_task_DD_L4,2021.2.3,Win32,60.0132029,,,,,,,,,,,0.711,1,,,,,,,,,,,,,,m,1,0.711,,,,,,,,0.006510417,-0.38671875,0,0,0,,0,16,16,53,1,POSTER,LB,old,m,./images/POSTERLB.png,,,,,,,,,,,,,,,,,,,,,,,,,,,,,,,,,,,
,,,,,,,,,,,,,,,,,,44,2022-02-12_12h16.23.369,lexical_decision_task_DD_L4,2021.2.3,Win32,60.0132029,,,,,,,,,,,0.6828,1,,,,,,,,,,,,,,m,1,0.6828,,,,,,,,0.006510417,-0.38671875,0,0,0,,0,17,17,16,1,GRAPE,HB,old,m,./images/GRAPEHB.png,,,,,,,,,,,,,,,,,,,,,,,,,,,,,,,,,,,
,,,,,,,,,,,,,,,,,,44,2022-02-12_12h16.23.369,lexical_decision_task_DD_L4,2021.2.3,Win32,60.0132029,,,,,,,,,,,0.6307,1,,,,,,,,,,,,,,m,1,0.6307,,,,,,,,0.006510417,-0.38671875,0,0,0,,0,18,18,42,1,CHAIN,C,old,m,./images/CHAIN.png,,,,,,,,,,,,,,,,,,,,,,,,,,,,,,,,,,,
,,,,,,,,,,,,,,,,,,44,2022-02-12_12h16.23.369,lexical_decision_task_DD_L4,2021.2.3,Win32,60.0132029,,,,,,,,,,,0.7545,1,,,,,,,,,,,,,,m,1,0.7545,,,,,,,,0.006510417,-0.38671875,0,0,0,,0,19,19,10,1,GARDEN,HB,old,m,./images/GARDENHB.png,,,,,,,,,,,,,,,,,,,,,,,,,,,,,,,,,,,
,,,,,,,,,,,,,,,,,,44,2022-02-12_12h16.23.369,lexical_decision_task_DD_L4,2021.2.3,Win32,60.0132029,,,,,,,,,,,0.8752,1,,,,,,,,,,,,,,z,1,0.8752,,,,,,,,0.006510417,-0.38671875,0,0,0,,0,20,20,159,1,CUDDY,C,old,z,./images/CUDDY.png,,,,,,,,,,,,,,,,,,,,,,,,,,,,,,,,,,,
,,,,,,,,,,,,,,,,,,44,2022-02-12_12h16.23.369,lexical_decision_task_DD_L4,2021.2.3,Win32,60.0132029,,,,,,,,,,,1.4994,1,,,,,,,,,,,,,,z,1,1.4994,,,,,,,,0.006510417,-0.38671875,0,0,0,,0,21,21,154,1,THINT,HB,old,z,./images/THINTHB.png,,,,,,,,,,,,,,,,,,,,,,,,,,,,,,,,,,,
,,,,,,,,,,,,,,,,,,44,2022-02-12_12h16.23.369,lexical_decision_task_DD_L4,2021.2.3,Win32,60.0132029,,,,,,,,,,,0.8292,1,,,,,,,,,,,,,,m,1,0.8292,,,,,,,,0.006510417,-0.38671875,0,0,0,,0,22,22,70,1,BANANA,HB,old,m,./images/BANANAHB.png,,,,,,,,,,,,,,,,,,,,,,,,,,,,,,,,,,,
,,,,,,,,,,,,,,,,,,44,2022-02-12_12h16.23.369,lexical_decision_task_DD_L4,2021.2.3,Win32,60.0132029,,,,,,,,,,,0.9423,1,,,,,,,,,,,,,,z,1,0.9423,,,,,,,,0.006510417,-0.38671875,0,0,0,,0,23,23,155,1,CANGY,LB,old,z,./images/CANGYLB.png,,,,,,,,,,,,,,,,,,,,,,,,,,,,,,,,,,,
,,,,,,,,,,,,,,,,,,44,2022-02-12_12h16.23.369,lexical_decision_task_DD_L4,2021.2.3,Win32,60.0132029,,,,,,,,,,,0.9863,1,,,,,,,,,,,,,,z,1,0.9863,,,,,,,,0.006510417,-0.38671875,0,0,0,,0,24,24,99,1,BACKY,C,old,z,./images/BACKY.png,,,,,,,,,,,,,,,,,,,,,,,,,,,,,,,,,,,
,,,,,,,,,,,,,,,,,,44,2022-02-12_12h16.23.369,lexical_decision_task_DD_L4,2021.2.3,Win32,60.0132029,,,,,,,,,,,0.6702,1,,,,,,,,,,,,,,m,1,0.6702,,,,,,,,0.006510417,-0.38671875,0,0,0,,0,25,25,75,1,HAMMER,C,old,m,./images/HAMMER.png,,,,,,,,,,,,,,,,,,,,,,,,,,,,,,,,,,,
,,,,,,,,,,,,,,,,,,44,2022-02-12_12h16.23.369,lexical_decision_task_DD_L4,2021.2.3,Win32,60.0132029,,,,,,,,,,,0.748,1,,,,,,,,,,,,,,z,1,0.748,,,,,,,,0.006510417,-0.38671875,0,0,0,,0,26,26,108,1,GRUET,C,old,z,./images/GRUET.png,,,,,,,,,,,,,,,,,,,,,,,,,,,,,,,,,,,
,,,,,,,,,,,,,,,,,,44,2022-02-12_12h16.23.369,lexical_decision_task_DD_L4,2021.2.3,Win32,60.0132029,,,,,,,,,,,0.9325,1,,,,,,,,,,,,,,m,1,0.9325,,,,,,,,0.006510417,-0.38671875,0,0,0,,0,27,27,28,1,CASINO,HB,old,m,./images/CASINOHB.png,,,,,,,,,,,,,,,,,,,,,,,,,,,,,,,,,,,
,,,,,,,,,,,,,,,,,,44,2022-02-12_12h16.23.369,lexical_decision_task_DD_L4,2021.2.3,Win32,60.0132029,,,,,,,,,,,0.8362,1,,,,,,,,,,,,,,z,1,0.8362,,,,,,,,0.006510417,-0.38671875,0,0,0,,0,28,28,130,1,CRILL,HB,old,z,./images/CRILLHB.png,,,,,,,,,,,,,,,,,,,,,,,,,,,,,,,,,,,
,,,,,,,,,,,,,,,,,,44,2022-02-12_12h16.23.369,lexical_decision_task_DD_L4,2021.2.3,Win32,60.0132029,,,,,,,,,,,0.8856,1,,,,,,,,,,,,,,z,1,0.8856,,,,,,,,0.006510417,-0.38671875,0,0,0,,0,29,29,92,1,PAIMS,LB,old,z,./images/PAIMSLB.png,,,,,,,,,,,,,,,,,,,,,,,,,,,,,,,,,,,
,,,,,,,,,,,,,,,,,,44,2022-02-12_12h16.23.369,lexical_decision_task_DD_L4,2021.2.3,Win32,60.0132029,,,,,,,,,,,0.7179,1,,,,,,,,,,,,,,z,1,0.7179,,,,,,,,0.006510417,-0.38671875,0,0,0,,0,30,30,144,1,NAIRY,C,old,z,./images/NAIRY.png,,,,,,,,,,,,,,,,,,,,,,,,,,,,,,,,,,,
,,,,,,,,,,,,,,,,,,44,2022-02-12_12h16.23.369,lexical_decision_task_DD_L4,2021.2.3,Win32,60.0132029,,,,,,,,,,,0.9331,1,,,,,,,,,,,,,,m,1,0.9331,,,,,,,,0.006510417,-0.38671875,0,0,0,,0,31,31,82,1,PEBBLE,HB,old,m,./images/PEBBLEHB.png,,,,,,,,,,,,,,,,,,,,,,,,,,,,,,,,,,,
,,,,,,,,,,,,,,,,,,44,2022-02-12_12h16.23.369,lexical_decision_task_DD_L4,2021.2.3,Win32,60.0132029,,,,,,,,,,,0.6008,1,,,,,,,,,,,,,,m,1,0.6008,,,,,,,,0.006510417,-0.38671875,0,0,0,,0,32,32,0,1,WALNUT,C,old,m,./images/WALNUT.png,,,,,,,,,,,,,,,,,,,,,,,,,,,,,,,,,,,
,,,,,,,,,,,,,,,,,,44,2022-02-12_12h16.23.369,lexical_decision_task_DD_L4,2021.2.3,Win32,60.0132029,,,,,,,,,,,0.6747,1,,,,,,,,,,,,,,z,1,0.6747,,,,,,,,0.006510417,-0.38671875,0,0,0,,0,33,33,161,1,BLAPS,LB,old,z,./images/BLAPSLB.png,,,,,,,,,,,,,,,,,,,,,,,,,,,,,,,,,,,
,,,,,,,,,,,,,,,,,,44,2022-02-12_12h16.23.369,lexical_decision_task_DD_L4,2021.2.3,Win32,60.0132029,,,,,,,,,,,1.048,1,,,,,,,,,,,,,,z,1,1.048,,,,,,,,0.006510417,-0.38671875,0,0,0,,0,34,34,115,1,MAWNS,HB,old,z,./images/MAWNSHB.png,,,,,,,,,,,,,,,,,,,,,,,,,,,,,,,,,,,
,,,,,,,,,,,,,,,,,,44,2022-02-12_12h16.23.369,lexical_decision_task_DD_L4,2021.2.3,Win32,60.0132029,,,,,,,,,,,0.7083,1,,,,,,,,,,,,,,m,1,0.7083,,,,,,,,0.006510417,-0.38671875,0,0,0,,0,35,35,83,1,WHISKY,LB,old,m,./images/WHISKYLB.png,,,,,,,,,,,,,,,,,,,,,,,,,,,,,,,,,,,
,,,,,,,,,,,,,,,,,,44,2022-02-12_12h16.23.369,lexical_decision_task_DD_L4,2021.2.3,Win32,60.0132029,,,,,,,,,,,1.471,1,,,,,,,,,,,,,,z,1,1.471,,,,,,,,0.006510417,-0.38671875,0,0,0,,0,36,36,84,1,HAXES,C,old,z,./images/HAXES.png,,,,,,,,,,,,,,,,,,,,,,,,,,,,,,,,,,,
,,,,,,,,,,,,,,,,,,44,2022-02-12_12h16.23.369,lexical_decision_task_DD_L4,2021.2.3,Win32,60.0132029,,,,,,,,,,,0.8647,1,,,,,,,,,,,,,,z,1,0.8647,,,,,,,,0.006510417,-0.38671875,0,0,0,,0,37,37,95,1,HANTY,LB,old,z,./images/HANTYLB.png,,,,,,,,,,,,,,,,,,,,,,,,,,,,,,,,,,,
,,,,,,,,,,,,,,,,,,44,2022-02-12_12h16.23.369,lexical_decision_task_DD_L4,2021.2.3,Win32,60.0132029,,,,,,,,,,,0.6037,1,,,,,,,,,,,,,,m,1,0.6037,,,,,,,,0.006510417,-0.38671875,0,0,0,,0,38,38,39,1,CANDY,C,old,m,./images/CANDY.png,,,,,,,,,,,,,,,,,,,,,,,,,,,,,,,,,,,
,,,,,,,,,,,,,,,,,,44,2022-02-12_12h16.23.369,lexical_decision_task_DD_L4,2021.2.3,Win32,60.0132029,,,,,,,,,,,0.648,1,,,,,,,,,,,,,,m,1,0.648,,,,,,,,0.006510417,-0.38671875,0,0,0,,0,39,39,29,1,PISTOL,LB,old,m,./images/PISTOLLB.png,,,,,,,,,,,,,,,,,,,,,,,,,,,,,,,,,,,
,,,,,,,,,,,,,,,,,,44,2022-02-12_12h16.23.369,lexical_decision_task_DD_L4,2021.2.3,Win32,60.0132029,,,,,,,,,,,0.778,1,,,,,,,,,,,,,,z,1,0.778,,,,,,,,0.006510417,-0.38671875,0,0,0,,0,40,40,167,1,ZONET,LB,old,z,./images/ZONETLB.png,,,,,,,,,,,,,,,,,,,,,,,,,,,,,,,,,,,
,,,,,,,,,,,,,,,,,,44,2022-02-12_12h16.23.369,lexical_decision_task_DD_L4,2021.2.3,Win32,60.0132029,,,,,,,,,,,0.8339,1,,,,,,,,,,,,,,z,1,0.8339,,,,,,,,0.006510417,-0.38671875,0,0,0,space,0,41,41,126,1,GUELS,C,old,z,./images/GUELS.png,7.0365,,,,,,,,,,,,,,,,,,,,,,,,,,,,,,,,,,
,,,,,,,,,,,,,,,,,,44,2022-02-12_12h16.23.369,lexical_decision_task_DD_L4,2021.2.3,Win32,60.0132029,,,,,,,,,,,0.9102,1,,,,,,,,,,,,,,z,1,0.9102,,,,,,,,0.006510417,-0.38671875,0,0,0,,0,42,42,139,1,BLEAR,HB,old,z,./images/BLEARHB.png,,,,,,,,,,,,,,,,,,,,,,,,,,,,,,,,,,,
,,,,,,,,,,,,,,,,,,44,2022-02-12_12h16.23.369,lexical_decision_task_DD_L4,2021.2.3,Win32,60.0132029,,,,,,,,,,,0.9287,0,,,,,,,,,,,,,,m,0,0.9287,,,,,,,,0.006510417,-0.38671875,0,0,0,,0,43,43,123,1,SEDGE,C,old,z,./images/SEDGE.png,,,,,,,,,,,,,,,,,,,,,,,,,,,,,,,,,,,
,,,,,,,,,,,,,,,,,,44,2022-02-12_12h16.23.369,lexical_decision_task_DD_L4,2021.2.3,Win32,60.0132029,,,,,,,,,,,1.1425,0,,,,,,,,,,,,,,m,0,1.1425,,,,,,,,0.006510417,-0.38671875,0,0,0,,0,44,44,142,1,PLASK,HB,old,z,./images/PLASKHB.png,,,,,,,,,,,,,,,,,,,,,,,,,,,,,,,,,,,
,,,,,,,,,,,,,,,,,,44,2022-02-12_12h16.23.369,lexical_decision_task_DD_L4,2021.2.3,Win32,60.0132029,,,,,,,,,,,0.8678,1,,,,,,,,,,,,,,z,1,0.8678,,,,,,,,0.006510417,-0.38671875,0,0,0,,0,45,45,165,1,TROWN,C,old,z,./images/TROWN.png,,,,,,,,,,,,,,,,,,,,,,,,,,,,,,,,,,,
,,,,,,,,,,,,,,,,,,44,2022-02-12_12h16.23.369,lexical_decision_task_DD_L4,2021.2.3,Win32,60.0132029,,,,,,,,,,,0.677,1,,,,,,,,,,,,,,m,1,0.677,,,,,,,,0.006510417,-0.38671875,0,0,0,,0,46,46,23,1,CLOTH,LB,old,m,./images/CLOTHLB.png,,,,,,,,,,,,,,,,,,,,,,,,,,,,,,,,,,,
,,,,,,,,,,,,,,,,,,44,2022-02-12_12h16.23.369,lexical_decision_task_DD_L4,2021.2.3,Win32,60.0132029,,,,,,,,,,,0.7006,1,,,,,,,,,,,,,,m,1,0.7006,,,,,,,,0.006510417,-0.38671875,0,0,0,,0,47,47,18,1,PARCEL,C,old,m,./images/PARCEL.png,,,,,,,,,,,,,,,,,,,,,,,,,,,,,,,,,,,
,,,,,,,,,,,,,,,,,,44,2022-02-12_12h16.23.369,lexical_decision_task_DD_L4,2021.2.3,Win32,60.0132029,,,,,,,,,,,1.3271,1,,,,,,,,,,,,,,m,1,1.3271,,,,,,,,0.006510417,-0.38671875,0,0,0,,0,48,48,64,1,BRIDE,HB,old,m,./images/BRIDEHB.png,,,,,,,,,,,,,,,,,,,,,,,,,,,,,,,,,,,
,,,,,,,,,,,,,,,,,,44,2022-02-12_12h16.23.369,lexical_decision_task_DD_L4,2021.2.3,Win32,60.0132029,,,,,,,,,,,0.7664,1,,,,,,,,,,,,,,z,1,0.7664,,,,,,,,0.006510417,-0.38671875,0,0,0,,0,49,49,88,1,GLUSH,HB,old,z,./images/GLUSHHB.png,,,,,,,,,,,,,,,,,,,,,,,,,,,,,,,,,,,
,,,,,,,,,,,,,,,,,,44,2022-02-12_12h16.23.369,lexical_decision_task_DD_L4,2021.2.3,Win32,60.0132029,,,,,,,,,,,1.7142,1,,,,,,,,,,,,,,z,1,1.7142,,,,,,,,0.006510417,-0.38671875,0,0,0,,0,50,50,157,1,INLER,HB,old,z,./images/INLERHB.png,,,,,,,,,,,,,,,,,,,,,,,,,,,,,,,,,,,
,,,,,,,,,,,,,,,,,,44,2022-02-12_12h16.23.369,lexical_decision_task_DD_L4,2021.2.3,Win32,60.0132029,,,,,,,,,,,0.7367,1,,,,,,,,,,,,,,m,1,0.7367,,,,,,,,0.006510417,-0.38671875,0,0,0,,0,51,51,8,1,CLIFF,LB,old,m,./images/CLIFFLB.png,,,,,,,,,,,,,,,,,,,,,,,,,,,,,,,,,,,
,,,,,,,,,,,,,,,,,,44,2022-02-12_12h16.23.369,lexical_decision_task_DD_L4,2021.2.3,Win32,60.0132029,,,,,,,,,,,0.6917,1,,,,,,,,,,,,,,z,1,0.6917,,,,,,,,0.006510417,-0.38671875,0,0,0,,0,52,52,138,1,PLICE,C,old,z,./images/PLICE.png,,,,,,,,,,,,,,,,,,,,,,,,,,,,,,,,,,,
,,,,,,,,,,,,,,,,,,44,2022-02-12_12h16.23.369,lexical_decision_task_DD_L4,2021.2.3,Win32,60.0132029,,,,,,,,,,,0.6652,1,,,,,,,,,,,,,,m,1,0.6652,,,,,,,,0.006510417,-0.38671875,0,0,0,,0,53,53,38,1,ENGINE,LB,old,m,./images/ENGINELB.png,,,,,,,,,,,,,,,,,,,,,,,,,,,,,,,,,,,
,,,,,,,,,,,,,,,,,,44,2022-02-12_12h16.23.369,lexical_decision_task_DD_L4,2021.2.3,Win32,60.0132029,,,,,,,,,,,0.6682,1,,,,,,,,,,,,,,z,1,0.6682,,,,,,,,0.006510417,-0.38671875,0,0,0,,0,54,54,96,1,KEAMS,C,old,z,./images/KEAMS.png,,,,,,,,,,,,,,,,,,,,,,,,,,,,,,,,,,,
,,,,,,,,,,,,,,,,,,44,2022-02-12_12h16.23.369,lexical_decision_task_DD_L4,2021.2.3,Win32,60.0132029,,,,,,,,,,,0.6681,1,,,,,,,,,,,,,,z,1,0.6681,,,,,,,,0.006510417,-0.38671875,0,0,0,,0,55,55,114,1,RIKES,C,old,z,./images/RIKES.png,,,,,,,,,,,,,,,,,,,,,,,,,,,,,,,,,,,
,,,,,,,,,,,,,,,,,,44,2022-02-12_12h16.23.369,lexical_decision_task_DD_L4,2021.2.3,Win32,60.0132029,,,,,,,,,,,0.77,1,,,,,,,,,,,,,,m,1,0.77,,,,,,,,0.006510417,-0.38671875,0,0,0,,0,56,56,52,1,DESERT,HB,old,m,./images/DESERTHB.png,,,,,,,,,,,,,,,,,,,,,,,,,,,,,,,,,,,
,,,,,,,,,,,,,,,,,,44,2022-02-12_12h16.23.369,lexical_decision_task_DD_L4,2021.2.3,Win32,60.0132029,,,,,,,,,,,0.609,1,,,,,,,,,,,,,,m,1,0.609,,,,,,,,0.006510417,-0.38671875,0,0,0,,0,57,57,45,1,MONKEY,C,old,m,./images/MONKEY.png,,,,,,,,,,,,,,,,,,,,,,,,,,,,,,,,,,,
,,,,,,,,,,,,,,,,,,44,2022-02-12_12h16.23.369,lexical_decision_task_DD_L4,2021.2.3,Win32,60.0132029,,,,,,,,,,,0.7915,1,,,,,,,,,,,,,,z,1,0.7915,,,,,,,,0.006510417,-0.38671875,0,0,0,,0,58,58,109,1,BURGE,HB,old,z,./images/BURGEHB.png,,,,,,,,,,,,,,,,,,,,,,,,,,,,,,,,,,,
,,,,,,,,,,,,,,,,,,44,2022-02-12_12h16.23.369,lexical_decision_task_DD_L4,2021.2.3,Win32,60.0132029,,,,,,,,,,,0.7242,1,,,,,,,,,,,,,,m,1,0.7242,,,,,,,,0.006510417,-0.38671875,0,0,0,,0,59,59,26,1,CLOUD,LB,old,m,./images/CLOUDLB.png,,,,,,,,,,,,,,,,,,,,,,,,,,,,,,,,,,,
,,,,,,,,,,,,,,,,,,44,2022-02-12_12h16.23.369,lexical_decision_task_DD_L4,2021.2.3,Win32,60.0132029,,,,,,,,,,,0.7587,1,,,,,,,,,,,,,,m,1,0.7587,,,,,,,,0.006510417,-0.38671875,0,0,0,,0,60,60,22,1,CLOWN,HB,old,m,./images/CLOWNHB.png,,,,,,,,,,,,,,,,,,,,,,,,,,,,,,,,,,,
,,,,,,,,,,,,,,,,,,44,2022-02-12_12h16.23.369,lexical_decision_task_DD_L4,2021.2.3,Win32,60.0132029,,,,,,,,,,,0.6668,1,,,,,,,,,,,,,,m,1,0.6668,,,,,,,,0.006510417,-0.38671875,0,0,0,,0,61,61,24,1,FLESH,C,old,m,./images/FLESH.png,,,,,,,,,,,,,,,,,,,,,,,,,,,,,,,,,,,
,,,,,,,,,,,,,,,,,,44,2022-02-12_12h16.23.369,lexical_decision_task_DD_L4,2021.2.3,Win32,60.0132029,,,,,,,,,,,0.7762,0,,,,,,,,,,,,,,z,0,0.7762,,,,,,,,0.006510417,-0.38671875,0,0,0,,0,62,62,79,1,RULER,HB,old,m,./images/RULERHB.png,,,,,,,,,,,,,,,,,,,,,,,,,,,,,,,,,,,
,,,,,,,,,,,,,,,,,,44,2022-02-12_12h16.23.369,lexical_decision_task_DD_L4,2021.2.3,Win32,60.0132029,,,,,,,,,,,1.2426,1,,,,,,,,,,,,,,m,1,1.2426,,,,,,,,0.006510417,-0.38671875,0,0,0,,0,63,63,20,1,GRANNY,LB,old,m,./images/GRANNYLB.png,,,,,,,,,,,,,,,,,,,,,,,,,,,,,,,,,,,
,,,,,,,,,,,,,,,,,,44,2022-02-12_12h16.23.369,lexical_decision_task_DD_L4,2021.2.3,Win32,60.0132029,,,,,,,,,,,1.5587,1,,,,,,,,,,,,,,z,1,1.5587,,,,,,,,0.006510417,-0.38671875,0,0,0,,0,64,64,97,1,CHIDS,HB,old,z,./images/CHIDSHB.png,,,,,,,,,,,,,,,,,,,,,,,,,,,,,,,,,,,
,,,,,,,,,,,,,,,,,,44,2022-02-12_12h16.23.369,lexical_decision_task_DD_L4,2021.2.3,Win32,60.0132029,,,,,,,,,,,0.628,1,,,,,,,,,,,,,,m,1,0.628,,,,,,,,0.006510417,-0.38671875,0,0,0,,0,65,65,6,1,STAIN,C,old,m,./images/STAIN.png,,,,,,,,,,,,,,,,,,,,,,,,,,,,,,,,,,,
,,,,,,,,,,,,,,,,,,44,2022-02-12_12h16.23.369,lexical_decision_task_DD_L4,2021.2.3,Win32,60.0132029,,,,,,,,,,,0.6208,1,,,,,,,,,,,,,,m,1,0.6208,,,,,,,,0.006510417,-0.38671875,0,0,0,,0,66,66,5,1,BAMBOO,LB,old,m,./images/BAMBOOLB.png,,,,,,,,,,,,,,,,,,,,,,,,,,,,,,,,,,,
,,,,,,,,,,,,,,,,,,44,2022-02-12_12h16.23.369,lexical_decision_task_DD_L4,2021.2.3,Win32,60.0132029,,,,,,,,,,,0.7056,1,,,,,,,,,,,,,,m,1,0.7056,,,,,,,,0.006510417,-0.38671875,0,0,0,,0,67,67,57,1,FERRY,C,old,m,./images/FERRY.png,,,,,,,,,,,,,,,,,,,,,,,,,,,,,,,,,,,
,,,,,,,,,,,,,,,,,,44,2022-02-12_12h16.23.369,lexical_decision_task_DD_L4,2021.2.3,Win32,60.0132029,,,,,,,,,,,0.7172,1,,,,,,,,,,,,,,m,1,0.7172,,,,,,,,0.006510417,-0.38671875,0,0,0,,0,68,68,9,1,DIVER,C,old,m,./images/DIVER.png,,,,,,,,,,,,,,,,,,,,,,,,,,,,,,,,,,,
,,,,,,,,,,,,,,,,,,44,2022-02-12_12h16.23.369,lexical_decision_task_DD_L4,2021.2.3,Win32,60.0132029,,,,,,,,,,,0.7208,1,,,,,,,,,,,,,,z,1,0.7208,,,,,,,,0.006510417,-0.38671875,0,0,0,,0,69,69,134,1,TROSS,LB,old,z,./images/TROSSLB.png,,,,,,,,,,,,,,,,,,,,,,,,,,,,,,,,,,,
,,,,,,,,,,,,,,,,,,44,2022-02-12_12h16.23.369,lexical_decision_task_DD_L4,2021.2.3,Win32,60.0132029,,,,,,,,,,,0.8307,1,,,,,,,,,,,,,,z,1,0.8307,,,,,,,,0.006510417,-0.38671875,0,0,0,,0,70,70,107,1,FASKS,LB,old,z,./images/FASKSLB.png,,,,,,,,,,,,,,,,,,,,,,,,,,,,,,,,,,,
,,,,,,,,,,,,,,,,,,44,2022-02-12_12h16.23.369,lexical_decision_task_DD_L4,2021.2.3,Win32,60.0132029,,,,,,,,,,,0.7393,1,,,,,,,,,,,,,,z,1,0.7393,,,,,,,,0.006510417,-0.38671875,0,0,0,,0,71,71,158,1,EGECT,LB,old,z,./images/EGECTLB.png,,,,,,,,,,,,,,,,,,,,,,,,,,,,,,,,,,,
,,,,,,,,,,,,,,,,,,44,2022-02-12_12h16.23.369,lexical_decision_task_DD_L4,2021.2.3,Win32,60.0132029,,,,,,,,,,,0.6171,1,,,,,,,,,,,,,,z,1,0.6171,,,,,,,,0.006510417,-0.38671875,0,0,0,,0,72,72,90,1,NEAST,C,old,z,./images/NEAST.png,,,,,,,,,,,,,,,,,,,,,,,,,,,,,,,,,,,
,,,,,,,,,,,,,,,,,,44,2022-02-12_12h16.23.369,lexical_decision_task_DD_L4,2021.2.3,Win32,60.0132029,,,,,,,,,,,0.8369,1,,,,,,,,,,,,,,m,1,0.8369,,,,,,,,0.006510417,-0.38671875,0,0,0,,0,73,73,46,1,MUMMY,HB,old,m,./images/MUMMYHB.png,,,,,,,,,,,,,,,,,,,,,,,,,,,,,,,,,,,
,,,,,,,,,,,,,,,,,,44,2022-02-12_12h16.23.369,lexical_decision_task_DD_L4,2021.2.3,Win32,60.0132029,,,,,,,,,,,0.6833,1,,,,,,,,,,,,,,z,1,0.6833,,,,,,,,0.006510417,-0.38671875,0,0,0,,0,74,74,87,1,TRING,C,old,z,./images/TRING.png,,,,,,,,,,,,,,,,,,,,,,,,,,,,,,,,,,,
,,,,,,,,,,,,,,,,,,44,2022-02-12_12h16.23.369,lexical_decision_task_DD_L4,2021.2.3,Win32,60.0132029,,,,,,,,,,,0.8022,1,,,,,,,,,,,,,,z,1,0.8022,,,,,,,,0.006510417,-0.38671875,0,0,0,,0,75,75,160,1,VEETS,HB,old,z,./images/VEETSHB.png,,,,,,,,,,,,,,,,,,,,,,,,,,,,,,,,,,,
,,,,,,,,,,,,,,,,,,44,2022-02-12_12h16.23.369,lexical_decision_task_DD_L4,2021.2.3,Win32,60.0132029,,,,,,,,,,,0.6664,0,,,,,,,,,,,,,,z,0,0.6664,,,,,,,,0.006510417,-0.38671875,0,0,0,,0,76,76,76,1,MIDGET,HB,old,m,./images/MIDGETHB.png,,,,,,,,,,,,,,,,,,,,,,,,,,,,,,,,,,,
,,,,,,,,,,,,,,,,,,44,2022-02-12_12h16.23.369,lexical_decision_task_DD_L4,2021.2.3,Win32,60.0132029,,,,,,,,,,,0.7108,1,,,,,,,,,,,,,,m,1,0.7108,,,,,,,,0.006510417,-0.38671875,0,0,0,,0,77,77,19,1,DONKEY,HB,old,m,./images/DONKEYHB.png,,,,,,,,,,,,,,,,,,,,,,,,,,,,,,,,,,,
,,,,,,,,,,,,,,,,,,44,2022-02-12_12h16.23.369,lexical_decision_task_DD_L4,2021.2.3,Win32,60.0132029,,,,,,,,,,,0.7296,1,,,,,,,,,,,,,,m,1,0.7296,,,,,,,,0.006510417,-0.38671875,0,0,0,,0,78,78,73,1,GLOVE,HB,old,m,./images/GLOVEHB.png,,,,,,,,,,,,,,,,,,,,,,,,,,,,,,,,,,,
,,,,,,,,,,,,,,,,,,44,2022-02-12_12h16.23.369,lexical_decision_task_DD_L4,2021.2.3,Win32,60.0132029,,,,,,,,,,,0.7981,1,,,,,,,,,,,,,,z,1,0.7981,,,,,,,,0.006510417,-0.38671875,0,0,0,,0,79,79,163,1,GAMBA,HB,old,z,./images/GAMBAHB.png,,,,,,,,,,,,,,,,,,,,,,,,,,,,,,,,,,,
,,,,,,,,,,,,,,,,,,44,2022-02-12_12h16.23.369,lexical_decision_task_DD_L4,2021.2.3,Win32,60.0132029,,,,,,,,,,,1.3316,1,,,,,,,,,,,,,,m,1,1.3316,,,,,,,,0.006510417,-0.38671875,0,0,0,,0,80,80,37,1,TIGER,HB,old,m,./images/TIGERHB.png,,,,,,,,,,,,,,,,,,,,,,,,,,,,,,,,,,,
,,,,,,,,,,,,,,,,,,44,2022-02-12_12h16.23.369,lexical_decision_task_DD_L4,2021.2.3,Win32,60.0132029,,,,,,,,,,,0.6946,1,,,,,,,,,,,,,,m,1,0.6946,,,,,,,,0.006510417,-0.38671875,0,0,0,,0,81,81,1,1,TOWEL,HB,old,m,./images/TOWELHB.png,,,,,,,,,,,,,,,,,,,,,,,,,,,,,,,,,,,
,,,,,,,,,,,,,,,,,,44,2022-02-12_12h16.23.369,lexical_decision_task_DD_L4,2021.2.3,Win32,60.0132029,,,,,,,,,,,0.6785,1,,,,,,,,,,,,,,m,1,0.6785,,,,,,,,0.006510417,-0.38671875,0,0,0,,0,82,82,13,1,BUNNY,HB,old,m,./images/BUNNYHB.png,,,,,,,,,,,,,,,,,,,,,,,,,,,,,,,,,,,
,,,,,,,,,,,,,,,,,,44,2022-02-12_12h16.23.369,lexical_decision_task_DD_L4,2021.2.3,Win32,60.0132029,,,,,,,,,,,1.1702,1,,,,,,,,,,,,,,m,1,1.1702,,,,,,,,0.006510417,-0.38671875,0,0,0,space,0,83,83,81,1,DRILL,C,old,m,./images/DRILL.png,2.9397,,,,,,,,,,,,,,,,,,,,,,,,,,,,,,,,,,
,,,,,,,,,,,,,,,,,,44,2022-02-12_12h16.23.369,lexical_decision_task_DD_L4,2021.2.3,Win32,60.0132029,,,,,,,,,,,0.7943,1,,,,,,,,,,,,,,m,1,0.7943,,,,,,,,0.006510417,-0.38671875,0,0,0,,0,84,84,67,1,POKER,HB,old,m,./images/POKERHB.png,,,,,,,,,,,,,,,,,,,,,,,,,,,,,,,,,,,
,,,,,,,,,,,,,,,,,,44,2022-02-12_12h16.23.369,lexical_decision_task_DD_L4,2021.2.3,Win32,60.0132029,,,,,,,,,,,0.8915,1,,,,,,,,,,,,,,z,1,0.8915,,,,,,,,0.006510417,-0.38671875,0,0,0,,0,85,85,143,1,MONGS,LB,old,z,./images/MONGSLB.png,,,,,,,,,,,,,,,,,,,,,,,,,,,,,,,,,,,
,,,,,,,,,,,,,,,,,,44,2022-02-12_12h16.23.369,lexical_decision_task_DD_L4,2021.2.3,Win32,60.0132029,,,,,,,,,,,0.7429,1,,,,,,,,,,,,,,m,1,0.7429,,,,,,,,0.006510417,-0.38671875,0,0,0,,0,86,86,61,1,ARTIST,HB,old,m,./images/ARTISTHB.png,,,,,,,,,,,,,,,,,,,,,,,,,,,,,,,,,,,
,,,,,,,,,,,,,,,,,,44,2022-02-12_12h16.23.369,lexical_decision_task_DD_L4,2021.2.3,Win32,60.0132029,,,,,,,,,,,0.8448,1,,,,,,,,,,,,,,z,1,0.8448,,,,,,,,0.006510417,-0.38671875,0,0,0,,0,87,87,140,1,DOVET,LB,old,z,./images/DOVETLB.png,,,,,,,,,,,,,,,,,,,,,,,,,,,,,,,,,,,
,,,,,,,,,,,,,,,,,,44,2022-02-12_12h16.23.369,lexical_decision_task_DD_L4,2021.2.3,Win32,60.0132029,,,,,,,,,,,0.8021,1,,,,,,,,,,,,,,z,1,0.8021,,,,,,,,0.006510417,-0.38671875,0,0,0,,0,88,88,132,1,SCIFF,C,old,z,./images/SCIFF.png,,,,,,,,,,,,,,,,,,,,,,,,,,,,,,,,,,,
,,,,,,,,,,,,,,,,,,44,2022-02-12_12h16.23.369,lexical_decision_task_DD_L4,2021.2.3,Win32,60.0132029,,,,,,,,,,,1.169,1,,,,,,,,,,,,,,z,1,1.169,,,,,,,,0.006510417,-0.38671875,0,0,0,,0,89,89,118,1,BAVEL,HB,old,z,./images/BAVELHB.png,,,,,,,,,,,,,,,,,,,,,,,,,,,,,,,,,,,
,,,,,,,,,,,,,,,,,,44,2022-02-12_12h16.23.369,lexical_decision_task_DD_L4,2021.2.3,Win32,60.0132029,,,,,,,,,,,1.2943,1,,,,,,,,,,,,,,z,1,1.2943,,,,,,,,0.006510417,-0.38671875,0,0,0,,0,90,90,94,1,BLANS,HB,old,z,./images/BLANSHB.png,,,,,,,,,,,,,,,,,,,,,,,,,,,,,,,,,,,
,,,,,,,,,,,,,,,,,,44,2022-02-12_12h16.23.369,lexical_decision_task_DD_L4,2021.2.3,Win32,60.0132029,,,,,,,,,,,0.8085,1,,,,,,,,,,,,,,m,1,0.8085,,,,,,,,0.006510417,-0.38671875,0,0,0,,0,91,91,40,1,SNAKE,HB,old,m,./images/SNAKEHB.png,,,,,,,,,,,,,,,,,,,,,,,,,,,,,,,,,,,
,,,,,,,,,,,,,,,,,,44,2022-02-12_12h16.23.369,lexical_decision_task_DD_L4,2021.2.3,Win32,60.0132029,,,,,,,,,,,0.8441,1,,,,,,,,,,,,,,z,1,0.8441,,,,,,,,0.006510417,-0.38671875,0,0,0,,0,92,92,121,1,CEERS,HB,old,z,./images/CEERSHB.png,,,,,,,,,,,,,,,,,,,,,,,,,,,,,,,,,,,
,,,,,,,,,,,,,,,,,,44,2022-02-12_12h16.23.369,lexical_decision_task_DD_L4,2021.2.3,Win32,60.0132029,,,,,,,,,,,0.774,1,,,,,,,,,,,,,,z,1,0.774,,,,,,,,0.006510417,-0.38671875,0,0,0,,0,93,93,120,1,RINED,C,old,z,./images/RINED.png,,,,,,,,,,,,,,,,,,,,,,,,,,,,,,,,,,,
,,,,,,,,,,,,,,,,,,44,2022-02-12_12h16.23.369,lexical_decision_task_DD_L4,2021.2.3,Win32,60.0132029,,,,,,,,,,,0.7117,1,,,,,,,,,,,,,,m,1,0.7117,,,,,,,,0.006510417,-0.38671875,0,0,0,,0,94,94,27,1,BUTTER,C,old,m,./images/BUTTER.png,,,,,,,,,,,,,,,,,,,,,,,,,,,,,,,,,,,
,,,,,,,,,,,,,,,,,,44,2022-02-12_12h16.23.369,lexical_decision_task_DD_L4,2021.2.3,Win32,60.0132029,,,,,,,,,,,0.7473,1,,,,,,,,,,,,,,z,1,0.7473,,,,,,,,0.006510417,-0.38671875,0,0,0,,0,95,95,110,1,CRUNK,LB,old,z,./images/CRUNKLB.png,,,,,,,,,,,,,,,,,,,,,,,,,,,,,,,,,,,
,,,,,,,,,,,,,,,,,,44,2022-02-12_12h16.23.369,lexical_decision_task_DD_L4,2021.2.3,Win32,60.0132029,,,,,,,,,,,0.6822,1,,,,,,,,,,,,,,z,1,0.6822,,,,,,,,0.006510417,-0.38671875,0,0,0,,0,96,96,156,1,HIXES,C,old,z,./images/HIXES.png,,,,,,,,,,,,,,,,,,,,,,,,,,,,,,,,,,,
,,,,,,,,,,,,,,,,,,44,2022-02-12_12h16.23.369,lexical_decision_task_DD_L4,2021.2.3,Win32,60.0132029,,,,,,,,,,,0.684,1,,,,,,,,,,,,,,m,1,0.684,,,,,,,,0.006510417,-0.38671875,0,0,0,,0,97,97,31,1,STEAK,HB,old,m,./images/STEAKHB.png,,,,,,,,,,,,,,,,,,,,,,,,,,,,,,,,,,,
,,,,,,,,,,,,,,,,,,44,2022-02-12_12h16.23.369,lexical_decision_task_DD_L4,2021.2.3,Win32,60.0132029,,,,,,,,,,,1.0154,1,,,,,,,,,,,,,,m,1,1.0154,,,,,,,,0.006510417,-0.38671875,0,0,0,,0,98,98,4,1,BOXER,HB,old,m,./images/BOXERHB.png,,,,,,,,,,,,,,,,,,,,,,,,,,,,,,,,,,,
,,,,,,,,,,,,,,,,,,44,2022-02-12_12h16.23.369,lexical_decision_task_DD_L4,2021.2.3,Win32,60.0132029,,,,,,,,,,,0.7056,1,,,,,,,,,,,,,,z,1,0.7056,,,,,,,,0.006510417,-0.38671875,0,0,0,,0,99,99,93,1,SMONE,C,old,z,./images/SMONE.png,,,,,,,,,,,,,,,,,,,,,,,,,,,,,,,,,,,
,,,,,,,,,,,,,,,,,,44,2022-02-12_12h16.23.369,lexical_decision_task_DD_L4,2021.2.3,Win32,60.0132029,,,,,,,,,,,0.8856,1,,,,,,,,,,,,,,m,1,0.8856,,,,,,,,0.006510417,-0.38671875,0,0,0,,0,100,100,3,1,CRATER,C,old,m,./images/CRATER.png,,,,,,,,,,,,,,,,,,,,,,,,,,,,,,,,,,,
,,,,,,,,,,,,,,,,,,44,2022-02-12_12h16.23.369,lexical_decision_task_DD_L4,2021.2.3,Win32,60.0132029,,,,,,,,,,,0.6695,1,,,,,,,,,,,,,,m,1,0.6695,,,,,,,,0.006510417,-0.38671875,0,0,0,,0,101,101,36,1,BOILER,C,old,m,./images/BOILER.png,,,,,,,,,,,,,,,,,,,,,,,,,,,,,,,,,,,
,,,,,,,,,,,,,,,,,,44,2022-02-12_12h16.23.369,lexical_decision_task_DD_L4,2021.2.3,Win32,60.0132029,,,,,,,,,,,0.5774,1,,,,,,,,,,,,,,m,1,0.5774,,,,,,,,0.006510417,-0.38671875,0,0,0,,0,102,102,51,1,SAUCE,C,old,m,./images/SAUCE.png,,,,,,,,,,,,,,,,,,,,,,,,,,,,,,,,,,,
,,,,,,,,,,,,,,,,,,44,2022-02-12_12h16.23.369,lexical_decision_task_DD_L4,2021.2.3,Win32,60.0132029,,,,,,,,,,,0.9353,0,,,,,,,,,,,,,,m,0,0.9353,,,,,,,,0.006510417,-0.38671875,0,0,0,,0,103,103,128,1,GRIFT,LB,old,z,./images/GRIFTLB.png,,,,,,,,,,,,,,,,,,,,,,,,,,,,,,,,,,,
,,,,,,,,,,,,,,,,,,44,2022-02-12_12h16.23.369,lexical_decision_task_DD_L4,2021.2.3,Win32,60.0132029,,,,,,,,,,,0.5992,1,,,,,,,,,,,,,,m,1,0.5992,,,,,,,,0.006510417,-0.38671875,0,0,0,,0,104,104,63,1,BAKER,C,old,m,./images/BAKER.png,,,,,,,,,,,,,,,,,,,,,,,,,,,,,,,,,,,
,,,,,,,,,,,,,,,,,,44,2022-02-12_12h16.23.369,lexical_decision_task_DD_L4,2021.2.3,Win32,60.0132029,,,,,,,,,,,0.9517,1,,,,,,,,,,,,,,z,1,0.9517,,,,,,,,0.006510417,-0.38671875,0,0,0,,0,105,105,162,1,LEICH,C,old,z,./images/LEICH.png,,,,,,,,,,,,,,,,,,,,,,,,,,,,,,,,,,,
,,,,,,,,,,,,,,,,,,44,2022-02-12_12h16.23.369,lexical_decision_task_DD_L4,2021.2.3,Win32,60.0132029,,,,,,,,,,,0.6398,1,,,,,,,,,,,,,,m,1,0.6398,,,,,,,,0.006510417,-0.38671875,0,0,0,,0,106,106,78,1,BROOM,C,old,m,./images/BROOM.png,,,,,,,,,,,,,,,,,,,,,,,,,,,,,,,,,,,
,,,,,,,,,,,,,,,,,,44,2022-02-12_12h16.23.369,lexical_decision_task_DD_L4,2021.2.3,Win32,60.0132029,,,,,,,,,,,0.6813,1,,,,,,,,,,,,,,m,1,0.6813,,,,,,,,0.006510417,-0.38671875,0,0,0,,0,107,107,59,1,BRUSH,LB,old,m,./images/BRUSHLB.png,,,,,,,,,,,,,,,,,,,,,,,,,,,,,,,,,,,
,,,,,,,,,,,,,,,,,,44,2022-02-12_12h16.23.369,lexical_decision_task_DD_L4,2021.2.3,Win32,60.0132029,,,,,,,,,,,0.7412,1,,,,,,,,,,,,,,z,1,0.7412,,,,,,,,0.006510417,-0.38671875,0,0,0,,0,108,108,152,1,FRAIN,LB,old,z,./images/FRAINLB.png,,,,,,,,,,,,,,,,,,,,,,,,,,,,,,,,,,,
,,,,,,,,,,,,,,,,,,44,2022-02-12_12h16.23.369,lexical_decision_task_DD_L4,2021.2.3,Win32,60.0132029,,,,,,,,,,,0.6241,1,,,,,,,,,,,,,,z,1,0.6241,,,,,,,,0.006510417,-0.38671875,0,0,0,,0,109,109,117,1,STEEG,C,old,z,./images/STEEG.png,,,,,,,,,,,,,,,,,,,,,,,,,,,,,,,,,,,
,,,,,,,,,,,,,,,,,,44,2022-02-12_12h16.23.369,lexical_decision_task_DD_L4,2021.2.3,Win32,60.0132029,,,,,,,,,,,1.0805,1,,,,,,,,,,,,,,z,1,1.0805,,,,,,,,0.006510417,-0.38671875,0,0,0,,0,110,110,85,1,CHULK,HB,old,z,./images/CHULKHB.png,,,,,,,,,,,,,,,,,,,,,,,,,,,,,,,,,,,
,,,,,,,,,,,,,,,,,,44,2022-02-12_12h16.23.369,lexical_decision_task_DD_L4,2021.2.3,Win32,60.0132029,,,,,,,,,,,0.7506,1,,,,,,,,,,,,,,z,1,0.7506,,,,,,,,0.006510417,-0.38671875,0,0,0,,0,111,111,125,1,MOOKY,LB,old,z,./images/MOOKYLB.png,,,,,,,,,,,,,,,,,,,,,,,,,,,,,,,,,,,
,,,,,,,,,,,,,,,,,,44,2022-02-12_12h16.23.369,lexical_decision_task_DD_L4,2021.2.3,Win32,60.0132029,,,,,,,,,,,0.5672,1,,,,,,,,,,,,,,m,1,0.5672,,,,,,,,0.006510417,-0.38671875,0,0,0,,0,112,112,56,1,HEATER,LB,old,m,./images/HEATERLB.png,,,,,,,,,,,,,,,,,,,,,,,,,,,,,,,,,,,
,,,,,,,,,,,,,,,,,,44,2022-02-12_12h16.23.369,lexical_decision_task_DD_L4,2021.2.3,Win32,60.0132029,,,,,,,,,,,0.6687,1,,,,,,,,,,,,,,z,1,0.6687,,,,,,,,0.006510417,-0.38671875,0,0,0,,0,113,113,147,1,ZOLES,C,old,z,./images/ZOLES.png,,,,,,,,,,,,,,,,,,,,,,,,,,,,,,,,,,,
,,,,,,,,,,,,,,,,,,44,2022-02-12_12h16.23.369,lexical_decision_task_DD_L4,2021.2.3,Win32,60.0132029,,,,,,,,,,,0.7408,1,,,,,,,,,,,,,,z,1,0.7408,,,,,,,,0.006510417,-0.38671875,0,0,0,,0,114,114,149,1,VEASE,LB,old,z,./images/VEASELB.png,,,,,,,,,,,,,,,,,,,,,,,,,,,,,,,,,,,
,,,,,,,,,,,,,,,,,,44,2022-02-12_12h16.23.369,lexical_decision_task_DD_L4,2021.2.3,Win32,60.0132029,,,,,,,,,,,0.6335,1,,,,,,,,,,,,,,z,1,0.6335,,,,,,,,0.006510417,-0.38671875,0,0,0,,0,115,115,131,1,NACES,LB,old,z,./images/NACESLB.png,,,,,,,,,,,,,,,,,,,,,,,,,,,,,,,,,,,
,,,,,,,,,,,,,,,,,,44,2022-02-12_12h16.23.369,lexical_decision_task_DD_L4,2021.2.3,Win32,60.0132029,,,,,,,,,,,0.6748,1,,,,,,,,,,,,,,m,1,0.6748,,,,,,,,0.006510417,-0.38671875,0,0,0,,0,116,116,32,1,HOCKEY,LB,old,m,./images/HOCKEYLB.png,,,,,,,,,,,,,,,,,,,,,,,,,,,,,,,,,,,
,,,,,,,,,,,,,,,,,,44,2022-02-12_12h16.23.369,lexical_decision_task_DD_L4,2021.2.3,Win32,60.0132029,,,,,,,,,,,0.8512,1,,,,,,,,,,,,,,m,1,0.8512,,,,,,,,0.006510417,-0.38671875,0,0,0,,0,117,117,49,1,BISHOP,HB,old,m,./images/BISHOPHB.png,,,,,,,,,,,,,,,,,,,,,,,,,,,,,,,,,,,
,,,,,,,,,,,,,,,,,,44,2022-02-12_12h16.23.369,lexical_decision_task_DD_L4,2021.2.3,Win32,60.0132029,,,,,,,,,,,0.6079,1,,,,,,,,,,,,,,m,1,0.6079,,,,,,,,0.006510417,-0.38671875,0,0,0,,0,118,118,66,1,STATUE,C,old,m,./images/STATUE.png,,,,,,,,,,,,,,,,,,,,,,,,,,,,,,,,,,,
,,,,,,,,,,,,,,,,,,44,2022-02-12_12h16.23.369,lexical_decision_task_DD_L4,2021.2.3,Win32,60.0132029,,,,,,,,,,,0.7,1,,,,,,,,,,,,,,m,1,0.7,,,,,,,,0.006510417,-0.38671875,0,0,0,,0,119,119,44,1,BASKET,LB,old,m,./images/BASKETLB.png,,,,,,,,,,,,,,,,,,,,,,,,,,,,,,,,,,,
,,,,,,,,,,,,,,,,,,44,2022-02-12_12h16.23.369,lexical_decision_task_DD_L4,2021.2.3,Win32,60.0132029,,,,,,,,,,,0.7503,1,,,,,,,,,,,,,,m,1,0.7503,,,,,,,,0.006510417,-0.38671875,0,0,0,,0,120,120,62,1,MAMMAL,LB,old,m,./images/MAMMALLB.png,,,,,,,,,,,,,,,,,,,,,,,,,,,,,,,,,,,
,,,,,,,,,,,,,,,,,,44,2022-02-12_12h16.23.369,lexical_decision_task_DD_L4,2021.2.3,Win32,60.0132029,,,,,,,,,,,0.6461,1,,,,,,,,,,,,,,z,1,0.6461,,,,,,,,0.006510417,-0.38671875,0,0,0,,0,121,121,153,1,CLUPS,C,old,z,./images/CLUPS.png,,,,,,,,,,,,,,,,,,,,,,,,,,,,,,,,,,,
,,,,,,,,,,,,,,,,,,44,2022-02-12_12h16.23.369,lexical_decision_task_DD_L4,2021.2.3,Win32,60.0132029,,,,,,,,,,,0.8839,1,,,,,,,,,,,,,,z,1,0.8839,,,,,,,,0.006510417,-0.38671875,0,0,0,,0,122,122,151,1,TINKY,HB,old,z,./images/TINKYHB.png,,,,,,,,,,,,,,,,,,,,,,,,,,,,,,,,,,,
,,,,,,,,,,,,,,,,,,44,2022-02-12_12h16.23.369,lexical_decision_task_DD_L4,2021.2.3,Win32,60.0132029,,,,,,,,,,,0.9368,1,,,,,,,,,,,,,,m,1,0.9368,,,,,,,,0.006510417,-0.38671875,0,0,0,,0,123,123,43,1,STOOL,HB,old,m,./images/STOOLHB.png,,,,,,,,,,,,,,,,,,,,,,,,,,,,,,,,,,,
,,,,,,,,,,,,,,,,,,44,2022-02-12_12h16.23.369,lexical_decision_task_DD_L4,2021.2.3,Win32,60.0132029,,,,,,,,,,,0.6343,1,,,,,,,,,,,,,,m,1,0.6343,,,,,,,,0.006510417,-0.38671875,0,0,0,,0,124,124,50,1,PILOT,LB,old,m,./images/PILOTLB.png,,,,,,,,,,,,,,,,,,,,,,,,,,,,,,,,,,,
,,,,,,,,,,,,,,,,,,44,2022-02-12_12h16.23.369,lexical_decision_task_DD_L4,2021.2.3,Win32,60.0132029,,,,,,,,,,,0.6339,1,,,,,,,,,,,,,,m,1,0.6339,,,,,,,,0.006510417,-0.38671875,0,0,0,space,0,125,125,2,1,STOVE,LB,old,m,./images/STOVELB.png,1.7686,,,,,,,,,,,,,,,,,,,,,,,,,,,,,,,,,,
,,,,,,,,,,,,,,,,,,44,2022-02-12_12h16.23.369,lexical_decision_task_DD_L4,2021.2.3,Win32,60.0132029,,,,,,,,,,,0.9663,1,,,,,,,,,,,,,,m,1,0.9663,,,,,,,,0.006510417,-0.38671875,0,0,0,,0,126,126,25,1,CHALK,HB,old,m,./images/CHALKHB.png,,,,,,,,,,,,,,,,,,,,,,,,,,,,,,,,,,,
,,,,,,,,,,,,,,,,,,44,2022-02-12_12h16.23.369,lexical_decision_task_DD_L4,2021.2.3,Win32,60.0132029,,,,,,,,,,,0.7508,1,,,,,,,,,,,,,,m,1,0.7508,,,,,,,,0.006510417,-0.38671875,0,0,0,,0,127,127,58,1,CANOE,HB,old,m,./images/CANOEHB.png,,,,,,,,,,,,,,,,,,,,,,,,,,,,,,,,,,,
,,,,,,,,,,,,,,,,,,44,2022-02-12_12h16.23.369,lexical_decision_task_DD_L4,2021.2.3,Win32,60.0132029,,,,,,,,,,,0.7027,1,,,,,,,,,,,,,,m,1,0.7027,,,,,,,,0.006510417,-0.38671875,0,0,0,,0,128,128,35,1,LLAMA,LB,old,m,./images/LLAMALB.png,,,,,,,,,,,,,,,,,,,,,,,,,,,,,,,,,,,
,,,,,,,,,,,,,,,,,,44,2022-02-12_12h16.23.369,lexical_decision_task_DD_L4,2021.2.3,Win32,60.0132029,,,,,,,,,,,0.5652,1,,,,,,,,,,,,,,m,1,0.5652,,,,,,,,0.006510417,-0.38671875,0,0,0,,0,129,129,60,1,CURRY,C,old,m,./images/CURRY.png,,,,,,,,,,,,,,,,,,,,,,,,,,,,,,,,,,,
,,,,,,,,,,,,,,,,,,44,2022-02-12_12h16.23.369,lexical_decision_task_DD_L4,2021.2.3,Win32,60.0132029,,,,,,,,,,,1.019,1,,,,,,,,,,,,,,z,1,1.019,,,,,,,,0.006510417,-0.38671875,0,0,0,,0,130,130,91,1,SHENS,HB,old,z,./images/SHENSHB.png,,,,,,,,,,,,,,,,,,,,,,,,,,,,,,,,,,,
,,,,,,,,,,,,,,,,,,44,2022-02-12_12h16.23.369,lexical_decision_task_DD_L4,2021.2.3,Win32,60.0132029,,,,,,,,,,,0.9839,1,,,,,,,,,,,,,,m,1,0.9839,,,,,,,,0.006510417,-0.38671875,0,0,0,,0,131,131,7,1,WAGON,HB,old,m,./images/WAGONHB.png,,,,,,,,,,,,,,,,,,,,,,,,,,,,,,,,,,,
,,,,,,,,,,,,,,,,,,44,2022-02-12_12h16.23.369,lexical_decision_task_DD_L4,2021.2.3,Win32,60.0132029,,,,,,,,,,,0.73,1,,,,,,,,,,,,,,z,1,0.73,,,,,,,,0.006510417,-0.38671875,0,0,0,,0,132,132,135,1,JOODY,C,old,z,./images/JOODY.png,,,,,,,,,,,,,,,,,,,,,,,,,,,,,,,,,,,
,,,,,,,,,,,,,,,,,,44,2022-02-12_12h16.23.369,lexical_decision_task_DD_L4,2021.2.3,Win32,60.0132029,,,,,,,,,,,0.675,1,,,,,,,,,,,,,,m,1,0.675,,,,,,,,0.006510417,-0.38671875,0,0,0,,0,133,133,12,1,BLOKE,C,old,m,./images/BLOKE.png,,,,,,,,,,,,,,,,,,,,,,,,,,,,,,,,,,,
,,,,,,,,,,,,,,,,,,44,2022-02-12_12h16.23.369,lexical_decision_task_DD_L4,2021.2.3,Win32,60.0132029,,,,,,,,,,,0.7679,1,,,,,,,,,,,,,,m,1,0.7679,,,,,,,,0.006510417,-0.38671875,0,0,0,,0,134,134,14,1,FENCE,LB,old,m,./images/FENCELB.png,,,,,,,,,,,,,,,,,,,,,,,,,,,,,,,,,,,
,,,,,,,,,,,,,,,,,,44,2022-02-12_12h16.23.369,lexical_decision_task_DD_L4,2021.2.3,Win32,60.0132029,,,,,,,,,,,0.7721,1,,,,,,,,,,,,,,z,1,0.7721,,,,,,,,0.006510417,-0.38671875,0,0,0,,0,135,135,119,1,PAFER,LB,old,z,./images/PAFERLB.png,,,,,,,,,,,,,,,,,,,,,,,,,,,,,,,,,,,
,,,,,,,,,,,,,,,,,,44,2022-02-12_12h16.23.369,lexical_decision_task_DD_L4,2021.2.3,Win32,60.0132029,,,,,,,,,,,0.7803,1,,,,,,,,,,,,,,z,1,0.7803,,,,,,,,0.006510417,-0.38671875,0,0,0,,0,136,136,86,1,AIFED,LB,old,z,./images/AIFEDLB.png,,,,,,,,,,,,,,,,,,,,,,,,,,,,,,,,,,,
,,,,,,,,,,,,,,,,,,44,2022-02-12_12h16.23.369,lexical_decision_task_DD_L4,2021.2.3,Win32,60.0132029,,,,,,,,,,,0.8952,1,,,,,,,,,,,,,,m,1,0.8952,,,,,,,,0.006510417,-0.38671875,0,0,0,,0,137,137,34,1,RAZOR,HB,old,m,./images/RAZORHB.png,,,,,,,,,,,,,,,,,,,,,,,,,,,,,,,,,,,
,,,,,,,,,,,,,,,,,,44,2022-02-12_12h16.23.369,lexical_decision_task_DD_L4,2021.2.3,Win32,60.0132029,,,,,,,,,,,0.7936,1,,,,,,,,,,,,,,z,1,0.7936,,,,,,,,0.006510417,-0.38671875,0,0,0,,0,138,138,146,1,MOOST,LB,old,z,./images/MOOSTLB.png,,,,,,,,,,,,,,,,,,,,,,,,,,,,,,,,,,,
,,,,,,,,,,,,,,,,,,44,2022-02-12_12h16.23.369,lexical_decision_task_DD_L4,2021.2.3,Win32,60.0132029,,,,,,,,,,,1.4094,1,,,,,,,,,,,,,,z,1,1.4094,,,,,,,,0.006510417,-0.38671875,0,0,0,,0,139,139,127,1,NINDY,HB,old,z,./images/NINDYHB.png,,,,,,,,,,,,,,,,,,,,,,,,,,,,,,,,,,,
,,,,,,,,,,,,,,,,,,44,2022-02-12_12h16.23.369,lexical_decision_task_DD_L4,2021.2.3,Win32,60.0132029,,,,,,,,,,,0.7245,1,,,,,,,,,,,,,,m,1,0.7245,,,,,,,,0.006510417,-0.38671875,0,0,0,,0,140,140,65,1,SPINE,LB,old,m,./images/SPINELB.png,,,,,,,,,,,,,,,,,,,,,,,,,,,,,,,,,,,
,,,,,,,,,,,,,,,,,,44,2022-02-12_12h16.23.369,lexical_decision_task_DD_L4,2021.2.3,Win32,60.0132029,,,,,,,,,,,0.9816,1,,,,,,,,,,,,,,z,1,0.9816,,,,,,,,0.006510417,-0.38671875,0,0,0,,0,141,141,148,1,JOMS,HB,old,z,./images/JOMSHB.png,,,,,,,,,,,,,,,,,,,,,,,,,,,,,,,,,,,
,,,,,,,,,,,,,,,,,,44,2022-02-12_12h16.23.369,lexical_decision_task_DD_L4,2021.2.3,Win32,60.0132029,,,,,,,,,,,0.6421,1,,,,,,,,,,,,,,m,1,0.6421,,,,,,,,0.006510417,-0.38671875,0,0,0,,0,142,142,48,1,SHIELD,C,old,m,./images/SHIELD.png,,,,,,,,,,,,,,,,,,,,,,,,,,,,,,,,,,,
,,,,,,,,,,,,,,,,,,44,2022-02-12_12h16.23.369,lexical_decision_task_DD_L4,2021.2.3,Win32,60.0132029,,,,,,,,,,,0.6753,1,,,,,,,,,,,,,,m,1,0.6753,,,,,,,,0.006510417,-0.38671875,0,0,0,,0,143,143,41,1,STREAM,LB,old,m,./images/STREAMLB.png,,,,,,,,,,,,,,,,,,,,,,,,,,,,,,,,,,,
,,,,,,,,,,,,,,,,,,44,2022-02-12_12h16.23.369,lexical_decision_task_DD_L4,2021.2.3,Win32,60.0132029,,,,,,,,,,,0.9423,1,,,,,,,,,,,,,,z,1,0.9423,,,,,,,,0.006510417,-0.38671875,0,0,0,,0,144,144,122,1,BLOOT,LB,old,z,./images/BLOOTLB.png,,,,,,,,,,,,,,,,,,,,,,,,,,,,,,,,,,,
,,,,,,,,,,,,,,,,,,44,2022-02-12_12h16.23.369,lexical_decision_task_DD_L4,2021.2.3,Win32,60.0132029,,,,,,,,,,,1.4378,0,,,,,,,,,,,,,,m,0,1.4378,,,,,,,,0.006510417,-0.38671875,0,0,0,,0,145,145,166,1,SHORY,HB,old,z,./images/SHORYHB.png,,,,,,,,,,,,,,,,,,,,,,,,,,,,,,,,,,,
,,,,,,,,,,,,,,,,,,44,2022-02-12_12h16.23.369,lexical_decision_task_DD_L4,2021.2.3,Win32,60.0132029,,,,,,,,,,,0.7341,1,,,,,,,,,,,,,,m,1,0.7341,,,,,,,,0.006510417,-0.38671875,0,0,0,,0,146,146,33,1,SAUNA,C,old,m,./images/SAUNA.png,,,,,,,,,,,,,,,,,,,,,,,,,,,,,,,,,,,
,,,,,,,,,,,,,,,,,,44,2022-02-12_12h16.23.369,lexical_decision_task_DD_L4,2021.2.3,Win32,60.0132029,,,,,,,,,,,0.8117,1,,,,,,,,,,,,,,z,1,0.8117,,,,,,,,0.006510417,-0.38671875,0,0,0,,0,147,147,116,1,BALGY,LB,old,z,./images/BALGYLB.png,,,,,,,,,,,,,,,,,,,,,,,,,,,,,,,,,,,
,,,,,,,,,,,,,,,,,,44,2022-02-12_12h16.23.369,lexical_decision_task_DD_L4,2021.2.3,Win32,60.0132029,,,,,,,,,,,1.2607,1,,,,,,,,,,,,,,z,1,1.2607,,,,,,,,0.006510417,-0.38671875,0,0,0,,0,148,148,133,1,POWDY,HB,old,z,./images/POWDYHB.png,,,,,,,,,,,,,,,,,,,,,,,,,,,,,,,,,,,
,,,,,,,,,,,,,,,,,,44,2022-02-12_12h16.23.369,lexical_decision_task_DD_L4,2021.2.3,Win32,60.0132029,,,,,,,,,,,0.9927,0,,,,,,,,,,,,,,z,0,0.9927,,,,,,,,0.006510417,-0.38671875,0,0,0,,0,149,149,55,1,ALLEY,HB,old,m,./images/ALLEYHB.png,,,,,,,,,,,,,,,,,,,,,,,,,,,,,,,,,,,
,,,,,,,,,,,,,,,,,,44,2022-02-12_12h16.23.369,lexical_decision_task_DD_L4,2021.2.3,Win32,60.0132029,,,,,,,,,,,0.66,1,,,,,,,,,,,,,,m,1,0.66,,,,,,,,0.006510417,-0.38671875,0,0,0,,0,150,150,77,1,WHEEL,LB,old,m,./images/WHEELLB.png,,,,,,,,,,,,,,,,,,,,,,,,,,,,,,,,,,,
,,,,,,,,,,,,,,,,,,44,2022-02-12_12h16.23.369,lexical_decision_task_DD_L4,2021.2.3,Win32,60.0132029,,,,,,,,,,,0.7014,1,,,,,,,,,,,,,,z,1,0.7014,,,,,,,,0.006510417,-0.38671875,0,0,0,,0,151,151,129,1,PRANS,C,old,z,./images/PRANS.png,,,,,,,,,,,,,,,,,,,,,,,,,,,,,,,,,,,
,,,,,,,,,,,,,,,,,,44,2022-02-12_12h16.23.369,lexical_decision_task_DD_L4,2021.2.3,Win32,60.0132029,,,,,,,,,,,0.7253,1,,,,,,,,,,,,,,z,1,0.7253,,,,,,,,0.006510417,-0.38671875,0,0,0,,0,152,152,164,1,SGREW,LB,old,z,./images/SGREWLB.png,,,,,,,,,,,,,,,,,,,,,,,,,,,,,,,,,,,
,,,,,,,,,,,,,,,,,,44,2022-02-12_12h16.23.369,lexical_decision_task_DD_L4,2021.2.3,Win32,60.0132029,,,,,,,,,,,0.9874,1,,,,,,,,,,,,,,z,1,0.9874,,,,,,,,0.006510417,-0.38671875,0,0,0,,0,153,153,104,1,GITTY,LB,old,z,./images/GITTYLB.png,,,,,,,,,,,,,,,,,,,,,,,,,,,,,,,,,,,
,,,,,,,,,,,,,,,,,,44,2022-02-12_12h16.23.369,lexical_decision_task_DD_L4,2021.2.3,Win32,60.0132029,,,,,,,,,,,0.8483,1,,,,,,,,,,,,,,z,1,0.8483,,,,,,,,0.006510417,-0.38671875,0,0,0,,0,154,154,141,1,PLEET,C,old,z,./images/PLEET.png,,,,,,,,,,,,,,,,,,,,,,,,,,,,,,,,,,,
,,,,,,,,,,,,,,,,,,44,2022-02-12_12h16.23.369,lexical_decision_task_DD_L4,2021.2.3,Win32,60.0132029,,,,,,,,,,,0.7453,1,,,,,,,,,,,,,,m,1,0.7453,,,,,,,,0.006510417,-0.38671875,0,0,0,,0,155,155,69,1,ARROW,C,old,m,./images/ARROW.png,,,,,,,,,,,,,,,,,,,,,,,,,,,,,,,,,,,
,,,,,,,,,,,,,,,,,,44,2022-02-12_12h16.23.369,lexical_decision_task_DD_L4,2021.2.3,Win32,60.0132029,,,,,,,,,,,0.7349,1,,,,,,,,,,,,,,z,1,0.7349,,,,,,,,0.006510417,-0.38671875,0,0,0,,0,156,156,150,1,NOOLS,C,old,z,./images/NOOLS.png,,,,,,,,,,,,,,,,,,,,,,,,,,,,,,,,,,,
,,,,,,,,,,,,,,,,,,44,2022-02-12_12h16.23.369,lexical_decision_task_DD_L4,2021.2.3,Win32,60.0132029,,,,,,,,,,,0.6683,1,,,,,,,,,,,,,,m,1,0.6683,,,,,,,,0.006510417,-0.38671875,0,0,0,,0,157,157,30,1,SLOPE,C,old,m,./images/SLOPE.png,,,,,,,,,,,,,,,,,,,,,,,,,,,,,,,,,,,
,,,,,,,,,,,,,,,,,,44,2022-02-12_12h16.23.369,lexical_decision_task_DD_L4,2021.2.3,Win32,60.0132029,,,,,,,,,,,0.9713,1,,,,,,,,,,,,,,z,1,0.9713,,,,,,,,0.006510417,-0.38671875,0,0,0,,0,158,158,102,1,DULLE,C,old,z,./images/DULLE.png,,,,,,,,,,,,,,,,,,,,,,,,,,,,,,,,,,,
,,,,,,,,,,,,,,,,,,44,2022-02-12_12h16.23.369,lexical_decision_task_DD_L4,2021.2.3,Win32,60.0132029,,,,,,,,,,,1.091,1,,,,,,,,,,,,,,z,1,1.091,,,,,,,,0.006510417,-0.38671875,0,0,0,,0,159,159,145,1,LAMEL,HB,old,z,./images/LAMELHB.png,,,,,,,,,,,,,,,,,,,,,,,,,,,,,,,,,,,
,,,,,,,,,,,,,,,,,,44,2022-02-12_12h16.23.369,lexical_decision_task_DD_L4,2021.2.3,Win32,60.0132029,,,,,,,,,,,0.8497,1,,,,,,,,,,,,,,z,1,0.8497,,,,,,,,0.006510417,-0.38671875,0,0,0,,0,160,160,105,1,MOKER,C,old,z,./images/MOKER.png,,,,,,,,,,,,,,,,,,,,,,,,,,,,,,,,,,,
,,,,,,,,,,,,,,,,,,44,2022-02-12_12h16.23.369,lexical_decision_task_DD_L4,2021.2.3,Win32,60.0132029,,,,,,,,,,,0.715,1,,,,,,,,,,,,,,m,1,0.715,,,,,,,,0.006510417,-0.38671875,0,0,0,,0,161,161,68,1,VALLEY,LB,old,m,./images/VALLEYLB.png,,,,,,,,,,,,,,,,,,,,,,,,,,,,,,,,,,,
,,,,,,,,,,,,,,,,,,44,2022-02-12_12h16.23.369,lexical_decision_task_DD_L4,2021.2.3,Win32,60.0132029,,,,,,,,,,,1.1681,1,,,,,,,,,,,,,,z,1,1.1681,,,,,,,,0.006510417,-0.38671875,0,0,0,,0,162,162,113,1,LINEW,LB,old,z,./images/LINEWLB.png,,,,,,,,,,,,,,,,,,,,,,,,,,,,,,,,,,,
,,,,,,,,,,,,,,,,,,44,2022-02-12_12h16.23.369,lexical_decision_task_DD_L4,2021.2.3,Win32,60.0132029,,,,,,,,,,,0.7432,1,,,,,,,,,,,,,,m,1,0.7432,,,,,,,,0.006510417,-0.38671875,0,0,0,,0,163,163,71,1,BUBBLE,LB,old,m,./images/BUBBLELB.png,,,,,,,,,,,,,,,,,,,,,,,,,,,,,,,,,,,
,,,,,,,,,,,,,,,,,,44,2022-02-12_12h16.23.369,lexical_decision_task_DD_L4,2021.2.3,Win32,60.0132029,,,,,,,,,,,0.7166,1,,,,,,,,,,,,,,z,1,0.7166,,,,,,,,0.006510417,-0.38671875,0,0,0,,0,164,164,101,1,GLEET,LB,old,z,./images/GLEETLB.png,,,,,,,,,,,,,,,,,,,,,,,,,,,,,,,,,,,
,,,,,,,,,,,,,,,,,,44,2022-02-12_12h16.23.369,lexical_decision_task_DD_L4,2021.2.3,Win32,60.0132029,,,,,,,,,,,0.6976,1,,,,,,,,,,,,,,m,1,0.6976,,,,,,,,0.006510417,-0.38671875,0,0,0,,0,165,165,11,1,MEDAL,LB,old,m,./images/MEDALLB.png,,,,,,,,,,,,,,,,,,,,,,,,,,,,,,,,,,,
,,,,,,,,,,,,,,,,,,44,2022-02-12_12h16.23.369,lexical_decision_task_DD_L4,2021.2.3,Win32,60.0132029,,,,,,,,,,,0.7671,1,,,,,,,,,,,,,,m,1,0.7671,,,,,,,,0.006510417,-0.38671875,0,0,0,,0,166,166,15,1,COLLAR,C,old,m,./images/COLLAR.png,,,,,,,,,,,,,,,,,,,,,,,,,,,,,,,,,,,
,,,,,,,,,,,,,,,,,,44,2022-02-12_12h16.23.369,lexical_decision_task_DD_L4,2021.2.3,Win32,60.0132029,,,,,,,,,,,0.9467,1,,,,,,,,,,,,,,z,1,0.9467,,,,,,,,0.006510417,-0.38671875,0,0,0,,0,167,167,98,1,BAMPS,LB,old,z,./images/BAMPSLB.png,,,,,,,,,,,,,,,,,,,,,,,,,,,,,,,,,,,
,,,,,,,,,,,,,,,,,,44,2022-02-12_12h16.23.369,lexical_decision_task_DD_L4,2021.2.3,Win32,60.0132029,,,,,,,,,,,,,,,,,,,,,,,,,,,,,,,,,,,,,,,,,,,,,,,,How likely will it be that you will recognize the words presented very blurred on a scale of 0 (not likely) to 100 (most likely)?,,,,,0.002604167,-0.411458333,1,0,0,jol_adv,3,5.9663,0,0,0,2,1,,,,,,,,,,,,,,,,,,,,,
,,,,,,,,,,,,,,,,,,44,2022-02-12_12h16.23.369,lexical_decision_task_DD_L4,2021.2.3,Win32,60.0132029,,,,,,,,,,,,,,,,,,,,,,,,,,,,,,,,,,,,,,,,,,,,,,,,How likely will it be that you will recognize the words presented clearly on a scale of 0 (not likely) to 100 (most likely)?,,,,,,,,,,,5,6.3853,0,1,1,0,1,,,,,,,,,,,,,,,,,,,,,
,,,,,,,,,,,,,,,,,,44,2022-02-12_12h16.23.369,lexical_decision_task_DD_L4,2021.2.3,Win32,60.0132029,,,,,,,,,,,,,,,,,,,,,,,,,,,,,,,,,,,,,,,,,,,,,,,,How likely will it be that you will recognize the words presented slighly blurred on a scale of 0 (not likely) to 100 (most likely)?,,,,,,,,,,,4,4.4576,0,2,2,1,1,,,,,,,,,,,,,,,,,,,,,
space,13.6396,0.020833333,-0.296875,0,0,0,,,,,,1,test,"In the next phase you will be presented with the words from the the first phase. Your job is to decide whether you remember seeing the word or not. If you remember seeing the word press ""old"" or type ""m"". If you do not remember seeing the word press ""new"" or type ""z"". Please press the space bar or click on continue to begin. ",,,,44,2022-02-12_12h16.23.369,lexical_decision_task_DD_L4,2021.2.3,Win32,60.0132029,,,,,,,,,,,,,,,,,,,,,,,,,,,,,,,,,,,,,,,,,,,,,,,,,,,,,,,,,,,,,,,,,,0,0,0,0,1,,,,,,,,,,,,,,,,
space,4.0472,0.03515625,-0.389322917,0,0,0,,,,,,1,test,"In the next phase you will be presented with the words from the the first phase. Your job is to decide whether you remember seeing the word or not. If you remember seeing the word press ""old"" or type ""m"". If you do not remember seeing the word press ""new"" or type ""z"". Please press the space bar or click on continue to begin. ",,,,44,2022-02-12_12h16.23.369,lexical_decision_task_DD_L4,2021.2.3,Win32,60.0132029,,,,,,,,,,,,,,,,,,,,,,,,,,,,,,,,,,,,,,,,,,,,,,,,,,,,,,,,,,,,,,,,,,1,0,1,0,1,,,,,,,,,,,,,,,,
,,0.095052083,-0.37109375,1,0,0,,,,,,1,test,"In the next phase you will be presented with the words from the the first phase. Your job is to decide whether you remember seeing the word or not. If you remember seeing the word press ""old"" or type ""m"". If you do not remember seeing the word press ""new"" or type ""z"". Please press the space bar or click on continue to begin. ",,,,44,2022-02-12_12h16.23.369,lexical_decision_task_DD_L4,2021.2.3,Win32,60.0132029,,,,,,,,,,,,,,,,,,,,,,,,,,,,,,,,,,,,,,,,,,,,,,,,,,,,,,,,,,,,,,,,,,2,0,2,0,1,instr_done_button,,,,,,,,,,,,,,,
,,0.006510417,-0.416666667,1,0,0,,,,,,1,test,"In the next phase you will be presented with the words from the the first phase. Your job is to decide whether you remember seeing the word or not. If you remember seeing the word press ""old"" or type ""m"". If you do not remember seeing the word press ""new"" or type ""z"". Please press the space bar or click on continue to begin. ",,,,44,2022-02-12_12h16.23.369,lexical_decision_task_DD_L4,2021.2.3,Win32,60.0132029,,,,,,,,,,,,,,,,,,,,,,,,,,,,,,,,,,,,,,,,,,,,,,,,,,,,,,,,,,,,,,,,,,3,0,3,0,1,instr_done_button,,,,,,,,,,,,,,,
space,8.9977,0.118489583,-0.016927083,0,0,0,,,,,,1,test,"In the next phase you will be presented with the words from the the first phase. Your job is to decide whether you remember seeing the word or not. If you remember seeing the word press ""old"" or type ""m"". If you do not remember seeing the word press ""new"" or type ""z"". Please press the space bar or click on continue to begin. ",,,,44,2022-02-12_12h16.23.369,lexical_decision_task_DD_L4,2021.2.3,Win32,60.0132029,,,,,,,,,,,,,,,,,,,,,,,,,,,,,,,,,,,,,,,,,,,,,,,,,,,,,,,,,,,,,,,,,,4,0,4,0,1,,,,,,,,,,,,,,,,
,,,,,,,,,,,,,,,,,,44,2022-02-12_12h16.23.369,lexical_decision_task_DD_L4,2021.2.3,Win32,60.0132029,,,,,,,,,,,2.5893,0,,,,,,,,,,,,,,,,,,,,,,,,0.118489583,-0.016927083,0,0,0,,,,,,,BASKET,LB,m,y,./images/BASKETLB.png,,,,,,,,,,,,,,,,,,,,,z,0,2.5893,,,,,,,,0,0,0,44,1
,,,,,,,,,,,,,,,,,,44,2022-02-12_12h16.23.369,lexical_decision_task_DD_L4,2021.2.3,Win32,60.0132029,,,,,,,,,,,2.3297,1,,,,,,,,,,,,,,,,,,,,,,,,0.118489583,-0.016927083,0,0,0,,,,,,,SAILOR,HB,z,y,./images/SAILORHB.png,,,,,,,,,,,,,,,,,,,,,z,1,2.3297,,,,,,,,0,1,1,151,1
,,,,,,,,,,,,,,,,,,44,2022-02-12_12h16.23.369,lexical_decision_task_DD_L4,2021.2.3,Win32,60.0132029,,,,,,,,,,,0.9385,1,,,,,,,,,,,,,,,,,,,,,,,,0.118489583,-0.016927083,0,0,0,,,,,,,CARPET,LB,z,y,./images/CARPETLB.png,,,,,,,,,,,,,,,,,,,,,z,1,0.9385,,,,,,,,0,2,2,137,1
,,,,,,,,,,,,,,,,,,44,2022-02-12_12h16.23.369,lexical_decision_task_DD_L4,2021.2.3,Win32,60.0132029,,,,,,,,,,,1.4168,1,,,,,,,,,,,,,,,,,,,,,,,,0.118489583,-0.016927083,0,0,0,,,,,,,MAGGOT,C,z,y,./images/MAGGOT.png,,,,,,,,,,,,,,,,,,,,,z,1,1.4168,,,,,,,,0,3,3,117,1
,,,,,,,,,,,,,,,,,,44,2022-02-12_12h16.23.369,lexical_decision_task_DD_L4,2021.2.3,Win32,60.0132029,,,,,,,,,,,0.9297,1,,,,,,,,,,,,,,,,,,,,,,,,0.118489583,-0.016927083,0,0,0,,,,,,,GRANNY,LB,m,y,./images/GRANNYLB.png,,,,,,,,,,,,,,,,,,,,,m,1,0.9297,,,,,,,,0,4,4,20,1
,,,,,,,,,,,,,,,,,,44,2022-02-12_12h16.23.369,lexical_decision_task_DD_L4,2021.2.3,Win32,60.0132029,,,,,,,,,,,0.9528,1,,,,,,,,,,,,,,,,,,,,,,,,0.118489583,-0.016927083,0,0,0,,,,,,,HOCKEY,LB,m,y,./images/HOCKEYLB.png,,,,,,,,,,,,,,,,,,,,,m,1,0.9528,,,,,,,,0,5,5,32,1
,,,,,,,,,,,,,,,,,,44,2022-02-12_12h16.23.369,lexical_decision_task_DD_L4,2021.2.3,Win32,60.0132029,,,,,,,,,,,0.9138,1,,,,,,,,,,,,,,,,,,,,,,,,0.118489583,-0.016927083,0,0,0,,,,,,,TOWEL,HB,m,y,./images/TOWELHB.png,,,,,,,,,,,,,,,,,,,,,m,1,0.9138,,,,,,,,0,6,6,1,1
,,,,,,,,,,,,,,,,,,44,2022-02-12_12h16.23.369,lexical_decision_task_DD_L4,2021.2.3,Win32,60.0132029,,,,,,,,,,,1.0526,0,,,,,,,,,,,,,,,,,,,,,,,,0.118489583,-0.016927083,0,0,0,,,,,,,HEATER,LB,m,y,./images/HEATERLB.png,,,,,,,,,,,,,,,,,,,,,z,0,1.0526,,,,,,,,0,7,7,56,1
,,,,,,,,,,,,,,,,,,44,2022-02-12_12h16.23.369,lexical_decision_task_DD_L4,2021.2.3,Win32,60.0132029,,,,,,,,,,,2.6821,1,,,,,,,,,,,,,,,,,,,,,,,,0.118489583,-0.016927083,0,0,0,,,,,,,LADDER,LB,z,y,./images/LADDERLB.png,,,,,,,,,,,,,,,,,,,,,z,1,2.6821,,,,,,,,0,8,8,122,1
,,,,,,,,,,,,,,,,,,44,2022-02-12_12h16.23.369,lexical_decision_task_DD_L4,2021.2.3,Win32,60.0132029,,,,,,,,,,,1.8691,0,,,,,,,,,,,,,,,,,,,,,,,,0.118489583,-0.016927083,0,0,0,,,,,,,CEMENT,LB,z,y,./images/CEMENTLB.png,,,,,,,,,,,,,,,,,,,,,m,0,1.8691,,,,,,,,0,9,9,158,1
,,,,,,,,,,,,,,,,,,44,2022-02-12_12h16.23.369,lexical_decision_task_DD_L4,2021.2.3,Win32,60.0132029,,,,,,,,,,,0.8213,1,,,,,,,,,,,,,,,,,,,,,,,,0.118489583,-0.016927083,0,0,0,,,,,,,CANOE,HB,m,y,./images/CANOEHB.png,,,,,,,,,,,,,,,,,,,,,m,1,0.8213,,,,,,,,0,10,10,58,1
,,,,,,,,,,,,,,,,,,44,2022-02-12_12h16.23.369,lexical_decision_task_DD_L4,2021.2.3,Win32,60.0132029,,,,,,,,,,,0.8906,1,,,,,,,,,,,,,,,,,,,,,,,,0.118489583,-0.016927083,0,0,0,,,,,,,TULIP,LB,z,y,./images/TULIPLB.png,,,,,,,,,,,,,,,,,,,,,z,1,0.8906,,,,,,,,0,11,11,92,1
,,,,,,,,,,,,,,,,,,44,2022-02-12_12h16.23.369,lexical_decision_task_DD_L4,2021.2.3,Win32,60.0132029,,,,,,,,,,,2.5521,1,,,,,,,,,,,,,,,,,,,,,,,,0.118489583,-0.016927083,0,0,0,,,,,,,WALRUS,LB,z,y,./images/WALRUSLB.png,,,,,,,,,,,,,,,,,,,,,z,1,2.5521,,,,,,,,0,12,12,107,1
,,,,,,,,,,,,,,,,,,44,2022-02-12_12h16.23.369,lexical_decision_task_DD_L4,2021.2.3,Win32,60.0132029,,,,,,,,,,,0.8535,1,,,,,,,,,,,,,,,,,,,,,,,,0.118489583,-0.016927083,0,0,0,,,,,,,STOOL,HB,m,y,./images/STOOLHB.png,,,,,,,,,,,,,,,,,,,,,m,1,0.8535,,,,,,,,0,13,13,43,1
,,,,,,,,,,,,,,,,,,44,2022-02-12_12h16.23.369,lexical_decision_task_DD_L4,2021.2.3,Win32,60.0132029,,,,,,,,,,,0.9867,1,,,,,,,,,,,,,,,,,,,,,,,,0.118489583,-0.016927083,0,0,0,,,,,,,ATTIC,C,z,y,./images/ATTIC.png,,,,,,,,,,,,,,,,,,,,,z,1,0.9867,,,,,,,,0,14,14,111,1
,,,,,,,,,,,,,,,,,,44,2022-02-12_12h16.23.369,lexical_decision_task_DD_L4,2021.2.3,Win32,60.0132029,,,,,,,,,,,0.968,1,,,,,,,,,,,,,,,,,,,,,,,,0.118489583,-0.016927083,0,0,0,,,,,,,POODLE,C,z,y,./images/POODLE.png,,,,,,,,,,,,,,,,,,,,,z,1,0.968,,,,,,,,0,15,15,165,1
,,,,,,,,,,,,,,,,,,44,2022-02-12_12h16.23.369,lexical_decision_task_DD_L4,2021.2.3,Win32,60.0132029,,,,,,,,,,,2.0012,0,,,,,,,,,,,,,,,,,,,,,,,,0.118489583,-0.016927083,0,0,0,,,,,,,MOTOR,HB,z,y,./images/MOTORHB.png,,,,,,,,,,,,,,,,,,,,,m,0,2.0012,,,,,,,,0,16,16,97,1
,,,,,,,,,,,,,,,,,,44,2022-02-12_12h16.23.369,lexical_decision_task_DD_L4,2021.2.3,Win32,60.0132029,,,,,,,,,,,0.919,1,,,,,,,,,,,,,,,,,,,,,,,,0.118489583,-0.016927083,0,0,0,,,,,,,PACKET,LB,z,y,./images/PACKETLB.png,,,,,,,,,,,,,,,,,,,,,z,1,0.919,,,,,,,,0,17,17,140,1
,,,,,,,,,,,,,,,,,,44,2022-02-12_12h16.23.369,lexical_decision_task_DD_L4,2021.2.3,Win32,60.0132029,,,,,,,,,,,0.8337,1,,,,,,,,,,,,,,,,,,,,,,,,0.118489583,-0.016927083,0,0,0,,,,,,,MAMMAL,LB,m,y,./images/MAMMALLB.png,,,,,,,,,,,,,,,,,,,,,m,1,0.8337,,,,,,,,0,18,18,62,1
,,,,,,,,,,,,,,,,,,44,2022-02-12_12h16.23.369,lexical_decision_task_DD_L4,2021.2.3,Win32,60.0132029,,,,,,,,,,,0.8348,1,,,,,,,,,,,,,,,,,,,,,,,,0.118489583,-0.016927083,0,0,0,,,,,,,TRIPOD,C,z,y,./images/TRIPOD.png,,,,,,,,,,,,,,,,,,,,,z,1,0.8348,,,,,,,,0,19,19,138,1
,,,,,,,,,,,,,,,,,,44,2022-02-12_12h16.23.369,lexical_decision_task_DD_L4,2021.2.3,Win32,60.0132029,,,,,,,,,,,0.9181,1,,,,,,,,,,,,,,,,,,,,,,,,0.118489583,-0.016927083,0,0,0,,,,,,,BLOKE,C,m,y,./images/BLOKE.png,,,,,,,,,,,,,,,,,,,,,m,1,0.9181,,,,,,,,0,20,20,12,1
,,,,,,,,,,,,,,,,,,44,2022-02-12_12h16.23.369,lexical_decision_task_DD_L4,2021.2.3,Win32,60.0132029,,,,,,,,,,,0.8858,1,,,,,,,,,,,,,,,,,,,,,,,,0.118489583,-0.016927083,0,0,0,,,,,,,WAGON,HB,m,y,./images/WAGONHB.png,,,,,,,,,,,,,,,,,,,,,m,1,0.8858,,,,,,,,0,21,21,7,1
,,,,,,,,,,,,,,,,,,44,2022-02-12_12h16.23.369,lexical_decision_task_DD_L4,2021.2.3,Win32,60.0132029,,,,,,,,,,,0.8844,1,,,,,,,,,,,,,,,,,,,,,,,,0.118489583,-0.016927083,0,0,0,,,,,,,BONNET,LB,z,y,./images/BONNETLB.png,,,,,,,,,,,,,,,,,,,,,z,1,0.8844,,,,,,,,0,22,22,95,1
,,,,,,,,,,,,,,,,,,44,2022-02-12_12h16.23.369,lexical_decision_task_DD_L4,2021.2.3,Win32,60.0132029,,,,,,,,,,,1.701,1,,,,,,,,,,,,,,,,,,,,,,,,0.118489583,-0.016927083,0,0,0,,,,,,,MONKEY,C,m,y,./images/MONKEY.png,,,,,,,,,,,,,,,,,,,,,m,1,1.701,,,,,,,,0,23,23,45,1
,,,,,,,,,,,,,,,,,,44,2022-02-12_12h16.23.369,lexical_decision_task_DD_L4,2021.2.3,Win32,60.0132029,,,,,,,,,,,0.8175,0,,,,,,,,,,,,,,,,,,,,,,,,0.118489583,-0.016927083,0,0,0,,,,,,,RULER,HB,m,y,./images/RULERHB.png,,,,,,,,,,,,,,,,,,,,,z,0,0.8175,,,,,,,,0,24,24,79,1
,,,,,,,,,,,,,,,,,,44,2022-02-12_12h16.23.369,lexical_decision_task_DD_L4,2021.2.3,Win32,60.0132029,,,,,,,,,,,1.0193,0,,,,,,,,,,,,,,,,,,,,,,,,0.118489583,-0.016927083,0,0,0,,,,,,,BRIDE,HB,m,y,./images/BRIDEHB.png,,,,,,,,,,,,,,,,,,,,,z,0,1.0193,,,,,,,,0,25,25,64,1
,,,,,,,,,,,,,,,,,,44,2022-02-12_12h16.23.369,lexical_decision_task_DD_L4,2021.2.3,Win32,60.0132029,,,,,,,,,,,1.0858,0,,,,,,,,,,,,,,,,,,,,,,,,0.118489583,-0.016927083,0,0,0,,,,,,,CANDLE,HB,z,y,./images/CANDLEHB.png,,,,,,,,,,,,,,,,,,,,,m,0,1.0858,,,,,,,,0,26,26,145,1
,,,,,,,,,,,,,,,,,,44,2022-02-12_12h16.23.369,lexical_decision_task_DD_L4,2021.2.3,Win32,60.0132029,,,,,,,,,,,0.752,1,,,,,,,,,,,,,,,,,,,,,,,,0.118489583,-0.016927083,0,0,0,,,,,,,DRUMS,HB,z,y,./images/DRUMSHB.png,,,,,,,,,,,,,,,,,,,,,z,1,0.752,,,,,,,,0,27,27,133,1
,,,,,,,,,,,,,,,,,,44,2022-02-12_12h16.23.369,lexical_decision_task_DD_L4,2021.2.3,Win32,60.0132029,,,,,,,,,,,0.8673,1,,,,,,,,,,,,,,,,,,,,,,,,0.118489583,-0.016927083,0,0,0,,,,,,,LAGOON,LB,m,y,./images/LAGOONLB.png,,,,,,,,,,,,,,,,,,,,,m,1,0.8673,,,,,,,,0,28,28,47,1
,,,,,,,,,,,,,,,,,,44,2022-02-12_12h16.23.369,lexical_decision_task_DD_L4,2021.2.3,Win32,60.0132029,,,,,,,,,,,0.8341,1,,,,,,,,,,,,,,,,,,,,,,,,0.118489583,-0.016927083,0,0,0,,,,,,,CHERRY,C,m,y,./images/CHERRY.png,,,,,,,,,,,,,,,,,,,,,m,1,0.8341,,,,,,,,0,29,29,54,1
,,,,,,,,,,,,,,,,,,44,2022-02-12_12h16.23.369,lexical_decision_task_DD_L4,2021.2.3,Win32,60.0132029,,,,,,,,,,,0.6851,0,,,,,,,,,,,,,,,,,,,,,,,,0.118489583,-0.016927083,0,0,0,,,,,,,CLOWN,HB,m,y,./images/CLOWNHB.png,,,,,,,,,,,,,,,,,,,,,z,0,0.6851,,,,,,,,0,30,30,22,1
,,,,,,,,,,,,,,,,,,44,2022-02-12_12h16.23.369,lexical_decision_task_DD_L4,2021.2.3,Win32,60.0132029,,,,,,,,,,,0.9506,1,,,,,,,,,,,,,,,,,,,,,,,,0.118489583,-0.016927083,0,0,0,,,,,,,BABOON,HB,z,y,./images/BABOONHB.png,,,,,,,,,,,,,,,,,,,,,z,1,0.9506,,,,,,,,0,31,31,142,1
,,,,,,,,,,,,,,,,,,44,2022-02-12_12h16.23.369,lexical_decision_task_DD_L4,2021.2.3,Win32,60.0132029,,,,,,,,,,,0.8178,1,,,,,,,,,,,,,,,,,,,,,,,,0.118489583,-0.016927083,0,0,0,,,,,,,MUMMY,HB,m,y,./images/MUMMYHB.png,,,,,,,,,,,,,,,,,,,,,m,1,0.8178,,,,,,,,0,32,32,46,1
,,,,,,,,,,,,,,,,,,44,2022-02-12_12h16.23.369,lexical_decision_task_DD_L4,2021.2.3,Win32,60.0132029,,,,,,,,,,,0.7718,1,,,,,,,,,,,,,,,,,,,,,,,,0.118489583,-0.016927083,0,0,0,,,,,,,SPORT,C,z,y,./images/SPORT.png,,,,,,,,,,,,,,,,,,,,,z,1,0.7718,,,,,,,,0,33,33,132,1
,,,,,,,,,,,,,,,,,,44,2022-02-12_12h16.23.369,lexical_decision_task_DD_L4,2021.2.3,Win32,60.0132029,,,,,,,,,,,0.8495,1,,,,,,,,,,,,,,,,,,,,,,,,0.118489583,-0.016927083,0,0,0,,,,,,,WHISKY,LB,m,y,./images/WHISKYLB.png,,,,,,,,,,,,,,,,,,,,,m,1,0.8495,,,,,,,,0,34,34,83,1
,,,,,,,,,,,,,,,,,,44,2022-02-12_12h16.23.369,lexical_decision_task_DD_L4,2021.2.3,Win32,60.0132029,,,,,,,,,,,0.7452,1,,,,,,,,,,,,,,,,,,,,,,,,0.118489583,-0.016927083,0,0,0,,,,,,,BANANA,HB,m,y,./images/BANANAHB.png,,,,,,,,,,,,,,,,,,,,,m,1,0.7452,,,,,,,,0,35,35,70,1
,,,,,,,,,,,,,,,,,,44,2022-02-12_12h16.23.369,lexical_decision_task_DD_L4,2021.2.3,Win32,60.0132029,,,,,,,,,,,1.1509,1,,,,,,,,,,,,,,,,,,,,,,,,0.118489583,-0.016927083,0,0,0,,,,,,,SWEAT,C,z,y,./images/SWEAT.png,,,,,,,,,,,,,,,,,,,,,z,1,1.1509,,,,,,,,0,36,36,150,1
,,,,,,,,,,,,,,,,,,44,2022-02-12_12h16.23.369,lexical_decision_task_DD_L4,2021.2.3,Win32,60.0132029,,,,,,,,,,,0.7534,1,,,,,,,,,,,,,,,,,,,,,,,,0.118489583,-0.016927083,0,0,0,,,,,,,DIVER,C,m,y,./images/DIVER.png,,,,,,,,,,,,,,,,,,,,,m,1,0.7534,,,,,,,,0,37,37,9,1
,,,,,,,,,,,,,,,,,,44,2022-02-12_12h16.23.369,lexical_decision_task_DD_L4,2021.2.3,Win32,60.0132029,,,,,,,,,,,1.0498,0,,,,,,,,,,,,,,,,,,,,,,,,0.118489583,-0.016927083,0,0,0,,,,,,,SWING,HB,z,y,./images/SWINGHB.png,,,,,,,,,,,,,,,,,,,,,m,0,1.0498,,,,,,,,0,38,38,124,1
,,,,,,,,,,,,,,,,,,44,2022-02-12_12h16.23.369,lexical_decision_task_DD_L4,2021.2.3,Win32,60.0132029,,,,,,,,,,,0.9334,1,,,,,,,,,,,,,,,,,,,,,,,,0.118489583,-0.016927083,0,0,0,,,,,,,PLANK,HB,z,y,./images/PLANKHB.png,,,,,,,,,,,,,,,,,,,,,z,1,0.9334,,,,,,,,0,39,39,85,1
,,,,,,,,,,,,,,,,,,44,2022-02-12_12h16.23.369,lexical_decision_task_DD_L4,2021.2.3,Win32,60.0132029,,,,,,,,,,,1.0079,1,,,,,,,,,,,,,,,,,,,,,,,,0.118489583,-0.016927083,0,0,0,,,,,,,LITTER,C,z,y,./images/LITTER.png,,,,,,,,,,,,,,,,,,,,,z,1,1.0079,,,,,,,,0,40,40,162,1
,,,,,,,,,,,,,,,,,,44,2022-02-12_12h16.23.369,lexical_decision_task_DD_L4,2021.2.3,Win32,60.0132029,,,,,,,,,,,0.7733,1,,,,,,,,,,,,,,,,,,,,,,,,0.118489583,-0.016927083,0,0,0,space,,,,,,MUSCLE,HB,z,y,./images/MUSCLEHB.png,1.9639,,,,,,,,,,,,,,,,,,,,z,1,0.7733,,,,,,,,0,41,41,88,1
,,,,,,,,,,,,,,,,,,44,2022-02-12_12h16.23.369,lexical_decision_task_DD_L4,2021.2.3,Win32,60.0132029,,,,,,,,,,,0.9636,1,,,,,,,,,,,,,,,,,,,,,,,,0.118489583,-0.016927083,0,0,0,,,,,,,MUFFIN,HB,z,y,./images/MUFFINHB.png,,,,,,,,,,,,,,,,,,,,,z,1,0.9636,,,,,,,,0,42,42,139,1
,,,,,,,,,,,,,,,,,,44,2022-02-12_12h16.23.369,lexical_decision_task_DD_L4,2021.2.3,Win32,60.0132029,,,,,,,,,,,0.948,1,,,,,,,,,,,,,,,,,,,,,,,,0.118489583,-0.016927083,0,0,0,,,,,,,BIRTH,HB,z,y,./images/BIRTHHB.png,,,,,,,,,,,,,,,,,,,,,z,1,0.948,,,,,,,,0,43,43,121,1
,,,,,,,,,,,,,,,,,,44,2022-02-12_12h16.23.369,lexical_decision_task_DD_L4,2021.2.3,Win32,60.0132029,,,,,,,,,,,1.2154,1,,,,,,,,,,,,,,,,,,,,,,,,0.118489583,-0.016927083,0,0,0,,,,,,,CHALK,HB,m,y,./images/CHALKHB.png,,,,,,,,,,,,,,,,,,,,,m,1,1.2154,,,,,,,,0,44,44,25,1
,,,,,,,,,,,,,,,,,,44,2022-02-12_12h16.23.369,lexical_decision_task_DD_L4,2021.2.3,Win32,60.0132029,,,,,,,,,,,1.0386,1,,,,,,,,,,,,,,,,,,,,,,,,0.118489583,-0.016927083,0,0,0,,,,,,,BAKER,C,m,y,./images/BAKER.png,,,,,,,,,,,,,,,,,,,,,m,1,1.0386,,,,,,,,0,45,45,63,1
,,,,,,,,,,,,,,,,,,44,2022-02-12_12h16.23.369,lexical_decision_task_DD_L4,2021.2.3,Win32,60.0132029,,,,,,,,,,,0.8043,1,,,,,,,,,,,,,,,,,,,,,,,,0.118489583,-0.016927083,0,0,0,,,,,,,SNAKE,HB,m,y,./images/SNAKEHB.png,,,,,,,,,,,,,,,,,,,,,m,1,0.8043,,,,,,,,0,46,46,40,1
,,,,,,,,,,,,,,,,,,44,2022-02-12_12h16.23.369,lexical_decision_task_DD_L4,2021.2.3,Win32,60.0132029,,,,,,,,,,,0.8343,1,,,,,,,,,,,,,,,,,,,,,,,,0.118489583,-0.016927083,0,0,0,,,,,,,COLLAR,C,m,y,./images/COLLAR.png,,,,,,,,,,,,,,,,,,,,,m,1,0.8343,,,,,,,,0,47,47,15,1
,,,,,,,,,,,,,,,,,,44,2022-02-12_12h16.23.369,lexical_decision_task_DD_L4,2021.2.3,Win32,60.0132029,,,,,,,,,,,0.9564,1,,,,,,,,,,,,,,,,,,,,,,,,0.118489583,-0.016927083,0,0,0,,,,,,,BARREL,LB,z,y,./images/BARRELLB.png,,,,,,,,,,,,,,,,,,,,,z,1,0.9564,,,,,,,,0,48,48,116,1
,,,,,,,,,,,,,,,,,,44,2022-02-12_12h16.23.369,lexical_decision_task_DD_L4,2021.2.3,Win32,60.0132029,,,,,,,,,,,0.7838,0,,,,,,,,,,,,,,,,,,,,,,,,0.118489583,-0.016927083,0,0,0,,,,,,,POSTER,LB,m,y,./images/POSTERLB.png,,,,,,,,,,,,,,,,,,,,,z,0,0.7838,,,,,,,,0,49,49,53,1
,,,,,,,,,,,,,,,,,,44,2022-02-12_12h16.23.369,lexical_decision_task_DD_L4,2021.2.3,Win32,60.0132029,,,,,,,,,,,0.8483,1,,,,,,,,,,,,,,,,,,,,,,,,0.118489583,-0.016927083,0,0,0,,,,,,,PLANET,LB,m,y,./images/PLANETLB.png,,,,,,,,,,,,,,,,,,,,,m,1,0.8483,,,,,,,,0,50,50,80,1
,,,,,,,,,,,,,,,,,,44,2022-02-12_12h16.23.369,lexical_decision_task_DD_L4,2021.2.3,Win32,60.0132029,,,,,,,,,,,1.1477,1,,,,,,,,,,,,,,,,,,,,,,,,0.118489583,-0.016927083,0,0,0,,,,,,,SNACK,HB,z,y,./images/SNACKHB.png,,,,,,,,,,,,,,,,,,,,,z,1,1.1477,,,,,,,,0,51,51,157,1
,,,,,,,,,,,,,,,,,,44,2022-02-12_12h16.23.369,lexical_decision_task_DD_L4,2021.2.3,Win32,60.0132029,,,,,,,,,,,1.0116,0,,,,,,,,,,,,,,,,,,,,,,,,0.118489583,-0.016927083,0,0,0,,,,,,,BRUSH,LB,m,y,./images/BRUSHLB.png,,,,,,,,,,,,,,,,,,,,,z,0,1.0116,,,,,,,,0,52,52,59,1
,,,,,,,,,,,,,,,,,,44,2022-02-12_12h16.23.369,lexical_decision_task_DD_L4,2021.2.3,Win32,60.0132029,,,,,,,,,,,0.9481,1,,,,,,,,,,,,,,,,,,,,,,,,0.118489583,-0.016927083,0,0,0,,,,,,,COOKER,C,z,y,./images/COOKER.png,,,,,,,,,,,,,,,,,,,,,z,1,0.9481,,,,,,,,0,53,53,153,1
,,,,,,,,,,,,,,,,,,44,2022-02-12_12h16.23.369,lexical_decision_task_DD_L4,2021.2.3,Win32,60.0132029,,,,,,,,,,,0.972,1,,,,,,,,,,,,,,,,,,,,,,,,0.118489583,-0.016927083,0,0,0,,,,,,,PIMPLE,LB,z,y,./images/PIMPLELB.png,,,,,,,,,,,,,,,,,,,,,z,1,0.972,,,,,,,,0,54,54,155,1
,,,,,,,,,,,,,,,,,,44,2022-02-12_12h16.23.369,lexical_decision_task_DD_L4,2021.2.3,Win32,60.0132029,,,,,,,,,,,2.1327,0,,,,,,,,,,,,,,,,,,,,,,,,0.118489583,-0.016927083,0,0,0,,,,,,,CHAIN,C,m,y,./images/CHAIN.png,,,,,,,,,,,,,,,,,,,,,z,0,2.1327,,,,,,,,0,55,55,42,1
,,,,,,,,,,,,,,,,,,44,2022-02-12_12h16.23.369,lexical_decision_task_DD_L4,2021.2.3,Win32,60.0132029,,,,,,,,,,,0.7055,1,,,,,,,,,,,,,,,,,,,,,,,,0.118489583,-0.016927083,0,0,0,,,,,,,TWINS,C,z,y,./images/TWINS.png,,,,,,,,,,,,,,,,,,,,,z,1,0.7055,,,,,,,,0,56,56,144,1
,,,,,,,,,,,,,,,,,,44,2022-02-12_12h16.23.369,lexical_decision_task_DD_L4,2021.2.3,Win32,60.0132029,,,,,,,,,,,0.7551,1,,,,,,,,,,,,,,,,,,,,,,,,0.118489583,-0.016927083,0,0,0,,,,,,,JELLY,HB,z,y,./images/JELLYHB.png,,,,,,,,,,,,,,,,,,,,,z,1,0.7551,,,,,,,,0,57,57,148,1
,,,,,,,,,,,,,,,,,,44,2022-02-12_12h16.23.369,lexical_decision_task_DD_L4,2021.2.3,Win32,60.0132029,,,,,,,,,,,0.8148,1,,,,,,,,,,,,,,,,,,,,,,,,0.118489583,-0.016927083,0,0,0,,,,,,,SQUARE,C,z,y,./images/SQUARE.png,,,,,,,,,,,,,,,,,,,,,z,1,0.8148,,,,,,,,0,58,58,90,1
,,,,,,,,,,,,,,,,,,44,2022-02-12_12h16.23.369,lexical_decision_task_DD_L4,2021.2.3,Win32,60.0132029,,,,,,,,,,,1.2264,0,,,,,,,,,,,,,,,,,,,,,,,,0.118489583,-0.016927083,0,0,0,,,,,,,CRADLE,LB,z,y,./images/CRADLELB.png,,,,,,,,,,,,,,,,,,,,,m,0,1.2264,,,,,,,,0,59,59,104,1
,,,,,,,,,,,,,,,,,,44,2022-02-12_12h16.23.369,lexical_decision_task_DD_L4,2021.2.3,Win32,60.0132029,,,,,,,,,,,0.8162,1,,,,,,,,,,,,,,,,,,,,,,,,0.118489583,-0.016927083,0,0,0,,,,,,,CANYON,HB,z,y,./images/CANYONHB.png,,,,,,,,,,,,,,,,,,,,,z,1,0.8162,,,,,,,,0,60,60,118,1
,,,,,,,,,,,,,,,,,,44,2022-02-12_12h16.23.369,lexical_decision_task_DD_L4,2021.2.3,Win32,60.0132029,,,,,,,,,,,0.832,1,,,,,,,,,,,,,,,,,,,,,,,,0.118489583,-0.016927083,0,0,0,,,,,,,PAINT,HB,z,y,./images/PAINTHB.png,,,,,,,,,,,,,,,,,,,,,z,1,0.832,,,,,,,,0,61,61,91,1
,,,,,,,,,,,,,,,,,,44,2022-02-12_12h16.23.369,lexical_decision_task_DD_L4,2021.2.3,Win32,60.0132029,,,,,,,,,,,0.6991,1,,,,,,,,,,,,,,,,,,,,,,,,0.118489583,-0.016927083,0,0,0,,,,,,,SUNSET,HB,z,y,./images/SUNSETHB.png,,,,,,,,,,,,,,,,,,,,,z,1,0.6991,,,,,,,,0,62,62,166,1
,,,,,,,,,,,,,,,,,,44,2022-02-12_12h16.23.369,lexical_decision_task_DD_L4,2021.2.3,Win32,60.0132029,,,,,,,,,,,1.0087,1,,,,,,,,,,,,,,,,,,,,,,,,0.118489583,-0.016927083,0,0,0,,,,,,,CLOUD,LB,m,y,./images/CLOUDLB.png,,,,,,,,,,,,,,,,,,,,,m,1,1.0087,,,,,,,,0,63,63,26,1
,,,,,,,,,,,,,,,,,,44,2022-02-12_12h16.23.369,lexical_decision_task_DD_L4,2021.2.3,Win32,60.0132029,,,,,,,,,,,0.87,1,,,,,,,,,,,,,,,,,,,,,,,,0.118489583,-0.016927083,0,0,0,,,,,,,CRUST,HB,z,y,./images/CRUSTHB.png,,,,,,,,,,,,,,,,,,,,,z,1,0.87,,,,,,,,0,64,64,163,1
,,,,,,,,,,,,,,,,,,44,2022-02-12_12h16.23.369,lexical_decision_task_DD_L4,2021.2.3,Win32,60.0132029,,,,,,,,,,,0.5654,1,,,,,,,,,,,,,,,,,,,,,,,,0.118489583,-0.016927083,0,0,0,,,,,,,SKIING,LB,z,y,./images/SKIINGLB.png,,,,,,,,,,,,,,,,,,,,,z,1,0.5654,,,,,,,,0,65,65,101,1
,,,,,,,,,,,,,,,,,,44,2022-02-12_12h16.23.369,lexical_decision_task_DD_L4,2021.2.3,Win32,60.0132029,,,,,,,,,,,1.152,1,,,,,,,,,,,,,,,,,,,,,,,,0.118489583,-0.016927083,0,0,0,,,,,,,ARTIST,HB,m,y,./images/ARTISTHB.png,,,,,,,,,,,,,,,,,,,,,m,1,1.152,,,,,,,,0,66,66,61,1
,,,,,,,,,,,,,,,,,,44,2022-02-12_12h16.23.369,lexical_decision_task_DD_L4,2021.2.3,Win32,60.0132029,,,,,,,,,,,0.9093,1,,,,,,,,,,,,,,,,,,,,,,,,0.118489583,-0.016927083,0,0,0,,,,,,,STEAK,HB,m,y,./images/STEAKHB.png,,,,,,,,,,,,,,,,,,,,,m,1,0.9093,,,,,,,,0,67,67,31,1
,,,,,,,,,,,,,,,,,,44,2022-02-12_12h16.23.369,lexical_decision_task_DD_L4,2021.2.3,Win32,60.0132029,,,,,,,,,,,0.7209,1,,,,,,,,,,,,,,,,,,,,,,,,0.118489583,-0.016927083,0,0,0,,,,,,,MEDAL,LB,m,y,./images/MEDALLB.png,,,,,,,,,,,,,,,,,,,,,m,1,0.7209,,,,,,,,0,68,68,11,1
,,,,,,,,,,,,,,,,,,44,2022-02-12_12h16.23.369,lexical_decision_task_DD_L4,2021.2.3,Win32,60.0132029,,,,,,,,,,,1.1029,1,,,,,,,,,,,,,,,,,,,,,,,,0.118489583,-0.016927083,0,0,0,,,,,,,STOVE,LB,m,y,./images/STOVELB.png,,,,,,,,,,,,,,,,,,,,,m,1,1.1029,,,,,,,,0,69,69,2,1
,,,,,,,,,,,,,,,,,,44,2022-02-12_12h16.23.369,lexical_decision_task_DD_L4,2021.2.3,Win32,60.0132029,,,,,,,,,,,0.7227,1,,,,,,,,,,,,,,,,,,,,,,,,0.118489583,-0.016927083,0,0,0,,,,,,,QUILL,HB,z,y,./images/QUILLHB.png,,,,,,,,,,,,,,,,,,,,,z,1,0.7227,,,,,,,,0,70,70,115,1
,,,,,,,,,,,,,,,,,,44,2022-02-12_12h16.23.369,lexical_decision_task_DD_L4,2021.2.3,Win32,60.0132029,,,,,,,,,,,0.8417,1,,,,,,,,,,,,,,,,,,,,,,,,0.118489583,-0.016927083,0,0,0,,,,,,,JUNGLE,LB,z,y,./images/JUNGLELB.png,,,,,,,,,,,,,,,,,,,,,z,1,0.8417,,,,,,,,0,71,71,167,1
,,,,,,,,,,,,,,,,,,44,2022-02-12_12h16.23.369,lexical_decision_task_DD_L4,2021.2.3,Win32,60.0132029,,,,,,,,,,,5.0977,0,,,,,,,,,,,,,,,,,,,,,,,,0.118489583,-0.016927083,0,0,0,,,,,,,MIDGET,HB,m,y,./images/MIDGETHB.png,,,,,,,,,,,,,,,,,,,,,z,0,5.0977,,,,,,,,0,72,72,76,1
,,,,,,,,,,,,,,,,,,44,2022-02-12_12h16.23.369,lexical_decision_task_DD_L4,2021.2.3,Win32,60.0132029,,,,,,,,,,,1.0453,0,,,,,,,,,,,,,,,,,,,,,,,,0.118489583,-0.016927083,0,0,0,,,,,,,WHEEL,LB,m,y,./images/WHEELLB.png,,,,,,,,,,,,,,,,,,,,,z,0,1.0453,,,,,,,,0,73,73,77,1
,,,,,,,,,,,,,,,,,,44,2022-02-12_12h16.23.369,lexical_decision_task_DD_L4,2021.2.3,Win32,60.0132029,,,,,,,,,,,1.3075,1,,,,,,,,,,,,,,,,,,,,,,,,0.118489583,-0.016927083,0,0,0,,,,,,,BUNNY,HB,m,y,./images/BUNNYHB.png,,,,,,,,,,,,,,,,,,,,,m,1,1.3075,,,,,,,,0,74,74,13,1
,,,,,,,,,,,,,,,,,,44,2022-02-12_12h16.23.369,lexical_decision_task_DD_L4,2021.2.3,Win32,60.0132029,,,,,,,,,,,0.7942,1,,,,,,,,,,,,,,,,,,,,,,,,0.118489583,-0.016927083,0,0,0,,,,,,,FALCON,HB,z,y,./images/FALCONHB.png,,,,,,,,,,,,,,,,,,,,,z,1,0.7942,,,,,,,,0,75,75,112,1
,,,,,,,,,,,,,,,,,,44,2022-02-12_12h16.23.369,lexical_decision_task_DD_L4,2021.2.3,Win32,60.0132029,,,,,,,,,,,0.6677,1,,,,,,,,,,,,,,,,,,,,,,,,0.118489583,-0.016927083,0,0,0,,,,,,,RHINO,C,z,y,./images/RHINO.png,,,,,,,,,,,,,,,,,,,,,z,1,0.6677,,,,,,,,0,76,76,93,1
,,,,,,,,,,,,,,,,,,44,2022-02-12_12h16.23.369,lexical_decision_task_DD_L4,2021.2.3,Win32,60.0132029,,,,,,,,,,,0.6109,1,,,,,,,,,,,,,,,,,,,,,,,,0.118489583,-0.016927083,0,0,0,,,,,,,KITTEN,C,z,y,./images/KITTEN.png,,,,,,,,,,,,,,,,,,,,,z,1,0.6109,,,,,,,,0,77,77,129,1
,,,,,,,,,,,,,,,,,,44,2022-02-12_12h16.23.369,lexical_decision_task_DD_L4,2021.2.3,Win32,60.0132029,,,,,,,,,,,1.2055,1,,,,,,,,,,,,,,,,,,,,,,,,0.118489583,-0.016927083,0,0,0,,,,,,,BUBBLE,LB,m,y,./images/BUBBLELB.png,,,,,,,,,,,,,,,,,,,,,m,1,1.2055,,,,,,,,0,78,78,71,1
,,,,,,,,,,,,,,,,,,44,2022-02-12_12h16.23.369,lexical_decision_task_DD_L4,2021.2.3,Win32,60.0132029,,,,,,,,,,,1.9681,1,,,,,,,,,,,,,,,,,,,,,,,,0.118489583,-0.016927083,0,0,0,,,,,,,STAIN,C,m,y,./images/STAIN.png,,,,,,,,,,,,,,,,,,,,,m,1,1.9681,,,,,,,,0,79,79,6,1
,,,,,,,,,,,,,,,,,,44,2022-02-12_12h16.23.369,lexical_decision_task_DD_L4,2021.2.3,Win32,60.0132029,,,,,,,,,,,0.6524,0,,,,,,,,,,,,,,,,,,,,,,,,0.118489583,-0.016927083,0,0,0,,,,,,,BOILER,C,m,y,./images/BOILER.png,,,,,,,,,,,,,,,,,,,,,z,0,0.6524,,,,,,,,0,80,80,36,1
,,,,,,,,,,,,,,,,,,44,2022-02-12_12h16.23.369,lexical_decision_task_DD_L4,2021.2.3,Win32,60.0132029,,,,,,,,,,,0.9369,1,,,,,,,,,,,,,,,,,,,,,,,,0.118489583,-0.016927083,0,0,0,,,,,,,FOLDER,C,z,y,./images/FOLDER.png,,,,,,,,,,,,,,,,,,,,,z,1,0.9369,,,,,,,,0,81,81,126,1
,,,,,,,,,,,,,,,,,,44,2022-02-12_12h16.23.369,lexical_decision_task_DD_L4,2021.2.3,Win32,60.0132029,,,,,,,,,,,1.5054,0,,,,,,,,,,,,,,,,,,,,,,,,0.118489583,-0.016927083,0,0,0,,,,,,,STRING,LB,z,y,./images/STRINGLB.png,,,,,,,,,,,,,,,,,,,,,m,0,1.5054,,,,,,,,0,82,82,125,1
,,,,,,,,,,,,,,,,,,44,2022-02-12_12h16.23.369,lexical_decision_task_DD_L4,2021.2.3,Win32,60.0132029,,,,,,,,,,,0.683,1,,,,,,,,,,,,,,,,,,,,,,,,0.118489583,-0.016927083,0,0,0,space,,,,,,BEARD,LB,z,y,./images/BEARDLB.png,1.5817,,,,,,,,,,,,,,,,,,,,z,1,0.683,,,,,,,,0,83,83,86,1
,,,,,,,,,,,,,,,,,,44,2022-02-12_12h16.23.369,lexical_decision_task_DD_L4,2021.2.3,Win32,60.0132029,,,,,,,,,,,0.8145,1,,,,,,,,,,,,,,,,,,,,,,,,0.118489583,-0.016927083,0,0,0,,,,,,,BURIAL,LB,z,y,./images/BURIALLB.png,,,,,,,,,,,,,,,,,,,,,z,1,0.8145,,,,,,,,0,84,84,143,1
,,,,,,,,,,,,,,,,,,44,2022-02-12_12h16.23.369,lexical_decision_task_DD_L4,2021.2.3,Win32,60.0132029,,,,,,,,,,,0.7915,0,,,,,,,,,,,,,,,,,,,,,,,,0.118489583,-0.016927083,0,0,0,,,,,,,CRUMB,LB,z,y,./images/CRUMBLB.png,,,,,,,,,,,,,,,,,,,,,m,0,0.7915,,,,,,,,0,85,85,113,1
,,,,,,,,,,,,,,,,,,44,2022-02-12_12h16.23.369,lexical_decision_task_DD_L4,2021.2.3,Win32,60.0132029,,,,,,,,,,,0.7571,1,,,,,,,,,,,,,,,,,,,,,,,,0.118489583,-0.016927083,0,0,0,,,,,,,STORM,C,z,y,./images/STORM.png,,,,,,,,,,,,,,,,,,,,,z,1,0.7571,,,,,,,,0,86,86,114,1
,,,,,,,,,,,,,,,,,,44,2022-02-12_12h16.23.369,lexical_decision_task_DD_L4,2021.2.3,Win32,60.0132029,,,,,,,,,,,0.8326,1,,,,,,,,,,,,,,,,,,,,,,,,0.118489583,-0.016927083,0,0,0,,,,,,,GRAIN,C,z,y,./images/GRAIN.png,,,,,,,,,,,,,,,,,,,,,z,1,0.8326,,,,,,,,0,87,87,159,1
,,,,,,,,,,,,,,,,,,44,2022-02-12_12h16.23.369,lexical_decision_task_DD_L4,2021.2.3,Win32,60.0132029,,,,,,,,,,,0.7131,1,,,,,,,,,,,,,,,,,,,,,,,,0.118489583,-0.016927083,0,0,0,,,,,,,PENCE,HB,z,y,./images/PENCEHB.png,,,,,,,,,,,,,,,,,,,,,z,1,0.7131,,,,,,,,0,88,88,100,1
,,,,,,,,,,,,,,,,,,44,2022-02-12_12h16.23.369,lexical_decision_task_DD_L4,2021.2.3,Win32,60.0132029,,,,,,,,,,,0.7521,1,,,,,,,,,,,,,,,,,,,,,,,,0.118489583,-0.016927083,0,0,0,,,,,,,THROAT,C,z,y,./images/THROAT.png,,,,,,,,,,,,,,,,,,,,,z,1,0.7521,,,,,,,,0,89,89,120,1
,,,,,,,,,,,,,,,,,,44,2022-02-12_12h16.23.369,lexical_decision_task_DD_L4,2021.2.3,Win32,60.0132029,,,,,,,,,,,0.8055,0,,,,,,,,,,,,,,,,,,,,,,,,0.118489583,-0.016927083,0,0,0,,,,,,,RAZOR,HB,m,y,./images/RAZORHB.png,,,,,,,,,,,,,,,,,,,,,z,0,0.8055,,,,,,,,0,90,90,34,1
,,,,,,,,,,,,,,,,,,44,2022-02-12_12h16.23.369,lexical_decision_task_DD_L4,2021.2.3,Win32,60.0132029,,,,,,,,,,,1.1428,0,,,,,,,,,,,,,,,,,,,,,,,,0.118489583,-0.016927083,0,0,0,,,,,,,CLOTH,LB,m,y,./images/CLOTHLB.png,,,,,,,,,,,,,,,,,,,,,z,0,1.1428,,,,,,,,0,91,91,23,1
,,,,,,,,,,,,,,,,,,44,2022-02-12_12h16.23.369,lexical_decision_task_DD_L4,2021.2.3,Win32,60.0132029,,,,,,,,,,,2.8662,0,,,,,,,,,,,,,,,,,,,,,,,,0.118489583,-0.016927083,0,0,0,,,,,,,PEBBLE,HB,m,y,./images/PEBBLEHB.png,,,,,,,,,,,,,,,,,,,,,z,0,2.8662,,,,,,,,0,92,92,82,1
,,,,,,,,,,,,,,,,,,44,2022-02-12_12h16.23.369,lexical_decision_task_DD_L4,2021.2.3,Win32,60.0132029,,,,,,,,,,,1.0322,0,,,,,,,,,,,,,,,,,,,,,,,,0.118489583,-0.016927083,0,0,0,,,,,,,GRAPE,HB,m,y,./images/GRAPEHB.png,,,,,,,,,,,,,,,,,,,,,z,0,1.0322,,,,,,,,0,93,93,16,1
,,,,,,,,,,,,,,,,,,44,2022-02-12_12h16.23.369,lexical_decision_task_DD_L4,2021.2.3,Win32,60.0132029,,,,,,,,,,,0.783,0,,,,,,,,,,,,,,,,,,,,,,,,0.118489583,-0.016927083,0,0,0,,,,,,,HAMMER,C,m,y,./images/HAMMER.png,,,,,,,,,,,,,,,,,,,,,z,0,0.783,,,,,,,,0,94,94,75,1
,,,,,,,,,,,,,,,,,,44,2022-02-12_12h16.23.369,lexical_decision_task_DD_L4,2021.2.3,Win32,60.0132029,,,,,,,,,,,0.945,0,,,,,,,,,,,,,,,,,,,,,,,,0.118489583,-0.016927083,0,0,0,,,,,,,DRILL,C,m,y,./images/DRILL.png,,,,,,,,,,,,,,,,,,,,,z,0,0.945,,,,,,,,0,95,95,81,1
,,,,,,,,,,,,,,,,,,44,2022-02-12_12h16.23.369,lexical_decision_task_DD_L4,2021.2.3,Win32,60.0132029,,,,,,,,,,,0.875,1,,,,,,,,,,,,,,,,,,,,,,,,0.118489583,-0.016927083,0,0,0,,,,,,,LLAMA,LB,m,y,./images/LLAMALB.png,,,,,,,,,,,,,,,,,,,,,m,1,0.875,,,,,,,,0,96,96,35,1
,,,,,,,,,,,,,,,,,,44,2022-02-12_12h16.23.369,lexical_decision_task_DD_L4,2021.2.3,Win32,60.0132029,,,,,,,,,,,0.804,0,,,,,,,,,,,,,,,,,,,,,,,,0.118489583,-0.016927083,0,0,0,,,,,,,ENGINE,LB,m,y,./images/ENGINELB.png,,,,,,,,,,,,,,,,,,,,,z,0,0.804,,,,,,,,0,97,97,38,1
,,,,,,,,,,,,,,,,,,44,2022-02-12_12h16.23.369,lexical_decision_task_DD_L4,2021.2.3,Win32,60.0132029,,,,,,,,,,,0.6484,0,,,,,,,,,,,,,,,,,,,,,,,,0.118489583,-0.016927083,0,0,0,,,,,,,ALLEY,HB,m,y,./images/ALLEYHB.png,,,,,,,,,,,,,,,,,,,,,z,0,0.6484,,,,,,,,0,98,98,55,1
,,,,,,,,,,,,,,,,,,44,2022-02-12_12h16.23.369,lexical_decision_task_DD_L4,2021.2.3,Win32,60.0132029,,,,,,,,,,,0.8537,1,,,,,,,,,,,,,,,,,,,,,,,,0.118489583,-0.016927083,0,0,0,,,,,,,TORCH,LB,z,y,./images/TORCHLB.png,,,,,,,,,,,,,,,,,,,,,z,1,0.8537,,,,,,,,0,99,99,152,1
,,,,,,,,,,,,,,,,,,44,2022-02-12_12h16.23.369,lexical_decision_task_DD_L4,2021.2.3,Win32,60.0132029,,,,,,,,,,,0.951,1,,,,,,,,,,,,,,,,,,,,,,,,0.118489583,-0.016927083,0,0,0,,,,,,,BANNER,HB,z,y,./images/BANNERHB.png,,,,,,,,,,,,,,,,,,,,,z,1,0.951,,,,,,,,0,100,100,136,1
,,,,,,,,,,,,,,,,,,44,2022-02-12_12h16.23.369,lexical_decision_task_DD_L4,2021.2.3,Win32,60.0132029,,,,,,,,,,,0.6518,1,,,,,,,,,,,,,,,,,,,,,,,,0.118489583,-0.016927083,0,0,0,,,,,,,URINE,HB,z,y,./images/URINEHB.png,,,,,,,,,,,,,,,,,,,,,z,1,0.6518,,,,,,,,0,101,101,154,1
,,,,,,,,,,,,,,,,,,44,2022-02-12_12h16.23.369,lexical_decision_task_DD_L4,2021.2.3,Win32,60.0132029,,,,,,,,,,,0.7848,1,,,,,,,,,,,,,,,,,,,,,,,,0.118489583,-0.016927083,0,0,0,,,,,,,SCREW,C,z,y,./images/SCREW.png,,,,,,,,,,,,,,,,,,,,,z,1,0.7848,,,,,,,,0,102,102,108,1
,,,,,,,,,,,,,,,,,,44,2022-02-12_12h16.23.369,lexical_decision_task_DD_L4,2021.2.3,Win32,60.0132029,,,,,,,,,,,0.875,1,,,,,,,,,,,,,,,,,,,,,,,,0.118489583,-0.016927083,0,0,0,,,,,,,PURSE,LB,z,y,./images/PURSELB.png,,,,,,,,,,,,,,,,,,,,,z,1,0.875,,,,,,,,0,103,103,146,1
,,,,,,,,,,,,,,,,,,44,2022-02-12_12h16.23.369,lexical_decision_task_DD_L4,2021.2.3,Win32,60.0132029,,,,,,,,,,,5.698,1,,,,,,,,,,,,,,,,,,,,,,,,0.118489583,-0.016927083,0,0,0,,,,,,,DANCER,C,m,y,./images/DANCER.png,,,,,,,,,,,,,,,,,,,,,m,1,5.698,,,,,,,,0,104,104,21,1
,,,,,,,,,,,,,,,,,,44,2022-02-12_12h16.23.369,lexical_decision_task_DD_L4,2021.2.3,Win32,60.0132029,,,,,,,,,,,0.6657,1,,,,,,,,,,,,,,,,,,,,,,,,0.118489583,-0.016927083,0,0,0,,,,,,,FINGER,C,z,y,./images/FINGER.png,,,,,,,,,,,,,,,,,,,,,z,1,0.6657,,,,,,,,0,105,105,87,1
,,,,,,,,,,,,,,,,,,44,2022-02-12_12h16.23.369,lexical_decision_task_DD_L4,2021.2.3,Win32,60.0132029,,,,,,,,,,,0.6319,1,,,,,,,,,,,,,,,,,,,,,,,,0.118489583,-0.016927083,0,0,0,,,,,,,PASTA,LB,z,y,./images/PASTALB.png,,,,,,,,,,,,,,,,,,,,,z,1,0.6319,,,,,,,,0,106,106,89,1
,,,,,,,,,,,,,,,,,,44,2022-02-12_12h16.23.369,lexical_decision_task_DD_L4,2021.2.3,Win32,60.0132029,,,,,,,,,,,0.6534,1,,,,,,,,,,,,,,,,,,,,,,,,0.118489583,-0.016927083,0,0,0,,,,,,,MOSQUE,HB,z,y,./images/MOSQUEHB.png,,,,,,,,,,,,,,,,,,,,,z,1,0.6534,,,,,,,,0,107,107,127,1
,,,,,,,,,,,,,,,,,,44,2022-02-12_12h16.23.369,lexical_decision_task_DD_L4,2021.2.3,Win32,60.0132029,,,,,,,,,,,0.9034,1,,,,,,,,,,,,,,,,,,,,,,,,0.118489583,-0.016927083,0,0,0,,,,,,,CANDY,C,m,y,./images/CANDY.png,,,,,,,,,,,,,,,,,,,,,m,1,0.9034,,,,,,,,0,108,108,39,1
,,,,,,,,,,,,,,,,,,44,2022-02-12_12h16.23.369,lexical_decision_task_DD_L4,2021.2.3,Win32,60.0132029,,,,,,,,,,,0.618,1,,,,,,,,,,,,,,,,,,,,,,,,0.118489583,-0.016927083,0,0,0,,,,,,,ONION,C,z,y,./images/ONION.png,,,,,,,,,,,,,,,,,,,,,z,1,0.618,,,,,,,,0,109,109,135,1
,,,,,,,,,,,,,,,,,,44,2022-02-12_12h16.23.369,lexical_decision_task_DD_L4,2021.2.3,Win32,60.0132029,,,,,,,,,,,0.6815,0,,,,,,,,,,,,,,,,,,,,,,,,0.118489583,-0.016927083,0,0,0,,,,,,,FENCE,LB,m,y,./images/FENCELB.png,,,,,,,,,,,,,,,,,,,,,z,0,0.6815,,,,,,,,0,110,110,14,1
,,,,,,,,,,,,,,,,,,44,2022-02-12_12h16.23.369,lexical_decision_task_DD_L4,2021.2.3,Win32,60.0132029,,,,,,,,,,,0.5883,1,,,,,,,,,,,,,,,,,,,,,,,,0.118489583,-0.016927083,0,0,0,,,,,,,INFANT,HB,z,y,./images/INFANTHB.png,,,,,,,,,,,,,,,,,,,,,z,1,0.5883,,,,,,,,0,111,111,160,1
,,,,,,,,,,,,,,,,,,44,2022-02-12_12h16.23.369,lexical_decision_task_DD_L4,2021.2.3,Win32,60.0132029,,,,,,,,,,,0.6532,1,,,,,,,,,,,,,,,,,,,,,,,,0.118489583,-0.016927083,0,0,0,,,,,,,WEASEL,LB,z,y,./images/WEASELLB.png,,,,,,,,,,,,,,,,,,,,,z,1,0.6532,,,,,,,,0,112,112,164,1
,,,,,,,,,,,,,,,,,,44,2022-02-12_12h16.23.369,lexical_decision_task_DD_L4,2021.2.3,Win32,60.0132029,,,,,,,,,,,0.9295,0,,,,,,,,,,,,,,,,,,,,,,,,0.118489583,-0.016927083,0,0,0,,,,,,,BUTTER,C,m,y,./images/BUTTER.png,,,,,,,,,,,,,,,,,,,,,z,0,0.9295,,,,,,,,0,113,113,27,1
,,,,,,,,,,,,,,,,,,44,2022-02-12_12h16.23.369,lexical_decision_task_DD_L4,2021.2.3,Win32,60.0132029,,,,,,,,,,,0.6751,0,,,,,,,,,,,,,,,,,,,,,,,,0.118489583,-0.016927083,0,0,0,,,,,,,BISHOP,HB,m,y,./images/BISHOPHB.png,,,,,,,,,,,,,,,,,,,,,z,0,0.6751,,,,,,,,0,114,114,49,1
,,,,,,,,,,,,,,,,,,44,2022-02-12_12h16.23.369,lexical_decision_task_DD_L4,2021.2.3,Win32,60.0132029,,,,,,,,,,,1.0145,0,,,,,,,,,,,,,,,,,,,,,,,,0.118489583,-0.016927083,0,0,0,,,,,,,BOXER,HB,m,y,./images/BOXERHB.png,,,,,,,,,,,,,,,,,,,,,z,0,1.0145,,,,,,,,0,115,115,4,1
,,,,,,,,,,,,,,,,,,44,2022-02-12_12h16.23.369,lexical_decision_task_DD_L4,2021.2.3,Win32,60.0132029,,,,,,,,,,,1.0487,0,,,,,,,,,,,,,,,,,,,,,,,,0.118489583,-0.016927083,0,0,0,,,,,,,PARADE,LB,m,y,./images/PARADELB.png,,,,,,,,,,,,,,,,,,,,,z,0,1.0487,,,,,,,,0,116,116,17,1
,,,,,,,,,,,,,,,,,,44,2022-02-12_12h16.23.369,lexical_decision_task_DD_L4,2021.2.3,Win32,60.0132029,,,,,,,,,,,0.7927,0,,,,,,,,,,,,,,,,,,,,,,,,0.118489583,-0.016927083,0,0,0,,,,,,,STATUE,C,m,y,./images/STATUE.png,,,,,,,,,,,,,,,,,,,,,z,0,0.7927,,,,,,,,0,117,117,66,1
,,,,,,,,,,,,,,,,,,44,2022-02-12_12h16.23.369,lexical_decision_task_DD_L4,2021.2.3,Win32,60.0132029,,,,,,,,,,,0.9684,1,,,,,,,,,,,,,,,,,,,,,,,,0.118489583,-0.016927083,0,0,0,,,,,,,BERRY,LB,z,y,./images/BERRYLB.png,,,,,,,,,,,,,,,,,,,,,z,1,0.9684,,,,,,,,0,118,118,131,1
,,,,,,,,,,,,,,,,,,44,2022-02-12_12h16.23.369,lexical_decision_task_DD_L4,2021.2.3,Win32,60.0132029,,,,,,,,,,,0.8257,1,,,,,,,,,,,,,,,,,,,,,,,,0.118489583,-0.016927083,0,0,0,,,,,,,PICKLE,LB,z,y,./images/PICKLELB.png,,,,,,,,,,,,,,,,,,,,,z,1,0.8257,,,,,,,,0,119,119,98,1
,,,,,,,,,,,,,,,,,,44,2022-02-12_12h16.23.369,lexical_decision_task_DD_L4,2021.2.3,Win32,60.0132029,,,,,,,,,,,0.7692,0,,,,,,,,,,,,,,,,,,,,,,,,0.118489583,-0.016927083,0,0,0,,,,,,,SHIELD,C,m,y,./images/SHIELD.png,,,,,,,,,,,,,,,,,,,,,z,0,0.7692,,,,,,,,0,120,120,48,1
,,,,,,,,,,,,,,,,,,44,2022-02-12_12h16.23.369,lexical_decision_task_DD_L4,2021.2.3,Win32,60.0132029,,,,,,,,,,,1.1682,0,,,,,,,,,,,,,,,,,,,,,,,,0.118489583,-0.016927083,0,0,0,,,,,,,CRATER,C,m,y,./images/CRATER.png,,,,,,,,,,,,,,,,,,,,,z,0,1.1682,,,,,,,,0,121,121,3,1
,,,,,,,,,,,,,,,,,,44,2022-02-12_12h16.23.369,lexical_decision_task_DD_L4,2021.2.3,Win32,60.0132029,,,,,,,,,,,0.852,1,,,,,,,,,,,,,,,,,,,,,,,,0.118489583,-0.016927083,0,0,0,,,,,,,GREASE,C,z,y,./images/GREASE.png,,,,,,,,,,,,,,,,,,,,,z,1,0.852,,,,,,,,0,122,122,99,1
,,,,,,,,,,,,,,,,,,44,2022-02-12_12h16.23.369,lexical_decision_task_DD_L4,2021.2.3,Win32,60.0132029,,,,,,,,,,,1.102,1,,,,,,,,,,,,,,,,,,,,,,,,0.118489583,-0.016927083,0,0,0,,,,,,,SAUNA,C,m,y,./images/SAUNA.png,,,,,,,,,,,,,,,,,,,,,m,1,1.102,,,,,,,,0,123,123,33,1
,,,,,,,,,,,,,,,,,,44,2022-02-12_12h16.23.369,lexical_decision_task_DD_L4,2021.2.3,Win32,60.0132029,,,,,,,,,,,0.8648,1,,,,,,,,,,,,,,,,,,,,,,,,0.118489583,-0.016927083,0,0,0,,,,,,,WRIST,HB,z,y,./images/WRISTHB.png,,,,,,,,,,,,,,,,,,,,,z,1,0.8648,,,,,,,,0,124,124,109,1
,,,,,,,,,,,,,,,,,,44,2022-02-12_12h16.23.369,lexical_decision_task_DD_L4,2021.2.3,Win32,60.0132029,,,,,,,,,,,0.6329,1,,,,,,,,,,,,,,,,,,,,,,,,0.118489583,-0.016927083,0,0,0,space,,,,,,MALLET,LB,z,y,./images/MALLETLB.png,1.3021,,,,,,,,,,,,,,,,,,,,z,1,0.6329,,,,,,,,0,125,125,134,1
,,,,,,,,,,,,,,,,,,44,2022-02-12_12h16.23.369,lexical_decision_task_DD_L4,2021.2.3,Win32,60.0132029,,,,,,,,,,,0.9814,1,,,,,,,,,,,,,,,,,,,,,,,,0.118489583,-0.016927083,0,0,0,,,,,,,TIGER,HB,m,y,./images/TIGERHB.png,,,,,,,,,,,,,,,,,,,,,m,1,0.9814,,,,,,,,0,126,126,37,1
,,,,,,,,,,,,,,,,,,44,2022-02-12_12h16.23.369,lexical_decision_task_DD_L4,2021.2.3,Win32,60.0132029,,,,,,,,,,,0.8025,0,,,,,,,,,,,,,,,,,,,,,,,,0.118489583,-0.016927083,0,0,0,,,,,,,PISTOL,LB,m,y,./images/PISTOLLB.png,,,,,,,,,,,,,,,,,,,,,z,0,0.8025,,,,,,,,0,127,127,29,1
,,,,,,,,,,,,,,,,,,44,2022-02-12_12h16.23.369,lexical_decision_task_DD_L4,2021.2.3,Win32,60.0132029,,,,,,,,,,,0.6121,0,,,,,,,,,,,,,,,,,,,,,,,,0.118489583,-0.016927083,0,0,0,,,,,,,SLOPE,C,m,y,./images/SLOPE.png,,,,,,,,,,,,,,,,,,,,,z,0,0.6121,,,,,,,,0,128,128,30,1
,,,,,,,,,,,,,,,,,,44,2022-02-12_12h16.23.369,lexical_decision_task_DD_L4,2021.2.3,Win32,60.0132029,,,,,,,,,,,0.8822,1,,,,,,,,,,,,,,,,,,,,,,,,0.118489583,-0.016927083,0,0,0,,,,,,,FERRY,C,m,y,./images/FERRY.png,,,,,,,,,,,,,,,,,,,,,m,1,0.8822,,,,,,,,0,129,129,57,1
,,,,,,,,,,,,,,,,,,44,2022-02-12_12h16.23.369,lexical_decision_task_DD_L4,2021.2.3,Win32,60.0132029,,,,,,,,,,,0.7036,1,,,,,,,,,,,,,,,,,,,,,,,,0.118489583,-0.016927083,0,0,0,,,,,,,FLASK,C,m,y,./images/FLASK.png,,,,,,,,,,,,,,,,,,,,,m,1,0.7036,,,,,,,,0,130,130,72,1
,,,,,,,,,,,,,,,,,,44,2022-02-12_12h16.23.369,lexical_decision_task_DD_L4,2021.2.3,Win32,60.0132029,,,,,,,,,,,0.6867,1,,,,,,,,,,,,,,,,,,,,,,,,0.118489583,-0.016927083,0,0,0,,,,,,,DESERT,HB,m,y,./images/DESERTHB.png,,,,,,,,,,,,,,,,,,,,,m,1,0.6867,,,,,,,,0,131,131,52,1
,,,,,,,,,,,,,,,,,,44,2022-02-12_12h16.23.369,lexical_decision_task_DD_L4,2021.2.3,Win32,60.0132029,,,,,,,,,,,0.615,1,,,,,,,,,,,,,,,,,,,,,,,,0.118489583,-0.016927083,0,0,0,,,,,,,WALNUT,C,m,y,./images/WALNUT.png,,,,,,,,,,,,,,,,,,,,,m,1,0.615,,,,,,,,0,132,132,0,1
,,,,,,,,,,,,,,,,,,44,2022-02-12_12h16.23.369,lexical_decision_task_DD_L4,2021.2.3,Win32,60.0132029,,,,,,,,,,,0.697,1,,,,,,,,,,,,,,,,,,,,,,,,0.118489583,-0.016927083,0,0,0,,,,,,,NOOSE,C,z,y,./images/NOOSE.png,,,,,,,,,,,,,,,,,,,,,z,1,0.697,,,,,,,,0,133,133,156,1
,,,,,,,,,,,,,,,,,,44,2022-02-12_12h16.23.369,lexical_decision_task_DD_L4,2021.2.3,Win32,60.0132029,,,,,,,,,,,0.8807,0,,,,,,,,,,,,,,,,,,,,,,,,0.118489583,-0.016927083,0,0,0,,,,,,,BAMBOO,LB,m,y,./images/BAMBOOLB.png,,,,,,,,,,,,,,,,,,,,,z,0,0.8807,,,,,,,,0,134,134,5,1
,,,,,,,,,,,,,,,,,,44,2022-02-12_12h16.23.369,lexical_decision_task_DD_L4,2021.2.3,Win32,60.0132029,,,,,,,,,,,0.823,1,,,,,,,,,,,,,,,,,,,,,,,,0.118489583,-0.016927083,0,0,0,,,,,,,STREAM,LB,m,y,./images/STREAMLB.png,,,,,,,,,,,,,,,,,,,,,m,1,0.823,,,,,,,,0,135,135,41,1
,,,,,,,,,,,,,,,,,,44,2022-02-12_12h16.23.369,lexical_decision_task_DD_L4,2021.2.3,Win32,60.0132029,,,,,,,,,,,0.8143,1,,,,,,,,,,,,,,,,,,,,,,,,0.118489583,-0.016927083,0,0,0,,,,,,,SHELF,C,z,y,./images/SHELF.png,,,,,,,,,,,,,,,,,,,,,z,1,0.8143,,,,,,,,0,136,136,123,1
,,,,,,,,,,,,,,,,,,44,2022-02-12_12h16.23.369,lexical_decision_task_DD_L4,2021.2.3,Win32,60.0132029,,,,,,,,,,,2.182,1,,,,,,,,,,,,,,,,,,,,,,,,0.118489583,-0.016927083,0,0,0,,,,,,,DOUGH,HB,z,y,./images/DOUGHHB.png,,,,,,,,,,,,,,,,,,,,,z,1,2.182,,,,,,,,0,137,137,103,1
,,,,,,,,,,,,,,,,,,44,2022-02-12_12h16.23.369,lexical_decision_task_DD_L4,2021.2.3,Win32,60.0132029,,,,,,,,,,,0.9016,1,,,,,,,,,,,,,,,,,,,,,,,,0.118489583,-0.016927083,0,0,0,,,,,,,CASINO,HB,m,y,./images/CASINOHB.png,,,,,,,,,,,,,,,,,,,,,m,1,0.9016,,,,,,,,0,138,138,28,1
,,,,,,,,,,,,,,,,,,44,2022-02-12_12h16.23.369,lexical_decision_task_DD_L4,2021.2.3,Win32,60.0132029,,,,,,,,,,,1.1011,1,,,,,,,,,,,,,,,,,,,,,,,,0.118489583,-0.016927083,0,0,0,,,,,,,SHORE,C,z,y,./images/SHORE.png,,,,,,,,,,,,,,,,,,,,,z,1,1.1011,,,,,,,,0,139,139,96,1
,,,,,,,,,,,,,,,,,,44,2022-02-12_12h16.23.369,lexical_decision_task_DD_L4,2021.2.3,Win32,60.0132029,,,,,,,,,,,0.7283,1,,,,,,,,,,,,,,,,,,,,,,,,0.118489583,-0.016927083,0,0,0,,,,,,,LIZARD,LB,z,y,./images/LIZARDLB.png,,,,,,,,,,,,,,,,,,,,,z,1,0.7283,,,,,,,,0,140,140,128,1
,,,,,,,,,,,,,,,,,,44,2022-02-12_12h16.23.369,lexical_decision_task_DD_L4,2021.2.3,Win32,60.0132029,,,,,,,,,,,0.7982,0,,,,,,,,,,,,,,,,,,,,,,,,0.118489583,-0.016927083,0,0,0,,,,,,,GARDEN,HB,m,y,./images/GARDENHB.png,,,,,,,,,,,,,,,,,,,,,z,0,0.7982,,,,,,,,0,141,141,10,1
,,,,,,,,,,,,,,,,,,44,2022-02-12_12h16.23.369,lexical_decision_task_DD_L4,2021.2.3,Win32,60.0132029,,,,,,,,,,,1.0655,1,,,,,,,,,,,,,,,,,,,,,,,,0.118489583,-0.016927083,0,0,0,,,,,,,POKER,HB,m,y,./images/POKERHB.png,,,,,,,,,,,,,,,,,,,,,m,1,1.0655,,,,,,,,0,142,142,67,1
,,,,,,,,,,,,,,,,,,44,2022-02-12_12h16.23.369,lexical_decision_task_DD_L4,2021.2.3,Win32,60.0132029,,,,,,,,,,,0.8967,1,,,,,,,,,,,,,,,,,,,,,,,,0.118489583,-0.016927083,0,0,0,,,,,,,PEARL,HB,z,y,./images/PEARLHB.png,,,,,,,,,,,,,,,,,,,,,z,1,0.8967,,,,,,,,0,143,143,130,1
,,,,,,,,,,,,,,,,,,44,2022-02-12_12h16.23.369,lexical_decision_task_DD_L4,2021.2.3,Win32,60.0132029,,,,,,,,,,,0.936,0,,,,,,,,,,,,,,,,,,,,,,,,0.118489583,-0.016927083,0,0,0,,,,,,,SPINE,LB,m,y,./images/SPINELB.png,,,,,,,,,,,,,,,,,,,,,z,0,0.936,,,,,,,,0,144,144,65,1
,,,,,,,,,,,,,,,,,,44,2022-02-12_12h16.23.369,lexical_decision_task_DD_L4,2021.2.3,Win32,60.0132029,,,,,,,,,,,0.8834,1,,,,,,,,,,,,,,,,,,,,,,,,0.118489583,-0.016927083,0,0,0,,,,,,,SMOKER,LB,z,y,./images/SMOKERLB.png,,,,,,,,,,,,,,,,,,,,,z,1,0.8834,,,,,,,,0,145,145,110,1
,,,,,,,,,,,,,,,,,,44,2022-02-12_12h16.23.369,lexical_decision_task_DD_L4,2021.2.3,Win32,60.0132029,,,,,,,,,,,0.7829,1,,,,,,,,,,,,,,,,,,,,,,,,0.118489583,-0.016927083,0,0,0,,,,,,,MOOSE,C,z,y,./images/MOOSE.png,,,,,,,,,,,,,,,,,,,,,z,1,0.7829,,,,,,,,0,146,146,141,1
,,,,,,,,,,,,,,,,,,44,2022-02-12_12h16.23.369,lexical_decision_task_DD_L4,2021.2.3,Win32,60.0132029,,,,,,,,,,,0.761,1,,,,,,,,,,,,,,,,,,,,,,,,0.118489583,-0.016927083,0,0,0,,,,,,,KIDNEY,C,z,y,./images/KIDNEY.png,,,,,,,,,,,,,,,,,,,,,z,1,0.761,,,,,,,,0,147,147,105,1
,,,,,,,,,,,,,,,,,,44,2022-02-12_12h16.23.369,lexical_decision_task_DD_L4,2021.2.3,Win32,60.0132029,,,,,,,,,,,0.786,0,,,,,,,,,,,,,,,,,,,,,,,,0.118489583,-0.016927083,0,0,0,,,,,,,VALLEY,LB,m,y,./images/VALLEYLB.png,,,,,,,,,,,,,,,,,,,,,z,0,0.786,,,,,,,,0,148,148,68,1
,,,,,,,,,,,,,,,,,,44,2022-02-12_12h16.23.369,lexical_decision_task_DD_L4,2021.2.3,Win32,60.0132029,,,,,,,,,,,1.6993,0,,,,,,,,,,,,,,,,,,,,,,,,0.118489583,-0.016927083,0,0,0,,,,,,,PILOT,LB,m,y,./images/PILOTLB.png,,,,,,,,,,,,,,,,,,,,,z,0,1.6993,,,,,,,,0,149,149,50,1
,,,,,,,,,,,,,,,,,,44,2022-02-12_12h16.23.369,lexical_decision_task_DD_L4,2021.2.3,Win32,60.0132029,,,,,,,,,,,0.95,1,,,,,,,,,,,,,,,,,,,,,,,,0.118489583,-0.016927083,0,0,0,,,,,,,DONKEY,HB,m,y,./images/DONKEYHB.png,,,,,,,,,,,,,,,,,,,,,m,1,0.95,,,,,,,,0,150,150,19,1
,,,,,,,,,,,,,,,,,,44,2022-02-12_12h16.23.369,lexical_decision_task_DD_L4,2021.2.3,Win32,60.0132029,,,,,,,,,,,2.0701,1,,,,,,,,,,,,,,,,,,,,,,,,0.118489583,-0.016927083,0,0,0,,,,,,,PARCEL,C,m,y,./images/PARCEL.png,,,,,,,,,,,,,,,,,,,,,m,1,2.0701,,,,,,,,0,151,151,18,1
,,,,,,,,,,,,,,,,,,44,2022-02-12_12h16.23.369,lexical_decision_task_DD_L4,2021.2.3,Win32,60.0132029,,,,,,,,,,,0.8449,0,,,,,,,,,,,,,,,,,,,,,,,,0.118489583,-0.016927083,0,0,0,,,,,,,JUMPER,LB,m,y,./images/JUMPERLB.png,,,,,,,,,,,,,,,,,,,,,z,0,0.8449,,,,,,,,0,152,152,74,1
,,,,,,,,,,,,,,,,,,44,2022-02-12_12h16.23.369,lexical_decision_task_DD_L4,2021.2.3,Win32,60.0132029,,,,,,,,,,,1.4052,1,,,,,,,,,,,,,,,,,,,,,,,,0.118489583,-0.016927083,0,0,0,,,,,,,BROOM,C,m,y,./images/BROOM.png,,,,,,,,,,,,,,,,,,,,,m,1,1.4052,,,,,,,,0,153,153,78,1
,,,,,,,,,,,,,,,,,,44,2022-02-12_12h16.23.369,lexical_decision_task_DD_L4,2021.2.3,Win32,60.0132029,,,,,,,,,,,1.0924,0,,,,,,,,,,,,,,,,,,,,,,,,0.118489583,-0.016927083,0,0,0,,,,,,,GLOVE,HB,m,y,./images/GLOVEHB.png,,,,,,,,,,,,,,,,,,,,,z,0,1.0924,,,,,,,,0,154,154,73,1
,,,,,,,,,,,,,,,,,,44,2022-02-12_12h16.23.369,lexical_decision_task_DD_L4,2021.2.3,Win32,60.0132029,,,,,,,,,,,0.7988,1,,,,,,,,,,,,,,,,,,,,,,,,0.118489583,-0.016927083,0,0,0,,,,,,,MELON,HB,z,y,./images/MELONHB.png,,,,,,,,,,,,,,,,,,,,,z,1,0.7988,,,,,,,,0,155,155,106,1
,,,,,,,,,,,,,,,,,,44,2022-02-12_12h16.23.369,lexical_decision_task_DD_L4,2021.2.3,Win32,60.0132029,,,,,,,,,,,0.7393,1,,,,,,,,,,,,,,,,,,,,,,,,0.118489583,-0.016927083,0,0,0,,,,,,,PEACH,LB,z,y,./images/PEACHLB.png,,,,,,,,,,,,,,,,,,,,,z,1,0.7393,,,,,,,,0,156,156,119,1
,,,,,,,,,,,,,,,,,,44,2022-02-12_12h16.23.369,lexical_decision_task_DD_L4,2021.2.3,Win32,60.0132029,,,,,,,,,,,0.8151,0,,,,,,,,,,,,,,,,,,,,,,,,0.118489583,-0.016927083,0,0,0,,,,,,,ARROW,C,m,y,./images/ARROW.png,,,,,,,,,,,,,,,,,,,,,z,0,0.8151,,,,,,,,0,157,157,69,1
,,,,,,,,,,,,,,,,,,44,2022-02-12_12h16.23.369,lexical_decision_task_DD_L4,2021.2.3,Win32,60.0132029,,,,,,,,,,,1.436,0,,,,,,,,,,,,,,,,,,,,,,,,0.118489583,-0.016927083,0,0,0,,,,,,,COUCH,LB,z,y,./images/COUCHLB.png,,,,,,,,,,,,,,,,,,,,,m,0,1.436,,,,,,,,0,158,158,161,1
,,,,,,,,,,,,,,,,,,44,2022-02-12_12h16.23.369,lexical_decision_task_DD_L4,2021.2.3,Win32,60.0132029,,,,,,,,,,,0.6537,1,,,,,,,,,,,,,,,,,,,,,,,,0.118489583,-0.016927083,0,0,0,,,,,,,BELLY,HB,z,y,./images/BELLYHB.png,,,,,,,,,,,,,,,,,,,,,z,1,0.6537,,,,,,,,0,159,159,94,1
,,,,,,,,,,,,,,,,,,44,2022-02-12_12h16.23.369,lexical_decision_task_DD_L4,2021.2.3,Win32,60.0132029,,,,,,,,,,,0.6709,0,,,,,,,,,,,,,,,,,,,,,,,,0.118489583,-0.016927083,0,0,0,,,,,,,CLIFF,LB,m,y,./images/CLIFFLB.png,,,,,,,,,,,,,,,,,,,,,z,0,0.6709,,,,,,,,0,160,160,8,1
,,,,,,,,,,,,,,,,,,44,2022-02-12_12h16.23.369,lexical_decision_task_DD_L4,2021.2.3,Win32,60.0132029,,,,,,,,,,,0.4117,1,,,,,,,,,,,,,,,,,,,,,,,,0.118489583,-0.016927083,0,0,0,,,,,,,FARMER,LB,z,y,./images/FARMERLB.png,,,,,,,,,,,,,,,,,,,,,z,1,0.4117,,,,,,,,0,161,161,149,1
,,,,,,,,,,,,,,,,,,44,2022-02-12_12h16.23.369,lexical_decision_task_DD_L4,2021.2.3,Win32,60.0132029,,,,,,,,,,,0.9097,1,,,,,,,,,,,,,,,,,,,,,,,,0.118489583,-0.016927083,0,0,0,,,,,,,TOMATO,C,z,y,./images/TOMATO.png,,,,,,,,,,,,,,,,,,,,,z,1,0.9097,,,,,,,,0,162,162,84,1
,,,,,,,,,,,,,,,,,,44,2022-02-12_12h16.23.369,lexical_decision_task_DD_L4,2021.2.3,Win32,60.0132029,,,,,,,,,,,1.4115,0,,,,,,,,,,,,,,,,,,,,,,,,0.118489583,-0.016927083,0,0,0,,,,,,,MIRROR,C,z,y,./images/MIRROR.png,,,,,,,,,,,,,,,,,,,,,m,0,1.4115,,,,,,,,0,163,163,147,1
