key_resp.keys,key_resp.rt,instr_done_touch.x,instr_done_touch.y,instr_done_touch.leftButton,instr_done_touch.midButton,instr_done_touch.rightButton,instruction_pages.thisRepN,instruction_pages.thisTrialN,instruction_pages.thisN,instruction_pages.thisIndex,instruction_pages.ran,pageN,phase,instruct_text,has_image,instruct_image,participant,age,date,expName,psychopyVersion,OS,frameRate,response.keys,response.corr,response.rt,touch_resp.x,touch_resp.y,touch_resp.leftButton,touch_resp.midButton,touch_resp.rightButton,touch_resp.time,touch_resp.clicked_name,rt,corr,practrials.thisRepN,practrials.thisTrialN,practrials.thisN,practrials.thisIndex,practrials.ran,TrialID,Target,corrAns,end_of_practice_trials_pages.thisRepN,end_of_practice_trials_pages.thisTrialN,end_of_practice_trials_pages.thisN,end_of_practice_trials_pages.thisIndex,end_of_practice_trials_pages.ran,key_resp_2.keys,key_resp_2.corr,key_resp_2.rt,targ_click.x,targ_click.y,targ_click.leftButton,targ_click.midButton,targ_click.rightButton,targ_click.time,targ_click.clicked_name,break_done_touch.x,break_done_touch.y,break_done_touch.leftButton,break_done_touch.midButton,break_done_touch.rightButton,break_done_keyboard.keys,maintrials.thisRepN,maintrials.thisTrialN,maintrials.thisN,maintrials.thisIndex,maintrials.ran,string,blur,study,lex,stim_path,break_done_keyboard.rt,mouse_2.x,mouse_2.y,mouse_2.leftButton,mouse_2.midButton,mouse_2.rightButton,mouse_2.clicked_name,slider.response,slider.rt,trials.thisRepN,trials.thisTrialN,trials.thisN,trials.thisIndex,trials.ran,test_instructions.thisRepN,test_instructions.thisTrialN,test_instructions.thisN,test_instructions.thisIndex,test_instructions.ran,instr_done_touch.clicked_name,key_resp_3.keys,key_resp_3.corr,key_resp_3.rt,test_click.x,test_click.y,test_click.leftButton,test_click.midButton,test_click.rightButton,test_click.time,test_click.clicked_name,test_phase.thisRepN,test_phase.thisTrialN,test_phase.thisN,test_phase.thisIndex,test_phase.ran
space,32.3095,0.221108007,-0.177848182,0,0,0,0,0,0,0,1,1,instructions,"INSTRUCTIONS
At the start of each trial, look at the plus sign  (+) in the center of the screen.  This tells you that a trial is about to begin and where to look. Second, the plus sign will disappear and a string of letters will appear. Your task is to determine if the string of letters is a word or not. If the item is a word press the M key (on keyboard)  or touch the word button (phone/tablet).  If the item is not a word,  press the  Z key (on keyboard)  or touch the nonword button (on phone/tablet). 
Press the space bar or touch  continue.",0,,58578946c41fd90001434680,66,2022-02-12_16h38.10.188,lexical_decision_task_DD_L5,2021.2.3,MacIntel,12.00048002,,,,,,,,,,,,,,,,,,,,,,,,,,,,,,,,,,,,,,,,,,,,,,,,,,,,,,,,,,,,,,,,,,,,,,,,,,,,,,,,,,,,,,
space,6.1946,0.243635812,-0.289778251,0,0,0,0,1,1,1,1,2,instructions,"If your device has a keyboard, press the 'Z' key for nonwords and the 'M' key for words.





Press the space bar or touch the button below to continue.",0,keyboard-example.gif,58578946c41fd90001434680,66,2022-02-12_16h38.10.188,lexical_decision_task_DD_L5,2021.2.3,MacIntel,12.00048002,,,,,,,,,,,,,,,,,,,,,,,,,,,,,,,,,,,,,,,,,,,,,,,,,,,,,,,,,,,,,,,,,,,,,,,,,,,,,,,,,,,,,,
space,9.3909,0.23257909,-0.280827513,0,0,0,0,2,2,2,1,3,instructions,"If you are using a touchscreen only device, use the buttons on the screen. Do not use the mouse.





Press the space bar or touch the button below to continue.",0,touchscreen-example.gif,58578946c41fd90001434680,66,2022-02-12_16h38.10.188,lexical_decision_task_DD_L5,2021.2.3,MacIntel,12.00048002,,,,,,,,,,,,,,,,,,,,,,,,,,,,,,,,,,,,,,,,,,,,,,,,,,,,,,,,,,,,,,,,,,,,,,,,,,,,,,,,,,,,,,
space,8.919,0.23257909,-0.280827513,0,0,0,0,3,3,3,1,4,instructions,"It is very important that you respond as quickly and accurately as possible, as each letter string will only be on the screen for two seconds. If you do not respond within this time, the message 'Too slow!' will be displayed and the experiment will progress to the next letter string. The first 20 trials will be practice trials and you will receive feedback on your answers. 

Press the space bar or touch the button below to start the practice trials.",0,,58578946c41fd90001434680,66,2022-02-12_16h38.10.188,lexical_decision_task_DD_L5,2021.2.3,MacIntel,12.00048002,,,,,,,,,,,,,,,,,,,,,,,,,,,,,,,,,,,,,,,,,,,,,,,,,,,,,,,,,,,,,,,,,,,,,,,,,,,,,,,,,,,,,,
,,,,,,,,,,,,,,,,,58578946c41fd90001434680,66,2022-02-12_16h38.10.188,lexical_decision_task_DD_L5,2021.2.3,MacIntel,12.00048002,m,1,1.2928,,,,,,,,1.2928,1,0,0,0,2,1,1001,ALMOND,m,,,,,,,,,,,,,,,,,,,,,,,,,,,,,,,,,,,,,,,,,,,,,,,,,,,,,,,,,,,,,,,,,,
,,,,,,,,,,,,,,,,,58578946c41fd90001434680,66,2022-02-12_16h38.10.188,lexical_decision_task_DD_L5,2021.2.3,MacIntel,12.00048002,z,1,1.2034,,,,,,,,1.2034,1,0,1,1,14,1,1001,THRALE,z,,,,,,,,,,,,,,,,,,,,,,,,,,,,,,,,,,,,,,,,,,,,,,,,,,,,,,,,,,,,,,,,,,
,,,,,,,,,,,,,,,,,58578946c41fd90001434680,66,2022-02-12_16h38.10.188,lexical_decision_task_DD_L5,2021.2.3,MacIntel,12.00048002,m,1,0.808,,,,,,,,0.808,1,0,2,2,7,1,1001,VOLUME,m,,,,,,,,,,,,,,,,,,,,,,,,,,,,,,,,,,,,,,,,,,,,,,,,,,,,,,,,,,,,,,,,,,
,,,,,,,,,,,,,,,,,58578946c41fd90001434680,66,2022-02-12_16h38.10.188,lexical_decision_task_DD_L5,2021.2.3,MacIntel,12.00048002,z,1,0.781,,,,,,,,0.781,1,0,3,3,11,1,1001,RASHET,z,,,,,,,,,,,,,,,,,,,,,,,,,,,,,,,,,,,,,,,,,,,,,,,,,,,,,,,,,,,,,,,,,,
,,,,,,,,,,,,,,,,,58578946c41fd90001434680,66,2022-02-12_16h38.10.188,lexical_decision_task_DD_L5,2021.2.3,MacIntel,12.00048002,z,1,0.8979,,,,,,,,0.8979,1,0,4,4,12,1,1001,SPRINY,z,,,,,,,,,,,,,,,,,,,,,,,,,,,,,,,,,,,,,,,,,,,,,,,,,,,,,,,,,,,,,,,,,,
,,,,,,,,,,,,,,,,,58578946c41fd90001434680,66,2022-02-12_16h38.10.188,lexical_decision_task_DD_L5,2021.2.3,MacIntel,12.00048002,z,1,0.7865,,,,,,,,0.7865,1,0,5,5,15,1,1001,WHAISE,z,,,,,,,,,,,,,,,,,,,,,,,,,,,,,,,,,,,,,,,,,,,,,,,,,,,,,,,,,,,,,,,,,,
,,,,,,,,,,,,,,,,,58578946c41fd90001434680,66,2022-02-12_16h38.10.188,lexical_decision_task_DD_L5,2021.2.3,MacIntel,12.00048002,m,1,0.6892,,,,,,,,0.6892,1,0,6,6,4,1,1001,SQUEAK,m,,,,,,,,,,,,,,,,,,,,,,,,,,,,,,,,,,,,,,,,,,,,,,,,,,,,,,,,,,,,,,,,,,
,,,,,,,,,,,,,,,,,58578946c41fd90001434680,66,2022-02-12_16h38.10.188,lexical_decision_task_DD_L5,2021.2.3,MacIntel,12.00048002,m,0,0.7837,,,,,,,,0.7837,0,0,7,7,8,1,1001,ASLERT,z,,,,,,,,,,,,,,,,,,,,,,,,,,,,,,,,,,,,,,,,,,,,,,,,,,,,,,,,,,,,,,,,,,
,,,,,,,,,,,,,,,,,58578946c41fd90001434680,66,2022-02-12_16h38.10.188,lexical_decision_task_DD_L5,2021.2.3,MacIntel,12.00048002,z,1,0.8055,,,,,,,,0.8055,1,0,8,8,13,1,1001,ROUPET,z,,,,,,,,,,,,,,,,,,,,,,,,,,,,,,,,,,,,,,,,,,,,,,,,,,,,,,,,,,,,,,,,,,
,,,,,,,,,,,,,,,,,58578946c41fd90001434680,66,2022-02-12_16h38.10.188,lexical_decision_task_DD_L5,2021.2.3,MacIntel,12.00048002,m,1,0.9849,,,,,,,,0.9849,1,0,9,9,6,1,1001,ZOMBIE,m,,,,,,,,,,,,,,,,,,,,,,,,,,,,,,,,,,,,,,,,,,,,,,,,,,,,,,,,,,,,,,,,,,
,,,,,,,,,,,,,,,,,58578946c41fd90001434680,66,2022-02-12_16h38.10.188,lexical_decision_task_DD_L5,2021.2.3,MacIntel,12.00048002,m,1,0.7943,,,,,,,,0.7943,1,0,10,10,0,1,1001,UTOPIA,m,,,,,,,,,,,,,,,,,,,,,,,,,,,,,,,,,,,,,,,,,,,,,,,,,,,,,,,,,,,,,,,,,,
,,,,,,,,,,,,,,,,,58578946c41fd90001434680,66,2022-02-12_16h38.10.188,lexical_decision_task_DD_L5,2021.2.3,MacIntel,12.00048002,m,1,0.8874,,,,,,,,0.8874,1,0,11,11,3,1,1001,MATRIX,m,,,,,,,,,,,,,,,,,,,,,,,,,,,,,,,,,,,,,,,,,,,,,,,,,,,,,,,,,,,,,,,,,,
,,,,,,,,,,,,,,,,,58578946c41fd90001434680,66,2022-02-12_16h38.10.188,lexical_decision_task_DD_L5,2021.2.3,MacIntel,12.00048002,z,1,0.9673,,,,,,,,0.9673,1,0,12,12,10,1,1001,INLADE,z,,,,,,,,,,,,,,,,,,,,,,,,,,,,,,,,,,,,,,,,,,,,,,,,,,,,,,,,,,,,,,,,,,
,,,,,,,,,,,,,,,,,58578946c41fd90001434680,66,2022-02-12_16h38.10.188,lexical_decision_task_DD_L5,2021.2.3,MacIntel,12.00048002,z,1,0.7909,,,,,,,,0.7909,1,0,13,13,9,1,1001,FARINY,z,,,,,,,,,,,,,,,,,,,,,,,,,,,,,,,,,,,,,,,,,,,,,,,,,,,,,,,,,,,,,,,,,,
,,,,,,,,,,,,,,,,,58578946c41fd90001434680,66,2022-02-12_16h38.10.188,lexical_decision_task_DD_L5,2021.2.3,MacIntel,12.00048002,m,1,0.6727,,,,,,,,0.6727,1,0,14,14,5,1,1001,OBTAIN,m,,,,,,,,,,,,,,,,,,,,,,,,,,,,,,,,,,,,,,,,,,,,,,,,,,,,,,,,,,,,,,,,,,
,,,,,,,,,,,,,,,,,58578946c41fd90001434680,66,2022-02-12_16h38.10.188,lexical_decision_task_DD_L5,2021.2.3,MacIntel,12.00048002,m,1,0.7708,,,,,,,,0.7708,1,0,15,15,1,1,1001,ADJUST,m,,,,,,,,,,,,,,,,,,,,,,,,,,,,,,,,,,,,,,,,,,,,,,,,,,,,,,,,,,,,,,,,,,
space,11.2258,0.23257909,-0.280827513,0,0,0,,,,,,1,end_of_practice,"You have completed the practice trials. During the experimental trials, you will not receive feedback. 
Before you begin, please ensure that you are in a comfortable and quiet location and will not be disturbed for about 15 minutes, as we cannot use your data if you do not complete all the trials. 
 When you are ready to start the experimental trials, please press space or touch the button below.",,,58578946c41fd90001434680,66,2022-02-12_16h38.10.188,lexical_decision_task_DD_L5,2021.2.3,MacIntel,12.00048002,,,,,,,,,,,,,,,,,,,,,0,0,0,0,1,,,,,,,,,,,,,,,,,,,,,,,,,,,,,,,,,,,,,,,,,,,,,,,,,,,,,,,,,,,,,
,,,,,,,,,,,,,,,,,58578946c41fd90001434680,66,2022-02-12_16h38.10.188,lexical_decision_task_DD_L5,2021.2.3,MacIntel,12.00048002,,,,,,,,,,,0.9453,1,,,,,,,,,,,,,,z,1,0.9453,,,,,,,,0.23257909,-0.280827513,0,0,0,,0,0,0,120,1,RINED,C,old,z,./images/RINED.png,,,,,,,,,,,,,,,,,,,,,,,,,,,,,,,,,,,
,,,,,,,,,,,,,,,,,58578946c41fd90001434680,66,2022-02-12_16h38.10.188,lexical_decision_task_DD_L5,2021.2.3,MacIntel,12.00048002,,,,,,,,,,,1.0579,1,,,,,,,,,,,,,,m,1,1.0579,,,,,,,,0.23257909,-0.280827513,0,0,0,,0,1,1,47,1,LAGOON,C,old,m,./images/LAGOON.png,,,,,,,,,,,,,,,,,,,,,,,,,,,,,,,,,,,
,,,,,,,,,,,,,,,,,58578946c41fd90001434680,66,2022-02-12_16h38.10.188,lexical_decision_task_DD_L5,2021.2.3,MacIntel,12.00048002,,,,,,,,,,,0.862,1,,,,,,,,,,,,,,m,1,0.862,,,,,,,,0.23257909,-0.280827513,0,0,0,,0,2,2,1,1,TOWEL,LB,old,m,./images/TOWELLB.png,,,,,,,,,,,,,,,,,,,,,,,,,,,,,,,,,,,
,,,,,,,,,,,,,,,,,58578946c41fd90001434680,66,2022-02-12_16h38.10.188,lexical_decision_task_DD_L5,2021.2.3,MacIntel,12.00048002,,,,,,,,,,,0.8468,1,,,,,,,,,,,,,,m,1,0.8468,,,,,,,,0.23257909,-0.280827513,0,0,0,,0,3,3,71,1,BUBBLE,C,old,m,./images/BUBBLE.png,,,,,,,,,,,,,,,,,,,,,,,,,,,,,,,,,,,
,,,,,,,,,,,,,,,,,58578946c41fd90001434680,66,2022-02-12_16h38.10.188,lexical_decision_task_DD_L5,2021.2.3,MacIntel,12.00048002,,,,,,,,,,,0.8446,1,,,,,,,,,,,,,,z,1,0.8446,,,,,,,,0.23257909,-0.280827513,0,0,0,,0,4,4,150,1,NOOLS,C,old,z,./images/NOOLS.png,,,,,,,,,,,,,,,,,,,,,,,,,,,,,,,,,,,
,,,,,,,,,,,,,,,,,58578946c41fd90001434680,66,2022-02-12_16h38.10.188,lexical_decision_task_DD_L5,2021.2.3,MacIntel,12.00048002,,,,,,,,,,,1.0488,0,,,,,,,,,,,,,,m,0,1.0488,,,,,,,,0.23257909,-0.280827513,0,0,0,,0,5,5,142,1,PLASK,HB,old,z,./images/PLASKHB.png,,,,,,,,,,,,,,,,,,,,,,,,,,,,,,,,,,,
,,,,,,,,,,,,,,,,,58578946c41fd90001434680,66,2022-02-12_16h38.10.188,lexical_decision_task_DD_L5,2021.2.3,MacIntel,12.00048002,,,,,,,,,,,0.742,1,,,,,,,,,,,,,,m,1,0.742,,,,,,,,0.23257909,-0.280827513,0,0,0,,0,6,6,83,1,WHISKY,C,old,m,./images/WHISKY.png,,,,,,,,,,,,,,,,,,,,,,,,,,,,,,,,,,,
,,,,,,,,,,,,,,,,,58578946c41fd90001434680,66,2022-02-12_16h38.10.188,lexical_decision_task_DD_L5,2021.2.3,MacIntel,12.00048002,,,,,,,,,,,0.9454,1,,,,,,,,,,,,,,m,1,0.9454,,,,,,,,0.23257909,-0.280827513,0,0,0,,0,7,7,78,1,BROOM,HB,old,m,./images/BROOMHB.png,,,,,,,,,,,,,,,,,,,,,,,,,,,,,,,,,,,
,,,,,,,,,,,,,,,,,58578946c41fd90001434680,66,2022-02-12_16h38.10.188,lexical_decision_task_DD_L5,2021.2.3,MacIntel,12.00048002,,,,,,,,,,,0.7426,1,,,,,,,,,,,,,,m,1,0.7426,,,,,,,,0.23257909,-0.280827513,0,0,0,,0,8,8,2,1,STOVE,C,old,m,./images/STOVE.png,,,,,,,,,,,,,,,,,,,,,,,,,,,,,,,,,,,
,,,,,,,,,,,,,,,,,58578946c41fd90001434680,66,2022-02-12_16h38.10.188,lexical_decision_task_DD_L5,2021.2.3,MacIntel,12.00048002,,,,,,,,,,,1.0595,1,,,,,,,,,,,,,,m,1,1.0595,,,,,,,,0.23257909,-0.280827513,0,0,0,,0,9,9,42,1,CHAIN,HB,old,m,./images/CHAINHB.png,,,,,,,,,,,,,,,,,,,,,,,,,,,,,,,,,,,
,,,,,,,,,,,,,,,,,58578946c41fd90001434680,66,2022-02-12_16h38.10.188,lexical_decision_task_DD_L5,2021.2.3,MacIntel,12.00048002,,,,,,,,,,,0.8796,0,,,,,,,,,,,,,,z,0,0.8796,,,,,,,,0.23257909,-0.280827513,0,0,0,,0,10,10,33,1,SAUNA,HB,old,m,./images/SAUNAHB.png,,,,,,,,,,,,,,,,,,,,,,,,,,,,,,,,,,,
,,,,,,,,,,,,,,,,,58578946c41fd90001434680,66,2022-02-12_16h38.10.188,lexical_decision_task_DD_L5,2021.2.3,MacIntel,12.00048002,,,,,,,,,,,0.7325,1,,,,,,,,,,,,,,m,1,0.7325,,,,,,,,0.23257909,-0.280827513,0,0,0,,0,11,11,13,1,BUNNY,LB,old,m,./images/BUNNYLB.png,,,,,,,,,,,,,,,,,,,,,,,,,,,,,,,,,,,
,,,,,,,,,,,,,,,,,58578946c41fd90001434680,66,2022-02-12_16h38.10.188,lexical_decision_task_DD_L5,2021.2.3,MacIntel,12.00048002,,,,,,,,,,,1.0894,1,,,,,,,,,,,,,,m,1,1.0894,,,,,,,,0.23257909,-0.280827513,0,0,0,,0,12,12,3,1,CRATER,HB,old,m,./images/CRATERHB.png,,,,,,,,,,,,,,,,,,,,,,,,,,,,,,,,,,,
,,,,,,,,,,,,,,,,,58578946c41fd90001434680,66,2022-02-12_16h38.10.188,lexical_decision_task_DD_L5,2021.2.3,MacIntel,12.00048002,,,,,,,,,,,0.9568,1,,,,,,,,,,,,,,z,1,0.9568,,,,,,,,0.23257909,-0.280827513,0,0,0,,0,13,13,92,1,PAIMS,LB,old,z,./images/PAIMSLB.png,,,,,,,,,,,,,,,,,,,,,,,,,,,,,,,,,,,
,,,,,,,,,,,,,,,,,58578946c41fd90001434680,66,2022-02-12_16h38.10.188,lexical_decision_task_DD_L5,2021.2.3,MacIntel,12.00048002,,,,,,,,,,,1.1111,0,,,,,,,,,,,,,,m,0,1.1111,,,,,,,,0.23257909,-0.280827513,0,0,0,,0,14,14,100,1,DRIBS,HB,old,z,./images/DRIBSHB.png,,,,,,,,,,,,,,,,,,,,,,,,,,,,,,,,,,,
,,,,,,,,,,,,,,,,,58578946c41fd90001434680,66,2022-02-12_16h38.10.188,lexical_decision_task_DD_L5,2021.2.3,MacIntel,12.00048002,,,,,,,,,,,1.3509,1,,,,,,,,,,,,,,z,1,1.3509,,,,,,,,0.23257909,-0.280827513,0,0,0,,0,15,15,103,1,FLORT,HB,old,z,./images/FLORTHB.png,,,,,,,,,,,,,,,,,,,,,,,,,,,,,,,,,,,
,,,,,,,,,,,,,,,,,58578946c41fd90001434680,66,2022-02-12_16h38.10.188,lexical_decision_task_DD_L5,2021.2.3,MacIntel,12.00048002,,,,,,,,,,,0.9642,1,,,,,,,,,,,,,,m,1,0.9642,,,,,,,,0.23257909,-0.280827513,0,0,0,,0,16,16,75,1,HAMMER,HB,old,m,./images/HAMMERHB.png,,,,,,,,,,,,,,,,,,,,,,,,,,,,,,,,,,,
,,,,,,,,,,,,,,,,,58578946c41fd90001434680,66,2022-02-12_16h38.10.188,lexical_decision_task_DD_L5,2021.2.3,MacIntel,12.00048002,,,,,,,,,,,0.6226,1,,,,,,,,,,,,,,m,1,0.6226,,,,,,,,0.23257909,-0.280827513,0,0,0,,0,17,17,50,1,PILOT,C,old,m,./images/PILOT.png,,,,,,,,,,,,,,,,,,,,,,,,,,,,,,,,,,,
,,,,,,,,,,,,,,,,,58578946c41fd90001434680,66,2022-02-12_16h38.10.188,lexical_decision_task_DD_L5,2021.2.3,MacIntel,12.00048002,,,,,,,,,,,0.7263,1,,,,,,,,,,,,,,m,1,0.7263,,,,,,,,0.23257909,-0.280827513,0,0,0,,0,18,18,76,1,MIDGET,LB,old,m,./images/MIDGETLB.png,,,,,,,,,,,,,,,,,,,,,,,,,,,,,,,,,,,
,,,,,,,,,,,,,,,,,58578946c41fd90001434680,66,2022-02-12_16h38.10.188,lexical_decision_task_DD_L5,2021.2.3,MacIntel,12.00048002,,,,,,,,,,,0.7295,1,,,,,,,,,,,,,,m,1,0.7295,,,,,,,,0.23257909,-0.280827513,0,0,0,,0,19,19,41,1,STREAM,C,old,m,./images/STREAM.png,,,,,,,,,,,,,,,,,,,,,,,,,,,,,,,,,,,
,,,,,,,,,,,,,,,,,58578946c41fd90001434680,66,2022-02-12_16h38.10.188,lexical_decision_task_DD_L5,2021.2.3,MacIntel,12.00048002,,,,,,,,,,,1.0613,1,,,,,,,,,,,,,,m,1,1.0613,,,,,,,,0.23257909,-0.280827513,0,0,0,,0,20,20,69,1,ARROW,HB,old,m,./images/ARROWHB.png,,,,,,,,,,,,,,,,,,,,,,,,,,,,,,,,,,,
,,,,,,,,,,,,,,,,,58578946c41fd90001434680,66,2022-02-12_16h38.10.188,lexical_decision_task_DD_L5,2021.2.3,MacIntel,12.00048002,,,,,,,,,,,0.8623,1,,,,,,,,,,,,,,z,1,0.8623,,,,,,,,0.23257909,-0.280827513,0,0,0,,0,21,21,162,1,LEICH,C,old,z,./images/LEICH.png,,,,,,,,,,,,,,,,,,,,,,,,,,,,,,,,,,,
,,,,,,,,,,,,,,,,,58578946c41fd90001434680,66,2022-02-12_16h38.10.188,lexical_decision_task_DD_L5,2021.2.3,MacIntel,12.00048002,,,,,,,,,,,0.7422,1,,,,,,,,,,,,,,m,1,0.7422,,,,,,,,0.23257909,-0.280827513,0,0,0,,0,22,22,26,1,CLOUD,C,old,m,./images/CLOUD.png,,,,,,,,,,,,,,,,,,,,,,,,,,,,,,,,,,,
,,,,,,,,,,,,,,,,,58578946c41fd90001434680,66,2022-02-12_16h38.10.188,lexical_decision_task_DD_L5,2021.2.3,MacIntel,12.00048002,,,,,,,,,,,0.8429,1,,,,,,,,,,,,,,m,1,0.8429,,,,,,,,0.23257909,-0.280827513,0,0,0,,0,23,23,63,1,BAKER,HB,old,m,./images/BAKERHB.png,,,,,,,,,,,,,,,,,,,,,,,,,,,,,,,,,,,
,,,,,,,,,,,,,,,,,58578946c41fd90001434680,66,2022-02-12_16h38.10.188,lexical_decision_task_DD_L5,2021.2.3,MacIntel,12.00048002,,,,,,,,,,,1.0909,1,,,,,,,,,,,,,,z,1,1.0909,,,,,,,,0.23257909,-0.280827513,0,0,0,,0,24,24,96,1,KEAMS,C,old,z,./images/KEAMS.png,,,,,,,,,,,,,,,,,,,,,,,,,,,,,,,,,,,
,,,,,,,,,,,,,,,,,58578946c41fd90001434680,66,2022-02-12_16h38.10.188,lexical_decision_task_DD_L5,2021.2.3,MacIntel,12.00048002,,,,,,,,,,,0.7334,1,,,,,,,,,,,,,,m,1,0.7334,,,,,,,,0.23257909,-0.280827513,0,0,0,,0,25,25,16,1,GRAPE,LB,old,m,./images/GRAPELB.png,,,,,,,,,,,,,,,,,,,,,,,,,,,,,,,,,,,
,,,,,,,,,,,,,,,,,58578946c41fd90001434680,66,2022-02-12_16h38.10.188,lexical_decision_task_DD_L5,2021.2.3,MacIntel,12.00048002,,,,,,,,,,,1.6073,1,,,,,,,,,,,,,,z,1,1.6073,,,,,,,,0.23257909,-0.280827513,0,0,0,,0,26,26,97,1,CHIDS,HB,old,z,./images/CHIDSHB.png,,,,,,,,,,,,,,,,,,,,,,,,,,,,,,,,,,,
,,,,,,,,,,,,,,,,,58578946c41fd90001434680,66,2022-02-12_16h38.10.188,lexical_decision_task_DD_L5,2021.2.3,MacIntel,12.00048002,,,,,,,,,,,0.7459,1,,,,,,,,,,,,,,m,1,0.7459,,,,,,,,0.23257909,-0.280827513,0,0,0,,0,27,27,11,1,MEDAL,C,old,m,./images/MEDAL.png,,,,,,,,,,,,,,,,,,,,,,,,,,,,,,,,,,,
,,,,,,,,,,,,,,,,,58578946c41fd90001434680,66,2022-02-12_16h38.10.188,lexical_decision_task_DD_L5,2021.2.3,MacIntel,12.00048002,,,,,,,,,,,1.0693,1,,,,,,,,,,,,,,m,1,1.0693,,,,,,,,0.23257909,-0.280827513,0,0,0,,0,28,28,27,1,BUTTER,HB,old,m,./images/BUTTERHB.png,,,,,,,,,,,,,,,,,,,,,,,,,,,,,,,,,,,
,,,,,,,,,,,,,,,,,58578946c41fd90001434680,66,2022-02-12_16h38.10.188,lexical_decision_task_DD_L5,2021.2.3,MacIntel,12.00048002,,,,,,,,,,,1.5268,1,,,,,,,,,,,,,,z,1,1.5268,,,,,,,,0.23257909,-0.280827513,0,0,0,,0,29,29,151,1,TINKY,HB,old,z,./images/TINKYHB.png,,,,,,,,,,,,,,,,,,,,,,,,,,,,,,,,,,,
,,,,,,,,,,,,,,,,,58578946c41fd90001434680,66,2022-02-12_16h38.10.188,lexical_decision_task_DD_L5,2021.2.3,MacIntel,12.00048002,,,,,,,,,,,1.3938,1,,,,,,,,,,,,,,z,1,1.3938,,,,,,,,0.23257909,-0.280827513,0,0,0,,0,30,30,145,1,LAMEL,HB,old,z,./images/LAMELHB.png,,,,,,,,,,,,,,,,,,,,,,,,,,,,,,,,,,,
,,,,,,,,,,,,,,,,,58578946c41fd90001434680,66,2022-02-12_16h38.10.188,lexical_decision_task_DD_L5,2021.2.3,MacIntel,12.00048002,,,,,,,,,,,0.7809,1,,,,,,,,,,,,,,m,1,0.7809,,,,,,,,0.23257909,-0.280827513,0,0,0,,0,31,31,62,1,MAMMAL,C,old,m,./images/MAMMAL.png,,,,,,,,,,,,,,,,,,,,,,,,,,,,,,,,,,,
,,,,,,,,,,,,,,,,,58578946c41fd90001434680,66,2022-02-12_16h38.10.188,lexical_decision_task_DD_L5,2021.2.3,MacIntel,12.00048002,,,,,,,,,,,0.7417,1,,,,,,,,,,,,,,m,1,0.7417,,,,,,,,0.23257909,-0.280827513,0,0,0,,0,32,32,67,1,POKER,LB,old,m,./images/POKERLB.png,,,,,,,,,,,,,,,,,,,,,,,,,,,,,,,,,,,
,,,,,,,,,,,,,,,,,58578946c41fd90001434680,66,2022-02-12_16h38.10.188,lexical_decision_task_DD_L5,2021.2.3,MacIntel,12.00048002,,,,,,,,,,,1.0933,1,,,,,,,,,,,,,,m,1,1.0933,,,,,,,,0.23257909,-0.280827513,0,0,0,,0,33,33,18,1,PARCEL,HB,old,m,./images/PARCELHB.png,,,,,,,,,,,,,,,,,,,,,,,,,,,,,,,,,,,
,,,,,,,,,,,,,,,,,58578946c41fd90001434680,66,2022-02-12_16h38.10.188,lexical_decision_task_DD_L5,2021.2.3,MacIntel,12.00048002,,,,,,,,,,,0.6415,1,,,,,,,,,,,,,,m,1,0.6415,,,,,,,,0.23257909,-0.280827513,0,0,0,,0,34,34,64,1,BRIDE,LB,old,m,./images/BRIDELB.png,,,,,,,,,,,,,,,,,,,,,,,,,,,,,,,,,,,
,,,,,,,,,,,,,,,,,58578946c41fd90001434680,66,2022-02-12_16h38.10.188,lexical_decision_task_DD_L5,2021.2.3,MacIntel,12.00048002,,,,,,,,,,,0.8604,1,,,,,,,,,,,,,,z,1,0.8604,,,,,,,,0.23257909,-0.280827513,0,0,0,,0,35,35,119,1,PAFER,LB,old,z,./images/PAFERLB.png,,,,,,,,,,,,,,,,,,,,,,,,,,,,,,,,,,,
,,,,,,,,,,,,,,,,,58578946c41fd90001434680,66,2022-02-12_16h38.10.188,lexical_decision_task_DD_L5,2021.2.3,MacIntel,12.00048002,,,,,,,,,,,0.8376,0,,,,,,,,,,,,,,m,0,0.8376,,,,,,,,0.23257909,-0.280827513,0,0,0,,0,36,36,143,1,MONGS,LB,old,z,./images/MONGSLB.png,,,,,,,,,,,,,,,,,,,,,,,,,,,,,,,,,,,
,,,,,,,,,,,,,,,,,58578946c41fd90001434680,66,2022-02-12_16h38.10.188,lexical_decision_task_DD_L5,2021.2.3,MacIntel,12.00048002,,,,,,,,,,,1.498,1,,,,,,,,,,,,,,m,1,1.498,,,,,,,,0.23257909,-0.280827513,0,0,0,,0,37,37,48,1,SHIELD,HB,old,m,./images/SHIELDHB.png,,,,,,,,,,,,,,,,,,,,,,,,,,,,,,,,,,,
,,,,,,,,,,,,,,,,,58578946c41fd90001434680,66,2022-02-12_16h38.10.188,lexical_decision_task_DD_L5,2021.2.3,MacIntel,12.00048002,,,,,,,,,,,0.8011,1,,,,,,,,,,,,,,z,1,0.8011,,,,,,,,0.23257909,-0.280827513,0,0,0,,0,38,38,149,1,VEASE,LB,old,z,./images/VEASELB.png,,,,,,,,,,,,,,,,,,,,,,,,,,,,,,,,,,,
,,,,,,,,,,,,,,,,,58578946c41fd90001434680,66,2022-02-12_16h38.10.188,lexical_decision_task_DD_L5,2021.2.3,MacIntel,12.00048002,,,,,,,,,,,0.9651,1,,,,,,,,,,,,,,m,1,0.9651,,,,,,,,0.23257909,-0.280827513,0,0,0,,0,39,39,6,1,STAIN,HB,old,m,./images/STAINHB.png,,,,,,,,,,,,,,,,,,,,,,,,,,,,,,,,,,,
,,,,,,,,,,,,,,,,,58578946c41fd90001434680,66,2022-02-12_16h38.10.188,lexical_decision_task_DD_L5,2021.2.3,MacIntel,12.00048002,,,,,,,,,,,0.6504,0,,,,,,,,,,,,,,m,0,0.6504,,,,,,,,0.23257909,-0.280827513,0,0,0,,0,40,40,107,1,FASKS,LB,old,z,./images/FASKSLB.png,,,,,,,,,,,,,,,,,,,,,,,,,,,,,,,,,,,
,,,,,,,,,,,,,,,,,58578946c41fd90001434680,66,2022-02-12_16h38.10.188,lexical_decision_task_DD_L5,2021.2.3,MacIntel,12.00048002,,,,,,,,,,,1.1608,1,,,,,,,,,,,,,,z,1,1.1608,,,,,,,,0.23257909,-0.280827513,0,0,0,space,0,41,41,163,1,GAMBA,HB,old,z,./images/GAMBAHB.png,15.6865,,,,,,,,,,,,,,,,,,,,,,,,,,,,,,,,,,
,,,,,,,,,,,,,,,,,58578946c41fd90001434680,66,2022-02-12_16h38.10.188,lexical_decision_task_DD_L5,2021.2.3,MacIntel,12.00048002,,,,,,,,,,,0.8907,1,,,,,,,,,,,,,,m,1,0.8907,,,,,,,,0.23257909,-0.280827513,0,0,0,,0,42,42,20,1,GRANNY,C,old,m,./images/GRANNY.png,,,,,,,,,,,,,,,,,,,,,,,,,,,,,,,,,,,
,,,,,,,,,,,,,,,,,58578946c41fd90001434680,66,2022-02-12_16h38.10.188,lexical_decision_task_DD_L5,2021.2.3,MacIntel,12.00048002,,,,,,,,,,,0.9381,1,,,,,,,,,,,,,,m,1,0.9381,,,,,,,,0.23257909,-0.280827513,0,0,0,,0,43,43,60,1,CURRY,HB,old,m,./images/CURRYHB.png,,,,,,,,,,,,,,,,,,,,,,,,,,,,,,,,,,,
,,,,,,,,,,,,,,,,,58578946c41fd90001434680,66,2022-02-12_16h38.10.188,lexical_decision_task_DD_L5,2021.2.3,MacIntel,12.00048002,,,,,,,,,,,0.8586,1,,,,,,,,,,,,,,m,1,0.8586,,,,,,,,0.23257909,-0.280827513,0,0,0,,0,44,44,19,1,DONKEY,LB,old,m,./images/DONKEYLB.png,,,,,,,,,,,,,,,,,,,,,,,,,,,,,,,,,,,
,,,,,,,,,,,,,,,,,58578946c41fd90001434680,66,2022-02-12_16h38.10.188,lexical_decision_task_DD_L5,2021.2.3,MacIntel,12.00048002,,,,,,,,,,,0.7325,1,,,,,,,,,,,,,,m,1,0.7325,,,,,,,,0.23257909,-0.280827513,0,0,0,,0,45,45,40,1,SNAKE,LB,old,m,./images/SNAKELB.png,,,,,,,,,,,,,,,,,,,,,,,,,,,,,,,,,,,
,,,,,,,,,,,,,,,,,58578946c41fd90001434680,66,2022-02-12_16h38.10.188,lexical_decision_task_DD_L5,2021.2.3,MacIntel,12.00048002,,,,,,,,,,,1.1043,1,,,,,,,,,,,,,,z,1,1.1043,,,,,,,,0.23257909,-0.280827513,0,0,0,,0,46,46,109,1,BURGE,HB,old,z,./images/BURGEHB.png,,,,,,,,,,,,,,,,,,,,,,,,,,,,,,,,,,,
,,,,,,,,,,,,,,,,,58578946c41fd90001434680,66,2022-02-12_16h38.10.188,lexical_decision_task_DD_L5,2021.2.3,MacIntel,12.00048002,,,,,,,,,,,0.8629,1,,,,,,,,,,,,,,m,1,0.8629,,,,,,,,0.23257909,-0.280827513,0,0,0,,0,47,47,7,1,WAGON,LB,old,m,./images/WAGONLB.png,,,,,,,,,,,,,,,,,,,,,,,,,,,,,,,,,,,
,,,,,,,,,,,,,,,,,58578946c41fd90001434680,66,2022-02-12_16h38.10.188,lexical_decision_task_DD_L5,2021.2.3,MacIntel,12.00048002,,,,,,,,,,,0.9784,1,,,,,,,,,,,,,,m,1,0.9784,,,,,,,,0.23257909,-0.280827513,0,0,0,,0,48,48,30,1,SLOPE,HB,old,m,./images/SLOPEHB.png,,,,,,,,,,,,,,,,,,,,,,,,,,,,,,,,,,,
,,,,,,,,,,,,,,,,,58578946c41fd90001434680,66,2022-02-12_16h38.10.188,lexical_decision_task_DD_L5,2021.2.3,MacIntel,12.00048002,,,,,,,,,,,0.7321,1,,,,,,,,,,,,,,z,1,0.7321,,,,,,,,0.23257909,-0.280827513,0,0,0,,0,49,49,132,1,SCIFF,C,old,z,./images/SCIFF.png,,,,,,,,,,,,,,,,,,,,,,,,,,,,,,,,,,,
,,,,,,,,,,,,,,,,,58578946c41fd90001434680,66,2022-02-12_16h38.10.188,lexical_decision_task_DD_L5,2021.2.3,MacIntel,12.00048002,,,,,,,,,,,0.8336,1,,,,,,,,,,,,,,m,1,0.8336,,,,,,,,0.23257909,-0.280827513,0,0,0,,0,50,50,70,1,BANANA,LB,old,m,./images/BANANALB.png,,,,,,,,,,,,,,,,,,,,,,,,,,,,,,,,,,,
,,,,,,,,,,,,,,,,,58578946c41fd90001434680,66,2022-02-12_16h38.10.188,lexical_decision_task_DD_L5,2021.2.3,MacIntel,12.00048002,,,,,,,,,,,1.487,0,,,,,,,,,,,,,,z,0,1.487,,,,,,,,0.23257909,-0.280827513,0,0,0,,0,51,51,36,1,BOILER,HB,old,m,./images/BOILERHB.png,,,,,,,,,,,,,,,,,,,,,,,,,,,,,,,,,,,
,,,,,,,,,,,,,,,,,58578946c41fd90001434680,66,2022-02-12_16h38.10.188,lexical_decision_task_DD_L5,2021.2.3,MacIntel,12.00048002,,,,,,,,,,,1.6002,1,,,,,,,,,,,,,,z,1,1.6002,,,,,,,,0.23257909,-0.280827513,0,0,0,,0,52,52,148,1,JOMS,HB,old,z,./images/JOMSHB.png,,,,,,,,,,,,,,,,,,,,,,,,,,,,,,,,,,,
,,,,,,,,,,,,,,,,,58578946c41fd90001434680,66,2022-02-12_16h38.10.188,lexical_decision_task_DD_L5,2021.2.3,MacIntel,12.00048002,,,,,,,,,,,0.8576,1,,,,,,,,,,,,,,z,1,0.8576,,,,,,,,0.23257909,-0.280827513,0,0,0,,0,53,53,147,1,ZOLES,C,old,z,./images/ZOLES.png,,,,,,,,,,,,,,,,,,,,,,,,,,,,,,,,,,,
,,,,,,,,,,,,,,,,,58578946c41fd90001434680,66,2022-02-12_16h38.10.188,lexical_decision_task_DD_L5,2021.2.3,MacIntel,12.00048002,,,,,,,,,,,0.8503,1,,,,,,,,,,,,,,z,1,0.8503,,,,,,,,0.23257909,-0.280827513,0,0,0,,0,54,54,117,1,STEEG,C,old,z,./images/STEEG.png,,,,,,,,,,,,,,,,,,,,,,,,,,,,,,,,,,,
,,,,,,,,,,,,,,,,,58578946c41fd90001434680,66,2022-02-12_16h38.10.188,lexical_decision_task_DD_L5,2021.2.3,MacIntel,12.00048002,,,,,,,,,,,1.1113,1,,,,,,,,,,,,,,m,1,1.1113,,,,,,,,0.23257909,-0.280827513,0,0,0,,0,55,55,57,1,FERRY,HB,old,m,./images/FERRYHB.png,,,,,,,,,,,,,,,,,,,,,,,,,,,,,,,,,,,
,,,,,,,,,,,,,,,,,58578946c41fd90001434680,66,2022-02-12_16h38.10.188,lexical_decision_task_DD_L5,2021.2.3,MacIntel,12.00048002,,,,,,,,,,,0.843,1,,,,,,,,,,,,,,z,1,0.843,,,,,,,,0.23257909,-0.280827513,0,0,0,,0,56,56,158,1,EGECT,LB,old,z,./images/EGECTLB.png,,,,,,,,,,,,,,,,,,,,,,,,,,,,,,,,,,,
,,,,,,,,,,,,,,,,,58578946c41fd90001434680,66,2022-02-12_16h38.10.188,lexical_decision_task_DD_L5,2021.2.3,MacIntel,12.00048002,,,,,,,,,,,0.8325,1,,,,,,,,,,,,,,z,1,0.8325,,,,,,,,0.23257909,-0.280827513,0,0,0,,0,57,57,87,1,TRING,C,old,z,./images/TRING.png,,,,,,,,,,,,,,,,,,,,,,,,,,,,,,,,,,,
,,,,,,,,,,,,,,,,,58578946c41fd90001434680,66,2022-02-12_16h38.10.188,lexical_decision_task_DD_L5,2021.2.3,MacIntel,12.00048002,,,,,,,,,,,0.7337,1,,,,,,,,,,,,,,m,1,0.7337,,,,,,,,0.23257909,-0.280827513,0,0,0,,0,58,58,38,1,ENGINE,C,old,m,./images/ENGINE.png,,,,,,,,,,,,,,,,,,,,,,,,,,,,,,,,,,,
,,,,,,,,,,,,,,,,,58578946c41fd90001434680,66,2022-02-12_16h38.10.188,lexical_decision_task_DD_L5,2021.2.3,MacIntel,12.00048002,,,,,,,,,,,1.0949,1,,,,,,,,,,,,,,z,1,1.0949,,,,,,,,0.23257909,-0.280827513,0,0,0,,0,59,59,153,1,CLUPS,C,old,z,./images/CLUPS.png,,,,,,,,,,,,,,,,,,,,,,,,,,,,,,,,,,,
,,,,,,,,,,,,,,,,,58578946c41fd90001434680,66,2022-02-12_16h38.10.188,lexical_decision_task_DD_L5,2021.2.3,MacIntel,12.00048002,,,,,,,,,,,0.8413,1,,,,,,,,,,,,,,z,1,0.8413,,,,,,,,0.23257909,-0.280827513,0,0,0,,0,60,60,165,1,TROWN,C,old,z,./images/TROWN.png,,,,,,,,,,,,,,,,,,,,,,,,,,,,,,,,,,,
,,,,,,,,,,,,,,,,,58578946c41fd90001434680,66,2022-02-12_16h38.10.188,lexical_decision_task_DD_L5,2021.2.3,MacIntel,12.00048002,,,,,,,,,,,1.1628,1,,,,,,,,,,,,,,z,1,1.1628,,,,,,,,0.23257909,-0.280827513,0,0,0,,0,61,61,130,1,CRILL,HB,old,z,./images/CRILLHB.png,,,,,,,,,,,,,,,,,,,,,,,,,,,,,,,,,,,
,,,,,,,,,,,,,,,,,58578946c41fd90001434680,66,2022-02-12_16h38.10.188,lexical_decision_task_DD_L5,2021.2.3,MacIntel,12.00048002,,,,,,,,,,,0.746,1,,,,,,,,,,,,,,m,1,0.746,,,,,,,,0.23257909,-0.280827513,0,0,0,,0,62,62,22,1,CLOWN,LB,old,m,./images/CLOWNLB.png,,,,,,,,,,,,,,,,,,,,,,,,,,,,,,,,,,,
,,,,,,,,,,,,,,,,,58578946c41fd90001434680,66,2022-02-12_16h38.10.188,lexical_decision_task_DD_L5,2021.2.3,MacIntel,12.00048002,,,,,,,,,,,0.8354,1,,,,,,,,,,,,,,z,1,0.8354,,,,,,,,0.23257909,-0.280827513,0,0,0,,0,63,63,98,1,BAMPS,LB,old,z,./images/BAMPSLB.png,,,,,,,,,,,,,,,,,,,,,,,,,,,,,,,,,,,
,,,,,,,,,,,,,,,,,58578946c41fd90001434680,66,2022-02-12_16h38.10.188,lexical_decision_task_DD_L5,2021.2.3,MacIntel,12.00048002,,,,,,,,,,,0.8508,1,,,,,,,,,,,,,,m,1,0.8508,,,,,,,,0.23257909,-0.280827513,0,0,0,,0,64,64,74,1,JUMPER,C,old,m,./images/JUMPER.png,,,,,,,,,,,,,,,,,,,,,,,,,,,,,,,,,,,
,,,,,,,,,,,,,,,,,58578946c41fd90001434680,66,2022-02-12_16h38.10.188,lexical_decision_task_DD_L5,2021.2.3,MacIntel,12.00048002,,,,,,,,,,,0.8401,1,,,,,,,,,,,,,,m,1,0.8401,,,,,,,,0.23257909,-0.280827513,0,0,0,,0,65,65,25,1,CHALK,LB,old,m,./images/CHALKLB.png,,,,,,,,,,,,,,,,,,,,,,,,,,,,,,,,,,,
,,,,,,,,,,,,,,,,,58578946c41fd90001434680,66,2022-02-12_16h38.10.188,lexical_decision_task_DD_L5,2021.2.3,MacIntel,12.00048002,,,,,,,,,,,0.858,1,,,,,,,,,,,,,,z,1,0.858,,,,,,,,0.23257909,-0.280827513,0,0,0,,0,66,66,138,1,PLICE,C,old,z,./images/PLICE.png,,,,,,,,,,,,,,,,,,,,,,,,,,,,,,,,,,,
,,,,,,,,,,,,,,,,,58578946c41fd90001434680,66,2022-02-12_16h38.10.188,lexical_decision_task_DD_L5,2021.2.3,MacIntel,12.00048002,,,,,,,,,,,0.8489,1,,,,,,,,,,,,,,m,1,0.8489,,,,,,,,0.23257909,-0.280827513,0,0,0,,0,67,67,82,1,PEBBLE,LB,old,m,./images/PEBBLELB.png,,,,,,,,,,,,,,,,,,,,,,,,,,,,,,,,,,,
,,,,,,,,,,,,,,,,,58578946c41fd90001434680,66,2022-02-12_16h38.10.188,lexical_decision_task_DD_L5,2021.2.3,MacIntel,12.00048002,,,,,,,,,,,1.4184,1,,,,,,,,,,,,,,z,1,1.4184,,,,,,,,0.23257909,-0.280827513,0,0,0,,0,68,68,85,1,CHULK,HB,old,z,./images/CHULKHB.png,,,,,,,,,,,,,,,,,,,,,,,,,,,,,,,,,,,
,,,,,,,,,,,,,,,,,58578946c41fd90001434680,66,2022-02-12_16h38.10.188,lexical_decision_task_DD_L5,2021.2.3,MacIntel,12.00048002,,,,,,,,,,,0.7432,1,,,,,,,,,,,,,,m,1,0.7432,,,,,,,,0.23257909,-0.280827513,0,0,0,,0,69,69,56,1,HEATER,C,old,m,./images/HEATER.png,,,,,,,,,,,,,,,,,,,,,,,,,,,,,,,,,,,
,,,,,,,,,,,,,,,,,58578946c41fd90001434680,66,2022-02-12_16h38.10.188,lexical_decision_task_DD_L5,2021.2.3,MacIntel,12.00048002,,,,,,,,,,,0.8601,1,,,,,,,,,,,,,,z,1,0.8601,,,,,,,,0.232323149,-0.281893661,0,0,0,,0,70,70,167,1,ZONET,LB,old,z,./images/ZONETLB.png,,,,,,,,,,,,,,,,,,,,,,,,,,,,,,,,,,,
,,,,,,,,,,,,,,,,,58578946c41fd90001434680,66,2022-02-12_16h38.10.188,lexical_decision_task_DD_L5,2021.2.3,MacIntel,12.00048002,,,,,,,,,,,0.7305,1,,,,,,,,,,,,,,z,1,0.7305,,,,,,,,0.232323149,-0.281893661,0,0,0,,0,71,71,134,1,TROSS,LB,old,z,./images/TROSSLB.png,,,,,,,,,,,,,,,,,,,,,,,,,,,,,,,,,,,
,,,,,,,,,,,,,,,,,58578946c41fd90001434680,66,2022-02-12_16h38.10.188,lexical_decision_task_DD_L5,2021.2.3,MacIntel,12.00048002,,,,,,,,,,,0.9901,1,,,,,,,,,,,,,,m,1,0.9901,,,,,,,,0.232323149,-0.281893661,0,0,0,,0,72,72,65,1,SPINE,C,old,m,./images/SPINE.png,,,,,,,,,,,,,,,,,,,,,,,,,,,,,,,,,,,
,,,,,,,,,,,,,,,,,58578946c41fd90001434680,66,2022-02-12_16h38.10.188,lexical_decision_task_DD_L5,2021.2.3,MacIntel,12.00048002,,,,,,,,,,,0.8541,1,,,,,,,,,,,,,,m,1,0.8541,,,,,,,,0.232323149,-0.281893661,0,0,0,,0,73,73,59,1,BRUSH,C,old,m,./images/BRUSH.png,,,,,,,,,,,,,,,,,,,,,,,,,,,,,,,,,,,
,,,,,,,,,,,,,,,,,58578946c41fd90001434680,66,2022-02-12_16h38.10.188,lexical_decision_task_DD_L5,2021.2.3,MacIntel,12.00048002,,,,,,,,,,,0.7548,1,,,,,,,,,,,,,,z,1,0.7548,,,,,,,,0.232579158,-0.281893661,0,0,0,,0,74,74,123,1,SEDGE,C,old,z,./images/SEDGE.png,,,,,,,,,,,,,,,,,,,,,,,,,,,,,,,,,,,
,,,,,,,,,,,,,,,,,58578946c41fd90001434680,66,2022-02-12_16h38.10.188,lexical_decision_task_DD_L5,2021.2.3,MacIntel,12.00048002,,,,,,,,,,,0.959,1,,,,,,,,,,,,,,m,1,0.959,,,,,,,,0.232579158,-0.281893661,0,0,0,,0,75,75,68,1,VALLEY,C,old,m,./images/VALLEY.png,,,,,,,,,,,,,,,,,,,,,,,,,,,,,,,,,,,
,,,,,,,,,,,,,,,,,58578946c41fd90001434680,66,2022-02-12_16h38.10.188,lexical_decision_task_DD_L5,2021.2.3,MacIntel,12.00048002,,,,,,,,,,,1.0784,1,,,,,,,,,,,,,,z,1,1.0784,,,,,,,,0.232579158,-0.281893661,0,0,0,,0,76,76,133,1,POWDY,HB,old,z,./images/POWDYHB.png,,,,,,,,,,,,,,,,,,,,,,,,,,,,,,,,,,,
,,,,,,,,,,,,,,,,,58578946c41fd90001434680,66,2022-02-12_16h38.10.188,lexical_decision_task_DD_L5,2021.2.3,MacIntel,12.00048002,,,,,,,,,,,0.7333,1,,,,,,,,,,,,,,m,1,0.7333,,,,,,,,0.232579158,-0.281893661,0,0,0,,0,77,77,14,1,FENCE,C,old,m,./images/FENCE.png,,,,,,,,,,,,,,,,,,,,,,,,,,,,,,,,,,,
,,,,,,,,,,,,,,,,,58578946c41fd90001434680,66,2022-02-12_16h38.10.188,lexical_decision_task_DD_L5,2021.2.3,MacIntel,12.00048002,,,,,,,,,,,0.7487,1,,,,,,,,,,,,,,z,1,0.7487,,,,,,,,0.232579158,-0.281637653,0,0,0,,0,78,78,111,1,HOSSE,C,old,z,./images/HOSSE.png,,,,,,,,,,,,,,,,,,,,,,,,,,,,,,,,,,,
,,,,,,,,,,,,,,,,,58578946c41fd90001434680,66,2022-02-12_16h38.10.188,lexical_decision_task_DD_L5,2021.2.3,MacIntel,12.00048002,,,,,,,,,,,0.8865,1,,,,,,,,,,,,,,z,1,0.8865,,,,,,,,0.232579836,-0.281123737,0,0,0,,0,79,79,102,1,DULLE,C,old,z,./images/DULLE.png,,,,,,,,,,,,,,,,,,,,,,,,,,,,,,,,,,,
,,,,,,,,,,,,,,,,,58578946c41fd90001434680,66,2022-02-12_16h38.10.188,lexical_decision_task_DD_L5,2021.2.3,MacIntel,12.00048002,,,,,,,,,,,1.2163,1,,,,,,,,,,,,,,z,1,1.2163,,,,,,,,0.231810454,-0.280352049,0,0,0,,0,80,80,157,1,INLER,HB,old,z,./images/INLERHB.png,,,,,,,,,,,,,,,,,,,,,,,,,,,,,,,,,,,
,,,,,,,,,,,,,,,,,58578946c41fd90001434680,66,2022-02-12_16h38.10.188,lexical_decision_task_DD_L5,2021.2.3,MacIntel,12.00048002,,,,,,,,,,,0.8407,0,,,,,,,,,,,,,,m,0,0.8407,,,,,,,,0.231810454,-0.280352049,0,0,0,,0,81,81,140,1,DOVET,LB,old,z,./images/DOVETLB.png,,,,,,,,,,,,,,,,,,,,,,,,,,,,,,,,,,,
,,,,,,,,,,,,,,,,,58578946c41fd90001434680,66,2022-02-12_16h38.10.188,lexical_decision_task_DD_L5,2021.2.3,MacIntel,12.00048002,,,,,,,,,,,1.4969,1,,,,,,,,,,,,,,z,1,1.4969,,,,,,,,0.231285687,-0.280095905,0,0,0,,0,82,82,156,1,HIXES,C,old,z,./images/HIXES.png,,,,,,,,,,,,,,,,,,,,,,,,,,,,,,,,,,,
,,,,,,,,,,,,,,,,,58578946c41fd90001434680,66,2022-02-12_16h38.10.188,lexical_decision_task_DD_L5,2021.2.3,MacIntel,12.00048002,,,,,,,,,,,0.8587,1,,,,,,,,,,,,,,m,1,0.8587,,,,,,,,0.231811878,-0.279326319,0,0,0,space,0,83,83,17,1,PARADE,C,old,m,./images/PARADE.png,15.5732,,,,,,,,,,,,,,,,,,,,,,,,,,,,,,,,,,
,,,,,,,,,,,,,,,,,58578946c41fd90001434680,66,2022-02-12_16h38.10.188,lexical_decision_task_DD_L5,2021.2.3,MacIntel,12.00048002,,,,,,,,,,,0.8283,1,,,,,,,,,,,,,,z,1,0.8283,,,,,,,,0.231811878,-0.279326319,0,0,0,,0,84,84,161,1,BLAPS,LB,old,z,./images/BLAPSLB.png,,,,,,,,,,,,,,,,,,,,,,,,,,,,,,,,,,,
,,,,,,,,,,,,,,,,,58578946c41fd90001434680,66,2022-02-12_16h38.10.188,lexical_decision_task_DD_L5,2021.2.3,MacIntel,12.00048002,,,,,,,,,,,0.8526,1,,,,,,,,,,,,,,m,1,0.8526,,,,,,,,0.231811878,-0.279326319,0,0,0,,0,85,85,35,1,LLAMA,C,old,m,./images/LLAMA.png,,,,,,,,,,,,,,,,,,,,,,,,,,,,,,,,,,,
,,,,,,,,,,,,,,,,,58578946c41fd90001434680,66,2022-02-12_16h38.10.188,lexical_decision_task_DD_L5,2021.2.3,MacIntel,12.00048002,,,,,,,,,,,0.8342,1,,,,,,,,,,,,,,m,1,0.8342,,,,,,,,0.231811878,-0.279326319,0,0,0,,0,86,86,28,1,CASINO,LB,old,m,./images/CASINOLB.png,,,,,,,,,,,,,,,,,,,,,,,,,,,,,,,,,,,
,,,,,,,,,,,,,,,,,58578946c41fd90001434680,66,2022-02-12_16h38.10.188,lexical_decision_task_DD_L5,2021.2.3,MacIntel,12.00048002,,,,,,,,,,,0.731,1,,,,,,,,,,,,,,m,1,0.731,,,,,,,,0.231811878,-0.279326319,0,0,0,,0,87,87,61,1,ARTIST,LB,old,m,./images/ARTISTLB.png,,,,,,,,,,,,,,,,,,,,,,,,,,,,,,,,,,,
,,,,,,,,,,,,,,,,,58578946c41fd90001434680,66,2022-02-12_16h38.10.188,lexical_decision_task_DD_L5,2021.2.3,MacIntel,12.00048002,,,,,,,,,,,1.8265,0,,,,,,,,,,,,,,z,0,1.8265,,,,,,,,0.231811878,-0.279326319,0,0,0,,0,88,88,45,1,MONKEY,HB,old,m,./images/MONKEYHB.png,,,,,,,,,,,,,,,,,,,,,,,,,,,,,,,,,,,
,,,,,,,,,,,,,,,,,58578946c41fd90001434680,66,2022-02-12_16h38.10.188,lexical_decision_task_DD_L5,2021.2.3,MacIntel,12.00048002,,,,,,,,,,,0.7569,0,,,,,,,,,,,,,,m,0,0.7569,,,,,,,,0.231811878,-0.279326319,0,0,0,,0,89,89,164,1,SGREW,LB,old,z,./images/SGREWLB.png,,,,,,,,,,,,,,,,,,,,,,,,,,,,,,,,,,,
,,,,,,,,,,,,,,,,,58578946c41fd90001434680,66,2022-02-12_16h38.10.188,lexical_decision_task_DD_L5,2021.2.3,MacIntel,12.00048002,,,,,,,,,,,0.8332,0,,,,,,,,,,,,,,m,0,0.8332,,,,,,,,0.231811878,-0.279326319,0,0,0,,0,90,90,128,1,GRIFT,LB,old,z,./images/GRIFTLB.png,,,,,,,,,,,,,,,,,,,,,,,,,,,,,,,,,,,
,,,,,,,,,,,,,,,,,58578946c41fd90001434680,66,2022-02-12_16h38.10.188,lexical_decision_task_DD_L5,2021.2.3,MacIntel,12.00048002,,,,,,,,,,,0.7501,1,,,,,,,,,,,,,,z,1,0.7501,,,,,,,,0.231811878,-0.279326319,0,0,0,,0,91,91,90,1,NEAST,C,old,z,./images/NEAST.png,,,,,,,,,,,,,,,,,,,,,,,,,,,,,,,,,,,
,,,,,,,,,,,,,,,,,58578946c41fd90001434680,66,2022-02-12_16h38.10.188,lexical_decision_task_DD_L5,2021.2.3,MacIntel,12.00048002,,,,,,,,,,,1.2653,1,,,,,,,,,,,,,,m,1,1.2653,,,,,,,,0.231811878,-0.279326319,0,0,0,,0,92,92,24,1,FLESH,HB,old,m,./images/FLESHHB.png,,,,,,,,,,,,,,,,,,,,,,,,,,,,,,,,,,,
,,,,,,,,,,,,,,,,,58578946c41fd90001434680,66,2022-02-12_16h38.10.188,lexical_decision_task_DD_L5,2021.2.3,MacIntel,12.00048002,,,,,,,,,,,1.2672,1,,,,,,,,,,,,,,z,1,1.2672,,,,,,,,0.231811878,-0.279326319,0,0,0,,0,93,93,108,1,GRUET,C,old,z,./images/GRUET.png,,,,,,,,,,,,,,,,,,,,,,,,,,,,,,,,,,,
,,,,,,,,,,,,,,,,,58578946c41fd90001434680,66,2022-02-12_16h38.10.188,lexical_decision_task_DD_L5,2021.2.3,MacIntel,12.00048002,,,,,,,,,,,1.2822,1,,,,,,,,,,,,,,z,1,1.2822,,,,,,,,0.231811878,-0.279326319,0,0,0,,0,94,94,115,1,MAWNS,HB,old,z,./images/MAWNSHB.png,,,,,,,,,,,,,,,,,,,,,,,,,,,,,,,,,,,
,,,,,,,,,,,,,,,,,58578946c41fd90001434680,66,2022-02-12_16h38.10.188,lexical_decision_task_DD_L5,2021.2.3,MacIntel,12.00048002,,,,,,,,,,,1.5967,1,,,,,,,,,,,,,,m,1,1.5967,,,,,,,,0.231811878,-0.279326319,0,0,0,,0,95,95,12,1,BLOKE,HB,old,m,./images/BLOKEHB.png,,,,,,,,,,,,,,,,,,,,,,,,,,,,,,,,,,,
,,,,,,,,,,,,,,,,,58578946c41fd90001434680,66,2022-02-12_16h38.10.188,lexical_decision_task_DD_L5,2021.2.3,MacIntel,12.00048002,,,,,,,,,,,1.7152,1,,,,,,,,,,,,,,z,1,1.7152,,,,,,,,0.231811878,-0.279326319,0,0,0,,0,96,96,112,1,MYING,HB,old,z,./images/MYINGHB.png,,,,,,,,,,,,,,,,,,,,,,,,,,,,,,,,,,,
,,,,,,,,,,,,,,,,,58578946c41fd90001434680,66,2022-02-12_16h38.10.188,lexical_decision_task_DD_L5,2021.2.3,MacIntel,12.00048002,,,,,,,,,,,1.0485,1,,,,,,,,,,,,,,z,1,1.0485,,,,,,,,0.231811878,-0.279326319,0,0,0,,0,97,97,104,1,GITTY,LB,old,z,./images/GITTYLB.png,,,,,,,,,,,,,,,,,,,,,,,,,,,,,,,,,,,
,,,,,,,,,,,,,,,,,58578946c41fd90001434680,66,2022-02-12_16h38.10.188,lexical_decision_task_DD_L5,2021.2.3,MacIntel,12.00048002,,,,,,,,,,,0.9451,1,,,,,,,,,,,,,,z,1,0.9451,,,,,,,,0.231811878,-0.279326319,0,0,0,,0,98,98,110,1,CRUNK,LB,old,z,./images/CRUNKLB.png,,,,,,,,,,,,,,,,,,,,,,,,,,,,,,,,,,,
,,,,,,,,,,,,,,,,,58578946c41fd90001434680,66,2022-02-12_16h38.10.188,lexical_decision_task_DD_L5,2021.2.3,MacIntel,12.00048002,,,,,,,,,,,0.8372,1,,,,,,,,,,,,,,z,1,0.8372,,,,,,,,0.231811878,-0.279326319,0,0,0,,0,99,99,155,1,CANGY,LB,old,z,./images/CANGYLB.png,,,,,,,,,,,,,,,,,,,,,,,,,,,,,,,,,,,
,,,,,,,,,,,,,,,,,58578946c41fd90001434680,66,2022-02-12_16h38.10.188,lexical_decision_task_DD_L5,2021.2.3,MacIntel,12.00048002,,,,,,,,,,,0.9538,1,,,,,,,,,,,,,,m,1,0.9538,,,,,,,,0.231811878,-0.279326319,0,0,0,,0,100,100,43,1,STOOL,LB,old,m,./images/STOOLLB.png,,,,,,,,,,,,,,,,,,,,,,,,,,,,,,,,,,,
,,,,,,,,,,,,,,,,,58578946c41fd90001434680,66,2022-02-12_16h38.10.188,lexical_decision_task_DD_L5,2021.2.3,MacIntel,12.00048002,,,,,,,,,,,1.0752,1,,,,,,,,,,,,,,m,1,1.0752,,,,,,,,0.231811878,-0.279326319,0,0,0,,0,101,101,66,1,STATUE,HB,old,m,./images/STATUEHB.png,,,,,,,,,,,,,,,,,,,,,,,,,,,,,,,,,,,
,,,,,,,,,,,,,,,,,58578946c41fd90001434680,66,2022-02-12_16h38.10.188,lexical_decision_task_DD_L5,2021.2.3,MacIntel,12.00048002,,,,,,,,,,,0.8309,1,,,,,,,,,,,,,,z,1,0.8309,,,,,,,,0.231811878,-0.279326319,0,0,0,,0,102,102,101,1,GLEET,LB,old,z,./images/GLEETLB.png,,,,,,,,,,,,,,,,,,,,,,,,,,,,,,,,,,,
,,,,,,,,,,,,,,,,,58578946c41fd90001434680,66,2022-02-12_16h38.10.188,lexical_decision_task_DD_L5,2021.2.3,MacIntel,12.00048002,,,,,,,,,,,0.753,1,,,,,,,,,,,,,,m,1,0.753,,,,,,,,0.231811878,-0.279326319,0,0,0,,0,103,103,32,1,HOCKEY,C,old,m,./images/HOCKEY.png,,,,,,,,,,,,,,,,,,,,,,,,,,,,,,,,,,,
,,,,,,,,,,,,,,,,,58578946c41fd90001434680,66,2022-02-12_16h38.10.188,lexical_decision_task_DD_L5,2021.2.3,MacIntel,12.00048002,,,,,,,,,,,1.4784,1,,,,,,,,,,,,,,m,1,1.4784,,,,,,,,0.231811878,-0.279326319,0,0,0,,0,104,104,52,1,DESERT,LB,old,m,./images/DESERTLB.png,,,,,,,,,,,,,,,,,,,,,,,,,,,,,,,,,,,
,,,,,,,,,,,,,,,,,58578946c41fd90001434680,66,2022-02-12_16h38.10.188,lexical_decision_task_DD_L5,2021.2.3,MacIntel,12.00048002,,,,,,,,,,,1.2668,1,,,,,,,,,,,,,,z,1,1.2668,,,,,,,,0.231811878,-0.279326319,0,0,0,,0,105,105,137,1,JOOST,LB,old,z,./images/JOOSTLB.png,,,,,,,,,,,,,,,,,,,,,,,,,,,,,,,,,,,
,,,,,,,,,,,,,,,,,58578946c41fd90001434680,66,2022-02-12_16h38.10.188,lexical_decision_task_DD_L5,2021.2.3,MacIntel,12.00048002,,,,,,,,,,,1.4885,1,,,,,,,,,,,,,,z,1,1.4885,,,,,,,,0.231811878,-0.279326319,0,0,0,,0,106,106,166,1,SHORY,HB,old,z,./images/SHORYHB.png,,,,,,,,,,,,,,,,,,,,,,,,,,,,,,,,,,,
,,,,,,,,,,,,,,,,,58578946c41fd90001434680,66,2022-02-12_16h38.10.188,lexical_decision_task_DD_L5,2021.2.3,MacIntel,12.00048002,,,,,,,,,,,0.7309,1,,,,,,,,,,,,,,m,1,0.7309,,,,,,,,0.231811878,-0.279326319,0,0,0,,0,107,107,4,1,BOXER,LB,old,m,./images/BOXERLB.png,,,,,,,,,,,,,,,,,,,,,,,,,,,,,,,,,,,
,,,,,,,,,,,,,,,,,58578946c41fd90001434680,66,2022-02-12_16h38.10.188,lexical_decision_task_DD_L5,2021.2.3,MacIntel,12.00048002,,,,,,,,,,,1.2861,1,,,,,,,,,,,,,,z,1,1.2861,,,,,,,,0.231811878,-0.279326319,0,0,0,,0,108,108,154,1,THINT,HB,old,z,./images/THINTHB.png,,,,,,,,,,,,,,,,,,,,,,,,,,,,,,,,,,,
,,,,,,,,,,,,,,,,,58578946c41fd90001434680,66,2022-02-12_16h38.10.188,lexical_decision_task_DD_L5,2021.2.3,MacIntel,12.00048002,,,,,,,,,,,0.8311,1,,,,,,,,,,,,,,m,1,0.8311,,,,,,,,0.231811878,-0.279326319,0,0,0,,0,109,109,34,1,RAZOR,LB,old,m,./images/RAZORLB.png,,,,,,,,,,,,,,,,,,,,,,,,,,,,,,,,,,,
,,,,,,,,,,,,,,,,,58578946c41fd90001434680,66,2022-02-12_16h38.10.188,lexical_decision_task_DD_L5,2021.2.3,MacIntel,12.00048002,,,,,,,,,,,0.9673,1,,,,,,,,,,,,,,m,1,0.9673,,,,,,,,0.231811878,-0.279326319,0,0,0,,0,110,110,23,1,CLOTH,C,old,m,./images/CLOTH.png,,,,,,,,,,,,,,,,,,,,,,,,,,,,,,,,,,,
,,,,,,,,,,,,,,,,,58578946c41fd90001434680,66,2022-02-12_16h38.10.188,lexical_decision_task_DD_L5,2021.2.3,MacIntel,12.00048002,,,,,,,,,,,1.5933,1,,,,,,,,,,,,,,z,1,1.5933,,,,,,,,0.231811878,-0.279326319,0,0,0,,0,111,111,94,1,BLANS,HB,old,z,./images/BLANSHB.png,,,,,,,,,,,,,,,,,,,,,,,,,,,,,,,,,,,
,,,,,,,,,,,,,,,,,58578946c41fd90001434680,66,2022-02-12_16h38.10.188,lexical_decision_task_DD_L5,2021.2.3,MacIntel,12.00048002,,,,,,,,,,,1.1645,1,,,,,,,,,,,,,,z,1,1.1645,,,,,,,,0.231811878,-0.279326319,0,0,0,,0,112,112,121,1,CEERS,HB,old,z,./images/CEERSHB.png,,,,,,,,,,,,,,,,,,,,,,,,,,,,,,,,,,,
,,,,,,,,,,,,,,,,,58578946c41fd90001434680,66,2022-02-12_16h38.10.188,lexical_decision_task_DD_L5,2021.2.3,MacIntel,12.00048002,,,,,,,,,,,0.8391,1,,,,,,,,,,,,,,z,1,0.8391,,,,,,,,0.231811878,-0.279326319,0,0,0,,0,113,113,114,1,RIKES,C,old,z,./images/RIKES.png,,,,,,,,,,,,,,,,,,,,,,,,,,,,,,,,,,,
,,,,,,,,,,,,,,,,,58578946c41fd90001434680,66,2022-02-12_16h38.10.188,lexical_decision_task_DD_L5,2021.2.3,MacIntel,12.00048002,,,,,,,,,,,0.9445,1,,,,,,,,,,,,,,z,1,0.9445,,,,,,,,0.231811878,-0.279326319,0,0,0,,0,114,114,105,1,MOKER,C,old,z,./images/MOKER.png,,,,,,,,,,,,,,,,,,,,,,,,,,,,,,,,,,,
,,,,,,,,,,,,,,,,,58578946c41fd90001434680,66,2022-02-12_16h38.10.188,lexical_decision_task_DD_L5,2021.2.3,MacIntel,12.00048002,,,,,,,,,,,1.0764,1,,,,,,,,,,,,,,m,1,1.0764,,,,,,,,0.231811878,-0.279326319,0,0,0,,0,115,115,0,1,WALNUT,HB,old,m,./images/WALNUTHB.png,,,,,,,,,,,,,,,,,,,,,,,,,,,,,,,,,,,
,,,,,,,,,,,,,,,,,58578946c41fd90001434680,66,2022-02-12_16h38.10.188,lexical_decision_task_DD_L5,2021.2.3,MacIntel,12.00048002,,,,,,,,,,,0.7297,0,,,,,,,,,,,,,,z,0,0.7297,,,,,,,,0.231811878,-0.279326319,0,0,0,,0,116,116,37,1,TIGER,LB,old,m,./images/TIGERLB.png,,,,,,,,,,,,,,,,,,,,,,,,,,,,,,,,,,,
,,,,,,,,,,,,,,,,,58578946c41fd90001434680,66,2022-02-12_16h38.10.188,lexical_decision_task_DD_L5,2021.2.3,MacIntel,12.00048002,,,,,,,,,,,0.7573,1,,,,,,,,,,,,,,z,1,0.7573,,,,,,,,0.231811878,-0.279326319,0,0,0,,0,117,117,84,1,HAXES,C,old,z,./images/HAXES.png,,,,,,,,,,,,,,,,,,,,,,,,,,,,,,,,,,,
,,,,,,,,,,,,,,,,,58578946c41fd90001434680,66,2022-02-12_16h38.10.188,lexical_decision_task_DD_L5,2021.2.3,MacIntel,12.00048002,,,,,,,,,,,0.8344,1,,,,,,,,,,,,,,m,1,0.8344,,,,,,,,0.231811878,-0.279326319,0,0,0,,0,118,118,39,1,CANDY,HB,old,m,./images/CANDYHB.png,,,,,,,,,,,,,,,,,,,,,,,,,,,,,,,,,,,
,,,,,,,,,,,,,,,,,58578946c41fd90001434680,66,2022-02-12_16h38.10.188,lexical_decision_task_DD_L5,2021.2.3,MacIntel,12.00048002,,,,,,,,,,,1.1937,1,,,,,,,,,,,,,,z,1,1.1937,,,,,,,,0.231811878,-0.279326319,0,0,0,,0,119,119,118,1,BAVEL,HB,old,z,./images/BAVELHB.png,,,,,,,,,,,,,,,,,,,,,,,,,,,,,,,,,,,
,,,,,,,,,,,,,,,,,58578946c41fd90001434680,66,2022-02-12_16h38.10.188,lexical_decision_task_DD_L5,2021.2.3,MacIntel,12.00048002,,,,,,,,,,,0.7244,1,,,,,,,,,,,,,,m,1,0.7244,,,,,,,,0.231811878,-0.279326319,0,0,0,,0,120,120,77,1,WHEEL,C,old,m,./images/WHEEL.png,,,,,,,,,,,,,,,,,,,,,,,,,,,,,,,,,,,
,,,,,,,,,,,,,,,,,58578946c41fd90001434680,66,2022-02-12_16h38.10.188,lexical_decision_task_DD_L5,2021.2.3,MacIntel,12.00048002,,,,,,,,,,,0.8855,1,,,,,,,,,,,,,,m,1,0.8855,,,,,,,,0.231811878,-0.279326319,0,0,0,,0,121,121,31,1,STEAK,LB,old,m,./images/STEAKLB.png,,,,,,,,,,,,,,,,,,,,,,,,,,,,,,,,,,,
,,,,,,,,,,,,,,,,,58578946c41fd90001434680,66,2022-02-12_16h38.10.188,lexical_decision_task_DD_L5,2021.2.3,MacIntel,12.00048002,,,,,,,,,,,0.7312,1,,,,,,,,,,,,,,m,1,0.7312,,,,,,,,0.231811878,-0.279326319,0,0,0,,0,122,122,80,1,PLANET,C,old,m,./images/PLANET.png,,,,,,,,,,,,,,,,,,,,,,,,,,,,,,,,,,,
,,,,,,,,,,,,,,,,,58578946c41fd90001434680,66,2022-02-12_16h38.10.188,lexical_decision_task_DD_L5,2021.2.3,MacIntel,12.00048002,,,,,,,,,,,0.7443,1,,,,,,,,,,,,,,m,1,0.7443,,,,,,,,0.231811878,-0.279326319,0,0,0,,0,123,123,55,1,ALLEY,LB,old,m,./images/ALLEYLB.png,,,,,,,,,,,,,,,,,,,,,,,,,,,,,,,,,,,
,,,,,,,,,,,,,,,,,58578946c41fd90001434680,66,2022-02-12_16h38.10.188,lexical_decision_task_DD_L5,2021.2.3,MacIntel,12.00048002,,,,,,,,,,,1.2716,1,,,,,,,,,,,,,,m,1,1.2716,,,,,,,,0.231811878,-0.279326319,0,0,0,,0,124,124,51,1,SAUCE,HB,old,m,./images/SAUCEHB.png,,,,,,,,,,,,,,,,,,,,,,,,,,,,,,,,,,,
,,,,,,,,,,,,,,,,,58578946c41fd90001434680,66,2022-02-12_16h38.10.188,lexical_decision_task_DD_L5,2021.2.3,MacIntel,12.00048002,,,,,,,,,,,1.0525,1,,,,,,,,,,,,,,z,1,1.0525,,,,,,,,0.231811878,-0.279326319,0,0,0,space,0,125,125,125,1,MOOKY,LB,old,z,./images/MOOKYLB.png,14.6482,,,,,,,,,,,,,,,,,,,,,,,,,,,,,,,,,,
,,,,,,,,,,,,,,,,,58578946c41fd90001434680,66,2022-02-12_16h38.10.188,lexical_decision_task_DD_L5,2021.2.3,MacIntel,12.00048002,,,,,,,,,,,0.8487,1,,,,,,,,,,,,,,m,1,0.8487,,,,,,,,0.231811878,-0.279326319,0,0,0,,0,126,126,72,1,FLASK,HB,old,m,./images/FLASKHB.png,,,,,,,,,,,,,,,,,,,,,,,,,,,,,,,,,,,
,,,,,,,,,,,,,,,,,58578946c41fd90001434680,66,2022-02-12_16h38.10.188,lexical_decision_task_DD_L5,2021.2.3,MacIntel,12.00048002,,,,,,,,,,,0.7386,1,,,,,,,,,,,,,,m,1,0.7386,,,,,,,,0.231811878,-0.279326319,0,0,0,,0,127,127,46,1,MUMMY,LB,old,m,./images/MUMMYLB.png,,,,,,,,,,,,,,,,,,,,,,,,,,,,,,,,,,,
,,,,,,,,,,,,,,,,,58578946c41fd90001434680,66,2022-02-12_16h38.10.188,lexical_decision_task_DD_L5,2021.2.3,MacIntel,12.00048002,,,,,,,,,,,0.7316,1,,,,,,,,,,,,,,z,1,0.7316,,,,,,,,0.231811878,-0.279326319,0,0,0,,0,128,128,144,1,NAIRY,C,old,z,./images/NAIRY.png,,,,,,,,,,,,,,,,,,,,,,,,,,,,,,,,,,,
,,,,,,,,,,,,,,,,,58578946c41fd90001434680,66,2022-02-12_16h38.10.188,lexical_decision_task_DD_L5,2021.2.3,MacIntel,12.00048002,,,,,,,,,,,0.7337,1,,,,,,,,,,,,,,m,1,0.7337,,,,,,,,0.231811878,-0.279326319,0,0,0,,0,129,129,10,1,GARDEN,LB,old,m,./images/GARDENLB.png,,,,,,,,,,,,,,,,,,,,,,,,,,,,,,,,,,,
,,,,,,,,,,,,,,,,,58578946c41fd90001434680,66,2022-02-12_16h38.10.188,lexical_decision_task_DD_L5,2021.2.3,MacIntel,12.00048002,,,,,,,,,,,0.8401,1,,,,,,,,,,,,,,m,1,0.8401,,,,,,,,0.231811878,-0.279326319,0,0,0,,0,130,130,49,1,BISHOP,LB,old,m,./images/BISHOPLB.png,,,,,,,,,,,,,,,,,,,,,,,,,,,,,,,,,,,
,,,,,,,,,,,,,,,,,58578946c41fd90001434680,66,2022-02-12_16h38.10.188,lexical_decision_task_DD_L5,2021.2.3,MacIntel,12.00048002,,,,,,,,,,,1.2871,1,,,,,,,,,,,,,,m,1,1.2871,,,,,,,,0.231811878,-0.279326319,0,0,0,,0,131,131,81,1,DRILL,HB,old,m,./images/DRILLHB.png,,,,,,,,,,,,,,,,,,,,,,,,,,,,,,,,,,,
,,,,,,,,,,,,,,,,,58578946c41fd90001434680,66,2022-02-12_16h38.10.188,lexical_decision_task_DD_L5,2021.2.3,MacIntel,12.00048002,,,,,,,,,,,1.0515,1,,,,,,,,,,,,,,m,1,1.0515,,,,,,,,0.231811878,-0.279326319,0,0,0,,0,132,132,15,1,COLLAR,HB,old,m,./images/COLLARHB.png,,,,,,,,,,,,,,,,,,,,,,,,,,,,,,,,,,,
,,,,,,,,,,,,,,,,,58578946c41fd90001434680,66,2022-02-12_16h38.10.188,lexical_decision_task_DD_L5,2021.2.3,MacIntel,12.00048002,,,,,,,,,,,0.8917,1,,,,,,,,,,,,,,z,1,0.8917,,,,,,,,0.231811878,-0.279326319,0,0,0,,0,133,133,95,1,HANTY,LB,old,z,./images/HANTYLB.png,,,,,,,,,,,,,,,,,,,,,,,,,,,,,,,,,,,
,,,,,,,,,,,,,,,,,58578946c41fd90001434680,66,2022-02-12_16h38.10.188,lexical_decision_task_DD_L5,2021.2.3,MacIntel,12.00048002,,,,,,,,,,,0.9454,1,,,,,,,,,,,,,,m,1,0.9454,,,,,,,,0.231811878,-0.279326319,0,0,0,,0,134,134,58,1,CANOE,LB,old,m,./images/CANOELB.png,,,,,,,,,,,,,,,,,,,,,,,,,,,,,,,,,,,
,,,,,,,,,,,,,,,,,58578946c41fd90001434680,66,2022-02-12_16h38.10.188,lexical_decision_task_DD_L5,2021.2.3,MacIntel,12.00048002,,,,,,,,,,,1.0574,1,,,,,,,,,,,,,,z,1,1.0574,,,,,,,,0.231811878,-0.279326319,0,0,0,,0,135,135,129,1,PRANS,C,old,z,./images/PRANS.png,,,,,,,,,,,,,,,,,,,,,,,,,,,,,,,,,,,
,,,,,,,,,,,,,,,,,58578946c41fd90001434680,66,2022-02-12_16h38.10.188,lexical_decision_task_DD_L5,2021.2.3,MacIntel,12.00048002,,,,,,,,,,,1.2732,1,,,,,,,,,,,,,,z,1,1.2732,,,,,,,,0.231811878,-0.279326319,0,0,0,,0,136,136,160,1,VEETS,HB,old,z,./images/VEETSHB.png,,,,,,,,,,,,,,,,,,,,,,,,,,,,,,,,,,,
,,,,,,,,,,,,,,,,,58578946c41fd90001434680,66,2022-02-12_16h38.10.188,lexical_decision_task_DD_L5,2021.2.3,MacIntel,12.00048002,,,,,,,,,,,1.1596,1,,,,,,,,,,,,,,z,1,1.1596,,,,,,,,0.231811878,-0.279326319,0,0,0,,0,137,137,124,1,TUNCH,HB,old,z,./images/TUNCHHB.png,,,,,,,,,,,,,,,,,,,,,,,,,,,,,,,,,,,
,,,,,,,,,,,,,,,,,58578946c41fd90001434680,66,2022-02-12_16h38.10.188,lexical_decision_task_DD_L5,2021.2.3,MacIntel,12.00048002,,,,,,,,,,,0.7401,1,,,,,,,,,,,,,,m,1,0.7401,,,,,,,,0.231811878,-0.279326319,0,0,0,,0,138,138,79,1,RULER,LB,old,m,./images/RULERLB.png,,,,,,,,,,,,,,,,,,,,,,,,,,,,,,,,,,,
,,,,,,,,,,,,,,,,,58578946c41fd90001434680,66,2022-02-12_16h38.10.188,lexical_decision_task_DD_L5,2021.2.3,MacIntel,12.00048002,,,,,,,,,,,0.8418,1,,,,,,,,,,,,,,z,1,0.8418,,,,,,,,0.231811878,-0.279326319,0,0,0,,0,139,139,99,1,BACKY,C,old,z,./images/BACKY.png,,,,,,,,,,,,,,,,,,,,,,,,,,,,,,,,,,,
,,,,,,,,,,,,,,,,,58578946c41fd90001434680,66,2022-02-12_16h38.10.188,lexical_decision_task_DD_L5,2021.2.3,MacIntel,12.00048002,,,,,,,,,,,0.739,1,,,,,,,,,,,,,,m,1,0.739,,,,,,,,0.231811878,-0.279326319,0,0,0,,0,140,140,5,1,BAMBOO,C,old,m,./images/BAMBOO.png,,,,,,,,,,,,,,,,,,,,,,,,,,,,,,,,,,,
,,,,,,,,,,,,,,,,,58578946c41fd90001434680,66,2022-02-12_16h38.10.188,lexical_decision_task_DD_L5,2021.2.3,MacIntel,12.00048002,,,,,,,,,,,0.8311,1,,,,,,,,,,,,,,z,1,0.8311,,,,,,,,0.231811878,-0.279326319,0,0,0,,0,141,141,122,1,BLOOT,LB,old,z,./images/BLOOTLB.png,,,,,,,,,,,,,,,,,,,,,,,,,,,,,,,,,,,
,,,,,,,,,,,,,,,,,58578946c41fd90001434680,66,2022-02-12_16h38.10.188,lexical_decision_task_DD_L5,2021.2.3,MacIntel,12.00048002,,,,,,,,,,,0.7523,1,,,,,,,,,,,,,,m,1,0.7523,,,,,,,,0.231811878,-0.279326319,0,0,0,,0,142,142,29,1,PISTOL,C,old,m,./images/PISTOL.png,,,,,,,,,,,,,,,,,,,,,,,,,,,,,,,,,,,
,,,,,,,,,,,,,,,,,58578946c41fd90001434680,66,2022-02-12_16h38.10.188,lexical_decision_task_DD_L5,2021.2.3,MacIntel,12.00048002,,,,,,,,,,,1.4803,1,,,,,,,,,,,,,,z,1,1.4803,,,,,,,,0.231811878,-0.279326319,0,0,0,,0,143,143,88,1,GLUSH,HB,old,z,./images/GLUSHHB.png,,,,,,,,,,,,,,,,,,,,,,,,,,,,,,,,,,,
,,,,,,,,,,,,,,,,,58578946c41fd90001434680,66,2022-02-12_16h38.10.188,lexical_decision_task_DD_L5,2021.2.3,MacIntel,12.00048002,,,,,,,,,,,1.5001,1,,,,,,,,,,,,,,z,1,1.5001,,,,,,,,0.231811878,-0.279326319,0,0,0,,0,144,144,139,1,BLEAR,HB,old,z,./images/BLEARHB.png,,,,,,,,,,,,,,,,,,,,,,,,,,,,,,,,,,,
,,,,,,,,,,,,,,,,,58578946c41fd90001434680,66,2022-02-12_16h38.10.188,lexical_decision_task_DD_L5,2021.2.3,MacIntel,12.00048002,,,,,,,,,,,1.0758,1,,,,,,,,,,,,,,z,1,1.0758,,,,,,,,0.231811878,-0.279326319,0,0,0,,0,145,145,113,1,LINEW,LB,old,z,./images/LINEWLB.png,,,,,,,,,,,,,,,,,,,,,,,,,,,,,,,,,,,
,,,,,,,,,,,,,,,,,58578946c41fd90001434680,66,2022-02-12_16h38.10.188,lexical_decision_task_DD_L5,2021.2.3,MacIntel,12.00048002,,,,,,,,,,,1.2967,1,,,,,,,,,,,,,,z,1,1.2967,,,,,,,,0.231811878,-0.279326319,0,0,0,,0,146,146,91,1,SHENS,HB,old,z,./images/SHENSHB.png,,,,,,,,,,,,,,,,,,,,,,,,,,,,,,,,,,,
,,,,,,,,,,,,,,,,,58578946c41fd90001434680,66,2022-02-12_16h38.10.188,lexical_decision_task_DD_L5,2021.2.3,MacIntel,12.00048002,,,,,,,,,,,0.8459,1,,,,,,,,,,,,,,z,1,0.8459,,,,,,,,0.231811878,-0.279326319,0,0,0,,0,147,147,135,1,JOODY,C,old,z,./images/JOODY.png,,,,,,,,,,,,,,,,,,,,,,,,,,,,,,,,,,,
,,,,,,,,,,,,,,,,,58578946c41fd90001434680,66,2022-02-12_16h38.10.188,lexical_decision_task_DD_L5,2021.2.3,MacIntel,12.00048002,,,,,,,,,,,1.0478,1,,,,,,,,,,,,,,z,1,1.0478,,,,,,,,0.231811878,-0.279326319,0,0,0,,0,148,148,93,1,SMONE,C,old,z,./images/SMONE.png,,,,,,,,,,,,,,,,,,,,,,,,,,,,,,,,,,,
,,,,,,,,,,,,,,,,,58578946c41fd90001434680,66,2022-02-12_16h38.10.188,lexical_decision_task_DD_L5,2021.2.3,MacIntel,12.00048002,,,,,,,,,,,0.7325,1,,,,,,,,,,,,,,z,1,0.7325,,,,,,,,0.231811878,-0.279326319,0,0,0,,0,149,149,116,1,BALGY,LB,old,z,./images/BALGYLB.png,,,,,,,,,,,,,,,,,,,,,,,,,,,,,,,,,,,
,,,,,,,,,,,,,,,,,58578946c41fd90001434680,66,2022-02-12_16h38.10.188,lexical_decision_task_DD_L5,2021.2.3,MacIntel,12.00048002,,,,,,,,,,,0.9508,0,,,,,,,,,,,,,,z,0,0.9508,,,,,,,,0.231811878,-0.279326319,0,0,0,,0,150,150,9,1,DIVER,HB,old,m,./images/DIVERHB.png,,,,,,,,,,,,,,,,,,,,,,,,,,,,,,,,,,,
,,,,,,,,,,,,,,,,,58578946c41fd90001434680,66,2022-02-12_16h38.10.188,lexical_decision_task_DD_L5,2021.2.3,MacIntel,12.00048002,,,,,,,,,,,0.8475,1,,,,,,,,,,,,,,m,1,0.8475,,,,,,,,0.231811878,-0.279326319,0,0,0,,0,151,151,53,1,POSTER,C,old,m,./images/POSTER.png,,,,,,,,,,,,,,,,,,,,,,,,,,,,,,,,,,,
,,,,,,,,,,,,,,,,,58578946c41fd90001434680,66,2022-02-12_16h38.10.188,lexical_decision_task_DD_L5,2021.2.3,MacIntel,12.00048002,,,,,,,,,,,0.8441,1,,,,,,,,,,,,,,m,1,0.8441,,,,,,,,0.231811878,-0.279326319,0,0,0,,0,152,152,44,1,BASKET,C,old,m,./images/BASKET.png,,,,,,,,,,,,,,,,,,,,,,,,,,,,,,,,,,,
,,,,,,,,,,,,,,,,,58578946c41fd90001434680,66,2022-02-12_16h38.10.188,lexical_decision_task_DD_L5,2021.2.3,MacIntel,12.00048002,,,,,,,,,,,1.3752,1,,,,,,,,,,,,,,m,1,1.3752,,,,,,,,0.231811878,-0.279326319,0,0,0,,0,153,153,21,1,DANCER,HB,old,m,./images/DANCERHB.png,,,,,,,,,,,,,,,,,,,,,,,,,,,,,,,,,,,
,,,,,,,,,,,,,,,,,58578946c41fd90001434680,66,2022-02-12_16h38.10.188,lexical_decision_task_DD_L5,2021.2.3,MacIntel,12.00048002,,,,,,,,,,,0.8335,1,,,,,,,,,,,,,,z,1,0.8335,,,,,,,,0.231811878,-0.279326319,0,0,0,,0,154,154,152,1,FRAIN,LB,old,z,./images/FRAINLB.png,,,,,,,,,,,,,,,,,,,,,,,,,,,,,,,,,,,
,,,,,,,,,,,,,,,,,58578946c41fd90001434680,66,2022-02-12_16h38.10.188,lexical_decision_task_DD_L5,2021.2.3,MacIntel,12.00048002,,,,,,,,,,,0.7518,1,,,,,,,,,,,,,,m,1,0.7518,,,,,,,,0.231811878,-0.279326319,0,0,0,,0,155,155,73,1,GLOVE,LB,old,m,./images/GLOVELB.png,,,,,,,,,,,,,,,,,,,,,,,,,,,,,,,,,,,
,,,,,,,,,,,,,,,,,58578946c41fd90001434680,66,2022-02-12_16h38.10.188,lexical_decision_task_DD_L5,2021.2.3,MacIntel,12.00048002,,,,,,,,,,,0.7678,1,,,,,,,,,,,,,,z,1,0.7678,,,,,,,,0.231811878,-0.279326319,0,0,0,,0,156,156,126,1,GUELS,C,old,z,./images/GUELS.png,,,,,,,,,,,,,,,,,,,,,,,,,,,,,,,,,,,
,,,,,,,,,,,,,,,,,58578946c41fd90001434680,66,2022-02-12_16h38.10.188,lexical_decision_task_DD_L5,2021.2.3,MacIntel,12.00048002,,,,,,,,,,,1.0017,1,,,,,,,,,,,,,,z,1,1.0017,,,,,,,,0.231811878,-0.279326319,0,0,0,,0,157,157,136,1,WERVE,HB,old,z,./images/WERVEHB.png,,,,,,,,,,,,,,,,,,,,,,,,,,,,,,,,,,,
,,,,,,,,,,,,,,,,,58578946c41fd90001434680,66,2022-02-12_16h38.10.188,lexical_decision_task_DD_L5,2021.2.3,MacIntel,12.00048002,,,,,,,,,,,0.8349,1,,,,,,,,,,,,,,z,1,0.8349,,,,,,,,0.231811878,-0.279326319,0,0,0,,0,158,158,89,1,DRIEK,LB,old,z,./images/DRIEKLB.png,,,,,,,,,,,,,,,,,,,,,,,,,,,,,,,,,,,
,,,,,,,,,,,,,,,,,58578946c41fd90001434680,66,2022-02-12_16h38.10.188,lexical_decision_task_DD_L5,2021.2.3,MacIntel,12.00048002,,,,,,,,,,,0.7549,1,,,,,,,,,,,,,,m,1,0.7549,,,,,,,,0.231811878,-0.279326319,0,0,0,,0,159,159,8,1,CLIFF,C,old,m,./images/CLIFF.png,,,,,,,,,,,,,,,,,,,,,,,,,,,,,,,,,,,
,,,,,,,,,,,,,,,,,58578946c41fd90001434680,66,2022-02-12_16h38.10.188,lexical_decision_task_DD_L5,2021.2.3,MacIntel,12.00048002,,,,,,,,,,,1.4845,1,,,,,,,,,,,,,,m,1,1.4845,,,,,,,,0.231811878,-0.279326319,0,0,0,,0,160,160,54,1,CHERRY,HB,old,m,./images/CHERRYHB.png,,,,,,,,,,,,,,,,,,,,,,,,,,,,,,,,,,,
,,,,,,,,,,,,,,,,,58578946c41fd90001434680,66,2022-02-12_16h38.10.188,lexical_decision_task_DD_L5,2021.2.3,MacIntel,12.00048002,,,,,,,,,,,0.8284,1,,,,,,,,,,,,,,z,1,0.8284,,,,,,,,0.231811878,-0.279326319,0,0,0,,0,161,161,141,1,PLEET,C,old,z,./images/PLEET.png,,,,,,,,,,,,,,,,,,,,,,,,,,,,,,,,,,,
,,,,,,,,,,,,,,,,,58578946c41fd90001434680,66,2022-02-12_16h38.10.188,lexical_decision_task_DD_L5,2021.2.3,MacIntel,12.00048002,,,,,,,,,,,0.8807,1,,,,,,,,,,,,,,z,1,0.8807,,,,,,,,0.231811878,-0.279326319,0,0,0,,0,162,162,159,1,CUDDY,C,old,z,./images/CUDDY.png,,,,,,,,,,,,,,,,,,,,,,,,,,,,,,,,,,,
,,,,,,,,,,,,,,,,,58578946c41fd90001434680,66,2022-02-12_16h38.10.188,lexical_decision_task_DD_L5,2021.2.3,MacIntel,12.00048002,,,,,,,,,,,0.757,1,,,,,,,,,,,,,,z,1,0.757,,,,,,,,0.231811878,-0.279326319,0,0,0,,0,163,163,86,1,AIFED,LB,old,z,./images/AIFEDLB.png,,,,,,,,,,,,,,,,,,,,,,,,,,,,,,,,,,,
,,,,,,,,,,,,,,,,,58578946c41fd90001434680,66,2022-02-12_16h38.10.188,lexical_decision_task_DD_L5,2021.2.3,MacIntel,12.00048002,,,,,,,,,,,1.162,1,,,,,,,,,,,,,,z,1,1.162,,,,,,,,0.231811878,-0.279326319,0,0,0,,0,164,164,106,1,CLUMS,HB,old,z,./images/CLUMSHB.png,,,,,,,,,,,,,,,,,,,,,,,,,,,,,,,,,,,
,,,,,,,,,,,,,,,,,58578946c41fd90001434680,66,2022-02-12_16h38.10.188,lexical_decision_task_DD_L5,2021.2.3,MacIntel,12.00048002,,,,,,,,,,,2.0217,1,,,,,,,,,,,,,,z,1,2.0217,,,,,,,,0.231811878,-0.279326319,0,0,0,,0,165,165,127,1,NINDY,HB,old,z,./images/NINDYHB.png,,,,,,,,,,,,,,,,,,,,,,,,,,,,,,,,,,,
,,,,,,,,,,,,,,,,,58578946c41fd90001434680,66,2022-02-12_16h38.10.188,lexical_decision_task_DD_L5,2021.2.3,MacIntel,12.00048002,,,,,,,,,,,1.2806,1,,,,,,,,,,,,,,z,1,1.2806,,,,,,,,0.231811878,-0.279326319,0,0,0,,0,166,166,146,1,MOOST,LB,old,z,./images/MOOSTLB.png,,,,,,,,,,,,,,,,,,,,,,,,,,,,,,,,,,,
,,,,,,,,,,,,,,,,,58578946c41fd90001434680,66,2022-02-12_16h38.10.188,lexical_decision_task_DD_L5,2021.2.3,MacIntel,12.00048002,,,,,,,,,,,0.9419,1,,,,,,,,,,,,,,z,1,0.9419,,,,,,,,0.231811878,-0.279326319,0,0,0,,0,167,167,131,1,NACES,LB,old,z,./images/NACESLB.png,,,,,,,,,,,,,,,,,,,,,,,,,,,,,,,,,,,
,,,,,,,,,,,,,,,,,58578946c41fd90001434680,66,2022-02-12_16h38.10.188,lexical_decision_task_DD_L5,2021.2.3,MacIntel,12.00048002,,,,,,,,,,,,,,,,,,,,,,,,,,,,,,,,,,,,,,,,,,,,,,,,How likely will it be that you will recognize the words presented clearly on a scale of 0 (not likely) to 100 (most likely)?,,,,,0.012629135,-0.413151666,1,0,0,jol_adv,5,12.1666,0,0,0,0,1,,,,,,,,,,,,,,,,,,,,,
,,,,,,,,,,,,,,,,,58578946c41fd90001434680,66,2022-02-12_16h38.10.188,lexical_decision_task_DD_L5,2021.2.3,MacIntel,12.00048002,,,,,,,,,,,,,,,,,,,,,,,,,,,,,,,,,,,,,,,,,,,,,,,,How likely will it be that you will recognize the words presented slighly blurred on a scale of 0 (not likely) to 100 (most likely)?,,,,,,,,,,,5,5.7779,0,1,1,1,1,,,,,,,,,,,,,,,,,,,,,
,,,,,,,,,,,,,,,,,58578946c41fd90001434680,66,2022-02-12_16h38.10.188,lexical_decision_task_DD_L5,2021.2.3,MacIntel,12.00048002,,,,,,,,,,,,,,,,,,,,,,,,,,,,,,,,,,,,,,,,,,,,,,,,How likely will it be that you will recognize the words presented very blurred on a scale of 0 (not likely) to 100 (most likely)?,,,,,,,,,,,3,8.1652,0,2,2,2,1,,,,,,,,,,,,,,,,,,,,,
space,15.6243,-0.157550039,-0.202719466,0,0,0,,,,,,1,test,"In the next phase you will be presented with the words from the the first phase. Your job is to decide whether you remember seeing the word or not. If you remember seeing the word press ""old"" or type ""m"". If you do not remember seeing the word press ""new"" or type ""z"". Please press the space bar or click on continue to begin. ",,,58578946c41fd90001434680,66,2022-02-12_16h38.10.188,lexical_decision_task_DD_L5,2021.2.3,MacIntel,12.00048002,,,,,,,,,,,,,,,,,,,,,,,,,,,,,,,,,,,,,,,,,,,,,,,,,,,,,,,,,,,,,,,,,,0,0,0,0,1,,,,,,,,,,,,,,,,
,,-0.05716728,-0.368381496,1,0,0,,,,,,1,test,"In the next phase you will be presented with the words from the the first phase. Your job is to decide whether you remember seeing the word or not. If you remember seeing the word press ""old"" or type ""m"". If you do not remember seeing the word press ""new"" or type ""z"". Please press the space bar or click on continue to begin. ",,,58578946c41fd90001434680,66,2022-02-12_16h38.10.188,lexical_decision_task_DD_L5,2021.2.3,MacIntel,12.00048002,,,,,,,,,,,,,,,,,,,,,,,,,,,,,,,,,,,,,,,,,,,,,,,,,,,,,,,,,,,,,,,,,,1,0,1,0,1,instr_done_button,,,,,,,,,,,,,,,
space,1.07,-0.057025407,-0.368265801,0,0,0,,,,,,1,test,"In the next phase you will be presented with the words from the the first phase. Your job is to decide whether you remember seeing the word or not. If you remember seeing the word press ""old"" or type ""m"". If you do not remember seeing the word press ""new"" or type ""z"". Please press the space bar or click on continue to begin. ",,,58578946c41fd90001434680,66,2022-02-12_16h38.10.188,lexical_decision_task_DD_L5,2021.2.3,MacIntel,12.00048002,,,,,,,,,,,,,,,,,,,,,,,,,,,,,,,,,,,,,,,,,,,,,,,,,,,,,,,,,,,,,,,,,,2,0,2,0,1,,,,,,,,,,,,,,,,
,,-0.033910511,-0.389332967,1,0,0,,,,,,1,test,"In the next phase you will be presented with the words from the the first phase. Your job is to decide whether you remember seeing the word or not. If you remember seeing the word press ""old"" or type ""m"". If you do not remember seeing the word press ""new"" or type ""z"". Please press the space bar or click on continue to begin. ",,,58578946c41fd90001434680,66,2022-02-12_16h38.10.188,lexical_decision_task_DD_L5,2021.2.3,MacIntel,12.00048002,,,,,,,,,,,,,,,,,,,,,,,,,,,,,,,,,,,,,,,,,,,,,,,,,,,,,,,,,,,,,,,,,,3,0,3,0,1,instr_done_button,,,,,,,,,,,,,,,
space,2.1333,-0.033910511,-0.389332967,0,0,0,,,,,,1,test,"In the next phase you will be presented with the words from the the first phase. Your job is to decide whether you remember seeing the word or not. If you remember seeing the word press ""old"" or type ""m"". If you do not remember seeing the word press ""new"" or type ""z"". Please press the space bar or click on continue to begin. ",,,58578946c41fd90001434680,66,2022-02-12_16h38.10.188,lexical_decision_task_DD_L5,2021.2.3,MacIntel,12.00048002,,,,,,,,,,,,,,,,,,,,,,,,,,,,,,,,,,,,,,,,,,,,,,,,,,,,,,,,,,,,,,,,,,4,0,4,0,1,,,,,,,,,,,,,,,,
,,,,,,,,,,,,,,,,,58578946c41fd90001434680,66,2022-02-12_16h38.10.188,lexical_decision_task_DD_L5,2021.2.3,MacIntel,12.00048002,,,,,,,,,,,0.4804,1,,,,,,,,,,,,,,,,,,,,,,,,-0.033910511,-0.389332967,0,0,0,,,,,,,STOVE,C,m,y,./images/STOVE.png,,,,,,,,,,,,,,,,,,,,,m,1,0.4804,,,,,,,,0,0,0,2,1
,,,,,,,,,,,,,,,,,58578946c41fd90001434680,66,2022-02-12_16h38.10.188,lexical_decision_task_DD_L5,2021.2.3,MacIntel,12.00048002,,,,,,,,,,,1.027,1,,,,,,,,,,,,,,,,,,,,,,,,-0.031789132,-0.38288467,0,0,0,,,,,,,STOOL,LB,m,y,./images/STOOLLB.png,,,,,,,,,,,,,,,,,,,,,m,1,1.027,,,,,,,,0,1,1,43,1
,,,,,,,,,,,,,,,,,58578946c41fd90001434680,66,2022-02-12_16h38.10.188,lexical_decision_task_DD_L5,2021.2.3,MacIntel,12.00048002,,,,,,,,,,,1.0898,1,,,,,,,,,,,,,,,,,,,,,,,,-0.031789132,-0.38288467,0,0,0,,,,,,,LIZARD,C,z,y,./images/LIZARD.png,,,,,,,,,,,,,,,,,,,,,z,1,1.0898,,,,,,,,0,2,2,128,1
,,,,,,,,,,,,,,,,,58578946c41fd90001434680,66,2022-02-12_16h38.10.188,lexical_decision_task_DD_L5,2021.2.3,MacIntel,12.00048002,,,,,,,,,,,3.6763,0,,,,,,,,,,,,,,,,,,,,,,,,-0.031789132,-0.38288467,0,0,0,,,,,,,QUILL,LB,z,y,./images/QUILLLB.png,,,,,,,,,,,,,,,,,,,,,m,0,3.6763,,,,,,,,0,3,3,115,1
,,,,,,,,,,,,,,,,,58578946c41fd90001434680,66,2022-02-12_16h38.10.188,lexical_decision_task_DD_L5,2021.2.3,MacIntel,12.00048002,,,,,,,,,,,2.5689,0,,,,,,,,,,,,,,,,,,,,,,,,-0.031586089,-0.383402791,0,0,0,,,,,,,MOOSE,HB,z,y,./images/MOOSEHB.png,,,,,,,,,,,,,,,,,,,,,m,0,2.5689,,,,,,,,0,4,4,141,1
,,,,,,,,,,,,,,,,,58578946c41fd90001434680,66,2022-02-12_16h38.10.188,lexical_decision_task_DD_L5,2021.2.3,MacIntel,12.00048002,,,,,,,,,,,1.4915,1,,,,,,,,,,,,,,,,,,,,,,,,-0.031586089,-0.383402791,0,0,0,,,,,,,CLOTH,C,m,y,./images/CLOTH.png,,,,,,,,,,,,,,,,,,,,,m,1,1.4915,,,,,,,,0,5,5,23,1
,,,,,,,,,,,,,,,,,58578946c41fd90001434680,66,2022-02-12_16h38.10.188,lexical_decision_task_DD_L5,2021.2.3,MacIntel,12.00048002,,,,,,,,,,,1.1068,1,,,,,,,,,,,,,,,,,,,,,,,,-0.031586089,-0.383402791,0,0,0,,,,,,,TULIP,C,z,y,./images/TULIP.png,,,,,,,,,,,,,,,,,,,,,z,1,1.1068,,,,,,,,0,6,6,92,1
,,,,,,,,,,,,,,,,,58578946c41fd90001434680,66,2022-02-12_16h38.10.188,lexical_decision_task_DD_L5,2021.2.3,MacIntel,12.00048002,,,,,,,,,,,2.2255,1,,,,,,,,,,,,,,,,,,,,,,,,-0.031586089,-0.383402791,0,0,0,,,,,,,ENGINE,C,m,y,./images/ENGINE.png,,,,,,,,,,,,,,,,,,,,,m,1,2.2255,,,,,,,,0,7,7,38,1
,,,,,,,,,,,,,,,,,58578946c41fd90001434680,66,2022-02-12_16h38.10.188,lexical_decision_task_DD_L5,2021.2.3,MacIntel,12.00048002,,,,,,,,,,,1.0733,1,,,,,,,,,,,,,,,,,,,,,,,,-0.031586089,-0.383402791,0,0,0,,,,,,,JAGUAR,HB,z,y,./images/JAGUARHB.png,,,,,,,,,,,,,,,,,,,,,z,1,1.0733,,,,,,,,0,8,8,102,1
,,,,,,,,,,,,,,,,,58578946c41fd90001434680,66,2022-02-12_16h38.10.188,lexical_decision_task_DD_L5,2021.2.3,MacIntel,12.00048002,,,,,,,,,,,0.9068,1,,,,,,,,,,,,,,,,,,,,,,,,-0.031586089,-0.383402791,0,0,0,,,,,,,DESERT,LB,m,y,./images/DESERTLB.png,,,,,,,,,,,,,,,,,,,,,m,1,0.9068,,,,,,,,0,9,9,52,1
,,,,,,,,,,,,,,,,,58578946c41fd90001434680,66,2022-02-12_16h38.10.188,lexical_decision_task_DD_L5,2021.2.3,MacIntel,12.00048002,,,,,,,,,,,1.0731,0,,,,,,,,,,,,,,,,,,,,,,,,-0.031586089,-0.383402791,0,0,0,,,,,,,DIVER,HB,m,y,./images/DIVERHB.png,,,,,,,,,,,,,,,,,,,,,z,0,1.0731,,,,,,,,0,10,10,9,1
,,,,,,,,,,,,,,,,,58578946c41fd90001434680,66,2022-02-12_16h38.10.188,lexical_decision_task_DD_L5,2021.2.3,MacIntel,12.00048002,,,,,,,,,,,0.9001,1,,,,,,,,,,,,,,,,,,,,,,,,-0.031586089,-0.383402791,0,0,0,,,,,,,RHINO,HB,z,y,./images/RHINOHB.png,,,,,,,,,,,,,,,,,,,,,z,1,0.9001,,,,,,,,0,11,11,93,1
,,,,,,,,,,,,,,,,,58578946c41fd90001434680,66,2022-02-12_16h38.10.188,lexical_decision_task_DD_L5,2021.2.3,MacIntel,12.00048002,,,,,,,,,,,1.1279,1,,,,,,,,,,,,,,,,,,,,,,,,-0.031586089,-0.383402791,0,0,0,,,,,,,SHIELD,HB,m,y,./images/SHIELDHB.png,,,,,,,,,,,,,,,,,,,,,m,1,1.1279,,,,,,,,0,12,12,48,1
,,,,,,,,,,,,,,,,,58578946c41fd90001434680,66,2022-02-12_16h38.10.188,lexical_decision_task_DD_L5,2021.2.3,MacIntel,12.00048002,,,,,,,,,,,0.7832,1,,,,,,,,,,,,,,,,,,,,,,,,-0.031586089,-0.383402791,0,0,0,,,,,,,VALLEY,C,m,y,./images/VALLEY.png,,,,,,,,,,,,,,,,,,,,,m,1,0.7832,,,,,,,,0,13,13,68,1
,,,,,,,,,,,,,,,,,58578946c41fd90001434680,66,2022-02-12_16h38.10.188,lexical_decision_task_DD_L5,2021.2.3,MacIntel,12.00048002,,,,,,,,,,,0.9732,1,,,,,,,,,,,,,,,,,,,,,,,,-0.031586089,-0.383402791,0,0,0,,,,,,,SPORT,HB,z,y,./images/SPORTHB.png,,,,,,,,,,,,,,,,,,,,,z,1,0.9732,,,,,,,,0,14,14,132,1
,,,,,,,,,,,,,,,,,58578946c41fd90001434680,66,2022-02-12_16h38.10.188,lexical_decision_task_DD_L5,2021.2.3,MacIntel,12.00048002,,,,,,,,,,,0.8704,1,,,,,,,,,,,,,,,,,,,,,,,,-0.031586089,-0.383402791,0,0,0,,,,,,,GRAPE,LB,m,y,./images/GRAPELB.png,,,,,,,,,,,,,,,,,,,,,m,1,0.8704,,,,,,,,0,15,15,16,1
,,,,,,,,,,,,,,,,,58578946c41fd90001434680,66,2022-02-12_16h38.10.188,lexical_decision_task_DD_L5,2021.2.3,MacIntel,12.00048002,,,,,,,,,,,0.7896,0,,,,,,,,,,,,,,,,,,,,,,,,-0.031586089,-0.383402791,0,0,0,,,,,,,CRUMB,C,z,y,./images/CRUMB.png,,,,,,,,,,,,,,,,,,,,,m,0,0.7896,,,,,,,,0,16,16,113,1
,,,,,,,,,,,,,,,,,58578946c41fd90001434680,66,2022-02-12_16h38.10.188,lexical_decision_task_DD_L5,2021.2.3,MacIntel,12.00048002,,,,,,,,,,,0.9816,1,,,,,,,,,,,,,,,,,,,,,,,,-0.031586089,-0.383402791,0,0,0,,,,,,,HOCKEY,C,m,y,./images/HOCKEY.png,,,,,,,,,,,,,,,,,,,,,m,1,0.9816,,,,,,,,0,17,17,32,1
,,,,,,,,,,,,,,,,,58578946c41fd90001434680,66,2022-02-12_16h38.10.188,lexical_decision_task_DD_L5,2021.2.3,MacIntel,12.00048002,,,,,,,,,,,0.9702,1,,,,,,,,,,,,,,,,,,,,,,,,-0.031586089,-0.383402791,0,0,0,,,,,,,COOKER,HB,z,y,./images/COOKERHB.png,,,,,,,,,,,,,,,,,,,,,z,1,0.9702,,,,,,,,0,18,18,153,1
,,,,,,,,,,,,,,,,,58578946c41fd90001434680,66,2022-02-12_16h38.10.188,lexical_decision_task_DD_L5,2021.2.3,MacIntel,12.00048002,,,,,,,,,,,1.0614,1,,,,,,,,,,,,,,,,,,,,,,,,-0.031586089,-0.383402791,0,0,0,,,,,,,MAMMAL,C,m,y,./images/MAMMAL.png,,,,,,,,,,,,,,,,,,,,,m,1,1.0614,,,,,,,,0,19,19,62,1
,,,,,,,,,,,,,,,,,58578946c41fd90001434680,66,2022-02-12_16h38.10.188,lexical_decision_task_DD_L5,2021.2.3,MacIntel,12.00048002,,,,,,,,,,,0.9807,1,,,,,,,,,,,,,,,,,,,,,,,,-0.031586089,-0.383402791,0,0,0,,,,,,,PARADE,C,m,y,./images/PARADE.png,,,,,,,,,,,,,,,,,,,,,m,1,0.9807,,,,,,,,0,20,20,17,1
,,,,,,,,,,,,,,,,,58578946c41fd90001434680,66,2022-02-12_16h38.10.188,lexical_decision_task_DD_L5,2021.2.3,MacIntel,12.00048002,,,,,,,,,,,0.8669,0,,,,,,,,,,,,,,,,,,,,,,,,-0.031586089,-0.383402791,0,0,0,,,,,,,BRIDE,LB,m,y,./images/BRIDELB.png,,,,,,,,,,,,,,,,,,,,,z,0,0.8669,,,,,,,,0,21,21,64,1
,,,,,,,,,,,,,,,,,58578946c41fd90001434680,66,2022-02-12_16h38.10.188,lexical_decision_task_DD_L5,2021.2.3,MacIntel,12.00048002,,,,,,,,,,,1.1868,0,,,,,,,,,,,,,,,,,,,,,,,,-0.031586089,-0.383402791,0,0,0,,,,,,,PLANET,C,m,y,./images/PLANET.png,,,,,,,,,,,,,,,,,,,,,z,0,1.1868,,,,,,,,0,22,22,80,1
,,,,,,,,,,,,,,,,,58578946c41fd90001434680,66,2022-02-12_16h38.10.188,lexical_decision_task_DD_L5,2021.2.3,MacIntel,12.00048002,,,,,,,,,,,1.0759,1,,,,,,,,,,,,,,,,,,,,,,,,-0.031586089,-0.383402791,0,0,0,,,,,,,POSTER,C,m,y,./images/POSTER.png,,,,,,,,,,,,,,,,,,,,,m,1,1.0759,,,,,,,,0,23,23,53,1
,,,,,,,,,,,,,,,,,58578946c41fd90001434680,66,2022-02-12_16h38.10.188,lexical_decision_task_DD_L5,2021.2.3,MacIntel,12.00048002,,,,,,,,,,,0.7655,1,,,,,,,,,,,,,,,,,,,,,,,,-0.031586089,-0.383402791,0,0,0,,,,,,,CHALK,LB,m,y,./images/CHALKLB.png,,,,,,,,,,,,,,,,,,,,,m,1,0.7655,,,,,,,,0,24,24,25,1
,,,,,,,,,,,,,,,,,58578946c41fd90001434680,66,2022-02-12_16h38.10.188,lexical_decision_task_DD_L5,2021.2.3,MacIntel,12.00048002,,,,,,,,,,,1.0759,0,,,,,,,,,,,,,,,,,,,,,,,,-0.031586089,-0.383402791,0,0,0,,,,,,,PEARL,LB,z,y,./images/PEARLLB.png,,,,,,,,,,,,,,,,,,,,,m,0,1.0759,,,,,,,,0,25,25,130,1
,,,,,,,,,,,,,,,,,58578946c41fd90001434680,66,2022-02-12_16h38.10.188,lexical_decision_task_DD_L5,2021.2.3,MacIntel,12.00048002,,,,,,,,,,,0.9076,1,,,,,,,,,,,,,,,,,,,,,,,,-0.031586089,-0.383402791,0,0,0,,,,,,,CEMENT,C,z,y,./images/CEMENT.png,,,,,,,,,,,,,,,,,,,,,z,1,0.9076,,,,,,,,0,26,26,158,1
,,,,,,,,,,,,,,,,,58578946c41fd90001434680,66,2022-02-12_16h38.10.188,lexical_decision_task_DD_L5,2021.2.3,MacIntel,12.00048002,,,,,,,,,,,1.6673,1,,,,,,,,,,,,,,,,,,,,,,,,-0.031586089,-0.383402791,0,0,0,,,,,,,CRATER,HB,m,y,./images/CRATERHB.png,,,,,,,,,,,,,,,,,,,,,m,1,1.6673,,,,,,,,0,27,27,3,1
,,,,,,,,,,,,,,,,,58578946c41fd90001434680,66,2022-02-12_16h38.10.188,lexical_decision_task_DD_L5,2021.2.3,MacIntel,12.00048002,,,,,,,,,,,0.9816,1,,,,,,,,,,,,,,,,,,,,,,,,-0.031586089,-0.383402791,0,0,0,,,,,,,DONKEY,LB,m,y,./images/DONKEYLB.png,,,,,,,,,,,,,,,,,,,,,m,1,0.9816,,,,,,,,0,28,28,19,1
,,,,,,,,,,,,,,,,,58578946c41fd90001434680,66,2022-02-12_16h38.10.188,lexical_decision_task_DD_L5,2021.2.3,MacIntel,12.00048002,,,,,,,,,,,1.6836,0,,,,,,,,,,,,,,,,,,,,,,,,-0.031586089,-0.383402791,0,0,0,,,,,,,CRUST,LB,z,y,./images/CRUSTLB.png,,,,,,,,,,,,,,,,,,,,,m,0,1.6836,,,,,,,,0,29,29,163,1
,,,,,,,,,,,,,,,,,58578946c41fd90001434680,66,2022-02-12_16h38.10.188,lexical_decision_task_DD_L5,2021.2.3,MacIntel,12.00048002,,,,,,,,,,,1.0708,1,,,,,,,,,,,,,,,,,,,,,,,,-0.031586089,-0.383402791,0,0,0,,,,,,,STEAK,LB,m,y,./images/STEAKLB.png,,,,,,,,,,,,,,,,,,,,,m,1,1.0708,,,,,,,,0,30,30,31,1
,,,,,,,,,,,,,,,,,58578946c41fd90001434680,66,2022-02-12_16h38.10.188,lexical_decision_task_DD_L5,2021.2.3,MacIntel,12.00048002,,,,,,,,,,,1.0671,1,,,,,,,,,,,,,,,,,,,,,,,,-0.031586089,-0.383402791,0,0,0,,,,,,,CHERRY,HB,m,y,./images/CHERRYHB.png,,,,,,,,,,,,,,,,,,,,,m,1,1.0671,,,,,,,,0,31,31,54,1
,,,,,,,,,,,,,,,,,58578946c41fd90001434680,66,2022-02-12_16h38.10.188,lexical_decision_task_DD_L5,2021.2.3,MacIntel,12.00048002,,,,,,,,,,,1.2922,1,,,,,,,,,,,,,,,,,,,,,,,,-0.031586089,-0.383402791,0,0,0,,,,,,,PAINT,LB,z,y,./images/PAINTLB.png,,,,,,,,,,,,,,,,,,,,,z,1,1.2922,,,,,,,,0,32,32,91,1
,,,,,,,,,,,,,,,,,58578946c41fd90001434680,66,2022-02-12_16h38.10.188,lexical_decision_task_DD_L5,2021.2.3,MacIntel,12.00048002,,,,,,,,,,,1.0544,1,,,,,,,,,,,,,,,,,,,,,,,,-0.031586089,-0.383402791,0,0,0,,,,,,,GRAIN,HB,z,y,./images/GRAINHB.png,,,,,,,,,,,,,,,,,,,,,z,1,1.0544,,,,,,,,0,33,33,159,1
,,,,,,,,,,,,,,,,,58578946c41fd90001434680,66,2022-02-12_16h38.10.188,lexical_decision_task_DD_L5,2021.2.3,MacIntel,12.00048002,,,,,,,,,,,1.0022,1,,,,,,,,,,,,,,,,,,,,,,,,-0.031586089,-0.383402791,0,0,0,,,,,,,FLESH,HB,m,y,./images/FLESHHB.png,,,,,,,,,,,,,,,,,,,,,m,1,1.0022,,,,,,,,0,34,34,24,1
,,,,,,,,,,,,,,,,,58578946c41fd90001434680,66,2022-02-12_16h38.10.188,lexical_decision_task_DD_L5,2021.2.3,MacIntel,12.00048002,,,,,,,,,,,2.3904,0,,,,,,,,,,,,,,,,,,,,,,,,-0.031586089,-0.383402791,0,0,0,,,,,,,BOXER,LB,m,y,./images/BOXERLB.png,,,,,,,,,,,,,,,,,,,,,z,0,2.3904,,,,,,,,0,35,35,4,1
,,,,,,,,,,,,,,,,,58578946c41fd90001434680,66,2022-02-12_16h38.10.188,lexical_decision_task_DD_L5,2021.2.3,MacIntel,12.00048002,,,,,,,,,,,0.8802,1,,,,,,,,,,,,,,,,,,,,,,,,-0.031586089,-0.383402791,0,0,0,,,,,,,THROAT,HB,z,y,./images/THROATHB.png,,,,,,,,,,,,,,,,,,,,,z,1,0.8802,,,,,,,,0,36,36,120,1
,,,,,,,,,,,,,,,,,58578946c41fd90001434680,66,2022-02-12_16h38.10.188,lexical_decision_task_DD_L5,2021.2.3,MacIntel,12.00048002,,,,,,,,,,,0.8923,1,,,,,,,,,,,,,,,,,,,,,,,,-0.031586089,-0.383402791,0,0,0,,,,,,,STATUE,HB,m,y,./images/STATUEHB.png,,,,,,,,,,,,,,,,,,,,,m,1,0.8923,,,,,,,,0,37,37,66,1
,,,,,,,,,,,,,,,,,58578946c41fd90001434680,66,2022-02-12_16h38.10.188,lexical_decision_task_DD_L5,2021.2.3,MacIntel,12.00048002,,,,,,,,,,,1.2695,0,,,,,,,,,,,,,,,,,,,,,,,,-0.031586089,-0.383402791,0,0,0,,,,,,,PISTOL,C,m,y,./images/PISTOL.png,,,,,,,,,,,,,,,,,,,,,z,0,1.2695,,,,,,,,0,38,38,29,1
,,,,,,,,,,,,,,,,,58578946c41fd90001434680,66,2022-02-12_16h38.10.188,lexical_decision_task_DD_L5,2021.2.3,MacIntel,12.00048002,,,,,,,,,,,0.8837,0,,,,,,,,,,,,,,,,,,,,,,,,-0.031586089,-0.383402791,0,0,0,,,,,,,CANDLE,LB,z,y,./images/CANDLELB.png,,,,,,,,,,,,,,,,,,,,,m,0,0.8837,,,,,,,,0,39,39,145,1
,,,,,,,,,,,,,,,,,58578946c41fd90001434680,66,2022-02-12_16h38.10.188,lexical_decision_task_DD_L5,2021.2.3,MacIntel,12.00048002,,,,,,,,,,,1.3701,1,,,,,,,,,,,,,,,,,,,,,,,,-0.031586089,-0.383402791,0,0,0,,,,,,,BIRTH,LB,z,y,./images/BIRTHLB.png,,,,,,,,,,,,,,,,,,,,,z,1,1.3701,,,,,,,,0,40,40,121,1
,,,,,,,,,,,,,,,,,58578946c41fd90001434680,66,2022-02-12_16h38.10.188,lexical_decision_task_DD_L5,2021.2.3,MacIntel,12.00048002,,,,,,,,,,,1.1663,1,,,,,,,,,,,,,,,,,,,,,,,,-0.031586089,-0.383402791,0,0,0,space,,,,,,SHELF,HB,z,y,./images/SHELFHB.png,13.7752,,,,,,,,,,,,,,,,,,,,z,1,1.1663,,,,,,,,0,41,41,123,1
,,,,,,,,,,,,,,,,,58578946c41fd90001434680,66,2022-02-12_16h38.10.188,lexical_decision_task_DD_L5,2021.2.3,MacIntel,12.00048002,,,,,,,,,,,1.1866,1,,,,,,,,,,,,,,,,,,,,,,,,-0.035457481,-0.414968954,0,0,0,,,,,,,BONNET,C,z,y,./images/BONNET.png,,,,,,,,,,,,,,,,,,,,,z,1,1.1866,,,,,,,,0,42,42,95,1
,,,,,,,,,,,,,,,,,58578946c41fd90001434680,66,2022-02-12_16h38.10.188,lexical_decision_task_DD_L5,2021.2.3,MacIntel,12.00048002,,,,,,,,,,,1.0993,0,,,,,,,,,,,,,,,,,,,,,,,,-0.035457481,-0.414968954,0,0,0,,,,,,,BOILER,HB,m,y,./images/BOILERHB.png,,,,,,,,,,,,,,,,,,,,,z,0,1.0993,,,,,,,,0,43,43,36,1
,,,,,,,,,,,,,,,,,58578946c41fd90001434680,66,2022-02-12_16h38.10.188,lexical_decision_task_DD_L5,2021.2.3,MacIntel,12.00048002,,,,,,,,,,,0.8578,1,,,,,,,,,,,,,,,,,,,,,,,,-0.035457481,-0.414968954,0,0,0,,,,,,,GLOVE,LB,m,y,./images/GLOVELB.png,,,,,,,,,,,,,,,,,,,,,m,1,0.8578,,,,,,,,0,44,44,73,1
,,,,,,,,,,,,,,,,,58578946c41fd90001434680,66,2022-02-12_16h38.10.188,lexical_decision_task_DD_L5,2021.2.3,MacIntel,12.00048002,,,,,,,,,,,0.8907,1,,,,,,,,,,,,,,,,,,,,,,,,-0.035457481,-0.414968954,0,0,0,,,,,,,TOMATO,HB,z,y,./images/TOMATOHB.png,,,,,,,,,,,,,,,,,,,,,z,1,0.8907,,,,,,,,0,45,45,84,1
,,,,,,,,,,,,,,,,,58578946c41fd90001434680,66,2022-02-12_16h38.10.188,lexical_decision_task_DD_L5,2021.2.3,MacIntel,12.00048002,,,,,,,,,,,1.0639,0,,,,,,,,,,,,,,,,,,,,,,,,-0.035457481,-0.414968954,0,0,0,,,,,,,SKIING,C,z,y,./images/SKIING.png,,,,,,,,,,,,,,,,,,,,,m,0,1.0639,,,,,,,,0,46,46,101,1
,,,,,,,,,,,,,,,,,58578946c41fd90001434680,66,2022-02-12_16h38.10.188,lexical_decision_task_DD_L5,2021.2.3,MacIntel,12.00048002,,,,,,,,,,,1.004,0,,,,,,,,,,,,,,,,,,,,,,,,-0.035457481,-0.414968954,0,0,0,,,,,,,MELON,LB,z,y,./images/MELONLB.png,,,,,,,,,,,,,,,,,,,,,m,0,1.004,,,,,,,,0,47,47,106,1
,,,,,,,,,,,,,,,,,58578946c41fd90001434680,66,2022-02-12_16h38.10.188,lexical_decision_task_DD_L5,2021.2.3,MacIntel,12.00048002,,,,,,,,,,,0.8848,1,,,,,,,,,,,,,,,,,,,,,,,,-0.035457481,-0.414968954,0,0,0,,,,,,,MIRROR,HB,z,y,./images/MIRRORHB.png,,,,,,,,,,,,,,,,,,,,,z,1,0.8848,,,,,,,,0,48,48,147,1
,,,,,,,,,,,,,,,,,58578946c41fd90001434680,66,2022-02-12_16h38.10.188,lexical_decision_task_DD_L5,2021.2.3,MacIntel,12.00048002,,,,,,,,,,,1.5077,1,,,,,,,,,,,,,,,,,,,,,,,,-0.035457481,-0.414968954,0,0,0,,,,,,,FLASK,HB,m,y,./images/FLASKHB.png,,,,,,,,,,,,,,,,,,,,,m,1,1.5077,,,,,,,,0,49,49,72,1
,,,,,,,,,,,,,,,,,58578946c41fd90001434680,66,2022-02-12_16h38.10.188,lexical_decision_task_DD_L5,2021.2.3,MacIntel,12.00048002,,,,,,,,,,,1.1981,0,,,,,,,,,,,,,,,,,,,,,,,,-0.035457481,-0.414968954,0,0,0,,,,,,,DANCER,HB,m,y,./images/DANCERHB.png,,,,,,,,,,,,,,,,,,,,,z,0,1.1981,,,,,,,,0,50,50,21,1
,,,,,,,,,,,,,,,,,58578946c41fd90001434680,66,2022-02-12_16h38.10.188,lexical_decision_task_DD_L5,2021.2.3,MacIntel,12.00048002,,,,,,,,,,,0.8814,1,,,,,,,,,,,,,,,,,,,,,,,,-0.035457481,-0.414968954,0,0,0,,,,,,,MEDAL,C,m,y,./images/MEDAL.png,,,,,,,,,,,,,,,,,,,,,m,1,0.8814,,,,,,,,0,51,51,11,1
,,,,,,,,,,,,,,,,,58578946c41fd90001434680,66,2022-02-12_16h38.10.188,lexical_decision_task_DD_L5,2021.2.3,MacIntel,12.00048002,,,,,,,,,,,0.8879,1,,,,,,,,,,,,,,,,,,,,,,,,-0.035457481,-0.414968954,0,0,0,,,,,,,BEARD,C,z,y,./images/BEARD.png,,,,,,,,,,,,,,,,,,,,,z,1,0.8879,,,,,,,,0,52,52,86,1
,,,,,,,,,,,,,,,,,58578946c41fd90001434680,66,2022-02-12_16h38.10.188,lexical_decision_task_DD_L5,2021.2.3,MacIntel,12.00048002,,,,,,,,,,,0.8866,0,,,,,,,,,,,,,,,,,,,,,,,,-0.035457481,-0.414968954,0,0,0,,,,,,,STORM,HB,z,y,./images/STORMHB.png,,,,,,,,,,,,,,,,,,,,,m,0,0.8866,,,,,,,,0,53,53,114,1
,,,,,,,,,,,,,,,,,58578946c41fd90001434680,66,2022-02-12_16h38.10.188,lexical_decision_task_DD_L5,2021.2.3,MacIntel,12.00048002,,,,,,,,,,,1.7076,1,,,,,,,,,,,,,,,,,,,,,,,,-0.035457481,-0.414968954,0,0,0,,,,,,,PENCE,LB,z,y,./images/PENCELB.png,,,,,,,,,,,,,,,,,,,,,z,1,1.7076,,,,,,,,0,54,54,100,1
,,,,,,,,,,,,,,,,,58578946c41fd90001434680,66,2022-02-12_16h38.10.188,lexical_decision_task_DD_L5,2021.2.3,MacIntel,12.00048002,,,,,,,,,,,0.7805,1,,,,,,,,,,,,,,,,,,,,,,,,-0.035457481,-0.414968954,0,0,0,,,,,,,CHAIN,HB,m,y,./images/CHAINHB.png,,,,,,,,,,,,,,,,,,,,,m,1,0.7805,,,,,,,,0,55,55,42,1
,,,,,,,,,,,,,,,,,58578946c41fd90001434680,66,2022-02-12_16h38.10.188,lexical_decision_task_DD_L5,2021.2.3,MacIntel,12.00048002,,,,,,,,,,,0.884,0,,,,,,,,,,,,,,,,,,,,,,,,-0.035457481,-0.414968954,0,0,0,,,,,,,SNACK,LB,z,y,./images/SNACKLB.png,,,,,,,,,,,,,,,,,,,,,m,0,0.884,,,,,,,,0,56,56,157,1
,,,,,,,,,,,,,,,,,58578946c41fd90001434680,66,2022-02-12_16h38.10.188,lexical_decision_task_DD_L5,2021.2.3,MacIntel,12.00048002,,,,,,,,,,,0.7767,1,,,,,,,,,,,,,,,,,,,,,,,,-0.035457481,-0.414968954,0,0,0,,,,,,,BASKET,C,m,y,./images/BASKET.png,,,,,,,,,,,,,,,,,,,,,m,1,0.7767,,,,,,,,0,57,57,44,1
,,,,,,,,,,,,,,,,,58578946c41fd90001434680,66,2022-02-12_16h38.10.188,lexical_decision_task_DD_L5,2021.2.3,MacIntel,12.00048002,,,,,,,,,,,0.8838,1,,,,,,,,,,,,,,,,,,,,,,,,-0.035457481,-0.414968954,0,0,0,,,,,,,ARTIST,LB,m,y,./images/ARTISTLB.png,,,,,,,,,,,,,,,,,,,,,m,1,0.8838,,,,,,,,0,58,58,61,1
,,,,,,,,,,,,,,,,,58578946c41fd90001434680,66,2022-02-12_16h38.10.188,lexical_decision_task_DD_L5,2021.2.3,MacIntel,12.00048002,,,,,,,,,,,1.1325,1,,,,,,,,,,,,,,,,,,,,,,,,-0.035457481,-0.414968954,0,0,0,,,,,,,LLAMA,C,m,y,./images/LLAMA.png,,,,,,,,,,,,,,,,,,,,,m,1,1.1325,,,,,,,,0,59,59,35,1
,,,,,,,,,,,,,,,,,58578946c41fd90001434680,66,2022-02-12_16h38.10.188,lexical_decision_task_DD_L5,2021.2.3,MacIntel,12.00048002,,,,,,,,,,,0.7897,1,,,,,,,,,,,,,,,,,,,,,,,,-0.035457481,-0.414968954,0,0,0,,,,,,,WRIST,LB,z,y,./images/WRISTLB.png,,,,,,,,,,,,,,,,,,,,,z,1,0.7897,,,,,,,,0,60,60,109,1
,,,,,,,,,,,,,,,,,58578946c41fd90001434680,66,2022-02-12_16h38.10.188,lexical_decision_task_DD_L5,2021.2.3,MacIntel,12.00048002,,,,,,,,,,,0.88,1,,,,,,,,,,,,,,,,,,,,,,,,-0.035457481,-0.414968954,0,0,0,,,,,,,CANOE,LB,m,y,./images/CANOELB.png,,,,,,,,,,,,,,,,,,,,,m,1,0.88,,,,,,,,0,61,61,58,1
,,,,,,,,,,,,,,,,,58578946c41fd90001434680,66,2022-02-12_16h38.10.188,lexical_decision_task_DD_L5,2021.2.3,MacIntel,12.00048002,,,,,,,,,,,0.8831,1,,,,,,,,,,,,,,,,,,,,,,,,-0.035457481,-0.414968954,0,0,0,,,,,,,BAMBOO,C,m,y,./images/BAMBOO.png,,,,,,,,,,,,,,,,,,,,,m,1,0.8831,,,,,,,,0,62,62,5,1
,,,,,,,,,,,,,,,,,58578946c41fd90001434680,66,2022-02-12_16h38.10.188,lexical_decision_task_DD_L5,2021.2.3,MacIntel,12.00048002,,,,,,,,,,,0.8822,1,,,,,,,,,,,,,,,,,,,,,,,,-0.035457481,-0.414968954,0,0,0,,,,,,,URINE,LB,z,y,./images/URINELB.png,,,,,,,,,,,,,,,,,,,,,z,1,0.8822,,,,,,,,0,63,63,154,1
,,,,,,,,,,,,,,,,,58578946c41fd90001434680,66,2022-02-12_16h38.10.188,lexical_decision_task_DD_L5,2021.2.3,MacIntel,12.00048002,,,,,,,,,,,1.0829,1,,,,,,,,,,,,,,,,,,,,,,,,-0.035457481,-0.414968954,0,0,0,,,,,,,INFANT,LB,z,y,./images/INFANTLB.png,,,,,,,,,,,,,,,,,,,,,z,1,1.0829,,,,,,,,0,64,64,160,1
,,,,,,,,,,,,,,,,,58578946c41fd90001434680,66,2022-02-12_16h38.10.188,lexical_decision_task_DD_L5,2021.2.3,MacIntel,12.00048002,,,,,,,,,,,1.6043,0,,,,,,,,,,,,,,,,,,,,,,,,-0.035457481,-0.414968954,0,0,0,,,,,,,PASTA,C,z,y,./images/PASTA.png,,,,,,,,,,,,,,,,,,,,,m,0,1.6043,,,,,,,,0,65,65,89,1
,,,,,,,,,,,,,,,,,58578946c41fd90001434680,66,2022-02-12_16h38.10.188,lexical_decision_task_DD_L5,2021.2.3,MacIntel,12.00048002,,,,,,,,,,,1.0921,0,,,,,,,,,,,,,,,,,,,,,,,,-0.035457481,-0.414968954,0,0,0,,,,,,,SMOKER,C,z,y,./images/SMOKER.png,,,,,,,,,,,,,,,,,,,,,m,0,1.0921,,,,,,,,0,66,66,110,1
,,,,,,,,,,,,,,,,,58578946c41fd90001434680,66,2022-02-12_16h38.10.188,lexical_decision_task_DD_L5,2021.2.3,MacIntel,12.00048002,,,,,,,,,,,0.891,1,,,,,,,,,,,,,,,,,,,,,,,,-0.035457481,-0.414968954,0,0,0,,,,,,,MONKEY,HB,m,y,./images/MONKEYHB.png,,,,,,,,,,,,,,,,,,,,,m,1,0.891,,,,,,,,0,67,67,45,1
,,,,,,,,,,,,,,,,,58578946c41fd90001434680,66,2022-02-12_16h38.10.188,lexical_decision_task_DD_L5,2021.2.3,MacIntel,12.00048002,,,,,,,,,,,0.7874,1,,,,,,,,,,,,,,,,,,,,,,,,-0.035457481,-0.414968954,0,0,0,,,,,,,WEASEL,C,z,y,./images/WEASEL.png,,,,,,,,,,,,,,,,,,,,,z,1,0.7874,,,,,,,,0,68,68,164,1
,,,,,,,,,,,,,,,,,58578946c41fd90001434680,66,2022-02-12_16h38.10.188,lexical_decision_task_DD_L5,2021.2.3,MacIntel,12.00048002,,,,,,,,,,,0.9088,0,,,,,,,,,,,,,,,,,,,,,,,,-0.035457481,-0.414968954,0,0,0,,,,,,,SWING,LB,z,y,./images/SWINGLB.png,,,,,,,,,,,,,,,,,,,,,m,0,0.9088,,,,,,,,0,69,69,124,1
,,,,,,,,,,,,,,,,,58578946c41fd90001434680,66,2022-02-12_16h38.10.188,lexical_decision_task_DD_L5,2021.2.3,MacIntel,12.00048002,,,,,,,,,,,0.7892,0,,,,,,,,,,,,,,,,,,,,,,,,-0.035457481,-0.414968954,0,0,0,,,,,,,COUCH,C,z,y,./images/COUCH.png,,,,,,,,,,,,,,,,,,,,,m,0,0.7892,,,,,,,,0,70,70,161,1
,,,,,,,,,,,,,,,,,58578946c41fd90001434680,66,2022-02-12_16h38.10.188,lexical_decision_task_DD_L5,2021.2.3,MacIntel,12.00048002,,,,,,,,,,,0.8957,1,,,,,,,,,,,,,,,,,,,,,,,,-0.035457481,-0.414968954,0,0,0,,,,,,,FINGER,HB,z,y,./images/FINGERHB.png,,,,,,,,,,,,,,,,,,,,,z,1,0.8957,,,,,,,,0,71,71,87,1
,,,,,,,,,,,,,,,,,58578946c41fd90001434680,66,2022-02-12_16h38.10.188,lexical_decision_task_DD_L5,2021.2.3,MacIntel,12.00048002,,,,,,,,,,,1.2666,1,,,,,,,,,,,,,,,,,,,,,,,,-0.035457481,-0.414968954,0,0,0,,,,,,,MUMMY,LB,m,y,./images/MUMMYLB.png,,,,,,,,,,,,,,,,,,,,,m,1,1.2666,,,,,,,,0,72,72,46,1
,,,,,,,,,,,,,,,,,58578946c41fd90001434680,66,2022-02-12_16h38.10.188,lexical_decision_task_DD_L5,2021.2.3,MacIntel,12.00048002,,,,,,,,,,,0.8214,0,,,,,,,,,,,,,,,,,,,,,,,,-0.035457481,-0.414968954,0,0,0,,,,,,,BANNER,LB,z,y,./images/BANNERLB.png,,,,,,,,,,,,,,,,,,,,,m,0,0.8214,,,,,,,,0,73,73,136,1
,,,,,,,,,,,,,,,,,58578946c41fd90001434680,66,2022-02-12_16h38.10.188,lexical_decision_task_DD_L5,2021.2.3,MacIntel,12.00048002,,,,,,,,,,,0.8263,1,,,,,,,,,,,,,,,,,,,,,,,,-0.035457481,-0.414968954,0,0,0,,,,,,,BAKER,HB,m,y,./images/BAKERHB.png,,,,,,,,,,,,,,,,,,,,,m,1,0.8263,,,,,,,,0,74,74,63,1
,,,,,,,,,,,,,,,,,58578946c41fd90001434680,66,2022-02-12_16h38.10.188,lexical_decision_task_DD_L5,2021.2.3,MacIntel,12.00048002,,,,,,,,,,,0.8521,1,,,,,,,,,,,,,,,,,,,,,,,,-0.034890939,-0.414609389,0,0,0,,,,,,,LITTER,HB,z,y,./images/LITTERHB.png,,,,,,,,,,,,,,,,,,,,,z,1,0.8521,,,,,,,,0,75,75,162,1
,,,,,,,,,,,,,,,,,58578946c41fd90001434680,66,2022-02-12_16h38.10.188,lexical_decision_task_DD_L5,2021.2.3,MacIntel,12.00048002,,,,,,,,,,,0.8172,1,,,,,,,,,,,,,,,,,,,,,,,,-0.034890939,-0.414609389,0,0,0,,,,,,,TIGER,LB,m,y,./images/TIGERLB.png,,,,,,,,,,,,,,,,,,,,,m,1,0.8172,,,,,,,,0,76,76,37,1
,,,,,,,,,,,,,,,,,58578946c41fd90001434680,66,2022-02-12_16h38.10.188,lexical_decision_task_DD_L5,2021.2.3,MacIntel,12.00048002,,,,,,,,,,,0.8906,1,,,,,,,,,,,,,,,,,,,,,,,,-0.034890939,-0.414609389,0,0,0,,,,,,,MIDGET,LB,m,y,./images/MIDGETLB.png,,,,,,,,,,,,,,,,,,,,,m,1,0.8906,,,,,,,,0,77,77,76,1
,,,,,,,,,,,,,,,,,58578946c41fd90001434680,66,2022-02-12_16h38.10.188,lexical_decision_task_DD_L5,2021.2.3,MacIntel,12.00048002,,,,,,,,,,,0.9012,1,,,,,,,,,,,,,,,,,,,,,,,,-0.034890939,-0.414609389,0,0,0,,,,,,,MOSQUE,LB,z,y,./images/MOSQUELB.png,,,,,,,,,,,,,,,,,,,,,z,1,0.9012,,,,,,,,0,78,78,127,1
,,,,,,,,,,,,,,,,,58578946c41fd90001434680,66,2022-02-12_16h38.10.188,lexical_decision_task_DD_L5,2021.2.3,MacIntel,12.00048002,,,,,,,,,,,1.1734,1,,,,,,,,,,,,,,,,,,,,,,,,-0.034890939,-0.414609389,0,0,0,,,,,,,GREASE,HB,z,y,./images/GREASEHB.png,,,,,,,,,,,,,,,,,,,,,z,1,1.1734,,,,,,,,0,79,79,99,1
,,,,,,,,,,,,,,,,,58578946c41fd90001434680,66,2022-02-12_16h38.10.188,lexical_decision_task_DD_L5,2021.2.3,MacIntel,12.00048002,,,,,,,,,,,0.8285,1,,,,,,,,,,,,,,,,,,,,,,,,-0.034890939,-0.414609389,0,0,0,,,,,,,DRILL,HB,m,y,./images/DRILLHB.png,,,,,,,,,,,,,,,,,,,,,m,1,0.8285,,,,,,,,0,80,80,81,1
,,,,,,,,,,,,,,,,,58578946c41fd90001434680,66,2022-02-12_16h38.10.188,lexical_decision_task_DD_L5,2021.2.3,MacIntel,12.00048002,,,,,,,,,,,0.6809,1,,,,,,,,,,,,,,,,,,,,,,,,-0.034890939,-0.414609389,0,0,0,,,,,,,SAUCE,HB,m,y,./images/SAUCEHB.png,,,,,,,,,,,,,,,,,,,,,m,1,0.6809,,,,,,,,0,81,81,51,1
,,,,,,,,,,,,,,,,,58578946c41fd90001434680,66,2022-02-12_16h38.10.188,lexical_decision_task_DD_L5,2021.2.3,MacIntel,12.00048002,,,,,,,,,,,0.8363,1,,,,,,,,,,,,,,,,,,,,,,,,-0.034890939,-0.414609389,0,0,0,,,,,,,POKER,LB,m,y,./images/POKERLB.png,,,,,,,,,,,,,,,,,,,,,m,1,0.8363,,,,,,,,0,82,82,67,1
,,,,,,,,,,,,,,,,,58578946c41fd90001434680,66,2022-02-12_16h38.10.188,lexical_decision_task_DD_L5,2021.2.3,MacIntel,12.00048002,,,,,,,,,,,1.3672,0,,,,,,,,,,,,,,,,,,,,,,,,-0.034890939,-0.41435338,0,0,0,space,,,,,,CASINO,LB,m,y,./images/CASINOLB.png,16.3377,,,,,,,,,,,,,,,,,,,,z,0,1.3672,,,,,,,,0,83,83,28,1
,,,,,,,,,,,,,,,,,58578946c41fd90001434680,66,2022-02-12_16h38.10.188,lexical_decision_task_DD_L5,2021.2.3,MacIntel,12.00048002,,,,,,,,,,,1.11,1,,,,,,,,,,,,,,,,,,,,,,,,-0.034890939,-0.41435338,0,0,0,,,,,,,CURRY,HB,m,y,./images/CURRYHB.png,,,,,,,,,,,,,,,,,,,,,m,1,1.11,,,,,,,,0,84,84,60,1
,,,,,,,,,,,,,,,,,58578946c41fd90001434680,66,2022-02-12_16h38.10.188,lexical_decision_task_DD_L5,2021.2.3,MacIntel,12.00048002,,,,,,,,,,,1.1189,1,,,,,,,,,,,,,,,,,,,,,,,,-0.034890939,-0.41435338,0,0,0,,,,,,,FOLDER,HB,z,y,./images/FOLDERHB.png,,,,,,,,,,,,,,,,,,,,,z,1,1.1189,,,,,,,,0,85,85,126,1
,,,,,,,,,,,,,,,,,58578946c41fd90001434680,66,2022-02-12_16h38.10.188,lexical_decision_task_DD_L5,2021.2.3,MacIntel,12.00048002,,,,,,,,,,,0.7679,1,,,,,,,,,,,,,,,,,,,,,,,,-0.034890939,-0.41435338,0,0,0,,,,,,,ARROW,HB,m,y,./images/ARROWHB.png,,,,,,,,,,,,,,,,,,,,,m,1,0.7679,,,,,,,,0,86,86,69,1
,,,,,,,,,,,,,,,,,58578946c41fd90001434680,66,2022-02-12_16h38.10.188,lexical_decision_task_DD_L5,2021.2.3,MacIntel,12.00048002,,,,,,,,,,,0.7855,0,,,,,,,,,,,,,,,,,,,,,,,,-0.034890939,-0.41435338,0,0,0,,,,,,,PEACH,C,z,y,./images/PEACH.png,,,,,,,,,,,,,,,,,,,,,m,0,0.7855,,,,,,,,0,87,87,119,1
,,,,,,,,,,,,,,,,,58578946c41fd90001434680,66,2022-02-12_16h38.10.188,lexical_decision_task_DD_L5,2021.2.3,MacIntel,12.00048002,,,,,,,,,,,0.8908,1,,,,,,,,,,,,,,,,,,,,,,,,-0.034890939,-0.41435338,0,0,0,,,,,,,TRIPOD,HB,z,y,./images/TRIPODHB.png,,,,,,,,,,,,,,,,,,,,,z,1,0.8908,,,,,,,,0,88,88,138,1
,,,,,,,,,,,,,,,,,58578946c41fd90001434680,66,2022-02-12_16h38.10.188,lexical_decision_task_DD_L5,2021.2.3,MacIntel,12.00048002,,,,,,,,,,,1.1116,1,,,,,,,,,,,,,,,,,,,,,,,,-0.034890939,-0.41435338,0,0,0,,,,,,,SPINE,C,m,y,./images/SPINE.png,,,,,,,,,,,,,,,,,,,,,m,1,1.1116,,,,,,,,0,89,89,65,1
,,,,,,,,,,,,,,,,,58578946c41fd90001434680,66,2022-02-12_16h38.10.188,lexical_decision_task_DD_L5,2021.2.3,MacIntel,12.00048002,,,,,,,,,,,1.0778,1,,,,,,,,,,,,,,,,,,,,,,,,-0.034890939,-0.41435338,0,0,0,,,,,,,BARREL,C,z,y,./images/BARREL.png,,,,,,,,,,,,,,,,,,,,,z,1,1.0778,,,,,,,,0,90,90,116,1
,,,,,,,,,,,,,,,,,58578946c41fd90001434680,66,2022-02-12_16h38.10.188,lexical_decision_task_DD_L5,2021.2.3,MacIntel,12.00048002,,,,,,,,,,,1.0157,1,,,,,,,,,,,,,,,,,,,,,,,,-0.034890939,-0.41435338,0,0,0,,,,,,,MUSCLE,LB,z,y,./images/MUSCLELB.png,,,,,,,,,,,,,,,,,,,,,z,1,1.0157,,,,,,,,0,91,91,88,1
,,,,,,,,,,,,,,,,,58578946c41fd90001434680,66,2022-02-12_16h38.10.188,lexical_decision_task_DD_L5,2021.2.3,MacIntel,12.00048002,,,,,,,,,,,1.0696,1,,,,,,,,,,,,,,,,,,,,,,,,-0.034890939,-0.41435338,0,0,0,,,,,,,CRADLE,C,z,y,./images/CRADLE.png,,,,,,,,,,,,,,,,,,,,,z,1,1.0696,,,,,,,,0,92,92,104,1
,,,,,,,,,,,,,,,,,58578946c41fd90001434680,66,2022-02-12_16h38.10.188,lexical_decision_task_DD_L5,2021.2.3,MacIntel,12.00048002,,,,,,,,,,,0.7766,0,,,,,,,,,,,,,,,,,,,,,,,,-0.034890939,-0.41435338,0,0,0,,,,,,,SHORE,HB,z,y,./images/SHOREHB.png,,,,,,,,,,,,,,,,,,,,,m,0,0.7766,,,,,,,,0,93,93,96,1
,,,,,,,,,,,,,,,,,58578946c41fd90001434680,66,2022-02-12_16h38.10.188,lexical_decision_task_DD_L5,2021.2.3,MacIntel,12.00048002,,,,,,,,,,,0.9727,1,,,,,,,,,,,,,,,,,,,,,,,,-0.034890939,-0.41435338,0,0,0,,,,,,,PICKLE,C,z,y,./images/PICKLE.png,,,,,,,,,,,,,,,,,,,,,z,1,0.9727,,,,,,,,0,94,94,98,1
,,,,,,,,,,,,,,,,,58578946c41fd90001434680,66,2022-02-12_16h38.10.188,lexical_decision_task_DD_L5,2021.2.3,MacIntel,12.00048002,,,,,,,,,,,1.0716,1,,,,,,,,,,,,,,,,,,,,,,,,-0.034890939,-0.41435338,0,0,0,,,,,,,CARPET,C,z,y,./images/CARPET.png,,,,,,,,,,,,,,,,,,,,,z,1,1.0716,,,,,,,,0,95,95,137,1
,,,,,,,,,,,,,,,,,58578946c41fd90001434680,66,2022-02-12_16h38.10.188,lexical_decision_task_DD_L5,2021.2.3,MacIntel,12.00048002,,,,,,,,,,,0.7692,1,,,,,,,,,,,,,,,,,,,,,,,,-0.034890939,-0.41435338,0,0,0,,,,,,,GARDEN,LB,m,y,./images/GARDENLB.png,,,,,,,,,,,,,,,,,,,,,m,1,0.7692,,,,,,,,0,96,96,10,1
,,,,,,,,,,,,,,,,,58578946c41fd90001434680,66,2022-02-12_16h38.10.188,lexical_decision_task_DD_L5,2021.2.3,MacIntel,12.00048002,,,,,,,,,,,0.9929,0,,,,,,,,,,,,,,,,,,,,,,,,-0.034890939,-0.41435338,0,0,0,,,,,,,JELLY,LB,z,y,./images/JELLYLB.png,,,,,,,,,,,,,,,,,,,,,m,0,0.9929,,,,,,,,0,97,97,148,1
,,,,,,,,,,,,,,,,,58578946c41fd90001434680,66,2022-02-12_16h38.10.188,lexical_decision_task_DD_L5,2021.2.3,MacIntel,12.00048002,,,,,,,,,,,0.8703,1,,,,,,,,,,,,,,,,,,,,,,,,-0.034890939,-0.41435338,0,0,0,,,,,,,PACKET,C,z,y,./images/PACKET.png,,,,,,,,,,,,,,,,,,,,,z,1,0.8703,,,,,,,,0,98,98,140,1
,,,,,,,,,,,,,,,,,58578946c41fd90001434680,66,2022-02-12_16h38.10.188,lexical_decision_task_DD_L5,2021.2.3,MacIntel,12.00048002,,,,,,,,,,,0.8879,1,,,,,,,,,,,,,,,,,,,,,,,,-0.034890939,-0.41435338,0,0,0,,,,,,,LAGOON,C,m,y,./images/LAGOON.png,,,,,,,,,,,,,,,,,,,,,m,1,0.8879,,,,,,,,0,99,99,47,1
,,,,,,,,,,,,,,,,,58578946c41fd90001434680,66,2022-02-12_16h38.10.188,lexical_decision_task_DD_L5,2021.2.3,MacIntel,12.00048002,,,,,,,,,,,0.8873,1,,,,,,,,,,,,,,,,,,,,,,,,-0.034890939,-0.41435338,0,0,0,,,,,,,GRANNY,C,m,y,./images/GRANNY.png,,,,,,,,,,,,,,,,,,,,,m,1,0.8873,,,,,,,,0,100,100,20,1
,,,,,,,,,,,,,,,,,58578946c41fd90001434680,66,2022-02-12_16h38.10.188,lexical_decision_task_DD_L5,2021.2.3,MacIntel,12.00048002,,,,,,,,,,,0.8842,0,,,,,,,,,,,,,,,,,,,,,,,,-0.034890939,-0.41435338,0,0,0,,,,,,,STREAM,C,m,y,./images/STREAM.png,,,,,,,,,,,,,,,,,,,,,z,0,0.8842,,,,,,,,0,101,101,41,1
,,,,,,,,,,,,,,,,,58578946c41fd90001434680,66,2022-02-12_16h38.10.188,lexical_decision_task_DD_L5,2021.2.3,MacIntel,12.00048002,,,,,,,,,,,1.103,1,,,,,,,,,,,,,,,,,,,,,,,,-0.034890939,-0.41435338,0,0,0,,,,,,,PEBBLE,LB,m,y,./images/PEBBLELB.png,,,,,,,,,,,,,,,,,,,,,m,1,1.103,,,,,,,,0,102,102,82,1
,,,,,,,,,,,,,,,,,58578946c41fd90001434680,66,2022-02-12_16h38.10.188,lexical_decision_task_DD_L5,2021.2.3,MacIntel,12.00048002,,,,,,,,,,,0.8771,1,,,,,,,,,,,,,,,,,,,,,,,,-0.034890939,-0.41435338,0,0,0,,,,,,,MAGGOT,HB,z,y,./images/MAGGOTHB.png,,,,,,,,,,,,,,,,,,,,,z,1,0.8771,,,,,,,,0,103,103,117,1
,,,,,,,,,,,,,,,,,58578946c41fd90001434680,66,2022-02-12_16h38.10.188,lexical_decision_task_DD_L5,2021.2.3,MacIntel,12.00048002,,,,,,,,,,,0.9057,1,,,,,,,,,,,,,,,,,,,,,,,,-0.034890939,-0.41435338,0,0,0,,,,,,,COLLAR,HB,m,y,./images/COLLARHB.png,,,,,,,,,,,,,,,,,,,,,m,1,0.9057,,,,,,,,0,104,104,15,1
,,,,,,,,,,,,,,,,,58578946c41fd90001434680,66,2022-02-12_16h38.10.188,lexical_decision_task_DD_L5,2021.2.3,MacIntel,12.00048002,,,,,,,,,,,0.9742,1,,,,,,,,,,,,,,,,,,,,,,,,-0.034890939,-0.41435338,0,0,0,,,,,,,BUNNY,LB,m,y,./images/BUNNYLB.png,,,,,,,,,,,,,,,,,,,,,m,1,0.9742,,,,,,,,0,105,105,13,1
,,,,,,,,,,,,,,,,,58578946c41fd90001434680,66,2022-02-12_16h38.10.188,lexical_decision_task_DD_L5,2021.2.3,MacIntel,12.00048002,,,,,,,,,,,0.8064,1,,,,,,,,,,,,,,,,,,,,,,,,-0.034890939,-0.41435338,0,0,0,,,,,,,ALLEY,LB,m,y,./images/ALLEYLB.png,,,,,,,,,,,,,,,,,,,,,m,1,0.8064,,,,,,,,0,106,106,55,1
,,,,,,,,,,,,,,,,,58578946c41fd90001434680,66,2022-02-12_16h38.10.188,lexical_decision_task_DD_L5,2021.2.3,MacIntel,12.00048002,,,,,,,,,,,0.9938,1,,,,,,,,,,,,,,,,,,,,,,,,-0.034890939,-0.41435338,0,0,0,,,,,,,BELLY,LB,z,y,./images/BELLYLB.png,,,,,,,,,,,,,,,,,,,,,z,1,0.9938,,,,,,,,0,107,107,94,1
,,,,,,,,,,,,,,,,,58578946c41fd90001434680,66,2022-02-12_16h38.10.188,lexical_decision_task_DD_L5,2021.2.3,MacIntel,12.00048002,,,,,,,,,,,0.902,1,,,,,,,,,,,,,,,,,,,,,,,,-0.034890939,-0.41435338,0,0,0,,,,,,,BURIAL,C,z,y,./images/BURIAL.png,,,,,,,,,,,,,,,,,,,,,z,1,0.902,,,,,,,,0,108,108,143,1
,,,,,,,,,,,,,,,,,58578946c41fd90001434680,66,2022-02-12_16h38.10.188,lexical_decision_task_DD_L5,2021.2.3,MacIntel,12.00048002,,,,,,,,,,,0.8845,1,,,,,,,,,,,,,,,,,,,,,,,,-0.034890939,-0.41435338,0,0,0,,,,,,,PIMPLE,C,z,y,./images/PIMPLE.png,,,,,,,,,,,,,,,,,,,,,z,1,0.8845,,,,,,,,0,109,109,155,1
,,,,,,,,,,,,,,,,,58578946c41fd90001434680,66,2022-02-12_16h38.10.188,lexical_decision_task_DD_L5,2021.2.3,MacIntel,12.00048002,,,,,,,,,,,1.2734,1,,,,,,,,,,,,,,,,,,,,,,,,-0.034890939,-0.41435338,0,0,0,,,,,,,JUMPER,C,m,y,./images/JUMPER.png,,,,,,,,,,,,,,,,,,,,,m,1,1.2734,,,,,,,,0,110,110,74,1
,,,,,,,,,,,,,,,,,58578946c41fd90001434680,66,2022-02-12_16h38.10.188,lexical_decision_task_DD_L5,2021.2.3,MacIntel,12.00048002,,,,,,,,,,,0.9663,0,,,,,,,,,,,,,,,,,,,,,,,,-0.034890939,-0.41435338,0,0,0,,,,,,,ATTIC,HB,z,y,./images/ATTICHB.png,,,,,,,,,,,,,,,,,,,,,m,0,0.9663,,,,,,,,0,111,111,111,1
,,,,,,,,,,,,,,,,,58578946c41fd90001434680,66,2022-02-12_16h38.10.188,lexical_decision_task_DD_L5,2021.2.3,MacIntel,12.00048002,,,,,,,,,,,0.78,1,,,,,,,,,,,,,,,,,,,,,,,,-0.034890939,-0.41435338,0,0,0,,,,,,,HAMMER,HB,m,y,./images/HAMMERHB.png,,,,,,,,,,,,,,,,,,,,,m,1,0.78,,,,,,,,0,112,112,75,1
,,,,,,,,,,,,,,,,,58578946c41fd90001434680,66,2022-02-12_16h38.10.188,lexical_decision_task_DD_L5,2021.2.3,MacIntel,12.00048002,,,,,,,,,,,0.7948,0,,,,,,,,,,,,,,,,,,,,,,,,-0.034890939,-0.41435338,0,0,0,,,,,,,SCREW,HB,z,y,./images/SCREWHB.png,,,,,,,,,,,,,,,,,,,,,m,0,0.7948,,,,,,,,0,113,113,108,1
,,,,,,,,,,,,,,,,,58578946c41fd90001434680,66,2022-02-12_16h38.10.188,lexical_decision_task_DD_L5,2021.2.3,MacIntel,12.00048002,,,,,,,,,,,0.8679,1,,,,,,,,,,,,,,,,,,,,,,,,-0.034890939,-0.41435338,0,0,0,,,,,,,ONION,HB,z,y,./images/ONIONHB.png,,,,,,,,,,,,,,,,,,,,,z,1,0.8679,,,,,,,,0,114,114,135,1
,,,,,,,,,,,,,,,,,58578946c41fd90001434680,66,2022-02-12_16h38.10.188,lexical_decision_task_DD_L5,2021.2.3,MacIntel,12.00048002,,,,,,,,,,,0.8693,1,,,,,,,,,,,,,,,,,,,,,,,,-0.034890939,-0.41435338,0,0,0,,,,,,,MALLET,C,z,y,./images/MALLET.png,,,,,,,,,,,,,,,,,,,,,z,1,0.8693,,,,,,,,0,115,115,134,1
,,,,,,,,,,,,,,,,,58578946c41fd90001434680,66,2022-02-12_16h38.10.188,lexical_decision_task_DD_L5,2021.2.3,MacIntel,12.00048002,,,,,,,,,,,0.97,1,,,,,,,,,,,,,,,,,,,,,,,,-0.034890939,-0.41435338,0,0,0,,,,,,,BUBBLE,C,m,y,./images/BUBBLE.png,,,,,,,,,,,,,,,,,,,,,m,1,0.97,,,,,,,,0,116,116,71,1
,,,,,,,,,,,,,,,,,58578946c41fd90001434680,66,2022-02-12_16h38.10.188,lexical_decision_task_DD_L5,2021.2.3,MacIntel,12.00048002,,,,,,,,,,,1.0719,1,,,,,,,,,,,,,,,,,,,,,,,,-0.034890939,-0.41435338,0,0,0,,,,,,,PILOT,C,m,y,./images/PILOT.png,,,,,,,,,,,,,,,,,,,,,m,1,1.0719,,,,,,,,0,117,117,50,1
,,,,,,,,,,,,,,,,,58578946c41fd90001434680,66,2022-02-12_16h38.10.188,lexical_decision_task_DD_L5,2021.2.3,MacIntel,12.00048002,,,,,,,,,,,0.8677,1,,,,,,,,,,,,,,,,,,,,,,,,-0.034890939,-0.41435338,0,0,0,,,,,,,TORCH,C,z,y,./images/TORCH.png,,,,,,,,,,,,,,,,,,,,,z,1,0.8677,,,,,,,,0,118,118,152,1
,,,,,,,,,,,,,,,,,58578946c41fd90001434680,66,2022-02-12_16h38.10.188,lexical_decision_task_DD_L5,2021.2.3,MacIntel,12.00048002,,,,,,,,,,,0.7761,1,,,,,,,,,,,,,,,,,,,,,,,,-0.034890939,-0.41435338,0,0,0,,,,,,,CLIFF,C,m,y,./images/CLIFF.png,,,,,,,,,,,,,,,,,,,,,m,1,0.7761,,,,,,,,0,119,119,8,1
,,,,,,,,,,,,,,,,,58578946c41fd90001434680,66,2022-02-12_16h38.10.188,lexical_decision_task_DD_L5,2021.2.3,MacIntel,12.00048002,,,,,,,,,,,0.8709,1,,,,,,,,,,,,,,,,,,,,,,,,-0.034890939,-0.41435338,0,0,0,,,,,,,CLOWN,LB,m,y,./images/CLOWNLB.png,,,,,,,,,,,,,,,,,,,,,m,1,0.8709,,,,,,,,0,120,120,22,1
,,,,,,,,,,,,,,,,,58578946c41fd90001434680,66,2022-02-12_16h38.10.188,lexical_decision_task_DD_L5,2021.2.3,MacIntel,12.00048002,,,,,,,,,,,1.2586,1,,,,,,,,,,,,,,,,,,,,,,,,-0.034890939,-0.41435338,0,0,0,,,,,,,FARMER,C,z,y,./images/FARMER.png,,,,,,,,,,,,,,,,,,,,,z,1,1.2586,,,,,,,,0,121,121,149,1
,,,,,,,,,,,,,,,,,58578946c41fd90001434680,66,2022-02-12_16h38.10.188,lexical_decision_task_DD_L5,2021.2.3,MacIntel,12.00048002,,,,,,,,,,,0.8782,1,,,,,,,,,,,,,,,,,,,,,,,,-0.034890939,-0.41435338,0,0,0,,,,,,,POODLE,HB,z,y,./images/POODLEHB.png,,,,,,,,,,,,,,,,,,,,,z,1,0.8782,,,,,,,,0,122,122,165,1
,,,,,,,,,,,,,,,,,58578946c41fd90001434680,66,2022-02-12_16h38.10.188,lexical_decision_task_DD_L5,2021.2.3,MacIntel,12.00048002,,,,,,,,,,,1.1011,1,,,,,,,,,,,,,,,,,,,,,,,,-0.034890939,-0.41435338,0,0,0,,,,,,,CANYON,LB,z,y,./images/CANYONLB.png,,,,,,,,,,,,,,,,,,,,,z,1,1.1011,,,,,,,,0,123,123,118,1
,,,,,,,,,,,,,,,,,58578946c41fd90001434680,66,2022-02-12_16h38.10.188,lexical_decision_task_DD_L5,2021.2.3,MacIntel,12.00048002,,,,,,,,,,,0.7717,1,,,,,,,,,,,,,,,,,,,,,,,,-0.034890939,-0.41435338,0,0,0,,,,,,,STAIN,HB,m,y,./images/STAINHB.png,,,,,,,,,,,,,,,,,,,,,m,1,0.7717,,,,,,,,0,124,124,6,1
,,,,,,,,,,,,,,,,,58578946c41fd90001434680,66,2022-02-12_16h38.10.188,lexical_decision_task_DD_L5,2021.2.3,MacIntel,12.00048002,,,,,,,,,,,1.1741,0,,,,,,,,,,,,,,,,,,,,,,,,-0.034890939,-0.41435338,0,0,0,space,,,,,,TOWEL,LB,m,y,./images/TOWELLB.png,16.2928,,,,,,,,,,,,,,,,,,,,z,0,1.1741,,,,,,,,0,125,125,1,1
,,,,,,,,,,,,,,,,,58578946c41fd90001434680,66,2022-02-12_16h38.10.188,lexical_decision_task_DD_L5,2021.2.3,MacIntel,12.00048002,,,,,,,,,,,1.0841,1,,,,,,,,,,,,,,,,,,,,,,,,-0.036525596,-0.493211956,0,0,0,,,,,,,DRUMS,LB,z,y,./images/DRUMSLB.png,,,,,,,,,,,,,,,,,,,,,z,1,1.0841,,,,,,,,0,126,126,133,1
,,,,,,,,,,,,,,,,,58578946c41fd90001434680,66,2022-02-12_16h38.10.188,lexical_decision_task_DD_L5,2021.2.3,MacIntel,12.00048002,,,,,,,,,,,0.7935,1,,,,,,,,,,,,,,,,,,,,,,,,-0.036525596,-0.493211956,0,0,0,,,,,,,BANANA,LB,m,y,./images/BANANALB.png,,,,,,,,,,,,,,,,,,,,,m,1,0.7935,,,,,,,,0,127,127,70,1
