key_resp.keys,key_resp.rt,instr_done_touch.x,instr_done_touch.y,instr_done_touch.leftButton,instr_done_touch.midButton,instr_done_touch.rightButton,instruction_pages.thisRepN,instruction_pages.thisTrialN,instruction_pages.thisN,instruction_pages.thisIndex,instruction_pages.ran,pageN,phase,instruct_text,has_image,instruct_image,participant,age,date,expName,psychopyVersion,OS,frameRate,instr_done_touch.clicked_name,response.keys,response.corr,response.rt,touch_resp.x,touch_resp.y,touch_resp.leftButton,touch_resp.midButton,touch_resp.rightButton,touch_resp.time,touch_resp.clicked_name,rt,corr,practrials.thisRepN,practrials.thisTrialN,practrials.thisN,practrials.thisIndex,practrials.ran,TrialID,Target,corrAns,end_of_practice_trials_pages.thisRepN,end_of_practice_trials_pages.thisTrialN,end_of_practice_trials_pages.thisN,end_of_practice_trials_pages.thisIndex,end_of_practice_trials_pages.ran,key_resp_2.keys,key_resp_2.corr,key_resp_2.rt,targ_click.x,targ_click.y,targ_click.leftButton,targ_click.midButton,targ_click.rightButton,targ_click.time,targ_click.clicked_name,break_done_touch.x,break_done_touch.y,break_done_touch.leftButton,break_done_touch.midButton,break_done_touch.rightButton,break_done_keyboard.keys,maintrials.thisRepN,maintrials.thisTrialN,maintrials.thisN,maintrials.thisIndex,maintrials.ran,string,blur,study,lex,stim_path,break_done_keyboard.rt,mouse_2.x,mouse_2.y,mouse_2.leftButton,mouse_2.midButton,mouse_2.rightButton,mouse_2.clicked_name,slider.response,slider.rt,trials.thisRepN,trials.thisTrialN,trials.thisN,trials.thisIndex,trials.ran,test_instructions.thisRepN,test_instructions.thisTrialN,test_instructions.thisN,test_instructions.thisIndex,test_instructions.ran,key_resp_3.keys,key_resp_3.corr,key_resp_3.rt,test_click.x,test_click.y,test_click.leftButton,test_click.midButton,test_click.rightButton,test_click.time,test_click.clicked_name,test_phase.thisRepN,test_phase.thisTrialN,test_phase.thisN,test_phase.thisIndex,test_phase.ran
space,44.9939,0.00949632,-0.409785896,0,0,0,0,0,0,0,1,1,instructions,"INSTRUCTIONS
At the start of each trial, look at the plus sign  (+) in the center of the screen.  This tells you that a trial is about to begin and where to look. Second, the plus sign will disappear and a string of letters will appear. Your task is to determine if the string of letters is a word or not. If the item is a word press the M key (on keyboard)  or touch the word button (phone/tablet).  If the item is not a word,  press the  Z key (on keyboard)  or touch the nonword button (on phone/tablet). 
Press the space bar or touch  continue.",0,,58a2952076c5b7000166150a,64,2022-02-12_13h48.57.825,lexical_decision_task_DD_L5,2021.2.3,Win32,60.7348922,,,,,,,,,,,,,,,,,,,,,,,,,,,,,,,,,,,,,,,,,,,,,,,,,,,,,,,,,,,,,,,,,,,,,,,,,,,,,,,,,,,,,,
,,-0.002547688,-0.398668294,1,0,0,0,1,1,1,1,2,instructions,"If your device has a keyboard, press the 'Z' key for nonwords and the 'M' key for words.





Press the space bar or touch the button below to continue.",0,keyboard-example.gif,58a2952076c5b7000166150a,64,2022-02-12_13h48.57.825,lexical_decision_task_DD_L5,2021.2.3,Win32,60.7348922,instr_done_button,,,,,,,,,,,,,,,,,,,,,,,,,,,,,,,,,,,,,,,,,,,,,,,,,,,,,,,,,,,,,,,,,,,,,,,,,,,,,,,,,,,,,
space,13.9082,0.160509585,-0.444991343,0,0,0,0,2,2,2,1,3,instructions,"If you are using a touchscreen only device, use the buttons on the screen. Do not use the mouse.





Press the space bar or touch the button below to continue.",0,touchscreen-example.gif,58a2952076c5b7000166150a,64,2022-02-12_13h48.57.825,lexical_decision_task_DD_L5,2021.2.3,Win32,60.7348922,,,,,,,,,,,,,,,,,,,,,,,,,,,,,,,,,,,,,,,,,,,,,,,,,,,,,,,,,,,,,,,,,,,,,,,,,,,,,,,,,,,,,,
space,8.4601,0.160509585,-0.444991343,0,0,0,0,3,3,3,1,4,instructions,"It is very important that you respond as quickly and accurately as possible, as each letter string will only be on the screen for two seconds. If you do not respond within this time, the message 'Too slow!' will be displayed and the experiment will progress to the next letter string. The first 20 trials will be practice trials and you will receive feedback on your answers. 

Press the space bar or touch the button below to start the practice trials.",0,,58a2952076c5b7000166150a,64,2022-02-12_13h48.57.825,lexical_decision_task_DD_L5,2021.2.3,Win32,60.7348922,,,,,,,,,,,,,,,,,,,,,,,,,,,,,,,,,,,,,,,,,,,,,,,,,,,,,,,,,,,,,,,,,,,,,,,,,,,,,,,,,,,,,,
,,,,,,,,,,,,,,,,,58a2952076c5b7000166150a,64,2022-02-12_13h48.57.825,lexical_decision_task_DD_L5,2021.2.3,Win32,60.7348922,,z,1,0.9761,,,,,,,,0.9761,1,0,0,0,15,1,1001,WHAISE,z,,,,,,,,,,,,,,,,,,,,,,,,,,,,,,,,,,,,,,,,,,,,,,,,,,,,,,,,,,,,,,,,,
,,,,,,,,,,,,,,,,,58a2952076c5b7000166150a,64,2022-02-12_13h48.57.825,lexical_decision_task_DD_L5,2021.2.3,Win32,60.7348922,,z,1,1.4666,,,,,,,,1.4666,1,0,1,1,12,1,1001,SPRINY,z,,,,,,,,,,,,,,,,,,,,,,,,,,,,,,,,,,,,,,,,,,,,,,,,,,,,,,,,,,,,,,,,,
,,,,,,,,,,,,,,,,,58a2952076c5b7000166150a,64,2022-02-12_13h48.57.825,lexical_decision_task_DD_L5,2021.2.3,Win32,60.7348922,,m,1,0.7537,,,,,,,,0.7537,1,0,2,2,2,1,1001,ALMOND,m,,,,,,,,,,,,,,,,,,,,,,,,,,,,,,,,,,,,,,,,,,,,,,,,,,,,,,,,,,,,,,,,,
,,,,,,,,,,,,,,,,,58a2952076c5b7000166150a,64,2022-02-12_13h48.57.825,lexical_decision_task_DD_L5,2021.2.3,Win32,60.7348922,,m,1,0.8319,,,,,,,,0.8319,1,0,3,3,3,1,1001,MATRIX,m,,,,,,,,,,,,,,,,,,,,,,,,,,,,,,,,,,,,,,,,,,,,,,,,,,,,,,,,,,,,,,,,,
,,,,,,,,,,,,,,,,,58a2952076c5b7000166150a,64,2022-02-12_13h48.57.825,lexical_decision_task_DD_L5,2021.2.3,Win32,60.7348922,,m,1,0.7498,,,,,,,,0.7498,1,0,4,4,1,1,1001,ADJUST,m,,,,,,,,,,,,,,,,,,,,,,,,,,,,,,,,,,,,,,,,,,,,,,,,,,,,,,,,,,,,,,,,,
,,,,,,,,,,,,,,,,,58a2952076c5b7000166150a,64,2022-02-12_13h48.57.825,lexical_decision_task_DD_L5,2021.2.3,Win32,60.7348922,,m,1,0.6733,,,,,,,,0.6733,1,0,5,5,7,1,1001,VOLUME,m,,,,,,,,,,,,,,,,,,,,,,,,,,,,,,,,,,,,,,,,,,,,,,,,,,,,,,,,,,,,,,,,,
,,,,,,,,,,,,,,,,,58a2952076c5b7000166150a,64,2022-02-12_13h48.57.825,lexical_decision_task_DD_L5,2021.2.3,Win32,60.7348922,,m,1,0.7946,,,,,,,,0.7946,1,0,6,6,6,1,1001,ZOMBIE,m,,,,,,,,,,,,,,,,,,,,,,,,,,,,,,,,,,,,,,,,,,,,,,,,,,,,,,,,,,,,,,,,,
,,,,,,,,,,,,,,,,,58a2952076c5b7000166150a,64,2022-02-12_13h48.57.825,lexical_decision_task_DD_L5,2021.2.3,Win32,60.7348922,,m,1,0.8148,,,,,,,,0.8148,1,0,7,7,4,1,1001,SQUEAK,m,,,,,,,,,,,,,,,,,,,,,,,,,,,,,,,,,,,,,,,,,,,,,,,,,,,,,,,,,,,,,,,,,
,,,,,,,,,,,,,,,,,58a2952076c5b7000166150a,64,2022-02-12_13h48.57.825,lexical_decision_task_DD_L5,2021.2.3,Win32,60.7348922,,z,1,1.0173,,,,,,,,1.0173,1,0,8,8,10,1,1001,INLADE,z,,,,,,,,,,,,,,,,,,,,,,,,,,,,,,,,,,,,,,,,,,,,,,,,,,,,,,,,,,,,,,,,,
,,,,,,,,,,,,,,,,,58a2952076c5b7000166150a,64,2022-02-12_13h48.57.825,lexical_decision_task_DD_L5,2021.2.3,Win32,60.7348922,,z,1,0.8177,,,,,,,,0.8177,1,0,9,9,14,1,1001,THRALE,z,,,,,,,,,,,,,,,,,,,,,,,,,,,,,,,,,,,,,,,,,,,,,,,,,,,,,,,,,,,,,,,,,
,,,,,,,,,,,,,,,,,58a2952076c5b7000166150a,64,2022-02-12_13h48.57.825,lexical_decision_task_DD_L5,2021.2.3,Win32,60.7348922,,z,1,0.8676,,,,,,,,0.8676,1,0,10,10,9,1,1001,FARINY,z,,,,,,,,,,,,,,,,,,,,,,,,,,,,,,,,,,,,,,,,,,,,,,,,,,,,,,,,,,,,,,,,,
,,,,,,,,,,,,,,,,,58a2952076c5b7000166150a,64,2022-02-12_13h48.57.825,lexical_decision_task_DD_L5,2021.2.3,Win32,60.7348922,,z,1,1.6169,,,,,,,,1.6169,1,0,11,11,11,1,1001,RASHET,z,,,,,,,,,,,,,,,,,,,,,,,,,,,,,,,,,,,,,,,,,,,,,,,,,,,,,,,,,,,,,,,,,
,,,,,,,,,,,,,,,,,58a2952076c5b7000166150a,64,2022-02-12_13h48.57.825,lexical_decision_task_DD_L5,2021.2.3,Win32,60.7348922,,m,0,0.7995,,,,,,,,0.7995,0,0,12,12,13,1,1001,ROUPET,z,,,,,,,,,,,,,,,,,,,,,,,,,,,,,,,,,,,,,,,,,,,,,,,,,,,,,,,,,,,,,,,,,
,,,,,,,,,,,,,,,,,58a2952076c5b7000166150a,64,2022-02-12_13h48.57.825,lexical_decision_task_DD_L5,2021.2.3,Win32,60.7348922,,m,1,1.0168,,,,,,,,1.0168,1,0,13,13,0,1,1001,UTOPIA,m,,,,,,,,,,,,,,,,,,,,,,,,,,,,,,,,,,,,,,,,,,,,,,,,,,,,,,,,,,,,,,,,,
,,,,,,,,,,,,,,,,,58a2952076c5b7000166150a,64,2022-02-12_13h48.57.825,lexical_decision_task_DD_L5,2021.2.3,Win32,60.7348922,,z,1,1.2174,,,,,,,,1.2174,1,0,14,14,8,1,1001,ASLERT,z,,,,,,,,,,,,,,,,,,,,,,,,,,,,,,,,,,,,,,,,,,,,,,,,,,,,,,,,,,,,,,,,,
,,,,,,,,,,,,,,,,,58a2952076c5b7000166150a,64,2022-02-12_13h48.57.825,lexical_decision_task_DD_L5,2021.2.3,Win32,60.7348922,,m,1,0.8576,,,,,,,,0.8576,1,0,15,15,5,1,1001,OBTAIN,m,,,,,,,,,,,,,,,,,,,,,,,,,,,,,,,,,,,,,,,,,,,,,,,,,,,,,,,,,,,,,,,,,
space,19.152,0.152171427,-0.43665324,0,0,0,,,,,,1,end_of_practice,"You have completed the practice trials. During the experimental trials, you will not receive feedback. 
Before you begin, please ensure that you are in a comfortable and quiet location and will not be disturbed for about 15 minutes, as we cannot use your data if you do not complete all the trials. 
 When you are ready to start the experimental trials, please press space or touch the button below.",,,58a2952076c5b7000166150a,64,2022-02-12_13h48.57.825,lexical_decision_task_DD_L5,2021.2.3,Win32,60.7348922,,,,,,,,,,,,,,,,,,,,,,0,0,0,0,1,,,,,,,,,,,,,,,,,,,,,,,,,,,,,,,,,,,,,,,,,,,,,,,,,,,,,,,,,,,,
,,,,,,,,,,,,,,,,,58a2952076c5b7000166150a,64,2022-02-12_13h48.57.825,lexical_decision_task_DD_L5,2021.2.3,Win32,60.7348922,,,,,,,,,,,,0.6696,1,,,,,,,,,,,,,,m,1,0.6696,,,,,,,,0.152171427,-0.43665324,0,0,0,,0,0,0,56,1,HEATER,C,old,m,./images/HEATER.png,,,,,,,,,,,,,,,,,,,,,,,,,,,,,,,,,,
,,,,,,,,,,,,,,,,,58a2952076c5b7000166150a,64,2022-02-12_13h48.57.825,lexical_decision_task_DD_L5,2021.2.3,Win32,60.7348922,,,,,,,,,,,,0.8612,1,,,,,,,,,,,,,,m,1,0.8612,,,,,,,,0.152171427,-0.43665324,0,0,0,,0,1,1,43,1,STOOL,LB,old,m,./images/STOOLLB.png,,,,,,,,,,,,,,,,,,,,,,,,,,,,,,,,,,
,,,,,,,,,,,,,,,,,58a2952076c5b7000166150a,64,2022-02-12_13h48.57.825,lexical_decision_task_DD_L5,2021.2.3,Win32,60.7348922,,,,,,,,,,,,1.6857,1,,,,,,,,,,,,,,m,1,1.6857,,,,,,,,0.152171427,-0.43665324,0,0,0,,0,2,2,75,1,HAMMER,HB,old,m,./images/HAMMERHB.png,,,,,,,,,,,,,,,,,,,,,,,,,,,,,,,,,,
,,,,,,,,,,,,,,,,,58a2952076c5b7000166150a,64,2022-02-12_13h48.57.825,lexical_decision_task_DD_L5,2021.2.3,Win32,60.7348922,,,,,,,,,,,,1.1631,1,,,,,,,,,,,,,,m,1,1.1631,,,,,,,,0.152171427,-0.43665324,0,0,0,,0,3,3,12,1,BLOKE,HB,old,m,./images/BLOKEHB.png,,,,,,,,,,,,,,,,,,,,,,,,,,,,,,,,,,
,,,,,,,,,,,,,,,,,58a2952076c5b7000166150a,64,2022-02-12_13h48.57.825,lexical_decision_task_DD_L5,2021.2.3,Win32,60.7348922,,,,,,,,,,,,0.7113,1,,,,,,,,,,,,,,m,1,0.7113,,,,,,,,0.152171427,-0.43665324,0,0,0,,0,4,4,49,1,BISHOP,LB,old,m,./images/BISHOPLB.png,,,,,,,,,,,,,,,,,,,,,,,,,,,,,,,,,,
,,,,,,,,,,,,,,,,,58a2952076c5b7000166150a,64,2022-02-12_13h48.57.825,lexical_decision_task_DD_L5,2021.2.3,Win32,60.7348922,,,,,,,,,,,,0.6523,1,,,,,,,,,,,,,,m,1,0.6523,,,,,,,,0.152171427,-0.43665324,0,0,0,,0,5,5,20,1,GRANNY,C,old,m,./images/GRANNY.png,,,,,,,,,,,,,,,,,,,,,,,,,,,,,,,,,,
,,,,,,,,,,,,,,,,,58a2952076c5b7000166150a,64,2022-02-12_13h48.57.825,lexical_decision_task_DD_L5,2021.2.3,Win32,60.7348922,,,,,,,,,,,,0.6111,1,,,,,,,,,,,,,,m,1,0.6111,,,,,,,,0.152171427,-0.43665324,0,0,0,,0,6,6,79,1,RULER,LB,old,m,./images/RULERLB.png,,,,,,,,,,,,,,,,,,,,,,,,,,,,,,,,,,
,,,,,,,,,,,,,,,,,58a2952076c5b7000166150a,64,2022-02-12_13h48.57.825,lexical_decision_task_DD_L5,2021.2.3,Win32,60.7348922,,,,,,,,,,,,0.9465,0,,,,,,,,,,,,,,m,0,0.9465,,,,,,,,0.152171427,-0.43665324,0,0,0,,0,7,7,143,1,MONGS,LB,old,z,./images/MONGSLB.png,,,,,,,,,,,,,,,,,,,,,,,,,,,,,,,,,,
,,,,,,,,,,,,,,,,,58a2952076c5b7000166150a,64,2022-02-12_13h48.57.825,lexical_decision_task_DD_L5,2021.2.3,Win32,60.7348922,,,,,,,,,,,,0.8764,1,,,,,,,,,,,,,,z,1,0.8764,,,,,,,,0.152171427,-0.43665324,0,0,0,,0,8,8,135,1,JOODY,C,old,z,./images/JOODY.png,,,,,,,,,,,,,,,,,,,,,,,,,,,,,,,,,,
,,,,,,,,,,,,,,,,,58a2952076c5b7000166150a,64,2022-02-12_13h48.57.825,lexical_decision_task_DD_L5,2021.2.3,Win32,60.7348922,,,,,,,,,,,,0.6641,1,,,,,,,,,,,,,,m,1,0.6641,,,,,,,,0.152171427,-0.43665324,0,0,0,,0,9,9,5,1,BAMBOO,C,old,m,./images/BAMBOO.png,,,,,,,,,,,,,,,,,,,,,,,,,,,,,,,,,,
,,,,,,,,,,,,,,,,,58a2952076c5b7000166150a,64,2022-02-12_13h48.57.825,lexical_decision_task_DD_L5,2021.2.3,Win32,60.7348922,,,,,,,,,,,,0.6975,1,,,,,,,,,,,,,,m,1,0.6975,,,,,,,,0.152171427,-0.43665324,0,0,0,,0,10,10,40,1,SNAKE,LB,old,m,./images/SNAKELB.png,,,,,,,,,,,,,,,,,,,,,,,,,,,,,,,,,,
,,,,,,,,,,,,,,,,,58a2952076c5b7000166150a,64,2022-02-12_13h48.57.825,lexical_decision_task_DD_L5,2021.2.3,Win32,60.7348922,,,,,,,,,,,,1.3646,1,,,,,,,,,,,,,,z,1,1.3646,,,,,,,,0.152171427,-0.43665324,0,0,0,,0,11,11,94,1,BLANS,HB,old,z,./images/BLANSHB.png,,,,,,,,,,,,,,,,,,,,,,,,,,,,,,,,,,
,,,,,,,,,,,,,,,,,58a2952076c5b7000166150a,64,2022-02-12_13h48.57.825,lexical_decision_task_DD_L5,2021.2.3,Win32,60.7348922,,,,,,,,,,,,1.2193,1,,,,,,,,,,,,,,z,1,1.2193,,,,,,,,0.152171427,-0.43665324,0,0,0,,0,12,12,95,1,HANTY,LB,old,z,./images/HANTYLB.png,,,,,,,,,,,,,,,,,,,,,,,,,,,,,,,,,,
,,,,,,,,,,,,,,,,,58a2952076c5b7000166150a,64,2022-02-12_13h48.57.825,lexical_decision_task_DD_L5,2021.2.3,Win32,60.7348922,,,,,,,,,,,,0.9945,1,,,,,,,,,,,,,,z,1,0.9945,,,,,,,,0.152171427,-0.43665324,0,0,0,,0,13,13,148,1,JOMS,HB,old,z,./images/JOMSHB.png,,,,,,,,,,,,,,,,,,,,,,,,,,,,,,,,,,
,,,,,,,,,,,,,,,,,58a2952076c5b7000166150a,64,2022-02-12_13h48.57.825,lexical_decision_task_DD_L5,2021.2.3,Win32,60.7348922,,,,,,,,,,,,0.7276,1,,,,,,,,,,,,,,m,1,0.7276,,,,,,,,0.152171427,-0.43665324,0,0,0,,0,14,14,55,1,ALLEY,LB,old,m,./images/ALLEYLB.png,,,,,,,,,,,,,,,,,,,,,,,,,,,,,,,,,,
,,,,,,,,,,,,,,,,,58a2952076c5b7000166150a,64,2022-02-12_13h48.57.825,lexical_decision_task_DD_L5,2021.2.3,Win32,60.7348922,,,,,,,,,,,,0.6445,1,,,,,,,,,,,,,,m,1,0.6445,,,,,,,,0.152171427,-0.43665324,0,0,0,,0,15,15,70,1,BANANA,LB,old,m,./images/BANANALB.png,,,,,,,,,,,,,,,,,,,,,,,,,,,,,,,,,,
,,,,,,,,,,,,,,,,,58a2952076c5b7000166150a,64,2022-02-12_13h48.57.825,lexical_decision_task_DD_L5,2021.2.3,Win32,60.7348922,,,,,,,,,,,,0.7398,1,,,,,,,,,,,,,,z,1,0.7398,,,,,,,,0.152171427,-0.43665324,0,0,0,,0,16,16,104,1,GITTY,LB,old,z,./images/GITTYLB.png,,,,,,,,,,,,,,,,,,,,,,,,,,,,,,,,,,
,,,,,,,,,,,,,,,,,58a2952076c5b7000166150a,64,2022-02-12_13h48.57.825,lexical_decision_task_DD_L5,2021.2.3,Win32,60.7348922,,,,,,,,,,,,0.6284,1,,,,,,,,,,,,,,m,1,0.6284,,,,,,,,0.152171427,-0.43665324,0,0,0,,0,17,17,67,1,POKER,LB,old,m,./images/POKERLB.png,,,,,,,,,,,,,,,,,,,,,,,,,,,,,,,,,,
,,,,,,,,,,,,,,,,,58a2952076c5b7000166150a,64,2022-02-12_13h48.57.825,lexical_decision_task_DD_L5,2021.2.3,Win32,60.7348922,,,,,,,,,,,,1.3007,1,,,,,,,,,,,,,,z,1,1.3007,,,,,,,,0.152171427,-0.43665324,0,0,0,,0,18,18,123,1,SEDGE,C,old,z,./images/SEDGE.png,,,,,,,,,,,,,,,,,,,,,,,,,,,,,,,,,,
,,,,,,,,,,,,,,,,,58a2952076c5b7000166150a,64,2022-02-12_13h48.57.825,lexical_decision_task_DD_L5,2021.2.3,Win32,60.7348922,,,,,,,,,,,,1.1102,1,,,,,,,,,,,,,,z,1,1.1102,,,,,,,,0.152171427,-0.43665324,0,0,0,,0,19,19,118,1,BAVEL,HB,old,z,./images/BAVELHB.png,,,,,,,,,,,,,,,,,,,,,,,,,,,,,,,,,,
,,,,,,,,,,,,,,,,,58a2952076c5b7000166150a,64,2022-02-12_13h48.57.825,lexical_decision_task_DD_L5,2021.2.3,Win32,60.7348922,,,,,,,,,,,,0.6873,1,,,,,,,,,,,,,,m,1,0.6873,,,,,,,,0.152171427,-0.43665324,0,0,0,,0,20,20,62,1,MAMMAL,C,old,m,./images/MAMMAL.png,,,,,,,,,,,,,,,,,,,,,,,,,,,,,,,,,,
,,,,,,,,,,,,,,,,,58a2952076c5b7000166150a,64,2022-02-12_13h48.57.825,lexical_decision_task_DD_L5,2021.2.3,Win32,60.7348922,,,,,,,,,,,,1.0004,1,,,,,,,,,,,,,,z,1,1.0004,,,,,,,,0.152171427,-0.43665324,0,0,0,,0,21,21,125,1,MOOKY,LB,old,z,./images/MOOKYLB.png,,,,,,,,,,,,,,,,,,,,,,,,,,,,,,,,,,
,,,,,,,,,,,,,,,,,58a2952076c5b7000166150a,64,2022-02-12_13h48.57.825,lexical_decision_task_DD_L5,2021.2.3,Win32,60.7348922,,,,,,,,,,,,0.7961,1,,,,,,,,,,,,,,m,1,0.7961,,,,,,,,0.152171427,-0.43665324,0,0,0,,0,22,22,78,1,BROOM,HB,old,m,./images/BROOMHB.png,,,,,,,,,,,,,,,,,,,,,,,,,,,,,,,,,,
,,,,,,,,,,,,,,,,,58a2952076c5b7000166150a,64,2022-02-12_13h48.57.825,lexical_decision_task_DD_L5,2021.2.3,Win32,60.7348922,,,,,,,,,,,,0.6795,1,,,,,,,,,,,,,,m,1,0.6795,,,,,,,,0.152171427,-0.43665324,0,0,0,,0,23,23,19,1,DONKEY,LB,old,m,./images/DONKEYLB.png,,,,,,,,,,,,,,,,,,,,,,,,,,,,,,,,,,
,,,,,,,,,,,,,,,,,58a2952076c5b7000166150a,64,2022-02-12_13h48.57.825,lexical_decision_task_DD_L5,2021.2.3,Win32,60.7348922,,,,,,,,,,,,1.513,0,,,,,,,,,,,,,,z,0,1.513,,,,,,,,0.152171427,-0.43665324,0,0,0,,0,24,24,48,1,SHIELD,HB,old,m,./images/SHIELDHB.png,,,,,,,,,,,,,,,,,,,,,,,,,,,,,,,,,,
,,,,,,,,,,,,,,,,,58a2952076c5b7000166150a,64,2022-02-12_13h48.57.825,lexical_decision_task_DD_L5,2021.2.3,Win32,60.7348922,,,,,,,,,,,,1.1956,1,,,,,,,,,,,,,,m,1,1.1956,,,,,,,,0.152171427,-0.43665324,0,0,0,,0,25,25,33,1,SAUNA,HB,old,m,./images/SAUNAHB.png,,,,,,,,,,,,,,,,,,,,,,,,,,,,,,,,,,
,,,,,,,,,,,,,,,,,58a2952076c5b7000166150a,64,2022-02-12_13h48.57.825,lexical_decision_task_DD_L5,2021.2.3,Win32,60.7348922,,,,,,,,,,,,0.6214,1,,,,,,,,,,,,,,m,1,0.6214,,,,,,,,0.152171427,-0.43665324,0,0,0,,0,26,26,44,1,BASKET,C,old,m,./images/BASKET.png,,,,,,,,,,,,,,,,,,,,,,,,,,,,,,,,,,
,,,,,,,,,,,,,,,,,58a2952076c5b7000166150a,64,2022-02-12_13h48.57.825,lexical_decision_task_DD_L5,2021.2.3,Win32,60.7348922,,,,,,,,,,,,1.4407,1,,,,,,,,,,,,,,m,1,1.4407,,,,,,,,0.152171427,-0.43665324,0,0,0,,0,27,27,57,1,FERRY,HB,old,m,./images/FERRYHB.png,,,,,,,,,,,,,,,,,,,,,,,,,,,,,,,,,,
,,,,,,,,,,,,,,,,,58a2952076c5b7000166150a,64,2022-02-12_13h48.57.825,lexical_decision_task_DD_L5,2021.2.3,Win32,60.7348922,,,,,,,,,,,,0.7926,1,,,,,,,,,,,,,,z,1,0.7926,,,,,,,,0.152171427,-0.43665324,0,0,0,,0,28,28,119,1,PAFER,LB,old,z,./images/PAFERLB.png,,,,,,,,,,,,,,,,,,,,,,,,,,,,,,,,,,
,,,,,,,,,,,,,,,,,58a2952076c5b7000166150a,64,2022-02-12_13h48.57.825,lexical_decision_task_DD_L5,2021.2.3,Win32,60.7348922,,,,,,,,,,,,0.7617,0,,,,,,,,,,,,,,m,0,0.7617,,,,,,,,0.152171427,-0.43665324,0,0,0,,0,29,29,84,1,HAXES,C,old,z,./images/HAXES.png,,,,,,,,,,,,,,,,,,,,,,,,,,,,,,,,,,
,,,,,,,,,,,,,,,,,58a2952076c5b7000166150a,64,2022-02-12_13h48.57.825,lexical_decision_task_DD_L5,2021.2.3,Win32,60.7348922,,,,,,,,,,,,0.6707,1,,,,,,,,,,,,,,m,1,0.6707,,,,,,,,0.152171427,-0.43665324,0,0,0,,0,30,30,65,1,SPINE,C,old,m,./images/SPINE.png,,,,,,,,,,,,,,,,,,,,,,,,,,,,,,,,,,
,,,,,,,,,,,,,,,,,58a2952076c5b7000166150a,64,2022-02-12_13h48.57.825,lexical_decision_task_DD_L5,2021.2.3,Win32,60.7348922,,,,,,,,,,,,0.945,1,,,,,,,,,,,,,,z,1,0.945,,,,,,,,0.152171427,-0.43665324,0,0,0,,0,31,31,92,1,PAIMS,LB,old,z,./images/PAIMSLB.png,,,,,,,,,,,,,,,,,,,,,,,,,,,,,,,,,,
,,,,,,,,,,,,,,,,,58a2952076c5b7000166150a,64,2022-02-12_13h48.57.825,lexical_decision_task_DD_L5,2021.2.3,Win32,60.7348922,,,,,,,,,,,,1.012,1,,,,,,,,,,,,,,m,1,1.012,,,,,,,,0.152171427,-0.43665324,0,0,0,,0,32,32,54,1,CHERRY,HB,old,m,./images/CHERRYHB.png,,,,,,,,,,,,,,,,,,,,,,,,,,,,,,,,,,
,,,,,,,,,,,,,,,,,58a2952076c5b7000166150a,64,2022-02-12_13h48.57.825,lexical_decision_task_DD_L5,2021.2.3,Win32,60.7348922,,,,,,,,,,,,0.7823,1,,,,,,,,,,,,,,z,1,0.7823,,,,,,,,0.152171427,-0.43665324,0,0,0,,0,33,33,129,1,PRANS,C,old,z,./images/PRANS.png,,,,,,,,,,,,,,,,,,,,,,,,,,,,,,,,,,
,,,,,,,,,,,,,,,,,58a2952076c5b7000166150a,64,2022-02-12_13h48.57.825,lexical_decision_task_DD_L5,2021.2.3,Win32,60.7348922,,,,,,,,,,,,0.8348,1,,,,,,,,,,,,,,z,1,0.8348,,,,,,,,0.152171427,-0.43665324,0,0,0,,0,34,34,132,1,SCIFF,C,old,z,./images/SCIFF.png,,,,,,,,,,,,,,,,,,,,,,,,,,,,,,,,,,
,,,,,,,,,,,,,,,,,58a2952076c5b7000166150a,64,2022-02-12_13h48.57.825,lexical_decision_task_DD_L5,2021.2.3,Win32,60.7348922,,,,,,,,,,,,0.8308,1,,,,,,,,,,,,,,z,1,0.8308,,,,,,,,0.152171427,-0.43665324,0,0,0,,0,35,35,147,1,ZOLES,C,old,z,./images/ZOLES.png,,,,,,,,,,,,,,,,,,,,,,,,,,,,,,,,,,
,,,,,,,,,,,,,,,,,58a2952076c5b7000166150a,64,2022-02-12_13h48.57.825,lexical_decision_task_DD_L5,2021.2.3,Win32,60.7348922,,,,,,,,,,,,1.1841,1,,,,,,,,,,,,,,z,1,1.1841,,,,,,,,0.152171427,-0.43665324,0,0,0,,0,36,36,133,1,POWDY,HB,old,z,./images/POWDYHB.png,,,,,,,,,,,,,,,,,,,,,,,,,,,,,,,,,,
,,,,,,,,,,,,,,,,,58a2952076c5b7000166150a,64,2022-02-12_13h48.57.825,lexical_decision_task_DD_L5,2021.2.3,Win32,60.7348922,,,,,,,,,,,,0.6434,1,,,,,,,,,,,,,,m,1,0.6434,,,,,,,,0.152171427,-0.43665324,0,0,0,,0,37,37,71,1,BUBBLE,C,old,m,./images/BUBBLE.png,,,,,,,,,,,,,,,,,,,,,,,,,,,,,,,,,,
,,,,,,,,,,,,,,,,,58a2952076c5b7000166150a,64,2022-02-12_13h48.57.825,lexical_decision_task_DD_L5,2021.2.3,Win32,60.7348922,,,,,,,,,,,,0.7622,1,,,,,,,,,,,,,,z,1,0.7622,,,,,,,,0.152171427,-0.43665324,0,0,0,,0,38,38,124,1,TUNCH,HB,old,z,./images/TUNCHHB.png,,,,,,,,,,,,,,,,,,,,,,,,,,,,,,,,,,
,,,,,,,,,,,,,,,,,58a2952076c5b7000166150a,64,2022-02-12_13h48.57.825,lexical_decision_task_DD_L5,2021.2.3,Win32,60.7348922,,,,,,,,,,,,0.722,1,,,,,,,,,,,,,,z,1,0.722,,,,,,,,0.152171427,-0.43665324,0,0,0,,0,39,39,141,1,PLEET,C,old,z,./images/PLEET.png,,,,,,,,,,,,,,,,,,,,,,,,,,,,,,,,,,
,,,,,,,,,,,,,,,,,58a2952076c5b7000166150a,64,2022-02-12_13h48.57.825,lexical_decision_task_DD_L5,2021.2.3,Win32,60.7348922,,,,,,,,,,,,0.8327,1,,,,,,,,,,,,,,z,1,0.8327,,,,,,,,0.152171427,-0.43665324,0,0,0,,0,40,40,139,1,BLEAR,HB,old,z,./images/BLEARHB.png,,,,,,,,,,,,,,,,,,,,,,,,,,,,,,,,,,
,,,,,,,,,,,,,,,,,58a2952076c5b7000166150a,64,2022-02-12_13h48.57.825,lexical_decision_task_DD_L5,2021.2.3,Win32,60.7348922,,,,,,,,,,,,0.8699,1,,,,,,,,,,,,,,m,1,0.8699,,,,,,,,0.152171427,-0.43665324,0,0,0,space,0,41,41,23,1,CLOTH,C,old,m,./images/CLOTH.png,17.5768,,,,,,,,,,,,,,,,,,,,,,,,,,,,,,,,,
,,,,,,,,,,,,,,,,,58a2952076c5b7000166150a,64,2022-02-12_13h48.57.825,lexical_decision_task_DD_L5,2021.2.3,Win32,60.7348922,,,,,,,,,,,,0.7926,1,,,,,,,,,,,,,,z,1,0.7926,,,,,,,,0.152171427,-0.43665324,0,0,0,,0,42,42,87,1,TRING,C,old,z,./images/TRING.png,,,,,,,,,,,,,,,,,,,,,,,,,,,,,,,,,,
,,,,,,,,,,,,,,,,,58a2952076c5b7000166150a,64,2022-02-12_13h48.57.825,lexical_decision_task_DD_L5,2021.2.3,Win32,60.7348922,,,,,,,,,,,,0.7296,1,,,,,,,,,,,,,,m,1,0.7296,,,,,,,,0.152171427,-0.43665324,0,0,0,,0,43,43,0,1,WALNUT,HB,old,m,./images/WALNUTHB.png,,,,,,,,,,,,,,,,,,,,,,,,,,,,,,,,,,
,,,,,,,,,,,,,,,,,58a2952076c5b7000166150a,64,2022-02-12_13h48.57.825,lexical_decision_task_DD_L5,2021.2.3,Win32,60.7348922,,,,,,,,,,,,0.581,1,,,,,,,,,,,,,,m,1,0.581,,,,,,,,0.152171427,-0.43665324,0,0,0,,0,44,44,41,1,STREAM,C,old,m,./images/STREAM.png,,,,,,,,,,,,,,,,,,,,,,,,,,,,,,,,,,
,,,,,,,,,,,,,,,,,58a2952076c5b7000166150a,64,2022-02-12_13h48.57.825,lexical_decision_task_DD_L5,2021.2.3,Win32,60.7348922,,,,,,,,,,,,0.7152,1,,,,,,,,,,,,,,z,1,0.7152,,,,,,,,0.152171427,-0.43665324,0,0,0,,0,45,45,161,1,BLAPS,LB,old,z,./images/BLAPSLB.png,,,,,,,,,,,,,,,,,,,,,,,,,,,,,,,,,,
,,,,,,,,,,,,,,,,,58a2952076c5b7000166150a,64,2022-02-12_13h48.57.825,lexical_decision_task_DD_L5,2021.2.3,Win32,60.7348922,,,,,,,,,,,,0.7293,1,,,,,,,,,,,,,,z,1,0.7293,,,,,,,,0.152171427,-0.43665324,0,0,0,,0,46,46,116,1,BALGY,LB,old,z,./images/BALGYLB.png,,,,,,,,,,,,,,,,,,,,,,,,,,,,,,,,,,
,,,,,,,,,,,,,,,,,58a2952076c5b7000166150a,64,2022-02-12_13h48.57.825,lexical_decision_task_DD_L5,2021.2.3,Win32,60.7348922,,,,,,,,,,,,0.8474,1,,,,,,,,,,,,,,m,1,0.8474,,,,,,,,0.152171427,-0.43665324,0,0,0,,0,47,47,51,1,SAUCE,HB,old,m,./images/SAUCEHB.png,,,,,,,,,,,,,,,,,,,,,,,,,,,,,,,,,,
,,,,,,,,,,,,,,,,,58a2952076c5b7000166150a,64,2022-02-12_13h48.57.825,lexical_decision_task_DD_L5,2021.2.3,Win32,60.7348922,,,,,,,,,,,,0.6803,1,,,,,,,,,,,,,,z,1,0.6803,,,,,,,,0.152171427,-0.43665324,0,0,0,,0,48,48,162,1,LEICH,C,old,z,./images/LEICH.png,,,,,,,,,,,,,,,,,,,,,,,,,,,,,,,,,,
,,,,,,,,,,,,,,,,,58a2952076c5b7000166150a,64,2022-02-12_13h48.57.825,lexical_decision_task_DD_L5,2021.2.3,Win32,60.7348922,,,,,,,,,,,,0.8809,0,,,,,,,,,,,,,,m,0,0.8809,,,,,,,,0.152171427,-0.43665324,0,0,0,,0,49,49,140,1,DOVET,LB,old,z,./images/DOVETLB.png,,,,,,,,,,,,,,,,,,,,,,,,,,,,,,,,,,
,,,,,,,,,,,,,,,,,58a2952076c5b7000166150a,64,2022-02-12_13h48.57.825,lexical_decision_task_DD_L5,2021.2.3,Win32,60.7348922,,,,,,,,,,,,0.9312,1,,,,,,,,,,,,,,m,1,0.9312,,,,,,,,0.152171427,-0.43665324,0,0,0,,0,50,50,63,1,BAKER,HB,old,m,./images/BAKERHB.png,,,,,,,,,,,,,,,,,,,,,,,,,,,,,,,,,,
,,,,,,,,,,,,,,,,,58a2952076c5b7000166150a,64,2022-02-12_13h48.57.825,lexical_decision_task_DD_L5,2021.2.3,Win32,60.7348922,,,,,,,,,,,,0.7308,1,,,,,,,,,,,,,,m,1,0.7308,,,,,,,,0.152171427,-0.43665324,0,0,0,,0,51,51,24,1,FLESH,HB,old,m,./images/FLESHHB.png,,,,,,,,,,,,,,,,,,,,,,,,,,,,,,,,,,
,,,,,,,,,,,,,,,,,58a2952076c5b7000166150a,64,2022-02-12_13h48.57.825,lexical_decision_task_DD_L5,2021.2.3,Win32,60.7348922,,,,,,,,,,,,0.679,1,,,,,,,,,,,,,,m,1,0.679,,,,,,,,0.152171427,-0.43665324,0,0,0,,0,52,52,83,1,WHISKY,C,old,m,./images/WHISKY.png,,,,,,,,,,,,,,,,,,,,,,,,,,,,,,,,,,
,,,,,,,,,,,,,,,,,58a2952076c5b7000166150a,64,2022-02-12_13h48.57.825,lexical_decision_task_DD_L5,2021.2.3,Win32,60.7348922,,,,,,,,,,,,0.8466,1,,,,,,,,,,,,,,z,1,0.8466,,,,,,,,0.152171427,-0.43665324,0,0,0,,0,53,53,134,1,TROSS,LB,old,z,./images/TROSSLB.png,,,,,,,,,,,,,,,,,,,,,,,,,,,,,,,,,,
,,,,,,,,,,,,,,,,,58a2952076c5b7000166150a,64,2022-02-12_13h48.57.825,lexical_decision_task_DD_L5,2021.2.3,Win32,60.7348922,,,,,,,,,,,,0.8471,1,,,,,,,,,,,,,,z,1,0.8471,,,,,,,,0.152171427,-0.43665324,0,0,0,,0,54,54,93,1,SMONE,C,old,z,./images/SMONE.png,,,,,,,,,,,,,,,,,,,,,,,,,,,,,,,,,,
,,,,,,,,,,,,,,,,,58a2952076c5b7000166150a,64,2022-02-12_13h48.57.825,lexical_decision_task_DD_L5,2021.2.3,Win32,60.7348922,,,,,,,,,,,,0.7984,1,,,,,,,,,,,,,,z,1,0.7984,,,,,,,,0.152171427,-0.43665324,0,0,0,,0,55,55,152,1,FRAIN,LB,old,z,./images/FRAINLB.png,,,,,,,,,,,,,,,,,,,,,,,,,,,,,,,,,,
,,,,,,,,,,,,,,,,,58a2952076c5b7000166150a,64,2022-02-12_13h48.57.825,lexical_decision_task_DD_L5,2021.2.3,Win32,60.7348922,,,,,,,,,,,,1.4328,1,,,,,,,,,,,,,,z,1,1.4328,,,,,,,,0.152171427,-0.43665324,0,0,0,,0,56,56,157,1,INLER,HB,old,z,./images/INLERHB.png,,,,,,,,,,,,,,,,,,,,,,,,,,,,,,,,,,
,,,,,,,,,,,,,,,,,58a2952076c5b7000166150a,64,2022-02-12_13h48.57.825,lexical_decision_task_DD_L5,2021.2.3,Win32,60.7348922,,,,,,,,,,,,0.6462,1,,,,,,,,,,,,,,m,1,0.6462,,,,,,,,0.152171427,-0.43665324,0,0,0,,0,57,57,16,1,GRAPE,LB,old,m,./images/GRAPELB.png,,,,,,,,,,,,,,,,,,,,,,,,,,,,,,,,,,
,,,,,,,,,,,,,,,,,58a2952076c5b7000166150a,64,2022-02-12_13h48.57.825,lexical_decision_task_DD_L5,2021.2.3,Win32,60.7348922,,,,,,,,,,,,0.5945,1,,,,,,,,,,,,,,m,1,0.5945,,,,,,,,0.152171427,-0.43665324,0,0,0,,0,58,58,68,1,VALLEY,C,old,m,./images/VALLEY.png,,,,,,,,,,,,,,,,,,,,,,,,,,,,,,,,,,
,,,,,,,,,,,,,,,,,58a2952076c5b7000166150a,64,2022-02-12_13h48.57.825,lexical_decision_task_DD_L5,2021.2.3,Win32,60.7348922,,,,,,,,,,,,0.814,1,,,,,,,,,,,,,,z,1,0.814,,,,,,,,0.152171427,-0.43665324,0,0,0,,0,59,59,101,1,GLEET,LB,old,z,./images/GLEETLB.png,,,,,,,,,,,,,,,,,,,,,,,,,,,,,,,,,,
,,,,,,,,,,,,,,,,,58a2952076c5b7000166150a,64,2022-02-12_13h48.57.825,lexical_decision_task_DD_L5,2021.2.3,Win32,60.7348922,,,,,,,,,,,,0.7793,1,,,,,,,,,,,,,,z,1,0.7793,,,,,,,,0.152171427,-0.43665324,0,0,0,,0,60,60,167,1,ZONET,LB,old,z,./images/ZONETLB.png,,,,,,,,,,,,,,,,,,,,,,,,,,,,,,,,,,
,,,,,,,,,,,,,,,,,58a2952076c5b7000166150a,64,2022-02-12_13h48.57.825,lexical_decision_task_DD_L5,2021.2.3,Win32,60.7348922,,,,,,,,,,,,1.0152,1,,,,,,,,,,,,,,z,1,1.0152,,,,,,,,0.152171427,-0.43665324,0,0,0,,0,61,61,99,1,BACKY,C,old,z,./images/BACKY.png,,,,,,,,,,,,,,,,,,,,,,,,,,,,,,,,,,
,,,,,,,,,,,,,,,,,58a2952076c5b7000166150a,64,2022-02-12_13h48.57.825,lexical_decision_task_DD_L5,2021.2.3,Win32,60.7348922,,,,,,,,,,,,0.8291,1,,,,,,,,,,,,,,z,1,0.8291,,,,,,,,0.152171427,-0.43665324,0,0,0,,0,62,62,165,1,TROWN,C,old,z,./images/TROWN.png,,,,,,,,,,,,,,,,,,,,,,,,,,,,,,,,,,
,,,,,,,,,,,,,,,,,58a2952076c5b7000166150a,64,2022-02-12_13h48.57.825,lexical_decision_task_DD_L5,2021.2.3,Win32,60.7348922,,,,,,,,,,,,1.5312,1,,,,,,,,,,,,,,m,1,1.5312,,,,,,,,0.152171427,-0.43665324,0,0,0,,0,63,63,9,1,DIVER,HB,old,m,./images/DIVERHB.png,,,,,,,,,,,,,,,,,,,,,,,,,,,,,,,,,,
,,,,,,,,,,,,,,,,,58a2952076c5b7000166150a,64,2022-02-12_13h48.57.825,lexical_decision_task_DD_L5,2021.2.3,Win32,60.7348922,,,,,,,,,,,,0.9651,1,,,,,,,,,,,,,,z,1,0.9651,,,,,,,,0.152171427,-0.43665324,0,0,0,,0,64,64,112,1,MYING,HB,old,z,./images/MYINGHB.png,,,,,,,,,,,,,,,,,,,,,,,,,,,,,,,,,,
,,,,,,,,,,,,,,,,,58a2952076c5b7000166150a,64,2022-02-12_13h48.57.825,lexical_decision_task_DD_L5,2021.2.3,Win32,60.7348922,,,,,,,,,,,,0.8139,1,,,,,,,,,,,,,,m,1,0.8139,,,,,,,,0.152171427,-0.43665324,0,0,0,,0,65,65,27,1,BUTTER,HB,old,m,./images/BUTTERHB.png,,,,,,,,,,,,,,,,,,,,,,,,,,,,,,,,,,
,,,,,,,,,,,,,,,,,58a2952076c5b7000166150a,64,2022-02-12_13h48.57.825,lexical_decision_task_DD_L5,2021.2.3,Win32,60.7348922,,,,,,,,,,,,0.7468,1,,,,,,,,,,,,,,m,1,0.7468,,,,,,,,0.152171427,-0.43665324,0,0,0,,0,66,66,69,1,ARROW,HB,old,m,./images/ARROWHB.png,,,,,,,,,,,,,,,,,,,,,,,,,,,,,,,,,,
,,,,,,,,,,,,,,,,,58a2952076c5b7000166150a,64,2022-02-12_13h48.57.825,lexical_decision_task_DD_L5,2021.2.3,Win32,60.7348922,,,,,,,,,,,,0.7172,1,,,,,,,,,,,,,,z,1,0.7172,,,,,,,,0.152171427,-0.43665324,0,0,0,,0,67,67,159,1,CUDDY,C,old,z,./images/CUDDY.png,,,,,,,,,,,,,,,,,,,,,,,,,,,,,,,,,,
,,,,,,,,,,,,,,,,,58a2952076c5b7000166150a,64,2022-02-12_13h48.57.825,lexical_decision_task_DD_L5,2021.2.3,Win32,60.7348922,,,,,,,,,,,,0.696,1,,,,,,,,,,,,,,m,1,0.696,,,,,,,,0.152171427,-0.43665324,0,0,0,,0,68,68,61,1,ARTIST,LB,old,m,./images/ARTISTLB.png,,,,,,,,,,,,,,,,,,,,,,,,,,,,,,,,,,
,,,,,,,,,,,,,,,,,58a2952076c5b7000166150a,64,2022-02-12_13h48.57.825,lexical_decision_task_DD_L5,2021.2.3,Win32,60.7348922,,,,,,,,,,,,0.9474,0,,,,,,,,,,,,,,m,0,0.9474,,,,,,,,0.152171427,-0.43665324,0,0,0,,0,69,69,142,1,PLASK,HB,old,z,./images/PLASKHB.png,,,,,,,,,,,,,,,,,,,,,,,,,,,,,,,,,,
,,,,,,,,,,,,,,,,,58a2952076c5b7000166150a,64,2022-02-12_13h48.57.825,lexical_decision_task_DD_L5,2021.2.3,Win32,60.7348922,,,,,,,,,,,,0.7622,1,,,,,,,,,,,,,,m,1,0.7622,,,,,,,,0.152171427,-0.43665324,0,0,0,,0,70,70,32,1,HOCKEY,C,old,m,./images/HOCKEY.png,,,,,,,,,,,,,,,,,,,,,,,,,,,,,,,,,,
,,,,,,,,,,,,,,,,,58a2952076c5b7000166150a,64,2022-02-12_13h48.57.825,lexical_decision_task_DD_L5,2021.2.3,Win32,60.7348922,,,,,,,,,,,,1.0487,1,,,,,,,,,,,,,,z,1,1.0487,,,,,,,,0.152171427,-0.43665324,0,0,0,,0,71,71,108,1,GRUET,C,old,z,./images/GRUET.png,,,,,,,,,,,,,,,,,,,,,,,,,,,,,,,,,,
,,,,,,,,,,,,,,,,,58a2952076c5b7000166150a,64,2022-02-12_13h48.57.825,lexical_decision_task_DD_L5,2021.2.3,Win32,60.7348922,,,,,,,,,,,,1.2807,1,,,,,,,,,,,,,,z,1,1.2807,,,,,,,,0.152171427,-0.43665324,0,0,0,,0,72,72,154,1,THINT,HB,old,z,./images/THINTHB.png,,,,,,,,,,,,,,,,,,,,,,,,,,,,,,,,,,
,,,,,,,,,,,,,,,,,58a2952076c5b7000166150a,64,2022-02-12_13h48.57.825,lexical_decision_task_DD_L5,2021.2.3,Win32,60.7348922,,,,,,,,,,,,0.6627,1,,,,,,,,,,,,,,m,1,0.6627,,,,,,,,0.152171427,-0.43665324,0,0,0,,0,73,73,73,1,GLOVE,LB,old,m,./images/GLOVELB.png,,,,,,,,,,,,,,,,,,,,,,,,,,,,,,,,,,
,,,,,,,,,,,,,,,,,58a2952076c5b7000166150a,64,2022-02-12_13h48.57.825,lexical_decision_task_DD_L5,2021.2.3,Win32,60.7348922,,,,,,,,,,,,0.6107,1,,,,,,,,,,,,,,m,1,0.6107,,,,,,,,0.152171427,-0.43665324,0,0,0,,0,74,74,38,1,ENGINE,C,old,m,./images/ENGINE.png,,,,,,,,,,,,,,,,,,,,,,,,,,,,,,,,,,
,,,,,,,,,,,,,,,,,58a2952076c5b7000166150a,64,2022-02-12_13h48.57.825,lexical_decision_task_DD_L5,2021.2.3,Win32,60.7348922,,,,,,,,,,,,0.7601,1,,,,,,,,,,,,,,z,1,0.7601,,,,,,,,0.152171427,-0.43665324,0,0,0,,0,75,75,89,1,DRIEK,LB,old,z,./images/DRIEKLB.png,,,,,,,,,,,,,,,,,,,,,,,,,,,,,,,,,,
,,,,,,,,,,,,,,,,,58a2952076c5b7000166150a,64,2022-02-12_13h48.57.825,lexical_decision_task_DD_L5,2021.2.3,Win32,60.7348922,,,,,,,,,,,,0.7438,1,,,,,,,,,,,,,,m,1,0.7438,,,,,,,,0.152171427,-0.43665324,0,0,0,,0,76,76,82,1,PEBBLE,LB,old,m,./images/PEBBLELB.png,,,,,,,,,,,,,,,,,,,,,,,,,,,,,,,,,,
,,,,,,,,,,,,,,,,,58a2952076c5b7000166150a,64,2022-02-12_13h48.57.825,lexical_decision_task_DD_L5,2021.2.3,Win32,60.7348922,,,,,,,,,,,,0.8675,1,,,,,,,,,,,,,,z,1,0.8675,,,,,,,,0.152171427,-0.43665324,0,0,0,,0,77,77,121,1,CEERS,HB,old,z,./images/CEERSHB.png,,,,,,,,,,,,,,,,,,,,,,,,,,,,,,,,,,
,,,,,,,,,,,,,,,,,58a2952076c5b7000166150a,64,2022-02-12_13h48.57.825,lexical_decision_task_DD_L5,2021.2.3,Win32,60.7348922,,,,,,,,,,,,0.6905,1,,,,,,,,,,,,,,m,1,0.6905,,,,,,,,0.152171427,-0.43665324,0,0,0,,0,78,78,31,1,STEAK,LB,old,m,./images/STEAKLB.png,,,,,,,,,,,,,,,,,,,,,,,,,,,,,,,,,,
,,,,,,,,,,,,,,,,,58a2952076c5b7000166150a,64,2022-02-12_13h48.57.825,lexical_decision_task_DD_L5,2021.2.3,Win32,60.7348922,,,,,,,,,,,,0.8562,1,,,,,,,,,,,,,,z,1,0.8562,,,,,,,,0.152171427,-0.43665324,0,0,0,,0,79,79,160,1,VEETS,HB,old,z,./images/VEETSHB.png,,,,,,,,,,,,,,,,,,,,,,,,,,,,,,,,,,
,,,,,,,,,,,,,,,,,58a2952076c5b7000166150a,64,2022-02-12_13h48.57.825,lexical_decision_task_DD_L5,2021.2.3,Win32,60.7348922,,,,,,,,,,,,0.7151,1,,,,,,,,,,,,,,m,1,0.7151,,,,,,,,0.152171427,-0.43665324,0,0,0,,0,80,80,58,1,CANOE,LB,old,m,./images/CANOELB.png,,,,,,,,,,,,,,,,,,,,,,,,,,,,,,,,,,
,,,,,,,,,,,,,,,,,58a2952076c5b7000166150a,64,2022-02-12_13h48.57.825,lexical_decision_task_DD_L5,2021.2.3,Win32,60.7348922,,,,,,,,,,,,0.6112,1,,,,,,,,,,,,,,m,1,0.6112,,,,,,,,0.152171427,-0.43665324,0,0,0,,0,81,81,13,1,BUNNY,LB,old,m,./images/BUNNYLB.png,,,,,,,,,,,,,,,,,,,,,,,,,,,,,,,,,,
,,,,,,,,,,,,,,,,,58a2952076c5b7000166150a,64,2022-02-12_13h48.57.825,lexical_decision_task_DD_L5,2021.2.3,Win32,60.7348922,,,,,,,,,,,,0.675,1,,,,,,,,,,,,,,z,1,0.675,,,,,,,,0.152171427,-0.43665324,0,0,0,,0,82,82,96,1,KEAMS,C,old,z,./images/KEAMS.png,,,,,,,,,,,,,,,,,,,,,,,,,,,,,,,,,,
,,,,,,,,,,,,,,,,,58a2952076c5b7000166150a,64,2022-02-12_13h48.57.825,lexical_decision_task_DD_L5,2021.2.3,Win32,60.7348922,,,,,,,,,,,,0.931,1,,,,,,,,,,,,,,m,1,0.931,,,,,,,,0.152171427,-0.43665324,0,0,0,space,0,83,83,18,1,PARCEL,HB,old,m,./images/PARCELHB.png,8.3442,,,,,,,,,,,,,,,,,,,,,,,,,,,,,,,,,
,,,,,,,,,,,,,,,,,58a2952076c5b7000166150a,64,2022-02-12_13h48.57.825,lexical_decision_task_DD_L5,2021.2.3,Win32,60.7348922,,,,,,,,,,,,0.7904,1,,,,,,,,,,,,,,z,1,0.7904,,,,,,,,0.152171427,-0.43665324,0,0,0,,0,84,84,114,1,RIKES,C,old,z,./images/RIKES.png,,,,,,,,,,,,,,,,,,,,,,,,,,,,,,,,,,
,,,,,,,,,,,,,,,,,58a2952076c5b7000166150a,64,2022-02-12_13h48.57.825,lexical_decision_task_DD_L5,2021.2.3,Win32,60.7348922,,,,,,,,,,,,0.7525,1,,,,,,,,,,,,,,z,1,0.7525,,,,,,,,0.152171427,-0.43665324,0,0,0,,0,85,85,131,1,NACES,LB,old,z,./images/NACESLB.png,,,,,,,,,,,,,,,,,,,,,,,,,,,,,,,,,,
,,,,,,,,,,,,,,,,,58a2952076c5b7000166150a,64,2022-02-12_13h48.57.825,lexical_decision_task_DD_L5,2021.2.3,Win32,60.7348922,,,,,,,,,,,,0.6285,1,,,,,,,,,,,,,,m,1,0.6285,,,,,,,,0.152171427,-0.43665324,0,0,0,,0,86,86,45,1,MONKEY,HB,old,m,./images/MONKEYHB.png,,,,,,,,,,,,,,,,,,,,,,,,,,,,,,,,,,
,,,,,,,,,,,,,,,,,58a2952076c5b7000166150a,64,2022-02-12_13h48.57.825,lexical_decision_task_DD_L5,2021.2.3,Win32,60.7348922,,,,,,,,,,,,0.8591,1,,,,,,,,,,,,,,m,1,0.8591,,,,,,,,0.152171427,-0.43665324,0,0,0,,0,87,87,52,1,DESERT,LB,old,m,./images/DESERTLB.png,,,,,,,,,,,,,,,,,,,,,,,,,,,,,,,,,,
,,,,,,,,,,,,,,,,,58a2952076c5b7000166150a,64,2022-02-12_13h48.57.825,lexical_decision_task_DD_L5,2021.2.3,Win32,60.7348922,,,,,,,,,,,,0.6392,1,,,,,,,,,,,,,,z,1,0.6392,,,,,,,,0.152171427,-0.43665324,0,0,0,,0,88,88,150,1,NOOLS,C,old,z,./images/NOOLS.png,,,,,,,,,,,,,,,,,,,,,,,,,,,,,,,,,,
,,,,,,,,,,,,,,,,,58a2952076c5b7000166150a,64,2022-02-12_13h48.57.825,lexical_decision_task_DD_L5,2021.2.3,Win32,60.7348922,,,,,,,,,,,,0.6779,1,,,,,,,,,,,,,,m,1,0.6779,,,,,,,,0.152171427,-0.43665324,0,0,0,,0,89,89,76,1,MIDGET,LB,old,m,./images/MIDGETLB.png,,,,,,,,,,,,,,,,,,,,,,,,,,,,,,,,,,
,,,,,,,,,,,,,,,,,58a2952076c5b7000166150a,64,2022-02-12_13h48.57.825,lexical_decision_task_DD_L5,2021.2.3,Win32,60.7348922,,,,,,,,,,,,0.8547,1,,,,,,,,,,,,,,z,1,0.8547,,,,,,,,0.152171427,-0.43665324,0,0,0,,0,90,90,136,1,WERVE,HB,old,z,./images/WERVEHB.png,,,,,,,,,,,,,,,,,,,,,,,,,,,,,,,,,,
,,,,,,,,,,,,,,,,,58a2952076c5b7000166150a,64,2022-02-12_13h48.57.825,lexical_decision_task_DD_L5,2021.2.3,Win32,60.7348922,,,,,,,,,,,,0.8603,1,,,,,,,,,,,,,,z,1,0.8603,,,,,,,,0.152171427,-0.43665324,0,0,0,,0,91,91,115,1,MAWNS,HB,old,z,./images/MAWNSHB.png,,,,,,,,,,,,,,,,,,,,,,,,,,,,,,,,,,
,,,,,,,,,,,,,,,,,58a2952076c5b7000166150a,64,2022-02-12_13h48.57.825,lexical_decision_task_DD_L5,2021.2.3,Win32,60.7348922,,,,,,,,,,,,1.0123,1,,,,,,,,,,,,,,z,1,1.0123,,,,,,,,0.152171427,-0.43665324,0,0,0,,0,92,92,127,1,NINDY,HB,old,z,./images/NINDYHB.png,,,,,,,,,,,,,,,,,,,,,,,,,,,,,,,,,,
,,,,,,,,,,,,,,,,,58a2952076c5b7000166150a,64,2022-02-12_13h48.57.825,lexical_decision_task_DD_L5,2021.2.3,Win32,60.7348922,,,,,,,,,,,,0.7489,1,,,,,,,,,,,,,,m,1,0.7489,,,,,,,,0.152171427,-0.43665324,0,0,0,,0,93,93,72,1,FLASK,HB,old,m,./images/FLASKHB.png,,,,,,,,,,,,,,,,,,,,,,,,,,,,,,,,,,
,,,,,,,,,,,,,,,,,58a2952076c5b7000166150a,64,2022-02-12_13h48.57.825,lexical_decision_task_DD_L5,2021.2.3,Win32,60.7348922,,,,,,,,,,,,0.5907,1,,,,,,,,,,,,,,m,1,0.5907,,,,,,,,0.152171427,-0.43665324,0,0,0,,0,94,94,29,1,PISTOL,C,old,m,./images/PISTOL.png,,,,,,,,,,,,,,,,,,,,,,,,,,,,,,,,,,
,,,,,,,,,,,,,,,,,58a2952076c5b7000166150a,64,2022-02-12_13h48.57.825,lexical_decision_task_DD_L5,2021.2.3,Win32,60.7348922,,,,,,,,,,,,0.641,1,,,,,,,,,,,,,,m,1,0.641,,,,,,,,0.152171427,-0.43665324,0,0,0,,0,95,95,14,1,FENCE,C,old,m,./images/FENCE.png,,,,,,,,,,,,,,,,,,,,,,,,,,,,,,,,,,
,,,,,,,,,,,,,,,,,58a2952076c5b7000166150a,64,2022-02-12_13h48.57.825,lexical_decision_task_DD_L5,2021.2.3,Win32,60.7348922,,,,,,,,,,,,0.5776,1,,,,,,,,,,,,,,m,1,0.5776,,,,,,,,0.152171427,-0.43665324,0,0,0,,0,96,96,2,1,STOVE,C,old,m,./images/STOVE.png,,,,,,,,,,,,,,,,,,,,,,,,,,,,,,,,,,
,,,,,,,,,,,,,,,,,58a2952076c5b7000166150a,64,2022-02-12_13h48.57.825,lexical_decision_task_DD_L5,2021.2.3,Win32,60.7348922,,,,,,,,,,,,0.8736,1,,,,,,,,,,,,,,z,1,0.8736,,,,,,,,0.152171427,-0.43665324,0,0,0,,0,97,97,163,1,GAMBA,HB,old,z,./images/GAMBAHB.png,,,,,,,,,,,,,,,,,,,,,,,,,,,,,,,,,,
,,,,,,,,,,,,,,,,,58a2952076c5b7000166150a,64,2022-02-12_13h48.57.825,lexical_decision_task_DD_L5,2021.2.3,Win32,60.7348922,,,,,,,,,,,,0.5912,1,,,,,,,,,,,,,,m,1,0.5912,,,,,,,,0.152171427,-0.43665324,0,0,0,,0,98,98,53,1,POSTER,C,old,m,./images/POSTER.png,,,,,,,,,,,,,,,,,,,,,,,,,,,,,,,,,,
,,,,,,,,,,,,,,,,,58a2952076c5b7000166150a,64,2022-02-12_13h48.57.825,lexical_decision_task_DD_L5,2021.2.3,Win32,60.7348922,,,,,,,,,,,,0.7236,1,,,,,,,,,,,,,,z,1,0.7236,,,,,,,,0.152171427,-0.43665324,0,0,0,,0,99,99,158,1,EGECT,LB,old,z,./images/EGECTLB.png,,,,,,,,,,,,,,,,,,,,,,,,,,,,,,,,,,
,,,,,,,,,,,,,,,,,58a2952076c5b7000166150a,64,2022-02-12_13h48.57.825,lexical_decision_task_DD_L5,2021.2.3,Win32,60.7348922,,,,,,,,,,,,0.8403,1,,,,,,,,,,,,,,m,1,0.8403,,,,,,,,0.152171427,-0.43665324,0,0,0,,0,100,100,30,1,SLOPE,HB,old,m,./images/SLOPEHB.png,,,,,,,,,,,,,,,,,,,,,,,,,,,,,,,,,,
,,,,,,,,,,,,,,,,,58a2952076c5b7000166150a,64,2022-02-12_13h48.57.825,lexical_decision_task_DD_L5,2021.2.3,Win32,60.7348922,,,,,,,,,,,,0.8623,1,,,,,,,,,,,,,,z,1,0.8623,,,,,,,,0.152171427,-0.43665324,0,0,0,,0,101,101,103,1,FLORT,HB,old,z,./images/FLORTHB.png,,,,,,,,,,,,,,,,,,,,,,,,,,,,,,,,,,
,,,,,,,,,,,,,,,,,58a2952076c5b7000166150a,64,2022-02-12_13h48.57.825,lexical_decision_task_DD_L5,2021.2.3,Win32,60.7348922,,,,,,,,,,,,1.2901,1,,,,,,,,,,,,,,z,1,1.2901,,,,,,,,0.152171427,-0.43665324,0,0,0,,0,102,102,151,1,TINKY,HB,old,z,./images/TINKYHB.png,,,,,,,,,,,,,,,,,,,,,,,,,,,,,,,,,,
,,,,,,,,,,,,,,,,,58a2952076c5b7000166150a,64,2022-02-12_13h48.57.825,lexical_decision_task_DD_L5,2021.2.3,Win32,60.7348922,,,,,,,,,,,,1.0865,1,,,,,,,,,,,,,,z,1,1.0865,,,,,,,,0.152171427,-0.43665324,0,0,0,,0,103,103,97,1,CHIDS,HB,old,z,./images/CHIDSHB.png,,,,,,,,,,,,,,,,,,,,,,,,,,,,,,,,,,
,,,,,,,,,,,,,,,,,58a2952076c5b7000166150a,64,2022-02-12_13h48.57.825,lexical_decision_task_DD_L5,2021.2.3,Win32,60.7348922,,,,,,,,,,,,0.5724,1,,,,,,,,,,,,,,m,1,0.5724,,,,,,,,0.152171427,-0.43665324,0,0,0,,0,104,104,1,1,TOWEL,LB,old,m,./images/TOWELLB.png,,,,,,,,,,,,,,,,,,,,,,,,,,,,,,,,,,
,,,,,,,,,,,,,,,,,58a2952076c5b7000166150a,64,2022-02-12_13h48.57.825,lexical_decision_task_DD_L5,2021.2.3,Win32,60.7348922,,,,,,,,,,,,0.7082,1,,,,,,,,,,,,,,z,1,0.7082,,,,,,,,0.152171427,-0.43665324,0,0,0,,0,105,105,91,1,SHENS,HB,old,z,./images/SHENSHB.png,,,,,,,,,,,,,,,,,,,,,,,,,,,,,,,,,,
,,,,,,,,,,,,,,,,,58a2952076c5b7000166150a,64,2022-02-12_13h48.57.825,lexical_decision_task_DD_L5,2021.2.3,Win32,60.7348922,,,,,,,,,,,,0.8902,1,,,,,,,,,,,,,,z,1,0.8902,,,,,,,,0.152171427,-0.43665324,0,0,0,,0,106,106,144,1,NAIRY,C,old,z,./images/NAIRY.png,,,,,,,,,,,,,,,,,,,,,,,,,,,,,,,,,,
,,,,,,,,,,,,,,,,,58a2952076c5b7000166150a,64,2022-02-12_13h48.57.825,lexical_decision_task_DD_L5,2021.2.3,Win32,60.7348922,,,,,,,,,,,,0.7094,1,,,,,,,,,,,,,,m,1,0.7094,,,,,,,,0.152171427,-0.43665324,0,0,0,,0,107,107,37,1,TIGER,LB,old,m,./images/TIGERLB.png,,,,,,,,,,,,,,,,,,,,,,,,,,,,,,,,,,
,,,,,,,,,,,,,,,,,58a2952076c5b7000166150a,64,2022-02-12_13h48.57.825,lexical_decision_task_DD_L5,2021.2.3,Win32,60.7348922,,,,,,,,,,,,0.6766,1,,,,,,,,,,,,,,m,1,0.6766,,,,,,,,0.152171427,-0.43665324,0,0,0,,0,108,108,46,1,MUMMY,LB,old,m,./images/MUMMYLB.png,,,,,,,,,,,,,,,,,,,,,,,,,,,,,,,,,,
,,,,,,,,,,,,,,,,,58a2952076c5b7000166150a,64,2022-02-12_13h48.57.825,lexical_decision_task_DD_L5,2021.2.3,Win32,60.7348922,,,,,,,,,,,,0.6282,1,,,,,,,,,,,,,,m,1,0.6282,,,,,,,,0.152171427,-0.43665324,0,0,0,,0,109,109,7,1,WAGON,LB,old,m,./images/WAGONLB.png,,,,,,,,,,,,,,,,,,,,,,,,,,,,,,,,,,
,,,,,,,,,,,,,,,,,58a2952076c5b7000166150a,64,2022-02-12_13h48.57.825,lexical_decision_task_DD_L5,2021.2.3,Win32,60.7348922,,,,,,,,,,,,0.7954,1,,,,,,,,,,,,,,z,1,0.7954,,,,,,,,0.152171427,-0.43665324,0,0,0,,0,110,110,155,1,CANGY,LB,old,z,./images/CANGYLB.png,,,,,,,,,,,,,,,,,,,,,,,,,,,,,,,,,,
,,,,,,,,,,,,,,,,,58a2952076c5b7000166150a,64,2022-02-12_13h48.57.825,lexical_decision_task_DD_L5,2021.2.3,Win32,60.7348922,,,,,,,,,,,,0.7522,1,,,,,,,,,,,,,,z,1,0.7522,,,,,,,,0.152171427,-0.43665324,0,0,0,,0,111,111,113,1,LINEW,LB,old,z,./images/LINEWLB.png,,,,,,,,,,,,,,,,,,,,,,,,,,,,,,,,,,
,,,,,,,,,,,,,,,,,58a2952076c5b7000166150a,64,2022-02-12_13h48.57.825,lexical_decision_task_DD_L5,2021.2.3,Win32,60.7348922,,,,,,,,,,,,1.0262,1,,,,,,,,,,,,,,z,1,1.0262,,,,,,,,0.152171427,-0.43665324,0,0,0,,0,112,112,107,1,FASKS,LB,old,z,./images/FASKSLB.png,,,,,,,,,,,,,,,,,,,,,,,,,,,,,,,,,,
,,,,,,,,,,,,,,,,,58a2952076c5b7000166150a,64,2022-02-12_13h48.57.825,lexical_decision_task_DD_L5,2021.2.3,Win32,60.7348922,,,,,,,,,,,,1.5238,1,,,,,,,,,,,,,,z,1,1.5238,,,,,,,,0.152171427,-0.43665324,0,0,0,,0,113,113,100,1,DRIBS,HB,old,z,./images/DRIBSHB.png,,,,,,,,,,,,,,,,,,,,,,,,,,,,,,,,,,
,,,,,,,,,,,,,,,,,58a2952076c5b7000166150a,64,2022-02-12_13h48.57.825,lexical_decision_task_DD_L5,2021.2.3,Win32,60.7348922,,,,,,,,,,,,1.2447,1,,,,,,,,,,,,,,z,1,1.2447,,,,,,,,0.152171427,-0.43665324,0,0,0,,0,114,114,109,1,BURGE,HB,old,z,./images/BURGEHB.png,,,,,,,,,,,,,,,,,,,,,,,,,,,,,,,,,,
,,,,,,,,,,,,,,,,,58a2952076c5b7000166150a,64,2022-02-12_13h48.57.825,lexical_decision_task_DD_L5,2021.2.3,Win32,60.7348922,,,,,,,,,,,,0.8057,1,,,,,,,,,,,,,,z,1,0.8057,,,,,,,,0.152171427,-0.43665324,0,0,0,,0,115,115,156,1,HIXES,C,old,z,./images/HIXES.png,,,,,,,,,,,,,,,,,,,,,,,,,,,,,,,,,,
,,,,,,,,,,,,,,,,,58a2952076c5b7000166150a,64,2022-02-12_13h48.57.825,lexical_decision_task_DD_L5,2021.2.3,Win32,60.7348922,,,,,,,,,,,,0.7866,1,,,,,,,,,,,,,,z,1,0.7866,,,,,,,,0.152171427,-0.43665324,0,0,0,,0,116,116,153,1,CLUPS,C,old,z,./images/CLUPS.png,,,,,,,,,,,,,,,,,,,,,,,,,,,,,,,,,,
,,,,,,,,,,,,,,,,,58a2952076c5b7000166150a,64,2022-02-12_13h48.57.825,lexical_decision_task_DD_L5,2021.2.3,Win32,60.7348922,,,,,,,,,,,,1.3788,1,,,,,,,,,,,,,,z,1,1.3788,,,,,,,,0.152171427,-0.43665324,0,0,0,,0,117,117,85,1,CHULK,HB,old,z,./images/CHULKHB.png,,,,,,,,,,,,,,,,,,,,,,,,,,,,,,,,,,
,,,,,,,,,,,,,,,,,58a2952076c5b7000166150a,64,2022-02-12_13h48.57.825,lexical_decision_task_DD_L5,2021.2.3,Win32,60.7348922,,,,,,,,,,,,1.3952,1,,,,,,,,,,,,,,m,1,1.3952,,,,,,,,0.152171427,-0.43665324,0,0,0,,0,118,118,42,1,CHAIN,HB,old,m,./images/CHAINHB.png,,,,,,,,,,,,,,,,,,,,,,,,,,,,,,,,,,
,,,,,,,,,,,,,,,,,58a2952076c5b7000166150a,64,2022-02-12_13h48.57.825,lexical_decision_task_DD_L5,2021.2.3,Win32,60.7348922,,,,,,,,,,,,0.8433,1,,,,,,,,,,,,,,z,1,0.8433,,,,,,,,0.152171427,-0.43665324,0,0,0,,0,119,119,122,1,BLOOT,LB,old,z,./images/BLOOTLB.png,,,,,,,,,,,,,,,,,,,,,,,,,,,,,,,,,,
,,,,,,,,,,,,,,,,,58a2952076c5b7000166150a,64,2022-02-12_13h48.57.825,lexical_decision_task_DD_L5,2021.2.3,Win32,60.7348922,,,,,,,,,,,,0.6772,1,,,,,,,,,,,,,,m,1,0.6772,,,,,,,,0.152171427,-0.43665324,0,0,0,,0,120,120,50,1,PILOT,C,old,m,./images/PILOT.png,,,,,,,,,,,,,,,,,,,,,,,,,,,,,,,,,,
,,,,,,,,,,,,,,,,,58a2952076c5b7000166150a,64,2022-02-12_13h48.57.825,lexical_decision_task_DD_L5,2021.2.3,Win32,60.7348922,,,,,,,,,,,,0.6792,1,,,,,,,,,,,,,,m,1,0.6792,,,,,,,,0.152171427,-0.43665324,0,0,0,,0,121,121,22,1,CLOWN,LB,old,m,./images/CLOWNLB.png,,,,,,,,,,,,,,,,,,,,,,,,,,,,,,,,,,
,,,,,,,,,,,,,,,,,58a2952076c5b7000166150a,64,2022-02-12_13h48.57.825,lexical_decision_task_DD_L5,2021.2.3,Win32,60.7348922,,,,,,,,,,,,1.0123,1,,,,,,,,,,,,,,z,1,1.0123,,,,,,,,0.152171427,-0.43665324,0,0,0,,0,122,122,111,1,HOSSE,C,old,z,./images/HOSSE.png,,,,,,,,,,,,,,,,,,,,,,,,,,,,,,,,,,
,,,,,,,,,,,,,,,,,58a2952076c5b7000166150a,64,2022-02-12_13h48.57.825,lexical_decision_task_DD_L5,2021.2.3,Win32,60.7348922,,,,,,,,,,,,0.8068,1,,,,,,,,,,,,,,z,1,0.8068,,,,,,,,0.152171427,-0.43665324,0,0,0,,0,123,123,102,1,DULLE,C,old,z,./images/DULLE.png,,,,,,,,,,,,,,,,,,,,,,,,,,,,,,,,,,
,,,,,,,,,,,,,,,,,58a2952076c5b7000166150a,64,2022-02-12_13h48.57.825,lexical_decision_task_DD_L5,2021.2.3,Win32,60.7348922,,,,,,,,,,,,0.7074,1,,,,,,,,,,,,,,m,1,0.7074,,,,,,,,0.152171427,-0.43665324,0,0,0,,0,124,124,74,1,JUMPER,C,old,m,./images/JUMPER.png,,,,,,,,,,,,,,,,,,,,,,,,,,,,,,,,,,
,,,,,,,,,,,,,,,,,58a2952076c5b7000166150a,64,2022-02-12_13h48.57.825,lexical_decision_task_DD_L5,2021.2.3,Win32,60.7348922,,,,,,,,,,,,0.7564,1,,,,,,,,,,,,,,m,1,0.7564,,,,,,,,0.152171427,-0.43665324,0,0,0,space,0,125,125,34,1,RAZOR,LB,old,m,./images/RAZORLB.png,9.456,,,,,,,,,,,,,,,,,,,,,,,,,,,,,,,,,
,,,,,,,,,,,,,,,,,58a2952076c5b7000166150a,64,2022-02-12_13h48.57.825,lexical_decision_task_DD_L5,2021.2.3,Win32,60.7348922,,,,,,,,,,,,1.3954,1,,,,,,,,,,,,,,z,1,1.3954,,,,,,,,0.152171427,-0.43665324,0,0,0,,0,126,126,106,1,CLUMS,HB,old,z,./images/CLUMSHB.png,,,,,,,,,,,,,,,,,,,,,,,,,,,,,,,,,,
,,,,,,,,,,,,,,,,,58a2952076c5b7000166150a,64,2022-02-12_13h48.57.825,lexical_decision_task_DD_L5,2021.2.3,Win32,60.7348922,,,,,,,,,,,,0.7075,1,,,,,,,,,,,,,,m,1,0.7075,,,,,,,,0.152171427,-0.43665324,0,0,0,,0,127,127,47,1,LAGOON,C,old,m,./images/LAGOON.png,,,,,,,,,,,,,,,,,,,,,,,,,,,,,,,,,,
,,,,,,,,,,,,,,,,,58a2952076c5b7000166150a,64,2022-02-12_13h48.57.825,lexical_decision_task_DD_L5,2021.2.3,Win32,60.7348922,,,,,,,,,,,,0.7892,1,,,,,,,,,,,,,,z,1,0.7892,,,,,,,,0.152171427,-0.43665324,0,0,0,,0,128,128,86,1,AIFED,LB,old,z,./images/AIFEDLB.png,,,,,,,,,,,,,,,,,,,,,,,,,,,,,,,,,,
,,,,,,,,,,,,,,,,,58a2952076c5b7000166150a,64,2022-02-12_13h48.57.825,lexical_decision_task_DD_L5,2021.2.3,Win32,60.7348922,,,,,,,,,,,,0.5655,1,,,,,,,,,,,,,,m,1,0.5655,,,,,,,,0.152171427,-0.43665324,0,0,0,,0,129,129,10,1,GARDEN,LB,old,m,./images/GARDENLB.png,,,,,,,,,,,,,,,,,,,,,,,,,,,,,,,,,,
,,,,,,,,,,,,,,,,,58a2952076c5b7000166150a,64,2022-02-12_13h48.57.825,lexical_decision_task_DD_L5,2021.2.3,Win32,60.7348922,,,,,,,,,,,,0.6234,0,,,,,,,,,,,,,,m,0,0.6234,,,,,,,,0.152171427,-0.43665324,0,0,0,,0,130,130,166,1,SHORY,HB,old,z,./images/SHORYHB.png,,,,,,,,,,,,,,,,,,,,,,,,,,,,,,,,,,
,,,,,,,,,,,,,,,,,58a2952076c5b7000166150a,64,2022-02-12_13h48.57.825,lexical_decision_task_DD_L5,2021.2.3,Win32,60.7348922,,,,,,,,,,,,0.6272,1,,,,,,,,,,,,,,m,1,0.6272,,,,,,,,0.152171427,-0.43665324,0,0,0,,0,131,131,66,1,STATUE,HB,old,m,./images/STATUEHB.png,,,,,,,,,,,,,,,,,,,,,,,,,,,,,,,,,,
,,,,,,,,,,,,,,,,,58a2952076c5b7000166150a,64,2022-02-12_13h48.57.825,lexical_decision_task_DD_L5,2021.2.3,Win32,60.7348922,,,,,,,,,,,,1.029,1,,,,,,,,,,,,,,m,1,1.029,,,,,,,,0.152171427,-0.43665324,0,0,0,,0,132,132,6,1,STAIN,HB,old,m,./images/STAINHB.png,,,,,,,,,,,,,,,,,,,,,,,,,,,,,,,,,,
,,,,,,,,,,,,,,,,,58a2952076c5b7000166150a,64,2022-02-12_13h48.57.825,lexical_decision_task_DD_L5,2021.2.3,Win32,60.7348922,,,,,,,,,,,,0.7496,1,,,,,,,,,,,,,,z,1,0.7496,,,,,,,,0.152171427,-0.43665324,0,0,0,,0,133,133,126,1,GUELS,C,old,z,./images/GUELS.png,,,,,,,,,,,,,,,,,,,,,,,,,,,,,,,,,,
,,,,,,,,,,,,,,,,,58a2952076c5b7000166150a,64,2022-02-12_13h48.57.825,lexical_decision_task_DD_L5,2021.2.3,Win32,60.7348922,,,,,,,,,,,,0.5737,1,,,,,,,,,,,,,,m,1,0.5737,,,,,,,,0.152171427,-0.43665324,0,0,0,,0,134,134,77,1,WHEEL,C,old,m,./images/WHEEL.png,,,,,,,,,,,,,,,,,,,,,,,,,,,,,,,,,,
,,,,,,,,,,,,,,,,,58a2952076c5b7000166150a,64,2022-02-12_13h48.57.825,lexical_decision_task_DD_L5,2021.2.3,Win32,60.7348922,,,,,,,,,,,,0.6602,1,,,,,,,,,,,,,,z,1,0.6602,,,,,,,,0.152171427,-0.43665324,0,0,0,,0,135,135,98,1,BAMPS,LB,old,z,./images/BAMPSLB.png,,,,,,,,,,,,,,,,,,,,,,,,,,,,,,,,,,
,,,,,,,,,,,,,,,,,58a2952076c5b7000166150a,64,2022-02-12_13h48.57.825,lexical_decision_task_DD_L5,2021.2.3,Win32,60.7348922,,,,,,,,,,,,0.5877,1,,,,,,,,,,,,,,m,1,0.5877,,,,,,,,0.152171427,-0.43665324,0,0,0,,0,136,136,80,1,PLANET,C,old,m,./images/PLANET.png,,,,,,,,,,,,,,,,,,,,,,,,,,,,,,,,,,
,,,,,,,,,,,,,,,,,58a2952076c5b7000166150a,64,2022-02-12_13h48.57.825,lexical_decision_task_DD_L5,2021.2.3,Win32,60.7348922,,,,,,,,,,,,1.4745,1,,,,,,,,,,,,,,z,1,1.4745,,,,,,,,0.152171427,-0.43665324,0,0,0,,0,137,137,130,1,CRILL,HB,old,z,./images/CRILLHB.png,,,,,,,,,,,,,,,,,,,,,,,,,,,,,,,,,,
,,,,,,,,,,,,,,,,,58a2952076c5b7000166150a,64,2022-02-12_13h48.57.825,lexical_decision_task_DD_L5,2021.2.3,Win32,60.7348922,,,,,,,,,,,,0.5542,1,,,,,,,,,,,,,,m,1,0.5542,,,,,,,,0.152171427,-0.43665324,0,0,0,,0,138,138,26,1,CLOUD,C,old,m,./images/CLOUD.png,,,,,,,,,,,,,,,,,,,,,,,,,,,,,,,,,,
,,,,,,,,,,,,,,,,,58a2952076c5b7000166150a,64,2022-02-12_13h48.57.825,lexical_decision_task_DD_L5,2021.2.3,Win32,60.7348922,,,,,,,,,,,,0.8061,1,,,,,,,,,,,,,,m,1,0.8061,,,,,,,,0.152171427,-0.43665324,0,0,0,,0,139,139,28,1,CASINO,LB,old,m,./images/CASINOLB.png,,,,,,,,,,,,,,,,,,,,,,,,,,,,,,,,,,
,,,,,,,,,,,,,,,,,58a2952076c5b7000166150a,64,2022-02-12_13h48.57.825,lexical_decision_task_DD_L5,2021.2.3,Win32,60.7348922,,,,,,,,,,,,0.7079,1,,,,,,,,,,,,,,z,1,0.7079,,,,,,,,0.152171427,-0.43665324,0,0,0,,0,140,140,120,1,RINED,C,old,z,./images/RINED.png,,,,,,,,,,,,,,,,,,,,,,,,,,,,,,,,,,
,,,,,,,,,,,,,,,,,58a2952076c5b7000166150a,64,2022-02-12_13h48.57.825,lexical_decision_task_DD_L5,2021.2.3,Win32,60.7348922,,,,,,,,,,,,0.7209,1,,,,,,,,,,,,,,z,1,0.7209,,,,,,,,0.152171427,-0.43665324,0,0,0,,0,141,141,149,1,VEASE,LB,old,z,./images/VEASELB.png,,,,,,,,,,,,,,,,,,,,,,,,,,,,,,,,,,
,,,,,,,,,,,,,,,,,58a2952076c5b7000166150a,64,2022-02-12_13h48.57.825,lexical_decision_task_DD_L5,2021.2.3,Win32,60.7348922,,,,,,,,,,,,0.6088,1,,,,,,,,,,,,,,m,1,0.6088,,,,,,,,0.152171427,-0.43665324,0,0,0,,0,142,142,8,1,CLIFF,C,old,m,./images/CLIFF.png,,,,,,,,,,,,,,,,,,,,,,,,,,,,,,,,,,
,,,,,,,,,,,,,,,,,58a2952076c5b7000166150a,64,2022-02-12_13h48.57.825,lexical_decision_task_DD_L5,2021.2.3,Win32,60.7348922,,,,,,,,,,,,0.7765,1,,,,,,,,,,,,,,m,1,0.7765,,,,,,,,0.152171427,-0.43665324,0,0,0,,0,143,143,21,1,DANCER,HB,old,m,./images/DANCERHB.png,,,,,,,,,,,,,,,,,,,,,,,,,,,,,,,,,,
,,,,,,,,,,,,,,,,,58a2952076c5b7000166150a,64,2022-02-12_13h48.57.825,lexical_decision_task_DD_L5,2021.2.3,Win32,60.7348922,,,,,,,,,,,,0.5387,1,,,,,,,,,,,,,,m,1,0.5387,,,,,,,,0.152171427,-0.43665324,0,0,0,,0,144,144,17,1,PARADE,C,old,m,./images/PARADE.png,,,,,,,,,,,,,,,,,,,,,,,,,,,,,,,,,,
,,,,,,,,,,,,,,,,,58a2952076c5b7000166150a,64,2022-02-12_13h48.57.825,lexical_decision_task_DD_L5,2021.2.3,Win32,60.7348922,,,,,,,,,,,,0.6117,1,,,,,,,,,,,,,,m,1,0.6117,,,,,,,,0.152171427,-0.43665324,0,0,0,,0,145,145,4,1,BOXER,LB,old,m,./images/BOXERLB.png,,,,,,,,,,,,,,,,,,,,,,,,,,,,,,,,,,
,,,,,,,,,,,,,,,,,58a2952076c5b7000166150a,64,2022-02-12_13h48.57.825,lexical_decision_task_DD_L5,2021.2.3,Win32,60.7348922,,,,,,,,,,,,1.0987,1,,,,,,,,,,,,,,m,1,1.0987,,,,,,,,0.152171427,-0.43665324,0,0,0,,0,146,146,15,1,COLLAR,HB,old,m,./images/COLLARHB.png,,,,,,,,,,,,,,,,,,,,,,,,,,,,,,,,,,
,,,,,,,,,,,,,,,,,58a2952076c5b7000166150a,64,2022-02-12_13h48.57.825,lexical_decision_task_DD_L5,2021.2.3,Win32,60.7348922,,,,,,,,,,,,1.0461,1,,,,,,,,,,,,,,m,1,1.0461,,,,,,,,0.152171427,-0.43665324,0,0,0,,0,147,147,35,1,LLAMA,C,old,m,./images/LLAMA.png,,,,,,,,,,,,,,,,,,,,,,,,,,,,,,,,,,
,,,,,,,,,,,,,,,,,58a2952076c5b7000166150a,64,2022-02-12_13h48.57.825,lexical_decision_task_DD_L5,2021.2.3,Win32,60.7348922,,,,,,,,,,,,0.8262,1,,,,,,,,,,,,,,z,1,0.8262,,,,,,,,0.152171427,-0.43665324,0,0,0,,0,148,148,117,1,STEEG,C,old,z,./images/STEEG.png,,,,,,,,,,,,,,,,,,,,,,,,,,,,,,,,,,
,,,,,,,,,,,,,,,,,58a2952076c5b7000166150a,64,2022-02-12_13h48.57.825,lexical_decision_task_DD_L5,2021.2.3,Win32,60.7348922,,,,,,,,,,,,0.729,0,,,,,,,,,,,,,,m,0,0.729,,,,,,,,0.152171427,-0.43665324,0,0,0,,0,149,149,105,1,MOKER,C,old,z,./images/MOKER.png,,,,,,,,,,,,,,,,,,,,,,,,,,,,,,,,,,
,,,,,,,,,,,,,,,,,58a2952076c5b7000166150a,64,2022-02-12_13h48.57.825,lexical_decision_task_DD_L5,2021.2.3,Win32,60.7348922,,,,,,,,,,,,0.9961,1,,,,,,,,,,,,,,z,1,0.9961,,,,,,,,0.152171427,-0.43665324,0,0,0,,0,150,150,138,1,PLICE,C,old,z,./images/PLICE.png,,,,,,,,,,,,,,,,,,,,,,,,,,,,,,,,,,
,,,,,,,,,,,,,,,,,58a2952076c5b7000166150a,64,2022-02-12_13h48.57.825,lexical_decision_task_DD_L5,2021.2.3,Win32,60.7348922,,,,,,,,,,,,0.7796,1,,,,,,,,,,,,,,z,1,0.7796,,,,,,,,0.152171427,-0.43665324,0,0,0,,0,151,151,90,1,NEAST,C,old,z,./images/NEAST.png,,,,,,,,,,,,,,,,,,,,,,,,,,,,,,,,,,
,,,,,,,,,,,,,,,,,58a2952076c5b7000166150a,64,2022-02-12_13h48.57.825,lexical_decision_task_DD_L5,2021.2.3,Win32,60.7348922,,,,,,,,,,,,1.8167,0,,,,,,,,,,,,,,m,0,1.8167,,,,,,,,0.152171427,-0.43665324,0,0,0,,0,152,152,88,1,GLUSH,HB,old,z,./images/GLUSHHB.png,,,,,,,,,,,,,,,,,,,,,,,,,,,,,,,,,,
,,,,,,,,,,,,,,,,,58a2952076c5b7000166150a,64,2022-02-12_13h48.57.825,lexical_decision_task_DD_L5,2021.2.3,Win32,60.7348922,,,,,,,,,,,,0.9303,1,,,,,,,,,,,,,,m,1,0.9303,,,,,,,,0.152171427,-0.43665324,0,0,0,,0,153,153,64,1,BRIDE,LB,old,m,./images/BRIDELB.png,,,,,,,,,,,,,,,,,,,,,,,,,,,,,,,,,,
,,,,,,,,,,,,,,,,,58a2952076c5b7000166150a,64,2022-02-12_13h48.57.825,lexical_decision_task_DD_L5,2021.2.3,Win32,60.7348922,,,,,,,,,,,,1.1493,1,,,,,,,,,,,,,,m,1,1.1493,,,,,,,,0.152171427,-0.43665324,0,0,0,,0,154,154,3,1,CRATER,HB,old,m,./images/CRATERHB.png,,,,,,,,,,,,,,,,,,,,,,,,,,,,,,,,,,
,,,,,,,,,,,,,,,,,58a2952076c5b7000166150a,64,2022-02-12_13h48.57.825,lexical_decision_task_DD_L5,2021.2.3,Win32,60.7348922,,,,,,,,,,,,1.0631,1,,,,,,,,,,,,,,z,1,1.0631,,,,,,,,0.152171427,-0.43665324,0,0,0,,0,155,155,137,1,JOOST,LB,old,z,./images/JOOSTLB.png,,,,,,,,,,,,,,,,,,,,,,,,,,,,,,,,,,
,,,,,,,,,,,,,,,,,58a2952076c5b7000166150a,64,2022-02-12_13h48.57.825,lexical_decision_task_DD_L5,2021.2.3,Win32,60.7348922,,,,,,,,,,,,1.1313,1,,,,,,,,,,,,,,z,1,1.1313,,,,,,,,0.152171427,-0.43665324,0,0,0,,0,156,156,110,1,CRUNK,LB,old,z,./images/CRUNKLB.png,,,,,,,,,,,,,,,,,,,,,,,,,,,,,,,,,,
,,,,,,,,,,,,,,,,,58a2952076c5b7000166150a,64,2022-02-12_13h48.57.825,lexical_decision_task_DD_L5,2021.2.3,Win32,60.7348922,,,,,,,,,,,,1.1136,1,,,,,,,,,,,,,,z,1,1.1136,,,,,,,,0.152171427,-0.43665324,0,0,0,,0,157,157,145,1,LAMEL,HB,old,z,./images/LAMELHB.png,,,,,,,,,,,,,,,,,,,,,,,,,,,,,,,,,,
,,,,,,,,,,,,,,,,,58a2952076c5b7000166150a,64,2022-02-12_13h48.57.825,lexical_decision_task_DD_L5,2021.2.3,Win32,60.7348922,,,,,,,,,,,,1.131,1,,,,,,,,,,,,,,z,1,1.131,,,,,,,,0.152171427,-0.43665324,0,0,0,,0,158,158,128,1,GRIFT,LB,old,z,./images/GRIFTLB.png,,,,,,,,,,,,,,,,,,,,,,,,,,,,,,,,,,
,,,,,,,,,,,,,,,,,58a2952076c5b7000166150a,64,2022-02-12_13h48.57.825,lexical_decision_task_DD_L5,2021.2.3,Win32,60.7348922,,,,,,,,,,,,1.5478,1,,,,,,,,,,,,,,m,1,1.5478,,,,,,,,0.152171427,-0.43665324,0,0,0,,0,159,159,81,1,DRILL,HB,old,m,./images/DRILLHB.png,,,,,,,,,,,,,,,,,,,,,,,,,,,,,,,,,,
,,,,,,,,,,,,,,,,,58a2952076c5b7000166150a,64,2022-02-12_13h48.57.825,lexical_decision_task_DD_L5,2021.2.3,Win32,60.7348922,,,,,,,,,,,,0.7149,1,,,,,,,,,,,,,,m,1,0.7149,,,,,,,,0.152171427,-0.43665324,0,0,0,,0,160,160,25,1,CHALK,LB,old,m,./images/CHALKLB.png,,,,,,,,,,,,,,,,,,,,,,,,,,,,,,,,,,
,,,,,,,,,,,,,,,,,58a2952076c5b7000166150a,64,2022-02-12_13h48.57.825,lexical_decision_task_DD_L5,2021.2.3,Win32,60.7348922,,,,,,,,,,,,0.7481,1,,,,,,,,,,,,,,m,1,0.7481,,,,,,,,0.152171427,-0.43665324,0,0,0,,0,161,161,11,1,MEDAL,C,old,m,./images/MEDAL.png,,,,,,,,,,,,,,,,,,,,,,,,,,,,,,,,,,
,,,,,,,,,,,,,,,,,58a2952076c5b7000166150a,64,2022-02-12_13h48.57.825,lexical_decision_task_DD_L5,2021.2.3,Win32,60.7348922,,,,,,,,,,,,0.8801,1,,,,,,,,,,,,,,z,1,0.8801,,,,,,,,0.152171427,-0.43665324,0,0,0,,0,162,162,164,1,SGREW,LB,old,z,./images/SGREWLB.png,,,,,,,,,,,,,,,,,,,,,,,,,,,,,,,,,,
,,,,,,,,,,,,,,,,,58a2952076c5b7000166150a,64,2022-02-12_13h48.57.825,lexical_decision_task_DD_L5,2021.2.3,Win32,60.7348922,,,,,,,,,,,,1.3973,1,,,,,,,,,,,,,,m,1,1.3973,,,,,,,,0.152171427,-0.43665324,0,0,0,,0,163,163,60,1,CURRY,HB,old,m,./images/CURRYHB.png,,,,,,,,,,,,,,,,,,,,,,,,,,,,,,,,,,
,,,,,,,,,,,,,,,,,58a2952076c5b7000166150a,64,2022-02-12_13h48.57.825,lexical_decision_task_DD_L5,2021.2.3,Win32,60.7348922,,,,,,,,,,,,0.8971,1,,,,,,,,,,,,,,m,1,0.8971,,,,,,,,0.152171427,-0.43665324,0,0,0,,0,164,164,36,1,BOILER,HB,old,m,./images/BOILERHB.png,,,,,,,,,,,,,,,,,,,,,,,,,,,,,,,,,,
,,,,,,,,,,,,,,,,,58a2952076c5b7000166150a,64,2022-02-12_13h48.57.825,lexical_decision_task_DD_L5,2021.2.3,Win32,60.7348922,,,,,,,,,,,,0.8638,1,,,,,,,,,,,,,,z,1,0.8638,,,,,,,,0.152171427,-0.43665324,0,0,0,,0,165,165,146,1,MOOST,LB,old,z,./images/MOOSTLB.png,,,,,,,,,,,,,,,,,,,,,,,,,,,,,,,,,,
,,,,,,,,,,,,,,,,,58a2952076c5b7000166150a,64,2022-02-12_13h48.57.825,lexical_decision_task_DD_L5,2021.2.3,Win32,60.7348922,,,,,,,,,,,,0.7474,1,,,,,,,,,,,,,,m,1,0.7474,,,,,,,,0.152171427,-0.43665324,0,0,0,,0,166,166,59,1,BRUSH,C,old,m,./images/BRUSH.png,,,,,,,,,,,,,,,,,,,,,,,,,,,,,,,,,,
,,,,,,,,,,,,,,,,,58a2952076c5b7000166150a,64,2022-02-12_13h48.57.825,lexical_decision_task_DD_L5,2021.2.3,Win32,60.7348922,,,,,,,,,,,,0.9132,1,,,,,,,,,,,,,,m,1,0.9132,,,,,,,,0.152171427,-0.43665324,0,0,0,,0,167,167,39,1,CANDY,HB,old,m,./images/CANDYHB.png,,,,,,,,,,,,,,,,,,,,,,,,,,,,,,,,,,
,,,,,,,,,,,,,,,,,58a2952076c5b7000166150a,64,2022-02-12_13h48.57.825,lexical_decision_task_DD_L5,2021.2.3,Win32,60.7348922,,,,,,,,,,,,,,,,,,,,,,,,,,,,,,,,,,,,,,,,,,,,,,,,,How likely will it be that you will recognize the words presented slighly blurred on a scale of 0 (not likely) to 100 (most likely)?,,,,,0.000231642,-0.429241543,1,0,0,jol_adv,3,14.7187,0,0,0,1,1,,,,,,,,,,,,,,,,,,,,
,,,,,,,,,,,,,,,,,58a2952076c5b7000166150a,64,2022-02-12_13h48.57.825,lexical_decision_task_DD_L5,2021.2.3,Win32,60.7348922,,,,,,,,,,,,,,,,,,,,,,,,,,,,,,,,,,,,,,,,,,,,,,,,,How likely will it be that you will recognize the words presented clearly on a scale of 0 (not likely) to 100 (most likely)?,,,,,,,,,,,6,8.3922,0,1,1,0,1,,,,,,,,,,,,,,,,,,,,
,,,,,,,,,,,,,,,,,58a2952076c5b7000166150a,64,2022-02-12_13h48.57.825,lexical_decision_task_DD_L5,2021.2.3,Win32,60.7348922,,,,,,,,,,,,,,,,,,,,,,,,,,,,,,,,,,,,,,,,,,,,,,,,,How likely will it be that you will recognize the words presented very blurred on a scale of 0 (not likely) to 100 (most likely)?,,,,,,,,,,,1,6.9654,0,2,2,2,1,,,,,,,,,,,,,,,,,,,,
space,35.8861,0.847018115,-0.122582588,0,0,0,,,,,,1,test,"In the next phase you will be presented with the words from the the first phase. Your job is to decide whether you remember seeing the word or not. If you remember seeing the word press ""old"" or type ""m"". If you do not remember seeing the word press ""new"" or type ""z"". Please press the space bar or click on continue to begin. ",,,58a2952076c5b7000166150a,64,2022-02-12_13h48.57.825,lexical_decision_task_DD_L5,2021.2.3,Win32,60.7348922,,,,,,,,,,,,,,,,,,,,,,,,,,,,,,,,,,,,,,,,,,,,,,,,,,,,,,,,,,,,,,,,,,,0,0,0,0,1,,,,,,,,,,,,,,,
space,2.9255,0.864620782,-0.012333542,0,0,0,,,,,,1,test,"In the next phase you will be presented with the words from the the first phase. Your job is to decide whether you remember seeing the word or not. If you remember seeing the word press ""old"" or type ""m"". If you do not remember seeing the word press ""new"" or type ""z"". Please press the space bar or click on continue to begin. ",,,58a2952076c5b7000166150a,64,2022-02-12_13h48.57.825,lexical_decision_task_DD_L5,2021.2.3,Win32,60.7348922,,,,,,,,,,,,,,,,,,,,,,,,,,,,,,,,,,,,,,,,,,,,,,,,,,,,,,,,,,,,,,,,,,,1,0,1,0,1,,,,,,,,,,,,,,,
,,0.125304026,-0.388477211,1,0,0,,,,,,1,test,"In the next phase you will be presented with the words from the the first phase. Your job is to decide whether you remember seeing the word or not. If you remember seeing the word press ""old"" or type ""m"". If you do not remember seeing the word press ""new"" or type ""z"". Please press the space bar or click on continue to begin. ",,,58a2952076c5b7000166150a,64,2022-02-12_13h48.57.825,lexical_decision_task_DD_L5,2021.2.3,Win32,60.7348922,instr_done_button,,,,,,,,,,,,,,,,,,,,,,,,,,,,,,,,,,,,,,,,,,,,,,,,,,,,,,,,,,,,,,,,,,2,0,2,0,1,,,,,,,,,,,,,,,
,,0.000231642,-0.410712301,1,0,0,,,,,,1,test,"In the next phase you will be presented with the words from the the first phase. Your job is to decide whether you remember seeing the word or not. If you remember seeing the word press ""old"" or type ""m"". If you do not remember seeing the word press ""new"" or type ""z"". Please press the space bar or click on continue to begin. ",,,58a2952076c5b7000166150a,64,2022-02-12_13h48.57.825,lexical_decision_task_DD_L5,2021.2.3,Win32,60.7348922,instr_done_button,,,,,,,,,,,,,,,,,,,,,,,,,,,,,,,,,,,,,,,,,,,,,,,,,,,,,,,,,,,,,,,,,,3,0,3,0,1,,,,,,,,,,,,,,,
space,2.4027,0.88870891,-0.294904482,0,0,0,,,,,,1,test,"In the next phase you will be presented with the words from the the first phase. Your job is to decide whether you remember seeing the word or not. If you remember seeing the word press ""old"" or type ""m"". If you do not remember seeing the word press ""new"" or type ""z"". Please press the space bar or click on continue to begin. ",,,58a2952076c5b7000166150a,64,2022-02-12_13h48.57.825,lexical_decision_task_DD_L5,2021.2.3,Win32,60.7348922,,,,,,,,,,,,,,,,,,,,,,,,,,,,,,,,,,,,,,,,,,,,,,,,,,,,,,,,,,,,,,,,,,,4,0,4,0,1,,,,,,,,,,,,,,,
,,,,,,,,,,,,,,,,,58a2952076c5b7000166150a,64,2022-02-12_13h48.57.825,lexical_decision_task_DD_L5,2021.2.3,Win32,60.7348922,,,,,,,,,,,,2.6559,0,,,,,,,,,,,,,,,,,,,,,,,,0.88870891,-0.294904482,0,0,0,,,,,,,KIDNEY,HB,z,y,./images/KIDNEYHB.png,,,,,,,,,,,,,,,,,,,,m,0,2.6559,,,,,,,,0,0,0,105,1
,,,,,,,,,,,,,,,,,58a2952076c5b7000166150a,64,2022-02-12_13h48.57.825,lexical_decision_task_DD_L5,2021.2.3,Win32,60.7348922,,,,,,,,,,,,1.0038,0,,,,,,,,,,,,,,,,,,,,,,,,0.88870891,-0.294904482,0,0,0,,,,,,,FARMER,C,z,y,./images/FARMER.png,,,,,,,,,,,,,,,,,,,,m,0,1.0038,,,,,,,,0,1,1,149,1
,,,,,,,,,,,,,,,,,58a2952076c5b7000166150a,64,2022-02-12_13h48.57.825,lexical_decision_task_DD_L5,2021.2.3,Win32,60.7348922,,,,,,,,,,,,1.4565,1,,,,,,,,,,,,,,,,,,,,,,,,0.88870891,-0.294904482,0,0,0,,,,,,,DIVER,HB,m,y,./images/DIVERHB.png,,,,,,,,,,,,,,,,,,,,m,1,1.4565,,,,,,,,0,2,2,9,1
,,,,,,,,,,,,,,,,,58a2952076c5b7000166150a,64,2022-02-12_13h48.57.825,lexical_decision_task_DD_L5,2021.2.3,Win32,60.7348922,,,,,,,,,,,,1.3497,0,,,,,,,,,,,,,,,,,,,,,,,,0.88870891,-0.294904482,0,0,0,,,,,,,CRUMB,C,z,y,./images/CRUMB.png,,,,,,,,,,,,,,,,,,,,m,0,1.3497,,,,,,,,0,3,3,113,1
,,,,,,,,,,,,,,,,,58a2952076c5b7000166150a,64,2022-02-12_13h48.57.825,lexical_decision_task_DD_L5,2021.2.3,Win32,60.7348922,,,,,,,,,,,,0.7338,1,,,,,,,,,,,,,,,,,,,,,,,,0.88870891,-0.294904482,0,0,0,,,,,,,BRIDE,LB,m,y,./images/BRIDELB.png,,,,,,,,,,,,,,,,,,,,m,1,0.7338,,,,,,,,0,4,4,64,1
,,,,,,,,,,,,,,,,,58a2952076c5b7000166150a,64,2022-02-12_13h48.57.825,lexical_decision_task_DD_L5,2021.2.3,Win32,60.7348922,,,,,,,,,,,,0.9866,1,,,,,,,,,,,,,,,,,,,,,,,,0.88870891,-0.294904482,0,0,0,,,,,,,PEARL,LB,z,y,./images/PEARLLB.png,,,,,,,,,,,,,,,,,,,,z,1,0.9866,,,,,,,,0,5,5,130,1
,,,,,,,,,,,,,,,,,58a2952076c5b7000166150a,64,2022-02-12_13h48.57.825,lexical_decision_task_DD_L5,2021.2.3,Win32,60.7348922,,,,,,,,,,,,1.2255,1,,,,,,,,,,,,,,,,,,,,,,,,0.88870891,-0.294904482,0,0,0,,,,,,,DRUMS,LB,z,y,./images/DRUMSLB.png,,,,,,,,,,,,,,,,,,,,z,1,1.2255,,,,,,,,0,6,6,133,1
,,,,,,,,,,,,,,,,,58a2952076c5b7000166150a,64,2022-02-12_13h48.57.825,lexical_decision_task_DD_L5,2021.2.3,Win32,60.7348922,,,,,,,,,,,,0.9258,1,,,,,,,,,,,,,,,,,,,,,,,,0.88870891,-0.294904482,0,0,0,,,,,,,WALRUS,C,z,y,./images/WALRUS.png,,,,,,,,,,,,,,,,,,,,z,1,0.9258,,,,,,,,0,7,7,107,1
,,,,,,,,,,,,,,,,,58a2952076c5b7000166150a,64,2022-02-12_13h48.57.825,lexical_decision_task_DD_L5,2021.2.3,Win32,60.7348922,,,,,,,,,,,,0.9594,1,,,,,,,,,,,,,,,,,,,,,,,,0.88870891,-0.294904482,0,0,0,,,,,,,TWINS,HB,z,y,./images/TWINSHB.png,,,,,,,,,,,,,,,,,,,,z,1,0.9594,,,,,,,,0,8,8,144,1
,,,,,,,,,,,,,,,,,58a2952076c5b7000166150a,64,2022-02-12_13h48.57.825,lexical_decision_task_DD_L5,2021.2.3,Win32,60.7348922,,,,,,,,,,,,0.9171,1,,,,,,,,,,,,,,,,,,,,,,,,0.88870891,-0.294904482,0,0,0,,,,,,,RHINO,HB,z,y,./images/RHINOHB.png,,,,,,,,,,,,,,,,,,,,z,1,0.9171,,,,,,,,0,9,9,93,1
,,,,,,,,,,,,,,,,,58a2952076c5b7000166150a,64,2022-02-12_13h48.57.825,lexical_decision_task_DD_L5,2021.2.3,Win32,60.7348922,,,,,,,,,,,,0.7334,1,,,,,,,,,,,,,,,,,,,,,,,,0.88870891,-0.294904482,0,0,0,,,,,,,JUMPER,C,m,y,./images/JUMPER.png,,,,,,,,,,,,,,,,,,,,m,1,0.7334,,,,,,,,0,10,10,74,1
,,,,,,,,,,,,,,,,,58a2952076c5b7000166150a,64,2022-02-12_13h48.57.825,lexical_decision_task_DD_L5,2021.2.3,Win32,60.7348922,,,,,,,,,,,,1.2009,1,,,,,,,,,,,,,,,,,,,,,,,,0.88870891,-0.294904482,0,0,0,,,,,,,ARROW,HB,m,y,./images/ARROWHB.png,,,,,,,,,,,,,,,,,,,,m,1,1.2009,,,,,,,,0,11,11,69,1
,,,,,,,,,,,,,,,,,58a2952076c5b7000166150a,64,2022-02-12_13h48.57.825,lexical_decision_task_DD_L5,2021.2.3,Win32,60.7348922,,,,,,,,,,,,0.7167,1,,,,,,,,,,,,,,,,,,,,,,,,0.88870891,-0.294904482,0,0,0,,,,,,,WALNUT,HB,m,y,./images/WALNUTHB.png,,,,,,,,,,,,,,,,,,,,m,1,0.7167,,,,,,,,0,12,12,0,1
,,,,,,,,,,,,,,,,,58a2952076c5b7000166150a,64,2022-02-12_13h48.57.825,lexical_decision_task_DD_L5,2021.2.3,Win32,60.7348922,,,,,,,,,,,,0.9092,1,,,,,,,,,,,,,,,,,,,,,,,,0.88870891,-0.294904482,0,0,0,,,,,,,SHELF,HB,z,y,./images/SHELFHB.png,,,,,,,,,,,,,,,,,,,,z,1,0.9092,,,,,,,,0,13,13,123,1
,,,,,,,,,,,,,,,,,58a2952076c5b7000166150a,64,2022-02-12_13h48.57.825,lexical_decision_task_DD_L5,2021.2.3,Win32,60.7348922,,,,,,,,,,,,0.9876,1,,,,,,,,,,,,,,,,,,,,,,,,0.88870891,-0.294904482,0,0,0,,,,,,,URINE,LB,z,y,./images/URINELB.png,,,,,,,,,,,,,,,,,,,,z,1,0.9876,,,,,,,,0,14,14,154,1
,,,,,,,,,,,,,,,,,58a2952076c5b7000166150a,64,2022-02-12_13h48.57.825,lexical_decision_task_DD_L5,2021.2.3,Win32,60.7348922,,,,,,,,,,,,0.8832,1,,,,,,,,,,,,,,,,,,,,,,,,0.88870891,-0.294904482,0,0,0,,,,,,,JAGUAR,HB,z,y,./images/JAGUARHB.png,,,,,,,,,,,,,,,,,,,,z,1,0.8832,,,,,,,,0,15,15,102,1
,,,,,,,,,,,,,,,,,58a2952076c5b7000166150a,64,2022-02-12_13h48.57.825,lexical_decision_task_DD_L5,2021.2.3,Win32,60.7348922,,,,,,,,,,,,0.9874,1,,,,,,,,,,,,,,,,,,,,,,,,0.88870891,-0.294904482,0,0,0,,,,,,,KITTEN,HB,z,y,./images/KITTENHB.png,,,,,,,,,,,,,,,,,,,,z,1,0.9874,,,,,,,,0,16,16,129,1
,,,,,,,,,,,,,,,,,58a2952076c5b7000166150a,64,2022-02-12_13h48.57.825,lexical_decision_task_DD_L5,2021.2.3,Win32,60.7348922,,,,,,,,,,,,0.8012,1,,,,,,,,,,,,,,,,,,,,,,,,0.88870891,-0.294904482,0,0,0,,,,,,,BASKET,C,m,y,./images/BASKET.png,,,,,,,,,,,,,,,,,,,,m,1,0.8012,,,,,,,,0,17,17,44,1
,,,,,,,,,,,,,,,,,58a2952076c5b7000166150a,64,2022-02-12_13h48.57.825,lexical_decision_task_DD_L5,2021.2.3,Win32,60.7348922,,,,,,,,,,,,0.9674,1,,,,,,,,,,,,,,,,,,,,,,,,0.88870891,-0.294904482,0,0,0,,,,,,,STOVE,C,m,y,./images/STOVE.png,,,,,,,,,,,,,,,,,,,,m,1,0.9674,,,,,,,,0,18,18,2,1
,,,,,,,,,,,,,,,,,58a2952076c5b7000166150a,64,2022-02-12_13h48.57.825,lexical_decision_task_DD_L5,2021.2.3,Win32,60.7348922,,,,,,,,,,,,1.0057,1,,,,,,,,,,,,,,,,,,,,,,,,0.88870891,-0.294904482,0,0,0,,,,,,,FOLDER,HB,z,y,./images/FOLDERHB.png,,,,,,,,,,,,,,,,,,,,z,1,1.0057,,,,,,,,0,19,19,126,1
,,,,,,,,,,,,,,,,,58a2952076c5b7000166150a,64,2022-02-12_13h48.57.825,lexical_decision_task_DD_L5,2021.2.3,Win32,60.7348922,,,,,,,,,,,,1.0838,1,,,,,,,,,,,,,,,,,,,,,,,,0.88870891,-0.294904482,0,0,0,,,,,,,SWING,LB,z,y,./images/SWINGLB.png,,,,,,,,,,,,,,,,,,,,z,1,1.0838,,,,,,,,0,20,20,124,1
,,,,,,,,,,,,,,,,,58a2952076c5b7000166150a,64,2022-02-12_13h48.57.825,lexical_decision_task_DD_L5,2021.2.3,Win32,60.7348922,,,,,,,,,,,,1.0509,1,,,,,,,,,,,,,,,,,,,,,,,,0.88870891,-0.294904482,0,0,0,,,,,,,MUSCLE,LB,z,y,./images/MUSCLELB.png,,,,,,,,,,,,,,,,,,,,z,1,1.0509,,,,,,,,0,21,21,88,1
,,,,,,,,,,,,,,,,,58a2952076c5b7000166150a,64,2022-02-12_13h48.57.825,lexical_decision_task_DD_L5,2021.2.3,Win32,60.7348922,,,,,,,,,,,,0.8547,0,,,,,,,,,,,,,,,,,,,,,,,,0.88870891,-0.294904482,0,0,0,,,,,,,BABOON,LB,z,y,./images/BABOONLB.png,,,,,,,,,,,,,,,,,,,,m,0,0.8547,,,,,,,,0,22,22,142,1
,,,,,,,,,,,,,,,,,58a2952076c5b7000166150a,64,2022-02-12_13h48.57.825,lexical_decision_task_DD_L5,2021.2.3,Win32,60.7348922,,,,,,,,,,,,1.1159,1,,,,,,,,,,,,,,,,,,,,,,,,0.88870891,-0.294904482,0,0,0,,,,,,,PICKLE,C,z,y,./images/PICKLE.png,,,,,,,,,,,,,,,,,,,,z,1,1.1159,,,,,,,,0,23,23,98,1
,,,,,,,,,,,,,,,,,58a2952076c5b7000166150a,64,2022-02-12_13h48.57.825,lexical_decision_task_DD_L5,2021.2.3,Win32,60.7348922,,,,,,,,,,,,0.9706,1,,,,,,,,,,,,,,,,,,,,,,,,0.88870891,-0.294904482,0,0,0,,,,,,,BANANA,LB,m,y,./images/BANANALB.png,,,,,,,,,,,,,,,,,,,,m,1,0.9706,,,,,,,,0,24,24,70,1
,,,,,,,,,,,,,,,,,58a2952076c5b7000166150a,64,2022-02-12_13h48.57.825,lexical_decision_task_DD_L5,2021.2.3,Win32,60.7348922,,,,,,,,,,,,1.1175,1,,,,,,,,,,,,,,,,,,,,,,,,0.88870891,-0.294904482,0,0,0,,,,,,,GARDEN,LB,m,y,./images/GARDENLB.png,,,,,,,,,,,,,,,,,,,,m,1,1.1175,,,,,,,,0,25,25,10,1
,,,,,,,,,,,,,,,,,58a2952076c5b7000166150a,64,2022-02-12_13h48.57.825,lexical_decision_task_DD_L5,2021.2.3,Win32,60.7348922,,,,,,,,,,,,1.272,1,,,,,,,,,,,,,,,,,,,,,,,,0.88870891,-0.294904482,0,0,0,,,,,,,CRUST,LB,z,y,./images/CRUSTLB.png,,,,,,,,,,,,,,,,,,,,z,1,1.272,,,,,,,,0,26,26,163,1
,,,,,,,,,,,,,,,,,58a2952076c5b7000166150a,64,2022-02-12_13h48.57.825,lexical_decision_task_DD_L5,2021.2.3,Win32,60.7348922,,,,,,,,,,,,1.2317,0,,,,,,,,,,,,,,,,,,,,,,,,0.88870891,-0.294904482,0,0,0,,,,,,,GLOVE,LB,m,y,./images/GLOVELB.png,,,,,,,,,,,,,,,,,,,,z,0,1.2317,,,,,,,,0,27,27,73,1
,,,,,,,,,,,,,,,,,58a2952076c5b7000166150a,64,2022-02-12_13h48.57.825,lexical_decision_task_DD_L5,2021.2.3,Win32,60.7348922,,,,,,,,,,,,1.2555,1,,,,,,,,,,,,,,,,,,,,,,,,0.88870891,-0.294904482,0,0,0,,,,,,,PEBBLE,LB,m,y,./images/PEBBLELB.png,,,,,,,,,,,,,,,,,,,,m,1,1.2555,,,,,,,,0,28,28,82,1
,,,,,,,,,,,,,,,,,58a2952076c5b7000166150a,64,2022-02-12_13h48.57.825,lexical_decision_task_DD_L5,2021.2.3,Win32,60.7348922,,,,,,,,,,,,0.8333,1,,,,,,,,,,,,,,,,,,,,,,,,0.88870891,-0.294904482,0,0,0,,,,,,,WHISKY,C,m,y,./images/WHISKY.png,,,,,,,,,,,,,,,,,,,,m,1,0.8333,,,,,,,,0,29,29,83,1
,,,,,,,,,,,,,,,,,58a2952076c5b7000166150a,64,2022-02-12_13h48.57.825,lexical_decision_task_DD_L5,2021.2.3,Win32,60.7348922,,,,,,,,,,,,0.9178,1,,,,,,,,,,,,,,,,,,,,,,,,0.88870891,-0.294904482,0,0,0,,,,,,,STATUE,HB,m,y,./images/STATUEHB.png,,,,,,,,,,,,,,,,,,,,m,1,0.9178,,,,,,,,0,30,30,66,1
,,,,,,,,,,,,,,,,,58a2952076c5b7000166150a,64,2022-02-12_13h48.57.825,lexical_decision_task_DD_L5,2021.2.3,Win32,60.7348922,,,,,,,,,,,,0.9336,1,,,,,,,,,,,,,,,,,,,,,,,,0.88870891,-0.294904482,0,0,0,,,,,,,PIMPLE,C,z,y,./images/PIMPLE.png,,,,,,,,,,,,,,,,,,,,z,1,0.9336,,,,,,,,0,31,31,155,1
,,,,,,,,,,,,,,,,,58a2952076c5b7000166150a,64,2022-02-12_13h48.57.825,lexical_decision_task_DD_L5,2021.2.3,Win32,60.7348922,,,,,,,,,,,,0.9503,1,,,,,,,,,,,,,,,,,,,,,,,,0.88870891,-0.294904482,0,0,0,,,,,,,TORCH,C,z,y,./images/TORCH.png,,,,,,,,,,,,,,,,,,,,z,1,0.9503,,,,,,,,0,32,32,152,1
,,,,,,,,,,,,,,,,,58a2952076c5b7000166150a,64,2022-02-12_13h48.57.825,lexical_decision_task_DD_L5,2021.2.3,Win32,60.7348922,,,,,,,,,,,,1.1007,1,,,,,,,,,,,,,,,,,,,,,,,,0.88870891,-0.294904482,0,0,0,,,,,,,POODLE,HB,z,y,./images/POODLEHB.png,,,,,,,,,,,,,,,,,,,,z,1,1.1007,,,,,,,,0,33,33,165,1
,,,,,,,,,,,,,,,,,58a2952076c5b7000166150a,64,2022-02-12_13h48.57.825,lexical_decision_task_DD_L5,2021.2.3,Win32,60.7348922,,,,,,,,,,,,1.2692,0,,,,,,,,,,,,,,,,,,,,,,,,0.88870891,-0.294904482,0,0,0,,,,,,,SHIELD,HB,m,y,./images/SHIELDHB.png,,,,,,,,,,,,,,,,,,,,z,0,1.2692,,,,,,,,0,34,34,48,1
,,,,,,,,,,,,,,,,,58a2952076c5b7000166150a,64,2022-02-12_13h48.57.825,lexical_decision_task_DD_L5,2021.2.3,Win32,60.7348922,,,,,,,,,,,,0.9847,1,,,,,,,,,,,,,,,,,,,,,,,,0.88870891,-0.294904482,0,0,0,,,,,,,LITTER,HB,z,y,./images/LITTERHB.png,,,,,,,,,,,,,,,,,,,,z,1,0.9847,,,,,,,,0,35,35,162,1
,,,,,,,,,,,,,,,,,58a2952076c5b7000166150a,64,2022-02-12_13h48.57.825,lexical_decision_task_DD_L5,2021.2.3,Win32,60.7348922,,,,,,,,,,,,1.4172,0,,,,,,,,,,,,,,,,,,,,,,,,0.88870891,-0.294904482,0,0,0,,,,,,,ALLEY,LB,m,y,./images/ALLEYLB.png,,,,,,,,,,,,,,,,,,,,z,0,1.4172,,,,,,,,0,36,36,55,1
,,,,,,,,,,,,,,,,,58a2952076c5b7000166150a,64,2022-02-12_13h48.57.825,lexical_decision_task_DD_L5,2021.2.3,Win32,60.7348922,,,,,,,,,,,,1.0511,1,,,,,,,,,,,,,,,,,,,,,,,,0.88870891,-0.294904482,0,0,0,,,,,,,BURIAL,C,z,y,./images/BURIAL.png,,,,,,,,,,,,,,,,,,,,z,1,1.0511,,,,,,,,0,37,37,143,1
,,,,,,,,,,,,,,,,,58a2952076c5b7000166150a,64,2022-02-12_13h48.57.825,lexical_decision_task_DD_L5,2021.2.3,Win32,60.7348922,,,,,,,,,,,,0.8058,0,,,,,,,,,,,,,,,,,,,,,,,,0.88870891,-0.294904482,0,0,0,,,,,,,CARPET,C,z,y,./images/CARPET.png,,,,,,,,,,,,,,,,,,,,m,0,0.8058,,,,,,,,0,38,38,137,1
,,,,,,,,,,,,,,,,,58a2952076c5b7000166150a,64,2022-02-12_13h48.57.825,lexical_decision_task_DD_L5,2021.2.3,Win32,60.7348922,,,,,,,,,,,,1.1068,0,,,,,,,,,,,,,,,,,,,,,,,,0.88870891,-0.294904482,0,0,0,,,,,,,SCREW,HB,z,y,./images/SCREWHB.png,,,,,,,,,,,,,,,,,,,,m,0,1.1068,,,,,,,,0,39,39,108,1
,,,,,,,,,,,,,,,,,58a2952076c5b7000166150a,64,2022-02-12_13h48.57.825,lexical_decision_task_DD_L5,2021.2.3,Win32,60.7348922,,,,,,,,,,,,0.9252,1,,,,,,,,,,,,,,,,,,,,,,,,0.88870891,-0.294904482,0,0,0,,,,,,,BUBBLE,C,m,y,./images/BUBBLE.png,,,,,,,,,,,,,,,,,,,,m,1,0.9252,,,,,,,,0,40,40,71,1
,,,,,,,,,,,,,,,,,58a2952076c5b7000166150a,64,2022-02-12_13h48.57.825,lexical_decision_task_DD_L5,2021.2.3,Win32,60.7348922,,,,,,,,,,,,1.2999,1,,,,,,,,,,,,,,,,,,,,,,,,0.88870891,-0.294904482,0,0,0,space,,,,,,GREASE,HB,z,y,./images/GREASEHB.png,14.5238,,,,,,,,,,,,,,,,,,,z,1,1.2999,,,,,,,,0,41,41,99,1
,,,,,,,,,,,,,,,,,58a2952076c5b7000166150a,64,2022-02-12_13h48.57.825,lexical_decision_task_DD_L5,2021.2.3,Win32,60.7348922,,,,,,,,,,,,1.1326,1,,,,,,,,,,,,,,,,,,,,,,,,0.88870891,-0.294904482,0,0,0,,,,,,,BELLY,LB,z,y,./images/BELLYLB.png,,,,,,,,,,,,,,,,,,,,z,1,1.1326,,,,,,,,0,42,42,94,1
,,,,,,,,,,,,,,,,,58a2952076c5b7000166150a,64,2022-02-12_13h48.57.825,lexical_decision_task_DD_L5,2021.2.3,Win32,60.7348922,,,,,,,,,,,,0.7846,1,,,,,,,,,,,,,,,,,,,,,,,,0.88870891,-0.294904482,0,0,0,,,,,,,HAMMER,HB,m,y,./images/HAMMERHB.png,,,,,,,,,,,,,,,,,,,,m,1,0.7846,,,,,,,,0,43,43,75,1
,,,,,,,,,,,,,,,,,58a2952076c5b7000166150a,64,2022-02-12_13h48.57.825,lexical_decision_task_DD_L5,2021.2.3,Win32,60.7348922,,,,,,,,,,,,1.2229,0,,,,,,,,,,,,,,,,,,,,,,,,0.88870891,-0.294904482,0,0,0,,,,,,,JUNGLE,C,z,y,./images/JUNGLE.png,,,,,,,,,,,,,,,,,,,,m,0,1.2229,,,,,,,,0,44,44,167,1
,,,,,,,,,,,,,,,,,58a2952076c5b7000166150a,64,2022-02-12_13h48.57.825,lexical_decision_task_DD_L5,2021.2.3,Win32,60.7348922,,,,,,,,,,,,0.6907,1,,,,,,,,,,,,,,,,,,,,,,,,0.88870891,-0.294904482,0,0,0,,,,,,,BROOM,HB,m,y,./images/BROOMHB.png,,,,,,,,,,,,,,,,,,,,m,1,0.6907,,,,,,,,0,45,45,78,1
,,,,,,,,,,,,,,,,,58a2952076c5b7000166150a,64,2022-02-12_13h48.57.825,lexical_decision_task_DD_L5,2021.2.3,Win32,60.7348922,,,,,,,,,,,,0.8377,1,,,,,,,,,,,,,,,,,,,,,,,,0.88870891,-0.294904482,0,0,0,,,,,,,SAUNA,HB,m,y,./images/SAUNAHB.png,,,,,,,,,,,,,,,,,,,,m,1,0.8377,,,,,,,,0,46,46,33,1
,,,,,,,,,,,,,,,,,58a2952076c5b7000166150a,64,2022-02-12_13h48.57.825,lexical_decision_task_DD_L5,2021.2.3,Win32,60.7348922,,,,,,,,,,,,0.8164,1,,,,,,,,,,,,,,,,,,,,,,,,0.88870891,-0.294904482,0,0,0,,,,,,,CRATER,HB,m,y,./images/CRATERHB.png,,,,,,,,,,,,,,,,,,,,m,1,0.8164,,,,,,,,0,47,47,3,1
,,,,,,,,,,,,,,,,,58a2952076c5b7000166150a,64,2022-02-12_13h48.57.825,lexical_decision_task_DD_L5,2021.2.3,Win32,60.7348922,,,,,,,,,,,,0.834,1,,,,,,,,,,,,,,,,,,,,,,,,0.88870891,-0.294904482,0,0,0,,,,,,,STEAK,LB,m,y,./images/STEAKLB.png,,,,,,,,,,,,,,,,,,,,m,1,0.834,,,,,,,,0,48,48,31,1
,,,,,,,,,,,,,,,,,58a2952076c5b7000166150a,64,2022-02-12_13h48.57.825,lexical_decision_task_DD_L5,2021.2.3,Win32,60.7348922,,,,,,,,,,,,0.8579,1,,,,,,,,,,,,,,,,,,,,,,,,0.88870891,-0.294904482,0,0,0,,,,,,,CEMENT,C,z,y,./images/CEMENT.png,,,,,,,,,,,,,,,,,,,,z,1,0.8579,,,,,,,,0,49,49,158,1
,,,,,,,,,,,,,,,,,58a2952076c5b7000166150a,64,2022-02-12_13h48.57.825,lexical_decision_task_DD_L5,2021.2.3,Win32,60.7348922,,,,,,,,,,,,0.9003,1,,,,,,,,,,,,,,,,,,,,,,,,0.88870891,-0.294904482,0,0,0,,,,,,,BOXER,LB,m,y,./images/BOXERLB.png,,,,,,,,,,,,,,,,,,,,m,1,0.9003,,,,,,,,0,50,50,4,1
,,,,,,,,,,,,,,,,,58a2952076c5b7000166150a,64,2022-02-12_13h48.57.825,lexical_decision_task_DD_L5,2021.2.3,Win32,60.7348922,,,,,,,,,,,,1.0481,1,,,,,,,,,,,,,,,,,,,,,,,,0.88870891,-0.294904482,0,0,0,,,,,,,PACKET,C,z,y,./images/PACKET.png,,,,,,,,,,,,,,,,,,,,z,1,1.0481,,,,,,,,0,51,51,140,1
,,,,,,,,,,,,,,,,,58a2952076c5b7000166150a,64,2022-02-12_13h48.57.825,lexical_decision_task_DD_L5,2021.2.3,Win32,60.7348922,,,,,,,,,,,,0.8691,1,,,,,,,,,,,,,,,,,,,,,,,,0.88870891,-0.294904482,0,0,0,,,,,,,HEATER,C,m,y,./images/HEATER.png,,,,,,,,,,,,,,,,,,,,m,1,0.8691,,,,,,,,0,52,52,56,1
,,,,,,,,,,,,,,,,,58a2952076c5b7000166150a,64,2022-02-12_13h48.57.825,lexical_decision_task_DD_L5,2021.2.3,Win32,60.7348922,,,,,,,,,,,,0.9179,0,,,,,,,,,,,,,,,,,,,,,,,,0.88870891,-0.294904482,0,0,0,,,,,,,CRADLE,C,z,y,./images/CRADLE.png,,,,,,,,,,,,,,,,,,,,m,0,0.9179,,,,,,,,0,53,53,104,1
,,,,,,,,,,,,,,,,,58a2952076c5b7000166150a,64,2022-02-12_13h48.57.825,lexical_decision_task_DD_L5,2021.2.3,Win32,60.7348922,,,,,,,,,,,,1.2184,1,,,,,,,,,,,,,,,,,,,,,,,,0.88870891,-0.294904482,0,0,0,,,,,,,PILOT,C,m,y,./images/PILOT.png,,,,,,,,,,,,,,,,,,,,m,1,1.2184,,,,,,,,0,54,54,50,1
,,,,,,,,,,,,,,,,,58a2952076c5b7000166150a,64,2022-02-12_13h48.57.825,lexical_decision_task_DD_L5,2021.2.3,Win32,60.7348922,,,,,,,,,,,,1.3854,0,,,,,,,,,,,,,,,,,,,,,,,,0.88870891,-0.294904482,0,0,0,,,,,,,FENCE,C,m,y,./images/FENCE.png,,,,,,,,,,,,,,,,,,,,z,0,1.3854,,,,,,,,0,55,55,14,1
,,,,,,,,,,,,,,,,,58a2952076c5b7000166150a,64,2022-02-12_13h48.57.825,lexical_decision_task_DD_L5,2021.2.3,Win32,60.7348922,,,,,,,,,,,,1.0176,1,,,,,,,,,,,,,,,,,,,,,,,,0.88870891,-0.294904482,0,0,0,,,,,,,SPORT,HB,z,y,./images/SPORTHB.png,,,,,,,,,,,,,,,,,,,,z,1,1.0176,,,,,,,,0,56,56,132,1
,,,,,,,,,,,,,,,,,58a2952076c5b7000166150a,64,2022-02-12_13h48.57.825,lexical_decision_task_DD_L5,2021.2.3,Win32,60.7348922,,,,,,,,,,,,0.8676,1,,,,,,,,,,,,,,,,,,,,,,,,0.88870891,-0.294904482,0,0,0,,,,,,,ARTIST,LB,m,y,./images/ARTISTLB.png,,,,,,,,,,,,,,,,,,,,m,1,0.8676,,,,,,,,0,57,57,61,1
,,,,,,,,,,,,,,,,,58a2952076c5b7000166150a,64,2022-02-12_13h48.57.825,lexical_decision_task_DD_L5,2021.2.3,Win32,60.7348922,,,,,,,,,,,,2.4857,0,,,,,,,,,,,,,,,,,,,,,,,,0.88870891,-0.294904482,0,0,0,,,,,,,NOOSE,HB,z,y,./images/NOOSEHB.png,,,,,,,,,,,,,,,,,,,,m,0,2.4857,,,,,,,,0,58,58,156,1
,,,,,,,,,,,,,,,,,58a2952076c5b7000166150a,64,2022-02-12_13h48.57.825,lexical_decision_task_DD_L5,2021.2.3,Win32,60.7348922,,,,,,,,,,,,1.6187,1,,,,,,,,,,,,,,,,,,,,,,,,0.88870891,-0.294904482,0,0,0,,,,,,,ENGINE,C,m,y,./images/ENGINE.png,,,,,,,,,,,,,,,,,,,,m,1,1.6187,,,,,,,,0,59,59,38,1
,,,,,,,,,,,,,,,,,58a2952076c5b7000166150a,64,2022-02-12_13h48.57.825,lexical_decision_task_DD_L5,2021.2.3,Win32,60.7348922,,,,,,,,,,,,1.134,1,,,,,,,,,,,,,,,,,,,,,,,,0.88870891,-0.294904482,0,0,0,,,,,,,MALLET,C,z,y,./images/MALLET.png,,,,,,,,,,,,,,,,,,,,z,1,1.134,,,,,,,,0,60,60,134,1
,,,,,,,,,,,,,,,,,58a2952076c5b7000166150a,64,2022-02-12_13h48.57.825,lexical_decision_task_DD_L5,2021.2.3,Win32,60.7348922,,,,,,,,,,,,0.8342,1,,,,,,,,,,,,,,,,,,,,,,,,0.88870891,-0.294904482,0,0,0,,,,,,,CANOE,LB,m,y,./images/CANOELB.png,,,,,,,,,,,,,,,,,,,,m,1,0.8342,,,,,,,,0,61,61,58,1
,,,,,,,,,,,,,,,,,58a2952076c5b7000166150a,64,2022-02-12_13h48.57.825,lexical_decision_task_DD_L5,2021.2.3,Win32,60.7348922,,,,,,,,,,,,1.1507,1,,,,,,,,,,,,,,,,,,,,,,,,0.88870891,-0.294904482,0,0,0,,,,,,,CLIFF,C,m,y,./images/CLIFF.png,,,,,,,,,,,,,,,,,,,,m,1,1.1507,,,,,,,,0,62,62,8,1
,,,,,,,,,,,,,,,,,58a2952076c5b7000166150a,64,2022-02-12_13h48.57.825,lexical_decision_task_DD_L5,2021.2.3,Win32,60.7348922,,,,,,,,,,,,0.9179,1,,,,,,,,,,,,,,,,,,,,,,,,0.88870891,-0.294904482,0,0,0,,,,,,,MUMMY,LB,m,y,./images/MUMMYLB.png,,,,,,,,,,,,,,,,,,,,m,1,0.9179,,,,,,,,0,63,63,46,1
,,,,,,,,,,,,,,,,,58a2952076c5b7000166150a,64,2022-02-12_13h48.57.825,lexical_decision_task_DD_L5,2021.2.3,Win32,60.7348922,,,,,,,,,,,,1.2348,0,,,,,,,,,,,,,,,,,,,,,,,,0.88870891,-0.294904482,0,0,0,,,,,,,VALLEY,C,m,y,./images/VALLEY.png,,,,,,,,,,,,,,,,,,,,z,0,1.2348,,,,,,,,0,64,64,68,1
,,,,,,,,,,,,,,,,,58a2952076c5b7000166150a,64,2022-02-12_13h48.57.825,lexical_decision_task_DD_L5,2021.2.3,Win32,60.7348922,,,,,,,,,,,,0.8015,0,,,,,,,,,,,,,,,,,,,,,,,,0.88870891,-0.294904482,0,0,0,,,,,,,BARREL,C,z,y,./images/BARREL.png,,,,,,,,,,,,,,,,,,,,m,0,0.8015,,,,,,,,0,65,65,116,1
,,,,,,,,,,,,,,,,,58a2952076c5b7000166150a,64,2022-02-12_13h48.57.825,lexical_decision_task_DD_L5,2021.2.3,Win32,60.7348922,,,,,,,,,,,,1.101,0,,,,,,,,,,,,,,,,,,,,,,,,0.88870891,-0.294904482,0,0,0,,,,,,,FLESH,HB,m,y,./images/FLESHHB.png,,,,,,,,,,,,,,,,,,,,z,0,1.101,,,,,,,,0,66,66,24,1
,,,,,,,,,,,,,,,,,58a2952076c5b7000166150a,64,2022-02-12_13h48.57.825,lexical_decision_task_DD_L5,2021.2.3,Win32,60.7348922,,,,,,,,,,,,1.2015,1,,,,,,,,,,,,,,,,,,,,,,,,0.88870891,-0.294904482,0,0,0,,,,,,,SLOPE,HB,m,y,./images/SLOPEHB.png,,,,,,,,,,,,,,,,,,,,m,1,1.2015,,,,,,,,0,67,67,30,1
,,,,,,,,,,,,,,,,,58a2952076c5b7000166150a,64,2022-02-12_13h48.57.825,lexical_decision_task_DD_L5,2021.2.3,Win32,60.7348922,,,,,,,,,,,,0.9175,1,,,,,,,,,,,,,,,,,,,,,,,,0.88870891,-0.294904482,0,0,0,,,,,,,PENCE,LB,z,y,./images/PENCELB.png,,,,,,,,,,,,,,,,,,,,z,1,0.9175,,,,,,,,0,68,68,100,1
,,,,,,,,,,,,,,,,,58a2952076c5b7000166150a,64,2022-02-12_13h48.57.825,lexical_decision_task_DD_L5,2021.2.3,Win32,60.7348922,,,,,,,,,,,,0.9178,1,,,,,,,,,,,,,,,,,,,,,,,,0.88870891,-0.294904482,0,0,0,,,,,,,CLOUD,C,m,y,./images/CLOUD.png,,,,,,,,,,,,,,,,,,,,m,1,0.9178,,,,,,,,0,69,69,26,1
,,,,,,,,,,,,,,,,,58a2952076c5b7000166150a,64,2022-02-12_13h48.57.825,lexical_decision_task_DD_L5,2021.2.3,Win32,60.7348922,,,,,,,,,,,,0.8009,1,,,,,,,,,,,,,,,,,,,,,,,,0.88870891,-0.294904482,0,0,0,,,,,,,GRAPE,LB,m,y,./images/GRAPELB.png,,,,,,,,,,,,,,,,,,,,m,1,0.8009,,,,,,,,0,70,70,16,1
,,,,,,,,,,,,,,,,,58a2952076c5b7000166150a,64,2022-02-12_13h48.57.825,lexical_decision_task_DD_L5,2021.2.3,Win32,60.7348922,,,,,,,,,,,,0.9331,1,,,,,,,,,,,,,,,,,,,,,,,,0.88870891,-0.294904482,0,0,0,,,,,,,CANDY,HB,m,y,./images/CANDYHB.png,,,,,,,,,,,,,,,,,,,,m,1,0.9331,,,,,,,,0,71,71,39,1
,,,,,,,,,,,,,,,,,58a2952076c5b7000166150a,64,2022-02-12_13h48.57.825,lexical_decision_task_DD_L5,2021.2.3,Win32,60.7348922,,,,,,,,,,,,1.0852,1,,,,,,,,,,,,,,,,,,,,,,,,0.88870891,-0.294904482,0,0,0,,,,,,,COOKER,HB,z,y,./images/COOKERHB.png,,,,,,,,,,,,,,,,,,,,z,1,1.0852,,,,,,,,0,72,72,153,1
,,,,,,,,,,,,,,,,,58a2952076c5b7000166150a,64,2022-02-12_13h48.57.825,lexical_decision_task_DD_L5,2021.2.3,Win32,60.7348922,,,,,,,,,,,,1.001,0,,,,,,,,,,,,,,,,,,,,,,,,0.88870891,-0.294904482,0,0,0,,,,,,,ONION,HB,z,y,./images/ONIONHB.png,,,,,,,,,,,,,,,,,,,,m,0,1.001,,,,,,,,0,73,73,135,1
,,,,,,,,,,,,,,,,,58a2952076c5b7000166150a,64,2022-02-12_13h48.57.825,lexical_decision_task_DD_L5,2021.2.3,Win32,60.7348922,,,,,,,,,,,,0.8424,1,,,,,,,,,,,,,,,,,,,,,,,,0.88870891,-0.294904482,0,0,0,,,,,,,DANCER,HB,m,y,./images/DANCERHB.png,,,,,,,,,,,,,,,,,,,,m,1,0.8424,,,,,,,,0,74,74,21,1
,,,,,,,,,,,,,,,,,58a2952076c5b7000166150a,64,2022-02-12_13h48.57.825,lexical_decision_task_DD_L5,2021.2.3,Win32,60.7348922,,,,,,,,,,,,0.9195,1,,,,,,,,,,,,,,,,,,,,,,,,0.88870891,-0.294904482,0,0,0,,,,,,,STORM,HB,z,y,./images/STORMHB.png,,,,,,,,,,,,,,,,,,,,z,1,0.9195,,,,,,,,0,75,75,114,1
,,,,,,,,,,,,,,,,,58a2952076c5b7000166150a,64,2022-02-12_13h48.57.825,lexical_decision_task_DD_L5,2021.2.3,Win32,60.7348922,,,,,,,,,,,,0.9175,1,,,,,,,,,,,,,,,,,,,,,,,,0.88870891,-0.294904482,0,0,0,,,,,,,BUNNY,LB,m,y,./images/BUNNYLB.png,,,,,,,,,,,,,,,,,,,,m,1,0.9175,,,,,,,,0,76,76,13,1
,,,,,,,,,,,,,,,,,58a2952076c5b7000166150a,64,2022-02-12_13h48.57.825,lexical_decision_task_DD_L5,2021.2.3,Win32,60.7348922,,,,,,,,,,,,0.9675,1,,,,,,,,,,,,,,,,,,,,,,,,0.88870891,-0.294904482,0,0,0,,,,,,,SAUCE,HB,m,y,./images/SAUCEHB.png,,,,,,,,,,,,,,,,,,,,m,1,0.9675,,,,,,,,0,77,77,51,1
,,,,,,,,,,,,,,,,,58a2952076c5b7000166150a,64,2022-02-12_13h48.57.825,lexical_decision_task_DD_L5,2021.2.3,Win32,60.7348922,,,,,,,,,,,,1.1517,1,,,,,,,,,,,,,,,,,,,,,,,,0.88870891,-0.294904482,0,0,0,,,,,,,SNAKE,LB,m,y,./images/SNAKELB.png,,,,,,,,,,,,,,,,,,,,m,1,1.1517,,,,,,,,0,78,78,40,1
,,,,,,,,,,,,,,,,,58a2952076c5b7000166150a,64,2022-02-12_13h48.57.825,lexical_decision_task_DD_L5,2021.2.3,Win32,60.7348922,,,,,,,,,,,,0.9849,1,,,,,,,,,,,,,,,,,,,,,,,,0.88870891,-0.294904482,0,0,0,,,,,,,DRILL,HB,m,y,./images/DRILLHB.png,,,,,,,,,,,,,,,,,,,,m,1,0.9849,,,,,,,,0,79,79,81,1
,,,,,,,,,,,,,,,,,58a2952076c5b7000166150a,64,2022-02-12_13h48.57.825,lexical_decision_task_DD_L5,2021.2.3,Win32,60.7348922,,,,,,,,,,,,0.9179,1,,,,,,,,,,,,,,,,,,,,,,,,0.88870891,-0.294904482,0,0,0,,,,,,,PASTA,C,z,y,./images/PASTA.png,,,,,,,,,,,,,,,,,,,,z,1,0.9179,,,,,,,,0,80,80,89,1
,,,,,,,,,,,,,,,,,58a2952076c5b7000166150a,64,2022-02-12_13h48.57.825,lexical_decision_task_DD_L5,2021.2.3,Win32,60.7348922,,,,,,,,,,,,1.2852,1,,,,,,,,,,,,,,,,,,,,,,,,0.88870891,-0.294904482,0,0,0,,,,,,,SNACK,LB,z,y,./images/SNACKLB.png,,,,,,,,,,,,,,,,,,,,z,1,1.2852,,,,,,,,0,81,81,157,1
,,,,,,,,,,,,,,,,,58a2952076c5b7000166150a,64,2022-02-12_13h48.57.825,lexical_decision_task_DD_L5,2021.2.3,Win32,60.7348922,,,,,,,,,,,,1.0344,1,,,,,,,,,,,,,,,,,,,,,,,,0.88870891,-0.294904482,0,0,0,,,,,,,SAILOR,LB,z,y,./images/SAILORLB.png,,,,,,,,,,,,,,,,,,,,z,1,1.0344,,,,,,,,0,82,82,151,1
,,,,,,,,,,,,,,,,,58a2952076c5b7000166150a,64,2022-02-12_13h48.57.825,lexical_decision_task_DD_L5,2021.2.3,Win32,60.7348922,,,,,,,,,,,,0.9677,0,,,,,,,,,,,,,,,,,,,,,,,,0.88870891,-0.294904482,0,0,0,space,,,,,,FERRY,HB,m,y,./images/FERRYHB.png,23.254,,,,,,,,,,,,,,,,,,,z,0,0.9677,,,,,,,,0,83,83,57,1
,,,,,,,,,,,,,,,,,58a2952076c5b7000166150a,64,2022-02-12_13h48.57.825,lexical_decision_task_DD_L5,2021.2.3,Win32,60.7348922,,,,,,,,,,,,0.8508,1,,,,,,,,,,,,,,,,,,,,,,,,0.88870891,-0.294904482,0,0,0,,,,,,,PARCEL,HB,m,y,./images/PARCELHB.png,,,,,,,,,,,,,,,,,,,,m,1,0.8508,,,,,,,,0,84,84,18,1
,,,,,,,,,,,,,,,,,58a2952076c5b7000166150a,64,2022-02-12_13h48.57.825,lexical_decision_task_DD_L5,2021.2.3,Win32,60.7348922,,,,,,,,,,,,0.968,1,,,,,,,,,,,,,,,,,,,,,,,,0.88870891,-0.294904482,0,0,0,,,,,,,POSTER,C,m,y,./images/POSTER.png,,,,,,,,,,,,,,,,,,,,m,1,0.968,,,,,,,,0,85,85,53,1
,,,,,,,,,,,,,,,,,58a2952076c5b7000166150a,64,2022-02-12_13h48.57.825,lexical_decision_task_DD_L5,2021.2.3,Win32,60.7348922,,,,,,,,,,,,0.9843,0,,,,,,,,,,,,,,,,,,,,,,,,0.88870891,-0.294904482,0,0,0,,,,,,,WAGON,LB,m,y,./images/WAGONLB.png,,,,,,,,,,,,,,,,,,,,z,0,0.9843,,,,,,,,0,86,86,7,1
,,,,,,,,,,,,,,,,,58a2952076c5b7000166150a,64,2022-02-12_13h48.57.825,lexical_decision_task_DD_L5,2021.2.3,Win32,60.7348922,,,,,,,,,,,,1.0836,1,,,,,,,,,,,,,,,,,,,,,,,,0.88870891,-0.294904482,0,0,0,,,,,,,PARADE,C,m,y,./images/PARADE.png,,,,,,,,,,,,,,,,,,,,m,1,1.0836,,,,,,,,0,87,87,17,1
,,,,,,,,,,,,,,,,,58a2952076c5b7000166150a,64,2022-02-12_13h48.57.825,lexical_decision_task_DD_L5,2021.2.3,Win32,60.7348922,,,,,,,,,,,,1.2169,1,,,,,,,,,,,,,,,,,,,,,,,,0.88870891,-0.294904482,0,0,0,,,,,,,MUFFIN,LB,z,y,./images/MUFFINLB.png,,,,,,,,,,,,,,,,,,,,z,1,1.2169,,,,,,,,0,88,88,139,1
,,,,,,,,,,,,,,,,,58a2952076c5b7000166150a,64,2022-02-12_13h48.57.825,lexical_decision_task_DD_L5,2021.2.3,Win32,60.7348922,,,,,,,,,,,,0.8174,1,,,,,,,,,,,,,,,,,,,,,,,,0.88870891,-0.294904482,0,0,0,,,,,,,TRIPOD,HB,z,y,./images/TRIPODHB.png,,,,,,,,,,,,,,,,,,,,z,1,0.8174,,,,,,,,0,89,89,138,1
,,,,,,,,,,,,,,,,,58a2952076c5b7000166150a,64,2022-02-12_13h48.57.825,lexical_decision_task_DD_L5,2021.2.3,Win32,60.7348922,,,,,,,,,,,,0.9179,0,,,,,,,,,,,,,,,,,,,,,,,,0.88870891,-0.294904482,0,0,0,,,,,,,COUCH,C,z,y,./images/COUCH.png,,,,,,,,,,,,,,,,,,,,m,0,0.9179,,,,,,,,0,90,90,161,1
,,,,,,,,,,,,,,,,,58a2952076c5b7000166150a,64,2022-02-12_13h48.57.825,lexical_decision_task_DD_L5,2021.2.3,Win32,60.7348922,,,,,,,,,,,,0.7506,0,,,,,,,,,,,,,,,,,,,,,,,,0.88870891,-0.294904482,0,0,0,,,,,,,SQUARE,HB,z,y,./images/SQUAREHB.png,,,,,,,,,,,,,,,,,,,,m,0,0.7506,,,,,,,,0,91,91,90,1
,,,,,,,,,,,,,,,,,58a2952076c5b7000166150a,64,2022-02-12_13h48.57.825,lexical_decision_task_DD_L5,2021.2.3,Win32,60.7348922,,,,,,,,,,,,0.8843,0,,,,,,,,,,,,,,,,,,,,,,,,0.88870891,-0.294904482,0,0,0,,,,,,,TOWEL,LB,m,y,./images/TOWELLB.png,,,,,,,,,,,,,,,,,,,,z,0,0.8843,,,,,,,,0,92,92,1,1
,,,,,,,,,,,,,,,,,58a2952076c5b7000166150a,64,2022-02-12_13h48.57.825,lexical_decision_task_DD_L5,2021.2.3,Win32,60.7348922,,,,,,,,,,,,0.8677,0,,,,,,,,,,,,,,,,,,,,,,,,0.88870891,-0.294904482,0,0,0,,,,,,,STAIN,HB,m,y,./images/STAINHB.png,,,,,,,,,,,,,,,,,,,,z,0,0.8677,,,,,,,,0,93,93,6,1
,,,,,,,,,,,,,,,,,58a2952076c5b7000166150a,64,2022-02-12_13h48.57.825,lexical_decision_task_DD_L5,2021.2.3,Win32,60.7348922,,,,,,,,,,,,0.8675,1,,,,,,,,,,,,,,,,,,,,,,,,0.88870891,-0.294904482,0,0,0,,,,,,,TIGER,LB,m,y,./images/TIGERLB.png,,,,,,,,,,,,,,,,,,,,m,1,0.8675,,,,,,,,0,94,94,37,1
,,,,,,,,,,,,,,,,,58a2952076c5b7000166150a,64,2022-02-12_13h48.57.825,lexical_decision_task_DD_L5,2021.2.3,Win32,60.7348922,,,,,,,,,,,,0.8709,0,,,,,,,,,,,,,,,,,,,,,,,,0.88870891,-0.294904482,0,0,0,,,,,,,BONNET,C,z,y,./images/BONNET.png,,,,,,,,,,,,,,,,,,,,m,0,0.8709,,,,,,,,0,95,95,95,1
,,,,,,,,,,,,,,,,,58a2952076c5b7000166150a,64,2022-02-12_13h48.57.825,lexical_decision_task_DD_L5,2021.2.3,Win32,60.7348922,,,,,,,,,,,,1.1181,0,,,,,,,,,,,,,,,,,,,,,,,,0.88870891,-0.294904482,0,0,0,,,,,,,BERRY,C,z,y,./images/BERRY.png,,,,,,,,,,,,,,,,,,,,m,0,1.1181,,,,,,,,0,96,96,131,1
,,,,,,,,,,,,,,,,,58a2952076c5b7000166150a,64,2022-02-12_13h48.57.825,lexical_decision_task_DD_L5,2021.2.3,Win32,60.7348922,,,,,,,,,,,,0.9685,1,,,,,,,,,,,,,,,,,,,,,,,,0.88870891,-0.294904482,0,0,0,,,,,,,WRIST,LB,z,y,./images/WRISTLB.png,,,,,,,,,,,,,,,,,,,,z,1,0.9685,,,,,,,,0,97,97,109,1
,,,,,,,,,,,,,,,,,58a2952076c5b7000166150a,64,2022-02-12_13h48.57.825,lexical_decision_task_DD_L5,2021.2.3,Win32,60.7348922,,,,,,,,,,,,0.9179,1,,,,,,,,,,,,,,,,,,,,,,,,0.88870891,-0.294904482,0,0,0,,,,,,,BIRTH,LB,z,y,./images/BIRTHLB.png,,,,,,,,,,,,,,,,,,,,z,1,0.9179,,,,,,,,0,98,98,121,1
,,,,,,,,,,,,,,,,,58a2952076c5b7000166150a,64,2022-02-12_13h48.57.825,lexical_decision_task_DD_L5,2021.2.3,Win32,60.7348922,,,,,,,,,,,,1.0345,1,,,,,,,,,,,,,,,,,,,,,,,,0.88870891,-0.294904482,0,0,0,,,,,,,STOOL,LB,m,y,./images/STOOLLB.png,,,,,,,,,,,,,,,,,,,,m,1,1.0345,,,,,,,,0,99,99,43,1
,,,,,,,,,,,,,,,,,58a2952076c5b7000166150a,64,2022-02-12_13h48.57.825,lexical_decision_task_DD_L5,2021.2.3,Win32,60.7348922,,,,,,,,,,,,1.0678,1,,,,,,,,,,,,,,,,,,,,,,,,0.88870891,-0.294904482,0,0,0,,,,,,,GRAIN,HB,z,y,./images/GRAINHB.png,,,,,,,,,,,,,,,,,,,,z,1,1.0678,,,,,,,,0,100,100,159,1
,,,,,,,,,,,,,,,,,58a2952076c5b7000166150a,64,2022-02-12_13h48.57.825,lexical_decision_task_DD_L5,2021.2.3,Win32,60.7348922,,,,,,,,,,,,0.9347,1,,,,,,,,,,,,,,,,,,,,,,,,0.88870891,-0.294904482,0,0,0,,,,,,,TULIP,C,z,y,./images/TULIP.png,,,,,,,,,,,,,,,,,,,,z,1,0.9347,,,,,,,,0,101,101,92,1
,,,,,,,,,,,,,,,,,58a2952076c5b7000166150a,64,2022-02-12_13h48.57.825,lexical_decision_task_DD_L5,2021.2.3,Win32,60.7348922,,,,,,,,,,,,0.886,1,,,,,,,,,,,,,,,,,,,,,,,,0.88870891,-0.294904482,0,0,0,,,,,,,CHAIN,HB,m,y,./images/CHAINHB.png,,,,,,,,,,,,,,,,,,,,m,1,0.886,,,,,,,,0,102,102,42,1
,,,,,,,,,,,,,,,,,58a2952076c5b7000166150a,64,2022-02-12_13h48.57.825,lexical_decision_task_DD_L5,2021.2.3,Win32,60.7348922,,,,,,,,,,,,0.7842,1,,,,,,,,,,,,,,,,,,,,,,,,0.88870891,-0.294904482,0,0,0,,,,,,,MONKEY,HB,m,y,./images/MONKEYHB.png,,,,,,,,,,,,,,,,,,,,m,1,0.7842,,,,,,,,0,103,103,45,1
,,,,,,,,,,,,,,,,,58a2952076c5b7000166150a,64,2022-02-12_13h48.57.825,lexical_decision_task_DD_L5,2021.2.3,Win32,60.7348922,,,,,,,,,,,,0.7342,1,,,,,,,,,,,,,,,,,,,,,,,,0.88870891,-0.294904482,0,0,0,,,,,,,BRUSH,C,m,y,./images/BRUSH.png,,,,,,,,,,,,,,,,,,,,m,1,0.7342,,,,,,,,0,104,104,59,1
,,,,,,,,,,,,,,,,,58a2952076c5b7000166150a,64,2022-02-12_13h48.57.825,lexical_decision_task_DD_L5,2021.2.3,Win32,60.7348922,,,,,,,,,,,,1.0005,0,,,,,,,,,,,,,,,,,,,,,,,,0.88870891,-0.294904482,0,0,0,,,,,,,DONKEY,LB,m,y,./images/DONKEYLB.png,,,,,,,,,,,,,,,,,,,,z,0,1.0005,,,,,,,,0,105,105,19,1
,,,,,,,,,,,,,,,,,58a2952076c5b7000166150a,64,2022-02-12_13h48.57.825,lexical_decision_task_DD_L5,2021.2.3,Win32,60.7348922,,,,,,,,,,,,0.8969,1,,,,,,,,,,,,,,,,,,,,,,,,0.88870891,-0.294904482,0,0,0,,,,,,,MAGGOT,HB,z,y,./images/MAGGOTHB.png,,,,,,,,,,,,,,,,,,,,z,1,0.8969,,,,,,,,0,106,106,117,1
,,,,,,,,,,,,,,,,,58a2952076c5b7000166150a,64,2022-02-12_13h48.57.825,lexical_decision_task_DD_L5,2021.2.3,Win32,60.7348922,,,,,,,,,,,,0.9533,0,,,,,,,,,,,,,,,,,,,,,,,,0.88870891,-0.294904482,0,0,0,,,,,,,MIDGET,LB,m,y,./images/MIDGETLB.png,,,,,,,,,,,,,,,,,,,,z,0,0.9533,,,,,,,,0,107,107,76,1
,,,,,,,,,,,,,,,,,58a2952076c5b7000166150a,64,2022-02-12_13h48.57.825,lexical_decision_task_DD_L5,2021.2.3,Win32,60.7348922,,,,,,,,,,,,0.9215,1,,,,,,,,,,,,,,,,,,,,,,,,0.88870891,-0.294904482,0,0,0,,,,,,,CURRY,HB,m,y,./images/CURRYHB.png,,,,,,,,,,,,,,,,,,,,m,1,0.9215,,,,,,,,0,108,108,60,1
,,,,,,,,,,,,,,,,,58a2952076c5b7000166150a,64,2022-02-12_13h48.57.825,lexical_decision_task_DD_L5,2021.2.3,Win32,60.7348922,,,,,,,,,,,,1.3015,1,,,,,,,,,,,,,,,,,,,,,,,,0.88870891,-0.294904482,0,0,0,,,,,,,SWEAT,HB,z,y,./images/SWEATHB.png,,,,,,,,,,,,,,,,,,,,z,1,1.3015,,,,,,,,0,109,109,150,1
,,,,,,,,,,,,,,,,,58a2952076c5b7000166150a,64,2022-02-12_13h48.57.825,lexical_decision_task_DD_L5,2021.2.3,Win32,60.7348922,,,,,,,,,,,,1.1867,1,,,,,,,,,,,,,,,,,,,,,,,,0.88870891,-0.294904482,0,0,0,,,,,,,JELLY,LB,z,y,./images/JELLYLB.png,,,,,,,,,,,,,,,,,,,,z,1,1.1867,,,,,,,,0,110,110,148,1
,,,,,,,,,,,,,,,,,58a2952076c5b7000166150a,64,2022-02-12_13h48.57.825,lexical_decision_task_DD_L5,2021.2.3,Win32,60.7348922,,,,,,,,,,,,0.8556,1,,,,,,,,,,,,,,,,,,,,,,,,0.88870891,-0.294904482,0,0,0,,,,,,,INFANT,LB,z,y,./images/INFANTLB.png,,,,,,,,,,,,,,,,,,,,z,1,0.8556,,,,,,,,0,111,111,160,1
,,,,,,,,,,,,,,,,,58a2952076c5b7000166150a,64,2022-02-12_13h48.57.825,lexical_decision_task_DD_L5,2021.2.3,Win32,60.7348922,,,,,,,,,,,,1.1388,0,,,,,,,,,,,,,,,,,,,,,,,,0.88870891,-0.294904482,0,0,0,,,,,,,RULER,LB,m,y,./images/RULERLB.png,,,,,,,,,,,,,,,,,,,,z,0,1.1388,,,,,,,,0,112,112,79,1
,,,,,,,,,,,,,,,,,58a2952076c5b7000166150a,64,2022-02-12_13h48.57.825,lexical_decision_task_DD_L5,2021.2.3,Win32,60.7348922,,,,,,,,,,,,0.7394,0,,,,,,,,,,,,,,,,,,,,,,,,0.88870891,-0.294904482,0,0,0,,,,,,,CANDLE,LB,z,y,./images/CANDLELB.png,,,,,,,,,,,,,,,,,,,,m,0,0.7394,,,,,,,,0,113,113,145,1
,,,,,,,,,,,,,,,,,58a2952076c5b7000166150a,64,2022-02-12_13h48.57.825,lexical_decision_task_DD_L5,2021.2.3,Win32,60.7348922,,,,,,,,,,,,0.7192,1,,,,,,,,,,,,,,,,,,,,,,,,0.88870891,-0.294904482,0,0,0,,,,,,,POKER,LB,m,y,./images/POKERLB.png,,,,,,,,,,,,,,,,,,,,m,1,0.7192,,,,,,,,0,114,114,67,1
,,,,,,,,,,,,,,,,,58a2952076c5b7000166150a,64,2022-02-12_13h48.57.825,lexical_decision_task_DD_L5,2021.2.3,Win32,60.7348922,,,,,,,,,,,,1.0816,1,,,,,,,,,,,,,,,,,,,,,,,,0.88870891,-0.294904482,0,0,0,,,,,,,ATTIC,HB,z,y,./images/ATTICHB.png,,,,,,,,,,,,,,,,,,,,z,1,1.0816,,,,,,,,0,115,115,111,1
,,,,,,,,,,,,,,,,,58a2952076c5b7000166150a,64,2022-02-12_13h48.57.825,lexical_decision_task_DD_L5,2021.2.3,Win32,60.7348922,,,,,,,,,,,,0.9238,1,,,,,,,,,,,,,,,,,,,,,,,,0.88870891,-0.294904482,0,0,0,,,,,,,FLASK,HB,m,y,./images/FLASKHB.png,,,,,,,,,,,,,,,,,,,,m,1,0.9238,,,,,,,,0,116,116,72,1
,,,,,,,,,,,,,,,,,58a2952076c5b7000166150a,64,2022-02-12_13h48.57.825,lexical_decision_task_DD_L5,2021.2.3,Win32,60.7348922,,,,,,,,,,,,0.9167,1,,,,,,,,,,,,,,,,,,,,,,,,0.88870891,-0.294904482,0,0,0,,,,,,,MOSQUE,LB,z,y,./images/MOSQUELB.png,,,,,,,,,,,,,,,,,,,,z,1,0.9167,,,,,,,,0,117,117,127,1
,,,,,,,,,,,,,,,,,58a2952076c5b7000166150a,64,2022-02-12_13h48.57.825,lexical_decision_task_DD_L5,2021.2.3,Win32,60.7348922,,,,,,,,,,,,1.0056,1,,,,,,,,,,,,,,,,,,,,,,,,0.88870891,-0.294904482,0,0,0,,,,,,,PLANK,LB,z,y,./images/PLANKLB.png,,,,,,,,,,,,,,,,,,,,z,1,1.0056,,,,,,,,0,118,118,85,1
,,,,,,,,,,,,,,,,,58a2952076c5b7000166150a,64,2022-02-12_13h48.57.825,lexical_decision_task_DD_L5,2021.2.3,Win32,60.7348922,,,,,,,,,,,,1.154,1,,,,,,,,,,,,,,,,,,,,,,,,0.88870891,-0.294904482,0,0,0,,,,,,,GRANNY,C,m,y,./images/GRANNY.png,,,,,,,,,,,,,,,,,,,,m,1,1.154,,,,,,,,0,119,119,20,1
,,,,,,,,,,,,,,,,,58a2952076c5b7000166150a,64,2022-02-12_13h48.57.825,lexical_decision_task_DD_L5,2021.2.3,Win32,60.7348922,,,,,,,,,,,,0.8348,1,,,,,,,,,,,,,,,,,,,,,,,,0.88870891,-0.294904482,0,0,0,,,,,,,PISTOL,C,m,y,./images/PISTOL.png,,,,,,,,,,,,,,,,,,,,m,1,0.8348,,,,,,,,0,120,120,29,1
,,,,,,,,,,,,,,,,,58a2952076c5b7000166150a,64,2022-02-12_13h48.57.825,lexical_decision_task_DD_L5,2021.2.3,Win32,60.7348922,,,,,,,,,,,,0.8329,0,,,,,,,,,,,,,,,,,,,,,,,,0.88870891,-0.294904482,0,0,0,,,,,,,SMOKER,C,z,y,./images/SMOKER.png,,,,,,,,,,,,,,,,,,,,m,0,0.8329,,,,,,,,0,121,121,110,1
,,,,,,,,,,,,,,,,,58a2952076c5b7000166150a,64,2022-02-12_13h48.57.825,lexical_decision_task_DD_L5,2021.2.3,Win32,60.7348922,,,,,,,,,,,,0.8175,1,,,,,,,,,,,,,,,,,,,,,,,,0.88870891,-0.294904482,0,0,0,,,,,,,QUILL,LB,z,y,./images/QUILLLB.png,,,,,,,,,,,,,,,,,,,,z,1,0.8175,,,,,,,,0,122,122,115,1
,,,,,,,,,,,,,,,,,58a2952076c5b7000166150a,64,2022-02-12_13h48.57.825,lexical_decision_task_DD_L5,2021.2.3,Win32,60.7348922,,,,,,,,,,,,0.9003,0,,,,,,,,,,,,,,,,,,,,,,,,0.88870891,-0.294904482,0,0,0,,,,,,,LADDER,C,z,y,./images/LADDER.png,,,,,,,,,,,,,,,,,,,,m,0,0.9003,,,,,,,,0,123,123,122,1
,,,,,,,,,,,,,,,,,58a2952076c5b7000166150a,64,2022-02-12_13h48.57.825,lexical_decision_task_DD_L5,2021.2.3,Win32,60.7348922,,,,,,,,,,,,0.7836,0,,,,,,,,,,,,,,,,,,,,,,,,0.88870891,-0.294904482,0,0,0,,,,,,,BUTTER,HB,m,y,./images/BUTTERHB.png,,,,,,,,,,,,,,,,,,,,z,0,0.7836,,,,,,,,0,124,124,27,1
,,,,,,,,,,,,,,,,,58a2952076c5b7000166150a,64,2022-02-12_13h48.57.825,lexical_decision_task_DD_L5,2021.2.3,Win32,60.7348922,,,,,,,,,,,,1.3173,0,,,,,,,,,,,,,,,,,,,,,,,,0.88870891,-0.294904482,0,0,0,space,,,,,,BANNER,LB,z,y,./images/BANNERLB.png,15.5009,,,,,,,,,,,,,,,,,,,m,0,1.3173,,,,,,,,0,125,125,136,1
,,,,,,,,,,,,,,,,,58a2952076c5b7000166150a,64,2022-02-12_13h48.57.825,lexical_decision_task_DD_L5,2021.2.3,Win32,60.7348922,,,,,,,,,,,,0.8839,1,,,,,,,,,,,,,,,,,,,,,,,,0.88870891,-0.294904482,0,0,0,,,,,,,FALCON,LB,z,y,./images/FALCONLB.png,,,,,,,,,,,,,,,,,,,,z,1,0.8839,,,,,,,,0,126,126,112,1
,,,,,,,,,,,,,,,,,58a2952076c5b7000166150a,64,2022-02-12_13h48.57.825,lexical_decision_task_DD_L5,2021.2.3,Win32,60.7348922,,,,,,,,,,,,0.6326,1,,,,,,,,,,,,,,,,,,,,,,,,0.88870891,-0.294904482,0,0,0,,,,,,,BOILER,HB,m,y,./images/BOILERHB.png,,,,,,,,,,,,,,,,,,,,m,1,0.6326,,,,,,,,0,127,127,36,1
,,,,,,,,,,,,,,,,,58a2952076c5b7000166150a,64,2022-02-12_13h48.57.825,lexical_decision_task_DD_L5,2021.2.3,Win32,60.7348922,,,,,,,,,,,,0.7204,1,,,,,,,,,,,,,,,,,,,,,,,,0.88870891,-0.294904482,0,0,0,,,,,,,DOUGH,LB,z,y,./images/DOUGHLB.png,,,,,,,,,,,,,,,,,,,,z,1,0.7204,,,,,,,,0,128,128,103,1
,,,,,,,,,,,,,,,,,58a2952076c5b7000166150a,64,2022-02-12_13h48.57.825,lexical_decision_task_DD_L5,2021.2.3,Win32,60.7348922,,,,,,,,,,,,0.7838,0,,,,,,,,,,,,,,,,,,,,,,,,0.88870891,-0.294904482,0,0,0,,,,,,,CASINO,LB,m,y,./images/CASINOLB.png,,,,,,,,,,,,,,,,,,,,z,0,0.7838,,,,,,,,0,129,129,28,1
,,,,,,,,,,,,,,,,,58a2952076c5b7000166150a,64,2022-02-12_13h48.57.825,lexical_decision_task_DD_L5,2021.2.3,Win32,60.7348922,,,,,,,,,,,,0.7342,1,,,,,,,,,,,,,,,,,,,,,,,,0.88870891,-0.294904482,0,0,0,,,,,,,LIZARD,C,z,y,./images/LIZARD.png,,,,,,,,,,,,,,,,,,,,z,1,0.7342,,,,,,,,0,130,130,128,1
,,,,,,,,,,,,,,,,,58a2952076c5b7000166150a,64,2022-02-12_13h48.57.825,lexical_decision_task_DD_L5,2021.2.3,Win32,60.7348922,,,,,,,,,,,,0.9516,0,,,,,,,,,,,,,,,,,,,,,,,,0.88870891,-0.294904482,0,0,0,,,,,,,MOOSE,HB,z,y,./images/MOOSEHB.png,,,,,,,,,,,,,,,,,,,,m,0,0.9516,,,,,,,,0,131,131,141,1
,,,,,,,,,,,,,,,,,58a2952076c5b7000166150a,64,2022-02-12_13h48.57.825,lexical_decision_task_DD_L5,2021.2.3,Win32,60.7348922,,,,,,,,,,,,0.7506,1,,,,,,,,,,,,,,,,,,,,,,,,0.88870891,-0.294904482,0,0,0,,,,,,,WHEEL,C,m,y,./images/WHEEL.png,,,,,,,,,,,,,,,,,,,,m,1,0.7506,,,,,,,,0,132,132,77,1
,,,,,,,,,,,,,,,,,58a2952076c5b7000166150a,64,2022-02-12_13h48.57.825,lexical_decision_task_DD_L5,2021.2.3,Win32,60.7348922,,,,,,,,,,,,0.7574,1,,,,,,,,,,,,,,,,,,,,,,,,0.88870891,-0.294904482,0,0,0,,,,,,,DESERT,LB,m,y,./images/DESERTLB.png,,,,,,,,,,,,,,,,,,,,m,1,0.7574,,,,,,,,0,133,133,52,1
