key_resp.keys,instr_done_touch.x,instr_done_touch.y,instr_done_touch.leftButton,instr_done_touch.midButton,instr_done_touch.rightButton,instr_done_touch.clicked_name,instruction_pages.thisRepN,instruction_pages.thisTrialN,instruction_pages.thisN,instruction_pages.thisIndex,instruction_pages.ran,pageN,phase,instruct_text,has_image,instruct_image,participant,age,date,expName,psychopyVersion,OS,frameRate,key_resp.rt,response.keys,response.corr,response.rt,touch_resp.x,touch_resp.y,touch_resp.leftButton,touch_resp.midButton,touch_resp.rightButton,touch_resp.time,touch_resp.clicked_name,rt,corr,practrials.thisRepN,practrials.thisTrialN,practrials.thisN,practrials.thisIndex,practrials.ran,TrialID,Target,corrAns,end_of_practice_trials_pages.thisRepN,end_of_practice_trials_pages.thisTrialN,end_of_practice_trials_pages.thisN,end_of_practice_trials_pages.thisIndex,end_of_practice_trials_pages.ran,key_resp_2.keys,key_resp_2.corr,key_resp_2.rt,targ_click.x,targ_click.y,targ_click.leftButton,targ_click.midButton,targ_click.rightButton,targ_click.time,targ_click.clicked_name,break_done_touch.x,break_done_touch.y,break_done_touch.leftButton,break_done_touch.midButton,break_done_touch.rightButton,break_done_keyboard.keys,maintrials.thisRepN,maintrials.thisTrialN,maintrials.thisN,maintrials.thisIndex,maintrials.ran,string,blur,study,lex,stim_path,break_done_keyboard.rt,mouse_2.x,mouse_2.y,mouse_2.leftButton,mouse_2.midButton,mouse_2.rightButton,mouse_2.clicked_name,slider.response,slider.rt,trials.thisRepN,trials.thisTrialN,trials.thisN,trials.thisIndex,trials.ran,test_instructions.thisRepN,test_instructions.thisTrialN,test_instructions.thisN,test_instructions.thisIndex,test_instructions.ran,key_resp_3.keys,key_resp_3.corr,key_resp_3.rt,test_click.x,test_click.y,test_click.leftButton,test_click.midButton,test_click.rightButton,test_click.time,test_click.clicked_name,test_phase.thisRepN,test_phase.thisTrialN,test_phase.thisN,test_phase.thisIndex,test_phase.ran
,-0.117104202,-0.389652389,1,0,0,instr_done_button,0,0,0,0,1,1,instructions,"INSTRUCTIONS
At the start of each trial, look at the plus sign  (+) in the center of the screen.  This tells you that a trial is about to begin and where to look. Second, the plus sign will disappear and a string of letters will appear. Your task is to determine if the string of letters is a word or not. If the item is a word press the M key (on keyboard)  or touch the word button (phone/tablet).  If the item is not a word,  press the  Z key (on keyboard)  or touch the nonword button (on phone/tablet). 
Press the space bar or touch  continue.",0,,5b0029933c08a1000156662c,29,2022-02-12_17h44.32.783,lexical_decision_task_DD_L5,2021.2.3,MacIntel,59.99880002,,,,,,,,,,,,,,,,,,,,,,,,,,,,,,,,,,,,,,,,,,,,,,,,,,,,,,,,,,,,,,,,,,,,,,,,,,,,,,,,,,,,,,
space,-0.117104158,-0.389652389,0,0,0,,0,1,1,1,1,2,instructions,"If your device has a keyboard, press the 'Z' key for nonwords and the 'M' key for words.





Press the space bar or touch the button below to continue.",0,keyboard-example.gif,5b0029933c08a1000156662c,29,2022-02-12_17h44.32.783,lexical_decision_task_DD_L5,2021.2.3,MacIntel,59.99880002,3.5951,,,,,,,,,,,,,,,,,,,,,,,,,,,,,,,,,,,,,,,,,,,,,,,,,,,,,,,,,,,,,,,,,,,,,,,,,,,,,,,,,,,,,
space,-0.117104158,-0.389652389,0,0,0,,0,2,2,2,1,3,instructions,"If you are using a touchscreen only device, use the buttons on the screen. Do not use the mouse.





Press the space bar or touch the button below to continue.",0,touchscreen-example.gif,5b0029933c08a1000156662c,29,2022-02-12_17h44.32.783,lexical_decision_task_DD_L5,2021.2.3,MacIntel,59.99880002,1.3878,,,,,,,,,,,,,,,,,,,,,,,,,,,,,,,,,,,,,,,,,,,,,,,,,,,,,,,,,,,,,,,,,,,,,,,,,,,,,,,,,,,,,
space,-0.117104158,-0.389652389,0,0,0,,0,3,3,3,1,4,instructions,"It is very important that you respond as quickly and accurately as possible, as each letter string will only be on the screen for two seconds. If you do not respond within this time, the message 'Too slow!' will be displayed and the experiment will progress to the next letter string. The first 20 trials will be practice trials and you will receive feedback on your answers. 

Press the space bar or touch the button below to start the practice trials.",0,,5b0029933c08a1000156662c,29,2022-02-12_17h44.32.783,lexical_decision_task_DD_L5,2021.2.3,MacIntel,59.99880002,3.4476,,,,,,,,,,,,,,,,,,,,,,,,,,,,,,,,,,,,,,,,,,,,,,,,,,,,,,,,,,,,,,,,,,,,,,,,,,,,,,,,,,,,,
,,,,,,,,,,,,,,,,,5b0029933c08a1000156662c,29,2022-02-12_17h44.32.783,lexical_decision_task_DD_L5,2021.2.3,MacIntel,59.99880002,,z,1,0.9714,,,,,,,,0.9714,1,0,0,0,15,1,1001,WHAISE,z,,,,,,,,,,,,,,,,,,,,,,,,,,,,,,,,,,,,,,,,,,,,,,,,,,,,,,,,,,,,,,,,,
,,,,,,,,,,,,,,,,,5b0029933c08a1000156662c,29,2022-02-12_17h44.32.783,lexical_decision_task_DD_L5,2021.2.3,MacIntel,59.99880002,,m,1,1.5704,,,,,,,,1.5704,1,0,1,1,6,1,1001,ZOMBIE,m,,,,,,,,,,,,,,,,,,,,,,,,,,,,,,,,,,,,,,,,,,,,,,,,,,,,,,,,,,,,,,,,,
,,,,,,,,,,,,,,,,,5b0029933c08a1000156662c,29,2022-02-12_17h44.32.783,lexical_decision_task_DD_L5,2021.2.3,MacIntel,59.99880002,,m,1,0.6333,,,,,,,,0.6333,1,0,2,2,2,1,1001,ALMOND,m,,,,,,,,,,,,,,,,,,,,,,,,,,,,,,,,,,,,,,,,,,,,,,,,,,,,,,,,,,,,,,,,,
,,,,,,,,,,,,,,,,,5b0029933c08a1000156662c,29,2022-02-12_17h44.32.783,lexical_decision_task_DD_L5,2021.2.3,MacIntel,59.99880002,,m,1,0.7403,,,,,,,,0.7403,1,0,3,3,4,1,1001,SQUEAK,m,,,,,,,,,,,,,,,,,,,,,,,,,,,,,,,,,,,,,,,,,,,,,,,,,,,,,,,,,,,,,,,,,
,,,,,,,,,,,,,,,,,5b0029933c08a1000156662c,29,2022-02-12_17h44.32.783,lexical_decision_task_DD_L5,2021.2.3,MacIntel,59.99880002,,m,1,1.7167,,,,,,,,1.7167,1,0,4,4,3,1,1001,MATRIX,m,,,,,,,,,,,,,,,,,,,,,,,,,,,,,,,,,,,,,,,,,,,,,,,,,,,,,,,,,,,,,,,,,
,,,,,,,,,,,,,,,,,5b0029933c08a1000156662c,29,2022-02-12_17h44.32.783,lexical_decision_task_DD_L5,2021.2.3,MacIntel,59.99880002,,z,1,0.7171,,,,,,,,0.7171,1,0,5,5,13,1,1001,ROUPET,z,,,,,,,,,,,,,,,,,,,,,,,,,,,,,,,,,,,,,,,,,,,,,,,,,,,,,,,,,,,,,,,,,
,,,,,,,,,,,,,,,,,5b0029933c08a1000156662c,29,2022-02-12_17h44.32.783,lexical_decision_task_DD_L5,2021.2.3,MacIntel,59.99880002,,m,1,0.7657,,,,,,,,0.7657,1,0,6,6,7,1,1001,VOLUME,m,,,,,,,,,,,,,,,,,,,,,,,,,,,,,,,,,,,,,,,,,,,,,,,,,,,,,,,,,,,,,,,,,
,,,,,,,,,,,,,,,,,5b0029933c08a1000156662c,29,2022-02-12_17h44.32.783,lexical_decision_task_DD_L5,2021.2.3,MacIntel,59.99880002,,m,0,0.717,,,,,,,,0.717,0,0,7,7,12,1,1001,SPRINY,z,,,,,,,,,,,,,,,,,,,,,,,,,,,,,,,,,,,,,,,,,,,,,,,,,,,,,,,,,,,,,,,,,
,,,,,,,,,,,,,,,,,5b0029933c08a1000156662c,29,2022-02-12_17h44.32.783,lexical_decision_task_DD_L5,2021.2.3,MacIntel,59.99880002,,z,1,0.8582,,,,,,,,0.8582,1,0,8,8,9,1,1001,FARINY,z,,,,,,,,,,,,,,,,,,,,,,,,,,,,,,,,,,,,,,,,,,,,,,,,,,,,,,,,,,,,,,,,,
,,,,,,,,,,,,,,,,,5b0029933c08a1000156662c,29,2022-02-12_17h44.32.783,lexical_decision_task_DD_L5,2021.2.3,MacIntel,59.99880002,,m,1,0.8207,,,,,,,,0.8207,1,0,9,9,0,1,1001,UTOPIA,m,,,,,,,,,,,,,,,,,,,,,,,,,,,,,,,,,,,,,,,,,,,,,,,,,,,,,,,,,,,,,,,,,
,,,,,,,,,,,,,,,,,5b0029933c08a1000156662c,29,2022-02-12_17h44.32.783,lexical_decision_task_DD_L5,2021.2.3,MacIntel,59.99880002,,z,1,0.9376,,,,,,,,0.9376,1,0,10,10,14,1,1001,THRALE,z,,,,,,,,,,,,,,,,,,,,,,,,,,,,,,,,,,,,,,,,,,,,,,,,,,,,,,,,,,,,,,,,,
,,,,,,,,,,,,,,,,,5b0029933c08a1000156662c,29,2022-02-12_17h44.32.783,lexical_decision_task_DD_L5,2021.2.3,MacIntel,59.99880002,,z,1,0.7011,,,,,,,,0.7011,1,0,11,11,11,1,1001,RASHET,z,,,,,,,,,,,,,,,,,,,,,,,,,,,,,,,,,,,,,,,,,,,,,,,,,,,,,,,,,,,,,,,,,
,,,,,,,,,,,,,,,,,5b0029933c08a1000156662c,29,2022-02-12_17h44.32.783,lexical_decision_task_DD_L5,2021.2.3,MacIntel,59.99880002,,m,1,0.2831,,,,,,,,0.2831,1,0,12,12,5,1,1001,OBTAIN,m,,,,,,,,,,,,,,,,,,,,,,,,,,,,,,,,,,,,,,,,,,,,,,,,,,,,,,,,,,,,,,,,,
,,,,,,,,,,,,,,,,,5b0029933c08a1000156662c,29,2022-02-12_17h44.32.783,lexical_decision_task_DD_L5,2021.2.3,MacIntel,59.99880002,,z,1,0.7055,,,,,,,,0.7055,1,0,13,13,8,1,1001,ASLERT,z,,,,,,,,,,,,,,,,,,,,,,,,,,,,,,,,,,,,,,,,,,,,,,,,,,,,,,,,,,,,,,,,,
,,,,,,,,,,,,,,,,,5b0029933c08a1000156662c,29,2022-02-12_17h44.32.783,lexical_decision_task_DD_L5,2021.2.3,MacIntel,59.99880002,,m,1,0.7182,,,,,,,,0.7182,1,0,14,14,1,1,1001,ADJUST,m,,,,,,,,,,,,,,,,,,,,,,,,,,,,,,,,,,,,,,,,,,,,,,,,,,,,,,,,,,,,,,,,,
,,,,,,,,,,,,,,,,,5b0029933c08a1000156662c,29,2022-02-12_17h44.32.783,lexical_decision_task_DD_L5,2021.2.3,MacIntel,59.99880002,,z,1,0.8653,,,,,,,,0.8653,1,0,15,15,10,1,1001,INLADE,z,,,,,,,,,,,,,,,,,,,,,,,,,,,,,,,,,,,,,,,,,,,,,,,,,,,,,,,,,,,,,,,,,
space,-0.117104158,-0.389652389,0,0,0,,,,,,,1,end_of_practice,"You have completed the practice trials. During the experimental trials, you will not receive feedback. 
Before you begin, please ensure that you are in a comfortable and quiet location and will not be disturbed for about 15 minutes, as we cannot use your data if you do not complete all the trials. 
 When you are ready to start the experimental trials, please press space or touch the button below.",,,5b0029933c08a1000156662c,29,2022-02-12_17h44.32.783,lexical_decision_task_DD_L5,2021.2.3,MacIntel,59.99880002,4.9727,,,,,,,,,,,,,,,,,,,,,0,0,0,0,1,,,,,,,,,,,,,,,,,,,,,,,,,,,,,,,,,,,,,,,,,,,,,,,,,,,,,,,,,,,,
,,,,,,,,,,,,,,,,,5b0029933c08a1000156662c,29,2022-02-12_17h44.32.783,lexical_decision_task_DD_L5,2021.2.3,MacIntel,59.99880002,,,,,,,,,,,,0.7205,1,,,,,,,,,,,,,,m,1,0.7205,,,,,,,,-0.117104158,-0.389652389,0,0,0,,0,0,0,59,1,BRUSH,C,old,m,./images/BRUSH.png,,,,,,,,,,,,,,,,,,,,,,,,,,,,,,,,,,
,,,,,,,,,,,,,,,,,5b0029933c08a1000156662c,29,2022-02-12_17h44.32.783,lexical_decision_task_DD_L5,2021.2.3,MacIntel,59.99880002,,,,,,,,,,,,1.3695,1,,,,,,,,,,,,,,m,1,1.3695,,,,,,,,-0.117104158,-0.389652389,0,0,0,,0,1,1,15,1,COLLAR,HB,old,m,./images/COLLARHB.png,,,,,,,,,,,,,,,,,,,,,,,,,,,,,,,,,,
,,,,,,,,,,,,,,,,,5b0029933c08a1000156662c,29,2022-02-12_17h44.32.783,lexical_decision_task_DD_L5,2021.2.3,MacIntel,59.99880002,,,,,,,,,,,,0.8389,1,,,,,,,,,,,,,,z,1,0.8389,,,,,,,,-0.117104158,-0.389652389,0,0,0,,0,2,2,137,1,JOOST,LB,old,z,./images/JOOSTLB.png,,,,,,,,,,,,,,,,,,,,,,,,,,,,,,,,,,
,,,,,,,,,,,,,,,,,5b0029933c08a1000156662c,29,2022-02-12_17h44.32.783,lexical_decision_task_DD_L5,2021.2.3,MacIntel,59.99880002,,,,,,,,,,,,2.5973,1,,,,,,,,,,,,,,z,1,2.5973,,,,,,,,-0.117104158,-0.389652389,0,0,0,,0,3,3,130,1,CRILL,HB,old,z,./images/CRILLHB.png,,,,,,,,,,,,,,,,,,,,,,,,,,,,,,,,,,
,,,,,,,,,,,,,,,,,5b0029933c08a1000156662c,29,2022-02-12_17h44.32.783,lexical_decision_task_DD_L5,2021.2.3,MacIntel,59.99880002,,,,,,,,,,,,0.8955,1,,,,,,,,,,,,,,m,1,0.8955,,,,,,,,-0.117104158,-0.389652389,0,0,0,,0,4,4,24,1,FLESH,HB,old,m,./images/FLESHHB.png,,,,,,,,,,,,,,,,,,,,,,,,,,,,,,,,,,
,,,,,,,,,,,,,,,,,5b0029933c08a1000156662c,29,2022-02-12_17h44.32.783,lexical_decision_task_DD_L5,2021.2.3,MacIntel,59.99880002,,,,,,,,,,,,0.9445,1,,,,,,,,,,,,,,m,1,0.9445,,,,,,,,-0.117104158,-0.389652389,0,0,0,,0,5,5,16,1,GRAPE,LB,old,m,./images/GRAPELB.png,,,,,,,,,,,,,,,,,,,,,,,,,,,,,,,,,,
,,,,,,,,,,,,,,,,,5b0029933c08a1000156662c,29,2022-02-12_17h44.32.783,lexical_decision_task_DD_L5,2021.2.3,MacIntel,59.99880002,,,,,,,,,,,,0.7425,1,,,,,,,,,,,,,,z,1,0.7425,,,,,,,,-0.117104158,-0.389652389,0,0,0,,0,6,6,126,1,GUELS,C,old,z,./images/GUELS.png,,,,,,,,,,,,,,,,,,,,,,,,,,,,,,,,,,
,,,,,,,,,,,,,,,,,5b0029933c08a1000156662c,29,2022-02-12_17h44.32.783,lexical_decision_task_DD_L5,2021.2.3,MacIntel,59.99880002,,,,,,,,,,,,0.7294,1,,,,,,,,,,,,,,z,1,0.7294,,,,,,,,-0.117104158,-0.389652389,0,0,0,,0,7,7,147,1,ZOLES,C,old,z,./images/ZOLES.png,,,,,,,,,,,,,,,,,,,,,,,,,,,,,,,,,,
,,,,,,,,,,,,,,,,,5b0029933c08a1000156662c,29,2022-02-12_17h44.32.783,lexical_decision_task_DD_L5,2021.2.3,MacIntel,59.99880002,,,,,,,,,,,,0.7978,1,,,,,,,,,,,,,,m,1,0.7978,,,,,,,,-0.117104158,-0.389652389,0,0,0,,0,8,8,21,1,DANCER,HB,old,m,./images/DANCERHB.png,,,,,,,,,,,,,,,,,,,,,,,,,,,,,,,,,,
,,,,,,,,,,,,,,,,,5b0029933c08a1000156662c,29,2022-02-12_17h44.32.783,lexical_decision_task_DD_L5,2021.2.3,MacIntel,59.99880002,,,,,,,,,,,,0.746,1,,,,,,,,,,,,,,z,1,0.746,,,,,,,,-0.117104158,-0.389652389,0,0,0,,0,9,9,135,1,JOODY,C,old,z,./images/JOODY.png,,,,,,,,,,,,,,,,,,,,,,,,,,,,,,,,,,
,,,,,,,,,,,,,,,,,5b0029933c08a1000156662c,29,2022-02-12_17h44.32.783,lexical_decision_task_DD_L5,2021.2.3,MacIntel,59.99880002,,,,,,,,,,,,0.6452,1,,,,,,,,,,,,,,z,1,0.6452,,,,,,,,-0.117104158,-0.389652389,0,0,0,,0,10,10,143,1,MONGS,LB,old,z,./images/MONGSLB.png,,,,,,,,,,,,,,,,,,,,,,,,,,,,,,,,,,
,,,,,,,,,,,,,,,,,5b0029933c08a1000156662c,29,2022-02-12_17h44.32.783,lexical_decision_task_DD_L5,2021.2.3,MacIntel,59.99880002,,,,,,,,,,,,0.8012,1,,,,,,,,,,,,,,z,1,0.8012,,,,,,,,-0.117104158,-0.389652389,0,0,0,,0,11,11,106,1,CLUMS,HB,old,z,./images/CLUMSHB.png,,,,,,,,,,,,,,,,,,,,,,,,,,,,,,,,,,
,,,,,,,,,,,,,,,,,5b0029933c08a1000156662c,29,2022-02-12_17h44.32.783,lexical_decision_task_DD_L5,2021.2.3,MacIntel,59.99880002,,,,,,,,,,,,0.891,1,,,,,,,,,,,,,,z,1,0.891,,,,,,,,-0.117104158,-0.389652389,0,0,0,,0,12,12,158,1,EGECT,LB,old,z,./images/EGECTLB.png,,,,,,,,,,,,,,,,,,,,,,,,,,,,,,,,,,
,,,,,,,,,,,,,,,,,5b0029933c08a1000156662c,29,2022-02-12_17h44.32.783,lexical_decision_task_DD_L5,2021.2.3,MacIntel,59.99880002,,,,,,,,,,,,1.0638,1,,,,,,,,,,,,,,z,1,1.0638,,,,,,,,-0.117104158,-0.389652389,0,0,0,,0,13,13,99,1,BACKY,C,old,z,./images/BACKY.png,,,,,,,,,,,,,,,,,,,,,,,,,,,,,,,,,,
,,,,,,,,,,,,,,,,,5b0029933c08a1000156662c,29,2022-02-12_17h44.32.783,lexical_decision_task_DD_L5,2021.2.3,MacIntel,59.99880002,,,,,,,,,,,,0.7131,1,,,,,,,,,,,,,,z,1,0.7131,,,,,,,,-0.117104158,-0.389652389,0,0,0,,0,14,14,122,1,BLOOT,LB,old,z,./images/BLOOTLB.png,,,,,,,,,,,,,,,,,,,,,,,,,,,,,,,,,,
,,,,,,,,,,,,,,,,,5b0029933c08a1000156662c,29,2022-02-12_17h44.32.783,lexical_decision_task_DD_L5,2021.2.3,MacIntel,59.99880002,,,,,,,,,,,,0.7135,1,,,,,,,,,,,,,,z,1,0.7135,,,,,,,,-0.117104158,-0.389652389,0,0,0,,0,15,15,87,1,TRING,C,old,z,./images/TRING.png,,,,,,,,,,,,,,,,,,,,,,,,,,,,,,,,,,
,,,,,,,,,,,,,,,,,5b0029933c08a1000156662c,29,2022-02-12_17h44.32.783,lexical_decision_task_DD_L5,2021.2.3,MacIntel,59.99880002,,,,,,,,,,,,1.1345,0,,,,,,,,,,,,,,m,0,1.1345,,,,,,,,-0.117104158,-0.389652389,0,0,0,,0,16,16,142,1,PLASK,HB,old,z,./images/PLASKHB.png,,,,,,,,,,,,,,,,,,,,,,,,,,,,,,,,,,
,,,,,,,,,,,,,,,,,5b0029933c08a1000156662c,29,2022-02-12_17h44.32.783,lexical_decision_task_DD_L5,2021.2.3,MacIntel,59.99880002,,,,,,,,,,,,0.6314,1,,,,,,,,,,,,,,z,1,0.6314,,,,,,,,-0.117104158,-0.389652389,0,0,0,,0,17,17,95,1,HANTY,LB,old,z,./images/HANTYLB.png,,,,,,,,,,,,,,,,,,,,,,,,,,,,,,,,,,
,,,,,,,,,,,,,,,,,5b0029933c08a1000156662c,29,2022-02-12_17h44.32.783,lexical_decision_task_DD_L5,2021.2.3,MacIntel,59.99880002,,,,,,,,,,,,1.0291,0,,,,,,,,,,,,,,m,0,1.0291,,,,,,,,-0.117104158,-0.389652389,0,0,0,,0,18,18,166,1,SHORY,HB,old,z,./images/SHORYHB.png,,,,,,,,,,,,,,,,,,,,,,,,,,,,,,,,,,
,,,,,,,,,,,,,,,,,5b0029933c08a1000156662c,29,2022-02-12_17h44.32.783,lexical_decision_task_DD_L5,2021.2.3,MacIntel,59.99880002,,,,,,,,,,,,0.867,1,,,,,,,,,,,,,,m,1,0.867,,,,,,,,-0.117104158,-0.389652389,0,0,0,,0,19,19,11,1,MEDAL,C,old,m,./images/MEDAL.png,,,,,,,,,,,,,,,,,,,,,,,,,,,,,,,,,,
,,,,,,,,,,,,,,,,,5b0029933c08a1000156662c,29,2022-02-12_17h44.32.783,lexical_decision_task_DD_L5,2021.2.3,MacIntel,59.99880002,,,,,,,,,,,,0.7677,1,,,,,,,,,,,,,,m,1,0.7677,,,,,,,,-0.117104158,-0.389652389,0,0,0,,0,20,20,61,1,ARTIST,LB,old,m,./images/ARTISTLB.png,,,,,,,,,,,,,,,,,,,,,,,,,,,,,,,,,,
,,,,,,,,,,,,,,,,,5b0029933c08a1000156662c,29,2022-02-12_17h44.32.783,lexical_decision_task_DD_L5,2021.2.3,MacIntel,59.99880002,,,,,,,,,,,,0.9816,1,,,,,,,,,,,,,,m,1,0.9816,,,,,,,,-0.117104158,-0.389652389,0,0,0,,0,21,21,72,1,FLASK,HB,old,m,./images/FLASKHB.png,,,,,,,,,,,,,,,,,,,,,,,,,,,,,,,,,,
,,,,,,,,,,,,,,,,,5b0029933c08a1000156662c,29,2022-02-12_17h44.32.783,lexical_decision_task_DD_L5,2021.2.3,MacIntel,59.99880002,,,,,,,,,,,,1.3642,1,,,,,,,,,,,,,,m,1,1.3642,,,,,,,,-0.117104158,-0.389652389,0,0,0,,0,22,22,46,1,MUMMY,LB,old,m,./images/MUMMYLB.png,,,,,,,,,,,,,,,,,,,,,,,,,,,,,,,,,,
,,,,,,,,,,,,,,,,,5b0029933c08a1000156662c,29,2022-02-12_17h44.32.783,lexical_decision_task_DD_L5,2021.2.3,MacIntel,59.99880002,,,,,,,,,,,,0.7088,1,,,,,,,,,,,,,,z,1,0.7088,,,,,,,,-0.117104158,-0.389652389,0,0,0,,0,23,23,114,1,RIKES,C,old,z,./images/RIKES.png,,,,,,,,,,,,,,,,,,,,,,,,,,,,,,,,,,
,,,,,,,,,,,,,,,,,5b0029933c08a1000156662c,29,2022-02-12_17h44.32.783,lexical_decision_task_DD_L5,2021.2.3,MacIntel,59.99880002,,,,,,,,,,,,1.015,1,,,,,,,,,,,,,,m,1,1.015,,,,,,,,-0.117104158,-0.389652389,0,0,0,,0,24,24,78,1,BROOM,HB,old,m,./images/BROOMHB.png,,,,,,,,,,,,,,,,,,,,,,,,,,,,,,,,,,
,,,,,,,,,,,,,,,,,5b0029933c08a1000156662c,29,2022-02-12_17h44.32.783,lexical_decision_task_DD_L5,2021.2.3,MacIntel,59.99880002,,,,,,,,,,,,0.8627,1,,,,,,,,,,,,,,z,1,0.8627,,,,,,,,-0.117104158,-0.389652389,0,0,0,,0,25,25,160,1,VEETS,HB,old,z,./images/VEETSHB.png,,,,,,,,,,,,,,,,,,,,,,,,,,,,,,,,,,
,,,,,,,,,,,,,,,,,5b0029933c08a1000156662c,29,2022-02-12_17h44.32.783,lexical_decision_task_DD_L5,2021.2.3,MacIntel,59.99880002,,,,,,,,,,,,1.1776,1,,,,,,,,,,,,,,z,1,1.1776,,,,,,,,-0.117104158,-0.389652389,0,0,0,,0,26,26,154,1,THINT,HB,old,z,./images/THINTHB.png,,,,,,,,,,,,,,,,,,,,,,,,,,,,,,,,,,
,,,,,,,,,,,,,,,,,5b0029933c08a1000156662c,29,2022-02-12_17h44.32.783,lexical_decision_task_DD_L5,2021.2.3,MacIntel,59.99880002,,,,,,,,,,,,0.9812,1,,,,,,,,,,,,,,z,1,0.9812,,,,,,,,-0.117104158,-0.389652389,0,0,0,,0,27,27,107,1,FASKS,LB,old,z,./images/FASKSLB.png,,,,,,,,,,,,,,,,,,,,,,,,,,,,,,,,,,
,,,,,,,,,,,,,,,,,5b0029933c08a1000156662c,29,2022-02-12_17h44.32.783,lexical_decision_task_DD_L5,2021.2.3,MacIntel,59.99880002,,,,,,,,,,,,0.6275,0,,,,,,,,,,,,,,z,0,0.6275,,,,,,,,-0.117104158,-0.389652389,0,0,0,,0,28,28,29,1,PISTOL,C,old,m,./images/PISTOL.png,,,,,,,,,,,,,,,,,,,,,,,,,,,,,,,,,,
,,,,,,,,,,,,,,,,,5b0029933c08a1000156662c,29,2022-02-12_17h44.32.783,lexical_decision_task_DD_L5,2021.2.3,MacIntel,59.99880002,,,,,,,,,,,,0.8626,1,,,,,,,,,,,,,,m,1,0.8626,,,,,,,,-0.117104158,-0.389652389,0,0,0,,0,29,29,82,1,PEBBLE,LB,old,m,./images/PEBBLELB.png,,,,,,,,,,,,,,,,,,,,,,,,,,,,,,,,,,
,,,,,,,,,,,,,,,,,5b0029933c08a1000156662c,29,2022-02-12_17h44.32.783,lexical_decision_task_DD_L5,2021.2.3,MacIntel,59.99880002,,,,,,,,,,,,0.7658,0,,,,,,,,,,,,,,z,0,0.7658,,,,,,,,-0.117104158,-0.389652389,0,0,0,,0,30,30,48,1,SHIELD,HB,old,m,./images/SHIELDHB.png,,,,,,,,,,,,,,,,,,,,,,,,,,,,,,,,,,
,,,,,,,,,,,,,,,,,5b0029933c08a1000156662c,29,2022-02-12_17h44.32.783,lexical_decision_task_DD_L5,2021.2.3,MacIntel,59.99880002,,,,,,,,,,,,0.6797,0,,,,,,,,,,,,,,z,0,0.6797,,,,,,,,-0.117104158,-0.389652389,0,0,0,,0,31,31,77,1,WHEEL,C,old,m,./images/WHEEL.png,,,,,,,,,,,,,,,,,,,,,,,,,,,,,,,,,,
,,,,,,,,,,,,,,,,,5b0029933c08a1000156662c,29,2022-02-12_17h44.32.783,lexical_decision_task_DD_L5,2021.2.3,MacIntel,59.99880002,,,,,,,,,,,,1.4321,1,,,,,,,,,,,,,,z,1,1.4321,,,,,,,,-0.117104158,-0.389652389,0,0,0,,0,32,32,110,1,CRUNK,LB,old,z,./images/CRUNKLB.png,,,,,,,,,,,,,,,,,,,,,,,,,,,,,,,,,,
,,,,,,,,,,,,,,,,,5b0029933c08a1000156662c,29,2022-02-12_17h44.32.783,lexical_decision_task_DD_L5,2021.2.3,MacIntel,59.99880002,,,,,,,,,,,,1.1488,1,,,,,,,,,,,,,,z,1,1.1488,,,,,,,,-0.117104158,-0.389652389,0,0,0,,0,33,33,92,1,PAIMS,LB,old,z,./images/PAIMSLB.png,,,,,,,,,,,,,,,,,,,,,,,,,,,,,,,,,,
,,,,,,,,,,,,,,,,,5b0029933c08a1000156662c,29,2022-02-12_17h44.32.783,lexical_decision_task_DD_L5,2021.2.3,MacIntel,59.99880002,,,,,,,,,,,,0.6445,1,,,,,,,,,,,,,,m,1,0.6445,,,,,,,,-0.117104158,-0.389652389,0,0,0,,0,34,34,50,1,PILOT,C,old,m,./images/PILOT.png,,,,,,,,,,,,,,,,,,,,,,,,,,,,,,,,,,
,,,,,,,,,,,,,,,,,5b0029933c08a1000156662c,29,2022-02-12_17h44.32.783,lexical_decision_task_DD_L5,2021.2.3,MacIntel,59.99880002,,,,,,,,,,,,0.8606,1,,,,,,,,,,,,,,z,1,0.8606,,,,,,,,-0.117104158,-0.389652389,0,0,0,,0,35,35,96,1,KEAMS,C,old,z,./images/KEAMS.png,,,,,,,,,,,,,,,,,,,,,,,,,,,,,,,,,,
,,,,,,,,,,,,,,,,,5b0029933c08a1000156662c,29,2022-02-12_17h44.32.783,lexical_decision_task_DD_L5,2021.2.3,MacIntel,59.99880002,,,,,,,,,,,,0.7297,1,,,,,,,,,,,,,,z,1,0.7297,,,,,,,,-0.117104158,-0.389652389,0,0,0,,0,36,36,98,1,BAMPS,LB,old,z,./images/BAMPSLB.png,,,,,,,,,,,,,,,,,,,,,,,,,,,,,,,,,,
,,,,,,,,,,,,,,,,,5b0029933c08a1000156662c,29,2022-02-12_17h44.32.783,lexical_decision_task_DD_L5,2021.2.3,MacIntel,59.99880002,,,,,,,,,,,,0.7002,1,,,,,,,,,,,,,,z,1,0.7002,,,,,,,,-0.117104158,-0.389652389,0,0,0,,0,37,37,153,1,CLUPS,C,old,z,./images/CLUPS.png,,,,,,,,,,,,,,,,,,,,,,,,,,,,,,,,,,
,,,,,,,,,,,,,,,,,5b0029933c08a1000156662c,29,2022-02-12_17h44.32.783,lexical_decision_task_DD_L5,2021.2.3,MacIntel,59.99880002,,,,,,,,,,,,1.0306,1,,,,,,,,,,,,,,m,1,1.0306,,,,,,,,-0.117104158,-0.389652389,0,0,0,,0,38,38,70,1,BANANA,LB,old,m,./images/BANANALB.png,,,,,,,,,,,,,,,,,,,,,,,,,,,,,,,,,,
,,,,,,,,,,,,,,,,,5b0029933c08a1000156662c,29,2022-02-12_17h44.32.783,lexical_decision_task_DD_L5,2021.2.3,MacIntel,59.99880002,,,,,,,,,,,,1.3996,1,,,,,,,,,,,,,,z,1,1.3996,,,,,,,,-0.117104158,-0.389652389,0,0,0,,0,39,39,112,1,MYING,HB,old,z,./images/MYINGHB.png,,,,,,,,,,,,,,,,,,,,,,,,,,,,,,,,,,
,,,,,,,,,,,,,,,,,5b0029933c08a1000156662c,29,2022-02-12_17h44.32.783,lexical_decision_task_DD_L5,2021.2.3,MacIntel,59.99880002,,,,,,,,,,,,1.1697,1,,,,,,,,,,,,,,z,1,1.1697,,,,,,,,-0.117104158,-0.389652389,0,0,0,,0,40,40,94,1,BLANS,HB,old,z,./images/BLANSHB.png,,,,,,,,,,,,,,,,,,,,,,,,,,,,,,,,,,
,,,,,,,,,,,,,,,,,5b0029933c08a1000156662c,29,2022-02-12_17h44.32.783,lexical_decision_task_DD_L5,2021.2.3,MacIntel,59.99880002,,,,,,,,,,,,0.8002,1,,,,,,,,,,,,,,z,1,0.8002,,,,,,,,-0.117104158,-0.389652389,0,0,0,space,0,41,41,150,1,NOOLS,C,old,z,./images/NOOLS.png,18.4405,,,,,,,,,,,,,,,,,,,,,,,,,,,,,,,,,
,,,,,,,,,,,,,,,,,5b0029933c08a1000156662c,29,2022-02-12_17h44.32.783,lexical_decision_task_DD_L5,2021.2.3,MacIntel,59.99880002,,,,,,,,,,,,0.6629,0,,,,,,,,,,,,,,z,0,0.6629,,,,,,,,-0.117104158,-0.389652389,0,0,0,,0,42,42,18,1,PARCEL,HB,old,m,./images/PARCELHB.png,,,,,,,,,,,,,,,,,,,,,,,,,,,,,,,,,,
,,,,,,,,,,,,,,,,,5b0029933c08a1000156662c,29,2022-02-12_17h44.32.783,lexical_decision_task_DD_L5,2021.2.3,MacIntel,59.99880002,,,,,,,,,,,,1.1446,1,,,,,,,,,,,,,,m,1,1.1446,,,,,,,,-0.117104158,-0.389652389,0,0,0,,0,43,43,52,1,DESERT,LB,old,m,./images/DESERTLB.png,,,,,,,,,,,,,,,,,,,,,,,,,,,,,,,,,,
,,,,,,,,,,,,,,,,,5b0029933c08a1000156662c,29,2022-02-12_17h44.32.783,lexical_decision_task_DD_L5,2021.2.3,MacIntel,59.99880002,,,,,,,,,,,,0.5986,1,,,,,,,,,,,,,,z,1,0.5986,,,,,,,,-0.117104158,-0.389652389,0,0,0,,0,44,44,134,1,TROSS,LB,old,z,./images/TROSSLB.png,,,,,,,,,,,,,,,,,,,,,,,,,,,,,,,,,,
,,,,,,,,,,,,,,,,,5b0029933c08a1000156662c,29,2022-02-12_17h44.32.783,lexical_decision_task_DD_L5,2021.2.3,MacIntel,59.99880002,,,,,,,,,,,,0.6774,1,,,,,,,,,,,,,,m,1,0.6774,,,,,,,,-0.117104158,-0.389652389,0,0,0,,0,45,45,17,1,PARADE,C,old,m,./images/PARADE.png,,,,,,,,,,,,,,,,,,,,,,,,,,,,,,,,,,
,,,,,,,,,,,,,,,,,5b0029933c08a1000156662c,29,2022-02-12_17h44.32.783,lexical_decision_task_DD_L5,2021.2.3,MacIntel,59.99880002,,,,,,,,,,,,1.1434,0,,,,,,,,,,,,,,z,0,1.1434,,,,,,,,-0.117104158,-0.389652389,0,0,0,,0,46,46,3,1,CRATER,HB,old,m,./images/CRATERHB.png,,,,,,,,,,,,,,,,,,,,,,,,,,,,,,,,,,
,,,,,,,,,,,,,,,,,5b0029933c08a1000156662c,29,2022-02-12_17h44.32.783,lexical_decision_task_DD_L5,2021.2.3,MacIntel,59.99880002,,,,,,,,,,,,1.2649,1,,,,,,,,,,,,,,z,1,1.2649,,,,,,,,-0.117104158,-0.389652389,0,0,0,,0,47,47,139,1,BLEAR,HB,old,z,./images/BLEARHB.png,,,,,,,,,,,,,,,,,,,,,,,,,,,,,,,,,,
,,,,,,,,,,,,,,,,,5b0029933c08a1000156662c,29,2022-02-12_17h44.32.783,lexical_decision_task_DD_L5,2021.2.3,MacIntel,59.99880002,,,,,,,,,,,,0.5962,1,,,,,,,,,,,,,,m,1,0.5962,,,,,,,,-0.117104158,-0.389652389,0,0,0,,0,48,48,22,1,CLOWN,LB,old,m,./images/CLOWNLB.png,,,,,,,,,,,,,,,,,,,,,,,,,,,,,,,,,,
,,,,,,,,,,,,,,,,,5b0029933c08a1000156662c,29,2022-02-12_17h44.32.783,lexical_decision_task_DD_L5,2021.2.3,MacIntel,59.99880002,,,,,,,,,,,,0.7871,1,,,,,,,,,,,,,,m,1,0.7871,,,,,,,,-0.117104158,-0.389652389,0,0,0,,0,49,49,67,1,POKER,LB,old,m,./images/POKERLB.png,,,,,,,,,,,,,,,,,,,,,,,,,,,,,,,,,,
,,,,,,,,,,,,,,,,,5b0029933c08a1000156662c,29,2022-02-12_17h44.32.783,lexical_decision_task_DD_L5,2021.2.3,MacIntel,59.99880002,,,,,,,,,,,,0.7431,1,,,,,,,,,,,,,,m,1,0.7431,,,,,,,,-0.117104158,-0.389652389,0,0,0,,0,50,50,14,1,FENCE,C,old,m,./images/FENCE.png,,,,,,,,,,,,,,,,,,,,,,,,,,,,,,,,,,
,,,,,,,,,,,,,,,,,5b0029933c08a1000156662c,29,2022-02-12_17h44.32.783,lexical_decision_task_DD_L5,2021.2.3,MacIntel,59.99880002,,,,,,,,,,,,0.7778,1,,,,,,,,,,,,,,m,1,0.7778,,,,,,,,-0.117104158,-0.389652389,0,0,0,,0,51,51,7,1,WAGON,LB,old,m,./images/WAGONLB.png,,,,,,,,,,,,,,,,,,,,,,,,,,,,,,,,,,
,,,,,,,,,,,,,,,,,5b0029933c08a1000156662c,29,2022-02-12_17h44.32.783,lexical_decision_task_DD_L5,2021.2.3,MacIntel,59.99880002,,,,,,,,,,,,0.6288,1,,,,,,,,,,,,,,m,1,0.6288,,,,,,,,-0.117104158,-0.389652389,0,0,0,,0,52,52,32,1,HOCKEY,C,old,m,./images/HOCKEY.png,,,,,,,,,,,,,,,,,,,,,,,,,,,,,,,,,,
,,,,,,,,,,,,,,,,,5b0029933c08a1000156662c,29,2022-02-12_17h44.32.783,lexical_decision_task_DD_L5,2021.2.3,MacIntel,59.99880002,,,,,,,,,,,,0.981,1,,,,,,,,,,,,,,z,1,0.981,,,,,,,,-0.117104158,-0.389652389,0,0,0,,0,53,53,140,1,DOVET,LB,old,z,./images/DOVETLB.png,,,,,,,,,,,,,,,,,,,,,,,,,,,,,,,,,,
,,,,,,,,,,,,,,,,,5b0029933c08a1000156662c,29,2022-02-12_17h44.32.783,lexical_decision_task_DD_L5,2021.2.3,MacIntel,59.99880002,,,,,,,,,,,,1.2583,1,,,,,,,,,,,,,,m,1,1.2583,,,,,,,,-0.117104158,-0.389652389,0,0,0,,0,54,54,35,1,LLAMA,C,old,m,./images/LLAMA.png,,,,,,,,,,,,,,,,,,,,,,,,,,,,,,,,,,
,,,,,,,,,,,,,,,,,5b0029933c08a1000156662c,29,2022-02-12_17h44.32.783,lexical_decision_task_DD_L5,2021.2.3,MacIntel,59.99880002,,,,,,,,,,,,0.7814,1,,,,,,,,,,,,,,z,1,0.7814,,,,,,,,-0.117104158,-0.389652389,0,0,0,,0,55,55,125,1,MOOKY,LB,old,z,./images/MOOKYLB.png,,,,,,,,,,,,,,,,,,,,,,,,,,,,,,,,,,
,,,,,,,,,,,,,,,,,5b0029933c08a1000156662c,29,2022-02-12_17h44.32.783,lexical_decision_task_DD_L5,2021.2.3,MacIntel,59.99880002,,,,,,,,,,,,0.911,1,,,,,,,,,,,,,,m,1,0.911,,,,,,,,-0.117104158,-0.389652389,0,0,0,,0,56,56,65,1,SPINE,C,old,m,./images/SPINE.png,,,,,,,,,,,,,,,,,,,,,,,,,,,,,,,,,,
,,,,,,,,,,,,,,,,,5b0029933c08a1000156662c,29,2022-02-12_17h44.32.783,lexical_decision_task_DD_L5,2021.2.3,MacIntel,59.99880002,,,,,,,,,,,,1.7693,1,,,,,,,,,,,,,,z,1,1.7693,,,,,,,,-0.117104158,-0.389652389,0,0,0,,0,57,57,127,1,NINDY,HB,old,z,./images/NINDYHB.png,,,,,,,,,,,,,,,,,,,,,,,,,,,,,,,,,,
,,,,,,,,,,,,,,,,,5b0029933c08a1000156662c,29,2022-02-12_17h44.32.783,lexical_decision_task_DD_L5,2021.2.3,MacIntel,59.99880002,,,,,,,,,,,,0.6512,1,,,,,,,,,,,,,,z,1,0.6512,,,,,,,,-0.117104158,-0.389652389,0,0,0,,0,58,58,138,1,PLICE,C,old,z,./images/PLICE.png,,,,,,,,,,,,,,,,,,,,,,,,,,,,,,,,,,
,,,,,,,,,,,,,,,,,5b0029933c08a1000156662c,29,2022-02-12_17h44.32.783,lexical_decision_task_DD_L5,2021.2.3,MacIntel,59.99880002,,,,,,,,,,,,0.9177,1,,,,,,,,,,,,,,m,1,0.9177,,,,,,,,-0.117104158,-0.389652389,0,0,0,,0,59,59,8,1,CLIFF,C,old,m,./images/CLIFF.png,,,,,,,,,,,,,,,,,,,,,,,,,,,,,,,,,,
,,,,,,,,,,,,,,,,,5b0029933c08a1000156662c,29,2022-02-12_17h44.32.783,lexical_decision_task_DD_L5,2021.2.3,MacIntel,59.99880002,,,,,,,,,,,,1.9782,1,,,,,,,,,,,,,,m,1,1.9782,,,,,,,,-0.117104158,-0.389652389,0,0,0,,0,60,60,60,1,CURRY,HB,old,m,./images/CURRYHB.png,,,,,,,,,,,,,,,,,,,,,,,,,,,,,,,,,,
,,,,,,,,,,,,,,,,,5b0029933c08a1000156662c,29,2022-02-12_17h44.32.783,lexical_decision_task_DD_L5,2021.2.3,MacIntel,59.99880002,,,,,,,,,,,,1.2955,1,,,,,,,,,,,,,,z,1,1.2955,,,,,,,,-0.117104158,-0.389652389,0,0,0,,0,61,61,164,1,SGREW,LB,old,z,./images/SGREWLB.png,,,,,,,,,,,,,,,,,,,,,,,,,,,,,,,,,,
,,,,,,,,,,,,,,,,,5b0029933c08a1000156662c,29,2022-02-12_17h44.32.783,lexical_decision_task_DD_L5,2021.2.3,MacIntel,59.99880002,,,,,,,,,,,,0.7261,0,,,,,,,,,,,,,,z,0,0.7261,,,,,,,,-0.117104158,-0.389652389,0,0,0,,0,62,62,47,1,LAGOON,C,old,m,./images/LAGOON.png,,,,,,,,,,,,,,,,,,,,,,,,,,,,,,,,,,
,,,,,,,,,,,,,,,,,5b0029933c08a1000156662c,29,2022-02-12_17h44.32.783,lexical_decision_task_DD_L5,2021.2.3,MacIntel,59.99880002,,,,,,,,,,,,1.1709,1,,,,,,,,,,,,,,m,1,1.1709,,,,,,,,-0.117104158,-0.389652389,0,0,0,,0,63,63,54,1,CHERRY,HB,old,m,./images/CHERRYHB.png,,,,,,,,,,,,,,,,,,,,,,,,,,,,,,,,,,
,,,,,,,,,,,,,,,,,5b0029933c08a1000156662c,29,2022-02-12_17h44.32.783,lexical_decision_task_DD_L5,2021.2.3,MacIntel,59.99880002,,,,,,,,,,,,0.8162,1,,,,,,,,,,,,,,m,1,0.8162,,,,,,,,-0.117104158,-0.389652389,0,0,0,,0,64,64,55,1,ALLEY,LB,old,m,./images/ALLEYLB.png,,,,,,,,,,,,,,,,,,,,,,,,,,,,,,,,,,
,,,,,,,,,,,,,,,,,5b0029933c08a1000156662c,29,2022-02-12_17h44.32.783,lexical_decision_task_DD_L5,2021.2.3,MacIntel,59.99880002,,,,,,,,,,,,0.6779,1,,,,,,,,,,,,,,z,1,0.6779,,,,,,,,-0.117104158,-0.389652389,0,0,0,,0,65,65,84,1,HAXES,C,old,z,./images/HAXES.png,,,,,,,,,,,,,,,,,,,,,,,,,,,,,,,,,,
,,,,,,,,,,,,,,,,,5b0029933c08a1000156662c,29,2022-02-12_17h44.32.783,lexical_decision_task_DD_L5,2021.2.3,MacIntel,59.99880002,,,,,,,,,,,,0.6974,1,,,,,,,,,,,,,,z,1,0.6974,,,,,,,,-0.117104158,-0.389652389,0,0,0,,0,66,66,90,1,NEAST,C,old,z,./images/NEAST.png,,,,,,,,,,,,,,,,,,,,,,,,,,,,,,,,,,
,,,,,,,,,,,,,,,,,5b0029933c08a1000156662c,29,2022-02-12_17h44.32.783,lexical_decision_task_DD_L5,2021.2.3,MacIntel,59.99880002,,,,,,,,,,,,1.0555,1,,,,,,,,,,,,,,z,1,1.0555,,,,,,,,-0.117104158,-0.389652389,0,0,0,,0,67,67,136,1,WERVE,HB,old,z,./images/WERVEHB.png,,,,,,,,,,,,,,,,,,,,,,,,,,,,,,,,,,
,,,,,,,,,,,,,,,,,5b0029933c08a1000156662c,29,2022-02-12_17h44.32.783,lexical_decision_task_DD_L5,2021.2.3,MacIntel,59.99880002,,,,,,,,,,,,0.7563,1,,,,,,,,,,,,,,z,1,0.7563,,,,,,,,-0.117104158,-0.389652389,0,0,0,,0,68,68,111,1,HOSSE,C,old,z,./images/HOSSE.png,,,,,,,,,,,,,,,,,,,,,,,,,,,,,,,,,,
,,,,,,,,,,,,,,,,,5b0029933c08a1000156662c,29,2022-02-12_17h44.32.783,lexical_decision_task_DD_L5,2021.2.3,MacIntel,59.99880002,,,,,,,,,,,,0.7832,1,,,,,,,,,,,,,,m,1,0.7832,,,,,,,,-0.117104158,-0.389652389,0,0,0,,0,69,69,62,1,MAMMAL,C,old,m,./images/MAMMAL.png,,,,,,,,,,,,,,,,,,,,,,,,,,,,,,,,,,
,,,,,,,,,,,,,,,,,5b0029933c08a1000156662c,29,2022-02-12_17h44.32.783,lexical_decision_task_DD_L5,2021.2.3,MacIntel,59.99880002,,,,,,,,,,,,0.7222,1,,,,,,,,,,,,,,z,1,0.7222,,,,,,,,-0.117104158,-0.389652389,0,0,0,,0,70,70,108,1,GRUET,C,old,z,./images/GRUET.png,,,,,,,,,,,,,,,,,,,,,,,,,,,,,,,,,,
,,,,,,,,,,,,,,,,,5b0029933c08a1000156662c,29,2022-02-12_17h44.32.783,lexical_decision_task_DD_L5,2021.2.3,MacIntel,59.99880002,,,,,,,,,,,,0.88,1,,,,,,,,,,,,,,m,1,0.88,,,,,,,,-0.117104158,-0.389652389,0,0,0,,0,71,71,49,1,BISHOP,LB,old,m,./images/BISHOPLB.png,,,,,,,,,,,,,,,,,,,,,,,,,,,,,,,,,,
,,,,,,,,,,,,,,,,,5b0029933c08a1000156662c,29,2022-02-12_17h44.32.783,lexical_decision_task_DD_L5,2021.2.3,MacIntel,59.99880002,,,,,,,,,,,,0.6664,1,,,,,,,,,,,,,,z,1,0.6664,,,,,,,,-0.117104158,-0.389652389,0,0,0,,0,72,72,167,1,ZONET,LB,old,z,./images/ZONETLB.png,,,,,,,,,,,,,,,,,,,,,,,,,,,,,,,,,,
,,,,,,,,,,,,,,,,,5b0029933c08a1000156662c,29,2022-02-12_17h44.32.783,lexical_decision_task_DD_L5,2021.2.3,MacIntel,59.99880002,,,,,,,,,,,,0.8645,1,,,,,,,,,,,,,,m,1,0.8645,,,,,,,,-0.117104158,-0.389652389,0,0,0,,0,73,73,40,1,SNAKE,LB,old,m,./images/SNAKELB.png,,,,,,,,,,,,,,,,,,,,,,,,,,,,,,,,,,
,,,,,,,,,,,,,,,,,5b0029933c08a1000156662c,29,2022-02-12_17h44.32.783,lexical_decision_task_DD_L5,2021.2.3,MacIntel,59.99880002,,,,,,,,,,,,0.898,1,,,,,,,,,,,,,,m,1,0.898,,,,,,,,-0.117104158,-0.389652389,0,0,0,,0,74,74,56,1,HEATER,C,old,m,./images/HEATER.png,,,,,,,,,,,,,,,,,,,,,,,,,,,,,,,,,,
,,,,,,,,,,,,,,,,,5b0029933c08a1000156662c,29,2022-02-12_17h44.32.783,lexical_decision_task_DD_L5,2021.2.3,MacIntel,59.99880002,,,,,,,,,,,,0.9198,1,,,,,,,,,,,,,,m,1,0.9198,,,,,,,,-0.117104158,-0.389652389,0,0,0,,0,75,75,66,1,STATUE,HB,old,m,./images/STATUEHB.png,,,,,,,,,,,,,,,,,,,,,,,,,,,,,,,,,,
,,,,,,,,,,,,,,,,,5b0029933c08a1000156662c,29,2022-02-12_17h44.32.783,lexical_decision_task_DD_L5,2021.2.3,MacIntel,59.99880002,,,,,,,,,,,,1.0813,1,,,,,,,,,,,,,,m,1,1.0813,,,,,,,,-0.117104158,-0.389652389,0,0,0,,0,76,76,74,1,JUMPER,C,old,m,./images/JUMPER.png,,,,,,,,,,,,,,,,,,,,,,,,,,,,,,,,,,
,,,,,,,,,,,,,,,,,5b0029933c08a1000156662c,29,2022-02-12_17h44.32.783,lexical_decision_task_DD_L5,2021.2.3,MacIntel,59.99880002,,,,,,,,,,,,0.6615,1,,,,,,,,,,,,,,z,1,0.6615,,,,,,,,-0.117104158,-0.389652389,0,0,0,,0,77,77,86,1,AIFED,LB,old,z,./images/AIFEDLB.png,,,,,,,,,,,,,,,,,,,,,,,,,,,,,,,,,,
,,,,,,,,,,,,,,,,,5b0029933c08a1000156662c,29,2022-02-12_17h44.32.783,lexical_decision_task_DD_L5,2021.2.3,MacIntel,59.99880002,,,,,,,,,,,,0.8464,1,,,,,,,,,,,,,,m,1,0.8464,,,,,,,,-0.117104158,-0.389652389,0,0,0,,0,78,78,2,1,STOVE,C,old,m,./images/STOVE.png,,,,,,,,,,,,,,,,,,,,,,,,,,,,,,,,,,
,,,,,,,,,,,,,,,,,5b0029933c08a1000156662c,29,2022-02-12_17h44.32.783,lexical_decision_task_DD_L5,2021.2.3,MacIntel,59.99880002,,,,,,,,,,,,0.8317,1,,,,,,,,,,,,,,z,1,0.8317,,,,,,,,-0.117104158,-0.389652389,0,0,0,,0,79,79,89,1,DRIEK,LB,old,z,./images/DRIEKLB.png,,,,,,,,,,,,,,,,,,,,,,,,,,,,,,,,,,
,,,,,,,,,,,,,,,,,5b0029933c08a1000156662c,29,2022-02-12_17h44.32.783,lexical_decision_task_DD_L5,2021.2.3,MacIntel,59.99880002,,,,,,,,,,,,0.6518,1,,,,,,,,,,,,,,z,1,0.6518,,,,,,,,-0.117104158,-0.389652389,0,0,0,,0,80,80,165,1,TROWN,C,old,z,./images/TROWN.png,,,,,,,,,,,,,,,,,,,,,,,,,,,,,,,,,,
,,,,,,,,,,,,,,,,,5b0029933c08a1000156662c,29,2022-02-12_17h44.32.783,lexical_decision_task_DD_L5,2021.2.3,MacIntel,59.99880002,,,,,,,,,,,,1.2621,1,,,,,,,,,,,,,,z,1,1.2621,,,,,,,,-0.117104158,-0.389652389,0,0,0,,0,81,81,97,1,CHIDS,HB,old,z,./images/CHIDSHB.png,,,,,,,,,,,,,,,,,,,,,,,,,,,,,,,,,,
,,,,,,,,,,,,,,,,,5b0029933c08a1000156662c,29,2022-02-12_17h44.32.783,lexical_decision_task_DD_L5,2021.2.3,MacIntel,59.99880002,,,,,,,,,,,,0.7042,1,,,,,,,,,,,,,,z,1,0.7042,,,,,,,,-0.117104158,-0.389652389,0,0,0,,0,82,82,159,1,CUDDY,C,old,z,./images/CUDDY.png,,,,,,,,,,,,,,,,,,,,,,,,,,,,,,,,,,
,,,,,,,,,,,,,,,,,5b0029933c08a1000156662c,29,2022-02-12_17h44.32.783,lexical_decision_task_DD_L5,2021.2.3,MacIntel,59.99880002,,,,,,,,,,,,0.751,1,,,,,,,,,,,,,,m,1,0.751,,,,,,,,-0.117104158,-0.389652389,0,0,0,space,0,83,83,81,1,DRILL,HB,old,m,./images/DRILLHB.png,9.8198,,,,,,,,,,,,,,,,,,,,,,,,,,,,,,,,,
,,,,,,,,,,,,,,,,,5b0029933c08a1000156662c,29,2022-02-12_17h44.32.783,lexical_decision_task_DD_L5,2021.2.3,MacIntel,59.99880002,,,,,,,,,,,,1.9358,1,,,,,,,,,,,,,,m,1,1.9358,,,,,,,,-0.117104158,-0.389652389,0,0,0,,0,84,84,57,1,FERRY,HB,old,m,./images/FERRYHB.png,,,,,,,,,,,,,,,,,,,,,,,,,,,,,,,,,,
,,,,,,,,,,,,,,,,,5b0029933c08a1000156662c,29,2022-02-12_17h44.32.783,lexical_decision_task_DD_L5,2021.2.3,MacIntel,59.99880002,,,,,,,,,,,,0.8803,1,,,,,,,,,,,,,,z,1,0.8803,,,,,,,,-0.117104158,-0.389652389,0,0,0,,0,85,85,124,1,TUNCH,HB,old,z,./images/TUNCHHB.png,,,,,,,,,,,,,,,,,,,,,,,,,,,,,,,,,,
,,,,,,,,,,,,,,,,,5b0029933c08a1000156662c,29,2022-02-12_17h44.32.783,lexical_decision_task_DD_L5,2021.2.3,MacIntel,59.99880002,,,,,,,,,,,,1.7644,1,,,,,,,,,,,,,,z,1,1.7644,,,,,,,,-0.117104158,-0.389652389,0,0,0,,0,86,86,145,1,LAMEL,HB,old,z,./images/LAMELHB.png,,,,,,,,,,,,,,,,,,,,,,,,,,,,,,,,,,
,,,,,,,,,,,,,,,,,5b0029933c08a1000156662c,29,2022-02-12_17h44.32.783,lexical_decision_task_DD_L5,2021.2.3,MacIntel,59.99880002,,,,,,,,,,,,1.0528,1,,,,,,,,,,,,,,m,1,1.0528,,,,,,,,-0.117104158,-0.389652389,0,0,0,,0,87,87,39,1,CANDY,HB,old,m,./images/CANDYHB.png,,,,,,,,,,,,,,,,,,,,,,,,,,,,,,,,,,
,,,,,,,,,,,,,,,,,5b0029933c08a1000156662c,29,2022-02-12_17h44.32.783,lexical_decision_task_DD_L5,2021.2.3,MacIntel,59.99880002,,,,,,,,,,,,0.6138,1,,,,,,,,,,,,,,z,1,0.6138,,,,,,,,-0.117104158,-0.389652389,0,0,0,,0,88,88,123,1,SEDGE,C,old,z,./images/SEDGE.png,,,,,,,,,,,,,,,,,,,,,,,,,,,,,,,,,,
,,,,,,,,,,,,,,,,,5b0029933c08a1000156662c,29,2022-02-12_17h44.32.783,lexical_decision_task_DD_L5,2021.2.3,MacIntel,59.99880002,,,,,,,,,,,,0.9359,1,,,,,,,,,,,,,,m,1,0.9359,,,,,,,,-0.117104158,-0.389652389,0,0,0,,0,89,89,4,1,BOXER,LB,old,m,./images/BOXERLB.png,,,,,,,,,,,,,,,,,,,,,,,,,,,,,,,,,,
,,,,,,,,,,,,,,,,,5b0029933c08a1000156662c,29,2022-02-12_17h44.32.783,lexical_decision_task_DD_L5,2021.2.3,MacIntel,59.99880002,,,,,,,,,,,,0.7034,1,,,,,,,,,,,,,,m,1,0.7034,,,,,,,,-0.117104158,-0.389652389,0,0,0,,0,90,90,58,1,CANOE,LB,old,m,./images/CANOELB.png,,,,,,,,,,,,,,,,,,,,,,,,,,,,,,,,,,
,,,,,,,,,,,,,,,,,5b0029933c08a1000156662c,29,2022-02-12_17h44.32.783,lexical_decision_task_DD_L5,2021.2.3,MacIntel,59.99880002,,,,,,,,,,,,0.6547,1,,,,,,,,,,,,,,m,1,0.6547,,,,,,,,-0.117104158,-0.389652389,0,0,0,,0,91,91,37,1,TIGER,LB,old,m,./images/TIGERLB.png,,,,,,,,,,,,,,,,,,,,,,,,,,,,,,,,,,
,,,,,,,,,,,,,,,,,5b0029933c08a1000156662c,29,2022-02-12_17h44.32.783,lexical_decision_task_DD_L5,2021.2.3,MacIntel,59.99880002,,,,,,,,,,,,0.5429,1,,,,,,,,,,,,,,m,1,0.5429,,,,,,,,-0.117104158,-0.389652389,0,0,0,,0,92,92,23,1,CLOTH,C,old,m,./images/CLOTH.png,,,,,,,,,,,,,,,,,,,,,,,,,,,,,,,,,,
,,,,,,,,,,,,,,,,,5b0029933c08a1000156662c,29,2022-02-12_17h44.32.783,lexical_decision_task_DD_L5,2021.2.3,MacIntel,59.99880002,,,,,,,,,,,,1.3778,0,,,,,,,,,,,,,,z,0,1.3778,,,,,,,,-0.117104158,-0.389652389,0,0,0,,0,93,93,83,1,WHISKY,C,old,m,./images/WHISKY.png,,,,,,,,,,,,,,,,,,,,,,,,,,,,,,,,,,
,,,,,,,,,,,,,,,,,5b0029933c08a1000156662c,29,2022-02-12_17h44.32.783,lexical_decision_task_DD_L5,2021.2.3,MacIntel,59.99880002,,,,,,,,,,,,0.9,1,,,,,,,,,,,,,,m,1,0.9,,,,,,,,-0.117104158,-0.389652389,0,0,0,,0,94,94,31,1,STEAK,LB,old,m,./images/STEAKLB.png,,,,,,,,,,,,,,,,,,,,,,,,,,,,,,,,,,
,,,,,,,,,,,,,,,,,5b0029933c08a1000156662c,29,2022-02-12_17h44.32.783,lexical_decision_task_DD_L5,2021.2.3,MacIntel,59.99880002,,,,,,,,,,,,1.0121,1,,,,,,,,,,,,,,m,1,1.0121,,,,,,,,-0.117104158,-0.389652389,0,0,0,,0,95,95,27,1,BUTTER,HB,old,m,./images/BUTTERHB.png,,,,,,,,,,,,,,,,,,,,,,,,,,,,,,,,,,
,,,,,,,,,,,,,,,,,5b0029933c08a1000156662c,29,2022-02-12_17h44.32.783,lexical_decision_task_DD_L5,2021.2.3,MacIntel,59.99880002,,,,,,,,,,,,0.6288,1,,,,,,,,,,,,,,m,1,0.6288,,,,,,,,-0.117104158,-0.389652389,0,0,0,,0,96,96,41,1,STREAM,C,old,m,./images/STREAM.png,,,,,,,,,,,,,,,,,,,,,,,,,,,,,,,,,,
,,,,,,,,,,,,,,,,,5b0029933c08a1000156662c,29,2022-02-12_17h44.32.783,lexical_decision_task_DD_L5,2021.2.3,MacIntel,59.99880002,,,,,,,,,,,,0.7293,1,,,,,,,,,,,,,,z,1,0.7293,,,,,,,,-0.117104158,-0.389652389,0,0,0,,0,97,97,129,1,PRANS,C,old,z,./images/PRANS.png,,,,,,,,,,,,,,,,,,,,,,,,,,,,,,,,,,
,,,,,,,,,,,,,,,,,5b0029933c08a1000156662c,29,2022-02-12_17h44.32.783,lexical_decision_task_DD_L5,2021.2.3,MacIntel,59.99880002,,,,,,,,,,,,0.6019,1,,,,,,,,,,,,,,m,1,0.6019,,,,,,,,-0.117104158,-0.389652389,0,0,0,,0,98,98,69,1,ARROW,HB,old,m,./images/ARROWHB.png,,,,,,,,,,,,,,,,,,,,,,,,,,,,,,,,,,
,,,,,,,,,,,,,,,,,5b0029933c08a1000156662c,29,2022-02-12_17h44.32.783,lexical_decision_task_DD_L5,2021.2.3,MacIntel,59.99880002,,,,,,,,,,,,0.6531,1,,,,,,,,,,,,,,z,1,0.6531,,,,,,,,-0.117104158,-0.389652389,0,0,0,,0,99,99,149,1,VEASE,LB,old,z,./images/VEASELB.png,,,,,,,,,,,,,,,,,,,,,,,,,,,,,,,,,,
,,,,,,,,,,,,,,,,,5b0029933c08a1000156662c,29,2022-02-12_17h44.32.783,lexical_decision_task_DD_L5,2021.2.3,MacIntel,59.99880002,,,,,,,,,,,,0.9143,1,,,,,,,,,,,,,,z,1,0.9143,,,,,,,,-0.117104158,-0.389652389,0,0,0,,0,100,100,146,1,MOOST,LB,old,z,./images/MOOSTLB.png,,,,,,,,,,,,,,,,,,,,,,,,,,,,,,,,,,
,,,,,,,,,,,,,,,,,5b0029933c08a1000156662c,29,2022-02-12_17h44.32.783,lexical_decision_task_DD_L5,2021.2.3,MacIntel,59.99880002,,,,,,,,,,,,0.9479,1,,,,,,,,,,,,,,z,1,0.9479,,,,,,,,-0.117104158,-0.389652389,0,0,0,,0,101,101,115,1,MAWNS,HB,old,z,./images/MAWNSHB.png,,,,,,,,,,,,,,,,,,,,,,,,,,,,,,,,,,
,,,,,,,,,,,,,,,,,5b0029933c08a1000156662c,29,2022-02-12_17h44.32.783,lexical_decision_task_DD_L5,2021.2.3,MacIntel,59.99880002,,,,,,,,,,,,0.6942,1,,,,,,,,,,,,,,m,1,0.6942,,,,,,,,-0.117104158,-0.389652389,0,0,0,,0,102,102,71,1,BUBBLE,C,old,m,./images/BUBBLE.png,,,,,,,,,,,,,,,,,,,,,,,,,,,,,,,,,,
,,,,,,,,,,,,,,,,,5b0029933c08a1000156662c,29,2022-02-12_17h44.32.783,lexical_decision_task_DD_L5,2021.2.3,MacIntel,59.99880002,,,,,,,,,,,,0.6324,1,,,,,,,,,,,,,,z,1,0.6324,,,,,,,,-0.117104158,-0.389652389,0,0,0,,0,103,103,104,1,GITTY,LB,old,z,./images/GITTYLB.png,,,,,,,,,,,,,,,,,,,,,,,,,,,,,,,,,,
,,,,,,,,,,,,,,,,,5b0029933c08a1000156662c,29,2022-02-12_17h44.32.783,lexical_decision_task_DD_L5,2021.2.3,MacIntel,59.99880002,,,,,,,,,,,,2.6971,1,,,,,,,,,,,,,,m,1,2.6971,,,,,,,,-0.117104158,-0.389652389,0,0,0,,0,104,104,6,1,STAIN,HB,old,m,./images/STAINHB.png,,,,,,,,,,,,,,,,,,,,,,,,,,,,,,,,,,
,,,,,,,,,,,,,,,,,5b0029933c08a1000156662c,29,2022-02-12_17h44.32.783,lexical_decision_task_DD_L5,2021.2.3,MacIntel,59.99880002,,,,,,,,,,,,0.7125,1,,,,,,,,,,,,,,z,1,0.7125,,,,,,,,-0.117104158,-0.389652389,0,0,0,,0,105,105,151,1,TINKY,HB,old,z,./images/TINKYHB.png,,,,,,,,,,,,,,,,,,,,,,,,,,,,,,,,,,
,,,,,,,,,,,,,,,,,5b0029933c08a1000156662c,29,2022-02-12_17h44.32.783,lexical_decision_task_DD_L5,2021.2.3,MacIntel,59.99880002,,,,,,,,,,,,0.7982,1,,,,,,,,,,,,,,m,1,0.7982,,,,,,,,-0.117104158,-0.389652389,0,0,0,,0,106,106,30,1,SLOPE,HB,old,m,./images/SLOPEHB.png,,,,,,,,,,,,,,,,,,,,,,,,,,,,,,,,,,
,,,,,,,,,,,,,,,,,5b0029933c08a1000156662c,29,2022-02-12_17h44.32.783,lexical_decision_task_DD_L5,2021.2.3,MacIntel,59.99880002,,,,,,,,,,,,0.6297,1,,,,,,,,,,,,,,z,1,0.6297,,,,,,,,-0.117104158,-0.389652389,0,0,0,,0,107,107,117,1,STEEG,C,old,z,./images/STEEG.png,,,,,,,,,,,,,,,,,,,,,,,,,,,,,,,,,,
,,,,,,,,,,,,,,,,,5b0029933c08a1000156662c,29,2022-02-12_17h44.32.783,lexical_decision_task_DD_L5,2021.2.3,MacIntel,59.99880002,,,,,,,,,,,,0.8661,1,,,,,,,,,,,,,,z,1,0.8661,,,,,,,,-0.117104158,-0.389652389,0,0,0,,0,108,108,144,1,NAIRY,C,old,z,./images/NAIRY.png,,,,,,,,,,,,,,,,,,,,,,,,,,,,,,,,,,
,,,,,,,,,,,,,,,,,5b0029933c08a1000156662c,29,2022-02-12_17h44.32.783,lexical_decision_task_DD_L5,2021.2.3,MacIntel,59.99880002,,,,,,,,,,,,0.9137,1,,,,,,,,,,,,,,m,1,0.9137,,,,,,,,-0.117104158,-0.389652389,0,0,0,,0,109,109,38,1,ENGINE,C,old,m,./images/ENGINE.png,,,,,,,,,,,,,,,,,,,,,,,,,,,,,,,,,,
,,,,,,,,,,,,,,,,,5b0029933c08a1000156662c,29,2022-02-12_17h44.32.783,lexical_decision_task_DD_L5,2021.2.3,MacIntel,59.99880002,,,,,,,,,,,,1.288,1,,,,,,,,,,,,,,m,1,1.288,,,,,,,,-0.117104158,-0.389652389,0,0,0,,0,110,110,51,1,SAUCE,HB,old,m,./images/SAUCEHB.png,,,,,,,,,,,,,,,,,,,,,,,,,,,,,,,,,,
,,,,,,,,,,,,,,,,,5b0029933c08a1000156662c,29,2022-02-12_17h44.32.783,lexical_decision_task_DD_L5,2021.2.3,MacIntel,59.99880002,,,,,,,,,,,,0.9472,1,,,,,,,,,,,,,,z,1,0.9472,,,,,,,,-0.117104158,-0.389652389,0,0,0,,0,111,111,105,1,MOKER,C,old,z,./images/MOKER.png,,,,,,,,,,,,,,,,,,,,,,,,,,,,,,,,,,
,,,,,,,,,,,,,,,,,5b0029933c08a1000156662c,29,2022-02-12_17h44.32.783,lexical_decision_task_DD_L5,2021.2.3,MacIntel,59.99880002,,,,,,,,,,,,0.6955,1,,,,,,,,,,,,,,m,1,0.6955,,,,,,,,-0.117104158,-0.389652389,0,0,0,,0,112,112,44,1,BASKET,C,old,m,./images/BASKET.png,,,,,,,,,,,,,,,,,,,,,,,,,,,,,,,,,,
,,,,,,,,,,,,,,,,,5b0029933c08a1000156662c,29,2022-02-12_17h44.32.783,lexical_decision_task_DD_L5,2021.2.3,MacIntel,59.99880002,,,,,,,,,,,,1.2771,1,,,,,,,,,,,,,,z,1,1.2771,,,,,,,,-0.117104158,-0.389652389,0,0,0,,0,113,113,118,1,BAVEL,HB,old,z,./images/BAVELHB.png,,,,,,,,,,,,,,,,,,,,,,,,,,,,,,,,,,
,,,,,,,,,,,,,,,,,5b0029933c08a1000156662c,29,2022-02-12_17h44.32.783,lexical_decision_task_DD_L5,2021.2.3,MacIntel,59.99880002,,,,,,,,,,,,0.681,1,,,,,,,,,,,,,,z,1,0.681,,,,,,,,-0.117104158,-0.389652389,0,0,0,,0,114,114,155,1,CANGY,LB,old,z,./images/CANGYLB.png,,,,,,,,,,,,,,,,,,,,,,,,,,,,,,,,,,
,,,,,,,,,,,,,,,,,5b0029933c08a1000156662c,29,2022-02-12_17h44.32.783,lexical_decision_task_DD_L5,2021.2.3,MacIntel,59.99880002,,,,,,,,,,,,0.8335,1,,,,,,,,,,,,,,m,1,0.8335,,,,,,,,-0.117104158,-0.389652389,0,0,0,,0,115,115,26,1,CLOUD,C,old,m,./images/CLOUD.png,,,,,,,,,,,,,,,,,,,,,,,,,,,,,,,,,,
,,,,,,,,,,,,,,,,,5b0029933c08a1000156662c,29,2022-02-12_17h44.32.783,lexical_decision_task_DD_L5,2021.2.3,MacIntel,59.99880002,,,,,,,,,,,,1.0614,1,,,,,,,,,,,,,,z,1,1.0614,,,,,,,,-0.117104158,-0.389652389,0,0,0,,0,116,116,103,1,FLORT,HB,old,z,./images/FLORTHB.png,,,,,,,,,,,,,,,,,,,,,,,,,,,,,,,,,,
,,,,,,,,,,,,,,,,,5b0029933c08a1000156662c,29,2022-02-12_17h44.32.783,lexical_decision_task_DD_L5,2021.2.3,MacIntel,59.99880002,,,,,,,,,,,,0.6299,1,,,,,,,,,,,,,,z,1,0.6299,,,,,,,,-0.117104158,-0.389652389,0,0,0,,0,117,117,131,1,NACES,LB,old,z,./images/NACESLB.png,,,,,,,,,,,,,,,,,,,,,,,,,,,,,,,,,,
,,,,,,,,,,,,,,,,,5b0029933c08a1000156662c,29,2022-02-12_17h44.32.783,lexical_decision_task_DD_L5,2021.2.3,MacIntel,59.99880002,,,,,,,,,,,,1.5014,1,,,,,,,,,,,,,,z,1,1.5014,,,,,,,,-0.117104158,-0.389652389,0,0,0,,0,118,118,157,1,INLER,HB,old,z,./images/INLERHB.png,,,,,,,,,,,,,,,,,,,,,,,,,,,,,,,,,,
,,,,,,,,,,,,,,,,,5b0029933c08a1000156662c,29,2022-02-12_17h44.32.783,lexical_decision_task_DD_L5,2021.2.3,MacIntel,59.99880002,,,,,,,,,,,,1.0666,1,,,,,,,,,,,,,,m,1,1.0666,,,,,,,,-0.117104158,-0.389652389,0,0,0,,0,119,119,36,1,BOILER,HB,old,m,./images/BOILERHB.png,,,,,,,,,,,,,,,,,,,,,,,,,,,,,,,,,,
,,,,,,,,,,,,,,,,,5b0029933c08a1000156662c,29,2022-02-12_17h44.32.783,lexical_decision_task_DD_L5,2021.2.3,MacIntel,59.99880002,,,,,,,,,,,,0.7941,1,,,,,,,,,,,,,,m,1,0.7941,,,,,,,,-0.117104158,-0.389652389,0,0,0,,0,120,120,73,1,GLOVE,LB,old,m,./images/GLOVELB.png,,,,,,,,,,,,,,,,,,,,,,,,,,,,,,,,,,
,,,,,,,,,,,,,,,,,5b0029933c08a1000156662c,29,2022-02-12_17h44.32.783,lexical_decision_task_DD_L5,2021.2.3,MacIntel,59.99880002,,,,,,,,,,,,1.1811,1,,,,,,,,,,,,,,z,1,1.1811,,,,,,,,-0.117104158,-0.389652389,0,0,0,,0,121,121,133,1,POWDY,HB,old,z,./images/POWDYHB.png,,,,,,,,,,,,,,,,,,,,,,,,,,,,,,,,,,
,,,,,,,,,,,,,,,,,5b0029933c08a1000156662c,29,2022-02-12_17h44.32.783,lexical_decision_task_DD_L5,2021.2.3,MacIntel,59.99880002,,,,,,,,,,,,1.0961,0,,,,,,,,,,,,,,z,0,1.0961,,,,,,,,-0.117104158,-0.389652389,0,0,0,,0,122,122,63,1,BAKER,HB,old,m,./images/BAKERHB.png,,,,,,,,,,,,,,,,,,,,,,,,,,,,,,,,,,
,,,,,,,,,,,,,,,,,5b0029933c08a1000156662c,29,2022-02-12_17h44.32.783,lexical_decision_task_DD_L5,2021.2.3,MacIntel,59.99880002,,,,,,,,,,,,0.7157,1,,,,,,,,,,,,,,z,1,0.7157,,,,,,,,-0.117104158,-0.389652389,0,0,0,,0,123,123,101,1,GLEET,LB,old,z,./images/GLEETLB.png,,,,,,,,,,,,,,,,,,,,,,,,,,,,,,,,,,
,,,,,,,,,,,,,,,,,5b0029933c08a1000156662c,29,2022-02-12_17h44.32.783,lexical_decision_task_DD_L5,2021.2.3,MacIntel,59.99880002,,,,,,,,,,,,0.5474,1,,,,,,,,,,,,,,z,1,0.5474,,,,,,,,-0.117104158,-0.389652389,0,0,0,,0,124,124,113,1,LINEW,LB,old,z,./images/LINEWLB.png,,,,,,,,,,,,,,,,,,,,,,,,,,,,,,,,,,
,,,,,,,,,,,,,,,,,5b0029933c08a1000156662c,29,2022-02-12_17h44.32.783,lexical_decision_task_DD_L5,2021.2.3,MacIntel,59.99880002,,,,,,,,,,,,0.9966,1,,,,,,,,,,,,,,z,1,0.9966,,,,,,,,-0.117104158,-0.389652389,0,0,0,space,0,125,125,162,1,LEICH,C,old,z,./images/LEICH.png,10.5365,,,,,,,,,,,,,,,,,,,,,,,,,,,,,,,,,
,,,,,,,,,,,,,,,,,5b0029933c08a1000156662c,29,2022-02-12_17h44.32.783,lexical_decision_task_DD_L5,2021.2.3,MacIntel,59.99880002,,,,,,,,,,,,0.7103,1,,,,,,,,,,,,,,z,1,0.7103,,,,,,,,-0.117104158,-0.389652389,0,0,0,,0,126,126,102,1,DULLE,C,old,z,./images/DULLE.png,,,,,,,,,,,,,,,,,,,,,,,,,,,,,,,,,,
,,,,,,,,,,,,,,,,,5b0029933c08a1000156662c,29,2022-02-12_17h44.32.783,lexical_decision_task_DD_L5,2021.2.3,MacIntel,59.99880002,,,,,,,,,,,,0.7669,1,,,,,,,,,,,,,,m,1,0.7669,,,,,,,,-0.117104158,-0.389652389,0,0,0,,0,127,127,19,1,DONKEY,LB,old,m,./images/DONKEYLB.png,,,,,,,,,,,,,,,,,,,,,,,,,,,,,,,,,,
,,,,,,,,,,,,,,,,,5b0029933c08a1000156662c,29,2022-02-12_17h44.32.783,lexical_decision_task_DD_L5,2021.2.3,MacIntel,59.99880002,,,,,,,,,,,,0.6082,1,,,,,,,,,,,,,,m,1,0.6082,,,,,,,,-0.117104158,-0.389652389,0,0,0,,0,128,128,5,1,BAMBOO,C,old,m,./images/BAMBOO.png,,,,,,,,,,,,,,,,,,,,,,,,,,,,,,,,,,
,,,,,,,,,,,,,,,,,5b0029933c08a1000156662c,29,2022-02-12_17h44.32.783,lexical_decision_task_DD_L5,2021.2.3,MacIntel,59.99880002,,,,,,,,,,,,0.5585,1,,,,,,,,,,,,,,z,1,0.5585,,,,,,,,-0.117104158,-0.389652389,0,0,0,,0,129,129,132,1,SCIFF,C,old,z,./images/SCIFF.png,,,,,,,,,,,,,,,,,,,,,,,,,,,,,,,,,,
,,,,,,,,,,,,,,,,,5b0029933c08a1000156662c,29,2022-02-12_17h44.32.783,lexical_decision_task_DD_L5,2021.2.3,MacIntel,59.99880002,,,,,,,,,,,,0.8109,1,,,,,,,,,,,,,,m,1,0.8109,,,,,,,,-0.117104158,-0.389652389,0,0,0,,0,130,130,80,1,PLANET,C,old,m,./images/PLANET.png,,,,,,,,,,,,,,,,,,,,,,,,,,,,,,,,,,
,,,,,,,,,,,,,,,,,5b0029933c08a1000156662c,29,2022-02-12_17h44.32.783,lexical_decision_task_DD_L5,2021.2.3,MacIntel,59.99880002,,,,,,,,,,,,0.5321,0,,,,,,,,,,,,,,z,0,0.5321,,,,,,,,-0.117104158,-0.389652389,0,0,0,,0,131,131,33,1,SAUNA,HB,old,m,./images/SAUNAHB.png,,,,,,,,,,,,,,,,,,,,,,,,,,,,,,,,,,
,,,,,,,,,,,,,,,,,5b0029933c08a1000156662c,29,2022-02-12_17h44.32.783,lexical_decision_task_DD_L5,2021.2.3,MacIntel,59.99880002,,,,,,,,,,,,1.0107,0,,,,,,,,,,,,,,m,0,1.0107,,,,,,,,-0.117104158,-0.389652389,0,0,0,,0,132,132,100,1,DRIBS,HB,old,z,./images/DRIBSHB.png,,,,,,,,,,,,,,,,,,,,,,,,,,,,,,,,,,
,,,,,,,,,,,,,,,,,5b0029933c08a1000156662c,29,2022-02-12_17h44.32.783,lexical_decision_task_DD_L5,2021.2.3,MacIntel,59.99880002,,,,,,,,,,,,1.6783,1,,,,,,,,,,,,,,z,1,1.6783,,,,,,,,-0.117104158,-0.389652389,0,0,0,,0,133,133,109,1,BURGE,HB,old,z,./images/BURGEHB.png,,,,,,,,,,,,,,,,,,,,,,,,,,,,,,,,,,
,,,,,,,,,,,,,,,,,5b0029933c08a1000156662c,29,2022-02-12_17h44.32.783,lexical_decision_task_DD_L5,2021.2.3,MacIntel,59.99880002,,,,,,,,,,,,0.7468,1,,,,,,,,,,,,,,z,1,0.7468,,,,,,,,-0.117104158,-0.389652389,0,0,0,,0,134,134,152,1,FRAIN,LB,old,z,./images/FRAINLB.png,,,,,,,,,,,,,,,,,,,,,,,,,,,,,,,,,,
,,,,,,,,,,,,,,,,,5b0029933c08a1000156662c,29,2022-02-12_17h44.32.783,lexical_decision_task_DD_L5,2021.2.3,MacIntel,59.99880002,,,,,,,,,,,,0.5823,0,,,,,,,,,,,,,,z,0,0.5823,,,,,,,,-0.117104158,-0.389652389,0,0,0,,0,135,135,76,1,MIDGET,LB,old,m,./images/MIDGETLB.png,,,,,,,,,,,,,,,,,,,,,,,,,,,,,,,,,,
,,,,,,,,,,,,,,,,,5b0029933c08a1000156662c,29,2022-02-12_17h44.32.783,lexical_decision_task_DD_L5,2021.2.3,MacIntel,59.99880002,,,,,,,,,,,,0.4809,0,,,,,,,,,,,,,,z,0,0.4809,,,,,,,,-0.117104158,-0.389652389,0,0,0,,0,136,136,68,1,VALLEY,C,old,m,./images/VALLEY.png,,,,,,,,,,,,,,,,,,,,,,,,,,,,,,,,,,
,,,,,,,,,,,,,,,,,5b0029933c08a1000156662c,29,2022-02-12_17h44.32.783,lexical_decision_task_DD_L5,2021.2.3,MacIntel,59.99880002,,,,,,,,,,,,0.584,1,,,,,,,,,,,,,,m,1,0.584,,,,,,,,-0.117104158,-0.389652389,0,0,0,,0,137,137,28,1,CASINO,LB,old,m,./images/CASINOLB.png,,,,,,,,,,,,,,,,,,,,,,,,,,,,,,,,,,
,,,,,,,,,,,,,,,,,5b0029933c08a1000156662c,29,2022-02-12_17h44.32.783,lexical_decision_task_DD_L5,2021.2.3,MacIntel,59.99880002,,,,,,,,,,,,0.7135,0,,,,,,,,,,,,,,z,0,0.7135,,,,,,,,-0.117104158,-0.389652389,0,0,0,,0,138,138,9,1,DIVER,HB,old,m,./images/DIVERHB.png,,,,,,,,,,,,,,,,,,,,,,,,,,,,,,,,,,
,,,,,,,,,,,,,,,,,5b0029933c08a1000156662c,29,2022-02-12_17h44.32.783,lexical_decision_task_DD_L5,2021.2.3,MacIntel,59.99880002,,,,,,,,,,,,0.8803,1,,,,,,,,,,,,,,m,1,0.8803,,,,,,,,-0.117104158,-0.389652389,0,0,0,,0,139,139,42,1,CHAIN,HB,old,m,./images/CHAINHB.png,,,,,,,,,,,,,,,,,,,,,,,,,,,,,,,,,,
,,,,,,,,,,,,,,,,,5b0029933c08a1000156662c,29,2022-02-12_17h44.32.783,lexical_decision_task_DD_L5,2021.2.3,MacIntel,59.99880002,,,,,,,,,,,,0.7137,1,,,,,,,,,,,,,,m,1,0.7137,,,,,,,,-0.117104158,-0.389652389,0,0,0,,0,140,140,79,1,RULER,LB,old,m,./images/RULERLB.png,,,,,,,,,,,,,,,,,,,,,,,,,,,,,,,,,,
,,,,,,,,,,,,,,,,,5b0029933c08a1000156662c,29,2022-02-12_17h44.32.783,lexical_decision_task_DD_L5,2021.2.3,MacIntel,59.99880002,,,,,,,,,,,,1.0805,1,,,,,,,,,,,,,,m,1,1.0805,,,,,,,,-0.117104158,-0.389652389,0,0,0,,0,141,141,12,1,BLOKE,HB,old,m,./images/BLOKEHB.png,,,,,,,,,,,,,,,,,,,,,,,,,,,,,,,,,,
,,,,,,,,,,,,,,,,,5b0029933c08a1000156662c,29,2022-02-12_17h44.32.783,lexical_decision_task_DD_L5,2021.2.3,MacIntel,59.99880002,,,,,,,,,,,,0.797,1,,,,,,,,,,,,,,z,1,0.797,,,,,,,,-0.117104158,-0.389652389,0,0,0,,0,142,142,116,1,BALGY,LB,old,z,./images/BALGYLB.png,,,,,,,,,,,,,,,,,,,,,,,,,,,,,,,,,,
,,,,,,,,,,,,,,,,,5b0029933c08a1000156662c,29,2022-02-12_17h44.32.783,lexical_decision_task_DD_L5,2021.2.3,MacIntel,59.99880002,,,,,,,,,,,,0.6626,1,,,,,,,,,,,,,,m,1,0.6626,,,,,,,,-0.117104158,-0.389652389,0,0,0,,0,143,143,53,1,POSTER,C,old,m,./images/POSTER.png,,,,,,,,,,,,,,,,,,,,,,,,,,,,,,,,,,
,,,,,,,,,,,,,,,,,5b0029933c08a1000156662c,29,2022-02-12_17h44.32.783,lexical_decision_task_DD_L5,2021.2.3,MacIntel,59.99880002,,,,,,,,,,,,0.649,1,,,,,,,,,,,,,,m,1,0.649,,,,,,,,-0.117104158,-0.389652389,0,0,0,,0,144,144,1,1,TOWEL,LB,old,m,./images/TOWELLB.png,,,,,,,,,,,,,,,,,,,,,,,,,,,,,,,,,,
,,,,,,,,,,,,,,,,,5b0029933c08a1000156662c,29,2022-02-12_17h44.32.783,lexical_decision_task_DD_L5,2021.2.3,MacIntel,59.99880002,,,,,,,,,,,,2.115,1,,,,,,,,,,,,,,z,1,2.115,,,,,,,,-0.117104158,-0.389652389,0,0,0,,0,145,145,161,1,BLAPS,LB,old,z,./images/BLAPSLB.png,,,,,,,,,,,,,,,,,,,,,,,,,,,,,,,,,,
,,,,,,,,,,,,,,,,,5b0029933c08a1000156662c,29,2022-02-12_17h44.32.783,lexical_decision_task_DD_L5,2021.2.3,MacIntel,59.99880002,,,,,,,,,,,,0.5509,1,,,,,,,,,,,,,,m,1,0.5509,,,,,,,,-0.117104158,-0.389652389,0,0,0,,0,146,146,13,1,BUNNY,LB,old,m,./images/BUNNYLB.png,,,,,,,,,,,,,,,,,,,,,,,,,,,,,,,,,,
,,,,,,,,,,,,,,,,,5b0029933c08a1000156662c,29,2022-02-12_17h44.32.783,lexical_decision_task_DD_L5,2021.2.3,MacIntel,59.99880002,,,,,,,,,,,,1.364,1,,,,,,,,,,,,,,m,1,1.364,,,,,,,,-0.117104158,-0.389652389,0,0,0,,0,147,147,45,1,MONKEY,HB,old,m,./images/MONKEYHB.png,,,,,,,,,,,,,,,,,,,,,,,,,,,,,,,,,,
,,,,,,,,,,,,,,,,,5b0029933c08a1000156662c,29,2022-02-12_17h44.32.783,lexical_decision_task_DD_L5,2021.2.3,MacIntel,59.99880002,,,,,,,,,,,,0.9522,1,,,,,,,,,,,,,,m,1,0.9522,,,,,,,,-0.117104158,-0.389652389,0,0,0,,0,148,148,43,1,STOOL,LB,old,m,./images/STOOLLB.png,,,,,,,,,,,,,,,,,,,,,,,,,,,,,,,,,,
,,,,,,,,,,,,,,,,,5b0029933c08a1000156662c,29,2022-02-12_17h44.32.783,lexical_decision_task_DD_L5,2021.2.3,MacIntel,59.99880002,,,,,,,,,,,,1.2462,1,,,,,,,,,,,,,,m,1,1.2462,,,,,,,,-0.117104158,-0.389652389,0,0,0,,0,149,149,25,1,CHALK,LB,old,m,./images/CHALKLB.png,,,,,,,,,,,,,,,,,,,,,,,,,,,,,,,,,,
,,,,,,,,,,,,,,,,,5b0029933c08a1000156662c,29,2022-02-12_17h44.32.783,lexical_decision_task_DD_L5,2021.2.3,MacIntel,59.99880002,,,,,,,,,,,,0.7479,1,,,,,,,,,,,,,,z,1,0.7479,,,,,,,,-0.117104158,-0.389652389,0,0,0,,0,150,150,163,1,GAMBA,HB,old,z,./images/GAMBAHB.png,,,,,,,,,,,,,,,,,,,,,,,,,,,,,,,,,,
,,,,,,,,,,,,,,,,,5b0029933c08a1000156662c,29,2022-02-12_17h44.32.783,lexical_decision_task_DD_L5,2021.2.3,MacIntel,59.99880002,,,,,,,,,,,,1.4897,1,,,,,,,,,,,,,,z,1,1.4897,,,,,,,,-0.117104158,-0.389652389,0,0,0,,0,151,151,148,1,JOMS,HB,old,z,./images/JOMSHB.png,,,,,,,,,,,,,,,,,,,,,,,,,,,,,,,,,,
,,,,,,,,,,,,,,,,,5b0029933c08a1000156662c,29,2022-02-12_17h44.32.783,lexical_decision_task_DD_L5,2021.2.3,MacIntel,59.99880002,,,,,,,,,,,,0.8054,1,,,,,,,,,,,,,,z,1,0.8054,,,,,,,,-0.117104158,-0.389652389,0,0,0,,0,152,152,120,1,RINED,C,old,z,./images/RINED.png,,,,,,,,,,,,,,,,,,,,,,,,,,,,,,,,,,
,,,,,,,,,,,,,,,,,5b0029933c08a1000156662c,29,2022-02-12_17h44.32.783,lexical_decision_task_DD_L5,2021.2.3,MacIntel,59.99880002,,,,,,,,,,,,0.9656,1,,,,,,,,,,,,,,m,1,0.9656,,,,,,,,-0.117104158,-0.389652389,0,0,0,,0,153,153,64,1,BRIDE,LB,old,m,./images/BRIDELB.png,,,,,,,,,,,,,,,,,,,,,,,,,,,,,,,,,,
,,,,,,,,,,,,,,,,,5b0029933c08a1000156662c,29,2022-02-12_17h44.32.783,lexical_decision_task_DD_L5,2021.2.3,MacIntel,59.99880002,,,,,,,,,,,,1.6137,1,,,,,,,,,,,,,,z,1,1.6137,,,,,,,,-0.117104158,-0.389652389,0,0,0,,0,154,154,156,1,HIXES,C,old,z,./images/HIXES.png,,,,,,,,,,,,,,,,,,,,,,,,,,,,,,,,,,
,,,,,,,,,,,,,,,,,5b0029933c08a1000156662c,29,2022-02-12_17h44.32.783,lexical_decision_task_DD_L5,2021.2.3,MacIntel,59.99880002,,,,,,,,,,,,1.2153,1,,,,,,,,,,,,,,z,1,1.2153,,,,,,,,-0.117104158,-0.389652389,0,0,0,,0,155,155,93,1,SMONE,C,old,z,./images/SMONE.png,,,,,,,,,,,,,,,,,,,,,,,,,,,,,,,,,,
,,,,,,,,,,,,,,,,,5b0029933c08a1000156662c,29,2022-02-12_17h44.32.783,lexical_decision_task_DD_L5,2021.2.3,MacIntel,59.99880002,,,,,,,,,,,,1.1692,1,,,,,,,,,,,,,,z,1,1.1692,,,,,,,,-0.117104158,-0.389652389,0,0,0,,0,156,156,88,1,GLUSH,HB,old,z,./images/GLUSHHB.png,,,,,,,,,,,,,,,,,,,,,,,,,,,,,,,,,,
,,,,,,,,,,,,,,,,,5b0029933c08a1000156662c,29,2022-02-12_17h44.32.783,lexical_decision_task_DD_L5,2021.2.3,MacIntel,59.99880002,,,,,,,,,,,,0.5485,1,,,,,,,,,,,,,,z,1,0.5485,,,,,,,,-0.117104158,-0.389652389,0,0,0,,0,157,157,91,1,SHENS,HB,old,z,./images/SHENSHB.png,,,,,,,,,,,,,,,,,,,,,,,,,,,,,,,,,,
,,,,,,,,,,,,,,,,,5b0029933c08a1000156662c,29,2022-02-12_17h44.32.783,lexical_decision_task_DD_L5,2021.2.3,MacIntel,59.99880002,,,,,,,,,,,,0.5332,1,,,,,,,,,,,,,,m,1,0.5332,,,,,,,,-0.117104158,-0.389652389,0,0,0,,0,158,158,20,1,GRANNY,C,old,m,./images/GRANNY.png,,,,,,,,,,,,,,,,,,,,,,,,,,,,,,,,,,
,,,,,,,,,,,,,,,,,5b0029933c08a1000156662c,29,2022-02-12_17h44.32.783,lexical_decision_task_DD_L5,2021.2.3,MacIntel,59.99880002,,,,,,,,,,,,1.266,1,,,,,,,,,,,,,,z,1,1.266,,,,,,,,-0.117104158,-0.389652389,0,0,0,,0,159,159,85,1,CHULK,HB,old,z,./images/CHULKHB.png,,,,,,,,,,,,,,,,,,,,,,,,,,,,,,,,,,
,,,,,,,,,,,,,,,,,5b0029933c08a1000156662c,29,2022-02-12_17h44.32.783,lexical_decision_task_DD_L5,2021.2.3,MacIntel,59.99880002,,,,,,,,,,,,0.5474,1,,,,,,,,,,,,,,m,1,0.5474,,,,,,,,-0.117104158,-0.389652389,0,0,0,,0,160,160,34,1,RAZOR,LB,old,m,./images/RAZORLB.png,,,,,,,,,,,,,,,,,,,,,,,,,,,,,,,,,,
,,,,,,,,,,,,,,,,,5b0029933c08a1000156662c,29,2022-02-12_17h44.32.783,lexical_decision_task_DD_L5,2021.2.3,MacIntel,59.99880002,,,,,,,,,,,,0.7111,1,,,,,,,,,,,,,,z,1,0.7111,,,,,,,,-0.117104158,-0.389652389,0,0,0,,0,161,161,141,1,PLEET,C,old,z,./images/PLEET.png,,,,,,,,,,,,,,,,,,,,,,,,,,,,,,,,,,
,,,,,,,,,,,,,,,,,5b0029933c08a1000156662c,29,2022-02-12_17h44.32.783,lexical_decision_task_DD_L5,2021.2.3,MacIntel,59.99880002,,,,,,,,,,,,0.9803,1,,,,,,,,,,,,,,m,1,0.9803,,,,,,,,-0.117104158,-0.389652389,0,0,0,,0,162,162,0,1,WALNUT,HB,old,m,./images/WALNUTHB.png,,,,,,,,,,,,,,,,,,,,,,,,,,,,,,,,,,
,,,,,,,,,,,,,,,,,5b0029933c08a1000156662c,29,2022-02-12_17h44.32.783,lexical_decision_task_DD_L5,2021.2.3,MacIntel,59.99880002,,,,,,,,,,,,0.8806,1,,,,,,,,,,,,,,z,1,0.8806,,,,,,,,-0.117104158,-0.389652389,0,0,0,,0,163,163,119,1,PAFER,LB,old,z,./images/PAFERLB.png,,,,,,,,,,,,,,,,,,,,,,,,,,,,,,,,,,
,,,,,,,,,,,,,,,,,5b0029933c08a1000156662c,29,2022-02-12_17h44.32.783,lexical_decision_task_DD_L5,2021.2.3,MacIntel,59.99880002,,,,,,,,,,,,0.7122,0,,,,,,,,,,,,,,m,0,0.7122,,,,,,,,-0.117104158,-0.389652389,0,0,0,,0,164,164,128,1,GRIFT,LB,old,z,./images/GRIFTLB.png,,,,,,,,,,,,,,,,,,,,,,,,,,,,,,,,,,
,,,,,,,,,,,,,,,,,5b0029933c08a1000156662c,29,2022-02-12_17h44.32.783,lexical_decision_task_DD_L5,2021.2.3,MacIntel,59.99880002,,,,,,,,,,,,0.6672,0,,,,,,,,,,,,,,z,0,0.6672,,,,,,,,-0.117104158,-0.389652389,0,0,0,,0,165,165,75,1,HAMMER,HB,old,m,./images/HAMMERHB.png,,,,,,,,,,,,,,,,,,,,,,,,,,,,,,,,,,
,,,,,,,,,,,,,,,,,5b0029933c08a1000156662c,29,2022-02-12_17h44.32.783,lexical_decision_task_DD_L5,2021.2.3,MacIntel,59.99880002,,,,,,,,,,,,1.0788,0,,,,,,,,,,,,,,m,0,1.0788,,,,,,,,-0.117104158,-0.389652389,0,0,0,,0,166,166,121,1,CEERS,HB,old,z,./images/CEERSHB.png,,,,,,,,,,,,,,,,,,,,,,,,,,,,,,,,,,
,,,,,,,,,,,,,,,,,5b0029933c08a1000156662c,29,2022-02-12_17h44.32.783,lexical_decision_task_DD_L5,2021.2.3,MacIntel,59.99880002,,,,,,,,,,,,0.7213,1,,,,,,,,,,,,,,m,1,0.7213,,,,,,,,-0.117104158,-0.389652389,0,0,0,,0,167,167,10,1,GARDEN,LB,old,m,./images/GARDENLB.png,,,,,,,,,,,,,,,,,,,,,,,,,,,,,,,,,,
,,,,,,,,,,,,,,,,,5b0029933c08a1000156662c,29,2022-02-12_17h44.32.783,lexical_decision_task_DD_L5,2021.2.3,MacIntel,59.99880002,,,,,,,,,,,,,,,,,,,,,,,,,,,,,,,,,,,,,,,,,,,,,,,,,How likely will it be that you will recognize the words presented very blurred on a scale of 0 (not likely) to 100 (most likely)?,,,,,-0.011404397,-0.375747878,1,0,0,jol_adv,1,3.2163,0,0,0,2,1,,,,,,,,,,,,,,,,,,,,
,,,,,,,,,,,,,,,,,5b0029933c08a1000156662c,29,2022-02-12_17h44.32.783,lexical_decision_task_DD_L5,2021.2.3,MacIntel,59.99880002,,,,,,,,,,,,,,,,,,,,,,,,,,,,,,,,,,,,,,,,,,,,,,,,,How likely will it be that you will recognize the words presented clearly on a scale of 0 (not likely) to 100 (most likely)?,,,,,,,,,,,1,0.4005,0,1,1,0,1,,,,,,,,,,,,,,,,,,,,
,,,,,,,,,,,,,,,,,5b0029933c08a1000156662c,29,2022-02-12_17h44.32.783,lexical_decision_task_DD_L5,2021.2.3,MacIntel,59.99880002,,,,,,,,,,,,,,,,,,,,,,,,,,,,,,,,,,,,,,,,,,,,,,,,,How likely will it be that you will recognize the words presented slighly blurred on a scale of 0 (not likely) to 100 (most likely)?,,,,,,,,,,,1,1.5354,0,2,2,1,1,,,,,,,,,,,,,,,,,,,,
,-0.115849557,-0.386895181,1,0,0,instr_done_button,,,,,,1,test,"In the next phase you will be presented with the words from the the first phase. Your job is to decide whether you remember seeing the word or not. If you remember seeing the word press ""old"" or type ""m"". If you do not remember seeing the word press ""new"" or type ""z"". Please press the space bar or click on continue to begin. ",,,5b0029933c08a1000156662c,29,2022-02-12_17h44.32.783,lexical_decision_task_DD_L5,2021.2.3,MacIntel,59.99880002,,,,,,,,,,,,,,,,,,,,,,,,,,,,,,,,,,,,,,,,,,,,,,,,,,,,,,,,,,,,,,,,,,,0,0,0,0,1,,,,,,,,,,,,,,,
space,-0.066699043,-0.394525542,0,0,0,,,,,,,1,test,"In the next phase you will be presented with the words from the the first phase. Your job is to decide whether you remember seeing the word or not. If you remember seeing the word press ""old"" or type ""m"". If you do not remember seeing the word press ""new"" or type ""z"". Please press the space bar or click on continue to begin. ",,,5b0029933c08a1000156662c,29,2022-02-12_17h44.32.783,lexical_decision_task_DD_L5,2021.2.3,MacIntel,59.99880002,10.023,,,,,,,,,,,,,,,,,,,,,,,,,,,,,,,,,,,,,,,,,,,,,,,,,,,,,,,,,,,,,,,,,,1,0,1,0,1,,,,,,,,,,,,,,,
space,-0.066699043,-0.394525542,0,0,0,,,,,,,1,test,"In the next phase you will be presented with the words from the the first phase. Your job is to decide whether you remember seeing the word or not. If you remember seeing the word press ""old"" or type ""m"". If you do not remember seeing the word press ""new"" or type ""z"". Please press the space bar or click on continue to begin. ",,,5b0029933c08a1000156662c,29,2022-02-12_17h44.32.783,lexical_decision_task_DD_L5,2021.2.3,MacIntel,59.99880002,2.1026,,,,,,,,,,,,,,,,,,,,,,,,,,,,,,,,,,,,,,,,,,,,,,,,,,,,,,,,,,,,,,,,,,2,0,2,0,1,,,,,,,,,,,,,,,
,-0.066698999,-0.394525542,1,0,0,instr_done_button,,,,,,1,test,"In the next phase you will be presented with the words from the the first phase. Your job is to decide whether you remember seeing the word or not. If you remember seeing the word press ""old"" or type ""m"". If you do not remember seeing the word press ""new"" or type ""z"". Please press the space bar or click on continue to begin. ",,,5b0029933c08a1000156662c,29,2022-02-12_17h44.32.783,lexical_decision_task_DD_L5,2021.2.3,MacIntel,59.99880002,,,,,,,,,,,,,,,,,,,,,,,,,,,,,,,,,,,,,,,,,,,,,,,,,,,,,,,,,,,,,,,,,,,3,0,3,0,1,,,,,,,,,,,,,,,
,-0.007150905,-0.387796745,1,0,0,instr_done_button,,,,,,1,test,"In the next phase you will be presented with the words from the the first phase. Your job is to decide whether you remember seeing the word or not. If you remember seeing the word press ""old"" or type ""m"". If you do not remember seeing the word press ""new"" or type ""z"". Please press the space bar or click on continue to begin. ",,,5b0029933c08a1000156662c,29,2022-02-12_17h44.32.783,lexical_decision_task_DD_L5,2021.2.3,MacIntel,59.99880002,,,,,,,,,,,,,,,,,,,,,,,,,,,,,,,,,,,,,,,,,,,,,,,,,,,,,,,,,,,,,,,,,,,4,0,4,0,1,,,,,,,,,,,,,,,
,,,,,,,,,,,,,,,,,5b0029933c08a1000156662c,29,2022-02-12_17h44.32.783,lexical_decision_task_DD_L5,2021.2.3,MacIntel,59.99880002,,,,,,,,,,,,2.7459,1,,,,,,,,,,,,,,,,,,,,,,,,-0.007150861,-0.387796745,0,0,0,,,,,,,FERRY,HB,m,y,./images/FERRYHB.png,,,,,,,,,,,,,,,,,,,,m,1,2.7459,,,,,,,,0,0,0,57,1
,,,,,,,,,,,,,,,,,5b0029933c08a1000156662c,29,2022-02-12_17h44.32.783,lexical_decision_task_DD_L5,2021.2.3,MacIntel,59.99880002,,,,,,,,,,,,0.9699,1,,,,,,,,,,,,,,,,,,,,,,,,-0.007150861,-0.387796745,0,0,0,,,,,,,BUBBLE,C,m,y,./images/BUBBLE.png,,,,,,,,,,,,,,,,,,,,m,1,0.9699,,,,,,,,0,1,1,71,1
,,,,,,,,,,,,,,,,,5b0029933c08a1000156662c,29,2022-02-12_17h44.32.783,lexical_decision_task_DD_L5,2021.2.3,MacIntel,59.99880002,,,,,,,,,,,,0.9166,1,,,,,,,,,,,,,,,,,,,,,,,,-0.007150861,-0.387796745,0,0,0,,,,,,,ENGINE,C,m,y,./images/ENGINE.png,,,,,,,,,,,,,,,,,,,,m,1,0.9166,,,,,,,,0,2,2,38,1
,,,,,,,,,,,,,,,,,5b0029933c08a1000156662c,29,2022-02-12_17h44.32.783,lexical_decision_task_DD_L5,2021.2.3,MacIntel,59.99880002,,,,,,,,,,,,0.7332,1,,,,,,,,,,,,,,,,,,,,,,,,-0.007150861,-0.387796745,0,0,0,,,,,,,CANOE,LB,m,y,./images/CANOELB.png,,,,,,,,,,,,,,,,,,,,m,1,0.7332,,,,,,,,0,3,3,58,1
,,,,,,,,,,,,,,,,,5b0029933c08a1000156662c,29,2022-02-12_17h44.32.783,lexical_decision_task_DD_L5,2021.2.3,MacIntel,59.99880002,,,,,,,,,,,,1.1332,1,,,,,,,,,,,,,,,,,,,,,,,,-0.007150861,-0.387796745,0,0,0,,,,,,,BROOM,HB,m,y,./images/BROOMHB.png,,,,,,,,,,,,,,,,,,,,m,1,1.1332,,,,,,,,0,4,4,78,1
,,,,,,,,,,,,,,,,,5b0029933c08a1000156662c,29,2022-02-12_17h44.32.783,lexical_decision_task_DD_L5,2021.2.3,MacIntel,59.99880002,,,,,,,,,,,,1.0928,1,,,,,,,,,,,,,,,,,,,,,,,,-0.007150861,-0.387796745,0,0,0,,,,,,,CURRY,HB,m,y,./images/CURRYHB.png,,,,,,,,,,,,,,,,,,,,m,1,1.0928,,,,,,,,0,5,5,60,1
,,,,,,,,,,,,,,,,,5b0029933c08a1000156662c,29,2022-02-12_17h44.32.783,lexical_decision_task_DD_L5,2021.2.3,MacIntel,59.99880002,,,,,,,,,,,,0.7616,1,,,,,,,,,,,,,,,,,,,,,,,,-0.007150861,-0.387796745,0,0,0,,,,,,,BOILER,HB,m,y,./images/BOILERHB.png,,,,,,,,,,,,,,,,,,,,m,1,0.7616,,,,,,,,0,6,6,36,1
,,,,,,,,,,,,,,,,,5b0029933c08a1000156662c,29,2022-02-12_17h44.32.783,lexical_decision_task_DD_L5,2021.2.3,MacIntel,59.99880002,,,,,,,,,,,,0.8976,1,,,,,,,,,,,,,,,,,,,,,,,,-0.007150861,-0.387796745,0,0,0,,,,,,,PAINT,LB,z,y,./images/PAINTLB.png,,,,,,,,,,,,,,,,,,,,z,1,0.8976,,,,,,,,0,7,7,91,1
,,,,,,,,,,,,,,,,,5b0029933c08a1000156662c,29,2022-02-12_17h44.32.783,lexical_decision_task_DD_L5,2021.2.3,MacIntel,59.99880002,,,,,,,,,,,,0.8535,1,,,,,,,,,,,,,,,,,,,,,,,,-0.007150861,-0.387796745,0,0,0,,,,,,,STOVE,C,m,y,./images/STOVE.png,,,,,,,,,,,,,,,,,,,,m,1,0.8535,,,,,,,,0,8,8,2,1
,,,,,,,,,,,,,,,,,5b0029933c08a1000156662c,29,2022-02-12_17h44.32.783,lexical_decision_task_DD_L5,2021.2.3,MacIntel,59.99880002,,,,,,,,,,,,2.5472,0,,,,,,,,,,,,,,,,,,,,,,,,-0.007150861,-0.387796745,0,0,0,,,,,,,SNACK,LB,z,y,./images/SNACKLB.png,,,,,,,,,,,,,,,,,,,,m,0,2.5472,,,,,,,,0,9,9,157,1
,,,,,,,,,,,,,,,,,5b0029933c08a1000156662c,29,2022-02-12_17h44.32.783,lexical_decision_task_DD_L5,2021.2.3,MacIntel,59.99880002,,,,,,,,,,,,0.698,1,,,,,,,,,,,,,,,,,,,,,,,,-0.007150861,-0.387796745,0,0,0,,,,,,,RAZOR,LB,m,y,./images/RAZORLB.png,,,,,,,,,,,,,,,,,,,,m,1,0.698,,,,,,,,0,10,10,34,1
,,,,,,,,,,,,,,,,,5b0029933c08a1000156662c,29,2022-02-12_17h44.32.783,lexical_decision_task_DD_L5,2021.2.3,MacIntel,59.99880002,,,,,,,,,,,,0.7226,1,,,,,,,,,,,,,,,,,,,,,,,,-0.007150861,-0.387796745,0,0,0,,,,,,,BASKET,C,m,y,./images/BASKET.png,,,,,,,,,,,,,,,,,,,,m,1,0.7226,,,,,,,,0,11,11,44,1
,,,,,,,,,,,,,,,,,5b0029933c08a1000156662c,29,2022-02-12_17h44.32.783,lexical_decision_task_DD_L5,2021.2.3,MacIntel,59.99880002,,,,,,,,,,,,0.8171,1,,,,,,,,,,,,,,,,,,,,,,,,-0.007150861,-0.387796745,0,0,0,,,,,,,TIGER,LB,m,y,./images/TIGERLB.png,,,,,,,,,,,,,,,,,,,,m,1,0.8171,,,,,,,,0,12,12,37,1
,,,,,,,,,,,,,,,,,5b0029933c08a1000156662c,29,2022-02-12_17h44.32.783,lexical_decision_task_DD_L5,2021.2.3,MacIntel,59.99880002,,,,,,,,,,,,0.8333,0,,,,,,,,,,,,,,,,,,,,,,,,-0.007150861,-0.387796745,0,0,0,,,,,,,MUFFIN,LB,z,y,./images/MUFFINLB.png,,,,,,,,,,,,,,,,,,,,m,0,0.8333,,,,,,,,0,13,13,139,1
,,,,,,,,,,,,,,,,,5b0029933c08a1000156662c,29,2022-02-12_17h44.32.783,lexical_decision_task_DD_L5,2021.2.3,MacIntel,59.99880002,,,,,,,,,,,,0.771,1,,,,,,,,,,,,,,,,,,,,,,,,-0.007150861,-0.387796745,0,0,0,,,,,,,KITTEN,HB,z,y,./images/KITTENHB.png,,,,,,,,,,,,,,,,,,,,z,1,0.771,,,,,,,,0,14,14,129,1
,,,,,,,,,,,,,,,,,5b0029933c08a1000156662c,29,2022-02-12_17h44.32.783,lexical_decision_task_DD_L5,2021.2.3,MacIntel,59.99880002,,,,,,,,,,,,1.4687,1,,,,,,,,,,,,,,,,,,,,,,,,-0.007150861,-0.387796745,0,0,0,,,,,,,CRUST,LB,z,y,./images/CRUSTLB.png,,,,,,,,,,,,,,,,,,,,z,1,1.4687,,,,,,,,0,15,15,163,1
,,,,,,,,,,,,,,,,,5b0029933c08a1000156662c,29,2022-02-12_17h44.32.783,lexical_decision_task_DD_L5,2021.2.3,MacIntel,59.99880002,,,,,,,,,,,,0.8873,1,,,,,,,,,,,,,,,,,,,,,,,,-0.007150861,-0.387796745,0,0,0,,,,,,,SKIING,C,z,y,./images/SKIING.png,,,,,,,,,,,,,,,,,,,,z,1,0.8873,,,,,,,,0,16,16,101,1
,,,,,,,,,,,,,,,,,5b0029933c08a1000156662c,29,2022-02-12_17h44.32.783,lexical_decision_task_DD_L5,2021.2.3,MacIntel,59.99880002,,,,,,,,,,,,0.8981,0,,,,,,,,,,,,,,,,,,,,,,,,-0.007150861,-0.387796745,0,0,0,,,,,,,CRUMB,C,z,y,./images/CRUMB.png,,,,,,,,,,,,,,,,,,,,m,0,0.8981,,,,,,,,0,17,17,113,1
,,,,,,,,,,,,,,,,,5b0029933c08a1000156662c,29,2022-02-12_17h44.32.783,lexical_decision_task_DD_L5,2021.2.3,MacIntel,59.99880002,,,,,,,,,,,,1.1158,0,,,,,,,,,,,,,,,,,,,,,,,,-0.007150861,-0.387796745,0,0,0,,,,,,,PACKET,C,z,y,./images/PACKET.png,,,,,,,,,,,,,,,,,,,,m,0,1.1158,,,,,,,,0,18,18,140,1
,,,,,,,,,,,,,,,,,5b0029933c08a1000156662c,29,2022-02-12_17h44.32.783,lexical_decision_task_DD_L5,2021.2.3,MacIntel,59.99880002,,,,,,,,,,,,0.8824,1,,,,,,,,,,,,,,,,,,,,,,,,-0.007150861,-0.387796745,0,0,0,,,,,,,FLESH,HB,m,y,./images/FLESHHB.png,,,,,,,,,,,,,,,,,,,,m,1,0.8824,,,,,,,,0,19,19,24,1
,,,,,,,,,,,,,,,,,5b0029933c08a1000156662c,29,2022-02-12_17h44.32.783,lexical_decision_task_DD_L5,2021.2.3,MacIntel,59.99880002,,,,,,,,,,,,0.8997,1,,,,,,,,,,,,,,,,,,,,,,,,-0.007150861,-0.387796745,0,0,0,,,,,,,HEATER,C,m,y,./images/HEATER.png,,,,,,,,,,,,,,,,,,,,m,1,0.8997,,,,,,,,0,20,20,56,1
,,,,,,,,,,,,,,,,,5b0029933c08a1000156662c,29,2022-02-12_17h44.32.783,lexical_decision_task_DD_L5,2021.2.3,MacIntel,59.99880002,,,,,,,,,,,,0.8968,1,,,,,,,,,,,,,,,,,,,,,,,,-0.007150861,-0.387796745,0,0,0,,,,,,,BLOKE,HB,m,y,./images/BLOKEHB.png,,,,,,,,,,,,,,,,,,,,m,1,0.8968,,,,,,,,0,21,21,12,1
,,,,,,,,,,,,,,,,,5b0029933c08a1000156662c,29,2022-02-12_17h44.32.783,lexical_decision_task_DD_L5,2021.2.3,MacIntel,59.99880002,,,,,,,,,,,,0.6656,1,,,,,,,,,,,,,,,,,,,,,,,,-0.007150861,-0.387796745,0,0,0,,,,,,,CASINO,LB,m,y,./images/CASINOLB.png,,,,,,,,,,,,,,,,,,,,m,1,0.6656,,,,,,,,0,22,22,28,1
,,,,,,,,,,,,,,,,,5b0029933c08a1000156662c,29,2022-02-12_17h44.32.783,lexical_decision_task_DD_L5,2021.2.3,MacIntel,59.99880002,,,,,,,,,,,,4.0207,1,,,,,,,,,,,,,,,,,,,,,,,,-0.007150861,-0.387796745,0,0,0,,,,,,,TOMATO,HB,z,y,./images/TOMATOHB.png,,,,,,,,,,,,,,,,,,,,z,1,4.0207,,,,,,,,0,23,23,84,1
,,,,,,,,,,,,,,,,,5b0029933c08a1000156662c,29,2022-02-12_17h44.32.783,lexical_decision_task_DD_L5,2021.2.3,MacIntel,59.99880002,,,,,,,,,,,,0.9795,1,,,,,,,,,,,,,,,,,,,,,,,,-0.007150861,-0.387796745,0,0,0,,,,,,,KIDNEY,HB,z,y,./images/KIDNEYHB.png,,,,,,,,,,,,,,,,,,,,z,1,0.9795,,,,,,,,0,24,24,105,1
,,,,,,,,,,,,,,,,,5b0029933c08a1000156662c,29,2022-02-12_17h44.32.783,lexical_decision_task_DD_L5,2021.2.3,MacIntel,59.99880002,,,,,,,,,,,,0.6867,1,,,,,,,,,,,,,,,,,,,,,,,,-0.007150861,-0.387796745,0,0,0,,,,,,,BUNNY,LB,m,y,./images/BUNNYLB.png,,,,,,,,,,,,,,,,,,,,m,1,0.6867,,,,,,,,0,25,25,13,1
,,,,,,,,,,,,,,,,,5b0029933c08a1000156662c,29,2022-02-12_17h44.32.783,lexical_decision_task_DD_L5,2021.2.3,MacIntel,59.99880002,,,,,,,,,,,,0.6167,1,,,,,,,,,,,,,,,,,,,,,,,,-0.007150861,-0.387796745,0,0,0,,,,,,,POKER,LB,m,y,./images/POKERLB.png,,,,,,,,,,,,,,,,,,,,m,1,0.6167,,,,,,,,0,26,26,67,1
,,,,,,,,,,,,,,,,,5b0029933c08a1000156662c,29,2022-02-12_17h44.32.783,lexical_decision_task_DD_L5,2021.2.3,MacIntel,59.99880002,,,,,,,,,,,,1.3644,0,,,,,,,,,,,,,,,,,,,,,,,,-0.007150861,-0.387796745,0,0,0,,,,,,,STOOL,LB,m,y,./images/STOOLLB.png,,,,,,,,,,,,,,,,,,,,z,0,1.3644,,,,,,,,0,27,27,43,1
,,,,,,,,,,,,,,,,,5b0029933c08a1000156662c,29,2022-02-12_17h44.32.783,lexical_decision_task_DD_L5,2021.2.3,MacIntel,59.99880002,,,,,,,,,,,,1.0162,1,,,,,,,,,,,,,,,,,,,,,,,,-0.007150861,-0.387796745,0,0,0,,,,,,,SCREW,HB,z,y,./images/SCREWHB.png,,,,,,,,,,,,,,,,,,,,z,1,1.0162,,,,,,,,0,28,28,108,1
,,,,,,,,,,,,,,,,,5b0029933c08a1000156662c,29,2022-02-12_17h44.32.783,lexical_decision_task_DD_L5,2021.2.3,MacIntel,59.99880002,,,,,,,,,,,,1.4454,1,,,,,,,,,,,,,,,,,,,,,,,,-0.007150861,-0.387796745,0,0,0,,,,,,,BUTTER,HB,m,y,./images/BUTTERHB.png,,,,,,,,,,,,,,,,,,,,m,1,1.4454,,,,,,,,0,29,29,27,1
,,,,,,,,,,,,,,,,,5b0029933c08a1000156662c,29,2022-02-12_17h44.32.783,lexical_decision_task_DD_L5,2021.2.3,MacIntel,59.99880002,,,,,,,,,,,,0.5961,1,,,,,,,,,,,,,,,,,,,,,,,,-0.057568184,-0.38544395,0,0,0,,,,,,,GRANNY,C,m,y,./images/GRANNY.png,,,,,,,,,,,,,,,,,,,,m,1,0.5961,,,,,,,,0,30,30,20,1
,,,,,,,,,,,,,,,,,5b0029933c08a1000156662c,29,2022-02-12_17h44.32.783,lexical_decision_task_DD_L5,2021.2.3,MacIntel,59.99880002,,,,,,,,,,,,0.622,1,,,,,,,,,,,,,,,,,,,,,,,,-0.05512827,-0.385404079,0,0,0,,,,,,,SWING,LB,z,y,./images/SWINGLB.png,,,,,,,,,,,,,,,,,,,,z,1,0.622,,,,,,,,0,31,31,124,1
,,,,,,,,,,,,,,,,,5b0029933c08a1000156662c,29,2022-02-12_17h44.32.783,lexical_decision_task_DD_L5,2021.2.3,MacIntel,59.99880002,,,,,,,,,,,,0.7319,1,,,,,,,,,,,,,,,,,,,,,,,,-0.053642789,-0.386889561,0,0,0,,,,,,,WAGON,LB,m,y,./images/WAGONLB.png,,,,,,,,,,,,,,,,,,,,m,1,0.7319,,,,,,,,0,32,32,7,1
,,,,,,,,,,,,,,,,,5b0029933c08a1000156662c,29,2022-02-12_17h44.32.783,lexical_decision_task_DD_L5,2021.2.3,MacIntel,59.99880002,,,,,,,,,,,,0.9378,0,,,,,,,,,,,,,,,,,,,,,,,,-0.054014093,-0.386518168,0,0,0,,,,,,,MAMMAL,C,m,y,./images/MAMMAL.png,,,,,,,,,,,,,,,,,,,,z,0,0.9378,,,,,,,,0,33,33,62,1
,,,,,,,,,,,,,,,,,5b0029933c08a1000156662c,29,2022-02-12_17h44.32.783,lexical_decision_task_DD_L5,2021.2.3,MacIntel,59.99880002,,,,,,,,,,,,1.1353,0,,,,,,,,,,,,,,,,,,,,,,,,-0.054014093,-0.386518168,0,0,0,,,,,,,SLOPE,HB,m,y,./images/SLOPEHB.png,,,,,,,,,,,,,,,,,,,,z,0,1.1353,,,,,,,,0,34,34,30,1
,,,,,,,,,,,,,,,,,5b0029933c08a1000156662c,29,2022-02-12_17h44.32.783,lexical_decision_task_DD_L5,2021.2.3,MacIntel,59.99880002,,,,,,,,,,,,1.1003,0,,,,,,,,,,,,,,,,,,,,,,,,-0.054014093,-0.386518168,0,0,0,,,,,,,CLOWN,LB,m,y,./images/CLOWNLB.png,,,,,,,,,,,,,,,,,,,,z,0,1.1003,,,,,,,,0,35,35,22,1
,,,,,,,,,,,,,,,,,5b0029933c08a1000156662c,29,2022-02-12_17h44.32.783,lexical_decision_task_DD_L5,2021.2.3,MacIntel,59.99880002,,,,,,,,,,,,1.2429,1,,,,,,,,,,,,,,,,,,,,,,,,-0.054014093,-0.386146864,0,0,0,,,,,,,BEARD,C,z,y,./images/BEARD.png,,,,,,,,,,,,,,,,,,,,z,1,1.2429,,,,,,,,0,36,36,86,1
,,,,,,,,,,,,,,,,,5b0029933c08a1000156662c,29,2022-02-12_17h44.32.783,lexical_decision_task_DD_L5,2021.2.3,MacIntel,59.99880002,,,,,,,,,,,,0.8193,0,,,,,,,,,,,,,,,,,,,,,,,,-0.054014093,-0.38532425,0,0,0,,,,,,,MALLET,C,z,y,./images/MALLET.png,,,,,,,,,,,,,,,,,,,,m,0,0.8193,,,,,,,,0,37,37,134,1
,,,,,,,,,,,,,,,,,5b0029933c08a1000156662c,29,2022-02-12_17h44.32.783,lexical_decision_task_DD_L5,2021.2.3,MacIntel,59.99880002,,,,,,,,,,,,0.9872,0,,,,,,,,,,,,,,,,,,,,,,,,-0.054014093,-0.385695643,0,0,0,,,,,,,STAIN,HB,m,y,./images/STAINHB.png,,,,,,,,,,,,,,,,,,,,z,0,0.9872,,,,,,,,0,38,38,6,1
,,,,,,,,,,,,,,,,,5b0029933c08a1000156662c,29,2022-02-12_17h44.32.783,lexical_decision_task_DD_L5,2021.2.3,MacIntel,59.99880002,,,,,,,,,,,,0.6665,1,,,,,,,,,,,,,,,,,,,,,,,,-0.054014093,-0.385695643,0,0,0,,,,,,,MOOSE,HB,z,y,./images/MOOSEHB.png,,,,,,,,,,,,,,,,,,,,z,1,0.6665,,,,,,,,0,39,39,141,1
,,,,,,,,,,,,,,,,,5b0029933c08a1000156662c,29,2022-02-12_17h44.32.783,lexical_decision_task_DD_L5,2021.2.3,MacIntel,59.99880002,,,,,,,,,,,,0.818,1,,,,,,,,,,,,,,,,,,,,,,,,-0.054014093,-0.384342067,0,0,0,,,,,,,NOOSE,HB,z,y,./images/NOOSEHB.png,,,,,,,,,,,,,,,,,,,,z,1,0.818,,,,,,,,0,40,40,156,1
,,,,,,,,,,,,,,,,,5b0029933c08a1000156662c,29,2022-02-12_17h44.32.783,lexical_decision_task_DD_L5,2021.2.3,MacIntel,59.99880002,,,,,,,,,,,,0.6754,1,,,,,,,,,,,,,,,,,,,,,,,,-0.062763461,-0.412464433,0,0,0,space,,,,,,HAMMER,HB,m,y,./images/HAMMERHB.png,19.8163,,,,,,,,,,,,,,,,,,,m,1,0.6754,,,,,,,,0,41,41,75,1
,,,,,,,,,,,,,,,,,5b0029933c08a1000156662c,29,2022-02-12_17h44.32.783,lexical_decision_task_DD_L5,2021.2.3,MacIntel,59.99880002,,,,,,,,,,,,0.967,0,,,,,,,,,,,,,,,,,,,,,,,,-0.062763461,-0.412464433,0,0,0,,,,,,,PLANET,C,m,y,./images/PLANET.png,,,,,,,,,,,,,,,,,,,,z,0,0.967,,,,,,,,0,42,42,80,1
,,,,,,,,,,,,,,,,,5b0029933c08a1000156662c,29,2022-02-12_17h44.32.783,lexical_decision_task_DD_L5,2021.2.3,MacIntel,59.99880002,,,,,,,,,,,,0.8586,1,,,,,,,,,,,,,,,,,,,,,,,,-0.062763461,-0.412464433,0,0,0,,,,,,,BELLY,LB,z,y,./images/BELLYLB.png,,,,,,,,,,,,,,,,,,,,z,1,0.8586,,,,,,,,0,43,43,94,1
,,,,,,,,,,,,,,,,,5b0029933c08a1000156662c,29,2022-02-12_17h44.32.783,lexical_decision_task_DD_L5,2021.2.3,MacIntel,59.99880002,,,,,,,,,,,,0.8338,1,,,,,,,,,,,,,,,,,,,,,,,,-0.062763461,-0.412464433,0,0,0,,,,,,,DIVER,HB,m,y,./images/DIVERHB.png,,,,,,,,,,,,,,,,,,,,m,1,0.8338,,,,,,,,0,44,44,9,1
,,,,,,,,,,,,,,,,,5b0029933c08a1000156662c,29,2022-02-12_17h44.32.783,lexical_decision_task_DD_L5,2021.2.3,MacIntel,59.99880002,,,,,,,,,,,,0.6739,1,,,,,,,,,,,,,,,,,,,,,,,,-0.062763461,-0.412464433,0,0,0,,,,,,,URINE,LB,z,y,./images/URINELB.png,,,,,,,,,,,,,,,,,,,,z,1,0.6739,,,,,,,,0,45,45,154,1
,,,,,,,,,,,,,,,,,5b0029933c08a1000156662c,29,2022-02-12_17h44.32.783,lexical_decision_task_DD_L5,2021.2.3,MacIntel,59.99880002,,,,,,,,,,,,0.6064,1,,,,,,,,,,,,,,,,,,,,,,,,-0.062763461,-0.412464433,0,0,0,,,,,,,SHELF,HB,z,y,./images/SHELFHB.png,,,,,,,,,,,,,,,,,,,,z,1,0.6064,,,,,,,,0,46,46,123,1
,,,,,,,,,,,,,,,,,5b0029933c08a1000156662c,29,2022-02-12_17h44.32.783,lexical_decision_task_DD_L5,2021.2.3,MacIntel,59.99880002,,,,,,,,,,,,1.0016,1,,,,,,,,,,,,,,,,,,,,,,,,-0.062763461,-0.412464433,0,0,0,,,,,,,BERRY,C,z,y,./images/BERRY.png,,,,,,,,,,,,,,,,,,,,z,1,1.0016,,,,,,,,0,47,47,131,1
,,,,,,,,,,,,,,,,,5b0029933c08a1000156662c,29,2022-02-12_17h44.32.783,lexical_decision_task_DD_L5,2021.2.3,MacIntel,59.99880002,,,,,,,,,,,,0.851,1,,,,,,,,,,,,,,,,,,,,,,,,-0.062763461,-0.412464433,0,0,0,,,,,,,STRING,C,z,y,./images/STRING.png,,,,,,,,,,,,,,,,,,,,z,1,0.851,,,,,,,,0,48,48,125,1
,,,,,,,,,,,,,,,,,5b0029933c08a1000156662c,29,2022-02-12_17h44.32.783,lexical_decision_task_DD_L5,2021.2.3,MacIntel,59.99880002,,,,,,,,,,,,0.9841,0,,,,,,,,,,,,,,,,,,,,,,,,-0.062763461,-0.412464433,0,0,0,,,,,,,TWINS,HB,z,y,./images/TWINSHB.png,,,,,,,,,,,,,,,,,,,,m,0,0.9841,,,,,,,,0,49,49,144,1
,,,,,,,,,,,,,,,,,5b0029933c08a1000156662c,29,2022-02-12_17h44.32.783,lexical_decision_task_DD_L5,2021.2.3,MacIntel,59.99880002,,,,,,,,,,,,0.5977,1,,,,,,,,,,,,,,,,,,,,,,,,-0.062763461,-0.412464433,0,0,0,,,,,,,BRIDE,LB,m,y,./images/BRIDELB.png,,,,,,,,,,,,,,,,,,,,m,1,0.5977,,,,,,,,0,50,50,64,1
,,,,,,,,,,,,,,,,,5b0029933c08a1000156662c,29,2022-02-12_17h44.32.783,lexical_decision_task_DD_L5,2021.2.3,MacIntel,59.99880002,,,,,,,,,,,,0.949,1,,,,,,,,,,,,,,,,,,,,,,,,-0.062763461,-0.412464433,0,0,0,,,,,,,GRAIN,HB,z,y,./images/GRAINHB.png,,,,,,,,,,,,,,,,,,,,z,1,0.949,,,,,,,,0,51,51,159,1
,,,,,,,,,,,,,,,,,5b0029933c08a1000156662c,29,2022-02-12_17h44.32.783,lexical_decision_task_DD_L5,2021.2.3,MacIntel,59.99880002,,,,,,,,,,,,0.9558,1,,,,,,,,,,,,,,,,,,,,,,,,-0.062763461,-0.412464433,0,0,0,,,,,,,WHISKY,C,m,y,./images/WHISKY.png,,,,,,,,,,,,,,,,,,,,m,1,0.9558,,,,,,,,0,52,52,83,1
,,,,,,,,,,,,,,,,,5b0029933c08a1000156662c,29,2022-02-12_17h44.32.783,lexical_decision_task_DD_L5,2021.2.3,MacIntel,59.99880002,,,,,,,,,,,,0.8673,0,,,,,,,,,,,,,,,,,,,,,,,,-0.062763461,-0.412464433,0,0,0,,,,,,,GRAPE,LB,m,y,./images/GRAPELB.png,,,,,,,,,,,,,,,,,,,,z,0,0.8673,,,,,,,,0,53,53,16,1
,,,,,,,,,,,,,,,,,5b0029933c08a1000156662c,29,2022-02-12_17h44.32.783,lexical_decision_task_DD_L5,2021.2.3,MacIntel,59.99880002,,,,,,,,,,,,0.6483,1,,,,,,,,,,,,,,,,,,,,,,,,-0.062763461,-0.412464433,0,0,0,,,,,,,LITTER,HB,z,y,./images/LITTERHB.png,,,,,,,,,,,,,,,,,,,,z,1,0.6483,,,,,,,,0,54,54,162,1
,,,,,,,,,,,,,,,,,5b0029933c08a1000156662c,29,2022-02-12_17h44.32.783,lexical_decision_task_DD_L5,2021.2.3,MacIntel,59.99880002,,,,,,,,,,,,1.9531,0,,,,,,,,,,,,,,,,,,,,,,,,-0.062763461,-0.412464433,0,0,0,,,,,,,WALNUT,HB,m,y,./images/WALNUTHB.png,,,,,,,,,,,,,,,,,,,,z,0,1.9531,,,,,,,,0,55,55,0,1
,,,,,,,,,,,,,,,,,5b0029933c08a1000156662c,29,2022-02-12_17h44.32.783,lexical_decision_task_DD_L5,2021.2.3,MacIntel,59.99880002,,,,,,,,,,,,0.913,1,,,,,,,,,,,,,,,,,,,,,,,,-0.062763461,-0.412464433,0,0,0,,,,,,,MOSQUE,LB,z,y,./images/MOSQUELB.png,,,,,,,,,,,,,,,,,,,,z,1,0.913,,,,,,,,0,56,56,127,1
,,,,,,,,,,,,,,,,,5b0029933c08a1000156662c,29,2022-02-12_17h44.32.783,lexical_decision_task_DD_L5,2021.2.3,MacIntel,59.99880002,,,,,,,,,,,,0.7819,0,,,,,,,,,,,,,,,,,,,,,,,,-0.062763461,-0.412464433,0,0,0,,,,,,,DOUGH,LB,z,y,./images/DOUGHLB.png,,,,,,,,,,,,,,,,,,,,m,0,0.7819,,,,,,,,0,57,57,103,1
,,,,,,,,,,,,,,,,,5b0029933c08a1000156662c,29,2022-02-12_17h44.32.783,lexical_decision_task_DD_L5,2021.2.3,MacIntel,59.99880002,,,,,,,,,,,,0.9303,0,,,,,,,,,,,,,,,,,,,,,,,,-0.062763461,-0.412464433,0,0,0,,,,,,,SAUCE,HB,m,y,./images/SAUCEHB.png,,,,,,,,,,,,,,,,,,,,z,0,0.9303,,,,,,,,0,58,58,51,1
,,,,,,,,,,,,,,,,,5b0029933c08a1000156662c,29,2022-02-12_17h44.32.783,lexical_decision_task_DD_L5,2021.2.3,MacIntel,59.99880002,,,,,,,,,,,,1.0139,1,,,,,,,,,,,,,,,,,,,,,,,,-0.062763461,-0.412464433,0,0,0,,,,,,,FINGER,HB,z,y,./images/FINGERHB.png,,,,,,,,,,,,,,,,,,,,z,1,1.0139,,,,,,,,0,59,59,87,1
,,,,,,,,,,,,,,,,,5b0029933c08a1000156662c,29,2022-02-12_17h44.32.783,lexical_decision_task_DD_L5,2021.2.3,MacIntel,59.99880002,,,,,,,,,,,,1.1411,1,,,,,,,,,,,,,,,,,,,,,,,,-0.062763461,-0.412464433,0,0,0,,,,,,,FALCON,LB,z,y,./images/FALCONLB.png,,,,,,,,,,,,,,,,,,,,z,1,1.1411,,,,,,,,0,60,60,112,1
,,,,,,,,,,,,,,,,,5b0029933c08a1000156662c,29,2022-02-12_17h44.32.783,lexical_decision_task_DD_L5,2021.2.3,MacIntel,59.99880002,,,,,,,,,,,,1.0488,0,,,,,,,,,,,,,,,,,,,,,,,,-0.062763461,-0.412464433,0,0,0,,,,,,,DRILL,HB,m,y,./images/DRILLHB.png,,,,,,,,,,,,,,,,,,,,z,0,1.0488,,,,,,,,0,61,61,81,1
,,,,,,,,,,,,,,,,,5b0029933c08a1000156662c,29,2022-02-12_17h44.32.783,lexical_decision_task_DD_L5,2021.2.3,MacIntel,59.99880002,,,,,,,,,,,,0.9322,0,,,,,,,,,,,,,,,,,,,,,,,,-0.062763461,-0.412464433,0,0,0,,,,,,,BANNER,LB,z,y,./images/BANNERLB.png,,,,,,,,,,,,,,,,,,,,m,0,0.9322,,,,,,,,0,62,62,136,1
,,,,,,,,,,,,,,,,,5b0029933c08a1000156662c,29,2022-02-12_17h44.32.783,lexical_decision_task_DD_L5,2021.2.3,MacIntel,59.99880002,,,,,,,,,,,,0.6688,0,,,,,,,,,,,,,,,,,,,,,,,,-0.062763461,-0.412464433,0,0,0,,,,,,,ALLEY,LB,m,y,./images/ALLEYLB.png,,,,,,,,,,,,,,,,,,,,z,0,0.6688,,,,,,,,0,63,63,55,1
,,,,,,,,,,,,,,,,,5b0029933c08a1000156662c,29,2022-02-12_17h44.32.783,lexical_decision_task_DD_L5,2021.2.3,MacIntel,59.99880002,,,,,,,,,,,,1.681,1,,,,,,,,,,,,,,,,,,,,,,,,-0.062763461,-0.412464433,0,0,0,,,,,,,SHORE,HB,z,y,./images/SHOREHB.png,,,,,,,,,,,,,,,,,,,,z,1,1.681,,,,,,,,0,64,64,96,1
,,,,,,,,,,,,,,,,,5b0029933c08a1000156662c,29,2022-02-12_17h44.32.783,lexical_decision_task_DD_L5,2021.2.3,MacIntel,59.99880002,,,,,,,,,,,,0.7043,1,,,,,,,,,,,,,,,,,,,,,,,,-0.062763461,-0.412464433,0,0,0,,,,,,,PEARL,LB,z,y,./images/PEARLLB.png,,,,,,,,,,,,,,,,,,,,z,1,0.7043,,,,,,,,0,65,65,130,1
,,,,,,,,,,,,,,,,,5b0029933c08a1000156662c,29,2022-02-12_17h44.32.783,lexical_decision_task_DD_L5,2021.2.3,MacIntel,59.99880002,,,,,,,,,,,,1.0035,1,,,,,,,,,,,,,,,,,,,,,,,,-0.062763461,-0.412464433,0,0,0,,,,,,,SPINE,C,m,y,./images/SPINE.png,,,,,,,,,,,,,,,,,,,,m,1,1.0035,,,,,,,,0,66,66,65,1
,,,,,,,,,,,,,,,,,5b0029933c08a1000156662c,29,2022-02-12_17h44.32.783,lexical_decision_task_DD_L5,2021.2.3,MacIntel,59.99880002,,,,,,,,,,,,0.536,1,,,,,,,,,,,,,,,,,,,,,,,,-0.062763461,-0.412464433,0,0,0,,,,,,,FOLDER,HB,z,y,./images/FOLDERHB.png,,,,,,,,,,,,,,,,,,,,z,1,0.536,,,,,,,,0,67,67,126,1
,,,,,,,,,,,,,,,,,5b0029933c08a1000156662c,29,2022-02-12_17h44.32.783,lexical_decision_task_DD_L5,2021.2.3,MacIntel,59.99880002,,,,,,,,,,,,0.6144,1,,,,,,,,,,,,,,,,,,,,,,,,-0.062763461,-0.412464433,0,0,0,,,,,,,MOTOR,LB,z,y,./images/MOTORLB.png,,,,,,,,,,,,,,,,,,,,z,1,0.6144,,,,,,,,0,68,68,97,1
,,,,,,,,,,,,,,,,,5b0029933c08a1000156662c,29,2022-02-12_17h44.32.783,lexical_decision_task_DD_L5,2021.2.3,MacIntel,59.99880002,,,,,,,,,,,,0.9857,0,,,,,,,,,,,,,,,,,,,,,,,,-0.062763461,-0.412464433,0,0,0,,,,,,,CLIFF,C,m,y,./images/CLIFF.png,,,,,,,,,,,,,,,,,,,,z,0,0.9857,,,,,,,,0,69,69,8,1
,,,,,,,,,,,,,,,,,5b0029933c08a1000156662c,29,2022-02-12_17h44.32.783,lexical_decision_task_DD_L5,2021.2.3,MacIntel,59.99880002,,,,,,,,,,,,0.9501,1,,,,,,,,,,,,,,,,,,,,,,,,-0.062763461,-0.412464433,0,0,0,,,,,,,SUNSET,LB,z,y,./images/SUNSETLB.png,,,,,,,,,,,,,,,,,,,,z,1,0.9501,,,,,,,,0,70,70,166,1
,,,,,,,,,,,,,,,,,5b0029933c08a1000156662c,29,2022-02-12_17h44.32.783,lexical_decision_task_DD_L5,2021.2.3,MacIntel,59.99880002,,,,,,,,,,,,1.2824,1,,,,,,,,,,,,,,,,,,,,,,,,-0.062763461,-0.412464433,0,0,0,,,,,,,STATUE,HB,m,y,./images/STATUEHB.png,,,,,,,,,,,,,,,,,,,,m,1,1.2824,,,,,,,,0,71,71,66,1
,,,,,,,,,,,,,,,,,5b0029933c08a1000156662c,29,2022-02-12_17h44.32.783,lexical_decision_task_DD_L5,2021.2.3,MacIntel,59.99880002,,,,,,,,,,,,1.6434,0,,,,,,,,,,,,,,,,,,,,,,,,-0.062763461,-0.412464433,0,0,0,,,,,,,FARMER,C,z,y,./images/FARMER.png,,,,,,,,,,,,,,,,,,,,m,0,1.6434,,,,,,,,0,72,72,149,1
,,,,,,,,,,,,,,,,,5b0029933c08a1000156662c,29,2022-02-12_17h44.32.783,lexical_decision_task_DD_L5,2021.2.3,MacIntel,59.99880002,,,,,,,,,,,,0.8216,1,,,,,,,,,,,,,,,,,,,,,,,,-0.062763461,-0.412464433,0,0,0,,,,,,,PEACH,C,z,y,./images/PEACH.png,,,,,,,,,,,,,,,,,,,,z,1,0.8216,,,,,,,,0,73,73,119,1
,,,,,,,,,,,,,,,,,5b0029933c08a1000156662c,29,2022-02-12_17h44.32.783,lexical_decision_task_DD_L5,2021.2.3,MacIntel,59.99880002,,,,,,,,,,,,0.5016,0,,,,,,,,,,,,,,,,,,,,,,,,-0.062763461,-0.412464433,0,0,0,,,,,,,MEDAL,C,m,y,./images/MEDAL.png,,,,,,,,,,,,,,,,,,,,z,0,0.5016,,,,,,,,0,74,74,11,1
,,,,,,,,,,,,,,,,,5b0029933c08a1000156662c,29,2022-02-12_17h44.32.783,lexical_decision_task_DD_L5,2021.2.3,MacIntel,59.99880002,,,,,,,,,,,,0.7365,1,,,,,,,,,,,,,,,,,,,,,,,,-0.062763461,-0.412464433,0,0,0,,,,,,,BAKER,HB,m,y,./images/BAKERHB.png,,,,,,,,,,,,,,,,,,,,m,1,0.7365,,,,,,,,0,75,75,63,1
,,,,,,,,,,,,,,,,,5b0029933c08a1000156662c,29,2022-02-12_17h44.32.783,lexical_decision_task_DD_L5,2021.2.3,MacIntel,59.99880002,,,,,,,,,,,,1.0352,0,,,,,,,,,,,,,,,,,,,,,,,,-0.062763461,-0.412464433,0,0,0,,,,,,,PARADE,C,m,y,./images/PARADE.png,,,,,,,,,,,,,,,,,,,,z,0,1.0352,,,,,,,,0,76,76,17,1
,,,,,,,,,,,,,,,,,5b0029933c08a1000156662c,29,2022-02-12_17h44.32.783,lexical_decision_task_DD_L5,2021.2.3,MacIntel,59.99880002,,,,,,,,,,,,0.8338,1,,,,,,,,,,,,,,,,,,,,,,,,-0.062763461,-0.412464433,0,0,0,,,,,,,SPORT,HB,z,y,./images/SPORTHB.png,,,,,,,,,,,,,,,,,,,,z,1,0.8338,,,,,,,,0,77,77,132,1
,,,,,,,,,,,,,,,,,5b0029933c08a1000156662c,29,2022-02-12_17h44.32.783,lexical_decision_task_DD_L5,2021.2.3,MacIntel,59.99880002,,,,,,,,,,,,0.7164,0,,,,,,,,,,,,,,,,,,,,,,,,-0.062763461,-0.412464433,0,0,0,,,,,,,LAGOON,C,m,y,./images/LAGOON.png,,,,,,,,,,,,,,,,,,,,z,0,0.7164,,,,,,,,0,78,78,47,1
,,,,,,,,,,,,,,,,,5b0029933c08a1000156662c,29,2022-02-12_17h44.32.783,lexical_decision_task_DD_L5,2021.2.3,MacIntel,59.99880002,,,,,,,,,,,,1.0898,0,,,,,,,,,,,,,,,,,,,,,,,,-0.062763461,-0.412464433,0,0,0,,,,,,,STREAM,C,m,y,./images/STREAM.png,,,,,,,,,,,,,,,,,,,,z,0,1.0898,,,,,,,,0,79,79,41,1
,,,,,,,,,,,,,,,,,5b0029933c08a1000156662c,29,2022-02-12_17h44.32.783,lexical_decision_task_DD_L5,2021.2.3,MacIntel,59.99880002,,,,,,,,,,,,0.8508,1,,,,,,,,,,,,,,,,,,,,,,,,-0.062763461,-0.412464433,0,0,0,,,,,,,CARPET,C,z,y,./images/CARPET.png,,,,,,,,,,,,,,,,,,,,z,1,0.8508,,,,,,,,0,80,80,137,1
,,,,,,,,,,,,,,,,,5b0029933c08a1000156662c,29,2022-02-12_17h44.32.783,lexical_decision_task_DD_L5,2021.2.3,MacIntel,59.99880002,,,,,,,,,,,,1.0213,0,,,,,,,,,,,,,,,,,,,,,,,,-0.062763461,-0.412464433,0,0,0,,,,,,,SHIELD,HB,m,y,./images/SHIELDHB.png,,,,,,,,,,,,,,,,,,,,z,0,1.0213,,,,,,,,0,81,81,48,1
,,,,,,,,,,,,,,,,,5b0029933c08a1000156662c,29,2022-02-12_17h44.32.783,lexical_decision_task_DD_L5,2021.2.3,MacIntel,59.99880002,,,,,,,,,,,,1.0026,1,,,,,,,,,,,,,,,,,,,,,,,,-0.062763461,-0.412464433,0,0,0,,,,,,,BOXER,LB,m,y,./images/BOXERLB.png,,,,,,,,,,,,,,,,,,,,m,1,1.0026,,,,,,,,0,82,82,4,1
,,,,,,,,,,,,,,,,,5b0029933c08a1000156662c,29,2022-02-12_17h44.32.783,lexical_decision_task_DD_L5,2021.2.3,MacIntel,59.99880002,,,,,,,,,,,,0.9821,1,,,,,,,,,,,,,,,,,,,,,,,,-0.062763461,-0.412464433,0,0,0,space,,,,,,PISTOL,C,m,y,./images/PISTOL.png,2.4347,,,,,,,,,,,,,,,,,,,m,1,0.9821,,,,,,,,0,83,83,29,1
,,,,,,,,,,,,,,,,,5b0029933c08a1000156662c,29,2022-02-12_17h44.32.783,lexical_decision_task_DD_L5,2021.2.3,MacIntel,59.99880002,,,,,,,,,,,,0.7665,1,,,,,,,,,,,,,,,,,,,,,,,,-0.062763461,-0.412464433,0,0,0,,,,,,,PURSE,C,z,y,./images/PURSE.png,,,,,,,,,,,,,,,,,,,,z,1,0.7665,,,,,,,,0,84,84,146,1
,,,,,,,,,,,,,,,,,5b0029933c08a1000156662c,29,2022-02-12_17h44.32.783,lexical_decision_task_DD_L5,2021.2.3,MacIntel,59.99880002,,,,,,,,,,,,0.8039,1,,,,,,,,,,,,,,,,,,,,,,,,-0.062763461,-0.412464433,0,0,0,,,,,,,STEAK,LB,m,y,./images/STEAKLB.png,,,,,,,,,,,,,,,,,,,,m,1,0.8039,,,,,,,,0,85,85,31,1
,,,,,,,,,,,,,,,,,5b0029933c08a1000156662c,29,2022-02-12_17h44.32.783,lexical_decision_task_DD_L5,2021.2.3,MacIntel,59.99880002,,,,,,,,,,,,0.9373,0,,,,,,,,,,,,,,,,,,,,,,,,-0.062763461,-0.412464433,0,0,0,,,,,,,MUSCLE,LB,z,y,./images/MUSCLELB.png,,,,,,,,,,,,,,,,,,,,m,0,0.9373,,,,,,,,0,86,86,88,1
,,,,,,,,,,,,,,,,,5b0029933c08a1000156662c,29,2022-02-12_17h44.32.783,lexical_decision_task_DD_L5,2021.2.3,MacIntel,59.99880002,,,,,,,,,,,,0.729,1,,,,,,,,,,,,,,,,,,,,,,,,-0.062763461,-0.412464433,0,0,0,,,,,,,SNAKE,LB,m,y,./images/SNAKELB.png,,,,,,,,,,,,,,,,,,,,m,1,0.729,,,,,,,,0,87,87,40,1
,,,,,,,,,,,,,,,,,5b0029933c08a1000156662c,29,2022-02-12_17h44.32.783,lexical_decision_task_DD_L5,2021.2.3,MacIntel,59.99880002,,,,,,,,,,,,0.7481,0,,,,,,,,,,,,,,,,,,,,,,,,-0.062763461,-0.412464433,0,0,0,,,,,,,ARTIST,LB,m,y,./images/ARTISTLB.png,,,,,,,,,,,,,,,,,,,,z,0,0.7481,,,,,,,,0,88,88,61,1
,,,,,,,,,,,,,,,,,5b0029933c08a1000156662c,29,2022-02-12_17h44.32.783,lexical_decision_task_DD_L5,2021.2.3,MacIntel,59.99880002,,,,,,,,,,,,1.0369,0,,,,,,,,,,,,,,,,,,,,,,,,-0.062763461,-0.412464433,0,0,0,,,,,,,BRUSH,C,m,y,./images/BRUSH.png,,,,,,,,,,,,,,,,,,,,z,0,1.0369,,,,,,,,0,89,89,59,1
,,,,,,,,,,,,,,,,,5b0029933c08a1000156662c,29,2022-02-12_17h44.32.783,lexical_decision_task_DD_L5,2021.2.3,MacIntel,59.99880002,,,,,,,,,,,,1.8168,1,,,,,,,,,,,,,,,,,,,,,,,,-0.062763461,-0.412464433,0,0,0,,,,,,,MUMMY,LB,m,y,./images/MUMMYLB.png,,,,,,,,,,,,,,,,,,,,m,1,1.8168,,,,,,,,0,90,90,46,1
,,,,,,,,,,,,,,,,,5b0029933c08a1000156662c,29,2022-02-12_17h44.32.783,lexical_decision_task_DD_L5,2021.2.3,MacIntel,59.99880002,,,,,,,,,,,,0.7508,1,,,,,,,,,,,,,,,,,,,,,,,,-0.062763461,-0.412464433,0,0,0,,,,,,,HOCKEY,C,m,y,./images/HOCKEY.png,,,,,,,,,,,,,,,,,,,,m,1,0.7508,,,,,,,,0,91,91,32,1
,,,,,,,,,,,,,,,,,5b0029933c08a1000156662c,29,2022-02-12_17h44.32.783,lexical_decision_task_DD_L5,2021.2.3,MacIntel,59.99880002,,,,,,,,,,,,1.1794,1,,,,,,,,,,,,,,,,,,,,,,,,-0.062763461,-0.412464433,0,0,0,,,,,,,DESERT,LB,m,y,./images/DESERTLB.png,,,,,,,,,,,,,,,,,,,,m,1,1.1794,,,,,,,,0,92,92,52,1
,,,,,,,,,,,,,,,,,5b0029933c08a1000156662c,29,2022-02-12_17h44.32.783,lexical_decision_task_DD_L5,2021.2.3,MacIntel,59.99880002,,,,,,,,,,,,0.6628,0,,,,,,,,,,,,,,,,,,,,,,,,-0.062763461,-0.412464433,0,0,0,,,,,,,PARCEL,HB,m,y,./images/PARCELHB.png,,,,,,,,,,,,,,,,,,,,z,0,0.6628,,,,,,,,0,93,93,18,1
,,,,,,,,,,,,,,,,,5b0029933c08a1000156662c,29,2022-02-12_17h44.32.783,lexical_decision_task_DD_L5,2021.2.3,MacIntel,59.99880002,,,,,,,,,,,,1.0662,0,,,,,,,,,,,,,,,,,,,,,,,,-0.062763461,-0.412464433,0,0,0,,,,,,,BURIAL,C,z,y,./images/BURIAL.png,,,,,,,,,,,,,,,,,,,,m,0,1.0662,,,,,,,,0,94,94,143,1
,,,,,,,,,,,,,,,,,5b0029933c08a1000156662c,29,2022-02-12_17h44.32.783,lexical_decision_task_DD_L5,2021.2.3,MacIntel,59.99880002,,,,,,,,,,,,0.6499,0,,,,,,,,,,,,,,,,,,,,,,,,-0.062763461,-0.412464433,0,0,0,,,,,,,CHAIN,HB,m,y,./images/CHAINHB.png,,,,,,,,,,,,,,,,,,,,z,0,0.6499,,,,,,,,0,95,95,42,1
,,,,,,,,,,,,,,,,,5b0029933c08a1000156662c,29,2022-02-12_17h44.32.783,lexical_decision_task_DD_L5,2021.2.3,MacIntel,59.99880002,,,,,,,,,,,,0.65,0,,,,,,,,,,,,,,,,,,,,,,,,-0.062763461,-0.412464433,0,0,0,,,,,,,ARROW,HB,m,y,./images/ARROWHB.png,,,,,,,,,,,,,,,,,,,,z,0,0.65,,,,,,,,0,96,96,69,1
,,,,,,,,,,,,,,,,,5b0029933c08a1000156662c,29,2022-02-12_17h44.32.783,lexical_decision_task_DD_L5,2021.2.3,MacIntel,59.99880002,,,,,,,,,,,,0.8045,0,,,,,,,,,,,,,,,,,,,,,,,,-0.062763461,-0.412464433,0,0,0,,,,,,,POSTER,C,m,y,./images/POSTER.png,,,,,,,,,,,,,,,,,,,,z,0,0.8045,,,,,,,,0,97,97,53,1
,,,,,,,,,,,,,,,,,5b0029933c08a1000156662c,29,2022-02-12_17h44.32.783,lexical_decision_task_DD_L5,2021.2.3,MacIntel,59.99880002,,,,,,,,,,,,1.0631,1,,,,,,,,,,,,,,,,,,,,,,,,-0.062763461,-0.412464433,0,0,0,,,,,,,BAMBOO,C,m,y,./images/BAMBOO.png,,,,,,,,,,,,,,,,,,,,m,1,1.0631,,,,,,,,0,98,98,5,1
,,,,,,,,,,,,,,,,,5b0029933c08a1000156662c,29,2022-02-12_17h44.32.783,lexical_decision_task_DD_L5,2021.2.3,MacIntel,59.99880002,,,,,,,,,,,,0.7466,0,,,,,,,,,,,,,,,,,,,,,,,,-0.062763461,-0.412464433,0,0,0,,,,,,,PICKLE,C,z,y,./images/PICKLE.png,,,,,,,,,,,,,,,,,,,,m,0,0.7466,,,,,,,,0,99,99,98,1
,,,,,,,,,,,,,,,,,5b0029933c08a1000156662c,29,2022-02-12_17h44.32.783,lexical_decision_task_DD_L5,2021.2.3,MacIntel,59.99880002,,,,,,,,,,,,0.7695,1,,,,,,,,,,,,,,,,,,,,,,,,-0.062763461,-0.412464433,0,0,0,,,,,,,RHINO,HB,z,y,./images/RHINOHB.png,,,,,,,,,,,,,,,,,,,,z,1,0.7695,,,,,,,,0,100,100,93,1
,,,,,,,,,,,,,,,,,5b0029933c08a1000156662c,29,2022-02-12_17h44.32.783,lexical_decision_task_DD_L5,2021.2.3,MacIntel,59.99880002,,,,,,,,,,,,0.9143,0,,,,,,,,,,,,,,,,,,,,,,,,-0.062763461,-0.412464433,0,0,0,,,,,,,ATTIC,HB,z,y,./images/ATTICHB.png,,,,,,,,,,,,,,,,,,,,m,0,0.9143,,,,,,,,0,101,101,111,1
,,,,,,,,,,,,,,,,,5b0029933c08a1000156662c,29,2022-02-12_17h44.32.783,lexical_decision_task_DD_L5,2021.2.3,MacIntel,59.99880002,,,,,,,,,,,,0.9135,0,,,,,,,,,,,,,,,,,,,,,,,,-0.062763461,-0.412464433,0,0,0,,,,,,,MIDGET,LB,m,y,./images/MIDGETLB.png,,,,,,,,,,,,,,,,,,,,z,0,0.9135,,,,,,,,0,102,102,76,1
,,,,,,,,,,,,,,,,,5b0029933c08a1000156662c,29,2022-02-12_17h44.32.783,lexical_decision_task_DD_L5,2021.2.3,MacIntel,59.99880002,,,,,,,,,,,,0.8332,1,,,,,,,,,,,,,,,,,,,,,,,,-0.062763461,-0.412464433,0,0,0,,,,,,,TRIPOD,HB,z,y,./images/TRIPODHB.png,,,,,,,,,,,,,,,,,,,,z,1,0.8332,,,,,,,,0,103,103,138,1
,,,,,,,,,,,,,,,,,5b0029933c08a1000156662c,29,2022-02-12_17h44.32.783,lexical_decision_task_DD_L5,2021.2.3,MacIntel,59.99880002,,,,,,,,,,,,0.8117,1,,,,,,,,,,,,,,,,,,,,,,,,-0.062763461,-0.412464433,0,0,0,,,,,,,VALLEY,C,m,y,./images/VALLEY.png,,,,,,,,,,,,,,,,,,,,m,1,0.8117,,,,,,,,0,104,104,68,1
,,,,,,,,,,,,,,,,,5b0029933c08a1000156662c,29,2022-02-12_17h44.32.783,lexical_decision_task_DD_L5,2021.2.3,MacIntel,59.99880002,,,,,,,,,,,,1.0321,0,,,,,,,,,,,,,,,,,,,,,,,,-0.062763461,-0.412464433,0,0,0,,,,,,,COUCH,C,z,y,./images/COUCH.png,,,,,,,,,,,,,,,,,,,,m,0,1.0321,,,,,,,,0,105,105,161,1
,,,,,,,,,,,,,,,,,5b0029933c08a1000156662c,29,2022-02-12_17h44.32.783,lexical_decision_task_DD_L5,2021.2.3,MacIntel,59.99880002,,,,,,,,,,,,0.975,1,,,,,,,,,,,,,,,,,,,,,,,,-0.062763461,-0.412464433,0,0,0,,,,,,,WHEEL,C,m,y,./images/WHEEL.png,,,,,,,,,,,,,,,,,,,,m,1,0.975,,,,,,,,0,106,106,77,1
,,,,,,,,,,,,,,,,,5b0029933c08a1000156662c,29,2022-02-12_17h44.32.783,lexical_decision_task_DD_L5,2021.2.3,MacIntel,59.99880002,,,,,,,,,,,,0.5481,0,,,,,,,,,,,,,,,,,,,,,,,,-0.062763461,-0.412464433,0,0,0,,,,,,,FLASK,HB,m,y,./images/FLASKHB.png,,,,,,,,,,,,,,,,,,,,z,0,0.5481,,,,,,,,0,107,107,72,1
,,,,,,,,,,,,,,,,,5b0029933c08a1000156662c,29,2022-02-12_17h44.32.783,lexical_decision_task_DD_L5,2021.2.3,MacIntel,59.99880002,,,,,,,,,,,,1.5879,0,,,,,,,,,,,,,,,,,,,,,,,,-0.062763461,-0.412464433,0,0,0,,,,,,,PILOT,C,m,y,./images/PILOT.png,,,,,,,,,,,,,,,,,,,,z,0,1.5879,,,,,,,,0,108,108,50,1
,,,,,,,,,,,,,,,,,5b0029933c08a1000156662c,29,2022-02-12_17h44.32.783,lexical_decision_task_DD_L5,2021.2.3,MacIntel,59.99880002,,,,,,,,,,,,0.9162,1,,,,,,,,,,,,,,,,,,,,,,,,-0.062763461,-0.412464433,0,0,0,,,,,,,MAGGOT,HB,z,y,./images/MAGGOTHB.png,,,,,,,,,,,,,,,,,,,,z,1,0.9162,,,,,,,,0,109,109,117,1
,,,,,,,,,,,,,,,,,5b0029933c08a1000156662c,29,2022-02-12_17h44.32.783,lexical_decision_task_DD_L5,2021.2.3,MacIntel,59.99880002,,,,,,,,,,,,0.9018,0,,,,,,,,,,,,,,,,,,,,,,,,-0.062763461,-0.412464433,0,0,0,,,,,,,SAUNA,HB,m,y,./images/SAUNAHB.png,,,,,,,,,,,,,,,,,,,,z,0,0.9018,,,,,,,,0,110,110,33,1
,,,,,,,,,,,,,,,,,5b0029933c08a1000156662c,29,2022-02-12_17h44.32.783,lexical_decision_task_DD_L5,2021.2.3,MacIntel,59.99880002,,,,,,,,,,,,0.8645,0,,,,,,,,,,,,,,,,,,,,,,,,-0.062763461,-0.412464433,0,0,0,,,,,,,WEASEL,C,z,y,./images/WEASEL.png,,,,,,,,,,,,,,,,,,,,m,0,0.8645,,,,,,,,0,111,111,164,1
,,,,,,,,,,,,,,,,,5b0029933c08a1000156662c,29,2022-02-12_17h44.32.783,lexical_decision_task_DD_L5,2021.2.3,MacIntel,59.99880002,,,,,,,,,,,,0.8049,1,,,,,,,,,,,,,,,,,,,,,,,,-0.062763461,-0.412464433,0,0,0,,,,,,,BONNET,C,z,y,./images/BONNET.png,,,,,,,,,,,,,,,,,,,,z,1,0.8049,,,,,,,,0,112,112,95,1
,,,,,,,,,,,,,,,,,5b0029933c08a1000156662c,29,2022-02-12_17h44.32.783,lexical_decision_task_DD_L5,2021.2.3,MacIntel,59.99880002,,,,,,,,,,,,0.5322,0,,,,,,,,,,,,,,,,,,,,,,,,-0.062763461,-0.412464433,0,0,0,,,,,,,CHERRY,HB,m,y,./images/CHERRYHB.png,,,,,,,,,,,,,,,,,,,,z,0,0.5322,,,,,,,,0,113,113,54,1
,,,,,,,,,,,,,,,,,5b0029933c08a1000156662c,29,2022-02-12_17h44.32.783,lexical_decision_task_DD_L5,2021.2.3,MacIntel,59.99880002,,,,,,,,,,,,1.1764,1,,,,,,,,,,,,,,,,,,,,,,,,-0.062763461,-0.412464433,0,0,0,,,,,,,ONION,HB,z,y,./images/ONIONHB.png,,,,,,,,,,,,,,,,,,,,z,1,1.1764,,,,,,,,0,114,114,135,1
,,,,,,,,,,,,,,,,,5b0029933c08a1000156662c,29,2022-02-12_17h44.32.783,lexical_decision_task_DD_L5,2021.2.3,MacIntel,59.99880002,,,,,,,,,,,,0.7013,1,,,,,,,,,,,,,,,,,,,,,,,,-0.062763461,-0.412464433,0,0,0,,,,,,,BARREL,C,z,y,./images/BARREL.png,,,,,,,,,,,,,,,,,,,,z,1,0.7013,,,,,,,,0,115,115,116,1
,,,,,,,,,,,,,,,,,5b0029933c08a1000156662c,29,2022-02-12_17h44.32.783,lexical_decision_task_DD_L5,2021.2.3,MacIntel,59.99880002,,,,,,,,,,,,0.6837,1,,,,,,,,,,,,,,,,,,,,,,,,-0.062763461,-0.412464433,0,0,0,,,,,,,MIRROR,HB,z,y,./images/MIRRORHB.png,,,,,,,,,,,,,,,,,,,,z,1,0.6837,,,,,,,,0,116,116,147,1
,,,,,,,,,,,,,,,,,5b0029933c08a1000156662c,29,2022-02-12_17h44.32.783,lexical_decision_task_DD_L5,2021.2.3,MacIntel,59.99880002,,,,,,,,,,,,1.4264,0,,,,,,,,,,,,,,,,,,,,,,,,-0.062763461,-0.412464433,0,0,0,,,,,,,THROAT,HB,z,y,./images/THROATHB.png,,,,,,,,,,,,,,,,,,,,m,0,1.4264,,,,,,,,0,117,117,120,1
,,,,,,,,,,,,,,,,,5b0029933c08a1000156662c,29,2022-02-12_17h44.32.783,lexical_decision_task_DD_L5,2021.2.3,MacIntel,59.99880002,,,,,,,,,,,,1.168,1,,,,,,,,,,,,,,,,,,,,,,,,-0.062763461,-0.412464433,0,0,0,,,,,,,PASTA,C,z,y,./images/PASTA.png,,,,,,,,,,,,,,,,,,,,z,1,1.168,,,,,,,,0,118,118,89,1
,,,,,,,,,,,,,,,,,5b0029933c08a1000156662c,29,2022-02-12_17h44.32.783,lexical_decision_task_DD_L5,2021.2.3,MacIntel,59.99880002,,,,,,,,,,,,1.2712,1,,,,,,,,,,,,,,,,,,,,,,,,-0.062763461,-0.412464433,0,0,0,,,,,,,PIMPLE,C,z,y,./images/PIMPLE.png,,,,,,,,,,,,,,,,,,,,z,1,1.2712,,,,,,,,0,119,119,155,1
,,,,,,,,,,,,,,,,,5b0029933c08a1000156662c,29,2022-02-12_17h44.32.783,lexical_decision_task_DD_L5,2021.2.3,MacIntel,59.99880002,,,,,,,,,,,,0.7837,1,,,,,,,,,,,,,,,,,,,,,,,,-0.062763461,-0.412464433,0,0,0,,,,,,,INFANT,LB,z,y,./images/INFANTLB.png,,,,,,,,,,,,,,,,,,,,z,1,0.7837,,,,,,,,0,120,120,160,1
,,,,,,,,,,,,,,,,,5b0029933c08a1000156662c,29,2022-02-12_17h44.32.783,lexical_decision_task_DD_L5,2021.2.3,MacIntel,59.99880002,,,,,,,,,,,,0.8,1,,,,,,,,,,,,,,,,,,,,,,,,-0.062763461,-0.412464433,0,0,0,,,,,,,MELON,LB,z,y,./images/MELONLB.png,,,,,,,,,,,,,,,,,,,,z,1,0.8,,,,,,,,0,121,121,106,1
,,,,,,,,,,,,,,,,,5b0029933c08a1000156662c,29,2022-02-12_17h44.32.783,lexical_decision_task_DD_L5,2021.2.3,MacIntel,59.99880002,,,,,,,,,,,,1.0221,0,,,,,,,,,,,,,,,,,,,,,,,,-0.062763461,-0.412464433,0,0,0,,,,,,,BABOON,LB,z,y,./images/BABOONLB.png,,,,,,,,,,,,,,,,,,,,m,0,1.0221,,,,,,,,0,122,122,142,1
,,,,,,,,,,,,,,,,,5b0029933c08a1000156662c,29,2022-02-12_17h44.32.783,lexical_decision_task_DD_L5,2021.2.3,MacIntel,59.99880002,,,,,,,,,,,,1.0822,1,,,,,,,,,,,,,,,,,,,,,,,,-0.062763461,-0.412464433,0,0,0,,,,,,,CRATER,HB,m,y,./images/CRATERHB.png,,,,,,,,,,,,,,,,,,,,m,1,1.0822,,,,,,,,0,123,123,3,1
,,,,,,,,,,,,,,,,,5b0029933c08a1000156662c,29,2022-02-12_17h44.32.783,lexical_decision_task_DD_L5,2021.2.3,MacIntel,59.99880002,,,,,,,,,,,,0.766,1,,,,,,,,,,,,,,,,,,,,,,,,-0.062763461,-0.412464433,0,0,0,,,,,,,RULER,LB,m,y,./images/RULERLB.png,,,,,,,,,,,,,,,,,,,,m,1,0.766,,,,,,,,0,124,124,79,1
,,,,,,,,,,,,,,,,,5b0029933c08a1000156662c,29,2022-02-12_17h44.32.783,lexical_decision_task_DD_L5,2021.2.3,MacIntel,59.99880002,,,,,,,,,,,,0.7537,1,,,,,,,,,,,,,,,,,,,,,,,,-0.062763461,-0.412464433,0,0,0,space,,,,,,JUNGLE,C,z,y,./images/JUNGLE.png,1.7774,,,,,,,,,,,,,,,,,,,z,1,0.7537,,,,,,,,0,125,125,167,1
,,,,,,,,,,,,,,,,,5b0029933c08a1000156662c,29,2022-02-12_17h44.32.783,lexical_decision_task_DD_L5,2021.2.3,MacIntel,59.99880002,,,,,,,,,,,,0.9886,1,,,,,,,,,,,,,,,,,,,,,,,,-0.062763461,-0.412464433,0,0,0,,,,,,,CRADLE,C,z,y,./images/CRADLE.png,,,,,,,,,,,,,,,,,,,,z,1,0.9886,,,,,,,,0,126,126,104,1
