key_resp.keys,instr_done_touch.x,instr_done_touch.y,instr_done_touch.leftButton,instr_done_touch.midButton,instr_done_touch.rightButton,instr_done_touch.clicked_name,instruction_pages.thisRepN,instruction_pages.thisTrialN,instruction_pages.thisN,instruction_pages.thisIndex,instruction_pages.ran,pageN,phase,instruct_text,has_image,instruct_image,participant,age,date,expName,psychopyVersion,OS,frameRate,response.keys,response.corr,touch_resp.x,touch_resp.y,touch_resp.leftButton,touch_resp.midButton,touch_resp.rightButton,touch_resp.time,touch_resp.clicked_name,rt,corr,practrials.thisRepN,practrials.thisTrialN,practrials.thisN,practrials.thisIndex,practrials.ran,TrialID,Target,corrAns,end_of_practice_trials_pages.thisRepN,end_of_practice_trials_pages.thisTrialN,end_of_practice_trials_pages.thisN,end_of_practice_trials_pages.thisIndex,end_of_practice_trials_pages.ran,key_resp_2.keys,key_resp_2.corr,targ_click.x,targ_click.y,targ_click.leftButton,targ_click.midButton,targ_click.rightButton,targ_click.time,targ_click.clicked_name,break_done_touch.x,break_done_touch.y,break_done_touch.leftButton,break_done_touch.midButton,break_done_touch.rightButton,break_done_keyboard.keys,maintrials.thisRepN,maintrials.thisTrialN,maintrials.thisN,maintrials.thisIndex,maintrials.ran,string,blur,study,lex,stim_path,break_done_touch.clicked_name,mouse_2.x,mouse_2.y,mouse_2.leftButton,mouse_2.midButton,mouse_2.rightButton,mouse_2.clicked_name,slider.response,slider.rt,trials.thisRepN,trials.thisTrialN,trials.thisN,trials.thisIndex,trials.ran,test_instructions.thisRepN,test_instructions.thisTrialN,test_instructions.thisN,test_instructions.thisIndex,test_instructions.ran,key_resp_3.keys,key_resp_3.corr,test_click.x,test_click.y,test_click.leftButton,test_click.midButton,test_click.rightButton,test_click.time,test_click.clicked_name,test_phase.thisRepN,test_phase.thisTrialN,test_phase.thisN,test_phase.thisIndex,test_phase.ran
,-0.00692612,-0.409744855,1,0,0,instr_done_button,0,0,0,0,1,1,instructions,"INSTRUCTIONS
At the start of each trial, look at the plus sign  (+) in the center of the screen.  This tells you that a trial is about to begin and where to look. Second, the plus sign will disappear and a string of letters will appear. Your task is to determine if the string of letters is a word or not. If the item is a word press the M key (on keyboard)  or touch the word button (phone/tablet).  If the item is not a word,  press the  Z key (on keyboard)  or touch the nonword button (on phone/tablet). 
Press the space bar or touch  continue.",0,,5beb874c10ace8000183294e,33,2022-02-12_17h00.56.520,lexical_decision_task_DD_L5,2021.2.3,Linux armv8l,59.99160118,,,,,,,,,,,,,,,,,,,,,,,,,,,,,,,,,,,,,,,,,,,,,,,,,,,,,,,,,,,,,,,,,,,,,,,,,,,,,,,,,,
,0.016619525,-0.405586909,1,0,0,instr_done_button,0,1,1,1,1,2,instructions,"If your device has a keyboard, press the 'Z' key for nonwords and the 'M' key for words.





Press the space bar or touch the button below to continue.",0,keyboard-example.gif,5beb874c10ace8000183294e,33,2022-02-12_17h00.56.520,lexical_decision_task_DD_L5,2021.2.3,Linux armv8l,59.99160118,,,,,,,,,,,,,,,,,,,,,,,,,,,,,,,,,,,,,,,,,,,,,,,,,,,,,,,,,,,,,,,,,,,,,,,,,,,,,,,,,,
,-0.062327672,-0.350142692,1,0,0,instr_done_button,0,2,2,2,1,3,instructions,"If you are using a touchscreen only device, use the buttons on the screen. Do not use the mouse.





Press the space bar or touch the button below to continue.",0,touchscreen-example.gif,5beb874c10ace8000183294e,33,2022-02-12_17h00.56.520,lexical_decision_task_DD_L5,2021.2.3,Linux armv8l,59.99160118,,,,,,,,,,,,,,,,,,,,,,,,,,,,,,,,,,,,,,,,,,,,,,,,,,,,,,,,,,,,,,,,,,,,,,,,,,,,,,,,,,
,0.012464431,-0.388953496,1,0,0,instr_done_button,0,3,3,3,1,4,instructions,"It is very important that you respond as quickly and accurately as possible, as each letter string will only be on the screen for two seconds. If you do not respond within this time, the message 'Too slow!' will be displayed and the experiment will progress to the next letter string. The first 20 trials will be practice trials and you will receive feedback on your answers. 

Press the space bar or touch the button below to start the practice trials.",0,,5beb874c10ace8000183294e,33,2022-02-12_17h00.56.520,lexical_decision_task_DD_L5,2021.2.3,Linux armv8l,59.99160118,,,,,,,,,,,,,,,,,,,,,,,,,,,,,,,,,,,,,,,,,,,,,,,,,,,,,,,,,,,,,,,,,,,,,,,,,,,,,,,,,,
,,,,,,,,,,,,,,,,,5beb874c10ace8000183294e,33,2022-02-12_17h00.56.520,lexical_decision_task_DD_L5,2021.2.3,Linux armv8l,59.99160118,,0,-0.387811846,-0.405586909,1,0,0,2.7047,button_left,2.7047,1,0,0,0,14,1,1001,THRALE,z,,,,,,,,,,,,,,,,,,,,,,,,,,,,,,,,,,,,,,,,,,,,,,,,,,,,,,,,,,,,,,,
,,,,,,,,,,,,,,,,,5beb874c10ace8000183294e,33,2022-02-12_17h00.56.520,lexical_decision_task_DD_L5,2021.2.3,Linux armv8l,59.99160118,,0,-0.354570898,-0.27806595,1,0,0,2.8495,button_left,2.8495,1,0,1,1,12,1,1001,SPRINY,z,,,,,,,,,,,,,,,,,,,,,,,,,,,,,,,,,,,,,,,,,,,,,,,,,,,,,,,,,,,,,,,
,,,,,,,,,,,,,,,,,5beb874c10ace8000183294e,33,2022-02-12_17h00.56.520,lexical_decision_task_DD_L5,2021.2.3,Linux armv8l,59.99160118,,0,-0.337950419,-0.311332332,1,0,0,2.4567,button_left,2.4567,1,0,2,2,13,1,1001,ROUPET,z,,,,,,,,,,,,,,,,,,,,,,,,,,,,,,,,,,,,,,,,,,,,,,,,,,,,,,,,,,,,,,,
,,,,,,,,,,,,,,,,,5beb874c10ace8000183294e,33,2022-02-12_17h00.56.520,lexical_decision_task_DD_L5,2021.2.3,Linux armv8l,59.99160118,,0,0.421051025,-0.291926708,1,0,0,1.0133,button_right,1.0133,1,0,3,3,1,1,1001,ADJUST,m,,,,,,,,,,,,,,,,,,,,,,,,,,,,,,,,,,,,,,,,,,,,,,,,,,,,,,,,,,,,,,,
,,,,,,,,,,,,,,,,,5beb874c10ace8000183294e,33,2022-02-12_17h00.56.520,lexical_decision_task_DD_L5,2021.2.3,Linux armv8l,59.99160118,,0,0.292242254,-0.348756809,1,0,0,1.1311,button_right,1.1311,1,0,4,4,4,1,1001,SQUEAK,m,,,,,,,,,,,,,,,,,,,,,,,,,,,,,,,,,,,,,,,,,,,,,,,,,,,,,,,,,,,,,,,
,,,,,,,,,,,,,,,,,5beb874c10ace8000183294e,33,2022-02-12_17h00.56.520,lexical_decision_task_DD_L5,2021.2.3,Linux armv8l,59.99160118,,0,-0.400277184,-0.347370629,1,0,0,0.9976,button_left,0.9976,1,0,5,5,15,1,1001,WHAISE,z,,,,,,,,,,,,,,,,,,,,,,,,,,,,,,,,,,,,,,,,,,,,,,,,,,,,,,,,,,,,,,,
,,,,,,,,,,,,,,,,,5beb874c10ace8000183294e,33,2022-02-12_17h00.56.520,lexical_decision_task_DD_L5,2021.2.3,Linux armv8l,59.99160118,,0,0.393350101,-0.289154645,1,0,0,0.7463,button_right,0.7463,1,0,6,6,3,1,1001,MATRIX,m,,,,,,,,,,,,,,,,,,,,,,,,,,,,,,,,,,,,,,,,,,,,,,,,,,,,,,,,,,,,,,,
,,,,,,,,,,,,,,,,,5beb874c10ace8000183294e,33,2022-02-12_17h00.56.520,lexical_decision_task_DD_L5,2021.2.3,Linux armv8l,59.99160118,,0,-0.369806336,-0.366775957,1,0,0,1.0052,button_left,1.0052,1,0,7,7,10,1,1001,INLADE,z,,,,,,,,,,,,,,,,,,,,,,,,,,,,,,,,,,,,,,,,,,,,,,,,,,,,,,,,,,,,,,,
,,,,,,,,,,,,,,,,,5beb874c10ace8000183294e,33,2022-02-12_17h00.56.520,lexical_decision_task_DD_L5,2021.2.3,Linux armv8l,59.99160118,,0,-0.353185876,-0.304401583,1,0,0,0.76,button_left,0.76,1,0,8,8,8,1,1001,ASLERT,z,,,,,,,,,,,,,,,,,,,,,,,,,,,,,,,,,,,,,,,,,,,,,,,,,,,,,,,,,,,,,,,
,,,,,,,,,,,,,,,,,5beb874c10ace8000183294e,33,2022-02-12_17h00.56.520,lexical_decision_task_DD_L5,2021.2.3,Linux armv8l,59.99160118,,0,0.387809976,-0.283610224,1,0,0,1.071,button_right,1.071,1,0,9,9,2,1,1001,ALMOND,m,,,,,,,,,,,,,,,,,,,,,,,,,,,,,,,,,,,,,,,,,,,,,,,,,,,,,,,,,,,,,,,
,,,,,,,,,,,,,,,,,5beb874c10ace8000183294e,33,2022-02-12_17h00.56.520,lexical_decision_task_DD_L5,2021.2.3,Linux armv8l,59.99160118,,0,0.385039913,-0.311332332,1,0,0,0.8469,button_right,0.8469,1,0,10,10,0,1,1001,UTOPIA,m,,,,,,,,,,,,,,,,,,,,,,,,,,,,,,,,,,,,,,,,,,,,,,,,,,,,,,,,,,,,,,,
,,,,,,,,,,,,,,,,,5beb874c10ace8000183294e,33,2022-02-12_17h00.56.520,lexical_decision_task_DD_L5,2021.2.3,Linux armv8l,59.99160118,,0,0.390580187,-0.318262637,1,0,0,0.771,button_right,0.771,1,0,11,11,5,1,1001,OBTAIN,m,,,,,,,,,,,,,,,,,,,,,,,,,,,,,,,,,,,,,,,,,,,,,,,,,,,,,,,,,,,,,,,
,,,,,,,,,,,,,,,,,5beb874c10ace8000183294e,33,2022-02-12_17h00.56.520,lexical_decision_task_DD_L5,2021.2.3,Linux armv8l,59.99160118,,0,0.373959662,-0.354301082,1,0,0,0.7148,button_right,0.7148,1,0,12,12,6,1,1001,ZOMBIE,m,,,,,,,,,,,,,,,,,,,,,,,,,,,,,,,,,,,,,,,,,,,,,,,,,,,,,,,,,,,,,,,
,,,,,,,,,,,,,,,,,5beb874c10ace8000183294e,33,2022-02-12_17h00.56.520,lexical_decision_task_DD_L5,2021.2.3,Linux armv8l,59.99160118,,0,-0.364266164,-0.330737512,1,0,0,0.913,button_left,0.913,1,0,13,13,9,1,1001,FARINY,z,,,,,,,,,,,,,,,,,,,,,,,,,,,,,,,,,,,,,,,,,,,,,,,,,,,,,,,,,,,,,,,
,,,,,,,,,,,,,,,,,5beb874c10ace8000183294e,33,2022-02-12_17h00.56.520,lexical_decision_task_DD_L5,2021.2.3,Linux armv8l,59.99160118,,0,0.328253366,-0.340440324,1,0,0,0.63,button_right,0.63,1,0,14,14,7,1,1001,VOLUME,m,,,,,,,,,,,,,,,,,,,,,,,,,,,,,,,,,,,,,,,,,,,,,,,,,,,,,,,,,,,,,,,
,,,,,,,,,,,,,,,,,5beb874c10ace8000183294e,33,2022-02-12_17h00.56.520,lexical_decision_task_DD_L5,2021.2.3,Linux armv8l,59.99160118,,0,-0.337950419,-0.379250832,1,0,0,1.4193,button_left,1.4193,1,0,15,15,11,1,1001,RASHET,z,,,,,,,,,,,,,,,,,,,,,,,,,,,,,,,,,,,,,,,,,,,,,,,,,,,,,,,,,,,,,,,
,0.087256496,-0.401428371,1,0,0,instr_done_button,,,,,,1,end_of_practice,"You have completed the practice trials. During the experimental trials, you will not receive feedback. 
Before you begin, please ensure that you are in a comfortable and quiet location and will not be disturbed for about 15 minutes, as we cannot use your data if you do not complete all the trials. 
 When you are ready to start the experimental trials, please press space or touch the button below.",,,5beb874c10ace8000183294e,33,2022-02-12_17h00.56.520,lexical_decision_task_DD_L5,2021.2.3,Linux armv8l,59.99160118,,,,,,,,,,,,,,,,,,,,0,0,0,0,1,,,,,,,,,,,,,,,,,,,,,,,,,,,,,,,,,,,,,,,,,,,,,,,,,,,,,,,,,,
,,,,,,,,,,,,,,,,,5beb874c10ace8000183294e,33,2022-02-12_17h00.56.520,lexical_decision_task_DD_L5,2021.2.3,Linux armv8l,59.99160118,,,,,,,,,,1.1125,1,,,,,,,,,,,,,,,0,-0.308864612,-0.284996255,1,0,0,1.1125,button_left_main,-0.308864612,-0.284996255,1,0,0,,0,0,0,105,1,MOKER,C,old,z,./images/MOKER.png,,,,,,,,,,,,,,,,,,,,,,,,,,,,,,,,,
,,,,,,,,,,,,,,,,,5beb874c10ace8000183294e,33,2022-02-12_17h00.56.520,lexical_decision_task_DD_L5,2021.2.3,Linux armv8l,59.99160118,,,,,,,,,,1.9429,1,,,,,,,,,,,,,,,0,-0.322715019,-0.296085098,1,0,0,1.9429,button_left_main,-0.322715019,-0.296085098,1,0,0,,0,1,1,133,1,POWDY,HB,old,z,./images/POWDYHB.png,,,,,,,,,,,,,,,,,,,,,,,,,,,,,,,,,
,,,,,,,,,,,,,,,,,5beb874c10ace8000183294e,33,2022-02-12_17h00.56.520,lexical_decision_task_DD_L5,2021.2.3,Linux armv8l,59.99160118,,,,,,,,,,1.1863,1,,,,,,,,,,,,,,,0,-0.36011107,-0.240641325,1,0,0,1.1863,button_left_main,-0.36011107,-0.240641325,1,0,0,,0,2,2,99,1,BACKY,C,old,z,./images/BACKY.png,,,,,,,,,,,,,,,,,,,,,,,,,,,,,,,,,
,,,,,,,,,,,,,,,,,5beb874c10ace8000183294e,33,2022-02-12_17h00.56.520,lexical_decision_task_DD_L5,2021.2.3,Linux armv8l,59.99160118,,,,,,,,,,0.7653,1,,,,,,,,,,,,,,,0,0.331023503,-0.314104395,1,0,0,0.7653,button_right_main,0.331023503,-0.314104395,1,0,0,,0,3,3,10,1,GARDEN,LB,old,m,./images/GARDENLB.png,,,,,,,,,,,,,,,,,,,,,,,,,,,,,,,,,
,,,,,,,,,,,,,,,,,5beb874c10ace8000183294e,33,2022-02-12_17h00.56.520,lexical_decision_task_DD_L5,2021.2.3,Linux armv8l,59.99160118,,,,,,,,,,0.9754,1,,,,,,,,,,,,,,,0,0.336563629,-0.350142692,1,0,0,0.9754,button_right_main,0.336563629,-0.350142692,1,0,0,,0,4,4,68,1,VALLEY,C,old,m,./images/VALLEY.png,,,,,,,,,,,,,,,,,,,,,,,,,,,,,,,,,
,,,,,,,,,,,,,,,,,5beb874c10ace8000183294e,33,2022-02-12_17h00.56.520,lexical_decision_task_DD_L5,2021.2.3,Linux armv8l,59.99160118,,,,,,,,,,0.7814,1,,,,,,,,,,,,,,,0,0.386425055,-0.305787762,1,0,0,0.7814,button_right_main,0.386425055,-0.305787762,1,0,0,,0,5,5,35,1,LLAMA,C,old,m,./images/LLAMA.png,,,,,,,,,,,,,,,,,,,,,,,,,,,,,,,,,
,,,,,,,,,,,,,,,,,5beb874c10ace8000183294e,33,2022-02-12_17h00.56.520,lexical_decision_task_DD_L5,2021.2.3,Linux armv8l,59.99160118,,,,,,,,,,1.1046,1,,,,,,,,,,,,,,,0,-0.385041746,-0.312718512,1,0,0,1.1046,button_left_main,-0.385041746,-0.312718512,1,0,0,,0,6,6,89,1,DRIEK,LB,old,z,./images/DRIEKLB.png,,,,,,,,,,,,,,,,,,,,,,,,,,,,,,,,,
,,,,,,,,,,,,,,,,,5beb874c10ace8000183294e,33,2022-02-12_17h00.56.520,lexical_decision_task_DD_L5,2021.2.3,Linux armv8l,59.99160118,,,,,,,,,,0.9126,1,,,,,,,,,,,,,,,0,-0.343490601,-0.312718512,1,0,0,0.9126,button_left_main,-0.343490601,-0.312718512,1,0,0,,0,7,7,87,1,TRING,C,old,z,./images/TRING.png,,,,,,,,,,,,,,,,,,,,,,,,,,,,,,,,,
,,,,,,,,,,,,,,,,,5beb874c10ace8000183294e,33,2022-02-12_17h00.56.520,lexical_decision_task_DD_L5,2021.2.3,Linux armv8l,59.99160118,,,,,,,,,,1.6522,1,,,,,,,,,,,,,,,0,0.394735318,-0.332123543,1,0,0,1.6522,button_right_main,0.394735318,-0.332123543,1,0,0,,0,8,8,63,1,BAKER,HB,old,m,./images/BAKERHB.png,,,,,,,,,,,,,,,,,,,,,,,,,,,,,,,,,
,,,,,,,,,,,,,,,,,5beb874c10ace8000183294e,33,2022-02-12_17h00.56.520,lexical_decision_task_DD_L5,2021.2.3,Linux armv8l,59.99160118,,,,,,,,,,1.6573,1,,,,,,,,,,,,,,,0,-0.340720501,-0.325193387,1,0,0,1.6573,button_left_main,-0.340720501,-0.325193387,1,0,0,,0,9,9,91,1,SHENS,HB,old,z,./images/SHENSHB.png,,,,,,,,,,,,,,,,,,,,,,,,,,,,,,,,,
,,,,,,,,,,,,,,,,,5beb874c10ace8000183294e,33,2022-02-12_17h00.56.520,lexical_decision_task_DD_L5,2021.2.3,Linux armv8l,59.99160118,,,,,,,,,,0.7845,1,,,,,,,,,,,,,,,0,0.362879262,-0.351528871,1,0,0,0.7845,button_right_main,0.362879262,-0.351528871,1,0,0,,0,10,10,80,1,PLANET,C,old,m,./images/PLANET.png,,,,,,,,,,,,,,,,,,,,,,,,,,,,,,,,,
,,,,,,,,,,,,,,,,,5beb874c10ace8000183294e,33,2022-02-12_17h00.56.520,lexical_decision_task_DD_L5,2021.2.3,Linux armv8l,59.99160118,,,,,,,,,,0.6849,1,,,,,,,,,,,,,,,0,0.378114793,-0.318262637,1,0,0,0.6849,button_right_main,0.378114793,-0.318262637,1,0,0,,0,11,11,71,1,BUBBLE,C,old,m,./images/BUBBLE.png,,,,,,,,,,,,,,,,,,,,,,,,,,,,,,,,,
,,,,,,,,,,,,,,,,,5beb874c10ace8000183294e,33,2022-02-12_17h00.56.520,lexical_decision_task_DD_L5,2021.2.3,Linux armv8l,59.99160118,,,,,,,,,,1.4087,1,,,,,,,,,,,,,,,0,0.357339211,-0.284996255,1,0,0,1.4087,button_right_main,0.357339211,-0.284996255,1,0,0,,0,12,12,8,1,CLIFF,C,old,m,./images/CLIFF.png,,,,,,,,,,,,,,,,,,,,,,,,,,,,,,,,,
,,,,,,,,,,,,,,,,,5beb874c10ace8000183294e,33,2022-02-12_17h00.56.520,lexical_decision_task_DD_L5,2021.2.3,Linux armv8l,59.99160118,,,,,,,,,,0.9979,1,,,,,,,,,,,,,,,0,0.373959662,-0.343212535,1,0,0,0.9979,button_right_main,0.373959662,-0.343212535,1,0,0,,0,13,13,65,1,SPINE,C,old,m,./images/SPINE.png,,,,,,,,,,,,,,,,,,,,,,,,,,,,,,,,,
,,,,,,,,,,,,,,,,,5beb874c10ace8000183294e,33,2022-02-12_17h00.56.520,lexical_decision_task_DD_L5,2021.2.3,Linux armv8l,59.99160118,,,,,,,,,,1.0155,1,,,,,,,,,,,,,,,0,0.373959662,-0.314104395,1,0,0,1.0155,button_right_main,0.373959662,-0.314104395,1,0,0,,0,14,14,70,1,BANANA,LB,old,m,./images/BANANALB.png,,,,,,,,,,,,,,,,,,,,,,,,,,,,,,,,,
,,,,,,,,,,,,,,,,,5beb874c10ace8000183294e,33,2022-02-12_17h00.56.520,lexical_decision_task_DD_L5,2021.2.3,Linux armv8l,59.99160118,,,,,,,,,,0.7913,1,,,,,,,,,,,,,,,0,0.354569074,-0.312718512,1,0,0,0.7913,button_right_main,0.354569074,-0.312718512,1,0,0,,0,15,15,77,1,WHEEL,C,old,m,./images/WHEEL.png,,,,,,,,,,,,,,,,,,,,,,,,,,,,,,,,,
,,,,,,,,,,,,,,,,,5beb874c10ace8000183294e,33,2022-02-12_17h00.56.520,lexical_decision_task_DD_L5,2021.2.3,Linux armv8l,59.99160118,,,,,,,,,,0.9101,1,,,,,,,,,,,,,,,0,-0.371191358,-0.286382583,1,0,0,0.9101,button_left_main,-0.371191358,-0.286382583,1,0,0,,0,16,16,132,1,SCIFF,C,old,z,./images/SCIFF.png,,,,,,,,,,,,,,,,,,,,,,,,,,,,,,,,,
,,,,,,,,,,,,,,,,,5beb874c10ace8000183294e,33,2022-02-12_17h00.56.520,lexical_decision_task_DD_L5,2021.2.3,Linux armv8l,59.99160118,,,,,,,,,,1.9816,1,,,,,,,,,,,,,,,0,0.405815495,-0.336282082,1,0,0,1.9816,button_right_main,0.405815495,-0.336282082,1,0,0,,0,17,17,9,1,DIVER,HB,old,m,./images/DIVERHB.png,,,,,,,,,,,,,,,,,,,,,,,,,,,,,,,,,
,,,,,,,,,,,,,,,,,5beb874c10ace8000183294e,33,2022-02-12_17h00.56.520,lexical_decision_task_DD_L5,2021.2.3,Linux armv8l,59.99160118,,,,,,,,,,0.9648,1,,,,,,,,,,,,,,,0,-0.347645704,-0.286382583,1,0,0,0.9648,button_left_main,-0.347645704,-0.286382583,1,0,0,,0,18,18,120,1,RINED,C,old,z,./images/RINED.png,,,,,,,,,,,,,,,,,,,,,,,,,,,,,,,,,
,,,,,,,,,,,,,,,,,5beb874c10ace8000183294e,33,2022-02-12_17h00.56.520,lexical_decision_task_DD_L5,2021.2.3,Linux armv8l,59.99160118,,,,,,,,,,0.9339,1,,,,,,,,,,,,,,,0,0.391965107,-0.344598418,1,0,0,0.9339,button_right_main,0.391965107,-0.344598418,1,0,0,,0,19,19,46,1,MUMMY,LB,old,m,./images/MUMMYLB.png,,,,,,,,,,,,,,,,,,,,,,,,,,,,,,,,,
,,,,,,,,,,,,,,,,,5beb874c10ace8000183294e,33,2022-02-12_17h00.56.520,lexical_decision_task_DD_L5,2021.2.3,Linux armv8l,59.99160118,,,,,,,,,,1.036,1,,,,,,,,,,,,,,,0,-0.389196868,-0.283610224,1,0,0,1.036,button_left_main,-0.389196868,-0.283610224,1,0,0,,0,20,20,118,1,BAVEL,HB,old,z,./images/BAVELHB.png,,,,,,,,,,,,,,,,,,,,,,,,,,,,,,,,,
,,,,,,,,,,,,,,,,,5beb874c10ace8000183294e,33,2022-02-12_17h00.56.520,lexical_decision_task_DD_L5,2021.2.3,Linux armv8l,59.99160118,,,,,,,,,,1.1765,1,,,,,,,,,,,,,,,0,0.382269924,-0.348756809,1,0,0,1.1765,button_right_main,0.382269924,-0.348756809,1,0,0,,0,21,21,52,1,DESERT,LB,old,m,./images/DESERTLB.png,,,,,,,,,,,,,,,,,,,,,,,,,,,,,,,,,
,,,,,,,,,,,,,,,,,5beb874c10ace8000183294e,33,2022-02-12_17h00.56.520,lexical_decision_task_DD_L5,2021.2.3,Linux armv8l,59.99160118,,,,,,,,,,0.6835,1,,,,,,,,,,,,,,,0,0.322713241,-0.358459473,1,0,0,0.6835,button_right_main,0.322713241,-0.358459473,1,0,0,,0,22,22,25,1,CHALK,LB,old,m,./images/CHALKLB.png,,,,,,,,,,,,,,,,,,,,,,,,,,,,,,,,,
,,,,,,,,,,,,,,,,,5beb874c10ace8000183294e,33,2022-02-12_17h00.56.520,lexical_decision_task_DD_L5,2021.2.3,Linux armv8l,59.99160118,,,,,,,,,,1.4148,1,,,,,,,,,,,,,,,0,-0.365651214,-0.339054145,1,0,0,1.4148,button_left_main,-0.365651214,-0.339054145,1,0,0,,0,23,23,165,1,TROWN,C,old,z,./images/TROWN.png,,,,,,,,,,,,,,,,,,,,,,,,,,,,,,,,,
,,,,,,,,,,,,,,,,,5beb874c10ace8000183294e,33,2022-02-12_17h00.56.520,lexical_decision_task_DD_L5,2021.2.3,Linux armv8l,59.99160118,,,,,,,,,,1.3629,1,,,,,,,,,,,,,,,0,0.347643954,-0.345984598,1,0,0,1.3629,button_right_main,0.347643954,-0.345984598,1,0,0,,0,24,24,1,1,TOWEL,LB,old,m,./images/TOWELLB.png,,,,,,,,,,,,,,,,,,,,,,,,,,,,,,,,,
,,,,,,,,,,,,,,,,,5beb874c10ace8000183294e,33,2022-02-12_17h00.56.520,lexical_decision_task_DD_L5,2021.2.3,Linux armv8l,59.99160118,,,,,,,,,,0.8152,1,,,,,,,,,,,,,,,0,0.313017836,-0.329351333,1,0,0,0.8152,button_right_main,0.313017836,-0.329351333,1,0,0,,0,25,25,49,1,BISHOP,LB,old,m,./images/BISHOPLB.png,,,,,,,,,,,,,,,,,,,,,,,,,,,,,,,,,
,,,,,,,,,,,,,,,,,5beb874c10ace8000183294e,33,2022-02-12_17h00.56.520,lexical_decision_task_DD_L5,2021.2.3,Linux armv8l,59.99160118,,,,,,,,,,1.0275,1,,,,,,,,,,,,,,,0,0.351799085,-0.333509723,1,0,0,1.0275,button_right_main,0.351799085,-0.333509723,1,0,0,,0,26,26,83,1,WHISKY,C,old,m,./images/WHISKY.png,,,,,,,,,,,,,,,,,,,,,,,,,,,,,,,,,
,,,,,,,,,,,,,,,,,5beb874c10ace8000183294e,33,2022-02-12_17h00.56.520,lexical_decision_task_DD_L5,2021.2.3,Linux armv8l,59.99160118,,,,,,,,,,0.6288,1,,,,,,,,,,,,,,,0,0.337948549,-0.333509723,1,0,0,0.6288,button_right_main,0.337948549,-0.333509723,1,0,0,,0,27,27,59,1,BRUSH,C,old,m,./images/BRUSH.png,,,,,,,,,,,,,,,,,,,,,,,,,,,,,,,,,
,,,,,,,,,,,,,,,,,5beb874c10ace8000183294e,33,2022-02-12_17h00.56.520,lexical_decision_task_DD_L5,2021.2.3,Linux armv8l,59.99160118,,,,,,,,,,0.9319,1,,,,,,,,,,,,,,,0,0.297782528,-0.344598418,1,0,0,0.9319,button_right_main,0.297782528,-0.344598418,1,0,0,,0,28,28,38,1,ENGINE,C,old,m,./images/ENGINE.png,,,,,,,,,,,,,,,,,,,,,,,,,,,,,,,,,
,,,,,,,,,,,,,,,,,5beb874c10ace8000183294e,33,2022-02-12_17h00.56.520,lexical_decision_task_DD_L5,2021.2.3,Linux armv8l,59.99160118,,,,,,,,,,2.1394,1,,,,,,,,,,,,,,,0,0.308862705,-0.316876458,1,0,0,2.1394,button_right_main,0.308862705,-0.316876458,1,0,0,,0,29,29,27,1,BUTTER,HB,old,m,./images/BUTTERHB.png,,,,,,,,,,,,,,,,,,,,,,,,,,,,,,,,,
,,,,,,,,,,,,,,,,,5beb874c10ace8000183294e,33,2022-02-12_17h00.56.520,lexical_decision_task_DD_L5,2021.2.3,Linux armv8l,59.99160118,,,,,,,,,,1.0711,1,,,,,,,,,,,,,,,0,0.350413943,-0.35568741,1,0,0,1.0711,button_right_main,0.350413943,-0.35568741,1,0,0,,0,30,30,7,1,WAGON,LB,old,m,./images/WAGONLB.png,,,,,,,,,,,,,,,,,,,,,,,,,,,,,,,,,
,,,,,,,,,,,,,,,,,5beb874c10ace8000183294e,33,2022-02-12_17h00.56.520,lexical_decision_task_DD_L5,2021.2.3,Linux armv8l,59.99160118,,,,,,,,,,1.1735,1,,,,,,,,,,,,,,,0,-0.367036264,-0.29747113,1,0,0,1.1735,button_left_main,-0.367036264,-0.29747113,1,0,0,,0,31,31,155,1,CANGY,LB,old,z,./images/CANGYLB.png,,,,,,,,,,,,,,,,,,,,,,,,,,,,,,,,,
,,,,,,,,,,,,,,,,,5beb874c10ace8000183294e,33,2022-02-12_17h00.56.520,lexical_decision_task_DD_L5,2021.2.3,Linux armv8l,59.99160118,,,,,,,,,,1.1215,1,,,,,,,,,,,,,,,0,-0.335180357,-0.312718512,1,0,0,1.1215,button_left_main,-0.335180357,-0.312718512,1,0,0,,0,32,32,100,1,DRIBS,HB,old,z,./images/DRIBSHB.png,,,,,,,,,,,,,,,,,,,,,,,,,,,,,,,,,
,,,,,,,,,,,,,,,,,5beb874c10ace8000183294e,33,2022-02-12_17h00.56.520,lexical_decision_task_DD_L5,2021.2.3,Linux armv8l,59.99160118,,,,,,,,,,0.9344,1,,,,,,,,,,,,,,,0,-0.37673153,-0.2531162,1,0,0,0.9344,button_left_main,-0.37673153,-0.2531162,1,0,0,,0,33,33,93,1,SMONE,C,old,z,./images/SMONE.png,,,,,,,,,,,,,,,,,,,,,,,,,,,,,,,,,
,,,,,,,,,,,,,,,,,5beb874c10ace8000183294e,33,2022-02-12_17h00.56.520,lexical_decision_task_DD_L5,2021.2.3,Linux armv8l,59.99160118,,,,,,,,,,0.7152,1,,,,,,,,,,,,,,,0,0.383654844,-0.284996255,1,0,0,0.7152,button_right_main,0.383654844,-0.284996255,1,0,0,,0,34,34,64,1,BRIDE,LB,old,m,./images/BRIDELB.png,,,,,,,,,,,,,,,,,,,,,,,,,,,,,,,,,
,,,,,,,,,,,,,,,,,5beb874c10ace8000183294e,33,2022-02-12_17h00.56.520,lexical_decision_task_DD_L5,2021.2.3,Linux armv8l,59.99160118,,,,,,,,,,1.5538,0,,,,,,,,,,,,,,,0,-0.382271674,-0.32657927,1,0,0,1.5538,button_left_main,-0.382271674,-0.32657927,1,0,0,,0,35,35,60,1,CURRY,HB,old,m,./images/CURRYHB.png,,,,,,,,,,,,,,,,,,,,,,,,,,,,,,,,,
,,,,,,,,,,,,,,,,,5beb874c10ace8000183294e,33,2022-02-12_17h00.56.520,lexical_decision_task_DD_L5,2021.2.3,Linux armv8l,59.99160118,,,,,,,,,,0.6896,1,,,,,,,,,,,,,,,0,0.268696609,-0.329351333,1,0,0,0.6896,button_right_main,0.268696609,-0.329351333,1,0,0,,0,36,36,26,1,CLOUD,C,old,m,./images/CLOUD.png,,,,,,,,,,,,,,,,,,,,,,,,,,,,,,,,,
,,,,,,,,,,,,,,,,,5beb874c10ace8000183294e,33,2022-02-12_17h00.56.520,lexical_decision_task_DD_L5,2021.2.3,Linux armv8l,59.99160118,,,,,,,,,,1.1712,1,,,,,,,,,,,,,,,0,-0.373961458,-0.289154645,1,0,0,1.1712,button_left_main,-0.373961458,-0.289154645,1,0,0,,0,37,37,134,1,TROSS,LB,old,z,./images/TROSSLB.png,,,,,,,,,,,,,,,,,,,,,,,,,,,,,,,,,
,,,,,,,,,,,,,,,,,5beb874c10ace8000183294e,33,2022-02-12_17h00.56.520,lexical_decision_task_DD_L5,2021.2.3,Linux armv8l,59.99160118,,,,,,,,,,0.7003,1,,,,,,,,,,,,,,,0,0.326868372,-0.291926708,1,0,0,0.7003,button_right_main,0.326868372,-0.291926708,1,0,0,,0,38,38,56,1,HEATER,C,old,m,./images/HEATER.png,,,,,,,,,,,,,,,,,,,,,,,,,,,,,,,,,
,,,,,,,,,,,,,,,,,5beb874c10ace8000183294e,33,2022-02-12_17h00.56.520,lexical_decision_task_DD_L5,2021.2.3,Linux armv8l,59.99160118,,,,,,,,,,1.7038,1,,,,,,,,,,,,,,,0,0.322713241,-0.300243637,1,0,0,1.7038,button_right_main,0.322713241,-0.300243637,1,0,0,,0,39,39,78,1,BROOM,HB,old,m,./images/BROOMHB.png,,,,,,,,,,,,,,,,,,,,,,,,,,,,,,,,,
,,,,,,,,,,,,,,,,,5beb874c10ace8000183294e,33,2022-02-12_17h00.56.520,lexical_decision_task_DD_L5,2021.2.3,Linux armv8l,59.99160118,,,,,,,,,,0.986,1,,,,,,,,,,,,,,,0,0.380884782,-0.322420879,1,0,0,0.986,button_right_main,0.380884782,-0.322420879,1,0,0,,0,40,40,58,1,CANOE,LB,old,m,./images/CANOELB.png,,,,,,,,,,,,,,,,,,,,,,,,,,,,,,,,,
,,,,,,,,,,,,,,,,,5beb874c10ace8000183294e,33,2022-02-12_17h00.56.520,lexical_decision_task_DD_L5,2021.2.3,Linux armv8l,59.99160118,,,,,,,,,,0.8636,1,,,,,,,,,,,,,,,0,0.343488823,-0.319648669,1,0,0,0.8636,button_right_main,0.088641602,-0.404200582,1,0,0,,0,41,41,39,1,CANDY,HB,old,m,./images/CANDYHB.png,break_done_button,,,,,,,,,,,,,,,,,,,,,,,,,,,,,,,,
,,,,,,,,,,,,,,,,,5beb874c10ace8000183294e,33,2022-02-12_17h00.56.520,lexical_decision_task_DD_L5,2021.2.3,Linux armv8l,59.99160118,,,,,,,,,,2.339,1,,,,,,,,,,,,,,,0,0.385039913,-0.394497918,1,0,0,2.339,button_right_main,0.385039913,-0.394497918,1,0,0,,0,42,42,18,1,PARCEL,HB,old,m,./images/PARCELHB.png,,,,,,,,,,,,,,,,,,,,,,,,,,,,,,,,,
,,,,,,,,,,,,,,,,,5beb874c10ace8000183294e,33,2022-02-12_17h00.56.520,lexical_decision_task_DD_L5,2021.2.3,Linux armv8l,59.99160118,,,,,,,,,,0.8466,1,,,,,,,,,,,,,,,0,-0.293629193,-0.315490575,1,0,0,0.8466,button_left_main,-0.293629193,-0.315490575,1,0,0,,0,43,43,102,1,DULLE,C,old,z,./images/DULLE.png,,,,,,,,,,,,,,,,,,,,,,,,,,,,,,,,,
,,,,,,,,,,,,,,,,,5beb874c10ace8000183294e,33,2022-02-12_17h00.56.520,lexical_decision_task_DD_L5,2021.2.3,Linux armv8l,59.99160118,,,,,,,,,,1.3361,1,,,,,,,,,,,,,,,0,-0.337950419,-0.271135349,1,0,0,1.3361,button_left_main,-0.337950419,-0.271135349,1,0,0,,0,44,44,103,1,FLORT,HB,old,z,./images/FLORTHB.png,,,,,,,,,,,,,,,,,,,,,,,,,,,,,,,,,
,,,,,,,,,,,,,,,,,5beb874c10ace8000183294e,33,2022-02-12_17h00.56.520,lexical_decision_task_DD_L5,2021.2.3,Linux armv8l,59.99160118,,,,,,,,,,0.7144,1,,,,,,,,,,,,,,,0,0.368419388,-0.333509723,1,0,0,0.7144,button_right_main,0.368419388,-0.333509723,1,0,0,,0,45,45,15,1,COLLAR,HB,old,m,./images/COLLARHB.png,,,,,,,,,,,,,,,,,,,,,,,,,,,,,,,,,
,,,,,,,,,,,,,,,,,5beb874c10ace8000183294e,33,2022-02-12_17h00.56.520,lexical_decision_task_DD_L5,2021.2.3,Linux armv8l,59.99160118,,,,,,,,,,0.7478,1,,,,,,,,,,,,,,,0,0.382269924,-0.321034848,1,0,0,0.7478,button_right_main,0.382269924,-0.321034848,1,0,0,,0,46,46,79,1,RULER,LB,old,m,./images/RULERLB.png,,,,,,,,,,,,,,,,,,,,,,,,,,,,,,,,,
,,,,,,,,,,,,,,,,,5beb874c10ace8000183294e,33,2022-02-12_17h00.56.520,lexical_decision_task_DD_L5,2021.2.3,Linux armv8l,59.99160118,,,,,,,,,,1.6677,1,,,,,,,,,,,,,,,0,0.386425055,-0.279451833,1,0,0,1.6677,button_right_main,0.386425055,-0.279451833,1,0,0,,0,47,47,31,1,STEAK,LB,old,m,./images/STEAKLB.png,,,,,,,,,,,,,,,,,,,,,,,,,,,,,,,,,
,,,,,,,,,,,,,,,,,5beb874c10ace8000183294e,33,2022-02-12_17h00.56.520,lexical_decision_task_DD_L5,2021.2.3,Linux armv8l,59.99160118,,,,,,,,,,1.4214,1,,,,,,,,,,,,,,,0,0.379499713,-0.254502232,1,0,0,1.4214,button_right_main,0.379499713,-0.254502232,1,0,0,,0,48,48,6,1,STAIN,HB,old,m,./images/STAINHB.png,,,,,,,,,,,,,,,,,,,,,,,,,,,,,,,,,
,,,,,,,,,,,,,,,,,5beb874c10ace8000183294e,33,2022-02-12_17h00.56.520,lexical_decision_task_DD_L5,2021.2.3,Linux armv8l,59.99160118,,,,,,,,,,0.7007,1,,,,,,,,,,,,,,,0,0.380884782,-0.286382583,1,0,0,0.7007,button_right_main,0.380884782,-0.286382583,1,0,0,,0,49,49,50,1,PILOT,C,old,m,./images/PILOT.png,,,,,,,,,,,,,,,,,,,,,,,,,,,,,,,,,
,,,,,,,,,,,,,,,,,5beb874c10ace8000183294e,33,2022-02-12_17h00.56.520,lexical_decision_task_DD_L5,2021.2.3,Linux armv8l,59.99160118,,,,,,,,,,0.8461,1,,,,,,,,,,,,,,,0,-0.372576408,-0.289154645,1,0,0,0.8461,button_left_main,-0.372576408,-0.289154645,1,0,0,,0,50,50,114,1,RIKES,C,old,z,./images/RIKES.png,,,,,,,,,,,,,,,,,,,,,,,,,,,,,,,,,
,,,,,,,,,,,,,,,,,5beb874c10ace8000183294e,33,2022-02-12_17h00.56.520,lexical_decision_task_DD_L5,2021.2.3,Linux armv8l,59.99160118,,,,,,,,,,1.1696,1,,,,,,,,,,,,,,,0,-0.336565407,-0.287768762,1,0,0,1.1696,button_left_main,-0.336565407,-0.287768762,1,0,0,,0,51,51,101,1,GLEET,LB,old,z,./images/GLEETLB.png,,,,,,,,,,,,,,,,,,,,,,,,,,,,,,,,,
,,,,,,,,,,,,,,,,,5beb874c10ace8000183294e,33,2022-02-12_17h00.56.520,lexical_decision_task_DD_L5,2021.2.3,Linux armv8l,59.99160118,,,,,,,,,,0.865,1,,,,,,,,,,,,,,,0,0.346258812,-0.343212535,1,0,0,0.865,button_right_main,0.346258812,-0.343212535,1,0,0,,0,52,52,41,1,STREAM,C,old,m,./images/STREAM.png,,,,,,,,,,,,,,,,,,,,,,,,,,,,,,,,,
,,,,,,,,,,,,,,,,,5beb874c10ace8000183294e,33,2022-02-12_17h00.56.520,lexical_decision_task_DD_L5,2021.2.3,Linux armv8l,59.99160118,,,,,,,,,,0.95,1,,,,,,,,,,,,,,,0,0.324098235,-0.327965449,1,0,0,0.95,button_right_main,0.324098235,-0.327965449,1,0,0,,0,53,53,33,1,SAUNA,HB,old,m,./images/SAUNAHB.png,,,,,,,,,,,,,,,,,,,,,,,,,,,,,,,,,
,,,,,,,,,,,,,,,,,5beb874c10ace8000183294e,33,2022-02-12_17h00.56.520,lexical_decision_task_DD_L5,2021.2.3,Linux armv8l,59.99160118,,,,,,,,,,2.0247,1,,,,,,,,,,,,,,,0,-0.328255163,-0.29747113,1,0,0,2.0247,button_left_main,-0.328255163,-0.29747113,1,0,0,,0,54,54,127,1,NINDY,HB,old,z,./images/NINDYHB.png,,,,,,,,,,,,,,,,,,,,,,,,,,,,,,,,,
,,,,,,,,,,,,,,,,,5beb874c10ace8000183294e,33,2022-02-12_17h00.56.520,lexical_decision_task_DD_L5,2021.2.3,Linux armv8l,59.99160118,,,,,,,,,,0.7315,1,,,,,,,,,,,,,,,0,-0.365651214,-0.290540825,1,0,0,0.7315,button_left_main,-0.365651214,-0.290540825,1,0,0,,0,55,55,144,1,NAIRY,C,old,z,./images/NAIRY.png,,,,,,,,,,,,,,,,,,,,,,,,,,,,,,,,,
,,,,,,,,,,,,,,,,,5beb874c10ace8000183294e,33,2022-02-12_17h00.56.520,lexical_decision_task_DD_L5,2021.2.3,Linux armv8l,59.99160118,,,,,,,,,,1.1793,1,,,,,,,,,,,,,,,0,-0.379501602,-0.305787762,1,0,0,1.1793,button_left_main,-0.379501602,-0.305787762,1,0,0,,0,56,56,151,1,TINKY,HB,old,z,./images/TINKYHB.png,,,,,,,,,,,,,,,,,,,,,,,,,,,,,,,,,
,,,,,,,,,,,,,,,,,5beb874c10ace8000183294e,33,2022-02-12_17h00.56.520,lexical_decision_task_DD_L5,2021.2.3,Linux armv8l,59.99160118,,,,,,,,,,0.9512,1,,,,,,,,,,,,,,,0,-0.35734097,-0.319648669,1,0,0,0.9512,button_left_main,-0.35734097,-0.319648669,1,0,0,,0,57,57,113,1,LINEW,LB,old,z,./images/LINEWLB.png,,,,,,,,,,,,,,,,,,,,,,,,,,,,,,,,,
,,,,,,,,,,,,,,,,,5beb874c10ace8000183294e,33,2022-02-12_17h00.56.520,lexical_decision_task_DD_L5,2021.2.3,Linux armv8l,59.99160118,,,,,,,,,,0.8701,1,,,,,,,,,,,,,,,0,-0.344875632,-0.332123543,1,0,0,0.8701,button_left_main,-0.344875632,-0.332123543,1,0,0,,0,58,58,112,1,MYING,HB,old,z,./images/MYINGHB.png,,,,,,,,,,,,,,,,,,,,,,,,,,,,,,,,,
,,,,,,,,,,,,,,,,,5beb874c10ace8000183294e,33,2022-02-12_17h00.56.520,lexical_decision_task_DD_L5,2021.2.3,Linux armv8l,59.99160118,,,,,,,,,,1.05,1,,,,,,,,,,,,,,,0,-0.353185876,-0.352915199,1,0,0,1.05,button_left_main,-0.353185876,-0.352915199,1,0,0,,0,59,59,123,1,SEDGE,C,old,z,./images/SEDGE.png,,,,,,,,,,,,,,,,,,,,,,,,,,,,,,,,,
,,,,,,,,,,,,,,,,,5beb874c10ace8000183294e,33,2022-02-12_17h00.56.520,lexical_decision_task_DD_L5,2021.2.3,Linux armv8l,59.99160118,,,,,,,,,,0.7687,1,,,,,,,,,,,,,,,0,-0.342105551,-0.291926708,1,0,0,0.7687,button_left_main,-0.342105551,-0.291926708,1,0,0,,0,60,60,141,1,PLEET,C,old,z,./images/PLEET.png,,,,,,,,,,,,,,,,,,,,,,,,,,,,,,,,,
,,,,,,,,,,,,,,,,,5beb874c10ace8000183294e,33,2022-02-12_17h00.56.520,lexical_decision_task_DD_L5,2021.2.3,Linux armv8l,59.99160118,,,,,,,,,,0.8304,1,,,,,,,,,,,,,,,0,-0.337950419,-0.287768762,1,0,0,0.8304,button_left_main,-0.337950419,-0.287768762,1,0,0,,0,61,61,86,1,AIFED,LB,old,z,./images/AIFEDLB.png,,,,,,,,,,,,,,,,,,,,,,,,,,,,,,,,,
,,,,,,,,,,,,,,,,,5beb874c10ace8000183294e,33,2022-02-12_17h00.56.520,lexical_decision_task_DD_L5,2021.2.3,Linux armv8l,59.99160118,,,,,,,,,,0.6708,1,,,,,,,,,,,,,,,0,-0.317174856,-0.309946005,1,0,0,0.6708,button_left_main,-0.317174856,-0.309946005,1,0,0,,0,62,62,158,1,EGECT,LB,old,z,./images/EGECTLB.png,,,,,,,,,,,,,,,,,,,,,,,,,,,,,,,,,
,,,,,,,,,,,,,,,,,5beb874c10ace8000183294e,33,2022-02-12_17h00.56.520,lexical_decision_task_DD_L5,2021.2.3,Linux armv8l,59.99160118,,,,,,,,,,0.8835,1,,,,,,,,,,,,,,,0,-0.349030754,-0.312718512,1,0,0,0.8835,button_left_main,-0.349030754,-0.312718512,1,0,0,,0,63,63,129,1,PRANS,C,old,z,./images/PRANS.png,,,,,,,,,,,,,,,,,,,,,,,,,,,,,,,,,
,,,,,,,,,,,,,,,,,5beb874c10ace8000183294e,33,2022-02-12_17h00.56.520,lexical_decision_task_DD_L5,2021.2.3,Linux armv8l,59.99160118,,,,,,,,,,0.6839,1,,,,,,,,,,,,,,,0,0.343488823,-0.329351333,1,0,0,0.6839,button_right_main,0.343488823,-0.329351333,1,0,0,,0,64,64,4,1,BOXER,LB,old,m,./images/BOXERLB.png,,,,,,,,,,,,,,,,,,,,,,,,,,,,,,,,,
,,,,,,,,,,,,,,,,,5beb874c10ace8000183294e,33,2022-02-12_17h00.56.520,lexical_decision_task_DD_L5,2021.2.3,Linux armv8l,59.99160118,,,,,,,,,,1.901,1,,,,,,,,,,,,,,,0,-0.426592938,-0.347370629,1,0,0,1.901,button_left_main,-0.426592938,-0.347370629,1,0,0,,0,65,65,94,1,BLANS,HB,old,z,./images/BLANSHB.png,,,,,,,,,,,,,,,,,,,,,,,,,,,,,,,,,
,,,,,,,,,,,,,,,,,5beb874c10ace8000183294e,33,2022-02-12_17h00.56.520,lexical_decision_task_DD_L5,2021.2.3,Linux armv8l,59.99160118,,,,,,,,,,0.6676,1,,,,,,,,,,,,,,,0,-0.340720501,-0.296085098,1,0,0,0.6676,button_left_main,-0.340720501,-0.296085098,1,0,0,,0,66,66,140,1,DOVET,LB,old,z,./images/DOVETLB.png,,,,,,,,,,,,,,,,,,,,,,,,,,,,,,,,,
,,,,,,,,,,,,,,,,,5beb874c10ace8000183294e,33,2022-02-12_17h00.56.520,lexical_decision_task_DD_L5,2021.2.3,Linux armv8l,59.99160118,,,,,,,,,,1.065,1,,,,,,,,,,,,,,,0,0.378114793,-0.359845504,1,0,0,1.065,button_right_main,0.378114793,-0.359845504,1,0,0,,0,67,67,32,1,HOCKEY,C,old,m,./images/HOCKEY.png,,,,,,,,,,,,,,,,,,,,,,,,,,,,,,,,,
,,,,,,,,,,,,,,,,,5beb874c10ace8000183294e,33,2022-02-12_17h00.56.520,lexical_decision_task_DD_L5,2021.2.3,Linux armv8l,59.99160118,,,,,,,,,,1.0867,1,,,,,,,,,,,,,,,0,0.368419388,-0.341826207,1,0,0,1.0867,button_right_main,0.368419388,-0.341826207,1,0,0,,0,68,68,19,1,DONKEY,LB,old,m,./images/DONKEYLB.png,,,,,,,,,,,,,,,,,,,,,,,,,,,,,,,,,
,,,,,,,,,,,,,,,,,5beb874c10ace8000183294e,33,2022-02-12_17h00.56.520,lexical_decision_task_DD_L5,2021.2.3,Linux armv8l,59.99160118,,,,,,,,,,0.9666,1,,,,,,,,,,,,,,,0,-0.373961458,-0.296085098,1,0,0,0.9666,button_left_main,-0.373961458,-0.296085098,1,0,0,,0,69,69,131,1,NACES,LB,old,z,./images/NACESLB.png,,,,,,,,,,,,,,,,,,,,,,,,,,,,,,,,,
,,,,,,,,,,,,,,,,,5beb874c10ace8000183294e,33,2022-02-12_17h00.56.520,lexical_decision_task_DD_L5,2021.2.3,Linux armv8l,59.99160118,,,,,,,,,,0.7535,1,,,,,,,,,,,,,,,0,-0.343490601,-0.279451833,1,0,0,0.7535,button_left_main,-0.343490601,-0.279451833,1,0,0,,0,70,70,98,1,BAMPS,LB,old,z,./images/BAMPSLB.png,,,,,,,,,,,,,,,,,,,,,,,,,,,,,,,,,
,,,,,,,,,,,,,,,,,5beb874c10ace8000183294e,33,2022-02-12_17h00.56.520,lexical_decision_task_DD_L5,2021.2.3,Linux armv8l,59.99160118,,,,,,,,,,1.5365,1,,,,,,,,,,,,,,,0,-0.342105551,-0.293312888,1,0,0,1.5365,button_left_main,-0.342105551,-0.293312888,1,0,0,,0,71,71,160,1,VEETS,HB,old,z,./images/VEETSHB.png,,,,,,,,,,,,,,,,,,,,,,,,,,,,,,,,,
,,,,,,,,,,,,,,,,,5beb874c10ace8000183294e,33,2022-02-12_17h00.56.520,lexical_decision_task_DD_L5,2021.2.3,Linux armv8l,59.99160118,,,,,,,,,,0.7902,1,,,,,,,,,,,,,,,0,0.336563629,-0.365390074,1,0,0,0.7902,button_right_main,0.336563629,-0.365390074,1,0,0,,0,72,72,40,1,SNAKE,LB,old,m,./images/SNAKELB.png,,,,,,,,,,,,,,,,,,,,,,,,,,,,,,,,,
,,,,,,,,,,,,,,,,,5beb874c10ace8000183294e,33,2022-02-12_17h00.56.520,lexical_decision_task_DD_L5,2021.2.3,Linux armv8l,59.99160118,,,,,,,,,,0.7847,1,,,,,,,,,,,,,,,0,0.315787973,-0.340440324,1,0,0,0.7847,button_right_main,0.315787973,-0.340440324,1,0,0,,0,73,73,5,1,BAMBOO,C,old,m,./images/BAMBOO.png,,,,,,,,,,,,,,,,,,,,,,,,,,,,,,,,,
,,,,,,,,,,,,,,,,,5beb874c10ace8000183294e,33,2022-02-12_17h00.56.520,lexical_decision_task_DD_L5,2021.2.3,Linux armv8l,59.99160118,,,,,,,,,,0.6631,1,,,,,,,,,,,,,,,0,0.331023503,-0.319648669,1,0,0,0.6631,button_right_main,0.331023503,-0.319648669,1,0,0,,0,74,74,55,1,ALLEY,LB,old,m,./images/ALLEYLB.png,,,,,,,,,,,,,,,,,,,,,,,,,,,,,,,,,
,,,,,,,,,,,,,,,,,5beb874c10ace8000183294e,33,2022-02-12_17h00.56.520,lexical_decision_task_DD_L5,2021.2.3,Linux armv8l,59.99160118,,,,,,,,,,1.1836,1,,,,,,,,,,,,,,,0,-0.361496092,-0.350142692,1,0,0,1.1836,button_left_main,-0.361496092,-0.350142692,1,0,0,,0,75,75,137,1,JOOST,LB,old,z,./images/JOOSTLB.png,,,,,,,,,,,,,,,,,,,,,,,,,,,,,,,,,
,,,,,,,,,,,,,,,,,5beb874c10ace8000183294e,33,2022-02-12_17h00.56.520,lexical_decision_task_DD_L5,2021.2.3,Linux armv8l,59.99160118,,,,,,,,,,0.6653,1,,,,,,,,,,,,,,,0,-0.328255163,-0.322420879,1,0,0,0.6653,button_left_main,-0.328255163,-0.322420879,1,0,0,,0,76,76,107,1,FASKS,LB,old,z,./images/FASKSLB.png,,,,,,,,,,,,,,,,,,,,,,,,,,,,,,,,,
,,,,,,,,,,,,,,,,,5beb874c10ace8000183294e,33,2022-02-12_17h00.56.520,lexical_decision_task_DD_L5,2021.2.3,Linux armv8l,59.99160118,,,,,,,,,,1.3701,1,,,,,,,,,,,,,,,0,-0.351800817,-0.286382583,1,0,0,1.3701,button_left_main,-0.351800817,-0.286382583,1,0,0,,0,77,77,106,1,CLUMS,HB,old,z,./images/CLUMSHB.png,,,,,,,,,,,,,,,,,,,,,,,,,,,,,,,,,
,,,,,,,,,,,,,,,,,5beb874c10ace8000183294e,33,2022-02-12_17h00.56.520,lexical_decision_task_DD_L5,2021.2.3,Linux armv8l,59.99160118,,,,,,,,,,1.4696,1,,,,,,,,,,,,,,,0,0.396120238,-0.291926708,1,0,0,1.4696,button_right_main,0.396120238,-0.291926708,1,0,0,,0,78,78,16,1,GRAPE,LB,old,m,./images/GRAPELB.png,,,,,,,,,,,,,,,,,,,,,,,,,,,,,,,,,
,,,,,,,,,,,,,,,,,5beb874c10ace8000183294e,33,2022-02-12_17h00.56.520,lexical_decision_task_DD_L5,2021.2.3,Linux armv8l,59.99160118,,,,,,,,,,1.1667,1,,,,,,,,,,,,,,,0,0.346258812,-0.268363138,1,0,0,1.1667,button_right_main,0.346258812,-0.268363138,1,0,0,,0,79,79,23,1,CLOTH,C,old,m,./images/CLOTH.png,,,,,,,,,,,,,,,,,,,,,,,,,,,,,,,,,
,,,,,,,,,,,,,,,,,5beb874c10ace8000183294e,33,2022-02-12_17h00.56.520,lexical_decision_task_DD_L5,2021.2.3,Linux armv8l,59.99160118,,,,,,,,,,1.5842,1,,,,,,,,,,,,,,,0,-0.347645704,-0.311332332,1,0,0,1.5842,button_left_main,-0.347645704,-0.311332332,1,0,0,,0,80,80,88,1,GLUSH,HB,old,z,./images/GLUSHHB.png,,,,,,,,,,,,,,,,,,,,,,,,,,,,,,,,,
,,,,,,,,,,,,,,,,,5beb874c10ace8000183294e,33,2022-02-12_17h00.56.520,lexical_decision_task_DD_L5,2021.2.3,Linux armv8l,59.99160118,,,,,,,,,,0.687,1,,,,,,,,,,,,,,,0,0.337948549,-0.309946005,1,0,0,0.687,button_right_main,0.337948549,-0.309946005,1,0,0,,0,81,81,62,1,MAMMAL,C,old,m,./images/MAMMAL.png,,,,,,,,,,,,,,,,,,,,,,,,,,,,,,,,,
,,,,,,,,,,,,,,,,,5beb874c10ace8000183294e,33,2022-02-12_17h00.56.520,lexical_decision_task_DD_L5,2021.2.3,Linux armv8l,59.99160118,,,,,,,,,,1.1632,1,,,,,,,,,,,,,,,0,-0.368421286,-0.333509723,1,0,0,1.1632,button_left_main,-0.368421286,-0.333509723,1,0,0,,0,82,82,116,1,BALGY,LB,old,z,./images/BALGYLB.png,,,,,,,,,,,,,,,,,,,,,,,,,,,,,,,,,
,,,,,,,,,,,,,,,,,5beb874c10ace8000183294e,33,2022-02-12_17h00.56.520,lexical_decision_task_DD_L5,2021.2.3,Linux armv8l,59.99160118,,,,,,,,,,1.5515,1,,,,,,,,,,,,,,,0,-0.347645704,-0.316876458,1,0,0,1.5515,button_left_main,-0.015236382,-0.372320379,1,0,0,,0,83,83,136,1,WERVE,HB,old,z,./images/WERVEHB.png,break_done_button,,,,,,,,,,,,,,,,,,,,,,,,,,,,,,,,
,,,,,,,,,,,,,,,,,5beb874c10ace8000183294e,33,2022-02-12_17h00.56.520,lexical_decision_task_DD_L5,2021.2.3,Linux armv8l,59.99160118,,,,,,,,,,1.2457,1,,,,,,,,,,,,,,,0,-0.337950419,-0.248957958,1,0,0,1.2457,button_left_main,-0.337950419,-0.248957958,1,0,0,,0,84,84,148,1,JOMS,HB,old,z,./images/JOMSHB.png,,,,,,,,,,,,,,,,,,,,,,,,,,,,,,,,,
,,,,,,,,,,,,,,,,,5beb874c10ace8000183294e,33,2022-02-12_17h00.56.520,lexical_decision_task_DD_L5,2021.2.3,Linux armv8l,59.99160118,,,,,,,,,,1.1839,1,,,,,,,,,,,,,,,0,0.332408498,-0.366775957,1,0,0,1.1839,button_right_main,0.332408498,-0.366775957,1,0,0,,0,85,85,11,1,MEDAL,C,old,m,./images/MEDAL.png,,,,,,,,,,,,,,,,,,,,,,,,,,,,,,,,,
,,,,,,,,,,,,,,,,,5beb874c10ace8000183294e,33,2022-02-12_17h00.56.520,lexical_decision_task_DD_L5,2021.2.3,Linux armv8l,59.99160118,,,,,,,,,,1.6533,1,,,,,,,,,,,,,,,0,0.346258812,-0.298857457,1,0,0,1.6533,button_right_main,0.346258812,-0.298857457,1,0,0,,0,86,86,17,1,PARADE,C,old,m,./images/PARADE.png,,,,,,,,,,,,,,,,,,,,,,,,,,,,,,,,,
,,,,,,,,,,,,,,,,,5beb874c10ace8000183294e,33,2022-02-12_17h00.56.520,lexical_decision_task_DD_L5,2021.2.3,Linux armv8l,59.99160118,,,,,,,,,,1.3542,0,,,,,,,,,,,,,,,0,-0.315789825,-0.339054145,1,0,0,1.3542,button_left_main,-0.315789825,-0.339054145,1,0,0,,0,87,87,30,1,SLOPE,HB,old,m,./images/SLOPEHB.png,,,,,,,,,,,,,,,,,,,,,,,,,,,,,,,,,
,,,,,,,,,,,,,,,,,5beb874c10ace8000183294e,33,2022-02-12_17h00.56.520,lexical_decision_task_DD_L5,2021.2.3,Linux armv8l,59.99160118,,,,,,,,,,1.0355,1,,,,,,,,,,,,,,,0,-0.362881142,-0.251730021,1,0,0,1.0355,button_left_main,-0.362881142,-0.251730021,1,0,0,,0,88,88,167,1,ZONET,LB,old,z,./images/ZONETLB.png,,,,,,,,,,,,,,,,,,,,,,,,,,,,,,,,,
,,,,,,,,,,,,,,,,,5beb874c10ace8000183294e,33,2022-02-12_17h00.56.520,lexical_decision_task_DD_L5,2021.2.3,Linux armv8l,59.99160118,,,,,,,,,,1.2841,1,,,,,,,,,,,,,,,0,0.375344656,-0.339054145,1,0,0,1.2841,button_right_main,0.375344656,-0.339054145,1,0,0,,0,89,89,2,1,STOVE,C,old,m,./images/STOVE.png,,,,,,,,,,,,,,,,,,,,,,,,,,,,,,,,,
,,,,,,,,,,,,,,,,,5beb874c10ace8000183294e,33,2022-02-12_17h00.56.520,lexical_decision_task_DD_L5,2021.2.3,Linux armv8l,59.99160118,,,,,,,,,,1.2312,0,,,,,,,,,,,,,,,0,0.344873891,-0.350142692,1,0,0,1.2312,button_right_main,0.344873891,-0.350142692,1,0,0,,0,90,90,166,1,SHORY,HB,old,z,./images/SHORYHB.png,,,,,,,,,,,,,,,,,,,,,,,,,,,,,,,,,
,,,,,,,,,,,,,,,,,5beb874c10ace8000183294e,33,2022-02-12_17h00.56.520,lexical_decision_task_DD_L5,2021.2.3,Linux armv8l,59.99160118,,,,,,,,,,1.0072,1,,,,,,,,,,,,,,,0,0.351799085,-0.30162952,1,0,0,1.0072,button_right_main,0.351799085,-0.30162952,1,0,0,,0,91,91,54,1,CHERRY,HB,old,m,./images/CHERRYHB.png,,,,,,,,,,,,,,,,,,,,,,,,,,,,,,,,,
,,,,,,,,,,,,,,,,,5beb874c10ace8000183294e,33,2022-02-12_17h00.56.520,lexical_decision_task_DD_L5,2021.2.3,Linux armv8l,59.99160118,,,,,,,,,,0.771,1,,,,,,,,,,,,,,,0,-0.362881142,-0.280838013,1,0,0,0.771,button_left_main,-0.362881142,-0.280838013,1,0,0,,0,92,92,111,1,HOSSE,C,old,z,./images/HOSSE.png,,,,,,,,,,,,,,,,,,,,,,,,,,,,,,,,,
,,,,,,,,,,,,,,,,,5beb874c10ace8000183294e,33,2022-02-12_17h00.56.520,lexical_decision_task_DD_L5,2021.2.3,Linux armv8l,59.99160118,,,,,,,,,,1.1074,1,,,,,,,,,,,,,,,0,0.37672965,-0.261432833,1,0,0,1.1074,button_right_main,0.37672965,-0.261432833,1,0,0,,0,93,93,66,1,STATUE,HB,old,m,./images/STATUEHB.png,,,,,,,,,,,,,,,,,,,,,,,,,,,,,,,,,
,,,,,,,,,,,,,,,,,5beb874c10ace8000183294e,33,2022-02-12_17h00.56.520,lexical_decision_task_DD_L5,2021.2.3,Linux armv8l,59.99160118,,,,,,,,,,0.7117,1,,,,,,,,,,,,,,,0,-0.369806336,-0.294698919,1,0,0,0.7117,button_left_main,-0.369806336,-0.294698919,1,0,0,,0,94,94,92,1,PAIMS,LB,old,z,./images/PAIMSLB.png,,,,,,,,,,,,,,,,,,,,,,,,,,,,,,,,,
,,,,,,,,,,,,,,,,,5beb874c10ace8000183294e,33,2022-02-12_17h00.56.520,lexical_decision_task_DD_L5,2021.2.3,Linux armv8l,59.99160118,,,,,,,,,,2.0535,1,,,,,,,,,,,,,,,0,0.390580187,-0.296085098,1,0,0,2.0535,button_right_main,0.390580187,-0.296085098,1,0,0,,0,95,95,45,1,MONKEY,HB,old,m,./images/MONKEYHB.png,,,,,,,,,,,,,,,,,,,,,,,,,,,,,,,,,
,,,,,,,,,,,,,,,,,5beb874c10ace8000183294e,33,2022-02-12_17h00.56.520,lexical_decision_task_DD_L5,2021.2.3,Linux armv8l,59.99160118,,,,,,,,,,1.6962,1,,,,,,,,,,,,,,,0,-0.346260682,-0.2531162,1,0,0,1.6962,button_left_main,-0.346260682,-0.2531162,1,0,0,,0,96,96,145,1,LAMEL,HB,old,z,./images/LAMELHB.png,,,,,,,,,,,,,,,,,,,,,,,,,,,,,,,,,
,,,,,,,,,,,,,,,,,5beb874c10ace8000183294e,33,2022-02-12_17h00.56.520,lexical_decision_task_DD_L5,2021.2.3,Linux armv8l,59.99160118,,,,,,,,,,0.9981,0,,,,,,,,,,,,,,,0,0.375344656,-0.244799568,1,0,0,0.9981,button_right_main,0.375344656,-0.244799568,1,0,0,,0,97,97,85,1,CHULK,HB,old,z,./images/CHULKHB.png,,,,,,,,,,,,,,,,,,,,,,,,,,,,,,,,,
,,,,,,,,,,,,,,,,,5beb874c10ace8000183294e,33,2022-02-12_17h00.56.520,lexical_decision_task_DD_L5,2021.2.3,Linux armv8l,59.99160118,,,,,,,,,,1.2985,0,,,,,,,,,,,,,,,0,-0.385041746,-0.273907708,1,0,0,1.2985,button_left_main,-0.385041746,-0.273907708,1,0,0,,0,98,98,73,1,GLOVE,LB,old,m,./images/GLOVELB.png,,,,,,,,,,,,,,,,,,,,,,,,,,,,,,,,,
,,,,,,,,,,,,,,,,,5beb874c10ace8000183294e,33,2022-02-12_17h00.56.520,lexical_decision_task_DD_L5,2021.2.3,Linux armv8l,59.99160118,,,,,,,,,,1.4738,1,,,,,,,,,,,,,,,0,0.321328098,-0.329351333,1,0,0,1.4738,button_right_main,0.321328098,-0.329351333,1,0,0,,0,99,99,76,1,MIDGET,LB,old,m,./images/MIDGETLB.png,,,,,,,,,,,,,,,,,,,,,,,,,,,,,,,,,
,,,,,,,,,,,,,,,,,5beb874c10ace8000183294e,33,2022-02-12_17h00.56.520,lexical_decision_task_DD_L5,2021.2.3,Linux armv8l,59.99160118,,,,,,,,,,1.6188,1,,,,,,,,,,,,,,,0,0.350413943,-0.27667977,1,0,0,1.6188,button_right_main,0.350413943,-0.27667977,1,0,0,,0,100,100,82,1,PEBBLE,LB,old,m,./images/PEBBLELB.png,,,,,,,,,,,,,,,,,,,,,,,,,,,,,,,,,
,,,,,,,,,,,,,,,,,5beb874c10ace8000183294e,33,2022-02-12_17h00.56.520,lexical_decision_task_DD_L5,2021.2.3,Linux armv8l,59.99160118,,,,,,,,,,1.7228,1,,,,,,,,,,,,,,,0,-0.346260682,-0.279451833,1,0,0,1.7228,button_left_main,-0.346260682,-0.279451833,1,0,0,,0,101,101,135,1,JOODY,C,old,z,./images/JOODY.png,,,,,,,,,,,,,,,,,,,,,,,,,,,,,,,,,
,,,,,,,,,,,,,,,,,5beb874c10ace8000183294e,33,2022-02-12_17h00.56.520,lexical_decision_task_DD_L5,2021.2.3,Linux armv8l,59.99160118,,,,,,,,,,1.0213,1,,,,,,,,,,,,,,,0,0.350413943,-0.296085098,1,0,0,1.0213,button_right_main,0.350413943,-0.296085098,1,0,0,,0,102,102,37,1,TIGER,LB,old,m,./images/TIGERLB.png,,,,,,,,,,,,,,,,,,,,,,,,,,,,,,,,,
,,,,,,,,,,,,,,,,,5beb874c10ace8000183294e,33,2022-02-12_17h00.56.520,lexical_decision_task_DD_L5,2021.2.3,Linux armv8l,59.99160118,,,,,,,,,,1.8889,1,,,,,,,,,,,,,,,0,-0.351800817,-0.305787762,1,0,0,1.8889,button_left_main,-0.351800817,-0.305787762,1,0,0,,0,103,103,115,1,MAWNS,HB,old,z,./images/MAWNSHB.png,,,,,,,,,,,,,,,,,,,,,,,,,,,,,,,,,
,,,,,,,,,,,,,,,,,5beb874c10ace8000183294e,33,2022-02-12_17h00.56.520,lexical_decision_task_DD_L5,2021.2.3,Linux armv8l,59.99160118,,,,,,,,,,1.8671,1,,,,,,,,,,,,,,,0,-0.35872602,-0.318262637,1,0,0,1.8671,button_left_main,-0.35872602,-0.318262637,1,0,0,,0,104,104,125,1,MOOKY,LB,old,z,./images/MOOKYLB.png,,,,,,,,,,,,,,,,,,,,,,,,,,,,,,,,,
,,,,,,,,,,,,,,,,,5beb874c10ace8000183294e,33,2022-02-12_17h00.56.520,lexical_decision_task_DD_L5,2021.2.3,Linux armv8l,59.99160118,,,,,,,,,,1.2189,1,,,,,,,,,,,,,,,0,0.337948549,-0.296085098,1,0,0,1.2189,button_right_main,0.337948549,-0.296085098,1,0,0,,0,105,105,34,1,RAZOR,LB,old,m,./images/RAZORLB.png,,,,,,,,,,,,,,,,,,,,,,,,,,,,,,,,,
,,,,,,,,,,,,,,,,,5beb874c10ace8000183294e,33,2022-02-12_17h00.56.520,lexical_decision_task_DD_L5,2021.2.3,Linux armv8l,59.99160118,,,,,,,,,,1.3506,1,,,,,,,,,,,,,,,0,0.365649473,-0.333509723,1,0,0,1.3506,button_right_main,0.365649473,-0.333509723,1,0,0,,0,106,106,0,1,WALNUT,HB,old,m,./images/WALNUTHB.png,,,,,,,,,,,,,,,,,,,,,,,,,,,,,,,,,
,,,,,,,,,,,,,,,,,5beb874c10ace8000183294e,33,2022-02-12_17h00.56.520,lexical_decision_task_DD_L5,2021.2.3,Linux armv8l,59.99160118,,,,,,,,,,1.8362,1,,,,,,,,,,,,,,,0,-0.317174856,-0.333509723,1,0,0,1.8362,button_left_main,-0.317174856,-0.333509723,1,0,0,,0,107,107,164,1,SGREW,LB,old,z,./images/SGREWLB.png,,,,,,,,,,,,,,,,,,,,,,,,,,,,,,,,,
,,,,,,,,,,,,,,,,,5beb874c10ace8000183294e,33,2022-02-12_17h00.56.520,lexical_decision_task_DD_L5,2021.2.3,Linux armv8l,59.99160118,,,,,,,,,,0.8119,1,,,,,,,,,,,,,,,0,-0.36011107,-0.321034848,1,0,0,0.8119,button_left_main,-0.36011107,-0.321034848,1,0,0,,0,108,108,84,1,HAXES,C,old,z,./images/HAXES.png,,,,,,,,,,,,,,,,,,,,,,,,,,,,,,,,,
,,,,,,,,,,,,,,,,,5beb874c10ace8000183294e,33,2022-02-12_17h00.56.520,lexical_decision_task_DD_L5,2021.2.3,Linux armv8l,59.99160118,,,,,,,,,,0.8354,1,,,,,,,,,,,,,,,0,0.315787973,-0.334895754,1,0,0,0.8354,button_right_main,0.315787973,-0.334895754,1,0,0,,0,109,109,74,1,JUMPER,C,old,m,./images/JUMPER.png,,,,,,,,,,,,,,,,,,,,,,,,,,,,,,,,,
,,,,,,,,,,,,,,,,,5beb874c10ace8000183294e,33,2022-02-12_17h00.56.520,lexical_decision_task_DD_L5,2021.2.3,Linux armv8l,59.99160118,,,,,,,,,,0.755,1,,,,,,,,,,,,,,,0,-0.369806336,-0.271135349,1,0,0,0.755,button_left_main,-0.369806336,-0.271135349,1,0,0,,0,110,110,147,1,ZOLES,C,old,z,./images/ZOLES.png,,,,,,,,,,,,,,,,,,,,,,,,,,,,,,,,,
,,,,,,,,,,,,,,,,,5beb874c10ace8000183294e,33,2022-02-12_17h00.56.520,lexical_decision_task_DD_L5,2021.2.3,Linux armv8l,59.99160118,,,,,,,,,,0.7672,1,,,,,,,,,,,,,,,0,-0.362881142,-0.321034848,1,0,0,0.7672,button_left_main,-0.362881142,-0.321034848,1,0,0,,0,111,111,138,1,PLICE,C,old,z,./images/PLICE.png,,,,,,,,,,,,,,,,,,,,,,,,,,,,,,,,,
,,,,,,,,,,,,,,,,,5beb874c10ace8000183294e,33,2022-02-12_17h00.56.520,lexical_decision_task_DD_L5,2021.2.3,Linux armv8l,59.99160118,,,,,,,,,,1.0907,1,,,,,,,,,,,,,,,0,-0.340720501,-0.260046505,1,0,0,1.0907,button_left_main,-0.340720501,-0.260046505,1,0,0,,0,112,112,152,1,FRAIN,LB,old,z,./images/FRAINLB.png,,,,,,,,,,,,,,,,,,,,,,,,,,,,,,,,,
,,,,,,,,,,,,,,,,,5beb874c10ace8000183294e,33,2022-02-12_17h00.56.520,lexical_decision_task_DD_L5,2021.2.3,Linux armv8l,59.99160118,,,,,,,,,,1.1599,1,,,,,,,,,,,,,,,0,0.335178634,-0.291926708,1,0,0,1.1599,button_right_main,0.335178634,-0.291926708,1,0,0,,0,113,113,47,1,LAGOON,C,old,m,./images/LAGOON.png,,,,,,,,,,,,,,,,,,,,,,,,,,,,,,,,,
,,,,,,,,,,,,,,,,,5beb874c10ace8000183294e,33,2022-02-12_17h00.56.520,lexical_decision_task_DD_L5,2021.2.3,Linux armv8l,59.99160118,,,,,,,,,,0.8995,1,,,,,,,,,,,,,,,0,-0.371191358,-0.38063716,1,0,0,0.8995,button_left_main,-0.371191358,-0.38063716,1,0,0,,0,114,114,96,1,KEAMS,C,old,z,./images/KEAMS.png,,,,,,,,,,,,,,,,,,,,,,,,,,,,,,,,,
,,,,,,,,,,,,,,,,,5beb874c10ace8000183294e,33,2022-02-12_17h00.56.520,lexical_decision_task_DD_L5,2021.2.3,Linux armv8l,59.99160118,,,,,,,,,,0.9693,1,,,,,,,,,,,,,,,0,0.34210368,-0.348756809,1,0,0,0.9693,button_right_main,0.34210368,-0.348756809,1,0,0,,0,115,115,53,1,POSTER,C,old,m,./images/POSTER.png,,,,,,,,,,,,,,,,,,,,,,,,,,,,,,,,,
,,,,,,,,,,,,,,,,,5beb874c10ace8000183294e,33,2022-02-12_17h00.56.520,lexical_decision_task_DD_L5,2021.2.3,Linux armv8l,59.99160118,,,,,,,,,,1.9265,1,,,,,,,,,,,,,,,0,-0.332410275,-0.32657927,1,0,0,1.9265,button_left_main,-0.332410275,-0.32657927,1,0,0,,0,116,116,157,1,INLER,HB,old,z,./images/INLERHB.png,,,,,,,,,,,,,,,,,,,,,,,,,,,,,,,,,
,,,,,,,,,,,,,,,,,5beb874c10ace8000183294e,33,2022-02-12_17h00.56.520,lexical_decision_task_DD_L5,2021.2.3,Linux armv8l,59.99160118,,,,,,,,,,0.7038,1,,,,,,,,,,,,,,,0,-0.390581918,-0.309946005,1,0,0,0.7038,button_left_main,-0.390581918,-0.309946005,1,0,0,,0,117,117,162,1,LEICH,C,old,z,./images/LEICH.png,,,,,,,,,,,,,,,,,,,,,,,,,,,,,,,,,
,,,,,,,,,,,,,,,,,5beb874c10ace8000183294e,33,2022-02-12_17h00.56.520,lexical_decision_task_DD_L5,2021.2.3,Linux armv8l,59.99160118,,,,,,,,,,1.5876,0,,,,,,,,,,,,,,,0,0.292242254,-0.296085098,1,0,0,1.5876,button_right_main,0.292242254,-0.296085098,1,0,0,,0,118,118,110,1,CRUNK,LB,old,z,./images/CRUNKLB.png,,,,,,,,,,,,,,,,,,,,,,,,,,,,,,,,,
,,,,,,,,,,,,,,,,,5beb874c10ace8000183294e,33,2022-02-12_17h00.56.520,lexical_decision_task_DD_L5,2021.2.3,Linux armv8l,59.99160118,,,,,,,,,,1.1545,1,,,,,,,,,,,,,,,0,-0.387811846,-0.341826207,1,0,0,1.1545,button_left_main,-0.387811846,-0.341826207,1,0,0,,0,119,119,142,1,PLASK,HB,old,z,./images/PLASKHB.png,,,,,,,,,,,,,,,,,,,,,,,,,,,,,,,,,
,,,,,,,,,,,,,,,,,5beb874c10ace8000183294e,33,2022-02-12_17h00.56.520,lexical_decision_task_DD_L5,2021.2.3,Linux armv8l,59.99160118,,,,,,,,,,1.3046,1,,,,,,,,,,,,,,,0,0.286702128,-0.315490575,1,0,0,1.3046,button_right_main,0.286702128,-0.315490575,1,0,0,,0,120,120,22,1,CLOWN,LB,old,m,./images/CLOWNLB.png,,,,,,,,,,,,,,,,,,,,,,,,,,,,,,,,,
,,,,,,,,,,,,,,,,,5beb874c10ace8000183294e,33,2022-02-12_17h00.56.520,lexical_decision_task_DD_L5,2021.2.3,Linux armv8l,59.99160118,,,,,,,,,,1.3502,1,,,,,,,,,,,,,,,0,-0.391966968,-0.39726998,1,0,0,1.3502,button_left_main,-0.391966968,-0.39726998,1,0,0,,0,121,121,146,1,MOOST,LB,old,z,./images/MOOSTLB.png,,,,,,,,,,,,,,,,,,,,,,,,,,,,,,,,,
,,,,,,,,,,,,,,,,,5beb874c10ace8000183294e,33,2022-02-12_17h00.56.520,lexical_decision_task_DD_L5,2021.2.3,Linux armv8l,59.99160118,,,,,,,,,,1.2346,1,,,,,,,,,,,,,,,0,-0.373961458,-0.321034848,1,0,0,1.2346,button_left_main,-0.373961458,-0.321034848,1,0,0,,0,122,122,97,1,CHIDS,HB,old,z,./images/CHIDSHB.png,,,,,,,,,,,,,,,,,,,,,,,,,,,,,,,,,
,,,,,,,,,,,,,,,,,5beb874c10ace8000183294e,33,2022-02-12_17h00.56.520,lexical_decision_task_DD_L5,2021.2.3,Linux armv8l,59.99160118,,,,,,,,,,1.5513,1,,,,,,,,,,,,,,,0,0.347643954,-0.230938513,1,0,0,1.5513,button_right_main,0.347643954,-0.230938513,1,0,0,,0,123,123,69,1,ARROW,HB,old,m,./images/ARROWHB.png,,,,,,,,,,,,,,,,,,,,,,,,,,,,,,,,,
,,,,,,,,,,,,,,,,,5beb874c10ace8000183294e,33,2022-02-12_17h00.56.520,lexical_decision_task_DD_L5,2021.2.3,Linux armv8l,59.99160118,,,,,,,,,,1.9697,1,,,,,,,,,,,,,,,0,0.368419388,-0.333509723,1,0,0,1.9697,button_right_main,0.368419388,-0.333509723,1,0,0,,0,124,124,67,1,POKER,LB,old,m,./images/POKERLB.png,,,,,,,,,,,,,,,,,,,,,,,,,,,,,,,,,
,,,,,,,,,,,,,,,,,5beb874c10ace8000183294e,33,2022-02-12_17h00.56.520,lexical_decision_task_DD_L5,2021.2.3,Linux armv8l,59.99160118,,,,,,,,,,1.2165,1,,,,,,,,,,,,,,,0,-0.339335488,-0.341826207,1,0,0,1.2165,button_left_main,0.106647121,-0.354301082,1,0,0,,0,125,125,149,1,VEASE,LB,old,z,./images/VEASELB.png,break_done_button,,,,,,,,,,,,,,,,,,,,,,,,,,,,,,,,
,,,,,,,,,,,,,,,,,5beb874c10ace8000183294e,33,2022-02-12_17h00.56.520,lexical_decision_task_DD_L5,2021.2.3,Linux armv8l,59.99160118,,,,,,,,,,1.8195,1,,,,,,,,,,,,,,,0,0.34071876,-0.329351333,1,0,0,1.8195,button_right_main,0.34071876,-0.329351333,1,0,0,,0,126,126,29,1,PISTOL,C,old,m,./images/PISTOL.png,,,,,,,,,,,,,,,,,,,,,,,,,,,,,,,,,
,,,,,,,,,,,,,,,,,5beb874c10ace8000183294e,33,2022-02-12_17h00.56.520,lexical_decision_task_DD_L5,2021.2.3,Linux armv8l,59.99160118,,,,,,,,,,1.0857,1,,,,,,,,,,,,,,,0,-0.353185876,-0.319648669,1,0,0,1.0857,button_left_main,-0.353185876,-0.319648669,1,0,0,,0,127,127,122,1,BLOOT,LB,old,z,./images/BLOOTLB.png,,,,,,,,,,,,,,,,,,,,,,,,,,,,,,,,,
,,,,,,,,,,,,,,,,,5beb874c10ace8000183294e,33,2022-02-12_17h00.56.520,lexical_decision_task_DD_L5,2021.2.3,Linux armv8l,59.99160118,,,,,,,,,,1.1682,1,,,,,,,,,,,,,,,0,0.35318408,-0.340440324,1,0,0,1.1682,button_right_main,0.35318408,-0.340440324,1,0,0,,0,128,128,42,1,CHAIN,HB,old,m,./images/CHAINHB.png,,,,,,,,,,,,,,,,,,,,,,,,,,,,,,,,,
,,,,,,,,,,,,,,,,,5beb874c10ace8000183294e,33,2022-02-12_17h00.56.520,lexical_decision_task_DD_L5,2021.2.3,Linux armv8l,59.99160118,,,,,,,,,,1.3027,0,,,,,,,,,,,,,,,0,-0.335180357,-0.312718512,1,0,0,1.3027,button_left_main,-0.335180357,-0.312718512,1,0,0,,0,129,129,72,1,FLASK,HB,old,m,./images/FLASKHB.png,,,,,,,,,,,,,,,,,,,,,,,,,,,,,,,,,
,,,,,,,,,,,,,,,,,5beb874c10ace8000183294e,33,2022-02-12_17h00.56.520,lexical_decision_task_DD_L5,2021.2.3,Linux armv8l,59.99160118,,,,,,,,,,1.0328,1,,,,,,,,,,,,,,,0,-0.351800817,-0.300243637,1,0,0,1.0328,button_left_main,-0.351800817,-0.300243637,1,0,0,,0,130,130,128,1,GRIFT,LB,old,z,./images/GRIFTLB.png,,,,,,,,,,,,,,,,,,,,,,,,,,,,,,,,,
,,,,,,,,,,,,,,,,,5beb874c10ace8000183294e,33,2022-02-12_17h00.56.520,lexical_decision_task_DD_L5,2021.2.3,Linux armv8l,59.99160118,,,,,,,,,,1.0147,1,,,,,,,,,,,,,,,0,0.379499713,-0.240641325,1,0,0,1.0147,button_right_main,0.379499713,-0.240641325,1,0,0,,0,131,131,28,1,CASINO,LB,old,m,./images/CASINOLB.png,,,,,,,,,,,,,,,,,,,,,,,,,,,,,,,,,
,,,,,,,,,,,,,,,,,5beb874c10ace8000183294e,33,2022-02-12_17h00.56.520,lexical_decision_task_DD_L5,2021.2.3,Linux armv8l,59.99160118,,,,,,,,,,0.8689,1,,,,,,,,,,,,,,,0,-0.386426796,-0.332123543,1,0,0,0.8689,button_left_main,-0.386426796,-0.332123543,1,0,0,,0,132,132,109,1,BURGE,HB,old,z,./images/BURGEHB.png,,,,,,,,,,,,,,,,,,,,,,,,,,,,,,,,,
,,,,,,,,,,,,,,,,,5beb874c10ace8000183294e,33,2022-02-12_17h00.56.520,lexical_decision_task_DD_L5,2021.2.3,Linux armv8l,59.99160118,,,,,,,,,,1.7162,1,,,,,,,,,,,,,,,0,-0.368421286,-0.330737512,1,0,0,1.7162,button_left_main,-0.368421286,-0.330737512,1,0,0,,0,133,133,124,1,TUNCH,HB,old,z,./images/TUNCHHB.png,,,,,,,,,,,,,,,,,,,,,,,,,,,,,,,,,
,,,,,,,,,,,,,,,,,5beb874c10ace8000183294e,33,2022-02-12_17h00.56.520,lexical_decision_task_DD_L5,2021.2.3,Linux armv8l,59.99160118,,,,,,,,,,0.7977,1,,,,,,,,,,,,,,,0,-0.324100031,-0.287768762,1,0,0,0.7977,button_left_main,-0.324100031,-0.287768762,1,0,0,,0,134,134,126,1,GUELS,C,old,z,./images/GUELS.png,,,,,,,,,,,,,,,,,,,,,,,,,,,,,,,,,
,,,,,,,,,,,,,,,,,5beb874c10ace8000183294e,33,2022-02-12_17h00.56.520,lexical_decision_task_DD_L5,2021.2.3,Linux armv8l,59.99160118,,,,,,,,,,1.3181,1,,,,,,,,,,,,,,,0,-0.346260682,-0.293312888,1,0,0,1.3181,button_left_main,-0.346260682,-0.293312888,1,0,0,,0,135,135,150,1,NOOLS,C,old,z,./images/NOOLS.png,,,,,,,,,,,,,,,,,,,,,,,,,,,,,,,,,
,,,,,,,,,,,,,,,,,5beb874c10ace8000183294e,33,2022-02-12_17h00.56.520,lexical_decision_task_DD_L5,2021.2.3,Linux armv8l,59.99160118,,,,,,,,,,0.8078,1,,,,,,,,,,,,,,,0,-0.340720501,-0.3030157,1,0,0,0.8078,button_left_main,-0.340720501,-0.3030157,1,0,0,,0,136,136,163,1,GAMBA,HB,old,z,./images/GAMBAHB.png,,,,,,,,,,,,,,,,,,,,,,,,,,,,,,,,,
,,,,,,,,,,,,,,,,,5beb874c10ace8000183294e,33,2022-02-12_17h00.56.520,lexical_decision_task_DD_L5,2021.2.3,Linux armv8l,59.99160118,,,,,,,,,,1.6882,1,,,,,,,,,,,,,,,0,0.42382094,-0.334895754,1,0,0,1.6882,button_right_main,0.42382094,-0.334895754,1,0,0,,0,137,137,81,1,DRILL,HB,old,m,./images/DRILLHB.png,,,,,,,,,,,,,,,,,,,,,,,,,,,,,,,,,
,,,,,,,,,,,,,,,,,5beb874c10ace8000183294e,33,2022-02-12_17h00.56.520,lexical_decision_task_DD_L5,2021.2.3,Linux armv8l,59.99160118,,,,,,,,,,1.2648,1,,,,,,,,,,,,,,,0,-0.36011107,-0.287768762,1,0,0,1.2648,button_left_main,-0.36011107,-0.287768762,1,0,0,,0,138,138,143,1,MONGS,LB,old,z,./images/MONGSLB.png,,,,,,,,,,,,,,,,,,,,,,,,,,,,,,,,,
,,,,,,,,,,,,,,,,,5beb874c10ace8000183294e,33,2022-02-12_17h00.56.520,lexical_decision_task_DD_L5,2021.2.3,Linux armv8l,59.99160118,,,,,,,,,,1.5332,1,,,,,,,,,,,,,,,0,-0.321329969,-0.307173794,1,0,0,1.5332,button_left_main,-0.321329969,-0.307173794,1,0,0,,0,139,139,154,1,THINT,HB,old,z,./images/THINTHB.png,,,,,,,,,,,,,,,,,,,,,,,,,,,,,,,,,
,,,,,,,,,,,,,,,,,5beb874c10ace8000183294e,33,2022-02-12_17h00.56.520,lexical_decision_task_DD_L5,2021.2.3,Linux armv8l,59.99160118,,,,,,,,,,1.5338,1,,,,,,,,,,,,,,,0,0.346258812,-0.314104395,1,0,0,1.5338,button_right_main,0.346258812,-0.314104395,1,0,0,,0,140,140,57,1,FERRY,HB,old,m,./images/FERRYHB.png,,,,,,,,,,,,,,,,,,,,,,,,,,,,,,,,,
,,,,,,,,,,,,,,,,,5beb874c10ace8000183294e,33,2022-02-12_17h00.56.520,lexical_decision_task_DD_L5,2021.2.3,Linux armv8l,59.99160118,,,,,,,,,,0.6853,1,,,,,,,,,,,,,,,0,0.337948549,-0.266977106,1,0,0,0.6853,button_right_main,0.337948549,-0.266977106,1,0,0,,0,141,141,61,1,ARTIST,LB,old,m,./images/ARTISTLB.png,,,,,,,,,,,,,,,,,,,,,,,,,,,,,,,,,
,,,,,,,,,,,,,,,,,5beb874c10ace8000183294e,33,2022-02-12_17h00.56.520,lexical_decision_task_DD_L5,2021.2.3,Linux armv8l,59.99160118,,,,,,,,,,0.9677,1,,,,,,,,,,,,,,,0,0.34071876,-0.230938513,1,0,0,0.9677,button_right_main,0.34071876,-0.230938513,1,0,0,,0,142,142,14,1,FENCE,C,old,m,./images/FENCE.png,,,,,,,,,,,,,,,,,,,,,,,,,,,,,,,,,
,,,,,,,,,,,,,,,,,5beb874c10ace8000183294e,33,2022-02-12_17h00.56.520,lexical_decision_task_DD_L5,2021.2.3,Linux armv8l,59.99160118,,,,,,,,,,0.8134,1,,,,,,,,,,,,,,,0,-0.386426796,-0.362617567,1,0,0,0.8134,button_left_main,-0.386426796,-0.362617567,1,0,0,,0,143,143,119,1,PAFER,LB,old,z,./images/PAFERLB.png,,,,,,,,,,,,,,,,,,,,,,,,,,,,,,,,,
,,,,,,,,,,,,,,,,,5beb874c10ace8000183294e,33,2022-02-12_17h00.56.520,lexical_decision_task_DD_L5,2021.2.3,Linux armv8l,59.99160118,,,,,,,,,,1.1659,1,,,,,,,,,,,,,,,0,0.364264257,-0.325193387,1,0,0,1.1659,button_right_main,0.364264257,-0.325193387,1,0,0,,0,144,144,51,1,SAUCE,HB,old,m,./images/SAUCEHB.png,,,,,,,,,,,,,,,,,,,,,,,,,,,,,,,,,
,,,,,,,,,,,,,,,,,5beb874c10ace8000183294e,33,2022-02-12_17h00.56.520,lexical_decision_task_DD_L5,2021.2.3,Linux armv8l,59.99160118,,,,,,,,,,1.5024,1,,,,,,,,,,,,,,,0,-0.344875632,-0.341826207,1,0,0,1.5024,button_left_main,-0.344875632,-0.341826207,1,0,0,,0,145,145,90,1,NEAST,C,old,z,./images/NEAST.png,,,,,,,,,,,,,,,,,,,,,,,,,,,,,,,,,
,,,,,,,,,,,,,,,,,5beb874c10ace8000183294e,33,2022-02-12_17h00.56.520,lexical_decision_task_DD_L5,2021.2.3,Linux armv8l,59.99160118,,,,,,,,,,1.1045,1,,,,,,,,,,,,,,,0,0.390580187,-0.352915199,1,0,0,1.1045,button_right_main,0.390580187,-0.352915199,1,0,0,,0,146,146,48,1,SHIELD,HB,old,m,./images/SHIELDHB.png,,,,,,,,,,,,,,,,,,,,,,,,,,,,,,,,,
,,,,,,,,,,,,,,,,,5beb874c10ace8000183294e,33,2022-02-12_17h00.56.520,lexical_decision_task_DD_L5,2021.2.3,Linux armv8l,59.99160118,,,,,,,,,,1.071,1,,,,,,,,,,,,,,,0,-0.37673153,-0.315490575,1,0,0,1.071,button_left_main,-0.37673153,-0.315490575,1,0,0,,0,147,147,153,1,CLUPS,C,old,z,./images/CLUPS.png,,,,,,,,,,,,,,,,,,,,,,,,,,,,,,,,,
,,,,,,,,,,,,,,,,,5beb874c10ace8000183294e,33,2022-02-12_17h00.56.520,lexical_decision_task_DD_L5,2021.2.3,Linux armv8l,59.99160118,,,,,,,,,,1.0487,1,,,,,,,,,,,,,,,0,0.400275369,-0.316876458,1,0,0,1.0487,button_right_main,0.400275369,-0.316876458,1,0,0,,0,148,148,20,1,GRANNY,C,old,m,./images/GRANNY.png,,,,,,,,,,,,,,,,,,,,,,,,,,,,,,,,,
,,,,,,,,,,,,,,,,,5beb874c10ace8000183294e,33,2022-02-12_17h00.56.520,lexical_decision_task_DD_L5,2021.2.3,Linux armv8l,59.99160118,,,,,,,,,,1.7187,1,,,,,,,,,,,,,,,0,0.393350101,-0.287768762,1,0,0,1.7187,button_right_main,0.393350101,-0.287768762,1,0,0,,0,149,149,75,1,HAMMER,HB,old,m,./images/HAMMERHB.png,,,,,,,,,,,,,,,,,,,,,,,,,,,,,,,,,
,,,,,,,,,,,,,,,,,5beb874c10ace8000183294e,33,2022-02-12_17h00.56.520,lexical_decision_task_DD_L5,2021.2.3,Linux armv8l,59.99160118,,,,,,,,,,0.9196,1,,,,,,,,,,,,,,,0,-0.361496092,-0.280838013,1,0,0,0.9196,button_left_main,-0.361496092,-0.280838013,1,0,0,,0,150,150,156,1,HIXES,C,old,z,./images/HIXES.png,,,,,,,,,,,,,,,,,,,,,,,,,,,,,,,,,
,,,,,,,,,,,,,,,,,5beb874c10ace8000183294e,33,2022-02-12_17h00.56.520,lexical_decision_task_DD_L5,2021.2.3,Linux armv8l,59.99160118,,,,,,,,,,1.6558,1,,,,,,,,,,,,,,,0,0.315787973,-0.334895754,1,0,0,1.6558,button_right_main,0.315787973,-0.334895754,1,0,0,,0,151,151,3,1,CRATER,HB,old,m,./images/CRATERHB.png,,,,,,,,,,,,,,,,,,,,,,,,,,,,,,,,,
,,,,,,,,,,,,,,,,,5beb874c10ace8000183294e,33,2022-02-12_17h00.56.520,lexical_decision_task_DD_L5,2021.2.3,Linux armv8l,59.99160118,,,,,,,,,,1.2026,1,,,,,,,,,,,,,,,0,0.346258812,-0.296085098,1,0,0,1.2026,button_right_main,0.346258812,-0.296085098,1,0,0,,0,152,152,24,1,FLESH,HB,old,m,./images/FLESHHB.png,,,,,,,,,,,,,,,,,,,,,,,,,,,,,,,,,
,,,,,,,,,,,,,,,,,5beb874c10ace8000183294e,33,2022-02-12_17h00.56.520,lexical_decision_task_DD_L5,2021.2.3,Linux armv8l,59.99160118,,,,,,,,,,1.8075,1,,,,,,,,,,,,,,,0,0.331023503,-0.298857457,1,0,0,1.8075,button_right_main,0.331023503,-0.298857457,1,0,0,,0,153,153,36,1,BOILER,HB,old,m,./images/BOILERHB.png,,,,,,,,,,,,,,,,,,,,,,,,,,,,,,,,,
,,,,,,,,,,,,,,,,,5beb874c10ace8000183294e,33,2022-02-12_17h00.56.520,lexical_decision_task_DD_L5,2021.2.3,Linux armv8l,59.99160118,,,,,,,,,,1.3981,0,,,,,,,,,,,,,,,0,0.350413943,-0.343212535,1,0,0,1.3981,button_right_main,0.350413943,-0.343212535,1,0,0,,0,154,154,159,1,CUDDY,C,old,z,./images/CUDDY.png,,,,,,,,,,,,,,,,,,,,,,,,,,,,,,,,,
,,,,,,,,,,,,,,,,,5beb874c10ace8000183294e,33,2022-02-12_17h00.56.520,lexical_decision_task_DD_L5,2021.2.3,Linux armv8l,59.99160118,,,,,,,,,,0.6542,1,,,,,,,,,,,,,,,0,-0.37534648,-0.296085098,1,0,0,0.6542,button_left_main,-0.37534648,-0.296085098,1,0,0,,0,155,155,95,1,HANTY,LB,old,z,./images/HANTYLB.png,,,,,,,,,,,,,,,,,,,,,,,,,,,,,,,,,
,,,,,,,,,,,,,,,,,5beb874c10ace8000183294e,33,2022-02-12_17h00.56.520,lexical_decision_task_DD_L5,2021.2.3,Linux armv8l,59.99160118,,,,,,,,,,2.0748,1,,,,,,,,,,,,,,,0,-0.342105551,-0.3030157,1,0,0,2.0748,button_left_main,-0.342105551,-0.3030157,1,0,0,,0,156,156,130,1,CRILL,HB,old,z,./images/CRILLHB.png,,,,,,,,,,,,,,,,,,,,,,,,,,,,,,,,,
,,,,,,,,,,,,,,,,,5beb874c10ace8000183294e,33,2022-02-12_17h00.56.520,lexical_decision_task_DD_L5,2021.2.3,Linux armv8l,59.99160118,,,,,,,,,,0.7011,1,,,,,,,,,,,,,,,0,0.339333692,-0.345984598,1,0,0,0.7011,button_right_main,0.339333692,-0.345984598,1,0,0,,0,157,157,44,1,BASKET,C,old,m,./images/BASKET.png,,,,,,,,,,,,,,,,,,,,,,,,,,,,,,,,,
,,,,,,,,,,,,,,,,,5beb874c10ace8000183294e,33,2022-02-12_17h00.56.520,lexical_decision_task_DD_L5,2021.2.3,Linux armv8l,59.99160118,,,,,,,,,,1.496,1,,,,,,,,,,,,,,,0,-0.329640213,-0.361231684,1,0,0,1.496,button_left_main,-0.329640213,-0.361231684,1,0,0,,0,158,158,117,1,STEEG,C,old,z,./images/STEEG.png,,,,,,,,,,,,,,,,,,,,,,,,,,,,,,,,,
,,,,,,,,,,,,,,,,,5beb874c10ace8000183294e,33,2022-02-12_17h00.56.520,lexical_decision_task_DD_L5,2021.2.3,Linux armv8l,59.99160118,,,,,,,,,,1.5684,1,,,,,,,,,,,,,,,0,-0.318559869,-0.286382583,1,0,0,1.5684,button_left_main,-0.318559869,-0.286382583,1,0,0,,0,159,159,108,1,GRUET,C,old,z,./images/GRUET.png,,,,,,,,,,,,,,,,,,,,,,,,,,,,,,,,,
,,,,,,,,,,,,,,,,,5beb874c10ace8000183294e,33,2022-02-12_17h00.56.520,lexical_decision_task_DD_L5,2021.2.3,Linux armv8l,59.99160118,,,,,,,,,,1.5489,1,,,,,,,,,,,,,,,0,-0.332410275,-0.296085098,1,0,0,1.5489,button_left_main,-0.332410275,-0.296085098,1,0,0,,0,160,160,139,1,BLEAR,HB,old,z,./images/BLEARHB.png,,,,,,,,,,,,,,,,,,,,,,,,,,,,,,,,,
,,,,,,,,,,,,,,,,,5beb874c10ace8000183294e,33,2022-02-12_17h00.56.520,lexical_decision_task_DD_L5,2021.2.3,Linux armv8l,59.99160118,,,,,,,,,,1.6154,1,,,,,,,,,,,,,,,0,-0.380886652,-0.332123543,1,0,0,1.6154,button_left_main,-0.380886652,-0.332123543,1,0,0,,0,161,161,121,1,CEERS,HB,old,z,./images/CEERSHB.png,,,,,,,,,,,,,,,,,,,,,,,,,,,,,,,,,
,,,,,,,,,,,,,,,,,5beb874c10ace8000183294e,33,2022-02-12_17h00.56.520,lexical_decision_task_DD_L5,2021.2.3,Linux armv8l,59.99160118,,,,,,,,,,1.0324,1,,,,,,,,,,,,,,,0,0.373959662,-0.344598418,1,0,0,1.0324,button_right_main,0.373959662,-0.344598418,1,0,0,,0,162,162,43,1,STOOL,LB,old,m,./images/STOOLLB.png,,,,,,,,,,,,,,,,,,,,,,,,,,,,,,,,,
,,,,,,,,,,,,,,,,,5beb874c10ace8000183294e,33,2022-02-12_17h00.56.520,lexical_decision_task_DD_L5,2021.2.3,Linux armv8l,59.99160118,,,,,,,,,,2.0268,1,,,,,,,,,,,,,,,0,-0.364266164,-0.298857457,1,0,0,2.0268,button_left_main,-0.364266164,-0.298857457,1,0,0,,0,163,163,161,1,BLAPS,LB,old,z,./images/BLAPSLB.png,,,,,,,,,,,,,,,,,,,,,,,,,,,,,,,,,
,,,,,,,,,,,,,,,,,5beb874c10ace8000183294e,33,2022-02-12_17h00.56.520,lexical_decision_task_DD_L5,2021.2.3,Linux armv8l,59.99160118,,,,,,,,,,1.3892,0,,,,,,,,,,,,,,,0,-0.344875632,-0.266977106,1,0,0,1.3892,button_left_main,-0.344875632,-0.266977106,1,0,0,,0,164,164,12,1,BLOKE,HB,old,m,./images/BLOKEHB.png,,,,,,,,,,,,,,,,,,,,,,,,,,,,,,,,,
,,,,,,,,,,,,,,,,,5beb874c10ace8000183294e,33,2022-02-12_17h00.56.520,lexical_decision_task_DD_L5,2021.2.3,Linux armv8l,59.99160118,,,,,,,,,,1.6988,1,,,,,,,,,,,,,,,0,-0.337950419,-0.300243637,1,0,0,1.6988,button_left_main,-0.337950419,-0.300243637,1,0,0,,0,165,165,104,1,GITTY,LB,old,z,./images/GITTYLB.png,,,,,,,,,,,,,,,,,,,,,,,,,,,,,,,,,
,,,,,,,,,,,,,,,,,5beb874c10ace8000183294e,33,2022-02-12_17h00.56.520,lexical_decision_task_DD_L5,2021.2.3,Linux armv8l,59.99160118,,,,,,,,,,0.6943,1,,,,,,,,,,,,,,,0,0.357339211,-0.312718512,1,0,0,0.6943,button_right_main,0.357339211,-0.312718512,1,0,0,,0,166,166,13,1,BUNNY,LB,old,m,./images/BUNNYLB.png,,,,,,,,,,,,,,,,,,,,,,,,,,,,,,,,,
,,,,,,,,,,,,,,,,,5beb874c10ace8000183294e,33,2022-02-12_17h00.56.520,lexical_decision_task_DD_L5,2021.2.3,Linux armv8l,59.99160118,,,,,,,,,,2.4024,1,,,,,,,,,,,,,,,0,0.390580187,-0.289154645,1,0,0,2.4024,button_right_main,0.390580187,-0.289154645,1,0,0,,0,167,167,21,1,DANCER,HB,old,m,./images/DANCERHB.png,,,,,,,,,,,,,,,,,,,,,,,,,,,,,,,,,
,,,,,,,,,,,,,,,,,5beb874c10ace8000183294e,33,2022-02-12_17h00.56.520,lexical_decision_task_DD_L5,2021.2.3,Linux armv8l,59.99160118,,,,,,,,,,,,,,,,,,,,,,,,,,,,,,,,,,,,,,,,,,,,,,How likely will it be that you will recognize the words presented very blurred on a scale of 0 (not likely) to 100 (most likely)?,,,,,-0.004156057,-0.409744855,1,0,0,jol_adv,5,9.1986,0,0,0,2,1,,,,,,,,,,,,,,,,,,,
,,,,,,,,,,,,,,,,,5beb874c10ace8000183294e,33,2022-02-12_17h00.56.520,lexical_decision_task_DD_L5,2021.2.3,Linux armv8l,59.99160118,,,,,,,,,,,,,,,,,,,,,,,,,,,,,,,,,,,,,,,,,,,,,,How likely will it be that you will recognize the words presented slighly blurred on a scale of 0 (not likely) to 100 (most likely)?,,,,,,,,,,,3,1.4749,0,1,1,1,1,,,,,,,,,,,,,,,,,,,
,,,,,,,,,,,,,,,,,5beb874c10ace8000183294e,33,2022-02-12_17h00.56.520,lexical_decision_task_DD_L5,2021.2.3,Linux armv8l,59.99160118,,,,,,,,,,,,,,,,,,,,,,,,,,,,,,,,,,,,,,,,,,,,,,How likely will it be that you will recognize the words presented clearly on a scale of 0 (not likely) to 100 (most likely)?,,,,,,,,,,,4,0.8894,0,2,2,0,1,,,,,,,,,,,,,,,,,,,
,-0.040166984,-0.411131183,1,0,0,instr_done_button,,,,,,1,test,"In the next phase you will be presented with the words from the the first phase. Your job is to decide whether you remember seeing the word or not. If you remember seeing the word press ""old"" or type ""m"". If you do not remember seeing the word press ""new"" or type ""z"". Please press the space bar or click on continue to begin. ",,,5beb874c10ace8000183294e,33,2022-02-12_17h00.56.520,lexical_decision_task_DD_L5,2021.2.3,Linux armv8l,59.99160118,,,,,,,,,,,,,,,,,,,,,,,,,,,,,,,,,,,,,,,,,,,,,,,,,,,,,,,,,,,,,,,,0,0,0,0,1,,,,,,,,,,,,,,
,0.051245569,-0.386181433,1,0,0,instr_done_button,,,,,,1,test,"In the next phase you will be presented with the words from the the first phase. Your job is to decide whether you remember seeing the word or not. If you remember seeing the word press ""old"" or type ""m"". If you do not remember seeing the word press ""new"" or type ""z"". Please press the space bar or click on continue to begin. ",,,5beb874c10ace8000183294e,33,2022-02-12_17h00.56.520,lexical_decision_task_DD_L5,2021.2.3,Linux armv8l,59.99160118,,,,,,,,,,,,,,,,,,,,,,,,,,,,,,,,,,,,,,,,,,,,,,,,,,,,,,,,,,,,,,,,1,0,1,0,1,,,,,,,,,,,,,,
,0.054015632,-0.398656308,1,0,0,instr_done_button,,,,,,1,test,"In the next phase you will be presented with the words from the the first phase. Your job is to decide whether you remember seeing the word or not. If you remember seeing the word press ""old"" or type ""m"". If you do not remember seeing the word press ""new"" or type ""z"". Please press the space bar or click on continue to begin. ",,,5beb874c10ace8000183294e,33,2022-02-12_17h00.56.520,lexical_decision_task_DD_L5,2021.2.3,Linux armv8l,59.99160118,,,,,,,,,,,,,,,,,,,,,,,,,,,,,,,,,,,,,,,,,,,,,,,,,,,,,,,,,,,,,,,,2,0,2,0,1,,,,,,,,,,,,,,
,0.006924305,-0.419447667,1,0,0,instr_done_button,,,,,,1,test,"In the next phase you will be presented with the words from the the first phase. Your job is to decide whether you remember seeing the word or not. If you remember seeing the word press ""old"" or type ""m"". If you do not remember seeing the word press ""new"" or type ""z"". Please press the space bar or click on continue to begin. ",,,5beb874c10ace8000183294e,33,2022-02-12_17h00.56.520,lexical_decision_task_DD_L5,2021.2.3,Linux armv8l,59.99160118,,,,,,,,,,,,,,,,,,,,,,,,,,,,,,,,,,,,,,,,,,,,,,,,,,,,,,,,,,,,,,,,3,0,3,0,1,,,,,,,,,,,,,,
,-0.020776471,-0.393112034,1,0,0,instr_done_button,,,,,,1,test,"In the next phase you will be presented with the words from the the first phase. Your job is to decide whether you remember seeing the word or not. If you remember seeing the word press ""old"" or type ""m"". If you do not remember seeing the word press ""new"" or type ""z"". Please press the space bar or click on continue to begin. ",,,5beb874c10ace8000183294e,33,2022-02-12_17h00.56.520,lexical_decision_task_DD_L5,2021.2.3,Linux armv8l,59.99160118,,,,,,,,,,,,,,,,,,,,,,,,,,,,,,,,,,,,,,,,,,,,,,,,,,,,,,,,,,,,,,,,4,0,4,0,1,,,,,,,,,,,,,,
,,,,,,,,,,,,,,,,,5beb874c10ace8000183294e,33,2022-02-12_17h00.56.520,lexical_decision_task_DD_L5,2021.2.3,Linux armv8l,59.99160118,,,,,,,,,,3.3256,1,,,,,,,,,,,,,,,,,,,,,,,-0.300554368,-0.214305396,1,0,0,,,,,,,FALCON,LB,z,y,./images/FALCONLB.png,,,,,,,,,,,,,,,,,,,,,0,-0.300554368,-0.214305396,1,0,0,3.3256,button_left_test,0,0,0,112,1
,,,,,,,,,,,,,,,,,5beb874c10ace8000183294e,33,2022-02-12_17h00.56.520,lexical_decision_task_DD_L5,2021.2.3,Linux armv8l,59.99160118,,,,,,,,,,3.0895,0,,,,,,,,,,,,,,,,,,,,,,,-0.324100031,-0.273907708,1,0,0,,,,,,,BAKER,HB,m,y,./images/BAKERHB.png,,,,,,,,,,,,,,,,,,,,,0,-0.324100031,-0.273907708,1,0,0,3.0895,button_left_test,0,1,1,63,1
,,,,,,,,,,,,,,,,,5beb874c10ace8000183294e,33,2022-02-12_17h00.56.520,lexical_decision_task_DD_L5,2021.2.3,Linux armv8l,59.99160118,,,,,,,,,,0.3948,0,,,,,,,,,,,,,,,,,,,,,,,0.275621951,-0.305787762,1,0,0,,,,,,,SPORT,HB,z,y,./images/SPORTHB.png,,,,,,,,,,,,,,,,,,,,,0,0.275621951,-0.305787762,1,0,0,0.3948,button_right_test,0,2,2,132,1
,,,,,,,,,,,,,,,,,5beb874c10ace8000183294e,33,2022-02-12_17h00.56.520,lexical_decision_task_DD_L5,2021.2.3,Linux armv8l,59.99160118,,,,,,,,,,1.6137,1,,,,,,,,,,,,,,,,,,,,,,,0.391965107,-0.279451833,1,0,0,,,,,,,BOILER,HB,m,y,./images/BOILERHB.png,,,,,,,,,,,,,,,,,,,,,0,0.391965107,-0.279451833,1,0,0,1.6137,button_right_test,0,3,3,36,1
,,,,,,,,,,,,,,,,,5beb874c10ace8000183294e,33,2022-02-12_17h00.56.520,lexical_decision_task_DD_L5,2021.2.3,Linux armv8l,59.99160118,,,,,,,,,,3.6665,0,,,,,,,,,,,,,,,,,,,,,,,0.335178634,-0.315490575,1,0,0,,,,,,,CANYON,LB,z,y,./images/CANYONLB.png,,,,,,,,,,,,,,,,,,,,,0,0.335178634,-0.315490575,1,0,0,3.6665,button_right_test,0,4,4,118,1
,,,,,,,,,,,,,,,,,5beb874c10ace8000183294e,33,2022-02-12_17h00.56.520,lexical_decision_task_DD_L5,2021.2.3,Linux armv8l,59.99160118,,,,,,,,,,0.6842,0,,,,,,,,,,,,,,,,,,,,,,,0.333793418,-0.323807207,1,0,0,,,,,,,BONNET,C,z,y,./images/BONNET.png,,,,,,,,,,,,,,,,,,,,,0,0.333793418,-0.323807207,1,0,0,0.6842,button_right_test,0,5,5,95,1
,,,,,,,,,,,,,,,,,5beb874c10ace8000183294e,33,2022-02-12_17h00.56.520,lexical_decision_task_DD_L5,2021.2.3,Linux armv8l,59.99160118,,,,,,,,,,1.3605,1,,,,,,,,,,,,,,,,,,,,,,,-0.365651214,-0.29747113,1,0,0,,,,,,,PEACH,C,z,y,./images/PEACH.png,,,,,,,,,,,,,,,,,,,,,0,-0.365651214,-0.29747113,1,0,0,1.3605,button_left_test,0,6,6,119,1
,,,,,,,,,,,,,,,,,5beb874c10ace8000183294e,33,2022-02-12_17h00.56.520,lexical_decision_task_DD_L5,2021.2.3,Linux armv8l,59.99160118,,,,,,,,,,1.1963,0,,,,,,,,,,,,,,,,,,,,,,,0.354569074,-0.32657927,1,0,0,,,,,,,SNACK,LB,z,y,./images/SNACKLB.png,,,,,,,,,,,,,,,,,,,,,0,0.354569074,-0.32657927,1,0,0,1.1963,button_right_test,0,7,7,157,1
,,,,,,,,,,,,,,,,,5beb874c10ace8000183294e,33,2022-02-12_17h00.56.520,lexical_decision_task_DD_L5,2021.2.3,Linux armv8l,59.99160118,,,,,,,,,,0.4797,0,,,,,,,,,,,,,,,,,,,,,,,-0.332410275,-0.257274443,1,0,0,,,,,,,LAGOON,C,m,y,./images/LAGOON.png,,,,,,,,,,,,,,,,,,,,,0,0.362879262,-0.193513889,1,0,0,0.4797,button_left_test,0,8,8,47,1
,,,,,,,,,,,,,,,,,5beb874c10ace8000183294e,33,2022-02-12_17h00.56.520,lexical_decision_task_DD_L5,2021.2.3,Linux armv8l,59.99160118,,,,,,,,,,0.4446,1,,,,,,,,,,,,,,,,,,,,,,,-0.344875632,-0.2531162,1,0,0,,,,,,,POODLE,HB,z,y,./images/POODLEHB.png,,,,,,,,,,,,,,,,,,,,,0,-0.344875632,-0.2531162,1,0,0,0.4446,button_left_test,0,9,9,165,1
,,,,,,,,,,,,,,,,,5beb874c10ace8000183294e,33,2022-02-12_17h00.56.520,lexical_decision_task_DD_L5,2021.2.3,Linux armv8l,59.99160118,,,,,,,,,,0.8307,1,,,,,,,,,,,,,,,,,,,,,,,-0.278393736,-0.27667977,1,0,0,,,,,,,TULIP,C,z,y,./images/TULIP.png,,,,,,,,,,,,,,,,,,,,,0,-0.278393736,-0.27667977,1,0,0,0.8307,button_left_test,0,10,10,92,1
,,,,,,,,,,,,,,,,,5beb874c10ace8000183294e,33,2022-02-12_17h00.56.520,lexical_decision_task_DD_L5,2021.2.3,Linux armv8l,59.99160118,,,,,,,,,,1.0967,1,,,,,,,,,,,,,,,,,,,,,,,-0.339335488,-0.366775957,1,0,0,,,,,,,RHINO,HB,z,y,./images/RHINOHB.png,,,,,,,,,,,,,,,,,,,,,0,-0.339335488,-0.366775957,1,0,0,1.0967,button_left_test,0,11,11,93,1
,,,,,,,,,,,,,,,,,5beb874c10ace8000183294e,33,2022-02-12_17h00.56.520,lexical_decision_task_DD_L5,2021.2.3,Linux armv8l,59.99160118,,,,,,,,,,1.4286,1,,,,,,,,,,,,,,,,,,,,,,,0.315787973,-0.298857457,1,0,0,,,,,,,ENGINE,C,m,y,./images/ENGINE.png,,,,,,,,,,,,,,,,,,,,,0,0.315787973,-0.298857457,1,0,0,1.4286,button_right_test,0,12,12,38,1
,,,,,,,,,,,,,,,,,5beb874c10ace8000183294e,33,2022-02-12_17h00.56.520,lexical_decision_task_DD_L5,2021.2.3,Linux armv8l,59.99160118,,,,,,,,,,0.384,1,,,,,,,,,,,,,,,,,,,,,,,0.328253366,-0.368162285,1,0,0,,,,,,,BUNNY,LB,m,y,./images/BUNNYLB.png,,,,,,,,,,,,,,,,,,,,,0,0.328253366,-0.368162285,1,0,0,0.384,button_right_test,0,13,13,13,1
,,,,,,,,,,,,,,,,,5beb874c10ace8000183294e,33,2022-02-12_17h00.56.520,lexical_decision_task_DD_L5,2021.2.3,Linux armv8l,59.99160118,,,,,,,,,,0.297,0,,,,,,,,,,,,,,,,,,,,,,,0.336563629,-0.29747113,1,0,0,,,,,,,MIRROR,HB,z,y,./images/MIRRORHB.png,,,,,,,,,,,,,,,,,,,,,0,0.336563629,-0.29747113,1,0,0,0.297,button_right_test,0,14,14,147,1
,,,,,,,,,,,,,,,,,5beb874c10ace8000183294e,33,2022-02-12_17h00.56.520,lexical_decision_task_DD_L5,2021.2.3,Linux armv8l,59.99160118,,,,,,,,,,0.3799,0,,,,,,,,,,,,,,,,,,,,,,,0.311632842,-0.311332332,1,0,0,,,,,,,FARMER,C,z,y,./images/FARMER.png,,,,,,,,,,,,,,,,,,,,,0,0.311632842,-0.311332332,1,0,0,0.3799,button_right_test,0,15,15,149,1
,,,,,,,,,,,,,,,,,5beb874c10ace8000183294e,33,2022-02-12_17h00.56.520,lexical_decision_task_DD_L5,2021.2.3,Linux armv8l,59.99160118,,,,,,,,,,0.3461,1,,,,,,,,,,,,,,,,,,,,,,,0.270081677,-0.336282082,1,0,0,,,,,,,FERRY,HB,m,y,./images/FERRYHB.png,,,,,,,,,,,,,,,,,,,,,0,0.270081677,-0.336282082,1,0,0,0.3461,button_right_test,0,16,16,57,1
,,,,,,,,,,,,,,,,,5beb874c10ace8000183294e,33,2022-02-12_17h00.56.520,lexical_decision_task_DD_L5,2021.2.3,Linux armv8l,59.99160118,,,,,,,,,,0.2285,0,,,,,,,,,,,,,,,,,,,,,,,-0.379501602,-0.35568741,1,0,0,,,,,,,WALNUT,HB,m,y,./images/WALNUTHB.png,,,,,,,,,,,,,,,,,,,,,0,-0.379501602,-0.35568741,1,0,0,0.2285,button_left_test,0,17,17,0,1
,,,,,,,,,,,,,,,,,5beb874c10ace8000183294e,33,2022-02-12_17h00.56.520,lexical_decision_task_DD_L5,2021.2.3,Linux armv8l,59.99160118,,,,,,,,,,0.3447,1,,,,,,,,,,,,,,,,,,,,,,,-0.335180357,-0.298857457,1,0,0,,,,,,,SAILOR,LB,z,y,./images/SAILORLB.png,,,,,,,,,,,,,,,,,,,,,0,-0.335180357,-0.298857457,1,0,0,0.3447,button_left_test,0,18,18,151,1
,,,,,,,,,,,,,,,,,5beb874c10ace8000183294e,33,2022-02-12_17h00.56.520,lexical_decision_task_DD_L5,2021.2.3,Linux armv8l,59.99160118,,,,,,,,,,0.3647,1,,,,,,,,,,,,,,,,,,,,,,,-0.310249643,-0.339054145,1,0,0,,,,,,,CANDLE,LB,z,y,./images/CANDLELB.png,,,,,,,,,,,,,,,,,,,,,0,-0.310249643,-0.339054145,1,0,0,0.3647,button_left_test,0,19,19,145,1
,,,,,,,,,,,,,,,,,5beb874c10ace8000183294e,33,2022-02-12_17h00.56.520,lexical_decision_task_DD_L5,2021.2.3,Linux armv8l,59.99160118,,,,,,,,,,0.4805,1,,,,,,,,,,,,,,,,,,,,,,,-0.21468194,-0.217077607,1,0,0,,,,,,,CRUMB,C,z,y,./images/CRUMB.png,,,,,,,,,,,,,,,,,,,,,0,-0.21468194,-0.217077607,1,0,0,0.4805,button_left_test,0,20,20,113,1
,,,,,,,,,,,,,,,,,5beb874c10ace8000183294e,33,2022-02-12_17h00.56.520,lexical_decision_task_DD_L5,2021.2.3,Linux armv8l,59.99160118,,,,,,,,,,0.1252,1,,,,,,,,,,,,,,,,,,,,,,,-0.36011107,-0.261432833,1,0,0,,,,,,,WEASEL,C,z,y,./images/WEASEL.png,,,,,,,,,,,,,,,,,,,,,0,-0.36011107,-0.261432833,1,0,0,0.1252,button_left_test,0,21,21,164,1
,,,,,,,,,,,,,,,,,5beb874c10ace8000183294e,33,2022-02-12_17h00.56.520,lexical_decision_task_DD_L5,2021.2.3,Linux armv8l,59.99160118,,,,,,,,,,1.5657,1,,,,,,,,,,,,,,,,,,,,,,,0.32548323,-0.354301082,1,0,0,,,,,,,PLANET,C,m,y,./images/PLANET.png,,,,,,,,,,,,,,,,,,,,,0,0.32548323,-0.354301082,1,0,0,1.5657,button_right_test,0,22,22,80,1
,,,,,,,,,,,,,,,,,5beb874c10ace8000183294e,33,2022-02-12_17h00.56.520,lexical_decision_task_DD_L5,2021.2.3,Linux armv8l,59.99160118,,,,,,,,,,0.9969,0,,,,,,,,,,,,,,,,,,,,,,,0.343488823,-0.336282082,1,0,0,,,,,,,STRING,C,z,y,./images/STRING.png,,,,,,,,,,,,,,,,,,,,,0,0.343488823,-0.336282082,1,0,0,0.9969,button_right_test,0,23,23,125,1
,,,,,,,,,,,,,,,,,5beb874c10ace8000183294e,33,2022-02-12_17h00.56.520,lexical_decision_task_DD_L5,2021.2.3,Linux armv8l,59.99160118,,,,,,,,,,0.7776,1,,,,,,,,,,,,,,,,,,,,,,,0.361494342,-0.266977106,1,0,0,,,,,,,ARROW,HB,m,y,./images/ARROWHB.png,,,,,,,,,,,,,,,,,,,,,0,0.361494342,-0.266977106,1,0,0,0.7776,button_right_test,0,24,24,69,1
,,,,,,,,,,,,,,,,,5beb874c10ace8000183294e,33,2022-02-12_17h00.56.520,lexical_decision_task_DD_L5,2021.2.3,Linux armv8l,59.99160118,,,,,,,,,,1.151,1,,,,,,,,,,,,,,,,,,,,,,,-0.362881142,-0.29747113,1,0,0,,,,,,,SUNSET,LB,z,y,./images/SUNSETLB.png,,,,,,,,,,,,,,,,,,,,,0,-0.362881142,-0.29747113,1,0,0,1.151,button_left_test,0,25,25,166,1
,,,,,,,,,,,,,,,,,5beb874c10ace8000183294e,33,2022-02-12_17h00.56.520,lexical_decision_task_DD_L5,2021.2.3,Linux armv8l,59.99160118,,,,,,,,,,0.6972,1,,,,,,,,,,,,,,,,,,,,,,,0.331023503,-0.323807207,1,0,0,,,,,,,MUMMY,LB,m,y,./images/MUMMYLB.png,,,,,,,,,,,,,,,,,,,,,0,0.331023503,-0.323807207,1,0,0,0.6972,button_right_test,0,26,26,46,1
,,,,,,,,,,,,,,,,,5beb874c10ace8000183294e,33,2022-02-12_17h00.56.520,lexical_decision_task_DD_L5,2021.2.3,Linux armv8l,59.99160118,,,,,,,,,,1.1996,1,,,,,,,,,,,,,,,,,,,,,,,0.32548323,-0.332123543,1,0,0,,,,,,,SAUCE,HB,m,y,./images/SAUCEHB.png,,,,,,,,,,,,,,,,,,,,,0,0.32548323,-0.332123543,1,0,0,1.1996,button_right_test,0,27,27,51,1
,,,,,,,,,,,,,,,,,5beb874c10ace8000183294e,33,2022-02-12_17h00.56.520,lexical_decision_task_DD_L5,2021.2.3,Linux armv8l,59.99160118,,,,,,,,,,1.0818,1,,,,,,,,,,,,,,,,,,,,,,,0.339333692,-0.332123543,1,0,0,,,,,,,BROOM,HB,m,y,./images/BROOMHB.png,,,,,,,,,,,,,,,,,,,,,0,0.339333692,-0.332123543,1,0,0,1.0818,button_right_test,0,28,28,78,1
,,,,,,,,,,,,,,,,,5beb874c10ace8000183294e,33,2022-02-12_17h00.56.520,lexical_decision_task_DD_L5,2021.2.3,Linux armv8l,59.99160118,,,,,,,,,,1.2175,1,,,,,,,,,,,,,,,,,,,,,,,0.339333692,-0.300243637,1,0,0,,,,,,,LLAMA,C,m,y,./images/LLAMA.png,,,,,,,,,,,,,,,,,,,,,0,0.339333692,-0.300243637,1,0,0,1.2175,button_right_test,0,29,29,35,1
,,,,,,,,,,,,,,,,,5beb874c10ace8000183294e,33,2022-02-12_17h00.56.520,lexical_decision_task_DD_L5,2021.2.3,Linux armv8l,59.99160118,,,,,,,,,,0.7742,1,,,,,,,,,,,,,,,,,,,,,,,0.324098235,-0.286382583,1,0,0,,,,,,,WAGON,LB,m,y,./images/WAGONLB.png,,,,,,,,,,,,,,,,,,,,,0,0.324098235,-0.286382583,1,0,0,0.7742,button_right_test,0,30,30,7,1
,,,,,,,,,,,,,,,,,5beb874c10ace8000183294e,33,2022-02-12_17h00.56.520,lexical_decision_task_DD_L5,2021.2.3,Linux armv8l,59.99160118,,,,,,,,,,0.6444,1,,,,,,,,,,,,,,,,,,,,,,,0.321328098,-0.3030157,1,0,0,,,,,,,PILOT,C,m,y,./images/PILOT.png,,,,,,,,,,,,,,,,,,,,,0,0.321328098,-0.3030157,1,0,0,0.6444,button_right_test,0,31,31,50,1
,,,,,,,,,,,,,,,,,5beb874c10ace8000183294e,33,2022-02-12_17h00.56.520,lexical_decision_task_DD_L5,2021.2.3,Linux armv8l,59.99160118,,,,,,,,,,0.6852,1,,,,,,,,,,,,,,,,,,,,,,,0.311632842,-0.344598418,1,0,0,,,,,,,SHIELD,HB,m,y,./images/SHIELDHB.png,,,,,,,,,,,,,,,,,,,,,0,0.311632842,-0.344598418,1,0,0,0.6852,button_right_test,0,32,32,48,1
,,,,,,,,,,,,,,,,,5beb874c10ace8000183294e,33,2022-02-12_17h00.56.520,lexical_decision_task_DD_L5,2021.2.3,Linux armv8l,59.99160118,,,,,,,,,,0.9959,1,,,,,,,,,,,,,,,,,,,,,,,-0.39335199,-0.343212535,1,0,0,,,,,,,BERRY,C,z,y,./images/BERRY.png,,,,,,,,,,,,,,,,,,,,,0,-0.39335199,-0.343212535,1,0,0,0.9959,button_left_test,0,33,33,131,1
,,,,,,,,,,,,,,,,,5beb874c10ace8000183294e,33,2022-02-12_17h00.56.520,lexical_decision_task_DD_L5,2021.2.3,Linux armv8l,59.99160118,,,,,,,,,,1.3263,1,,,,,,,,,,,,,,,,,,,,,,,-0.400277184,-0.340440324,1,0,0,,,,,,,SKIING,C,z,y,./images/SKIING.png,,,,,,,,,,,,,,,,,,,,,0,-0.400277184,-0.340440324,1,0,0,1.3263,button_left_test,0,34,34,101,1
,,,,,,,,,,,,,,,,,5beb874c10ace8000183294e,33,2022-02-12_17h00.56.520,lexical_decision_task_DD_L5,2021.2.3,Linux armv8l,59.99160118,,,,,,,,,,0.8152,1,,,,,,,,,,,,,,,,,,,,,,,0.285317134,-0.214305396,1,0,0,,,,,,,RULER,LB,m,y,./images/RULERLB.png,,,,,,,,,,,,,,,,,,,,,0,0.285317134,-0.214305396,1,0,0,0.8152,button_right_test,0,35,35,79,1
,,,,,,,,,,,,,,,,,5beb874c10ace8000183294e,33,2022-02-12_17h00.56.520,lexical_decision_task_DD_L5,2021.2.3,Linux armv8l,59.99160118,,,,,,,,,,1.3777,0,,,,,,,,,,,,,,,,,,,,,,,0.422435946,-0.218463638,1,0,0,,,,,,,BARREL,C,z,y,./images/BARREL.png,,,,,,,,,,,,,,,,,,,,,0,0.422435946,-0.218463638,1,0,0,1.3777,button_right_test,0,36,36,116,1
,,,,,,,,,,,,,,,,,5beb874c10ace8000183294e,33,2022-02-12_17h00.56.520,lexical_decision_task_DD_L5,2021.2.3,Linux armv8l,59.99160118,,,,,,,,,,0.661,0,,,,,,,,,,,,,,,,,,,,,,,0.310247921,-0.344598418,1,0,0,,,,,,,GRAIN,HB,z,y,./images/GRAINHB.png,,,,,,,,,,,,,,,,,,,,,0,0.310247921,-0.344598418,1,0,0,0.661,button_right_test,0,37,37,159,1
,,,,,,,,,,,,,,,,,5beb874c10ace8000183294e,33,2022-02-12_17h00.56.520,lexical_decision_task_DD_L5,2021.2.3,Linux armv8l,59.99160118,,,,,,,,,,0.8543,0,,,,,,,,,,,,,,,,,,,,,,,-0.364266164,-0.334895754,1,0,0,,,,,,,SLOPE,HB,m,y,./images/SLOPEHB.png,,,,,,,,,,,,,,,,,,,,,0,-0.364266164,-0.334895754,1,0,0,0.8543,button_left_test,0,38,38,30,1
,,,,,,,,,,,,,,,,,5beb874c10ace8000183294e,33,2022-02-12_17h00.56.520,lexical_decision_task_DD_L5,2021.2.3,Linux armv8l,59.99160118,,,,,,,,,,1.095,1,,,,,,,,,,,,,,,,,,,,,,,0.336563629,-0.246185599,1,0,0,,,,,,,DESERT,LB,m,y,./images/DESERTLB.png,,,,,,,,,,,,,,,,,,,,,0,0.336563629,-0.246185599,1,0,0,1.095,button_right_test,0,39,39,52,1
,,,,,,,,,,,,,,,,,5beb874c10ace8000183294e,33,2022-02-12_17h00.56.520,lexical_decision_task_DD_L5,2021.2.3,Linux armv8l,59.99160118,,,,,,,,,,0.6323,1,,,,,,,,,,,,,,,,,,,,,,,0.335178634,-0.316876458,1,0,0,,,,,,,PARADE,C,m,y,./images/PARADE.png,,,,,,,,,,,,,,,,,,,,,0,0.335178634,-0.316876458,1,0,0,0.6323,button_right_test,0,40,40,17,1
,,,,,,,,,,,,,,,,,5beb874c10ace8000183294e,33,2022-02-12_17h00.56.520,lexical_decision_task_DD_L5,2021.2.3,Linux armv8l,59.99160118,,,,,,,,,,0.8563,1,,,,,,,,,,,,,,,,,,,,,,,0.048475432,-0.436080933,1,0,0,,,,,,,MELON,LB,z,y,./images/MELONLB.png,break_done_button,,,,,,,,,,,,,,,,,,,,0,-0.37673153,-0.321034848,1,0,0,0.8563,button_left_test,0,41,41,106,1
,,,,,,,,,,,,,,,,,5beb874c10ace8000183294e,33,2022-02-12_17h00.56.520,lexical_decision_task_DD_L5,2021.2.3,Linux armv8l,59.99160118,,,,,,,,,,1.7053,1,,,,,,,,,,,,,,,,,,,,,,,-0.418282703,-0.376478621,1,0,0,,,,,,,PACKET,C,z,y,./images/PACKET.png,,,,,,,,,,,,,,,,,,,,,0,-0.418282703,-0.376478621,1,0,0,1.7053,button_left_test,0,42,42,140,1
,,,,,,,,,,,,,,,,,5beb874c10ace8000183294e,33,2022-02-12_17h00.56.520,lexical_decision_task_DD_L5,2021.2.3,Linux armv8l,59.99160118,,,,,,,,,,0.7435,1,,,,,,,,,,,,,,,,,,,,,,,0.240995833,-0.279451833,1,0,0,,,,,,,DRILL,HB,m,y,./images/DRILLHB.png,,,,,,,,,,,,,,,,,,,,,0,0.240995833,-0.279451833,1,0,0,0.7435,button_right_test,0,43,43,81,1
,,,,,,,,,,,,,,,,,5beb874c10ace8000183294e,33,2022-02-12_17h00.56.520,lexical_decision_task_DD_L5,2021.2.3,Linux armv8l,59.99160118,,,,,,,,,,1.3305,1,,,,,,,,,,,,,,,,,,,,,,,0.267311689,-0.298857457,1,0,0,,,,,,,FENCE,C,m,y,./images/FENCE.png,,,,,,,,,,,,,,,,,,,,,0,0.267311689,-0.298857457,1,0,0,1.3305,button_right_test,0,44,44,14,1
,,,,,,,,,,,,,,,,,5beb874c10ace8000183294e,33,2022-02-12_17h00.56.520,lexical_decision_task_DD_L5,2021.2.3,Linux armv8l,59.99160118,,,,,,,,,,0.6466,0,,,,,,,,,,,,,,,,,,,,,,,-0.335180357,-0.332123543,1,0,0,,,,,,,BUTTER,HB,m,y,./images/BUTTERHB.png,,,,,,,,,,,,,,,,,,,,,0,-0.335180357,-0.332123543,1,0,0,0.6466,button_left_test,0,45,45,27,1
,,,,,,,,,,,,,,,,,5beb874c10ace8000183294e,33,2022-02-12_17h00.56.520,lexical_decision_task_DD_L5,2021.2.3,Linux armv8l,59.99160118,,,,,,,,,,0.242,0,,,,,,,,,,,,,,,,,,,,,,,-0.243767785,-0.271135349,1,0,0,,,,,,,CURRY,HB,m,y,./images/CURRYHB.png,,,,,,,,,,,,,,,,,,,,,0,-0.243767785,-0.271135349,1,0,0,0.242,button_left_test,0,46,46,60,1
,,,,,,,,,,,,,,,,,5beb874c10ace8000183294e,33,2022-02-12_17h00.56.520,lexical_decision_task_DD_L5,2021.2.3,Linux armv8l,59.99160118,,,,,,,,,,0.2413,0,,,,,,,,,,,,,,,,,,,,,,,-0.231302428,-0.221235849,1,0,0,,,,,,,SPINE,C,m,y,./images/SPINE.png,,,,,,,,,,,,,,,,,,,,,0,-0.231302428,-0.221235849,1,0,0,0.2413,button_left_test,0,47,47,65,1
,,,,,,,,,,,,,,,,,5beb874c10ace8000183294e,33,2022-02-12_17h00.56.520,lexical_decision_task_DD_L5,2021.2.3,Linux armv8l,59.99160118,,,,,,,,,,0.0237,1,,,,,,,,,,,,,,,,,,,,,,,0.321328098,-0.318262637,1,0,0,,,,,,,FLASK,HB,m,y,./images/FLASKHB.png,,,,,,,,,,,,,,,,,,,,,0,0.321328098,-0.318262637,1,0,0,0.0237,button_right_test,0,48,48,72,1
,,,,,,,,,,,,,,,,,5beb874c10ace8000183294e,33,2022-02-12_17h00.56.520,lexical_decision_task_DD_L5,2021.2.3,Linux armv8l,59.99160118,,,,,,,,,,0.2997,1,,,,,,,,,,,,,,,,,,,,,,,0.27146682,-0.265591075,1,0,0,,,,,,,BANANA,LB,m,y,./images/BANANALB.png,,,,,,,,,,,,,,,,,,,,,0,0.27146682,-0.265591075,1,0,0,0.2997,button_right_test,0,49,49,70,1
,,,,,,,,,,,,,,,,,5beb874c10ace8000183294e,33,2022-02-12_17h00.56.520,lexical_decision_task_DD_L5,2021.2.3,Linux armv8l,59.99160118,,,,,,,,,,0.4809,1,,,,,,,,,,,,,,,,,,,,,,,-0.344875632,-0.340440324,1,0,0,,,,,,,WALRUS,C,z,y,./images/WALRUS.png,,,,,,,,,,,,,,,,,,,,,0,-0.127424518,-0.298857457,1,0,0,0.4809,button_left_test,0,50,50,107,1
,,,,,,,,,,,,,,,,,5beb874c10ace8000183294e,33,2022-02-12_17h00.56.520,lexical_decision_task_DD_L5,2021.2.3,Linux armv8l,59.99160118,,,,,,,,,,0.3949,0,,,,,,,,,,,,,,,,,,,,,,,0.257616284,-0.393112034,1,0,0,,,,,,,GREASE,HB,z,y,./images/GREASEHB.png,,,,,,,,,,,,,,,,,,,,,0,0.257616284,-0.393112034,1,0,0,0.3949,button_right_test,0,51,51,99,1
,,,,,,,,,,,,,,,,,5beb874c10ace8000183294e,33,2022-02-12_17h00.56.520,lexical_decision_task_DD_L5,2021.2.3,Linux armv8l,59.99160118,,,,,,,,,,0.3415,1,,,,,,,,,,,,,,,,,,,,,,,-0.299169355,-0.350142692,1,0,0,,,,,,,COOKER,HB,z,y,./images/COOKERHB.png,,,,,,,,,,,,,,,,,,,,,0,-0.299169355,-0.350142692,1,0,0,0.3415,button_left_test,0,52,52,153,1
,,,,,,,,,,,,,,,,,5beb874c10ace8000183294e,33,2022-02-12_17h00.56.520,lexical_decision_task_DD_L5,2021.2.3,Linux armv8l,59.99160118,,,,,,,,,,0.3287,1,,,,,,,,,,,,,,,,,,,,,,,-0.383656724,-0.340440324,1,0,0,,,,,,,TOMATO,HB,z,y,./images/TOMATOHB.png,,,,,,,,,,,,,,,,,,,,,0,-0.383656724,-0.340440324,1,0,0,0.3287,button_left_test,0,53,53,84,1
,,,,,,,,,,,,,,,,,5beb874c10ace8000183294e,33,2022-02-12_17h00.56.520,lexical_decision_task_DD_L5,2021.2.3,Linux armv8l,59.99160118,,,,,,,,,,0.3547,0,,,,,,,,,,,,,,,,,,,,,,,-0.292244124,-0.312718512,1,0,0,,,,,,,GLOVE,LB,m,y,./images/GLOVELB.png,,,,,,,,,,,,,,,,,,,,,0,-0.292244124,-0.312718512,1,0,0,0.3547,button_left_test,0,54,54,73,1
,,,,,,,,,,,,,,,,,5beb874c10ace8000183294e,33,2022-02-12_17h00.56.520,lexical_decision_task_DD_L5,2021.2.3,Linux armv8l,59.99160118,,,,,,,,,,0.0944,0,,,,,,,,,,,,,,,,,,,,,,,-0.260388235,-0.309946005,1,0,0,,,,,,,GRAPE,LB,m,y,./images/GRAPELB.png,,,,,,,,,,,,,,,,,,,,,0,-0.260388235,-0.309946005,1,0,0,0.0944,button_left_test,0,55,55,16,1
,,,,,,,,,,,,,,,,,5beb874c10ace8000183294e,33,2022-02-12_17h00.56.520,lexical_decision_task_DD_L5,2021.2.3,Linux armv8l,59.99160118,,,,,,,,,,0.1738,1,,,,,,,,,,,,,,,,,,,,,,,0.259001426,-0.32657927,1,0,0,,,,,,,CLOTH,C,m,y,./images/CLOTH.png,,,,,,,,,,,,,,,,,,,,,0,0.259001426,-0.32657927,1,0,0,0.1738,button_right_test,0,56,56,23,1
,,,,,,,,,,,,,,,,,5beb874c10ace8000183294e,33,2022-02-12_17h00.56.520,lexical_decision_task_DD_L5,2021.2.3,Linux armv8l,59.99160118,,,,,,,,,,0.1993,1,,,,,,,,,,,,,,,,,,,,,,,0.324098235,-0.248957958,1,0,0,,,,,,,DIVER,HB,m,y,./images/DIVERHB.png,,,,,,,,,,,,,,,,,,,,,0,0.324098235,-0.248957958,1,0,0,0.1993,button_right_test,0,57,57,9,1
,,,,,,,,,,,,,,,,,5beb874c10ace8000183294e,33,2022-02-12_17h00.56.520,lexical_decision_task_DD_L5,2021.2.3,Linux armv8l,59.99160118,,,,,,,,,,2.6304,0,,,,,,,,,,,,,,,,,,,,,,,-0.315789825,-0.365390074,1,0,0,,,,,,,CANOE,LB,m,y,./images/CANOELB.png,,,,,,,,,,,,,,,,,,,,,0,-0.315789825,-0.365390074,1,0,0,2.6304,button_left_test,0,58,58,58,1
,,,,,,,,,,,,,,,,,5beb874c10ace8000183294e,33,2022-02-12_17h00.56.520,lexical_decision_task_DD_L5,2021.2.3,Linux armv8l,59.99160118,,,,,,,,,,0.0896,1,,,,,,,,,,,,,,,,,,,,,,,-0.355955948,-0.362617567,1,0,0,,,,,,,BABOON,LB,z,y,./images/BABOONLB.png,,,,,,,,,,,,,,,,,,,,,0,-0.355955948,-0.362617567,1,0,0,0.0896,button_left_test,0,59,59,142,1
,,,,,,,,,,,,,,,,,5beb874c10ace8000183294e,33,2022-02-12_17h00.56.520,lexical_decision_task_DD_L5,2021.2.3,Linux armv8l,59.99160118,,,,,,,,,,0.733,0,,,,,,,,,,,,,,,,,,,,,,,0.326868372,-0.29747113,1,0,0,,,,,,,SMOKER,C,z,y,./images/SMOKER.png,,,,,,,,,,,,,,,,,,,,,0,0.191134481,-0.224008208,1,0,0,0.733,button_right_test,0,60,60,110,1
,,,,,,,,,,,,,,,,,5beb874c10ace8000183294e,33,2022-02-12_17h00.56.520,lexical_decision_task_DD_L5,2021.2.3,Linux armv8l,59.99160118,,,,,,,,,,2.0972,0,,,,,,,,,,,,,,,,,,,,,,,-0.339335488,-0.369548168,1,0,0,,,,,,,STEAK,LB,m,y,./images/STEAKLB.png,,,,,,,,,,,,,,,,,,,,,0,-0.339335488,-0.369548168,1,0,0,2.0972,button_left_test,0,61,61,31,1
,,,,,,,,,,,,,,,,,5beb874c10ace8000183294e,33,2022-02-12_17h00.56.520,lexical_decision_task_DD_L5,2021.2.3,Linux armv8l,59.99160118,,,,,,,,,,0.3938,0,,,,,,,,,,,,,,,,,,,,,,,0.301937659,-0.334895754,1,0,0,,,,,,,SWEAT,HB,z,y,./images/SWEATHB.png,,,,,,,,,,,,,,,,,,,,,0,0.301937659,-0.334895754,1,0,0,0.3938,button_right_test,0,62,62,150,1
,,,,,,,,,,,,,,,,,5beb874c10ace8000183294e,33,2022-02-12_17h00.56.520,lexical_decision_task_DD_L5,2021.2.3,Linux armv8l,59.99160118,,,,,,,,,,0.2679,1,,,,,,,,,,,,,,,,,,,,,,,0.288087123,-0.377864949,1,0,0,,,,,,,BRUSH,C,m,y,./images/BRUSH.png,,,,,,,,,,,,,,,,,,,,,0,0.288087123,-0.377864949,1,0,0,0.2679,button_right_test,0,63,63,59,1
,,,,,,,,,,,,,,,,,5beb874c10ace8000183294e,33,2022-02-12_17h00.56.520,lexical_decision_task_DD_L5,2021.2.3,Linux armv8l,59.99160118,,,,,,,,,,0.5223,1,,,,,,,,,,,,,,,,,,,,,,,0.396120238,-0.212919513,1,0,0,,,,,,,GRANNY,C,m,y,./images/GRANNY.png,,,,,,,,,,,,,,,,,,,,,0,0.396120238,-0.212919513,1,0,0,0.5223,button_right_test,0,64,64,20,1
,,,,,,,,,,,,,,,,,5beb874c10ace8000183294e,33,2022-02-12_17h00.56.520,lexical_decision_task_DD_L5,2021.2.3,Linux armv8l,59.99160118,,,,,,,,,,0.2657,0,,,,,,,,,,,,,,,,,,,,,,,0.358724131,-0.251730021,1,0,0,,,,,,,BIRTH,LB,z,y,./images/BIRTHLB.png,,,,,,,,,,,,,,,,,,,,,0,0.358724131,-0.251730021,1,0,0,0.2657,button_right_test,0,65,65,121,1
,,,,,,,,,,,,,,,,,5beb874c10ace8000183294e,33,2022-02-12_17h00.56.520,lexical_decision_task_DD_L5,2021.2.3,Linux armv8l,59.99160118,,,,,,,,,,0.1805,1,,,,,,,,,,,,,,,,,,,,,,,0.357339211,-0.246185599,1,0,0,,,,,,,CHERRY,HB,m,y,./images/CHERRYHB.png,,,,,,,,,,,,,,,,,,,,,0,0.411355769,-0.194900068,1,0,0,0.1805,button_right_test,0,66,66,54,1
,,,,,,,,,,,,,,,,,5beb874c10ace8000183294e,33,2022-02-12_17h00.56.520,lexical_decision_task_DD_L5,2021.2.3,Linux armv8l,59.99160118,,,,,,,,,,0.7225,1,,,,,,,,,,,,,,,,,,,,,,,-0.242382716,-0.269749169,1,0,0,,,,,,,DOUGH,LB,z,y,./images/DOUGHLB.png,,,,,,,,,,,,,,,,,,,,,0,-0.242382716,-0.269749169,1,0,0,0.7225,button_left_test,0,67,67,103,1
,,,,,,,,,,,,,,,,,5beb874c10ace8000183294e,33,2022-02-12_17h00.56.520,lexical_decision_task_DD_L5,2021.2.3,Linux armv8l,59.99160118,,,,,,,,,,0.4167,1,,,,,,,,,,,,,,,,,,,,,,,0.331023503,-0.264204896,1,0,0,,,,,,,FLESH,HB,m,y,./images/FLESHHB.png,,,,,,,,,,,,,,,,,,,,,0,0.331023503,-0.264204896,1,0,0,0.4167,button_right_test,0,68,68,24,1
,,,,,,,,,,,,,,,,,5beb874c10ace8000183294e,33,2022-02-12_17h00.56.520,lexical_decision_task_DD_L5,2021.2.3,Linux armv8l,59.99160118,,,,,,,,,,0.3613,0,,,,,,,,,,,,,,,,,,,,,,,-0.28947408,-0.334895754,1,0,0,,,,,,,MIDGET,LB,m,y,./images/MIDGETLB.png,,,,,,,,,,,,,,,,,,,,,0,-0.28947408,-0.334895754,1,0,0,0.3613,button_left_test,0,69,69,76,1
,,,,,,,,,,,,,,,,,5beb874c10ace8000183294e,33,2022-02-12_17h00.56.520,lexical_decision_task_DD_L5,2021.2.3,Linux armv8l,59.99160118,,,,,,,,,,0.3453,1,,,,,,,,,,,,,,,,,,,,,,,-0.368421286,-0.39726998,1,0,0,,,,,,,SHELF,HB,z,y,./images/SHELFHB.png,,,,,,,,,,,,,,,,,,,,,0,-0.368421286,-0.39726998,1,0,0,0.3453,button_left_test,0,70,70,123,1
,,,,,,,,,,,,,,,,,5beb874c10ace8000183294e,33,2022-02-12_17h00.56.520,lexical_decision_task_DD_L5,2021.2.3,Linux armv8l,59.99160118,,,,,,,,,,0.3456,0,,,,,,,,,,,,,,,,,,,,,,,-0.337950419,-0.337667817,1,0,0,,,,,,,POKER,LB,m,y,./images/POKERLB.png,,,,,,,,,,,,,,,,,,,,,0,-0.337950419,-0.337667817,1,0,0,0.3456,button_left_test,0,71,71,67,1
,,,,,,,,,,,,,,,,,5beb874c10ace8000183294e,33,2022-02-12_17h00.56.520,lexical_decision_task_DD_L5,2021.2.3,Linux armv8l,59.99160118,,,,,,,,,,0.5616,0,,,,,,,,,,,,,,,,,,,,,,,-0.333795307,-0.232324693,1,0,0,,,,,,,BRIDE,LB,m,y,./images/BRIDELB.png,,,,,,,,,,,,,,,,,,,,,0,-0.333795307,-0.232324693,1,0,0,0.5616,button_left_test,0,72,72,64,1
,,,,,,,,,,,,,,,,,5beb874c10ace8000183294e,33,2022-02-12_17h00.56.520,lexical_decision_task_DD_L5,2021.2.3,Linux armv8l,59.99160118,,,,,,,,,,0.3829,1,,,,,,,,,,,,,,,,,,,,,,,-0.407202378,-0.246185599,1,0,0,,,,,,,BANNER,LB,z,y,./images/BANNERLB.png,,,,,,,,,,,,,,,,,,,,,0,-0.407202378,-0.246185599,1,0,0,0.3829,button_left_test,0,73,73,136,1
,,,,,,,,,,,,,,,,,5beb874c10ace8000183294e,33,2022-02-12_17h00.56.520,lexical_decision_task_DD_L5,2021.2.3,Linux armv8l,59.99160118,,,,,,,,,,0.3927,0,,,,,,,,,,,,,,,,,,,,,,,0.383654844,-0.279451833,1,0,0,,,,,,,MOSQUE,LB,z,y,./images/MOSQUELB.png,,,,,,,,,,,,,,,,,,,,,0,0.383654844,-0.279451833,1,0,0,0.3927,button_right_test,0,74,74,127,1
,,,,,,,,,,,,,,,,,5beb874c10ace8000183294e,33,2022-02-12_17h00.56.520,lexical_decision_task_DD_L5,2021.2.3,Linux armv8l,59.99160118,,,,,,,,,,0.196,1,,,,,,,,,,,,,,,,,,,,,,,0.375344656,-0.314104395,1,0,0,,,,,,,SAUNA,HB,m,y,./images/SAUNAHB.png,,,,,,,,,,,,,,,,,,,,,0,0.375344656,-0.314104395,1,0,0,0.196,button_right_test,0,75,75,33,1
,,,,,,,,,,,,,,,,,5beb874c10ace8000183294e,33,2022-02-12_17h00.56.520,lexical_decision_task_DD_L5,2021.2.3,Linux armv8l,59.99160118,,,,,,,,,,0.344,0,,,,,,,,,,,,,,,,,,,,,,,0.297782528,-0.352915199,1,0,0,,,,,,,LIZARD,C,z,y,./images/LIZARD.png,,,,,,,,,,,,,,,,,,,,,0,0.297782528,-0.352915199,1,0,0,0.344,button_right_test,0,76,76,128,1
,,,,,,,,,,,,,,,,,5beb874c10ace8000183294e,33,2022-02-12_17h00.56.520,lexical_decision_task_DD_L5,2021.2.3,Linux armv8l,59.99160118,,,,,,,,,,0.3739,1,,,,,,,,,,,,,,,,,,,,,,,0.282546997,-0.327965449,1,0,0,,,,,,,GARDEN,LB,m,y,./images/GARDENLB.png,,,,,,,,,,,,,,,,,,,,,0,0.282546997,-0.327965449,1,0,0,0.3739,button_right_test,0,77,77,10,1
,,,,,,,,,,,,,,,,,5beb874c10ace8000183294e,33,2022-02-12_17h00.56.520,lexical_decision_task_DD_L5,2021.2.3,Linux armv8l,59.99160118,,,,,,,,,,0.4017,1,,,,,,,,,,,,,,,,,,,,,,,0.229915656,-0.294698919,1,0,0,,,,,,,DANCER,HB,m,y,./images/DANCERHB.png,,,,,,,,,,,,,,,,,,,,,0,0.229915656,-0.294698919,1,0,0,0.4017,button_right_test,0,78,78,21,1
,,,,,,,,,,,,,,,,,5beb874c10ace8000183294e,33,2022-02-12_17h00.56.520,lexical_decision_task_DD_L5,2021.2.3,Linux armv8l,59.99160118,,,,,,,,,,0.2624,0,,,,,,,,,,,,,,,,,,,,,,,0.253461153,-0.271135349,1,0,0,,,,,,,JELLY,LB,z,y,./images/JELLYLB.png,,,,,,,,,,,,,,,,,,,,,0,0.253461153,-0.271135349,1,0,0,0.2624,button_right_test,0,79,79,148,1
,,,,,,,,,,,,,,,,,5beb874c10ace8000183294e,33,2022-02-12_17h00.56.520,lexical_decision_task_DD_L5,2021.2.3,Linux armv8l,59.99160118,,,,,,,,,,0.5793,1,,,,,,,,,,,,,,,,,,,,,,,-0.351800817,-0.312718512,1,0,0,,,,,,,MOTOR,LB,z,y,./images/MOTORLB.png,,,,,,,,,,,,,,,,,,,,,0,-0.351800817,-0.312718512,1,0,0,0.5793,button_left_test,0,80,80,97,1
,,,,,,,,,,,,,,,,,5beb874c10ace8000183294e,33,2022-02-12_17h00.56.520,lexical_decision_task_DD_L5,2021.2.3,Linux armv8l,59.99160118,,,,,,,,,,0.5135,0,,,,,,,,,,,,,,,,,,,,,,,-0.324100031,-0.27806595,1,0,0,,,,,,,STAIN,HB,m,y,./images/STAINHB.png,,,,,,,,,,,,,,,,,,,,,0,-0.324100031,-0.27806595,1,0,0,0.5135,button_left_test,0,81,81,6,1
,,,,,,,,,,,,,,,,,5beb874c10ace8000183294e,33,2022-02-12_17h00.56.520,lexical_decision_task_DD_L5,2021.2.3,Linux armv8l,59.99160118,,,,,,,,,,2.0669,1,,,,,,,,,,,,,,,,,,,,,,,0.332408498,-0.354301082,1,0,0,,,,,,,WHISKY,C,m,y,./images/WHISKY.png,,,,,,,,,,,,,,,,,,,,,0,0.332408498,-0.354301082,1,0,0,2.0669,button_right_test,0,82,82,83,1
,,,,,,,,,,,,,,,,,5beb874c10ace8000183294e,33,2022-02-12_17h00.56.520,lexical_decision_task_DD_L5,2021.2.3,Linux armv8l,59.99160118,,,,,,,,,,0.9292,1,,,,,,,,,,,,,,,,,,,,,,,-0.015236382,-0.369548168,1,0,0,,,,,,,BASKET,C,m,y,./images/BASKET.png,break_done_button,,,,,,,,,,,,,,,,,,,,0,0.34071876,-0.354301082,1,0,0,0.9292,button_right_test,0,83,83,44,1
,,,,,,,,,,,,,,,,,5beb874c10ace8000183294e,33,2022-02-12_17h00.56.520,lexical_decision_task_DD_L5,2021.2.3,Linux armv8l,59.99160118,,,,,,,,,,1.1304,1,,,,,,,,,,,,,,,,,,,,,,,-0.344875632,-0.269749169,1,0,0,,,,,,,ATTIC,HB,z,y,./images/ATTICHB.png,,,,,,,,,,,,,,,,,,,,,0,-0.344875632,-0.269749169,1,0,0,1.1304,button_left_test,0,84,84,111,1
,,,,,,,,,,,,,,,,,5beb874c10ace8000183294e,33,2022-02-12_17h00.56.520,lexical_decision_task_DD_L5,2021.2.3,Linux armv8l,59.99160118,,,,,,,,,,0.764,1,,,,,,,,,,,,,,,,,,,,,,,-0.346260682,-0.29747113,1,0,0,,,,,,,MUSCLE,LB,z,y,./images/MUSCLELB.png,,,,,,,,,,,,,,,,,,,,,0,-0.346260682,-0.29747113,1,0,0,0.764,button_left_test,0,85,85,88,1
,,,,,,,,,,,,,,,,,5beb874c10ace8000183294e,33,2022-02-12_17h00.56.520,lexical_decision_task_DD_L5,2021.2.3,Linux armv8l,59.99160118,,,,,,,,,,0.8307,1,,,,,,,,,,,,,,,,,,,,,,,0.331023503,-0.336282082,1,0,0,,,,,,,MEDAL,C,m,y,./images/MEDAL.png,,,,,,,,,,,,,,,,,,,,,0,0.331023503,-0.336282082,1,0,0,0.8307,button_right_test,0,86,86,11,1
,,,,,,,,,,,,,,,,,5beb874c10ace8000183294e,33,2022-02-12_17h00.56.520,lexical_decision_task_DD_L5,2021.2.3,Linux armv8l,59.99160118,,,,,,,,,,1.6013,1,,,,,,,,,,,,,,,,,,,,,,,0.391965107,-0.300243637,1,0,0,,,,,,,CHALK,LB,m,y,./images/CHALKLB.png,,,,,,,,,,,,,,,,,,,,,0,0.391965107,-0.300243637,1,0,0,1.6013,button_right_test,0,87,87,25,1
,,,,,,,,,,,,,,,,,5beb874c10ace8000183294e,33,2022-02-12_17h00.56.520,lexical_decision_task_DD_L5,2021.2.3,Linux armv8l,59.99160118,,,,,,,,,,0.8139,1,,,,,,,,,,,,,,,,,,,,,,,-0.354570898,-0.308559973,1,0,0,,,,,,,KITTEN,HB,z,y,./images/KITTENHB.png,,,,,,,,,,,,,,,,,,,,,0,-0.354570898,-0.308559973,1,0,0,0.8139,button_left_test,0,88,88,129,1
