key_resp.keys,key_resp.rt,instr_done_touch.x,instr_done_touch.y,instr_done_touch.leftButton,instr_done_touch.midButton,instr_done_touch.rightButton,instruction_pages.thisRepN,instruction_pages.thisTrialN,instruction_pages.thisN,instruction_pages.thisIndex,instruction_pages.ran,pageN,phase,instruct_text,has_image,instruct_image,participant,age,date,expName,psychopyVersion,OS,frameRate,response.keys,response.corr,response.rt,touch_resp.x,touch_resp.y,touch_resp.leftButton,touch_resp.midButton,touch_resp.rightButton,touch_resp.time,touch_resp.clicked_name,rt,corr,practrials.thisRepN,practrials.thisTrialN,practrials.thisN,practrials.thisIndex,practrials.ran,TrialID,Target,corrAns,end_of_practice_trials_pages.thisRepN,end_of_practice_trials_pages.thisTrialN,end_of_practice_trials_pages.thisN,end_of_practice_trials_pages.thisIndex,end_of_practice_trials_pages.ran,key_resp_2.keys,key_resp_2.corr,key_resp_2.rt,targ_click.x,targ_click.y,targ_click.leftButton,targ_click.midButton,targ_click.rightButton,targ_click.time,targ_click.clicked_name,break_done_touch.x,break_done_touch.y,break_done_touch.leftButton,break_done_touch.midButton,break_done_touch.rightButton,break_done_keyboard.keys,maintrials.thisRepN,maintrials.thisTrialN,maintrials.thisN,maintrials.thisIndex,maintrials.ran,string,blur,study,lex,stim_path,break_done_keyboard.rt,mouse_2.x,mouse_2.y,mouse_2.leftButton,mouse_2.midButton,mouse_2.rightButton,mouse_2.clicked_name,slider.response,slider.rt,trials.thisRepN,trials.thisTrialN,trials.thisN,trials.thisIndex,trials.ran,test_instructions.thisRepN,test_instructions.thisTrialN,test_instructions.thisN,test_instructions.thisIndex,test_instructions.ran,instr_done_touch.clicked_name,key_resp_3.keys,key_resp_3.corr,key_resp_3.rt,test_click.x,test_click.y,test_click.leftButton,test_click.midButton,test_click.rightButton,test_click.time,test_click.clicked_name,test_phase.thisRepN,test_phase.thisTrialN,test_phase.thisN,test_phase.thisIndex,test_phase.ran
space,41.5583,0.081031099,-0.415665172,0,0,0,0,0,0,0,1,1,instructions,"INSTRUCTIONS
At the start of each trial, look at the plus sign  (+) in the center of the screen.  This tells you that a trial is about to begin and where to look. Second, the plus sign will disappear and a string of letters will appear. Your task is to determine if the string of letters is a word or not. If the item is a word press the M key (on keyboard)  or touch the word button (phone/tablet).  If the item is not a word,  press the  Z key (on keyboard)  or touch the nonword button (on phone/tablet). 
Press the space bar or touch  continue.",0,,5d0e711c91721f001a919f11,61,2022-02-12_12h16.50.344,lexical_decision_task_DD_L5,2021.2.3,Win32,59.68011459,,,,,,,,,,,,,,,,,,,,,,,,,,,,,,,,,,,,,,,,,,,,,,,,,,,,,,,,,,,,,,,,,,,,,,,,,,,,,,,,,,,,,,
space,8.3469,0.081031099,-0.415665172,0,0,0,0,1,1,1,1,2,instructions,"If your device has a keyboard, press the 'Z' key for nonwords and the 'M' key for words.





Press the space bar or touch the button below to continue.",0,keyboard-example.gif,5d0e711c91721f001a919f11,61,2022-02-12_12h16.50.344,lexical_decision_task_DD_L5,2021.2.3,Win32,59.68011459,,,,,,,,,,,,,,,,,,,,,,,,,,,,,,,,,,,,,,,,,,,,,,,,,,,,,,,,,,,,,,,,,,,,,,,,,,,,,,,,,,,,,,
space,6.0572,0.081031099,-0.415665172,0,0,0,0,2,2,2,1,3,instructions,"If you are using a touchscreen only device, use the buttons on the screen. Do not use the mouse.





Press the space bar or touch the button below to continue.",0,touchscreen-example.gif,5d0e711c91721f001a919f11,61,2022-02-12_12h16.50.344,lexical_decision_task_DD_L5,2021.2.3,Win32,59.68011459,,,,,,,,,,,,,,,,,,,,,,,,,,,,,,,,,,,,,,,,,,,,,,,,,,,,,,,,,,,,,,,,,,,,,,,,,,,,,,,,,,,,,,
space,21.2086,-0.050335557,-0.4976068,0,0,0,0,3,3,3,1,4,instructions,"It is very important that you respond as quickly and accurately as possible, as each letter string will only be on the screen for two seconds. If you do not respond within this time, the message 'Too slow!' will be displayed and the experiment will progress to the next letter string. The first 20 trials will be practice trials and you will receive feedback on your answers. 

Press the space bar or touch the button below to start the practice trials.",0,,5d0e711c91721f001a919f11,61,2022-02-12_12h16.50.344,lexical_decision_task_DD_L5,2021.2.3,Win32,59.68011459,,,,,,,,,,,,,,,,,,,,,,,,,,,,,,,,,,,,,,,,,,,,,,,,,,,,,,,,,,,,,,,,,,,,,,,,,,,,,,,,,,,,,,
,,,,,,,,,,,,,,,,,5d0e711c91721f001a919f11,61,2022-02-12_12h16.50.344,lexical_decision_task_DD_L5,2021.2.3,Win32,59.68011459,m,1,1.9013,,,,,,,,1.9013,1,0,0,0,7,1,1001,VOLUME,m,,,,,,,,,,,,,,,,,,,,,,,,,,,,,,,,,,,,,,,,,,,,,,,,,,,,,,,,,,,,,,,,,,
,,,,,,,,,,,,,,,,,5d0e711c91721f001a919f11,61,2022-02-12_12h16.50.344,lexical_decision_task_DD_L5,2021.2.3,Win32,59.68011459,z,1,0.8545,,,,,,,,0.8545,1,0,1,1,15,1,1001,WHAISE,z,,,,,,,,,,,,,,,,,,,,,,,,,,,,,,,,,,,,,,,,,,,,,,,,,,,,,,,,,,,,,,,,,,
,,,,,,,,,,,,,,,,,5d0e711c91721f001a919f11,61,2022-02-12_12h16.50.344,lexical_decision_task_DD_L5,2021.2.3,Win32,59.68011459,m,1,0.8242,,,,,,,,0.8242,1,0,2,2,3,1,1001,MATRIX,m,,,,,,,,,,,,,,,,,,,,,,,,,,,,,,,,,,,,,,,,,,,,,,,,,,,,,,,,,,,,,,,,,,
,,,,,,,,,,,,,,,,,5d0e711c91721f001a919f11,61,2022-02-12_12h16.50.344,lexical_decision_task_DD_L5,2021.2.3,Win32,59.68011459,z,1,1.4287,,,,,,,,1.4287,1,0,3,3,13,1,1001,ROUPET,z,,,,,,,,,,,,,,,,,,,,,,,,,,,,,,,,,,,,,,,,,,,,,,,,,,,,,,,,,,,,,,,,,,
,,,,,,,,,,,,,,,,,5d0e711c91721f001a919f11,61,2022-02-12_12h16.50.344,lexical_decision_task_DD_L5,2021.2.3,Win32,59.68011459,m,1,0.7303,,,,,,,,0.7303,1,0,4,4,6,1,1001,ZOMBIE,m,,,,,,,,,,,,,,,,,,,,,,,,,,,,,,,,,,,,,,,,,,,,,,,,,,,,,,,,,,,,,,,,,,
,,,,,,,,,,,,,,,,,5d0e711c91721f001a919f11,61,2022-02-12_12h16.50.344,lexical_decision_task_DD_L5,2021.2.3,Win32,59.68011459,z,1,0.8153,,,,,,,,0.8153,1,0,5,5,9,1,1001,FARINY,z,,,,,,,,,,,,,,,,,,,,,,,,,,,,,,,,,,,,,,,,,,,,,,,,,,,,,,,,,,,,,,,,,,
,,,,,,,,,,,,,,,,,5d0e711c91721f001a919f11,61,2022-02-12_12h16.50.344,lexical_decision_task_DD_L5,2021.2.3,Win32,59.68011459,z,1,0.8735,,,,,,,,0.8735,1,0,6,6,14,1,1001,THRALE,z,,,,,,,,,,,,,,,,,,,,,,,,,,,,,,,,,,,,,,,,,,,,,,,,,,,,,,,,,,,,,,,,,,
,,,,,,,,,,,,,,,,,5d0e711c91721f001a919f11,61,2022-02-12_12h16.50.344,lexical_decision_task_DD_L5,2021.2.3,Win32,59.68011459,z,1,0.9704,,,,,,,,0.9704,1,0,7,7,12,1,1001,SPRINY,z,,,,,,,,,,,,,,,,,,,,,,,,,,,,,,,,,,,,,,,,,,,,,,,,,,,,,,,,,,,,,,,,,,
,,,,,,,,,,,,,,,,,5d0e711c91721f001a919f11,61,2022-02-12_12h16.50.344,lexical_decision_task_DD_L5,2021.2.3,Win32,59.68011459,z,1,1.0994,,,,,,,,1.0994,1,0,8,8,8,1,1001,ASLERT,z,,,,,,,,,,,,,,,,,,,,,,,,,,,,,,,,,,,,,,,,,,,,,,,,,,,,,,,,,,,,,,,,,,
,,,,,,,,,,,,,,,,,5d0e711c91721f001a919f11,61,2022-02-12_12h16.50.344,lexical_decision_task_DD_L5,2021.2.3,Win32,59.68011459,m,1,0.7046,,,,,,,,0.7046,1,0,9,9,1,1,1001,ADJUST,m,,,,,,,,,,,,,,,,,,,,,,,,,,,,,,,,,,,,,,,,,,,,,,,,,,,,,,,,,,,,,,,,,,
,,,,,,,,,,,,,,,,,5d0e711c91721f001a919f11,61,2022-02-12_12h16.50.344,lexical_decision_task_DD_L5,2021.2.3,Win32,59.68011459,z,1,0.6607,,,,,,,,0.6607,1,0,10,10,11,1,1001,RASHET,z,,,,,,,,,,,,,,,,,,,,,,,,,,,,,,,,,,,,,,,,,,,,,,,,,,,,,,,,,,,,,,,,,,
,,,,,,,,,,,,,,,,,5d0e711c91721f001a919f11,61,2022-02-12_12h16.50.344,lexical_decision_task_DD_L5,2021.2.3,Win32,59.68011459,m,1,0.6504,,,,,,,,0.6504,1,0,11,11,5,1,1001,OBTAIN,m,,,,,,,,,,,,,,,,,,,,,,,,,,,,,,,,,,,,,,,,,,,,,,,,,,,,,,,,,,,,,,,,,,
,,,,,,,,,,,,,,,,,5d0e711c91721f001a919f11,61,2022-02-12_12h16.50.344,lexical_decision_task_DD_L5,2021.2.3,Win32,59.68011459,m,1,1.6654,,,,,,,,1.6654,1,0,12,12,0,1,1001,UTOPIA,m,,,,,,,,,,,,,,,,,,,,,,,,,,,,,,,,,,,,,,,,,,,,,,,,,,,,,,,,,,,,,,,,,,
,,,,,,,,,,,,,,,,,5d0e711c91721f001a919f11,61,2022-02-12_12h16.50.344,lexical_decision_task_DD_L5,2021.2.3,Win32,59.68011459,m,1,0.6757,,,,,,,,0.6757,1,0,13,13,2,1,1001,ALMOND,m,,,,,,,,,,,,,,,,,,,,,,,,,,,,,,,,,,,,,,,,,,,,,,,,,,,,,,,,,,,,,,,,,,
,,,,,,,,,,,,,,,,,5d0e711c91721f001a919f11,61,2022-02-12_12h16.50.344,lexical_decision_task_DD_L5,2021.2.3,Win32,59.68011459,z,1,1.1487,,,,,,,,1.1487,1,0,14,14,10,1,1001,INLADE,z,,,,,,,,,,,,,,,,,,,,,,,,,,,,,,,,,,,,,,,,,,,,,,,,,,,,,,,,,,,,,,,,,,
,,,,,,,,,,,,,,,,,5d0e711c91721f001a919f11,61,2022-02-12_12h16.50.344,lexical_decision_task_DD_L5,2021.2.3,Win32,59.68011459,m,1,0.6921,,,,,,,,0.6921,1,0,15,15,4,1,1001,SQUEAK,m,,,,,,,,,,,,,,,,,,,,,,,,,,,,,,,,,,,,,,,,,,,,,,,,,,,,,,,,,,,,,,,,,,
space,8.2114,-0.050335557,-0.4976068,0,0,0,,,,,,1,end_of_practice,"You have completed the practice trials. During the experimental trials, you will not receive feedback. 
Before you begin, please ensure that you are in a comfortable and quiet location and will not be disturbed for about 15 minutes, as we cannot use your data if you do not complete all the trials. 
 When you are ready to start the experimental trials, please press space or touch the button below.",,,5d0e711c91721f001a919f11,61,2022-02-12_12h16.50.344,lexical_decision_task_DD_L5,2021.2.3,Win32,59.68011459,,,,,,,,,,,,,,,,,,,,,0,0,0,0,1,,,,,,,,,,,,,,,,,,,,,,,,,,,,,,,,,,,,,,,,,,,,,,,,,,,,,,,,,,,,,
,,,,,,,,,,,,,,,,,5d0e711c91721f001a919f11,61,2022-02-12_12h16.50.344,lexical_decision_task_DD_L5,2021.2.3,Win32,59.68011459,,,,,,,,,,,1.8213,1,,,,,,,,,,,,,,z,1,1.8213,,,,,,,,-0.050335557,-0.4976068,0,0,0,,0,0,0,160,1,VEETS,HB,old,z,./images/VEETSHB.png,,,,,,,,,,,,,,,,,,,,,,,,,,,,,,,,,,,
,,,,,,,,,,,,,,,,,5d0e711c91721f001a919f11,61,2022-02-12_12h16.50.344,lexical_decision_task_DD_L5,2021.2.3,Win32,59.68011459,,,,,,,,,,,0.7494,1,,,,,,,,,,,,,,m,1,0.7494,,,,,,,,-0.050335557,-0.4976068,0,0,0,,0,1,1,7,1,WAGON,LB,old,m,./images/WAGONLB.png,,,,,,,,,,,,,,,,,,,,,,,,,,,,,,,,,,,
,,,,,,,,,,,,,,,,,5d0e711c91721f001a919f11,61,2022-02-12_12h16.50.344,lexical_decision_task_DD_L5,2021.2.3,Win32,59.68011459,,,,,,,,,,,0.6951,1,,,,,,,,,,,,,,z,1,0.6951,,,,,,,,-0.050335557,-0.4976068,0,0,0,,0,2,2,129,1,PRANS,C,old,z,./images/PRANS.png,,,,,,,,,,,,,,,,,,,,,,,,,,,,,,,,,,,
,,,,,,,,,,,,,,,,,5d0e711c91721f001a919f11,61,2022-02-12_12h16.50.344,lexical_decision_task_DD_L5,2021.2.3,Win32,59.68011459,,,,,,,,,,,0.7829,1,,,,,,,,,,,,,,m,1,0.7829,,,,,,,,-0.050335557,-0.4976068,0,0,0,,0,3,3,25,1,CHALK,LB,old,m,./images/CHALKLB.png,,,,,,,,,,,,,,,,,,,,,,,,,,,,,,,,,,,
,,,,,,,,,,,,,,,,,5d0e711c91721f001a919f11,61,2022-02-12_12h16.50.344,lexical_decision_task_DD_L5,2021.2.3,Win32,59.68011459,,,,,,,,,,,0.6726,1,,,,,,,,,,,,,,m,1,0.6726,,,,,,,,-0.050335557,-0.4976068,0,0,0,,0,4,4,10,1,GARDEN,LB,old,m,./images/GARDENLB.png,,,,,,,,,,,,,,,,,,,,,,,,,,,,,,,,,,,
,,,,,,,,,,,,,,,,,5d0e711c91721f001a919f11,61,2022-02-12_12h16.50.344,lexical_decision_task_DD_L5,2021.2.3,Win32,59.68011459,,,,,,,,,,,1.1995,0,,,,,,,,,,,,,,z,0,1.1995,,,,,,,,-0.050335557,-0.4976068,0,0,0,,0,5,5,33,1,SAUNA,HB,old,m,./images/SAUNAHB.png,,,,,,,,,,,,,,,,,,,,,,,,,,,,,,,,,,,
,,,,,,,,,,,,,,,,,5d0e711c91721f001a919f11,61,2022-02-12_12h16.50.344,lexical_decision_task_DD_L5,2021.2.3,Win32,59.68011459,,,,,,,,,,,0.8543,1,,,,,,,,,,,,,,m,1,0.8543,,,,,,,,-0.050335557,-0.4976068,0,0,0,,0,6,6,58,1,CANOE,LB,old,m,./images/CANOELB.png,,,,,,,,,,,,,,,,,,,,,,,,,,,,,,,,,,,
,,,,,,,,,,,,,,,,,5d0e711c91721f001a919f11,61,2022-02-12_12h16.50.344,lexical_decision_task_DD_L5,2021.2.3,Win32,59.68011459,,,,,,,,,,,0.8062,1,,,,,,,,,,,,,,z,1,0.8062,,,,,,,,-0.050335557,-0.4976068,0,0,0,,0,7,7,95,1,HANTY,LB,old,z,./images/HANTYLB.png,,,,,,,,,,,,,,,,,,,,,,,,,,,,,,,,,,,
,,,,,,,,,,,,,,,,,5d0e711c91721f001a919f11,61,2022-02-12_12h16.50.344,lexical_decision_task_DD_L5,2021.2.3,Win32,59.68011459,,,,,,,,,,,1.0597,1,,,,,,,,,,,,,,m,1,1.0597,,,,,,,,-0.050335557,-0.4976068,0,0,0,,0,8,8,82,1,PEBBLE,LB,old,m,./images/PEBBLELB.png,,,,,,,,,,,,,,,,,,,,,,,,,,,,,,,,,,,
,,,,,,,,,,,,,,,,,5d0e711c91721f001a919f11,61,2022-02-12_12h16.50.344,lexical_decision_task_DD_L5,2021.2.3,Win32,59.68011459,,,,,,,,,,,1.2156,1,,,,,,,,,,,,,,m,1,1.2156,,,,,,,,-0.050335557,-0.4976068,0,0,0,,0,9,9,83,1,WHISKY,C,old,m,./images/WHISKY.png,,,,,,,,,,,,,,,,,,,,,,,,,,,,,,,,,,,
,,,,,,,,,,,,,,,,,5d0e711c91721f001a919f11,61,2022-02-12_12h16.50.344,lexical_decision_task_DD_L5,2021.2.3,Win32,59.68011459,,,,,,,,,,,2.0315,0,,,,,,,,,,,,,,z,0,2.0315,,,,,,,,-0.050335557,-0.4976068,0,0,0,,0,10,10,57,1,FERRY,HB,old,m,./images/FERRYHB.png,,,,,,,,,,,,,,,,,,,,,,,,,,,,,,,,,,,
,,,,,,,,,,,,,,,,,5d0e711c91721f001a919f11,61,2022-02-12_12h16.50.344,lexical_decision_task_DD_L5,2021.2.3,Win32,59.68011459,,,,,,,,,,,0.9088,1,,,,,,,,,,,,,,z,1,0.9088,,,,,,,,-0.050335557,-0.4976068,0,0,0,,0,11,11,104,1,GITTY,LB,old,z,./images/GITTYLB.png,,,,,,,,,,,,,,,,,,,,,,,,,,,,,,,,,,,
,,,,,,,,,,,,,,,,,5d0e711c91721f001a919f11,61,2022-02-12_12h16.50.344,lexical_decision_task_DD_L5,2021.2.3,Win32,59.68011459,,,,,,,,,,,0.7355,1,,,,,,,,,,,,,,m,1,0.7355,,,,,,,,-0.050335557,-0.4976068,0,0,0,,0,12,12,73,1,GLOVE,LB,old,m,./images/GLOVELB.png,,,,,,,,,,,,,,,,,,,,,,,,,,,,,,,,,,,
,,,,,,,,,,,,,,,,,5d0e711c91721f001a919f11,61,2022-02-12_12h16.50.344,lexical_decision_task_DD_L5,2021.2.3,Win32,59.68011459,,,,,,,,,,,1.3163,1,,,,,,,,,,,,,,z,1,1.3163,,,,,,,,-0.050335557,-0.4976068,0,0,0,,0,13,13,109,1,BURGE,HB,old,z,./images/BURGEHB.png,,,,,,,,,,,,,,,,,,,,,,,,,,,,,,,,,,,
,,,,,,,,,,,,,,,,,5d0e711c91721f001a919f11,61,2022-02-12_12h16.50.344,lexical_decision_task_DD_L5,2021.2.3,Win32,59.68011459,,,,,,,,,,,0.7746,1,,,,,,,,,,,,,,z,1,0.7746,,,,,,,,-0.050335557,-0.4976068,0,0,0,,0,14,14,92,1,PAIMS,LB,old,z,./images/PAIMSLB.png,,,,,,,,,,,,,,,,,,,,,,,,,,,,,,,,,,,
,,,,,,,,,,,,,,,,,5d0e711c91721f001a919f11,61,2022-02-12_12h16.50.344,lexical_decision_task_DD_L5,2021.2.3,Win32,59.68011459,,,,,,,,,,,0.9393,0,,,,,,,,,,,,,,z,0,0.9393,,,,,,,,-0.050335557,-0.4976068,0,0,0,,0,15,15,36,1,BOILER,HB,old,m,./images/BOILERHB.png,,,,,,,,,,,,,,,,,,,,,,,,,,,,,,,,,,,
,,,,,,,,,,,,,,,,,5d0e711c91721f001a919f11,61,2022-02-12_12h16.50.344,lexical_decision_task_DD_L5,2021.2.3,Win32,59.68011459,,,,,,,,,,,0.6659,1,,,,,,,,,,,,,,m,1,0.6659,,,,,,,,-0.050335557,-0.4976068,0,0,0,,0,16,16,23,1,CLOTH,C,old,m,./images/CLOTH.png,,,,,,,,,,,,,,,,,,,,,,,,,,,,,,,,,,,
,,,,,,,,,,,,,,,,,5d0e711c91721f001a919f11,61,2022-02-12_12h16.50.344,lexical_decision_task_DD_L5,2021.2.3,Win32,59.68011459,,,,,,,,,,,1.1986,0,,,,,,,,,,,,,,m,0,1.1986,,,,,,,,-0.050335557,-0.4976068,0,0,0,,0,17,17,166,1,SHORY,HB,old,z,./images/SHORYHB.png,,,,,,,,,,,,,,,,,,,,,,,,,,,,,,,,,,,
,,,,,,,,,,,,,,,,,5d0e711c91721f001a919f11,61,2022-02-12_12h16.50.344,lexical_decision_task_DD_L5,2021.2.3,Win32,59.68011459,,,,,,,,,,,0.7024,1,,,,,,,,,,,,,,z,1,0.7024,,,,,,,,-0.050335557,-0.4976068,0,0,0,,0,18,18,101,1,GLEET,LB,old,z,./images/GLEETLB.png,,,,,,,,,,,,,,,,,,,,,,,,,,,,,,,,,,,
,,,,,,,,,,,,,,,,,5d0e711c91721f001a919f11,61,2022-02-12_12h16.50.344,lexical_decision_task_DD_L5,2021.2.3,Win32,59.68011459,,,,,,,,,,,0.6832,1,,,,,,,,,,,,,,m,1,0.6832,,,,,,,,-0.050335557,-0.4976068,0,0,0,,0,19,19,16,1,GRAPE,LB,old,m,./images/GRAPELB.png,,,,,,,,,,,,,,,,,,,,,,,,,,,,,,,,,,,
,,,,,,,,,,,,,,,,,5d0e711c91721f001a919f11,61,2022-02-12_12h16.50.344,lexical_decision_task_DD_L5,2021.2.3,Win32,59.68011459,,,,,,,,,,,1.6655,1,,,,,,,,,,,,,,m,1,1.6655,,,,,,,,-0.050335557,-0.4976068,0,0,0,,0,20,20,75,1,HAMMER,HB,old,m,./images/HAMMERHB.png,,,,,,,,,,,,,,,,,,,,,,,,,,,,,,,,,,,
,,,,,,,,,,,,,,,,,5d0e711c91721f001a919f11,61,2022-02-12_12h16.50.344,lexical_decision_task_DD_L5,2021.2.3,Win32,59.68011459,,,,,,,,,,,1.0241,1,,,,,,,,,,,,,,z,1,1.0241,,,,,,,,-0.050335557,-0.4976068,0,0,0,,0,21,21,124,1,TUNCH,HB,old,z,./images/TUNCHHB.png,,,,,,,,,,,,,,,,,,,,,,,,,,,,,,,,,,,
,,,,,,,,,,,,,,,,,5d0e711c91721f001a919f11,61,2022-02-12_12h16.50.344,lexical_decision_task_DD_L5,2021.2.3,Win32,59.68011459,,,,,,,,,,,0.7994,1,,,,,,,,,,,,,,z,1,0.7994,,,,,,,,-0.050335557,-0.4976068,0,0,0,,0,22,22,161,1,BLAPS,LB,old,z,./images/BLAPSLB.png,,,,,,,,,,,,,,,,,,,,,,,,,,,,,,,,,,,
,,,,,,,,,,,,,,,,,5d0e711c91721f001a919f11,61,2022-02-12_12h16.50.344,lexical_decision_task_DD_L5,2021.2.3,Win32,59.68011459,,,,,,,,,,,0.7771,1,,,,,,,,,,,,,,z,1,0.7771,,,,,,,,-0.050335557,-0.4976068,0,0,0,,0,23,23,126,1,GUELS,C,old,z,./images/GUELS.png,,,,,,,,,,,,,,,,,,,,,,,,,,,,,,,,,,,
,,,,,,,,,,,,,,,,,5d0e711c91721f001a919f11,61,2022-02-12_12h16.50.344,lexical_decision_task_DD_L5,2021.2.3,Win32,59.68011459,,,,,,,,,,,1.4657,1,,,,,,,,,,,,,,z,1,1.4657,,,,,,,,-0.050335557,-0.4976068,0,0,0,,0,24,24,145,1,LAMEL,HB,old,z,./images/LAMELHB.png,,,,,,,,,,,,,,,,,,,,,,,,,,,,,,,,,,,
,,,,,,,,,,,,,,,,,5d0e711c91721f001a919f11,61,2022-02-12_12h16.50.344,lexical_decision_task_DD_L5,2021.2.3,Win32,59.68011459,,,,,,,,,,,1.1734,0,,,,,,,,,,,,,,m,0,1.1734,,,,,,,,-0.050335557,-0.4976068,0,0,0,,0,25,25,142,1,PLASK,HB,old,z,./images/PLASKHB.png,,,,,,,,,,,,,,,,,,,,,,,,,,,,,,,,,,,
,,,,,,,,,,,,,,,,,5d0e711c91721f001a919f11,61,2022-02-12_12h16.50.344,lexical_decision_task_DD_L5,2021.2.3,Win32,59.68011459,,,,,,,,,,,0.8781,1,,,,,,,,,,,,,,z,1,0.8781,,,,,,,,-0.050335557,-0.4976068,0,0,0,,0,26,26,88,1,GLUSH,HB,old,z,./images/GLUSHHB.png,,,,,,,,,,,,,,,,,,,,,,,,,,,,,,,,,,,
,,,,,,,,,,,,,,,,,5d0e711c91721f001a919f11,61,2022-02-12_12h16.50.344,lexical_decision_task_DD_L5,2021.2.3,Win32,59.68011459,,,,,,,,,,,0.7913,1,,,,,,,,,,,,,,z,1,0.7913,,,,,,,,-0.050335557,-0.4976068,0,0,0,,0,27,27,158,1,EGECT,LB,old,z,./images/EGECTLB.png,,,,,,,,,,,,,,,,,,,,,,,,,,,,,,,,,,,
,,,,,,,,,,,,,,,,,5d0e711c91721f001a919f11,61,2022-02-12_12h16.50.344,lexical_decision_task_DD_L5,2021.2.3,Win32,59.68011459,,,,,,,,,,,1.2242,1,,,,,,,,,,,,,,z,1,1.2242,,,,,,,,-0.050335557,-0.4976068,0,0,0,,0,28,28,154,1,THINT,HB,old,z,./images/THINTHB.png,,,,,,,,,,,,,,,,,,,,,,,,,,,,,,,,,,,
,,,,,,,,,,,,,,,,,5d0e711c91721f001a919f11,61,2022-02-12_12h16.50.344,lexical_decision_task_DD_L5,2021.2.3,Win32,59.68011459,,,,,,,,,,,0.8686,1,,,,,,,,,,,,,,z,1,0.8686,,,,,,,,-0.050335557,-0.4976068,0,0,0,,0,29,29,157,1,INLER,HB,old,z,./images/INLERHB.png,,,,,,,,,,,,,,,,,,,,,,,,,,,,,,,,,,,
,,,,,,,,,,,,,,,,,5d0e711c91721f001a919f11,61,2022-02-12_12h16.50.344,lexical_decision_task_DD_L5,2021.2.3,Win32,59.68011459,,,,,,,,,,,0.6833,1,,,,,,,,,,,,,,m,1,0.6833,,,,,,,,-0.050335557,-0.4976068,0,0,0,,0,30,30,22,1,CLOWN,LB,old,m,./images/CLOWNLB.png,,,,,,,,,,,,,,,,,,,,,,,,,,,,,,,,,,,
,,,,,,,,,,,,,,,,,5d0e711c91721f001a919f11,61,2022-02-12_12h16.50.344,lexical_decision_task_DD_L5,2021.2.3,Win32,59.68011459,,,,,,,,,,,1.4527,1,,,,,,,,,,,,,,m,1,1.4527,,,,,,,,-0.050335557,-0.4976068,0,0,0,,0,31,31,63,1,BAKER,HB,old,m,./images/BAKERHB.png,,,,,,,,,,,,,,,,,,,,,,,,,,,,,,,,,,,
,,,,,,,,,,,,,,,,,5d0e711c91721f001a919f11,61,2022-02-12_12h16.50.344,lexical_decision_task_DD_L5,2021.2.3,Win32,59.68011459,,,,,,,,,,,1.2702,1,,,,,,,,,,,,,,m,1,1.2702,,,,,,,,-0.050335557,-0.4976068,0,0,0,,0,32,32,68,1,VALLEY,C,old,m,./images/VALLEY.png,,,,,,,,,,,,,,,,,,,,,,,,,,,,,,,,,,,
,,,,,,,,,,,,,,,,,5d0e711c91721f001a919f11,61,2022-02-12_12h16.50.344,lexical_decision_task_DD_L5,2021.2.3,Win32,59.68011459,,,,,,,,,,,1.3379,1,,,,,,,,,,,,,,z,1,1.3379,,,,,,,,-0.050335557,-0.4976068,0,0,0,,0,33,33,130,1,CRILL,HB,old,z,./images/CRILLHB.png,,,,,,,,,,,,,,,,,,,,,,,,,,,,,,,,,,,
,,,,,,,,,,,,,,,,,5d0e711c91721f001a919f11,61,2022-02-12_12h16.50.344,lexical_decision_task_DD_L5,2021.2.3,Win32,59.68011459,,,,,,,,,,,0.6669,1,,,,,,,,,,,,,,z,1,0.6669,,,,,,,,-0.050335557,-0.4976068,0,0,0,,0,34,34,87,1,TRING,C,old,z,./images/TRING.png,,,,,,,,,,,,,,,,,,,,,,,,,,,,,,,,,,,
,,,,,,,,,,,,,,,,,5d0e711c91721f001a919f11,61,2022-02-12_12h16.50.344,lexical_decision_task_DD_L5,2021.2.3,Win32,59.68011459,,,,,,,,,,,0.6665,1,,,,,,,,,,,,,,z,1,0.6665,,,,,,,,-0.050335557,-0.4976068,0,0,0,,0,35,35,131,1,NACES,LB,old,z,./images/NACESLB.png,,,,,,,,,,,,,,,,,,,,,,,,,,,,,,,,,,,
,,,,,,,,,,,,,,,,,5d0e711c91721f001a919f11,61,2022-02-12_12h16.50.344,lexical_decision_task_DD_L5,2021.2.3,Win32,59.68011459,,,,,,,,,,,1.0325,1,,,,,,,,,,,,,,m,1,1.0325,,,,,,,,-0.050335557,-0.4976068,0,0,0,,0,36,36,72,1,FLASK,HB,old,m,./images/FLASKHB.png,,,,,,,,,,,,,,,,,,,,,,,,,,,,,,,,,,,
,,,,,,,,,,,,,,,,,5d0e711c91721f001a919f11,61,2022-02-12_12h16.50.344,lexical_decision_task_DD_L5,2021.2.3,Win32,59.68011459,,,,,,,,,,,1.3193,1,,,,,,,,,,,,,,m,1,1.3193,,,,,,,,-0.050335557,-0.4976068,0,0,0,,0,37,37,3,1,CRATER,HB,old,m,./images/CRATERHB.png,,,,,,,,,,,,,,,,,,,,,,,,,,,,,,,,,,,
,,,,,,,,,,,,,,,,,5d0e711c91721f001a919f11,61,2022-02-12_12h16.50.344,lexical_decision_task_DD_L5,2021.2.3,Win32,59.68011459,,,,,,,,,,,0.6837,1,,,,,,,,,,,,,,z,1,0.6837,,,,,,,,-0.050335557,-0.4976068,0,0,0,,0,38,38,90,1,NEAST,C,old,z,./images/NEAST.png,,,,,,,,,,,,,,,,,,,,,,,,,,,,,,,,,,,
,,,,,,,,,,,,,,,,,5d0e711c91721f001a919f11,61,2022-02-12_12h16.50.344,lexical_decision_task_DD_L5,2021.2.3,Win32,59.68011459,,,,,,,,,,,0.6995,1,,,,,,,,,,,,,,m,1,0.6995,,,,,,,,-0.050335557,-0.4976068,0,0,0,,0,39,39,41,1,STREAM,C,old,m,./images/STREAM.png,,,,,,,,,,,,,,,,,,,,,,,,,,,,,,,,,,,
,,,,,,,,,,,,,,,,,5d0e711c91721f001a919f11,61,2022-02-12_12h16.50.344,lexical_decision_task_DD_L5,2021.2.3,Win32,59.68011459,,,,,,,,,,,1.2076,1,,,,,,,,,,,,,,z,1,1.2076,,,,,,,,-0.050335557,-0.4976068,0,0,0,,0,40,40,136,1,WERVE,HB,old,z,./images/WERVEHB.png,,,,,,,,,,,,,,,,,,,,,,,,,,,,,,,,,,,
,,,,,,,,,,,,,,,,,5d0e711c91721f001a919f11,61,2022-02-12_12h16.50.344,lexical_decision_task_DD_L5,2021.2.3,Win32,59.68011459,,,,,,,,,,,0.7004,1,,,,,,,,,,,,,,m,1,0.7004,,,,,,,,-0.050335557,-0.4976068,0,0,0,space,0,41,41,53,1,POSTER,C,old,m,./images/POSTER.png,5.7295,,,,,,,,,,,,,,,,,,,,,,,,,,,,,,,,,,
,,,,,,,,,,,,,,,,,5d0e711c91721f001a919f11,61,2022-02-12_12h16.50.344,lexical_decision_task_DD_L5,2021.2.3,Win32,59.68011459,,,,,,,,,,,0.9377,1,,,,,,,,,,,,,,z,1,0.9377,,,,,,,,-0.050335557,-0.4976068,0,0,0,,0,42,42,94,1,BLANS,HB,old,z,./images/BLANSHB.png,,,,,,,,,,,,,,,,,,,,,,,,,,,,,,,,,,,
,,,,,,,,,,,,,,,,,5d0e711c91721f001a919f11,61,2022-02-12_12h16.50.344,lexical_decision_task_DD_L5,2021.2.3,Win32,59.68011459,,,,,,,,,,,0.6752,1,,,,,,,,,,,,,,m,1,0.6752,,,,,,,,-0.050335557,-0.4976068,0,0,0,,0,43,43,61,1,ARTIST,LB,old,m,./images/ARTISTLB.png,,,,,,,,,,,,,,,,,,,,,,,,,,,,,,,,,,,
,,,,,,,,,,,,,,,,,5d0e711c91721f001a919f11,61,2022-02-12_12h16.50.344,lexical_decision_task_DD_L5,2021.2.3,Win32,59.68011459,,,,,,,,,,,0.6761,1,,,,,,,,,,,,,,m,1,0.6761,,,,,,,,-0.050335557,-0.4976068,0,0,0,,0,44,44,20,1,GRANNY,C,old,m,./images/GRANNY.png,,,,,,,,,,,,,,,,,,,,,,,,,,,,,,,,,,,
,,,,,,,,,,,,,,,,,5d0e711c91721f001a919f11,61,2022-02-12_12h16.50.344,lexical_decision_task_DD_L5,2021.2.3,Win32,59.68011459,,,,,,,,,,,0.7503,1,,,,,,,,,,,,,,z,1,0.7503,,,,,,,,-0.050335557,-0.4976068,0,0,0,,0,45,45,106,1,CLUMS,HB,old,z,./images/CLUMSHB.png,,,,,,,,,,,,,,,,,,,,,,,,,,,,,,,,,,,
,,,,,,,,,,,,,,,,,5d0e711c91721f001a919f11,61,2022-02-12_12h16.50.344,lexical_decision_task_DD_L5,2021.2.3,Win32,59.68011459,,,,,,,,,,,1.233,1,,,,,,,,,,,,,,z,1,1.233,,,,,,,,-0.050335557,-0.4976068,0,0,0,,0,46,46,111,1,HOSSE,C,old,z,./images/HOSSE.png,,,,,,,,,,,,,,,,,,,,,,,,,,,,,,,,,,,
,,,,,,,,,,,,,,,,,5d0e711c91721f001a919f11,61,2022-02-12_12h16.50.344,lexical_decision_task_DD_L5,2021.2.3,Win32,59.68011459,,,,,,,,,,,0.8743,1,,,,,,,,,,,,,,z,1,0.8743,,,,,,,,-0.050335557,-0.4976068,0,0,0,,0,47,47,114,1,RIKES,C,old,z,./images/RIKES.png,,,,,,,,,,,,,,,,,,,,,,,,,,,,,,,,,,,
,,,,,,,,,,,,,,,,,5d0e711c91721f001a919f11,61,2022-02-12_12h16.50.344,lexical_decision_task_DD_L5,2021.2.3,Win32,59.68011459,,,,,,,,,,,0.8,0,,,,,,,,,,,,,,m,0,0.8,,,,,,,,-0.050335557,-0.4976068,0,0,0,,0,48,48,123,1,SEDGE,C,old,z,./images/SEDGE.png,,,,,,,,,,,,,,,,,,,,,,,,,,,,,,,,,,,
,,,,,,,,,,,,,,,,,5d0e711c91721f001a919f11,61,2022-02-12_12h16.50.344,lexical_decision_task_DD_L5,2021.2.3,Win32,59.68011459,,,,,,,,,,,0.6534,1,,,,,,,,,,,,,,m,1,0.6534,,,,,,,,-0.050335557,-0.4976068,0,0,0,,0,49,49,65,1,SPINE,C,old,m,./images/SPINE.png,,,,,,,,,,,,,,,,,,,,,,,,,,,,,,,,,,,
,,,,,,,,,,,,,,,,,5d0e711c91721f001a919f11,61,2022-02-12_12h16.50.344,lexical_decision_task_DD_L5,2021.2.3,Win32,59.68011459,,,,,,,,,,,0.9033,1,,,,,,,,,,,,,,m,1,0.9033,,,,,,,,-0.050335557,-0.4976068,0,0,0,,0,50,50,4,1,BOXER,LB,old,m,./images/BOXERLB.png,,,,,,,,,,,,,,,,,,,,,,,,,,,,,,,,,,,
,,,,,,,,,,,,,,,,,5d0e711c91721f001a919f11,61,2022-02-12_12h16.50.344,lexical_decision_task_DD_L5,2021.2.3,Win32,59.68011459,,,,,,,,,,,0.9704,1,,,,,,,,,,,,,,z,1,0.9704,,,,,,,,-0.050335557,-0.4976068,0,0,0,,0,51,51,108,1,GRUET,C,old,z,./images/GRUET.png,,,,,,,,,,,,,,,,,,,,,,,,,,,,,,,,,,,
,,,,,,,,,,,,,,,,,5d0e711c91721f001a919f11,61,2022-02-12_12h16.50.344,lexical_decision_task_DD_L5,2021.2.3,Win32,59.68011459,,,,,,,,,,,1.2826,1,,,,,,,,,,,,,,m,1,1.2826,,,,,,,,-0.050335557,-0.4976068,0,0,0,,0,52,52,42,1,CHAIN,HB,old,m,./images/CHAINHB.png,,,,,,,,,,,,,,,,,,,,,,,,,,,,,,,,,,,
,,,,,,,,,,,,,,,,,5d0e711c91721f001a919f11,61,2022-02-12_12h16.50.344,lexical_decision_task_DD_L5,2021.2.3,Win32,59.68011459,,,,,,,,,,,0.8329,1,,,,,,,,,,,,,,z,1,0.8329,,,,,,,,-0.050335557,-0.4976068,0,0,0,,0,53,53,163,1,GAMBA,HB,old,z,./images/GAMBAHB.png,,,,,,,,,,,,,,,,,,,,,,,,,,,,,,,,,,,
,,,,,,,,,,,,,,,,,5d0e711c91721f001a919f11,61,2022-02-12_12h16.50.344,lexical_decision_task_DD_L5,2021.2.3,Win32,59.68011459,,,,,,,,,,,0.8898,1,,,,,,,,,,,,,,m,1,0.8898,,,,,,,,-0.050335557,-0.4976068,0,0,0,,0,54,54,78,1,BROOM,HB,old,m,./images/BROOMHB.png,,,,,,,,,,,,,,,,,,,,,,,,,,,,,,,,,,,
,,,,,,,,,,,,,,,,,5d0e711c91721f001a919f11,61,2022-02-12_12h16.50.344,lexical_decision_task_DD_L5,2021.2.3,Win32,59.68011459,,,,,,,,,,,0.7217,1,,,,,,,,,,,,,,m,1,0.7217,,,,,,,,-0.050335557,-0.4976068,0,0,0,,0,55,55,49,1,BISHOP,LB,old,m,./images/BISHOPLB.png,,,,,,,,,,,,,,,,,,,,,,,,,,,,,,,,,,,
,,,,,,,,,,,,,,,,,5d0e711c91721f001a919f11,61,2022-02-12_12h16.50.344,lexical_decision_task_DD_L5,2021.2.3,Win32,59.68011459,,,,,,,,,,,0.6994,1,,,,,,,,,,,,,,m,1,0.6994,,,,,,,,-0.050335557,-0.4976068,0,0,0,,0,56,56,34,1,RAZOR,LB,old,m,./images/RAZORLB.png,,,,,,,,,,,,,,,,,,,,,,,,,,,,,,,,,,,
,,,,,,,,,,,,,,,,,5d0e711c91721f001a919f11,61,2022-02-12_12h16.50.344,lexical_decision_task_DD_L5,2021.2.3,Win32,59.68011459,,,,,,,,,,,0.7836,1,,,,,,,,,,,,,,z,1,0.7836,,,,,,,,-0.050335557,-0.4976068,0,0,0,,0,57,57,120,1,RINED,C,old,z,./images/RINED.png,,,,,,,,,,,,,,,,,,,,,,,,,,,,,,,,,,,
,,,,,,,,,,,,,,,,,5d0e711c91721f001a919f11,61,2022-02-12_12h16.50.344,lexical_decision_task_DD_L5,2021.2.3,Win32,59.68011459,,,,,,,,,,,0.7594,1,,,,,,,,,,,,,,m,1,0.7594,,,,,,,,-0.050335557,-0.4976068,0,0,0,,0,58,58,15,1,COLLAR,HB,old,m,./images/COLLARHB.png,,,,,,,,,,,,,,,,,,,,,,,,,,,,,,,,,,,
,,,,,,,,,,,,,,,,,5d0e711c91721f001a919f11,61,2022-02-12_12h16.50.344,lexical_decision_task_DD_L5,2021.2.3,Win32,59.68011459,,,,,,,,,,,0.6847,1,,,,,,,,,,,,,,z,1,0.6847,,,,,,,,-0.050335557,-0.4976068,0,0,0,,0,59,59,143,1,MONGS,LB,old,z,./images/MONGSLB.png,,,,,,,,,,,,,,,,,,,,,,,,,,,,,,,,,,,
,,,,,,,,,,,,,,,,,5d0e711c91721f001a919f11,61,2022-02-12_12h16.50.344,lexical_decision_task_DD_L5,2021.2.3,Win32,59.68011459,,,,,,,,,,,0.6617,1,,,,,,,,,,,,,,m,1,0.6617,,,,,,,,-0.050335557,-0.4976068,0,0,0,,0,60,60,14,1,FENCE,C,old,m,./images/FENCE.png,,,,,,,,,,,,,,,,,,,,,,,,,,,,,,,,,,,
,,,,,,,,,,,,,,,,,5d0e711c91721f001a919f11,61,2022-02-12_12h16.50.344,lexical_decision_task_DD_L5,2021.2.3,Win32,59.68011459,,,,,,,,,,,0.6901,1,,,,,,,,,,,,,,z,1,0.6901,,,,,,,,-0.050335557,-0.4976068,0,0,0,,0,61,61,119,1,PAFER,LB,old,z,./images/PAFERLB.png,,,,,,,,,,,,,,,,,,,,,,,,,,,,,,,,,,,
,,,,,,,,,,,,,,,,,5d0e711c91721f001a919f11,61,2022-02-12_12h16.50.344,lexical_decision_task_DD_L5,2021.2.3,Win32,59.68011459,,,,,,,,,,,1.208,1,,,,,,,,,,,,,,z,1,1.208,,,,,,,,-0.050335557,-0.4976068,0,0,0,,0,62,62,133,1,POWDY,HB,old,z,./images/POWDYHB.png,,,,,,,,,,,,,,,,,,,,,,,,,,,,,,,,,,,
,,,,,,,,,,,,,,,,,5d0e711c91721f001a919f11,61,2022-02-12_12h16.50.344,lexical_decision_task_DD_L5,2021.2.3,Win32,59.68011459,,,,,,,,,,,0.8097,1,,,,,,,,,,,,,,z,1,0.8097,,,,,,,,-0.050335557,-0.4976068,0,0,0,,0,63,63,155,1,CANGY,LB,old,z,./images/CANGYLB.png,,,,,,,,,,,,,,,,,,,,,,,,,,,,,,,,,,,
,,,,,,,,,,,,,,,,,5d0e711c91721f001a919f11,61,2022-02-12_12h16.50.344,lexical_decision_task_DD_L5,2021.2.3,Win32,59.68011459,,,,,,,,,,,0.7858,1,,,,,,,,,,,,,,m,1,0.7858,,,,,,,,-0.050335557,-0.4976068,0,0,0,,0,64,64,31,1,STEAK,LB,old,m,./images/STEAKLB.png,,,,,,,,,,,,,,,,,,,,,,,,,,,,,,,,,,,
,,,,,,,,,,,,,,,,,5d0e711c91721f001a919f11,61,2022-02-12_12h16.50.344,lexical_decision_task_DD_L5,2021.2.3,Win32,59.68011459,,,,,,,,,,,0.5931,1,,,,,,,,,,,,,,m,1,0.5931,,,,,,,,-0.050335557,-0.4976068,0,0,0,,0,65,65,2,1,STOVE,C,old,m,./images/STOVE.png,,,,,,,,,,,,,,,,,,,,,,,,,,,,,,,,,,,
,,,,,,,,,,,,,,,,,5d0e711c91721f001a919f11,61,2022-02-12_12h16.50.344,lexical_decision_task_DD_L5,2021.2.3,Win32,59.68011459,,,,,,,,,,,0.719,1,,,,,,,,,,,,,,m,1,0.719,,,,,,,,-0.050335557,-0.4976068,0,0,0,,0,66,66,40,1,SNAKE,LB,old,m,./images/SNAKELB.png,,,,,,,,,,,,,,,,,,,,,,,,,,,,,,,,,,,
,,,,,,,,,,,,,,,,,5d0e711c91721f001a919f11,61,2022-02-12_12h16.50.344,lexical_decision_task_DD_L5,2021.2.3,Win32,59.68011459,,,,,,,,,,,0.6836,1,,,,,,,,,,,,,,m,1,0.6836,,,,,,,,-0.050335557,-0.4976068,0,0,0,,0,67,67,79,1,RULER,LB,old,m,./images/RULERLB.png,,,,,,,,,,,,,,,,,,,,,,,,,,,,,,,,,,,
,,,,,,,,,,,,,,,,,5d0e711c91721f001a919f11,61,2022-02-12_12h16.50.344,lexical_decision_task_DD_L5,2021.2.3,Win32,59.68011459,,,,,,,,,,,0.7091,1,,,,,,,,,,,,,,z,1,0.7091,,,,,,,,-0.050335557,-0.4976068,0,0,0,,0,68,68,159,1,CUDDY,C,old,z,./images/CUDDY.png,,,,,,,,,,,,,,,,,,,,,,,,,,,,,,,,,,,
,,,,,,,,,,,,,,,,,5d0e711c91721f001a919f11,61,2022-02-12_12h16.50.344,lexical_decision_task_DD_L5,2021.2.3,Win32,59.68011459,,,,,,,,,,,0.8033,1,,,,,,,,,,,,,,m,1,0.8033,,,,,,,,-0.050335557,-0.4976068,0,0,0,,0,69,69,44,1,BASKET,C,old,m,./images/BASKET.png,,,,,,,,,,,,,,,,,,,,,,,,,,,,,,,,,,,
,,,,,,,,,,,,,,,,,5d0e711c91721f001a919f11,61,2022-02-12_12h16.50.344,lexical_decision_task_DD_L5,2021.2.3,Win32,59.68011459,,,,,,,,,,,1.0836,1,,,,,,,,,,,,,,z,1,1.0836,,,,,,,,-0.050335557,-0.4976068,0,0,0,,0,70,70,153,1,CLUPS,C,old,z,./images/CLUPS.png,,,,,,,,,,,,,,,,,,,,,,,,,,,,,,,,,,,
,,,,,,,,,,,,,,,,,5d0e711c91721f001a919f11,61,2022-02-12_12h16.50.344,lexical_decision_task_DD_L5,2021.2.3,Win32,59.68011459,,,,,,,,,,,0.6553,1,,,,,,,,,,,,,,z,1,0.6553,,,,,,,,-0.050335557,-0.4976068,0,0,0,,0,71,71,117,1,STEEG,C,old,z,./images/STEEG.png,,,,,,,,,,,,,,,,,,,,,,,,,,,,,,,,,,,
,,,,,,,,,,,,,,,,,5d0e711c91721f001a919f11,61,2022-02-12_12h16.50.344,lexical_decision_task_DD_L5,2021.2.3,Win32,59.68011459,,,,,,,,,,,0.6174,1,,,,,,,,,,,,,,m,1,0.6174,,,,,,,,-0.050335557,-0.4976068,0,0,0,,0,72,72,29,1,PISTOL,C,old,m,./images/PISTOL.png,,,,,,,,,,,,,,,,,,,,,,,,,,,,,,,,,,,
,,,,,,,,,,,,,,,,,5d0e711c91721f001a919f11,61,2022-02-12_12h16.50.344,lexical_decision_task_DD_L5,2021.2.3,Win32,59.68011459,,,,,,,,,,,1.1171,1,,,,,,,,,,,,,,m,1,1.1171,,,,,,,,-0.050335557,-0.4976068,0,0,0,,0,73,73,52,1,DESERT,LB,old,m,./images/DESERTLB.png,,,,,,,,,,,,,,,,,,,,,,,,,,,,,,,,,,,
,,,,,,,,,,,,,,,,,5d0e711c91721f001a919f11,61,2022-02-12_12h16.50.344,lexical_decision_task_DD_L5,2021.2.3,Win32,59.68011459,,,,,,,,,,,0.6838,1,,,,,,,,,,,,,,z,1,0.6838,,,,,,,,-0.050335557,-0.4976068,0,0,0,,0,74,74,113,1,LINEW,LB,old,z,./images/LINEWLB.png,,,,,,,,,,,,,,,,,,,,,,,,,,,,,,,,,,,
,,,,,,,,,,,,,,,,,5d0e711c91721f001a919f11,61,2022-02-12_12h16.50.344,lexical_decision_task_DD_L5,2021.2.3,Win32,59.68011459,,,,,,,,,,,1.0233,1,,,,,,,,,,,,,,m,1,1.0233,,,,,,,,-0.050335557,-0.4976068,0,0,0,,0,75,75,51,1,SAUCE,HB,old,m,./images/SAUCEHB.png,,,,,,,,,,,,,,,,,,,,,,,,,,,,,,,,,,,
,,,,,,,,,,,,,,,,,5d0e711c91721f001a919f11,61,2022-02-12_12h16.50.344,lexical_decision_task_DD_L5,2021.2.3,Win32,59.68011459,,,,,,,,,,,0.6437,1,,,,,,,,,,,,,,z,1,0.6437,,,,,,,,-0.050335557,-0.4976068,0,0,0,,0,76,76,156,1,HIXES,C,old,z,./images/HIXES.png,,,,,,,,,,,,,,,,,,,,,,,,,,,,,,,,,,,
,,,,,,,,,,,,,,,,,5d0e711c91721f001a919f11,61,2022-02-12_12h16.50.344,lexical_decision_task_DD_L5,2021.2.3,Win32,59.68011459,,,,,,,,,,,1.2692,1,,,,,,,,,,,,,,z,1,1.2692,,,,,,,,-0.050335557,-0.4976068,0,0,0,,0,77,77,93,1,SMONE,C,old,z,./images/SMONE.png,,,,,,,,,,,,,,,,,,,,,,,,,,,,,,,,,,,
,,,,,,,,,,,,,,,,,5d0e711c91721f001a919f11,61,2022-02-12_12h16.50.344,lexical_decision_task_DD_L5,2021.2.3,Win32,59.68011459,,,,,,,,,,,0.9338,1,,,,,,,,,,,,,,z,1,0.9338,,,,,,,,-0.050335557,-0.4976068,0,0,0,,0,78,78,121,1,CEERS,HB,old,z,./images/CEERSHB.png,,,,,,,,,,,,,,,,,,,,,,,,,,,,,,,,,,,
,,,,,,,,,,,,,,,,,5d0e711c91721f001a919f11,61,2022-02-12_12h16.50.344,lexical_decision_task_DD_L5,2021.2.3,Win32,59.68011459,,,,,,,,,,,1.9114,1,,,,,,,,,,,,,,z,1,1.9114,,,,,,,,-0.050335557,-0.4976068,0,0,0,,0,79,79,91,1,SHENS,HB,old,z,./images/SHENSHB.png,,,,,,,,,,,,,,,,,,,,,,,,,,,,,,,,,,,
,,,,,,,,,,,,,,,,,5d0e711c91721f001a919f11,61,2022-02-12_12h16.50.344,lexical_decision_task_DD_L5,2021.2.3,Win32,59.68011459,,,,,,,,,,,0.6354,1,,,,,,,,,,,,,,m,1,0.6354,,,,,,,,-0.050335557,-0.4976068,0,0,0,,0,80,80,64,1,BRIDE,LB,old,m,./images/BRIDELB.png,,,,,,,,,,,,,,,,,,,,,,,,,,,,,,,,,,,
,,,,,,,,,,,,,,,,,5d0e711c91721f001a919f11,61,2022-02-12_12h16.50.344,lexical_decision_task_DD_L5,2021.2.3,Win32,59.68011459,,,,,,,,,,,0.7663,1,,,,,,,,,,,,,,m,1,0.7663,,,,,,,,-0.050335557,-0.4976068,0,0,0,,0,81,81,47,1,LAGOON,C,old,m,./images/LAGOON.png,,,,,,,,,,,,,,,,,,,,,,,,,,,,,,,,,,,
,,,,,,,,,,,,,,,,,5d0e711c91721f001a919f11,61,2022-02-12_12h16.50.344,lexical_decision_task_DD_L5,2021.2.3,Win32,59.68011459,,,,,,,,,,,0.6263,1,,,,,,,,,,,,,,m,1,0.6263,,,,,,,,-0.050335557,-0.4976068,0,0,0,,0,82,82,71,1,BUBBLE,C,old,m,./images/BUBBLE.png,,,,,,,,,,,,,,,,,,,,,,,,,,,,,,,,,,,
,,,,,,,,,,,,,,,,,5d0e711c91721f001a919f11,61,2022-02-12_12h16.50.344,lexical_decision_task_DD_L5,2021.2.3,Win32,59.68011459,,,,,,,,,,,0.9944,1,,,,,,,,,,,,,,z,1,0.9944,,,,,,,,-0.050335557,-0.4976068,0,0,0,space,0,83,83,102,1,DULLE,C,old,z,./images/DULLE.png,5.445,,,,,,,,,,,,,,,,,,,,,,,,,,,,,,,,,,
,,,,,,,,,,,,,,,,,5d0e711c91721f001a919f11,61,2022-02-12_12h16.50.344,lexical_decision_task_DD_L5,2021.2.3,Win32,59.68011459,,,,,,,,,,,0.5941,1,,,,,,,,,,,,,,m,1,0.5941,,,,,,,,-0.050335557,-0.4976068,0,0,0,,0,84,84,1,1,TOWEL,LB,old,m,./images/TOWELLB.png,,,,,,,,,,,,,,,,,,,,,,,,,,,,,,,,,,,
,,,,,,,,,,,,,,,,,5d0e711c91721f001a919f11,61,2022-02-12_12h16.50.344,lexical_decision_task_DD_L5,2021.2.3,Win32,59.68011459,,,,,,,,,,,0.8657,0,,,,,,,,,,,,,,m,0,0.8657,,,,,,,,-0.050335557,-0.4976068,0,0,0,,0,85,85,128,1,GRIFT,LB,old,z,./images/GRIFTLB.png,,,,,,,,,,,,,,,,,,,,,,,,,,,,,,,,,,,
,,,,,,,,,,,,,,,,,5d0e711c91721f001a919f11,61,2022-02-12_12h16.50.344,lexical_decision_task_DD_L5,2021.2.3,Win32,59.68011459,,,,,,,,,,,0.7443,1,,,,,,,,,,,,,,z,1,0.7443,,,,,,,,-0.050335557,-0.4976068,0,0,0,,0,86,86,132,1,SCIFF,C,old,z,./images/SCIFF.png,,,,,,,,,,,,,,,,,,,,,,,,,,,,,,,,,,,
,,,,,,,,,,,,,,,,,5d0e711c91721f001a919f11,61,2022-02-12_12h16.50.344,lexical_decision_task_DD_L5,2021.2.3,Win32,59.68011459,,,,,,,,,,,0.712,1,,,,,,,,,,,,,,z,1,0.712,,,,,,,,-0.050335557,-0.4976068,0,0,0,,0,87,87,105,1,MOKER,C,old,z,./images/MOKER.png,,,,,,,,,,,,,,,,,,,,,,,,,,,,,,,,,,,
,,,,,,,,,,,,,,,,,5d0e711c91721f001a919f11,61,2022-02-12_12h16.50.344,lexical_decision_task_DD_L5,2021.2.3,Win32,59.68011459,,,,,,,,,,,0.6335,1,,,,,,,,,,,,,,m,1,0.6335,,,,,,,,-0.050335557,-0.4976068,0,0,0,,0,88,88,77,1,WHEEL,C,old,m,./images/WHEEL.png,,,,,,,,,,,,,,,,,,,,,,,,,,,,,,,,,,,
,,,,,,,,,,,,,,,,,5d0e711c91721f001a919f11,61,2022-02-12_12h16.50.344,lexical_decision_task_DD_L5,2021.2.3,Win32,59.68011459,,,,,,,,,,,0.5904,1,,,,,,,,,,,,,,m,1,0.5904,,,,,,,,-0.050335557,-0.4976068,0,0,0,,0,89,89,26,1,CLOUD,C,old,m,./images/CLOUD.png,,,,,,,,,,,,,,,,,,,,,,,,,,,,,,,,,,,
,,,,,,,,,,,,,,,,,5d0e711c91721f001a919f11,61,2022-02-12_12h16.50.344,lexical_decision_task_DD_L5,2021.2.3,Win32,59.68011459,,,,,,,,,,,0.6599,1,,,,,,,,,,,,,,z,1,0.6599,,,,,,,,-0.050335557,-0.4976068,0,0,0,,0,90,90,137,1,JOOST,LB,old,z,./images/JOOSTLB.png,,,,,,,,,,,,,,,,,,,,,,,,,,,,,,,,,,,
,,,,,,,,,,,,,,,,,5d0e711c91721f001a919f11,61,2022-02-12_12h16.50.344,lexical_decision_task_DD_L5,2021.2.3,Win32,59.68011459,,,,,,,,,,,1.7653,0,,,,,,,,,,,,,,z,0,1.7653,,,,,,,,-0.050335557,-0.4976068,0,0,0,,0,91,91,81,1,DRILL,HB,old,m,./images/DRILLHB.png,,,,,,,,,,,,,,,,,,,,,,,,,,,,,,,,,,,
,,,,,,,,,,,,,,,,,5d0e711c91721f001a919f11,61,2022-02-12_12h16.50.344,lexical_decision_task_DD_L5,2021.2.3,Win32,59.68011459,,,,,,,,,,,0.7664,1,,,,,,,,,,,,,,z,1,0.7664,,,,,,,,-0.050335557,-0.4976068,0,0,0,,0,92,92,96,1,KEAMS,C,old,z,./images/KEAMS.png,,,,,,,,,,,,,,,,,,,,,,,,,,,,,,,,,,,
,,,,,,,,,,,,,,,,,5d0e711c91721f001a919f11,61,2022-02-12_12h16.50.344,lexical_decision_task_DD_L5,2021.2.3,Win32,59.68011459,,,,,,,,,,,1.3421,1,,,,,,,,,,,,,,m,1,1.3421,,,,,,,,-0.050335557,-0.4976068,0,0,0,,0,93,93,60,1,CURRY,HB,old,m,./images/CURRYHB.png,,,,,,,,,,,,,,,,,,,,,,,,,,,,,,,,,,,
,,,,,,,,,,,,,,,,,5d0e711c91721f001a919f11,61,2022-02-12_12h16.50.344,lexical_decision_task_DD_L5,2021.2.3,Win32,59.68011459,,,,,,,,,,,0.7994,1,,,,,,,,,,,,,,m,1,0.7994,,,,,,,,-0.050335557,-0.4976068,0,0,0,,0,94,94,8,1,CLIFF,C,old,m,./images/CLIFF.png,,,,,,,,,,,,,,,,,,,,,,,,,,,,,,,,,,,
,,,,,,,,,,,,,,,,,5d0e711c91721f001a919f11,61,2022-02-12_12h16.50.344,lexical_decision_task_DD_L5,2021.2.3,Win32,59.68011459,,,,,,,,,,,0.6745,1,,,,,,,,,,,,,,z,1,0.6745,,,,,,,,-0.050335557,-0.4976068,0,0,0,,0,95,95,150,1,NOOLS,C,old,z,./images/NOOLS.png,,,,,,,,,,,,,,,,,,,,,,,,,,,,,,,,,,,
,,,,,,,,,,,,,,,,,5d0e711c91721f001a919f11,61,2022-02-12_12h16.50.344,lexical_decision_task_DD_L5,2021.2.3,Win32,59.68011459,,,,,,,,,,,1.1413,1,,,,,,,,,,,,,,m,1,1.1413,,,,,,,,-0.050335557,-0.4976068,0,0,0,,0,96,96,27,1,BUTTER,HB,old,m,./images/BUTTERHB.png,,,,,,,,,,,,,,,,,,,,,,,,,,,,,,,,,,,
,,,,,,,,,,,,,,,,,5d0e711c91721f001a919f11,61,2022-02-12_12h16.50.344,lexical_decision_task_DD_L5,2021.2.3,Win32,59.68011459,,,,,,,,,,,1.1363,1,,,,,,,,,,,,,,m,1,1.1363,,,,,,,,-0.050335557,-0.4976068,0,0,0,,0,97,97,45,1,MONKEY,HB,old,m,./images/MONKEYHB.png,,,,,,,,,,,,,,,,,,,,,,,,,,,,,,,,,,,
,,,,,,,,,,,,,,,,,5d0e711c91721f001a919f11,61,2022-02-12_12h16.50.344,lexical_decision_task_DD_L5,2021.2.3,Win32,59.68011459,,,,,,,,,,,1.4101,1,,,,,,,,,,,,,,z,1,1.4101,,,,,,,,-0.050335557,-0.4976068,0,0,0,,0,98,98,100,1,DRIBS,HB,old,z,./images/DRIBSHB.png,,,,,,,,,,,,,,,,,,,,,,,,,,,,,,,,,,,
,,,,,,,,,,,,,,,,,5d0e711c91721f001a919f11,61,2022-02-12_12h16.50.344,lexical_decision_task_DD_L5,2021.2.3,Win32,59.68011459,,,,,,,,,,,1.3989,1,,,,,,,,,,,,,,m,1,1.3989,,,,,,,,-0.050335557,-0.4976068,0,0,0,,0,99,99,70,1,BANANA,LB,old,m,./images/BANANALB.png,,,,,,,,,,,,,,,,,,,,,,,,,,,,,,,,,,,
,,,,,,,,,,,,,,,,,5d0e711c91721f001a919f11,61,2022-02-12_12h16.50.344,lexical_decision_task_DD_L5,2021.2.3,Win32,59.68011459,,,,,,,,,,,1.3598,1,,,,,,,,,,,,,,z,1,1.3598,,,,,,,,-0.050335557,-0.4976068,0,0,0,,0,100,100,162,1,LEICH,C,old,z,./images/LEICH.png,,,,,,,,,,,,,,,,,,,,,,,,,,,,,,,,,,,
,,,,,,,,,,,,,,,,,5d0e711c91721f001a919f11,61,2022-02-12_12h16.50.344,lexical_decision_task_DD_L5,2021.2.3,Win32,59.68011459,,,,,,,,,,,1.0018,1,,,,,,,,,,,,,,z,1,1.0018,,,,,,,,-0.050335557,-0.4976068,0,0,0,,0,101,101,148,1,JOMS,HB,old,z,./images/JOMSHB.png,,,,,,,,,,,,,,,,,,,,,,,,,,,,,,,,,,,
,,,,,,,,,,,,,,,,,5d0e711c91721f001a919f11,61,2022-02-12_12h16.50.344,lexical_decision_task_DD_L5,2021.2.3,Win32,59.68011459,,,,,,,,,,,0.736,1,,,,,,,,,,,,,,z,1,0.736,,,,,,,,-0.050335557,-0.4976068,0,0,0,,0,102,102,165,1,TROWN,C,old,z,./images/TROWN.png,,,,,,,,,,,,,,,,,,,,,,,,,,,,,,,,,,,
,,,,,,,,,,,,,,,,,5d0e711c91721f001a919f11,61,2022-02-12_12h16.50.344,lexical_decision_task_DD_L5,2021.2.3,Win32,59.68011459,,,,,,,,,,,0.5606,1,,,,,,,,,,,,,,z,1,0.5606,,,,,,,,-0.050335557,-0.4976068,0,0,0,,0,103,103,167,1,ZONET,LB,old,z,./images/ZONETLB.png,,,,,,,,,,,,,,,,,,,,,,,,,,,,,,,,,,,
,,,,,,,,,,,,,,,,,5d0e711c91721f001a919f11,61,2022-02-12_12h16.50.344,lexical_decision_task_DD_L5,2021.2.3,Win32,59.68011459,,,,,,,,,,,0.5869,1,,,,,,,,,,,,,,z,1,0.5869,,,,,,,,-0.050335557,-0.4976068,0,0,0,,0,104,104,152,1,FRAIN,LB,old,z,./images/FRAINLB.png,,,,,,,,,,,,,,,,,,,,,,,,,,,,,,,,,,,
,,,,,,,,,,,,,,,,,5d0e711c91721f001a919f11,61,2022-02-12_12h16.50.344,lexical_decision_task_DD_L5,2021.2.3,Win32,59.68011459,,,,,,,,,,,1.2327,1,,,,,,,,,,,,,,m,1,1.2327,,,,,,,,-0.050335557,-0.4976068,0,0,0,,0,105,105,12,1,BLOKE,HB,old,m,./images/BLOKEHB.png,,,,,,,,,,,,,,,,,,,,,,,,,,,,,,,,,,,
,,,,,,,,,,,,,,,,,5d0e711c91721f001a919f11,61,2022-02-12_12h16.50.344,lexical_decision_task_DD_L5,2021.2.3,Win32,59.68011459,,,,,,,,,,,0.7662,1,,,,,,,,,,,,,,z,1,0.7662,,,,,,,,-0.050335557,-0.4976068,0,0,0,,0,106,106,98,1,BAMPS,LB,old,z,./images/BAMPSLB.png,,,,,,,,,,,,,,,,,,,,,,,,,,,,,,,,,,,
,,,,,,,,,,,,,,,,,5d0e711c91721f001a919f11,61,2022-02-12_12h16.50.344,lexical_decision_task_DD_L5,2021.2.3,Win32,59.68011459,,,,,,,,,,,0.8996,1,,,,,,,,,,,,,,z,1,0.8996,,,,,,,,-0.050335557,-0.4976068,0,0,0,,0,107,107,134,1,TROSS,LB,old,z,./images/TROSSLB.png,,,,,,,,,,,,,,,,,,,,,,,,,,,,,,,,,,,
,,,,,,,,,,,,,,,,,5d0e711c91721f001a919f11,61,2022-02-12_12h16.50.344,lexical_decision_task_DD_L5,2021.2.3,Win32,59.68011459,,,,,,,,,,,0.8213,1,,,,,,,,,,,,,,m,1,0.8213,,,,,,,,-0.050335557,-0.4976068,0,0,0,,0,108,108,67,1,POKER,LB,old,m,./images/POKERLB.png,,,,,,,,,,,,,,,,,,,,,,,,,,,,,,,,,,,
,,,,,,,,,,,,,,,,,5d0e711c91721f001a919f11,61,2022-02-12_12h16.50.344,lexical_decision_task_DD_L5,2021.2.3,Win32,59.68011459,,,,,,,,,,,0.6445,1,,,,,,,,,,,,,,m,1,0.6445,,,,,,,,-0.050335557,-0.4976068,0,0,0,,0,109,109,32,1,HOCKEY,C,old,m,./images/HOCKEY.png,,,,,,,,,,,,,,,,,,,,,,,,,,,,,,,,,,,
,,,,,,,,,,,,,,,,,5d0e711c91721f001a919f11,61,2022-02-12_12h16.50.344,lexical_decision_task_DD_L5,2021.2.3,Win32,59.68011459,,,,,,,,,,,0.7666,1,,,,,,,,,,,,,,z,1,0.7666,,,,,,,,-0.050335557,-0.4976068,0,0,0,,0,110,110,107,1,FASKS,LB,old,z,./images/FASKSLB.png,,,,,,,,,,,,,,,,,,,,,,,,,,,,,,,,,,,
,,,,,,,,,,,,,,,,,5d0e711c91721f001a919f11,61,2022-02-12_12h16.50.344,lexical_decision_task_DD_L5,2021.2.3,Win32,59.68011459,,,,,,,,,,,0.8022,1,,,,,,,,,,,,,,z,1,0.8022,,,,,,,,-0.050335557,-0.4976068,0,0,0,,0,111,111,138,1,PLICE,C,old,z,./images/PLICE.png,,,,,,,,,,,,,,,,,,,,,,,,,,,,,,,,,,,
,,,,,,,,,,,,,,,,,5d0e711c91721f001a919f11,61,2022-02-12_12h16.50.344,lexical_decision_task_DD_L5,2021.2.3,Win32,59.68011459,,,,,,,,,,,0.9241,1,,,,,,,,,,,,,,z,1,0.9241,,,,,,,,-0.050335557,-0.4976068,0,0,0,,0,112,112,140,1,DOVET,LB,old,z,./images/DOVETLB.png,,,,,,,,,,,,,,,,,,,,,,,,,,,,,,,,,,,
,,,,,,,,,,,,,,,,,5d0e711c91721f001a919f11,61,2022-02-12_12h16.50.344,lexical_decision_task_DD_L5,2021.2.3,Win32,59.68011459,,,,,,,,,,,0.667,1,,,,,,,,,,,,,,m,1,0.667,,,,,,,,-0.050335557,-0.4976068,0,0,0,,0,113,113,17,1,PARADE,C,old,m,./images/PARADE.png,,,,,,,,,,,,,,,,,,,,,,,,,,,,,,,,,,,
,,,,,,,,,,,,,,,,,5d0e711c91721f001a919f11,61,2022-02-12_12h16.50.344,lexical_decision_task_DD_L5,2021.2.3,Win32,59.68011459,,,,,,,,,,,1.5164,1,,,,,,,,,,,,,,z,1,1.5164,,,,,,,,-0.050335557,-0.4976068,0,0,0,,0,114,114,115,1,MAWNS,HB,old,z,./images/MAWNSHB.png,,,,,,,,,,,,,,,,,,,,,,,,,,,,,,,,,,,
,,,,,,,,,,,,,,,,,5d0e711c91721f001a919f11,61,2022-02-12_12h16.50.344,lexical_decision_task_DD_L5,2021.2.3,Win32,59.68011459,,,,,,,,,,,1.1389,1,,,,,,,,,,,,,,m,1,1.1389,,,,,,,,-0.050335557,-0.4976068,0,0,0,,0,115,115,66,1,STATUE,HB,old,m,./images/STATUEHB.png,,,,,,,,,,,,,,,,,,,,,,,,,,,,,,,,,,,
,,,,,,,,,,,,,,,,,5d0e711c91721f001a919f11,61,2022-02-12_12h16.50.344,lexical_decision_task_DD_L5,2021.2.3,Win32,59.68011459,,,,,,,,,,,0.6838,1,,,,,,,,,,,,,,z,1,0.6838,,,,,,,,-0.050335557,-0.4976068,0,0,0,,0,116,116,89,1,DRIEK,LB,old,z,./images/DRIEKLB.png,,,,,,,,,,,,,,,,,,,,,,,,,,,,,,,,,,,
,,,,,,,,,,,,,,,,,5d0e711c91721f001a919f11,61,2022-02-12_12h16.50.344,lexical_decision_task_DD_L5,2021.2.3,Win32,59.68011459,,,,,,,,,,,0.8112,1,,,,,,,,,,,,,,m,1,0.8112,,,,,,,,-0.050335557,-0.4976068,0,0,0,,0,117,117,35,1,LLAMA,C,old,m,./images/LLAMA.png,,,,,,,,,,,,,,,,,,,,,,,,,,,,,,,,,,,
,,,,,,,,,,,,,,,,,5d0e711c91721f001a919f11,61,2022-02-12_12h16.50.344,lexical_decision_task_DD_L5,2021.2.3,Win32,59.68011459,,,,,,,,,,,0.6537,1,,,,,,,,,,,,,,m,1,0.6537,,,,,,,,-0.050335557,-0.4976068,0,0,0,,0,118,118,50,1,PILOT,C,old,m,./images/PILOT.png,,,,,,,,,,,,,,,,,,,,,,,,,,,,,,,,,,,
,,,,,,,,,,,,,,,,,5d0e711c91721f001a919f11,61,2022-02-12_12h16.50.344,lexical_decision_task_DD_L5,2021.2.3,Win32,59.68011459,,,,,,,,,,,0.6382,1,,,,,,,,,,,,,,m,1,0.6382,,,,,,,,-0.050335557,-0.4976068,0,0,0,,0,119,119,80,1,PLANET,C,old,m,./images/PLANET.png,,,,,,,,,,,,,,,,,,,,,,,,,,,,,,,,,,,
,,,,,,,,,,,,,,,,,5d0e711c91721f001a919f11,61,2022-02-12_12h16.50.344,lexical_decision_task_DD_L5,2021.2.3,Win32,59.68011459,,,,,,,,,,,0.8835,1,,,,,,,,,,,,,,z,1,0.8835,,,,,,,,-0.050335557,-0.4976068,0,0,0,,0,120,120,112,1,MYING,HB,old,z,./images/MYINGHB.png,,,,,,,,,,,,,,,,,,,,,,,,,,,,,,,,,,,
,,,,,,,,,,,,,,,,,5d0e711c91721f001a919f11,61,2022-02-12_12h16.50.344,lexical_decision_task_DD_L5,2021.2.3,Win32,59.68011459,,,,,,,,,,,0.7595,1,,,,,,,,,,,,,,z,1,0.7595,,,,,,,,-0.050335557,-0.4976068,0,0,0,,0,121,121,103,1,FLORT,HB,old,z,./images/FLORTHB.png,,,,,,,,,,,,,,,,,,,,,,,,,,,,,,,,,,,
,,,,,,,,,,,,,,,,,5d0e711c91721f001a919f11,61,2022-02-12_12h16.50.344,lexical_decision_task_DD_L5,2021.2.3,Win32,59.68011459,,,,,,,,,,,0.6563,1,,,,,,,,,,,,,,m,1,0.6563,,,,,,,,-0.050335557,-0.4976068,0,0,0,,0,122,122,59,1,BRUSH,C,old,m,./images/BRUSH.png,,,,,,,,,,,,,,,,,,,,,,,,,,,,,,,,,,,
,,,,,,,,,,,,,,,,,5d0e711c91721f001a919f11,61,2022-02-12_12h16.50.344,lexical_decision_task_DD_L5,2021.2.3,Win32,59.68011459,,,,,,,,,,,1.9655,0,,,,,,,,,,,,,,z,0,1.9655,,,,,,,,-0.050335557,-0.4976068,0,0,0,,0,123,123,48,1,SHIELD,HB,old,m,./images/SHIELDHB.png,,,,,,,,,,,,,,,,,,,,,,,,,,,,,,,,,,,
,,,,,,,,,,,,,,,,,5d0e711c91721f001a919f11,61,2022-02-12_12h16.50.344,lexical_decision_task_DD_L5,2021.2.3,Win32,59.68011459,,,,,,,,,,,0.6345,1,,,,,,,,,,,,,,m,1,0.6345,,,,,,,,-0.050335557,-0.4976068,0,0,0,,0,124,124,74,1,JUMPER,C,old,m,./images/JUMPER.png,,,,,,,,,,,,,,,,,,,,,,,,,,,,,,,,,,,
,,,,,,,,,,,,,,,,,5d0e711c91721f001a919f11,61,2022-02-12_12h16.50.344,lexical_decision_task_DD_L5,2021.2.3,Win32,59.68011459,,,,,,,,,,,1.1167,1,,,,,,,,,,,,,,z,1,1.1167,,,,,,,,-0.050335557,-0.4976068,0,0,0,space,0,125,125,151,1,TINKY,HB,old,z,./images/TINKYHB.png,5.3865,,,,,,,,,,,,,,,,,,,,,,,,,,,,,,,,,,
,,,,,,,,,,,,,,,,,5d0e711c91721f001a919f11,61,2022-02-12_12h16.50.344,lexical_decision_task_DD_L5,2021.2.3,Win32,59.68011459,,,,,,,,,,,0.9664,0,,,,,,,,,,,,,,z,0,0.9664,,,,,,,,-0.050335557,-0.4976068,0,0,0,,0,126,126,6,1,STAIN,HB,old,m,./images/STAINHB.png,,,,,,,,,,,,,,,,,,,,,,,,,,,,,,,,,,,
,,,,,,,,,,,,,,,,,5d0e711c91721f001a919f11,61,2022-02-12_12h16.50.344,lexical_decision_task_DD_L5,2021.2.3,Win32,59.68011459,,,,,,,,,,,0.5777,1,,,,,,,,,,,,,,m,1,0.5777,,,,,,,,-0.050335557,-0.4976068,0,0,0,,0,127,127,5,1,BAMBOO,C,old,m,./images/BAMBOO.png,,,,,,,,,,,,,,,,,,,,,,,,,,,,,,,,,,,
,,,,,,,,,,,,,,,,,5d0e711c91721f001a919f11,61,2022-02-12_12h16.50.344,lexical_decision_task_DD_L5,2021.2.3,Win32,59.68011459,,,,,,,,,,,0.6058,1,,,,,,,,,,,,,,z,1,0.6058,,,,,,,,-0.050335557,-0.4976068,0,0,0,,0,128,128,144,1,NAIRY,C,old,z,./images/NAIRY.png,,,,,,,,,,,,,,,,,,,,,,,,,,,,,,,,,,,
,,,,,,,,,,,,,,,,,5d0e711c91721f001a919f11,61,2022-02-12_12h16.50.344,lexical_decision_task_DD_L5,2021.2.3,Win32,59.68011459,,,,,,,,,,,0.6589,1,,,,,,,,,,,,,,z,1,0.6589,,,,,,,,-0.050335557,-0.4976068,0,0,0,,0,129,129,84,1,HAXES,C,old,z,./images/HAXES.png,,,,,,,,,,,,,,,,,,,,,,,,,,,,,,,,,,,
,,,,,,,,,,,,,,,,,5d0e711c91721f001a919f11,61,2022-02-12_12h16.50.344,lexical_decision_task_DD_L5,2021.2.3,Win32,59.68011459,,,,,,,,,,,0.6785,1,,,,,,,,,,,,,,m,1,0.6785,,,,,,,,-0.050335557,-0.4976068,0,0,0,,0,130,130,13,1,BUNNY,LB,old,m,./images/BUNNYLB.png,,,,,,,,,,,,,,,,,,,,,,,,,,,,,,,,,,,
,,,,,,,,,,,,,,,,,5d0e711c91721f001a919f11,61,2022-02-12_12h16.50.344,lexical_decision_task_DD_L5,2021.2.3,Win32,59.68011459,,,,,,,,,,,1.0662,1,,,,,,,,,,,,,,z,1,1.0662,,,,,,,,-0.050335557,-0.4976068,0,0,0,,0,131,131,85,1,CHULK,HB,old,z,./images/CHULKHB.png,,,,,,,,,,,,,,,,,,,,,,,,,,,,,,,,,,,
,,,,,,,,,,,,,,,,,5d0e711c91721f001a919f11,61,2022-02-12_12h16.50.344,lexical_decision_task_DD_L5,2021.2.3,Win32,59.68011459,,,,,,,,,,,0.6836,1,,,,,,,,,,,,,,m,1,0.6836,,,,,,,,-0.050335557,-0.4976068,0,0,0,,0,132,132,46,1,MUMMY,LB,old,m,./images/MUMMYLB.png,,,,,,,,,,,,,,,,,,,,,,,,,,,,,,,,,,,
,,,,,,,,,,,,,,,,,5d0e711c91721f001a919f11,61,2022-02-12_12h16.50.344,lexical_decision_task_DD_L5,2021.2.3,Win32,59.68011459,,,,,,,,,,,0.9671,1,,,,,,,,,,,,,,m,1,0.9671,,,,,,,,-0.050335557,-0.4976068,0,0,0,,0,133,133,21,1,DANCER,HB,old,m,./images/DANCERHB.png,,,,,,,,,,,,,,,,,,,,,,,,,,,,,,,,,,,
,,,,,,,,,,,,,,,,,5d0e711c91721f001a919f11,61,2022-02-12_12h16.50.344,lexical_decision_task_DD_L5,2021.2.3,Win32,59.68011459,,,,,,,,,,,1.0112,1,,,,,,,,,,,,,,m,1,1.0112,,,,,,,,-0.050335557,-0.4976068,0,0,0,,0,134,134,30,1,SLOPE,HB,old,m,./images/SLOPEHB.png,,,,,,,,,,,,,,,,,,,,,,,,,,,,,,,,,,,
,,,,,,,,,,,,,,,,,5d0e711c91721f001a919f11,61,2022-02-12_12h16.50.344,lexical_decision_task_DD_L5,2021.2.3,Win32,59.68011459,,,,,,,,,,,0.7598,1,,,,,,,,,,,,,,m,1,0.7598,,,,,,,,-0.050335557,-0.4976068,0,0,0,,0,135,135,56,1,HEATER,C,old,m,./images/HEATER.png,,,,,,,,,,,,,,,,,,,,,,,,,,,,,,,,,,,
,,,,,,,,,,,,,,,,,5d0e711c91721f001a919f11,61,2022-02-12_12h16.50.344,lexical_decision_task_DD_L5,2021.2.3,Win32,59.68011459,,,,,,,,,,,0.8835,1,,,,,,,,,,,,,,m,1,0.8835,,,,,,,,-0.050335557,-0.4976068,0,0,0,,0,136,136,76,1,MIDGET,LB,old,m,./images/MIDGETLB.png,,,,,,,,,,,,,,,,,,,,,,,,,,,,,,,,,,,
,,,,,,,,,,,,,,,,,5d0e711c91721f001a919f11,61,2022-02-12_12h16.50.344,lexical_decision_task_DD_L5,2021.2.3,Win32,59.68011459,,,,,,,,,,,0.7035,1,,,,,,,,,,,,,,z,1,0.7035,,,,,,,,-0.050335557,-0.4976068,0,0,0,,0,137,137,146,1,MOOST,LB,old,z,./images/MOOSTLB.png,,,,,,,,,,,,,,,,,,,,,,,,,,,,,,,,,,,
,,,,,,,,,,,,,,,,,5d0e711c91721f001a919f11,61,2022-02-12_12h16.50.344,lexical_decision_task_DD_L5,2021.2.3,Win32,59.68011459,,,,,,,,,,,1.6328,1,,,,,,,,,,,,,,z,1,1.6328,,,,,,,,-0.050335557,-0.4976068,0,0,0,,0,138,138,118,1,BAVEL,HB,old,z,./images/BAVELHB.png,,,,,,,,,,,,,,,,,,,,,,,,,,,,,,,,,,,
,,,,,,,,,,,,,,,,,5d0e711c91721f001a919f11,61,2022-02-12_12h16.50.344,lexical_decision_task_DD_L5,2021.2.3,Win32,59.68011459,,,,,,,,,,,0.5787,1,,,,,,,,,,,,,,z,1,0.5787,,,,,,,,-0.050335557,-0.4976068,0,0,0,,0,139,139,135,1,JOODY,C,old,z,./images/JOODY.png,,,,,,,,,,,,,,,,,,,,,,,,,,,,,,,,,,,
,,,,,,,,,,,,,,,,,5d0e711c91721f001a919f11,61,2022-02-12_12h16.50.344,lexical_decision_task_DD_L5,2021.2.3,Win32,59.68011459,,,,,,,,,,,0.7327,1,,,,,,,,,,,,,,m,1,0.7327,,,,,,,,-0.050335557,-0.4976068,0,0,0,,0,140,140,39,1,CANDY,HB,old,m,./images/CANDYHB.png,,,,,,,,,,,,,,,,,,,,,,,,,,,,,,,,,,,
,,,,,,,,,,,,,,,,,5d0e711c91721f001a919f11,61,2022-02-12_12h16.50.344,lexical_decision_task_DD_L5,2021.2.3,Win32,59.68011459,,,,,,,,,,,0.7346,1,,,,,,,,,,,,,,z,1,0.7346,,,,,,,,-0.050335557,-0.4976068,0,0,0,,0,141,141,164,1,SGREW,LB,old,z,./images/SGREWLB.png,,,,,,,,,,,,,,,,,,,,,,,,,,,,,,,,,,,
,,,,,,,,,,,,,,,,,5d0e711c91721f001a919f11,61,2022-02-12_12h16.50.344,lexical_decision_task_DD_L5,2021.2.3,Win32,59.68011459,,,,,,,,,,,0.6359,1,,,,,,,,,,,,,,m,1,0.6359,,,,,,,,-0.050335557,-0.4976068,0,0,0,,0,142,142,19,1,DONKEY,LB,old,m,./images/DONKEYLB.png,,,,,,,,,,,,,,,,,,,,,,,,,,,,,,,,,,,
,,,,,,,,,,,,,,,,,5d0e711c91721f001a919f11,61,2022-02-12_12h16.50.344,lexical_decision_task_DD_L5,2021.2.3,Win32,59.68011459,,,,,,,,,,,0.6582,1,,,,,,,,,,,,,,z,1,0.6582,,,,,,,,-0.050335557,-0.4976068,0,0,0,,0,143,143,141,1,PLEET,C,old,z,./images/PLEET.png,,,,,,,,,,,,,,,,,,,,,,,,,,,,,,,,,,,
,,,,,,,,,,,,,,,,,5d0e711c91721f001a919f11,61,2022-02-12_12h16.50.344,lexical_decision_task_DD_L5,2021.2.3,Win32,59.68011459,,,,,,,,,,,0.5992,1,,,,,,,,,,,,,,m,1,0.5992,,,,,,,,-0.050335557,-0.4976068,0,0,0,,0,144,144,38,1,ENGINE,C,old,m,./images/ENGINE.png,,,,,,,,,,,,,,,,,,,,,,,,,,,,,,,,,,,
,,,,,,,,,,,,,,,,,5d0e711c91721f001a919f11,61,2022-02-12_12h16.50.344,lexical_decision_task_DD_L5,2021.2.3,Win32,59.68011459,,,,,,,,,,,0.6497,1,,,,,,,,,,,,,,z,1,0.6497,,,,,,,,-0.050335557,-0.4976068,0,0,0,,0,145,145,99,1,BACKY,C,old,z,./images/BACKY.png,,,,,,,,,,,,,,,,,,,,,,,,,,,,,,,,,,,
,,,,,,,,,,,,,,,,,5d0e711c91721f001a919f11,61,2022-02-12_12h16.50.344,lexical_decision_task_DD_L5,2021.2.3,Win32,59.68011459,,,,,,,,,,,1.8679,1,,,,,,,,,,,,,,m,1,1.8679,,,,,,,,-0.050335557,-0.4976068,0,0,0,,0,146,146,9,1,DIVER,HB,old,m,./images/DIVERHB.png,,,,,,,,,,,,,,,,,,,,,,,,,,,,,,,,,,,
,,,,,,,,,,,,,,,,,5d0e711c91721f001a919f11,61,2022-02-12_12h16.50.344,lexical_decision_task_DD_L5,2021.2.3,Win32,59.68011459,,,,,,,,,,,0.6544,1,,,,,,,,,,,,,,z,1,0.6544,,,,,,,,-0.050335557,-0.4976068,0,0,0,,0,147,147,147,1,ZOLES,C,old,z,./images/ZOLES.png,,,,,,,,,,,,,,,,,,,,,,,,,,,,,,,,,,,
,,,,,,,,,,,,,,,,,5d0e711c91721f001a919f11,61,2022-02-12_12h16.50.344,lexical_decision_task_DD_L5,2021.2.3,Win32,59.68011459,,,,,,,,,,,0.783,1,,,,,,,,,,,,,,m,1,0.783,,,,,,,,-0.050335557,-0.4976068,0,0,0,,0,148,148,43,1,STOOL,LB,old,m,./images/STOOLLB.png,,,,,,,,,,,,,,,,,,,,,,,,,,,,,,,,,,,
,,,,,,,,,,,,,,,,,5d0e711c91721f001a919f11,61,2022-02-12_12h16.50.344,lexical_decision_task_DD_L5,2021.2.3,Win32,59.68011459,,,,,,,,,,,0.6384,1,,,,,,,,,,,,,,z,1,0.6384,,,,,,,,-0.050335557,-0.4976068,0,0,0,,0,149,149,116,1,BALGY,LB,old,z,./images/BALGYLB.png,,,,,,,,,,,,,,,,,,,,,,,,,,,,,,,,,,,
,,,,,,,,,,,,,,,,,5d0e711c91721f001a919f11,61,2022-02-12_12h16.50.344,lexical_decision_task_DD_L5,2021.2.3,Win32,59.68011459,,,,,,,,,,,1.3596,1,,,,,,,,,,,,,,z,1,1.3596,,,,,,,,-0.050335557,-0.4976068,0,0,0,,0,150,150,127,1,NINDY,HB,old,z,./images/NINDYHB.png,,,,,,,,,,,,,,,,,,,,,,,,,,,,,,,,,,,
,,,,,,,,,,,,,,,,,5d0e711c91721f001a919f11,61,2022-02-12_12h16.50.344,lexical_decision_task_DD_L5,2021.2.3,Win32,59.68011459,,,,,,,,,,,1.4585,1,,,,,,,,,,,,,,m,1,1.4585,,,,,,,,-0.050335557,-0.4976068,0,0,0,,0,151,151,0,1,WALNUT,HB,old,m,./images/WALNUTHB.png,,,,,,,,,,,,,,,,,,,,,,,,,,,,,,,,,,,
,,,,,,,,,,,,,,,,,5d0e711c91721f001a919f11,61,2022-02-12_12h16.50.344,lexical_decision_task_DD_L5,2021.2.3,Win32,59.68011459,,,,,,,,,,,0.8195,1,,,,,,,,,,,,,,z,1,0.8195,,,,,,,,-0.050335557,-0.4976068,0,0,0,,0,152,152,125,1,MOOKY,LB,old,z,./images/MOOKYLB.png,,,,,,,,,,,,,,,,,,,,,,,,,,,,,,,,,,,
,,,,,,,,,,,,,,,,,5d0e711c91721f001a919f11,61,2022-02-12_12h16.50.344,lexical_decision_task_DD_L5,2021.2.3,Win32,59.68011459,,,,,,,,,,,0.8161,0,,,,,,,,,,,,,,z,0,0.8161,,,,,,,,-0.050335557,-0.4976068,0,0,0,,0,153,153,24,1,FLESH,HB,old,m,./images/FLESHHB.png,,,,,,,,,,,,,,,,,,,,,,,,,,,,,,,,,,,
,,,,,,,,,,,,,,,,,5d0e711c91721f001a919f11,61,2022-02-12_12h16.50.344,lexical_decision_task_DD_L5,2021.2.3,Win32,59.68011459,,,,,,,,,,,0.8452,1,,,,,,,,,,,,,,m,1,0.8452,,,,,,,,-0.050335557,-0.4976068,0,0,0,,0,154,154,55,1,ALLEY,LB,old,m,./images/ALLEYLB.png,,,,,,,,,,,,,,,,,,,,,,,,,,,,,,,,,,,
,,,,,,,,,,,,,,,,,5d0e711c91721f001a919f11,61,2022-02-12_12h16.50.344,lexical_decision_task_DD_L5,2021.2.3,Win32,59.68011459,,,,,,,,,,,0.7765,1,,,,,,,,,,,,,,z,1,0.7765,,,,,,,,-0.050335557,-0.4976068,0,0,0,,0,155,155,86,1,AIFED,LB,old,z,./images/AIFEDLB.png,,,,,,,,,,,,,,,,,,,,,,,,,,,,,,,,,,,
,,,,,,,,,,,,,,,,,5d0e711c91721f001a919f11,61,2022-02-12_12h16.50.344,lexical_decision_task_DD_L5,2021.2.3,Win32,59.68011459,,,,,,,,,,,0.823,1,,,,,,,,,,,,,,z,1,0.823,,,,,,,,-0.050335557,-0.4976068,0,0,0,,0,156,156,110,1,CRUNK,LB,old,z,./images/CRUNKLB.png,,,,,,,,,,,,,,,,,,,,,,,,,,,,,,,,,,,
,,,,,,,,,,,,,,,,,5d0e711c91721f001a919f11,61,2022-02-12_12h16.50.344,lexical_decision_task_DD_L5,2021.2.3,Win32,59.68011459,,,,,,,,,,,0.6831,1,,,,,,,,,,,,,,m,1,0.6831,,,,,,,,-0.050335557,-0.4976068,0,0,0,,0,157,157,37,1,TIGER,LB,old,m,./images/TIGERLB.png,,,,,,,,,,,,,,,,,,,,,,,,,,,,,,,,,,,
,,,,,,,,,,,,,,,,,5d0e711c91721f001a919f11,61,2022-02-12_12h16.50.344,lexical_decision_task_DD_L5,2021.2.3,Win32,59.68011459,,,,,,,,,,,0.6865,1,,,,,,,,,,,,,,m,1,0.6865,,,,,,,,-0.050335557,-0.4976068,0,0,0,,0,158,158,62,1,MAMMAL,C,old,m,./images/MAMMAL.png,,,,,,,,,,,,,,,,,,,,,,,,,,,,,,,,,,,
,,,,,,,,,,,,,,,,,5d0e711c91721f001a919f11,61,2022-02-12_12h16.50.344,lexical_decision_task_DD_L5,2021.2.3,Win32,59.68011459,,,,,,,,,,,0.9993,1,,,,,,,,,,,,,,m,1,0.9993,,,,,,,,-0.050335557,-0.4976068,0,0,0,,0,159,159,54,1,CHERRY,HB,old,m,./images/CHERRYHB.png,,,,,,,,,,,,,,,,,,,,,,,,,,,,,,,,,,,
,,,,,,,,,,,,,,,,,5d0e711c91721f001a919f11,61,2022-02-12_12h16.50.344,lexical_decision_task_DD_L5,2021.2.3,Win32,59.68011459,,,,,,,,,,,0.928,1,,,,,,,,,,,,,,m,1,0.928,,,,,,,,-0.050335557,-0.4976068,0,0,0,,0,160,160,69,1,ARROW,HB,old,m,./images/ARROWHB.png,,,,,,,,,,,,,,,,,,,,,,,,,,,,,,,,,,,
,,,,,,,,,,,,,,,,,5d0e711c91721f001a919f11,61,2022-02-12_12h16.50.344,lexical_decision_task_DD_L5,2021.2.3,Win32,59.68011459,,,,,,,,,,,0.6914,1,,,,,,,,,,,,,,z,1,0.6914,,,,,,,,-0.050335557,-0.4976068,0,0,0,,0,161,161,122,1,BLOOT,LB,old,z,./images/BLOOTLB.png,,,,,,,,,,,,,,,,,,,,,,,,,,,,,,,,,,,
,,,,,,,,,,,,,,,,,5d0e711c91721f001a919f11,61,2022-02-12_12h16.50.344,lexical_decision_task_DD_L5,2021.2.3,Win32,59.68011459,,,,,,,,,,,0.6332,1,,,,,,,,,,,,,,z,1,0.6332,,,,,,,,-0.050335557,-0.4976068,0,0,0,,0,162,162,149,1,VEASE,LB,old,z,./images/VEASELB.png,,,,,,,,,,,,,,,,,,,,,,,,,,,,,,,,,,,
,,,,,,,,,,,,,,,,,5d0e711c91721f001a919f11,61,2022-02-12_12h16.50.344,lexical_decision_task_DD_L5,2021.2.3,Win32,59.68011459,,,,,,,,,,,1.2491,1,,,,,,,,,,,,,,z,1,1.2491,,,,,,,,-0.050335557,-0.4976068,0,0,0,,0,163,163,139,1,BLEAR,HB,old,z,./images/BLEARHB.png,,,,,,,,,,,,,,,,,,,,,,,,,,,,,,,,,,,
,,,,,,,,,,,,,,,,,5d0e711c91721f001a919f11,61,2022-02-12_12h16.50.344,lexical_decision_task_DD_L5,2021.2.3,Win32,59.68011459,,,,,,,,,,,1.4166,1,,,,,,,,,,,,,,z,1,1.4166,,,,,,,,-0.050335557,-0.4976068,0,0,0,,0,164,164,97,1,CHIDS,HB,old,z,./images/CHIDSHB.png,,,,,,,,,,,,,,,,,,,,,,,,,,,,,,,,,,,
,,,,,,,,,,,,,,,,,5d0e711c91721f001a919f11,61,2022-02-12_12h16.50.344,lexical_decision_task_DD_L5,2021.2.3,Win32,59.68011459,,,,,,,,,,,0.6166,1,,,,,,,,,,,,,,m,1,0.6166,,,,,,,,-0.050335557,-0.4976068,0,0,0,,0,165,165,11,1,MEDAL,C,old,m,./images/MEDAL.png,,,,,,,,,,,,,,,,,,,,,,,,,,,,,,,,,,,
,,,,,,,,,,,,,,,,,5d0e711c91721f001a919f11,61,2022-02-12_12h16.50.344,lexical_decision_task_DD_L5,2021.2.3,Win32,59.68011459,,,,,,,,,,,0.9826,1,,,,,,,,,,,,,,m,1,0.9826,,,,,,,,-0.050335557,-0.4976068,0,0,0,,0,166,166,18,1,PARCEL,HB,old,m,./images/PARCELHB.png,,,,,,,,,,,,,,,,,,,,,,,,,,,,,,,,,,,
,,,,,,,,,,,,,,,,,5d0e711c91721f001a919f11,61,2022-02-12_12h16.50.344,lexical_decision_task_DD_L5,2021.2.3,Win32,59.68011459,,,,,,,,,,,0.6083,1,,,,,,,,,,,,,,m,1,0.6083,,,,,,,,-0.050335557,-0.4976068,0,0,0,,0,167,167,28,1,CASINO,LB,old,m,./images/CASINOLB.png,,,,,,,,,,,,,,,,,,,,,,,,,,,,,,,,,,,
,,,,,,,,,,,,,,,,,5d0e711c91721f001a919f11,61,2022-02-12_12h16.50.344,lexical_decision_task_DD_L5,2021.2.3,Win32,59.68011459,,,,,,,,,,,,,,,,,,,,,,,,,,,,,,,,,,,,,,,,,,,,,,,,How likely will it be that you will recognize the words presented clearly on a scale of 0 (not likely) to 100 (most likely)?,,,,,-0.02042036,-0.432573762,1,0,0,jol_adv,6,18.68,0,0,0,0,1,,,,,,,,,,,,,,,,,,,,,
,,,,,,,,,,,,,,,,,5d0e711c91721f001a919f11,61,2022-02-12_12h16.50.344,lexical_decision_task_DD_L5,2021.2.3,Win32,59.68011459,,,,,,,,,,,,,,,,,,,,,,,,,,,,,,,,,,,,,,,,,,,,,,,,How likely will it be that you will recognize the words presented slighly blurred on a scale of 0 (not likely) to 100 (most likely)?,,,,,,,,,,,6,2.5612,0,1,1,1,1,,,,,,,,,,,,,,,,,,,,,
,,,,,,,,,,,,,,,,,5d0e711c91721f001a919f11,61,2022-02-12_12h16.50.344,lexical_decision_task_DD_L5,2021.2.3,Win32,59.68011459,,,,,,,,,,,,,,,,,,,,,,,,,,,,,,,,,,,,,,,,,,,,,,,,How likely will it be that you will recognize the words presented very blurred on a scale of 0 (not likely) to 100 (most likely)?,,,,,,,,,,,3,6.3981,0,2,2,2,1,,,,,,,,,,,,,,,,,,,,,
space,31.4639,0.540164426,-0.249180595,0,0,0,,,,,,1,test,"In the next phase you will be presented with the words from the the first phase. Your job is to decide whether you remember seeing the word or not. If you remember seeing the word press ""old"" or type ""m"". If you do not remember seeing the word press ""new"" or type ""z"". Please press the space bar or click on continue to begin. ",,,5d0e711c91721f001a919f11,61,2022-02-12_12h16.50.344,lexical_decision_task_DD_L5,2021.2.3,Win32,59.68011459,,,,,,,,,,,,,,,,,,,,,,,,,,,,,,,,,,,,,,,,,,,,,,,,,,,,,,,,,,,,,,,,,,0,0,0,0,1,,,,,,,,,,,,,,,,
space,1.0239,0.540164426,-0.249180595,0,0,0,,,,,,1,test,"In the next phase you will be presented with the words from the the first phase. Your job is to decide whether you remember seeing the word or not. If you remember seeing the word press ""old"" or type ""m"". If you do not remember seeing the word press ""new"" or type ""z"". Please press the space bar or click on continue to begin. ",,,5d0e711c91721f001a919f11,61,2022-02-12_12h16.50.344,lexical_decision_task_DD_L5,2021.2.3,Win32,59.68011459,,,,,,,,,,,,,,,,,,,,,,,,,,,,,,,,,,,,,,,,,,,,,,,,,,,,,,,,,,,,,,,,,,1,0,1,0,1,,,,,,,,,,,,,,,,
,,0.000390133,-0.422168476,1,0,0,,,,,,1,test,"In the next phase you will be presented with the words from the the first phase. Your job is to decide whether you remember seeing the word or not. If you remember seeing the word press ""old"" or type ""m"". If you do not remember seeing the word press ""new"" or type ""z"". Please press the space bar or click on continue to begin. ",,,5d0e711c91721f001a919f11,61,2022-02-12_12h16.50.344,lexical_decision_task_DD_L5,2021.2.3,Win32,59.68011459,,,,,,,,,,,,,,,,,,,,,,,,,,,,,,,,,,,,,,,,,,,,,,,,,,,,,,,,,,,,,,,,,,2,0,2,0,1,instr_done_button,,,,,,,,,,,,,,,
,,-0.015217717,-0.367540724,1,0,0,,,,,,1,test,"In the next phase you will be presented with the words from the the first phase. Your job is to decide whether you remember seeing the word or not. If you remember seeing the word press ""old"" or type ""m"". If you do not remember seeing the word press ""new"" or type ""z"". Please press the space bar or click on continue to begin. ",,,5d0e711c91721f001a919f11,61,2022-02-12_12h16.50.344,lexical_decision_task_DD_L5,2021.2.3,Win32,59.68011459,,,,,,,,,,,,,,,,,,,,,,,,,,,,,,,,,,,,,,,,,,,,,,,,,,,,,,,,,,,,,,,,,,3,0,3,0,1,instr_done_button,,,,,,,,,,,,,,,
,,-0.019119699,-0.377945931,1,0,0,,,,,,1,test,"In the next phase you will be presented with the words from the the first phase. Your job is to decide whether you remember seeing the word or not. If you remember seeing the word press ""old"" or type ""m"". If you do not remember seeing the word press ""new"" or type ""z"". Please press the space bar or click on continue to begin. ",,,5d0e711c91721f001a919f11,61,2022-02-12_12h16.50.344,lexical_decision_task_DD_L5,2021.2.3,Win32,59.68011459,,,,,,,,,,,,,,,,,,,,,,,,,,,,,,,,,,,,,,,,,,,,,,,,,,,,,,,,,,,,,,,,,,4,0,4,0,1,instr_done_button,,,,,,,,,,,,,,,
,,,,,,,,,,,,,,,,,5d0e711c91721f001a919f11,61,2022-02-12_12h16.50.344,lexical_decision_task_DD_L5,2021.2.3,Win32,59.68011459,,,,,,,,,,,3.4633,1,,,,,,,,,,,,,,,,,,,,,,,,-0.019119699,-0.377945931,0,0,0,,,,,,,RULER,LB,m,y,./images/RULERLB.png,,,,,,,,,,,,,,,,,,,,,m,1,3.4633,,,,,,,,0,0,0,79,1
,,,,,,,,,,,,,,,,,5d0e711c91721f001a919f11,61,2022-02-12_12h16.50.344,lexical_decision_task_DD_L5,2021.2.3,Win32,59.68011459,,,,,,,,,,,1.0331,1,,,,,,,,,,,,,,,,,,,,,,,,-0.019119699,-0.377945931,0,0,0,,,,,,,SPINE,C,m,y,./images/SPINE.png,,,,,,,,,,,,,,,,,,,,,m,1,1.0331,,,,,,,,0,1,1,65,1
,,,,,,,,,,,,,,,,,5d0e711c91721f001a919f11,61,2022-02-12_12h16.50.344,lexical_decision_task_DD_L5,2021.2.3,Win32,59.68011459,,,,,,,,,,,2.9151,0,,,,,,,,,,,,,,,,,,,,,,,,-0.019119699,-0.377945931,0,0,0,,,,,,,CRADLE,C,z,y,./images/CRADLE.png,,,,,,,,,,,,,,,,,,,,,m,0,2.9151,,,,,,,,0,2,2,104,1
,,,,,,,,,,,,,,,,,5d0e711c91721f001a919f11,61,2022-02-12_12h16.50.344,lexical_decision_task_DD_L5,2021.2.3,Win32,59.68011459,,,,,,,,,,,1.8248,0,,,,,,,,,,,,,,,,,,,,,,,,-0.019119699,-0.377945931,0,0,0,,,,,,,MEDAL,C,m,y,./images/MEDAL.png,,,,,,,,,,,,,,,,,,,,,z,0,1.8248,,,,,,,,0,3,3,11,1
,,,,,,,,,,,,,,,,,5d0e711c91721f001a919f11,61,2022-02-12_12h16.50.344,lexical_decision_task_DD_L5,2021.2.3,Win32,59.68011459,,,,,,,,,,,1.0326,0,,,,,,,,,,,,,,,,,,,,,,,,-0.019119699,-0.377945931,0,0,0,,,,,,,BOILER,HB,m,y,./images/BOILERHB.png,,,,,,,,,,,,,,,,,,,,,z,0,1.0326,,,,,,,,0,4,4,36,1
,,,,,,,,,,,,,,,,,5d0e711c91721f001a919f11,61,2022-02-12_12h16.50.344,lexical_decision_task_DD_L5,2021.2.3,Win32,59.68011459,,,,,,,,,,,0.7602,0,,,,,,,,,,,,,,,,,,,,,,,,-0.019119699,-0.377945931,0,0,0,,,,,,,CARPET,C,z,y,./images/CARPET.png,,,,,,,,,,,,,,,,,,,,,m,0,0.7602,,,,,,,,0,5,5,137,1
,,,,,,,,,,,,,,,,,5d0e711c91721f001a919f11,61,2022-02-12_12h16.50.344,lexical_decision_task_DD_L5,2021.2.3,Win32,59.68011459,,,,,,,,,,,0.7671,1,,,,,,,,,,,,,,,,,,,,,,,,-0.019119699,-0.377945931,0,0,0,,,,,,,PIMPLE,C,z,y,./images/PIMPLE.png,,,,,,,,,,,,,,,,,,,,,z,1,0.7671,,,,,,,,0,6,6,155,1
,,,,,,,,,,,,,,,,,5d0e711c91721f001a919f11,61,2022-02-12_12h16.50.344,lexical_decision_task_DD_L5,2021.2.3,Win32,59.68011459,,,,,,,,,,,1.2039,1,,,,,,,,,,,,,,,,,,,,,,,,-0.019119699,-0.377945931,0,0,0,,,,,,,STRING,C,z,y,./images/STRING.png,,,,,,,,,,,,,,,,,,,,,z,1,1.2039,,,,,,,,0,7,7,125,1
,,,,,,,,,,,,,,,,,5d0e711c91721f001a919f11,61,2022-02-12_12h16.50.344,lexical_decision_task_DD_L5,2021.2.3,Win32,59.68011459,,,,,,,,,,,1.24,0,,,,,,,,,,,,,,,,,,,,,,,,-0.019119699,-0.377945931,0,0,0,,,,,,,COLLAR,HB,m,y,./images/COLLARHB.png,,,,,,,,,,,,,,,,,,,,,z,0,1.24,,,,,,,,0,8,8,15,1
,,,,,,,,,,,,,,,,,5d0e711c91721f001a919f11,61,2022-02-12_12h16.50.344,lexical_decision_task_DD_L5,2021.2.3,Win32,59.68011459,,,,,,,,,,,1.0571,1,,,,,,,,,,,,,,,,,,,,,,,,-0.019119699,-0.377945931,0,0,0,,,,,,,BELLY,LB,z,y,./images/BELLYLB.png,,,,,,,,,,,,,,,,,,,,,z,1,1.0571,,,,,,,,0,9,9,94,1
,,,,,,,,,,,,,,,,,5d0e711c91721f001a919f11,61,2022-02-12_12h16.50.344,lexical_decision_task_DD_L5,2021.2.3,Win32,59.68011459,,,,,,,,,,,2.1317,0,,,,,,,,,,,,,,,,,,,,,,,,-0.019119699,-0.377945931,0,0,0,,,,,,,PISTOL,C,m,y,./images/PISTOL.png,,,,,,,,,,,,,,,,,,,,,z,0,2.1317,,,,,,,,0,10,10,29,1
,,,,,,,,,,,,,,,,,5d0e711c91721f001a919f11,61,2022-02-12_12h16.50.344,lexical_decision_task_DD_L5,2021.2.3,Win32,59.68011459,,,,,,,,,,,0.9163,1,,,,,,,,,,,,,,,,,,,,,,,,-0.019119699,-0.377945931,0,0,0,,,,,,,WRIST,LB,z,y,./images/WRISTLB.png,,,,,,,,,,,,,,,,,,,,,z,1,0.9163,,,,,,,,0,11,11,109,1
,,,,,,,,,,,,,,,,,5d0e711c91721f001a919f11,61,2022-02-12_12h16.50.344,lexical_decision_task_DD_L5,2021.2.3,Win32,59.68011459,,,,,,,,,,,0.75,1,,,,,,,,,,,,,,,,,,,,,,,,-0.019119699,-0.377945931,0,0,0,,,,,,,CASINO,LB,m,y,./images/CASINOLB.png,,,,,,,,,,,,,,,,,,,,,m,1,0.75,,,,,,,,0,12,12,28,1
,,,,,,,,,,,,,,,,,5d0e711c91721f001a919f11,61,2022-02-12_12h16.50.344,lexical_decision_task_DD_L5,2021.2.3,Win32,59.68011459,,,,,,,,,,,0.5956,1,,,,,,,,,,,,,,,,,,,,,,,,-0.019119699,-0.377945931,0,0,0,,,,,,,ARROW,HB,m,y,./images/ARROWHB.png,,,,,,,,,,,,,,,,,,,,,m,1,0.5956,,,,,,,,0,13,13,69,1
,,,,,,,,,,,,,,,,,5d0e711c91721f001a919f11,61,2022-02-12_12h16.50.344,lexical_decision_task_DD_L5,2021.2.3,Win32,59.68011459,,,,,,,,,,,0.6662,1,,,,,,,,,,,,,,,,,,,,,,,,-0.019119699,-0.377945931,0,0,0,,,,,,,DONKEY,LB,m,y,./images/DONKEYLB.png,,,,,,,,,,,,,,,,,,,,,m,1,0.6662,,,,,,,,0,14,14,19,1
,,,,,,,,,,,,,,,,,5d0e711c91721f001a919f11,61,2022-02-12_12h16.50.344,lexical_decision_task_DD_L5,2021.2.3,Win32,59.68011459,,,,,,,,,,,0.7331,1,,,,,,,,,,,,,,,,,,,,,,,,-0.019119699,-0.377945931,0,0,0,,,,,,,PILOT,C,m,y,./images/PILOT.png,,,,,,,,,,,,,,,,,,,,,m,1,0.7331,,,,,,,,0,15,15,50,1
,,,,,,,,,,,,,,,,,5d0e711c91721f001a919f11,61,2022-02-12_12h16.50.344,lexical_decision_task_DD_L5,2021.2.3,Win32,59.68011459,,,,,,,,,,,0.6921,1,,,,,,,,,,,,,,,,,,,,,,,,-0.019119699,-0.377945931,0,0,0,,,,,,,TIGER,LB,m,y,./images/TIGERLB.png,,,,,,,,,,,,,,,,,,,,,m,1,0.6921,,,,,,,,0,16,16,37,1
,,,,,,,,,,,,,,,,,5d0e711c91721f001a919f11,61,2022-02-12_12h16.50.344,lexical_decision_task_DD_L5,2021.2.3,Win32,59.68011459,,,,,,,,,,,2.9475,1,,,,,,,,,,,,,,,,,,,,,,,,-0.019119699,-0.377945931,0,0,0,,,,,,,STATUE,HB,m,y,./images/STATUEHB.png,,,,,,,,,,,,,,,,,,,,,m,1,2.9475,,,,,,,,0,17,17,66,1
,,,,,,,,,,,,,,,,,5d0e711c91721f001a919f11,61,2022-02-12_12h16.50.344,lexical_decision_task_DD_L5,2021.2.3,Win32,59.68011459,,,,,,,,,,,0.7999,1,,,,,,,,,,,,,,,,,,,,,,,,-0.019119699,-0.377945931,0,0,0,,,,,,,PAINT,LB,z,y,./images/PAINTLB.png,,,,,,,,,,,,,,,,,,,,,z,1,0.7999,,,,,,,,0,18,18,91,1
,,,,,,,,,,,,,,,,,5d0e711c91721f001a919f11,61,2022-02-12_12h16.50.344,lexical_decision_task_DD_L5,2021.2.3,Win32,59.68011459,,,,,,,,,,,0.7662,1,,,,,,,,,,,,,,,,,,,,,,,,-0.019119699,-0.377945931,0,0,0,,,,,,,TRIPOD,HB,z,y,./images/TRIPODHB.png,,,,,,,,,,,,,,,,,,,,,z,1,0.7662,,,,,,,,0,19,19,138,1
,,,,,,,,,,,,,,,,,5d0e711c91721f001a919f11,61,2022-02-12_12h16.50.344,lexical_decision_task_DD_L5,2021.2.3,Win32,59.68011459,,,,,,,,,,,0.6838,0,,,,,,,,,,,,,,,,,,,,,,,,-0.019119699,-0.377945931,0,0,0,,,,,,,CLOUD,C,m,y,./images/CLOUD.png,,,,,,,,,,,,,,,,,,,,,z,0,0.6838,,,,,,,,0,20,20,26,1
,,,,,,,,,,,,,,,,,5d0e711c91721f001a919f11,61,2022-02-12_12h16.50.344,lexical_decision_task_DD_L5,2021.2.3,Win32,59.68011459,,,,,,,,,,,0.7691,1,,,,,,,,,,,,,,,,,,,,,,,,-0.019119699,-0.377945931,0,0,0,,,,,,,SQUARE,HB,z,y,./images/SQUAREHB.png,,,,,,,,,,,,,,,,,,,,,z,1,0.7691,,,,,,,,0,21,21,90,1
,,,,,,,,,,,,,,,,,5d0e711c91721f001a919f11,61,2022-02-12_12h16.50.344,lexical_decision_task_DD_L5,2021.2.3,Win32,59.68011459,,,,,,,,,,,0.7871,1,,,,,,,,,,,,,,,,,,,,,,,,-0.019119699,-0.377945931,0,0,0,,,,,,,SWING,LB,z,y,./images/SWINGLB.png,,,,,,,,,,,,,,,,,,,,,z,1,0.7871,,,,,,,,0,22,22,124,1
,,,,,,,,,,,,,,,,,5d0e711c91721f001a919f11,61,2022-02-12_12h16.50.344,lexical_decision_task_DD_L5,2021.2.3,Win32,59.68011459,,,,,,,,,,,0.7336,1,,,,,,,,,,,,,,,,,,,,,,,,-0.019119699,-0.377945931,0,0,0,,,,,,,DOUGH,LB,z,y,./images/DOUGHLB.png,,,,,,,,,,,,,,,,,,,,,z,1,0.7336,,,,,,,,0,23,23,103,1
,,,,,,,,,,,,,,,,,5d0e711c91721f001a919f11,61,2022-02-12_12h16.50.344,lexical_decision_task_DD_L5,2021.2.3,Win32,59.68011459,,,,,,,,,,,0.9837,1,,,,,,,,,,,,,,,,,,,,,,,,-0.019119699,-0.377945931,0,0,0,,,,,,,PURSE,C,z,y,./images/PURSE.png,,,,,,,,,,,,,,,,,,,,,z,1,0.9837,,,,,,,,0,24,24,146,1
,,,,,,,,,,,,,,,,,5d0e711c91721f001a919f11,61,2022-02-12_12h16.50.344,lexical_decision_task_DD_L5,2021.2.3,Win32,59.68011459,,,,,,,,,,,0.7163,1,,,,,,,,,,,,,,,,,,,,,,,,-0.019119699,-0.377945931,0,0,0,,,,,,,CLOWN,LB,m,y,./images/CLOWNLB.png,,,,,,,,,,,,,,,,,,,,,m,1,0.7163,,,,,,,,0,25,25,22,1
,,,,,,,,,,,,,,,,,5d0e711c91721f001a919f11,61,2022-02-12_12h16.50.344,lexical_decision_task_DD_L5,2021.2.3,Win32,59.68011459,,,,,,,,,,,0.9724,1,,,,,,,,,,,,,,,,,,,,,,,,-0.019119699,-0.377945931,0,0,0,,,,,,,LADDER,C,z,y,./images/LADDER.png,,,,,,,,,,,,,,,,,,,,,z,1,0.9724,,,,,,,,0,26,26,122,1
,,,,,,,,,,,,,,,,,5d0e711c91721f001a919f11,61,2022-02-12_12h16.50.344,lexical_decision_task_DD_L5,2021.2.3,Win32,59.68011459,,,,,,,,,,,0.8729,1,,,,,,,,,,,,,,,,,,,,,,,,-0.019119699,-0.377945931,0,0,0,,,,,,,BUBBLE,C,m,y,./images/BUBBLE.png,,,,,,,,,,,,,,,,,,,,,m,1,0.8729,,,,,,,,0,27,27,71,1
,,,,,,,,,,,,,,,,,5d0e711c91721f001a919f11,61,2022-02-12_12h16.50.344,lexical_decision_task_DD_L5,2021.2.3,Win32,59.68011459,,,,,,,,,,,1.0662,1,,,,,,,,,,,,,,,,,,,,,,,,-0.019119699,-0.377945931,0,0,0,,,,,,,TORCH,C,z,y,./images/TORCH.png,,,,,,,,,,,,,,,,,,,,,z,1,1.0662,,,,,,,,0,28,28,152,1
,,,,,,,,,,,,,,,,,5d0e711c91721f001a919f11,61,2022-02-12_12h16.50.344,lexical_decision_task_DD_L5,2021.2.3,Win32,59.68011459,,,,,,,,,,,0.8165,1,,,,,,,,,,,,,,,,,,,,,,,,-0.019119699,-0.377945931,0,0,0,,,,,,,MOTOR,LB,z,y,./images/MOTORLB.png,,,,,,,,,,,,,,,,,,,,,z,1,0.8165,,,,,,,,0,29,29,97,1
,,,,,,,,,,,,,,,,,5d0e711c91721f001a919f11,61,2022-02-12_12h16.50.344,lexical_decision_task_DD_L5,2021.2.3,Win32,59.68011459,,,,,,,,,,,2.4507,1,,,,,,,,,,,,,,,,,,,,,,,,-0.019119699,-0.377945931,0,0,0,,,,,,,SHIELD,HB,m,y,./images/SHIELDHB.png,,,,,,,,,,,,,,,,,,,,,m,1,2.4507,,,,,,,,0,30,30,48,1
,,,,,,,,,,,,,,,,,5d0e711c91721f001a919f11,61,2022-02-12_12h16.50.344,lexical_decision_task_DD_L5,2021.2.3,Win32,59.68011459,,,,,,,,,,,1.7058,1,,,,,,,,,,,,,,,,,,,,,,,,-0.019119699,-0.377945931,0,0,0,,,,,,,GRAPE,LB,m,y,./images/GRAPELB.png,,,,,,,,,,,,,,,,,,,,,m,1,1.7058,,,,,,,,0,31,31,16,1
,,,,,,,,,,,,,,,,,5d0e711c91721f001a919f11,61,2022-02-12_12h16.50.344,lexical_decision_task_DD_L5,2021.2.3,Win32,59.68011459,,,,,,,,,,,0.7544,1,,,,,,,,,,,,,,,,,,,,,,,,-0.019119699,-0.377945931,0,0,0,,,,,,,LLAMA,C,m,y,./images/LLAMA.png,,,,,,,,,,,,,,,,,,,,,m,1,0.7544,,,,,,,,0,32,32,35,1
,,,,,,,,,,,,,,,,,5d0e711c91721f001a919f11,61,2022-02-12_12h16.50.344,lexical_decision_task_DD_L5,2021.2.3,Win32,59.68011459,,,,,,,,,,,0.7285,1,,,,,,,,,,,,,,,,,,,,,,,,-0.019119699,-0.377945931,0,0,0,,,,,,,PARCEL,HB,m,y,./images/PARCELHB.png,,,,,,,,,,,,,,,,,,,,,m,1,0.7285,,,,,,,,0,33,33,18,1
,,,,,,,,,,,,,,,,,5d0e711c91721f001a919f11,61,2022-02-12_12h16.50.344,lexical_decision_task_DD_L5,2021.2.3,Win32,59.68011459,,,,,,,,,,,2.3396,1,,,,,,,,,,,,,,,,,,,,,,,,-0.019119699,-0.377945931,0,0,0,,,,,,,SCREW,HB,z,y,./images/SCREWHB.png,,,,,,,,,,,,,,,,,,,,,z,1,2.3396,,,,,,,,0,34,34,108,1
,,,,,,,,,,,,,,,,,5d0e711c91721f001a919f11,61,2022-02-12_12h16.50.344,lexical_decision_task_DD_L5,2021.2.3,Win32,59.68011459,,,,,,,,,,,1.2325,1,,,,,,,,,,,,,,,,,,,,,,,,-0.019119699,-0.377945931,0,0,0,,,,,,,CRUST,LB,z,y,./images/CRUSTLB.png,,,,,,,,,,,,,,,,,,,,,z,1,1.2325,,,,,,,,0,35,35,163,1
,,,,,,,,,,,,,,,,,5d0e711c91721f001a919f11,61,2022-02-12_12h16.50.344,lexical_decision_task_DD_L5,2021.2.3,Win32,59.68011459,,,,,,,,,,,1.0526,1,,,,,,,,,,,,,,,,,,,,,,,,-0.019119699,-0.377945931,0,0,0,,,,,,,SPORT,HB,z,y,./images/SPORTHB.png,,,,,,,,,,,,,,,,,,,,,z,1,1.0526,,,,,,,,0,36,36,132,1
,,,,,,,,,,,,,,,,,5d0e711c91721f001a919f11,61,2022-02-12_12h16.50.344,lexical_decision_task_DD_L5,2021.2.3,Win32,59.68011459,,,,,,,,,,,0.7425,1,,,,,,,,,,,,,,,,,,,,,,,,-0.019119699,-0.377945931,0,0,0,,,,,,,WAGON,LB,m,y,./images/WAGONLB.png,,,,,,,,,,,,,,,,,,,,,m,1,0.7425,,,,,,,,0,37,37,7,1
,,,,,,,,,,,,,,,,,5d0e711c91721f001a919f11,61,2022-02-12_12h16.50.344,lexical_decision_task_DD_L5,2021.2.3,Win32,59.68011459,,,,,,,,,,,0.7236,1,,,,,,,,,,,,,,,,,,,,,,,,-0.019119699,-0.377945931,0,0,0,,,,,,,STOVE,C,m,y,./images/STOVE.png,,,,,,,,,,,,,,,,,,,,,m,1,0.7236,,,,,,,,0,38,38,2,1
,,,,,,,,,,,,,,,,,5d0e711c91721f001a919f11,61,2022-02-12_12h16.50.344,lexical_decision_task_DD_L5,2021.2.3,Win32,59.68011459,,,,,,,,,,,0.7,1,,,,,,,,,,,,,,,,,,,,,,,,-0.019119699,-0.377945931,0,0,0,,,,,,,MELON,LB,z,y,./images/MELONLB.png,,,,,,,,,,,,,,,,,,,,,z,1,0.7,,,,,,,,0,39,39,106,1
,,,,,,,,,,,,,,,,,5d0e711c91721f001a919f11,61,2022-02-12_12h16.50.344,lexical_decision_task_DD_L5,2021.2.3,Win32,59.68011459,,,,,,,,,,,1.8894,1,,,,,,,,,,,,,,,,,,,,,,,,-0.019119699,-0.377945931,0,0,0,,,,,,,CRUMB,C,z,y,./images/CRUMB.png,,,,,,,,,,,,,,,,,,,,,z,1,1.8894,,,,,,,,0,40,40,113,1
,,,,,,,,,,,,,,,,,5d0e711c91721f001a919f11,61,2022-02-12_12h16.50.344,lexical_decision_task_DD_L5,2021.2.3,Win32,59.68011459,,,,,,,,,,,0.7048,1,,,,,,,,,,,,,,,,,,,,,,,,-0.019119699,-0.377945931,0,0,0,space,,,,,,BROOM,HB,m,y,./images/BROOMHB.png,6.7305,,,,,,,,,,,,,,,,,,,,m,1,0.7048,,,,,,,,0,41,41,78,1
,,,,,,,,,,,,,,,,,5d0e711c91721f001a919f11,61,2022-02-12_12h16.50.344,lexical_decision_task_DD_L5,2021.2.3,Win32,59.68011459,,,,,,,,,,,1.3333,0,,,,,,,,,,,,,,,,,,,,,,,,-0.019119699,-0.377945931,0,0,0,,,,,,,DIVER,HB,m,y,./images/DIVERHB.png,,,,,,,,,,,,,,,,,,,,,z,0,1.3333,,,,,,,,0,42,42,9,1
,,,,,,,,,,,,,,,,,5d0e711c91721f001a919f11,61,2022-02-12_12h16.50.344,lexical_decision_task_DD_L5,2021.2.3,Win32,59.68011459,,,,,,,,,,,0.7332,1,,,,,,,,,,,,,,,,,,,,,,,,-0.019119699,-0.377945931,0,0,0,,,,,,,JUMPER,C,m,y,./images/JUMPER.png,,,,,,,,,,,,,,,,,,,,,m,1,0.7332,,,,,,,,0,43,43,74,1
,,,,,,,,,,,,,,,,,5d0e711c91721f001a919f11,61,2022-02-12_12h16.50.344,lexical_decision_task_DD_L5,2021.2.3,Win32,59.68011459,,,,,,,,,,,1.6257,1,,,,,,,,,,,,,,,,,,,,,,,,-0.019119699,-0.377945931,0,0,0,,,,,,,CANYON,LB,z,y,./images/CANYONLB.png,,,,,,,,,,,,,,,,,,,,,z,1,1.6257,,,,,,,,0,44,44,118,1
,,,,,,,,,,,,,,,,,5d0e711c91721f001a919f11,61,2022-02-12_12h16.50.344,lexical_decision_task_DD_L5,2021.2.3,Win32,59.68011459,,,,,,,,,,,1.4081,1,,,,,,,,,,,,,,,,,,,,,,,,-0.019119699,-0.377945931,0,0,0,,,,,,,PACKET,C,z,y,./images/PACKET.png,,,,,,,,,,,,,,,,,,,,,z,1,1.4081,,,,,,,,0,45,45,140,1
,,,,,,,,,,,,,,,,,5d0e711c91721f001a919f11,61,2022-02-12_12h16.50.344,lexical_decision_task_DD_L5,2021.2.3,Win32,59.68011459,,,,,,,,,,,0.7533,1,,,,,,,,,,,,,,,,,,,,,,,,-0.019119699,-0.377945931,0,0,0,,,,,,,HAMMER,HB,m,y,./images/HAMMERHB.png,,,,,,,,,,,,,,,,,,,,,m,1,0.7533,,,,,,,,0,46,46,75,1
,,,,,,,,,,,,,,,,,5d0e711c91721f001a919f11,61,2022-02-12_12h16.50.344,lexical_decision_task_DD_L5,2021.2.3,Win32,59.68011459,,,,,,,,,,,1.2411,1,,,,,,,,,,,,,,,,,,,,,,,,-0.019119699,-0.377945931,0,0,0,,,,,,,JUNGLE,C,z,y,./images/JUNGLE.png,,,,,,,,,,,,,,,,,,,,,z,1,1.2411,,,,,,,,0,47,47,167,1
,,,,,,,,,,,,,,,,,5d0e711c91721f001a919f11,61,2022-02-12_12h16.50.344,lexical_decision_task_DD_L5,2021.2.3,Win32,59.68011459,,,,,,,,,,,0.8997,1,,,,,,,,,,,,,,,,,,,,,,,,-0.019119699,-0.377945931,0,0,0,,,,,,,PENCE,LB,z,y,./images/PENCELB.png,,,,,,,,,,,,,,,,,,,,,z,1,0.8997,,,,,,,,0,48,48,100,1
,,,,,,,,,,,,,,,,,5d0e711c91721f001a919f11,61,2022-02-12_12h16.50.344,lexical_decision_task_DD_L5,2021.2.3,Win32,59.68011459,,,,,,,,,,,0.7672,1,,,,,,,,,,,,,,,,,,,,,,,,-0.019119699,-0.377945931,0,0,0,,,,,,,COUCH,C,z,y,./images/COUCH.png,,,,,,,,,,,,,,,,,,,,,z,1,0.7672,,,,,,,,0,49,49,161,1
,,,,,,,,,,,,,,,,,5d0e711c91721f001a919f11,61,2022-02-12_12h16.50.344,lexical_decision_task_DD_L5,2021.2.3,Win32,59.68011459,,,,,,,,,,,0.6998,1,,,,,,,,,,,,,,,,,,,,,,,,-0.019119699,-0.377945931,0,0,0,,,,,,,CANDY,HB,m,y,./images/CANDYHB.png,,,,,,,,,,,,,,,,,,,,,m,1,0.6998,,,,,,,,0,50,50,39,1
,,,,,,,,,,,,,,,,,5d0e711c91721f001a919f11,61,2022-02-12_12h16.50.344,lexical_decision_task_DD_L5,2021.2.3,Win32,59.68011459,,,,,,,,,,,0.8163,1,,,,,,,,,,,,,,,,,,,,,,,,-0.019119699,-0.377945931,0,0,0,,,,,,,PASTA,C,z,y,./images/PASTA.png,,,,,,,,,,,,,,,,,,,,,z,1,0.8163,,,,,,,,0,51,51,89,1
,,,,,,,,,,,,,,,,,5d0e711c91721f001a919f11,61,2022-02-12_12h16.50.344,lexical_decision_task_DD_L5,2021.2.3,Win32,59.68011459,,,,,,,,,,,0.7998,0,,,,,,,,,,,,,,,,,,,,,,,,-0.019119699,-0.377945931,0,0,0,,,,,,,TOWEL,LB,m,y,./images/TOWELLB.png,,,,,,,,,,,,,,,,,,,,,z,0,0.7998,,,,,,,,0,52,52,1,1
,,,,,,,,,,,,,,,,,5d0e711c91721f001a919f11,61,2022-02-12_12h16.50.344,lexical_decision_task_DD_L5,2021.2.3,Win32,59.68011459,,,,,,,,,,,0.8001,1,,,,,,,,,,,,,,,,,,,,,,,,-0.019119699,-0.377945931,0,0,0,,,,,,,BIRTH,LB,z,y,./images/BIRTHLB.png,,,,,,,,,,,,,,,,,,,,,z,1,0.8001,,,,,,,,0,53,53,121,1
,,,,,,,,,,,,,,,,,5d0e711c91721f001a919f11,61,2022-02-12_12h16.50.344,lexical_decision_task_DD_L5,2021.2.3,Win32,59.68011459,,,,,,,,,,,0.7162,0,,,,,,,,,,,,,,,,,,,,,,,,-0.019119699,-0.377945931,0,0,0,,,,,,,WALNUT,HB,m,y,./images/WALNUTHB.png,,,,,,,,,,,,,,,,,,,,,z,0,0.7162,,,,,,,,0,54,54,0,1
,,,,,,,,,,,,,,,,,5d0e711c91721f001a919f11,61,2022-02-12_12h16.50.344,lexical_decision_task_DD_L5,2021.2.3,Win32,59.68011459,,,,,,,,,,,0.6498,1,,,,,,,,,,,,,,,,,,,,,,,,-0.019119699,-0.377945931,0,0,0,,,,,,,ALLEY,LB,m,y,./images/ALLEYLB.png,,,,,,,,,,,,,,,,,,,,,m,1,0.6498,,,,,,,,0,55,55,55,1
,,,,,,,,,,,,,,,,,5d0e711c91721f001a919f11,61,2022-02-12_12h16.50.344,lexical_decision_task_DD_L5,2021.2.3,Win32,59.68011459,,,,,,,,,,,0.7164,1,,,,,,,,,,,,,,,,,,,,,,,,-0.019119699,-0.377945931,0,0,0,,,,,,,KIDNEY,HB,z,y,./images/KIDNEYHB.png,,,,,,,,,,,,,,,,,,,,,z,1,0.7164,,,,,,,,0,56,56,105,1
,,,,,,,,,,,,,,,,,5d0e711c91721f001a919f11,61,2022-02-12_12h16.50.344,lexical_decision_task_DD_L5,2021.2.3,Win32,59.68011459,,,,,,,,,,,0.7357,1,,,,,,,,,,,,,,,,,,,,,,,,-0.019119699,-0.377945931,0,0,0,,,,,,,BONNET,C,z,y,./images/BONNET.png,,,,,,,,,,,,,,,,,,,,,z,1,0.7357,,,,,,,,0,57,57,95,1
,,,,,,,,,,,,,,,,,5d0e711c91721f001a919f11,61,2022-02-12_12h16.50.344,lexical_decision_task_DD_L5,2021.2.3,Win32,59.68011459,,,,,,,,,,,0.7093,1,,,,,,,,,,,,,,,,,,,,,,,,-0.019119699,-0.377945931,0,0,0,,,,,,,BAKER,HB,m,y,./images/BAKERHB.png,,,,,,,,,,,,,,,,,,,,,m,1,0.7093,,,,,,,,0,58,58,63,1
,,,,,,,,,,,,,,,,,5d0e711c91721f001a919f11,61,2022-02-12_12h16.50.344,lexical_decision_task_DD_L5,2021.2.3,Win32,59.68011459,,,,,,,,,,,0.6523,1,,,,,,,,,,,,,,,,,,,,,,,,-0.019119699,-0.377945931,0,0,0,,,,,,,GREASE,HB,z,y,./images/GREASEHB.png,,,,,,,,,,,,,,,,,,,,,z,1,0.6523,,,,,,,,0,59,59,99,1
,,,,,,,,,,,,,,,,,5d0e711c91721f001a919f11,61,2022-02-12_12h16.50.344,lexical_decision_task_DD_L5,2021.2.3,Win32,59.68011459,,,,,,,,,,,0.7208,1,,,,,,,,,,,,,,,,,,,,,,,,-0.019119699,-0.377945931,0,0,0,,,,,,,MIRROR,HB,z,y,./images/MIRRORHB.png,,,,,,,,,,,,,,,,,,,,,z,1,0.7208,,,,,,,,0,60,60,147,1
,,,,,,,,,,,,,,,,,5d0e711c91721f001a919f11,61,2022-02-12_12h16.50.344,lexical_decision_task_DD_L5,2021.2.3,Win32,59.68011459,,,,,,,,,,,1.5605,0,,,,,,,,,,,,,,,,,,,,,,,,-0.019119699,-0.377945931,0,0,0,,,,,,,WHEEL,C,m,y,./images/WHEEL.png,,,,,,,,,,,,,,,,,,,,,z,0,1.5605,,,,,,,,0,61,61,77,1
,,,,,,,,,,,,,,,,,5d0e711c91721f001a919f11,61,2022-02-12_12h16.50.344,lexical_decision_task_DD_L5,2021.2.3,Win32,59.68011459,,,,,,,,,,,1.06,1,,,,,,,,,,,,,,,,,,,,,,,,-0.019119699,-0.377945931,0,0,0,,,,,,,FLESH,HB,m,y,./images/FLESHHB.png,,,,,,,,,,,,,,,,,,,,,m,1,1.06,,,,,,,,0,62,62,24,1
,,,,,,,,,,,,,,,,,5d0e711c91721f001a919f11,61,2022-02-12_12h16.50.344,lexical_decision_task_DD_L5,2021.2.3,Win32,59.68011459,,,,,,,,,,,2.3077,0,,,,,,,,,,,,,,,,,,,,,,,,-0.019119699,-0.377945931,0,0,0,,,,,,,BRIDE,LB,m,y,./images/BRIDELB.png,,,,,,,,,,,,,,,,,,,,,z,0,2.3077,,,,,,,,0,63,63,64,1
,,,,,,,,,,,,,,,,,5d0e711c91721f001a919f11,61,2022-02-12_12h16.50.344,lexical_decision_task_DD_L5,2021.2.3,Win32,59.68011459,,,,,,,,,,,0.7231,1,,,,,,,,,,,,,,,,,,,,,,,,-0.019119699,-0.377945931,0,0,0,,,,,,,BANANA,LB,m,y,./images/BANANALB.png,,,,,,,,,,,,,,,,,,,,,m,1,0.7231,,,,,,,,0,64,64,70,1
,,,,,,,,,,,,,,,,,5d0e711c91721f001a919f11,61,2022-02-12_12h16.50.344,lexical_decision_task_DD_L5,2021.2.3,Win32,59.68011459,,,,,,,,,,,0.7969,1,,,,,,,,,,,,,,,,,,,,,,,,-0.019119699,-0.377945931,0,0,0,,,,,,,WALRUS,C,z,y,./images/WALRUS.png,,,,,,,,,,,,,,,,,,,,,z,1,0.7969,,,,,,,,0,65,65,107,1
,,,,,,,,,,,,,,,,,5d0e711c91721f001a919f11,61,2022-02-12_12h16.50.344,lexical_decision_task_DD_L5,2021.2.3,Win32,59.68011459,,,,,,,,,,,0.6764,1,,,,,,,,,,,,,,,,,,,,,,,,-0.019119699,-0.377945931,0,0,0,,,,,,,MIDGET,LB,m,y,./images/MIDGETLB.png,,,,,,,,,,,,,,,,,,,,,m,1,0.6764,,,,,,,,0,66,66,76,1
,,,,,,,,,,,,,,,,,5d0e711c91721f001a919f11,61,2022-02-12_12h16.50.344,lexical_decision_task_DD_L5,2021.2.3,Win32,59.68011459,,,,,,,,,,,0.7496,0,,,,,,,,,,,,,,,,,,,,,,,,-0.019119699,-0.377945931,0,0,0,,,,,,,HEATER,C,m,y,./images/HEATER.png,,,,,,,,,,,,,,,,,,,,,z,0,0.7496,,,,,,,,0,67,67,56,1
,,,,,,,,,,,,,,,,,5d0e711c91721f001a919f11,61,2022-02-12_12h16.50.344,lexical_decision_task_DD_L5,2021.2.3,Win32,59.68011459,,,,,,,,,,,0.7342,1,,,,,,,,,,,,,,,,,,,,,,,,-0.019119699,-0.377945931,0,0,0,,,,,,,SLOPE,HB,m,y,./images/SLOPEHB.png,,,,,,,,,,,,,,,,,,,,,m,1,0.7342,,,,,,,,0,68,68,30,1
,,,,,,,,,,,,,,,,,5d0e711c91721f001a919f11,61,2022-02-12_12h16.50.344,lexical_decision_task_DD_L5,2021.2.3,Win32,59.68011459,,,,,,,,,,,0.8024,1,,,,,,,,,,,,,,,,,,,,,,,,-0.019119699,-0.377945931,0,0,0,,,,,,,ARTIST,LB,m,y,./images/ARTISTLB.png,,,,,,,,,,,,,,,,,,,,,m,1,0.8024,,,,,,,,0,69,69,61,1
,,,,,,,,,,,,,,,,,5d0e711c91721f001a919f11,61,2022-02-12_12h16.50.344,lexical_decision_task_DD_L5,2021.2.3,Win32,59.68011459,,,,,,,,,,,0.6109,1,,,,,,,,,,,,,,,,,,,,,,,,-0.019119699,-0.377945931,0,0,0,,,,,,,MONKEY,HB,m,y,./images/MONKEYHB.png,,,,,,,,,,,,,,,,,,,,,m,1,0.6109,,,,,,,,0,70,70,45,1
,,,,,,,,,,,,,,,,,5d0e711c91721f001a919f11,61,2022-02-12_12h16.50.344,lexical_decision_task_DD_L5,2021.2.3,Win32,59.68011459,,,,,,,,,,,0.6998,1,,,,,,,,,,,,,,,,,,,,,,,,-0.019119699,-0.377945931,0,0,0,,,,,,,PARADE,C,m,y,./images/PARADE.png,,,,,,,,,,,,,,,,,,,,,m,1,0.6998,,,,,,,,0,71,71,17,1
,,,,,,,,,,,,,,,,,5d0e711c91721f001a919f11,61,2022-02-12_12h16.50.344,lexical_decision_task_DD_L5,2021.2.3,Win32,59.68011459,,,,,,,,,,,0.6466,1,,,,,,,,,,,,,,,,,,,,,,,,-0.019119699,-0.377945931,0,0,0,,,,,,,TWINS,HB,z,y,./images/TWINSHB.png,,,,,,,,,,,,,,,,,,,,,z,1,0.6466,,,,,,,,0,72,72,144,1
,,,,,,,,,,,,,,,,,5d0e711c91721f001a919f11,61,2022-02-12_12h16.50.344,lexical_decision_task_DD_L5,2021.2.3,Win32,59.68011459,,,,,,,,,,,1.6655,0,,,,,,,,,,,,,,,,,,,,,,,,-0.019119699,-0.377945931,0,0,0,,,,,,,BASKET,C,m,y,./images/BASKET.png,,,,,,,,,,,,,,,,,,,,,z,0,1.6655,,,,,,,,0,73,73,44,1
,,,,,,,,,,,,,,,,,5d0e711c91721f001a919f11,61,2022-02-12_12h16.50.344,lexical_decision_task_DD_L5,2021.2.3,Win32,59.68011459,,,,,,,,,,,0.8079,1,,,,,,,,,,,,,,,,,,,,,,,,-0.019119699,-0.377945931,0,0,0,,,,,,,GLOVE,LB,m,y,./images/GLOVELB.png,,,,,,,,,,,,,,,,,,,,,m,1,0.8079,,,,,,,,0,74,74,73,1
,,,,,,,,,,,,,,,,,5d0e711c91721f001a919f11,61,2022-02-12_12h16.50.344,lexical_decision_task_DD_L5,2021.2.3,Win32,59.68011459,,,,,,,,,,,0.6279,1,,,,,,,,,,,,,,,,,,,,,,,,-0.019119699,-0.377945931,0,0,0,,,,,,,BUTTER,HB,m,y,./images/BUTTERHB.png,,,,,,,,,,,,,,,,,,,,,m,1,0.6279,,,,,,,,0,75,75,27,1
,,,,,,,,,,,,,,,,,5d0e711c91721f001a919f11,61,2022-02-12_12h16.50.344,lexical_decision_task_DD_L5,2021.2.3,Win32,59.68011459,,,,,,,,,,,0.6667,1,,,,,,,,,,,,,,,,,,,,,,,,-0.019119699,-0.377945931,0,0,0,,,,,,,LAGOON,C,m,y,./images/LAGOON.png,,,,,,,,,,,,,,,,,,,,,m,1,0.6667,,,,,,,,0,76,76,47,1
,,,,,,,,,,,,,,,,,5d0e711c91721f001a919f11,61,2022-02-12_12h16.50.344,lexical_decision_task_DD_L5,2021.2.3,Win32,59.68011459,,,,,,,,,,,0.6498,1,,,,,,,,,,,,,,,,,,,,,,,,-0.019119699,-0.377945931,0,0,0,,,,,,,THROAT,HB,z,y,./images/THROATHB.png,,,,,,,,,,,,,,,,,,,,,z,1,0.6498,,,,,,,,0,77,77,120,1
,,,,,,,,,,,,,,,,,5d0e711c91721f001a919f11,61,2022-02-12_12h16.50.344,lexical_decision_task_DD_L5,2021.2.3,Win32,59.68011459,,,,,,,,,,,0.7995,1,,,,,,,,,,,,,,,,,,,,,,,,-0.019119699,-0.377945931,0,0,0,,,,,,,KITTEN,HB,z,y,./images/KITTENHB.png,,,,,,,,,,,,,,,,,,,,,z,1,0.7995,,,,,,,,0,78,78,129,1
,,,,,,,,,,,,,,,,,5d0e711c91721f001a919f11,61,2022-02-12_12h16.50.344,lexical_decision_task_DD_L5,2021.2.3,Win32,59.68011459,,,,,,,,,,,1.718,0,,,,,,,,,,,,,,,,,,,,,,,,-0.019119699,-0.377945931,0,0,0,,,,,,,SAUNA,HB,m,y,./images/SAUNAHB.png,,,,,,,,,,,,,,,,,,,,,z,0,1.718,,,,,,,,0,79,79,33,1
,,,,,,,,,,,,,,,,,5d0e711c91721f001a919f11,61,2022-02-12_12h16.50.344,lexical_decision_task_DD_L5,2021.2.3,Win32,59.68011459,,,,,,,,,,,0.9356,1,,,,,,,,,,,,,,,,,,,,,,,,-0.019119699,-0.377945931,0,0,0,,,,,,,URINE,LB,z,y,./images/URINELB.png,,,,,,,,,,,,,,,,,,,,,z,1,0.9356,,,,,,,,0,80,80,154,1
,,,,,,,,,,,,,,,,,5d0e711c91721f001a919f11,61,2022-02-12_12h16.50.344,lexical_decision_task_DD_L5,2021.2.3,Win32,59.68011459,,,,,,,,,,,1.2747,1,,,,,,,,,,,,,,,,,,,,,,,,-0.019119699,-0.377945931,0,0,0,,,,,,,MOSQUE,LB,z,y,./images/MOSQUELB.png,,,,,,,,,,,,,,,,,,,,,z,1,1.2747,,,,,,,,0,81,81,127,1
,,,,,,,,,,,,,,,,,5d0e711c91721f001a919f11,61,2022-02-12_12h16.50.344,lexical_decision_task_DD_L5,2021.2.3,Win32,59.68011459,,,,,,,,,,,0.6994,1,,,,,,,,,,,,,,,,,,,,,,,,-0.019119699,-0.377945931,0,0,0,,,,,,,FALCON,LB,z,y,./images/FALCONLB.png,,,,,,,,,,,,,,,,,,,,,z,1,0.6994,,,,,,,,0,82,82,112,1
,,,,,,,,,,,,,,,,,5d0e711c91721f001a919f11,61,2022-02-12_12h16.50.344,lexical_decision_task_DD_L5,2021.2.3,Win32,59.68011459,,,,,,,,,,,0.7002,1,,,,,,,,,,,,,,,,,,,,,,,,-0.024322342,-0.381847992,0,0,0,space,,,,,,STEAK,LB,m,y,./images/STEAKLB.png,3.4804,,,,,,,,,,,,,,,,,,,,m,1,0.7002,,,,,,,,0,83,83,31,1
,,,,,,,,,,,,,,,,,5d0e711c91721f001a919f11,61,2022-02-12_12h16.50.344,lexical_decision_task_DD_L5,2021.2.3,Win32,59.68011459,,,,,,,,,,,0.9669,1,,,,,,,,,,,,,,,,,,,,,,,,-0.024322342,-0.381847992,0,0,0,,,,,,,POODLE,HB,z,y,./images/POODLEHB.png,,,,,,,,,,,,,,,,,,,,,z,1,0.9669,,,,,,,,0,84,84,165,1
,,,,,,,,,,,,,,,,,5d0e711c91721f001a919f11,61,2022-02-12_12h16.50.344,lexical_decision_task_DD_L5,2021.2.3,Win32,59.68011459,,,,,,,,,,,0.7502,1,,,,,,,,,,,,,,,,,,,,,,,,-0.024322342,-0.381847992,0,0,0,,,,,,,CEMENT,C,z,y,./images/CEMENT.png,,,,,,,,,,,,,,,,,,,,,z,1,0.7502,,,,,,,,0,85,85,158,1
,,,,,,,,,,,,,,,,,5d0e711c91721f001a919f11,61,2022-02-12_12h16.50.344,lexical_decision_task_DD_L5,2021.2.3,Win32,59.68011459,,,,,,,,,,,0.5941,1,,,,,,,,,,,,,,,,,,,,,,,,-0.024322342,-0.381847992,0,0,0,,,,,,,SWEAT,HB,z,y,./images/SWEATHB.png,,,,,,,,,,,,,,,,,,,,,z,1,0.5941,,,,,,,,0,86,86,150,1
,,,,,,,,,,,,,,,,,5d0e711c91721f001a919f11,61,2022-02-12_12h16.50.344,lexical_decision_task_DD_L5,2021.2.3,Win32,59.68011459,,,,,,,,,,,0.5674,1,,,,,,,,,,,,,,,,,,,,,,,,-0.024322342,-0.381847992,0,0,0,,,,,,,JAGUAR,HB,z,y,./images/JAGUARHB.png,,,,,,,,,,,,,,,,,,,,,z,1,0.5674,,,,,,,,0,87,87,102,1
,,,,,,,,,,,,,,,,,5d0e711c91721f001a919f11,61,2022-02-12_12h16.50.344,lexical_decision_task_DD_L5,2021.2.3,Win32,59.68011459,,,,,,,,,,,0.8748,1,,,,,,,,,,,,,,,,,,,,,,,,-0.024322342,-0.381847992,0,0,0,,,,,,,ENGINE,C,m,y,./images/ENGINE.png,,,,,,,,,,,,,,,,,,,,,m,1,0.8748,,,,,,,,0,88,88,38,1
,,,,,,,,,,,,,,,,,5d0e711c91721f001a919f11,61,2022-02-12_12h16.50.344,lexical_decision_task_DD_L5,2021.2.3,Win32,59.68011459,,,,,,,,,,,0.7,1,,,,,,,,,,,,,,,,,,,,,,,,-0.024322342,-0.381847992,0,0,0,,,,,,,RAZOR,LB,m,y,./images/RAZORLB.png,,,,,,,,,,,,,,,,,,,,,m,1,0.7,,,,,,,,0,89,89,34,1
,,,,,,,,,,,,,,,,,5d0e711c91721f001a919f11,61,2022-02-12_12h16.50.344,lexical_decision_task_DD_L5,2021.2.3,Win32,59.68011459,,,,,,,,,,,0.6729,1,,,,,,,,,,,,,,,,,,,,,,,,-0.024322342,-0.381847992,0,0,0,,,,,,,PEARL,LB,z,y,./images/PEARLLB.png,,,,,,,,,,,,,,,,,,,,,z,1,0.6729,,,,,,,,0,90,90,130,1
,,,,,,,,,,,,,,,,,5d0e711c91721f001a919f11,61,2022-02-12_12h16.50.344,lexical_decision_task_DD_L5,2021.2.3,Win32,59.68011459,,,,,,,,,,,0.7669,1,,,,,,,,,,,,,,,,,,,,,,,,-0.024322342,-0.381847992,0,0,0,,,,,,,FENCE,C,m,y,./images/FENCE.png,,,,,,,,,,,,,,,,,,,,,m,1,0.7669,,,,,,,,0,91,91,14,1
,,,,,,,,,,,,,,,,,5d0e711c91721f001a919f11,61,2022-02-12_12h16.50.344,lexical_decision_task_DD_L5,2021.2.3,Win32,59.68011459,,,,,,,,,,,0.6413,1,,,,,,,,,,,,,,,,,,,,,,,,-0.024322342,-0.381847992,0,0,0,,,,,,,CLOTH,C,m,y,./images/CLOTH.png,,,,,,,,,,,,,,,,,,,,,m,1,0.6413,,,,,,,,0,92,92,23,1
,,,,,,,,,,,,,,,,,5d0e711c91721f001a919f11,61,2022-02-12_12h16.50.344,lexical_decision_task_DD_L5,2021.2.3,Win32,59.68011459,,,,,,,,,,,0.741,1,,,,,,,,,,,,,,,,,,,,,,,,-0.024322342,-0.381847992,0,0,0,,,,,,,RHINO,HB,z,y,./images/RHINOHB.png,,,,,,,,,,,,,,,,,,,,,z,1,0.741,,,,,,,,0,93,93,93,1
,,,,,,,,,,,,,,,,,5d0e711c91721f001a919f11,61,2022-02-12_12h16.50.344,lexical_decision_task_DD_L5,2021.2.3,Win32,59.68011459,,,,,,,,,,,1.0499,1,,,,,,,,,,,,,,,,,,,,,,,,-0.024322342,-0.381847992,0,0,0,,,,,,,POKER,LB,m,y,./images/POKERLB.png,,,,,,,,,,,,,,,,,,,,,m,1,1.0499,,,,,,,,0,94,94,67,1
,,,,,,,,,,,,,,,,,5d0e711c91721f001a919f11,61,2022-02-12_12h16.50.344,lexical_decision_task_DD_L5,2021.2.3,Win32,59.68011459,,,,,,,,,,,0.6859,1,,,,,,,,,,,,,,,,,,,,,,,,-0.024322342,-0.381847992,0,0,0,,,,,,,CRATER,HB,m,y,./images/CRATERHB.png,,,,,,,,,,,,,,,,,,,,,m,1,0.6859,,,,,,,,0,95,95,3,1
,,,,,,,,,,,,,,,,,5d0e711c91721f001a919f11,61,2022-02-12_12h16.50.344,lexical_decision_task_DD_L5,2021.2.3,Win32,59.68011459,,,,,,,,,,,0.6699,1,,,,,,,,,,,,,,,,,,,,,,,,-0.024322342,-0.381847992,0,0,0,,,,,,,CANDLE,LB,z,y,./images/CANDLELB.png,,,,,,,,,,,,,,,,,,,,,z,1,0.6699,,,,,,,,0,96,96,145,1
,,,,,,,,,,,,,,,,,5d0e711c91721f001a919f11,61,2022-02-12_12h16.50.344,lexical_decision_task_DD_L5,2021.2.3,Win32,59.68011459,,,,,,,,,,,0.6498,0,,,,,,,,,,,,,,,,,,,,,,,,-0.024322342,-0.381847992,0,0,0,,,,,,,GARDEN,LB,m,y,./images/GARDENLB.png,,,,,,,,,,,,,,,,,,,,,z,0,0.6498,,,,,,,,0,97,97,10,1
,,,,,,,,,,,,,,,,,5d0e711c91721f001a919f11,61,2022-02-12_12h16.50.344,lexical_decision_task_DD_L5,2021.2.3,Win32,59.68011459,,,,,,,,,,,1.2329,1,,,,,,,,,,,,,,,,,,,,,,,,-0.024322342,-0.381847992,0,0,0,,,,,,,SNAKE,LB,m,y,./images/SNAKELB.png,,,,,,,,,,,,,,,,,,,,,m,1,1.2329,,,,,,,,0,98,98,40,1
,,,,,,,,,,,,,,,,,5d0e711c91721f001a919f11,61,2022-02-12_12h16.50.344,lexical_decision_task_DD_L5,2021.2.3,Win32,59.68011459,,,,,,,,,,,0.6871,1,,,,,,,,,,,,,,,,,,,,,,,,-0.024322342,-0.381847992,0,0,0,,,,,,,LITTER,HB,z,y,./images/LITTERHB.png,,,,,,,,,,,,,,,,,,,,,z,1,0.6871,,,,,,,,0,99,99,162,1
,,,,,,,,,,,,,,,,,5d0e711c91721f001a919f11,61,2022-02-12_12h16.50.344,lexical_decision_task_DD_L5,2021.2.3,Win32,59.68011459,,,,,,,,,,,1.095,0,,,,,,,,,,,,,,,,,,,,,,,,-0.024322342,-0.381847992,0,0,0,,,,,,,SAUCE,HB,m,y,./images/SAUCEHB.png,,,,,,,,,,,,,,,,,,,,,z,0,1.095,,,,,,,,0,100,100,51,1
,,,,,,,,,,,,,,,,,5d0e711c91721f001a919f11,61,2022-02-12_12h16.50.344,lexical_decision_task_DD_L5,2021.2.3,Win32,59.68011459,,,,,,,,,,,1.0247,1,,,,,,,,,,,,,,,,,,,,,,,,-0.024322342,-0.381847992,0,0,0,,,,,,,BARREL,C,z,y,./images/BARREL.png,,,,,,,,,,,,,,,,,,,,,z,1,1.0247,,,,,,,,0,101,101,116,1
,,,,,,,,,,,,,,,,,5d0e711c91721f001a919f11,61,2022-02-12_12h16.50.344,lexical_decision_task_DD_L5,2021.2.3,Win32,59.68011459,,,,,,,,,,,0.633,1,,,,,,,,,,,,,,,,,,,,,,,,-0.024322342,-0.381847992,0,0,0,,,,,,,PLANK,LB,z,y,./images/PLANKLB.png,,,,,,,,,,,,,,,,,,,,,z,1,0.633,,,,,,,,0,102,102,85,1
,,,,,,,,,,,,,,,,,5d0e711c91721f001a919f11,61,2022-02-12_12h16.50.344,lexical_decision_task_DD_L5,2021.2.3,Win32,59.68011459,,,,,,,,,,,0.6498,1,,,,,,,,,,,,,,,,,,,,,,,,-0.024322342,-0.381847992,0,0,0,,,,,,,MAGGOT,HB,z,y,./images/MAGGOTHB.png,,,,,,,,,,,,,,,,,,,,,z,1,0.6498,,,,,,,,0,103,103,117,1
,,,,,,,,,,,,,,,,,5d0e711c91721f001a919f11,61,2022-02-12_12h16.50.344,lexical_decision_task_DD_L5,2021.2.3,Win32,59.68011459,,,,,,,,,,,0.8327,1,,,,,,,,,,,,,,,,,,,,,,,,-0.024322342,-0.381847992,0,0,0,,,,,,,GRAIN,HB,z,y,./images/GRAINHB.png,,,,,,,,,,,,,,,,,,,,,z,1,0.8327,,,,,,,,0,104,104,159,1
,,,,,,,,,,,,,,,,,5d0e711c91721f001a919f11,61,2022-02-12_12h16.50.344,lexical_decision_task_DD_L5,2021.2.3,Win32,59.68011459,,,,,,,,,,,1.15,0,,,,,,,,,,,,,,,,,,,,,,,,-0.024322342,-0.381847992,0,0,0,,,,,,,BRUSH,C,m,y,./images/BRUSH.png,,,,,,,,,,,,,,,,,,,,,z,0,1.15,,,,,,,,0,105,105,59,1
,,,,,,,,,,,,,,,,,5d0e711c91721f001a919f11,61,2022-02-12_12h16.50.344,lexical_decision_task_DD_L5,2021.2.3,Win32,59.68011459,,,,,,,,,,,0.7996,1,,,,,,,,,,,,,,,,,,,,,,,,-0.024322342,-0.381847992,0,0,0,,,,,,,WEASEL,C,z,y,./images/WEASEL.png,,,,,,,,,,,,,,,,,,,,,z,1,0.7996,,,,,,,,0,106,106,164,1
,,,,,,,,,,,,,,,,,5d0e711c91721f001a919f11,61,2022-02-12_12h16.50.344,lexical_decision_task_DD_L5,2021.2.3,Win32,59.68011459,,,,,,,,,,,1.4157,0,,,,,,,,,,,,,,,,,,,,,,,,-0.024322342,-0.381847992,0,0,0,,,,,,,POSTER,C,m,y,./images/POSTER.png,,,,,,,,,,,,,,,,,,,,,z,0,1.4157,,,,,,,,0,107,107,53,1
,,,,,,,,,,,,,,,,,5d0e711c91721f001a919f11,61,2022-02-12_12h16.50.344,lexical_decision_task_DD_L5,2021.2.3,Win32,59.68011459,,,,,,,,,,,0.7239,1,,,,,,,,,,,,,,,,,,,,,,,,-0.024322342,-0.381847992,0,0,0,,,,,,,SMOKER,C,z,y,./images/SMOKER.png,,,,,,,,,,,,,,,,,,,,,z,1,0.7239,,,,,,,,0,108,108,110,1
,,,,,,,,,,,,,,,,,5d0e711c91721f001a919f11,61,2022-02-12_12h16.50.344,lexical_decision_task_DD_L5,2021.2.3,Win32,59.68011459,,,,,,,,,,,0.6498,1,,,,,,,,,,,,,,,,,,,,,,,,-0.024322342,-0.381847992,0,0,0,,,,,,,SUNSET,LB,z,y,./images/SUNSETLB.png,,,,,,,,,,,,,,,,,,,,,z,1,0.6498,,,,,,,,0,109,109,166,1
,,,,,,,,,,,,,,,,,5d0e711c91721f001a919f11,61,2022-02-12_12h16.50.344,lexical_decision_task_DD_L5,2021.2.3,Win32,59.68011459,,,,,,,,,,,0.6213,1,,,,,,,,,,,,,,,,,,,,,,,,-0.024322342,-0.381847992,0,0,0,,,,,,,DRUMS,LB,z,y,./images/DRUMSLB.png,,,,,,,,,,,,,,,,,,,,,z,1,0.6213,,,,,,,,0,110,110,133,1
,,,,,,,,,,,,,,,,,5d0e711c91721f001a919f11,61,2022-02-12_12h16.50.344,lexical_decision_task_DD_L5,2021.2.3,Win32,59.68011459,,,,,,,,,,,0.6833,1,,,,,,,,,,,,,,,,,,,,,,,,-0.024322342,-0.381847992,0,0,0,,,,,,,WHISKY,C,m,y,./images/WHISKY.png,,,,,,,,,,,,,,,,,,,,,m,1,0.6833,,,,,,,,0,111,111,83,1
,,,,,,,,,,,,,,,,,5d0e711c91721f001a919f11,61,2022-02-12_12h16.50.344,lexical_decision_task_DD_L5,2021.2.3,Win32,59.68011459,,,,,,,,,,,0.7215,1,,,,,,,,,,,,,,,,,,,,,,,,-0.024322342,-0.381847992,0,0,0,,,,,,,PICKLE,C,z,y,./images/PICKLE.png,,,,,,,,,,,,,,,,,,,,,z,1,0.7215,,,,,,,,0,112,112,98,1
,,,,,,,,,,,,,,,,,5d0e711c91721f001a919f11,61,2022-02-12_12h16.50.344,lexical_decision_task_DD_L5,2021.2.3,Win32,59.68011459,,,,,,,,,,,0.8164,1,,,,,,,,,,,,,,,,,,,,,,,,-0.024322342,-0.381847992,0,0,0,,,,,,,TULIP,C,z,y,./images/TULIP.png,,,,,,,,,,,,,,,,,,,,,z,1,0.8164,,,,,,,,0,113,113,92,1
,,,,,,,,,,,,,,,,,5d0e711c91721f001a919f11,61,2022-02-12_12h16.50.344,lexical_decision_task_DD_L5,2021.2.3,Win32,59.68011459,,,,,,,,,,,1.2326,0,,,,,,,,,,,,,,,,,,,,,,,,-0.024322342,-0.381847992,0,0,0,,,,,,,CANOE,LB,m,y,./images/CANOELB.png,,,,,,,,,,,,,,,,,,,,,z,0,1.2326,,,,,,,,0,114,114,58,1
,,,,,,,,,,,,,,,,,5d0e711c91721f001a919f11,61,2022-02-12_12h16.50.344,lexical_decision_task_DD_L5,2021.2.3,Win32,59.68011459,,,,,,,,,,,1.428,0,,,,,,,,,,,,,,,,,,,,,,,,-0.024322342,-0.381847992,0,0,0,,,,,,,DANCER,HB,m,y,./images/DANCERHB.png,,,,,,,,,,,,,,,,,,,,,z,0,1.428,,,,,,,,0,115,115,21,1
,,,,,,,,,,,,,,,,,5d0e711c91721f001a919f11,61,2022-02-12_12h16.50.344,lexical_decision_task_DD_L5,2021.2.3,Win32,59.68011459,,,,,,,,,,,2.0549,0,,,,,,,,,,,,,,,,,,,,,,,,-0.024322342,-0.381847992,0,0,0,,,,,,,GRANNY,C,m,y,./images/GRANNY.png,,,,,,,,,,,,,,,,,,,,,z,0,2.0549,,,,,,,,0,116,116,20,1
,,,,,,,,,,,,,,,,,5d0e711c91721f001a919f11,61,2022-02-12_12h16.50.344,lexical_decision_task_DD_L5,2021.2.3,Win32,59.68011459,,,,,,,,,,,0.7918,1,,,,,,,,,,,,,,,,,,,,,,,,-0.024322342,-0.381847992,0,0,0,,,,,,,QUILL,LB,z,y,./images/QUILLLB.png,,,,,,,,,,,,,,,,,,,,,z,1,0.7918,,,,,,,,0,117,117,115,1
,,,,,,,,,,,,,,,,,5d0e711c91721f001a919f11,61,2022-02-12_12h16.50.344,lexical_decision_task_DD_L5,2021.2.3,Win32,59.68011459,,,,,,,,,,,0.7355,1,,,,,,,,,,,,,,,,,,,,,,,,-0.024322342,-0.381847992,0,0,0,,,,,,,FARMER,C,z,y,./images/FARMER.png,,,,,,,,,,,,,,,,,,,,,z,1,0.7355,,,,,,,,0,118,118,149,1
,,,,,,,,,,,,,,,,,5d0e711c91721f001a919f11,61,2022-02-12_12h16.50.344,lexical_decision_task_DD_L5,2021.2.3,Win32,59.68011459,,,,,,,,,,,0.6051,1,,,,,,,,,,,,,,,,,,,,,,,,-0.024322342,-0.381847992,0,0,0,,,,,,,NOOSE,HB,z,y,./images/NOOSEHB.png,,,,,,,,,,,,,,,,,,,,,z,1,0.6051,,,,,,,,0,119,119,156,1
,,,,,,,,,,,,,,,,,5d0e711c91721f001a919f11,61,2022-02-12_12h16.50.344,lexical_decision_task_DD_L5,2021.2.3,Win32,59.68011459,,,,,,,,,,,0.9163,1,,,,,,,,,,,,,,,,,,,,,,,,-0.024322342,-0.381847992,0,0,0,,,,,,,BURIAL,C,z,y,./images/BURIAL.png,,,,,,,,,,,,,,,,,,,,,z,1,0.9163,,,,,,,,0,120,120,143,1
,,,,,,,,,,,,,,,,,5d0e711c91721f001a919f11,61,2022-02-12_12h16.50.344,lexical_decision_task_DD_L5,2021.2.3,Win32,59.68011459,,,,,,,,,,,0.7163,1,,,,,,,,,,,,,,,,,,,,,,,,-0.024322342,-0.381847992,0,0,0,,,,,,,FOLDER,HB,z,y,./images/FOLDERHB.png,,,,,,,,,,,,,,,,,,,,,z,1,0.7163,,,,,,,,0,121,121,126,1
,,,,,,,,,,,,,,,,,5d0e711c91721f001a919f11,61,2022-02-12_12h16.50.344,lexical_decision_task_DD_L5,2021.2.3,Win32,59.68011459,,,,,,,,,,,0.6,1,,,,,,,,,,,,,,,,,,,,,,,,-0.024322342,-0.381847992,0,0,0,,,,,,,MALLET,C,z,y,./images/MALLET.png,,,,,,,,,,,,,,,,,,,,,z,1,0.6,,,,,,,,0,122,122,134,1
,,,,,,,,,,,,,,,,,5d0e711c91721f001a919f11,61,2022-02-12_12h16.50.344,lexical_decision_task_DD_L5,2021.2.3,Win32,59.68011459,,,,,,,,,,,0.5918,0,,,,,,,,,,,,,,,,,,,,,,,,-0.024322342,-0.381847992,0,0,0,,,,,,,STAIN,HB,m,y,./images/STAINHB.png,,,,,,,,,,,,,,,,,,,,,z,0,0.5918,,,,,,,,0,123,123,6,1
,,,,,,,,,,,,,,,,,5d0e711c91721f001a919f11,61,2022-02-12_12h16.50.344,lexical_decision_task_DD_L5,2021.2.3,Win32,59.68011459,,,,,,,,,,,0.6831,1,,,,,,,,,,,,,,,,,,,,,,,,-0.024322342,-0.381847992,0,0,0,,,,,,,PLANET,C,m,y,./images/PLANET.png,,,,,,,,,,,,,,,,,,,,,m,1,0.6831,,,,,,,,0,124,124,80,1
,,,,,,,,,,,,,,,,,5d0e711c91721f001a919f11,61,2022-02-12_12h16.50.344,lexical_decision_task_DD_L5,2021.2.3,Win32,59.68011459,,,,,,,,,,,0.6957,1,,,,,,,,,,,,,,,,,,,,,,,,-0.024322342,-0.381847992,0,0,0,space,,,,,,SAILOR,LB,z,y,./images/SAILORLB.png,3.3303,,,,,,,,,,,,,,,,,,,,z,1,0.6957,,,,,,,,0,125,125,151,1
,,,,,,,,,,,,,,,,,5d0e711c91721f001a919f11,61,2022-02-12_12h16.50.344,lexical_decision_task_DD_L5,2021.2.3,Win32,59.68011459,,,,,,,,,,,0.926,0,,,,,,,,,,,,,,,,,,,,,,,,-0.024322342,-0.381847992,0,0,0,,,,,,,STREAM,C,m,y,./images/STREAM.png,,,,,,,,,,,,,,,,,,,,,z,0,0.926,,,,,,,,0,126,126,41,1
,,,,,,,,,,,,,,,,,5d0e711c91721f001a919f11,61,2022-02-12_12h16.50.344,lexical_decision_task_DD_L5,2021.2.3,Win32,59.68011459,,,,,,,,,,,0.7738,1,,,,,,,,,,,,,,,,,,,,,,,,-0.024322342,-0.381847992,0,0,0,,,,,,,STORM,HB,z,y,./images/STORMHB.png,,,,,,,,,,,,,,,,,,,,,z,1,0.7738,,,,,,,,0,127,127,114,1
,,,,,,,,,,,,,,,,,5d0e711c91721f001a919f11,61,2022-02-12_12h16.50.344,lexical_decision_task_DD_L5,2021.2.3,Win32,59.68011459,,,,,,,,,,,2.0545,1,,,,,,,,,,,,,,,,,,,,,,,,-0.024322342,-0.381847992,0,0,0,,,,,,,PEBBLE,LB,m,y,./images/PEBBLELB.png,,,,,,,,,,,,,,,,,,,,,m,1,2.0545,,,,,,,,0,128,128,82,1
,,,,,,,,,,,,,,,,,5d0e711c91721f001a919f11,61,2022-02-12_12h16.50.344,lexical_decision_task_DD_L5,2021.2.3,Win32,59.68011459,,,,,,,,,,,0.6786,1,,,,,,,,,,,,,,,,,,,,,,,,-0.024322342,-0.381847992,0,0,0,,,,,,,CHALK,LB,m,y,./images/CHALKLB.png,,,,,,,,,,,,,,,,,,,,,m,1,0.6786,,,,,,,,0,129,129,25,1
,,,,,,,,,,,,,,,,,5d0e711c91721f001a919f11,61,2022-02-12_12h16.50.344,lexical_decision_task_DD_L5,2021.2.3,Win32,59.68011459,,,,,,,,,,,0.6591,1,,,,,,,,,,,,,,,,,,,,,,,,-0.024322342,-0.381847992,0,0,0,,,,,,,INFANT,LB,z,y,./images/INFANTLB.png,,,,,,,,,,,,,,,,,,,,,z,1,0.6591,,,,,,,,0,130,130,160,1
,,,,,,,,,,,,,,,,,5d0e711c91721f001a919f11,61,2022-02-12_12h16.50.344,lexical_decision_task_DD_L5,2021.2.3,Win32,59.68011459,,,,,,,,,,,0.7331,1,,,,,,,,,,,,,,,,,,,,,,,,-0.024322342,-0.381847992,0,0,0,,,,,,,BUNNY,LB,m,y,./images/BUNNYLB.png,,,,,,,,,,,,,,,,,,,,,m,1,0.7331,,,,,,,,0,131,131,13,1
