key_resp.keys,instr_done_touch.x,instr_done_touch.y,instr_done_touch.leftButton,instr_done_touch.midButton,instr_done_touch.rightButton,instr_done_touch.clicked_name,instruction_pages.thisRepN,instruction_pages.thisTrialN,instruction_pages.thisN,instruction_pages.thisIndex,instruction_pages.ran,pageN,phase,instruct_text,has_image,instruct_image,participant,age,date,expName,psychopyVersion,OS,frameRate,key_resp.rt,response.keys,response.corr,response.rt,touch_resp.x,touch_resp.y,touch_resp.leftButton,touch_resp.midButton,touch_resp.rightButton,touch_resp.time,touch_resp.clicked_name,rt,corr,practrials.thisRepN,practrials.thisTrialN,practrials.thisN,practrials.thisIndex,practrials.ran,TrialID,Target,corrAns,end_of_practice_trials_pages.thisRepN,end_of_practice_trials_pages.thisTrialN,end_of_practice_trials_pages.thisN,end_of_practice_trials_pages.thisIndex,end_of_practice_trials_pages.ran,key_resp_2.keys,key_resp_2.corr,key_resp_2.rt,targ_click.x,targ_click.y,targ_click.leftButton,targ_click.midButton,targ_click.rightButton,targ_click.time,targ_click.clicked_name,break_done_touch.x,break_done_touch.y,break_done_touch.leftButton,break_done_touch.midButton,break_done_touch.rightButton,break_done_keyboard.keys,maintrials.thisRepN,maintrials.thisTrialN,maintrials.thisN,maintrials.thisIndex,maintrials.ran,string,blur,study,lex,stim_path,break_done_keyboard.rt,mouse_2.x,mouse_2.y,mouse_2.leftButton,mouse_2.midButton,mouse_2.rightButton,mouse_2.clicked_name,slider.response,slider.rt,trials.thisRepN,trials.thisTrialN,trials.thisN,trials.thisIndex,trials.ran,test_instructions.thisRepN,test_instructions.thisTrialN,test_instructions.thisN,test_instructions.thisIndex,test_instructions.ran,key_resp_3.keys,key_resp_3.corr,key_resp_3.rt,test_click.x,test_click.y,test_click.leftButton,test_click.midButton,test_click.rightButton,test_click.time,test_click.clicked_name,test_phase.thisRepN,test_phase.thisTrialN,test_phase.thisN,test_phase.thisIndex,test_phase.ran
,-0.105555556,-0.39537037,1,0,0,instr_done_button,0,0,0,0,1,1,instructions,"INSTRUCTIONS
At the start of each trial, look at the plus sign  (+) in the center of the screen.  This tells you that a trial is about to begin and where to look. Second, the plus sign will disappear and a string of letters will appear. Your task is to determine if the string of letters is a word or not. If the item is a word press the M key (on keyboard)  or touch the word button (phone/tablet).  If the item is not a word,  press the  Z key (on keyboard)  or touch the nonword button (on phone/tablet). 
Press the space bar or touch  continue.",0,,5d86d05f9854a60019240621,49,2022-02-12_11h43.02.286,lexical_decision_task_DD_L5,2021.2.3,Win32,60.0240096,,,,,,,,,,,,,,,,,,,,,,,,,,,,,,,,,,,,,,,,,,,,,,,,,,,,,,,,,,,,,,,,,,,,,,,,,,,,,,,,,,,,,,
space,-0.106481481,-0.397222222,0,0,0,,0,1,1,1,1,2,instructions,"If your device has a keyboard, press the 'Z' key for nonwords and the 'M' key for words.





Press the space bar or touch the button below to continue.",0,keyboard-example.gif,5d86d05f9854a60019240621,49,2022-02-12_11h43.02.286,lexical_decision_task_DD_L5,2021.2.3,Win32,60.0240096,8.05,,,,,,,,,,,,,,,,,,,,,,,,,,,,,,,,,,,,,,,,,,,,,,,,,,,,,,,,,,,,,,,,,,,,,,,,,,,,,,,,,,,,,
space,-0.106481481,-0.397222222,0,0,0,,0,2,2,2,1,3,instructions,"If you are using a touchscreen only device, use the buttons on the screen. Do not use the mouse.





Press the space bar or touch the button below to continue.",0,touchscreen-example.gif,5d86d05f9854a60019240621,49,2022-02-12_11h43.02.286,lexical_decision_task_DD_L5,2021.2.3,Win32,60.0240096,5.152,,,,,,,,,,,,,,,,,,,,,,,,,,,,,,,,,,,,,,,,,,,,,,,,,,,,,,,,,,,,,,,,,,,,,,,,,,,,,,,,,,,,,
space,-0.106481481,-0.397222222,0,0,0,,0,3,3,3,1,4,instructions,"It is very important that you respond as quickly and accurately as possible, as each letter string will only be on the screen for two seconds. If you do not respond within this time, the message 'Too slow!' will be displayed and the experiment will progress to the next letter string. The first 20 trials will be practice trials and you will receive feedback on your answers. 

Press the space bar or touch the button below to start the practice trials.",0,,5d86d05f9854a60019240621,49,2022-02-12_11h43.02.286,lexical_decision_task_DD_L5,2021.2.3,Win32,60.0240096,8.956,,,,,,,,,,,,,,,,,,,,,,,,,,,,,,,,,,,,,,,,,,,,,,,,,,,,,,,,,,,,,,,,,,,,,,,,,,,,,,,,,,,,,
,,,,,,,,,,,,,,,,,5d86d05f9854a60019240621,49,2022-02-12_11h43.02.286,lexical_decision_task_DD_L5,2021.2.3,Win32,60.0240096,,z,1,1.632,,,,,,,,1.632,1,0,0,0,12,1,1001,SPRINY,z,,,,,,,,,,,,,,,,,,,,,,,,,,,,,,,,,,,,,,,,,,,,,,,,,,,,,,,,,,,,,,,,,
,,,,,,,,,,,,,,,,,5d86d05f9854a60019240621,49,2022-02-12_11h43.02.286,lexical_decision_task_DD_L5,2021.2.3,Win32,60.0240096,,m,1,0.78,,,,,,,,0.78,1,0,1,1,7,1,1001,VOLUME,m,,,,,,,,,,,,,,,,,,,,,,,,,,,,,,,,,,,,,,,,,,,,,,,,,,,,,,,,,,,,,,,,,
,,,,,,,,,,,,,,,,,5d86d05f9854a60019240621,49,2022-02-12_11h43.02.286,lexical_decision_task_DD_L5,2021.2.3,Win32,60.0240096,,m,1,0.763,,,,,,,,0.763,1,0,2,2,2,1,1001,ALMOND,m,,,,,,,,,,,,,,,,,,,,,,,,,,,,,,,,,,,,,,,,,,,,,,,,,,,,,,,,,,,,,,,,,
,,,,,,,,,,,,,,,,,5d86d05f9854a60019240621,49,2022-02-12_11h43.02.286,lexical_decision_task_DD_L5,2021.2.3,Win32,60.0240096,,m,1,0.631,,,,,,,,0.631,1,0,3,3,4,1,1001,SQUEAK,m,,,,,,,,,,,,,,,,,,,,,,,,,,,,,,,,,,,,,,,,,,,,,,,,,,,,,,,,,,,,,,,,,
,,,,,,,,,,,,,,,,,5d86d05f9854a60019240621,49,2022-02-12_11h43.02.286,lexical_decision_task_DD_L5,2021.2.3,Win32,60.0240096,,z,1,0.849,,,,,,,,0.849,1,0,4,4,8,1,1001,ASLERT,z,,,,,,,,,,,,,,,,,,,,,,,,,,,,,,,,,,,,,,,,,,,,,,,,,,,,,,,,,,,,,,,,,
,,,,,,,,,,,,,,,,,5d86d05f9854a60019240621,49,2022-02-12_11h43.02.286,lexical_decision_task_DD_L5,2021.2.3,Win32,60.0240096,,m,1,0.651,,,,,,,,0.651,1,0,5,5,1,1,1001,ADJUST,m,,,,,,,,,,,,,,,,,,,,,,,,,,,,,,,,,,,,,,,,,,,,,,,,,,,,,,,,,,,,,,,,,
,,,,,,,,,,,,,,,,,5d86d05f9854a60019240621,49,2022-02-12_11h43.02.286,lexical_decision_task_DD_L5,2021.2.3,Win32,60.0240096,,z,1,0.783,,,,,,,,0.783,1,0,6,6,15,1,1001,WHAISE,z,,,,,,,,,,,,,,,,,,,,,,,,,,,,,,,,,,,,,,,,,,,,,,,,,,,,,,,,,,,,,,,,,
,,,,,,,,,,,,,,,,,5d86d05f9854a60019240621,49,2022-02-12_11h43.02.286,lexical_decision_task_DD_L5,2021.2.3,Win32,60.0240096,,m,1,0.785,,,,,,,,0.785,1,0,7,7,0,1,1001,UTOPIA,m,,,,,,,,,,,,,,,,,,,,,,,,,,,,,,,,,,,,,,,,,,,,,,,,,,,,,,,,,,,,,,,,,
,,,,,,,,,,,,,,,,,5d86d05f9854a60019240621,49,2022-02-12_11h43.02.286,lexical_decision_task_DD_L5,2021.2.3,Win32,60.0240096,,z,1,0.751,,,,,,,,0.751,1,0,8,8,14,1,1001,THRALE,z,,,,,,,,,,,,,,,,,,,,,,,,,,,,,,,,,,,,,,,,,,,,,,,,,,,,,,,,,,,,,,,,,
,,,,,,,,,,,,,,,,,5d86d05f9854a60019240621,49,2022-02-12_11h43.02.286,lexical_decision_task_DD_L5,2021.2.3,Win32,60.0240096,,z,1,0.666,,,,,,,,0.666,1,0,9,9,13,1,1001,ROUPET,z,,,,,,,,,,,,,,,,,,,,,,,,,,,,,,,,,,,,,,,,,,,,,,,,,,,,,,,,,,,,,,,,,
,,,,,,,,,,,,,,,,,5d86d05f9854a60019240621,49,2022-02-12_11h43.02.286,lexical_decision_task_DD_L5,2021.2.3,Win32,60.0240096,,m,1,0.734,,,,,,,,0.734,1,0,10,10,3,1,1001,MATRIX,m,,,,,,,,,,,,,,,,,,,,,,,,,,,,,,,,,,,,,,,,,,,,,,,,,,,,,,,,,,,,,,,,,
,,,,,,,,,,,,,,,,,5d86d05f9854a60019240621,49,2022-02-12_11h43.02.286,lexical_decision_task_DD_L5,2021.2.3,Win32,60.0240096,,m,1,0.649,,,,,,,,0.649,1,0,11,11,6,1,1001,ZOMBIE,m,,,,,,,,,,,,,,,,,,,,,,,,,,,,,,,,,,,,,,,,,,,,,,,,,,,,,,,,,,,,,,,,,
,,,,,,,,,,,,,,,,,5d86d05f9854a60019240621,49,2022-02-12_11h43.02.286,lexical_decision_task_DD_L5,2021.2.3,Win32,60.0240096,,m,1,0.65,,,,,,,,0.65,1,0,12,12,5,1,1001,OBTAIN,m,,,,,,,,,,,,,,,,,,,,,,,,,,,,,,,,,,,,,,,,,,,,,,,,,,,,,,,,,,,,,,,,,
,,,,,,,,,,,,,,,,,5d86d05f9854a60019240621,49,2022-02-12_11h43.02.286,lexical_decision_task_DD_L5,2021.2.3,Win32,60.0240096,,z,1,0.7,,,,,,,,0.7,1,0,13,13,11,1,1001,RASHET,z,,,,,,,,,,,,,,,,,,,,,,,,,,,,,,,,,,,,,,,,,,,,,,,,,,,,,,,,,,,,,,,,,
,,,,,,,,,,,,,,,,,5d86d05f9854a60019240621,49,2022-02-12_11h43.02.286,lexical_decision_task_DD_L5,2021.2.3,Win32,60.0240096,,z,1,0.783,,,,,,,,0.783,1,0,14,14,9,1,1001,FARINY,z,,,,,,,,,,,,,,,,,,,,,,,,,,,,,,,,,,,,,,,,,,,,,,,,,,,,,,,,,,,,,,,,,
,,,,,,,,,,,,,,,,,5d86d05f9854a60019240621,49,2022-02-12_11h43.02.286,lexical_decision_task_DD_L5,2021.2.3,Win32,60.0240096,,z,1,0.65,,,,,,,,0.65,1,0,15,15,10,1,1001,INLADE,z,,,,,,,,,,,,,,,,,,,,,,,,,,,,,,,,,,,,,,,,,,,,,,,,,,,,,,,,,,,,,,,,,
space,-0.106481481,-0.397222222,0,0,0,,,,,,,1,end_of_practice,"You have completed the practice trials. During the experimental trials, you will not receive feedback. 
Before you begin, please ensure that you are in a comfortable and quiet location and will not be disturbed for about 15 minutes, as we cannot use your data if you do not complete all the trials. 
 When you are ready to start the experimental trials, please press space or touch the button below.",,,5d86d05f9854a60019240621,49,2022-02-12_11h43.02.286,lexical_decision_task_DD_L5,2021.2.3,Win32,60.0240096,10.75,,,,,,,,,,,,,,,,,,,,,0,0,0,0,1,,,,,,,,,,,,,,,,,,,,,,,,,,,,,,,,,,,,,,,,,,,,,,,,,,,,,,,,,,,,
,,,,,,,,,,,,,,,,,5d86d05f9854a60019240621,49,2022-02-12_11h43.02.286,lexical_decision_task_DD_L5,2021.2.3,Win32,60.0240096,,,,,,,,,,,,3.922,0,,,,,,,,,,,,,,m,0,3.922,,,,,,,,-0.106481481,-0.397222222,0,0,0,,0,0,0,100,1,DRIBS,HB,old,z,./images/DRIBSHB.png,,,,,,,,,,,,,,,,,,,,,,,,,,,,,,,,,,
,,,,,,,,,,,,,,,,,5d86d05f9854a60019240621,49,2022-02-12_11h43.02.286,lexical_decision_task_DD_L5,2021.2.3,Win32,60.0240096,,,,,,,,,,,,1.296,1,,,,,,,,,,,,,,m,1,1.296,,,,,,,,-0.106481481,-0.397222222,0,0,0,,0,1,1,51,1,SAUCE,HB,old,m,./images/SAUCEHB.png,,,,,,,,,,,,,,,,,,,,,,,,,,,,,,,,,,
,,,,,,,,,,,,,,,,,5d86d05f9854a60019240621,49,2022-02-12_11h43.02.286,lexical_decision_task_DD_L5,2021.2.3,Win32,60.0240096,,,,,,,,,,,,0.683,1,,,,,,,,,,,,,,m,1,0.683,,,,,,,,-0.106481481,-0.397222222,0,0,0,,0,2,2,70,1,BANANA,LB,old,m,./images/BANANALB.png,,,,,,,,,,,,,,,,,,,,,,,,,,,,,,,,,,
,,,,,,,,,,,,,,,,,5d86d05f9854a60019240621,49,2022-02-12_11h43.02.286,lexical_decision_task_DD_L5,2021.2.3,Win32,60.0240096,,,,,,,,,,,,0.551,1,,,,,,,,,,,,,,m,1,0.551,,,,,,,,-0.106481481,-0.397222222,0,0,0,,0,3,3,4,1,BOXER,LB,old,m,./images/BOXERLB.png,,,,,,,,,,,,,,,,,,,,,,,,,,,,,,,,,,
,,,,,,,,,,,,,,,,,5d86d05f9854a60019240621,49,2022-02-12_11h43.02.286,lexical_decision_task_DD_L5,2021.2.3,Win32,60.0240096,,,,,,,,,,,,1.233,1,,,,,,,,,,,,,,m,1,1.233,,,,,,,,-0.106481481,-0.397222222,0,0,0,,0,4,4,36,1,BOILER,HB,old,m,./images/BOILERHB.png,,,,,,,,,,,,,,,,,,,,,,,,,,,,,,,,,,
,,,,,,,,,,,,,,,,,5d86d05f9854a60019240621,49,2022-02-12_11h43.02.286,lexical_decision_task_DD_L5,2021.2.3,Win32,60.0240096,,,,,,,,,,,,1.378,1,,,,,,,,,,,,,,z,1,1.378,,,,,,,,-0.106481481,-0.397222222,0,0,0,,0,5,5,127,1,NINDY,HB,old,z,./images/NINDYHB.png,,,,,,,,,,,,,,,,,,,,,,,,,,,,,,,,,,
,,,,,,,,,,,,,,,,,5d86d05f9854a60019240621,49,2022-02-12_11h43.02.286,lexical_decision_task_DD_L5,2021.2.3,Win32,60.0240096,,,,,,,,,,,,0.778,1,,,,,,,,,,,,,,m,1,0.778,,,,,,,,-0.106481481,-0.397222222,0,0,0,,0,6,6,82,1,PEBBLE,LB,old,m,./images/PEBBLELB.png,,,,,,,,,,,,,,,,,,,,,,,,,,,,,,,,,,
,,,,,,,,,,,,,,,,,5d86d05f9854a60019240621,49,2022-02-12_11h43.02.286,lexical_decision_task_DD_L5,2021.2.3,Win32,60.0240096,,,,,,,,,,,,1.187,1,,,,,,,,,,,,,,m,1,1.187,,,,,,,,-0.106481481,-0.397222222,0,0,0,,0,7,7,30,1,SLOPE,HB,old,m,./images/SLOPEHB.png,,,,,,,,,,,,,,,,,,,,,,,,,,,,,,,,,,
,,,,,,,,,,,,,,,,,5d86d05f9854a60019240621,49,2022-02-12_11h43.02.286,lexical_decision_task_DD_L5,2021.2.3,Win32,60.0240096,,,,,,,,,,,,0.806,1,,,,,,,,,,,,,,z,1,0.806,,,,,,,,-0.106481481,-0.397222222,0,0,0,,0,8,8,90,1,NEAST,C,old,z,./images/NEAST.png,,,,,,,,,,,,,,,,,,,,,,,,,,,,,,,,,,
,,,,,,,,,,,,,,,,,5d86d05f9854a60019240621,49,2022-02-12_11h43.02.286,lexical_decision_task_DD_L5,2021.2.3,Win32,60.0240096,,,,,,,,,,,,0.721,1,,,,,,,,,,,,,,z,1,0.721,,,,,,,,-0.106481481,-0.397222222,0,0,0,,0,9,9,137,1,JOOST,LB,old,z,./images/JOOSTLB.png,,,,,,,,,,,,,,,,,,,,,,,,,,,,,,,,,,
,,,,,,,,,,,,,,,,,5d86d05f9854a60019240621,49,2022-02-12_11h43.02.286,lexical_decision_task_DD_L5,2021.2.3,Win32,60.0240096,,,,,,,,,,,,0.638,1,,,,,,,,,,,,,,m,1,0.638,,,,,,,,-0.106481481,-0.397222222,0,0,0,,0,10,10,79,1,RULER,LB,old,m,./images/RULERLB.png,,,,,,,,,,,,,,,,,,,,,,,,,,,,,,,,,,
,,,,,,,,,,,,,,,,,5d86d05f9854a60019240621,49,2022-02-12_11h43.02.286,lexical_decision_task_DD_L5,2021.2.3,Win32,60.0240096,,,,,,,,,,,,0.722,1,,,,,,,,,,,,,,z,1,0.722,,,,,,,,-0.106481481,-0.397222222,0,0,0,,0,11,11,156,1,HIXES,C,old,z,./images/HIXES.png,,,,,,,,,,,,,,,,,,,,,,,,,,,,,,,,,,
,,,,,,,,,,,,,,,,,5d86d05f9854a60019240621,49,2022-02-12_11h43.02.286,lexical_decision_task_DD_L5,2021.2.3,Win32,60.0240096,,,,,,,,,,,,0.779,1,,,,,,,,,,,,,,m,1,0.779,,,,,,,,-0.106481481,-0.397222222,0,0,0,,0,12,12,19,1,DONKEY,LB,old,m,./images/DONKEYLB.png,,,,,,,,,,,,,,,,,,,,,,,,,,,,,,,,,,
,,,,,,,,,,,,,,,,,5d86d05f9854a60019240621,49,2022-02-12_11h43.02.286,lexical_decision_task_DD_L5,2021.2.3,Win32,60.0240096,,,,,,,,,,,,0.815,1,,,,,,,,,,,,,,z,1,0.815,,,,,,,,-0.106481481,-0.397222222,0,0,0,,0,13,13,141,1,PLEET,C,old,z,./images/PLEET.png,,,,,,,,,,,,,,,,,,,,,,,,,,,,,,,,,,
,,,,,,,,,,,,,,,,,5d86d05f9854a60019240621,49,2022-02-12_11h43.02.286,lexical_decision_task_DD_L5,2021.2.3,Win32,60.0240096,,,,,,,,,,,,1.312,1,,,,,,,,,,,,,,z,1,1.312,,,,,,,,-0.106481481,-0.397222222,0,0,0,,0,14,14,134,1,TROSS,LB,old,z,./images/TROSSLB.png,,,,,,,,,,,,,,,,,,,,,,,,,,,,,,,,,,
,,,,,,,,,,,,,,,,,5d86d05f9854a60019240621,49,2022-02-12_11h43.02.286,lexical_decision_task_DD_L5,2021.2.3,Win32,60.0240096,,,,,,,,,,,,0.71,1,,,,,,,,,,,,,,m,1,0.71,,,,,,,,-0.106481481,-0.397222222,0,0,0,,0,15,15,26,1,CLOUD,C,old,m,./images/CLOUD.png,,,,,,,,,,,,,,,,,,,,,,,,,,,,,,,,,,
,,,,,,,,,,,,,,,,,5d86d05f9854a60019240621,49,2022-02-12_11h43.02.286,lexical_decision_task_DD_L5,2021.2.3,Win32,60.0240096,,,,,,,,,,,,1.519,1,,,,,,,,,,,,,,z,1,1.519,,,,,,,,-0.106481481,-0.397222222,0,0,0,,0,16,16,91,1,SHENS,HB,old,z,./images/SHENSHB.png,,,,,,,,,,,,,,,,,,,,,,,,,,,,,,,,,,
,,,,,,,,,,,,,,,,,5d86d05f9854a60019240621,49,2022-02-12_11h43.02.286,lexical_decision_task_DD_L5,2021.2.3,Win32,60.0240096,,,,,,,,,,,,1.689,1,,,,,,,,,,,,,,z,1,1.689,,,,,,,,-0.106481481,-0.397222222,0,0,0,,0,17,17,151,1,TINKY,HB,old,z,./images/TINKYHB.png,,,,,,,,,,,,,,,,,,,,,,,,,,,,,,,,,,
,,,,,,,,,,,,,,,,,5d86d05f9854a60019240621,49,2022-02-12_11h43.02.286,lexical_decision_task_DD_L5,2021.2.3,Win32,60.0240096,,,,,,,,,,,,0.783,1,,,,,,,,,,,,,,z,1,0.783,,,,,,,,-0.106481481,-0.397222222,0,0,0,,0,18,18,167,1,ZONET,LB,old,z,./images/ZONETLB.png,,,,,,,,,,,,,,,,,,,,,,,,,,,,,,,,,,
,,,,,,,,,,,,,,,,,5d86d05f9854a60019240621,49,2022-02-12_11h43.02.286,lexical_decision_task_DD_L5,2021.2.3,Win32,60.0240096,,,,,,,,,,,,0.773,1,,,,,,,,,,,,,,z,1,0.773,,,,,,,,-0.106481481,-0.397222222,0,0,0,,0,19,19,150,1,NOOLS,C,old,z,./images/NOOLS.png,,,,,,,,,,,,,,,,,,,,,,,,,,,,,,,,,,
,,,,,,,,,,,,,,,,,5d86d05f9854a60019240621,49,2022-02-12_11h43.02.286,lexical_decision_task_DD_L5,2021.2.3,Win32,60.0240096,,,,,,,,,,,,1.22,1,,,,,,,,,,,,,,z,1,1.22,,,,,,,,-0.106481481,-0.397222222,0,0,0,,0,20,20,142,1,PLASK,HB,old,z,./images/PLASKHB.png,,,,,,,,,,,,,,,,,,,,,,,,,,,,,,,,,,
,,,,,,,,,,,,,,,,,5d86d05f9854a60019240621,49,2022-02-12_11h43.02.286,lexical_decision_task_DD_L5,2021.2.3,Win32,60.0240096,,,,,,,,,,,,0.964,1,,,,,,,,,,,,,,m,1,0.964,,,,,,,,-0.106481481,-0.397222222,0,0,0,,0,21,21,0,1,WALNUT,HB,old,m,./images/WALNUTHB.png,,,,,,,,,,,,,,,,,,,,,,,,,,,,,,,,,,
,,,,,,,,,,,,,,,,,5d86d05f9854a60019240621,49,2022-02-12_11h43.02.286,lexical_decision_task_DD_L5,2021.2.3,Win32,60.0240096,,,,,,,,,,,,0.929,1,,,,,,,,,,,,,,z,1,0.929,,,,,,,,-0.106481481,-0.397222222,0,0,0,,0,22,22,158,1,EGECT,LB,old,z,./images/EGECTLB.png,,,,,,,,,,,,,,,,,,,,,,,,,,,,,,,,,,
,,,,,,,,,,,,,,,,,5d86d05f9854a60019240621,49,2022-02-12_11h43.02.286,lexical_decision_task_DD_L5,2021.2.3,Win32,60.0240096,,,,,,,,,,,,0.695,1,,,,,,,,,,,,,,z,1,0.695,,,,,,,,-0.106481481,-0.397222222,0,0,0,,0,23,23,120,1,RINED,C,old,z,./images/RINED.png,,,,,,,,,,,,,,,,,,,,,,,,,,,,,,,,,,
,,,,,,,,,,,,,,,,,5d86d05f9854a60019240621,49,2022-02-12_11h43.02.286,lexical_decision_task_DD_L5,2021.2.3,Win32,60.0240096,,,,,,,,,,,,0.897,1,,,,,,,,,,,,,,z,1,0.897,,,,,,,,-0.106481481,-0.397222222,0,0,0,,0,24,24,121,1,CEERS,HB,old,z,./images/CEERSHB.png,,,,,,,,,,,,,,,,,,,,,,,,,,,,,,,,,,
,,,,,,,,,,,,,,,,,5d86d05f9854a60019240621,49,2022-02-12_11h43.02.286,lexical_decision_task_DD_L5,2021.2.3,Win32,60.0240096,,,,,,,,,,,,0.787,1,,,,,,,,,,,,,,m,1,0.787,,,,,,,,-0.106481481,-0.397222222,0,0,0,,0,25,25,54,1,CHERRY,HB,old,m,./images/CHERRYHB.png,,,,,,,,,,,,,,,,,,,,,,,,,,,,,,,,,,
,,,,,,,,,,,,,,,,,5d86d05f9854a60019240621,49,2022-02-12_11h43.02.286,lexical_decision_task_DD_L5,2021.2.3,Win32,60.0240096,,,,,,,,,,,,0.889,1,,,,,,,,,,,,,,z,1,0.889,,,,,,,,-0.106481481,-0.397222222,0,0,0,,0,26,26,148,1,JOMS,HB,old,z,./images/JOMSHB.png,,,,,,,,,,,,,,,,,,,,,,,,,,,,,,,,,,
,,,,,,,,,,,,,,,,,5d86d05f9854a60019240621,49,2022-02-12_11h43.02.286,lexical_decision_task_DD_L5,2021.2.3,Win32,60.0240096,,,,,,,,,,,,1.627,1,,,,,,,,,,,,,,z,1,1.627,,,,,,,,-0.106481481,-0.397222222,0,0,0,,0,27,27,166,1,SHORY,HB,old,z,./images/SHORYHB.png,,,,,,,,,,,,,,,,,,,,,,,,,,,,,,,,,,
,,,,,,,,,,,,,,,,,5d86d05f9854a60019240621,49,2022-02-12_11h43.02.286,lexical_decision_task_DD_L5,2021.2.3,Win32,60.0240096,,,,,,,,,,,,0.752,1,,,,,,,,,,,,,,z,1,0.752,,,,,,,,-0.106481481,-0.397222222,0,0,0,,0,28,28,85,1,CHULK,HB,old,z,./images/CHULKHB.png,,,,,,,,,,,,,,,,,,,,,,,,,,,,,,,,,,
,,,,,,,,,,,,,,,,,5d86d05f9854a60019240621,49,2022-02-12_11h43.02.286,lexical_decision_task_DD_L5,2021.2.3,Win32,60.0240096,,,,,,,,,,,,0.696,1,,,,,,,,,,,,,,m,1,0.696,,,,,,,,-0.106481481,-0.397222222,0,0,0,,0,29,29,29,1,PISTOL,C,old,m,./images/PISTOL.png,,,,,,,,,,,,,,,,,,,,,,,,,,,,,,,,,,
,,,,,,,,,,,,,,,,,5d86d05f9854a60019240621,49,2022-02-12_11h43.02.286,lexical_decision_task_DD_L5,2021.2.3,Win32,60.0240096,,,,,,,,,,,,0.745,1,,,,,,,,,,,,,,z,1,0.745,,,,,,,,-0.106481481,-0.397222222,0,0,0,,0,30,30,125,1,MOOKY,LB,old,z,./images/MOOKYLB.png,,,,,,,,,,,,,,,,,,,,,,,,,,,,,,,,,,
,,,,,,,,,,,,,,,,,5d86d05f9854a60019240621,49,2022-02-12_11h43.02.286,lexical_decision_task_DD_L5,2021.2.3,Win32,60.0240096,,,,,,,,,,,,1.894,1,,,,,,,,,,,,,,m,1,1.894,,,,,,,,-0.106481481,-0.397222222,0,0,0,,0,31,31,58,1,CANOE,LB,old,m,./images/CANOELB.png,,,,,,,,,,,,,,,,,,,,,,,,,,,,,,,,,,
,,,,,,,,,,,,,,,,,5d86d05f9854a60019240621,49,2022-02-12_11h43.02.286,lexical_decision_task_DD_L5,2021.2.3,Win32,60.0240096,,,,,,,,,,,,0.646,1,,,,,,,,,,,,,,m,1,0.646,,,,,,,,-0.106481481,-0.397222222,0,0,0,,0,32,32,23,1,CLOTH,C,old,m,./images/CLOTH.png,,,,,,,,,,,,,,,,,,,,,,,,,,,,,,,,,,
,,,,,,,,,,,,,,,,,5d86d05f9854a60019240621,49,2022-02-12_11h43.02.286,lexical_decision_task_DD_L5,2021.2.3,Win32,60.0240096,,,,,,,,,,,,0.671,1,,,,,,,,,,,,,,m,1,0.671,,,,,,,,-0.106481481,-0.397222222,0,0,0,,0,33,33,47,1,LAGOON,C,old,m,./images/LAGOON.png,,,,,,,,,,,,,,,,,,,,,,,,,,,,,,,,,,
,,,,,,,,,,,,,,,,,5d86d05f9854a60019240621,49,2022-02-12_11h43.02.286,lexical_decision_task_DD_L5,2021.2.3,Win32,60.0240096,,,,,,,,,,,,0.578,1,,,,,,,,,,,,,,m,1,0.578,,,,,,,,-0.106481481,-0.397222222,0,0,0,,0,34,34,71,1,BUBBLE,C,old,m,./images/BUBBLE.png,,,,,,,,,,,,,,,,,,,,,,,,,,,,,,,,,,
,,,,,,,,,,,,,,,,,5d86d05f9854a60019240621,49,2022-02-12_11h43.02.286,lexical_decision_task_DD_L5,2021.2.3,Win32,60.0240096,,,,,,,,,,,,0.521,1,,,,,,,,,,,,,,m,1,0.521,,,,,,,,-0.106481481,-0.397222222,0,0,0,,0,35,35,44,1,BASKET,C,old,m,./images/BASKET.png,,,,,,,,,,,,,,,,,,,,,,,,,,,,,,,,,,
,,,,,,,,,,,,,,,,,5d86d05f9854a60019240621,49,2022-02-12_11h43.02.286,lexical_decision_task_DD_L5,2021.2.3,Win32,60.0240096,,,,,,,,,,,,0.65,1,,,,,,,,,,,,,,z,1,0.65,,,,,,,,-0.106481481,-0.397222222,0,0,0,,0,36,36,143,1,MONGS,LB,old,z,./images/MONGSLB.png,,,,,,,,,,,,,,,,,,,,,,,,,,,,,,,,,,
,,,,,,,,,,,,,,,,,5d86d05f9854a60019240621,49,2022-02-12_11h43.02.286,lexical_decision_task_DD_L5,2021.2.3,Win32,60.0240096,,,,,,,,,,,,1.619,1,,,,,,,,,,,,,,m,1,1.619,,,,,,,,-0.106481481,-0.397222222,0,0,0,,0,37,37,9,1,DIVER,HB,old,m,./images/DIVERHB.png,,,,,,,,,,,,,,,,,,,,,,,,,,,,,,,,,,
,,,,,,,,,,,,,,,,,5d86d05f9854a60019240621,49,2022-02-12_11h43.02.286,lexical_decision_task_DD_L5,2021.2.3,Win32,60.0240096,,,,,,,,,,,,0.828,1,,,,,,,,,,,,,,z,1,0.828,,,,,,,,-0.106481481,-0.397222222,0,0,0,,0,38,38,152,1,FRAIN,LB,old,z,./images/FRAINLB.png,,,,,,,,,,,,,,,,,,,,,,,,,,,,,,,,,,
,,,,,,,,,,,,,,,,,5d86d05f9854a60019240621,49,2022-02-12_11h43.02.286,lexical_decision_task_DD_L5,2021.2.3,Win32,60.0240096,,,,,,,,,,,,1.22,1,,,,,,,,,,,,,,m,1,1.22,,,,,,,,-0.106481481,-0.397222222,0,0,0,,0,39,39,33,1,SAUNA,HB,old,m,./images/SAUNAHB.png,,,,,,,,,,,,,,,,,,,,,,,,,,,,,,,,,,
,,,,,,,,,,,,,,,,,5d86d05f9854a60019240621,49,2022-02-12_11h43.02.286,lexical_decision_task_DD_L5,2021.2.3,Win32,60.0240096,,,,,,,,,,,,0.696,1,,,,,,,,,,,,,,z,1,0.696,,,,,,,,-0.106481481,-0.397222222,0,0,0,,0,40,40,111,1,HOSSE,C,old,z,./images/HOSSE.png,,,,,,,,,,,,,,,,,,,,,,,,,,,,,,,,,,
,,,,,,,,,,,,,,,,,5d86d05f9854a60019240621,49,2022-02-12_11h43.02.286,lexical_decision_task_DD_L5,2021.2.3,Win32,60.0240096,,,,,,,,,,,,0.697,1,,,,,,,,,,,,,,z,1,0.697,,,,,,,,-0.106481481,-0.397222222,0,0,0,space,0,41,41,104,1,GITTY,LB,old,z,./images/GITTYLB.png,6.25,,,,,,,,,,,,,,,,,,,,,,,,,,,,,,,,,
,,,,,,,,,,,,,,,,,5d86d05f9854a60019240621,49,2022-02-12_11h43.02.286,lexical_decision_task_DD_L5,2021.2.3,Win32,60.0240096,,,,,,,,,,,,0.772,1,,,,,,,,,,,,,,z,1,0.772,,,,,,,,-0.106481481,-0.397222222,0,0,0,,0,42,42,107,1,FASKS,LB,old,z,./images/FASKSLB.png,,,,,,,,,,,,,,,,,,,,,,,,,,,,,,,,,,
,,,,,,,,,,,,,,,,,5d86d05f9854a60019240621,49,2022-02-12_11h43.02.286,lexical_decision_task_DD_L5,2021.2.3,Win32,60.0240096,,,,,,,,,,,,1.137,1,,,,,,,,,,,,,,z,1,1.137,,,,,,,,-0.106481481,-0.397222222,0,0,0,,0,43,43,124,1,TUNCH,HB,old,z,./images/TUNCHHB.png,,,,,,,,,,,,,,,,,,,,,,,,,,,,,,,,,,
,,,,,,,,,,,,,,,,,5d86d05f9854a60019240621,49,2022-02-12_11h43.02.286,lexical_decision_task_DD_L5,2021.2.3,Win32,60.0240096,,,,,,,,,,,,0.616,1,,,,,,,,,,,,,,z,1,0.616,,,,,,,,-0.106481481,-0.397222222,0,0,0,,0,44,44,84,1,HAXES,C,old,z,./images/HAXES.png,,,,,,,,,,,,,,,,,,,,,,,,,,,,,,,,,,
,,,,,,,,,,,,,,,,,5d86d05f9854a60019240621,49,2022-02-12_11h43.02.286,lexical_decision_task_DD_L5,2021.2.3,Win32,60.0240096,,,,,,,,,,,,0.565,1,,,,,,,,,,,,,,z,1,0.565,,,,,,,,-0.106481481,-0.397222222,0,0,0,,0,45,45,89,1,DRIEK,LB,old,z,./images/DRIEKLB.png,,,,,,,,,,,,,,,,,,,,,,,,,,,,,,,,,,
,,,,,,,,,,,,,,,,,5d86d05f9854a60019240621,49,2022-02-12_11h43.02.286,lexical_decision_task_DD_L5,2021.2.3,Win32,60.0240096,,,,,,,,,,,,0.751,1,,,,,,,,,,,,,,m,1,0.751,,,,,,,,-0.106481481,-0.397222222,0,0,0,,0,46,46,76,1,MIDGET,LB,old,m,./images/MIDGETLB.png,,,,,,,,,,,,,,,,,,,,,,,,,,,,,,,,,,
,,,,,,,,,,,,,,,,,5d86d05f9854a60019240621,49,2022-02-12_11h43.02.286,lexical_decision_task_DD_L5,2021.2.3,Win32,60.0240096,,,,,,,,,,,,0.713,1,,,,,,,,,,,,,,m,1,0.713,,,,,,,,-0.106481481,-0.397222222,0,0,0,,0,47,47,46,1,MUMMY,LB,old,m,./images/MUMMYLB.png,,,,,,,,,,,,,,,,,,,,,,,,,,,,,,,,,,
,,,,,,,,,,,,,,,,,5d86d05f9854a60019240621,49,2022-02-12_11h43.02.286,lexical_decision_task_DD_L5,2021.2.3,Win32,60.0240096,,,,,,,,,,,,1.098,1,,,,,,,,,,,,,,m,1,1.098,,,,,,,,-0.106481481,-0.397222222,0,0,0,,0,48,48,63,1,BAKER,HB,old,m,./images/BAKERHB.png,,,,,,,,,,,,,,,,,,,,,,,,,,,,,,,,,,
,,,,,,,,,,,,,,,,,5d86d05f9854a60019240621,49,2022-02-12_11h43.02.286,lexical_decision_task_DD_L5,2021.2.3,Win32,60.0240096,,,,,,,,,,,,1.189,1,,,,,,,,,,,,,,m,1,1.189,,,,,,,,-0.106481481,-0.397222222,0,0,0,,0,49,49,73,1,GLOVE,LB,old,m,./images/GLOVELB.png,,,,,,,,,,,,,,,,,,,,,,,,,,,,,,,,,,
,,,,,,,,,,,,,,,,,5d86d05f9854a60019240621,49,2022-02-12_11h43.02.286,lexical_decision_task_DD_L5,2021.2.3,Win32,60.0240096,,,,,,,,,,,,0.662,1,,,,,,,,,,,,,,z,1,0.662,,,,,,,,-0.106481481,-0.397222222,0,0,0,,0,50,50,126,1,GUELS,C,old,z,./images/GUELS.png,,,,,,,,,,,,,,,,,,,,,,,,,,,,,,,,,,
,,,,,,,,,,,,,,,,,5d86d05f9854a60019240621,49,2022-02-12_11h43.02.286,lexical_decision_task_DD_L5,2021.2.3,Win32,60.0240096,,,,,,,,,,,,0.72,1,,,,,,,,,,,,,,z,1,0.72,,,,,,,,-0.106481481,-0.397222222,0,0,0,,0,51,51,92,1,PAIMS,LB,old,z,./images/PAIMSLB.png,,,,,,,,,,,,,,,,,,,,,,,,,,,,,,,,,,
,,,,,,,,,,,,,,,,,5d86d05f9854a60019240621,49,2022-02-12_11h43.02.286,lexical_decision_task_DD_L5,2021.2.3,Win32,60.0240096,,,,,,,,,,,,1.054,1,,,,,,,,,,,,,,z,1,1.054,,,,,,,,-0.106481481,-0.397222222,0,0,0,,0,52,52,133,1,POWDY,HB,old,z,./images/POWDYHB.png,,,,,,,,,,,,,,,,,,,,,,,,,,,,,,,,,,
,,,,,,,,,,,,,,,,,5d86d05f9854a60019240621,49,2022-02-12_11h43.02.286,lexical_decision_task_DD_L5,2021.2.3,Win32,60.0240096,,,,,,,,,,,,0.548,1,,,,,,,,,,,,,,m,1,0.548,,,,,,,,-0.106481481,-0.397222222,0,0,0,,0,53,53,1,1,TOWEL,LB,old,m,./images/TOWELLB.png,,,,,,,,,,,,,,,,,,,,,,,,,,,,,,,,,,
,,,,,,,,,,,,,,,,,5d86d05f9854a60019240621,49,2022-02-12_11h43.02.286,lexical_decision_task_DD_L5,2021.2.3,Win32,60.0240096,,,,,,,,,,,,0.732,1,,,,,,,,,,,,,,z,1,0.732,,,,,,,,-0.106481481,-0.397222222,0,0,0,,0,54,54,103,1,FLORT,HB,old,z,./images/FLORTHB.png,,,,,,,,,,,,,,,,,,,,,,,,,,,,,,,,,,
,,,,,,,,,,,,,,,,,5d86d05f9854a60019240621,49,2022-02-12_11h43.02.286,lexical_decision_task_DD_L5,2021.2.3,Win32,60.0240096,,,,,,,,,,,,1.095,1,,,,,,,,,,,,,,z,1,1.095,,,,,,,,-0.106481481,-0.397222222,0,0,0,,0,55,55,154,1,THINT,HB,old,z,./images/THINTHB.png,,,,,,,,,,,,,,,,,,,,,,,,,,,,,,,,,,
,,,,,,,,,,,,,,,,,5d86d05f9854a60019240621,49,2022-02-12_11h43.02.286,lexical_decision_task_DD_L5,2021.2.3,Win32,60.0240096,,,,,,,,,,,,1.216,1,,,,,,,,,,,,,,z,1,1.216,,,,,,,,-0.106481481,-0.397222222,0,0,0,,0,56,56,112,1,MYING,HB,old,z,./images/MYINGHB.png,,,,,,,,,,,,,,,,,,,,,,,,,,,,,,,,,,
,,,,,,,,,,,,,,,,,5d86d05f9854a60019240621,49,2022-02-12_11h43.02.286,lexical_decision_task_DD_L5,2021.2.3,Win32,60.0240096,,,,,,,,,,,,0.774,1,,,,,,,,,,,,,,z,1,0.774,,,,,,,,-0.106481481,-0.397222222,0,0,0,,0,57,57,155,1,CANGY,LB,old,z,./images/CANGYLB.png,,,,,,,,,,,,,,,,,,,,,,,,,,,,,,,,,,
,,,,,,,,,,,,,,,,,5d86d05f9854a60019240621,49,2022-02-12_11h43.02.286,lexical_decision_task_DD_L5,2021.2.3,Win32,60.0240096,,,,,,,,,,,,0.671,1,,,,,,,,,,,,,,m,1,0.671,,,,,,,,-0.106481481,-0.397222222,0,0,0,,0,58,58,34,1,RAZOR,LB,old,m,./images/RAZORLB.png,,,,,,,,,,,,,,,,,,,,,,,,,,,,,,,,,,
,,,,,,,,,,,,,,,,,5d86d05f9854a60019240621,49,2022-02-12_11h43.02.286,lexical_decision_task_DD_L5,2021.2.3,Win32,60.0240096,,,,,,,,,,,,0.805,1,,,,,,,,,,,,,,z,1,0.805,,,,,,,,-0.106481481,-0.397222222,0,0,0,,0,59,59,128,1,GRIFT,LB,old,z,./images/GRIFTLB.png,,,,,,,,,,,,,,,,,,,,,,,,,,,,,,,,,,
,,,,,,,,,,,,,,,,,5d86d05f9854a60019240621,49,2022-02-12_11h43.02.286,lexical_decision_task_DD_L5,2021.2.3,Win32,60.0240096,,,,,,,,,,,,0.779,1,,,,,,,,,,,,,,z,1,0.779,,,,,,,,-0.106481481,-0.397222222,0,0,0,,0,60,60,105,1,MOKER,C,old,z,./images/MOKER.png,,,,,,,,,,,,,,,,,,,,,,,,,,,,,,,,,,
,,,,,,,,,,,,,,,,,5d86d05f9854a60019240621,49,2022-02-12_11h43.02.286,lexical_decision_task_DD_L5,2021.2.3,Win32,60.0240096,,,,,,,,,,,,0.78,1,,,,,,,,,,,,,,z,1,0.78,,,,,,,,-0.106481481,-0.397222222,0,0,0,,0,61,61,123,1,SEDGE,C,old,z,./images/SEDGE.png,,,,,,,,,,,,,,,,,,,,,,,,,,,,,,,,,,
,,,,,,,,,,,,,,,,,5d86d05f9854a60019240621,49,2022-02-12_11h43.02.286,lexical_decision_task_DD_L5,2021.2.3,Win32,60.0240096,,,,,,,,,,,,0.917,1,,,,,,,,,,,,,,z,1,0.917,,,,,,,,-0.106481481,-0.397222222,0,0,0,,0,62,62,110,1,CRUNK,LB,old,z,./images/CRUNKLB.png,,,,,,,,,,,,,,,,,,,,,,,,,,,,,,,,,,
,,,,,,,,,,,,,,,,,5d86d05f9854a60019240621,49,2022-02-12_11h43.02.286,lexical_decision_task_DD_L5,2021.2.3,Win32,60.0240096,,,,,,,,,,,,1.722,1,,,,,,,,,,,,,,z,1,1.722,,,,,,,,-0.106481481,-0.397222222,0,0,0,,0,63,63,88,1,GLUSH,HB,old,z,./images/GLUSHHB.png,,,,,,,,,,,,,,,,,,,,,,,,,,,,,,,,,,
,,,,,,,,,,,,,,,,,5d86d05f9854a60019240621,49,2022-02-12_11h43.02.286,lexical_decision_task_DD_L5,2021.2.3,Win32,60.0240096,,,,,,,,,,,,1.054,1,,,,,,,,,,,,,,m,1,1.054,,,,,,,,-0.106481481,-0.397222222,0,0,0,,0,64,64,64,1,BRIDE,LB,old,m,./images/BRIDELB.png,,,,,,,,,,,,,,,,,,,,,,,,,,,,,,,,,,
,,,,,,,,,,,,,,,,,5d86d05f9854a60019240621,49,2022-02-12_11h43.02.286,lexical_decision_task_DD_L5,2021.2.3,Win32,60.0240096,,,,,,,,,,,,0.944,1,,,,,,,,,,,,,,m,1,0.944,,,,,,,,-0.106481481,-0.397222222,0,0,0,,0,65,65,81,1,DRILL,HB,old,m,./images/DRILLHB.png,,,,,,,,,,,,,,,,,,,,,,,,,,,,,,,,,,
,,,,,,,,,,,,,,,,,5d86d05f9854a60019240621,49,2022-02-12_11h43.02.286,lexical_decision_task_DD_L5,2021.2.3,Win32,60.0240096,,,,,,,,,,,,0.815,1,,,,,,,,,,,,,,z,1,0.815,,,,,,,,-0.106481481,-0.397222222,0,0,0,,0,66,66,116,1,BALGY,LB,old,z,./images/BALGYLB.png,,,,,,,,,,,,,,,,,,,,,,,,,,,,,,,,,,
,,,,,,,,,,,,,,,,,5d86d05f9854a60019240621,49,2022-02-12_11h43.02.286,lexical_decision_task_DD_L5,2021.2.3,Win32,60.0240096,,,,,,,,,,,,0.757,1,,,,,,,,,,,,,,z,1,0.757,,,,,,,,-0.106481481,-0.397222222,0,0,0,,0,67,67,135,1,JOODY,C,old,z,./images/JOODY.png,,,,,,,,,,,,,,,,,,,,,,,,,,,,,,,,,,
,,,,,,,,,,,,,,,,,5d86d05f9854a60019240621,49,2022-02-12_11h43.02.286,lexical_decision_task_DD_L5,2021.2.3,Win32,60.0240096,,,,,,,,,,,,0.704,1,,,,,,,,,,,,,,z,1,0.704,,,,,,,,-0.106481481,-0.397222222,0,0,0,,0,68,68,119,1,PAFER,LB,old,z,./images/PAFERLB.png,,,,,,,,,,,,,,,,,,,,,,,,,,,,,,,,,,
,,,,,,,,,,,,,,,,,5d86d05f9854a60019240621,49,2022-02-12_11h43.02.286,lexical_decision_task_DD_L5,2021.2.3,Win32,60.0240096,,,,,,,,,,,,0.706,1,,,,,,,,,,,,,,z,1,0.706,,,,,,,,-0.106481481,-0.397222222,0,0,0,,0,69,69,95,1,HANTY,LB,old,z,./images/HANTYLB.png,,,,,,,,,,,,,,,,,,,,,,,,,,,,,,,,,,
,,,,,,,,,,,,,,,,,5d86d05f9854a60019240621,49,2022-02-12_11h43.02.286,lexical_decision_task_DD_L5,2021.2.3,Win32,60.0240096,,,,,,,,,,,,0.657,1,,,,,,,,,,,,,,m,1,0.657,,,,,,,,-0.106481481,-0.397222222,0,0,0,,0,70,70,62,1,MAMMAL,C,old,m,./images/MAMMAL.png,,,,,,,,,,,,,,,,,,,,,,,,,,,,,,,,,,
,,,,,,,,,,,,,,,,,5d86d05f9854a60019240621,49,2022-02-12_11h43.02.286,lexical_decision_task_DD_L5,2021.2.3,Win32,60.0240096,,,,,,,,,,,,0.73,1,,,,,,,,,,,,,,m,1,0.73,,,,,,,,-0.106481481,-0.397222222,0,0,0,,0,71,71,14,1,FENCE,C,old,m,./images/FENCE.png,,,,,,,,,,,,,,,,,,,,,,,,,,,,,,,,,,
,,,,,,,,,,,,,,,,,5d86d05f9854a60019240621,49,2022-02-12_11h43.02.286,lexical_decision_task_DD_L5,2021.2.3,Win32,60.0240096,,,,,,,,,,,,0.645,1,,,,,,,,,,,,,,m,1,0.645,,,,,,,,-0.106481481,-0.397222222,0,0,0,,0,72,72,49,1,BISHOP,LB,old,m,./images/BISHOPLB.png,,,,,,,,,,,,,,,,,,,,,,,,,,,,,,,,,,
,,,,,,,,,,,,,,,,,5d86d05f9854a60019240621,49,2022-02-12_11h43.02.286,lexical_decision_task_DD_L5,2021.2.3,Win32,60.0240096,,,,,,,,,,,,0.996,1,,,,,,,,,,,,,,m,1,0.996,,,,,,,,-0.106481481,-0.397222222,0,0,0,,0,73,73,18,1,PARCEL,HB,old,m,./images/PARCELHB.png,,,,,,,,,,,,,,,,,,,,,,,,,,,,,,,,,,
,,,,,,,,,,,,,,,,,5d86d05f9854a60019240621,49,2022-02-12_11h43.02.286,lexical_decision_task_DD_L5,2021.2.3,Win32,60.0240096,,,,,,,,,,,,1.178,1,,,,,,,,,,,,,,z,1,1.178,,,,,,,,-0.106481481,-0.397222222,0,0,0,,0,74,74,164,1,SGREW,LB,old,z,./images/SGREWLB.png,,,,,,,,,,,,,,,,,,,,,,,,,,,,,,,,,,
,,,,,,,,,,,,,,,,,5d86d05f9854a60019240621,49,2022-02-12_11h43.02.286,lexical_decision_task_DD_L5,2021.2.3,Win32,60.0240096,,,,,,,,,,,,0.762,1,,,,,,,,,,,,,,z,1,0.762,,,,,,,,-0.106481481,-0.397222222,0,0,0,,0,75,75,140,1,DOVET,LB,old,z,./images/DOVETLB.png,,,,,,,,,,,,,,,,,,,,,,,,,,,,,,,,,,
,,,,,,,,,,,,,,,,,5d86d05f9854a60019240621,49,2022-02-12_11h43.02.286,lexical_decision_task_DD_L5,2021.2.3,Win32,60.0240096,,,,,,,,,,,,0.693,1,,,,,,,,,,,,,,z,1,0.693,,,,,,,,-0.106481481,-0.397222222,0,0,0,,0,76,76,98,1,BAMPS,LB,old,z,./images/BAMPSLB.png,,,,,,,,,,,,,,,,,,,,,,,,,,,,,,,,,,
,,,,,,,,,,,,,,,,,5d86d05f9854a60019240621,49,2022-02-12_11h43.02.286,lexical_decision_task_DD_L5,2021.2.3,Win32,60.0240096,,,,,,,,,,,,1.248,1,,,,,,,,,,,,,,z,1,1.248,,,,,,,,-0.106481481,-0.397222222,0,0,0,,0,77,77,106,1,CLUMS,HB,old,z,./images/CLUMSHB.png,,,,,,,,,,,,,,,,,,,,,,,,,,,,,,,,,,
,,,,,,,,,,,,,,,,,5d86d05f9854a60019240621,49,2022-02-12_11h43.02.286,lexical_decision_task_DD_L5,2021.2.3,Win32,60.0240096,,,,,,,,,,,,0.68,1,,,,,,,,,,,,,,m,1,0.68,,,,,,,,-0.106481481,-0.397222222,0,0,0,,0,78,78,74,1,JUMPER,C,old,m,./images/JUMPER.png,,,,,,,,,,,,,,,,,,,,,,,,,,,,,,,,,,
,,,,,,,,,,,,,,,,,5d86d05f9854a60019240621,49,2022-02-12_11h43.02.286,lexical_decision_task_DD_L5,2021.2.3,Win32,60.0240096,,,,,,,,,,,,0.666,1,,,,,,,,,,,,,,m,1,0.666,,,,,,,,-0.106481481,-0.397222222,0,0,0,,0,79,79,22,1,CLOWN,LB,old,m,./images/CLOWNLB.png,,,,,,,,,,,,,,,,,,,,,,,,,,,,,,,,,,
,,,,,,,,,,,,,,,,,5d86d05f9854a60019240621,49,2022-02-12_11h43.02.286,lexical_decision_task_DD_L5,2021.2.3,Win32,60.0240096,,,,,,,,,,,,0.846,1,,,,,,,,,,,,,,m,1,0.846,,,,,,,,-0.106481481,-0.397222222,0,0,0,,0,80,80,5,1,BAMBOO,C,old,m,./images/BAMBOO.png,,,,,,,,,,,,,,,,,,,,,,,,,,,,,,,,,,
,,,,,,,,,,,,,,,,,5d86d05f9854a60019240621,49,2022-02-12_11h43.02.286,lexical_decision_task_DD_L5,2021.2.3,Win32,60.0240096,,,,,,,,,,,,0.98,1,,,,,,,,,,,,,,m,1,0.98,,,,,,,,-0.106481481,-0.397222222,0,0,0,,0,81,81,45,1,MONKEY,HB,old,m,./images/MONKEYHB.png,,,,,,,,,,,,,,,,,,,,,,,,,,,,,,,,,,
,,,,,,,,,,,,,,,,,5d86d05f9854a60019240621,49,2022-02-12_11h43.02.286,lexical_decision_task_DD_L5,2021.2.3,Win32,60.0240096,,,,,,,,,,,,1.207,1,,,,,,,,,,,,,,m,1,1.207,,,,,,,,-0.106481481,-0.397222222,0,0,0,,0,82,82,78,1,BROOM,HB,old,m,./images/BROOMHB.png,,,,,,,,,,,,,,,,,,,,,,,,,,,,,,,,,,
,,,,,,,,,,,,,,,,,5d86d05f9854a60019240621,49,2022-02-12_11h43.02.286,lexical_decision_task_DD_L5,2021.2.3,Win32,60.0240096,,,,,,,,,,,,0.651,1,,,,,,,,,,,,,,z,1,0.651,,,,,,,,-0.106481481,-0.397222222,0,0,0,space,0,83,83,159,1,CUDDY,C,old,z,./images/CUDDY.png,7.111,,,,,,,,,,,,,,,,,,,,,,,,,,,,,,,,,
,,,,,,,,,,,,,,,,,5d86d05f9854a60019240621,49,2022-02-12_11h43.02.286,lexical_decision_task_DD_L5,2021.2.3,Win32,60.0240096,,,,,,,,,,,,0.62,1,,,,,,,,,,,,,,m,1,0.62,,,,,,,,-0.106481481,-0.397222222,0,0,0,,0,84,84,50,1,PILOT,C,old,m,./images/PILOT.png,,,,,,,,,,,,,,,,,,,,,,,,,,,,,,,,,,
,,,,,,,,,,,,,,,,,5d86d05f9854a60019240621,49,2022-02-12_11h43.02.286,lexical_decision_task_DD_L5,2021.2.3,Win32,60.0240096,,,,,,,,,,,,0.665,1,,,,,,,,,,,,,,z,1,0.665,,,,,,,,-0.106481481,-0.397222222,0,0,0,,0,85,85,146,1,MOOST,LB,old,z,./images/MOOSTLB.png,,,,,,,,,,,,,,,,,,,,,,,,,,,,,,,,,,
,,,,,,,,,,,,,,,,,5d86d05f9854a60019240621,49,2022-02-12_11h43.02.286,lexical_decision_task_DD_L5,2021.2.3,Win32,60.0240096,,,,,,,,,,,,0.654,1,,,,,,,,,,,,,,m,1,0.654,,,,,,,,-0.106481481,-0.397222222,0,0,0,,0,86,86,40,1,SNAKE,LB,old,m,./images/SNAKELB.png,,,,,,,,,,,,,,,,,,,,,,,,,,,,,,,,,,
,,,,,,,,,,,,,,,,,5d86d05f9854a60019240621,49,2022-02-12_11h43.02.286,lexical_decision_task_DD_L5,2021.2.3,Win32,60.0240096,,,,,,,,,,,,1.169,1,,,,,,,,,,,,,,m,1,1.169,,,,,,,,-0.106481481,-0.397222222,0,0,0,,0,87,87,43,1,STOOL,LB,old,m,./images/STOOLLB.png,,,,,,,,,,,,,,,,,,,,,,,,,,,,,,,,,,
,,,,,,,,,,,,,,,,,5d86d05f9854a60019240621,49,2022-02-12_11h43.02.286,lexical_decision_task_DD_L5,2021.2.3,Win32,60.0240096,,,,,,,,,,,,0.551,1,,,,,,,,,,,,,,m,1,0.551,,,,,,,,-0.106481481,-0.397222222,0,0,0,,0,88,88,28,1,CASINO,LB,old,m,./images/CASINOLB.png,,,,,,,,,,,,,,,,,,,,,,,,,,,,,,,,,,
,,,,,,,,,,,,,,,,,5d86d05f9854a60019240621,49,2022-02-12_11h43.02.286,lexical_decision_task_DD_L5,2021.2.3,Win32,60.0240096,,,,,,,,,,,,1.361,1,,,,,,,,,,,,,,m,1,1.361,,,,,,,,-0.106481481,-0.397222222,0,0,0,,0,89,89,42,1,CHAIN,HB,old,m,./images/CHAINHB.png,,,,,,,,,,,,,,,,,,,,,,,,,,,,,,,,,,
,,,,,,,,,,,,,,,,,5d86d05f9854a60019240621,49,2022-02-12_11h43.02.286,lexical_decision_task_DD_L5,2021.2.3,Win32,60.0240096,,,,,,,,,,,,0.603,1,,,,,,,,,,,,,,m,1,0.603,,,,,,,,-0.106481481,-0.397222222,0,0,0,,0,90,90,2,1,STOVE,C,old,m,./images/STOVE.png,,,,,,,,,,,,,,,,,,,,,,,,,,,,,,,,,,
,,,,,,,,,,,,,,,,,5d86d05f9854a60019240621,49,2022-02-12_11h43.02.286,lexical_decision_task_DD_L5,2021.2.3,Win32,60.0240096,,,,,,,,,,,,0.68,1,,,,,,,,,,,,,,m,1,0.68,,,,,,,,-0.106481481,-0.397222222,0,0,0,,0,91,91,65,1,SPINE,C,old,m,./images/SPINE.png,,,,,,,,,,,,,,,,,,,,,,,,,,,,,,,,,,
,,,,,,,,,,,,,,,,,5d86d05f9854a60019240621,49,2022-02-12_11h43.02.286,lexical_decision_task_DD_L5,2021.2.3,Win32,60.0240096,,,,,,,,,,,,0.727,1,,,,,,,,,,,,,,z,1,0.727,,,,,,,,-0.106481481,-0.397222222,0,0,0,,0,92,92,149,1,VEASE,LB,old,z,./images/VEASELB.png,,,,,,,,,,,,,,,,,,,,,,,,,,,,,,,,,,
,,,,,,,,,,,,,,,,,5d86d05f9854a60019240621,49,2022-02-12_11h43.02.286,lexical_decision_task_DD_L5,2021.2.3,Win32,60.0240096,,,,,,,,,,,,0.824,1,,,,,,,,,,,,,,m,1,0.824,,,,,,,,-0.106481481,-0.397222222,0,0,0,,0,93,93,69,1,ARROW,HB,old,m,./images/ARROWHB.png,,,,,,,,,,,,,,,,,,,,,,,,,,,,,,,,,,
,,,,,,,,,,,,,,,,,5d86d05f9854a60019240621,49,2022-02-12_11h43.02.286,lexical_decision_task_DD_L5,2021.2.3,Win32,60.0240096,,,,,,,,,,,,0.838,1,,,,,,,,,,,,,,z,1,0.838,,,,,,,,-0.106481481,-0.397222222,0,0,0,,0,94,94,86,1,AIFED,LB,old,z,./images/AIFEDLB.png,,,,,,,,,,,,,,,,,,,,,,,,,,,,,,,,,,
,,,,,,,,,,,,,,,,,5d86d05f9854a60019240621,49,2022-02-12_11h43.02.286,lexical_decision_task_DD_L5,2021.2.3,Win32,60.0240096,,,,,,,,,,,,0.7,1,,,,,,,,,,,,,,z,1,0.7,,,,,,,,-0.106481481,-0.397222222,0,0,0,,0,95,95,153,1,CLUPS,C,old,z,./images/CLUPS.png,,,,,,,,,,,,,,,,,,,,,,,,,,,,,,,,,,
,,,,,,,,,,,,,,,,,5d86d05f9854a60019240621,49,2022-02-12_11h43.02.286,lexical_decision_task_DD_L5,2021.2.3,Win32,60.0240096,,,,,,,,,,,,0.731,1,,,,,,,,,,,,,,m,1,0.731,,,,,,,,-0.106481481,-0.397222222,0,0,0,,0,96,96,61,1,ARTIST,LB,old,m,./images/ARTISTLB.png,,,,,,,,,,,,,,,,,,,,,,,,,,,,,,,,,,
,,,,,,,,,,,,,,,,,5d86d05f9854a60019240621,49,2022-02-12_11h43.02.286,lexical_decision_task_DD_L5,2021.2.3,Win32,60.0240096,,,,,,,,,,,,0.76,1,,,,,,,,,,,,,,z,1,0.76,,,,,,,,-0.106481481,-0.397222222,0,0,0,,0,97,97,138,1,PLICE,C,old,z,./images/PLICE.png,,,,,,,,,,,,,,,,,,,,,,,,,,,,,,,,,,
,,,,,,,,,,,,,,,,,5d86d05f9854a60019240621,49,2022-02-12_11h43.02.286,lexical_decision_task_DD_L5,2021.2.3,Win32,60.0240096,,,,,,,,,,,,0.681,1,,,,,,,,,,,,,,m,1,0.681,,,,,,,,-0.106481481,-0.397222222,0,0,0,,0,98,98,10,1,GARDEN,LB,old,m,./images/GARDENLB.png,,,,,,,,,,,,,,,,,,,,,,,,,,,,,,,,,,
,,,,,,,,,,,,,,,,,5d86d05f9854a60019240621,49,2022-02-12_11h43.02.286,lexical_decision_task_DD_L5,2021.2.3,Win32,60.0240096,,,,,,,,,,,,0.599,1,,,,,,,,,,,,,,z,1,0.599,,,,,,,,-0.106481481,-0.397222222,0,0,0,,0,99,99,162,1,LEICH,C,old,z,./images/LEICH.png,,,,,,,,,,,,,,,,,,,,,,,,,,,,,,,,,,
,,,,,,,,,,,,,,,,,5d86d05f9854a60019240621,49,2022-02-12_11h43.02.286,lexical_decision_task_DD_L5,2021.2.3,Win32,60.0240096,,,,,,,,,,,,1.199,1,,,,,,,,,,,,,,m,1,1.199,,,,,,,,-0.106481481,-0.397222222,0,0,0,,0,100,100,24,1,FLESH,HB,old,m,./images/FLESHHB.png,,,,,,,,,,,,,,,,,,,,,,,,,,,,,,,,,,
,,,,,,,,,,,,,,,,,5d86d05f9854a60019240621,49,2022-02-12_11h43.02.286,lexical_decision_task_DD_L5,2021.2.3,Win32,60.0240096,,,,,,,,,,,,0.738,1,,,,,,,,,,,,,,z,1,0.738,,,,,,,,-0.106481481,-0.397222222,0,0,0,,0,101,101,161,1,BLAPS,LB,old,z,./images/BLAPSLB.png,,,,,,,,,,,,,,,,,,,,,,,,,,,,,,,,,,
,,,,,,,,,,,,,,,,,5d86d05f9854a60019240621,49,2022-02-12_11h43.02.286,lexical_decision_task_DD_L5,2021.2.3,Win32,60.0240096,,,,,,,,,,,,1.608,1,,,,,,,,,,,,,,z,1,1.608,,,,,,,,-0.106481481,-0.397222222,0,0,0,,0,102,102,115,1,MAWNS,HB,old,z,./images/MAWNSHB.png,,,,,,,,,,,,,,,,,,,,,,,,,,,,,,,,,,
,,,,,,,,,,,,,,,,,5d86d05f9854a60019240621,49,2022-02-12_11h43.02.286,lexical_decision_task_DD_L5,2021.2.3,Win32,60.0240096,,,,,,,,,,,,1.277,1,,,,,,,,,,,,,,z,1,1.277,,,,,,,,-0.106481481,-0.397222222,0,0,0,,0,103,103,139,1,BLEAR,HB,old,z,./images/BLEARHB.png,,,,,,,,,,,,,,,,,,,,,,,,,,,,,,,,,,
,,,,,,,,,,,,,,,,,5d86d05f9854a60019240621,49,2022-02-12_11h43.02.286,lexical_decision_task_DD_L5,2021.2.3,Win32,60.0240096,,,,,,,,,,,,0.907,1,,,,,,,,,,,,,,m,1,0.907,,,,,,,,-0.106481481,-0.397222222,0,0,0,,0,104,104,72,1,FLASK,HB,old,m,./images/FLASKHB.png,,,,,,,,,,,,,,,,,,,,,,,,,,,,,,,,,,
,,,,,,,,,,,,,,,,,5d86d05f9854a60019240621,49,2022-02-12_11h43.02.286,lexical_decision_task_DD_L5,2021.2.3,Win32,60.0240096,,,,,,,,,,,,0.989,1,,,,,,,,,,,,,,m,1,0.989,,,,,,,,-0.106481481,-0.397222222,0,0,0,,0,105,105,6,1,STAIN,HB,old,m,./images/STAINHB.png,,,,,,,,,,,,,,,,,,,,,,,,,,,,,,,,,,
,,,,,,,,,,,,,,,,,5d86d05f9854a60019240621,49,2022-02-12_11h43.02.286,lexical_decision_task_DD_L5,2021.2.3,Win32,60.0240096,,,,,,,,,,,,0.609,1,,,,,,,,,,,,,,m,1,0.609,,,,,,,,-0.106481481,-0.397222222,0,0,0,,0,106,106,31,1,STEAK,LB,old,m,./images/STEAKLB.png,,,,,,,,,,,,,,,,,,,,,,,,,,,,,,,,,,
,,,,,,,,,,,,,,,,,5d86d05f9854a60019240621,49,2022-02-12_11h43.02.286,lexical_decision_task_DD_L5,2021.2.3,Win32,60.0240096,,,,,,,,,,,,1.33,1,,,,,,,,,,,,,,z,1,1.33,,,,,,,,-0.106481481,-0.397222222,0,0,0,,0,107,107,97,1,CHIDS,HB,old,z,./images/CHIDSHB.png,,,,,,,,,,,,,,,,,,,,,,,,,,,,,,,,,,
,,,,,,,,,,,,,,,,,5d86d05f9854a60019240621,49,2022-02-12_11h43.02.286,lexical_decision_task_DD_L5,2021.2.3,Win32,60.0240096,,,,,,,,,,,,0.706,1,,,,,,,,,,,,,,z,1,0.706,,,,,,,,-0.106481481,-0.397222222,0,0,0,,0,108,108,117,1,STEEG,C,old,z,./images/STEEG.png,,,,,,,,,,,,,,,,,,,,,,,,,,,,,,,,,,
,,,,,,,,,,,,,,,,,5d86d05f9854a60019240621,49,2022-02-12_11h43.02.286,lexical_decision_task_DD_L5,2021.2.3,Win32,60.0240096,,,,,,,,,,,,0.69,1,,,,,,,,,,,,,,m,1,0.69,,,,,,,,-0.106481481,-0.397222222,0,0,0,,0,109,109,52,1,DESERT,LB,old,m,./images/DESERTLB.png,,,,,,,,,,,,,,,,,,,,,,,,,,,,,,,,,,
,,,,,,,,,,,,,,,,,5d86d05f9854a60019240621,49,2022-02-12_11h43.02.286,lexical_decision_task_DD_L5,2021.2.3,Win32,60.0240096,,,,,,,,,,,,1.302,1,,,,,,,,,,,,,,z,1,1.302,,,,,,,,-0.106481481,-0.397222222,0,0,0,,0,110,110,136,1,WERVE,HB,old,z,./images/WERVEHB.png,,,,,,,,,,,,,,,,,,,,,,,,,,,,,,,,,,
,,,,,,,,,,,,,,,,,5d86d05f9854a60019240621,49,2022-02-12_11h43.02.286,lexical_decision_task_DD_L5,2021.2.3,Win32,60.0240096,,,,,,,,,,,,0.62,1,,,,,,,,,,,,,,m,1,0.62,,,,,,,,-0.106481481,-0.397222222,0,0,0,,0,111,111,37,1,TIGER,LB,old,m,./images/TIGERLB.png,,,,,,,,,,,,,,,,,,,,,,,,,,,,,,,,,,
,,,,,,,,,,,,,,,,,5d86d05f9854a60019240621,49,2022-02-12_11h43.02.286,lexical_decision_task_DD_L5,2021.2.3,Win32,60.0240096,,,,,,,,,,,,0.822,0,,,,,,,,,,,,,,z,0,0.822,,,,,,,,-0.106481481,-0.397222222,0,0,0,,0,112,112,3,1,CRATER,HB,old,m,./images/CRATERHB.png,,,,,,,,,,,,,,,,,,,,,,,,,,,,,,,,,,
,,,,,,,,,,,,,,,,,5d86d05f9854a60019240621,49,2022-02-12_11h43.02.286,lexical_decision_task_DD_L5,2021.2.3,Win32,60.0240096,,,,,,,,,,,,0.933,1,,,,,,,,,,,,,,z,1,0.933,,,,,,,,-0.106481481,-0.397222222,0,0,0,,0,113,113,163,1,GAMBA,HB,old,z,./images/GAMBAHB.png,,,,,,,,,,,,,,,,,,,,,,,,,,,,,,,,,,
,,,,,,,,,,,,,,,,,5d86d05f9854a60019240621,49,2022-02-12_11h43.02.286,lexical_decision_task_DD_L5,2021.2.3,Win32,60.0240096,,,,,,,,,,,,0.855,1,,,,,,,,,,,,,,z,1,0.855,,,,,,,,-0.106481481,-0.397222222,0,0,0,,0,114,114,94,1,BLANS,HB,old,z,./images/BLANSHB.png,,,,,,,,,,,,,,,,,,,,,,,,,,,,,,,,,,
,,,,,,,,,,,,,,,,,5d86d05f9854a60019240621,49,2022-02-12_11h43.02.286,lexical_decision_task_DD_L5,2021.2.3,Win32,60.0240096,,,,,,,,,,,,0.564,1,,,,,,,,,,,,,,m,1,0.564,,,,,,,,-0.106481481,-0.397222222,0,0,0,,0,115,115,80,1,PLANET,C,old,m,./images/PLANET.png,,,,,,,,,,,,,,,,,,,,,,,,,,,,,,,,,,
,,,,,,,,,,,,,,,,,5d86d05f9854a60019240621,49,2022-02-12_11h43.02.286,lexical_decision_task_DD_L5,2021.2.3,Win32,60.0240096,,,,,,,,,,,,1.006,1,,,,,,,,,,,,,,m,1,1.006,,,,,,,,-0.106481481,-0.397222222,0,0,0,,0,116,116,60,1,CURRY,HB,old,m,./images/CURRYHB.png,,,,,,,,,,,,,,,,,,,,,,,,,,,,,,,,,,
,,,,,,,,,,,,,,,,,5d86d05f9854a60019240621,49,2022-02-12_11h43.02.286,lexical_decision_task_DD_L5,2021.2.3,Win32,60.0240096,,,,,,,,,,,,0.588,1,,,,,,,,,,,,,,m,1,0.588,,,,,,,,-0.106481481,-0.397222222,0,0,0,,0,117,117,13,1,BUNNY,LB,old,m,./images/BUNNYLB.png,,,,,,,,,,,,,,,,,,,,,,,,,,,,,,,,,,
,,,,,,,,,,,,,,,,,5d86d05f9854a60019240621,49,2022-02-12_11h43.02.286,lexical_decision_task_DD_L5,2021.2.3,Win32,60.0240096,,,,,,,,,,,,0.679,1,,,,,,,,,,,,,,z,1,0.679,,,,,,,,-0.106481481,-0.397222222,0,0,0,,0,118,118,147,1,ZOLES,C,old,z,./images/ZOLES.png,,,,,,,,,,,,,,,,,,,,,,,,,,,,,,,,,,
,,,,,,,,,,,,,,,,,5d86d05f9854a60019240621,49,2022-02-12_11h43.02.286,lexical_decision_task_DD_L5,2021.2.3,Win32,60.0240096,,,,,,,,,,,,0.647,1,,,,,,,,,,,,,,m,1,0.647,,,,,,,,-0.106481481,-0.397222222,0,0,0,,0,119,119,67,1,POKER,LB,old,m,./images/POKERLB.png,,,,,,,,,,,,,,,,,,,,,,,,,,,,,,,,,,
,,,,,,,,,,,,,,,,,5d86d05f9854a60019240621,49,2022-02-12_11h43.02.286,lexical_decision_task_DD_L5,2021.2.3,Win32,60.0240096,,,,,,,,,,,,0.614,1,,,,,,,,,,,,,,m,1,0.614,,,,,,,,-0.106481481,-0.397222222,0,0,0,,0,120,120,25,1,CHALK,LB,old,m,./images/CHALKLB.png,,,,,,,,,,,,,,,,,,,,,,,,,,,,,,,,,,
,,,,,,,,,,,,,,,,,5d86d05f9854a60019240621,49,2022-02-12_11h43.02.286,lexical_decision_task_DD_L5,2021.2.3,Win32,60.0240096,,,,,,,,,,,,1.473,1,,,,,,,,,,,,,,z,1,1.473,,,,,,,,-0.106481481,-0.397222222,0,0,0,,0,121,121,157,1,INLER,HB,old,z,./images/INLERHB.png,,,,,,,,,,,,,,,,,,,,,,,,,,,,,,,,,,
,,,,,,,,,,,,,,,,,5d86d05f9854a60019240621,49,2022-02-12_11h43.02.286,lexical_decision_task_DD_L5,2021.2.3,Win32,60.0240096,,,,,,,,,,,,0.601,1,,,,,,,,,,,,,,m,1,0.601,,,,,,,,-0.106481481,-0.397222222,0,0,0,,0,122,122,56,1,HEATER,C,old,m,./images/HEATER.png,,,,,,,,,,,,,,,,,,,,,,,,,,,,,,,,,,
,,,,,,,,,,,,,,,,,5d86d05f9854a60019240621,49,2022-02-12_11h43.02.286,lexical_decision_task_DD_L5,2021.2.3,Win32,60.0240096,,,,,,,,,,,,0.632,1,,,,,,,,,,,,,,z,1,0.632,,,,,,,,-0.106481481,-0.397222222,0,0,0,,0,123,123,132,1,SCIFF,C,old,z,./images/SCIFF.png,,,,,,,,,,,,,,,,,,,,,,,,,,,,,,,,,,
,,,,,,,,,,,,,,,,,5d86d05f9854a60019240621,49,2022-02-12_11h43.02.286,lexical_decision_task_DD_L5,2021.2.3,Win32,60.0240096,,,,,,,,,,,,0.676,1,,,,,,,,,,,,,,z,1,0.676,,,,,,,,-0.106481481,-0.397222222,0,0,0,,0,124,124,122,1,BLOOT,LB,old,z,./images/BLOOTLB.png,,,,,,,,,,,,,,,,,,,,,,,,,,,,,,,,,,
,,,,,,,,,,,,,,,,,5d86d05f9854a60019240621,49,2022-02-12_11h43.02.286,lexical_decision_task_DD_L5,2021.2.3,Win32,60.0240096,,,,,,,,,,,,0.863,1,,,,,,,,,,,,,,m,1,0.863,,,,,,,,-0.106481481,-0.397222222,0,0,0,space,0,125,125,21,1,DANCER,HB,old,m,./images/DANCERHB.png,5.561,,,,,,,,,,,,,,,,,,,,,,,,,,,,,,,,,
,,,,,,,,,,,,,,,,,5d86d05f9854a60019240621,49,2022-02-12_11h43.02.286,lexical_decision_task_DD_L5,2021.2.3,Win32,60.0240096,,,,,,,,,,,,0.682,1,,,,,,,,,,,,,,z,1,0.682,,,,,,,,-0.106481481,-0.397222222,0,0,0,,0,126,126,99,1,BACKY,C,old,z,./images/BACKY.png,,,,,,,,,,,,,,,,,,,,,,,,,,,,,,,,,,
,,,,,,,,,,,,,,,,,5d86d05f9854a60019240621,49,2022-02-12_11h43.02.286,lexical_decision_task_DD_L5,2021.2.3,Win32,60.0240096,,,,,,,,,,,,0.657,1,,,,,,,,,,,,,,z,1,0.657,,,,,,,,-0.106481481,-0.397222222,0,0,0,,0,127,127,144,1,NAIRY,C,old,z,./images/NAIRY.png,,,,,,,,,,,,,,,,,,,,,,,,,,,,,,,,,,
,,,,,,,,,,,,,,,,,5d86d05f9854a60019240621,49,2022-02-12_11h43.02.286,lexical_decision_task_DD_L5,2021.2.3,Win32,60.0240096,,,,,,,,,,,,0.856,1,,,,,,,,,,,,,,m,1,0.856,,,,,,,,-0.106481481,-0.397222222,0,0,0,,0,128,128,17,1,PARADE,C,old,m,./images/PARADE.png,,,,,,,,,,,,,,,,,,,,,,,,,,,,,,,,,,
,,,,,,,,,,,,,,,,,5d86d05f9854a60019240621,49,2022-02-12_11h43.02.286,lexical_decision_task_DD_L5,2021.2.3,Win32,60.0240096,,,,,,,,,,,,0.81,1,,,,,,,,,,,,,,m,1,0.81,,,,,,,,-0.106481481,-0.397222222,0,0,0,,0,129,129,35,1,LLAMA,C,old,m,./images/LLAMA.png,,,,,,,,,,,,,,,,,,,,,,,,,,,,,,,,,,
,,,,,,,,,,,,,,,,,5d86d05f9854a60019240621,49,2022-02-12_11h43.02.286,lexical_decision_task_DD_L5,2021.2.3,Win32,60.0240096,,,,,,,,,,,,0.594,1,,,,,,,,,,,,,,m,1,0.594,,,,,,,,-0.106481481,-0.397222222,0,0,0,,0,130,130,11,1,MEDAL,C,old,m,./images/MEDAL.png,,,,,,,,,,,,,,,,,,,,,,,,,,,,,,,,,,
,,,,,,,,,,,,,,,,,5d86d05f9854a60019240621,49,2022-02-12_11h43.02.286,lexical_decision_task_DD_L5,2021.2.3,Win32,60.0240096,,,,,,,,,,,,1.12,1,,,,,,,,,,,,,,m,1,1.12,,,,,,,,-0.106481481,-0.397222222,0,0,0,,0,131,131,12,1,BLOKE,HB,old,m,./images/BLOKEHB.png,,,,,,,,,,,,,,,,,,,,,,,,,,,,,,,,,,
,,,,,,,,,,,,,,,,,5d86d05f9854a60019240621,49,2022-02-12_11h43.02.286,lexical_decision_task_DD_L5,2021.2.3,Win32,60.0240096,,,,,,,,,,,,0.661,1,,,,,,,,,,,,,,m,1,0.661,,,,,,,,-0.106481481,-0.397222222,0,0,0,,0,132,132,59,1,BRUSH,C,old,m,./images/BRUSH.png,,,,,,,,,,,,,,,,,,,,,,,,,,,,,,,,,,
,,,,,,,,,,,,,,,,,5d86d05f9854a60019240621,49,2022-02-12_11h43.02.286,lexical_decision_task_DD_L5,2021.2.3,Win32,60.0240096,,,,,,,,,,,,0.579,1,,,,,,,,,,,,,,m,1,0.579,,,,,,,,-0.106481481,-0.397222222,0,0,0,,0,133,133,7,1,WAGON,LB,old,m,./images/WAGONLB.png,,,,,,,,,,,,,,,,,,,,,,,,,,,,,,,,,,
,,,,,,,,,,,,,,,,,5d86d05f9854a60019240621,49,2022-02-12_11h43.02.286,lexical_decision_task_DD_L5,2021.2.3,Win32,60.0240096,,,,,,,,,,,,0.53,1,,,,,,,,,,,,,,m,1,0.53,,,,,,,,-0.106481481,-0.397222222,0,0,0,,0,134,134,41,1,STREAM,C,old,m,./images/STREAM.png,,,,,,,,,,,,,,,,,,,,,,,,,,,,,,,,,,
,,,,,,,,,,,,,,,,,5d86d05f9854a60019240621,49,2022-02-12_11h43.02.286,lexical_decision_task_DD_L5,2021.2.3,Win32,60.0240096,,,,,,,,,,,,0.796,1,,,,,,,,,,,,,,m,1,0.796,,,,,,,,-0.106481481,-0.397222222,0,0,0,,0,135,135,15,1,COLLAR,HB,old,m,./images/COLLARHB.png,,,,,,,,,,,,,,,,,,,,,,,,,,,,,,,,,,
,,,,,,,,,,,,,,,,,5d86d05f9854a60019240621,49,2022-02-12_11h43.02.286,lexical_decision_task_DD_L5,2021.2.3,Win32,60.0240096,,,,,,,,,,,,1.047,1,,,,,,,,,,,,,,m,1,1.047,,,,,,,,-0.106481481,-0.397222222,0,0,0,,0,136,136,68,1,VALLEY,C,old,m,./images/VALLEY.png,,,,,,,,,,,,,,,,,,,,,,,,,,,,,,,,,,
,,,,,,,,,,,,,,,,,5d86d05f9854a60019240621,49,2022-02-12_11h43.02.286,lexical_decision_task_DD_L5,2021.2.3,Win32,60.0240096,,,,,,,,,,,,0.971,1,,,,,,,,,,,,,,z,1,0.971,,,,,,,,-0.106481481,-0.397222222,0,0,0,,0,137,137,160,1,VEETS,HB,old,z,./images/VEETSHB.png,,,,,,,,,,,,,,,,,,,,,,,,,,,,,,,,,,
,,,,,,,,,,,,,,,,,5d86d05f9854a60019240621,49,2022-02-12_11h43.02.286,lexical_decision_task_DD_L5,2021.2.3,Win32,60.0240096,,,,,,,,,,,,0.857,1,,,,,,,,,,,,,,m,1,0.857,,,,,,,,-0.106481481,-0.397222222,0,0,0,,0,138,138,57,1,FERRY,HB,old,m,./images/FERRYHB.png,,,,,,,,,,,,,,,,,,,,,,,,,,,,,,,,,,
,,,,,,,,,,,,,,,,,5d86d05f9854a60019240621,49,2022-02-12_11h43.02.286,lexical_decision_task_DD_L5,2021.2.3,Win32,60.0240096,,,,,,,,,,,,0.601,1,,,,,,,,,,,,,,m,1,0.601,,,,,,,,-0.106481481,-0.397222222,0,0,0,,0,139,139,55,1,ALLEY,LB,old,m,./images/ALLEYLB.png,,,,,,,,,,,,,,,,,,,,,,,,,,,,,,,,,,
,,,,,,,,,,,,,,,,,5d86d05f9854a60019240621,49,2022-02-12_11h43.02.286,lexical_decision_task_DD_L5,2021.2.3,Win32,60.0240096,,,,,,,,,,,,0.687,1,,,,,,,,,,,,,,z,1,0.687,,,,,,,,-0.106481481,-0.397222222,0,0,0,,0,140,140,113,1,LINEW,LB,old,z,./images/LINEWLB.png,,,,,,,,,,,,,,,,,,,,,,,,,,,,,,,,,,
,,,,,,,,,,,,,,,,,5d86d05f9854a60019240621,49,2022-02-12_11h43.02.286,lexical_decision_task_DD_L5,2021.2.3,Win32,60.0240096,,,,,,,,,,,,0.709,1,,,,,,,,,,,,,,z,1,0.709,,,,,,,,-0.106481481,-0.397222222,0,0,0,,0,141,141,108,1,GRUET,C,old,z,./images/GRUET.png,,,,,,,,,,,,,,,,,,,,,,,,,,,,,,,,,,
,,,,,,,,,,,,,,,,,5d86d05f9854a60019240621,49,2022-02-12_11h43.02.286,lexical_decision_task_DD_L5,2021.2.3,Win32,60.0240096,,,,,,,,,,,,0.76,1,,,,,,,,,,,,,,z,1,0.76,,,,,,,,-0.106481481,-0.397222222,0,0,0,,0,142,142,165,1,TROWN,C,old,z,./images/TROWN.png,,,,,,,,,,,,,,,,,,,,,,,,,,,,,,,,,,
,,,,,,,,,,,,,,,,,5d86d05f9854a60019240621,49,2022-02-12_11h43.02.286,lexical_decision_task_DD_L5,2021.2.3,Win32,60.0240096,,,,,,,,,,,,0.731,1,,,,,,,,,,,,,,m,1,0.731,,,,,,,,-0.106481481,-0.397222222,0,0,0,,0,143,143,66,1,STATUE,HB,old,m,./images/STATUEHB.png,,,,,,,,,,,,,,,,,,,,,,,,,,,,,,,,,,
,,,,,,,,,,,,,,,,,5d86d05f9854a60019240621,49,2022-02-12_11h43.02.286,lexical_decision_task_DD_L5,2021.2.3,Win32,60.0240096,,,,,,,,,,,,0.615,1,,,,,,,,,,,,,,m,1,0.615,,,,,,,,-0.106481481,-0.397222222,0,0,0,,0,144,144,77,1,WHEEL,C,old,m,./images/WHEEL.png,,,,,,,,,,,,,,,,,,,,,,,,,,,,,,,,,,
,,,,,,,,,,,,,,,,,5d86d05f9854a60019240621,49,2022-02-12_11h43.02.286,lexical_decision_task_DD_L5,2021.2.3,Win32,60.0240096,,,,,,,,,,,,0.63,1,,,,,,,,,,,,,,m,1,0.63,,,,,,,,-0.106481481,-0.397222222,0,0,0,,0,145,145,20,1,GRANNY,C,old,m,./images/GRANNY.png,,,,,,,,,,,,,,,,,,,,,,,,,,,,,,,,,,
,,,,,,,,,,,,,,,,,5d86d05f9854a60019240621,49,2022-02-12_11h43.02.286,lexical_decision_task_DD_L5,2021.2.3,Win32,60.0240096,,,,,,,,,,,,0.804,1,,,,,,,,,,,,,,z,1,0.804,,,,,,,,-0.106481481,-0.397222222,0,0,0,,0,146,146,87,1,TRING,C,old,z,./images/TRING.png,,,,,,,,,,,,,,,,,,,,,,,,,,,,,,,,,,
,,,,,,,,,,,,,,,,,5d86d05f9854a60019240621,49,2022-02-12_11h43.02.286,lexical_decision_task_DD_L5,2021.2.3,Win32,60.0240096,,,,,,,,,,,,0.755,1,,,,,,,,,,,,,,m,1,0.755,,,,,,,,-0.106481481,-0.397222222,0,0,0,,0,147,147,27,1,BUTTER,HB,old,m,./images/BUTTERHB.png,,,,,,,,,,,,,,,,,,,,,,,,,,,,,,,,,,
,,,,,,,,,,,,,,,,,5d86d05f9854a60019240621,49,2022-02-12_11h43.02.286,lexical_decision_task_DD_L5,2021.2.3,Win32,60.0240096,,,,,,,,,,,,0.891,1,,,,,,,,,,,,,,z,1,0.891,,,,,,,,-0.106481481,-0.397222222,0,0,0,,0,148,148,93,1,SMONE,C,old,z,./images/SMONE.png,,,,,,,,,,,,,,,,,,,,,,,,,,,,,,,,,,
,,,,,,,,,,,,,,,,,5d86d05f9854a60019240621,49,2022-02-12_11h43.02.286,lexical_decision_task_DD_L5,2021.2.3,Win32,60.0240096,,,,,,,,,,,,0.71,1,,,,,,,,,,,,,,m,1,0.71,,,,,,,,-0.106481481,-0.397222222,0,0,0,,0,149,149,53,1,POSTER,C,old,m,./images/POSTER.png,,,,,,,,,,,,,,,,,,,,,,,,,,,,,,,,,,
,,,,,,,,,,,,,,,,,5d86d05f9854a60019240621,49,2022-02-12_11h43.02.286,lexical_decision_task_DD_L5,2021.2.3,Win32,60.0240096,,,,,,,,,,,,0.812,1,,,,,,,,,,,,,,z,1,0.812,,,,,,,,-0.106481481,-0.397222222,0,0,0,,0,150,150,102,1,DULLE,C,old,z,./images/DULLE.png,,,,,,,,,,,,,,,,,,,,,,,,,,,,,,,,,,
,,,,,,,,,,,,,,,,,5d86d05f9854a60019240621,49,2022-02-12_11h43.02.286,lexical_decision_task_DD_L5,2021.2.3,Win32,60.0240096,,,,,,,,,,,,0.676,1,,,,,,,,,,,,,,m,1,0.676,,,,,,,,-0.106481481,-0.397222222,0,0,0,,0,151,151,38,1,ENGINE,C,old,m,./images/ENGINE.png,,,,,,,,,,,,,,,,,,,,,,,,,,,,,,,,,,
,,,,,,,,,,,,,,,,,5d86d05f9854a60019240621,49,2022-02-12_11h43.02.286,lexical_decision_task_DD_L5,2021.2.3,Win32,60.0240096,,,,,,,,,,,,1.593,0,,,,,,,,,,,,,,m,0,1.593,,,,,,,,-0.106481481,-0.397222222,0,0,0,,0,152,152,130,1,CRILL,HB,old,z,./images/CRILLHB.png,,,,,,,,,,,,,,,,,,,,,,,,,,,,,,,,,,
,,,,,,,,,,,,,,,,,5d86d05f9854a60019240621,49,2022-02-12_11h43.02.286,lexical_decision_task_DD_L5,2021.2.3,Win32,60.0240096,,,,,,,,,,,,0.744,1,,,,,,,,,,,,,,z,1,0.744,,,,,,,,-0.106481481,-0.397222222,0,0,0,,0,153,153,131,1,NACES,LB,old,z,./images/NACESLB.png,,,,,,,,,,,,,,,,,,,,,,,,,,,,,,,,,,
,,,,,,,,,,,,,,,,,5d86d05f9854a60019240621,49,2022-02-12_11h43.02.286,lexical_decision_task_DD_L5,2021.2.3,Win32,60.0240096,,,,,,,,,,,,0.779,1,,,,,,,,,,,,,,m,1,0.779,,,,,,,,-0.106481481,-0.397222222,0,0,0,,0,154,154,75,1,HAMMER,HB,old,m,./images/HAMMERHB.png,,,,,,,,,,,,,,,,,,,,,,,,,,,,,,,,,,
,,,,,,,,,,,,,,,,,5d86d05f9854a60019240621,49,2022-02-12_11h43.02.286,lexical_decision_task_DD_L5,2021.2.3,Win32,60.0240096,,,,,,,,,,,,0.679,1,,,,,,,,,,,,,,m,1,0.679,,,,,,,,-0.106481481,-0.397222222,0,0,0,,0,155,155,83,1,WHISKY,C,old,m,./images/WHISKY.png,,,,,,,,,,,,,,,,,,,,,,,,,,,,,,,,,,
,,,,,,,,,,,,,,,,,5d86d05f9854a60019240621,49,2022-02-12_11h43.02.286,lexical_decision_task_DD_L5,2021.2.3,Win32,60.0240096,,,,,,,,,,,,0.663,1,,,,,,,,,,,,,,z,1,0.663,,,,,,,,-0.106481481,-0.397222222,0,0,0,,0,156,156,96,1,KEAMS,C,old,z,./images/KEAMS.png,,,,,,,,,,,,,,,,,,,,,,,,,,,,,,,,,,
,,,,,,,,,,,,,,,,,5d86d05f9854a60019240621,49,2022-02-12_11h43.02.286,lexical_decision_task_DD_L5,2021.2.3,Win32,60.0240096,,,,,,,,,,,,1.296,1,,,,,,,,,,,,,,z,1,1.296,,,,,,,,-0.106481481,-0.397222222,0,0,0,,0,157,157,109,1,BURGE,HB,old,z,./images/BURGEHB.png,,,,,,,,,,,,,,,,,,,,,,,,,,,,,,,,,,
,,,,,,,,,,,,,,,,,5d86d05f9854a60019240621,49,2022-02-12_11h43.02.286,lexical_decision_task_DD_L5,2021.2.3,Win32,60.0240096,,,,,,,,,,,,0.747,1,,,,,,,,,,,,,,z,1,0.747,,,,,,,,-0.106481481,-0.397222222,0,0,0,,0,158,158,129,1,PRANS,C,old,z,./images/PRANS.png,,,,,,,,,,,,,,,,,,,,,,,,,,,,,,,,,,
,,,,,,,,,,,,,,,,,5d86d05f9854a60019240621,49,2022-02-12_11h43.02.286,lexical_decision_task_DD_L5,2021.2.3,Win32,60.0240096,,,,,,,,,,,,0.621,1,,,,,,,,,,,,,,m,1,0.621,,,,,,,,-0.106481481,-0.397222222,0,0,0,,0,159,159,16,1,GRAPE,LB,old,m,./images/GRAPELB.png,,,,,,,,,,,,,,,,,,,,,,,,,,,,,,,,,,
,,,,,,,,,,,,,,,,,5d86d05f9854a60019240621,49,2022-02-12_11h43.02.286,lexical_decision_task_DD_L5,2021.2.3,Win32,60.0240096,,,,,,,,,,,,0.639,1,,,,,,,,,,,,,,z,1,0.639,,,,,,,,-0.106481481,-0.397222222,0,0,0,,0,160,160,114,1,RIKES,C,old,z,./images/RIKES.png,,,,,,,,,,,,,,,,,,,,,,,,,,,,,,,,,,
,,,,,,,,,,,,,,,,,5d86d05f9854a60019240621,49,2022-02-12_11h43.02.286,lexical_decision_task_DD_L5,2021.2.3,Win32,60.0240096,,,,,,,,,,,,0.672,1,,,,,,,,,,,,,,m,1,0.672,,,,,,,,-0.106481481,-0.397222222,0,0,0,,0,161,161,8,1,CLIFF,C,old,m,./images/CLIFF.png,,,,,,,,,,,,,,,,,,,,,,,,,,,,,,,,,,
,,,,,,,,,,,,,,,,,5d86d05f9854a60019240621,49,2022-02-12_11h43.02.286,lexical_decision_task_DD_L5,2021.2.3,Win32,60.0240096,,,,,,,,,,,,0.905,1,,,,,,,,,,,,,,z,1,0.905,,,,,,,,-0.106481481,-0.397222222,0,0,0,,0,162,162,145,1,LAMEL,HB,old,z,./images/LAMELHB.png,,,,,,,,,,,,,,,,,,,,,,,,,,,,,,,,,,
,,,,,,,,,,,,,,,,,5d86d05f9854a60019240621,49,2022-02-12_11h43.02.286,lexical_decision_task_DD_L5,2021.2.3,Win32,60.0240096,,,,,,,,,,,,1.61,1,,,,,,,,,,,,,,z,1,1.61,,,,,,,,-0.106481481,-0.397222222,0,0,0,,0,163,163,118,1,BAVEL,HB,old,z,./images/BAVELHB.png,,,,,,,,,,,,,,,,,,,,,,,,,,,,,,,,,,
,,,,,,,,,,,,,,,,,5d86d05f9854a60019240621,49,2022-02-12_11h43.02.286,lexical_decision_task_DD_L5,2021.2.3,Win32,60.0240096,,,,,,,,,,,,0.794,1,,,,,,,,,,,,,,m,1,0.794,,,,,,,,-0.106481481,-0.397222222,0,0,0,,0,164,164,32,1,HOCKEY,C,old,m,./images/HOCKEY.png,,,,,,,,,,,,,,,,,,,,,,,,,,,,,,,,,,
,,,,,,,,,,,,,,,,,5d86d05f9854a60019240621,49,2022-02-12_11h43.02.286,lexical_decision_task_DD_L5,2021.2.3,Win32,60.0240096,,,,,,,,,,,,0.744,1,,,,,,,,,,,,,,z,1,0.744,,,,,,,,-0.106481481,-0.397222222,0,0,0,,0,165,165,101,1,GLEET,LB,old,z,./images/GLEETLB.png,,,,,,,,,,,,,,,,,,,,,,,,,,,,,,,,,,
,,,,,,,,,,,,,,,,,5d86d05f9854a60019240621,49,2022-02-12_11h43.02.286,lexical_decision_task_DD_L5,2021.2.3,Win32,60.0240096,,,,,,,,,,,,0.894,1,,,,,,,,,,,,,,m,1,0.894,,,,,,,,-0.106481481,-0.397222222,0,0,0,,0,166,166,48,1,SHIELD,HB,old,m,./images/SHIELDHB.png,,,,,,,,,,,,,,,,,,,,,,,,,,,,,,,,,,
,,,,,,,,,,,,,,,,,5d86d05f9854a60019240621,49,2022-02-12_11h43.02.286,lexical_decision_task_DD_L5,2021.2.3,Win32,60.0240096,,,,,,,,,,,,1.213,1,,,,,,,,,,,,,,m,1,1.213,,,,,,,,-0.106481481,-0.397222222,0,0,0,,0,167,167,39,1,CANDY,HB,old,m,./images/CANDYHB.png,,,,,,,,,,,,,,,,,,,,,,,,,,,,,,,,,,
,,,,,,,,,,,,,,,,,5d86d05f9854a60019240621,49,2022-02-12_11h43.02.286,lexical_decision_task_DD_L5,2021.2.3,Win32,60.0240096,,,,,,,,,,,,,,,,,,,,,,,,,,,,,,,,,,,,,,,,,,,,,,,,,How likely will it be that you will recognize the words presented clearly on a scale of 0 (not likely) to 100 (most likely)?,,,,,-0.000925926,-0.42962963,1,0,0,jol_adv,6,9.655,0,0,0,0,1,,,,,,,,,,,,,,,,,,,,
,,,,,,,,,,,,,,,,,5d86d05f9854a60019240621,49,2022-02-12_11h43.02.286,lexical_decision_task_DD_L5,2021.2.3,Win32,60.0240096,,,,,,,,,,,,,,,,,,,,,,,,,,,,,,,,,,,,,,,,,,,,,,,,,How likely will it be that you will recognize the words presented slighly blurred on a scale of 0 (not likely) to 100 (most likely)?,,,,,,,,,,,4,3.206,0,1,1,1,1,,,,,,,,,,,,,,,,,,,,
,,,,,,,,,,,,,,,,,5d86d05f9854a60019240621,49,2022-02-12_11h43.02.286,lexical_decision_task_DD_L5,2021.2.3,Win32,60.0240096,,,,,,,,,,,,,,,,,,,,,,,,,,,,,,,,,,,,,,,,,,,,,,,,,How likely will it be that you will recognize the words presented very blurred on a scale of 0 (not likely) to 100 (most likely)?,,,,,,,,,,,3,6.993,0,2,2,2,1,,,,,,,,,,,,,,,,,,,,
space,0.402777778,0,0,0,0,,,,,,,1,test,"In the next phase you will be presented with the words from the the first phase. Your job is to decide whether you remember seeing the word or not. If you remember seeing the word press ""old"" or type ""m"". If you do not remember seeing the word press ""new"" or type ""z"". Please press the space bar or click on continue to begin. ",,,5d86d05f9854a60019240621,49,2022-02-12_11h43.02.286,lexical_decision_task_DD_L5,2021.2.3,Win32,60.0240096,18.439,,,,,,,,,,,,,,,,,,,,,,,,,,,,,,,,,,,,,,,,,,,,,,,,,,,,,,,,,,,,,,,,,,0,0,0,0,1,,,,,,,,,,,,,,,
space,0.402777778,0,0,0,0,,,,,,,1,test,"In the next phase you will be presented with the words from the the first phase. Your job is to decide whether you remember seeing the word or not. If you remember seeing the word press ""old"" or type ""m"". If you do not remember seeing the word press ""new"" or type ""z"". Please press the space bar or click on continue to begin. ",,,5d86d05f9854a60019240621,49,2022-02-12_11h43.02.286,lexical_decision_task_DD_L5,2021.2.3,Win32,60.0240096,1.966,,,,,,,,,,,,,,,,,,,,,,,,,,,,,,,,,,,,,,,,,,,,,,,,,,,,,,,,,,,,,,,,,,1,0,1,0,1,,,,,,,,,,,,,,,
,-0.000925926,-0.406481481,1,0,0,instr_done_button,,,,,,1,test,"In the next phase you will be presented with the words from the the first phase. Your job is to decide whether you remember seeing the word or not. If you remember seeing the word press ""old"" or type ""m"". If you do not remember seeing the word press ""new"" or type ""z"". Please press the space bar or click on continue to begin. ",,,5d86d05f9854a60019240621,49,2022-02-12_11h43.02.286,lexical_decision_task_DD_L5,2021.2.3,Win32,60.0240096,,,,,,,,,,,,,,,,,,,,,,,,,,,,,,,,,,,,,,,,,,,,,,,,,,,,,,,,,,,,,,,,,,,2,0,2,0,1,,,,,,,,,,,,,,,
space,0.703703704,-0.175925926,0,0,0,,,,,,,1,test,"In the next phase you will be presented with the words from the the first phase. Your job is to decide whether you remember seeing the word or not. If you remember seeing the word press ""old"" or type ""m"". If you do not remember seeing the word press ""new"" or type ""z"". Please press the space bar or click on continue to begin. ",,,5d86d05f9854a60019240621,49,2022-02-12_11h43.02.286,lexical_decision_task_DD_L5,2021.2.3,Win32,60.0240096,5.933,,,,,,,,,,,,,,,,,,,,,,,,,,,,,,,,,,,,,,,,,,,,,,,,,,,,,,,,,,,,,,,,,,3,0,3,0,1,,,,,,,,,,,,,,,
space,0.703703704,-0.175925926,0,0,0,,,,,,,1,test,"In the next phase you will be presented with the words from the the first phase. Your job is to decide whether you remember seeing the word or not. If you remember seeing the word press ""old"" or type ""m"". If you do not remember seeing the word press ""new"" or type ""z"". Please press the space bar or click on continue to begin. ",,,5d86d05f9854a60019240621,49,2022-02-12_11h43.02.286,lexical_decision_task_DD_L5,2021.2.3,Win32,60.0240096,1.016,,,,,,,,,,,,,,,,,,,,,,,,,,,,,,,,,,,,,,,,,,,,,,,,,,,,,,,,,,,,,,,,,,4,0,4,0,1,,,,,,,,,,,,,,,
,,,,,,,,,,,,,,,,,5d86d05f9854a60019240621,49,2022-02-12_11h43.02.286,lexical_decision_task_DD_L5,2021.2.3,Win32,60.0240096,,,,,,,,,,,,2.017,1,,,,,,,,,,,,,,,,,,,,,,,,0.703703704,-0.175925926,0,0,0,,,,,,,CEMENT,C,z,y,./images/CEMENT.png,,,,,,,,,,,,,,,,,,,,z,1,2.017,,,,,,,,0,0,0,158,1
,,,,,,,,,,,,,,,,,5d86d05f9854a60019240621,49,2022-02-12_11h43.02.286,lexical_decision_task_DD_L5,2021.2.3,Win32,60.0240096,,,,,,,,,,,,1.631,0,,,,,,,,,,,,,,,,,,,,,,,,0.703703704,-0.175925926,0,0,0,,,,,,,PICKLE,C,z,y,./images/PICKLE.png,,,,,,,,,,,,,,,,,,,,m,0,1.631,,,,,,,,0,1,1,98,1
,,,,,,,,,,,,,,,,,5d86d05f9854a60019240621,49,2022-02-12_11h43.02.286,lexical_decision_task_DD_L5,2021.2.3,Win32,60.0240096,,,,,,,,,,,,0.882,1,,,,,,,,,,,,,,,,,,,,,,,,0.703703704,-0.175925926,0,0,0,,,,,,,STOVE,C,m,y,./images/STOVE.png,,,,,,,,,,,,,,,,,,,,m,1,0.882,,,,,,,,0,2,2,2,1
,,,,,,,,,,,,,,,,,5d86d05f9854a60019240621,49,2022-02-12_11h43.02.286,lexical_decision_task_DD_L5,2021.2.3,Win32,60.0240096,,,,,,,,,,,,0.93,1,,,,,,,,,,,,,,,,,,,,,,,,0.703703704,-0.175925926,0,0,0,,,,,,,ONION,HB,z,y,./images/ONIONHB.png,,,,,,,,,,,,,,,,,,,,z,1,0.93,,,,,,,,0,3,3,135,1
,,,,,,,,,,,,,,,,,5d86d05f9854a60019240621,49,2022-02-12_11h43.02.286,lexical_decision_task_DD_L5,2021.2.3,Win32,60.0240096,,,,,,,,,,,,1.164,1,,,,,,,,,,,,,,,,,,,,,,,,0.703703704,-0.175925926,0,0,0,,,,,,,KIDNEY,HB,z,y,./images/KIDNEYHB.png,,,,,,,,,,,,,,,,,,,,z,1,1.164,,,,,,,,0,4,4,105,1
,,,,,,,,,,,,,,,,,5d86d05f9854a60019240621,49,2022-02-12_11h43.02.286,lexical_decision_task_DD_L5,2021.2.3,Win32,60.0240096,,,,,,,,,,,,0.783,1,,,,,,,,,,,,,,,,,,,,,,,,0.703703704,-0.175925926,0,0,0,,,,,,,GREASE,HB,z,y,./images/GREASEHB.png,,,,,,,,,,,,,,,,,,,,z,1,0.783,,,,,,,,0,5,5,99,1
,,,,,,,,,,,,,,,,,5d86d05f9854a60019240621,49,2022-02-12_11h43.02.286,lexical_decision_task_DD_L5,2021.2.3,Win32,60.0240096,,,,,,,,,,,,0.799,1,,,,,,,,,,,,,,,,,,,,,,,,0.703703704,-0.175925926,0,0,0,,,,,,,RHINO,HB,z,y,./images/RHINOHB.png,,,,,,,,,,,,,,,,,,,,z,1,0.799,,,,,,,,0,6,6,93,1
,,,,,,,,,,,,,,,,,5d86d05f9854a60019240621,49,2022-02-12_11h43.02.286,lexical_decision_task_DD_L5,2021.2.3,Win32,60.0240096,,,,,,,,,,,,0.714,1,,,,,,,,,,,,,,,,,,,,,,,,0.703703704,-0.175925926,0,0,0,,,,,,,MONKEY,HB,m,y,./images/MONKEYHB.png,,,,,,,,,,,,,,,,,,,,m,1,0.714,,,,,,,,0,7,7,45,1
,,,,,,,,,,,,,,,,,5d86d05f9854a60019240621,49,2022-02-12_11h43.02.286,lexical_decision_task_DD_L5,2021.2.3,Win32,60.0240096,,,,,,,,,,,,0.831,1,,,,,,,,,,,,,,,,,,,,,,,,0.703703704,-0.175925926,0,0,0,,,,,,,TULIP,C,z,y,./images/TULIP.png,,,,,,,,,,,,,,,,,,,,z,1,0.831,,,,,,,,0,8,8,92,1
,,,,,,,,,,,,,,,,,5d86d05f9854a60019240621,49,2022-02-12_11h43.02.286,lexical_decision_task_DD_L5,2021.2.3,Win32,60.0240096,,,,,,,,,,,,0.952,1,,,,,,,,,,,,,,,,,,,,,,,,0.703703704,-0.175925926,0,0,0,,,,,,,BISHOP,LB,m,y,./images/BISHOPLB.png,,,,,,,,,,,,,,,,,,,,m,1,0.952,,,,,,,,0,9,9,49,1
,,,,,,,,,,,,,,,,,5d86d05f9854a60019240621,49,2022-02-12_11h43.02.286,lexical_decision_task_DD_L5,2021.2.3,Win32,60.0240096,,,,,,,,,,,,1.066,1,,,,,,,,,,,,,,,,,,,,,,,,0.703703704,-0.175925926,0,0,0,,,,,,,PACKET,C,z,y,./images/PACKET.png,,,,,,,,,,,,,,,,,,,,z,1,1.066,,,,,,,,0,10,10,140,1
,,,,,,,,,,,,,,,,,5d86d05f9854a60019240621,49,2022-02-12_11h43.02.286,lexical_decision_task_DD_L5,2021.2.3,Win32,60.0240096,,,,,,,,,,,,0.816,1,,,,,,,,,,,,,,,,,,,,,,,,0.703703704,-0.175925926,0,0,0,,,,,,,THROAT,HB,z,y,./images/THROATHB.png,,,,,,,,,,,,,,,,,,,,z,1,0.816,,,,,,,,0,11,11,120,1
,,,,,,,,,,,,,,,,,5d86d05f9854a60019240621,49,2022-02-12_11h43.02.286,lexical_decision_task_DD_L5,2021.2.3,Win32,60.0240096,,,,,,,,,,,,1.13,1,,,,,,,,,,,,,,,,,,,,,,,,0.703703704,-0.175925926,0,0,0,,,,,,,CARPET,C,z,y,./images/CARPET.png,,,,,,,,,,,,,,,,,,,,z,1,1.13,,,,,,,,0,12,12,137,1
,,,,,,,,,,,,,,,,,5d86d05f9854a60019240621,49,2022-02-12_11h43.02.286,lexical_decision_task_DD_L5,2021.2.3,Win32,60.0240096,,,,,,,,,,,,0.842,1,,,,,,,,,,,,,,,,,,,,,,,,0.703703704,-0.175925926,0,0,0,,,,,,,RAZOR,LB,m,y,./images/RAZORLB.png,,,,,,,,,,,,,,,,,,,,m,1,0.842,,,,,,,,0,13,13,34,1
,,,,,,,,,,,,,,,,,5d86d05f9854a60019240621,49,2022-02-12_11h43.02.286,lexical_decision_task_DD_L5,2021.2.3,Win32,60.0240096,,,,,,,,,,,,1.247,1,,,,,,,,,,,,,,,,,,,,,,,,0.703703704,-0.175925926,0,0,0,,,,,,,CHAIN,HB,m,y,./images/CHAINHB.png,,,,,,,,,,,,,,,,,,,,m,1,1.247,,,,,,,,0,14,14,42,1
,,,,,,,,,,,,,,,,,5d86d05f9854a60019240621,49,2022-02-12_11h43.02.286,lexical_decision_task_DD_L5,2021.2.3,Win32,60.0240096,,,,,,,,,,,,0.881,1,,,,,,,,,,,,,,,,,,,,,,,,0.703703704,-0.175925926,0,0,0,,,,,,,BONNET,C,z,y,./images/BONNET.png,,,,,,,,,,,,,,,,,,,,z,1,0.881,,,,,,,,0,15,15,95,1
,,,,,,,,,,,,,,,,,5d86d05f9854a60019240621,49,2022-02-12_11h43.02.286,lexical_decision_task_DD_L5,2021.2.3,Win32,60.0240096,,,,,,,,,,,,1.084,1,,,,,,,,,,,,,,,,,,,,,,,,0.703703704,-0.175925926,0,0,0,,,,,,,LADDER,C,z,y,./images/LADDER.png,,,,,,,,,,,,,,,,,,,,z,1,1.084,,,,,,,,0,16,16,122,1
,,,,,,,,,,,,,,,,,5d86d05f9854a60019240621,49,2022-02-12_11h43.02.286,lexical_decision_task_DD_L5,2021.2.3,Win32,60.0240096,,,,,,,,,,,,1.934,1,,,,,,,,,,,,,,,,,,,,,,,,0.703703704,-0.175925926,0,0,0,,,,,,,PENCE,LB,z,y,./images/PENCELB.png,,,,,,,,,,,,,,,,,,,,z,1,1.934,,,,,,,,0,17,17,100,1
,,,,,,,,,,,,,,,,,5d86d05f9854a60019240621,49,2022-02-12_11h43.02.286,lexical_decision_task_DD_L5,2021.2.3,Win32,60.0240096,,,,,,,,,,,,0.866,1,,,,,,,,,,,,,,,,,,,,,,,,0.703703704,-0.175925926,0,0,0,,,,,,,HAMMER,HB,m,y,./images/HAMMERHB.png,,,,,,,,,,,,,,,,,,,,m,1,0.866,,,,,,,,0,18,18,75,1
,,,,,,,,,,,,,,,,,5d86d05f9854a60019240621,49,2022-02-12_11h43.02.286,lexical_decision_task_DD_L5,2021.2.3,Win32,60.0240096,,,,,,,,,,,,1.229,0,,,,,,,,,,,,,,,,,,,,,,,,0.703703704,-0.175925926,0,0,0,,,,,,,SPORT,HB,z,y,./images/SPORTHB.png,,,,,,,,,,,,,,,,,,,,m,0,1.229,,,,,,,,0,19,19,132,1
,,,,,,,,,,,,,,,,,5d86d05f9854a60019240621,49,2022-02-12_11h43.02.286,lexical_decision_task_DD_L5,2021.2.3,Win32,60.0240096,,,,,,,,,,,,0.731,1,,,,,,,,,,,,,,,,,,,,,,,,0.703703704,-0.175925926,0,0,0,,,,,,,JELLY,LB,z,y,./images/JELLYLB.png,,,,,,,,,,,,,,,,,,,,z,1,0.731,,,,,,,,0,20,20,148,1
,,,,,,,,,,,,,,,,,5d86d05f9854a60019240621,49,2022-02-12_11h43.02.286,lexical_decision_task_DD_L5,2021.2.3,Win32,60.0240096,,,,,,,,,,,,0.718,1,,,,,,,,,,,,,,,,,,,,,,,,0.703703704,-0.175925926,0,0,0,,,,,,,BRIDE,LB,m,y,./images/BRIDELB.png,,,,,,,,,,,,,,,,,,,,m,1,0.718,,,,,,,,0,21,21,64,1
,,,,,,,,,,,,,,,,,5d86d05f9854a60019240621,49,2022-02-12_11h43.02.286,lexical_decision_task_DD_L5,2021.2.3,Win32,60.0240096,,,,,,,,,,,,0.769,1,,,,,,,,,,,,,,,,,,,,,,,,0.703703704,-0.175925926,0,0,0,,,,,,,CRUST,LB,z,y,./images/CRUSTLB.png,,,,,,,,,,,,,,,,,,,,z,1,0.769,,,,,,,,0,22,22,163,1
,,,,,,,,,,,,,,,,,5d86d05f9854a60019240621,49,2022-02-12_11h43.02.286,lexical_decision_task_DD_L5,2021.2.3,Win32,60.0240096,,,,,,,,,,,,0.898,1,,,,,,,,,,,,,,,,,,,,,,,,0.703703704,-0.175925926,0,0,0,,,,,,,CRUMB,C,z,y,./images/CRUMB.png,,,,,,,,,,,,,,,,,,,,z,1,0.898,,,,,,,,0,23,23,113,1
,,,,,,,,,,,,,,,,,5d86d05f9854a60019240621,49,2022-02-12_11h43.02.286,lexical_decision_task_DD_L5,2021.2.3,Win32,60.0240096,,,,,,,,,,,,0.716,1,,,,,,,,,,,,,,,,,,,,,,,,0.703703704,-0.175925926,0,0,0,,,,,,,DONKEY,LB,m,y,./images/DONKEYLB.png,,,,,,,,,,,,,,,,,,,,m,1,0.716,,,,,,,,0,24,24,19,1
,,,,,,,,,,,,,,,,,5d86d05f9854a60019240621,49,2022-02-12_11h43.02.286,lexical_decision_task_DD_L5,2021.2.3,Win32,60.0240096,,,,,,,,,,,,0.616,1,,,,,,,,,,,,,,,,,,,,,,,,0.703703704,-0.175925926,0,0,0,,,,,,,POSTER,C,m,y,./images/POSTER.png,,,,,,,,,,,,,,,,,,,,m,1,0.616,,,,,,,,0,25,25,53,1
,,,,,,,,,,,,,,,,,5d86d05f9854a60019240621,49,2022-02-12_11h43.02.286,lexical_decision_task_DD_L5,2021.2.3,Win32,60.0240096,,,,,,,,,,,,1.533,1,,,,,,,,,,,,,,,,,,,,,,,,0.703703704,-0.175925926,0,0,0,,,,,,,MELON,LB,z,y,./images/MELONLB.png,,,,,,,,,,,,,,,,,,,,z,1,1.533,,,,,,,,0,26,26,106,1
,,,,,,,,,,,,,,,,,5d86d05f9854a60019240621,49,2022-02-12_11h43.02.286,lexical_decision_task_DD_L5,2021.2.3,Win32,60.0240096,,,,,,,,,,,,0.798,1,,,,,,,,,,,,,,,,,,,,,,,,0.703703704,-0.175925926,0,0,0,,,,,,,SAILOR,LB,z,y,./images/SAILORLB.png,,,,,,,,,,,,,,,,,,,,z,1,0.798,,,,,,,,0,27,27,151,1
,,,,,,,,,,,,,,,,,5d86d05f9854a60019240621,49,2022-02-12_11h43.02.286,lexical_decision_task_DD_L5,2021.2.3,Win32,60.0240096,,,,,,,,,,,,0.883,1,,,,,,,,,,,,,,,,,,,,,,,,0.703703704,-0.175925926,0,0,0,,,,,,,HOCKEY,C,m,y,./images/HOCKEY.png,,,,,,,,,,,,,,,,,,,,m,1,0.883,,,,,,,,0,28,28,32,1
,,,,,,,,,,,,,,,,,5d86d05f9854a60019240621,49,2022-02-12_11h43.02.286,lexical_decision_task_DD_L5,2021.2.3,Win32,60.0240096,,,,,,,,,,,,0.763,1,,,,,,,,,,,,,,,,,,,,,,,,0.703703704,-0.175925926,0,0,0,,,,,,,WHEEL,C,m,y,./images/WHEEL.png,,,,,,,,,,,,,,,,,,,,m,1,0.763,,,,,,,,0,29,29,77,1
,,,,,,,,,,,,,,,,,5d86d05f9854a60019240621,49,2022-02-12_11h43.02.286,lexical_decision_task_DD_L5,2021.2.3,Win32,60.0240096,,,,,,,,,,,,0.782,1,,,,,,,,,,,,,,,,,,,,,,,,0.703703704,-0.175925926,0,0,0,,,,,,,LITTER,HB,z,y,./images/LITTERHB.png,,,,,,,,,,,,,,,,,,,,z,1,0.782,,,,,,,,0,30,30,162,1
,,,,,,,,,,,,,,,,,5d86d05f9854a60019240621,49,2022-02-12_11h43.02.286,lexical_decision_task_DD_L5,2021.2.3,Win32,60.0240096,,,,,,,,,,,,0.664,1,,,,,,,,,,,,,,,,,,,,,,,,0.703703704,-0.175925926,0,0,0,,,,,,,BAKER,HB,m,y,./images/BAKERHB.png,,,,,,,,,,,,,,,,,,,,m,1,0.664,,,,,,,,0,31,31,63,1
,,,,,,,,,,,,,,,,,5d86d05f9854a60019240621,49,2022-02-12_11h43.02.286,lexical_decision_task_DD_L5,2021.2.3,Win32,60.0240096,,,,,,,,,,,,0.715,1,,,,,,,,,,,,,,,,,,,,,,,,0.703703704,-0.175925926,0,0,0,,,,,,,STREAM,C,m,y,./images/STREAM.png,,,,,,,,,,,,,,,,,,,,m,1,0.715,,,,,,,,0,32,32,41,1
,,,,,,,,,,,,,,,,,5d86d05f9854a60019240621,49,2022-02-12_11h43.02.286,lexical_decision_task_DD_L5,2021.2.3,Win32,60.0240096,,,,,,,,,,,,0.798,0,,,,,,,,,,,,,,,,,,,,,,,,0.703703704,-0.175925926,0,0,0,,,,,,,CANDLE,LB,z,y,./images/CANDLELB.png,,,,,,,,,,,,,,,,,,,,m,0,0.798,,,,,,,,0,33,33,145,1
,,,,,,,,,,,,,,,,,5d86d05f9854a60019240621,49,2022-02-12_11h43.02.286,lexical_decision_task_DD_L5,2021.2.3,Win32,60.0240096,,,,,,,,,,,,1.082,1,,,,,,,,,,,,,,,,,,,,,,,,0.703703704,-0.175925926,0,0,0,,,,,,,QUILL,LB,z,y,./images/QUILLLB.png,,,,,,,,,,,,,,,,,,,,z,1,1.082,,,,,,,,0,34,34,115,1
,,,,,,,,,,,,,,,,,5d86d05f9854a60019240621,49,2022-02-12_11h43.02.286,lexical_decision_task_DD_L5,2021.2.3,Win32,60.0240096,,,,,,,,,,,,0.704,1,,,,,,,,,,,,,,,,,,,,,,,,0.703703704,-0.175925926,0,0,0,,,,,,,URINE,LB,z,y,./images/URINELB.png,,,,,,,,,,,,,,,,,,,,z,1,0.704,,,,,,,,0,35,35,154,1
,,,,,,,,,,,,,,,,,5d86d05f9854a60019240621,49,2022-02-12_11h43.02.286,lexical_decision_task_DD_L5,2021.2.3,Win32,60.0240096,,,,,,,,,,,,0.782,1,,,,,,,,,,,,,,,,,,,,,,,,0.703703704,-0.175925926,0,0,0,,,,,,,MOOSE,HB,z,y,./images/MOOSEHB.png,,,,,,,,,,,,,,,,,,,,z,1,0.782,,,,,,,,0,36,36,141,1
,,,,,,,,,,,,,,,,,5d86d05f9854a60019240621,49,2022-02-12_11h43.02.286,lexical_decision_task_DD_L5,2021.2.3,Win32,60.0240096,,,,,,,,,,,,0.802,0,,,,,,,,,,,,,,,,,,,,,,,,0.703703704,-0.175925926,0,0,0,,,,,,,SMOKER,C,z,y,./images/SMOKER.png,,,,,,,,,,,,,,,,,,,,m,0,0.802,,,,,,,,0,37,37,110,1
,,,,,,,,,,,,,,,,,5d86d05f9854a60019240621,49,2022-02-12_11h43.02.286,lexical_decision_task_DD_L5,2021.2.3,Win32,60.0240096,,,,,,,,,,,,0.986,0,,,,,,,,,,,,,,,,,,,,,,,,0.703703704,-0.175925926,0,0,0,,,,,,,COUCH,C,z,y,./images/COUCH.png,,,,,,,,,,,,,,,,,,,,m,0,0.986,,,,,,,,0,38,38,161,1
,,,,,,,,,,,,,,,,,5d86d05f9854a60019240621,49,2022-02-12_11h43.02.286,lexical_decision_task_DD_L5,2021.2.3,Win32,60.0240096,,,,,,,,,,,,0.802,1,,,,,,,,,,,,,,,,,,,,,,,,0.703703704,-0.175925926,0,0,0,,,,,,,PEARL,LB,z,y,./images/PEARLLB.png,,,,,,,,,,,,,,,,,,,,z,1,0.802,,,,,,,,0,39,39,130,1
,,,,,,,,,,,,,,,,,5d86d05f9854a60019240621,49,2022-02-12_11h43.02.286,lexical_decision_task_DD_L5,2021.2.3,Win32,60.0240096,,,,,,,,,,,,0.799,1,,,,,,,,,,,,,,,,,,,,,,,,0.703703704,-0.175925926,0,0,0,,,,,,,BURIAL,C,z,y,./images/BURIAL.png,,,,,,,,,,,,,,,,,,,,z,1,0.799,,,,,,,,0,40,40,143,1
,,,,,,,,,,,,,,,,,5d86d05f9854a60019240621,49,2022-02-12_11h43.02.286,lexical_decision_task_DD_L5,2021.2.3,Win32,60.0240096,,,,,,,,,,,,0.833,1,,,,,,,,,,,,,,,,,,,,,,,,0.703703704,-0.175925926,0,0,0,space,,,,,,STATUE,HB,m,y,./images/STATUEHB.png,2.35,,,,,,,,,,,,,,,,,,,m,1,0.833,,,,,,,,0,41,41,66,1
,,,,,,,,,,,,,,,,,5d86d05f9854a60019240621,49,2022-02-12_11h43.02.286,lexical_decision_task_DD_L5,2021.2.3,Win32,60.0240096,,,,,,,,,,,,0.968,1,,,,,,,,,,,,,,,,,,,,,,,,0.703703704,-0.175925926,0,0,0,,,,,,,CLIFF,C,m,y,./images/CLIFF.png,,,,,,,,,,,,,,,,,,,,m,1,0.968,,,,,,,,0,42,42,8,1
,,,,,,,,,,,,,,,,,5d86d05f9854a60019240621,49,2022-02-12_11h43.02.286,lexical_decision_task_DD_L5,2021.2.3,Win32,60.0240096,,,,,,,,,,,,0.681,1,,,,,,,,,,,,,,,,,,,,,,,,0.703703704,-0.175925926,0,0,0,,,,,,,TWINS,HB,z,y,./images/TWINSHB.png,,,,,,,,,,,,,,,,,,,,z,1,0.681,,,,,,,,0,43,43,144,1
,,,,,,,,,,,,,,,,,5d86d05f9854a60019240621,49,2022-02-12_11h43.02.286,lexical_decision_task_DD_L5,2021.2.3,Win32,60.0240096,,,,,,,,,,,,1.082,1,,,,,,,,,,,,,,,,,,,,,,,,0.703703704,-0.175925926,0,0,0,,,,,,,BERRY,C,z,y,./images/BERRY.png,,,,,,,,,,,,,,,,,,,,z,1,1.082,,,,,,,,0,44,44,131,1
,,,,,,,,,,,,,,,,,5d86d05f9854a60019240621,49,2022-02-12_11h43.02.286,lexical_decision_task_DD_L5,2021.2.3,Win32,60.0240096,,,,,,,,,,,,0.833,0,,,,,,,,,,,,,,,,,,,,,,,,0.703703704,-0.175925926,0,0,0,,,,,,,SWEAT,HB,z,y,./images/SWEATHB.png,,,,,,,,,,,,,,,,,,,,m,0,0.833,,,,,,,,0,45,45,150,1
,,,,,,,,,,,,,,,,,5d86d05f9854a60019240621,49,2022-02-12_11h43.02.286,lexical_decision_task_DD_L5,2021.2.3,Win32,60.0240096,,,,,,,,,,,,0.623,1,,,,,,,,,,,,,,,,,,,,,,,,0.703703704,-0.175925926,0,0,0,,,,,,,MEDAL,C,m,y,./images/MEDAL.png,,,,,,,,,,,,,,,,,,,,m,1,0.623,,,,,,,,0,46,46,11,1
,,,,,,,,,,,,,,,,,5d86d05f9854a60019240621,49,2022-02-12_11h43.02.286,lexical_decision_task_DD_L5,2021.2.3,Win32,60.0240096,,,,,,,,,,,,0.696,1,,,,,,,,,,,,,,,,,,,,,,,,0.703703704,-0.175925926,0,0,0,,,,,,,SLOPE,HB,m,y,./images/SLOPEHB.png,,,,,,,,,,,,,,,,,,,,m,1,0.696,,,,,,,,0,47,47,30,1
,,,,,,,,,,,,,,,,,5d86d05f9854a60019240621,49,2022-02-12_11h43.02.286,lexical_decision_task_DD_L5,2021.2.3,Win32,60.0240096,,,,,,,,,,,,0.85,0,,,,,,,,,,,,,,,,,,,,,,,,0.703703704,-0.175925926,0,0,0,,,,,,,MIRROR,HB,z,y,./images/MIRRORHB.png,,,,,,,,,,,,,,,,,,,,m,0,0.85,,,,,,,,0,48,48,147,1
,,,,,,,,,,,,,,,,,5d86d05f9854a60019240621,49,2022-02-12_11h43.02.286,lexical_decision_task_DD_L5,2021.2.3,Win32,60.0240096,,,,,,,,,,,,1.134,1,,,,,,,,,,,,,,,,,,,,,,,,0.703703704,-0.175925926,0,0,0,,,,,,,PLANK,LB,z,y,./images/PLANKLB.png,,,,,,,,,,,,,,,,,,,,z,1,1.134,,,,,,,,0,49,49,85,1
,,,,,,,,,,,,,,,,,5d86d05f9854a60019240621,49,2022-02-12_11h43.02.286,lexical_decision_task_DD_L5,2021.2.3,Win32,60.0240096,,,,,,,,,,,,0.833,1,,,,,,,,,,,,,,,,,,,,,,,,0.703703704,-0.175925926,0,0,0,,,,,,,DIVER,HB,m,y,./images/DIVERHB.png,,,,,,,,,,,,,,,,,,,,m,1,0.833,,,,,,,,0,50,50,9,1
,,,,,,,,,,,,,,,,,5d86d05f9854a60019240621,49,2022-02-12_11h43.02.286,lexical_decision_task_DD_L5,2021.2.3,Win32,60.0240096,,,,,,,,,,,,0.982,1,,,,,,,,,,,,,,,,,,,,,,,,0.703703704,-0.175925926,0,0,0,,,,,,,SUNSET,LB,z,y,./images/SUNSETLB.png,,,,,,,,,,,,,,,,,,,,z,1,0.982,,,,,,,,0,51,51,166,1
,,,,,,,,,,,,,,,,,5d86d05f9854a60019240621,49,2022-02-12_11h43.02.286,lexical_decision_task_DD_L5,2021.2.3,Win32,60.0240096,,,,,,,,,,,,0.817,1,,,,,,,,,,,,,,,,,,,,,,,,0.703703704,-0.175925926,0,0,0,,,,,,,MIDGET,LB,m,y,./images/MIDGETLB.png,,,,,,,,,,,,,,,,,,,,m,1,0.817,,,,,,,,0,52,52,76,1
,,,,,,,,,,,,,,,,,5d86d05f9854a60019240621,49,2022-02-12_11h43.02.286,lexical_decision_task_DD_L5,2021.2.3,Win32,60.0240096,,,,,,,,,,,,0.765,0,,,,,,,,,,,,,,,,,,,,,,,,0.703703704,-0.175925926,0,0,0,,,,,,,SCREW,HB,z,y,./images/SCREWHB.png,,,,,,,,,,,,,,,,,,,,m,0,0.765,,,,,,,,0,53,53,108,1
,,,,,,,,,,,,,,,,,5d86d05f9854a60019240621,49,2022-02-12_11h43.02.286,lexical_decision_task_DD_L5,2021.2.3,Win32,60.0240096,,,,,,,,,,,,0.749,1,,,,,,,,,,,,,,,,,,,,,,,,0.703703704,-0.175925926,0,0,0,,,,,,,MAMMAL,C,m,y,./images/MAMMAL.png,,,,,,,,,,,,,,,,,,,,m,1,0.749,,,,,,,,0,54,54,62,1
,,,,,,,,,,,,,,,,,5d86d05f9854a60019240621,49,2022-02-12_11h43.02.286,lexical_decision_task_DD_L5,2021.2.3,Win32,60.0240096,,,,,,,,,,,,0.887,1,,,,,,,,,,,,,,,,,,,,,,,,0.703703704,-0.175925926,0,0,0,,,,,,,BRUSH,C,m,y,./images/BRUSH.png,,,,,,,,,,,,,,,,,,,,m,1,0.887,,,,,,,,0,55,55,59,1
,,,,,,,,,,,,,,,,,5d86d05f9854a60019240621,49,2022-02-12_11h43.02.286,lexical_decision_task_DD_L5,2021.2.3,Win32,60.0240096,,,,,,,,,,,,0.668,1,,,,,,,,,,,,,,,,,,,,,,,,0.703703704,-0.175925926,0,0,0,,,,,,,BUNNY,LB,m,y,./images/BUNNYLB.png,,,,,,,,,,,,,,,,,,,,m,1,0.668,,,,,,,,0,56,56,13,1
,,,,,,,,,,,,,,,,,5d86d05f9854a60019240621,49,2022-02-12_11h43.02.286,lexical_decision_task_DD_L5,2021.2.3,Win32,60.0240096,,,,,,,,,,,,0.68,1,,,,,,,,,,,,,,,,,,,,,,,,0.703703704,-0.175925926,0,0,0,,,,,,,GARDEN,LB,m,y,./images/GARDENLB.png,,,,,,,,,,,,,,,,,,,,m,1,0.68,,,,,,,,0,57,57,10,1
,,,,,,,,,,,,,,,,,5d86d05f9854a60019240621,49,2022-02-12_11h43.02.286,lexical_decision_task_DD_L5,2021.2.3,Win32,60.0240096,,,,,,,,,,,,0.746,1,,,,,,,,,,,,,,,,,,,,,,,,0.703703704,-0.175925926,0,0,0,,,,,,,DOUGH,LB,z,y,./images/DOUGHLB.png,,,,,,,,,,,,,,,,,,,,z,1,0.746,,,,,,,,0,58,58,103,1
,,,,,,,,,,,,,,,,,5d86d05f9854a60019240621,49,2022-02-12_11h43.02.286,lexical_decision_task_DD_L5,2021.2.3,Win32,60.0240096,,,,,,,,,,,,0.749,0,,,,,,,,,,,,,,,,,,,,,,,,0.703703704,-0.175925926,0,0,0,,,,,,,COOKER,HB,z,y,./images/COOKERHB.png,,,,,,,,,,,,,,,,,,,,m,0,0.749,,,,,,,,0,59,59,153,1
,,,,,,,,,,,,,,,,,5d86d05f9854a60019240621,49,2022-02-12_11h43.02.286,lexical_decision_task_DD_L5,2021.2.3,Win32,60.0240096,,,,,,,,,,,,0.699,0,,,,,,,,,,,,,,,,,,,,,,,,0.703703704,-0.175925926,0,0,0,,,,,,,FARMER,C,z,y,./images/FARMER.png,,,,,,,,,,,,,,,,,,,,m,0,0.699,,,,,,,,0,60,60,149,1
,,,,,,,,,,,,,,,,,5d86d05f9854a60019240621,49,2022-02-12_11h43.02.286,lexical_decision_task_DD_L5,2021.2.3,Win32,60.0240096,,,,,,,,,,,,1.082,1,,,,,,,,,,,,,,,,,,,,,,,,0.703703704,-0.175925926,0,0,0,,,,,,,ENGINE,C,m,y,./images/ENGINE.png,,,,,,,,,,,,,,,,,,,,m,1,1.082,,,,,,,,0,61,61,38,1
,,,,,,,,,,,,,,,,,5d86d05f9854a60019240621,49,2022-02-12_11h43.02.286,lexical_decision_task_DD_L5,2021.2.3,Win32,60.0240096,,,,,,,,,,,,0.768,1,,,,,,,,,,,,,,,,,,,,,,,,0.703703704,-0.175925926,0,0,0,,,,,,,STORM,HB,z,y,./images/STORMHB.png,,,,,,,,,,,,,,,,,,,,z,1,0.768,,,,,,,,0,62,62,114,1
,,,,,,,,,,,,,,,,,5d86d05f9854a60019240621,49,2022-02-12_11h43.02.286,lexical_decision_task_DD_L5,2021.2.3,Win32,60.0240096,,,,,,,,,,,,0.916,0,,,,,,,,,,,,,,,,,,,,,,,,0.703703704,-0.175925926,0,0,0,,,,,,,LIZARD,C,z,y,./images/LIZARD.png,,,,,,,,,,,,,,,,,,,,m,0,0.916,,,,,,,,0,63,63,128,1
,,,,,,,,,,,,,,,,,5d86d05f9854a60019240621,49,2022-02-12_11h43.02.286,lexical_decision_task_DD_L5,2021.2.3,Win32,60.0240096,,,,,,,,,,,,1.078,1,,,,,,,,,,,,,,,,,,,,,,,,0.703703704,-0.175925926,0,0,0,,,,,,,VALLEY,C,m,y,./images/VALLEY.png,,,,,,,,,,,,,,,,,,,,m,1,1.078,,,,,,,,0,64,64,68,1
,,,,,,,,,,,,,,,,,5d86d05f9854a60019240621,49,2022-02-12_11h43.02.286,lexical_decision_task_DD_L5,2021.2.3,Win32,60.0240096,,,,,,,,,,,,0.899,1,,,,,,,,,,,,,,,,,,,,,,,,0.702777778,-0.175925926,0,0,0,,,,,,,PASTA,C,z,y,./images/PASTA.png,,,,,,,,,,,,,,,,,,,,z,1,0.899,,,,,,,,0,65,65,89,1
,,,,,,,,,,,,,,,,,5d86d05f9854a60019240621,49,2022-02-12_11h43.02.286,lexical_decision_task_DD_L5,2021.2.3,Win32,60.0240096,,,,,,,,,,,,0.679,1,,,,,,,,,,,,,,,,,,,,,,,,0.702777778,-0.175925926,0,0,0,,,,,,,GRAPE,LB,m,y,./images/GRAPELB.png,,,,,,,,,,,,,,,,,,,,m,1,0.679,,,,,,,,0,66,66,16,1
,,,,,,,,,,,,,,,,,5d86d05f9854a60019240621,49,2022-02-12_11h43.02.286,lexical_decision_task_DD_L5,2021.2.3,Win32,60.0240096,,,,,,,,,,,,1.651,0,,,,,,,,,,,,,,,,,,,,,,,,0.702777778,-0.175925926,0,0,0,,,,,,,ALLEY,LB,m,y,./images/ALLEYLB.png,,,,,,,,,,,,,,,,,,,,z,0,1.651,,,,,,,,0,67,67,55,1
,,,,,,,,,,,,,,,,,5d86d05f9854a60019240621,49,2022-02-12_11h43.02.286,lexical_decision_task_DD_L5,2021.2.3,Win32,60.0240096,,,,,,,,,,,,1.081,1,,,,,,,,,,,,,,,,,,,,,,,,0.702777778,-0.175925926,0,0,0,,,,,,,SWING,LB,z,y,./images/SWINGLB.png,,,,,,,,,,,,,,,,,,,,z,1,1.081,,,,,,,,0,68,68,124,1
,,,,,,,,,,,,,,,,,5d86d05f9854a60019240621,49,2022-02-12_11h43.02.286,lexical_decision_task_DD_L5,2021.2.3,Win32,60.0240096,,,,,,,,,,,,0.648,1,,,,,,,,,,,,,,,,,,,,,,,,0.702777778,-0.175925926,0,0,0,,,,,,,BROOM,HB,m,y,./images/BROOMHB.png,,,,,,,,,,,,,,,,,,,,m,1,0.648,,,,,,,,0,69,69,78,1
,,,,,,,,,,,,,,,,,5d86d05f9854a60019240621,49,2022-02-12_11h43.02.286,lexical_decision_task_DD_L5,2021.2.3,Win32,60.0240096,,,,,,,,,,,,0.566,1,,,,,,,,,,,,,,,,,,,,,,,,0.702777778,-0.175925926,0,0,0,,,,,,,BOXER,LB,m,y,./images/BOXERLB.png,,,,,,,,,,,,,,,,,,,,m,1,0.566,,,,,,,,0,70,70,4,1
,,,,,,,,,,,,,,,,,5d86d05f9854a60019240621,49,2022-02-12_11h43.02.286,lexical_decision_task_DD_L5,2021.2.3,Win32,60.0240096,,,,,,,,,,,,0.733,1,,,,,,,,,,,,,,,,,,,,,,,,0.702777778,-0.175925926,0,0,0,,,,,,,CLOTH,C,m,y,./images/CLOTH.png,,,,,,,,,,,,,,,,,,,,m,1,0.733,,,,,,,,0,71,71,23,1
,,,,,,,,,,,,,,,,,5d86d05f9854a60019240621,49,2022-02-12_11h43.02.286,lexical_decision_task_DD_L5,2021.2.3,Win32,60.0240096,,,,,,,,,,,,1.632,1,,,,,,,,,,,,,,,,,,,,,,,,0.702777778,-0.175925926,0,0,0,,,,,,,BEARD,C,z,y,./images/BEARD.png,,,,,,,,,,,,,,,,,,,,z,1,1.632,,,,,,,,0,72,72,86,1
,,,,,,,,,,,,,,,,,5d86d05f9854a60019240621,49,2022-02-12_11h43.02.286,lexical_decision_task_DD_L5,2021.2.3,Win32,60.0240096,,,,,,,,,,,,0.664,1,,,,,,,,,,,,,,,,,,,,,,,,0.702777778,-0.175925926,0,0,0,,,,,,,CURRY,HB,m,y,./images/CURRYHB.png,,,,,,,,,,,,,,,,,,,,m,1,0.664,,,,,,,,0,73,73,60,1
,,,,,,,,,,,,,,,,,5d86d05f9854a60019240621,49,2022-02-12_11h43.02.286,lexical_decision_task_DD_L5,2021.2.3,Win32,60.0240096,,,,,,,,,,,,0.783,1,,,,,,,,,,,,,,,,,,,,,,,,0.702777778,-0.175925926,0,0,0,,,,,,,SPINE,C,m,y,./images/SPINE.png,,,,,,,,,,,,,,,,,,,,m,1,0.783,,,,,,,,0,74,74,65,1
,,,,,,,,,,,,,,,,,5d86d05f9854a60019240621,49,2022-02-12_11h43.02.286,lexical_decision_task_DD_L5,2021.2.3,Win32,60.0240096,,,,,,,,,,,,0.737,1,,,,,,,,,,,,,,,,,,,,,,,,0.702777778,-0.175925926,0,0,0,,,,,,,MOSQUE,LB,z,y,./images/MOSQUELB.png,,,,,,,,,,,,,,,,,,,,z,1,0.737,,,,,,,,0,75,75,127,1
,,,,,,,,,,,,,,,,,5d86d05f9854a60019240621,49,2022-02-12_11h43.02.286,lexical_decision_task_DD_L5,2021.2.3,Win32,60.0240096,,,,,,,,,,,,0.716,1,,,,,,,,,,,,,,,,,,,,,,,,0.702777778,-0.175925926,0,0,0,,,,,,,WHISKY,C,m,y,./images/WHISKY.png,,,,,,,,,,,,,,,,,,,,m,1,0.716,,,,,,,,0,76,76,83,1
,,,,,,,,,,,,,,,,,5d86d05f9854a60019240621,49,2022-02-12_11h43.02.286,lexical_decision_task_DD_L5,2021.2.3,Win32,60.0240096,,,,,,,,,,,,1.085,1,,,,,,,,,,,,,,,,,,,,,,,,0.702777778,-0.175925926,0,0,0,,,,,,,TOMATO,HB,z,y,./images/TOMATOHB.png,,,,,,,,,,,,,,,,,,,,z,1,1.085,,,,,,,,0,77,77,84,1
,,,,,,,,,,,,,,,,,5d86d05f9854a60019240621,49,2022-02-12_11h43.02.286,lexical_decision_task_DD_L5,2021.2.3,Win32,60.0240096,,,,,,,,,,,,1.098,1,,,,,,,,,,,,,,,,,,,,,,,,0.702777778,-0.175925926,0,0,0,,,,,,,CLOWN,LB,m,y,./images/CLOWNLB.png,,,,,,,,,,,,,,,,,,,,m,1,1.098,,,,,,,,0,78,78,22,1
,,,,,,,,,,,,,,,,,5d86d05f9854a60019240621,49,2022-02-12_11h43.02.286,lexical_decision_task_DD_L5,2021.2.3,Win32,60.0240096,,,,,,,,,,,,0.982,1,,,,,,,,,,,,,,,,,,,,,,,,0.702777778,-0.175925926,0,0,0,,,,,,,DRUMS,LB,z,y,./images/DRUMSLB.png,,,,,,,,,,,,,,,,,,,,z,1,0.982,,,,,,,,0,79,79,133,1
,,,,,,,,,,,,,,,,,5d86d05f9854a60019240621,49,2022-02-12_11h43.02.286,lexical_decision_task_DD_L5,2021.2.3,Win32,60.0240096,,,,,,,,,,,,1.231,1,,,,,,,,,,,,,,,,,,,,,,,,0.702777778,-0.175925926,0,0,0,,,,,,,JUNGLE,C,z,y,./images/JUNGLE.png,,,,,,,,,,,,,,,,,,,,z,1,1.231,,,,,,,,0,80,80,167,1
,,,,,,,,,,,,,,,,,5d86d05f9854a60019240621,49,2022-02-12_11h43.02.286,lexical_decision_task_DD_L5,2021.2.3,Win32,60.0240096,,,,,,,,,,,,0.744,1,,,,,,,,,,,,,,,,,,,,,,,,0.702777778,-0.175925926,0,0,0,,,,,,,POKER,LB,m,y,./images/POKERLB.png,,,,,,,,,,,,,,,,,,,,m,1,0.744,,,,,,,,0,81,81,67,1
,,,,,,,,,,,,,,,,,5d86d05f9854a60019240621,49,2022-02-12_11h43.02.286,lexical_decision_task_DD_L5,2021.2.3,Win32,60.0240096,,,,,,,,,,,,0.664,1,,,,,,,,,,,,,,,,,,,,,,,,0.702777778,-0.175925926,0,0,0,,,,,,,PISTOL,C,m,y,./images/PISTOL.png,,,,,,,,,,,,,,,,,,,,m,1,0.664,,,,,,,,0,82,82,29,1
,,,,,,,,,,,,,,,,,5d86d05f9854a60019240621,49,2022-02-12_11h43.02.286,lexical_decision_task_DD_L5,2021.2.3,Win32,60.0240096,,,,,,,,,,,,1.197,0,,,,,,,,,,,,,,,,,,,,,,,,0.702777778,-0.175925926,0,0,0,space,,,,,,PLANET,C,m,y,./images/PLANET.png,4.48,,,,,,,,,,,,,,,,,,,z,0,1.197,,,,,,,,0,83,83,80,1
,,,,,,,,,,,,,,,,,5d86d05f9854a60019240621,49,2022-02-12_11h43.02.286,lexical_decision_task_DD_L5,2021.2.3,Win32,60.0240096,,,,,,,,,,,,0.682,1,,,,,,,,,,,,,,,,,,,,,,,,0.702777778,-0.175925926,0,0,0,,,,,,,CHERRY,HB,m,y,./images/CHERRYHB.png,,,,,,,,,,,,,,,,,,,,m,1,0.682,,,,,,,,0,84,84,54,1
,,,,,,,,,,,,,,,,,5d86d05f9854a60019240621,49,2022-02-12_11h43.02.286,lexical_decision_task_DD_L5,2021.2.3,Win32,60.0240096,,,,,,,,,,,,0.632,1,,,,,,,,,,,,,,,,,,,,,,,,0.702777778,-0.175925926,0,0,0,,,,,,,STAIN,HB,m,y,./images/STAINHB.png,,,,,,,,,,,,,,,,,,,,m,1,0.632,,,,,,,,0,85,85,6,1
,,,,,,,,,,,,,,,,,5d86d05f9854a60019240621,49,2022-02-12_11h43.02.286,lexical_decision_task_DD_L5,2021.2.3,Win32,60.0240096,,,,,,,,,,,,0.713,1,,,,,,,,,,,,,,,,,,,,,,,,0.702777778,-0.175925926,0,0,0,,,,,,,CANDY,HB,m,y,./images/CANDYHB.png,,,,,,,,,,,,,,,,,,,,m,1,0.713,,,,,,,,0,86,86,39,1
,,,,,,,,,,,,,,,,,5d86d05f9854a60019240621,49,2022-02-12_11h43.02.286,lexical_decision_task_DD_L5,2021.2.3,Win32,60.0240096,,,,,,,,,,,,0.833,1,,,,,,,,,,,,,,,,,,,,,,,,0.702777778,-0.175925926,0,0,0,,,,,,,MALLET,C,z,y,./images/MALLET.png,,,,,,,,,,,,,,,,,,,,z,1,0.833,,,,,,,,0,87,87,134,1
,,,,,,,,,,,,,,,,,5d86d05f9854a60019240621,49,2022-02-12_11h43.02.286,lexical_decision_task_DD_L5,2021.2.3,Win32,60.0240096,,,,,,,,,,,,0.753,1,,,,,,,,,,,,,,,,,,,,,,,,0.702777778,-0.175925926,0,0,0,,,,,,,CANOE,LB,m,y,./images/CANOELB.png,,,,,,,,,,,,,,,,,,,,m,1,0.753,,,,,,,,0,88,88,58,1
,,,,,,,,,,,,,,,,,5d86d05f9854a60019240621,49,2022-02-12_11h43.02.286,lexical_decision_task_DD_L5,2021.2.3,Win32,60.0240096,,,,,,,,,,,,0.783,1,,,,,,,,,,,,,,,,,,,,,,,,0.702777778,-0.175925926,0,0,0,,,,,,,WEASEL,C,z,y,./images/WEASEL.png,,,,,,,,,,,,,,,,,,,,z,1,0.783,,,,,,,,0,89,89,164,1
,,,,,,,,,,,,,,,,,5d86d05f9854a60019240621,49,2022-02-12_11h43.02.286,lexical_decision_task_DD_L5,2021.2.3,Win32,60.0240096,,,,,,,,,,,,0.952,1,,,,,,,,,,,,,,,,,,,,,,,,0.702777778,-0.175925926,0,0,0,,,,,,,FERRY,HB,m,y,./images/FERRYHB.png,,,,,,,,,,,,,,,,,,,,m,1,0.952,,,,,,,,0,90,90,57,1
,,,,,,,,,,,,,,,,,5d86d05f9854a60019240621,49,2022-02-12_11h43.02.286,lexical_decision_task_DD_L5,2021.2.3,Win32,60.0240096,,,,,,,,,,,,0.796,1,,,,,,,,,,,,,,,,,,,,,,,,0.702777778,-0.175925926,0,0,0,,,,,,,SAUNA,HB,m,y,./images/SAUNAHB.png,,,,,,,,,,,,,,,,,,,,m,1,0.796,,,,,,,,0,91,91,33,1
,,,,,,,,,,,,,,,,,5d86d05f9854a60019240621,49,2022-02-12_11h43.02.286,lexical_decision_task_DD_L5,2021.2.3,Win32,60.0240096,,,,,,,,,,,,0.766,1,,,,,,,,,,,,,,,,,,,,,,,,0.702777778,-0.175925926,0,0,0,,,,,,,TIGER,LB,m,y,./images/TIGERLB.png,,,,,,,,,,,,,,,,,,,,m,1,0.766,,,,,,,,0,92,92,37,1
,,,,,,,,,,,,,,,,,5d86d05f9854a60019240621,49,2022-02-12_11h43.02.286,lexical_decision_task_DD_L5,2021.2.3,Win32,60.0240096,,,,,,,,,,,,0.684,1,,,,,,,,,,,,,,,,,,,,,,,,0.702777778,-0.175925926,0,0,0,,,,,,,STOOL,LB,m,y,./images/STOOLLB.png,,,,,,,,,,,,,,,,,,,,m,1,0.684,,,,,,,,0,93,93,43,1
,,,,,,,,,,,,,,,,,5d86d05f9854a60019240621,49,2022-02-12_11h43.02.286,lexical_decision_task_DD_L5,2021.2.3,Win32,60.0240096,,,,,,,,,,,,0.682,1,,,,,,,,,,,,,,,,,,,,,,,,0.702777778,-0.175925926,0,0,0,,,,,,,SHIELD,HB,m,y,./images/SHIELDHB.png,,,,,,,,,,,,,,,,,,,,m,1,0.682,,,,,,,,0,94,94,48,1
,,,,,,,,,,,,,,,,,5d86d05f9854a60019240621,49,2022-02-12_11h43.02.286,lexical_decision_task_DD_L5,2021.2.3,Win32,60.0240096,,,,,,,,,,,,0.764,1,,,,,,,,,,,,,,,,,,,,,,,,0.702777778,-0.175925926,0,0,0,,,,,,,WAGON,LB,m,y,./images/WAGONLB.png,,,,,,,,,,,,,,,,,,,,m,1,0.764,,,,,,,,0,95,95,7,1
,,,,,,,,,,,,,,,,,5d86d05f9854a60019240621,49,2022-02-12_11h43.02.286,lexical_decision_task_DD_L5,2021.2.3,Win32,60.0240096,,,,,,,,,,,,0.731,1,,,,,,,,,,,,,,,,,,,,,,,,0.702777778,-0.175925926,0,0,0,,,,,,,NOOSE,HB,z,y,./images/NOOSEHB.png,,,,,,,,,,,,,,,,,,,,z,1,0.731,,,,,,,,0,96,96,156,1
,,,,,,,,,,,,,,,,,5d86d05f9854a60019240621,49,2022-02-12_11h43.02.286,lexical_decision_task_DD_L5,2021.2.3,Win32,60.0240096,,,,,,,,,,,,0.767,1,,,,,,,,,,,,,,,,,,,,,,,,0.702777778,-0.175925926,0,0,0,,,,,,,BLOKE,HB,m,y,./images/BLOKEHB.png,,,,,,,,,,,,,,,,,,,,m,1,0.767,,,,,,,,0,97,97,12,1
,,,,,,,,,,,,,,,,,5d86d05f9854a60019240621,49,2022-02-12_11h43.02.286,lexical_decision_task_DD_L5,2021.2.3,Win32,60.0240096,,,,,,,,,,,,0.653,1,,,,,,,,,,,,,,,,,,,,,,,,0.702777778,-0.175925926,0,0,0,,,,,,,TOWEL,LB,m,y,./images/TOWELLB.png,,,,,,,,,,,,,,,,,,,,m,1,0.653,,,,,,,,0,98,98,1,1
,,,,,,,,,,,,,,,,,5d86d05f9854a60019240621,49,2022-02-12_11h43.02.286,lexical_decision_task_DD_L5,2021.2.3,Win32,60.0240096,,,,,,,,,,,,0.898,1,,,,,,,,,,,,,,,,,,,,,,,,0.702777778,-0.175925926,0,0,0,,,,,,,TORCH,C,z,y,./images/TORCH.png,,,,,,,,,,,,,,,,,,,,z,1,0.898,,,,,,,,0,99,99,152,1
,,,,,,,,,,,,,,,,,5d86d05f9854a60019240621,49,2022-02-12_11h43.02.286,lexical_decision_task_DD_L5,2021.2.3,Win32,60.0240096,,,,,,,,,,,,0.796,1,,,,,,,,,,,,,,,,,,,,,,,,0.702777778,-0.175925926,0,0,0,,,,,,,RULER,LB,m,y,./images/RULERLB.png,,,,,,,,,,,,,,,,,,,,m,1,0.796,,,,,,,,0,100,100,79,1
,,,,,,,,,,,,,,,,,5d86d05f9854a60019240621,49,2022-02-12_11h43.02.286,lexical_decision_task_DD_L5,2021.2.3,Win32,60.0240096,,,,,,,,,,,,0.664,1,,,,,,,,,,,,,,,,,,,,,,,,0.702777778,-0.175925926,0,0,0,,,,,,,PARCEL,HB,m,y,./images/PARCELHB.png,,,,,,,,,,,,,,,,,,,,m,1,0.664,,,,,,,,0,101,101,18,1
,,,,,,,,,,,,,,,,,5d86d05f9854a60019240621,49,2022-02-12_11h43.02.286,lexical_decision_task_DD_L5,2021.2.3,Win32,60.0240096,,,,,,,,,,,,0.832,1,,,,,,,,,,,,,,,,,,,,,,,,0.702777778,-0.175925926,0,0,0,,,,,,,CRADLE,C,z,y,./images/CRADLE.png,,,,,,,,,,,,,,,,,,,,z,1,0.832,,,,,,,,0,102,102,104,1
,,,,,,,,,,,,,,,,,5d86d05f9854a60019240621,49,2022-02-12_11h43.02.286,lexical_decision_task_DD_L5,2021.2.3,Win32,60.0240096,,,,,,,,,,,,1.12,1,,,,,,,,,,,,,,,,,,,,,,,,0.702777778,-0.175925926,0,0,0,,,,,,,BELLY,LB,z,y,./images/BELLYLB.png,,,,,,,,,,,,,,,,,,,,z,1,1.12,,,,,,,,0,103,103,94,1
,,,,,,,,,,,,,,,,,5d86d05f9854a60019240621,49,2022-02-12_11h43.02.286,lexical_decision_task_DD_L5,2021.2.3,Win32,60.0240096,,,,,,,,,,,,0.953,1,,,,,,,,,,,,,,,,,,,,,,,,0.702777778,-0.175925926,0,0,0,,,,,,,JAGUAR,HB,z,y,./images/JAGUARHB.png,,,,,,,,,,,,,,,,,,,,z,1,0.953,,,,,,,,0,104,104,102,1
,,,,,,,,,,,,,,,,,5d86d05f9854a60019240621,49,2022-02-12_11h43.02.286,lexical_decision_task_DD_L5,2021.2.3,Win32,60.0240096,,,,,,,,,,,,0.766,1,,,,,,,,,,,,,,,,,,,,,,,,0.702777778,-0.175925926,0,0,0,,,,,,,WRIST,LB,z,y,./images/WRISTLB.png,,,,,,,,,,,,,,,,,,,,z,1,0.766,,,,,,,,0,105,105,109,1
,,,,,,,,,,,,,,,,,5d86d05f9854a60019240621,49,2022-02-12_11h43.02.286,lexical_decision_task_DD_L5,2021.2.3,Win32,60.0240096,,,,,,,,,,,,0.836,0,,,,,,,,,,,,,,,,,,,,,,,,0.702777778,-0.175925926,0,0,0,,,,,,,STEAK,LB,m,y,./images/STEAKLB.png,,,,,,,,,,,,,,,,,,,,z,0,0.836,,,,,,,,0,106,106,31,1
,,,,,,,,,,,,,,,,,5d86d05f9854a60019240621,49,2022-02-12_11h43.02.286,lexical_decision_task_DD_L5,2021.2.3,Win32,60.0240096,,,,,,,,,,,,0.834,1,,,,,,,,,,,,,,,,,,,,,,,,0.702777778,-0.175925926,0,0,0,,,,,,,KITTEN,HB,z,y,./images/KITTENHB.png,,,,,,,,,,,,,,,,,,,,z,1,0.834,,,,,,,,0,107,107,129,1
,,,,,,,,,,,,,,,,,5d86d05f9854a60019240621,49,2022-02-12_11h43.02.286,lexical_decision_task_DD_L5,2021.2.3,Win32,60.0240096,,,,,,,,,,,,0.736,1,,,,,,,,,,,,,,,,,,,,,,,,0.702777778,-0.175925926,0,0,0,,,,,,,WALNUT,HB,m,y,./images/WALNUTHB.png,,,,,,,,,,,,,,,,,,,,m,1,0.736,,,,,,,,0,108,108,0,1
,,,,,,,,,,,,,,,,,5d86d05f9854a60019240621,49,2022-02-12_11h43.02.286,lexical_decision_task_DD_L5,2021.2.3,Win32,60.0240096,,,,,,,,,,,,0.665,0,,,,,,,,,,,,,,,,,,,,,,,,0.702777778,-0.175925926,0,0,0,,,,,,,CANYON,LB,z,y,./images/CANYONLB.png,,,,,,,,,,,,,,,,,,,,m,0,0.665,,,,,,,,0,109,109,118,1
,,,,,,,,,,,,,,,,,5d86d05f9854a60019240621,49,2022-02-12_11h43.02.286,lexical_decision_task_DD_L5,2021.2.3,Win32,60.0240096,,,,,,,,,,,,0.615,1,,,,,,,,,,,,,,,,,,,,,,,,0.702777778,-0.175925926,0,0,0,,,,,,,CASINO,LB,m,y,./images/CASINOLB.png,,,,,,,,,,,,,,,,,,,,m,1,0.615,,,,,,,,0,110,110,28,1
,,,,,,,,,,,,,,,,,5d86d05f9854a60019240621,49,2022-02-12_11h43.02.286,lexical_decision_task_DD_L5,2021.2.3,Win32,60.0240096,,,,,,,,,,,,0.714,1,,,,,,,,,,,,,,,,,,,,,,,,0.702777778,-0.175925926,0,0,0,,,,,,,WALRUS,C,z,y,./images/WALRUS.png,,,,,,,,,,,,,,,,,,,,z,1,0.714,,,,,,,,0,111,111,107,1
,,,,,,,,,,,,,,,,,5d86d05f9854a60019240621,49,2022-02-12_11h43.02.286,lexical_decision_task_DD_L5,2021.2.3,Win32,60.0240096,,,,,,,,,,,,0.718,0,,,,,,,,,,,,,,,,,,,,,,,,0.702777778,-0.175925926,0,0,0,,,,,,,SNAKE,LB,m,y,./images/SNAKELB.png,,,,,,,,,,,,,,,,,,,,z,0,0.718,,,,,,,,0,112,112,40,1
,,,,,,,,,,,,,,,,,5d86d05f9854a60019240621,49,2022-02-12_11h43.02.286,lexical_decision_task_DD_L5,2021.2.3,Win32,60.0240096,,,,,,,,,,,,0.714,1,,,,,,,,,,,,,,,,,,,,,,,,0.702777778,-0.175925926,0,0,0,,,,,,,MAGGOT,HB,z,y,./images/MAGGOTHB.png,,,,,,,,,,,,,,,,,,,,z,1,0.714,,,,,,,,0,113,113,117,1
,,,,,,,,,,,,,,,,,5d86d05f9854a60019240621,49,2022-02-12_11h43.02.286,lexical_decision_task_DD_L5,2021.2.3,Win32,60.0240096,,,,,,,,,,,,0.835,1,,,,,,,,,,,,,,,,,,,,,,,,0.702777778,-0.175925926,0,0,0,,,,,,,CRATER,HB,m,y,./images/CRATERHB.png,,,,,,,,,,,,,,,,,,,,m,1,0.835,,,,,,,,0,114,114,3,1
,,,,,,,,,,,,,,,,,5d86d05f9854a60019240621,49,2022-02-12_11h43.02.286,lexical_decision_task_DD_L5,2021.2.3,Win32,60.0240096,,,,,,,,,,,,0.731,1,,,,,,,,,,,,,,,,,,,,,,,,0.702777778,-0.175925926,0,0,0,,,,,,,PEBBLE,LB,m,y,./images/PEBBLELB.png,,,,,,,,,,,,,,,,,,,,m,1,0.731,,,,,,,,0,115,115,82,1
,,,,,,,,,,,,,,,,,5d86d05f9854a60019240621,49,2022-02-12_11h43.02.286,lexical_decision_task_DD_L5,2021.2.3,Win32,60.0240096,,,,,,,,,,,,0.78,1,,,,,,,,,,,,,,,,,,,,,,,,0.702777778,-0.175925926,0,0,0,,,,,,,SHORE,HB,z,y,./images/SHOREHB.png,,,,,,,,,,,,,,,,,,,,z,1,0.78,,,,,,,,0,116,116,96,1
,,,,,,,,,,,,,,,,,5d86d05f9854a60019240621,49,2022-02-12_11h43.02.286,lexical_decision_task_DD_L5,2021.2.3,Win32,60.0240096,,,,,,,,,,,,0.636,1,,,,,,,,,,,,,,,,,,,,,,,,0.702777778,-0.175925926,0,0,0,,,,,,,LAGOON,C,m,y,./images/LAGOON.png,,,,,,,,,,,,,,,,,,,,m,1,0.636,,,,,,,,0,117,117,47,1
,,,,,,,,,,,,,,,,,5d86d05f9854a60019240621,49,2022-02-12_11h43.02.286,lexical_decision_task_DD_L5,2021.2.3,Win32,60.0240096,,,,,,,,,,,,1.031,1,,,,,,,,,,,,,,,,,,,,,,,,0.702777778,-0.175925926,0,0,0,,,,,,,PARADE,C,m,y,./images/PARADE.png,,,,,,,,,,,,,,,,,,,,m,1,1.031,,,,,,,,0,118,118,17,1
,,,,,,,,,,,,,,,,,5d86d05f9854a60019240621,49,2022-02-12_11h43.02.286,lexical_decision_task_DD_L5,2021.2.3,Win32,60.0240096,,,,,,,,,,,,0.968,0,,,,,,,,,,,,,,,,,,,,,,,,0.702777778,-0.175925926,0,0,0,,,,,,,CLOUD,C,m,y,./images/CLOUD.png,,,,,,,,,,,,,,,,,,,,z,0,0.968,,,,,,,,0,119,119,26,1
,,,,,,,,,,,,,,,,,5d86d05f9854a60019240621,49,2022-02-12_11h43.02.286,lexical_decision_task_DD_L5,2021.2.3,Win32,60.0240096,,,,,,,,,,,,0.882,1,,,,,,,,,,,,,,,,,,,,,,,,0.702777778,-0.175925926,0,0,0,,,,,,,BARREL,C,z,y,./images/BARREL.png,,,,,,,,,,,,,,,,,,,,z,1,0.882,,,,,,,,0,120,120,116,1
,,,,,,,,,,,,,,,,,5d86d05f9854a60019240621,49,2022-02-12_11h43.02.286,lexical_decision_task_DD_L5,2021.2.3,Win32,60.0240096,,,,,,,,,,,,1.11,1,,,,,,,,,,,,,,,,,,,,,,,,0.702777778,-0.175925926,0,0,0,,,,,,,PAINT,LB,z,y,./images/PAINTLB.png,,,,,,,,,,,,,,,,,,,,z,1,1.11,,,,,,,,0,121,121,91,1
,,,,,,,,,,,,,,,,,5d86d05f9854a60019240621,49,2022-02-12_11h43.02.286,lexical_decision_task_DD_L5,2021.2.3,Win32,60.0240096,,,,,,,,,,,,0.749,1,,,,,,,,,,,,,,,,,,,,,,,,0.702777778,-0.175925926,0,0,0,,,,,,,GLOVE,LB,m,y,./images/GLOVELB.png,,,,,,,,,,,,,,,,,,,,m,1,0.749,,,,,,,,0,122,122,73,1
,,,,,,,,,,,,,,,,,5d86d05f9854a60019240621,49,2022-02-12_11h43.02.286,lexical_decision_task_DD_L5,2021.2.3,Win32,60.0240096,,,,,,,,,,,,0.716,1,,,,,,,,,,,,,,,,,,,,,,,,0.702777778,-0.175925926,0,0,0,,,,,,,LLAMA,C,m,y,./images/LLAMA.png,,,,,,,,,,,,,,,,,,,,m,1,0.716,,,,,,,,0,123,123,35,1
,,,,,,,,,,,,,,,,,5d86d05f9854a60019240621,49,2022-02-12_11h43.02.286,lexical_decision_task_DD_L5,2021.2.3,Win32,60.0240096,,,,,,,,,,,,0.669,1,,,,,,,,,,,,,,,,,,,,,,,,0.702777778,-0.175925926,0,0,0,,,,,,,INFANT,LB,z,y,./images/INFANTLB.png,,,,,,,,,,,,,,,,,,,,z,1,0.669,,,,,,,,0,124,124,160,1
,,,,,,,,,,,,,,,,,5d86d05f9854a60019240621,49,2022-02-12_11h43.02.286,lexical_decision_task_DD_L5,2021.2.3,Win32,60.0240096,,,,,,,,,,,,0.881,1,,,,,,,,,,,,,,,,,,,,,,,,0.702777778,-0.175925926,0,0,0,space,,,,,,MOTOR,LB,z,y,./images/MOTORLB.png,3.713,,,,,,,,,,,,,,,,,,,z,1,0.881,,,,,,,,0,125,125,97,1
,,,,,,,,,,,,,,,,,5d86d05f9854a60019240621,49,2022-02-12_11h43.02.286,lexical_decision_task_DD_L5,2021.2.3,Win32,60.0240096,,,,,,,,,,,,1.178,0,,,,,,,,,,,,,,,,,,,,,,,,0.702777778,-0.175925926,0,0,0,,,,,,,ARROW,HB,m,y,./images/ARROWHB.png,,,,,,,,,,,,,,,,,,,,z,0,1.178,,,,,,,,0,126,126,69,1
,,,,,,,,,,,,,,,,,5d86d05f9854a60019240621,49,2022-02-12_11h43.02.286,lexical_decision_task_DD_L5,2021.2.3,Win32,60.0240096,,,,,,,,,,,,0.631,1,,,,,,,,,,,,,,,,,,,,,,,,0.702777778,-0.175925926,0,0,0,,,,,,,DANCER,HB,m,y,./images/DANCERHB.png,,,,,,,,,,,,,,,,,,,,m,1,0.631,,,,,,,,0,127,127,21,1
,,,,,,,,,,,,,,,,,5d86d05f9854a60019240621,49,2022-02-12_11h43.02.286,lexical_decision_task_DD_L5,2021.2.3,Win32,60.0240096,,,,,,,,,,,,0.898,0,,,,,,,,,,,,,,,,,,,,,,,,0.702777778,-0.175925926,0,0,0,,,,,,,BANNER,LB,z,y,./images/BANNERLB.png,,,,,,,,,,,,,,,,,,,,m,0,0.898,,,,,,,,0,128,128,136,1
,,,,,,,,,,,,,,,,,5d86d05f9854a60019240621,49,2022-02-12_11h43.02.286,lexical_decision_task_DD_L5,2021.2.3,Win32,60.0240096,,,,,,,,,,,,0.83,1,,,,,,,,,,,,,,,,,,,,,,,,0.702777778,-0.175925926,0,0,0,,,,,,,SQUARE,HB,z,y,./images/SQUAREHB.png,,,,,,,,,,,,,,,,,,,,z,1,0.83,,,,,,,,0,129,129,90,1
,,,,,,,,,,,,,,,,,5d86d05f9854a60019240621,49,2022-02-12_11h43.02.286,lexical_decision_task_DD_L5,2021.2.3,Win32,60.0240096,,,,,,,,,,,,0.664,1,,,,,,,,,,,,,,,,,,,,,,,,0.702777778,-0.175925926,0,0,0,,,,,,,BANANA,LB,m,y,./images/BANANALB.png,,,,,,,,,,,,,,,,,,,,m,1,0.664,,,,,,,,0,130,130,70,1
,,,,,,,,,,,,,,,,,5d86d05f9854a60019240621,49,2022-02-12_11h43.02.286,lexical_decision_task_DD_L5,2021.2.3,Win32,60.0240096,,,,,,,,,,,,0.833,1,,,,,,,,,,,,,,,,,,,,,,,,0.702777778,-0.175925926,0,0,0,,,,,,,MUFFIN,LB,z,y,./images/MUFFINLB.png,,,,,,,,,,,,,,,,,,,,z,1,0.833,,,,,,,,0,131,131,139,1
,,,,,,,,,,,,,,,,,5d86d05f9854a60019240621,49,2022-02-12_11h43.02.286,lexical_decision_task_DD_L5,2021.2.3,Win32,60.0240096,,,,,,,,,,,,0.865,1,,,,,,,,,,,,,,,,,,,,,,,,0.702777778,-0.175925926,0,0,0,,,,,,,PIMPLE,C,z,y,./images/PIMPLE.png,,,,,,,,,,,,,,,,,,,,z,1,0.865,,,,,,,,0,132,132,155,1
,,,,,,,,,,,,,,,,,5d86d05f9854a60019240621,49,2022-02-12_11h43.02.286,lexical_decision_task_DD_L5,2021.2.3,Win32,60.0240096,,,,,,,,,,,,0.8,1,,,,,,,,,,,,,,,,,,,,,,,,0.702777778,-0.175925926,0,0,0,,,,,,,PURSE,C,z,y,./images/PURSE.png,,,,,,,,,,,,,,,,,,,,z,1,0.8,,,,,,,,0,133,133,146,1
,,,,,,,,,,,,,,,,,5d86d05f9854a60019240621,49,2022-02-12_11h43.02.286,lexical_decision_task_DD_L5,2021.2.3,Win32,60.0240096,,,,,,,,,,,,0.932,1,,,,,,,,,,,,,,,,,,,,,,,,0.702777778,-0.175925926,0,0,0,,,,,,,BOILER,HB,m,y,./images/BOILERHB.png,,,,,,,,,,,,,,,,,,,,m,1,0.932,,,,,,,,0,134,134,36,1
