key_resp.keys,key_resp.rt,instr_done_touch.x,instr_done_touch.y,instr_done_touch.leftButton,instr_done_touch.midButton,instr_done_touch.rightButton,instruction_pages.thisRepN,instruction_pages.thisTrialN,instruction_pages.thisN,instruction_pages.thisIndex,instruction_pages.ran,pageN,phase,instruct_text,has_image,instruct_image,participant,age,date,expName,psychopyVersion,OS,frameRate,response.keys,response.corr,response.rt,touch_resp.x,touch_resp.y,touch_resp.leftButton,touch_resp.midButton,touch_resp.rightButton,touch_resp.time,touch_resp.clicked_name,rt,corr,practrials.thisRepN,practrials.thisTrialN,practrials.thisN,practrials.thisIndex,practrials.ran,TrialID,Target,corrAns,end_of_practice_trials_pages.thisRepN,end_of_practice_trials_pages.thisTrialN,end_of_practice_trials_pages.thisN,end_of_practice_trials_pages.thisIndex,end_of_practice_trials_pages.ran,key_resp_2.keys,key_resp_2.corr,key_resp_2.rt,targ_click.x,targ_click.y,targ_click.leftButton,targ_click.midButton,targ_click.rightButton,targ_click.time,targ_click.clicked_name,break_done_touch.x,break_done_touch.y,break_done_touch.leftButton,break_done_touch.midButton,break_done_touch.rightButton,break_done_keyboard.keys,maintrials.thisRepN,maintrials.thisTrialN,maintrials.thisN,maintrials.thisIndex,maintrials.ran,string,blur,study,lex,stim_path,break_done_keyboard.rt,mouse_2.x,mouse_2.y,mouse_2.leftButton,mouse_2.midButton,mouse_2.rightButton,mouse_2.clicked_name,slider.response,slider.rt,trials.thisRepN,trials.thisTrialN,trials.thisN,trials.thisIndex,trials.ran,instr_done_touch.clicked_name,test_instructions.thisRepN,test_instructions.thisTrialN,test_instructions.thisN,test_instructions.thisIndex,test_instructions.ran,key_resp_3.keys,key_resp_3.corr,key_resp_3.rt,test_click.x,test_click.y,test_click.leftButton,test_click.midButton,test_click.rightButton,test_click.time,test_click.clicked_name,test_phase.thisRepN,test_phase.thisTrialN,test_phase.thisN,test_phase.thisIndex,test_phase.ran
space,17.4502,0.290481771,0.085681424,0,0,0,0,0,0,0,1,1,instructions,"INSTRUCTIONS
At the start of each trial, look at the plus sign  (+) in the center of the screen.  This tells you that a trial is about to begin and where to look. Second, the plus sign will disappear and a string of letters will appear. Your task is to determine if the string of letters is a word or not. If the item is a word press the M key (on keyboard)  or touch the word button (phone/tablet).  If the item is not a word,  press the  Z key (on keyboard)  or touch the nonword button (on phone/tablet). 
Press the space bar or touch  continue.",0,,5dd36d715e9119361a7459f8,43,2022-02-12_11h26.23.991,lexical_decision_task_DD_L5,2021.2.3,MacIntel,60.0024001,,,,,,,,,,,,,,,,,,,,,,,,,,,,,,,,,,,,,,,,,,,,,,,,,,,,,,,,,,,,,,,,,,,,,,,,,,,,,,,,,,,,,,
space,5.4273,0.290481771,0.085681424,0,0,0,0,1,1,1,1,2,instructions,"If your device has a keyboard, press the 'Z' key for nonwords and the 'M' key for words.





Press the space bar or touch the button below to continue.",0,keyboard-example.gif,5dd36d715e9119361a7459f8,43,2022-02-12_11h26.23.991,lexical_decision_task_DD_L5,2021.2.3,MacIntel,60.0024001,,,,,,,,,,,,,,,,,,,,,,,,,,,,,,,,,,,,,,,,,,,,,,,,,,,,,,,,,,,,,,,,,,,,,,,,,,,,,,,,,,,,,,
space,2.4789,0.290481771,0.085681424,0,0,0,0,2,2,2,1,3,instructions,"If you are using a touchscreen only device, use the buttons on the screen. Do not use the mouse.





Press the space bar or touch the button below to continue.",0,touchscreen-example.gif,5dd36d715e9119361a7459f8,43,2022-02-12_11h26.23.991,lexical_decision_task_DD_L5,2021.2.3,MacIntel,60.0024001,,,,,,,,,,,,,,,,,,,,,,,,,,,,,,,,,,,,,,,,,,,,,,,,,,,,,,,,,,,,,,,,,,,,,,,,,,,,,,,,,,,,,,
space,6.6227,0.290481771,0.085681424,0,0,0,0,3,3,3,1,4,instructions,"It is very important that you respond as quickly and accurately as possible, as each letter string will only be on the screen for two seconds. If you do not respond within this time, the message 'Too slow!' will be displayed and the experiment will progress to the next letter string. The first 20 trials will be practice trials and you will receive feedback on your answers. 

Press the space bar or touch the button below to start the practice trials.",0,,5dd36d715e9119361a7459f8,43,2022-02-12_11h26.23.991,lexical_decision_task_DD_L5,2021.2.3,MacIntel,60.0024001,,,,,,,,,,,,,,,,,,,,,,,,,,,,,,,,,,,,,,,,,,,,,,,,,,,,,,,,,,,,,,,,,,,,,,,,,,,,,,,,,,,,,,
,,,,,,,,,,,,,,,,,5dd36d715e9119361a7459f8,43,2022-02-12_11h26.23.991,lexical_decision_task_DD_L5,2021.2.3,MacIntel,60.0024001,z,1,1.2028,,,,,,,,1.2028,1,0,0,0,10,1,1001,INLADE,z,,,,,,,,,,,,,,,,,,,,,,,,,,,,,,,,,,,,,,,,,,,,,,,,,,,,,,,,,,,,,,,,,,
,,,,,,,,,,,,,,,,,5dd36d715e9119361a7459f8,43,2022-02-12_11h26.23.991,lexical_decision_task_DD_L5,2021.2.3,MacIntel,60.0024001,z,1,0.9945,,,,,,,,0.9945,1,0,1,1,14,1,1001,THRALE,z,,,,,,,,,,,,,,,,,,,,,,,,,,,,,,,,,,,,,,,,,,,,,,,,,,,,,,,,,,,,,,,,,,
,,,,,,,,,,,,,,,,,5dd36d715e9119361a7459f8,43,2022-02-12_11h26.23.991,lexical_decision_task_DD_L5,2021.2.3,MacIntel,60.0024001,z,1,0.7689,,,,,,,,0.7689,1,0,2,2,13,1,1001,ROUPET,z,,,,,,,,,,,,,,,,,,,,,,,,,,,,,,,,,,,,,,,,,,,,,,,,,,,,,,,,,,,,,,,,,,
,,,,,,,,,,,,,,,,,5dd36d715e9119361a7459f8,43,2022-02-12_11h26.23.991,lexical_decision_task_DD_L5,2021.2.3,MacIntel,60.0024001,z,1,0.6889,,,,,,,,0.6889,1,0,3,3,11,1,1001,RASHET,z,,,,,,,,,,,,,,,,,,,,,,,,,,,,,,,,,,,,,,,,,,,,,,,,,,,,,,,,,,,,,,,,,,
,,,,,,,,,,,,,,,,,5dd36d715e9119361a7459f8,43,2022-02-12_11h26.23.991,lexical_decision_task_DD_L5,2021.2.3,MacIntel,60.0024001,m,1,0.6648,,,,,,,,0.6648,1,0,4,4,4,1,1001,SQUEAK,m,,,,,,,,,,,,,,,,,,,,,,,,,,,,,,,,,,,,,,,,,,,,,,,,,,,,,,,,,,,,,,,,,,
,,,,,,,,,,,,,,,,,5dd36d715e9119361a7459f8,43,2022-02-12_11h26.23.991,lexical_decision_task_DD_L5,2021.2.3,MacIntel,60.0024001,m,1,0.566,,,,,,,,0.566,1,0,5,5,6,1,1001,ZOMBIE,m,,,,,,,,,,,,,,,,,,,,,,,,,,,,,,,,,,,,,,,,,,,,,,,,,,,,,,,,,,,,,,,,,,
,,,,,,,,,,,,,,,,,5dd36d715e9119361a7459f8,43,2022-02-12_11h26.23.991,lexical_decision_task_DD_L5,2021.2.3,MacIntel,60.0024001,z,1,0.9063,,,,,,,,0.9063,1,0,6,6,12,1,1001,SPRINY,z,,,,,,,,,,,,,,,,,,,,,,,,,,,,,,,,,,,,,,,,,,,,,,,,,,,,,,,,,,,,,,,,,,
,,,,,,,,,,,,,,,,,5dd36d715e9119361a7459f8,43,2022-02-12_11h26.23.991,lexical_decision_task_DD_L5,2021.2.3,MacIntel,60.0024001,m,1,0.6656,,,,,,,,0.6656,1,0,7,7,1,1,1001,ADJUST,m,,,,,,,,,,,,,,,,,,,,,,,,,,,,,,,,,,,,,,,,,,,,,,,,,,,,,,,,,,,,,,,,,,
,,,,,,,,,,,,,,,,,5dd36d715e9119361a7459f8,43,2022-02-12_11h26.23.991,lexical_decision_task_DD_L5,2021.2.3,MacIntel,60.0024001,m,1,0.5787,,,,,,,,0.5787,1,0,8,8,7,1,1001,VOLUME,m,,,,,,,,,,,,,,,,,,,,,,,,,,,,,,,,,,,,,,,,,,,,,,,,,,,,,,,,,,,,,,,,,,
,,,,,,,,,,,,,,,,,5dd36d715e9119361a7459f8,43,2022-02-12_11h26.23.991,lexical_decision_task_DD_L5,2021.2.3,MacIntel,60.0024001,z,1,0.846,,,,,,,,0.846,1,0,9,9,15,1,1001,WHAISE,z,,,,,,,,,,,,,,,,,,,,,,,,,,,,,,,,,,,,,,,,,,,,,,,,,,,,,,,,,,,,,,,,,,
,,,,,,,,,,,,,,,,,5dd36d715e9119361a7459f8,43,2022-02-12_11h26.23.991,lexical_decision_task_DD_L5,2021.2.3,MacIntel,60.0024001,z,1,0.6574,,,,,,,,0.6574,1,0,10,10,9,1,1001,FARINY,z,,,,,,,,,,,,,,,,,,,,,,,,,,,,,,,,,,,,,,,,,,,,,,,,,,,,,,,,,,,,,,,,,,
,,,,,,,,,,,,,,,,,5dd36d715e9119361a7459f8,43,2022-02-12_11h26.23.991,lexical_decision_task_DD_L5,2021.2.3,MacIntel,60.0024001,m,1,0.6003,,,,,,,,0.6003,1,0,11,11,5,1,1001,OBTAIN,m,,,,,,,,,,,,,,,,,,,,,,,,,,,,,,,,,,,,,,,,,,,,,,,,,,,,,,,,,,,,,,,,,,
,,,,,,,,,,,,,,,,,5dd36d715e9119361a7459f8,43,2022-02-12_11h26.23.991,lexical_decision_task_DD_L5,2021.2.3,MacIntel,60.0024001,m,1,0.6102,,,,,,,,0.6102,1,0,12,12,2,1,1001,ALMOND,m,,,,,,,,,,,,,,,,,,,,,,,,,,,,,,,,,,,,,,,,,,,,,,,,,,,,,,,,,,,,,,,,,,
,,,,,,,,,,,,,,,,,5dd36d715e9119361a7459f8,43,2022-02-12_11h26.23.991,lexical_decision_task_DD_L5,2021.2.3,MacIntel,60.0024001,m,1,0.5106,,,,,,,,0.5106,1,0,13,13,3,1,1001,MATRIX,m,,,,,,,,,,,,,,,,,,,,,,,,,,,,,,,,,,,,,,,,,,,,,,,,,,,,,,,,,,,,,,,,,,
,,,,,,,,,,,,,,,,,5dd36d715e9119361a7459f8,43,2022-02-12_11h26.23.991,lexical_decision_task_DD_L5,2021.2.3,MacIntel,60.0024001,m,1,0.6879,,,,,,,,0.6879,1,0,14,14,0,1,1001,UTOPIA,m,,,,,,,,,,,,,,,,,,,,,,,,,,,,,,,,,,,,,,,,,,,,,,,,,,,,,,,,,,,,,,,,,,
,,,,,,,,,,,,,,,,,5dd36d715e9119361a7459f8,43,2022-02-12_11h26.23.991,lexical_decision_task_DD_L5,2021.2.3,MacIntel,60.0024001,z,1,0.7935,,,,,,,,0.7935,1,0,15,15,8,1,1001,ASLERT,z,,,,,,,,,,,,,,,,,,,,,,,,,,,,,,,,,,,,,,,,,,,,,,,,,,,,,,,,,,,,,,,,,,
space,7.3493,0.290481771,0.085681424,0,0,0,,,,,,1,end_of_practice,"You have completed the practice trials. During the experimental trials, you will not receive feedback. 
Before you begin, please ensure that you are in a comfortable and quiet location and will not be disturbed for about 15 minutes, as we cannot use your data if you do not complete all the trials. 
 When you are ready to start the experimental trials, please press space or touch the button below.",,,5dd36d715e9119361a7459f8,43,2022-02-12_11h26.23.991,lexical_decision_task_DD_L5,2021.2.3,MacIntel,60.0024001,,,,,,,,,,,,,,,,,,,,,0,0,0,0,1,,,,,,,,,,,,,,,,,,,,,,,,,,,,,,,,,,,,,,,,,,,,,,,,,,,,,,,,,,,,,
,,,,,,,,,,,,,,,,,5dd36d715e9119361a7459f8,43,2022-02-12_11h26.23.991,lexical_decision_task_DD_L5,2021.2.3,MacIntel,60.0024001,,,,,,,,,,,0.7444,1,,,,,,,,,,,,,,m,1,0.7444,,,,,,,,0.290481771,0.085681424,0,0,0,,0,0,0,64,1,BRIDE,LB,old,m,./images/BRIDELB.png,,,,,,,,,,,,,,,,,,,,,,,,,,,,,,,,,,,
,,,,,,,,,,,,,,,,,5dd36d715e9119361a7459f8,43,2022-02-12_11h26.23.991,lexical_decision_task_DD_L5,2021.2.3,MacIntel,60.0024001,,,,,,,,,,,0.7288,1,,,,,,,,,,,,,,m,1,0.7288,,,,,,,,0.290481771,0.085681424,0,0,0,,0,1,1,75,1,HAMMER,HB,old,m,./images/HAMMERHB.png,,,,,,,,,,,,,,,,,,,,,,,,,,,,,,,,,,,
,,,,,,,,,,,,,,,,,5dd36d715e9119361a7459f8,43,2022-02-12_11h26.23.991,lexical_decision_task_DD_L5,2021.2.3,MacIntel,60.0024001,,,,,,,,,,,0.7932,1,,,,,,,,,,,,,,z,1,0.7932,,,,,,,,0.290481771,0.085681424,0,0,0,,0,2,2,101,1,GLEET,LB,old,z,./images/GLEETLB.png,,,,,,,,,,,,,,,,,,,,,,,,,,,,,,,,,,,
,,,,,,,,,,,,,,,,,5dd36d715e9119361a7459f8,43,2022-02-12_11h26.23.991,lexical_decision_task_DD_L5,2021.2.3,MacIntel,60.0024001,,,,,,,,,,,1.0127,1,,,,,,,,,,,,,,m,1,1.0127,,,,,,,,0.290481771,0.085681424,0,0,0,,0,3,3,3,1,CRATER,HB,old,m,./images/CRATERHB.png,,,,,,,,,,,,,,,,,,,,,,,,,,,,,,,,,,,
,,,,,,,,,,,,,,,,,5dd36d715e9119361a7459f8,43,2022-02-12_11h26.23.991,lexical_decision_task_DD_L5,2021.2.3,MacIntel,60.0024001,,,,,,,,,,,0.8598,1,,,,,,,,,,,,,,m,1,0.8598,,,,,,,,0.290481771,0.085681424,0,0,0,,0,4,4,60,1,CURRY,HB,old,m,./images/CURRYHB.png,,,,,,,,,,,,,,,,,,,,,,,,,,,,,,,,,,,
,,,,,,,,,,,,,,,,,5dd36d715e9119361a7459f8,43,2022-02-12_11h26.23.991,lexical_decision_task_DD_L5,2021.2.3,MacIntel,60.0024001,,,,,,,,,,,0.7418,1,,,,,,,,,,,,,,m,1,0.7418,,,,,,,,0.290481771,0.085681424,0,0,0,,0,5,5,30,1,SLOPE,HB,old,m,./images/SLOPEHB.png,,,,,,,,,,,,,,,,,,,,,,,,,,,,,,,,,,,
,,,,,,,,,,,,,,,,,5dd36d715e9119361a7459f8,43,2022-02-12_11h26.23.991,lexical_decision_task_DD_L5,2021.2.3,MacIntel,60.0024001,,,,,,,,,,,0.7455,1,,,,,,,,,,,,,,m,1,0.7455,,,,,,,,0.290481771,0.085681424,0,0,0,,0,6,6,81,1,DRILL,HB,old,m,./images/DRILLHB.png,,,,,,,,,,,,,,,,,,,,,,,,,,,,,,,,,,,
,,,,,,,,,,,,,,,,,5dd36d715e9119361a7459f8,43,2022-02-12_11h26.23.991,lexical_decision_task_DD_L5,2021.2.3,MacIntel,60.0024001,,,,,,,,,,,0.8608,1,,,,,,,,,,,,,,m,1,0.8608,,,,,,,,0.290481771,0.085681424,0,0,0,,0,7,7,33,1,SAUNA,HB,old,m,./images/SAUNAHB.png,,,,,,,,,,,,,,,,,,,,,,,,,,,,,,,,,,,
,,,,,,,,,,,,,,,,,5dd36d715e9119361a7459f8,43,2022-02-12_11h26.23.991,lexical_decision_task_DD_L5,2021.2.3,MacIntel,60.0024001,,,,,,,,,,,0.8246,1,,,,,,,,,,,,,,m,1,0.8246,,,,,,,,0.290481771,0.085681424,0,0,0,,0,8,8,71,1,BUBBLE,C,old,m,./images/BUBBLE.png,,,,,,,,,,,,,,,,,,,,,,,,,,,,,,,,,,,
,,,,,,,,,,,,,,,,,5dd36d715e9119361a7459f8,43,2022-02-12_11h26.23.991,lexical_decision_task_DD_L5,2021.2.3,MacIntel,60.0024001,,,,,,,,,,,0.8771,1,,,,,,,,,,,,,,z,1,0.8771,,,,,,,,0.290481771,0.085681424,0,0,0,,0,9,9,113,1,LINEW,LB,old,z,./images/LINEWLB.png,,,,,,,,,,,,,,,,,,,,,,,,,,,,,,,,,,,
,,,,,,,,,,,,,,,,,5dd36d715e9119361a7459f8,43,2022-02-12_11h26.23.991,lexical_decision_task_DD_L5,2021.2.3,MacIntel,60.0024001,,,,,,,,,,,1.3172,1,,,,,,,,,,,,,,z,1,1.3172,,,,,,,,0.290481771,0.085681424,0,0,0,,0,10,10,154,1,THINT,HB,old,z,./images/THINTHB.png,,,,,,,,,,,,,,,,,,,,,,,,,,,,,,,,,,,
,,,,,,,,,,,,,,,,,5dd36d715e9119361a7459f8,43,2022-02-12_11h26.23.991,lexical_decision_task_DD_L5,2021.2.3,MacIntel,60.0024001,,,,,,,,,,,1.1916,1,,,,,,,,,,,,,,z,1,1.1916,,,,,,,,0.290481771,0.085681424,0,0,0,,0,11,11,94,1,BLANS,HB,old,z,./images/BLANSHB.png,,,,,,,,,,,,,,,,,,,,,,,,,,,,,,,,,,,
,,,,,,,,,,,,,,,,,5dd36d715e9119361a7459f8,43,2022-02-12_11h26.23.991,lexical_decision_task_DD_L5,2021.2.3,MacIntel,60.0024001,,,,,,,,,,,1.3807,1,,,,,,,,,,,,,,z,1,1.3807,,,,,,,,0.290481771,0.085681424,0,0,0,,0,12,12,91,1,SHENS,HB,old,z,./images/SHENSHB.png,,,,,,,,,,,,,,,,,,,,,,,,,,,,,,,,,,,
,,,,,,,,,,,,,,,,,5dd36d715e9119361a7459f8,43,2022-02-12_11h26.23.991,lexical_decision_task_DD_L5,2021.2.3,MacIntel,60.0024001,,,,,,,,,,,0.597,1,,,,,,,,,,,,,,m,1,0.597,,,,,,,,0.290481771,0.085681424,0,0,0,,0,13,13,2,1,STOVE,C,old,m,./images/STOVE.png,,,,,,,,,,,,,,,,,,,,,,,,,,,,,,,,,,,
,,,,,,,,,,,,,,,,,5dd36d715e9119361a7459f8,43,2022-02-12_11h26.23.991,lexical_decision_task_DD_L5,2021.2.3,MacIntel,60.0024001,,,,,,,,,,,0.795,1,,,,,,,,,,,,,,z,1,0.795,,,,,,,,0.290481771,0.085681424,0,0,0,,0,14,14,105,1,MOKER,C,old,z,./images/MOKER.png,,,,,,,,,,,,,,,,,,,,,,,,,,,,,,,,,,,
,,,,,,,,,,,,,,,,,5dd36d715e9119361a7459f8,43,2022-02-12_11h26.23.991,lexical_decision_task_DD_L5,2021.2.3,MacIntel,60.0024001,,,,,,,,,,,0.6586,1,,,,,,,,,,,,,,m,1,0.6586,,,,,,,,0.290481771,0.085681424,0,0,0,,0,15,15,46,1,MUMMY,LB,old,m,./images/MUMMYLB.png,,,,,,,,,,,,,,,,,,,,,,,,,,,,,,,,,,,
,,,,,,,,,,,,,,,,,5dd36d715e9119361a7459f8,43,2022-02-12_11h26.23.991,lexical_decision_task_DD_L5,2021.2.3,MacIntel,60.0024001,,,,,,,,,,,0.6646,1,,,,,,,,,,,,,,m,1,0.6646,,,,,,,,0.290481771,0.085681424,0,0,0,,0,16,16,76,1,MIDGET,LB,old,m,./images/MIDGETLB.png,,,,,,,,,,,,,,,,,,,,,,,,,,,,,,,,,,,
,,,,,,,,,,,,,,,,,5dd36d715e9119361a7459f8,43,2022-02-12_11h26.23.991,lexical_decision_task_DD_L5,2021.2.3,MacIntel,60.0024001,,,,,,,,,,,0.748,1,,,,,,,,,,,,,,z,1,0.748,,,,,,,,0.290481771,0.085681424,0,0,0,,0,17,17,140,1,DOVET,LB,old,z,./images/DOVETLB.png,,,,,,,,,,,,,,,,,,,,,,,,,,,,,,,,,,,
,,,,,,,,,,,,,,,,,5dd36d715e9119361a7459f8,43,2022-02-12_11h26.23.991,lexical_decision_task_DD_L5,2021.2.3,MacIntel,60.0024001,,,,,,,,,,,0.6282,1,,,,,,,,,,,,,,m,1,0.6282,,,,,,,,0.290481771,0.085681424,0,0,0,,0,18,18,8,1,CLIFF,C,old,m,./images/CLIFF.png,,,,,,,,,,,,,,,,,,,,,,,,,,,,,,,,,,,
,,,,,,,,,,,,,,,,,5dd36d715e9119361a7459f8,43,2022-02-12_11h26.23.991,lexical_decision_task_DD_L5,2021.2.3,MacIntel,60.0024001,,,,,,,,,,,0.8109,1,,,,,,,,,,,,,,m,1,0.8109,,,,,,,,0.290481771,0.085681424,0,0,0,,0,19,19,42,1,CHAIN,HB,old,m,./images/CHAINHB.png,,,,,,,,,,,,,,,,,,,,,,,,,,,,,,,,,,,
,,,,,,,,,,,,,,,,,5dd36d715e9119361a7459f8,43,2022-02-12_11h26.23.991,lexical_decision_task_DD_L5,2021.2.3,MacIntel,60.0024001,,,,,,,,,,,0.68,1,,,,,,,,,,,,,,m,1,0.68,,,,,,,,0.290481771,0.085681424,0,0,0,,0,20,20,61,1,ARTIST,LB,old,m,./images/ARTISTLB.png,,,,,,,,,,,,,,,,,,,,,,,,,,,,,,,,,,,
,,,,,,,,,,,,,,,,,5dd36d715e9119361a7459f8,43,2022-02-12_11h26.23.991,lexical_decision_task_DD_L5,2021.2.3,MacIntel,60.0024001,,,,,,,,,,,0.6671,1,,,,,,,,,,,,,,m,1,0.6671,,,,,,,,0.290481771,0.085681424,0,0,0,,0,21,21,69,1,ARROW,HB,old,m,./images/ARROWHB.png,,,,,,,,,,,,,,,,,,,,,,,,,,,,,,,,,,,
,,,,,,,,,,,,,,,,,5dd36d715e9119361a7459f8,43,2022-02-12_11h26.23.991,lexical_decision_task_DD_L5,2021.2.3,MacIntel,60.0024001,,,,,,,,,,,0.5316,1,,,,,,,,,,,,,,m,1,0.5316,,,,,,,,0.290481771,0.085681424,0,0,0,,0,22,22,68,1,VALLEY,C,old,m,./images/VALLEY.png,,,,,,,,,,,,,,,,,,,,,,,,,,,,,,,,,,,
,,,,,,,,,,,,,,,,,5dd36d715e9119361a7459f8,43,2022-02-12_11h26.23.991,lexical_decision_task_DD_L5,2021.2.3,MacIntel,60.0024001,,,,,,,,,,,0.5432,1,,,,,,,,,,,,,,m,1,0.5432,,,,,,,,0.290481771,0.085681424,0,0,0,,0,23,23,5,1,BAMBOO,C,old,m,./images/BAMBOO.png,,,,,,,,,,,,,,,,,,,,,,,,,,,,,,,,,,,
,,,,,,,,,,,,,,,,,5dd36d715e9119361a7459f8,43,2022-02-12_11h26.23.991,lexical_decision_task_DD_L5,2021.2.3,MacIntel,60.0024001,,,,,,,,,,,0.4918,1,,,,,,,,,,,,,,m,1,0.4918,,,,,,,,0.290481771,0.085681424,0,0,0,,0,24,24,56,1,HEATER,C,old,m,./images/HEATER.png,,,,,,,,,,,,,,,,,,,,,,,,,,,,,,,,,,,
,,,,,,,,,,,,,,,,,5dd36d715e9119361a7459f8,43,2022-02-12_11h26.23.991,lexical_decision_task_DD_L5,2021.2.3,MacIntel,60.0024001,,,,,,,,,,,0.8936,1,,,,,,,,,,,,,,z,1,0.8936,,,,,,,,0.290481771,0.085681424,0,0,0,,0,25,25,133,1,POWDY,HB,old,z,./images/POWDYHB.png,,,,,,,,,,,,,,,,,,,,,,,,,,,,,,,,,,,
,,,,,,,,,,,,,,,,,5dd36d715e9119361a7459f8,43,2022-02-12_11h26.23.991,lexical_decision_task_DD_L5,2021.2.3,MacIntel,60.0024001,,,,,,,,,,,0.6584,1,,,,,,,,,,,,,,z,1,0.6584,,,,,,,,0.290481771,0.085681424,0,0,0,,0,26,26,111,1,HOSSE,C,old,z,./images/HOSSE.png,,,,,,,,,,,,,,,,,,,,,,,,,,,,,,,,,,,
,,,,,,,,,,,,,,,,,5dd36d715e9119361a7459f8,43,2022-02-12_11h26.23.991,lexical_decision_task_DD_L5,2021.2.3,MacIntel,60.0024001,,,,,,,,,,,0.6255,1,,,,,,,,,,,,,,m,1,0.6255,,,,,,,,0.290481771,0.085681424,0,0,0,,0,27,27,19,1,DONKEY,LB,old,m,./images/DONKEYLB.png,,,,,,,,,,,,,,,,,,,,,,,,,,,,,,,,,,,
,,,,,,,,,,,,,,,,,5dd36d715e9119361a7459f8,43,2022-02-12_11h26.23.991,lexical_decision_task_DD_L5,2021.2.3,MacIntel,60.0024001,,,,,,,,,,,0.5474,1,,,,,,,,,,,,,,m,1,0.5474,,,,,,,,0.290481771,0.085681424,0,0,0,,0,28,28,40,1,SNAKE,LB,old,m,./images/SNAKELB.png,,,,,,,,,,,,,,,,,,,,,,,,,,,,,,,,,,,
,,,,,,,,,,,,,,,,,5dd36d715e9119361a7459f8,43,2022-02-12_11h26.23.991,lexical_decision_task_DD_L5,2021.2.3,MacIntel,60.0024001,,,,,,,,,,,0.6959,1,,,,,,,,,,,,,,z,1,0.6959,,,,,,,,0.290481771,0.085681424,0,0,0,,0,29,29,144,1,NAIRY,C,old,z,./images/NAIRY.png,,,,,,,,,,,,,,,,,,,,,,,,,,,,,,,,,,,
,,,,,,,,,,,,,,,,,5dd36d715e9119361a7459f8,43,2022-02-12_11h26.23.991,lexical_decision_task_DD_L5,2021.2.3,MacIntel,60.0024001,,,,,,,,,,,0.6433,1,,,,,,,,,,,,,,z,1,0.6433,,,,,,,,0.290481771,0.085681424,0,0,0,,0,30,30,143,1,MONGS,LB,old,z,./images/MONGSLB.png,,,,,,,,,,,,,,,,,,,,,,,,,,,,,,,,,,,
,,,,,,,,,,,,,,,,,5dd36d715e9119361a7459f8,43,2022-02-12_11h26.23.991,lexical_decision_task_DD_L5,2021.2.3,MacIntel,60.0024001,,,,,,,,,,,0.6264,1,,,,,,,,,,,,,,m,1,0.6264,,,,,,,,0.290481771,0.085681424,0,0,0,,0,31,31,73,1,GLOVE,LB,old,m,./images/GLOVELB.png,,,,,,,,,,,,,,,,,,,,,,,,,,,,,,,,,,,
,,,,,,,,,,,,,,,,,5dd36d715e9119361a7459f8,43,2022-02-12_11h26.23.991,lexical_decision_task_DD_L5,2021.2.3,MacIntel,60.0024001,,,,,,,,,,,0.5802,1,,,,,,,,,,,,,,m,1,0.5802,,,,,,,,0.290481771,0.085681424,0,0,0,,0,32,32,25,1,CHALK,LB,old,m,./images/CHALKLB.png,,,,,,,,,,,,,,,,,,,,,,,,,,,,,,,,,,,
,,,,,,,,,,,,,,,,,5dd36d715e9119361a7459f8,43,2022-02-12_11h26.23.991,lexical_decision_task_DD_L5,2021.2.3,MacIntel,60.0024001,,,,,,,,,,,0.6101,1,,,,,,,,,,,,,,m,1,0.6101,,,,,,,,0.290481771,0.085681424,0,0,0,,0,33,33,28,1,CASINO,LB,old,m,./images/CASINOLB.png,,,,,,,,,,,,,,,,,,,,,,,,,,,,,,,,,,,
,,,,,,,,,,,,,,,,,5dd36d715e9119361a7459f8,43,2022-02-12_11h26.23.991,lexical_decision_task_DD_L5,2021.2.3,MacIntel,60.0024001,,,,,,,,,,,0.6972,1,,,,,,,,,,,,,,z,1,0.6972,,,,,,,,0.290481771,0.085681424,0,0,0,,0,34,34,95,1,HANTY,LB,old,z,./images/HANTYLB.png,,,,,,,,,,,,,,,,,,,,,,,,,,,,,,,,,,,
,,,,,,,,,,,,,,,,,5dd36d715e9119361a7459f8,43,2022-02-12_11h26.23.991,lexical_decision_task_DD_L5,2021.2.3,MacIntel,60.0024001,,,,,,,,,,,0.5746,1,,,,,,,,,,,,,,z,1,0.5746,,,,,,,,0.290481771,0.085681424,0,0,0,,0,35,35,90,1,NEAST,C,old,z,./images/NEAST.png,,,,,,,,,,,,,,,,,,,,,,,,,,,,,,,,,,,
,,,,,,,,,,,,,,,,,5dd36d715e9119361a7459f8,43,2022-02-12_11h26.23.991,lexical_decision_task_DD_L5,2021.2.3,MacIntel,60.0024001,,,,,,,,,,,0.5748,1,,,,,,,,,,,,,,m,1,0.5748,,,,,,,,0.290481771,0.085681424,0,0,0,,0,36,36,47,1,LAGOON,C,old,m,./images/LAGOON.png,,,,,,,,,,,,,,,,,,,,,,,,,,,,,,,,,,,
,,,,,,,,,,,,,,,,,5dd36d715e9119361a7459f8,43,2022-02-12_11h26.23.991,lexical_decision_task_DD_L5,2021.2.3,MacIntel,60.0024001,,,,,,,,,,,0.7841,1,,,,,,,,,,,,,,z,1,0.7841,,,,,,,,0.290481771,0.085681424,0,0,0,,0,37,37,118,1,BAVEL,HB,old,z,./images/BAVELHB.png,,,,,,,,,,,,,,,,,,,,,,,,,,,,,,,,,,,
,,,,,,,,,,,,,,,,,5dd36d715e9119361a7459f8,43,2022-02-12_11h26.23.991,lexical_decision_task_DD_L5,2021.2.3,MacIntel,60.0024001,,,,,,,,,,,0.7102,1,,,,,,,,,,,,,,m,1,0.7102,,,,,,,,0.290481771,0.085681424,0,0,0,,0,38,38,66,1,STATUE,HB,old,m,./images/STATUEHB.png,,,,,,,,,,,,,,,,,,,,,,,,,,,,,,,,,,,
,,,,,,,,,,,,,,,,,5dd36d715e9119361a7459f8,43,2022-02-12_11h26.23.991,lexical_decision_task_DD_L5,2021.2.3,MacIntel,60.0024001,,,,,,,,,,,0.6074,1,,,,,,,,,,,,,,z,1,0.6074,,,,,,,,0.290481771,0.085681424,0,0,0,,0,39,39,117,1,STEEG,C,old,z,./images/STEEG.png,,,,,,,,,,,,,,,,,,,,,,,,,,,,,,,,,,,
,,,,,,,,,,,,,,,,,5dd36d715e9119361a7459f8,43,2022-02-12_11h26.23.991,lexical_decision_task_DD_L5,2021.2.3,MacIntel,60.0024001,,,,,,,,,,,0.646,1,,,,,,,,,,,,,,m,1,0.646,,,,,,,,0.290481771,0.085681424,0,0,0,,0,40,40,43,1,STOOL,LB,old,m,./images/STOOLLB.png,,,,,,,,,,,,,,,,,,,,,,,,,,,,,,,,,,,
,,,,,,,,,,,,,,,,,5dd36d715e9119361a7459f8,43,2022-02-12_11h26.23.991,lexical_decision_task_DD_L5,2021.2.3,MacIntel,60.0024001,,,,,,,,,,,1.0605,1,,,,,,,,,,,,,,m,1,1.0605,,,,,,,,0.290481771,0.085681424,0,0,0,space,0,41,41,12,1,BLOKE,HB,old,m,./images/BLOKEHB.png,4.0519,,,,,,,,,,,,,,,,,,,,,,,,,,,,,,,,,,
,,,,,,,,,,,,,,,,,5dd36d715e9119361a7459f8,43,2022-02-12_11h26.23.991,lexical_decision_task_DD_L5,2021.2.3,MacIntel,60.0024001,,,,,,,,,,,1.0084,1,,,,,,,,,,,,,,z,1,1.0084,,,,,,,,0.290481771,0.085681424,0,0,0,,0,42,42,136,1,WERVE,HB,old,z,./images/WERVEHB.png,,,,,,,,,,,,,,,,,,,,,,,,,,,,,,,,,,,
,,,,,,,,,,,,,,,,,5dd36d715e9119361a7459f8,43,2022-02-12_11h26.23.991,lexical_decision_task_DD_L5,2021.2.3,MacIntel,60.0024001,,,,,,,,,,,0.5937,1,,,,,,,,,,,,,,m,1,0.5937,,,,,,,,0.290481771,0.085681424,0,0,0,,0,43,43,83,1,WHISKY,C,old,m,./images/WHISKY.png,,,,,,,,,,,,,,,,,,,,,,,,,,,,,,,,,,,
,,,,,,,,,,,,,,,,,5dd36d715e9119361a7459f8,43,2022-02-12_11h26.23.991,lexical_decision_task_DD_L5,2021.2.3,MacIntel,60.0024001,,,,,,,,,,,0.8434,1,,,,,,,,,,,,,,m,1,0.8434,,,,,,,,0.290481771,0.085681424,0,0,0,,0,44,44,72,1,FLASK,HB,old,m,./images/FLASKHB.png,,,,,,,,,,,,,,,,,,,,,,,,,,,,,,,,,,,
,,,,,,,,,,,,,,,,,5dd36d715e9119361a7459f8,43,2022-02-12_11h26.23.991,lexical_decision_task_DD_L5,2021.2.3,MacIntel,60.0024001,,,,,,,,,,,0.7767,0,,,,,,,,,,,,,,m,0,0.7767,,,,,,,,0.290481771,0.085681424,0,0,0,,0,45,45,164,1,SGREW,LB,old,z,./images/SGREWLB.png,,,,,,,,,,,,,,,,,,,,,,,,,,,,,,,,,,,
,,,,,,,,,,,,,,,,,5dd36d715e9119361a7459f8,43,2022-02-12_11h26.23.991,lexical_decision_task_DD_L5,2021.2.3,MacIntel,60.0024001,,,,,,,,,,,0.8076,0,,,,,,,,,,,,,,m,0,0.8076,,,,,,,,0.290481771,0.085681424,0,0,0,,0,46,46,159,1,CUDDY,C,old,z,./images/CUDDY.png,,,,,,,,,,,,,,,,,,,,,,,,,,,,,,,,,,,
,,,,,,,,,,,,,,,,,5dd36d715e9119361a7459f8,43,2022-02-12_11h26.23.991,lexical_decision_task_DD_L5,2021.2.3,MacIntel,60.0024001,,,,,,,,,,,1.1332,1,,,,,,,,,,,,,,z,1,1.1332,,,,,,,,0.290481771,0.085681424,0,0,0,,0,47,47,127,1,NINDY,HB,old,z,./images/NINDYHB.png,,,,,,,,,,,,,,,,,,,,,,,,,,,,,,,,,,,
,,,,,,,,,,,,,,,,,5dd36d715e9119361a7459f8,43,2022-02-12_11h26.23.991,lexical_decision_task_DD_L5,2021.2.3,MacIntel,60.0024001,,,,,,,,,,,0.682,1,,,,,,,,,,,,,,z,1,0.682,,,,,,,,0.290481771,0.085681424,0,0,0,,0,48,48,92,1,PAIMS,LB,old,z,./images/PAIMSLB.png,,,,,,,,,,,,,,,,,,,,,,,,,,,,,,,,,,,
,,,,,,,,,,,,,,,,,5dd36d715e9119361a7459f8,43,2022-02-12_11h26.23.991,lexical_decision_task_DD_L5,2021.2.3,MacIntel,60.0024001,,,,,,,,,,,0.7957,1,,,,,,,,,,,,,,m,1,0.7957,,,,,,,,0.290481771,0.085681424,0,0,0,,0,49,49,54,1,CHERRY,HB,old,m,./images/CHERRYHB.png,,,,,,,,,,,,,,,,,,,,,,,,,,,,,,,,,,,
,,,,,,,,,,,,,,,,,5dd36d715e9119361a7459f8,43,2022-02-12_11h26.23.991,lexical_decision_task_DD_L5,2021.2.3,MacIntel,60.0024001,,,,,,,,,,,1.3957,1,,,,,,,,,,,,,,m,1,1.3957,,,,,,,,0.290481771,0.085681424,0,0,0,,0,50,50,82,1,PEBBLE,LB,old,m,./images/PEBBLELB.png,,,,,,,,,,,,,,,,,,,,,,,,,,,,,,,,,,,
,,,,,,,,,,,,,,,,,5dd36d715e9119361a7459f8,43,2022-02-12_11h26.23.991,lexical_decision_task_DD_L5,2021.2.3,MacIntel,60.0024001,,,,,,,,,,,1.3591,1,,,,,,,,,,,,,,z,1,1.3591,,,,,,,,0.290481771,0.085681424,0,0,0,,0,51,51,115,1,MAWNS,HB,old,z,./images/MAWNSHB.png,,,,,,,,,,,,,,,,,,,,,,,,,,,,,,,,,,,
,,,,,,,,,,,,,,,,,5dd36d715e9119361a7459f8,43,2022-02-12_11h26.23.991,lexical_decision_task_DD_L5,2021.2.3,MacIntel,60.0024001,,,,,,,,,,,1.1686,0,,,,,,,,,,,,,,m,0,1.1686,,,,,,,,0.290481771,0.085681424,0,0,0,,0,52,52,128,1,GRIFT,LB,old,z,./images/GRIFTLB.png,,,,,,,,,,,,,,,,,,,,,,,,,,,,,,,,,,,
,,,,,,,,,,,,,,,,,5dd36d715e9119361a7459f8,43,2022-02-12_11h26.23.991,lexical_decision_task_DD_L5,2021.2.3,MacIntel,60.0024001,,,,,,,,,,,0.9377,1,,,,,,,,,,,,,,z,1,0.9377,,,,,,,,0.290481771,0.085681424,0,0,0,,0,53,53,163,1,GAMBA,HB,old,z,./images/GAMBAHB.png,,,,,,,,,,,,,,,,,,,,,,,,,,,,,,,,,,,
,,,,,,,,,,,,,,,,,5dd36d715e9119361a7459f8,43,2022-02-12_11h26.23.991,lexical_decision_task_DD_L5,2021.2.3,MacIntel,60.0024001,,,,,,,,,,,0.7083,1,,,,,,,,,,,,,,m,1,0.7083,,,,,,,,0.290481771,0.085681424,0,0,0,,0,54,54,77,1,WHEEL,C,old,m,./images/WHEEL.png,,,,,,,,,,,,,,,,,,,,,,,,,,,,,,,,,,,
,,,,,,,,,,,,,,,,,5dd36d715e9119361a7459f8,43,2022-02-12_11h26.23.991,lexical_decision_task_DD_L5,2021.2.3,MacIntel,60.0024001,,,,,,,,,,,0.7434,1,,,,,,,,,,,,,,z,1,0.7434,,,,,,,,0.290481771,0.085681424,0,0,0,,0,55,55,161,1,BLAPS,LB,old,z,./images/BLAPSLB.png,,,,,,,,,,,,,,,,,,,,,,,,,,,,,,,,,,,
,,,,,,,,,,,,,,,,,5dd36d715e9119361a7459f8,43,2022-02-12_11h26.23.991,lexical_decision_task_DD_L5,2021.2.3,MacIntel,60.0024001,,,,,,,,,,,1.296,1,,,,,,,,,,,,,,m,1,1.296,,,,,,,,0.290481771,0.085681424,0,0,0,,0,56,56,6,1,STAIN,HB,old,m,./images/STAINHB.png,,,,,,,,,,,,,,,,,,,,,,,,,,,,,,,,,,,
,,,,,,,,,,,,,,,,,5dd36d715e9119361a7459f8,43,2022-02-12_11h26.23.991,lexical_decision_task_DD_L5,2021.2.3,MacIntel,60.0024001,,,,,,,,,,,0.6425,1,,,,,,,,,,,,,,m,1,0.6425,,,,,,,,0.290481771,0.085681424,0,0,0,,0,57,57,38,1,ENGINE,C,old,m,./images/ENGINE.png,,,,,,,,,,,,,,,,,,,,,,,,,,,,,,,,,,,
,,,,,,,,,,,,,,,,,5dd36d715e9119361a7459f8,43,2022-02-12_11h26.23.991,lexical_decision_task_DD_L5,2021.2.3,MacIntel,60.0024001,,,,,,,,,,,0.9421,1,,,,,,,,,,,,,,z,1,0.9421,,,,,,,,0.290481771,0.085681424,0,0,0,,0,58,58,139,1,BLEAR,HB,old,z,./images/BLEARHB.png,,,,,,,,,,,,,,,,,,,,,,,,,,,,,,,,,,,
,,,,,,,,,,,,,,,,,5dd36d715e9119361a7459f8,43,2022-02-12_11h26.23.991,lexical_decision_task_DD_L5,2021.2.3,MacIntel,60.0024001,,,,,,,,,,,0.624,1,,,,,,,,,,,,,,m,1,0.624,,,,,,,,0.290481771,0.085681424,0,0,0,,0,59,59,80,1,PLANET,C,old,m,./images/PLANET.png,,,,,,,,,,,,,,,,,,,,,,,,,,,,,,,,,,,
,,,,,,,,,,,,,,,,,5dd36d715e9119361a7459f8,43,2022-02-12_11h26.23.991,lexical_decision_task_DD_L5,2021.2.3,MacIntel,60.0024001,,,,,,,,,,,1.3826,1,,,,,,,,,,,,,,m,1,1.3826,,,,,,,,0.290481771,0.085681424,0,0,0,,0,60,60,57,1,FERRY,HB,old,m,./images/FERRYHB.png,,,,,,,,,,,,,,,,,,,,,,,,,,,,,,,,,,,
,,,,,,,,,,,,,,,,,5dd36d715e9119361a7459f8,43,2022-02-12_11h26.23.991,lexical_decision_task_DD_L5,2021.2.3,MacIntel,60.0024001,,,,,,,,,,,1.0999,1,,,,,,,,,,,,,,z,1,1.0999,,,,,,,,0.290481771,0.085681424,0,0,0,,0,61,61,107,1,FASKS,LB,old,z,./images/FASKSLB.png,,,,,,,,,,,,,,,,,,,,,,,,,,,,,,,,,,,
,,,,,,,,,,,,,,,,,5dd36d715e9119361a7459f8,43,2022-02-12_11h26.23.991,lexical_decision_task_DD_L5,2021.2.3,MacIntel,60.0024001,,,,,,,,,,,0.8412,1,,,,,,,,,,,,,,z,1,0.8412,,,,,,,,0.290481771,0.085681424,0,0,0,,0,62,62,120,1,RINED,C,old,z,./images/RINED.png,,,,,,,,,,,,,,,,,,,,,,,,,,,,,,,,,,,
,,,,,,,,,,,,,,,,,5dd36d715e9119361a7459f8,43,2022-02-12_11h26.23.991,lexical_decision_task_DD_L5,2021.2.3,MacIntel,60.0024001,,,,,,,,,,,0.6317,1,,,,,,,,,,,,,,m,1,0.6317,,,,,,,,0.290481771,0.085681424,0,0,0,,0,63,63,53,1,POSTER,C,old,m,./images/POSTER.png,,,,,,,,,,,,,,,,,,,,,,,,,,,,,,,,,,,
,,,,,,,,,,,,,,,,,5dd36d715e9119361a7459f8,43,2022-02-12_11h26.23.991,lexical_decision_task_DD_L5,2021.2.3,MacIntel,60.0024001,,,,,,,,,,,0.6254,1,,,,,,,,,,,,,,m,1,0.6254,,,,,,,,0.290481771,0.085681424,0,0,0,,0,64,64,23,1,CLOTH,C,old,m,./images/CLOTH.png,,,,,,,,,,,,,,,,,,,,,,,,,,,,,,,,,,,
,,,,,,,,,,,,,,,,,5dd36d715e9119361a7459f8,43,2022-02-12_11h26.23.991,lexical_decision_task_DD_L5,2021.2.3,MacIntel,60.0024001,,,,,,,,,,,0.9436,1,,,,,,,,,,,,,,z,1,0.9436,,,,,,,,0.290481771,0.085681424,0,0,0,,0,65,65,93,1,SMONE,C,old,z,./images/SMONE.png,,,,,,,,,,,,,,,,,,,,,,,,,,,,,,,,,,,
,,,,,,,,,,,,,,,,,5dd36d715e9119361a7459f8,43,2022-02-12_11h26.23.991,lexical_decision_task_DD_L5,2021.2.3,MacIntel,60.0024001,,,,,,,,,,,0.6464,1,,,,,,,,,,,,,,m,1,0.6464,,,,,,,,0.290481771,0.085681424,0,0,0,,0,66,66,1,1,TOWEL,LB,old,m,./images/TOWELLB.png,,,,,,,,,,,,,,,,,,,,,,,,,,,,,,,,,,,
,,,,,,,,,,,,,,,,,5dd36d715e9119361a7459f8,43,2022-02-12_11h26.23.991,lexical_decision_task_DD_L5,2021.2.3,MacIntel,60.0024001,,,,,,,,,,,1.5972,1,,,,,,,,,,,,,,z,1,1.5972,,,,,,,,0.290481771,0.085681424,0,0,0,,0,67,67,88,1,GLUSH,HB,old,z,./images/GLUSHHB.png,,,,,,,,,,,,,,,,,,,,,,,,,,,,,,,,,,,
,,,,,,,,,,,,,,,,,5dd36d715e9119361a7459f8,43,2022-02-12_11h26.23.991,lexical_decision_task_DD_L5,2021.2.3,MacIntel,60.0024001,,,,,,,,,,,0.7446,1,,,,,,,,,,,,,,m,1,0.7446,,,,,,,,0.290481771,0.085681424,0,0,0,,0,68,68,0,1,WALNUT,HB,old,m,./images/WALNUTHB.png,,,,,,,,,,,,,,,,,,,,,,,,,,,,,,,,,,,
,,,,,,,,,,,,,,,,,5dd36d715e9119361a7459f8,43,2022-02-12_11h26.23.991,lexical_decision_task_DD_L5,2021.2.3,MacIntel,60.0024001,,,,,,,,,,,1.6144,1,,,,,,,,,,,,,,m,1,1.6144,,,,,,,,0.290481771,0.085681424,0,0,0,,0,69,69,24,1,FLESH,HB,old,m,./images/FLESHHB.png,,,,,,,,,,,,,,,,,,,,,,,,,,,,,,,,,,,
,,,,,,,,,,,,,,,,,5dd36d715e9119361a7459f8,43,2022-02-12_11h26.23.991,lexical_decision_task_DD_L5,2021.2.3,MacIntel,60.0024001,,,,,,,,,,,0.7807,1,,,,,,,,,,,,,,z,1,0.7807,,,,,,,,0.290481771,0.085681424,0,0,0,,0,70,70,124,1,TUNCH,HB,old,z,./images/TUNCHHB.png,,,,,,,,,,,,,,,,,,,,,,,,,,,,,,,,,,,
,,,,,,,,,,,,,,,,,5dd36d715e9119361a7459f8,43,2022-02-12_11h26.23.991,lexical_decision_task_DD_L5,2021.2.3,MacIntel,60.0024001,,,,,,,,,,,0.7763,1,,,,,,,,,,,,,,z,1,0.7763,,,,,,,,0.290481771,0.085681424,0,0,0,,0,71,71,87,1,TRING,C,old,z,./images/TRING.png,,,,,,,,,,,,,,,,,,,,,,,,,,,,,,,,,,,
,,,,,,,,,,,,,,,,,5dd36d715e9119361a7459f8,43,2022-02-12_11h26.23.991,lexical_decision_task_DD_L5,2021.2.3,MacIntel,60.0024001,,,,,,,,,,,0.6944,1,,,,,,,,,,,,,,m,1,0.6944,,,,,,,,0.290481771,0.085681424,0,0,0,,0,72,72,10,1,GARDEN,LB,old,m,./images/GARDENLB.png,,,,,,,,,,,,,,,,,,,,,,,,,,,,,,,,,,,
,,,,,,,,,,,,,,,,,5dd36d715e9119361a7459f8,43,2022-02-12_11h26.23.991,lexical_decision_task_DD_L5,2021.2.3,MacIntel,60.0024001,,,,,,,,,,,0.7091,1,,,,,,,,,,,,,,z,1,0.7091,,,,,,,,0.290481771,0.085681424,0,0,0,,0,73,73,134,1,TROSS,LB,old,z,./images/TROSSLB.png,,,,,,,,,,,,,,,,,,,,,,,,,,,,,,,,,,,
,,,,,,,,,,,,,,,,,5dd36d715e9119361a7459f8,43,2022-02-12_11h26.23.991,lexical_decision_task_DD_L5,2021.2.3,MacIntel,60.0024001,,,,,,,,,,,0.8439,1,,,,,,,,,,,,,,z,1,0.8439,,,,,,,,0.290481771,0.085681424,0,0,0,,0,74,74,103,1,FLORT,HB,old,z,./images/FLORTHB.png,,,,,,,,,,,,,,,,,,,,,,,,,,,,,,,,,,,
,,,,,,,,,,,,,,,,,5dd36d715e9119361a7459f8,43,2022-02-12_11h26.23.991,lexical_decision_task_DD_L5,2021.2.3,MacIntel,60.0024001,,,,,,,,,,,1.0766,1,,,,,,,,,,,,,,m,1,1.0766,,,,,,,,0.290481771,0.085681424,0,0,0,,0,75,75,18,1,PARCEL,HB,old,m,./images/PARCELHB.png,,,,,,,,,,,,,,,,,,,,,,,,,,,,,,,,,,,
,,,,,,,,,,,,,,,,,5dd36d715e9119361a7459f8,43,2022-02-12_11h26.23.991,lexical_decision_task_DD_L5,2021.2.3,MacIntel,60.0024001,,,,,,,,,,,1.1802,1,,,,,,,,,,,,,,m,1,1.1802,,,,,,,,0.290481771,0.085681424,0,0,0,,0,76,76,48,1,SHIELD,HB,old,m,./images/SHIELDHB.png,,,,,,,,,,,,,,,,,,,,,,,,,,,,,,,,,,,
,,,,,,,,,,,,,,,,,5dd36d715e9119361a7459f8,43,2022-02-12_11h26.23.991,lexical_decision_task_DD_L5,2021.2.3,MacIntel,60.0024001,,,,,,,,,,,0.7084,1,,,,,,,,,,,,,,z,1,0.7084,,,,,,,,0.290481771,0.085681424,0,0,0,,0,77,77,89,1,DRIEK,LB,old,z,./images/DRIEKLB.png,,,,,,,,,,,,,,,,,,,,,,,,,,,,,,,,,,,
,,,,,,,,,,,,,,,,,5dd36d715e9119361a7459f8,43,2022-02-12_11h26.23.991,lexical_decision_task_DD_L5,2021.2.3,MacIntel,60.0024001,,,,,,,,,,,0.8599,1,,,,,,,,,,,,,,z,1,0.8599,,,,,,,,0.290481771,0.085681424,0,0,0,,0,78,78,110,1,CRUNK,LB,old,z,./images/CRUNKLB.png,,,,,,,,,,,,,,,,,,,,,,,,,,,,,,,,,,,
,,,,,,,,,,,,,,,,,5dd36d715e9119361a7459f8,43,2022-02-12_11h26.23.991,lexical_decision_task_DD_L5,2021.2.3,MacIntel,60.0024001,,,,,,,,,,,0.6119,1,,,,,,,,,,,,,,z,1,0.6119,,,,,,,,0.290481771,0.085681424,0,0,0,,0,79,79,84,1,HAXES,C,old,z,./images/HAXES.png,,,,,,,,,,,,,,,,,,,,,,,,,,,,,,,,,,,
,,,,,,,,,,,,,,,,,5dd36d715e9119361a7459f8,43,2022-02-12_11h26.23.991,lexical_decision_task_DD_L5,2021.2.3,MacIntel,60.0024001,,,,,,,,,,,0.6435,1,,,,,,,,,,,,,,z,1,0.6435,,,,,,,,0.290481771,0.085681424,0,0,0,,0,80,80,116,1,BALGY,LB,old,z,./images/BALGYLB.png,,,,,,,,,,,,,,,,,,,,,,,,,,,,,,,,,,,
,,,,,,,,,,,,,,,,,5dd36d715e9119361a7459f8,43,2022-02-12_11h26.23.991,lexical_decision_task_DD_L5,2021.2.3,MacIntel,60.0024001,,,,,,,,,,,0.8916,1,,,,,,,,,,,,,,z,1,0.8916,,,,,,,,0.290481771,0.085681424,0,0,0,,0,81,81,148,1,JOMS,HB,old,z,./images/JOMSHB.png,,,,,,,,,,,,,,,,,,,,,,,,,,,,,,,,,,,
,,,,,,,,,,,,,,,,,5dd36d715e9119361a7459f8,43,2022-02-12_11h26.23.991,lexical_decision_task_DD_L5,2021.2.3,MacIntel,60.0024001,,,,,,,,,,,0.7752,1,,,,,,,,,,,,,,m,1,0.7752,,,,,,,,0.290481771,0.085681424,0,0,0,,0,82,82,78,1,BROOM,HB,old,m,./images/BROOMHB.png,,,,,,,,,,,,,,,,,,,,,,,,,,,,,,,,,,,
,,,,,,,,,,,,,,,,,5dd36d715e9119361a7459f8,43,2022-02-12_11h26.23.991,lexical_decision_task_DD_L5,2021.2.3,MacIntel,60.0024001,,,,,,,,,,,0.7101,1,,,,,,,,,,,,,,m,1,0.7101,,,,,,,,0.290481771,0.085681424,0,0,0,space,0,83,83,26,1,CLOUD,C,old,m,./images/CLOUD.png,32.848,,,,,,,,,,,,,,,,,,,,,,,,,,,,,,,,,,
,,,,,,,,,,,,,,,,,5dd36d715e9119361a7459f8,43,2022-02-12_11h26.23.991,lexical_decision_task_DD_L5,2021.2.3,MacIntel,60.0024001,,,,,,,,,,,0.7255,1,,,,,,,,,,,,,,m,1,0.7255,,,,,,,,0.290481771,0.085681424,0,0,0,,0,84,84,31,1,STEAK,LB,old,m,./images/STEAKLB.png,,,,,,,,,,,,,,,,,,,,,,,,,,,,,,,,,,,
,,,,,,,,,,,,,,,,,5dd36d715e9119361a7459f8,43,2022-02-12_11h26.23.991,lexical_decision_task_DD_L5,2021.2.3,MacIntel,60.0024001,,,,,,,,,,,0.7483,0,,,,,,,,,,,,,,m,0,0.7483,,,,,,,,0.290481771,0.085681424,0,0,0,,0,85,85,166,1,SHORY,HB,old,z,./images/SHORYHB.png,,,,,,,,,,,,,,,,,,,,,,,,,,,,,,,,,,,
,,,,,,,,,,,,,,,,,5dd36d715e9119361a7459f8,43,2022-02-12_11h26.23.991,lexical_decision_task_DD_L5,2021.2.3,MacIntel,60.0024001,,,,,,,,,,,0.629,1,,,,,,,,,,,,,,z,1,0.629,,,,,,,,0.290481771,0.085681424,0,0,0,,0,86,86,96,1,KEAMS,C,old,z,./images/KEAMS.png,,,,,,,,,,,,,,,,,,,,,,,,,,,,,,,,,,,
,,,,,,,,,,,,,,,,,5dd36d715e9119361a7459f8,43,2022-02-12_11h26.23.991,lexical_decision_task_DD_L5,2021.2.3,MacIntel,60.0024001,,,,,,,,,,,0.8644,1,,,,,,,,,,,,,,z,1,0.8644,,,,,,,,0.290481771,0.085681424,0,0,0,,0,87,87,99,1,BACKY,C,old,z,./images/BACKY.png,,,,,,,,,,,,,,,,,,,,,,,,,,,,,,,,,,,
,,,,,,,,,,,,,,,,,5dd36d715e9119361a7459f8,43,2022-02-12_11h26.23.991,lexical_decision_task_DD_L5,2021.2.3,MacIntel,60.0024001,,,,,,,,,,,0.5628,1,,,,,,,,,,,,,,z,1,0.5628,,,,,,,,0.290481771,0.085681424,0,0,0,,0,88,88,108,1,GRUET,C,old,z,./images/GRUET.png,,,,,,,,,,,,,,,,,,,,,,,,,,,,,,,,,,,
,,,,,,,,,,,,,,,,,5dd36d715e9119361a7459f8,43,2022-02-12_11h26.23.991,lexical_decision_task_DD_L5,2021.2.3,MacIntel,60.0024001,,,,,,,,,,,0.5641,1,,,,,,,,,,,,,,z,1,0.5641,,,,,,,,0.290481771,0.085681424,0,0,0,,0,89,89,114,1,RIKES,C,old,z,./images/RIKES.png,,,,,,,,,,,,,,,,,,,,,,,,,,,,,,,,,,,
,,,,,,,,,,,,,,,,,5dd36d715e9119361a7459f8,43,2022-02-12_11h26.23.991,lexical_decision_task_DD_L5,2021.2.3,MacIntel,60.0024001,,,,,,,,,,,0.6579,1,,,,,,,,,,,,,,m,1,0.6579,,,,,,,,0.290481771,0.085681424,0,0,0,,0,90,90,50,1,PILOT,C,old,m,./images/PILOT.png,,,,,,,,,,,,,,,,,,,,,,,,,,,,,,,,,,,
,,,,,,,,,,,,,,,,,5dd36d715e9119361a7459f8,43,2022-02-12_11h26.23.991,lexical_decision_task_DD_L5,2021.2.3,MacIntel,60.0024001,,,,,,,,,,,0.6088,1,,,,,,,,,,,,,,m,1,0.6088,,,,,,,,0.290481771,0.085681424,0,0,0,,0,91,91,67,1,POKER,LB,old,m,./images/POKERLB.png,,,,,,,,,,,,,,,,,,,,,,,,,,,,,,,,,,,
,,,,,,,,,,,,,,,,,5dd36d715e9119361a7459f8,43,2022-02-12_11h26.23.991,lexical_decision_task_DD_L5,2021.2.3,MacIntel,60.0024001,,,,,,,,,,,1.0147,1,,,,,,,,,,,,,,m,1,1.0147,,,,,,,,0.290481771,0.085681424,0,0,0,,0,92,92,63,1,BAKER,HB,old,m,./images/BAKERHB.png,,,,,,,,,,,,,,,,,,,,,,,,,,,,,,,,,,,
,,,,,,,,,,,,,,,,,5dd36d715e9119361a7459f8,43,2022-02-12_11h26.23.991,lexical_decision_task_DD_L5,2021.2.3,MacIntel,60.0024001,,,,,,,,,,,0.8302,1,,,,,,,,,,,,,,z,1,0.8302,,,,,,,,0.290481771,0.085681424,0,0,0,,0,93,93,121,1,CEERS,HB,old,z,./images/CEERSHB.png,,,,,,,,,,,,,,,,,,,,,,,,,,,,,,,,,,,
,,,,,,,,,,,,,,,,,5dd36d715e9119361a7459f8,43,2022-02-12_11h26.23.991,lexical_decision_task_DD_L5,2021.2.3,MacIntel,60.0024001,,,,,,,,,,,0.7102,1,,,,,,,,,,,,,,m,1,0.7102,,,,,,,,0.290481771,0.085681424,0,0,0,,0,94,94,27,1,BUTTER,HB,old,m,./images/BUTTERHB.png,,,,,,,,,,,,,,,,,,,,,,,,,,,,,,,,,,,
,,,,,,,,,,,,,,,,,5dd36d715e9119361a7459f8,43,2022-02-12_11h26.23.991,lexical_decision_task_DD_L5,2021.2.3,MacIntel,60.0024001,,,,,,,,,,,0.7963,1,,,,,,,,,,,,,,z,1,0.7963,,,,,,,,0.290481771,0.085681424,0,0,0,,0,95,95,149,1,VEASE,LB,old,z,./images/VEASELB.png,,,,,,,,,,,,,,,,,,,,,,,,,,,,,,,,,,,
,,,,,,,,,,,,,,,,,5dd36d715e9119361a7459f8,43,2022-02-12_11h26.23.991,lexical_decision_task_DD_L5,2021.2.3,MacIntel,60.0024001,,,,,,,,,,,0.6772,1,,,,,,,,,,,,,,z,1,0.6772,,,,,,,,0.290481771,0.085681424,0,0,0,,0,96,96,119,1,PAFER,LB,old,z,./images/PAFERLB.png,,,,,,,,,,,,,,,,,,,,,,,,,,,,,,,,,,,
,,,,,,,,,,,,,,,,,5dd36d715e9119361a7459f8,43,2022-02-12_11h26.23.991,lexical_decision_task_DD_L5,2021.2.3,MacIntel,60.0024001,,,,,,,,,,,0.8103,1,,,,,,,,,,,,,,z,1,0.8103,,,,,,,,0.290481771,0.085681424,0,0,0,,0,97,97,145,1,LAMEL,HB,old,z,./images/LAMELHB.png,,,,,,,,,,,,,,,,,,,,,,,,,,,,,,,,,,,
,,,,,,,,,,,,,,,,,5dd36d715e9119361a7459f8,43,2022-02-12_11h26.23.991,lexical_decision_task_DD_L5,2021.2.3,MacIntel,60.0024001,,,,,,,,,,,0.677,1,,,,,,,,,,,,,,m,1,0.677,,,,,,,,0.290481771,0.085681424,0,0,0,,0,98,98,13,1,BUNNY,LB,old,m,./images/BUNNYLB.png,,,,,,,,,,,,,,,,,,,,,,,,,,,,,,,,,,,
,,,,,,,,,,,,,,,,,5dd36d715e9119361a7459f8,43,2022-02-12_11h26.23.991,lexical_decision_task_DD_L5,2021.2.3,MacIntel,60.0024001,,,,,,,,,,,0.9922,1,,,,,,,,,,,,,,z,1,0.9922,,,,,,,,0.290481771,0.085681424,0,0,0,,0,99,99,100,1,DRIBS,HB,old,z,./images/DRIBSHB.png,,,,,,,,,,,,,,,,,,,,,,,,,,,,,,,,,,,
,,,,,,,,,,,,,,,,,5dd36d715e9119361a7459f8,43,2022-02-12_11h26.23.991,lexical_decision_task_DD_L5,2021.2.3,MacIntel,60.0024001,,,,,,,,,,,0.6286,1,,,,,,,,,,,,,,m,1,0.6286,,,,,,,,0.290481771,0.085681424,0,0,0,,0,100,100,20,1,GRANNY,C,old,m,./images/GRANNY.png,,,,,,,,,,,,,,,,,,,,,,,,,,,,,,,,,,,
,,,,,,,,,,,,,,,,,5dd36d715e9119361a7459f8,43,2022-02-12_11h26.23.991,lexical_decision_task_DD_L5,2021.2.3,MacIntel,60.0024001,,,,,,,,,,,0.9088,1,,,,,,,,,,,,,,z,1,0.9088,,,,,,,,0.290481771,0.085681424,0,0,0,,0,101,101,129,1,PRANS,C,old,z,./images/PRANS.png,,,,,,,,,,,,,,,,,,,,,,,,,,,,,,,,,,,
,,,,,,,,,,,,,,,,,5dd36d715e9119361a7459f8,43,2022-02-12_11h26.23.991,lexical_decision_task_DD_L5,2021.2.3,MacIntel,60.0024001,,,,,,,,,,,0.725,1,,,,,,,,,,,,,,m,1,0.725,,,,,,,,0.290481771,0.085681424,0,0,0,,0,102,102,35,1,LLAMA,C,old,m,./images/LLAMA.png,,,,,,,,,,,,,,,,,,,,,,,,,,,,,,,,,,,
,,,,,,,,,,,,,,,,,5dd36d715e9119361a7459f8,43,2022-02-12_11h26.23.991,lexical_decision_task_DD_L5,2021.2.3,MacIntel,60.0024001,,,,,,,,,,,0.6413,1,,,,,,,,,,,,,,m,1,0.6413,,,,,,,,0.290481771,0.085681424,0,0,0,,0,103,103,65,1,SPINE,C,old,m,./images/SPINE.png,,,,,,,,,,,,,,,,,,,,,,,,,,,,,,,,,,,
,,,,,,,,,,,,,,,,,5dd36d715e9119361a7459f8,43,2022-02-12_11h26.23.991,lexical_decision_task_DD_L5,2021.2.3,MacIntel,60.0024001,,,,,,,,,,,0.6601,1,,,,,,,,,,,,,,m,1,0.6601,,,,,,,,0.290481771,0.085681424,0,0,0,,0,104,104,41,1,STREAM,C,old,m,./images/STREAM.png,,,,,,,,,,,,,,,,,,,,,,,,,,,,,,,,,,,
,,,,,,,,,,,,,,,,,5dd36d715e9119361a7459f8,43,2022-02-12_11h26.23.991,lexical_decision_task_DD_L5,2021.2.3,MacIntel,60.0024001,,,,,,,,,,,0.5814,1,,,,,,,,,,,,,,z,1,0.5814,,,,,,,,0.290481771,0.085681424,0,0,0,,0,105,105,135,1,JOODY,C,old,z,./images/JOODY.png,,,,,,,,,,,,,,,,,,,,,,,,,,,,,,,,,,,
,,,,,,,,,,,,,,,,,5dd36d715e9119361a7459f8,43,2022-02-12_11h26.23.991,lexical_decision_task_DD_L5,2021.2.3,MacIntel,60.0024001,,,,,,,,,,,0.6961,1,,,,,,,,,,,,,,m,1,0.6961,,,,,,,,0.290481771,0.085681424,0,0,0,,0,106,106,37,1,TIGER,LB,old,m,./images/TIGERLB.png,,,,,,,,,,,,,,,,,,,,,,,,,,,,,,,,,,,
,,,,,,,,,,,,,,,,,5dd36d715e9119361a7459f8,43,2022-02-12_11h26.23.991,lexical_decision_task_DD_L5,2021.2.3,MacIntel,60.0024001,,,,,,,,,,,0.6421,1,,,,,,,,,,,,,,m,1,0.6421,,,,,,,,0.290481771,0.085681424,0,0,0,,0,107,107,58,1,CANOE,LB,old,m,./images/CANOELB.png,,,,,,,,,,,,,,,,,,,,,,,,,,,,,,,,,,,
,,,,,,,,,,,,,,,,,5dd36d715e9119361a7459f8,43,2022-02-12_11h26.23.991,lexical_decision_task_DD_L5,2021.2.3,MacIntel,60.0024001,,,,,,,,,,,0.594,1,,,,,,,,,,,,,,m,1,0.594,,,,,,,,0.290481771,0.085681424,0,0,0,,0,108,108,32,1,HOCKEY,C,old,m,./images/HOCKEY.png,,,,,,,,,,,,,,,,,,,,,,,,,,,,,,,,,,,
,,,,,,,,,,,,,,,,,5dd36d715e9119361a7459f8,43,2022-02-12_11h26.23.991,lexical_decision_task_DD_L5,2021.2.3,MacIntel,60.0024001,,,,,,,,,,,0.6651,1,,,,,,,,,,,,,,z,1,0.6651,,,,,,,,0.290481771,0.085681424,0,0,0,,0,109,109,146,1,MOOST,LB,old,z,./images/MOOSTLB.png,,,,,,,,,,,,,,,,,,,,,,,,,,,,,,,,,,,
,,,,,,,,,,,,,,,,,5dd36d715e9119361a7459f8,43,2022-02-12_11h26.23.991,lexical_decision_task_DD_L5,2021.2.3,MacIntel,60.0024001,,,,,,,,,,,0.6963,1,,,,,,,,,,,,,,m,1,0.6963,,,,,,,,0.290481771,0.085681424,0,0,0,,0,110,110,70,1,BANANA,LB,old,m,./images/BANANALB.png,,,,,,,,,,,,,,,,,,,,,,,,,,,,,,,,,,,
,,,,,,,,,,,,,,,,,5dd36d715e9119361a7459f8,43,2022-02-12_11h26.23.991,lexical_decision_task_DD_L5,2021.2.3,MacIntel,60.0024001,,,,,,,,,,,0.8595,1,,,,,,,,,,,,,,m,1,0.8595,,,,,,,,0.290481771,0.085681424,0,0,0,,0,111,111,52,1,DESERT,LB,old,m,./images/DESERTLB.png,,,,,,,,,,,,,,,,,,,,,,,,,,,,,,,,,,,
,,,,,,,,,,,,,,,,,5dd36d715e9119361a7459f8,43,2022-02-12_11h26.23.991,lexical_decision_task_DD_L5,2021.2.3,MacIntel,60.0024001,,,,,,,,,,,0.8248,1,,,,,,,,,,,,,,z,1,0.8248,,,,,,,,0.290481771,0.085681424,0,0,0,,0,112,112,85,1,CHULK,HB,old,z,./images/CHULKHB.png,,,,,,,,,,,,,,,,,,,,,,,,,,,,,,,,,,,
,,,,,,,,,,,,,,,,,5dd36d715e9119361a7459f8,43,2022-02-12_11h26.23.991,lexical_decision_task_DD_L5,2021.2.3,MacIntel,60.0024001,,,,,,,,,,,0.6073,1,,,,,,,,,,,,,,m,1,0.6073,,,,,,,,0.290481771,0.085681424,0,0,0,,0,113,113,74,1,JUMPER,C,old,m,./images/JUMPER.png,,,,,,,,,,,,,,,,,,,,,,,,,,,,,,,,,,,
,,,,,,,,,,,,,,,,,5dd36d715e9119361a7459f8,43,2022-02-12_11h26.23.991,lexical_decision_task_DD_L5,2021.2.3,MacIntel,60.0024001,,,,,,,,,,,0.7133,1,,,,,,,,,,,,,,m,1,0.7133,,,,,,,,0.290481771,0.085681424,0,0,0,,0,114,114,55,1,ALLEY,LB,old,m,./images/ALLEYLB.png,,,,,,,,,,,,,,,,,,,,,,,,,,,,,,,,,,,
,,,,,,,,,,,,,,,,,5dd36d715e9119361a7459f8,43,2022-02-12_11h26.23.991,lexical_decision_task_DD_L5,2021.2.3,MacIntel,60.0024001,,,,,,,,,,,0.6097,1,,,,,,,,,,,,,,m,1,0.6097,,,,,,,,0.290481771,0.085681424,0,0,0,,0,115,115,4,1,BOXER,LB,old,m,./images/BOXERLB.png,,,,,,,,,,,,,,,,,,,,,,,,,,,,,,,,,,,
,,,,,,,,,,,,,,,,,5dd36d715e9119361a7459f8,43,2022-02-12_11h26.23.991,lexical_decision_task_DD_L5,2021.2.3,MacIntel,60.0024001,,,,,,,,,,,0.6286,1,,,,,,,,,,,,,,z,1,0.6286,,,,,,,,0.290481771,0.085681424,0,0,0,,0,116,116,155,1,CANGY,LB,old,z,./images/CANGYLB.png,,,,,,,,,,,,,,,,,,,,,,,,,,,,,,,,,,,
,,,,,,,,,,,,,,,,,5dd36d715e9119361a7459f8,43,2022-02-12_11h26.23.991,lexical_decision_task_DD_L5,2021.2.3,MacIntel,60.0024001,,,,,,,,,,,0.6425,1,,,,,,,,,,,,,,m,1,0.6425,,,,,,,,0.290481771,0.085681424,0,0,0,,0,117,117,22,1,CLOWN,LB,old,m,./images/CLOWNLB.png,,,,,,,,,,,,,,,,,,,,,,,,,,,,,,,,,,,
,,,,,,,,,,,,,,,,,5dd36d715e9119361a7459f8,43,2022-02-12_11h26.23.991,lexical_decision_task_DD_L5,2021.2.3,MacIntel,60.0024001,,,,,,,,,,,0.8442,1,,,,,,,,,,,,,,m,1,0.8442,,,,,,,,0.290481771,0.085681424,0,0,0,,0,118,118,9,1,DIVER,HB,old,m,./images/DIVERHB.png,,,,,,,,,,,,,,,,,,,,,,,,,,,,,,,,,,,
,,,,,,,,,,,,,,,,,5dd36d715e9119361a7459f8,43,2022-02-12_11h26.23.991,lexical_decision_task_DD_L5,2021.2.3,MacIntel,60.0024001,,,,,,,,,,,0.6299,1,,,,,,,,,,,,,,m,1,0.6299,,,,,,,,0.290481771,0.085681424,0,0,0,,0,119,119,11,1,MEDAL,C,old,m,./images/MEDAL.png,,,,,,,,,,,,,,,,,,,,,,,,,,,,,,,,,,,
,,,,,,,,,,,,,,,,,5dd36d715e9119361a7459f8,43,2022-02-12_11h26.23.991,lexical_decision_task_DD_L5,2021.2.3,MacIntel,60.0024001,,,,,,,,,,,0.7316,1,,,,,,,,,,,,,,m,1,0.7316,,,,,,,,0.290481771,0.085681424,0,0,0,,0,120,120,51,1,SAUCE,HB,old,m,./images/SAUCEHB.png,,,,,,,,,,,,,,,,,,,,,,,,,,,,,,,,,,,
,,,,,,,,,,,,,,,,,5dd36d715e9119361a7459f8,43,2022-02-12_11h26.23.991,lexical_decision_task_DD_L5,2021.2.3,MacIntel,60.0024001,,,,,,,,,,,0.799,1,,,,,,,,,,,,,,z,1,0.799,,,,,,,,0.290481771,0.085681424,0,0,0,,0,121,121,112,1,MYING,HB,old,z,./images/MYINGHB.png,,,,,,,,,,,,,,,,,,,,,,,,,,,,,,,,,,,
,,,,,,,,,,,,,,,,,5dd36d715e9119361a7459f8,43,2022-02-12_11h26.23.991,lexical_decision_task_DD_L5,2021.2.3,MacIntel,60.0024001,,,,,,,,,,,0.6063,1,,,,,,,,,,,,,,m,1,0.6063,,,,,,,,0.290481771,0.085681424,0,0,0,,0,122,122,14,1,FENCE,C,old,m,./images/FENCE.png,,,,,,,,,,,,,,,,,,,,,,,,,,,,,,,,,,,
,,,,,,,,,,,,,,,,,5dd36d715e9119361a7459f8,43,2022-02-12_11h26.23.991,lexical_decision_task_DD_L5,2021.2.3,MacIntel,60.0024001,,,,,,,,,,,0.6404,1,,,,,,,,,,,,,,m,1,0.6404,,,,,,,,0.290481771,0.085681424,0,0,0,,0,123,123,62,1,MAMMAL,C,old,m,./images/MAMMAL.png,,,,,,,,,,,,,,,,,,,,,,,,,,,,,,,,,,,
,,,,,,,,,,,,,,,,,5dd36d715e9119361a7459f8,43,2022-02-12_11h26.23.991,lexical_decision_task_DD_L5,2021.2.3,MacIntel,60.0024001,,,,,,,,,,,0.7277,1,,,,,,,,,,,,,,z,1,0.7277,,,,,,,,0.290481771,0.085681424,0,0,0,,0,124,124,104,1,GITTY,LB,old,z,./images/GITTYLB.png,,,,,,,,,,,,,,,,,,,,,,,,,,,,,,,,,,,
,,,,,,,,,,,,,,,,,5dd36d715e9119361a7459f8,43,2022-02-12_11h26.23.991,lexical_decision_task_DD_L5,2021.2.3,MacIntel,60.0024001,,,,,,,,,,,0.6459,1,,,,,,,,,,,,,,z,1,0.6459,,,,,,,,0.290481771,0.085681424,0,0,0,space,0,125,125,132,1,SCIFF,C,old,z,./images/SCIFF.png,7.4725,,,,,,,,,,,,,,,,,,,,,,,,,,,,,,,,,,
,,,,,,,,,,,,,,,,,5dd36d715e9119361a7459f8,43,2022-02-12_11h26.23.991,lexical_decision_task_DD_L5,2021.2.3,MacIntel,60.0024001,,,,,,,,,,,0.6598,1,,,,,,,,,,,,,,m,1,0.6598,,,,,,,,0.290481771,0.085681424,0,0,0,,0,126,126,16,1,GRAPE,LB,old,m,./images/GRAPELB.png,,,,,,,,,,,,,,,,,,,,,,,,,,,,,,,,,,,
,,,,,,,,,,,,,,,,,5dd36d715e9119361a7459f8,43,2022-02-12_11h26.23.991,lexical_decision_task_DD_L5,2021.2.3,MacIntel,60.0024001,,,,,,,,,,,0.6418,1,,,,,,,,,,,,,,z,1,0.6418,,,,,,,,0.290481771,0.085681424,0,0,0,,0,127,127,102,1,DULLE,C,old,z,./images/DULLE.png,,,,,,,,,,,,,,,,,,,,,,,,,,,,,,,,,,,
,,,,,,,,,,,,,,,,,5dd36d715e9119361a7459f8,43,2022-02-12_11h26.23.991,lexical_decision_task_DD_L5,2021.2.3,MacIntel,60.0024001,,,,,,,,,,,0.612,1,,,,,,,,,,,,,,m,1,0.612,,,,,,,,0.290481771,0.085681424,0,0,0,,0,128,128,49,1,BISHOP,LB,old,m,./images/BISHOPLB.png,,,,,,,,,,,,,,,,,,,,,,,,,,,,,,,,,,,
,,,,,,,,,,,,,,,,,5dd36d715e9119361a7459f8,43,2022-02-12_11h26.23.991,lexical_decision_task_DD_L5,2021.2.3,MacIntel,60.0024001,,,,,,,,,,,0.8452,1,,,,,,,,,,,,,,m,1,0.8452,,,,,,,,0.290481771,0.085681424,0,0,0,,0,129,129,39,1,CANDY,HB,old,m,./images/CANDYHB.png,,,,,,,,,,,,,,,,,,,,,,,,,,,,,,,,,,,
,,,,,,,,,,,,,,,,,5dd36d715e9119361a7459f8,43,2022-02-12_11h26.23.991,lexical_decision_task_DD_L5,2021.2.3,MacIntel,60.0024001,,,,,,,,,,,0.675,1,,,,,,,,,,,,,,z,1,0.675,,,,,,,,0.290481771,0.085681424,0,0,0,,0,130,130,165,1,TROWN,C,old,z,./images/TROWN.png,,,,,,,,,,,,,,,,,,,,,,,,,,,,,,,,,,,
,,,,,,,,,,,,,,,,,5dd36d715e9119361a7459f8,43,2022-02-12_11h26.23.991,lexical_decision_task_DD_L5,2021.2.3,MacIntel,60.0024001,,,,,,,,,,,0.9433,1,,,,,,,,,,,,,,m,1,0.9433,,,,,,,,0.290481771,0.085681424,0,0,0,,0,131,131,45,1,MONKEY,HB,old,m,./images/MONKEYHB.png,,,,,,,,,,,,,,,,,,,,,,,,,,,,,,,,,,,
,,,,,,,,,,,,,,,,,5dd36d715e9119361a7459f8,43,2022-02-12_11h26.23.991,lexical_decision_task_DD_L5,2021.2.3,MacIntel,60.0024001,,,,,,,,,,,0.7168,1,,,,,,,,,,,,,,m,1,0.7168,,,,,,,,0.290481771,0.085681424,0,0,0,,0,132,132,21,1,DANCER,HB,old,m,./images/DANCERHB.png,,,,,,,,,,,,,,,,,,,,,,,,,,,,,,,,,,,
,,,,,,,,,,,,,,,,,5dd36d715e9119361a7459f8,43,2022-02-12_11h26.23.991,lexical_decision_task_DD_L5,2021.2.3,MacIntel,60.0024001,,,,,,,,,,,0.7319,1,,,,,,,,,,,,,,z,1,0.7319,,,,,,,,0.290481771,0.085681424,0,0,0,,0,133,133,106,1,CLUMS,HB,old,z,./images/CLUMSHB.png,,,,,,,,,,,,,,,,,,,,,,,,,,,,,,,,,,,
,,,,,,,,,,,,,,,,,5dd36d715e9119361a7459f8,43,2022-02-12_11h26.23.991,lexical_decision_task_DD_L5,2021.2.3,MacIntel,60.0024001,,,,,,,,,,,0.7771,1,,,,,,,,,,,,,,m,1,0.7771,,,,,,,,0.290481771,0.085681424,0,0,0,,0,134,134,17,1,PARADE,C,old,m,./images/PARADE.png,,,,,,,,,,,,,,,,,,,,,,,,,,,,,,,,,,,
,,,,,,,,,,,,,,,,,5dd36d715e9119361a7459f8,43,2022-02-12_11h26.23.991,lexical_decision_task_DD_L5,2021.2.3,MacIntel,60.0024001,,,,,,,,,,,0.6254,1,,,,,,,,,,,,,,z,1,0.6254,,,,,,,,0.290481771,0.085681424,0,0,0,,0,135,135,141,1,PLEET,C,old,z,./images/PLEET.png,,,,,,,,,,,,,,,,,,,,,,,,,,,,,,,,,,,
,,,,,,,,,,,,,,,,,5dd36d715e9119361a7459f8,43,2022-02-12_11h26.23.991,lexical_decision_task_DD_L5,2021.2.3,MacIntel,60.0024001,,,,,,,,,,,0.7095,1,,,,,,,,,,,,,,m,1,0.7095,,,,,,,,0.290481771,0.085681424,0,0,0,,0,136,136,7,1,WAGON,LB,old,m,./images/WAGONLB.png,,,,,,,,,,,,,,,,,,,,,,,,,,,,,,,,,,,
,,,,,,,,,,,,,,,,,5dd36d715e9119361a7459f8,43,2022-02-12_11h26.23.991,lexical_decision_task_DD_L5,2021.2.3,MacIntel,60.0024001,,,,,,,,,,,0.6487,1,,,,,,,,,,,,,,z,1,0.6487,,,,,,,,0.290481771,0.085681424,0,0,0,,0,137,137,167,1,ZONET,LB,old,z,./images/ZONETLB.png,,,,,,,,,,,,,,,,,,,,,,,,,,,,,,,,,,,
,,,,,,,,,,,,,,,,,5dd36d715e9119361a7459f8,43,2022-02-12_11h26.23.991,lexical_decision_task_DD_L5,2021.2.3,MacIntel,60.0024001,,,,,,,,,,,0.6922,1,,,,,,,,,,,,,,m,1,0.6922,,,,,,,,0.290481771,0.085681424,0,0,0,,0,138,138,29,1,PISTOL,C,old,m,./images/PISTOL.png,,,,,,,,,,,,,,,,,,,,,,,,,,,,,,,,,,,
,,,,,,,,,,,,,,,,,5dd36d715e9119361a7459f8,43,2022-02-12_11h26.23.991,lexical_decision_task_DD_L5,2021.2.3,MacIntel,60.0024001,,,,,,,,,,,0.6813,1,,,,,,,,,,,,,,z,1,0.6813,,,,,,,,0.290481771,0.085681424,0,0,0,,0,139,139,97,1,CHIDS,HB,old,z,./images/CHIDSHB.png,,,,,,,,,,,,,,,,,,,,,,,,,,,,,,,,,,,
,,,,,,,,,,,,,,,,,5dd36d715e9119361a7459f8,43,2022-02-12_11h26.23.991,lexical_decision_task_DD_L5,2021.2.3,MacIntel,60.0024001,,,,,,,,,,,0.5478,1,,,,,,,,,,,,,,z,1,0.5478,,,,,,,,0.290481771,0.085681424,0,0,0,,0,140,140,156,1,HIXES,C,old,z,./images/HIXES.png,,,,,,,,,,,,,,,,,,,,,,,,,,,,,,,,,,,
,,,,,,,,,,,,,,,,,5dd36d715e9119361a7459f8,43,2022-02-12_11h26.23.991,lexical_decision_task_DD_L5,2021.2.3,MacIntel,60.0024001,,,,,,,,,,,0.7256,1,,,,,,,,,,,,,,z,1,0.7256,,,,,,,,0.290481771,0.085681424,0,0,0,,0,141,141,151,1,TINKY,HB,old,z,./images/TINKYHB.png,,,,,,,,,,,,,,,,,,,,,,,,,,,,,,,,,,,
,,,,,,,,,,,,,,,,,5dd36d715e9119361a7459f8,43,2022-02-12_11h26.23.991,lexical_decision_task_DD_L5,2021.2.3,MacIntel,60.0024001,,,,,,,,,,,0.7458,1,,,,,,,,,,,,,,m,1,0.7458,,,,,,,,0.290481771,0.085681424,0,0,0,,0,142,142,79,1,RULER,LB,old,m,./images/RULERLB.png,,,,,,,,,,,,,,,,,,,,,,,,,,,,,,,,,,,
,,,,,,,,,,,,,,,,,5dd36d715e9119361a7459f8,43,2022-02-12_11h26.23.991,lexical_decision_task_DD_L5,2021.2.3,MacIntel,60.0024001,,,,,,,,,,,0.6302,1,,,,,,,,,,,,,,z,1,0.6302,,,,,,,,0.290481771,0.085681424,0,0,0,,0,143,143,152,1,FRAIN,LB,old,z,./images/FRAINLB.png,,,,,,,,,,,,,,,,,,,,,,,,,,,,,,,,,,,
,,,,,,,,,,,,,,,,,5dd36d715e9119361a7459f8,43,2022-02-12_11h26.23.991,lexical_decision_task_DD_L5,2021.2.3,MacIntel,60.0024001,,,,,,,,,,,0.6264,1,,,,,,,,,,,,,,z,1,0.6264,,,,,,,,0.290481771,0.085681424,0,0,0,,0,144,144,160,1,VEETS,HB,old,z,./images/VEETSHB.png,,,,,,,,,,,,,,,,,,,,,,,,,,,,,,,,,,,
,,,,,,,,,,,,,,,,,5dd36d715e9119361a7459f8,43,2022-02-12_11h26.23.991,lexical_decision_task_DD_L5,2021.2.3,MacIntel,60.0024001,,,,,,,,,,,0.5928,0,,,,,,,,,,,,,,m,0,0.5928,,,,,,,,0.290481771,0.085681424,0,0,0,,0,145,145,138,1,PLICE,C,old,z,./images/PLICE.png,,,,,,,,,,,,,,,,,,,,,,,,,,,,,,,,,,,
,,,,,,,,,,,,,,,,,5dd36d715e9119361a7459f8,43,2022-02-12_11h26.23.991,lexical_decision_task_DD_L5,2021.2.3,MacIntel,60.0024001,,,,,,,,,,,1.0273,1,,,,,,,,,,,,,,z,1,1.0273,,,,,,,,0.290481771,0.085681424,0,0,0,,0,146,146,109,1,BURGE,HB,old,z,./images/BURGEHB.png,,,,,,,,,,,,,,,,,,,,,,,,,,,,,,,,,,,
,,,,,,,,,,,,,,,,,5dd36d715e9119361a7459f8,43,2022-02-12_11h26.23.991,lexical_decision_task_DD_L5,2021.2.3,MacIntel,60.0024001,,,,,,,,,,,0.6253,1,,,,,,,,,,,,,,z,1,0.6253,,,,,,,,0.290481771,0.085681424,0,0,0,,0,147,147,123,1,SEDGE,C,old,z,./images/SEDGE.png,,,,,,,,,,,,,,,,,,,,,,,,,,,,,,,,,,,
,,,,,,,,,,,,,,,,,5dd36d715e9119361a7459f8,43,2022-02-12_11h26.23.991,lexical_decision_task_DD_L5,2021.2.3,MacIntel,60.0024001,,,,,,,,,,,0.5428,1,,,,,,,,,,,,,,z,1,0.5428,,,,,,,,0.290481771,0.085681424,0,0,0,,0,148,148,126,1,GUELS,C,old,z,./images/GUELS.png,,,,,,,,,,,,,,,,,,,,,,,,,,,,,,,,,,,
,,,,,,,,,,,,,,,,,5dd36d715e9119361a7459f8,43,2022-02-12_11h26.23.991,lexical_decision_task_DD_L5,2021.2.3,MacIntel,60.0024001,,,,,,,,,,,0.7749,1,,,,,,,,,,,,,,m,1,0.7749,,,,,,,,0.290481771,0.085681424,0,0,0,,0,149,149,34,1,RAZOR,LB,old,m,./images/RAZORLB.png,,,,,,,,,,,,,,,,,,,,,,,,,,,,,,,,,,,
,,,,,,,,,,,,,,,,,5dd36d715e9119361a7459f8,43,2022-02-12_11h26.23.991,lexical_decision_task_DD_L5,2021.2.3,MacIntel,60.0024001,,,,,,,,,,,0.608,1,,,,,,,,,,,,,,m,1,0.608,,,,,,,,0.290481771,0.085681424,0,0,0,,0,150,150,59,1,BRUSH,C,old,m,./images/BRUSH.png,,,,,,,,,,,,,,,,,,,,,,,,,,,,,,,,,,,
,,,,,,,,,,,,,,,,,5dd36d715e9119361a7459f8,43,2022-02-12_11h26.23.991,lexical_decision_task_DD_L5,2021.2.3,MacIntel,60.0024001,,,,,,,,,,,0.8622,1,,,,,,,,,,,,,,z,1,0.8622,,,,,,,,0.290481771,0.085681424,0,0,0,,0,151,151,142,1,PLASK,HB,old,z,./images/PLASKHB.png,,,,,,,,,,,,,,,,,,,,,,,,,,,,,,,,,,,
,,,,,,,,,,,,,,,,,5dd36d715e9119361a7459f8,43,2022-02-12_11h26.23.991,lexical_decision_task_DD_L5,2021.2.3,MacIntel,60.0024001,,,,,,,,,,,0.6167,1,,,,,,,,,,,,,,z,1,0.6167,,,,,,,,0.290481771,0.085681424,0,0,0,,0,152,152,158,1,EGECT,LB,old,z,./images/EGECTLB.png,,,,,,,,,,,,,,,,,,,,,,,,,,,,,,,,,,,
,,,,,,,,,,,,,,,,,5dd36d715e9119361a7459f8,43,2022-02-12_11h26.23.991,lexical_decision_task_DD_L5,2021.2.3,MacIntel,60.0024001,,,,,,,,,,,0.5915,1,,,,,,,,,,,,,,z,1,0.5915,,,,,,,,0.290481771,0.085681424,0,0,0,,0,153,153,162,1,LEICH,C,old,z,./images/LEICH.png,,,,,,,,,,,,,,,,,,,,,,,,,,,,,,,,,,,
,,,,,,,,,,,,,,,,,5dd36d715e9119361a7459f8,43,2022-02-12_11h26.23.991,lexical_decision_task_DD_L5,2021.2.3,MacIntel,60.0024001,,,,,,,,,,,0.5293,1,,,,,,,,,,,,,,z,1,0.5293,,,,,,,,0.290481771,0.085681424,0,0,0,,0,154,154,147,1,ZOLES,C,old,z,./images/ZOLES.png,,,,,,,,,,,,,,,,,,,,,,,,,,,,,,,,,,,
,,,,,,,,,,,,,,,,,5dd36d715e9119361a7459f8,43,2022-02-12_11h26.23.991,lexical_decision_task_DD_L5,2021.2.3,MacIntel,60.0024001,,,,,,,,,,,0.6238,1,,,,,,,,,,,,,,m,1,0.6238,,,,,,,,0.290481771,0.085681424,0,0,0,,0,155,155,44,1,BASKET,C,old,m,./images/BASKET.png,,,,,,,,,,,,,,,,,,,,,,,,,,,,,,,,,,,
,,,,,,,,,,,,,,,,,5dd36d715e9119361a7459f8,43,2022-02-12_11h26.23.991,lexical_decision_task_DD_L5,2021.2.3,MacIntel,60.0024001,,,,,,,,,,,0.5663,1,,,,,,,,,,,,,,z,1,0.5663,,,,,,,,0.290481771,0.085681424,0,0,0,,0,156,156,86,1,AIFED,LB,old,z,./images/AIFEDLB.png,,,,,,,,,,,,,,,,,,,,,,,,,,,,,,,,,,,
,,,,,,,,,,,,,,,,,5dd36d715e9119361a7459f8,43,2022-02-12_11h26.23.991,lexical_decision_task_DD_L5,2021.2.3,MacIntel,60.0024001,,,,,,,,,,,0.6481,1,,,,,,,,,,,,,,z,1,0.6481,,,,,,,,0.290481771,0.085681424,0,0,0,,0,157,157,122,1,BLOOT,LB,old,z,./images/BLOOTLB.png,,,,,,,,,,,,,,,,,,,,,,,,,,,,,,,,,,,
,,,,,,,,,,,,,,,,,5dd36d715e9119361a7459f8,43,2022-02-12_11h26.23.991,lexical_decision_task_DD_L5,2021.2.3,MacIntel,60.0024001,,,,,,,,,,,0.5935,1,,,,,,,,,,,,,,z,1,0.5935,,,,,,,,0.290481771,0.085681424,0,0,0,,0,158,158,98,1,BAMPS,LB,old,z,./images/BAMPSLB.png,,,,,,,,,,,,,,,,,,,,,,,,,,,,,,,,,,,
,,,,,,,,,,,,,,,,,5dd36d715e9119361a7459f8,43,2022-02-12_11h26.23.991,lexical_decision_task_DD_L5,2021.2.3,MacIntel,60.0024001,,,,,,,,,,,0.612,1,,,,,,,,,,,,,,z,1,0.612,,,,,,,,0.290481771,0.085681424,0,0,0,,0,159,159,150,1,NOOLS,C,old,z,./images/NOOLS.png,,,,,,,,,,,,,,,,,,,,,,,,,,,,,,,,,,,
,,,,,,,,,,,,,,,,,5dd36d715e9119361a7459f8,43,2022-02-12_11h26.23.991,lexical_decision_task_DD_L5,2021.2.3,MacIntel,60.0024001,,,,,,,,,,,0.5616,1,,,,,,,,,,,,,,z,1,0.5616,,,,,,,,0.290481771,0.085681424,0,0,0,,0,160,160,137,1,JOOST,LB,old,z,./images/JOOSTLB.png,,,,,,,,,,,,,,,,,,,,,,,,,,,,,,,,,,,
,,,,,,,,,,,,,,,,,5dd36d715e9119361a7459f8,43,2022-02-12_11h26.23.991,lexical_decision_task_DD_L5,2021.2.3,MacIntel,60.0024001,,,,,,,,,,,0.5635,1,,,,,,,,,,,,,,z,1,0.5635,,,,,,,,0.290481771,0.085681424,0,0,0,,0,161,161,153,1,CLUPS,C,old,z,./images/CLUPS.png,,,,,,,,,,,,,,,,,,,,,,,,,,,,,,,,,,,
,,,,,,,,,,,,,,,,,5dd36d715e9119361a7459f8,43,2022-02-12_11h26.23.991,lexical_decision_task_DD_L5,2021.2.3,MacIntel,60.0024001,,,,,,,,,,,0.7152,1,,,,,,,,,,,,,,m,1,0.7152,,,,,,,,0.290481771,0.085681424,0,0,0,,0,162,162,15,1,COLLAR,HB,old,m,./images/COLLARHB.png,,,,,,,,,,,,,,,,,,,,,,,,,,,,,,,,,,,
,,,,,,,,,,,,,,,,,5dd36d715e9119361a7459f8,43,2022-02-12_11h26.23.991,lexical_decision_task_DD_L5,2021.2.3,MacIntel,60.0024001,,,,,,,,,,,1.4483,1,,,,,,,,,,,,,,m,1,1.4483,,,,,,,,0.290481771,0.085681424,0,0,0,,0,163,163,36,1,BOILER,HB,old,m,./images/BOILERHB.png,,,,,,,,,,,,,,,,,,,,,,,,,,,,,,,,,,,
,,,,,,,,,,,,,,,,,5dd36d715e9119361a7459f8,43,2022-02-12_11h26.23.991,lexical_decision_task_DD_L5,2021.2.3,MacIntel,60.0024001,,,,,,,,,,,0.7607,1,,,,,,,,,,,,,,z,1,0.7607,,,,,,,,0.290481771,0.085681424,0,0,0,,0,164,164,131,1,NACES,LB,old,z,./images/NACESLB.png,,,,,,,,,,,,,,,,,,,,,,,,,,,,,,,,,,,
,,,,,,,,,,,,,,,,,5dd36d715e9119361a7459f8,43,2022-02-12_11h26.23.991,lexical_decision_task_DD_L5,2021.2.3,MacIntel,60.0024001,,,,,,,,,,,1.0291,1,,,,,,,,,,,,,,z,1,1.0291,,,,,,,,0.290481771,0.085681424,0,0,0,,0,165,165,130,1,CRILL,HB,old,z,./images/CRILLHB.png,,,,,,,,,,,,,,,,,,,,,,,,,,,,,,,,,,,
,,,,,,,,,,,,,,,,,5dd36d715e9119361a7459f8,43,2022-02-12_11h26.23.991,lexical_decision_task_DD_L5,2021.2.3,MacIntel,60.0024001,,,,,,,,,,,1.1953,1,,,,,,,,,,,,,,z,1,1.1953,,,,,,,,0.290481771,0.085681424,0,0,0,,0,166,166,157,1,INLER,HB,old,z,./images/INLERHB.png,,,,,,,,,,,,,,,,,,,,,,,,,,,,,,,,,,,
,,,,,,,,,,,,,,,,,5dd36d715e9119361a7459f8,43,2022-02-12_11h26.23.991,lexical_decision_task_DD_L5,2021.2.3,MacIntel,60.0024001,,,,,,,,,,,1.3799,1,,,,,,,,,,,,,,z,1,1.3799,,,,,,,,0.290481771,0.085681424,0,0,0,,0,167,167,125,1,MOOKY,LB,old,z,./images/MOOKYLB.png,,,,,,,,,,,,,,,,,,,,,,,,,,,,,,,,,,,
,,,,,,,,,,,,,,,,,5dd36d715e9119361a7459f8,43,2022-02-12_11h26.23.991,lexical_decision_task_DD_L5,2021.2.3,MacIntel,60.0024001,,,,,,,,,,,,,,,,,,,,,,,,,,,,,,,,,,,,,,,,,,,,,,,,How likely will it be that you will recognize the words presented clearly on a scale of 0 (not likely) to 100 (most likely)?,,,,,-0.003342014,-0.397764757,1,0,0,jol_adv,6,7.1712,0,0,0,0,1,,,,,,,,,,,,,,,,,,,,,
,,,,,,,,,,,,,,,,,5dd36d715e9119361a7459f8,43,2022-02-12_11h26.23.991,lexical_decision_task_DD_L5,2021.2.3,MacIntel,60.0024001,,,,,,,,,,,,,,,,,,,,,,,,,,,,,,,,,,,,,,,,,,,,,,,,How likely will it be that you will recognize the words presented slighly blurred on a scale of 0 (not likely) to 100 (most likely)?,,,,,,,,,,,5,4.7817,0,1,1,1,1,,,,,,,,,,,,,,,,,,,,,
,,,,,,,,,,,,,,,,,5dd36d715e9119361a7459f8,43,2022-02-12_11h26.23.991,lexical_decision_task_DD_L5,2021.2.3,MacIntel,60.0024001,,,,,,,,,,,,,,,,,,,,,,,,,,,,,,,,,,,,,,,,,,,,,,,,How likely will it be that you will recognize the words presented very blurred on a scale of 0 (not likely) to 100 (most likely)?,,,,,,,,,,,4,2.7469,0,2,2,2,1,,,,,,,,,,,,,,,,,,,,,
,,0.007855903,-0.381527778,1,0,0,,,,,,1,test,"In the next phase you will be presented with the words from the the first phase. Your job is to decide whether you remember seeing the word or not. If you remember seeing the word press ""old"" or type ""m"". If you do not remember seeing the word press ""new"" or type ""z"". Please press the space bar or click on continue to begin. ",,,5dd36d715e9119361a7459f8,43,2022-02-12_11h26.23.991,lexical_decision_task_DD_L5,2021.2.3,MacIntel,60.0024001,,,,,,,,,,,,,,,,,,,,,,,,,,,,,,,,,,,,,,,,,,,,,,,,,,,,,,,,,,,,,,,,,,instr_done_button,0,0,0,0,1,,,,,,,,,,,,,,,
space,5.3301,0.439483507,-0.353415799,0,0,0,,,,,,1,test,"In the next phase you will be presented with the words from the the first phase. Your job is to decide whether you remember seeing the word or not. If you remember seeing the word press ""old"" or type ""m"". If you do not remember seeing the word press ""new"" or type ""z"". Please press the space bar or click on continue to begin. ",,,5dd36d715e9119361a7459f8,43,2022-02-12_11h26.23.991,lexical_decision_task_DD_L5,2021.2.3,MacIntel,60.0024001,,,,,,,,,,,,,,,,,,,,,,,,,,,,,,,,,,,,,,,,,,,,,,,,,,,,,,,,,,,,,,,,,,,1,0,1,0,1,,,,,,,,,,,,,,,
,,0.100329861,-0.389613715,1,0,0,,,,,,1,test,"In the next phase you will be presented with the words from the the first phase. Your job is to decide whether you remember seeing the word or not. If you remember seeing the word press ""old"" or type ""m"". If you do not remember seeing the word press ""new"" or type ""z"". Please press the space bar or click on continue to begin. ",,,5dd36d715e9119361a7459f8,43,2022-02-12_11h26.23.991,lexical_decision_task_DD_L5,2021.2.3,MacIntel,60.0024001,,,,,,,,,,,,,,,,,,,,,,,,,,,,,,,,,,,,,,,,,,,,,,,,,,,,,,,,,,,,,,,,,,instr_done_button,2,0,2,0,1,,,,,,,,,,,,,,,
,,0.049696181,-0.390542535,1,0,0,,,,,,1,test,"In the next phase you will be presented with the words from the the first phase. Your job is to decide whether you remember seeing the word or not. If you remember seeing the word press ""old"" or type ""m"". If you do not remember seeing the word press ""new"" or type ""z"". Please press the space bar or click on continue to begin. ",,,5dd36d715e9119361a7459f8,43,2022-02-12_11h26.23.991,lexical_decision_task_DD_L5,2021.2.3,MacIntel,60.0024001,,,,,,,,,,,,,,,,,,,,,,,,,,,,,,,,,,,,,,,,,,,,,,,,,,,,,,,,,,,,,,,,,,instr_done_button,3,0,3,0,1,,,,,,,,,,,,,,,
space,2.3314,0.220429687,-0.140915799,0,0,0,,,,,,1,test,"In the next phase you will be presented with the words from the the first phase. Your job is to decide whether you remember seeing the word or not. If you remember seeing the word press ""old"" or type ""m"". If you do not remember seeing the word press ""new"" or type ""z"". Please press the space bar or click on continue to begin. ",,,5dd36d715e9119361a7459f8,43,2022-02-12_11h26.23.991,lexical_decision_task_DD_L5,2021.2.3,MacIntel,60.0024001,,,,,,,,,,,,,,,,,,,,,,,,,,,,,,,,,,,,,,,,,,,,,,,,,,,,,,,,,,,,,,,,,,,4,0,4,0,1,,,,,,,,,,,,,,,
,,,,,,,,,,,,,,,,,5dd36d715e9119361a7459f8,43,2022-02-12_11h26.23.991,lexical_decision_task_DD_L5,2021.2.3,MacIntel,60.0024001,,,,,,,,,,,1.5849,1,,,,,,,,,,,,,,,,,,,,,,,,0.220429687,-0.140915799,0,0,0,,,,,,,MOTOR,LB,z,y,./images/MOTORLB.png,,,,,,,,,,,,,,,,,,,,,z,1,1.5849,,,,,,,,0,0,0,97,1
,,,,,,,,,,,,,,,,,5dd36d715e9119361a7459f8,43,2022-02-12_11h26.23.991,lexical_decision_task_DD_L5,2021.2.3,MacIntel,60.0024001,,,,,,,,,,,0.7969,1,,,,,,,,,,,,,,,,,,,,,,,,0.220429687,-0.140915799,0,0,0,,,,,,,SQUARE,HB,z,y,./images/SQUAREHB.png,,,,,,,,,,,,,,,,,,,,,z,1,0.7969,,,,,,,,0,1,1,90,1
,,,,,,,,,,,,,,,,,5dd36d715e9119361a7459f8,43,2022-02-12_11h26.23.991,lexical_decision_task_DD_L5,2021.2.3,MacIntel,60.0024001,,,,,,,,,,,0.6739,1,,,,,,,,,,,,,,,,,,,,,,,,0.220429687,-0.140915799,0,0,0,,,,,,,CURRY,HB,m,y,./images/CURRYHB.png,,,,,,,,,,,,,,,,,,,,,m,1,0.6739,,,,,,,,0,2,2,60,1
,,,,,,,,,,,,,,,,,5dd36d715e9119361a7459f8,43,2022-02-12_11h26.23.991,lexical_decision_task_DD_L5,2021.2.3,MacIntel,60.0024001,,,,,,,,,,,1.0273,1,,,,,,,,,,,,,,,,,,,,,,,,0.220429687,-0.140915799,0,0,0,,,,,,,MOSQUE,LB,z,y,./images/MOSQUELB.png,,,,,,,,,,,,,,,,,,,,,z,1,1.0273,,,,,,,,0,3,3,127,1
,,,,,,,,,,,,,,,,,5dd36d715e9119361a7459f8,43,2022-02-12_11h26.23.991,lexical_decision_task_DD_L5,2021.2.3,MacIntel,60.0024001,,,,,,,,,,,1.0796,0,,,,,,,,,,,,,,,,,,,,,,,,0.220429687,-0.140915799,0,0,0,,,,,,,SMOKER,C,z,y,./images/SMOKER.png,,,,,,,,,,,,,,,,,,,,,m,0,1.0796,,,,,,,,0,4,4,110,1
,,,,,,,,,,,,,,,,,5dd36d715e9119361a7459f8,43,2022-02-12_11h26.23.991,lexical_decision_task_DD_L5,2021.2.3,MacIntel,60.0024001,,,,,,,,,,,0.819,1,,,,,,,,,,,,,,,,,,,,,,,,0.220429687,-0.140915799,0,0,0,,,,,,,POODLE,HB,z,y,./images/POODLEHB.png,,,,,,,,,,,,,,,,,,,,,z,1,0.819,,,,,,,,0,5,5,165,1
,,,,,,,,,,,,,,,,,5dd36d715e9119361a7459f8,43,2022-02-12_11h26.23.991,lexical_decision_task_DD_L5,2021.2.3,MacIntel,60.0024001,,,,,,,,,,,2.613,1,,,,,,,,,,,,,,,,,,,,,,,,0.220429687,-0.140915799,0,0,0,,,,,,,WEASEL,C,z,y,./images/WEASEL.png,,,,,,,,,,,,,,,,,,,,,z,1,2.613,,,,,,,,0,6,6,164,1
,,,,,,,,,,,,,,,,,5dd36d715e9119361a7459f8,43,2022-02-12_11h26.23.991,lexical_decision_task_DD_L5,2021.2.3,MacIntel,60.0024001,,,,,,,,,,,1.2653,0,,,,,,,,,,,,,,,,,,,,,,,,0.220429687,-0.140915799,0,0,0,,,,,,,MOOSE,HB,z,y,./images/MOOSEHB.png,,,,,,,,,,,,,,,,,,,,,m,0,1.2653,,,,,,,,0,7,7,141,1
,,,,,,,,,,,,,,,,,5dd36d715e9119361a7459f8,43,2022-02-12_11h26.23.991,lexical_decision_task_DD_L5,2021.2.3,MacIntel,60.0024001,,,,,,,,,,,1.7107,1,,,,,,,,,,,,,,,,,,,,,,,,0.220429687,-0.140915799,0,0,0,,,,,,,TULIP,C,z,y,./images/TULIP.png,,,,,,,,,,,,,,,,,,,,,z,1,1.7107,,,,,,,,0,8,8,92,1
,,,,,,,,,,,,,,,,,5dd36d715e9119361a7459f8,43,2022-02-12_11h26.23.991,lexical_decision_task_DD_L5,2021.2.3,MacIntel,60.0024001,,,,,,,,,,,1.0299,1,,,,,,,,,,,,,,,,,,,,,,,,0.220429687,-0.140915799,0,0,0,,,,,,,SPORT,HB,z,y,./images/SPORTHB.png,,,,,,,,,,,,,,,,,,,,,z,1,1.0299,,,,,,,,0,9,9,132,1
,,,,,,,,,,,,,,,,,5dd36d715e9119361a7459f8,43,2022-02-12_11h26.23.991,lexical_decision_task_DD_L5,2021.2.3,MacIntel,60.0024001,,,,,,,,,,,0.9313,1,,,,,,,,,,,,,,,,,,,,,,,,0.220429687,-0.140915799,0,0,0,,,,,,,JAGUAR,HB,z,y,./images/JAGUARHB.png,,,,,,,,,,,,,,,,,,,,,z,1,0.9313,,,,,,,,0,10,10,102,1
,,,,,,,,,,,,,,,,,5dd36d715e9119361a7459f8,43,2022-02-12_11h26.23.991,lexical_decision_task_DD_L5,2021.2.3,MacIntel,60.0024001,,,,,,,,,,,0.7121,1,,,,,,,,,,,,,,,,,,,,,,,,0.220429687,-0.140915799,0,0,0,,,,,,,SUNSET,LB,z,y,./images/SUNSETLB.png,,,,,,,,,,,,,,,,,,,,,z,1,0.7121,,,,,,,,0,11,11,166,1
,,,,,,,,,,,,,,,,,5dd36d715e9119361a7459f8,43,2022-02-12_11h26.23.991,lexical_decision_task_DD_L5,2021.2.3,MacIntel,60.0024001,,,,,,,,,,,0.8512,0,,,,,,,,,,,,,,,,,,,,,,,,0.220429687,-0.140915799,0,0,0,,,,,,,BANNER,LB,z,y,./images/BANNERLB.png,,,,,,,,,,,,,,,,,,,,,m,0,0.8512,,,,,,,,0,12,12,136,1
,,,,,,,,,,,,,,,,,5dd36d715e9119361a7459f8,43,2022-02-12_11h26.23.991,lexical_decision_task_DD_L5,2021.2.3,MacIntel,60.0024001,,,,,,,,,,,0.7153,1,,,,,,,,,,,,,,,,,,,,,,,,0.220429687,-0.140915799,0,0,0,,,,,,,STOVE,C,m,y,./images/STOVE.png,,,,,,,,,,,,,,,,,,,,,m,1,0.7153,,,,,,,,0,13,13,2,1
,,,,,,,,,,,,,,,,,5dd36d715e9119361a7459f8,43,2022-02-12_11h26.23.991,lexical_decision_task_DD_L5,2021.2.3,MacIntel,60.0024001,,,,,,,,,,,1.231,1,,,,,,,,,,,,,,,,,,,,,,,,0.220429687,-0.140915799,0,0,0,,,,,,,GREASE,HB,z,y,./images/GREASEHB.png,,,,,,,,,,,,,,,,,,,,,z,1,1.231,,,,,,,,0,14,14,99,1
,,,,,,,,,,,,,,,,,5dd36d715e9119361a7459f8,43,2022-02-12_11h26.23.991,lexical_decision_task_DD_L5,2021.2.3,MacIntel,60.0024001,,,,,,,,,,,0.9775,1,,,,,,,,,,,,,,,,,,,,,,,,0.220429687,-0.140915799,0,0,0,,,,,,,SNACK,LB,z,y,./images/SNACKLB.png,,,,,,,,,,,,,,,,,,,,,z,1,0.9775,,,,,,,,0,15,15,157,1
,,,,,,,,,,,,,,,,,5dd36d715e9119361a7459f8,43,2022-02-12_11h26.23.991,lexical_decision_task_DD_L5,2021.2.3,MacIntel,60.0024001,,,,,,,,,,,0.7273,1,,,,,,,,,,,,,,,,,,,,,,,,0.220429687,-0.140915799,0,0,0,,,,,,,POSTER,C,m,y,./images/POSTER.png,,,,,,,,,,,,,,,,,,,,,m,1,0.7273,,,,,,,,0,16,16,53,1
,,,,,,,,,,,,,,,,,5dd36d715e9119361a7459f8,43,2022-02-12_11h26.23.991,lexical_decision_task_DD_L5,2021.2.3,MacIntel,60.0024001,,,,,,,,,,,0.6664,1,,,,,,,,,,,,,,,,,,,,,,,,0.220429687,-0.140915799,0,0,0,,,,,,,GRAPE,LB,m,y,./images/GRAPELB.png,,,,,,,,,,,,,,,,,,,,,m,1,0.6664,,,,,,,,0,17,17,16,1
,,,,,,,,,,,,,,,,,5dd36d715e9119361a7459f8,43,2022-02-12_11h26.23.991,lexical_decision_task_DD_L5,2021.2.3,MacIntel,60.0024001,,,,,,,,,,,0.8623,1,,,,,,,,,,,,,,,,,,,,,,,,0.220429687,-0.140915799,0,0,0,,,,,,,ARTIST,LB,m,y,./images/ARTISTLB.png,,,,,,,,,,,,,,,,,,,,,m,1,0.8623,,,,,,,,0,18,18,61,1
,,,,,,,,,,,,,,,,,5dd36d715e9119361a7459f8,43,2022-02-12_11h26.23.991,lexical_decision_task_DD_L5,2021.2.3,MacIntel,60.0024001,,,,,,,,,,,0.7263,1,,,,,,,,,,,,,,,,,,,,,,,,0.220429687,-0.140915799,0,0,0,,,,,,,STATUE,HB,m,y,./images/STATUEHB.png,,,,,,,,,,,,,,,,,,,,,m,1,0.7263,,,,,,,,0,19,19,66,1
,,,,,,,,,,,,,,,,,5dd36d715e9119361a7459f8,43,2022-02-12_11h26.23.991,lexical_decision_task_DD_L5,2021.2.3,MacIntel,60.0024001,,,,,,,,,,,0.9947,1,,,,,,,,,,,,,,,,,,,,,,,,0.220429687,-0.140915799,0,0,0,,,,,,,PACKET,C,z,y,./images/PACKET.png,,,,,,,,,,,,,,,,,,,,,z,1,0.9947,,,,,,,,0,20,20,140,1
,,,,,,,,,,,,,,,,,5dd36d715e9119361a7459f8,43,2022-02-12_11h26.23.991,lexical_decision_task_DD_L5,2021.2.3,MacIntel,60.0024001,,,,,,,,,,,0.991,0,,,,,,,,,,,,,,,,,,,,,,,,0.220429687,-0.140915799,0,0,0,,,,,,,SCREW,HB,z,y,./images/SCREWHB.png,,,,,,,,,,,,,,,,,,,,,m,0,0.991,,,,,,,,0,21,21,108,1
,,,,,,,,,,,,,,,,,5dd36d715e9119361a7459f8,43,2022-02-12_11h26.23.991,lexical_decision_task_DD_L5,2021.2.3,MacIntel,60.0024001,,,,,,,,,,,0.7776,1,,,,,,,,,,,,,,,,,,,,,,,,0.220429687,-0.140915799,0,0,0,,,,,,,FERRY,HB,m,y,./images/FERRYHB.png,,,,,,,,,,,,,,,,,,,,,m,1,0.7776,,,,,,,,0,22,22,57,1
,,,,,,,,,,,,,,,,,5dd36d715e9119361a7459f8,43,2022-02-12_11h26.23.991,lexical_decision_task_DD_L5,2021.2.3,MacIntel,60.0024001,,,,,,,,,,,1.047,1,,,,,,,,,,,,,,,,,,,,,,,,0.220429687,-0.140915799,0,0,0,,,,,,,CASINO,LB,m,y,./images/CASINOLB.png,,,,,,,,,,,,,,,,,,,,,m,1,1.047,,,,,,,,0,23,23,28,1
,,,,,,,,,,,,,,,,,5dd36d715e9119361a7459f8,43,2022-02-12_11h26.23.991,lexical_decision_task_DD_L5,2021.2.3,MacIntel,60.0024001,,,,,,,,,,,1.1102,1,,,,,,,,,,,,,,,,,,,,,,,,0.220429687,-0.140915799,0,0,0,,,,,,,CLIFF,C,m,y,./images/CLIFF.png,,,,,,,,,,,,,,,,,,,,,m,1,1.1102,,,,,,,,0,24,24,8,1
,,,,,,,,,,,,,,,,,5dd36d715e9119361a7459f8,43,2022-02-12_11h26.23.991,lexical_decision_task_DD_L5,2021.2.3,MacIntel,60.0024001,,,,,,,,,,,1.7298,1,,,,,,,,,,,,,,,,,,,,,,,,0.220429687,-0.140915799,0,0,0,,,,,,,MELON,LB,z,y,./images/MELONLB.png,,,,,,,,,,,,,,,,,,,,,z,1,1.7298,,,,,,,,0,25,25,106,1
,,,,,,,,,,,,,,,,,5dd36d715e9119361a7459f8,43,2022-02-12_11h26.23.991,lexical_decision_task_DD_L5,2021.2.3,MacIntel,60.0024001,,,,,,,,,,,0.7497,1,,,,,,,,,,,,,,,,,,,,,,,,0.220429687,-0.140915799,0,0,0,,,,,,,DRILL,HB,m,y,./images/DRILLHB.png,,,,,,,,,,,,,,,,,,,,,m,1,0.7497,,,,,,,,0,26,26,81,1
,,,,,,,,,,,,,,,,,5dd36d715e9119361a7459f8,43,2022-02-12_11h26.23.991,lexical_decision_task_DD_L5,2021.2.3,MacIntel,60.0024001,,,,,,,,,,,0.7135,1,,,,,,,,,,,,,,,,,,,,,,,,0.220429687,-0.140915799,0,0,0,,,,,,,ONION,HB,z,y,./images/ONIONHB.png,,,,,,,,,,,,,,,,,,,,,z,1,0.7135,,,,,,,,0,27,27,135,1
,,,,,,,,,,,,,,,,,5dd36d715e9119361a7459f8,43,2022-02-12_11h26.23.991,lexical_decision_task_DD_L5,2021.2.3,MacIntel,60.0024001,,,,,,,,,,,0.816,0,,,,,,,,,,,,,,,,,,,,,,,,0.220429687,-0.140915799,0,0,0,,,,,,,SHELF,HB,z,y,./images/SHELFHB.png,,,,,,,,,,,,,,,,,,,,,m,0,0.816,,,,,,,,0,28,28,123,1
,,,,,,,,,,,,,,,,,5dd36d715e9119361a7459f8,43,2022-02-12_11h26.23.991,lexical_decision_task_DD_L5,2021.2.3,MacIntel,60.0024001,,,,,,,,,,,0.9435,1,,,,,,,,,,,,,,,,,,,,,,,,0.220429687,-0.140915799,0,0,0,,,,,,,URINE,LB,z,y,./images/URINELB.png,,,,,,,,,,,,,,,,,,,,,z,1,0.9435,,,,,,,,0,29,29,154,1
,,,,,,,,,,,,,,,,,5dd36d715e9119361a7459f8,43,2022-02-12_11h26.23.991,lexical_decision_task_DD_L5,2021.2.3,MacIntel,60.0024001,,,,,,,,,,,1.0587,1,,,,,,,,,,,,,,,,,,,,,,,,0.220429687,-0.140915799,0,0,0,,,,,,,CANDLE,LB,z,y,./images/CANDLELB.png,,,,,,,,,,,,,,,,,,,,,z,1,1.0587,,,,,,,,0,30,30,145,1
,,,,,,,,,,,,,,,,,5dd36d715e9119361a7459f8,43,2022-02-12_11h26.23.991,lexical_decision_task_DD_L5,2021.2.3,MacIntel,60.0024001,,,,,,,,,,,2.0659,0,,,,,,,,,,,,,,,,,,,,,,,,0.220429687,-0.140915799,0,0,0,,,,,,,PENCE,LB,z,y,./images/PENCELB.png,,,,,,,,,,,,,,,,,,,,,m,0,2.0659,,,,,,,,0,31,31,100,1
,,,,,,,,,,,,,,,,,5dd36d715e9119361a7459f8,43,2022-02-12_11h26.23.991,lexical_decision_task_DD_L5,2021.2.3,MacIntel,60.0024001,,,,,,,,,,,0.744,1,,,,,,,,,,,,,,,,,,,,,,,,0.220429687,-0.140915799,0,0,0,,,,,,,ENGINE,C,m,y,./images/ENGINE.png,,,,,,,,,,,,,,,,,,,,,m,1,0.744,,,,,,,,0,32,32,38,1
,,,,,,,,,,,,,,,,,5dd36d715e9119361a7459f8,43,2022-02-12_11h26.23.991,lexical_decision_task_DD_L5,2021.2.3,MacIntel,60.0024001,,,,,,,,,,,0.8017,1,,,,,,,,,,,,,,,,,,,,,,,,0.220429687,-0.140915799,0,0,0,,,,,,,WRIST,LB,z,y,./images/WRISTLB.png,,,,,,,,,,,,,,,,,,,,,z,1,0.8017,,,,,,,,0,33,33,109,1
,,,,,,,,,,,,,,,,,5dd36d715e9119361a7459f8,43,2022-02-12_11h26.23.991,lexical_decision_task_DD_L5,2021.2.3,MacIntel,60.0024001,,,,,,,,,,,2.2624,1,,,,,,,,,,,,,,,,,,,,,,,,0.220429687,-0.140915799,0,0,0,,,,,,,STOOL,LB,m,y,./images/STOOLLB.png,,,,,,,,,,,,,,,,,,,,,m,1,2.2624,,,,,,,,0,34,34,43,1
,,,,,,,,,,,,,,,,,5dd36d715e9119361a7459f8,43,2022-02-12_11h26.23.991,lexical_decision_task_DD_L5,2021.2.3,MacIntel,60.0024001,,,,,,,,,,,0.0147,0,,,,,,,,,,,,,,,,,,,,,,,,0.220429687,-0.140915799,0,0,0,,,,,,,SKIING,C,z,y,./images/SKIING.png,,,,,,,,,,,,,,,,,,,,,m,0,0.0147,,,,,,,,0,35,35,101,1
,,,,,,,,,,,,,,,,,5dd36d715e9119361a7459f8,43,2022-02-12_11h26.23.991,lexical_decision_task_DD_L5,2021.2.3,MacIntel,60.0024001,,,,,,,,,,,0.8086,1,,,,,,,,,,,,,,,,,,,,,,,,0.220429687,-0.140915799,0,0,0,,,,,,,CRATER,HB,m,y,./images/CRATERHB.png,,,,,,,,,,,,,,,,,,,,,m,1,0.8086,,,,,,,,0,36,36,3,1
,,,,,,,,,,,,,,,,,5dd36d715e9119361a7459f8,43,2022-02-12_11h26.23.991,lexical_decision_task_DD_L5,2021.2.3,MacIntel,60.0024001,,,,,,,,,,,2.1939,0,,,,,,,,,,,,,,,,,,,,,,,,0.220429687,-0.140915799,0,0,0,,,,,,,SWING,LB,z,y,./images/SWINGLB.png,,,,,,,,,,,,,,,,,,,,,m,0,2.1939,,,,,,,,0,37,37,124,1
,,,,,,,,,,,,,,,,,5dd36d715e9119361a7459f8,43,2022-02-12_11h26.23.991,lexical_decision_task_DD_L5,2021.2.3,MacIntel,60.0024001,,,,,,,,,,,0.7163,1,,,,,,,,,,,,,,,,,,,,,,,,0.220429687,-0.140915799,0,0,0,,,,,,,BAMBOO,C,m,y,./images/BAMBOO.png,,,,,,,,,,,,,,,,,,,,,m,1,0.7163,,,,,,,,0,38,38,5,1
,,,,,,,,,,,,,,,,,5dd36d715e9119361a7459f8,43,2022-02-12_11h26.23.991,lexical_decision_task_DD_L5,2021.2.3,MacIntel,60.0024001,,,,,,,,,,,1.2314,1,,,,,,,,,,,,,,,,,,,,,,,,0.220429687,-0.140915799,0,0,0,,,,,,,JELLY,LB,z,y,./images/JELLYLB.png,,,,,,,,,,,,,,,,,,,,,z,1,1.2314,,,,,,,,0,39,39,148,1
,,,,,,,,,,,,,,,,,5dd36d715e9119361a7459f8,43,2022-02-12_11h26.23.991,lexical_decision_task_DD_L5,2021.2.3,MacIntel,60.0024001,,,,,,,,,,,0.7914,1,,,,,,,,,,,,,,,,,,,,,,,,0.220429687,-0.140915799,0,0,0,,,,,,,STRING,C,z,y,./images/STRING.png,,,,,,,,,,,,,,,,,,,,,z,1,0.7914,,,,,,,,0,40,40,125,1
,,,,,,,,,,,,,,,,,5dd36d715e9119361a7459f8,43,2022-02-12_11h26.23.991,lexical_decision_task_DD_L5,2021.2.3,MacIntel,60.0024001,,,,,,,,,,,0.8957,0,,,,,,,,,,,,,,,,,,,,,,,,0.220429687,-0.140915799,0,0,0,space,,,,,,MIRROR,HB,z,y,./images/MIRRORHB.png,5.182,,,,,,,,,,,,,,,,,,,,m,0,0.8957,,,,,,,,0,41,41,147,1
,,,,,,,,,,,,,,,,,5dd36d715e9119361a7459f8,43,2022-02-12_11h26.23.991,lexical_decision_task_DD_L5,2021.2.3,MacIntel,60.0024001,,,,,,,,,,,1.0763,1,,,,,,,,,,,,,,,,,,,,,,,,0.220429687,-0.140915799,0,0,0,,,,,,,DRUMS,LB,z,y,./images/DRUMSLB.png,,,,,,,,,,,,,,,,,,,,,z,1,1.0763,,,,,,,,0,42,42,133,1
,,,,,,,,,,,,,,,,,5dd36d715e9119361a7459f8,43,2022-02-12_11h26.23.991,lexical_decision_task_DD_L5,2021.2.3,MacIntel,60.0024001,,,,,,,,,,,0.7441,1,,,,,,,,,,,,,,,,,,,,,,,,0.220429687,-0.140915799,0,0,0,,,,,,,LITTER,HB,z,y,./images/LITTERHB.png,,,,,,,,,,,,,,,,,,,,,z,1,0.7441,,,,,,,,0,43,43,162,1
,,,,,,,,,,,,,,,,,5dd36d715e9119361a7459f8,43,2022-02-12_11h26.23.991,lexical_decision_task_DD_L5,2021.2.3,MacIntel,60.0024001,,,,,,,,,,,1.1454,1,,,,,,,,,,,,,,,,,,,,,,,,0.220429687,-0.140915799,0,0,0,,,,,,,TWINS,HB,z,y,./images/TWINSHB.png,,,,,,,,,,,,,,,,,,,,,z,1,1.1454,,,,,,,,0,44,44,144,1
,,,,,,,,,,,,,,,,,5dd36d715e9119361a7459f8,43,2022-02-12_11h26.23.991,lexical_decision_task_DD_L5,2021.2.3,MacIntel,60.0024001,,,,,,,,,,,0.9789,1,,,,,,,,,,,,,,,,,,,,,,,,0.220429687,-0.140915799,0,0,0,,,,,,,PEACH,C,z,y,./images/PEACH.png,,,,,,,,,,,,,,,,,,,,,z,1,0.9789,,,,,,,,0,45,45,119,1
,,,,,,,,,,,,,,,,,5dd36d715e9119361a7459f8,43,2022-02-12_11h26.23.991,lexical_decision_task_DD_L5,2021.2.3,MacIntel,60.0024001,,,,,,,,,,,2.2629,0,,,,,,,,,,,,,,,,,,,,,,,,0.220429687,-0.140915799,0,0,0,,,,,,,GRAIN,HB,z,y,./images/GRAINHB.png,,,,,,,,,,,,,,,,,,,,,m,0,2.2629,,,,,,,,0,46,46,159,1
,,,,,,,,,,,,,,,,,5dd36d715e9119361a7459f8,43,2022-02-12_11h26.23.991,lexical_decision_task_DD_L5,2021.2.3,MacIntel,60.0024001,,,,,,,,,,,0.6983,1,,,,,,,,,,,,,,,,,,,,,,,,0.220429687,-0.140915799,0,0,0,,,,,,,BLOKE,HB,m,y,./images/BLOKEHB.png,,,,,,,,,,,,,,,,,,,,,m,1,0.6983,,,,,,,,0,47,47,12,1
,,,,,,,,,,,,,,,,,5dd36d715e9119361a7459f8,43,2022-02-12_11h26.23.991,lexical_decision_task_DD_L5,2021.2.3,MacIntel,60.0024001,,,,,,,,,,,0.9433,1,,,,,,,,,,,,,,,,,,,,,,,,0.220429687,-0.140915799,0,0,0,,,,,,,CLOTH,C,m,y,./images/CLOTH.png,,,,,,,,,,,,,,,,,,,,,m,1,0.9433,,,,,,,,0,48,48,23,1
,,,,,,,,,,,,,,,,,5dd36d715e9119361a7459f8,43,2022-02-12_11h26.23.991,lexical_decision_task_DD_L5,2021.2.3,MacIntel,60.0024001,,,,,,,,,,,1.1277,1,,,,,,,,,,,,,,,,,,,,,,,,0.220429687,-0.140915799,0,0,0,,,,,,,KIDNEY,HB,z,y,./images/KIDNEYHB.png,,,,,,,,,,,,,,,,,,,,,z,1,1.1277,,,,,,,,0,49,49,105,1
,,,,,,,,,,,,,,,,,5dd36d715e9119361a7459f8,43,2022-02-12_11h26.23.991,lexical_decision_task_DD_L5,2021.2.3,MacIntel,60.0024001,,,,,,,,,,,0.7499,1,,,,,,,,,,,,,,,,,,,,,,,,0.220429687,-0.140915799,0,0,0,,,,,,,ARROW,HB,m,y,./images/ARROWHB.png,,,,,,,,,,,,,,,,,,,,,m,1,0.7499,,,,,,,,0,50,50,69,1
,,,,,,,,,,,,,,,,,5dd36d715e9119361a7459f8,43,2022-02-12_11h26.23.991,lexical_decision_task_DD_L5,2021.2.3,MacIntel,60.0024001,,,,,,,,,,,0.7828,1,,,,,,,,,,,,,,,,,,,,,,,,0.220429687,-0.140915799,0,0,0,,,,,,,GLOVE,LB,m,y,./images/GLOVELB.png,,,,,,,,,,,,,,,,,,,,,m,1,0.7828,,,,,,,,0,51,51,73,1
,,,,,,,,,,,,,,,,,5dd36d715e9119361a7459f8,43,2022-02-12_11h26.23.991,lexical_decision_task_DD_L5,2021.2.3,MacIntel,60.0024001,,,,,,,,,,,0.785,1,,,,,,,,,,,,,,,,,,,,,,,,0.220429687,-0.140915799,0,0,0,,,,,,,CHERRY,HB,m,y,./images/CHERRYHB.png,,,,,,,,,,,,,,,,,,,,,m,1,0.785,,,,,,,,0,52,52,54,1
,,,,,,,,,,,,,,,,,5dd36d715e9119361a7459f8,43,2022-02-12_11h26.23.991,lexical_decision_task_DD_L5,2021.2.3,MacIntel,60.0024001,,,,,,,,,,,1.1948,0,,,,,,,,,,,,,,,,,,,,,,,,0.220429687,-0.140915799,0,0,0,,,,,,,TRIPOD,HB,z,y,./images/TRIPODHB.png,,,,,,,,,,,,,,,,,,,,,m,0,1.1948,,,,,,,,0,53,53,138,1
,,,,,,,,,,,,,,,,,5dd36d715e9119361a7459f8,43,2022-02-12_11h26.23.991,lexical_decision_task_DD_L5,2021.2.3,MacIntel,60.0024001,,,,,,,,,,,1.2998,1,,,,,,,,,,,,,,,,,,,,,,,,0.220429687,-0.140915799,0,0,0,,,,,,,BUBBLE,C,m,y,./images/BUBBLE.png,,,,,,,,,,,,,,,,,,,,,m,1,1.2998,,,,,,,,0,54,54,71,1
,,,,,,,,,,,,,,,,,5dd36d715e9119361a7459f8,43,2022-02-12_11h26.23.991,lexical_decision_task_DD_L5,2021.2.3,MacIntel,60.0024001,,,,,,,,,,,0.7458,1,,,,,,,,,,,,,,,,,,,,,,,,0.220429687,-0.140915799,0,0,0,,,,,,,BISHOP,LB,m,y,./images/BISHOPLB.png,,,,,,,,,,,,,,,,,,,,,m,1,0.7458,,,,,,,,0,55,55,49,1
,,,,,,,,,,,,,,,,,5dd36d715e9119361a7459f8,43,2022-02-12_11h26.23.991,lexical_decision_task_DD_L5,2021.2.3,MacIntel,60.0024001,,,,,,,,,,,0.9136,1,,,,,,,,,,,,,,,,,,,,,,,,0.220429687,-0.140915799,0,0,0,,,,,,,TORCH,C,z,y,./images/TORCH.png,,,,,,,,,,,,,,,,,,,,,z,1,0.9136,,,,,,,,0,56,56,152,1
,,,,,,,,,,,,,,,,,5dd36d715e9119361a7459f8,43,2022-02-12_11h26.23.991,lexical_decision_task_DD_L5,2021.2.3,MacIntel,60.0024001,,,,,,,,,,,1.0354,1,,,,,,,,,,,,,,,,,,,,,,,,0.220429687,-0.140915799,0,0,0,,,,,,,PICKLE,C,z,y,./images/PICKLE.png,,,,,,,,,,,,,,,,,,,,,z,1,1.0354,,,,,,,,0,57,57,98,1
,,,,,,,,,,,,,,,,,5dd36d715e9119361a7459f8,43,2022-02-12_11h26.23.991,lexical_decision_task_DD_L5,2021.2.3,MacIntel,60.0024001,,,,,,,,,,,1.1984,1,,,,,,,,,,,,,,,,,,,,,,,,0.220429687,-0.140915799,0,0,0,,,,,,,CEMENT,C,z,y,./images/CEMENT.png,,,,,,,,,,,,,,,,,,,,,z,1,1.1984,,,,,,,,0,58,58,158,1
,,,,,,,,,,,,,,,,,5dd36d715e9119361a7459f8,43,2022-02-12_11h26.23.991,lexical_decision_task_DD_L5,2021.2.3,MacIntel,60.0024001,,,,,,,,,,,0.9288,1,,,,,,,,,,,,,,,,,,,,,,,,0.220429687,-0.140915799,0,0,0,,,,,,,CRADLE,C,z,y,./images/CRADLE.png,,,,,,,,,,,,,,,,,,,,,z,1,0.9288,,,,,,,,0,59,59,104,1
,,,,,,,,,,,,,,,,,5dd36d715e9119361a7459f8,43,2022-02-12_11h26.23.991,lexical_decision_task_DD_L5,2021.2.3,MacIntel,60.0024001,,,,,,,,,,,1.7656,1,,,,,,,,,,,,,,,,,,,,,,,,0.220429687,-0.140915799,0,0,0,,,,,,,COLLAR,HB,m,y,./images/COLLARHB.png,,,,,,,,,,,,,,,,,,,,,m,1,1.7656,,,,,,,,0,60,60,15,1
,,,,,,,,,,,,,,,,,5dd36d715e9119361a7459f8,43,2022-02-12_11h26.23.991,lexical_decision_task_DD_L5,2021.2.3,MacIntel,60.0024001,,,,,,,,,,,1.7804,1,,,,,,,,,,,,,,,,,,,,,,,,0.220429687,-0.140915799,0,0,0,,,,,,,CRUST,LB,z,y,./images/CRUSTLB.png,,,,,,,,,,,,,,,,,,,,,z,1,1.7804,,,,,,,,0,61,61,163,1
,,,,,,,,,,,,,,,,,5dd36d715e9119361a7459f8,43,2022-02-12_11h26.23.991,lexical_decision_task_DD_L5,2021.2.3,MacIntel,60.0024001,,,,,,,,,,,0.7116,1,,,,,,,,,,,,,,,,,,,,,,,,0.220429687,-0.140915799,0,0,0,,,,,,,JUMPER,C,m,y,./images/JUMPER.png,,,,,,,,,,,,,,,,,,,,,m,1,0.7116,,,,,,,,0,62,62,74,1
,,,,,,,,,,,,,,,,,5dd36d715e9119361a7459f8,43,2022-02-12_11h26.23.991,lexical_decision_task_DD_L5,2021.2.3,MacIntel,60.0024001,,,,,,,,,,,0.9107,1,,,,,,,,,,,,,,,,,,,,,,,,0.220429687,-0.140915799,0,0,0,,,,,,,THROAT,HB,z,y,./images/THROATHB.png,,,,,,,,,,,,,,,,,,,,,z,1,0.9107,,,,,,,,0,63,63,120,1
,,,,,,,,,,,,,,,,,5dd36d715e9119361a7459f8,43,2022-02-12_11h26.23.991,lexical_decision_task_DD_L5,2021.2.3,MacIntel,60.0024001,,,,,,,,,,,1.1787,0,,,,,,,,,,,,,,,,,,,,,,,,0.220429687,-0.140915799,0,0,0,,,,,,,GARDEN,LB,m,y,./images/GARDENLB.png,,,,,,,,,,,,,,,,,,,,,z,0,1.1787,,,,,,,,0,64,64,10,1
,,,,,,,,,,,,,,,,,5dd36d715e9119361a7459f8,43,2022-02-12_11h26.23.991,lexical_decision_task_DD_L5,2021.2.3,MacIntel,60.0024001,,,,,,,,,,,0.752,1,,,,,,,,,,,,,,,,,,,,,,,,0.220429687,-0.140915799,0,0,0,,,,,,,DOUGH,LB,z,y,./images/DOUGHLB.png,,,,,,,,,,,,,,,,,,,,,z,1,0.752,,,,,,,,0,65,65,103,1
,,,,,,,,,,,,,,,,,5dd36d715e9119361a7459f8,43,2022-02-12_11h26.23.991,lexical_decision_task_DD_L5,2021.2.3,MacIntel,60.0024001,,,,,,,,,,,0.7945,1,,,,,,,,,,,,,,,,,,,,,,,,0.220429687,-0.140915799,0,0,0,,,,,,,SPINE,C,m,y,./images/SPINE.png,,,,,,,,,,,,,,,,,,,,,m,1,0.7945,,,,,,,,0,66,66,65,1
,,,,,,,,,,,,,,,,,5dd36d715e9119361a7459f8,43,2022-02-12_11h26.23.991,lexical_decision_task_DD_L5,2021.2.3,MacIntel,60.0024001,,,,,,,,,,,0.8172,1,,,,,,,,,,,,,,,,,,,,,,,,0.220429687,-0.140915799,0,0,0,,,,,,,SAUNA,HB,m,y,./images/SAUNAHB.png,,,,,,,,,,,,,,,,,,,,,m,1,0.8172,,,,,,,,0,67,67,33,1
,,,,,,,,,,,,,,,,,5dd36d715e9119361a7459f8,43,2022-02-12_11h26.23.991,lexical_decision_task_DD_L5,2021.2.3,MacIntel,60.0024001,,,,,,,,,,,0.8982,0,,,,,,,,,,,,,,,,,,,,,,,,0.220429687,-0.140915799,0,0,0,,,,,,,SAILOR,LB,z,y,./images/SAILORLB.png,,,,,,,,,,,,,,,,,,,,,m,0,0.8982,,,,,,,,0,68,68,151,1
,,,,,,,,,,,,,,,,,5dd36d715e9119361a7459f8,43,2022-02-12_11h26.23.991,lexical_decision_task_DD_L5,2021.2.3,MacIntel,60.0024001,,,,,,,,,,,0.8468,0,,,,,,,,,,,,,,,,,,,,,,,,0.220429687,-0.140915799,0,0,0,,,,,,,BONNET,C,z,y,./images/BONNET.png,,,,,,,,,,,,,,,,,,,,,m,0,0.8468,,,,,,,,0,69,69,95,1
,,,,,,,,,,,,,,,,,5dd36d715e9119361a7459f8,43,2022-02-12_11h26.23.991,lexical_decision_task_DD_L5,2021.2.3,MacIntel,60.0024001,,,,,,,,,,,0.7646,1,,,,,,,,,,,,,,,,,,,,,,,,0.220429687,-0.140915799,0,0,0,,,,,,,MAMMAL,C,m,y,./images/MAMMAL.png,,,,,,,,,,,,,,,,,,,,,m,1,0.7646,,,,,,,,0,70,70,62,1
,,,,,,,,,,,,,,,,,5dd36d715e9119361a7459f8,43,2022-02-12_11h26.23.991,lexical_decision_task_DD_L5,2021.2.3,MacIntel,60.0024001,,,,,,,,,,,2.5117,1,,,,,,,,,,,,,,,,,,,,,,,,0.220429687,-0.140915799,0,0,0,,,,,,,CRUMB,C,z,y,./images/CRUMB.png,,,,,,,,,,,,,,,,,,,,,z,1,2.5117,,,,,,,,0,71,71,113,1
,,,,,,,,,,,,,,,,,5dd36d715e9119361a7459f8,43,2022-02-12_11h26.23.991,lexical_decision_task_DD_L5,2021.2.3,MacIntel,60.0024001,,,,,,,,,,,0.7607,1,,,,,,,,,,,,,,,,,,,,,,,,0.220429687,-0.140915799,0,0,0,,,,,,,LAGOON,C,m,y,./images/LAGOON.png,,,,,,,,,,,,,,,,,,,,,m,1,0.7607,,,,,,,,0,72,72,47,1
,,,,,,,,,,,,,,,,,5dd36d715e9119361a7459f8,43,2022-02-12_11h26.23.991,lexical_decision_task_DD_L5,2021.2.3,MacIntel,60.0024001,,,,,,,,,,,1.0268,1,,,,,,,,,,,,,,,,,,,,,,,,0.220429687,-0.140915799,0,0,0,,,,,,,BELLY,LB,z,y,./images/BELLYLB.png,,,,,,,,,,,,,,,,,,,,,z,1,1.0268,,,,,,,,0,73,73,94,1
,,,,,,,,,,,,,,,,,5dd36d715e9119361a7459f8,43,2022-02-12_11h26.23.991,lexical_decision_task_DD_L5,2021.2.3,MacIntel,60.0024001,,,,,,,,,,,0.7166,1,,,,,,,,,,,,,,,,,,,,,,,,0.220429687,-0.140915799,0,0,0,,,,,,,STREAM,C,m,y,./images/STREAM.png,,,,,,,,,,,,,,,,,,,,,m,1,0.7166,,,,,,,,0,74,74,41,1
,,,,,,,,,,,,,,,,,5dd36d715e9119361a7459f8,43,2022-02-12_11h26.23.991,lexical_decision_task_DD_L5,2021.2.3,MacIntel,60.0024001,,,,,,,,,,,0.7942,1,,,,,,,,,,,,,,,,,,,,,,,,0.220429687,-0.140915799,0,0,0,,,,,,,FALCON,LB,z,y,./images/FALCONLB.png,,,,,,,,,,,,,,,,,,,,,z,1,0.7942,,,,,,,,0,75,75,112,1
,,,,,,,,,,,,,,,,,5dd36d715e9119361a7459f8,43,2022-02-12_11h26.23.991,lexical_decision_task_DD_L5,2021.2.3,MacIntel,60.0024001,,,,,,,,,,,0.7988,1,,,,,,,,,,,,,,,,,,,,,,,,0.220429687,-0.140915799,0,0,0,,,,,,,DANCER,HB,m,y,./images/DANCERHB.png,,,,,,,,,,,,,,,,,,,,,m,1,0.7988,,,,,,,,0,76,76,21,1
,,,,,,,,,,,,,,,,,5dd36d715e9119361a7459f8,43,2022-02-12_11h26.23.991,lexical_decision_task_DD_L5,2021.2.3,MacIntel,60.0024001,,,,,,,,,,,1.1781,1,,,,,,,,,,,,,,,,,,,,,,,,0.220429687,-0.140915799,0,0,0,,,,,,,PARADE,C,m,y,./images/PARADE.png,,,,,,,,,,,,,,,,,,,,,m,1,1.1781,,,,,,,,0,77,77,17,1
,,,,,,,,,,,,,,,,,5dd36d715e9119361a7459f8,43,2022-02-12_11h26.23.991,lexical_decision_task_DD_L5,2021.2.3,MacIntel,60.0024001,,,,,,,,,,,0.8618,1,,,,,,,,,,,,,,,,,,,,,,,,0.220429687,-0.140915799,0,0,0,,,,,,,GRANNY,C,m,y,./images/GRANNY.png,,,,,,,,,,,,,,,,,,,,,m,1,0.8618,,,,,,,,0,78,78,20,1
,,,,,,,,,,,,,,,,,5dd36d715e9119361a7459f8,43,2022-02-12_11h26.23.991,lexical_decision_task_DD_L5,2021.2.3,MacIntel,60.0024001,,,,,,,,,,,1.3441,1,,,,,,,,,,,,,,,,,,,,,,,,0.220429687,-0.140915799,0,0,0,,,,,,,QUILL,LB,z,y,./images/QUILLLB.png,,,,,,,,,,,,,,,,,,,,,z,1,1.3441,,,,,,,,0,79,79,115,1
,,,,,,,,,,,,,,,,,5dd36d715e9119361a7459f8,43,2022-02-12_11h26.23.991,lexical_decision_task_DD_L5,2021.2.3,MacIntel,60.0024001,,,,,,,,,,,0.727,1,,,,,,,,,,,,,,,,,,,,,,,,0.220429687,-0.140915799,0,0,0,,,,,,,HAMMER,HB,m,y,./images/HAMMERHB.png,,,,,,,,,,,,,,,,,,,,,m,1,0.727,,,,,,,,0,80,80,75,1
,,,,,,,,,,,,,,,,,5dd36d715e9119361a7459f8,43,2022-02-12_11h26.23.991,lexical_decision_task_DD_L5,2021.2.3,MacIntel,60.0024001,,,,,,,,,,,0.8003,1,,,,,,,,,,,,,,,,,,,,,,,,0.220429687,-0.140915799,0,0,0,,,,,,,HOCKEY,C,m,y,./images/HOCKEY.png,,,,,,,,,,,,,,,,,,,,,m,1,0.8003,,,,,,,,0,81,81,32,1
,,,,,,,,,,,,,,,,,5dd36d715e9119361a7459f8,43,2022-02-12_11h26.23.991,lexical_decision_task_DD_L5,2021.2.3,MacIntel,60.0024001,,,,,,,,,,,1.1487,1,,,,,,,,,,,,,,,,,,,,,,,,0.220429687,-0.140915799,0,0,0,,,,,,,FOLDER,HB,z,y,./images/FOLDERHB.png,,,,,,,,,,,,,,,,,,,,,z,1,1.1487,,,,,,,,0,82,82,126,1
,,,,,,,,,,,,,,,,,5dd36d715e9119361a7459f8,43,2022-02-12_11h26.23.991,lexical_decision_task_DD_L5,2021.2.3,MacIntel,60.0024001,,,,,,,,,,,0.7999,1,,,,,,,,,,,,,,,,,,,,,,,,0.220429687,-0.140915799,0,0,0,space,,,,,,CANOE,LB,m,y,./images/CANOELB.png,9.3732,,,,,,,,,,,,,,,,,,,,m,1,0.7999,,,,,,,,0,83,83,58,1
,,,,,,,,,,,,,,,,,5dd36d715e9119361a7459f8,43,2022-02-12_11h26.23.991,lexical_decision_task_DD_L5,2021.2.3,MacIntel,60.0024001,,,,,,,,,,,0.9972,1,,,,,,,,,,,,,,,,,,,,,,,,0.220429687,-0.140915799,0,0,0,,,,,,,WALRUS,C,z,y,./images/WALRUS.png,,,,,,,,,,,,,,,,,,,,,z,1,0.9972,,,,,,,,0,84,84,107,1
,,,,,,,,,,,,,,,,,5dd36d715e9119361a7459f8,43,2022-02-12_11h26.23.991,lexical_decision_task_DD_L5,2021.2.3,MacIntel,60.0024001,,,,,,,,,,,0.7291,1,,,,,,,,,,,,,,,,,,,,,,,,0.220429687,-0.140915799,0,0,0,,,,,,,LIZARD,C,z,y,./images/LIZARD.png,,,,,,,,,,,,,,,,,,,,,z,1,0.7291,,,,,,,,0,85,85,128,1
,,,,,,,,,,,,,,,,,5dd36d715e9119361a7459f8,43,2022-02-12_11h26.23.991,lexical_decision_task_DD_L5,2021.2.3,MacIntel,60.0024001,,,,,,,,,,,0.8623,1,,,,,,,,,,,,,,,,,,,,,,,,0.220429687,-0.140915799,0,0,0,,,,,,,MUMMY,LB,m,y,./images/MUMMYLB.png,,,,,,,,,,,,,,,,,,,,,m,1,0.8623,,,,,,,,0,86,86,46,1
,,,,,,,,,,,,,,,,,5dd36d715e9119361a7459f8,43,2022-02-12_11h26.23.991,lexical_decision_task_DD_L5,2021.2.3,MacIntel,60.0024001,,,,,,,,,,,0.7619,1,,,,,,,,,,,,,,,,,,,,,,,,0.220429687,-0.140915799,0,0,0,,,,,,,SNAKE,LB,m,y,./images/SNAKELB.png,,,,,,,,,,,,,,,,,,,,,m,1,0.7619,,,,,,,,0,87,87,40,1
,,,,,,,,,,,,,,,,,5dd36d715e9119361a7459f8,43,2022-02-12_11h26.23.991,lexical_decision_task_DD_L5,2021.2.3,MacIntel,60.0024001,,,,,,,,,,,1.4791,0,,,,,,,,,,,,,,,,,,,,,,,,0.220429687,-0.140915799,0,0,0,,,,,,,WALNUT,HB,m,y,./images/WALNUTHB.png,,,,,,,,,,,,,,,,,,,,,z,0,1.4791,,,,,,,,0,88,88,0,1
,,,,,,,,,,,,,,,,,5dd36d715e9119361a7459f8,43,2022-02-12_11h26.23.991,lexical_decision_task_DD_L5,2021.2.3,MacIntel,60.0024001,,,,,,,,,,,0.7787,1,,,,,,,,,,,,,,,,,,,,,,,,0.220429687,-0.140915799,0,0,0,,,,,,,BIRTH,LB,z,y,./images/BIRTHLB.png,,,,,,,,,,,,,,,,,,,,,z,1,0.7787,,,,,,,,0,89,89,121,1
,,,,,,,,,,,,,,,,,5dd36d715e9119361a7459f8,43,2022-02-12_11h26.23.991,lexical_decision_task_DD_L5,2021.2.3,MacIntel,60.0024001,,,,,,,,,,,0.9448,1,,,,,,,,,,,,,,,,,,,,,,,,0.220429687,-0.140915799,0,0,0,,,,,,,FARMER,C,z,y,./images/FARMER.png,,,,,,,,,,,,,,,,,,,,,z,1,0.9448,,,,,,,,0,90,90,149,1
,,,,,,,,,,,,,,,,,5dd36d715e9119361a7459f8,43,2022-02-12_11h26.23.991,lexical_decision_task_DD_L5,2021.2.3,MacIntel,60.0024001,,,,,,,,,,,0.7418,1,,,,,,,,,,,,,,,,,,,,,,,,0.220429687,-0.140915799,0,0,0,,,,,,,RHINO,HB,z,y,./images/RHINOHB.png,,,,,,,,,,,,,,,,,,,,,z,1,0.7418,,,,,,,,0,91,91,93,1
,,,,,,,,,,,,,,,,,5dd36d715e9119361a7459f8,43,2022-02-12_11h26.23.991,lexical_decision_task_DD_L5,2021.2.3,MacIntel,60.0024001,,,,,,,,,,,0.9103,0,,,,,,,,,,,,,,,,,,,,,,,,0.220429687,-0.140915799,0,0,0,,,,,,,RAZOR,LB,m,y,./images/RAZORLB.png,,,,,,,,,,,,,,,,,,,,,z,0,0.9103,,,,,,,,0,92,92,34,1
,,,,,,,,,,,,,,,,,5dd36d715e9119361a7459f8,43,2022-02-12_11h26.23.991,lexical_decision_task_DD_L5,2021.2.3,MacIntel,60.0024001,,,,,,,,,,,1.0468,0,,,,,,,,,,,,,,,,,,,,,,,,0.220429687,-0.140915799,0,0,0,,,,,,,BOILER,HB,m,y,./images/BOILERHB.png,,,,,,,,,,,,,,,,,,,,,z,0,1.0468,,,,,,,,0,93,93,36,1
,,,,,,,,,,,,,,,,,5dd36d715e9119361a7459f8,43,2022-02-12_11h26.23.991,lexical_decision_task_DD_L5,2021.2.3,MacIntel,60.0024001,,,,,,,,,,,0.709,0,,,,,,,,,,,,,,,,,,,,,,,,0.220429687,-0.140915799,0,0,0,,,,,,,MEDAL,C,m,y,./images/MEDAL.png,,,,,,,,,,,,,,,,,,,,,z,0,0.709,,,,,,,,0,94,94,11,1
,,,,,,,,,,,,,,,,,5dd36d715e9119361a7459f8,43,2022-02-12_11h26.23.991,lexical_decision_task_DD_L5,2021.2.3,MacIntel,60.0024001,,,,,,,,,,,0.7781,1,,,,,,,,,,,,,,,,,,,,,,,,0.220429687,-0.140915799,0,0,0,,,,,,,BRUSH,C,m,y,./images/BRUSH.png,,,,,,,,,,,,,,,,,,,,,m,1,0.7781,,,,,,,,0,95,95,59,1
,,,,,,,,,,,,,,,,,5dd36d715e9119361a7459f8,43,2022-02-12_11h26.23.991,lexical_decision_task_DD_L5,2021.2.3,MacIntel,60.0024001,,,,,,,,,,,2.0445,0,,,,,,,,,,,,,,,,,,,,,,,,0.220429687,-0.140915799,0,0,0,,,,,,,SWEAT,HB,z,y,./images/SWEATHB.png,,,,,,,,,,,,,,,,,,,,,m,0,2.0445,,,,,,,,0,96,96,150,1
,,,,,,,,,,,,,,,,,5dd36d715e9119361a7459f8,43,2022-02-12_11h26.23.991,lexical_decision_task_DD_L5,2021.2.3,MacIntel,60.0024001,,,,,,,,,,,0.7169,1,,,,,,,,,,,,,,,,,,,,,,,,0.220429687,-0.140915799,0,0,0,,,,,,,BOXER,LB,m,y,./images/BOXERLB.png,,,,,,,,,,,,,,,,,,,,,m,1,0.7169,,,,,,,,0,97,97,4,1
,,,,,,,,,,,,,,,,,5dd36d715e9119361a7459f8,43,2022-02-12_11h26.23.991,lexical_decision_task_DD_L5,2021.2.3,MacIntel,60.0024001,,,,,,,,,,,0.6798,1,,,,,,,,,,,,,,,,,,,,,,,,0.220429687,-0.140915799,0,0,0,,,,,,,ATTIC,HB,z,y,./images/ATTICHB.png,,,,,,,,,,,,,,,,,,,,,z,1,0.6798,,,,,,,,0,98,98,111,1
,,,,,,,,,,,,,,,,,5dd36d715e9119361a7459f8,43,2022-02-12_11h26.23.991,lexical_decision_task_DD_L5,2021.2.3,MacIntel,60.0024001,,,,,,,,,,,0.8687,1,,,,,,,,,,,,,,,,,,,,,,,,0.220429687,-0.140915799,0,0,0,,,,,,,LLAMA,C,m,y,./images/LLAMA.png,,,,,,,,,,,,,,,,,,,,,m,1,0.8687,,,,,,,,0,99,99,35,1
,,,,,,,,,,,,,,,,,5dd36d715e9119361a7459f8,43,2022-02-12_11h26.23.991,lexical_decision_task_DD_L5,2021.2.3,MacIntel,60.0024001,,,,,,,,,,,1.1013,1,,,,,,,,,,,,,,,,,,,,,,,,0.220429687,-0.140915799,0,0,0,,,,,,,FLESH,HB,m,y,./images/FLESHHB.png,,,,,,,,,,,,,,,,,,,,,m,1,1.1013,,,,,,,,0,100,100,24,1
,,,,,,,,,,,,,,,,,5dd36d715e9119361a7459f8,43,2022-02-12_11h26.23.991,lexical_decision_task_DD_L5,2021.2.3,MacIntel,60.0024001,,,,,,,,,,,0.8336,1,,,,,,,,,,,,,,,,,,,,,,,,0.220429687,-0.140915799,0,0,0,,,,,,,NOOSE,HB,z,y,./images/NOOSEHB.png,,,,,,,,,,,,,,,,,,,,,z,1,0.8336,,,,,,,,0,101,101,156,1
,,,,,,,,,,,,,,,,,5dd36d715e9119361a7459f8,43,2022-02-12_11h26.23.991,lexical_decision_task_DD_L5,2021.2.3,MacIntel,60.0024001,,,,,,,,,,,1.0817,1,,,,,,,,,,,,,,,,,,,,,,,,0.220429687,-0.140915799,0,0,0,,,,,,,BUTTER,HB,m,y,./images/BUTTERHB.png,,,,,,,,,,,,,,,,,,,,,m,1,1.0817,,,,,,,,0,102,102,27,1
,,,,,,,,,,,,,,,,,5dd36d715e9119361a7459f8,43,2022-02-12_11h26.23.991,lexical_decision_task_DD_L5,2021.2.3,MacIntel,60.0024001,,,,,,,,,,,0.9338,0,,,,,,,,,,,,,,,,,,,,,,,,0.220429687,-0.140915799,0,0,0,,,,,,,SAUCE,HB,m,y,./images/SAUCEHB.png,,,,,,,,,,,,,,,,,,,,,z,0,0.9338,,,,,,,,0,103,103,51,1
,,,,,,,,,,,,,,,,,5dd36d715e9119361a7459f8,43,2022-02-12_11h26.23.991,lexical_decision_task_DD_L5,2021.2.3,MacIntel,60.0024001,,,,,,,,,,,0.9766,1,,,,,,,,,,,,,,,,,,,,,,,,0.220429687,-0.140915799,0,0,0,,,,,,,DONKEY,LB,m,y,./images/DONKEYLB.png,,,,,,,,,,,,,,,,,,,,,m,1,0.9766,,,,,,,,0,104,104,19,1
,,,,,,,,,,,,,,,,,5dd36d715e9119361a7459f8,43,2022-02-12_11h26.23.991,lexical_decision_task_DD_L5,2021.2.3,MacIntel,60.0024001,,,,,,,,,,,0.7521,1,,,,,,,,,,,,,,,,,,,,,,,,0.220429687,-0.140915799,0,0,0,,,,,,,MIDGET,LB,m,y,./images/MIDGETLB.png,,,,,,,,,,,,,,,,,,,,,m,1,0.7521,,,,,,,,0,105,105,76,1
,,,,,,,,,,,,,,,,,5dd36d715e9119361a7459f8,43,2022-02-12_11h26.23.991,lexical_decision_task_DD_L5,2021.2.3,MacIntel,60.0024001,,,,,,,,,,,0.7437,1,,,,,,,,,,,,,,,,,,,,,,,,0.220429687,-0.140915799,0,0,0,,,,,,,PIMPLE,C,z,y,./images/PIMPLE.png,,,,,,,,,,,,,,,,,,,,,z,1,0.7437,,,,,,,,0,106,106,155,1
,,,,,,,,,,,,,,,,,5dd36d715e9119361a7459f8,43,2022-02-12_11h26.23.991,lexical_decision_task_DD_L5,2021.2.3,MacIntel,60.0024001,,,,,,,,,,,1.7273,0,,,,,,,,,,,,,,,,,,,,,,,,0.220429687,-0.140915799,0,0,0,,,,,,,HEATER,C,m,y,./images/HEATER.png,,,,,,,,,,,,,,,,,,,,,z,0,1.7273,,,,,,,,0,107,107,56,1
,,,,,,,,,,,,,,,,,5dd36d715e9119361a7459f8,43,2022-02-12_11h26.23.991,lexical_decision_task_DD_L5,2021.2.3,MacIntel,60.0024001,,,,,,,,,,,0.8951,1,,,,,,,,,,,,,,,,,,,,,,,,0.220429687,-0.140915799,0,0,0,,,,,,,BEARD,C,z,y,./images/BEARD.png,,,,,,,,,,,,,,,,,,,,,z,1,0.8951,,,,,,,,0,108,108,86,1
,,,,,,,,,,,,,,,,,5dd36d715e9119361a7459f8,43,2022-02-12_11h26.23.991,lexical_decision_task_DD_L5,2021.2.3,MacIntel,60.0024001,,,,,,,,,,,0.8439,1,,,,,,,,,,,,,,,,,,,,,,,,0.220429687,-0.140915799,0,0,0,,,,,,,KITTEN,HB,z,y,./images/KITTENHB.png,,,,,,,,,,,,,,,,,,,,,z,1,0.8439,,,,,,,,0,109,109,129,1
,,,,,,,,,,,,,,,,,5dd36d715e9119361a7459f8,43,2022-02-12_11h26.23.991,lexical_decision_task_DD_L5,2021.2.3,MacIntel,60.0024001,,,,,,,,,,,1.196,1,,,,,,,,,,,,,,,,,,,,,,,,0.220429687,-0.140915799,0,0,0,,,,,,,SHORE,HB,z,y,./images/SHOREHB.png,,,,,,,,,,,,,,,,,,,,,z,1,1.196,,,,,,,,0,110,110,96,1
,,,,,,,,,,,,,,,,,5dd36d715e9119361a7459f8,43,2022-02-12_11h26.23.991,lexical_decision_task_DD_L5,2021.2.3,MacIntel,60.0024001,,,,,,,,,,,0.9823,1,,,,,,,,,,,,,,,,,,,,,,,,0.220429687,-0.140915799,0,0,0,,,,,,,CARPET,C,z,y,./images/CARPET.png,,,,,,,,,,,,,,,,,,,,,z,1,0.9823,,,,,,,,0,111,111,137,1
,,,,,,,,,,,,,,,,,5dd36d715e9119361a7459f8,43,2022-02-12_11h26.23.991,lexical_decision_task_DD_L5,2021.2.3,MacIntel,60.0024001,,,,,,,,,,,0.8472,1,,,,,,,,,,,,,,,,,,,,,,,,0.220429687,-0.140915799,0,0,0,,,,,,,DESERT,LB,m,y,./images/DESERTLB.png,,,,,,,,,,,,,,,,,,,,,m,1,0.8472,,,,,,,,0,112,112,52,1
,,,,,,,,,,,,,,,,,5dd36d715e9119361a7459f8,43,2022-02-12_11h26.23.991,lexical_decision_task_DD_L5,2021.2.3,MacIntel,60.0024001,,,,,,,,,,,1.5616,0,,,,,,,,,,,,,,,,,,,,,,,,0.220429687,-0.140915799,0,0,0,,,,,,,DIVER,HB,m,y,./images/DIVERHB.png,,,,,,,,,,,,,,,,,,,,,z,0,1.5616,,,,,,,,0,113,113,9,1
,,,,,,,,,,,,,,,,,5dd36d715e9119361a7459f8,43,2022-02-12_11h26.23.991,lexical_decision_task_DD_L5,2021.2.3,MacIntel,60.0024001,,,,,,,,,,,2.4943,1,,,,,,,,,,,,,,,,,,,,,,,,0.220429687,-0.140915799,0,0,0,,,,,,,CANDY,HB,m,y,./images/CANDYHB.png,,,,,,,,,,,,,,,,,,,,,m,1,2.4943,,,,,,,,0,114,114,39,1
,,,,,,,,,,,,,,,,,5dd36d715e9119361a7459f8,43,2022-02-12_11h26.23.991,lexical_decision_task_DD_L5,2021.2.3,MacIntel,60.0024001,,,,,,,,,,,2.2596,1,,,,,,,,,,,,,,,,,,,,,,,,0.220429687,-0.140915799,0,0,0,,,,,,,COUCH,C,z,y,./images/COUCH.png,,,,,,,,,,,,,,,,,,,,,z,1,2.2596,,,,,,,,0,115,115,161,1
,,,,,,,,,,,,,,,,,5dd36d715e9119361a7459f8,43,2022-02-12_11h26.23.991,lexical_decision_task_DD_L5,2021.2.3,MacIntel,60.0024001,,,,,,,,,,,2.1936,1,,,,,,,,,,,,,,,,,,,,,,,,0.220429687,-0.140915799,0,0,0,,,,,,,BAKER,HB,m,y,./images/BAKERHB.png,,,,,,,,,,,,,,,,,,,,,m,1,2.1936,,,,,,,,0,116,116,63,1
,,,,,,,,,,,,,,,,,5dd36d715e9119361a7459f8,43,2022-02-12_11h26.23.991,lexical_decision_task_DD_L5,2021.2.3,MacIntel,60.0024001,,,,,,,,,,,0.7822,1,,,,,,,,,,,,,,,,,,,,,,,,0.220429687,-0.140915799,0,0,0,,,,,,,SHIELD,HB,m,y,./images/SHIELDHB.png,,,,,,,,,,,,,,,,,,,,,m,1,0.7822,,,,,,,,0,117,117,48,1
,,,,,,,,,,,,,,,,,5dd36d715e9119361a7459f8,43,2022-02-12_11h26.23.991,lexical_decision_task_DD_L5,2021.2.3,MacIntel,60.0024001,,,,,,,,,,,0.7448,1,,,,,,,,,,,,,,,,,,,,,,,,0.220429687,-0.140915799,0,0,0,,,,,,,MONKEY,HB,m,y,./images/MONKEYHB.png,,,,,,,,,,,,,,,,,,,,,m,1,0.7448,,,,,,,,0,118,118,45,1
,,,,,,,,,,,,,,,,,5dd36d715e9119361a7459f8,43,2022-02-12_11h26.23.991,lexical_decision_task_DD_L5,2021.2.3,MacIntel,60.0024001,,,,,,,,,,,0.8493,1,,,,,,,,,,,,,,,,,,,,,,,,0.220429687,-0.140915799,0,0,0,,,,,,,TIGER,LB,m,y,./images/TIGERLB.png,,,,,,,,,,,,,,,,,,,,,m,1,0.8493,,,,,,,,0,119,119,37,1
,,,,,,,,,,,,,,,,,5dd36d715e9119361a7459f8,43,2022-02-12_11h26.23.991,lexical_decision_task_DD_L5,2021.2.3,MacIntel,60.0024001,,,,,,,,,,,1.4609,1,,,,,,,,,,,,,,,,,,,,,,,,0.220429687,-0.140915799,0,0,0,,,,,,,VALLEY,C,m,y,./images/VALLEY.png,,,,,,,,,,,,,,,,,,,,,m,1,1.4609,,,,,,,,0,120,120,68,1
,,,,,,,,,,,,,,,,,5dd36d715e9119361a7459f8,43,2022-02-12_11h26.23.991,lexical_decision_task_DD_L5,2021.2.3,MacIntel,60.0024001,,,,,,,,,,,1.2594,0,,,,,,,,,,,,,,,,,,,,,,,,0.220429687,-0.140915799,0,0,0,,,,,,,PARCEL,HB,m,y,./images/PARCELHB.png,,,,,,,,,,,,,,,,,,,,,z,0,1.2594,,,,,,,,0,121,121,18,1
,,,,,,,,,,,,,,,,,5dd36d715e9119361a7459f8,43,2022-02-12_11h26.23.991,lexical_decision_task_DD_L5,2021.2.3,MacIntel,60.0024001,,,,,,,,,,,1.2937,0,,,,,,,,,,,,,,,,,,,,,,,,0.220429687,-0.140915799,0,0,0,,,,,,,CHAIN,HB,m,y,./images/CHAINHB.png,,,,,,,,,,,,,,,,,,,,,z,0,1.2937,,,,,,,,0,122,122,42,1
,,,,,,,,,,,,,,,,,5dd36d715e9119361a7459f8,43,2022-02-12_11h26.23.991,lexical_decision_task_DD_L5,2021.2.3,MacIntel,60.0024001,,,,,,,,,,,0.727,1,,,,,,,,,,,,,,,,,,,,,,,,0.220429687,-0.140915799,0,0,0,,,,,,,BERRY,C,z,y,./images/BERRY.png,,,,,,,,,,,,,,,,,,,,,z,1,0.727,,,,,,,,0,123,123,131,1
,,,,,,,,,,,,,,,,,5dd36d715e9119361a7459f8,43,2022-02-12_11h26.23.991,lexical_decision_task_DD_L5,2021.2.3,MacIntel,60.0024001,,,,,,,,,,,0.8942,1,,,,,,,,,,,,,,,,,,,,,,,,0.220429687,-0.140915799,0,0,0,,,,,,,BARREL,C,z,y,./images/BARREL.png,,,,,,,,,,,,,,,,,,,,,z,1,0.8942,,,,,,,,0,124,124,116,1
,,,,,,,,,,,,,,,,,5dd36d715e9119361a7459f8,43,2022-02-12_11h26.23.991,lexical_decision_task_DD_L5,2021.2.3,MacIntel,60.0024001,,,,,,,,,,,0.9278,1,,,,,,,,,,,,,,,,,,,,,,,,0.220429687,-0.140915799,0,0,0,space,,,,,,BUNNY,LB,m,y,./images/BUNNYLB.png,10.8628,,,,,,,,,,,,,,,,,,,,m,1,0.9278,,,,,,,,0,125,125,13,1
,,,,,,,,,,,,,,,,,5dd36d715e9119361a7459f8,43,2022-02-12_11h26.23.991,lexical_decision_task_DD_L5,2021.2.3,MacIntel,60.0024001,,,,,,,,,,,2.4765,0,,,,,,,,,,,,,,,,,,,,,,,,0.220429687,-0.140915799,0,0,0,,,,,,,MAGGOT,HB,z,y,./images/MAGGOTHB.png,,,,,,,,,,,,,,,,,,,,,m,0,2.4765,,,,,,,,0,126,126,117,1
,,,,,,,,,,,,,,,,,5dd36d715e9119361a7459f8,43,2022-02-12_11h26.23.991,lexical_decision_task_DD_L5,2021.2.3,MacIntel,60.0024001,,,,,,,,,,,1.5303,1,,,,,,,,,,,,,,,,,,,,,,,,0.220429687,-0.140915799,0,0,0,,,,,,,CHALK,LB,m,y,./images/CHALKLB.png,,,,,,,,,,,,,,,,,,,,,m,1,1.5303,,,,,,,,0,127,127,25,1
,,,,,,,,,,,,,,,,,5dd36d715e9119361a7459f8,43,2022-02-12_11h26.23.991,lexical_decision_task_DD_L5,2021.2.3,MacIntel,60.0024001,,,,,,,,,,,0.9588,1,,,,,,,,,,,,,,,,,,,,,,,,0.220429687,-0.140915799,0,0,0,,,,,,,PURSE,C,z,y,./images/PURSE.png,,,,,,,,,,,,,,,,,,,,,z,1,0.9588,,,,,,,,0,128,128,146,1
,,,,,,,,,,,,,,,,,5dd36d715e9119361a7459f8,43,2022-02-12_11h26.23.991,lexical_decision_task_DD_L5,2021.2.3,MacIntel,60.0024001,,,,,,,,,,,3.4607,0,,,,,,,,,,,,,,,,,,,,,,,,0.220429687,-0.140915799,0,0,0,,,,,,,POKER,LB,m,y,./images/POKERLB.png,,,,,,,,,,,,,,,,,,,,,z,0,3.4607,,,,,,,,0,129,129,67,1
