key_resp.keys,key_resp.rt,instr_done_touch.x,instr_done_touch.y,instr_done_touch.leftButton,instr_done_touch.midButton,instr_done_touch.rightButton,instruction_pages.thisRepN,instruction_pages.thisTrialN,instruction_pages.thisN,instruction_pages.thisIndex,instruction_pages.ran,pageN,phase,instruct_text,has_image,instruct_image,participant,age,date,expName,psychopyVersion,OS,frameRate,response.keys,response.corr,response.rt,touch_resp.x,touch_resp.y,touch_resp.leftButton,touch_resp.midButton,touch_resp.rightButton,touch_resp.time,touch_resp.clicked_name,rt,corr,practrials.thisRepN,practrials.thisTrialN,practrials.thisN,practrials.thisIndex,practrials.ran,TrialID,Target,corrAns,end_of_practice_trials_pages.thisRepN,end_of_practice_trials_pages.thisTrialN,end_of_practice_trials_pages.thisN,end_of_practice_trials_pages.thisIndex,end_of_practice_trials_pages.ran,key_resp_2.keys,key_resp_2.corr,key_resp_2.rt,targ_click.x,targ_click.y,targ_click.leftButton,targ_click.midButton,targ_click.rightButton,targ_click.time,targ_click.clicked_name,break_done_touch.x,break_done_touch.y,break_done_touch.leftButton,break_done_touch.midButton,break_done_touch.rightButton,break_done_keyboard.keys,maintrials.thisRepN,maintrials.thisTrialN,maintrials.thisN,maintrials.thisIndex,maintrials.ran,string,blur,study,lex,stim_path,break_done_keyboard.rt,mouse_2.x,mouse_2.y,mouse_2.leftButton,mouse_2.midButton,mouse_2.rightButton,mouse_2.clicked_name,slider.response,slider.rt,trials.thisRepN,trials.thisTrialN,trials.thisN,trials.thisIndex,trials.ran,instr_done_touch.clicked_name,test_instructions.thisRepN,test_instructions.thisTrialN,test_instructions.thisN,test_instructions.thisIndex,test_instructions.ran,key_resp_3.keys,key_resp_3.corr,key_resp_3.rt,test_click.x,test_click.y,test_click.leftButton,test_click.midButton,test_click.rightButton,test_click.time,test_click.clicked_name,test_phase.thisRepN,test_phase.thisTrialN,test_phase.thisN,test_phase.thisIndex,test_phase.ran
space,28.1129,-0.020079749,-0.103155082,0,0,0,0,0,0,0,1,1,instructions,"INSTRUCTIONS
At the start of each trial, look at the plus sign  (+) in the center of the screen.  This tells you that a trial is about to begin and where to look. Second, the plus sign will disappear and a string of letters will appear. Your task is to determine if the string of letters is a word or not. If the item is a word press the M key (on keyboard)  or touch the word button (phone/tablet).  If the item is not a word,  press the  Z key (on keyboard)  or touch the nonword button (on phone/tablet). 
Press the space bar or touch  continue.",0,,5dd72efa82569a6d38e06854,39,2022-02-12_10h18.39.888,lexical_decision_task_DD_L5,2021.2.3,MacIntel,60.0024001,,,,,,,,,,,,,,,,,,,,,,,,,,,,,,,,,,,,,,,,,,,,,,,,,,,,,,,,,,,,,,,,,,,,,,,,,,,,,,,,,,,,,,
space,6.1015,-0.020079749,-0.103155082,0,0,0,0,1,1,1,1,2,instructions,"If your device has a keyboard, press the 'Z' key for nonwords and the 'M' key for words.





Press the space bar or touch the button below to continue.",0,keyboard-example.gif,5dd72efa82569a6d38e06854,39,2022-02-12_10h18.39.888,lexical_decision_task_DD_L5,2021.2.3,MacIntel,60.0024001,,,,,,,,,,,,,,,,,,,,,,,,,,,,,,,,,,,,,,,,,,,,,,,,,,,,,,,,,,,,,,,,,,,,,,,,,,,,,,,,,,,,,,
space,3.8403,-0.020079749,-0.103155082,0,0,0,0,2,2,2,1,3,instructions,"If you are using a touchscreen only device, use the buttons on the screen. Do not use the mouse.





Press the space bar or touch the button below to continue.",0,touchscreen-example.gif,5dd72efa82569a6d38e06854,39,2022-02-12_10h18.39.888,lexical_decision_task_DD_L5,2021.2.3,MacIntel,60.0024001,,,,,,,,,,,,,,,,,,,,,,,,,,,,,,,,,,,,,,,,,,,,,,,,,,,,,,,,,,,,,,,,,,,,,,,,,,,,,,,,,,,,,,
space,7.4155,-0.020079749,-0.103155082,0,0,0,0,3,3,3,1,4,instructions,"It is very important that you respond as quickly and accurately as possible, as each letter string will only be on the screen for two seconds. If you do not respond within this time, the message 'Too slow!' will be displayed and the experiment will progress to the next letter string. The first 20 trials will be practice trials and you will receive feedback on your answers. 

Press the space bar or touch the button below to start the practice trials.",0,,5dd72efa82569a6d38e06854,39,2022-02-12_10h18.39.888,lexical_decision_task_DD_L5,2021.2.3,MacIntel,60.0024001,,,,,,,,,,,,,,,,,,,,,,,,,,,,,,,,,,,,,,,,,,,,,,,,,,,,,,,,,,,,,,,,,,,,,,,,,,,,,,,,,,,,,,
,,,,,,,,,,,,,,,,,5dd72efa82569a6d38e06854,39,2022-02-12_10h18.39.888,lexical_decision_task_DD_L5,2021.2.3,MacIntel,60.0024001,z,1,1.7322,,,,,,,,1.7322,1,0,0,0,14,1,1001,THRALE,z,,,,,,,,,,,,,,,,,,,,,,,,,,,,,,,,,,,,,,,,,,,,,,,,,,,,,,,,,,,,,,,,,,
,,,,,,,,,,,,,,,,,5dd72efa82569a6d38e06854,39,2022-02-12_10h18.39.888,lexical_decision_task_DD_L5,2021.2.3,MacIntel,60.0024001,m,1,0.88,,,,,,,,0.88,1,0,1,1,4,1,1001,SQUEAK,m,,,,,,,,,,,,,,,,,,,,,,,,,,,,,,,,,,,,,,,,,,,,,,,,,,,,,,,,,,,,,,,,,,
,,,,,,,,,,,,,,,,,5dd72efa82569a6d38e06854,39,2022-02-12_10h18.39.888,lexical_decision_task_DD_L5,2021.2.3,MacIntel,60.0024001,m,0,1.1493,,,,,,,,1.1493,0,0,2,2,10,1,1001,INLADE,z,,,,,,,,,,,,,,,,,,,,,,,,,,,,,,,,,,,,,,,,,,,,,,,,,,,,,,,,,,,,,,,,,,
,,,,,,,,,,,,,,,,,5dd72efa82569a6d38e06854,39,2022-02-12_10h18.39.888,lexical_decision_task_DD_L5,2021.2.3,MacIntel,60.0024001,m,0,1.1614,,,,,,,,1.1614,0,0,3,3,11,1,1001,RASHET,z,,,,,,,,,,,,,,,,,,,,,,,,,,,,,,,,,,,,,,,,,,,,,,,,,,,,,,,,,,,,,,,,,,
,,,,,,,,,,,,,,,,,5dd72efa82569a6d38e06854,39,2022-02-12_10h18.39.888,lexical_decision_task_DD_L5,2021.2.3,MacIntel,60.0024001,m,1,1.0326,,,,,,,,1.0326,1,0,4,4,0,1,1001,UTOPIA,m,,,,,,,,,,,,,,,,,,,,,,,,,,,,,,,,,,,,,,,,,,,,,,,,,,,,,,,,,,,,,,,,,,
,,,,,,,,,,,,,,,,,5dd72efa82569a6d38e06854,39,2022-02-12_10h18.39.888,lexical_decision_task_DD_L5,2021.2.3,MacIntel,60.0024001,m,1,0.6328,,,,,,,,0.6328,1,0,5,5,7,1,1001,VOLUME,m,,,,,,,,,,,,,,,,,,,,,,,,,,,,,,,,,,,,,,,,,,,,,,,,,,,,,,,,,,,,,,,,,,
,,,,,,,,,,,,,,,,,5dd72efa82569a6d38e06854,39,2022-02-12_10h18.39.888,lexical_decision_task_DD_L5,2021.2.3,MacIntel,60.0024001,z,1,1.1002,,,,,,,,1.1002,1,0,6,6,8,1,1001,ASLERT,z,,,,,,,,,,,,,,,,,,,,,,,,,,,,,,,,,,,,,,,,,,,,,,,,,,,,,,,,,,,,,,,,,,
,,,,,,,,,,,,,,,,,5dd72efa82569a6d38e06854,39,2022-02-12_10h18.39.888,lexical_decision_task_DD_L5,2021.2.3,MacIntel,60.0024001,m,1,0.7996,,,,,,,,0.7996,1,0,7,7,6,1,1001,ZOMBIE,m,,,,,,,,,,,,,,,,,,,,,,,,,,,,,,,,,,,,,,,,,,,,,,,,,,,,,,,,,,,,,,,,,,
,,,,,,,,,,,,,,,,,5dd72efa82569a6d38e06854,39,2022-02-12_10h18.39.888,lexical_decision_task_DD_L5,2021.2.3,MacIntel,60.0024001,z,1,1.2984,,,,,,,,1.2984,1,0,8,8,9,1,1001,FARINY,z,,,,,,,,,,,,,,,,,,,,,,,,,,,,,,,,,,,,,,,,,,,,,,,,,,,,,,,,,,,,,,,,,,
,,,,,,,,,,,,,,,,,5dd72efa82569a6d38e06854,39,2022-02-12_10h18.39.888,lexical_decision_task_DD_L5,2021.2.3,MacIntel,60.0024001,z,1,0.6525,,,,,,,,0.6525,1,0,9,9,13,1,1001,ROUPET,z,,,,,,,,,,,,,,,,,,,,,,,,,,,,,,,,,,,,,,,,,,,,,,,,,,,,,,,,,,,,,,,,,,
,,,,,,,,,,,,,,,,,5dd72efa82569a6d38e06854,39,2022-02-12_10h18.39.888,lexical_decision_task_DD_L5,2021.2.3,MacIntel,60.0024001,z,1,0.6676,,,,,,,,0.6676,1,0,10,10,15,1,1001,WHAISE,z,,,,,,,,,,,,,,,,,,,,,,,,,,,,,,,,,,,,,,,,,,,,,,,,,,,,,,,,,,,,,,,,,,
,,,,,,,,,,,,,,,,,5dd72efa82569a6d38e06854,39,2022-02-12_10h18.39.888,lexical_decision_task_DD_L5,2021.2.3,MacIntel,60.0024001,m,1,0.683,,,,,,,,0.683,1,0,11,11,5,1,1001,OBTAIN,m,,,,,,,,,,,,,,,,,,,,,,,,,,,,,,,,,,,,,,,,,,,,,,,,,,,,,,,,,,,,,,,,,,
,,,,,,,,,,,,,,,,,5dd72efa82569a6d38e06854,39,2022-02-12_10h18.39.888,lexical_decision_task_DD_L5,2021.2.3,MacIntel,60.0024001,z,1,1.0498,,,,,,,,1.0498,1,0,12,12,12,1,1001,SPRINY,z,,,,,,,,,,,,,,,,,,,,,,,,,,,,,,,,,,,,,,,,,,,,,,,,,,,,,,,,,,,,,,,,,,
,,,,,,,,,,,,,,,,,5dd72efa82569a6d38e06854,39,2022-02-12_10h18.39.888,lexical_decision_task_DD_L5,2021.2.3,MacIntel,60.0024001,m,1,0.6284,,,,,,,,0.6284,1,0,13,13,2,1,1001,ALMOND,m,,,,,,,,,,,,,,,,,,,,,,,,,,,,,,,,,,,,,,,,,,,,,,,,,,,,,,,,,,,,,,,,,,
,,,,,,,,,,,,,,,,,5dd72efa82569a6d38e06854,39,2022-02-12_10h18.39.888,lexical_decision_task_DD_L5,2021.2.3,MacIntel,60.0024001,m,1,0.7654,,,,,,,,0.7654,1,0,14,14,3,1,1001,MATRIX,m,,,,,,,,,,,,,,,,,,,,,,,,,,,,,,,,,,,,,,,,,,,,,,,,,,,,,,,,,,,,,,,,,,
,,,,,,,,,,,,,,,,,5dd72efa82569a6d38e06854,39,2022-02-12_10h18.39.888,lexical_decision_task_DD_L5,2021.2.3,MacIntel,60.0024001,m,1,0.5664,,,,,,,,0.5664,1,0,15,15,1,1,1001,ADJUST,m,,,,,,,,,,,,,,,,,,,,,,,,,,,,,,,,,,,,,,,,,,,,,,,,,,,,,,,,,,,,,,,,,,
space,67.2404,-0.020079749,-0.103155082,0,0,0,,,,,,1,end_of_practice,"You have completed the practice trials. During the experimental trials, you will not receive feedback. 
Before you begin, please ensure that you are in a comfortable and quiet location and will not be disturbed for about 15 minutes, as we cannot use your data if you do not complete all the trials. 
 When you are ready to start the experimental trials, please press space or touch the button below.",,,5dd72efa82569a6d38e06854,39,2022-02-12_10h18.39.888,lexical_decision_task_DD_L5,2021.2.3,MacIntel,60.0024001,,,,,,,,,,,,,,,,,,,,,0,0,0,0,1,,,,,,,,,,,,,,,,,,,,,,,,,,,,,,,,,,,,,,,,,,,,,,,,,,,,,,,,,,,,,
,,,,,,,,,,,,,,,,,5dd72efa82569a6d38e06854,39,2022-02-12_10h18.39.888,lexical_decision_task_DD_L5,2021.2.3,MacIntel,60.0024001,,,,,,,,,,,1.5665,0,,,,,,,,,,,,,,z,0,1.5665,,,,,,,,-0.023945509,-0.101878956,0,0,0,,0,0,0,39,1,CANDY,HB,old,m,./images/CANDYHB.png,,,,,,,,,,,,,,,,,,,,,,,,,,,,,,,,,,,
,,,,,,,,,,,,,,,,,5dd72efa82569a6d38e06854,39,2022-02-12_10h18.39.888,lexical_decision_task_DD_L5,2021.2.3,MacIntel,60.0024001,,,,,,,,,,,3.1481,1,,,,,,,,,,,,,,z,1,3.1481,,,,,,,,-0.025349644,-0.099816186,0,0,0,,0,1,1,162,1,LEICH,C,old,z,./images/LEICH.png,,,,,,,,,,,,,,,,,,,,,,,,,,,,,,,,,,,
,,,,,,,,,,,,,,,,,5dd72efa82569a6d38e06854,39,2022-02-12_10h18.39.888,lexical_decision_task_DD_L5,2021.2.3,MacIntel,60.0024001,,,,,,,,,,,3.1477,1,,,,,,,,,,,,,,m,1,3.1477,,,,,,,,-0.025349644,-0.099816186,0,0,0,,0,2,2,42,1,CHAIN,HB,old,m,./images/CHAINHB.png,,,,,,,,,,,,,,,,,,,,,,,,,,,,,,,,,,,
,,,,,,,,,,,,,,,,,5dd72efa82569a6d38e06854,39,2022-02-12_10h18.39.888,lexical_decision_task_DD_L5,2021.2.3,MacIntel,60.0024001,,,,,,,,,,,1.1159,1,,,,,,,,,,,,,,m,1,1.1159,,,,,,,,-0.025349644,-0.099816186,0,0,0,,0,3,3,1,1,TOWEL,LB,old,m,./images/TOWELLB.png,,,,,,,,,,,,,,,,,,,,,,,,,,,,,,,,,,,
,,,,,,,,,,,,,,,,,5dd72efa82569a6d38e06854,39,2022-02-12_10h18.39.888,lexical_decision_task_DD_L5,2021.2.3,MacIntel,60.0024001,,,,,,,,,,,2.5326,1,,,,,,,,,,,,,,z,1,2.5326,,,,,,,,-0.025349644,-0.099816186,0,0,0,,0,4,4,94,1,BLANS,HB,old,z,./images/BLANSHB.png,,,,,,,,,,,,,,,,,,,,,,,,,,,,,,,,,,,
,,,,,,,,,,,,,,,,,5dd72efa82569a6d38e06854,39,2022-02-12_10h18.39.888,lexical_decision_task_DD_L5,2021.2.3,MacIntel,60.0024001,,,,,,,,,,,1.7659,0,,,,,,,,,,,,,,m,0,1.7659,,,,,,,,-0.025349644,-0.099816186,0,0,0,,0,5,5,142,1,PLASK,HB,old,z,./images/PLASKHB.png,,,,,,,,,,,,,,,,,,,,,,,,,,,,,,,,,,,
,,,,,,,,,,,,,,,,,5dd72efa82569a6d38e06854,39,2022-02-12_10h18.39.888,lexical_decision_task_DD_L5,2021.2.3,MacIntel,60.0024001,,,,,,,,,,,1.0684,1,,,,,,,,,,,,,,m,1,1.0684,,,,,,,,-0.025349644,-0.099816186,0,0,0,,0,6,6,56,1,HEATER,C,old,m,./images/HEATER.png,,,,,,,,,,,,,,,,,,,,,,,,,,,,,,,,,,,
,,,,,,,,,,,,,,,,,5dd72efa82569a6d38e06854,39,2022-02-12_10h18.39.888,lexical_decision_task_DD_L5,2021.2.3,MacIntel,60.0024001,,,,,,,,,,,1.4328,1,,,,,,,,,,,,,,z,1,1.4328,,,,,,,,-0.025349644,-0.099816186,0,0,0,,0,7,7,159,1,CUDDY,C,old,z,./images/CUDDY.png,,,,,,,,,,,,,,,,,,,,,,,,,,,,,,,,,,,
,,,,,,,,,,,,,,,,,5dd72efa82569a6d38e06854,39,2022-02-12_10h18.39.888,lexical_decision_task_DD_L5,2021.2.3,MacIntel,60.0024001,,,,,,,,,,,3.6494,1,,,,,,,,,,,,,,z,1,3.6494,,,,,,,,-0.025349644,-0.099816186,0,0,0,,0,8,8,136,1,WERVE,HB,old,z,./images/WERVEHB.png,,,,,,,,,,,,,,,,,,,,,,,,,,,,,,,,,,,
,,,,,,,,,,,,,,,,,5dd72efa82569a6d38e06854,39,2022-02-12_10h18.39.888,lexical_decision_task_DD_L5,2021.2.3,MacIntel,60.0024001,,,,,,,,,,,1.1154,1,,,,,,,,,,,,,,m,1,1.1154,,,,,,,,-0.025349644,-0.099816186,0,0,0,,0,9,9,30,1,SLOPE,HB,old,m,./images/SLOPEHB.png,,,,,,,,,,,,,,,,,,,,,,,,,,,,,,,,,,,
,,,,,,,,,,,,,,,,,5dd72efa82569a6d38e06854,39,2022-02-12_10h18.39.888,lexical_decision_task_DD_L5,2021.2.3,MacIntel,60.0024001,,,,,,,,,,,1.8853,1,,,,,,,,,,,,,,z,1,1.8853,,,,,,,,-0.025349644,-0.099816186,0,0,0,,0,10,10,91,1,SHENS,HB,old,z,./images/SHENSHB.png,,,,,,,,,,,,,,,,,,,,,,,,,,,,,,,,,,,
,,,,,,,,,,,,,,,,,5dd72efa82569a6d38e06854,39,2022-02-12_10h18.39.888,lexical_decision_task_DD_L5,2021.2.3,MacIntel,60.0024001,,,,,,,,,,,1.1828,1,,,,,,,,,,,,,,z,1,1.1828,,,,,,,,-0.025349644,-0.099816186,0,0,0,,0,11,11,155,1,CANGY,LB,old,z,./images/CANGYLB.png,,,,,,,,,,,,,,,,,,,,,,,,,,,,,,,,,,,
,,,,,,,,,,,,,,,,,5dd72efa82569a6d38e06854,39,2022-02-12_10h18.39.888,lexical_decision_task_DD_L5,2021.2.3,MacIntel,60.0024001,,,,,,,,,,,1.8326,1,,,,,,,,,,,,,,z,1,1.8326,,,,,,,,-0.025349644,-0.099816186,0,0,0,,0,12,12,115,1,MAWNS,HB,old,z,./images/MAWNSHB.png,,,,,,,,,,,,,,,,,,,,,,,,,,,,,,,,,,,
,,,,,,,,,,,,,,,,,5dd72efa82569a6d38e06854,39,2022-02-12_10h18.39.888,lexical_decision_task_DD_L5,2021.2.3,MacIntel,60.0024001,,,,,,,,,,,0.6161,1,,,,,,,,,,,,,,m,1,0.6161,,,,,,,,-0.025349644,-0.099816186,0,0,0,,0,13,13,23,1,CLOTH,C,old,m,./images/CLOTH.png,,,,,,,,,,,,,,,,,,,,,,,,,,,,,,,,,,,
,,,,,,,,,,,,,,,,,5dd72efa82569a6d38e06854,39,2022-02-12_10h18.39.888,lexical_decision_task_DD_L5,2021.2.3,MacIntel,60.0024001,,,,,,,,,,,0.933,1,,,,,,,,,,,,,,z,1,0.933,,,,,,,,-0.025349644,-0.099816186,0,0,0,,0,14,14,107,1,FASKS,LB,old,z,./images/FASKSLB.png,,,,,,,,,,,,,,,,,,,,,,,,,,,,,,,,,,,
,,,,,,,,,,,,,,,,,5dd72efa82569a6d38e06854,39,2022-02-12_10h18.39.888,lexical_decision_task_DD_L5,2021.2.3,MacIntel,60.0024001,,,,,,,,,,,2.4669,0,,,,,,,,,,,,,,m,0,2.4669,,,,,,,,-0.025349644,-0.099816186,0,0,0,,0,15,15,109,1,BURGE,HB,old,z,./images/BURGEHB.png,,,,,,,,,,,,,,,,,,,,,,,,,,,,,,,,,,,
,,,,,,,,,,,,,,,,,5dd72efa82569a6d38e06854,39,2022-02-12_10h18.39.888,lexical_decision_task_DD_L5,2021.2.3,MacIntel,60.0024001,,,,,,,,,,,0.6825,1,,,,,,,,,,,,,,m,1,0.6825,,,,,,,,-0.025349644,-0.099816186,0,0,0,,0,16,16,79,1,RULER,LB,old,m,./images/RULERLB.png,,,,,,,,,,,,,,,,,,,,,,,,,,,,,,,,,,,
,,,,,,,,,,,,,,,,,5dd72efa82569a6d38e06854,39,2022-02-12_10h18.39.888,lexical_decision_task_DD_L5,2021.2.3,MacIntel,60.0024001,,,,,,,,,,,0.9993,1,,,,,,,,,,,,,,z,1,0.9993,,,,,,,,-0.025349644,-0.099816186,0,0,0,,0,17,17,138,1,PLICE,C,old,z,./images/PLICE.png,,,,,,,,,,,,,,,,,,,,,,,,,,,,,,,,,,,
,,,,,,,,,,,,,,,,,5dd72efa82569a6d38e06854,39,2022-02-12_10h18.39.888,lexical_decision_task_DD_L5,2021.2.3,MacIntel,60.0024001,,,,,,,,,,,1.7271,1,,,,,,,,,,,,,,z,1,1.7271,,,,,,,,-0.025349644,-0.099816186,0,0,0,,0,18,18,124,1,TUNCH,HB,old,z,./images/TUNCHHB.png,,,,,,,,,,,,,,,,,,,,,,,,,,,,,,,,,,,
,,,,,,,,,,,,,,,,,5dd72efa82569a6d38e06854,39,2022-02-12_10h18.39.888,lexical_decision_task_DD_L5,2021.2.3,MacIntel,60.0024001,,,,,,,,,,,0.7166,1,,,,,,,,,,,,,,z,1,0.7166,,,,,,,,-0.025349644,-0.099816186,0,0,0,,0,19,19,129,1,PRANS,C,old,z,./images/PRANS.png,,,,,,,,,,,,,,,,,,,,,,,,,,,,,,,,,,,
,,,,,,,,,,,,,,,,,5dd72efa82569a6d38e06854,39,2022-02-12_10h18.39.888,lexical_decision_task_DD_L5,2021.2.3,MacIntel,60.0024001,,,,,,,,,,,1.0489,1,,,,,,,,,,,,,,z,1,1.0489,,,,,,,,-0.025349644,-0.099816186,0,0,0,,0,20,20,140,1,DOVET,LB,old,z,./images/DOVETLB.png,,,,,,,,,,,,,,,,,,,,,,,,,,,,,,,,,,,
,,,,,,,,,,,,,,,,,5dd72efa82569a6d38e06854,39,2022-02-12_10h18.39.888,lexical_decision_task_DD_L5,2021.2.3,MacIntel,60.0024001,,,,,,,,,,,1.0669,1,,,,,,,,,,,,,,m,1,1.0669,,,,,,,,-0.025349644,-0.099816186,0,0,0,,0,21,21,52,1,DESERT,LB,old,m,./images/DESERTLB.png,,,,,,,,,,,,,,,,,,,,,,,,,,,,,,,,,,,
,,,,,,,,,,,,,,,,,5dd72efa82569a6d38e06854,39,2022-02-12_10h18.39.888,lexical_decision_task_DD_L5,2021.2.3,MacIntel,60.0024001,,,,,,,,,,,0.669,1,,,,,,,,,,,,,,m,1,0.669,,,,,,,,-0.025349644,-0.099816186,0,0,0,,0,22,22,73,1,GLOVE,LB,old,m,./images/GLOVELB.png,,,,,,,,,,,,,,,,,,,,,,,,,,,,,,,,,,,
,,,,,,,,,,,,,,,,,5dd72efa82569a6d38e06854,39,2022-02-12_10h18.39.888,lexical_decision_task_DD_L5,2021.2.3,MacIntel,60.0024001,,,,,,,,,,,2.6159,1,,,,,,,,,,,,,,z,1,2.6159,,,,,,,,-0.025349644,-0.099816186,0,0,0,,0,23,23,85,1,CHULK,HB,old,z,./images/CHULKHB.png,,,,,,,,,,,,,,,,,,,,,,,,,,,,,,,,,,,
,,,,,,,,,,,,,,,,,5dd72efa82569a6d38e06854,39,2022-02-12_10h18.39.888,lexical_decision_task_DD_L5,2021.2.3,MacIntel,60.0024001,,,,,,,,,,,0.9327,1,,,,,,,,,,,,,,z,1,0.9327,,,,,,,,-0.025349644,-0.099816186,0,0,0,,0,24,24,145,1,LAMEL,HB,old,z,./images/LAMELHB.png,,,,,,,,,,,,,,,,,,,,,,,,,,,,,,,,,,,
,,,,,,,,,,,,,,,,,5dd72efa82569a6d38e06854,39,2022-02-12_10h18.39.888,lexical_decision_task_DD_L5,2021.2.3,MacIntel,60.0024001,,,,,,,,,,,1.1357,1,,,,,,,,,,,,,,z,1,1.1357,,,,,,,,-0.025349644,-0.099816186,0,0,0,,0,25,25,111,1,HOSSE,C,old,z,./images/HOSSE.png,,,,,,,,,,,,,,,,,,,,,,,,,,,,,,,,,,,
,,,,,,,,,,,,,,,,,5dd72efa82569a6d38e06854,39,2022-02-12_10h18.39.888,lexical_decision_task_DD_L5,2021.2.3,MacIntel,60.0024001,,,,,,,,,,,0.6652,1,,,,,,,,,,,,,,m,1,0.6652,,,,,,,,-0.025349644,-0.099816186,0,0,0,,0,26,26,29,1,PISTOL,C,old,m,./images/PISTOL.png,,,,,,,,,,,,,,,,,,,,,,,,,,,,,,,,,,,
,,,,,,,,,,,,,,,,,5dd72efa82569a6d38e06854,39,2022-02-12_10h18.39.888,lexical_decision_task_DD_L5,2021.2.3,MacIntel,60.0024001,,,,,,,,,,,1.1159,1,,,,,,,,,,,,,,z,1,1.1159,,,,,,,,-0.025349644,-0.099816186,0,0,0,,0,27,27,105,1,MOKER,C,old,z,./images/MOKER.png,,,,,,,,,,,,,,,,,,,,,,,,,,,,,,,,,,,
,,,,,,,,,,,,,,,,,5dd72efa82569a6d38e06854,39,2022-02-12_10h18.39.888,lexical_decision_task_DD_L5,2021.2.3,MacIntel,60.0024001,,,,,,,,,,,0.8532,1,,,,,,,,,,,,,,z,1,0.8532,,,,,,,,-0.025349644,-0.099816186,0,0,0,,0,28,28,149,1,VEASE,LB,old,z,./images/VEASELB.png,,,,,,,,,,,,,,,,,,,,,,,,,,,,,,,,,,,
,,,,,,,,,,,,,,,,,5dd72efa82569a6d38e06854,39,2022-02-12_10h18.39.888,lexical_decision_task_DD_L5,2021.2.3,MacIntel,60.0024001,,,,,,,,,,,0.9812,1,,,,,,,,,,,,,,z,1,0.9812,,,,,,,,-0.025349644,-0.099816186,0,0,0,,0,29,29,104,1,GITTY,LB,old,z,./images/GITTYLB.png,,,,,,,,,,,,,,,,,,,,,,,,,,,,,,,,,,,
,,,,,,,,,,,,,,,,,5dd72efa82569a6d38e06854,39,2022-02-12_10h18.39.888,lexical_decision_task_DD_L5,2021.2.3,MacIntel,60.0024001,,,,,,,,,,,1,0,,,,,,,,,,,,,,m,0,1,,,,,,,,-0.025349644,-0.099816186,0,0,0,,0,30,30,137,1,JOOST,LB,old,z,./images/JOOSTLB.png,,,,,,,,,,,,,,,,,,,,,,,,,,,,,,,,,,,
,,,,,,,,,,,,,,,,,5dd72efa82569a6d38e06854,39,2022-02-12_10h18.39.888,lexical_decision_task_DD_L5,2021.2.3,MacIntel,60.0024001,,,,,,,,,,,1.1333,1,,,,,,,,,,,,,,z,1,1.1333,,,,,,,,-0.025349644,-0.099816186,0,0,0,,0,31,31,154,1,THINT,HB,old,z,./images/THINTHB.png,,,,,,,,,,,,,,,,,,,,,,,,,,,,,,,,,,,
,,,,,,,,,,,,,,,,,5dd72efa82569a6d38e06854,39,2022-02-12_10h18.39.888,lexical_decision_task_DD_L5,2021.2.3,MacIntel,60.0024001,,,,,,,,,,,0.7174,1,,,,,,,,,,,,,,m,1,0.7174,,,,,,,,-0.025349644,-0.099816186,0,0,0,,0,32,32,53,1,POSTER,C,old,m,./images/POSTER.png,,,,,,,,,,,,,,,,,,,,,,,,,,,,,,,,,,,
,,,,,,,,,,,,,,,,,5dd72efa82569a6d38e06854,39,2022-02-12_10h18.39.888,lexical_decision_task_DD_L5,2021.2.3,MacIntel,60.0024001,,,,,,,,,,,0.7322,1,,,,,,,,,,,,,,m,1,0.7322,,,,,,,,-0.025349644,-0.099816186,0,0,0,,0,33,33,62,1,MAMMAL,C,old,m,./images/MAMMAL.png,,,,,,,,,,,,,,,,,,,,,,,,,,,,,,,,,,,
,,,,,,,,,,,,,,,,,5dd72efa82569a6d38e06854,39,2022-02-12_10h18.39.888,lexical_decision_task_DD_L5,2021.2.3,MacIntel,60.0024001,,,,,,,,,,,0.7493,1,,,,,,,,,,,,,,z,1,0.7493,,,,,,,,-0.025349644,-0.099816186,0,0,0,,0,34,34,87,1,TRING,C,old,z,./images/TRING.png,,,,,,,,,,,,,,,,,,,,,,,,,,,,,,,,,,,
,,,,,,,,,,,,,,,,,5dd72efa82569a6d38e06854,39,2022-02-12_10h18.39.888,lexical_decision_task_DD_L5,2021.2.3,MacIntel,60.0024001,,,,,,,,,,,0.6157,1,,,,,,,,,,,,,,m,1,0.6157,,,,,,,,-0.025349644,-0.099816186,0,0,0,,0,35,35,71,1,BUBBLE,C,old,m,./images/BUBBLE.png,,,,,,,,,,,,,,,,,,,,,,,,,,,,,,,,,,,
,,,,,,,,,,,,,,,,,5dd72efa82569a6d38e06854,39,2022-02-12_10h18.39.888,lexical_decision_task_DD_L5,2021.2.3,MacIntel,60.0024001,,,,,,,,,,,0.7163,1,,,,,,,,,,,,,,m,1,0.7163,,,,,,,,-0.025349644,-0.099816186,0,0,0,,0,36,36,46,1,MUMMY,LB,old,m,./images/MUMMYLB.png,,,,,,,,,,,,,,,,,,,,,,,,,,,,,,,,,,,
,,,,,,,,,,,,,,,,,5dd72efa82569a6d38e06854,39,2022-02-12_10h18.39.888,lexical_decision_task_DD_L5,2021.2.3,MacIntel,60.0024001,,,,,,,,,,,0.6314,1,,,,,,,,,,,,,,m,1,0.6314,,,,,,,,-0.025349644,-0.099816186,0,0,0,,0,37,37,14,1,FENCE,C,old,m,./images/FENCE.png,,,,,,,,,,,,,,,,,,,,,,,,,,,,,,,,,,,
,,,,,,,,,,,,,,,,,5dd72efa82569a6d38e06854,39,2022-02-12_10h18.39.888,lexical_decision_task_DD_L5,2021.2.3,MacIntel,60.0024001,,,,,,,,,,,0.6859,1,,,,,,,,,,,,,,z,1,0.6859,,,,,,,,-0.025349644,-0.099816186,0,0,0,,0,38,38,150,1,NOOLS,C,old,z,./images/NOOLS.png,,,,,,,,,,,,,,,,,,,,,,,,,,,,,,,,,,,
,,,,,,,,,,,,,,,,,5dd72efa82569a6d38e06854,39,2022-02-12_10h18.39.888,lexical_decision_task_DD_L5,2021.2.3,MacIntel,60.0024001,,,,,,,,,,,1.4518,1,,,,,,,,,,,,,,z,1,1.4518,,,,,,,,-0.025349644,-0.099816186,0,0,0,,0,39,39,141,1,PLEET,C,old,z,./images/PLEET.png,,,,,,,,,,,,,,,,,,,,,,,,,,,,,,,,,,,
,,,,,,,,,,,,,,,,,5dd72efa82569a6d38e06854,39,2022-02-12_10h18.39.888,lexical_decision_task_DD_L5,2021.2.3,MacIntel,60.0024001,,,,,,,,,,,1.0516,1,,,,,,,,,,,,,,m,1,1.0516,,,,,,,,-0.025349644,-0.099816186,0,0,0,,0,40,40,35,1,LLAMA,C,old,m,./images/LLAMA.png,,,,,,,,,,,,,,,,,,,,,,,,,,,,,,,,,,,
,,,,,,,,,,,,,,,,,5dd72efa82569a6d38e06854,39,2022-02-12_10h18.39.888,lexical_decision_task_DD_L5,2021.2.3,MacIntel,60.0024001,,,,,,,,,,,0.8161,1,,,,,,,,,,,,,,z,1,0.8161,,,,,,,,-0.025555365,-0.099816186,0,0,0,space,0,41,41,84,1,HAXES,C,old,z,./images/HAXES.png,5.8492,,,,,,,,,,,,,,,,,,,,,,,,,,,,,,,,,,
,,,,,,,,,,,,,,,,,5dd72efa82569a6d38e06854,39,2022-02-12_10h18.39.888,lexical_decision_task_DD_L5,2021.2.3,MacIntel,60.0024001,,,,,,,,,,,1.5526,1,,,,,,,,,,,,,,m,1,1.5526,,,,,,,,-0.025555365,-0.099816186,0,0,0,,0,42,42,8,1,CLIFF,C,old,m,./images/CLIFF.png,,,,,,,,,,,,,,,,,,,,,,,,,,,,,,,,,,,
,,,,,,,,,,,,,,,,,5dd72efa82569a6d38e06854,39,2022-02-12_10h18.39.888,lexical_decision_task_DD_L5,2021.2.3,MacIntel,60.0024001,,,,,,,,,,,0.8494,1,,,,,,,,,,,,,,z,1,0.8494,,,,,,,,-0.025555365,-0.099816186,0,0,0,,0,43,43,92,1,PAIMS,LB,old,z,./images/PAIMSLB.png,,,,,,,,,,,,,,,,,,,,,,,,,,,,,,,,,,,
,,,,,,,,,,,,,,,,,5dd72efa82569a6d38e06854,39,2022-02-12_10h18.39.888,lexical_decision_task_DD_L5,2021.2.3,MacIntel,60.0024001,,,,,,,,,,,0.7821,1,,,,,,,,,,,,,,m,1,0.7821,,,,,,,,-0.025555365,-0.099816186,0,0,0,,0,44,44,26,1,CLOUD,C,old,m,./images/CLOUD.png,,,,,,,,,,,,,,,,,,,,,,,,,,,,,,,,,,,
,,,,,,,,,,,,,,,,,5dd72efa82569a6d38e06854,39,2022-02-12_10h18.39.888,lexical_decision_task_DD_L5,2021.2.3,MacIntel,60.0024001,,,,,,,,,,,0.7828,1,,,,,,,,,,,,,,m,1,0.7828,,,,,,,,-0.025555365,-0.099816186,0,0,0,,0,45,45,25,1,CHALK,LB,old,m,./images/CHALKLB.png,,,,,,,,,,,,,,,,,,,,,,,,,,,,,,,,,,,
,,,,,,,,,,,,,,,,,5dd72efa82569a6d38e06854,39,2022-02-12_10h18.39.888,lexical_decision_task_DD_L5,2021.2.3,MacIntel,60.0024001,,,,,,,,,,,0.6662,1,,,,,,,,,,,,,,m,1,0.6662,,,,,,,,-0.025555365,-0.099816186,0,0,0,,0,46,46,58,1,CANOE,LB,old,m,./images/CANOELB.png,,,,,,,,,,,,,,,,,,,,,,,,,,,,,,,,,,,
,,,,,,,,,,,,,,,,,5dd72efa82569a6d38e06854,39,2022-02-12_10h18.39.888,lexical_decision_task_DD_L5,2021.2.3,MacIntel,60.0024001,,,,,,,,,,,0.85,1,,,,,,,,,,,,,,z,1,0.85,,,,,,,,-0.025555365,-0.099816186,0,0,0,,0,47,47,93,1,SMONE,C,old,z,./images/SMONE.png,,,,,,,,,,,,,,,,,,,,,,,,,,,,,,,,,,,
,,,,,,,,,,,,,,,,,5dd72efa82569a6d38e06854,39,2022-02-12_10h18.39.888,lexical_decision_task_DD_L5,2021.2.3,MacIntel,60.0024001,,,,,,,,,,,0.8839,0,,,,,,,,,,,,,,z,0,0.8839,,,,,,,,-0.025555365,-0.099816186,0,0,0,,0,48,48,54,1,CHERRY,HB,old,m,./images/CHERRYHB.png,,,,,,,,,,,,,,,,,,,,,,,,,,,,,,,,,,,
,,,,,,,,,,,,,,,,,5dd72efa82569a6d38e06854,39,2022-02-12_10h18.39.888,lexical_decision_task_DD_L5,2021.2.3,MacIntel,60.0024001,,,,,,,,,,,0.7994,1,,,,,,,,,,,,,,m,1,0.7994,,,,,,,,-0.025555365,-0.099816186,0,0,0,,0,49,49,69,1,ARROW,HB,old,m,./images/ARROWHB.png,,,,,,,,,,,,,,,,,,,,,,,,,,,,,,,,,,,
,,,,,,,,,,,,,,,,,5dd72efa82569a6d38e06854,39,2022-02-12_10h18.39.888,lexical_decision_task_DD_L5,2021.2.3,MacIntel,60.0024001,,,,,,,,,,,1.5155,1,,,,,,,,,,,,,,m,1,1.5155,,,,,,,,-0.025555365,-0.099816186,0,0,0,,0,50,50,12,1,BLOKE,HB,old,m,./images/BLOKEHB.png,,,,,,,,,,,,,,,,,,,,,,,,,,,,,,,,,,,
,,,,,,,,,,,,,,,,,5dd72efa82569a6d38e06854,39,2022-02-12_10h18.39.888,lexical_decision_task_DD_L5,2021.2.3,MacIntel,60.0024001,,,,,,,,,,,0.8151,1,,,,,,,,,,,,,,z,1,0.8151,,,,,,,,-0.025555365,-0.099816186,0,0,0,,0,51,51,90,1,NEAST,C,old,z,./images/NEAST.png,,,,,,,,,,,,,,,,,,,,,,,,,,,,,,,,,,,
,,,,,,,,,,,,,,,,,5dd72efa82569a6d38e06854,39,2022-02-12_10h18.39.888,lexical_decision_task_DD_L5,2021.2.3,MacIntel,60.0024001,,,,,,,,,,,1.1664,0,,,,,,,,,,,,,,m,0,1.1664,,,,,,,,-0.025555365,-0.099816186,0,0,0,,0,52,52,152,1,FRAIN,LB,old,z,./images/FRAINLB.png,,,,,,,,,,,,,,,,,,,,,,,,,,,,,,,,,,,
,,,,,,,,,,,,,,,,,5dd72efa82569a6d38e06854,39,2022-02-12_10h18.39.888,lexical_decision_task_DD_L5,2021.2.3,MacIntel,60.0024001,,,,,,,,,,,0.7162,1,,,,,,,,,,,,,,m,1,0.7162,,,,,,,,-0.025555365,-0.099816186,0,0,0,,0,53,53,61,1,ARTIST,LB,old,m,./images/ARTISTLB.png,,,,,,,,,,,,,,,,,,,,,,,,,,,,,,,,,,,
,,,,,,,,,,,,,,,,,5dd72efa82569a6d38e06854,39,2022-02-12_10h18.39.888,lexical_decision_task_DD_L5,2021.2.3,MacIntel,60.0024001,,,,,,,,,,,0.7834,1,,,,,,,,,,,,,,z,1,0.7834,,,,,,,,-0.025555365,-0.099816186,0,0,0,,0,54,54,143,1,MONGS,LB,old,z,./images/MONGSLB.png,,,,,,,,,,,,,,,,,,,,,,,,,,,,,,,,,,,
,,,,,,,,,,,,,,,,,5dd72efa82569a6d38e06854,39,2022-02-12_10h18.39.888,lexical_decision_task_DD_L5,2021.2.3,MacIntel,60.0024001,,,,,,,,,,,3.949,0,,,,,,,,,,,,,,z,0,3.949,,,,,,,,-0.025555365,-0.099816186,0,0,0,,0,55,55,33,1,SAUNA,HB,old,m,./images/SAUNAHB.png,,,,,,,,,,,,,,,,,,,,,,,,,,,,,,,,,,,
,,,,,,,,,,,,,,,,,5dd72efa82569a6d38e06854,39,2022-02-12_10h18.39.888,lexical_decision_task_DD_L5,2021.2.3,MacIntel,60.0024001,,,,,,,,,,,0.6,1,,,,,,,,,,,,,,m,1,0.6,,,,,,,,-0.025555365,-0.099816186,0,0,0,,0,56,56,64,1,BRIDE,LB,old,m,./images/BRIDELB.png,,,,,,,,,,,,,,,,,,,,,,,,,,,,,,,,,,,
,,,,,,,,,,,,,,,,,5dd72efa82569a6d38e06854,39,2022-02-12_10h18.39.888,lexical_decision_task_DD_L5,2021.2.3,MacIntel,60.0024001,,,,,,,,,,,0.7668,1,,,,,,,,,,,,,,m,1,0.7668,,,,,,,,-0.025555365,-0.099816186,0,0,0,,0,57,57,68,1,VALLEY,C,old,m,./images/VALLEY.png,,,,,,,,,,,,,,,,,,,,,,,,,,,,,,,,,,,
,,,,,,,,,,,,,,,,,5dd72efa82569a6d38e06854,39,2022-02-12_10h18.39.888,lexical_decision_task_DD_L5,2021.2.3,MacIntel,60.0024001,,,,,,,,,,,0.7657,1,,,,,,,,,,,,,,z,1,0.7657,,,,,,,,-0.025555365,-0.099816186,0,0,0,,0,58,58,119,1,PAFER,LB,old,z,./images/PAFERLB.png,,,,,,,,,,,,,,,,,,,,,,,,,,,,,,,,,,,
,,,,,,,,,,,,,,,,,5dd72efa82569a6d38e06854,39,2022-02-12_10h18.39.888,lexical_decision_task_DD_L5,2021.2.3,MacIntel,60.0024001,,,,,,,,,,,1.9834,1,,,,,,,,,,,,,,z,1,1.9834,,,,,,,,-0.025555365,-0.099816186,0,0,0,,0,59,59,97,1,CHIDS,HB,old,z,./images/CHIDSHB.png,,,,,,,,,,,,,,,,,,,,,,,,,,,,,,,,,,,
,,,,,,,,,,,,,,,,,5dd72efa82569a6d38e06854,39,2022-02-12_10h18.39.888,lexical_decision_task_DD_L5,2021.2.3,MacIntel,60.0024001,,,,,,,,,,,0.8494,1,,,,,,,,,,,,,,z,1,0.8494,,,,,,,,-0.025555365,-0.099816186,0,0,0,,0,60,60,161,1,BLAPS,LB,old,z,./images/BLAPSLB.png,,,,,,,,,,,,,,,,,,,,,,,,,,,,,,,,,,,
,,,,,,,,,,,,,,,,,5dd72efa82569a6d38e06854,39,2022-02-12_10h18.39.888,lexical_decision_task_DD_L5,2021.2.3,MacIntel,60.0024001,,,,,,,,,,,0.5161,1,,,,,,,,,,,,,,m,1,0.5161,,,,,,,,-0.025555365,-0.099816186,0,0,0,,0,61,61,44,1,BASKET,C,old,m,./images/BASKET.png,,,,,,,,,,,,,,,,,,,,,,,,,,,,,,,,,,,
,,,,,,,,,,,,,,,,,5dd72efa82569a6d38e06854,39,2022-02-12_10h18.39.888,lexical_decision_task_DD_L5,2021.2.3,MacIntel,60.0024001,,,,,,,,,,,0.7155,1,,,,,,,,,,,,,,m,1,0.7155,,,,,,,,-0.025555365,-0.099816186,0,0,0,,0,62,62,43,1,STOOL,LB,old,m,./images/STOOLLB.png,,,,,,,,,,,,,,,,,,,,,,,,,,,,,,,,,,,
,,,,,,,,,,,,,,,,,5dd72efa82569a6d38e06854,39,2022-02-12_10h18.39.888,lexical_decision_task_DD_L5,2021.2.3,MacIntel,60.0024001,,,,,,,,,,,2.2819,1,,,,,,,,,,,,,,z,1,2.2819,,,,,,,,-0.025555365,-0.099816186,0,0,0,,0,63,63,106,1,CLUMS,HB,old,z,./images/CLUMSHB.png,,,,,,,,,,,,,,,,,,,,,,,,,,,,,,,,,,,
,,,,,,,,,,,,,,,,,5dd72efa82569a6d38e06854,39,2022-02-12_10h18.39.888,lexical_decision_task_DD_L5,2021.2.3,MacIntel,60.0024001,,,,,,,,,,,0.5674,0,,,,,,,,,,,,,,m,0,0.5674,,,,,,,,-0.025555365,-0.099816186,0,0,0,,0,64,64,99,1,BACKY,C,old,z,./images/BACKY.png,,,,,,,,,,,,,,,,,,,,,,,,,,,,,,,,,,,
,,,,,,,,,,,,,,,,,5dd72efa82569a6d38e06854,39,2022-02-12_10h18.39.888,lexical_decision_task_DD_L5,2021.2.3,MacIntel,60.0024001,,,,,,,,,,,1.4679,1,,,,,,,,,,,,,,z,1,1.4679,,,,,,,,-0.025555365,-0.099816186,0,0,0,,0,65,65,120,1,RINED,C,old,z,./images/RINED.png,,,,,,,,,,,,,,,,,,,,,,,,,,,,,,,,,,,
,,,,,,,,,,,,,,,,,5dd72efa82569a6d38e06854,39,2022-02-12_10h18.39.888,lexical_decision_task_DD_L5,2021.2.3,MacIntel,60.0024001,,,,,,,,,,,1.0854,1,,,,,,,,,,,,,,z,1,1.0854,,,,,,,,-0.025555365,-0.099816186,0,0,0,,0,66,66,158,1,EGECT,LB,old,z,./images/EGECTLB.png,,,,,,,,,,,,,,,,,,,,,,,,,,,,,,,,,,,
,,,,,,,,,,,,,,,,,5dd72efa82569a6d38e06854,39,2022-02-12_10h18.39.888,lexical_decision_task_DD_L5,2021.2.3,MacIntel,60.0024001,,,,,,,,,,,0.6162,1,,,,,,,,,,,,,,z,1,0.6162,,,,,,,,-0.025555365,-0.099816186,0,0,0,,0,67,67,98,1,BAMPS,LB,old,z,./images/BAMPSLB.png,,,,,,,,,,,,,,,,,,,,,,,,,,,,,,,,,,,
,,,,,,,,,,,,,,,,,5dd72efa82569a6d38e06854,39,2022-02-12_10h18.39.888,lexical_decision_task_DD_L5,2021.2.3,MacIntel,60.0024001,,,,,,,,,,,0.7331,1,,,,,,,,,,,,,,m,1,0.7331,,,,,,,,-0.025555365,-0.099816186,0,0,0,,0,68,68,4,1,BOXER,LB,old,m,./images/BOXERLB.png,,,,,,,,,,,,,,,,,,,,,,,,,,,,,,,,,,,
,,,,,,,,,,,,,,,,,5dd72efa82569a6d38e06854,39,2022-02-12_10h18.39.888,lexical_decision_task_DD_L5,2021.2.3,MacIntel,60.0024001,,,,,,,,,,,0.95,1,,,,,,,,,,,,,,m,1,0.95,,,,,,,,-0.025555365,-0.099816186,0,0,0,,0,69,69,49,1,BISHOP,LB,old,m,./images/BISHOPLB.png,,,,,,,,,,,,,,,,,,,,,,,,,,,,,,,,,,,
,,,,,,,,,,,,,,,,,5dd72efa82569a6d38e06854,39,2022-02-12_10h18.39.888,lexical_decision_task_DD_L5,2021.2.3,MacIntel,60.0024001,,,,,,,,,,,1.3157,1,,,,,,,,,,,,,,z,1,1.3157,,,,,,,,-0.025555365,-0.099816186,0,0,0,,0,70,70,132,1,SCIFF,C,old,z,./images/SCIFF.png,,,,,,,,,,,,,,,,,,,,,,,,,,,,,,,,,,,
,,,,,,,,,,,,,,,,,5dd72efa82569a6d38e06854,39,2022-02-12_10h18.39.888,lexical_decision_task_DD_L5,2021.2.3,MacIntel,60.0024001,,,,,,,,,,,0.883,1,,,,,,,,,,,,,,m,1,0.883,,,,,,,,-0.025555365,-0.099816186,0,0,0,,0,71,71,59,1,BRUSH,C,old,m,./images/BRUSH.png,,,,,,,,,,,,,,,,,,,,,,,,,,,,,,,,,,,
,,,,,,,,,,,,,,,,,5dd72efa82569a6d38e06854,39,2022-02-12_10h18.39.888,lexical_decision_task_DD_L5,2021.2.3,MacIntel,60.0024001,,,,,,,,,,,1.2609,1,,,,,,,,,,,,,,m,1,1.2609,,,,,,,,-0.025555365,-0.099816186,0,0,0,,0,72,72,81,1,DRILL,HB,old,m,./images/DRILLHB.png,,,,,,,,,,,,,,,,,,,,,,,,,,,,,,,,,,,
,,,,,,,,,,,,,,,,,5dd72efa82569a6d38e06854,39,2022-02-12_10h18.39.888,lexical_decision_task_DD_L5,2021.2.3,MacIntel,60.0024001,,,,,,,,,,,0.8976,1,,,,,,,,,,,,,,m,1,0.8976,,,,,,,,-0.025555365,-0.099816186,0,0,0,,0,73,73,72,1,FLASK,HB,old,m,./images/FLASKHB.png,,,,,,,,,,,,,,,,,,,,,,,,,,,,,,,,,,,
,,,,,,,,,,,,,,,,,5dd72efa82569a6d38e06854,39,2022-02-12_10h18.39.888,lexical_decision_task_DD_L5,2021.2.3,MacIntel,60.0024001,,,,,,,,,,,1.3322,1,,,,,,,,,,,,,,m,1,1.3322,,,,,,,,-0.025555365,-0.099816186,0,0,0,,0,74,74,21,1,DANCER,HB,old,m,./images/DANCERHB.png,,,,,,,,,,,,,,,,,,,,,,,,,,,,,,,,,,,
,,,,,,,,,,,,,,,,,5dd72efa82569a6d38e06854,39,2022-02-12_10h18.39.888,lexical_decision_task_DD_L5,2021.2.3,MacIntel,60.0024001,,,,,,,,,,,0.6839,1,,,,,,,,,,,,,,m,1,0.6839,,,,,,,,-0.025555365,-0.099816186,0,0,0,,0,75,75,80,1,PLANET,C,old,m,./images/PLANET.png,,,,,,,,,,,,,,,,,,,,,,,,,,,,,,,,,,,
,,,,,,,,,,,,,,,,,5dd72efa82569a6d38e06854,39,2022-02-12_10h18.39.888,lexical_decision_task_DD_L5,2021.2.3,MacIntel,60.0024001,,,,,,,,,,,1.2994,1,,,,,,,,,,,,,,z,1,1.2994,,,,,,,,-0.025555365,-0.099816186,0,0,0,,0,76,76,127,1,NINDY,HB,old,z,./images/NINDYHB.png,,,,,,,,,,,,,,,,,,,,,,,,,,,,,,,,,,,
,,,,,,,,,,,,,,,,,5dd72efa82569a6d38e06854,39,2022-02-12_10h18.39.888,lexical_decision_task_DD_L5,2021.2.3,MacIntel,60.0024001,,,,,,,,,,,0.8327,1,,,,,,,,,,,,,,z,1,0.8327,,,,,,,,-0.025555365,-0.099816186,0,0,0,,0,77,77,117,1,STEEG,C,old,z,./images/STEEG.png,,,,,,,,,,,,,,,,,,,,,,,,,,,,,,,,,,,
,,,,,,,,,,,,,,,,,5dd72efa82569a6d38e06854,39,2022-02-12_10h18.39.888,lexical_decision_task_DD_L5,2021.2.3,MacIntel,60.0024001,,,,,,,,,,,1.1497,0,,,,,,,,,,,,,,z,0,1.1497,,,,,,,,-0.025555365,-0.099816186,0,0,0,,0,78,78,60,1,CURRY,HB,old,m,./images/CURRYHB.png,,,,,,,,,,,,,,,,,,,,,,,,,,,,,,,,,,,
,,,,,,,,,,,,,,,,,5dd72efa82569a6d38e06854,39,2022-02-12_10h18.39.888,lexical_decision_task_DD_L5,2021.2.3,MacIntel,60.0024001,,,,,,,,,,,1.8527,0,,,,,,,,,,,,,,z,0,1.8527,,,,,,,,-0.025555365,-0.099816186,0,0,0,,0,79,79,63,1,BAKER,HB,old,m,./images/BAKERHB.png,,,,,,,,,,,,,,,,,,,,,,,,,,,,,,,,,,,
,,,,,,,,,,,,,,,,,5dd72efa82569a6d38e06854,39,2022-02-12_10h18.39.888,lexical_decision_task_DD_L5,2021.2.3,MacIntel,60.0024001,,,,,,,,,,,1.7991,1,,,,,,,,,,,,,,m,1,1.7991,,,,,,,,-0.025555365,-0.099816186,0,0,0,,0,80,80,0,1,WALNUT,HB,old,m,./images/WALNUTHB.png,,,,,,,,,,,,,,,,,,,,,,,,,,,,,,,,,,,
,,,,,,,,,,,,,,,,,5dd72efa82569a6d38e06854,39,2022-02-12_10h18.39.888,lexical_decision_task_DD_L5,2021.2.3,MacIntel,60.0024001,,,,,,,,,,,1.2172,1,,,,,,,,,,,,,,z,1,1.2172,,,,,,,,-0.025555365,-0.099816186,0,0,0,,0,81,81,108,1,GRUET,C,old,z,./images/GRUET.png,,,,,,,,,,,,,,,,,,,,,,,,,,,,,,,,,,,
,,,,,,,,,,,,,,,,,5dd72efa82569a6d38e06854,39,2022-02-12_10h18.39.888,lexical_decision_task_DD_L5,2021.2.3,MacIntel,60.0024001,,,,,,,,,,,6.3664,1,,,,,,,,,,,,,,m,1,6.3664,,,,,,,,-0.025555365,-0.099816186,0,0,0,,0,82,82,6,1,STAIN,HB,old,m,./images/STAINHB.png,,,,,,,,,,,,,,,,,,,,,,,,,,,,,,,,,,,
,,,,,,,,,,,,,,,,,5dd72efa82569a6d38e06854,39,2022-02-12_10h18.39.888,lexical_decision_task_DD_L5,2021.2.3,MacIntel,60.0024001,,,,,,,,,,,1.3162,1,,,,,,,,,,,,,,z,1,1.3162,,,,,,,,-0.025555365,-0.099816186,0,0,0,space,0,83,83,148,1,JOMS,HB,old,z,./images/JOMSHB.png,2.2028,,,,,,,,,,,,,,,,,,,,,,,,,,,,,,,,,,
,,,,,,,,,,,,,,,,,5dd72efa82569a6d38e06854,39,2022-02-12_10h18.39.888,lexical_decision_task_DD_L5,2021.2.3,MacIntel,60.0024001,,,,,,,,,,,2.5665,1,,,,,,,,,,,,,,z,1,2.5665,,,,,,,,-0.025555365,-0.099816186,0,0,0,,0,84,84,121,1,CEERS,HB,old,z,./images/CEERSHB.png,,,,,,,,,,,,,,,,,,,,,,,,,,,,,,,,,,,
,,,,,,,,,,,,,,,,,5dd72efa82569a6d38e06854,39,2022-02-12_10h18.39.888,lexical_decision_task_DD_L5,2021.2.3,MacIntel,60.0024001,,,,,,,,,,,0.8673,0,,,,,,,,,,,,,,m,0,0.8673,,,,,,,,-0.025555365,-0.099816186,0,0,0,,0,85,85,128,1,GRIFT,LB,old,z,./images/GRIFTLB.png,,,,,,,,,,,,,,,,,,,,,,,,,,,,,,,,,,,
,,,,,,,,,,,,,,,,,5dd72efa82569a6d38e06854,39,2022-02-12_10h18.39.888,lexical_decision_task_DD_L5,2021.2.3,MacIntel,60.0024001,,,,,,,,,,,1.6328,1,,,,,,,,,,,,,,z,1,1.6328,,,,,,,,-0.025555365,-0.099816186,0,0,0,,0,86,86,86,1,AIFED,LB,old,z,./images/AIFEDLB.png,,,,,,,,,,,,,,,,,,,,,,,,,,,,,,,,,,,
,,,,,,,,,,,,,,,,,5dd72efa82569a6d38e06854,39,2022-02-12_10h18.39.888,lexical_decision_task_DD_L5,2021.2.3,MacIntel,60.0024001,,,,,,,,,,,0.732,1,,,,,,,,,,,,,,m,1,0.732,,,,,,,,-0.025555365,-0.099816186,0,0,0,,0,87,87,20,1,GRANNY,C,old,m,./images/GRANNY.png,,,,,,,,,,,,,,,,,,,,,,,,,,,,,,,,,,,
,,,,,,,,,,,,,,,,,5dd72efa82569a6d38e06854,39,2022-02-12_10h18.39.888,lexical_decision_task_DD_L5,2021.2.3,MacIntel,60.0024001,,,,,,,,,,,0.9317,1,,,,,,,,,,,,,,z,1,0.9317,,,,,,,,-0.025555365,-0.099816186,0,0,0,,0,88,88,146,1,MOOST,LB,old,z,./images/MOOSTLB.png,,,,,,,,,,,,,,,,,,,,,,,,,,,,,,,,,,,
,,,,,,,,,,,,,,,,,5dd72efa82569a6d38e06854,39,2022-02-12_10h18.39.888,lexical_decision_task_DD_L5,2021.2.3,MacIntel,60.0024001,,,,,,,,,,,0.9157,1,,,,,,,,,,,,,,z,1,0.9157,,,,,,,,-0.025555365,-0.099816186,0,0,0,,0,89,89,153,1,CLUPS,C,old,z,./images/CLUPS.png,,,,,,,,,,,,,,,,,,,,,,,,,,,,,,,,,,,
,,,,,,,,,,,,,,,,,5dd72efa82569a6d38e06854,39,2022-02-12_10h18.39.888,lexical_decision_task_DD_L5,2021.2.3,MacIntel,60.0024001,,,,,,,,,,,0.9165,1,,,,,,,,,,,,,,z,1,0.9165,,,,,,,,-0.025555365,-0.099816186,0,0,0,,0,90,90,113,1,LINEW,LB,old,z,./images/LINEWLB.png,,,,,,,,,,,,,,,,,,,,,,,,,,,,,,,,,,,
,,,,,,,,,,,,,,,,,5dd72efa82569a6d38e06854,39,2022-02-12_10h18.39.888,lexical_decision_task_DD_L5,2021.2.3,MacIntel,60.0024001,,,,,,,,,,,0.6993,1,,,,,,,,,,,,,,m,1,0.6993,,,,,,,,-0.025555365,-0.099816186,0,0,0,,0,91,91,2,1,STOVE,C,old,m,./images/STOVE.png,,,,,,,,,,,,,,,,,,,,,,,,,,,,,,,,,,,
,,,,,,,,,,,,,,,,,5dd72efa82569a6d38e06854,39,2022-02-12_10h18.39.888,lexical_decision_task_DD_L5,2021.2.3,MacIntel,60.0024001,,,,,,,,,,,1.7188,1,,,,,,,,,,,,,,z,1,1.7188,,,,,,,,-0.025555365,-0.099816186,0,0,0,,0,92,92,126,1,GUELS,C,old,z,./images/GUELS.png,,,,,,,,,,,,,,,,,,,,,,,,,,,,,,,,,,,
,,,,,,,,,,,,,,,,,5dd72efa82569a6d38e06854,39,2022-02-12_10h18.39.888,lexical_decision_task_DD_L5,2021.2.3,MacIntel,60.0024001,,,,,,,,,,,0.9322,1,,,,,,,,,,,,,,m,1,0.9322,,,,,,,,-0.025555365,-0.099816186,0,0,0,,0,93,93,51,1,SAUCE,HB,old,m,./images/SAUCEHB.png,,,,,,,,,,,,,,,,,,,,,,,,,,,,,,,,,,,
,,,,,,,,,,,,,,,,,5dd72efa82569a6d38e06854,39,2022-02-12_10h18.39.888,lexical_decision_task_DD_L5,2021.2.3,MacIntel,60.0024001,,,,,,,,,,,1.6492,1,,,,,,,,,,,,,,m,1,1.6492,,,,,,,,-0.025555365,-0.099816186,0,0,0,,0,94,94,3,1,CRATER,HB,old,m,./images/CRATERHB.png,,,,,,,,,,,,,,,,,,,,,,,,,,,,,,,,,,,
,,,,,,,,,,,,,,,,,5dd72efa82569a6d38e06854,39,2022-02-12_10h18.39.888,lexical_decision_task_DD_L5,2021.2.3,MacIntel,60.0024001,,,,,,,,,,,1.1,1,,,,,,,,,,,,,,z,1,1.1,,,,,,,,-0.025555365,-0.099816186,0,0,0,,0,95,95,130,1,CRILL,HB,old,z,./images/CRILLHB.png,,,,,,,,,,,,,,,,,,,,,,,,,,,,,,,,,,,
,,,,,,,,,,,,,,,,,5dd72efa82569a6d38e06854,39,2022-02-12_10h18.39.888,lexical_decision_task_DD_L5,2021.2.3,MacIntel,60.0024001,,,,,,,,,,,0.7336,0,,,,,,,,,,,,,,z,0,0.7336,,,,,,,,-0.025555365,-0.099816186,0,0,0,,0,96,96,45,1,MONKEY,HB,old,m,./images/MONKEYHB.png,,,,,,,,,,,,,,,,,,,,,,,,,,,,,,,,,,,
,,,,,,,,,,,,,,,,,5dd72efa82569a6d38e06854,39,2022-02-12_10h18.39.888,lexical_decision_task_DD_L5,2021.2.3,MacIntel,60.0024001,,,,,,,,,,,0.9851,1,,,,,,,,,,,,,,m,1,0.9851,,,,,,,,-0.025555365,-0.099816186,0,0,0,,0,97,97,78,1,BROOM,HB,old,m,./images/BROOMHB.png,,,,,,,,,,,,,,,,,,,,,,,,,,,,,,,,,,,
,,,,,,,,,,,,,,,,,5dd72efa82569a6d38e06854,39,2022-02-12_10h18.39.888,lexical_decision_task_DD_L5,2021.2.3,MacIntel,60.0024001,,,,,,,,,,,0.7332,1,,,,,,,,,,,,,,m,1,0.7332,,,,,,,,-0.025555365,-0.099816186,0,0,0,,0,98,98,83,1,WHISKY,C,old,m,./images/WHISKY.png,,,,,,,,,,,,,,,,,,,,,,,,,,,,,,,,,,,
,,,,,,,,,,,,,,,,,5dd72efa82569a6d38e06854,39,2022-02-12_10h18.39.888,lexical_decision_task_DD_L5,2021.2.3,MacIntel,60.0024001,,,,,,,,,,,2.6159,1,,,,,,,,,,,,,,m,1,2.6159,,,,,,,,-0.025555365,-0.099816186,0,0,0,,0,99,99,75,1,HAMMER,HB,old,m,./images/HAMMERHB.png,,,,,,,,,,,,,,,,,,,,,,,,,,,,,,,,,,,
,,,,,,,,,,,,,,,,,5dd72efa82569a6d38e06854,39,2022-02-12_10h18.39.888,lexical_decision_task_DD_L5,2021.2.3,MacIntel,60.0024001,,,,,,,,,,,1.6334,1,,,,,,,,,,,,,,m,1,1.6334,,,,,,,,-0.025555365,-0.099816186,0,0,0,,0,100,100,9,1,DIVER,HB,old,m,./images/DIVERHB.png,,,,,,,,,,,,,,,,,,,,,,,,,,,,,,,,,,,
,,,,,,,,,,,,,,,,,5dd72efa82569a6d38e06854,39,2022-02-12_10h18.39.888,lexical_decision_task_DD_L5,2021.2.3,MacIntel,60.0024001,,,,,,,,,,,0.6688,1,,,,,,,,,,,,,,z,1,0.6688,,,,,,,,-0.025555365,-0.099816186,0,0,0,,0,101,101,167,1,ZONET,LB,old,z,./images/ZONETLB.png,,,,,,,,,,,,,,,,,,,,,,,,,,,,,,,,,,,
,,,,,,,,,,,,,,,,,5dd72efa82569a6d38e06854,39,2022-02-12_10h18.39.888,lexical_decision_task_DD_L5,2021.2.3,MacIntel,60.0024001,,,,,,,,,,,0.8189,1,,,,,,,,,,,,,,z,1,0.8189,,,,,,,,-0.025555365,-0.099816186,0,0,0,,0,102,102,151,1,TINKY,HB,old,z,./images/TINKYHB.png,,,,,,,,,,,,,,,,,,,,,,,,,,,,,,,,,,,
,,,,,,,,,,,,,,,,,5dd72efa82569a6d38e06854,39,2022-02-12_10h18.39.888,lexical_decision_task_DD_L5,2021.2.3,MacIntel,60.0024001,,,,,,,,,,,0.8652,1,,,,,,,,,,,,,,z,1,0.8652,,,,,,,,-0.025555365,-0.099816186,0,0,0,,0,103,103,165,1,TROWN,C,old,z,./images/TROWN.png,,,,,,,,,,,,,,,,,,,,,,,,,,,,,,,,,,,
,,,,,,,,,,,,,,,,,5dd72efa82569a6d38e06854,39,2022-02-12_10h18.39.888,lexical_decision_task_DD_L5,2021.2.3,MacIntel,60.0024001,,,,,,,,,,,0.7163,1,,,,,,,,,,,,,,m,1,0.7163,,,,,,,,-0.025555365,-0.099816186,0,0,0,,0,104,104,82,1,PEBBLE,LB,old,m,./images/PEBBLELB.png,,,,,,,,,,,,,,,,,,,,,,,,,,,,,,,,,,,
,,,,,,,,,,,,,,,,,5dd72efa82569a6d38e06854,39,2022-02-12_10h18.39.888,lexical_decision_task_DD_L5,2021.2.3,MacIntel,60.0024001,,,,,,,,,,,0.933,1,,,,,,,,,,,,,,z,1,0.933,,,,,,,,-0.025555365,-0.099816186,0,0,0,,0,105,105,163,1,GAMBA,HB,old,z,./images/GAMBAHB.png,,,,,,,,,,,,,,,,,,,,,,,,,,,,,,,,,,,
,,,,,,,,,,,,,,,,,5dd72efa82569a6d38e06854,39,2022-02-12_10h18.39.888,lexical_decision_task_DD_L5,2021.2.3,MacIntel,60.0024001,,,,,,,,,,,0.7162,1,,,,,,,,,,,,,,m,1,0.7162,,,,,,,,-0.025555365,-0.099816186,0,0,0,,0,106,106,22,1,CLOWN,LB,old,m,./images/CLOWNLB.png,,,,,,,,,,,,,,,,,,,,,,,,,,,,,,,,,,,
,,,,,,,,,,,,,,,,,5dd72efa82569a6d38e06854,39,2022-02-12_10h18.39.888,lexical_decision_task_DD_L5,2021.2.3,MacIntel,60.0024001,,,,,,,,,,,0.7157,1,,,,,,,,,,,,,,m,1,0.7157,,,,,,,,-0.025555365,-0.099816186,0,0,0,,0,107,107,70,1,BANANA,LB,old,m,./images/BANANALB.png,,,,,,,,,,,,,,,,,,,,,,,,,,,,,,,,,,,
,,,,,,,,,,,,,,,,,5dd72efa82569a6d38e06854,39,2022-02-12_10h18.39.888,lexical_decision_task_DD_L5,2021.2.3,MacIntel,60.0024001,,,,,,,,,,,0.6111,1,,,,,,,,,,,,,,m,1,0.6111,,,,,,,,-0.025555365,-0.099816186,0,0,0,,0,108,108,34,1,RAZOR,LB,old,m,./images/RAZORLB.png,,,,,,,,,,,,,,,,,,,,,,,,,,,,,,,,,,,
,,,,,,,,,,,,,,,,,5dd72efa82569a6d38e06854,39,2022-02-12_10h18.39.888,lexical_decision_task_DD_L5,2021.2.3,MacIntel,60.0024001,,,,,,,,,,,0.7329,1,,,,,,,,,,,,,,z,1,0.7329,,,,,,,,-0.025555365,-0.099816186,0,0,0,,0,109,109,131,1,NACES,LB,old,z,./images/NACESLB.png,,,,,,,,,,,,,,,,,,,,,,,,,,,,,,,,,,,
,,,,,,,,,,,,,,,,,5dd72efa82569a6d38e06854,39,2022-02-12_10h18.39.888,lexical_decision_task_DD_L5,2021.2.3,MacIntel,60.0024001,,,,,,,,,,,3.4947,1,,,,,,,,,,,,,,z,1,3.4947,,,,,,,,-0.025555365,-0.099816186,0,0,0,,0,110,110,139,1,BLEAR,HB,old,z,./images/BLEARHB.png,,,,,,,,,,,,,,,,,,,,,,,,,,,,,,,,,,,
,,,,,,,,,,,,,,,,,5dd72efa82569a6d38e06854,39,2022-02-12_10h18.39.888,lexical_decision_task_DD_L5,2021.2.3,MacIntel,60.0024001,,,,,,,,,,,0.6181,1,,,,,,,,,,,,,,m,1,0.6181,,,,,,,,-0.025555365,-0.099816186,0,0,0,,0,111,111,32,1,HOCKEY,C,old,m,./images/HOCKEY.png,,,,,,,,,,,,,,,,,,,,,,,,,,,,,,,,,,,
,,,,,,,,,,,,,,,,,5dd72efa82569a6d38e06854,39,2022-02-12_10h18.39.888,lexical_decision_task_DD_L5,2021.2.3,MacIntel,60.0024001,,,,,,,,,,,0.6941,1,,,,,,,,,,,,,,z,1,0.6941,,,,,,,,-0.025555365,-0.099816186,0,0,0,,0,112,112,134,1,TROSS,LB,old,z,./images/TROSSLB.png,,,,,,,,,,,,,,,,,,,,,,,,,,,,,,,,,,,
,,,,,,,,,,,,,,,,,5dd72efa82569a6d38e06854,39,2022-02-12_10h18.39.888,lexical_decision_task_DD_L5,2021.2.3,MacIntel,60.0024001,,,,,,,,,,,0.6013,1,,,,,,,,,,,,,,m,1,0.6013,,,,,,,,-0.025555365,-0.099816186,0,0,0,,0,113,113,41,1,STREAM,C,old,m,./images/STREAM.png,,,,,,,,,,,,,,,,,,,,,,,,,,,,,,,,,,,
,,,,,,,,,,,,,,,,,5dd72efa82569a6d38e06854,39,2022-02-12_10h18.39.888,lexical_decision_task_DD_L5,2021.2.3,MacIntel,60.0024001,,,,,,,,,,,1.8495,1,,,,,,,,,,,,,,m,1,1.8495,,,,,,,,-0.025555365,-0.099816186,0,0,0,,0,114,114,66,1,STATUE,HB,old,m,./images/STATUEHB.png,,,,,,,,,,,,,,,,,,,,,,,,,,,,,,,,,,,
,,,,,,,,,,,,,,,,,5dd72efa82569a6d38e06854,39,2022-02-12_10h18.39.888,lexical_decision_task_DD_L5,2021.2.3,MacIntel,60.0024001,,,,,,,,,,,0.716,1,,,,,,,,,,,,,,m,1,0.716,,,,,,,,-0.025555365,-0.099816186,0,0,0,,0,115,115,18,1,PARCEL,HB,old,m,./images/PARCELHB.png,,,,,,,,,,,,,,,,,,,,,,,,,,,,,,,,,,,
,,,,,,,,,,,,,,,,,5dd72efa82569a6d38e06854,39,2022-02-12_10h18.39.888,lexical_decision_task_DD_L5,2021.2.3,MacIntel,60.0024001,,,,,,,,,,,0.9158,1,,,,,,,,,,,,,,m,1,0.9158,,,,,,,,-0.025555365,-0.099816186,0,0,0,,0,116,116,15,1,COLLAR,HB,old,m,./images/COLLARHB.png,,,,,,,,,,,,,,,,,,,,,,,,,,,,,,,,,,,
,,,,,,,,,,,,,,,,,5dd72efa82569a6d38e06854,39,2022-02-12_10h18.39.888,lexical_decision_task_DD_L5,2021.2.3,MacIntel,60.0024001,,,,,,,,,,,0.5996,1,,,,,,,,,,,,,,m,1,0.5996,,,,,,,,-0.025555365,-0.099816186,0,0,0,,0,117,117,19,1,DONKEY,LB,old,m,./images/DONKEYLB.png,,,,,,,,,,,,,,,,,,,,,,,,,,,,,,,,,,,
,,,,,,,,,,,,,,,,,5dd72efa82569a6d38e06854,39,2022-02-12_10h18.39.888,lexical_decision_task_DD_L5,2021.2.3,MacIntel,60.0024001,,,,,,,,,,,1.1165,1,,,,,,,,,,,,,,z,1,1.1165,,,,,,,,-0.025555365,-0.099816186,0,0,0,,0,118,118,118,1,BAVEL,HB,old,z,./images/BAVELHB.png,,,,,,,,,,,,,,,,,,,,,,,,,,,,,,,,,,,
,,,,,,,,,,,,,,,,,5dd72efa82569a6d38e06854,39,2022-02-12_10h18.39.888,lexical_decision_task_DD_L5,2021.2.3,MacIntel,60.0024001,,,,,,,,,,,1.9182,1,,,,,,,,,,,,,,z,1,1.9182,,,,,,,,-0.025555365,-0.099816186,0,0,0,,0,119,119,88,1,GLUSH,HB,old,z,./images/GLUSHHB.png,,,,,,,,,,,,,,,,,,,,,,,,,,,,,,,,,,,
,,,,,,,,,,,,,,,,,5dd72efa82569a6d38e06854,39,2022-02-12_10h18.39.888,lexical_decision_task_DD_L5,2021.2.3,MacIntel,60.0024001,,,,,,,,,,,0.7515,1,,,,,,,,,,,,,,z,1,0.7515,,,,,,,,-0.025555365,-0.099816186,0,0,0,,0,120,120,89,1,DRIEK,LB,old,z,./images/DRIEKLB.png,,,,,,,,,,,,,,,,,,,,,,,,,,,,,,,,,,,
,,,,,,,,,,,,,,,,,5dd72efa82569a6d38e06854,39,2022-02-12_10h18.39.888,lexical_decision_task_DD_L5,2021.2.3,MacIntel,60.0024001,,,,,,,,,,,0.7497,1,,,,,,,,,,,,,,z,1,0.7497,,,,,,,,-0.025555365,-0.099816186,0,0,0,,0,121,121,100,1,DRIBS,HB,old,z,./images/DRIBSHB.png,,,,,,,,,,,,,,,,,,,,,,,,,,,,,,,,,,,
,,,,,,,,,,,,,,,,,5dd72efa82569a6d38e06854,39,2022-02-12_10h18.39.888,lexical_decision_task_DD_L5,2021.2.3,MacIntel,60.0024001,,,,,,,,,,,1.1991,1,,,,,,,,,,,,,,m,1,1.1991,,,,,,,,-0.025555365,-0.099816186,0,0,0,,0,122,122,11,1,MEDAL,C,old,m,./images/MEDAL.png,,,,,,,,,,,,,,,,,,,,,,,,,,,,,,,,,,,
,,,,,,,,,,,,,,,,,5dd72efa82569a6d38e06854,39,2022-02-12_10h18.39.888,lexical_decision_task_DD_L5,2021.2.3,MacIntel,60.0024001,,,,,,,,,,,0.7823,1,,,,,,,,,,,,,,z,1,0.7823,,,,,,,,-0.025555365,-0.099816186,0,0,0,,0,123,123,133,1,POWDY,HB,old,z,./images/POWDYHB.png,,,,,,,,,,,,,,,,,,,,,,,,,,,,,,,,,,,
,,,,,,,,,,,,,,,,,5dd72efa82569a6d38e06854,39,2022-02-12_10h18.39.888,lexical_decision_task_DD_L5,2021.2.3,MacIntel,60.0024001,,,,,,,,,,,0.6824,1,,,,,,,,,,,,,,m,1,0.6824,,,,,,,,-0.025555365,-0.099816186,0,0,0,,0,124,124,40,1,SNAKE,LB,old,m,./images/SNAKELB.png,,,,,,,,,,,,,,,,,,,,,,,,,,,,,,,,,,,
,,,,,,,,,,,,,,,,,5dd72efa82569a6d38e06854,39,2022-02-12_10h18.39.888,lexical_decision_task_DD_L5,2021.2.3,MacIntel,60.0024001,,,,,,,,,,,1.2611,1,,,,,,,,,,,,,,m,1,1.2611,,,,,,,,-0.025555365,-0.099816186,0,0,0,space,0,125,125,27,1,BUTTER,HB,old,m,./images/BUTTERHB.png,4.9498,,,,,,,,,,,,,,,,,,,,,,,,,,,,,,,,,,
,,,,,,,,,,,,,,,,,5dd72efa82569a6d38e06854,39,2022-02-12_10h18.39.888,lexical_decision_task_DD_L5,2021.2.3,MacIntel,60.0024001,,,,,,,,,,,0.6665,1,,,,,,,,,,,,,,m,1,0.6665,,,,,,,,-0.025555365,-0.099816186,0,0,0,,0,126,126,7,1,WAGON,LB,old,m,./images/WAGONLB.png,,,,,,,,,,,,,,,,,,,,,,,,,,,,,,,,,,,
,,,,,,,,,,,,,,,,,5dd72efa82569a6d38e06854,39,2022-02-12_10h18.39.888,lexical_decision_task_DD_L5,2021.2.3,MacIntel,60.0024001,,,,,,,,,,,0.6686,1,,,,,,,,,,,,,,z,1,0.6686,,,,,,,,-0.025555365,-0.099816186,0,0,0,,0,127,127,147,1,ZOLES,C,old,z,./images/ZOLES.png,,,,,,,,,,,,,,,,,,,,,,,,,,,,,,,,,,,
,,,,,,,,,,,,,,,,,5dd72efa82569a6d38e06854,39,2022-02-12_10h18.39.888,lexical_decision_task_DD_L5,2021.2.3,MacIntel,60.0024001,,,,,,,,,,,0.7177,1,,,,,,,,,,,,,,m,1,0.7177,,,,,,,,-0.025555365,-0.099816186,0,0,0,,0,128,128,47,1,LAGOON,C,old,m,./images/LAGOON.png,,,,,,,,,,,,,,,,,,,,,,,,,,,,,,,,,,,
,,,,,,,,,,,,,,,,,5dd72efa82569a6d38e06854,39,2022-02-12_10h18.39.888,lexical_decision_task_DD_L5,2021.2.3,MacIntel,60.0024001,,,,,,,,,,,0.7662,1,,,,,,,,,,,,,,m,1,0.7662,,,,,,,,-0.025555365,-0.099816186,0,0,0,,0,129,129,13,1,BUNNY,LB,old,m,./images/BUNNYLB.png,,,,,,,,,,,,,,,,,,,,,,,,,,,,,,,,,,,
,,,,,,,,,,,,,,,,,5dd72efa82569a6d38e06854,39,2022-02-12_10h18.39.888,lexical_decision_task_DD_L5,2021.2.3,MacIntel,60.0024001,,,,,,,,,,,1.5161,1,,,,,,,,,,,,,,z,1,1.5161,,,,,,,,-0.025555365,-0.099816186,0,0,0,,0,130,130,157,1,INLER,HB,old,z,./images/INLERHB.png,,,,,,,,,,,,,,,,,,,,,,,,,,,,,,,,,,,
,,,,,,,,,,,,,,,,,5dd72efa82569a6d38e06854,39,2022-02-12_10h18.39.888,lexical_decision_task_DD_L5,2021.2.3,MacIntel,60.0024001,,,,,,,,,,,1.5665,1,,,,,,,,,,,,,,z,1,1.5665,,,,,,,,-0.025555365,-0.099816186,0,0,0,,0,131,131,112,1,MYING,HB,old,z,./images/MYINGHB.png,,,,,,,,,,,,,,,,,,,,,,,,,,,,,,,,,,,
,,,,,,,,,,,,,,,,,5dd72efa82569a6d38e06854,39,2022-02-12_10h18.39.888,lexical_decision_task_DD_L5,2021.2.3,MacIntel,60.0024001,,,,,,,,,,,0.6155,1,,,,,,,,,,,,,,z,1,0.6155,,,,,,,,-0.025555365,-0.099816186,0,0,0,,0,132,132,96,1,KEAMS,C,old,z,./images/KEAMS.png,,,,,,,,,,,,,,,,,,,,,,,,,,,,,,,,,,,
,,,,,,,,,,,,,,,,,5dd72efa82569a6d38e06854,39,2022-02-12_10h18.39.888,lexical_decision_task_DD_L5,2021.2.3,MacIntel,60.0024001,,,,,,,,,,,0.7165,1,,,,,,,,,,,,,,m,1,0.7165,,,,,,,,-0.025555365,-0.099816186,0,0,0,,0,133,133,76,1,MIDGET,LB,old,m,./images/MIDGETLB.png,,,,,,,,,,,,,,,,,,,,,,,,,,,,,,,,,,,
,,,,,,,,,,,,,,,,,5dd72efa82569a6d38e06854,39,2022-02-12_10h18.39.888,lexical_decision_task_DD_L5,2021.2.3,MacIntel,60.0024001,,,,,,,,,,,0.6679,1,,,,,,,,,,,,,,m,1,0.6679,,,,,,,,-0.025555365,-0.099816186,0,0,0,,0,134,134,50,1,PILOT,C,old,m,./images/PILOT.png,,,,,,,,,,,,,,,,,,,,,,,,,,,,,,,,,,,
,,,,,,,,,,,,,,,,,5dd72efa82569a6d38e06854,39,2022-02-12_10h18.39.888,lexical_decision_task_DD_L5,2021.2.3,MacIntel,60.0024001,,,,,,,,,,,0.8002,1,,,,,,,,,,,,,,z,1,0.8002,,,,,,,,-0.025555365,-0.099816186,0,0,0,,0,135,135,122,1,BLOOT,LB,old,z,./images/BLOOTLB.png,,,,,,,,,,,,,,,,,,,,,,,,,,,,,,,,,,,
,,,,,,,,,,,,,,,,,5dd72efa82569a6d38e06854,39,2022-02-12_10h18.39.888,lexical_decision_task_DD_L5,2021.2.3,MacIntel,60.0024001,,,,,,,,,,,0.8836,1,,,,,,,,,,,,,,m,1,0.8836,,,,,,,,-0.025555365,-0.099816186,0,0,0,,0,136,136,24,1,FLESH,HB,old,m,./images/FLESHHB.png,,,,,,,,,,,,,,,,,,,,,,,,,,,,,,,,,,,
,,,,,,,,,,,,,,,,,5dd72efa82569a6d38e06854,39,2022-02-12_10h18.39.888,lexical_decision_task_DD_L5,2021.2.3,MacIntel,60.0024001,,,,,,,,,,,0.6653,1,,,,,,,,,,,,,,m,1,0.6653,,,,,,,,-0.025555365,-0.099816186,0,0,0,,0,137,137,38,1,ENGINE,C,old,m,./images/ENGINE.png,,,,,,,,,,,,,,,,,,,,,,,,,,,,,,,,,,,
,,,,,,,,,,,,,,,,,5dd72efa82569a6d38e06854,39,2022-02-12_10h18.39.888,lexical_decision_task_DD_L5,2021.2.3,MacIntel,60.0024001,,,,,,,,,,,0.5691,1,,,,,,,,,,,,,,m,1,0.5691,,,,,,,,-0.025555365,-0.099816186,0,0,0,,0,138,138,67,1,POKER,LB,old,m,./images/POKERLB.png,,,,,,,,,,,,,,,,,,,,,,,,,,,,,,,,,,,
,,,,,,,,,,,,,,,,,5dd72efa82569a6d38e06854,39,2022-02-12_10h18.39.888,lexical_decision_task_DD_L5,2021.2.3,MacIntel,60.0024001,,,,,,,,,,,1.0489,1,,,,,,,,,,,,,,m,1,1.0489,,,,,,,,-0.025555365,-0.099816186,0,0,0,,0,139,139,74,1,JUMPER,C,old,m,./images/JUMPER.png,,,,,,,,,,,,,,,,,,,,,,,,,,,,,,,,,,,
,,,,,,,,,,,,,,,,,5dd72efa82569a6d38e06854,39,2022-02-12_10h18.39.888,lexical_decision_task_DD_L5,2021.2.3,MacIntel,60.0024001,,,,,,,,,,,0.5828,1,,,,,,,,,,,,,,m,1,0.5828,,,,,,,,-0.025555365,-0.099816186,0,0,0,,0,140,140,10,1,GARDEN,LB,old,m,./images/GARDENLB.png,,,,,,,,,,,,,,,,,,,,,,,,,,,,,,,,,,,
,,,,,,,,,,,,,,,,,5dd72efa82569a6d38e06854,39,2022-02-12_10h18.39.888,lexical_decision_task_DD_L5,2021.2.3,MacIntel,60.0024001,,,,,,,,,,,0.7669,1,,,,,,,,,,,,,,z,1,0.7669,,,,,,,,-0.025555365,-0.099816186,0,0,0,,0,141,141,101,1,GLEET,LB,old,z,./images/GLEETLB.png,,,,,,,,,,,,,,,,,,,,,,,,,,,,,,,,,,,
,,,,,,,,,,,,,,,,,5dd72efa82569a6d38e06854,39,2022-02-12_10h18.39.888,lexical_decision_task_DD_L5,2021.2.3,MacIntel,60.0024001,,,,,,,,,,,0.616,1,,,,,,,,,,,,,,z,1,0.616,,,,,,,,-0.025555365,-0.099816186,0,0,0,,0,142,142,116,1,BALGY,LB,old,z,./images/BALGYLB.png,,,,,,,,,,,,,,,,,,,,,,,,,,,,,,,,,,,
,,,,,,,,,,,,,,,,,5dd72efa82569a6d38e06854,39,2022-02-12_10h18.39.888,lexical_decision_task_DD_L5,2021.2.3,MacIntel,60.0024001,,,,,,,,,,,0.6827,1,,,,,,,,,,,,,,m,1,0.6827,,,,,,,,-0.025555365,-0.099816186,0,0,0,,0,143,143,37,1,TIGER,LB,old,m,./images/TIGERLB.png,,,,,,,,,,,,,,,,,,,,,,,,,,,,,,,,,,,
,,,,,,,,,,,,,,,,,5dd72efa82569a6d38e06854,39,2022-02-12_10h18.39.888,lexical_decision_task_DD_L5,2021.2.3,MacIntel,60.0024001,,,,,,,,,,,0.5854,1,,,,,,,,,,,,,,m,1,0.5854,,,,,,,,-0.025555365,-0.099816186,0,0,0,,0,144,144,17,1,PARADE,C,old,m,./images/PARADE.png,,,,,,,,,,,,,,,,,,,,,,,,,,,,,,,,,,,
,,,,,,,,,,,,,,,,,5dd72efa82569a6d38e06854,39,2022-02-12_10h18.39.888,lexical_decision_task_DD_L5,2021.2.3,MacIntel,60.0024001,,,,,,,,,,,0.6493,1,,,,,,,,,,,,,,z,1,0.6493,,,,,,,,-0.025555365,-0.099816186,0,0,0,,0,145,145,125,1,MOOKY,LB,old,z,./images/MOOKYLB.png,,,,,,,,,,,,,,,,,,,,,,,,,,,,,,,,,,,
,,,,,,,,,,,,,,,,,5dd72efa82569a6d38e06854,39,2022-02-12_10h18.39.888,lexical_decision_task_DD_L5,2021.2.3,MacIntel,60.0024001,,,,,,,,,,,0.7499,1,,,,,,,,,,,,,,z,1,0.7499,,,,,,,,-0.025555365,-0.099816186,0,0,0,,0,146,146,114,1,RIKES,C,old,z,./images/RIKES.png,,,,,,,,,,,,,,,,,,,,,,,,,,,,,,,,,,,
,,,,,,,,,,,,,,,,,5dd72efa82569a6d38e06854,39,2022-02-12_10h18.39.888,lexical_decision_task_DD_L5,2021.2.3,MacIntel,60.0024001,,,,,,,,,,,1.0492,0,,,,,,,,,,,,,,z,0,1.0492,,,,,,,,-0.025555365,-0.099816186,0,0,0,,0,147,147,57,1,FERRY,HB,old,m,./images/FERRYHB.png,,,,,,,,,,,,,,,,,,,,,,,,,,,,,,,,,,,
,,,,,,,,,,,,,,,,,5dd72efa82569a6d38e06854,39,2022-02-12_10h18.39.888,lexical_decision_task_DD_L5,2021.2.3,MacIntel,60.0024001,,,,,,,,,,,0.5826,1,,,,,,,,,,,,,,m,1,0.5826,,,,,,,,-0.025555365,-0.099816186,0,0,0,,0,148,148,31,1,STEAK,LB,old,m,./images/STEAKLB.png,,,,,,,,,,,,,,,,,,,,,,,,,,,,,,,,,,,
,,,,,,,,,,,,,,,,,5dd72efa82569a6d38e06854,39,2022-02-12_10h18.39.888,lexical_decision_task_DD_L5,2021.2.3,MacIntel,60.0024001,,,,,,,,,,,3.3493,1,,,,,,,,,,,,,,z,1,3.3493,,,,,,,,-0.025555365,-0.099816186,0,0,0,,0,149,149,110,1,CRUNK,LB,old,z,./images/CRUNKLB.png,,,,,,,,,,,,,,,,,,,,,,,,,,,,,,,,,,,
,,,,,,,,,,,,,,,,,5dd72efa82569a6d38e06854,39,2022-02-12_10h18.39.888,lexical_decision_task_DD_L5,2021.2.3,MacIntel,60.0024001,,,,,,,,,,,0.849,1,,,,,,,,,,,,,,m,1,0.849,,,,,,,,-0.025555365,-0.099816186,0,0,0,,0,150,150,5,1,BAMBOO,C,old,m,./images/BAMBOO.png,,,,,,,,,,,,,,,,,,,,,,,,,,,,,,,,,,,
,,,,,,,,,,,,,,,,,5dd72efa82569a6d38e06854,39,2022-02-12_10h18.39.888,lexical_decision_task_DD_L5,2021.2.3,MacIntel,60.0024001,,,,,,,,,,,0.7823,1,,,,,,,,,,,,,,z,1,0.7823,,,,,,,,-0.025555365,-0.099816186,0,0,0,,0,151,151,135,1,JOODY,C,old,z,./images/JOODY.png,,,,,,,,,,,,,,,,,,,,,,,,,,,,,,,,,,,
,,,,,,,,,,,,,,,,,5dd72efa82569a6d38e06854,39,2022-02-12_10h18.39.888,lexical_decision_task_DD_L5,2021.2.3,MacIntel,60.0024001,,,,,,,,,,,0.7162,1,,,,,,,,,,,,,,m,1,0.7162,,,,,,,,-0.025555365,-0.099816186,0,0,0,,0,152,152,55,1,ALLEY,LB,old,m,./images/ALLEYLB.png,,,,,,,,,,,,,,,,,,,,,,,,,,,,,,,,,,,
,,,,,,,,,,,,,,,,,5dd72efa82569a6d38e06854,39,2022-02-12_10h18.39.888,lexical_decision_task_DD_L5,2021.2.3,MacIntel,60.0024001,,,,,,,,,,,0.5824,1,,,,,,,,,,,,,,z,1,0.5824,,,,,,,,-0.025555365,-0.099816186,0,0,0,,0,153,153,156,1,HIXES,C,old,z,./images/HIXES.png,,,,,,,,,,,,,,,,,,,,,,,,,,,,,,,,,,,
,,,,,,,,,,,,,,,,,5dd72efa82569a6d38e06854,39,2022-02-12_10h18.39.888,lexical_decision_task_DD_L5,2021.2.3,MacIntel,60.0024001,,,,,,,,,,,2.8819,1,,,,,,,,,,,,,,m,1,2.8819,,,,,,,,-0.025555365,-0.099816186,0,0,0,,0,154,154,36,1,BOILER,HB,old,m,./images/BOILERHB.png,,,,,,,,,,,,,,,,,,,,,,,,,,,,,,,,,,,
,,,,,,,,,,,,,,,,,5dd72efa82569a6d38e06854,39,2022-02-12_10h18.39.888,lexical_decision_task_DD_L5,2021.2.3,MacIntel,60.0024001,,,,,,,,,,,0.6659,1,,,,,,,,,,,,,,m,1,0.6659,,,,,,,,-0.025555365,-0.099816186,0,0,0,,0,155,155,77,1,WHEEL,C,old,m,./images/WHEEL.png,,,,,,,,,,,,,,,,,,,,,,,,,,,,,,,,,,,
,,,,,,,,,,,,,,,,,5dd72efa82569a6d38e06854,39,2022-02-12_10h18.39.888,lexical_decision_task_DD_L5,2021.2.3,MacIntel,60.0024001,,,,,,,,,,,0.8504,1,,,,,,,,,,,,,,z,1,0.8504,,,,,,,,-0.025555365,-0.099816186,0,0,0,,0,156,156,160,1,VEETS,HB,old,z,./images/VEETSHB.png,,,,,,,,,,,,,,,,,,,,,,,,,,,,,,,,,,,
,,,,,,,,,,,,,,,,,5dd72efa82569a6d38e06854,39,2022-02-12_10h18.39.888,lexical_decision_task_DD_L5,2021.2.3,MacIntel,60.0024001,,,,,,,,,,,0.6824,1,,,,,,,,,,,,,,m,1,0.6824,,,,,,,,-0.025555365,-0.099816186,0,0,0,,0,157,157,16,1,GRAPE,LB,old,m,./images/GRAPELB.png,,,,,,,,,,,,,,,,,,,,,,,,,,,,,,,,,,,
,,,,,,,,,,,,,,,,,5dd72efa82569a6d38e06854,39,2022-02-12_10h18.39.888,lexical_decision_task_DD_L5,2021.2.3,MacIntel,60.0024001,,,,,,,,,,,0.6486,1,,,,,,,,,,,,,,m,1,0.6486,,,,,,,,-0.025555365,-0.099816186,0,0,0,,0,158,158,65,1,SPINE,C,old,m,./images/SPINE.png,,,,,,,,,,,,,,,,,,,,,,,,,,,,,,,,,,,
,,,,,,,,,,,,,,,,,5dd72efa82569a6d38e06854,39,2022-02-12_10h18.39.888,lexical_decision_task_DD_L5,2021.2.3,MacIntel,60.0024001,,,,,,,,,,,0.6493,1,,,,,,,,,,,,,,m,1,0.6493,,,,,,,,-0.025555365,-0.099816186,0,0,0,,0,159,159,28,1,CASINO,LB,old,m,./images/CASINOLB.png,,,,,,,,,,,,,,,,,,,,,,,,,,,,,,,,,,,
,,,,,,,,,,,,,,,,,5dd72efa82569a6d38e06854,39,2022-02-12_10h18.39.888,lexical_decision_task_DD_L5,2021.2.3,MacIntel,60.0024001,,,,,,,,,,,2.7672,1,,,,,,,,,,,,,,z,1,2.7672,,,,,,,,-0.025555365,-0.099816186,0,0,0,,0,160,160,103,1,FLORT,HB,old,z,./images/FLORTHB.png,,,,,,,,,,,,,,,,,,,,,,,,,,,,,,,,,,,
,,,,,,,,,,,,,,,,,5dd72efa82569a6d38e06854,39,2022-02-12_10h18.39.888,lexical_decision_task_DD_L5,2021.2.3,MacIntel,60.0024001,,,,,,,,,,,1.6841,1,,,,,,,,,,,,,,z,1,1.6841,,,,,,,,-0.025555365,-0.099816186,0,0,0,,0,161,161,164,1,SGREW,LB,old,z,./images/SGREWLB.png,,,,,,,,,,,,,,,,,,,,,,,,,,,,,,,,,,,
,,,,,,,,,,,,,,,,,5dd72efa82569a6d38e06854,39,2022-02-12_10h18.39.888,lexical_decision_task_DD_L5,2021.2.3,MacIntel,60.0024001,,,,,,,,,,,1.8521,1,,,,,,,,,,,,,,z,1,1.8521,,,,,,,,-0.025555365,-0.099816186,0,0,0,,0,162,162,166,1,SHORY,HB,old,z,./images/SHORYHB.png,,,,,,,,,,,,,,,,,,,,,,,,,,,,,,,,,,,
,,,,,,,,,,,,,,,,,5dd72efa82569a6d38e06854,39,2022-02-12_10h18.39.888,lexical_decision_task_DD_L5,2021.2.3,MacIntel,60.0024001,,,,,,,,,,,5.516,1,,,,,,,,,,,,,,z,1,5.516,,,,,,,,-0.025555365,-0.099816186,0,0,0,,0,163,163,144,1,NAIRY,C,old,z,./images/NAIRY.png,,,,,,,,,,,,,,,,,,,,,,,,,,,,,,,,,,,
,,,,,,,,,,,,,,,,,5dd72efa82569a6d38e06854,39,2022-02-12_10h18.39.888,lexical_decision_task_DD_L5,2021.2.3,MacIntel,60.0024001,,,,,,,,,,,0.8171,1,,,,,,,,,,,,,,z,1,0.8171,,,,,,,,-0.025555365,-0.099816186,0,0,0,,0,164,164,95,1,HANTY,LB,old,z,./images/HANTYLB.png,,,,,,,,,,,,,,,,,,,,,,,,,,,,,,,,,,,
,,,,,,,,,,,,,,,,,5dd72efa82569a6d38e06854,39,2022-02-12_10h18.39.888,lexical_decision_task_DD_L5,2021.2.3,MacIntel,60.0024001,,,,,,,,,,,1.3823,0,,,,,,,,,,,,,,z,0,1.3823,,,,,,,,-0.025555365,-0.099816186,0,0,0,,0,165,165,48,1,SHIELD,HB,old,m,./images/SHIELDHB.png,,,,,,,,,,,,,,,,,,,,,,,,,,,,,,,,,,,
,,,,,,,,,,,,,,,,,5dd72efa82569a6d38e06854,39,2022-02-12_10h18.39.888,lexical_decision_task_DD_L5,2021.2.3,MacIntel,60.0024001,,,,,,,,,,,0.5336,1,,,,,,,,,,,,,,z,1,0.5336,,,,,,,,-0.025555365,-0.099816186,0,0,0,,0,166,166,123,1,SEDGE,C,old,z,./images/SEDGE.png,,,,,,,,,,,,,,,,,,,,,,,,,,,,,,,,,,,
,,,,,,,,,,,,,,,,,5dd72efa82569a6d38e06854,39,2022-02-12_10h18.39.888,lexical_decision_task_DD_L5,2021.2.3,MacIntel,60.0024001,,,,,,,,,,,1.0002,1,,,,,,,,,,,,,,z,1,1.0002,,,,,,,,-0.025555365,-0.099816186,0,0,0,,0,167,167,102,1,DULLE,C,old,z,./images/DULLE.png,,,,,,,,,,,,,,,,,,,,,,,,,,,,,,,,,,,
,,,,,,,,,,,,,,,,,5dd72efa82569a6d38e06854,39,2022-02-12_10h18.39.888,lexical_decision_task_DD_L5,2021.2.3,MacIntel,60.0024001,,,,,,,,,,,,,,,,,,,,,,,,,,,,,,,,,,,,,,,,,,,,,,,,How likely will it be that you will recognize the words presented clearly on a scale of 0 (not likely) to 100 (most likely)?,,,,,0.015216827,-0.407099152,1,0,0,jol_adv,3,5.1332,0,0,0,0,1,,,,,,,,,,,,,,,,,,,,,
,,,,,,,,,,,,,,,,,5dd72efa82569a6d38e06854,39,2022-02-12_10h18.39.888,lexical_decision_task_DD_L5,2021.2.3,MacIntel,60.0024001,,,,,,,,,,,,,,,,,,,,,,,,,,,,,,,,,,,,,,,,,,,,,,,,How likely will it be that you will recognize the words presented very blurred on a scale of 0 (not likely) to 100 (most likely)?,,,,,,,,,,,1,5.8385,0,1,1,2,1,,,,,,,,,,,,,,,,,,,,,
,,,,,,,,,,,,,,,,,5dd72efa82569a6d38e06854,39,2022-02-12_10h18.39.888,lexical_decision_task_DD_L5,2021.2.3,MacIntel,60.0024001,,,,,,,,,,,,,,,,,,,,,,,,,,,,,,,,,,,,,,,,,,,,,,,,How likely will it be that you will recognize the words presented slighly blurred on a scale of 0 (not likely) to 100 (most likely)?,,,,,,,,,,,5,4.5986,0,2,2,1,1,,,,,,,,,,,,,,,,,,,,,
,,0.067133331,-0.375867244,1,0,0,,,,,,1,test,"In the next phase you will be presented with the words from the the first phase. Your job is to decide whether you remember seeing the word or not. If you remember seeing the word press ""old"" or type ""m"". If you do not remember seeing the word press ""new"" or type ""z"". Please press the space bar or click on continue to begin. ",,,5dd72efa82569a6d38e06854,39,2022-02-12_10h18.39.888,lexical_decision_task_DD_L5,2021.2.3,MacIntel,60.0024001,,,,,,,,,,,,,,,,,,,,,,,,,,,,,,,,,,,,,,,,,,,,,,,,,,,,,,,,,,,,,,,,,,instr_done_button,0,0,0,0,1,,,,,,,,,,,,,,,
,,0.061345836,-0.390008,1,0,0,,,,,,1,test,"In the next phase you will be presented with the words from the the first phase. Your job is to decide whether you remember seeing the word or not. If you remember seeing the word press ""old"" or type ""m"". If you do not remember seeing the word press ""new"" or type ""z"". Please press the space bar or click on continue to begin. ",,,5dd72efa82569a6d38e06854,39,2022-02-12_10h18.39.888,lexical_decision_task_DD_L5,2021.2.3,MacIntel,60.0024001,,,,,,,,,,,,,,,,,,,,,,,,,,,,,,,,,,,,,,,,,,,,,,,,,,,,,,,,,,,,,,,,,,instr_done_button,1,0,1,0,1,,,,,,,,,,,,,,,
space,1.0666,0.061345836,-0.390008,0,0,0,,,,,,1,test,"In the next phase you will be presented with the words from the the first phase. Your job is to decide whether you remember seeing the word or not. If you remember seeing the word press ""old"" or type ""m"". If you do not remember seeing the word press ""new"" or type ""z"". Please press the space bar or click on continue to begin. ",,,5dd72efa82569a6d38e06854,39,2022-02-12_10h18.39.888,lexical_decision_task_DD_L5,2021.2.3,MacIntel,60.0024001,,,,,,,,,,,,,,,,,,,,,,,,,,,,,,,,,,,,,,,,,,,,,,,,,,,,,,,,,,,,,,,,,,,2,0,2,0,1,,,,,,,,,,,,,,,
space,1.3841,0.062359456,-0.384166173,0,0,0,,,,,,1,test,"In the next phase you will be presented with the words from the the first phase. Your job is to decide whether you remember seeing the word or not. If you remember seeing the word press ""old"" or type ""m"". If you do not remember seeing the word press ""new"" or type ""z"". Please press the space bar or click on continue to begin. ",,,5dd72efa82569a6d38e06854,39,2022-02-12_10h18.39.888,lexical_decision_task_DD_L5,2021.2.3,MacIntel,60.0024001,,,,,,,,,,,,,,,,,,,,,,,,,,,,,,,,,,,,,,,,,,,,,,,,,,,,,,,,,,,,,,,,,,,3,0,3,0,1,,,,,,,,,,,,,,,
,,0.062359456,-0.384166173,1,0,0,,,,,,1,test,"In the next phase you will be presented with the words from the the first phase. Your job is to decide whether you remember seeing the word or not. If you remember seeing the word press ""old"" or type ""m"". If you do not remember seeing the word press ""new"" or type ""z"". Please press the space bar or click on continue to begin. ",,,5dd72efa82569a6d38e06854,39,2022-02-12_10h18.39.888,lexical_decision_task_DD_L5,2021.2.3,MacIntel,60.0024001,,,,,,,,,,,,,,,,,,,,,,,,,,,,,,,,,,,,,,,,,,,,,,,,,,,,,,,,,,,,,,,,,,instr_done_button,4,0,4,0,1,,,,,,,,,,,,,,,
,,,,,,,,,,,,,,,,,5dd72efa82569a6d38e06854,39,2022-02-12_10h18.39.888,lexical_decision_task_DD_L5,2021.2.3,MacIntel,60.0024001,,,,,,,,,,,3.8317,1,,,,,,,,,,,,,,,,,,,,,,,,0.065689795,-0.396265248,0,0,0,,,,,,,COLLAR,HB,m,y,./images/COLLARHB.png,,,,,,,,,,,,,,,,,,,,,m,1,3.8317,,,,,,,,0,0,0,15,1
,,,,,,,,,,,,,,,,,5dd72efa82569a6d38e06854,39,2022-02-12_10h18.39.888,lexical_decision_task_DD_L5,2021.2.3,MacIntel,60.0024001,,,,,,,,,,,1.082,0,,,,,,,,,,,,,,,,,,,,,,,,0.065689795,-0.396265248,0,0,0,,,,,,,SNACK,LB,z,y,./images/SNACKLB.png,,,,,,,,,,,,,,,,,,,,,m,0,1.082,,,,,,,,0,1,1,157,1
,,,,,,,,,,,,,,,,,5dd72efa82569a6d38e06854,39,2022-02-12_10h18.39.888,lexical_decision_task_DD_L5,2021.2.3,MacIntel,60.0024001,,,,,,,,,,,3.1695,0,,,,,,,,,,,,,,,,,,,,,,,,0.053323746,-0.499986049,0,0,0,,,,,,,HEATER,C,m,y,./images/HEATER.png,,,,,,,,,,,,,,,,,,,,,z,0,3.1695,,,,,,,,0,2,2,56,1
,,,,,,,,,,,,,,,,,5dd72efa82569a6d38e06854,39,2022-02-12_10h18.39.888,lexical_decision_task_DD_L5,2021.2.3,MacIntel,60.0024001,,,,,,,,,,,1.1329,1,,,,,,,,,,,,,,,,,,,,,,,,0.053323746,-0.499986049,0,0,0,,,,,,,RHINO,HB,z,y,./images/RHINOHB.png,,,,,,,,,,,,,,,,,,,,,z,1,1.1329,,,,,,,,0,3,3,93,1
,,,,,,,,,,,,,,,,,5dd72efa82569a6d38e06854,39,2022-02-12_10h18.39.888,lexical_decision_task_DD_L5,2021.2.3,MacIntel,60.0024001,,,,,,,,,,,1.7463,1,,,,,,,,,,,,,,,,,,,,,,,,0.053323746,-0.499986049,0,0,0,,,,,,,SHELF,HB,z,y,./images/SHELFHB.png,,,,,,,,,,,,,,,,,,,,,z,1,1.7463,,,,,,,,0,4,4,123,1
,,,,,,,,,,,,,,,,,5dd72efa82569a6d38e06854,39,2022-02-12_10h18.39.888,lexical_decision_task_DD_L5,2021.2.3,MacIntel,60.0024001,,,,,,,,,,,0.8135,1,,,,,,,,,,,,,,,,,,,,,,,,0.053323746,-0.499986049,0,0,0,,,,,,,SKIING,C,z,y,./images/SKIING.png,,,,,,,,,,,,,,,,,,,,,z,1,0.8135,,,,,,,,0,5,5,101,1
,,,,,,,,,,,,,,,,,5dd72efa82569a6d38e06854,39,2022-02-12_10h18.39.888,lexical_decision_task_DD_L5,2021.2.3,MacIntel,60.0024001,,,,,,,,,,,0.9001,1,,,,,,,,,,,,,,,,,,,,,,,,0.053323746,-0.499986049,0,0,0,,,,,,,INFANT,LB,z,y,./images/INFANTLB.png,,,,,,,,,,,,,,,,,,,,,z,1,0.9001,,,,,,,,0,6,6,160,1
,,,,,,,,,,,,,,,,,5dd72efa82569a6d38e06854,39,2022-02-12_10h18.39.888,lexical_decision_task_DD_L5,2021.2.3,MacIntel,60.0024001,,,,,,,,,,,0.7886,1,,,,,,,,,,,,,,,,,,,,,,,,0.053323746,-0.499986049,0,0,0,,,,,,,WEASEL,C,z,y,./images/WEASEL.png,,,,,,,,,,,,,,,,,,,,,z,1,0.7886,,,,,,,,0,7,7,164,1
,,,,,,,,,,,,,,,,,5dd72efa82569a6d38e06854,39,2022-02-12_10h18.39.888,lexical_decision_task_DD_L5,2021.2.3,MacIntel,60.0024001,,,,,,,,,,,1.8268,1,,,,,,,,,,,,,,,,,,,,,,,,0.053323746,-0.499986049,0,0,0,,,,,,,ATTIC,HB,z,y,./images/ATTICHB.png,,,,,,,,,,,,,,,,,,,,,z,1,1.8268,,,,,,,,0,8,8,111,1
,,,,,,,,,,,,,,,,,5dd72efa82569a6d38e06854,39,2022-02-12_10h18.39.888,lexical_decision_task_DD_L5,2021.2.3,MacIntel,60.0024001,,,,,,,,,,,0.9313,1,,,,,,,,,,,,,,,,,,,,,,,,0.053323746,-0.499986049,0,0,0,,,,,,,NOOSE,HB,z,y,./images/NOOSEHB.png,,,,,,,,,,,,,,,,,,,,,z,1,0.9313,,,,,,,,0,9,9,156,1
,,,,,,,,,,,,,,,,,5dd72efa82569a6d38e06854,39,2022-02-12_10h18.39.888,lexical_decision_task_DD_L5,2021.2.3,MacIntel,60.0024001,,,,,,,,,,,0.8606,1,,,,,,,,,,,,,,,,,,,,,,,,0.053323746,-0.499986049,0,0,0,,,,,,,RAZOR,LB,m,y,./images/RAZORLB.png,,,,,,,,,,,,,,,,,,,,,m,1,0.8606,,,,,,,,0,10,10,34,1
,,,,,,,,,,,,,,,,,5dd72efa82569a6d38e06854,39,2022-02-12_10h18.39.888,lexical_decision_task_DD_L5,2021.2.3,MacIntel,60.0024001,,,,,,,,,,,1.2322,1,,,,,,,,,,,,,,,,,,,,,,,,0.053323746,-0.499986049,0,0,0,,,,,,,SMOKER,C,z,y,./images/SMOKER.png,,,,,,,,,,,,,,,,,,,,,z,1,1.2322,,,,,,,,0,11,11,110,1
,,,,,,,,,,,,,,,,,5dd72efa82569a6d38e06854,39,2022-02-12_10h18.39.888,lexical_decision_task_DD_L5,2021.2.3,MacIntel,60.0024001,,,,,,,,,,,1.3605,1,,,,,,,,,,,,,,,,,,,,,,,,0.053323746,-0.499986049,0,0,0,,,,,,,FARMER,C,z,y,./images/FARMER.png,,,,,,,,,,,,,,,,,,,,,z,1,1.3605,,,,,,,,0,12,12,149,1
,,,,,,,,,,,,,,,,,5dd72efa82569a6d38e06854,39,2022-02-12_10h18.39.888,lexical_decision_task_DD_L5,2021.2.3,MacIntel,60.0024001,,,,,,,,,,,1.0068,1,,,,,,,,,,,,,,,,,,,,,,,,0.053323746,-0.499986049,0,0,0,,,,,,,STRING,C,z,y,./images/STRING.png,,,,,,,,,,,,,,,,,,,,,z,1,1.0068,,,,,,,,0,13,13,125,1
,,,,,,,,,,,,,,,,,5dd72efa82569a6d38e06854,39,2022-02-12_10h18.39.888,lexical_decision_task_DD_L5,2021.2.3,MacIntel,60.0024001,,,,,,,,,,,0.8489,1,,,,,,,,,,,,,,,,,,,,,,,,0.053323746,-0.499986049,0,0,0,,,,,,,TORCH,C,z,y,./images/TORCH.png,,,,,,,,,,,,,,,,,,,,,z,1,0.8489,,,,,,,,0,14,14,152,1
,,,,,,,,,,,,,,,,,5dd72efa82569a6d38e06854,39,2022-02-12_10h18.39.888,lexical_decision_task_DD_L5,2021.2.3,MacIntel,60.0024001,,,,,,,,,,,0.9574,1,,,,,,,,,,,,,,,,,,,,,,,,0.053323746,-0.499986049,0,0,0,,,,,,,WALNUT,HB,m,y,./images/WALNUTHB.png,,,,,,,,,,,,,,,,,,,,,m,1,0.9574,,,,,,,,0,15,15,0,1
,,,,,,,,,,,,,,,,,5dd72efa82569a6d38e06854,39,2022-02-12_10h18.39.888,lexical_decision_task_DD_L5,2021.2.3,MacIntel,60.0024001,,,,,,,,,,,0.625,1,,,,,,,,,,,,,,,,,,,,,,,,0.053323746,-0.499986049,0,0,0,,,,,,,CLIFF,C,m,y,./images/CLIFF.png,,,,,,,,,,,,,,,,,,,,,m,1,0.625,,,,,,,,0,16,16,8,1
,,,,,,,,,,,,,,,,,5dd72efa82569a6d38e06854,39,2022-02-12_10h18.39.888,lexical_decision_task_DD_L5,2021.2.3,MacIntel,60.0024001,,,,,,,,,,,1.191,1,,,,,,,,,,,,,,,,,,,,,,,,0.053323746,-0.499986049,0,0,0,,,,,,,CRUST,LB,z,y,./images/CRUSTLB.png,,,,,,,,,,,,,,,,,,,,,z,1,1.191,,,,,,,,0,17,17,163,1
,,,,,,,,,,,,,,,,,5dd72efa82569a6d38e06854,39,2022-02-12_10h18.39.888,lexical_decision_task_DD_L5,2021.2.3,MacIntel,60.0024001,,,,,,,,,,,0.8647,0,,,,,,,,,,,,,,,,,,,,,,,,0.053323746,-0.499986049,0,0,0,,,,,,,SAUNA,HB,m,y,./images/SAUNAHB.png,,,,,,,,,,,,,,,,,,,,,z,0,0.8647,,,,,,,,0,18,18,33,1
,,,,,,,,,,,,,,,,,5dd72efa82569a6d38e06854,39,2022-02-12_10h18.39.888,lexical_decision_task_DD_L5,2021.2.3,MacIntel,60.0024001,,,,,,,,,,,0.9554,1,,,,,,,,,,,,,,,,,,,,,,,,0.053323746,-0.499986049,0,0,0,,,,,,,STAIN,HB,m,y,./images/STAINHB.png,,,,,,,,,,,,,,,,,,,,,m,1,0.9554,,,,,,,,0,19,19,6,1
,,,,,,,,,,,,,,,,,5dd72efa82569a6d38e06854,39,2022-02-12_10h18.39.888,lexical_decision_task_DD_L5,2021.2.3,MacIntel,60.0024001,,,,,,,,,,,1.1859,0,,,,,,,,,,,,,,,,,,,,,,,,0.053323746,-0.499986049,0,0,0,,,,,,,CARPET,C,z,y,./images/CARPET.png,,,,,,,,,,,,,,,,,,,,,m,0,1.1859,,,,,,,,0,20,20,137,1
,,,,,,,,,,,,,,,,,5dd72efa82569a6d38e06854,39,2022-02-12_10h18.39.888,lexical_decision_task_DD_L5,2021.2.3,MacIntel,60.0024001,,,,,,,,,,,0.823,1,,,,,,,,,,,,,,,,,,,,,,,,0.053323746,-0.499986049,0,0,0,,,,,,,PEACH,C,z,y,./images/PEACH.png,,,,,,,,,,,,,,,,,,,,,z,1,0.823,,,,,,,,0,21,21,119,1
,,,,,,,,,,,,,,,,,5dd72efa82569a6d38e06854,39,2022-02-12_10h18.39.888,lexical_decision_task_DD_L5,2021.2.3,MacIntel,60.0024001,,,,,,,,,,,0.8317,1,,,,,,,,,,,,,,,,,,,,,,,,0.053323746,-0.499986049,0,0,0,,,,,,,JAGUAR,HB,z,y,./images/JAGUARHB.png,,,,,,,,,,,,,,,,,,,,,z,1,0.8317,,,,,,,,0,22,22,102,1
,,,,,,,,,,,,,,,,,5dd72efa82569a6d38e06854,39,2022-02-12_10h18.39.888,lexical_decision_task_DD_L5,2021.2.3,MacIntel,60.0024001,,,,,,,,,,,0.9111,1,,,,,,,,,,,,,,,,,,,,,,,,0.053323746,-0.499986049,0,0,0,,,,,,,FOLDER,HB,z,y,./images/FOLDERHB.png,,,,,,,,,,,,,,,,,,,,,z,1,0.9111,,,,,,,,0,23,23,126,1
,,,,,,,,,,,,,,,,,5dd72efa82569a6d38e06854,39,2022-02-12_10h18.39.888,lexical_decision_task_DD_L5,2021.2.3,MacIntel,60.0024001,,,,,,,,,,,0.7601,1,,,,,,,,,,,,,,,,,,,,,,,,0.053323746,-0.499986049,0,0,0,,,,,,,BLOKE,HB,m,y,./images/BLOKEHB.png,,,,,,,,,,,,,,,,,,,,,m,1,0.7601,,,,,,,,0,24,24,12,1
,,,,,,,,,,,,,,,,,5dd72efa82569a6d38e06854,39,2022-02-12_10h18.39.888,lexical_decision_task_DD_L5,2021.2.3,MacIntel,60.0024001,,,,,,,,,,,0.6827,1,,,,,,,,,,,,,,,,,,,,,,,,0.053323746,-0.499986049,0,0,0,,,,,,,CHALK,LB,m,y,./images/CHALKLB.png,,,,,,,,,,,,,,,,,,,,,m,1,0.6827,,,,,,,,0,25,25,25,1
,,,,,,,,,,,,,,,,,5dd72efa82569a6d38e06854,39,2022-02-12_10h18.39.888,lexical_decision_task_DD_L5,2021.2.3,MacIntel,60.0024001,,,,,,,,,,,0.698,1,,,,,,,,,,,,,,,,,,,,,,,,0.053323746,-0.499986049,0,0,0,,,,,,,BAMBOO,C,m,y,./images/BAMBOO.png,,,,,,,,,,,,,,,,,,,,,m,1,0.698,,,,,,,,0,26,26,5,1
,,,,,,,,,,,,,,,,,5dd72efa82569a6d38e06854,39,2022-02-12_10h18.39.888,lexical_decision_task_DD_L5,2021.2.3,MacIntel,60.0024001,,,,,,,,,,,1.5676,1,,,,,,,,,,,,,,,,,,,,,,,,0.053323746,-0.499986049,0,0,0,,,,,,,MONKEY,HB,m,y,./images/MONKEYHB.png,,,,,,,,,,,,,,,,,,,,,m,1,1.5676,,,,,,,,0,27,27,45,1
,,,,,,,,,,,,,,,,,5dd72efa82569a6d38e06854,39,2022-02-12_10h18.39.888,lexical_decision_task_DD_L5,2021.2.3,MacIntel,60.0024001,,,,,,,,,,,1.2209,1,,,,,,,,,,,,,,,,,,,,,,,,0.053323746,-0.499986049,0,0,0,,,,,,,TOMATO,HB,z,y,./images/TOMATOHB.png,,,,,,,,,,,,,,,,,,,,,z,1,1.2209,,,,,,,,0,28,28,84,1
,,,,,,,,,,,,,,,,,5dd72efa82569a6d38e06854,39,2022-02-12_10h18.39.888,lexical_decision_task_DD_L5,2021.2.3,MacIntel,60.0024001,,,,,,,,,,,0.6785,1,,,,,,,,,,,,,,,,,,,,,,,,0.053323746,-0.499986049,0,0,0,,,,,,,CRATER,HB,m,y,./images/CRATERHB.png,,,,,,,,,,,,,,,,,,,,,m,1,0.6785,,,,,,,,0,29,29,3,1
,,,,,,,,,,,,,,,,,5dd72efa82569a6d38e06854,39,2022-02-12_10h18.39.888,lexical_decision_task_DD_L5,2021.2.3,MacIntel,60.0024001,,,,,,,,,,,0.6385,1,,,,,,,,,,,,,,,,,,,,,,,,0.053323746,-0.499986049,0,0,0,,,,,,,FLESH,HB,m,y,./images/FLESHHB.png,,,,,,,,,,,,,,,,,,,,,m,1,0.6385,,,,,,,,0,30,30,24,1
,,,,,,,,,,,,,,,,,5dd72efa82569a6d38e06854,39,2022-02-12_10h18.39.888,lexical_decision_task_DD_L5,2021.2.3,MacIntel,60.0024001,,,,,,,,,,,0.7792,1,,,,,,,,,,,,,,,,,,,,,,,,0.053323746,-0.499986049,0,0,0,,,,,,,MUFFIN,LB,z,y,./images/MUFFINLB.png,,,,,,,,,,,,,,,,,,,,,z,1,0.7792,,,,,,,,0,31,31,139,1
,,,,,,,,,,,,,,,,,5dd72efa82569a6d38e06854,39,2022-02-12_10h18.39.888,lexical_decision_task_DD_L5,2021.2.3,MacIntel,60.0024001,,,,,,,,,,,1.2814,1,,,,,,,,,,,,,,,,,,,,,,,,0.053323746,-0.499986049,0,0,0,,,,,,,DESERT,LB,m,y,./images/DESERTLB.png,,,,,,,,,,,,,,,,,,,,,m,1,1.2814,,,,,,,,0,32,32,52,1
,,,,,,,,,,,,,,,,,5dd72efa82569a6d38e06854,39,2022-02-12_10h18.39.888,lexical_decision_task_DD_L5,2021.2.3,MacIntel,60.0024001,,,,,,,,,,,0.6477,1,,,,,,,,,,,,,,,,,,,,,,,,0.053323746,-0.499986049,0,0,0,,,,,,,STREAM,C,m,y,./images/STREAM.png,,,,,,,,,,,,,,,,,,,,,m,1,0.6477,,,,,,,,0,33,33,41,1
,,,,,,,,,,,,,,,,,5dd72efa82569a6d38e06854,39,2022-02-12_10h18.39.888,lexical_decision_task_DD_L5,2021.2.3,MacIntel,60.0024001,,,,,,,,,,,1.1483,1,,,,,,,,,,,,,,,,,,,,,,,,0.053323746,-0.499986049,0,0,0,,,,,,,FINGER,HB,z,y,./images/FINGERHB.png,,,,,,,,,,,,,,,,,,,,,z,1,1.1483,,,,,,,,0,34,34,87,1
,,,,,,,,,,,,,,,,,5dd72efa82569a6d38e06854,39,2022-02-12_10h18.39.888,lexical_decision_task_DD_L5,2021.2.3,MacIntel,60.0024001,,,,,,,,,,,1.0223,0,,,,,,,,,,,,,,,,,,,,,,,,0.053323746,-0.499986049,0,0,0,,,,,,,BELLY,LB,z,y,./images/BELLYLB.png,,,,,,,,,,,,,,,,,,,,,m,0,1.0223,,,,,,,,0,35,35,94,1
,,,,,,,,,,,,,,,,,5dd72efa82569a6d38e06854,39,2022-02-12_10h18.39.888,lexical_decision_task_DD_L5,2021.2.3,MacIntel,60.0024001,,,,,,,,,,,0.6717,1,,,,,,,,,,,,,,,,,,,,,,,,0.053323746,-0.499986049,0,0,0,,,,,,,LAGOON,C,m,y,./images/LAGOON.png,,,,,,,,,,,,,,,,,,,,,m,1,0.6717,,,,,,,,0,36,36,47,1
,,,,,,,,,,,,,,,,,5dd72efa82569a6d38e06854,39,2022-02-12_10h18.39.888,lexical_decision_task_DD_L5,2021.2.3,MacIntel,60.0024001,,,,,,,,,,,0.8071,0,,,,,,,,,,,,,,,,,,,,,,,,0.053323746,-0.499986049,0,0,0,,,,,,,GRAPE,LB,m,y,./images/GRAPELB.png,,,,,,,,,,,,,,,,,,,,,z,0,0.8071,,,,,,,,0,37,37,16,1
,,,,,,,,,,,,,,,,,5dd72efa82569a6d38e06854,39,2022-02-12_10h18.39.888,lexical_decision_task_DD_L5,2021.2.3,MacIntel,60.0024001,,,,,,,,,,,0.7723,1,,,,,,,,,,,,,,,,,,,,,,,,0.053323746,-0.499986049,0,0,0,,,,,,,TRIPOD,HB,z,y,./images/TRIPODHB.png,,,,,,,,,,,,,,,,,,,,,z,1,0.7723,,,,,,,,0,38,38,138,1
,,,,,,,,,,,,,,,,,5dd72efa82569a6d38e06854,39,2022-02-12_10h18.39.888,lexical_decision_task_DD_L5,2021.2.3,MacIntel,60.0024001,,,,,,,,,,,0.9705,0,,,,,,,,,,,,,,,,,,,,,,,,0.053323746,-0.499986049,0,0,0,,,,,,,SWEAT,HB,z,y,./images/SWEATHB.png,,,,,,,,,,,,,,,,,,,,,m,0,0.9705,,,,,,,,0,39,39,150,1
,,,,,,,,,,,,,,,,,5dd72efa82569a6d38e06854,39,2022-02-12_10h18.39.888,lexical_decision_task_DD_L5,2021.2.3,MacIntel,60.0024001,,,,,,,,,,,0.7042,1,,,,,,,,,,,,,,,,,,,,,,,,0.053323746,-0.499986049,0,0,0,,,,,,,GRANNY,C,m,y,./images/GRANNY.png,,,,,,,,,,,,,,,,,,,,,m,1,0.7042,,,,,,,,0,40,40,20,1
,,,,,,,,,,,,,,,,,5dd72efa82569a6d38e06854,39,2022-02-12_10h18.39.888,lexical_decision_task_DD_L5,2021.2.3,MacIntel,60.0024001,,,,,,,,,,,1.4367,1,,,,,,,,,,,,,,,,,,,,,,,,0.027977916,-0.353198242,0,0,0,space,,,,,,SAILOR,LB,z,y,./images/SAILORLB.png,10.6745,,,,,,,,,,,,,,,,,,,,z,1,1.4367,,,,,,,,0,41,41,151,1
,,,,,,,,,,,,,,,,,5dd72efa82569a6d38e06854,39,2022-02-12_10h18.39.888,lexical_decision_task_DD_L5,2021.2.3,MacIntel,60.0024001,,,,,,,,,,,1.2781,0,,,,,,,,,,,,,,,,,,,,,,,,0.027977916,-0.353198242,0,0,0,,,,,,,BRIDE,LB,m,y,./images/BRIDELB.png,,,,,,,,,,,,,,,,,,,,,z,0,1.2781,,,,,,,,0,42,42,64,1
,,,,,,,,,,,,,,,,,5dd72efa82569a6d38e06854,39,2022-02-12_10h18.39.888,lexical_decision_task_DD_L5,2021.2.3,MacIntel,60.0024001,,,,,,,,,,,0.9825,1,,,,,,,,,,,,,,,,,,,,,,,,0.027977916,-0.353198242,0,0,0,,,,,,,STEAK,LB,m,y,./images/STEAKLB.png,,,,,,,,,,,,,,,,,,,,,m,1,0.9825,,,,,,,,0,43,43,31,1
,,,,,,,,,,,,,,,,,5dd72efa82569a6d38e06854,39,2022-02-12_10h18.39.888,lexical_decision_task_DD_L5,2021.2.3,MacIntel,60.0024001,,,,,,,,,,,0.7993,1,,,,,,,,,,,,,,,,,,,,,,,,0.027977916,-0.353198242,0,0,0,,,,,,,PLANET,C,m,y,./images/PLANET.png,,,,,,,,,,,,,,,,,,,,,m,1,0.7993,,,,,,,,0,44,44,80,1
,,,,,,,,,,,,,,,,,5dd72efa82569a6d38e06854,39,2022-02-12_10h18.39.888,lexical_decision_task_DD_L5,2021.2.3,MacIntel,60.0024001,,,,,,,,,,,0.6681,0,,,,,,,,,,,,,,,,,,,,,,,,0.027977916,-0.353198242,0,0,0,,,,,,,SHORE,HB,z,y,./images/SHOREHB.png,,,,,,,,,,,,,,,,,,,,,m,0,0.6681,,,,,,,,0,45,45,96,1
,,,,,,,,,,,,,,,,,5dd72efa82569a6d38e06854,39,2022-02-12_10h18.39.888,lexical_decision_task_DD_L5,2021.2.3,MacIntel,60.0024001,,,,,,,,,,,0.7331,0,,,,,,,,,,,,,,,,,,,,,,,,0.027977916,-0.353198242,0,0,0,,,,,,,WAGON,LB,m,y,./images/WAGONLB.png,,,,,,,,,,,,,,,,,,,,,z,0,0.7331,,,,,,,,0,46,46,7,1
,,,,,,,,,,,,,,,,,5dd72efa82569a6d38e06854,39,2022-02-12_10h18.39.888,lexical_decision_task_DD_L5,2021.2.3,MacIntel,60.0024001,,,,,,,,,,,0.8688,1,,,,,,,,,,,,,,,,,,,,,,,,0.027977916,-0.353198242,0,0,0,,,,,,,CLOUD,C,m,y,./images/CLOUD.png,,,,,,,,,,,,,,,,,,,,,m,1,0.8688,,,,,,,,0,47,47,26,1
,,,,,,,,,,,,,,,,,5dd72efa82569a6d38e06854,39,2022-02-12_10h18.39.888,lexical_decision_task_DD_L5,2021.2.3,MacIntel,60.0024001,,,,,,,,,,,0.9827,1,,,,,,,,,,,,,,,,,,,,,,,,0.027977916,-0.353198242,0,0,0,,,,,,,PEBBLE,LB,m,y,./images/PEBBLELB.png,,,,,,,,,,,,,,,,,,,,,m,1,0.9827,,,,,,,,0,48,48,82,1
,,,,,,,,,,,,,,,,,5dd72efa82569a6d38e06854,39,2022-02-12_10h18.39.888,lexical_decision_task_DD_L5,2021.2.3,MacIntel,60.0024001,,,,,,,,,,,3.0659,1,,,,,,,,,,,,,,,,,,,,,,,,0.027977916,-0.353198242,0,0,0,,,,,,,QUILL,LB,z,y,./images/QUILLLB.png,,,,,,,,,,,,,,,,,,,,,z,1,3.0659,,,,,,,,0,49,49,115,1
,,,,,,,,,,,,,,,,,5dd72efa82569a6d38e06854,39,2022-02-12_10h18.39.888,lexical_decision_task_DD_L5,2021.2.3,MacIntel,60.0024001,,,,,,,,,,,1.0159,0,,,,,,,,,,,,,,,,,,,,,,,,0.027977916,-0.353198242,0,0,0,,,,,,,BANNER,LB,z,y,./images/BANNERLB.png,,,,,,,,,,,,,,,,,,,,,m,0,1.0159,,,,,,,,0,50,50,136,1
,,,,,,,,,,,,,,,,,5dd72efa82569a6d38e06854,39,2022-02-12_10h18.39.888,lexical_decision_task_DD_L5,2021.2.3,MacIntel,60.0024001,,,,,,,,,,,0.6004,1,,,,,,,,,,,,,,,,,,,,,,,,0.027977916,-0.353198242,0,0,0,,,,,,,DRILL,HB,m,y,./images/DRILLHB.png,,,,,,,,,,,,,,,,,,,,,m,1,0.6004,,,,,,,,0,51,51,81,1
,,,,,,,,,,,,,,,,,5dd72efa82569a6d38e06854,39,2022-02-12_10h18.39.888,lexical_decision_task_DD_L5,2021.2.3,MacIntel,60.0024001,,,,,,,,,,,0.6657,1,,,,,,,,,,,,,,,,,,,,,,,,0.027977916,-0.353198242,0,0,0,,,,,,,MAMMAL,C,m,y,./images/MAMMAL.png,,,,,,,,,,,,,,,,,,,,,m,1,0.6657,,,,,,,,0,52,52,62,1
,,,,,,,,,,,,,,,,,5dd72efa82569a6d38e06854,39,2022-02-12_10h18.39.888,lexical_decision_task_DD_L5,2021.2.3,MacIntel,60.0024001,,,,,,,,,,,0.6839,1,,,,,,,,,,,,,,,,,,,,,,,,0.027767018,-0.35236375,0,0,0,,,,,,,KITTEN,HB,z,y,./images/KITTENHB.png,,,,,,,,,,,,,,,,,,,,,z,1,0.6839,,,,,,,,0,53,53,129,1
,,,,,,,,,,,,,,,,,5dd72efa82569a6d38e06854,39,2022-02-12_10h18.39.888,lexical_decision_task_DD_L5,2021.2.3,MacIntel,60.0024001,,,,,,,,,,,0.749,1,,,,,,,,,,,,,,,,,,,,,,,,0.027561242,-0.35236375,0,0,0,,,,,,,PISTOL,C,m,y,./images/PISTOL.png,,,,,,,,,,,,,,,,,,,,,m,1,0.749,,,,,,,,0,54,54,29,1
,,,,,,,,,,,,,,,,,5dd72efa82569a6d38e06854,39,2022-02-12_10h18.39.888,lexical_decision_task_DD_L5,2021.2.3,MacIntel,60.0024001,,,,,,,,,,,1.0485,1,,,,,,,,,,,,,,,,,,,,,,,,0.027561242,-0.35236375,0,0,0,,,,,,,MALLET,C,z,y,./images/MALLET.png,,,,,,,,,,,,,,,,,,,,,z,1,1.0485,,,,,,,,0,55,55,134,1
,,,,,,,,,,,,,,,,,5dd72efa82569a6d38e06854,39,2022-02-12_10h18.39.888,lexical_decision_task_DD_L5,2021.2.3,MacIntel,60.0024001,,,,,,,,,,,5.5491,0,,,,,,,,,,,,,,,,,,,,,,,,0.027561242,-0.35236375,0,0,0,,,,,,,LADDER,C,z,y,./images/LADDER.png,,,,,,,,,,,,,,,,,,,,,m,0,5.5491,,,,,,,,0,56,56,122,1
,,,,,,,,,,,,,,,,,5dd72efa82569a6d38e06854,39,2022-02-12_10h18.39.888,lexical_decision_task_DD_L5,2021.2.3,MacIntel,60.0024001,,,,,,,,,,,0.8996,1,,,,,,,,,,,,,,,,,,,,,,,,0.027561242,-0.35236375,0,0,0,,,,,,,CRADLE,C,z,y,./images/CRADLE.png,,,,,,,,,,,,,,,,,,,,,z,1,0.8996,,,,,,,,0,57,57,104,1
,,,,,,,,,,,,,,,,,5dd72efa82569a6d38e06854,39,2022-02-12_10h18.39.888,lexical_decision_task_DD_L5,2021.2.3,MacIntel,60.0024001,,,,,,,,,,,1.1839,1,,,,,,,,,,,,,,,,,,,,,,,,0.027561242,-0.35236375,0,0,0,,,,,,,MUSCLE,LB,z,y,./images/MUSCLELB.png,,,,,,,,,,,,,,,,,,,,,z,1,1.1839,,,,,,,,0,58,58,88,1
,,,,,,,,,,,,,,,,,5dd72efa82569a6d38e06854,39,2022-02-12_10h18.39.888,lexical_decision_task_DD_L5,2021.2.3,MacIntel,60.0024001,,,,,,,,,,,3.965,1,,,,,,,,,,,,,,,,,,,,,,,,0.027561242,-0.35236375,0,0,0,,,,,,,PURSE,C,z,y,./images/PURSE.png,,,,,,,,,,,,,,,,,,,,,z,1,3.965,,,,,,,,0,59,59,146,1
,,,,,,,,,,,,,,,,,5dd72efa82569a6d38e06854,39,2022-02-12_10h18.39.888,lexical_decision_task_DD_L5,2021.2.3,MacIntel,60.0024001,,,,,,,,,,,0.7819,0,,,,,,,,,,,,,,,,,,,,,,,,0.027355521,-0.35236375,0,0,0,,,,,,,TWINS,HB,z,y,./images/TWINSHB.png,,,,,,,,,,,,,,,,,,,,,m,0,0.7819,,,,,,,,0,60,60,144,1
,,,,,,,,,,,,,,,,,5dd72efa82569a6d38e06854,39,2022-02-12_10h18.39.888,lexical_decision_task_DD_L5,2021.2.3,MacIntel,60.0024001,,,,,,,,,,,0.65,1,,,,,,,,,,,,,,,,,,,,,,,,0.027149691,-0.35236375,0,0,0,,,,,,,CURRY,HB,m,y,./images/CURRYHB.png,,,,,,,,,,,,,,,,,,,,,m,1,0.65,,,,,,,,0,61,61,60,1
,,,,,,,,,,,,,,,,,5dd72efa82569a6d38e06854,39,2022-02-12_10h18.39.888,lexical_decision_task_DD_L5,2021.2.3,MacIntel,60.0024001,,,,,,,,,,,1.984,0,,,,,,,,,,,,,,,,,,,,,,,,0.027149691,-0.35236375,0,0,0,,,,,,,THROAT,HB,z,y,./images/THROATHB.png,,,,,,,,,,,,,,,,,,,,,m,0,1.984,,,,,,,,0,62,62,120,1
,,,,,,,,,,,,,,,,,5dd72efa82569a6d38e06854,39,2022-02-12_10h18.39.888,lexical_decision_task_DD_L5,2021.2.3,MacIntel,60.0024001,,,,,,,,,,,0.7682,1,,,,,,,,,,,,,,,,,,,,,,,,0.027149691,-0.35236375,0,0,0,,,,,,,PEARL,LB,z,y,./images/PEARLLB.png,,,,,,,,,,,,,,,,,,,,,z,1,0.7682,,,,,,,,0,63,63,130,1
,,,,,,,,,,,,,,,,,5dd72efa82569a6d38e06854,39,2022-02-12_10h18.39.888,lexical_decision_task_DD_L5,2021.2.3,MacIntel,60.0024001,,,,,,,,,,,1.1325,1,,,,,,,,,,,,,,,,,,,,,,,,0.027149691,-0.35236375,0,0,0,,,,,,,SQUARE,HB,z,y,./images/SQUAREHB.png,,,,,,,,,,,,,,,,,,,,,z,1,1.1325,,,,,,,,0,64,64,90,1
,,,,,,,,,,,,,,,,,5dd72efa82569a6d38e06854,39,2022-02-12_10h18.39.888,lexical_decision_task_DD_L5,2021.2.3,MacIntel,60.0024001,,,,,,,,,,,1.1161,0,,,,,,,,,,,,,,,,,,,,,,,,0.026731818,-0.35258255,0,0,0,,,,,,,PASTA,C,z,y,./images/PASTA.png,,,,,,,,,,,,,,,,,,,,,m,0,1.1161,,,,,,,,0,65,65,89,1
,,,,,,,,,,,,,,,,,5dd72efa82569a6d38e06854,39,2022-02-12_10h18.39.888,lexical_decision_task_DD_L5,2021.2.3,MacIntel,60.0024001,,,,,,,,,,,1.1014,1,,,,,,,,,,,,,,,,,,,,,,,,0.026731818,-0.35258255,0,0,0,,,,,,,TULIP,C,z,y,./images/TULIP.png,,,,,,,,,,,,,,,,,,,,,z,1,1.1014,,,,,,,,0,66,66,92,1
,,,,,,,,,,,,,,,,,5dd72efa82569a6d38e06854,39,2022-02-12_10h18.39.888,lexical_decision_task_DD_L5,2021.2.3,MacIntel,60.0024001,,,,,,,,,,,0.9329,1,,,,,,,,,,,,,,,,,,,,,,,,0.026731818,-0.35258255,0,0,0,,,,,,,POSTER,C,m,y,./images/POSTER.png,,,,,,,,,,,,,,,,,,,,,m,1,0.9329,,,,,,,,0,67,67,53,1
,,,,,,,,,,,,,,,,,5dd72efa82569a6d38e06854,39,2022-02-12_10h18.39.888,lexical_decision_task_DD_L5,2021.2.3,MacIntel,60.0024001,,,,,,,,,,,0.9827,1,,,,,,,,,,,,,,,,,,,,,,,,0.026731818,-0.35258255,0,0,0,,,,,,,LIZARD,C,z,y,./images/LIZARD.png,,,,,,,,,,,,,,,,,,,,,z,1,0.9827,,,,,,,,0,68,68,128,1
,,,,,,,,,,,,,,,,,5dd72efa82569a6d38e06854,39,2022-02-12_10h18.39.888,lexical_decision_task_DD_L5,2021.2.3,MacIntel,60.0024001,,,,,,,,,,,0.7493,1,,,,,,,,,,,,,,,,,,,,,,,,0.026731818,-0.35258255,0,0,0,,,,,,,TOWEL,LB,m,y,./images/TOWELLB.png,,,,,,,,,,,,,,,,,,,,,m,1,0.7493,,,,,,,,0,69,69,1,1
,,,,,,,,,,,,,,,,,5dd72efa82569a6d38e06854,39,2022-02-12_10h18.39.888,lexical_decision_task_DD_L5,2021.2.3,MacIntel,60.0024001,,,,,,,,,,,0.9154,1,,,,,,,,,,,,,,,,,,,,,,,,0.026731818,-0.35258255,0,0,0,,,,,,,BABOON,LB,z,y,./images/BABOONLB.png,,,,,,,,,,,,,,,,,,,,,z,1,0.9154,,,,,,,,0,70,70,142,1
,,,,,,,,,,,,,,,,,5dd72efa82569a6d38e06854,39,2022-02-12_10h18.39.888,lexical_decision_task_DD_L5,2021.2.3,MacIntel,60.0024001,,,,,,,,,,,0.9336,1,,,,,,,,,,,,,,,,,,,,,,,,0.026731818,-0.35258255,0,0,0,,,,,,,MAGGOT,HB,z,y,./images/MAGGOTHB.png,,,,,,,,,,,,,,,,,,,,,z,1,0.9336,,,,,,,,0,71,71,117,1
,,,,,,,,,,,,,,,,,5dd72efa82569a6d38e06854,39,2022-02-12_10h18.39.888,lexical_decision_task_DD_L5,2021.2.3,MacIntel,60.0024001,,,,,,,,,,,0.7187,1,,,,,,,,,,,,,,,,,,,,,,,,0.026731818,-0.35258255,0,0,0,,,,,,,POKER,LB,m,y,./images/POKERLB.png,,,,,,,,,,,,,,,,,,,,,m,1,0.7187,,,,,,,,0,72,72,67,1
,,,,,,,,,,,,,,,,,5dd72efa82569a6d38e06854,39,2022-02-12_10h18.39.888,lexical_decision_task_DD_L5,2021.2.3,MacIntel,60.0024001,,,,,,,,,,,0.7321,0,,,,,,,,,,,,,,,,,,,,,,,,0.026731818,-0.35258255,0,0,0,,,,,,,CANDY,HB,m,y,./images/CANDYHB.png,,,,,,,,,,,,,,,,,,,,,z,0,0.7321,,,,,,,,0,73,73,39,1
,,,,,,,,,,,,,,,,,5dd72efa82569a6d38e06854,39,2022-02-12_10h18.39.888,lexical_decision_task_DD_L5,2021.2.3,MacIntel,60.0024001,,,,,,,,,,,0.7101,1,,,,,,,,,,,,,,,,,,,,,,,,0.026731818,-0.35258255,0,0,0,,,,,,,MEDAL,C,m,y,./images/MEDAL.png,,,,,,,,,,,,,,,,,,,,,m,1,0.7101,,,,,,,,0,74,74,11,1
,,,,,,,,,,,,,,,,,5dd72efa82569a6d38e06854,39,2022-02-12_10h18.39.888,lexical_decision_task_DD_L5,2021.2.3,MacIntel,60.0024001,,,,,,,,,,,1.6497,0,,,,,,,,,,,,,,,,,,,,,,,,0.026731818,-0.35258255,0,0,0,,,,,,,CHERRY,HB,m,y,./images/CHERRYHB.png,,,,,,,,,,,,,,,,,,,,,z,0,1.6497,,,,,,,,0,75,75,54,1
,,,,,,,,,,,,,,,,,5dd72efa82569a6d38e06854,39,2022-02-12_10h18.39.888,lexical_decision_task_DD_L5,2021.2.3,MacIntel,60.0024001,,,,,,,,,,,0.9335,1,,,,,,,,,,,,,,,,,,,,,,,,0.026526097,-0.35258255,0,0,0,,,,,,,PARADE,C,m,y,./images/PARADE.png,,,,,,,,,,,,,,,,,,,,,m,1,0.9335,,,,,,,,0,76,76,17,1
,,,,,,,,,,,,,,,,,5dd72efa82569a6d38e06854,39,2022-02-12_10h18.39.888,lexical_decision_task_DD_L5,2021.2.3,MacIntel,60.0024001,,,,,,,,,,,0.7002,1,,,,,,,,,,,,,,,,,,,,,,,,0.026320267,-0.35258255,0,0,0,,,,,,,DONKEY,LB,m,y,./images/DONKEYLB.png,,,,,,,,,,,,,,,,,,,,,m,1,0.7002,,,,,,,,0,77,77,19,1
,,,,,,,,,,,,,,,,,5dd72efa82569a6d38e06854,39,2022-02-12_10h18.39.888,lexical_decision_task_DD_L5,2021.2.3,MacIntel,60.0024001,,,,,,,,,,,0.6993,1,,,,,,,,,,,,,,,,,,,,,,,,0.026320267,-0.35258255,0,0,0,,,,,,,FLASK,HB,m,y,./images/FLASKHB.png,,,,,,,,,,,,,,,,,,,,,m,1,0.6993,,,,,,,,0,78,78,72,1
,,,,,,,,,,,,,,,,,5dd72efa82569a6d38e06854,39,2022-02-12_10h18.39.888,lexical_decision_task_DD_L5,2021.2.3,MacIntel,60.0024001,,,,,,,,,,,0.7452,1,,,,,,,,,,,,,,,,,,,,,,,,0.026320267,-0.35258255,0,0,0,,,,,,,CHAIN,HB,m,y,./images/CHAINHB.png,,,,,,,,,,,,,,,,,,,,,m,1,0.7452,,,,,,,,0,79,79,42,1
,,,,,,,,,,,,,,,,,5dd72efa82569a6d38e06854,39,2022-02-12_10h18.39.888,lexical_decision_task_DD_L5,2021.2.3,MacIntel,60.0024001,,,,,,,,,,,1.3354,1,,,,,,,,,,,,,,,,,,,,,,,,0.026320267,-0.35258255,0,0,0,,,,,,,CANDLE,LB,z,y,./images/CANDLELB.png,,,,,,,,,,,,,,,,,,,,,z,1,1.3354,,,,,,,,0,80,80,145,1
,,,,,,,,,,,,,,,,,5dd72efa82569a6d38e06854,39,2022-02-12_10h18.39.888,lexical_decision_task_DD_L5,2021.2.3,MacIntel,60.0024001,,,,,,,,,,,0.732,1,,,,,,,,,,,,,,,,,,,,,,,,0.026320267,-0.35258255,0,0,0,,,,,,,ARROW,HB,m,y,./images/ARROWHB.png,,,,,,,,,,,,,,,,,,,,,m,1,0.732,,,,,,,,0,81,81,69,1
,,,,,,,,,,,,,,,,,5dd72efa82569a6d38e06854,39,2022-02-12_10h18.39.888,lexical_decision_task_DD_L5,2021.2.3,MacIntel,60.0024001,,,,,,,,,,,0.882,1,,,,,,,,,,,,,,,,,,,,,,,,0.026320267,-0.35258255,0,0,0,,,,,,,URINE,LB,z,y,./images/URINELB.png,,,,,,,,,,,,,,,,,,,,,z,1,0.882,,,,,,,,0,82,82,154,1
,,,,,,,,,,,,,,,,,5dd72efa82569a6d38e06854,39,2022-02-12_10h18.39.888,lexical_decision_task_DD_L5,2021.2.3,MacIntel,60.0024001,,,,,,,,,,,1.899,1,,,,,,,,,,,,,,,,,,,,,,,,0.011848668,-0.416033827,0,0,0,space,,,,,,ONION,HB,z,y,./images/ONIONHB.png,25.5661,,,,,,,,,,,,,,,,,,,,z,1,1.899,,,,,,,,0,83,83,135,1
,,,,,,,,,,,,,,,,,5dd72efa82569a6d38e06854,39,2022-02-12_10h18.39.888,lexical_decision_task_DD_L5,2021.2.3,MacIntel,60.0024001,,,,,,,,,,,0.9667,0,,,,,,,,,,,,,,,,,,,,,,,,0.011848668,-0.416033827,0,0,0,,,,,,,BARREL,C,z,y,./images/BARREL.png,,,,,,,,,,,,,,,,,,,,,m,0,0.9667,,,,,,,,0,84,84,116,1
,,,,,,,,,,,,,,,,,5dd72efa82569a6d38e06854,39,2022-02-12_10h18.39.888,lexical_decision_task_DD_L5,2021.2.3,MacIntel,60.0024001,,,,,,,,,,,0.716,1,,,,,,,,,,,,,,,,,,,,,,,,0.011848668,-0.416033827,0,0,0,,,,,,,BOXER,LB,m,y,./images/BOXERLB.png,,,,,,,,,,,,,,,,,,,,,m,1,0.716,,,,,,,,0,85,85,4,1
,,,,,,,,,,,,,,,,,5dd72efa82569a6d38e06854,39,2022-02-12_10h18.39.888,lexical_decision_task_DD_L5,2021.2.3,MacIntel,60.0024001,,,,,,,,,,,0.6494,1,,,,,,,,,,,,,,,,,,,,,,,,0.011848668,-0.416033827,0,0,0,,,,,,,FALCON,LB,z,y,./images/FALCONLB.png,,,,,,,,,,,,,,,,,,,,,z,1,0.6494,,,,,,,,0,86,86,112,1
,,,,,,,,,,,,,,,,,5dd72efa82569a6d38e06854,39,2022-02-12_10h18.39.888,lexical_decision_task_DD_L5,2021.2.3,MacIntel,60.0024001,,,,,,,,,,,1.0996,1,,,,,,,,,,,,,,,,,,,,,,,,0.011848668,-0.416033827,0,0,0,,,,,,,PACKET,C,z,y,./images/PACKET.png,,,,,,,,,,,,,,,,,,,,,z,1,1.0996,,,,,,,,0,87,87,140,1
,,,,,,,,,,,,,,,,,5dd72efa82569a6d38e06854,39,2022-02-12_10h18.39.888,lexical_decision_task_DD_L5,2021.2.3,MacIntel,60.0024001,,,,,,,,,,,0.8357,1,,,,,,,,,,,,,,,,,,,,,,,,0.011848668,-0.416033827,0,0,0,,,,,,,WRIST,LB,z,y,./images/WRISTLB.png,,,,,,,,,,,,,,,,,,,,,z,1,0.8357,,,,,,,,0,88,88,109,1
,,,,,,,,,,,,,,,,,5dd72efa82569a6d38e06854,39,2022-02-12_10h18.39.888,lexical_decision_task_DD_L5,2021.2.3,MacIntel,60.0024001,,,,,,,,,,,1.1664,1,,,,,,,,,,,,,,,,,,,,,,,,0.011848668,-0.416033827,0,0,0,,,,,,,BONNET,C,z,y,./images/BONNET.png,,,,,,,,,,,,,,,,,,,,,z,1,1.1664,,,,,,,,0,89,89,95,1
,,,,,,,,,,,,,,,,,5dd72efa82569a6d38e06854,39,2022-02-12_10h18.39.888,lexical_decision_task_DD_L5,2021.2.3,MacIntel,60.0024001,,,,,,,,,,,0.8499,0,,,,,,,,,,,,,,,,,,,,,,,,0.011848668,-0.416033827,0,0,0,,,,,,,BANANA,LB,m,y,./images/BANANALB.png,,,,,,,,,,,,,,,,,,,,,z,0,0.8499,,,,,,,,0,90,90,70,1
,,,,,,,,,,,,,,,,,5dd72efa82569a6d38e06854,39,2022-02-12_10h18.39.888,lexical_decision_task_DD_L5,2021.2.3,MacIntel,60.0024001,,,,,,,,,,,0.6995,1,,,,,,,,,,,,,,,,,,,,,,,,0.011848668,-0.416033827,0,0,0,,,,,,,SHIELD,HB,m,y,./images/SHIELDHB.png,,,,,,,,,,,,,,,,,,,,,m,1,0.6995,,,,,,,,0,91,91,48,1
,,,,,,,,,,,,,,,,,5dd72efa82569a6d38e06854,39,2022-02-12_10h18.39.888,lexical_decision_task_DD_L5,2021.2.3,MacIntel,60.0024001,,,,,,,,,,,0.8668,0,,,,,,,,,,,,,,,,,,,,,,,,0.011848668,-0.416033827,0,0,0,,,,,,,BUNNY,LB,m,y,./images/BUNNYLB.png,,,,,,,,,,,,,,,,,,,,,z,0,0.8668,,,,,,,,0,92,92,13,1
,,,,,,,,,,,,,,,,,5dd72efa82569a6d38e06854,39,2022-02-12_10h18.39.888,lexical_decision_task_DD_L5,2021.2.3,MacIntel,60.0024001,,,,,,,,,,,0.6494,0,,,,,,,,,,,,,,,,,,,,,,,,0.011848668,-0.416033827,0,0,0,,,,,,,STORM,HB,z,y,./images/STORMHB.png,,,,,,,,,,,,,,,,,,,,,m,0,0.6494,,,,,,,,0,93,93,114,1
,,,,,,,,,,,,,,,,,5dd72efa82569a6d38e06854,39,2022-02-12_10h18.39.888,lexical_decision_task_DD_L5,2021.2.3,MacIntel,60.0024001,,,,,,,,,,,1.0351,1,,,,,,,,,,,,,,,,,,,,,,,,0.011848668,-0.416033827,0,0,0,,,,,,,POODLE,HB,z,y,./images/POODLEHB.png,,,,,,,,,,,,,,,,,,,,,z,1,1.0351,,,,,,,,0,94,94,165,1
,,,,,,,,,,,,,,,,,5dd72efa82569a6d38e06854,39,2022-02-12_10h18.39.888,lexical_decision_task_DD_L5,2021.2.3,MacIntel,60.0024001,,,,,,,,,,,0.8158,1,,,,,,,,,,,,,,,,,,,,,,,,0.011848668,-0.416033827,0,0,0,,,,,,,PIMPLE,C,z,y,./images/PIMPLE.png,,,,,,,,,,,,,,,,,,,,,z,1,0.8158,,,,,,,,0,95,95,155,1
,,,,,,,,,,,,,,,,,5dd72efa82569a6d38e06854,39,2022-02-12_10h18.39.888,lexical_decision_task_DD_L5,2021.2.3,MacIntel,60.0024001,,,,,,,,,,,0.7154,1,,,,,,,,,,,,,,,,,,,,,,,,0.011848668,-0.416033827,0,0,0,,,,,,,STATUE,HB,m,y,./images/STATUEHB.png,,,,,,,,,,,,,,,,,,,,,m,1,0.7154,,,,,,,,0,96,96,66,1
,,,,,,,,,,,,,,,,,5dd72efa82569a6d38e06854,39,2022-02-12_10h18.39.888,lexical_decision_task_DD_L5,2021.2.3,MacIntel,60.0024001,,,,,,,,,,,1.0324,1,,,,,,,,,,,,,,,,,,,,,,,,0.011848668,-0.416033827,0,0,0,,,,,,,KIDNEY,HB,z,y,./images/KIDNEYHB.png,,,,,,,,,,,,,,,,,,,,,z,1,1.0324,,,,,,,,0,97,97,105,1
,,,,,,,,,,,,,,,,,5dd72efa82569a6d38e06854,39,2022-02-12_10h18.39.888,lexical_decision_task_DD_L5,2021.2.3,MacIntel,60.0024001,,,,,,,,,,,1.0328,1,,,,,,,,,,,,,,,,,,,,,,,,0.011848668,-0.416033827,0,0,0,,,,,,,SUNSET,LB,z,y,./images/SUNSETLB.png,,,,,,,,,,,,,,,,,,,,,z,1,1.0328,,,,,,,,0,98,98,166,1
,,,,,,,,,,,,,,,,,5dd72efa82569a6d38e06854,39,2022-02-12_10h18.39.888,lexical_decision_task_DD_L5,2021.2.3,MacIntel,60.0024001,,,,,,,,,,,0.9158,1,,,,,,,,,,,,,,,,,,,,,,,,0.011848668,-0.416033827,0,0,0,,,,,,,BIRTH,LB,z,y,./images/BIRTHLB.png,,,,,,,,,,,,,,,,,,,,,z,1,0.9158,,,,,,,,0,99,99,121,1
,,,,,,,,,,,,,,,,,5dd72efa82569a6d38e06854,39,2022-02-12_10h18.39.888,lexical_decision_task_DD_L5,2021.2.3,MacIntel,60.0024001,,,,,,,,,,,1.3332,1,,,,,,,,,,,,,,,,,,,,,,,,0.011848668,-0.416033827,0,0,0,,,,,,,BURIAL,C,z,y,./images/BURIAL.png,,,,,,,,,,,,,,,,,,,,,z,1,1.3332,,,,,,,,0,100,100,143,1
,,,,,,,,,,,,,,,,,5dd72efa82569a6d38e06854,39,2022-02-12_10h18.39.888,lexical_decision_task_DD_L5,2021.2.3,MacIntel,60.0024001,,,,,,,,,,,0.8839,0,,,,,,,,,,,,,,,,,,,,,,,,0.011848668,-0.416033827,0,0,0,,,,,,,BRUSH,C,m,y,./images/BRUSH.png,,,,,,,,,,,,,,,,,,,,,z,0,0.8839,,,,,,,,0,101,101,59,1
,,,,,,,,,,,,,,,,,5dd72efa82569a6d38e06854,39,2022-02-12_10h18.39.888,lexical_decision_task_DD_L5,2021.2.3,MacIntel,60.0024001,,,,,,,,,,,1.0827,0,,,,,,,,,,,,,,,,,,,,,,,,0.011848668,-0.416033827,0,0,0,,,,,,,JELLY,LB,z,y,./images/JELLYLB.png,,,,,,,,,,,,,,,,,,,,,m,0,1.0827,,,,,,,,0,102,102,148,1
,,,,,,,,,,,,,,,,,5dd72efa82569a6d38e06854,39,2022-02-12_10h18.39.888,lexical_decision_task_DD_L5,2021.2.3,MacIntel,60.0024001,,,,,,,,,,,0.7495,1,,,,,,,,,,,,,,,,,,,,,,,,0.011848668,-0.416033827,0,0,0,,,,,,,FENCE,C,m,y,./images/FENCE.png,,,,,,,,,,,,,,,,,,,,,m,1,0.7495,,,,,,,,0,103,103,14,1
,,,,,,,,,,,,,,,,,5dd72efa82569a6d38e06854,39,2022-02-12_10h18.39.888,lexical_decision_task_DD_L5,2021.2.3,MacIntel,60.0024001,,,,,,,,,,,1.2154,0,,,,,,,,,,,,,,,,,,,,,,,,0.011848668,-0.416033827,0,0,0,,,,,,,CASINO,LB,m,y,./images/CASINOLB.png,,,,,,,,,,,,,,,,,,,,,z,0,1.2154,,,,,,,,0,104,104,28,1
,,,,,,,,,,,,,,,,,5dd72efa82569a6d38e06854,39,2022-02-12_10h18.39.888,lexical_decision_task_DD_L5,2021.2.3,MacIntel,60.0024001,,,,,,,,,,,0.6491,1,,,,,,,,,,,,,,,,,,,,,,,,0.011848668,-0.416033827,0,0,0,,,,,,,WHISKY,C,m,y,./images/WHISKY.png,,,,,,,,,,,,,,,,,,,,,m,1,0.6491,,,,,,,,0,105,105,83,1
,,,,,,,,,,,,,,,,,5dd72efa82569a6d38e06854,39,2022-02-12_10h18.39.888,lexical_decision_task_DD_L5,2021.2.3,MacIntel,60.0024001,,,,,,,,,,,0.8824,1,,,,,,,,,,,,,,,,,,,,,,,,0.011848668,-0.416033827,0,0,0,,,,,,,JUMPER,C,m,y,./images/JUMPER.png,,,,,,,,,,,,,,,,,,,,,m,1,0.8824,,,,,,,,0,106,106,74,1
,,,,,,,,,,,,,,,,,5dd72efa82569a6d38e06854,39,2022-02-12_10h18.39.888,lexical_decision_task_DD_L5,2021.2.3,MacIntel,60.0024001,,,,,,,,,,,1.6833,0,,,,,,,,,,,,,,,,,,,,,,,,0.011848668,-0.416033827,0,0,0,,,,,,,CLOTH,C,m,y,./images/CLOTH.png,,,,,,,,,,,,,,,,,,,,,z,0,1.6833,,,,,,,,0,107,107,23,1
,,,,,,,,,,,,,,,,,5dd72efa82569a6d38e06854,39,2022-02-12_10h18.39.888,lexical_decision_task_DD_L5,2021.2.3,MacIntel,60.0024001,,,,,,,,,,,1.0154,0,,,,,,,,,,,,,,,,,,,,,,,,0.011848668,-0.416033827,0,0,0,,,,,,,COOKER,HB,z,y,./images/COOKERHB.png,,,,,,,,,,,,,,,,,,,,,m,0,1.0154,,,,,,,,0,108,108,153,1
,,,,,,,,,,,,,,,,,5dd72efa82569a6d38e06854,39,2022-02-12_10h18.39.888,lexical_decision_task_DD_L5,2021.2.3,MacIntel,60.0024001,,,,,,,,,,,0.8501,0,,,,,,,,,,,,,,,,,,,,,,,,0.011848668,-0.416033827,0,0,0,,,,,,,LITTER,HB,z,y,./images/LITTERHB.png,,,,,,,,,,,,,,,,,,,,,m,0,0.8501,,,,,,,,0,109,109,162,1
,,,,,,,,,,,,,,,,,5dd72efa82569a6d38e06854,39,2022-02-12_10h18.39.888,lexical_decision_task_DD_L5,2021.2.3,MacIntel,60.0024001,,,,,,,,,,,0.7169,1,,,,,,,,,,,,,,,,,,,,,,,,0.011848668,-0.416033827,0,0,0,,,,,,,MIDGET,LB,m,y,./images/MIDGETLB.png,,,,,,,,,,,,,,,,,,,,,m,1,0.7169,,,,,,,,0,110,110,76,1
,,,,,,,,,,,,,,,,,5dd72efa82569a6d38e06854,39,2022-02-12_10h18.39.888,lexical_decision_task_DD_L5,2021.2.3,MacIntel,60.0024001,,,,,,,,,,,0.6687,1,,,,,,,,,,,,,,,,,,,,,,,,0.011848668,-0.416033827,0,0,0,,,,,,,DOUGH,LB,z,y,./images/DOUGHLB.png,,,,,,,,,,,,,,,,,,,,,z,1,0.6687,,,,,,,,0,111,111,103,1
,,,,,,,,,,,,,,,,,5dd72efa82569a6d38e06854,39,2022-02-12_10h18.39.888,lexical_decision_task_DD_L5,2021.2.3,MacIntel,60.0024001,,,,,,,,,,,0.8485,1,,,,,,,,,,,,,,,,,,,,,,,,0.011848668,-0.416033827,0,0,0,,,,,,,ENGINE,C,m,y,./images/ENGINE.png,,,,,,,,,,,,,,,,,,,,,m,1,0.8485,,,,,,,,0,112,112,38,1
,,,,,,,,,,,,,,,,,5dd72efa82569a6d38e06854,39,2022-02-12_10h18.39.888,lexical_decision_task_DD_L5,2021.2.3,MacIntel,60.0024001,,,,,,,,,,,1.0834,0,,,,,,,,,,,,,,,,,,,,,,,,0.011848668,-0.416033827,0,0,0,,,,,,,BUTTER,HB,m,y,./images/BUTTERHB.png,,,,,,,,,,,,,,,,,,,,,z,0,1.0834,,,,,,,,0,113,113,27,1
,,,,,,,,,,,,,,,,,5dd72efa82569a6d38e06854,39,2022-02-12_10h18.39.888,lexical_decision_task_DD_L5,2021.2.3,MacIntel,60.0024001,,,,,,,,,,,2.285,0,,,,,,,,,,,,,,,,,,,,,,,,0.011848668,-0.416033827,0,0,0,,,,,,,FERRY,HB,m,y,./images/FERRYHB.png,,,,,,,,,,,,,,,,,,,,,z,0,2.285,,,,,,,,0,114,114,57,1
,,,,,,,,,,,,,,,,,5dd72efa82569a6d38e06854,39,2022-02-12_10h18.39.888,lexical_decision_task_DD_L5,2021.2.3,MacIntel,60.0024001,,,,,,,,,,,2.9841,1,,,,,,,,,,,,,,,,,,,,,,,,0.011848668,-0.416033827,0,0,0,,,,,,,CANYON,LB,z,y,./images/CANYONLB.png,,,,,,,,,,,,,,,,,,,,,z,1,2.9841,,,,,,,,0,115,115,118,1
,,,,,,,,,,,,,,,,,5dd72efa82569a6d38e06854,39,2022-02-12_10h18.39.888,lexical_decision_task_DD_L5,2021.2.3,MacIntel,60.0024001,,,,,,,,,,,1.1819,0,,,,,,,,,,,,,,,,,,,,,,,,0.011848668,-0.416033827,0,0,0,,,,,,,BOILER,HB,m,y,./images/BOILERHB.png,,,,,,,,,,,,,,,,,,,,,z,0,1.1819,,,,,,,,0,116,116,36,1
,,,,,,,,,,,,,,,,,5dd72efa82569a6d38e06854,39,2022-02-12_10h18.39.888,lexical_decision_task_DD_L5,2021.2.3,MacIntel,60.0024001,,,,,,,,,,,1.5655,0,,,,,,,,,,,,,,,,,,,,,,,,0.011848668,-0.416033827,0,0,0,,,,,,,MIRROR,HB,z,y,./images/MIRRORHB.png,,,,,,,,,,,,,,,,,,,,,m,0,1.5655,,,,,,,,0,117,117,147,1
,,,,,,,,,,,,,,,,,5dd72efa82569a6d38e06854,39,2022-02-12_10h18.39.888,lexical_decision_task_DD_L5,2021.2.3,MacIntel,60.0024001,,,,,,,,,,,0.9513,1,,,,,,,,,,,,,,,,,,,,,,,,0.011848668,-0.416033827,0,0,0,,,,,,,STOOL,LB,m,y,./images/STOOLLB.png,,,,,,,,,,,,,,,,,,,,,m,1,0.9513,,,,,,,,0,118,118,43,1
,,,,,,,,,,,,,,,,,5dd72efa82569a6d38e06854,39,2022-02-12_10h18.39.888,lexical_decision_task_DD_L5,2021.2.3,MacIntel,60.0024001,,,,,,,,,,,0.7665,1,,,,,,,,,,,,,,,,,,,,,,,,0.011848668,-0.416033827,0,0,0,,,,,,,PILOT,C,m,y,./images/PILOT.png,,,,,,,,,,,,,,,,,,,,,m,1,0.7665,,,,,,,,0,119,119,50,1
,,,,,,,,,,,,,,,,,5dd72efa82569a6d38e06854,39,2022-02-12_10h18.39.888,lexical_decision_task_DD_L5,2021.2.3,MacIntel,60.0024001,,,,,,,,,,,1.0493,1,,,,,,,,,,,,,,,,,,,,,,,,0.011848668,-0.416033827,0,0,0,,,,,,,SPINE,C,m,y,./images/SPINE.png,,,,,,,,,,,,,,,,,,,,,m,1,1.0493,,,,,,,,0,120,120,65,1
,,,,,,,,,,,,,,,,,5dd72efa82569a6d38e06854,39,2022-02-12_10h18.39.888,lexical_decision_task_DD_L5,2021.2.3,MacIntel,60.0024001,,,,,,,,,,,0.668,1,,,,,,,,,,,,,,,,,,,,,,,,0.011848668,-0.416033827,0,0,0,,,,,,,BUBBLE,C,m,y,./images/BUBBLE.png,,,,,,,,,,,,,,,,,,,,,m,1,0.668,,,,,,,,0,121,121,71,1
,,,,,,,,,,,,,,,,,5dd72efa82569a6d38e06854,39,2022-02-12_10h18.39.888,lexical_decision_task_DD_L5,2021.2.3,MacIntel,60.0024001,,,,,,,,,,,0.7664,1,,,,,,,,,,,,,,,,,,,,,,,,0.011848668,-0.416033827,0,0,0,,,,,,,JUNGLE,C,z,y,./images/JUNGLE.png,,,,,,,,,,,,,,,,,,,,,z,1,0.7664,,,,,,,,0,122,122,167,1
,,,,,,,,,,,,,,,,,5dd72efa82569a6d38e06854,39,2022-02-12_10h18.39.888,lexical_decision_task_DD_L5,2021.2.3,MacIntel,60.0024001,,,,,,,,,,,0.782,1,,,,,,,,,,,,,,,,,,,,,,,,0.011848668,-0.416033827,0,0,0,,,,,,,VALLEY,C,m,y,./images/VALLEY.png,,,,,,,,,,,,,,,,,,,,,m,1,0.782,,,,,,,,0,123,123,68,1
,,,,,,,,,,,,,,,,,5dd72efa82569a6d38e06854,39,2022-02-12_10h18.39.888,lexical_decision_task_DD_L5,2021.2.3,MacIntel,60.0024001,,,,,,,,,,,0.9161,0,,,,,,,,,,,,,,,,,,,,,,,,0.011848668,-0.416033827,0,0,0,,,,,,,DRUMS,LB,z,y,./images/DRUMSLB.png,,,,,,,,,,,,,,,,,,,,,m,0,0.9161,,,,,,,,0,124,124,133,1
,,,,,,,,,,,,,,,,,5dd72efa82569a6d38e06854,39,2022-02-12_10h18.39.888,lexical_decision_task_DD_L5,2021.2.3,MacIntel,60.0024001,,,,,,,,,,,0.7002,1,,,,,,,,,,,,,,,,,,,,,,,,0.011848668,-0.416239493,0,0,0,space,,,,,,WHEEL,C,m,y,./images/WHEEL.png,21.733,,,,,,,,,,,,,,,,,,,,m,1,0.7002,,,,,,,,0,125,125,77,1
,,,,,,,,,,,,,,,,,5dd72efa82569a6d38e06854,39,2022-02-12_10h18.39.888,lexical_decision_task_DD_L5,2021.2.3,MacIntel,60.0024001,,,,,,,,,,,1.5691,1,,,,,,,,,,,,,,,,,,,,,,,,0.011642947,-0.416239493,0,0,0,,,,,,,SAUCE,HB,m,y,./images/SAUCEHB.png,,,,,,,,,,,,,,,,,,,,,m,1,1.5691,,,,,,,,0,126,126,51,1
,,,,,,,,,,,,,,,,,5dd72efa82569a6d38e06854,39,2022-02-12_10h18.39.888,lexical_decision_task_DD_L5,2021.2.3,MacIntel,60.0024001,,,,,,,,,,,0.7836,1,,,,,,,,,,,,,,,,,,,,,,,,0.011642947,-0.416239493,0,0,0,,,,,,,SLOPE,HB,m,y,./images/SLOPEHB.png,,,,,,,,,,,,,,,,,,,,,m,1,0.7836,,,,,,,,0,127,127,30,1
,,,,,,,,,,,,,,,,,5dd72efa82569a6d38e06854,39,2022-02-12_10h18.39.888,lexical_decision_task_DD_L5,2021.2.3,MacIntel,60.0024001,,,,,,,,,,,1.4319,0,,,,,,,,,,,,,,,,,,,,,,,,0.011642947,-0.416239493,0,0,0,,,,,,,BEARD,C,z,y,./images/BEARD.png,,,,,,,,,,,,,,,,,,,,,m,0,1.4319,,,,,,,,0,128,128,86,1
