key_resp.keys,key_resp.rt,instr_done_touch.x,instr_done_touch.y,instr_done_touch.leftButton,instr_done_touch.midButton,instr_done_touch.rightButton,instruction_pages.thisRepN,instruction_pages.thisTrialN,instruction_pages.thisN,instruction_pages.thisIndex,instruction_pages.ran,pageN,phase,instruct_text,has_image,instruct_image,participant,age,date,expName,psychopyVersion,OS,frameRate,response.keys,response.corr,response.rt,touch_resp.x,touch_resp.y,touch_resp.leftButton,touch_resp.midButton,touch_resp.rightButton,touch_resp.time,touch_resp.clicked_name,rt,corr,practrials.thisRepN,practrials.thisTrialN,practrials.thisN,practrials.thisIndex,practrials.ran,TrialID,Target,corrAns,end_of_practice_trials_pages.thisRepN,end_of_practice_trials_pages.thisTrialN,end_of_practice_trials_pages.thisN,end_of_practice_trials_pages.thisIndex,end_of_practice_trials_pages.ran,key_resp_2.keys,key_resp_2.corr,key_resp_2.rt,targ_click.x,targ_click.y,targ_click.leftButton,targ_click.midButton,targ_click.rightButton,targ_click.time,targ_click.clicked_name,break_done_touch.x,break_done_touch.y,break_done_touch.leftButton,break_done_touch.midButton,break_done_touch.rightButton,break_done_keyboard.keys,maintrials.thisRepN,maintrials.thisTrialN,maintrials.thisN,maintrials.thisIndex,maintrials.ran,string,blur,study,lex,stim_path,break_done_keyboard.rt,mouse_2.x,mouse_2.y,mouse_2.leftButton,mouse_2.midButton,mouse_2.rightButton,mouse_2.clicked_name,slider.response,slider.rt,trials.thisRepN,trials.thisTrialN,trials.thisN,trials.thisIndex,trials.ran,test_instructions.thisRepN,test_instructions.thisTrialN,test_instructions.thisN,test_instructions.thisIndex,test_instructions.ran,instr_done_touch.clicked_name,key_resp_3.keys,key_resp_3.corr,key_resp_3.rt,test_click.x,test_click.y,test_click.leftButton,test_click.midButton,test_click.rightButton,test_click.time,test_click.clicked_name,test_phase.thisRepN,test_phase.thisTrialN,test_phase.thisN,test_phase.thisIndex,test_phase.ran
space,25.9877,-0.378095238,-0.167619048,0,0,0,0,0,0,0,1,1,instructions,"INSTRUCTIONS
At the start of each trial, look at the plus sign  (+) in the center of the screen.  This tells you that a trial is about to begin and where to look. Second, the plus sign will disappear and a string of letters will appear. Your task is to determine if the string of letters is a word or not. If the item is a word press the M key (on keyboard)  or touch the word button (phone/tablet).  If the item is not a word,  press the  Z key (on keyboard)  or touch the nonword button (on phone/tablet). 
Press the space bar or touch  continue.",0,,5f1b6a9ec094bd360e71cee1,20,2022-02-12_10h15.31.984,lexical_decision_task_DD_L5,2021.2.3,Win32,59.87665409,,,,,,,,,,,,,,,,,,,,,,,,,,,,,,,,,,,,,,,,,,,,,,,,,,,,,,,,,,,,,,,,,,,,,,,,,,,,,,,,,,,,,,
space,4.4263,-0.378095238,-0.167619048,0,0,0,0,1,1,1,1,2,instructions,"If your device has a keyboard, press the 'Z' key for nonwords and the 'M' key for words.





Press the space bar or touch the button below to continue.",0,keyboard-example.gif,5f1b6a9ec094bd360e71cee1,20,2022-02-12_10h15.31.984,lexical_decision_task_DD_L5,2021.2.3,Win32,59.87665409,,,,,,,,,,,,,,,,,,,,,,,,,,,,,,,,,,,,,,,,,,,,,,,,,,,,,,,,,,,,,,,,,,,,,,,,,,,,,,,,,,,,,,
space,5.3324,-0.378095238,-0.167619048,0,0,0,0,2,2,2,1,3,instructions,"If you are using a touchscreen only device, use the buttons on the screen. Do not use the mouse.





Press the space bar or touch the button below to continue.",0,touchscreen-example.gif,5f1b6a9ec094bd360e71cee1,20,2022-02-12_10h15.31.984,lexical_decision_task_DD_L5,2021.2.3,Win32,59.87665409,,,,,,,,,,,,,,,,,,,,,,,,,,,,,,,,,,,,,,,,,,,,,,,,,,,,,,,,,,,,,,,,,,,,,,,,,,,,,,,,,,,,,,
space,9.0853,-0.378095238,-0.167619048,0,0,0,0,3,3,3,1,4,instructions,"It is very important that you respond as quickly and accurately as possible, as each letter string will only be on the screen for two seconds. If you do not respond within this time, the message 'Too slow!' will be displayed and the experiment will progress to the next letter string. The first 20 trials will be practice trials and you will receive feedback on your answers. 

Press the space bar or touch the button below to start the practice trials.",0,,5f1b6a9ec094bd360e71cee1,20,2022-02-12_10h15.31.984,lexical_decision_task_DD_L5,2021.2.3,Win32,59.87665409,,,,,,,,,,,,,,,,,,,,,,,,,,,,,,,,,,,,,,,,,,,,,,,,,,,,,,,,,,,,,,,,,,,,,,,,,,,,,,,,,,,,,,
,,,,,,,,,,,,,,,,,5f1b6a9ec094bd360e71cee1,20,2022-02-12_10h15.31.984,lexical_decision_task_DD_L5,2021.2.3,Win32,59.87665409,m,1,1.0261,,,,,,,,1.0261,1,0,0,0,6,1,1001,ZOMBIE,m,,,,,,,,,,,,,,,,,,,,,,,,,,,,,,,,,,,,,,,,,,,,,,,,,,,,,,,,,,,,,,,,,,
,,,,,,,,,,,,,,,,,5f1b6a9ec094bd360e71cee1,20,2022-02-12_10h15.31.984,lexical_decision_task_DD_L5,2021.2.3,Win32,59.87665409,m,0,0.8686,,,,,,,,0.8686,0,0,1,1,12,1,1001,SPRINY,z,,,,,,,,,,,,,,,,,,,,,,,,,,,,,,,,,,,,,,,,,,,,,,,,,,,,,,,,,,,,,,,,,,
,,,,,,,,,,,,,,,,,5f1b6a9ec094bd360e71cee1,20,2022-02-12_10h15.31.984,lexical_decision_task_DD_L5,2021.2.3,Win32,59.87665409,m,1,0.5416,,,,,,,,0.5416,1,0,2,2,1,1,1001,ADJUST,m,,,,,,,,,,,,,,,,,,,,,,,,,,,,,,,,,,,,,,,,,,,,,,,,,,,,,,,,,,,,,,,,,,
,,,,,,,,,,,,,,,,,5f1b6a9ec094bd360e71cee1,20,2022-02-12_10h15.31.984,lexical_decision_task_DD_L5,2021.2.3,Win32,59.87665409,z,1,0.7263,,,,,,,,0.7263,1,0,3,3,15,1,1001,WHAISE,z,,,,,,,,,,,,,,,,,,,,,,,,,,,,,,,,,,,,,,,,,,,,,,,,,,,,,,,,,,,,,,,,,,
,,,,,,,,,,,,,,,,,5f1b6a9ec094bd360e71cee1,20,2022-02-12_10h15.31.984,lexical_decision_task_DD_L5,2021.2.3,Win32,59.87665409,m,1,0.4852,,,,,,,,0.4852,1,0,4,4,7,1,1001,VOLUME,m,,,,,,,,,,,,,,,,,,,,,,,,,,,,,,,,,,,,,,,,,,,,,,,,,,,,,,,,,,,,,,,,,,
,,,,,,,,,,,,,,,,,5f1b6a9ec094bd360e71cee1,20,2022-02-12_10h15.31.984,lexical_decision_task_DD_L5,2021.2.3,Win32,59.87665409,m,0,0.7535,,,,,,,,0.7535,0,0,5,5,11,1,1001,RASHET,z,,,,,,,,,,,,,,,,,,,,,,,,,,,,,,,,,,,,,,,,,,,,,,,,,,,,,,,,,,,,,,,,,,
,,,,,,,,,,,,,,,,,5f1b6a9ec094bd360e71cee1,20,2022-02-12_10h15.31.984,lexical_decision_task_DD_L5,2021.2.3,Win32,59.87665409,m,1,0.6688,,,,,,,,0.6688,1,0,6,6,5,1,1001,OBTAIN,m,,,,,,,,,,,,,,,,,,,,,,,,,,,,,,,,,,,,,,,,,,,,,,,,,,,,,,,,,,,,,,,,,,
,,,,,,,,,,,,,,,,,5f1b6a9ec094bd360e71cee1,20,2022-02-12_10h15.31.984,lexical_decision_task_DD_L5,2021.2.3,Win32,59.87665409,m,1,0.6517,,,,,,,,0.6517,1,0,7,7,0,1,1001,UTOPIA,m,,,,,,,,,,,,,,,,,,,,,,,,,,,,,,,,,,,,,,,,,,,,,,,,,,,,,,,,,,,,,,,,,,
,,,,,,,,,,,,,,,,,5f1b6a9ec094bd360e71cee1,20,2022-02-12_10h15.31.984,lexical_decision_task_DD_L5,2021.2.3,Win32,59.87665409,z,1,0.8782,,,,,,,,0.8782,1,0,8,8,8,1,1001,ASLERT,z,,,,,,,,,,,,,,,,,,,,,,,,,,,,,,,,,,,,,,,,,,,,,,,,,,,,,,,,,,,,,,,,,,
,,,,,,,,,,,,,,,,,5f1b6a9ec094bd360e71cee1,20,2022-02-12_10h15.31.984,lexical_decision_task_DD_L5,2021.2.3,Win32,59.87665409,m,1,0.7058,,,,,,,,0.7058,1,0,9,9,2,1,1001,ALMOND,m,,,,,,,,,,,,,,,,,,,,,,,,,,,,,,,,,,,,,,,,,,,,,,,,,,,,,,,,,,,,,,,,,,
,,,,,,,,,,,,,,,,,5f1b6a9ec094bd360e71cee1,20,2022-02-12_10h15.31.984,lexical_decision_task_DD_L5,2021.2.3,Win32,59.87665409,z,1,0.7244,,,,,,,,0.7244,1,0,10,10,13,1,1001,ROUPET,z,,,,,,,,,,,,,,,,,,,,,,,,,,,,,,,,,,,,,,,,,,,,,,,,,,,,,,,,,,,,,,,,,,
,,,,,,,,,,,,,,,,,5f1b6a9ec094bd360e71cee1,20,2022-02-12_10h15.31.984,lexical_decision_task_DD_L5,2021.2.3,Win32,59.87665409,z,1,0.7893,,,,,,,,0.7893,1,0,11,11,14,1,1001,THRALE,z,,,,,,,,,,,,,,,,,,,,,,,,,,,,,,,,,,,,,,,,,,,,,,,,,,,,,,,,,,,,,,,,,,
,,,,,,,,,,,,,,,,,5f1b6a9ec094bd360e71cee1,20,2022-02-12_10h15.31.984,lexical_decision_task_DD_L5,2021.2.3,Win32,59.87665409,z,1,1.0149,,,,,,,,1.0149,1,0,12,12,9,1,1001,FARINY,z,,,,,,,,,,,,,,,,,,,,,,,,,,,,,,,,,,,,,,,,,,,,,,,,,,,,,,,,,,,,,,,,,,
,,,,,,,,,,,,,,,,,5f1b6a9ec094bd360e71cee1,20,2022-02-12_10h15.31.984,lexical_decision_task_DD_L5,2021.2.3,Win32,59.87665409,m,1,0.5966,,,,,,,,0.5966,1,0,13,13,3,1,1001,MATRIX,m,,,,,,,,,,,,,,,,,,,,,,,,,,,,,,,,,,,,,,,,,,,,,,,,,,,,,,,,,,,,,,,,,,
,,,,,,,,,,,,,,,,,5f1b6a9ec094bd360e71cee1,20,2022-02-12_10h15.31.984,lexical_decision_task_DD_L5,2021.2.3,Win32,59.87665409,m,1,0.5481,,,,,,,,0.5481,1,0,14,14,4,1,1001,SQUEAK,m,,,,,,,,,,,,,,,,,,,,,,,,,,,,,,,,,,,,,,,,,,,,,,,,,,,,,,,,,,,,,,,,,,
,,,,,,,,,,,,,,,,,5f1b6a9ec094bd360e71cee1,20,2022-02-12_10h15.31.984,lexical_decision_task_DD_L5,2021.2.3,Win32,59.87665409,m,0,0.7209,,,,,,,,0.7209,0,0,15,15,10,1,1001,INLADE,z,,,,,,,,,,,,,,,,,,,,,,,,,,,,,,,,,,,,,,,,,,,,,,,,,,,,,,,,,,,,,,,,,,
space,6.3866,-0.378095238,-0.167619048,0,0,0,,,,,,1,end_of_practice,"You have completed the practice trials. During the experimental trials, you will not receive feedback. 
Before you begin, please ensure that you are in a comfortable and quiet location and will not be disturbed for about 15 minutes, as we cannot use your data if you do not complete all the trials. 
 When you are ready to start the experimental trials, please press space or touch the button below.",,,5f1b6a9ec094bd360e71cee1,20,2022-02-12_10h15.31.984,lexical_decision_task_DD_L5,2021.2.3,Win32,59.87665409,,,,,,,,,,,,,,,,,,,,,0,0,0,0,1,,,,,,,,,,,,,,,,,,,,,,,,,,,,,,,,,,,,,,,,,,,,,,,,,,,,,,,,,,,,,
,,,,,,,,,,,,,,,,,5f1b6a9ec094bd360e71cee1,20,2022-02-12_10h15.31.984,lexical_decision_task_DD_L5,2021.2.3,Win32,59.87665409,,,,,,,,,,,0.7254,1,,,,,,,,,,,,,,m,1,0.7254,,,,,,,,-0.378095238,-0.167619048,0,0,0,,0,0,0,56,1,HEATER,C,old,m,./images/HEATER.png,,,,,,,,,,,,,,,,,,,,,,,,,,,,,,,,,,,
,,,,,,,,,,,,,,,,,5f1b6a9ec094bd360e71cee1,20,2022-02-12_10h15.31.984,lexical_decision_task_DD_L5,2021.2.3,Win32,59.87665409,,,,,,,,,,,1.248,0,,,,,,,,,,,,,,z,0,1.248,,,,,,,,-0.378095238,-0.167619048,0,0,0,,0,1,1,3,1,CRATER,HB,old,m,./images/CRATERHB.png,,,,,,,,,,,,,,,,,,,,,,,,,,,,,,,,,,,
,,,,,,,,,,,,,,,,,5f1b6a9ec094bd360e71cee1,20,2022-02-12_10h15.31.984,lexical_decision_task_DD_L5,2021.2.3,Win32,59.87665409,,,,,,,,,,,1.0278,1,,,,,,,,,,,,,,m,1,1.0278,,,,,,,,-0.378095238,-0.167619048,0,0,0,,0,2,2,32,1,HOCKEY,C,old,m,./images/HOCKEY.png,,,,,,,,,,,,,,,,,,,,,,,,,,,,,,,,,,,
,,,,,,,,,,,,,,,,,5f1b6a9ec094bd360e71cee1,20,2022-02-12_10h15.31.984,lexical_decision_task_DD_L5,2021.2.3,Win32,59.87665409,,,,,,,,,,,0.9336,1,,,,,,,,,,,,,,m,1,0.9336,,,,,,,,-0.378095238,-0.167619048,0,0,0,,0,3,3,52,1,DESERT,LB,old,m,./images/DESERTLB.png,,,,,,,,,,,,,,,,,,,,,,,,,,,,,,,,,,,
,,,,,,,,,,,,,,,,,5f1b6a9ec094bd360e71cee1,20,2022-02-12_10h15.31.984,lexical_decision_task_DD_L5,2021.2.3,Win32,59.87665409,,,,,,,,,,,0.6885,1,,,,,,,,,,,,,,m,1,0.6885,,,,,,,,-0.378095238,-0.167619048,0,0,0,,0,4,4,29,1,PISTOL,C,old,m,./images/PISTOL.png,,,,,,,,,,,,,,,,,,,,,,,,,,,,,,,,,,,
,,,,,,,,,,,,,,,,,5f1b6a9ec094bd360e71cee1,20,2022-02-12_10h15.31.984,lexical_decision_task_DD_L5,2021.2.3,Win32,59.87665409,,,,,,,,,,,1.1478,0,,,,,,,,,,,,,,m,0,1.1478,,,,,,,,-0.378095238,-0.167619048,0,0,0,,0,5,5,139,1,BLEAR,HB,old,z,./images/BLEARHB.png,,,,,,,,,,,,,,,,,,,,,,,,,,,,,,,,,,,
,,,,,,,,,,,,,,,,,5f1b6a9ec094bd360e71cee1,20,2022-02-12_10h15.31.984,lexical_decision_task_DD_L5,2021.2.3,Win32,59.87665409,,,,,,,,,,,0.8479,1,,,,,,,,,,,,,,m,1,0.8479,,,,,,,,-0.378095238,-0.167619048,0,0,0,,0,6,6,61,1,ARTIST,LB,old,m,./images/ARTISTLB.png,,,,,,,,,,,,,,,,,,,,,,,,,,,,,,,,,,,
,,,,,,,,,,,,,,,,,5f1b6a9ec094bd360e71cee1,20,2022-02-12_10h15.31.984,lexical_decision_task_DD_L5,2021.2.3,Win32,59.87665409,,,,,,,,,,,0.6512,1,,,,,,,,,,,,,,m,1,0.6512,,,,,,,,-0.378095238,-0.167619048,0,0,0,,0,7,7,43,1,STOOL,LB,old,m,./images/STOOLLB.png,,,,,,,,,,,,,,,,,,,,,,,,,,,,,,,,,,,
,,,,,,,,,,,,,,,,,5f1b6a9ec094bd360e71cee1,20,2022-02-12_10h15.31.984,lexical_decision_task_DD_L5,2021.2.3,Win32,59.87665409,,,,,,,,,,,1.299,1,,,,,,,,,,,,,,m,1,1.299,,,,,,,,-0.378095238,-0.167619048,0,0,0,,0,8,8,12,1,BLOKE,HB,old,m,./images/BLOKEHB.png,,,,,,,,,,,,,,,,,,,,,,,,,,,,,,,,,,,
,,,,,,,,,,,,,,,,,5f1b6a9ec094bd360e71cee1,20,2022-02-12_10h15.31.984,lexical_decision_task_DD_L5,2021.2.3,Win32,59.87665409,,,,,,,,,,,1.0561,1,,,,,,,,,,,,,,z,1,1.0561,,,,,,,,-0.378095238,-0.167619048,0,0,0,,0,9,9,95,1,HANTY,LB,old,z,./images/HANTYLB.png,,,,,,,,,,,,,,,,,,,,,,,,,,,,,,,,,,,
,,,,,,,,,,,,,,,,,5f1b6a9ec094bd360e71cee1,20,2022-02-12_10h15.31.984,lexical_decision_task_DD_L5,2021.2.3,Win32,59.87665409,,,,,,,,,,,1.2089,1,,,,,,,,,,,,,,z,1,1.2089,,,,,,,,-0.378095238,-0.167619048,0,0,0,,0,10,10,122,1,BLOOT,LB,old,z,./images/BLOOTLB.png,,,,,,,,,,,,,,,,,,,,,,,,,,,,,,,,,,,
,,,,,,,,,,,,,,,,,5f1b6a9ec094bd360e71cee1,20,2022-02-12_10h15.31.984,lexical_decision_task_DD_L5,2021.2.3,Win32,59.87665409,,,,,,,,,,,1.423,0,,,,,,,,,,,,,,m,0,1.423,,,,,,,,-0.378095238,-0.167619048,0,0,0,,0,11,11,103,1,FLORT,HB,old,z,./images/FLORTHB.png,,,,,,,,,,,,,,,,,,,,,,,,,,,,,,,,,,,
,,,,,,,,,,,,,,,,,5f1b6a9ec094bd360e71cee1,20,2022-02-12_10h15.31.984,lexical_decision_task_DD_L5,2021.2.3,Win32,59.87665409,,,,,,,,,,,1.3992,0,,,,,,,,,,,,,,m,0,1.3992,,,,,,,,-0.378095238,-0.167619048,0,0,0,,0,12,12,121,1,CEERS,HB,old,z,./images/CEERSHB.png,,,,,,,,,,,,,,,,,,,,,,,,,,,,,,,,,,,
,,,,,,,,,,,,,,,,,5f1b6a9ec094bd360e71cee1,20,2022-02-12_10h15.31.984,lexical_decision_task_DD_L5,2021.2.3,Win32,59.87665409,,,,,,,,,,,1.2156,1,,,,,,,,,,,,,,m,1,1.2156,,,,,,,,-0.378095238,-0.167619048,0,0,0,,0,13,13,24,1,FLESH,HB,old,m,./images/FLESHHB.png,,,,,,,,,,,,,,,,,,,,,,,,,,,,,,,,,,,
,,,,,,,,,,,,,,,,,5f1b6a9ec094bd360e71cee1,20,2022-02-12_10h15.31.984,lexical_decision_task_DD_L5,2021.2.3,Win32,59.87665409,,,,,,,,,,,1.7348,1,,,,,,,,,,,,,,m,1,1.7348,,,,,,,,-0.378095238,-0.167619048,0,0,0,,0,14,14,66,1,STATUE,HB,old,m,./images/STATUEHB.png,,,,,,,,,,,,,,,,,,,,,,,,,,,,,,,,,,,
,,,,,,,,,,,,,,,,,5f1b6a9ec094bd360e71cee1,20,2022-02-12_10h15.31.984,lexical_decision_task_DD_L5,2021.2.3,Win32,59.87665409,,,,,,,,,,,1.0986,1,,,,,,,,,,,,,,m,1,1.0986,,,,,,,,-0.378095238,-0.167619048,0,0,0,,0,15,15,15,1,COLLAR,HB,old,m,./images/COLLARHB.png,,,,,,,,,,,,,,,,,,,,,,,,,,,,,,,,,,,
,,,,,,,,,,,,,,,,,5f1b6a9ec094bd360e71cee1,20,2022-02-12_10h15.31.984,lexical_decision_task_DD_L5,2021.2.3,Win32,59.87665409,,,,,,,,,,,1.9102,1,,,,,,,,,,,,,,m,1,1.9102,,,,,,,,-0.378095238,-0.167619048,0,0,0,,0,16,16,42,1,CHAIN,HB,old,m,./images/CHAINHB.png,,,,,,,,,,,,,,,,,,,,,,,,,,,,,,,,,,,
,,,,,,,,,,,,,,,,,5f1b6a9ec094bd360e71cee1,20,2022-02-12_10h15.31.984,lexical_decision_task_DD_L5,2021.2.3,Win32,59.87665409,,,,,,,,,,,1.0876,1,,,,,,,,,,,,,,z,1,1.0876,,,,,,,,-0.378095238,-0.167619048,0,0,0,,0,17,17,152,1,FRAIN,LB,old,z,./images/FRAINLB.png,,,,,,,,,,,,,,,,,,,,,,,,,,,,,,,,,,,
,,,,,,,,,,,,,,,,,5f1b6a9ec094bd360e71cee1,20,2022-02-12_10h15.31.984,lexical_decision_task_DD_L5,2021.2.3,Win32,59.87665409,,,,,,,,,,,0.6302,1,,,,,,,,,,,,,,m,1,0.6302,,,,,,,,-0.378095238,-0.167619048,0,0,0,,0,18,18,79,1,RULER,LB,old,m,./images/RULERLB.png,,,,,,,,,,,,,,,,,,,,,,,,,,,,,,,,,,,
,,,,,,,,,,,,,,,,,5f1b6a9ec094bd360e71cee1,20,2022-02-12_10h15.31.984,lexical_decision_task_DD_L5,2021.2.3,Win32,59.87665409,,,,,,,,,,,0.9647,1,,,,,,,,,,,,,,z,1,0.9647,,,,,,,,-0.378095238,-0.167619048,0,0,0,,0,19,19,167,1,ZONET,LB,old,z,./images/ZONETLB.png,,,,,,,,,,,,,,,,,,,,,,,,,,,,,,,,,,,
,,,,,,,,,,,,,,,,,5f1b6a9ec094bd360e71cee1,20,2022-02-12_10h15.31.984,lexical_decision_task_DD_L5,2021.2.3,Win32,59.87665409,,,,,,,,,,,0.8592,1,,,,,,,,,,,,,,z,1,0.8592,,,,,,,,-0.378095238,-0.167619048,0,0,0,,0,20,20,156,1,HIXES,C,old,z,./images/HIXES.png,,,,,,,,,,,,,,,,,,,,,,,,,,,,,,,,,,,
,,,,,,,,,,,,,,,,,5f1b6a9ec094bd360e71cee1,20,2022-02-12_10h15.31.984,lexical_decision_task_DD_L5,2021.2.3,Win32,59.87665409,,,,,,,,,,,2.1814,1,,,,,,,,,,,,,,z,1,2.1814,,,,,,,,-0.378095238,-0.167619048,0,0,0,,0,21,21,88,1,GLUSH,HB,old,z,./images/GLUSHHB.png,,,,,,,,,,,,,,,,,,,,,,,,,,,,,,,,,,,
,,,,,,,,,,,,,,,,,5f1b6a9ec094bd360e71cee1,20,2022-02-12_10h15.31.984,lexical_decision_task_DD_L5,2021.2.3,Win32,59.87665409,,,,,,,,,,,0.9984,1,,,,,,,,,,,,,,m,1,0.9984,,,,,,,,-0.378095238,-0.167619048,0,0,0,,0,22,22,39,1,CANDY,HB,old,m,./images/CANDYHB.png,,,,,,,,,,,,,,,,,,,,,,,,,,,,,,,,,,,
,,,,,,,,,,,,,,,,,5f1b6a9ec094bd360e71cee1,20,2022-02-12_10h15.31.984,lexical_decision_task_DD_L5,2021.2.3,Win32,59.87665409,,,,,,,,,,,0.8418,1,,,,,,,,,,,,,,z,1,0.8418,,,,,,,,-0.378095238,-0.167619048,0,0,0,,0,23,23,101,1,GLEET,LB,old,z,./images/GLEETLB.png,,,,,,,,,,,,,,,,,,,,,,,,,,,,,,,,,,,
,,,,,,,,,,,,,,,,,5f1b6a9ec094bd360e71cee1,20,2022-02-12_10h15.31.984,lexical_decision_task_DD_L5,2021.2.3,Win32,59.87665409,,,,,,,,,,,1.2117,1,,,,,,,,,,,,,,z,1,1.2117,,,,,,,,-0.378095238,-0.167619048,0,0,0,,0,24,24,86,1,AIFED,LB,old,z,./images/AIFEDLB.png,,,,,,,,,,,,,,,,,,,,,,,,,,,,,,,,,,,
,,,,,,,,,,,,,,,,,5f1b6a9ec094bd360e71cee1,20,2022-02-12_10h15.31.984,lexical_decision_task_DD_L5,2021.2.3,Win32,59.87665409,,,,,,,,,,,1.867,1,,,,,,,,,,,,,,z,1,1.867,,,,,,,,-0.378095238,-0.167619048,0,0,0,,0,25,25,97,1,CHIDS,HB,old,z,./images/CHIDSHB.png,,,,,,,,,,,,,,,,,,,,,,,,,,,,,,,,,,,
,,,,,,,,,,,,,,,,,5f1b6a9ec094bd360e71cee1,20,2022-02-12_10h15.31.984,lexical_decision_task_DD_L5,2021.2.3,Win32,59.87665409,,,,,,,,,,,0.5939,1,,,,,,,,,,,,,,m,1,0.5939,,,,,,,,-0.378095238,-0.167619048,0,0,0,,0,26,26,41,1,STREAM,C,old,m,./images/STREAM.png,,,,,,,,,,,,,,,,,,,,,,,,,,,,,,,,,,,
,,,,,,,,,,,,,,,,,5f1b6a9ec094bd360e71cee1,20,2022-02-12_10h15.31.984,lexical_decision_task_DD_L5,2021.2.3,Win32,59.87665409,,,,,,,,,,,1.0188,1,,,,,,,,,,,,,,z,1,1.0188,,,,,,,,-0.378095238,-0.167619048,0,0,0,,0,27,27,149,1,VEASE,LB,old,z,./images/VEASELB.png,,,,,,,,,,,,,,,,,,,,,,,,,,,,,,,,,,,
,,,,,,,,,,,,,,,,,5f1b6a9ec094bd360e71cee1,20,2022-02-12_10h15.31.984,lexical_decision_task_DD_L5,2021.2.3,Win32,59.87665409,,,,,,,,,,,0.7922,1,,,,,,,,,,,,,,m,1,0.7922,,,,,,,,-0.378095238,-0.167619048,0,0,0,,0,28,28,65,1,SPINE,C,old,m,./images/SPINE.png,,,,,,,,,,,,,,,,,,,,,,,,,,,,,,,,,,,
,,,,,,,,,,,,,,,,,5f1b6a9ec094bd360e71cee1,20,2022-02-12_10h15.31.984,lexical_decision_task_DD_L5,2021.2.3,Win32,59.87665409,,,,,,,,,,,0.7835,1,,,,,,,,,,,,,,m,1,0.7835,,,,,,,,-0.378095238,-0.167619048,0,0,0,,0,29,29,28,1,CASINO,LB,old,m,./images/CASINOLB.png,,,,,,,,,,,,,,,,,,,,,,,,,,,,,,,,,,,
,,,,,,,,,,,,,,,,,5f1b6a9ec094bd360e71cee1,20,2022-02-12_10h15.31.984,lexical_decision_task_DD_L5,2021.2.3,Win32,59.87665409,,,,,,,,,,,0.612,1,,,,,,,,,,,,,,m,1,0.612,,,,,,,,-0.378095238,-0.167619048,0,0,0,,0,30,30,40,1,SNAKE,LB,old,m,./images/SNAKELB.png,,,,,,,,,,,,,,,,,,,,,,,,,,,,,,,,,,,
,,,,,,,,,,,,,,,,,5f1b6a9ec094bd360e71cee1,20,2022-02-12_10h15.31.984,lexical_decision_task_DD_L5,2021.2.3,Win32,59.87665409,,,,,,,,,,,0.6526,1,,,,,,,,,,,,,,m,1,0.6526,,,,,,,,-0.378095238,-0.167619048,0,0,0,,0,31,31,73,1,GLOVE,LB,old,m,./images/GLOVELB.png,,,,,,,,,,,,,,,,,,,,,,,,,,,,,,,,,,,
,,,,,,,,,,,,,,,,,5f1b6a9ec094bd360e71cee1,20,2022-02-12_10h15.31.984,lexical_decision_task_DD_L5,2021.2.3,Win32,59.87665409,,,,,,,,,,,0.8396,1,,,,,,,,,,,,,,z,1,0.8396,,,,,,,,-0.378095238,-0.167619048,0,0,0,,0,32,32,155,1,CANGY,LB,old,z,./images/CANGYLB.png,,,,,,,,,,,,,,,,,,,,,,,,,,,,,,,,,,,
,,,,,,,,,,,,,,,,,5f1b6a9ec094bd360e71cee1,20,2022-02-12_10h15.31.984,lexical_decision_task_DD_L5,2021.2.3,Win32,59.87665409,,,,,,,,,,,0.6789,1,,,,,,,,,,,,,,m,1,0.6789,,,,,,,,-0.378095238,-0.167619048,0,0,0,,0,33,33,44,1,BASKET,C,old,m,./images/BASKET.png,,,,,,,,,,,,,,,,,,,,,,,,,,,,,,,,,,,
,,,,,,,,,,,,,,,,,5f1b6a9ec094bd360e71cee1,20,2022-02-12_10h15.31.984,lexical_decision_task_DD_L5,2021.2.3,Win32,59.87665409,,,,,,,,,,,0.8877,1,,,,,,,,,,,,,,z,1,0.8877,,,,,,,,-0.378095238,-0.167619048,0,0,0,,0,34,34,104,1,GITTY,LB,old,z,./images/GITTYLB.png,,,,,,,,,,,,,,,,,,,,,,,,,,,,,,,,,,,
,,,,,,,,,,,,,,,,,5f1b6a9ec094bd360e71cee1,20,2022-02-12_10h15.31.984,lexical_decision_task_DD_L5,2021.2.3,Win32,59.87665409,,,,,,,,,,,0.7574,1,,,,,,,,,,,,,,z,1,0.7574,,,,,,,,-0.378095238,-0.167619048,0,0,0,,0,35,35,105,1,MOKER,C,old,z,./images/MOKER.png,,,,,,,,,,,,,,,,,,,,,,,,,,,,,,,,,,,
,,,,,,,,,,,,,,,,,5f1b6a9ec094bd360e71cee1,20,2022-02-12_10h15.31.984,lexical_decision_task_DD_L5,2021.2.3,Win32,59.87665409,,,,,,,,,,,1.4653,1,,,,,,,,,,,,,,z,1,1.4653,,,,,,,,-0.378095238,-0.167619048,0,0,0,,0,36,36,157,1,INLER,HB,old,z,./images/INLERHB.png,,,,,,,,,,,,,,,,,,,,,,,,,,,,,,,,,,,
,,,,,,,,,,,,,,,,,5f1b6a9ec094bd360e71cee1,20,2022-02-12_10h15.31.984,lexical_decision_task_DD_L5,2021.2.3,Win32,59.87665409,,,,,,,,,,,0.9599,1,,,,,,,,,,,,,,m,1,0.9599,,,,,,,,-0.378095238,-0.167619048,0,0,0,,0,37,37,16,1,GRAPE,LB,old,m,./images/GRAPELB.png,,,,,,,,,,,,,,,,,,,,,,,,,,,,,,,,,,,
,,,,,,,,,,,,,,,,,5f1b6a9ec094bd360e71cee1,20,2022-02-12_10h15.31.984,lexical_decision_task_DD_L5,2021.2.3,Win32,59.87665409,,,,,,,,,,,1.2351,0,,,,,,,,,,,,,,m,0,1.2351,,,,,,,,-0.378095238,-0.167619048,0,0,0,,0,38,38,100,1,DRIBS,HB,old,z,./images/DRIBSHB.png,,,,,,,,,,,,,,,,,,,,,,,,,,,,,,,,,,,
,,,,,,,,,,,,,,,,,5f1b6a9ec094bd360e71cee1,20,2022-02-12_10h15.31.984,lexical_decision_task_DD_L5,2021.2.3,Win32,59.87665409,,,,,,,,,,,0.8215,1,,,,,,,,,,,,,,z,1,0.8215,,,,,,,,-0.378095238,-0.167619048,0,0,0,,0,39,39,102,1,DULLE,C,old,z,./images/DULLE.png,,,,,,,,,,,,,,,,,,,,,,,,,,,,,,,,,,,
,,,,,,,,,,,,,,,,,5f1b6a9ec094bd360e71cee1,20,2022-02-12_10h15.31.984,lexical_decision_task_DD_L5,2021.2.3,Win32,59.87665409,,,,,,,,,,,0.8929,1,,,,,,,,,,,,,,z,1,0.8929,,,,,,,,-0.378095238,-0.167619048,0,0,0,,0,40,40,113,1,LINEW,LB,old,z,./images/LINEWLB.png,,,,,,,,,,,,,,,,,,,,,,,,,,,,,,,,,,,
,,,,,,,,,,,,,,,,,5f1b6a9ec094bd360e71cee1,20,2022-02-12_10h15.31.984,lexical_decision_task_DD_L5,2021.2.3,Win32,59.87665409,,,,,,,,,,,1.8918,1,,,,,,,,,,,,,,z,1,1.8918,,,,,,,,-0.378095238,-0.167619048,0,0,0,space,0,41,41,133,1,POWDY,HB,old,z,./images/POWDYHB.png,123.6049,,,,,,,,,,,,,,,,,,,,,,,,,,,,,,,,,,
,,,,,,,,,,,,,,,,,5f1b6a9ec094bd360e71cee1,20,2022-02-12_10h15.31.984,lexical_decision_task_DD_L5,2021.2.3,Win32,59.87665409,,,,,,,,,,,1.1872,1,,,,,,,,,,,,,,m,1,1.1872,,,,,,,,-0.378095238,-0.167619048,0,0,0,,0,42,42,55,1,ALLEY,LB,old,m,./images/ALLEYLB.png,,,,,,,,,,,,,,,,,,,,,,,,,,,,,,,,,,,
,,,,,,,,,,,,,,,,,5f1b6a9ec094bd360e71cee1,20,2022-02-12_10h15.31.984,lexical_decision_task_DD_L5,2021.2.3,Win32,59.87665409,,,,,,,,,,,0.8363,1,,,,,,,,,,,,,,z,1,0.8363,,,,,,,,-0.378095238,-0.167619048,0,0,0,,0,43,43,153,1,CLUPS,C,old,z,./images/CLUPS.png,,,,,,,,,,,,,,,,,,,,,,,,,,,,,,,,,,,
,,,,,,,,,,,,,,,,,5f1b6a9ec094bd360e71cee1,20,2022-02-12_10h15.31.984,lexical_decision_task_DD_L5,2021.2.3,Win32,59.87665409,,,,,,,,,,,0.7943,1,,,,,,,,,,,,,,m,1,0.7943,,,,,,,,-0.378095238,-0.167619048,0,0,0,,0,44,44,82,1,PEBBLE,LB,old,m,./images/PEBBLELB.png,,,,,,,,,,,,,,,,,,,,,,,,,,,,,,,,,,,
,,,,,,,,,,,,,,,,,5f1b6a9ec094bd360e71cee1,20,2022-02-12_10h15.31.984,lexical_decision_task_DD_L5,2021.2.3,Win32,59.87665409,,,,,,,,,,,0.6911,1,,,,,,,,,,,,,,z,1,0.6911,,,,,,,,-0.378095238,-0.167619048,0,0,0,,0,45,45,89,1,DRIEK,LB,old,z,./images/DRIEKLB.png,,,,,,,,,,,,,,,,,,,,,,,,,,,,,,,,,,,
,,,,,,,,,,,,,,,,,5f1b6a9ec094bd360e71cee1,20,2022-02-12_10h15.31.984,lexical_decision_task_DD_L5,2021.2.3,Win32,59.87665409,,,,,,,,,,,0.754,1,,,,,,,,,,,,,,z,1,0.754,,,,,,,,-0.378095238,-0.167619048,0,0,0,,0,46,46,98,1,BAMPS,LB,old,z,./images/BAMPSLB.png,,,,,,,,,,,,,,,,,,,,,,,,,,,,,,,,,,,
,,,,,,,,,,,,,,,,,5f1b6a9ec094bd360e71cee1,20,2022-02-12_10h15.31.984,lexical_decision_task_DD_L5,2021.2.3,Win32,59.87665409,,,,,,,,,,,0.7321,1,,,,,,,,,,,,,,m,1,0.7321,,,,,,,,-0.378095238,-0.167619048,0,0,0,,0,47,47,46,1,MUMMY,LB,old,m,./images/MUMMYLB.png,,,,,,,,,,,,,,,,,,,,,,,,,,,,,,,,,,,
,,,,,,,,,,,,,,,,,5f1b6a9ec094bd360e71cee1,20,2022-02-12_10h15.31.984,lexical_decision_task_DD_L5,2021.2.3,Win32,59.87665409,,,,,,,,,,,0.9561,1,,,,,,,,,,,,,,m,1,0.9561,,,,,,,,-0.378095238,-0.167619048,0,0,0,,0,48,48,6,1,STAIN,HB,old,m,./images/STAINHB.png,,,,,,,,,,,,,,,,,,,,,,,,,,,,,,,,,,,
,,,,,,,,,,,,,,,,,5f1b6a9ec094bd360e71cee1,20,2022-02-12_10h15.31.984,lexical_decision_task_DD_L5,2021.2.3,Win32,59.87665409,,,,,,,,,,,1.3949,1,,,,,,,,,,,,,,z,1,1.3949,,,,,,,,-0.378095238,-0.167619048,0,0,0,,0,49,49,145,1,LAMEL,HB,old,z,./images/LAMELHB.png,,,,,,,,,,,,,,,,,,,,,,,,,,,,,,,,,,,
,,,,,,,,,,,,,,,,,5f1b6a9ec094bd360e71cee1,20,2022-02-12_10h15.31.984,lexical_decision_task_DD_L5,2021.2.3,Win32,59.87665409,,,,,,,,,,,1.1336,1,,,,,,,,,,,,,,m,1,1.1336,,,,,,,,-0.378095238,-0.167619048,0,0,0,,0,50,50,20,1,GRANNY,C,old,m,./images/GRANNY.png,,,,,,,,,,,,,,,,,,,,,,,,,,,,,,,,,,,
,,,,,,,,,,,,,,,,,5f1b6a9ec094bd360e71cee1,20,2022-02-12_10h15.31.984,lexical_decision_task_DD_L5,2021.2.3,Win32,59.87665409,,,,,,,,,,,1.4297,1,,,,,,,,,,,,,,z,1,1.4297,,,,,,,,-0.378095238,-0.167619048,0,0,0,,0,51,51,115,1,MAWNS,HB,old,z,./images/MAWNSHB.png,,,,,,,,,,,,,,,,,,,,,,,,,,,,,,,,,,,
,,,,,,,,,,,,,,,,,5f1b6a9ec094bd360e71cee1,20,2022-02-12_10h15.31.984,lexical_decision_task_DD_L5,2021.2.3,Win32,59.87665409,,,,,,,,,,,0.7364,1,,,,,,,,,,,,,,m,1,0.7364,,,,,,,,-0.378095238,-0.167619048,0,0,0,,0,52,52,13,1,BUNNY,LB,old,m,./images/BUNNYLB.png,,,,,,,,,,,,,,,,,,,,,,,,,,,,,,,,,,,
,,,,,,,,,,,,,,,,,5f1b6a9ec094bd360e71cee1,20,2022-02-12_10h15.31.984,lexical_decision_task_DD_L5,2021.2.3,Win32,59.87665409,,,,,,,,,,,0.8761,1,,,,,,,,,,,,,,z,1,0.8761,,,,,,,,-0.378095238,-0.167619048,0,0,0,,0,53,53,159,1,CUDDY,C,old,z,./images/CUDDY.png,,,,,,,,,,,,,,,,,,,,,,,,,,,,,,,,,,,
,,,,,,,,,,,,,,,,,5f1b6a9ec094bd360e71cee1,20,2022-02-12_10h15.31.984,lexical_decision_task_DD_L5,2021.2.3,Win32,59.87665409,,,,,,,,,,,1.2702,1,,,,,,,,,,,,,,m,1,1.2702,,,,,,,,-0.378095238,-0.167619048,0,0,0,,0,54,54,58,1,CANOE,LB,old,m,./images/CANOELB.png,,,,,,,,,,,,,,,,,,,,,,,,,,,,,,,,,,,
,,,,,,,,,,,,,,,,,5f1b6a9ec094bd360e71cee1,20,2022-02-12_10h15.31.984,lexical_decision_task_DD_L5,2021.2.3,Win32,59.87665409,,,,,,,,,,,0.7118,1,,,,,,,,,,,,,,m,1,0.7118,,,,,,,,-0.378095238,-0.167619048,0,0,0,,0,55,55,70,1,BANANA,LB,old,m,./images/BANANALB.png,,,,,,,,,,,,,,,,,,,,,,,,,,,,,,,,,,,
,,,,,,,,,,,,,,,,,5f1b6a9ec094bd360e71cee1,20,2022-02-12_10h15.31.984,lexical_decision_task_DD_L5,2021.2.3,Win32,59.87665409,,,,,,,,,,,1.0317,1,,,,,,,,,,,,,,z,1,1.0317,,,,,,,,-0.378095238,-0.167619048,0,0,0,,0,56,56,158,1,EGECT,LB,old,z,./images/EGECTLB.png,,,,,,,,,,,,,,,,,,,,,,,,,,,,,,,,,,,
,,,,,,,,,,,,,,,,,5f1b6a9ec094bd360e71cee1,20,2022-02-12_10h15.31.984,lexical_decision_task_DD_L5,2021.2.3,Win32,59.87665409,,,,,,,,,,,0.72,1,,,,,,,,,,,,,,m,1,0.72,,,,,,,,-0.378095238,-0.167619048,0,0,0,,0,57,57,34,1,RAZOR,LB,old,m,./images/RAZORLB.png,,,,,,,,,,,,,,,,,,,,,,,,,,,,,,,,,,,
,,,,,,,,,,,,,,,,,5f1b6a9ec094bd360e71cee1,20,2022-02-12_10h15.31.984,lexical_decision_task_DD_L5,2021.2.3,Win32,59.87665409,,,,,,,,,,,0.8689,1,,,,,,,,,,,,,,m,1,0.8689,,,,,,,,-0.378095238,-0.167619048,0,0,0,,0,58,58,27,1,BUTTER,HB,old,m,./images/BUTTERHB.png,,,,,,,,,,,,,,,,,,,,,,,,,,,,,,,,,,,
,,,,,,,,,,,,,,,,,5f1b6a9ec094bd360e71cee1,20,2022-02-12_10h15.31.984,lexical_decision_task_DD_L5,2021.2.3,Win32,59.87665409,,,,,,,,,,,0.805,1,,,,,,,,,,,,,,m,1,0.805,,,,,,,,-0.378095238,-0.167619048,0,0,0,,0,59,59,63,1,BAKER,HB,old,m,./images/BAKERHB.png,,,,,,,,,,,,,,,,,,,,,,,,,,,,,,,,,,,
,,,,,,,,,,,,,,,,,5f1b6a9ec094bd360e71cee1,20,2022-02-12_10h15.31.984,lexical_decision_task_DD_L5,2021.2.3,Win32,59.87665409,,,,,,,,,,,0.882,1,,,,,,,,,,,,,,m,1,0.882,,,,,,,,-0.378095238,-0.167619048,0,0,0,,0,60,60,78,1,BROOM,HB,old,m,./images/BROOMHB.png,,,,,,,,,,,,,,,,,,,,,,,,,,,,,,,,,,,
,,,,,,,,,,,,,,,,,5f1b6a9ec094bd360e71cee1,20,2022-02-12_10h15.31.984,lexical_decision_task_DD_L5,2021.2.3,Win32,59.87665409,,,,,,,,,,,1.211,1,,,,,,,,,,,,,,m,1,1.211,,,,,,,,-0.378095238,-0.167619048,0,0,0,,0,61,61,19,1,DONKEY,LB,old,m,./images/DONKEYLB.png,,,,,,,,,,,,,,,,,,,,,,,,,,,,,,,,,,,
,,,,,,,,,,,,,,,,,5f1b6a9ec094bd360e71cee1,20,2022-02-12_10h15.31.984,lexical_decision_task_DD_L5,2021.2.3,Win32,59.87665409,,,,,,,,,,,1.0847,1,,,,,,,,,,,,,,z,1,1.0847,,,,,,,,-0.378095238,-0.167619048,0,0,0,,0,62,62,123,1,SEDGE,C,old,z,./images/SEDGE.png,,,,,,,,,,,,,,,,,,,,,,,,,,,,,,,,,,,
,,,,,,,,,,,,,,,,,5f1b6a9ec094bd360e71cee1,20,2022-02-12_10h15.31.984,lexical_decision_task_DD_L5,2021.2.3,Win32,59.87665409,,,,,,,,,,,1.4782,1,,,,,,,,,,,,,,m,1,1.4782,,,,,,,,-0.378095238,-0.167619048,0,0,0,,0,63,63,81,1,DRILL,HB,old,m,./images/DRILLHB.png,,,,,,,,,,,,,,,,,,,,,,,,,,,,,,,,,,,
,,,,,,,,,,,,,,,,,5f1b6a9ec094bd360e71cee1,20,2022-02-12_10h15.31.984,lexical_decision_task_DD_L5,2021.2.3,Win32,59.87665409,,,,,,,,,,,1.3698,1,,,,,,,,,,,,,,z,1,1.3698,,,,,,,,-0.378095238,-0.167619048,0,0,0,,0,64,64,160,1,VEETS,HB,old,z,./images/VEETSHB.png,,,,,,,,,,,,,,,,,,,,,,,,,,,,,,,,,,,
,,,,,,,,,,,,,,,,,5f1b6a9ec094bd360e71cee1,20,2022-02-12_10h15.31.984,lexical_decision_task_DD_L5,2021.2.3,Win32,59.87665409,,,,,,,,,,,0.8083,1,,,,,,,,,,,,,,z,1,0.8083,,,,,,,,-0.378095238,-0.167619048,0,0,0,,0,65,65,108,1,GRUET,C,old,z,./images/GRUET.png,,,,,,,,,,,,,,,,,,,,,,,,,,,,,,,,,,,
,,,,,,,,,,,,,,,,,5f1b6a9ec094bd360e71cee1,20,2022-02-12_10h15.31.984,lexical_decision_task_DD_L5,2021.2.3,Win32,59.87665409,,,,,,,,,,,1.3083,1,,,,,,,,,,,,,,z,1,1.3083,,,,,,,,-0.378095238,-0.167619048,0,0,0,,0,66,66,127,1,NINDY,HB,old,z,./images/NINDYHB.png,,,,,,,,,,,,,,,,,,,,,,,,,,,,,,,,,,,
,,,,,,,,,,,,,,,,,5f1b6a9ec094bd360e71cee1,20,2022-02-12_10h15.31.984,lexical_decision_task_DD_L5,2021.2.3,Win32,59.87665409,,,,,,,,,,,0.6285,1,,,,,,,,,,,,,,m,1,0.6285,,,,,,,,-0.378095238,-0.167619048,0,0,0,,0,67,67,50,1,PILOT,C,old,m,./images/PILOT.png,,,,,,,,,,,,,,,,,,,,,,,,,,,,,,,,,,,
,,,,,,,,,,,,,,,,,5f1b6a9ec094bd360e71cee1,20,2022-02-12_10h15.31.984,lexical_decision_task_DD_L5,2021.2.3,Win32,59.87665409,,,,,,,,,,,0.5265,1,,,,,,,,,,,,,,m,1,0.5265,,,,,,,,-0.378095238,-0.167619048,0,0,0,,0,68,68,59,1,BRUSH,C,old,m,./images/BRUSH.png,,,,,,,,,,,,,,,,,,,,,,,,,,,,,,,,,,,
,,,,,,,,,,,,,,,,,5f1b6a9ec094bd360e71cee1,20,2022-02-12_10h15.31.984,lexical_decision_task_DD_L5,2021.2.3,Win32,59.87665409,,,,,,,,,,,0.601,1,,,,,,,,,,,,,,m,1,0.601,,,,,,,,-0.378095238,-0.167619048,0,0,0,,0,69,69,77,1,WHEEL,C,old,m,./images/WHEEL.png,,,,,,,,,,,,,,,,,,,,,,,,,,,,,,,,,,,
,,,,,,,,,,,,,,,,,5f1b6a9ec094bd360e71cee1,20,2022-02-12_10h15.31.984,lexical_decision_task_DD_L5,2021.2.3,Win32,59.87665409,,,,,,,,,,,0.6136,1,,,,,,,,,,,,,,m,1,0.6136,,,,,,,,-0.378095238,-0.167619048,0,0,0,,0,70,70,4,1,BOXER,LB,old,m,./images/BOXERLB.png,,,,,,,,,,,,,,,,,,,,,,,,,,,,,,,,,,,
,,,,,,,,,,,,,,,,,5f1b6a9ec094bd360e71cee1,20,2022-02-12_10h15.31.984,lexical_decision_task_DD_L5,2021.2.3,Win32,59.87665409,,,,,,,,,,,0.6841,1,,,,,,,,,,,,,,z,1,0.6841,,,,,,,,-0.378095238,-0.167619048,0,0,0,,0,71,71,117,1,STEEG,C,old,z,./images/STEEG.png,,,,,,,,,,,,,,,,,,,,,,,,,,,,,,,,,,,
,,,,,,,,,,,,,,,,,5f1b6a9ec094bd360e71cee1,20,2022-02-12_10h15.31.984,lexical_decision_task_DD_L5,2021.2.3,Win32,59.87665409,,,,,,,,,,,0.5627,1,,,,,,,,,,,,,,m,1,0.5627,,,,,,,,-0.378095238,-0.167619048,0,0,0,,0,72,72,53,1,POSTER,C,old,m,./images/POSTER.png,,,,,,,,,,,,,,,,,,,,,,,,,,,,,,,,,,,
,,,,,,,,,,,,,,,,,5f1b6a9ec094bd360e71cee1,20,2022-02-12_10h15.31.984,lexical_decision_task_DD_L5,2021.2.3,Win32,59.87665409,,,,,,,,,,,1.8472,0,,,,,,,,,,,,,,z,0,1.8472,,,,,,,,-0.378095238,-0.167619048,0,0,0,,0,73,73,57,1,FERRY,HB,old,m,./images/FERRYHB.png,,,,,,,,,,,,,,,,,,,,,,,,,,,,,,,,,,,
,,,,,,,,,,,,,,,,,5f1b6a9ec094bd360e71cee1,20,2022-02-12_10h15.31.984,lexical_decision_task_DD_L5,2021.2.3,Win32,59.87665409,,,,,,,,,,,0.5515,1,,,,,,,,,,,,,,m,1,0.5515,,,,,,,,-0.378095238,-0.167619048,0,0,0,,0,74,74,74,1,JUMPER,C,old,m,./images/JUMPER.png,,,,,,,,,,,,,,,,,,,,,,,,,,,,,,,,,,,
,,,,,,,,,,,,,,,,,5f1b6a9ec094bd360e71cee1,20,2022-02-12_10h15.31.984,lexical_decision_task_DD_L5,2021.2.3,Win32,59.87665409,,,,,,,,,,,0.6912,1,,,,,,,,,,,,,,z,1,0.6912,,,,,,,,-0.378095238,-0.167619048,0,0,0,,0,75,75,84,1,HAXES,C,old,z,./images/HAXES.png,,,,,,,,,,,,,,,,,,,,,,,,,,,,,,,,,,,
,,,,,,,,,,,,,,,,,5f1b6a9ec094bd360e71cee1,20,2022-02-12_10h15.31.984,lexical_decision_task_DD_L5,2021.2.3,Win32,59.87665409,,,,,,,,,,,0.815,1,,,,,,,,,,,,,,z,1,0.815,,,,,,,,-0.378095238,-0.167619048,0,0,0,,0,76,76,126,1,GUELS,C,old,z,./images/GUELS.png,,,,,,,,,,,,,,,,,,,,,,,,,,,,,,,,,,,
,,,,,,,,,,,,,,,,,5f1b6a9ec094bd360e71cee1,20,2022-02-12_10h15.31.984,lexical_decision_task_DD_L5,2021.2.3,Win32,59.87665409,,,,,,,,,,,1.0071,1,,,,,,,,,,,,,,m,1,1.0071,,,,,,,,-0.378095238,-0.167619048,0,0,0,,0,77,77,36,1,BOILER,HB,old,m,./images/BOILERHB.png,,,,,,,,,,,,,,,,,,,,,,,,,,,,,,,,,,,
,,,,,,,,,,,,,,,,,5f1b6a9ec094bd360e71cee1,20,2022-02-12_10h15.31.984,lexical_decision_task_DD_L5,2021.2.3,Win32,59.87665409,,,,,,,,,,,1.0056,1,,,,,,,,,,,,,,z,1,1.0056,,,,,,,,-0.378095238,-0.167619048,0,0,0,,0,78,78,162,1,LEICH,C,old,z,./images/LEICH.png,,,,,,,,,,,,,,,,,,,,,,,,,,,,,,,,,,,
,,,,,,,,,,,,,,,,,5f1b6a9ec094bd360e71cee1,20,2022-02-12_10h15.31.984,lexical_decision_task_DD_L5,2021.2.3,Win32,59.87665409,,,,,,,,,,,0.5915,1,,,,,,,,,,,,,,m,1,0.5915,,,,,,,,-0.378095238,-0.167619048,0,0,0,,0,79,79,7,1,WAGON,LB,old,m,./images/WAGONLB.png,,,,,,,,,,,,,,,,,,,,,,,,,,,,,,,,,,,
,,,,,,,,,,,,,,,,,5f1b6a9ec094bd360e71cee1,20,2022-02-12_10h15.31.984,lexical_decision_task_DD_L5,2021.2.3,Win32,59.87665409,,,,,,,,,,,1.3215,1,,,,,,,,,,,,,,z,1,1.3215,,,,,,,,-0.378095238,-0.167619048,0,0,0,,0,80,80,142,1,PLASK,HB,old,z,./images/PLASKHB.png,,,,,,,,,,,,,,,,,,,,,,,,,,,,,,,,,,,
,,,,,,,,,,,,,,,,,5f1b6a9ec094bd360e71cee1,20,2022-02-12_10h15.31.984,lexical_decision_task_DD_L5,2021.2.3,Win32,59.87665409,,,,,,,,,,,0.6309,1,,,,,,,,,,,,,,m,1,0.6309,,,,,,,,-0.378095238,-0.167619048,0,0,0,,0,81,81,26,1,CLOUD,C,old,m,./images/CLOUD.png,,,,,,,,,,,,,,,,,,,,,,,,,,,,,,,,,,,
,,,,,,,,,,,,,,,,,5f1b6a9ec094bd360e71cee1,20,2022-02-12_10h15.31.984,lexical_decision_task_DD_L5,2021.2.3,Win32,59.87665409,,,,,,,,,,,0.7458,1,,,,,,,,,,,,,,z,1,0.7458,,,,,,,,-0.378095238,-0.167619048,0,0,0,,0,82,82,119,1,PAFER,LB,old,z,./images/PAFERLB.png,,,,,,,,,,,,,,,,,,,,,,,,,,,,,,,,,,,
,,,,,,,,,,,,,,,,,5f1b6a9ec094bd360e71cee1,20,2022-02-12_10h15.31.984,lexical_decision_task_DD_L5,2021.2.3,Win32,59.87665409,,,,,,,,,,,0.6489,1,,,,,,,,,,,,,,m,1,0.6489,,,,,,,,-0.378095238,-0.167619048,0,0,0,space,0,83,83,10,1,GARDEN,LB,old,m,./images/GARDENLB.png,43.0213,,,,,,,,,,,,,,,,,,,,,,,,,,,,,,,,,,
,,,,,,,,,,,,,,,,,5f1b6a9ec094bd360e71cee1,20,2022-02-12_10h15.31.984,lexical_decision_task_DD_L5,2021.2.3,Win32,59.87665409,,,,,,,,,,,0.8212,1,,,,,,,,,,,,,,m,1,0.8212,,,,,,,,-0.378095238,-0.167619048,0,0,0,,0,84,84,72,1,FLASK,HB,old,m,./images/FLASKHB.png,,,,,,,,,,,,,,,,,,,,,,,,,,,,,,,,,,,
,,,,,,,,,,,,,,,,,5f1b6a9ec094bd360e71cee1,20,2022-02-12_10h15.31.984,lexical_decision_task_DD_L5,2021.2.3,Win32,59.87665409,,,,,,,,,,,0.7969,1,,,,,,,,,,,,,,m,1,0.7969,,,,,,,,-0.378095238,-0.167619048,0,0,0,,0,85,85,75,1,HAMMER,HB,old,m,./images/HAMMERHB.png,,,,,,,,,,,,,,,,,,,,,,,,,,,,,,,,,,,
,,,,,,,,,,,,,,,,,5f1b6a9ec094bd360e71cee1,20,2022-02-12_10h15.31.984,lexical_decision_task_DD_L5,2021.2.3,Win32,59.87665409,,,,,,,,,,,2.2446,1,,,,,,,,,,,,,,z,1,2.2446,,,,,,,,-0.378095238,-0.167619048,0,0,0,,0,86,86,166,1,SHORY,HB,old,z,./images/SHORYHB.png,,,,,,,,,,,,,,,,,,,,,,,,,,,,,,,,,,,
,,,,,,,,,,,,,,,,,5f1b6a9ec094bd360e71cee1,20,2022-02-12_10h15.31.984,lexical_decision_task_DD_L5,2021.2.3,Win32,59.87665409,,,,,,,,,,,0.807,1,,,,,,,,,,,,,,z,1,0.807,,,,,,,,-0.378095238,-0.167619048,0,0,0,,0,87,87,90,1,NEAST,C,old,z,./images/NEAST.png,,,,,,,,,,,,,,,,,,,,,,,,,,,,,,,,,,,
,,,,,,,,,,,,,,,,,5f1b6a9ec094bd360e71cee1,20,2022-02-12_10h15.31.984,lexical_decision_task_DD_L5,2021.2.3,Win32,59.87665409,,,,,,,,,,,1.1686,1,,,,,,,,,,,,,,m,1,1.1686,,,,,,,,-0.378095238,-0.167619048,0,0,0,,0,88,88,33,1,SAUNA,HB,old,m,./images/SAUNAHB.png,,,,,,,,,,,,,,,,,,,,,,,,,,,,,,,,,,,
,,,,,,,,,,,,,,,,,5f1b6a9ec094bd360e71cee1,20,2022-02-12_10h15.31.984,lexical_decision_task_DD_L5,2021.2.3,Win32,59.87665409,,,,,,,,,,,0.6606,1,,,,,,,,,,,,,,m,1,0.6606,,,,,,,,-0.378095238,-0.167619048,0,0,0,,0,89,89,49,1,BISHOP,LB,old,m,./images/BISHOPLB.png,,,,,,,,,,,,,,,,,,,,,,,,,,,,,,,,,,,
,,,,,,,,,,,,,,,,,5f1b6a9ec094bd360e71cee1,20,2022-02-12_10h15.31.984,lexical_decision_task_DD_L5,2021.2.3,Win32,59.87665409,,,,,,,,,,,0.7723,1,,,,,,,,,,,,,,m,1,0.7723,,,,,,,,-0.378095238,-0.167619048,0,0,0,,0,90,90,21,1,DANCER,HB,old,m,./images/DANCERHB.png,,,,,,,,,,,,,,,,,,,,,,,,,,,,,,,,,,,
,,,,,,,,,,,,,,,,,5f1b6a9ec094bd360e71cee1,20,2022-02-12_10h15.31.984,lexical_decision_task_DD_L5,2021.2.3,Win32,59.87665409,,,,,,,,,,,1.1758,1,,,,,,,,,,,,,,z,1,1.1758,,,,,,,,-0.378095238,-0.167619048,0,0,0,,0,91,91,130,1,CRILL,HB,old,z,./images/CRILLHB.png,,,,,,,,,,,,,,,,,,,,,,,,,,,,,,,,,,,
,,,,,,,,,,,,,,,,,5f1b6a9ec094bd360e71cee1,20,2022-02-12_10h15.31.984,lexical_decision_task_DD_L5,2021.2.3,Win32,59.87665409,,,,,,,,,,,1.2945,0,,,,,,,,,,,,,,m,0,1.2945,,,,,,,,-0.378095238,-0.167619048,0,0,0,,0,92,92,110,1,CRUNK,LB,old,z,./images/CRUNKLB.png,,,,,,,,,,,,,,,,,,,,,,,,,,,,,,,,,,,
,,,,,,,,,,,,,,,,,5f1b6a9ec094bd360e71cee1,20,2022-02-12_10h15.31.984,lexical_decision_task_DD_L5,2021.2.3,Win32,59.87665409,,,,,,,,,,,0.8856,1,,,,,,,,,,,,,,m,1,0.8856,,,,,,,,-0.378095238,-0.167619048,0,0,0,,0,93,93,37,1,TIGER,LB,old,m,./images/TIGERLB.png,,,,,,,,,,,,,,,,,,,,,,,,,,,,,,,,,,,
,,,,,,,,,,,,,,,,,5f1b6a9ec094bd360e71cee1,20,2022-02-12_10h15.31.984,lexical_decision_task_DD_L5,2021.2.3,Win32,59.87665409,,,,,,,,,,,0.9765,1,,,,,,,,,,,,,,z,1,0.9765,,,,,,,,-0.378095238,-0.167619048,0,0,0,,0,94,94,112,1,MYING,HB,old,z,./images/MYINGHB.png,,,,,,,,,,,,,,,,,,,,,,,,,,,,,,,,,,,
,,,,,,,,,,,,,,,,,5f1b6a9ec094bd360e71cee1,20,2022-02-12_10h15.31.984,lexical_decision_task_DD_L5,2021.2.3,Win32,59.87665409,,,,,,,,,,,0.9797,1,,,,,,,,,,,,,,z,1,0.9797,,,,,,,,-0.378095238,-0.167619048,0,0,0,,0,95,95,87,1,TRING,C,old,z,./images/TRING.png,,,,,,,,,,,,,,,,,,,,,,,,,,,,,,,,,,,
,,,,,,,,,,,,,,,,,5f1b6a9ec094bd360e71cee1,20,2022-02-12_10h15.31.984,lexical_decision_task_DD_L5,2021.2.3,Win32,59.87665409,,,,,,,,,,,1.0053,1,,,,,,,,,,,,,,z,1,1.0053,,,,,,,,-0.378095238,-0.167619048,0,0,0,,0,96,96,125,1,MOOKY,LB,old,z,./images/MOOKYLB.png,,,,,,,,,,,,,,,,,,,,,,,,,,,,,,,,,,,
,,,,,,,,,,,,,,,,,5f1b6a9ec094bd360e71cee1,20,2022-02-12_10h15.31.984,lexical_decision_task_DD_L5,2021.2.3,Win32,59.87665409,,,,,,,,,,,1.0617,1,,,,,,,,,,,,,,z,1,1.0617,,,,,,,,-0.378095238,-0.167619048,0,0,0,,0,97,97,111,1,HOSSE,C,old,z,./images/HOSSE.png,,,,,,,,,,,,,,,,,,,,,,,,,,,,,,,,,,,
,,,,,,,,,,,,,,,,,5f1b6a9ec094bd360e71cee1,20,2022-02-12_10h15.31.984,lexical_decision_task_DD_L5,2021.2.3,Win32,59.87665409,,,,,,,,,,,0.7275,1,,,,,,,,,,,,,,m,1,0.7275,,,,,,,,-0.378095238,-0.167619048,0,0,0,,0,98,98,47,1,LAGOON,C,old,m,./images/LAGOON.png,,,,,,,,,,,,,,,,,,,,,,,,,,,,,,,,,,,
,,,,,,,,,,,,,,,,,5f1b6a9ec094bd360e71cee1,20,2022-02-12_10h15.31.984,lexical_decision_task_DD_L5,2021.2.3,Win32,59.87665409,,,,,,,,,,,1.1733,1,,,,,,,,,,,,,,z,1,1.1733,,,,,,,,-0.378095238,-0.167619048,0,0,0,,0,99,99,85,1,CHULK,HB,old,z,./images/CHULKHB.png,,,,,,,,,,,,,,,,,,,,,,,,,,,,,,,,,,,
,,,,,,,,,,,,,,,,,5f1b6a9ec094bd360e71cee1,20,2022-02-12_10h15.31.984,lexical_decision_task_DD_L5,2021.2.3,Win32,59.87665409,,,,,,,,,,,0.7127,1,,,,,,,,,,,,,,m,1,0.7127,,,,,,,,-0.378095238,-0.167619048,0,0,0,,0,100,100,38,1,ENGINE,C,old,m,./images/ENGINE.png,,,,,,,,,,,,,,,,,,,,,,,,,,,,,,,,,,,
,,,,,,,,,,,,,,,,,5f1b6a9ec094bd360e71cee1,20,2022-02-12_10h15.31.984,lexical_decision_task_DD_L5,2021.2.3,Win32,59.87665409,,,,,,,,,,,0.6328,1,,,,,,,,,,,,,,z,1,0.6328,,,,,,,,-0.378095238,-0.167619048,0,0,0,,0,101,101,144,1,NAIRY,C,old,z,./images/NAIRY.png,,,,,,,,,,,,,,,,,,,,,,,,,,,,,,,,,,,
,,,,,,,,,,,,,,,,,5f1b6a9ec094bd360e71cee1,20,2022-02-12_10h15.31.984,lexical_decision_task_DD_L5,2021.2.3,Win32,59.87665409,,,,,,,,,,,0.6905,1,,,,,,,,,,,,,,m,1,0.6905,,,,,,,,-0.378095238,-0.167619048,0,0,0,,0,102,102,51,1,SAUCE,HB,old,m,./images/SAUCEHB.png,,,,,,,,,,,,,,,,,,,,,,,,,,,,,,,,,,,
,,,,,,,,,,,,,,,,,5f1b6a9ec094bd360e71cee1,20,2022-02-12_10h15.31.984,lexical_decision_task_DD_L5,2021.2.3,Win32,59.87665409,,,,,,,,,,,0.7056,1,,,,,,,,,,,,,,m,1,0.7056,,,,,,,,-0.378095238,-0.167619048,0,0,0,,0,103,103,0,1,WALNUT,HB,old,m,./images/WALNUTHB.png,,,,,,,,,,,,,,,,,,,,,,,,,,,,,,,,,,,
,,,,,,,,,,,,,,,,,5f1b6a9ec094bd360e71cee1,20,2022-02-12_10h15.31.984,lexical_decision_task_DD_L5,2021.2.3,Win32,59.87665409,,,,,,,,,,,0.8957,0,,,,,,,,,,,,,,m,0,0.8957,,,,,,,,-0.378095238,-0.167619048,0,0,0,,0,104,104,128,1,GRIFT,LB,old,z,./images/GRIFTLB.png,,,,,,,,,,,,,,,,,,,,,,,,,,,,,,,,,,,
,,,,,,,,,,,,,,,,,5f1b6a9ec094bd360e71cee1,20,2022-02-12_10h15.31.984,lexical_decision_task_DD_L5,2021.2.3,Win32,59.87665409,,,,,,,,,,,0.959,1,,,,,,,,,,,,,,m,1,0.959,,,,,,,,-0.378095238,-0.167619048,0,0,0,,0,105,105,54,1,CHERRY,HB,old,m,./images/CHERRYHB.png,,,,,,,,,,,,,,,,,,,,,,,,,,,,,,,,,,,
,,,,,,,,,,,,,,,,,5f1b6a9ec094bd360e71cee1,20,2022-02-12_10h15.31.984,lexical_decision_task_DD_L5,2021.2.3,Win32,59.87665409,,,,,,,,,,,0.6196,1,,,,,,,,,,,,,,m,1,0.6196,,,,,,,,-0.378095238,-0.167619048,0,0,0,,0,106,106,83,1,WHISKY,C,old,m,./images/WHISKY.png,,,,,,,,,,,,,,,,,,,,,,,,,,,,,,,,,,,
,,,,,,,,,,,,,,,,,5f1b6a9ec094bd360e71cee1,20,2022-02-12_10h15.31.984,lexical_decision_task_DD_L5,2021.2.3,Win32,59.87665409,,,,,,,,,,,0.8245,1,,,,,,,,,,,,,,z,1,0.8245,,,,,,,,-0.378095238,-0.167619048,0,0,0,,0,107,107,154,1,THINT,HB,old,z,./images/THINTHB.png,,,,,,,,,,,,,,,,,,,,,,,,,,,,,,,,,,,
,,,,,,,,,,,,,,,,,5f1b6a9ec094bd360e71cee1,20,2022-02-12_10h15.31.984,lexical_decision_task_DD_L5,2021.2.3,Win32,59.87665409,,,,,,,,,,,0.9319,1,,,,,,,,,,,,,,z,1,0.9319,,,,,,,,-0.378095238,-0.167619048,0,0,0,,0,108,108,136,1,WERVE,HB,old,z,./images/WERVEHB.png,,,,,,,,,,,,,,,,,,,,,,,,,,,,,,,,,,,
,,,,,,,,,,,,,,,,,5f1b6a9ec094bd360e71cee1,20,2022-02-12_10h15.31.984,lexical_decision_task_DD_L5,2021.2.3,Win32,59.87665409,,,,,,,,,,,0.7637,1,,,,,,,,,,,,,,z,1,0.7637,,,,,,,,-0.378095238,-0.167619048,0,0,0,,0,109,109,135,1,JOODY,C,old,z,./images/JOODY.png,,,,,,,,,,,,,,,,,,,,,,,,,,,,,,,,,,,
,,,,,,,,,,,,,,,,,5f1b6a9ec094bd360e71cee1,20,2022-02-12_10h15.31.984,lexical_decision_task_DD_L5,2021.2.3,Win32,59.87665409,,,,,,,,,,,0.7062,1,,,,,,,,,,,,,,m,1,0.7062,,,,,,,,-0.378095238,-0.167619048,0,0,0,,0,110,110,17,1,PARADE,C,old,m,./images/PARADE.png,,,,,,,,,,,,,,,,,,,,,,,,,,,,,,,,,,,
,,,,,,,,,,,,,,,,,5f1b6a9ec094bd360e71cee1,20,2022-02-12_10h15.31.984,lexical_decision_task_DD_L5,2021.2.3,Win32,59.87665409,,,,,,,,,,,0.5951,1,,,,,,,,,,,,,,m,1,0.5951,,,,,,,,-0.378095238,-0.167619048,0,0,0,,0,111,111,69,1,ARROW,HB,old,m,./images/ARROWHB.png,,,,,,,,,,,,,,,,,,,,,,,,,,,,,,,,,,,
,,,,,,,,,,,,,,,,,5f1b6a9ec094bd360e71cee1,20,2022-02-12_10h15.31.984,lexical_decision_task_DD_L5,2021.2.3,Win32,59.87665409,,,,,,,,,,,1.089,1,,,,,,,,,,,,,,z,1,1.089,,,,,,,,-0.378095238,-0.167619048,0,0,0,,0,112,112,118,1,BAVEL,HB,old,z,./images/BAVELHB.png,,,,,,,,,,,,,,,,,,,,,,,,,,,,,,,,,,,
,,,,,,,,,,,,,,,,,5f1b6a9ec094bd360e71cee1,20,2022-02-12_10h15.31.984,lexical_decision_task_DD_L5,2021.2.3,Win32,59.87665409,,,,,,,,,,,0.5711,1,,,,,,,,,,,,,,m,1,0.5711,,,,,,,,-0.378095238,-0.167619048,0,0,0,,0,113,113,8,1,CLIFF,C,old,m,./images/CLIFF.png,,,,,,,,,,,,,,,,,,,,,,,,,,,,,,,,,,,
,,,,,,,,,,,,,,,,,5f1b6a9ec094bd360e71cee1,20,2022-02-12_10h15.31.984,lexical_decision_task_DD_L5,2021.2.3,Win32,59.87665409,,,,,,,,,,,0.9929,1,,,,,,,,,,,,,,z,1,0.9929,,,,,,,,-0.378095238,-0.167619048,0,0,0,,0,114,114,107,1,FASKS,LB,old,z,./images/FASKSLB.png,,,,,,,,,,,,,,,,,,,,,,,,,,,,,,,,,,,
,,,,,,,,,,,,,,,,,5f1b6a9ec094bd360e71cee1,20,2022-02-12_10h15.31.984,lexical_decision_task_DD_L5,2021.2.3,Win32,59.87665409,,,,,,,,,,,0.8997,1,,,,,,,,,,,,,,z,1,0.8997,,,,,,,,-0.378095238,-0.167619048,0,0,0,,0,115,115,124,1,TUNCH,HB,old,z,./images/TUNCHHB.png,,,,,,,,,,,,,,,,,,,,,,,,,,,,,,,,,,,
,,,,,,,,,,,,,,,,,5f1b6a9ec094bd360e71cee1,20,2022-02-12_10h15.31.984,lexical_decision_task_DD_L5,2021.2.3,Win32,59.87665409,,,,,,,,,,,1.1534,1,,,,,,,,,,,,,,z,1,1.1534,,,,,,,,-0.378095238,-0.167619048,0,0,0,,0,116,116,163,1,GAMBA,HB,old,z,./images/GAMBAHB.png,,,,,,,,,,,,,,,,,,,,,,,,,,,,,,,,,,,
,,,,,,,,,,,,,,,,,5f1b6a9ec094bd360e71cee1,20,2022-02-12_10h15.31.984,lexical_decision_task_DD_L5,2021.2.3,Win32,59.87665409,,,,,,,,,,,0.5808,1,,,,,,,,,,,,,,m,1,0.5808,,,,,,,,-0.378095238,-0.167619048,0,0,0,,0,117,117,68,1,VALLEY,C,old,m,./images/VALLEY.png,,,,,,,,,,,,,,,,,,,,,,,,,,,,,,,,,,,
,,,,,,,,,,,,,,,,,5f1b6a9ec094bd360e71cee1,20,2022-02-12_10h15.31.984,lexical_decision_task_DD_L5,2021.2.3,Win32,59.87665409,,,,,,,,,,,0.9395,1,,,,,,,,,,,,,,z,1,0.9395,,,,,,,,-0.378095238,-0.167619048,0,0,0,,0,118,118,129,1,PRANS,C,old,z,./images/PRANS.png,,,,,,,,,,,,,,,,,,,,,,,,,,,,,,,,,,,
,,,,,,,,,,,,,,,,,5f1b6a9ec094bd360e71cee1,20,2022-02-12_10h15.31.984,lexical_decision_task_DD_L5,2021.2.3,Win32,59.87665409,,,,,,,,,,,0.8359,1,,,,,,,,,,,,,,z,1,0.8359,,,,,,,,-0.378095238,-0.167619048,0,0,0,,0,119,119,138,1,PLICE,C,old,z,./images/PLICE.png,,,,,,,,,,,,,,,,,,,,,,,,,,,,,,,,,,,
,,,,,,,,,,,,,,,,,5f1b6a9ec094bd360e71cee1,20,2022-02-12_10h15.31.984,lexical_decision_task_DD_L5,2021.2.3,Win32,59.87665409,,,,,,,,,,,0.8646,1,,,,,,,,,,,,,,m,1,0.8646,,,,,,,,-0.378095238,-0.167619048,0,0,0,,0,120,120,22,1,CLOWN,LB,old,m,./images/CLOWNLB.png,,,,,,,,,,,,,,,,,,,,,,,,,,,,,,,,,,,
,,,,,,,,,,,,,,,,,5f1b6a9ec094bd360e71cee1,20,2022-02-12_10h15.31.984,lexical_decision_task_DD_L5,2021.2.3,Win32,59.87665409,,,,,,,,,,,0.8668,1,,,,,,,,,,,,,,z,1,0.8668,,,,,,,,-0.378095238,-0.167619048,0,0,0,,0,121,121,94,1,BLANS,HB,old,z,./images/BLANSHB.png,,,,,,,,,,,,,,,,,,,,,,,,,,,,,,,,,,,
,,,,,,,,,,,,,,,,,5f1b6a9ec094bd360e71cee1,20,2022-02-12_10h15.31.984,lexical_decision_task_DD_L5,2021.2.3,Win32,59.87665409,,,,,,,,,,,0.8441,1,,,,,,,,,,,,,,z,1,0.8441,,,,,,,,-0.378095238,-0.167619048,0,0,0,,0,122,122,150,1,NOOLS,C,old,z,./images/NOOLS.png,,,,,,,,,,,,,,,,,,,,,,,,,,,,,,,,,,,
,,,,,,,,,,,,,,,,,5f1b6a9ec094bd360e71cee1,20,2022-02-12_10h15.31.984,lexical_decision_task_DD_L5,2021.2.3,Win32,59.87665409,,,,,,,,,,,1.0111,1,,,,,,,,,,,,,,z,1,1.0111,,,,,,,,-0.378095238,-0.167619048,0,0,0,,0,123,123,93,1,SMONE,C,old,z,./images/SMONE.png,,,,,,,,,,,,,,,,,,,,,,,,,,,,,,,,,,,
,,,,,,,,,,,,,,,,,5f1b6a9ec094bd360e71cee1,20,2022-02-12_10h15.31.984,lexical_decision_task_DD_L5,2021.2.3,Win32,59.87665409,,,,,,,,,,,0.8121,1,,,,,,,,,,,,,,m,1,0.8121,,,,,,,,-0.378095238,-0.167619048,0,0,0,,0,124,124,25,1,CHALK,LB,old,m,./images/CHALKLB.png,,,,,,,,,,,,,,,,,,,,,,,,,,,,,,,,,,,
,,,,,,,,,,,,,,,,,5f1b6a9ec094bd360e71cee1,20,2022-02-12_10h15.31.984,lexical_decision_task_DD_L5,2021.2.3,Win32,59.87665409,,,,,,,,,,,0.59,1,,,,,,,,,,,,,,m,1,0.59,,,,,,,,-0.378095238,-0.167619048,0,0,0,space,0,125,125,31,1,STEAK,LB,old,m,./images/STEAKLB.png,73.8329,,,,,,,,,,,,,,,,,,,,,,,,,,,,,,,,,,
,,,,,,,,,,,,,,,,,5f1b6a9ec094bd360e71cee1,20,2022-02-12_10h15.31.984,lexical_decision_task_DD_L5,2021.2.3,Win32,59.87665409,,,,,,,,,,,0.7685,1,,,,,,,,,,,,,,m,1,0.7685,,,,,,,,-0.378095238,-0.167619048,0,0,0,,0,126,126,30,1,SLOPE,HB,old,m,./images/SLOPEHB.png,,,,,,,,,,,,,,,,,,,,,,,,,,,,,,,,,,,
,,,,,,,,,,,,,,,,,5f1b6a9ec094bd360e71cee1,20,2022-02-12_10h15.31.984,lexical_decision_task_DD_L5,2021.2.3,Win32,59.87665409,,,,,,,,,,,0.5512,1,,,,,,,,,,,,,,m,1,0.5512,,,,,,,,-0.378095238,-0.167619048,0,0,0,,0,127,127,5,1,BAMBOO,C,old,m,./images/BAMBOO.png,,,,,,,,,,,,,,,,,,,,,,,,,,,,,,,,,,,
,,,,,,,,,,,,,,,,,5f1b6a9ec094bd360e71cee1,20,2022-02-12_10h15.31.984,lexical_decision_task_DD_L5,2021.2.3,Win32,59.87665409,,,,,,,,,,,0.6472,1,,,,,,,,,,,,,,z,1,0.6472,,,,,,,,-0.378095238,-0.167619048,0,0,0,,0,128,128,116,1,BALGY,LB,old,z,./images/BALGYLB.png,,,,,,,,,,,,,,,,,,,,,,,,,,,,,,,,,,,
,,,,,,,,,,,,,,,,,5f1b6a9ec094bd360e71cee1,20,2022-02-12_10h15.31.984,lexical_decision_task_DD_L5,2021.2.3,Win32,59.87665409,,,,,,,,,,,0.7314,1,,,,,,,,,,,,,,z,1,0.7314,,,,,,,,-0.378095238,-0.167619048,0,0,0,,0,129,129,99,1,BACKY,C,old,z,./images/BACKY.png,,,,,,,,,,,,,,,,,,,,,,,,,,,,,,,,,,,
,,,,,,,,,,,,,,,,,5f1b6a9ec094bd360e71cee1,20,2022-02-12_10h15.31.984,lexical_decision_task_DD_L5,2021.2.3,Win32,59.87665409,,,,,,,,,,,0.7007,1,,,,,,,,,,,,,,z,1,0.7007,,,,,,,,-0.378095238,-0.167619048,0,0,0,,0,130,130,161,1,BLAPS,LB,old,z,./images/BLAPSLB.png,,,,,,,,,,,,,,,,,,,,,,,,,,,,,,,,,,,
,,,,,,,,,,,,,,,,,5f1b6a9ec094bd360e71cee1,20,2022-02-12_10h15.31.984,lexical_decision_task_DD_L5,2021.2.3,Win32,59.87665409,,,,,,,,,,,0.8312,1,,,,,,,,,,,,,,z,1,0.8312,,,,,,,,-0.378095238,-0.167619048,0,0,0,,0,131,131,143,1,MONGS,LB,old,z,./images/MONGSLB.png,,,,,,,,,,,,,,,,,,,,,,,,,,,,,,,,,,,
,,,,,,,,,,,,,,,,,5f1b6a9ec094bd360e71cee1,20,2022-02-12_10h15.31.984,lexical_decision_task_DD_L5,2021.2.3,Win32,59.87665409,,,,,,,,,,,0.6714,1,,,,,,,,,,,,,,z,1,0.6714,,,,,,,,-0.378095238,-0.167619048,0,0,0,,0,132,132,146,1,MOOST,LB,old,z,./images/MOOSTLB.png,,,,,,,,,,,,,,,,,,,,,,,,,,,,,,,,,,,
,,,,,,,,,,,,,,,,,5f1b6a9ec094bd360e71cee1,20,2022-02-12_10h15.31.984,lexical_decision_task_DD_L5,2021.2.3,Win32,59.87665409,,,,,,,,,,,0.7375,1,,,,,,,,,,,,,,m,1,0.7375,,,,,,,,-0.378095238,-0.167619048,0,0,0,,0,133,133,48,1,SHIELD,HB,old,m,./images/SHIELDHB.png,,,,,,,,,,,,,,,,,,,,,,,,,,,,,,,,,,,
,,,,,,,,,,,,,,,,,5f1b6a9ec094bd360e71cee1,20,2022-02-12_10h15.31.984,lexical_decision_task_DD_L5,2021.2.3,Win32,59.87665409,,,,,,,,,,,0.519,1,,,,,,,,,,,,,,m,1,0.519,,,,,,,,-0.378095238,-0.167619048,0,0,0,,0,134,134,80,1,PLANET,C,old,m,./images/PLANET.png,,,,,,,,,,,,,,,,,,,,,,,,,,,,,,,,,,,
,,,,,,,,,,,,,,,,,5f1b6a9ec094bd360e71cee1,20,2022-02-12_10h15.31.984,lexical_decision_task_DD_L5,2021.2.3,Win32,59.87665409,,,,,,,,,,,0.8415,1,,,,,,,,,,,,,,z,1,0.8415,,,,,,,,-0.378095238,-0.167619048,0,0,0,,0,135,135,92,1,PAIMS,LB,old,z,./images/PAIMSLB.png,,,,,,,,,,,,,,,,,,,,,,,,,,,,,,,,,,,
,,,,,,,,,,,,,,,,,5f1b6a9ec094bd360e71cee1,20,2022-02-12_10h15.31.984,lexical_decision_task_DD_L5,2021.2.3,Win32,59.87665409,,,,,,,,,,,0.6597,1,,,,,,,,,,,,,,m,1,0.6597,,,,,,,,-0.378095238,-0.167619048,0,0,0,,0,136,136,64,1,BRIDE,LB,old,m,./images/BRIDELB.png,,,,,,,,,,,,,,,,,,,,,,,,,,,,,,,,,,,
,,,,,,,,,,,,,,,,,5f1b6a9ec094bd360e71cee1,20,2022-02-12_10h15.31.984,lexical_decision_task_DD_L5,2021.2.3,Win32,59.87665409,,,,,,,,,,,0.607,1,,,,,,,,,,,,,,z,1,0.607,,,,,,,,-0.378095238,-0.167619048,0,0,0,,0,137,137,151,1,TINKY,HB,old,z,./images/TINKYHB.png,,,,,,,,,,,,,,,,,,,,,,,,,,,,,,,,,,,
,,,,,,,,,,,,,,,,,5f1b6a9ec094bd360e71cee1,20,2022-02-12_10h15.31.984,lexical_decision_task_DD_L5,2021.2.3,Win32,59.87665409,,,,,,,,,,,0.6506,1,,,,,,,,,,,,,,m,1,0.6506,,,,,,,,-0.378095238,-0.167619048,0,0,0,,0,138,138,2,1,STOVE,C,old,m,./images/STOVE.png,,,,,,,,,,,,,,,,,,,,,,,,,,,,,,,,,,,
,,,,,,,,,,,,,,,,,5f1b6a9ec094bd360e71cee1,20,2022-02-12_10h15.31.984,lexical_decision_task_DD_L5,2021.2.3,Win32,59.87665409,,,,,,,,,,,0.9226,1,,,,,,,,,,,,,,m,1,0.9226,,,,,,,,-0.378095238,-0.167619048,0,0,0,,0,139,139,45,1,MONKEY,HB,old,m,./images/MONKEYHB.png,,,,,,,,,,,,,,,,,,,,,,,,,,,,,,,,,,,
,,,,,,,,,,,,,,,,,5f1b6a9ec094bd360e71cee1,20,2022-02-12_10h15.31.984,lexical_decision_task_DD_L5,2021.2.3,Win32,59.87665409,,,,,,,,,,,0.8812,1,,,,,,,,,,,,,,z,1,0.8812,,,,,,,,-0.378095238,-0.167619048,0,0,0,,0,140,140,106,1,CLUMS,HB,old,z,./images/CLUMSHB.png,,,,,,,,,,,,,,,,,,,,,,,,,,,,,,,,,,,
,,,,,,,,,,,,,,,,,5f1b6a9ec094bd360e71cee1,20,2022-02-12_10h15.31.984,lexical_decision_task_DD_L5,2021.2.3,Win32,59.87665409,,,,,,,,,,,0.8578,1,,,,,,,,,,,,,,m,1,0.8578,,,,,,,,-0.378095238,-0.167619048,0,0,0,,0,141,141,35,1,LLAMA,C,old,m,./images/LLAMA.png,,,,,,,,,,,,,,,,,,,,,,,,,,,,,,,,,,,
,,,,,,,,,,,,,,,,,5f1b6a9ec094bd360e71cee1,20,2022-02-12_10h15.31.984,lexical_decision_task_DD_L5,2021.2.3,Win32,59.87665409,,,,,,,,,,,0.6867,1,,,,,,,,,,,,,,z,1,0.6867,,,,,,,,-0.378095238,-0.167619048,0,0,0,,0,142,142,120,1,RINED,C,old,z,./images/RINED.png,,,,,,,,,,,,,,,,,,,,,,,,,,,,,,,,,,,
,,,,,,,,,,,,,,,,,5f1b6a9ec094bd360e71cee1,20,2022-02-12_10h15.31.984,lexical_decision_task_DD_L5,2021.2.3,Win32,59.87665409,,,,,,,,,,,0.6667,1,,,,,,,,,,,,,,m,1,0.6667,,,,,,,,-0.378095238,-0.167619048,0,0,0,,0,143,143,11,1,MEDAL,C,old,m,./images/MEDAL.png,,,,,,,,,,,,,,,,,,,,,,,,,,,,,,,,,,,
,,,,,,,,,,,,,,,,,5f1b6a9ec094bd360e71cee1,20,2022-02-12_10h15.31.984,lexical_decision_task_DD_L5,2021.2.3,Win32,59.87665409,,,,,,,,,,,0.6566,1,,,,,,,,,,,,,,z,1,0.6566,,,,,,,,-0.378095238,-0.167619048,0,0,0,,0,144,144,114,1,RIKES,C,old,z,./images/RIKES.png,,,,,,,,,,,,,,,,,,,,,,,,,,,,,,,,,,,
,,,,,,,,,,,,,,,,,5f1b6a9ec094bd360e71cee1,20,2022-02-12_10h15.31.984,lexical_decision_task_DD_L5,2021.2.3,Win32,59.87665409,,,,,,,,,,,0.902,1,,,,,,,,,,,,,,z,1,0.902,,,,,,,,-0.378095238,-0.167619048,0,0,0,,0,145,145,164,1,SGREW,LB,old,z,./images/SGREWLB.png,,,,,,,,,,,,,,,,,,,,,,,,,,,,,,,,,,,
,,,,,,,,,,,,,,,,,5f1b6a9ec094bd360e71cee1,20,2022-02-12_10h15.31.984,lexical_decision_task_DD_L5,2021.2.3,Win32,59.87665409,,,,,,,,,,,0.7973,1,,,,,,,,,,,,,,z,1,0.7973,,,,,,,,-0.378095238,-0.167619048,0,0,0,,0,146,146,140,1,DOVET,LB,old,z,./images/DOVETLB.png,,,,,,,,,,,,,,,,,,,,,,,,,,,,,,,,,,,
,,,,,,,,,,,,,,,,,5f1b6a9ec094bd360e71cee1,20,2022-02-12_10h15.31.984,lexical_decision_task_DD_L5,2021.2.3,Win32,59.87665409,,,,,,,,,,,0.8708,0,,,,,,,,,,,,,,m,0,0.8708,,,,,,,,-0.378095238,-0.167619048,0,0,0,,0,147,147,141,1,PLEET,C,old,z,./images/PLEET.png,,,,,,,,,,,,,,,,,,,,,,,,,,,,,,,,,,,
,,,,,,,,,,,,,,,,,5f1b6a9ec094bd360e71cee1,20,2022-02-12_10h15.31.984,lexical_decision_task_DD_L5,2021.2.3,Win32,59.87665409,,,,,,,,,,,0.8004,1,,,,,,,,,,,,,,z,1,0.8004,,,,,,,,-0.378095238,-0.167619048,0,0,0,,0,148,148,131,1,NACES,LB,old,z,./images/NACESLB.png,,,,,,,,,,,,,,,,,,,,,,,,,,,,,,,,,,,
,,,,,,,,,,,,,,,,,5f1b6a9ec094bd360e71cee1,20,2022-02-12_10h15.31.984,lexical_decision_task_DD_L5,2021.2.3,Win32,59.87665409,,,,,,,,,,,0.7297,1,,,,,,,,,,,,,,z,1,0.7297,,,,,,,,-0.378095238,-0.167619048,0,0,0,,0,149,149,134,1,TROSS,LB,old,z,./images/TROSSLB.png,,,,,,,,,,,,,,,,,,,,,,,,,,,,,,,,,,,
,,,,,,,,,,,,,,,,,5f1b6a9ec094bd360e71cee1,20,2022-02-12_10h15.31.984,lexical_decision_task_DD_L5,2021.2.3,Win32,59.87665409,,,,,,,,,,,0.6139,1,,,,,,,,,,,,,,m,1,0.6139,,,,,,,,-0.378095238,-0.167619048,0,0,0,,0,150,150,14,1,FENCE,C,old,m,./images/FENCE.png,,,,,,,,,,,,,,,,,,,,,,,,,,,,,,,,,,,
,,,,,,,,,,,,,,,,,5f1b6a9ec094bd360e71cee1,20,2022-02-12_10h15.31.984,lexical_decision_task_DD_L5,2021.2.3,Win32,59.87665409,,,,,,,,,,,0.7677,0,,,,,,,,,,,,,,m,0,0.7677,,,,,,,,-0.378095238,-0.167619048,0,0,0,,0,151,151,132,1,SCIFF,C,old,z,./images/SCIFF.png,,,,,,,,,,,,,,,,,,,,,,,,,,,,,,,,,,,
,,,,,,,,,,,,,,,,,5f1b6a9ec094bd360e71cee1,20,2022-02-12_10h15.31.984,lexical_decision_task_DD_L5,2021.2.3,Win32,59.87665409,,,,,,,,,,,0.6681,1,,,,,,,,,,,,,,z,1,0.6681,,,,,,,,-0.378095238,-0.167619048,0,0,0,,0,152,152,96,1,KEAMS,C,old,z,./images/KEAMS.png,,,,,,,,,,,,,,,,,,,,,,,,,,,,,,,,,,,
,,,,,,,,,,,,,,,,,5f1b6a9ec094bd360e71cee1,20,2022-02-12_10h15.31.984,lexical_decision_task_DD_L5,2021.2.3,Win32,59.87665409,,,,,,,,,,,0.8821,1,,,,,,,,,,,,,,z,1,0.8821,,,,,,,,-0.378095238,-0.167619048,0,0,0,,0,153,153,109,1,BURGE,HB,old,z,./images/BURGEHB.png,,,,,,,,,,,,,,,,,,,,,,,,,,,,,,,,,,,
,,,,,,,,,,,,,,,,,5f1b6a9ec094bd360e71cee1,20,2022-02-12_10h15.31.984,lexical_decision_task_DD_L5,2021.2.3,Win32,59.87665409,,,,,,,,,,,0.6859,1,,,,,,,,,,,,,,m,1,0.6859,,,,,,,,-0.378095238,-0.167619048,0,0,0,,0,154,154,71,1,BUBBLE,C,old,m,./images/BUBBLE.png,,,,,,,,,,,,,,,,,,,,,,,,,,,,,,,,,,,
,,,,,,,,,,,,,,,,,5f1b6a9ec094bd360e71cee1,20,2022-02-12_10h15.31.984,lexical_decision_task_DD_L5,2021.2.3,Win32,59.87665409,,,,,,,,,,,0.9122,1,,,,,,,,,,,,,,m,1,0.9122,,,,,,,,-0.378095238,-0.167619048,0,0,0,,0,155,155,23,1,CLOTH,C,old,m,./images/CLOTH.png,,,,,,,,,,,,,,,,,,,,,,,,,,,,,,,,,,,
,,,,,,,,,,,,,,,,,5f1b6a9ec094bd360e71cee1,20,2022-02-12_10h15.31.984,lexical_decision_task_DD_L5,2021.2.3,Win32,59.87665409,,,,,,,,,,,0.9557,1,,,,,,,,,,,,,,z,1,0.9557,,,,,,,,-0.378095238,-0.167619048,0,0,0,,0,156,156,137,1,JOOST,LB,old,z,./images/JOOSTLB.png,,,,,,,,,,,,,,,,,,,,,,,,,,,,,,,,,,,
,,,,,,,,,,,,,,,,,5f1b6a9ec094bd360e71cee1,20,2022-02-12_10h15.31.984,lexical_decision_task_DD_L5,2021.2.3,Win32,59.87665409,,,,,,,,,,,1.1626,1,,,,,,,,,,,,,,m,1,1.1626,,,,,,,,-0.378095238,-0.167619048,0,0,0,,0,157,157,76,1,MIDGET,LB,old,m,./images/MIDGETLB.png,,,,,,,,,,,,,,,,,,,,,,,,,,,,,,,,,,,
,,,,,,,,,,,,,,,,,5f1b6a9ec094bd360e71cee1,20,2022-02-12_10h15.31.984,lexical_decision_task_DD_L5,2021.2.3,Win32,59.87665409,,,,,,,,,,,0.7774,1,,,,,,,,,,,,,,m,1,0.7774,,,,,,,,-0.378095238,-0.167619048,0,0,0,,0,158,158,1,1,TOWEL,LB,old,m,./images/TOWELLB.png,,,,,,,,,,,,,,,,,,,,,,,,,,,,,,,,,,,
,,,,,,,,,,,,,,,,,5f1b6a9ec094bd360e71cee1,20,2022-02-12_10h15.31.984,lexical_decision_task_DD_L5,2021.2.3,Win32,59.87665409,,,,,,,,,,,0.6742,1,,,,,,,,,,,,,,z,1,0.6742,,,,,,,,-0.378095238,-0.167619048,0,0,0,,0,159,159,147,1,ZOLES,C,old,z,./images/ZOLES.png,,,,,,,,,,,,,,,,,,,,,,,,,,,,,,,,,,,
,,,,,,,,,,,,,,,,,5f1b6a9ec094bd360e71cee1,20,2022-02-12_10h15.31.984,lexical_decision_task_DD_L5,2021.2.3,Win32,59.87665409,,,,,,,,,,,0.8233,1,,,,,,,,,,,,,,m,1,0.8233,,,,,,,,-0.378095238,-0.167619048,0,0,0,,0,160,160,18,1,PARCEL,HB,old,m,./images/PARCELHB.png,,,,,,,,,,,,,,,,,,,,,,,,,,,,,,,,,,,
,,,,,,,,,,,,,,,,,5f1b6a9ec094bd360e71cee1,20,2022-02-12_10h15.31.984,lexical_decision_task_DD_L5,2021.2.3,Win32,59.87665409,,,,,,,,,,,0.9496,1,,,,,,,,,,,,,,m,1,0.9496,,,,,,,,-0.378095238,-0.167619048,0,0,0,,0,161,161,60,1,CURRY,HB,old,m,./images/CURRYHB.png,,,,,,,,,,,,,,,,,,,,,,,,,,,,,,,,,,,
,,,,,,,,,,,,,,,,,5f1b6a9ec094bd360e71cee1,20,2022-02-12_10h15.31.984,lexical_decision_task_DD_L5,2021.2.3,Win32,59.87665409,,,,,,,,,,,0.8416,1,,,,,,,,,,,,,,m,1,0.8416,,,,,,,,-0.378095238,-0.167619048,0,0,0,,0,162,162,67,1,POKER,LB,old,m,./images/POKERLB.png,,,,,,,,,,,,,,,,,,,,,,,,,,,,,,,,,,,
,,,,,,,,,,,,,,,,,5f1b6a9ec094bd360e71cee1,20,2022-02-12_10h15.31.984,lexical_decision_task_DD_L5,2021.2.3,Win32,59.87665409,,,,,,,,,,,1.4492,1,,,,,,,,,,,,,,z,1,1.4492,,,,,,,,-0.378095238,-0.167619048,0,0,0,,0,163,163,91,1,SHENS,HB,old,z,./images/SHENSHB.png,,,,,,,,,,,,,,,,,,,,,,,,,,,,,,,,,,,
,,,,,,,,,,,,,,,,,5f1b6a9ec094bd360e71cee1,20,2022-02-12_10h15.31.984,lexical_decision_task_DD_L5,2021.2.3,Win32,59.87665409,,,,,,,,,,,1.4578,1,,,,,,,,,,,,,,z,1,1.4578,,,,,,,,-0.378095238,-0.167619048,0,0,0,,0,164,164,148,1,JOMS,HB,old,z,./images/JOMSHB.png,,,,,,,,,,,,,,,,,,,,,,,,,,,,,,,,,,,
,,,,,,,,,,,,,,,,,5f1b6a9ec094bd360e71cee1,20,2022-02-12_10h15.31.984,lexical_decision_task_DD_L5,2021.2.3,Win32,59.87665409,,,,,,,,,,,1.0312,1,,,,,,,,,,,,,,z,1,1.0312,,,,,,,,-0.378095238,-0.167619048,0,0,0,,0,165,165,165,1,TROWN,C,old,z,./images/TROWN.png,,,,,,,,,,,,,,,,,,,,,,,,,,,,,,,,,,,
,,,,,,,,,,,,,,,,,5f1b6a9ec094bd360e71cee1,20,2022-02-12_10h15.31.984,lexical_decision_task_DD_L5,2021.2.3,Win32,59.87665409,,,,,,,,,,,0.6523,1,,,,,,,,,,,,,,m,1,0.6523,,,,,,,,-0.378095238,-0.167619048,0,0,0,,0,166,166,62,1,MAMMAL,C,old,m,./images/MAMMAL.png,,,,,,,,,,,,,,,,,,,,,,,,,,,,,,,,,,,
,,,,,,,,,,,,,,,,,5f1b6a9ec094bd360e71cee1,20,2022-02-12_10h15.31.984,lexical_decision_task_DD_L5,2021.2.3,Win32,59.87665409,,,,,,,,,,,1.2289,1,,,,,,,,,,,,,,m,1,1.2289,,,,,,,,-0.378095238,-0.167619048,0,0,0,,0,167,167,9,1,DIVER,HB,old,m,./images/DIVERHB.png,,,,,,,,,,,,,,,,,,,,,,,,,,,,,,,,,,,
,,,,,,,,,,,,,,,,,5f1b6a9ec094bd360e71cee1,20,2022-02-12_10h15.31.984,lexical_decision_task_DD_L5,2021.2.3,Win32,59.87665409,,,,,,,,,,,,,,,,,,,,,,,,,,,,,,,,,,,,,,,,,,,,,,,,How likely will it be that you will recognize the words presented clearly on a scale of 0 (not likely) to 100 (most likely)?,,,,,0.025714286,-0.407619048,1,0,0,jol_adv,6,12.6683,0,0,0,0,1,,,,,,,,,,,,,,,,,,,,,
,,,,,,,,,,,,,,,,,5f1b6a9ec094bd360e71cee1,20,2022-02-12_10h15.31.984,lexical_decision_task_DD_L5,2021.2.3,Win32,59.87665409,,,,,,,,,,,,,,,,,,,,,,,,,,,,,,,,,,,,,,,,,,,,,,,,How likely will it be that you will recognize the words presented slighly blurred on a scale of 0 (not likely) to 100 (most likely)?,,,,,,,,,,,5,7.5102,0,1,1,1,1,,,,,,,,,,,,,,,,,,,,,
,,,,,,,,,,,,,,,,,5f1b6a9ec094bd360e71cee1,20,2022-02-12_10h15.31.984,lexical_decision_task_DD_L5,2021.2.3,Win32,59.87665409,,,,,,,,,,,,,,,,,,,,,,,,,,,,,,,,,,,,,,,,,,,,,,,,How likely will it be that you will recognize the words presented very blurred on a scale of 0 (not likely) to 100 (most likely)?,,,,,,,,,,,3,4.4948,0,2,2,2,1,,,,,,,,,,,,,,,,,,,,,
space,20.2242,-0.004761905,0.006666667,0,0,0,,,,,,1,test,"In the next phase you will be presented with the words from the the first phase. Your job is to decide whether you remember seeing the word or not. If you remember seeing the word press ""old"" or type ""m"". If you do not remember seeing the word press ""new"" or type ""z"". Please press the space bar or click on continue to begin. ",,,5f1b6a9ec094bd360e71cee1,20,2022-02-12_10h15.31.984,lexical_decision_task_DD_L5,2021.2.3,Win32,59.87665409,,,,,,,,,,,,,,,,,,,,,,,,,,,,,,,,,,,,,,,,,,,,,,,,,,,,,,,,,,,,,,,,,,0,0,0,0,1,,,,,,,,,,,,,,,,
space,4.0738,-0.044761905,-0.160952381,0,0,0,,,,,,1,test,"In the next phase you will be presented with the words from the the first phase. Your job is to decide whether you remember seeing the word or not. If you remember seeing the word press ""old"" or type ""m"". If you do not remember seeing the word press ""new"" or type ""z"". Please press the space bar or click on continue to begin. ",,,5f1b6a9ec094bd360e71cee1,20,2022-02-12_10h15.31.984,lexical_decision_task_DD_L5,2021.2.3,Win32,59.87665409,,,,,,,,,,,,,,,,,,,,,,,,,,,,,,,,,,,,,,,,,,,,,,,,,,,,,,,,,,,,,,,,,,1,0,1,0,1,,,,,,,,,,,,,,,,
,,0.000952381,-0.374285714,1,0,0,,,,,,1,test,"In the next phase you will be presented with the words from the the first phase. Your job is to decide whether you remember seeing the word or not. If you remember seeing the word press ""old"" or type ""m"". If you do not remember seeing the word press ""new"" or type ""z"". Please press the space bar or click on continue to begin. ",,,5f1b6a9ec094bd360e71cee1,20,2022-02-12_10h15.31.984,lexical_decision_task_DD_L5,2021.2.3,Win32,59.87665409,,,,,,,,,,,,,,,,,,,,,,,,,,,,,,,,,,,,,,,,,,,,,,,,,,,,,,,,,,,,,,,,,,2,0,2,0,1,instr_done_button,,,,,,,,,,,,,,,
space,8.905,-0.072380952,-0.05047619,0,0,0,,,,,,1,test,"In the next phase you will be presented with the words from the the first phase. Your job is to decide whether you remember seeing the word or not. If you remember seeing the word press ""old"" or type ""m"". If you do not remember seeing the word press ""new"" or type ""z"". Please press the space bar or click on continue to begin. ",,,5f1b6a9ec094bd360e71cee1,20,2022-02-12_10h15.31.984,lexical_decision_task_DD_L5,2021.2.3,Win32,59.87665409,,,,,,,,,,,,,,,,,,,,,,,,,,,,,,,,,,,,,,,,,,,,,,,,,,,,,,,,,,,,,,,,,,3,0,3,0,1,,,,,,,,,,,,,,,,
,,-0.035238095,-0.360952381,1,0,0,,,,,,1,test,"In the next phase you will be presented with the words from the the first phase. Your job is to decide whether you remember seeing the word or not. If you remember seeing the word press ""old"" or type ""m"". If you do not remember seeing the word press ""new"" or type ""z"". Please press the space bar or click on continue to begin. ",,,5f1b6a9ec094bd360e71cee1,20,2022-02-12_10h15.31.984,lexical_decision_task_DD_L5,2021.2.3,Win32,59.87665409,,,,,,,,,,,,,,,,,,,,,,,,,,,,,,,,,,,,,,,,,,,,,,,,,,,,,,,,,,,,,,,,,,4,0,4,0,1,instr_done_button,,,,,,,,,,,,,,,
,,,,,,,,,,,,,,,,,5f1b6a9ec094bd360e71cee1,20,2022-02-12_10h15.31.984,lexical_decision_task_DD_L5,2021.2.3,Win32,59.87665409,,,,,,,,,,,3.2546,1,,,,,,,,,,,,,,,,,,,,,,,,-0.035238095,-0.241904762,0,0,0,,,,,,,CHERRY,HB,m,y,./images/CHERRYHB.png,,,,,,,,,,,,,,,,,,,,,m,1,3.2546,,,,,,,,0,0,0,54,1
,,,,,,,,,,,,,,,,,5f1b6a9ec094bd360e71cee1,20,2022-02-12_10h15.31.984,lexical_decision_task_DD_L5,2021.2.3,Win32,59.87665409,,,,,,,,,,,1.6846,1,,,,,,,,,,,,,,,,,,,,,,,,-0.035238095,-0.241904762,0,0,0,,,,,,,CANYON,LB,z,y,./images/CANYONLB.png,,,,,,,,,,,,,,,,,,,,,z,1,1.6846,,,,,,,,0,1,1,118,1
,,,,,,,,,,,,,,,,,5f1b6a9ec094bd360e71cee1,20,2022-02-12_10h15.31.984,lexical_decision_task_DD_L5,2021.2.3,Win32,59.87665409,,,,,,,,,,,1.1457,1,,,,,,,,,,,,,,,,,,,,,,,,-0.035238095,-0.241904762,0,0,0,,,,,,,MOSQUE,LB,z,y,./images/MOSQUELB.png,,,,,,,,,,,,,,,,,,,,,z,1,1.1457,,,,,,,,0,2,2,127,1
,,,,,,,,,,,,,,,,,5f1b6a9ec094bd360e71cee1,20,2022-02-12_10h15.31.984,lexical_decision_task_DD_L5,2021.2.3,Win32,59.87665409,,,,,,,,,,,1.0207,1,,,,,,,,,,,,,,,,,,,,,,,,-0.035238095,-0.241904762,0,0,0,,,,,,,FLESH,HB,m,y,./images/FLESHHB.png,,,,,,,,,,,,,,,,,,,,,m,1,1.0207,,,,,,,,0,3,3,24,1
,,,,,,,,,,,,,,,,,5f1b6a9ec094bd360e71cee1,20,2022-02-12_10h15.31.984,lexical_decision_task_DD_L5,2021.2.3,Win32,59.87665409,,,,,,,,,,,1.056,0,,,,,,,,,,,,,,,,,,,,,,,,-0.035238095,-0.241904762,0,0,0,,,,,,,FLASK,HB,m,y,./images/FLASKHB.png,,,,,,,,,,,,,,,,,,,,,z,0,1.056,,,,,,,,0,4,4,72,1
,,,,,,,,,,,,,,,,,5f1b6a9ec094bd360e71cee1,20,2022-02-12_10h15.31.984,lexical_decision_task_DD_L5,2021.2.3,Win32,59.87665409,,,,,,,,,,,1.1495,1,,,,,,,,,,,,,,,,,,,,,,,,-0.035238095,-0.241904762,0,0,0,,,,,,,GLOVE,LB,m,y,./images/GLOVELB.png,,,,,,,,,,,,,,,,,,,,,m,1,1.1495,,,,,,,,0,5,5,73,1
,,,,,,,,,,,,,,,,,5f1b6a9ec094bd360e71cee1,20,2022-02-12_10h15.31.984,lexical_decision_task_DD_L5,2021.2.3,Win32,59.87665409,,,,,,,,,,,0.6944,1,,,,,,,,,,,,,,,,,,,,,,,,-0.035238095,-0.241904762,0,0,0,,,,,,,WALNUT,HB,m,y,./images/WALNUTHB.png,,,,,,,,,,,,,,,,,,,,,m,1,0.6944,,,,,,,,0,6,6,0,1
,,,,,,,,,,,,,,,,,5f1b6a9ec094bd360e71cee1,20,2022-02-12_10h15.31.984,lexical_decision_task_DD_L5,2021.2.3,Win32,59.87665409,,,,,,,,,,,0.6444,1,,,,,,,,,,,,,,,,,,,,,,,,-0.035238095,-0.241904762,0,0,0,,,,,,,GARDEN,LB,m,y,./images/GARDENLB.png,,,,,,,,,,,,,,,,,,,,,m,1,0.6444,,,,,,,,0,7,7,10,1
,,,,,,,,,,,,,,,,,5f1b6a9ec094bd360e71cee1,20,2022-02-12_10h15.31.984,lexical_decision_task_DD_L5,2021.2.3,Win32,59.87665409,,,,,,,,,,,0.7327,1,,,,,,,,,,,,,,,,,,,,,,,,-0.035238095,-0.241904762,0,0,0,,,,,,,LADDER,C,z,y,./images/LADDER.png,,,,,,,,,,,,,,,,,,,,,z,1,0.7327,,,,,,,,0,8,8,122,1
,,,,,,,,,,,,,,,,,5f1b6a9ec094bd360e71cee1,20,2022-02-12_10h15.31.984,lexical_decision_task_DD_L5,2021.2.3,Win32,59.87665409,,,,,,,,,,,0.8628,0,,,,,,,,,,,,,,,,,,,,,,,,-0.035238095,-0.241904762,0,0,0,,,,,,,WALRUS,C,z,y,./images/WALRUS.png,,,,,,,,,,,,,,,,,,,,,m,0,0.8628,,,,,,,,0,9,9,107,1
,,,,,,,,,,,,,,,,,5f1b6a9ec094bd360e71cee1,20,2022-02-12_10h15.31.984,lexical_decision_task_DD_L5,2021.2.3,Win32,59.87665409,,,,,,,,,,,0.964,1,,,,,,,,,,,,,,,,,,,,,,,,-0.035238095,-0.241904762,0,0,0,,,,,,,PENCE,LB,z,y,./images/PENCELB.png,,,,,,,,,,,,,,,,,,,,,z,1,0.964,,,,,,,,0,10,10,100,1
,,,,,,,,,,,,,,,,,5f1b6a9ec094bd360e71cee1,20,2022-02-12_10h15.31.984,lexical_decision_task_DD_L5,2021.2.3,Win32,59.87665409,,,,,,,,,,,1.1617,1,,,,,,,,,,,,,,,,,,,,,,,,-0.035238095,-0.241904762,0,0,0,,,,,,,SHELF,HB,z,y,./images/SHELFHB.png,,,,,,,,,,,,,,,,,,,,,z,1,1.1617,,,,,,,,0,11,11,123,1
,,,,,,,,,,,,,,,,,5f1b6a9ec094bd360e71cee1,20,2022-02-12_10h15.31.984,lexical_decision_task_DD_L5,2021.2.3,Win32,59.87665409,,,,,,,,,,,0.7992,1,,,,,,,,,,,,,,,,,,,,,,,,-0.035238095,-0.241904762,0,0,0,,,,,,,BASKET,C,m,y,./images/BASKET.png,,,,,,,,,,,,,,,,,,,,,m,1,0.7992,,,,,,,,0,12,12,44,1
,,,,,,,,,,,,,,,,,5f1b6a9ec094bd360e71cee1,20,2022-02-12_10h15.31.984,lexical_decision_task_DD_L5,2021.2.3,Win32,59.87665409,,,,,,,,,,,0.9846,1,,,,,,,,,,,,,,,,,,,,,,,,-0.035238095,-0.241904762,0,0,0,,,,,,,MIDGET,LB,m,y,./images/MIDGETLB.png,,,,,,,,,,,,,,,,,,,,,m,1,0.9846,,,,,,,,0,13,13,76,1
,,,,,,,,,,,,,,,,,5f1b6a9ec094bd360e71cee1,20,2022-02-12_10h15.31.984,lexical_decision_task_DD_L5,2021.2.3,Win32,59.87665409,,,,,,,,,,,1.4566,1,,,,,,,,,,,,,,,,,,,,,,,,-0.035238095,-0.241904762,0,0,0,,,,,,,SWEAT,HB,z,y,./images/SWEATHB.png,,,,,,,,,,,,,,,,,,,,,z,1,1.4566,,,,,,,,0,14,14,150,1
,,,,,,,,,,,,,,,,,5f1b6a9ec094bd360e71cee1,20,2022-02-12_10h15.31.984,lexical_decision_task_DD_L5,2021.2.3,Win32,59.87665409,,,,,,,,,,,0.9549,0,,,,,,,,,,,,,,,,,,,,,,,,-0.035238095,-0.241904762,0,0,0,,,,,,,FALCON,LB,z,y,./images/FALCONLB.png,,,,,,,,,,,,,,,,,,,,,m,0,0.9549,,,,,,,,0,15,15,112,1
,,,,,,,,,,,,,,,,,5f1b6a9ec094bd360e71cee1,20,2022-02-12_10h15.31.984,lexical_decision_task_DD_L5,2021.2.3,Win32,59.87665409,,,,,,,,,,,0.852,0,,,,,,,,,,,,,,,,,,,,,,,,-0.035238095,-0.241904762,0,0,0,,,,,,,MELON,LB,z,y,./images/MELONLB.png,,,,,,,,,,,,,,,,,,,,,m,0,0.852,,,,,,,,0,16,16,106,1
,,,,,,,,,,,,,,,,,5f1b6a9ec094bd360e71cee1,20,2022-02-12_10h15.31.984,lexical_decision_task_DD_L5,2021.2.3,Win32,59.87665409,,,,,,,,,,,1.0261,0,,,,,,,,,,,,,,,,,,,,,,,,-0.035238095,-0.241904762,0,0,0,,,,,,,BIRTH,LB,z,y,./images/BIRTHLB.png,,,,,,,,,,,,,,,,,,,,,m,0,1.0261,,,,,,,,0,17,17,121,1
,,,,,,,,,,,,,,,,,5f1b6a9ec094bd360e71cee1,20,2022-02-12_10h15.31.984,lexical_decision_task_DD_L5,2021.2.3,Win32,59.87665409,,,,,,,,,,,0.8597,1,,,,,,,,,,,,,,,,,,,,,,,,-0.035238095,-0.241904762,0,0,0,,,,,,,CRUST,LB,z,y,./images/CRUSTLB.png,,,,,,,,,,,,,,,,,,,,,z,1,0.8597,,,,,,,,0,18,18,163,1
,,,,,,,,,,,,,,,,,5f1b6a9ec094bd360e71cee1,20,2022-02-12_10h15.31.984,lexical_decision_task_DD_L5,2021.2.3,Win32,59.87665409,,,,,,,,,,,1.3431,1,,,,,,,,,,,,,,,,,,,,,,,,-0.035238095,-0.241904762,0,0,0,,,,,,,DESERT,LB,m,y,./images/DESERTLB.png,,,,,,,,,,,,,,,,,,,,,m,1,1.3431,,,,,,,,0,19,19,52,1
,,,,,,,,,,,,,,,,,5f1b6a9ec094bd360e71cee1,20,2022-02-12_10h15.31.984,lexical_decision_task_DD_L5,2021.2.3,Win32,59.87665409,,,,,,,,,,,0.9678,0,,,,,,,,,,,,,,,,,,,,,,,,-0.035238095,-0.241904762,0,0,0,,,,,,,MOTOR,LB,z,y,./images/MOTORLB.png,,,,,,,,,,,,,,,,,,,,,m,0,0.9678,,,,,,,,0,20,20,97,1
,,,,,,,,,,,,,,,,,5f1b6a9ec094bd360e71cee1,20,2022-02-12_10h15.31.984,lexical_decision_task_DD_L5,2021.2.3,Win32,59.87665409,,,,,,,,,,,1.3867,0,,,,,,,,,,,,,,,,,,,,,,,,-0.035238095,-0.241904762,0,0,0,,,,,,,BONNET,C,z,y,./images/BONNET.png,,,,,,,,,,,,,,,,,,,,,m,0,1.3867,,,,,,,,0,21,21,95,1
,,,,,,,,,,,,,,,,,5f1b6a9ec094bd360e71cee1,20,2022-02-12_10h15.31.984,lexical_decision_task_DD_L5,2021.2.3,Win32,59.87665409,,,,,,,,,,,0.9927,1,,,,,,,,,,,,,,,,,,,,,,,,-0.035238095,-0.241904762,0,0,0,,,,,,,MUFFIN,LB,z,y,./images/MUFFINLB.png,,,,,,,,,,,,,,,,,,,,,z,1,0.9927,,,,,,,,0,22,22,139,1
,,,,,,,,,,,,,,,,,5f1b6a9ec094bd360e71cee1,20,2022-02-12_10h15.31.984,lexical_decision_task_DD_L5,2021.2.3,Win32,59.87665409,,,,,,,,,,,0.9847,1,,,,,,,,,,,,,,,,,,,,,,,,-0.035238095,-0.241904762,0,0,0,,,,,,,MONKEY,HB,m,y,./images/MONKEYHB.png,,,,,,,,,,,,,,,,,,,,,m,1,0.9847,,,,,,,,0,23,23,45,1
,,,,,,,,,,,,,,,,,5f1b6a9ec094bd360e71cee1,20,2022-02-12_10h15.31.984,lexical_decision_task_DD_L5,2021.2.3,Win32,59.87665409,,,,,,,,,,,0.8832,0,,,,,,,,,,,,,,,,,,,,,,,,-0.035238095,-0.241904762,0,0,0,,,,,,,DOUGH,LB,z,y,./images/DOUGHLB.png,,,,,,,,,,,,,,,,,,,,,m,0,0.8832,,,,,,,,0,24,24,103,1
,,,,,,,,,,,,,,,,,5f1b6a9ec094bd360e71cee1,20,2022-02-12_10h15.31.984,lexical_decision_task_DD_L5,2021.2.3,Win32,59.87665409,,,,,,,,,,,0.738,1,,,,,,,,,,,,,,,,,,,,,,,,-0.035238095,-0.241904762,0,0,0,,,,,,,RHINO,HB,z,y,./images/RHINOHB.png,,,,,,,,,,,,,,,,,,,,,z,1,0.738,,,,,,,,0,25,25,93,1
,,,,,,,,,,,,,,,,,5f1b6a9ec094bd360e71cee1,20,2022-02-12_10h15.31.984,lexical_decision_task_DD_L5,2021.2.3,Win32,59.87665409,,,,,,,,,,,0.8212,1,,,,,,,,,,,,,,,,,,,,,,,,-0.035238095,-0.241904762,0,0,0,,,,,,,WRIST,LB,z,y,./images/WRISTLB.png,,,,,,,,,,,,,,,,,,,,,z,1,0.8212,,,,,,,,0,26,26,109,1
,,,,,,,,,,,,,,,,,5f1b6a9ec094bd360e71cee1,20,2022-02-12_10h15.31.984,lexical_decision_task_DD_L5,2021.2.3,Win32,59.87665409,,,,,,,,,,,1.3537,0,,,,,,,,,,,,,,,,,,,,,,,,-0.035238095,-0.241904762,0,0,0,,,,,,,MIRROR,HB,z,y,./images/MIRRORHB.png,,,,,,,,,,,,,,,,,,,,,m,0,1.3537,,,,,,,,0,27,27,147,1
,,,,,,,,,,,,,,,,,5f1b6a9ec094bd360e71cee1,20,2022-02-12_10h15.31.984,lexical_decision_task_DD_L5,2021.2.3,Win32,59.87665409,,,,,,,,,,,1.0001,1,,,,,,,,,,,,,,,,,,,,,,,,-0.035238095,-0.241904762,0,0,0,,,,,,,STAIN,HB,m,y,./images/STAINHB.png,,,,,,,,,,,,,,,,,,,,,m,1,1.0001,,,,,,,,0,28,28,6,1
,,,,,,,,,,,,,,,,,5f1b6a9ec094bd360e71cee1,20,2022-02-12_10h15.31.984,lexical_decision_task_DD_L5,2021.2.3,Win32,59.87665409,,,,,,,,,,,1.5633,1,,,,,,,,,,,,,,,,,,,,,,,,-0.035238095,-0.241904762,0,0,0,,,,,,,PAINT,LB,z,y,./images/PAINTLB.png,,,,,,,,,,,,,,,,,,,,,z,1,1.5633,,,,,,,,0,29,29,91,1
,,,,,,,,,,,,,,,,,5f1b6a9ec094bd360e71cee1,20,2022-02-12_10h15.31.984,lexical_decision_task_DD_L5,2021.2.3,Win32,59.87665409,,,,,,,,,,,0.7118,1,,,,,,,,,,,,,,,,,,,,,,,,-0.035238095,-0.241904762,0,0,0,,,,,,,BUBBLE,C,m,y,./images/BUBBLE.png,,,,,,,,,,,,,,,,,,,,,m,1,0.7118,,,,,,,,0,30,30,71,1
,,,,,,,,,,,,,,,,,5f1b6a9ec094bd360e71cee1,20,2022-02-12_10h15.31.984,lexical_decision_task_DD_L5,2021.2.3,Win32,59.87665409,,,,,,,,,,,0.9817,0,,,,,,,,,,,,,,,,,,,,,,,,-0.035238095,-0.241904762,0,0,0,,,,,,,MALLET,C,z,y,./images/MALLET.png,,,,,,,,,,,,,,,,,,,,,m,0,0.9817,,,,,,,,0,31,31,134,1
,,,,,,,,,,,,,,,,,5f1b6a9ec094bd360e71cee1,20,2022-02-12_10h15.31.984,lexical_decision_task_DD_L5,2021.2.3,Win32,59.87665409,,,,,,,,,,,1.2607,1,,,,,,,,,,,,,,,,,,,,,,,,-0.035238095,-0.241904762,0,0,0,,,,,,,PEACH,C,z,y,./images/PEACH.png,,,,,,,,,,,,,,,,,,,,,z,1,1.2607,,,,,,,,0,32,32,119,1
,,,,,,,,,,,,,,,,,5f1b6a9ec094bd360e71cee1,20,2022-02-12_10h15.31.984,lexical_decision_task_DD_L5,2021.2.3,Win32,59.87665409,,,,,,,,,,,0.7714,1,,,,,,,,,,,,,,,,,,,,,,,,-0.035238095,-0.241904762,0,0,0,,,,,,,HOCKEY,C,m,y,./images/HOCKEY.png,,,,,,,,,,,,,,,,,,,,,m,1,0.7714,,,,,,,,0,33,33,32,1
,,,,,,,,,,,,,,,,,5f1b6a9ec094bd360e71cee1,20,2022-02-12_10h15.31.984,lexical_decision_task_DD_L5,2021.2.3,Win32,59.87665409,,,,,,,,,,,0.6847,1,,,,,,,,,,,,,,,,,,,,,,,,-0.035238095,-0.241904762,0,0,0,,,,,,,BANANA,LB,m,y,./images/BANANALB.png,,,,,,,,,,,,,,,,,,,,,m,1,0.6847,,,,,,,,0,34,34,70,1
,,,,,,,,,,,,,,,,,5f1b6a9ec094bd360e71cee1,20,2022-02-12_10h15.31.984,lexical_decision_task_DD_L5,2021.2.3,Win32,59.87665409,,,,,,,,,,,0.8042,1,,,,,,,,,,,,,,,,,,,,,,,,-0.035238095,-0.241904762,0,0,0,,,,,,,TULIP,C,z,y,./images/TULIP.png,,,,,,,,,,,,,,,,,,,,,z,1,0.8042,,,,,,,,0,35,35,92,1
,,,,,,,,,,,,,,,,,5f1b6a9ec094bd360e71cee1,20,2022-02-12_10h15.31.984,lexical_decision_task_DD_L5,2021.2.3,Win32,59.87665409,,,,,,,,,,,0.9614,1,,,,,,,,,,,,,,,,,,,,,,,,-0.035238095,-0.241904762,0,0,0,,,,,,,DANCER,HB,m,y,./images/DANCERHB.png,,,,,,,,,,,,,,,,,,,,,m,1,0.9614,,,,,,,,0,36,36,21,1
,,,,,,,,,,,,,,,,,5f1b6a9ec094bd360e71cee1,20,2022-02-12_10h15.31.984,lexical_decision_task_DD_L5,2021.2.3,Win32,59.87665409,,,,,,,,,,,0.7191,1,,,,,,,,,,,,,,,,,,,,,,,,-0.035238095,-0.241904762,0,0,0,,,,,,,KITTEN,HB,z,y,./images/KITTENHB.png,,,,,,,,,,,,,,,,,,,,,z,1,0.7191,,,,,,,,0,37,37,129,1
,,,,,,,,,,,,,,,,,5f1b6a9ec094bd360e71cee1,20,2022-02-12_10h15.31.984,lexical_decision_task_DD_L5,2021.2.3,Win32,59.87665409,,,,,,,,,,,0.7871,1,,,,,,,,,,,,,,,,,,,,,,,,-0.035238095,-0.241904762,0,0,0,,,,,,,DRUMS,LB,z,y,./images/DRUMSLB.png,,,,,,,,,,,,,,,,,,,,,z,1,0.7871,,,,,,,,0,38,38,133,1
,,,,,,,,,,,,,,,,,5f1b6a9ec094bd360e71cee1,20,2022-02-12_10h15.31.984,lexical_decision_task_DD_L5,2021.2.3,Win32,59.87665409,,,,,,,,,,,0.8288,1,,,,,,,,,,,,,,,,,,,,,,,,-0.035238095,-0.241904762,0,0,0,,,,,,,PILOT,C,m,y,./images/PILOT.png,,,,,,,,,,,,,,,,,,,,,m,1,0.8288,,,,,,,,0,39,39,50,1
,,,,,,,,,,,,,,,,,5f1b6a9ec094bd360e71cee1,20,2022-02-12_10h15.31.984,lexical_decision_task_DD_L5,2021.2.3,Win32,59.87665409,,,,,,,,,,,0.8221,1,,,,,,,,,,,,,,,,,,,,,,,,-0.035238095,-0.241904762,0,0,0,,,,,,,PEBBLE,LB,m,y,./images/PEBBLELB.png,,,,,,,,,,,,,,,,,,,,,m,1,0.8221,,,,,,,,0,40,40,82,1
,,,,,,,,,,,,,,,,,5f1b6a9ec094bd360e71cee1,20,2022-02-12_10h15.31.984,lexical_decision_task_DD_L5,2021.2.3,Win32,59.87665409,,,,,,,,,,,1.0955,0,,,,,,,,,,,,,,,,,,,,,,,,-0.035238095,-0.241904762,0,0,0,space,,,,,,SWING,LB,z,y,./images/SWINGLB.png,69.878,,,,,,,,,,,,,,,,,,,,m,0,1.0955,,,,,,,,0,41,41,124,1
,,,,,,,,,,,,,,,,,5f1b6a9ec094bd360e71cee1,20,2022-02-12_10h15.31.984,lexical_decision_task_DD_L5,2021.2.3,Win32,59.87665409,,,,,,,,,,,1.3192,1,,,,,,,,,,,,,,,,,,,,,,,,-0.035238095,-0.241904762,0,0,0,,,,,,,FERRY,HB,m,y,./images/FERRYHB.png,,,,,,,,,,,,,,,,,,,,,m,1,1.3192,,,,,,,,0,42,42,57,1
,,,,,,,,,,,,,,,,,5f1b6a9ec094bd360e71cee1,20,2022-02-12_10h15.31.984,lexical_decision_task_DD_L5,2021.2.3,Win32,59.87665409,,,,,,,,,,,0.8046,1,,,,,,,,,,,,,,,,,,,,,,,,-0.035238095,-0.241904762,0,0,0,,,,,,,TOMATO,HB,z,y,./images/TOMATOHB.png,,,,,,,,,,,,,,,,,,,,,z,1,0.8046,,,,,,,,0,43,43,84,1
,,,,,,,,,,,,,,,,,5f1b6a9ec094bd360e71cee1,20,2022-02-12_10h15.31.984,lexical_decision_task_DD_L5,2021.2.3,Win32,59.87665409,,,,,,,,,,,0.8584,0,,,,,,,,,,,,,,,,,,,,,,,,-0.035238095,-0.241904762,0,0,0,,,,,,,SAUCE,HB,m,y,./images/SAUCEHB.png,,,,,,,,,,,,,,,,,,,,,z,0,0.8584,,,,,,,,0,44,44,51,1
,,,,,,,,,,,,,,,,,5f1b6a9ec094bd360e71cee1,20,2022-02-12_10h15.31.984,lexical_decision_task_DD_L5,2021.2.3,Win32,59.87665409,,,,,,,,,,,1.4963,0,,,,,,,,,,,,,,,,,,,,,,,,-0.035238095,-0.241904762,0,0,0,,,,,,,CARPET,C,z,y,./images/CARPET.png,,,,,,,,,,,,,,,,,,,,,m,0,1.4963,,,,,,,,0,45,45,137,1
,,,,,,,,,,,,,,,,,5f1b6a9ec094bd360e71cee1,20,2022-02-12_10h15.31.984,lexical_decision_task_DD_L5,2021.2.3,Win32,59.87665409,,,,,,,,,,,0.7979,1,,,,,,,,,,,,,,,,,,,,,,,,-0.035238095,-0.241904762,0,0,0,,,,,,,WEASEL,C,z,y,./images/WEASEL.png,,,,,,,,,,,,,,,,,,,,,z,1,0.7979,,,,,,,,0,46,46,164,1
,,,,,,,,,,,,,,,,,5f1b6a9ec094bd360e71cee1,20,2022-02-12_10h15.31.984,lexical_decision_task_DD_L5,2021.2.3,Win32,59.87665409,,,,,,,,,,,0.9549,1,,,,,,,,,,,,,,,,,,,,,,,,-0.035238095,-0.241904762,0,0,0,,,,,,,DRILL,HB,m,y,./images/DRILLHB.png,,,,,,,,,,,,,,,,,,,,,m,1,0.9549,,,,,,,,0,47,47,81,1
,,,,,,,,,,,,,,,,,5f1b6a9ec094bd360e71cee1,20,2022-02-12_10h15.31.984,lexical_decision_task_DD_L5,2021.2.3,Win32,59.87665409,,,,,,,,,,,0.7797,1,,,,,,,,,,,,,,,,,,,,,,,,-0.035238095,-0.241904762,0,0,0,,,,,,,VALLEY,C,m,y,./images/VALLEY.png,,,,,,,,,,,,,,,,,,,,,m,1,0.7797,,,,,,,,0,48,48,68,1
,,,,,,,,,,,,,,,,,5f1b6a9ec094bd360e71cee1,20,2022-02-12_10h15.31.984,lexical_decision_task_DD_L5,2021.2.3,Win32,59.87665409,,,,,,,,,,,0.9215,1,,,,,,,,,,,,,,,,,,,,,,,,-0.035238095,-0.241904762,0,0,0,,,,,,,PARCEL,HB,m,y,./images/PARCELHB.png,,,,,,,,,,,,,,,,,,,,,m,1,0.9215,,,,,,,,0,49,49,18,1
,,,,,,,,,,,,,,,,,5f1b6a9ec094bd360e71cee1,20,2022-02-12_10h15.31.984,lexical_decision_task_DD_L5,2021.2.3,Win32,59.87665409,,,,,,,,,,,1.0426,1,,,,,,,,,,,,,,,,,,,,,,,,-0.035238095,-0.241904762,0,0,0,,,,,,,JAGUAR,HB,z,y,./images/JAGUARHB.png,,,,,,,,,,,,,,,,,,,,,z,1,1.0426,,,,,,,,0,50,50,102,1
,,,,,,,,,,,,,,,,,5f1b6a9ec094bd360e71cee1,20,2022-02-12_10h15.31.984,lexical_decision_task_DD_L5,2021.2.3,Win32,59.87665409,,,,,,,,,,,0.8371,1,,,,,,,,,,,,,,,,,,,,,,,,-0.035238095,-0.241904762,0,0,0,,,,,,,BELLY,LB,z,y,./images/BELLYLB.png,,,,,,,,,,,,,,,,,,,,,z,1,0.8371,,,,,,,,0,51,51,94,1
,,,,,,,,,,,,,,,,,5f1b6a9ec094bd360e71cee1,20,2022-02-12_10h15.31.984,lexical_decision_task_DD_L5,2021.2.3,Win32,59.87665409,,,,,,,,,,,1.4128,0,,,,,,,,,,,,,,,,,,,,,,,,-0.035238095,-0.241904762,0,0,0,,,,,,,PLANK,LB,z,y,./images/PLANKLB.png,,,,,,,,,,,,,,,,,,,,,m,0,1.4128,,,,,,,,0,52,52,85,1
,,,,,,,,,,,,,,,,,5f1b6a9ec094bd360e71cee1,20,2022-02-12_10h15.31.984,lexical_decision_task_DD_L5,2021.2.3,Win32,59.87665409,,,,,,,,,,,1.2459,1,,,,,,,,,,,,,,,,,,,,,,,,-0.035238095,-0.241904762,0,0,0,,,,,,,COUCH,C,z,y,./images/COUCH.png,,,,,,,,,,,,,,,,,,,,,z,1,1.2459,,,,,,,,0,53,53,161,1
,,,,,,,,,,,,,,,,,5f1b6a9ec094bd360e71cee1,20,2022-02-12_10h15.31.984,lexical_decision_task_DD_L5,2021.2.3,Win32,59.87665409,,,,,,,,,,,0.7069,1,,,,,,,,,,,,,,,,,,,,,,,,-0.035238095,-0.241904762,0,0,0,,,,,,,LAGOON,C,m,y,./images/LAGOON.png,,,,,,,,,,,,,,,,,,,,,m,1,0.7069,,,,,,,,0,54,54,47,1
,,,,,,,,,,,,,,,,,5f1b6a9ec094bd360e71cee1,20,2022-02-12_10h15.31.984,lexical_decision_task_DD_L5,2021.2.3,Win32,59.87665409,,,,,,,,,,,0.7856,1,,,,,,,,,,,,,,,,,,,,,,,,-0.035238095,-0.241904762,0,0,0,,,,,,,CLOWN,LB,m,y,./images/CLOWNLB.png,,,,,,,,,,,,,,,,,,,,,m,1,0.7856,,,,,,,,0,55,55,22,1
,,,,,,,,,,,,,,,,,5f1b6a9ec094bd360e71cee1,20,2022-02-12_10h15.31.984,lexical_decision_task_DD_L5,2021.2.3,Win32,59.87665409,,,,,,,,,,,0.9204,0,,,,,,,,,,,,,,,,,,,,,,,,-0.035238095,-0.241904762,0,0,0,,,,,,,STRING,C,z,y,./images/STRING.png,,,,,,,,,,,,,,,,,,,,,m,0,0.9204,,,,,,,,0,56,56,125,1
,,,,,,,,,,,,,,,,,5f1b6a9ec094bd360e71cee1,20,2022-02-12_10h15.31.984,lexical_decision_task_DD_L5,2021.2.3,Win32,59.87665409,,,,,,,,,,,1.0915,1,,,,,,,,,,,,,,,,,,,,,,,,-0.035238095,-0.241904762,0,0,0,,,,,,,BEARD,C,z,y,./images/BEARD.png,,,,,,,,,,,,,,,,,,,,,z,1,1.0915,,,,,,,,0,57,57,86,1
,,,,,,,,,,,,,,,,,5f1b6a9ec094bd360e71cee1,20,2022-02-12_10h15.31.984,lexical_decision_task_DD_L5,2021.2.3,Win32,59.87665409,,,,,,,,,,,0.6916,1,,,,,,,,,,,,,,,,,,,,,,,,-0.035238095,-0.241904762,0,0,0,,,,,,,MEDAL,C,m,y,./images/MEDAL.png,,,,,,,,,,,,,,,,,,,,,m,1,0.6916,,,,,,,,0,58,58,11,1
,,,,,,,,,,,,,,,,,5f1b6a9ec094bd360e71cee1,20,2022-02-12_10h15.31.984,lexical_decision_task_DD_L5,2021.2.3,Win32,59.87665409,,,,,,,,,,,0.9969,0,,,,,,,,,,,,,,,,,,,,,,,,-0.035238095,-0.241904762,0,0,0,,,,,,,SCREW,HB,z,y,./images/SCREWHB.png,,,,,,,,,,,,,,,,,,,,,m,0,0.9969,,,,,,,,0,59,59,108,1
,,,,,,,,,,,,,,,,,5f1b6a9ec094bd360e71cee1,20,2022-02-12_10h15.31.984,lexical_decision_task_DD_L5,2021.2.3,Win32,59.87665409,,,,,,,,,,,0.9737,1,,,,,,,,,,,,,,,,,,,,,,,,-0.035238095,-0.241904762,0,0,0,,,,,,,SUNSET,LB,z,y,./images/SUNSETLB.png,,,,,,,,,,,,,,,,,,,,,z,1,0.9737,,,,,,,,0,60,60,166,1
,,,,,,,,,,,,,,,,,5f1b6a9ec094bd360e71cee1,20,2022-02-12_10h15.31.984,lexical_decision_task_DD_L5,2021.2.3,Win32,59.87665409,,,,,,,,,,,1.9451,1,,,,,,,,,,,,,,,,,,,,,,,,-0.035238095,-0.241904762,0,0,0,,,,,,,COOKER,HB,z,y,./images/COOKERHB.png,,,,,,,,,,,,,,,,,,,,,z,1,1.9451,,,,,,,,0,61,61,153,1
,,,,,,,,,,,,,,,,,5f1b6a9ec094bd360e71cee1,20,2022-02-12_10h15.31.984,lexical_decision_task_DD_L5,2021.2.3,Win32,59.87665409,,,,,,,,,,,0.9103,1,,,,,,,,,,,,,,,,,,,,,,,,-0.035238095,-0.241904762,0,0,0,,,,,,,ATTIC,HB,z,y,./images/ATTICHB.png,,,,,,,,,,,,,,,,,,,,,z,1,0.9103,,,,,,,,0,62,62,111,1
,,,,,,,,,,,,,,,,,5f1b6a9ec094bd360e71cee1,20,2022-02-12_10h15.31.984,lexical_decision_task_DD_L5,2021.2.3,Win32,59.87665409,,,,,,,,,,,0.6962,1,,,,,,,,,,,,,,,,,,,,,,,,-0.035238095,-0.241904762,0,0,0,,,,,,,STOOL,LB,m,y,./images/STOOLLB.png,,,,,,,,,,,,,,,,,,,,,m,1,0.6962,,,,,,,,0,63,63,43,1
,,,,,,,,,,,,,,,,,5f1b6a9ec094bd360e71cee1,20,2022-02-12_10h15.31.984,lexical_decision_task_DD_L5,2021.2.3,Win32,59.87665409,,,,,,,,,,,0.723,1,,,,,,,,,,,,,,,,,,,,,,,,-0.035238095,-0.241904762,0,0,0,,,,,,,TRIPOD,HB,z,y,./images/TRIPODHB.png,,,,,,,,,,,,,,,,,,,,,z,1,0.723,,,,,,,,0,64,64,138,1
,,,,,,,,,,,,,,,,,5f1b6a9ec094bd360e71cee1,20,2022-02-12_10h15.31.984,lexical_decision_task_DD_L5,2021.2.3,Win32,59.87665409,,,,,,,,,,,1.1686,1,,,,,,,,,,,,,,,,,,,,,,,,-0.035238095,-0.241904762,0,0,0,,,,,,,BROOM,HB,m,y,./images/BROOMHB.png,,,,,,,,,,,,,,,,,,,,,m,1,1.1686,,,,,,,,0,65,65,78,1
,,,,,,,,,,,,,,,,,5f1b6a9ec094bd360e71cee1,20,2022-02-12_10h15.31.984,lexical_decision_task_DD_L5,2021.2.3,Win32,59.87665409,,,,,,,,,,,1.0253,1,,,,,,,,,,,,,,,,,,,,,,,,-0.035238095,-0.241904762,0,0,0,,,,,,,CEMENT,C,z,y,./images/CEMENT.png,,,,,,,,,,,,,,,,,,,,,z,1,1.0253,,,,,,,,0,66,66,158,1
,,,,,,,,,,,,,,,,,5f1b6a9ec094bd360e71cee1,20,2022-02-12_10h15.31.984,lexical_decision_task_DD_L5,2021.2.3,Win32,59.87665409,,,,,,,,,,,0.7606,1,,,,,,,,,,,,,,,,,,,,,,,,-0.035238095,-0.241904762,0,0,0,,,,,,,POKER,LB,m,y,./images/POKERLB.png,,,,,,,,,,,,,,,,,,,,,m,1,0.7606,,,,,,,,0,67,67,67,1
,,,,,,,,,,,,,,,,,5f1b6a9ec094bd360e71cee1,20,2022-02-12_10h15.31.984,lexical_decision_task_DD_L5,2021.2.3,Win32,59.87665409,,,,,,,,,,,0.7217,1,,,,,,,,,,,,,,,,,,,,,,,,-0.035238095,-0.241904762,0,0,0,,,,,,,BRIDE,LB,m,y,./images/BRIDELB.png,,,,,,,,,,,,,,,,,,,,,m,1,0.7217,,,,,,,,0,68,68,64,1
,,,,,,,,,,,,,,,,,5f1b6a9ec094bd360e71cee1,20,2022-02-12_10h15.31.984,lexical_decision_task_DD_L5,2021.2.3,Win32,59.87665409,,,,,,,,,,,0.6366,0,,,,,,,,,,,,,,,,,,,,,,,,-0.035238095,-0.241904762,0,0,0,,,,,,,SMOKER,C,z,y,./images/SMOKER.png,,,,,,,,,,,,,,,,,,,,,m,0,0.6366,,,,,,,,0,69,69,110,1
,,,,,,,,,,,,,,,,,5f1b6a9ec094bd360e71cee1,20,2022-02-12_10h15.31.984,lexical_decision_task_DD_L5,2021.2.3,Win32,59.87665409,,,,,,,,,,,0.6762,1,,,,,,,,,,,,,,,,,,,,,,,,-0.035238095,-0.241904762,0,0,0,,,,,,,LIZARD,C,z,y,./images/LIZARD.png,,,,,,,,,,,,,,,,,,,,,z,1,0.6762,,,,,,,,0,70,70,128,1
,,,,,,,,,,,,,,,,,5f1b6a9ec094bd360e71cee1,20,2022-02-12_10h15.31.984,lexical_decision_task_DD_L5,2021.2.3,Win32,59.87665409,,,,,,,,,,,0.8367,0,,,,,,,,,,,,,,,,,,,,,,,,-0.035238095,-0.241904762,0,0,0,,,,,,,CLOUD,C,m,y,./images/CLOUD.png,,,,,,,,,,,,,,,,,,,,,z,0,0.8367,,,,,,,,0,71,71,26,1
,,,,,,,,,,,,,,,,,5f1b6a9ec094bd360e71cee1,20,2022-02-12_10h15.31.984,lexical_decision_task_DD_L5,2021.2.3,Win32,59.87665409,,,,,,,,,,,0.8452,1,,,,,,,,,,,,,,,,,,,,,,,,-0.035238095,-0.241904762,0,0,0,,,,,,,URINE,LB,z,y,./images/URINELB.png,,,,,,,,,,,,,,,,,,,,,z,1,0.8452,,,,,,,,0,72,72,154,1
,,,,,,,,,,,,,,,,,5f1b6a9ec094bd360e71cee1,20,2022-02-12_10h15.31.984,lexical_decision_task_DD_L5,2021.2.3,Win32,59.87665409,,,,,,,,,,,0.7808,1,,,,,,,,,,,,,,,,,,,,,,,,-0.035238095,-0.241904762,0,0,0,,,,,,,CRATER,HB,m,y,./images/CRATERHB.png,,,,,,,,,,,,,,,,,,,,,m,1,0.7808,,,,,,,,0,73,73,3,1
,,,,,,,,,,,,,,,,,5f1b6a9ec094bd360e71cee1,20,2022-02-12_10h15.31.984,lexical_decision_task_DD_L5,2021.2.3,Win32,59.87665409,,,,,,,,,,,0.9142,1,,,,,,,,,,,,,,,,,,,,,,,,-0.035238095,-0.241904762,0,0,0,,,,,,,THROAT,HB,z,y,./images/THROATHB.png,,,,,,,,,,,,,,,,,,,,,z,1,0.9142,,,,,,,,0,74,74,120,1
,,,,,,,,,,,,,,,,,5f1b6a9ec094bd360e71cee1,20,2022-02-12_10h15.31.984,lexical_decision_task_DD_L5,2021.2.3,Win32,59.87665409,,,,,,,,,,,1.0269,1,,,,,,,,,,,,,,,,,,,,,,,,-0.035238095,-0.241904762,0,0,0,,,,,,,CRUMB,C,z,y,./images/CRUMB.png,,,,,,,,,,,,,,,,,,,,,z,1,1.0269,,,,,,,,0,75,75,113,1
,,,,,,,,,,,,,,,,,5f1b6a9ec094bd360e71cee1,20,2022-02-12_10h15.31.984,lexical_decision_task_DD_L5,2021.2.3,Win32,59.87665409,,,,,,,,,,,0.9663,1,,,,,,,,,,,,,,,,,,,,,,,,-0.035238095,-0.241904762,0,0,0,,,,,,,BOILER,HB,m,y,./images/BOILERHB.png,,,,,,,,,,,,,,,,,,,,,m,1,0.9663,,,,,,,,0,76,76,36,1
,,,,,,,,,,,,,,,,,5f1b6a9ec094bd360e71cee1,20,2022-02-12_10h15.31.984,lexical_decision_task_DD_L5,2021.2.3,Win32,59.87665409,,,,,,,,,,,0.8098,1,,,,,,,,,,,,,,,,,,,,,,,,-0.035238095,-0.241904762,0,0,0,,,,,,,SHIELD,HB,m,y,./images/SHIELDHB.png,,,,,,,,,,,,,,,,,,,,,m,1,0.8098,,,,,,,,0,77,77,48,1
,,,,,,,,,,,,,,,,,5f1b6a9ec094bd360e71cee1,20,2022-02-12_10h15.31.984,lexical_decision_task_DD_L5,2021.2.3,Win32,59.87665409,,,,,,,,,,,0.8335,1,,,,,,,,,,,,,,,,,,,,,,,,-0.035238095,-0.241904762,0,0,0,,,,,,,BUTTER,HB,m,y,./images/BUTTERHB.png,,,,,,,,,,,,,,,,,,,,,m,1,0.8335,,,,,,,,0,78,78,27,1
,,,,,,,,,,,,,,,,,5f1b6a9ec094bd360e71cee1,20,2022-02-12_10h15.31.984,lexical_decision_task_DD_L5,2021.2.3,Win32,59.87665409,,,,,,,,,,,0.8366,1,,,,,,,,,,,,,,,,,,,,,,,,-0.035238095,-0.241904762,0,0,0,,,,,,,ARTIST,LB,m,y,./images/ARTISTLB.png,,,,,,,,,,,,,,,,,,,,,m,1,0.8366,,,,,,,,0,79,79,61,1
,,,,,,,,,,,,,,,,,5f1b6a9ec094bd360e71cee1,20,2022-02-12_10h15.31.984,lexical_decision_task_DD_L5,2021.2.3,Win32,59.87665409,,,,,,,,,,,0.9144,1,,,,,,,,,,,,,,,,,,,,,,,,-0.035238095,-0.241904762,0,0,0,,,,,,,BANNER,LB,z,y,./images/BANNERLB.png,,,,,,,,,,,,,,,,,,,,,z,1,0.9144,,,,,,,,0,80,80,136,1
,,,,,,,,,,,,,,,,,5f1b6a9ec094bd360e71cee1,20,2022-02-12_10h15.31.984,lexical_decision_task_DD_L5,2021.2.3,Win32,59.87665409,,,,,,,,,,,0.984,0,,,,,,,,,,,,,,,,,,,,,,,,-0.035238095,-0.241904762,0,0,0,,,,,,,RULER,LB,m,y,./images/RULERLB.png,,,,,,,,,,,,,,,,,,,,,z,0,0.984,,,,,,,,0,81,81,79,1
,,,,,,,,,,,,,,,,,5f1b6a9ec094bd360e71cee1,20,2022-02-12_10h15.31.984,lexical_decision_task_DD_L5,2021.2.3,Win32,59.87665409,,,,,,,,,,,0.7066,1,,,,,,,,,,,,,,,,,,,,,,,,-0.035238095,-0.241904762,0,0,0,,,,,,,ENGINE,C,m,y,./images/ENGINE.png,,,,,,,,,,,,,,,,,,,,,m,1,0.7066,,,,,,,,0,82,82,38,1
,,,,,,,,,,,,,,,,,5f1b6a9ec094bd360e71cee1,20,2022-02-12_10h15.31.984,lexical_decision_task_DD_L5,2021.2.3,Win32,59.87665409,,,,,,,,,,,0.7459,1,,,,,,,,,,,,,,,,,,,,,,,,-0.035238095,-0.241904762,0,0,0,space,,,,,,FENCE,C,m,y,./images/FENCE.png,9.5427,,,,,,,,,,,,,,,,,,,,m,1,0.7459,,,,,,,,0,83,83,14,1
,,,,,,,,,,,,,,,,,5f1b6a9ec094bd360e71cee1,20,2022-02-12_10h15.31.984,lexical_decision_task_DD_L5,2021.2.3,Win32,59.87665409,,,,,,,,,,,0.7846,1,,,,,,,,,,,,,,,,,,,,,,,,-0.035238095,-0.241904762,0,0,0,,,,,,,CURRY,HB,m,y,./images/CURRYHB.png,,,,,,,,,,,,,,,,,,,,,m,1,0.7846,,,,,,,,0,84,84,60,1
,,,,,,,,,,,,,,,,,5f1b6a9ec094bd360e71cee1,20,2022-02-12_10h15.31.984,lexical_decision_task_DD_L5,2021.2.3,Win32,59.87665409,,,,,,,,,,,0.6852,1,,,,,,,,,,,,,,,,,,,,,,,,-0.035238095,-0.241904762,0,0,0,,,,,,,TIGER,LB,m,y,./images/TIGERLB.png,,,,,,,,,,,,,,,,,,,,,m,1,0.6852,,,,,,,,0,85,85,37,1
,,,,,,,,,,,,,,,,,5f1b6a9ec094bd360e71cee1,20,2022-02-12_10h15.31.984,lexical_decision_task_DD_L5,2021.2.3,Win32,59.87665409,,,,,,,,,,,0.9019,1,,,,,,,,,,,,,,,,,,,,,,,,-0.035238095,-0.241904762,0,0,0,,,,,,,GRAPE,LB,m,y,./images/GRAPELB.png,,,,,,,,,,,,,,,,,,,,,m,1,0.9019,,,,,,,,0,86,86,16,1
,,,,,,,,,,,,,,,,,5f1b6a9ec094bd360e71cee1,20,2022-02-12_10h15.31.984,lexical_decision_task_DD_L5,2021.2.3,Win32,59.87665409,,,,,,,,,,,0.7594,1,,,,,,,,,,,,,,,,,,,,,,,,-0.035238095,-0.241904762,0,0,0,,,,,,,SQUARE,HB,z,y,./images/SQUAREHB.png,,,,,,,,,,,,,,,,,,,,,z,1,0.7594,,,,,,,,0,87,87,90,1
,,,,,,,,,,,,,,,,,5f1b6a9ec094bd360e71cee1,20,2022-02-12_10h15.31.984,lexical_decision_task_DD_L5,2021.2.3,Win32,59.87665409,,,,,,,,,,,1.0308,1,,,,,,,,,,,,,,,,,,,,,,,,-0.035238095,-0.241904762,0,0,0,,,,,,,POSTER,C,m,y,./images/POSTER.png,,,,,,,,,,,,,,,,,,,,,m,1,1.0308,,,,,,,,0,88,88,53,1
,,,,,,,,,,,,,,,,,5f1b6a9ec094bd360e71cee1,20,2022-02-12_10h15.31.984,lexical_decision_task_DD_L5,2021.2.3,Win32,59.87665409,,,,,,,,,,,1.0444,1,,,,,,,,,,,,,,,,,,,,,,,,-0.035238095,-0.241904762,0,0,0,,,,,,,NOOSE,HB,z,y,./images/NOOSEHB.png,,,,,,,,,,,,,,,,,,,,,z,1,1.0444,,,,,,,,0,89,89,156,1
,,,,,,,,,,,,,,,,,5f1b6a9ec094bd360e71cee1,20,2022-02-12_10h15.31.984,lexical_decision_task_DD_L5,2021.2.3,Win32,59.87665409,,,,,,,,,,,0.8676,0,,,,,,,,,,,,,,,,,,,,,,,,-0.035238095,-0.241904762,0,0,0,,,,,,,FOLDER,HB,z,y,./images/FOLDERHB.png,,,,,,,,,,,,,,,,,,,,,m,0,0.8676,,,,,,,,0,90,90,126,1
,,,,,,,,,,,,,,,,,5f1b6a9ec094bd360e71cee1,20,2022-02-12_10h15.31.984,lexical_decision_task_DD_L5,2021.2.3,Win32,59.87665409,,,,,,,,,,,0.6288,1,,,,,,,,,,,,,,,,,,,,,,,,-0.035238095,-0.241904762,0,0,0,,,,,,,WHISKY,C,m,y,./images/WHISKY.png,,,,,,,,,,,,,,,,,,,,,m,1,0.6288,,,,,,,,0,91,91,83,1
,,,,,,,,,,,,,,,,,5f1b6a9ec094bd360e71cee1,20,2022-02-12_10h15.31.984,lexical_decision_task_DD_L5,2021.2.3,Win32,59.87665409,,,,,,,,,,,0.6663,1,,,,,,,,,,,,,,,,,,,,,,,,-0.035238095,-0.241904762,0,0,0,,,,,,,PURSE,C,z,y,./images/PURSE.png,,,,,,,,,,,,,,,,,,,,,z,1,0.6663,,,,,,,,0,92,92,146,1
,,,,,,,,,,,,,,,,,5f1b6a9ec094bd360e71cee1,20,2022-02-12_10h15.31.984,lexical_decision_task_DD_L5,2021.2.3,Win32,59.87665409,,,,,,,,,,,0.8165,0,,,,,,,,,,,,,,,,,,,,,,,,-0.035238095,-0.241904762,0,0,0,,,,,,,KIDNEY,HB,z,y,./images/KIDNEYHB.png,,,,,,,,,,,,,,,,,,,,,m,0,0.8165,,,,,,,,0,93,93,105,1
,,,,,,,,,,,,,,,,,5f1b6a9ec094bd360e71cee1,20,2022-02-12_10h15.31.984,lexical_decision_task_DD_L5,2021.2.3,Win32,59.87665409,,,,,,,,,,,0.8501,1,,,,,,,,,,,,,,,,,,,,,,,,-0.035238095,-0.241904762,0,0,0,,,,,,,BERRY,C,z,y,./images/BERRY.png,,,,,,,,,,,,,,,,,,,,,z,1,0.8501,,,,,,,,0,94,94,131,1
,,,,,,,,,,,,,,,,,5f1b6a9ec094bd360e71cee1,20,2022-02-12_10h15.31.984,lexical_decision_task_DD_L5,2021.2.3,Win32,59.87665409,,,,,,,,,,,0.9288,1,,,,,,,,,,,,,,,,,,,,,,,,-0.035238095,-0.241904762,0,0,0,,,,,,,TWINS,HB,z,y,./images/TWINSHB.png,,,,,,,,,,,,,,,,,,,,,z,1,0.9288,,,,,,,,0,95,95,144,1
,,,,,,,,,,,,,,,,,5f1b6a9ec094bd360e71cee1,20,2022-02-12_10h15.31.984,lexical_decision_task_DD_L5,2021.2.3,Win32,59.87665409,,,,,,,,,,,0.868,0,,,,,,,,,,,,,,,,,,,,,,,,-0.035238095,-0.241904762,0,0,0,,,,,,,CRADLE,C,z,y,./images/CRADLE.png,,,,,,,,,,,,,,,,,,,,,m,0,0.868,,,,,,,,0,96,96,104,1
,,,,,,,,,,,,,,,,,5f1b6a9ec094bd360e71cee1,20,2022-02-12_10h15.31.984,lexical_decision_task_DD_L5,2021.2.3,Win32,59.87665409,,,,,,,,,,,0.7871,1,,,,,,,,,,,,,,,,,,,,,,,,-0.035238095,-0.241904762,0,0,0,,,,,,,HAMMER,HB,m,y,./images/HAMMERHB.png,,,,,,,,,,,,,,,,,,,,,m,1,0.7871,,,,,,,,0,97,97,75,1
,,,,,,,,,,,,,,,,,5f1b6a9ec094bd360e71cee1,20,2022-02-12_10h15.31.984,lexical_decision_task_DD_L5,2021.2.3,Win32,59.87665409,,,,,,,,,,,1.1405,0,,,,,,,,,,,,,,,,,,,,,,,,-0.035238095,-0.241904762,0,0,0,,,,,,,PICKLE,C,z,y,./images/PICKLE.png,,,,,,,,,,,,,,,,,,,,,m,0,1.1405,,,,,,,,0,98,98,98,1
,,,,,,,,,,,,,,,,,5f1b6a9ec094bd360e71cee1,20,2022-02-12_10h15.31.984,lexical_decision_task_DD_L5,2021.2.3,Win32,59.87665409,,,,,,,,,,,0.9241,1,,,,,,,,,,,,,,,,,,,,,,,,-0.035238095,-0.241904762,0,0,0,,,,,,,GRANNY,C,m,y,./images/GRANNY.png,,,,,,,,,,,,,,,,,,,,,m,1,0.9241,,,,,,,,0,99,99,20,1
,,,,,,,,,,,,,,,,,5f1b6a9ec094bd360e71cee1,20,2022-02-12_10h15.31.984,lexical_decision_task_DD_L5,2021.2.3,Win32,59.87665409,,,,,,,,,,,1.0682,1,,,,,,,,,,,,,,,,,,,,,,,,-0.035238095,-0.241904762,0,0,0,,,,,,,STREAM,C,m,y,./images/STREAM.png,,,,,,,,,,,,,,,,,,,,,m,1,1.0682,,,,,,,,0,100,100,41,1
,,,,,,,,,,,,,,,,,5f1b6a9ec094bd360e71cee1,20,2022-02-12_10h15.31.984,lexical_decision_task_DD_L5,2021.2.3,Win32,59.87665409,,,,,,,,,,,0.8336,1,,,,,,,,,,,,,,,,,,,,,,,,-0.035238095,-0.241904762,0,0,0,,,,,,,INFANT,LB,z,y,./images/INFANTLB.png,,,,,,,,,,,,,,,,,,,,,z,1,0.8336,,,,,,,,0,101,101,160,1
,,,,,,,,,,,,,,,,,5f1b6a9ec094bd360e71cee1,20,2022-02-12_10h15.31.984,lexical_decision_task_DD_L5,2021.2.3,Win32,59.87665409,,,,,,,,,,,0.9047,1,,,,,,,,,,,,,,,,,,,,,,,,-0.035238095,-0.241904762,0,0,0,,,,,,,BISHOP,LB,m,y,./images/BISHOPLB.png,,,,,,,,,,,,,,,,,,,,,m,1,0.9047,,,,,,,,0,102,102,49,1
,,,,,,,,,,,,,,,,,5f1b6a9ec094bd360e71cee1,20,2022-02-12_10h15.31.984,lexical_decision_task_DD_L5,2021.2.3,Win32,59.87665409,,,,,,,,,,,0.9619,1,,,,,,,,,,,,,,,,,,,,,,,,-0.035238095,-0.241904762,0,0,0,,,,,,,GRAIN,HB,z,y,./images/GRAINHB.png,,,,,,,,,,,,,,,,,,,,,z,1,0.9619,,,,,,,,0,103,103,159,1
,,,,,,,,,,,,,,,,,5f1b6a9ec094bd360e71cee1,20,2022-02-12_10h15.31.984,lexical_decision_task_DD_L5,2021.2.3,Win32,59.87665409,,,,,,,,,,,0.9135,1,,,,,,,,,,,,,,,,,,,,,,,,-0.035238095,-0.241904762,0,0,0,,,,,,,BOXER,LB,m,y,./images/BOXERLB.png,,,,,,,,,,,,,,,,,,,,,m,1,0.9135,,,,,,,,0,104,104,4,1
,,,,,,,,,,,,,,,,,5f1b6a9ec094bd360e71cee1,20,2022-02-12_10h15.31.984,lexical_decision_task_DD_L5,2021.2.3,Win32,59.87665409,,,,,,,,,,,0.8959,1,,,,,,,,,,,,,,,,,,,,,,,,-0.035238095,-0.241904762,0,0,0,,,,,,,WAGON,LB,m,y,./images/WAGONLB.png,,,,,,,,,,,,,,,,,,,,,m,1,0.8959,,,,,,,,0,105,105,7,1
,,,,,,,,,,,,,,,,,5f1b6a9ec094bd360e71cee1,20,2022-02-12_10h15.31.984,lexical_decision_task_DD_L5,2021.2.3,Win32,59.87665409,,,,,,,,,,,0.915,0,,,,,,,,,,,,,,,,,,,,,,,,-0.035238095,-0.241904762,0,0,0,,,,,,,WHEEL,C,m,y,./images/WHEEL.png,,,,,,,,,,,,,,,,,,,,,z,0,0.915,,,,,,,,0,106,106,77,1
,,,,,,,,,,,,,,,,,5f1b6a9ec094bd360e71cee1,20,2022-02-12_10h15.31.984,lexical_decision_task_DD_L5,2021.2.3,Win32,59.87665409,,,,,,,,,,,0.8846,0,,,,,,,,,,,,,,,,,,,,,,,,-0.035238095,-0.241904762,0,0,0,,,,,,,BAMBOO,C,m,y,./images/BAMBOO.png,,,,,,,,,,,,,,,,,,,,,z,0,0.8846,,,,,,,,0,107,107,5,1
,,,,,,,,,,,,,,,,,5f1b6a9ec094bd360e71cee1,20,2022-02-12_10h15.31.984,lexical_decision_task_DD_L5,2021.2.3,Win32,59.87665409,,,,,,,,,,,0.9111,0,,,,,,,,,,,,,,,,,,,,,,,,-0.035238095,-0.241904762,0,0,0,,,,,,,BLOKE,HB,m,y,./images/BLOKEHB.png,,,,,,,,,,,,,,,,,,,,,z,0,0.9111,,,,,,,,0,108,108,12,1
,,,,,,,,,,,,,,,,,5f1b6a9ec094bd360e71cee1,20,2022-02-12_10h15.31.984,lexical_decision_task_DD_L5,2021.2.3,Win32,59.87665409,,,,,,,,,,,0.9002,1,,,,,,,,,,,,,,,,,,,,,,,,-0.035238095,-0.241904762,0,0,0,,,,,,,SAUNA,HB,m,y,./images/SAUNAHB.png,,,,,,,,,,,,,,,,,,,,,m,1,0.9002,,,,,,,,0,109,109,33,1
,,,,,,,,,,,,,,,,,5f1b6a9ec094bd360e71cee1,20,2022-02-12_10h15.31.984,lexical_decision_task_DD_L5,2021.2.3,Win32,59.87665409,,,,,,,,,,,0.7872,1,,,,,,,,,,,,,,,,,,,,,,,,-0.035238095,-0.241904762,0,0,0,,,,,,,LLAMA,C,m,y,./images/LLAMA.png,,,,,,,,,,,,,,,,,,,,,m,1,0.7872,,,,,,,,0,110,110,35,1
,,,,,,,,,,,,,,,,,5f1b6a9ec094bd360e71cee1,20,2022-02-12_10h15.31.984,lexical_decision_task_DD_L5,2021.2.3,Win32,59.87665409,,,,,,,,,,,0.8686,0,,,,,,,,,,,,,,,,,,,,,,,,-0.035238095,-0.241904762,0,0,0,,,,,,,SPINE,C,m,y,./images/SPINE.png,,,,,,,,,,,,,,,,,,,,,z,0,0.8686,,,,,,,,0,111,111,65,1
,,,,,,,,,,,,,,,,,5f1b6a9ec094bd360e71cee1,20,2022-02-12_10h15.31.984,lexical_decision_task_DD_L5,2021.2.3,Win32,59.87665409,,,,,,,,,,,1.0435,1,,,,,,,,,,,,,,,,,,,,,,,,-0.035238095,-0.241904762,0,0,0,,,,,,,CANOE,LB,m,y,./images/CANOELB.png,,,,,,,,,,,,,,,,,,,,,m,1,1.0435,,,,,,,,0,112,112,58,1
,,,,,,,,,,,,,,,,,5f1b6a9ec094bd360e71cee1,20,2022-02-12_10h15.31.984,lexical_decision_task_DD_L5,2021.2.3,Win32,59.87665409,,,,,,,,,,,0.7236,1,,,,,,,,,,,,,,,,,,,,,,,,-0.035238095,-0.241904762,0,0,0,,,,,,,LITTER,HB,z,y,./images/LITTERHB.png,,,,,,,,,,,,,,,,,,,,,z,1,0.7236,,,,,,,,0,113,113,162,1
,,,,,,,,,,,,,,,,,5f1b6a9ec094bd360e71cee1,20,2022-02-12_10h15.31.984,lexical_decision_task_DD_L5,2021.2.3,Win32,59.87665409,,,,,,,,,,,0.8981,1,,,,,,,,,,,,,,,,,,,,,,,,-0.035238095,-0.241904762,0,0,0,,,,,,,CASINO,LB,m,y,./images/CASINOLB.png,,,,,,,,,,,,,,,,,,,,,m,1,0.8981,,,,,,,,0,114,114,28,1
,,,,,,,,,,,,,,,,,5f1b6a9ec094bd360e71cee1,20,2022-02-12_10h15.31.984,lexical_decision_task_DD_L5,2021.2.3,Win32,59.87665409,,,,,,,,,,,0.7769,0,,,,,,,,,,,,,,,,,,,,,,,,-0.035238095,-0.241904762,0,0,0,,,,,,,STOVE,C,m,y,./images/STOVE.png,,,,,,,,,,,,,,,,,,,,,z,0,0.7769,,,,,,,,0,115,115,2,1
,,,,,,,,,,,,,,,,,5f1b6a9ec094bd360e71cee1,20,2022-02-12_10h15.31.984,lexical_decision_task_DD_L5,2021.2.3,Win32,59.87665409,,,,,,,,,,,0.9073,0,,,,,,,,,,,,,,,,,,,,,,,,-0.035238095,-0.241904762,0,0,0,,,,,,,CANDLE,LB,z,y,./images/CANDLELB.png,,,,,,,,,,,,,,,,,,,,,m,0,0.9073,,,,,,,,0,116,116,145,1
,,,,,,,,,,,,,,,,,5f1b6a9ec094bd360e71cee1,20,2022-02-12_10h15.31.984,lexical_decision_task_DD_L5,2021.2.3,Win32,59.87665409,,,,,,,,,,,1.0398,0,,,,,,,,,,,,,,,,,,,,,,,,-0.035238095,-0.241904762,0,0,0,,,,,,,SNAKE,LB,m,y,./images/SNAKELB.png,,,,,,,,,,,,,,,,,,,,,z,0,1.0398,,,,,,,,0,117,117,40,1
,,,,,,,,,,,,,,,,,5f1b6a9ec094bd360e71cee1,20,2022-02-12_10h15.31.984,lexical_decision_task_DD_L5,2021.2.3,Win32,59.87665409,,,,,,,,,,,1.0862,1,,,,,,,,,,,,,,,,,,,,,,,,-0.035238095,-0.241904762,0,0,0,,,,,,,PARADE,C,m,y,./images/PARADE.png,,,,,,,,,,,,,,,,,,,,,m,1,1.0862,,,,,,,,0,118,118,17,1
,,,,,,,,,,,,,,,,,5f1b6a9ec094bd360e71cee1,20,2022-02-12_10h15.31.984,lexical_decision_task_DD_L5,2021.2.3,Win32,59.87665409,,,,,,,,,,,0.8705,0,,,,,,,,,,,,,,,,,,,,,,,,-0.035238095,-0.241904762,0,0,0,,,,,,,DONKEY,LB,m,y,./images/DONKEYLB.png,,,,,,,,,,,,,,,,,,,,,z,0,0.8705,,,,,,,,0,119,119,19,1
,,,,,,,,,,,,,,,,,5f1b6a9ec094bd360e71cee1,20,2022-02-12_10h15.31.984,lexical_decision_task_DD_L5,2021.2.3,Win32,59.87665409,,,,,,,,,,,0.7927,1,,,,,,,,,,,,,,,,,,,,,,,,-0.035238095,-0.241904762,0,0,0,,,,,,,MOOSE,HB,z,y,./images/MOOSEHB.png,,,,,,,,,,,,,,,,,,,,,z,1,0.7927,,,,,,,,0,120,120,141,1
,,,,,,,,,,,,,,,,,5f1b6a9ec094bd360e71cee1,20,2022-02-12_10h15.31.984,lexical_decision_task_DD_L5,2021.2.3,Win32,59.87665409,,,,,,,,,,,0.9935,0,,,,,,,,,,,,,,,,,,,,,,,,-0.035238095,-0.241904762,0,0,0,,,,,,,CHALK,LB,m,y,./images/CHALKLB.png,,,,,,,,,,,,,,,,,,,,,z,0,0.9935,,,,,,,,0,121,121,25,1
,,,,,,,,,,,,,,,,,5f1b6a9ec094bd360e71cee1,20,2022-02-12_10h15.31.984,lexical_decision_task_DD_L5,2021.2.3,Win32,59.87665409,,,,,,,,,,,1.0564,1,,,,,,,,,,,,,,,,,,,,,,,,-0.035238095,-0.241904762,0,0,0,,,,,,,STATUE,HB,m,y,./images/STATUEHB.png,,,,,,,,,,,,,,,,,,,,,m,1,1.0564,,,,,,,,0,122,122,66,1
,,,,,,,,,,,,,,,,,5f1b6a9ec094bd360e71cee1,20,2022-02-12_10h15.31.984,lexical_decision_task_DD_L5,2021.2.3,Win32,59.87665409,,,,,,,,,,,1.6472,1,,,,,,,,,,,,,,,,,,,,,,,,-0.035238095,-0.241904762,0,0,0,,,,,,,CHAIN,HB,m,y,./images/CHAINHB.png,,,,,,,,,,,,,,,,,,,,,m,1,1.6472,,,,,,,,0,123,123,42,1
,,,,,,,,,,,,,,,,,5f1b6a9ec094bd360e71cee1,20,2022-02-12_10h15.31.984,lexical_decision_task_DD_L5,2021.2.3,Win32,59.87665409,,,,,,,,,,,0.8469,1,,,,,,,,,,,,,,,,,,,,,,,,-0.035238095,-0.241904762,0,0,0,,,,,,,BUNNY,LB,m,y,./images/BUNNYLB.png,,,,,,,,,,,,,,,,,,,,,m,1,0.8469,,,,,,,,0,124,124,13,1
,,,,,,,,,,,,,,,,,5f1b6a9ec094bd360e71cee1,20,2022-02-12_10h15.31.984,lexical_decision_task_DD_L5,2021.2.3,Win32,59.87665409,,,,,,,,,,,1.0516,1,,,,,,,,,,,,,,,,,,,,,,,,-0.035238095,-0.241904762,0,0,0,space,,,,,,JUMPER,C,m,y,./images/JUMPER.png,5.9486,,,,,,,,,,,,,,,,,,,,m,1,1.0516,,,,,,,,0,125,125,74,1
,,,,,,,,,,,,,,,,,5f1b6a9ec094bd360e71cee1,20,2022-02-12_10h15.31.984,lexical_decision_task_DD_L5,2021.2.3,Win32,59.87665409,,,,,,,,,,,0.8684,1,,,,,,,,,,,,,,,,,,,,,,,,-0.035238095,-0.241904762,0,0,0,,,,,,,JUNGLE,C,z,y,./images/JUNGLE.png,,,,,,,,,,,,,,,,,,,,,z,1,0.8684,,,,,,,,0,126,126,167,1
,,,,,,,,,,,,,,,,,5f1b6a9ec094bd360e71cee1,20,2022-02-12_10h15.31.984,lexical_decision_task_DD_L5,2021.2.3,Win32,59.87665409,,,,,,,,,,,1.3708,0,,,,,,,,,,,,,,,,,,,,,,,,-0.035238095,-0.241904762,0,0,0,,,,,,,BRUSH,C,m,y,./images/BRUSH.png,,,,,,,,,,,,,,,,,,,,,z,0,1.3708,,,,,,,,0,127,127,59,1
,,,,,,,,,,,,,,,,,5f1b6a9ec094bd360e71cee1,20,2022-02-12_10h15.31.984,lexical_decision_task_DD_L5,2021.2.3,Win32,59.87665409,,,,,,,,,,,0.851,0,,,,,,,,,,,,,,,,,,,,,,,,-0.035238095,-0.241904762,0,0,0,,,,,,,COLLAR,HB,m,y,./images/COLLARHB.png,,,,,,,,,,,,,,,,,,,,,z,0,0.851,,,,,,,,0,128,128,15,1
,,,,,,,,,,,,,,,,,5f1b6a9ec094bd360e71cee1,20,2022-02-12_10h15.31.984,lexical_decision_task_DD_L5,2021.2.3,Win32,59.87665409,,,,,,,,,,,1.1035,1,,,,,,,,,,,,,,,,,,,,,,,,-0.035238095,-0.241904762,0,0,0,,,,,,,MAGGOT,HB,z,y,./images/MAGGOTHB.png,,,,,,,,,,,,,,,,,,,,,z,1,1.1035,,,,,,,,0,129,129,117,1
,,,,,,,,,,,,,,,,,5f1b6a9ec094bd360e71cee1,20,2022-02-12_10h15.31.984,lexical_decision_task_DD_L5,2021.2.3,Win32,59.87665409,,,,,,,,,,,0.9359,0,,,,,,,,,,,,,,,,,,,,,,,,-0.035238095,-0.241904762,0,0,0,,,,,,,BARREL,C,z,y,./images/BARREL.png,,,,,,,,,,,,,,,,,,,,,m,0,0.9359,,,,,,,,0,130,130,116,1
