key_resp.keys,instr_done_touch.x,instr_done_touch.y,instr_done_touch.leftButton,instr_done_touch.midButton,instr_done_touch.rightButton,instr_done_touch.clicked_name,instruction_pages.thisRepN,instruction_pages.thisTrialN,instruction_pages.thisN,instruction_pages.thisIndex,instruction_pages.ran,pageN,phase,instruct_text,has_image,instruct_image,participant,age,date,expName,psychopyVersion,OS,frameRate,key_resp.rt,response.keys,response.corr,response.rt,touch_resp.x,touch_resp.y,touch_resp.leftButton,touch_resp.midButton,touch_resp.rightButton,touch_resp.time,touch_resp.clicked_name,rt,corr,practrials.thisRepN,practrials.thisTrialN,practrials.thisN,practrials.thisIndex,practrials.ran,TrialID,Target,corrAns,end_of_practice_trials_pages.thisRepN,end_of_practice_trials_pages.thisTrialN,end_of_practice_trials_pages.thisN,end_of_practice_trials_pages.thisIndex,end_of_practice_trials_pages.ran,key_resp_2.keys,key_resp_2.corr,key_resp_2.rt,targ_click.x,targ_click.y,targ_click.leftButton,targ_click.midButton,targ_click.rightButton,targ_click.time,targ_click.clicked_name,break_done_touch.x,break_done_touch.y,break_done_touch.leftButton,break_done_touch.midButton,break_done_touch.rightButton,break_done_keyboard.keys,maintrials.thisRepN,maintrials.thisTrialN,maintrials.thisN,maintrials.thisIndex,maintrials.ran,string,blur,study,lex,stim_path,break_done_keyboard.rt,mouse_2.x,mouse_2.y,mouse_2.leftButton,mouse_2.midButton,mouse_2.rightButton,mouse_2.clicked_name,slider.response,slider.rt,trials.thisRepN,trials.thisTrialN,trials.thisN,trials.thisIndex,trials.ran,test_instructions.thisRepN,test_instructions.thisTrialN,test_instructions.thisN,test_instructions.thisIndex,test_instructions.ran,key_resp_3.keys,key_resp_3.corr,key_resp_3.rt,test_click.x,test_click.y,test_click.leftButton,test_click.midButton,test_click.rightButton,test_click.time,test_click.clicked_name,test_phase.thisRepN,test_phase.thisTrialN,test_phase.thisN,test_phase.thisIndex,test_phase.ran
,-0.029299575,-0.380960887,1,0,0,instr_done_button,0,0,0,0,1,1,instructions,"INSTRUCTIONS
At the start of each trial, look at the plus sign  (+) in the center of the screen.  This tells you that a trial is about to begin and where to look. Second, the plus sign will disappear and a string of letters will appear. Your task is to determine if the string of letters is a word or not. If the item is a word press the M key (on keyboard)  or touch the word button (phone/tablet).  If the item is not a word,  press the  Z key (on keyboard)  or touch the nonword button (on phone/tablet). 
Press the space bar or touch  continue.",0,,5f2ac55b23cc6d38be906090,58,2022-02-12_13h37.14.524,lexical_decision_task_DD_L5,2021.2.3,Linux x86_64,60.03121623,,,,,,,,,,,,,,,,,,,,,,,,,,,,,,,,,,,,,,,,,,,,,,,,,,,,,,,,,,,,,,,,,,,,,,,,,,,,,,,,,,,,,,
space,-0.029299575,-0.380960887,0,0,0,,0,1,1,1,1,2,instructions,"If your device has a keyboard, press the 'Z' key for nonwords and the 'M' key for words.





Press the space bar or touch the button below to continue.",0,keyboard-example.gif,5f2ac55b23cc6d38be906090,58,2022-02-12_13h37.14.524,lexical_decision_task_DD_L5,2021.2.3,Linux x86_64,60.03121623,12.2529,,,,,,,,,,,,,,,,,,,,,,,,,,,,,,,,,,,,,,,,,,,,,,,,,,,,,,,,,,,,,,,,,,,,,,,,,,,,,,,,,,,,,
space,-0.028322221,-0.380009474,0,0,0,,0,2,2,2,1,3,instructions,"If you are using a touchscreen only device, use the buttons on the screen. Do not use the mouse.





Press the space bar or touch the button below to continue.",0,touchscreen-example.gif,5f2ac55b23cc6d38be906090,58,2022-02-12_13h37.14.524,lexical_decision_task_DD_L5,2021.2.3,Linux x86_64,60.03121623,7.7291,,,,,,,,,,,,,,,,,,,,,,,,,,,,,,,,,,,,,,,,,,,,,,,,,,,,,,,,,,,,,,,,,,,,,,,,,,,,,,,,,,,,,
space,-0.028322221,-0.380009474,0,0,0,,0,3,3,3,1,4,instructions,"It is very important that you respond as quickly and accurately as possible, as each letter string will only be on the screen for two seconds. If you do not respond within this time, the message 'Too slow!' will be displayed and the experiment will progress to the next letter string. The first 20 trials will be practice trials and you will receive feedback on your answers. 

Press the space bar or touch the button below to start the practice trials.",0,,5f2ac55b23cc6d38be906090,58,2022-02-12_13h37.14.524,lexical_decision_task_DD_L5,2021.2.3,Linux x86_64,60.03121623,11.3721,,,,,,,,,,,,,,,,,,,,,,,,,,,,,,,,,,,,,,,,,,,,,,,,,,,,,,,,,,,,,,,,,,,,,,,,,,,,,,,,,,,,,
,,,,,,,,,,,,,,,,,5f2ac55b23cc6d38be906090,58,2022-02-12_13h37.14.524,lexical_decision_task_DD_L5,2021.2.3,Linux x86_64,60.03121623,,m,1,2.0855,,,,,,,,2.0855,1,0,0,0,3,1,1001,MATRIX,m,,,,,,,,,,,,,,,,,,,,,,,,,,,,,,,,,,,,,,,,,,,,,,,,,,,,,,,,,,,,,,,,,
,,,,,,,,,,,,,,,,,5f2ac55b23cc6d38be906090,58,2022-02-12_13h37.14.524,lexical_decision_task_DD_L5,2021.2.3,Linux x86_64,60.03121623,,z,1,1.1797,,,,,,,,1.1797,1,0,1,1,15,1,1001,WHAISE,z,,,,,,,,,,,,,,,,,,,,,,,,,,,,,,,,,,,,,,,,,,,,,,,,,,,,,,,,,,,,,,,,,
,,,,,,,,,,,,,,,,,5f2ac55b23cc6d38be906090,58,2022-02-12_13h37.14.524,lexical_decision_task_DD_L5,2021.2.3,Linux x86_64,60.03121623,,m,1,0.9336,,,,,,,,0.9336,1,0,2,2,0,1,1001,UTOPIA,m,,,,,,,,,,,,,,,,,,,,,,,,,,,,,,,,,,,,,,,,,,,,,,,,,,,,,,,,,,,,,,,,,
,,,,,,,,,,,,,,,,,5f2ac55b23cc6d38be906090,58,2022-02-12_13h37.14.524,lexical_decision_task_DD_L5,2021.2.3,Linux x86_64,60.03121623,,m,1,0.7098,,,,,,,,0.7098,1,0,3,3,1,1,1001,ADJUST,m,,,,,,,,,,,,,,,,,,,,,,,,,,,,,,,,,,,,,,,,,,,,,,,,,,,,,,,,,,,,,,,,,
,,,,,,,,,,,,,,,,,5f2ac55b23cc6d38be906090,58,2022-02-12_13h37.14.524,lexical_decision_task_DD_L5,2021.2.3,Linux x86_64,60.03121623,,z,1,1.6761,,,,,,,,1.6761,1,0,4,4,8,1,1001,ASLERT,z,,,,,,,,,,,,,,,,,,,,,,,,,,,,,,,,,,,,,,,,,,,,,,,,,,,,,,,,,,,,,,,,,
,,,,,,,,,,,,,,,,,5f2ac55b23cc6d38be906090,58,2022-02-12_13h37.14.524,lexical_decision_task_DD_L5,2021.2.3,Linux x86_64,60.03121623,,m,0,1.3664,,,,,,,,1.3664,0,0,5,5,10,1,1001,INLADE,z,,,,,,,,,,,,,,,,,,,,,,,,,,,,,,,,,,,,,,,,,,,,,,,,,,,,,,,,,,,,,,,,,
,,,,,,,,,,,,,,,,,5f2ac55b23cc6d38be906090,58,2022-02-12_13h37.14.524,lexical_decision_task_DD_L5,2021.2.3,Linux x86_64,60.03121623,,m,1,0.7818,,,,,,,,0.7818,1,0,6,6,7,1,1001,VOLUME,m,,,,,,,,,,,,,,,,,,,,,,,,,,,,,,,,,,,,,,,,,,,,,,,,,,,,,,,,,,,,,,,,,
,,,,,,,,,,,,,,,,,5f2ac55b23cc6d38be906090,58,2022-02-12_13h37.14.524,lexical_decision_task_DD_L5,2021.2.3,Linux x86_64,60.03121623,,z,1,1.2694,,,,,,,,1.2694,1,0,7,7,9,1,1001,FARINY,z,,,,,,,,,,,,,,,,,,,,,,,,,,,,,,,,,,,,,,,,,,,,,,,,,,,,,,,,,,,,,,,,,
,,,,,,,,,,,,,,,,,5f2ac55b23cc6d38be906090,58,2022-02-12_13h37.14.524,lexical_decision_task_DD_L5,2021.2.3,Linux x86_64,60.03121623,,m,1,0.7694,,,,,,,,0.7694,1,0,8,8,5,1,1001,OBTAIN,m,,,,,,,,,,,,,,,,,,,,,,,,,,,,,,,,,,,,,,,,,,,,,,,,,,,,,,,,,,,,,,,,,
,,,,,,,,,,,,,,,,,5f2ac55b23cc6d38be906090,58,2022-02-12_13h37.14.524,lexical_decision_task_DD_L5,2021.2.3,Linux x86_64,60.03121623,,z,1,1.0513,,,,,,,,1.0513,1,0,9,9,14,1,1001,THRALE,z,,,,,,,,,,,,,,,,,,,,,,,,,,,,,,,,,,,,,,,,,,,,,,,,,,,,,,,,,,,,,,,,,
,,,,,,,,,,,,,,,,,5f2ac55b23cc6d38be906090,58,2022-02-12_13h37.14.524,lexical_decision_task_DD_L5,2021.2.3,Linux x86_64,60.03121623,,m,1,1.5395,,,,,,,,1.5395,1,0,10,10,4,1,1001,SQUEAK,m,,,,,,,,,,,,,,,,,,,,,,,,,,,,,,,,,,,,,,,,,,,,,,,,,,,,,,,,,,,,,,,,,
,,,,,,,,,,,,,,,,,5f2ac55b23cc6d38be906090,58,2022-02-12_13h37.14.524,lexical_decision_task_DD_L5,2021.2.3,Linux x86_64,60.03121623,,m,1,0.8357,,,,,,,,0.8357,1,0,11,11,6,1,1001,ZOMBIE,m,,,,,,,,,,,,,,,,,,,,,,,,,,,,,,,,,,,,,,,,,,,,,,,,,,,,,,,,,,,,,,,,,
,,,,,,,,,,,,,,,,,5f2ac55b23cc6d38be906090,58,2022-02-12_13h37.14.524,lexical_decision_task_DD_L5,2021.2.3,Linux x86_64,60.03121623,,z,1,0.9981,,,,,,,,0.9981,1,0,12,12,11,1,1001,RASHET,z,,,,,,,,,,,,,,,,,,,,,,,,,,,,,,,,,,,,,,,,,,,,,,,,,,,,,,,,,,,,,,,,,
,,,,,,,,,,,,,,,,,5f2ac55b23cc6d38be906090,58,2022-02-12_13h37.14.524,lexical_decision_task_DD_L5,2021.2.3,Linux x86_64,60.03121623,,m,1,0.831,,,,,,,,0.831,1,0,13,13,2,1,1001,ALMOND,m,,,,,,,,,,,,,,,,,,,,,,,,,,,,,,,,,,,,,,,,,,,,,,,,,,,,,,,,,,,,,,,,,
,,,,,,,,,,,,,,,,,5f2ac55b23cc6d38be906090,58,2022-02-12_13h37.14.524,lexical_decision_task_DD_L5,2021.2.3,Linux x86_64,60.03121623,,m,0,1.0799,,,,,,,,1.0799,0,0,14,14,12,1,1001,SPRINY,z,,,,,,,,,,,,,,,,,,,,,,,,,,,,,,,,,,,,,,,,,,,,,,,,,,,,,,,,,,,,,,,,,
,,,,,,,,,,,,,,,,,5f2ac55b23cc6d38be906090,58,2022-02-12_13h37.14.524,lexical_decision_task_DD_L5,2021.2.3,Linux x86_64,60.03121623,,m,0,1.6269,,,,,,,,1.6269,0,0,15,15,13,1,1001,ROUPET,z,,,,,,,,,,,,,,,,,,,,,,,,,,,,,,,,,,,,,,,,,,,,,,,,,,,,,,,,,,,,,,,,,
space,-0.028322221,-0.380009474,0,0,0,,,,,,,1,end_of_practice,"You have completed the practice trials. During the experimental trials, you will not receive feedback. 
Before you begin, please ensure that you are in a comfortable and quiet location and will not be disturbed for about 15 minutes, as we cannot use your data if you do not complete all the trials. 
 When you are ready to start the experimental trials, please press space or touch the button below.",,,5f2ac55b23cc6d38be906090,58,2022-02-12_13h37.14.524,lexical_decision_task_DD_L5,2021.2.3,Linux x86_64,60.03121623,1.6866,,,,,,,,,,,,,,,,,,,,,0,0,0,0,1,,,,,,,,,,,,,,,,,,,,,,,,,,,,,,,,,,,,,,,,,,,,,,,,,,,,,,,,,,,,
,,,,,,,,,,,,,,,,,5f2ac55b23cc6d38be906090,58,2022-02-12_13h37.14.524,lexical_decision_task_DD_L5,2021.2.3,Linux x86_64,60.03121623,,,,,,,,,,,,0.9653,1,,,,,,,,,,,,,,m,1,0.9653,,,,,,,,-0.028322221,-0.380009474,0,0,0,,0,0,0,77,1,WHEEL,C,old,m,./images/WHEEL.png,,,,,,,,,,,,,,,,,,,,,,,,,,,,,,,,,,
,,,,,,,,,,,,,,,,,5f2ac55b23cc6d38be906090,58,2022-02-12_13h37.14.524,lexical_decision_task_DD_L5,2021.2.3,Linux x86_64,60.03121623,,,,,,,,,,,,1.105,1,,,,,,,,,,,,,,z,1,1.105,,,,,,,,-0.028322221,-0.380009474,0,0,0,,0,1,1,107,1,FASKS,LB,old,z,./images/FASKSLB.png,,,,,,,,,,,,,,,,,,,,,,,,,,,,,,,,,,
,,,,,,,,,,,,,,,,,5f2ac55b23cc6d38be906090,58,2022-02-12_13h37.14.524,lexical_decision_task_DD_L5,2021.2.3,Linux x86_64,60.03121623,,,,,,,,,,,,1.5259,0,,,,,,,,,,,,,,m,0,1.5259,,,,,,,,-0.028322221,-0.380009474,0,0,0,,0,2,2,114,1,RIKES,C,old,z,./images/RIKES.png,,,,,,,,,,,,,,,,,,,,,,,,,,,,,,,,,,
,,,,,,,,,,,,,,,,,5f2ac55b23cc6d38be906090,58,2022-02-12_13h37.14.524,lexical_decision_task_DD_L5,2021.2.3,Linux x86_64,60.03121623,,,,,,,,,,,,2.8238,1,,,,,,,,,,,,,,m,1,2.8238,,,,,,,,-0.028322221,-0.380009474,0,0,0,,0,3,3,12,1,BLOKE,HB,old,m,./images/BLOKEHB.png,,,,,,,,,,,,,,,,,,,,,,,,,,,,,,,,,,
,,,,,,,,,,,,,,,,,5f2ac55b23cc6d38be906090,58,2022-02-12_13h37.14.524,lexical_decision_task_DD_L5,2021.2.3,Linux x86_64,60.03121623,,,,,,,,,,,,1.101,1,,,,,,,,,,,,,,z,1,1.101,,,,,,,,-0.028322221,-0.380009474,0,0,0,,0,4,4,94,1,BLANS,HB,old,z,./images/BLANSHB.png,,,,,,,,,,,,,,,,,,,,,,,,,,,,,,,,,,
,,,,,,,,,,,,,,,,,5f2ac55b23cc6d38be906090,58,2022-02-12_13h37.14.524,lexical_decision_task_DD_L5,2021.2.3,Linux x86_64,60.03121623,,,,,,,,,,,,1.5788,1,,,,,,,,,,,,,,z,1,1.5788,,,,,,,,-0.028322221,-0.380009474,0,0,0,,0,5,5,90,1,NEAST,C,old,z,./images/NEAST.png,,,,,,,,,,,,,,,,,,,,,,,,,,,,,,,,,,
,,,,,,,,,,,,,,,,,5f2ac55b23cc6d38be906090,58,2022-02-12_13h37.14.524,lexical_decision_task_DD_L5,2021.2.3,Linux x86_64,60.03121623,,,,,,,,,,,,1.1522,1,,,,,,,,,,,,,,z,1,1.1522,,,,,,,,-0.028322221,-0.380009474,0,0,0,,0,6,6,126,1,GUELS,C,old,z,./images/GUELS.png,,,,,,,,,,,,,,,,,,,,,,,,,,,,,,,,,,
,,,,,,,,,,,,,,,,,5f2ac55b23cc6d38be906090,58,2022-02-12_13h37.14.524,lexical_decision_task_DD_L5,2021.2.3,Linux x86_64,60.03121623,,,,,,,,,,,,0.8808,1,,,,,,,,,,,,,,z,1,0.8808,,,,,,,,-0.028322221,-0.380009474,0,0,0,,0,7,7,123,1,SEDGE,C,old,z,./images/SEDGE.png,,,,,,,,,,,,,,,,,,,,,,,,,,,,,,,,,,
,,,,,,,,,,,,,,,,,5f2ac55b23cc6d38be906090,58,2022-02-12_13h37.14.524,lexical_decision_task_DD_L5,2021.2.3,Linux x86_64,60.03121623,,,,,,,,,,,,1.4005,1,,,,,,,,,,,,,,z,1,1.4005,,,,,,,,-0.028322221,-0.380009474,0,0,0,,0,8,8,88,1,GLUSH,HB,old,z,./images/GLUSHHB.png,,,,,,,,,,,,,,,,,,,,,,,,,,,,,,,,,,
,,,,,,,,,,,,,,,,,5f2ac55b23cc6d38be906090,58,2022-02-12_13h37.14.524,lexical_decision_task_DD_L5,2021.2.3,Linux x86_64,60.03121623,,,,,,,,,,,,1.0214,1,,,,,,,,,,,,,,z,1,1.0214,,,,,,,,-0.028322221,-0.380009474,0,0,0,,0,9,9,137,1,JOOST,LB,old,z,./images/JOOSTLB.png,,,,,,,,,,,,,,,,,,,,,,,,,,,,,,,,,,
,,,,,,,,,,,,,,,,,5f2ac55b23cc6d38be906090,58,2022-02-12_13h37.14.524,lexical_decision_task_DD_L5,2021.2.3,Linux x86_64,60.03121623,,,,,,,,,,,,0.6942,1,,,,,,,,,,,,,,m,1,0.6942,,,,,,,,-0.028322221,-0.380009474,0,0,0,,0,10,10,44,1,BASKET,C,old,m,./images/BASKET.png,,,,,,,,,,,,,,,,,,,,,,,,,,,,,,,,,,
,,,,,,,,,,,,,,,,,5f2ac55b23cc6d38be906090,58,2022-02-12_13h37.14.524,lexical_decision_task_DD_L5,2021.2.3,Linux x86_64,60.03121623,,,,,,,,,,,,1.0921,1,,,,,,,,,,,,,,z,1,1.0921,,,,,,,,-0.028322221,-0.380009474,0,0,0,,0,11,11,87,1,TRING,C,old,z,./images/TRING.png,,,,,,,,,,,,,,,,,,,,,,,,,,,,,,,,,,
,,,,,,,,,,,,,,,,,5f2ac55b23cc6d38be906090,58,2022-02-12_13h37.14.524,lexical_decision_task_DD_L5,2021.2.3,Linux x86_64,60.03121623,,,,,,,,,,,,0.974,1,,,,,,,,,,,,,,m,1,0.974,,,,,,,,-0.028322221,-0.380009474,0,0,0,,0,12,12,5,1,BAMBOO,C,old,m,./images/BAMBOO.png,,,,,,,,,,,,,,,,,,,,,,,,,,,,,,,,,,
,,,,,,,,,,,,,,,,,5f2ac55b23cc6d38be906090,58,2022-02-12_13h37.14.524,lexical_decision_task_DD_L5,2021.2.3,Linux x86_64,60.03121623,,,,,,,,,,,,0.7442,1,,,,,,,,,,,,,,m,1,0.7442,,,,,,,,-0.028322221,-0.380009474,0,0,0,,0,13,13,41,1,STREAM,C,old,m,./images/STREAM.png,,,,,,,,,,,,,,,,,,,,,,,,,,,,,,,,,,
,,,,,,,,,,,,,,,,,5f2ac55b23cc6d38be906090,58,2022-02-12_13h37.14.524,lexical_decision_task_DD_L5,2021.2.3,Linux x86_64,60.03121623,,,,,,,,,,,,0.6448,1,,,,,,,,,,,,,,z,1,0.6448,,,,,,,,-0.028322221,-0.380009474,0,0,0,,0,14,14,119,1,PAFER,LB,old,z,./images/PAFERLB.png,,,,,,,,,,,,,,,,,,,,,,,,,,,,,,,,,,
,,,,,,,,,,,,,,,,,5f2ac55b23cc6d38be906090,58,2022-02-12_13h37.14.524,lexical_decision_task_DD_L5,2021.2.3,Linux x86_64,60.03121623,,,,,,,,,,,,0.7259,1,,,,,,,,,,,,,,z,1,0.7259,,,,,,,,-0.028322221,-0.380009474,0,0,0,,0,15,15,155,1,CANGY,LB,old,z,./images/CANGYLB.png,,,,,,,,,,,,,,,,,,,,,,,,,,,,,,,,,,
,,,,,,,,,,,,,,,,,5f2ac55b23cc6d38be906090,58,2022-02-12_13h37.14.524,lexical_decision_task_DD_L5,2021.2.3,Linux x86_64,60.03121623,,,,,,,,,,,,1.3277,1,,,,,,,,,,,,,,z,1,1.3277,,,,,,,,-0.028322221,-0.380009474,0,0,0,,0,16,16,152,1,FRAIN,LB,old,z,./images/FRAINLB.png,,,,,,,,,,,,,,,,,,,,,,,,,,,,,,,,,,
,,,,,,,,,,,,,,,,,5f2ac55b23cc6d38be906090,58,2022-02-12_13h37.14.524,lexical_decision_task_DD_L5,2021.2.3,Linux x86_64,60.03121623,,,,,,,,,,,,1.2162,1,,,,,,,,,,,,,,z,1,1.2162,,,,,,,,-0.028322221,-0.380009474,0,0,0,,0,17,17,135,1,JOODY,C,old,z,./images/JOODY.png,,,,,,,,,,,,,,,,,,,,,,,,,,,,,,,,,,
,,,,,,,,,,,,,,,,,5f2ac55b23cc6d38be906090,58,2022-02-12_13h37.14.524,lexical_decision_task_DD_L5,2021.2.3,Linux x86_64,60.03121623,,,,,,,,,,,,0.8269,1,,,,,,,,,,,,,,z,1,0.8269,,,,,,,,-0.028322221,-0.380009474,0,0,0,,0,18,18,89,1,DRIEK,LB,old,z,./images/DRIEKLB.png,,,,,,,,,,,,,,,,,,,,,,,,,,,,,,,,,,
,,,,,,,,,,,,,,,,,5f2ac55b23cc6d38be906090,58,2022-02-12_13h37.14.524,lexical_decision_task_DD_L5,2021.2.3,Linux x86_64,60.03121623,,,,,,,,,,,,1.2275,1,,,,,,,,,,,,,,z,1,1.2275,,,,,,,,-0.028322221,-0.380009474,0,0,0,,0,19,19,159,1,CUDDY,C,old,z,./images/CUDDY.png,,,,,,,,,,,,,,,,,,,,,,,,,,,,,,,,,,
,,,,,,,,,,,,,,,,,5f2ac55b23cc6d38be906090,58,2022-02-12_13h37.14.524,lexical_decision_task_DD_L5,2021.2.3,Linux x86_64,60.03121623,,,,,,,,,,,,0.8332,1,,,,,,,,,,,,,,z,1,0.8332,,,,,,,,-0.028322221,-0.380009474,0,0,0,,0,20,20,163,1,GAMBA,HB,old,z,./images/GAMBAHB.png,,,,,,,,,,,,,,,,,,,,,,,,,,,,,,,,,,
,,,,,,,,,,,,,,,,,5f2ac55b23cc6d38be906090,58,2022-02-12_13h37.14.524,lexical_decision_task_DD_L5,2021.2.3,Linux x86_64,60.03121623,,,,,,,,,,,,0.7482,1,,,,,,,,,,,,,,m,1,0.7482,,,,,,,,-0.028322221,-0.380009474,0,0,0,,0,21,21,8,1,CLIFF,C,old,m,./images/CLIFF.png,,,,,,,,,,,,,,,,,,,,,,,,,,,,,,,,,,
,,,,,,,,,,,,,,,,,5f2ac55b23cc6d38be906090,58,2022-02-12_13h37.14.524,lexical_decision_task_DD_L5,2021.2.3,Linux x86_64,60.03121623,,,,,,,,,,,,0.8084,1,,,,,,,,,,,,,,z,1,0.8084,,,,,,,,-0.028322221,-0.380009474,0,0,0,,0,22,22,84,1,HAXES,C,old,z,./images/HAXES.png,,,,,,,,,,,,,,,,,,,,,,,,,,,,,,,,,,
,,,,,,,,,,,,,,,,,5f2ac55b23cc6d38be906090,58,2022-02-12_13h37.14.524,lexical_decision_task_DD_L5,2021.2.3,Linux x86_64,60.03121623,,,,,,,,,,,,0.9282,1,,,,,,,,,,,,,,m,1,0.9282,,,,,,,,-0.028322221,-0.380009474,0,0,0,,0,23,23,32,1,HOCKEY,C,old,m,./images/HOCKEY.png,,,,,,,,,,,,,,,,,,,,,,,,,,,,,,,,,,
,,,,,,,,,,,,,,,,,5f2ac55b23cc6d38be906090,58,2022-02-12_13h37.14.524,lexical_decision_task_DD_L5,2021.2.3,Linux x86_64,60.03121623,,,,,,,,,,,,0.9667,1,,,,,,,,,,,,,,m,1,0.9667,,,,,,,,-0.028322221,-0.380009474,0,0,0,,0,24,24,60,1,CURRY,HB,old,m,./images/CURRYHB.png,,,,,,,,,,,,,,,,,,,,,,,,,,,,,,,,,,
,,,,,,,,,,,,,,,,,5f2ac55b23cc6d38be906090,58,2022-02-12_13h37.14.524,lexical_decision_task_DD_L5,2021.2.3,Linux x86_64,60.03121623,,,,,,,,,,,,0.712,1,,,,,,,,,,,,,,m,1,0.712,,,,,,,,-0.028322221,-0.380009474,0,0,0,,0,25,25,22,1,CLOWN,LB,old,m,./images/CLOWNLB.png,,,,,,,,,,,,,,,,,,,,,,,,,,,,,,,,,,
,,,,,,,,,,,,,,,,,5f2ac55b23cc6d38be906090,58,2022-02-12_13h37.14.524,lexical_decision_task_DD_L5,2021.2.3,Linux x86_64,60.03121623,,,,,,,,,,,,0.8833,1,,,,,,,,,,,,,,z,1,0.8833,,,,,,,,-0.028322221,-0.380009474,0,0,0,,0,26,26,134,1,TROSS,LB,old,z,./images/TROSSLB.png,,,,,,,,,,,,,,,,,,,,,,,,,,,,,,,,,,
,,,,,,,,,,,,,,,,,5f2ac55b23cc6d38be906090,58,2022-02-12_13h37.14.524,lexical_decision_task_DD_L5,2021.2.3,Linux x86_64,60.03121623,,,,,,,,,,,,1.615,0,,,,,,,,,,,,,,m,0,1.615,,,,,,,,-0.028322221,-0.380009474,0,0,0,,0,27,27,160,1,VEETS,HB,old,z,./images/VEETSHB.png,,,,,,,,,,,,,,,,,,,,,,,,,,,,,,,,,,
,,,,,,,,,,,,,,,,,5f2ac55b23cc6d38be906090,58,2022-02-12_13h37.14.524,lexical_decision_task_DD_L5,2021.2.3,Linux x86_64,60.03121623,,,,,,,,,,,,1.1605,0,,,,,,,,,,,,,,m,0,1.1605,,,,,,,,-0.028322221,-0.380009474,0,0,0,,0,28,28,142,1,PLASK,HB,old,z,./images/PLASKHB.png,,,,,,,,,,,,,,,,,,,,,,,,,,,,,,,,,,
,,,,,,,,,,,,,,,,,5f2ac55b23cc6d38be906090,58,2022-02-12_13h37.14.524,lexical_decision_task_DD_L5,2021.2.3,Linux x86_64,60.03121623,,,,,,,,,,,,1.047,1,,,,,,,,,,,,,,m,1,1.047,,,,,,,,-0.028322221,-0.380009474,0,0,0,,0,29,29,40,1,SNAKE,LB,old,m,./images/SNAKELB.png,,,,,,,,,,,,,,,,,,,,,,,,,,,,,,,,,,
,,,,,,,,,,,,,,,,,5f2ac55b23cc6d38be906090,58,2022-02-12_13h37.14.524,lexical_decision_task_DD_L5,2021.2.3,Linux x86_64,60.03121623,,,,,,,,,,,,0.9196,1,,,,,,,,,,,,,,z,1,0.9196,,,,,,,,-0.028322221,-0.380009474,0,0,0,,0,30,30,144,1,NAIRY,C,old,z,./images/NAIRY.png,,,,,,,,,,,,,,,,,,,,,,,,,,,,,,,,,,
,,,,,,,,,,,,,,,,,5f2ac55b23cc6d38be906090,58,2022-02-12_13h37.14.524,lexical_decision_task_DD_L5,2021.2.3,Linux x86_64,60.03121623,,,,,,,,,,,,1.2136,0,,,,,,,,,,,,,,m,0,1.2136,,,,,,,,-0.028322221,-0.380009474,0,0,0,,0,31,31,141,1,PLEET,C,old,z,./images/PLEET.png,,,,,,,,,,,,,,,,,,,,,,,,,,,,,,,,,,
,,,,,,,,,,,,,,,,,5f2ac55b23cc6d38be906090,58,2022-02-12_13h37.14.524,lexical_decision_task_DD_L5,2021.2.3,Linux x86_64,60.03121623,,,,,,,,,,,,0.824,1,,,,,,,,,,,,,,m,1,0.824,,,,,,,,-0.028322221,-0.380009474,0,0,0,,0,32,32,83,1,WHISKY,C,old,m,./images/WHISKY.png,,,,,,,,,,,,,,,,,,,,,,,,,,,,,,,,,,
,,,,,,,,,,,,,,,,,5f2ac55b23cc6d38be906090,58,2022-02-12_13h37.14.524,lexical_decision_task_DD_L5,2021.2.3,Linux x86_64,60.03121623,,,,,,,,,,,,1.1282,0,,,,,,,,,,,,,,m,0,1.1282,,,,,,,,-0.028322221,-0.380009474,0,0,0,,0,33,33,167,1,ZONET,LB,old,z,./images/ZONETLB.png,,,,,,,,,,,,,,,,,,,,,,,,,,,,,,,,,,
,,,,,,,,,,,,,,,,,5f2ac55b23cc6d38be906090,58,2022-02-12_13h37.14.524,lexical_decision_task_DD_L5,2021.2.3,Linux x86_64,60.03121623,,,,,,,,,,,,2.6862,1,,,,,,,,,,,,,,z,1,2.6862,,,,,,,,-0.028322221,-0.380009474,0,0,0,,0,34,34,100,1,DRIBS,HB,old,z,./images/DRIBSHB.png,,,,,,,,,,,,,,,,,,,,,,,,,,,,,,,,,,
,,,,,,,,,,,,,,,,,5f2ac55b23cc6d38be906090,58,2022-02-12_13h37.14.524,lexical_decision_task_DD_L5,2021.2.3,Linux x86_64,60.03121623,,,,,,,,,,,,1.0277,1,,,,,,,,,,,,,,m,1,1.0277,,,,,,,,-0.028322221,-0.380009474,0,0,0,,0,35,35,64,1,BRIDE,LB,old,m,./images/BRIDELB.png,,,,,,,,,,,,,,,,,,,,,,,,,,,,,,,,,,
,,,,,,,,,,,,,,,,,5f2ac55b23cc6d38be906090,58,2022-02-12_13h37.14.524,lexical_decision_task_DD_L5,2021.2.3,Linux x86_64,60.03121623,,,,,,,,,,,,0.8477,1,,,,,,,,,,,,,,m,1,0.8477,,,,,,,,-0.028322221,-0.380009474,0,0,0,,0,36,36,30,1,SLOPE,HB,old,m,./images/SLOPEHB.png,,,,,,,,,,,,,,,,,,,,,,,,,,,,,,,,,,
,,,,,,,,,,,,,,,,,5f2ac55b23cc6d38be906090,58,2022-02-12_13h37.14.524,lexical_decision_task_DD_L5,2021.2.3,Linux x86_64,60.03121623,,,,,,,,,,,,0.7856,0,,,,,,,,,,,,,,m,0,0.7856,,,,,,,,-0.028322221,-0.380009474,0,0,0,,0,37,37,128,1,GRIFT,LB,old,z,./images/GRIFTLB.png,,,,,,,,,,,,,,,,,,,,,,,,,,,,,,,,,,
,,,,,,,,,,,,,,,,,5f2ac55b23cc6d38be906090,58,2022-02-12_13h37.14.524,lexical_decision_task_DD_L5,2021.2.3,Linux x86_64,60.03121623,,,,,,,,,,,,0.8594,1,,,,,,,,,,,,,,z,1,0.8594,,,,,,,,-0.028322221,-0.380009474,0,0,0,,0,38,38,132,1,SCIFF,C,old,z,./images/SCIFF.png,,,,,,,,,,,,,,,,,,,,,,,,,,,,,,,,,,
,,,,,,,,,,,,,,,,,5f2ac55b23cc6d38be906090,58,2022-02-12_13h37.14.524,lexical_decision_task_DD_L5,2021.2.3,Linux x86_64,60.03121623,,,,,,,,,,,,1.6279,1,,,,,,,,,,,,,,m,1,1.6279,,,,,,,,-0.028322221,-0.380009474,0,0,0,,0,39,39,48,1,SHIELD,HB,old,m,./images/SHIELDHB.png,,,,,,,,,,,,,,,,,,,,,,,,,,,,,,,,,,
,,,,,,,,,,,,,,,,,5f2ac55b23cc6d38be906090,58,2022-02-12_13h37.14.524,lexical_decision_task_DD_L5,2021.2.3,Linux x86_64,60.03121623,,,,,,,,,,,,1.0451,1,,,,,,,,,,,,,,z,1,1.0451,,,,,,,,-0.028322221,-0.380009474,0,0,0,,0,40,40,131,1,NACES,LB,old,z,./images/NACESLB.png,,,,,,,,,,,,,,,,,,,,,,,,,,,,,,,,,,
,,,,,,,,,,,,,,,,,5f2ac55b23cc6d38be906090,58,2022-02-12_13h37.14.524,lexical_decision_task_DD_L5,2021.2.3,Linux x86_64,60.03121623,,,,,,,,,,,,1.0451,1,,,,,,,,,,,,,,z,1,1.0451,,,,,,,,-0.028322221,-0.380009474,0,0,0,space,0,41,41,103,1,FLORT,HB,old,z,./images/FLORTHB.png,11.333,,,,,,,,,,,,,,,,,,,,,,,,,,,,,,,,,
,,,,,,,,,,,,,,,,,5f2ac55b23cc6d38be906090,58,2022-02-12_13h37.14.524,lexical_decision_task_DD_L5,2021.2.3,Linux x86_64,60.03121623,,,,,,,,,,,,1.0108,1,,,,,,,,,,,,,,z,1,1.0108,,,,,,,,-0.028322221,-0.380009474,0,0,0,,0,42,42,91,1,SHENS,HB,old,z,./images/SHENSHB.png,,,,,,,,,,,,,,,,,,,,,,,,,,,,,,,,,,
,,,,,,,,,,,,,,,,,5f2ac55b23cc6d38be906090,58,2022-02-12_13h37.14.524,lexical_decision_task_DD_L5,2021.2.3,Linux x86_64,60.03121623,,,,,,,,,,,,0.9113,1,,,,,,,,,,,,,,z,1,0.9113,,,,,,,,-0.028322221,-0.380009474,0,0,0,,0,43,43,149,1,VEASE,LB,old,z,./images/VEASELB.png,,,,,,,,,,,,,,,,,,,,,,,,,,,,,,,,,,
,,,,,,,,,,,,,,,,,5f2ac55b23cc6d38be906090,58,2022-02-12_13h37.14.524,lexical_decision_task_DD_L5,2021.2.3,Linux x86_64,60.03121623,,,,,,,,,,,,0.6959,1,,,,,,,,,,,,,,m,1,0.6959,,,,,,,,-0.028322221,-0.380009474,0,0,0,,0,44,44,25,1,CHALK,LB,old,m,./images/CHALKLB.png,,,,,,,,,,,,,,,,,,,,,,,,,,,,,,,,,,
,,,,,,,,,,,,,,,,,5f2ac55b23cc6d38be906090,58,2022-02-12_13h37.14.524,lexical_decision_task_DD_L5,2021.2.3,Linux x86_64,60.03121623,,,,,,,,,,,,0.8925,1,,,,,,,,,,,,,,z,1,0.8925,,,,,,,,-0.028322221,-0.380009474,0,0,0,,0,45,45,102,1,DULLE,C,old,z,./images/DULLE.png,,,,,,,,,,,,,,,,,,,,,,,,,,,,,,,,,,
,,,,,,,,,,,,,,,,,5f2ac55b23cc6d38be906090,58,2022-02-12_13h37.14.524,lexical_decision_task_DD_L5,2021.2.3,Linux x86_64,60.03121623,,,,,,,,,,,,0.1384,1,,,,,,,,,,,,,,m,1,0.1384,,,,,,,,-0.028322221,-0.380009474,0,0,0,,0,46,46,65,1,SPINE,C,old,m,./images/SPINE.png,,,,,,,,,,,,,,,,,,,,,,,,,,,,,,,,,,
,,,,,,,,,,,,,,,,,5f2ac55b23cc6d38be906090,58,2022-02-12_13h37.14.524,lexical_decision_task_DD_L5,2021.2.3,Linux x86_64,60.03121623,,,,,,,,,,,,1.5707,1,,,,,,,,,,,,,,z,1,1.5707,,,,,,,,-0.028322221,-0.380009474,0,0,0,,0,47,47,151,1,TINKY,HB,old,z,./images/TINKYHB.png,,,,,,,,,,,,,,,,,,,,,,,,,,,,,,,,,,
,,,,,,,,,,,,,,,,,5f2ac55b23cc6d38be906090,58,2022-02-12_13h37.14.524,lexical_decision_task_DD_L5,2021.2.3,Linux x86_64,60.03121623,,,,,,,,,,,,0.7663,1,,,,,,,,,,,,,,m,1,0.7663,,,,,,,,-0.028322221,-0.380009474,0,0,0,,0,48,48,82,1,PEBBLE,LB,old,m,./images/PEBBLELB.png,,,,,,,,,,,,,,,,,,,,,,,,,,,,,,,,,,
,,,,,,,,,,,,,,,,,5f2ac55b23cc6d38be906090,58,2022-02-12_13h37.14.524,lexical_decision_task_DD_L5,2021.2.3,Linux x86_64,60.03121623,,,,,,,,,,,,1.8027,1,,,,,,,,,,,,,,z,1,1.8027,,,,,,,,-0.028322221,-0.380009474,0,0,0,,0,49,49,148,1,JOMS,HB,old,z,./images/JOMSHB.png,,,,,,,,,,,,,,,,,,,,,,,,,,,,,,,,,,
,,,,,,,,,,,,,,,,,5f2ac55b23cc6d38be906090,58,2022-02-12_13h37.14.524,lexical_decision_task_DD_L5,2021.2.3,Linux x86_64,60.03121623,,,,,,,,,,,,1.2541,1,,,,,,,,,,,,,,m,1,1.2541,,,,,,,,-0.028322221,-0.380009474,0,0,0,,0,50,50,75,1,HAMMER,HB,old,m,./images/HAMMERHB.png,,,,,,,,,,,,,,,,,,,,,,,,,,,,,,,,,,
,,,,,,,,,,,,,,,,,5f2ac55b23cc6d38be906090,58,2022-02-12_13h37.14.524,lexical_decision_task_DD_L5,2021.2.3,Linux x86_64,60.03121623,,,,,,,,,,,,0.9839,1,,,,,,,,,,,,,,z,1,0.9839,,,,,,,,-0.028322221,-0.380009474,0,0,0,,0,51,51,109,1,BURGE,HB,old,z,./images/BURGEHB.png,,,,,,,,,,,,,,,,,,,,,,,,,,,,,,,,,,
,,,,,,,,,,,,,,,,,5f2ac55b23cc6d38be906090,58,2022-02-12_13h37.14.524,lexical_decision_task_DD_L5,2021.2.3,Linux x86_64,60.03121623,,,,,,,,,,,,0.7986,1,,,,,,,,,,,,,,z,1,0.7986,,,,,,,,-0.028322221,-0.380009474,0,0,0,,0,52,52,111,1,HOSSE,C,old,z,./images/HOSSE.png,,,,,,,,,,,,,,,,,,,,,,,,,,,,,,,,,,
,,,,,,,,,,,,,,,,,5f2ac55b23cc6d38be906090,58,2022-02-12_13h37.14.524,lexical_decision_task_DD_L5,2021.2.3,Linux x86_64,60.03121623,,,,,,,,,,,,0.7459,1,,,,,,,,,,,,,,m,1,0.7459,,,,,,,,-0.028322221,-0.380009474,0,0,0,,0,53,53,17,1,PARADE,C,old,m,./images/PARADE.png,,,,,,,,,,,,,,,,,,,,,,,,,,,,,,,,,,
,,,,,,,,,,,,,,,,,5f2ac55b23cc6d38be906090,58,2022-02-12_13h37.14.524,lexical_decision_task_DD_L5,2021.2.3,Linux x86_64,60.03121623,,,,,,,,,,,,2.0781,1,,,,,,,,,,,,,,z,1,2.0781,,,,,,,,-0.028322221,-0.380009474,0,0,0,,0,54,54,115,1,MAWNS,HB,old,z,./images/MAWNSHB.png,,,,,,,,,,,,,,,,,,,,,,,,,,,,,,,,,,
,,,,,,,,,,,,,,,,,5f2ac55b23cc6d38be906090,58,2022-02-12_13h37.14.524,lexical_decision_task_DD_L5,2021.2.3,Linux x86_64,60.03121623,,,,,,,,,,,,0.9224,1,,,,,,,,,,,,,,m,1,0.9224,,,,,,,,-0.028322221,-0.380009474,0,0,0,,0,55,55,36,1,BOILER,HB,old,m,./images/BOILERHB.png,,,,,,,,,,,,,,,,,,,,,,,,,,,,,,,,,,
,,,,,,,,,,,,,,,,,5f2ac55b23cc6d38be906090,58,2022-02-12_13h37.14.524,lexical_decision_task_DD_L5,2021.2.3,Linux x86_64,60.03121623,,,,,,,,,,,,1.0111,1,,,,,,,,,,,,,,z,1,1.0111,,,,,,,,-0.028322221,-0.380009474,0,0,0,,0,56,56,108,1,GRUET,C,old,z,./images/GRUET.png,,,,,,,,,,,,,,,,,,,,,,,,,,,,,,,,,,
,,,,,,,,,,,,,,,,,5f2ac55b23cc6d38be906090,58,2022-02-12_13h37.14.524,lexical_decision_task_DD_L5,2021.2.3,Linux x86_64,60.03121623,,,,,,,,,,,,0.6888,1,,,,,,,,,,,,,,m,1,0.6888,,,,,,,,-0.028322221,-0.380009474,0,0,0,,0,57,57,29,1,PISTOL,C,old,m,./images/PISTOL.png,,,,,,,,,,,,,,,,,,,,,,,,,,,,,,,,,,
,,,,,,,,,,,,,,,,,5f2ac55b23cc6d38be906090,58,2022-02-12_13h37.14.524,lexical_decision_task_DD_L5,2021.2.3,Linux x86_64,60.03121623,,,,,,,,,,,,0.7661,1,,,,,,,,,,,,,,m,1,0.7661,,,,,,,,-0.028322221,-0.380009474,0,0,0,,0,58,58,81,1,DRILL,HB,old,m,./images/DRILLHB.png,,,,,,,,,,,,,,,,,,,,,,,,,,,,,,,,,,
,,,,,,,,,,,,,,,,,5f2ac55b23cc6d38be906090,58,2022-02-12_13h37.14.524,lexical_decision_task_DD_L5,2021.2.3,Linux x86_64,60.03121623,,,,,,,,,,,,1.348,1,,,,,,,,,,,,,,z,1,1.348,,,,,,,,-0.028322221,-0.380009474,0,0,0,,0,59,59,150,1,NOOLS,C,old,z,./images/NOOLS.png,,,,,,,,,,,,,,,,,,,,,,,,,,,,,,,,,,
,,,,,,,,,,,,,,,,,5f2ac55b23cc6d38be906090,58,2022-02-12_13h37.14.524,lexical_decision_task_DD_L5,2021.2.3,Linux x86_64,60.03121623,,,,,,,,,,,,0.9066,1,,,,,,,,,,,,,,m,1,0.9066,,,,,,,,-0.028322221,-0.380009474,0,0,0,,0,60,60,42,1,CHAIN,HB,old,m,./images/CHAINHB.png,,,,,,,,,,,,,,,,,,,,,,,,,,,,,,,,,,
,,,,,,,,,,,,,,,,,5f2ac55b23cc6d38be906090,58,2022-02-12_13h37.14.524,lexical_decision_task_DD_L5,2021.2.3,Linux x86_64,60.03121623,,,,,,,,,,,,0.6846,1,,,,,,,,,,,,,,m,1,0.6846,,,,,,,,-0.028322221,-0.380009474,0,0,0,,0,61,61,39,1,CANDY,HB,old,m,./images/CANDYHB.png,,,,,,,,,,,,,,,,,,,,,,,,,,,,,,,,,,
,,,,,,,,,,,,,,,,,5f2ac55b23cc6d38be906090,58,2022-02-12_13h37.14.524,lexical_decision_task_DD_L5,2021.2.3,Linux x86_64,60.03121623,,,,,,,,,,,,0.8205,1,,,,,,,,,,,,,,z,1,0.8205,,,,,,,,-0.028322221,-0.380009474,0,0,0,,0,62,62,95,1,HANTY,LB,old,z,./images/HANTYLB.png,,,,,,,,,,,,,,,,,,,,,,,,,,,,,,,,,,
,,,,,,,,,,,,,,,,,5f2ac55b23cc6d38be906090,58,2022-02-12_13h37.14.524,lexical_decision_task_DD_L5,2021.2.3,Linux x86_64,60.03121623,,,,,,,,,,,,0.6925,1,,,,,,,,,,,,,,m,1,0.6925,,,,,,,,-0.028322221,-0.380009474,0,0,0,,0,63,63,59,1,BRUSH,C,old,m,./images/BRUSH.png,,,,,,,,,,,,,,,,,,,,,,,,,,,,,,,,,,
,,,,,,,,,,,,,,,,,5f2ac55b23cc6d38be906090,58,2022-02-12_13h37.14.524,lexical_decision_task_DD_L5,2021.2.3,Linux x86_64,60.03121623,,,,,,,,,,,,0.6479,1,,,,,,,,,,,,,,m,1,0.6479,,,,,,,,-0.028322221,-0.380009474,0,0,0,,0,64,64,7,1,WAGON,LB,old,m,./images/WAGONLB.png,,,,,,,,,,,,,,,,,,,,,,,,,,,,,,,,,,
,,,,,,,,,,,,,,,,,5f2ac55b23cc6d38be906090,58,2022-02-12_13h37.14.524,lexical_decision_task_DD_L5,2021.2.3,Linux x86_64,60.03121623,,,,,,,,,,,,0.5603,1,,,,,,,,,,,,,,m,1,0.5603,,,,,,,,-0.028322221,-0.380009474,0,0,0,,0,65,65,2,1,STOVE,C,old,m,./images/STOVE.png,,,,,,,,,,,,,,,,,,,,,,,,,,,,,,,,,,
,,,,,,,,,,,,,,,,,5f2ac55b23cc6d38be906090,58,2022-02-12_13h37.14.524,lexical_decision_task_DD_L5,2021.2.3,Linux x86_64,60.03121623,,,,,,,,,,,,0.6613,1,,,,,,,,,,,,,,m,1,0.6613,,,,,,,,-0.028322221,-0.380009474,0,0,0,,0,66,66,34,1,RAZOR,LB,old,m,./images/RAZORLB.png,,,,,,,,,,,,,,,,,,,,,,,,,,,,,,,,,,
,,,,,,,,,,,,,,,,,5f2ac55b23cc6d38be906090,58,2022-02-12_13h37.14.524,lexical_decision_task_DD_L5,2021.2.3,Linux x86_64,60.03121623,,,,,,,,,,,,0.9761,1,,,,,,,,,,,,,,z,1,0.9761,,,,,,,,-0.028322221,-0.380009474,0,0,0,,0,67,67,133,1,POWDY,HB,old,z,./images/POWDYHB.png,,,,,,,,,,,,,,,,,,,,,,,,,,,,,,,,,,
,,,,,,,,,,,,,,,,,5f2ac55b23cc6d38be906090,58,2022-02-12_13h37.14.524,lexical_decision_task_DD_L5,2021.2.3,Linux x86_64,60.03121623,,,,,,,,,,,,1.1813,1,,,,,,,,,,,,,,z,1,1.1813,,,,,,,,-0.028322221,-0.380009474,0,0,0,,0,68,68,146,1,MOOST,LB,old,z,./images/MOOSTLB.png,,,,,,,,,,,,,,,,,,,,,,,,,,,,,,,,,,
,,,,,,,,,,,,,,,,,5f2ac55b23cc6d38be906090,58,2022-02-12_13h37.14.524,lexical_decision_task_DD_L5,2021.2.3,Linux x86_64,60.03121623,,,,,,,,,,,,3.9554,1,,,,,,,,,,,,,,z,1,3.9554,,,,,,,,-0.028322221,-0.380009474,0,0,0,,0,69,69,166,1,SHORY,HB,old,z,./images/SHORYHB.png,,,,,,,,,,,,,,,,,,,,,,,,,,,,,,,,,,
,,,,,,,,,,,,,,,,,5f2ac55b23cc6d38be906090,58,2022-02-12_13h37.14.524,lexical_decision_task_DD_L5,2021.2.3,Linux x86_64,60.03121623,,,,,,,,,,,,0.9193,1,,,,,,,,,,,,,,z,1,0.9193,,,,,,,,-0.028322221,-0.380009474,0,0,0,,0,70,70,153,1,CLUPS,C,old,z,./images/CLUPS.png,,,,,,,,,,,,,,,,,,,,,,,,,,,,,,,,,,
,,,,,,,,,,,,,,,,,5f2ac55b23cc6d38be906090,58,2022-02-12_13h37.14.524,lexical_decision_task_DD_L5,2021.2.3,Linux x86_64,60.03121623,,,,,,,,,,,,1.6045,0,,,,,,,,,,,,,,m,0,1.6045,,,,,,,,-0.028322221,-0.380009474,0,0,0,,0,71,71,140,1,DOVET,LB,old,z,./images/DOVETLB.png,,,,,,,,,,,,,,,,,,,,,,,,,,,,,,,,,,
,,,,,,,,,,,,,,,,,5f2ac55b23cc6d38be906090,58,2022-02-12_13h37.14.524,lexical_decision_task_DD_L5,2021.2.3,Linux x86_64,60.03121623,,,,,,,,,,,,0.7238,1,,,,,,,,,,,,,,m,1,0.7238,,,,,,,,-0.028322221,-0.380009474,0,0,0,,0,72,72,1,1,TOWEL,LB,old,m,./images/TOWELLB.png,,,,,,,,,,,,,,,,,,,,,,,,,,,,,,,,,,
,,,,,,,,,,,,,,,,,5f2ac55b23cc6d38be906090,58,2022-02-12_13h37.14.524,lexical_decision_task_DD_L5,2021.2.3,Linux x86_64,60.03121623,,,,,,,,,,,,2.3386,1,,,,,,,,,,,,,,z,1,2.3386,,,,,,,,-0.028322221,-0.380009474,0,0,0,,0,73,73,127,1,NINDY,HB,old,z,./images/NINDYHB.png,,,,,,,,,,,,,,,,,,,,,,,,,,,,,,,,,,
,,,,,,,,,,,,,,,,,5f2ac55b23cc6d38be906090,58,2022-02-12_13h37.14.524,lexical_decision_task_DD_L5,2021.2.3,Linux x86_64,60.03121623,,,,,,,,,,,,0.962,1,,,,,,,,,,,,,,m,1,0.962,,,,,,,,-0.028322221,-0.380009474,0,0,0,,0,74,74,78,1,BROOM,HB,old,m,./images/BROOMHB.png,,,,,,,,,,,,,,,,,,,,,,,,,,,,,,,,,,
,,,,,,,,,,,,,,,,,5f2ac55b23cc6d38be906090,58,2022-02-12_13h37.14.524,lexical_decision_task_DD_L5,2021.2.3,Linux x86_64,60.03121623,,,,,,,,,,,,0.9173,1,,,,,,,,,,,,,,m,1,0.9173,,,,,,,,-0.028322221,-0.380009474,0,0,0,,0,75,75,18,1,PARCEL,HB,old,m,./images/PARCELHB.png,,,,,,,,,,,,,,,,,,,,,,,,,,,,,,,,,,
,,,,,,,,,,,,,,,,,5f2ac55b23cc6d38be906090,58,2022-02-12_13h37.14.524,lexical_decision_task_DD_L5,2021.2.3,Linux x86_64,60.03121623,,,,,,,,,,,,0.5801,1,,,,,,,,,,,,,,m,1,0.5801,,,,,,,,-0.028322221,-0.380009474,0,0,0,,0,76,76,28,1,CASINO,LB,old,m,./images/CASINOLB.png,,,,,,,,,,,,,,,,,,,,,,,,,,,,,,,,,,
,,,,,,,,,,,,,,,,,5f2ac55b23cc6d38be906090,58,2022-02-12_13h37.14.524,lexical_decision_task_DD_L5,2021.2.3,Linux x86_64,60.03121623,,,,,,,,,,,,1.5745,0,,,,,,,,,,,,,,m,0,1.5745,,,,,,,,-0.028322221,-0.380009474,0,0,0,,0,77,77,110,1,CRUNK,LB,old,z,./images/CRUNKLB.png,,,,,,,,,,,,,,,,,,,,,,,,,,,,,,,,,,
,,,,,,,,,,,,,,,,,5f2ac55b23cc6d38be906090,58,2022-02-12_13h37.14.524,lexical_decision_task_DD_L5,2021.2.3,Linux x86_64,60.03121623,,,,,,,,,,,,0.6044,1,,,,,,,,,,,,,,m,1,0.6044,,,,,,,,-0.028322221,-0.380009474,0,0,0,,0,78,78,56,1,HEATER,C,old,m,./images/HEATER.png,,,,,,,,,,,,,,,,,,,,,,,,,,,,,,,,,,
,,,,,,,,,,,,,,,,,5f2ac55b23cc6d38be906090,58,2022-02-12_13h37.14.524,lexical_decision_task_DD_L5,2021.2.3,Linux x86_64,60.03121623,,,,,,,,,,,,0.8409,1,,,,,,,,,,,,,,z,1,0.8409,,,,,,,,-0.028322221,-0.380009474,0,0,0,,0,79,79,105,1,MOKER,C,old,z,./images/MOKER.png,,,,,,,,,,,,,,,,,,,,,,,,,,,,,,,,,,
,,,,,,,,,,,,,,,,,5f2ac55b23cc6d38be906090,58,2022-02-12_13h37.14.524,lexical_decision_task_DD_L5,2021.2.3,Linux x86_64,60.03121623,,,,,,,,,,,,2.1267,0,,,,,,,,,,,,,,m,0,2.1267,,,,,,,,-0.028322221,-0.380009474,0,0,0,,0,80,80,162,1,LEICH,C,old,z,./images/LEICH.png,,,,,,,,,,,,,,,,,,,,,,,,,,,,,,,,,,
,,,,,,,,,,,,,,,,,5f2ac55b23cc6d38be906090,58,2022-02-12_13h37.14.524,lexical_decision_task_DD_L5,2021.2.3,Linux x86_64,60.03121623,,,,,,,,,,,,1.0999,1,,,,,,,,,,,,,,z,1,1.0999,,,,,,,,-0.028322221,-0.380009474,0,0,0,,0,81,81,138,1,PLICE,C,old,z,./images/PLICE.png,,,,,,,,,,,,,,,,,,,,,,,,,,,,,,,,,,
,,,,,,,,,,,,,,,,,5f2ac55b23cc6d38be906090,58,2022-02-12_13h37.14.524,lexical_decision_task_DD_L5,2021.2.3,Linux x86_64,60.03121623,,,,,,,,,,,,1.2388,0,,,,,,,,,,,,,,m,0,1.2388,,,,,,,,-0.028322221,-0.380009474,0,0,0,,0,82,82,158,1,EGECT,LB,old,z,./images/EGECTLB.png,,,,,,,,,,,,,,,,,,,,,,,,,,,,,,,,,,
,,,,,,,,,,,,,,,,,5f2ac55b23cc6d38be906090,58,2022-02-12_13h37.14.524,lexical_decision_task_DD_L5,2021.2.3,Linux x86_64,60.03121623,,,,,,,,,,,,0.8821,1,,,,,,,,,,,,,,m,1,0.8821,,,,,,,,-0.028322221,-0.380009474,0,0,0,space,0,83,83,76,1,MIDGET,LB,old,m,./images/MIDGETLB.png,12.1332,,,,,,,,,,,,,,,,,,,,,,,,,,,,,,,,,
,,,,,,,,,,,,,,,,,5f2ac55b23cc6d38be906090,58,2022-02-12_13h37.14.524,lexical_decision_task_DD_L5,2021.2.3,Linux x86_64,60.03121623,,,,,,,,,,,,1.6676,1,,,,,,,,,,,,,,z,1,1.6676,,,,,,,,-0.028322221,-0.380009474,0,0,0,,0,84,84,118,1,BAVEL,HB,old,z,./images/BAVELHB.png,,,,,,,,,,,,,,,,,,,,,,,,,,,,,,,,,,
,,,,,,,,,,,,,,,,,5f2ac55b23cc6d38be906090,58,2022-02-12_13h37.14.524,lexical_decision_task_DD_L5,2021.2.3,Linux x86_64,60.03121623,,,,,,,,,,,,0.9642,1,,,,,,,,,,,,,,m,1,0.9642,,,,,,,,-0.028322221,-0.380009474,0,0,0,,0,85,85,70,1,BANANA,LB,old,m,./images/BANANALB.png,,,,,,,,,,,,,,,,,,,,,,,,,,,,,,,,,,
,,,,,,,,,,,,,,,,,5f2ac55b23cc6d38be906090,58,2022-02-12_13h37.14.524,lexical_decision_task_DD_L5,2021.2.3,Linux x86_64,60.03121623,,,,,,,,,,,,0.8462,1,,,,,,,,,,,,,,z,1,0.8462,,,,,,,,-0.028322221,-0.380009474,0,0,0,,0,86,86,165,1,TROWN,C,old,z,./images/TROWN.png,,,,,,,,,,,,,,,,,,,,,,,,,,,,,,,,,,
,,,,,,,,,,,,,,,,,5f2ac55b23cc6d38be906090,58,2022-02-12_13h37.14.524,lexical_decision_task_DD_L5,2021.2.3,Linux x86_64,60.03121623,,,,,,,,,,,,1.0829,1,,,,,,,,,,,,,,z,1,1.0829,,,,,,,,-0.028322221,-0.380009474,0,0,0,,0,87,87,112,1,MYING,HB,old,z,./images/MYINGHB.png,,,,,,,,,,,,,,,,,,,,,,,,,,,,,,,,,,
,,,,,,,,,,,,,,,,,5f2ac55b23cc6d38be906090,58,2022-02-12_13h37.14.524,lexical_decision_task_DD_L5,2021.2.3,Linux x86_64,60.03121623,,,,,,,,,,,,0.8696,1,,,,,,,,,,,,,,z,1,0.8696,,,,,,,,-0.028322221,-0.380009474,0,0,0,,0,88,88,116,1,BALGY,LB,old,z,./images/BALGYLB.png,,,,,,,,,,,,,,,,,,,,,,,,,,,,,,,,,,
,,,,,,,,,,,,,,,,,5f2ac55b23cc6d38be906090,58,2022-02-12_13h37.14.524,lexical_decision_task_DD_L5,2021.2.3,Linux x86_64,60.03121623,,,,,,,,,,,,1.6568,1,,,,,,,,,,,,,,z,1,1.6568,,,,,,,,-0.028322221,-0.380009474,0,0,0,,0,89,89,85,1,CHULK,HB,old,z,./images/CHULKHB.png,,,,,,,,,,,,,,,,,,,,,,,,,,,,,,,,,,
,,,,,,,,,,,,,,,,,5f2ac55b23cc6d38be906090,58,2022-02-12_13h37.14.524,lexical_decision_task_DD_L5,2021.2.3,Linux x86_64,60.03121623,,,,,,,,,,,,0.6067,1,,,,,,,,,,,,,,m,1,0.6067,,,,,,,,-0.028322221,-0.380009474,0,0,0,,0,90,90,74,1,JUMPER,C,old,m,./images/JUMPER.png,,,,,,,,,,,,,,,,,,,,,,,,,,,,,,,,,,
,,,,,,,,,,,,,,,,,5f2ac55b23cc6d38be906090,58,2022-02-12_13h37.14.524,lexical_decision_task_DD_L5,2021.2.3,Linux x86_64,60.03121623,,,,,,,,,,,,0.4983,0,,,,,,,,,,,,,,z,0,0.4983,,,,,,,,-0.028322221,-0.380009474,0,0,0,,0,91,91,43,1,STOOL,LB,old,m,./images/STOOLLB.png,,,,,,,,,,,,,,,,,,,,,,,,,,,,,,,,,,
,,,,,,,,,,,,,,,,,5f2ac55b23cc6d38be906090,58,2022-02-12_13h37.14.524,lexical_decision_task_DD_L5,2021.2.3,Linux x86_64,60.03121623,,,,,,,,,,,,1.0755,1,,,,,,,,,,,,,,m,1,1.0755,,,,,,,,-0.028322221,-0.380009474,0,0,0,,0,92,92,10,1,GARDEN,LB,old,m,./images/GARDENLB.png,,,,,,,,,,,,,,,,,,,,,,,,,,,,,,,,,,
,,,,,,,,,,,,,,,,,5f2ac55b23cc6d38be906090,58,2022-02-12_13h37.14.524,lexical_decision_task_DD_L5,2021.2.3,Linux x86_64,60.03121623,,,,,,,,,,,,0.625,1,,,,,,,,,,,,,,m,1,0.625,,,,,,,,-0.028322221,-0.380009474,0,0,0,,0,93,93,16,1,GRAPE,LB,old,m,./images/GRAPELB.png,,,,,,,,,,,,,,,,,,,,,,,,,,,,,,,,,,
,,,,,,,,,,,,,,,,,5f2ac55b23cc6d38be906090,58,2022-02-12_13h37.14.524,lexical_decision_task_DD_L5,2021.2.3,Linux x86_64,60.03121623,,,,,,,,,,,,1.5981,1,,,,,,,,,,,,,,z,1,1.5981,,,,,,,,-0.028322221,-0.380009474,0,0,0,,0,94,94,125,1,MOOKY,LB,old,z,./images/MOOKYLB.png,,,,,,,,,,,,,,,,,,,,,,,,,,,,,,,,,,
,,,,,,,,,,,,,,,,,5f2ac55b23cc6d38be906090,58,2022-02-12_13h37.14.524,lexical_decision_task_DD_L5,2021.2.3,Linux x86_64,60.03121623,,,,,,,,,,,,1.3725,1,,,,,,,,,,,,,,z,1,1.3725,,,,,,,,-0.028322221,-0.380009474,0,0,0,,0,95,95,161,1,BLAPS,LB,old,z,./images/BLAPSLB.png,,,,,,,,,,,,,,,,,,,,,,,,,,,,,,,,,,
,,,,,,,,,,,,,,,,,5f2ac55b23cc6d38be906090,58,2022-02-12_13h37.14.524,lexical_decision_task_DD_L5,2021.2.3,Linux x86_64,60.03121623,,,,,,,,,,,,0.6257,1,,,,,,,,,,,,,,m,1,0.6257,,,,,,,,-0.028322221,-0.380009474,0,0,0,,0,96,96,49,1,BISHOP,LB,old,m,./images/BISHOPLB.png,,,,,,,,,,,,,,,,,,,,,,,,,,,,,,,,,,
,,,,,,,,,,,,,,,,,5f2ac55b23cc6d38be906090,58,2022-02-12_13h37.14.524,lexical_decision_task_DD_L5,2021.2.3,Linux x86_64,60.03121623,,,,,,,,,,,,1.1802,1,,,,,,,,,,,,,,z,1,1.1802,,,,,,,,-0.028322221,-0.380009474,0,0,0,,0,97,97,92,1,PAIMS,LB,old,z,./images/PAIMSLB.png,,,,,,,,,,,,,,,,,,,,,,,,,,,,,,,,,,
,,,,,,,,,,,,,,,,,5f2ac55b23cc6d38be906090,58,2022-02-12_13h37.14.524,lexical_decision_task_DD_L5,2021.2.3,Linux x86_64,60.03121623,,,,,,,,,,,,0.8184,1,,,,,,,,,,,,,,m,1,0.8184,,,,,,,,-0.028322221,-0.380009474,0,0,0,,0,98,98,71,1,BUBBLE,C,old,m,./images/BUBBLE.png,,,,,,,,,,,,,,,,,,,,,,,,,,,,,,,,,,
,,,,,,,,,,,,,,,,,5f2ac55b23cc6d38be906090,58,2022-02-12_13h37.14.524,lexical_decision_task_DD_L5,2021.2.3,Linux x86_64,60.03121623,,,,,,,,,,,,1.586,1,,,,,,,,,,,,,,z,1,1.586,,,,,,,,-0.028322221,-0.380009474,0,0,0,,0,99,99,147,1,ZOLES,C,old,z,./images/ZOLES.png,,,,,,,,,,,,,,,,,,,,,,,,,,,,,,,,,,
,,,,,,,,,,,,,,,,,5f2ac55b23cc6d38be906090,58,2022-02-12_13h37.14.524,lexical_decision_task_DD_L5,2021.2.3,Linux x86_64,60.03121623,,,,,,,,,,,,0.78,1,,,,,,,,,,,,,,m,1,0.78,,,,,,,,-0.028322221,-0.380009474,0,0,0,,0,100,100,13,1,BUNNY,LB,old,m,./images/BUNNYLB.png,,,,,,,,,,,,,,,,,,,,,,,,,,,,,,,,,,
,,,,,,,,,,,,,,,,,5f2ac55b23cc6d38be906090,58,2022-02-12_13h37.14.524,lexical_decision_task_DD_L5,2021.2.3,Linux x86_64,60.03121623,,,,,,,,,,,,0.7976,1,,,,,,,,,,,,,,z,1,0.7976,,,,,,,,-0.02842649,-0.380113742,0,0,0,,0,101,101,117,1,STEEG,C,old,z,./images/STEEG.png,,,,,,,,,,,,,,,,,,,,,,,,,,,,,,,,,,
,,,,,,,,,,,,,,,,,5f2ac55b23cc6d38be906090,58,2022-02-12_13h37.14.524,lexical_decision_task_DD_L5,2021.2.3,Linux x86_64,60.03121623,,,,,,,,,,,,1.5944,0,,,,,,,,,,,,,,m,0,1.5944,,,,,,,,-0.02842649,-0.380113742,0,0,0,,0,102,102,104,1,GITTY,LB,old,z,./images/GITTYLB.png,,,,,,,,,,,,,,,,,,,,,,,,,,,,,,,,,,
,,,,,,,,,,,,,,,,,5f2ac55b23cc6d38be906090,58,2022-02-12_13h37.14.524,lexical_decision_task_DD_L5,2021.2.3,Linux x86_64,60.03121623,,,,,,,,,,,,0.7637,1,,,,,,,,,,,,,,m,1,0.7637,,,,,,,,-0.02842649,-0.380113742,0,0,0,,0,103,103,11,1,MEDAL,C,old,m,./images/MEDAL.png,,,,,,,,,,,,,,,,,,,,,,,,,,,,,,,,,,
,,,,,,,,,,,,,,,,,5f2ac55b23cc6d38be906090,58,2022-02-12_13h37.14.524,lexical_decision_task_DD_L5,2021.2.3,Linux x86_64,60.03121623,,,,,,,,,,,,0.8775,0,,,,,,,,,,,,,,m,0,0.8775,,,,,,,,-0.02842649,-0.380113742,0,0,0,,0,104,104,130,1,CRILL,HB,old,z,./images/CRILLHB.png,,,,,,,,,,,,,,,,,,,,,,,,,,,,,,,,,,
,,,,,,,,,,,,,,,,,5f2ac55b23cc6d38be906090,58,2022-02-12_13h37.14.524,lexical_decision_task_DD_L5,2021.2.3,Linux x86_64,60.03121623,,,,,,,,,,,,0.7044,1,,,,,,,,,,,,,,m,1,0.7044,,,,,,,,-0.02842649,-0.380113742,0,0,0,,0,105,105,50,1,PILOT,C,old,m,./images/PILOT.png,,,,,,,,,,,,,,,,,,,,,,,,,,,,,,,,,,
,,,,,,,,,,,,,,,,,5f2ac55b23cc6d38be906090,58,2022-02-12_13h37.14.524,lexical_decision_task_DD_L5,2021.2.3,Linux x86_64,60.03121623,,,,,,,,,,,,0.8745,0,,,,,,,,,,,,,,m,0,0.8745,,,,,,,,-0.02842649,-0.380113742,0,0,0,,0,106,106,101,1,GLEET,LB,old,z,./images/GLEETLB.png,,,,,,,,,,,,,,,,,,,,,,,,,,,,,,,,,,
,,,,,,,,,,,,,,,,,5f2ac55b23cc6d38be906090,58,2022-02-12_13h37.14.524,lexical_decision_task_DD_L5,2021.2.3,Linux x86_64,60.03121623,,,,,,,,,,,,0.8788,1,,,,,,,,,,,,,,m,1,0.8788,,,,,,,,-0.02842649,-0.380113742,0,0,0,,0,107,107,24,1,FLESH,HB,old,m,./images/FLESHHB.png,,,,,,,,,,,,,,,,,,,,,,,,,,,,,,,,,,
,,,,,,,,,,,,,,,,,5f2ac55b23cc6d38be906090,58,2022-02-12_13h37.14.524,lexical_decision_task_DD_L5,2021.2.3,Linux x86_64,60.03121623,,,,,,,,,,,,1.385,1,,,,,,,,,,,,,,z,1,1.385,,,,,,,,-0.02842649,-0.380113742,0,0,0,,0,108,108,154,1,THINT,HB,old,z,./images/THINTHB.png,,,,,,,,,,,,,,,,,,,,,,,,,,,,,,,,,,
,,,,,,,,,,,,,,,,,5f2ac55b23cc6d38be906090,58,2022-02-12_13h37.14.524,lexical_decision_task_DD_L5,2021.2.3,Linux x86_64,60.03121623,,,,,,,,,,,,0.7616,1,,,,,,,,,,,,,,m,1,0.7616,,,,,,,,-0.02842649,-0.380113742,0,0,0,,0,109,109,19,1,DONKEY,LB,old,m,./images/DONKEYLB.png,,,,,,,,,,,,,,,,,,,,,,,,,,,,,,,,,,
,,,,,,,,,,,,,,,,,5f2ac55b23cc6d38be906090,58,2022-02-12_13h37.14.524,lexical_decision_task_DD_L5,2021.2.3,Linux x86_64,60.03121623,,,,,,,,,,,,2.6587,0,,,,,,,,,,,,,,m,0,2.6587,,,,,,,,-0.02842649,-0.380113742,0,0,0,,0,110,110,157,1,INLER,HB,old,z,./images/INLERHB.png,,,,,,,,,,,,,,,,,,,,,,,,,,,,,,,,,,
,,,,,,,,,,,,,,,,,5f2ac55b23cc6d38be906090,58,2022-02-12_13h37.14.524,lexical_decision_task_DD_L5,2021.2.3,Linux x86_64,60.03121623,,,,,,,,,,,,0.7781,1,,,,,,,,,,,,,,m,1,0.7781,,,,,,,,-0.02842649,-0.380113742,0,0,0,,0,111,111,66,1,STATUE,HB,old,m,./images/STATUEHB.png,,,,,,,,,,,,,,,,,,,,,,,,,,,,,,,,,,
,,,,,,,,,,,,,,,,,5f2ac55b23cc6d38be906090,58,2022-02-12_13h37.14.524,lexical_decision_task_DD_L5,2021.2.3,Linux x86_64,60.03121623,,,,,,,,,,,,0.615,1,,,,,,,,,,,,,,m,1,0.615,,,,,,,,-0.02842649,-0.380113742,0,0,0,,0,112,112,37,1,TIGER,LB,old,m,./images/TIGERLB.png,,,,,,,,,,,,,,,,,,,,,,,,,,,,,,,,,,
,,,,,,,,,,,,,,,,,5f2ac55b23cc6d38be906090,58,2022-02-12_13h37.14.524,lexical_decision_task_DD_L5,2021.2.3,Linux x86_64,60.03121623,,,,,,,,,,,,2.496,1,,,,,,,,,,,,,,z,1,2.496,,,,,,,,-0.02842649,-0.380113742,0,0,0,,0,113,113,96,1,KEAMS,C,old,z,./images/KEAMS.png,,,,,,,,,,,,,,,,,,,,,,,,,,,,,,,,,,
,,,,,,,,,,,,,,,,,5f2ac55b23cc6d38be906090,58,2022-02-12_13h37.14.524,lexical_decision_task_DD_L5,2021.2.3,Linux x86_64,60.03121623,,,,,,,,,,,,1.4511,1,,,,,,,,,,,,,,z,1,1.4511,,,,,,,,-0.02842649,-0.380113742,0,0,0,,0,114,114,145,1,LAMEL,HB,old,z,./images/LAMELHB.png,,,,,,,,,,,,,,,,,,,,,,,,,,,,,,,,,,
,,,,,,,,,,,,,,,,,5f2ac55b23cc6d38be906090,58,2022-02-12_13h37.14.524,lexical_decision_task_DD_L5,2021.2.3,Linux x86_64,60.03121623,,,,,,,,,,,,0.859,1,,,,,,,,,,,,,,m,1,0.859,,,,,,,,-0.02842649,-0.380113742,0,0,0,,0,115,115,52,1,DESERT,LB,old,m,./images/DESERTLB.png,,,,,,,,,,,,,,,,,,,,,,,,,,,,,,,,,,
,,,,,,,,,,,,,,,,,5f2ac55b23cc6d38be906090,58,2022-02-12_13h37.14.524,lexical_decision_task_DD_L5,2021.2.3,Linux x86_64,60.03121623,,,,,,,,,,,,1.1733,1,,,,,,,,,,,,,,z,1,1.1733,,,,,,,,-0.02842649,-0.380113742,0,0,0,,0,116,116,121,1,CEERS,HB,old,z,./images/CEERSHB.png,,,,,,,,,,,,,,,,,,,,,,,,,,,,,,,,,,
,,,,,,,,,,,,,,,,,5f2ac55b23cc6d38be906090,58,2022-02-12_13h37.14.524,lexical_decision_task_DD_L5,2021.2.3,Linux x86_64,60.03121623,,,,,,,,,,,,0.8616,1,,,,,,,,,,,,,,m,1,0.8616,,,,,,,,-0.02842649,-0.380113742,0,0,0,,0,117,117,61,1,ARTIST,LB,old,m,./images/ARTISTLB.png,,,,,,,,,,,,,,,,,,,,,,,,,,,,,,,,,,
,,,,,,,,,,,,,,,,,5f2ac55b23cc6d38be906090,58,2022-02-12_13h37.14.524,lexical_decision_task_DD_L5,2021.2.3,Linux x86_64,60.03121623,,,,,,,,,,,,1.015,1,,,,,,,,,,,,,,z,1,1.015,,,,,,,,-0.02842649,-0.380113742,0,0,0,,0,118,118,98,1,BAMPS,LB,old,z,./images/BAMPSLB.png,,,,,,,,,,,,,,,,,,,,,,,,,,,,,,,,,,
,,,,,,,,,,,,,,,,,5f2ac55b23cc6d38be906090,58,2022-02-12_13h37.14.524,lexical_decision_task_DD_L5,2021.2.3,Linux x86_64,60.03121623,,,,,,,,,,,,1.6091,1,,,,,,,,,,,,,,m,1,1.6091,,,,,,,,-0.02842649,-0.380113742,0,0,0,,0,119,119,27,1,BUTTER,HB,old,m,./images/BUTTERHB.png,,,,,,,,,,,,,,,,,,,,,,,,,,,,,,,,,,
,,,,,,,,,,,,,,,,,5f2ac55b23cc6d38be906090,58,2022-02-12_13h37.14.524,lexical_decision_task_DD_L5,2021.2.3,Linux x86_64,60.03121623,,,,,,,,,,,,2.6059,0,,,,,,,,,,,,,,m,0,2.6059,,,,,,,,-0.02842649,-0.380113742,0,0,0,,0,120,120,113,1,LINEW,LB,old,z,./images/LINEWLB.png,,,,,,,,,,,,,,,,,,,,,,,,,,,,,,,,,,
,,,,,,,,,,,,,,,,,5f2ac55b23cc6d38be906090,58,2022-02-12_13h37.14.524,lexical_decision_task_DD_L5,2021.2.3,Linux x86_64,60.03121623,,,,,,,,,,,,0.972,1,,,,,,,,,,,,,,z,1,0.972,,,,,,,,-0.02842649,-0.380113742,0,0,0,,0,121,121,129,1,PRANS,C,old,z,./images/PRANS.png,,,,,,,,,,,,,,,,,,,,,,,,,,,,,,,,,,
,,,,,,,,,,,,,,,,,5f2ac55b23cc6d38be906090,58,2022-02-12_13h37.14.524,lexical_decision_task_DD_L5,2021.2.3,Linux x86_64,60.03121623,,,,,,,,,,,,1.5053,1,,,,,,,,,,,,,,z,1,1.5053,,,,,,,,-0.02842649,-0.380113742,0,0,0,,0,122,122,106,1,CLUMS,HB,old,z,./images/CLUMSHB.png,,,,,,,,,,,,,,,,,,,,,,,,,,,,,,,,,,
,,,,,,,,,,,,,,,,,5f2ac55b23cc6d38be906090,58,2022-02-12_13h37.14.524,lexical_decision_task_DD_L5,2021.2.3,Linux x86_64,60.03121623,,,,,,,,,,,,0.8839,1,,,,,,,,,,,,,,m,1,0.8839,,,,,,,,-0.02842649,-0.380113742,0,0,0,,0,123,123,73,1,GLOVE,LB,old,m,./images/GLOVELB.png,,,,,,,,,,,,,,,,,,,,,,,,,,,,,,,,,,
,,,,,,,,,,,,,,,,,5f2ac55b23cc6d38be906090,58,2022-02-12_13h37.14.524,lexical_decision_task_DD_L5,2021.2.3,Linux x86_64,60.03121623,,,,,,,,,,,,0.6607,1,,,,,,,,,,,,,,m,1,0.6607,,,,,,,,-0.02842649,-0.380113742,0,0,0,,0,124,124,35,1,LLAMA,C,old,m,./images/LLAMA.png,,,,,,,,,,,,,,,,,,,,,,,,,,,,,,,,,,
,,,,,,,,,,,,,,,,,5f2ac55b23cc6d38be906090,58,2022-02-12_13h37.14.524,lexical_decision_task_DD_L5,2021.2.3,Linux x86_64,60.03121623,,,,,,,,,,,,1.1876,0,,,,,,,,,,,,,,m,0,1.1876,,,,,,,,-0.02842649,-0.380113742,0,0,0,space,0,125,125,156,1,HIXES,C,old,z,./images/HIXES.png,1.5606,,,,,,,,,,,,,,,,,,,,,,,,,,,,,,,,,
,,,,,,,,,,,,,,,,,5f2ac55b23cc6d38be906090,58,2022-02-12_13h37.14.524,lexical_decision_task_DD_L5,2021.2.3,Linux x86_64,60.03121623,,,,,,,,,,,,0.7162,1,,,,,,,,,,,,,,m,1,0.7162,,,,,,,,-0.02842649,-0.380113742,0,0,0,,0,126,126,15,1,COLLAR,HB,old,m,./images/COLLARHB.png,,,,,,,,,,,,,,,,,,,,,,,,,,,,,,,,,,
,,,,,,,,,,,,,,,,,5f2ac55b23cc6d38be906090,58,2022-02-12_13h37.14.524,lexical_decision_task_DD_L5,2021.2.3,Linux x86_64,60.03121623,,,,,,,,,,,,0.7138,1,,,,,,,,,,,,,,m,1,0.7138,,,,,,,,-0.02842649,-0.380113742,0,0,0,,0,127,127,20,1,GRANNY,C,old,m,./images/GRANNY.png,,,,,,,,,,,,,,,,,,,,,,,,,,,,,,,,,,
,,,,,,,,,,,,,,,,,5f2ac55b23cc6d38be906090,58,2022-02-12_13h37.14.524,lexical_decision_task_DD_L5,2021.2.3,Linux x86_64,60.03121623,,,,,,,,,,,,0.765,1,,,,,,,,,,,,,,m,1,0.765,,,,,,,,-0.02842649,-0.380113742,0,0,0,,0,128,128,33,1,SAUNA,HB,old,m,./images/SAUNAHB.png,,,,,,,,,,,,,,,,,,,,,,,,,,,,,,,,,,
,,,,,,,,,,,,,,,,,5f2ac55b23cc6d38be906090,58,2022-02-12_13h37.14.524,lexical_decision_task_DD_L5,2021.2.3,Linux x86_64,60.03121623,,,,,,,,,,,,1.073,1,,,,,,,,,,,,,,z,1,1.073,,,,,,,,-0.02842649,-0.380113742,0,0,0,,0,129,129,143,1,MONGS,LB,old,z,./images/MONGSLB.png,,,,,,,,,,,,,,,,,,,,,,,,,,,,,,,,,,
,,,,,,,,,,,,,,,,,5f2ac55b23cc6d38be906090,58,2022-02-12_13h37.14.524,lexical_decision_task_DD_L5,2021.2.3,Linux x86_64,60.03121623,,,,,,,,,,,,0.7571,1,,,,,,,,,,,,,,m,1,0.7571,,,,,,,,-0.02842649,-0.380113742,0,0,0,,0,130,130,54,1,CHERRY,HB,old,m,./images/CHERRYHB.png,,,,,,,,,,,,,,,,,,,,,,,,,,,,,,,,,,
,,,,,,,,,,,,,,,,,5f2ac55b23cc6d38be906090,58,2022-02-12_13h37.14.524,lexical_decision_task_DD_L5,2021.2.3,Linux x86_64,60.03121623,,,,,,,,,,,,0.6838,1,,,,,,,,,,,,,,m,1,0.6838,,,,,,,,-0.02842649,-0.380113742,0,0,0,,0,131,131,55,1,ALLEY,LB,old,m,./images/ALLEYLB.png,,,,,,,,,,,,,,,,,,,,,,,,,,,,,,,,,,
,,,,,,,,,,,,,,,,,5f2ac55b23cc6d38be906090,58,2022-02-12_13h37.14.524,lexical_decision_task_DD_L5,2021.2.3,Linux x86_64,60.03121623,,,,,,,,,,,,1.4712,1,,,,,,,,,,,,,,z,1,1.4712,,,,,,,,-0.02842649,-0.380113742,0,0,0,,0,132,132,97,1,CHIDS,HB,old,z,./images/CHIDSHB.png,,,,,,,,,,,,,,,,,,,,,,,,,,,,,,,,,,
,,,,,,,,,,,,,,,,,5f2ac55b23cc6d38be906090,58,2022-02-12_13h37.14.524,lexical_decision_task_DD_L5,2021.2.3,Linux x86_64,60.03121623,,,,,,,,,,,,0.6594,1,,,,,,,,,,,,,,m,1,0.6594,,,,,,,,-0.02842649,-0.380113742,0,0,0,,0,133,133,68,1,VALLEY,C,old,m,./images/VALLEY.png,,,,,,,,,,,,,,,,,,,,,,,,,,,,,,,,,,
,,,,,,,,,,,,,,,,,5f2ac55b23cc6d38be906090,58,2022-02-12_13h37.14.524,lexical_decision_task_DD_L5,2021.2.3,Linux x86_64,60.03121623,,,,,,,,,,,,0.6107,1,,,,,,,,,,,,,,m,1,0.6107,,,,,,,,-0.02842649,-0.380113742,0,0,0,,0,134,134,0,1,WALNUT,HB,old,m,./images/WALNUTHB.png,,,,,,,,,,,,,,,,,,,,,,,,,,,,,,,,,,
,,,,,,,,,,,,,,,,,5f2ac55b23cc6d38be906090,58,2022-02-12_13h37.14.524,lexical_decision_task_DD_L5,2021.2.3,Linux x86_64,60.03121623,,,,,,,,,,,,0.9217,1,,,,,,,,,,,,,,z,1,0.9217,,,,,,,,-0.02842649,-0.380113742,0,0,0,,0,135,135,99,1,BACKY,C,old,z,./images/BACKY.png,,,,,,,,,,,,,,,,,,,,,,,,,,,,,,,,,,
,,,,,,,,,,,,,,,,,5f2ac55b23cc6d38be906090,58,2022-02-12_13h37.14.524,lexical_decision_task_DD_L5,2021.2.3,Linux x86_64,60.03121623,,,,,,,,,,,,0.6916,1,,,,,,,,,,,,,,m,1,0.6916,,,,,,,,-0.02842649,-0.380113742,0,0,0,,0,136,136,46,1,MUMMY,LB,old,m,./images/MUMMYLB.png,,,,,,,,,,,,,,,,,,,,,,,,,,,,,,,,,,
,,,,,,,,,,,,,,,,,5f2ac55b23cc6d38be906090,58,2022-02-12_13h37.14.524,lexical_decision_task_DD_L5,2021.2.3,Linux x86_64,60.03121623,,,,,,,,,,,,0.7301,1,,,,,,,,,,,,,,m,1,0.7301,,,,,,,,-0.02842649,-0.380113742,0,0,0,,0,137,137,63,1,BAKER,HB,old,m,./images/BAKERHB.png,,,,,,,,,,,,,,,,,,,,,,,,,,,,,,,,,,
,,,,,,,,,,,,,,,,,5f2ac55b23cc6d38be906090,58,2022-02-12_13h37.14.524,lexical_decision_task_DD_L5,2021.2.3,Linux x86_64,60.03121623,,,,,,,,,,,,0.6281,1,,,,,,,,,,,,,,m,1,0.6281,,,,,,,,-0.02842649,-0.380113742,0,0,0,,0,138,138,26,1,CLOUD,C,old,m,./images/CLOUD.png,,,,,,,,,,,,,,,,,,,,,,,,,,,,,,,,,,
,,,,,,,,,,,,,,,,,5f2ac55b23cc6d38be906090,58,2022-02-12_13h37.14.524,lexical_decision_task_DD_L5,2021.2.3,Linux x86_64,60.03121623,,,,,,,,,,,,0.9126,1,,,,,,,,,,,,,,z,1,0.9126,,,,,,,,-0.02842649,-0.380113742,0,0,0,,0,139,139,139,1,BLEAR,HB,old,z,./images/BLEARHB.png,,,,,,,,,,,,,,,,,,,,,,,,,,,,,,,,,,
,,,,,,,,,,,,,,,,,5f2ac55b23cc6d38be906090,58,2022-02-12_13h37.14.524,lexical_decision_task_DD_L5,2021.2.3,Linux x86_64,60.03121623,,,,,,,,,,,,1.1655,1,,,,,,,,,,,,,,z,1,1.1655,,,,,,,,-0.02842649,-0.380113742,0,0,0,,0,140,140,93,1,SMONE,C,old,z,./images/SMONE.png,,,,,,,,,,,,,,,,,,,,,,,,,,,,,,,,,,
,,,,,,,,,,,,,,,,,5f2ac55b23cc6d38be906090,58,2022-02-12_13h37.14.524,lexical_decision_task_DD_L5,2021.2.3,Linux x86_64,60.03121623,,,,,,,,,,,,0.9963,1,,,,,,,,,,,,,,m,1,0.9963,,,,,,,,-0.02842649,-0.380113742,0,0,0,,0,141,141,57,1,FERRY,HB,old,m,./images/FERRYHB.png,,,,,,,,,,,,,,,,,,,,,,,,,,,,,,,,,,
,,,,,,,,,,,,,,,,,5f2ac55b23cc6d38be906090,58,2022-02-12_13h37.14.524,lexical_decision_task_DD_L5,2021.2.3,Linux x86_64,60.03121623,,,,,,,,,,,,1.3692,1,,,,,,,,,,,,,,m,1,1.3692,,,,,,,,-0.02842649,-0.380113742,0,0,0,,0,142,142,51,1,SAUCE,HB,old,m,./images/SAUCEHB.png,,,,,,,,,,,,,,,,,,,,,,,,,,,,,,,,,,
,,,,,,,,,,,,,,,,,5f2ac55b23cc6d38be906090,58,2022-02-12_13h37.14.524,lexical_decision_task_DD_L5,2021.2.3,Linux x86_64,60.03121623,,,,,,,,,,,,1.7012,1,,,,,,,,,,,,,,z,1,1.7012,,,,,,,,-0.02842649,-0.380113742,0,0,0,,0,143,143,124,1,TUNCH,HB,old,z,./images/TUNCHHB.png,,,,,,,,,,,,,,,,,,,,,,,,,,,,,,,,,,
,,,,,,,,,,,,,,,,,5f2ac55b23cc6d38be906090,58,2022-02-12_13h37.14.524,lexical_decision_task_DD_L5,2021.2.3,Linux x86_64,60.03121623,,,,,,,,,,,,0.8029,1,,,,,,,,,,,,,,m,1,0.8029,,,,,,,,-0.02842649,-0.380113742,0,0,0,,0,144,144,79,1,RULER,LB,old,m,./images/RULERLB.png,,,,,,,,,,,,,,,,,,,,,,,,,,,,,,,,,,
,,,,,,,,,,,,,,,,,5f2ac55b23cc6d38be906090,58,2022-02-12_13h37.14.524,lexical_decision_task_DD_L5,2021.2.3,Linux x86_64,60.03121623,,,,,,,,,,,,0.9569,1,,,,,,,,,,,,,,z,1,0.9569,,,,,,,,-0.02842649,-0.380113742,0,0,0,,0,145,145,136,1,WERVE,HB,old,z,./images/WERVEHB.png,,,,,,,,,,,,,,,,,,,,,,,,,,,,,,,,,,
,,,,,,,,,,,,,,,,,5f2ac55b23cc6d38be906090,58,2022-02-12_13h37.14.524,lexical_decision_task_DD_L5,2021.2.3,Linux x86_64,60.03121623,,,,,,,,,,,,0.8485,1,,,,,,,,,,,,,,m,1,0.8485,,,,,,,,-0.02842649,-0.380113742,0,0,0,,0,146,146,62,1,MAMMAL,C,old,m,./images/MAMMAL.png,,,,,,,,,,,,,,,,,,,,,,,,,,,,,,,,,,
,,,,,,,,,,,,,,,,,5f2ac55b23cc6d38be906090,58,2022-02-12_13h37.14.524,lexical_decision_task_DD_L5,2021.2.3,Linux x86_64,60.03121623,,,,,,,,,,,,0.9667,1,,,,,,,,,,,,,,z,1,0.9667,,,,,,,,-0.02842649,-0.380113742,0,0,0,,0,147,147,164,1,SGREW,LB,old,z,./images/SGREWLB.png,,,,,,,,,,,,,,,,,,,,,,,,,,,,,,,,,,
,,,,,,,,,,,,,,,,,5f2ac55b23cc6d38be906090,58,2022-02-12_13h37.14.524,lexical_decision_task_DD_L5,2021.2.3,Linux x86_64,60.03121623,,,,,,,,,,,,0.6017,1,,,,,,,,,,,,,,m,1,0.6017,,,,,,,,-0.02842649,-0.380113742,0,0,0,,0,148,148,69,1,ARROW,HB,old,m,./images/ARROWHB.png,,,,,,,,,,,,,,,,,,,,,,,,,,,,,,,,,,
,,,,,,,,,,,,,,,,,5f2ac55b23cc6d38be906090,58,2022-02-12_13h37.14.524,lexical_decision_task_DD_L5,2021.2.3,Linux x86_64,60.03121623,,,,,,,,,,,,0.8109,1,,,,,,,,,,,,,,z,1,0.8109,,,,,,,,-0.02842649,-0.380113742,0,0,0,,0,149,149,86,1,AIFED,LB,old,z,./images/AIFEDLB.png,,,,,,,,,,,,,,,,,,,,,,,,,,,,,,,,,,
,,,,,,,,,,,,,,,,,5f2ac55b23cc6d38be906090,58,2022-02-12_13h37.14.524,lexical_decision_task_DD_L5,2021.2.3,Linux x86_64,60.03121623,,,,,,,,,,,,0.9948,1,,,,,,,,,,,,,,m,1,0.9948,,,,,,,,-0.02842649,-0.380113742,0,0,0,,0,150,150,6,1,STAIN,HB,old,m,./images/STAINHB.png,,,,,,,,,,,,,,,,,,,,,,,,,,,,,,,,,,
,,,,,,,,,,,,,,,,,5f2ac55b23cc6d38be906090,58,2022-02-12_13h37.14.524,lexical_decision_task_DD_L5,2021.2.3,Linux x86_64,60.03121623,,,,,,,,,,,,0.8903,1,,,,,,,,,,,,,,m,1,0.8903,,,,,,,,-0.02842649,-0.380113742,0,0,0,,0,151,151,80,1,PLANET,C,old,m,./images/PLANET.png,,,,,,,,,,,,,,,,,,,,,,,,,,,,,,,,,,
,,,,,,,,,,,,,,,,,5f2ac55b23cc6d38be906090,58,2022-02-12_13h37.14.524,lexical_decision_task_DD_L5,2021.2.3,Linux x86_64,60.03121623,,,,,,,,,,,,1.2852,1,,,,,,,,,,,,,,m,1,1.2852,,,,,,,,-0.02842649,-0.380113742,0,0,0,,0,152,152,9,1,DIVER,HB,old,m,./images/DIVERHB.png,,,,,,,,,,,,,,,,,,,,,,,,,,,,,,,,,,
,,,,,,,,,,,,,,,,,5f2ac55b23cc6d38be906090,58,2022-02-12_13h37.14.524,lexical_decision_task_DD_L5,2021.2.3,Linux x86_64,60.03121623,,,,,,,,,,,,0.7808,1,,,,,,,,,,,,,,m,1,0.7808,,,,,,,,-0.02842649,-0.380113742,0,0,0,,0,153,153,14,1,FENCE,C,old,m,./images/FENCE.png,,,,,,,,,,,,,,,,,,,,,,,,,,,,,,,,,,
,,,,,,,,,,,,,,,,,5f2ac55b23cc6d38be906090,58,2022-02-12_13h37.14.524,lexical_decision_task_DD_L5,2021.2.3,Linux x86_64,60.03121623,,,,,,,,,,,,0.806,1,,,,,,,,,,,,,,m,1,0.806,,,,,,,,-0.02842649,-0.380113742,0,0,0,,0,154,154,72,1,FLASK,HB,old,m,./images/FLASKHB.png,,,,,,,,,,,,,,,,,,,,,,,,,,,,,,,,,,
,,,,,,,,,,,,,,,,,5f2ac55b23cc6d38be906090,58,2022-02-12_13h37.14.524,lexical_decision_task_DD_L5,2021.2.3,Linux x86_64,60.03121623,,,,,,,,,,,,0.9332,1,,,,,,,,,,,,,,m,1,0.9332,,,,,,,,-0.02842649,-0.380113742,0,0,0,,0,155,155,4,1,BOXER,LB,old,m,./images/BOXERLB.png,,,,,,,,,,,,,,,,,,,,,,,,,,,,,,,,,,
,,,,,,,,,,,,,,,,,5f2ac55b23cc6d38be906090,58,2022-02-12_13h37.14.524,lexical_decision_task_DD_L5,2021.2.3,Linux x86_64,60.03121623,,,,,,,,,,,,0.8178,1,,,,,,,,,,,,,,m,1,0.8178,,,,,,,,-0.02842649,-0.380113742,0,0,0,,0,156,156,23,1,CLOTH,C,old,m,./images/CLOTH.png,,,,,,,,,,,,,,,,,,,,,,,,,,,,,,,,,,
,,,,,,,,,,,,,,,,,5f2ac55b23cc6d38be906090,58,2022-02-12_13h37.14.524,lexical_decision_task_DD_L5,2021.2.3,Linux x86_64,60.03121623,,,,,,,,,,,,0.8845,1,,,,,,,,,,,,,,m,1,0.8845,,,,,,,,-0.02842649,-0.380113742,0,0,0,,0,157,157,67,1,POKER,LB,old,m,./images/POKERLB.png,,,,,,,,,,,,,,,,,,,,,,,,,,,,,,,,,,
,,,,,,,,,,,,,,,,,5f2ac55b23cc6d38be906090,58,2022-02-12_13h37.14.524,lexical_decision_task_DD_L5,2021.2.3,Linux x86_64,60.03121623,,,,,,,,,,,,0.9272,1,,,,,,,,,,,,,,z,1,0.9272,,,,,,,,-0.02842649,-0.380113742,0,0,0,,0,158,158,122,1,BLOOT,LB,old,z,./images/BLOOTLB.png,,,,,,,,,,,,,,,,,,,,,,,,,,,,,,,,,,
,,,,,,,,,,,,,,,,,5f2ac55b23cc6d38be906090,58,2022-02-12_13h37.14.524,lexical_decision_task_DD_L5,2021.2.3,Linux x86_64,60.03121623,,,,,,,,,,,,0.6338,1,,,,,,,,,,,,,,m,1,0.6338,,,,,,,,-0.02842649,-0.380113742,0,0,0,,0,159,159,31,1,STEAK,LB,old,m,./images/STEAKLB.png,,,,,,,,,,,,,,,,,,,,,,,,,,,,,,,,,,
,,,,,,,,,,,,,,,,,5f2ac55b23cc6d38be906090,58,2022-02-12_13h37.14.524,lexical_decision_task_DD_L5,2021.2.3,Linux x86_64,60.03121623,,,,,,,,,,,,1.6569,1,,,,,,,,,,,,,,m,1,1.6569,,,,,,,,-0.02842649,-0.380113742,0,0,0,,0,160,160,3,1,CRATER,HB,old,m,./images/CRATERHB.png,,,,,,,,,,,,,,,,,,,,,,,,,,,,,,,,,,
,,,,,,,,,,,,,,,,,5f2ac55b23cc6d38be906090,58,2022-02-12_13h37.14.524,lexical_decision_task_DD_L5,2021.2.3,Linux x86_64,60.03121623,,,,,,,,,,,,0.6485,1,,,,,,,,,,,,,,m,1,0.6485,,,,,,,,-0.02842649,-0.380113742,0,0,0,,0,161,161,53,1,POSTER,C,old,m,./images/POSTER.png,,,,,,,,,,,,,,,,,,,,,,,,,,,,,,,,,,
,,,,,,,,,,,,,,,,,5f2ac55b23cc6d38be906090,58,2022-02-12_13h37.14.524,lexical_decision_task_DD_L5,2021.2.3,Linux x86_64,60.03121623,,,,,,,,,,,,0.6958,1,,,,,,,,,,,,,,m,1,0.6958,,,,,,,,-0.02842649,-0.380113742,0,0,0,,0,162,162,58,1,CANOE,LB,old,m,./images/CANOELB.png,,,,,,,,,,,,,,,,,,,,,,,,,,,,,,,,,,
,,,,,,,,,,,,,,,,,5f2ac55b23cc6d38be906090,58,2022-02-12_13h37.14.524,lexical_decision_task_DD_L5,2021.2.3,Linux x86_64,60.03121623,,,,,,,,,,,,3.6223,1,,,,,,,,,,,,,,z,1,3.6223,,,,,,,,-0.02842649,-0.380113742,0,0,0,,0,163,163,120,1,RINED,C,old,z,./images/RINED.png,,,,,,,,,,,,,,,,,,,,,,,,,,,,,,,,,,
,,,,,,,,,,,,,,,,,5f2ac55b23cc6d38be906090,58,2022-02-12_13h37.14.524,lexical_decision_task_DD_L5,2021.2.3,Linux x86_64,60.03121623,,,,,,,,,,,,1.2926,1,,,,,,,,,,,,,,m,1,1.2926,,,,,,,,-0.02842649,-0.380113742,0,0,0,,0,164,164,45,1,MONKEY,HB,old,m,./images/MONKEYHB.png,,,,,,,,,,,,,,,,,,,,,,,,,,,,,,,,,,
,,,,,,,,,,,,,,,,,5f2ac55b23cc6d38be906090,58,2022-02-12_13h37.14.524,lexical_decision_task_DD_L5,2021.2.3,Linux x86_64,60.03121623,,,,,,,,,,,,0.4905,1,,,,,,,,,,,,,,m,1,0.4905,,,,,,,,-0.02842649,-0.380113742,0,0,0,,0,165,165,38,1,ENGINE,C,old,m,./images/ENGINE.png,,,,,,,,,,,,,,,,,,,,,,,,,,,,,,,,,,
,,,,,,,,,,,,,,,,,5f2ac55b23cc6d38be906090,58,2022-02-12_13h37.14.524,lexical_decision_task_DD_L5,2021.2.3,Linux x86_64,60.03121623,,,,,,,,,,,,0.6369,1,,,,,,,,,,,,,,m,1,0.6369,,,,,,,,-0.02842649,-0.380113742,0,0,0,,0,166,166,47,1,LAGOON,C,old,m,./images/LAGOON.png,,,,,,,,,,,,,,,,,,,,,,,,,,,,,,,,,,
,,,,,,,,,,,,,,,,,5f2ac55b23cc6d38be906090,58,2022-02-12_13h37.14.524,lexical_decision_task_DD_L5,2021.2.3,Linux x86_64,60.03121623,,,,,,,,,,,,0.8723,1,,,,,,,,,,,,,,m,1,0.8723,,,,,,,,-0.02842649,-0.380113742,0,0,0,,0,167,167,21,1,DANCER,HB,old,m,./images/DANCERHB.png,,,,,,,,,,,,,,,,,,,,,,,,,,,,,,,,,,
,,,,,,,,,,,,,,,,,5f2ac55b23cc6d38be906090,58,2022-02-12_13h37.14.524,lexical_decision_task_DD_L5,2021.2.3,Linux x86_64,60.03121623,,,,,,,,,,,,,,,,,,,,,,,,,,,,,,,,,,,,,,,,,,,,,,,,,How likely will it be that you will recognize the words presented slighly blurred on a scale of 0 (not likely) to 100 (most likely)?,,,,,-0.002956292,-0.412850514,1,0,0,jol_adv,4,8.0943,0,0,0,1,1,,,,,,,,,,,,,,,,,,,,
,,,,,,,,,,,,,,,,,5f2ac55b23cc6d38be906090,58,2022-02-12_13h37.14.524,lexical_decision_task_DD_L5,2021.2.3,Linux x86_64,60.03121623,,,,,,,,,,,,,,,,,,,,,,,,,,,,,,,,,,,,,,,,,,,,,,,,,How likely will it be that you will recognize the words presented very blurred on a scale of 0 (not likely) to 100 (most likely)?,,,,,,,,,,,4,6.8392,0,1,1,2,1,,,,,,,,,,,,,,,,,,,,
,,,,,,,,,,,,,,,,,5f2ac55b23cc6d38be906090,58,2022-02-12_13h37.14.524,lexical_decision_task_DD_L5,2021.2.3,Linux x86_64,60.03121623,,,,,,,,,,,,,,,,,,,,,,,,,,,,,,,,,,,,,,,,,,,,,,,,,How likely will it be that you will recognize the words presented clearly on a scale of 0 (not likely) to 100 (most likely)?,,,,,,,,,,,6,5.4117,0,2,2,0,1,,,,,,,,,,,,,,,,,,,,
space,0.139171135,-0.498865552,0,0,0,,,,,,,1,test,"In the next phase you will be presented with the words from the the first phase. Your job is to decide whether you remember seeing the word or not. If you remember seeing the word press ""old"" or type ""m"". If you do not remember seeing the word press ""new"" or type ""z"". Please press the space bar or click on continue to begin. ",,,5f2ac55b23cc6d38be906090,58,2022-02-12_13h37.14.524,lexical_decision_task_DD_L5,2021.2.3,Linux x86_64,60.03121623,18.283,,,,,,,,,,,,,,,,,,,,,,,,,,,,,,,,,,,,,,,,,,,,,,,,,,,,,,,,,,,,,,,,,,0,0,0,0,1,,,,,,,,,,,,,,,
,0.070020563,-0.397864461,1,0,0,instr_done_button,,,,,,1,test,"In the next phase you will be presented with the words from the the first phase. Your job is to decide whether you remember seeing the word or not. If you remember seeing the word press ""old"" or type ""m"". If you do not remember seeing the word press ""new"" or type ""z"". Please press the space bar or click on continue to begin. ",,,5f2ac55b23cc6d38be906090,58,2022-02-12_13h37.14.524,lexical_decision_task_DD_L5,2021.2.3,Linux x86_64,60.03121623,,,,,,,,,,,,,,,,,,,,,,,,,,,,,,,,,,,,,,,,,,,,,,,,,,,,,,,,,,,,,,,,,,,1,0,1,0,1,,,,,,,,,,,,,,,
space,0.070020563,-0.397864461,0,0,0,,,,,,,1,test,"In the next phase you will be presented with the words from the the first phase. Your job is to decide whether you remember seeing the word or not. If you remember seeing the word press ""old"" or type ""m"". If you do not remember seeing the word press ""new"" or type ""z"". Please press the space bar or click on continue to begin. ",,,5f2ac55b23cc6d38be906090,58,2022-02-12_13h37.14.524,lexical_decision_task_DD_L5,2021.2.3,Linux x86_64,60.03121623,3.3437,,,,,,,,,,,,,,,,,,,,,,,,,,,,,,,,,,,,,,,,,,,,,,,,,,,,,,,,,,,,,,,,,,2,0,2,0,1,,,,,,,,,,,,,,,
space,0.17186247,-0.330189527,0,0,0,,,,,,,1,test,"In the next phase you will be presented with the words from the the first phase. Your job is to decide whether you remember seeing the word or not. If you remember seeing the word press ""old"" or type ""m"". If you do not remember seeing the word press ""new"" or type ""z"". Please press the space bar or click on continue to begin. ",,,5f2ac55b23cc6d38be906090,58,2022-02-12_13h37.14.524,lexical_decision_task_DD_L5,2021.2.3,Linux x86_64,60.03121623,7.6729,,,,,,,,,,,,,,,,,,,,,,,,,,,,,,,,,,,,,,,,,,,,,,,,,,,,,,,,,,,,,,,,,,3,0,3,0,1,,,,,,,,,,,,,,,
,0.007128072,-0.390955338,1,0,0,instr_done_button,,,,,,1,test,"In the next phase you will be presented with the words from the the first phase. Your job is to decide whether you remember seeing the word or not. If you remember seeing the word press ""old"" or type ""m"". If you do not remember seeing the word press ""new"" or type ""z"". Please press the space bar or click on continue to begin. ",,,5f2ac55b23cc6d38be906090,58,2022-02-12_13h37.14.524,lexical_decision_task_DD_L5,2021.2.3,Linux x86_64,60.03121623,,,,,,,,,,,,,,,,,,,,,,,,,,,,,,,,,,,,,,,,,,,,,,,,,,,,,,,,,,,,,,,,,,,4,0,4,0,1,,,,,,,,,,,,,,,
,,,,,,,,,,,,,,,,,5f2ac55b23cc6d38be906090,58,2022-02-12_13h37.14.524,lexical_decision_task_DD_L5,2021.2.3,Linux x86_64,60.03121623,,,,,,,,,,,,5.8534,1,,,,,,,,,,,,,,,,,,,,,,,,0.007128072,-0.390955338,0,0,0,,,,,,,BASKET,C,m,y,./images/BASKET.png,,,,,,,,,,,,,,,,,,,,m,1,5.8534,,,,,,,,0,0,0,44,1
,,,,,,,,,,,,,,,,,5f2ac55b23cc6d38be906090,58,2022-02-12_13h37.14.524,lexical_decision_task_DD_L5,2021.2.3,Linux x86_64,60.03121623,,,,,,,,,,,,1.6274,1,,,,,,,,,,,,,,,,,,,,,,,,0.007128072,-0.390955338,0,0,0,,,,,,,BISHOP,LB,m,y,./images/BISHOPLB.png,,,,,,,,,,,,,,,,,,,,m,1,1.6274,,,,,,,,0,1,1,49,1
,,,,,,,,,,,,,,,,,5f2ac55b23cc6d38be906090,58,2022-02-12_13h37.14.524,lexical_decision_task_DD_L5,2021.2.3,Linux x86_64,60.03121623,,,,,,,,,,,,0.7098,1,,,,,,,,,,,,,,,,,,,,,,,,0.007128072,-0.390955338,0,0,0,,,,,,,ENGINE,C,m,y,./images/ENGINE.png,,,,,,,,,,,,,,,,,,,,m,1,0.7098,,,,,,,,0,2,2,38,1
,,,,,,,,,,,,,,,,,5f2ac55b23cc6d38be906090,58,2022-02-12_13h37.14.524,lexical_decision_task_DD_L5,2021.2.3,Linux x86_64,60.03121623,,,,,,,,,,,,0.7983,1,,,,,,,,,,,,,,,,,,,,,,,,0.007128072,-0.390955338,0,0,0,,,,,,,DONKEY,LB,m,y,./images/DONKEYLB.png,,,,,,,,,,,,,,,,,,,,m,1,0.7983,,,,,,,,0,3,3,19,1
,,,,,,,,,,,,,,,,,5f2ac55b23cc6d38be906090,58,2022-02-12_13h37.14.524,lexical_decision_task_DD_L5,2021.2.3,Linux x86_64,60.03121623,,,,,,,,,,,,0.7212,1,,,,,,,,,,,,,,,,,,,,,,,,0.007128072,-0.390955338,0,0,0,,,,,,,BRIDE,LB,m,y,./images/BRIDELB.png,,,,,,,,,,,,,,,,,,,,m,1,0.7212,,,,,,,,0,4,4,64,1
,,,,,,,,,,,,,,,,,5f2ac55b23cc6d38be906090,58,2022-02-12_13h37.14.524,lexical_decision_task_DD_L5,2021.2.3,Linux x86_64,60.03121623,,,,,,,,,,,,1.5544,1,,,,,,,,,,,,,,,,,,,,,,,,0.007128072,-0.390955338,0,0,0,,,,,,,SHELF,HB,z,y,./images/SHELFHB.png,,,,,,,,,,,,,,,,,,,,z,1,1.5544,,,,,,,,0,5,5,123,1
,,,,,,,,,,,,,,,,,5f2ac55b23cc6d38be906090,58,2022-02-12_13h37.14.524,lexical_decision_task_DD_L5,2021.2.3,Linux x86_64,60.03121623,,,,,,,,,,,,2.408,0,,,,,,,,,,,,,,,,,,,,,,,,0.007128072,-0.390955338,0,0,0,,,,,,,FENCE,C,m,y,./images/FENCE.png,,,,,,,,,,,,,,,,,,,,z,0,2.408,,,,,,,,0,6,6,14,1
,,,,,,,,,,,,,,,,,5f2ac55b23cc6d38be906090,58,2022-02-12_13h37.14.524,lexical_decision_task_DD_L5,2021.2.3,Linux x86_64,60.03121623,,,,,,,,,,,,1.6837,0,,,,,,,,,,,,,,,,,,,,,,,,0.007128072,-0.390955338,0,0,0,,,,,,,ATTIC,HB,z,y,./images/ATTICHB.png,,,,,,,,,,,,,,,,,,,,m,0,1.6837,,,,,,,,0,7,7,111,1
,,,,,,,,,,,,,,,,,5f2ac55b23cc6d38be906090,58,2022-02-12_13h37.14.524,lexical_decision_task_DD_L5,2021.2.3,Linux x86_64,60.03121623,,,,,,,,,,,,0.8987,0,,,,,,,,,,,,,,,,,,,,,,,,0.007128072,-0.390955338,0,0,0,,,,,,,GLOVE,LB,m,y,./images/GLOVELB.png,,,,,,,,,,,,,,,,,,,,z,0,0.8987,,,,,,,,0,8,8,73,1
,,,,,,,,,,,,,,,,,5f2ac55b23cc6d38be906090,58,2022-02-12_13h37.14.524,lexical_decision_task_DD_L5,2021.2.3,Linux x86_64,60.03121623,,,,,,,,,,,,0.8444,1,,,,,,,,,,,,,,,,,,,,,,,,0.007128072,-0.390955338,0,0,0,,,,,,,URINE,LB,z,y,./images/URINELB.png,,,,,,,,,,,,,,,,,,,,z,1,0.8444,,,,,,,,0,9,9,154,1
,,,,,,,,,,,,,,,,,5f2ac55b23cc6d38be906090,58,2022-02-12_13h37.14.524,lexical_decision_task_DD_L5,2021.2.3,Linux x86_64,60.03121623,,,,,,,,,,,,1.7986,0,,,,,,,,,,,,,,,,,,,,,,,,0.007128072,-0.390955338,0,0,0,,,,,,,RULER,LB,m,y,./images/RULERLB.png,,,,,,,,,,,,,,,,,,,,z,0,1.7986,,,,,,,,0,10,10,79,1
,,,,,,,,,,,,,,,,,5f2ac55b23cc6d38be906090,58,2022-02-12_13h37.14.524,lexical_decision_task_DD_L5,2021.2.3,Linux x86_64,60.03121623,,,,,,,,,,,,1.0803,0,,,,,,,,,,,,,,,,,,,,,,,,0.007128072,-0.391163875,0,0,0,,,,,,,TOWEL,LB,m,y,./images/TOWELLB.png,,,,,,,,,,,,,,,,,,,,z,0,1.0803,,,,,,,,0,11,11,1,1
,,,,,,,,,,,,,,,,,5f2ac55b23cc6d38be906090,58,2022-02-12_13h37.14.524,lexical_decision_task_DD_L5,2021.2.3,Linux x86_64,60.03121623,,,,,,,,,,,,0.9293,1,,,,,,,,,,,,,,,,,,,,,,,,0.007128072,-0.391163875,0,0,0,,,,,,,TULIP,C,z,y,./images/TULIP.png,,,,,,,,,,,,,,,,,,,,z,1,0.9293,,,,,,,,0,12,12,92,1
,,,,,,,,,,,,,,,,,5f2ac55b23cc6d38be906090,58,2022-02-12_13h37.14.524,lexical_decision_task_DD_L5,2021.2.3,Linux x86_64,60.03121623,,,,,,,,,,,,1.2865,1,,,,,,,,,,,,,,,,,,,,,,,,0.007128072,-0.391163875,0,0,0,,,,,,,NOOSE,HB,z,y,./images/NOOSEHB.png,,,,,,,,,,,,,,,,,,,,z,1,1.2865,,,,,,,,0,13,13,156,1
,,,,,,,,,,,,,,,,,5f2ac55b23cc6d38be906090,58,2022-02-12_13h37.14.524,lexical_decision_task_DD_L5,2021.2.3,Linux x86_64,60.03121623,,,,,,,,,,,,1.0253,0,,,,,,,,,,,,,,,,,,,,,,,,0.007128072,-0.391163875,0,0,0,,,,,,,FLASK,HB,m,y,./images/FLASKHB.png,,,,,,,,,,,,,,,,,,,,z,0,1.0253,,,,,,,,0,14,14,72,1
,,,,,,,,,,,,,,,,,5f2ac55b23cc6d38be906090,58,2022-02-12_13h37.14.524,lexical_decision_task_DD_L5,2021.2.3,Linux x86_64,60.03121623,,,,,,,,,,,,0.9412,1,,,,,,,,,,,,,,,,,,,,,,,,0.007128072,-0.391163875,0,0,0,,,,,,,STATUE,HB,m,y,./images/STATUEHB.png,,,,,,,,,,,,,,,,,,,,m,1,0.9412,,,,,,,,0,15,15,66,1
,,,,,,,,,,,,,,,,,5f2ac55b23cc6d38be906090,58,2022-02-12_13h37.14.524,lexical_decision_task_DD_L5,2021.2.3,Linux x86_64,60.03121623,,,,,,,,,,,,0.8294,1,,,,,,,,,,,,,,,,,,,,,,,,0.007128072,-0.391163875,0,0,0,,,,,,,KIDNEY,HB,z,y,./images/KIDNEYHB.png,,,,,,,,,,,,,,,,,,,,z,1,0.8294,,,,,,,,0,16,16,105,1
,,,,,,,,,,,,,,,,,5f2ac55b23cc6d38be906090,58,2022-02-12_13h37.14.524,lexical_decision_task_DD_L5,2021.2.3,Linux x86_64,60.03121623,,,,,,,,,,,,1.3826,1,,,,,,,,,,,,,,,,,,,,,,,,0.007128072,-0.391163875,0,0,0,,,,,,,PILOT,C,m,y,./images/PILOT.png,,,,,,,,,,,,,,,,,,,,m,1,1.3826,,,,,,,,0,17,17,50,1
,,,,,,,,,,,,,,,,,5f2ac55b23cc6d38be906090,58,2022-02-12_13h37.14.524,lexical_decision_task_DD_L5,2021.2.3,Linux x86_64,60.03121623,,,,,,,,,,,,1.4025,0,,,,,,,,,,,,,,,,,,,,,,,,0.007128072,-0.391163875,0,0,0,,,,,,,BLOKE,HB,m,y,./images/BLOKEHB.png,,,,,,,,,,,,,,,,,,,,z,0,1.4025,,,,,,,,0,18,18,12,1
,,,,,,,,,,,,,,,,,5f2ac55b23cc6d38be906090,58,2022-02-12_13h37.14.524,lexical_decision_task_DD_L5,2021.2.3,Linux x86_64,60.03121623,,,,,,,,,,,,1.4034,0,,,,,,,,,,,,,,,,,,,,,,,,0.007128072,-0.391163875,0,0,0,,,,,,,MOSQUE,LB,z,y,./images/MOSQUELB.png,,,,,,,,,,,,,,,,,,,,m,0,1.4034,,,,,,,,0,19,19,127,1
,,,,,,,,,,,,,,,,,5f2ac55b23cc6d38be906090,58,2022-02-12_13h37.14.524,lexical_decision_task_DD_L5,2021.2.3,Linux x86_64,60.03121623,,,,,,,,,,,,1.4521,0,,,,,,,,,,,,,,,,,,,,,,,,0.007128072,-0.391163875,0,0,0,,,,,,,WALRUS,C,z,y,./images/WALRUS.png,,,,,,,,,,,,,,,,,,,,m,0,1.4521,,,,,,,,0,20,20,107,1
,,,,,,,,,,,,,,,,,5f2ac55b23cc6d38be906090,58,2022-02-12_13h37.14.524,lexical_decision_task_DD_L5,2021.2.3,Linux x86_64,60.03121623,,,,,,,,,,,,1.913,0,,,,,,,,,,,,,,,,,,,,,,,,0.007128072,-0.391163875,0,0,0,,,,,,,MONKEY,HB,m,y,./images/MONKEYHB.png,,,,,,,,,,,,,,,,,,,,z,0,1.913,,,,,,,,0,21,21,45,1
,,,,,,,,,,,,,,,,,5f2ac55b23cc6d38be906090,58,2022-02-12_13h37.14.524,lexical_decision_task_DD_L5,2021.2.3,Linux x86_64,60.03121623,,,,,,,,,,,,1.124,0,,,,,,,,,,,,,,,,,,,,,,,,0.007336609,-0.391789485,0,0,0,,,,,,,CANDLE,LB,z,y,./images/CANDLELB.png,,,,,,,,,,,,,,,,,,,,m,0,1.124,,,,,,,,0,22,22,145,1
,,,,,,,,,,,,,,,,,5f2ac55b23cc6d38be906090,58,2022-02-12_13h37.14.524,lexical_decision_task_DD_L5,2021.2.3,Linux x86_64,60.03121623,,,,,,,,,,,,1.637,0,,,,,,,,,,,,,,,,,,,,,,,,0.007336609,-0.391789485,0,0,0,,,,,,,POKER,LB,m,y,./images/POKERLB.png,,,,,,,,,,,,,,,,,,,,z,0,1.637,,,,,,,,0,23,23,67,1
,,,,,,,,,,,,,,,,,5f2ac55b23cc6d38be906090,58,2022-02-12_13h37.14.524,lexical_decision_task_DD_L5,2021.2.3,Linux x86_64,60.03121623,,,,,,,,,,,,1.8292,1,,,,,,,,,,,,,,,,,,,,,,,,0.007336609,-0.389599849,0,0,0,,,,,,,WHISKY,C,m,y,./images/WHISKY.png,,,,,,,,,,,,,,,,,,,,m,1,1.8292,,,,,,,,0,24,24,83,1
,,,,,,,,,,,,,,,,,5f2ac55b23cc6d38be906090,58,2022-02-12_13h37.14.524,lexical_decision_task_DD_L5,2021.2.3,Linux x86_64,60.03121623,,,,,,,,,,,,1.2542,1,,,,,,,,,,,,,,,,,,,,,,,,0.007336609,-0.389599849,0,0,0,,,,,,,CRUST,LB,z,y,./images/CRUSTLB.png,,,,,,,,,,,,,,,,,,,,z,1,1.2542,,,,,,,,0,25,25,163,1
,,,,,,,,,,,,,,,,,5f2ac55b23cc6d38be906090,58,2022-02-12_13h37.14.524,lexical_decision_task_DD_L5,2021.2.3,Linux x86_64,60.03121623,,,,,,,,,,,,1.1422,1,,,,,,,,,,,,,,,,,,,,,,,,0.007336609,-0.390642476,0,0,0,,,,,,,ALLEY,LB,m,y,./images/ALLEYLB.png,,,,,,,,,,,,,,,,,,,,m,1,1.1422,,,,,,,,0,26,26,55,1
,,,,,,,,,,,,,,,,,5f2ac55b23cc6d38be906090,58,2022-02-12_13h37.14.524,lexical_decision_task_DD_L5,2021.2.3,Linux x86_64,60.03121623,,,,,,,,,,,,1.3124,1,,,,,,,,,,,,,,,,,,,,,,,,0.007649414,-0.390329671,0,0,0,,,,,,,GREASE,HB,z,y,./images/GREASEHB.png,,,,,,,,,,,,,,,,,,,,z,1,1.3124,,,,,,,,0,27,27,99,1
,,,,,,,,,,,,,,,,,5f2ac55b23cc6d38be906090,58,2022-02-12_13h37.14.524,lexical_decision_task_DD_L5,2021.2.3,Linux x86_64,60.03121623,,,,,,,,,,,,0.8113,1,,,,,,,,,,,,,,,,,,,,,,,,0.007649414,-0.390329671,0,0,0,,,,,,,CLOWN,LB,m,y,./images/CLOWNLB.png,,,,,,,,,,,,,,,,,,,,m,1,0.8113,,,,,,,,0,28,28,22,1
,,,,,,,,,,,,,,,,,5f2ac55b23cc6d38be906090,58,2022-02-12_13h37.14.524,lexical_decision_task_DD_L5,2021.2.3,Linux x86_64,60.03121623,,,,,,,,,,,,0.7379,0,,,,,,,,,,,,,,,,,,,,,,,,0.007649414,-0.390329671,0,0,0,,,,,,,SCREW,HB,z,y,./images/SCREWHB.png,,,,,,,,,,,,,,,,,,,,m,0,0.7379,,,,,,,,0,29,29,108,1
,,,,,,,,,,,,,,,,,5f2ac55b23cc6d38be906090,58,2022-02-12_13h37.14.524,lexical_decision_task_DD_L5,2021.2.3,Linux x86_64,60.03121623,,,,,,,,,,,,0.7691,1,,,,,,,,,,,,,,,,,,,,,,,,0.007649414,-0.390329671,0,0,0,,,,,,,MIDGET,LB,m,y,./images/MIDGETLB.png,,,,,,,,,,,,,,,,,,,,m,1,0.7691,,,,,,,,0,30,30,76,1
,,,,,,,,,,,,,,,,,5f2ac55b23cc6d38be906090,58,2022-02-12_13h37.14.524,lexical_decision_task_DD_L5,2021.2.3,Linux x86_64,60.03121623,,,,,,,,,,,,1.0567,1,,,,,,,,,,,,,,,,,,,,,,,,0.007649414,-0.390329671,0,0,0,,,,,,,STREAM,C,m,y,./images/STREAM.png,,,,,,,,,,,,,,,,,,,,m,1,1.0567,,,,,,,,0,31,31,41,1
,,,,,,,,,,,,,,,,,5f2ac55b23cc6d38be906090,58,2022-02-12_13h37.14.524,lexical_decision_task_DD_L5,2021.2.3,Linux x86_64,60.03121623,,,,,,,,,,,,0.8393,1,,,,,,,,,,,,,,,,,,,,,,,,0.007649414,-0.390329671,0,0,0,,,,,,,BUBBLE,C,m,y,./images/BUBBLE.png,,,,,,,,,,,,,,,,,,,,m,1,0.8393,,,,,,,,0,32,32,71,1
,,,,,,,,,,,,,,,,,5f2ac55b23cc6d38be906090,58,2022-02-12_13h37.14.524,lexical_decision_task_DD_L5,2021.2.3,Linux x86_64,60.03121623,,,,,,,,,,,,0.8491,1,,,,,,,,,,,,,,,,,,,,,,,,0.007649414,-0.390329671,0,0,0,,,,,,,CLOUD,C,m,y,./images/CLOUD.png,,,,,,,,,,,,,,,,,,,,m,1,0.8491,,,,,,,,0,33,33,26,1
,,,,,,,,,,,,,,,,,5f2ac55b23cc6d38be906090,58,2022-02-12_13h37.14.524,lexical_decision_task_DD_L5,2021.2.3,Linux x86_64,60.03121623,,,,,,,,,,,,0.7028,1,,,,,,,,,,,,,,,,,,,,,,,,0.007649414,-0.390329671,0,0,0,,,,,,,DRUMS,LB,z,y,./images/DRUMSLB.png,,,,,,,,,,,,,,,,,,,,z,1,0.7028,,,,,,,,0,34,34,133,1
,,,,,,,,,,,,,,,,,5f2ac55b23cc6d38be906090,58,2022-02-12_13h37.14.524,lexical_decision_task_DD_L5,2021.2.3,Linux x86_64,60.03121623,,,,,,,,,,,,1.7822,0,,,,,,,,,,,,,,,,,,,,,,,,0.007649414,-0.390329671,0,0,0,,,,,,,PICKLE,C,z,y,./images/PICKLE.png,,,,,,,,,,,,,,,,,,,,m,0,1.7822,,,,,,,,0,35,35,98,1
,,,,,,,,,,,,,,,,,5f2ac55b23cc6d38be906090,58,2022-02-12_13h37.14.524,lexical_decision_task_DD_L5,2021.2.3,Linux x86_64,60.03121623,,,,,,,,,,,,0.951,1,,,,,,,,,,,,,,,,,,,,,,,,0.007649414,-0.390329671,0,0,0,,,,,,,DIVER,HB,m,y,./images/DIVERHB.png,,,,,,,,,,,,,,,,,,,,m,1,0.951,,,,,,,,0,36,36,9,1
,,,,,,,,,,,,,,,,,5f2ac55b23cc6d38be906090,58,2022-02-12_13h37.14.524,lexical_decision_task_DD_L5,2021.2.3,Linux x86_64,60.03121623,,,,,,,,,,,,1.0093,1,,,,,,,,,,,,,,,,,,,,,,,,0.007753682,-0.390746745,0,0,0,,,,,,,THROAT,HB,z,y,./images/THROATHB.png,,,,,,,,,,,,,,,,,,,,z,1,1.0093,,,,,,,,0,37,37,120,1
,,,,,,,,,,,,,,,,,5f2ac55b23cc6d38be906090,58,2022-02-12_13h37.14.524,lexical_decision_task_DD_L5,2021.2.3,Linux x86_64,60.03121623,,,,,,,,,,,,1.1705,1,,,,,,,,,,,,,,,,,,,,,,,,0.007753682,-0.390746745,0,0,0,,,,,,,STEAK,LB,m,y,./images/STEAKLB.png,,,,,,,,,,,,,,,,,,,,m,1,1.1705,,,,,,,,0,38,38,31,1
,,,,,,,,,,,,,,,,,5f2ac55b23cc6d38be906090,58,2022-02-12_13h37.14.524,lexical_decision_task_DD_L5,2021.2.3,Linux x86_64,60.03121623,,,,,,,,,,,,0.7979,0,,,,,,,,,,,,,,,,,,,,,,,,0.007753682,-0.390746745,0,0,0,,,,,,,MIRROR,HB,z,y,./images/MIRRORHB.png,,,,,,,,,,,,,,,,,,,,m,0,0.7979,,,,,,,,0,39,39,147,1
,,,,,,,,,,,,,,,,,5f2ac55b23cc6d38be906090,58,2022-02-12_13h37.14.524,lexical_decision_task_DD_L5,2021.2.3,Linux x86_64,60.03121623,,,,,,,,,,,,0.765,1,,,,,,,,,,,,,,,,,,,,,,,,0.007753682,-0.390746745,0,0,0,,,,,,,BERRY,C,z,y,./images/BERRY.png,,,,,,,,,,,,,,,,,,,,z,1,0.765,,,,,,,,0,40,40,131,1
,,,,,,,,,,,,,,,,,5f2ac55b23cc6d38be906090,58,2022-02-12_13h37.14.524,lexical_decision_task_DD_L5,2021.2.3,Linux x86_64,60.03121623,,,,,,,,,,,,0.9875,1,,,,,,,,,,,,,,,,,,,,,,,,0.007753682,-0.390746745,0,0,0,space,,,,,,RHINO,HB,z,y,./images/RHINOHB.png,1.5017,,,,,,,,,,,,,,,,,,,z,1,0.9875,,,,,,,,0,41,41,93,1
,,,,,,,,,,,,,,,,,5f2ac55b23cc6d38be906090,58,2022-02-12_13h37.14.524,lexical_decision_task_DD_L5,2021.2.3,Linux x86_64,60.03121623,,,,,,,,,,,,1.7682,1,,,,,,,,,,,,,,,,,,,,,,,,0.007753682,-0.390746745,0,0,0,,,,,,,CHALK,LB,m,y,./images/CHALKLB.png,,,,,,,,,,,,,,,,,,,,m,1,1.7682,,,,,,,,0,42,42,25,1
,,,,,,,,,,,,,,,,,5f2ac55b23cc6d38be906090,58,2022-02-12_13h37.14.524,lexical_decision_task_DD_L5,2021.2.3,Linux x86_64,60.03121623,,,,,,,,,,,,0.6905,1,,,,,,,,,,,,,,,,,,,,,,,,0.007753682,-0.390746745,0,0,0,,,,,,,PISTOL,C,m,y,./images/PISTOL.png,,,,,,,,,,,,,,,,,,,,m,1,0.6905,,,,,,,,0,43,43,29,1
,,,,,,,,,,,,,,,,,5f2ac55b23cc6d38be906090,58,2022-02-12_13h37.14.524,lexical_decision_task_DD_L5,2021.2.3,Linux x86_64,60.03121623,,,,,,,,,,,,1.0835,1,,,,,,,,,,,,,,,,,,,,,,,,0.007753682,-0.390746745,0,0,0,,,,,,,SQUARE,HB,z,y,./images/SQUAREHB.png,,,,,,,,,,,,,,,,,,,,z,1,1.0835,,,,,,,,0,44,44,90,1
,,,,,,,,,,,,,,,,,5f2ac55b23cc6d38be906090,58,2022-02-12_13h37.14.524,lexical_decision_task_DD_L5,2021.2.3,Linux x86_64,60.03121623,,,,,,,,,,,,0.8013,1,,,,,,,,,,,,,,,,,,,,,,,,0.007753682,-0.390746745,0,0,0,,,,,,,MAMMAL,C,m,y,./images/MAMMAL.png,,,,,,,,,,,,,,,,,,,,m,1,0.8013,,,,,,,,0,45,45,62,1
,,,,,,,,,,,,,,,,,5f2ac55b23cc6d38be906090,58,2022-02-12_13h37.14.524,lexical_decision_task_DD_L5,2021.2.3,Linux x86_64,60.03121623,,,,,,,,,,,,0.7784,1,,,,,,,,,,,,,,,,,,,,,,,,0.007753682,-0.390746745,0,0,0,,,,,,,DRILL,HB,m,y,./images/DRILLHB.png,,,,,,,,,,,,,,,,,,,,m,1,0.7784,,,,,,,,0,46,46,81,1
,,,,,,,,,,,,,,,,,5f2ac55b23cc6d38be906090,58,2022-02-12_13h37.14.524,lexical_decision_task_DD_L5,2021.2.3,Linux x86_64,60.03121623,,,,,,,,,,,,0.8467,0,,,,,,,,,,,,,,,,,,,,,,,,0.007753682,-0.390746745,0,0,0,,,,,,,TORCH,C,z,y,./images/TORCH.png,,,,,,,,,,,,,,,,,,,,m,0,0.8467,,,,,,,,0,47,47,152,1
,,,,,,,,,,,,,,,,,5f2ac55b23cc6d38be906090,58,2022-02-12_13h37.14.524,lexical_decision_task_DD_L5,2021.2.3,Linux x86_64,60.03121623,,,,,,,,,,,,1.2612,0,,,,,,,,,,,,,,,,,,,,,,,,0.007753682,-0.390746745,0,0,0,,,,,,,SPINE,C,m,y,./images/SPINE.png,,,,,,,,,,,,,,,,,,,,z,0,1.2612,,,,,,,,0,48,48,65,1
,,,,,,,,,,,,,,,,,5f2ac55b23cc6d38be906090,58,2022-02-12_13h37.14.524,lexical_decision_task_DD_L5,2021.2.3,Linux x86_64,60.03121623,,,,,,,,,,,,1.4973,1,,,,,,,,,,,,,,,,,,,,,,,,0.007753682,-0.390746745,0,0,0,,,,,,,MOTOR,LB,z,y,./images/MOTORLB.png,,,,,,,,,,,,,,,,,,,,z,1,1.4973,,,,,,,,0,49,49,97,1
,,,,,,,,,,,,,,,,,5f2ac55b23cc6d38be906090,58,2022-02-12_13h37.14.524,lexical_decision_task_DD_L5,2021.2.3,Linux x86_64,60.03121623,,,,,,,,,,,,1.4207,1,,,,,,,,,,,,,,,,,,,,,,,,0.007753682,-0.390746745,0,0,0,,,,,,,STORM,HB,z,y,./images/STORMHB.png,,,,,,,,,,,,,,,,,,,,z,1,1.4207,,,,,,,,0,50,50,114,1
,,,,,,,,,,,,,,,,,5f2ac55b23cc6d38be906090,58,2022-02-12_13h37.14.524,lexical_decision_task_DD_L5,2021.2.3,Linux x86_64,60.03121623,,,,,,,,,,,,0.8687,1,,,,,,,,,,,,,,,,,,,,,,,,0.007753682,-0.390746745,0,0,0,,,,,,,PLANET,C,m,y,./images/PLANET.png,,,,,,,,,,,,,,,,,,,,m,1,0.8687,,,,,,,,0,51,51,80,1
,,,,,,,,,,,,,,,,,5f2ac55b23cc6d38be906090,58,2022-02-12_13h37.14.524,lexical_decision_task_DD_L5,2021.2.3,Linux x86_64,60.03121623,,,,,,,,,,,,1.0147,1,,,,,,,,,,,,,,,,,,,,,,,,0.007753682,-0.390746745,0,0,0,,,,,,,SUNSET,LB,z,y,./images/SUNSETLB.png,,,,,,,,,,,,,,,,,,,,z,1,1.0147,,,,,,,,0,52,52,166,1
,,,,,,,,,,,,,,,,,5f2ac55b23cc6d38be906090,58,2022-02-12_13h37.14.524,lexical_decision_task_DD_L5,2021.2.3,Linux x86_64,60.03121623,,,,,,,,,,,,2.4407,1,,,,,,,,,,,,,,,,,,,,,,,,0.007753682,-0.390746745,0,0,0,,,,,,,QUILL,LB,z,y,./images/QUILLLB.png,,,,,,,,,,,,,,,,,,,,z,1,2.4407,,,,,,,,0,53,53,115,1
,,,,,,,,,,,,,,,,,5f2ac55b23cc6d38be906090,58,2022-02-12_13h37.14.524,lexical_decision_task_DD_L5,2021.2.3,Linux x86_64,60.03121623,,,,,,,,,,,,2.6723,0,,,,,,,,,,,,,,,,,,,,,,,,0.007753682,-0.390746745,0,0,0,,,,,,,SMOKER,C,z,y,./images/SMOKER.png,,,,,,,,,,,,,,,,,,,,m,0,2.6723,,,,,,,,0,54,54,110,1
,,,,,,,,,,,,,,,,,5f2ac55b23cc6d38be906090,58,2022-02-12_13h37.14.524,lexical_decision_task_DD_L5,2021.2.3,Linux x86_64,60.03121623,,,,,,,,,,,,1.1527,0,,,,,,,,,,,,,,,,,,,,,,,,0.007753682,-0.390746745,0,0,0,,,,,,,CHAIN,HB,m,y,./images/CHAINHB.png,,,,,,,,,,,,,,,,,,,,z,0,1.1527,,,,,,,,0,55,55,42,1
,,,,,,,,,,,,,,,,,5f2ac55b23cc6d38be906090,58,2022-02-12_13h37.14.524,lexical_decision_task_DD_L5,2021.2.3,Linux x86_64,60.03121623,,,,,,,,,,,,1.0266,0,,,,,,,,,,,,,,,,,,,,,,,,0.007753682,-0.390746745,0,0,0,,,,,,,BROOM,HB,m,y,./images/BROOMHB.png,,,,,,,,,,,,,,,,,,,,z,0,1.0266,,,,,,,,0,56,56,78,1
,,,,,,,,,,,,,,,,,5f2ac55b23cc6d38be906090,58,2022-02-12_13h37.14.524,lexical_decision_task_DD_L5,2021.2.3,Linux x86_64,60.03121623,,,,,,,,,,,,0.9531,1,,,,,,,,,,,,,,,,,,,,,,,,0.007753682,-0.390746745,0,0,0,,,,,,,SKIING,C,z,y,./images/SKIING.png,,,,,,,,,,,,,,,,,,,,z,1,0.9531,,,,,,,,0,57,57,101,1
,,,,,,,,,,,,,,,,,5f2ac55b23cc6d38be906090,58,2022-02-12_13h37.14.524,lexical_decision_task_DD_L5,2021.2.3,Linux x86_64,60.03121623,,,,,,,,,,,,1.4636,1,,,,,,,,,,,,,,,,,,,,,,,,0.007753682,-0.390746745,0,0,0,,,,,,,POODLE,HB,z,y,./images/POODLEHB.png,,,,,,,,,,,,,,,,,,,,z,1,1.4636,,,,,,,,0,58,58,165,1
,,,,,,,,,,,,,,,,,5f2ac55b23cc6d38be906090,58,2022-02-12_13h37.14.524,lexical_decision_task_DD_L5,2021.2.3,Linux x86_64,60.03121623,,,,,,,,,,,,0.8849,1,,,,,,,,,,,,,,,,,,,,,,,,0.007753682,-0.390746745,0,0,0,,,,,,,FARMER,C,z,y,./images/FARMER.png,,,,,,,,,,,,,,,,,,,,z,1,0.8849,,,,,,,,0,59,59,149,1
,,,,,,,,,,,,,,,,,5f2ac55b23cc6d38be906090,58,2022-02-12_13h37.14.524,lexical_decision_task_DD_L5,2021.2.3,Linux x86_64,60.03121623,,,,,,,,,,,,0.8775,1,,,,,,,,,,,,,,,,,,,,,,,,0.007753682,-0.390746745,0,0,0,,,,,,,LIZARD,C,z,y,./images/LIZARD.png,,,,,,,,,,,,,,,,,,,,z,1,0.8775,,,,,,,,0,60,60,128,1
,,,,,,,,,,,,,,,,,5f2ac55b23cc6d38be906090,58,2022-02-12_13h37.14.524,lexical_decision_task_DD_L5,2021.2.3,Linux x86_64,60.03121623,,,,,,,,,,,,0.8185,1,,,,,,,,,,,,,,,,,,,,,,,,0.007753682,-0.390746745,0,0,0,,,,,,,SLOPE,HB,m,y,./images/SLOPEHB.png,,,,,,,,,,,,,,,,,,,,m,1,0.8185,,,,,,,,0,61,61,30,1
,,,,,,,,,,,,,,,,,5f2ac55b23cc6d38be906090,58,2022-02-12_13h37.14.524,lexical_decision_task_DD_L5,2021.2.3,Linux x86_64,60.03121623,,,,,,,,,,,,0.8436,0,,,,,,,,,,,,,,,,,,,,,,,,0.007753682,-0.390746745,0,0,0,,,,,,,ARROW,HB,m,y,./images/ARROWHB.png,,,,,,,,,,,,,,,,,,,,z,0,0.8436,,,,,,,,0,62,62,69,1
,,,,,,,,,,,,,,,,,5f2ac55b23cc6d38be906090,58,2022-02-12_13h37.14.524,lexical_decision_task_DD_L5,2021.2.3,Linux x86_64,60.03121623,,,,,,,,,,,,1.1544,0,,,,,,,,,,,,,,,,,,,,,,,,0.007753682,-0.390746745,0,0,0,,,,,,,VALLEY,C,m,y,./images/VALLEY.png,,,,,,,,,,,,,,,,,,,,z,0,1.1544,,,,,,,,0,63,63,68,1
,,,,,,,,,,,,,,,,,5f2ac55b23cc6d38be906090,58,2022-02-12_13h37.14.524,lexical_decision_task_DD_L5,2021.2.3,Linux x86_64,60.03121623,,,,,,,,,,,,2.0718,0,,,,,,,,,,,,,,,,,,,,,,,,0.007753682,-0.390746745,0,0,0,,,,,,,SAILOR,LB,z,y,./images/SAILORLB.png,,,,,,,,,,,,,,,,,,,,m,0,2.0718,,,,,,,,0,64,64,151,1
,,,,,,,,,,,,,,,,,5f2ac55b23cc6d38be906090,58,2022-02-12_13h37.14.524,lexical_decision_task_DD_L5,2021.2.3,Linux x86_64,60.03121623,,,,,,,,,,,,0.9068,1,,,,,,,,,,,,,,,,,,,,,,,,0.007753682,-0.390746745,0,0,0,,,,,,,CEMENT,C,z,y,./images/CEMENT.png,,,,,,,,,,,,,,,,,,,,z,1,0.9068,,,,,,,,0,65,65,158,1
,,,,,,,,,,,,,,,,,5f2ac55b23cc6d38be906090,58,2022-02-12_13h37.14.524,lexical_decision_task_DD_L5,2021.2.3,Linux x86_64,60.03121623,,,,,,,,,,,,1.0118,0,,,,,,,,,,,,,,,,,,,,,,,,0.007753682,-0.390746745,0,0,0,,,,,,,SHORE,HB,z,y,./images/SHOREHB.png,,,,,,,,,,,,,,,,,,,,m,0,1.0118,,,,,,,,0,66,66,96,1
,,,,,,,,,,,,,,,,,5f2ac55b23cc6d38be906090,58,2022-02-12_13h37.14.524,lexical_decision_task_DD_L5,2021.2.3,Linux x86_64,60.03121623,,,,,,,,,,,,0.7816,1,,,,,,,,,,,,,,,,,,,,,,,,0.007753682,-0.390746745,0,0,0,,,,,,,MOOSE,HB,z,y,./images/MOOSEHB.png,,,,,,,,,,,,,,,,,,,,z,1,0.7816,,,,,,,,0,67,67,141,1
,,,,,,,,,,,,,,,,,5f2ac55b23cc6d38be906090,58,2022-02-12_13h37.14.524,lexical_decision_task_DD_L5,2021.2.3,Linux x86_64,60.03121623,,,,,,,,,,,,0.9234,1,,,,,,,,,,,,,,,,,,,,,,,,0.007753682,-0.390746745,0,0,0,,,,,,,KITTEN,HB,z,y,./images/KITTENHB.png,,,,,,,,,,,,,,,,,,,,z,1,0.9234,,,,,,,,0,68,68,129,1
,,,,,,,,,,,,,,,,,5f2ac55b23cc6d38be906090,58,2022-02-12_13h37.14.524,lexical_decision_task_DD_L5,2021.2.3,Linux x86_64,60.03121623,,,,,,,,,,,,1.5628,1,,,,,,,,,,,,,,,,,,,,,,,,0.007753682,-0.390746745,0,0,0,,,,,,,BANNER,LB,z,y,./images/BANNERLB.png,,,,,,,,,,,,,,,,,,,,z,1,1.5628,,,,,,,,0,69,69,136,1
,,,,,,,,,,,,,,,,,5f2ac55b23cc6d38be906090,58,2022-02-12_13h37.14.524,lexical_decision_task_DD_L5,2021.2.3,Linux x86_64,60.03121623,,,,,,,,,,,,0.7434,1,,,,,,,,,,,,,,,,,,,,,,,,0.007753682,-0.390746745,0,0,0,,,,,,,MELON,LB,z,y,./images/MELONLB.png,,,,,,,,,,,,,,,,,,,,z,1,0.7434,,,,,,,,0,70,70,106,1
,,,,,,,,,,,,,,,,,5f2ac55b23cc6d38be906090,58,2022-02-12_13h37.14.524,lexical_decision_task_DD_L5,2021.2.3,Linux x86_64,60.03121623,,,,,,,,,,,,0.8029,1,,,,,,,,,,,,,,,,,,,,,,,,0.007753682,-0.390746745,0,0,0,,,,,,,DOUGH,LB,z,y,./images/DOUGHLB.png,,,,,,,,,,,,,,,,,,,,z,1,0.8029,,,,,,,,0,71,71,103,1
,,,,,,,,,,,,,,,,,5f2ac55b23cc6d38be906090,58,2022-02-12_13h37.14.524,lexical_decision_task_DD_L5,2021.2.3,Linux x86_64,60.03121623,,,,,,,,,,,,1.1006,0,,,,,,,,,,,,,,,,,,,,,,,,0.007753682,-0.390746745,0,0,0,,,,,,,PARCEL,HB,m,y,./images/PARCELHB.png,,,,,,,,,,,,,,,,,,,,z,0,1.1006,,,,,,,,0,72,72,18,1
,,,,,,,,,,,,,,,,,5f2ac55b23cc6d38be906090,58,2022-02-12_13h37.14.524,lexical_decision_task_DD_L5,2021.2.3,Linux x86_64,60.03121623,,,,,,,,,,,,0.788,0,,,,,,,,,,,,,,,,,,,,,,,,0.007753682,-0.390746745,0,0,0,,,,,,,CLOTH,C,m,y,./images/CLOTH.png,,,,,,,,,,,,,,,,,,,,z,0,0.788,,,,,,,,0,73,73,23,1
,,,,,,,,,,,,,,,,,5f2ac55b23cc6d38be906090,58,2022-02-12_13h37.14.524,lexical_decision_task_DD_L5,2021.2.3,Linux x86_64,60.03121623,,,,,,,,,,,,0.7545,1,,,,,,,,,,,,,,,,,,,,,,,,0.007753682,-0.390746745,0,0,0,,,,,,,GRAIN,HB,z,y,./images/GRAINHB.png,,,,,,,,,,,,,,,,,,,,z,1,0.7545,,,,,,,,0,74,74,159,1
,,,,,,,,,,,,,,,,,5f2ac55b23cc6d38be906090,58,2022-02-12_13h37.14.524,lexical_decision_task_DD_L5,2021.2.3,Linux x86_64,60.03121623,,,,,,,,,,,,0.7202,1,,,,,,,,,,,,,,,,,,,,,,,,0.007753682,-0.390746745,0,0,0,,,,,,,COUCH,C,z,y,./images/COUCH.png,,,,,,,,,,,,,,,,,,,,z,1,0.7202,,,,,,,,0,75,75,161,1
,,,,,,,,,,,,,,,,,5f2ac55b23cc6d38be906090,58,2022-02-12_13h37.14.524,lexical_decision_task_DD_L5,2021.2.3,Linux x86_64,60.03121623,,,,,,,,,,,,1.1248,1,,,,,,,,,,,,,,,,,,,,,,,,0.007753682,-0.390746745,0,0,0,,,,,,,BARREL,C,z,y,./images/BARREL.png,,,,,,,,,,,,,,,,,,,,z,1,1.1248,,,,,,,,0,76,76,116,1
,,,,,,,,,,,,,,,,,5f2ac55b23cc6d38be906090,58,2022-02-12_13h37.14.524,lexical_decision_task_DD_L5,2021.2.3,Linux x86_64,60.03121623,,,,,,,,,,,,0.6095,1,,,,,,,,,,,,,,,,,,,,,,,,0.007753682,-0.390746745,0,0,0,,,,,,,INFANT,LB,z,y,./images/INFANTLB.png,,,,,,,,,,,,,,,,,,,,z,1,0.6095,,,,,,,,0,77,77,160,1
,,,,,,,,,,,,,,,,,5f2ac55b23cc6d38be906090,58,2022-02-12_13h37.14.524,lexical_decision_task_DD_L5,2021.2.3,Linux x86_64,60.03121623,,,,,,,,,,,,0.9988,0,,,,,,,,,,,,,,,,,,,,,,,,0.007753682,-0.390746745,0,0,0,,,,,,,CANYON,LB,z,y,./images/CANYONLB.png,,,,,,,,,,,,,,,,,,,,m,0,0.9988,,,,,,,,0,78,78,118,1
,,,,,,,,,,,,,,,,,5f2ac55b23cc6d38be906090,58,2022-02-12_13h37.14.524,lexical_decision_task_DD_L5,2021.2.3,Linux x86_64,60.03121623,,,,,,,,,,,,1.0815,0,,,,,,,,,,,,,,,,,,,,,,,,0.007753682,-0.390746745,0,0,0,,,,,,,BAKER,HB,m,y,./images/BAKERHB.png,,,,,,,,,,,,,,,,,,,,z,0,1.0815,,,,,,,,0,79,79,63,1
,,,,,,,,,,,,,,,,,5f2ac55b23cc6d38be906090,58,2022-02-12_13h37.14.524,lexical_decision_task_DD_L5,2021.2.3,Linux x86_64,60.03121623,,,,,,,,,,,,0.8538,1,,,,,,,,,,,,,,,,,,,,,,,,0.007753682,-0.390746745,0,0,0,,,,,,,MUSCLE,LB,z,y,./images/MUSCLELB.png,,,,,,,,,,,,,,,,,,,,z,1,0.8538,,,,,,,,0,80,80,88,1
,,,,,,,,,,,,,,,,,5f2ac55b23cc6d38be906090,58,2022-02-12_13h37.14.524,lexical_decision_task_DD_L5,2021.2.3,Linux x86_64,60.03121623,,,,,,,,,,,,1.5997,0,,,,,,,,,,,,,,,,,,,,,,,,0.007545202,-0.390746745,0,0,0,,,,,,,WALNUT,HB,m,y,./images/WALNUTHB.png,,,,,,,,,,,,,,,,,,,,z,0,1.5997,,,,,,,,0,81,81,0,1
,,,,,,,,,,,,,,,,,5f2ac55b23cc6d38be906090,58,2022-02-12_13h37.14.524,lexical_decision_task_DD_L5,2021.2.3,Linux x86_64,60.03121623,,,,,,,,,,,,1.0538,1,,,,,,,,,,,,,,,,,,,,,,,,0.007545202,-0.390746745,0,0,0,,,,,,,CRADLE,C,z,y,./images/CRADLE.png,,,,,,,,,,,,,,,,,,,,z,1,1.0538,,,,,,,,0,82,82,104,1
,,,,,,,,,,,,,,,,,5f2ac55b23cc6d38be906090,58,2022-02-12_13h37.14.524,lexical_decision_task_DD_L5,2021.2.3,Linux x86_64,60.03121623,,,,,,,,,,,,0.813,1,,,,,,,,,,,,,,,,,,,,,,,,0.007545202,-0.390746745,0,0,0,space,,,,,,BONNET,C,z,y,./images/BONNET.png,1.372,,,,,,,,,,,,,,,,,,,z,1,0.813,,,,,,,,0,83,83,95,1
,,,,,,,,,,,,,,,,,5f2ac55b23cc6d38be906090,58,2022-02-12_13h37.14.524,lexical_decision_task_DD_L5,2021.2.3,Linux x86_64,60.03121623,,,,,,,,,,,,1.111,0,,,,,,,,,,,,,,,,,,,,,,,,0.007545202,-0.390746745,0,0,0,,,,,,,PEBBLE,LB,m,y,./images/PEBBLELB.png,,,,,,,,,,,,,,,,,,,,z,0,1.111,,,,,,,,0,84,84,82,1
,,,,,,,,,,,,,,,,,5f2ac55b23cc6d38be906090,58,2022-02-12_13h37.14.524,lexical_decision_task_DD_L5,2021.2.3,Linux x86_64,60.03121623,,,,,,,,,,,,1.5724,0,,,,,,,,,,,,,,,,,,,,,,,,0.007545202,-0.390746745,0,0,0,,,,,,,CASINO,LB,m,y,./images/CASINOLB.png,,,,,,,,,,,,,,,,,,,,z,0,1.5724,,,,,,,,0,85,85,28,1
,,,,,,,,,,,,,,,,,5f2ac55b23cc6d38be906090,58,2022-02-12_13h37.14.524,lexical_decision_task_DD_L5,2021.2.3,Linux x86_64,60.03121623,,,,,,,,,,,,1.231,0,,,,,,,,,,,,,,,,,,,,,,,,0.007545202,-0.390746745,0,0,0,,,,,,,CHERRY,HB,m,y,./images/CHERRYHB.png,,,,,,,,,,,,,,,,,,,,z,0,1.231,,,,,,,,0,86,86,54,1
,,,,,,,,,,,,,,,,,5f2ac55b23cc6d38be906090,58,2022-02-12_13h37.14.524,lexical_decision_task_DD_L5,2021.2.3,Linux x86_64,60.03121623,,,,,,,,,,,,0.8557,1,,,,,,,,,,,,,,,,,,,,,,,,0.007336665,-0.390851013,0,0,0,,,,,,,JAGUAR,HB,z,y,./images/JAGUARHB.png,,,,,,,,,,,,,,,,,,,,z,1,0.8557,,,,,,,,0,87,87,102,1
,,,,,,,,,,,,,,,,,5f2ac55b23cc6d38be906090,58,2022-02-12_13h37.14.524,lexical_decision_task_DD_L5,2021.2.3,Linux x86_64,60.03121623,,,,,,,,,,,,0.8833,1,,,,,,,,,,,,,,,,,,,,,,,,0.007336665,-0.390851013,0,0,0,,,,,,,BURIAL,C,z,y,./images/BURIAL.png,,,,,,,,,,,,,,,,,,,,z,1,0.8833,,,,,,,,0,88,88,143,1
,,,,,,,,,,,,,,,,,5f2ac55b23cc6d38be906090,58,2022-02-12_13h37.14.524,lexical_decision_task_DD_L5,2021.2.3,Linux x86_64,60.03121623,,,,,,,,,,,,0.8328,1,,,,,,,,,,,,,,,,,,,,,,,,0.007336665,-0.390851013,0,0,0,,,,,,,SAUNA,HB,m,y,./images/SAUNAHB.png,,,,,,,,,,,,,,,,,,,,m,1,0.8328,,,,,,,,0,89,89,33,1
,,,,,,,,,,,,,,,,,5f2ac55b23cc6d38be906090,58,2022-02-12_13h37.14.524,lexical_decision_task_DD_L5,2021.2.3,Linux x86_64,60.03121623,,,,,,,,,,,,0.9951,0,,,,,,,,,,,,,,,,,,,,,,,,0.007336665,-0.390851013,0,0,0,,,,,,,HEATER,C,m,y,./images/HEATER.png,,,,,,,,,,,,,,,,,,,,z,0,0.9951,,,,,,,,0,90,90,56,1
,,,,,,,,,,,,,,,,,5f2ac55b23cc6d38be906090,58,2022-02-12_13h37.14.524,lexical_decision_task_DD_L5,2021.2.3,Linux x86_64,60.03121623,,,,,,,,,,,,0.8597,1,,,,,,,,,,,,,,,,,,,,,,,,0.007336665,-0.390851013,0,0,0,,,,,,,PASTA,C,z,y,./images/PASTA.png,,,,,,,,,,,,,,,,,,,,z,1,0.8597,,,,,,,,0,91,91,89,1
,,,,,,,,,,,,,,,,,5f2ac55b23cc6d38be906090,58,2022-02-12_13h37.14.524,lexical_decision_task_DD_L5,2021.2.3,Linux x86_64,60.03121623,,,,,,,,,,,,0.9118,1,,,,,,,,,,,,,,,,,,,,,,,,0.007336665,-0.390851013,0,0,0,,,,,,,PURSE,C,z,y,./images/PURSE.png,,,,,,,,,,,,,,,,,,,,z,1,0.9118,,,,,,,,0,92,92,146,1
,,,,,,,,,,,,,,,,,5f2ac55b23cc6d38be906090,58,2022-02-12_13h37.14.524,lexical_decision_task_DD_L5,2021.2.3,Linux x86_64,60.03121623,,,,,,,,,,,,1.6832,1,,,,,,,,,,,,,,,,,,,,,,,,0.007336665,-0.390851013,0,0,0,,,,,,,SNACK,LB,z,y,./images/SNACKLB.png,,,,,,,,,,,,,,,,,,,,z,1,1.6832,,,,,,,,0,93,93,157,1
,,,,,,,,,,,,,,,,,5f2ac55b23cc6d38be906090,58,2022-02-12_13h37.14.524,lexical_decision_task_DD_L5,2021.2.3,Linux x86_64,60.03121623,,,,,,,,,,,,2.1816,0,,,,,,,,,,,,,,,,,,,,,,,,0.007336665,-0.390851013,0,0,0,,,,,,,LADDER,C,z,y,./images/LADDER.png,,,,,,,,,,,,,,,,,,,,m,0,2.1816,,,,,,,,0,94,94,122,1
,,,,,,,,,,,,,,,,,5f2ac55b23cc6d38be906090,58,2022-02-12_13h37.14.524,lexical_decision_task_DD_L5,2021.2.3,Linux x86_64,60.03121623,,,,,,,,,,,,2.1004,0,,,,,,,,,,,,,,,,,,,,,,,,0.007336665,-0.390851013,0,0,0,,,,,,,FERRY,HB,m,y,./images/FERRYHB.png,,,,,,,,,,,,,,,,,,,,z,0,2.1004,,,,,,,,0,95,95,57,1
,,,,,,,,,,,,,,,,,5f2ac55b23cc6d38be906090,58,2022-02-12_13h37.14.524,lexical_decision_task_DD_L5,2021.2.3,Linux x86_64,60.03121623,,,,,,,,,,,,0.8753,0,,,,,,,,,,,,,,,,,,,,,,,,0.007336665,-0.390851013,0,0,0,,,,,,,BOXER,LB,m,y,./images/BOXERLB.png,,,,,,,,,,,,,,,,,,,,z,0,0.8753,,,,,,,,0,96,96,4,1
,,,,,,,,,,,,,,,,,5f2ac55b23cc6d38be906090,58,2022-02-12_13h37.14.524,lexical_decision_task_DD_L5,2021.2.3,Linux x86_64,60.03121623,,,,,,,,,,,,2.0283,0,,,,,,,,,,,,,,,,,,,,,,,,0.007336665,-0.390851013,0,0,0,,,,,,,BOILER,HB,m,y,./images/BOILERHB.png,,,,,,,,,,,,,,,,,,,,z,0,2.0283,,,,,,,,0,97,97,36,1
,,,,,,,,,,,,,,,,,5f2ac55b23cc6d38be906090,58,2022-02-12_13h37.14.524,lexical_decision_task_DD_L5,2021.2.3,Linux x86_64,60.03121623,,,,,,,,,,,,0.9078,1,,,,,,,,,,,,,,,,,,,,,,,,0.007336665,-0.390851013,0,0,0,,,,,,,BEARD,C,z,y,./images/BEARD.png,,,,,,,,,,,,,,,,,,,,z,1,0.9078,,,,,,,,0,98,98,86,1
,,,,,,,,,,,,,,,,,5f2ac55b23cc6d38be906090,58,2022-02-12_13h37.14.524,lexical_decision_task_DD_L5,2021.2.3,Linux x86_64,60.03121623,,,,,,,,,,,,0.8987,1,,,,,,,,,,,,,,,,,,,,,,,,0.007336665,-0.390851013,0,0,0,,,,,,,CURRY,HB,m,y,./images/CURRYHB.png,,,,,,,,,,,,,,,,,,,,m,1,0.8987,,,,,,,,0,99,99,60,1
,,,,,,,,,,,,,,,,,5f2ac55b23cc6d38be906090,58,2022-02-12_13h37.14.524,lexical_decision_task_DD_L5,2021.2.3,Linux x86_64,60.03121623,,,,,,,,,,,,0.847,1,,,,,,,,,,,,,,,,,,,,,,,,0.007336665,-0.390851013,0,0,0,,,,,,,TOMATO,HB,z,y,./images/TOMATOHB.png,,,,,,,,,,,,,,,,,,,,z,1,0.847,,,,,,,,0,100,100,84,1
,,,,,,,,,,,,,,,,,5f2ac55b23cc6d38be906090,58,2022-02-12_13h37.14.524,lexical_decision_task_DD_L5,2021.2.3,Linux x86_64,60.03121623,,,,,,,,,,,,1.0227,0,,,,,,,,,,,,,,,,,,,,,,,,0.007336665,-0.390851013,0,0,0,,,,,,,WHEEL,C,m,y,./images/WHEEL.png,,,,,,,,,,,,,,,,,,,,z,0,1.0227,,,,,,,,0,101,101,77,1
,,,,,,,,,,,,,,,,,5f2ac55b23cc6d38be906090,58,2022-02-12_13h37.14.524,lexical_decision_task_DD_L5,2021.2.3,Linux x86_64,60.03121623,,,,,,,,,,,,0.9975,1,,,,,,,,,,,,,,,,,,,,,,,,0.007336665,-0.390851013,0,0,0,,,,,,,PIMPLE,C,z,y,./images/PIMPLE.png,,,,,,,,,,,,,,,,,,,,z,1,0.9975,,,,,,,,0,102,102,155,1
,,,,,,,,,,,,,,,,,5f2ac55b23cc6d38be906090,58,2022-02-12_13h37.14.524,lexical_decision_task_DD_L5,2021.2.3,Linux x86_64,60.03121623,,,,,,,,,,,,1.6294,0,,,,,,,,,,,,,,,,,,,,,,,,0.007336665,-0.390851013,0,0,0,,,,,,,FOLDER,HB,z,y,./images/FOLDERHB.png,,,,,,,,,,,,,,,,,,,,m,0,1.6294,,,,,,,,0,103,103,126,1
,,,,,,,,,,,,,,,,,5f2ac55b23cc6d38be906090,58,2022-02-12_13h37.14.524,lexical_decision_task_DD_L5,2021.2.3,Linux x86_64,60.03121623,,,,,,,,,,,,1.9239,1,,,,,,,,,,,,,,,,,,,,,,,,0.007336665,-0.390851013,0,0,0,,,,,,,PENCE,LB,z,y,./images/PENCELB.png,,,,,,,,,,,,,,,,,,,,z,1,1.9239,,,,,,,,0,104,104,100,1
,,,,,,,,,,,,,,,,,5f2ac55b23cc6d38be906090,58,2022-02-12_13h37.14.524,lexical_decision_task_DD_L5,2021.2.3,Linux x86_64,60.03121623,,,,,,,,,,,,1.1475,1,,,,,,,,,,,,,,,,,,,,,,,,0.007336665,-0.390851013,0,0,0,,,,,,,BANANA,LB,m,y,./images/BANANALB.png,,,,,,,,,,,,,,,,,,,,m,1,1.1475,,,,,,,,0,105,105,70,1
,,,,,,,,,,,,,,,,,5f2ac55b23cc6d38be906090,58,2022-02-12_13h37.14.524,lexical_decision_task_DD_L5,2021.2.3,Linux x86_64,60.03121623,,,,,,,,,,,,0.7296,1,,,,,,,,,,,,,,,,,,,,,,,,0.007336665,-0.390851013,0,0,0,,,,,,,STOVE,C,m,y,./images/STOVE.png,,,,,,,,,,,,,,,,,,,,m,1,0.7296,,,,,,,,0,106,106,2,1
,,,,,,,,,,,,,,,,,5f2ac55b23cc6d38be906090,58,2022-02-12_13h37.14.524,lexical_decision_task_DD_L5,2021.2.3,Linux x86_64,60.03121623,,,,,,,,,,,,1.0762,1,,,,,,,,,,,,,,,,,,,,,,,,0.007336665,-0.390851013,0,0,0,,,,,,,MALLET,C,z,y,./images/MALLET.png,,,,,,,,,,,,,,,,,,,,z,1,1.0762,,,,,,,,0,107,107,134,1
,,,,,,,,,,,,,,,,,5f2ac55b23cc6d38be906090,58,2022-02-12_13h37.14.524,lexical_decision_task_DD_L5,2021.2.3,Linux x86_64,60.03121623,,,,,,,,,,,,1.2427,1,,,,,,,,,,,,,,,,,,,,,,,,0.007336665,-0.390851013,0,0,0,,,,,,,GRANNY,C,m,y,./images/GRANNY.png,,,,,,,,,,,,,,,,,,,,m,1,1.2427,,,,,,,,0,108,108,20,1
,,,,,,,,,,,,,,,,,5f2ac55b23cc6d38be906090,58,2022-02-12_13h37.14.524,lexical_decision_task_DD_L5,2021.2.3,Linux x86_64,60.03121623,,,,,,,,,,,,1.1525,1,,,,,,,,,,,,,,,,,,,,,,,,0.007336665,-0.390851013,0,0,0,,,,,,,CARPET,C,z,y,./images/CARPET.png,,,,,,,,,,,,,,,,,,,,z,1,1.1525,,,,,,,,0,109,109,137,1
,,,,,,,,,,,,,,,,,5f2ac55b23cc6d38be906090,58,2022-02-12_13h37.14.524,lexical_decision_task_DD_L5,2021.2.3,Linux x86_64,60.03121623,,,,,,,,,,,,0.8647,0,,,,,,,,,,,,,,,,,,,,,,,,0.007336665,-0.390851013,0,0,0,,,,,,,TIGER,LB,m,y,./images/TIGERLB.png,,,,,,,,,,,,,,,,,,,,z,0,0.8647,,,,,,,,0,110,110,37,1
,,,,,,,,,,,,,,,,,5f2ac55b23cc6d38be906090,58,2022-02-12_13h37.14.524,lexical_decision_task_DD_L5,2021.2.3,Linux x86_64,60.03121623,,,,,,,,,,,,1.2845,1,,,,,,,,,,,,,,,,,,,,,,,,0.007232397,-0.391372355,0,0,0,,,,,,,SWING,LB,z,y,./images/SWINGLB.png,,,,,,,,,,,,,,,,,,,,z,1,1.2845,,,,,,,,0,111,111,124,1
,,,,,,,,,,,,,,,,,5f2ac55b23cc6d38be906090,58,2022-02-12_13h37.14.524,lexical_decision_task_DD_L5,2021.2.3,Linux x86_64,60.03121623,,,,,,,,,,,,0.978,1,,,,,,,,,,,,,,,,,,,,,,,,0.007232397,-0.391372355,0,0,0,,,,,,,BUNNY,LB,m,y,./images/BUNNYLB.png,,,,,,,,,,,,,,,,,,,,m,1,0.978,,,,,,,,0,112,112,13,1
,,,,,,,,,,,,,,,,,5f2ac55b23cc6d38be906090,58,2022-02-12_13h37.14.524,lexical_decision_task_DD_L5,2021.2.3,Linux x86_64,60.03121623,,,,,,,,,,,,0.9385,1,,,,,,,,,,,,,,,,,,,,,,,,0.007232397,-0.391372355,0,0,0,,,,,,,PARADE,C,m,y,./images/PARADE.png,,,,,,,,,,,,,,,,,,,,m,1,0.9385,,,,,,,,0,113,113,17,1
,,,,,,,,,,,,,,,,,5f2ac55b23cc6d38be906090,58,2022-02-12_13h37.14.524,lexical_decision_task_DD_L5,2021.2.3,Linux x86_64,60.03121623,,,,,,,,,,,,3.0121,0,,,,,,,,,,,,,,,,,,,,,,,,0.007232397,-0.391372355,0,0,0,,,,,,,COLLAR,HB,m,y,./images/COLLARHB.png,,,,,,,,,,,,,,,,,,,,z,0,3.0121,,,,,,,,0,114,114,15,1
,,,,,,,,,,,,,,,,,5f2ac55b23cc6d38be906090,58,2022-02-12_13h37.14.524,lexical_decision_task_DD_L5,2021.2.3,Linux x86_64,60.03121623,,,,,,,,,,,,0.9291,1,,,,,,,,,,,,,,,,,,,,,,,,0.007232397,-0.391372355,0,0,0,,,,,,,JUNGLE,C,z,y,./images/JUNGLE.png,,,,,,,,,,,,,,,,,,,,z,1,0.9291,,,,,,,,0,115,115,167,1
,,,,,,,,,,,,,,,,,5f2ac55b23cc6d38be906090,58,2022-02-12_13h37.14.524,lexical_decision_task_DD_L5,2021.2.3,Linux x86_64,60.03121623,,,,,,,,,,,,1.254,1,,,,,,,,,,,,,,,,,,,,,,,,0.007232397,-0.391372355,0,0,0,,,,,,,JELLY,LB,z,y,./images/JELLYLB.png,,,,,,,,,,,,,,,,,,,,z,1,1.254,,,,,,,,0,116,116,148,1
,,,,,,,,,,,,,,,,,5f2ac55b23cc6d38be906090,58,2022-02-12_13h37.14.524,lexical_decision_task_DD_L5,2021.2.3,Linux x86_64,60.03121623,,,,,,,,,,,,0.7996,1,,,,,,,,,,,,,,,,,,,,,,,,0.007232397,-0.391372355,0,0,0,,,,,,,LITTER,HB,z,y,./images/LITTERHB.png,,,,,,,,,,,,,,,,,,,,z,1,0.7996,,,,,,,,0,117,117,162,1
,,,,,,,,,,,,,,,,,5f2ac55b23cc6d38be906090,58,2022-02-12_13h37.14.524,lexical_decision_task_DD_L5,2021.2.3,Linux x86_64,60.03121623,,,,,,,,,,,,0.7799,1,,,,,,,,,,,,,,,,,,,,,,,,0.007232397,-0.391372355,0,0,0,,,,,,,STOOL,LB,m,y,./images/STOOLLB.png,,,,,,,,,,,,,,,,,,,,m,1,0.7799,,,,,,,,0,118,118,43,1
,,,,,,,,,,,,,,,,,5f2ac55b23cc6d38be906090,58,2022-02-12_13h37.14.524,lexical_decision_task_DD_L5,2021.2.3,Linux x86_64,60.03121623,,,,,,,,,,,,0.75,1,,,,,,,,,,,,,,,,,,,,,,,,0.007232397,-0.391372355,0,0,0,,,,,,,WRIST,LB,z,y,./images/WRISTLB.png,,,,,,,,,,,,,,,,,,,,z,1,0.75,,,,,,,,0,119,119,109,1
,,,,,,,,,,,,,,,,,5f2ac55b23cc6d38be906090,58,2022-02-12_13h37.14.524,lexical_decision_task_DD_L5,2021.2.3,Linux x86_64,60.03121623,,,,,,,,,,,,0.8146,1,,,,,,,,,,,,,,,,,,,,,,,,0.007232397,-0.391372355,0,0,0,,,,,,,JUMPER,C,m,y,./images/JUMPER.png,,,,,,,,,,,,,,,,,,,,m,1,0.8146,,,,,,,,0,120,120,74,1
,,,,,,,,,,,,,,,,,5f2ac55b23cc6d38be906090,58,2022-02-12_13h37.14.524,lexical_decision_task_DD_L5,2021.2.3,Linux x86_64,60.03121623,,,,,,,,,,,,1.1644,1,,,,,,,,,,,,,,,,,,,,,,,,0.007232397,-0.391372355,0,0,0,,,,,,,MEDAL,C,m,y,./images/MEDAL.png,,,,,,,,,,,,,,,,,,,,m,1,1.1644,,,,,,,,0,121,121,11,1
,,,,,,,,,,,,,,,,,5f2ac55b23cc6d38be906090,58,2022-02-12_13h37.14.524,lexical_decision_task_DD_L5,2021.2.3,Linux x86_64,60.03121623,,,,,,,,,,,,0.9348,1,,,,,,,,,,,,,,,,,,,,,,,,0.007232397,-0.391372355,0,0,0,,,,,,,CLIFF,C,m,y,./images/CLIFF.png,,,,,,,,,,,,,,,,,,,,m,1,0.9348,,,,,,,,0,122,122,8,1
,,,,,,,,,,,,,,,,,5f2ac55b23cc6d38be906090,58,2022-02-12_13h37.14.524,lexical_decision_task_DD_L5,2021.2.3,Linux x86_64,60.03121623,,,,,,,,,,,,0.8162,1,,,,,,,,,,,,,,,,,,,,,,,,0.007232397,-0.391372355,0,0,0,,,,,,,SPORT,HB,z,y,./images/SPORTHB.png,,,,,,,,,,,,,,,,,,,,z,1,0.8162,,,,,,,,0,123,123,132,1
