key_resp.keys,key_resp.rt,instr_done_touch.x,instr_done_touch.y,instr_done_touch.leftButton,instr_done_touch.midButton,instr_done_touch.rightButton,instruction_pages.thisRepN,instruction_pages.thisTrialN,instruction_pages.thisN,instruction_pages.thisIndex,instruction_pages.ran,pageN,phase,instruct_text,has_image,instruct_image,participant,age,date,expName,psychopyVersion,OS,frameRate,response.keys,response.corr,response.rt,touch_resp.x,touch_resp.y,touch_resp.leftButton,touch_resp.midButton,touch_resp.rightButton,touch_resp.time,touch_resp.clicked_name,rt,corr,practrials.thisRepN,practrials.thisTrialN,practrials.thisN,practrials.thisIndex,practrials.ran,TrialID,Target,corrAns,end_of_practice_trials_pages.thisRepN,end_of_practice_trials_pages.thisTrialN,end_of_practice_trials_pages.thisN,end_of_practice_trials_pages.thisIndex,end_of_practice_trials_pages.ran,key_resp_2.keys,key_resp_2.corr,key_resp_2.rt,targ_click.x,targ_click.y,targ_click.leftButton,targ_click.midButton,targ_click.rightButton,targ_click.time,targ_click.clicked_name,break_done_touch.x,break_done_touch.y,break_done_touch.leftButton,break_done_touch.midButton,break_done_touch.rightButton,break_done_keyboard.keys,maintrials.thisRepN,maintrials.thisTrialN,maintrials.thisN,maintrials.thisIndex,maintrials.ran,string,blur,study,lex,stim_path,break_done_keyboard.rt,mouse_2.x,mouse_2.y,mouse_2.leftButton,mouse_2.midButton,mouse_2.rightButton,mouse_2.clicked_name,slider.response,slider.rt,trials.thisRepN,trials.thisTrialN,trials.thisN,trials.thisIndex,trials.ran,test_instructions.thisRepN,test_instructions.thisTrialN,test_instructions.thisN,test_instructions.thisIndex,test_instructions.ran,instr_done_touch.clicked_name,key_resp_3.keys,key_resp_3.corr,key_resp_3.rt,test_click.x,test_click.y,test_click.leftButton,test_click.midButton,test_click.rightButton,test_click.time,test_click.clicked_name,test_phase.thisRepN,test_phase.thisTrialN,test_phase.thisN,test_phase.thisIndex,test_phase.ran
space,20.7472,0.215740757,-0.180555566,0,0,0,0,0,0,0,1,1,instructions,"INSTRUCTIONS
At the start of each trial, look at the plus sign  (+) in the center of the screen.  This tells you that a trial is about to begin and where to look. Second, the plus sign will disappear and a string of letters will appear. Your task is to determine if the string of letters is a word or not. If the item is a word press the M key (on keyboard)  or touch the word button (phone/tablet).  If the item is not a word,  press the  Z key (on keyboard)  or touch the nonword button (on phone/tablet). 
Press the space bar or touch  continue.",0,,6063f3e9652d7ffae2782315,23,2022-02-12_17h11.25.910,lexical_decision_task_DD_L5,2021.2.3,Win32,59.77286312,,,,,,,,,,,,,,,,,,,,,,,,,,,,,,,,,,,,,,,,,,,,,,,,,,,,,,,,,,,,,,,,,,,,,,,,,,,,,,,,,,,,,,
space,6.2236,0.215740757,-0.180555566,0,0,0,0,1,1,1,1,2,instructions,"If your device has a keyboard, press the 'Z' key for nonwords and the 'M' key for words.





Press the space bar or touch the button below to continue.",0,keyboard-example.gif,6063f3e9652d7ffae2782315,23,2022-02-12_17h11.25.910,lexical_decision_task_DD_L5,2021.2.3,Win32,59.77286312,,,,,,,,,,,,,,,,,,,,,,,,,,,,,,,,,,,,,,,,,,,,,,,,,,,,,,,,,,,,,,,,,,,,,,,,,,,,,,,,,,,,,,
space,1.0591,0.215740757,-0.180555566,0,0,0,0,2,2,2,1,3,instructions,"If you are using a touchscreen only device, use the buttons on the screen. Do not use the mouse.





Press the space bar or touch the button below to continue.",0,touchscreen-example.gif,6063f3e9652d7ffae2782315,23,2022-02-12_17h11.25.910,lexical_decision_task_DD_L5,2021.2.3,Win32,59.77286312,,,,,,,,,,,,,,,,,,,,,,,,,,,,,,,,,,,,,,,,,,,,,,,,,,,,,,,,,,,,,,,,,,,,,,,,,,,,,,,,,,,,,,
space,14.6261,0.215740757,-0.180555566,0,0,0,0,3,3,3,1,4,instructions,"It is very important that you respond as quickly and accurately as possible, as each letter string will only be on the screen for two seconds. If you do not respond within this time, the message 'Too slow!' will be displayed and the experiment will progress to the next letter string. The first 20 trials will be practice trials and you will receive feedback on your answers. 

Press the space bar or touch the button below to start the practice trials.",0,,6063f3e9652d7ffae2782315,23,2022-02-12_17h11.25.910,lexical_decision_task_DD_L5,2021.2.3,Win32,59.77286312,,,,,,,,,,,,,,,,,,,,,,,,,,,,,,,,,,,,,,,,,,,,,,,,,,,,,,,,,,,,,,,,,,,,,,,,,,,,,,,,,,,,,,
,,,,,,,,,,,,,,,,,6063f3e9652d7ffae2782315,23,2022-02-12_17h11.25.910,lexical_decision_task_DD_L5,2021.2.3,Win32,59.77286312,m,1,0.6171,,,,,,,,0.6171,1,0,0,0,3,1,1001,MATRIX,m,,,,,,,,,,,,,,,,,,,,,,,,,,,,,,,,,,,,,,,,,,,,,,,,,,,,,,,,,,,,,,,,,,
,,,,,,,,,,,,,,,,,6063f3e9652d7ffae2782315,23,2022-02-12_17h11.25.910,lexical_decision_task_DD_L5,2021.2.3,Win32,59.77286312,z,1,1.3007,,,,,,,,1.3007,1,0,1,1,15,1,1001,WHAISE,z,,,,,,,,,,,,,,,,,,,,,,,,,,,,,,,,,,,,,,,,,,,,,,,,,,,,,,,,,,,,,,,,,,
,,,,,,,,,,,,,,,,,6063f3e9652d7ffae2782315,23,2022-02-12_17h11.25.910,lexical_decision_task_DD_L5,2021.2.3,Win32,59.77286312,z,1,1.1511,,,,,,,,1.1511,1,0,2,2,11,1,1001,RASHET,z,,,,,,,,,,,,,,,,,,,,,,,,,,,,,,,,,,,,,,,,,,,,,,,,,,,,,,,,,,,,,,,,,,
,,,,,,,,,,,,,,,,,6063f3e9652d7ffae2782315,23,2022-02-12_17h11.25.910,lexical_decision_task_DD_L5,2021.2.3,Win32,59.77286312,z,1,1.2885,,,,,,,,1.2885,1,0,3,3,13,1,1001,ROUPET,z,,,,,,,,,,,,,,,,,,,,,,,,,,,,,,,,,,,,,,,,,,,,,,,,,,,,,,,,,,,,,,,,,,
,,,,,,,,,,,,,,,,,6063f3e9652d7ffae2782315,23,2022-02-12_17h11.25.910,lexical_decision_task_DD_L5,2021.2.3,Win32,59.77286312,z,1,1.7761,,,,,,,,1.7761,1,0,4,4,9,1,1001,FARINY,z,,,,,,,,,,,,,,,,,,,,,,,,,,,,,,,,,,,,,,,,,,,,,,,,,,,,,,,,,,,,,,,,,,
,,,,,,,,,,,,,,,,,6063f3e9652d7ffae2782315,23,2022-02-12_17h11.25.910,lexical_decision_task_DD_L5,2021.2.3,Win32,59.77286312,m,1,0.5842,,,,,,,,0.5842,1,0,5,5,1,1,1001,ADJUST,m,,,,,,,,,,,,,,,,,,,,,,,,,,,,,,,,,,,,,,,,,,,,,,,,,,,,,,,,,,,,,,,,,,
,,,,,,,,,,,,,,,,,6063f3e9652d7ffae2782315,23,2022-02-12_17h11.25.910,lexical_decision_task_DD_L5,2021.2.3,Win32,59.77286312,m,1,0.5827,,,,,,,,0.5827,1,0,6,6,6,1,1001,ZOMBIE,m,,,,,,,,,,,,,,,,,,,,,,,,,,,,,,,,,,,,,,,,,,,,,,,,,,,,,,,,,,,,,,,,,,
,,,,,,,,,,,,,,,,,6063f3e9652d7ffae2782315,23,2022-02-12_17h11.25.910,lexical_decision_task_DD_L5,2021.2.3,Win32,59.77286312,m,1,0.5244,,,,,,,,0.5244,1,0,7,7,4,1,1001,SQUEAK,m,,,,,,,,,,,,,,,,,,,,,,,,,,,,,,,,,,,,,,,,,,,,,,,,,,,,,,,,,,,,,,,,,,
,,,,,,,,,,,,,,,,,6063f3e9652d7ffae2782315,23,2022-02-12_17h11.25.910,lexical_decision_task_DD_L5,2021.2.3,Win32,59.77286312,m,1,0.484,,,,,,,,0.484,1,0,8,8,5,1,1001,OBTAIN,m,,,,,,,,,,,,,,,,,,,,,,,,,,,,,,,,,,,,,,,,,,,,,,,,,,,,,,,,,,,,,,,,,,
,,,,,,,,,,,,,,,,,6063f3e9652d7ffae2782315,23,2022-02-12_17h11.25.910,lexical_decision_task_DD_L5,2021.2.3,Win32,59.77286312,m,1,0.5041,,,,,,,,0.5041,1,0,9,9,7,1,1001,VOLUME,m,,,,,,,,,,,,,,,,,,,,,,,,,,,,,,,,,,,,,,,,,,,,,,,,,,,,,,,,,,,,,,,,,,
,,,,,,,,,,,,,,,,,6063f3e9652d7ffae2782315,23,2022-02-12_17h11.25.910,lexical_decision_task_DD_L5,2021.2.3,Win32,59.77286312,m,1,0.5613,,,,,,,,0.5613,1,0,10,10,0,1,1001,UTOPIA,m,,,,,,,,,,,,,,,,,,,,,,,,,,,,,,,,,,,,,,,,,,,,,,,,,,,,,,,,,,,,,,,,,,
,,,,,,,,,,,,,,,,,6063f3e9652d7ffae2782315,23,2022-02-12_17h11.25.910,lexical_decision_task_DD_L5,2021.2.3,Win32,59.77286312,m,1,0.5009,,,,,,,,0.5009,1,0,11,11,2,1,1001,ALMOND,m,,,,,,,,,,,,,,,,,,,,,,,,,,,,,,,,,,,,,,,,,,,,,,,,,,,,,,,,,,,,,,,,,,
,,,,,,,,,,,,,,,,,6063f3e9652d7ffae2782315,23,2022-02-12_17h11.25.910,lexical_decision_task_DD_L5,2021.2.3,Win32,59.77286312,m,0,2.0552,,,,,,,,2.0552,0,0,12,12,14,1,1001,THRALE,z,,,,,,,,,,,,,,,,,,,,,,,,,,,,,,,,,,,,,,,,,,,,,,,,,,,,,,,,,,,,,,,,,,
,,,,,,,,,,,,,,,,,6063f3e9652d7ffae2782315,23,2022-02-12_17h11.25.910,lexical_decision_task_DD_L5,2021.2.3,Win32,59.77286312,z,1,0.976,,,,,,,,0.976,1,0,13,13,12,1,1001,SPRINY,z,,,,,,,,,,,,,,,,,,,,,,,,,,,,,,,,,,,,,,,,,,,,,,,,,,,,,,,,,,,,,,,,,,
,,,,,,,,,,,,,,,,,6063f3e9652d7ffae2782315,23,2022-02-12_17h11.25.910,lexical_decision_task_DD_L5,2021.2.3,Win32,59.77286312,m,0,0.7948,,,,,,,,0.7948,0,0,14,14,10,1,1001,INLADE,z,,,,,,,,,,,,,,,,,,,,,,,,,,,,,,,,,,,,,,,,,,,,,,,,,,,,,,,,,,,,,,,,,,
,,,,,,,,,,,,,,,,,6063f3e9652d7ffae2782315,23,2022-02-12_17h11.25.910,lexical_decision_task_DD_L5,2021.2.3,Win32,59.77286312,z,1,0.9174,,,,,,,,0.9174,1,0,15,15,8,1,1001,ASLERT,z,,,,,,,,,,,,,,,,,,,,,,,,,,,,,,,,,,,,,,,,,,,,,,,,,,,,,,,,,,,,,,,,,,
space,6.5119,0.215740757,-0.180555566,0,0,0,,,,,,1,end_of_practice,"You have completed the practice trials. During the experimental trials, you will not receive feedback. 
Before you begin, please ensure that you are in a comfortable and quiet location and will not be disturbed for about 15 minutes, as we cannot use your data if you do not complete all the trials. 
 When you are ready to start the experimental trials, please press space or touch the button below.",,,6063f3e9652d7ffae2782315,23,2022-02-12_17h11.25.910,lexical_decision_task_DD_L5,2021.2.3,Win32,59.77286312,,,,,,,,,,,,,,,,,,,,,0,0,0,0,1,,,,,,,,,,,,,,,,,,,,,,,,,,,,,,,,,,,,,,,,,,,,,,,,,,,,,,,,,,,,,
,,,,,,,,,,,,,,,,,6063f3e9652d7ffae2782315,23,2022-02-12_17h11.25.910,lexical_decision_task_DD_L5,2021.2.3,Win32,59.77286312,,,,,,,,,,,1.2074,1,,,,,,,,,,,,,,m,1,1.2074,,,,,,,,0.215740757,-0.180555566,0,0,0,,0,0,0,28,1,CASINO,LB,old,m,./images/CASINOLB.png,,,,,,,,,,,,,,,,,,,,,,,,,,,,,,,,,,,
,,,,,,,,,,,,,,,,,6063f3e9652d7ffae2782315,23,2022-02-12_17h11.25.910,lexical_decision_task_DD_L5,2021.2.3,Win32,59.77286312,,,,,,,,,,,0.7139,1,,,,,,,,,,,,,,z,1,0.7139,,,,,,,,0.215740757,-0.180555566,0,0,0,,0,1,1,108,1,GRUET,C,old,z,./images/GRUET.png,,,,,,,,,,,,,,,,,,,,,,,,,,,,,,,,,,,
,,,,,,,,,,,,,,,,,6063f3e9652d7ffae2782315,23,2022-02-12_17h11.25.910,lexical_decision_task_DD_L5,2021.2.3,Win32,59.77286312,,,,,,,,,,,0.7785,1,,,,,,,,,,,,,,z,1,0.7785,,,,,,,,0.215740757,-0.180555566,0,0,0,,0,2,2,122,1,BLOOT,LB,old,z,./images/BLOOTLB.png,,,,,,,,,,,,,,,,,,,,,,,,,,,,,,,,,,,
,,,,,,,,,,,,,,,,,6063f3e9652d7ffae2782315,23,2022-02-12_17h11.25.910,lexical_decision_task_DD_L5,2021.2.3,Win32,59.77286312,,,,,,,,,,,0.6297,1,,,,,,,,,,,,,,z,1,0.6297,,,,,,,,0.215740757,-0.180555566,0,0,0,,0,3,3,93,1,SMONE,C,old,z,./images/SMONE.png,,,,,,,,,,,,,,,,,,,,,,,,,,,,,,,,,,,
,,,,,,,,,,,,,,,,,6063f3e9652d7ffae2782315,23,2022-02-12_17h11.25.910,lexical_decision_task_DD_L5,2021.2.3,Win32,59.77286312,,,,,,,,,,,0.883,1,,,,,,,,,,,,,,m,1,0.883,,,,,,,,0.215740757,-0.180555566,0,0,0,,0,4,4,51,1,SAUCE,HB,old,m,./images/SAUCEHB.png,,,,,,,,,,,,,,,,,,,,,,,,,,,,,,,,,,,
,,,,,,,,,,,,,,,,,6063f3e9652d7ffae2782315,23,2022-02-12_17h11.25.910,lexical_decision_task_DD_L5,2021.2.3,Win32,59.77286312,,,,,,,,,,,0.6905,1,,,,,,,,,,,,,,z,1,0.6905,,,,,,,,0.215740757,-0.180555566,0,0,0,,0,5,5,123,1,SEDGE,C,old,z,./images/SEDGE.png,,,,,,,,,,,,,,,,,,,,,,,,,,,,,,,,,,,
,,,,,,,,,,,,,,,,,6063f3e9652d7ffae2782315,23,2022-02-12_17h11.25.910,lexical_decision_task_DD_L5,2021.2.3,Win32,59.77286312,,,,,,,,,,,0.6511,1,,,,,,,,,,,,,,m,1,0.6511,,,,,,,,0.215740757,-0.180555566,0,0,0,,0,6,6,47,1,LAGOON,C,old,m,./images/LAGOON.png,,,,,,,,,,,,,,,,,,,,,,,,,,,,,,,,,,,
,,,,,,,,,,,,,,,,,6063f3e9652d7ffae2782315,23,2022-02-12_17h11.25.910,lexical_decision_task_DD_L5,2021.2.3,Win32,59.77286312,,,,,,,,,,,0.555,1,,,,,,,,,,,,,,m,1,0.555,,,,,,,,0.215740757,-0.180555566,0,0,0,,0,7,7,34,1,RAZOR,LB,old,m,./images/RAZORLB.png,,,,,,,,,,,,,,,,,,,,,,,,,,,,,,,,,,,
,,,,,,,,,,,,,,,,,6063f3e9652d7ffae2782315,23,2022-02-12_17h11.25.910,lexical_decision_task_DD_L5,2021.2.3,Win32,59.77286312,,,,,,,,,,,0.728,1,,,,,,,,,,,,,,z,1,0.728,,,,,,,,0.215740757,-0.180555566,0,0,0,,0,8,8,95,1,HANTY,LB,old,z,./images/HANTYLB.png,,,,,,,,,,,,,,,,,,,,,,,,,,,,,,,,,,,
,,,,,,,,,,,,,,,,,6063f3e9652d7ffae2782315,23,2022-02-12_17h11.25.910,lexical_decision_task_DD_L5,2021.2.3,Win32,59.77286312,,,,,,,,,,,1.7829,1,,,,,,,,,,,,,,z,1,1.7829,,,,,,,,0.215740757,-0.180555566,0,0,0,,0,9,9,121,1,CEERS,HB,old,z,./images/CEERSHB.png,,,,,,,,,,,,,,,,,,,,,,,,,,,,,,,,,,,
,,,,,,,,,,,,,,,,,6063f3e9652d7ffae2782315,23,2022-02-12_17h11.25.910,lexical_decision_task_DD_L5,2021.2.3,Win32,59.77286312,,,,,,,,,,,0.6714,1,,,,,,,,,,,,,,m,1,0.6714,,,,,,,,0.215740757,-0.180555566,0,0,0,,0,10,10,22,1,CLOWN,LB,old,m,./images/CLOWNLB.png,,,,,,,,,,,,,,,,,,,,,,,,,,,,,,,,,,,
,,,,,,,,,,,,,,,,,6063f3e9652d7ffae2782315,23,2022-02-12_17h11.25.910,lexical_decision_task_DD_L5,2021.2.3,Win32,59.77286312,,,,,,,,,,,0.6628,1,,,,,,,,,,,,,,z,1,0.6628,,,,,,,,0.215740757,-0.180555566,0,0,0,,0,11,11,114,1,RIKES,C,old,z,./images/RIKES.png,,,,,,,,,,,,,,,,,,,,,,,,,,,,,,,,,,,
,,,,,,,,,,,,,,,,,6063f3e9652d7ffae2782315,23,2022-02-12_17h11.25.910,lexical_decision_task_DD_L5,2021.2.3,Win32,59.77286312,,,,,,,,,,,0.8182,1,,,,,,,,,,,,,,m,1,0.8182,,,,,,,,0.215740757,-0.180555566,0,0,0,,0,12,12,24,1,FLESH,HB,old,m,./images/FLESHHB.png,,,,,,,,,,,,,,,,,,,,,,,,,,,,,,,,,,,
,,,,,,,,,,,,,,,,,6063f3e9652d7ffae2782315,23,2022-02-12_17h11.25.910,lexical_decision_task_DD_L5,2021.2.3,Win32,59.77286312,,,,,,,,,,,0.9008,1,,,,,,,,,,,,,,z,1,0.9008,,,,,,,,0.215740757,-0.180555566,0,0,0,,0,13,13,124,1,TUNCH,HB,old,z,./images/TUNCHHB.png,,,,,,,,,,,,,,,,,,,,,,,,,,,,,,,,,,,
,,,,,,,,,,,,,,,,,6063f3e9652d7ffae2782315,23,2022-02-12_17h11.25.910,lexical_decision_task_DD_L5,2021.2.3,Win32,59.77286312,,,,,,,,,,,2.0014,1,,,,,,,,,,,,,,z,1,2.0014,,,,,,,,0.215740757,-0.180555566,0,0,0,,0,14,14,163,1,GAMBA,HB,old,z,./images/GAMBAHB.png,,,,,,,,,,,,,,,,,,,,,,,,,,,,,,,,,,,
,,,,,,,,,,,,,,,,,6063f3e9652d7ffae2782315,23,2022-02-12_17h11.25.910,lexical_decision_task_DD_L5,2021.2.3,Win32,59.77286312,,,,,,,,,,,0.5446,1,,,,,,,,,,,,,,m,1,0.5446,,,,,,,,0.215740757,-0.180555566,0,0,0,,0,15,15,43,1,STOOL,LB,old,m,./images/STOOLLB.png,,,,,,,,,,,,,,,,,,,,,,,,,,,,,,,,,,,
,,,,,,,,,,,,,,,,,6063f3e9652d7ffae2782315,23,2022-02-12_17h11.25.910,lexical_decision_task_DD_L5,2021.2.3,Win32,59.77286312,,,,,,,,,,,0.7773,1,,,,,,,,,,,,,,z,1,0.7773,,,,,,,,0.215740757,-0.180555566,0,0,0,,0,16,16,160,1,VEETS,HB,old,z,./images/VEETSHB.png,,,,,,,,,,,,,,,,,,,,,,,,,,,,,,,,,,,
,,,,,,,,,,,,,,,,,6063f3e9652d7ffae2782315,23,2022-02-12_17h11.25.910,lexical_decision_task_DD_L5,2021.2.3,Win32,59.77286312,,,,,,,,,,,0.6506,1,,,,,,,,,,,,,,z,1,0.6506,,,,,,,,0.215740757,-0.180555566,0,0,0,,0,17,17,143,1,MONGS,LB,old,z,./images/MONGSLB.png,,,,,,,,,,,,,,,,,,,,,,,,,,,,,,,,,,,
,,,,,,,,,,,,,,,,,6063f3e9652d7ffae2782315,23,2022-02-12_17h11.25.910,lexical_decision_task_DD_L5,2021.2.3,Win32,59.77286312,,,,,,,,,,,0.52,1,,,,,,,,,,,,,,z,1,0.52,,,,,,,,0.215740757,-0.180555566,0,0,0,,0,18,18,89,1,DRIEK,LB,old,z,./images/DRIEKLB.png,,,,,,,,,,,,,,,,,,,,,,,,,,,,,,,,,,,
,,,,,,,,,,,,,,,,,6063f3e9652d7ffae2782315,23,2022-02-12_17h11.25.910,lexical_decision_task_DD_L5,2021.2.3,Win32,59.77286312,,,,,,,,,,,0.705,1,,,,,,,,,,,,,,z,1,0.705,,,,,,,,0.215740757,-0.180555566,0,0,0,,0,19,19,111,1,HOSSE,C,old,z,./images/HOSSE.png,,,,,,,,,,,,,,,,,,,,,,,,,,,,,,,,,,,
,,,,,,,,,,,,,,,,,6063f3e9652d7ffae2782315,23,2022-02-12_17h11.25.910,lexical_decision_task_DD_L5,2021.2.3,Win32,59.77286312,,,,,,,,,,,0.6338,1,,,,,,,,,,,,,,z,1,0.6338,,,,,,,,0.215740757,-0.180555566,0,0,0,,0,20,20,131,1,NACES,LB,old,z,./images/NACESLB.png,,,,,,,,,,,,,,,,,,,,,,,,,,,,,,,,,,,
,,,,,,,,,,,,,,,,,6063f3e9652d7ffae2782315,23,2022-02-12_17h11.25.910,lexical_decision_task_DD_L5,2021.2.3,Win32,59.77286312,,,,,,,,,,,1.0345,1,,,,,,,,,,,,,,z,1,1.0345,,,,,,,,0.215740757,-0.180555566,0,0,0,,0,21,21,103,1,FLORT,HB,old,z,./images/FLORTHB.png,,,,,,,,,,,,,,,,,,,,,,,,,,,,,,,,,,,
,,,,,,,,,,,,,,,,,6063f3e9652d7ffae2782315,23,2022-02-12_17h11.25.910,lexical_decision_task_DD_L5,2021.2.3,Win32,59.77286312,,,,,,,,,,,0.5536,1,,,,,,,,,,,,,,z,1,0.5536,,,,,,,,0.215740757,-0.180555566,0,0,0,,0,22,22,150,1,NOOLS,C,old,z,./images/NOOLS.png,,,,,,,,,,,,,,,,,,,,,,,,,,,,,,,,,,,
,,,,,,,,,,,,,,,,,6063f3e9652d7ffae2782315,23,2022-02-12_17h11.25.910,lexical_decision_task_DD_L5,2021.2.3,Win32,59.77286312,,,,,,,,,,,1.245,1,,,,,,,,,,,,,,z,1,1.245,,,,,,,,0.215740757,-0.180555566,0,0,0,,0,23,23,118,1,BAVEL,HB,old,z,./images/BAVELHB.png,,,,,,,,,,,,,,,,,,,,,,,,,,,,,,,,,,,
,,,,,,,,,,,,,,,,,6063f3e9652d7ffae2782315,23,2022-02-12_17h11.25.910,lexical_decision_task_DD_L5,2021.2.3,Win32,59.77286312,,,,,,,,,,,0.8874,1,,,,,,,,,,,,,,m,1,0.8874,,,,,,,,0.215740757,-0.180555566,0,0,0,,0,24,24,27,1,BUTTER,HB,old,m,./images/BUTTERHB.png,,,,,,,,,,,,,,,,,,,,,,,,,,,,,,,,,,,
,,,,,,,,,,,,,,,,,6063f3e9652d7ffae2782315,23,2022-02-12_17h11.25.910,lexical_decision_task_DD_L5,2021.2.3,Win32,59.77286312,,,,,,,,,,,0.4894,1,,,,,,,,,,,,,,m,1,0.4894,,,,,,,,0.215740757,-0.180555566,0,0,0,,0,25,25,41,1,STREAM,C,old,m,./images/STREAM.png,,,,,,,,,,,,,,,,,,,,,,,,,,,,,,,,,,,
,,,,,,,,,,,,,,,,,6063f3e9652d7ffae2782315,23,2022-02-12_17h11.25.910,lexical_decision_task_DD_L5,2021.2.3,Win32,59.77286312,,,,,,,,,,,0.5683,1,,,,,,,,,,,,,,m,1,0.5683,,,,,,,,0.215740757,-0.180555566,0,0,0,,0,26,26,5,1,BAMBOO,C,old,m,./images/BAMBOO.png,,,,,,,,,,,,,,,,,,,,,,,,,,,,,,,,,,,
,,,,,,,,,,,,,,,,,6063f3e9652d7ffae2782315,23,2022-02-12_17h11.25.910,lexical_decision_task_DD_L5,2021.2.3,Win32,59.77286312,,,,,,,,,,,0.6044,1,,,,,,,,,,,,,,m,1,0.6044,,,,,,,,0.215740757,-0.180555566,0,0,0,,0,27,27,68,1,VALLEY,C,old,m,./images/VALLEY.png,,,,,,,,,,,,,,,,,,,,,,,,,,,,,,,,,,,
,,,,,,,,,,,,,,,,,6063f3e9652d7ffae2782315,23,2022-02-12_17h11.25.910,lexical_decision_task_DD_L5,2021.2.3,Win32,59.77286312,,,,,,,,,,,0.4672,1,,,,,,,,,,,,,,m,1,0.4672,,,,,,,,0.215740757,-0.180555566,0,0,0,,0,28,28,44,1,BASKET,C,old,m,./images/BASKET.png,,,,,,,,,,,,,,,,,,,,,,,,,,,,,,,,,,,
,,,,,,,,,,,,,,,,,6063f3e9652d7ffae2782315,23,2022-02-12_17h11.25.910,lexical_decision_task_DD_L5,2021.2.3,Win32,59.77286312,,,,,,,,,,,0.6049,1,,,,,,,,,,,,,,z,1,0.6049,,,,,,,,0.215740757,-0.180555566,0,0,0,,0,29,29,156,1,HIXES,C,old,z,./images/HIXES.png,,,,,,,,,,,,,,,,,,,,,,,,,,,,,,,,,,,
,,,,,,,,,,,,,,,,,6063f3e9652d7ffae2782315,23,2022-02-12_17h11.25.910,lexical_decision_task_DD_L5,2021.2.3,Win32,59.77286312,,,,,,,,,,,0.5195,1,,,,,,,,,,,,,,z,1,0.5195,,,,,,,,0.215740757,-0.180555566,0,0,0,,0,30,30,135,1,JOODY,C,old,z,./images/JOODY.png,,,,,,,,,,,,,,,,,,,,,,,,,,,,,,,,,,,
,,,,,,,,,,,,,,,,,6063f3e9652d7ffae2782315,23,2022-02-12_17h11.25.910,lexical_decision_task_DD_L5,2021.2.3,Win32,59.77286312,,,,,,,,,,,0.5385,1,,,,,,,,,,,,,,m,1,0.5385,,,,,,,,0.215740757,-0.180555566,0,0,0,,0,31,31,46,1,MUMMY,LB,old,m,./images/MUMMYLB.png,,,,,,,,,,,,,,,,,,,,,,,,,,,,,,,,,,,
,,,,,,,,,,,,,,,,,6063f3e9652d7ffae2782315,23,2022-02-12_17h11.25.910,lexical_decision_task_DD_L5,2021.2.3,Win32,59.77286312,,,,,,,,,,,0.6162,1,,,,,,,,,,,,,,m,1,0.6162,,,,,,,,0.215740757,-0.180555566,0,0,0,,0,32,32,45,1,MONKEY,HB,old,m,./images/MONKEYHB.png,,,,,,,,,,,,,,,,,,,,,,,,,,,,,,,,,,,
,,,,,,,,,,,,,,,,,6063f3e9652d7ffae2782315,23,2022-02-12_17h11.25.910,lexical_decision_task_DD_L5,2021.2.3,Win32,59.77286312,,,,,,,,,,,0.6446,1,,,,,,,,,,,,,,z,1,0.6446,,,,,,,,0.215740757,-0.180555566,0,0,0,,0,33,33,99,1,BACKY,C,old,z,./images/BACKY.png,,,,,,,,,,,,,,,,,,,,,,,,,,,,,,,,,,,
,,,,,,,,,,,,,,,,,6063f3e9652d7ffae2782315,23,2022-02-12_17h11.25.910,lexical_decision_task_DD_L5,2021.2.3,Win32,59.77286312,,,,,,,,,,,0.9339,1,,,,,,,,,,,,,,m,1,0.9339,,,,,,,,0.215740757,-0.180555566,0,0,0,,0,34,34,3,1,CRATER,HB,old,m,./images/CRATERHB.png,,,,,,,,,,,,,,,,,,,,,,,,,,,,,,,,,,,
,,,,,,,,,,,,,,,,,6063f3e9652d7ffae2782315,23,2022-02-12_17h11.25.910,lexical_decision_task_DD_L5,2021.2.3,Win32,59.77286312,,,,,,,,,,,0.6081,1,,,,,,,,,,,,,,m,1,0.6081,,,,,,,,0.215740757,-0.180555566,0,0,0,,0,35,35,0,1,WALNUT,HB,old,m,./images/WALNUTHB.png,,,,,,,,,,,,,,,,,,,,,,,,,,,,,,,,,,,
,,,,,,,,,,,,,,,,,6063f3e9652d7ffae2782315,23,2022-02-12_17h11.25.910,lexical_decision_task_DD_L5,2021.2.3,Win32,59.77286312,,,,,,,,,,,0.5178,1,,,,,,,,,,,,,,m,1,0.5178,,,,,,,,0.215740757,-0.180555566,0,0,0,,0,36,36,11,1,MEDAL,C,old,m,./images/MEDAL.png,,,,,,,,,,,,,,,,,,,,,,,,,,,,,,,,,,,
,,,,,,,,,,,,,,,,,6063f3e9652d7ffae2782315,23,2022-02-12_17h11.25.910,lexical_decision_task_DD_L5,2021.2.3,Win32,59.77286312,,,,,,,,,,,0.6506,1,,,,,,,,,,,,,,z,1,0.6506,,,,,,,,0.215740757,-0.180555566,0,0,0,,0,37,37,101,1,GLEET,LB,old,z,./images/GLEETLB.png,,,,,,,,,,,,,,,,,,,,,,,,,,,,,,,,,,,
,,,,,,,,,,,,,,,,,6063f3e9652d7ffae2782315,23,2022-02-12_17h11.25.910,lexical_decision_task_DD_L5,2021.2.3,Win32,59.77286312,,,,,,,,,,,0.9682,1,,,,,,,,,,,,,,m,1,0.9682,,,,,,,,0.215740757,-0.180555566,0,0,0,,0,38,38,60,1,CURRY,HB,old,m,./images/CURRYHB.png,,,,,,,,,,,,,,,,,,,,,,,,,,,,,,,,,,,
,,,,,,,,,,,,,,,,,6063f3e9652d7ffae2782315,23,2022-02-12_17h11.25.910,lexical_decision_task_DD_L5,2021.2.3,Win32,59.77286312,,,,,,,,,,,0.5914,1,,,,,,,,,,,,,,m,1,0.5914,,,,,,,,0.215740757,-0.180555566,0,0,0,,0,39,39,16,1,GRAPE,LB,old,m,./images/GRAPELB.png,,,,,,,,,,,,,,,,,,,,,,,,,,,,,,,,,,,
,,,,,,,,,,,,,,,,,6063f3e9652d7ffae2782315,23,2022-02-12_17h11.25.910,lexical_decision_task_DD_L5,2021.2.3,Win32,59.77286312,,,,,,,,,,,0.6253,1,,,,,,,,,,,,,,z,1,0.6253,,,,,,,,0.215740757,-0.180555566,0,0,0,,0,40,40,117,1,STEEG,C,old,z,./images/STEEG.png,,,,,,,,,,,,,,,,,,,,,,,,,,,,,,,,,,,
,,,,,,,,,,,,,,,,,6063f3e9652d7ffae2782315,23,2022-02-12_17h11.25.910,lexical_decision_task_DD_L5,2021.2.3,Win32,59.77286312,,,,,,,,,,,1.579,1,,,,,,,,,,,,,,z,1,1.579,,,,,,,,0.215740757,-0.180555566,0,0,0,space,0,41,41,129,1,PRANS,C,old,z,./images/PRANS.png,15.9969,,,,,,,,,,,,,,,,,,,,,,,,,,,,,,,,,,
,,,,,,,,,,,,,,,,,6063f3e9652d7ffae2782315,23,2022-02-12_17h11.25.910,lexical_decision_task_DD_L5,2021.2.3,Win32,59.77286312,,,,,,,,,,,1.2912,1,,,,,,,,,,,,,,z,1,1.2912,,,,,,,,0.215740757,-0.180555566,0,0,0,,0,42,42,154,1,THINT,HB,old,z,./images/THINTHB.png,,,,,,,,,,,,,,,,,,,,,,,,,,,,,,,,,,,
,,,,,,,,,,,,,,,,,6063f3e9652d7ffae2782315,23,2022-02-12_17h11.25.910,lexical_decision_task_DD_L5,2021.2.3,Win32,59.77286312,,,,,,,,,,,0.9791,1,,,,,,,,,,,,,,z,1,0.9791,,,,,,,,0.215740757,-0.180555566,0,0,0,,0,43,43,130,1,CRILL,HB,old,z,./images/CRILLHB.png,,,,,,,,,,,,,,,,,,,,,,,,,,,,,,,,,,,
,,,,,,,,,,,,,,,,,6063f3e9652d7ffae2782315,23,2022-02-12_17h11.25.910,lexical_decision_task_DD_L5,2021.2.3,Win32,59.77286312,,,,,,,,,,,0.5716,1,,,,,,,,,,,,,,m,1,0.5716,,,,,,,,0.215740757,-0.180555566,0,0,0,,0,44,44,69,1,ARROW,HB,old,m,./images/ARROWHB.png,,,,,,,,,,,,,,,,,,,,,,,,,,,,,,,,,,,
,,,,,,,,,,,,,,,,,6063f3e9652d7ffae2782315,23,2022-02-12_17h11.25.910,lexical_decision_task_DD_L5,2021.2.3,Win32,59.77286312,,,,,,,,,,,0.5912,1,,,,,,,,,,,,,,z,1,0.5912,,,,,,,,0.215740757,-0.180555566,0,0,0,,0,45,45,110,1,CRUNK,LB,old,z,./images/CRUNKLB.png,,,,,,,,,,,,,,,,,,,,,,,,,,,,,,,,,,,
,,,,,,,,,,,,,,,,,6063f3e9652d7ffae2782315,23,2022-02-12_17h11.25.910,lexical_decision_task_DD_L5,2021.2.3,Win32,59.77286312,,,,,,,,,,,0.5606,1,,,,,,,,,,,,,,z,1,0.5606,,,,,,,,0.215740757,-0.180555566,0,0,0,,0,46,46,162,1,LEICH,C,old,z,./images/LEICH.png,,,,,,,,,,,,,,,,,,,,,,,,,,,,,,,,,,,
,,,,,,,,,,,,,,,,,6063f3e9652d7ffae2782315,23,2022-02-12_17h11.25.910,lexical_decision_task_DD_L5,2021.2.3,Win32,59.77286312,,,,,,,,,,,1.0708,1,,,,,,,,,,,,,,z,1,1.0708,,,,,,,,0.215740757,-0.180555566,0,0,0,,0,47,47,139,1,BLEAR,HB,old,z,./images/BLEARHB.png,,,,,,,,,,,,,,,,,,,,,,,,,,,,,,,,,,,
,,,,,,,,,,,,,,,,,6063f3e9652d7ffae2782315,23,2022-02-12_17h11.25.910,lexical_decision_task_DD_L5,2021.2.3,Win32,59.77286312,,,,,,,,,,,0.6098,1,,,,,,,,,,,,,,m,1,0.6098,,,,,,,,0.215740757,-0.180555566,0,0,0,,0,48,48,55,1,ALLEY,LB,old,m,./images/ALLEYLB.png,,,,,,,,,,,,,,,,,,,,,,,,,,,,,,,,,,,
,,,,,,,,,,,,,,,,,6063f3e9652d7ffae2782315,23,2022-02-12_17h11.25.910,lexical_decision_task_DD_L5,2021.2.3,Win32,59.77286312,,,,,,,,,,,1.1036,1,,,,,,,,,,,,,,m,1,1.1036,,,,,,,,0.215740757,-0.180555566,0,0,0,,0,49,49,57,1,FERRY,HB,old,m,./images/FERRYHB.png,,,,,,,,,,,,,,,,,,,,,,,,,,,,,,,,,,,
,,,,,,,,,,,,,,,,,6063f3e9652d7ffae2782315,23,2022-02-12_17h11.25.910,lexical_decision_task_DD_L5,2021.2.3,Win32,59.77286312,,,,,,,,,,,0.5501,1,,,,,,,,,,,,,,m,1,0.5501,,,,,,,,0.215740757,-0.180555566,0,0,0,,0,50,50,59,1,BRUSH,C,old,m,./images/BRUSH.png,,,,,,,,,,,,,,,,,,,,,,,,,,,,,,,,,,,
,,,,,,,,,,,,,,,,,6063f3e9652d7ffae2782315,23,2022-02-12_17h11.25.910,lexical_decision_task_DD_L5,2021.2.3,Win32,59.77286312,,,,,,,,,,,0.9438,1,,,,,,,,,,,,,,z,1,0.9438,,,,,,,,0.215740757,-0.180555566,0,0,0,,0,51,51,148,1,JOMS,HB,old,z,./images/JOMSHB.png,,,,,,,,,,,,,,,,,,,,,,,,,,,,,,,,,,,
,,,,,,,,,,,,,,,,,6063f3e9652d7ffae2782315,23,2022-02-12_17h11.25.910,lexical_decision_task_DD_L5,2021.2.3,Win32,59.77286312,,,,,,,,,,,0.5331,1,,,,,,,,,,,,,,m,1,0.5331,,,,,,,,0.215740757,-0.180555566,0,0,0,,0,52,52,79,1,RULER,LB,old,m,./images/RULERLB.png,,,,,,,,,,,,,,,,,,,,,,,,,,,,,,,,,,,
,,,,,,,,,,,,,,,,,6063f3e9652d7ffae2782315,23,2022-02-12_17h11.25.910,lexical_decision_task_DD_L5,2021.2.3,Win32,59.77286312,,,,,,,,,,,1.1882,1,,,,,,,,,,,,,,z,1,1.1882,,,,,,,,0.215740757,-0.180555566,0,0,0,,0,53,53,152,1,FRAIN,LB,old,z,./images/FRAINLB.png,,,,,,,,,,,,,,,,,,,,,,,,,,,,,,,,,,,
,,,,,,,,,,,,,,,,,6063f3e9652d7ffae2782315,23,2022-02-12_17h11.25.910,lexical_decision_task_DD_L5,2021.2.3,Win32,59.77286312,,,,,,,,,,,1.0011,1,,,,,,,,,,,,,,m,1,1.0011,,,,,,,,0.215740757,-0.180555566,0,0,0,,0,54,54,75,1,HAMMER,HB,old,m,./images/HAMMERHB.png,,,,,,,,,,,,,,,,,,,,,,,,,,,,,,,,,,,
,,,,,,,,,,,,,,,,,6063f3e9652d7ffae2782315,23,2022-02-12_17h11.25.910,lexical_decision_task_DD_L5,2021.2.3,Win32,59.77286312,,,,,,,,,,,0.5768,1,,,,,,,,,,,,,,z,1,0.5768,,,,,,,,0.215740757,-0.180555566,0,0,0,,0,55,55,126,1,GUELS,C,old,z,./images/GUELS.png,,,,,,,,,,,,,,,,,,,,,,,,,,,,,,,,,,,
,,,,,,,,,,,,,,,,,6063f3e9652d7ffae2782315,23,2022-02-12_17h11.25.910,lexical_decision_task_DD_L5,2021.2.3,Win32,59.77286312,,,,,,,,,,,0.601,1,,,,,,,,,,,,,,z,1,0.601,,,,,,,,0.215740757,-0.180555566,0,0,0,,0,56,56,141,1,PLEET,C,old,z,./images/PLEET.png,,,,,,,,,,,,,,,,,,,,,,,,,,,,,,,,,,,
,,,,,,,,,,,,,,,,,6063f3e9652d7ffae2782315,23,2022-02-12_17h11.25.910,lexical_decision_task_DD_L5,2021.2.3,Win32,59.77286312,,,,,,,,,,,0.6164,1,,,,,,,,,,,,,,m,1,0.6164,,,,,,,,0.215740757,-0.180555566,0,0,0,,0,57,57,17,1,PARADE,C,old,m,./images/PARADE.png,,,,,,,,,,,,,,,,,,,,,,,,,,,,,,,,,,,
,,,,,,,,,,,,,,,,,6063f3e9652d7ffae2782315,23,2022-02-12_17h11.25.910,lexical_decision_task_DD_L5,2021.2.3,Win32,59.77286312,,,,,,,,,,,0.7041,1,,,,,,,,,,,,,,z,1,0.7041,,,,,,,,0.215740757,-0.180555566,0,0,0,,0,58,58,115,1,MAWNS,HB,old,z,./images/MAWNSHB.png,,,,,,,,,,,,,,,,,,,,,,,,,,,,,,,,,,,
,,,,,,,,,,,,,,,,,6063f3e9652d7ffae2782315,23,2022-02-12_17h11.25.910,lexical_decision_task_DD_L5,2021.2.3,Win32,59.77286312,,,,,,,,,,,0.4842,1,,,,,,,,,,,,,,m,1,0.4842,,,,,,,,0.215740757,-0.180555566,0,0,0,,0,59,59,38,1,ENGINE,C,old,m,./images/ENGINE.png,,,,,,,,,,,,,,,,,,,,,,,,,,,,,,,,,,,
,,,,,,,,,,,,,,,,,6063f3e9652d7ffae2782315,23,2022-02-12_17h11.25.910,lexical_decision_task_DD_L5,2021.2.3,Win32,59.77286312,,,,,,,,,,,0.6941,1,,,,,,,,,,,,,,m,1,0.6941,,,,,,,,0.215740757,-0.180555566,0,0,0,,0,60,60,8,1,CLIFF,C,old,m,./images/CLIFF.png,,,,,,,,,,,,,,,,,,,,,,,,,,,,,,,,,,,
,,,,,,,,,,,,,,,,,6063f3e9652d7ffae2782315,23,2022-02-12_17h11.25.910,lexical_decision_task_DD_L5,2021.2.3,Win32,59.77286312,,,,,,,,,,,0.438,1,,,,,,,,,,,,,,m,1,0.438,,,,,,,,0.215740757,-0.180555566,0,0,0,,0,61,61,77,1,WHEEL,C,old,m,./images/WHEEL.png,,,,,,,,,,,,,,,,,,,,,,,,,,,,,,,,,,,
,,,,,,,,,,,,,,,,,6063f3e9652d7ffae2782315,23,2022-02-12_17h11.25.910,lexical_decision_task_DD_L5,2021.2.3,Win32,59.77286312,,,,,,,,,,,0.727,1,,,,,,,,,,,,,,m,1,0.727,,,,,,,,0.215740757,-0.180555566,0,0,0,,0,62,62,18,1,PARCEL,HB,old,m,./images/PARCELHB.png,,,,,,,,,,,,,,,,,,,,,,,,,,,,,,,,,,,
,,,,,,,,,,,,,,,,,6063f3e9652d7ffae2782315,23,2022-02-12_17h11.25.910,lexical_decision_task_DD_L5,2021.2.3,Win32,59.77286312,,,,,,,,,,,0.5857,1,,,,,,,,,,,,,,z,1,0.5857,,,,,,,,0.215740757,-0.180555566,0,0,0,,0,63,63,144,1,NAIRY,C,old,z,./images/NAIRY.png,,,,,,,,,,,,,,,,,,,,,,,,,,,,,,,,,,,
,,,,,,,,,,,,,,,,,6063f3e9652d7ffae2782315,23,2022-02-12_17h11.25.910,lexical_decision_task_DD_L5,2021.2.3,Win32,59.77286312,,,,,,,,,,,0.4933,1,,,,,,,,,,,,,,m,1,0.4933,,,,,,,,0.215740757,-0.180555566,0,0,0,,0,64,64,73,1,GLOVE,LB,old,m,./images/GLOVELB.png,,,,,,,,,,,,,,,,,,,,,,,,,,,,,,,,,,,
,,,,,,,,,,,,,,,,,6063f3e9652d7ffae2782315,23,2022-02-12_17h11.25.910,lexical_decision_task_DD_L5,2021.2.3,Win32,59.77286312,,,,,,,,,,,1.0229,1,,,,,,,,,,,,,,z,1,1.0229,,,,,,,,0.215740757,-0.180555566,0,0,0,,0,65,65,145,1,LAMEL,HB,old,z,./images/LAMELHB.png,,,,,,,,,,,,,,,,,,,,,,,,,,,,,,,,,,,
,,,,,,,,,,,,,,,,,6063f3e9652d7ffae2782315,23,2022-02-12_17h11.25.910,lexical_decision_task_DD_L5,2021.2.3,Win32,59.77286312,,,,,,,,,,,0.4674,1,,,,,,,,,,,,,,m,1,0.4674,,,,,,,,0.215740757,-0.180555566,0,0,0,,0,66,66,70,1,BANANA,LB,old,m,./images/BANANALB.png,,,,,,,,,,,,,,,,,,,,,,,,,,,,,,,,,,,
,,,,,,,,,,,,,,,,,6063f3e9652d7ffae2782315,23,2022-02-12_17h11.25.910,lexical_decision_task_DD_L5,2021.2.3,Win32,59.77286312,,,,,,,,,,,0.5506,1,,,,,,,,,,,,,,m,1,0.5506,,,,,,,,0.215740757,-0.180555566,0,0,0,,0,67,67,64,1,BRIDE,LB,old,m,./images/BRIDELB.png,,,,,,,,,,,,,,,,,,,,,,,,,,,,,,,,,,,
,,,,,,,,,,,,,,,,,6063f3e9652d7ffae2782315,23,2022-02-12_17h11.25.910,lexical_decision_task_DD_L5,2021.2.3,Win32,59.77286312,,,,,,,,,,,0.6595,1,,,,,,,,,,,,,,m,1,0.6595,,,,,,,,0.215740757,-0.180555566,0,0,0,,0,68,68,35,1,LLAMA,C,old,m,./images/LLAMA.png,,,,,,,,,,,,,,,,,,,,,,,,,,,,,,,,,,,
,,,,,,,,,,,,,,,,,6063f3e9652d7ffae2782315,23,2022-02-12_17h11.25.910,lexical_decision_task_DD_L5,2021.2.3,Win32,59.77286312,,,,,,,,,,,0.4876,1,,,,,,,,,,,,,,m,1,0.4876,,,,,,,,0.215740757,-0.180555566,0,0,0,,0,69,69,50,1,PILOT,C,old,m,./images/PILOT.png,,,,,,,,,,,,,,,,,,,,,,,,,,,,,,,,,,,
,,,,,,,,,,,,,,,,,6063f3e9652d7ffae2782315,23,2022-02-12_17h11.25.910,lexical_decision_task_DD_L5,2021.2.3,Win32,59.77286312,,,,,,,,,,,0.6552,1,,,,,,,,,,,,,,z,1,0.6552,,,,,,,,0.215740757,-0.180555566,0,0,0,,0,70,70,157,1,INLER,HB,old,z,./images/INLERHB.png,,,,,,,,,,,,,,,,,,,,,,,,,,,,,,,,,,,
,,,,,,,,,,,,,,,,,6063f3e9652d7ffae2782315,23,2022-02-12_17h11.25.910,lexical_decision_task_DD_L5,2021.2.3,Win32,59.77286312,,,,,,,,,,,0.6665,1,,,,,,,,,,,,,,m,1,0.6665,,,,,,,,0.215740757,-0.180555566,0,0,0,,0,71,71,42,1,CHAIN,HB,old,m,./images/CHAINHB.png,,,,,,,,,,,,,,,,,,,,,,,,,,,,,,,,,,,
,,,,,,,,,,,,,,,,,6063f3e9652d7ffae2782315,23,2022-02-12_17h11.25.910,lexical_decision_task_DD_L5,2021.2.3,Win32,59.77286312,,,,,,,,,,,0.576,1,,,,,,,,,,,,,,m,1,0.576,,,,,,,,0.215740757,-0.180555566,0,0,0,,0,72,72,12,1,BLOKE,HB,old,m,./images/BLOKEHB.png,,,,,,,,,,,,,,,,,,,,,,,,,,,,,,,,,,,
,,,,,,,,,,,,,,,,,6063f3e9652d7ffae2782315,23,2022-02-12_17h11.25.910,lexical_decision_task_DD_L5,2021.2.3,Win32,59.77286312,,,,,,,,,,,0.5105,1,,,,,,,,,,,,,,m,1,0.5105,,,,,,,,0.215740757,-0.180555566,0,0,0,,0,73,73,4,1,BOXER,LB,old,m,./images/BOXERLB.png,,,,,,,,,,,,,,,,,,,,,,,,,,,,,,,,,,,
,,,,,,,,,,,,,,,,,6063f3e9652d7ffae2782315,23,2022-02-12_17h11.25.910,lexical_decision_task_DD_L5,2021.2.3,Win32,59.77286312,,,,,,,,,,,0.443,1,,,,,,,,,,,,,,m,1,0.443,,,,,,,,0.215740757,-0.180555566,0,0,0,,0,74,74,40,1,SNAKE,LB,old,m,./images/SNAKELB.png,,,,,,,,,,,,,,,,,,,,,,,,,,,,,,,,,,,
,,,,,,,,,,,,,,,,,6063f3e9652d7ffae2782315,23,2022-02-12_17h11.25.910,lexical_decision_task_DD_L5,2021.2.3,Win32,59.77286312,,,,,,,,,,,0.7503,1,,,,,,,,,,,,,,z,1,0.7503,,,,,,,,0.215740757,-0.180555566,0,0,0,,0,75,75,151,1,TINKY,HB,old,z,./images/TINKYHB.png,,,,,,,,,,,,,,,,,,,,,,,,,,,,,,,,,,,
,,,,,,,,,,,,,,,,,6063f3e9652d7ffae2782315,23,2022-02-12_17h11.25.910,lexical_decision_task_DD_L5,2021.2.3,Win32,59.77286312,,,,,,,,,,,0.6023,1,,,,,,,,,,,,,,m,1,0.6023,,,,,,,,0.215740757,-0.180555566,0,0,0,,0,76,76,15,1,COLLAR,HB,old,m,./images/COLLARHB.png,,,,,,,,,,,,,,,,,,,,,,,,,,,,,,,,,,,
,,,,,,,,,,,,,,,,,6063f3e9652d7ffae2782315,23,2022-02-12_17h11.25.910,lexical_decision_task_DD_L5,2021.2.3,Win32,59.77286312,,,,,,,,,,,0.5852,1,,,,,,,,,,,,,,m,1,0.5852,,,,,,,,0.215740757,-0.180555566,0,0,0,,0,77,77,39,1,CANDY,HB,old,m,./images/CANDYHB.png,,,,,,,,,,,,,,,,,,,,,,,,,,,,,,,,,,,
,,,,,,,,,,,,,,,,,6063f3e9652d7ffae2782315,23,2022-02-12_17h11.25.910,lexical_decision_task_DD_L5,2021.2.3,Win32,59.77286312,,,,,,,,,,,1.079,1,,,,,,,,,,,,,,m,1,1.079,,,,,,,,0.215740757,-0.180555566,0,0,0,,0,78,78,36,1,BOILER,HB,old,m,./images/BOILERHB.png,,,,,,,,,,,,,,,,,,,,,,,,,,,,,,,,,,,
,,,,,,,,,,,,,,,,,6063f3e9652d7ffae2782315,23,2022-02-12_17h11.25.910,lexical_decision_task_DD_L5,2021.2.3,Win32,59.77286312,,,,,,,,,,,0.551,1,,,,,,,,,,,,,,z,1,0.551,,,,,,,,0.215740757,-0.180555566,0,0,0,,0,79,79,102,1,DULLE,C,old,z,./images/DULLE.png,,,,,,,,,,,,,,,,,,,,,,,,,,,,,,,,,,,
,,,,,,,,,,,,,,,,,6063f3e9652d7ffae2782315,23,2022-02-12_17h11.25.910,lexical_decision_task_DD_L5,2021.2.3,Win32,59.77286312,,,,,,,,,,,0.475,1,,,,,,,,,,,,,,m,1,0.475,,,,,,,,0.215740757,-0.180555566,0,0,0,,0,80,80,31,1,STEAK,LB,old,m,./images/STEAKLB.png,,,,,,,,,,,,,,,,,,,,,,,,,,,,,,,,,,,
,,,,,,,,,,,,,,,,,6063f3e9652d7ffae2782315,23,2022-02-12_17h11.25.910,lexical_decision_task_DD_L5,2021.2.3,Win32,59.77286312,,,,,,,,,,,0.8566,1,,,,,,,,,,,,,,z,1,0.8566,,,,,,,,0.215740757,-0.180555566,0,0,0,,0,81,81,109,1,BURGE,HB,old,z,./images/BURGEHB.png,,,,,,,,,,,,,,,,,,,,,,,,,,,,,,,,,,,
,,,,,,,,,,,,,,,,,6063f3e9652d7ffae2782315,23,2022-02-12_17h11.25.910,lexical_decision_task_DD_L5,2021.2.3,Win32,59.77286312,,,,,,,,,,,0.4887,1,,,,,,,,,,,,,,m,1,0.4887,,,,,,,,0.215740757,-0.180555566,0,0,0,,0,82,82,61,1,ARTIST,LB,old,m,./images/ARTISTLB.png,,,,,,,,,,,,,,,,,,,,,,,,,,,,,,,,,,,
,,,,,,,,,,,,,,,,,6063f3e9652d7ffae2782315,23,2022-02-12_17h11.25.910,lexical_decision_task_DD_L5,2021.2.3,Win32,59.77286312,,,,,,,,,,,1.251,1,,,,,,,,,,,,,,m,1,1.251,,,,,,,,0.215740757,-0.180555566,0,0,0,space,0,83,83,6,1,STAIN,HB,old,m,./images/STAINHB.png,1.7204,,,,,,,,,,,,,,,,,,,,,,,,,,,,,,,,,,
,,,,,,,,,,,,,,,,,6063f3e9652d7ffae2782315,23,2022-02-12_17h11.25.910,lexical_decision_task_DD_L5,2021.2.3,Win32,59.77286312,,,,,,,,,,,0.7493,1,,,,,,,,,,,,,,z,1,0.7493,,,,,,,,0.215740757,-0.180555566,0,0,0,,0,84,84,105,1,MOKER,C,old,z,./images/MOKER.png,,,,,,,,,,,,,,,,,,,,,,,,,,,,,,,,,,,
,,,,,,,,,,,,,,,,,6063f3e9652d7ffae2782315,23,2022-02-12_17h11.25.910,lexical_decision_task_DD_L5,2021.2.3,Win32,59.77286312,,,,,,,,,,,0.6082,1,,,,,,,,,,,,,,z,1,0.6082,,,,,,,,0.215740757,-0.180555566,0,0,0,,0,85,85,84,1,HAXES,C,old,z,./images/HAXES.png,,,,,,,,,,,,,,,,,,,,,,,,,,,,,,,,,,,
,,,,,,,,,,,,,,,,,6063f3e9652d7ffae2782315,23,2022-02-12_17h11.25.910,lexical_decision_task_DD_L5,2021.2.3,Win32,59.77286312,,,,,,,,,,,1.1904,1,,,,,,,,,,,,,,z,1,1.1904,,,,,,,,0.215740757,-0.180555566,0,0,0,,0,86,86,88,1,GLUSH,HB,old,z,./images/GLUSHHB.png,,,,,,,,,,,,,,,,,,,,,,,,,,,,,,,,,,,
,,,,,,,,,,,,,,,,,6063f3e9652d7ffae2782315,23,2022-02-12_17h11.25.910,lexical_decision_task_DD_L5,2021.2.3,Win32,59.77286312,,,,,,,,,,,0.6542,1,,,,,,,,,,,,,,m,1,0.6542,,,,,,,,0.215740757,-0.180555566,0,0,0,,0,87,87,49,1,BISHOP,LB,old,m,./images/BISHOPLB.png,,,,,,,,,,,,,,,,,,,,,,,,,,,,,,,,,,,
,,,,,,,,,,,,,,,,,6063f3e9652d7ffae2782315,23,2022-02-12_17h11.25.910,lexical_decision_task_DD_L5,2021.2.3,Win32,59.77286312,,,,,,,,,,,0.635,1,,,,,,,,,,,,,,z,1,0.635,,,,,,,,0.215740757,-0.180555566,0,0,0,,0,88,88,96,1,KEAMS,C,old,z,./images/KEAMS.png,,,,,,,,,,,,,,,,,,,,,,,,,,,,,,,,,,,
,,,,,,,,,,,,,,,,,6063f3e9652d7ffae2782315,23,2022-02-12_17h11.25.910,lexical_decision_task_DD_L5,2021.2.3,Win32,59.77286312,,,,,,,,,,,0.5941,1,,,,,,,,,,,,,,m,1,0.5941,,,,,,,,0.215740757,-0.180555566,0,0,0,,0,89,89,19,1,DONKEY,LB,old,m,./images/DONKEYLB.png,,,,,,,,,,,,,,,,,,,,,,,,,,,,,,,,,,,
,,,,,,,,,,,,,,,,,6063f3e9652d7ffae2782315,23,2022-02-12_17h11.25.910,lexical_decision_task_DD_L5,2021.2.3,Win32,59.77286312,,,,,,,,,,,0.7272,1,,,,,,,,,,,,,,m,1,0.7272,,,,,,,,0.215740757,-0.180555566,0,0,0,,0,90,90,65,1,SPINE,C,old,m,./images/SPINE.png,,,,,,,,,,,,,,,,,,,,,,,,,,,,,,,,,,,
,,,,,,,,,,,,,,,,,6063f3e9652d7ffae2782315,23,2022-02-12_17h11.25.910,lexical_decision_task_DD_L5,2021.2.3,Win32,59.77286312,,,,,,,,,,,0.8264,1,,,,,,,,,,,,,,m,1,0.8264,,,,,,,,0.215740757,-0.180555566,0,0,0,,0,91,91,33,1,SAUNA,HB,old,m,./images/SAUNAHB.png,,,,,,,,,,,,,,,,,,,,,,,,,,,,,,,,,,,
,,,,,,,,,,,,,,,,,6063f3e9652d7ffae2782315,23,2022-02-12_17h11.25.910,lexical_decision_task_DD_L5,2021.2.3,Win32,59.77286312,,,,,,,,,,,0.651,1,,,,,,,,,,,,,,m,1,0.651,,,,,,,,0.215740757,-0.180555566,0,0,0,,0,92,92,63,1,BAKER,HB,old,m,./images/BAKERHB.png,,,,,,,,,,,,,,,,,,,,,,,,,,,,,,,,,,,
,,,,,,,,,,,,,,,,,6063f3e9652d7ffae2782315,23,2022-02-12_17h11.25.910,lexical_decision_task_DD_L5,2021.2.3,Win32,59.77286312,,,,,,,,,,,0.7177,1,,,,,,,,,,,,,,z,1,0.7177,,,,,,,,0.215740757,-0.180555566,0,0,0,,0,93,93,133,1,POWDY,HB,old,z,./images/POWDYHB.png,,,,,,,,,,,,,,,,,,,,,,,,,,,,,,,,,,,
,,,,,,,,,,,,,,,,,6063f3e9652d7ffae2782315,23,2022-02-12_17h11.25.910,lexical_decision_task_DD_L5,2021.2.3,Win32,59.77286312,,,,,,,,,,,0.616,1,,,,,,,,,,,,,,z,1,0.616,,,,,,,,0.215740757,-0.180555566,0,0,0,,0,94,94,132,1,SCIFF,C,old,z,./images/SCIFF.png,,,,,,,,,,,,,,,,,,,,,,,,,,,,,,,,,,,
,,,,,,,,,,,,,,,,,6063f3e9652d7ffae2782315,23,2022-02-12_17h11.25.910,lexical_decision_task_DD_L5,2021.2.3,Win32,59.77286312,,,,,,,,,,,0.5174,1,,,,,,,,,,,,,,m,1,0.5174,,,,,,,,0.215740757,-0.180555566,0,0,0,,0,95,95,13,1,BUNNY,LB,old,m,./images/BUNNYLB.png,,,,,,,,,,,,,,,,,,,,,,,,,,,,,,,,,,,
,,,,,,,,,,,,,,,,,6063f3e9652d7ffae2782315,23,2022-02-12_17h11.25.910,lexical_decision_task_DD_L5,2021.2.3,Win32,59.77286312,,,,,,,,,,,1.7255,1,,,,,,,,,,,,,,z,1,1.7255,,,,,,,,0.215740757,-0.180555566,0,0,0,,0,96,96,166,1,SHORY,HB,old,z,./images/SHORYHB.png,,,,,,,,,,,,,,,,,,,,,,,,,,,,,,,,,,,
,,,,,,,,,,,,,,,,,6063f3e9652d7ffae2782315,23,2022-02-12_17h11.25.910,lexical_decision_task_DD_L5,2021.2.3,Win32,59.77286312,,,,,,,,,,,0.6842,1,,,,,,,,,,,,,,m,1,0.6842,,,,,,,,0.215740757,-0.180555566,0,0,0,,0,97,97,78,1,BROOM,HB,old,m,./images/BROOMHB.png,,,,,,,,,,,,,,,,,,,,,,,,,,,,,,,,,,,
,,,,,,,,,,,,,,,,,6063f3e9652d7ffae2782315,23,2022-02-12_17h11.25.910,lexical_decision_task_DD_L5,2021.2.3,Win32,59.77286312,,,,,,,,,,,0.6011,1,,,,,,,,,,,,,,z,1,0.6011,,,,,,,,0.215740757,-0.180555566,0,0,0,,0,98,98,113,1,LINEW,LB,old,z,./images/LINEWLB.png,,,,,,,,,,,,,,,,,,,,,,,,,,,,,,,,,,,
,,,,,,,,,,,,,,,,,6063f3e9652d7ffae2782315,23,2022-02-12_17h11.25.910,lexical_decision_task_DD_L5,2021.2.3,Win32,59.77286312,,,,,,,,,,,0.505,1,,,,,,,,,,,,,,m,1,0.505,,,,,,,,0.215740757,-0.180555566,0,0,0,,0,99,99,1,1,TOWEL,LB,old,m,./images/TOWELLB.png,,,,,,,,,,,,,,,,,,,,,,,,,,,,,,,,,,,
,,,,,,,,,,,,,,,,,6063f3e9652d7ffae2782315,23,2022-02-12_17h11.25.910,lexical_decision_task_DD_L5,2021.2.3,Win32,59.77286312,,,,,,,,,,,0.6866,1,,,,,,,,,,,,,,m,1,0.6866,,,,,,,,0.215740757,-0.180555566,0,0,0,,0,100,100,54,1,CHERRY,HB,old,m,./images/CHERRYHB.png,,,,,,,,,,,,,,,,,,,,,,,,,,,,,,,,,,,
,,,,,,,,,,,,,,,,,6063f3e9652d7ffae2782315,23,2022-02-12_17h11.25.910,lexical_decision_task_DD_L5,2021.2.3,Win32,59.77286312,,,,,,,,,,,0.5882,1,,,,,,,,,,,,,,m,1,0.5882,,,,,,,,0.215740757,-0.180555566,0,0,0,,0,101,101,83,1,WHISKY,C,old,m,./images/WHISKY.png,,,,,,,,,,,,,,,,,,,,,,,,,,,,,,,,,,,
,,,,,,,,,,,,,,,,,6063f3e9652d7ffae2782315,23,2022-02-12_17h11.25.910,lexical_decision_task_DD_L5,2021.2.3,Win32,59.77286312,,,,,,,,,,,0.7783,1,,,,,,,,,,,,,,z,1,0.7783,,,,,,,,0.215740757,-0.180555566,0,0,0,,0,102,102,136,1,WERVE,HB,old,z,./images/WERVEHB.png,,,,,,,,,,,,,,,,,,,,,,,,,,,,,,,,,,,
,,,,,,,,,,,,,,,,,6063f3e9652d7ffae2782315,23,2022-02-12_17h11.25.910,lexical_decision_task_DD_L5,2021.2.3,Win32,59.77286312,,,,,,,,,,,1.0676,1,,,,,,,,,,,,,,z,1,1.0676,,,,,,,,0.215740757,-0.180555566,0,0,0,,0,103,103,165,1,TROWN,C,old,z,./images/TROWN.png,,,,,,,,,,,,,,,,,,,,,,,,,,,,,,,,,,,
,,,,,,,,,,,,,,,,,6063f3e9652d7ffae2782315,23,2022-02-12_17h11.25.910,lexical_decision_task_DD_L5,2021.2.3,Win32,59.77286312,,,,,,,,,,,0.7005,1,,,,,,,,,,,,,,m,1,0.7005,,,,,,,,0.215740757,-0.180555566,0,0,0,,0,104,104,53,1,POSTER,C,old,m,./images/POSTER.png,,,,,,,,,,,,,,,,,,,,,,,,,,,,,,,,,,,
,,,,,,,,,,,,,,,,,6063f3e9652d7ffae2782315,23,2022-02-12_17h11.25.910,lexical_decision_task_DD_L5,2021.2.3,Win32,59.77286312,,,,,,,,,,,0.5516,1,,,,,,,,,,,,,,m,1,0.5516,,,,,,,,0.215740757,-0.180555566,0,0,0,,0,105,105,7,1,WAGON,LB,old,m,./images/WAGONLB.png,,,,,,,,,,,,,,,,,,,,,,,,,,,,,,,,,,,
,,,,,,,,,,,,,,,,,6063f3e9652d7ffae2782315,23,2022-02-12_17h11.25.910,lexical_decision_task_DD_L5,2021.2.3,Win32,59.77286312,,,,,,,,,,,0.9167,1,,,,,,,,,,,,,,z,1,0.9167,,,,,,,,0.215740757,-0.180555566,0,0,0,,0,106,106,159,1,CUDDY,C,old,z,./images/CUDDY.png,,,,,,,,,,,,,,,,,,,,,,,,,,,,,,,,,,,
,,,,,,,,,,,,,,,,,6063f3e9652d7ffae2782315,23,2022-02-12_17h11.25.910,lexical_decision_task_DD_L5,2021.2.3,Win32,59.77286312,,,,,,,,,,,0.6696,1,,,,,,,,,,,,,,z,1,0.6696,,,,,,,,0.215740757,-0.180555566,0,0,0,,0,107,107,97,1,CHIDS,HB,old,z,./images/CHIDSHB.png,,,,,,,,,,,,,,,,,,,,,,,,,,,,,,,,,,,
,,,,,,,,,,,,,,,,,6063f3e9652d7ffae2782315,23,2022-02-12_17h11.25.910,lexical_decision_task_DD_L5,2021.2.3,Win32,59.77286312,,,,,,,,,,,0.5722,1,,,,,,,,,,,,,,z,1,0.5722,,,,,,,,0.215740757,-0.180555566,0,0,0,,0,108,108,137,1,JOOST,LB,old,z,./images/JOOSTLB.png,,,,,,,,,,,,,,,,,,,,,,,,,,,,,,,,,,,
,,,,,,,,,,,,,,,,,6063f3e9652d7ffae2782315,23,2022-02-12_17h11.25.910,lexical_decision_task_DD_L5,2021.2.3,Win32,59.77286312,,,,,,,,,,,0.5673,1,,,,,,,,,,,,,,z,1,0.5673,,,,,,,,0.215740757,-0.180555566,0,0,0,,0,109,109,107,1,FASKS,LB,old,z,./images/FASKSLB.png,,,,,,,,,,,,,,,,,,,,,,,,,,,,,,,,,,,
,,,,,,,,,,,,,,,,,6063f3e9652d7ffae2782315,23,2022-02-12_17h11.25.910,lexical_decision_task_DD_L5,2021.2.3,Win32,59.77286312,,,,,,,,,,,0.5411,1,,,,,,,,,,,,,,z,1,0.5411,,,,,,,,0.215740757,-0.180555566,0,0,0,,0,110,110,138,1,PLICE,C,old,z,./images/PLICE.png,,,,,,,,,,,,,,,,,,,,,,,,,,,,,,,,,,,
,,,,,,,,,,,,,,,,,6063f3e9652d7ffae2782315,23,2022-02-12_17h11.25.910,lexical_decision_task_DD_L5,2021.2.3,Win32,59.77286312,,,,,,,,,,,0.5679,1,,,,,,,,,,,,,,m,1,0.5679,,,,,,,,0.215740757,-0.180555566,0,0,0,,0,111,111,20,1,GRANNY,C,old,m,./images/GRANNY.png,,,,,,,,,,,,,,,,,,,,,,,,,,,,,,,,,,,
,,,,,,,,,,,,,,,,,6063f3e9652d7ffae2782315,23,2022-02-12_17h11.25.910,lexical_decision_task_DD_L5,2021.2.3,Win32,59.77286312,,,,,,,,,,,0.6622,1,,,,,,,,,,,,,,z,1,0.6622,,,,,,,,0.215740757,-0.180555566,0,0,0,,0,112,112,92,1,PAIMS,LB,old,z,./images/PAIMSLB.png,,,,,,,,,,,,,,,,,,,,,,,,,,,,,,,,,,,
,,,,,,,,,,,,,,,,,6063f3e9652d7ffae2782315,23,2022-02-12_17h11.25.910,lexical_decision_task_DD_L5,2021.2.3,Win32,59.77286312,,,,,,,,,,,1.0206,1,,,,,,,,,,,,,,z,1,1.0206,,,,,,,,0.215740757,-0.180555566,0,0,0,,0,113,113,85,1,CHULK,HB,old,z,./images/CHULKHB.png,,,,,,,,,,,,,,,,,,,,,,,,,,,,,,,,,,,
,,,,,,,,,,,,,,,,,6063f3e9652d7ffae2782315,23,2022-02-12_17h11.25.910,lexical_decision_task_DD_L5,2021.2.3,Win32,59.77286312,,,,,,,,,,,0.6263,1,,,,,,,,,,,,,,z,1,0.6263,,,,,,,,0.215740757,-0.180555566,0,0,0,,0,114,114,98,1,BAMPS,LB,old,z,./images/BAMPSLB.png,,,,,,,,,,,,,,,,,,,,,,,,,,,,,,,,,,,
,,,,,,,,,,,,,,,,,6063f3e9652d7ffae2782315,23,2022-02-12_17h11.25.910,lexical_decision_task_DD_L5,2021.2.3,Win32,59.77286312,,,,,,,,,,,0.5398,1,,,,,,,,,,,,,,z,1,0.5398,,,,,,,,0.215740757,-0.180555566,0,0,0,,0,115,115,158,1,EGECT,LB,old,z,./images/EGECTLB.png,,,,,,,,,,,,,,,,,,,,,,,,,,,,,,,,,,,
,,,,,,,,,,,,,,,,,6063f3e9652d7ffae2782315,23,2022-02-12_17h11.25.910,lexical_decision_task_DD_L5,2021.2.3,Win32,59.77286312,,,,,,,,,,,0.9216,1,,,,,,,,,,,,,,z,1,0.9216,,,,,,,,0.215740757,-0.180555566,0,0,0,,0,116,116,91,1,SHENS,HB,old,z,./images/SHENSHB.png,,,,,,,,,,,,,,,,,,,,,,,,,,,,,,,,,,,
,,,,,,,,,,,,,,,,,6063f3e9652d7ffae2782315,23,2022-02-12_17h11.25.910,lexical_decision_task_DD_L5,2021.2.3,Win32,59.77286312,,,,,,,,,,,0.8352,1,,,,,,,,,,,,,,m,1,0.8352,,,,,,,,0.215740757,-0.180555566,0,0,0,,0,117,117,30,1,SLOPE,HB,old,m,./images/SLOPEHB.png,,,,,,,,,,,,,,,,,,,,,,,,,,,,,,,,,,,
,,,,,,,,,,,,,,,,,6063f3e9652d7ffae2782315,23,2022-02-12_17h11.25.910,lexical_decision_task_DD_L5,2021.2.3,Win32,59.77286312,,,,,,,,,,,0.7054,1,,,,,,,,,,,,,,z,1,0.7054,,,,,,,,0.215740757,-0.180555566,0,0,0,,0,118,118,119,1,PAFER,LB,old,z,./images/PAFERLB.png,,,,,,,,,,,,,,,,,,,,,,,,,,,,,,,,,,,
,,,,,,,,,,,,,,,,,6063f3e9652d7ffae2782315,23,2022-02-12_17h11.25.910,lexical_decision_task_DD_L5,2021.2.3,Win32,59.77286312,,,,,,,,,,,0.7335,1,,,,,,,,,,,,,,m,1,0.7335,,,,,,,,0.215740757,-0.180555566,0,0,0,,0,119,119,48,1,SHIELD,HB,old,m,./images/SHIELDHB.png,,,,,,,,,,,,,,,,,,,,,,,,,,,,,,,,,,,
,,,,,,,,,,,,,,,,,6063f3e9652d7ffae2782315,23,2022-02-12_17h11.25.910,lexical_decision_task_DD_L5,2021.2.3,Win32,59.77286312,,,,,,,,,,,0.568,1,,,,,,,,,,,,,,z,1,0.568,,,,,,,,0.215740757,-0.180555566,0,0,0,,0,120,120,90,1,NEAST,C,old,z,./images/NEAST.png,,,,,,,,,,,,,,,,,,,,,,,,,,,,,,,,,,,
,,,,,,,,,,,,,,,,,6063f3e9652d7ffae2782315,23,2022-02-12_17h11.25.910,lexical_decision_task_DD_L5,2021.2.3,Win32,59.77286312,,,,,,,,,,,0.6008,1,,,,,,,,,,,,,,z,1,0.6008,,,,,,,,0.215740757,-0.180555566,0,0,0,,0,121,121,116,1,BALGY,LB,old,z,./images/BALGYLB.png,,,,,,,,,,,,,,,,,,,,,,,,,,,,,,,,,,,
,,,,,,,,,,,,,,,,,6063f3e9652d7ffae2782315,23,2022-02-12_17h11.25.910,lexical_decision_task_DD_L5,2021.2.3,Win32,59.77286312,,,,,,,,,,,0.5657,1,,,,,,,,,,,,,,m,1,0.5657,,,,,,,,0.215740757,-0.180555566,0,0,0,,0,122,122,56,1,HEATER,C,old,m,./images/HEATER.png,,,,,,,,,,,,,,,,,,,,,,,,,,,,,,,,,,,
,,,,,,,,,,,,,,,,,6063f3e9652d7ffae2782315,23,2022-02-12_17h11.25.910,lexical_decision_task_DD_L5,2021.2.3,Win32,59.77286312,,,,,,,,,,,0.7351,1,,,,,,,,,,,,,,m,1,0.7351,,,,,,,,0.215740757,-0.180555566,0,0,0,,0,123,123,66,1,STATUE,HB,old,m,./images/STATUEHB.png,,,,,,,,,,,,,,,,,,,,,,,,,,,,,,,,,,,
,,,,,,,,,,,,,,,,,6063f3e9652d7ffae2782315,23,2022-02-12_17h11.25.910,lexical_decision_task_DD_L5,2021.2.3,Win32,59.77286312,,,,,,,,,,,0.5114,1,,,,,,,,,,,,,,z,1,0.5114,,,,,,,,0.215740757,-0.180555566,0,0,0,,0,124,124,140,1,DOVET,LB,old,z,./images/DOVETLB.png,,,,,,,,,,,,,,,,,,,,,,,,,,,,,,,,,,,
,,,,,,,,,,,,,,,,,6063f3e9652d7ffae2782315,23,2022-02-12_17h11.25.910,lexical_decision_task_DD_L5,2021.2.3,Win32,59.77286312,,,,,,,,,,,0.9494,1,,,,,,,,,,,,,,z,1,0.9494,,,,,,,,0.215740757,-0.180555566,0,0,0,space,0,125,125,106,1,CLUMS,HB,old,z,./images/CLUMSHB.png,0.9555,,,,,,,,,,,,,,,,,,,,,,,,,,,,,,,,,,
,,,,,,,,,,,,,,,,,6063f3e9652d7ffae2782315,23,2022-02-12_17h11.25.910,lexical_decision_task_DD_L5,2021.2.3,Win32,59.77286312,,,,,,,,,,,0.5591,1,,,,,,,,,,,,,,m,1,0.5591,,,,,,,,0.215740757,-0.180555566,0,0,0,,0,126,126,74,1,JUMPER,C,old,m,./images/JUMPER.png,,,,,,,,,,,,,,,,,,,,,,,,,,,,,,,,,,,
,,,,,,,,,,,,,,,,,6063f3e9652d7ffae2782315,23,2022-02-12_17h11.25.910,lexical_decision_task_DD_L5,2021.2.3,Win32,59.77286312,,,,,,,,,,,0.8755,1,,,,,,,,,,,,,,z,1,0.8755,,,,,,,,0.215740757,-0.180555566,0,0,0,,0,127,127,94,1,BLANS,HB,old,z,./images/BLANSHB.png,,,,,,,,,,,,,,,,,,,,,,,,,,,,,,,,,,,
,,,,,,,,,,,,,,,,,6063f3e9652d7ffae2782315,23,2022-02-12_17h11.25.910,lexical_decision_task_DD_L5,2021.2.3,Win32,59.77286312,,,,,,,,,,,0.6492,1,,,,,,,,,,,,,,z,1,0.6492,,,,,,,,0.215740757,-0.180555566,0,0,0,,0,128,128,167,1,ZONET,LB,old,z,./images/ZONETLB.png,,,,,,,,,,,,,,,,,,,,,,,,,,,,,,,,,,,
,,,,,,,,,,,,,,,,,6063f3e9652d7ffae2782315,23,2022-02-12_17h11.25.910,lexical_decision_task_DD_L5,2021.2.3,Win32,59.77286312,,,,,,,,,,,0.6434,1,,,,,,,,,,,,,,m,1,0.6434,,,,,,,,0.215740757,-0.180555566,0,0,0,,0,129,129,76,1,MIDGET,LB,old,m,./images/MIDGETLB.png,,,,,,,,,,,,,,,,,,,,,,,,,,,,,,,,,,,
,,,,,,,,,,,,,,,,,6063f3e9652d7ffae2782315,23,2022-02-12_17h11.25.910,lexical_decision_task_DD_L5,2021.2.3,Win32,59.77286312,,,,,,,,,,,0.6026,1,,,,,,,,,,,,,,m,1,0.6026,,,,,,,,0.215740757,-0.180555566,0,0,0,,0,130,130,29,1,PISTOL,C,old,m,./images/PISTOL.png,,,,,,,,,,,,,,,,,,,,,,,,,,,,,,,,,,,
,,,,,,,,,,,,,,,,,6063f3e9652d7ffae2782315,23,2022-02-12_17h11.25.910,lexical_decision_task_DD_L5,2021.2.3,Win32,59.77286312,,,,,,,,,,,0.7014,1,,,,,,,,,,,,,,z,1,0.7014,,,,,,,,0.215740757,-0.180555566,0,0,0,,0,131,131,86,1,AIFED,LB,old,z,./images/AIFEDLB.png,,,,,,,,,,,,,,,,,,,,,,,,,,,,,,,,,,,
,,,,,,,,,,,,,,,,,6063f3e9652d7ffae2782315,23,2022-02-12_17h11.25.910,lexical_decision_task_DD_L5,2021.2.3,Win32,59.77286312,,,,,,,,,,,0.6576,1,,,,,,,,,,,,,,z,1,0.6576,,,,,,,,0.215740757,-0.180555566,0,0,0,,0,132,132,155,1,CANGY,LB,old,z,./images/CANGYLB.png,,,,,,,,,,,,,,,,,,,,,,,,,,,,,,,,,,,
,,,,,,,,,,,,,,,,,6063f3e9652d7ffae2782315,23,2022-02-12_17h11.25.910,lexical_decision_task_DD_L5,2021.2.3,Win32,59.77286312,,,,,,,,,,,0.7673,1,,,,,,,,,,,,,,z,1,0.7673,,,,,,,,0.215740757,-0.180555566,0,0,0,,0,133,133,120,1,RINED,C,old,z,./images/RINED.png,,,,,,,,,,,,,,,,,,,,,,,,,,,,,,,,,,,
,,,,,,,,,,,,,,,,,6063f3e9652d7ffae2782315,23,2022-02-12_17h11.25.910,lexical_decision_task_DD_L5,2021.2.3,Win32,59.77286312,,,,,,,,,,,0.5125,1,,,,,,,,,,,,,,z,1,0.5125,,,,,,,,0.215740757,-0.180555566,0,0,0,,0,134,134,153,1,CLUPS,C,old,z,./images/CLUPS.png,,,,,,,,,,,,,,,,,,,,,,,,,,,,,,,,,,,
,,,,,,,,,,,,,,,,,6063f3e9652d7ffae2782315,23,2022-02-12_17h11.25.910,lexical_decision_task_DD_L5,2021.2.3,Win32,59.77286312,,,,,,,,,,,0.9836,1,,,,,,,,,,,,,,m,1,0.9836,,,,,,,,0.215740757,-0.180555566,0,0,0,,0,135,135,9,1,DIVER,HB,old,m,./images/DIVERHB.png,,,,,,,,,,,,,,,,,,,,,,,,,,,,,,,,,,,
,,,,,,,,,,,,,,,,,6063f3e9652d7ffae2782315,23,2022-02-12_17h11.25.910,lexical_decision_task_DD_L5,2021.2.3,Win32,59.77286312,,,,,,,,,,,0.7119,1,,,,,,,,,,,,,,m,1,0.7119,,,,,,,,0.215740757,-0.180555566,0,0,0,,0,136,136,52,1,DESERT,LB,old,m,./images/DESERTLB.png,,,,,,,,,,,,,,,,,,,,,,,,,,,,,,,,,,,
,,,,,,,,,,,,,,,,,6063f3e9652d7ffae2782315,23,2022-02-12_17h11.25.910,lexical_decision_task_DD_L5,2021.2.3,Win32,59.77286312,,,,,,,,,,,0.6542,1,,,,,,,,,,,,,,m,1,0.6542,,,,,,,,0.215740757,-0.180555566,0,0,0,,0,137,137,2,1,STOVE,C,old,m,./images/STOVE.png,,,,,,,,,,,,,,,,,,,,,,,,,,,,,,,,,,,
,,,,,,,,,,,,,,,,,6063f3e9652d7ffae2782315,23,2022-02-12_17h11.25.910,lexical_decision_task_DD_L5,2021.2.3,Win32,59.77286312,,,,,,,,,,,0.8004,1,,,,,,,,,,,,,,z,1,0.8004,,,,,,,,0.215740757,-0.180555566,0,0,0,,0,138,138,149,1,VEASE,LB,old,z,./images/VEASELB.png,,,,,,,,,,,,,,,,,,,,,,,,,,,,,,,,,,,
,,,,,,,,,,,,,,,,,6063f3e9652d7ffae2782315,23,2022-02-12_17h11.25.910,lexical_decision_task_DD_L5,2021.2.3,Win32,59.77286312,,,,,,,,,,,0.5667,1,,,,,,,,,,,,,,m,1,0.5667,,,,,,,,0.215740757,-0.180555566,0,0,0,,0,139,139,62,1,MAMMAL,C,old,m,./images/MAMMAL.png,,,,,,,,,,,,,,,,,,,,,,,,,,,,,,,,,,,
,,,,,,,,,,,,,,,,,6063f3e9652d7ffae2782315,23,2022-02-12_17h11.25.910,lexical_decision_task_DD_L5,2021.2.3,Win32,59.77286312,,,,,,,,,,,0.567,1,,,,,,,,,,,,,,m,1,0.567,,,,,,,,0.215740757,-0.180555566,0,0,0,,0,140,140,32,1,HOCKEY,C,old,m,./images/HOCKEY.png,,,,,,,,,,,,,,,,,,,,,,,,,,,,,,,,,,,
,,,,,,,,,,,,,,,,,6063f3e9652d7ffae2782315,23,2022-02-12_17h11.25.910,lexical_decision_task_DD_L5,2021.2.3,Win32,59.77286312,,,,,,,,,,,0.5926,1,,,,,,,,,,,,,,z,1,0.5926,,,,,,,,0.215740757,-0.180555566,0,0,0,,0,141,141,87,1,TRING,C,old,z,./images/TRING.png,,,,,,,,,,,,,,,,,,,,,,,,,,,,,,,,,,,
,,,,,,,,,,,,,,,,,6063f3e9652d7ffae2782315,23,2022-02-12_17h11.25.910,lexical_decision_task_DD_L5,2021.2.3,Win32,59.77286312,,,,,,,,,,,0.4782,1,,,,,,,,,,,,,,m,1,0.4782,,,,,,,,0.215740757,-0.180555566,0,0,0,,0,142,142,26,1,CLOUD,C,old,m,./images/CLOUD.png,,,,,,,,,,,,,,,,,,,,,,,,,,,,,,,,,,,
,,,,,,,,,,,,,,,,,6063f3e9652d7ffae2782315,23,2022-02-12_17h11.25.910,lexical_decision_task_DD_L5,2021.2.3,Win32,59.77286312,,,,,,,,,,,0.5225,1,,,,,,,,,,,,,,m,1,0.5225,,,,,,,,0.215740757,-0.180555566,0,0,0,,0,143,143,67,1,POKER,LB,old,m,./images/POKERLB.png,,,,,,,,,,,,,,,,,,,,,,,,,,,,,,,,,,,
,,,,,,,,,,,,,,,,,6063f3e9652d7ffae2782315,23,2022-02-12_17h11.25.910,lexical_decision_task_DD_L5,2021.2.3,Win32,59.77286312,,,,,,,,,,,0.5999,1,,,,,,,,,,,,,,m,1,0.5999,,,,,,,,0.215740757,-0.180555566,0,0,0,,0,144,144,71,1,BUBBLE,C,old,m,./images/BUBBLE.png,,,,,,,,,,,,,,,,,,,,,,,,,,,,,,,,,,,
,,,,,,,,,,,,,,,,,6063f3e9652d7ffae2782315,23,2022-02-12_17h11.25.910,lexical_decision_task_DD_L5,2021.2.3,Win32,59.77286312,,,,,,,,,,,0.8223,1,,,,,,,,,,,,,,z,1,0.8223,,,,,,,,0.215740757,-0.180555566,0,0,0,,0,145,145,127,1,NINDY,HB,old,z,./images/NINDYHB.png,,,,,,,,,,,,,,,,,,,,,,,,,,,,,,,,,,,
,,,,,,,,,,,,,,,,,6063f3e9652d7ffae2782315,23,2022-02-12_17h11.25.910,lexical_decision_task_DD_L5,2021.2.3,Win32,59.77286312,,,,,,,,,,,1.4023,1,,,,,,,,,,,,,,z,1,1.4023,,,,,,,,0.215740757,-0.180555566,0,0,0,,0,146,146,142,1,PLASK,HB,old,z,./images/PLASKHB.png,,,,,,,,,,,,,,,,,,,,,,,,,,,,,,,,,,,
,,,,,,,,,,,,,,,,,6063f3e9652d7ffae2782315,23,2022-02-12_17h11.25.910,lexical_decision_task_DD_L5,2021.2.3,Win32,59.77286312,,,,,,,,,,,0.6067,1,,,,,,,,,,,,,,z,1,0.6067,,,,,,,,0.215740757,-0.180555566,0,0,0,,0,147,147,147,1,ZOLES,C,old,z,./images/ZOLES.png,,,,,,,,,,,,,,,,,,,,,,,,,,,,,,,,,,,
,,,,,,,,,,,,,,,,,6063f3e9652d7ffae2782315,23,2022-02-12_17h11.25.910,lexical_decision_task_DD_L5,2021.2.3,Win32,59.77286312,,,,,,,,,,,0.8048,1,,,,,,,,,,,,,,m,1,0.8048,,,,,,,,0.215740757,-0.180555566,0,0,0,,0,148,148,72,1,FLASK,HB,old,m,./images/FLASKHB.png,,,,,,,,,,,,,,,,,,,,,,,,,,,,,,,,,,,
,,,,,,,,,,,,,,,,,6063f3e9652d7ffae2782315,23,2022-02-12_17h11.25.910,lexical_decision_task_DD_L5,2021.2.3,Win32,59.77286312,,,,,,,,,,,0.5842,1,,,,,,,,,,,,,,z,1,0.5842,,,,,,,,0.215740757,-0.180555566,0,0,0,,0,149,149,161,1,BLAPS,LB,old,z,./images/BLAPSLB.png,,,,,,,,,,,,,,,,,,,,,,,,,,,,,,,,,,,
,,,,,,,,,,,,,,,,,6063f3e9652d7ffae2782315,23,2022-02-12_17h11.25.910,lexical_decision_task_DD_L5,2021.2.3,Win32,59.77286312,,,,,,,,,,,1.6255,1,,,,,,,,,,,,,,z,1,1.6255,,,,,,,,0.215740757,-0.180555566,0,0,0,,0,150,150,112,1,MYING,HB,old,z,./images/MYINGHB.png,,,,,,,,,,,,,,,,,,,,,,,,,,,,,,,,,,,
,,,,,,,,,,,,,,,,,6063f3e9652d7ffae2782315,23,2022-02-12_17h11.25.910,lexical_decision_task_DD_L5,2021.2.3,Win32,59.77286312,,,,,,,,,,,0.7345,1,,,,,,,,,,,,,,m,1,0.7345,,,,,,,,0.215740757,-0.180555566,0,0,0,,0,151,151,81,1,DRILL,HB,old,m,./images/DRILLHB.png,,,,,,,,,,,,,,,,,,,,,,,,,,,,,,,,,,,
,,,,,,,,,,,,,,,,,6063f3e9652d7ffae2782315,23,2022-02-12_17h11.25.910,lexical_decision_task_DD_L5,2021.2.3,Win32,59.77286312,,,,,,,,,,,0.6886,0,,,,,,,,,,,,,,m,0,0.6886,,,,,,,,0.215740757,-0.180555566,0,0,0,,0,152,152,128,1,GRIFT,LB,old,z,./images/GRIFTLB.png,,,,,,,,,,,,,,,,,,,,,,,,,,,,,,,,,,,
,,,,,,,,,,,,,,,,,6063f3e9652d7ffae2782315,23,2022-02-12_17h11.25.910,lexical_decision_task_DD_L5,2021.2.3,Win32,59.77286312,,,,,,,,,,,0.566,1,,,,,,,,,,,,,,z,1,0.566,,,,,,,,0.215740757,-0.180555566,0,0,0,,0,153,153,164,1,SGREW,LB,old,z,./images/SGREWLB.png,,,,,,,,,,,,,,,,,,,,,,,,,,,,,,,,,,,
,,,,,,,,,,,,,,,,,6063f3e9652d7ffae2782315,23,2022-02-12_17h11.25.910,lexical_decision_task_DD_L5,2021.2.3,Win32,59.77286312,,,,,,,,,,,0.511,1,,,,,,,,,,,,,,m,1,0.511,,,,,,,,0.215740757,-0.180555566,0,0,0,,0,154,154,80,1,PLANET,C,old,m,./images/PLANET.png,,,,,,,,,,,,,,,,,,,,,,,,,,,,,,,,,,,
,,,,,,,,,,,,,,,,,6063f3e9652d7ffae2782315,23,2022-02-12_17h11.25.910,lexical_decision_task_DD_L5,2021.2.3,Win32,59.77286312,,,,,,,,,,,0.7103,1,,,,,,,,,,,,,,m,1,0.7103,,,,,,,,0.215740757,-0.180555566,0,0,0,,0,155,155,58,1,CANOE,LB,old,m,./images/CANOELB.png,,,,,,,,,,,,,,,,,,,,,,,,,,,,,,,,,,,
,,,,,,,,,,,,,,,,,6063f3e9652d7ffae2782315,23,2022-02-12_17h11.25.910,lexical_decision_task_DD_L5,2021.2.3,Win32,59.77286312,,,,,,,,,,,0.6436,1,,,,,,,,,,,,,,z,1,0.6436,,,,,,,,0.215740757,-0.180555566,0,0,0,,0,156,156,134,1,TROSS,LB,old,z,./images/TROSSLB.png,,,,,,,,,,,,,,,,,,,,,,,,,,,,,,,,,,,
,,,,,,,,,,,,,,,,,6063f3e9652d7ffae2782315,23,2022-02-12_17h11.25.910,lexical_decision_task_DD_L5,2021.2.3,Win32,59.77286312,,,,,,,,,,,0.6125,1,,,,,,,,,,,,,,z,1,0.6125,,,,,,,,0.215740757,-0.180555566,0,0,0,,0,157,157,104,1,GITTY,LB,old,z,./images/GITTYLB.png,,,,,,,,,,,,,,,,,,,,,,,,,,,,,,,,,,,
,,,,,,,,,,,,,,,,,6063f3e9652d7ffae2782315,23,2022-02-12_17h11.25.910,lexical_decision_task_DD_L5,2021.2.3,Win32,59.77286312,,,,,,,,,,,0.521,1,,,,,,,,,,,,,,m,1,0.521,,,,,,,,0.215740757,-0.180555566,0,0,0,,0,158,158,23,1,CLOTH,C,old,m,./images/CLOTH.png,,,,,,,,,,,,,,,,,,,,,,,,,,,,,,,,,,,
,,,,,,,,,,,,,,,,,6063f3e9652d7ffae2782315,23,2022-02-12_17h11.25.910,lexical_decision_task_DD_L5,2021.2.3,Win32,59.77286312,,,,,,,,,,,0.7343,1,,,,,,,,,,,,,,z,1,0.7343,,,,,,,,0.215740757,-0.180555566,0,0,0,,0,159,159,125,1,MOOKY,LB,old,z,./images/MOOKYLB.png,,,,,,,,,,,,,,,,,,,,,,,,,,,,,,,,,,,
,,,,,,,,,,,,,,,,,6063f3e9652d7ffae2782315,23,2022-02-12_17h11.25.910,lexical_decision_task_DD_L5,2021.2.3,Win32,59.77286312,,,,,,,,,,,0.8367,1,,,,,,,,,,,,,,m,1,0.8367,,,,,,,,0.215740757,-0.180555566,0,0,0,,0,160,160,25,1,CHALK,LB,old,m,./images/CHALKLB.png,,,,,,,,,,,,,,,,,,,,,,,,,,,,,,,,,,,
,,,,,,,,,,,,,,,,,6063f3e9652d7ffae2782315,23,2022-02-12_17h11.25.910,lexical_decision_task_DD_L5,2021.2.3,Win32,59.77286312,,,,,,,,,,,0.5913,1,,,,,,,,,,,,,,m,1,0.5913,,,,,,,,0.215740757,-0.180555566,0,0,0,,0,161,161,21,1,DANCER,HB,old,m,./images/DANCERHB.png,,,,,,,,,,,,,,,,,,,,,,,,,,,,,,,,,,,
,,,,,,,,,,,,,,,,,6063f3e9652d7ffae2782315,23,2022-02-12_17h11.25.910,lexical_decision_task_DD_L5,2021.2.3,Win32,59.77286312,,,,,,,,,,,0.5768,1,,,,,,,,,,,,,,m,1,0.5768,,,,,,,,0.215740757,-0.180555566,0,0,0,,0,162,162,14,1,FENCE,C,old,m,./images/FENCE.png,,,,,,,,,,,,,,,,,,,,,,,,,,,,,,,,,,,
,,,,,,,,,,,,,,,,,6063f3e9652d7ffae2782315,23,2022-02-12_17h11.25.910,lexical_decision_task_DD_L5,2021.2.3,Win32,59.77286312,,,,,,,,,,,1.0717,1,,,,,,,,,,,,,,z,1,1.0717,,,,,,,,0.215740757,-0.180555566,0,0,0,,0,163,163,100,1,DRIBS,HB,old,z,./images/DRIBSHB.png,,,,,,,,,,,,,,,,,,,,,,,,,,,,,,,,,,,
,,,,,,,,,,,,,,,,,6063f3e9652d7ffae2782315,23,2022-02-12_17h11.25.910,lexical_decision_task_DD_L5,2021.2.3,Win32,59.77286312,,,,,,,,,,,0.5844,1,,,,,,,,,,,,,,m,1,0.5844,,,,,,,,0.215740757,-0.180555566,0,0,0,,0,164,164,82,1,PEBBLE,LB,old,m,./images/PEBBLELB.png,,,,,,,,,,,,,,,,,,,,,,,,,,,,,,,,,,,
,,,,,,,,,,,,,,,,,6063f3e9652d7ffae2782315,23,2022-02-12_17h11.25.910,lexical_decision_task_DD_L5,2021.2.3,Win32,59.77286312,,,,,,,,,,,0.4778,1,,,,,,,,,,,,,,m,1,0.4778,,,,,,,,0.215740757,-0.180555566,0,0,0,,0,165,165,10,1,GARDEN,LB,old,m,./images/GARDENLB.png,,,,,,,,,,,,,,,,,,,,,,,,,,,,,,,,,,,
,,,,,,,,,,,,,,,,,6063f3e9652d7ffae2782315,23,2022-02-12_17h11.25.910,lexical_decision_task_DD_L5,2021.2.3,Win32,59.77286312,,,,,,,,,,,0.8045,1,,,,,,,,,,,,,,m,1,0.8045,,,,,,,,0.215740757,-0.180555566,0,0,0,,0,166,166,37,1,TIGER,LB,old,m,./images/TIGERLB.png,,,,,,,,,,,,,,,,,,,,,,,,,,,,,,,,,,,
,,,,,,,,,,,,,,,,,6063f3e9652d7ffae2782315,23,2022-02-12_17h11.25.910,lexical_decision_task_DD_L5,2021.2.3,Win32,59.77286312,,,,,,,,,,,1.1841,1,,,,,,,,,,,,,,z,1,1.1841,,,,,,,,0.215740757,-0.180555566,0,0,0,,0,167,167,146,1,MOOST,LB,old,z,./images/MOOSTLB.png,,,,,,,,,,,,,,,,,,,,,,,,,,,,,,,,,,,
,,,,,,,,,,,,,,,,,6063f3e9652d7ffae2782315,23,2022-02-12_17h11.25.910,lexical_decision_task_DD_L5,2021.2.3,Win32,59.77286312,,,,,,,,,,,,,,,,,,,,,,,,,,,,,,,,,,,,,,,,,,,,,,,,How likely will it be that you will recognize the words presented clearly on a scale of 0 (not likely) to 100 (most likely)?,,,,,-0.023148135,-0.414814828,1,0,0,jol_adv,6,5.9441,0,0,0,0,1,,,,,,,,,,,,,,,,,,,,,
,,,,,,,,,,,,,,,,,6063f3e9652d7ffae2782315,23,2022-02-12_17h11.25.910,lexical_decision_task_DD_L5,2021.2.3,Win32,59.77286312,,,,,,,,,,,,,,,,,,,,,,,,,,,,,,,,,,,,,,,,,,,,,,,,How likely will it be that you will recognize the words presented very blurred on a scale of 0 (not likely) to 100 (most likely)?,,,,,,,,,,,5,4.4565,0,1,1,2,1,,,,,,,,,,,,,,,,,,,,,
,,,,,,,,,,,,,,,,,6063f3e9652d7ffae2782315,23,2022-02-12_17h11.25.910,lexical_decision_task_DD_L5,2021.2.3,Win32,59.77286312,,,,,,,,,,,,,,,,,,,,,,,,,,,,,,,,,,,,,,,,,,,,,,,,How likely will it be that you will recognize the words presented slighly blurred on a scale of 0 (not likely) to 100 (most likely)?,,,,,,,,,,,6,3.7652,0,2,2,1,1,,,,,,,,,,,,,,,,,,,,,
space,14.1338,0.079629644,-0.276851863,0,0,0,,,,,,1,test,"In the next phase you will be presented with the words from the the first phase. Your job is to decide whether you remember seeing the word or not. If you remember seeing the word press ""old"" or type ""m"". If you do not remember seeing the word press ""new"" or type ""z"". Please press the space bar or click on continue to begin. ",,,6063f3e9652d7ffae2782315,23,2022-02-12_17h11.25.910,lexical_decision_task_DD_L5,2021.2.3,Win32,59.77286312,,,,,,,,,,,,,,,,,,,,,,,,,,,,,,,,,,,,,,,,,,,,,,,,,,,,,,,,,,,,,,,,,,0,0,0,0,1,,,,,,,,,,,,,,,,
space,5.4371,0.079629644,-0.276851863,0,0,0,,,,,,1,test,"In the next phase you will be presented with the words from the the first phase. Your job is to decide whether you remember seeing the word or not. If you remember seeing the word press ""old"" or type ""m"". If you do not remember seeing the word press ""new"" or type ""z"". Please press the space bar or click on continue to begin. ",,,6063f3e9652d7ffae2782315,23,2022-02-12_17h11.25.910,lexical_decision_task_DD_L5,2021.2.3,Win32,59.77286312,,,,,,,,,,,,,,,,,,,,,,,,,,,,,,,,,,,,,,,,,,,,,,,,,,,,,,,,,,,,,,,,,,1,0,1,0,1,,,,,,,,,,,,,,,,
space,0.9223,0.079629644,-0.276851863,0,0,0,,,,,,1,test,"In the next phase you will be presented with the words from the the first phase. Your job is to decide whether you remember seeing the word or not. If you remember seeing the word press ""old"" or type ""m"". If you do not remember seeing the word press ""new"" or type ""z"". Please press the space bar or click on continue to begin. ",,,6063f3e9652d7ffae2782315,23,2022-02-12_17h11.25.910,lexical_decision_task_DD_L5,2021.2.3,Win32,59.77286312,,,,,,,,,,,,,,,,,,,,,,,,,,,,,,,,,,,,,,,,,,,,,,,,,,,,,,,,,,,,,,,,,,2,0,2,0,1,,,,,,,,,,,,,,,,
,,0.042592606,-0.39537044,1,0,0,,,,,,1,test,"In the next phase you will be presented with the words from the the first phase. Your job is to decide whether you remember seeing the word or not. If you remember seeing the word press ""old"" or type ""m"". If you do not remember seeing the word press ""new"" or type ""z"". Please press the space bar or click on continue to begin. ",,,6063f3e9652d7ffae2782315,23,2022-02-12_17h11.25.910,lexical_decision_task_DD_L5,2021.2.3,Win32,59.77286312,,,,,,,,,,,,,,,,,,,,,,,,,,,,,,,,,,,,,,,,,,,,,,,,,,,,,,,,,,,,,,,,,,3,0,3,0,1,instr_done_button,,,,,,,,,,,,,,,
space,1.7176,0.042592606,-0.39537044,0,0,0,,,,,,1,test,"In the next phase you will be presented with the words from the the first phase. Your job is to decide whether you remember seeing the word or not. If you remember seeing the word press ""old"" or type ""m"". If you do not remember seeing the word press ""new"" or type ""z"". Please press the space bar or click on continue to begin. ",,,6063f3e9652d7ffae2782315,23,2022-02-12_17h11.25.910,lexical_decision_task_DD_L5,2021.2.3,Win32,59.77286312,,,,,,,,,,,,,,,,,,,,,,,,,,,,,,,,,,,,,,,,,,,,,,,,,,,,,,,,,,,,,,,,,,4,0,4,0,1,,,,,,,,,,,,,,,,
,,,,,,,,,,,,,,,,,6063f3e9652d7ffae2782315,23,2022-02-12_17h11.25.910,lexical_decision_task_DD_L5,2021.2.3,Win32,59.77286312,,,,,,,,,,,1.914,1,,,,,,,,,,,,,,,,,,,,,,,,0.042592606,-0.39537044,0,0,0,,,,,,,BRUSH,C,m,y,./images/BRUSH.png,,,,,,,,,,,,,,,,,,,,,m,1,1.914,,,,,,,,0,0,0,59,1
,,,,,,,,,,,,,,,,,6063f3e9652d7ffae2782315,23,2022-02-12_17h11.25.910,lexical_decision_task_DD_L5,2021.2.3,Win32,59.77286312,,,,,,,,,,,1.261,1,,,,,,,,,,,,,,,,,,,,,,,,0.042592606,-0.39537044,0,0,0,,,,,,,WALRUS,C,z,y,./images/WALRUS.png,,,,,,,,,,,,,,,,,,,,,z,1,1.261,,,,,,,,0,1,1,107,1
,,,,,,,,,,,,,,,,,6063f3e9652d7ffae2782315,23,2022-02-12_17h11.25.910,lexical_decision_task_DD_L5,2021.2.3,Win32,59.77286312,,,,,,,,,,,0.9571,1,,,,,,,,,,,,,,,,,,,,,,,,0.042592606,-0.39537044,0,0,0,,,,,,,SPORT,HB,z,y,./images/SPORTHB.png,,,,,,,,,,,,,,,,,,,,,z,1,0.9571,,,,,,,,0,2,2,132,1
,,,,,,,,,,,,,,,,,6063f3e9652d7ffae2782315,23,2022-02-12_17h11.25.910,lexical_decision_task_DD_L5,2021.2.3,Win32,59.77286312,,,,,,,,,,,0.9695,1,,,,,,,,,,,,,,,,,,,,,,,,0.042592606,-0.39537044,0,0,0,,,,,,,BLOKE,HB,m,y,./images/BLOKEHB.png,,,,,,,,,,,,,,,,,,,,,m,1,0.9695,,,,,,,,0,3,3,12,1
,,,,,,,,,,,,,,,,,6063f3e9652d7ffae2782315,23,2022-02-12_17h11.25.910,lexical_decision_task_DD_L5,2021.2.3,Win32,59.77286312,,,,,,,,,,,0.9809,1,,,,,,,,,,,,,,,,,,,,,,,,0.042592606,-0.39537044,0,0,0,,,,,,,BABOON,LB,z,y,./images/BABOONLB.png,,,,,,,,,,,,,,,,,,,,,z,1,0.9809,,,,,,,,0,4,4,142,1
,,,,,,,,,,,,,,,,,6063f3e9652d7ffae2782315,23,2022-02-12_17h11.25.910,lexical_decision_task_DD_L5,2021.2.3,Win32,59.77286312,,,,,,,,,,,1.7855,1,,,,,,,,,,,,,,,,,,,,,,,,0.042592606,-0.39537044,0,0,0,,,,,,,LADDER,C,z,y,./images/LADDER.png,,,,,,,,,,,,,,,,,,,,,z,1,1.7855,,,,,,,,0,5,5,122,1
,,,,,,,,,,,,,,,,,6063f3e9652d7ffae2782315,23,2022-02-12_17h11.25.910,lexical_decision_task_DD_L5,2021.2.3,Win32,59.77286312,,,,,,,,,,,0.8861,1,,,,,,,,,,,,,,,,,,,,,,,,0.042592606,-0.39537044,0,0,0,,,,,,,CRUST,LB,z,y,./images/CRUSTLB.png,,,,,,,,,,,,,,,,,,,,,z,1,0.8861,,,,,,,,0,6,6,163,1
,,,,,,,,,,,,,,,,,6063f3e9652d7ffae2782315,23,2022-02-12_17h11.25.910,lexical_decision_task_DD_L5,2021.2.3,Win32,59.77286312,,,,,,,,,,,0.6402,1,,,,,,,,,,,,,,,,,,,,,,,,0.042592606,-0.39537044,0,0,0,,,,,,,FINGER,HB,z,y,./images/FINGERHB.png,,,,,,,,,,,,,,,,,,,,,z,1,0.6402,,,,,,,,0,7,7,87,1
,,,,,,,,,,,,,,,,,6063f3e9652d7ffae2782315,23,2022-02-12_17h11.25.910,lexical_decision_task_DD_L5,2021.2.3,Win32,59.77286312,,,,,,,,,,,0.5658,1,,,,,,,,,,,,,,,,,,,,,,,,0.042592606,-0.39537044,0,0,0,,,,,,,BAKER,HB,m,y,./images/BAKERHB.png,,,,,,,,,,,,,,,,,,,,,m,1,0.5658,,,,,,,,0,8,8,63,1
,,,,,,,,,,,,,,,,,6063f3e9652d7ffae2782315,23,2022-02-12_17h11.25.910,lexical_decision_task_DD_L5,2021.2.3,Win32,59.77286312,,,,,,,,,,,0.9012,1,,,,,,,,,,,,,,,,,,,,,,,,0.042592606,-0.39537044,0,0,0,,,,,,,SAILOR,LB,z,y,./images/SAILORLB.png,,,,,,,,,,,,,,,,,,,,,z,1,0.9012,,,,,,,,0,9,9,151,1
,,,,,,,,,,,,,,,,,6063f3e9652d7ffae2782315,23,2022-02-12_17h11.25.910,lexical_decision_task_DD_L5,2021.2.3,Win32,59.77286312,,,,,,,,,,,0.6245,1,,,,,,,,,,,,,,,,,,,,,,,,0.042592606,-0.39537044,0,0,0,,,,,,,STREAM,C,m,y,./images/STREAM.png,,,,,,,,,,,,,,,,,,,,,m,1,0.6245,,,,,,,,0,10,10,41,1
,,,,,,,,,,,,,,,,,6063f3e9652d7ffae2782315,23,2022-02-12_17h11.25.910,lexical_decision_task_DD_L5,2021.2.3,Win32,59.77286312,,,,,,,,,,,0.7376,1,,,,,,,,,,,,,,,,,,,,,,,,0.042592606,-0.39537044,0,0,0,,,,,,,MIRROR,HB,z,y,./images/MIRRORHB.png,,,,,,,,,,,,,,,,,,,,,z,1,0.7376,,,,,,,,0,11,11,147,1
,,,,,,,,,,,,,,,,,6063f3e9652d7ffae2782315,23,2022-02-12_17h11.25.910,lexical_decision_task_DD_L5,2021.2.3,Win32,59.77286312,,,,,,,,,,,0.612,1,,,,,,,,,,,,,,,,,,,,,,,,0.042592606,-0.39537044,0,0,0,,,,,,,DANCER,HB,m,y,./images/DANCERHB.png,,,,,,,,,,,,,,,,,,,,,m,1,0.612,,,,,,,,0,12,12,21,1
,,,,,,,,,,,,,,,,,6063f3e9652d7ffae2782315,23,2022-02-12_17h11.25.910,lexical_decision_task_DD_L5,2021.2.3,Win32,59.77286312,,,,,,,,,,,1.5641,0,,,,,,,,,,,,,,,,,,,,,,,,0.042592606,-0.39537044,0,0,0,,,,,,,STOVE,C,m,y,./images/STOVE.png,,,,,,,,,,,,,,,,,,,,,z,0,1.5641,,,,,,,,0,13,13,2,1
,,,,,,,,,,,,,,,,,6063f3e9652d7ffae2782315,23,2022-02-12_17h11.25.910,lexical_decision_task_DD_L5,2021.2.3,Win32,59.77286312,,,,,,,,,,,0.6126,1,,,,,,,,,,,,,,,,,,,,,,,,0.042592606,-0.39537044,0,0,0,,,,,,,DOUGH,LB,z,y,./images/DOUGHLB.png,,,,,,,,,,,,,,,,,,,,,z,1,0.6126,,,,,,,,0,14,14,103,1
,,,,,,,,,,,,,,,,,6063f3e9652d7ffae2782315,23,2022-02-12_17h11.25.910,lexical_decision_task_DD_L5,2021.2.3,Win32,59.77286312,,,,,,,,,,,0.6698,1,,,,,,,,,,,,,,,,,,,,,,,,0.042592606,-0.39537044,0,0,0,,,,,,,LAGOON,C,m,y,./images/LAGOON.png,,,,,,,,,,,,,,,,,,,,,m,1,0.6698,,,,,,,,0,15,15,47,1
,,,,,,,,,,,,,,,,,6063f3e9652d7ffae2782315,23,2022-02-12_17h11.25.910,lexical_decision_task_DD_L5,2021.2.3,Win32,59.77286312,,,,,,,,,,,0.561,1,,,,,,,,,,,,,,,,,,,,,,,,0.042592606,-0.39537044,0,0,0,,,,,,,MONKEY,HB,m,y,./images/MONKEYHB.png,,,,,,,,,,,,,,,,,,,,,m,1,0.561,,,,,,,,0,16,16,45,1
,,,,,,,,,,,,,,,,,6063f3e9652d7ffae2782315,23,2022-02-12_17h11.25.910,lexical_decision_task_DD_L5,2021.2.3,Win32,59.77286312,,,,,,,,,,,0.5535,1,,,,,,,,,,,,,,,,,,,,,,,,0.042592606,-0.39537044,0,0,0,,,,,,,FALCON,LB,z,y,./images/FALCONLB.png,,,,,,,,,,,,,,,,,,,,,z,1,0.5535,,,,,,,,0,17,17,112,1
,,,,,,,,,,,,,,,,,6063f3e9652d7ffae2782315,23,2022-02-12_17h11.25.910,lexical_decision_task_DD_L5,2021.2.3,Win32,59.77286312,,,,,,,,,,,0.7038,1,,,,,,,,,,,,,,,,,,,,,,,,0.042592606,-0.39537044,0,0,0,,,,,,,CANYON,LB,z,y,./images/CANYONLB.png,,,,,,,,,,,,,,,,,,,,,z,1,0.7038,,,,,,,,0,18,18,118,1
,,,,,,,,,,,,,,,,,6063f3e9652d7ffae2782315,23,2022-02-12_17h11.25.910,lexical_decision_task_DD_L5,2021.2.3,Win32,59.77286312,,,,,,,,,,,1.1737,1,,,,,,,,,,,,,,,,,,,,,,,,0.042592606,-0.39537044,0,0,0,,,,,,,QUILL,LB,z,y,./images/QUILLLB.png,,,,,,,,,,,,,,,,,,,,,z,1,1.1737,,,,,,,,0,19,19,115,1
,,,,,,,,,,,,,,,,,6063f3e9652d7ffae2782315,23,2022-02-12_17h11.25.910,lexical_decision_task_DD_L5,2021.2.3,Win32,59.77286312,,,,,,,,,,,0.9669,0,,,,,,,,,,,,,,,,,,,,,,,,0.042592606,-0.39537044,0,0,0,,,,,,,SCREW,HB,z,y,./images/SCREWHB.png,,,,,,,,,,,,,,,,,,,,,m,0,0.9669,,,,,,,,0,20,20,108,1
,,,,,,,,,,,,,,,,,6063f3e9652d7ffae2782315,23,2022-02-12_17h11.25.910,lexical_decision_task_DD_L5,2021.2.3,Win32,59.77286312,,,,,,,,,,,1.7255,1,,,,,,,,,,,,,,,,,,,,,,,,0.042592606,-0.39537044,0,0,0,,,,,,,MELON,LB,z,y,./images/MELONLB.png,,,,,,,,,,,,,,,,,,,,,z,1,1.7255,,,,,,,,0,21,21,106,1
,,,,,,,,,,,,,,,,,6063f3e9652d7ffae2782315,23,2022-02-12_17h11.25.910,lexical_decision_task_DD_L5,2021.2.3,Win32,59.77286312,,,,,,,,,,,2.7755,1,,,,,,,,,,,,,,,,,,,,,,,,0.042592606,-0.39537044,0,0,0,,,,,,,CHAIN,HB,m,y,./images/CHAINHB.png,,,,,,,,,,,,,,,,,,,,,m,1,2.7755,,,,,,,,0,22,22,42,1
,,,,,,,,,,,,,,,,,6063f3e9652d7ffae2782315,23,2022-02-12_17h11.25.910,lexical_decision_task_DD_L5,2021.2.3,Win32,59.77286312,,,,,,,,,,,0.5673,1,,,,,,,,,,,,,,,,,,,,,,,,0.042592606,-0.39537044,0,0,0,,,,,,,BUBBLE,C,m,y,./images/BUBBLE.png,,,,,,,,,,,,,,,,,,,,,m,1,0.5673,,,,,,,,0,23,23,71,1
,,,,,,,,,,,,,,,,,6063f3e9652d7ffae2782315,23,2022-02-12_17h11.25.910,lexical_decision_task_DD_L5,2021.2.3,Win32,59.77286312,,,,,,,,,,,0.8989,0,,,,,,,,,,,,,,,,,,,,,,,,0.042592606,-0.39537044,0,0,0,,,,,,,MOTOR,LB,z,y,./images/MOTORLB.png,,,,,,,,,,,,,,,,,,,,,m,0,0.8989,,,,,,,,0,24,24,97,1
,,,,,,,,,,,,,,,,,6063f3e9652d7ffae2782315,23,2022-02-12_17h11.25.910,lexical_decision_task_DD_L5,2021.2.3,Win32,59.77286312,,,,,,,,,,,0.7051,1,,,,,,,,,,,,,,,,,,,,,,,,0.042592606,-0.39537044,0,0,0,,,,,,,BONNET,C,z,y,./images/BONNET.png,,,,,,,,,,,,,,,,,,,,,z,1,0.7051,,,,,,,,0,25,25,95,1
,,,,,,,,,,,,,,,,,6063f3e9652d7ffae2782315,23,2022-02-12_17h11.25.910,lexical_decision_task_DD_L5,2021.2.3,Win32,59.77286312,,,,,,,,,,,0.5828,1,,,,,,,,,,,,,,,,,,,,,,,,0.042592606,-0.39537044,0,0,0,,,,,,,PEBBLE,LB,m,y,./images/PEBBLELB.png,,,,,,,,,,,,,,,,,,,,,m,1,0.5828,,,,,,,,0,26,26,82,1
,,,,,,,,,,,,,,,,,6063f3e9652d7ffae2782315,23,2022-02-12_17h11.25.910,lexical_decision_task_DD_L5,2021.2.3,Win32,59.77286312,,,,,,,,,,,0.6521,1,,,,,,,,,,,,,,,,,,,,,,,,0.042592606,-0.39537044,0,0,0,,,,,,,SKIING,C,z,y,./images/SKIING.png,,,,,,,,,,,,,,,,,,,,,z,1,0.6521,,,,,,,,0,27,27,101,1
,,,,,,,,,,,,,,,,,6063f3e9652d7ffae2782315,23,2022-02-12_17h11.25.910,lexical_decision_task_DD_L5,2021.2.3,Win32,59.77286312,,,,,,,,,,,0.5945,1,,,,,,,,,,,,,,,,,,,,,,,,0.042592606,-0.39537044,0,0,0,,,,,,,TULIP,C,z,y,./images/TULIP.png,,,,,,,,,,,,,,,,,,,,,z,1,0.5945,,,,,,,,0,28,28,92,1
,,,,,,,,,,,,,,,,,6063f3e9652d7ffae2782315,23,2022-02-12_17h11.25.910,lexical_decision_task_DD_L5,2021.2.3,Win32,59.77286312,,,,,,,,,,,0.6919,1,,,,,,,,,,,,,,,,,,,,,,,,0.042592606,-0.39537044,0,0,0,,,,,,,THROAT,HB,z,y,./images/THROATHB.png,,,,,,,,,,,,,,,,,,,,,z,1,0.6919,,,,,,,,0,29,29,120,1
,,,,,,,,,,,,,,,,,6063f3e9652d7ffae2782315,23,2022-02-12_17h11.25.910,lexical_decision_task_DD_L5,2021.2.3,Win32,59.77286312,,,,,,,,,,,0.5184,0,,,,,,,,,,,,,,,,,,,,,,,,0.042592606,-0.39537044,0,0,0,,,,,,,PLANK,LB,z,y,./images/PLANKLB.png,,,,,,,,,,,,,,,,,,,,,m,0,0.5184,,,,,,,,0,30,30,85,1
,,,,,,,,,,,,,,,,,6063f3e9652d7ffae2782315,23,2022-02-12_17h11.25.910,lexical_decision_task_DD_L5,2021.2.3,Win32,59.77286312,,,,,,,,,,,0.991,1,,,,,,,,,,,,,,,,,,,,,,,,0.042592606,-0.39537044,0,0,0,,,,,,,CANDLE,LB,z,y,./images/CANDLELB.png,,,,,,,,,,,,,,,,,,,,,z,1,0.991,,,,,,,,0,31,31,145,1
,,,,,,,,,,,,,,,,,6063f3e9652d7ffae2782315,23,2022-02-12_17h11.25.910,lexical_decision_task_DD_L5,2021.2.3,Win32,59.77286312,,,,,,,,,,,0.6243,1,,,,,,,,,,,,,,,,,,,,,,,,0.042592606,-0.39537044,0,0,0,,,,,,,DIVER,HB,m,y,./images/DIVERHB.png,,,,,,,,,,,,,,,,,,,,,m,1,0.6243,,,,,,,,0,32,32,9,1
,,,,,,,,,,,,,,,,,6063f3e9652d7ffae2782315,23,2022-02-12_17h11.25.910,lexical_decision_task_DD_L5,2021.2.3,Win32,59.77286312,,,,,,,,,,,0.7466,1,,,,,,,,,,,,,,,,,,,,,,,,0.042592606,-0.39537044,0,0,0,,,,,,,POODLE,HB,z,y,./images/POODLEHB.png,,,,,,,,,,,,,,,,,,,,,z,1,0.7466,,,,,,,,0,33,33,165,1
,,,,,,,,,,,,,,,,,6063f3e9652d7ffae2782315,23,2022-02-12_17h11.25.910,lexical_decision_task_DD_L5,2021.2.3,Win32,59.77286312,,,,,,,,,,,0.6082,1,,,,,,,,,,,,,,,,,,,,,,,,0.042592606,-0.39537044,0,0,0,,,,,,,TRIPOD,HB,z,y,./images/TRIPODHB.png,,,,,,,,,,,,,,,,,,,,,z,1,0.6082,,,,,,,,0,34,34,138,1
,,,,,,,,,,,,,,,,,6063f3e9652d7ffae2782315,23,2022-02-12_17h11.25.910,lexical_decision_task_DD_L5,2021.2.3,Win32,59.77286312,,,,,,,,,,,2.2882,0,,,,,,,,,,,,,,,,,,,,,,,,0.042592606,-0.39537044,0,0,0,,,,,,,CRUMB,C,z,y,./images/CRUMB.png,,,,,,,,,,,,,,,,,,,,,m,0,2.2882,,,,,,,,0,35,35,113,1
,,,,,,,,,,,,,,,,,6063f3e9652d7ffae2782315,23,2022-02-12_17h11.25.910,lexical_decision_task_DD_L5,2021.2.3,Win32,59.77286312,,,,,,,,,,,0.7811,1,,,,,,,,,,,,,,,,,,,,,,,,0.042592606,-0.39537044,0,0,0,,,,,,,PLANET,C,m,y,./images/PLANET.png,,,,,,,,,,,,,,,,,,,,,m,1,0.7811,,,,,,,,0,36,36,80,1
,,,,,,,,,,,,,,,,,6063f3e9652d7ffae2782315,23,2022-02-12_17h11.25.910,lexical_decision_task_DD_L5,2021.2.3,Win32,59.77286312,,,,,,,,,,,0.6426,1,,,,,,,,,,,,,,,,,,,,,,,,0.042592606,-0.39537044,0,0,0,,,,,,,DONKEY,LB,m,y,./images/DONKEYLB.png,,,,,,,,,,,,,,,,,,,,,m,1,0.6426,,,,,,,,0,37,37,19,1
,,,,,,,,,,,,,,,,,6063f3e9652d7ffae2782315,23,2022-02-12_17h11.25.910,lexical_decision_task_DD_L5,2021.2.3,Win32,59.77286312,,,,,,,,,,,0.5673,1,,,,,,,,,,,,,,,,,,,,,,,,0.042592606,-0.39537044,0,0,0,,,,,,,TWINS,HB,z,y,./images/TWINSHB.png,,,,,,,,,,,,,,,,,,,,,z,1,0.5673,,,,,,,,0,38,38,144,1
,,,,,,,,,,,,,,,,,6063f3e9652d7ffae2782315,23,2022-02-12_17h11.25.910,lexical_decision_task_DD_L5,2021.2.3,Win32,59.77286312,,,,,,,,,,,1.1164,0,,,,,,,,,,,,,,,,,,,,,,,,0.042592606,-0.39537044,0,0,0,,,,,,,SNAKE,LB,m,y,./images/SNAKELB.png,,,,,,,,,,,,,,,,,,,,,z,0,1.1164,,,,,,,,0,39,39,40,1
,,,,,,,,,,,,,,,,,6063f3e9652d7ffae2782315,23,2022-02-12_17h11.25.910,lexical_decision_task_DD_L5,2021.2.3,Win32,59.77286312,,,,,,,,,,,0.8071,0,,,,,,,,,,,,,,,,,,,,,,,,0.042592606,-0.39537044,0,0,0,,,,,,,FARMER,C,z,y,./images/FARMER.png,,,,,,,,,,,,,,,,,,,,,m,0,0.8071,,,,,,,,0,40,40,149,1
,,,,,,,,,,,,,,,,,6063f3e9652d7ffae2782315,23,2022-02-12_17h11.25.910,lexical_decision_task_DD_L5,2021.2.3,Win32,59.77286312,,,,,,,,,,,0.792,1,,,,,,,,,,,,,,,,,,,,,,,,0.042592606,-0.39537044,0,0,0,space,,,,,,ATTIC,HB,z,y,./images/ATTICHB.png,44.4677,,,,,,,,,,,,,,,,,,,,z,1,0.792,,,,,,,,0,41,41,111,1
,,,,,,,,,,,,,,,,,6063f3e9652d7ffae2782315,23,2022-02-12_17h11.25.910,lexical_decision_task_DD_L5,2021.2.3,Win32,59.77286312,,,,,,,,,,,1.6407,1,,,,,,,,,,,,,,,,,,,,,,,,0.042592606,-0.39537044,0,0,0,,,,,,,GARDEN,LB,m,y,./images/GARDENLB.png,,,,,,,,,,,,,,,,,,,,,m,1,1.6407,,,,,,,,0,42,42,10,1
,,,,,,,,,,,,,,,,,6063f3e9652d7ffae2782315,23,2022-02-12_17h11.25.910,lexical_decision_task_DD_L5,2021.2.3,Win32,59.77286312,,,,,,,,,,,0.7396,1,,,,,,,,,,,,,,,,,,,,,,,,0.042592606,-0.39537044,0,0,0,,,,,,,WRIST,LB,z,y,./images/WRISTLB.png,,,,,,,,,,,,,,,,,,,,,z,1,0.7396,,,,,,,,0,43,43,109,1
,,,,,,,,,,,,,,,,,6063f3e9652d7ffae2782315,23,2022-02-12_17h11.25.910,lexical_decision_task_DD_L5,2021.2.3,Win32,59.77286312,,,,,,,,,,,0.7001,1,,,,,,,,,,,,,,,,,,,,,,,,0.042592606,-0.39537044,0,0,0,,,,,,,KITTEN,HB,z,y,./images/KITTENHB.png,,,,,,,,,,,,,,,,,,,,,z,1,0.7001,,,,,,,,0,44,44,129,1
,,,,,,,,,,,,,,,,,6063f3e9652d7ffae2782315,23,2022-02-12_17h11.25.910,lexical_decision_task_DD_L5,2021.2.3,Win32,59.77286312,,,,,,,,,,,0.5186,1,,,,,,,,,,,,,,,,,,,,,,,,0.042592606,-0.39537044,0,0,0,,,,,,,STOOL,LB,m,y,./images/STOOLLB.png,,,,,,,,,,,,,,,,,,,,,m,1,0.5186,,,,,,,,0,45,45,43,1
,,,,,,,,,,,,,,,,,6063f3e9652d7ffae2782315,23,2022-02-12_17h11.25.910,lexical_decision_task_DD_L5,2021.2.3,Win32,59.77286312,,,,,,,,,,,0.5907,0,,,,,,,,,,,,,,,,,,,,,,,,0.042592606,-0.39537044,0,0,0,,,,,,,SHORE,HB,z,y,./images/SHOREHB.png,,,,,,,,,,,,,,,,,,,,,m,0,0.5907,,,,,,,,0,46,46,96,1
,,,,,,,,,,,,,,,,,6063f3e9652d7ffae2782315,23,2022-02-12_17h11.25.910,lexical_decision_task_DD_L5,2021.2.3,Win32,59.77286312,,,,,,,,,,,0.5456,1,,,,,,,,,,,,,,,,,,,,,,,,0.042592606,-0.39537044,0,0,0,,,,,,,TOMATO,HB,z,y,./images/TOMATOHB.png,,,,,,,,,,,,,,,,,,,,,z,1,0.5456,,,,,,,,0,47,47,84,1
,,,,,,,,,,,,,,,,,6063f3e9652d7ffae2782315,23,2022-02-12_17h11.25.910,lexical_decision_task_DD_L5,2021.2.3,Win32,59.77286312,,,,,,,,,,,0.5731,1,,,,,,,,,,,,,,,,,,,,,,,,0.042592606,-0.39537044,0,0,0,,,,,,,LIZARD,C,z,y,./images/LIZARD.png,,,,,,,,,,,,,,,,,,,,,z,1,0.5731,,,,,,,,0,48,48,128,1
,,,,,,,,,,,,,,,,,6063f3e9652d7ffae2782315,23,2022-02-12_17h11.25.910,lexical_decision_task_DD_L5,2021.2.3,Win32,59.77286312,,,,,,,,,,,0.6632,1,,,,,,,,,,,,,,,,,,,,,,,,0.042592606,-0.39537044,0,0,0,,,,,,,BELLY,LB,z,y,./images/BELLYLB.png,,,,,,,,,,,,,,,,,,,,,z,1,0.6632,,,,,,,,0,49,49,94,1
,,,,,,,,,,,,,,,,,6063f3e9652d7ffae2782315,23,2022-02-12_17h11.25.910,lexical_decision_task_DD_L5,2021.2.3,Win32,59.77286312,,,,,,,,,,,1.0126,1,,,,,,,,,,,,,,,,,,,,,,,,0.042592606,-0.39537044,0,0,0,,,,,,,BURIAL,C,z,y,./images/BURIAL.png,,,,,,,,,,,,,,,,,,,,,z,1,1.0126,,,,,,,,0,50,50,143,1
,,,,,,,,,,,,,,,,,6063f3e9652d7ffae2782315,23,2022-02-12_17h11.25.910,lexical_decision_task_DD_L5,2021.2.3,Win32,59.77286312,,,,,,,,,,,0.5414,1,,,,,,,,,,,,,,,,,,,,,,,,0.042592606,-0.39537044,0,0,0,,,,,,,CHALK,LB,m,y,./images/CHALKLB.png,,,,,,,,,,,,,,,,,,,,,m,1,0.5414,,,,,,,,0,51,51,25,1
,,,,,,,,,,,,,,,,,6063f3e9652d7ffae2782315,23,2022-02-12_17h11.25.910,lexical_decision_task_DD_L5,2021.2.3,Win32,59.77286312,,,,,,,,,,,0.8532,1,,,,,,,,,,,,,,,,,,,,,,,,0.042592606,-0.39537044,0,0,0,,,,,,,CHERRY,HB,m,y,./images/CHERRYHB.png,,,,,,,,,,,,,,,,,,,,,m,1,0.8532,,,,,,,,0,52,52,54,1
,,,,,,,,,,,,,,,,,6063f3e9652d7ffae2782315,23,2022-02-12_17h11.25.910,lexical_decision_task_DD_L5,2021.2.3,Win32,59.77286312,,,,,,,,,,,0.6064,1,,,,,,,,,,,,,,,,,,,,,,,,0.042592606,-0.39537044,0,0,0,,,,,,,JAGUAR,HB,z,y,./images/JAGUARHB.png,,,,,,,,,,,,,,,,,,,,,z,1,0.6064,,,,,,,,0,53,53,102,1
,,,,,,,,,,,,,,,,,6063f3e9652d7ffae2782315,23,2022-02-12_17h11.25.910,lexical_decision_task_DD_L5,2021.2.3,Win32,59.77286312,,,,,,,,,,,0.6684,1,,,,,,,,,,,,,,,,,,,,,,,,0.042592606,-0.39537044,0,0,0,,,,,,,TIGER,LB,m,y,./images/TIGERLB.png,,,,,,,,,,,,,,,,,,,,,m,1,0.6684,,,,,,,,0,54,54,37,1
,,,,,,,,,,,,,,,,,6063f3e9652d7ffae2782315,23,2022-02-12_17h11.25.910,lexical_decision_task_DD_L5,2021.2.3,Win32,59.77286312,,,,,,,,,,,0.9408,0,,,,,,,,,,,,,,,,,,,,,,,,0.042592606,-0.39537044,0,0,0,,,,,,,MALLET,C,z,y,./images/MALLET.png,,,,,,,,,,,,,,,,,,,,,m,0,0.9408,,,,,,,,0,55,55,134,1
,,,,,,,,,,,,,,,,,6063f3e9652d7ffae2782315,23,2022-02-12_17h11.25.910,lexical_decision_task_DD_L5,2021.2.3,Win32,59.77286312,,,,,,,,,,,0.5993,1,,,,,,,,,,,,,,,,,,,,,,,,0.042592606,-0.39537044,0,0,0,,,,,,,RAZOR,LB,m,y,./images/RAZORLB.png,,,,,,,,,,,,,,,,,,,,,m,1,0.5993,,,,,,,,0,56,56,34,1
,,,,,,,,,,,,,,,,,6063f3e9652d7ffae2782315,23,2022-02-12_17h11.25.910,lexical_decision_task_DD_L5,2021.2.3,Win32,59.77286312,,,,,,,,,,,0.8504,1,,,,,,,,,,,,,,,,,,,,,,,,0.042592606,-0.39537044,0,0,0,,,,,,,CLOUD,C,m,y,./images/CLOUD.png,,,,,,,,,,,,,,,,,,,,,m,1,0.8504,,,,,,,,0,57,57,26,1
,,,,,,,,,,,,,,,,,6063f3e9652d7ffae2782315,23,2022-02-12_17h11.25.910,lexical_decision_task_DD_L5,2021.2.3,Win32,59.77286312,,,,,,,,,,,0.6429,1,,,,,,,,,,,,,,,,,,,,,,,,0.042592606,-0.39537044,0,0,0,,,,,,,SUNSET,LB,z,y,./images/SUNSETLB.png,,,,,,,,,,,,,,,,,,,,,z,1,0.6429,,,,,,,,0,58,58,166,1
,,,,,,,,,,,,,,,,,6063f3e9652d7ffae2782315,23,2022-02-12_17h11.25.910,lexical_decision_task_DD_L5,2021.2.3,Win32,59.77286312,,,,,,,,,,,0.7548,0,,,,,,,,,,,,,,,,,,,,,,,,0.042592606,-0.39537044,0,0,0,,,,,,,BASKET,C,m,y,./images/BASKET.png,,,,,,,,,,,,,,,,,,,,,z,0,0.7548,,,,,,,,0,59,59,44,1
,,,,,,,,,,,,,,,,,6063f3e9652d7ffae2782315,23,2022-02-12_17h11.25.910,lexical_decision_task_DD_L5,2021.2.3,Win32,59.77286312,,,,,,,,,,,0.9121,0,,,,,,,,,,,,,,,,,,,,,,,,0.042592606,-0.39537044,0,0,0,,,,,,,GLOVE,LB,m,y,./images/GLOVELB.png,,,,,,,,,,,,,,,,,,,,,z,0,0.9121,,,,,,,,0,60,60,73,1
,,,,,,,,,,,,,,,,,6063f3e9652d7ffae2782315,23,2022-02-12_17h11.25.910,lexical_decision_task_DD_L5,2021.2.3,Win32,59.77286312,,,,,,,,,,,0.5701,1,,,,,,,,,,,,,,,,,,,,,,,,0.042592606,-0.39537044,0,0,0,,,,,,,BOILER,HB,m,y,./images/BOILERHB.png,,,,,,,,,,,,,,,,,,,,,m,1,0.5701,,,,,,,,0,61,61,36,1
,,,,,,,,,,,,,,,,,6063f3e9652d7ffae2782315,23,2022-02-12_17h11.25.910,lexical_decision_task_DD_L5,2021.2.3,Win32,59.77286312,,,,,,,,,,,0.6231,1,,,,,,,,,,,,,,,,,,,,,,,,0.042592606,-0.39537044,0,0,0,,,,,,,BISHOP,LB,m,y,./images/BISHOPLB.png,,,,,,,,,,,,,,,,,,,,,m,1,0.6231,,,,,,,,0,62,62,49,1
,,,,,,,,,,,,,,,,,6063f3e9652d7ffae2782315,23,2022-02-12_17h11.25.910,lexical_decision_task_DD_L5,2021.2.3,Win32,59.77286312,,,,,,,,,,,0.6679,1,,,,,,,,,,,,,,,,,,,,,,,,0.042592606,-0.39537044,0,0,0,,,,,,,PISTOL,C,m,y,./images/PISTOL.png,,,,,,,,,,,,,,,,,,,,,m,1,0.6679,,,,,,,,0,63,63,29,1
,,,,,,,,,,,,,,,,,6063f3e9652d7ffae2782315,23,2022-02-12_17h11.25.910,lexical_decision_task_DD_L5,2021.2.3,Win32,59.77286312,,,,,,,,,,,0.6204,1,,,,,,,,,,,,,,,,,,,,,,,,0.042592606,-0.39537044,0,0,0,,,,,,,WHEEL,C,m,y,./images/WHEEL.png,,,,,,,,,,,,,,,,,,,,,m,1,0.6204,,,,,,,,0,64,64,77,1
,,,,,,,,,,,,,,,,,6063f3e9652d7ffae2782315,23,2022-02-12_17h11.25.910,lexical_decision_task_DD_L5,2021.2.3,Win32,59.77286312,,,,,,,,,,,0.9847,1,,,,,,,,,,,,,,,,,,,,,,,,0.042592606,-0.39537044,0,0,0,,,,,,,BARREL,C,z,y,./images/BARREL.png,,,,,,,,,,,,,,,,,,,,,z,1,0.9847,,,,,,,,0,65,65,116,1
,,,,,,,,,,,,,,,,,6063f3e9652d7ffae2782315,23,2022-02-12_17h11.25.910,lexical_decision_task_DD_L5,2021.2.3,Win32,59.77286312,,,,,,,,,,,0.756,1,,,,,,,,,,,,,,,,,,,,,,,,0.042592606,-0.39537044,0,0,0,,,,,,,WALNUT,HB,m,y,./images/WALNUTHB.png,,,,,,,,,,,,,,,,,,,,,m,1,0.756,,,,,,,,0,66,66,0,1
,,,,,,,,,,,,,,,,,6063f3e9652d7ffae2782315,23,2022-02-12_17h11.25.910,lexical_decision_task_DD_L5,2021.2.3,Win32,59.77286312,,,,,,,,,,,0.5995,1,,,,,,,,,,,,,,,,,,,,,,,,0.042592606,-0.39537044,0,0,0,,,,,,,JUMPER,C,m,y,./images/JUMPER.png,,,,,,,,,,,,,,,,,,,,,m,1,0.5995,,,,,,,,0,67,67,74,1
,,,,,,,,,,,,,,,,,6063f3e9652d7ffae2782315,23,2022-02-12_17h11.25.910,lexical_decision_task_DD_L5,2021.2.3,Win32,59.77286312,,,,,,,,,,,0.6703,1,,,,,,,,,,,,,,,,,,,,,,,,0.042592606,-0.39537044,0,0,0,,,,,,,BEARD,C,z,y,./images/BEARD.png,,,,,,,,,,,,,,,,,,,,,z,1,0.6703,,,,,,,,0,68,68,86,1
,,,,,,,,,,,,,,,,,6063f3e9652d7ffae2782315,23,2022-02-12_17h11.25.910,lexical_decision_task_DD_L5,2021.2.3,Win32,59.77286312,,,,,,,,,,,0.7147,1,,,,,,,,,,,,,,,,,,,,,,,,0.042592606,-0.39537044,0,0,0,,,,,,,SNACK,LB,z,y,./images/SNACKLB.png,,,,,,,,,,,,,,,,,,,,,z,1,0.7147,,,,,,,,0,69,69,157,1
,,,,,,,,,,,,,,,,,6063f3e9652d7ffae2782315,23,2022-02-12_17h11.25.910,lexical_decision_task_DD_L5,2021.2.3,Win32,59.77286312,,,,,,,,,,,0.5358,1,,,,,,,,,,,,,,,,,,,,,,,,0.042592606,-0.39537044,0,0,0,,,,,,,MAGGOT,HB,z,y,./images/MAGGOTHB.png,,,,,,,,,,,,,,,,,,,,,z,1,0.5358,,,,,,,,0,70,70,117,1
,,,,,,,,,,,,,,,,,6063f3e9652d7ffae2782315,23,2022-02-12_17h11.25.910,lexical_decision_task_DD_L5,2021.2.3,Win32,59.77286312,,,,,,,,,,,0.8198,1,,,,,,,,,,,,,,,,,,,,,,,,0.042592606,-0.39537044,0,0,0,,,,,,,STAIN,HB,m,y,./images/STAINHB.png,,,,,,,,,,,,,,,,,,,,,m,1,0.8198,,,,,,,,0,71,71,6,1
,,,,,,,,,,,,,,,,,6063f3e9652d7ffae2782315,23,2022-02-12_17h11.25.910,lexical_decision_task_DD_L5,2021.2.3,Win32,59.77286312,,,,,,,,,,,0.9545,1,,,,,,,,,,,,,,,,,,,,,,,,0.042592606,-0.39537044,0,0,0,,,,,,,FLASK,HB,m,y,./images/FLASKHB.png,,,,,,,,,,,,,,,,,,,,,m,1,0.9545,,,,,,,,0,72,72,72,1
,,,,,,,,,,,,,,,,,6063f3e9652d7ffae2782315,23,2022-02-12_17h11.25.910,lexical_decision_task_DD_L5,2021.2.3,Win32,59.77286312,,,,,,,,,,,0.7378,0,,,,,,,,,,,,,,,,,,,,,,,,0.042592606,-0.39537044,0,0,0,,,,,,,TOWEL,LB,m,y,./images/TOWELLB.png,,,,,,,,,,,,,,,,,,,,,z,0,0.7378,,,,,,,,0,73,73,1,1
,,,,,,,,,,,,,,,,,6063f3e9652d7ffae2782315,23,2022-02-12_17h11.25.910,lexical_decision_task_DD_L5,2021.2.3,Win32,59.77286312,,,,,,,,,,,0.6349,1,,,,,,,,,,,,,,,,,,,,,,,,0.042592606,-0.39537044,0,0,0,,,,,,,MUMMY,LB,m,y,./images/MUMMYLB.png,,,,,,,,,,,,,,,,,,,,,m,1,0.6349,,,,,,,,0,74,74,46,1
,,,,,,,,,,,,,,,,,6063f3e9652d7ffae2782315,23,2022-02-12_17h11.25.910,lexical_decision_task_DD_L5,2021.2.3,Win32,59.77286312,,,,,,,,,,,0.8081,1,,,,,,,,,,,,,,,,,,,,,,,,0.042592606,-0.39537044,0,0,0,,,,,,,CRATER,HB,m,y,./images/CRATERHB.png,,,,,,,,,,,,,,,,,,,,,m,1,0.8081,,,,,,,,0,75,75,3,1
,,,,,,,,,,,,,,,,,6063f3e9652d7ffae2782315,23,2022-02-12_17h11.25.910,lexical_decision_task_DD_L5,2021.2.3,Win32,59.77286312,,,,,,,,,,,0.6681,1,,,,,,,,,,,,,,,,,,,,,,,,0.042592606,-0.39537044,0,0,0,,,,,,,SPINE,C,m,y,./images/SPINE.png,,,,,,,,,,,,,,,,,,,,,m,1,0.6681,,,,,,,,0,76,76,65,1
,,,,,,,,,,,,,,,,,6063f3e9652d7ffae2782315,23,2022-02-12_17h11.25.910,lexical_decision_task_DD_L5,2021.2.3,Win32,59.77286312,,,,,,,,,,,0.9584,0,,,,,,,,,,,,,,,,,,,,,,,,0.042592606,-0.39537044,0,0,0,,,,,,,HEATER,C,m,y,./images/HEATER.png,,,,,,,,,,,,,,,,,,,,,z,0,0.9584,,,,,,,,0,77,77,56,1
,,,,,,,,,,,,,,,,,6063f3e9652d7ffae2782315,23,2022-02-12_17h11.25.910,lexical_decision_task_DD_L5,2021.2.3,Win32,59.77286312,,,,,,,,,,,0.9473,1,,,,,,,,,,,,,,,,,,,,,,,,0.042592606,-0.39537044,0,0,0,,,,,,,TORCH,C,z,y,./images/TORCH.png,,,,,,,,,,,,,,,,,,,,,z,1,0.9473,,,,,,,,0,78,78,152,1
,,,,,,,,,,,,,,,,,6063f3e9652d7ffae2782315,23,2022-02-12_17h11.25.910,lexical_decision_task_DD_L5,2021.2.3,Win32,59.77286312,,,,,,,,,,,0.843,1,,,,,,,,,,,,,,,,,,,,,,,,0.042592606,-0.39537044,0,0,0,,,,,,,GRAIN,HB,z,y,./images/GRAINHB.png,,,,,,,,,,,,,,,,,,,,,z,1,0.843,,,,,,,,0,79,79,159,1
,,,,,,,,,,,,,,,,,6063f3e9652d7ffae2782315,23,2022-02-12_17h11.25.910,lexical_decision_task_DD_L5,2021.2.3,Win32,59.77286312,,,,,,,,,,,0.7493,1,,,,,,,,,,,,,,,,,,,,,,,,0.042592606,-0.39537044,0,0,0,,,,,,,PEARL,LB,z,y,./images/PEARLLB.png,,,,,,,,,,,,,,,,,,,,,z,1,0.7493,,,,,,,,0,80,80,130,1
,,,,,,,,,,,,,,,,,6063f3e9652d7ffae2782315,23,2022-02-12_17h11.25.910,lexical_decision_task_DD_L5,2021.2.3,Win32,59.77286312,,,,,,,,,,,0.716,0,,,,,,,,,,,,,,,,,,,,,,,,0.042592606,-0.39537044,0,0,0,,,,,,,CEMENT,C,z,y,./images/CEMENT.png,,,,,,,,,,,,,,,,,,,,,m,0,0.716,,,,,,,,0,81,81,158,1
,,,,,,,,,,,,,,,,,6063f3e9652d7ffae2782315,23,2022-02-12_17h11.25.910,lexical_decision_task_DD_L5,2021.2.3,Win32,59.77286312,,,,,,,,,,,0.6965,1,,,,,,,,,,,,,,,,,,,,,,,,0.042592606,-0.39537044,0,0,0,,,,,,,STORM,HB,z,y,./images/STORMHB.png,,,,,,,,,,,,,,,,,,,,,z,1,0.6965,,,,,,,,0,82,82,114,1
,,,,,,,,,,,,,,,,,6063f3e9652d7ffae2782315,23,2022-02-12_17h11.25.910,lexical_decision_task_DD_L5,2021.2.3,Win32,59.77286312,,,,,,,,,,,0.6197,1,,,,,,,,,,,,,,,,,,,,,,,,0.042592606,-0.39537044,0,0,0,space,,,,,,ALLEY,LB,m,y,./images/ALLEYLB.png,1.1837,,,,,,,,,,,,,,,,,,,,m,1,0.6197,,,,,,,,0,83,83,55,1
,,,,,,,,,,,,,,,,,6063f3e9652d7ffae2782315,23,2022-02-12_17h11.25.910,lexical_decision_task_DD_L5,2021.2.3,Win32,59.77286312,,,,,,,,,,,0.7694,1,,,,,,,,,,,,,,,,,,,,,,,,0.042592606,-0.39537044,0,0,0,,,,,,,HAMMER,HB,m,y,./images/HAMMERHB.png,,,,,,,,,,,,,,,,,,,,,m,1,0.7694,,,,,,,,0,84,84,75,1
,,,,,,,,,,,,,,,,,6063f3e9652d7ffae2782315,23,2022-02-12_17h11.25.910,lexical_decision_task_DD_L5,2021.2.3,Win32,59.77286312,,,,,,,,,,,0.6928,1,,,,,,,,,,,,,,,,,,,,,,,,0.042592606,-0.39537044,0,0,0,,,,,,,PACKET,C,z,y,./images/PACKET.png,,,,,,,,,,,,,,,,,,,,,z,1,0.6928,,,,,,,,0,85,85,140,1
,,,,,,,,,,,,,,,,,6063f3e9652d7ffae2782315,23,2022-02-12_17h11.25.910,lexical_decision_task_DD_L5,2021.2.3,Win32,59.77286312,,,,,,,,,,,0.7337,1,,,,,,,,,,,,,,,,,,,,,,,,0.042592606,-0.39537044,0,0,0,,,,,,,CARPET,C,z,y,./images/CARPET.png,,,,,,,,,,,,,,,,,,,,,z,1,0.7337,,,,,,,,0,86,86,137,1
,,,,,,,,,,,,,,,,,6063f3e9652d7ffae2782315,23,2022-02-12_17h11.25.910,lexical_decision_task_DD_L5,2021.2.3,Win32,59.77286312,,,,,,,,,,,1.8803,0,,,,,,,,,,,,,,,,,,,,,,,,0.042592606,-0.39537044,0,0,0,,,,,,,BRIDE,LB,m,y,./images/BRIDELB.png,,,,,,,,,,,,,,,,,,,,,z,0,1.8803,,,,,,,,0,87,87,64,1
,,,,,,,,,,,,,,,,,6063f3e9652d7ffae2782315,23,2022-02-12_17h11.25.910,lexical_decision_task_DD_L5,2021.2.3,Win32,59.77286312,,,,,,,,,,,0.6577,1,,,,,,,,,,,,,,,,,,,,,,,,0.042592606,-0.39537044,0,0,0,,,,,,,BANANA,LB,m,y,./images/BANANALB.png,,,,,,,,,,,,,,,,,,,,,m,1,0.6577,,,,,,,,0,88,88,70,1
,,,,,,,,,,,,,,,,,6063f3e9652d7ffae2782315,23,2022-02-12_17h11.25.910,lexical_decision_task_DD_L5,2021.2.3,Win32,59.77286312,,,,,,,,,,,0.6497,1,,,,,,,,,,,,,,,,,,,,,,,,0.042592606,-0.39537044,0,0,0,,,,,,,MOSQUE,LB,z,y,./images/MOSQUELB.png,,,,,,,,,,,,,,,,,,,,,z,1,0.6497,,,,,,,,0,89,89,127,1
,,,,,,,,,,,,,,,,,6063f3e9652d7ffae2782315,23,2022-02-12_17h11.25.910,lexical_decision_task_DD_L5,2021.2.3,Win32,59.77286312,,,,,,,,,,,0.7844,1,,,,,,,,,,,,,,,,,,,,,,,,0.042592606,-0.39537044,0,0,0,,,,,,,FLESH,HB,m,y,./images/FLESHHB.png,,,,,,,,,,,,,,,,,,,,,m,1,0.7844,,,,,,,,0,90,90,24,1
,,,,,,,,,,,,,,,,,6063f3e9652d7ffae2782315,23,2022-02-12_17h11.25.910,lexical_decision_task_DD_L5,2021.2.3,Win32,59.77286312,,,,,,,,,,,0.6204,1,,,,,,,,,,,,,,,,,,,,,,,,0.042592606,-0.39537044,0,0,0,,,,,,,PASTA,C,z,y,./images/PASTA.png,,,,,,,,,,,,,,,,,,,,,z,1,0.6204,,,,,,,,0,91,91,89,1
,,,,,,,,,,,,,,,,,6063f3e9652d7ffae2782315,23,2022-02-12_17h11.25.910,lexical_decision_task_DD_L5,2021.2.3,Win32,59.77286312,,,,,,,,,,,0.8211,0,,,,,,,,,,,,,,,,,,,,,,,,0.042592606,-0.39537044,0,0,0,,,,,,,JUNGLE,C,z,y,./images/JUNGLE.png,,,,,,,,,,,,,,,,,,,,,m,0,0.8211,,,,,,,,0,92,92,167,1
,,,,,,,,,,,,,,,,,6063f3e9652d7ffae2782315,23,2022-02-12_17h11.25.910,lexical_decision_task_DD_L5,2021.2.3,Win32,59.77286312,,,,,,,,,,,0.5322,1,,,,,,,,,,,,,,,,,,,,,,,,0.042592606,-0.39537044,0,0,0,,,,,,,HOCKEY,C,m,y,./images/HOCKEY.png,,,,,,,,,,,,,,,,,,,,,m,1,0.5322,,,,,,,,0,93,93,32,1
,,,,,,,,,,,,,,,,,6063f3e9652d7ffae2782315,23,2022-02-12_17h11.25.910,lexical_decision_task_DD_L5,2021.2.3,Win32,59.77286312,,,,,,,,,,,0.5495,1,,,,,,,,,,,,,,,,,,,,,,,,0.042592606,-0.39537044,0,0,0,,,,,,,CURRY,HB,m,y,./images/CURRYHB.png,,,,,,,,,,,,,,,,,,,,,m,1,0.5495,,,,,,,,0,94,94,60,1
,,,,,,,,,,,,,,,,,6063f3e9652d7ffae2782315,23,2022-02-12_17h11.25.910,lexical_decision_task_DD_L5,2021.2.3,Win32,59.77286312,,,,,,,,,,,0.5751,1,,,,,,,,,,,,,,,,,,,,,,,,0.042592606,-0.39537044,0,0,0,,,,,,,INFANT,LB,z,y,./images/INFANTLB.png,,,,,,,,,,,,,,,,,,,,,z,1,0.5751,,,,,,,,0,95,95,160,1
,,,,,,,,,,,,,,,,,6063f3e9652d7ffae2782315,23,2022-02-12_17h11.25.910,lexical_decision_task_DD_L5,2021.2.3,Win32,59.77286312,,,,,,,,,,,0.5751,1,,,,,,,,,,,,,,,,,,,,,,,,0.042592606,-0.39537044,0,0,0,,,,,,,MIDGET,LB,m,y,./images/MIDGETLB.png,,,,,,,,,,,,,,,,,,,,,m,1,0.5751,,,,,,,,0,96,96,76,1
,,,,,,,,,,,,,,,,,6063f3e9652d7ffae2782315,23,2022-02-12_17h11.25.910,lexical_decision_task_DD_L5,2021.2.3,Win32,59.77286312,,,,,,,,,,,0.6078,1,,,,,,,,,,,,,,,,,,,,,,,,0.042592606,-0.39537044,0,0,0,,,,,,,BIRTH,LB,z,y,./images/BIRTHLB.png,,,,,,,,,,,,,,,,,,,,,z,1,0.6078,,,,,,,,0,97,97,121,1
,,,,,,,,,,,,,,,,,6063f3e9652d7ffae2782315,23,2022-02-12_17h11.25.910,lexical_decision_task_DD_L5,2021.2.3,Win32,59.77286312,,,,,,,,,,,0.8178,1,,,,,,,,,,,,,,,,,,,,,,,,0.042592606,-0.39537044,0,0,0,,,,,,,MOOSE,HB,z,y,./images/MOOSEHB.png,,,,,,,,,,,,,,,,,,,,,z,1,0.8178,,,,,,,,0,98,98,141,1
,,,,,,,,,,,,,,,,,6063f3e9652d7ffae2782315,23,2022-02-12_17h11.25.910,lexical_decision_task_DD_L5,2021.2.3,Win32,59.77286312,,,,,,,,,,,0.9026,0,,,,,,,,,,,,,,,,,,,,,,,,0.042592606,-0.39537044,0,0,0,,,,,,,GRAPE,LB,m,y,./images/GRAPELB.png,,,,,,,,,,,,,,,,,,,,,z,0,0.9026,,,,,,,,0,99,99,16,1
,,,,,,,,,,,,,,,,,6063f3e9652d7ffae2782315,23,2022-02-12_17h11.25.910,lexical_decision_task_DD_L5,2021.2.3,Win32,59.77286312,,,,,,,,,,,0.5029,1,,,,,,,,,,,,,,,,,,,,,,,,0.042592606,-0.39537044,0,0,0,,,,,,,POKER,LB,m,y,./images/POKERLB.png,,,,,,,,,,,,,,,,,,,,,m,1,0.5029,,,,,,,,0,100,100,67,1
,,,,,,,,,,,,,,,,,6063f3e9652d7ffae2782315,23,2022-02-12_17h11.25.910,lexical_decision_task_DD_L5,2021.2.3,Win32,59.77286312,,,,,,,,,,,0.7078,1,,,,,,,,,,,,,,,,,,,,,,,,0.042592606,-0.39537044,0,0,0,,,,,,,STEAK,LB,m,y,./images/STEAKLB.png,,,,,,,,,,,,,,,,,,,,,m,1,0.7078,,,,,,,,0,101,101,31,1
,,,,,,,,,,,,,,,,,6063f3e9652d7ffae2782315,23,2022-02-12_17h11.25.910,lexical_decision_task_DD_L5,2021.2.3,Win32,59.77286312,,,,,,,,,,,0.6397,1,,,,,,,,,,,,,,,,,,,,,,,,0.042592606,-0.39537044,0,0,0,,,,,,,SHELF,HB,z,y,./images/SHELFHB.png,,,,,,,,,,,,,,,,,,,,,z,1,0.6397,,,,,,,,0,102,102,123,1
,,,,,,,,,,,,,,,,,6063f3e9652d7ffae2782315,23,2022-02-12_17h11.25.910,lexical_decision_task_DD_L5,2021.2.3,Win32,59.77286312,,,,,,,,,,,0.5825,1,,,,,,,,,,,,,,,,,,,,,,,,0.042592606,-0.39537044,0,0,0,,,,,,,URINE,LB,z,y,./images/URINELB.png,,,,,,,,,,,,,,,,,,,,,z,1,0.5825,,,,,,,,0,103,103,154,1
,,,,,,,,,,,,,,,,,6063f3e9652d7ffae2782315,23,2022-02-12_17h11.25.910,lexical_decision_task_DD_L5,2021.2.3,Win32,59.77286312,,,,,,,,,,,0.612,1,,,,,,,,,,,,,,,,,,,,,,,,0.042592606,-0.39537044,0,0,0,,,,,,,LLAMA,C,m,y,./images/LLAMA.png,,,,,,,,,,,,,,,,,,,,,m,1,0.612,,,,,,,,0,104,104,35,1
,,,,,,,,,,,,,,,,,6063f3e9652d7ffae2782315,23,2022-02-12_17h11.25.910,lexical_decision_task_DD_L5,2021.2.3,Win32,59.77286312,,,,,,,,,,,0.6548,1,,,,,,,,,,,,,,,,,,,,,,,,0.042592606,-0.39537044,0,0,0,,,,,,,MUSCLE,LB,z,y,./images/MUSCLELB.png,,,,,,,,,,,,,,,,,,,,,z,1,0.6548,,,,,,,,0,105,105,88,1
,,,,,,,,,,,,,,,,,6063f3e9652d7ffae2782315,23,2022-02-12_17h11.25.910,lexical_decision_task_DD_L5,2021.2.3,Win32,59.77286312,,,,,,,,,,,0.6489,1,,,,,,,,,,,,,,,,,,,,,,,,0.042592606,-0.39537044,0,0,0,,,,,,,SWEAT,HB,z,y,./images/SWEATHB.png,,,,,,,,,,,,,,,,,,,,,z,1,0.6489,,,,,,,,0,106,106,150,1
,,,,,,,,,,,,,,,,,6063f3e9652d7ffae2782315,23,2022-02-12_17h11.25.910,lexical_decision_task_DD_L5,2021.2.3,Win32,59.77286312,,,,,,,,,,,0.8668,1,,,,,,,,,,,,,,,,,,,,,,,,0.042592606,-0.39537044,0,0,0,,,,,,,JELLY,LB,z,y,./images/JELLYLB.png,,,,,,,,,,,,,,,,,,,,,z,1,0.8668,,,,,,,,0,107,107,148,1
,,,,,,,,,,,,,,,,,6063f3e9652d7ffae2782315,23,2022-02-12_17h11.25.910,lexical_decision_task_DD_L5,2021.2.3,Win32,59.77286312,,,,,,,,,,,0.913,0,,,,,,,,,,,,,,,,,,,,,,,,0.042592606,-0.39537044,0,0,0,,,,,,,CASINO,LB,m,y,./images/CASINOLB.png,,,,,,,,,,,,,,,,,,,,,z,0,0.913,,,,,,,,0,108,108,28,1
,,,,,,,,,,,,,,,,,6063f3e9652d7ffae2782315,23,2022-02-12_17h11.25.910,lexical_decision_task_DD_L5,2021.2.3,Win32,59.77286312,,,,,,,,,,,0.8908,0,,,,,,,,,,,,,,,,,,,,,,,,0.042592606,-0.39537044,0,0,0,,,,,,,SHIELD,HB,m,y,./images/SHIELDHB.png,,,,,,,,,,,,,,,,,,,,,z,0,0.8908,,,,,,,,0,109,109,48,1
,,,,,,,,,,,,,,,,,6063f3e9652d7ffae2782315,23,2022-02-12_17h11.25.910,lexical_decision_task_DD_L5,2021.2.3,Win32,59.77286312,,,,,,,,,,,0.5708,1,,,,,,,,,,,,,,,,,,,,,,,,0.042592606,-0.39537044,0,0,0,,,,,,,BROOM,HB,m,y,./images/BROOMHB.png,,,,,,,,,,,,,,,,,,,,,m,1,0.5708,,,,,,,,0,110,110,78,1
,,,,,,,,,,,,,,,,,6063f3e9652d7ffae2782315,23,2022-02-12_17h11.25.910,lexical_decision_task_DD_L5,2021.2.3,Win32,59.77286312,,,,,,,,,,,0.5996,1,,,,,,,,,,,,,,,,,,,,,,,,0.042592606,-0.39537044,0,0,0,,,,,,,MEDAL,C,m,y,./images/MEDAL.png,,,,,,,,,,,,,,,,,,,,,m,1,0.5996,,,,,,,,0,111,111,11,1
,,,,,,,,,,,,,,,,,6063f3e9652d7ffae2782315,23,2022-02-12_17h11.25.910,lexical_decision_task_DD_L5,2021.2.3,Win32,59.77286312,,,,,,,,,,,0.5668,1,,,,,,,,,,,,,,,,,,,,,,,,0.042592606,-0.39537044,0,0,0,,,,,,,SQUARE,HB,z,y,./images/SQUAREHB.png,,,,,,,,,,,,,,,,,,,,,z,1,0.5668,,,,,,,,0,112,112,90,1
,,,,,,,,,,,,,,,,,6063f3e9652d7ffae2782315,23,2022-02-12_17h11.25.910,lexical_decision_task_DD_L5,2021.2.3,Win32,59.77286312,,,,,,,,,,,0.6727,0,,,,,,,,,,,,,,,,,,,,,,,,0.042592606,-0.39537044,0,0,0,,,,,,,DRILL,HB,m,y,./images/DRILLHB.png,,,,,,,,,,,,,,,,,,,,,z,0,0.6727,,,,,,,,0,113,113,81,1
,,,,,,,,,,,,,,,,,6063f3e9652d7ffae2782315,23,2022-02-12_17h11.25.910,lexical_decision_task_DD_L5,2021.2.3,Win32,59.77286312,,,,,,,,,,,0.9018,0,,,,,,,,,,,,,,,,,,,,,,,,0.042592606,-0.39537044,0,0,0,,,,,,,GRANNY,C,m,y,./images/GRANNY.png,,,,,,,,,,,,,,,,,,,,,z,0,0.9018,,,,,,,,0,114,114,20,1
,,,,,,,,,,,,,,,,,6063f3e9652d7ffae2782315,23,2022-02-12_17h11.25.910,lexical_decision_task_DD_L5,2021.2.3,Win32,59.77286312,,,,,,,,,,,0.7004,1,,,,,,,,,,,,,,,,,,,,,,,,0.042592606,-0.39537044,0,0,0,,,,,,,PURSE,C,z,y,./images/PURSE.png,,,,,,,,,,,,,,,,,,,,,z,1,0.7004,,,,,,,,0,115,115,146,1
,,,,,,,,,,,,,,,,,6063f3e9652d7ffae2782315,23,2022-02-12_17h11.25.910,lexical_decision_task_DD_L5,2021.2.3,Win32,59.77286312,,,,,,,,,,,0.9322,0,,,,,,,,,,,,,,,,,,,,,,,,0.042592606,-0.39537044,0,0,0,,,,,,,SAUCE,HB,m,y,./images/SAUCEHB.png,,,,,,,,,,,,,,,,,,,,,z,0,0.9322,,,,,,,,0,116,116,51,1
,,,,,,,,,,,,,,,,,6063f3e9652d7ffae2782315,23,2022-02-12_17h11.25.910,lexical_decision_task_DD_L5,2021.2.3,Win32,59.77286312,,,,,,,,,,,0.9585,0,,,,,,,,,,,,,,,,,,,,,,,,0.042592606,-0.39537044,0,0,0,,,,,,,BERRY,C,z,y,./images/BERRY.png,,,,,,,,,,,,,,,,,,,,,m,0,0.9585,,,,,,,,0,117,117,131,1
,,,,,,,,,,,,,,,,,6063f3e9652d7ffae2782315,23,2022-02-12_17h11.25.910,lexical_decision_task_DD_L5,2021.2.3,Win32,59.77286312,,,,,,,,,,,1.0533,0,,,,,,,,,,,,,,,,,,,,,,,,0.042592606,-0.39537044,0,0,0,,,,,,,CLIFF,C,m,y,./images/CLIFF.png,,,,,,,,,,,,,,,,,,,,,z,0,1.0533,,,,,,,,0,118,118,8,1
,,,,,,,,,,,,,,,,,6063f3e9652d7ffae2782315,23,2022-02-12_17h11.25.910,lexical_decision_task_DD_L5,2021.2.3,Win32,59.77286312,,,,,,,,,,,0.6493,1,,,,,,,,,,,,,,,,,,,,,,,,0.042592606,-0.39537044,0,0,0,,,,,,,CANOE,LB,m,y,./images/CANOELB.png,,,,,,,,,,,,,,,,,,,,,m,1,0.6493,,,,,,,,0,119,119,58,1
,,,,,,,,,,,,,,,,,6063f3e9652d7ffae2782315,23,2022-02-12_17h11.25.910,lexical_decision_task_DD_L5,2021.2.3,Win32,59.77286312,,,,,,,,,,,0.7403,0,,,,,,,,,,,,,,,,,,,,,,,,0.042592606,-0.39537044,0,0,0,,,,,,,CANDY,HB,m,y,./images/CANDYHB.png,,,,,,,,,,,,,,,,,,,,,z,0,0.7403,,,,,,,,0,120,120,39,1
,,,,,,,,,,,,,,,,,6063f3e9652d7ffae2782315,23,2022-02-12_17h11.25.910,lexical_decision_task_DD_L5,2021.2.3,Win32,59.77286312,,,,,,,,,,,0.691,1,,,,,,,,,,,,,,,,,,,,,,,,0.042592606,-0.39537044,0,0,0,,,,,,,ARTIST,LB,m,y,./images/ARTISTLB.png,,,,,,,,,,,,,,,,,,,,,m,1,0.691,,,,,,,,0,121,121,61,1
,,,,,,,,,,,,,,,,,6063f3e9652d7ffae2782315,23,2022-02-12_17h11.25.910,lexical_decision_task_DD_L5,2021.2.3,Win32,59.77286312,,,,,,,,,,,0.673,1,,,,,,,,,,,,,,,,,,,,,,,,0.042592606,-0.39537044,0,0,0,,,,,,,BUNNY,LB,m,y,./images/BUNNYLB.png,,,,,,,,,,,,,,,,,,,,,m,1,0.673,,,,,,,,0,122,122,13,1
,,,,,,,,,,,,,,,,,6063f3e9652d7ffae2782315,23,2022-02-12_17h11.25.910,lexical_decision_task_DD_L5,2021.2.3,Win32,59.77286312,,,,,,,,,,,0.6165,1,,,,,,,,,,,,,,,,,,,,,,,,0.042592606,-0.39537044,0,0,0,,,,,,,MAMMAL,C,m,y,./images/MAMMAL.png,,,,,,,,,,,,,,,,,,,,,m,1,0.6165,,,,,,,,0,123,123,62,1
,,,,,,,,,,,,,,,,,6063f3e9652d7ffae2782315,23,2022-02-12_17h11.25.910,lexical_decision_task_DD_L5,2021.2.3,Win32,59.77286312,,,,,,,,,,,0.9682,1,,,,,,,,,,,,,,,,,,,,,,,,0.042592606,-0.39537044,0,0,0,,,,,,,LITTER,HB,z,y,./images/LITTERHB.png,,,,,,,,,,,,,,,,,,,,,z,1,0.9682,,,,,,,,0,124,124,162,1
,,,,,,,,,,,,,,,,,6063f3e9652d7ffae2782315,23,2022-02-12_17h11.25.910,lexical_decision_task_DD_L5,2021.2.3,Win32,59.77286312,,,,,,,,,,,0.9492,1,,,,,,,,,,,,,,,,,,,,,,,,0.042592606,-0.39537044,0,0,0,space,,,,,,STRING,C,z,y,./images/STRING.png,0.8884,,,,,,,,,,,,,,,,,,,,z,1,0.9492,,,,,,,,0,125,125,125,1
,,,,,,,,,,,,,,,,,6063f3e9652d7ffae2782315,23,2022-02-12_17h11.25.910,lexical_decision_task_DD_L5,2021.2.3,Win32,59.77286312,,,,,,,,,,,0.6956,1,,,,,,,,,,,,,,,,,,,,,,,,0.042592606,-0.39537044,0,0,0,,,,,,,PIMPLE,C,z,y,./images/PIMPLE.png,,,,,,,,,,,,,,,,,,,,,z,1,0.6956,,,,,,,,0,126,126,155,1
,,,,,,,,,,,,,,,,,6063f3e9652d7ffae2782315,23,2022-02-12_17h11.25.910,lexical_decision_task_DD_L5,2021.2.3,Win32,59.77286312,,,,,,,,,,,0.6175,1,,,,,,,,,,,,,,,,,,,,,,,,0.042592606,-0.39537044,0,0,0,,,,,,,MUFFIN,LB,z,y,./images/MUFFINLB.png,,,,,,,,,,,,,,,,,,,,,z,1,0.6175,,,,,,,,0,127,127,139,1
,,,,,,,,,,,,,,,,,6063f3e9652d7ffae2782315,23,2022-02-12_17h11.25.910,lexical_decision_task_DD_L5,2021.2.3,Win32,59.77286312,,,,,,,,,,,0.7007,1,,,,,,,,,,,,,,,,,,,,,,,,0.042592606,-0.39537044,0,0,0,,,,,,,NOOSE,HB,z,y,./images/NOOSEHB.png,,,,,,,,,,,,,,,,,,,,,z,1,0.7007,,,,,,,,0,128,128,156,1
,,,,,,,,,,,,,,,,,6063f3e9652d7ffae2782315,23,2022-02-12_17h11.25.910,lexical_decision_task_DD_L5,2021.2.3,Win32,59.77286312,,,,,,,,,,,0.6091,1,,,,,,,,,,,,,,,,,,,,,,,,0.042592606,-0.39537044,0,0,0,,,,,,,BAMBOO,C,m,y,./images/BAMBOO.png,,,,,,,,,,,,,,,,,,,,,m,1,0.6091,,,,,,,,0,129,129,5,1
,,,,,,,,,,,,,,,,,6063f3e9652d7ffae2782315,23,2022-02-12_17h11.25.910,lexical_decision_task_DD_L5,2021.2.3,Win32,59.77286312,,,,,,,,,,,0.9024,0,,,,,,,,,,,,,,,,,,,,,,,,0.042592606,-0.39537044,0,0,0,,,,,,,ARROW,HB,m,y,./images/ARROWHB.png,,,,,,,,,,,,,,,,,,,,,z,0,0.9024,,,,,,,,0,130,130,69,1
,,,,,,,,,,,,,,,,,6063f3e9652d7ffae2782315,23,2022-02-12_17h11.25.910,lexical_decision_task_DD_L5,2021.2.3,Win32,59.77286312,,,,,,,,,,,1.0621,0,,,,,,,,,,,,,,,,,,,,,,,,0.042592606,-0.39537044,0,0,0,,,,,,,WAGON,LB,m,y,./images/WAGONLB.png,,,,,,,,,,,,,,,,,,,,,z,0,1.0621,,,,,,,,0,131,131,7,1
