key_resp.keys,instr_done_touch.x,instr_done_touch.y,instr_done_touch.leftButton,instr_done_touch.midButton,instr_done_touch.rightButton,instr_done_touch.clicked_name,instruction_pages.thisRepN,instruction_pages.thisTrialN,instruction_pages.thisN,instruction_pages.thisIndex,instruction_pages.ran,pageN,phase,instruct_text,has_image,instruct_image,participant,age,date,expName,psychopyVersion,OS,frameRate,key_resp.rt,response.keys,response.corr,response.rt,touch_resp.x,touch_resp.y,touch_resp.leftButton,touch_resp.midButton,touch_resp.rightButton,touch_resp.time,touch_resp.clicked_name,rt,corr,practrials.thisRepN,practrials.thisTrialN,practrials.thisN,practrials.thisIndex,practrials.ran,TrialID,Target,corrAns,end_of_practice_trials_pages.thisRepN,end_of_practice_trials_pages.thisTrialN,end_of_practice_trials_pages.thisN,end_of_practice_trials_pages.thisIndex,end_of_practice_trials_pages.ran,key_resp_2.keys,key_resp_2.corr,key_resp_2.rt,targ_click.x,targ_click.y,targ_click.leftButton,targ_click.midButton,targ_click.rightButton,targ_click.time,targ_click.clicked_name,break_done_touch.x,break_done_touch.y,break_done_touch.leftButton,break_done_touch.midButton,break_done_touch.rightButton,break_done_keyboard.keys,maintrials.thisRepN,maintrials.thisTrialN,maintrials.thisN,maintrials.thisIndex,maintrials.ran,string,blur,study,lex,stim_path,break_done_keyboard.rt,mouse_2.x,mouse_2.y,mouse_2.leftButton,mouse_2.midButton,mouse_2.rightButton,mouse_2.clicked_name,slider.response,slider.rt,trials.thisRepN,trials.thisTrialN,trials.thisN,trials.thisIndex,trials.ran,test_instructions.thisRepN,test_instructions.thisTrialN,test_instructions.thisN,test_instructions.thisIndex,test_instructions.ran,key_resp_3.keys,key_resp_3.corr,key_resp_3.rt,test_click.x,test_click.y,test_click.leftButton,test_click.midButton,test_click.rightButton,test_click.time,test_click.clicked_name,test_phase.thisRepN,test_phase.thisTrialN,test_phase.thisN,test_phase.thisIndex,test_phase.ran
,0.037500014,-0.41666668,1,0,0,instr_done_button,0,0,0,0,1,1,instructions,"INSTRUCTIONS
At the start of each trial, look at the plus sign  (+) in the center of the screen.  This tells you that a trial is about to begin and where to look. Second, the plus sign will disappear and a string of letters will appear. Your task is to determine if the string of letters is a word or not. If the item is a word press the M key (on keyboard)  or touch the word button (phone/tablet).  If the item is not a word,  press the  Z key (on keyboard)  or touch the nonword button (on phone/tablet). 
Press the space bar or touch  continue.",0,,60660870280f2b522cc3214b,22,2022-02-12_12h41.26.359,lexical_decision_task_DD_L5,2021.2.3,Win32,59.79430758,,,,,,,,,,,,,,,,,,,,,,,,,,,,,,,,,,,,,,,,,,,,,,,,,,,,,,,,,,,,,,,,,,,,,,,,,,,,,,,,,,,,,,
,0.036574144,-0.418981495,1,0,0,instr_done_button,0,1,1,1,1,2,instructions,"If your device has a keyboard, press the 'Z' key for nonwords and the 'M' key for words.





Press the space bar or touch the button below to continue.",0,keyboard-example.gif,60660870280f2b522cc3214b,22,2022-02-12_12h41.26.359,lexical_decision_task_DD_L5,2021.2.3,Win32,59.79430758,,,,,,,,,,,,,,,,,,,,,,,,,,,,,,,,,,,,,,,,,,,,,,,,,,,,,,,,,,,,,,,,,,,,,,,,,,,,,,,,,,,,,,
space,0.460185205,-0.239814826,0,0,0,,0,2,2,2,1,3,instructions,"If you are using a touchscreen only device, use the buttons on the screen. Do not use the mouse.





Press the space bar or touch the button below to continue.",0,touchscreen-example.gif,60660870280f2b522cc3214b,22,2022-02-12_12h41.26.359,lexical_decision_task_DD_L5,2021.2.3,Win32,59.79430758,1.8984,,,,,,,,,,,,,,,,,,,,,,,,,,,,,,,,,,,,,,,,,,,,,,,,,,,,,,,,,,,,,,,,,,,,,,,,,,,,,,,,,,,,,
space,0.460185205,-0.239814826,0,0,0,,0,3,3,3,1,4,instructions,"It is very important that you respond as quickly and accurately as possible, as each letter string will only be on the screen for two seconds. If you do not respond within this time, the message 'Too slow!' will be displayed and the experiment will progress to the next letter string. The first 20 trials will be practice trials and you will receive feedback on your answers. 

Press the space bar or touch the button below to start the practice trials.",0,,60660870280f2b522cc3214b,22,2022-02-12_12h41.26.359,lexical_decision_task_DD_L5,2021.2.3,Win32,59.79430758,11.7408,,,,,,,,,,,,,,,,,,,,,,,,,,,,,,,,,,,,,,,,,,,,,,,,,,,,,,,,,,,,,,,,,,,,,,,,,,,,,,,,,,,,,
,,,,,,,,,,,,,,,,,60660870280f2b522cc3214b,22,2022-02-12_12h41.26.359,lexical_decision_task_DD_L5,2021.2.3,Win32,59.79430758,,m,1,0.6496,,,,,,,,0.6496,1,0,0,0,1,1,1001,ADJUST,m,,,,,,,,,,,,,,,,,,,,,,,,,,,,,,,,,,,,,,,,,,,,,,,,,,,,,,,,,,,,,,,,,
,,,,,,,,,,,,,,,,,60660870280f2b522cc3214b,22,2022-02-12_12h41.26.359,lexical_decision_task_DD_L5,2021.2.3,Win32,59.79430758,,m,1,0.6596,,,,,,,,0.6596,1,0,1,1,0,1,1001,UTOPIA,m,,,,,,,,,,,,,,,,,,,,,,,,,,,,,,,,,,,,,,,,,,,,,,,,,,,,,,,,,,,,,,,,,
,,,,,,,,,,,,,,,,,60660870280f2b522cc3214b,22,2022-02-12_12h41.26.359,lexical_decision_task_DD_L5,2021.2.3,Win32,59.79430758,,z,1,1.0031,,,,,,,,1.0031,1,0,2,2,12,1,1001,SPRINY,z,,,,,,,,,,,,,,,,,,,,,,,,,,,,,,,,,,,,,,,,,,,,,,,,,,,,,,,,,,,,,,,,,
,,,,,,,,,,,,,,,,,60660870280f2b522cc3214b,22,2022-02-12_12h41.26.359,lexical_decision_task_DD_L5,2021.2.3,Win32,59.79430758,,z,1,0.7282,,,,,,,,0.7282,1,0,3,3,15,1,1001,WHAISE,z,,,,,,,,,,,,,,,,,,,,,,,,,,,,,,,,,,,,,,,,,,,,,,,,,,,,,,,,,,,,,,,,,
,,,,,,,,,,,,,,,,,60660870280f2b522cc3214b,22,2022-02-12_12h41.26.359,lexical_decision_task_DD_L5,2021.2.3,Win32,59.79430758,,m,1,0.5131,,,,,,,,0.5131,1,0,4,4,2,1,1001,ALMOND,m,,,,,,,,,,,,,,,,,,,,,,,,,,,,,,,,,,,,,,,,,,,,,,,,,,,,,,,,,,,,,,,,,
,,,,,,,,,,,,,,,,,60660870280f2b522cc3214b,22,2022-02-12_12h41.26.359,lexical_decision_task_DD_L5,2021.2.3,Win32,59.79430758,,z,1,0.7515,,,,,,,,0.7515,1,0,5,5,13,1,1001,ROUPET,z,,,,,,,,,,,,,,,,,,,,,,,,,,,,,,,,,,,,,,,,,,,,,,,,,,,,,,,,,,,,,,,,,
,,,,,,,,,,,,,,,,,60660870280f2b522cc3214b,22,2022-02-12_12h41.26.359,lexical_decision_task_DD_L5,2021.2.3,Win32,59.79430758,,z,1,0.8545,,,,,,,,0.8545,1,0,6,6,9,1,1001,FARINY,z,,,,,,,,,,,,,,,,,,,,,,,,,,,,,,,,,,,,,,,,,,,,,,,,,,,,,,,,,,,,,,,,,
,,,,,,,,,,,,,,,,,60660870280f2b522cc3214b,22,2022-02-12_12h41.26.359,lexical_decision_task_DD_L5,2021.2.3,Win32,59.79430758,,m,0,0.6979,,,,,,,,0.6979,0,0,7,7,10,1,1001,INLADE,z,,,,,,,,,,,,,,,,,,,,,,,,,,,,,,,,,,,,,,,,,,,,,,,,,,,,,,,,,,,,,,,,,
,,,,,,,,,,,,,,,,,60660870280f2b522cc3214b,22,2022-02-12_12h41.26.359,lexical_decision_task_DD_L5,2021.2.3,Win32,59.79430758,,m,1,0.7197,,,,,,,,0.7197,1,0,8,8,6,1,1001,ZOMBIE,m,,,,,,,,,,,,,,,,,,,,,,,,,,,,,,,,,,,,,,,,,,,,,,,,,,,,,,,,,,,,,,,,,
,,,,,,,,,,,,,,,,,60660870280f2b522cc3214b,22,2022-02-12_12h41.26.359,lexical_decision_task_DD_L5,2021.2.3,Win32,59.79430758,,m,1,0.5841,,,,,,,,0.5841,1,0,9,9,3,1,1001,MATRIX,m,,,,,,,,,,,,,,,,,,,,,,,,,,,,,,,,,,,,,,,,,,,,,,,,,,,,,,,,,,,,,,,,,
,,,,,,,,,,,,,,,,,60660870280f2b522cc3214b,22,2022-02-12_12h41.26.359,lexical_decision_task_DD_L5,2021.2.3,Win32,59.79430758,,m,1,0.5306,,,,,,,,0.5306,1,0,10,10,4,1,1001,SQUEAK,m,,,,,,,,,,,,,,,,,,,,,,,,,,,,,,,,,,,,,,,,,,,,,,,,,,,,,,,,,,,,,,,,,
,,,,,,,,,,,,,,,,,60660870280f2b522cc3214b,22,2022-02-12_12h41.26.359,lexical_decision_task_DD_L5,2021.2.3,Win32,59.79430758,,m,1,0.5483,,,,,,,,0.5483,1,0,11,11,7,1,1001,VOLUME,m,,,,,,,,,,,,,,,,,,,,,,,,,,,,,,,,,,,,,,,,,,,,,,,,,,,,,,,,,,,,,,,,,
,,,,,,,,,,,,,,,,,60660870280f2b522cc3214b,22,2022-02-12_12h41.26.359,lexical_decision_task_DD_L5,2021.2.3,Win32,59.79430758,,z,1,0.8026,,,,,,,,0.8026,1,0,12,12,11,1,1001,RASHET,z,,,,,,,,,,,,,,,,,,,,,,,,,,,,,,,,,,,,,,,,,,,,,,,,,,,,,,,,,,,,,,,,,
,,,,,,,,,,,,,,,,,60660870280f2b522cc3214b,22,2022-02-12_12h41.26.359,lexical_decision_task_DD_L5,2021.2.3,Win32,59.79430758,,z,1,0.6794,,,,,,,,0.6794,1,0,13,13,8,1,1001,ASLERT,z,,,,,,,,,,,,,,,,,,,,,,,,,,,,,,,,,,,,,,,,,,,,,,,,,,,,,,,,,,,,,,,,,
,,,,,,,,,,,,,,,,,60660870280f2b522cc3214b,22,2022-02-12_12h41.26.359,lexical_decision_task_DD_L5,2021.2.3,Win32,59.79430758,,m,1,0.579,,,,,,,,0.579,1,0,14,14,5,1,1001,OBTAIN,m,,,,,,,,,,,,,,,,,,,,,,,,,,,,,,,,,,,,,,,,,,,,,,,,,,,,,,,,,,,,,,,,,
,,,,,,,,,,,,,,,,,60660870280f2b522cc3214b,22,2022-02-12_12h41.26.359,lexical_decision_task_DD_L5,2021.2.3,Win32,59.79430758,,z,1,0.8293,,,,,,,,0.8293,1,0,15,15,14,1,1001,THRALE,z,,,,,,,,,,,,,,,,,,,,,,,,,,,,,,,,,,,,,,,,,,,,,,,,,,,,,,,,,,,,,,,,,
space,0.888425952,-0.150000066,0,0,0,,,,,,,1,end_of_practice,"You have completed the practice trials. During the experimental trials, you will not receive feedback. 
Before you begin, please ensure that you are in a comfortable and quiet location and will not be disturbed for about 15 minutes, as we cannot use your data if you do not complete all the trials. 
 When you are ready to start the experimental trials, please press space or touch the button below.",,,60660870280f2b522cc3214b,22,2022-02-12_12h41.26.359,lexical_decision_task_DD_L5,2021.2.3,Win32,59.79430758,6.5571,,,,,,,,,,,,,,,,,,,,,0,0,0,0,1,,,,,,,,,,,,,,,,,,,,,,,,,,,,,,,,,,,,,,,,,,,,,,,,,,,,,,,,,,,,
,,,,,,,,,,,,,,,,,60660870280f2b522cc3214b,22,2022-02-12_12h41.26.359,lexical_decision_task_DD_L5,2021.2.3,Win32,59.79430758,,,,,,,,,,,,0.6391,1,,,,,,,,,,,,,,z,1,0.6391,,,,,,,,0.888425952,-0.150000066,0,0,0,,0,0,0,126,1,GUELS,C,old,z,./images/GUELS.png,,,,,,,,,,,,,,,,,,,,,,,,,,,,,,,,,,
,,,,,,,,,,,,,,,,,60660870280f2b522cc3214b,22,2022-02-12_12h41.26.359,lexical_decision_task_DD_L5,2021.2.3,Win32,59.79430758,,,,,,,,,,,,0.5968,1,,,,,,,,,,,,,,m,1,0.5968,,,,,,,,0.888425952,-0.150000066,0,0,0,,0,1,1,16,1,GRAPE,LB,old,m,./images/GRAPELB.png,,,,,,,,,,,,,,,,,,,,,,,,,,,,,,,,,,
,,,,,,,,,,,,,,,,,60660870280f2b522cc3214b,22,2022-02-12_12h41.26.359,lexical_decision_task_DD_L5,2021.2.3,Win32,59.79430758,,,,,,,,,,,,0.5892,1,,,,,,,,,,,,,,m,1,0.5892,,,,,,,,0.888425952,-0.150000066,0,0,0,,0,2,2,46,1,MUMMY,LB,old,m,./images/MUMMYLB.png,,,,,,,,,,,,,,,,,,,,,,,,,,,,,,,,,,
,,,,,,,,,,,,,,,,,60660870280f2b522cc3214b,22,2022-02-12_12h41.26.359,lexical_decision_task_DD_L5,2021.2.3,Win32,59.79430758,,,,,,,,,,,,1.1438,0,,,,,,,,,,,,,,z,0,1.1438,,,,,,,,0.888425952,-0.150000066,0,0,0,,0,3,3,21,1,DANCER,HB,old,m,./images/DANCERHB.png,,,,,,,,,,,,,,,,,,,,,,,,,,,,,,,,,,
,,,,,,,,,,,,,,,,,60660870280f2b522cc3214b,22,2022-02-12_12h41.26.359,lexical_decision_task_DD_L5,2021.2.3,Win32,59.79430758,,,,,,,,,,,,0.7123,1,,,,,,,,,,,,,,z,1,0.7123,,,,,,,,0.888425952,-0.150000066,0,0,0,,0,4,4,111,1,HOSSE,C,old,z,./images/HOSSE.png,,,,,,,,,,,,,,,,,,,,,,,,,,,,,,,,,,
,,,,,,,,,,,,,,,,,60660870280f2b522cc3214b,22,2022-02-12_12h41.26.359,lexical_decision_task_DD_L5,2021.2.3,Win32,59.79430758,,,,,,,,,,,,0.5879,1,,,,,,,,,,,,,,m,1,0.5879,,,,,,,,0.888425952,-0.150000066,0,0,0,,0,5,5,37,1,TIGER,LB,old,m,./images/TIGERLB.png,,,,,,,,,,,,,,,,,,,,,,,,,,,,,,,,,,
,,,,,,,,,,,,,,,,,60660870280f2b522cc3214b,22,2022-02-12_12h41.26.359,lexical_decision_task_DD_L5,2021.2.3,Win32,59.79430758,,,,,,,,,,,,0.661,1,,,,,,,,,,,,,,m,1,0.661,,,,,,,,0.888425952,-0.150000066,0,0,0,,0,6,6,12,1,BLOKE,HB,old,m,./images/BLOKEHB.png,,,,,,,,,,,,,,,,,,,,,,,,,,,,,,,,,,
,,,,,,,,,,,,,,,,,60660870280f2b522cc3214b,22,2022-02-12_12h41.26.359,lexical_decision_task_DD_L5,2021.2.3,Win32,59.79430758,,,,,,,,,,,,0.9222,1,,,,,,,,,,,,,,m,1,0.9222,,,,,,,,0.888425952,-0.150000066,0,0,0,,0,7,7,27,1,BUTTER,HB,old,m,./images/BUTTERHB.png,,,,,,,,,,,,,,,,,,,,,,,,,,,,,,,,,,
,,,,,,,,,,,,,,,,,60660870280f2b522cc3214b,22,2022-02-12_12h41.26.359,lexical_decision_task_DD_L5,2021.2.3,Win32,59.79430758,,,,,,,,,,,,0.7897,1,,,,,,,,,,,,,,z,1,0.7897,,,,,,,,0.888425952,-0.150000066,0,0,0,,0,8,8,95,1,HANTY,LB,old,z,./images/HANTYLB.png,,,,,,,,,,,,,,,,,,,,,,,,,,,,,,,,,,
,,,,,,,,,,,,,,,,,60660870280f2b522cc3214b,22,2022-02-12_12h41.26.359,lexical_decision_task_DD_L5,2021.2.3,Win32,59.79430758,,,,,,,,,,,,1.4326,1,,,,,,,,,,,,,,m,1,1.4326,,,,,,,,0.888425952,-0.150000066,0,0,0,,0,9,9,3,1,CRATER,HB,old,m,./images/CRATERHB.png,,,,,,,,,,,,,,,,,,,,,,,,,,,,,,,,,,
,,,,,,,,,,,,,,,,,60660870280f2b522cc3214b,22,2022-02-12_12h41.26.359,lexical_decision_task_DD_L5,2021.2.3,Win32,59.79430758,,,,,,,,,,,,1.1488,1,,,,,,,,,,,,,,z,1,1.1488,,,,,,,,0.888425952,-0.150000066,0,0,0,,0,10,10,97,1,CHIDS,HB,old,z,./images/CHIDSHB.png,,,,,,,,,,,,,,,,,,,,,,,,,,,,,,,,,,
,,,,,,,,,,,,,,,,,60660870280f2b522cc3214b,22,2022-02-12_12h41.26.359,lexical_decision_task_DD_L5,2021.2.3,Win32,59.79430758,,,,,,,,,,,,0.7526,1,,,,,,,,,,,,,,z,1,0.7526,,,,,,,,0.888425952,-0.150000066,0,0,0,,0,11,11,110,1,CRUNK,LB,old,z,./images/CRUNKLB.png,,,,,,,,,,,,,,,,,,,,,,,,,,,,,,,,,,
,,,,,,,,,,,,,,,,,60660870280f2b522cc3214b,22,2022-02-12_12h41.26.359,lexical_decision_task_DD_L5,2021.2.3,Win32,59.79430758,,,,,,,,,,,,1.4444,1,,,,,,,,,,,,,,z,1,1.4444,,,,,,,,0.888425952,-0.150000066,0,0,0,,0,12,12,115,1,MAWNS,HB,old,z,./images/MAWNSHB.png,,,,,,,,,,,,,,,,,,,,,,,,,,,,,,,,,,
,,,,,,,,,,,,,,,,,60660870280f2b522cc3214b,22,2022-02-12_12h41.26.359,lexical_decision_task_DD_L5,2021.2.3,Win32,59.79430758,,,,,,,,,,,,0.7111,1,,,,,,,,,,,,,,z,1,0.7111,,,,,,,,0.888425952,-0.150000066,0,0,0,,0,13,13,156,1,HIXES,C,old,z,./images/HIXES.png,,,,,,,,,,,,,,,,,,,,,,,,,,,,,,,,,,
,,,,,,,,,,,,,,,,,60660870280f2b522cc3214b,22,2022-02-12_12h41.26.359,lexical_decision_task_DD_L5,2021.2.3,Win32,59.79430758,,,,,,,,,,,,1.1633,1,,,,,,,,,,,,,,z,1,1.1633,,,,,,,,0.888425952,-0.150000066,0,0,0,,0,14,14,120,1,RINED,C,old,z,./images/RINED.png,,,,,,,,,,,,,,,,,,,,,,,,,,,,,,,,,,
,,,,,,,,,,,,,,,,,60660870280f2b522cc3214b,22,2022-02-12_12h41.26.359,lexical_decision_task_DD_L5,2021.2.3,Win32,59.79430758,,,,,,,,,,,,1.7736,1,,,,,,,,,,,,,,z,1,1.7736,,,,,,,,0.888425952,-0.150000066,0,0,0,,0,15,15,145,1,LAMEL,HB,old,z,./images/LAMELHB.png,,,,,,,,,,,,,,,,,,,,,,,,,,,,,,,,,,
,,,,,,,,,,,,,,,,,60660870280f2b522cc3214b,22,2022-02-12_12h41.26.359,lexical_decision_task_DD_L5,2021.2.3,Win32,59.79430758,,,,,,,,,,,,0.5654,1,,,,,,,,,,,,,,m,1,0.5654,,,,,,,,0.888425952,-0.150000066,0,0,0,,0,16,16,53,1,POSTER,C,old,m,./images/POSTER.png,,,,,,,,,,,,,,,,,,,,,,,,,,,,,,,,,,
,,,,,,,,,,,,,,,,,60660870280f2b522cc3214b,22,2022-02-12_12h41.26.359,lexical_decision_task_DD_L5,2021.2.3,Win32,59.79430758,,,,,,,,,,,,1.4558,1,,,,,,,,,,,,,,m,1,1.4558,,,,,,,,0.888425952,-0.150000066,0,0,0,,0,17,17,18,1,PARCEL,HB,old,m,./images/PARCELHB.png,,,,,,,,,,,,,,,,,,,,,,,,,,,,,,,,,,
,,,,,,,,,,,,,,,,,60660870280f2b522cc3214b,22,2022-02-12_12h41.26.359,lexical_decision_task_DD_L5,2021.2.3,Win32,59.79430758,,,,,,,,,,,,0.6945,1,,,,,,,,,,,,,,z,1,0.6945,,,,,,,,0.888425952,-0.150000066,0,0,0,,0,18,18,140,1,DOVET,LB,old,z,./images/DOVETLB.png,,,,,,,,,,,,,,,,,,,,,,,,,,,,,,,,,,
,,,,,,,,,,,,,,,,,60660870280f2b522cc3214b,22,2022-02-12_12h41.26.359,lexical_decision_task_DD_L5,2021.2.3,Win32,59.79430758,,,,,,,,,,,,0.5708,1,,,,,,,,,,,,,,m,1,0.5708,,,,,,,,0.888425952,-0.150000066,0,0,0,,0,19,19,10,1,GARDEN,LB,old,m,./images/GARDENLB.png,,,,,,,,,,,,,,,,,,,,,,,,,,,,,,,,,,
,,,,,,,,,,,,,,,,,60660870280f2b522cc3214b,22,2022-02-12_12h41.26.359,lexical_decision_task_DD_L5,2021.2.3,Win32,59.79430758,,,,,,,,,,,,0.5473,1,,,,,,,,,,,,,,m,1,0.5473,,,,,,,,0.888425952,-0.150000066,0,0,0,,0,20,20,71,1,BUBBLE,C,old,m,./images/BUBBLE.png,,,,,,,,,,,,,,,,,,,,,,,,,,,,,,,,,,
,,,,,,,,,,,,,,,,,60660870280f2b522cc3214b,22,2022-02-12_12h41.26.359,lexical_decision_task_DD_L5,2021.2.3,Win32,59.79430758,,,,,,,,,,,,0.6067,1,,,,,,,,,,,,,,z,1,0.6067,,,,,,,,0.888425952,-0.150000066,0,0,0,,0,21,21,131,1,NACES,LB,old,z,./images/NACESLB.png,,,,,,,,,,,,,,,,,,,,,,,,,,,,,,,,,,
,,,,,,,,,,,,,,,,,60660870280f2b522cc3214b,22,2022-02-12_12h41.26.359,lexical_decision_task_DD_L5,2021.2.3,Win32,59.79430758,,,,,,,,,,,,0.8866,1,,,,,,,,,,,,,,z,1,0.8866,,,,,,,,0.888425952,-0.150000066,0,0,0,,0,22,22,154,1,THINT,HB,old,z,./images/THINTHB.png,,,,,,,,,,,,,,,,,,,,,,,,,,,,,,,,,,
,,,,,,,,,,,,,,,,,60660870280f2b522cc3214b,22,2022-02-12_12h41.26.359,lexical_decision_task_DD_L5,2021.2.3,Win32,59.79430758,,,,,,,,,,,,0.565,1,,,,,,,,,,,,,,z,1,0.565,,,,,,,,0.888425952,-0.150000066,0,0,0,,0,23,23,98,1,BAMPS,LB,old,z,./images/BAMPSLB.png,,,,,,,,,,,,,,,,,,,,,,,,,,,,,,,,,,
,,,,,,,,,,,,,,,,,60660870280f2b522cc3214b,22,2022-02-12_12h41.26.359,lexical_decision_task_DD_L5,2021.2.3,Win32,59.79430758,,,,,,,,,,,,0.4618,1,,,,,,,,,,,,,,z,1,0.4618,,,,,,,,0.888425952,-0.150000066,0,0,0,,0,24,24,137,1,JOOST,LB,old,z,./images/JOOSTLB.png,,,,,,,,,,,,,,,,,,,,,,,,,,,,,,,,,,
,,,,,,,,,,,,,,,,,60660870280f2b522cc3214b,22,2022-02-12_12h41.26.359,lexical_decision_task_DD_L5,2021.2.3,Win32,59.79430758,,,,,,,,,,,,0.4593,0,,,,,,,,,,,,,,z,0,0.4593,,,,,,,,0.888425952,-0.150000066,0,0,0,,0,25,25,11,1,MEDAL,C,old,m,./images/MEDAL.png,,,,,,,,,,,,,,,,,,,,,,,,,,,,,,,,,,
,,,,,,,,,,,,,,,,,60660870280f2b522cc3214b,22,2022-02-12_12h41.26.359,lexical_decision_task_DD_L5,2021.2.3,Win32,59.79430758,,,,,,,,,,,,0.6166,1,,,,,,,,,,,,,,z,1,0.6166,,,,,,,,0.888425952,-0.150000066,0,0,0,,0,26,26,122,1,BLOOT,LB,old,z,./images/BLOOTLB.png,,,,,,,,,,,,,,,,,,,,,,,,,,,,,,,,,,
,,,,,,,,,,,,,,,,,60660870280f2b522cc3214b,22,2022-02-12_12h41.26.359,lexical_decision_task_DD_L5,2021.2.3,Win32,59.79430758,,,,,,,,,,,,0.702,1,,,,,,,,,,,,,,m,1,0.702,,,,,,,,0.888425952,-0.150000066,0,0,0,,0,27,27,47,1,LAGOON,C,old,m,./images/LAGOON.png,,,,,,,,,,,,,,,,,,,,,,,,,,,,,,,,,,
,,,,,,,,,,,,,,,,,60660870280f2b522cc3214b,22,2022-02-12_12h41.26.359,lexical_decision_task_DD_L5,2021.2.3,Win32,59.79430758,,,,,,,,,,,,0.6614,1,,,,,,,,,,,,,,z,1,0.6614,,,,,,,,0.888425952,-0.150000066,0,0,0,,0,28,28,116,1,BALGY,LB,old,z,./images/BALGYLB.png,,,,,,,,,,,,,,,,,,,,,,,,,,,,,,,,,,
,,,,,,,,,,,,,,,,,60660870280f2b522cc3214b,22,2022-02-12_12h41.26.359,lexical_decision_task_DD_L5,2021.2.3,Win32,59.79430758,,,,,,,,,,,,0.8282,1,,,,,,,,,,,,,,z,1,0.8282,,,,,,,,0.888425952,-0.150000066,0,0,0,,0,29,29,86,1,AIFED,LB,old,z,./images/AIFEDLB.png,,,,,,,,,,,,,,,,,,,,,,,,,,,,,,,,,,
,,,,,,,,,,,,,,,,,60660870280f2b522cc3214b,22,2022-02-12_12h41.26.359,lexical_decision_task_DD_L5,2021.2.3,Win32,59.79430758,,,,,,,,,,,,0.7123,1,,,,,,,,,,,,,,z,1,0.7123,,,,,,,,0.888425952,-0.150000066,0,0,0,,0,30,30,146,1,MOOST,LB,old,z,./images/MOOSTLB.png,,,,,,,,,,,,,,,,,,,,,,,,,,,,,,,,,,
,,,,,,,,,,,,,,,,,60660870280f2b522cc3214b,22,2022-02-12_12h41.26.359,lexical_decision_task_DD_L5,2021.2.3,Win32,59.79430758,,,,,,,,,,,,0.6375,1,,,,,,,,,,,,,,z,1,0.6375,,,,,,,,0.888425952,-0.150000066,0,0,0,,0,31,31,125,1,MOOKY,LB,old,z,./images/MOOKYLB.png,,,,,,,,,,,,,,,,,,,,,,,,,,,,,,,,,,
,,,,,,,,,,,,,,,,,60660870280f2b522cc3214b,22,2022-02-12_12h41.26.359,lexical_decision_task_DD_L5,2021.2.3,Win32,59.79430758,,,,,,,,,,,,1.3789,1,,,,,,,,,,,,,,z,1,1.3789,,,,,,,,0.888425952,-0.150000066,0,0,0,,0,32,32,163,1,GAMBA,HB,old,z,./images/GAMBAHB.png,,,,,,,,,,,,,,,,,,,,,,,,,,,,,,,,,,
,,,,,,,,,,,,,,,,,60660870280f2b522cc3214b,22,2022-02-12_12h41.26.359,lexical_decision_task_DD_L5,2021.2.3,Win32,59.79430758,,,,,,,,,,,,0.7146,1,,,,,,,,,,,,,,m,1,0.7146,,,,,,,,0.888425952,-0.150000066,0,0,0,,0,33,33,56,1,HEATER,C,old,m,./images/HEATER.png,,,,,,,,,,,,,,,,,,,,,,,,,,,,,,,,,,
,,,,,,,,,,,,,,,,,60660870280f2b522cc3214b,22,2022-02-12_12h41.26.359,lexical_decision_task_DD_L5,2021.2.3,Win32,59.79430758,,,,,,,,,,,,0.6236,1,,,,,,,,,,,,,,m,1,0.6236,,,,,,,,0.888425952,-0.150000066,0,0,0,,0,34,34,76,1,MIDGET,LB,old,m,./images/MIDGETLB.png,,,,,,,,,,,,,,,,,,,,,,,,,,,,,,,,,,
,,,,,,,,,,,,,,,,,60660870280f2b522cc3214b,22,2022-02-12_12h41.26.359,lexical_decision_task_DD_L5,2021.2.3,Win32,59.79430758,,,,,,,,,,,,0.5652,1,,,,,,,,,,,,,,z,1,0.5652,,,,,,,,0.888425952,-0.150000066,0,0,0,,0,35,35,96,1,KEAMS,C,old,z,./images/KEAMS.png,,,,,,,,,,,,,,,,,,,,,,,,,,,,,,,,,,
,,,,,,,,,,,,,,,,,60660870280f2b522cc3214b,22,2022-02-12_12h41.26.359,lexical_decision_task_DD_L5,2021.2.3,Win32,59.79430758,,,,,,,,,,,,0.5763,1,,,,,,,,,,,,,,m,1,0.5763,,,,,,,,0.888425952,-0.150000066,0,0,0,,0,36,36,59,1,BRUSH,C,old,m,./images/BRUSH.png,,,,,,,,,,,,,,,,,,,,,,,,,,,,,,,,,,
,,,,,,,,,,,,,,,,,60660870280f2b522cc3214b,22,2022-02-12_12h41.26.359,lexical_decision_task_DD_L5,2021.2.3,Win32,59.79430758,,,,,,,,,,,,0.6322,1,,,,,,,,,,,,,,z,1,0.6322,,,,,,,,0.888425952,-0.150000066,0,0,0,,0,37,37,114,1,RIKES,C,old,z,./images/RIKES.png,,,,,,,,,,,,,,,,,,,,,,,,,,,,,,,,,,
,,,,,,,,,,,,,,,,,60660870280f2b522cc3214b,22,2022-02-12_12h41.26.359,lexical_decision_task_DD_L5,2021.2.3,Win32,59.79430758,,,,,,,,,,,,0.6096,1,,,,,,,,,,,,,,m,1,0.6096,,,,,,,,0.888425952,-0.150000066,0,0,0,,0,38,38,74,1,JUMPER,C,old,m,./images/JUMPER.png,,,,,,,,,,,,,,,,,,,,,,,,,,,,,,,,,,
,,,,,,,,,,,,,,,,,60660870280f2b522cc3214b,22,2022-02-12_12h41.26.359,lexical_decision_task_DD_L5,2021.2.3,Win32,59.79430758,,,,,,,,,,,,0.5681,1,,,,,,,,,,,,,,m,1,0.5681,,,,,,,,0.888425952,-0.150000066,0,0,0,,0,39,39,64,1,BRIDE,LB,old,m,./images/BRIDELB.png,,,,,,,,,,,,,,,,,,,,,,,,,,,,,,,,,,
,,,,,,,,,,,,,,,,,60660870280f2b522cc3214b,22,2022-02-12_12h41.26.359,lexical_decision_task_DD_L5,2021.2.3,Win32,59.79430758,,,,,,,,,,,,0.593,1,,,,,,,,,,,,,,m,1,0.593,,,,,,,,0.888425952,-0.150000066,0,0,0,,0,40,40,20,1,GRANNY,C,old,m,./images/GRANNY.png,,,,,,,,,,,,,,,,,,,,,,,,,,,,,,,,,,
,,,,,,,,,,,,,,,,,60660870280f2b522cc3214b,22,2022-02-12_12h41.26.359,lexical_decision_task_DD_L5,2021.2.3,Win32,59.79430758,,,,,,,,,,,,0.5672,1,,,,,,,,,,,,,,z,1,0.5672,,,,,,,,0.888425952,-0.150000066,0,0,0,space,0,41,41,87,1,TRING,C,old,z,./images/TRING.png,2.1755,,,,,,,,,,,,,,,,,,,,,,,,,,,,,,,,,
,,,,,,,,,,,,,,,,,60660870280f2b522cc3214b,22,2022-02-12_12h41.26.359,lexical_decision_task_DD_L5,2021.2.3,Win32,59.79430758,,,,,,,,,,,,0.7969,1,,,,,,,,,,,,,,m,1,0.7969,,,,,,,,0.888425952,-0.150000066,0,0,0,,0,42,42,78,1,BROOM,HB,old,m,./images/BROOMHB.png,,,,,,,,,,,,,,,,,,,,,,,,,,,,,,,,,,
,,,,,,,,,,,,,,,,,60660870280f2b522cc3214b,22,2022-02-12_12h41.26.359,lexical_decision_task_DD_L5,2021.2.3,Win32,59.79430758,,,,,,,,,,,,0.8129,1,,,,,,,,,,,,,,z,1,0.8129,,,,,,,,0.888425952,-0.150000066,0,0,0,,0,43,43,121,1,CEERS,HB,old,z,./images/CEERSHB.png,,,,,,,,,,,,,,,,,,,,,,,,,,,,,,,,,,
,,,,,,,,,,,,,,,,,60660870280f2b522cc3214b,22,2022-02-12_12h41.26.359,lexical_decision_task_DD_L5,2021.2.3,Win32,59.79430758,,,,,,,,,,,,0.6043,1,,,,,,,,,,,,,,z,1,0.6043,,,,,,,,0.888425952,-0.150000066,0,0,0,,0,44,44,158,1,EGECT,LB,old,z,./images/EGECTLB.png,,,,,,,,,,,,,,,,,,,,,,,,,,,,,,,,,,
,,,,,,,,,,,,,,,,,60660870280f2b522cc3214b,22,2022-02-12_12h41.26.359,lexical_decision_task_DD_L5,2021.2.3,Win32,59.79430758,,,,,,,,,,,,0.5481,1,,,,,,,,,,,,,,m,1,0.5481,,,,,,,,0.888425952,-0.150000066,0,0,0,,0,45,45,80,1,PLANET,C,old,m,./images/PLANET.png,,,,,,,,,,,,,,,,,,,,,,,,,,,,,,,,,,
,,,,,,,,,,,,,,,,,60660870280f2b522cc3214b,22,2022-02-12_12h41.26.359,lexical_decision_task_DD_L5,2021.2.3,Win32,59.79430758,,,,,,,,,,,,0.7669,1,,,,,,,,,,,,,,z,1,0.7669,,,,,,,,0.888425952,-0.150000066,0,0,0,,0,46,46,112,1,MYING,HB,old,z,./images/MYINGHB.png,,,,,,,,,,,,,,,,,,,,,,,,,,,,,,,,,,
,,,,,,,,,,,,,,,,,60660870280f2b522cc3214b,22,2022-02-12_12h41.26.359,lexical_decision_task_DD_L5,2021.2.3,Win32,59.79430758,,,,,,,,,,,,0.6224,1,,,,,,,,,,,,,,z,1,0.6224,,,,,,,,0.888425952,-0.150000066,0,0,0,,0,47,47,153,1,CLUPS,C,old,z,./images/CLUPS.png,,,,,,,,,,,,,,,,,,,,,,,,,,,,,,,,,,
,,,,,,,,,,,,,,,,,60660870280f2b522cc3214b,22,2022-02-12_12h41.26.359,lexical_decision_task_DD_L5,2021.2.3,Win32,59.79430758,,,,,,,,,,,,0.6158,1,,,,,,,,,,,,,,m,1,0.6158,,,,,,,,0.888425952,-0.150000066,0,0,0,,0,48,48,0,1,WALNUT,HB,old,m,./images/WALNUTHB.png,,,,,,,,,,,,,,,,,,,,,,,,,,,,,,,,,,
,,,,,,,,,,,,,,,,,60660870280f2b522cc3214b,22,2022-02-12_12h41.26.359,lexical_decision_task_DD_L5,2021.2.3,Win32,59.79430758,,,,,,,,,,,,0.6707,1,,,,,,,,,,,,,,m,1,0.6707,,,,,,,,0.888425952,-0.150000066,0,0,0,,0,49,49,39,1,CANDY,HB,old,m,./images/CANDYHB.png,,,,,,,,,,,,,,,,,,,,,,,,,,,,,,,,,,
,,,,,,,,,,,,,,,,,60660870280f2b522cc3214b,22,2022-02-12_12h41.26.359,lexical_decision_task_DD_L5,2021.2.3,Win32,59.79430758,,,,,,,,,,,,1.1112,1,,,,,,,,,,,,,,z,1,1.1112,,,,,,,,0.888425952,-0.150000066,0,0,0,,0,50,50,127,1,NINDY,HB,old,z,./images/NINDYHB.png,,,,,,,,,,,,,,,,,,,,,,,,,,,,,,,,,,
,,,,,,,,,,,,,,,,,60660870280f2b522cc3214b,22,2022-02-12_12h41.26.359,lexical_decision_task_DD_L5,2021.2.3,Win32,59.79430758,,,,,,,,,,,,0.5842,1,,,,,,,,,,,,,,z,1,0.5842,,,,,,,,0.888425952,-0.150000066,0,0,0,,0,51,51,89,1,DRIEK,LB,old,z,./images/DRIEKLB.png,,,,,,,,,,,,,,,,,,,,,,,,,,,,,,,,,,
,,,,,,,,,,,,,,,,,60660870280f2b522cc3214b,22,2022-02-12_12h41.26.359,lexical_decision_task_DD_L5,2021.2.3,Win32,59.79430758,,,,,,,,,,,,0.6447,1,,,,,,,,,,,,,,z,1,0.6447,,,,,,,,0.888425952,-0.150000066,0,0,0,,0,52,52,167,1,ZONET,LB,old,z,./images/ZONETLB.png,,,,,,,,,,,,,,,,,,,,,,,,,,,,,,,,,,
,,,,,,,,,,,,,,,,,60660870280f2b522cc3214b,22,2022-02-12_12h41.26.359,lexical_decision_task_DD_L5,2021.2.3,Win32,59.79430758,,,,,,,,,,,,0.9671,1,,,,,,,,,,,,,,m,1,0.9671,,,,,,,,0.888425952,-0.150000066,0,0,0,,0,53,53,45,1,MONKEY,HB,old,m,./images/MONKEYHB.png,,,,,,,,,,,,,,,,,,,,,,,,,,,,,,,,,,
,,,,,,,,,,,,,,,,,60660870280f2b522cc3214b,22,2022-02-12_12h41.26.359,lexical_decision_task_DD_L5,2021.2.3,Win32,59.79430758,,,,,,,,,,,,0.5433,1,,,,,,,,,,,,,,m,1,0.5433,,,,,,,,0.888425952,-0.150000066,0,0,0,,0,54,54,14,1,FENCE,C,old,m,./images/FENCE.png,,,,,,,,,,,,,,,,,,,,,,,,,,,,,,,,,,
,,,,,,,,,,,,,,,,,60660870280f2b522cc3214b,22,2022-02-12_12h41.26.359,lexical_decision_task_DD_L5,2021.2.3,Win32,59.79430758,,,,,,,,,,,,1.4826,1,,,,,,,,,,,,,,z,1,1.4826,,,,,,,,0.888425952,-0.150000066,0,0,0,,0,55,55,159,1,CUDDY,C,old,z,./images/CUDDY.png,,,,,,,,,,,,,,,,,,,,,,,,,,,,,,,,,,
,,,,,,,,,,,,,,,,,60660870280f2b522cc3214b,22,2022-02-12_12h41.26.359,lexical_decision_task_DD_L5,2021.2.3,Win32,59.79430758,,,,,,,,,,,,0.8454,1,,,,,,,,,,,,,,z,1,0.8454,,,,,,,,0.888425952,-0.150000066,0,0,0,,0,56,56,165,1,TROWN,C,old,z,./images/TROWN.png,,,,,,,,,,,,,,,,,,,,,,,,,,,,,,,,,,
,,,,,,,,,,,,,,,,,60660870280f2b522cc3214b,22,2022-02-12_12h41.26.359,lexical_decision_task_DD_L5,2021.2.3,Win32,59.79430758,,,,,,,,,,,,0.6546,1,,,,,,,,,,,,,,z,1,0.6546,,,,,,,,0.888425952,-0.150000066,0,0,0,,0,57,57,161,1,BLAPS,LB,old,z,./images/BLAPSLB.png,,,,,,,,,,,,,,,,,,,,,,,,,,,,,,,,,,
,,,,,,,,,,,,,,,,,60660870280f2b522cc3214b,22,2022-02-12_12h41.26.359,lexical_decision_task_DD_L5,2021.2.3,Win32,59.79430758,,,,,,,,,,,,1.0106,1,,,,,,,,,,,,,,z,1,1.0106,,,,,,,,0.888425952,-0.150000066,0,0,0,,0,58,58,99,1,BACKY,C,old,z,./images/BACKY.png,,,,,,,,,,,,,,,,,,,,,,,,,,,,,,,,,,
,,,,,,,,,,,,,,,,,60660870280f2b522cc3214b,22,2022-02-12_12h41.26.359,lexical_decision_task_DD_L5,2021.2.3,Win32,59.79430758,,,,,,,,,,,,0.5227,1,,,,,,,,,,,,,,m,1,0.5227,,,,,,,,0.888425952,-0.150000066,0,0,0,,0,59,59,83,1,WHISKY,C,old,m,./images/WHISKY.png,,,,,,,,,,,,,,,,,,,,,,,,,,,,,,,,,,
,,,,,,,,,,,,,,,,,60660870280f2b522cc3214b,22,2022-02-12_12h41.26.359,lexical_decision_task_DD_L5,2021.2.3,Win32,59.79430758,,,,,,,,,,,,0.5823,1,,,,,,,,,,,,,,z,1,0.5823,,,,,,,,0.888425952,-0.150000066,0,0,0,,0,60,60,132,1,SCIFF,C,old,z,./images/SCIFF.png,,,,,,,,,,,,,,,,,,,,,,,,,,,,,,,,,,
,,,,,,,,,,,,,,,,,60660870280f2b522cc3214b,22,2022-02-12_12h41.26.359,lexical_decision_task_DD_L5,2021.2.3,Win32,59.79430758,,,,,,,,,,,,0.9283,1,,,,,,,,,,,,,,m,1,0.9283,,,,,,,,0.888425952,-0.150000066,0,0,0,,0,61,61,15,1,COLLAR,HB,old,m,./images/COLLARHB.png,,,,,,,,,,,,,,,,,,,,,,,,,,,,,,,,,,
,,,,,,,,,,,,,,,,,60660870280f2b522cc3214b,22,2022-02-12_12h41.26.359,lexical_decision_task_DD_L5,2021.2.3,Win32,59.79430758,,,,,,,,,,,,0.6512,1,,,,,,,,,,,,,,m,1,0.6512,,,,,,,,0.888425952,-0.150000066,0,0,0,,0,62,62,67,1,POKER,LB,old,m,./images/POKERLB.png,,,,,,,,,,,,,,,,,,,,,,,,,,,,,,,,,,
,,,,,,,,,,,,,,,,,60660870280f2b522cc3214b,22,2022-02-12_12h41.26.359,lexical_decision_task_DD_L5,2021.2.3,Win32,59.79430758,,,,,,,,,,,,0.6263,1,,,,,,,,,,,,,,m,1,0.6263,,,,,,,,0.888425952,-0.150000066,0,0,0,,0,63,63,5,1,BAMBOO,C,old,m,./images/BAMBOO.png,,,,,,,,,,,,,,,,,,,,,,,,,,,,,,,,,,
,,,,,,,,,,,,,,,,,60660870280f2b522cc3214b,22,2022-02-12_12h41.26.359,lexical_decision_task_DD_L5,2021.2.3,Win32,59.79430758,,,,,,,,,,,,0.6161,1,,,,,,,,,,,,,,m,1,0.6161,,,,,,,,0.888425952,-0.150000066,0,0,0,,0,64,64,40,1,SNAKE,LB,old,m,./images/SNAKELB.png,,,,,,,,,,,,,,,,,,,,,,,,,,,,,,,,,,
,,,,,,,,,,,,,,,,,60660870280f2b522cc3214b,22,2022-02-12_12h41.26.359,lexical_decision_task_DD_L5,2021.2.3,Win32,59.79430758,,,,,,,,,,,,1.2484,1,,,,,,,,,,,,,,m,1,1.2484,,,,,,,,0.888425952,-0.150000066,0,0,0,,0,65,65,60,1,CURRY,HB,old,m,./images/CURRYHB.png,,,,,,,,,,,,,,,,,,,,,,,,,,,,,,,,,,
,,,,,,,,,,,,,,,,,60660870280f2b522cc3214b,22,2022-02-12_12h41.26.359,lexical_decision_task_DD_L5,2021.2.3,Win32,59.79430758,,,,,,,,,,,,0.5613,1,,,,,,,,,,,,,,m,1,0.5613,,,,,,,,0.888425952,-0.150000066,0,0,0,,0,66,66,28,1,CASINO,LB,old,m,./images/CASINOLB.png,,,,,,,,,,,,,,,,,,,,,,,,,,,,,,,,,,
,,,,,,,,,,,,,,,,,60660870280f2b522cc3214b,22,2022-02-12_12h41.26.359,lexical_decision_task_DD_L5,2021.2.3,Win32,59.79430758,,,,,,,,,,,,0.5677,1,,,,,,,,,,,,,,z,1,0.5677,,,,,,,,0.888425952,-0.150000066,0,0,0,,0,67,67,119,1,PAFER,LB,old,z,./images/PAFERLB.png,,,,,,,,,,,,,,,,,,,,,,,,,,,,,,,,,,
,,,,,,,,,,,,,,,,,60660870280f2b522cc3214b,22,2022-02-12_12h41.26.359,lexical_decision_task_DD_L5,2021.2.3,Win32,59.79430758,,,,,,,,,,,,0.6421,1,,,,,,,,,,,,,,z,1,0.6421,,,,,,,,0.888425952,-0.150000066,0,0,0,,0,68,68,141,1,PLEET,C,old,z,./images/PLEET.png,,,,,,,,,,,,,,,,,,,,,,,,,,,,,,,,,,
,,,,,,,,,,,,,,,,,60660870280f2b522cc3214b,22,2022-02-12_12h41.26.359,lexical_decision_task_DD_L5,2021.2.3,Win32,59.79430758,,,,,,,,,,,,1.4641,1,,,,,,,,,,,,,,m,1,1.4641,,,,,,,,0.888425952,-0.150000066,0,0,0,,0,69,69,24,1,FLESH,HB,old,m,./images/FLESHHB.png,,,,,,,,,,,,,,,,,,,,,,,,,,,,,,,,,,
,,,,,,,,,,,,,,,,,60660870280f2b522cc3214b,22,2022-02-12_12h41.26.359,lexical_decision_task_DD_L5,2021.2.3,Win32,59.79430758,,,,,,,,,,,,0.6829,1,,,,,,,,,,,,,,z,1,0.6829,,,,,,,,0.888425952,-0.150000066,0,0,0,,0,70,70,105,1,MOKER,C,old,z,./images/MOKER.png,,,,,,,,,,,,,,,,,,,,,,,,,,,,,,,,,,
,,,,,,,,,,,,,,,,,60660870280f2b522cc3214b,22,2022-02-12_12h41.26.359,lexical_decision_task_DD_L5,2021.2.3,Win32,59.79430758,,,,,,,,,,,,0.9147,1,,,,,,,,,,,,,,m,1,0.9147,,,,,,,,0.888425952,-0.150000066,0,0,0,,0,71,71,6,1,STAIN,HB,old,m,./images/STAINHB.png,,,,,,,,,,,,,,,,,,,,,,,,,,,,,,,,,,
,,,,,,,,,,,,,,,,,60660870280f2b522cc3214b,22,2022-02-12_12h41.26.359,lexical_decision_task_DD_L5,2021.2.3,Win32,59.79430758,,,,,,,,,,,,0.9734,1,,,,,,,,,,,,,,m,1,0.9734,,,,,,,,0.888425952,-0.150000066,0,0,0,,0,72,72,72,1,FLASK,HB,old,m,./images/FLASKHB.png,,,,,,,,,,,,,,,,,,,,,,,,,,,,,,,,,,
,,,,,,,,,,,,,,,,,60660870280f2b522cc3214b,22,2022-02-12_12h41.26.359,lexical_decision_task_DD_L5,2021.2.3,Win32,59.79430758,,,,,,,,,,,,0.7111,1,,,,,,,,,,,,,,z,1,0.7111,,,,,,,,0.888425952,-0.150000066,0,0,0,,0,73,73,124,1,TUNCH,HB,old,z,./images/TUNCHHB.png,,,,,,,,,,,,,,,,,,,,,,,,,,,,,,,,,,
,,,,,,,,,,,,,,,,,60660870280f2b522cc3214b,22,2022-02-12_12h41.26.359,lexical_decision_task_DD_L5,2021.2.3,Win32,59.79430758,,,,,,,,,,,,0.5529,1,,,,,,,,,,,,,,z,1,0.5529,,,,,,,,0.888425952,-0.150000066,0,0,0,,0,74,74,135,1,JOODY,C,old,z,./images/JOODY.png,,,,,,,,,,,,,,,,,,,,,,,,,,,,,,,,,,
,,,,,,,,,,,,,,,,,60660870280f2b522cc3214b,22,2022-02-12_12h41.26.359,lexical_decision_task_DD_L5,2021.2.3,Win32,59.79430758,,,,,,,,,,,,0.549,1,,,,,,,,,,,,,,z,1,0.549,,,,,,,,0.888425952,-0.150000066,0,0,0,,0,75,75,155,1,CANGY,LB,old,z,./images/CANGYLB.png,,,,,,,,,,,,,,,,,,,,,,,,,,,,,,,,,,
,,,,,,,,,,,,,,,,,60660870280f2b522cc3214b,22,2022-02-12_12h41.26.359,lexical_decision_task_DD_L5,2021.2.3,Win32,59.79430758,,,,,,,,,,,,0.7836,1,,,,,,,,,,,,,,m,1,0.7836,,,,,,,,0.888425952,-0.150000066,0,0,0,,0,76,76,4,1,BOXER,LB,old,m,./images/BOXERLB.png,,,,,,,,,,,,,,,,,,,,,,,,,,,,,,,,,,
,,,,,,,,,,,,,,,,,60660870280f2b522cc3214b,22,2022-02-12_12h41.26.359,lexical_decision_task_DD_L5,2021.2.3,Win32,59.79430758,,,,,,,,,,,,0.6226,1,,,,,,,,,,,,,,m,1,0.6226,,,,,,,,0.888425952,-0.150000066,0,0,0,,0,77,77,2,1,STOVE,C,old,m,./images/STOVE.png,,,,,,,,,,,,,,,,,,,,,,,,,,,,,,,,,,
,,,,,,,,,,,,,,,,,60660870280f2b522cc3214b,22,2022-02-12_12h41.26.359,lexical_decision_task_DD_L5,2021.2.3,Win32,59.79430758,,,,,,,,,,,,0.4859,1,,,,,,,,,,,,,,z,1,0.4859,,,,,,,,0.888425952,-0.150000066,0,0,0,,0,78,78,93,1,SMONE,C,old,z,./images/SMONE.png,,,,,,,,,,,,,,,,,,,,,,,,,,,,,,,,,,
,,,,,,,,,,,,,,,,,60660870280f2b522cc3214b,22,2022-02-12_12h41.26.359,lexical_decision_task_DD_L5,2021.2.3,Win32,59.79430758,,,,,,,,,,,,1.1406,1,,,,,,,,,,,,,,z,1,1.1406,,,,,,,,0.888425952,-0.150000066,0,0,0,,0,79,79,103,1,FLORT,HB,old,z,./images/FLORTHB.png,,,,,,,,,,,,,,,,,,,,,,,,,,,,,,,,,,
,,,,,,,,,,,,,,,,,60660870280f2b522cc3214b,22,2022-02-12_12h41.26.359,lexical_decision_task_DD_L5,2021.2.3,Win32,59.79430758,,,,,,,,,,,,0.5338,1,,,,,,,,,,,,,,z,1,0.5338,,,,,,,,0.888425952,-0.150000066,0,0,0,,0,80,80,108,1,GRUET,C,old,z,./images/GRUET.png,,,,,,,,,,,,,,,,,,,,,,,,,,,,,,,,,,
,,,,,,,,,,,,,,,,,60660870280f2b522cc3214b,22,2022-02-12_12h41.26.359,lexical_decision_task_DD_L5,2021.2.3,Win32,59.79430758,,,,,,,,,,,,0.5431,1,,,,,,,,,,,,,,m,1,0.5431,,,,,,,,0.888425952,-0.150000066,0,0,0,,0,81,81,17,1,PARADE,C,old,m,./images/PARADE.png,,,,,,,,,,,,,,,,,,,,,,,,,,,,,,,,,,
,,,,,,,,,,,,,,,,,60660870280f2b522cc3214b,22,2022-02-12_12h41.26.359,lexical_decision_task_DD_L5,2021.2.3,Win32,59.79430758,,,,,,,,,,,,0.6365,1,,,,,,,,,,,,,,m,1,0.6365,,,,,,,,0.888425952,-0.150000066,0,0,0,,0,82,82,19,1,DONKEY,LB,old,m,./images/DONKEYLB.png,,,,,,,,,,,,,,,,,,,,,,,,,,,,,,,,,,
,,,,,,,,,,,,,,,,,60660870280f2b522cc3214b,22,2022-02-12_12h41.26.359,lexical_decision_task_DD_L5,2021.2.3,Win32,59.79430758,,,,,,,,,,,,0.5321,1,,,,,,,,,,,,,,m,1,0.5321,,,,,,,,0.888425952,-0.150000066,0,0,0,space,0,83,83,25,1,CHALK,LB,old,m,./images/CHALKLB.png,3.1029,,,,,,,,,,,,,,,,,,,,,,,,,,,,,,,,,
,,,,,,,,,,,,,,,,,60660870280f2b522cc3214b,22,2022-02-12_12h41.26.359,lexical_decision_task_DD_L5,2021.2.3,Win32,59.79430758,,,,,,,,,,,,0.6442,1,,,,,,,,,,,,,,z,1,0.6442,,,,,,,,0.888425952,-0.150000066,0,0,0,,0,84,84,149,1,VEASE,LB,old,z,./images/VEASELB.png,,,,,,,,,,,,,,,,,,,,,,,,,,,,,,,,,,
,,,,,,,,,,,,,,,,,60660870280f2b522cc3214b,22,2022-02-12_12h41.26.359,lexical_decision_task_DD_L5,2021.2.3,Win32,59.79430758,,,,,,,,,,,,2.3276,1,,,,,,,,,,,,,,z,1,2.3276,,,,,,,,0.888425952,-0.150000066,0,0,0,,0,85,85,139,1,BLEAR,HB,old,z,./images/BLEARHB.png,,,,,,,,,,,,,,,,,,,,,,,,,,,,,,,,,,
,,,,,,,,,,,,,,,,,60660870280f2b522cc3214b,22,2022-02-12_12h41.26.359,lexical_decision_task_DD_L5,2021.2.3,Win32,59.79430758,,,,,,,,,,,,0.7137,1,,,,,,,,,,,,,,z,1,0.7137,,,,,,,,0.888425952,-0.150000066,0,0,0,,0,86,86,147,1,ZOLES,C,old,z,./images/ZOLES.png,,,,,,,,,,,,,,,,,,,,,,,,,,,,,,,,,,
,,,,,,,,,,,,,,,,,60660870280f2b522cc3214b,22,2022-02-12_12h41.26.359,lexical_decision_task_DD_L5,2021.2.3,Win32,59.79430758,,,,,,,,,,,,1.0691,1,,,,,,,,,,,,,,z,1,1.0691,,,,,,,,0.888425952,-0.150000066,0,0,0,,0,87,87,152,1,FRAIN,LB,old,z,./images/FRAINLB.png,,,,,,,,,,,,,,,,,,,,,,,,,,,,,,,,,,
,,,,,,,,,,,,,,,,,60660870280f2b522cc3214b,22,2022-02-12_12h41.26.359,lexical_decision_task_DD_L5,2021.2.3,Win32,59.79430758,,,,,,,,,,,,0.8833,1,,,,,,,,,,,,,,z,1,0.8833,,,,,,,,0.888425952,-0.150000066,0,0,0,,0,88,88,94,1,BLANS,HB,old,z,./images/BLANSHB.png,,,,,,,,,,,,,,,,,,,,,,,,,,,,,,,,,,
,,,,,,,,,,,,,,,,,60660870280f2b522cc3214b,22,2022-02-12_12h41.26.359,lexical_decision_task_DD_L5,2021.2.3,Win32,59.79430758,,,,,,,,,,,,0.752,1,,,,,,,,,,,,,,z,1,0.752,,,,,,,,0.888425952,-0.150000066,0,0,0,,0,89,89,113,1,LINEW,LB,old,z,./images/LINEWLB.png,,,,,,,,,,,,,,,,,,,,,,,,,,,,,,,,,,
,,,,,,,,,,,,,,,,,60660870280f2b522cc3214b,22,2022-02-12_12h41.26.359,lexical_decision_task_DD_L5,2021.2.3,Win32,59.79430758,,,,,,,,,,,,0.8982,1,,,,,,,,,,,,,,z,1,0.8982,,,,,,,,0.888425952,-0.150000066,0,0,0,,0,90,90,130,1,CRILL,HB,old,z,./images/CRILLHB.png,,,,,,,,,,,,,,,,,,,,,,,,,,,,,,,,,,
,,,,,,,,,,,,,,,,,60660870280f2b522cc3214b,22,2022-02-12_12h41.26.359,lexical_decision_task_DD_L5,2021.2.3,Win32,59.79430758,,,,,,,,,,,,0.5908,1,,,,,,,,,,,,,,z,1,0.5908,,,,,,,,0.888425952,-0.150000066,0,0,0,,0,91,91,101,1,GLEET,LB,old,z,./images/GLEETLB.png,,,,,,,,,,,,,,,,,,,,,,,,,,,,,,,,,,
,,,,,,,,,,,,,,,,,60660870280f2b522cc3214b,22,2022-02-12_12h41.26.359,lexical_decision_task_DD_L5,2021.2.3,Win32,59.79430758,,,,,,,,,,,,0.9988,1,,,,,,,,,,,,,,z,1,0.9988,,,,,,,,0.888425952,-0.150000066,0,0,0,,0,92,92,91,1,SHENS,HB,old,z,./images/SHENSHB.png,,,,,,,,,,,,,,,,,,,,,,,,,,,,,,,,,,
,,,,,,,,,,,,,,,,,60660870280f2b522cc3214b,22,2022-02-12_12h41.26.359,lexical_decision_task_DD_L5,2021.2.3,Win32,59.79430758,,,,,,,,,,,,0.6241,1,,,,,,,,,,,,,,m,1,0.6241,,,,,,,,0.888425952,-0.150000066,0,0,0,,0,93,93,55,1,ALLEY,LB,old,m,./images/ALLEYLB.png,,,,,,,,,,,,,,,,,,,,,,,,,,,,,,,,,,
,,,,,,,,,,,,,,,,,60660870280f2b522cc3214b,22,2022-02-12_12h41.26.359,lexical_decision_task_DD_L5,2021.2.3,Win32,59.79430758,,,,,,,,,,,,0.9343,1,,,,,,,,,,,,,,m,1,0.9343,,,,,,,,0.888425952,-0.150000066,0,0,0,,0,94,94,35,1,LLAMA,C,old,m,./images/LLAMA.png,,,,,,,,,,,,,,,,,,,,,,,,,,,,,,,,,,
,,,,,,,,,,,,,,,,,60660870280f2b522cc3214b,22,2022-02-12_12h41.26.359,lexical_decision_task_DD_L5,2021.2.3,Win32,59.79430758,,,,,,,,,,,,0.5317,1,,,,,,,,,,,,,,m,1,0.5317,,,,,,,,0.888425952,-0.150000066,0,0,0,,0,95,95,7,1,WAGON,LB,old,m,./images/WAGONLB.png,,,,,,,,,,,,,,,,,,,,,,,,,,,,,,,,,,
,,,,,,,,,,,,,,,,,60660870280f2b522cc3214b,22,2022-02-12_12h41.26.359,lexical_decision_task_DD_L5,2021.2.3,Win32,59.79430758,,,,,,,,,,,,0.5546,1,,,,,,,,,,,,,,z,1,0.5546,,,,,,,,0.888425952,-0.150000066,0,0,0,,0,96,96,162,1,LEICH,C,old,z,./images/LEICH.png,,,,,,,,,,,,,,,,,,,,,,,,,,,,,,,,,,
,,,,,,,,,,,,,,,,,60660870280f2b522cc3214b,22,2022-02-12_12h41.26.359,lexical_decision_task_DD_L5,2021.2.3,Win32,59.79430758,,,,,,,,,,,,1.0811,1,,,,,,,,,,,,,,m,1,1.0811,,,,,,,,0.888425952,-0.150000066,0,0,0,,0,97,97,82,1,PEBBLE,LB,old,m,./images/PEBBLELB.png,,,,,,,,,,,,,,,,,,,,,,,,,,,,,,,,,,
,,,,,,,,,,,,,,,,,60660870280f2b522cc3214b,22,2022-02-12_12h41.26.359,lexical_decision_task_DD_L5,2021.2.3,Win32,59.79430758,,,,,,,,,,,,1.5966,1,,,,,,,,,,,,,,z,1,1.5966,,,,,,,,0.888425952,-0.150000066,0,0,0,,0,98,98,142,1,PLASK,HB,old,z,./images/PLASKHB.png,,,,,,,,,,,,,,,,,,,,,,,,,,,,,,,,,,
,,,,,,,,,,,,,,,,,60660870280f2b522cc3214b,22,2022-02-12_12h41.26.359,lexical_decision_task_DD_L5,2021.2.3,Win32,59.79430758,,,,,,,,,,,,0.6827,1,,,,,,,,,,,,,,z,1,0.6827,,,,,,,,0.888425952,-0.150000066,0,0,0,,0,99,99,84,1,HAXES,C,old,z,./images/HAXES.png,,,,,,,,,,,,,,,,,,,,,,,,,,,,,,,,,,
,,,,,,,,,,,,,,,,,60660870280f2b522cc3214b,22,2022-02-12_12h41.26.359,lexical_decision_task_DD_L5,2021.2.3,Win32,59.79430758,,,,,,,,,,,,0.5457,1,,,,,,,,,,,,,,m,1,0.5457,,,,,,,,0.888425952,-0.150000066,0,0,0,,0,100,100,77,1,WHEEL,C,old,m,./images/WHEEL.png,,,,,,,,,,,,,,,,,,,,,,,,,,,,,,,,,,
,,,,,,,,,,,,,,,,,60660870280f2b522cc3214b,22,2022-02-12_12h41.26.359,lexical_decision_task_DD_L5,2021.2.3,Win32,59.79430758,,,,,,,,,,,,0.5397,1,,,,,,,,,,,,,,m,1,0.5397,,,,,,,,0.888425952,-0.150000066,0,0,0,,0,101,101,13,1,BUNNY,LB,old,m,./images/BUNNYLB.png,,,,,,,,,,,,,,,,,,,,,,,,,,,,,,,,,,
,,,,,,,,,,,,,,,,,60660870280f2b522cc3214b,22,2022-02-12_12h41.26.359,lexical_decision_task_DD_L5,2021.2.3,Win32,59.79430758,,,,,,,,,,,,0.694,1,,,,,,,,,,,,,,z,1,0.694,,,,,,,,0.888425952,-0.150000066,0,0,0,,0,102,102,160,1,VEETS,HB,old,z,./images/VEETSHB.png,,,,,,,,,,,,,,,,,,,,,,,,,,,,,,,,,,
,,,,,,,,,,,,,,,,,60660870280f2b522cc3214b,22,2022-02-12_12h41.26.359,lexical_decision_task_DD_L5,2021.2.3,Win32,59.79430758,,,,,,,,,,,,0.6491,1,,,,,,,,,,,,,,m,1,0.6491,,,,,,,,0.888425952,-0.150000066,0,0,0,,0,103,103,68,1,VALLEY,C,old,m,./images/VALLEY.png,,,,,,,,,,,,,,,,,,,,,,,,,,,,,,,,,,
,,,,,,,,,,,,,,,,,60660870280f2b522cc3214b,22,2022-02-12_12h41.26.359,lexical_decision_task_DD_L5,2021.2.3,Win32,59.79430758,,,,,,,,,,,,0.7531,1,,,,,,,,,,,,,,m,1,0.7531,,,,,,,,0.888425952,-0.150000066,0,0,0,,0,104,104,66,1,STATUE,HB,old,m,./images/STATUEHB.png,,,,,,,,,,,,,,,,,,,,,,,,,,,,,,,,,,
,,,,,,,,,,,,,,,,,60660870280f2b522cc3214b,22,2022-02-12_12h41.26.359,lexical_decision_task_DD_L5,2021.2.3,Win32,59.79430758,,,,,,,,,,,,0.7549,1,,,,,,,,,,,,,,m,1,0.7549,,,,,,,,0.888425952,-0.150000066,0,0,0,,0,105,105,57,1,FERRY,HB,old,m,./images/FERRYHB.png,,,,,,,,,,,,,,,,,,,,,,,,,,,,,,,,,,
,,,,,,,,,,,,,,,,,60660870280f2b522cc3214b,22,2022-02-12_12h41.26.359,lexical_decision_task_DD_L5,2021.2.3,Win32,59.79430758,,,,,,,,,,,,0.646,1,,,,,,,,,,,,,,m,1,0.646,,,,,,,,0.888425952,-0.150000066,0,0,0,,0,106,106,1,1,TOWEL,LB,old,m,./images/TOWELLB.png,,,,,,,,,,,,,,,,,,,,,,,,,,,,,,,,,,
,,,,,,,,,,,,,,,,,60660870280f2b522cc3214b,22,2022-02-12_12h41.26.359,lexical_decision_task_DD_L5,2021.2.3,Win32,59.79430758,,,,,,,,,,,,1.0177,1,,,,,,,,,,,,,,m,1,1.0177,,,,,,,,0.888425952,-0.150000066,0,0,0,,0,107,107,29,1,PISTOL,C,old,m,./images/PISTOL.png,,,,,,,,,,,,,,,,,,,,,,,,,,,,,,,,,,
,,,,,,,,,,,,,,,,,60660870280f2b522cc3214b,22,2022-02-12_12h41.26.359,lexical_decision_task_DD_L5,2021.2.3,Win32,59.79430758,,,,,,,,,,,,1.3319,1,,,,,,,,,,,,,,z,1,1.3319,,,,,,,,0.888425952,-0.150000066,0,0,0,,0,108,108,100,1,DRIBS,HB,old,z,./images/DRIBSHB.png,,,,,,,,,,,,,,,,,,,,,,,,,,,,,,,,,,
,,,,,,,,,,,,,,,,,60660870280f2b522cc3214b,22,2022-02-12_12h41.26.359,lexical_decision_task_DD_L5,2021.2.3,Win32,59.79430758,,,,,,,,,,,,0.5437,1,,,,,,,,,,,,,,m,1,0.5437,,,,,,,,0.888425952,-0.150000066,0,0,0,,0,109,109,34,1,RAZOR,LB,old,m,./images/RAZORLB.png,,,,,,,,,,,,,,,,,,,,,,,,,,,,,,,,,,
,,,,,,,,,,,,,,,,,60660870280f2b522cc3214b,22,2022-02-12_12h41.26.359,lexical_decision_task_DD_L5,2021.2.3,Win32,59.79430758,,,,,,,,,,,,0.6316,1,,,,,,,,,,,,,,z,1,0.6316,,,,,,,,0.888425952,-0.150000066,0,0,0,,0,110,110,136,1,WERVE,HB,old,z,./images/WERVEHB.png,,,,,,,,,,,,,,,,,,,,,,,,,,,,,,,,,,
,,,,,,,,,,,,,,,,,60660870280f2b522cc3214b,22,2022-02-12_12h41.26.359,lexical_decision_task_DD_L5,2021.2.3,Win32,59.79430758,,,,,,,,,,,,0.4468,1,,,,,,,,,,,,,,m,1,0.4468,,,,,,,,0.888425952,-0.150000066,0,0,0,,0,111,111,65,1,SPINE,C,old,m,./images/SPINE.png,,,,,,,,,,,,,,,,,,,,,,,,,,,,,,,,,,
,,,,,,,,,,,,,,,,,60660870280f2b522cc3214b,22,2022-02-12_12h41.26.359,lexical_decision_task_DD_L5,2021.2.3,Win32,59.79430758,,,,,,,,,,,,1.0692,1,,,,,,,,,,,,,,m,1,1.0692,,,,,,,,0.888425952,-0.150000066,0,0,0,,0,112,112,42,1,CHAIN,HB,old,m,./images/CHAINHB.png,,,,,,,,,,,,,,,,,,,,,,,,,,,,,,,,,,
,,,,,,,,,,,,,,,,,60660870280f2b522cc3214b,22,2022-02-12_12h41.26.359,lexical_decision_task_DD_L5,2021.2.3,Win32,59.79430758,,,,,,,,,,,,1.3797,1,,,,,,,,,,,,,,z,1,1.3797,,,,,,,,0.888425952,-0.150000066,0,0,0,,0,113,113,151,1,TINKY,HB,old,z,./images/TINKYHB.png,,,,,,,,,,,,,,,,,,,,,,,,,,,,,,,,,,
,,,,,,,,,,,,,,,,,60660870280f2b522cc3214b,22,2022-02-12_12h41.26.359,lexical_decision_task_DD_L5,2021.2.3,Win32,59.79430758,,,,,,,,,,,,0.7806,1,,,,,,,,,,,,,,z,1,0.7806,,,,,,,,0.888425952,-0.150000066,0,0,0,,0,114,114,88,1,GLUSH,HB,old,z,./images/GLUSHHB.png,,,,,,,,,,,,,,,,,,,,,,,,,,,,,,,,,,
,,,,,,,,,,,,,,,,,60660870280f2b522cc3214b,22,2022-02-12_12h41.26.359,lexical_decision_task_DD_L5,2021.2.3,Win32,59.79430758,,,,,,,,,,,,1.0681,1,,,,,,,,,,,,,,z,1,1.0681,,,,,,,,0.888425952,-0.150000066,0,0,0,,0,115,115,157,1,INLER,HB,old,z,./images/INLERHB.png,,,,,,,,,,,,,,,,,,,,,,,,,,,,,,,,,,
,,,,,,,,,,,,,,,,,60660870280f2b522cc3214b,22,2022-02-12_12h41.26.359,lexical_decision_task_DD_L5,2021.2.3,Win32,59.79430758,,,,,,,,,,,,0.7221,1,,,,,,,,,,,,,,z,1,0.7221,,,,,,,,0.888425952,-0.150000066,0,0,0,,0,116,116,148,1,JOMS,HB,old,z,./images/JOMSHB.png,,,,,,,,,,,,,,,,,,,,,,,,,,,,,,,,,,
,,,,,,,,,,,,,,,,,60660870280f2b522cc3214b,22,2022-02-12_12h41.26.359,lexical_decision_task_DD_L5,2021.2.3,Win32,59.79430758,,,,,,,,,,,,0.805,1,,,,,,,,,,,,,,z,1,0.805,,,,,,,,0.888425952,-0.150000066,0,0,0,,0,117,117,129,1,PRANS,C,old,z,./images/PRANS.png,,,,,,,,,,,,,,,,,,,,,,,,,,,,,,,,,,
,,,,,,,,,,,,,,,,,60660870280f2b522cc3214b,22,2022-02-12_12h41.26.359,lexical_decision_task_DD_L5,2021.2.3,Win32,59.79430758,,,,,,,,,,,,1.0452,1,,,,,,,,,,,,,,m,1,1.0452,,,,,,,,0.888425952,-0.150000066,0,0,0,,0,118,118,38,1,ENGINE,C,old,m,./images/ENGINE.png,,,,,,,,,,,,,,,,,,,,,,,,,,,,,,,,,,
,,,,,,,,,,,,,,,,,60660870280f2b522cc3214b,22,2022-02-12_12h41.26.359,lexical_decision_task_DD_L5,2021.2.3,Win32,59.79430758,,,,,,,,,,,,0.6025,1,,,,,,,,,,,,,,m,1,0.6025,,,,,,,,0.888425952,-0.150000066,0,0,0,,0,119,119,44,1,BASKET,C,old,m,./images/BASKET.png,,,,,,,,,,,,,,,,,,,,,,,,,,,,,,,,,,
,,,,,,,,,,,,,,,,,60660870280f2b522cc3214b,22,2022-02-12_12h41.26.359,lexical_decision_task_DD_L5,2021.2.3,Win32,59.79430758,,,,,,,,,,,,0.7881,1,,,,,,,,,,,,,,m,1,0.7881,,,,,,,,0.888425952,-0.150000066,0,0,0,,0,120,120,8,1,CLIFF,C,old,m,./images/CLIFF.png,,,,,,,,,,,,,,,,,,,,,,,,,,,,,,,,,,
,,,,,,,,,,,,,,,,,60660870280f2b522cc3214b,22,2022-02-12_12h41.26.359,lexical_decision_task_DD_L5,2021.2.3,Win32,59.79430758,,,,,,,,,,,,1.4311,1,,,,,,,,,,,,,,m,1,1.4311,,,,,,,,0.888425952,-0.150000066,0,0,0,,0,121,121,9,1,DIVER,HB,old,m,./images/DIVERHB.png,,,,,,,,,,,,,,,,,,,,,,,,,,,,,,,,,,
,,,,,,,,,,,,,,,,,60660870280f2b522cc3214b,22,2022-02-12_12h41.26.359,lexical_decision_task_DD_L5,2021.2.3,Win32,59.79430758,,,,,,,,,,,,0.7971,1,,,,,,,,,,,,,,z,1,0.7971,,,,,,,,0.888425952,-0.150000066,0,0,0,,0,122,122,106,1,CLUMS,HB,old,z,./images/CLUMSHB.png,,,,,,,,,,,,,,,,,,,,,,,,,,,,,,,,,,
,,,,,,,,,,,,,,,,,60660870280f2b522cc3214b,22,2022-02-12_12h41.26.359,lexical_decision_task_DD_L5,2021.2.3,Win32,59.79430758,,,,,,,,,,,,1.9003,1,,,,,,,,,,,,,,m,1,1.9003,,,,,,,,0.888425952,-0.150000066,0,0,0,,0,123,123,36,1,BOILER,HB,old,m,./images/BOILERHB.png,,,,,,,,,,,,,,,,,,,,,,,,,,,,,,,,,,
,,,,,,,,,,,,,,,,,60660870280f2b522cc3214b,22,2022-02-12_12h41.26.359,lexical_decision_task_DD_L5,2021.2.3,Win32,59.79430758,,,,,,,,,,,,0.5783,1,,,,,,,,,,,,,,m,1,0.5783,,,,,,,,0.888425952,-0.150000066,0,0,0,,0,124,124,79,1,RULER,LB,old,m,./images/RULERLB.png,,,,,,,,,,,,,,,,,,,,,,,,,,,,,,,,,,
,,,,,,,,,,,,,,,,,60660870280f2b522cc3214b,22,2022-02-12_12h41.26.359,lexical_decision_task_DD_L5,2021.2.3,Win32,59.79430758,,,,,,,,,,,,0.5701,1,,,,,,,,,,,,,,z,1,0.5701,,,,,,,,0.888425952,-0.150000066,0,0,0,space,0,125,125,92,1,PAIMS,LB,old,z,./images/PAIMSLB.png,5.5408,,,,,,,,,,,,,,,,,,,,,,,,,,,,,,,,,
,,,,,,,,,,,,,,,,,60660870280f2b522cc3214b,22,2022-02-12_12h41.26.359,lexical_decision_task_DD_L5,2021.2.3,Win32,59.79430758,,,,,,,,,,,,0.6455,1,,,,,,,,,,,,,,z,1,0.6455,,,,,,,,0.888425952,-0.150000066,0,0,0,,0,126,126,150,1,NOOLS,C,old,z,./images/NOOLS.png,,,,,,,,,,,,,,,,,,,,,,,,,,,,,,,,,,
,,,,,,,,,,,,,,,,,60660870280f2b522cc3214b,22,2022-02-12_12h41.26.359,lexical_decision_task_DD_L5,2021.2.3,Win32,59.79430758,,,,,,,,,,,,1.0193,1,,,,,,,,,,,,,,z,1,1.0193,,,,,,,,0.888425952,-0.150000066,0,0,0,,0,127,127,118,1,BAVEL,HB,old,z,./images/BAVELHB.png,,,,,,,,,,,,,,,,,,,,,,,,,,,,,,,,,,
,,,,,,,,,,,,,,,,,60660870280f2b522cc3214b,22,2022-02-12_12h41.26.359,lexical_decision_task_DD_L5,2021.2.3,Win32,59.79430758,,,,,,,,,,,,0.6942,1,,,,,,,,,,,,,,m,1,0.6942,,,,,,,,0.888425952,-0.150000066,0,0,0,,0,128,128,73,1,GLOVE,LB,old,m,./images/GLOVELB.png,,,,,,,,,,,,,,,,,,,,,,,,,,,,,,,,,,
,,,,,,,,,,,,,,,,,60660870280f2b522cc3214b,22,2022-02-12_12h41.26.359,lexical_decision_task_DD_L5,2021.2.3,Win32,59.79430758,,,,,,,,,,,,0.7129,1,,,,,,,,,,,,,,z,1,0.7129,,,,,,,,0.888425952,-0.150000066,0,0,0,,0,129,129,85,1,CHULK,HB,old,z,./images/CHULKHB.png,,,,,,,,,,,,,,,,,,,,,,,,,,,,,,,,,,
,,,,,,,,,,,,,,,,,60660870280f2b522cc3214b,22,2022-02-12_12h41.26.359,lexical_decision_task_DD_L5,2021.2.3,Win32,59.79430758,,,,,,,,,,,,1.3554,1,,,,,,,,,,,,,,m,1,1.3554,,,,,,,,0.888425952,-0.150000066,0,0,0,,0,130,130,75,1,HAMMER,HB,old,m,./images/HAMMERHB.png,,,,,,,,,,,,,,,,,,,,,,,,,,,,,,,,,,
,,,,,,,,,,,,,,,,,60660870280f2b522cc3214b,22,2022-02-12_12h41.26.359,lexical_decision_task_DD_L5,2021.2.3,Win32,59.79430758,,,,,,,,,,,,0.6299,1,,,,,,,,,,,,,,m,1,0.6299,,,,,,,,0.888425952,-0.150000066,0,0,0,,0,131,131,49,1,BISHOP,LB,old,m,./images/BISHOPLB.png,,,,,,,,,,,,,,,,,,,,,,,,,,,,,,,,,,
,,,,,,,,,,,,,,,,,60660870280f2b522cc3214b,22,2022-02-12_12h41.26.359,lexical_decision_task_DD_L5,2021.2.3,Win32,59.79430758,,,,,,,,,,,,0.7,1,,,,,,,,,,,,,,z,1,0.7,,,,,,,,0.888425952,-0.150000066,0,0,0,,0,132,132,109,1,BURGE,HB,old,z,./images/BURGEHB.png,,,,,,,,,,,,,,,,,,,,,,,,,,,,,,,,,,
,,,,,,,,,,,,,,,,,60660870280f2b522cc3214b,22,2022-02-12_12h41.26.359,lexical_decision_task_DD_L5,2021.2.3,Win32,59.79430758,,,,,,,,,,,,0.6568,1,,,,,,,,,,,,,,m,1,0.6568,,,,,,,,0.888425952,-0.150000066,0,0,0,,0,133,133,22,1,CLOWN,LB,old,m,./images/CLOWNLB.png,,,,,,,,,,,,,,,,,,,,,,,,,,,,,,,,,,
,,,,,,,,,,,,,,,,,60660870280f2b522cc3214b,22,2022-02-12_12h41.26.359,lexical_decision_task_DD_L5,2021.2.3,Win32,59.79430758,,,,,,,,,,,,1.0159,1,,,,,,,,,,,,,,z,1,1.0159,,,,,,,,0.888425952,-0.150000066,0,0,0,,0,134,134,104,1,GITTY,LB,old,z,./images/GITTYLB.png,,,,,,,,,,,,,,,,,,,,,,,,,,,,,,,,,,
,,,,,,,,,,,,,,,,,60660870280f2b522cc3214b,22,2022-02-12_12h41.26.359,lexical_decision_task_DD_L5,2021.2.3,Win32,59.79430758,,,,,,,,,,,,0.7024,1,,,,,,,,,,,,,,m,1,0.7024,,,,,,,,0.888425952,-0.150000066,0,0,0,,0,135,135,54,1,CHERRY,HB,old,m,./images/CHERRYHB.png,,,,,,,,,,,,,,,,,,,,,,,,,,,,,,,,,,
,,,,,,,,,,,,,,,,,60660870280f2b522cc3214b,22,2022-02-12_12h41.26.359,lexical_decision_task_DD_L5,2021.2.3,Win32,59.79430758,,,,,,,,,,,,0.7392,1,,,,,,,,,,,,,,m,1,0.7392,,,,,,,,0.888425952,-0.150000066,0,0,0,,0,136,136,52,1,DESERT,LB,old,m,./images/DESERTLB.png,,,,,,,,,,,,,,,,,,,,,,,,,,,,,,,,,,
,,,,,,,,,,,,,,,,,60660870280f2b522cc3214b,22,2022-02-12_12h41.26.359,lexical_decision_task_DD_L5,2021.2.3,Win32,59.79430758,,,,,,,,,,,,0.8691,1,,,,,,,,,,,,,,m,1,0.8691,,,,,,,,0.888425952,-0.150000066,0,0,0,,0,137,137,51,1,SAUCE,HB,old,m,./images/SAUCEHB.png,,,,,,,,,,,,,,,,,,,,,,,,,,,,,,,,,,
,,,,,,,,,,,,,,,,,60660870280f2b522cc3214b,22,2022-02-12_12h41.26.359,lexical_decision_task_DD_L5,2021.2.3,Win32,59.79430758,,,,,,,,,,,,0.6448,1,,,,,,,,,,,,,,m,1,0.6448,,,,,,,,0.888425952,-0.150000066,0,0,0,,0,138,138,70,1,BANANA,LB,old,m,./images/BANANALB.png,,,,,,,,,,,,,,,,,,,,,,,,,,,,,,,,,,
,,,,,,,,,,,,,,,,,60660870280f2b522cc3214b,22,2022-02-12_12h41.26.359,lexical_decision_task_DD_L5,2021.2.3,Win32,59.79430758,,,,,,,,,,,,0.5996,1,,,,,,,,,,,,,,z,1,0.5996,,,,,,,,0.888425952,-0.150000066,0,0,0,,0,139,139,90,1,NEAST,C,old,z,./images/NEAST.png,,,,,,,,,,,,,,,,,,,,,,,,,,,,,,,,,,
,,,,,,,,,,,,,,,,,60660870280f2b522cc3214b,22,2022-02-12_12h41.26.359,lexical_decision_task_DD_L5,2021.2.3,Win32,59.79430758,,,,,,,,,,,,0.8815,1,,,,,,,,,,,,,,m,1,0.8815,,,,,,,,0.888425952,-0.150000066,0,0,0,,0,140,140,63,1,BAKER,HB,old,m,./images/BAKERHB.png,,,,,,,,,,,,,,,,,,,,,,,,,,,,,,,,,,
,,,,,,,,,,,,,,,,,60660870280f2b522cc3214b,22,2022-02-12_12h41.26.359,lexical_decision_task_DD_L5,2021.2.3,Win32,59.79430758,,,,,,,,,,,,1.0543,1,,,,,,,,,,,,,,z,1,1.0543,,,,,,,,0.888425952,-0.150000066,0,0,0,,0,141,141,166,1,SHORY,HB,old,z,./images/SHORYHB.png,,,,,,,,,,,,,,,,,,,,,,,,,,,,,,,,,,
,,,,,,,,,,,,,,,,,60660870280f2b522cc3214b,22,2022-02-12_12h41.26.359,lexical_decision_task_DD_L5,2021.2.3,Win32,59.79430758,,,,,,,,,,,,0.5952,1,,,,,,,,,,,,,,z,1,0.5952,,,,,,,,0.888425952,-0.150000066,0,0,0,,0,142,142,144,1,NAIRY,C,old,z,./images/NAIRY.png,,,,,,,,,,,,,,,,,,,,,,,,,,,,,,,,,,
,,,,,,,,,,,,,,,,,60660870280f2b522cc3214b,22,2022-02-12_12h41.26.359,lexical_decision_task_DD_L5,2021.2.3,Win32,59.79430758,,,,,,,,,,,,0.5567,1,,,,,,,,,,,,,,z,1,0.5567,,,,,,,,0.888425952,-0.150000066,0,0,0,,0,143,143,143,1,MONGS,LB,old,z,./images/MONGSLB.png,,,,,,,,,,,,,,,,,,,,,,,,,,,,,,,,,,
,,,,,,,,,,,,,,,,,60660870280f2b522cc3214b,22,2022-02-12_12h41.26.359,lexical_decision_task_DD_L5,2021.2.3,Win32,59.79430758,,,,,,,,,,,,0.7456,1,,,,,,,,,,,,,,z,1,0.7456,,,,,,,,0.888425952,-0.150000066,0,0,0,,0,144,144,134,1,TROSS,LB,old,z,./images/TROSSLB.png,,,,,,,,,,,,,,,,,,,,,,,,,,,,,,,,,,
,,,,,,,,,,,,,,,,,60660870280f2b522cc3214b,22,2022-02-12_12h41.26.359,lexical_decision_task_DD_L5,2021.2.3,Win32,59.79430758,,,,,,,,,,,,0.7141,0,,,,,,,,,,,,,,z,0,0.7141,,,,,,,,0.888425952,-0.150000066,0,0,0,,0,145,145,58,1,CANOE,LB,old,m,./images/CANOELB.png,,,,,,,,,,,,,,,,,,,,,,,,,,,,,,,,,,
,,,,,,,,,,,,,,,,,60660870280f2b522cc3214b,22,2022-02-12_12h41.26.359,lexical_decision_task_DD_L5,2021.2.3,Win32,59.79430758,,,,,,,,,,,,1.1962,1,,,,,,,,,,,,,,m,1,1.1962,,,,,,,,0.888425952,-0.150000066,0,0,0,,0,146,146,62,1,MAMMAL,C,old,m,./images/MAMMAL.png,,,,,,,,,,,,,,,,,,,,,,,,,,,,,,,,,,
,,,,,,,,,,,,,,,,,60660870280f2b522cc3214b,22,2022-02-12_12h41.26.359,lexical_decision_task_DD_L5,2021.2.3,Win32,59.79430758,,,,,,,,,,,,0.5884,1,,,,,,,,,,,,,,z,1,0.5884,,,,,,,,0.888425952,-0.150000066,0,0,0,,0,147,147,107,1,FASKS,LB,old,z,./images/FASKSLB.png,,,,,,,,,,,,,,,,,,,,,,,,,,,,,,,,,,
,,,,,,,,,,,,,,,,,60660870280f2b522cc3214b,22,2022-02-12_12h41.26.359,lexical_decision_task_DD_L5,2021.2.3,Win32,59.79430758,,,,,,,,,,,,0.5495,1,,,,,,,,,,,,,,m,1,0.5495,,,,,,,,0.888425952,-0.150000066,0,0,0,,0,148,148,23,1,CLOTH,C,old,m,./images/CLOTH.png,,,,,,,,,,,,,,,,,,,,,,,,,,,,,,,,,,
,,,,,,,,,,,,,,,,,60660870280f2b522cc3214b,22,2022-02-12_12h41.26.359,lexical_decision_task_DD_L5,2021.2.3,Win32,59.79430758,,,,,,,,,,,,0.689,1,,,,,,,,,,,,,,m,1,0.689,,,,,,,,0.888425952,-0.150000066,0,0,0,,0,149,149,69,1,ARROW,HB,old,m,./images/ARROWHB.png,,,,,,,,,,,,,,,,,,,,,,,,,,,,,,,,,,
,,,,,,,,,,,,,,,,,60660870280f2b522cc3214b,22,2022-02-12_12h41.26.359,lexical_decision_task_DD_L5,2021.2.3,Win32,59.79430758,,,,,,,,,,,,0.5169,1,,,,,,,,,,,,,,m,1,0.5169,,,,,,,,0.888425952,-0.150000066,0,0,0,,0,150,150,61,1,ARTIST,LB,old,m,./images/ARTISTLB.png,,,,,,,,,,,,,,,,,,,,,,,,,,,,,,,,,,
,,,,,,,,,,,,,,,,,60660870280f2b522cc3214b,22,2022-02-12_12h41.26.359,lexical_decision_task_DD_L5,2021.2.3,Win32,59.79430758,,,,,,,,,,,,1.0111,1,,,,,,,,,,,,,,z,1,1.0111,,,,,,,,0.888425952,-0.150000066,0,0,0,,0,151,151,133,1,POWDY,HB,old,z,./images/POWDYHB.png,,,,,,,,,,,,,,,,,,,,,,,,,,,,,,,,,,
,,,,,,,,,,,,,,,,,60660870280f2b522cc3214b,22,2022-02-12_12h41.26.359,lexical_decision_task_DD_L5,2021.2.3,Win32,59.79430758,,,,,,,,,,,,0.5512,1,,,,,,,,,,,,,,z,1,0.5512,,,,,,,,0.888425952,-0.150000066,0,0,0,,0,152,152,102,1,DULLE,C,old,z,./images/DULLE.png,,,,,,,,,,,,,,,,,,,,,,,,,,,,,,,,,,
,,,,,,,,,,,,,,,,,60660870280f2b522cc3214b,22,2022-02-12_12h41.26.359,lexical_decision_task_DD_L5,2021.2.3,Win32,59.79430758,,,,,,,,,,,,0.5294,1,,,,,,,,,,,,,,m,1,0.5294,,,,,,,,0.888425952,-0.150000066,0,0,0,,0,153,153,26,1,CLOUD,C,old,m,./images/CLOUD.png,,,,,,,,,,,,,,,,,,,,,,,,,,,,,,,,,,
,,,,,,,,,,,,,,,,,60660870280f2b522cc3214b,22,2022-02-12_12h41.26.359,lexical_decision_task_DD_L5,2021.2.3,Win32,59.79430758,,,,,,,,,,,,0.6691,1,,,,,,,,,,,,,,m,1,0.6691,,,,,,,,0.888425952,-0.150000066,0,0,0,,0,154,154,30,1,SLOPE,HB,old,m,./images/SLOPEHB.png,,,,,,,,,,,,,,,,,,,,,,,,,,,,,,,,,,
,,,,,,,,,,,,,,,,,60660870280f2b522cc3214b,22,2022-02-12_12h41.26.359,lexical_decision_task_DD_L5,2021.2.3,Win32,59.79430758,,,,,,,,,,,,0.7869,1,,,,,,,,,,,,,,m,1,0.7869,,,,,,,,0.888425952,-0.150000066,0,0,0,,0,155,155,33,1,SAUNA,HB,old,m,./images/SAUNAHB.png,,,,,,,,,,,,,,,,,,,,,,,,,,,,,,,,,,
,,,,,,,,,,,,,,,,,60660870280f2b522cc3214b,22,2022-02-12_12h41.26.359,lexical_decision_task_DD_L5,2021.2.3,Win32,59.79430758,,,,,,,,,,,,0.7558,1,,,,,,,,,,,,,,z,1,0.7558,,,,,,,,0.888425952,-0.150000066,0,0,0,,0,156,156,128,1,GRIFT,LB,old,z,./images/GRIFTLB.png,,,,,,,,,,,,,,,,,,,,,,,,,,,,,,,,,,
,,,,,,,,,,,,,,,,,60660870280f2b522cc3214b,22,2022-02-12_12h41.26.359,lexical_decision_task_DD_L5,2021.2.3,Win32,59.79430758,,,,,,,,,,,,0.5813,1,,,,,,,,,,,,,,m,1,0.5813,,,,,,,,0.888425952,-0.150000066,0,0,0,,0,157,157,41,1,STREAM,C,old,m,./images/STREAM.png,,,,,,,,,,,,,,,,,,,,,,,,,,,,,,,,,,
,,,,,,,,,,,,,,,,,60660870280f2b522cc3214b,22,2022-02-12_12h41.26.359,lexical_decision_task_DD_L5,2021.2.3,Win32,59.79430758,,,,,,,,,,,,0.6387,1,,,,,,,,,,,,,,z,1,0.6387,,,,,,,,0.888425952,-0.150000066,0,0,0,,0,158,158,164,1,SGREW,LB,old,z,./images/SGREWLB.png,,,,,,,,,,,,,,,,,,,,,,,,,,,,,,,,,,
,,,,,,,,,,,,,,,,,60660870280f2b522cc3214b,22,2022-02-12_12h41.26.359,lexical_decision_task_DD_L5,2021.2.3,Win32,59.79430758,,,,,,,,,,,,1.3175,1,,,,,,,,,,,,,,m,1,1.3175,,,,,,,,0.888425952,-0.150000066,0,0,0,,0,159,159,81,1,DRILL,HB,old,m,./images/DRILLHB.png,,,,,,,,,,,,,,,,,,,,,,,,,,,,,,,,,,
,,,,,,,,,,,,,,,,,60660870280f2b522cc3214b,22,2022-02-12_12h41.26.359,lexical_decision_task_DD_L5,2021.2.3,Win32,59.79430758,,,,,,,,,,,,0.6553,1,,,,,,,,,,,,,,z,1,0.6553,,,,,,,,0.888425952,-0.150000066,0,0,0,,0,160,160,123,1,SEDGE,C,old,z,./images/SEDGE.png,,,,,,,,,,,,,,,,,,,,,,,,,,,,,,,,,,
,,,,,,,,,,,,,,,,,60660870280f2b522cc3214b,22,2022-02-12_12h41.26.359,lexical_decision_task_DD_L5,2021.2.3,Win32,59.79430758,,,,,,,,,,,,0.8552,1,,,,,,,,,,,,,,m,1,0.8552,,,,,,,,0.888425952,-0.150000066,0,0,0,,0,161,161,31,1,STEAK,LB,old,m,./images/STEAKLB.png,,,,,,,,,,,,,,,,,,,,,,,,,,,,,,,,,,
,,,,,,,,,,,,,,,,,60660870280f2b522cc3214b,22,2022-02-12_12h41.26.359,lexical_decision_task_DD_L5,2021.2.3,Win32,59.79430758,,,,,,,,,,,,0.5513,1,,,,,,,,,,,,,,m,1,0.5513,,,,,,,,0.888425952,-0.150000066,0,0,0,,0,162,162,43,1,STOOL,LB,old,m,./images/STOOLLB.png,,,,,,,,,,,,,,,,,,,,,,,,,,,,,,,,,,
,,,,,,,,,,,,,,,,,60660870280f2b522cc3214b,22,2022-02-12_12h41.26.359,lexical_decision_task_DD_L5,2021.2.3,Win32,59.79430758,,,,,,,,,,,,1.8393,1,,,,,,,,,,,,,,m,1,1.8393,,,,,,,,0.888425952,-0.150000066,0,0,0,,0,163,163,50,1,PILOT,C,old,m,./images/PILOT.png,,,,,,,,,,,,,,,,,,,,,,,,,,,,,,,,,,
,,,,,,,,,,,,,,,,,60660870280f2b522cc3214b,22,2022-02-12_12h41.26.359,lexical_decision_task_DD_L5,2021.2.3,Win32,59.79430758,,,,,,,,,,,,0.5501,1,,,,,,,,,,,,,,z,1,0.5501,,,,,,,,0.888425952,-0.150000066,0,0,0,,0,164,164,117,1,STEEG,C,old,z,./images/STEEG.png,,,,,,,,,,,,,,,,,,,,,,,,,,,,,,,,,,
,,,,,,,,,,,,,,,,,60660870280f2b522cc3214b,22,2022-02-12_12h41.26.359,lexical_decision_task_DD_L5,2021.2.3,Win32,59.79430758,,,,,,,,,,,,0.6762,1,,,,,,,,,,,,,,z,1,0.6762,,,,,,,,0.888425952,-0.150000066,0,0,0,,0,165,165,138,1,PLICE,C,old,z,./images/PLICE.png,,,,,,,,,,,,,,,,,,,,,,,,,,,,,,,,,,
,,,,,,,,,,,,,,,,,60660870280f2b522cc3214b,22,2022-02-12_12h41.26.359,lexical_decision_task_DD_L5,2021.2.3,Win32,59.79430758,,,,,,,,,,,,0.7113,1,,,,,,,,,,,,,,m,1,0.7113,,,,,,,,0.888425952,-0.150000066,0,0,0,,0,166,166,48,1,SHIELD,HB,old,m,./images/SHIELDHB.png,,,,,,,,,,,,,,,,,,,,,,,,,,,,,,,,,,
,,,,,,,,,,,,,,,,,60660870280f2b522cc3214b,22,2022-02-12_12h41.26.359,lexical_decision_task_DD_L5,2021.2.3,Win32,59.79430758,,,,,,,,,,,,0.5683,1,,,,,,,,,,,,,,m,1,0.5683,,,,,,,,0.888425952,-0.150000066,0,0,0,,0,167,167,32,1,HOCKEY,C,old,m,./images/HOCKEY.png,,,,,,,,,,,,,,,,,,,,,,,,,,,,,,,,,,
,,,,,,,,,,,,,,,,,60660870280f2b522cc3214b,22,2022-02-12_12h41.26.359,lexical_decision_task_DD_L5,2021.2.3,Win32,59.79430758,,,,,,,,,,,,,,,,,,,,,,,,,,,,,,,,,,,,,,,,,,,,,,,,,How likely will it be that you will recognize the words presented very blurred on a scale of 0 (not likely) to 100 (most likely)?,,,,,0.000462976,-0.407870384,1,0,0,jol_adv,2,10.2178,0,0,0,2,1,,,,,,,,,,,,,,,,,,,,
,,,,,,,,,,,,,,,,,60660870280f2b522cc3214b,22,2022-02-12_12h41.26.359,lexical_decision_task_DD_L5,2021.2.3,Win32,59.79430758,,,,,,,,,,,,,,,,,,,,,,,,,,,,,,,,,,,,,,,,,,,,,,,,,How likely will it be that you will recognize the words presented clearly on a scale of 0 (not likely) to 100 (most likely)?,,,,,,,,,,,6,4.8168,0,1,1,0,1,,,,,,,,,,,,,,,,,,,,
,,,,,,,,,,,,,,,,,60660870280f2b522cc3214b,22,2022-02-12_12h41.26.359,lexical_decision_task_DD_L5,2021.2.3,Win32,59.79430758,,,,,,,,,,,,,,,,,,,,,,,,,,,,,,,,,,,,,,,,,,,,,,,,,How likely will it be that you will recognize the words presented slighly blurred on a scale of 0 (not likely) to 100 (most likely)?,,,,,,,,,,,5,5.2385,0,2,2,1,1,,,,,,,,,,,,,,,,,,,,
space,0.246759276,-0.217129697,0,0,0,,,,,,,1,test,"In the next phase you will be presented with the words from the the first phase. Your job is to decide whether you remember seeing the word or not. If you remember seeing the word press ""old"" or type ""m"". If you do not remember seeing the word press ""new"" or type ""z"". Please press the space bar or click on continue to begin. ",,,60660870280f2b522cc3214b,22,2022-02-12_12h41.26.359,lexical_decision_task_DD_L5,2021.2.3,Win32,59.79430758,16.3638,,,,,,,,,,,,,,,,,,,,,,,,,,,,,,,,,,,,,,,,,,,,,,,,,,,,,,,,,,,,,,,,,,0,0,0,0,1,,,,,,,,,,,,,,,
,0.126851867,-0.383333346,1,0,0,instr_done_button,,,,,,1,test,"In the next phase you will be presented with the words from the the first phase. Your job is to decide whether you remember seeing the word or not. If you remember seeing the word press ""old"" or type ""m"". If you do not remember seeing the word press ""new"" or type ""z"". Please press the space bar or click on continue to begin. ",,,60660870280f2b522cc3214b,22,2022-02-12_12h41.26.359,lexical_decision_task_DD_L5,2021.2.3,Win32,59.79430758,,,,,,,,,,,,,,,,,,,,,,,,,,,,,,,,,,,,,,,,,,,,,,,,,,,,,,,,,,,,,,,,,,,1,0,1,0,1,,,,,,,,,,,,,,,
,0.073148162,-0.4046297,1,0,0,instr_done_button,,,,,,1,test,"In the next phase you will be presented with the words from the the first phase. Your job is to decide whether you remember seeing the word or not. If you remember seeing the word press ""old"" or type ""m"". If you do not remember seeing the word press ""new"" or type ""z"". Please press the space bar or click on continue to begin. ",,,60660870280f2b522cc3214b,22,2022-02-12_12h41.26.359,lexical_decision_task_DD_L5,2021.2.3,Win32,59.79430758,,,,,,,,,,,,,,,,,,,,,,,,,,,,,,,,,,,,,,,,,,,,,,,,,,,,,,,,,,,,,,,,,,,2,0,2,0,1,,,,,,,,,,,,,,,
space,0.523611132,-0.179166677,0,0,0,,,,,,,1,test,"In the next phase you will be presented with the words from the the first phase. Your job is to decide whether you remember seeing the word or not. If you remember seeing the word press ""old"" or type ""m"". If you do not remember seeing the word press ""new"" or type ""z"". Please press the space bar or click on continue to begin. ",,,60660870280f2b522cc3214b,22,2022-02-12_12h41.26.359,lexical_decision_task_DD_L5,2021.2.3,Win32,59.79430758,6.5268,,,,,,,,,,,,,,,,,,,,,,,,,,,,,,,,,,,,,,,,,,,,,,,,,,,,,,,,,,,,,,,,,,3,0,3,0,1,,,,,,,,,,,,,,,
space,0.523611132,-0.179166677,0,0,0,,,,,,,1,test,"In the next phase you will be presented with the words from the the first phase. Your job is to decide whether you remember seeing the word or not. If you remember seeing the word press ""old"" or type ""m"". If you do not remember seeing the word press ""new"" or type ""z"". Please press the space bar or click on continue to begin. ",,,60660870280f2b522cc3214b,22,2022-02-12_12h41.26.359,lexical_decision_task_DD_L5,2021.2.3,Win32,59.79430758,0.5339,,,,,,,,,,,,,,,,,,,,,,,,,,,,,,,,,,,,,,,,,,,,,,,,,,,,,,,,,,,,,,,,,,4,0,4,0,1,,,,,,,,,,,,,,,
,,,,,,,,,,,,,,,,,60660870280f2b522cc3214b,22,2022-02-12_12h41.26.359,lexical_decision_task_DD_L5,2021.2.3,Win32,59.79430758,,,,,,,,,,,,2.0838,1,,,,,,,,,,,,,,,,,,,,,,,,0.523611132,-0.179166677,0,0,0,,,,,,,BERRY,C,z,y,./images/BERRY.png,,,,,,,,,,,,,,,,,,,,z,1,2.0838,,,,,,,,0,0,0,131,1
,,,,,,,,,,,,,,,,,60660870280f2b522cc3214b,22,2022-02-12_12h41.26.359,lexical_decision_task_DD_L5,2021.2.3,Win32,59.79430758,,,,,,,,,,,,1.1674,1,,,,,,,,,,,,,,,,,,,,,,,,0.523611132,-0.179166677,0,0,0,,,,,,,SPORT,HB,z,y,./images/SPORTHB.png,,,,,,,,,,,,,,,,,,,,z,1,1.1674,,,,,,,,0,1,1,132,1
,,,,,,,,,,,,,,,,,60660870280f2b522cc3214b,22,2022-02-12_12h41.26.359,lexical_decision_task_DD_L5,2021.2.3,Win32,59.79430758,,,,,,,,,,,,1.4692,1,,,,,,,,,,,,,,,,,,,,,,,,0.523611132,-0.179166677,0,0,0,,,,,,,ATTIC,HB,z,y,./images/ATTICHB.png,,,,,,,,,,,,,,,,,,,,z,1,1.4692,,,,,,,,0,2,2,111,1
,,,,,,,,,,,,,,,,,60660870280f2b522cc3214b,22,2022-02-12_12h41.26.359,lexical_decision_task_DD_L5,2021.2.3,Win32,59.79430758,,,,,,,,,,,,1.5231,1,,,,,,,,,,,,,,,,,,,,,,,,0.523611132,-0.179166677,0,0,0,,,,,,,SAUNA,HB,m,y,./images/SAUNAHB.png,,,,,,,,,,,,,,,,,,,,m,1,1.5231,,,,,,,,0,3,3,33,1
,,,,,,,,,,,,,,,,,60660870280f2b522cc3214b,22,2022-02-12_12h41.26.359,lexical_decision_task_DD_L5,2021.2.3,Win32,59.79430758,,,,,,,,,,,,1.4929,1,,,,,,,,,,,,,,,,,,,,,,,,0.523611132,-0.179166677,0,0,0,,,,,,,MALLET,C,z,y,./images/MALLET.png,,,,,,,,,,,,,,,,,,,,z,1,1.4929,,,,,,,,0,4,4,134,1
,,,,,,,,,,,,,,,,,60660870280f2b522cc3214b,22,2022-02-12_12h41.26.359,lexical_decision_task_DD_L5,2021.2.3,Win32,59.79430758,,,,,,,,,,,,1.0672,1,,,,,,,,,,,,,,,,,,,,,,,,0.523611132,-0.179166677,0,0,0,,,,,,,MELON,LB,z,y,./images/MELONLB.png,,,,,,,,,,,,,,,,,,,,z,1,1.0672,,,,,,,,0,5,5,106,1
,,,,,,,,,,,,,,,,,60660870280f2b522cc3214b,22,2022-02-12_12h41.26.359,lexical_decision_task_DD_L5,2021.2.3,Win32,59.79430758,,,,,,,,,,,,0.8346,1,,,,,,,,,,,,,,,,,,,,,,,,0.523611132,-0.179166677,0,0,0,,,,,,,ARTIST,LB,m,y,./images/ARTISTLB.png,,,,,,,,,,,,,,,,,,,,m,1,0.8346,,,,,,,,0,6,6,61,1
,,,,,,,,,,,,,,,,,60660870280f2b522cc3214b,22,2022-02-12_12h41.26.359,lexical_decision_task_DD_L5,2021.2.3,Win32,59.79430758,,,,,,,,,,,,0.893,1,,,,,,,,,,,,,,,,,,,,,,,,0.523611132,-0.179166677,0,0,0,,,,,,,MONKEY,HB,m,y,./images/MONKEYHB.png,,,,,,,,,,,,,,,,,,,,m,1,0.893,,,,,,,,0,7,7,45,1
,,,,,,,,,,,,,,,,,60660870280f2b522cc3214b,22,2022-02-12_12h41.26.359,lexical_decision_task_DD_L5,2021.2.3,Win32,59.79430758,,,,,,,,,,,,0.7772,1,,,,,,,,,,,,,,,,,,,,,,,,0.523611132,-0.179166677,0,0,0,,,,,,,PARADE,C,m,y,./images/PARADE.png,,,,,,,,,,,,,,,,,,,,m,1,0.7772,,,,,,,,0,8,8,17,1
,,,,,,,,,,,,,,,,,60660870280f2b522cc3214b,22,2022-02-12_12h41.26.359,lexical_decision_task_DD_L5,2021.2.3,Win32,59.79430758,,,,,,,,,,,,0.7666,0,,,,,,,,,,,,,,,,,,,,,,,,0.523611132,-0.179166677,0,0,0,,,,,,,ENGINE,C,m,y,./images/ENGINE.png,,,,,,,,,,,,,,,,,,,,z,0,0.7666,,,,,,,,0,9,9,38,1
,,,,,,,,,,,,,,,,,60660870280f2b522cc3214b,22,2022-02-12_12h41.26.359,lexical_decision_task_DD_L5,2021.2.3,Win32,59.79430758,,,,,,,,,,,,0.8503,1,,,,,,,,,,,,,,,,,,,,,,,,0.523611132,-0.179166677,0,0,0,,,,,,,MAGGOT,HB,z,y,./images/MAGGOTHB.png,,,,,,,,,,,,,,,,,,,,z,1,0.8503,,,,,,,,0,10,10,117,1
,,,,,,,,,,,,,,,,,60660870280f2b522cc3214b,22,2022-02-12_12h41.26.359,lexical_decision_task_DD_L5,2021.2.3,Win32,59.79430758,,,,,,,,,,,,0.6841,1,,,,,,,,,,,,,,,,,,,,,,,,0.523611132,-0.179166677,0,0,0,,,,,,,KIDNEY,HB,z,y,./images/KIDNEYHB.png,,,,,,,,,,,,,,,,,,,,z,1,0.6841,,,,,,,,0,11,11,105,1
,,,,,,,,,,,,,,,,,60660870280f2b522cc3214b,22,2022-02-12_12h41.26.359,lexical_decision_task_DD_L5,2021.2.3,Win32,59.79430758,,,,,,,,,,,,0.6544,1,,,,,,,,,,,,,,,,,,,,,,,,0.523611132,-0.179166677,0,0,0,,,,,,,BOILER,HB,m,y,./images/BOILERHB.png,,,,,,,,,,,,,,,,,,,,m,1,0.6544,,,,,,,,0,12,12,36,1
,,,,,,,,,,,,,,,,,60660870280f2b522cc3214b,22,2022-02-12_12h41.26.359,lexical_decision_task_DD_L5,2021.2.3,Win32,59.79430758,,,,,,,,,,,,0.6169,1,,,,,,,,,,,,,,,,,,,,,,,,0.523611132,-0.179166677,0,0,0,,,,,,,STEAK,LB,m,y,./images/STEAKLB.png,,,,,,,,,,,,,,,,,,,,m,1,0.6169,,,,,,,,0,13,13,31,1
,,,,,,,,,,,,,,,,,60660870280f2b522cc3214b,22,2022-02-12_12h41.26.359,lexical_decision_task_DD_L5,2021.2.3,Win32,59.79430758,,,,,,,,,,,,0.6837,0,,,,,,,,,,,,,,,,,,,,,,,,0.523611132,-0.179166677,0,0,0,,,,,,,SCREW,HB,z,y,./images/SCREWHB.png,,,,,,,,,,,,,,,,,,,,m,0,0.6837,,,,,,,,0,14,14,108,1
,,,,,,,,,,,,,,,,,60660870280f2b522cc3214b,22,2022-02-12_12h41.26.359,lexical_decision_task_DD_L5,2021.2.3,Win32,59.79430758,,,,,,,,,,,,0.6697,1,,,,,,,,,,,,,,,,,,,,,,,,0.523611132,-0.179166677,0,0,0,,,,,,,MAMMAL,C,m,y,./images/MAMMAL.png,,,,,,,,,,,,,,,,,,,,m,1,0.6697,,,,,,,,0,15,15,62,1
,,,,,,,,,,,,,,,,,60660870280f2b522cc3214b,22,2022-02-12_12h41.26.359,lexical_decision_task_DD_L5,2021.2.3,Win32,59.79430758,,,,,,,,,,,,0.8837,1,,,,,,,,,,,,,,,,,,,,,,,,0.523611132,-0.179166677,0,0,0,,,,,,,BAKER,HB,m,y,./images/BAKERHB.png,,,,,,,,,,,,,,,,,,,,m,1,0.8837,,,,,,,,0,16,16,63,1
,,,,,,,,,,,,,,,,,60660870280f2b522cc3214b,22,2022-02-12_12h41.26.359,lexical_decision_task_DD_L5,2021.2.3,Win32,59.79430758,,,,,,,,,,,,1.2848,1,,,,,,,,,,,,,,,,,,,,,,,,0.523611132,-0.179166677,0,0,0,,,,,,,COOKER,HB,z,y,./images/COOKERHB.png,,,,,,,,,,,,,,,,,,,,z,1,1.2848,,,,,,,,0,17,17,153,1
,,,,,,,,,,,,,,,,,60660870280f2b522cc3214b,22,2022-02-12_12h41.26.359,lexical_decision_task_DD_L5,2021.2.3,Win32,59.79430758,,,,,,,,,,,,0.7164,1,,,,,,,,,,,,,,,,,,,,,,,,0.523611132,-0.179166677,0,0,0,,,,,,,SWING,LB,z,y,./images/SWINGLB.png,,,,,,,,,,,,,,,,,,,,z,1,0.7164,,,,,,,,0,18,18,124,1
,,,,,,,,,,,,,,,,,60660870280f2b522cc3214b,22,2022-02-12_12h41.26.359,lexical_decision_task_DD_L5,2021.2.3,Win32,59.79430758,,,,,,,,,,,,0.8342,1,,,,,,,,,,,,,,,,,,,,,,,,0.523611132,-0.179166677,0,0,0,,,,,,,PURSE,C,z,y,./images/PURSE.png,,,,,,,,,,,,,,,,,,,,z,1,0.8342,,,,,,,,0,19,19,146,1
,,,,,,,,,,,,,,,,,60660870280f2b522cc3214b,22,2022-02-12_12h41.26.359,lexical_decision_task_DD_L5,2021.2.3,Win32,59.79430758,,,,,,,,,,,,1.1845,0,,,,,,,,,,,,,,,,,,,,,,,,0.523611132,-0.179166677,0,0,0,,,,,,,WHEEL,C,m,y,./images/WHEEL.png,,,,,,,,,,,,,,,,,,,,z,0,1.1845,,,,,,,,0,20,20,77,1
,,,,,,,,,,,,,,,,,60660870280f2b522cc3214b,22,2022-02-12_12h41.26.359,lexical_decision_task_DD_L5,2021.2.3,Win32,59.79430758,,,,,,,,,,,,0.7506,1,,,,,,,,,,,,,,,,,,,,,,,,0.523611132,-0.179166677,0,0,0,,,,,,,CLIFF,C,m,y,./images/CLIFF.png,,,,,,,,,,,,,,,,,,,,m,1,0.7506,,,,,,,,0,21,21,8,1
,,,,,,,,,,,,,,,,,60660870280f2b522cc3214b,22,2022-02-12_12h41.26.359,lexical_decision_task_DD_L5,2021.2.3,Win32,59.79430758,,,,,,,,,,,,0.7177,1,,,,,,,,,,,,,,,,,,,,,,,,0.523611132,-0.179166677,0,0,0,,,,,,,POSTER,C,m,y,./images/POSTER.png,,,,,,,,,,,,,,,,,,,,m,1,0.7177,,,,,,,,0,22,22,53,1
,,,,,,,,,,,,,,,,,60660870280f2b522cc3214b,22,2022-02-12_12h41.26.359,lexical_decision_task_DD_L5,2021.2.3,Win32,59.79430758,,,,,,,,,,,,0.6725,1,,,,,,,,,,,,,,,,,,,,,,,,0.523611132,-0.179166677,0,0,0,,,,,,,FLASK,HB,m,y,./images/FLASKHB.png,,,,,,,,,,,,,,,,,,,,m,1,0.6725,,,,,,,,0,23,23,72,1
,,,,,,,,,,,,,,,,,60660870280f2b522cc3214b,22,2022-02-12_12h41.26.359,lexical_decision_task_DD_L5,2021.2.3,Win32,59.79430758,,,,,,,,,,,,0.6177,1,,,,,,,,,,,,,,,,,,,,,,,,0.523611132,-0.179166677,0,0,0,,,,,,,PEBBLE,LB,m,y,./images/PEBBLELB.png,,,,,,,,,,,,,,,,,,,,m,1,0.6177,,,,,,,,0,24,24,82,1
,,,,,,,,,,,,,,,,,60660870280f2b522cc3214b,22,2022-02-12_12h41.26.359,lexical_decision_task_DD_L5,2021.2.3,Win32,59.79430758,,,,,,,,,,,,1.0847,1,,,,,,,,,,,,,,,,,,,,,,,,0.523611132,-0.179166677,0,0,0,,,,,,,CRUMB,C,z,y,./images/CRUMB.png,,,,,,,,,,,,,,,,,,,,z,1,1.0847,,,,,,,,0,25,25,113,1
,,,,,,,,,,,,,,,,,60660870280f2b522cc3214b,22,2022-02-12_12h41.26.359,lexical_decision_task_DD_L5,2021.2.3,Win32,59.79430758,,,,,,,,,,,,0.8006,1,,,,,,,,,,,,,,,,,,,,,,,,0.523611132,-0.179166677,0,0,0,,,,,,,MOTOR,LB,z,y,./images/MOTORLB.png,,,,,,,,,,,,,,,,,,,,z,1,0.8006,,,,,,,,0,26,26,97,1
,,,,,,,,,,,,,,,,,60660870280f2b522cc3214b,22,2022-02-12_12h41.26.359,lexical_decision_task_DD_L5,2021.2.3,Win32,59.79430758,,,,,,,,,,,,0.6555,1,,,,,,,,,,,,,,,,,,,,,,,,0.523611132,-0.179166677,0,0,0,,,,,,,TULIP,C,z,y,./images/TULIP.png,,,,,,,,,,,,,,,,,,,,z,1,0.6555,,,,,,,,0,27,27,92,1
,,,,,,,,,,,,,,,,,60660870280f2b522cc3214b,22,2022-02-12_12h41.26.359,lexical_decision_task_DD_L5,2021.2.3,Win32,59.79430758,,,,,,,,,,,,0.5672,1,,,,,,,,,,,,,,,,,,,,,,,,0.523611132,-0.179166677,0,0,0,,,,,,,CANOE,LB,m,y,./images/CANOELB.png,,,,,,,,,,,,,,,,,,,,m,1,0.5672,,,,,,,,0,28,28,58,1
,,,,,,,,,,,,,,,,,60660870280f2b522cc3214b,22,2022-02-12_12h41.26.359,lexical_decision_task_DD_L5,2021.2.3,Win32,59.79430758,,,,,,,,,,,,0.8846,1,,,,,,,,,,,,,,,,,,,,,,,,0.523611132,-0.179166677,0,0,0,,,,,,,TWINS,HB,z,y,./images/TWINSHB.png,,,,,,,,,,,,,,,,,,,,z,1,0.8846,,,,,,,,0,29,29,144,1
,,,,,,,,,,,,,,,,,60660870280f2b522cc3214b,22,2022-02-12_12h41.26.359,lexical_decision_task_DD_L5,2021.2.3,Win32,59.79430758,,,,,,,,,,,,0.8751,1,,,,,,,,,,,,,,,,,,,,,,,,0.523611132,-0.179166677,0,0,0,,,,,,,BASKET,C,m,y,./images/BASKET.png,,,,,,,,,,,,,,,,,,,,m,1,0.8751,,,,,,,,0,30,30,44,1
,,,,,,,,,,,,,,,,,60660870280f2b522cc3214b,22,2022-02-12_12h41.26.359,lexical_decision_task_DD_L5,2021.2.3,Win32,59.79430758,,,,,,,,,,,,0.7173,0,,,,,,,,,,,,,,,,,,,,,,,,0.523611132,-0.179166677,0,0,0,,,,,,,PLANET,C,m,y,./images/PLANET.png,,,,,,,,,,,,,,,,,,,,z,0,0.7173,,,,,,,,0,31,31,80,1
,,,,,,,,,,,,,,,,,60660870280f2b522cc3214b,22,2022-02-12_12h41.26.359,lexical_decision_task_DD_L5,2021.2.3,Win32,59.79430758,,,,,,,,,,,,1.8185,0,,,,,,,,,,,,,,,,,,,,,,,,0.523611132,-0.179166677,0,0,0,,,,,,,BANNER,LB,z,y,./images/BANNERLB.png,,,,,,,,,,,,,,,,,,,,m,0,1.8185,,,,,,,,0,32,32,136,1
,,,,,,,,,,,,,,,,,60660870280f2b522cc3214b,22,2022-02-12_12h41.26.359,lexical_decision_task_DD_L5,2021.2.3,Win32,59.79430758,,,,,,,,,,,,0.5841,1,,,,,,,,,,,,,,,,,,,,,,,,0.523611132,-0.179166677,0,0,0,,,,,,,LLAMA,C,m,y,./images/LLAMA.png,,,,,,,,,,,,,,,,,,,,m,1,0.5841,,,,,,,,0,33,33,35,1
,,,,,,,,,,,,,,,,,60660870280f2b522cc3214b,22,2022-02-12_12h41.26.359,lexical_decision_task_DD_L5,2021.2.3,Win32,59.79430758,,,,,,,,,,,,0.6339,1,,,,,,,,,,,,,,,,,,,,,,,,0.523611132,-0.179166677,0,0,0,,,,,,,MIDGET,LB,m,y,./images/MIDGETLB.png,,,,,,,,,,,,,,,,,,,,m,1,0.6339,,,,,,,,0,34,34,76,1
,,,,,,,,,,,,,,,,,60660870280f2b522cc3214b,22,2022-02-12_12h41.26.359,lexical_decision_task_DD_L5,2021.2.3,Win32,59.79430758,,,,,,,,,,,,0.9504,0,,,,,,,,,,,,,,,,,,,,,,,,0.523611132,-0.179166677,0,0,0,,,,,,,FINGER,HB,z,y,./images/FINGERHB.png,,,,,,,,,,,,,,,,,,,,m,0,0.9504,,,,,,,,0,35,35,87,1
,,,,,,,,,,,,,,,,,60660870280f2b522cc3214b,22,2022-02-12_12h41.26.359,lexical_decision_task_DD_L5,2021.2.3,Win32,59.79430758,,,,,,,,,,,,0.5859,1,,,,,,,,,,,,,,,,,,,,,,,,0.523611132,-0.179166677,0,0,0,,,,,,,MOSQUE,LB,z,y,./images/MOSQUELB.png,,,,,,,,,,,,,,,,,,,,z,1,0.5859,,,,,,,,0,36,36,127,1
,,,,,,,,,,,,,,,,,60660870280f2b522cc3214b,22,2022-02-12_12h41.26.359,lexical_decision_task_DD_L5,2021.2.3,Win32,59.79430758,,,,,,,,,,,,0.7382,1,,,,,,,,,,,,,,,,,,,,,,,,0.523611132,-0.179166677,0,0,0,,,,,,,VALLEY,C,m,y,./images/VALLEY.png,,,,,,,,,,,,,,,,,,,,m,1,0.7382,,,,,,,,0,37,37,68,1
,,,,,,,,,,,,,,,,,60660870280f2b522cc3214b,22,2022-02-12_12h41.26.359,lexical_decision_task_DD_L5,2021.2.3,Win32,59.79430758,,,,,,,,,,,,1.3509,0,,,,,,,,,,,,,,,,,,,,,,,,0.523611132,-0.179166677,0,0,0,,,,,,,DRUMS,LB,z,y,./images/DRUMSLB.png,,,,,,,,,,,,,,,,,,,,m,0,1.3509,,,,,,,,0,38,38,133,1
,,,,,,,,,,,,,,,,,60660870280f2b522cc3214b,22,2022-02-12_12h41.26.359,lexical_decision_task_DD_L5,2021.2.3,Win32,59.79430758,,,,,,,,,,,,0.6535,1,,,,,,,,,,,,,,,,,,,,,,,,0.523611132,-0.179166677,0,0,0,,,,,,,INFANT,LB,z,y,./images/INFANTLB.png,,,,,,,,,,,,,,,,,,,,z,1,0.6535,,,,,,,,0,39,39,160,1
,,,,,,,,,,,,,,,,,60660870280f2b522cc3214b,22,2022-02-12_12h41.26.359,lexical_decision_task_DD_L5,2021.2.3,Win32,59.79430758,,,,,,,,,,,,0.6008,1,,,,,,,,,,,,,,,,,,,,,,,,0.523611132,-0.179166677,0,0,0,,,,,,,BELLY,LB,z,y,./images/BELLYLB.png,,,,,,,,,,,,,,,,,,,,z,1,0.6008,,,,,,,,0,40,40,94,1
,,,,,,,,,,,,,,,,,60660870280f2b522cc3214b,22,2022-02-12_12h41.26.359,lexical_decision_task_DD_L5,2021.2.3,Win32,59.79430758,,,,,,,,,,,,0.8341,1,,,,,,,,,,,,,,,,,,,,,,,,0.523611132,-0.179166677,0,0,0,space,,,,,,SHELF,HB,z,y,./images/SHELFHB.png,1.3209,,,,,,,,,,,,,,,,,,,z,1,0.8341,,,,,,,,0,41,41,123,1
,,,,,,,,,,,,,,,,,60660870280f2b522cc3214b,22,2022-02-12_12h41.26.359,lexical_decision_task_DD_L5,2021.2.3,Win32,59.79430758,,,,,,,,,,,,0.8678,1,,,,,,,,,,,,,,,,,,,,,,,,0.523611132,-0.179166677,0,0,0,,,,,,,WRIST,LB,z,y,./images/WRISTLB.png,,,,,,,,,,,,,,,,,,,,z,1,0.8678,,,,,,,,0,42,42,109,1
,,,,,,,,,,,,,,,,,60660870280f2b522cc3214b,22,2022-02-12_12h41.26.359,lexical_decision_task_DD_L5,2021.2.3,Win32,59.79430758,,,,,,,,,,,,0.6404,1,,,,,,,,,,,,,,,,,,,,,,,,0.523611132,-0.179166677,0,0,0,,,,,,,SQUARE,HB,z,y,./images/SQUAREHB.png,,,,,,,,,,,,,,,,,,,,z,1,0.6404,,,,,,,,0,43,43,90,1
,,,,,,,,,,,,,,,,,60660870280f2b522cc3214b,22,2022-02-12_12h41.26.359,lexical_decision_task_DD_L5,2021.2.3,Win32,59.79430758,,,,,,,,,,,,0.9352,1,,,,,,,,,,,,,,,,,,,,,,,,0.523611132,-0.179166677,0,0,0,,,,,,,COLLAR,HB,m,y,./images/COLLARHB.png,,,,,,,,,,,,,,,,,,,,m,1,0.9352,,,,,,,,0,44,44,15,1
,,,,,,,,,,,,,,,,,60660870280f2b522cc3214b,22,2022-02-12_12h41.26.359,lexical_decision_task_DD_L5,2021.2.3,Win32,59.79430758,,,,,,,,,,,,0.6896,1,,,,,,,,,,,,,,,,,,,,,,,,0.523611132,-0.179166677,0,0,0,,,,,,,POKER,LB,m,y,./images/POKERLB.png,,,,,,,,,,,,,,,,,,,,m,1,0.6896,,,,,,,,0,45,45,67,1
,,,,,,,,,,,,,,,,,60660870280f2b522cc3214b,22,2022-02-12_12h41.26.359,lexical_decision_task_DD_L5,2021.2.3,Win32,59.79430758,,,,,,,,,,,,0.8694,0,,,,,,,,,,,,,,,,,,,,,,,,0.523611132,-0.179166677,0,0,0,,,,,,,STRING,C,z,y,./images/STRING.png,,,,,,,,,,,,,,,,,,,,m,0,0.8694,,,,,,,,0,46,46,125,1
,,,,,,,,,,,,,,,,,60660870280f2b522cc3214b,22,2022-02-12_12h41.26.359,lexical_decision_task_DD_L5,2021.2.3,Win32,59.79430758,,,,,,,,,,,,0.8022,1,,,,,,,,,,,,,,,,,,,,,,,,0.523611132,-0.179166677,0,0,0,,,,,,,THROAT,HB,z,y,./images/THROATHB.png,,,,,,,,,,,,,,,,,,,,z,1,0.8022,,,,,,,,0,47,47,120,1
,,,,,,,,,,,,,,,,,60660870280f2b522cc3214b,22,2022-02-12_12h41.26.359,lexical_decision_task_DD_L5,2021.2.3,Win32,59.79430758,,,,,,,,,,,,1.0579,0,,,,,,,,,,,,,,,,,,,,,,,,0.523611132,-0.179166677,0,0,0,,,,,,,LITTER,HB,z,y,./images/LITTERHB.png,,,,,,,,,,,,,,,,,,,,m,0,1.0579,,,,,,,,0,48,48,162,1
,,,,,,,,,,,,,,,,,60660870280f2b522cc3214b,22,2022-02-12_12h41.26.359,lexical_decision_task_DD_L5,2021.2.3,Win32,59.79430758,,,,,,,,,,,,0.6333,1,,,,,,,,,,,,,,,,,,,,,,,,0.523611132,-0.179166677,0,0,0,,,,,,,BEARD,C,z,y,./images/BEARD.png,,,,,,,,,,,,,,,,,,,,z,1,0.6333,,,,,,,,0,49,49,86,1
,,,,,,,,,,,,,,,,,60660870280f2b522cc3214b,22,2022-02-12_12h41.26.359,lexical_decision_task_DD_L5,2021.2.3,Win32,59.79430758,,,,,,,,,,,,0.7506,1,,,,,,,,,,,,,,,,,,,,,,,,0.523611132,-0.179166677,0,0,0,,,,,,,BURIAL,C,z,y,./images/BURIAL.png,,,,,,,,,,,,,,,,,,,,z,1,0.7506,,,,,,,,0,50,50,143,1
,,,,,,,,,,,,,,,,,60660870280f2b522cc3214b,22,2022-02-12_12h41.26.359,lexical_decision_task_DD_L5,2021.2.3,Win32,59.79430758,,,,,,,,,,,,0.656,1,,,,,,,,,,,,,,,,,,,,,,,,0.523611132,-0.179166677,0,0,0,,,,,,,GRAIN,HB,z,y,./images/GRAINHB.png,,,,,,,,,,,,,,,,,,,,z,1,0.656,,,,,,,,0,51,51,159,1
,,,,,,,,,,,,,,,,,60660870280f2b522cc3214b,22,2022-02-12_12h41.26.359,lexical_decision_task_DD_L5,2021.2.3,Win32,59.79430758,,,,,,,,,,,,1.1407,1,,,,,,,,,,,,,,,,,,,,,,,,0.523611132,-0.179166677,0,0,0,,,,,,,HEATER,C,m,y,./images/HEATER.png,,,,,,,,,,,,,,,,,,,,m,1,1.1407,,,,,,,,0,52,52,56,1
,,,,,,,,,,,,,,,,,60660870280f2b522cc3214b,22,2022-02-12_12h41.26.359,lexical_decision_task_DD_L5,2021.2.3,Win32,59.79430758,,,,,,,,,,,,0.7011,0,,,,,,,,,,,,,,,,,,,,,,,,0.523611132,-0.179166677,0,0,0,,,,,,,SAUCE,HB,m,y,./images/SAUCEHB.png,,,,,,,,,,,,,,,,,,,,z,0,0.7011,,,,,,,,0,53,53,51,1
,,,,,,,,,,,,,,,,,60660870280f2b522cc3214b,22,2022-02-12_12h41.26.359,lexical_decision_task_DD_L5,2021.2.3,Win32,59.79430758,,,,,,,,,,,,1.0499,1,,,,,,,,,,,,,,,,,,,,,,,,0.523611132,-0.179166677,0,0,0,,,,,,,BISHOP,LB,m,y,./images/BISHOPLB.png,,,,,,,,,,,,,,,,,,,,m,1,1.0499,,,,,,,,0,54,54,49,1
,,,,,,,,,,,,,,,,,60660870280f2b522cc3214b,22,2022-02-12_12h41.26.359,lexical_decision_task_DD_L5,2021.2.3,Win32,59.79430758,,,,,,,,,,,,0.6412,1,,,,,,,,,,,,,,,,,,,,,,,,0.523611132,-0.179166677,0,0,0,,,,,,,SNACK,LB,z,y,./images/SNACKLB.png,,,,,,,,,,,,,,,,,,,,z,1,0.6412,,,,,,,,0,55,55,157,1
,,,,,,,,,,,,,,,,,60660870280f2b522cc3214b,22,2022-02-12_12h41.26.359,lexical_decision_task_DD_L5,2021.2.3,Win32,59.79430758,,,,,,,,,,,,0.7095,1,,,,,,,,,,,,,,,,,,,,,,,,0.523611132,-0.179166677,0,0,0,,,,,,,BUNNY,LB,m,y,./images/BUNNYLB.png,,,,,,,,,,,,,,,,,,,,m,1,0.7095,,,,,,,,0,56,56,13,1
,,,,,,,,,,,,,,,,,60660870280f2b522cc3214b,22,2022-02-12_12h41.26.359,lexical_decision_task_DD_L5,2021.2.3,Win32,59.79430758,,,,,,,,,,,,0.7341,0,,,,,,,,,,,,,,,,,,,,,,,,0.523611132,-0.179166677,0,0,0,,,,,,,BABOON,LB,z,y,./images/BABOONLB.png,,,,,,,,,,,,,,,,,,,,m,0,0.7341,,,,,,,,0,57,57,142,1
,,,,,,,,,,,,,,,,,60660870280f2b522cc3214b,22,2022-02-12_12h41.26.359,lexical_decision_task_DD_L5,2021.2.3,Win32,59.79430758,,,,,,,,,,,,0.6676,1,,,,,,,,,,,,,,,,,,,,,,,,0.523611132,-0.179166677,0,0,0,,,,,,,SLOPE,HB,m,y,./images/SLOPEHB.png,,,,,,,,,,,,,,,,,,,,m,1,0.6676,,,,,,,,0,58,58,30,1
,,,,,,,,,,,,,,,,,60660870280f2b522cc3214b,22,2022-02-12_12h41.26.359,lexical_decision_task_DD_L5,2021.2.3,Win32,59.79430758,,,,,,,,,,,,1.0576,0,,,,,,,,,,,,,,,,,,,,,,,,0.523611132,-0.179166677,0,0,0,,,,,,,BIRTH,LB,z,y,./images/BIRTHLB.png,,,,,,,,,,,,,,,,,,,,m,0,1.0576,,,,,,,,0,59,59,121,1
,,,,,,,,,,,,,,,,,60660870280f2b522cc3214b,22,2022-02-12_12h41.26.359,lexical_decision_task_DD_L5,2021.2.3,Win32,59.79430758,,,,,,,,,,,,0.6951,1,,,,,,,,,,,,,,,,,,,,,,,,0.523611132,-0.179166677,0,0,0,,,,,,,BAMBOO,C,m,y,./images/BAMBOO.png,,,,,,,,,,,,,,,,,,,,m,1,0.6951,,,,,,,,0,60,60,5,1
,,,,,,,,,,,,,,,,,60660870280f2b522cc3214b,22,2022-02-12_12h41.26.359,lexical_decision_task_DD_L5,2021.2.3,Win32,59.79430758,,,,,,,,,,,,1.0042,1,,,,,,,,,,,,,,,,,,,,,,,,0.523611132,-0.179166677,0,0,0,,,,,,,ONION,HB,z,y,./images/ONIONHB.png,,,,,,,,,,,,,,,,,,,,z,1,1.0042,,,,,,,,0,61,61,135,1
,,,,,,,,,,,,,,,,,60660870280f2b522cc3214b,22,2022-02-12_12h41.26.359,lexical_decision_task_DD_L5,2021.2.3,Win32,59.79430758,,,,,,,,,,,,2.0005,1,,,,,,,,,,,,,,,,,,,,,,,,0.523611132,-0.179166677,0,0,0,,,,,,,JUMPER,C,m,y,./images/JUMPER.png,,,,,,,,,,,,,,,,,,,,m,1,2.0005,,,,,,,,0,62,62,74,1
,,,,,,,,,,,,,,,,,60660870280f2b522cc3214b,22,2022-02-12_12h41.26.359,lexical_decision_task_DD_L5,2021.2.3,Win32,59.79430758,,,,,,,,,,,,1.17,0,,,,,,,,,,,,,,,,,,,,,,,,0.523611132,-0.179166677,0,0,0,,,,,,,PICKLE,C,z,y,./images/PICKLE.png,,,,,,,,,,,,,,,,,,,,m,0,1.17,,,,,,,,0,63,63,98,1
,,,,,,,,,,,,,,,,,60660870280f2b522cc3214b,22,2022-02-12_12h41.26.359,lexical_decision_task_DD_L5,2021.2.3,Win32,59.79430758,,,,,,,,,,,,0.8193,1,,,,,,,,,,,,,,,,,,,,,,,,0.523611132,-0.179166677,0,0,0,,,,,,,BROOM,HB,m,y,./images/BROOMHB.png,,,,,,,,,,,,,,,,,,,,m,1,0.8193,,,,,,,,0,64,64,78,1
,,,,,,,,,,,,,,,,,60660870280f2b522cc3214b,22,2022-02-12_12h41.26.359,lexical_decision_task_DD_L5,2021.2.3,Win32,59.79430758,,,,,,,,,,,,0.7056,1,,,,,,,,,,,,,,,,,,,,,,,,0.523611132,-0.179166677,0,0,0,,,,,,,URINE,LB,z,y,./images/URINELB.png,,,,,,,,,,,,,,,,,,,,z,1,0.7056,,,,,,,,0,65,65,154,1
,,,,,,,,,,,,,,,,,60660870280f2b522cc3214b,22,2022-02-12_12h41.26.359,lexical_decision_task_DD_L5,2021.2.3,Win32,59.79430758,,,,,,,,,,,,0.8359,0,,,,,,,,,,,,,,,,,,,,,,,,0.523611132,-0.179166677,0,0,0,,,,,,,SWEAT,HB,z,y,./images/SWEATHB.png,,,,,,,,,,,,,,,,,,,,m,0,0.8359,,,,,,,,0,66,66,150,1
,,,,,,,,,,,,,,,,,60660870280f2b522cc3214b,22,2022-02-12_12h41.26.359,lexical_decision_task_DD_L5,2021.2.3,Win32,59.79430758,,,,,,,,,,,,0.6169,1,,,,,,,,,,,,,,,,,,,,,,,,0.523611132,-0.179166677,0,0,0,,,,,,,STOOL,LB,m,y,./images/STOOLLB.png,,,,,,,,,,,,,,,,,,,,m,1,0.6169,,,,,,,,0,67,67,43,1
,,,,,,,,,,,,,,,,,60660870280f2b522cc3214b,22,2022-02-12_12h41.26.359,lexical_decision_task_DD_L5,2021.2.3,Win32,59.79430758,,,,,,,,,,,,0.8095,0,,,,,,,,,,,,,,,,,,,,,,,,0.523611132,-0.179166677,0,0,0,,,,,,,BANANA,LB,m,y,./images/BANANALB.png,,,,,,,,,,,,,,,,,,,,z,0,0.8095,,,,,,,,0,68,68,70,1
,,,,,,,,,,,,,,,,,60660870280f2b522cc3214b,22,2022-02-12_12h41.26.359,lexical_decision_task_DD_L5,2021.2.3,Win32,59.79430758,,,,,,,,,,,,0.6174,1,,,,,,,,,,,,,,,,,,,,,,,,0.523611132,-0.179166677,0,0,0,,,,,,,PILOT,C,m,y,./images/PILOT.png,,,,,,,,,,,,,,,,,,,,m,1,0.6174,,,,,,,,0,69,69,50,1
,,,,,,,,,,,,,,,,,60660870280f2b522cc3214b,22,2022-02-12_12h41.26.359,lexical_decision_task_DD_L5,2021.2.3,Win32,59.79430758,,,,,,,,,,,,0.9333,1,,,,,,,,,,,,,,,,,,,,,,,,0.523611132,-0.179166677,0,0,0,,,,,,,STREAM,C,m,y,./images/STREAM.png,,,,,,,,,,,,,,,,,,,,m,1,0.9333,,,,,,,,0,70,70,41,1
,,,,,,,,,,,,,,,,,60660870280f2b522cc3214b,22,2022-02-12_12h41.26.359,lexical_decision_task_DD_L5,2021.2.3,Win32,59.79430758,,,,,,,,,,,,0.7508,1,,,,,,,,,,,,,,,,,,,,,,,,0.523611132,-0.179166677,0,0,0,,,,,,,MUMMY,LB,m,y,./images/MUMMYLB.png,,,,,,,,,,,,,,,,,,,,m,1,0.7508,,,,,,,,0,71,71,46,1
,,,,,,,,,,,,,,,,,60660870280f2b522cc3214b,22,2022-02-12_12h41.26.359,lexical_decision_task_DD_L5,2021.2.3,Win32,59.79430758,,,,,,,,,,,,0.861,1,,,,,,,,,,,,,,,,,,,,,,,,0.523611132,-0.179166677,0,0,0,,,,,,,POODLE,HB,z,y,./images/POODLEHB.png,,,,,,,,,,,,,,,,,,,,z,1,0.861,,,,,,,,0,72,72,165,1
,,,,,,,,,,,,,,,,,60660870280f2b522cc3214b,22,2022-02-12_12h41.26.359,lexical_decision_task_DD_L5,2021.2.3,Win32,59.79430758,,,,,,,,,,,,0.6173,1,,,,,,,,,,,,,,,,,,,,,,,,0.523611132,-0.179166677,0,0,0,,,,,,,CHAIN,HB,m,y,./images/CHAINHB.png,,,,,,,,,,,,,,,,,,,,m,1,0.6173,,,,,,,,0,73,73,42,1
,,,,,,,,,,,,,,,,,60660870280f2b522cc3214b,22,2022-02-12_12h41.26.359,lexical_decision_task_DD_L5,2021.2.3,Win32,59.79430758,,,,,,,,,,,,0.7679,0,,,,,,,,,,,,,,,,,,,,,,,,0.523611132,-0.179166677,0,0,0,,,,,,,PLANK,LB,z,y,./images/PLANKLB.png,,,,,,,,,,,,,,,,,,,,m,0,0.7679,,,,,,,,0,74,74,85,1
,,,,,,,,,,,,,,,,,60660870280f2b522cc3214b,22,2022-02-12_12h41.26.359,lexical_decision_task_DD_L5,2021.2.3,Win32,59.79430758,,,,,,,,,,,,0.9178,1,,,,,,,,,,,,,,,,,,,,,,,,0.523611132,-0.179166677,0,0,0,,,,,,,MOOSE,HB,z,y,./images/MOOSEHB.png,,,,,,,,,,,,,,,,,,,,z,1,0.9178,,,,,,,,0,75,75,141,1
,,,,,,,,,,,,,,,,,60660870280f2b522cc3214b,22,2022-02-12_12h41.26.359,lexical_decision_task_DD_L5,2021.2.3,Win32,59.79430758,,,,,,,,,,,,1.0518,1,,,,,,,,,,,,,,,,,,,,,,,,0.523611132,-0.179166677,0,0,0,,,,,,,HOCKEY,C,m,y,./images/HOCKEY.png,,,,,,,,,,,,,,,,,,,,m,1,1.0518,,,,,,,,0,76,76,32,1
,,,,,,,,,,,,,,,,,60660870280f2b522cc3214b,22,2022-02-12_12h41.26.359,lexical_decision_task_DD_L5,2021.2.3,Win32,59.79430758,,,,,,,,,,,,1.3007,0,,,,,,,,,,,,,,,,,,,,,,,,0.523611132,-0.179166677,0,0,0,,,,,,,BUTTER,HB,m,y,./images/BUTTERHB.png,,,,,,,,,,,,,,,,,,,,z,0,1.3007,,,,,,,,0,77,77,27,1
,,,,,,,,,,,,,,,,,60660870280f2b522cc3214b,22,2022-02-12_12h41.26.359,lexical_decision_task_DD_L5,2021.2.3,Win32,59.79430758,,,,,,,,,,,,0.784,1,,,,,,,,,,,,,,,,,,,,,,,,0.523611132,-0.179166677,0,0,0,,,,,,,DRILL,HB,m,y,./images/DRILLHB.png,,,,,,,,,,,,,,,,,,,,m,1,0.784,,,,,,,,0,78,78,81,1
,,,,,,,,,,,,,,,,,60660870280f2b522cc3214b,22,2022-02-12_12h41.26.359,lexical_decision_task_DD_L5,2021.2.3,Win32,59.79430758,,,,,,,,,,,,0.7017,1,,,,,,,,,,,,,,,,,,,,,,,,0.523611132,-0.179166677,0,0,0,,,,,,,MIRROR,HB,z,y,./images/MIRRORHB.png,,,,,,,,,,,,,,,,,,,,z,1,0.7017,,,,,,,,0,79,79,147,1
,,,,,,,,,,,,,,,,,60660870280f2b522cc3214b,22,2022-02-12_12h41.26.359,lexical_decision_task_DD_L5,2021.2.3,Win32,59.79430758,,,,,,,,,,,,0.738,0,,,,,,,,,,,,,,,,,,,,,,,,0.523611132,-0.179166677,0,0,0,,,,,,,GRAPE,LB,m,y,./images/GRAPELB.png,,,,,,,,,,,,,,,,,,,,z,0,0.738,,,,,,,,0,80,80,16,1
,,,,,,,,,,,,,,,,,60660870280f2b522cc3214b,22,2022-02-12_12h41.26.359,lexical_decision_task_DD_L5,2021.2.3,Win32,59.79430758,,,,,,,,,,,,0.883,0,,,,,,,,,,,,,,,,,,,,,,,,0.523611132,-0.179166677,0,0,0,,,,,,,STAIN,HB,m,y,./images/STAINHB.png,,,,,,,,,,,,,,,,,,,,z,0,0.883,,,,,,,,0,81,81,6,1
,,,,,,,,,,,,,,,,,60660870280f2b522cc3214b,22,2022-02-12_12h41.26.359,lexical_decision_task_DD_L5,2021.2.3,Win32,59.79430758,,,,,,,,,,,,0.8178,1,,,,,,,,,,,,,,,,,,,,,,,,0.523611132,-0.179166677,0,0,0,,,,,,,SHORE,HB,z,y,./images/SHOREHB.png,,,,,,,,,,,,,,,,,,,,z,1,0.8178,,,,,,,,0,82,82,96,1
,,,,,,,,,,,,,,,,,60660870280f2b522cc3214b,22,2022-02-12_12h41.26.359,lexical_decision_task_DD_L5,2021.2.3,Win32,59.79430758,,,,,,,,,,,,0.7022,1,,,,,,,,,,,,,,,,,,,,,,,,0.523611132,-0.179166677,0,0,0,space,,,,,,PENCE,LB,z,y,./images/PENCELB.png,144.6762,,,,,,,,,,,,,,,,,,,z,1,0.7022,,,,,,,,0,83,83,100,1
,,,,,,,,,,,,,,,,,60660870280f2b522cc3214b,22,2022-02-12_12h41.26.359,lexical_decision_task_DD_L5,2021.2.3,Win32,59.79430758,,,,,,,,,,,,0.9421,0,,,,,,,,,,,,,,,,,,,,,,,,0.523611132,-0.179166677,0,0,0,,,,,,,RULER,LB,m,y,./images/RULERLB.png,,,,,,,,,,,,,,,,,,,,z,0,0.9421,,,,,,,,0,84,84,79,1
,,,,,,,,,,,,,,,,,60660870280f2b522cc3214b,22,2022-02-12_12h41.26.359,lexical_decision_task_DD_L5,2021.2.3,Win32,59.79430758,,,,,,,,,,,,0.7927,1,,,,,,,,,,,,,,,,,,,,,,,,0.523611132,-0.179166677,0,0,0,,,,,,,NOOSE,HB,z,y,./images/NOOSEHB.png,,,,,,,,,,,,,,,,,,,,z,1,0.7927,,,,,,,,0,85,85,156,1
,,,,,,,,,,,,,,,,,60660870280f2b522cc3214b,22,2022-02-12_12h41.26.359,lexical_decision_task_DD_L5,2021.2.3,Win32,59.79430758,,,,,,,,,,,,0.6504,1,,,,,,,,,,,,,,,,,,,,,,,,0.523611132,-0.179166677,0,0,0,,,,,,,TORCH,C,z,y,./images/TORCH.png,,,,,,,,,,,,,,,,,,,,z,1,0.6504,,,,,,,,0,86,86,152,1
,,,,,,,,,,,,,,,,,60660870280f2b522cc3214b,22,2022-02-12_12h41.26.359,lexical_decision_task_DD_L5,2021.2.3,Win32,59.79430758,,,,,,,,,,,,0.7509,0,,,,,,,,,,,,,,,,,,,,,,,,0.523611132,-0.179166677,0,0,0,,,,,,,STOVE,C,m,y,./images/STOVE.png,,,,,,,,,,,,,,,,,,,,z,0,0.7509,,,,,,,,0,87,87,2,1
,,,,,,,,,,,,,,,,,60660870280f2b522cc3214b,22,2022-02-12_12h41.26.359,lexical_decision_task_DD_L5,2021.2.3,Win32,59.79430758,,,,,,,,,,,,0.7679,0,,,,,,,,,,,,,,,,,,,,,,,,0.523611132,-0.179166677,0,0,0,,,,,,,BARREL,C,z,y,./images/BARREL.png,,,,,,,,,,,,,,,,,,,,m,0,0.7679,,,,,,,,0,88,88,116,1
,,,,,,,,,,,,,,,,,60660870280f2b522cc3214b,22,2022-02-12_12h41.26.359,lexical_decision_task_DD_L5,2021.2.3,Win32,59.79430758,,,,,,,,,,,,0.577,1,,,,,,,,,,,,,,,,,,,,,,,,0.523611132,-0.179166677,0,0,0,,,,,,,JAGUAR,HB,z,y,./images/JAGUARHB.png,,,,,,,,,,,,,,,,,,,,z,1,0.577,,,,,,,,0,89,89,102,1
,,,,,,,,,,,,,,,,,60660870280f2b522cc3214b,22,2022-02-12_12h41.26.359,lexical_decision_task_DD_L5,2021.2.3,Win32,59.79430758,,,,,,,,,,,,0.5861,1,,,,,,,,,,,,,,,,,,,,,,,,0.523611132,-0.179166677,0,0,0,,,,,,,WEASEL,C,z,y,./images/WEASEL.png,,,,,,,,,,,,,,,,,,,,z,1,0.5861,,,,,,,,0,90,90,164,1
,,,,,,,,,,,,,,,,,60660870280f2b522cc3214b,22,2022-02-12_12h41.26.359,lexical_decision_task_DD_L5,2021.2.3,Win32,59.79430758,,,,,,,,,,,,0.6004,0,,,,,,,,,,,,,,,,,,,,,,,,0.523611132,-0.179166677,0,0,0,,,,,,,SNAKE,LB,m,y,./images/SNAKELB.png,,,,,,,,,,,,,,,,,,,,z,0,0.6004,,,,,,,,0,91,91,40,1
,,,,,,,,,,,,,,,,,60660870280f2b522cc3214b,22,2022-02-12_12h41.26.359,lexical_decision_task_DD_L5,2021.2.3,Win32,59.79430758,,,,,,,,,,,,0.9697,1,,,,,,,,,,,,,,,,,,,,,,,,0.523611132,-0.179166677,0,0,0,,,,,,,CLOUD,C,m,y,./images/CLOUD.png,,,,,,,,,,,,,,,,,,,,m,1,0.9697,,,,,,,,0,92,92,26,1
,,,,,,,,,,,,,,,,,60660870280f2b522cc3214b,22,2022-02-12_12h41.26.359,lexical_decision_task_DD_L5,2021.2.3,Win32,59.79430758,,,,,,,,,,,,0.6582,1,,,,,,,,,,,,,,,,,,,,,,,,0.523611132,-0.179166677,0,0,0,,,,,,,BONNET,C,z,y,./images/BONNET.png,,,,,,,,,,,,,,,,,,,,z,1,0.6582,,,,,,,,0,93,93,95,1
,,,,,,,,,,,,,,,,,60660870280f2b522cc3214b,22,2022-02-12_12h41.26.359,lexical_decision_task_DD_L5,2021.2.3,Win32,59.79430758,,,,,,,,,,,,0.7594,1,,,,,,,,,,,,,,,,,,,,,,,,0.523611132,-0.179166677,0,0,0,,,,,,,BUBBLE,C,m,y,./images/BUBBLE.png,,,,,,,,,,,,,,,,,,,,m,1,0.7594,,,,,,,,0,94,94,71,1
,,,,,,,,,,,,,,,,,60660870280f2b522cc3214b,22,2022-02-12_12h41.26.359,lexical_decision_task_DD_L5,2021.2.3,Win32,59.79430758,,,,,,,,,,,,0.7511,1,,,,,,,,,,,,,,,,,,,,,,,,0.523611132,-0.179166677,0,0,0,,,,,,,BRIDE,LB,m,y,./images/BRIDELB.png,,,,,,,,,,,,,,,,,,,,m,1,0.7511,,,,,,,,0,95,95,64,1
,,,,,,,,,,,,,,,,,60660870280f2b522cc3214b,22,2022-02-12_12h41.26.359,lexical_decision_task_DD_L5,2021.2.3,Win32,59.79430758,,,,,,,,,,,,0.6673,0,,,,,,,,,,,,,,,,,,,,,,,,0.523611132,-0.179166677,0,0,0,,,,,,,WALNUT,HB,m,y,./images/WALNUTHB.png,,,,,,,,,,,,,,,,,,,,z,0,0.6673,,,,,,,,0,96,96,0,1
,,,,,,,,,,,,,,,,,60660870280f2b522cc3214b,22,2022-02-12_12h41.26.359,lexical_decision_task_DD_L5,2021.2.3,Win32,59.79430758,,,,,,,,,,,,0.6406,0,,,,,,,,,,,,,,,,,,,,,,,,0.523611132,-0.179166677,0,0,0,,,,,,,PARCEL,HB,m,y,./images/PARCELHB.png,,,,,,,,,,,,,,,,,,,,z,0,0.6406,,,,,,,,0,97,97,18,1
,,,,,,,,,,,,,,,,,60660870280f2b522cc3214b,22,2022-02-12_12h41.26.359,lexical_decision_task_DD_L5,2021.2.3,Win32,59.79430758,,,,,,,,,,,,0.5672,1,,,,,,,,,,,,,,,,,,,,,,,,0.523611132,-0.179166677,0,0,0,,,,,,,DOUGH,LB,z,y,./images/DOUGHLB.png,,,,,,,,,,,,,,,,,,,,z,1,0.5672,,,,,,,,0,98,98,103,1
,,,,,,,,,,,,,,,,,60660870280f2b522cc3214b,22,2022-02-12_12h41.26.359,lexical_decision_task_DD_L5,2021.2.3,Win32,59.79430758,,,,,,,,,,,,0.7507,1,,,,,,,,,,,,,,,,,,,,,,,,0.523611132,-0.179166677,0,0,0,,,,,,,CLOWN,LB,m,y,./images/CLOWNLB.png,,,,,,,,,,,,,,,,,,,,m,1,0.7507,,,,,,,,0,99,99,22,1
,,,,,,,,,,,,,,,,,60660870280f2b522cc3214b,22,2022-02-12_12h41.26.359,lexical_decision_task_DD_L5,2021.2.3,Win32,59.79430758,,,,,,,,,,,,0.6405,1,,,,,,,,,,,,,,,,,,,,,,,,0.523611132,-0.179166677,0,0,0,,,,,,,QUILL,LB,z,y,./images/QUILLLB.png,,,,,,,,,,,,,,,,,,,,z,1,0.6405,,,,,,,,0,100,100,115,1
,,,,,,,,,,,,,,,,,60660870280f2b522cc3214b,22,2022-02-12_12h41.26.359,lexical_decision_task_DD_L5,2021.2.3,Win32,59.79430758,,,,,,,,,,,,1.303,0,,,,,,,,,,,,,,,,,,,,,,,,0.523611132,-0.179166677,0,0,0,,,,,,,DESERT,LB,m,y,./images/DESERTLB.png,,,,,,,,,,,,,,,,,,,,z,0,1.303,,,,,,,,0,101,101,52,1
,,,,,,,,,,,,,,,,,60660870280f2b522cc3214b,22,2022-02-12_12h41.26.359,lexical_decision_task_DD_L5,2021.2.3,Win32,59.79430758,,,,,,,,,,,,0.691,1,,,,,,,,,,,,,,,,,,,,,,,,0.523611132,-0.179166677,0,0,0,,,,,,,COUCH,C,z,y,./images/COUCH.png,,,,,,,,,,,,,,,,,,,,z,1,0.691,,,,,,,,0,102,102,161,1
,,,,,,,,,,,,,,,,,60660870280f2b522cc3214b,22,2022-02-12_12h41.26.359,lexical_decision_task_DD_L5,2021.2.3,Win32,59.79430758,,,,,,,,,,,,0.6524,0,,,,,,,,,,,,,,,,,,,,,,,,0.523611132,-0.179166677,0,0,0,,,,,,,TIGER,LB,m,y,./images/TIGERLB.png,,,,,,,,,,,,,,,,,,,,z,0,0.6524,,,,,,,,0,103,103,37,1
,,,,,,,,,,,,,,,,,60660870280f2b522cc3214b,22,2022-02-12_12h41.26.359,lexical_decision_task_DD_L5,2021.2.3,Win32,59.79430758,,,,,,,,,,,,0.5403,1,,,,,,,,,,,,,,,,,,,,,,,,0.523611132,-0.179166677,0,0,0,,,,,,,SHIELD,HB,m,y,./images/SHIELDHB.png,,,,,,,,,,,,,,,,,,,,m,1,0.5403,,,,,,,,0,104,104,48,1
,,,,,,,,,,,,,,,,,60660870280f2b522cc3214b,22,2022-02-12_12h41.26.359,lexical_decision_task_DD_L5,2021.2.3,Win32,59.79430758,,,,,,,,,,,,0.775,1,,,,,,,,,,,,,,,,,,,,,,,,0.523611132,-0.179166677,0,0,0,,,,,,,CEMENT,C,z,y,./images/CEMENT.png,,,,,,,,,,,,,,,,,,,,z,1,0.775,,,,,,,,0,105,105,158,1
,,,,,,,,,,,,,,,,,60660870280f2b522cc3214b,22,2022-02-12_12h41.26.359,lexical_decision_task_DD_L5,2021.2.3,Win32,59.79430758,,,,,,,,,,,,0.5838,1,,,,,,,,,,,,,,,,,,,,,,,,0.523611132,-0.179166677,0,0,0,,,,,,,PEARL,LB,z,y,./images/PEARLLB.png,,,,,,,,,,,,,,,,,,,,z,1,0.5838,,,,,,,,0,106,106,130,1
,,,,,,,,,,,,,,,,,60660870280f2b522cc3214b,22,2022-02-12_12h41.26.359,lexical_decision_task_DD_L5,2021.2.3,Win32,59.79430758,,,,,,,,,,,,0.7029,1,,,,,,,,,,,,,,,,,,,,,,,,0.523611132,-0.179166677,0,0,0,,,,,,,WAGON,LB,m,y,./images/WAGONLB.png,,,,,,,,,,,,,,,,,,,,m,1,0.7029,,,,,,,,0,107,107,7,1
,,,,,,,,,,,,,,,,,60660870280f2b522cc3214b,22,2022-02-12_12h41.26.359,lexical_decision_task_DD_L5,2021.2.3,Win32,59.79430758,,,,,,,,,,,,0.7076,0,,,,,,,,,,,,,,,,,,,,,,,,0.523611132,-0.179166677,0,0,0,,,,,,,CLOTH,C,m,y,./images/CLOTH.png,,,,,,,,,,,,,,,,,,,,z,0,0.7076,,,,,,,,0,108,108,23,1
,,,,,,,,,,,,,,,,,60660870280f2b522cc3214b,22,2022-02-12_12h41.26.359,lexical_decision_task_DD_L5,2021.2.3,Win32,59.79430758,,,,,,,,,,,,0.8709,1,,,,,,,,,,,,,,,,,,,,,,,,0.523611132,-0.179166677,0,0,0,,,,,,,MUFFIN,LB,z,y,./images/MUFFINLB.png,,,,,,,,,,,,,,,,,,,,z,1,0.8709,,,,,,,,0,109,109,139,1
,,,,,,,,,,,,,,,,,60660870280f2b522cc3214b,22,2022-02-12_12h41.26.359,lexical_decision_task_DD_L5,2021.2.3,Win32,59.79430758,,,,,,,,,,,,0.7401,1,,,,,,,,,,,,,,,,,,,,,,,,0.523611132,-0.179166677,0,0,0,,,,,,,TOWEL,LB,m,y,./images/TOWELLB.png,,,,,,,,,,,,,,,,,,,,m,1,0.7401,,,,,,,,0,110,110,1,1
,,,,,,,,,,,,,,,,,60660870280f2b522cc3214b,22,2022-02-12_12h41.26.359,lexical_decision_task_DD_L5,2021.2.3,Win32,59.79430758,,,,,,,,,,,,0.7904,1,,,,,,,,,,,,,,,,,,,,,,,,0.523611132,-0.179166677,0,0,0,,,,,,,CANYON,LB,z,y,./images/CANYONLB.png,,,,,,,,,,,,,,,,,,,,z,1,0.7904,,,,,,,,0,111,111,118,1
,,,,,,,,,,,,,,,,,60660870280f2b522cc3214b,22,2022-02-12_12h41.26.359,lexical_decision_task_DD_L5,2021.2.3,Win32,59.79430758,,,,,,,,,,,,0.584,1,,,,,,,,,,,,,,,,,,,,,,,,0.523611132,-0.179166677,0,0,0,,,,,,,GLOVE,LB,m,y,./images/GLOVELB.png,,,,,,,,,,,,,,,,,,,,m,1,0.584,,,,,,,,0,112,112,73,1
,,,,,,,,,,,,,,,,,60660870280f2b522cc3214b,22,2022-02-12_12h41.26.359,lexical_decision_task_DD_L5,2021.2.3,Win32,59.79430758,,,,,,,,,,,,0.767,1,,,,,,,,,,,,,,,,,,,,,,,,0.523611132,-0.179166677,0,0,0,,,,,,,CRUST,LB,z,y,./images/CRUSTLB.png,,,,,,,,,,,,,,,,,,,,z,1,0.767,,,,,,,,0,113,113,163,1
,,,,,,,,,,,,,,,,,60660870280f2b522cc3214b,22,2022-02-12_12h41.26.359,lexical_decision_task_DD_L5,2021.2.3,Win32,59.79430758,,,,,,,,,,,,0.6556,0,,,,,,,,,,,,,,,,,,,,,,,,0.523611132,-0.179166677,0,0,0,,,,,,,MEDAL,C,m,y,./images/MEDAL.png,,,,,,,,,,,,,,,,,,,,z,0,0.6556,,,,,,,,0,114,114,11,1
,,,,,,,,,,,,,,,,,60660870280f2b522cc3214b,22,2022-02-12_12h41.26.359,lexical_decision_task_DD_L5,2021.2.3,Win32,59.79430758,,,,,,,,,,,,0.7564,1,,,,,,,,,,,,,,,,,,,,,,,,0.523611132,-0.179166677,0,0,0,,,,,,,ARROW,HB,m,y,./images/ARROWHB.png,,,,,,,,,,,,,,,,,,,,m,1,0.7564,,,,,,,,0,115,115,69,1
,,,,,,,,,,,,,,,,,60660870280f2b522cc3214b,22,2022-02-12_12h41.26.359,lexical_decision_task_DD_L5,2021.2.3,Win32,59.79430758,,,,,,,,,,,,0.6175,1,,,,,,,,,,,,,,,,,,,,,,,,0.523611132,-0.179166677,0,0,0,,,,,,,BLOKE,HB,m,y,./images/BLOKEHB.png,,,,,,,,,,,,,,,,,,,,m,1,0.6175,,,,,,,,0,116,116,12,1
,,,,,,,,,,,,,,,,,60660870280f2b522cc3214b,22,2022-02-12_12h41.26.359,lexical_decision_task_DD_L5,2021.2.3,Win32,59.79430758,,,,,,,,,,,,0.6534,1,,,,,,,,,,,,,,,,,,,,,,,,0.523611132,-0.179166677,0,0,0,,,,,,,GRANNY,C,m,y,./images/GRANNY.png,,,,,,,,,,,,,,,,,,,,m,1,0.6534,,,,,,,,0,117,117,20,1
,,,,,,,,,,,,,,,,,60660870280f2b522cc3214b,22,2022-02-12_12h41.26.359,lexical_decision_task_DD_L5,2021.2.3,Win32,59.79430758,,,,,,,,,,,,1.0006,1,,,,,,,,,,,,,,,,,,,,,,,,0.523611132,-0.179166677,0,0,0,,,,,,,ALLEY,LB,m,y,./images/ALLEYLB.png,,,,,,,,,,,,,,,,,,,,m,1,1.0006,,,,,,,,0,118,118,55,1
,,,,,,,,,,,,,,,,,60660870280f2b522cc3214b,22,2022-02-12_12h41.26.359,lexical_decision_task_DD_L5,2021.2.3,Win32,59.79430758,,,,,,,,,,,,0.8904,0,,,,,,,,,,,,,,,,,,,,,,,,0.523611132,-0.179166677,0,0,0,,,,,,,CURRY,HB,m,y,./images/CURRYHB.png,,,,,,,,,,,,,,,,,,,,z,0,0.8904,,,,,,,,0,119,119,60,1
,,,,,,,,,,,,,,,,,60660870280f2b522cc3214b,22,2022-02-12_12h41.26.359,lexical_decision_task_DD_L5,2021.2.3,Win32,59.79430758,,,,,,,,,,,,0.806,1,,,,,,,,,,,,,,,,,,,,,,,,0.523611132,-0.179166677,0,0,0,,,,,,,KITTEN,HB,z,y,./images/KITTENHB.png,,,,,,,,,,,,,,,,,,,,z,1,0.806,,,,,,,,0,120,120,129,1
,,,,,,,,,,,,,,,,,60660870280f2b522cc3214b,22,2022-02-12_12h41.26.359,lexical_decision_task_DD_L5,2021.2.3,Win32,59.79430758,,,,,,,,,,,,0.6343,0,,,,,,,,,,,,,,,,,,,,,,,,0.523611132,-0.179166677,0,0,0,,,,,,,SKIING,C,z,y,./images/SKIING.png,,,,,,,,,,,,,,,,,,,,m,0,0.6343,,,,,,,,0,121,121,101,1
,,,,,,,,,,,,,,,,,60660870280f2b522cc3214b,22,2022-02-12_12h41.26.359,lexical_decision_task_DD_L5,2021.2.3,Win32,59.79430758,,,,,,,,,,,,2.0766,1,,,,,,,,,,,,,,,,,,,,,,,,0.523611132,-0.179166677,0,0,0,,,,,,,JUNGLE,C,z,y,./images/JUNGLE.png,,,,,,,,,,,,,,,,,,,,z,1,2.0766,,,,,,,,0,122,122,167,1
,,,,,,,,,,,,,,,,,60660870280f2b522cc3214b,22,2022-02-12_12h41.26.359,lexical_decision_task_DD_L5,2021.2.3,Win32,59.79430758,,,,,,,,,,,,0.8579,1,,,,,,,,,,,,,,,,,,,,,,,,0.523611132,-0.179166677,0,0,0,,,,,,,CHALK,LB,m,y,./images/CHALKLB.png,,,,,,,,,,,,,,,,,,,,m,1,0.8579,,,,,,,,0,123,123,25,1
,,,,,,,,,,,,,,,,,60660870280f2b522cc3214b,22,2022-02-12_12h41.26.359,lexical_decision_task_DD_L5,2021.2.3,Win32,59.79430758,,,,,,,,,,,,0.6172,1,,,,,,,,,,,,,,,,,,,,,,,,0.523611132,-0.179166677,0,0,0,,,,,,,FOLDER,HB,z,y,./images/FOLDERHB.png,,,,,,,,,,,,,,,,,,,,z,1,0.6172,,,,,,,,0,124,124,126,1
,,,,,,,,,,,,,,,,,60660870280f2b522cc3214b,22,2022-02-12_12h41.26.359,lexical_decision_task_DD_L5,2021.2.3,Win32,59.79430758,,,,,,,,,,,,0.6861,1,,,,,,,,,,,,,,,,,,,,,,,,0.523611132,-0.179166677,0,0,0,space,,,,,,CARPET,C,z,y,./images/CARPET.png,1.0104,,,,,,,,,,,,,,,,,,,z,1,0.6861,,,,,,,,0,125,125,137,1
,,,,,,,,,,,,,,,,,60660870280f2b522cc3214b,22,2022-02-12_12h41.26.359,lexical_decision_task_DD_L5,2021.2.3,Win32,59.79430758,,,,,,,,,,,,0.7007,0,,,,,,,,,,,,,,,,,,,,,,,,0.523611132,-0.179166677,0,0,0,,,,,,,CANDLE,LB,z,y,./images/CANDLELB.png,,,,,,,,,,,,,,,,,,,,m,0,0.7007,,,,,,,,0,126,126,145,1
,,,,,,,,,,,,,,,,,60660870280f2b522cc3214b,22,2022-02-12_12h41.26.359,lexical_decision_task_DD_L5,2021.2.3,Win32,59.79430758,,,,,,,,,,,,1.0846,0,,,,,,,,,,,,,,,,,,,,,,,,0.523611132,-0.179166677,0,0,0,,,,,,,SPINE,C,m,y,./images/SPINE.png,,,,,,,,,,,,,,,,,,,,z,0,1.0846,,,,,,,,0,127,127,65,1
,,,,,,,,,,,,,,,,,60660870280f2b522cc3214b,22,2022-02-12_12h41.26.359,lexical_decision_task_DD_L5,2021.2.3,Win32,59.79430758,,,,,,,,,,,,0.5341,0,,,,,,,,,,,,,,,,,,,,,,,,0.523611132,-0.179166677,0,0,0,,,,,,,BRUSH,C,m,y,./images/BRUSH.png,,,,,,,,,,,,,,,,,,,,z,0,0.5341,,,,,,,,0,128,128,59,1
,,,,,,,,,,,,,,,,,60660870280f2b522cc3214b,22,2022-02-12_12h41.26.359,lexical_decision_task_DD_L5,2021.2.3,Win32,59.79430758,,,,,,,,,,,,0.7005,0,,,,,,,,,,,,,,,,,,,,,,,,0.523611132,-0.179166677,0,0,0,,,,,,,SAILOR,LB,z,y,./images/SAILORLB.png,,,,,,,,,,,,,,,,,,,,m,0,0.7005,,,,,,,,0,129,129,151,1
,,,,,,,,,,,,,,,,,60660870280f2b522cc3214b,22,2022-02-12_12h41.26.359,lexical_decision_task_DD_L5,2021.2.3,Win32,59.79430758,,,,,,,,,,,,0.6713,0,,,,,,,,,,,,,,,,,,,,,,,,0.523611132,-0.179166677,0,0,0,,,,,,,CANDY,HB,m,y,./images/CANDYHB.png,,,,,,,,,,,,,,,,,,,,z,0,0.6713,,,,,,,,0,130,130,39,1
,,,,,,,,,,,,,,,,,60660870280f2b522cc3214b,22,2022-02-12_12h41.26.359,lexical_decision_task_DD_L5,2021.2.3,Win32,59.79430758,,,,,,,,,,,,0.6011,1,,,,,,,,,,,,,,,,,,,,,,,,0.523611132,-0.179166677,0,0,0,,,,,,,CASINO,LB,m,y,./images/CASINOLB.png,,,,,,,,,,,,,,,,,,,,m,1,0.6011,,,,,,,,0,131,131,28,1
