key_resp.keys,instr_done_touch.x,instr_done_touch.y,instr_done_touch.leftButton,instr_done_touch.midButton,instr_done_touch.rightButton,instr_done_touch.clicked_name,instruction_pages.thisRepN,instruction_pages.thisTrialN,instruction_pages.thisN,instruction_pages.thisIndex,instruction_pages.ran,pageN,phase,instruct_text,has_image,instruct_image,participant,age,date,expName,psychopyVersion,OS,frameRate,response.keys,response.corr,touch_resp.x,touch_resp.y,touch_resp.leftButton,touch_resp.midButton,touch_resp.rightButton,touch_resp.time,touch_resp.clicked_name,rt,corr,practrials.thisRepN,practrials.thisTrialN,practrials.thisN,practrials.thisIndex,practrials.ran,TrialID,Target,corrAns,end_of_practice_trials_pages.thisRepN,end_of_practice_trials_pages.thisTrialN,end_of_practice_trials_pages.thisN,end_of_practice_trials_pages.thisIndex,end_of_practice_trials_pages.ran,key_resp_2.keys,key_resp_2.corr,targ_click.x,targ_click.y,targ_click.leftButton,targ_click.midButton,targ_click.rightButton,targ_click.time,targ_click.clicked_name,break_done_touch.x,break_done_touch.y,break_done_touch.leftButton,break_done_touch.midButton,break_done_touch.rightButton,break_done_keyboard.keys,maintrials.thisRepN,maintrials.thisTrialN,maintrials.thisN,maintrials.thisIndex,maintrials.ran,string,blur,study,lex,stim_path,break_done_touch.clicked_name,mouse_2.x,mouse_2.y,mouse_2.leftButton,mouse_2.midButton,mouse_2.rightButton,mouse_2.clicked_name,slider.response,slider.rt,trials.thisRepN,trials.thisTrialN,trials.thisN,trials.thisIndex,trials.ran,test_instructions.thisRepN,test_instructions.thisTrialN,test_instructions.thisN,test_instructions.thisIndex,test_instructions.ran,key_resp_3.keys,key_resp_3.corr,test_click.x,test_click.y,test_click.leftButton,test_click.midButton,test_click.rightButton,test_click.time,test_click.clicked_name,test_phase.thisRepN,test_phase.thisTrialN,test_phase.thisN,test_phase.thisIndex,test_phase.ran
,0.061192411,-0.391942589,1,0,0,instr_done_button,0,0,0,0,1,1,instructions,"INSTRUCTIONS
At the start of each trial, look at the plus sign  (+) in the center of the screen.  This tells you that a trial is about to begin and where to look. Second, the plus sign will disappear and a string of letters will appear. Your task is to determine if the string of letters is a word or not. If the item is a word press the M key (on keyboard)  or touch the word button (phone/tablet).  If the item is not a word,  press the  Z key (on keyboard)  or touch the nonword button (on phone/tablet). 
Press the space bar or touch  continue.",0,,60a2dd0e1d378ad4d982dae3,70,2022-02-12_15h04.31.621,lexical_decision_task_DD_L5,2021.2.3,Linux aarch64,120.0912694,,,,,,,,,,,,,,,,,,,,,,,,,,,,,,,,,,,,,,,,,,,,,,,,,,,,,,,,,,,,,,,,,,,,,,,,,,,,,,,,,,
,0.022513788,-0.385190945,1,0,0,instr_done_button,0,1,1,1,1,2,instructions,"If your device has a keyboard, press the 'Z' key for nonwords and the 'M' key for words.





Press the space bar or touch the button below to continue.",0,keyboard-example.gif,60a2dd0e1d378ad4d982dae3,70,2022-02-12_15h04.31.621,lexical_decision_task_DD_L5,2021.2.3,Linux aarch64,120.0912694,,,,,,,,,,,,,,,,,,,,,,,,,,,,,,,,,,,,,,,,,,,,,,,,,,,,,,,,,,,,,,,,,,,,,,,,,,,,,,,,,,
,0.034890962,-0.385331682,1,0,0,instr_done_button,0,2,2,2,1,3,instructions,"If you are using a touchscreen only device, use the buttons on the screen. Do not use the mouse.





Press the space bar or touch the button below to continue.",0,touchscreen-example.gif,60a2dd0e1d378ad4d982dae3,70,2022-02-12_15h04.31.621,lexical_decision_task_DD_L5,2021.2.3,Linux aarch64,120.0912694,,,,,,,,,,,,,,,,,,,,,,,,,,,,,,,,,,,,,,,,,,,,,,,,,,,,,,,,,,,,,,,,,,,,,,,,,,,,,,,,,,
,0.000994414,-0.379142835,1,0,0,instr_done_button,0,3,3,3,1,4,instructions,"It is very important that you respond as quickly and accurately as possible, as each letter string will only be on the screen for two seconds. If you do not respond within this time, the message 'Too slow!' will be displayed and the experiment will progress to the next letter string. The first 20 trials will be practice trials and you will receive feedback on your answers. 

Press the space bar or touch the button below to start the practice trials.",0,,60a2dd0e1d378ad4d982dae3,70,2022-02-12_15h04.31.621,lexical_decision_task_DD_L5,2021.2.3,Linux aarch64,120.0912694,,,,,,,,,,,,,,,,,,,,,,,,,,,,,,,,,,,,,,,,,,,,,,,,,,,,,,,,,,,,,,,,,,,,,,,,,,,,,,,,,,
,,,,,,,,,,,,,,,,,60a2dd0e1d378ad4d982dae3,70,2022-02-12_15h04.31.621,lexical_decision_task_DD_L5,2021.2.3,Linux aarch64,120.0912694,,0,0.253319972,-0.306985948,1,0,0,1.8925,button_right,1.8925,1,0,0,0,5,1,1001,OBTAIN,m,,,,,,,,,,,,,,,,,,,,,,,,,,,,,,,,,,,,,,,,,,,,,,,,,,,,,,,,,,,,,,,
,,,,,,,,,,,,,,,,,60a2dd0e1d378ad4d982dae3,70,2022-02-12_15h04.31.621,lexical_decision_task_DD_L5,2021.2.3,Linux aarch64,120.0912694,,0,-0.255128805,-0.292638982,1,0,0,1.6141,button_left,1.6141,1,0,1,1,12,1,1001,SPRINY,z,,,,,,,,,,,,,,,,,,,,,,,,,,,,,,,,,,,,,,,,,,,,,,,,,,,,,,,,,,,,,,,
,,,,,,,,,,,,,,,,,60a2dd0e1d378ad4d982dae3,70,2022-02-12_15h04.31.621,lexical_decision_task_DD_L5,2021.2.3,Linux aarch64,120.0912694,,0,0.248678485,-0.271259197,1,0,0,1.4799,button_right,1.4799,1,0,2,2,7,1,1001,VOLUME,m,,,,,,,,,,,,,,,,,,,,,,,,,,,,,,,,,,,,,,,,,,,,,,,,,,,,,,,,,,,,,,,
,,,,,,,,,,,,,,,,,60a2dd0e1d378ad4d982dae3,70,2022-02-12_15h04.31.621,lexical_decision_task_DD_L5,2021.2.3,Linux aarch64,120.0912694,,0,-0.259770254,-0.280964379,1,0,0,1.7513,button_left,1.7513,1,0,3,3,8,1,1001,ASLERT,z,,,,,,,,,,,,,,,,,,,,,,,,,,,,,,,,,,,,,,,,,,,,,,,,,,,,,,,,,,,,,,,
,,,,,,,,,,,,,,,,,60a2dd0e1d378ad4d982dae3,70,2022-02-12_15h04.31.621,lexical_decision_task_DD_L5,2021.2.3,Linux aarch64,120.0912694,,0,-0.264411667,-0.306423447,1,0,0,1.2377,button_left,1.2377,1,0,4,4,9,1,1001,FARINY,z,,,,,,,,,,,,,,,,,,,,,,,,,,,,,,,,,,,,,,,,,,,,,,,,,,,,,,,,,,,,,,,
,,,,,,,,,,,,,,,,,60a2dd0e1d378ad4d982dae3,70,2022-02-12_15h04.31.621,lexical_decision_task_DD_L5,2021.2.3,Linux aarch64,120.0912694,,0,-0.267787267,-0.306704623,1,0,0,1.3136,button_left,1.3136,1,0,5,5,15,1,1001,WHAISE,z,,,,,,,,,,,,,,,,,,,,,,,,,,,,,,,,,,,,,,,,,,,,,,,,,,,,,,,,,,,,,,,
,,,,,,,,,,,,,,,,,60a2dd0e1d378ad4d982dae3,70,2022-02-12_15h04.31.621,lexical_decision_task_DD_L5,2021.2.3,Linux aarch64,120.0912694,,0,0.256132922,-0.267180211,1,0,0,1.632,button_right,1.632,1,0,6,6,3,1,1001,MATRIX,m,,,,,,,,,,,,,,,,,,,,,,,,,,,,,,,,,,,,,,,,,,,,,,,,,,,,,,,,,,,,,,,
,,,,,,,,,,,,,,,,,60a2dd0e1d378ad4d982dae3,70,2022-02-12_15h04.31.621,lexical_decision_task_DD_L5,2021.2.3,Linux aarch64,120.0912694,,0,0.237004623,-0.274916269,1,0,0,1.5708,button_right,1.5708,1,0,7,7,0,1,1001,UTOPIA,m,,,,,,,,,,,,,,,,,,,,,,,,,,,,,,,,,,,,,,,,,,,,,,,,,,,,,,,,,,,,,,,
,,,,,,,,,,,,,,,,,60a2dd0e1d378ad4d982dae3,70,2022-02-12_15h04.31.621,lexical_decision_task_DD_L5,2021.2.3,Linux aarch64,120.0912694,,0,0.253601371,-0.255083547,1,0,0,1.0476,button_right,1.0476,1,0,8,8,4,1,1001,SQUEAK,m,,,,,,,,,,,,,,,,,,,,,,,,,,,,,,,,,,,,,,,,,,,,,,,,,,,,,,,,,,,,,,,
,,,,,,,,,,,,,,,,,60a2dd0e1d378ad4d982dae3,70,2022-02-12_15h04.31.621,lexical_decision_task_DD_L5,2021.2.3,Linux aarch64,120.0912694,,0,0.244459134,-0.25705282,1,0,0,2.0562,button_right,2.0562,0,0,9,9,10,1,1001,INLADE,z,,,,,,,,,,,,,,,,,,,,,,,,,,,,,,,,,,,,,,,,,,,,,,,,,,,,,,,,,,,,,,,
,,,,,,,,,,,,,,,,,60a2dd0e1d378ad4d982dae3,70,2022-02-12_15h04.31.621,lexical_decision_task_DD_L5,2021.2.3,Linux aarch64,120.0912694,,0,0.249522385,-0.243549828,1,0,0,1.1917,button_right,1.1917,1,0,10,10,1,1,1001,ADJUST,m,,,,,,,,,,,,,,,,,,,,,,,,,,,,,,,,,,,,,,,,,,,,,,,,,,,,,,,,,,,,,,,
,,,,,,,,,,,,,,,,,60a2dd0e1d378ad4d982dae3,70,2022-02-12_15h04.31.621,lexical_decision_task_DD_L5,2021.2.3,Linux aarch64,120.0912694,,0,-0.240641862,-0.312330968,1,0,0,1.611,button_left,1.611,1,0,11,11,11,1,1001,RASHET,z,,,,,,,,,,,,,,,,,,,,,,,,,,,,,,,,,,,,,,,,,,,,,,,,,,,,,,,,,,,,,,,
,,,,,,,,,,,,,,,,,60a2dd0e1d378ad4d982dae3,70,2022-02-12_15h04.31.621,lexical_decision_task_DD_L5,2021.2.3,Linux aarch64,120.0912694,,0,0.2164697,-0.2673208,1,0,0,1.714,button_right,1.714,1,0,12,12,6,1,1001,ZOMBIE,m,,,,,,,,,,,,,,,,,,,,,,,,,,,,,,,,,,,,,,,,,,,,,,,,,,,,,,,,,,,,,,,
,,,,,,,,,,,,,,,,,60a2dd0e1d378ad4d982dae3,70,2022-02-12_15h04.31.621,lexical_decision_task_DD_L5,2021.2.3,Linux aarch64,120.0912694,,0,0.246568772,-0.278573342,1,0,0,1.6305,button_right,1.6305,1,0,13,13,2,1,1001,ALMOND,m,,,,,,,,,,,,,,,,,,,,,,,,,,,,,,,,,,,,,,,,,,,,,,,,,,,,,,,,,,,,,,,
,,,,,,,,,,,,,,,,,60a2dd0e1d378ad4d982dae3,70,2022-02-12_15h04.31.621,lexical_decision_task_DD_L5,2021.2.3,Linux aarch64,120.0912694,,0,-0.210542827,-0.307548449,1,0,0,1.6298,button_left,1.6298,1,0,14,14,14,1,1001,THRALE,z,,,,,,,,,,,,,,,,,,,,,,,,,,,,,,,,,,,,,,,,,,,,,,,,,,,,,,,,,,,,,,,
,,,,,,,,,,,,,,,,,60a2dd0e1d378ad4d982dae3,70,2022-02-12_15h04.31.621,lexical_decision_task_DD_L5,2021.2.3,Linux aarch64,120.0912694,,0,-0.222076101,-0.321192325,1,0,0,1.508,button_left,1.508,1,0,15,15,13,1,1001,ROUPET,z,,,,,,,,,,,,,,,,,,,,,,,,,,,,,,,,,,,,,,,,,,,,,,,,,,,,,,,,,,,,,,,
,0.031234075,-0.382940496,1,0,0,instr_done_button,,,,,,1,end_of_practice,"You have completed the practice trials. During the experimental trials, you will not receive feedback. 
Before you begin, please ensure that you are in a comfortable and quiet location and will not be disturbed for about 15 minutes, as we cannot use your data if you do not complete all the trials. 
 When you are ready to start the experimental trials, please press space or touch the button below.",,,60a2dd0e1d378ad4d982dae3,70,2022-02-12_15h04.31.621,lexical_decision_task_DD_L5,2021.2.3,Linux aarch64,120.0912694,,,,,,,,,,,,,,,,,,,,0,0,0,0,1,,,,,,,,,,,,,,,,,,,,,,,,,,,,,,,,,,,,,,,,,,,,,,,,,,,,,,,,,,
,,,,,,,,,,,,,,,,,60a2dd0e1d378ad4d982dae3,70,2022-02-12_15h04.31.621,lexical_decision_task_DD_L5,2021.2.3,Linux aarch64,120.0912694,,,,,,,,,,1.6757,1,,,,,,,,,,,,,,,0,0.272307757,-0.217106495,1,0,0,1.6757,button_right_main,0.272307757,-0.217106495,1,0,0,,0,0,0,4,1,BOXER,LB,old,m,./images/BOXERLB.png,,,,,,,,,,,,,,,,,,,,,,,,,,,,,,,,,
,,,,,,,,,,,,,,,,,60a2dd0e1d378ad4d982dae3,70,2022-02-12_15h04.31.621,lexical_decision_task_DD_L5,2021.2.3,Linux aarch64,120.0912694,,,,,,,,,,2.3131,1,,,,,,,,,,,,,,,0,0.266822371,-0.22174813,1,0,0,2.3131,button_right_main,0.266822371,-0.22174813,1,0,0,,0,1,1,36,1,BOILER,HB,old,m,./images/BOILERHB.png,,,,,,,,,,,,,,,,,,,,,,,,,,,,,,,,,
,,,,,,,,,,,,,,,,,60a2dd0e1d378ad4d982dae3,70,2022-02-12_15h04.31.621,lexical_decision_task_DD_L5,2021.2.3,Linux aarch64,120.0912694,,,,,,,,,,1.4571,1,,,,,,,,,,,,,,,0,-0.259067017,-0.364795722,1,0,0,1.4571,button_left_main,-0.259067017,-0.364795722,1,0,0,,0,2,2,140,1,DOVET,LB,old,z,./images/DOVETLB.png,,,,,,,,,,,,,,,,,,,,,,,,,,,,,,,,,
,,,,,,,,,,,,,,,,,60a2dd0e1d378ad4d982dae3,70,2022-02-12_15h04.31.621,lexical_decision_task_DD_L5,2021.2.3,Linux aarch64,120.0912694,,,,,,,,,,2.1904,1,,,,,,,,,,,,,,,0,0.234472997,-0.266195501,1,0,0,2.1904,button_right_main,0.234472997,-0.266195501,1,0,0,,0,3,3,9,1,DIVER,HB,old,m,./images/DIVERHB.png,,,,,,,,,,,,,,,,,,,,,,,,,,,,,,,,,
,,,,,,,,,,,,,,,,,60a2dd0e1d378ad4d982dae3,70,2022-02-12_15h04.31.621,lexical_decision_task_DD_L5,2021.2.3,Linux aarch64,120.0912694,,,,,,,,,,1.781,1,,,,,,,,,,,,,,,0,0.256554909,-0.250019999,1,0,0,1.781,button_right_main,0.256554909,-0.250019999,1,0,0,,0,4,4,66,1,STATUE,HB,old,m,./images/STATUEHB.png,,,,,,,,,,,,,,,,,,,,,,,,,,,,,,,,,
,,,,,,,,,,,,,,,,,60a2dd0e1d378ad4d982dae3,70,2022-02-12_15h04.31.621,lexical_decision_task_DD_L5,2021.2.3,Linux aarch64,120.0912694,,,,,,,,,,0.9791,1,,,,,,,,,,,,,,,0,0.267947595,-0.256208846,1,0,0,0.9791,button_right_main,0.267947595,-0.256208846,1,0,0,,0,5,5,29,1,PISTOL,C,old,m,./images/PISTOL.png,,,,,,,,,,,,,,,,,,,,,,,,,,,,,,,,,
,,,,,,,,,,,,,,,,,60a2dd0e1d378ad4d982dae3,70,2022-02-12_15h04.31.621,lexical_decision_task_DD_L5,2021.2.3,Linux aarch64,120.0912694,,,,,,,,,,1.6628,1,,,,,,,,,,,,,,,0,-0.202244509,-0.315706716,1,0,0,1.6628,button_left_main,-0.202244509,-0.315706716,1,0,0,,0,6,6,99,1,BACKY,C,old,z,./images/BACKY.png,,,,,,,,,,,,,,,,,,,,,,,,,,,,,,,,,
,,,,,,,,,,,,,,,,,60a2dd0e1d378ad4d982dae3,70,2022-02-12_15h04.31.621,lexical_decision_task_DD_L5,2021.2.3,Linux aarch64,120.0912694,,,,,,,,,,1.3407,1,,,,,,,,,,,,,,,0,-0.259067017,-0.334695316,1,0,0,1.3407,button_left_main,-0.259067017,-0.334695316,1,0,0,,0,7,7,147,1,ZOLES,C,old,z,./images/ZOLES.png,,,,,,,,,,,,,,,,,,,,,,,,,,,,,,,,,
,,,,,,,,,,,,,,,,,60a2dd0e1d378ad4d982dae3,70,2022-02-12_15h04.31.621,lexical_decision_task_DD_L5,2021.2.3,Linux aarch64,120.0912694,,,,,,,,,,2.3475,1,,,,,,,,,,,,,,,0,-0.255269486,-0.34144696,1,0,0,2.3475,button_left_main,-0.255269486,-0.34144696,1,0,0,,0,8,8,88,1,GLUSH,HB,old,z,./images/GLUSHHB.png,,,,,,,,,,,,,,,,,,,,,,,,,,,,,,,,,
,,,,,,,,,,,,,,,,,60a2dd0e1d378ad4d982dae3,70,2022-02-12_15h04.31.621,lexical_decision_task_DD_L5,2021.2.3,Linux aarch64,120.0912694,,,,,,,,,,1.4722,1,,,,,,,,,,,,,,,0,-0.249221543,-0.322880125,1,0,0,1.4722,button_left_main,-0.249221543,-0.322880125,1,0,0,,0,9,9,137,1,JOOST,LB,old,z,./images/JOOSTLB.png,,,,,,,,,,,,,,,,,,,,,,,,,,,,,,,,,
,,,,,,,,,,,,,,,,,60a2dd0e1d378ad4d982dae3,70,2022-02-12_15h04.31.621,lexical_decision_task_DD_L5,2021.2.3,Linux aarch64,120.0912694,,,,,,,,,,1.3984,1,,,,,,,,,,,,,,,0,-0.245845943,-0.315847304,1,0,0,1.3984,button_left_main,-0.245845943,-0.315847304,1,0,0,,0,10,10,111,1,HOSSE,C,old,z,./images/HOSSE.png,,,,,,,,,,,,,,,,,,,,,,,,,,,,,,,,,
,,,,,,,,,,,,,,,,,60a2dd0e1d378ad4d982dae3,70,2022-02-12_15h04.31.621,lexical_decision_task_DD_L5,2021.2.3,Linux aarch64,120.0912694,,,,,,,,,,1.5786,1,,,,,,,,,,,,,,,0,0.221111186,-0.250019999,1,0,0,1.5786,button_right_main,0.221111186,-0.250019999,1,0,0,,0,11,11,8,1,CLIFF,C,old,m,./images/CLIFF.png,,,,,,,,,,,,,,,,,,,,,,,,,,,,,,,,,
,,,,,,,,,,,,,,,,,60a2dd0e1d378ad4d982dae3,70,2022-02-12_15h04.31.621,lexical_decision_task_DD_L5,2021.2.3,Linux aarch64,120.0912694,,,,,,,,,,1.4628,1,,,,,,,,,,,,,,,0,0.257398809,-0.249316762,1,0,0,1.4628,button_right_main,0.257398809,-0.249316762,1,0,0,,0,12,12,27,1,BUTTER,HB,old,m,./images/BUTTERHB.png,,,,,,,,,,,,,,,,,,,,,,,,,,,,,,,,,
,,,,,,,,,,,,,,,,,60a2dd0e1d378ad4d982dae3,70,2022-02-12_15h04.31.621,lexical_decision_task_DD_L5,2021.2.3,Linux aarch64,120.0912694,,,,,,,,,,1.5751,1,,,,,,,,,,,,,,,0,-0.200416083,-0.304032113,1,0,0,1.5751,button_left_main,-0.200416083,-0.304032113,1,0,0,,0,13,13,108,1,GRUET,C,old,z,./images/GRUET.png,,,,,,,,,,,,,,,,,,,,,,,,,,,,,,,,,
,,,,,,,,,,,,,,,,,60a2dd0e1d378ad4d982dae3,70,2022-02-12_15h04.31.621,lexical_decision_task_DD_L5,2021.2.3,Linux aarch64,120.0912694,,,,,,,,,,2.0238,1,,,,,,,,,,,,,,,0,-0.233890682,-0.31556598,1,0,0,2.0238,button_left_main,-0.233890682,-0.31556598,1,0,0,,0,14,14,157,1,INLER,HB,old,z,./images/INLERHB.png,,,,,,,,,,,,,,,,,,,,,,,,,,,,,,,,,
,,,,,,,,,,,,,,,,,60a2dd0e1d378ad4d982dae3,70,2022-02-12_15h04.31.621,lexical_decision_task_DD_L5,2021.2.3,Linux aarch64,120.0912694,,,,,,,,,,1.5861,1,,,,,,,,,,,,,,,0,-0.248518286,-0.312752881,1,0,0,1.5861,button_left_main,-0.248518286,-0.312752881,1,0,0,,0,15,15,156,1,HIXES,C,old,z,./images/HIXES.png,,,,,,,,,,,,,,,,,,,,,,,,,,,,,,,,,
,,,,,,,,,,,,,,,,,60a2dd0e1d378ad4d982dae3,70,2022-02-12_15h04.31.621,lexical_decision_task_DD_L5,2021.2.3,Linux aarch64,120.0912694,,,,,,,,,,1.3412,1,,,,,,,,,,,,,,,0,0.241786698,-0.251285886,1,0,0,1.3412,button_right_main,0.241786698,-0.251285886,1,0,0,,0,16,16,49,1,BISHOP,LB,old,m,./images/BISHOPLB.png,,,,,,,,,,,,,,,,,,,,,,,,,,,,,,,,,
,,,,,,,,,,,,,,,,,60a2dd0e1d378ad4d982dae3,70,2022-02-12_15h04.31.621,lexical_decision_task_DD_L5,2021.2.3,Linux aarch64,120.0912694,,,,,,,,,,1.2883,1,,,,,,,,,,,,,,,0,0.231941149,-0.230890663,1,0,0,1.2883,button_right_main,0.231941149,-0.230890663,1,0,0,,0,17,17,74,1,JUMPER,C,old,m,./images/JUMPER.png,,,,,,,,,,,,,,,,,,,,,,,,,,,,,,,,,
,,,,,,,,,,,,,,,,,60a2dd0e1d378ad4d982dae3,70,2022-02-12_15h04.31.621,lexical_decision_task_DD_L5,2021.2.3,Linux aarch64,120.0912694,,,,,,,,,,1.0214,1,,,,,,,,,,,,,,,0,0.244318323,-0.224842553,1,0,0,1.0214,button_right_main,0.244318323,-0.224842553,1,0,0,,0,18,18,46,1,MUMMY,LB,old,m,./images/MUMMYLB.png,,,,,,,,,,,,,,,,,,,,,,,,,,,,,,,,,
,,,,,,,,,,,,,,,,,60a2dd0e1d378ad4d982dae3,70,2022-02-12_15h04.31.621,lexical_decision_task_DD_L5,2021.2.3,Linux aarch64,120.0912694,,,,,,,,,,1.906,1,,,,,,,,,,,,,,,0,-0.245283312,-0.285746898,1,0,0,1.906,button_left_main,-0.245283312,-0.285746898,1,0,0,,0,19,19,129,1,PRANS,C,old,z,./images/PRANS.png,,,,,,,,,,,,,,,,,,,,,,,,,,,,,,,,,
,,,,,,,,,,,,,,,,,60a2dd0e1d378ad4d982dae3,70,2022-02-12_15h04.31.621,lexical_decision_task_DD_L5,2021.2.3,Linux aarch64,120.0912694,,,,,,,,,,1.9297,0,,,,,,,,,,,,,,,0,-0.226998857,-0.332022806,1,0,0,1.9297,button_left_main,-0.226998857,-0.332022806,1,0,0,,0,20,20,57,1,FERRY,HB,old,m,./images/FERRYHB.png,,,,,,,,,,,,,,,,,,,,,,,,,,,,,,,,,
,,,,,,,,,,,,,,,,,60a2dd0e1d378ad4d982dae3,70,2022-02-12_15h04.31.621,lexical_decision_task_DD_L5,2021.2.3,Linux aarch64,120.0912694,,,,,,,,,,2.0734,1,,,,,,,,,,,,,,,0,-0.218700502,-0.307970806,1,0,0,2.0734,button_left_main,-0.218700502,-0.307970806,1,0,0,,0,21,21,106,1,CLUMS,HB,old,z,./images/CLUMSHB.png,,,,,,,,,,,,,,,,,,,,,,,,,,,,,,,,,
,,,,,,,,,,,,,,,,,60a2dd0e1d378ad4d982dae3,70,2022-02-12_15h04.31.621,lexical_decision_task_DD_L5,2021.2.3,Linux aarch64,120.0912694,,,,,,,,,,1.2897,1,,,,,,,,,,,,,,,0,0.230534822,-0.256208846,1,0,0,1.2897,button_right_main,0.230534822,-0.256208846,1,0,0,,0,22,22,65,1,SPINE,C,old,m,./images/SPINE.png,,,,,,,,,,,,,,,,,,,,,,,,,,,,,,,,,
,,,,,,,,,,,,,,,,,60a2dd0e1d378ad4d982dae3,70,2022-02-12_15h04.31.621,lexical_decision_task_DD_L5,2021.2.3,Linux aarch64,120.0912694,,,,,,,,,,1.555,1,,,,,,,,,,,,,,,0,-0.211949358,-0.285887339,1,0,0,1.555,button_left_main,-0.211949358,-0.285887339,1,0,0,,0,23,23,132,1,SCIFF,C,old,z,./images/SCIFF.png,,,,,,,,,,,,,,,,,,,,,,,,,,,,,,,,,
,,,,,,,,,,,,,,,,,60a2dd0e1d378ad4d982dae3,70,2022-02-12_15h04.31.621,lexical_decision_task_DD_L5,2021.2.3,Linux aarch64,120.0912694,,,,,,,,,,1.6224,1,,,,,,,,,,,,,,,0,-0.252175155,-0.301500339,1,0,0,1.6224,button_left_main,-0.252175155,-0.301500339,1,0,0,,0,24,24,162,1,LEICH,C,old,z,./images/LEICH.png,,,,,,,,,,,,,,,,,,,,,,,,,,,,,,,,,
,,,,,,,,,,,,,,,,,60a2dd0e1d378ad4d982dae3,70,2022-02-12_15h04.31.621,lexical_decision_task_DD_L5,2021.2.3,Linux aarch64,120.0912694,,,,,,,,,,1.5461,1,,,,,,,,,,,,,,,0,-0.231921576,-0.298265179,1,0,0,1.5461,button_left_main,-0.231921576,-0.298265179,1,0,0,,0,25,25,143,1,MONGS,LB,old,z,./images/MONGSLB.png,,,,,,,,,,,,,,,,,,,,,,,,,,,,,,,,,
,,,,,,,,,,,,,,,,,60a2dd0e1d378ad4d982dae3,70,2022-02-12_15h04.31.621,lexical_decision_task_DD_L5,2021.2.3,Linux aarch64,120.0912694,,,,,,,,,,2.0977,1,,,,,,,,,,,,,,,0,0.174978015,-0.260569156,1,0,0,2.0977,button_right_main,0.243193321,-0.222310631,1,0,0,,0,26,26,12,1,BLOKE,HB,old,m,./images/BLOKEHB.png,,,,,,,,,,,,,,,,,,,,,,,,,,,,,,,,,
,,,,,,,,,,,,,,,,,60a2dd0e1d378ad4d982dae3,70,2022-02-12_15h04.31.621,lexical_decision_task_DD_L5,2021.2.3,Linux aarch64,120.0912694,,,,,,,,,,1.8701,1,,,,,,,,,,,,,,,0,-0.223904582,-0.286168811,1,0,0,1.8701,button_left_main,-0.223904582,-0.286168811,1,0,0,,0,27,27,85,1,CHULK,HB,old,z,./images/CHULKHB.png,,,,,,,,,,,,,,,,,,,,,,,,,,,,,,,,,
,,,,,,,,,,,,,,,,,60a2dd0e1d378ad4d982dae3,70,2022-02-12_15h04.31.621,lexical_decision_task_DD_L5,2021.2.3,Linux aarch64,120.0912694,,,,,,,,,,1.4483,1,,,,,,,,,,,,,,,0,-0.245423956,-0.293764429,1,0,0,1.4483,button_left_main,-0.245423956,-0.293764429,1,0,0,,0,28,28,86,1,AIFED,LB,old,z,./images/AIFEDLB.png,,,,,,,,,,,,,,,,,,,,,,,,,,,,,,,,,
,,,,,,,,,,,,,,,,,60a2dd0e1d378ad4d982dae3,70,2022-02-12_15h04.31.621,lexical_decision_task_DD_L5,2021.2.3,Linux aarch64,120.0912694,,,,,,,,,,1.2479,1,,,,,,,,,,,,,,,0,0.212953438,-0.296296055,1,0,0,1.2479,button_right_main,0.212953438,-0.296296055,1,0,0,,0,29,29,52,1,DESERT,LB,old,m,./images/DESERTLB.png,,,,,,,,,,,,,,,,,,,,,,,,,,,,,,,,,
,,,,,,,,,,,,,,,,,60a2dd0e1d378ad4d982dae3,70,2022-02-12_15h04.31.621,lexical_decision_task_DD_L5,2021.2.3,Linux aarch64,120.0912694,,,,,,,,,,2.2394,1,,,,,,,,,,,,,,,0,-0.238813456,-0.289544559,1,0,0,2.2394,button_left_main,-0.238813456,-0.289544559,1,0,0,,0,30,30,146,1,MOOST,LB,old,z,./images/MOOSTLB.png,,,,,,,,,,,,,,,,,,,,,,,,,,,,,,,,,
,,,,,,,,,,,,,,,,,60a2dd0e1d378ad4d982dae3,70,2022-02-12_15h04.31.621,lexical_decision_task_DD_L5,2021.2.3,Linux aarch64,120.0912694,,,,,,,,,,1.2714,1,,,,,,,,,,,,,,,0,-0.282274191,-0.329631768,1,0,0,1.2714,button_left_main,-0.282274191,-0.329631768,1,0,0,,0,31,31,113,1,LINEW,LB,old,z,./images/LINEWLB.png,,,,,,,,,,,,,,,,,,,,,,,,,,,,,,,,,
,,,,,,,,,,,,,,,,,60a2dd0e1d378ad4d982dae3,70,2022-02-12_15h04.31.621,lexical_decision_task_DD_L5,2021.2.3,Linux aarch64,120.0912694,,,,,,,,,,1.5423,1,,,,,,,,,,,,,,,0,-0.248799556,-0.301359603,1,0,0,1.5423,button_left_main,-0.248799556,-0.301359603,1,0,0,,0,32,32,141,1,PLEET,C,old,z,./images/PLEET.png,,,,,,,,,,,,,,,,,,,,,,,,,,,,,,,,,
,,,,,,,,,,,,,,,,,60a2dd0e1d378ad4d982dae3,70,2022-02-12_15h04.31.621,lexical_decision_task_DD_L5,2021.2.3,Linux aarch64,120.0912694,,,,,,,,,,1.5716,1,,,,,,,,,,,,,,,0,0.243474497,-0.248754112,1,0,0,1.5716,button_right_main,0.243474497,-0.248754112,1,0,0,,0,33,33,79,1,RULER,LB,old,m,./images/RULERLB.png,,,,,,,,,,,,,,,,,,,,,,,,,,,,,,,,,
,,,,,,,,,,,,,,,,,60a2dd0e1d378ad4d982dae3,70,2022-02-12_15h04.31.621,lexical_decision_task_DD_L5,2021.2.3,Linux aarch64,120.0912694,,,,,,,,,,1.7291,1,,,,,,,,,,,,,,,0,0.22898761,-0.257896942,1,0,0,1.7291,button_right_main,0.22898761,-0.257896942,1,0,0,,0,34,34,33,1,SAUNA,HB,old,m,./images/SAUNAHB.png,,,,,,,,,,,,,,,,,,,,,,,,,,,,,,,,,
,,,,,,,,,,,,,,,,,60a2dd0e1d378ad4d982dae3,70,2022-02-12_15h04.31.621,lexical_decision_task_DD_L5,2021.2.3,Linux aarch64,120.0912694,,,,,,,,,,3.071,1,,,,,,,,,,,,,,,0,-0.241907731,-0.281386292,1,0,0,3.071,button_left_main,-0.241907731,-0.281386292,1,0,0,,0,35,35,163,1,GAMBA,HB,old,z,./images/GAMBAHB.png,,,,,,,,,,,,,,,,,,,,,,,,,,,,,,,,,
,,,,,,,,,,,,,,,,,60a2dd0e1d378ad4d982dae3,70,2022-02-12_15h04.31.621,lexical_decision_task_DD_L5,2021.2.3,Linux aarch64,120.0912694,,,,,,,,,,1.9222,1,,,,,,,,,,,,,,,0,-0.229530538,-0.282792915,1,0,0,1.9222,button_left_main,-0.229530538,-0.282792915,1,0,0,,0,36,36,126,1,GUELS,C,old,z,./images/GUELS.png,,,,,,,,,,,,,,,,,,,,,,,,,,,,,,,,,
,,,,,,,,,,,,,,,,,60a2dd0e1d378ad4d982dae3,70,2022-02-12_15h04.31.621,lexical_decision_task_DD_L5,2021.2.3,Linux aarch64,120.0912694,,,,,,,,,,1.289,1,,,,,,,,,,,,,,,0,0.235035498,-0.256630907,1,0,0,1.289,button_right_main,0.235035498,-0.256630907,1,0,0,,0,37,37,26,1,CLOUD,C,old,m,./images/CLOUD.png,,,,,,,,,,,,,,,,,,,,,,,,,,,,,,,,,
,,,,,,,,,,,,,,,,,60a2dd0e1d378ad4d982dae3,70,2022-02-12_15h04.31.621,lexical_decision_task_DD_L5,2021.2.3,Linux aarch64,120.0912694,,,,,,,,,,2.0549,1,,,,,,,,,,,,,,,0,-0.248377606,-0.28194909,1,0,0,2.0549,button_left_main,-0.248377606,-0.28194909,1,0,0,,0,38,38,159,1,CUDDY,C,old,z,./images/CUDDY.png,,,,,,,,,,,,,,,,,,,,,,,,,,,,,,,,,
,,,,,,,,,,,,,,,,,60a2dd0e1d378ad4d982dae3,70,2022-02-12_15h04.31.621,lexical_decision_task_DD_L5,2021.2.3,Linux aarch64,120.0912694,,,,,,,,,,1.6061,1,,,,,,,,,,,,,,,0,-0.249221543,-0.287715875,1,0,0,1.6061,button_left_main,-0.249221543,-0.287715875,1,0,0,,0,39,39,118,1,BAVEL,HB,old,z,./images/BAVELHB.png,,,,,,,,,,,,,,,,,,,,,,,,,,,,,,,,,
,,,,,,,,,,,,,,,,,60a2dd0e1d378ad4d982dae3,70,2022-02-12_15h04.31.621,lexical_decision_task_DD_L5,2021.2.3,Linux aarch64,120.0912694,,,,,,,,,,1.9066,1,,,,,,,,,,,,,,,0,-0.239798,-0.277166867,1,0,0,1.9066,button_left_main,-0.239798,-0.277166867,1,0,0,,0,40,40,120,1,RINED,C,old,z,./images/RINED.png,,,,,,,,,,,,,,,,,,,,,,,,,,,,,,,,,
,,,,,,,,,,,,,,,,,60a2dd0e1d378ad4d982dae3,70,2022-02-12_15h04.31.621,lexical_decision_task_DD_L5,2021.2.3,Linux aarch64,120.0912694,,,,,,,,,,1.4551,1,,,,,,,,,,,,,,,0,0.271182532,-0.221607393,1,0,0,1.4551,button_right_main,0.152333528,-0.383503145,1,0,0,,0,41,41,17,1,PARADE,C,old,m,./images/PARADE.png,break_done_button,,,,,,,,,,,,,,,,,,,,,,,,,,,,,,,,
,,,,,,,,,,,,,,,,,60a2dd0e1d378ad4d982dae3,70,2022-02-12_15h04.31.621,lexical_decision_task_DD_L5,2021.2.3,Linux aarch64,120.0912694,,,,,,,,,,1.1478,1,,,,,,,,,,,,,,,0,0.264431259,-0.235391709,1,0,0,1.1478,button_right_main,0.264431259,-0.235391709,1,0,0,,0,42,42,56,1,HEATER,C,old,m,./images/HEATER.png,,,,,,,,,,,,,,,,,,,,,,,,,,,,,,,,,
,,,,,,,,,,,,,,,,,60a2dd0e1d378ad4d982dae3,70,2022-02-12_15h04.31.621,lexical_decision_task_DD_L5,2021.2.3,Linux aarch64,120.0912694,,,,,,,,,,1.8296,1,,,,,,,,,,,,,,,0,-0.253581686,-0.320770412,1,0,0,1.8296,button_left_main,-0.253581686,-0.320770412,1,0,0,,0,43,43,133,1,POWDY,HB,old,z,./images/POWDYHB.png,,,,,,,,,,,,,,,,,,,,,,,,,,,,,,,,,
,,,,,,,,,,,,,,,,,60a2dd0e1d378ad4d982dae3,70,2022-02-12_15h04.31.621,lexical_decision_task_DD_L5,2021.2.3,Linux aarch64,120.0912694,,,,,,,,,,1.7984,1,,,,,,,,,,,,,,,0,-0.245002024,-0.320067026,1,0,0,1.7984,button_left_main,-0.245002024,-0.320067026,1,0,0,,0,44,44,142,1,PLASK,HB,old,z,./images/PLASKHB.png,,,,,,,,,,,,,,,,,,,,,,,,,,,,,,,,,
,,,,,,,,,,,,,,,,,60a2dd0e1d378ad4d982dae3,70,2022-02-12_15h04.31.621,lexical_decision_task_DD_L5,2021.2.3,Linux aarch64,120.0912694,,,,,,,,,,1.4147,1,,,,,,,,,,,,,,,0,-0.248658912,-0.315987893,1,0,0,1.4147,button_left_main,-0.248658912,-0.315987893,1,0,0,,0,45,45,123,1,SEDGE,C,old,z,./images/SEDGE.png,,,,,,,,,,,,,,,,,,,,,,,,,,,,,,,,,
,,,,,,,,,,,,,,,,,60a2dd0e1d378ad4d982dae3,70,2022-02-12_15h04.31.621,lexical_decision_task_DD_L5,2021.2.3,Linux aarch64,120.0912694,,,,,,,,,,1.1478,1,,,,,,,,,,,,,,,0,-0.254003617,-0.313878032,1,0,0,1.1478,button_left_main,-0.254003617,-0.313878032,1,0,0,,0,46,46,138,1,PLICE,C,old,z,./images/PLICE.png,,,,,,,,,,,,,,,,,,,,,,,,,,,,,,,,,
,,,,,,,,,,,,,,,,,60a2dd0e1d378ad4d982dae3,70,2022-02-12_15h04.31.621,lexical_decision_task_DD_L5,2021.2.3,Linux aarch64,120.0912694,,,,,,,,,,2.8872,1,,,,,,,,,,,,,,,0,-0.265396229,-0.316972603,1,0,0,2.8872,button_left_main,-0.265396229,-0.316972603,1,0,0,,0,47,47,154,1,THINT,HB,old,z,./images/THINTHB.png,,,,,,,,,,,,,,,,,,,,,,,,,,,,,,,,,
,,,,,,,,,,,,,,,,,60a2dd0e1d378ad4d982dae3,70,2022-02-12_15h04.31.621,lexical_decision_task_DD_L5,2021.2.3,Linux aarch64,120.0912694,,,,,,,,,,1.322,1,,,,,,,,,,,,,,,0,-0.237406962,-0.307267272,1,0,0,1.322,button_left_main,-0.237406962,-0.307267272,1,0,0,,0,48,48,150,1,NOOLS,C,old,z,./images/NOOLS.png,,,,,,,,,,,,,,,,,,,,,,,,,,,,,,,,,
,,,,,,,,,,,,,,,,,60a2dd0e1d378ad4d982dae3,70,2022-02-12_15h04.31.621,lexical_decision_task_DD_L5,2021.2.3,Linux aarch64,120.0912694,,,,,,,,,,1.9495,1,,,,,,,,,,,,,,,0,0.202967375,-0.241299231,1,0,0,1.9495,button_right_main,0.202967375,-0.241299231,1,0,0,,0,49,49,22,1,CLOWN,LB,old,m,./images/CLOWNLB.png,,,,,,,,,,,,,,,,,,,,,,,,,,,,,,,,,
,,,,,,,,,,,,,,,,,60a2dd0e1d378ad4d982dae3,70,2022-02-12_15h04.31.621,lexical_decision_task_DD_L5,2021.2.3,Linux aarch64,120.0912694,,,,,,,,,,1.4242,1,,,,,,,,,,,,,,,0,0.26119647,-0.223998431,1,0,0,1.4242,button_right_main,0.26119647,-0.223998431,1,0,0,,0,50,50,30,1,SLOPE,HB,old,m,./images/SLOPEHB.png,,,,,,,,,,,,,,,,,,,,,,,,,,,,,,,,,
,,,,,,,,,,,,,,,,,60a2dd0e1d378ad4d982dae3,70,2022-02-12_15h04.31.621,lexical_decision_task_DD_L5,2021.2.3,Linux aarch64,120.0912694,,,,,,,,,,2.5046,1,,,,,,,,,,,,,,,0,-0.272569397,-0.298265179,1,0,0,2.5046,button_left_main,-0.272569397,-0.298265179,1,0,0,,0,51,51,100,1,DRIBS,HB,old,z,./images/DRIBSHB.png,,,,,,,,,,,,,,,,,,,,,,,,,,,,,,,,,
,,,,,,,,,,,,,,,,,60a2dd0e1d378ad4d982dae3,70,2022-02-12_15h04.31.621,lexical_decision_task_DD_L5,2021.2.3,Linux aarch64,120.0912694,,,,,,,,,,2.305,1,,,,,,,,,,,,,,,0,-0.270178304,-0.297280765,1,0,0,2.305,button_left_main,-0.270178304,-0.297280765,1,0,0,,0,52,52,97,1,CHIDS,HB,old,z,./images/CHIDSHB.png,,,,,,,,,,,,,,,,,,,,,,,,,,,,,,,,,
,,,,,,,,,,,,,,,,,60a2dd0e1d378ad4d982dae3,70,2022-02-12_15h04.31.621,lexical_decision_task_DD_L5,2021.2.3,Linux aarch64,120.0912694,,,,,,,,,,1.4554,1,,,,,,,,,,,,,,,0,0.241505373,-0.223295341,1,0,0,1.4554,button_right_main,0.241505373,-0.223295341,1,0,0,,0,53,53,61,1,ARTIST,LB,old,m,./images/ARTISTLB.png,,,,,,,,,,,,,,,,,,,,,,,,,,,,,,,,,
,,,,,,,,,,,,,,,,,60a2dd0e1d378ad4d982dae3,70,2022-02-12_15h04.31.621,lexical_decision_task_DD_L5,2021.2.3,Linux aarch64,120.0912694,,,,,,,,,,1.5731,0,,,,,,,,,,,,,,,0,0.267806859,-0.221185332,1,0,0,1.5731,button_right_main,0.267806859,-0.221185332,1,0,0,,0,54,54,128,1,GRIFT,LB,old,z,./images/GRIFTLB.png,,,,,,,,,,,,,,,,,,,,,,,,,,,,,,,,,
,,,,,,,,,,,,,,,,,60a2dd0e1d378ad4d982dae3,70,2022-02-12_15h04.31.621,lexical_decision_task_DD_L5,2021.2.3,Linux aarch64,120.0912694,,,,,,,,,,1.2499,1,,,,,,,,,,,,,,,0,0.245021635,-0.213308686,1,0,0,1.2499,button_right_main,0.245021635,-0.213308686,1,0,0,,0,55,55,11,1,MEDAL,C,old,m,./images/MEDAL.png,,,,,,,,,,,,,,,,,,,,,,,,,,,,,,,,,
,,,,,,,,,,,,,,,,,60a2dd0e1d378ad4d982dae3,70,2022-02-12_15h04.31.621,lexical_decision_task_DD_L5,2021.2.3,Linux aarch64,120.0912694,,,,,,,,,,1.0752,1,,,,,,,,,,,,,,,0,0.245443548,-0.210214263,1,0,0,1.0752,button_right_main,0.245443548,-0.210214263,1,0,0,,0,56,56,37,1,TIGER,LB,old,m,./images/TIGERLB.png,,,,,,,,,,,,,,,,,,,,,,,,,,,,,,,,,
,,,,,,,,,,,,,,,,,60a2dd0e1d378ad4d982dae3,70,2022-02-12_15h04.31.621,lexical_decision_task_DD_L5,2021.2.3,Linux aarch64,120.0912694,,,,,,,,,,1.0396,1,,,,,,,,,,,,,,,0,0.25346056,-0.220482095,1,0,0,1.0396,button_right_main,0.25346056,-0.220482095,1,0,0,,0,57,57,14,1,FENCE,C,old,m,./images/FENCE.png,,,,,,,,,,,,,,,,,,,,,,,,,,,,,,,,,
,,,,,,,,,,,,,,,,,60a2dd0e1d378ad4d982dae3,70,2022-02-12_15h04.31.621,lexical_decision_task_DD_L5,2021.2.3,Linux aarch64,120.0912694,,,,,,,,,,1.5317,1,,,,,,,,,,,,,,,0,-0.257379217,-0.327521759,1,0,0,1.5317,button_left_main,-0.257379217,-0.327521759,1,0,0,,0,58,58,119,1,PAFER,LB,old,z,./images/PAFERLB.png,,,,,,,,,,,,,,,,,,,,,,,,,,,,,,,,,
,,,,,,,,,,,,,,,,,60a2dd0e1d378ad4d982dae3,70,2022-02-12_15h04.31.621,lexical_decision_task_DD_L5,2021.2.3,Linux aarch64,120.0912694,,,,,,,,,,1.6154,1,,,,,,,,,,,,,,,0,0.259649184,-0.227655651,1,0,0,1.6154,button_right_main,0.259649184,-0.227655651,1,0,0,,0,59,59,20,1,GRANNY,C,old,m,./images/GRANNY.png,,,,,,,,,,,,,,,,,,,,,,,,,,,,,,,,,
,,,,,,,,,,,,,,,,,60a2dd0e1d378ad4d982dae3,70,2022-02-12_15h04.31.621,lexical_decision_task_DD_L5,2021.2.3,Linux aarch64,120.0912694,,,,,,,,,,0.981,1,,,,,,,,,,,,,,,0,0.257680134,-0.261975779,1,0,0,0.981,button_right_main,0.257680134,-0.261975779,1,0,0,,0,60,60,80,1,PLANET,C,old,m,./images/PLANET.png,,,,,,,,,,,,,,,,,,,,,,,,,,,,,,,,,
,,,,,,,,,,,,,,,,,60a2dd0e1d378ad4d982dae3,70,2022-02-12_15h04.31.621,lexical_decision_task_DD_L5,2021.2.3,Linux aarch64,120.0912694,,,,,,,,,,0.792,1,,,,,,,,,,,,,,,0,0.278918146,-0.275619655,1,0,0,0.792,button_right_main,0.278918146,-0.275619655,1,0,0,,0,61,61,28,1,CASINO,LB,old,m,./images/CASINOLB.png,,,,,,,,,,,,,,,,,,,,,,,,,,,,,,,,,
,,,,,,,,,,,,,,,,,60a2dd0e1d378ad4d982dae3,70,2022-02-12_15h04.31.621,lexical_decision_task_DD_L5,2021.2.3,Linux aarch64,120.0912694,,,,,,,,,,1.9655,1,,,,,,,,,,,,,,,0,0.245162223,-0.231312576,1,0,0,1.9655,button_right_main,0.245162223,-0.231312576,1,0,0,,0,62,62,60,1,CURRY,HB,old,m,./images/CURRYHB.png,,,,,,,,,,,,,,,,,,,,,,,,,,,,,,,,,
,,,,,,,,,,,,,,,,,60a2dd0e1d378ad4d982dae3,70,2022-02-12_15h04.31.621,lexical_decision_task_DD_L5,2021.2.3,Linux aarch64,120.0912694,,,,,,,,,,1.8288,1,,,,,,,,,,,,,,,0,-0.237266281,-0.31823849,1,0,0,1.8288,button_left_main,-0.237266281,-0.31823849,1,0,0,,0,63,63,102,1,DULLE,C,old,z,./images/DULLE.png,,,,,,,,,,,,,,,,,,,,,,,,,,,,,,,,,
,,,,,,,,,,,,,,,,,60a2dd0e1d378ad4d982dae3,70,2022-02-12_15h04.31.621,lexical_decision_task_DD_L5,2021.2.3,Linux aarch64,120.0912694,,,,,,,,,,1.3821,1,,,,,,,,,,,,,,,0,-0.247674368,-0.314440681,1,0,0,1.3821,button_left_main,-0.247674368,-0.314440681,1,0,0,,0,64,64,89,1,DRIEK,LB,old,z,./images/DRIEKLB.png,,,,,,,,,,,,,,,,,,,,,,,,,,,,,,,,,
,,,,,,,,,,,,,,,,,60a2dd0e1d378ad4d982dae3,70,2022-02-12_15h04.31.621,lexical_decision_task_DD_L5,2021.2.3,Linux aarch64,120.0912694,,,,,,,,,,1.6456,1,,,,,,,,,,,,,,,0,0.236442121,-0.236517008,1,0,0,1.6456,button_right_main,0.236442121,-0.236517008,1,0,0,,0,65,65,47,1,LAGOON,C,old,m,./images/LAGOON.png,,,,,,,,,,,,,,,,,,,,,,,,,,,,,,,,,
,,,,,,,,,,,,,,,,,60a2dd0e1d378ad4d982dae3,70,2022-02-12_15h04.31.621,lexical_decision_task_DD_L5,2021.2.3,Linux aarch64,120.0912694,,,,,,,,,,1.1644,1,,,,,,,,,,,,,,,0,0.218298162,-0.224279756,1,0,0,1.1644,button_right_main,0.218298162,-0.224279756,1,0,0,,0,66,66,67,1,POKER,LB,old,m,./images/POKERLB.png,,,,,,,,,,,,,,,,,,,,,,,,,,,,,,,,,
,,,,,,,,,,,,,,,,,60a2dd0e1d378ad4d982dae3,70,2022-02-12_15h04.31.621,lexical_decision_task_DD_L5,2021.2.3,Linux aarch64,120.0912694,,,,,,,,,,1.0675,1,,,,,,,,,,,,,,,0,0.240520885,-0.217106495,1,0,0,1.0675,button_right_main,0.240520885,-0.217106495,1,0,0,,0,67,67,76,1,MIDGET,LB,old,m,./images/MIDGETLB.png,,,,,,,,,,,,,,,,,,,,,,,,,,,,,,,,,
,,,,,,,,,,,,,,,,,60a2dd0e1d378ad4d982dae3,70,2022-02-12_15h04.31.621,lexical_decision_task_DD_L5,2021.2.3,Linux aarch64,120.0912694,,,,,,,,,,1.6735,1,,,,,,,,,,,,,,,0,-0.234875225,-0.33286678,1,0,0,1.6735,button_left_main,-0.234875225,-0.33286678,1,0,0,,0,68,68,125,1,MOOKY,LB,old,z,./images/MOOKYLB.png,,,,,,,,,,,,,,,,,,,,,,,,,,,,,,,,,
,,,,,,,,,,,,,,,,,60a2dd0e1d378ad4d982dae3,70,2022-02-12_15h04.31.621,lexical_decision_task_DD_L5,2021.2.3,Linux aarch64,120.0912694,,,,,,,,,,2.0537,1,,,,,,,,,,,,,,,0,-0.2381102,-0.301781515,1,0,0,2.0537,button_left_main,-0.2381102,-0.301781515,1,0,0,,0,69,69,165,1,TROWN,C,old,z,./images/TROWN.png,,,,,,,,,,,,,,,,,,,,,,,,,,,,,,,,,
,,,,,,,,,,,,,,,,,60a2dd0e1d378ad4d982dae3,70,2022-02-12_15h04.31.621,lexical_decision_task_DD_L5,2021.2.3,Linux aarch64,120.0912694,,,,,,,,,,1.4655,1,,,,,,,,,,,,,,,0,-0.243314225,-0.295170756,1,0,0,1.4655,button_left_main,-0.243314225,-0.295170756,1,0,0,,0,70,70,90,1,NEAST,C,old,z,./images/NEAST.png,,,,,,,,,,,,,,,,,,,,,,,,,,,,,,,,,
,,,,,,,,,,,,,,,,,60a2dd0e1d378ad4d982dae3,70,2022-02-12_15h04.31.621,lexical_decision_task_DD_L5,2021.2.3,Linux aarch64,120.0912694,,,,,,,,,,2.4386,1,,,,,,,,,,,,,,,0,0.180463402,-0.249316762,1,0,0,2.4386,button_right_main,0.217735513,-0.232015962,1,0,0,,0,71,71,6,1,STAIN,HB,old,m,./images/STAINHB.png,,,,,,,,,,,,,,,,,,,,,,,,,,,,,,,,,
,,,,,,,,,,,,,,,,,60a2dd0e1d378ad4d982dae3,70,2022-02-12_15h04.31.621,lexical_decision_task_DD_L5,2021.2.3,Linux aarch64,120.0912694,,,,,,,,,,1.6977,1,,,,,,,,,,,,,,,0,-0.233046819,-0.298546504,1,0,0,1.6977,button_left_main,-0.233046819,-0.298546504,1,0,0,,0,72,72,115,1,MAWNS,HB,old,z,./images/MAWNSHB.png,,,,,,,,,,,,,,,,,,,,,,,,,,,,,,,,,
,,,,,,,,,,,,,,,,,60a2dd0e1d378ad4d982dae3,70,2022-02-12_15h04.31.621,lexical_decision_task_DD_L5,2021.2.3,Linux aarch64,120.0912694,,,,,,,,,,1.5623,1,,,,,,,,,,,,,,,0,-0.238954081,-0.289263235,1,0,0,1.5623,button_left_main,-0.238954081,-0.289263235,1,0,0,,0,73,73,93,1,SMONE,C,old,z,./images/SMONE.png,,,,,,,,,,,,,,,,,,,,,,,,,,,,,,,,,
,,,,,,,,,,,,,,,,,60a2dd0e1d378ad4d982dae3,70,2022-02-12_15h04.31.621,lexical_decision_task_DD_L5,2021.2.3,Linux aarch64,120.0912694,,,,,,,,,,1.2378,1,,,,,,,,,,,,,,,0,0.243333909,-0.223295341,1,0,0,1.2378,button_right_main,0.243333909,-0.223295341,1,0,0,,0,74,74,77,1,WHEEL,C,old,m,./images/WHEEL.png,,,,,,,,,,,,,,,,,,,,,,,,,,,,,,,,,
,,,,,,,,,,,,,,,,,60a2dd0e1d378ad4d982dae3,70,2022-02-12_15h04.31.621,lexical_decision_task_DD_L5,2021.2.3,Linux aarch64,120.0912694,,,,,,,,,,0.9556,1,,,,,,,,,,,,,,,0,0.238270436,-0.217528556,1,0,0,0.9556,button_right_main,0.238270436,-0.217528556,1,0,0,,0,75,75,2,1,STOVE,C,old,m,./images/STOVE.png,,,,,,,,,,,,,,,,,,,,,,,,,,,,,,,,,
,,,,,,,,,,,,,,,,,60a2dd0e1d378ad4d982dae3,70,2022-02-12_15h04.31.621,lexical_decision_task_DD_L5,2021.2.3,Linux aarch64,120.0912694,,,,,,,,,,0.8159,1,,,,,,,,,,,,,,,0,0.281309257,-0.266758298,1,0,0,0.8159,button_right_main,0.281309257,-0.266758298,1,0,0,,0,76,76,32,1,HOCKEY,C,old,m,./images/HOCKEY.png,,,,,,,,,,,,,,,,,,,,,,,,,,,,,,,,,
,,,,,,,,,,,,,,,,,60a2dd0e1d378ad4d982dae3,70,2022-02-12_15h04.31.621,lexical_decision_task_DD_L5,2021.2.3,Linux aarch64,120.0912694,,,,,,,,,,0.7627,1,,,,,,,,,,,,,,,0,0.293405255,-0.278573342,1,0,0,0.7627,button_right_main,0.293405255,-0.278573342,1,0,0,,0,77,77,40,1,SNAKE,LB,old,m,./images/SNAKELB.png,,,,,,,,,,,,,,,,,,,,,,,,,,,,,,,,,
,,,,,,,,,,,,,,,,,60a2dd0e1d378ad4d982dae3,70,2022-02-12_15h04.31.621,lexical_decision_task_DD_L5,2021.2.3,Linux aarch64,120.0912694,,,,,,,,,,1.6459,1,,,,,,,,,,,,,,,0,-0.235719162,-0.310783608,1,0,0,1.6459,button_left_main,-0.235719162,-0.310783608,1,0,0,,0,78,78,158,1,EGECT,LB,old,z,./images/EGECTLB.png,,,,,,,,,,,,,,,,,,,,,,,,,,,,,,,,,
,,,,,,,,,,,,,,,,,60a2dd0e1d378ad4d982dae3,70,2022-02-12_15h04.31.621,lexical_decision_task_DD_L5,2021.2.3,Linux aarch64,120.0912694,,,,,,,,,,1.2552,1,,,,,,,,,,,,,,,0,0.247131348,-0.244393654,1,0,0,1.2552,button_right_main,0.247131348,-0.244393654,1,0,0,,0,79,79,1,1,TOWEL,LB,old,m,./images/TOWELLB.png,,,,,,,,,,,,,,,,,,,,,,,,,,,,,,,,,
,,,,,,,,,,,,,,,,,60a2dd0e1d378ad4d982dae3,70,2022-02-12_15h04.31.621,lexical_decision_task_DD_L5,2021.2.3,Linux aarch64,120.0912694,,,,,,,,,,1.8551,1,,,,,,,,,,,,,,,0,-0.234171988,-0.293201632,1,0,0,1.8551,button_left_main,-0.234171988,-0.293201632,1,0,0,,0,80,80,92,1,PAIMS,LB,old,z,./images/PAIMSLB.png,,,,,,,,,,,,,,,,,,,,,,,,,,,,,,,,,
,,,,,,,,,,,,,,,,,60a2dd0e1d378ad4d982dae3,70,2022-02-12_15h04.31.621,lexical_decision_task_DD_L5,2021.2.3,Linux aarch64,120.0912694,,,,,,,,,,1.2545,1,,,,,,,,,,,,,,,0,0.24389641,-0.243690565,1,0,0,1.2545,button_right_main,0.24389641,-0.243690565,1,0,0,,0,81,81,7,1,WAGON,LB,old,m,./images/WAGONLB.png,,,,,,,,,,,,,,,,,,,,,,,,,,,,,,,,,
,,,,,,,,,,,,,,,,,60a2dd0e1d378ad4d982dae3,70,2022-02-12_15h04.31.621,lexical_decision_task_DD_L5,2021.2.3,Linux aarch64,120.0912694,,,,,,,,,,2.4654,0,,,,,,,,,,,,,,,0,-0.239657319,-0.293482808,1,0,0,2.4654,button_left_main,-0.239657319,-0.293482808,1,0,0,,0,82,82,75,1,HAMMER,HB,old,m,./images/HAMMERHB.png,,,,,,,,,,,,,,,,,,,,,,,,,,,,,,,,,
,,,,,,,,,,,,,,,,,60a2dd0e1d378ad4d982dae3,70,2022-02-12_15h04.31.621,lexical_decision_task_DD_L5,2021.2.3,Linux aarch64,120.0912694,,,,,,,,,,1.7973,1,,,,,,,,,,,,,,,0,-0.254425549,-0.287293962,1,0,0,1.7973,button_left_main,0.087212609,-0.426825366,1,0,0,,0,83,83,149,1,VEASE,LB,old,z,./images/VEASELB.png,break_done_button,,,,,,,,,,,,,,,,,,,,,,,,,,,,,,,,
,,,,,,,,,,,,,,,,,60a2dd0e1d378ad4d982dae3,70,2022-02-12_15h04.31.621,lexical_decision_task_DD_L5,2021.2.3,Linux aarch64,120.0912694,,,,,,,,,,1.6223,1,,,,,,,,,,,,,,,0,-0.277914047,-0.361138946,1,0,0,1.6223,button_left_main,-0.277914047,-0.361138946,1,0,0,,0,84,84,135,1,JOODY,C,old,z,./images/JOODY.png,,,,,,,,,,,,,,,,,,,,,,,,,,,,,,,,,
,,,,,,,,,,,,,,,,,60a2dd0e1d378ad4d982dae3,70,2022-02-12_15h04.31.621,lexical_decision_task_DD_L5,2021.2.3,Linux aarch64,120.0912694,,,,,,,,,,1.6651,1,,,,,,,,,,,,,,,0,0.247834585,-0.243268652,1,0,0,1.6651,button_right_main,0.247834585,-0.243268652,1,0,0,,0,85,85,19,1,DONKEY,LB,old,m,./images/DONKEYLB.png,,,,,,,,,,,,,,,,,,,,,,,,,,,,,,,,,
,,,,,,,,,,,,,,,,,60a2dd0e1d378ad4d982dae3,70,2022-02-12_15h04.31.621,lexical_decision_task_DD_L5,2021.2.3,Linux aarch64,120.0912694,,,,,,,,,,1.7374,1,,,,,,,,,,,,,,,0,-0.258223098,-0.33216369,1,0,0,1.7374,button_left_main,-0.258223098,-0.33216369,1,0,0,,0,86,86,112,1,MYING,HB,old,z,./images/MYINGHB.png,,,,,,,,,,,,,,,,,,,,,,,,,,,,,,,,,
,,,,,,,,,,,,,,,,,60a2dd0e1d378ad4d982dae3,70,2022-02-12_15h04.31.621,lexical_decision_task_DD_L5,2021.2.3,Linux aarch64,120.0912694,,,,,,,,,,1.9503,1,,,,,,,,,,,,,,,0,-0.246830487,-0.321051736,1,0,0,1.9503,button_left_main,-0.246830487,-0.321051736,1,0,0,,0,87,87,94,1,BLANS,HB,old,z,./images/BLANSHB.png,,,,,,,,,,,,,,,,,,,,,,,,,,,,,,,,,
,,,,,,,,,,,,,,,,,60a2dd0e1d378ad4d982dae3,70,2022-02-12_15h04.31.621,lexical_decision_task_DD_L5,2021.2.3,Linux aarch64,120.0912694,,,,,,,,,,1.7877,1,,,,,,,,,,,,,,,0,0.245021635,-0.223717402,1,0,0,1.7877,button_right_main,0.245021635,-0.223717402,1,0,0,,0,88,88,5,1,BAMBOO,C,old,m,./images/BAMBOO.png,,,,,,,,,,,,,,,,,,,,,,,,,,,,,,,,,
,,,,,,,,,,,,,,,,,60a2dd0e1d378ad4d982dae3,70,2022-02-12_15h04.31.621,lexical_decision_task_DD_L5,2021.2.3,Linux aarch64,120.0912694,,,,,,,,,,1.5484,1,,,,,,,,,,,,,,,0,0.25149151,-0.210214263,1,0,0,1.5484,button_right_main,0.25149151,-0.210214263,1,0,0,,0,89,89,69,1,ARROW,HB,old,m,./images/ARROWHB.png,,,,,,,,,,,,,,,,,,,,,,,,,,,,,,,,,
,,,,,,,,,,,,,,,,,60a2dd0e1d378ad4d982dae3,70,2022-02-12_15h04.31.621,lexical_decision_task_DD_L5,2021.2.3,Linux aarch64,120.0912694,,,,,,,,,,1.0338,1,,,,,,,,,,,,,,,0,0.246428258,-0.220904008,1,0,0,1.0338,button_right_main,0.246428258,-0.220904008,1,0,0,,0,90,90,16,1,GRAPE,LB,old,m,./images/GRAPELB.png,,,,,,,,,,,,,,,,,,,,,,,,,,,,,,,,,
,,,,,,,,,,,,,,,,,60a2dd0e1d378ad4d982dae3,70,2022-02-12_15h04.31.621,lexical_decision_task_DD_L5,2021.2.3,Linux aarch64,120.0912694,,,,,,,,,,1.8161,1,,,,,,,,,,,,,,,0,-0.260192186,-0.377595476,1,0,0,1.8161,button_left_main,-0.260192186,-0.377595476,1,0,0,,0,91,91,110,1,CRUNK,LB,old,z,./images/CRUNKLB.png,,,,,,,,,,,,,,,,,,,,,,,,,,,,,,,,,
,,,,,,,,,,,,,,,,,60a2dd0e1d378ad4d982dae3,70,2022-02-12_15h04.31.621,lexical_decision_task_DD_L5,2021.2.3,Linux aarch64,120.0912694,,,,,,,,,,1.3493,1,,,,,,,,,,,,,,,0,0.241083386,-0.243971741,1,0,0,1.3493,button_right_main,0.241083386,-0.243971741,1,0,0,,0,92,92,64,1,BRIDE,LB,old,m,./images/BRIDELB.png,,,,,,,,,,,,,,,,,,,,,,,,,,,,,,,,,
,,,,,,,,,,,,,,,,,60a2dd0e1d378ad4d982dae3,70,2022-02-12_15h04.31.621,lexical_decision_task_DD_L5,2021.2.3,Linux aarch64,120.0912694,,,,,,,,,,1.5364,1,,,,,,,,,,,,,,,0,-0.244861399,-0.361279386,1,0,0,1.5364,button_left_main,-0.244861399,-0.361279386,1,0,0,,0,93,93,84,1,HAXES,C,old,z,./images/HAXES.png,,,,,,,,,,,,,,,,,,,,,,,,,,,,,,,,,
,,,,,,,,,,,,,,,,,60a2dd0e1d378ad4d982dae3,70,2022-02-12_15h04.31.621,lexical_decision_task_DD_L5,2021.2.3,Linux aarch64,120.0912694,,,,,,,,,,1.8593,1,,,,,,,,,,,,,,,0,-0.232202882,-0.354668478,1,0,0,1.8593,button_left_main,-0.232202882,-0.354668478,1,0,0,,0,94,94,91,1,SHENS,HB,old,z,./images/SHENSHB.png,,,,,,,,,,,,,,,,,,,,,,,,,,,,,,,,,
,,,,,,,,,,,,,,,,,60a2dd0e1d378ad4d982dae3,70,2022-02-12_15h04.31.621,lexical_decision_task_DD_L5,2021.2.3,Linux aarch64,120.0912694,,,,,,,,,,2.53,1,,,,,,,,,,,,,,,0,-0.232202882,-0.348620368,1,0,0,2.53,button_left_main,-0.232202882,-0.348620368,1,0,0,,0,95,95,139,1,BLEAR,HB,old,z,./images/BLEARHB.png,,,,,,,,,,,,,,,,,,,,,,,,,,,,,,,,,
,,,,,,,,,,,,,,,,,60a2dd0e1d378ad4d982dae3,70,2022-02-12_15h04.31.621,lexical_decision_task_DD_L5,2021.2.3,Linux aarch64,120.0912694,,,,,,,,,,2.1766,1,,,,,,,,,,,,,,,0,-0.237547587,-0.336523852,1,0,0,2.1766,button_left_main,-0.237547587,-0.336523852,1,0,0,,0,96,96,145,1,LAMEL,HB,old,z,./images/LAMELHB.png,,,,,,,,,,,,,,,,,,,,,,,,,,,,,,,,,
,,,,,,,,,,,,,,,,,60a2dd0e1d378ad4d982dae3,70,2022-02-12_15h04.31.621,lexical_decision_task_DD_L5,2021.2.3,Linux aarch64,120.0912694,,,,,,,,,,1.3752,1,,,,,,,,,,,,,,,0,0.231097323,-0.234829208,1,0,0,1.3752,button_right_main,0.231097323,-0.234829208,1,0,0,,0,97,97,50,1,PILOT,C,old,m,./images/PILOT.png,,,,,,,,,,,,,,,,,,,,,,,,,,,,,,,,,
,,,,,,,,,,,,,,,,,60a2dd0e1d378ad4d982dae3,70,2022-02-12_15h04.31.621,lexical_decision_task_DD_L5,2021.2.3,Linux aarch64,120.0912694,,,,,,,,,,1.5407,1,,,,,,,,,,,,,,,0,-0.235719162,-0.348620368,1,0,0,1.5407,button_left_main,-0.235719162,-0.348620368,1,0,0,,0,98,98,117,1,STEEG,C,old,z,./images/STEEG.png,,,,,,,,,,,,,,,,,,,,,,,,,,,,,,,,,
,,,,,,,,,,,,,,,,,60a2dd0e1d378ad4d982dae3,70,2022-02-12_15h04.31.621,lexical_decision_task_DD_L5,2021.2.3,Linux aarch64,120.0912694,,,,,,,,,,1.5876,1,,,,,,,,,,,,,,,0,0.235457411,-0.232578759,1,0,0,1.5876,button_right_main,0.235457411,-0.232578759,1,0,0,,0,99,99,43,1,STOOL,LB,old,m,./images/STOOLLB.png,,,,,,,,,,,,,,,,,,,,,,,,,,,,,,,,,
,,,,,,,,,,,,,,,,,60a2dd0e1d378ad4d982dae3,70,2022-02-12_15h04.31.621,lexical_decision_task_DD_L5,2021.2.3,Linux aarch64,120.0912694,,,,,,,,,,2.4716,1,,,,,,,,,,,,,,,0,-0.264974279,-0.336945765,1,0,0,2.4716,button_left_main,-0.264974279,-0.336945765,1,0,0,,0,100,100,148,1,JOMS,HB,old,z,./images/JOMSHB.png,,,,,,,,,,,,,,,,,,,,,,,,,,,,,,,,,
,,,,,,,,,,,,,,,,,60a2dd0e1d378ad4d982dae3,70,2022-02-12_15h04.31.621,lexical_decision_task_DD_L5,2021.2.3,Linux aarch64,120.0912694,,,,,,,,,,2.0633,1,,,,,,,,,,,,,,,0,0.220126772,-0.238204808,1,0,0,2.0633,button_right_main,0.220126772,-0.238204808,1,0,0,,0,101,101,3,1,CRATER,HB,old,m,./images/CRATERHB.png,,,,,,,,,,,,,,,,,,,,,,,,,,,,,,,,,
,,,,,,,,,,,,,,,,,60a2dd0e1d378ad4d982dae3,70,2022-02-12_15h04.31.621,lexical_decision_task_DD_L5,2021.2.3,Linux aarch64,120.0912694,,,,,,,,,,2.1467,1,,,,,,,,,,,,,,,0,-0.243454905,-0.343416233,1,0,0,2.1467,button_left_main,-0.243454905,-0.343416233,1,0,0,,0,102,102,124,1,TUNCH,HB,old,z,./images/TUNCHHB.png,,,,,,,,,,,,,,,,,,,,,,,,,,,,,,,,,
,,,,,,,,,,,,,,,,,60a2dd0e1d378ad4d982dae3,70,2022-02-12_15h04.31.621,lexical_decision_task_DD_L5,2021.2.3,Linux aarch64,120.0912694,,,,,,,,,,1.7417,1,,,,,,,,,,,,,,,0,0.231378648,-0.221044892,1,0,0,1.7417,button_right_main,0.231378648,-0.221044892,1,0,0,,0,103,103,18,1,PARCEL,HB,old,m,./images/PARCELHB.png,,,,,,,,,,,,,,,,,,,,,,,,,,,,,,,,,
,,,,,,,,,,,,,,,,,60a2dd0e1d378ad4d982dae3,70,2022-02-12_15h04.31.621,lexical_decision_task_DD_L5,2021.2.3,Linux aarch64,120.0912694,,,,,,,,,,1.2534,1,,,,,,,,,,,,,,,0,0.245021635,-0.228780802,1,0,0,1.2534,button_right_main,0.245021635,-0.228780802,1,0,0,,0,104,104,31,1,STEAK,LB,old,m,./images/STEAKLB.png,,,,,,,,,,,,,,,,,,,,,,,,,,,,,,,,,
,,,,,,,,,,,,,,,,,60a2dd0e1d378ad4d982dae3,70,2022-02-12_15h04.31.621,lexical_decision_task_DD_L5,2021.2.3,Linux aarch64,120.0912694,,,,,,,,,,1.816,1,,,,,,,,,,,,,,,0,-0.241485799,-0.352980679,1,0,0,1.816,button_left_main,-0.241485799,-0.352980679,1,0,0,,0,105,105,161,1,BLAPS,LB,old,z,./images/BLAPSLB.png,,,,,,,,,,,,,,,,,,,,,,,,,,,,,,,,,
,,,,,,,,,,,,,,,,,60a2dd0e1d378ad4d982dae3,70,2022-02-12_15h04.31.621,lexical_decision_task_DD_L5,2021.2.3,Linux aarch64,120.0912694,,,,,,,,,,1.5628,0,,,,,,,,,,,,,,,0,0.237848449,-0.21907562,1,0,0,1.5628,button_right_main,0.237848449,-0.21907562,1,0,0,,0,106,106,107,1,FASKS,LB,old,z,./images/FASKSLB.png,,,,,,,,,,,,,,,,,,,,,,,,,,,,,,,,,
,,,,,,,,,,,,,,,,,60a2dd0e1d378ad4d982dae3,70,2022-02-12_15h04.31.621,lexical_decision_task_DD_L5,2021.2.3,Linux aarch64,120.0912694,,,,,,,,,,2.8796,1,,,,,,,,,,,,,,,0,-0.248799556,-0.349042281,1,0,0,2.8796,button_left_main,-0.248799556,-0.349042281,1,0,0,,0,107,107,121,1,CEERS,HB,old,z,./images/CEERSHB.png,,,,,,,,,,,,,,,,,,,,,,,,,,,,,,,,,
,,,,,,,,,,,,,,,,,60a2dd0e1d378ad4d982dae3,70,2022-02-12_15h04.31.621,lexical_decision_task_DD_L5,2021.2.3,Linux aarch64,120.0912694,,,,,,,,,,1.2183,1,,,,,,,,,,,,,,,0,0.228002974,-0.216403109,1,0,0,1.2183,button_right_main,0.228002974,-0.216403109,1,0,0,,0,108,108,53,1,POSTER,C,old,m,./images/POSTER.png,,,,,,,,,,,,,,,,,,,,,,,,,,,,,,,,,
,,,,,,,,,,,,,,,,,60a2dd0e1d378ad4d982dae3,70,2022-02-12_15h04.31.621,lexical_decision_task_DD_L5,2021.2.3,Linux aarch64,120.0912694,,,,,,,,,,1.6503,1,,,,,,,,,,,,,,,0,-0.231218338,-0.342150049,1,0,0,1.6503,button_left_main,-0.231218338,-0.342150049,1,0,0,,0,109,109,87,1,TRING,C,old,z,./images/TRING.png,,,,,,,,,,,,,,,,,,,,,,,,,,,,,,,,,
,,,,,,,,,,,,,,,,,60a2dd0e1d378ad4d982dae3,70,2022-02-12_15h04.31.621,lexical_decision_task_DD_L5,2021.2.3,Linux aarch64,120.0912694,,,,,,,,,,1.5341,1,,,,,,,,,,,,,,,0,0.246850171,-0.228640362,1,0,0,1.5341,button_right_main,0.246850171,-0.228640362,1,0,0,,0,110,110,58,1,CANOE,LB,old,m,./images/CANOELB.png,,,,,,,,,,,,,,,,,,,,,,,,,,,,,,,,,
,,,,,,,,,,,,,,,,,60a2dd0e1d378ad4d982dae3,70,2022-02-12_15h04.31.621,lexical_decision_task_DD_L5,2021.2.3,Linux aarch64,120.0912694,,,,,,,,,,2.2676,1,,,,,,,,,,,,,,,0,0.249381797,-0.228921538,1,0,0,2.2676,button_right_main,0.249381797,-0.228921538,1,0,0,,0,111,111,24,1,FLESH,HB,old,m,./images/FLESHHB.png,,,,,,,,,,,,,,,,,,,,,,,,,,,,,,,,,
,,,,,,,,,,,,,,,,,60a2dd0e1d378ad4d982dae3,70,2022-02-12_15h04.31.621,lexical_decision_task_DD_L5,2021.2.3,Linux aarch64,120.0912694,,,,,,,,,,1.6632,0,,,,,,,,,,,,,,,0,-0.230655763,-0.334695316,1,0,0,1.6632,button_left_main,-0.230655763,-0.334695316,1,0,0,,0,112,112,35,1,LLAMA,C,old,m,./images/LLAMA.png,,,,,,,,,,,,,,,,,,,,,,,,,,,,,,,,,
,,,,,,,,,,,,,,,,,60a2dd0e1d378ad4d982dae3,70,2022-02-12_15h04.31.621,lexical_decision_task_DD_L5,2021.2.3,Linux aarch64,120.0912694,,,,,,,,,,1.76,1,,,,,,,,,,,,,,,0,-0.234031362,-0.334273255,1,0,0,1.76,button_left_main,-0.234031362,-0.334273255,1,0,0,,0,113,113,136,1,WERVE,HB,old,z,./images/WERVEHB.png,,,,,,,,,,,,,,,,,,,,,,,,,,,,,,,,,
,,,,,,,,,,,,,,,,,60a2dd0e1d378ad4d982dae3,70,2022-02-12_15h04.31.621,lexical_decision_task_DD_L5,2021.2.3,Linux aarch64,120.0912694,,,,,,,,,,1.3728,1,,,,,,,,,,,,,,,0,0.235598073,-0.22174813,1,0,0,1.3728,button_right_main,0.235598073,-0.22174813,1,0,0,,0,114,114,38,1,ENGINE,C,old,m,./images/ENGINE.png,,,,,,,,,,,,,,,,,,,,,,,,,,,,,,,,,
,,,,,,,,,,,,,,,,,60a2dd0e1d378ad4d982dae3,70,2022-02-12_15h04.31.621,lexical_decision_task_DD_L5,2021.2.3,Linux aarch64,120.0912694,,,,,,,,,,1.8758,1,,,,,,,,,,,,,,,0,-0.246267874,-0.355653189,1,0,0,1.8758,button_left_main,-0.246267874,-0.355653189,1,0,0,,0,115,115,153,1,CLUPS,C,old,z,./images/CLUPS.png,,,,,,,,,,,,,,,,,,,,,,,,,,,,,,,,,
,,,,,,,,,,,,,,,,,60a2dd0e1d378ad4d982dae3,70,2022-02-12_15h04.31.621,lexical_decision_task_DD_L5,2021.2.3,Linux aarch64,120.0912694,,,,,,,,,,2.9065,0,,,,,,,,,,,,,,,0,-0.237969519,-0.373797815,1,0,0,2.9065,button_left_main,-0.237969519,-0.373797815,1,0,0,,0,116,116,21,1,DANCER,HB,old,m,./images/DANCERHB.png,,,,,,,,,,,,,,,,,,,,,,,,,,,,,,,,,
,,,,,,,,,,,,,,,,,60a2dd0e1d378ad4d982dae3,70,2022-02-12_15h04.31.621,lexical_decision_task_DD_L5,2021.2.3,Linux aarch64,120.0912694,,,,,,,,,,1.6891,1,,,,,,,,,,,,,,,0,-0.236281719,-0.341728136,1,0,0,1.6891,button_left_main,-0.236281719,-0.341728136,1,0,0,,0,117,117,131,1,NACES,LB,old,z,./images/NACESLB.png,,,,,,,,,,,,,,,,,,,,,,,,,,,,,,,,,
,,,,,,,,,,,,,,,,,60a2dd0e1d378ad4d982dae3,70,2022-02-12_15h04.31.621,lexical_decision_task_DD_L5,2021.2.3,Linux aarch64,120.0912694,,,,,,,,,,1.704,1,,,,,,,,,,,,,,,0,-0.244861399,-0.341306075,1,0,0,1.704,button_left_main,-0.244861399,-0.341306075,1,0,0,,0,118,118,96,1,KEAMS,C,old,z,./images/KEAMS.png,,,,,,,,,,,,,,,,,,,,,,,,,,,,,,,,,
,,,,,,,,,,,,,,,,,60a2dd0e1d378ad4d982dae3,70,2022-02-12_15h04.31.621,lexical_decision_task_DD_L5,2021.2.3,Linux aarch64,120.0912694,,,,,,,,,,3.4719,1,,,,,,,,,,,,,,,0,0.222658324,-0.257334144,1,0,0,3.4719,button_right_main,0.222658324,-0.257334144,1,0,0,,0,119,119,45,1,MONKEY,HB,old,m,./images/MONKEYHB.png,,,,,,,,,,,,,,,,,,,,,,,,,,,,,,,,,
,,,,,,,,,,,,,,,,,60a2dd0e1d378ad4d982dae3,70,2022-02-12_15h04.31.621,lexical_decision_task_DD_L5,2021.2.3,Linux aarch64,120.0912694,,,,,,,,,,1.8623,1,,,,,,,,,,,,,,,0,-0.267084011,-0.353965389,1,0,0,1.8623,button_left_main,-0.267084011,-0.353965389,1,0,0,,0,120,120,122,1,BLOOT,LB,old,z,./images/BLOOTLB.png,,,,,,,,,,,,,,,,,,,,,,,,,,,,,,,,,
,,,,,,,,,,,,,,,,,60a2dd0e1d378ad4d982dae3,70,2022-02-12_15h04.31.621,lexical_decision_task_DD_L5,2021.2.3,Linux aarch64,120.0912694,,,,,,,,,,1.5551,1,,,,,,,,,,,,,,,0,0.23573881,-0.229765364,1,0,0,1.5551,button_right_main,0.23573881,-0.229765364,1,0,0,,0,121,121,10,1,GARDEN,LB,old,m,./images/GARDENLB.png,,,,,,,,,,,,,,,,,,,,,,,,,,,,,,,,,
,,,,,,,,,,,,,,,,,60a2dd0e1d378ad4d982dae3,70,2022-02-12_15h04.31.621,lexical_decision_task_DD_L5,2021.2.3,Linux aarch64,120.0912694,,,,,,,,,,2.3203,1,,,,,,,,,,,,,,,0,-0.254847499,-0.334554876,1,0,0,2.3203,button_left_main,-0.254847499,-0.334554876,1,0,0,,0,122,122,151,1,TINKY,HB,old,z,./images/TINKYHB.png,,,,,,,,,,,,,,,,,,,,,,,,,,,,,,,,,
,,,,,,,,,,,,,,,,,60a2dd0e1d378ad4d982dae3,70,2022-02-12_15h04.31.621,lexical_decision_task_DD_L5,2021.2.3,Linux aarch64,120.0912694,,,,,,,,,,1.3067,1,,,,,,,,,,,,,,,0,0.244599648,-0.238486133,1,0,0,1.3067,button_right_main,0.244599648,-0.238486133,1,0,0,,0,123,123,59,1,BRUSH,C,old,m,./images/BRUSH.png,,,,,,,,,,,,,,,,,,,,,,,,,,,,,,,,,
,,,,,,,,,,,,,,,,,60a2dd0e1d378ad4d982dae3,70,2022-02-12_15h04.31.621,lexical_decision_task_DD_L5,2021.2.3,Linux aarch64,120.0912694,,,,,,,,,,2.0756,1,,,,,,,,,,,,,,,0,-0.249221543,-0.355512452,1,0,0,2.0756,button_left_main,-0.249221543,-0.355512452,1,0,0,,0,124,124,152,1,FRAIN,LB,old,z,./images/FRAINLB.png,,,,,,,,,,,,,,,,,,,,,,,,,,,,,,,,,
,,,,,,,,,,,,,,,,,60a2dd0e1d378ad4d982dae3,70,2022-02-12_15h04.31.621,lexical_decision_task_DD_L5,2021.2.3,Linux aarch64,120.0912694,,,,,,,,,,2.9197,1,,,,,,,,,,,,,,,0,0.191715426,-0.251707799,1,0,0,2.9197,button_right_main,0.144879017,-0.430904351,1,0,0,,0,125,125,81,1,DRILL,HB,old,m,./images/DRILLHB.png,break_done_button,,,,,,,,,,,,,,,,,,,,,,,,,,,,,,,,
,,,,,,,,,,,,,,,,,60a2dd0e1d378ad4d982dae3,70,2022-02-12_15h04.31.621,lexical_decision_task_DD_L5,2021.2.3,Linux aarch64,120.0912694,,,,,,,,,,1.3164,1,,,,,,,,,,,,,,,0,0.295233569,-0.249316762,1,0,0,1.3164,button_right_main,0.295233569,-0.249316762,1,0,0,,0,126,126,39,1,CANDY,HB,old,m,./images/CANDYHB.png,,,,,,,,,,,,,,,,,,,,,,,,,,,,,,,,,
,,,,,,,,,,,,,,,,,60a2dd0e1d378ad4d982dae3,70,2022-02-12_15h04.31.621,lexical_decision_task_DD_L5,2021.2.3,Linux aarch64,120.0912694,,,,,,,,,,1.9138,1,,,,,,,,,,,,,,,0,-0.284524621,-0.314300093,1,0,0,1.9138,button_left_main,-0.284524621,-0.314300093,1,0,0,,0,127,127,155,1,CANGY,LB,old,z,./images/CANGYLB.png,,,,,,,,,,,,,,,,,,,,,,,,,,,,,,,,,
,,,,,,,,,,,,,,,,,60a2dd0e1d378ad4d982dae3,70,2022-02-12_15h04.31.621,lexical_decision_task_DD_L5,2021.2.3,Linux aarch64,120.0912694,,,,,,,,,,2.2343,1,,,,,,,,,,,,,,,0,-0.254566193,-0.325552635,1,0,0,2.2343,button_left_main,-0.254566193,-0.325552635,1,0,0,,0,128,128,127,1,NINDY,HB,old,z,./images/NINDYHB.png,,,,,,,,,,,,,,,,,,,,,,,,,,,,,,,,,
,,,,,,,,,,,,,,,,,60a2dd0e1d378ad4d982dae3,70,2022-02-12_15h04.31.621,lexical_decision_task_DD_L5,2021.2.3,Linux aarch64,120.0912694,,,,,,,,,,1.3634,1,,,,,,,,,,,,,,,0,0.245865535,-0.241862029,1,0,0,1.3634,button_right_main,0.245865535,-0.241862029,1,0,0,,0,129,129,83,1,WHISKY,C,old,m,./images/WHISKY.png,,,,,,,,,,,,,,,,,,,,,,,,,,,,,,,,,
,,,,,,,,,,,,,,,,,60a2dd0e1d378ad4d982dae3,70,2022-02-12_15h04.31.621,lexical_decision_task_DD_L5,2021.2.3,Linux aarch64,120.0912694,,,,,,,,,,1.5795,1,,,,,,,,,,,,,,,0,-0.264552348,-0.357340989,1,0,0,1.5795,button_left_main,-0.264552348,-0.357340989,1,0,0,,0,130,130,105,1,MOKER,C,old,z,./images/MOKER.png,,,,,,,,,,,,,,,,,,,,,,,,,,,,,,,,,
,,,,,,,,,,,,,,,,,60a2dd0e1d378ad4d982dae3,70,2022-02-12_15h04.31.621,lexical_decision_task_DD_L5,2021.2.3,Linux aarch64,120.0912694,,,,,,,,,,1.3219,1,,,,,,,,,,,,,,,0,0.246428258,-0.251567211,1,0,0,1.3219,button_right_main,0.246428258,-0.251567211,1,0,0,,0,131,131,68,1,VALLEY,C,old,m,./images/VALLEY.png,,,,,,,,,,,,,,,,,,,,,,,,,,,,,,,,,
,,,,,,,,,,,,,,,,,60a2dd0e1d378ad4d982dae3,70,2022-02-12_15h04.31.621,lexical_decision_task_DD_L5,2021.2.3,Linux aarch64,120.0912694,,,,,,,,,,1.5458,1,,,,,,,,,,,,,,,0,-0.241767106,-0.337789739,1,0,0,1.5458,button_left_main,-0.241767106,-0.337789739,1,0,0,,0,132,132,101,1,GLEET,LB,old,z,./images/GLEETLB.png,,,,,,,,,,,,,,,,,,,,,,,,,,,,,,,,,
,,,,,,,,,,,,,,,,,60a2dd0e1d378ad4d982dae3,70,2022-02-12_15h04.31.621,lexical_decision_task_DD_L5,2021.2.3,Linux aarch64,120.0912694,,,,,,,,,,1.2709,1,,,,,,,,,,,,,,,0,0.253319972,-0.225686379,1,0,0,1.2709,button_right_main,0.253319972,-0.225686379,1,0,0,,0,133,133,44,1,BASKET,C,old,m,./images/BASKET.png,,,,,,,,,,,,,,,,,,,,,,,,,,,,,,,,,
,,,,,,,,,,,,,,,,,60a2dd0e1d378ad4d982dae3,70,2022-02-12_15h04.31.621,lexical_decision_task_DD_L5,2021.2.3,Linux aarch64,120.0912694,,,,,,,,,,2.2487,1,,,,,,,,,,,,,,,0,0.242630597,-0.230609486,1,0,0,2.2487,button_right_main,0.242630597,-0.230609486,1,0,0,,0,134,134,48,1,SHIELD,HB,old,m,./images/SHIELDHB.png,,,,,,,,,,,,,,,,,,,,,,,,,,,,,,,,,
,,,,,,,,,,,,,,,,,60a2dd0e1d378ad4d982dae3,70,2022-02-12_15h04.31.621,lexical_decision_task_DD_L5,2021.2.3,Linux aarch64,120.0912694,,,,,,,,,,1.5774,1,,,,,,,,,,,,,,,0,-0.220950914,-0.358747612,1,0,0,1.5774,button_left_main,-0.220950914,-0.358747612,1,0,0,,0,135,135,114,1,RIKES,C,old,z,./images/RIKES.png,,,,,,,,,,,,,,,,,,,,,,,,,,,,,,,,,
,,,,,,,,,,,,,,,,,60a2dd0e1d378ad4d982dae3,70,2022-02-12_15h04.31.621,lexical_decision_task_DD_L5,2021.2.3,Linux aarch64,120.0912694,,,,,,,,,,1.4153,1,,,,,,,,,,,,,,,0,0.238411024,-0.226670941,1,0,0,1.4153,button_right_main,0.238411024,-0.226670941,1,0,0,,0,136,136,51,1,SAUCE,HB,old,m,./images/SAUCEHB.png,,,,,,,,,,,,,,,,,,,,,,,,,,,,,,,,,
,,,,,,,,,,,,,,,,,60a2dd0e1d378ad4d982dae3,70,2022-02-12_15h04.31.621,lexical_decision_task_DD_L5,2021.2.3,Linux aarch64,120.0912694,,,,,,,,,,1.8682,1,,,,,,,,,,,,,,,0,0.243615234,-0.236938921,1,0,0,1.8682,button_right_main,0.243615234,-0.236938921,1,0,0,,0,137,137,42,1,CHAIN,HB,old,m,./images/CHAINHB.png,,,,,,,,,,,,,,,,,,,,,,,,,,,,,,,,,
,,,,,,,,,,,,,,,,,60a2dd0e1d378ad4d982dae3,70,2022-02-12_15h04.31.621,lexical_decision_task_DD_L5,2021.2.3,Linux aarch64,120.0912694,,,,,,,,,,1.3057,1,,,,,,,,,,,,,,,0,0.236723298,-0.239330107,1,0,0,1.3057,button_right_main,0.236723298,-0.239330107,1,0,0,,0,138,138,0,1,WALNUT,HB,old,m,./images/WALNUTHB.png,,,,,,,,,,,,,,,,,,,,,,,,,,,,,,,,,
,,,,,,,,,,,,,,,,,60a2dd0e1d378ad4d982dae3,70,2022-02-12_15h04.31.621,lexical_decision_task_DD_L5,2021.2.3,Linux aarch64,120.0912694,,,,,,,,,,1.7731,1,,,,,,,,,,,,,,,0,0.236723298,-0.22174813,1,0,0,1.7731,button_right_main,0.236723298,-0.22174813,1,0,0,,0,139,139,15,1,COLLAR,HB,old,m,./images/COLLARHB.png,,,,,,,,,,,,,,,,,,,,,,,,,,,,,,,,,
,,,,,,,,,,,,,,,,,60a2dd0e1d378ad4d982dae3,70,2022-02-12_15h04.31.621,lexical_decision_task_DD_L5,2021.2.3,Linux aarch64,120.0912694,,,,,,,,,,1.6558,1,,,,,,,,,,,,,,,0,-0.235015906,-0.361560859,1,0,0,1.6558,button_left_main,-0.235015906,-0.361560859,1,0,0,,0,140,140,167,1,ZONET,LB,old,z,./images/ZONETLB.png,,,,,,,,,,,,,,,,,,,,,,,,,,,,,,,,,
,,,,,,,,,,,,,,,,,60a2dd0e1d378ad4d982dae3,70,2022-02-12_15h04.31.621,lexical_decision_task_DD_L5,2021.2.3,Linux aarch64,120.0912694,,,,,,,,,,1.9508,1,,,,,,,,,,,,,,,0,-0.255410111,-0.370984716,1,0,0,1.9508,button_left_main,-0.255410111,-0.370984716,1,0,0,,0,141,141,160,1,VEETS,HB,old,z,./images/VEETSHB.png,,,,,,,,,,,,,,,,,,,,,,,,,,,,,,,,,
,,,,,,,,,,,,,,,,,60a2dd0e1d378ad4d982dae3,70,2022-02-12_15h04.31.621,lexical_decision_task_DD_L5,2021.2.3,Linux aarch64,120.0912694,,,,,,,,,,1.586,1,,,,,,,,,,,,,,,0,-0.238532131,-0.359732322,1,0,0,1.586,button_left_main,-0.238532131,-0.359732322,1,0,0,,0,142,142,98,1,BAMPS,LB,old,z,./images/BAMPSLB.png,,,,,,,,,,,,,,,,,,,,,,,,,,,,,,,,,
,,,,,,,,,,,,,,,,,60a2dd0e1d378ad4d982dae3,70,2022-02-12_15h04.31.621,lexical_decision_task_DD_L5,2021.2.3,Linux aarch64,120.0912694,,,,,,,,,,1.5123,1,,,,,,,,,,,,,,,0,0.226315174,-0.243971741,1,0,0,1.5123,button_right_main,0.226315174,-0.243971741,1,0,0,,0,143,143,34,1,RAZOR,LB,old,m,./images/RAZORLB.png,,,,,,,,,,,,,,,,,,,,,,,,,,,,,,,,,
,,,,,,,,,,,,,,,,,60a2dd0e1d378ad4d982dae3,70,2022-02-12_15h04.31.621,lexical_decision_task_DD_L5,2021.2.3,Linux aarch64,120.0912694,,,,,,,,,,1.4837,1,,,,,,,,,,,,,,,0,-0.244580093,-0.346651096,1,0,0,1.4837,button_left_main,-0.244580093,-0.346651096,1,0,0,,0,144,144,95,1,HANTY,LB,old,z,./images/HANTYLB.png,,,,,,,,,,,,,,,,,,,,,,,,,,,,,,,,,
,,,,,,,,,,,,,,,,,60a2dd0e1d378ad4d982dae3,70,2022-02-12_15h04.31.621,lexical_decision_task_DD_L5,2021.2.3,Linux aarch64,120.0912694,,,,,,,,,,2.0125,1,,,,,,,,,,,,,,,0,-0.24697113,-0.337930624,1,0,0,2.0125,button_left_main,-0.24697113,-0.337930624,1,0,0,,0,145,145,109,1,BURGE,HB,old,z,./images/BURGEHB.png,,,,,,,,,,,,,,,,,,,,,,,,,,,,,,,,,
,,,,,,,,,,,,,,,,,60a2dd0e1d378ad4d982dae3,70,2022-02-12_15h04.31.621,lexical_decision_task_DD_L5,2021.2.3,Linux aarch64,120.0912694,,,,,,,,,,1.6393,1,,,,,,,,,,,,,,,0,0.223642812,-0.233985086,1,0,0,1.6393,button_right_main,0.223642812,-0.233985086,1,0,0,,0,146,146,70,1,BANANA,LB,old,m,./images/BANANALB.png,,,,,,,,,,,,,,,,,,,,,,,,,,,,,,,,,
,,,,,,,,,,,,,,,,,60a2dd0e1d378ad4d982dae3,70,2022-02-12_15h04.31.621,lexical_decision_task_DD_L5,2021.2.3,Linux aarch64,120.0912694,,,,,,,,,,2.061,1,,,,,,,,,,,,,,,0,-0.239516675,-0.326537345,1,0,0,2.061,button_left_main,-0.239516675,-0.326537345,1,0,0,,0,147,147,104,1,GITTY,LB,old,z,./images/GITTYLB.png,,,,,,,,,,,,,,,,,,,,,,,,,,,,,,,,,
,,,,,,,,,,,,,,,,,60a2dd0e1d378ad4d982dae3,70,2022-02-12_15h04.31.621,lexical_decision_task_DD_L5,2021.2.3,Linux aarch64,120.0912694,,,,,,,,,,1.8795,1,,,,,,,,,,,,,,,0,0.223642812,-0.229906249,1,0,0,1.8795,button_right_main,0.223642812,-0.229906249,1,0,0,,0,148,148,54,1,CHERRY,HB,old,m,./images/CHERRYHB.png,,,,,,,,,,,,,,,,,,,,,,,,,,,,,,,,,
,,,,,,,,,,,,,,,,,60a2dd0e1d378ad4d982dae3,70,2022-02-12_15h04.31.621,lexical_decision_task_DD_L5,2021.2.3,Linux aarch64,120.0912694,,,,,,,,,,1.1653,1,,,,,,,,,,,,,,,0,0.231097323,-0.224701817,1,0,0,1.1653,button_right_main,0.231097323,-0.224701817,1,0,0,,0,149,149,41,1,STREAM,C,old,m,./images/STREAM.png,,,,,,,,,,,,,,,,,,,,,,,,,,,,,,,,,
,,,,,,,,,,,,,,,,,60a2dd0e1d378ad4d982dae3,70,2022-02-12_15h04.31.621,lexical_decision_task_DD_L5,2021.2.3,Linux aarch64,120.0912694,,,,,,,,,,1.05,1,,,,,,,,,,,,,,,0,0.242068096,-0.252411185,1,0,0,1.05,button_right_main,0.242068096,-0.252411185,1,0,0,,0,150,150,71,1,BUBBLE,C,old,m,./images/BUBBLE.png,,,,,,,,,,,,,,,,,,,,,,,,,,,,,,,,,
,,,,,,,,,,,,,,,,,60a2dd0e1d378ad4d982dae3,70,2022-02-12_15h04.31.621,lexical_decision_task_DD_L5,2021.2.3,Linux aarch64,120.0912694,,,,,,,,,,1.9616,1,,,,,,,,,,,,,,,0,-0.226576925,-0.356919076,1,0,0,1.9616,button_left_main,-0.226576925,-0.356919076,1,0,0,,0,151,151,164,1,SGREW,LB,old,z,./images/SGREWLB.png,,,,,,,,,,,,,,,,,,,,,,,,,,,,,,,,,
,,,,,,,,,,,,,,,,,60a2dd0e1d378ad4d982dae3,70,2022-02-12_15h04.31.621,lexical_decision_task_DD_L5,2021.2.3,Linux aarch64,120.0912694,,,,,,,,,,1.5138,1,,,,,,,,,,,,,,,0,0.22983151,-0.231875225,1,0,0,1.5138,button_right_main,0.22983151,-0.231875225,1,0,0,,0,152,152,55,1,ALLEY,LB,old,m,./images/ALLEYLB.png,,,,,,,,,,,,,,,,,,,,,,,,,,,,,,,,,
,,,,,,,,,,,,,,,,,60a2dd0e1d378ad4d982dae3,70,2022-02-12_15h04.31.621,lexical_decision_task_DD_L5,2021.2.3,Linux aarch64,120.0912694,,,,,,,,,,1.6634,0,,,,,,,,,,,,,,,0,0.238692348,-0.241018203,1,0,0,1.6634,button_right_main,0.238692348,-0.241018203,1,0,0,,0,153,153,130,1,CRILL,HB,old,z,./images/CRILLHB.png,,,,,,,,,,,,,,,,,,,,,,,,,,,,,,,,,
,,,,,,,,,,,,,,,,,60a2dd0e1d378ad4d982dae3,70,2022-02-12_15h04.31.621,lexical_decision_task_DD_L5,2021.2.3,Linux aarch64,120.0912694,,,,,,,,,,1.242,1,,,,,,,,,,,,,,,0,0.233910274,-0.231734785,1,0,0,1.242,button_right_main,0.233910274,-0.231734785,1,0,0,,0,154,154,62,1,MAMMAL,C,old,m,./images/MAMMAL.png,,,,,,,,,,,,,,,,,,,,,,,,,,,,,,,,,
,,,,,,,,,,,,,,,,,60a2dd0e1d378ad4d982dae3,70,2022-02-12_15h04.31.621,lexical_decision_task_DD_L5,2021.2.3,Linux aarch64,120.0912694,,,,,,,,,,1.8232,1,,,,,,,,,,,,,,,0,-0.231359,-0.344963296,1,0,0,1.8232,button_left_main,-0.231359,-0.344963296,1,0,0,,0,155,155,134,1,TROSS,LB,old,z,./images/TROSSLB.png,,,,,,,,,,,,,,,,,,,,,,,,,,,,,,,,,
,,,,,,,,,,,,,,,,,60a2dd0e1d378ad4d982dae3,70,2022-02-12_15h04.31.621,lexical_decision_task_DD_L5,2021.2.3,Linux aarch64,120.0912694,,,,,,,,,,1.3622,1,,,,,,,,,,,,,,,0,0.2173136,-0.234829208,1,0,0,1.3622,button_right_main,0.2173136,-0.234829208,1,0,0,,0,156,156,13,1,BUNNY,LB,old,m,./images/BUNNYLB.png,,,,,,,,,,,,,,,,,,,,,,,,,,,,,,,,,
,,,,,,,,,,,,,,,,,60a2dd0e1d378ad4d982dae3,70,2022-02-12_15h04.31.621,lexical_decision_task_DD_L5,2021.2.3,Linux aarch64,120.0912694,,,,,,,,,,1.7333,1,,,,,,,,,,,,,,,0,0.234613585,-0.234125822,1,0,0,1.7333,button_right_main,0.234613585,-0.234125822,1,0,0,,0,157,157,72,1,FLASK,HB,old,m,./images/FLASKHB.png,,,,,,,,,,,,,,,,,,,,,,,,,,,,,,,,,
,,,,,,,,,,,,,,,,,60a2dd0e1d378ad4d982dae3,70,2022-02-12_15h04.31.621,lexical_decision_task_DD_L5,2021.2.3,Linux aarch64,120.0912694,,,,,,,,,,1.3291,1,,,,,,,,,,,,,,,0,0.233910274,-0.234547735,1,0,0,1.3291,button_right_main,0.233910274,-0.234547735,1,0,0,,0,158,158,78,1,BROOM,HB,old,m,./images/BROOMHB.png,,,,,,,,,,,,,,,,,,,,,,,,,,,,,,,,,
,,,,,,,,,,,,,,,,,60a2dd0e1d378ad4d982dae3,70,2022-02-12_15h04.31.621,lexical_decision_task_DD_L5,2021.2.3,Linux aarch64,120.0912694,,,,,,,,,,2.1202,1,,,,,,,,,,,,,,,0,-0.227420788,-0.355794073,1,0,0,2.1202,button_left_main,-0.227420788,-0.355794073,1,0,0,,0,159,159,103,1,FLORT,HB,old,z,./images/FLORTHB.png,,,,,,,,,,,,,,,,,,,,,,,,,,,,,,,,,
,,,,,,,,,,,,,,,,,60a2dd0e1d378ad4d982dae3,70,2022-02-12_15h04.31.621,lexical_decision_task_DD_L5,2021.2.3,Linux aarch64,120.0912694,,,,,,,,,,1.5459,1,,,,,,,,,,,,,,,0,-0.234593975,-0.350589493,1,0,0,1.5459,button_left_main,-0.234593975,-0.350589493,1,0,0,,0,160,160,144,1,NAIRY,C,old,z,./images/NAIRY.png,,,,,,,,,,,,,,,,,,,,,,,,,,,,,,,,,
,,,,,,,,,,,,,,,,,60a2dd0e1d378ad4d982dae3,70,2022-02-12_15h04.31.621,lexical_decision_task_DD_L5,2021.2.3,Linux aarch64,120.0912694,,,,,,,,,,1.4665,1,,,,,,,,,,,,,,,0,-0.242892275,-0.351574055,1,0,0,1.4665,button_left_main,-0.242892275,-0.351574055,1,0,0,,0,161,161,116,1,BALGY,LB,old,z,./images/BALGYLB.png,,,,,,,,,,,,,,,,,,,,,,,,,,,,,,,,,
,,,,,,,,,,,,,,,,,60a2dd0e1d378ad4d982dae3,70,2022-02-12_15h04.31.621,lexical_decision_task_DD_L5,2021.2.3,Linux aarch64,120.0912694,,,,,,,,,,2.8291,1,,,,,,,,,,,,,,,0,-0.239235369,-0.355794073,1,0,0,2.8291,button_left_main,-0.239235369,-0.355794073,1,0,0,,0,162,162,166,1,SHORY,HB,old,z,./images/SHORYHB.png,,,,,,,,,,,,,,,,,,,,,,,,,,,,,,,,,
,,,,,,,,,,,,,,,,,60a2dd0e1d378ad4d982dae3,70,2022-02-12_15h04.31.621,lexical_decision_task_DD_L5,2021.2.3,Linux aarch64,120.0912694,,,,,,,,,,2.1219,1,,,,,,,,,,,,,,,0,0.231097323,-0.237360834,1,0,0,2.1219,button_right_main,0.231097323,-0.237360834,1,0,0,,0,163,163,82,1,PEBBLE,LB,old,m,./images/PEBBLELB.png,,,,,,,,,,,,,,,,,,,,,,,,,,,,,,,,,
,,,,,,,,,,,,,,,,,60a2dd0e1d378ad4d982dae3,70,2022-02-12_15h04.31.621,lexical_decision_task_DD_L5,2021.2.3,Linux aarch64,120.0912694,,,,,,,,,,1.2996,1,,,,,,,,,,,,,,,0,0.252898059,-0.228358889,1,0,0,1.2996,button_right_main,0.252898059,-0.228358889,1,0,0,,0,164,164,23,1,CLOTH,C,old,m,./images/CLOTH.png,,,,,,,,,,,,,,,,,,,,,,,,,,,,,,,,,
,,,,,,,,,,,,,,,,,60a2dd0e1d378ad4d982dae3,70,2022-02-12_15h04.31.621,lexical_decision_task_DD_L5,2021.2.3,Linux aarch64,120.0912694,,,,,,,,,,1.2284,1,,,,,,,,,,,,,,,0,0.229128199,-0.217387672,1,0,0,1.2284,button_right_main,0.229128199,-0.217387672,1,0,0,,0,165,165,25,1,CHALK,LB,old,m,./images/CHALKLB.png,,,,,,,,,,,,,,,,,,,,,,,,,,,,,,,,,
,,,,,,,,,,,,,,,,,60a2dd0e1d378ad4d982dae3,70,2022-02-12_15h04.31.621,lexical_decision_task_DD_L5,2021.2.3,Linux aarch64,120.0912694,,,,,,,,,,1.0055,1,,,,,,,,,,,,,,,0,0.235176086,-0.245800278,1,0,0,1.0055,button_right_main,0.235176086,-0.245800278,1,0,0,,0,166,166,73,1,GLOVE,LB,old,m,./images/GLOVELB.png,,,,,,,,,,,,,,,,,,,,,,,,,,,,,,,,,
,,,,,,,,,,,,,,,,,60a2dd0e1d378ad4d982dae3,70,2022-02-12_15h04.31.621,lexical_decision_task_DD_L5,2021.2.3,Linux aarch64,120.0912694,,,,,,,,,,2.62,0,,,,,,,,,,,,,,,0,-0.226576925,-0.34735463,1,0,0,2.62,button_left_main,-0.226576925,-0.34735463,1,0,0,,0,167,167,63,1,BAKER,HB,old,m,./images/BAKERHB.png,,,,,,,,,,,,,,,,,,,,,,,,,,,,,,,,,
,,,,,,,,,,,,,,,,,60a2dd0e1d378ad4d982dae3,70,2022-02-12_15h04.31.621,lexical_decision_task_DD_L5,2021.2.3,Linux aarch64,120.0912694,,,,,,,,,,,,,,,,,,,,,,,,,,,,,,,,,,,,,,,,,,,,,,How likely will it be that you will recognize the words presented clearly on a scale of 0 (not likely) to 100 (most likely)?,,,,,0.012246326,-0.400663209,1,0,0,jol_adv,5,16.1785,0,0,0,0,1,,,,,,,,,,,,,,,,,,,
,,,,,,,,,,,,,,,,,60a2dd0e1d378ad4d982dae3,70,2022-02-12_15h04.31.621,lexical_decision_task_DD_L5,2021.2.3,Linux aarch64,120.0912694,,,,,,,,,,,,,,,,,,,,,,,,,,,,,,,,,,,,,,,,,,,,,,How likely will it be that you will recognize the words presented slighly blurred on a scale of 0 (not likely) to 100 (most likely)?,,,,,,,,,,,4,9.4255,0,1,1,1,1,,,,,,,,,,,,,,,,,,,
,,,,,,,,,,,,,,,,,60a2dd0e1d378ad4d982dae3,70,2022-02-12_15h04.31.621,lexical_decision_task_DD_L5,2021.2.3,Linux aarch64,120.0912694,,,,,,,,,,,,,,,,,,,,,,,,,,,,,,,,,,,,,,,,,,,,,,How likely will it be that you will recognize the words presented very blurred on a scale of 0 (not likely) to 100 (most likely)?,,,,,,,,,,,3,5.5343,0,2,2,2,1,,,,,,,,,,,,,,,,,,,
,0.062739585,-0.389832728,1,0,0,instr_done_button,,,,,,1,test,"In the next phase you will be presented with the words from the the first phase. Your job is to decide whether you remember seeing the word or not. If you remember seeing the word press ""old"" or type ""m"". If you do not remember seeing the word press ""new"" or type ""z"". Please press the space bar or click on continue to begin. ",,,60a2dd0e1d378ad4d982dae3,70,2022-02-12_15h04.31.621,lexical_decision_task_DD_L5,2021.2.3,Linux aarch64,120.0912694,,,,,,,,,,,,,,,,,,,,,,,,,,,,,,,,,,,,,,,,,,,,,,,,,,,,,,,,,,,,,,,,0,0,0,0,1,,,,,,,,,,,,,,
,0.066115148,-0.381393433,1,0,0,instr_done_button,,,,,,1,test,"In the next phase you will be presented with the words from the the first phase. Your job is to decide whether you remember seeing the word or not. If you remember seeing the word press ""old"" or type ""m"". If you do not remember seeing the word press ""new"" or type ""z"". Please press the space bar or click on continue to begin. ",,,60a2dd0e1d378ad4d982dae3,70,2022-02-12_15h04.31.621,lexical_decision_task_DD_L5,2021.2.3,Linux aarch64,120.0912694,,,,,,,,,,,,,,,,,,,,,,,,,,,,,,,,,,,,,,,,,,,,,,,,,,,,,,,,,,,,,,,,1,0,1,0,1,,,,,,,,,,,,,,
,0.147129392,-0.397850259,1,0,0,instr_done_button,,,,,,1,test,"In the next phase you will be presented with the words from the the first phase. Your job is to decide whether you remember seeing the word or not. If you remember seeing the word press ""old"" or type ""m"". If you do not remember seeing the word press ""new"" or type ""z"". Please press the space bar or click on continue to begin. ",,,60a2dd0e1d378ad4d982dae3,70,2022-02-12_15h04.31.621,lexical_decision_task_DD_L5,2021.2.3,Linux aarch64,120.0912694,,,,,,,,,,,,,,,,,,,,,,,,,,,,,,,,,,,,,,,,,,,,,,,,,,,,,,,,,,,,,,,,2,0,2,0,1,,,,,,,,,,,,,,
,0.06639651,-0.409806187,1,0,0,instr_done_button,,,,,,1,test,"In the next phase you will be presented with the words from the the first phase. Your job is to decide whether you remember seeing the word or not. If you remember seeing the word press ""old"" or type ""m"". If you do not remember seeing the word press ""new"" or type ""z"". Please press the space bar or click on continue to begin. ",,,60a2dd0e1d378ad4d982dae3,70,2022-02-12_15h04.31.621,lexical_decision_task_DD_L5,2021.2.3,Linux aarch64,120.0912694,,,,,,,,,,,,,,,,,,,,,,,,,,,,,,,,,,,,,,,,,,,,,,,,,,,,,,,,,,,,,,,,3,0,3,0,1,,,,,,,,,,,,,,
,0.040938924,-0.408821328,1,0,0,instr_done_button,,,,,,1,test,"In the next phase you will be presented with the words from the the first phase. Your job is to decide whether you remember seeing the word or not. If you remember seeing the word press ""old"" or type ""m"". If you do not remember seeing the word press ""new"" or type ""z"". Please press the space bar or click on continue to begin. ",,,60a2dd0e1d378ad4d982dae3,70,2022-02-12_15h04.31.621,lexical_decision_task_DD_L5,2021.2.3,Linux aarch64,120.0912694,,,,,,,,,,,,,,,,,,,,,,,,,,,,,,,,,,,,,,,,,,,,,,,,,,,,,,,,,,,,,,,,4,0,4,0,1,,,,,,,,,,,,,,
,,,,,,,,,,,,,,,,,60a2dd0e1d378ad4d982dae3,70,2022-02-12_15h04.31.621,lexical_decision_task_DD_L5,2021.2.3,Linux aarch64,120.0912694,,,,,,,,,,1.9712,0,,,,,,,,,,,,,,,,,,,,,,,0.281309257,-0.247628962,1,0,0,,,,,,,LIZARD,C,z,y,./images/LIZARD.png,,,,,,,,,,,,,,,,,,,,,0,0.281309257,-0.247628962,1,0,0,1.9712,button_right_test,0,0,0,128,1
,,,,,,,,,,,,,,,,,60a2dd0e1d378ad4d982dae3,70,2022-02-12_15h04.31.621,lexical_decision_task_DD_L5,2021.2.3,Linux aarch64,120.0912694,,,,,,,,,,1.3546,0,,,,,,,,,,,,,,,,,,,,,,,0.270197896,-0.247769402,1,0,0,,,,,,,MIRROR,HB,z,y,./images/MIRRORHB.png,,,,,,,,,,,,,,,,,,,,,0,0.270197896,-0.247769402,1,0,0,1.3546,button_right_test,0,1,1,147,1
,,,,,,,,,,,,,,,,,60a2dd0e1d378ad4d982dae3,70,2022-02-12_15h04.31.621,lexical_decision_task_DD_L5,2021.2.3,Linux aarch64,120.0912694,,,,,,,,,,1.244,0,,,,,,,,,,,,,,,,,,,,,,,0.261477572,-0.259584742,1,0,0,,,,,,,CRUST,LB,z,y,./images/CRUSTLB.png,,,,,,,,,,,,,,,,,,,,,0,0.261477572,-0.259584742,1,0,0,1.244,button_right_test,0,2,2,163,1
,,,,,,,,,,,,,,,,,60a2dd0e1d378ad4d982dae3,70,2022-02-12_15h04.31.621,lexical_decision_task_DD_L5,2021.2.3,Linux aarch64,120.0912694,,,,,,,,,,0.95,1,,,,,,,,,,,,,,,,,,,,,,,0.263868832,-0.253536335,1,0,0,,,,,,,STEAK,LB,m,y,./images/STEAKLB.png,,,,,,,,,,,,,,,,,,,,,0,0.263868832,-0.253536335,1,0,0,0.95,button_right_test,0,3,3,31,1
,,,,,,,,,,,,,,,,,60a2dd0e1d378ad4d982dae3,70,2022-02-12_15h04.31.621,lexical_decision_task_DD_L5,2021.2.3,Linux aarch64,120.0912694,,,,,,,,,,1.9753,1,,,,,,,,,,,,,,,,,,,,,,,-0.241767106,-0.324989985,1,0,0,,,,,,,PASTA,C,z,y,./images/PASTA.png,,,,,,,,,,,,,,,,,,,,,0,-0.241767106,-0.324989985,1,0,0,1.9753,button_left_test,0,4,4,89,1
,,,,,,,,,,,,,,,,,60a2dd0e1d378ad4d982dae3,70,2022-02-12_15h04.31.621,lexical_decision_task_DD_L5,2021.2.3,Linux aarch64,120.0912694,,,,,,,,,,2.0883,0,,,,,,,,,,,,,,,,,,,,,,,0.246709361,-0.234829208,1,0,0,,,,,,,SCREW,HB,z,y,./images/SCREWHB.png,,,,,,,,,,,,,,,,,,,,,0,0.196919413,-0.255224432,1,0,0,2.0883,button_right_test,0,5,5,108,1
,,,,,,,,,,,,,,,,,60a2dd0e1d378ad4d982dae3,70,2022-02-12_15h04.31.621,lexical_decision_task_DD_L5,2021.2.3,Linux aarch64,120.0912694,,,,,,,,,,1.4502,1,,,,,,,,,,,,,,,,,,,,,,,0.231237911,-0.244112626,1,0,0,,,,,,,DRILL,HB,m,y,./images/DRILLHB.png,,,,,,,,,,,,,,,,,,,,,0,0.231237911,-0.244112626,1,0,0,1.4502,button_right_test,0,6,6,81,1
,,,,,,,,,,,,,,,,,60a2dd0e1d378ad4d982dae3,70,2022-02-12_15h04.31.621,lexical_decision_task_DD_L5,2021.2.3,Linux aarch64,120.0912694,,,,,,,,,,1.8902,1,,,,,,,,,,,,,,,,,,,,,,,-0.215043651,-0.309799046,1,0,0,,,,,,,MUFFIN,LB,z,y,./images/MUFFINLB.png,,,,,,,,,,,,,,,,,,,,,0,-0.215043651,-0.309799046,1,0,0,1.8902,button_left_test,0,7,7,139,1
,,,,,,,,,,,,,,,,,60a2dd0e1d378ad4d982dae3,70,2022-02-12_15h04.31.621,lexical_decision_task_DD_L5,2021.2.3,Linux aarch64,120.0912694,,,,,,,,,,2.3539,0,,,,,,,,,,,,,,,,,,,,,,,-0.218700502,-0.308392719,1,0,0,,,,,,,HOCKEY,C,m,y,./images/HOCKEY.png,,,,,,,,,,,,,,,,,,,,,0,-0.218700502,-0.308392719,1,0,0,2.3539,button_left_test,0,8,8,32,1
,,,,,,,,,,,,,,,,,60a2dd0e1d378ad4d982dae3,70,2022-02-12_15h04.31.621,lexical_decision_task_DD_L5,2021.2.3,Linux aarch64,120.0912694,,,,,,,,,,1.6727,1,,,,,,,,,,,,,,,,,,,,,,,0.231378648,-0.244956452,1,0,0,,,,,,,FENCE,C,m,y,./images/FENCE.png,,,,,,,,,,,,,,,,,,,,,0,0.231378648,-0.244956452,1,0,0,1.6727,button_right_test,0,9,9,14,1
,,,,,,,,,,,,,,,,,60a2dd0e1d378ad4d982dae3,70,2022-02-12_15h04.31.621,lexical_decision_task_DD_L5,2021.2.3,Linux aarch64,120.0912694,,,,,,,,,,1.1546,1,,,,,,,,,,,,,,,,,,,,,,,0.237848449,-0.217106495,1,0,0,,,,,,,FLESH,HB,m,y,./images/FLESHHB.png,,,,,,,,,,,,,,,,,,,,,0,0.237848449,-0.217106495,1,0,0,1.1546,button_right_test,0,10,10,24,1
,,,,,,,,,,,,,,,,,60a2dd0e1d378ad4d982dae3,70,2022-02-12_15h04.31.621,lexical_decision_task_DD_L5,2021.2.3,Linux aarch64,120.0912694,,,,,,,,,,1.1116,1,,,,,,,,,,,,,,,,,,,,,,,0.238973747,-0.235954507,1,0,0,,,,,,,DONKEY,LB,m,y,./images/DONKEYLB.png,,,,,,,,,,,,,,,,,,,,,0,0.238973747,-0.235954507,1,0,0,1.1116,button_right_test,0,11,11,19,1
,,,,,,,,,,,,,,,,,60a2dd0e1d378ad4d982dae3,70,2022-02-12_15h04.31.621,lexical_decision_task_DD_L5,2021.2.3,Linux aarch64,120.0912694,,,,,,,,,,2.1778,1,,,,,,,,,,,,,,,,,,,,,,,-0.243032918,-0.315987893,1,0,0,,,,,,,KITTEN,HB,z,y,./images/KITTENHB.png,,,,,,,,,,,,,,,,,,,,,0,-0.243032918,-0.315987893,1,0,0,2.1778,button_left_test,0,12,12,129,1
,,,,,,,,,,,,,,,,,60a2dd0e1d378ad4d982dae3,70,2022-02-12_15h04.31.621,lexical_decision_task_DD_L5,2021.2.3,Linux aarch64,120.0912694,,,,,,,,,,1.6139,1,,,,,,,,,,,,,,,,,,,,,,,0.239255072,-0.240173932,1,0,0,,,,,,,CANOE,LB,m,y,./images/CANOELB.png,,,,,,,,,,,,,,,,,,,,,0,0.239255072,-0.240173932,1,0,0,1.6139,button_right_test,0,13,13,58,1
,,,,,,,,,,,,,,,,,60a2dd0e1d378ad4d982dae3,70,2022-02-12_15h04.31.621,lexical_decision_task_DD_L5,2021.2.3,Linux aarch64,120.0912694,,,,,,,,,,1.0458,1,,,,,,,,,,,,,,,,,,,,,,,0.236864034,-0.22610844,1,0,0,,,,,,,STOVE,C,m,y,./images/STOVE.png,,,,,,,,,,,,,,,,,,,,,0,0.236864034,-0.22610844,1,0,0,1.0458,button_right_test,0,14,14,2,1
,,,,,,,,,,,,,,,,,60a2dd0e1d378ad4d982dae3,70,2022-02-12_15h04.31.621,lexical_decision_task_DD_L5,2021.2.3,Linux aarch64,120.0912694,,,,,,,,,,1.3863,1,,,,,,,,,,,,,,,,,,,,,,,0.244037147,-0.227936976,1,0,0,,,,,,,TOWEL,LB,m,y,./images/TOWELLB.png,,,,,,,,,,,,,,,,,,,,,0,0.244037147,-0.227936976,1,0,0,1.3863,button_right_test,0,15,15,1,1
,,,,,,,,,,,,,,,,,60a2dd0e1d378ad4d982dae3,70,2022-02-12_15h04.31.621,lexical_decision_task_DD_L5,2021.2.3,Linux aarch64,120.0912694,,,,,,,,,,2.7949,1,,,,,,,,,,,,,,,,,,,,,,,-0.250768661,-0.348761253,1,0,0,,,,,,,COOKER,HB,z,y,./images/COOKERHB.png,,,,,,,,,,,,,,,,,,,,,0,-0.250768661,-0.348761253,1,0,0,2.7949,button_left_test,0,16,16,153,1
,,,,,,,,,,,,,,,,,60a2dd0e1d378ad4d982dae3,70,2022-02-12_15h04.31.621,lexical_decision_task_DD_L5,2021.2.3,Linux aarch64,120.0912694,,,,,,,,,,1.355,1,,,,,,,,,,,,,,,,,,,,,,,0.235457411,-0.234125822,1,0,0,,,,,,,BAMBOO,C,m,y,./images/BAMBOO.png,,,,,,,,,,,,,,,,,,,,,0,0.235457411,-0.234125822,1,0,0,1.355,button_right_test,0,17,17,5,1
,,,,,,,,,,,,,,,,,60a2dd0e1d378ad4d982dae3,70,2022-02-12_15h04.31.621,lexical_decision_task_DD_L5,2021.2.3,Linux aarch64,120.0912694,,,,,,,,,,1.0862,1,,,,,,,,,,,,,,,,,,,,,,,0.238551834,-0.236235683,1,0,0,,,,,,,RAZOR,LB,m,y,./images/RAZORLB.png,,,,,,,,,,,,,,,,,,,,,0,0.238551834,-0.236235683,1,0,0,1.0862,button_right_test,0,18,18,34,1
,,,,,,,,,,,,,,,,,60a2dd0e1d378ad4d982dae3,70,2022-02-12_15h04.31.621,lexical_decision_task_DD_L5,2021.2.3,Linux aarch64,120.0912694,,,,,,,,,,2.3878,1,,,,,,,,,,,,,,,,,,,,,,,-0.222638714,-0.323442922,1,0,0,,,,,,,THROAT,HB,z,y,./images/THROATHB.png,,,,,,,,,,,,,,,,,,,,,0,-0.222638714,-0.323442922,1,0,0,2.3878,button_left_test,0,19,19,120,1
,,,,,,,,,,,,,,,,,60a2dd0e1d378ad4d982dae3,70,2022-02-12_15h04.31.621,lexical_decision_task_DD_L5,2021.2.3,Linux aarch64,120.0912694,,,,,,,,,,1.6783,1,,,,,,,,,,,,,,,,,,,,,,,-0.217434689,-0.327521759,1,0,0,,,,,,,BIRTH,LB,z,y,./images/BIRTHLB.png,,,,,,,,,,,,,,,,,,,,,0,-0.217434689,-0.327521759,1,0,0,1.6783,button_left_test,0,20,20,121,1
,,,,,,,,,,,,,,,,,60a2dd0e1d378ad4d982dae3,70,2022-02-12_15h04.31.621,lexical_decision_task_DD_L5,2021.2.3,Linux aarch64,120.0912694,,,,,,,,,,1.5704,1,,,,,,,,,,,,,,,,,,,,,,,-0.21996637,-0.331460453,1,0,0,,,,,,,SNACK,LB,z,y,./images/SNACKLB.png,,,,,,,,,,,,,,,,,,,,,0,-0.21996637,-0.331460453,1,0,0,1.5704,button_left_test,0,21,21,157,1
,,,,,,,,,,,,,,,,,60a2dd0e1d378ad4d982dae3,70,2022-02-12_15h04.31.621,lexical_decision_task_DD_L5,2021.2.3,Linux aarch64,120.0912694,,,,,,,,,,1.5713,0,,,,,,,,,,,,,,,,,,,,,,,0.227581061,-0.220200918,1,0,0,,,,,,,MOTOR,LB,z,y,./images/MOTORLB.png,,,,,,,,,,,,,,,,,,,,,0,0.227581061,-0.220200918,1,0,0,1.5713,button_right_test,0,22,22,97,1
,,,,,,,,,,,,,,,,,60a2dd0e1d378ad4d982dae3,70,2022-02-12_15h04.31.621,lexical_decision_task_DD_L5,2021.2.3,Linux aarch64,120.0912694,,,,,,,,,,1.6621,1,,,,,,,,,,,,,,,,,,,,,,,0.230534822,-0.222873428,1,0,0,,,,,,,CRATER,HB,m,y,./images/CRATERHB.png,,,,,,,,,,,,,,,,,,,,,0,0.230534822,-0.222873428,1,0,0,1.6621,button_right_test,0,23,23,3,1
,,,,,,,,,,,,,,,,,60a2dd0e1d378ad4d982dae3,70,2022-02-12_15h04.31.621,lexical_decision_task_DD_L5,2021.2.3,Linux aarch64,120.0912694,,,,,,,,,,1.1403,1,,,,,,,,,,,,,,,,,,,,,,,0.242771186,-0.22442064,1,0,0,,,,,,,BANANA,LB,m,y,./images/BANANALB.png,,,,,,,,,,,,,,,,,,,,,0,0.242771186,-0.22442064,1,0,0,1.1403,button_right_test,0,24,24,70,1
,,,,,,,,,,,,,,,,,60a2dd0e1d378ad4d982dae3,70,2022-02-12_15h04.31.621,lexical_decision_task_DD_L5,2021.2.3,Linux aarch64,120.0912694,,,,,,,,,,2.3703,1,,,,,,,,,,,,,,,,,,,,,,,-0.225311057,-0.320488939,1,0,0,,,,,,,PACKET,C,z,y,./images/PACKET.png,,,,,,,,,,,,,,,,,,,,,0,-0.225311057,-0.320488939,1,0,0,2.3703,button_left_test,0,25,25,140,1
,,,,,,,,,,,,,,,,,60a2dd0e1d378ad4d982dae3,70,2022-02-12_15h04.31.621,lexical_decision_task_DD_L5,2021.2.3,Linux aarch64,120.0912694,,,,,,,,,,1.4974,0,,,,,,,,,,,,,,,,,,,,,,,0.230815999,-0.231171988,1,0,0,,,,,,,MOOSE,HB,z,y,./images/MOOSEHB.png,,,,,,,,,,,,,,,,,,,,,0,0.230815999,-0.231171988,1,0,0,1.4974,button_right_test,0,26,26,141,1
,,,,,,,,,,,,,,,,,60a2dd0e1d378ad4d982dae3,70,2022-02-12_15h04.31.621,lexical_decision_task_DD_L5,2021.2.3,Linux aarch64,120.0912694,,,,,,,,,,2.9096,1,,,,,,,,,,,,,,,,,,,,,,,-0.228967963,-0.321473649,1,0,0,,,,,,,NOOSE,HB,z,y,./images/NOOSEHB.png,,,,,,,,,,,,,,,,,,,,,0,-0.228967963,-0.321473649,1,0,0,2.9096,button_left_test,0,27,27,156,1
,,,,,,,,,,,,,,,,,60a2dd0e1d378ad4d982dae3,70,2022-02-12_15h04.31.621,lexical_decision_task_DD_L5,2021.2.3,Linux aarch64,120.0912694,,,,,,,,,,1.5529,1,,,,,,,,,,,,,,,,,,,,,,,-0.228264725,-0.324427336,1,0,0,,,,,,,SUNSET,LB,z,y,./images/SUNSETLB.png,,,,,,,,,,,,,,,,,,,,,0,-0.228264725,-0.324427336,1,0,0,1.5529,button_left_test,0,28,28,166,1
,,,,,,,,,,,,,,,,,60a2dd0e1d378ad4d982dae3,70,2022-02-12_15h04.31.621,lexical_decision_task_DD_L5,2021.2.3,Linux aarch64,120.0912694,,,,,,,,,,1.8102,0,,,,,,,,,,,,,,,,,,,,,,,-0.21785662,-0.31373774,1,0,0,,,,,,,SAUCE,HB,m,y,./images/SAUCEHB.png,,,,,,,,,,,,,,,,,,,,,0,-0.21785662,-0.31373774,1,0,0,1.8102,button_left_test,0,29,29,51,1
,,,,,,,,,,,,,,,,,60a2dd0e1d378ad4d982dae3,70,2022-02-12_15h04.31.621,lexical_decision_task_DD_L5,2021.2.3,Linux aarch64,120.0912694,,,,,,,,,,1.476,1,,,,,,,,,,,,,,,,,,,,,,,0.225471348,-0.227233739,1,0,0,,,,,,,ARROW,HB,m,y,./images/ARROWHB.png,,,,,,,,,,,,,,,,,,,,,0,0.225471348,-0.227233739,1,0,0,1.476,button_right_test,0,30,30,69,1
,,,,,,,,,,,,,,,,,60a2dd0e1d378ad4d982dae3,70,2022-02-12_15h04.31.621,lexical_decision_task_DD_L5,2021.2.3,Linux aarch64,120.0912694,,,,,,,,,,1.3055,1,,,,,,,,,,,,,,,,,,,,,,,0.230815999,-0.22779624,1,0,0,,,,,,,SLOPE,HB,m,y,./images/SLOPEHB.png,,,,,,,,,,,,,,,,,,,,,0,0.230815999,-0.22779624,1,0,0,1.3055,button_right_test,0,31,31,30,1
,,,,,,,,,,,,,,,,,60a2dd0e1d378ad4d982dae3,70,2022-02-12_15h04.31.621,lexical_decision_task_DD_L5,2021.2.3,Linux aarch64,120.0912694,,,,,,,,,,2.2869,0,,,,,,,,,,,,,,,,,,,,,,,-0.239094762,-0.310924345,1,0,0,,,,,,,JUMPER,C,m,y,./images/JUMPER.png,,,,,,,,,,,,,,,,,,,,,0,-0.239094762,-0.310924345,1,0,0,2.2869,button_left_test,0,32,32,74,1
,,,,,,,,,,,,,,,,,60a2dd0e1d378ad4d982dae3,70,2022-02-12_15h04.31.621,lexical_decision_task_DD_L5,2021.2.3,Linux aarch64,120.0912694,,,,,,,,,,2.3533,1,,,,,,,,,,,,,,,,,,,,,,,-0.238250825,-0.297984003,1,0,0,,,,,,,FALCON,LB,z,y,./images/FALCONLB.png,,,,,,,,,,,,,,,,,,,,,0,-0.238250825,-0.297984003,1,0,0,2.3533,button_left_test,0,33,33,112,1
,,,,,,,,,,,,,,,,,60a2dd0e1d378ad4d982dae3,70,2022-02-12_15h04.31.621,lexical_decision_task_DD_L5,2021.2.3,Linux aarch64,120.0912694,,,,,,,,,,1.3782,1,,,,,,,,,,,,,,,,,,,,,,,0.222939723,-0.216403109,1,0,0,,,,,,,BISHOP,LB,m,y,./images/BISHOPLB.png,,,,,,,,,,,,,,,,,,,,,0,0.222939723,-0.216403109,1,0,0,1.3782,button_right_test,0,34,34,49,1
,,,,,,,,,,,,,,,,,60a2dd0e1d378ad4d982dae3,70,2022-02-12_15h04.31.621,lexical_decision_task_DD_L5,2021.2.3,Linux aarch64,120.0912694,,,,,,,,,,1.2565,1,,,,,,,,,,,,,,,,,,,,,,,0.238411024,-0.24073673,1,0,0,,,,,,,STOOL,LB,m,y,./images/STOOLLB.png,,,,,,,,,,,,,,,,,,,,,0,0.238411024,-0.24073673,1,0,0,1.2565,button_right_test,0,35,35,43,1
,,,,,,,,,,,,,,,,,60a2dd0e1d378ad4d982dae3,70,2022-02-12_15h04.31.621,lexical_decision_task_DD_L5,2021.2.3,Linux aarch64,120.0912694,,,,,,,,,,1.0483,1,,,,,,,,,,,,,,,,,,,,,,,0.235316897,-0.244674979,1,0,0,,,,,,,COLLAR,HB,m,y,./images/COLLARHB.png,,,,,,,,,,,,,,,,,,,,,0,0.235316897,-0.244674979,1,0,0,1.0483,button_right_test,0,36,36,15,1
,,,,,,,,,,,,,,,,,60a2dd0e1d378ad4d982dae3,70,2022-02-12_15h04.31.621,lexical_decision_task_DD_L5,2021.2.3,Linux aarch64,120.0912694,,,,,,,,,,0.9458,1,,,,,,,,,,,,,,,,,,,,,,,0.264290745,-0.273087733,1,0,0,,,,,,,GARDEN,LB,m,y,./images/GARDENLB.png,,,,,,,,,,,,,,,,,,,,,0,0.264290745,-0.273087733,1,0,0,0.9458,button_right_test,0,37,37,10,1
,,,,,,,,,,,,,,,,,60a2dd0e1d378ad4d982dae3,70,2022-02-12_15h04.31.621,lexical_decision_task_DD_L5,2021.2.3,Linux aarch64,120.0912694,,,,,,,,,,2.2048,1,,,,,,,,,,,,,,,,,,,,,,,-0.233609375,-0.329209855,1,0,0,,,,,,,TOMATO,HB,z,y,./images/TOMATOHB.png,,,,,,,,,,,,,,,,,,,,,0,-0.233609375,-0.329209855,1,0,0,2.2048,button_left_test,0,38,38,84,1
,,,,,,,,,,,,,,,,,60a2dd0e1d378ad4d982dae3,70,2022-02-12_15h04.31.621,lexical_decision_task_DD_L5,2021.2.3,Linux aarch64,120.0912694,,,,,,,,,,2.5878,0,,,,,,,,,,,,,,,,,,,,,,,-0.233468732,-0.329068971,1,0,0,,,,,,,LLAMA,C,m,y,./images/LLAMA.png,,,,,,,,,,,,,,,,,,,,,0,-0.233468732,-0.329068971,1,0,0,2.5878,button_left_test,0,39,39,35,1
,,,,,,,,,,,,,,,,,60a2dd0e1d378ad4d982dae3,70,2022-02-12_15h04.31.621,lexical_decision_task_DD_L5,2021.2.3,Linux aarch64,120.0912694,,,,,,,,,,1.7377,1,,,,,,,,,,,,,,,,,,,,,,,0.236864034,-0.225264466,1,0,0,,,,,,,CHAIN,HB,m,y,./images/CHAINHB.png,,,,,,,,,,,,,,,,,,,,,0,0.236864034,-0.225264466,1,0,0,1.7377,button_right_test,0,40,40,42,1
,,,,,,,,,,,,,,,,,60a2dd0e1d378ad4d982dae3,70,2022-02-12_15h04.31.621,lexical_decision_task_DD_L5,2021.2.3,Linux aarch64,120.0912694,,,,,,,,,,1.7863,1,,,,,,,,,,,,,,,,,,,,,,,0.103809357,-0.393208476,1,0,0,,,,,,,POSTER,C,m,y,./images/POSTER.png,break_done_button,,,,,,,,,,,,,,,,,,,,0,0.292842532,-0.293623545,1,0,0,1.7863,button_right_test,0,41,41,53,1
,,,,,,,,,,,,,,,,,60a2dd0e1d378ad4d982dae3,70,2022-02-12_15h04.31.621,lexical_decision_task_DD_L5,2021.2.3,Linux aarch64,120.0912694,,,,,,,,,,1.5305,1,,,,,,,,,,,,,,,,,,,,,,,-0.218137945,-0.330897655,1,0,0,,,,,,,WALRUS,C,z,y,./images/WALRUS.png,,,,,,,,,,,,,,,,,,,,,0,-0.218137945,-0.330897655,1,0,0,1.5305,button_left_test,0,42,42,107,1
,,,,,,,,,,,,,,,,,60a2dd0e1d378ad4d982dae3,70,2022-02-12_15h04.31.621,lexical_decision_task_DD_L5,2021.2.3,Linux aarch64,120.0912694,,,,,,,,,,1.6546,1,,,,,,,,,,,,,,,,,,,,,,,0.250085034,-0.253536335,1,0,0,,,,,,,BROOM,HB,m,y,./images/BROOMHB.png,,,,,,,,,,,,,,,,,,,,,0,0.250085034,-0.253536335,1,0,0,1.6546,button_right_test,0,43,43,78,1
,,,,,,,,,,,,,,,,,60a2dd0e1d378ad4d982dae3,70,2022-02-12_15h04.31.621,lexical_decision_task_DD_L5,2021.2.3,Linux aarch64,120.0912694,,,,,,,,,,1.3446,1,,,,,,,,,,,,,,,,,,,,,,,0.233207036,-0.239189518,1,0,0,,,,,,,MIDGET,LB,m,y,./images/MIDGETLB.png,,,,,,,,,,,,,,,,,,,,,0,0.233207036,-0.239189518,1,0,0,1.3446,button_right_test,0,44,44,76,1
,,,,,,,,,,,,,,,,,60a2dd0e1d378ad4d982dae3,70,2022-02-12_15h04.31.621,lexical_decision_task_DD_L5,2021.2.3,Linux aarch64,120.0912694,,,,,,,,,,0.9958,1,,,,,,,,,,,,,,,,,,,,,,,0.230394012,-0.253536335,1,0,0,,,,,,,PEBBLE,LB,m,y,./images/PEBBLELB.png,,,,,,,,,,,,,,,,,,,,,0,0.230394012,-0.253536335,1,0,0,0.9958,button_right_test,0,45,45,82,1
,,,,,,,,,,,,,,,,,60a2dd0e1d378ad4d982dae3,70,2022-02-12_15h04.31.621,lexical_decision_task_DD_L5,2021.2.3,Linux aarch64,120.0912694,,,,,,,,,,1.1221,1,,,,,,,,,,,,,,,,,,,,,,,0.230534822,-0.248894701,1,0,0,,,,,,,BAKER,HB,m,y,./images/BAKERHB.png,,,,,,,,,,,,,,,,,,,,,0,0.230534822,-0.248894701,1,0,0,1.1221,button_right_test,0,46,46,63,1
,,,,,,,,,,,,,,,,,60a2dd0e1d378ad4d982dae3,70,2022-02-12_15h04.31.621,lexical_decision_task_DD_L5,2021.2.3,Linux aarch64,120.0912694,,,,,,,,,,1.8576,1,,,,,,,,,,,,,,,,,,,,,,,-0.238391506,-0.384909769,1,0,0,,,,,,,SKIING,C,z,y,./images/SKIING.png,,,,,,,,,,,,,,,,,,,,,0,-0.238391506,-0.384909769,1,0,0,1.8576,button_left_test,0,47,47,101,1
,,,,,,,,,,,,,,,,,60a2dd0e1d378ad4d982dae3,70,2022-02-12_15h04.31.621,lexical_decision_task_DD_L5,2021.2.3,Linux aarch64,120.0912694,,,,,,,,,,1.4384,1,,,,,,,,,,,,,,,,,,,,,,,-0.246267874,-0.373094725,1,0,0,,,,,,,SPORT,HB,z,y,./images/SPORTHB.png,,,,,,,,,,,,,,,,,,,,,0,-0.246267874,-0.373094725,1,0,0,1.4384,button_left_test,0,48,48,132,1
,,,,,,,,,,,,,,,,,60a2dd0e1d378ad4d982dae3,70,2022-02-12_15h04.31.621,lexical_decision_task_DD_L5,2021.2.3,Linux aarch64,120.0912694,,,,,,,,,,1.515,1,,,,,,,,,,,,,,,,,,,,,,,-0.242751649,-0.354246565,1,0,0,,,,,,,INFANT,LB,z,y,./images/INFANTLB.png,,,,,,,,,,,,,,,,,,,,,0,-0.242751649,-0.354246565,1,0,0,1.515,button_left_test,0,49,49,160,1
,,,,,,,,,,,,,,,,,60a2dd0e1d378ad4d982dae3,70,2022-02-12_15h04.31.621,lexical_decision_task_DD_L5,2021.2.3,Linux aarch64,120.0912694,,,,,,,,,,1.8872,0,,,,,,,,,,,,,,,,,,,,,,,0.240520885,-0.252130008,1,0,0,,,,,,,SHELF,HB,z,y,./images/SHELFHB.png,,,,,,,,,,,,,,,,,,,,,0,0.240520885,-0.252130008,1,0,0,1.8872,button_right_test,0,50,50,123,1
,,,,,,,,,,,,,,,,,60a2dd0e1d378ad4d982dae3,70,2022-02-12_15h04.31.621,lexical_decision_task_DD_L5,2021.2.3,Linux aarch64,120.0912694,,,,,,,,,,1.7307,1,,,,,,,,,,,,,,,,,,,,,,,-0.212089983,-0.361560859,1,0,0,,,,,,,TULIP,C,z,y,./images/TULIP.png,,,,,,,,,,,,,,,,,,,,,0,-0.212089983,-0.361560859,1,0,0,1.7307,button_left_test,0,51,51,92,1
,,,,,,,,,,,,,,,,,60a2dd0e1d378ad4d982dae3,70,2022-02-12_15h04.31.621,lexical_decision_task_DD_L5,2021.2.3,Linux aarch64,120.0912694,,,,,,,,,,2.6306,0,,,,,,,,,,,,,,,,,,,,,,,-0.242329662,-0.333148104,1,0,0,,,,,,,STATUE,HB,m,y,./images/STATUEHB.png,,,,,,,,,,,,,,,,,,,,,0,-0.242329662,-0.333148104,1,0,0,2.6306,button_left_test,0,52,52,66,1
,,,,,,,,,,,,,,,,,60a2dd0e1d378ad4d982dae3,70,2022-02-12_15h04.31.621,lexical_decision_task_DD_L5,2021.2.3,Linux aarch64,120.0912694,,,,,,,,,,2.6222,1,,,,,,,,,,,,,,,,,,,,,,,-0.249784099,-0.341728136,1,0,0,,,,,,,PEACH,C,z,y,./images/PEACH.png,,,,,,,,,,,,,,,,,,,,,0,-0.249784099,-0.341728136,1,0,0,2.6222,button_left_test,0,53,53,119,1
,,,,,,,,,,,,,,,,,60a2dd0e1d378ad4d982dae3,70,2022-02-12_15h04.31.621,lexical_decision_task_DD_L5,2021.2.3,Linux aarch64,120.0912694,,,,,,,,,,1.4219,1,,,,,,,,,,,,,,,,,,,,,,,0.236301311,-0.250723385,1,0,0,,,,,,,WHEEL,C,m,y,./images/WHEEL.png,,,,,,,,,,,,,,,,,,,,,0,0.236301311,-0.250723385,1,0,0,1.4219,button_right_test,0,54,54,77,1
,,,,,,,,,,,,,,,,,60a2dd0e1d378ad4d982dae3,70,2022-02-12_15h04.31.621,lexical_decision_task_DD_L5,2021.2.3,Linux aarch64,120.0912694,,,,,,,,,,2.14,1,,,,,,,,,,,,,,,,,,,,,,,0.225471348,-0.275056858,1,0,0,,,,,,,BUTTER,HB,m,y,./images/BUTTERHB.png,,,,,,,,,,,,,,,,,,,,,0,0.225471348,-0.275056858,1,0,0,2.14,button_right_test,0,55,55,27,1
,,,,,,,,,,,,,,,,,60a2dd0e1d378ad4d982dae3,70,2022-02-12_15h04.31.621,lexical_decision_task_DD_L5,2021.2.3,Linux aarch64,120.0912694,,,,,,,,,,1.2126,1,,,,,,,,,,,,,,,,,,,,,,,0.255570421,-0.235954507,1,0,0,,,,,,,SPINE,C,m,y,./images/SPINE.png,,,,,,,,,,,,,,,,,,,,,0,0.255570421,-0.235954507,1,0,0,1.2126,button_right_test,0,56,56,65,1
,,,,,,,,,,,,,,,,,60a2dd0e1d378ad4d982dae3,70,2022-02-12_15h04.31.621,lexical_decision_task_DD_L5,2021.2.3,Linux aarch64,120.0912694,,,,,,,,,,1.3883,1,,,,,,,,,,,,,,,,,,,,,,,0.236582636,-0.253958397,1,0,0,,,,,,,WAGON,LB,m,y,./images/WAGONLB.png,,,,,,,,,,,,,,,,,,,,,0,0.236582636,-0.253958397,1,0,0,1.3883,button_right_test,0,57,57,7,1
,,,,,,,,,,,,,,,,,60a2dd0e1d378ad4d982dae3,70,2022-02-12_15h04.31.621,lexical_decision_task_DD_L5,2021.2.3,Linux aarch64,120.0912694,,,,,,,,,,1.4031,1,,,,,,,,,,,,,,,,,,,,,,,0.242911996,-0.265914176,1,0,0,,,,,,,MEDAL,C,m,y,./images/MEDAL.png,,,,,,,,,,,,,,,,,,,,,0,0.242911996,-0.265914176,1,0,0,1.4031,button_right_test,0,58,58,11,1
,,,,,,,,,,,,,,,,,60a2dd0e1d378ad4d982dae3,70,2022-02-12_15h04.31.621,lexical_decision_task_DD_L5,2021.2.3,Linux aarch64,120.0912694,,,,,,,,,,2.2019,0,,,,,,,,,,,,,,,,,,,,,,,-0.229811844,-0.366764995,1,0,0,,,,,,,SHIELD,HB,m,y,./images/SHIELDHB.png,,,,,,,,,,,,,,,,,,,,,0,-0.229811844,-0.366764995,1,0,0,2.2019,button_left_test,0,59,59,48,1
,,,,,,,,,,,,,,,,,60a2dd0e1d378ad4d982dae3,70,2022-02-12_15h04.31.621,lexical_decision_task_DD_L5,2021.2.3,Linux aarch64,120.0912694,,,,,,,,,,1.5113,0,,,,,,,,,,,,,,,,,,,,,,,0.22603385,-0.245518953,1,0,0,,,,,,,SWING,LB,z,y,./images/SWINGLB.png,,,,,,,,,,,,,,,,,,,,,0,0.22603385,-0.245518953,1,0,0,1.5113,button_right_test,0,60,60,124,1
,,,,,,,,,,,,,,,,,60a2dd0e1d378ad4d982dae3,70,2022-02-12_15h04.31.621,lexical_decision_task_DD_L5,2021.2.3,Linux aarch64,120.0912694,,,,,,,,,,1.1363,1,,,,,,,,,,,,,,,,,,,,,,,0.223361636,-0.250160588,1,0,0,,,,,,,PARCEL,HB,m,y,./images/PARCELHB.png,,,,,,,,,,,,,,,,,,,,,0,0.223361636,-0.250160588,1,0,0,1.1363,button_right_test,0,61,61,18,1
,,,,,,,,,,,,,,,,,60a2dd0e1d378ad4d982dae3,70,2022-02-12_15h04.31.621,lexical_decision_task_DD_L5,2021.2.3,Linux aarch64,120.0912694,,,,,,,,,,1.3725,1,,,,,,,,,,,,,,,,,,,,,,,0.241364711,-0.244393654,1,0,0,,,,,,,CLOTH,C,m,y,./images/CLOTH.png,,,,,,,,,,,,,,,,,,,,,0,0.241364711,-0.244393654,1,0,0,1.3725,button_right_test,0,62,62,23,1
,,,,,,,,,,,,,,,,,60a2dd0e1d378ad4d982dae3,70,2022-02-12_15h04.31.621,lexical_decision_task_DD_L5,2021.2.3,Linux aarch64,120.0912694,,,,,,,,,,1.6718,1,,,,,,,,,,,,,,,,,,,,,,,-0.234453294,-0.361701299,1,0,0,,,,,,,PIMPLE,C,z,y,./images/PIMPLE.png,,,,,,,,,,,,,,,,,,,,,0,-0.234453294,-0.361701299,1,0,0,1.6718,button_left_test,0,63,63,155,1
,,,,,,,,,,,,,,,,,60a2dd0e1d378ad4d982dae3,70,2022-02-12_15h04.31.621,lexical_decision_task_DD_L5,2021.2.3,Linux aarch64,120.0912694,,,,,,,,,,1.807,0,,,,,,,,,,,,,,,,,,,,,,,-0.258504405,-0.356075102,1,0,0,,,,,,,DIVER,HB,m,y,./images/DIVERHB.png,,,,,,,,,,,,,,,,,,,,,0,-0.258504405,-0.356075102,1,0,0,1.807,button_left_test,0,64,64,9,1
,,,,,,,,,,,,,,,,,60a2dd0e1d378ad4d982dae3,70,2022-02-12_15h04.31.621,lexical_decision_task_DD_L5,2021.2.3,Linux aarch64,120.0912694,,,,,,,,,,1.7476,1,,,,,,,,,,,,,,,,,,,,,,,0.232925859,-0.256490319,1,0,0,,,,,,,BUNNY,LB,m,y,./images/BUNNYLB.png,,,,,,,,,,,,,,,,,,,,,0,0.232925859,-0.256490319,1,0,0,1.7476,button_right_test,0,65,65,13,1
,,,,,,,,,,,,,,,,,60a2dd0e1d378ad4d982dae3,70,2022-02-12_15h04.31.621,lexical_decision_task_DD_L5,2021.2.3,Linux aarch64,120.0912694,,,,,,,,,,1.1311,1,,,,,,,,,,,,,,,,,,,,,,,0.250928934,-0.256208846,1,0,0,,,,,,,DESERT,LB,m,y,./images/DESERTLB.png,,,,,,,,,,,,,,,,,,,,,0,0.250928934,-0.256208846,1,0,0,1.1311,button_right_test,0,66,66,52,1
,,,,,,,,,,,,,,,,,60a2dd0e1d378ad4d982dae3,70,2022-02-12_15h04.31.621,lexical_decision_task_DD_L5,2021.2.3,Linux aarch64,120.0912694,,,,,,,,,,1.7663,1,,,,,,,,,,,,,,,,,,,,,,,-0.222498088,-0.340602838,1,0,0,,,,,,,TWINS,HB,z,y,./images/TWINSHB.png,,,,,,,,,,,,,,,,,,,,,0,-0.222498088,-0.340602838,1,0,0,1.7663,button_left_test,0,67,67,144,1
,,,,,,,,,,,,,,,,,60a2dd0e1d378ad4d982dae3,70,2022-02-12_15h04.31.621,lexical_decision_task_DD_L5,2021.2.3,Linux aarch64,120.0912694,,,,,,,,,,3.1817,0,,,,,,,,,,,,,,,,,,,,,,,0.246568772,-0.263101078,1,0,0,,,,,,,LADDER,C,z,y,./images/LADDER.png,,,,,,,,,,,,,,,,,,,,,0,0.246568772,-0.263101078,1,0,0,3.1817,button_right_test,0,68,68,122,1
,,,,,,,,,,,,,,,,,60a2dd0e1d378ad4d982dae3,70,2022-02-12_15h04.31.621,lexical_decision_task_DD_L5,2021.2.3,Linux aarch64,120.0912694,,,,,,,,,,1.6116,1,,,,,,,,,,,,,,,,,,,,,,,-0.245423956,-0.365077343,1,0,0,,,,,,,SAILOR,LB,z,y,./images/SAILORLB.png,,,,,,,,,,,,,,,,,,,,,0,-0.245423956,-0.365077343,1,0,0,1.6116,button_left_test,0,69,69,151,1
,,,,,,,,,,,,,,,,,60a2dd0e1d378ad4d982dae3,70,2022-02-12_15h04.31.621,lexical_decision_task_DD_L5,2021.2.3,Linux aarch64,120.0912694,,,,,,,,,,1.4531,0,,,,,,,,,,,,,,,,,,,,,,,-0.255691417,-0.355090539,1,0,0,,,,,,,FERRY,HB,m,y,./images/FERRYHB.png,,,,,,,,,,,,,,,,,,,,,0,-0.255691417,-0.355090539,1,0,0,1.4531,button_left_test,0,70,70,57,1
,,,,,,,,,,,,,,,,,60a2dd0e1d378ad4d982dae3,70,2022-02-12_15h04.31.621,lexical_decision_task_DD_L5,2021.2.3,Linux aarch64,120.0912694,,,,,,,,,,1.7704,1,,,,,,,,,,,,,,,,,,,,,,,0.23489491,-0.244674979,1,0,0,,,,,,,CHALK,LB,m,y,./images/CHALKLB.png,,,,,,,,,,,,,,,,,,,,,0,0.23489491,-0.244674979,1,0,0,1.7704,button_right_test,0,71,71,25,1
,,,,,,,,,,,,,,,,,60a2dd0e1d378ad4d982dae3,70,2022-02-12_15h04.31.621,lexical_decision_task_DD_L5,2021.2.3,Linux aarch64,120.0912694,,,,,,,,,,1.5946,1,,,,,,,,,,,,,,,,,,,,,,,0.232222474,-0.249598086,1,0,0,,,,,,,PISTOL,C,m,y,./images/PISTOL.png,,,,,,,,,,,,,,,,,,,,,0,0.232222474,-0.249598086,1,0,0,1.5946,button_right_test,0,72,72,29,1
,,,,,,,,,,,,,,,,,60a2dd0e1d378ad4d982dae3,70,2022-02-12_15h04.31.621,lexical_decision_task_DD_L5,2021.2.3,Linux aarch64,120.0912694,,,,,,,,,,1.6671,1,,,,,,,,,,,,,,,,,,,,,,,-0.224607801,-0.356778339,1,0,0,,,,,,,JUNGLE,C,z,y,./images/JUNGLE.png,,,,,,,,,,,,,,,,,,,,,0,-0.224607801,-0.356778339,1,0,0,1.6671,button_left_test,0,73,73,167,1
,,,,,,,,,,,,,,,,,60a2dd0e1d378ad4d982dae3,70,2022-02-12_15h04.31.621,lexical_decision_task_DD_L5,2021.2.3,Linux aarch64,120.0912694,,,,,,,,,,1.5542,1,,,,,,,,,,,,,,,,,,,,,,,-0.232765494,-0.347073009,1,0,0,,,,,,,POODLE,HB,z,y,./images/POODLEHB.png,,,,,,,,,,,,,,,,,,,,,0,-0.232765494,-0.347073009,1,0,0,1.5542,button_left_test,0,74,74,165,1
,,,,,,,,,,,,,,,,,60a2dd0e1d378ad4d982dae3,70,2022-02-12_15h04.31.621,lexical_decision_task_DD_L5,2021.2.3,Linux aarch64,120.0912694,,,,,,,,,,1.7104,0,,,,,,,,,,,,,,,,,,,,,,,0.255429685,-0.23637642,1,0,0,,,,,,,TORCH,C,z,y,./images/TORCH.png,,,,,,,,,,,,,,,,,,,,,0,0.255429685,-0.23637642,1,0,0,1.7104,button_right_test,0,75,75,152,1
,,,,,,,,,,,,,,,,,60a2dd0e1d378ad4d982dae3,70,2022-02-12_15h04.31.621,lexical_decision_task_DD_L5,2021.2.3,Linux aarch64,120.0912694,,,,,,,,,,1.4989,0,,,,,,,,,,,,,,,,,,,,,,,0.230956735,-0.259444153,1,0,0,,,,,,,BABOON,LB,z,y,./images/BABOONLB.png,,,,,,,,,,,,,,,,,,,,,0,0.230956735,-0.259444153,1,0,0,1.4989,button_right_test,0,76,76,142,1
,,,,,,,,,,,,,,,,,60a2dd0e1d378ad4d982dae3,70,2022-02-12_15h04.31.621,lexical_decision_task_DD_L5,2021.2.3,Linux aarch64,120.0912694,,,,,,,,,,2.1118,1,,,,,,,,,,,,,,,,,,,,,,,-0.223763901,-0.357340989,1,0,0,,,,,,,PAINT,LB,z,y,./images/PAINTLB.png,,,,,,,,,,,,,,,,,,,,,0,-0.223763901,-0.357340989,1,0,0,2.1118,button_left_test,0,77,77,91,1
,,,,,,,,,,,,,,,,,60a2dd0e1d378ad4d982dae3,70,2022-02-12_15h04.31.621,lexical_decision_task_DD_L5,2021.2.3,Linux aarch64,120.0912694,,,,,,,,,,1.9553,0,,,,,,,,,,,,,,,,,,,,,,,0.221111186,-0.266476826,1,0,0,,,,,,,STORM,HB,z,y,./images/STORMHB.png,,,,,,,,,,,,,,,,,,,,,0,0.221111186,-0.266476826,1,0,0,1.9553,button_right_test,0,78,78,114,1
,,,,,,,,,,,,,,,,,60a2dd0e1d378ad4d982dae3,70,2022-02-12_15h04.31.621,lexical_decision_task_DD_L5,2021.2.3,Linux aarch64,120.0912694,,,,,,,,,,1.8642,1,,,,,,,,,,,,,,,,,,,,,,,-0.235156531,-0.360435412,1,0,0,,,,,,,KIDNEY,HB,z,y,./images/KIDNEYHB.png,,,,,,,,,,,,,,,,,,,,,0,-0.235156531,-0.360435412,1,0,0,1.8642,button_left_test,0,79,79,105,1
,,,,,,,,,,,,,,,,,60a2dd0e1d378ad4d982dae3,70,2022-02-12_15h04.31.621,lexical_decision_task_DD_L5,2021.2.3,Linux aarch64,120.0912694,,,,,,,,,,1.347,1,,,,,,,,,,,,,,,,,,,,,,,0.224908847,-0.274072443,1,0,0,,,,,,,MONKEY,HB,m,y,./images/MONKEYHB.png,,,,,,,,,,,,,,,,,,,,,0,0.224908847,-0.274072443,1,0,0,1.347,button_right_test,0,80,80,45,1
,,,,,,,,,,,,,,,,,60a2dd0e1d378ad4d982dae3,70,2022-02-12_15h04.31.621,lexical_decision_task_DD_L5,2021.2.3,Linux aarch64,120.0912694,,,,,,,,,,2.1506,1,,,,,,,,,,,,,,,,,,,,,,,-0.238250825,-0.363389543,1,0,0,,,,,,,BONNET,C,z,y,./images/BONNET.png,,,,,,,,,,,,,,,,,,,,,0,-0.238250825,-0.363389543,1,0,0,2.1506,button_left_test,0,81,81,95,1
,,,,,,,,,,,,,,,,,60a2dd0e1d378ad4d982dae3,70,2022-02-12_15h04.31.621,lexical_decision_task_DD_L5,2021.2.3,Linux aarch64,120.0912694,,,,,,,,,,1.6206,1,,,,,,,,,,,,,,,,,,,,,,,-0.243595531,-0.350449053,1,0,0,,,,,,,MELON,LB,z,y,./images/MELONLB.png,,,,,,,,,,,,,,,,,,,,,0,-0.243595531,-0.350449053,1,0,0,1.6206,button_left_test,0,82,82,106,1
,,,,,,,,,,,,,,,,,60a2dd0e1d378ad4d982dae3,70,2022-02-12_15h04.31.621,lexical_decision_task_DD_L5,2021.2.3,Linux aarch64,120.0912694,,,,,,,,,,1.7892,1,,,,,,,,,,,,,,,,,,,,,,,0.121531292,-0.394615099,1,0,0,,,,,,,MAGGOT,HB,z,y,./images/MAGGOTHB.png,break_done_button,,,,,,,,,,,,,,,,,,,,0,-0.257379217,-0.351011406,1,0,0,1.7892,button_left_test,0,83,83,117,1
,,,,,,,,,,,,,,,,,60a2dd0e1d378ad4d982dae3,70,2022-02-12_15h04.31.621,lexical_decision_task_DD_L5,2021.2.3,Linux aarch64,120.0912694,,,,,,,,,,1.6763,1,,,,,,,,,,,,,,,,,,,,,,,-0.278195353,-0.300093716,1,0,0,,,,,,,URINE,LB,z,y,./images/URINELB.png,,,,,,,,,,,,,,,,,,,,,0,-0.278195353,-0.300093716,1,0,0,1.6763,button_left_test,0,84,84,154,1
,,,,,,,,,,,,,,,,,60a2dd0e1d378ad4d982dae3,70,2022-02-12_15h04.31.621,lexical_decision_task_DD_L5,2021.2.3,Linux aarch64,120.0912694,,,,,,,,,,1.4964,0,,,,,,,,,,,,,,,,,,,,,,,-0.267365317,-0.321895562,1,0,0,,,,,,,BRIDE,LB,m,y,./images/BRIDELB.png,,,,,,,,,,,,,,,,,,,,,0,-0.267365317,-0.321895562,1,0,0,1.4964,button_left_test,0,85,85,64,1
,,,,,,,,,,,,,,,,,60a2dd0e1d378ad4d982dae3,70,2022-02-12_15h04.31.621,lexical_decision_task_DD_L5,2021.2.3,Linux aarch64,120.0912694,,,,,,,,,,1.4658,0,,,,,,,,,,,,,,,,,,,,,,,-0.252737767,-0.305579324,1,0,0,,,,,,,SNAKE,LB,m,y,./images/SNAKELB.png,,,,,,,,,,,,,,,,,,,,,0,-0.252737767,-0.305579324,1,0,0,1.4658,button_left_test,0,86,86,40,1
,,,,,,,,,,,,,,,,,60a2dd0e1d378ad4d982dae3,70,2022-02-12_15h04.31.621,lexical_decision_task_DD_L5,2021.2.3,Linux aarch64,120.0912694,,,,,,,,,,1.5152,1,,,,,,,,,,,,,,,,,,,,,,,-0.237547587,-0.298687092,1,0,0,,,,,,,CARPET,C,z,y,./images/CARPET.png,,,,,,,,,,,,,,,,,,,,,0,-0.237547587,-0.298687092,1,0,0,1.5152,button_left_test,0,87,87,137,1
