key_resp.keys,instr_done_touch.x,instr_done_touch.y,instr_done_touch.leftButton,instr_done_touch.midButton,instr_done_touch.rightButton,instr_done_touch.clicked_name,instruction_pages.thisRepN,instruction_pages.thisTrialN,instruction_pages.thisN,instruction_pages.thisIndex,instruction_pages.ran,pageN,phase,instruct_text,has_image,instruct_image,participant,age,date,expName,psychopyVersion,OS,frameRate,response.keys,response.corr,touch_resp.x,touch_resp.y,touch_resp.leftButton,touch_resp.midButton,touch_resp.rightButton,touch_resp.time,touch_resp.clicked_name,rt,corr,practrials.thisRepN,practrials.thisTrialN,practrials.thisN,practrials.thisIndex,practrials.ran,TrialID,Target,corrAns,end_of_practice_trials_pages.thisRepN,end_of_practice_trials_pages.thisTrialN,end_of_practice_trials_pages.thisN,end_of_practice_trials_pages.thisIndex,end_of_practice_trials_pages.ran,key_resp_2.keys,key_resp_2.corr,targ_click.x,targ_click.y,targ_click.leftButton,targ_click.midButton,targ_click.rightButton,targ_click.time,targ_click.clicked_name,break_done_touch.x,break_done_touch.y,break_done_touch.leftButton,break_done_touch.midButton,break_done_touch.rightButton,break_done_keyboard.keys,maintrials.thisRepN,maintrials.thisTrialN,maintrials.thisN,maintrials.thisIndex,maintrials.ran,string,blur,study,lex,stim_path,break_done_touch.clicked_name,mouse_2.x,mouse_2.y,mouse_2.leftButton,mouse_2.midButton,mouse_2.rightButton,mouse_2.clicked_name,slider.response,slider.rt,trials.thisRepN,trials.thisTrialN,trials.thisN,trials.thisIndex,trials.ran,test_instructions.thisRepN,test_instructions.thisTrialN,test_instructions.thisN,test_instructions.thisIndex,test_instructions.ran,key_resp_3.keys,key_resp_3.corr,test_click.x,test_click.y,test_click.leftButton,test_click.midButton,test_click.rightButton,test_click.time,test_click.clicked_name,test_phase.thisRepN,test_phase.thisTrialN,test_phase.thisN,test_phase.thisIndex,test_phase.ran
,0.05078125,-0.401041667,1,0,0,instr_done_button,0,0,0,0,1,1,instructions,"INSTRUCTIONS
At the start of each trial, look at the plus sign  (+) in the center of the screen.  This tells you that a trial is about to begin and where to look. Second, the plus sign will disappear and a string of letters will appear. Your task is to determine if the string of letters is a word or not. If the item is a word press the M key (on keyboard)  or touch the word button (phone/tablet).  If the item is not a word,  press the  Z key (on keyboard)  or touch the nonword button (on phone/tablet). 
Press the space bar or touch  continue.",0,,60f2a2b4932fed5326988e0f,29,2022-02-12_18h02.16.358,lexical_decision_task_DD_L5,2021.2.3,iPad,58.82352941,,,,,,,,,,,,,,,,,,,,,,,,,,,,,,,,,,,,,,,,,,,,,,,,,,,,,,,,,,,,,,,,,,,,,,,,,,,,,,,,,,
,0.083333333,-0.389322917,1,0,0,instr_done_button,0,1,1,1,1,2,instructions,"If your device has a keyboard, press the 'Z' key for nonwords and the 'M' key for words.





Press the space bar or touch the button below to continue.",0,keyboard-example.gif,60f2a2b4932fed5326988e0f,29,2022-02-12_18h02.16.358,lexical_decision_task_DD_L5,2021.2.3,iPad,58.82352941,,,,,,,,,,,,,,,,,,,,,,,,,,,,,,,,,,,,,,,,,,,,,,,,,,,,,,,,,,,,,,,,,,,,,,,,,,,,,,,,,,
,0.071614583,-0.38671875,1,0,0,instr_done_button,0,2,2,2,1,3,instructions,"If you are using a touchscreen only device, use the buttons on the screen. Do not use the mouse.





Press the space bar or touch the button below to continue.",0,touchscreen-example.gif,60f2a2b4932fed5326988e0f,29,2022-02-12_18h02.16.358,lexical_decision_task_DD_L5,2021.2.3,iPad,58.82352941,,,,,,,,,,,,,,,,,,,,,,,,,,,,,,,,,,,,,,,,,,,,,,,,,,,,,,,,,,,,,,,,,,,,,,,,,,,,,,,,,,
,0.08984375,-0.388020833,1,0,0,instr_done_button,0,3,3,3,1,4,instructions,"It is very important that you respond as quickly and accurately as possible, as each letter string will only be on the screen for two seconds. If you do not respond within this time, the message 'Too slow!' will be displayed and the experiment will progress to the next letter string. The first 20 trials will be practice trials and you will receive feedback on your answers. 

Press the space bar or touch the button below to start the practice trials.",0,,60f2a2b4932fed5326988e0f,29,2022-02-12_18h02.16.358,lexical_decision_task_DD_L5,2021.2.3,iPad,58.82352941,,,,,,,,,,,,,,,,,,,,,,,,,,,,,,,,,,,,,,,,,,,,,,,,,,,,,,,,,,,,,,,,,,,,,,,,,,,,,,,,,,
,,,,,,,,,,,,,,,,,60f2a2b4932fed5326988e0f,29,2022-02-12_18h02.16.358,lexical_decision_task_DD_L5,2021.2.3,iPad,58.82352941,,0,-0.350260417,-0.342447917,1,0,0,1.406,button_left,1.406,1,0,0,0,8,1,1001,ASLERT,z,,,,,,,,,,,,,,,,,,,,,,,,,,,,,,,,,,,,,,,,,,,,,,,,,,,,,,,,,,,,,,,
,,,,,,,,,,,,,,,,,60f2a2b4932fed5326988e0f,29,2022-02-12_18h02.16.358,lexical_decision_task_DD_L5,2021.2.3,iPad,58.82352941,,0,0.377604167,-0.263020833,1,0,0,0.852,button_right,0.852,1,0,1,1,6,1,1001,ZOMBIE,m,,,,,,,,,,,,,,,,,,,,,,,,,,,,,,,,,,,,,,,,,,,,,,,,,,,,,,,,,,,,,,,
,,,,,,,,,,,,,,,,,60f2a2b4932fed5326988e0f,29,2022-02-12_18h02.16.358,lexical_decision_task_DD_L5,2021.2.3,iPad,58.82352941,,0,-0.345052083,-0.259114583,1,0,0,0.775,button_left,0.775,1,0,2,2,13,1,1001,ROUPET,z,,,,,,,,,,,,,,,,,,,,,,,,,,,,,,,,,,,,,,,,,,,,,,,,,,,,,,,,,,,,,,,
,,,,,,,,,,,,,,,,,60f2a2b4932fed5326988e0f,29,2022-02-12_18h02.16.358,lexical_decision_task_DD_L5,2021.2.3,iPad,58.82352941,,0,-0.348958333,-0.243489583,1,0,0,0.852,button_left,0.852,1,0,3,3,14,1,1001,THRALE,z,,,,,,,,,,,,,,,,,,,,,,,,,,,,,,,,,,,,,,,,,,,,,,,,,,,,,,,,,,,,,,,
,,,,,,,,,,,,,,,,,60f2a2b4932fed5326988e0f,29,2022-02-12_18h02.16.358,lexical_decision_task_DD_L5,2021.2.3,iPad,58.82352941,,0,0.282552083,-0.296875,1,0,0,0.752,button_right,0.752,1,0,4,4,3,1,1001,MATRIX,m,,,,,,,,,,,,,,,,,,,,,,,,,,,,,,,,,,,,,,,,,,,,,,,,,,,,,,,,,,,,,,,
,,,,,,,,,,,,,,,,,60f2a2b4932fed5326988e0f,29,2022-02-12_18h02.16.358,lexical_decision_task_DD_L5,2021.2.3,iPad,58.82352941,,0,0.326822917,-0.28125,1,0,0,0.943,button_right,0.943,1,0,5,5,7,1,1001,VOLUME,m,,,,,,,,,,,,,,,,,,,,,,,,,,,,,,,,,,,,,,,,,,,,,,,,,,,,,,,,,,,,,,,
,,,,,,,,,,,,,,,,,60f2a2b4932fed5326988e0f,29,2022-02-12_18h02.16.358,lexical_decision_task_DD_L5,2021.2.3,iPad,58.82352941,,0,-0.337239583,-0.302083333,1,0,0,0.719,button_left,0.719,1,0,6,6,11,1,1001,RASHET,z,,,,,,,,,,,,,,,,,,,,,,,,,,,,,,,,,,,,,,,,,,,,,,,,,,,,,,,,,,,,,,,
,,,,,,,,,,,,,,,,,60f2a2b4932fed5326988e0f,29,2022-02-12_18h02.16.358,lexical_decision_task_DD_L5,2021.2.3,iPad,58.82352941,,0,0.322916667,-0.26953125,1,0,0,0.745,button_right,0.745,1,0,7,7,2,1,1001,ALMOND,m,,,,,,,,,,,,,,,,,,,,,,,,,,,,,,,,,,,,,,,,,,,,,,,,,,,,,,,,,,,,,,,
,,,,,,,,,,,,,,,,,60f2a2b4932fed5326988e0f,29,2022-02-12_18h02.16.358,lexical_decision_task_DD_L5,2021.2.3,iPad,58.82352941,,0,0.311197917,-0.266927083,1,0,0,0.855,button_right,0.855,1,0,8,8,5,1,1001,OBTAIN,m,,,,,,,,,,,,,,,,,,,,,,,,,,,,,,,,,,,,,,,,,,,,,,,,,,,,,,,,,,,,,,,
,,,,,,,,,,,,,,,,,60f2a2b4932fed5326988e0f,29,2022-02-12_18h02.16.358,lexical_decision_task_DD_L5,2021.2.3,iPad,58.82352941,,0,-0.34375,-0.29296875,1,0,0,0.88,button_left,0.88,1,0,9,9,12,1,1001,SPRINY,z,,,,,,,,,,,,,,,,,,,,,,,,,,,,,,,,,,,,,,,,,,,,,,,,,,,,,,,,,,,,,,,
,,,,,,,,,,,,,,,,,60f2a2b4932fed5326988e0f,29,2022-02-12_18h02.16.358,lexical_decision_task_DD_L5,2021.2.3,iPad,58.82352941,,0,-0.3359375,-0.321614583,1,0,0,0.859,button_left,0.859,1,0,10,10,15,1,1001,WHAISE,z,,,,,,,,,,,,,,,,,,,,,,,,,,,,,,,,,,,,,,,,,,,,,,,,,,,,,,,,,,,,,,,
,,,,,,,,,,,,,,,,,60f2a2b4932fed5326988e0f,29,2022-02-12_18h02.16.358,lexical_decision_task_DD_L5,2021.2.3,iPad,58.82352941,,0,0.321614583,-0.28515625,1,0,0,0.867,button_right,0.867,1,0,11,11,1,1,1001,ADJUST,m,,,,,,,,,,,,,,,,,,,,,,,,,,,,,,,,,,,,,,,,,,,,,,,,,,,,,,,,,,,,,,,
,,,,,,,,,,,,,,,,,60f2a2b4932fed5326988e0f,29,2022-02-12_18h02.16.358,lexical_decision_task_DD_L5,2021.2.3,iPad,58.82352941,,0,0.32421875,-0.25,1,0,0,0.997,button_right,0.997,0,0,12,12,10,1,1001,INLADE,z,,,,,,,,,,,,,,,,,,,,,,,,,,,,,,,,,,,,,,,,,,,,,,,,,,,,,,,,,,,,,,,
,,,,,,,,,,,,,,,,,60f2a2b4932fed5326988e0f,29,2022-02-12_18h02.16.358,lexical_decision_task_DD_L5,2021.2.3,iPad,58.82352941,,0,0.3359375,-0.274739583,1,0,0,0.88,button_right,0.88,1,0,13,13,4,1,1001,SQUEAK,m,,,,,,,,,,,,,,,,,,,,,,,,,,,,,,,,,,,,,,,,,,,,,,,,,,,,,,,,,,,,,,,
,,,,,,,,,,,,,,,,,60f2a2b4932fed5326988e0f,29,2022-02-12_18h02.16.358,lexical_decision_task_DD_L5,2021.2.3,iPad,58.82352941,,0,-0.303385417,-0.296875,1,0,0,0.823,button_left,0.823,1,0,14,14,9,1,1001,FARINY,z,,,,,,,,,,,,,,,,,,,,,,,,,,,,,,,,,,,,,,,,,,,,,,,,,,,,,,,,,,,,,,,
,,,,,,,,,,,,,,,,,60f2a2b4932fed5326988e0f,29,2022-02-12_18h02.16.358,lexical_decision_task_DD_L5,2021.2.3,iPad,58.82352941,,0,0.33203125,-0.282552083,1,0,0,0.986,button_right,0.986,1,0,15,15,0,1,1001,UTOPIA,m,,,,,,,,,,,,,,,,,,,,,,,,,,,,,,,,,,,,,,,,,,,,,,,,,,,,,,,,,,,,,,,
,0.032552083,-0.390625,1,0,0,instr_done_button,,,,,,1,end_of_practice,"You have completed the practice trials. During the experimental trials, you will not receive feedback. 
Before you begin, please ensure that you are in a comfortable and quiet location and will not be disturbed for about 15 minutes, as we cannot use your data if you do not complete all the trials. 
 When you are ready to start the experimental trials, please press space or touch the button below.",,,60f2a2b4932fed5326988e0f,29,2022-02-12_18h02.16.358,lexical_decision_task_DD_L5,2021.2.3,iPad,58.82352941,,,,,,,,,,,,,,,,,,,,0,0,0,0,1,,,,,,,,,,,,,,,,,,,,,,,,,,,,,,,,,,,,,,,,,,,,,,,,,,,,,,,,,,
,,,,,,,,,,,,,,,,,60f2a2b4932fed5326988e0f,29,2022-02-12_18h02.16.358,lexical_decision_task_DD_L5,2021.2.3,iPad,58.82352941,,,,,,,,,,1.377,1,,,,,,,,,,,,,,,0,-0.334635417,-0.321614583,1,0,0,1.377,button_left_main,-0.334635417,-0.321614583,1,0,0,,0,0,0,137,1,JOOST,LB,old,z,./images/JOOSTLB.png,,,,,,,,,,,,,,,,,,,,,,,,,,,,,,,,,
,,,,,,,,,,,,,,,,,60f2a2b4932fed5326988e0f,29,2022-02-12_18h02.16.358,lexical_decision_task_DD_L5,2021.2.3,iPad,58.82352941,,,,,,,,,,0.947,1,,,,,,,,,,,,,,,0,0.30859375,-0.309895833,1,0,0,0.947,button_right_main,0.30859375,-0.309895833,1,0,0,,0,1,1,67,1,POKER,LB,old,m,./images/POKERLB.png,,,,,,,,,,,,,,,,,,,,,,,,,,,,,,,,,
,,,,,,,,,,,,,,,,,60f2a2b4932fed5326988e0f,29,2022-02-12_18h02.16.358,lexical_decision_task_DD_L5,2021.2.3,iPad,58.82352941,,,,,,,,,,0.887,1,,,,,,,,,,,,,,,0,0.243489583,-0.30859375,1,0,0,0.887,button_right_main,0.243489583,-0.30859375,1,0,0,,0,2,2,35,1,LLAMA,C,old,m,./images/LLAMA.png,,,,,,,,,,,,,,,,,,,,,,,,,,,,,,,,,
,,,,,,,,,,,,,,,,,60f2a2b4932fed5326988e0f,29,2022-02-12_18h02.16.358,lexical_decision_task_DD_L5,2021.2.3,iPad,58.82352941,,,,,,,,,,0.971,0,,,,,,,,,,,,,,,0,-0.364583333,-0.27734375,1,0,0,0.971,button_left_main,-0.364583333,-0.27734375,1,0,0,,0,3,3,9,1,DIVER,HB,old,m,./images/DIVERHB.png,,,,,,,,,,,,,,,,,,,,,,,,,,,,,,,,,
,,,,,,,,,,,,,,,,,60f2a2b4932fed5326988e0f,29,2022-02-12_18h02.16.358,lexical_decision_task_DD_L5,2021.2.3,iPad,58.82352941,,,,,,,,,,0.837,1,,,,,,,,,,,,,,,0,0.282552083,-0.260416667,1,0,0,0.837,button_right_main,0.282552083,-0.260416667,1,0,0,,0,4,4,58,1,CANOE,LB,old,m,./images/CANOELB.png,,,,,,,,,,,,,,,,,,,,,,,,,,,,,,,,,
,,,,,,,,,,,,,,,,,60f2a2b4932fed5326988e0f,29,2022-02-12_18h02.16.358,lexical_decision_task_DD_L5,2021.2.3,iPad,58.82352941,,,,,,,,,,1.064,1,,,,,,,,,,,,,,,0,-0.290364583,-0.309895833,1,0,0,1.064,button_left_main,-0.290364583,-0.309895833,1,0,0,,0,5,5,151,1,TINKY,HB,old,z,./images/TINKYHB.png,,,,,,,,,,,,,,,,,,,,,,,,,,,,,,,,,
,,,,,,,,,,,,,,,,,60f2a2b4932fed5326988e0f,29,2022-02-12_18h02.16.358,lexical_decision_task_DD_L5,2021.2.3,iPad,58.82352941,,,,,,,,,,0.803,1,,,,,,,,,,,,,,,0,0.322916667,-0.329427083,1,0,0,0.803,button_right_main,0.322916667,-0.329427083,1,0,0,,0,6,6,18,1,PARCEL,HB,old,m,./images/PARCELHB.png,,,,,,,,,,,,,,,,,,,,,,,,,,,,,,,,,
,,,,,,,,,,,,,,,,,60f2a2b4932fed5326988e0f,29,2022-02-12_18h02.16.358,lexical_decision_task_DD_L5,2021.2.3,iPad,58.82352941,,,,,,,,,,0.697,1,,,,,,,,,,,,,,,0,0.345052083,-0.305989583,1,0,0,0.697,button_right_main,0.345052083,-0.305989583,1,0,0,,0,7,7,79,1,RULER,LB,old,m,./images/RULERLB.png,,,,,,,,,,,,,,,,,,,,,,,,,,,,,,,,,
,,,,,,,,,,,,,,,,,60f2a2b4932fed5326988e0f,29,2022-02-12_18h02.16.358,lexical_decision_task_DD_L5,2021.2.3,iPad,58.82352941,,,,,,,,,,1.456,1,,,,,,,,,,,,,,,0,0.303385417,-0.276041667,1,0,0,1.456,button_right_main,0.303385417,-0.276041667,1,0,0,,0,8,8,0,1,WALNUT,HB,old,m,./images/WALNUTHB.png,,,,,,,,,,,,,,,,,,,,,,,,,,,,,,,,,
,,,,,,,,,,,,,,,,,60f2a2b4932fed5326988e0f,29,2022-02-12_18h02.16.358,lexical_decision_task_DD_L5,2021.2.3,iPad,58.82352941,,,,,,,,,,1.163,1,,,,,,,,,,,,,,,0,-0.322916667,-0.309895833,1,0,0,1.163,button_left_main,-0.322916667,-0.309895833,1,0,0,,0,9,9,84,1,HAXES,C,old,z,./images/HAXES.png,,,,,,,,,,,,,,,,,,,,,,,,,,,,,,,,,
,,,,,,,,,,,,,,,,,60f2a2b4932fed5326988e0f,29,2022-02-12_18h02.16.358,lexical_decision_task_DD_L5,2021.2.3,iPad,58.82352941,,,,,,,,,,1.015,1,,,,,,,,,,,,,,,0,0.321614583,-0.30859375,1,0,0,1.015,button_right_main,0.321614583,-0.30859375,1,0,0,,0,10,10,36,1,BOILER,HB,old,m,./images/BOILERHB.png,,,,,,,,,,,,,,,,,,,,,,,,,,,,,,,,,
,,,,,,,,,,,,,,,,,60f2a2b4932fed5326988e0f,29,2022-02-12_18h02.16.358,lexical_decision_task_DD_L5,2021.2.3,iPad,58.82352941,,,,,,,,,,0.947,1,,,,,,,,,,,,,,,0,-0.321614583,-0.309895833,1,0,0,0.947,button_left_main,-0.321614583,-0.309895833,1,0,0,,0,11,11,86,1,AIFED,LB,old,z,./images/AIFEDLB.png,,,,,,,,,,,,,,,,,,,,,,,,,,,,,,,,,
,,,,,,,,,,,,,,,,,60f2a2b4932fed5326988e0f,29,2022-02-12_18h02.16.358,lexical_decision_task_DD_L5,2021.2.3,iPad,58.82352941,,,,,,,,,,0.804,0,,,,,,,,,,,,,,,0,0.3359375,-0.294270833,1,0,0,0.804,button_right_main,0.3359375,-0.294270833,1,0,0,,0,12,12,110,1,CRUNK,LB,old,z,./images/CRUNKLB.png,,,,,,,,,,,,,,,,,,,,,,,,,,,,,,,,,
,,,,,,,,,,,,,,,,,60f2a2b4932fed5326988e0f,29,2022-02-12_18h02.16.358,lexical_decision_task_DD_L5,2021.2.3,iPad,58.82352941,,,,,,,,,,0.753,1,,,,,,,,,,,,,,,0,0.338541667,-0.290364583,1,0,0,0.753,button_right_main,0.338541667,-0.290364583,1,0,0,,0,13,13,26,1,CLOUD,C,old,m,./images/CLOUD.png,,,,,,,,,,,,,,,,,,,,,,,,,,,,,,,,,
,,,,,,,,,,,,,,,,,60f2a2b4932fed5326988e0f,29,2022-02-12_18h02.16.358,lexical_decision_task_DD_L5,2021.2.3,iPad,58.82352941,,,,,,,,,,1.08,1,,,,,,,,,,,,,,,0,-0.34375,-0.28515625,1,0,0,1.08,button_left_main,-0.34375,-0.28515625,1,0,0,,0,14,14,120,1,RINED,C,old,z,./images/RINED.png,,,,,,,,,,,,,,,,,,,,,,,,,,,,,,,,,
,,,,,,,,,,,,,,,,,60f2a2b4932fed5326988e0f,29,2022-02-12_18h02.16.358,lexical_decision_task_DD_L5,2021.2.3,iPad,58.82352941,,,,,,,,,,1.02,1,,,,,,,,,,,,,,,0,0.295572917,-0.26953125,1,0,0,1.02,button_right_main,0.295572917,-0.26953125,1,0,0,,0,15,15,30,1,SLOPE,HB,old,m,./images/SLOPEHB.png,,,,,,,,,,,,,,,,,,,,,,,,,,,,,,,,,
,,,,,,,,,,,,,,,,,60f2a2b4932fed5326988e0f,29,2022-02-12_18h02.16.358,lexical_decision_task_DD_L5,2021.2.3,iPad,58.82352941,,,,,,,,,,0.98,1,,,,,,,,,,,,,,,0,-0.325520833,-0.264322917,1,0,0,0.98,button_left_main,-0.325520833,-0.264322917,1,0,0,,0,16,16,105,1,MOKER,C,old,z,./images/MOKER.png,,,,,,,,,,,,,,,,,,,,,,,,,,,,,,,,,
,,,,,,,,,,,,,,,,,60f2a2b4932fed5326988e0f,29,2022-02-12_18h02.16.358,lexical_decision_task_DD_L5,2021.2.3,iPad,58.82352941,,,,,,,,,,2.02,1,,,,,,,,,,,,,,,0,-0.32421875,-0.302083333,1,0,0,2.02,button_left_main,-0.32421875,-0.302083333,1,0,0,,0,17,17,128,1,GRIFT,LB,old,z,./images/GRIFTLB.png,,,,,,,,,,,,,,,,,,,,,,,,,,,,,,,,,
,,,,,,,,,,,,,,,,,60f2a2b4932fed5326988e0f,29,2022-02-12_18h02.16.358,lexical_decision_task_DD_L5,2021.2.3,iPad,58.82352941,,,,,,,,,,1.121,1,,,,,,,,,,,,,,,0,-0.291666667,-0.274739583,1,0,0,1.121,button_left_main,-0.291666667,-0.274739583,1,0,0,,0,18,18,142,1,PLASK,HB,old,z,./images/PLASKHB.png,,,,,,,,,,,,,,,,,,,,,,,,,,,,,,,,,
,,,,,,,,,,,,,,,,,60f2a2b4932fed5326988e0f,29,2022-02-12_18h02.16.358,lexical_decision_task_DD_L5,2021.2.3,iPad,58.82352941,,,,,,,,,,1.179,1,,,,,,,,,,,,,,,0,-0.354166667,-0.30859375,1,0,0,1.179,button_left_main,-0.354166667,-0.30859375,1,0,0,,0,19,19,90,1,NEAST,C,old,z,./images/NEAST.png,,,,,,,,,,,,,,,,,,,,,,,,,,,,,,,,,
,,,,,,,,,,,,,,,,,60f2a2b4932fed5326988e0f,29,2022-02-12_18h02.16.358,lexical_decision_task_DD_L5,2021.2.3,iPad,58.82352941,,,,,,,,,,0.98,1,,,,,,,,,,,,,,,0,-0.279947917,-0.294270833,1,0,0,0.98,button_left_main,-0.279947917,-0.294270833,1,0,0,,0,20,20,112,1,MYING,HB,old,z,./images/MYINGHB.png,,,,,,,,,,,,,,,,,,,,,,,,,,,,,,,,,
,,,,,,,,,,,,,,,,,60f2a2b4932fed5326988e0f,29,2022-02-12_18h02.16.358,lexical_decision_task_DD_L5,2021.2.3,iPad,58.82352941,,,,,,,,,,0.72,1,,,,,,,,,,,,,,,0,0.359375,-0.333333333,1,0,0,0.72,button_right_main,0.359375,-0.333333333,1,0,0,,0,21,21,14,1,FENCE,C,old,m,./images/FENCE.png,,,,,,,,,,,,,,,,,,,,,,,,,,,,,,,,,
,,,,,,,,,,,,,,,,,60f2a2b4932fed5326988e0f,29,2022-02-12_18h02.16.358,lexical_decision_task_DD_L5,2021.2.3,iPad,58.82352941,,,,,,,,,,0.714,1,,,,,,,,,,,,,,,0,-0.282552083,-0.3203125,1,0,0,0.714,button_left_main,-0.282552083,-0.3203125,1,0,0,,0,22,22,167,1,ZONET,LB,old,z,./images/ZONETLB.png,,,,,,,,,,,,,,,,,,,,,,,,,,,,,,,,,
,,,,,,,,,,,,,,,,,60f2a2b4932fed5326988e0f,29,2022-02-12_18h02.16.358,lexical_decision_task_DD_L5,2021.2.3,iPad,58.82352941,,,,,,,,,,1.113,1,,,,,,,,,,,,,,,0,-0.30859375,-0.319010417,1,0,0,1.113,button_left_main,-0.30859375,-0.319010417,1,0,0,,0,23,23,102,1,DULLE,C,old,z,./images/DULLE.png,,,,,,,,,,,,,,,,,,,,,,,,,,,,,,,,,
,,,,,,,,,,,,,,,,,60f2a2b4932fed5326988e0f,29,2022-02-12_18h02.16.358,lexical_decision_task_DD_L5,2021.2.3,iPad,58.82352941,,,,,,,,,,2.131,1,,,,,,,,,,,,,,,0,-0.29296875,-0.298177083,1,0,0,2.131,button_left_main,-0.29296875,-0.298177083,1,0,0,,0,24,24,165,1,TROWN,C,old,z,./images/TROWN.png,,,,,,,,,,,,,,,,,,,,,,,,,,,,,,,,,
,,,,,,,,,,,,,,,,,60f2a2b4932fed5326988e0f,29,2022-02-12_18h02.16.358,lexical_decision_task_DD_L5,2021.2.3,iPad,58.82352941,,,,,,,,,,0.782,1,,,,,,,,,,,,,,,0,0.34375,-0.291666667,1,0,0,0.782,button_right_main,0.34375,-0.291666667,1,0,0,,0,25,25,28,1,CASINO,LB,old,m,./images/CASINOLB.png,,,,,,,,,,,,,,,,,,,,,,,,,,,,,,,,,
,,,,,,,,,,,,,,,,,60f2a2b4932fed5326988e0f,29,2022-02-12_18h02.16.358,lexical_decision_task_DD_L5,2021.2.3,iPad,58.82352941,,,,,,,,,,0.784,1,,,,,,,,,,,,,,,0,0.342447917,-0.291666667,1,0,0,0.784,button_right_main,0.342447917,-0.291666667,1,0,0,,0,26,26,38,1,ENGINE,C,old,m,./images/ENGINE.png,,,,,,,,,,,,,,,,,,,,,,,,,,,,,,,,,
,,,,,,,,,,,,,,,,,60f2a2b4932fed5326988e0f,29,2022-02-12_18h02.16.358,lexical_decision_task_DD_L5,2021.2.3,iPad,58.82352941,,,,,,,,,,0.765,1,,,,,,,,,,,,,,,0,-0.352864583,-0.3046875,1,0,0,0.765,button_left_main,-0.352864583,-0.3046875,1,0,0,,0,27,27,88,1,GLUSH,HB,old,z,./images/GLUSHHB.png,,,,,,,,,,,,,,,,,,,,,,,,,,,,,,,,,
,,,,,,,,,,,,,,,,,60f2a2b4932fed5326988e0f,29,2022-02-12_18h02.16.358,lexical_decision_task_DD_L5,2021.2.3,iPad,58.82352941,,,,,,,,,,0.822,1,,,,,,,,,,,,,,,0,0.37109375,-0.303385417,1,0,0,0.822,button_right_main,0.37109375,-0.303385417,1,0,0,,0,28,28,56,1,HEATER,C,old,m,./images/HEATER.png,,,,,,,,,,,,,,,,,,,,,,,,,,,,,,,,,
,,,,,,,,,,,,,,,,,60f2a2b4932fed5326988e0f,29,2022-02-12_18h02.16.358,lexical_decision_task_DD_L5,2021.2.3,iPad,58.82352941,,,,,,,,,,0.922,1,,,,,,,,,,,,,,,0,0.42578125,-0.317708333,1,0,0,0.922,button_right_main,0.42578125,-0.317708333,1,0,0,,0,29,29,51,1,SAUCE,HB,old,m,./images/SAUCEHB.png,,,,,,,,,,,,,,,,,,,,,,,,,,,,,,,,,
,,,,,,,,,,,,,,,,,60f2a2b4932fed5326988e0f,29,2022-02-12_18h02.16.358,lexical_decision_task_DD_L5,2021.2.3,iPad,58.82352941,,,,,,,,,,0.706,1,,,,,,,,,,,,,,,0,0.372395833,-0.311197917,1,0,0,0.706,button_right_main,0.372395833,-0.311197917,1,0,0,,0,30,30,73,1,GLOVE,LB,old,m,./images/GLOVELB.png,,,,,,,,,,,,,,,,,,,,,,,,,,,,,,,,,
,,,,,,,,,,,,,,,,,60f2a2b4932fed5326988e0f,29,2022-02-12_18h02.16.358,lexical_decision_task_DD_L5,2021.2.3,iPad,58.82352941,,,,,,,,,,0.845,1,,,,,,,,,,,,,,,0,-0.356770833,-0.240885417,1,0,0,0.845,button_left_main,-0.356770833,-0.240885417,1,0,0,,0,31,31,152,1,FRAIN,LB,old,z,./images/FRAINLB.png,,,,,,,,,,,,,,,,,,,,,,,,,,,,,,,,,
,,,,,,,,,,,,,,,,,60f2a2b4932fed5326988e0f,29,2022-02-12_18h02.16.358,lexical_decision_task_DD_L5,2021.2.3,iPad,58.82352941,,,,,,,,,,0.929,1,,,,,,,,,,,,,,,0,-0.31640625,-0.303385417,1,0,0,0.929,button_left_main,-0.31640625,-0.303385417,1,0,0,,0,32,32,154,1,THINT,HB,old,z,./images/THINTHB.png,,,,,,,,,,,,,,,,,,,,,,,,,,,,,,,,,
,,,,,,,,,,,,,,,,,60f2a2b4932fed5326988e0f,29,2022-02-12_18h02.16.358,lexical_decision_task_DD_L5,2021.2.3,iPad,58.82352941,,,,,,,,,,1.185,1,,,,,,,,,,,,,,,0,-0.3203125,-0.283854167,1,0,0,1.185,button_left_main,-0.3203125,-0.283854167,1,0,0,,0,33,33,136,1,WERVE,HB,old,z,./images/WERVEHB.png,,,,,,,,,,,,,,,,,,,,,,,,,,,,,,,,,
,,,,,,,,,,,,,,,,,60f2a2b4932fed5326988e0f,29,2022-02-12_18h02.16.358,lexical_decision_task_DD_L5,2021.2.3,iPad,58.82352941,,,,,,,,,,1.088,1,,,,,,,,,,,,,,,0,-0.345052083,-0.28125,1,0,0,1.088,button_left_main,-0.345052083,-0.28125,1,0,0,,0,34,34,118,1,BAVEL,HB,old,z,./images/BAVELHB.png,,,,,,,,,,,,,,,,,,,,,,,,,,,,,,,,,
,,,,,,,,,,,,,,,,,60f2a2b4932fed5326988e0f,29,2022-02-12_18h02.16.358,lexical_decision_task_DD_L5,2021.2.3,iPad,58.82352941,,,,,,,,,,0.756,1,,,,,,,,,,,,,,,0,0.333333333,-0.27734375,1,0,0,0.756,button_right_main,0.333333333,-0.27734375,1,0,0,,0,35,35,55,1,ALLEY,LB,old,m,./images/ALLEYLB.png,,,,,,,,,,,,,,,,,,,,,,,,,,,,,,,,,
,,,,,,,,,,,,,,,,,60f2a2b4932fed5326988e0f,29,2022-02-12_18h02.16.358,lexical_decision_task_DD_L5,2021.2.3,iPad,58.82352941,,,,,,,,,,0.749,1,,,,,,,,,,,,,,,0,-0.35546875,-0.302083333,1,0,0,0.749,button_left_main,-0.35546875,-0.302083333,1,0,0,,0,36,36,162,1,LEICH,C,old,z,./images/LEICH.png,,,,,,,,,,,,,,,,,,,,,,,,,,,,,,,,,
,,,,,,,,,,,,,,,,,60f2a2b4932fed5326988e0f,29,2022-02-12_18h02.16.358,lexical_decision_task_DD_L5,2021.2.3,iPad,58.82352941,,,,,,,,,,0.666,1,,,,,,,,,,,,,,,0,0.25390625,-0.251302083,1,0,0,0.666,button_right_main,0.25390625,-0.251302083,1,0,0,,0,37,37,22,1,CLOWN,LB,old,m,./images/CLOWNLB.png,,,,,,,,,,,,,,,,,,,,,,,,,,,,,,,,,
,,,,,,,,,,,,,,,,,60f2a2b4932fed5326988e0f,29,2022-02-12_18h02.16.358,lexical_decision_task_DD_L5,2021.2.3,iPad,58.82352941,,,,,,,,,,1.211,1,,,,,,,,,,,,,,,0,0.307291667,-0.286458333,1,0,0,1.211,button_right_main,0.307291667,-0.286458333,1,0,0,,0,38,38,66,1,STATUE,HB,old,m,./images/STATUEHB.png,,,,,,,,,,,,,,,,,,,,,,,,,,,,,,,,,
,,,,,,,,,,,,,,,,,60f2a2b4932fed5326988e0f,29,2022-02-12_18h02.16.358,lexical_decision_task_DD_L5,2021.2.3,iPad,58.82352941,,,,,,,,,,1.246,1,,,,,,,,,,,,,,,0,0.390625,-0.294270833,1,0,0,1.246,button_right_main,0.390625,-0.294270833,1,0,0,,0,39,39,82,1,PEBBLE,LB,old,m,./images/PEBBLELB.png,,,,,,,,,,,,,,,,,,,,,,,,,,,,,,,,,
,,,,,,,,,,,,,,,,,60f2a2b4932fed5326988e0f,29,2022-02-12_18h02.16.358,lexical_decision_task_DD_L5,2021.2.3,iPad,58.82352941,,,,,,,,,,0.979,1,,,,,,,,,,,,,,,0,-0.356770833,-0.263020833,1,0,0,0.979,button_left_main,-0.356770833,-0.263020833,1,0,0,,0,40,40,116,1,BALGY,LB,old,z,./images/BALGYLB.png,,,,,,,,,,,,,,,,,,,,,,,,,,,,,,,,,
,,,,,,,,,,,,,,,,,60f2a2b4932fed5326988e0f,29,2022-02-12_18h02.16.358,lexical_decision_task_DD_L5,2021.2.3,iPad,58.82352941,,,,,,,,,,0.937,1,,,,,,,,,,,,,,,0,-0.354166667,-0.328125,1,0,0,0.937,button_left_main,0.040364583,-0.416666667,1,0,0,,0,41,41,108,1,GRUET,C,old,z,./images/GRUET.png,break_done_button,,,,,,,,,,,,,,,,,,,,,,,,,,,,,,,,
,,,,,,,,,,,,,,,,,60f2a2b4932fed5326988e0f,29,2022-02-12_18h02.16.358,lexical_decision_task_DD_L5,2021.2.3,iPad,58.82352941,,,,,,,,,,2.02,1,,,,,,,,,,,,,,,0,-0.294270833,-0.295572917,1,0,0,2.02,button_left_main,-0.294270833,-0.295572917,1,0,0,,0,42,42,96,1,KEAMS,C,old,z,./images/KEAMS.png,,,,,,,,,,,,,,,,,,,,,,,,,,,,,,,,,
,,,,,,,,,,,,,,,,,60f2a2b4932fed5326988e0f,29,2022-02-12_18h02.16.358,lexical_decision_task_DD_L5,2021.2.3,iPad,58.82352941,,,,,,,,,,1.229,1,,,,,,,,,,,,,,,0,-0.388020833,-0.317708333,1,0,0,1.229,button_left_main,-0.388020833,-0.317708333,1,0,0,,0,43,43,94,1,BLANS,HB,old,z,./images/BLANSHB.png,,,,,,,,,,,,,,,,,,,,,,,,,,,,,,,,,
,,,,,,,,,,,,,,,,,60f2a2b4932fed5326988e0f,29,2022-02-12_18h02.16.358,lexical_decision_task_DD_L5,2021.2.3,iPad,58.82352941,,,,,,,,,,1.599,1,,,,,,,,,,,,,,,0,0.364583333,-0.29296875,1,0,0,1.599,button_right_main,0.364583333,-0.29296875,1,0,0,,0,44,44,37,1,TIGER,LB,old,m,./images/TIGERLB.png,,,,,,,,,,,,,,,,,,,,,,,,,,,,,,,,,
,,,,,,,,,,,,,,,,,60f2a2b4932fed5326988e0f,29,2022-02-12_18h02.16.358,lexical_decision_task_DD_L5,2021.2.3,iPad,58.82352941,,,,,,,,,,0.872,1,,,,,,,,,,,,,,,0,-0.315104167,-0.3125,1,0,0,0.872,button_left_main,-0.315104167,-0.3125,1,0,0,,0,45,45,129,1,PRANS,C,old,z,./images/PRANS.png,,,,,,,,,,,,,,,,,,,,,,,,,,,,,,,,,
,,,,,,,,,,,,,,,,,60f2a2b4932fed5326988e0f,29,2022-02-12_18h02.16.358,lexical_decision_task_DD_L5,2021.2.3,iPad,58.82352941,,,,,,,,,,0.938,1,,,,,,,,,,,,,,,0,0.29296875,-0.23828125,1,0,0,0.938,button_right_main,0.29296875,-0.23828125,1,0,0,,0,46,46,75,1,HAMMER,HB,old,m,./images/HAMMERHB.png,,,,,,,,,,,,,,,,,,,,,,,,,,,,,,,,,
,,,,,,,,,,,,,,,,,60f2a2b4932fed5326988e0f,29,2022-02-12_18h02.16.358,lexical_decision_task_DD_L5,2021.2.3,iPad,58.82352941,,,,,,,,,,0.837,1,,,,,,,,,,,,,,,0,0.299479167,-0.278645833,1,0,0,0.837,button_right_main,0.299479167,-0.278645833,1,0,0,,0,47,47,53,1,POSTER,C,old,m,./images/POSTER.png,,,,,,,,,,,,,,,,,,,,,,,,,,,,,,,,,
,,,,,,,,,,,,,,,,,60f2a2b4932fed5326988e0f,29,2022-02-12_18h02.16.358,lexical_decision_task_DD_L5,2021.2.3,iPad,58.82352941,,,,,,,,,,1.064,1,,,,,,,,,,,,,,,0,0.260416667,-0.260416667,1,0,0,1.064,button_right_main,0.260416667,-0.260416667,1,0,0,,0,48,48,60,1,CURRY,HB,old,m,./images/CURRYHB.png,,,,,,,,,,,,,,,,,,,,,,,,,,,,,,,,,
,,,,,,,,,,,,,,,,,60f2a2b4932fed5326988e0f,29,2022-02-12_18h02.16.358,lexical_decision_task_DD_L5,2021.2.3,iPad,58.82352941,,,,,,,,,,1.038,1,,,,,,,,,,,,,,,0,-0.342447917,-0.311197917,1,0,0,1.038,button_left_main,-0.342447917,-0.311197917,1,0,0,,0,49,49,133,1,POWDY,HB,old,z,./images/POWDYHB.png,,,,,,,,,,,,,,,,,,,,,,,,,,,,,,,,,
,,,,,,,,,,,,,,,,,60f2a2b4932fed5326988e0f,29,2022-02-12_18h02.16.358,lexical_decision_task_DD_L5,2021.2.3,iPad,58.82352941,,,,,,,,,,1.162,1,,,,,,,,,,,,,,,0,-0.350260417,-0.299479167,1,0,0,1.162,button_left_main,-0.350260417,-0.299479167,1,0,0,,0,50,50,135,1,JOODY,C,old,z,./images/JOODY.png,,,,,,,,,,,,,,,,,,,,,,,,,,,,,,,,,
,,,,,,,,,,,,,,,,,60f2a2b4932fed5326988e0f,29,2022-02-12_18h02.16.358,lexical_decision_task_DD_L5,2021.2.3,iPad,58.82352941,,,,,,,,,,0.822,1,,,,,,,,,,,,,,,0,0.26171875,-0.274739583,1,0,0,0.822,button_right_main,0.26171875,-0.274739583,1,0,0,,0,51,51,4,1,BOXER,LB,old,m,./images/BOXERLB.png,,,,,,,,,,,,,,,,,,,,,,,,,,,,,,,,,
,,,,,,,,,,,,,,,,,60f2a2b4932fed5326988e0f,29,2022-02-12_18h02.16.358,lexical_decision_task_DD_L5,2021.2.3,iPad,58.82352941,,,,,,,,,,1.054,1,,,,,,,,,,,,,,,0,0.25,-0.30078125,1,0,0,1.054,button_right_main,0.25,-0.30078125,1,0,0,,0,52,52,72,1,FLASK,HB,old,m,./images/FLASKHB.png,,,,,,,,,,,,,,,,,,,,,,,,,,,,,,,,,
,,,,,,,,,,,,,,,,,60f2a2b4932fed5326988e0f,29,2022-02-12_18h02.16.358,lexical_decision_task_DD_L5,2021.2.3,iPad,58.82352941,,,,,,,,,,0.972,1,,,,,,,,,,,,,,,0,-0.341145833,-0.24609375,1,0,0,0.972,button_left_main,-0.341145833,-0.24609375,1,0,0,,0,53,53,92,1,PAIMS,LB,old,z,./images/PAIMSLB.png,,,,,,,,,,,,,,,,,,,,,,,,,,,,,,,,,
,,,,,,,,,,,,,,,,,60f2a2b4932fed5326988e0f,29,2022-02-12_18h02.16.358,lexical_decision_task_DD_L5,2021.2.3,iPad,58.82352941,,,,,,,,,,1.322,1,,,,,,,,,,,,,,,0,0.325520833,-0.29296875,1,0,0,1.322,button_right_main,0.325520833,-0.29296875,1,0,0,,0,54,54,27,1,BUTTER,HB,old,m,./images/BUTTERHB.png,,,,,,,,,,,,,,,,,,,,,,,,,,,,,,,,,
,,,,,,,,,,,,,,,,,60f2a2b4932fed5326988e0f,29,2022-02-12_18h02.16.358,lexical_decision_task_DD_L5,2021.2.3,iPad,58.82352941,,,,,,,,,,1.137,1,,,,,,,,,,,,,,,0,0.337239583,-0.27734375,1,0,0,1.137,button_right_main,0.337239583,-0.27734375,1,0,0,,0,55,55,42,1,CHAIN,HB,old,m,./images/CHAINHB.png,,,,,,,,,,,,,,,,,,,,,,,,,,,,,,,,,
,,,,,,,,,,,,,,,,,60f2a2b4932fed5326988e0f,29,2022-02-12_18h02.16.358,lexical_decision_task_DD_L5,2021.2.3,iPad,58.82352941,,,,,,,,,,1.138,1,,,,,,,,,,,,,,,0,-0.384114583,-0.282552083,1,0,0,1.138,button_left_main,-0.384114583,-0.282552083,1,0,0,,0,56,56,111,1,HOSSE,C,old,z,./images/HOSSE.png,,,,,,,,,,,,,,,,,,,,,,,,,,,,,,,,,
,,,,,,,,,,,,,,,,,60f2a2b4932fed5326988e0f,29,2022-02-12_18h02.16.358,lexical_decision_task_DD_L5,2021.2.3,iPad,58.82352941,,,,,,,,,,1.054,1,,,,,,,,,,,,,,,0,0.295572917,-0.2578125,1,0,0,1.054,button_right_main,0.295572917,-0.2578125,1,0,0,,0,57,57,48,1,SHIELD,HB,old,m,./images/SHIELDHB.png,,,,,,,,,,,,,,,,,,,,,,,,,,,,,,,,,
,,,,,,,,,,,,,,,,,60f2a2b4932fed5326988e0f,29,2022-02-12_18h02.16.358,lexical_decision_task_DD_L5,2021.2.3,iPad,58.82352941,,,,,,,,,,0.939,1,,,,,,,,,,,,,,,0,0.3671875,-0.2734375,1,0,0,0.939,button_right_main,0.3671875,-0.2734375,1,0,0,,0,58,58,32,1,HOCKEY,C,old,m,./images/HOCKEY.png,,,,,,,,,,,,,,,,,,,,,,,,,,,,,,,,,
,,,,,,,,,,,,,,,,,60f2a2b4932fed5326988e0f,29,2022-02-12_18h02.16.358,lexical_decision_task_DD_L5,2021.2.3,iPad,58.82352941,,,,,,,,,,0.821,1,,,,,,,,,,,,,,,0,-0.322916667,-0.286458333,1,0,0,0.821,button_left_main,-0.322916667,-0.286458333,1,0,0,,0,59,59,156,1,HIXES,C,old,z,./images/HIXES.png,,,,,,,,,,,,,,,,,,,,,,,,,,,,,,,,,
,,,,,,,,,,,,,,,,,60f2a2b4932fed5326988e0f,29,2022-02-12_18h02.16.358,lexical_decision_task_DD_L5,2021.2.3,iPad,58.82352941,,,,,,,,,,0.856,1,,,,,,,,,,,,,,,0,-0.399739583,-0.27734375,1,0,0,0.856,button_left_main,-0.399739583,-0.27734375,1,0,0,,0,60,60,153,1,CLUPS,C,old,z,./images/CLUPS.png,,,,,,,,,,,,,,,,,,,,,,,,,,,,,,,,,
,,,,,,,,,,,,,,,,,60f2a2b4932fed5326988e0f,29,2022-02-12_18h02.16.358,lexical_decision_task_DD_L5,2021.2.3,iPad,58.82352941,,,,,,,,,,1.264,1,,,,,,,,,,,,,,,0,0.338541667,-0.247395833,1,0,0,1.264,button_right_main,0.338541667,-0.247395833,1,0,0,,0,61,61,78,1,BROOM,HB,old,m,./images/BROOMHB.png,,,,,,,,,,,,,,,,,,,,,,,,,,,,,,,,,
,,,,,,,,,,,,,,,,,60f2a2b4932fed5326988e0f,29,2022-02-12_18h02.16.358,lexical_decision_task_DD_L5,2021.2.3,iPad,58.82352941,,,,,,,,,,0.897,1,,,,,,,,,,,,,,,0,-0.346354167,-0.279947917,1,0,0,0.897,button_left_main,-0.346354167,-0.279947917,1,0,0,,0,62,62,160,1,VEETS,HB,old,z,./images/VEETSHB.png,,,,,,,,,,,,,,,,,,,,,,,,,,,,,,,,,
,,,,,,,,,,,,,,,,,60f2a2b4932fed5326988e0f,29,2022-02-12_18h02.16.358,lexical_decision_task_DD_L5,2021.2.3,iPad,58.82352941,,,,,,,,,,0.966,1,,,,,,,,,,,,,,,0,0.34375,-0.255208333,1,0,0,0.966,button_right_main,0.34375,-0.255208333,1,0,0,,0,63,63,74,1,JUMPER,C,old,m,./images/JUMPER.png,,,,,,,,,,,,,,,,,,,,,,,,,,,,,,,,,
,,,,,,,,,,,,,,,,,60f2a2b4932fed5326988e0f,29,2022-02-12_18h02.16.358,lexical_decision_task_DD_L5,2021.2.3,iPad,58.82352941,,,,,,,,,,1.354,1,,,,,,,,,,,,,,,0,0.322916667,-0.2421875,1,0,0,1.354,button_right_main,0.322916667,-0.2421875,1,0,0,,0,64,64,12,1,BLOKE,HB,old,m,./images/BLOKEHB.png,,,,,,,,,,,,,,,,,,,,,,,,,,,,,,,,,
,,,,,,,,,,,,,,,,,60f2a2b4932fed5326988e0f,29,2022-02-12_18h02.16.358,lexical_decision_task_DD_L5,2021.2.3,iPad,58.82352941,,,,,,,,,,0.881,1,,,,,,,,,,,,,,,0,0.364583333,-0.303385417,1,0,0,0.881,button_right_main,0.364583333,-0.303385417,1,0,0,,0,65,65,62,1,MAMMAL,C,old,m,./images/MAMMAL.png,,,,,,,,,,,,,,,,,,,,,,,,,,,,,,,,,
,,,,,,,,,,,,,,,,,60f2a2b4932fed5326988e0f,29,2022-02-12_18h02.16.358,lexical_decision_task_DD_L5,2021.2.3,iPad,58.82352941,,,,,,,,,,0.781,1,,,,,,,,,,,,,,,0,0.365885417,-0.259114583,1,0,0,0.781,button_right_main,0.365885417,-0.259114583,1,0,0,,0,66,66,80,1,PLANET,C,old,m,./images/PLANET.png,,,,,,,,,,,,,,,,,,,,,,,,,,,,,,,,,
,,,,,,,,,,,,,,,,,60f2a2b4932fed5326988e0f,29,2022-02-12_18h02.16.358,lexical_decision_task_DD_L5,2021.2.3,iPad,58.82352941,,,,,,,,,,0.823,1,,,,,,,,,,,,,,,0,0.33984375,-0.266927083,1,0,0,0.823,button_right_main,0.33984375,-0.266927083,1,0,0,,0,67,67,40,1,SNAKE,LB,old,m,./images/SNAKELB.png,,,,,,,,,,,,,,,,,,,,,,,,,,,,,,,,,
,,,,,,,,,,,,,,,,,60f2a2b4932fed5326988e0f,29,2022-02-12_18h02.16.358,lexical_decision_task_DD_L5,2021.2.3,iPad,58.82352941,,,,,,,,,,0.731,1,,,,,,,,,,,,,,,0,0.307291667,-0.243489583,1,0,0,0.731,button_right_main,0.307291667,-0.243489583,1,0,0,,0,68,68,17,1,PARADE,C,old,m,./images/PARADE.png,,,,,,,,,,,,,,,,,,,,,,,,,,,,,,,,,
,,,,,,,,,,,,,,,,,60f2a2b4932fed5326988e0f,29,2022-02-12_18h02.16.358,lexical_decision_task_DD_L5,2021.2.3,iPad,58.82352941,,,,,,,,,,1.345,1,,,,,,,,,,,,,,,0,-0.303385417,-0.251302083,1,0,0,1.345,button_left_main,-0.303385417,-0.251302083,1,0,0,,0,69,69,157,1,INLER,HB,old,z,./images/INLERHB.png,,,,,,,,,,,,,,,,,,,,,,,,,,,,,,,,,
,,,,,,,,,,,,,,,,,60f2a2b4932fed5326988e0f,29,2022-02-12_18h02.16.358,lexical_decision_task_DD_L5,2021.2.3,iPad,58.82352941,,,,,,,,,,0.932,1,,,,,,,,,,,,,,,0,0.342447917,-0.29296875,1,0,0,0.932,button_right_main,0.342447917,-0.29296875,1,0,0,,0,70,70,64,1,BRIDE,LB,old,m,./images/BRIDELB.png,,,,,,,,,,,,,,,,,,,,,,,,,,,,,,,,,
,,,,,,,,,,,,,,,,,60f2a2b4932fed5326988e0f,29,2022-02-12_18h02.16.358,lexical_decision_task_DD_L5,2021.2.3,iPad,58.82352941,,,,,,,,,,1.295,1,,,,,,,,,,,,,,,0,0.325520833,-0.259114583,1,0,0,1.295,button_right_main,0.325520833,-0.259114583,1,0,0,,0,71,71,24,1,FLESH,HB,old,m,./images/FLESHHB.png,,,,,,,,,,,,,,,,,,,,,,,,,,,,,,,,,
,,,,,,,,,,,,,,,,,60f2a2b4932fed5326988e0f,29,2022-02-12_18h02.16.358,lexical_decision_task_DD_L5,2021.2.3,iPad,58.82352941,,,,,,,,,,0.847,1,,,,,,,,,,,,,,,0,-0.28125,-0.2734375,1,0,0,0.847,button_left_main,-0.28125,-0.2734375,1,0,0,,0,72,72,155,1,CANGY,LB,old,z,./images/CANGYLB.png,,,,,,,,,,,,,,,,,,,,,,,,,,,,,,,,,
,,,,,,,,,,,,,,,,,60f2a2b4932fed5326988e0f,29,2022-02-12_18h02.16.358,lexical_decision_task_DD_L5,2021.2.3,iPad,58.82352941,,,,,,,,,,1.191,1,,,,,,,,,,,,,,,0,-0.3203125,-0.28125,1,0,0,1.191,button_left_main,-0.3203125,-0.28125,1,0,0,,0,73,73,109,1,BURGE,HB,old,z,./images/BURGEHB.png,,,,,,,,,,,,,,,,,,,,,,,,,,,,,,,,,
,,,,,,,,,,,,,,,,,60f2a2b4932fed5326988e0f,29,2022-02-12_18h02.16.358,lexical_decision_task_DD_L5,2021.2.3,iPad,58.82352941,,,,,,,,,,1.179,0,,,,,,,,,,,,,,,0,-0.279947917,-0.256510417,1,0,0,1.179,button_left_main,-0.279947917,-0.256510417,1,0,0,,0,74,74,3,1,CRATER,HB,old,m,./images/CRATERHB.png,,,,,,,,,,,,,,,,,,,,,,,,,,,,,,,,,
,,,,,,,,,,,,,,,,,60f2a2b4932fed5326988e0f,29,2022-02-12_18h02.16.358,lexical_decision_task_DD_L5,2021.2.3,iPad,58.82352941,,,,,,,,,,1.032,1,,,,,,,,,,,,,,,0,0.427083333,-0.279947917,1,0,0,1.032,button_right_main,0.427083333,-0.279947917,1,0,0,,0,75,75,61,1,ARTIST,LB,old,m,./images/ARTISTLB.png,,,,,,,,,,,,,,,,,,,,,,,,,,,,,,,,,
,,,,,,,,,,,,,,,,,60f2a2b4932fed5326988e0f,29,2022-02-12_18h02.16.358,lexical_decision_task_DD_L5,2021.2.3,iPad,58.82352941,,,,,,,,,,0.846,1,,,,,,,,,,,,,,,0,0.389322917,-0.270833333,1,0,0,0.846,button_right_main,0.389322917,-0.270833333,1,0,0,,0,76,76,29,1,PISTOL,C,old,m,./images/PISTOL.png,,,,,,,,,,,,,,,,,,,,,,,,,,,,,,,,,
,,,,,,,,,,,,,,,,,60f2a2b4932fed5326988e0f,29,2022-02-12_18h02.16.358,lexical_decision_task_DD_L5,2021.2.3,iPad,58.82352941,,,,,,,,,,0.856,1,,,,,,,,,,,,,,,0,0.38671875,-0.235677083,1,0,0,0.856,button_right_main,0.38671875,-0.235677083,1,0,0,,0,77,77,50,1,PILOT,C,old,m,./images/PILOT.png,,,,,,,,,,,,,,,,,,,,,,,,,,,,,,,,,
,,,,,,,,,,,,,,,,,60f2a2b4932fed5326988e0f,29,2022-02-12_18h02.16.358,lexical_decision_task_DD_L5,2021.2.3,iPad,58.82352941,,,,,,,,,,0.928,1,,,,,,,,,,,,,,,0,-0.33984375,-0.268229167,1,0,0,0.928,button_left_main,-0.33984375,-0.268229167,1,0,0,,0,78,78,132,1,SCIFF,C,old,z,./images/SCIFF.png,,,,,,,,,,,,,,,,,,,,,,,,,,,,,,,,,
,,,,,,,,,,,,,,,,,60f2a2b4932fed5326988e0f,29,2022-02-12_18h02.16.358,lexical_decision_task_DD_L5,2021.2.3,iPad,58.82352941,,,,,,,,,,0.821,1,,,,,,,,,,,,,,,0,-0.321614583,-0.239583333,1,0,0,0.821,button_left_main,-0.321614583,-0.239583333,1,0,0,,0,79,79,141,1,PLEET,C,old,z,./images/PLEET.png,,,,,,,,,,,,,,,,,,,,,,,,,,,,,,,,,
,,,,,,,,,,,,,,,,,60f2a2b4932fed5326988e0f,29,2022-02-12_18h02.16.358,lexical_decision_task_DD_L5,2021.2.3,iPad,58.82352941,,,,,,,,,,0.88,1,,,,,,,,,,,,,,,0,-0.290364583,-0.28515625,1,0,0,0.88,button_left_main,-0.290364583,-0.28515625,1,0,0,,0,80,80,119,1,PAFER,LB,old,z,./images/PAFERLB.png,,,,,,,,,,,,,,,,,,,,,,,,,,,,,,,,,
,,,,,,,,,,,,,,,,,60f2a2b4932fed5326988e0f,29,2022-02-12_18h02.16.358,lexical_decision_task_DD_L5,2021.2.3,iPad,58.82352941,,,,,,,,,,0.999,1,,,,,,,,,,,,,,,0,-0.30078125,-0.282552083,1,0,0,0.999,button_left_main,-0.30078125,-0.282552083,1,0,0,,0,81,81,115,1,MAWNS,HB,old,z,./images/MAWNSHB.png,,,,,,,,,,,,,,,,,,,,,,,,,,,,,,,,,
,,,,,,,,,,,,,,,,,60f2a2b4932fed5326988e0f,29,2022-02-12_18h02.16.358,lexical_decision_task_DD_L5,2021.2.3,iPad,58.82352941,,,,,,,,,,0.882,1,,,,,,,,,,,,,,,0,-0.274739583,-0.295572917,1,0,0,0.882,button_left_main,-0.274739583,-0.295572917,1,0,0,,0,82,82,122,1,BLOOT,LB,old,z,./images/BLOOTLB.png,,,,,,,,,,,,,,,,,,,,,,,,,,,,,,,,,
,,,,,,,,,,,,,,,,,60f2a2b4932fed5326988e0f,29,2022-02-12_18h02.16.358,lexical_decision_task_DD_L5,2021.2.3,iPad,58.82352941,,,,,,,,,,1.596,1,,,,,,,,,,,,,,,0,0.375,-0.3125,1,0,0,1.596,button_right_main,0.053385417,-0.38671875,1,0,0,,0,83,83,33,1,SAUNA,HB,old,m,./images/SAUNAHB.png,break_done_button,,,,,,,,,,,,,,,,,,,,,,,,,,,,,,,,
,,,,,,,,,,,,,,,,,60f2a2b4932fed5326988e0f,29,2022-02-12_18h02.16.358,lexical_decision_task_DD_L5,2021.2.3,iPad,58.82352941,,,,,,,,,,1.255,1,,,,,,,,,,,,,,,0,-0.286458333,-0.309895833,1,0,0,1.255,button_left_main,-0.286458333,-0.309895833,1,0,0,,0,84,84,106,1,CLUMS,HB,old,z,./images/CLUMSHB.png,,,,,,,,,,,,,,,,,,,,,,,,,,,,,,,,,
,,,,,,,,,,,,,,,,,60f2a2b4932fed5326988e0f,29,2022-02-12_18h02.16.358,lexical_decision_task_DD_L5,2021.2.3,iPad,58.82352941,,,,,,,,,,0.881,1,,,,,,,,,,,,,,,0,-0.255208333,-0.307291667,1,0,0,0.881,button_left_main,-0.255208333,-0.307291667,1,0,0,,0,85,85,113,1,LINEW,LB,old,z,./images/LINEWLB.png,,,,,,,,,,,,,,,,,,,,,,,,,,,,,,,,,
,,,,,,,,,,,,,,,,,60f2a2b4932fed5326988e0f,29,2022-02-12_18h02.16.358,lexical_decision_task_DD_L5,2021.2.3,iPad,58.82352941,,,,,,,,,,1.13,1,,,,,,,,,,,,,,,0,-0.264322917,-0.282552083,1,0,0,1.13,button_left_main,-0.264322917,-0.282552083,1,0,0,,0,86,86,124,1,TUNCH,HB,old,z,./images/TUNCHHB.png,,,,,,,,,,,,,,,,,,,,,,,,,,,,,,,,,
,,,,,,,,,,,,,,,,,60f2a2b4932fed5326988e0f,29,2022-02-12_18h02.16.358,lexical_decision_task_DD_L5,2021.2.3,iPad,58.82352941,,,,,,,,,,1.071,1,,,,,,,,,,,,,,,0,-0.247395833,-0.283854167,1,0,0,1.071,button_left_main,-0.247395833,-0.283854167,1,0,0,,0,87,87,139,1,BLEAR,HB,old,z,./images/BLEARHB.png,,,,,,,,,,,,,,,,,,,,,,,,,,,,,,,,,
,,,,,,,,,,,,,,,,,60f2a2b4932fed5326988e0f,29,2022-02-12_18h02.16.358,lexical_decision_task_DD_L5,2021.2.3,iPad,58.82352941,,,,,,,,,,0.872,1,,,,,,,,,,,,,,,0,-0.274739583,-0.2734375,1,0,0,0.872,button_left_main,-0.274739583,-0.2734375,1,0,0,,0,88,88,89,1,DRIEK,LB,old,z,./images/DRIEKLB.png,,,,,,,,,,,,,,,,,,,,,,,,,,,,,,,,,
,,,,,,,,,,,,,,,,,60f2a2b4932fed5326988e0f,29,2022-02-12_18h02.16.358,lexical_decision_task_DD_L5,2021.2.3,iPad,58.82352941,,,,,,,,,,0.903,1,,,,,,,,,,,,,,,0,-0.26953125,-0.278645833,1,0,0,0.903,button_left_main,-0.26953125,-0.278645833,1,0,0,,0,89,89,145,1,LAMEL,HB,old,z,./images/LAMELHB.png,,,,,,,,,,,,,,,,,,,,,,,,,,,,,,,,,
,,,,,,,,,,,,,,,,,60f2a2b4932fed5326988e0f,29,2022-02-12_18h02.16.358,lexical_decision_task_DD_L5,2021.2.3,iPad,58.82352941,,,,,,,,,,0.887,1,,,,,,,,,,,,,,,0,0.345052083,-0.325520833,1,0,0,0.887,button_right_main,0.345052083,-0.325520833,1,0,0,,0,90,90,83,1,WHISKY,C,old,m,./images/WHISKY.png,,,,,,,,,,,,,,,,,,,,,,,,,,,,,,,,,
,,,,,,,,,,,,,,,,,60f2a2b4932fed5326988e0f,29,2022-02-12_18h02.16.358,lexical_decision_task_DD_L5,2021.2.3,iPad,58.82352941,,,,,,,,,,0.862,1,,,,,,,,,,,,,,,0,0.356770833,-0.28125,1,0,0,0.862,button_right_main,0.356770833,-0.28125,1,0,0,,0,91,91,45,1,MONKEY,HB,old,m,./images/MONKEYHB.png,,,,,,,,,,,,,,,,,,,,,,,,,,,,,,,,,
,,,,,,,,,,,,,,,,,60f2a2b4932fed5326988e0f,29,2022-02-12_18h02.16.358,lexical_decision_task_DD_L5,2021.2.3,iPad,58.82352941,,,,,,,,,,0.921,1,,,,,,,,,,,,,,,0,0.33203125,-0.29296875,1,0,0,0.921,button_right_main,0.33203125,-0.29296875,1,0,0,,0,92,92,16,1,GRAPE,LB,old,m,./images/GRAPELB.png,,,,,,,,,,,,,,,,,,,,,,,,,,,,,,,,,
,,,,,,,,,,,,,,,,,60f2a2b4932fed5326988e0f,29,2022-02-12_18h02.16.358,lexical_decision_task_DD_L5,2021.2.3,iPad,58.82352941,,,,,,,,,,0.839,1,,,,,,,,,,,,,,,0,0.37109375,-0.287760417,1,0,0,0.839,button_right_main,0.37109375,-0.287760417,1,0,0,,0,93,93,39,1,CANDY,HB,old,m,./images/CANDYHB.png,,,,,,,,,,,,,,,,,,,,,,,,,,,,,,,,,
,,,,,,,,,,,,,,,,,60f2a2b4932fed5326988e0f,29,2022-02-12_18h02.16.358,lexical_decision_task_DD_L5,2021.2.3,iPad,58.82352941,,,,,,,,,,0.763,1,,,,,,,,,,,,,,,0,0.364583333,-0.2578125,1,0,0,0.763,button_right_main,0.364583333,-0.2578125,1,0,0,,0,94,94,46,1,MUMMY,LB,old,m,./images/MUMMYLB.png,,,,,,,,,,,,,,,,,,,,,,,,,,,,,,,,,
,,,,,,,,,,,,,,,,,60f2a2b4932fed5326988e0f,29,2022-02-12_18h02.16.358,lexical_decision_task_DD_L5,2021.2.3,iPad,58.82352941,,,,,,,,,,1.521,1,,,,,,,,,,,,,,,0,-0.26171875,-0.30078125,1,0,0,1.521,button_left_main,-0.26171875,-0.30078125,1,0,0,,0,95,95,158,1,EGECT,LB,old,z,./images/EGECTLB.png,,,,,,,,,,,,,,,,,,,,,,,,,,,,,,,,,
,,,,,,,,,,,,,,,,,60f2a2b4932fed5326988e0f,29,2022-02-12_18h02.16.358,lexical_decision_task_DD_L5,2021.2.3,iPad,58.82352941,,,,,,,,,,1.147,1,,,,,,,,,,,,,,,0,-0.299479167,-0.30859375,1,0,0,1.147,button_left_main,-0.299479167,-0.30859375,1,0,0,,0,96,96,121,1,CEERS,HB,old,z,./images/CEERSHB.png,,,,,,,,,,,,,,,,,,,,,,,,,,,,,,,,,
,,,,,,,,,,,,,,,,,60f2a2b4932fed5326988e0f,29,2022-02-12_18h02.16.358,lexical_decision_task_DD_L5,2021.2.3,iPad,58.82352941,,,,,,,,,,1.271,1,,,,,,,,,,,,,,,0,-0.276041667,-0.286458333,1,0,0,1.271,button_left_main,-0.276041667,-0.286458333,1,0,0,,0,97,97,163,1,GAMBA,HB,old,z,./images/GAMBAHB.png,,,,,,,,,,,,,,,,,,,,,,,,,,,,,,,,,
,,,,,,,,,,,,,,,,,60f2a2b4932fed5326988e0f,29,2022-02-12_18h02.16.358,lexical_decision_task_DD_L5,2021.2.3,iPad,58.82352941,,,,,,,,,,0.887,1,,,,,,,,,,,,,,,0,-0.296875,-0.305989583,1,0,0,0.887,button_left_main,-0.296875,-0.305989583,1,0,0,,0,98,98,143,1,MONGS,LB,old,z,./images/MONGSLB.png,,,,,,,,,,,,,,,,,,,,,,,,,,,,,,,,,
,,,,,,,,,,,,,,,,,60f2a2b4932fed5326988e0f,29,2022-02-12_18h02.16.358,lexical_decision_task_DD_L5,2021.2.3,iPad,58.82352941,,,,,,,,,,0.804,1,,,,,,,,,,,,,,,0,0.307291667,-0.290364583,1,0,0,0.804,button_right_main,0.307291667,-0.290364583,1,0,0,,0,99,99,10,1,GARDEN,LB,old,m,./images/GARDENLB.png,,,,,,,,,,,,,,,,,,,,,,,,,,,,,,,,,
,,,,,,,,,,,,,,,,,60f2a2b4932fed5326988e0f,29,2022-02-12_18h02.16.358,lexical_decision_task_DD_L5,2021.2.3,iPad,58.82352941,,,,,,,,,,1.163,1,,,,,,,,,,,,,,,0,0.319010417,-0.322916667,1,0,0,1.163,button_right_main,0.319010417,-0.322916667,1,0,0,,0,100,100,1,1,TOWEL,LB,old,m,./images/TOWELLB.png,,,,,,,,,,,,,,,,,,,,,,,,,,,,,,,,,
,,,,,,,,,,,,,,,,,60f2a2b4932fed5326988e0f,29,2022-02-12_18h02.16.358,lexical_decision_task_DD_L5,2021.2.3,iPad,58.82352941,,,,,,,,,,1.131,0,,,,,,,,,,,,,,,0,-0.305989583,-0.290364583,1,0,0,1.131,button_left_main,-0.305989583,-0.290364583,1,0,0,,0,101,101,81,1,DRILL,HB,old,m,./images/DRILLHB.png,,,,,,,,,,,,,,,,,,,,,,,,,,,,,,,,,
,,,,,,,,,,,,,,,,,60f2a2b4932fed5326988e0f,29,2022-02-12_18h02.16.358,lexical_decision_task_DD_L5,2021.2.3,iPad,58.82352941,,,,,,,,,,0.877,1,,,,,,,,,,,,,,,0,0.309895833,-0.276041667,1,0,0,0.877,button_right_main,0.309895833,-0.276041667,1,0,0,,0,102,102,11,1,MEDAL,C,old,m,./images/MEDAL.png,,,,,,,,,,,,,,,,,,,,,,,,,,,,,,,,,
,,,,,,,,,,,,,,,,,60f2a2b4932fed5326988e0f,29,2022-02-12_18h02.16.358,lexical_decision_task_DD_L5,2021.2.3,iPad,58.82352941,,,,,,,,,,0.997,1,,,,,,,,,,,,,,,0,-0.298177083,-0.287760417,1,0,0,0.997,button_left_main,-0.298177083,-0.287760417,1,0,0,,0,103,103,98,1,BAMPS,LB,old,z,./images/BAMPSLB.png,,,,,,,,,,,,,,,,,,,,,,,,,,,,,,,,,
,,,,,,,,,,,,,,,,,60f2a2b4932fed5326988e0f,29,2022-02-12_18h02.16.358,lexical_decision_task_DD_L5,2021.2.3,iPad,58.82352941,,,,,,,,,,1.238,1,,,,,,,,,,,,,,,0,0.282552083,-0.29296875,1,0,0,1.238,button_right_main,0.282552083,-0.29296875,1,0,0,,0,104,104,7,1,WAGON,LB,old,m,./images/WAGONLB.png,,,,,,,,,,,,,,,,,,,,,,,,,,,,,,,,,
,,,,,,,,,,,,,,,,,60f2a2b4932fed5326988e0f,29,2022-02-12_18h02.16.358,lexical_decision_task_DD_L5,2021.2.3,iPad,58.82352941,,,,,,,,,,1.205,1,,,,,,,,,,,,,,,0,-0.307291667,-0.282552083,1,0,0,1.205,button_left_main,-0.307291667,-0.282552083,1,0,0,,0,105,105,107,1,FASKS,LB,old,z,./images/FASKSLB.png,,,,,,,,,,,,,,,,,,,,,,,,,,,,,,,,,
,,,,,,,,,,,,,,,,,60f2a2b4932fed5326988e0f,29,2022-02-12_18h02.16.358,lexical_decision_task_DD_L5,2021.2.3,iPad,58.82352941,,,,,,,,,,1.102,1,,,,,,,,,,,,,,,0,-0.278645833,-0.313802083,1,0,0,1.102,button_left_main,-0.278645833,-0.313802083,1,0,0,,0,106,106,103,1,FLORT,HB,old,z,./images/FLORTHB.png,,,,,,,,,,,,,,,,,,,,,,,,,,,,,,,,,
,,,,,,,,,,,,,,,,,60f2a2b4932fed5326988e0f,29,2022-02-12_18h02.16.358,lexical_decision_task_DD_L5,2021.2.3,iPad,58.82352941,,,,,,,,,,0.92,1,,,,,,,,,,,,,,,0,0.373697917,-0.302083333,1,0,0,0.92,button_right_main,0.373697917,-0.302083333,1,0,0,,0,107,107,23,1,CLOTH,C,old,m,./images/CLOTH.png,,,,,,,,,,,,,,,,,,,,,,,,,,,,,,,,,
,,,,,,,,,,,,,,,,,60f2a2b4932fed5326988e0f,29,2022-02-12_18h02.16.358,lexical_decision_task_DD_L5,2021.2.3,iPad,58.82352941,,,,,,,,,,1.047,1,,,,,,,,,,,,,,,0,-0.276041667,-0.295572917,1,0,0,1.047,button_left_main,-0.276041667,-0.295572917,1,0,0,,0,108,108,104,1,GITTY,LB,old,z,./images/GITTYLB.png,,,,,,,,,,,,,,,,,,,,,,,,,,,,,,,,,
,,,,,,,,,,,,,,,,,60f2a2b4932fed5326988e0f,29,2022-02-12_18h02.16.358,lexical_decision_task_DD_L5,2021.2.3,iPad,58.82352941,,,,,,,,,,0.976,1,,,,,,,,,,,,,,,0,-0.307291667,-0.279947917,1,0,0,0.976,button_left_main,-0.307291667,-0.279947917,1,0,0,,0,109,109,95,1,HANTY,LB,old,z,./images/HANTYLB.png,,,,,,,,,,,,,,,,,,,,,,,,,,,,,,,,,
,,,,,,,,,,,,,,,,,60f2a2b4932fed5326988e0f,29,2022-02-12_18h02.16.358,lexical_decision_task_DD_L5,2021.2.3,iPad,58.82352941,,,,,,,,,,1.071,1,,,,,,,,,,,,,,,0,0.3203125,-0.298177083,1,0,0,1.071,button_right_main,0.3203125,-0.298177083,1,0,0,,0,110,110,25,1,CHALK,LB,old,m,./images/CHALKLB.png,,,,,,,,,,,,,,,,,,,,,,,,,,,,,,,,,
,,,,,,,,,,,,,,,,,60f2a2b4932fed5326988e0f,29,2022-02-12_18h02.16.358,lexical_decision_task_DD_L5,2021.2.3,iPad,58.82352941,,,,,,,,,,0.996,1,,,,,,,,,,,,,,,0,0.295572917,-0.29296875,1,0,0,0.996,button_right_main,0.295572917,-0.29296875,1,0,0,,0,111,111,15,1,COLLAR,HB,old,m,./images/COLLARHB.png,,,,,,,,,,,,,,,,,,,,,,,,,,,,,,,,,
,,,,,,,,,,,,,,,,,60f2a2b4932fed5326988e0f,29,2022-02-12_18h02.16.358,lexical_decision_task_DD_L5,2021.2.3,iPad,58.82352941,,,,,,,,,,0.83,1,,,,,,,,,,,,,,,0,0.290364583,-0.296875,1,0,0,0.83,button_right_main,0.290364583,-0.296875,1,0,0,,0,112,112,76,1,MIDGET,LB,old,m,./images/MIDGETLB.png,,,,,,,,,,,,,,,,,,,,,,,,,,,,,,,,,
,,,,,,,,,,,,,,,,,60f2a2b4932fed5326988e0f,29,2022-02-12_18h02.16.358,lexical_decision_task_DD_L5,2021.2.3,iPad,58.82352941,,,,,,,,,,0.873,1,,,,,,,,,,,,,,,0,-0.25,-0.3046875,1,0,0,0.873,button_left_main,-0.25,-0.3046875,1,0,0,,0,113,113,93,1,SMONE,C,old,z,./images/SMONE.png,,,,,,,,,,,,,,,,,,,,,,,,,,,,,,,,,
,,,,,,,,,,,,,,,,,60f2a2b4932fed5326988e0f,29,2022-02-12_18h02.16.358,lexical_decision_task_DD_L5,2021.2.3,iPad,58.82352941,,,,,,,,,,0.763,1,,,,,,,,,,,,,,,0,0.27734375,-0.263020833,1,0,0,0.763,button_right_main,0.27734375,-0.263020833,1,0,0,,0,114,114,2,1,STOVE,C,old,m,./images/STOVE.png,,,,,,,,,,,,,,,,,,,,,,,,,,,,,,,,,
,,,,,,,,,,,,,,,,,60f2a2b4932fed5326988e0f,29,2022-02-12_18h02.16.358,lexical_decision_task_DD_L5,2021.2.3,iPad,58.82352941,,,,,,,,,,1.173,1,,,,,,,,,,,,,,,0,-0.30078125,-0.2734375,1,0,0,1.173,button_left_main,-0.30078125,-0.2734375,1,0,0,,0,115,115,114,1,RIKES,C,old,z,./images/RIKES.png,,,,,,,,,,,,,,,,,,,,,,,,,,,,,,,,,
,,,,,,,,,,,,,,,,,60f2a2b4932fed5326988e0f,29,2022-02-12_18h02.16.358,lexical_decision_task_DD_L5,2021.2.3,iPad,58.82352941,,,,,,,,,,1.08,1,,,,,,,,,,,,,,,0,0.27734375,-0.264322917,1,0,0,1.08,button_right_main,0.27734375,-0.264322917,1,0,0,,0,116,116,52,1,DESERT,LB,old,m,./images/DESERTLB.png,,,,,,,,,,,,,,,,,,,,,,,,,,,,,,,,,
,,,,,,,,,,,,,,,,,60f2a2b4932fed5326988e0f,29,2022-02-12_18h02.16.358,lexical_decision_task_DD_L5,2021.2.3,iPad,58.82352941,,,,,,,,,,0.967,1,,,,,,,,,,,,,,,0,0.291666667,-0.28515625,1,0,0,0.967,button_right_main,0.291666667,-0.28515625,1,0,0,,0,117,117,49,1,BISHOP,LB,old,m,./images/BISHOPLB.png,,,,,,,,,,,,,,,,,,,,,,,,,,,,,,,,,
,,,,,,,,,,,,,,,,,60f2a2b4932fed5326988e0f,29,2022-02-12_18h02.16.358,lexical_decision_task_DD_L5,2021.2.3,iPad,58.82352941,,,,,,,,,,0.797,0,,,,,,,,,,,,,,,0,0.25,-0.2578125,1,0,0,0.797,button_right_main,0.25,-0.2578125,1,0,0,,0,118,118,164,1,SGREW,LB,old,z,./images/SGREWLB.png,,,,,,,,,,,,,,,,,,,,,,,,,,,,,,,,,
,,,,,,,,,,,,,,,,,60f2a2b4932fed5326988e0f,29,2022-02-12_18h02.16.358,lexical_decision_task_DD_L5,2021.2.3,iPad,58.82352941,,,,,,,,,,0.771,1,,,,,,,,,,,,,,,0,0.270833333,-0.27734375,1,0,0,0.771,button_right_main,0.270833333,-0.27734375,1,0,0,,0,119,119,47,1,LAGOON,C,old,m,./images/LAGOON.png,,,,,,,,,,,,,,,,,,,,,,,,,,,,,,,,,
,,,,,,,,,,,,,,,,,60f2a2b4932fed5326988e0f,29,2022-02-12_18h02.16.358,lexical_decision_task_DD_L5,2021.2.3,iPad,58.82352941,,,,,,,,,,0.955,1,,,,,,,,,,,,,,,0,-0.337239583,-0.298177083,1,0,0,0.955,button_left_main,-0.337239583,-0.298177083,1,0,0,,0,120,120,159,1,CUDDY,C,old,z,./images/CUDDY.png,,,,,,,,,,,,,,,,,,,,,,,,,,,,,,,,,
,,,,,,,,,,,,,,,,,60f2a2b4932fed5326988e0f,29,2022-02-12_18h02.16.358,lexical_decision_task_DD_L5,2021.2.3,iPad,58.82352941,,,,,,,,,,1.905,1,,,,,,,,,,,,,,,0,-0.305989583,-0.283854167,1,0,0,1.905,button_left_main,-0.305989583,-0.283854167,1,0,0,,0,121,121,127,1,NINDY,HB,old,z,./images/NINDYHB.png,,,,,,,,,,,,,,,,,,,,,,,,,,,,,,,,,
,,,,,,,,,,,,,,,,,60f2a2b4932fed5326988e0f,29,2022-02-12_18h02.16.358,lexical_decision_task_DD_L5,2021.2.3,iPad,58.82352941,,,,,,,,,,0.903,1,,,,,,,,,,,,,,,0,-0.321614583,-0.279947917,1,0,0,0.903,button_left_main,-0.321614583,-0.279947917,1,0,0,,0,122,122,147,1,ZOLES,C,old,z,./images/ZOLES.png,,,,,,,,,,,,,,,,,,,,,,,,,,,,,,,,,
,,,,,,,,,,,,,,,,,60f2a2b4932fed5326988e0f,29,2022-02-12_18h02.16.358,lexical_decision_task_DD_L5,2021.2.3,iPad,58.82352941,,,,,,,,,,1.38,1,,,,,,,,,,,,,,,0,0.2890625,-0.252604167,1,0,0,1.38,button_right_main,0.2890625,-0.252604167,1,0,0,,0,123,123,54,1,CHERRY,HB,old,m,./images/CHERRYHB.png,,,,,,,,,,,,,,,,,,,,,,,,,,,,,,,,,
,,,,,,,,,,,,,,,,,60f2a2b4932fed5326988e0f,29,2022-02-12_18h02.16.358,lexical_decision_task_DD_L5,2021.2.3,iPad,58.82352941,,,,,,,,,,1.455,1,,,,,,,,,,,,,,,0,-0.309895833,-0.282552083,1,0,0,1.455,button_left_main,-0.309895833,-0.282552083,1,0,0,,0,124,124,97,1,CHIDS,HB,old,z,./images/CHIDSHB.png,,,,,,,,,,,,,,,,,,,,,,,,,,,,,,,,,
,,,,,,,,,,,,,,,,,60f2a2b4932fed5326988e0f,29,2022-02-12_18h02.16.358,lexical_decision_task_DD_L5,2021.2.3,iPad,58.82352941,,,,,,,,,,0.938,1,,,,,,,,,,,,,,,0,0.31640625,-0.272135417,1,0,0,0.938,button_right_main,0.05859375,-0.3671875,1,0,0,,0,125,125,65,1,SPINE,C,old,m,./images/SPINE.png,break_done_button,,,,,,,,,,,,,,,,,,,,,,,,,,,,,,,,
,,,,,,,,,,,,,,,,,60f2a2b4932fed5326988e0f,29,2022-02-12_18h02.16.358,lexical_decision_task_DD_L5,2021.2.3,iPad,58.82352941,,,,,,,,,,1.531,1,,,,,,,,,,,,,,,0,-0.290364583,-0.26953125,1,0,0,1.531,button_left_main,-0.290364583,-0.26953125,1,0,0,,0,126,126,85,1,CHULK,HB,old,z,./images/CHULKHB.png,,,,,,,,,,,,,,,,,,,,,,,,,,,,,,,,,
,,,,,,,,,,,,,,,,,60f2a2b4932fed5326988e0f,29,2022-02-12_18h02.16.358,lexical_decision_task_DD_L5,2021.2.3,iPad,58.82352941,,,,,,,,,,1.17,1,,,,,,,,,,,,,,,0,0.30078125,-0.2578125,1,0,0,1.17,button_right_main,0.30078125,-0.2578125,1,0,0,,0,127,127,69,1,ARROW,HB,old,m,./images/ARROWHB.png,,,,,,,,,,,,,,,,,,,,,,,,,,,,,,,,,
,,,,,,,,,,,,,,,,,60f2a2b4932fed5326988e0f,29,2022-02-12_18h02.16.358,lexical_decision_task_DD_L5,2021.2.3,iPad,58.82352941,,,,,,,,,,1.029,1,,,,,,,,,,,,,,,0,-0.276041667,-0.283854167,1,0,0,1.029,button_left_main,-0.276041667,-0.283854167,1,0,0,,0,128,128,91,1,SHENS,HB,old,z,./images/SHENSHB.png,,,,,,,,,,,,,,,,,,,,,,,,,,,,,,,,,
,,,,,,,,,,,,,,,,,60f2a2b4932fed5326988e0f,29,2022-02-12_18h02.16.358,lexical_decision_task_DD_L5,2021.2.3,iPad,58.82352941,,,,,,,,,,1.198,1,,,,,,,,,,,,,,,0,-0.282552083,-0.28515625,1,0,0,1.198,button_left_main,-0.282552083,-0.28515625,1,0,0,,0,129,129,146,1,MOOST,LB,old,z,./images/MOOSTLB.png,,,,,,,,,,,,,,,,,,,,,,,,,,,,,,,,,
,,,,,,,,,,,,,,,,,60f2a2b4932fed5326988e0f,29,2022-02-12_18h02.16.358,lexical_decision_task_DD_L5,2021.2.3,iPad,58.82352941,,,,,,,,,,0.971,1,,,,,,,,,,,,,,,0,0.286458333,-0.302083333,1,0,0,0.971,button_right_main,0.286458333,-0.302083333,1,0,0,,0,130,130,43,1,STOOL,LB,old,m,./images/STOOLLB.png,,,,,,,,,,,,,,,,,,,,,,,,,,,,,,,,,
,,,,,,,,,,,,,,,,,60f2a2b4932fed5326988e0f,29,2022-02-12_18h02.16.358,lexical_decision_task_DD_L5,2021.2.3,iPad,58.82352941,,,,,,,,,,1.236,1,,,,,,,,,,,,,,,0,0.309895833,-0.26171875,1,0,0,1.236,button_right_main,0.309895833,-0.26171875,1,0,0,,0,131,131,21,1,DANCER,HB,old,m,./images/DANCERHB.png,,,,,,,,,,,,,,,,,,,,,,,,,,,,,,,,,
,,,,,,,,,,,,,,,,,60f2a2b4932fed5326988e0f,29,2022-02-12_18h02.16.358,lexical_decision_task_DD_L5,2021.2.3,iPad,58.82352941,,,,,,,,,,0.838,1,,,,,,,,,,,,,,,0,0.295572917,-0.272135417,1,0,0,0.838,button_right_main,0.295572917,-0.272135417,1,0,0,,0,132,132,41,1,STREAM,C,old,m,./images/STREAM.png,,,,,,,,,,,,,,,,,,,,,,,,,,,,,,,,,
,,,,,,,,,,,,,,,,,60f2a2b4932fed5326988e0f,29,2022-02-12_18h02.16.358,lexical_decision_task_DD_L5,2021.2.3,iPad,58.82352941,,,,,,,,,,1.12,1,,,,,,,,,,,,,,,0,-0.298177083,-0.287760417,1,0,0,1.12,button_left_main,-0.298177083,-0.287760417,1,0,0,,0,133,133,148,1,JOMS,HB,old,z,./images/JOMSHB.png,,,,,,,,,,,,,,,,,,,,,,,,,,,,,,,,,
,,,,,,,,,,,,,,,,,60f2a2b4932fed5326988e0f,29,2022-02-12_18h02.16.358,lexical_decision_task_DD_L5,2021.2.3,iPad,58.82352941,,,,,,,,,,1.138,1,,,,,,,,,,,,,,,0,-0.299479167,-0.305989583,1,0,0,1.138,button_left_main,-0.299479167,-0.305989583,1,0,0,,0,134,134,100,1,DRIBS,HB,old,z,./images/DRIBSHB.png,,,,,,,,,,,,,,,,,,,,,,,,,,,,,,,,,
,,,,,,,,,,,,,,,,,60f2a2b4932fed5326988e0f,29,2022-02-12_18h02.16.358,lexical_decision_task_DD_L5,2021.2.3,iPad,58.82352941,,,,,,,,,,0.994,1,,,,,,,,,,,,,,,0,-0.283854167,-0.30859375,1,0,0,0.994,button_left_main,-0.283854167,-0.30859375,1,0,0,,0,135,135,101,1,GLEET,LB,old,z,./images/GLEETLB.png,,,,,,,,,,,,,,,,,,,,,,,,,,,,,,,,,
,,,,,,,,,,,,,,,,,60f2a2b4932fed5326988e0f,29,2022-02-12_18h02.16.358,lexical_decision_task_DD_L5,2021.2.3,iPad,58.82352941,,,,,,,,,,0.956,1,,,,,,,,,,,,,,,0,0.348958333,-0.294270833,1,0,0,0.956,button_right_main,0.348958333,-0.294270833,1,0,0,,0,136,136,44,1,BASKET,C,old,m,./images/BASKET.png,,,,,,,,,,,,,,,,,,,,,,,,,,,,,,,,,
,,,,,,,,,,,,,,,,,60f2a2b4932fed5326988e0f,29,2022-02-12_18h02.16.358,lexical_decision_task_DD_L5,2021.2.3,iPad,58.82352941,,,,,,,,,,0.838,1,,,,,,,,,,,,,,,0,0.315104167,-0.311197917,1,0,0,0.838,button_right_main,0.315104167,-0.311197917,1,0,0,,0,137,137,77,1,WHEEL,C,old,m,./images/WHEEL.png,,,,,,,,,,,,,,,,,,,,,,,,,,,,,,,,,
,,,,,,,,,,,,,,,,,60f2a2b4932fed5326988e0f,29,2022-02-12_18h02.16.358,lexical_decision_task_DD_L5,2021.2.3,iPad,58.82352941,,,,,,,,,,1.221,1,,,,,,,,,,,,,,,0,0.328125,-0.2890625,1,0,0,1.221,button_right_main,0.328125,-0.2890625,1,0,0,,0,138,138,13,1,BUNNY,LB,old,m,./images/BUNNYLB.png,,,,,,,,,,,,,,,,,,,,,,,,,,,,,,,,,
,,,,,,,,,,,,,,,,,60f2a2b4932fed5326988e0f,29,2022-02-12_18h02.16.358,lexical_decision_task_DD_L5,2021.2.3,iPad,58.82352941,,,,,,,,,,0.97,1,,,,,,,,,,,,,,,0,-0.313802083,-0.3203125,1,0,0,0.97,button_left_main,-0.313802083,-0.3203125,1,0,0,,0,139,139,161,1,BLAPS,LB,old,z,./images/BLAPSLB.png,,,,,,,,,,,,,,,,,,,,,,,,,,,,,,,,,
,,,,,,,,,,,,,,,,,60f2a2b4932fed5326988e0f,29,2022-02-12_18h02.16.358,lexical_decision_task_DD_L5,2021.2.3,iPad,58.82352941,,,,,,,,,,0.965,1,,,,,,,,,,,,,,,0,-0.302083333,-0.268229167,1,0,0,0.965,button_left_main,-0.302083333,-0.268229167,1,0,0,,0,140,140,134,1,TROSS,LB,old,z,./images/TROSSLB.png,,,,,,,,,,,,,,,,,,,,,,,,,,,,,,,,,
,,,,,,,,,,,,,,,,,60f2a2b4932fed5326988e0f,29,2022-02-12_18h02.16.358,lexical_decision_task_DD_L5,2021.2.3,iPad,58.82352941,,,,,,,,,,0.821,1,,,,,,,,,,,,,,,0,0.307291667,-0.302083333,1,0,0,0.821,button_right_main,0.307291667,-0.302083333,1,0,0,,0,141,141,20,1,GRANNY,C,old,m,./images/GRANNY.png,,,,,,,,,,,,,,,,,,,,,,,,,,,,,,,,,
,,,,,,,,,,,,,,,,,60f2a2b4932fed5326988e0f,29,2022-02-12_18h02.16.358,lexical_decision_task_DD_L5,2021.2.3,iPad,58.82352941,,,,,,,,,,0.889,1,,,,,,,,,,,,,,,0,0.354166667,-0.28515625,1,0,0,0.889,button_right_main,0.354166667,-0.28515625,1,0,0,,0,142,142,19,1,DONKEY,LB,old,m,./images/DONKEYLB.png,,,,,,,,,,,,,,,,,,,,,,,,,,,,,,,,,
,,,,,,,,,,,,,,,,,60f2a2b4932fed5326988e0f,29,2022-02-12_18h02.16.358,lexical_decision_task_DD_L5,2021.2.3,iPad,58.82352941,,,,,,,,,,0.955,1,,,,,,,,,,,,,,,0,-0.278645833,-0.290364583,1,0,0,0.955,button_left_main,-0.278645833,-0.290364583,1,0,0,,0,143,143,138,1,PLICE,C,old,z,./images/PLICE.png,,,,,,,,,,,,,,,,,,,,,,,,,,,,,,,,,
,,,,,,,,,,,,,,,,,60f2a2b4932fed5326988e0f,29,2022-02-12_18h02.16.358,lexical_decision_task_DD_L5,2021.2.3,iPad,58.82352941,,,,,,,,,,0.905,1,,,,,,,,,,,,,,,0,-0.279947917,-0.295572917,1,0,0,0.905,button_left_main,-0.279947917,-0.295572917,1,0,0,,0,144,144,140,1,DOVET,LB,old,z,./images/DOVETLB.png,,,,,,,,,,,,,,,,,,,,,,,,,,,,,,,,,
,,,,,,,,,,,,,,,,,60f2a2b4932fed5326988e0f,29,2022-02-12_18h02.16.358,lexical_decision_task_DD_L5,2021.2.3,iPad,58.82352941,,,,,,,,,,1.138,1,,,,,,,,,,,,,,,0,0.33984375,-0.317708333,1,0,0,1.138,button_right_main,0.33984375,-0.317708333,1,0,0,,0,145,145,63,1,BAKER,HB,old,m,./images/BAKERHB.png,,,,,,,,,,,,,,,,,,,,,,,,,,,,,,,,,
,,,,,,,,,,,,,,,,,60f2a2b4932fed5326988e0f,29,2022-02-12_18h02.16.358,lexical_decision_task_DD_L5,2021.2.3,iPad,58.82352941,,,,,,,,,,0.896,1,,,,,,,,,,,,,,,0,-0.274739583,-0.270833333,1,0,0,0.896,button_left_main,-0.274739583,-0.270833333,1,0,0,,0,146,146,149,1,VEASE,LB,old,z,./images/VEASELB.png,,,,,,,,,,,,,,,,,,,,,,,,,,,,,,,,,
,,,,,,,,,,,,,,,,,60f2a2b4932fed5326988e0f,29,2022-02-12_18h02.16.358,lexical_decision_task_DD_L5,2021.2.3,iPad,58.82352941,,,,,,,,,,0.938,1,,,,,,,,,,,,,,,0,0.305989583,-0.287760417,1,0,0,0.938,button_right_main,0.305989583,-0.287760417,1,0,0,,0,147,147,6,1,STAIN,HB,old,m,./images/STAINHB.png,,,,,,,,,,,,,,,,,,,,,,,,,,,,,,,,,
,,,,,,,,,,,,,,,,,60f2a2b4932fed5326988e0f,29,2022-02-12_18h02.16.358,lexical_decision_task_DD_L5,2021.2.3,iPad,58.82352941,,,,,,,,,,0.839,1,,,,,,,,,,,,,,,0,-0.298177083,-0.270833333,1,0,0,0.839,button_left_main,-0.298177083,-0.270833333,1,0,0,,0,148,148,144,1,NAIRY,C,old,z,./images/NAIRY.png,,,,,,,,,,,,,,,,,,,,,,,,,,,,,,,,,
,,,,,,,,,,,,,,,,,60f2a2b4932fed5326988e0f,29,2022-02-12_18h02.16.358,lexical_decision_task_DD_L5,2021.2.3,iPad,58.82352941,,,,,,,,,,0.896,1,,,,,,,,,,,,,,,0,0.317708333,-0.27734375,1,0,0,0.896,button_right_main,0.317708333,-0.27734375,1,0,0,,0,149,149,31,1,STEAK,LB,old,m,./images/STEAKLB.png,,,,,,,,,,,,,,,,,,,,,,,,,,,,,,,,,
,,,,,,,,,,,,,,,,,60f2a2b4932fed5326988e0f,29,2022-02-12_18h02.16.358,lexical_decision_task_DD_L5,2021.2.3,iPad,58.82352941,,,,,,,,,,1.237,1,,,,,,,,,,,,,,,0,0.298177083,-0.313802083,1,0,0,1.237,button_right_main,0.298177083,-0.313802083,1,0,0,,0,150,150,8,1,CLIFF,C,old,m,./images/CLIFF.png,,,,,,,,,,,,,,,,,,,,,,,,,,,,,,,,,
,,,,,,,,,,,,,,,,,60f2a2b4932fed5326988e0f,29,2022-02-12_18h02.16.358,lexical_decision_task_DD_L5,2021.2.3,iPad,58.82352941,,,,,,,,,,0.971,1,,,,,,,,,,,,,,,0,-0.283854167,-0.291666667,1,0,0,0.971,button_left_main,-0.283854167,-0.291666667,1,0,0,,0,151,151,131,1,NACES,LB,old,z,./images/NACESLB.png,,,,,,,,,,,,,,,,,,,,,,,,,,,,,,,,,
,,,,,,,,,,,,,,,,,60f2a2b4932fed5326988e0f,29,2022-02-12_18h02.16.358,lexical_decision_task_DD_L5,2021.2.3,iPad,58.82352941,,,,,,,,,,1.688,1,,,,,,,,,,,,,,,0,0.30859375,-0.307291667,1,0,0,1.688,button_right_main,0.30859375,-0.307291667,1,0,0,,0,152,152,57,1,FERRY,HB,old,m,./images/FERRYHB.png,,,,,,,,,,,,,,,,,,,,,,,,,,,,,,,,,
,,,,,,,,,,,,,,,,,60f2a2b4932fed5326988e0f,29,2022-02-12_18h02.16.358,lexical_decision_task_DD_L5,2021.2.3,iPad,58.82352941,,,,,,,,,,0.949,1,,,,,,,,,,,,,,,0,-0.2734375,-0.295572917,1,0,0,0.949,button_left_main,-0.2734375,-0.295572917,1,0,0,,0,153,153,117,1,STEEG,C,old,z,./images/STEEG.png,,,,,,,,,,,,,,,,,,,,,,,,,,,,,,,,,
,,,,,,,,,,,,,,,,,60f2a2b4932fed5326988e0f,29,2022-02-12_18h02.16.358,lexical_decision_task_DD_L5,2021.2.3,iPad,58.82352941,,,,,,,,,,0.898,1,,,,,,,,,,,,,,,0,0.315104167,-0.274739583,1,0,0,0.898,button_right_main,0.315104167,-0.274739583,1,0,0,,0,154,154,34,1,RAZOR,LB,old,m,./images/RAZORLB.png,,,,,,,,,,,,,,,,,,,,,,,,,,,,,,,,,
,,,,,,,,,,,,,,,,,60f2a2b4932fed5326988e0f,29,2022-02-12_18h02.16.358,lexical_decision_task_DD_L5,2021.2.3,iPad,58.82352941,,,,,,,,,,0.914,1,,,,,,,,,,,,,,,0,-0.283854167,-0.260416667,1,0,0,0.914,button_left_main,-0.283854167,-0.260416667,1,0,0,,0,155,155,87,1,TRING,C,old,z,./images/TRING.png,,,,,,,,,,,,,,,,,,,,,,,,,,,,,,,,,
,,,,,,,,,,,,,,,,,60f2a2b4932fed5326988e0f,29,2022-02-12_18h02.16.358,lexical_decision_task_DD_L5,2021.2.3,iPad,58.82352941,,,,,,,,,,1.004,1,,,,,,,,,,,,,,,0,-0.31640625,-0.311197917,1,0,0,1.004,button_left_main,-0.31640625,-0.311197917,1,0,0,,0,156,156,125,1,MOOKY,LB,old,z,./images/MOOKYLB.png,,,,,,,,,,,,,,,,,,,,,,,,,,,,,,,,,
,,,,,,,,,,,,,,,,,60f2a2b4932fed5326988e0f,29,2022-02-12_18h02.16.358,lexical_decision_task_DD_L5,2021.2.3,iPad,58.82352941,,,,,,,,,,0.905,1,,,,,,,,,,,,,,,0,-0.291666667,-0.303385417,1,0,0,0.905,button_left_main,-0.291666667,-0.303385417,1,0,0,,0,157,157,150,1,NOOLS,C,old,z,./images/NOOLS.png,,,,,,,,,,,,,,,,,,,,,,,,,,,,,,,,,
,,,,,,,,,,,,,,,,,60f2a2b4932fed5326988e0f,29,2022-02-12_18h02.16.358,lexical_decision_task_DD_L5,2021.2.3,iPad,58.82352941,,,,,,,,,,1.697,1,,,,,,,,,,,,,,,0,-0.248697917,-0.2890625,1,0,0,1.697,button_left_main,-0.248697917,-0.2890625,1,0,0,,0,158,158,166,1,SHORY,HB,old,z,./images/SHORYHB.png,,,,,,,,,,,,,,,,,,,,,,,,,,,,,,,,,
,,,,,,,,,,,,,,,,,60f2a2b4932fed5326988e0f,29,2022-02-12_18h02.16.358,lexical_decision_task_DD_L5,2021.2.3,iPad,58.82352941,,,,,,,,,,1.078,1,,,,,,,,,,,,,,,0,0.303385417,-0.2890625,1,0,0,1.078,button_right_main,0.303385417,-0.2890625,1,0,0,,0,159,159,68,1,VALLEY,C,old,m,./images/VALLEY.png,,,,,,,,,,,,,,,,,,,,,,,,,,,,,,,,,
,,,,,,,,,,,,,,,,,60f2a2b4932fed5326988e0f,29,2022-02-12_18h02.16.358,lexical_decision_task_DD_L5,2021.2.3,iPad,58.82352941,,,,,,,,,,0.966,1,,,,,,,,,,,,,,,0,0.270833333,-0.272135417,1,0,0,0.966,button_right_main,0.270833333,-0.272135417,1,0,0,,0,160,160,5,1,BAMBOO,C,old,m,./images/BAMBOO.png,,,,,,,,,,,,,,,,,,,,,,,,,,,,,,,,,
,,,,,,,,,,,,,,,,,60f2a2b4932fed5326988e0f,29,2022-02-12_18h02.16.358,lexical_decision_task_DD_L5,2021.2.3,iPad,58.82352941,,,,,,,,,,0.789,1,,,,,,,,,,,,,,,0,0.33984375,-0.3359375,1,0,0,0.789,button_right_main,0.33984375,-0.3359375,1,0,0,,0,161,161,59,1,BRUSH,C,old,m,./images/BRUSH.png,,,,,,,,,,,,,,,,,,,,,,,,,,,,,,,,,
,,,,,,,,,,,,,,,,,60f2a2b4932fed5326988e0f,29,2022-02-12_18h02.16.358,lexical_decision_task_DD_L5,2021.2.3,iPad,58.82352941,,,,,,,,,,1.553,1,,,,,,,,,,,,,,,0,-0.2734375,-0.305989583,1,0,0,1.553,button_left_main,-0.2734375,-0.305989583,1,0,0,,0,162,162,130,1,CRILL,HB,old,z,./images/CRILLHB.png,,,,,,,,,,,,,,,,,,,,,,,,,,,,,,,,,
,,,,,,,,,,,,,,,,,60f2a2b4932fed5326988e0f,29,2022-02-12_18h02.16.358,lexical_decision_task_DD_L5,2021.2.3,iPad,58.82352941,,,,,,,,,,0.87,1,,,,,,,,,,,,,,,0,0.28125,-0.298177083,1,0,0,0.87,button_right_main,0.28125,-0.298177083,1,0,0,,0,163,163,70,1,BANANA,LB,old,m,./images/BANANALB.png,,,,,,,,,,,,,,,,,,,,,,,,,,,,,,,,,
,,,,,,,,,,,,,,,,,60f2a2b4932fed5326988e0f,29,2022-02-12_18h02.16.358,lexical_decision_task_DD_L5,2021.2.3,iPad,58.82352941,,,,,,,,,,0.83,1,,,,,,,,,,,,,,,0,0.278645833,-0.25390625,1,0,0,0.83,button_right_main,0.278645833,-0.25390625,1,0,0,,0,164,164,71,1,BUBBLE,C,old,m,./images/BUBBLE.png,,,,,,,,,,,,,,,,,,,,,,,,,,,,,,,,,
,,,,,,,,,,,,,,,,,60f2a2b4932fed5326988e0f,29,2022-02-12_18h02.16.358,lexical_decision_task_DD_L5,2021.2.3,iPad,58.82352941,,,,,,,,,,1.005,1,,,,,,,,,,,,,,,0,-0.330729167,-0.295572917,1,0,0,1.005,button_left_main,-0.330729167,-0.295572917,1,0,0,,0,165,165,99,1,BACKY,C,old,z,./images/BACKY.png,,,,,,,,,,,,,,,,,,,,,,,,,,,,,,,,,
,,,,,,,,,,,,,,,,,60f2a2b4932fed5326988e0f,29,2022-02-12_18h02.16.358,lexical_decision_task_DD_L5,2021.2.3,iPad,58.82352941,,,,,,,,,,0.978,1,,,,,,,,,,,,,,,0,-0.2890625,-0.32421875,1,0,0,0.978,button_left_main,-0.2890625,-0.32421875,1,0,0,,0,166,166,126,1,GUELS,C,old,z,./images/GUELS.png,,,,,,,,,,,,,,,,,,,,,,,,,,,,,,,,,
,,,,,,,,,,,,,,,,,60f2a2b4932fed5326988e0f,29,2022-02-12_18h02.16.358,lexical_decision_task_DD_L5,2021.2.3,iPad,58.82352941,,,,,,,,,,1.068,1,,,,,,,,,,,,,,,0,-0.290364583,-0.313802083,1,0,0,1.068,button_left_main,-0.290364583,-0.313802083,1,0,0,,0,167,167,123,1,SEDGE,C,old,z,./images/SEDGE.png,,,,,,,,,,,,,,,,,,,,,,,,,,,,,,,,,
,,,,,,,,,,,,,,,,,60f2a2b4932fed5326988e0f,29,2022-02-12_18h02.16.358,lexical_decision_task_DD_L5,2021.2.3,iPad,58.82352941,,,,,,,,,,,,,,,,,,,,,,,,,,,,,,,,,,,,,,,,,,,,,,How likely will it be that you will recognize the words presented slighly blurred on a scale of 0 (not likely) to 100 (most likely)?,,,,,0.024739583,-0.40234375,1,0,0,jol_adv,5,5.442,0,0,0,1,1,,,,,,,,,,,,,,,,,,,
,,,,,,,,,,,,,,,,,60f2a2b4932fed5326988e0f,29,2022-02-12_18h02.16.358,lexical_decision_task_DD_L5,2021.2.3,iPad,58.82352941,,,,,,,,,,,,,,,,,,,,,,,,,,,,,,,,,,,,,,,,,,,,,,How likely will it be that you will recognize the words presented very blurred on a scale of 0 (not likely) to 100 (most likely)?,,,,,,,,,,,5,5.592,0,1,1,2,1,,,,,,,,,,,,,,,,,,,
,,,,,,,,,,,,,,,,,60f2a2b4932fed5326988e0f,29,2022-02-12_18h02.16.358,lexical_decision_task_DD_L5,2021.2.3,iPad,58.82352941,,,,,,,,,,,,,,,,,,,,,,,,,,,,,,,,,,,,,,,,,,,,,,How likely will it be that you will recognize the words presented clearly on a scale of 0 (not likely) to 100 (most likely)?,,,,,,,,,,,5,3.319,0,2,2,0,1,,,,,,,,,,,,,,,,,,,
,0.0546875,-0.389322917,1,0,0,instr_done_button,,,,,,1,test,"In the next phase you will be presented with the words from the the first phase. Your job is to decide whether you remember seeing the word or not. If you remember seeing the word press ""old"" or type ""m"". If you do not remember seeing the word press ""new"" or type ""z"". Please press the space bar or click on continue to begin. ",,,60f2a2b4932fed5326988e0f,29,2022-02-12_18h02.16.358,lexical_decision_task_DD_L5,2021.2.3,iPad,58.82352941,,,,,,,,,,,,,,,,,,,,,,,,,,,,,,,,,,,,,,,,,,,,,,,,,,,,,,,,,,,,,,,,0,0,0,0,1,,,,,,,,,,,,,,
,0.041666667,-0.372395833,1,0,0,instr_done_button,,,,,,1,test,"In the next phase you will be presented with the words from the the first phase. Your job is to decide whether you remember seeing the word or not. If you remember seeing the word press ""old"" or type ""m"". If you do not remember seeing the word press ""new"" or type ""z"". Please press the space bar or click on continue to begin. ",,,60f2a2b4932fed5326988e0f,29,2022-02-12_18h02.16.358,lexical_decision_task_DD_L5,2021.2.3,iPad,58.82352941,,,,,,,,,,,,,,,,,,,,,,,,,,,,,,,,,,,,,,,,,,,,,,,,,,,,,,,,,,,,,,,,1,0,1,0,1,,,,,,,,,,,,,,
,0.013020833,-0.401041667,1,0,0,instr_done_button,,,,,,1,test,"In the next phase you will be presented with the words from the the first phase. Your job is to decide whether you remember seeing the word or not. If you remember seeing the word press ""old"" or type ""m"". If you do not remember seeing the word press ""new"" or type ""z"". Please press the space bar or click on continue to begin. ",,,60f2a2b4932fed5326988e0f,29,2022-02-12_18h02.16.358,lexical_decision_task_DD_L5,2021.2.3,iPad,58.82352941,,,,,,,,,,,,,,,,,,,,,,,,,,,,,,,,,,,,,,,,,,,,,,,,,,,,,,,,,,,,,,,,2,0,2,0,1,,,,,,,,,,,,,,
,0.0234375,-0.3984375,1,0,0,instr_done_button,,,,,,1,test,"In the next phase you will be presented with the words from the the first phase. Your job is to decide whether you remember seeing the word or not. If you remember seeing the word press ""old"" or type ""m"". If you do not remember seeing the word press ""new"" or type ""z"". Please press the space bar or click on continue to begin. ",,,60f2a2b4932fed5326988e0f,29,2022-02-12_18h02.16.358,lexical_decision_task_DD_L5,2021.2.3,iPad,58.82352941,,,,,,,,,,,,,,,,,,,,,,,,,,,,,,,,,,,,,,,,,,,,,,,,,,,,,,,,,,,,,,,,3,0,3,0,1,,,,,,,,,,,,,,
,-0.02734375,-0.401041667,1,0,0,instr_done_button,,,,,,1,test,"In the next phase you will be presented with the words from the the first phase. Your job is to decide whether you remember seeing the word or not. If you remember seeing the word press ""old"" or type ""m"". If you do not remember seeing the word press ""new"" or type ""z"". Please press the space bar or click on continue to begin. ",,,60f2a2b4932fed5326988e0f,29,2022-02-12_18h02.16.358,lexical_decision_task_DD_L5,2021.2.3,iPad,58.82352941,,,,,,,,,,,,,,,,,,,,,,,,,,,,,,,,,,,,,,,,,,,,,,,,,,,,,,,,,,,,,,,,4,0,4,0,1,,,,,,,,,,,,,,
,,,,,,,,,,,,,,,,,60f2a2b4932fed5326988e0f,29,2022-02-12_18h02.16.358,lexical_decision_task_DD_L5,2021.2.3,iPad,58.82352941,,,,,,,,,,8.589,1,,,,,,,,,,,,,,,,,,,,,,,0.334635417,-0.3203125,1,0,0,,,,,,,STOVE,C,m,y,./images/STOVE.png,,,,,,,,,,,,,,,,,,,,,0,0.334635417,-0.3203125,1,0,0,8.589,button_right_test,0,0,0,2,1
,,,,,,,,,,,,,,,,,60f2a2b4932fed5326988e0f,29,2022-02-12_18h02.16.358,lexical_decision_task_DD_L5,2021.2.3,iPad,58.82352941,,,,,,,,,,1.369,0,,,,,,,,,,,,,,,,,,,,,,,0.309895833,-0.282552083,1,0,0,,,,,,,JUNGLE,C,z,y,./images/JUNGLE.png,,,,,,,,,,,,,,,,,,,,,0,0.309895833,-0.282552083,1,0,0,1.369,button_right_test,0,1,1,167,1
,,,,,,,,,,,,,,,,,60f2a2b4932fed5326988e0f,29,2022-02-12_18h02.16.358,lexical_decision_task_DD_L5,2021.2.3,iPad,58.82352941,,,,,,,,,,0.919,1,,,,,,,,,,,,,,,,,,,,,,,-0.322916667,-0.313802083,1,0,0,,,,,,,PASTA,C,z,y,./images/PASTA.png,,,,,,,,,,,,,,,,,,,,,0,-0.322916667,-0.313802083,1,0,0,0.919,button_left_test,0,2,2,89,1
,,,,,,,,,,,,,,,,,60f2a2b4932fed5326988e0f,29,2022-02-12_18h02.16.358,lexical_decision_task_DD_L5,2021.2.3,iPad,58.82352941,,,,,,,,,,1.394,0,,,,,,,,,,,,,,,,,,,,,,,0.334635417,-0.3046875,1,0,0,,,,,,,BANNER,LB,z,y,./images/BANNERLB.png,,,,,,,,,,,,,,,,,,,,,0,0.334635417,-0.3046875,1,0,0,1.394,button_right_test,0,3,3,136,1
,,,,,,,,,,,,,,,,,60f2a2b4932fed5326988e0f,29,2022-02-12_18h02.16.358,lexical_decision_task_DD_L5,2021.2.3,iPad,58.82352941,,,,,,,,,,6.064,0,,,,,,,,,,,,,,,,,,,,,,,0.30859375,-0.298177083,1,0,0,,,,,,,FOLDER,HB,z,y,./images/FOLDERHB.png,,,,,,,,,,,,,,,,,,,,,0,0.30859375,-0.298177083,1,0,0,6.064,button_right_test,0,4,4,126,1
,,,,,,,,,,,,,,,,,60f2a2b4932fed5326988e0f,29,2022-02-12_18h02.16.358,lexical_decision_task_DD_L5,2021.2.3,iPad,58.82352941,,,,,,,,,,5.846,1,,,,,,,,,,,,,,,,,,,,,,,-0.283854167,-0.328125,1,0,0,,,,,,,SMOKER,C,z,y,./images/SMOKER.png,,,,,,,,,,,,,,,,,,,,,0,-0.283854167,-0.328125,1,0,0,5.846,button_left_test,0,5,5,110,1
,,,,,,,,,,,,,,,,,60f2a2b4932fed5326988e0f,29,2022-02-12_18h02.16.358,lexical_decision_task_DD_L5,2021.2.3,iPad,58.82352941,,,,,,,,,,0.987,0,,,,,,,,,,,,,,,,,,,,,,,0.233072917,-0.290364583,1,0,0,,,,,,,BABOON,LB,z,y,./images/BABOONLB.png,,,,,,,,,,,,,,,,,,,,,0,0.233072917,-0.290364583,1,0,0,0.987,button_right_test,0,6,6,142,1
,,,,,,,,,,,,,,,,,60f2a2b4932fed5326988e0f,29,2022-02-12_18h02.16.358,lexical_decision_task_DD_L5,2021.2.3,iPad,58.82352941,,,,,,,,,,0.902,1,,,,,,,,,,,,,,,,,,,,,,,0.255208333,-0.283854167,1,0,0,,,,,,,MIDGET,LB,m,y,./images/MIDGETLB.png,,,,,,,,,,,,,,,,,,,,,0,0.255208333,-0.283854167,1,0,0,0.902,button_right_test,0,7,7,76,1
,,,,,,,,,,,,,,,,,60f2a2b4932fed5326988e0f,29,2022-02-12_18h02.16.358,lexical_decision_task_DD_L5,2021.2.3,iPad,58.82352941,,,,,,,,,,0.879,0,,,,,,,,,,,,,,,,,,,,,,,0.26953125,-0.270833333,1,0,0,,,,,,,COOKER,HB,z,y,./images/COOKERHB.png,,,,,,,,,,,,,,,,,,,,,0,0.26953125,-0.270833333,1,0,0,0.879,button_right_test,0,8,8,153,1
,,,,,,,,,,,,,,,,,60f2a2b4932fed5326988e0f,29,2022-02-12_18h02.16.358,lexical_decision_task_DD_L5,2021.2.3,iPad,58.82352941,,,,,,,,,,0.836,1,,,,,,,,,,,,,,,,,,,,,,,-0.322916667,-0.265625,1,0,0,,,,,,,PEARL,LB,z,y,./images/PEARLLB.png,,,,,,,,,,,,,,,,,,,,,0,-0.322916667,-0.265625,1,0,0,0.836,button_left_test,0,9,9,130,1
,,,,,,,,,,,,,,,,,60f2a2b4932fed5326988e0f,29,2022-02-12_18h02.16.358,lexical_decision_task_DD_L5,2021.2.3,iPad,58.82352941,,,,,,,,,,1.411,0,,,,,,,,,,,,,,,,,,,,,,,0.270833333,-0.283854167,1,0,0,,,,,,,STRING,C,z,y,./images/STRING.png,,,,,,,,,,,,,,,,,,,,,0,0.270833333,-0.283854167,1,0,0,1.411,button_right_test,0,10,10,125,1
,,,,,,,,,,,,,,,,,60f2a2b4932fed5326988e0f,29,2022-02-12_18h02.16.358,lexical_decision_task_DD_L5,2021.2.3,iPad,58.82352941,,,,,,,,,,1.921,1,,,,,,,,,,,,,,,,,,,,,,,0.345052083,-0.266927083,1,0,0,,,,,,,PILOT,C,m,y,./images/PILOT.png,,,,,,,,,,,,,,,,,,,,,0,0.345052083,-0.266927083,1,0,0,1.921,button_right_test,0,11,11,50,1
,,,,,,,,,,,,,,,,,60f2a2b4932fed5326988e0f,29,2022-02-12_18h02.16.358,lexical_decision_task_DD_L5,2021.2.3,iPad,58.82352941,,,,,,,,,,0.93,1,,,,,,,,,,,,,,,,,,,,,,,-0.333333333,-0.3046875,1,0,0,,,,,,,MUFFIN,LB,z,y,./images/MUFFINLB.png,,,,,,,,,,,,,,,,,,,,,0,-0.333333333,-0.3046875,1,0,0,0.93,button_left_test,0,12,12,139,1
,,,,,,,,,,,,,,,,,60f2a2b4932fed5326988e0f,29,2022-02-12_18h02.16.358,lexical_decision_task_DD_L5,2021.2.3,iPad,58.82352941,,,,,,,,,,1.396,0,,,,,,,,,,,,,,,,,,,,,,,0.3359375,-0.296875,1,0,0,,,,,,,SCREW,HB,z,y,./images/SCREWHB.png,,,,,,,,,,,,,,,,,,,,,0,0.3359375,-0.296875,1,0,0,1.396,button_right_test,0,13,13,108,1
,,,,,,,,,,,,,,,,,60f2a2b4932fed5326988e0f,29,2022-02-12_18h02.16.358,lexical_decision_task_DD_L5,2021.2.3,iPad,58.82352941,,,,,,,,,,1.413,0,,,,,,,,,,,,,,,,,,,,,,,0.315104167,-0.319010417,1,0,0,,,,,,,FINGER,HB,z,y,./images/FINGERHB.png,,,,,,,,,,,,,,,,,,,,,0,0.315104167,-0.319010417,1,0,0,1.413,button_right_test,0,14,14,87,1
,,,,,,,,,,,,,,,,,60f2a2b4932fed5326988e0f,29,2022-02-12_18h02.16.358,lexical_decision_task_DD_L5,2021.2.3,iPad,58.82352941,,,,,,,,,,0.869,1,,,,,,,,,,,,,,,,,,,,,,,0.311197917,-0.26953125,1,0,0,,,,,,,CHAIN,HB,m,y,./images/CHAINHB.png,,,,,,,,,,,,,,,,,,,,,0,0.311197917,-0.26953125,1,0,0,0.869,button_right_test,0,15,15,42,1
,,,,,,,,,,,,,,,,,60f2a2b4932fed5326988e0f,29,2022-02-12_18h02.16.358,lexical_decision_task_DD_L5,2021.2.3,iPad,58.82352941,,,,,,,,,,1.062,1,,,,,,,,,,,,,,,,,,,,,,,-0.307291667,-0.282552083,1,0,0,,,,,,,URINE,LB,z,y,./images/URINELB.png,,,,,,,,,,,,,,,,,,,,,0,-0.307291667,-0.282552083,1,0,0,1.062,button_left_test,0,16,16,154,1
,,,,,,,,,,,,,,,,,60f2a2b4932fed5326988e0f,29,2022-02-12_18h02.16.358,lexical_decision_task_DD_L5,2021.2.3,iPad,58.82352941,,,,,,,,,,1.936,0,,,,,,,,,,,,,,,,,,,,,,,0.30859375,-0.287760417,1,0,0,,,,,,,COUCH,C,z,y,./images/COUCH.png,,,,,,,,,,,,,,,,,,,,,0,0.30859375,-0.287760417,1,0,0,1.936,button_right_test,0,17,17,161,1
,,,,,,,,,,,,,,,,,60f2a2b4932fed5326988e0f,29,2022-02-12_18h02.16.358,lexical_decision_task_DD_L5,2021.2.3,iPad,58.82352941,,,,,,,,,,2.011,1,,,,,,,,,,,,,,,,,,,,,,,0.28515625,-0.2890625,1,0,0,,,,,,,CLOTH,C,m,y,./images/CLOTH.png,,,,,,,,,,,,,,,,,,,,,0,0.28515625,-0.2890625,1,0,0,2.011,button_right_test,0,18,18,23,1
,,,,,,,,,,,,,,,,,60f2a2b4932fed5326988e0f,29,2022-02-12_18h02.16.358,lexical_decision_task_DD_L5,2021.2.3,iPad,58.82352941,,,,,,,,,,1.43,1,,,,,,,,,,,,,,,,,,,,,,,0.3046875,-0.276041667,1,0,0,,,,,,,PLANET,C,m,y,./images/PLANET.png,,,,,,,,,,,,,,,,,,,,,0,0.3046875,-0.276041667,1,0,0,1.43,button_right_test,0,19,19,80,1
,,,,,,,,,,,,,,,,,60f2a2b4932fed5326988e0f,29,2022-02-12_18h02.16.358,lexical_decision_task_DD_L5,2021.2.3,iPad,58.82352941,,,,,,,,,,1.084,1,,,,,,,,,,,,,,,,,,,,,,,0.3046875,-0.28515625,1,0,0,,,,,,,HAMMER,HB,m,y,./images/HAMMERHB.png,,,,,,,,,,,,,,,,,,,,,0,0.3046875,-0.28515625,1,0,0,1.084,button_right_test,0,20,20,75,1
,,,,,,,,,,,,,,,,,60f2a2b4932fed5326988e0f,29,2022-02-12_18h02.16.358,lexical_decision_task_DD_L5,2021.2.3,iPad,58.82352941,,,,,,,,,,1.28,1,,,,,,,,,,,,,,,,,,,,,,,0.295572917,-0.265625,1,0,0,,,,,,,FLASK,HB,m,y,./images/FLASKHB.png,,,,,,,,,,,,,,,,,,,,,0,0.295572917,-0.265625,1,0,0,1.28,button_right_test,0,21,21,72,1
,,,,,,,,,,,,,,,,,60f2a2b4932fed5326988e0f,29,2022-02-12_18h02.16.358,lexical_decision_task_DD_L5,2021.2.3,iPad,58.82352941,,,,,,,,,,0.913,1,,,,,,,,,,,,,,,,,,,,,,,-0.291666667,-0.263020833,1,0,0,,,,,,,CRUMB,C,z,y,./images/CRUMB.png,,,,,,,,,,,,,,,,,,,,,0,-0.291666667,-0.263020833,1,0,0,0.913,button_left_test,0,22,22,113,1
,,,,,,,,,,,,,,,,,60f2a2b4932fed5326988e0f,29,2022-02-12_18h02.16.358,lexical_decision_task_DD_L5,2021.2.3,iPad,58.82352941,,,,,,,,,,1.069,1,,,,,,,,,,,,,,,,,,,,,,,-0.303385417,-0.3046875,1,0,0,,,,,,,ONION,HB,z,y,./images/ONIONHB.png,,,,,,,,,,,,,,,,,,,,,0,-0.303385417,-0.3046875,1,0,0,1.069,button_left_test,0,23,23,135,1
,,,,,,,,,,,,,,,,,60f2a2b4932fed5326988e0f,29,2022-02-12_18h02.16.358,lexical_decision_task_DD_L5,2021.2.3,iPad,58.82352941,,,,,,,,,,1.555,1,,,,,,,,,,,,,,,,,,,,,,,-0.345052083,-0.313802083,1,0,0,,,,,,,TWINS,HB,z,y,./images/TWINSHB.png,,,,,,,,,,,,,,,,,,,,,0,-0.345052083,-0.313802083,1,0,0,1.555,button_left_test,0,24,24,144,1
,,,,,,,,,,,,,,,,,60f2a2b4932fed5326988e0f,29,2022-02-12_18h02.16.358,lexical_decision_task_DD_L5,2021.2.3,iPad,58.82352941,,,,,,,,,,0.778,1,,,,,,,,,,,,,,,,,,,,,,,0.299479167,-0.299479167,1,0,0,,,,,,,BUBBLE,C,m,y,./images/BUBBLE.png,,,,,,,,,,,,,,,,,,,,,0,0.299479167,-0.299479167,1,0,0,0.778,button_right_test,0,25,25,71,1
,,,,,,,,,,,,,,,,,60f2a2b4932fed5326988e0f,29,2022-02-12_18h02.16.358,lexical_decision_task_DD_L5,2021.2.3,iPad,58.82352941,,,,,,,,,,0.729,1,,,,,,,,,,,,,,,,,,,,,,,0.270833333,-0.3046875,1,0,0,,,,,,,CHERRY,HB,m,y,./images/CHERRYHB.png,,,,,,,,,,,,,,,,,,,,,0,0.270833333,-0.3046875,1,0,0,0.729,button_right_test,0,26,26,54,1
,,,,,,,,,,,,,,,,,60f2a2b4932fed5326988e0f,29,2022-02-12_18h02.16.358,lexical_decision_task_DD_L5,2021.2.3,iPad,58.82352941,,,,,,,,,,1.136,1,,,,,,,,,,,,,,,,,,,,,,,-0.33984375,-0.342447917,1,0,0,,,,,,,MAGGOT,HB,z,y,./images/MAGGOTHB.png,,,,,,,,,,,,,,,,,,,,,0,-0.33984375,-0.342447917,1,0,0,1.136,button_left_test,0,27,27,117,1
,,,,,,,,,,,,,,,,,60f2a2b4932fed5326988e0f,29,2022-02-12_18h02.16.358,lexical_decision_task_DD_L5,2021.2.3,iPad,58.82352941,,,,,,,,,,0.877,1,,,,,,,,,,,,,,,,,,,,,,,0.291666667,-0.30078125,1,0,0,,,,,,,BUTTER,HB,m,y,./images/BUTTERHB.png,,,,,,,,,,,,,,,,,,,,,0,0.291666667,-0.30078125,1,0,0,0.877,button_right_test,0,28,28,27,1
,,,,,,,,,,,,,,,,,60f2a2b4932fed5326988e0f,29,2022-02-12_18h02.16.358,lexical_decision_task_DD_L5,2021.2.3,iPad,58.82352941,,,,,,,,,,1.036,0,,,,,,,,,,,,,,,,,,,,,,,0.2734375,-0.30078125,1,0,0,,,,,,,BURIAL,C,z,y,./images/BURIAL.png,,,,,,,,,,,,,,,,,,,,,0,0.2734375,-0.30078125,1,0,0,1.036,button_right_test,0,29,29,143,1
,,,,,,,,,,,,,,,,,60f2a2b4932fed5326988e0f,29,2022-02-12_18h02.16.358,lexical_decision_task_DD_L5,2021.2.3,iPad,58.82352941,,,,,,,,,,0.943,1,,,,,,,,,,,,,,,,,,,,,,,0.26171875,-0.30078125,1,0,0,,,,,,,DIVER,HB,m,y,./images/DIVERHB.png,,,,,,,,,,,,,,,,,,,,,0,0.26171875,-0.30078125,1,0,0,0.943,button_right_test,0,30,30,9,1
,,,,,,,,,,,,,,,,,60f2a2b4932fed5326988e0f,29,2022-02-12_18h02.16.358,lexical_decision_task_DD_L5,2021.2.3,iPad,58.82352941,,,,,,,,,,1.173,1,,,,,,,,,,,,,,,,,,,,,,,-0.333333333,-0.319010417,1,0,0,,,,,,,SAILOR,LB,z,y,./images/SAILORLB.png,,,,,,,,,,,,,,,,,,,,,0,-0.333333333,-0.319010417,1,0,0,1.173,button_left_test,0,31,31,151,1
,,,,,,,,,,,,,,,,,60f2a2b4932fed5326988e0f,29,2022-02-12_18h02.16.358,lexical_decision_task_DD_L5,2021.2.3,iPad,58.82352941,,,,,,,,,,1.313,1,,,,,,,,,,,,,,,,,,,,,,,0.365885417,-0.287760417,1,0,0,,,,,,,PEBBLE,LB,m,y,./images/PEBBLELB.png,,,,,,,,,,,,,,,,,,,,,0,0.365885417,-0.287760417,1,0,0,1.313,button_right_test,0,32,32,82,1
,,,,,,,,,,,,,,,,,60f2a2b4932fed5326988e0f,29,2022-02-12_18h02.16.358,lexical_decision_task_DD_L5,2021.2.3,iPad,58.82352941,,,,,,,,,,0.913,1,,,,,,,,,,,,,,,,,,,,,,,0.28125,-0.287760417,1,0,0,,,,,,,BISHOP,LB,m,y,./images/BISHOPLB.png,,,,,,,,,,,,,,,,,,,,,0,0.28125,-0.287760417,1,0,0,0.913,button_right_test,0,33,33,49,1
,,,,,,,,,,,,,,,,,60f2a2b4932fed5326988e0f,29,2022-02-12_18h02.16.358,lexical_decision_task_DD_L5,2021.2.3,iPad,58.82352941,,,,,,,,,,0.878,0,,,,,,,,,,,,,,,,,,,,,,,0.26171875,-0.282552083,1,0,0,,,,,,,GREASE,HB,z,y,./images/GREASEHB.png,,,,,,,,,,,,,,,,,,,,,0,0.26171875,-0.282552083,1,0,0,0.878,button_right_test,0,34,34,99,1
,,,,,,,,,,,,,,,,,60f2a2b4932fed5326988e0f,29,2022-02-12_18h02.16.358,lexical_decision_task_DD_L5,2021.2.3,iPad,58.82352941,,,,,,,,,,1.153,1,,,,,,,,,,,,,,,,,,,,,,,0.25390625,-0.27734375,1,0,0,,,,,,,MAMMAL,C,m,y,./images/MAMMAL.png,,,,,,,,,,,,,,,,,,,,,0,0.25390625,-0.27734375,1,0,0,1.153,button_right_test,0,35,35,62,1
,,,,,,,,,,,,,,,,,60f2a2b4932fed5326988e0f,29,2022-02-12_18h02.16.358,lexical_decision_task_DD_L5,2021.2.3,iPad,58.82352941,,,,,,,,,,0.871,1,,,,,,,,,,,,,,,,,,,,,,,0.260416667,-0.278645833,1,0,0,,,,,,,POKER,LB,m,y,./images/POKERLB.png,,,,,,,,,,,,,,,,,,,,,0,0.260416667,-0.278645833,1,0,0,0.871,button_right_test,0,36,36,67,1
,,,,,,,,,,,,,,,,,60f2a2b4932fed5326988e0f,29,2022-02-12_18h02.16.358,lexical_decision_task_DD_L5,2021.2.3,iPad,58.82352941,,,,,,,,,,2.368,1,,,,,,,,,,,,,,,,,,,,,,,0.30078125,-0.25390625,1,0,0,,,,,,,FENCE,C,m,y,./images/FENCE.png,,,,,,,,,,,,,,,,,,,,,0,0.30078125,-0.25390625,1,0,0,2.368,button_right_test,0,37,37,14,1
,,,,,,,,,,,,,,,,,60f2a2b4932fed5326988e0f,29,2022-02-12_18h02.16.358,lexical_decision_task_DD_L5,2021.2.3,iPad,58.82352941,,,,,,,,,,2.536,1,,,,,,,,,,,,,,,,,,,,,,,-0.33203125,-0.296875,1,0,0,,,,,,,PICKLE,C,z,y,./images/PICKLE.png,,,,,,,,,,,,,,,,,,,,,0,-0.33203125,-0.296875,1,0,0,2.536,button_left_test,0,38,38,98,1
,,,,,,,,,,,,,,,,,60f2a2b4932fed5326988e0f,29,2022-02-12_18h02.16.358,lexical_decision_task_DD_L5,2021.2.3,iPad,58.82352941,,,,,,,,,,1.002,1,,,,,,,,,,,,,,,,,,,,,,,0.26171875,-0.256510417,1,0,0,,,,,,,WHEEL,C,m,y,./images/WHEEL.png,,,,,,,,,,,,,,,,,,,,,0,0.26171875,-0.256510417,1,0,0,1.002,button_right_test,0,39,39,77,1
,,,,,,,,,,,,,,,,,60f2a2b4932fed5326988e0f,29,2022-02-12_18h02.16.358,lexical_decision_task_DD_L5,2021.2.3,iPad,58.82352941,,,,,,,,,,0.811,1,,,,,,,,,,,,,,,,,,,,,,,0.26953125,-0.252604167,1,0,0,,,,,,,STATUE,HB,m,y,./images/STATUEHB.png,,,,,,,,,,,,,,,,,,,,,0,0.26953125,-0.252604167,1,0,0,0.811,button_right_test,0,40,40,66,1
,,,,,,,,,,,,,,,,,60f2a2b4932fed5326988e0f,29,2022-02-12_18h02.16.358,lexical_decision_task_DD_L5,2021.2.3,iPad,58.82352941,,,,,,,,,,1.063,1,,,,,,,,,,,,,,,,,,,,,,,0.0546875,-0.391927083,1,0,0,,,,,,,MUSCLE,LB,z,y,./images/MUSCLELB.png,break_done_button,,,,,,,,,,,,,,,,,,,,0,-0.3359375,-0.322916667,1,0,0,1.063,button_left_test,0,41,41,88,1
,,,,,,,,,,,,,,,,,60f2a2b4932fed5326988e0f,29,2022-02-12_18h02.16.358,lexical_decision_task_DD_L5,2021.2.3,iPad,58.82352941,,,,,,,,,,1.961,1,,,,,,,,,,,,,,,,,,,,,,,0.239583333,-0.317708333,1,0,0,,,,,,,CLOWN,LB,m,y,./images/CLOWNLB.png,,,,,,,,,,,,,,,,,,,,,0,0.239583333,-0.317708333,1,0,0,1.961,button_right_test,0,42,42,22,1
,,,,,,,,,,,,,,,,,60f2a2b4932fed5326988e0f,29,2022-02-12_18h02.16.358,lexical_decision_task_DD_L5,2021.2.3,iPad,58.82352941,,,,,,,,,,3.785,1,,,,,,,,,,,,,,,,,,,,,,,-0.3203125,-0.2890625,1,0,0,,,,,,,SNACK,LB,z,y,./images/SNACKLB.png,,,,,,,,,,,,,,,,,,,,,0,-0.3203125,-0.2890625,1,0,0,3.785,button_left_test,0,43,43,157,1
,,,,,,,,,,,,,,,,,60f2a2b4932fed5326988e0f,29,2022-02-12_18h02.16.358,lexical_decision_task_DD_L5,2021.2.3,iPad,58.82352941,,,,,,,,,,0.87,0,,,,,,,,,,,,,,,,,,,,,,,0.287760417,-0.264322917,1,0,0,,,,,,,SQUARE,HB,z,y,./images/SQUAREHB.png,,,,,,,,,,,,,,,,,,,,,0,0.287760417,-0.264322917,1,0,0,0.87,button_right_test,0,44,44,90,1
,,,,,,,,,,,,,,,,,60f2a2b4932fed5326988e0f,29,2022-02-12_18h02.16.358,lexical_decision_task_DD_L5,2021.2.3,iPad,58.82352941,,,,,,,,,,1.104,0,,,,,,,,,,,,,,,,,,,,,,,0.309895833,-0.270833333,1,0,0,,,,,,,SHELF,HB,z,y,./images/SHELFHB.png,,,,,,,,,,,,,,,,,,,,,0,0.309895833,-0.270833333,1,0,0,1.104,button_right_test,0,45,45,123,1
,,,,,,,,,,,,,,,,,60f2a2b4932fed5326988e0f,29,2022-02-12_18h02.16.358,lexical_decision_task_DD_L5,2021.2.3,iPad,58.82352941,,,,,,,,,,0.837,1,,,,,,,,,,,,,,,,,,,,,,,0.2734375,-0.25390625,1,0,0,,,,,,,GRANNY,C,m,y,./images/GRANNY.png,,,,,,,,,,,,,,,,,,,,,0,0.2734375,-0.25390625,1,0,0,0.837,button_right_test,0,46,46,20,1
,,,,,,,,,,,,,,,,,60f2a2b4932fed5326988e0f,29,2022-02-12_18h02.16.358,lexical_decision_task_DD_L5,2021.2.3,iPad,58.82352941,,,,,,,,,,0.93,1,,,,,,,,,,,,,,,,,,,,,,,-0.278645833,-0.266927083,1,0,0,,,,,,,PENCE,LB,z,y,./images/PENCELB.png,,,,,,,,,,,,,,,,,,,,,0,-0.278645833,-0.266927083,1,0,0,0.93,button_left_test,0,47,47,100,1
,,,,,,,,,,,,,,,,,60f2a2b4932fed5326988e0f,29,2022-02-12_18h02.16.358,lexical_decision_task_DD_L5,2021.2.3,iPad,58.82352941,,,,,,,,,,0.896,1,,,,,,,,,,,,,,,,,,,,,,,-0.2734375,-0.251302083,1,0,0,,,,,,,JAGUAR,HB,z,y,./images/JAGUARHB.png,,,,,,,,,,,,,,,,,,,,,0,-0.2734375,-0.251302083,1,0,0,0.896,button_left_test,0,48,48,102,1
,,,,,,,,,,,,,,,,,60f2a2b4932fed5326988e0f,29,2022-02-12_18h02.16.358,lexical_decision_task_DD_L5,2021.2.3,iPad,58.82352941,,,,,,,,,,0.97,1,,,,,,,,,,,,,,,,,,,,,,,-0.291666667,-0.251302083,1,0,0,,,,,,,CRADLE,C,z,y,./images/CRADLE.png,,,,,,,,,,,,,,,,,,,,,0,-0.291666667,-0.251302083,1,0,0,0.97,button_left_test,0,49,49,104,1
,,,,,,,,,,,,,,,,,60f2a2b4932fed5326988e0f,29,2022-02-12_18h02.16.358,lexical_decision_task_DD_L5,2021.2.3,iPad,58.82352941,,,,,,,,,,0.98,1,,,,,,,,,,,,,,,,,,,,,,,0.259114583,-0.265625,1,0,0,,,,,,,LAGOON,C,m,y,./images/LAGOON.png,,,,,,,,,,,,,,,,,,,,,0,0.259114583,-0.265625,1,0,0,0.98,button_right_test,0,50,50,47,1
,,,,,,,,,,,,,,,,,60f2a2b4932fed5326988e0f,29,2022-02-12_18h02.16.358,lexical_decision_task_DD_L5,2021.2.3,iPad,58.82352941,,,,,,,,,,0.946,1,,,,,,,,,,,,,,,,,,,,,,,-0.286458333,-0.294270833,1,0,0,,,,,,,DOUGH,LB,z,y,./images/DOUGHLB.png,,,,,,,,,,,,,,,,,,,,,0,-0.286458333,-0.294270833,1,0,0,0.946,button_left_test,0,51,51,103,1
,,,,,,,,,,,,,,,,,60f2a2b4932fed5326988e0f,29,2022-02-12_18h02.16.358,lexical_decision_task_DD_L5,2021.2.3,iPad,58.82352941,,,,,,,,,,1.279,1,,,,,,,,,,,,,,,,,,,,,,,-0.291666667,-0.270833333,1,0,0,,,,,,,CRUST,LB,z,y,./images/CRUSTLB.png,,,,,,,,,,,,,,,,,,,,,0,-0.291666667,-0.270833333,1,0,0,1.279,button_left_test,0,52,52,163,1
,,,,,,,,,,,,,,,,,60f2a2b4932fed5326988e0f,29,2022-02-12_18h02.16.358,lexical_decision_task_DD_L5,2021.2.3,iPad,58.82352941,,,,,,,,,,1.529,1,,,,,,,,,,,,,,,,,,,,,,,0.272135417,-0.302083333,1,0,0,,,,,,,JUMPER,C,m,y,./images/JUMPER.png,,,,,,,,,,,,,,,,,,,,,0,0.272135417,-0.302083333,1,0,0,1.529,button_right_test,0,53,53,74,1
,,,,,,,,,,,,,,,,,60f2a2b4932fed5326988e0f,29,2022-02-12_18h02.16.358,lexical_decision_task_DD_L5,2021.2.3,iPad,58.82352941,,,,,,,,,,2.321,1,,,,,,,,,,,,,,,,,,,,,,,0.291666667,-0.282552083,1,0,0,,,,,,,CASINO,LB,m,y,./images/CASINOLB.png,,,,,,,,,,,,,,,,,,,,,0,0.291666667,-0.282552083,1,0,0,2.321,button_right_test,0,54,54,28,1
,,,,,,,,,,,,,,,,,60f2a2b4932fed5326988e0f,29,2022-02-12_18h02.16.358,lexical_decision_task_DD_L5,2021.2.3,iPad,58.82352941,,,,,,,,,,1.562,0,,,,,,,,,,,,,,,,,,,,,,,0.330729167,-0.302083333,1,0,0,,,,,,,SUNSET,LB,z,y,./images/SUNSETLB.png,,,,,,,,,,,,,,,,,,,,,0,0.330729167,-0.302083333,1,0,0,1.562,button_right_test,0,55,55,166,1
,,,,,,,,,,,,,,,,,60f2a2b4932fed5326988e0f,29,2022-02-12_18h02.16.358,lexical_decision_task_DD_L5,2021.2.3,iPad,58.82352941,,,,,,,,,,1.761,1,,,,,,,,,,,,,,,,,,,,,,,-0.326822917,-0.3046875,1,0,0,,,,,,,INFANT,LB,z,y,./images/INFANTLB.png,,,,,,,,,,,,,,,,,,,,,0,-0.326822917,-0.3046875,1,0,0,1.761,button_left_test,0,56,56,160,1
,,,,,,,,,,,,,,,,,60f2a2b4932fed5326988e0f,29,2022-02-12_18h02.16.358,lexical_decision_task_DD_L5,2021.2.3,iPad,58.82352941,,,,,,,,,,1.138,1,,,,,,,,,,,,,,,,,,,,,,,0.268229167,-0.283854167,1,0,0,,,,,,,SPINE,C,m,y,./images/SPINE.png,,,,,,,,,,,,,,,,,,,,,0,0.268229167,-0.283854167,1,0,0,1.138,button_right_test,0,57,57,65,1
,,,,,,,,,,,,,,,,,60f2a2b4932fed5326988e0f,29,2022-02-12_18h02.16.358,lexical_decision_task_DD_L5,2021.2.3,iPad,58.82352941,,,,,,,,,,1.954,0,,,,,,,,,,,,,,,,,,,,,,,-0.311197917,-0.3046875,1,0,0,,,,,,,SNAKE,LB,m,y,./images/SNAKELB.png,,,,,,,,,,,,,,,,,,,,,0,-0.311197917,-0.3046875,1,0,0,1.954,button_left_test,0,58,58,40,1
,,,,,,,,,,,,,,,,,60f2a2b4932fed5326988e0f,29,2022-02-12_18h02.16.358,lexical_decision_task_DD_L5,2021.2.3,iPad,58.82352941,,,,,,,,,,0.976,1,,,,,,,,,,,,,,,,,,,,,,,-0.311197917,-0.286458333,1,0,0,,,,,,,PAINT,LB,z,y,./images/PAINTLB.png,,,,,,,,,,,,,,,,,,,,,0,-0.311197917,-0.286458333,1,0,0,0.976,button_left_test,0,59,59,91,1
,,,,,,,,,,,,,,,,,60f2a2b4932fed5326988e0f,29,2022-02-12_18h02.16.358,lexical_decision_task_DD_L5,2021.2.3,iPad,58.82352941,,,,,,,,,,1.395,1,,,,,,,,,,,,,,,,,,,,,,,0.291666667,-0.319010417,1,0,0,,,,,,,DRILL,HB,m,y,./images/DRILLHB.png,,,,,,,,,,,,,,,,,,,,,0,0.291666667,-0.319010417,1,0,0,1.395,button_right_test,0,60,60,81,1
,,,,,,,,,,,,,,,,,60f2a2b4932fed5326988e0f,29,2022-02-12_18h02.16.358,lexical_decision_task_DD_L5,2021.2.3,iPad,58.82352941,,,,,,,,,,1.046,1,,,,,,,,,,,,,,,,,,,,,,,0.299479167,-0.317708333,1,0,0,,,,,,,WALNUT,HB,m,y,./images/WALNUTHB.png,,,,,,,,,,,,,,,,,,,,,0,0.299479167,-0.317708333,1,0,0,1.046,button_right_test,0,61,61,0,1
,,,,,,,,,,,,,,,,,60f2a2b4932fed5326988e0f,29,2022-02-12_18h02.16.358,lexical_decision_task_DD_L5,2021.2.3,iPad,58.82352941,,,,,,,,,,0.947,1,,,,,,,,,,,,,,,,,,,,,,,-0.303385417,-0.266927083,1,0,0,,,,,,,JELLY,LB,z,y,./images/JELLYLB.png,,,,,,,,,,,,,,,,,,,,,0,-0.303385417,-0.266927083,1,0,0,0.947,button_left_test,0,62,62,148,1
,,,,,,,,,,,,,,,,,60f2a2b4932fed5326988e0f,29,2022-02-12_18h02.16.358,lexical_decision_task_DD_L5,2021.2.3,iPad,58.82352941,,,,,,,,,,0.85,0,,,,,,,,,,,,,,,,,,,,,,,-0.283854167,-0.28125,1,0,0,,,,,,,PARCEL,HB,m,y,./images/PARCELHB.png,,,,,,,,,,,,,,,,,,,,,0,-0.283854167,-0.28125,1,0,0,0.85,button_left_test,0,63,63,18,1
,,,,,,,,,,,,,,,,,60f2a2b4932fed5326988e0f,29,2022-02-12_18h02.16.358,lexical_decision_task_DD_L5,2021.2.3,iPad,58.82352941,,,,,,,,,,0.904,1,,,,,,,,,,,,,,,,,,,,,,,0.295572917,-0.298177083,1,0,0,,,,,,,BROOM,HB,m,y,./images/BROOMHB.png,,,,,,,,,,,,,,,,,,,,,0,0.295572917,-0.298177083,1,0,0,0.904,button_right_test,0,64,64,78,1
,,,,,,,,,,,,,,,,,60f2a2b4932fed5326988e0f,29,2022-02-12_18h02.16.358,lexical_decision_task_DD_L5,2021.2.3,iPad,58.82352941,,,,,,,,,,1.021,1,,,,,,,,,,,,,,,,,,,,,,,0.270833333,-0.2734375,1,0,0,,,,,,,BRIDE,LB,m,y,./images/BRIDELB.png,,,,,,,,,,,,,,,,,,,,,0,0.270833333,-0.2734375,1,0,0,1.021,button_right_test,0,65,65,64,1
,,,,,,,,,,,,,,,,,60f2a2b4932fed5326988e0f,29,2022-02-12_18h02.16.358,lexical_decision_task_DD_L5,2021.2.3,iPad,58.82352941,,,,,,,,,,1.168,1,,,,,,,,,,,,,,,,,,,,,,,-0.295572917,-0.279947917,1,0,0,,,,,,,SWING,LB,z,y,./images/SWINGLB.png,,,,,,,,,,,,,,,,,,,,,0,-0.295572917,-0.279947917,1,0,0,1.168,button_left_test,0,66,66,124,1
,,,,,,,,,,,,,,,,,60f2a2b4932fed5326988e0f,29,2022-02-12_18h02.16.358,lexical_decision_task_DD_L5,2021.2.3,iPad,58.82352941,,,,,,,,,,1.194,1,,,,,,,,,,,,,,,,,,,,,,,-0.3046875,-0.279947917,1,0,0,,,,,,,KIDNEY,HB,z,y,./images/KIDNEYHB.png,,,,,,,,,,,,,,,,,,,,,0,-0.3046875,-0.279947917,1,0,0,1.194,button_left_test,0,67,67,105,1
,,,,,,,,,,,,,,,,,60f2a2b4932fed5326988e0f,29,2022-02-12_18h02.16.358,lexical_decision_task_DD_L5,2021.2.3,iPad,58.82352941,,,,,,,,,,1.079,1,,,,,,,,,,,,,,,,,,,,,,,0.307291667,-0.29296875,1,0,0,,,,,,,CURRY,HB,m,y,./images/CURRYHB.png,,,,,,,,,,,,,,,,,,,,,0,0.307291667,-0.29296875,1,0,0,1.079,button_right_test,0,68,68,60,1
,,,,,,,,,,,,,,,,,60f2a2b4932fed5326988e0f,29,2022-02-12_18h02.16.358,lexical_decision_task_DD_L5,2021.2.3,iPad,58.82352941,,,,,,,,,,4.612,0,,,,,,,,,,,,,,,,,,,,,,,0.315104167,-0.30078125,1,0,0,,,,,,,SHORE,HB,z,y,./images/SHOREHB.png,,,,,,,,,,,,,,,,,,,,,0,0.315104167,-0.30078125,1,0,0,4.612,button_right_test,0,69,69,96,1
,,,,,,,,,,,,,,,,,60f2a2b4932fed5326988e0f,29,2022-02-12_18h02.16.358,lexical_decision_task_DD_L5,2021.2.3,iPad,58.82352941,,,,,,,,,,1.08,0,,,,,,,,,,,,,,,,,,,,,,,-0.279947917,-0.305989583,1,0,0,,,,,,,SAUCE,HB,m,y,./images/SAUCEHB.png,,,,,,,,,,,,,,,,,,,,,0,-0.279947917,-0.305989583,1,0,0,1.08,button_left_test,0,70,70,51,1
,,,,,,,,,,,,,,,,,60f2a2b4932fed5326988e0f,29,2022-02-12_18h02.16.358,lexical_decision_task_DD_L5,2021.2.3,iPad,58.82352941,,,,,,,,,,1.036,1,,,,,,,,,,,,,,,,,,,,,,,0.3046875,-0.298177083,1,0,0,,,,,,,BOXER,LB,m,y,./images/BOXERLB.png,,,,,,,,,,,,,,,,,,,,,0,0.3046875,-0.298177083,1,0,0,1.036,button_right_test,0,71,71,4,1
,,,,,,,,,,,,,,,,,60f2a2b4932fed5326988e0f,29,2022-02-12_18h02.16.358,lexical_decision_task_DD_L5,2021.2.3,iPad,58.82352941,,,,,,,,,,0.887,0,,,,,,,,,,,,,,,,,,,,,,,-0.302083333,-0.328125,1,0,0,,,,,,,ALLEY,LB,m,y,./images/ALLEYLB.png,,,,,,,,,,,,,,,,,,,,,0,-0.302083333,-0.328125,1,0,0,0.887,button_left_test,0,72,72,55,1
,,,,,,,,,,,,,,,,,60f2a2b4932fed5326988e0f,29,2022-02-12_18h02.16.358,lexical_decision_task_DD_L5,2021.2.3,iPad,58.82352941,,,,,,,,,,1.12,1,,,,,,,,,,,,,,,,,,,,,,,-0.330729167,-0.322916667,1,0,0,,,,,,,MOOSE,HB,z,y,./images/MOOSEHB.png,,,,,,,,,,,,,,,,,,,,,0,-0.330729167,-0.322916667,1,0,0,1.12,button_left_test,0,73,73,141,1
,,,,,,,,,,,,,,,,,60f2a2b4932fed5326988e0f,29,2022-02-12_18h02.16.358,lexical_decision_task_DD_L5,2021.2.3,iPad,58.82352941,,,,,,,,,,1.096,1,,,,,,,,,,,,,,,,,,,,,,,0.282552083,-0.268229167,1,0,0,,,,,,,VALLEY,C,m,y,./images/VALLEY.png,,,,,,,,,,,,,,,,,,,,,0,0.282552083,-0.268229167,1,0,0,1.096,button_right_test,0,74,74,68,1
,,,,,,,,,,,,,,,,,60f2a2b4932fed5326988e0f,29,2022-02-12_18h02.16.358,lexical_decision_task_DD_L5,2021.2.3,iPad,58.82352941,,,,,,,,,,1.012,1,,,,,,,,,,,,,,,,,,,,,,,0.29296875,-0.279947917,1,0,0,,,,,,,SHIELD,HB,m,y,./images/SHIELDHB.png,,,,,,,,,,,,,,,,,,,,,0,0.29296875,-0.279947917,1,0,0,1.012,button_right_test,0,75,75,48,1
,,,,,,,,,,,,,,,,,60f2a2b4932fed5326988e0f,29,2022-02-12_18h02.16.358,lexical_decision_task_DD_L5,2021.2.3,iPad,58.82352941,,,,,,,,,,0.921,1,,,,,,,,,,,,,,,,,,,,,,,-0.321614583,-0.30078125,1,0,0,,,,,,,BEARD,C,z,y,./images/BEARD.png,,,,,,,,,,,,,,,,,,,,,0,-0.321614583,-0.30078125,1,0,0,0.921,button_left_test,0,76,76,86,1
,,,,,,,,,,,,,,,,,60f2a2b4932fed5326988e0f,29,2022-02-12_18h02.16.358,lexical_decision_task_DD_L5,2021.2.3,iPad,58.82352941,,,,,,,,,,0.817,0,,,,,,,,,,,,,,,,,,,,,,,0.303385417,-0.315104167,1,0,0,,,,,,,CANDLE,LB,z,y,./images/CANDLELB.png,,,,,,,,,,,,,,,,,,,,,0,0.303385417,-0.315104167,1,0,0,0.817,button_right_test,0,77,77,145,1
,,,,,,,,,,,,,,,,,60f2a2b4932fed5326988e0f,29,2022-02-12_18h02.16.358,lexical_decision_task_DD_L5,2021.2.3,iPad,58.82352941,,,,,,,,,,1.306,0,,,,,,,,,,,,,,,,,,,,,,,-0.3515625,-0.298177083,1,0,0,,,,,,,STREAM,C,m,y,./images/STREAM.png,,,,,,,,,,,,,,,,,,,,,0,-0.3515625,-0.298177083,1,0,0,1.306,button_left_test,0,78,78,41,1
,,,,,,,,,,,,,,,,,60f2a2b4932fed5326988e0f,29,2022-02-12_18h02.16.358,lexical_decision_task_DD_L5,2021.2.3,iPad,58.82352941,,,,,,,,,,1.083,0,,,,,,,,,,,,,,,,,,,,,,,-0.302083333,-0.279947917,1,0,0,,,,,,,PARADE,C,m,y,./images/PARADE.png,,,,,,,,,,,,,,,,,,,,,0,-0.302083333,-0.279947917,1,0,0,1.083,button_left_test,0,79,79,17,1
,,,,,,,,,,,,,,,,,60f2a2b4932fed5326988e0f,29,2022-02-12_18h02.16.358,lexical_decision_task_DD_L5,2021.2.3,iPad,58.82352941,,,,,,,,,,0.896,1,,,,,,,,,,,,,,,,,,,,,,,0.274739583,-0.325520833,1,0,0,,,,,,,BASKET,C,m,y,./images/BASKET.png,,,,,,,,,,,,,,,,,,,,,0,0.274739583,-0.325520833,1,0,0,0.896,button_right_test,0,80,80,44,1
,,,,,,,,,,,,,,,,,60f2a2b4932fed5326988e0f,29,2022-02-12_18h02.16.358,lexical_decision_task_DD_L5,2021.2.3,iPad,58.82352941,,,,,,,,,,1.162,1,,,,,,,,,,,,,,,,,,,,,,,0.315104167,-0.296875,1,0,0,,,,,,,MUMMY,LB,m,y,./images/MUMMYLB.png,,,,,,,,,,,,,,,,,,,,,0,0.315104167,-0.296875,1,0,0,1.162,button_right_test,0,81,81,46,1
,,,,,,,,,,,,,,,,,60f2a2b4932fed5326988e0f,29,2022-02-12_18h02.16.358,lexical_decision_task_DD_L5,2021.2.3,iPad,58.82352941,,,,,,,,,,1.171,0,,,,,,,,,,,,,,,,,,,,,,,-0.303385417,-0.259114583,1,0,0,,,,,,,DESERT,LB,m,y,./images/DESERTLB.png,,,,,,,,,,,,,,,,,,,,,0,-0.303385417,-0.259114583,1,0,0,1.171,button_left_test,0,82,82,52,1
,,,,,,,,,,,,,,,,,60f2a2b4932fed5326988e0f,29,2022-02-12_18h02.16.358,lexical_decision_task_DD_L5,2021.2.3,iPad,58.82352941,,,,,,,,,,1.688,1,,,,,,,,,,,,,,,,,,,,,,,0.020833333,-0.411458333,1,0,0,,,,,,,BANANA,LB,m,y,./images/BANANALB.png,break_done_button,,,,,,,,,,,,,,,,,,,,0,0.27734375,-0.28125,1,0,0,1.688,button_right_test,0,83,83,70,1
,,,,,,,,,,,,,,,,,60f2a2b4932fed5326988e0f,29,2022-02-12_18h02.16.358,lexical_decision_task_DD_L5,2021.2.3,iPad,58.82352941,,,,,,,,,,2.966,1,,,,,,,,,,,,,,,,,,,,,,,-0.319010417,-0.322916667,1,0,0,,,,,,,BERRY,C,z,y,./images/BERRY.png,,,,,,,,,,,,,,,,,,,,,0,-0.319010417,-0.322916667,1,0,0,2.966,button_left_test,0,84,84,131,1
,,,,,,,,,,,,,,,,,60f2a2b4932fed5326988e0f,29,2022-02-12_18h02.16.358,lexical_decision_task_DD_L5,2021.2.3,iPad,58.82352941,,,,,,,,,,1.672,0,,,,,,,,,,,,,,,,,,,,,,,0.321614583,-0.27734375,1,0,0,,,,,,,FALCON,LB,z,y,./images/FALCONLB.png,,,,,,,,,,,,,,,,,,,,,0,0.321614583,-0.27734375,1,0,0,1.672,button_right_test,0,85,85,112,1
,,,,,,,,,,,,,,,,,60f2a2b4932fed5326988e0f,29,2022-02-12_18h02.16.358,lexical_decision_task_DD_L5,2021.2.3,iPad,58.82352941,,,,,,,,,,0.9,1,,,,,,,,,,,,,,,,,,,,,,,-0.256510417,-0.265625,1,0,0,,,,,,,SPORT,HB,z,y,./images/SPORTHB.png,,,,,,,,,,,,,,,,,,,,,0,-0.256510417,-0.265625,1,0,0,0.9,button_left_test,0,86,86,132,1
,,,,,,,,,,,,,,,,,60f2a2b4932fed5326988e0f,29,2022-02-12_18h02.16.358,lexical_decision_task_DD_L5,2021.2.3,iPad,58.82352941,,,,,,,,,,0.686,1,,,,,,,,,,,,,,,,,,,,,,,-0.270833333,-0.276041667,1,0,0,,,,,,,GRAIN,HB,z,y,./images/GRAINHB.png,,,,,,,,,,,,,,,,,,,,,0,-0.270833333,-0.276041667,1,0,0,0.686,button_left_test,0,87,87,159,1
,,,,,,,,,,,,,,,,,60f2a2b4932fed5326988e0f,29,2022-02-12_18h02.16.358,lexical_decision_task_DD_L5,2021.2.3,iPad,58.82352941,,,,,,,,,,2.955,1,,,,,,,,,,,,,,,,,,,,,,,-0.260416667,-0.27734375,1,0,0,,,,,,,THROAT,HB,z,y,./images/THROATHB.png,,,,,,,,,,,,,,,,,,,,,0,-0.260416667,-0.27734375,1,0,0,2.955,button_left_test,0,88,88,120,1
,,,,,,,,,,,,,,,,,60f2a2b4932fed5326988e0f,29,2022-02-12_18h02.16.358,lexical_decision_task_DD_L5,2021.2.3,iPad,58.82352941,,,,,,,,,,0.779,0,,,,,,,,,,,,,,,,,,,,,,,-0.26171875,-0.274739583,1,0,0,,,,,,,GLOVE,LB,m,y,./images/GLOVELB.png,,,,,,,,,,,,,,,,,,,,,0,-0.26171875,-0.274739583,1,0,0,0.779,button_left_test,0,89,89,73,1
,,,,,,,,,,,,,,,,,60f2a2b4932fed5326988e0f,29,2022-02-12_18h02.16.358,lexical_decision_task_DD_L5,2021.2.3,iPad,58.82352941,,,,,,,,,,0.966,1,,,,,,,,,,,,,,,,,,,,,,,0.256510417,-0.234375,1,0,0,,,,,,,BAKER,HB,m,y,./images/BAKERHB.png,,,,,,,,,,,,,,,,,,,,,0,0.256510417,-0.234375,1,0,0,0.966,button_right_test,0,90,90,63,1
,,,,,,,,,,,,,,,,,60f2a2b4932fed5326988e0f,29,2022-02-12_18h02.16.358,lexical_decision_task_DD_L5,2021.2.3,iPad,58.82352941,,,,,,,,,,0.834,0,,,,,,,,,,,,,,,,,,,,,,,-0.303385417,-0.27734375,1,0,0,,,,,,,HEATER,C,m,y,./images/HEATER.png,,,,,,,,,,,,,,,,,,,,,0,-0.303385417,-0.27734375,1,0,0,0.834,button_left_test,0,91,91,56,1
,,,,,,,,,,,,,,,,,60f2a2b4932fed5326988e0f,29,2022-02-12_18h02.16.358,lexical_decision_task_DD_L5,2021.2.3,iPad,58.82352941,,,,,,,,,,0.828,1,,,,,,,,,,,,,,,,,,,,,,,0.311197917,-0.282552083,1,0,0,,,,,,,RULER,LB,m,y,./images/RULERLB.png,,,,,,,,,,,,,,,,,,,,,0,0.311197917,-0.282552083,1,0,0,0.828,button_right_test,0,92,92,79,1
,,,,,,,,,,,,,,,,,60f2a2b4932fed5326988e0f,29,2022-02-12_18h02.16.358,lexical_decision_task_DD_L5,2021.2.3,iPad,58.82352941,,,,,,,,,,0.863,1,,,,,,,,,,,,,,,,,,,,,,,0.305989583,-0.264322917,1,0,0,,,,,,,GRAPE,LB,m,y,./images/GRAPELB.png,,,,,,,,,,,,,,,,,,,,,0,0.305989583,-0.264322917,1,0,0,0.863,button_right_test,0,93,93,16,1
,,,,,,,,,,,,,,,,,60f2a2b4932fed5326988e0f,29,2022-02-12_18h02.16.358,lexical_decision_task_DD_L5,2021.2.3,iPad,58.82352941,,,,,,,,,,0.764,1,,,,,,,,,,,,,,,,,,,,,,,-0.3125,-0.26953125,1,0,0,,,,,,,LITTER,HB,z,y,./images/LITTERHB.png,,,,,,,,,,,,,,,,,,,,,0,-0.3125,-0.26953125,1,0,0,0.764,button_left_test,0,94,94,162,1
,,,,,,,,,,,,,,,,,60f2a2b4932fed5326988e0f,29,2022-02-12_18h02.16.358,lexical_decision_task_DD_L5,2021.2.3,iPad,58.82352941,,,,,,,,,,0.854,1,,,,,,,,,,,,,,,,,,,,,,,0.272135417,-0.263020833,1,0,0,,,,,,,ARROW,HB,m,y,./images/ARROWHB.png,,,,,,,,,,,,,,,,,,,,,0,0.272135417,-0.263020833,1,0,0,0.854,button_right_test,0,95,95,69,1
,,,,,,,,,,,,,,,,,60f2a2b4932fed5326988e0f,29,2022-02-12_18h02.16.358,lexical_decision_task_DD_L5,2021.2.3,iPad,58.82352941,,,,,,,,,,0.702,1,,,,,,,,,,,,,,,,,,,,,,,-0.30078125,-0.279947917,1,0,0,,,,,,,TULIP,C,z,y,./images/TULIP.png,,,,,,,,,,,,,,,,,,,,,0,-0.30078125,-0.279947917,1,0,0,0.702,button_left_test,0,96,96,92,1
,,,,,,,,,,,,,,,,,60f2a2b4932fed5326988e0f,29,2022-02-12_18h02.16.358,lexical_decision_task_DD_L5,2021.2.3,iPad,58.82352941,,,,,,,,,,1.436,0,,,,,,,,,,,,,,,,,,,,,,,-0.34375,-0.272135417,1,0,0,,,,,,,POSTER,C,m,y,./images/POSTER.png,,,,,,,,,,,,,,,,,,,,,0,-0.34375,-0.272135417,1,0,0,1.436,button_left_test,0,97,97,53,1
,,,,,,,,,,,,,,,,,60f2a2b4932fed5326988e0f,29,2022-02-12_18h02.16.358,lexical_decision_task_DD_L5,2021.2.3,iPad,58.82352941,,,,,,,,,,0.705,1,,,,,,,,,,,,,,,,,,,,,,,-0.34375,-0.282552083,1,0,0,,,,,,,MOSQUE,LB,z,y,./images/MOSQUELB.png,,,,,,,,,,,,,,,,,,,,,0,-0.34375,-0.282552083,1,0,0,0.705,button_left_test,0,98,98,127,1
,,,,,,,,,,,,,,,,,60f2a2b4932fed5326988e0f,29,2022-02-12_18h02.16.358,lexical_decision_task_DD_L5,2021.2.3,iPad,58.82352941,,,,,,,,,,0.929,1,,,,,,,,,,,,,,,,,,,,,,,-0.290364583,-0.299479167,1,0,0,,,,,,,KITTEN,HB,z,y,./images/KITTENHB.png,,,,,,,,,,,,,,,,,,,,,0,-0.290364583,-0.299479167,1,0,0,0.929,button_left_test,0,99,99,129,1
