key_resp.keys,instr_done_touch.x,instr_done_touch.y,instr_done_touch.leftButton,instr_done_touch.midButton,instr_done_touch.rightButton,instr_done_touch.clicked_name,instruction_pages.thisRepN,instruction_pages.thisTrialN,instruction_pages.thisN,instruction_pages.thisIndex,instruction_pages.ran,pageN,phase,instruct_text,has_image,instruct_image,participant,age,date,expName,psychopyVersion,OS,frameRate,response.keys,response.corr,touch_resp.x,touch_resp.y,touch_resp.leftButton,touch_resp.midButton,touch_resp.rightButton,touch_resp.time,touch_resp.clicked_name,rt,corr,practrials.thisRepN,practrials.thisTrialN,practrials.thisN,practrials.thisIndex,practrials.ran,TrialID,Target,corrAns,end_of_practice_trials_pages.thisRepN,end_of_practice_trials_pages.thisTrialN,end_of_practice_trials_pages.thisN,end_of_practice_trials_pages.thisIndex,end_of_practice_trials_pages.ran,key_resp_2.keys,key_resp_2.corr,targ_click.x,targ_click.y,targ_click.leftButton,targ_click.midButton,targ_click.rightButton,targ_click.time,targ_click.clicked_name,break_done_touch.x,break_done_touch.y,break_done_touch.leftButton,break_done_touch.midButton,break_done_touch.rightButton,break_done_keyboard.keys,maintrials.thisRepN,maintrials.thisTrialN,maintrials.thisN,maintrials.thisIndex,maintrials.ran,string,blur,study,lex,stim_path,break_done_touch.clicked_name,mouse_2.x,mouse_2.y,mouse_2.leftButton,mouse_2.midButton,mouse_2.rightButton,mouse_2.clicked_name,slider.response,slider.rt,trials.thisRepN,trials.thisTrialN,trials.thisN,trials.thisIndex,trials.ran,test_instructions.thisRepN,test_instructions.thisTrialN,test_instructions.thisN,test_instructions.thisIndex,test_instructions.ran,key_resp_3.keys,key_resp_3.corr,test_click.x,test_click.y,test_click.leftButton,test_click.midButton,test_click.rightButton,test_click.time,test_click.clicked_name,test_phase.thisRepN,test_phase.thisTrialN,test_phase.thisN,test_phase.thisIndex,test_phase.ran
,-0.025658798,-0.394916725,1,0,0,instr_done_button,0,0,0,0,1,1,instructions,"INSTRUCTIONS
At the start of each trial, look at the plus sign  (+) in the center of the screen.  This tells you that a trial is about to begin and where to look. Second, the plus sign will disappear and a string of letters will appear. Your task is to determine if the string of letters is a word or not. If the item is a word press the M key (on keyboard)  or touch the word button (phone/tablet).  If the item is not a word,  press the  Z key (on keyboard)  or touch the nonword button (on phone/tablet). 
Press the space bar or touch  continue.",0,,60fc5ec12244a6d58297cf6a,53,2022-02-12_16h54.10.766,lexical_decision_task_DD_L5,2021.2.3,Linux armv8l,21.10684284,,,,,,,,,,,,,,,,,,,,,,,,,,,,,,,,,,,,,,,,,,,,,,,,,,,,,,,,,,,,,,,,,,,,,,,,,,,,,,,,,,
,-0.086685133,-0.428226948,1,0,0,instr_done_button,0,1,1,1,1,2,instructions,"If your device has a keyboard, press the 'Z' key for nonwords and the 'M' key for words.





Press the space bar or touch the button below to continue.",0,keyboard-example.gif,60fc5ec12244a6d58297cf6a,53,2022-02-12_16h54.10.766,lexical_decision_task_DD_L5,2021.2.3,Linux armv8l,21.10684284,,,,,,,,,,,,,,,,,,,,,,,,,,,,,,,,,,,,,,,,,,,,,,,,,,,,,,,,,,,,,,,,,,,,,,,,,,,,,,,,,,
,-0.085298204,-0.428226948,1,0,0,instr_done_button,0,2,2,2,1,3,instructions,"If you are using a touchscreen only device, use the buttons on the screen. Do not use the mouse.





Press the space bar or touch the button below to continue.",0,touchscreen-example.gif,60fc5ec12244a6d58297cf6a,53,2022-02-12_16h54.10.766,lexical_decision_task_DD_L5,2021.2.3,Linux armv8l,21.10684284,,,,,,,,,,,,,,,,,,,,,,,,,,,,,,,,,,,,,,,,,,,,,,,,,,,,,,,,,,,,,,,,,,,,,,,,,,,,,,,,,,
,-0.028432703,-0.399080467,1,0,0,instr_done_button,0,3,3,3,1,4,instructions,"It is very important that you respond as quickly and accurately as possible, as each letter string will only be on the screen for two seconds. If you do not respond within this time, the message 'Too slow!' will be displayed and the experiment will progress to the next letter string. The first 20 trials will be practice trials and you will receive feedback on your answers. 

Press the space bar or touch the button below to start the practice trials.",0,,60fc5ec12244a6d58297cf6a,53,2022-02-12_16h54.10.766,lexical_decision_task_DD_L5,2021.2.3,Linux armv8l,21.10684284,,,,,,,,,,,,,,,,,,,,,,,,,,,,,,,,,,,,,,,,,,,,,,,,,,,,,,,,,,,,,,,,,,,,,,,,,,,,,,,,,,
,,,,,,,,,,,,,,,,,60fc5ec12244a6d58297cf6a,53,2022-02-12_16h54.10.766,lexical_decision_task_DD_L5,2021.2.3,Linux armv8l,21.10684284,,0,0.368238544,-0.265839672,1,0,0,2.9916,button_right,2.9916,1,0,0,0,6,1,1001,ZOMBIE,m,,,,,,,,,,,,,,,,,,,,,,,,,,,,,,,,,,,,,,,,,,,,,,,,,,,,,,,,,,,,,,,
,,,,,,,,,,,,,,,,,60fc5ec12244a6d58297cf6a,53,2022-02-12_16h54.10.766,lexical_decision_task_DD_L5,2021.2.3,Linux armv8l,21.10684284,,0,-0.366851592,-0.315804958,1,0,0,1.5412,button_left,1.5412,1,0,1,1,13,1,1001,ROUPET,z,,,,,,,,,,,,,,,,,,,,,,,,,,,,,,,,,,,,,,,,,,,,,,,,,,,,,,,,,,,,,,,
,,,,,,,,,,,,,,,,,60fc5ec12244a6d58297cf6a,53,2022-02-12_16h54.10.766,lexical_decision_task_DD_L5,2021.2.3,Linux armv8l,21.10684284,,0,-0.34188627,-0.307477379,1,0,0,1.2092,button_left,1.2092,1,0,2,2,10,1,1001,INLADE,z,,,,,,,,,,,,,,,,,,,,,,,,,,,,,,,,,,,,,,,,,,,,,,,,,,,,,,,,,,,,,,,
,,,,,,,,,,,,,,,,,60fc5ec12244a6d58297cf6a,53,2022-02-12_16h54.10.766,lexical_decision_task_DD_L5,2021.2.3,Linux armv8l,21.10684284,,0,0.358529854,-0.303313637,1,0,0,1.1651,button_right,1.1651,1,0,3,3,7,1,1001,VOLUME,m,,,,,,,,,,,,,,,,,,,,,,,,,,,,,,,,,,,,,,,,,,,,,,,,,,,,,,,,,,,,,,,
,,,,,,,,,,,,,,,,,60fc5ec12244a6d58297cf6a,53,2022-02-12_16h54.10.766,lexical_decision_task_DD_L5,2021.2.3,Linux armv8l,21.10684284,,0,0.287794733,-0.328296375,1,0,0,1.0843,button_right,1.0843,1,0,4,4,2,1,1001,ALMOND,m,,,,,,,,,,,,,,,,,,,,,,,,,,,,,,,,,,,,,,,,,,,,,,,,,,,,,,,,,,,,,,,
,,,,,,,,,,,,,,,,,60fc5ec12244a6d58297cf6a,53,2022-02-12_16h54.10.766,lexical_decision_task_DD_L5,2021.2.3,Linux armv8l,21.10684284,,0,-0.377947271,-0.297762012,1,0,0,1.3044,button_left,1.3044,1,0,5,5,14,1,1001,THRALE,z,,,,,,,,,,,,,,,,,,,,,,,,,,,,,,,,,,,,,,,,,,,,,,,,,,,,,,,,,,,,,,,
,,,,,,,,,,,,,,,,,60fc5ec12244a6d58297cf6a,53,2022-02-12_16h54.10.766,lexical_decision_task_DD_L5,2021.2.3,Linux armv8l,21.10684284,,0,-0.39042995,-0.275555134,1,0,0,1.3024,button_left,1.3024,1,0,6,6,8,1,1001,ASLERT,z,,,,,,,,,,,,,,,,,,,,,,,,,,,,,,,,,,,,,,,,,,,,,,,,,,,,,,,,,,,,,,,
,,,,,,,,,,,,,,,,,60fc5ec12244a6d58297cf6a,53,2022-02-12_16h54.10.766,lexical_decision_task_DD_L5,2021.2.3,Linux armv8l,21.10684284,,0,-0.326629674,-0.313029194,1,0,0,0.8312,button_left,0.8312,1,0,7,7,15,1,1001,WHAISE,z,,,,,,,,,,,,,,,,,,,,,,,,,,,,,,,,,,,,,,,,,,,,,,,,,,,,,,,,,,,,,,,
,,,,,,,,,,,,,,,,,60fc5ec12244a6d58297cf6a,53,2022-02-12_16h54.10.766,lexical_decision_task_DD_L5,2021.2.3,Linux armv8l,21.10684284,,0,0.32524271,-0.317192936,1,0,0,1.2412,button_right,1.2412,1,0,8,8,0,1,1001,UTOPIA,m,,,,,,,,,,,,,,,,,,,,,,,,,,,,,,,,,,,,,,,,,,,,,,,,,,,,,,,,,,,,,,,
,,,,,,,,,,,,,,,,,60fc5ec12244a6d58297cf6a,53,2022-02-12_16h54.10.766,lexical_decision_task_DD_L5,2021.2.3,Linux armv8l,21.10684284,,0,-0.365464628,-0.282494831,1,0,0,1.1822,button_left,1.1822,1,0,9,9,11,1,1001,RASHET,z,,,,,,,,,,,,,,,,,,,,,,,,,,,,,,,,,,,,,,,,,,,,,,,,,,,,,,,,,,,,,,,
,,,,,,,,,,,,,,,,,60fc5ec12244a6d58297cf6a,53,2022-02-12_16h54.10.766,lexical_decision_task_DD_L5,2021.2.3,Linux armv8l,21.10684284,,0,0.352982044,-0.318580818,1,0,0,1.2726,button_right,1.2726,1,0,10,10,3,1,1001,MATRIX,m,,,,,,,,,,,,,,,,,,,,,,,,,,,,,,,,,,,,,,,,,,,,,,,,,,,,,,,,,,,,,,,
,,,,,,,,,,,,,,,,,60fc5ec12244a6d58297cf6a,53,2022-02-12_16h54.10.766,lexical_decision_task_DD_L5,2021.2.3,Linux armv8l,21.10684284,,0,0.365464592,-0.349115181,1,0,0,1.0851,button_right,1.0851,1,0,11,11,5,1,1001,OBTAIN,m,,,,,,,,,,,,,,,,,,,,,,,,,,,,,,,,,,,,,,,,,,,,,,,,,,,,,,,,,,,,,,,
,,,,,,,,,,,,,,,,,60fc5ec12244a6d58297cf6a,53,2022-02-12_16h54.10.766,lexical_decision_task_DD_L5,2021.2.3,Linux armv8l,21.10684284,,0,0.262829447,-0.33107214,1,0,0,0.9224,button_right,0.9224,1,0,12,12,4,1,1001,SQUEAK,m,,,,,,,,,,,,,,,,,,,,,,,,,,,,,,,,,,,,,,,,,,,,,,,,,,,,,,,,,,,,,,,
,,,,,,,,,,,,,,,,,60fc5ec12244a6d58297cf6a,53,2022-02-12_16h54.10.766,lexical_decision_task_DD_L5,2021.2.3,Linux armv8l,21.10684284,,0,-0.361303747,-0.315804958,1,0,0,1.2098,button_left,1.2098,1,0,13,13,12,1,1001,SPRINY,z,,,,,,,,,,,,,,,,,,,,,,,,,,,,,,,,,,,,,,,,,,,,,,,,,,,,,,,,,,,,,,,
,,,,,,,,,,,,,,,,,60fc5ec12244a6d58297cf6a,53,2022-02-12_16h54.10.766,lexical_decision_task_DD_L5,2021.2.3,Linux armv8l,21.10684284,,0,-0.336338413,-0.353278923,1,0,0,1.1312,button_left,1.1312,1,0,14,14,9,1,1001,FARINY,z,,,,,,,,,,,,,,,,,,,,,,,,,,,,,,,,,,,,,,,,,,,,,,,,,,,,,,,,,,,,,,,
,,,,,,,,,,,,,,,,,60fc5ec12244a6d58297cf6a,53,2022-02-12_16h54.10.766,lexical_decision_task_DD_L5,2021.2.3,Linux armv8l,21.10684284,,0,0.329403591,-0.285270596,1,0,0,1.0224,button_right,1.0224,1,0,15,15,1,1,1001,ADJUST,m,,,,,,,,,,,,,,,,,,,,,,,,,,,,,,,,,,,,,,,,,,,,,,,,,,,,,,,,,,,,,,,
,-0.049237156,-0.378261566,1,0,0,instr_done_button,,,,,,1,end_of_practice,"You have completed the practice trials. During the experimental trials, you will not receive feedback. 
Before you begin, please ensure that you are in a comfortable and quiet location and will not be disturbed for about 15 minutes, as we cannot use your data if you do not complete all the trials. 
 When you are ready to start the experimental trials, please press space or touch the button below.",,,60fc5ec12244a6d58297cf6a,53,2022-02-12_16h54.10.766,lexical_decision_task_DD_L5,2021.2.3,Linux armv8l,21.10684284,,,,,,,,,,,,,,,,,,,,0,0,0,0,1,,,,,,,,,,,,,,,,,,,,,,,,,,,,,,,,,,,,,,,,,,,,,,,,,,,,,,,,,,
,,,,,,,,,,,,,,,,,60fc5ec12244a6d58297cf6a,53,2022-02-12_16h54.10.766,lexical_decision_task_DD_L5,2021.2.3,Linux armv8l,21.10684284,,,,,,,,,,2.1494,1,,,,,,,,,,,,,,,0,0.340499306,-0.329684162,1,0,0,2.1494,button_right_main,0.340499306,-0.329684162,1,0,0,,0,0,0,16,1,GRAPE,LB,old,m,./images/GRAPELB.png,,,,,,,,,,,,,,,,,,,,,,,,,,,,,,,,,
,,,,,,,,,,,,,,,,,60fc5ec12244a6d58297cf6a,53,2022-02-12_16h54.10.766,lexical_decision_task_DD_L5,2021.2.3,Linux armv8l,21.10684284,,,,,,,,,,1.5012,1,,,,,,,,,,,,,,,0,-0.398751736,-0.317192936,1,0,0,1.5012,button_left_main,-0.398751736,-0.317192936,1,0,0,,0,1,1,144,1,NAIRY,C,old,z,./images/NAIRY.png,,,,,,,,,,,,,,,,,,,,,,,,,,,,,,,,,
,,,,,,,,,,,,,,,,,60fc5ec12244a6d58297cf6a,53,2022-02-12_16h54.10.766,lexical_decision_task_DD_L5,2021.2.3,Linux armv8l,21.10684284,,,,,,,,,,1.531,1,,,,,,,,,,,,,,,0,-0.391816926,-0.314416981,1,0,0,1.531,button_left_main,-0.391816926,-0.314416981,1,0,0,,0,2,2,150,1,NOOLS,C,old,z,./images/NOOLS.png,,,,,,,,,,,,,,,,,,,,,,,,,,,,,,,,,
,,,,,,,,,,,,,,,,,60fc5ec12244a6d58297cf6a,53,2022-02-12_16h54.10.766,lexical_decision_task_DD_L5,2021.2.3,Linux armv8l,21.10684284,,,,,,,,,,1.359,1,,,,,,,,,,,,,,,0,0.344660187,-0.279718971,1,0,0,1.359,button_right_main,0.344660187,-0.279718971,1,0,0,,0,3,3,34,1,RAZOR,LB,old,m,./images/RAZORLB.png,,,,,,,,,,,,,,,,,,,,,,,,,,,,,,,,,
,,,,,,,,,,,,,,,,,60fc5ec12244a6d58297cf6a,53,2022-02-12_16h54.10.766,lexical_decision_task_DD_L5,2021.2.3,Linux armv8l,21.10684284,,,,,,,,,,1.1809,1,,,,,,,,,,,,,,,0,0.344660187,-0.279718971,1,0,0,1.1809,button_right_main,0.344660187,-0.279718971,1,0,0,,0,4,4,66,1,STATUE,HB,old,m,./images/STATUEHB.png,,,,,,,,,,,,,,,,,,,,,,,,,,,,,,,,,
,,,,,,,,,,,,,,,,,60fc5ec12244a6d58297cf6a,53,2022-02-12_16h54.10.766,lexical_decision_task_DD_L5,2021.2.3,Linux armv8l,21.10684284,,,,,,,,,,0.9002,1,,,,,,,,,,,,,,,0,0.328016663,-0.342175579,1,0,0,0.9002,button_right_main,0.328016663,-0.342175579,1,0,0,,0,5,5,21,1,DANCER,HB,old,m,./images/DANCERHB.png,,,,,,,,,,,,,,,,,,,,,,,,,,,,,,,,,
,,,,,,,,,,,,,,,,,60fc5ec12244a6d58297cf6a,53,2022-02-12_16h54.10.766,lexical_decision_task_DD_L5,2021.2.3,Linux armv8l,21.10684284,,,,,,,,,,0.9184,1,,,,,,,,,,,,,,,0,0.282246923,-0.308865356,1,0,0,0.9184,button_right_main,0.282246923,-0.308865356,1,0,0,,0,6,6,76,1,MIDGET,LB,old,m,./images/MIDGETLB.png,,,,,,,,,,,,,,,,,,,,,,,,,,,,,,,,,
,,,,,,,,,,,,,,,,,60fc5ec12244a6d58297cf6a,53,2022-02-12_16h54.10.766,lexical_decision_task_DD_L5,2021.2.3,Linux armv8l,21.10684284,,,,,,,,,,1.0246,1,,,,,,,,,,,,,,,0,-0.343273222,-0.304701614,1,0,0,1.0246,button_left_main,-0.343273222,-0.304701614,1,0,0,,0,7,7,95,1,HANTY,LB,old,z,./images/HANTYLB.png,,,,,,,,,,,,,,,,,,,,,,,,,,,,,,,,,
,,,,,,,,,,,,,,,,,60fc5ec12244a6d58297cf6a,53,2022-02-12_16h54.10.766,lexical_decision_task_DD_L5,2021.2.3,Linux armv8l,21.10684284,,,,,,,,,,1.3255,1,,,,,,,,,,,,,,,0,-0.359916782,-0.315804958,1,0,0,1.3255,button_left_main,-0.359916782,-0.315804958,1,0,0,,0,8,8,117,1,STEEG,C,old,z,./images/STEEG.png,,,,,,,,,,,,,,,,,,,,,,,,,,,,,,,,,
,,,,,,,,,,,,,,,,,60fc5ec12244a6d58297cf6a,53,2022-02-12_16h54.10.766,lexical_decision_task_DD_L5,2021.2.3,Linux armv8l,21.10684284,,,,,,,,,,0.8745,1,,,,,,,,,,,,,,,0,-0.333564496,-0.33107214,1,0,0,0.8745,button_left_main,-0.333564496,-0.33107214,1,0,0,,0,9,9,156,1,HIXES,C,old,z,./images/HIXES.png,,,,,,,,,,,,,,,,,,,,,,,,,,,,,,,,,
,,,,,,,,,,,,,,,,,60fc5ec12244a6d58297cf6a,53,2022-02-12_16h54.10.766,lexical_decision_task_DD_L5,2021.2.3,Linux armv8l,21.10684284,,,,,,,,,,7.1714,1,,,,,,,,,,,,,,,0,0.246185923,-0.293598175,1,0,0,7.1714,button_right_main,0.246185923,-0.293598175,1,0,0,,0,10,10,6,1,STAIN,HB,old,m,./images/STAINHB.png,,,,,,,,,,,,,,,,,,,,,,,,,,,,,,,,,
,,,,,,,,,,,,,,,,,60fc5ec12244a6d58297cf6a,53,2022-02-12_16h54.10.766,lexical_decision_task_DD_L5,2021.2.3,Linux armv8l,21.10684284,,,,,,,,,,1.2141,1,,,,,,,,,,,,,,,0,0.359916782,-0.343563557,1,0,0,1.2141,button_right_main,0.359916782,-0.343563557,1,0,0,,0,11,11,60,1,CURRY,HB,old,m,./images/CURRYHB.png,,,,,,,,,,,,,,,,,,,,,,,,,,,,,,,,,
,,,,,,,,,,,,,,,,,60fc5ec12244a6d58297cf6a,53,2022-02-12_16h54.10.766,lexical_decision_task_DD_L5,2021.2.3,Linux armv8l,21.10684284,,,,,,,,,,0.8689,1,,,,,,,,,,,,,,,0,-0.382108176,-0.324132538,1,0,0,0.8689,button_left_main,-0.382108176,-0.324132538,1,0,0,,0,12,12,116,1,BALGY,LB,old,z,./images/BALGYLB.png,,,,,,,,,,,,,,,,,,,,,,,,,,,,,,,,,
,,,,,,,,,,,,,,,,,60fc5ec12244a6d58297cf6a,53,2022-02-12_16h54.10.766,lexical_decision_task_DD_L5,2021.2.3,Linux armv8l,21.10684284,,,,,,,,,,1.5279,1,,,,,,,,,,,,,,,0,0.328016663,-0.338011742,1,0,0,1.5279,button_right_main,0.328016663,-0.338011742,1,0,0,,0,13,13,57,1,FERRY,HB,old,m,./images/FERRYHB.png,,,,,,,,,,,,,,,,,,,,,,,,,,,,,,,,,
,,,,,,,,,,,,,,,,,60fc5ec12244a6d58297cf6a,53,2022-02-12_16h54.10.766,lexical_decision_task_DD_L5,2021.2.3,Linux armv8l,21.10684284,,,,,,,,,,1.0874,1,,,,,,,,,,,,,,,0,0.387656116,-0.335235977,1,0,0,1.0874,button_right_main,0.387656116,-0.335235977,1,0,0,,0,14,14,13,1,BUNNY,LB,old,m,./images/BUNNYLB.png,,,,,,,,,,,,,,,,,,,,,,,,,,,,,,,,,
,,,,,,,,,,,,,,,,,60fc5ec12244a6d58297cf6a,53,2022-02-12_16h54.10.766,lexical_decision_task_DD_L5,2021.2.3,Linux armv8l,21.10684284,,,,,,,,,,1.3722,1,,,,,,,,,,,,,,,0,-0.386269069,-0.307477379,1,0,0,1.3722,button_left_main,-0.386269069,-0.307477379,1,0,0,,0,15,15,101,1,GLEET,LB,old,z,./images/GLEETLB.png,,,,,,,,,,,,,,,,,,,,,,,,,,,,,,,,,
,,,,,,,,,,,,,,,,,60fc5ec12244a6d58297cf6a,53,2022-02-12_16h54.10.766,lexical_decision_task_DD_L5,2021.2.3,Linux armv8l,21.10684284,,,,,,,,,,0.9277,1,,,,,,,,,,,,,,,0,0.290568733,-0.32274456,1,0,0,0.9277,button_right_main,0.290568733,-0.32274456,1,0,0,,0,16,16,4,1,BOXER,LB,old,m,./images/BOXERLB.png,,,,,,,,,,,,,,,,,,,,,,,,,,,,,,,,,
,,,,,,,,,,,,,,,,,60fc5ec12244a6d58297cf6a,53,2022-02-12_16h54.10.766,lexical_decision_task_DD_L5,2021.2.3,Linux armv8l,21.10684284,,,,,,,,,,1.1661,1,,,,,,,,,,,,,,,0,-0.354368925,-0.214486408,1,0,0,1.1661,button_left_main,-0.354368925,-0.214486408,1,0,0,,0,17,17,149,1,VEASE,LB,old,z,./images/VEASELB.png,,,,,,,,,,,,,,,,,,,,,,,,,,,,,,,,,
,,,,,,,,,,,,,,,,,60fc5ec12244a6d58297cf6a,53,2022-02-12_16h54.10.766,lexical_decision_task_DD_L5,2021.2.3,Linux armv8l,21.10684284,,,,,,,,,,1.3724,1,,,,,,,,,,,,,,,0,-0.365464628,-0.351891041,1,0,0,1.3724,button_left_main,-0.365464628,-0.351891041,1,0,0,,0,18,18,140,1,DOVET,LB,old,z,./images/DOVETLB.png,,,,,,,,,,,,,,,,,,,,,,,,,,,,,,,,,
,,,,,,,,,,,,,,,,,60fc5ec12244a6d58297cf6a,53,2022-02-12_16h54.10.766,lexical_decision_task_DD_L5,2021.2.3,Linux armv8l,21.10684284,,,,,,,,,,1.1157,1,,,,,,,,,,,,,,,0,0.304438305,-0.315804958,1,0,0,1.1157,button_right_main,0.304438305,-0.315804958,1,0,0,,0,19,19,59,1,BRUSH,C,old,m,./images/BRUSH.png,,,,,,,,,,,,,,,,,,,,,,,,,,,,,,,,,
,,,,,,,,,,,,,,,,,60fc5ec12244a6d58297cf6a,53,2022-02-12_16h54.10.766,lexical_decision_task_DD_L5,2021.2.3,Linux armv8l,21.10684284,,,,,,,,,,1.092,1,,,,,,,,,,,,,,,0,-0.401525658,-0.306089497,1,0,0,1.092,button_left_main,-0.401525658,-0.306089497,1,0,0,,0,20,20,126,1,GUELS,C,old,z,./images/GUELS.png,,,,,,,,,,,,,,,,,,,,,,,,,,,,,,,,,
,,,,,,,,,,,,,,,,,60fc5ec12244a6d58297cf6a,53,2022-02-12_16h54.10.766,lexical_decision_task_DD_L5,2021.2.3,Linux armv8l,21.10684284,,,,,,,,,,1.387,1,,,,,,,,,,,,,,,0,-0.37656033,-0.333848,1,0,0,1.387,button_left_main,-0.37656033,-0.333848,1,0,0,,0,21,21,102,1,DULLE,C,old,z,./images/DULLE.png,,,,,,,,,,,,,,,,,,,,,,,,,,,,,,,,,
,,,,,,,,,,,,,,,,,60fc5ec12244a6d58297cf6a,53,2022-02-12_16h54.10.766,lexical_decision_task_DD_L5,2021.2.3,Linux armv8l,21.10684284,,,,,,,,,,0.9598,1,,,,,,,,,,,,,,,0,-0.368238556,-0.360218525,1,0,0,0.9598,button_left_main,-0.368238556,-0.360218525,1,0,0,,0,22,22,113,1,LINEW,LB,old,z,./images/LINEWLB.png,,,,,,,,,,,,,,,,,,,,,,,,,,,,,,,,,
,,,,,,,,,,,,,,,,,60fc5ec12244a6d58297cf6a,53,2022-02-12_16h54.10.766,lexical_decision_task_DD_L5,2021.2.3,Linux armv8l,21.10684284,,,,,,,,,,1.1349,1,,,,,,,,,,,,,,,0,0.273925114,-0.306089497,1,0,0,1.1349,button_right_main,0.273925114,-0.306089497,1,0,0,,0,23,23,39,1,CANDY,HB,old,m,./images/CANDYHB.png,,,,,,,,,,,,,,,,,,,,,,,,,,,,,,,,,
,,,,,,,,,,,,,,,,,60fc5ec12244a6d58297cf6a,53,2022-02-12_16h54.10.766,lexical_decision_task_DD_L5,2021.2.3,Linux armv8l,21.10684284,,,,,,,,,,0.9912,1,,,,,,,,,,,,,,,0,-0.350208032,-0.356054783,1,0,0,0.9912,button_left_main,-0.350208032,-0.356054783,1,0,0,,0,24,24,122,1,BLOOT,LB,old,z,./images/BLOOTLB.png,,,,,,,,,,,,,,,,,,,,,,,,,,,,,,,,,
,,,,,,,,,,,,,,,,,60fc5ec12244a6d58297cf6a,53,2022-02-12_16h54.10.766,lexical_decision_task_DD_L5,2021.2.3,Linux armv8l,21.10684284,,,,,,,,,,2.3037,1,,,,,,,,,,,,,,,0,-0.340499306,-0.354666901,1,0,0,2.3037,button_left_main,-0.340499306,-0.354666901,1,0,0,,0,25,25,155,1,CANGY,LB,old,z,./images/CANGYLB.png,,,,,,,,,,,,,,,,,,,,,,,,,,,,,,,,,
,,,,,,,,,,,,,,,,,60fc5ec12244a6d58297cf6a,53,2022-02-12_16h54.10.766,lexical_decision_task_DD_L5,2021.2.3,Linux armv8l,21.10684284,,,,,,,,,,2.0045,1,,,,,,,,,,,,,,,0,-0.350208032,-0.340787601,1,0,0,2.0045,button_left_main,-0.350208032,-0.340787601,1,0,0,,0,26,26,121,1,CEERS,HB,old,z,./images/CEERSHB.png,,,,,,,,,,,,,,,,,,,,,,,,,,,,,,,,,
,,,,,,,,,,,,,,,,,60fc5ec12244a6d58297cf6a,53,2022-02-12_16h54.10.766,lexical_decision_task_DD_L5,2021.2.3,Linux armv8l,21.10684284,,,,,,,,,,1.0551,1,,,,,,,,,,,,,,,0,0.268377256,-0.279718971,1,0,0,1.0551,button_right_main,0.268377256,-0.279718971,1,0,0,,0,27,27,42,1,CHAIN,HB,old,m,./images/CHAINHB.png,,,,,,,,,,,,,,,,,,,,,,,,,,,,,,,,,
,,,,,,,,,,,,,,,,,60fc5ec12244a6d58297cf6a,53,2022-02-12_16h54.10.766,lexical_decision_task_DD_L5,2021.2.3,Linux armv8l,21.10684284,,,,,,,,,,1.2587,1,,,,,,,,,,,,,,,0,-0.384882104,-0.315804958,1,0,0,1.2587,button_left_main,-0.384882104,-0.315804958,1,0,0,,0,28,28,92,1,PAIMS,LB,old,z,./images/PAIMSLB.png,,,,,,,,,,,,,,,,,,,,,,,,,,,,,,,,,
,,,,,,,,,,,,,,,,,60fc5ec12244a6d58297cf6a,53,2022-02-12_16h54.10.766,lexical_decision_task_DD_L5,2021.2.3,Linux armv8l,21.10684284,,,,,,,,,,1.4204,1,,,,,,,,,,,,,,,0,-0.316920936,-0.33107214,1,0,0,1.4204,button_left_main,-0.316920936,-0.33107214,1,0,0,,0,29,29,161,1,BLAPS,LB,old,z,./images/BLAPSLB.png,,,,,,,,,,,,,,,,,,,,,,,,,,,,,,,,,
,,,,,,,,,,,,,,,,,60fc5ec12244a6d58297cf6a,53,2022-02-12_16h54.10.766,lexical_decision_task_DD_L5,2021.2.3,Linux armv8l,21.10684284,,,,,,,,,,1.0109,1,,,,,,,,,,,,,,,0,0.315534019,-0.333848,1,0,0,1.0109,button_right_main,0.315534019,-0.333848,1,0,0,,0,30,30,15,1,COLLAR,HB,old,m,./images/COLLARHB.png,,,,,,,,,,,,,,,,,,,,,,,,,,,,,,,,,
,,,,,,,,,,,,,,,,,60fc5ec12244a6d58297cf6a,53,2022-02-12_16h54.10.766,lexical_decision_task_DD_L5,2021.2.3,Linux armv8l,21.10684284,,,,,,,,,,0.8673,1,,,,,,,,,,,,,,,0,0.279472971,-0.335235977,1,0,0,0.8673,button_right_main,0.279472971,-0.335235977,1,0,0,,0,31,31,38,1,ENGINE,C,old,m,./images/ENGINE.png,,,,,,,,,,,,,,,,,,,,,,,,,,,,,,,,,
,,,,,,,,,,,,,,,,,60fc5ec12244a6d58297cf6a,53,2022-02-12_16h54.10.766,lexical_decision_task_DD_L5,2021.2.3,Linux armv8l,21.10684284,,,,,,,,,,1.1184,1,,,,,,,,,,,,,,,0,-0.375173366,-0.332460117,1,0,0,1.1184,button_left_main,-0.375173366,-0.332460117,1,0,0,,0,32,32,96,1,KEAMS,C,old,z,./images/KEAMS.png,,,,,,,,,,,,,,,,,,,,,,,,,,,,,,,,,
,,,,,,,,,,,,,,,,,60fc5ec12244a6d58297cf6a,53,2022-02-12_16h54.10.766,lexical_decision_task_DD_L5,2021.2.3,Linux armv8l,21.10684284,,,,,,,,,,1.4667,0,,,,,,,,,,,,,,,0,-0.355755889,-0.349115181,1,0,0,1.4667,button_left_main,-0.355755889,-0.349115181,1,0,0,,0,33,33,72,1,FLASK,HB,old,m,./images/FLASKHB.png,,,,,,,,,,,,,,,,,,,,,,,,,,,,,,,,,
,,,,,,,,,,,,,,,,,60fc5ec12244a6d58297cf6a,53,2022-02-12_16h54.10.766,lexical_decision_task_DD_L5,2021.2.3,Linux armv8l,21.10684284,,,,,,,,,,0.9904,1,,,,,,,,,,,,,,,0,0.318307972,-0.311641216,1,0,0,0.9904,button_right_main,0.318307972,-0.311641216,1,0,0,,0,34,34,58,1,CANOE,LB,old,m,./images/CANOELB.png,,,,,,,,,,,,,,,,,,,,,,,,,,,,,,,,,
,,,,,,,,,,,,,,,,,60fc5ec12244a6d58297cf6a,53,2022-02-12_16h54.10.766,lexical_decision_task_DD_L5,2021.2.3,Linux armv8l,21.10684284,,,,,,,,,,1.0073,1,,,,,,,,,,,,,,,0,-0.391816926,-0.321356678,1,0,0,1.0073,button_left_main,-0.391816926,-0.321356678,1,0,0,,0,35,35,111,1,HOSSE,C,old,z,./images/HOSSE.png,,,,,,,,,,,,,,,,,,,,,,,,,,,,,,,,,
,,,,,,,,,,,,,,,,,60fc5ec12244a6d58297cf6a,53,2022-02-12_16h54.10.766,lexical_decision_task_DD_L5,2021.2.3,Linux armv8l,21.10684284,,,,,,,,,,1.2611,1,,,,,,,,,,,,,,,0,-0.351594996,-0.315804958,1,0,0,1.2611,button_left_main,-0.351594996,-0.315804958,1,0,0,,0,36,36,157,1,INLER,HB,old,z,./images/INLERHB.png,,,,,,,,,,,,,,,,,,,,,,,,,,,,,,,,,
,,,,,,,,,,,,,,,,,60fc5ec12244a6d58297cf6a,53,2022-02-12_16h54.10.766,lexical_decision_task_DD_L5,2021.2.3,Linux armv8l,21.10684284,,,,,,,,,,1.1652,1,,,,,,,,,,,,,,,0,0.304438305,-0.274167252,1,0,0,1.1652,button_right_main,0.304438305,-0.274167252,1,0,0,,0,37,37,24,1,FLESH,HB,old,m,./images/FLESHHB.png,,,,,,,,,,,,,,,,,,,,,,,,,,,,,,,,,
,,,,,,,,,,,,,,,,,60fc5ec12244a6d58297cf6a,53,2022-02-12_16h54.10.766,lexical_decision_task_DD_L5,2021.2.3,Linux armv8l,21.10684284,,,,,,,,,,1.2163,1,,,,,,,,,,,,,,,0,0.305825329,-0.246408749,1,0,0,1.2163,button_right_main,0.305825329,-0.246408749,1,0,0,,0,38,38,45,1,MONKEY,HB,old,m,./images/MONKEYHB.png,,,,,,,,,,,,,,,,,,,,,,,,,,,,,,,,,
,,,,,,,,,,,,,,,,,60fc5ec12244a6d58297cf6a,53,2022-02-12_16h54.10.766,lexical_decision_task_DD_L5,2021.2.3,Linux armv8l,21.10684284,,,,,,,,,,1.3388,1,,,,,,,,,,,,,,,0,-0.336338413,-0.306089497,1,0,0,1.3388,button_left_main,-0.336338413,-0.306089497,1,0,0,,0,39,39,103,1,FLORT,HB,old,z,./images/FLORTHB.png,,,,,,,,,,,,,,,,,,,,,,,,,,,,,,,,,
,,,,,,,,,,,,,,,,,60fc5ec12244a6d58297cf6a,53,2022-02-12_16h54.10.766,lexical_decision_task_DD_L5,2021.2.3,Linux armv8l,21.10684284,,,,,,,,,,0.9764,1,,,,,,,,,,,,,,,0,0.361303806,-0.311641216,1,0,0,0.9764,button_right_main,0.361303806,-0.311641216,1,0,0,,0,40,40,41,1,STREAM,C,old,m,./images/STREAM.png,,,,,,,,,,,,,,,,,,,,,,,,,,,,,,,,,
,,,,,,,,,,,,,,,,,60fc5ec12244a6d58297cf6a,53,2022-02-12_16h54.10.766,lexical_decision_task_DD_L5,2021.2.3,Linux armv8l,21.10684284,,,,,,,,,,1.4807,1,,,,,,,,,,,,,,,0,-0.343273222,-0.319968891,1,0,0,1.4807,button_left_main,-0.079750347,-0.350503254,1,0,0,,0,41,41,130,1,CRILL,HB,old,z,./images/CRILLHB.png,break_done_button,,,,,,,,,,,,,,,,,,,,,,,,,,,,,,,,
,,,,,,,,,,,,,,,,,60fc5ec12244a6d58297cf6a,53,2022-02-12_16h54.10.766,lexical_decision_task_DD_L5,2021.2.3,Linux armv8l,21.10684284,,,,,,,,,,1.6379,1,,,,,,,,,,,,,,,0,-0.357142854,-0.311641216,1,0,0,1.6379,button_left_main,-0.357142854,-0.311641216,1,0,0,,0,42,42,110,1,CRUNK,LB,old,z,./images/CRUNKLB.png,,,,,,,,,,,,,,,,,,,,,,,,,,,,,,,,,
,,,,,,,,,,,,,,,,,60fc5ec12244a6d58297cf6a,53,2022-02-12_16h54.10.766,lexical_decision_task_DD_L5,2021.2.3,Linux armv8l,21.10684284,,,,,,,,,,3.2191,1,,,,,,,,,,,,,,,0,-0.286407757,-0.268615532,1,0,0,3.2191,button_left_main,-0.286407757,-0.268615532,1,0,0,,0,43,43,138,1,PLICE,C,old,z,./images/PLICE.png,,,,,,,,,,,,,,,,,,,,,,,,,,,,,,,,,
,,,,,,,,,,,,,,,,,60fc5ec12244a6d58297cf6a,53,2022-02-12_16h54.10.766,lexical_decision_task_DD_L5,2021.2.3,Linux armv8l,21.10684284,,,,,,,,,,0.943,1,,,,,,,,,,,,,,,0,-0.297503471,-0.313029194,1,0,0,0.943,button_left_main,-0.297503471,-0.313029194,1,0,0,,0,44,44,160,1,VEETS,HB,old,z,./images/VEETSHB.png,,,,,,,,,,,,,,,,,,,,,,,,,,,,,,,,,
,,,,,,,,,,,,,,,,,60fc5ec12244a6d58297cf6a,53,2022-02-12_16h54.10.766,lexical_decision_task_DD_L5,2021.2.3,Linux armv8l,21.10684284,,,,,,,,,,0.8374,1,,,,,,,,,,,,,,,0,-0.300277388,-0.317192936,1,0,0,0.8374,button_left_main,-0.300277388,-0.317192936,1,0,0,,0,45,45,131,1,NACES,LB,old,z,./images/NACESLB.png,,,,,,,,,,,,,,,,,,,,,,,,,,,,,,,,,
,,,,,,,,,,,,,,,,,60fc5ec12244a6d58297cf6a,53,2022-02-12_16h54.10.766,lexical_decision_task_DD_L5,2021.2.3,Linux armv8l,21.10684284,,,,,,,,,,1.4492,1,,,,,,,,,,,,,,,0,-0.330790555,-0.325520515,1,0,0,1.4492,button_left_main,-0.330790555,-0.325520515,1,0,0,,0,46,46,91,1,SHENS,HB,old,z,./images/SHENSHB.png,,,,,,,,,,,,,,,,,,,,,,,,,,,,,,,,,
,,,,,,,,,,,,,,,,,60fc5ec12244a6d58297cf6a,53,2022-02-12_16h54.10.766,lexical_decision_task_DD_L5,2021.2.3,Linux armv8l,21.10684284,,,,,,,,,,1.339,1,,,,,,,,,,,,,,,0,-0.33217752,-0.325520515,1,0,0,1.339,button_left_main,-0.33217752,-0.325520515,1,0,0,,0,47,47,133,1,POWDY,HB,old,z,./images/POWDYHB.png,,,,,,,,,,,,,,,,,,,,,,,,,,,,,,,,,
,,,,,,,,,,,,,,,,,60fc5ec12244a6d58297cf6a,53,2022-02-12_16h54.10.766,lexical_decision_task_DD_L5,2021.2.3,Linux armv8l,21.10684284,,,,,,,,,,0.9445,0,,,,,,,,,,,,,,,0,-0.340499306,-0.301925755,1,0,0,0.9445,button_left_main,-0.340499306,-0.301925755,1,0,0,,0,48,48,62,1,MAMMAL,C,old,m,./images/MAMMAL.png,,,,,,,,,,,,,,,,,,,,,,,,,,,,,,,,,
,,,,,,,,,,,,,,,,,60fc5ec12244a6d58297cf6a,53,2022-02-12_16h54.10.766,lexical_decision_task_DD_L5,2021.2.3,Linux armv8l,21.10684284,,,,,,,,,,0.9765,1,,,,,,,,,,,,,,,0,0.287794733,-0.263063812,1,0,0,0.9765,button_right_main,0.287794733,-0.263063812,1,0,0,,0,49,49,52,1,DESERT,LB,old,m,./images/DESERTLB.png,,,,,,,,,,,,,,,,,,,,,,,,,,,,,,,,,
,,,,,,,,,,,,,,,,,60fc5ec12244a6d58297cf6a,53,2022-02-12_16h54.10.766,lexical_decision_task_DD_L5,2021.2.3,Linux armv8l,21.10684284,,,,,,,,,,1.0562,1,,,,,,,,,,,,,,,0,-0.340499306,-0.328296375,1,0,0,1.0562,button_left_main,-0.340499306,-0.328296375,1,0,0,,0,50,50,136,1,WERVE,HB,old,z,./images/WERVEHB.png,,,,,,,,,,,,,,,,,,,,,,,,,,,,,,,,,
,,,,,,,,,,,,,,,,,60fc5ec12244a6d58297cf6a,53,2022-02-12_16h54.10.766,lexical_decision_task_DD_L5,2021.2.3,Linux armv8l,21.10684284,,,,,,,,,,1.0085,1,,,,,,,,,,,,,,,0,0.275312042,-0.26722765,1,0,0,1.0085,button_right_main,0.275312042,-0.26722765,1,0,0,,0,51,51,53,1,POSTER,C,old,m,./images/POSTER.png,,,,,,,,,,,,,,,,,,,,,,,,,,,,,,,,,
,,,,,,,,,,,,,,,,,60fc5ec12244a6d58297cf6a,53,2022-02-12_16h54.10.766,lexical_decision_task_DD_L5,2021.2.3,Linux armv8l,21.10684284,,,,,,,,,,1.2432,0,,,,,,,,,,,,,,,0,0.280859995,-0.313029194,1,0,0,1.2432,button_right_main,0.280859995,-0.313029194,1,0,0,,0,52,52,166,1,SHORY,HB,old,z,./images/SHORYHB.png,,,,,,,,,,,,,,,,,,,,,,,,,,,,,,,,,
,,,,,,,,,,,,,,,,,60fc5ec12244a6d58297cf6a,53,2022-02-12_16h54.10.766,lexical_decision_task_DD_L5,2021.2.3,Linux armv8l,21.10684284,,,,,,,,,,0.9776,1,,,,,,,,,,,,,,,0,0.291955662,-0.282494831,1,0,0,0.9776,button_right_main,0.291955662,-0.282494831,1,0,0,,0,53,53,26,1,CLOUD,C,old,m,./images/CLOUD.png,,,,,,,,,,,,,,,,,,,,,,,,,,,,,,,,,
,,,,,,,,,,,,,,,,,60fc5ec12244a6d58297cf6a,53,2022-02-12_16h54.10.766,lexical_decision_task_DD_L5,2021.2.3,Linux armv8l,21.10684284,,,,,,,,,,1.1117,1,,,,,,,,,,,,,,,0,0.287794733,-0.288046551,1,0,0,1.1117,button_right_main,0.287794733,-0.288046551,1,0,0,,0,54,54,68,1,VALLEY,C,old,m,./images/VALLEY.png,,,,,,,,,,,,,,,,,,,,,,,,,,,,,,,,,
,,,,,,,,,,,,,,,,,60fc5ec12244a6d58297cf6a,53,2022-02-12_16h54.10.766,lexical_decision_task_DD_L5,2021.2.3,Linux armv8l,21.10684284,,,,,,,,,,0.8669,1,,,,,,,,,,,,,,,0,-0.343273222,-0.36299448,1,0,0,0.8669,button_left_main,-0.343273222,-0.36299448,1,0,0,,0,55,55,167,1,ZONET,LB,old,z,./images/ZONETLB.png,,,,,,,,,,,,,,,,,,,,,,,,,,,,,,,,,
,,,,,,,,,,,,,,,,,60fc5ec12244a6d58297cf6a,53,2022-02-12_16h54.10.766,lexical_decision_task_DD_L5,2021.2.3,Linux armv8l,21.10684284,,,,,,,,,,1.1361,1,,,,,,,,,,,,,,,0,-0.352981973,-0.346339321,1,0,0,1.1361,button_left_main,-0.352981973,-0.346339321,1,0,0,,0,56,56,125,1,MOOKY,LB,old,z,./images/MOOKYLB.png,,,,,,,,,,,,,,,,,,,,,,,,,,,,,,,,,
,,,,,,,,,,,,,,,,,60fc5ec12244a6d58297cf6a,53,2022-02-12_16h54.10.766,lexical_decision_task_DD_L5,2021.2.3,Linux armv8l,21.10684284,,,,,,,,,,1.2756,1,,,,,,,,,,,,,,,0,-0.334951437,-0.332460117,1,0,0,1.2756,button_left_main,-0.334951437,-0.332460117,1,0,0,,0,57,57,115,1,MAWNS,HB,old,z,./images/MAWNSHB.png,,,,,,,,,,,,,,,,,,,,,,,,,,,,,,,,,
,,,,,,,,,,,,,,,,,60fc5ec12244a6d58297cf6a,53,2022-02-12_16h54.10.766,lexical_decision_task_DD_L5,2021.2.3,Linux armv8l,21.10684284,,,,,,,,,,0.8213,1,,,,,,,,,,,,,,,0,-0.351594996,-0.326908398,1,0,0,0.8213,button_left_main,-0.351594996,-0.326908398,1,0,0,,0,58,58,120,1,RINED,C,old,z,./images/RINED.png,,,,,,,,,,,,,,,,,,,,,,,,,,,,,,,,,
,,,,,,,,,,,,,,,,,60fc5ec12244a6d58297cf6a,53,2022-02-12_16h54.10.766,lexical_decision_task_DD_L5,2021.2.3,Linux armv8l,21.10684284,,,,,,,,,,0.8981,1,,,,,,,,,,,,,,,0,0.265603399,-0.242245007,1,0,0,0.8981,button_right_main,0.265603399,-0.242245007,1,0,0,,0,59,59,73,1,GLOVE,LB,old,m,./images/GLOVELB.png,,,,,,,,,,,,,,,,,,,,,,,,,,,,,,,,,
,,,,,,,,,,,,,,,,,60fc5ec12244a6d58297cf6a,53,2022-02-12_16h54.10.766,lexical_decision_task_DD_L5,2021.2.3,Linux armv8l,21.10684284,,,,,,,,,,1.04,1,,,,,,,,,,,,,,,0,0.301664448,-0.251960468,1,0,0,1.04,button_right_main,0.301664448,-0.251960468,1,0,0,,0,60,60,78,1,BROOM,HB,old,m,./images/BROOMHB.png,,,,,,,,,,,,,,,,,,,,,,,,,,,,,,,,,
,,,,,,,,,,,,,,,,,60fc5ec12244a6d58297cf6a,53,2022-02-12_16h54.10.766,lexical_decision_task_DD_L5,2021.2.3,Linux armv8l,21.10684284,,,,,,,,,,0.6925,1,,,,,,,,,,,,,,,0,0.307212257,-0.278330994,1,0,0,0.6925,button_right_main,0.307212257,-0.278330994,1,0,0,,0,61,61,64,1,BRIDE,LB,old,m,./images/BRIDELB.png,,,,,,,,,,,,,,,,,,,,,,,,,,,,,,,,,
,,,,,,,,,,,,,,,,,60fc5ec12244a6d58297cf6a,53,2022-02-12_16h54.10.766,lexical_decision_task_DD_L5,2021.2.3,Linux armv8l,21.10684284,,,,,,,,,,0.9321,1,,,,,,,,,,,,,,,0,-0.355755889,-0.361606503,1,0,0,0.9321,button_left_main,-0.355755889,-0.361606503,1,0,0,,0,62,62,141,1,PLEET,C,old,z,./images/PLEET.png,,,,,,,,,,,,,,,,,,,,,,,,,,,,,,,,,
,,,,,,,,,,,,,,,,,60fc5ec12244a6d58297cf6a,53,2022-02-12_16h54.10.766,lexical_decision_task_DD_L5,2021.2.3,Linux armv8l,21.10684284,,,,,,,,,,1.1026,1,,,,,,,,,,,,,,,0,0.332177544,-0.314416981,1,0,0,1.1026,button_right_main,0.332177544,-0.314416981,1,0,0,,0,63,63,5,1,BAMBOO,C,old,m,./images/BAMBOO.png,,,,,,,,,,,,,,,,,,,,,,,,,,,,,,,,,
,,,,,,,,,,,,,,,,,60fc5ec12244a6d58297cf6a,53,2022-02-12_16h54.10.766,lexical_decision_task_DD_L5,2021.2.3,Linux armv8l,21.10684284,,,,,,,,,,0.9287,1,,,,,,,,,,,,,,,0,0.38349514,-0.294986153,1,0,0,0.9287,button_right_main,0.38349514,-0.294986153,1,0,0,,0,64,64,22,1,CLOWN,LB,old,m,./images/CLOWNLB.png,,,,,,,,,,,,,,,,,,,,,,,,,,,,,,,,,
,,,,,,,,,,,,,,,,,60fc5ec12244a6d58297cf6a,53,2022-02-12_16h54.10.766,lexical_decision_task_DD_L5,2021.2.3,Linux armv8l,21.10684284,,,,,,,,,,0.9124,1,,,,,,,,,,,,,,,0,-0.354368925,-0.307477379,1,0,0,0.9124,button_left_main,-0.354368925,-0.307477379,1,0,0,,0,65,65,105,1,MOKER,C,old,z,./images/MOKER.png,,,,,,,,,,,,,,,,,,,,,,,,,,,,,,,,,
,,,,,,,,,,,,,,,,,60fc5ec12244a6d58297cf6a,53,2022-02-12_16h54.10.766,lexical_decision_task_DD_L5,2021.2.3,Linux armv8l,21.10684284,,,,,,,,,,0.948,1,,,,,,,,,,,,,,,0,0.29334259,-0.306089497,1,0,0,0.948,button_right_main,0.29334259,-0.306089497,1,0,0,,0,66,66,49,1,BISHOP,LB,old,m,./images/BISHOPLB.png,,,,,,,,,,,,,,,,,,,,,,,,,,,,,,,,,
,,,,,,,,,,,,,,,,,60fc5ec12244a6d58297cf6a,53,2022-02-12_16h54.10.766,lexical_decision_task_DD_L5,2021.2.3,Linux armv8l,21.10684284,,,,,,,,,,0.8694,1,,,,,,,,,,,,,,,0,-0.354368925,-0.35744276,1,0,0,0.8694,button_left_main,-0.354368925,-0.35744276,1,0,0,,0,67,67,104,1,GITTY,LB,old,z,./images/GITTYLB.png,,,,,,,,,,,,,,,,,,,,,,,,,,,,,,,,,
,,,,,,,,,,,,,,,,,60fc5ec12244a6d58297cf6a,53,2022-02-12_16h54.10.766,lexical_decision_task_DD_L5,2021.2.3,Linux armv8l,21.10684284,,,,,,,,,,1.3275,1,,,,,,,,,,,,,,,0,-0.354368925,-0.358830738,1,0,0,1.3275,button_left_main,-0.354368925,-0.358830738,1,0,0,,0,68,68,129,1,PRANS,C,old,z,./images/PRANS.png,,,,,,,,,,,,,,,,,,,,,,,,,,,,,,,,,
,,,,,,,,,,,,,,,,,60fc5ec12244a6d58297cf6a,53,2022-02-12_16h54.10.766,lexical_decision_task_DD_L5,2021.2.3,Linux armv8l,21.10684284,,,,,,,,,,1.0704,1,,,,,,,,,,,,,,,0,0.286407804,-0.254736233,1,0,0,1.0704,button_right_main,0.286407804,-0.254736233,1,0,0,,0,69,69,17,1,PARADE,C,old,m,./images/PARADE.png,,,,,,,,,,,,,,,,,,,,,,,,,,,,,,,,,
,,,,,,,,,,,,,,,,,60fc5ec12244a6d58297cf6a,53,2022-02-12_16h54.10.766,lexical_decision_task_DD_L5,2021.2.3,Linux armv8l,21.10684284,,,,,,,,,,1.105,1,,,,,,,,,,,,,,,0,-0.364077663,-0.25612421,1,0,0,1.105,button_left_main,-0.364077663,-0.25612421,1,0,0,,0,70,70,152,1,FRAIN,LB,old,z,./images/FRAINLB.png,,,,,,,,,,,,,,,,,,,,,,,,,,,,,,,,,
,,,,,,,,,,,,,,,,,60fc5ec12244a6d58297cf6a,53,2022-02-12_16h54.10.766,lexical_decision_task_DD_L5,2021.2.3,Linux armv8l,21.10684284,,,,,,,,,,1.4195,1,,,,,,,,,,,,,,,0,-0.291955614,-0.314416981,1,0,0,1.4195,button_left_main,-0.291955614,-0.314416981,1,0,0,,0,71,71,127,1,NINDY,HB,old,z,./images/NINDYHB.png,,,,,,,,,,,,,,,,,,,,,,,,,,,,,,,,,
,,,,,,,,,,,,,,,,,60fc5ec12244a6d58297cf6a,53,2022-02-12_16h54.10.766,lexical_decision_task_DD_L5,2021.2.3,Linux armv8l,21.10684284,,,,,,,,,,0.8679,1,,,,,,,,,,,,,,,0,-0.32524271,-0.333848,1,0,0,0.8679,button_left_main,-0.32524271,-0.333848,1,0,0,,0,72,72,114,1,RIKES,C,old,z,./images/RIKES.png,,,,,,,,,,,,,,,,,,,,,,,,,,,,,,,,,
,,,,,,,,,,,,,,,,,60fc5ec12244a6d58297cf6a,53,2022-02-12_16h54.10.766,lexical_decision_task_DD_L5,2021.2.3,Linux armv8l,21.10684284,,,,,,,,,,0.9285,1,,,,,,,,,,,,,,,0,0.290568733,-0.339399719,1,0,0,0.9285,button_right_main,0.290568733,-0.339399719,1,0,0,,0,73,73,80,1,PLANET,C,old,m,./images/PLANET.png,,,,,,,,,,,,,,,,,,,,,,,,,,,,,,,,,
,,,,,,,,,,,,,,,,,60fc5ec12244a6d58297cf6a,53,2022-02-12_16h54.10.766,lexical_decision_task_DD_L5,2021.2.3,Linux armv8l,21.10684284,,,,,,,,,,0.8986,1,,,,,,,,,,,,,,,0,0.286407804,-0.311641216,1,0,0,0.8986,button_right_main,0.286407804,-0.311641216,1,0,0,,0,74,74,67,1,POKER,LB,old,m,./images/POKERLB.png,,,,,,,,,,,,,,,,,,,,,,,,,,,,,,,,,
,,,,,,,,,,,,,,,,,60fc5ec12244a6d58297cf6a,53,2022-02-12_16h54.10.766,lexical_decision_task_DD_L5,2021.2.3,Linux armv8l,21.10684284,,,,,,,,,,0.9912,1,,,,,,,,,,,,,,,0,-0.309986138,-0.343563557,1,0,0,0.9912,button_left_main,-0.309986138,-0.343563557,1,0,0,,0,75,75,84,1,HAXES,C,old,z,./images/HAXES.png,,,,,,,,,,,,,,,,,,,,,,,,,,,,,,,,,
,,,,,,,,,,,,,,,,,60fc5ec12244a6d58297cf6a,53,2022-02-12_16h54.10.766,lexical_decision_task_DD_L5,2021.2.3,Linux armv8l,21.10684284,,,,,,,,,,0.7891,1,,,,,,,,,,,,,,,0,0.323855782,-0.319968891,1,0,0,0.7891,button_right_main,0.323855782,-0.319968891,1,0,0,,0,76,76,19,1,DONKEY,LB,old,m,./images/DONKEYLB.png,,,,,,,,,,,,,,,,,,,,,,,,,,,,,,,,,
,,,,,,,,,,,,,,,,,60fc5ec12244a6d58297cf6a,53,2022-02-12_16h54.10.766,lexical_decision_task_DD_L5,2021.2.3,Linux armv8l,21.10684284,,,,,,,,,,0.8497,1,,,,,,,,,,,,,,,0,0.333564472,-0.33107214,1,0,0,0.8497,button_right_main,0.333564472,-0.33107214,1,0,0,,0,77,77,44,1,BASKET,C,old,m,./images/BASKET.png,,,,,,,,,,,,,,,,,,,,,,,,,,,,,,,,,
,,,,,,,,,,,,,,,,,60fc5ec12244a6d58297cf6a,53,2022-02-12_16h54.10.766,lexical_decision_task_DD_L5,2021.2.3,Linux armv8l,21.10684284,,,,,,,,,,0.8056,1,,,,,,,,,,,,,,,0,-0.355755889,-0.332460117,1,0,0,0.8056,button_left_main,-0.355755889,-0.332460117,1,0,0,,0,78,78,123,1,SEDGE,C,old,z,./images/SEDGE.png,,,,,,,,,,,,,,,,,,,,,,,,,,,,,,,,,
,,,,,,,,,,,,,,,,,60fc5ec12244a6d58297cf6a,53,2022-02-12_16h54.10.766,lexical_decision_task_DD_L5,2021.2.3,Linux armv8l,21.10684284,,,,,,,,,,0.9434,0,,,,,,,,,,,,,,,0,-0.334951437,-0.308865356,1,0,0,0.9434,button_left_main,-0.334951437,-0.308865356,1,0,0,,0,79,79,35,1,LLAMA,C,old,m,./images/LLAMA.png,,,,,,,,,,,,,,,,,,,,,,,,,,,,,,,,,
,,,,,,,,,,,,,,,,,60fc5ec12244a6d58297cf6a,53,2022-02-12_16h54.10.766,lexical_decision_task_DD_L5,2021.2.3,Linux armv8l,21.10684284,,,,,,,,,,0.9309,1,,,,,,,,,,,,,,,0,-0.330790555,-0.328296375,1,0,0,0.9309,button_left_main,-0.330790555,-0.328296375,1,0,0,,0,80,80,145,1,LAMEL,HB,old,z,./images/LAMELHB.png,,,,,,,,,,,,,,,,,,,,,,,,,,,,,,,,,
,,,,,,,,,,,,,,,,,60fc5ec12244a6d58297cf6a,53,2022-02-12_16h54.10.766,lexical_decision_task_DD_L5,2021.2.3,Linux armv8l,21.10684284,,,,,,,,,,1.0572,1,,,,,,,,,,,,,,,0,-0.309986138,-0.311641216,1,0,0,1.0572,button_left_main,-0.309986138,-0.311641216,1,0,0,,0,81,81,159,1,CUDDY,C,old,z,./images/CUDDY.png,,,,,,,,,,,,,,,,,,,,,,,,,,,,,,,,,
,,,,,,,,,,,,,,,,,60fc5ec12244a6d58297cf6a,53,2022-02-12_16h54.10.766,lexical_decision_task_DD_L5,2021.2.3,Linux armv8l,21.10684284,,,,,,,,,,0.8824,1,,,,,,,,,,,,,,,0,0.289181709,-0.296374035,1,0,0,0.8824,button_right_main,0.289181709,-0.296374035,1,0,0,,0,82,82,55,1,ALLEY,LB,old,m,./images/ALLEYLB.png,,,,,,,,,,,,,,,,,,,,,,,,,,,,,,,,,
,,,,,,,,,,,,,,,,,60fc5ec12244a6d58297cf6a,53,2022-02-12_16h54.10.766,lexical_decision_task_DD_L5,2021.2.3,Linux armv8l,21.10684284,,,,,,,,,,1.071,1,,,,,,,,,,,,,,,0,0.296116543,-0.317192936,1,0,0,1.071,button_right_main,-0.065880728,-0.374097919,1,0,0,,0,83,83,48,1,SHIELD,HB,old,m,./images/SHIELDHB.png,break_done_button,,,,,,,,,,,,,,,,,,,,,,,,,,,,,,,,
,,,,,,,,,,,,,,,,,60fc5ec12244a6d58297cf6a,53,2022-02-12_16h54.10.766,lexical_decision_task_DD_L5,2021.2.3,Linux armv8l,21.10684284,,,,,,,,,,0.8975,1,,,,,,,,,,,,,,,0,0.280859995,-0.272779369,1,0,0,0.8975,button_right_main,0.280859995,-0.272779369,1,0,0,,0,84,84,69,1,ARROW,HB,old,m,./images/ARROWHB.png,,,,,,,,,,,,,,,,,,,,,,,,,,,,,,,,,
,,,,,,,,,,,,,,,,,60fc5ec12244a6d58297cf6a,53,2022-02-12_16h54.10.766,lexical_decision_task_DD_L5,2021.2.3,Linux armv8l,21.10684284,,,,,,,,,,0.7873,1,,,,,,,,,,,,,,,0,0.262829447,-0.275555134,1,0,0,0.7873,button_right_main,0.262829447,-0.275555134,1,0,0,,0,85,85,61,1,ARTIST,LB,old,m,./images/ARTISTLB.png,,,,,,,,,,,,,,,,,,,,,,,,,,,,,,,,,
,,,,,,,,,,,,,,,,,60fc5ec12244a6d58297cf6a,53,2022-02-12_16h54.10.766,lexical_decision_task_DD_L5,2021.2.3,Linux armv8l,21.10684284,,,,,,,,,,0.9919,1,,,,,,,,,,,,,,,0,-0.336338413,-0.325520515,1,0,0,0.9919,button_left_main,-0.336338413,-0.325520515,1,0,0,,0,86,86,163,1,GAMBA,HB,old,z,./images/GAMBAHB.png,,,,,,,,,,,,,,,,,,,,,,,,,,,,,,,,,
,,,,,,,,,,,,,,,,,60fc5ec12244a6d58297cf6a,53,2022-02-12_16h54.10.766,lexical_decision_task_DD_L5,2021.2.3,Linux armv8l,21.10684284,,,,,,,,,,0.8671,1,,,,,,,,,,,,,,,0,0.318307972,-0.263063812,1,0,0,0.8671,button_right_main,0.318307972,-0.263063812,1,0,0,,0,87,87,25,1,CHALK,LB,old,m,./images/CHALKLB.png,,,,,,,,,,,,,,,,,,,,,,,,,,,,,,,,,
,,,,,,,,,,,,,,,,,60fc5ec12244a6d58297cf6a,53,2022-02-12_16h54.10.766,lexical_decision_task_DD_L5,2021.2.3,Linux armv8l,21.10684284,,,,,,,,,,0.7414,1,,,,,,,,,,,,,,,0,0.264216375,-0.289434528,1,0,0,0.7414,button_right_main,0.264216375,-0.289434528,1,0,0,,0,88,88,10,1,GARDEN,LB,old,m,./images/GARDENLB.png,,,,,,,,,,,,,,,,,,,,,,,,,,,,,,,,,
,,,,,,,,,,,,,,,,,60fc5ec12244a6d58297cf6a,53,2022-02-12_16h54.10.766,lexical_decision_task_DD_L5,2021.2.3,Linux armv8l,21.10684284,,,,,,,,,,0.7089,1,,,,,,,,,,,,,,,0,0.265603399,-0.289434528,1,0,0,0.7089,button_right_main,0.265603399,-0.289434528,1,0,0,,0,89,89,31,1,STEAK,LB,old,m,./images/STEAKLB.png,,,,,,,,,,,,,,,,,,,,,,,,,,,,,,,,,
,,,,,,,,,,,,,,,,,60fc5ec12244a6d58297cf6a,53,2022-02-12_16h54.10.766,lexical_decision_task_DD_L5,2021.2.3,Linux armv8l,21.10684284,,,,,,,,,,1.0253,1,,,,,,,,,,,,,,,0,0.318307972,-0.314416981,1,0,0,1.0253,button_right_main,0.318307972,-0.314416981,1,0,0,,0,90,90,27,1,BUTTER,HB,old,m,./images/BUTTERHB.png,,,,,,,,,,,,,,,,,,,,,,,,,,,,,,,,,
,,,,,,,,,,,,,,,,,60fc5ec12244a6d58297cf6a,53,2022-02-12_16h54.10.766,lexical_decision_task_DD_L5,2021.2.3,Linux armv8l,21.10684284,,,,,,,,,,1.0878,1,,,,,,,,,,,,,,,0,0.294729519,-0.283882713,1,0,0,1.0878,button_right_main,0.294729519,-0.283882713,1,0,0,,0,91,91,14,1,FENCE,C,old,m,./images/FENCE.png,,,,,,,,,,,,,,,,,,,,,,,,,,,,,,,,,
,,,,,,,,,,,,,,,,,60fc5ec12244a6d58297cf6a,53,2022-02-12_16h54.10.766,lexical_decision_task_DD_L5,2021.2.3,Linux armv8l,21.10684284,,,,,,,,,,0.6787,1,,,,,,,,,,,,,,,0,0.287794733,-0.297762012,1,0,0,0.6787,button_right_main,0.287794733,-0.297762012,1,0,0,,0,92,92,1,1,TOWEL,LB,old,m,./images/TOWELLB.png,,,,,,,,,,,,,,,,,,,,,,,,,,,,,,,,,
,,,,,,,,,,,,,,,,,60fc5ec12244a6d58297cf6a,53,2022-02-12_16h54.10.766,lexical_decision_task_DD_L5,2021.2.3,Linux armv8l,21.10684284,,,,,,,,,,1.022,1,,,,,,,,,,,,,,,0,-0.301664352,-0.290822315,1,0,0,1.022,button_left_main,-0.301664352,-0.290822315,1,0,0,,0,93,93,148,1,JOMS,HB,old,z,./images/JOMSHB.png,,,,,,,,,,,,,,,,,,,,,,,,,,,,,,,,,
,,,,,,,,,,,,,,,,,60fc5ec12244a6d58297cf6a,53,2022-02-12_16h54.10.766,lexical_decision_task_DD_L5,2021.2.3,Linux armv8l,21.10684284,,,,,,,,,,1.2602,1,,,,,,,,,,,,,,,0,-0.278085971,-0.340787601,1,0,0,1.2602,button_left_main,-0.278085971,-0.340787601,1,0,0,,0,94,94,88,1,GLUSH,HB,old,z,./images/GLUSHHB.png,,,,,,,,,,,,,,,,,,,,,,,,,,,,,,,,,
,,,,,,,,,,,,,,,,,60fc5ec12244a6d58297cf6a,53,2022-02-12_16h54.10.766,lexical_decision_task_DD_L5,2021.2.3,Linux armv8l,21.10684284,,,,,,,,,,0.821,1,,,,,,,,,,,,,,,0,0.323855782,-0.263063812,1,0,0,0.821,button_right_main,0.323855782,-0.263063812,1,0,0,,0,95,95,28,1,CASINO,LB,old,m,./images/CASINOLB.png,,,,,,,,,,,,,,,,,,,,,,,,,,,,,,,,,
,,,,,,,,,,,,,,,,,60fc5ec12244a6d58297cf6a,53,2022-02-12_16h54.10.766,lexical_decision_task_DD_L5,2021.2.3,Linux armv8l,21.10684284,,,,,,,,,,1.4536,1,,,,,,,,,,,,,,,0,0.261442471,-0.304701614,1,0,0,1.4536,button_right_main,0.261442471,-0.304701614,1,0,0,,0,96,96,30,1,SLOPE,HB,old,m,./images/SLOPEHB.png,,,,,,,,,,,,,,,,,,,,,,,,,,,,,,,,,
,,,,,,,,,,,,,,,,,60fc5ec12244a6d58297cf6a,53,2022-02-12_16h54.10.766,lexical_decision_task_DD_L5,2021.2.3,Linux armv8l,21.10684284,,,,,,,,,,0.9487,1,,,,,,,,,,,,,,,0,-0.377947271,-0.293598175,1,0,0,0.9487,button_left_main,-0.377947271,-0.293598175,1,0,0,,0,97,97,87,1,TRING,C,old,z,./images/TRING.png,,,,,,,,,,,,,,,,,,,,,,,,,,,,,,,,,
,,,,,,,,,,,,,,,,,60fc5ec12244a6d58297cf6a,53,2022-02-12_16h54.10.766,lexical_decision_task_DD_L5,2021.2.3,Linux armv8l,21.10684284,,,,,,,,,,1.0081,1,,,,,,,,,,,,,,,0,-0.326629674,-0.33107214,1,0,0,1.0081,button_left_main,-0.326629674,-0.33107214,1,0,0,,0,98,98,107,1,FASKS,LB,old,z,./images/FASKSLB.png,,,,,,,,,,,,,,,,,,,,,,,,,,,,,,,,,
,,,,,,,,,,,,,,,,,60fc5ec12244a6d58297cf6a,53,2022-02-12_16h54.10.766,lexical_decision_task_DD_L5,2021.2.3,Linux armv8l,21.10684284,,,,,,,,,,0.7872,1,,,,,,,,,,,,,,,0,-0.328016639,-0.33107214,1,0,0,0.7872,button_left_main,-0.328016639,-0.33107214,1,0,0,,0,99,99,146,1,MOOST,LB,old,z,./images/MOOSTLB.png,,,,,,,,,,,,,,,,,,,,,,,,,,,,,,,,,
,,,,,,,,,,,,,,,,,60fc5ec12244a6d58297cf6a,53,2022-02-12_16h54.10.766,lexical_decision_task_DD_L5,2021.2.3,Linux armv8l,21.10684284,,,,,,,,,,1.0332,1,,,,,,,,,,,,,,,0,0.376560402,-0.368546104,1,0,0,1.0332,button_right_main,0.376560402,-0.368546104,1,0,0,,0,100,100,23,1,CLOTH,C,old,m,./images/CLOTH.png,,,,,,,,,,,,,,,,,,,,,,,,,,,,,,,,,
,,,,,,,,,,,,,,,,,60fc5ec12244a6d58297cf6a,53,2022-02-12_16h54.10.766,lexical_decision_task_DD_L5,2021.2.3,Linux armv8l,21.10684284,,,,,,,,,,0.8041,1,,,,,,,,,,,,,,,0,0.275312042,-0.290822315,1,0,0,0.8041,button_right_main,0.275312042,-0.290822315,1,0,0,,0,101,101,0,1,WALNUT,HB,old,m,./images/WALNUTHB.png,,,,,,,,,,,,,,,,,,,,,,,,,,,,,,,,,
,,,,,,,,,,,,,,,,,60fc5ec12244a6d58297cf6a,53,2022-02-12_16h54.10.766,lexical_decision_task_DD_L5,2021.2.3,Linux armv8l,21.10684284,,,,,,,,,,1.2778,1,,,,,,,,,,,,,,,0,0.275312042,-0.292210197,1,0,0,1.2778,button_right_main,0.275312042,-0.292210197,1,0,0,,0,102,102,43,1,STOOL,LB,old,m,./images/STOOLLB.png,,,,,,,,,,,,,,,,,,,,,,,,,,,,,,,,,
,,,,,,,,,,,,,,,,,60fc5ec12244a6d58297cf6a,53,2022-02-12_16h54.10.766,lexical_decision_task_DD_L5,2021.2.3,Linux armv8l,21.10684284,,,,,,,,,,0.9959,1,,,,,,,,,,,,,,,0,0.300277424,-0.301925755,1,0,0,0.9959,button_right_main,0.300277424,-0.301925755,1,0,0,,0,103,103,65,1,SPINE,C,old,m,./images/SPINE.png,,,,,,,,,,,,,,,,,,,,,,,,,,,,,,,,,
,,,,,,,,,,,,,,,,,60fc5ec12244a6d58297cf6a,53,2022-02-12_16h54.10.766,lexical_decision_task_DD_L5,2021.2.3,Linux armv8l,21.10684284,,,,,,,,,,0.9446,1,,,,,,,,,,,,,,,0,-0.397364759,-0.304701614,1,0,0,0.9446,button_left_main,-0.397364759,-0.304701614,1,0,0,,0,104,104,132,1,SCIFF,C,old,z,./images/SCIFF.png,,,,,,,,,,,,,,,,,,,,,,,,,,,,,,,,,
,,,,,,,,,,,,,,,,,60fc5ec12244a6d58297cf6a,53,2022-02-12_16h54.10.766,lexical_decision_task_DD_L5,2021.2.3,Linux armv8l,21.10684284,,,,,,,,,,1.056,1,,,,,,,,,,,,,,,0,0.296116543,-0.326908398,1,0,0,1.056,button_right_main,0.296116543,-0.326908398,1,0,0,,0,105,105,46,1,MUMMY,LB,old,m,./images/MUMMYLB.png,,,,,,,,,,,,,,,,,,,,,,,,,,,,,,,,,
,,,,,,,,,,,,,,,,,60fc5ec12244a6d58297cf6a,53,2022-02-12_16h54.10.766,lexical_decision_task_DD_L5,2021.2.3,Linux armv8l,21.10684284,,,,,,,,,,0.8821,1,,,,,,,,,,,,,,,0,-0.304438269,-0.317192936,1,0,0,0.8821,button_left_main,-0.304438269,-0.317192936,1,0,0,,0,106,106,151,1,TINKY,HB,old,z,./images/TINKYHB.png,,,,,,,,,,,,,,,,,,,,,,,,,,,,,,,,,
,,,,,,,,,,,,,,,,,60fc5ec12244a6d58297cf6a,53,2022-02-12_16h54.10.766,lexical_decision_task_DD_L5,2021.2.3,Linux armv8l,21.10684284,,,,,,,,,,1.1294,1,,,,,,,,,,,,,,,0,0.333564472,-0.364382362,1,0,0,1.1294,button_right_main,0.333564472,-0.364382362,1,0,0,,0,107,107,83,1,WHISKY,C,old,m,./images/WHISKY.png,,,,,,,,,,,,,,,,,,,,,,,,,,,,,,,,,
,,,,,,,,,,,,,,,,,60fc5ec12244a6d58297cf6a,53,2022-02-12_16h54.10.766,lexical_decision_task_DD_L5,2021.2.3,Linux armv8l,21.10684284,,,,,,,,,,1.0087,1,,,,,,,,,,,,,,,0,-0.39042995,-0.332460117,1,0,0,1.0087,button_left_main,-0.39042995,-0.332460117,1,0,0,,0,108,108,97,1,CHIDS,HB,old,z,./images/CHIDSHB.png,,,,,,,,,,,,,,,,,,,,,,,,,,,,,,,,,
,,,,,,,,,,,,,,,,,60fc5ec12244a6d58297cf6a,53,2022-02-12_16h54.10.766,lexical_decision_task_DD_L5,2021.2.3,Linux armv8l,21.10684284,,,,,,,,,,1.3868,0,,,,,,,,,,,,,,,0,0.254507637,-0.279718971,1,0,0,1.3868,button_right_main,0.254507637,-0.279718971,1,0,0,,0,109,109,85,1,CHULK,HB,old,z,./images/CHULKHB.png,,,,,,,,,,,,,,,,,,,,,,,,,,,,,,,,,
,,,,,,,,,,,,,,,,,60fc5ec12244a6d58297cf6a,53,2022-02-12_16h54.10.766,lexical_decision_task_DD_L5,2021.2.3,Linux armv8l,21.10684284,,,,,,,,,,1.0283,1,,,,,,,,,,,,,,,0,-0.322468793,-0.307477379,1,0,0,1.0283,button_left_main,-0.322468793,-0.307477379,1,0,0,,0,110,110,128,1,GRIFT,LB,old,z,./images/GRIFTLB.png,,,,,,,,,,,,,,,,,,,,,,,,,,,,,,,,,
,,,,,,,,,,,,,,,,,60fc5ec12244a6d58297cf6a,53,2022-02-12_16h54.10.766,lexical_decision_task_DD_L5,2021.2.3,Linux armv8l,21.10684284,,,,,,,,,,0.8983,1,,,,,,,,,,,,,,,0,0.290568733,-0.260287952,1,0,0,0.8983,button_right_main,0.290568733,-0.260287952,1,0,0,,0,111,111,32,1,HOCKEY,C,old,m,./images/HOCKEY.png,,,,,,,,,,,,,,,,,,,,,,,,,,,,,,,,,
,,,,,,,,,,,,,,,,,60fc5ec12244a6d58297cf6a,53,2022-02-12_16h54.10.766,lexical_decision_task_DD_L5,2021.2.3,Linux armv8l,21.10684284,,,,,,,,,,0.8969,1,,,,,,,,,,,,,,,0,0.291955662,-0.292210197,1,0,0,0.8969,button_right_main,0.291955662,-0.292210197,1,0,0,,0,112,112,37,1,TIGER,LB,old,m,./images/TIGERLB.png,,,,,,,,,,,,,,,,,,,,,,,,,,,,,,,,,
,,,,,,,,,,,,,,,,,60fc5ec12244a6d58297cf6a,53,2022-02-12_16h54.10.766,lexical_decision_task_DD_L5,2021.2.3,Linux armv8l,21.10684284,,,,,,,,,,0.8971,1,,,,,,,,,,,,,,,0,-0.337725377,-0.332460117,1,0,0,0.8971,button_left_main,-0.337725377,-0.332460117,1,0,0,,0,113,113,98,1,BAMPS,LB,old,z,./images/BAMPSLB.png,,,,,,,,,,,,,,,,,,,,,,,,,,,,,,,,,
,,,,,,,,,,,,,,,,,60fc5ec12244a6d58297cf6a,53,2022-02-12_16h54.10.766,lexical_decision_task_DD_L5,2021.2.3,Linux armv8l,21.10684284,,,,,,,,,,0.7546,1,,,,,,,,,,,,,,,0,0.275312042,-0.304701614,1,0,0,0.7546,button_right_main,0.275312042,-0.304701614,1,0,0,,0,114,114,47,1,LAGOON,C,old,m,./images/LAGOON.png,,,,,,,,,,,,,,,,,,,,,,,,,,,,,,,,,
,,,,,,,,,,,,,,,,,60fc5ec12244a6d58297cf6a,53,2022-02-12_16h54.10.766,lexical_decision_task_DD_L5,2021.2.3,Linux armv8l,21.10684284,,,,,,,,,,0.9633,1,,,,,,,,,,,,,,,0,0.329403591,-0.286658573,1,0,0,0.9633,button_right_main,0.329403591,-0.286658573,1,0,0,,0,115,115,50,1,PILOT,C,old,m,./images/PILOT.png,,,,,,,,,,,,,,,,,,,,,,,,,,,,,,,,,
,,,,,,,,,,,,,,,,,60fc5ec12244a6d58297cf6a,53,2022-02-12_16h54.10.766,lexical_decision_task_DD_L5,2021.2.3,Linux armv8l,21.10684284,,,,,,,,,,1.0097,1,,,,,,,,,,,,,,,0,-0.326629674,-0.328296375,1,0,0,1.0097,button_left_main,-0.326629674,-0.328296375,1,0,0,,0,116,116,106,1,CLUMS,HB,old,z,./images/CLUMSHB.png,,,,,,,,,,,,,,,,,,,,,,,,,,,,,,,,,
,,,,,,,,,,,,,,,,,60fc5ec12244a6d58297cf6a,53,2022-02-12_16h54.10.766,lexical_decision_task_DD_L5,2021.2.3,Linux armv8l,21.10684284,,,,,,,,,,0.964,1,,,,,,,,,,,,,,,0,-0.340499306,-0.297762012,1,0,0,0.964,button_left_main,-0.340499306,-0.297762012,1,0,0,,0,117,117,108,1,GRUET,C,old,z,./images/GRUET.png,,,,,,,,,,,,,,,,,,,,,,,,,,,,,,,,,
,,,,,,,,,,,,,,,,,60fc5ec12244a6d58297cf6a,53,2022-02-12_16h54.10.766,lexical_decision_task_DD_L5,2021.2.3,Linux armv8l,21.10684284,,,,,,,,,,0.7862,1,,,,,,,,,,,,,,,0,0.294729519,-0.317192936,1,0,0,0.7862,button_right_main,0.294729519,-0.317192936,1,0,0,,0,118,118,2,1,STOVE,C,old,m,./images/STOVE.png,,,,,,,,,,,,,,,,,,,,,,,,,,,,,,,,,
,,,,,,,,,,,,,,,,,60fc5ec12244a6d58297cf6a,53,2022-02-12_16h54.10.766,lexical_decision_task_DD_L5,2021.2.3,Linux armv8l,21.10684284,,,,,,,,,,0.8534,1,,,,,,,,,,,,,,,0,-0.337725377,-0.314416981,1,0,0,0.8534,button_left_main,-0.337725377,-0.314416981,1,0,0,,0,119,119,158,1,EGECT,LB,old,z,./images/EGECTLB.png,,,,,,,,,,,,,,,,,,,,,,,,,,,,,,,,,
,,,,,,,,,,,,,,,,,60fc5ec12244a6d58297cf6a,53,2022-02-12_16h54.10.766,lexical_decision_task_DD_L5,2021.2.3,Linux armv8l,21.10684284,,,,,,,,,,1.2629,1,,,,,,,,,,,,,,,0,-0.309986138,-0.342175579,1,0,0,1.2629,button_left_main,-0.309986138,-0.342175579,1,0,0,,0,120,120,112,1,MYING,HB,old,z,./images/MYINGHB.png,,,,,,,,,,,,,,,,,,,,,,,,,,,,,,,,,
,,,,,,,,,,,,,,,,,60fc5ec12244a6d58297cf6a,53,2022-02-12_16h54.10.766,lexical_decision_task_DD_L5,2021.2.3,Linux armv8l,21.10684284,,,,,,,,,,0.8405,1,,,,,,,,,,,,,,,0,-0.265603328,-0.339399719,1,0,0,0.8405,button_left_main,-0.265603328,-0.339399719,1,0,0,,0,121,121,165,1,TROWN,C,old,z,./images/TROWN.png,,,,,,,,,,,,,,,,,,,,,,,,,,,,,,,,,
,,,,,,,,,,,,,,,,,60fc5ec12244a6d58297cf6a,53,2022-02-12_16h54.10.766,lexical_decision_task_DD_L5,2021.2.3,Linux armv8l,21.10684284,,,,,,,,,,0.9141,1,,,,,,,,,,,,,,,0,-0.314147019,-0.349115181,1,0,0,0.9141,button_left_main,-0.314147019,-0.349115181,1,0,0,,0,122,122,86,1,AIFED,LB,old,z,./images/AIFEDLB.png,,,,,,,,,,,,,,,,,,,,,,,,,,,,,,,,,
,,,,,,,,,,,,,,,,,60fc5ec12244a6d58297cf6a,53,2022-02-12_16h54.10.766,lexical_decision_task_DD_L5,2021.2.3,Linux armv8l,21.10684284,,,,,,,,,,3.7483,1,,,,,,,,,,,,,,,0,-0.326629674,-0.313029194,1,0,0,3.7483,button_left_main,-0.326629674,-0.313029194,1,0,0,,0,123,123,99,1,BACKY,C,old,z,./images/BACKY.png,,,,,,,,,,,,,,,,,,,,,,,,,,,,,,,,,
,,,,,,,,,,,,,,,,,60fc5ec12244a6d58297cf6a,53,2022-02-12_16h54.10.766,lexical_decision_task_DD_L5,2021.2.3,Linux armv8l,21.10684284,,,,,,,,,,1.8633,1,,,,,,,,,,,,,,,0,0.316920948,-0.310253334,1,0,0,1.8633,button_right_main,0.316920948,-0.310253334,1,0,0,,0,124,124,3,1,CRATER,HB,old,m,./images/CRATERHB.png,,,,,,,,,,,,,,,,,,,,,,,,,,,,,,,,,
,,,,,,,,,,,,,,,,,60fc5ec12244a6d58297cf6a,53,2022-02-12_16h54.10.766,lexical_decision_task_DD_L5,2021.2.3,Linux armv8l,21.10684284,,,,,,,,,,0.8339,1,,,,,,,,,,,,,,,0,-0.391816926,-0.335235977,1,0,0,0.8339,button_left_main,-0.079750347,-0.407408047,1,0,0,,0,125,125,90,1,NEAST,C,old,z,./images/NEAST.png,break_done_button,,,,,,,,,,,,,,,,,,,,,,,,,,,,,,,,
,,,,,,,,,,,,,,,,,60fc5ec12244a6d58297cf6a,53,2022-02-12_16h54.10.766,lexical_decision_task_DD_L5,2021.2.3,Linux armv8l,21.10684284,,,,,,,,,,1.0234,1,,,,,,,,,,,,,,,0,0.323855782,-0.346339321,1,0,0,1.0234,button_right_main,0.323855782,-0.346339321,1,0,0,,0,126,126,82,1,PEBBLE,LB,old,m,./images/PEBBLELB.png,,,,,,,,,,,,,,,,,,,,,,,,,,,,,,,,,
,,,,,,,,,,,,,,,,,60fc5ec12244a6d58297cf6a,53,2022-02-12_16h54.10.766,lexical_decision_task_DD_L5,2021.2.3,Linux armv8l,21.10684284,,,,,,,,,,0.8186,1,,,,,,,,,,,,,,,0,0.318307972,-0.271391392,1,0,0,0.8186,button_right_main,0.318307972,-0.271391392,1,0,0,,0,127,127,79,1,RULER,LB,old,m,./images/RULERLB.png,,,,,,,,,,,,,,,,,,,,,,,,,,,,,,,,,
,,,,,,,,,,,,,,,,,60fc5ec12244a6d58297cf6a,53,2022-02-12_16h54.10.766,lexical_decision_task_DD_L5,2021.2.3,Linux armv8l,21.10684284,,,,,,,,,,1.0251,1,,,,,,,,,,,,,,,0,0.321081924,-0.310253334,1,0,0,1.0251,button_right_main,0.321081924,-0.310253334,1,0,0,,0,128,128,74,1,JUMPER,C,old,m,./images/JUMPER.png,,,,,,,,,,,,,,,,,,,,,,,,,,,,,,,,,
,,,,,,,,,,,,,,,,,60fc5ec12244a6d58297cf6a,53,2022-02-12_16h54.10.766,lexical_decision_task_DD_L5,2021.2.3,Linux armv8l,21.10684284,,,,,,,,,,0.8192,1,,,,,,,,,,,,,,,0,0.279472971,-0.294986153,1,0,0,0.8192,button_right_main,0.279472971,-0.294986153,1,0,0,,0,129,129,77,1,WHEEL,C,old,m,./images/WHEEL.png,,,,,,,,,,,,,,,,,,,,,,,,,,,,,,,,,
,,,,,,,,,,,,,,,,,60fc5ec12244a6d58297cf6a,53,2022-02-12_16h54.10.766,lexical_decision_task_DD_L5,2021.2.3,Linux armv8l,21.10684284,,,,,,,,,,0.8974,1,,,,,,,,,,,,,,,0,-0.300277388,-0.317192936,1,0,0,0.8974,button_left_main,-0.300277388,-0.317192936,1,0,0,,0,130,130,119,1,PAFER,LB,old,z,./images/PAFERLB.png,,,,,,,,,,,,,,,,,,,,,,,,,,,,,,,,,
,,,,,,,,,,,,,,,,,60fc5ec12244a6d58297cf6a,53,2022-02-12_16h54.10.766,lexical_decision_task_DD_L5,2021.2.3,Linux armv8l,21.10684284,,,,,,,,,,0.834,1,,,,,,,,,,,,,,,0,0.343273258,-0.313029194,1,0,0,0.834,button_right_main,0.343273258,-0.313029194,1,0,0,,0,131,131,70,1,BANANA,LB,old,m,./images/BANANALB.png,,,,,,,,,,,,,,,,,,,,,,,,,,,,,,,,,
,,,,,,,,,,,,,,,,,60fc5ec12244a6d58297cf6a,53,2022-02-12_16h54.10.766,lexical_decision_task_DD_L5,2021.2.3,Linux armv8l,21.10684284,,,,,,,,,,7.8736,0,,,,,,,,,,,,,,,0,-0.309986138,-0.303313637,1,0,0,7.8736,button_left_main,-0.309986138,-0.303313637,1,0,0,,0,132,132,12,1,BLOKE,HB,old,m,./images/BLOKEHB.png,,,,,,,,,,,,,,,,,,,,,,,,,,,,,,,,,
,,,,,,,,,,,,,,,,,60fc5ec12244a6d58297cf6a,53,2022-02-12_16h54.10.766,lexical_decision_task_DD_L5,2021.2.3,Linux armv8l,21.10684284,,,,,,,,,,1.5471,1,,,,,,,,,,,,,,,0,-0.294729519,-0.358830738,1,0,0,1.5471,button_left_main,-0.294729519,-0.358830738,1,0,0,,0,133,133,164,1,SGREW,LB,old,z,./images/SGREWLB.png,,,,,,,,,,,,,,,,,,,,,,,,,,,,,,,,,
,,,,,,,,,,,,,,,,,60fc5ec12244a6d58297cf6a,53,2022-02-12_16h54.10.766,lexical_decision_task_DD_L5,2021.2.3,Linux armv8l,21.10684284,,,,,,,,,,1.4822,1,,,,,,,,,,,,,,,0,-0.329403603,-0.329684162,1,0,0,1.4822,button_left_main,-0.329403603,-0.329684162,1,0,0,,0,134,134,139,1,BLEAR,HB,old,z,./images/BLEARHB.png,,,,,,,,,,,,,,,,,,,,,,,,,,,,,,,,,
,,,,,,,,,,,,,,,,,60fc5ec12244a6d58297cf6a,53,2022-02-12_16h54.10.766,lexical_decision_task_DD_L5,2021.2.3,Linux armv8l,21.10684284,,,,,,,,,,0.7537,1,,,,,,,,,,,,,,,0,-0.312760055,-0.310253334,1,0,0,0.7537,button_left_main,-0.312760055,-0.310253334,1,0,0,,0,135,135,137,1,JOOST,LB,old,z,./images/JOOSTLB.png,,,,,,,,,,,,,,,,,,,,,,,,,,,,,,,,,
,,,,,,,,,,,,,,,,,60fc5ec12244a6d58297cf6a,53,2022-02-12_16h54.10.766,lexical_decision_task_DD_L5,2021.2.3,Linux armv8l,21.10684284,,,,,,,,,,1.1191,1,,,,,,,,,,,,,,,0,0.358529854,-0.319968891,1,0,0,1.1191,button_right_main,0.358529854,-0.319968891,1,0,0,,0,136,136,8,1,CLIFF,C,old,m,./images/CLIFF.png,,,,,,,,,,,,,,,,,,,,,,,,,,,,,,,,,
,,,,,,,,,,,,,,,,,60fc5ec12244a6d58297cf6a,53,2022-02-12_16h54.10.766,lexical_decision_task_DD_L5,2021.2.3,Linux armv8l,21.10684284,,,,,,,,,,0.803,0,,,,,,,,,,,,,,,0,-0.346047151,-0.346339321,1,0,0,0.803,button_left_main,-0.346047151,-0.346339321,1,0,0,,0,137,137,33,1,SAUNA,HB,old,m,./images/SAUNAHB.png,,,,,,,,,,,,,,,,,,,,,,,,,,,,,,,,,
,,,,,,,,,,,,,,,,,60fc5ec12244a6d58297cf6a,53,2022-02-12_16h54.10.766,lexical_decision_task_DD_L5,2021.2.3,Linux armv8l,21.10684284,,,,,,,,,,1.3572,1,,,,,,,,,,,,,,,0,0.287794733,-0.26722765,1,0,0,1.3572,button_right_main,0.287794733,-0.26722765,1,0,0,,0,138,138,36,1,BOILER,HB,old,m,./images/BOILERHB.png,,,,,,,,,,,,,,,,,,,,,,,,,,,,,,,,,
,,,,,,,,,,,,,,,,,60fc5ec12244a6d58297cf6a,53,2022-02-12_16h54.10.766,lexical_decision_task_DD_L5,2021.2.3,Linux armv8l,21.10684284,,,,,,,,,,0.835,1,,,,,,,,,,,,,,,0,0.297503519,-0.290822315,1,0,0,0.835,button_right_main,0.297503519,-0.290822315,1,0,0,,0,139,139,71,1,BUBBLE,C,old,m,./images/BUBBLE.png,,,,,,,,,,,,,,,,,,,,,,,,,,,,,,,,,
,,,,,,,,,,,,,,,,,60fc5ec12244a6d58297cf6a,53,2022-02-12_16h54.10.766,lexical_decision_task_DD_L5,2021.2.3,Linux armv8l,21.10684284,,,,,,,,,,0.9637,1,,,,,,,,,,,,,,,0,-0.305825233,-0.36577034,1,0,0,0.9637,button_left_main,-0.305825233,-0.36577034,1,0,0,,0,140,140,118,1,BAVEL,HB,old,z,./images/BAVELHB.png,,,,,,,,,,,,,,,,,,,,,,,,,,,,,,,,,
,,,,,,,,,,,,,,,,,60fc5ec12244a6d58297cf6a,53,2022-02-12_16h54.10.766,lexical_decision_task_DD_L5,2021.2.3,Linux armv8l,21.10684284,,,,,,,,,,1.1268,1,,,,,,,,,,,,,,,0,-0.330790555,-0.338011742,1,0,0,1.1268,button_left_main,-0.330790555,-0.338011742,1,0,0,,0,141,141,135,1,JOODY,C,old,z,./images/JOODY.png,,,,,,,,,,,,,,,,,,,,,,,,,,,,,,,,,
,,,,,,,,,,,,,,,,,60fc5ec12244a6d58297cf6a,53,2022-02-12_16h54.10.766,lexical_decision_task_DD_L5,2021.2.3,Linux armv8l,21.10684284,,,,,,,,,,1.1056,1,,,,,,,,,,,,,,,0,-0.330790555,-0.336623859,1,0,0,1.1056,button_left_main,-0.330790555,-0.336623859,1,0,0,,0,142,142,94,1,BLANS,HB,old,z,./images/BLANSHB.png,,,,,,,,,,,,,,,,,,,,,,,,,,,,,,,,,
,,,,,,,,,,,,,,,,,60fc5ec12244a6d58297cf6a,53,2022-02-12_16h54.10.766,lexical_decision_task_DD_L5,2021.2.3,Linux armv8l,21.10684284,,,,,,,,,,1.1514,1,,,,,,,,,,,,,,,0,-0.300277388,-0.304701614,1,0,0,1.1514,button_left_main,-0.300277388,-0.304701614,1,0,0,,0,143,143,124,1,TUNCH,HB,old,z,./images/TUNCHHB.png,,,,,,,,,,,,,,,,,,,,,,,,,,,,,,,,,
,,,,,,,,,,,,,,,,,60fc5ec12244a6d58297cf6a,53,2022-02-12_16h54.10.766,lexical_decision_task_DD_L5,2021.2.3,Linux armv8l,21.10684284,,,,,,,,,,0.9985,1,,,,,,,,,,,,,,,0,-0.2808599,-0.351891041,1,0,0,0.9985,button_left_main,-0.2808599,-0.351891041,1,0,0,,0,144,144,143,1,MONGS,LB,old,z,./images/MONGSLB.png,,,,,,,,,,,,,,,,,,,,,,,,,,,,,,,,,
,,,,,,,,,,,,,,,,,60fc5ec12244a6d58297cf6a,53,2022-02-12_16h54.10.766,lexical_decision_task_DD_L5,2021.2.3,Linux armv8l,21.10684284,,,,,,,,,,0.9934,1,,,,,,,,,,,,,,,0,0.266990328,-0.328296375,1,0,0,0.9934,button_right_main,0.266990328,-0.328296375,1,0,0,,0,145,145,11,1,MEDAL,C,old,m,./images/MEDAL.png,,,,,,,,,,,,,,,,,,,,,,,,,,,,,,,,,
,,,,,,,,,,,,,,,,,60fc5ec12244a6d58297cf6a,53,2022-02-12_16h54.10.766,lexical_decision_task_DD_L5,2021.2.3,Linux armv8l,21.10684284,,,,,,,,,,1.4219,1,,,,,,,,,,,,,,,0,-0.326629674,-0.361606503,1,0,0,1.4219,button_left_main,-0.326629674,-0.361606503,1,0,0,,0,146,146,142,1,PLASK,HB,old,z,./images/PLASKHB.png,,,,,,,,,,,,,,,,,,,,,,,,,,,,,,,,,
,,,,,,,,,,,,,,,,,60fc5ec12244a6d58297cf6a,53,2022-02-12_16h54.10.766,lexical_decision_task_DD_L5,2021.2.3,Linux armv8l,21.10684284,,,,,,,,,,1.247,1,,,,,,,,,,,,,,,0,-0.34188627,-0.326908398,1,0,0,1.247,button_left_main,-0.34188627,-0.326908398,1,0,0,,0,147,147,134,1,TROSS,LB,old,z,./images/TROSSLB.png,,,,,,,,,,,,,,,,,,,,,,,,,,,,,,,,,
,,,,,,,,,,,,,,,,,60fc5ec12244a6d58297cf6a,53,2022-02-12_16h54.10.766,lexical_decision_task_DD_L5,2021.2.3,Linux armv8l,21.10684284,,,,,,,,,,2.3826,1,,,,,,,,,,,,,,,0,0.314146996,-0.292210197,1,0,0,2.3826,button_right_main,0.314146996,-0.292210197,1,0,0,,0,148,148,20,1,GRANNY,C,old,m,./images/GRANNY.png,,,,,,,,,,,,,,,,,,,,,,,,,,,,,,,,,
,,,,,,,,,,,,,,,,,60fc5ec12244a6d58297cf6a,53,2022-02-12_16h54.10.766,lexical_decision_task_DD_L5,2021.2.3,Linux armv8l,21.10684284,,,,,,,,,,1.0602,1,,,,,,,,,,,,,,,0,-0.346047151,-0.361606503,1,0,0,1.0602,button_left_main,-0.346047151,-0.361606503,1,0,0,,0,149,149,89,1,DRIEK,LB,old,z,./images/DRIEKLB.png,,,,,,,,,,,,,,,,,,,,,,,,,,,,,,,,,
,,,,,,,,,,,,,,,,,60fc5ec12244a6d58297cf6a,53,2022-02-12_16h54.10.766,lexical_decision_task_DD_L5,2021.2.3,Linux armv8l,21.10684284,,,,,,,,,,1.1986,1,,,,,,,,,,,,,,,0,0.332177544,-0.315804958,1,0,0,1.1986,button_right_main,0.332177544,-0.315804958,1,0,0,,0,150,150,63,1,BAKER,HB,old,m,./images/BAKERHB.png,,,,,,,,,,,,,,,,,,,,,,,,,,,,,,,,,
,,,,,,,,,,,,,,,,,60fc5ec12244a6d58297cf6a,53,2022-02-12_16h54.10.766,lexical_decision_task_DD_L5,2021.2.3,Linux armv8l,21.10684284,,,,,,,,,,1.3711,1,,,,,,,,,,,,,,,0,-0.309986138,-0.342175579,1,0,0,1.3711,button_left_main,-0.309986138,-0.342175579,1,0,0,,0,151,151,147,1,ZOLES,C,old,z,./images/ZOLES.png,,,,,,,,,,,,,,,,,,,,,,,,,,,,,,,,,
,,,,,,,,,,,,,,,,,60fc5ec12244a6d58297cf6a,53,2022-02-12_16h54.10.766,lexical_decision_task_DD_L5,2021.2.3,Linux armv8l,21.10684284,,,,,,,,,,1.2463,1,,,,,,,,,,,,,,,0,0.294729519,-0.32274456,1,0,0,1.2463,button_right_main,0.294729519,-0.32274456,1,0,0,,0,152,152,9,1,DIVER,HB,old,m,./images/DIVERHB.png,,,,,,,,,,,,,,,,,,,,,,,,,,,,,,,,,
,,,,,,,,,,,,,,,,,60fc5ec12244a6d58297cf6a,53,2022-02-12_16h54.10.766,lexical_decision_task_DD_L5,2021.2.3,Linux armv8l,21.10684284,,,,,,,,,,1.1844,1,,,,,,,,,,,,,,,0,-0.304438269,-0.332460117,1,0,0,1.1844,button_left_main,-0.304438269,-0.332460117,1,0,0,,0,153,153,162,1,LEICH,C,old,z,./images/LEICH.png,,,,,,,,,,,,,,,,,,,,,,,,,,,,,,,,,
,,,,,,,,,,,,,,,,,60fc5ec12244a6d58297cf6a,53,2022-02-12_16h54.10.766,lexical_decision_task_DD_L5,2021.2.3,Linux armv8l,21.10684284,,,,,,,,,,1.1043,1,,,,,,,,,,,,,,,0,0.330790615,-0.281106853,1,0,0,1.1043,button_right_main,0.330790615,-0.281106853,1,0,0,,0,154,154,81,1,DRILL,HB,old,m,./images/DRILLHB.png,,,,,,,,,,,,,,,,,,,,,,,,,,,,,,,,,
,,,,,,,,,,,,,,,,,60fc5ec12244a6d58297cf6a,53,2022-02-12_16h54.10.766,lexical_decision_task_DD_L5,2021.2.3,Linux armv8l,21.10684284,,,,,,,,,,1.1823,1,,,,,,,,,,,,,,,0,0.340499306,-0.314416981,1,0,0,1.1823,button_right_main,0.340499306,-0.314416981,1,0,0,,0,155,155,29,1,PISTOL,C,old,m,./images/PISTOL.png,,,,,,,,,,,,,,,,,,,,,,,,,,,,,,,,,
,,,,,,,,,,,,,,,,,60fc5ec12244a6d58297cf6a,53,2022-02-12_16h54.10.766,lexical_decision_task_DD_L5,2021.2.3,Linux armv8l,21.10684284,,,,,,,,,,1.232,1,,,,,,,,,,,,,,,0,-0.344660187,-0.350503254,1,0,0,1.232,button_left_main,-0.344660187,-0.350503254,1,0,0,,0,156,156,93,1,SMONE,C,old,z,./images/SMONE.png,,,,,,,,,,,,,,,,,,,,,,,,,,,,,,,,,
,,,,,,,,,,,,,,,,,60fc5ec12244a6d58297cf6a,53,2022-02-12_16h54.10.766,lexical_decision_task_DD_L5,2021.2.3,Linux armv8l,21.10684284,,,,,,,,,,1.2768,1,,,,,,,,,,,,,,,0,-0.329403603,-0.321356678,1,0,0,1.2768,button_left_main,-0.329403603,-0.321356678,1,0,0,,0,157,157,109,1,BURGE,HB,old,z,./images/BURGEHB.png,,,,,,,,,,,,,,,,,,,,,,,,,,,,,,,,,
,,,,,,,,,,,,,,,,,60fc5ec12244a6d58297cf6a,53,2022-02-12_16h54.10.766,lexical_decision_task_DD_L5,2021.2.3,Linux armv8l,21.10684284,,,,,,,,,,3.9374,1,,,,,,,,,,,,,,,0,0.315534019,-0.332460117,1,0,0,3.9374,button_right_main,0.315534019,-0.332460117,1,0,0,,0,158,158,75,1,HAMMER,HB,old,m,./images/HAMMERHB.png,,,,,,,,,,,,,,,,,,,,,,,,,,,,,,,,,
,,,,,,,,,,,,,,,,,60fc5ec12244a6d58297cf6a,53,2022-02-12_16h54.10.766,lexical_decision_task_DD_L5,2021.2.3,Linux armv8l,21.10684284,,,,,,,,,,0.8169,0,,,,,,,,,,,,,,,0,-0.291955614,-0.360218525,1,0,0,0.8169,button_left_main,-0.291955614,-0.360218525,1,0,0,,0,159,159,18,1,PARCEL,HB,old,m,./images/PARCELHB.png,,,,,,,,,,,,,,,,,,,,,,,,,,,,,,,,,
,,,,,,,,,,,,,,,,,60fc5ec12244a6d58297cf6a,53,2022-02-12_16h54.10.766,lexical_decision_task_DD_L5,2021.2.3,Linux armv8l,21.10684284,,,,,,,,,,1.0242,1,,,,,,,,,,,,,,,0,0.298890448,-0.310253334,1,0,0,1.0242,button_right_main,0.298890448,-0.310253334,1,0,0,,0,160,160,54,1,CHERRY,HB,old,m,./images/CHERRYHB.png,,,,,,,,,,,,,,,,,,,,,,,,,,,,,,,,,
,,,,,,,,,,,,,,,,,60fc5ec12244a6d58297cf6a,53,2022-02-12_16h54.10.766,lexical_decision_task_DD_L5,2021.2.3,Linux armv8l,21.10684284,,,,,,,,,,0.8971,1,,,,,,,,,,,,,,,0,0.279472971,-0.324132538,1,0,0,0.8971,button_right_main,0.279472971,-0.324132538,1,0,0,,0,161,161,51,1,SAUCE,HB,old,m,./images/SAUCEHB.png,,,,,,,,,,,,,,,,,,,,,,,,,,,,,,,,,
,,,,,,,,,,,,,,,,,60fc5ec12244a6d58297cf6a,53,2022-02-12_16h54.10.766,lexical_decision_task_DD_L5,2021.2.3,Linux armv8l,21.10684284,,,,,,,,,,0.7875,1,,,,,,,,,,,,,,,0,0.25728159,-0.303313637,1,0,0,0.7875,button_right_main,0.25728159,-0.303313637,1,0,0,,0,162,162,7,1,WAGON,LB,old,m,./images/WAGONLB.png,,,,,,,,,,,,,,,,,,,,,,,,,,,,,,,,,
,,,,,,,,,,,,,,,,,60fc5ec12244a6d58297cf6a,53,2022-02-12_16h54.10.766,lexical_decision_task_DD_L5,2021.2.3,Linux armv8l,21.10684284,,,,,,,,,,0.801,1,,,,,,,,,,,,,,,0,0.307212257,-0.33107214,1,0,0,0.801,button_right_main,0.307212257,-0.33107214,1,0,0,,0,163,163,40,1,SNAKE,LB,old,m,./images/SNAKELB.png,,,,,,,,,,,,,,,,,,,,,,,,,,,,,,,,,
,,,,,,,,,,,,,,,,,60fc5ec12244a6d58297cf6a,53,2022-02-12_16h54.10.766,lexical_decision_task_DD_L5,2021.2.3,Linux armv8l,21.10684284,,,,,,,,,,1.1071,1,,,,,,,,,,,,,,,0,-0.336338413,-0.303313637,1,0,0,1.1071,button_left_main,-0.336338413,-0.303313637,1,0,0,,0,164,164,154,1,THINT,HB,old,z,./images/THINTHB.png,,,,,,,,,,,,,,,,,,,,,,,,,,,,,,,,,
,,,,,,,,,,,,,,,,,60fc5ec12244a6d58297cf6a,53,2022-02-12_16h54.10.766,lexical_decision_task_DD_L5,2021.2.3,Linux armv8l,21.10684284,,,,,,,,,,1.2793,1,,,,,,,,,,,,,,,0,-0.380721223,-0.300537777,1,0,0,1.2793,button_left_main,-0.380721223,-0.300537777,1,0,0,,0,165,165,153,1,CLUPS,C,old,z,./images/CLUPS.png,,,,,,,,,,,,,,,,,,,,,,,,,,,,,,,,,
,,,,,,,,,,,,,,,,,60fc5ec12244a6d58297cf6a,53,2022-02-12_16h54.10.766,lexical_decision_task_DD_L5,2021.2.3,Linux armv8l,21.10684284,,,,,,,,,,1.2129,1,,,,,,,,,,,,,,,0,-0.278085971,-0.349115181,1,0,0,1.2129,button_left_main,-0.278085971,-0.349115181,1,0,0,,0,166,166,100,1,DRIBS,HB,old,z,./images/DRIBSHB.png,,,,,,,,,,,,,,,,,,,,,,,,,,,,,,,,,
,,,,,,,,,,,,,,,,,60fc5ec12244a6d58297cf6a,53,2022-02-12_16h54.10.766,lexical_decision_task_DD_L5,2021.2.3,Linux armv8l,21.10684284,,,,,,,,,,0.9605,1,,,,,,,,,,,,,,,0,0.375173378,-0.315804958,1,0,0,0.9605,button_right_main,0.375173378,-0.315804958,1,0,0,,0,167,167,56,1,HEATER,C,old,m,./images/HEATER.png,,,,,,,,,,,,,,,,,,,,,,,,,,,,,,,,,
,,,,,,,,,,,,,,,,,60fc5ec12244a6d58297cf6a,53,2022-02-12_16h54.10.766,lexical_decision_task_DD_L5,2021.2.3,Linux armv8l,21.10684284,,,,,,,,,,,,,,,,,,,,,,,,,,,,,,,,,,,,,,,,,,,,,,How likely will it be that you will recognize the words presented slighly blurred on a scale of 0 (not likely) to 100 (most likely)?,,,,,-0.031206656,-0.42406311,1,0,0,jol_adv,1,21.702,0,0,0,1,1,,,,,,,,,,,,,,,,,,,
,,,,,,,,,,,,,,,,,60fc5ec12244a6d58297cf6a,53,2022-02-12_16h54.10.766,lexical_decision_task_DD_L5,2021.2.3,Linux armv8l,21.10684284,,,,,,,,,,,,,,,,,,,,,,,,,,,,,,,,,,,,,,,,,,,,,,How likely will it be that you will recognize the words presented very blurred on a scale of 0 (not likely) to 100 (most likely)?,,,,,,,,,,,3,1.0404,0,1,1,2,1,,,,,,,,,,,,,,,,,,,
,,,,,,,,,,,,,,,,,60fc5ec12244a6d58297cf6a,53,2022-02-12_16h54.10.766,lexical_decision_task_DD_L5,2021.2.3,Linux armv8l,21.10684284,,,,,,,,,,,,,,,,,,,,,,,,,,,,,,,,,,,,,,,,,,,,,,How likely will it be that you will recognize the words presented clearly on a scale of 0 (not likely) to 100 (most likely)?,,,,,,,,,,,1,1.4728,0,2,2,0,1,,,,,,,,,,,,,,,,,,,
,-0.025658798,-0.382425404,1,0,0,instr_done_button,,,,,,1,test,"In the next phase you will be presented with the words from the the first phase. Your job is to decide whether you remember seeing the word or not. If you remember seeing the word press ""old"" or type ""m"". If you do not remember seeing the word press ""new"" or type ""z"". Please press the space bar or click on continue to begin. ",,,60fc5ec12244a6d58297cf6a,53,2022-02-12_16h54.10.766,lexical_decision_task_DD_L5,2021.2.3,Linux armv8l,21.10684284,,,,,,,,,,,,,,,,,,,,,,,,,,,,,,,,,,,,,,,,,,,,,,,,,,,,,,,,,,,,,,,,0,0,0,0,1,,,,,,,,,,,,,,
,-0.007628298,-0.440718269,1,0,0,instr_done_button,,,,,,1,test,"In the next phase you will be presented with the words from the the first phase. Your job is to decide whether you remember seeing the word or not. If you remember seeing the word press ""old"" or type ""m"". If you do not remember seeing the word press ""new"" or type ""z"". Please press the space bar or click on continue to begin. ",,,60fc5ec12244a6d58297cf6a,53,2022-02-12_16h54.10.766,lexical_decision_task_DD_L5,2021.2.3,Linux armv8l,21.10684284,,,,,,,,,,,,,,,,,,,,,,,,,,,,,,,,,,,,,,,,,,,,,,,,,,,,,,,,,,,,,,,,1,0,1,0,1,,,,,,,,,,,,,,
,-0.029819632,-0.421287251,1,0,0,instr_done_button,,,,,,1,test,"In the next phase you will be presented with the words from the the first phase. Your job is to decide whether you remember seeing the word or not. If you remember seeing the word press ""old"" or type ""m"". If you do not remember seeing the word press ""new"" or type ""z"". Please press the space bar or click on continue to begin. ",,,60fc5ec12244a6d58297cf6a,53,2022-02-12_16h54.10.766,lexical_decision_task_DD_L5,2021.2.3,Linux armv8l,21.10684284,,,,,,,,,,,,,,,,,,,,,,,,,,,,,,,,,,,,,,,,,,,,,,,,,,,,,,,,,,,,,,,,2,0,2,0,1,,,,,,,,,,,,,,
,-0.025658798,-0.403244305,1,0,0,instr_done_button,,,,,,1,test,"In the next phase you will be presented with the words from the the first phase. Your job is to decide whether you remember seeing the word or not. If you remember seeing the word press ""old"" or type ""m"". If you do not remember seeing the word press ""new"" or type ""z"". Please press the space bar or click on continue to begin. ",,,60fc5ec12244a6d58297cf6a,53,2022-02-12_16h54.10.766,lexical_decision_task_DD_L5,2021.2.3,Linux armv8l,21.10684284,,,,,,,,,,,,,,,,,,,,,,,,,,,,,,,,,,,,,,,,,,,,,,,,,,,,,,,,,,,,,,,,3,0,3,0,1,,,,,,,,,,,,,,
,-0.009015226,-0.375485706,1,0,0,instr_done_button,,,,,,1,test,"In the next phase you will be presented with the words from the the first phase. Your job is to decide whether you remember seeing the word or not. If you remember seeing the word press ""old"" or type ""m"". If you do not remember seeing the word press ""new"" or type ""z"". Please press the space bar or click on continue to begin. ",,,60fc5ec12244a6d58297cf6a,53,2022-02-12_16h54.10.766,lexical_decision_task_DD_L5,2021.2.3,Linux armv8l,21.10684284,,,,,,,,,,,,,,,,,,,,,,,,,,,,,,,,,,,,,,,,,,,,,,,,,,,,,,,,,,,,,,,,4,0,4,0,1,,,,,,,,,,,,,,
,,,,,,,,,,,,,,,,,60fc5ec12244a6d58297cf6a,53,2022-02-12_16h54.10.766,lexical_decision_task_DD_L5,2021.2.3,Linux armv8l,21.10684284,,,,,,,,,,3.3312,1,,,,,,,,,,,,,,,,,,,,,,,0.330790615,-0.294986153,1,0,0,,,,,,,SLOPE,HB,m,y,./images/SLOPEHB.png,,,,,,,,,,,,,,,,,,,,,0,0.330790615,-0.294986153,1,0,0,3.3312,button_right_test,0,0,0,30,1
,,,,,,,,,,,,,,,,,60fc5ec12244a6d58297cf6a,53,2022-02-12_16h54.10.766,lexical_decision_task_DD_L5,2021.2.3,Linux armv8l,21.10684284,,,,,,,,,,5.54,1,,,,,,,,,,,,,,,,,,,,,,,0.297503519,-0.300537777,1,0,0,,,,,,,POKER,LB,m,y,./images/POKERLB.png,,,,,,,,,,,,,,,,,,,,,0,0.297503519,-0.300537777,1,0,0,5.54,button_right_test,0,1,1,67,1
,,,,,,,,,,,,,,,,,60fc5ec12244a6d58297cf6a,53,2022-02-12_16h54.10.766,lexical_decision_task_DD_L5,2021.2.3,Linux armv8l,21.10684284,,,,,,,,,,1.0304,1,,,,,,,,,,,,,,,,,,,,,,,0.365464592,-0.288046551,1,0,0,,,,,,,HOCKEY,C,m,y,./images/HOCKEY.png,,,,,,,,,,,,,,,,,,,,,0,0.365464592,-0.288046551,1,0,0,1.0304,button_right_test,0,2,2,32,1
,,,,,,,,,,,,,,,,,60fc5ec12244a6d58297cf6a,53,2022-02-12_16h54.10.766,lexical_decision_task_DD_L5,2021.2.3,Linux armv8l,21.10684284,,,,,,,,,,0.9404,1,,,,,,,,,,,,,,,,,,,,,,,0.301664448,-0.324132538,1,0,0,,,,,,,ENGINE,C,m,y,./images/ENGINE.png,,,,,,,,,,,,,,,,,,,,,0,0.301664448,-0.324132538,1,0,0,0.9404,button_right_test,0,3,3,38,1
,,,,,,,,,,,,,,,,,60fc5ec12244a6d58297cf6a,53,2022-02-12_16h54.10.766,lexical_decision_task_DD_L5,2021.2.3,Linux armv8l,21.10684284,,,,,,,,,,0.7859,0,,,,,,,,,,,,,,,,,,,,,,,0.303051472,-0.325520515,1,0,0,,,,,,,BELLY,LB,z,y,./images/BELLYLB.png,,,,,,,,,,,,,,,,,,,,,0,0.303051472,-0.325520515,1,0,0,0.7859,button_right_test,0,4,4,94,1
,,,,,,,,,,,,,,,,,60fc5ec12244a6d58297cf6a,53,2022-02-12_16h54.10.766,lexical_decision_task_DD_L5,2021.2.3,Linux armv8l,21.10684284,,,,,,,,,,0.641,1,,,,,,,,,,,,,,,,,,,,,,,0.304438305,-0.303313637,1,0,0,,,,,,,JUMPER,C,m,y,./images/JUMPER.png,,,,,,,,,,,,,,,,,,,,,0,0.304438305,-0.303313637,1,0,0,0.641,button_right_test,0,5,5,74,1
,,,,,,,,,,,,,,,,,60fc5ec12244a6d58297cf6a,53,2022-02-12_16h54.10.766,lexical_decision_task_DD_L5,2021.2.3,Linux armv8l,21.10684284,,,,,,,,,,0.7939,0,,,,,,,,,,,,,,,,,,,,,,,0.304438305,-0.304701614,1,0,0,,,,,,,SAILOR,LB,z,y,./images/SAILORLB.png,,,,,,,,,,,,,,,,,,,,,0,0.304438305,-0.304701614,1,0,0,0.7939,button_right_test,0,6,6,151,1
,,,,,,,,,,,,,,,,,60fc5ec12244a6d58297cf6a,53,2022-02-12_16h54.10.766,lexical_decision_task_DD_L5,2021.2.3,Linux armv8l,21.10684284,,,,,,,,,,0.6935,0,,,,,,,,,,,,,,,,,,,,,,,0.303051472,-0.304701614,1,0,0,,,,,,,SHORE,HB,z,y,./images/SHOREHB.png,,,,,,,,,,,,,,,,,,,,,0,0.303051472,-0.304701614,1,0,0,0.6935,button_right_test,0,7,7,96,1
,,,,,,,,,,,,,,,,,60fc5ec12244a6d58297cf6a,53,2022-02-12_16h54.10.766,lexical_decision_task_DD_L5,2021.2.3,Linux armv8l,21.10684284,,,,,,,,,,0.6591,1,,,,,,,,,,,,,,,,,,,,,,,0.34188633,-0.303313637,1,0,0,,,,,,,BASKET,C,m,y,./images/BASKET.png,,,,,,,,,,,,,,,,,,,,,0,0.34188633,-0.303313637,1,0,0,0.6591,button_right_test,0,8,8,44,1
,,,,,,,,,,,,,,,,,60fc5ec12244a6d58297cf6a,53,2022-02-12_16h54.10.766,lexical_decision_task_DD_L5,2021.2.3,Linux armv8l,21.10684284,,,,,,,,,,1.1448,1,,,,,,,,,,,,,,,,,,,,,,,0.340499306,-0.303313637,1,0,0,,,,,,,FLASK,HB,m,y,./images/FLASKHB.png,,,,,,,,,,,,,,,,,,,,,0,0.340499306,-0.303313637,1,0,0,1.1448,button_right_test,0,9,9,72,1
,,,,,,,,,,,,,,,,,60fc5ec12244a6d58297cf6a,53,2022-02-12_16h54.10.766,lexical_decision_task_DD_L5,2021.2.3,Linux armv8l,21.10684284,,,,,,,,,,0.722,1,,,,,,,,,,,,,,,,,,,,,,,0.321081924,-0.297762012,1,0,0,,,,,,,BAKER,HB,m,y,./images/BAKERHB.png,,,,,,,,,,,,,,,,,,,,,0,0.321081924,-0.297762012,1,0,0,0.722,button_right_test,0,10,10,63,1
,,,,,,,,,,,,,,,,,60fc5ec12244a6d58297cf6a,53,2022-02-12_16h54.10.766,lexical_decision_task_DD_L5,2021.2.3,Linux armv8l,21.10684284,,,,,,,,,,0.6934,1,,,,,,,,,,,,,,,,,,,,,,,0.322468853,-0.325520515,1,0,0,,,,,,,PILOT,C,m,y,./images/PILOT.png,,,,,,,,,,,,,,,,,,,,,0,0.322468853,-0.325520515,1,0,0,0.6934,button_right_test,0,11,11,50,1
,,,,,,,,,,,,,,,,,60fc5ec12244a6d58297cf6a,53,2022-02-12_16h54.10.766,lexical_decision_task_DD_L5,2021.2.3,Linux armv8l,21.10684284,,,,,,,,,,1.0022,0,,,,,,,,,,,,,,,,,,,,,,,0.296116543,-0.306089497,1,0,0,,,,,,,PLANK,LB,z,y,./images/PLANKLB.png,,,,,,,,,,,,,,,,,,,,,0,0.296116543,-0.306089497,1,0,0,1.0022,button_right_test,0,12,12,85,1
,,,,,,,,,,,,,,,,,60fc5ec12244a6d58297cf6a,53,2022-02-12_16h54.10.766,lexical_decision_task_DD_L5,2021.2.3,Linux armv8l,21.10684284,,,,,,,,,,0.687,0,,,,,,,,,,,,,,,,,,,,,,,0.321081924,-0.317192936,1,0,0,,,,,,,JUNGLE,C,z,y,./images/JUNGLE.png,,,,,,,,,,,,,,,,,,,,,0,0.321081924,-0.317192936,1,0,0,0.687,button_right_test,0,13,13,167,1
,,,,,,,,,,,,,,,,,60fc5ec12244a6d58297cf6a,53,2022-02-12_16h54.10.766,lexical_decision_task_DD_L5,2021.2.3,Linux armv8l,21.10684284,,,,,,,,,,0.6553,0,,,,,,,,,,,,,,,,,,,,,,,0.318307972,-0.321356678,1,0,0,,,,,,,FINGER,HB,z,y,./images/FINGERHB.png,,,,,,,,,,,,,,,,,,,,,0,0.318307972,-0.321356678,1,0,0,0.6553,button_right_test,0,14,14,87,1
,,,,,,,,,,,,,,,,,60fc5ec12244a6d58297cf6a,53,2022-02-12_16h54.10.766,lexical_decision_task_DD_L5,2021.2.3,Linux armv8l,21.10684284,,,,,,,,,,0.9273,0,,,,,,,,,,,,,,,,,,,,,,,0.318307972,-0.321356678,1,0,0,,,,,,,CRUST,LB,z,y,./images/CRUSTLB.png,,,,,,,,,,,,,,,,,,,,,0,0.318307972,-0.321356678,1,0,0,0.9273,button_right_test,0,15,15,163,1
,,,,,,,,,,,,,,,,,60fc5ec12244a6d58297cf6a,53,2022-02-12_16h54.10.766,lexical_decision_task_DD_L5,2021.2.3,Linux armv8l,21.10684284,,,,,,,,,,0.657,1,,,,,,,,,,,,,,,,,,,,,,,0.297503519,-0.297762012,1,0,0,,,,,,,TOWEL,LB,m,y,./images/TOWELLB.png,,,,,,,,,,,,,,,,,,,,,0,0.297503519,-0.297762012,1,0,0,0.657,button_right_test,0,16,16,1,1
,,,,,,,,,,,,,,,,,60fc5ec12244a6d58297cf6a,53,2022-02-12_16h54.10.766,lexical_decision_task_DD_L5,2021.2.3,Linux armv8l,21.10684284,,,,,,,,,,0.6899,0,,,,,,,,,,,,,,,,,,,,,,,0.298890448,-0.297762012,1,0,0,,,,,,,CRADLE,C,z,y,./images/CRADLE.png,,,,,,,,,,,,,,,,,,,,,0,0.298890448,-0.297762012,1,0,0,0.6899,button_right_test,0,17,17,104,1
,,,,,,,,,,,,,,,,,60fc5ec12244a6d58297cf6a,53,2022-02-12_16h54.10.766,lexical_decision_task_DD_L5,2021.2.3,Linux armv8l,21.10684284,,,,,,,,,,0.6443,1,,,,,,,,,,,,,,,,,,,,,,,0.300277424,-0.347727299,1,0,0,,,,,,,MEDAL,C,m,y,./images/MEDAL.png,,,,,,,,,,,,,,,,,,,,,0,0.300277424,-0.347727299,1,0,0,0.6443,button_right_test,0,18,18,11,1
,,,,,,,,,,,,,,,,,60fc5ec12244a6d58297cf6a,53,2022-02-12_16h54.10.766,lexical_decision_task_DD_L5,2021.2.3,Linux armv8l,21.10684284,,,,,,,,,,0.6406,0,,,,,,,,,,,,,,,,,,,,,,,0.309986115,-0.294986153,1,0,0,,,,,,,COUCH,C,z,y,./images/COUCH.png,,,,,,,,,,,,,,,,,,,,,0,0.309986115,-0.294986153,1,0,0,0.6406,button_right_test,0,19,19,161,1
,,,,,,,,,,,,,,,,,60fc5ec12244a6d58297cf6a,53,2022-02-12_16h54.10.766,lexical_decision_task_DD_L5,2021.2.3,Linux armv8l,21.10684284,,,,,,,,,,0.6737,1,,,,,,,,,,,,,,,,,,,,,,,0.309986115,-0.299149895,1,0,0,,,,,,,ARTIST,LB,m,y,./images/ARTISTLB.png,,,,,,,,,,,,,,,,,,,,,0,0.309986115,-0.299149895,1,0,0,0.6737,button_right_test,0,20,20,61,1
,,,,,,,,,,,,,,,,,60fc5ec12244a6d58297cf6a,53,2022-02-12_16h54.10.766,lexical_decision_task_DD_L5,2021.2.3,Linux armv8l,21.10684284,,,,,,,,,,0.595,0,,,,,,,,,,,,,,,,,,,,,,,0.308599186,-0.299149895,1,0,0,,,,,,,SNACK,LB,z,y,./images/SNACKLB.png,,,,,,,,,,,,,,,,,,,,,0,0.308599186,-0.299149895,1,0,0,0.595,button_right_test,0,21,21,157,1
,,,,,,,,,,,,,,,,,60fc5ec12244a6d58297cf6a,53,2022-02-12_16h54.10.766,lexical_decision_task_DD_L5,2021.2.3,Linux armv8l,21.10684284,,,,,,,,,,0.6417,1,,,,,,,,,,,,,,,,,,,,,,,0.334951496,-0.306089497,1,0,0,,,,,,,COLLAR,HB,m,y,./images/COLLARHB.png,,,,,,,,,,,,,,,,,,,,,0,0.334951496,-0.306089497,1,0,0,0.6417,button_right_test,0,22,22,15,1
,,,,,,,,,,,,,,,,,60fc5ec12244a6d58297cf6a,53,2022-02-12_16h54.10.766,lexical_decision_task_DD_L5,2021.2.3,Linux armv8l,21.10684284,,,,,,,,,,0.5489,0,,,,,,,,,,,,,,,,,,,,,,,0.311373138,-0.315804958,1,0,0,,,,,,,CARPET,C,z,y,./images/CARPET.png,,,,,,,,,,,,,,,,,,,,,0,0.311373138,-0.315804958,1,0,0,0.5489,button_right_test,0,23,23,137,1
,,,,,,,,,,,,,,,,,60fc5ec12244a6d58297cf6a,53,2022-02-12_16h54.10.766,lexical_decision_task_DD_L5,2021.2.3,Linux armv8l,21.10684284,,,,,,,,,,0.7216,1,,,,,,,,,,,,,,,,,,,,,,,0.296116543,-0.285270596,1,0,0,,,,,,,ARROW,HB,m,y,./images/ARROWHB.png,,,,,,,,,,,,,,,,,,,,,0,0.296116543,-0.285270596,1,0,0,0.7216,button_right_test,0,24,24,69,1
,,,,,,,,,,,,,,,,,60fc5ec12244a6d58297cf6a,53,2022-02-12_16h54.10.766,lexical_decision_task_DD_L5,2021.2.3,Linux armv8l,21.10684284,,,,,,,,,,0.8124,1,,,,,,,,,,,,,,,,,,,,,,,0.271151209,-0.310253334,1,0,0,,,,,,,SNAKE,LB,m,y,./images/SNAKELB.png,,,,,,,,,,,,,,,,,,,,,0,0.271151209,-0.310253334,1,0,0,0.8124,button_right_test,0,25,25,40,1
,,,,,,,,,,,,,,,,,60fc5ec12244a6d58297cf6a,53,2022-02-12_16h54.10.766,lexical_decision_task_DD_L5,2021.2.3,Linux armv8l,21.10684284,,,,,,,,,,0.8645,0,,,,,,,,,,,,,,,,,,,,,,,0.308599186,-0.301925755,1,0,0,,,,,,,LIZARD,C,z,y,./images/LIZARD.png,,,,,,,,,,,,,,,,,,,,,0,0.308599186,-0.301925755,1,0,0,0.8645,button_right_test,0,26,26,128,1
,,,,,,,,,,,,,,,,,60fc5ec12244a6d58297cf6a,53,2022-02-12_16h54.10.766,lexical_decision_task_DD_L5,2021.2.3,Linux armv8l,21.10684284,,,,,,,,,,0.7974,1,,,,,,,,,,,,,,,,,,,,,,,0.301664448,-0.324132538,1,0,0,,,,,,,BROOM,HB,m,y,./images/BROOMHB.png,,,,,,,,,,,,,,,,,,,,,0,0.301664448,-0.324132538,1,0,0,0.7974,button_right_test,0,27,27,78,1
,,,,,,,,,,,,,,,,,60fc5ec12244a6d58297cf6a,53,2022-02-12_16h54.10.766,lexical_decision_task_DD_L5,2021.2.3,Linux armv8l,21.10684284,,,,,,,,,,0.6249,1,,,,,,,,,,,,,,,,,,,,,,,0.303051472,-0.286658573,1,0,0,,,,,,,CLOTH,C,m,y,./images/CLOTH.png,,,,,,,,,,,,,,,,,,,,,0,0.303051472,-0.286658573,1,0,0,0.6249,button_right_test,0,28,28,23,1
,,,,,,,,,,,,,,,,,60fc5ec12244a6d58297cf6a,53,2022-02-12_16h54.10.766,lexical_decision_task_DD_L5,2021.2.3,Linux armv8l,21.10684284,,,,,,,,,,0.6862,1,,,,,,,,,,,,,,,,,,,,,,,0.286407804,-0.306089497,1,0,0,,,,,,,TIGER,LB,m,y,./images/TIGERLB.png,,,,,,,,,,,,,,,,,,,,,0,0.286407804,-0.306089497,1,0,0,0.6862,button_right_test,0,29,29,37,1
,,,,,,,,,,,,,,,,,60fc5ec12244a6d58297cf6a,53,2022-02-12_16h54.10.766,lexical_decision_task_DD_L5,2021.2.3,Linux armv8l,21.10684284,,,,,,,,,,0.7036,1,,,,,,,,,,,,,,,,,,,,,,,0.296116543,-0.290822315,1,0,0,,,,,,,STOOL,LB,m,y,./images/STOOLLB.png,,,,,,,,,,,,,,,,,,,,,0,0.296116543,-0.290822315,1,0,0,0.7036,button_right_test,0,30,30,43,1
,,,,,,,,,,,,,,,,,60fc5ec12244a6d58297cf6a,53,2022-02-12_16h54.10.766,lexical_decision_task_DD_L5,2021.2.3,Linux armv8l,21.10684284,,,,,,,,,,0.7342,1,,,,,,,,,,,,,,,,,,,,,,,0.307212257,-0.304701614,1,0,0,,,,,,,BISHOP,LB,m,y,./images/BISHOPLB.png,,,,,,,,,,,,,,,,,,,,,0,0.307212257,-0.304701614,1,0,0,0.7342,button_right_test,0,31,31,49,1
,,,,,,,,,,,,,,,,,60fc5ec12244a6d58297cf6a,53,2022-02-12_16h54.10.766,lexical_decision_task_DD_L5,2021.2.3,Linux armv8l,21.10684284,,,,,,,,,,0.6421,1,,,,,,,,,,,,,,,,,,,,,,,0.304438305,-0.281106853,1,0,0,,,,,,,POSTER,C,m,y,./images/POSTER.png,,,,,,,,,,,,,,,,,,,,,0,0.304438305,-0.281106853,1,0,0,0.6421,button_right_test,0,32,32,53,1
,,,,,,,,,,,,,,,,,60fc5ec12244a6d58297cf6a,53,2022-02-12_16h54.10.766,lexical_decision_task_DD_L5,2021.2.3,Linux armv8l,21.10684284,,,,,,,,,,0.5035,1,,,,,,,,,,,,,,,,,,,,,,,0.350207996,-0.311641216,1,0,0,,,,,,,DONKEY,LB,m,y,./images/DONKEYLB.png,,,,,,,,,,,,,,,,,,,,,0,0.350207996,-0.311641216,1,0,0,0.5035,button_right_test,0,33,33,19,1
,,,,,,,,,,,,,,,,,60fc5ec12244a6d58297cf6a,53,2022-02-12_16h54.10.766,lexical_decision_task_DD_L5,2021.2.3,Linux armv8l,21.10684284,,,,,,,,,,0.6884,1,,,,,,,,,,,,,,,,,,,,,,,0.282246923,-0.314416981,1,0,0,,,,,,,CHERRY,HB,m,y,./images/CHERRYHB.png,,,,,,,,,,,,,,,,,,,,,0,0.282246923,-0.314416981,1,0,0,0.6884,button_right_test,0,34,34,54,1
,,,,,,,,,,,,,,,,,60fc5ec12244a6d58297cf6a,53,2022-02-12_16h54.10.766,lexical_decision_task_DD_L5,2021.2.3,Linux armv8l,21.10684284,,,,,,,,,,0.5394,1,,,,,,,,,,,,,,,,,,,,,,,0.282246923,-0.314416981,1,0,0,,,,,,,SPINE,C,m,y,./images/SPINE.png,,,,,,,,,,,,,,,,,,,,,0,0.282246923,-0.314416981,1,0,0,0.5394,button_right_test,0,35,35,65,1
,,,,,,,,,,,,,,,,,60fc5ec12244a6d58297cf6a,53,2022-02-12_16h54.10.766,lexical_decision_task_DD_L5,2021.2.3,Linux armv8l,21.10684284,,,,,,,,,,0.4985,0,,,,,,,,,,,,,,,,,,,,,,,0.285020781,-0.317192936,1,0,0,,,,,,,PIMPLE,C,z,y,./images/PIMPLE.png,,,,,,,,,,,,,,,,,,,,,0,0.285020781,-0.317192936,1,0,0,0.4985,button_right_test,0,36,36,155,1
,,,,,,,,,,,,,,,,,60fc5ec12244a6d58297cf6a,53,2022-02-12_16h54.10.766,lexical_decision_task_DD_L5,2021.2.3,Linux armv8l,21.10684284,,,,,,,,,,0.5158,0,,,,,,,,,,,,,,,,,,,,,,,0.279472971,-0.283882713,1,0,0,,,,,,,KITTEN,HB,z,y,./images/KITTENHB.png,,,,,,,,,,,,,,,,,,,,,0,0.279472971,-0.283882713,1,0,0,0.5158,button_right_test,0,37,37,129,1
,,,,,,,,,,,,,,,,,60fc5ec12244a6d58297cf6a,53,2022-02-12_16h54.10.766,lexical_decision_task_DD_L5,2021.2.3,Linux armv8l,21.10684284,,,,,,,,,,0.4976,0,,,,,,,,,,,,,,,,,,,,,,,0.278085995,-0.283882713,1,0,0,,,,,,,QUILL,LB,z,y,./images/QUILLLB.png,,,,,,,,,,,,,,,,,,,,,0,0.278085995,-0.283882713,1,0,0,0.4976,button_right_test,0,38,38,115,1
,,,,,,,,,,,,,,,,,60fc5ec12244a6d58297cf6a,53,2022-02-12_16h54.10.766,lexical_decision_task_DD_L5,2021.2.3,Linux armv8l,21.10684284,,,,,,,,,,0.7073,1,,,,,,,,,,,,,,,,,,,,,,,0.307212257,-0.303313637,1,0,0,,,,,,,SAUCE,HB,m,y,./images/SAUCEHB.png,,,,,,,,,,,,,,,,,,,,,0,0.307212257,-0.303313637,1,0,0,0.7073,button_right_test,0,39,39,51,1
,,,,,,,,,,,,,,,,,60fc5ec12244a6d58297cf6a,53,2022-02-12_16h54.10.766,lexical_decision_task_DD_L5,2021.2.3,Linux armv8l,21.10684284,,,,,,,,,,0.6578,1,,,,,,,,,,,,,,,,,,,,,,,0.298890448,-0.340787601,1,0,0,,,,,,,CHALK,LB,m,y,./images/CHALKLB.png,,,,,,,,,,,,,,,,,,,,,0,0.298890448,-0.340787601,1,0,0,0.6578,button_right_test,0,40,40,25,1
,,,,,,,,,,,,,,,,,60fc5ec12244a6d58297cf6a,53,2022-02-12_16h54.10.766,lexical_decision_task_DD_L5,2021.2.3,Linux armv8l,21.10684284,,,,,,,,,,0.8305,0,,,,,,,,,,,,,,,,,,,,,,,0.014563131,-0.41157198,1,0,0,,,,,,,GRAIN,HB,z,y,./images/GRAINHB.png,break_done_button,,,,,,,,,,,,,,,,,,,,0,0.296116543,-0.360218525,1,0,0,0.8305,button_right_test,0,41,41,159,1
,,,,,,,,,,,,,,,,,60fc5ec12244a6d58297cf6a,53,2022-02-12_16h54.10.766,lexical_decision_task_DD_L5,2021.2.3,Linux armv8l,21.10684284,,,,,,,,,,0.8889,0,,,,,,,,,,,,,,,,,,,,,,,0.312760067,-0.307477379,1,0,0,,,,,,,TWINS,HB,z,y,./images/TWINSHB.png,,,,,,,,,,,,,,,,,,,,,0,0.312760067,-0.307477379,1,0,0,0.8889,button_right_test,0,42,42,144,1
,,,,,,,,,,,,,,,,,60fc5ec12244a6d58297cf6a,53,2022-02-12_16h54.10.766,lexical_decision_task_DD_L5,2021.2.3,Linux armv8l,21.10684284,,,,,,,,,,0.6406,0,,,,,,,,,,,,,,,,,,,,,,,0.294729519,-0.324132538,1,0,0,,,,,,,MOTOR,LB,z,y,./images/MOTORLB.png,,,,,,,,,,,,,,,,,,,,,0,0.294729519,-0.324132538,1,0,0,0.6406,button_right_test,0,43,43,97,1
,,,,,,,,,,,,,,,,,60fc5ec12244a6d58297cf6a,53,2022-02-12_16h54.10.766,lexical_decision_task_DD_L5,2021.2.3,Linux armv8l,21.10684284,,,,,,,,,,0.6119,1,,,,,,,,,,,,,,,,,,,,,,,0.289181709,-0.300537777,1,0,0,,,,,,,VALLEY,C,m,y,./images/VALLEY.png,,,,,,,,,,,,,,,,,,,,,0,0.289181709,-0.300537777,1,0,0,0.6119,button_right_test,0,44,44,68,1
,,,,,,,,,,,,,,,,,60fc5ec12244a6d58297cf6a,53,2022-02-12_16h54.10.766,lexical_decision_task_DD_L5,2021.2.3,Linux armv8l,21.10684284,,,,,,,,,,0.7378,1,,,,,,,,,,,,,,,,,,,,,,,0.271151209,-0.333848,1,0,0,,,,,,,CLIFF,C,m,y,./images/CLIFF.png,,,,,,,,,,,,,,,,,,,,,0,0.271151209,-0.333848,1,0,0,0.7378,button_right_test,0,45,45,8,1
,,,,,,,,,,,,,,,,,60fc5ec12244a6d58297cf6a,53,2022-02-12_16h54.10.766,lexical_decision_task_DD_L5,2021.2.3,Linux armv8l,21.10684284,,,,,,,,,,0.784,0,,,,,,,,,,,,,,,,,,,,,,,0.291955662,-0.317192936,1,0,0,,,,,,,PEARL,LB,z,y,./images/PEARLLB.png,,,,,,,,,,,,,,,,,,,,,0,0.291955662,-0.317192936,1,0,0,0.784,button_right_test,0,46,46,130,1
,,,,,,,,,,,,,,,,,60fc5ec12244a6d58297cf6a,53,2022-02-12_16h54.10.766,lexical_decision_task_DD_L5,2021.2.3,Linux armv8l,21.10684284,,,,,,,,,,0.8353,1,,,,,,,,,,,,,,,,,,,,,,,0.29334259,-0.317192936,1,0,0,,,,,,,MUMMY,LB,m,y,./images/MUMMYLB.png,,,,,,,,,,,,,,,,,,,,,0,0.29334259,-0.317192936,1,0,0,0.8353,button_right_test,0,47,47,46,1
,,,,,,,,,,,,,,,,,60fc5ec12244a6d58297cf6a,53,2022-02-12_16h54.10.766,lexical_decision_task_DD_L5,2021.2.3,Linux armv8l,21.10684284,,,,,,,,,,0.6559,1,,,,,,,,,,,,,,,,,,,,,,,0.316920948,-0.294986153,1,0,0,,,,,,,GARDEN,LB,m,y,./images/GARDENLB.png,,,,,,,,,,,,,,,,,,,,,0,0.316920948,-0.294986153,1,0,0,0.6559,button_right_test,0,48,48,10,1
,,,,,,,,,,,,,,,,,60fc5ec12244a6d58297cf6a,53,2022-02-12_16h54.10.766,lexical_decision_task_DD_L5,2021.2.3,Linux armv8l,21.10684284,,,,,,,,,,0.5287,1,,,,,,,,,,,,,,,,,,,,,,,0.304438305,-0.303313637,1,0,0,,,,,,,GRANNY,C,m,y,./images/GRANNY.png,,,,,,,,,,,,,,,,,,,,,0,0.304438305,-0.303313637,1,0,0,0.5287,button_right_test,0,49,49,20,1
,,,,,,,,,,,,,,,,,60fc5ec12244a6d58297cf6a,53,2022-02-12_16h54.10.766,lexical_decision_task_DD_L5,2021.2.3,Linux armv8l,21.10684284,,,,,,,,,,0.5934,0,,,,,,,,,,,,,,,,,,,,,,,0.303051472,-0.303313637,1,0,0,,,,,,,PACKET,C,z,y,./images/PACKET.png,,,,,,,,,,,,,,,,,,,,,0,0.303051472,-0.303313637,1,0,0,0.5934,button_right_test,0,50,50,140,1
,,,,,,,,,,,,,,,,,60fc5ec12244a6d58297cf6a,53,2022-02-12_16h54.10.766,lexical_decision_task_DD_L5,2021.2.3,Linux armv8l,21.10684284,,,,,,,,,,0.5288,1,,,,,,,,,,,,,,,,,,,,,,,0.255894661,-0.333848,1,0,0,,,,,,,FLESH,HB,m,y,./images/FLESHHB.png,,,,,,,,,,,,,,,,,,,,,0,0.255894661,-0.333848,1,0,0,0.5288,button_right_test,0,51,51,24,1
,,,,,,,,,,,,,,,,,60fc5ec12244a6d58297cf6a,53,2022-02-12_16h54.10.766,lexical_decision_task_DD_L5,2021.2.3,Linux armv8l,21.10684284,,,,,,,,,,0.659,0,,,,,,,,,,,,,,,,,,,,,,,0.297503519,-0.307477379,1,0,0,,,,,,,THROAT,HB,z,y,./images/THROATHB.png,,,,,,,,,,,,,,,,,,,,,0,0.297503519,-0.307477379,1,0,0,0.659,button_right_test,0,52,52,120,1
,,,,,,,,,,,,,,,,,60fc5ec12244a6d58297cf6a,53,2022-02-12_16h54.10.766,lexical_decision_task_DD_L5,2021.2.3,Linux armv8l,21.10684284,,,,,,,,,,0.483,0,,,,,,,,,,,,,,,,,,,,,,,0.294729519,-0.307477379,1,0,0,,,,,,,MALLET,C,z,y,./images/MALLET.png,,,,,,,,,,,,,,,,,,,,,0,0.294729519,-0.307477379,1,0,0,0.483,button_right_test,0,53,53,134,1
,,,,,,,,,,,,,,,,,60fc5ec12244a6d58297cf6a,53,2022-02-12_16h54.10.766,lexical_decision_task_DD_L5,2021.2.3,Linux armv8l,21.10684284,,,,,,,,,,0.8479,1,,,,,,,,,,,,,,,,,,,,,,,-0.333564496,-0.314416981,1,0,0,,,,,,,BONNET,C,z,y,./images/BONNET.png,,,,,,,,,,,,,,,,,,,,,0,-0.333564496,-0.314416981,1,0,0,0.8479,button_left_test,0,54,54,95,1
,,,,,,,,,,,,,,,,,60fc5ec12244a6d58297cf6a,53,2022-02-12_16h54.10.766,lexical_decision_task_DD_L5,2021.2.3,Linux armv8l,21.10684284,,,,,,,,,,0.9276,1,,,,,,,,,,,,,,,,,,,,,,,0.296116543,-0.286658573,1,0,0,,,,,,,GRAPE,LB,m,y,./images/GRAPELB.png,,,,,,,,,,,,,,,,,,,,,0,0.296116543,-0.286658573,1,0,0,0.9276,button_right_test,0,55,55,16,1
,,,,,,,,,,,,,,,,,60fc5ec12244a6d58297cf6a,53,2022-02-12_16h54.10.766,lexical_decision_task_DD_L5,2021.2.3,Linux armv8l,21.10684284,,,,,,,,,,0.7656,0,,,,,,,,,,,,,,,,,,,,,,,0.318307972,-0.326908398,1,0,0,,,,,,,SPORT,HB,z,y,./images/SPORTHB.png,,,,,,,,,,,,,,,,,,,,,0,0.318307972,-0.326908398,1,0,0,0.7656,button_right_test,0,56,56,132,1
,,,,,,,,,,,,,,,,,60fc5ec12244a6d58297cf6a,53,2022-02-12_16h54.10.766,lexical_decision_task_DD_L5,2021.2.3,Linux armv8l,21.10684284,,,,,,,,,,0.6383,0,,,,,,,,,,,,,,,,,,,,,,,0.287794733,-0.315804958,1,0,0,,,,,,,COOKER,HB,z,y,./images/COOKERHB.png,,,,,,,,,,,,,,,,,,,,,0,0.287794733,-0.315804958,1,0,0,0.6383,button_right_test,0,57,57,153,1
,,,,,,,,,,,,,,,,,60fc5ec12244a6d58297cf6a,53,2022-02-12_16h54.10.766,lexical_decision_task_DD_L5,2021.2.3,Linux armv8l,21.10684284,,,,,,,,,,0.7693,0,,,,,,,,,,,,,,,,,,,,,,,0.316920948,-0.26167593,1,0,0,,,,,,,STRING,C,z,y,./images/STRING.png,,,,,,,,,,,,,,,,,,,,,0,0.316920948,-0.26167593,1,0,0,0.7693,button_right_test,0,58,58,125,1
,,,,,,,,,,,,,,,,,60fc5ec12244a6d58297cf6a,53,2022-02-12_16h54.10.766,lexical_decision_task_DD_L5,2021.2.3,Linux armv8l,21.10684284,,,,,,,,,,0.4776,0,,,,,,,,,,,,,,,,,,,,,,,0.290568733,-0.329684162,1,0,0,,,,,,,SMOKER,C,z,y,./images/SMOKER.png,,,,,,,,,,,,,,,,,,,,,0,0.290568733,-0.329684162,1,0,0,0.4776,button_right_test,0,59,59,110,1
,,,,,,,,,,,,,,,,,60fc5ec12244a6d58297cf6a,53,2022-02-12_16h54.10.766,lexical_decision_task_DD_L5,2021.2.3,Linux armv8l,21.10684284,,,,,,,,,,0.6572,0,,,,,,,,,,,,,,,,,,,,,,,0.291955662,-0.33107214,1,0,0,,,,,,,TORCH,C,z,y,./images/TORCH.png,,,,,,,,,,,,,,,,,,,,,0,0.291955662,-0.33107214,1,0,0,0.6572,button_right_test,0,60,60,152,1
,,,,,,,,,,,,,,,,,60fc5ec12244a6d58297cf6a,53,2022-02-12_16h54.10.766,lexical_decision_task_DD_L5,2021.2.3,Linux armv8l,21.10684284,,,,,,,,,,0.4834,1,,,,,,,,,,,,,,,,,,,,,,,0.255894661,-0.333848,1,0,0,,,,,,,CLOUD,C,m,y,./images/CLOUD.png,,,,,,,,,,,,,,,,,,,,,0,0.255894661,-0.333848,1,0,0,0.4834,button_right_test,0,61,61,26,1
,,,,,,,,,,,,,,,,,60fc5ec12244a6d58297cf6a,53,2022-02-12_16h54.10.766,lexical_decision_task_DD_L5,2021.2.3,Linux armv8l,21.10684284,,,,,,,,,,0.5773,1,,,,,,,,,,,,,,,,,,,,,,,0.273925114,-0.310253334,1,0,0,,,,,,,GLOVE,LB,m,y,./images/GLOVELB.png,,,,,,,,,,,,,,,,,,,,,0,0.273925114,-0.310253334,1,0,0,0.5773,button_right_test,0,62,62,73,1
,,,,,,,,,,,,,,,,,60fc5ec12244a6d58297cf6a,53,2022-02-12_16h54.10.766,lexical_decision_task_DD_L5,2021.2.3,Linux armv8l,21.10684284,,,,,,,,,,0.5956,1,,,,,,,,,,,,,,,,,,,,,,,0.286407804,-0.326908398,1,0,0,,,,,,,CANOE,LB,m,y,./images/CANOELB.png,,,,,,,,,,,,,,,,,,,,,0,0.286407804,-0.326908398,1,0,0,0.5956,button_right_test,0,63,63,58,1
,,,,,,,,,,,,,,,,,60fc5ec12244a6d58297cf6a,53,2022-02-12_16h54.10.766,lexical_decision_task_DD_L5,2021.2.3,Linux armv8l,21.10684284,,,,,,,,,,1.2103,1,,,,,,,,,,,,,,,,,,,,,,,-0.326629674,-0.319968891,1,0,0,,,,,,,RHINO,HB,z,y,./images/RHINOHB.png,,,,,,,,,,,,,,,,,,,,,0,-0.326629674,-0.319968891,1,0,0,1.2103,button_left_test,0,64,64,93,1
,,,,,,,,,,,,,,,,,60fc5ec12244a6d58297cf6a,53,2022-02-12_16h54.10.766,lexical_decision_task_DD_L5,2021.2.3,Linux armv8l,21.10684284,,,,,,,,,,0.595,0,,,,,,,,,,,,,,,,,,,,,,,0.291955662,-0.310253334,1,0,0,,,,,,,MIRROR,HB,z,y,./images/MIRRORHB.png,,,,,,,,,,,,,,,,,,,,,0,0.291955662,-0.310253334,1,0,0,0.595,button_right_test,0,65,65,147,1
,,,,,,,,,,,,,,,,,60fc5ec12244a6d58297cf6a,53,2022-02-12_16h54.10.766,lexical_decision_task_DD_L5,2021.2.3,Linux armv8l,21.10684284,,,,,,,,,,0.5957,0,,,,,,,,,,,,,,,,,,,,,,,0.280859995,-0.324132538,1,0,0,,,,,,,WRIST,LB,z,y,./images/WRISTLB.png,,,,,,,,,,,,,,,,,,,,,0,0.280859995,-0.324132538,1,0,0,0.5957,button_right_test,0,66,66,109,1
,,,,,,,,,,,,,,,,,60fc5ec12244a6d58297cf6a,53,2022-02-12_16h54.10.766,lexical_decision_task_DD_L5,2021.2.3,Linux armv8l,21.10684284,,,,,,,,,,0.5981,1,,,,,,,,,,,,,,,,,,,,,,,0.282246923,-0.324132538,1,0,0,,,,,,,CASINO,LB,m,y,./images/CASINOLB.png,,,,,,,,,,,,,,,,,,,,,0,0.282246923,-0.324132538,1,0,0,0.5981,button_right_test,0,67,67,28,1
,,,,,,,,,,,,,,,,,60fc5ec12244a6d58297cf6a,53,2022-02-12_16h54.10.766,lexical_decision_task_DD_L5,2021.2.3,Linux armv8l,21.10684284,,,,,,,,,,0.5317,1,,,,,,,,,,,,,,,,,,,,,,,0.247572851,-0.310253334,1,0,0,,,,,,,CLOWN,LB,m,y,./images/CLOWNLB.png,,,,,,,,,,,,,,,,,,,,,0,0.247572851,-0.310253334,1,0,0,0.5317,button_right_test,0,68,68,22,1
,,,,,,,,,,,,,,,,,60fc5ec12244a6d58297cf6a,53,2022-02-12_16h54.10.766,lexical_decision_task_DD_L5,2021.2.3,Linux armv8l,21.10684284,,,,,,,,,,0.5637,1,,,,,,,,,,,,,,,,,,,,,,,0.298890448,-0.301925755,1,0,0,,,,,,,MAMMAL,C,m,y,./images/MAMMAL.png,,,,,,,,,,,,,,,,,,,,,0,0.298890448,-0.301925755,1,0,0,0.5637,button_right_test,0,69,69,62,1
,,,,,,,,,,,,,,,,,60fc5ec12244a6d58297cf6a,53,2022-02-12_16h54.10.766,lexical_decision_task_DD_L5,2021.2.3,Linux armv8l,21.10684284,,,,,,,,,,0.5954,1,,,,,,,,,,,,,,,,,,,,,,,0.279472971,-0.283882713,1,0,0,,,,,,,BUBBLE,C,m,y,./images/BUBBLE.png,,,,,,,,,,,,,,,,,,,,,0,0.279472971,-0.283882713,1,0,0,0.5954,button_right_test,0,70,70,71,1
,,,,,,,,,,,,,,,,,60fc5ec12244a6d58297cf6a,53,2022-02-12_16h54.10.766,lexical_decision_task_DD_L5,2021.2.3,Linux armv8l,21.10684284,,,,,,,,,,0.941,0,,,,,,,,,,,,,,,,,,,,,,,0.319694901,-0.338011742,1,0,0,,,,,,,BEARD,C,z,y,./images/BEARD.png,,,,,,,,,,,,,,,,,,,,,0,0.319694901,-0.338011742,1,0,0,0.941,button_right_test,0,71,71,86,1
,,,,,,,,,,,,,,,,,60fc5ec12244a6d58297cf6a,53,2022-02-12_16h54.10.766,lexical_decision_task_DD_L5,2021.2.3,Linux armv8l,21.10684284,,,,,,,,,,0.6261,1,,,,,,,,,,,,,,,,,,,,,,,0.319694901,-0.338011742,1,0,0,,,,,,,CHAIN,HB,m,y,./images/CHAINHB.png,,,,,,,,,,,,,,,,,,,,,0,0.319694901,-0.338011742,1,0,0,0.6261,button_right_test,0,72,72,42,1
,,,,,,,,,,,,,,,,,60fc5ec12244a6d58297cf6a,53,2022-02-12_16h54.10.766,lexical_decision_task_DD_L5,2021.2.3,Linux armv8l,21.10684284,,,,,,,,,,0.6385,0,,,,,,,,,,,,,,,,,,,,,,,0.337725544,-0.294986153,1,0,0,,,,,,,KIDNEY,HB,z,y,./images/KIDNEYHB.png,,,,,,,,,,,,,,,,,,,,,0,0.337725544,-0.294986153,1,0,0,0.6385,button_right_test,0,73,73,105,1
,,,,,,,,,,,,,,,,,60fc5ec12244a6d58297cf6a,53,2022-02-12_16h54.10.766,lexical_decision_task_DD_L5,2021.2.3,Linux armv8l,21.10684284,,,,,,,,,,0.7542,0,,,,,,,,,,,,,,,,,,,,,,,0.33633852,-0.296374035,1,0,0,,,,,,,LITTER,HB,z,y,./images/LITTERHB.png,,,,,,,,,,,,,,,,,,,,,0,0.33633852,-0.296374035,1,0,0,0.7542,button_right_test,0,74,74,162,1
,,,,,,,,,,,,,,,,,60fc5ec12244a6d58297cf6a,53,2022-02-12_16h54.10.766,lexical_decision_task_DD_L5,2021.2.3,Linux armv8l,21.10684284,,,,,,,,,,0.4836,0,,,,,,,,,,,,,,,,,,,,,,,0.29334259,-0.326908398,1,0,0,,,,,,,BARREL,C,z,y,./images/BARREL.png,,,,,,,,,,,,,,,,,,,,,0,0.29334259,-0.326908398,1,0,0,0.4836,button_right_test,0,75,75,116,1
,,,,,,,,,,,,,,,,,60fc5ec12244a6d58297cf6a,53,2022-02-12_16h54.10.766,lexical_decision_task_DD_L5,2021.2.3,Linux armv8l,21.10684284,,,,,,,,,,0.5319,0,,,,,,,,,,,,,,,,,,,,,,,0.289181709,-0.301925755,1,0,0,,,,,,,BANNER,LB,z,y,./images/BANNERLB.png,,,,,,,,,,,,,,,,,,,,,0,0.289181709,-0.301925755,1,0,0,0.5319,button_right_test,0,76,76,136,1
,,,,,,,,,,,,,,,,,60fc5ec12244a6d58297cf6a,53,2022-02-12_16h54.10.766,lexical_decision_task_DD_L5,2021.2.3,Linux armv8l,21.10684284,,,,,,,,,,0.5927,1,,,,,,,,,,,,,,,,,,,,,,,0.314146996,-0.318580818,1,0,0,,,,,,,WALNUT,HB,m,y,./images/WALNUTHB.png,,,,,,,,,,,,,,,,,,,,,0,0.314146996,-0.318580818,1,0,0,0.5927,button_right_test,0,77,77,0,1
,,,,,,,,,,,,,,,,,60fc5ec12244a6d58297cf6a,53,2022-02-12_16h54.10.766,lexical_decision_task_DD_L5,2021.2.3,Linux armv8l,21.10684284,,,,,,,,,,0.6578,0,,,,,,,,,,,,,,,,,,,,,,,0.326629734,-0.33107214,1,0,0,,,,,,,BIRTH,LB,z,y,./images/BIRTHLB.png,,,,,,,,,,,,,,,,,,,,,0,0.326629734,-0.33107214,1,0,0,0.6578,button_right_test,0,78,78,121,1
,,,,,,,,,,,,,,,,,60fc5ec12244a6d58297cf6a,53,2022-02-12_16h54.10.766,lexical_decision_task_DD_L5,2021.2.3,Linux armv8l,21.10684284,,,,,,,,,,0.6898,0,,,,,,,,,,,,,,,,,,,,,,,0.314146996,-0.306089497,1,0,0,,,,,,,JAGUAR,HB,z,y,./images/JAGUARHB.png,,,,,,,,,,,,,,,,,,,,,0,0.314146996,-0.306089497,1,0,0,0.6898,button_right_test,0,79,79,102,1
,,,,,,,,,,,,,,,,,60fc5ec12244a6d58297cf6a,53,2022-02-12_16h54.10.766,lexical_decision_task_DD_L5,2021.2.3,Linux armv8l,21.10684284,,,,,,,,,,0.6297,1,,,,,,,,,,,,,,,,,,,,,,,0.334951496,-0.308865356,1,0,0,,,,,,,FERRY,HB,m,y,./images/FERRYHB.png,,,,,,,,,,,,,,,,,,,,,0,0.334951496,-0.308865356,1,0,0,0.6297,button_right_test,0,80,80,57,1
,,,,,,,,,,,,,,,,,60fc5ec12244a6d58297cf6a,53,2022-02-12_16h54.10.766,lexical_decision_task_DD_L5,2021.2.3,Linux armv8l,21.10684284,,,,,,,,,,0.4526,1,,,,,,,,,,,,,,,,,,,,,,,0.312760067,-0.343563557,1,0,0,,,,,,,BANANA,LB,m,y,./images/BANANALB.png,,,,,,,,,,,,,,,,,,,,,0,0.312760067,-0.343563557,1,0,0,0.4526,button_right_test,0,81,81,70,1
,,,,,,,,,,,,,,,,,60fc5ec12244a6d58297cf6a,53,2022-02-12_16h54.10.766,lexical_decision_task_DD_L5,2021.2.3,Linux armv8l,21.10684284,,,,,,,,,,0.5822,1,,,,,,,,,,,,,,,,,,,,,,,0.326629734,-0.353278923,1,0,0,,,,,,,BUNNY,LB,m,y,./images/BUNNYLB.png,,,,,,,,,,,,,,,,,,,,,0,0.326629734,-0.353278923,1,0,0,0.5822,button_right_test,0,82,82,13,1
,,,,,,,,,,,,,,,,,60fc5ec12244a6d58297cf6a,53,2022-02-12_16h54.10.766,lexical_decision_task_DD_L5,2021.2.3,Linux armv8l,21.10684284,,,,,,,,,,1.1312,1,,,,,,,,,,,,,,,,,,,,,,,0.02427187,-0.414347649,1,0,0,,,,,,,MOSQUE,LB,z,y,./images/MOSQUELB.png,break_done_button,,,,,,,,,,,,,,,,,,,,0,-0.334951437,-0.307477379,1,0,0,1.1312,button_left_test,0,83,83,127,1
,,,,,,,,,,,,,,,,,60fc5ec12244a6d58297cf6a,53,2022-02-12_16h54.10.766,lexical_decision_task_DD_L5,2021.2.3,Linux armv8l,21.10684284,,,,,,,,,,0.881,0,,,,,,,,,,,,,,,,,,,,,,,0.296116543,-0.282494831,1,0,0,,,,,,,TRIPOD,HB,z,y,./images/TRIPODHB.png,,,,,,,,,,,,,,,,,,,,,0,0.296116543,-0.282494831,1,0,0,0.881,button_right_test,0,84,84,138,1
,,,,,,,,,,,,,,,,,60fc5ec12244a6d58297cf6a,53,2022-02-12_16h54.10.766,lexical_decision_task_DD_L5,2021.2.3,Linux armv8l,21.10684284,,,,,,,,,,0.6385,0,,,,,,,,,,,,,,,,,,,,,,,0.319694901,-0.338011742,1,0,0,,,,,,,CANDLE,LB,z,y,./images/CANDLELB.png,,,,,,,,,,,,,,,,,,,,,0,0.319694901,-0.338011742,1,0,0,0.6385,button_right_test,0,85,85,145,1
,,,,,,,,,,,,,,,,,60fc5ec12244a6d58297cf6a,53,2022-02-12_16h54.10.766,lexical_decision_task_DD_L5,2021.2.3,Linux armv8l,21.10684284,,,,,,,,,,1.0503,1,,,,,,,,,,,,,,,,,,,,,,,-0.297503471,-0.338011742,1,0,0,,,,,,,PENCE,LB,z,y,./images/PENCELB.png,,,,,,,,,,,,,,,,,,,,,0,-0.297503471,-0.338011742,1,0,0,1.0503,button_left_test,0,86,86,100,1
,,,,,,,,,,,,,,,,,60fc5ec12244a6d58297cf6a,53,2022-02-12_16h54.10.766,lexical_decision_task_DD_L5,2021.2.3,Linux armv8l,21.10684284,,,,,,,,,,0.6202,1,,,,,,,,,,,,,,,,,,,,,,,0.297503519,-0.304701614,1,0,0,,,,,,,FENCE,C,m,y,./images/FENCE.png,,,,,,,,,,,,,,,,,,,,,0,0.297503519,-0.304701614,1,0,0,0.6202,button_right_test,0,87,87,14,1
,,,,,,,,,,,,,,,,,60fc5ec12244a6d58297cf6a,53,2022-02-12_16h54.10.766,lexical_decision_task_DD_L5,2021.2.3,Linux armv8l,21.10684284,,,,,,,,,,0.6274,1,,,,,,,,,,,,,,,,,,,,,,,0.333564472,-0.33107214,1,0,0,,,,,,,STAIN,HB,m,y,./images/STAINHB.png,,,,,,,,,,,,,,,,,,,,,0,0.333564472,-0.33107214,1,0,0,0.6274,button_right_test,0,88,88,6,1
