key_resp.keys,key_resp.rt,instr_done_touch.x,instr_done_touch.y,instr_done_touch.leftButton,instr_done_touch.midButton,instr_done_touch.rightButton,instruction_pages.thisRepN,instruction_pages.thisTrialN,instruction_pages.thisN,instruction_pages.thisIndex,instruction_pages.ran,pageN,phase,instruct_text,has_image,instruct_image,participant,age,date,expName,psychopyVersion,OS,frameRate,instr_done_touch.clicked_name,response.keys,response.corr,response.rt,touch_resp.x,touch_resp.y,touch_resp.leftButton,touch_resp.midButton,touch_resp.rightButton,touch_resp.time,touch_resp.clicked_name,rt,corr,practrials.thisRepN,practrials.thisTrialN,practrials.thisN,practrials.thisIndex,practrials.ran,TrialID,Target,corrAns,end_of_practice_trials_pages.thisRepN,end_of_practice_trials_pages.thisTrialN,end_of_practice_trials_pages.thisN,end_of_practice_trials_pages.thisIndex,end_of_practice_trials_pages.ran,key_resp_2.keys,key_resp_2.corr,key_resp_2.rt,targ_click.x,targ_click.y,targ_click.leftButton,targ_click.midButton,targ_click.rightButton,targ_click.time,targ_click.clicked_name,break_done_touch.x,break_done_touch.y,break_done_touch.leftButton,break_done_touch.midButton,break_done_touch.rightButton,break_done_keyboard.keys,maintrials.thisRepN,maintrials.thisTrialN,maintrials.thisN,maintrials.thisIndex,maintrials.ran,string,blur,study,lex,stim_path,break_done_touch.clicked_name,mouse_2.x,mouse_2.y,mouse_2.leftButton,mouse_2.midButton,mouse_2.rightButton,mouse_2.clicked_name,slider.response,slider.rt,trials.thisRepN,trials.thisTrialN,trials.thisN,trials.thisIndex,trials.ran,test_instructions.thisRepN,test_instructions.thisTrialN,test_instructions.thisN,test_instructions.thisIndex,test_instructions.ran,key_resp_3.keys,key_resp_3.corr,key_resp_3.rt,test_click.x,test_click.y,test_click.leftButton,test_click.midButton,test_click.rightButton,test_click.time,test_click.clicked_name,test_phase.thisRepN,test_phase.thisTrialN,test_phase.thisN,test_phase.thisIndex,test_phase.ran,break_done_keyboard.rt
space,19.6323,0.192382813,-0.15234375,0,0,0,0,0,0,0,1,1,instructions,"INSTRUCTIONS
At the start of each trial, look at the plus sign  (+) in the center of the screen.  This tells you that a trial is about to begin and where to look. Second, the plus sign will disappear and a string of letters will appear. Your task is to determine if the string of letters is a word or not. If the item is a word press the M key (on keyboard)  or touch the word button (phone/tablet).  If the item is not a word,  press the  Z key (on keyboard)  or touch the nonword button (on phone/tablet). 
Press the space bar or touch  continue.",0,,60fccbcc1254e074f17d5565,27,2022-02-12_15h54.46.488,lexical_decision_task_DD_L5,2021.2.3,Win32,60.06366749,,,,,,,,,,,,,,,,,,,,,,,,,,,,,,,,,,,,,,,,,,,,,,,,,,,,,,,,,,,,,,,,,,,,,,,,,,,,,,,,,,,,,,,
space,11.6163,0.192382813,-0.15234375,0,0,0,0,1,1,1,1,2,instructions,"If your device has a keyboard, press the 'Z' key for nonwords and the 'M' key for words.





Press the space bar or touch the button below to continue.",0,keyboard-example.gif,60fccbcc1254e074f17d5565,27,2022-02-12_15h54.46.488,lexical_decision_task_DD_L5,2021.2.3,Win32,60.06366749,,,,,,,,,,,,,,,,,,,,,,,,,,,,,,,,,,,,,,,,,,,,,,,,,,,,,,,,,,,,,,,,,,,,,,,,,,,,,,,,,,,,,,,
,,0.133789063,-0.41015625,1,0,0,0,2,2,2,1,3,instructions,"If you are using a touchscreen only device, use the buttons on the screen. Do not use the mouse.





Press the space bar or touch the button below to continue.",0,touchscreen-example.gif,60fccbcc1254e074f17d5565,27,2022-02-12_15h54.46.488,lexical_decision_task_DD_L5,2021.2.3,Win32,60.06366749,instr_done_button,,,,,,,,,,,,,,,,,,,,,,,,,,,,,,,,,,,,,,,,,,,,,,,,,,,,,,,,,,,,,,,,,,,,,,,,,,,,,,,,,,,,,,
,,0.133789063,-0.41015625,1,0,0,0,3,3,3,1,4,instructions,"It is very important that you respond as quickly and accurately as possible, as each letter string will only be on the screen for two seconds. If you do not respond within this time, the message 'Too slow!' will be displayed and the experiment will progress to the next letter string. The first 20 trials will be practice trials and you will receive feedback on your answers. 

Press the space bar or touch the button below to start the practice trials.",0,,60fccbcc1254e074f17d5565,27,2022-02-12_15h54.46.488,lexical_decision_task_DD_L5,2021.2.3,Win32,60.06366749,instr_done_button,,,,,,,,,,,,,,,,,,,,,,,,,,,,,,,,,,,,,,,,,,,,,,,,,,,,,,,,,,,,,,,,,,,,,,,,,,,,,,,,,,,,,,
,,,,,,,,,,,,,,,,,60fccbcc1254e074f17d5565,27,2022-02-12_15h54.46.488,lexical_decision_task_DD_L5,2021.2.3,Win32,60.06366749,,z,1,1.7598,,,,,,,,1.7598,1,0,0,0,11,1,1001,RASHET,z,,,,,,,,,,,,,,,,,,,,,,,,,,,,,,,,,,,,,,,,,,,,,,,,,,,,,,,,,,,,,,,,,,
,,,,,,,,,,,,,,,,,60fccbcc1254e074f17d5565,27,2022-02-12_15h54.46.488,lexical_decision_task_DD_L5,2021.2.3,Win32,60.06366749,,m,1,0.796,,,,,,,,0.796,1,0,1,1,0,1,1001,UTOPIA,m,,,,,,,,,,,,,,,,,,,,,,,,,,,,,,,,,,,,,,,,,,,,,,,,,,,,,,,,,,,,,,,,,,
,,,,,,,,,,,,,,,,,60fccbcc1254e074f17d5565,27,2022-02-12_15h54.46.488,lexical_decision_task_DD_L5,2021.2.3,Win32,60.06366749,,m,1,0.9122,,,,,,,,0.9122,1,0,2,2,2,1,1001,ALMOND,m,,,,,,,,,,,,,,,,,,,,,,,,,,,,,,,,,,,,,,,,,,,,,,,,,,,,,,,,,,,,,,,,,,
,,,,,,,,,,,,,,,,,60fccbcc1254e074f17d5565,27,2022-02-12_15h54.46.488,lexical_decision_task_DD_L5,2021.2.3,Win32,60.06366749,,m,1,0.6075,,,,,,,,0.6075,1,0,3,3,7,1,1001,VOLUME,m,,,,,,,,,,,,,,,,,,,,,,,,,,,,,,,,,,,,,,,,,,,,,,,,,,,,,,,,,,,,,,,,,,
,,,,,,,,,,,,,,,,,60fccbcc1254e074f17d5565,27,2022-02-12_15h54.46.488,lexical_decision_task_DD_L5,2021.2.3,Win32,60.06366749,,m,1,0.6898,,,,,,,,0.6898,1,0,4,4,5,1,1001,OBTAIN,m,,,,,,,,,,,,,,,,,,,,,,,,,,,,,,,,,,,,,,,,,,,,,,,,,,,,,,,,,,,,,,,,,,
,,,,,,,,,,,,,,,,,60fccbcc1254e074f17d5565,27,2022-02-12_15h54.46.488,lexical_decision_task_DD_L5,2021.2.3,Win32,60.06366749,,z,1,0.8636,,,,,,,,0.8636,1,0,5,5,12,1,1001,SPRINY,z,,,,,,,,,,,,,,,,,,,,,,,,,,,,,,,,,,,,,,,,,,,,,,,,,,,,,,,,,,,,,,,,,,
,,,,,,,,,,,,,,,,,60fccbcc1254e074f17d5565,27,2022-02-12_15h54.46.488,lexical_decision_task_DD_L5,2021.2.3,Win32,60.06366749,,m,1,0.6906,,,,,,,,0.6906,1,0,6,6,3,1,1001,MATRIX,m,,,,,,,,,,,,,,,,,,,,,,,,,,,,,,,,,,,,,,,,,,,,,,,,,,,,,,,,,,,,,,,,,,
,,,,,,,,,,,,,,,,,60fccbcc1254e074f17d5565,27,2022-02-12_15h54.46.488,lexical_decision_task_DD_L5,2021.2.3,Win32,60.06366749,,z,1,0.8197,,,,,,,,0.8197,1,0,7,7,15,1,1001,WHAISE,z,,,,,,,,,,,,,,,,,,,,,,,,,,,,,,,,,,,,,,,,,,,,,,,,,,,,,,,,,,,,,,,,,,
,,,,,,,,,,,,,,,,,60fccbcc1254e074f17d5565,27,2022-02-12_15h54.46.488,lexical_decision_task_DD_L5,2021.2.3,Win32,60.06366749,,z,1,1.0476,,,,,,,,1.0476,1,0,8,8,14,1,1001,THRALE,z,,,,,,,,,,,,,,,,,,,,,,,,,,,,,,,,,,,,,,,,,,,,,,,,,,,,,,,,,,,,,,,,,,
,,,,,,,,,,,,,,,,,60fccbcc1254e074f17d5565,27,2022-02-12_15h54.46.488,lexical_decision_task_DD_L5,2021.2.3,Win32,60.06366749,,m,1,0.6366,,,,,,,,0.6366,1,0,9,9,6,1,1001,ZOMBIE,m,,,,,,,,,,,,,,,,,,,,,,,,,,,,,,,,,,,,,,,,,,,,,,,,,,,,,,,,,,,,,,,,,,
,,,,,,,,,,,,,,,,,60fccbcc1254e074f17d5565,27,2022-02-12_15h54.46.488,lexical_decision_task_DD_L5,2021.2.3,Win32,60.06366749,,m,1,0.5479,,,,,,,,0.5479,1,0,10,10,1,1,1001,ADJUST,m,,,,,,,,,,,,,,,,,,,,,,,,,,,,,,,,,,,,,,,,,,,,,,,,,,,,,,,,,,,,,,,,,,
,,,,,,,,,,,,,,,,,60fccbcc1254e074f17d5565,27,2022-02-12_15h54.46.488,lexical_decision_task_DD_L5,2021.2.3,Win32,60.06366749,,z,1,1.0164,,,,,,,,1.0164,1,0,11,11,10,1,1001,INLADE,z,,,,,,,,,,,,,,,,,,,,,,,,,,,,,,,,,,,,,,,,,,,,,,,,,,,,,,,,,,,,,,,,,,
,,,,,,,,,,,,,,,,,60fccbcc1254e074f17d5565,27,2022-02-12_15h54.46.488,lexical_decision_task_DD_L5,2021.2.3,Win32,60.06366749,,m,1,0.7671,,,,,,,,0.7671,1,0,12,12,4,1,1001,SQUEAK,m,,,,,,,,,,,,,,,,,,,,,,,,,,,,,,,,,,,,,,,,,,,,,,,,,,,,,,,,,,,,,,,,,,
,,,,,,,,,,,,,,,,,60fccbcc1254e074f17d5565,27,2022-02-12_15h54.46.488,lexical_decision_task_DD_L5,2021.2.3,Win32,60.06366749,,z,1,0.8243,,,,,,,,0.8243,1,0,13,13,8,1,1001,ASLERT,z,,,,,,,,,,,,,,,,,,,,,,,,,,,,,,,,,,,,,,,,,,,,,,,,,,,,,,,,,,,,,,,,,,
,,,,,,,,,,,,,,,,,60fccbcc1254e074f17d5565,27,2022-02-12_15h54.46.488,lexical_decision_task_DD_L5,2021.2.3,Win32,60.06366749,,z,1,0.8144,,,,,,,,0.8144,1,0,14,14,13,1,1001,ROUPET,z,,,,,,,,,,,,,,,,,,,,,,,,,,,,,,,,,,,,,,,,,,,,,,,,,,,,,,,,,,,,,,,,,,
,,,,,,,,,,,,,,,,,60fccbcc1254e074f17d5565,27,2022-02-12_15h54.46.488,lexical_decision_task_DD_L5,2021.2.3,Win32,60.06366749,,z,1,0.7532,,,,,,,,0.7532,1,0,15,15,9,1,1001,FARINY,z,,,,,,,,,,,,,,,,,,,,,,,,,,,,,,,,,,,,,,,,,,,,,,,,,,,,,,,,,,,,,,,,,,
,,0.131835938,-0.426757813,1,0,0,,,,,,1,end_of_practice,"You have completed the practice trials. During the experimental trials, you will not receive feedback. 
Before you begin, please ensure that you are in a comfortable and quiet location and will not be disturbed for about 15 minutes, as we cannot use your data if you do not complete all the trials. 
 When you are ready to start the experimental trials, please press space or touch the button below.",,,60fccbcc1254e074f17d5565,27,2022-02-12_15h54.46.488,lexical_decision_task_DD_L5,2021.2.3,Win32,60.06366749,instr_done_button,,,,,,,,,,,,,,,,,,,,,0,0,0,0,1,,,,,,,,,,,,,,,,,,,,,,,,,,,,,,,,,,,,,,,,,,,,,,,,,,,,,,,,,,,,,
,,,,,,,,,,,,,,,,,60fccbcc1254e074f17d5565,27,2022-02-12_15h54.46.488,lexical_decision_task_DD_L5,2021.2.3,Win32,60.06366749,,,,,,,,,,,,2.8398,0,,,,,,,,,,,,,,m,0,2.8398,,,,,,,,0.131835938,-0.426757813,0,0,0,,0,0,0,91,1,SHENS,HB,old,z,./images/SHENSHB.png,,,,,,,,,,,,,,,,,,,,,,,,,,,,,,,,,,,
,,,,,,,,,,,,,,,,,60fccbcc1254e074f17d5565,27,2022-02-12_15h54.46.488,lexical_decision_task_DD_L5,2021.2.3,Win32,60.06366749,,,,,,,,,,,,0.8274,1,,,,,,,,,,,,,,m,1,0.8274,,,,,,,,0.131835938,-0.426757813,0,0,0,,0,1,1,49,1,BISHOP,LB,old,m,./images/BISHOPLB.png,,,,,,,,,,,,,,,,,,,,,,,,,,,,,,,,,,,
,,,,,,,,,,,,,,,,,60fccbcc1254e074f17d5565,27,2022-02-12_15h54.46.488,lexical_decision_task_DD_L5,2021.2.3,Win32,60.06366749,,,,,,,,,,,,0.5427,1,,,,,,,,,,,,,,m,1,0.5427,,,,,,,,0.131835938,-0.426757813,0,0,0,,0,2,2,22,1,CLOWN,LB,old,m,./images/CLOWNLB.png,,,,,,,,,,,,,,,,,,,,,,,,,,,,,,,,,,,
,,,,,,,,,,,,,,,,,60fccbcc1254e074f17d5565,27,2022-02-12_15h54.46.488,lexical_decision_task_DD_L5,2021.2.3,Win32,60.06366749,,,,,,,,,,,,1.3702,1,,,,,,,,,,,,,,z,1,1.3702,,,,,,,,0.131835938,-0.426757813,0,0,0,,0,3,3,128,1,GRIFT,LB,old,z,./images/GRIFTLB.png,,,,,,,,,,,,,,,,,,,,,,,,,,,,,,,,,,,
,,,,,,,,,,,,,,,,,60fccbcc1254e074f17d5565,27,2022-02-12_15h54.46.488,lexical_decision_task_DD_L5,2021.2.3,Win32,60.06366749,,,,,,,,,,,,0.7796,1,,,,,,,,,,,,,,z,1,0.7796,,,,,,,,0.131835938,-0.426757813,0,0,0,,0,4,4,150,1,NOOLS,C,old,z,./images/NOOLS.png,,,,,,,,,,,,,,,,,,,,,,,,,,,,,,,,,,,
,,,,,,,,,,,,,,,,,60fccbcc1254e074f17d5565,27,2022-02-12_15h54.46.488,lexical_decision_task_DD_L5,2021.2.3,Win32,60.06366749,,,,,,,,,,,,0.5924,1,,,,,,,,,,,,,,m,1,0.5924,,,,,,,,0.131835938,-0.426757813,0,0,0,,0,5,5,55,1,ALLEY,LB,old,m,./images/ALLEYLB.png,,,,,,,,,,,,,,,,,,,,,,,,,,,,,,,,,,,
,,,,,,,,,,,,,,,,,60fccbcc1254e074f17d5565,27,2022-02-12_15h54.46.488,lexical_decision_task_DD_L5,2021.2.3,Win32,60.06366749,,,,,,,,,,,,0.6934,1,,,,,,,,,,,,,,z,1,0.6934,,,,,,,,0.131835938,-0.426757813,0,0,0,,0,6,6,153,1,CLUPS,C,old,z,./images/CLUPS.png,,,,,,,,,,,,,,,,,,,,,,,,,,,,,,,,,,,
,,,,,,,,,,,,,,,,,60fccbcc1254e074f17d5565,27,2022-02-12_15h54.46.488,lexical_decision_task_DD_L5,2021.2.3,Win32,60.06366749,,,,,,,,,,,,1.2756,1,,,,,,,,,,,,,,z,1,1.2756,,,,,,,,0.131835938,-0.426757813,0,0,0,,0,7,7,94,1,BLANS,HB,old,z,./images/BLANSHB.png,,,,,,,,,,,,,,,,,,,,,,,,,,,,,,,,,,,
,,,,,,,,,,,,,,,,,60fccbcc1254e074f17d5565,27,2022-02-12_15h54.46.488,lexical_decision_task_DD_L5,2021.2.3,Win32,60.06366749,,,,,,,,,,,,0.7772,1,,,,,,,,,,,,,,m,1,0.7772,,,,,,,,0.131835938,-0.426757813,0,0,0,,0,8,8,63,1,BAKER,HB,old,m,./images/BAKERHB.png,,,,,,,,,,,,,,,,,,,,,,,,,,,,,,,,,,,
,,,,,,,,,,,,,,,,,60fccbcc1254e074f17d5565,27,2022-02-12_15h54.46.488,lexical_decision_task_DD_L5,2021.2.3,Win32,60.06366749,,,,,,,,,,,,0.7831,0,,,,,,,,,,,,,,m,0,0.7831,,,,,,,,0.131835938,-0.426757813,0,0,0,,0,9,9,85,1,CHULK,HB,old,z,./images/CHULKHB.png,,,,,,,,,,,,,,,,,,,,,,,,,,,,,,,,,,,
,,,,,,,,,,,,,,,,,60fccbcc1254e074f17d5565,27,2022-02-12_15h54.46.488,lexical_decision_task_DD_L5,2021.2.3,Win32,60.06366749,,,,,,,,,,,,0.7976,1,,,,,,,,,,,,,,z,1,0.7976,,,,,,,,0.131835938,-0.426757813,0,0,0,,0,10,10,146,1,MOOST,LB,old,z,./images/MOOSTLB.png,,,,,,,,,,,,,,,,,,,,,,,,,,,,,,,,,,,
,,,,,,,,,,,,,,,,,60fccbcc1254e074f17d5565,27,2022-02-12_15h54.46.488,lexical_decision_task_DD_L5,2021.2.3,Win32,60.06366749,,,,,,,,,,,,1.1253,1,,,,,,,,,,,,,,z,1,1.1253,,,,,,,,0.131835938,-0.426757813,0,0,0,,0,11,11,141,1,PLEET,C,old,z,./images/PLEET.png,,,,,,,,,,,,,,,,,,,,,,,,,,,,,,,,,,,
,,,,,,,,,,,,,,,,,60fccbcc1254e074f17d5565,27,2022-02-12_15h54.46.488,lexical_decision_task_DD_L5,2021.2.3,Win32,60.06366749,,,,,,,,,,,,0.5905,1,,,,,,,,,,,,,,m,1,0.5905,,,,,,,,0.131835938,-0.426757813,0,0,0,,0,12,12,50,1,PILOT,C,old,m,./images/PILOT.png,,,,,,,,,,,,,,,,,,,,,,,,,,,,,,,,,,,
,,,,,,,,,,,,,,,,,60fccbcc1254e074f17d5565,27,2022-02-12_15h54.46.488,lexical_decision_task_DD_L5,2021.2.3,Win32,60.06366749,,,,,,,,,,,,0.7756,1,,,,,,,,,,,,,,z,1,0.7756,,,,,,,,0.131835938,-0.426757813,0,0,0,,0,13,13,165,1,TROWN,C,old,z,./images/TROWN.png,,,,,,,,,,,,,,,,,,,,,,,,,,,,,,,,,,,
,,,,,,,,,,,,,,,,,60fccbcc1254e074f17d5565,27,2022-02-12_15h54.46.488,lexical_decision_task_DD_L5,2021.2.3,Win32,60.06366749,,,,,,,,,,,,0.6649,1,,,,,,,,,,,,,,m,1,0.6649,,,,,,,,0.131835938,-0.426757813,0,0,0,,0,14,14,43,1,STOOL,LB,old,m,./images/STOOLLB.png,,,,,,,,,,,,,,,,,,,,,,,,,,,,,,,,,,,
,,,,,,,,,,,,,,,,,60fccbcc1254e074f17d5565,27,2022-02-12_15h54.46.488,lexical_decision_task_DD_L5,2021.2.3,Win32,60.06366749,,,,,,,,,,,,0.6355,1,,,,,,,,,,,,,,z,1,0.6355,,,,,,,,0.131835938,-0.426757813,0,0,0,,0,15,15,107,1,FASKS,LB,old,z,./images/FASKSLB.png,,,,,,,,,,,,,,,,,,,,,,,,,,,,,,,,,,,
,,,,,,,,,,,,,,,,,60fccbcc1254e074f17d5565,27,2022-02-12_15h54.46.488,lexical_decision_task_DD_L5,2021.2.3,Win32,60.06366749,,,,,,,,,,,,0.6647,1,,,,,,,,,,,,,,z,1,0.6647,,,,,,,,0.131835938,-0.426757813,0,0,0,,0,16,16,143,1,MONGS,LB,old,z,./images/MONGSLB.png,,,,,,,,,,,,,,,,,,,,,,,,,,,,,,,,,,,
,,,,,,,,,,,,,,,,,60fccbcc1254e074f17d5565,27,2022-02-12_15h54.46.488,lexical_decision_task_DD_L5,2021.2.3,Win32,60.06366749,,,,,,,,,,,,3.0826,1,,,,,,,,,,,,,,m,1,3.0826,,,,,,,,0.131835938,-0.426757813,0,0,0,,0,17,17,79,1,RULER,LB,old,m,./images/RULERLB.png,,,,,,,,,,,,,,,,,,,,,,,,,,,,,,,,,,,
,,,,,,,,,,,,,,,,,60fccbcc1254e074f17d5565,27,2022-02-12_15h54.46.488,lexical_decision_task_DD_L5,2021.2.3,Win32,60.06366749,,,,,,,,,,,,0.6932,1,,,,,,,,,,,,,,m,1,0.6932,,,,,,,,0.131835938,-0.426757813,0,0,0,,0,18,18,46,1,MUMMY,LB,old,m,./images/MUMMYLB.png,,,,,,,,,,,,,,,,,,,,,,,,,,,,,,,,,,,
,,,,,,,,,,,,,,,,,60fccbcc1254e074f17d5565,27,2022-02-12_15h54.46.488,lexical_decision_task_DD_L5,2021.2.3,Win32,60.06366749,,,,,,,,,,,,2.0467,1,,,,,,,,,,,,,,z,1,2.0467,,,,,,,,0.131835938,-0.426757813,0,0,0,,0,19,19,136,1,WERVE,HB,old,z,./images/WERVEHB.png,,,,,,,,,,,,,,,,,,,,,,,,,,,,,,,,,,,
,,,,,,,,,,,,,,,,,60fccbcc1254e074f17d5565,27,2022-02-12_15h54.46.488,lexical_decision_task_DD_L5,2021.2.3,Win32,60.06366749,,,,,,,,,,,,0.6402,1,,,,,,,,,,,,,,z,1,0.6402,,,,,,,,0.131835938,-0.426757813,0,0,0,,0,20,20,84,1,HAXES,C,old,z,./images/HAXES.png,,,,,,,,,,,,,,,,,,,,,,,,,,,,,,,,,,,
,,,,,,,,,,,,,,,,,60fccbcc1254e074f17d5565,27,2022-02-12_15h54.46.488,lexical_decision_task_DD_L5,2021.2.3,Win32,60.06366749,,,,,,,,,,,,0.6605,1,,,,,,,,,,,,,,z,1,0.6605,,,,,,,,0.131835938,-0.426757813,0,0,0,,0,21,21,86,1,AIFED,LB,old,z,./images/AIFEDLB.png,,,,,,,,,,,,,,,,,,,,,,,,,,,,,,,,,,,
,,,,,,,,,,,,,,,,,60fccbcc1254e074f17d5565,27,2022-02-12_15h54.46.488,lexical_decision_task_DD_L5,2021.2.3,Win32,60.06366749,,,,,,,,,,,,0.9635,1,,,,,,,,,,,,,,m,1,0.9635,,,,,,,,0.131835938,-0.426757813,0,0,0,,0,22,22,48,1,SHIELD,HB,old,m,./images/SHIELDHB.png,,,,,,,,,,,,,,,,,,,,,,,,,,,,,,,,,,,
,,,,,,,,,,,,,,,,,60fccbcc1254e074f17d5565,27,2022-02-12_15h54.46.488,lexical_decision_task_DD_L5,2021.2.3,Win32,60.06366749,,,,,,,,,,,,0.5908,1,,,,,,,,,,,,,,m,1,0.5908,,,,,,,,0.131835938,-0.426757813,0,0,0,,0,23,23,35,1,LLAMA,C,old,m,./images/LLAMA.png,,,,,,,,,,,,,,,,,,,,,,,,,,,,,,,,,,,
,,,,,,,,,,,,,,,,,60fccbcc1254e074f17d5565,27,2022-02-12_15h54.46.488,lexical_decision_task_DD_L5,2021.2.3,Win32,60.06366749,,,,,,,,,,,,0.6061,1,,,,,,,,,,,,,,m,1,0.6061,,,,,,,,0.131835938,-0.426757813,0,0,0,,0,24,24,5,1,BAMBOO,C,old,m,./images/BAMBOO.png,,,,,,,,,,,,,,,,,,,,,,,,,,,,,,,,,,,
,,,,,,,,,,,,,,,,,60fccbcc1254e074f17d5565,27,2022-02-12_15h54.46.488,lexical_decision_task_DD_L5,2021.2.3,Win32,60.06366749,,,,,,,,,,,,0.707,1,,,,,,,,,,,,,,z,1,0.707,,,,,,,,0.131835938,-0.426757813,0,0,0,,0,25,25,120,1,RINED,C,old,z,./images/RINED.png,,,,,,,,,,,,,,,,,,,,,,,,,,,,,,,,,,,
,,,,,,,,,,,,,,,,,60fccbcc1254e074f17d5565,27,2022-02-12_15h54.46.488,lexical_decision_task_DD_L5,2021.2.3,Win32,60.06366749,,,,,,,,,,,,1.9284,1,,,,,,,,,,,,,,z,1,1.9284,,,,,,,,0.131835938,-0.426757813,0,0,0,,0,26,26,166,1,SHORY,HB,old,z,./images/SHORYHB.png,,,,,,,,,,,,,,,,,,,,,,,,,,,,,,,,,,,
,,,,,,,,,,,,,,,,,60fccbcc1254e074f17d5565,27,2022-02-12_15h54.46.488,lexical_decision_task_DD_L5,2021.2.3,Win32,60.06366749,,,,,,,,,,,,1.5036,1,,,,,,,,,,,,,,m,1,1.5036,,,,,,,,0.131835938,-0.426757813,0,0,0,,0,27,27,75,1,HAMMER,HB,old,m,./images/HAMMERHB.png,,,,,,,,,,,,,,,,,,,,,,,,,,,,,,,,,,,
,,,,,,,,,,,,,,,,,60fccbcc1254e074f17d5565,27,2022-02-12_15h54.46.488,lexical_decision_task_DD_L5,2021.2.3,Win32,60.06366749,,,,,,,,,,,,0.6831,1,,,,,,,,,,,,,,m,1,0.6831,,,,,,,,0.131835938,-0.426757813,0,0,0,,0,28,28,69,1,ARROW,HB,old,m,./images/ARROWHB.png,,,,,,,,,,,,,,,,,,,,,,,,,,,,,,,,,,,
,,,,,,,,,,,,,,,,,60fccbcc1254e074f17d5565,27,2022-02-12_15h54.46.488,lexical_decision_task_DD_L5,2021.2.3,Win32,60.06366749,,,,,,,,,,,,0.6089,1,,,,,,,,,,,,,,m,1,0.6089,,,,,,,,0.131835938,-0.426757813,0,0,0,,0,29,29,45,1,MONKEY,HB,old,m,./images/MONKEYHB.png,,,,,,,,,,,,,,,,,,,,,,,,,,,,,,,,,,,
,,,,,,,,,,,,,,,,,60fccbcc1254e074f17d5565,27,2022-02-12_15h54.46.488,lexical_decision_task_DD_L5,2021.2.3,Win32,60.06366749,,,,,,,,,,,,0.7486,1,,,,,,,,,,,,,,m,1,0.7486,,,,,,,,0.131835938,-0.426757813,0,0,0,,0,30,30,53,1,POSTER,C,old,m,./images/POSTER.png,,,,,,,,,,,,,,,,,,,,,,,,,,,,,,,,,,,
,,,,,,,,,,,,,,,,,60fccbcc1254e074f17d5565,27,2022-02-12_15h54.46.488,lexical_decision_task_DD_L5,2021.2.3,Win32,60.06366749,,,,,,,,,,,,0.9762,1,,,,,,,,,,,,,,z,1,0.9762,,,,,,,,0.131835938,-0.426757813,0,0,0,,0,31,31,160,1,VEETS,HB,old,z,./images/VEETSHB.png,,,,,,,,,,,,,,,,,,,,,,,,,,,,,,,,,,,
,,,,,,,,,,,,,,,,,60fccbcc1254e074f17d5565,27,2022-02-12_15h54.46.488,lexical_decision_task_DD_L5,2021.2.3,Win32,60.06366749,,,,,,,,,,,,0.7528,1,,,,,,,,,,,,,,z,1,0.7528,,,,,,,,0.131835938,-0.426757813,0,0,0,,0,32,32,98,1,BAMPS,LB,old,z,./images/BAMPSLB.png,,,,,,,,,,,,,,,,,,,,,,,,,,,,,,,,,,,
,,,,,,,,,,,,,,,,,60fccbcc1254e074f17d5565,27,2022-02-12_15h54.46.488,lexical_decision_task_DD_L5,2021.2.3,Win32,60.06366749,,,,,,,,,,,,0.5981,1,,,,,,,,,,,,,,m,1,0.5981,,,,,,,,0.131835938,-0.426757813,0,0,0,,0,33,33,28,1,CASINO,LB,old,m,./images/CASINOLB.png,,,,,,,,,,,,,,,,,,,,,,,,,,,,,,,,,,,
,,,,,,,,,,,,,,,,,60fccbcc1254e074f17d5565,27,2022-02-12_15h54.46.488,lexical_decision_task_DD_L5,2021.2.3,Win32,60.06366749,,,,,,,,,,,,0.8665,1,,,,,,,,,,,,,,z,1,0.8665,,,,,,,,0.131835938,-0.426757813,0,0,0,,0,34,34,118,1,BAVEL,HB,old,z,./images/BAVELHB.png,,,,,,,,,,,,,,,,,,,,,,,,,,,,,,,,,,,
,,,,,,,,,,,,,,,,,60fccbcc1254e074f17d5565,27,2022-02-12_15h54.46.488,lexical_decision_task_DD_L5,2021.2.3,Win32,60.06366749,,,,,,,,,,,,0.5902,1,,,,,,,,,,,,,,m,1,0.5902,,,,,,,,0.131835938,-0.426757813,0,0,0,,0,35,35,80,1,PLANET,C,old,m,./images/PLANET.png,,,,,,,,,,,,,,,,,,,,,,,,,,,,,,,,,,,
,,,,,,,,,,,,,,,,,60fccbcc1254e074f17d5565,27,2022-02-12_15h54.46.488,lexical_decision_task_DD_L5,2021.2.3,Win32,60.06366749,,,,,,,,,,,,0.9279,1,,,,,,,,,,,,,,m,1,0.9279,,,,,,,,0.131835938,-0.426757813,0,0,0,,0,36,36,60,1,CURRY,HB,old,m,./images/CURRYHB.png,,,,,,,,,,,,,,,,,,,,,,,,,,,,,,,,,,,
,,,,,,,,,,,,,,,,,60fccbcc1254e074f17d5565,27,2022-02-12_15h54.46.488,lexical_decision_task_DD_L5,2021.2.3,Win32,60.06366749,,,,,,,,,,,,0.7108,1,,,,,,,,,,,,,,m,1,0.7108,,,,,,,,0.131835938,-0.426757813,0,0,0,,0,37,37,17,1,PARADE,C,old,m,./images/PARADE.png,,,,,,,,,,,,,,,,,,,,,,,,,,,,,,,,,,,
,,,,,,,,,,,,,,,,,60fccbcc1254e074f17d5565,27,2022-02-12_15h54.46.488,lexical_decision_task_DD_L5,2021.2.3,Win32,60.06366749,,,,,,,,,,,,2.1626,1,,,,,,,,,,,,,,z,1,2.1626,,,,,,,,0.131835938,-0.426757813,0,0,0,,0,38,38,100,1,DRIBS,HB,old,z,./images/DRIBSHB.png,,,,,,,,,,,,,,,,,,,,,,,,,,,,,,,,,,,
,,,,,,,,,,,,,,,,,60fccbcc1254e074f17d5565,27,2022-02-12_15h54.46.488,lexical_decision_task_DD_L5,2021.2.3,Win32,60.06366749,,,,,,,,,,,,0.6748,1,,,,,,,,,,,,,,m,1,0.6748,,,,,,,,0.131835938,-0.426757813,0,0,0,,0,39,39,77,1,WHEEL,C,old,m,./images/WHEEL.png,,,,,,,,,,,,,,,,,,,,,,,,,,,,,,,,,,,
,,,,,,,,,,,,,,,,,60fccbcc1254e074f17d5565,27,2022-02-12_15h54.46.488,lexical_decision_task_DD_L5,2021.2.3,Win32,60.06366749,,,,,,,,,,,,0.6241,1,,,,,,,,,,,,,,m,1,0.6241,,,,,,,,0.131835938,-0.426757813,0,0,0,,0,40,40,32,1,HOCKEY,C,old,m,./images/HOCKEY.png,,,,,,,,,,,,,,,,,,,,,,,,,,,,,,,,,,,
,,,,,,,,,,,,,,,,,60fccbcc1254e074f17d5565,27,2022-02-12_15h54.46.488,lexical_decision_task_DD_L5,2021.2.3,Win32,60.06366749,,,,,,,,,,,,0.4578,1,,,,,,,,,,,,,,m,1,0.4578,,,,,,,,0.158203125,-0.356445313,1,0,0,,0,41,41,71,1,BUBBLE,C,old,m,./images/BUBBLE.png,break_done_button,,,,,,,,,,,,,,,,,,,,,,,,,,,,,,,,,,
,,,,,,,,,,,,,,,,,60fccbcc1254e074f17d5565,27,2022-02-12_15h54.46.488,lexical_decision_task_DD_L5,2021.2.3,Win32,60.06366749,,,,,,,,,,,,1.2855,1,,,,,,,,,,,,,,m,1,1.2855,,,,,,,,0.158203125,-0.356445313,0,0,0,,0,42,42,39,1,CANDY,HB,old,m,./images/CANDYHB.png,,,,,,,,,,,,,,,,,,,,,,,,,,,,,,,,,,,
,,,,,,,,,,,,,,,,,60fccbcc1254e074f17d5565,27,2022-02-12_15h54.46.488,lexical_decision_task_DD_L5,2021.2.3,Win32,60.06366749,,,,,,,,,,,,0.6635,1,,,,,,,,,,,,,,m,1,0.6635,,,,,,,,0.158203125,-0.356445313,0,0,0,,0,43,43,2,1,STOVE,C,old,m,./images/STOVE.png,,,,,,,,,,,,,,,,,,,,,,,,,,,,,,,,,,,
,,,,,,,,,,,,,,,,,60fccbcc1254e074f17d5565,27,2022-02-12_15h54.46.488,lexical_decision_task_DD_L5,2021.2.3,Win32,60.06366749,,,,,,,,,,,,1.012,1,,,,,,,,,,,,,,m,1,1.012,,,,,,,,0.158203125,-0.356445313,0,0,0,,0,44,44,74,1,JUMPER,C,old,m,./images/JUMPER.png,,,,,,,,,,,,,,,,,,,,,,,,,,,,,,,,,,,
,,,,,,,,,,,,,,,,,60fccbcc1254e074f17d5565,27,2022-02-12_15h54.46.488,lexical_decision_task_DD_L5,2021.2.3,Win32,60.06366749,,,,,,,,,,,,1.4602,1,,,,,,,,,,,,,,z,1,1.4602,,,,,,,,0.158203125,-0.356445313,0,0,0,,0,45,45,154,1,THINT,HB,old,z,./images/THINTHB.png,,,,,,,,,,,,,,,,,,,,,,,,,,,,,,,,,,,
,,,,,,,,,,,,,,,,,60fccbcc1254e074f17d5565,27,2022-02-12_15h54.46.488,lexical_decision_task_DD_L5,2021.2.3,Win32,60.06366749,,,,,,,,,,,,1.0249,1,,,,,,,,,,,,,,z,1,1.0249,,,,,,,,0.158203125,-0.356445313,0,0,0,,0,46,46,164,1,SGREW,LB,old,z,./images/SGREWLB.png,,,,,,,,,,,,,,,,,,,,,,,,,,,,,,,,,,,
,,,,,,,,,,,,,,,,,60fccbcc1254e074f17d5565,27,2022-02-12_15h54.46.488,lexical_decision_task_DD_L5,2021.2.3,Win32,60.06366749,,,,,,,,,,,,0.6482,1,,,,,,,,,,,,,,z,1,0.6482,,,,,,,,0.158203125,-0.356445313,0,0,0,,0,47,47,140,1,DOVET,LB,old,z,./images/DOVETLB.png,,,,,,,,,,,,,,,,,,,,,,,,,,,,,,,,,,,
,,,,,,,,,,,,,,,,,60fccbcc1254e074f17d5565,27,2022-02-12_15h54.46.488,lexical_decision_task_DD_L5,2021.2.3,Win32,60.06366749,,,,,,,,,,,,1.0781,1,,,,,,,,,,,,,,z,1,1.0781,,,,,,,,0.158203125,-0.356445313,0,0,0,,0,48,48,159,1,CUDDY,C,old,z,./images/CUDDY.png,,,,,,,,,,,,,,,,,,,,,,,,,,,,,,,,,,,
,,,,,,,,,,,,,,,,,60fccbcc1254e074f17d5565,27,2022-02-12_15h54.46.488,lexical_decision_task_DD_L5,2021.2.3,Win32,60.06366749,,,,,,,,,,,,1.0814,1,,,,,,,,,,,,,,z,1,1.0814,,,,,,,,0.158203125,-0.356445313,0,0,0,,0,49,49,123,1,SEDGE,C,old,z,./images/SEDGE.png,,,,,,,,,,,,,,,,,,,,,,,,,,,,,,,,,,,
,,,,,,,,,,,,,,,,,60fccbcc1254e074f17d5565,27,2022-02-12_15h54.46.488,lexical_decision_task_DD_L5,2021.2.3,Win32,60.06366749,,,,,,,,,,,,0.7091,1,,,,,,,,,,,,,,z,1,0.7091,,,,,,,,0.158203125,-0.356445313,0,0,0,,0,50,50,161,1,BLAPS,LB,old,z,./images/BLAPSLB.png,,,,,,,,,,,,,,,,,,,,,,,,,,,,,,,,,,,
,,,,,,,,,,,,,,,,,60fccbcc1254e074f17d5565,27,2022-02-12_15h54.46.488,lexical_decision_task_DD_L5,2021.2.3,Win32,60.06366749,,,,,,,,,,,,2.8435,1,,,,,,,,,,,,,,z,1,2.8435,,,,,,,,0.158203125,-0.356445313,0,0,0,,0,51,51,115,1,MAWNS,HB,old,z,./images/MAWNSHB.png,,,,,,,,,,,,,,,,,,,,,,,,,,,,,,,,,,,
,,,,,,,,,,,,,,,,,60fccbcc1254e074f17d5565,27,2022-02-12_15h54.46.488,lexical_decision_task_DD_L5,2021.2.3,Win32,60.06366749,,,,,,,,,,,,0.5766,1,,,,,,,,,,,,,,z,1,0.5766,,,,,,,,0.158203125,-0.356445313,0,0,0,,0,52,52,102,1,DULLE,C,old,z,./images/DULLE.png,,,,,,,,,,,,,,,,,,,,,,,,,,,,,,,,,,,
,,,,,,,,,,,,,,,,,60fccbcc1254e074f17d5565,27,2022-02-12_15h54.46.488,lexical_decision_task_DD_L5,2021.2.3,Win32,60.06366749,,,,,,,,,,,,0.6904,1,,,,,,,,,,,,,,z,1,0.6904,,,,,,,,0.158203125,-0.356445313,0,0,0,,0,53,53,99,1,BACKY,C,old,z,./images/BACKY.png,,,,,,,,,,,,,,,,,,,,,,,,,,,,,,,,,,,
,,,,,,,,,,,,,,,,,60fccbcc1254e074f17d5565,27,2022-02-12_15h54.46.488,lexical_decision_task_DD_L5,2021.2.3,Win32,60.06366749,,,,,,,,,,,,0.6333,1,,,,,,,,,,,,,,m,1,0.6333,,,,,,,,0.158203125,-0.356445313,0,0,0,,0,54,54,13,1,BUNNY,LB,old,m,./images/BUNNYLB.png,,,,,,,,,,,,,,,,,,,,,,,,,,,,,,,,,,,
,,,,,,,,,,,,,,,,,60fccbcc1254e074f17d5565,27,2022-02-12_15h54.46.488,lexical_decision_task_DD_L5,2021.2.3,Win32,60.06366749,,,,,,,,,,,,0.6647,1,,,,,,,,,,,,,,z,1,0.6647,,,,,,,,0.158203125,-0.356445313,0,0,0,,0,55,55,167,1,ZONET,LB,old,z,./images/ZONETLB.png,,,,,,,,,,,,,,,,,,,,,,,,,,,,,,,,,,,
,,,,,,,,,,,,,,,,,60fccbcc1254e074f17d5565,27,2022-02-12_15h54.46.488,lexical_decision_task_DD_L5,2021.2.3,Win32,60.06366749,,,,,,,,,,,,1.8269,1,,,,,,,,,,,,,,z,1,1.8269,,,,,,,,0.158203125,-0.356445313,0,0,0,,0,56,56,133,1,POWDY,HB,old,z,./images/POWDYHB.png,,,,,,,,,,,,,,,,,,,,,,,,,,,,,,,,,,,
,,,,,,,,,,,,,,,,,60fccbcc1254e074f17d5565,27,2022-02-12_15h54.46.488,lexical_decision_task_DD_L5,2021.2.3,Win32,60.06366749,,,,,,,,,,,,0.7338,1,,,,,,,,,,,,,,z,1,0.7338,,,,,,,,0.158203125,-0.356445313,0,0,0,,0,57,57,113,1,LINEW,LB,old,z,./images/LINEWLB.png,,,,,,,,,,,,,,,,,,,,,,,,,,,,,,,,,,,
,,,,,,,,,,,,,,,,,60fccbcc1254e074f17d5565,27,2022-02-12_15h54.46.488,lexical_decision_task_DD_L5,2021.2.3,Win32,60.06366749,,,,,,,,,,,,0.8121,1,,,,,,,,,,,,,,z,1,0.8121,,,,,,,,0.158203125,-0.356445313,0,0,0,,0,58,58,122,1,BLOOT,LB,old,z,./images/BLOOTLB.png,,,,,,,,,,,,,,,,,,,,,,,,,,,,,,,,,,,
,,,,,,,,,,,,,,,,,60fccbcc1254e074f17d5565,27,2022-02-12_15h54.46.488,lexical_decision_task_DD_L5,2021.2.3,Win32,60.06366749,,,,,,,,,,,,0.6226,1,,,,,,,,,,,,,,z,1,0.6226,,,,,,,,0.158203125,-0.356445313,0,0,0,,0,59,59,132,1,SCIFF,C,old,z,./images/SCIFF.png,,,,,,,,,,,,,,,,,,,,,,,,,,,,,,,,,,,
,,,,,,,,,,,,,,,,,60fccbcc1254e074f17d5565,27,2022-02-12_15h54.46.488,lexical_decision_task_DD_L5,2021.2.3,Win32,60.06366749,,,,,,,,,,,,0.8289,1,,,,,,,,,,,,,,m,1,0.8289,,,,,,,,0.158203125,-0.356445313,0,0,0,,0,60,60,21,1,DANCER,HB,old,m,./images/DANCERHB.png,,,,,,,,,,,,,,,,,,,,,,,,,,,,,,,,,,,
,,,,,,,,,,,,,,,,,60fccbcc1254e074f17d5565,27,2022-02-12_15h54.46.488,lexical_decision_task_DD_L5,2021.2.3,Win32,60.06366749,,,,,,,,,,,,0.9758,1,,,,,,,,,,,,,,m,1,0.9758,,,,,,,,0.158203125,-0.356445313,0,0,0,,0,61,61,42,1,CHAIN,HB,old,m,./images/CHAINHB.png,,,,,,,,,,,,,,,,,,,,,,,,,,,,,,,,,,,
,,,,,,,,,,,,,,,,,60fccbcc1254e074f17d5565,27,2022-02-12_15h54.46.488,lexical_decision_task_DD_L5,2021.2.3,Win32,60.06366749,,,,,,,,,,,,0.5763,1,,,,,,,,,,,,,,m,1,0.5763,,,,,,,,0.158203125,-0.356445313,0,0,0,,0,62,62,37,1,TIGER,LB,old,m,./images/TIGERLB.png,,,,,,,,,,,,,,,,,,,,,,,,,,,,,,,,,,,
,,,,,,,,,,,,,,,,,60fccbcc1254e074f17d5565,27,2022-02-12_15h54.46.488,lexical_decision_task_DD_L5,2021.2.3,Win32,60.06366749,,,,,,,,,,,,0.9692,1,,,,,,,,,,,,,,z,1,0.9692,,,,,,,,0.158203125,-0.356445313,0,0,0,,0,63,63,110,1,CRUNK,LB,old,z,./images/CRUNKLB.png,,,,,,,,,,,,,,,,,,,,,,,,,,,,,,,,,,,
,,,,,,,,,,,,,,,,,60fccbcc1254e074f17d5565,27,2022-02-12_15h54.46.488,lexical_decision_task_DD_L5,2021.2.3,Win32,60.06366749,,,,,,,,,,,,0.7773,1,,,,,,,,,,,,,,z,1,0.7773,,,,,,,,0.158203125,-0.356445313,0,0,0,,0,64,64,142,1,PLASK,HB,old,z,./images/PLASKHB.png,,,,,,,,,,,,,,,,,,,,,,,,,,,,,,,,,,,
,,,,,,,,,,,,,,,,,60fccbcc1254e074f17d5565,27,2022-02-12_15h54.46.488,lexical_decision_task_DD_L5,2021.2.3,Win32,60.06366749,,,,,,,,,,,,0.6889,1,,,,,,,,,,,,,,z,1,0.6889,,,,,,,,0.158203125,-0.356445313,0,0,0,,0,65,65,138,1,PLICE,C,old,z,./images/PLICE.png,,,,,,,,,,,,,,,,,,,,,,,,,,,,,,,,,,,
,,,,,,,,,,,,,,,,,60fccbcc1254e074f17d5565,27,2022-02-12_15h54.46.488,lexical_decision_task_DD_L5,2021.2.3,Win32,60.06366749,,,,,,,,,,,,1.55,1,,,,,,,,,,,,,,z,1,1.55,,,,,,,,0.158203125,-0.356445313,0,0,0,,0,66,66,112,1,MYING,HB,old,z,./images/MYINGHB.png,,,,,,,,,,,,,,,,,,,,,,,,,,,,,,,,,,,
,,,,,,,,,,,,,,,,,60fccbcc1254e074f17d5565,27,2022-02-12_15h54.46.488,lexical_decision_task_DD_L5,2021.2.3,Win32,60.06366749,,,,,,,,,,,,0.558,1,,,,,,,,,,,,,,m,1,0.558,,,,,,,,0.158203125,-0.356445313,0,0,0,,0,67,67,61,1,ARTIST,LB,old,m,./images/ARTISTLB.png,,,,,,,,,,,,,,,,,,,,,,,,,,,,,,,,,,,
,,,,,,,,,,,,,,,,,60fccbcc1254e074f17d5565,27,2022-02-12_15h54.46.488,lexical_decision_task_DD_L5,2021.2.3,Win32,60.06366749,,,,,,,,,,,,2.014,1,,,,,,,,,,,,,,z,1,2.014,,,,,,,,0.158203125,-0.356445313,0,0,0,,0,68,68,88,1,GLUSH,HB,old,z,./images/GLUSHHB.png,,,,,,,,,,,,,,,,,,,,,,,,,,,,,,,,,,,
,,,,,,,,,,,,,,,,,60fccbcc1254e074f17d5565,27,2022-02-12_15h54.46.488,lexical_decision_task_DD_L5,2021.2.3,Win32,60.06366749,,,,,,,,,,,,0.6203,1,,,,,,,,,,,,,,z,1,0.6203,,,,,,,,0.158203125,-0.356445313,0,0,0,,0,69,69,119,1,PAFER,LB,old,z,./images/PAFERLB.png,,,,,,,,,,,,,,,,,,,,,,,,,,,,,,,,,,,
,,,,,,,,,,,,,,,,,60fccbcc1254e074f17d5565,27,2022-02-12_15h54.46.488,lexical_decision_task_DD_L5,2021.2.3,Win32,60.06366749,,,,,,,,,,,,2.8635,1,,,,,,,,,,,,,,z,1,2.8635,,,,,,,,0.158203125,-0.356445313,0,0,0,,0,70,70,106,1,CLUMS,HB,old,z,./images/CLUMSHB.png,,,,,,,,,,,,,,,,,,,,,,,,,,,,,,,,,,,
,,,,,,,,,,,,,,,,,60fccbcc1254e074f17d5565,27,2022-02-12_15h54.46.488,lexical_decision_task_DD_L5,2021.2.3,Win32,60.06366749,,,,,,,,,,,,1.8069,1,,,,,,,,,,,,,,z,1,1.8069,,,,,,,,0.158203125,-0.356445313,0,0,0,,0,71,71,121,1,CEERS,HB,old,z,./images/CEERSHB.png,,,,,,,,,,,,,,,,,,,,,,,,,,,,,,,,,,,
,,,,,,,,,,,,,,,,,60fccbcc1254e074f17d5565,27,2022-02-12_15h54.46.488,lexical_decision_task_DD_L5,2021.2.3,Win32,60.06366749,,,,,,,,,,,,0.5677,1,,,,,,,,,,,,,,m,1,0.5677,,,,,,,,0.158203125,-0.356445313,0,0,0,,0,72,72,16,1,GRAPE,LB,old,m,./images/GRAPELB.png,,,,,,,,,,,,,,,,,,,,,,,,,,,,,,,,,,,
,,,,,,,,,,,,,,,,,60fccbcc1254e074f17d5565,27,2022-02-12_15h54.46.488,lexical_decision_task_DD_L5,2021.2.3,Win32,60.06366749,,,,,,,,,,,,0.8189,1,,,,,,,,,,,,,,m,1,0.8189,,,,,,,,0.158203125,-0.356445313,0,0,0,,0,73,73,11,1,MEDAL,C,old,m,./images/MEDAL.png,,,,,,,,,,,,,,,,,,,,,,,,,,,,,,,,,,,
,,,,,,,,,,,,,,,,,60fccbcc1254e074f17d5565,27,2022-02-12_15h54.46.488,lexical_decision_task_DD_L5,2021.2.3,Win32,60.06366749,,,,,,,,,,,,0.9266,1,,,,,,,,,,,,,,m,1,0.9266,,,,,,,,0.158203125,-0.356445313,0,0,0,,0,74,74,33,1,SAUNA,HB,old,m,./images/SAUNAHB.png,,,,,,,,,,,,,,,,,,,,,,,,,,,,,,,,,,,
,,,,,,,,,,,,,,,,,60fccbcc1254e074f17d5565,27,2022-02-12_15h54.46.488,lexical_decision_task_DD_L5,2021.2.3,Win32,60.06366749,,,,,,,,,,,,0.9142,1,,,,,,,,,,,,,,z,1,0.9142,,,,,,,,0.158203125,-0.356445313,0,0,0,,0,75,75,109,1,BURGE,HB,old,z,./images/BURGEHB.png,,,,,,,,,,,,,,,,,,,,,,,,,,,,,,,,,,,
,,,,,,,,,,,,,,,,,60fccbcc1254e074f17d5565,27,2022-02-12_15h54.46.488,lexical_decision_task_DD_L5,2021.2.3,Win32,60.06366749,,,,,,,,,,,,0.8641,1,,,,,,,,,,,,,,m,1,0.8641,,,,,,,,0.158203125,-0.356445313,0,0,0,,0,76,76,23,1,CLOTH,C,old,m,./images/CLOTH.png,,,,,,,,,,,,,,,,,,,,,,,,,,,,,,,,,,,
,,,,,,,,,,,,,,,,,60fccbcc1254e074f17d5565,27,2022-02-12_15h54.46.488,lexical_decision_task_DD_L5,2021.2.3,Win32,60.06366749,,,,,,,,,,,,0.8454,1,,,,,,,,,,,,,,m,1,0.8454,,,,,,,,0.158203125,-0.356445313,0,0,0,,0,77,77,18,1,PARCEL,HB,old,m,./images/PARCELHB.png,,,,,,,,,,,,,,,,,,,,,,,,,,,,,,,,,,,
,,,,,,,,,,,,,,,,,60fccbcc1254e074f17d5565,27,2022-02-12_15h54.46.488,lexical_decision_task_DD_L5,2021.2.3,Win32,60.06366749,,,,,,,,,,,,0.8268,1,,,,,,,,,,,,,,m,1,0.8268,,,,,,,,0.158203125,-0.356445313,0,0,0,,0,78,78,4,1,BOXER,LB,old,m,./images/BOXERLB.png,,,,,,,,,,,,,,,,,,,,,,,,,,,,,,,,,,,
,,,,,,,,,,,,,,,,,60fccbcc1254e074f17d5565,27,2022-02-12_15h54.46.488,lexical_decision_task_DD_L5,2021.2.3,Win32,60.06366749,,,,,,,,,,,,0.9355,1,,,,,,,,,,,,,,z,1,0.9355,,,,,,,,0.158203125,-0.356445313,0,0,0,,0,79,79,104,1,GITTY,LB,old,z,./images/GITTYLB.png,,,,,,,,,,,,,,,,,,,,,,,,,,,,,,,,,,,
,,,,,,,,,,,,,,,,,60fccbcc1254e074f17d5565,27,2022-02-12_15h54.46.488,lexical_decision_task_DD_L5,2021.2.3,Win32,60.06366749,,,,,,,,,,,,0.5798,1,,,,,,,,,,,,,,z,1,0.5798,,,,,,,,0.158203125,-0.356445313,0,0,0,,0,80,80,96,1,KEAMS,C,old,z,./images/KEAMS.png,,,,,,,,,,,,,,,,,,,,,,,,,,,,,,,,,,,
,,,,,,,,,,,,,,,,,60fccbcc1254e074f17d5565,27,2022-02-12_15h54.46.488,lexical_decision_task_DD_L5,2021.2.3,Win32,60.06366749,,,,,,,,,,,,0.6109,1,,,,,,,,,,,,,,z,1,0.6109,,,,,,,,0.158203125,-0.356445313,0,0,0,,0,81,81,131,1,NACES,LB,old,z,./images/NACESLB.png,,,,,,,,,,,,,,,,,,,,,,,,,,,,,,,,,,,
,,,,,,,,,,,,,,,,,60fccbcc1254e074f17d5565,27,2022-02-12_15h54.46.488,lexical_decision_task_DD_L5,2021.2.3,Win32,60.06366749,,,,,,,,,,,,0.7816,1,,,,,,,,,,,,,,z,1,0.7816,,,,,,,,0.158203125,-0.356445313,0,0,0,,0,82,82,101,1,GLEET,LB,old,z,./images/GLEETLB.png,,,,,,,,,,,,,,,,,,,,,,,,,,,,,,,,,,,
,,,,,,,,,,,,,,,,,60fccbcc1254e074f17d5565,27,2022-02-12_15h54.46.488,lexical_decision_task_DD_L5,2021.2.3,Win32,60.06366749,,,,,,,,,,,,0.6876,1,,,,,,,,,,,,,,m,1,0.6876,,,,,,,,0.075195313,-0.376953125,1,0,0,,0,83,83,40,1,SNAKE,LB,old,m,./images/SNAKELB.png,break_done_button,,,,,,,,,,,,,,,,,,,,,,,,,,,,,,,,,,
,,,,,,,,,,,,,,,,,60fccbcc1254e074f17d5565,27,2022-02-12_15h54.46.488,lexical_decision_task_DD_L5,2021.2.3,Win32,60.06366749,,,,,,,,,,,,1.3457,1,,,,,,,,,,,,,,z,1,1.3457,,,,,,,,0.075195313,-0.376953125,0,0,0,,0,84,84,97,1,CHIDS,HB,old,z,./images/CHIDSHB.png,,,,,,,,,,,,,,,,,,,,,,,,,,,,,,,,,,,
,,,,,,,,,,,,,,,,,60fccbcc1254e074f17d5565,27,2022-02-12_15h54.46.488,lexical_decision_task_DD_L5,2021.2.3,Win32,60.06366749,,,,,,,,,,,,1.8638,1,,,,,,,,,,,,,,m,1,1.8638,,,,,,,,0.075195313,-0.376953125,0,0,0,,0,85,85,3,1,CRATER,HB,old,m,./images/CRATERHB.png,,,,,,,,,,,,,,,,,,,,,,,,,,,,,,,,,,,
,,,,,,,,,,,,,,,,,60fccbcc1254e074f17d5565,27,2022-02-12_15h54.46.488,lexical_decision_task_DD_L5,2021.2.3,Win32,60.06366749,,,,,,,,,,,,0.8285,1,,,,,,,,,,,,,,z,1,0.8285,,,,,,,,0.075195313,-0.376953125,0,0,0,,0,86,86,129,1,PRANS,C,old,z,./images/PRANS.png,,,,,,,,,,,,,,,,,,,,,,,,,,,,,,,,,,,
,,,,,,,,,,,,,,,,,60fccbcc1254e074f17d5565,27,2022-02-12_15h54.46.488,lexical_decision_task_DD_L5,2021.2.3,Win32,60.06366749,,,,,,,,,,,,1.0425,1,,,,,,,,,,,,,,m,1,1.0425,,,,,,,,0.075195313,-0.376953125,0,0,0,,0,87,87,36,1,BOILER,HB,old,m,./images/BOILERHB.png,,,,,,,,,,,,,,,,,,,,,,,,,,,,,,,,,,,
,,,,,,,,,,,,,,,,,60fccbcc1254e074f17d5565,27,2022-02-12_15h54.46.488,lexical_decision_task_DD_L5,2021.2.3,Win32,60.06366749,,,,,,,,,,,,1.436,1,,,,,,,,,,,,,,m,1,1.436,,,,,,,,0.075195313,-0.376953125,0,0,0,,0,88,88,0,1,WALNUT,HB,old,m,./images/WALNUTHB.png,,,,,,,,,,,,,,,,,,,,,,,,,,,,,,,,,,,
,,,,,,,,,,,,,,,,,60fccbcc1254e074f17d5565,27,2022-02-12_15h54.46.488,lexical_decision_task_DD_L5,2021.2.3,Win32,60.06366749,,,,,,,,,,,,1.3597,1,,,,,,,,,,,,,,z,1,1.3597,,,,,,,,0.075195313,-0.376953125,0,0,0,,0,89,89,139,1,BLEAR,HB,old,z,./images/BLEARHB.png,,,,,,,,,,,,,,,,,,,,,,,,,,,,,,,,,,,
,,,,,,,,,,,,,,,,,60fccbcc1254e074f17d5565,27,2022-02-12_15h54.46.488,lexical_decision_task_DD_L5,2021.2.3,Win32,60.06366749,,,,,,,,,,,,0.5615,1,,,,,,,,,,,,,,m,1,0.5615,,,,,,,,0.075195313,-0.376953125,0,0,0,,0,90,90,64,1,BRIDE,LB,old,m,./images/BRIDELB.png,,,,,,,,,,,,,,,,,,,,,,,,,,,,,,,,,,,
,,,,,,,,,,,,,,,,,60fccbcc1254e074f17d5565,27,2022-02-12_15h54.46.488,lexical_decision_task_DD_L5,2021.2.3,Win32,60.06366749,,,,,,,,,,,,0.8584,1,,,,,,,,,,,,,,m,1,0.8584,,,,,,,,0.075195313,-0.376953125,0,0,0,,0,91,91,47,1,LAGOON,C,old,m,./images/LAGOON.png,,,,,,,,,,,,,,,,,,,,,,,,,,,,,,,,,,,
,,,,,,,,,,,,,,,,,60fccbcc1254e074f17d5565,27,2022-02-12_15h54.46.488,lexical_decision_task_DD_L5,2021.2.3,Win32,60.06366749,,,,,,,,,,,,0.6243,1,,,,,,,,,,,,,,m,1,0.6243,,,,,,,,0.075195313,-0.376953125,0,0,0,,0,92,92,83,1,WHISKY,C,old,m,./images/WHISKY.png,,,,,,,,,,,,,,,,,,,,,,,,,,,,,,,,,,,
,,,,,,,,,,,,,,,,,60fccbcc1254e074f17d5565,27,2022-02-12_15h54.46.488,lexical_decision_task_DD_L5,2021.2.3,Win32,60.06366749,,,,,,,,,,,,0.6751,1,,,,,,,,,,,,,,z,1,0.6751,,,,,,,,0.075195313,-0.376953125,0,0,0,,0,93,93,126,1,GUELS,C,old,z,./images/GUELS.png,,,,,,,,,,,,,,,,,,,,,,,,,,,,,,,,,,,
,,,,,,,,,,,,,,,,,60fccbcc1254e074f17d5565,27,2022-02-12_15h54.46.488,lexical_decision_task_DD_L5,2021.2.3,Win32,60.06366749,,,,,,,,,,,,0.6574,1,,,,,,,,,,,,,,z,1,0.6574,,,,,,,,0.075195313,-0.376953125,0,0,0,,0,94,94,108,1,GRUET,C,old,z,./images/GRUET.png,,,,,,,,,,,,,,,,,,,,,,,,,,,,,,,,,,,
,,,,,,,,,,,,,,,,,60fccbcc1254e074f17d5565,27,2022-02-12_15h54.46.488,lexical_decision_task_DD_L5,2021.2.3,Win32,60.06366749,,,,,,,,,,,,0.6397,1,,,,,,,,,,,,,,z,1,0.6397,,,,,,,,0.075195313,-0.376953125,0,0,0,,0,95,95,162,1,LEICH,C,old,z,./images/LEICH.png,,,,,,,,,,,,,,,,,,,,,,,,,,,,,,,,,,,
,,,,,,,,,,,,,,,,,60fccbcc1254e074f17d5565,27,2022-02-12_15h54.46.488,lexical_decision_task_DD_L5,2021.2.3,Win32,60.06366749,,,,,,,,,,,,0.6532,1,,,,,,,,,,,,,,m,1,0.6532,,,,,,,,0.075195313,-0.376953125,0,0,0,,0,96,96,67,1,POKER,LB,old,m,./images/POKERLB.png,,,,,,,,,,,,,,,,,,,,,,,,,,,,,,,,,,,
,,,,,,,,,,,,,,,,,60fccbcc1254e074f17d5565,27,2022-02-12_15h54.46.488,lexical_decision_task_DD_L5,2021.2.3,Win32,60.06366749,,,,,,,,,,,,0.9615,1,,,,,,,,,,,,,,m,1,0.9615,,,,,,,,0.075195313,-0.376953125,0,0,0,,0,97,97,72,1,FLASK,HB,old,m,./images/FLASKHB.png,,,,,,,,,,,,,,,,,,,,,,,,,,,,,,,,,,,
,,,,,,,,,,,,,,,,,60fccbcc1254e074f17d5565,27,2022-02-12_15h54.46.488,lexical_decision_task_DD_L5,2021.2.3,Win32,60.06366749,,,,,,,,,,,,0.8595,1,,,,,,,,,,,,,,z,1,0.8595,,,,,,,,0.075195313,-0.376953125,0,0,0,,0,98,98,93,1,SMONE,C,old,z,./images/SMONE.png,,,,,,,,,,,,,,,,,,,,,,,,,,,,,,,,,,,
,,,,,,,,,,,,,,,,,60fccbcc1254e074f17d5565,27,2022-02-12_15h54.46.488,lexical_decision_task_DD_L5,2021.2.3,Win32,60.06366749,,,,,,,,,,,,1.5266,1,,,,,,,,,,,,,,z,1,1.5266,,,,,,,,0.075195313,-0.376953125,0,0,0,,0,99,99,127,1,NINDY,HB,old,z,./images/NINDYHB.png,,,,,,,,,,,,,,,,,,,,,,,,,,,,,,,,,,,
,,,,,,,,,,,,,,,,,60fccbcc1254e074f17d5565,27,2022-02-12_15h54.46.488,lexical_decision_task_DD_L5,2021.2.3,Win32,60.06366749,,,,,,,,,,,,1.9781,1,,,,,,,,,,,,,,z,1,1.9781,,,,,,,,0.075195313,-0.376953125,0,0,0,,0,100,100,130,1,CRILL,HB,old,z,./images/CRILLHB.png,,,,,,,,,,,,,,,,,,,,,,,,,,,,,,,,,,,
,,,,,,,,,,,,,,,,,60fccbcc1254e074f17d5565,27,2022-02-12_15h54.46.488,lexical_decision_task_DD_L5,2021.2.3,Win32,60.06366749,,,,,,,,,,,,0.6402,1,,,,,,,,,,,,,,z,1,0.6402,,,,,,,,0.075195313,-0.376953125,0,0,0,,0,101,101,147,1,ZOLES,C,old,z,./images/ZOLES.png,,,,,,,,,,,,,,,,,,,,,,,,,,,,,,,,,,,
,,,,,,,,,,,,,,,,,60fccbcc1254e074f17d5565,27,2022-02-12_15h54.46.488,lexical_decision_task_DD_L5,2021.2.3,Win32,60.06366749,,,,,,,,,,,,2.1734,1,,,,,,,,,,,,,,m,1,2.1734,,,,,,,,0.075195313,-0.376953125,0,0,0,,0,102,102,59,1,BRUSH,C,old,m,./images/BRUSH.png,,,,,,,,,,,,,,,,,,,,,,,,,,,,,,,,,,,
,,,,,,,,,,,,,,,,,60fccbcc1254e074f17d5565,27,2022-02-12_15h54.46.488,lexical_decision_task_DD_L5,2021.2.3,Win32,60.06366749,,,,,,,,,,,,1.1656,1,,,,,,,,,,,,,,m,1,1.1656,,,,,,,,0.075195313,-0.376953125,0,0,0,,0,103,103,15,1,COLLAR,HB,old,m,./images/COLLARHB.png,,,,,,,,,,,,,,,,,,,,,,,,,,,,,,,,,,,
,,,,,,,,,,,,,,,,,60fccbcc1254e074f17d5565,27,2022-02-12_15h54.46.488,lexical_decision_task_DD_L5,2021.2.3,Win32,60.06366749,,,,,,,,,,,,0.825,1,,,,,,,,,,,,,,m,1,0.825,,,,,,,,0.075195313,-0.376953125,0,0,0,,0,104,104,52,1,DESERT,LB,old,m,./images/DESERTLB.png,,,,,,,,,,,,,,,,,,,,,,,,,,,,,,,,,,,
,,,,,,,,,,,,,,,,,60fccbcc1254e074f17d5565,27,2022-02-12_15h54.46.488,lexical_decision_task_DD_L5,2021.2.3,Win32,60.06366749,,,,,,,,,,,,0.8552,1,,,,,,,,,,,,,,m,1,0.8552,,,,,,,,0.075195313,-0.376953125,0,0,0,,0,105,105,29,1,PISTOL,C,old,m,./images/PISTOL.png,,,,,,,,,,,,,,,,,,,,,,,,,,,,,,,,,,,
,,,,,,,,,,,,,,,,,60fccbcc1254e074f17d5565,27,2022-02-12_15h54.46.488,lexical_decision_task_DD_L5,2021.2.3,Win32,60.06366749,,,,,,,,,,,,1.0657,1,,,,,,,,,,,,,,z,1,1.0657,,,,,,,,0.075195313,-0.376953125,0,0,0,,0,106,106,137,1,JOOST,LB,old,z,./images/JOOSTLB.png,,,,,,,,,,,,,,,,,,,,,,,,,,,,,,,,,,,
,,,,,,,,,,,,,,,,,60fccbcc1254e074f17d5565,27,2022-02-12_15h54.46.488,lexical_decision_task_DD_L5,2021.2.3,Win32,60.06366749,,,,,,,,,,,,0.6907,1,,,,,,,,,,,,,,z,1,0.6907,,,,,,,,0.075195313,-0.376953125,0,0,0,,0,107,107,87,1,TRING,C,old,z,./images/TRING.png,,,,,,,,,,,,,,,,,,,,,,,,,,,,,,,,,,,
,,,,,,,,,,,,,,,,,60fccbcc1254e074f17d5565,27,2022-02-12_15h54.46.488,lexical_decision_task_DD_L5,2021.2.3,Win32,60.06366749,,,,,,,,,,,,0.6478,1,,,,,,,,,,,,,,z,1,0.6478,,,,,,,,0.075195313,-0.376953125,0,0,0,,0,108,108,92,1,PAIMS,LB,old,z,./images/PAIMSLB.png,,,,,,,,,,,,,,,,,,,,,,,,,,,,,,,,,,,
,,,,,,,,,,,,,,,,,60fccbcc1254e074f17d5565,27,2022-02-12_15h54.46.488,lexical_decision_task_DD_L5,2021.2.3,Win32,60.06366749,,,,,,,,,,,,0.6754,1,,,,,,,,,,,,,,z,1,0.6754,,,,,,,,0.075195313,-0.376953125,0,0,0,,0,109,109,89,1,DRIEK,LB,old,z,./images/DRIEKLB.png,,,,,,,,,,,,,,,,,,,,,,,,,,,,,,,,,,,
,,,,,,,,,,,,,,,,,60fccbcc1254e074f17d5565,27,2022-02-12_15h54.46.488,lexical_decision_task_DD_L5,2021.2.3,Win32,60.06366749,,,,,,,,,,,,0.9135,1,,,,,,,,,,,,,,m,1,0.9135,,,,,,,,0.075195313,-0.376953125,0,0,0,,0,110,110,10,1,GARDEN,LB,old,m,./images/GARDENLB.png,,,,,,,,,,,,,,,,,,,,,,,,,,,,,,,,,,,
,,,,,,,,,,,,,,,,,60fccbcc1254e074f17d5565,27,2022-02-12_15h54.46.488,lexical_decision_task_DD_L5,2021.2.3,Win32,60.06366749,,,,,,,,,,,,0.6421,1,,,,,,,,,,,,,,m,1,0.6421,,,,,,,,0.075195313,-0.376953125,0,0,0,,0,111,111,41,1,STREAM,C,old,m,./images/STREAM.png,,,,,,,,,,,,,,,,,,,,,,,,,,,,,,,,,,,
,,,,,,,,,,,,,,,,,60fccbcc1254e074f17d5565,27,2022-02-12_15h54.46.488,lexical_decision_task_DD_L5,2021.2.3,Win32,60.06366749,,,,,,,,,,,,2.6671,1,,,,,,,,,,,,,,m,1,2.6671,,,,,,,,0.075195313,-0.376953125,0,0,0,,0,112,112,9,1,DIVER,HB,old,m,./images/DIVERHB.png,,,,,,,,,,,,,,,,,,,,,,,,,,,,,,,,,,,
,,,,,,,,,,,,,,,,,60fccbcc1254e074f17d5565,27,2022-02-12_15h54.46.488,lexical_decision_task_DD_L5,2021.2.3,Win32,60.06366749,,,,,,,,,,,,0.5646,1,,,,,,,,,,,,,,m,1,0.5646,,,,,,,,0.075195313,-0.376953125,0,0,0,,0,113,113,62,1,MAMMAL,C,old,m,./images/MAMMAL.png,,,,,,,,,,,,,,,,,,,,,,,,,,,,,,,,,,,
,,,,,,,,,,,,,,,,,60fccbcc1254e074f17d5565,27,2022-02-12_15h54.46.488,lexical_decision_task_DD_L5,2021.2.3,Win32,60.06366749,,,,,,,,,,,,0.6072,1,,,,,,,,,,,,,,m,1,0.6072,,,,,,,,0.075195313,-0.376953125,0,0,0,,0,114,114,20,1,GRANNY,C,old,m,./images/GRANNY.png,,,,,,,,,,,,,,,,,,,,,,,,,,,,,,,,,,,
,,,,,,,,,,,,,,,,,60fccbcc1254e074f17d5565,27,2022-02-12_15h54.46.488,lexical_decision_task_DD_L5,2021.2.3,Win32,60.06366749,,,,,,,,,,,,0.8107,1,,,,,,,,,,,,,,z,1,0.8107,,,,,,,,0.075195313,-0.376953125,0,0,0,,0,115,115,158,1,EGECT,LB,old,z,./images/EGECTLB.png,,,,,,,,,,,,,,,,,,,,,,,,,,,,,,,,,,,
,,,,,,,,,,,,,,,,,60fccbcc1254e074f17d5565,27,2022-02-12_15h54.46.488,lexical_decision_task_DD_L5,2021.2.3,Win32,60.06366749,,,,,,,,,,,,0.8949,1,,,,,,,,,,,,,,z,1,0.8949,,,,,,,,0.075195313,-0.376953125,0,0,0,,0,116,116,114,1,RIKES,C,old,z,./images/RIKES.png,,,,,,,,,,,,,,,,,,,,,,,,,,,,,,,,,,,
,,,,,,,,,,,,,,,,,60fccbcc1254e074f17d5565,27,2022-02-12_15h54.46.488,lexical_decision_task_DD_L5,2021.2.3,Win32,60.06366749,,,,,,,,,,,,0.7591,1,,,,,,,,,,,,,,m,1,0.7591,,,,,,,,0.075195313,-0.376953125,0,0,0,,0,117,117,78,1,BROOM,HB,old,m,./images/BROOMHB.png,,,,,,,,,,,,,,,,,,,,,,,,,,,,,,,,,,,
,,,,,,,,,,,,,,,,,60fccbcc1254e074f17d5565,27,2022-02-12_15h54.46.488,lexical_decision_task_DD_L5,2021.2.3,Win32,60.06366749,,,,,,,,,,,,0.8262,1,,,,,,,,,,,,,,m,1,0.8262,,,,,,,,0.075195313,-0.376953125,0,0,0,,0,118,118,30,1,SLOPE,HB,old,m,./images/SLOPEHB.png,,,,,,,,,,,,,,,,,,,,,,,,,,,,,,,,,,,
,,,,,,,,,,,,,,,,,60fccbcc1254e074f17d5565,27,2022-02-12_15h54.46.488,lexical_decision_task_DD_L5,2021.2.3,Win32,60.06366749,,,,,,,,,,,,0.6305,1,,,,,,,,,,,,,,z,1,0.6305,,,,,,,,0.075195313,-0.376953125,0,0,0,,0,119,119,111,1,HOSSE,C,old,z,./images/HOSSE.png,,,,,,,,,,,,,,,,,,,,,,,,,,,,,,,,,,,
,,,,,,,,,,,,,,,,,60fccbcc1254e074f17d5565,27,2022-02-12_15h54.46.488,lexical_decision_task_DD_L5,2021.2.3,Win32,60.06366749,,,,,,,,,,,,0.9941,1,,,,,,,,,,,,,,z,1,0.9941,,,,,,,,0.075195313,-0.376953125,0,0,0,,0,120,120,151,1,TINKY,HB,old,z,./images/TINKYHB.png,,,,,,,,,,,,,,,,,,,,,,,,,,,,,,,,,,,
,,,,,,,,,,,,,,,,,60fccbcc1254e074f17d5565,27,2022-02-12_15h54.46.488,lexical_decision_task_DD_L5,2021.2.3,Win32,60.06366749,,,,,,,,,,,,0.7569,1,,,,,,,,,,,,,,z,1,0.7569,,,,,,,,0.075195313,-0.376953125,0,0,0,,0,121,121,156,1,HIXES,C,old,z,./images/HIXES.png,,,,,,,,,,,,,,,,,,,,,,,,,,,,,,,,,,,
,,,,,,,,,,,,,,,,,60fccbcc1254e074f17d5565,27,2022-02-12_15h54.46.488,lexical_decision_task_DD_L5,2021.2.3,Win32,60.06366749,,,,,,,,,,,,0.7608,1,,,,,,,,,,,,,,z,1,0.7608,,,,,,,,0.075195313,-0.376953125,0,0,0,,0,122,122,134,1,TROSS,LB,old,z,./images/TROSSLB.png,,,,,,,,,,,,,,,,,,,,,,,,,,,,,,,,,,,
,,,,,,,,,,,,,,,,,60fccbcc1254e074f17d5565,27,2022-02-12_15h54.46.488,lexical_decision_task_DD_L5,2021.2.3,Win32,60.06366749,,,,,,,,,,,,0.8641,1,,,,,,,,,,,,,,z,1,0.8641,,,,,,,,0.075195313,-0.376953125,0,0,0,,0,123,123,135,1,JOODY,C,old,z,./images/JOODY.png,,,,,,,,,,,,,,,,,,,,,,,,,,,,,,,,,,,
,,,,,,,,,,,,,,,,,60fccbcc1254e074f17d5565,27,2022-02-12_15h54.46.488,lexical_decision_task_DD_L5,2021.2.3,Win32,60.06366749,,,,,,,,,,,,0.6951,1,,,,,,,,,,,,,,m,1,0.6951,,,,,,,,0.075195313,-0.376953125,0,0,0,,0,124,124,44,1,BASKET,C,old,m,./images/BASKET.png,,,,,,,,,,,,,,,,,,,,,,,,,,,,,,,,,,,
,,,,,,,,,,,,,,,,,60fccbcc1254e074f17d5565,27,2022-02-12_15h54.46.488,lexical_decision_task_DD_L5,2021.2.3,Win32,60.06366749,,,,,,,,,,,,0.6406,1,,,,,,,,,,,,,,m,1,0.6406,,,,,,,,0.075195313,-0.376953125,1,0,0,,0,125,125,38,1,ENGINE,C,old,m,./images/ENGINE.png,break_done_button,,,,,,,,,,,,,,,,,,,,,,,,,,,,,,,,,,
,,,,,,,,,,,,,,,,,60fccbcc1254e074f17d5565,27,2022-02-12_15h54.46.488,lexical_decision_task_DD_L5,2021.2.3,Win32,60.06366749,,,,,,,,,,,,0.6235,1,,,,,,,,,,,,,,m,1,0.6235,,,,,,,,0.075195313,-0.376953125,0,0,0,,0,126,126,65,1,SPINE,C,old,m,./images/SPINE.png,,,,,,,,,,,,,,,,,,,,,,,,,,,,,,,,,,,
,,,,,,,,,,,,,,,,,60fccbcc1254e074f17d5565,27,2022-02-12_15h54.46.488,lexical_decision_task_DD_L5,2021.2.3,Win32,60.06366749,,,,,,,,,,,,0.7955,1,,,,,,,,,,,,,,m,1,0.7955,,,,,,,,0.075195313,-0.376953125,0,0,0,,0,127,127,51,1,SAUCE,HB,old,m,./images/SAUCEHB.png,,,,,,,,,,,,,,,,,,,,,,,,,,,,,,,,,,,
,,,,,,,,,,,,,,,,,60fccbcc1254e074f17d5565,27,2022-02-12_15h54.46.488,lexical_decision_task_DD_L5,2021.2.3,Win32,60.06366749,,,,,,,,,,,,0.6155,1,,,,,,,,,,,,,,m,1,0.6155,,,,,,,,0.075195313,-0.376953125,0,0,0,,0,128,128,56,1,HEATER,C,old,m,./images/HEATER.png,,,,,,,,,,,,,,,,,,,,,,,,,,,,,,,,,,,
,,,,,,,,,,,,,,,,,60fccbcc1254e074f17d5565,27,2022-02-12_15h54.46.488,lexical_decision_task_DD_L5,2021.2.3,Win32,60.06366749,,,,,,,,,,,,0.6069,1,,,,,,,,,,,,,,m,1,0.6069,,,,,,,,0.075195313,-0.376953125,0,0,0,,0,129,129,68,1,VALLEY,C,old,m,./images/VALLEY.png,,,,,,,,,,,,,,,,,,,,,,,,,,,,,,,,,,,
,,,,,,,,,,,,,,,,,60fccbcc1254e074f17d5565,27,2022-02-12_15h54.46.488,lexical_decision_task_DD_L5,2021.2.3,Win32,60.06366749,,,,,,,,,,,,0.5259,1,,,,,,,,,,,,,,m,1,0.5259,,,,,,,,0.075195313,-0.376953125,0,0,0,,0,130,130,34,1,RAZOR,LB,old,m,./images/RAZORLB.png,,,,,,,,,,,,,,,,,,,,,,,,,,,,,,,,,,,
,,,,,,,,,,,,,,,,,60fccbcc1254e074f17d5565,27,2022-02-12_15h54.46.488,lexical_decision_task_DD_L5,2021.2.3,Win32,60.06366749,,,,,,,,,,,,0.5774,1,,,,,,,,,,,,,,m,1,0.5774,,,,,,,,0.075195313,-0.376953125,0,0,0,,0,131,131,1,1,TOWEL,LB,old,m,./images/TOWELLB.png,,,,,,,,,,,,,,,,,,,,,,,,,,,,,,,,,,,
,,,,,,,,,,,,,,,,,60fccbcc1254e074f17d5565,27,2022-02-12_15h54.46.488,lexical_decision_task_DD_L5,2021.2.3,Win32,60.06366749,,,,,,,,,,,,1.1835,1,,,,,,,,,,,,,,m,1,1.1835,,,,,,,,0.075195313,-0.376953125,0,0,0,,0,132,132,27,1,BUTTER,HB,old,m,./images/BUTTERHB.png,,,,,,,,,,,,,,,,,,,,,,,,,,,,,,,,,,,
,,,,,,,,,,,,,,,,,60fccbcc1254e074f17d5565,27,2022-02-12_15h54.46.488,lexical_decision_task_DD_L5,2021.2.3,Win32,60.06366749,,,,,,,,,,,,1.0439,0,,,,,,,,,,,,,,z,0,1.0439,,,,,,,,0.075195313,-0.376953125,0,0,0,,0,133,133,12,1,BLOKE,HB,old,m,./images/BLOKEHB.png,,,,,,,,,,,,,,,,,,,,,,,,,,,,,,,,,,,
,,,,,,,,,,,,,,,,,60fccbcc1254e074f17d5565,27,2022-02-12_15h54.46.488,lexical_decision_task_DD_L5,2021.2.3,Win32,60.06366749,,,,,,,,,,,,1.946,1,,,,,,,,,,,,,,z,1,1.946,,,,,,,,0.075195313,-0.376953125,0,0,0,,0,134,134,163,1,GAMBA,HB,old,z,./images/GAMBAHB.png,,,,,,,,,,,,,,,,,,,,,,,,,,,,,,,,,,,
,,,,,,,,,,,,,,,,,60fccbcc1254e074f17d5565,27,2022-02-12_15h54.46.488,lexical_decision_task_DD_L5,2021.2.3,Win32,60.06366749,,,,,,,,,,,,1.051,1,,,,,,,,,,,,,,z,1,1.051,,,,,,,,0.075195313,-0.376953125,0,0,0,,0,135,135,124,1,TUNCH,HB,old,z,./images/TUNCHHB.png,,,,,,,,,,,,,,,,,,,,,,,,,,,,,,,,,,,
,,,,,,,,,,,,,,,,,60fccbcc1254e074f17d5565,27,2022-02-12_15h54.46.488,lexical_decision_task_DD_L5,2021.2.3,Win32,60.06366749,,,,,,,,,,,,0.7244,1,,,,,,,,,,,,,,z,1,0.7244,,,,,,,,0.075195313,-0.376953125,0,0,0,,0,136,136,117,1,STEEG,C,old,z,./images/STEEG.png,,,,,,,,,,,,,,,,,,,,,,,,,,,,,,,,,,,
,,,,,,,,,,,,,,,,,60fccbcc1254e074f17d5565,27,2022-02-12_15h54.46.488,lexical_decision_task_DD_L5,2021.2.3,Win32,60.06366749,,,,,,,,,,,,1.243,1,,,,,,,,,,,,,,m,1,1.243,,,,,,,,0.075195313,-0.376953125,0,0,0,,0,137,137,81,1,DRILL,HB,old,m,./images/DRILLHB.png,,,,,,,,,,,,,,,,,,,,,,,,,,,,,,,,,,,
,,,,,,,,,,,,,,,,,60fccbcc1254e074f17d5565,27,2022-02-12_15h54.46.488,lexical_decision_task_DD_L5,2021.2.3,Win32,60.06366749,,,,,,,,,,,,1.5971,1,,,,,,,,,,,,,,m,1,1.5971,,,,,,,,0.075195313,-0.376953125,0,0,0,,0,138,138,57,1,FERRY,HB,old,m,./images/FERRYHB.png,,,,,,,,,,,,,,,,,,,,,,,,,,,,,,,,,,,
,,,,,,,,,,,,,,,,,60fccbcc1254e074f17d5565,27,2022-02-12_15h54.46.488,lexical_decision_task_DD_L5,2021.2.3,Win32,60.06366749,,,,,,,,,,,,0.8596,1,,,,,,,,,,,,,,m,1,0.8596,,,,,,,,0.075195313,-0.376953125,0,0,0,,0,139,139,54,1,CHERRY,HB,old,m,./images/CHERRYHB.png,,,,,,,,,,,,,,,,,,,,,,,,,,,,,,,,,,,
,,,,,,,,,,,,,,,,,60fccbcc1254e074f17d5565,27,2022-02-12_15h54.46.488,lexical_decision_task_DD_L5,2021.2.3,Win32,60.06366749,,,,,,,,,,,,0.9951,1,,,,,,,,,,,,,,z,1,0.9951,,,,,,,,0.075195313,-0.376953125,0,0,0,,0,140,140,149,1,VEASE,LB,old,z,./images/VEASELB.png,,,,,,,,,,,,,,,,,,,,,,,,,,,,,,,,,,,
,,,,,,,,,,,,,,,,,60fccbcc1254e074f17d5565,27,2022-02-12_15h54.46.488,lexical_decision_task_DD_L5,2021.2.3,Win32,60.06366749,,,,,,,,,,,,0.9857,1,,,,,,,,,,,,,,z,1,0.9857,,,,,,,,0.075195313,-0.376953125,0,0,0,,0,141,141,155,1,CANGY,LB,old,z,./images/CANGYLB.png,,,,,,,,,,,,,,,,,,,,,,,,,,,,,,,,,,,
,,,,,,,,,,,,,,,,,60fccbcc1254e074f17d5565,27,2022-02-12_15h54.46.488,lexical_decision_task_DD_L5,2021.2.3,Win32,60.06366749,,,,,,,,,,,,1.1956,1,,,,,,,,,,,,,,m,1,1.1956,,,,,,,,0.075195313,-0.376953125,0,0,0,,0,142,142,76,1,MIDGET,LB,old,m,./images/MIDGETLB.png,,,,,,,,,,,,,,,,,,,,,,,,,,,,,,,,,,,
,,,,,,,,,,,,,,,,,60fccbcc1254e074f17d5565,27,2022-02-12_15h54.46.488,lexical_decision_task_DD_L5,2021.2.3,Win32,60.06366749,,,,,,,,,,,,0.7243,1,,,,,,,,,,,,,,z,1,0.7243,,,,,,,,0.075195313,-0.376953125,0,0,0,,0,143,143,90,1,NEAST,C,old,z,./images/NEAST.png,,,,,,,,,,,,,,,,,,,,,,,,,,,,,,,,,,,
,,,,,,,,,,,,,,,,,60fccbcc1254e074f17d5565,27,2022-02-12_15h54.46.488,lexical_decision_task_DD_L5,2021.2.3,Win32,60.06366749,,,,,,,,,,,,0.6605,1,,,,,,,,,,,,,,z,1,0.6605,,,,,,,,0.075195313,-0.376953125,0,0,0,,0,144,144,125,1,MOOKY,LB,old,z,./images/MOOKYLB.png,,,,,,,,,,,,,,,,,,,,,,,,,,,,,,,,,,,
,,,,,,,,,,,,,,,,,60fccbcc1254e074f17d5565,27,2022-02-12_15h54.46.488,lexical_decision_task_DD_L5,2021.2.3,Win32,60.06366749,,,,,,,,,,,,0.6038,1,,,,,,,,,,,,,,m,1,0.6038,,,,,,,,0.075195313,-0.376953125,0,0,0,,0,145,145,31,1,STEAK,LB,old,m,./images/STEAKLB.png,,,,,,,,,,,,,,,,,,,,,,,,,,,,,,,,,,,
,,,,,,,,,,,,,,,,,60fccbcc1254e074f17d5565,27,2022-02-12_15h54.46.488,lexical_decision_task_DD_L5,2021.2.3,Win32,60.06366749,,,,,,,,,,,,0.563,1,,,,,,,,,,,,,,m,1,0.563,,,,,,,,0.075195313,-0.376953125,0,0,0,,0,146,146,14,1,FENCE,C,old,m,./images/FENCE.png,,,,,,,,,,,,,,,,,,,,,,,,,,,,,,,,,,,
,,,,,,,,,,,,,,,,,60fccbcc1254e074f17d5565,27,2022-02-12_15h54.46.488,lexical_decision_task_DD_L5,2021.2.3,Win32,60.06366749,,,,,,,,,,,,0.5104,1,,,,,,,,,,,,,,m,1,0.5104,,,,,,,,0.075195313,-0.376953125,0,0,0,,0,147,147,70,1,BANANA,LB,old,m,./images/BANANALB.png,,,,,,,,,,,,,,,,,,,,,,,,,,,,,,,,,,,
,,,,,,,,,,,,,,,,,60fccbcc1254e074f17d5565,27,2022-02-12_15h54.46.488,lexical_decision_task_DD_L5,2021.2.3,Win32,60.06366749,,,,,,,,,,,,0.6773,1,,,,,,,,,,,,,,m,1,0.6773,,,,,,,,0.075195313,-0.376953125,0,0,0,,0,148,148,58,1,CANOE,LB,old,m,./images/CANOELB.png,,,,,,,,,,,,,,,,,,,,,,,,,,,,,,,,,,,
,,,,,,,,,,,,,,,,,60fccbcc1254e074f17d5565,27,2022-02-12_15h54.46.488,lexical_decision_task_DD_L5,2021.2.3,Win32,60.06366749,,,,,,,,,,,,0.8516,1,,,,,,,,,,,,,,m,1,0.8516,,,,,,,,0.075195313,-0.376953125,0,0,0,,0,149,149,24,1,FLESH,HB,old,m,./images/FLESHHB.png,,,,,,,,,,,,,,,,,,,,,,,,,,,,,,,,,,,
,,,,,,,,,,,,,,,,,60fccbcc1254e074f17d5565,27,2022-02-12_15h54.46.488,lexical_decision_task_DD_L5,2021.2.3,Win32,60.06366749,,,,,,,,,,,,1.7429,1,,,,,,,,,,,,,,z,1,1.7429,,,,,,,,0.075195313,-0.376953125,0,0,0,,0,150,150,157,1,INLER,HB,old,z,./images/INLERHB.png,,,,,,,,,,,,,,,,,,,,,,,,,,,,,,,,,,,
,,,,,,,,,,,,,,,,,60fccbcc1254e074f17d5565,27,2022-02-12_15h54.46.488,lexical_decision_task_DD_L5,2021.2.3,Win32,60.06366749,,,,,,,,,,,,0.6419,1,,,,,,,,,,,,,,m,1,0.6419,,,,,,,,0.075195313,-0.376953125,0,0,0,,0,151,151,66,1,STATUE,HB,old,m,./images/STATUEHB.png,,,,,,,,,,,,,,,,,,,,,,,,,,,,,,,,,,,
,,,,,,,,,,,,,,,,,60fccbcc1254e074f17d5565,27,2022-02-12_15h54.46.488,lexical_decision_task_DD_L5,2021.2.3,Win32,60.06366749,,,,,,,,,,,,1.3428,1,,,,,,,,,,,,,,m,1,1.3428,,,,,,,,0.075195313,-0.376953125,0,0,0,,0,152,152,7,1,WAGON,LB,old,m,./images/WAGONLB.png,,,,,,,,,,,,,,,,,,,,,,,,,,,,,,,,,,,
,,,,,,,,,,,,,,,,,60fccbcc1254e074f17d5565,27,2022-02-12_15h54.46.488,lexical_decision_task_DD_L5,2021.2.3,Win32,60.06366749,,,,,,,,,,,,0.6623,1,,,,,,,,,,,,,,m,1,0.6623,,,,,,,,0.075195313,-0.376953125,0,0,0,,0,153,153,82,1,PEBBLE,LB,old,m,./images/PEBBLELB.png,,,,,,,,,,,,,,,,,,,,,,,,,,,,,,,,,,,
,,,,,,,,,,,,,,,,,60fccbcc1254e074f17d5565,27,2022-02-12_15h54.46.488,lexical_decision_task_DD_L5,2021.2.3,Win32,60.06366749,,,,,,,,,,,,0.881,1,,,,,,,,,,,,,,z,1,0.881,,,,,,,,0.075195313,-0.376953125,0,0,0,,0,154,154,144,1,NAIRY,C,old,z,./images/NAIRY.png,,,,,,,,,,,,,,,,,,,,,,,,,,,,,,,,,,,
,,,,,,,,,,,,,,,,,60fccbcc1254e074f17d5565,27,2022-02-12_15h54.46.488,lexical_decision_task_DD_L5,2021.2.3,Win32,60.06366749,,,,,,,,,,,,0.6449,1,,,,,,,,,,,,,,z,1,0.6449,,,,,,,,0.075195313,-0.376953125,0,0,0,,0,155,155,95,1,HANTY,LB,old,z,./images/HANTYLB.png,,,,,,,,,,,,,,,,,,,,,,,,,,,,,,,,,,,
,,,,,,,,,,,,,,,,,60fccbcc1254e074f17d5565,27,2022-02-12_15h54.46.488,lexical_decision_task_DD_L5,2021.2.3,Win32,60.06366749,,,,,,,,,,,,2.5627,1,,,,,,,,,,,,,,m,1,2.5627,,,,,,,,0.075195313,-0.376953125,0,0,0,,0,156,156,25,1,CHALK,LB,old,m,./images/CHALKLB.png,,,,,,,,,,,,,,,,,,,,,,,,,,,,,,,,,,,
,,,,,,,,,,,,,,,,,60fccbcc1254e074f17d5565,27,2022-02-12_15h54.46.488,lexical_decision_task_DD_L5,2021.2.3,Win32,60.06366749,,,,,,,,,,,,1.1647,1,,,,,,,,,,,,,,z,1,1.1647,,,,,,,,0.075195313,-0.376953125,0,0,0,,0,157,157,105,1,MOKER,C,old,z,./images/MOKER.png,,,,,,,,,,,,,,,,,,,,,,,,,,,,,,,,,,,
,,,,,,,,,,,,,,,,,60fccbcc1254e074f17d5565,27,2022-02-12_15h54.46.488,lexical_decision_task_DD_L5,2021.2.3,Win32,60.06366749,,,,,,,,,,,,1.5701,1,,,,,,,,,,,,,,z,1,1.5701,,,,,,,,0.075195313,-0.376953125,0,0,0,,0,158,158,103,1,FLORT,HB,old,z,./images/FLORTHB.png,,,,,,,,,,,,,,,,,,,,,,,,,,,,,,,,,,,
,,,,,,,,,,,,,,,,,60fccbcc1254e074f17d5565,27,2022-02-12_15h54.46.488,lexical_decision_task_DD_L5,2021.2.3,Win32,60.06366749,,,,,,,,,,,,0.9394,1,,,,,,,,,,,,,,m,1,0.9394,,,,,,,,0.075195313,-0.376953125,0,0,0,,0,159,159,8,1,CLIFF,C,old,m,./images/CLIFF.png,,,,,,,,,,,,,,,,,,,,,,,,,,,,,,,,,,,
,,,,,,,,,,,,,,,,,60fccbcc1254e074f17d5565,27,2022-02-12_15h54.46.488,lexical_decision_task_DD_L5,2021.2.3,Win32,60.06366749,,,,,,,,,,,,1.0105,1,,,,,,,,,,,,,,z,1,1.0105,,,,,,,,0.075195313,-0.376953125,0,0,0,,0,160,160,148,1,JOMS,HB,old,z,./images/JOMSHB.png,,,,,,,,,,,,,,,,,,,,,,,,,,,,,,,,,,,
,,,,,,,,,,,,,,,,,60fccbcc1254e074f17d5565,27,2022-02-12_15h54.46.488,lexical_decision_task_DD_L5,2021.2.3,Win32,60.06366749,,,,,,,,,,,,0.9163,1,,,,,,,,,,,,,,m,1,0.9163,,,,,,,,0.075195313,-0.376953125,0,0,0,,0,161,161,73,1,GLOVE,LB,old,m,./images/GLOVELB.png,,,,,,,,,,,,,,,,,,,,,,,,,,,,,,,,,,,
,,,,,,,,,,,,,,,,,60fccbcc1254e074f17d5565,27,2022-02-12_15h54.46.488,lexical_decision_task_DD_L5,2021.2.3,Win32,60.06366749,,,,,,,,,,,,0.9263,1,,,,,,,,,,,,,,m,1,0.9263,,,,,,,,0.075195313,-0.376953125,0,0,0,,0,162,162,6,1,STAIN,HB,old,m,./images/STAINHB.png,,,,,,,,,,,,,,,,,,,,,,,,,,,,,,,,,,,
,,,,,,,,,,,,,,,,,60fccbcc1254e074f17d5565,27,2022-02-12_15h54.46.488,lexical_decision_task_DD_L5,2021.2.3,Win32,60.06366749,,,,,,,,,,,,0.6008,1,,,,,,,,,,,,,,m,1,0.6008,,,,,,,,0.075195313,-0.376953125,0,0,0,,0,163,163,19,1,DONKEY,LB,old,m,./images/DONKEYLB.png,,,,,,,,,,,,,,,,,,,,,,,,,,,,,,,,,,,
,,,,,,,,,,,,,,,,,60fccbcc1254e074f17d5565,27,2022-02-12_15h54.46.488,lexical_decision_task_DD_L5,2021.2.3,Win32,60.06366749,,,,,,,,,,,,0.4842,1,,,,,,,,,,,,,,m,1,0.4842,,,,,,,,0.075195313,-0.376953125,0,0,0,,0,164,164,26,1,CLOUD,C,old,m,./images/CLOUD.png,,,,,,,,,,,,,,,,,,,,,,,,,,,,,,,,,,,
,,,,,,,,,,,,,,,,,60fccbcc1254e074f17d5565,27,2022-02-12_15h54.46.488,lexical_decision_task_DD_L5,2021.2.3,Win32,60.06366749,,,,,,,,,,,,0.6693,1,,,,,,,,,,,,,,z,1,0.6693,,,,,,,,0.075195313,-0.376953125,0,0,0,,0,165,165,116,1,BALGY,LB,old,z,./images/BALGYLB.png,,,,,,,,,,,,,,,,,,,,,,,,,,,,,,,,,,,
,,,,,,,,,,,,,,,,,60fccbcc1254e074f17d5565,27,2022-02-12_15h54.46.488,lexical_decision_task_DD_L5,2021.2.3,Win32,60.06366749,,,,,,,,,,,,1.6259,1,,,,,,,,,,,,,,z,1,1.6259,,,,,,,,0.075195313,-0.376953125,0,0,0,,0,166,166,152,1,FRAIN,LB,old,z,./images/FRAINLB.png,,,,,,,,,,,,,,,,,,,,,,,,,,,,,,,,,,,
,,,,,,,,,,,,,,,,,60fccbcc1254e074f17d5565,27,2022-02-12_15h54.46.488,lexical_decision_task_DD_L5,2021.2.3,Win32,60.06366749,,,,,,,,,,,,1.4804,1,,,,,,,,,,,,,,z,1,1.4804,,,,,,,,0.075195313,-0.376953125,0,0,0,,0,167,167,145,1,LAMEL,HB,old,z,./images/LAMELHB.png,,,,,,,,,,,,,,,,,,,,,,,,,,,,,,,,,,,
,,,,,,,,,,,,,,,,,60fccbcc1254e074f17d5565,27,2022-02-12_15h54.46.488,lexical_decision_task_DD_L5,2021.2.3,Win32,60.06366749,,,,,,,,,,,,,,,,,,,,,,,,,,,,,,,,,,,,,,,,,,,,,,,,,How likely will it be that you will recognize the words presented slighly blurred on a scale of 0 (not likely) to 100 (most likely)?,,,,,-0.006835938,-0.409179688,1,0,0,jol_adv,5,9.7536,0,0,0,1,1,,,,,,,,,,,,,,,,,,,,,
,,,,,,,,,,,,,,,,,60fccbcc1254e074f17d5565,27,2022-02-12_15h54.46.488,lexical_decision_task_DD_L5,2021.2.3,Win32,60.06366749,,,,,,,,,,,,,,,,,,,,,,,,,,,,,,,,,,,,,,,,,,,,,,,,,How likely will it be that you will recognize the words presented clearly on a scale of 0 (not likely) to 100 (most likely)?,,,,,,,,,,,6,7.2874,0,1,1,0,1,,,,,,,,,,,,,,,,,,,,,
,,,,,,,,,,,,,,,,,60fccbcc1254e074f17d5565,27,2022-02-12_15h54.46.488,lexical_decision_task_DD_L5,2021.2.3,Win32,60.06366749,,,,,,,,,,,,,,,,,,,,,,,,,,,,,,,,,,,,,,,,,,,,,,,,,How likely will it be that you will recognize the words presented very blurred on a scale of 0 (not likely) to 100 (most likely)?,,,,,,,,,,,6,0.5304,0,2,2,2,1,,,,,,,,,,,,,,,,,,,,,
,,0.083007813,-0.380859375,1,0,0,,,,,,1,test,"In the next phase you will be presented with the words from the the first phase. Your job is to decide whether you remember seeing the word or not. If you remember seeing the word press ""old"" or type ""m"". If you do not remember seeing the word press ""new"" or type ""z"". Please press the space bar or click on continue to begin. ",,,60fccbcc1254e074f17d5565,27,2022-02-12_15h54.46.488,lexical_decision_task_DD_L5,2021.2.3,Win32,60.06366749,instr_done_button,,,,,,,,,,,,,,,,,,,,,,,,,,,,,,,,,,,,,,,,,,,,,,,,,,,,,,,,,,,,,,,,,,0,0,0,0,1,,,,,,,,,,,,,,,,
,,0.083007813,-0.380859375,1,0,0,,,,,,1,test,"In the next phase you will be presented with the words from the the first phase. Your job is to decide whether you remember seeing the word or not. If you remember seeing the word press ""old"" or type ""m"". If you do not remember seeing the word press ""new"" or type ""z"". Please press the space bar or click on continue to begin. ",,,60fccbcc1254e074f17d5565,27,2022-02-12_15h54.46.488,lexical_decision_task_DD_L5,2021.2.3,Win32,60.06366749,instr_done_button,,,,,,,,,,,,,,,,,,,,,,,,,,,,,,,,,,,,,,,,,,,,,,,,,,,,,,,,,,,,,,,,,,1,0,1,0,1,,,,,,,,,,,,,,,,
,,0.083007813,-0.380859375,1,0,0,,,,,,1,test,"In the next phase you will be presented with the words from the the first phase. Your job is to decide whether you remember seeing the word or not. If you remember seeing the word press ""old"" or type ""m"". If you do not remember seeing the word press ""new"" or type ""z"". Please press the space bar or click on continue to begin. ",,,60fccbcc1254e074f17d5565,27,2022-02-12_15h54.46.488,lexical_decision_task_DD_L5,2021.2.3,Win32,60.06366749,instr_done_button,,,,,,,,,,,,,,,,,,,,,,,,,,,,,,,,,,,,,,,,,,,,,,,,,,,,,,,,,,,,,,,,,,2,0,2,0,1,,,,,,,,,,,,,,,,
,,0.005859375,-0.419921875,1,0,0,,,,,,1,test,"In the next phase you will be presented with the words from the the first phase. Your job is to decide whether you remember seeing the word or not. If you remember seeing the word press ""old"" or type ""m"". If you do not remember seeing the word press ""new"" or type ""z"". Please press the space bar or click on continue to begin. ",,,60fccbcc1254e074f17d5565,27,2022-02-12_15h54.46.488,lexical_decision_task_DD_L5,2021.2.3,Win32,60.06366749,instr_done_button,,,,,,,,,,,,,,,,,,,,,,,,,,,,,,,,,,,,,,,,,,,,,,,,,,,,,,,,,,,,,,,,,,3,0,3,0,1,,,,,,,,,,,,,,,,
,,0.005859375,-0.419921875,1,0,0,,,,,,1,test,"In the next phase you will be presented with the words from the the first phase. Your job is to decide whether you remember seeing the word or not. If you remember seeing the word press ""old"" or type ""m"". If you do not remember seeing the word press ""new"" or type ""z"". Please press the space bar or click on continue to begin. ",,,60fccbcc1254e074f17d5565,27,2022-02-12_15h54.46.488,lexical_decision_task_DD_L5,2021.2.3,Win32,60.06366749,instr_done_button,,,,,,,,,,,,,,,,,,,,,,,,,,,,,,,,,,,,,,,,,,,,,,,,,,,,,,,,,,,,,,,,,,4,0,4,0,1,,,,,,,,,,,,,,,,
,,,,,,,,,,,,,,,,,60fccbcc1254e074f17d5565,27,2022-02-12_15h54.46.488,lexical_decision_task_DD_L5,2021.2.3,Win32,60.06366749,,,,,,,,,,,,2.6585,1,,,,,,,,,,,,,,,,,,,,,,,,0.004882813,-0.421875,0,0,0,,,,,,,SAILOR,LB,z,y,./images/SAILORLB.png,,,,,,,,,,,,,,,,,,,,z,1,2.6585,,,,,,,,0,0,0,151,1,
,,,,,,,,,,,,,,,,,60fccbcc1254e074f17d5565,27,2022-02-12_15h54.46.488,lexical_decision_task_DD_L5,2021.2.3,Win32,60.06366749,,,,,,,,,,,,1.5196,1,,,,,,,,,,,,,,,,,,,,,,,,0.004882813,-0.421875,0,0,0,,,,,,,FOLDER,HB,z,y,./images/FOLDERHB.png,,,,,,,,,,,,,,,,,,,,z,1,1.5196,,,,,,,,0,1,1,126,1,
,,,,,,,,,,,,,,,,,60fccbcc1254e074f17d5565,27,2022-02-12_15h54.46.488,lexical_decision_task_DD_L5,2021.2.3,Win32,60.06366749,,,,,,,,,,,,1.6175,1,,,,,,,,,,,,,,,,,,,,,,,,0.004882813,-0.421875,0,0,0,,,,,,,BUBBLE,C,m,y,./images/BUBBLE.png,,,,,,,,,,,,,,,,,,,,m,1,1.6175,,,,,,,,0,2,2,71,1,
,,,,,,,,,,,,,,,,,60fccbcc1254e074f17d5565,27,2022-02-12_15h54.46.488,lexical_decision_task_DD_L5,2021.2.3,Win32,60.06366749,,,,,,,,,,,,1.1704,1,,,,,,,,,,,,,,,,,,,,,,,,0.004882813,-0.421875,0,0,0,,,,,,,DONKEY,LB,m,y,./images/DONKEYLB.png,,,,,,,,,,,,,,,,,,,,m,1,1.1704,,,,,,,,0,3,3,19,1,
,,,,,,,,,,,,,,,,,60fccbcc1254e074f17d5565,27,2022-02-12_15h54.46.488,lexical_decision_task_DD_L5,2021.2.3,Win32,60.06366749,,,,,,,,,,,,1.1097,0,,,,,,,,,,,,,,,,,,,,,,,,0.004882813,-0.421875,0,0,0,,,,,,,MIRROR,HB,z,y,./images/MIRRORHB.png,,,,,,,,,,,,,,,,,,,,m,0,1.1097,,,,,,,,0,4,4,147,1,
,,,,,,,,,,,,,,,,,60fccbcc1254e074f17d5565,27,2022-02-12_15h54.46.488,lexical_decision_task_DD_L5,2021.2.3,Win32,60.06366749,,,,,,,,,,,,0.8893,1,,,,,,,,,,,,,,,,,,,,,,,,0.004882813,-0.421875,0,0,0,,,,,,,STRING,C,z,y,./images/STRING.png,,,,,,,,,,,,,,,,,,,,z,1,0.8893,,,,,,,,0,5,5,125,1,
,,,,,,,,,,,,,,,,,60fccbcc1254e074f17d5565,27,2022-02-12_15h54.46.488,lexical_decision_task_DD_L5,2021.2.3,Win32,60.06366749,,,,,,,,,,,,2.8278,0,,,,,,,,,,,,,,,,,,,,,,,,0.004882813,-0.421875,0,0,0,,,,,,,ONION,HB,z,y,./images/ONIONHB.png,,,,,,,,,,,,,,,,,,,,m,0,2.8278,,,,,,,,0,6,6,135,1,
,,,,,,,,,,,,,,,,,60fccbcc1254e074f17d5565,27,2022-02-12_15h54.46.488,lexical_decision_task_DD_L5,2021.2.3,Win32,60.06366749,,,,,,,,,,,,1.7408,0,,,,,,,,,,,,,,,,,,,,,,,,0.004882813,-0.421875,0,0,0,,,,,,,POODLE,HB,z,y,./images/POODLEHB.png,,,,,,,,,,,,,,,,,,,,m,0,1.7408,,,,,,,,0,7,7,165,1,
,,,,,,,,,,,,,,,,,60fccbcc1254e074f17d5565,27,2022-02-12_15h54.46.488,lexical_decision_task_DD_L5,2021.2.3,Win32,60.06366749,,,,,,,,,,,,0.6515,1,,,,,,,,,,,,,,,,,,,,,,,,0.004882813,-0.421875,0,0,0,,,,,,,MUMMY,LB,m,y,./images/MUMMYLB.png,,,,,,,,,,,,,,,,,,,,m,1,0.6515,,,,,,,,0,8,8,46,1,
,,,,,,,,,,,,,,,,,60fccbcc1254e074f17d5565,27,2022-02-12_15h54.46.488,lexical_decision_task_DD_L5,2021.2.3,Win32,60.06366749,,,,,,,,,,,,0.5846,1,,,,,,,,,,,,,,,,,,,,,,,,0.004882813,-0.421875,0,0,0,,,,,,,STEAK,LB,m,y,./images/STEAKLB.png,,,,,,,,,,,,,,,,,,,,m,1,0.5846,,,,,,,,0,9,9,31,1,
,,,,,,,,,,,,,,,,,60fccbcc1254e074f17d5565,27,2022-02-12_15h54.46.488,lexical_decision_task_DD_L5,2021.2.3,Win32,60.06366749,,,,,,,,,,,,2.5727,0,,,,,,,,,,,,,,,,,,,,,,,,0.004882813,-0.421875,0,0,0,,,,,,,BURIAL,C,z,y,./images/BURIAL.png,,,,,,,,,,,,,,,,,,,,m,0,2.5727,,,,,,,,0,10,10,143,1,
,,,,,,,,,,,,,,,,,60fccbcc1254e074f17d5565,27,2022-02-12_15h54.46.488,lexical_decision_task_DD_L5,2021.2.3,Win32,60.06366749,,,,,,,,,,,,1.2696,0,,,,,,,,,,,,,,,,,,,,,,,,0.004882813,-0.421875,0,0,0,,,,,,,DRUMS,LB,z,y,./images/DRUMSLB.png,,,,,,,,,,,,,,,,,,,,m,0,1.2696,,,,,,,,0,11,11,133,1,
,,,,,,,,,,,,,,,,,60fccbcc1254e074f17d5565,27,2022-02-12_15h54.46.488,lexical_decision_task_DD_L5,2021.2.3,Win32,60.06366749,,,,,,,,,,,,0.7092,1,,,,,,,,,,,,,,,,,,,,,,,,0.004882813,-0.421875,0,0,0,,,,,,,CLOTH,C,m,y,./images/CLOTH.png,,,,,,,,,,,,,,,,,,,,m,1,0.7092,,,,,,,,0,12,12,23,1,
,,,,,,,,,,,,,,,,,60fccbcc1254e074f17d5565,27,2022-02-12_15h54.46.488,lexical_decision_task_DD_L5,2021.2.3,Win32,60.06366749,,,,,,,,,,,,0.6237,1,,,,,,,,,,,,,,,,,,,,,,,,0.004882813,-0.421875,0,0,0,,,,,,,PILOT,C,m,y,./images/PILOT.png,,,,,,,,,,,,,,,,,,,,m,1,0.6237,,,,,,,,0,13,13,50,1,
,,,,,,,,,,,,,,,,,60fccbcc1254e074f17d5565,27,2022-02-12_15h54.46.488,lexical_decision_task_DD_L5,2021.2.3,Win32,60.06366749,,,,,,,,,,,,0.8202,1,,,,,,,,,,,,,,,,,,,,,,,,0.004882813,-0.421875,0,0,0,,,,,,,PISTOL,C,m,y,./images/PISTOL.png,,,,,,,,,,,,,,,,,,,,m,1,0.8202,,,,,,,,0,14,14,29,1,
,,,,,,,,,,,,,,,,,60fccbcc1254e074f17d5565,27,2022-02-12_15h54.46.488,lexical_decision_task_DD_L5,2021.2.3,Win32,60.06366749,,,,,,,,,,,,1.3045,0,,,,,,,,,,,,,,,,,,,,,,,,0.004882813,-0.421875,0,0,0,,,,,,,SWEAT,HB,z,y,./images/SWEATHB.png,,,,,,,,,,,,,,,,,,,,m,0,1.3045,,,,,,,,0,15,15,150,1,
,,,,,,,,,,,,,,,,,60fccbcc1254e074f17d5565,27,2022-02-12_15h54.46.488,lexical_decision_task_DD_L5,2021.2.3,Win32,60.06366749,,,,,,,,,,,,1.9025,0,,,,,,,,,,,,,,,,,,,,,,,,0.004882813,-0.421875,0,0,0,,,,,,,SPORT,HB,z,y,./images/SPORTHB.png,,,,,,,,,,,,,,,,,,,,m,0,1.9025,,,,,,,,0,16,16,132,1,
,,,,,,,,,,,,,,,,,60fccbcc1254e074f17d5565,27,2022-02-12_15h54.46.488,lexical_decision_task_DD_L5,2021.2.3,Win32,60.06366749,,,,,,,,,,,,0.9101,1,,,,,,,,,,,,,,,,,,,,,,,,0.004882813,-0.421875,0,0,0,,,,,,,FARMER,C,z,y,./images/FARMER.png,,,,,,,,,,,,,,,,,,,,z,1,0.9101,,,,,,,,0,17,17,149,1,
,,,,,,,,,,,,,,,,,60fccbcc1254e074f17d5565,27,2022-02-12_15h54.46.488,lexical_decision_task_DD_L5,2021.2.3,Win32,60.06366749,,,,,,,,,,,,0.9413,0,,,,,,,,,,,,,,,,,,,,,,,,0.004882813,-0.421875,0,0,0,,,,,,,FINGER,HB,z,y,./images/FINGERHB.png,,,,,,,,,,,,,,,,,,,,m,0,0.9413,,,,,,,,0,18,18,87,1,
,,,,,,,,,,,,,,,,,60fccbcc1254e074f17d5565,27,2022-02-12_15h54.46.488,lexical_decision_task_DD_L5,2021.2.3,Win32,60.06366749,,,,,,,,,,,,1.0274,0,,,,,,,,,,,,,,,,,,,,,,,,0.004882813,-0.421875,0,0,0,,,,,,,PEARL,LB,z,y,./images/PEARLLB.png,,,,,,,,,,,,,,,,,,,,m,0,1.0274,,,,,,,,0,19,19,130,1,
,,,,,,,,,,,,,,,,,60fccbcc1254e074f17d5565,27,2022-02-12_15h54.46.488,lexical_decision_task_DD_L5,2021.2.3,Win32,60.06366749,,,,,,,,,,,,1.6848,1,,,,,,,,,,,,,,,,,,,,,,,,0.004882813,-0.421875,0,0,0,,,,,,,CASINO,LB,m,y,./images/CASINOLB.png,,,,,,,,,,,,,,,,,,,,m,1,1.6848,,,,,,,,0,20,20,28,1,
,,,,,,,,,,,,,,,,,60fccbcc1254e074f17d5565,27,2022-02-12_15h54.46.488,lexical_decision_task_DD_L5,2021.2.3,Win32,60.06366749,,,,,,,,,,,,0.5613,1,,,,,,,,,,,,,,,,,,,,,,,,0.004882813,-0.421875,0,0,0,,,,,,,ARROW,HB,m,y,./images/ARROWHB.png,,,,,,,,,,,,,,,,,,,,m,1,0.5613,,,,,,,,0,21,21,69,1,
,,,,,,,,,,,,,,,,,60fccbcc1254e074f17d5565,27,2022-02-12_15h54.46.488,lexical_decision_task_DD_L5,2021.2.3,Win32,60.06366749,,,,,,,,,,,,0.6183,1,,,,,,,,,,,,,,,,,,,,,,,,0.004882813,-0.421875,0,0,0,,,,,,,CLOWN,LB,m,y,./images/CLOWNLB.png,,,,,,,,,,,,,,,,,,,,m,1,0.6183,,,,,,,,0,22,22,22,1,
,,,,,,,,,,,,,,,,,60fccbcc1254e074f17d5565,27,2022-02-12_15h54.46.488,lexical_decision_task_DD_L5,2021.2.3,Win32,60.06366749,,,,,,,,,,,,4.0124,1,,,,,,,,,,,,,,,,,,,,,,,,0.004882813,-0.421875,0,0,0,,,,,,,NOOSE,HB,z,y,./images/NOOSEHB.png,,,,,,,,,,,,,,,,,,,,z,1,4.0124,,,,,,,,0,23,23,156,1,
,,,,,,,,,,,,,,,,,60fccbcc1254e074f17d5565,27,2022-02-12_15h54.46.488,lexical_decision_task_DD_L5,2021.2.3,Win32,60.06366749,,,,,,,,,,,,2.0182,1,,,,,,,,,,,,,,,,,,,,,,,,0.004882813,-0.421875,0,0,0,,,,,,,WHISKY,C,m,y,./images/WHISKY.png,,,,,,,,,,,,,,,,,,,,m,1,2.0182,,,,,,,,0,24,24,83,1,
,,,,,,,,,,,,,,,,,60fccbcc1254e074f17d5565,27,2022-02-12_15h54.46.488,lexical_decision_task_DD_L5,2021.2.3,Win32,60.06366749,,,,,,,,,,,,2.0193,1,,,,,,,,,,,,,,,,,,,,,,,,0.004882813,-0.421875,0,0,0,,,,,,,HOCKEY,C,m,y,./images/HOCKEY.png,,,,,,,,,,,,,,,,,,,,m,1,2.0193,,,,,,,,0,25,25,32,1,
,,,,,,,,,,,,,,,,,60fccbcc1254e074f17d5565,27,2022-02-12_15h54.46.488,lexical_decision_task_DD_L5,2021.2.3,Win32,60.06366749,,,,,,,,,,,,2.1746,1,,,,,,,,,,,,,,,,,,,,,,,,0.004882813,-0.421875,0,0,0,,,,,,,ARTIST,LB,m,y,./images/ARTISTLB.png,,,,,,,,,,,,,,,,,,,,m,1,2.1746,,,,,,,,0,26,26,61,1,
,,,,,,,,,,,,,,,,,60fccbcc1254e074f17d5565,27,2022-02-12_15h54.46.488,lexical_decision_task_DD_L5,2021.2.3,Win32,60.06366749,,,,,,,,,,,,0.845,1,,,,,,,,,,,,,,,,,,,,,,,,0.004882813,-0.421875,0,0,0,,,,,,,MAGGOT,HB,z,y,./images/MAGGOTHB.png,,,,,,,,,,,,,,,,,,,,z,1,0.845,,,,,,,,0,27,27,117,1,
,,,,,,,,,,,,,,,,,60fccbcc1254e074f17d5565,27,2022-02-12_15h54.46.488,lexical_decision_task_DD_L5,2021.2.3,Win32,60.06366749,,,,,,,,,,,,0.5414,1,,,,,,,,,,,,,,,,,,,,,,,,0.004882813,-0.421875,0,0,0,,,,,,,BUTTER,HB,m,y,./images/BUTTERHB.png,,,,,,,,,,,,,,,,,,,,m,1,0.5414,,,,,,,,0,28,28,27,1,
,,,,,,,,,,,,,,,,,60fccbcc1254e074f17d5565,27,2022-02-12_15h54.46.488,lexical_decision_task_DD_L5,2021.2.3,Win32,60.06366749,,,,,,,,,,,,0.8755,0,,,,,,,,,,,,,,,,,,,,,,,,0.004882813,-0.421875,0,0,0,,,,,,,PURSE,C,z,y,./images/PURSE.png,,,,,,,,,,,,,,,,,,,,m,0,0.8755,,,,,,,,0,29,29,146,1,
,,,,,,,,,,,,,,,,,60fccbcc1254e074f17d5565,27,2022-02-12_15h54.46.488,lexical_decision_task_DD_L5,2021.2.3,Win32,60.06366749,,,,,,,,,,,,0.7703,0,,,,,,,,,,,,,,,,,,,,,,,,0.004882813,-0.421875,0,0,0,,,,,,,MOTOR,LB,z,y,./images/MOTORLB.png,,,,,,,,,,,,,,,,,,,,m,0,0.7703,,,,,,,,0,30,30,97,1,
,,,,,,,,,,,,,,,,,60fccbcc1254e074f17d5565,27,2022-02-12_15h54.46.488,lexical_decision_task_DD_L5,2021.2.3,Win32,60.06366749,,,,,,,,,,,,0.7385,1,,,,,,,,,,,,,,,,,,,,,,,,0.004882813,-0.421875,0,0,0,,,,,,,BOILER,HB,m,y,./images/BOILERHB.png,,,,,,,,,,,,,,,,,,,,m,1,0.7385,,,,,,,,0,31,31,36,1,
,,,,,,,,,,,,,,,,,60fccbcc1254e074f17d5565,27,2022-02-12_15h54.46.488,lexical_decision_task_DD_L5,2021.2.3,Win32,60.06366749,,,,,,,,,,,,0.5956,1,,,,,,,,,,,,,,,,,,,,,,,,0.004882813,-0.421875,0,0,0,,,,,,,CLOUD,C,m,y,./images/CLOUD.png,,,,,,,,,,,,,,,,,,,,m,1,0.5956,,,,,,,,0,32,32,26,1,
,,,,,,,,,,,,,,,,,60fccbcc1254e074f17d5565,27,2022-02-12_15h54.46.488,lexical_decision_task_DD_L5,2021.2.3,Win32,60.06366749,,,,,,,,,,,,0.6192,0,,,,,,,,,,,,,,,,,,,,,,,,0.004882813,-0.421875,0,0,0,,,,,,,SNACK,LB,z,y,./images/SNACKLB.png,,,,,,,,,,,,,,,,,,,,m,0,0.6192,,,,,,,,0,33,33,157,1,
,,,,,,,,,,,,,,,,,60fccbcc1254e074f17d5565,27,2022-02-12_15h54.46.488,lexical_decision_task_DD_L5,2021.2.3,Win32,60.06366749,,,,,,,,,,,,1.2056,1,,,,,,,,,,,,,,,,,,,,,,,,0.004882813,-0.421875,0,0,0,,,,,,,COOKER,HB,z,y,./images/COOKERHB.png,,,,,,,,,,,,,,,,,,,,z,1,1.2056,,,,,,,,0,34,34,153,1,
,,,,,,,,,,,,,,,,,60fccbcc1254e074f17d5565,27,2022-02-12_15h54.46.488,lexical_decision_task_DD_L5,2021.2.3,Win32,60.06366749,,,,,,,,,,,,0.7847,0,,,,,,,,,,,,,,,,,,,,,,,,0.004882813,-0.421875,0,0,0,,,,,,,BONNET,C,z,y,./images/BONNET.png,,,,,,,,,,,,,,,,,,,,m,0,0.7847,,,,,,,,0,35,35,95,1,
,,,,,,,,,,,,,,,,,60fccbcc1254e074f17d5565,27,2022-02-12_15h54.46.488,lexical_decision_task_DD_L5,2021.2.3,Win32,60.06366749,,,,,,,,,,,,0.9625,0,,,,,,,,,,,,,,,,,,,,,,,,0.004882813,-0.421875,0,0,0,,,,,,,CANYON,LB,z,y,./images/CANYONLB.png,,,,,,,,,,,,,,,,,,,,m,0,0.9625,,,,,,,,0,36,36,118,1,
,,,,,,,,,,,,,,,,,60fccbcc1254e074f17d5565,27,2022-02-12_15h54.46.488,lexical_decision_task_DD_L5,2021.2.3,Win32,60.06366749,,,,,,,,,,,,0.7234,1,,,,,,,,,,,,,,,,,,,,,,,,0.004882813,-0.421875,0,0,0,,,,,,,FLASK,HB,m,y,./images/FLASKHB.png,,,,,,,,,,,,,,,,,,,,m,1,0.7234,,,,,,,,0,37,37,72,1,
,,,,,,,,,,,,,,,,,60fccbcc1254e074f17d5565,27,2022-02-12_15h54.46.488,lexical_decision_task_DD_L5,2021.2.3,Win32,60.06366749,,,,,,,,,,,,1.6709,0,,,,,,,,,,,,,,,,,,,,,,,,0.004882813,-0.421875,0,0,0,,,,,,,QUILL,LB,z,y,./images/QUILLLB.png,,,,,,,,,,,,,,,,,,,,m,0,1.6709,,,,,,,,0,38,38,115,1,
,,,,,,,,,,,,,,,,,60fccbcc1254e074f17d5565,27,2022-02-12_15h54.46.488,lexical_decision_task_DD_L5,2021.2.3,Win32,60.06366749,,,,,,,,,,,,0.8011,1,,,,,,,,,,,,,,,,,,,,,,,,0.004882813,-0.421875,0,0,0,,,,,,,PICKLE,C,z,y,./images/PICKLE.png,,,,,,,,,,,,,,,,,,,,z,1,0.8011,,,,,,,,0,39,39,98,1,
,,,,,,,,,,,,,,,,,60fccbcc1254e074f17d5565,27,2022-02-12_15h54.46.488,lexical_decision_task_DD_L5,2021.2.3,Win32,60.06366749,,,,,,,,,,,,0.9235,0,,,,,,,,,,,,,,,,,,,,,,,,0.004882813,-0.421875,0,0,0,,,,,,,SWING,LB,z,y,./images/SWINGLB.png,,,,,,,,,,,,,,,,,,,,m,0,0.9235,,,,,,,,0,40,40,124,1,
,,,,,,,,,,,,,,,,,60fccbcc1254e074f17d5565,27,2022-02-12_15h54.46.488,lexical_decision_task_DD_L5,2021.2.3,Win32,60.06366749,,,,,,,,,,,,0.7244,1,,,,,,,,,,,,,,,,,,,,,,,,0.004882813,-0.421875,1,0,0,,,,,,,TIGER,LB,m,y,./images/TIGERLB.png,break_done_button,,,,,,,,,,,,,,,,,,,m,1,0.7244,,,,,,,,0,41,41,37,1,
,,,,,,,,,,,,,,,,,60fccbcc1254e074f17d5565,27,2022-02-12_15h54.46.488,lexical_decision_task_DD_L5,2021.2.3,Win32,60.06366749,,,,,,,,,,,,0.8352,0,,,,,,,,,,,,,,,,,,,,,,,,0.004882813,-0.421875,0,0,0,,,,,,,PIMPLE,C,z,y,./images/PIMPLE.png,,,,,,,,,,,,,,,,,,,,m,0,0.8352,,,,,,,,0,42,42,155,1,
,,,,,,,,,,,,,,,,,60fccbcc1254e074f17d5565,27,2022-02-12_15h54.46.488,lexical_decision_task_DD_L5,2021.2.3,Win32,60.06366749,,,,,,,,,,,,0.6202,1,,,,,,,,,,,,,,,,,,,,,,,,0.004882813,-0.421875,0,0,0,,,,,,,CHALK,LB,m,y,./images/CHALKLB.png,,,,,,,,,,,,,,,,,,,,m,1,0.6202,,,,,,,,0,43,43,25,1,
,,,,,,,,,,,,,,,,,60fccbcc1254e074f17d5565,27,2022-02-12_15h54.46.488,lexical_decision_task_DD_L5,2021.2.3,Win32,60.06366749,,,,,,,,,,,,1.9382,1,,,,,,,,,,,,,,,,,,,,,,,,0.004882813,-0.421875,0,0,0,,,,,,,WEASEL,C,z,y,./images/WEASEL.png,,,,,,,,,,,,,,,,,,,,z,1,1.9382,,,,,,,,0,44,44,164,1,
,,,,,,,,,,,,,,,,,60fccbcc1254e074f17d5565,27,2022-02-12_15h54.46.488,lexical_decision_task_DD_L5,2021.2.3,Win32,60.06366749,,,,,,,,,,,,0.8899,1,,,,,,,,,,,,,,,,,,,,,,,,0.004882813,-0.421875,0,0,0,,,,,,,PACKET,C,z,y,./images/PACKET.png,,,,,,,,,,,,,,,,,,,,z,1,0.8899,,,,,,,,0,45,45,140,1,
,,,,,,,,,,,,,,,,,60fccbcc1254e074f17d5565,27,2022-02-12_15h54.46.488,lexical_decision_task_DD_L5,2021.2.3,Win32,60.06366749,,,,,,,,,,,,0.6345,1,,,,,,,,,,,,,,,,,,,,,,,,0.004882813,-0.421875,0,0,0,,,,,,,MONKEY,HB,m,y,./images/MONKEYHB.png,,,,,,,,,,,,,,,,,,,,m,1,0.6345,,,,,,,,0,46,46,45,1,
,,,,,,,,,,,,,,,,,60fccbcc1254e074f17d5565,27,2022-02-12_15h54.46.488,lexical_decision_task_DD_L5,2021.2.3,Win32,60.06366749,,,,,,,,,,,,1.0045,0,,,,,,,,,,,,,,,,,,,,,,,,0.004882813,-0.421875,0,0,0,,,,,,,GREASE,HB,z,y,./images/GREASEHB.png,,,,,,,,,,,,,,,,,,,,m,0,1.0045,,,,,,,,0,47,47,99,1,
,,,,,,,,,,,,,,,,,60fccbcc1254e074f17d5565,27,2022-02-12_15h54.46.488,lexical_decision_task_DD_L5,2021.2.3,Win32,60.06366749,,,,,,,,,,,,0.5534,1,,,,,,,,,,,,,,,,,,,,,,,,0.004882813,-0.421875,0,0,0,,,,,,,POSTER,C,m,y,./images/POSTER.png,,,,,,,,,,,,,,,,,,,,m,1,0.5534,,,,,,,,0,48,48,53,1,
,,,,,,,,,,,,,,,,,60fccbcc1254e074f17d5565,27,2022-02-12_15h54.46.488,lexical_decision_task_DD_L5,2021.2.3,Win32,60.06366749,,,,,,,,,,,,0.6534,0,,,,,,,,,,,,,,,,,,,,,,,,0.004882813,-0.421875,0,0,0,,,,,,,PAINT,LB,z,y,./images/PAINTLB.png,,,,,,,,,,,,,,,,,,,,m,0,0.6534,,,,,,,,0,49,49,91,1,
,,,,,,,,,,,,,,,,,60fccbcc1254e074f17d5565,27,2022-02-12_15h54.46.488,lexical_decision_task_DD_L5,2021.2.3,Win32,60.06366749,,,,,,,,,,,,2.5188,1,,,,,,,,,,,,,,,,,,,,,,,,0.004882813,-0.421875,0,0,0,,,,,,,BERRY,C,z,y,./images/BERRY.png,,,,,,,,,,,,,,,,,,,,z,1,2.5188,,,,,,,,0,50,50,131,1,
,,,,,,,,,,,,,,,,,60fccbcc1254e074f17d5565,27,2022-02-12_15h54.46.488,lexical_decision_task_DD_L5,2021.2.3,Win32,60.06366749,,,,,,,,,,,,1.0132,1,,,,,,,,,,,,,,,,,,,,,,,,0.004882813,-0.421875,0,0,0,,,,,,,BAMBOO,C,m,y,./images/BAMBOO.png,,,,,,,,,,,,,,,,,,,,m,1,1.0132,,,,,,,,0,51,51,5,1,
,,,,,,,,,,,,,,,,,60fccbcc1254e074f17d5565,27,2022-02-12_15h54.46.488,lexical_decision_task_DD_L5,2021.2.3,Win32,60.06366749,,,,,,,,,,,,0.5516,1,,,,,,,,,,,,,,,,,,,,,,,,0.004882813,-0.421875,0,0,0,,,,,,,CANDY,HB,m,y,./images/CANDYHB.png,,,,,,,,,,,,,,,,,,,,m,1,0.5516,,,,,,,,0,52,52,39,1,
,,,,,,,,,,,,,,,,,60fccbcc1254e074f17d5565,27,2022-02-12_15h54.46.488,lexical_decision_task_DD_L5,2021.2.3,Win32,60.06366749,,,,,,,,,,,,1.126,1,,,,,,,,,,,,,,,,,,,,,,,,0.004882813,-0.421875,0,0,0,,,,,,,WHEEL,C,m,y,./images/WHEEL.png,,,,,,,,,,,,,,,,,,,,m,1,1.126,,,,,,,,0,53,53,77,1,
,,,,,,,,,,,,,,,,,60fccbcc1254e074f17d5565,27,2022-02-12_15h54.46.488,lexical_decision_task_DD_L5,2021.2.3,Win32,60.06366749,,,,,,,,,,,,4.438,1,,,,,,,,,,,,,,,,,,,,,,,,0.004882813,-0.421875,0,0,0,,,,,,,TORCH,C,z,y,./images/TORCH.png,,,,,,,,,,,,,,,,,,,,z,1,4.438,,,,,,,,0,54,54,152,1,
,,,,,,,,,,,,,,,,,60fccbcc1254e074f17d5565,27,2022-02-12_15h54.46.488,lexical_decision_task_DD_L5,2021.2.3,Win32,60.06366749,,,,,,,,,,,,0.6029,0,,,,,,,,,,,,,,,,,,,,,,,,0.004882813,-0.421875,0,0,0,,,,,,,SUNSET,LB,z,y,./images/SUNSETLB.png,,,,,,,,,,,,,,,,,,,,m,0,0.6029,,,,,,,,0,55,55,166,1,
,,,,,,,,,,,,,,,,,60fccbcc1254e074f17d5565,27,2022-02-12_15h54.46.488,lexical_decision_task_DD_L5,2021.2.3,Win32,60.06366749,,,,,,,,,,,,0.6697,1,,,,,,,,,,,,,,,,,,,,,,,,0.004882813,-0.421875,0,0,0,,,,,,,ALLEY,LB,m,y,./images/ALLEYLB.png,,,,,,,,,,,,,,,,,,,,m,1,0.6697,,,,,,,,0,56,56,55,1,
,,,,,,,,,,,,,,,,,60fccbcc1254e074f17d5565,27,2022-02-12_15h54.46.488,lexical_decision_task_DD_L5,2021.2.3,Win32,60.06366749,,,,,,,,,,,,0.5866,1,,,,,,,,,,,,,,,,,,,,,,,,0.004882813,-0.421875,0,0,0,,,,,,,LAGOON,C,m,y,./images/LAGOON.png,,,,,,,,,,,,,,,,,,,,m,1,0.5866,,,,,,,,0,57,57,47,1,
,,,,,,,,,,,,,,,,,60fccbcc1254e074f17d5565,27,2022-02-12_15h54.46.488,lexical_decision_task_DD_L5,2021.2.3,Win32,60.06366749,,,,,,,,,,,,1.1743,0,,,,,,,,,,,,,,,,,,,,,,,,0.004882813,-0.421875,0,0,0,,,,,,,TOMATO,HB,z,y,./images/TOMATOHB.png,,,,,,,,,,,,,,,,,,,,m,0,1.1743,,,,,,,,0,58,58,84,1,
,,,,,,,,,,,,,,,,,60fccbcc1254e074f17d5565,27,2022-02-12_15h54.46.488,lexical_decision_task_DD_L5,2021.2.3,Win32,60.06366749,,,,,,,,,,,,0.8207,0,,,,,,,,,,,,,,,,,,,,,,,,0.004882813,-0.421875,0,0,0,,,,,,,LITTER,HB,z,y,./images/LITTERHB.png,,,,,,,,,,,,,,,,,,,,m,0,0.8207,,,,,,,,0,59,59,162,1,
,,,,,,,,,,,,,,,,,60fccbcc1254e074f17d5565,27,2022-02-12_15h54.46.488,lexical_decision_task_DD_L5,2021.2.3,Win32,60.06366749,,,,,,,,,,,,0.7452,1,,,,,,,,,,,,,,,,,,,,,,,,0.004882813,-0.421875,0,0,0,,,,,,,RAZOR,LB,m,y,./images/RAZORLB.png,,,,,,,,,,,,,,,,,,,,m,1,0.7452,,,,,,,,0,60,60,34,1,
,,,,,,,,,,,,,,,,,60fccbcc1254e074f17d5565,27,2022-02-12_15h54.46.488,lexical_decision_task_DD_L5,2021.2.3,Win32,60.06366749,,,,,,,,,,,,1.1851,1,,,,,,,,,,,,,,,,,,,,,,,,0.004882813,-0.421875,0,0,0,,,,,,,SMOKER,C,z,y,./images/SMOKER.png,,,,,,,,,,,,,,,,,,,,z,1,1.1851,,,,,,,,0,61,61,110,1,
,,,,,,,,,,,,,,,,,60fccbcc1254e074f17d5565,27,2022-02-12_15h54.46.488,lexical_decision_task_DD_L5,2021.2.3,Win32,60.06366749,,,,,,,,,,,,1.0606,0,,,,,,,,,,,,,,,,,,,,,,,,0.004882813,-0.421875,0,0,0,,,,,,,ATTIC,HB,z,y,./images/ATTICHB.png,,,,,,,,,,,,,,,,,,,,m,0,1.0606,,,,,,,,0,62,62,111,1,
,,,,,,,,,,,,,,,,,60fccbcc1254e074f17d5565,27,2022-02-12_15h54.46.488,lexical_decision_task_DD_L5,2021.2.3,Win32,60.06366749,,,,,,,,,,,,1.1014,0,,,,,,,,,,,,,,,,,,,,,,,,0.004882813,-0.421875,0,0,0,,,,,,,STORM,HB,z,y,./images/STORMHB.png,,,,,,,,,,,,,,,,,,,,m,0,1.1014,,,,,,,,0,63,63,114,1,
,,,,,,,,,,,,,,,,,60fccbcc1254e074f17d5565,27,2022-02-12_15h54.46.488,lexical_decision_task_DD_L5,2021.2.3,Win32,60.06366749,,,,,,,,,,,,0.7092,1,,,,,,,,,,,,,,,,,,,,,,,,0.004882813,-0.421875,0,0,0,,,,,,,BANANA,LB,m,y,./images/BANANALB.png,,,,,,,,,,,,,,,,,,,,m,1,0.7092,,,,,,,,0,64,64,70,1,
,,,,,,,,,,,,,,,,,60fccbcc1254e074f17d5565,27,2022-02-12_15h54.46.488,lexical_decision_task_DD_L5,2021.2.3,Win32,60.06366749,,,,,,,,,,,,0.6438,1,,,,,,,,,,,,,,,,,,,,,,,,0.004882813,-0.421875,0,0,0,,,,,,,MEDAL,C,m,y,./images/MEDAL.png,,,,,,,,,,,,,,,,,,,,m,1,0.6438,,,,,,,,0,65,65,11,1,
,,,,,,,,,,,,,,,,,60fccbcc1254e074f17d5565,27,2022-02-12_15h54.46.488,lexical_decision_task_DD_L5,2021.2.3,Win32,60.06366749,,,,,,,,,,,,0.5944,1,,,,,,,,,,,,,,,,,,,,,,,,0.004882813,-0.421875,0,0,0,,,,,,,BOXER,LB,m,y,./images/BOXERLB.png,,,,,,,,,,,,,,,,,,,,m,1,0.5944,,,,,,,,0,66,66,4,1,
,,,,,,,,,,,,,,,,,60fccbcc1254e074f17d5565,27,2022-02-12_15h54.46.488,lexical_decision_task_DD_L5,2021.2.3,Win32,60.06366749,,,,,,,,,,,,0.6774,1,,,,,,,,,,,,,,,,,,,,,,,,0.004882813,-0.421875,0,0,0,,,,,,,CURRY,HB,m,y,./images/CURRYHB.png,,,,,,,,,,,,,,,,,,,,m,1,0.6774,,,,,,,,0,67,67,60,1,
,,,,,,,,,,,,,,,,,60fccbcc1254e074f17d5565,27,2022-02-12_15h54.46.488,lexical_decision_task_DD_L5,2021.2.3,Win32,60.06366749,,,,,,,,,,,,0.6721,1,,,,,,,,,,,,,,,,,,,,,,,,0.004882813,-0.421875,0,0,0,,,,,,,SNAKE,LB,m,y,./images/SNAKELB.png,,,,,,,,,,,,,,,,,,,,m,1,0.6721,,,,,,,,0,68,68,40,1,
,,,,,,,,,,,,,,,,,60fccbcc1254e074f17d5565,27,2022-02-12_15h54.46.488,lexical_decision_task_DD_L5,2021.2.3,Win32,60.06366749,,,,,,,,,,,,1.0074,0,,,,,,,,,,,,,,,,,,,,,,,,0.004882813,-0.421875,0,0,0,,,,,,,MUFFIN,LB,z,y,./images/MUFFINLB.png,,,,,,,,,,,,,,,,,,,,m,0,1.0074,,,,,,,,0,69,69,139,1,
,,,,,,,,,,,,,,,,,60fccbcc1254e074f17d5565,27,2022-02-12_15h54.46.488,lexical_decision_task_DD_L5,2021.2.3,Win32,60.06366749,,,,,,,,,,,,0.7429,1,,,,,,,,,,,,,,,,,,,,,,,,0.004882813,-0.421875,0,0,0,,,,,,,RULER,LB,m,y,./images/RULERLB.png,,,,,,,,,,,,,,,,,,,,m,1,0.7429,,,,,,,,0,70,70,79,1,
,,,,,,,,,,,,,,,,,60fccbcc1254e074f17d5565,27,2022-02-12_15h54.46.488,lexical_decision_task_DD_L5,2021.2.3,Win32,60.06366749,,,,,,,,,,,,0.6126,0,,,,,,,,,,,,,,,,,,,,,,,,0.004882813,-0.421875,0,0,0,,,,,,,MELON,LB,z,y,./images/MELONLB.png,,,,,,,,,,,,,,,,,,,,m,0,0.6126,,,,,,,,0,71,71,106,1,
,,,,,,,,,,,,,,,,,60fccbcc1254e074f17d5565,27,2022-02-12_15h54.46.488,lexical_decision_task_DD_L5,2021.2.3,Win32,60.06366749,,,,,,,,,,,,0.8695,0,,,,,,,,,,,,,,,,,,,,,,,,0.004882813,-0.421875,0,0,0,,,,,,,MOOSE,HB,z,y,./images/MOOSEHB.png,,,,,,,,,,,,,,,,,,,,m,0,0.8695,,,,,,,,0,72,72,141,1,
,,,,,,,,,,,,,,,,,60fccbcc1254e074f17d5565,27,2022-02-12_15h54.46.488,lexical_decision_task_DD_L5,2021.2.3,Win32,60.06366749,,,,,,,,,,,,0.51,1,,,,,,,,,,,,,,,,,,,,,,,,0.004882813,-0.421875,0,0,0,,,,,,,LLAMA,C,m,y,./images/LLAMA.png,,,,,,,,,,,,,,,,,,,,m,1,0.51,,,,,,,,0,73,73,35,1,
,,,,,,,,,,,,,,,,,60fccbcc1254e074f17d5565,27,2022-02-12_15h54.46.488,lexical_decision_task_DD_L5,2021.2.3,Win32,60.06366749,,,,,,,,,,,,1.8529,1,,,,,,,,,,,,,,,,,,,,,,,,0.004882813,-0.421875,0,0,0,,,,,,,BIRTH,LB,z,y,./images/BIRTHLB.png,,,,,,,,,,,,,,,,,,,,z,1,1.8529,,,,,,,,0,74,74,121,1,
,,,,,,,,,,,,,,,,,60fccbcc1254e074f17d5565,27,2022-02-12_15h54.46.488,lexical_decision_task_DD_L5,2021.2.3,Win32,60.06366749,,,,,,,,,,,,0.6741,0,,,,,,,,,,,,,,,,,,,,,,,,0.004882813,-0.421875,0,0,0,,,,,,,GRAIN,HB,z,y,./images/GRAINHB.png,,,,,,,,,,,,,,,,,,,,m,0,0.6741,,,,,,,,0,75,75,159,1,
,,,,,,,,,,,,,,,,,60fccbcc1254e074f17d5565,27,2022-02-12_15h54.46.488,lexical_decision_task_DD_L5,2021.2.3,Win32,60.06366749,,,,,,,,,,,,0.6551,0,,,,,,,,,,,,,,,,,,,,,,,,0.004882813,-0.421875,0,0,0,,,,,,,MALLET,C,z,y,./images/MALLET.png,,,,,,,,,,,,,,,,,,,,m,0,0.6551,,,,,,,,0,76,76,134,1,
,,,,,,,,,,,,,,,,,60fccbcc1254e074f17d5565,27,2022-02-12_15h54.46.488,lexical_decision_task_DD_L5,2021.2.3,Win32,60.06366749,,,,,,,,,,,,0.97,0,,,,,,,,,,,,,,,,,,,,,,,,0.004882813,-0.421875,0,0,0,,,,,,,PLANK,LB,z,y,./images/PLANKLB.png,,,,,,,,,,,,,,,,,,,,m,0,0.97,,,,,,,,0,77,77,85,1,
,,,,,,,,,,,,,,,,,60fccbcc1254e074f17d5565,27,2022-02-12_15h54.46.488,lexical_decision_task_DD_L5,2021.2.3,Win32,60.06366749,,,,,,,,,,,,0.5718,1,,,,,,,,,,,,,,,,,,,,,,,,0.004882813,-0.421875,0,0,0,,,,,,,GARDEN,LB,m,y,./images/GARDENLB.png,,,,,,,,,,,,,,,,,,,,m,1,0.5718,,,,,,,,0,78,78,10,1,
,,,,,,,,,,,,,,,,,60fccbcc1254e074f17d5565,27,2022-02-12_15h54.46.488,lexical_decision_task_DD_L5,2021.2.3,Win32,60.06366749,,,,,,,,,,,,0.9584,1,,,,,,,,,,,,,,,,,,,,,,,,0.004882813,-0.421875,0,0,0,,,,,,,TWINS,HB,z,y,./images/TWINSHB.png,,,,,,,,,,,,,,,,,,,,z,1,0.9584,,,,,,,,0,79,79,144,1,
,,,,,,,,,,,,,,,,,60fccbcc1254e074f17d5565,27,2022-02-12_15h54.46.488,lexical_decision_task_DD_L5,2021.2.3,Win32,60.06366749,,,,,,,,,,,,0.6298,1,,,,,,,,,,,,,,,,,,,,,,,,0.004882813,-0.421875,0,0,0,,,,,,,FLESH,HB,m,y,./images/FLESHHB.png,,,,,,,,,,,,,,,,,,,,m,1,0.6298,,,,,,,,0,80,80,24,1,
,,,,,,,,,,,,,,,,,60fccbcc1254e074f17d5565,27,2022-02-12_15h54.46.488,lexical_decision_task_DD_L5,2021.2.3,Win32,60.06366749,,,,,,,,,,,,1.3183,1,,,,,,,,,,,,,,,,,,,,,,,,0.004882813,-0.421875,0,0,0,,,,,,,CANDLE,LB,z,y,./images/CANDLELB.png,,,,,,,,,,,,,,,,,,,,z,1,1.3183,,,,,,,,0,81,81,145,1,
,,,,,,,,,,,,,,,,,60fccbcc1254e074f17d5565,27,2022-02-12_15h54.46.488,lexical_decision_task_DD_L5,2021.2.3,Win32,60.06366749,,,,,,,,,,,,0.9559,1,,,,,,,,,,,,,,,,,,,,,,,,0.004882813,-0.421875,0,0,0,,,,,,,SLOPE,HB,m,y,./images/SLOPEHB.png,,,,,,,,,,,,,,,,,,,,m,1,0.9559,,,,,,,,0,82,82,30,1,
,,,,,,,,,,,,,,,,,60fccbcc1254e074f17d5565,27,2022-02-12_15h54.46.488,lexical_decision_task_DD_L5,2021.2.3,Win32,60.06366749,,,,,,,,,,,,0.774,0,,,,,,,,,,,,,,,,,,,,,,,,0.019889503,-0.40718232,0,0,0,space,,,,,,LADDER,C,z,y,./images/LADDER.png,,,,,,,,,,,,,,,,,,,,m,0,0.774,,,,,,,,0,83,83,122,1,67.1982
,,,,,,,,,,,,,,,,,60fccbcc1254e074f17d5565,27,2022-02-12_15h54.46.488,lexical_decision_task_DD_L5,2021.2.3,Win32,60.06366749,,,,,,,,,,,,1.1267,1,,,,,,,,,,,,,,,,,,,,,,,,0.019889503,-0.40718232,0,0,0,,,,,,,DRILL,HB,m,y,./images/DRILLHB.png,,,,,,,,,,,,,,,,,,,,m,1,1.1267,,,,,,,,0,84,84,81,1,
,,,,,,,,,,,,,,,,,60fccbcc1254e074f17d5565,27,2022-02-12_15h54.46.488,lexical_decision_task_DD_L5,2021.2.3,Win32,60.06366749,,,,,,,,,,,,0.6741,1,,,,,,,,,,,,,,,,,,,,,,,,0.019889503,-0.40718232,0,0,0,,,,,,,MIDGET,LB,m,y,./images/MIDGETLB.png,,,,,,,,,,,,,,,,,,,,m,1,0.6741,,,,,,,,0,85,85,76,1,
,,,,,,,,,,,,,,,,,60fccbcc1254e074f17d5565,27,2022-02-12_15h54.46.488,lexical_decision_task_DD_L5,2021.2.3,Win32,60.06366749,,,,,,,,,,,,0.6737,1,,,,,,,,,,,,,,,,,,,,,,,,0.019889503,-0.40718232,0,0,0,,,,,,,PARADE,C,m,y,./images/PARADE.png,,,,,,,,,,,,,,,,,,,,m,1,0.6737,,,,,,,,0,86,86,17,1,
,,,,,,,,,,,,,,,,,60fccbcc1254e074f17d5565,27,2022-02-12_15h54.46.488,lexical_decision_task_DD_L5,2021.2.3,Win32,60.06366749,,,,,,,,,,,,0.8051,1,,,,,,,,,,,,,,,,,,,,,,,,0.019889503,-0.40718232,0,0,0,,,,,,,JUMPER,C,m,y,./images/JUMPER.png,,,,,,,,,,,,,,,,,,,,m,1,0.8051,,,,,,,,0,87,87,74,1,
,,,,,,,,,,,,,,,,,60fccbcc1254e074f17d5565,27,2022-02-12_15h54.46.488,lexical_decision_task_DD_L5,2021.2.3,Win32,60.06366749,,,,,,,,,,,,0.8465,1,,,,,,,,,,,,,,,,,,,,,,,,0.019889503,-0.40718232,0,0,0,,,,,,,SAUCE,HB,m,y,./images/SAUCEHB.png,,,,,,,,,,,,,,,,,,,,m,1,0.8465,,,,,,,,0,88,88,51,1,
,,,,,,,,,,,,,,,,,60fccbcc1254e074f17d5565,27,2022-02-12_15h54.46.488,lexical_decision_task_DD_L5,2021.2.3,Win32,60.06366749,,,,,,,,,,,,0.7187,1,,,,,,,,,,,,,,,,,,,,,,,,0.019889503,-0.40718232,0,0,0,,,,,,,STOVE,C,m,y,./images/STOVE.png,,,,,,,,,,,,,,,,,,,,m,1,0.7187,,,,,,,,0,89,89,2,1,
,,,,,,,,,,,,,,,,,60fccbcc1254e074f17d5565,27,2022-02-12_15h54.46.488,lexical_decision_task_DD_L5,2021.2.3,Win32,60.06366749,,,,,,,,,,,,0.5941,0,,,,,,,,,,,,,,,,,,,,,,,,0.019889503,-0.40718232,0,0,0,,,,,,,SCREW,HB,z,y,./images/SCREWHB.png,,,,,,,,,,,,,,,,,,,,m,0,0.5941,,,,,,,,0,90,90,108,1,
,,,,,,,,,,,,,,,,,60fccbcc1254e074f17d5565,27,2022-02-12_15h54.46.488,lexical_decision_task_DD_L5,2021.2.3,Win32,60.06366749,,,,,,,,,,,,0.5201,1,,,,,,,,,,,,,,,,,,,,,,,,0.019889503,-0.40718232,0,0,0,,,,,,,BAKER,HB,m,y,./images/BAKERHB.png,,,,,,,,,,,,,,,,,,,,m,1,0.5201,,,,,,,,0,91,91,63,1,
,,,,,,,,,,,,,,,,,60fccbcc1254e074f17d5565,27,2022-02-12_15h54.46.488,lexical_decision_task_DD_L5,2021.2.3,Win32,60.06366749,,,,,,,,,,,,0.5719,1,,,,,,,,,,,,,,,,,,,,,,,,0.019889503,-0.40718232,0,0,0,,,,,,,DESERT,LB,m,y,./images/DESERTLB.png,,,,,,,,,,,,,,,,,,,,m,1,0.5719,,,,,,,,0,92,92,52,1,
,,,,,,,,,,,,,,,,,60fccbcc1254e074f17d5565,27,2022-02-12_15h54.46.488,lexical_decision_task_DD_L5,2021.2.3,Win32,60.06366749,,,,,,,,,,,,0.7077,0,,,,,,,,,,,,,,,,,,,,,,,,0.019889503,-0.40718232,0,0,0,,,,,,,BARREL,C,z,y,./images/BARREL.png,,,,,,,,,,,,,,,,,,,,m,0,0.7077,,,,,,,,0,93,93,116,1,
,,,,,,,,,,,,,,,,,60fccbcc1254e074f17d5565,27,2022-02-12_15h54.46.488,lexical_decision_task_DD_L5,2021.2.3,Win32,60.06366749,,,,,,,,,,,,2.1915,0,,,,,,,,,,,,,,,,,,,,,,,,0.019889503,-0.40718232,0,0,0,,,,,,,KITTEN,HB,z,y,./images/KITTENHB.png,,,,,,,,,,,,,,,,,,,,m,0,2.1915,,,,,,,,0,94,94,129,1,
,,,,,,,,,,,,,,,,,60fccbcc1254e074f17d5565,27,2022-02-12_15h54.46.488,lexical_decision_task_DD_L5,2021.2.3,Win32,60.06366749,,,,,,,,,,,,0.7422,1,,,,,,,,,,,,,,,,,,,,,,,,0.019889503,-0.40718232,0,0,0,,,,,,,COUCH,C,z,y,./images/COUCH.png,,,,,,,,,,,,,,,,,,,,z,1,0.7422,,,,,,,,0,95,95,161,1,
,,,,,,,,,,,,,,,,,60fccbcc1254e074f17d5565,27,2022-02-12_15h54.46.488,lexical_decision_task_DD_L5,2021.2.3,Win32,60.06366749,,,,,,,,,,,,1.0919,0,,,,,,,,,,,,,,,,,,,,,,,,0.019889503,-0.40718232,0,0,0,,,,,,,CRUST,LB,z,y,./images/CRUSTLB.png,,,,,,,,,,,,,,,,,,,,m,0,1.0919,,,,,,,,0,96,96,163,1,
,,,,,,,,,,,,,,,,,60fccbcc1254e074f17d5565,27,2022-02-12_15h54.46.488,lexical_decision_task_DD_L5,2021.2.3,Win32,60.06366749,,,,,,,,,,,,0.6703,1,,,,,,,,,,,,,,,,,,,,,,,,0.019889503,-0.40718232,0,0,0,,,,,,,CLIFF,C,m,y,./images/CLIFF.png,,,,,,,,,,,,,,,,,,,,m,1,0.6703,,,,,,,,0,97,97,8,1,
,,,,,,,,,,,,,,,,,60fccbcc1254e074f17d5565,27,2022-02-12_15h54.46.488,lexical_decision_task_DD_L5,2021.2.3,Win32,60.06366749,,,,,,,,,,,,0.8383,0,,,,,,,,,,,,,,,,,,,,,,,,0.019889503,-0.40718232,0,0,0,,,,,,,SKIING,C,z,y,./images/SKIING.png,,,,,,,,,,,,,,,,,,,,m,0,0.8383,,,,,,,,0,98,98,101,1,
,,,,,,,,,,,,,,,,,60fccbcc1254e074f17d5565,27,2022-02-12_15h54.46.488,lexical_decision_task_DD_L5,2021.2.3,Win32,60.06366749,,,,,,,,,,,,0.6551,1,,,,,,,,,,,,,,,,,,,,,,,,0.019889503,-0.40718232,0,0,0,,,,,,,PEBBLE,LB,m,y,./images/PEBBLELB.png,,,,,,,,,,,,,,,,,,,,m,1,0.6551,,,,,,,,0,99,99,82,1,
,,,,,,,,,,,,,,,,,60fccbcc1254e074f17d5565,27,2022-02-12_15h54.46.488,lexical_decision_task_DD_L5,2021.2.3,Win32,60.06366749,,,,,,,,,,,,1.5791,0,,,,,,,,,,,,,,,,,,,,,,,,0.019889503,-0.40718232,0,0,0,,,,,,,HEATER,C,m,y,./images/HEATER.png,,,,,,,,,,,,,,,,,,,,z,0,1.5791,,,,,,,,0,100,100,56,1,
,,,,,,,,,,,,,,,,,60fccbcc1254e074f17d5565,27,2022-02-12_15h54.46.488,lexical_decision_task_DD_L5,2021.2.3,Win32,60.06366749,,,,,,,,,,,,0.7867,1,,,,,,,,,,,,,,,,,,,,,,,,0.019889503,-0.40718232,0,0,0,,,,,,,BANNER,LB,z,y,./images/BANNERLB.png,,,,,,,,,,,,,,,,,,,,z,1,0.7867,,,,,,,,0,101,101,136,1,
,,,,,,,,,,,,,,,,,60fccbcc1254e074f17d5565,27,2022-02-12_15h54.46.488,lexical_decision_task_DD_L5,2021.2.3,Win32,60.06366749,,,,,,,,,,,,1.29,1,,,,,,,,,,,,,,,,,,,,,,,,0.019889503,-0.40718232,0,0,0,,,,,,,PEACH,C,z,y,./images/PEACH.png,,,,,,,,,,,,,,,,,,,,z,1,1.29,,,,,,,,0,102,102,119,1,
,,,,,,,,,,,,,,,,,60fccbcc1254e074f17d5565,27,2022-02-12_15h54.46.488,lexical_decision_task_DD_L5,2021.2.3,Win32,60.06366749,,,,,,,,,,,,0.7582,1,,,,,,,,,,,,,,,,,,,,,,,,0.019889503,-0.40718232,0,0,0,,,,,,,BUNNY,LB,m,y,./images/BUNNYLB.png,,,,,,,,,,,,,,,,,,,,m,1,0.7582,,,,,,,,0,103,103,13,1,
,,,,,,,,,,,,,,,,,60fccbcc1254e074f17d5565,27,2022-02-12_15h54.46.488,lexical_decision_task_DD_L5,2021.2.3,Win32,60.06366749,,,,,,,,,,,,0.8631,0,,,,,,,,,,,,,,,,,,,,,,,,0.019889503,-0.40718232,0,0,0,,,,,,,TULIP,C,z,y,./images/TULIP.png,,,,,,,,,,,,,,,,,,,,m,0,0.8631,,,,,,,,0,104,104,92,1,
,,,,,,,,,,,,,,,,,60fccbcc1254e074f17d5565,27,2022-02-12_15h54.46.488,lexical_decision_task_DD_L5,2021.2.3,Win32,60.06366749,,,,,,,,,,,,0.6685,1,,,,,,,,,,,,,,,,,,,,,,,,0.019889503,-0.40718232,0,0,0,,,,,,,PLANET,C,m,y,./images/PLANET.png,,,,,,,,,,,,,,,,,,,,m,1,0.6685,,,,,,,,0,105,105,80,1,
,,,,,,,,,,,,,,,,,60fccbcc1254e074f17d5565,27,2022-02-12_15h54.46.488,lexical_decision_task_DD_L5,2021.2.3,Win32,60.06366749,,,,,,,,,,,,0.6399,0,,,,,,,,,,,,,,,,,,,,,,,,0.019889503,-0.40718232,0,0,0,,,,,,,BABOON,LB,z,y,./images/BABOONLB.png,,,,,,,,,,,,,,,,,,,,m,0,0.6399,,,,,,,,0,106,106,142,1,
,,,,,,,,,,,,,,,,,60fccbcc1254e074f17d5565,27,2022-02-12_15h54.46.488,lexical_decision_task_DD_L5,2021.2.3,Win32,60.06366749,,,,,,,,,,,,0.8021,1,,,,,,,,,,,,,,,,,,,,,,,,0.019889503,-0.40718232,0,0,0,,,,,,,HAMMER,HB,m,y,./images/HAMMERHB.png,,,,,,,,,,,,,,,,,,,,m,1,0.8021,,,,,,,,0,107,107,75,1,
,,,,,,,,,,,,,,,,,60fccbcc1254e074f17d5565,27,2022-02-12_15h54.46.488,lexical_decision_task_DD_L5,2021.2.3,Win32,60.06366749,,,,,,,,,,,,0.9685,0,,,,,,,,,,,,,,,,,,,,,,,,0.019889503,-0.40718232,0,0,0,,,,,,,FALCON,LB,z,y,./images/FALCONLB.png,,,,,,,,,,,,,,,,,,,,m,0,0.9685,,,,,,,,0,108,108,112,1,
,,,,,,,,,,,,,,,,,60fccbcc1254e074f17d5565,27,2022-02-12_15h54.46.488,lexical_decision_task_DD_L5,2021.2.3,Win32,60.06366749,,,,,,,,,,,,1.054,1,,,,,,,,,,,,,,,,,,,,,,,,0.019889503,-0.40718232,0,0,0,,,,,,,JELLY,LB,z,y,./images/JELLYLB.png,,,,,,,,,,,,,,,,,,,,z,1,1.054,,,,,,,,0,109,109,148,1,
,,,,,,,,,,,,,,,,,60fccbcc1254e074f17d5565,27,2022-02-12_15h54.46.488,lexical_decision_task_DD_L5,2021.2.3,Win32,60.06366749,,,,,,,,,,,,1.0193,1,,,,,,,,,,,,,,,,,,,,,,,,0.019889503,-0.40718232,0,0,0,,,,,,,JAGUAR,HB,z,y,./images/JAGUARHB.png,,,,,,,,,,,,,,,,,,,,z,1,1.0193,,,,,,,,0,110,110,102,1,
,,,,,,,,,,,,,,,,,60fccbcc1254e074f17d5565,27,2022-02-12_15h54.46.488,lexical_decision_task_DD_L5,2021.2.3,Win32,60.06366749,,,,,,,,,,,,1.952,1,,,,,,,,,,,,,,,,,,,,,,,,0.019889503,-0.40718232,0,0,0,,,,,,,BROOM,HB,m,y,./images/BROOMHB.png,,,,,,,,,,,,,,,,,,,,m,1,1.952,,,,,,,,0,111,111,78,1,
,,,,,,,,,,,,,,,,,60fccbcc1254e074f17d5565,27,2022-02-12_15h54.46.488,lexical_decision_task_DD_L5,2021.2.3,Win32,60.06366749,,,,,,,,,,,,0.9499,0,,,,,,,,,,,,,,,,,,,,,,,,0.019889503,-0.40718232,0,0,0,,,,,,,LIZARD,C,z,y,./images/LIZARD.png,,,,,,,,,,,,,,,,,,,,m,0,0.9499,,,,,,,,0,112,112,128,1,
,,,,,,,,,,,,,,,,,60fccbcc1254e074f17d5565,27,2022-02-12_15h54.46.488,lexical_decision_task_DD_L5,2021.2.3,Win32,60.06366749,,,,,,,,,,,,0.9683,1,,,,,,,,,,,,,,,,,,,,,,,,0.019889503,-0.40718232,0,0,0,,,,,,,STATUE,HB,m,y,./images/STATUEHB.png,,,,,,,,,,,,,,,,,,,,m,1,0.9683,,,,,,,,0,113,113,66,1,
,,,,,,,,,,,,,,,,,60fccbcc1254e074f17d5565,27,2022-02-12_15h54.46.488,lexical_decision_task_DD_L5,2021.2.3,Win32,60.06366749,,,,,,,,,,,,1.8193,1,,,,,,,,,,,,,,,,,,,,,,,,0.019889503,-0.40718232,0,0,0,,,,,,,URINE,LB,z,y,./images/URINELB.png,,,,,,,,,,,,,,,,,,,,z,1,1.8193,,,,,,,,0,114,114,154,1,
,,,,,,,,,,,,,,,,,60fccbcc1254e074f17d5565,27,2022-02-12_15h54.46.488,lexical_decision_task_DD_L5,2021.2.3,Win32,60.06366749,,,,,,,,,,,,1.0588,0,,,,,,,,,,,,,,,,,,,,,,,,0.019889503,-0.40718232,0,0,0,,,,,,,SQUARE,HB,z,y,./images/SQUAREHB.png,,,,,,,,,,,,,,,,,,,,m,0,1.0588,,,,,,,,0,115,115,90,1,
,,,,,,,,,,,,,,,,,60fccbcc1254e074f17d5565,27,2022-02-12_15h54.46.488,lexical_decision_task_DD_L5,2021.2.3,Win32,60.06366749,,,,,,,,,,,,0.5838,0,,,,,,,,,,,,,,,,,,,,,,,,0.019889503,-0.40718232,0,0,0,,,,,,,CRUMB,C,z,y,./images/CRUMB.png,,,,,,,,,,,,,,,,,,,,m,0,0.5838,,,,,,,,0,116,116,113,1,
,,,,,,,,,,,,,,,,,60fccbcc1254e074f17d5565,27,2022-02-12_15h54.46.488,lexical_decision_task_DD_L5,2021.2.3,Win32,60.06366749,,,,,,,,,,,,0.7836,1,,,,,,,,,,,,,,,,,,,,,,,,0.019889503,-0.40718232,0,0,0,,,,,,,FENCE,C,m,y,./images/FENCE.png,,,,,,,,,,,,,,,,,,,,m,1,0.7836,,,,,,,,0,117,117,14,1,
,,,,,,,,,,,,,,,,,60fccbcc1254e074f17d5565,27,2022-02-12_15h54.46.488,lexical_decision_task_DD_L5,2021.2.3,Win32,60.06366749,,,,,,,,,,,,0.9196,0,,,,,,,,,,,,,,,,,,,,,,,,0.019889503,-0.40718232,0,0,0,,,,,,,CRADLE,C,z,y,./images/CRADLE.png,,,,,,,,,,,,,,,,,,,,m,0,0.9196,,,,,,,,0,118,118,104,1,
,,,,,,,,,,,,,,,,,60fccbcc1254e074f17d5565,27,2022-02-12_15h54.46.488,lexical_decision_task_DD_L5,2021.2.3,Win32,60.06366749,,,,,,,,,,,,0.8392,1,,,,,,,,,,,,,,,,,,,,,,,,0.019889503,-0.40718232,0,0,0,,,,,,,CRATER,HB,m,y,./images/CRATERHB.png,,,,,,,,,,,,,,,,,,,,m,1,0.8392,,,,,,,,0,119,119,3,1,
,,,,,,,,,,,,,,,,,60fccbcc1254e074f17d5565,27,2022-02-12_15h54.46.488,lexical_decision_task_DD_L5,2021.2.3,Win32,60.06366749,,,,,,,,,,,,0.6847,1,,,,,,,,,,,,,,,,,,,,,,,,0.019889503,-0.40718232,0,0,0,,,,,,,SHIELD,HB,m,y,./images/SHIELDHB.png,,,,,,,,,,,,,,,,,,,,m,1,0.6847,,,,,,,,0,120,120,48,1,
,,,,,,,,,,,,,,,,,60fccbcc1254e074f17d5565,27,2022-02-12_15h54.46.488,lexical_decision_task_DD_L5,2021.2.3,Win32,60.06366749,,,,,,,,,,,,0.7239,0,,,,,,,,,,,,,,,,,,,,,,,,0.019889503,-0.40718232,0,0,0,,,,,,,SPINE,C,m,y,./images/SPINE.png,,,,,,,,,,,,,,,,,,,,z,0,0.7239,,,,,,,,0,121,121,65,1,
,,,,,,,,,,,,,,,,,60fccbcc1254e074f17d5565,27,2022-02-12_15h54.46.488,lexical_decision_task_DD_L5,2021.2.3,Win32,60.06366749,,,,,,,,,,,,0.7421,1,,,,,,,,,,,,,,,,,,,,,,,,0.019889503,-0.40718232,0,0,0,,,,,,,VALLEY,C,m,y,./images/VALLEY.png,,,,,,,,,,,,,,,,,,,,m,1,0.7421,,,,,,,,0,122,122,68,1,
,,,,,,,,,,,,,,,,,60fccbcc1254e074f17d5565,27,2022-02-12_15h54.46.488,lexical_decision_task_DD_L5,2021.2.3,Win32,60.06366749,,,,,,,,,,,,1.1454,1,,,,,,,,,,,,,,,,,,,,,,,,0.019889503,-0.40718232,0,0,0,,,,,,,CHERRY,HB,m,y,./images/CHERRYHB.png,,,,,,,,,,,,,,,,,,,,m,1,1.1454,,,,,,,,0,123,123,54,1,
,,,,,,,,,,,,,,,,,60fccbcc1254e074f17d5565,27,2022-02-12_15h54.46.488,lexical_decision_task_DD_L5,2021.2.3,Win32,60.06366749,,,,,,,,,,,,0.6022,1,,,,,,,,,,,,,,,,,,,,,,,,0.019889503,-0.40718232,0,0,0,,,,,,,TOWEL,LB,m,y,./images/TOWELLB.png,,,,,,,,,,,,,,,,,,,,m,1,0.6022,,,,,,,,0,124,124,1,1,
,,,,,,,,,,,,,,,,,60fccbcc1254e074f17d5565,27,2022-02-12_15h54.46.488,lexical_decision_task_DD_L5,2021.2.3,Win32,60.06366749,,,,,,,,,,,,0.9349,1,,,,,,,,,,,,,,,,,,,,,,,,0.152486188,-0.36961326,1,0,0,,,,,,,STREAM,C,m,y,./images/STREAM.png,break_done_button,,,,,,,,,,,,,,,,,,,m,1,0.9349,,,,,,,,0,125,125,41,1,
,,,,,,,,,,,,,,,,,60fccbcc1254e074f17d5565,27,2022-02-12_15h54.46.488,lexical_decision_task_DD_L5,2021.2.3,Win32,60.06366749,,,,,,,,,,,,1.2019,0,,,,,,,,,,,,,,,,,,,,,,,,0.152486188,-0.36961326,0,0,0,,,,,,,ENGINE,C,m,y,./images/ENGINE.png,,,,,,,,,,,,,,,,,,,,z,0,1.2019,,,,,,,,0,126,126,38,1,
,,,,,,,,,,,,,,,,,60fccbcc1254e074f17d5565,27,2022-02-12_15h54.46.488,lexical_decision_task_DD_L5,2021.2.3,Win32,60.06366749,,,,,,,,,,,,0.598,1,,,,,,,,,,,,,,,,,,,,,,,,0.152486188,-0.36961326,0,0,0,,,,,,,BRUSH,C,m,y,./images/BRUSH.png,,,,,,,,,,,,,,,,,,,,m,1,0.598,,,,,,,,0,127,127,59,1,
,,,,,,,,,,,,,,,,,60fccbcc1254e074f17d5565,27,2022-02-12_15h54.46.488,lexical_decision_task_DD_L5,2021.2.3,Win32,60.06366749,,,,,,,,,,,,0.809,0,,,,,,,,,,,,,,,,,,,,,,,,0.152486188,-0.36961326,0,0,0,,,,,,,WRIST,LB,z,y,./images/WRISTLB.png,,,,,,,,,,,,,,,,,,,,m,0,0.809,,,,,,,,0,128,128,109,1,
,,,,,,,,,,,,,,,,,60fccbcc1254e074f17d5565,27,2022-02-12_15h54.46.488,lexical_decision_task_DD_L5,2021.2.3,Win32,60.06366749,,,,,,,,,,,,0.6827,1,,,,,,,,,,,,,,,,,,,,,,,,0.152486188,-0.36961326,0,0,0,,,,,,,BISHOP,LB,m,y,./images/BISHOPLB.png,,,,,,,,,,,,,,,,,,,,m,1,0.6827,,,,,,,,0,129,129,49,1,
,,,,,,,,,,,,,,,,,60fccbcc1254e074f17d5565,27,2022-02-12_15h54.46.488,lexical_decision_task_DD_L5,2021.2.3,Win32,60.06366749,,,,,,,,,,,,0.5803,1,,,,,,,,,,,,,,,,,,,,,,,,0.152486188,-0.36961326,0,0,0,,,,,,,PARCEL,HB,m,y,./images/PARCELHB.png,,,,,,,,,,,,,,,,,,,,m,1,0.5803,,,,,,,,0,130,130,18,1,
