key_resp.keys,instr_done_touch.x,instr_done_touch.y,instr_done_touch.leftButton,instr_done_touch.midButton,instr_done_touch.rightButton,instr_done_touch.clicked_name,instruction_pages.thisRepN,instruction_pages.thisTrialN,instruction_pages.thisN,instruction_pages.thisIndex,instruction_pages.ran,pageN,phase,instruct_text,has_image,instruct_image,participant,age,date,expName,psychopyVersion,OS,frameRate,response.keys,response.corr,response.rt,touch_resp.x,touch_resp.y,touch_resp.leftButton,touch_resp.midButton,touch_resp.rightButton,touch_resp.time,touch_resp.clicked_name,rt,corr,practrials.thisRepN,practrials.thisTrialN,practrials.thisN,practrials.thisIndex,practrials.ran,TrialID,Target,corrAns,end_of_practice_trials_pages.thisRepN,end_of_practice_trials_pages.thisTrialN,end_of_practice_trials_pages.thisN,end_of_practice_trials_pages.thisIndex,end_of_practice_trials_pages.ran,key_resp_2.keys,key_resp_2.corr,key_resp_2.rt,targ_click.x,targ_click.y,targ_click.leftButton,targ_click.midButton,targ_click.rightButton,targ_click.time,targ_click.clicked_name,break_done_touch.x,break_done_touch.y,break_done_touch.leftButton,break_done_touch.midButton,break_done_touch.rightButton,break_done_keyboard.keys,maintrials.thisRepN,maintrials.thisTrialN,maintrials.thisN,maintrials.thisIndex,maintrials.ran,string,blur,study,lex,stim_path,break_done_touch.clicked_name,break_done_keyboard.rt,mouse_2.x,mouse_2.y,mouse_2.leftButton,mouse_2.midButton,mouse_2.rightButton,mouse_2.clicked_name,slider.response,slider.rt,trials.thisRepN,trials.thisTrialN,trials.thisN,trials.thisIndex,trials.ran,key_resp.rt,test_instructions.thisRepN,test_instructions.thisTrialN,test_instructions.thisN,test_instructions.thisIndex,test_instructions.ran,key_resp_3.keys,key_resp_3.corr,key_resp_3.rt,test_click.x,test_click.y,test_click.leftButton,test_click.midButton,test_click.rightButton,test_click.time,test_click.clicked_name,test_phase.thisRepN,test_phase.thisTrialN,test_phase.thisN,test_phase.thisIndex,test_phase.ran
,0.031195875,-0.362507247,1,0,0,instr_done_button,0,0,0,0,1,1,instructions,"INSTRUCTIONS
At the start of each trial, look at the plus sign  (+) in the center of the screen.  This tells you that a trial is about to begin and where to look. Second, the plus sign will disappear and a string of letters will appear. Your task is to determine if the string of letters is a word or not. If the item is a word press the M key (on keyboard)  or touch the word button (phone/tablet).  If the item is not a word,  press the  Z key (on keyboard)  or touch the nonword button (on phone/tablet). 
Press the space bar or touch  continue.",0,,60fdd69df07af0302d9ce2de,21,2022-02-12_13h57.26.361,lexical_decision_task_DD_L5,2021.2.3,Win32,59.81934558,,,,,,,,,,,,,,,,,,,,,,,,,,,,,,,,,,,,,,,,,,,,,,,,,,,,,,,,,,,,,,,,,,,,,,,,,,,,,,,,,,,,,,,
,0.031195875,-0.362507247,1,0,0,instr_done_button,0,1,1,1,1,2,instructions,"If your device has a keyboard, press the 'Z' key for nonwords and the 'M' key for words.





Press the space bar or touch the button below to continue.",0,keyboard-example.gif,60fdd69df07af0302d9ce2de,21,2022-02-12_13h57.26.361,lexical_decision_task_DD_L5,2021.2.3,Win32,59.81934558,,,,,,,,,,,,,,,,,,,,,,,,,,,,,,,,,,,,,,,,,,,,,,,,,,,,,,,,,,,,,,,,,,,,,,,,,,,,,,,,,,,,,,,
,0.035817481,-0.387926151,1,0,0,instr_done_button,0,2,2,2,1,3,instructions,"If you are using a touchscreen only device, use the buttons on the screen. Do not use the mouse.





Press the space bar or touch the button below to continue.",0,touchscreen-example.gif,60fdd69df07af0302d9ce2de,21,2022-02-12_13h57.26.361,lexical_decision_task_DD_L5,2021.2.3,Win32,59.81934558,,,,,,,,,,,,,,,,,,,,,,,,,,,,,,,,,,,,,,,,,,,,,,,,,,,,,,,,,,,,,,,,,,,,,,,,,,,,,,,,,,,,,,,
,0.035817481,-0.387926151,1,0,0,instr_done_button,0,3,3,3,1,4,instructions,"It is very important that you respond as quickly and accurately as possible, as each letter string will only be on the screen for two seconds. If you do not respond within this time, the message 'Too slow!' will be displayed and the experiment will progress to the next letter string. The first 20 trials will be practice trials and you will receive feedback on your answers. 

Press the space bar or touch the button below to start the practice trials.",0,,60fdd69df07af0302d9ce2de,21,2022-02-12_13h57.26.361,lexical_decision_task_DD_L5,2021.2.3,Win32,59.81934558,,,,,,,,,,,,,,,,,,,,,,,,,,,,,,,,,,,,,,,,,,,,,,,,,,,,,,,,,,,,,,,,,,,,,,,,,,,,,,,,,,,,,,,
,,,,,,,,,,,,,,,,,60fdd69df07af0302d9ce2de,21,2022-02-12_13h57.26.361,lexical_decision_task_DD_L5,2021.2.3,Win32,59.81934558,z,1,1.8504,,,,,,,,1.8504,1,0,0,0,12,1,1001,SPRINY,z,,,,,,,,,,,,,,,,,,,,,,,,,,,,,,,,,,,,,,,,,,,,,,,,,,,,,,,,,,,,,,,,,,,
,,,,,,,,,,,,,,,,,60fdd69df07af0302d9ce2de,21,2022-02-12_13h57.26.361,lexical_decision_task_DD_L5,2021.2.3,Win32,59.81934558,m,1,0.6142,,,,,,,,0.6142,1,0,1,1,3,1,1001,MATRIX,m,,,,,,,,,,,,,,,,,,,,,,,,,,,,,,,,,,,,,,,,,,,,,,,,,,,,,,,,,,,,,,,,,,,
,,,,,,,,,,,,,,,,,60fdd69df07af0302d9ce2de,21,2022-02-12_13h57.26.361,lexical_decision_task_DD_L5,2021.2.3,Win32,59.81934558,z,1,0.6567,,,,,,,,0.6567,1,0,2,2,14,1,1001,THRALE,z,,,,,,,,,,,,,,,,,,,,,,,,,,,,,,,,,,,,,,,,,,,,,,,,,,,,,,,,,,,,,,,,,,,
,,,,,,,,,,,,,,,,,60fdd69df07af0302d9ce2de,21,2022-02-12_13h57.26.361,lexical_decision_task_DD_L5,2021.2.3,Win32,59.81934558,m,1,0.4888,,,,,,,,0.4888,1,0,3,3,6,1,1001,ZOMBIE,m,,,,,,,,,,,,,,,,,,,,,,,,,,,,,,,,,,,,,,,,,,,,,,,,,,,,,,,,,,,,,,,,,,,
,,,,,,,,,,,,,,,,,60fdd69df07af0302d9ce2de,21,2022-02-12_13h57.26.361,lexical_decision_task_DD_L5,2021.2.3,Win32,59.81934558,m,1,0.4867,,,,,,,,0.4867,1,0,4,4,1,1,1001,ADJUST,m,,,,,,,,,,,,,,,,,,,,,,,,,,,,,,,,,,,,,,,,,,,,,,,,,,,,,,,,,,,,,,,,,,,
,,,,,,,,,,,,,,,,,60fdd69df07af0302d9ce2de,21,2022-02-12_13h57.26.361,lexical_decision_task_DD_L5,2021.2.3,Win32,59.81934558,z,1,0.7761,,,,,,,,0.7761,1,0,5,5,13,1,1001,ROUPET,z,,,,,,,,,,,,,,,,,,,,,,,,,,,,,,,,,,,,,,,,,,,,,,,,,,,,,,,,,,,,,,,,,,,
,,,,,,,,,,,,,,,,,60fdd69df07af0302d9ce2de,21,2022-02-12_13h57.26.361,lexical_decision_task_DD_L5,2021.2.3,Win32,59.81934558,m,1,0.5186,,,,,,,,0.5186,1,0,6,6,0,1,1001,UTOPIA,m,,,,,,,,,,,,,,,,,,,,,,,,,,,,,,,,,,,,,,,,,,,,,,,,,,,,,,,,,,,,,,,,,,,
,,,,,,,,,,,,,,,,,60fdd69df07af0302d9ce2de,21,2022-02-12_13h57.26.361,lexical_decision_task_DD_L5,2021.2.3,Win32,59.81934558,m,1,0.5909,,,,,,,,0.5909,1,0,7,7,5,1,1001,OBTAIN,m,,,,,,,,,,,,,,,,,,,,,,,,,,,,,,,,,,,,,,,,,,,,,,,,,,,,,,,,,,,,,,,,,,,
,,,,,,,,,,,,,,,,,60fdd69df07af0302d9ce2de,21,2022-02-12_13h57.26.361,lexical_decision_task_DD_L5,2021.2.3,Win32,59.81934558,z,1,0.6428,,,,,,,,0.6428,1,0,8,8,10,1,1001,INLADE,z,,,,,,,,,,,,,,,,,,,,,,,,,,,,,,,,,,,,,,,,,,,,,,,,,,,,,,,,,,,,,,,,,,,
,,,,,,,,,,,,,,,,,60fdd69df07af0302d9ce2de,21,2022-02-12_13h57.26.361,lexical_decision_task_DD_L5,2021.2.3,Win32,59.81934558,m,1,0.435,,,,,,,,0.435,1,0,9,9,7,1,1001,VOLUME,m,,,,,,,,,,,,,,,,,,,,,,,,,,,,,,,,,,,,,,,,,,,,,,,,,,,,,,,,,,,,,,,,,,,
,,,,,,,,,,,,,,,,,60fdd69df07af0302d9ce2de,21,2022-02-12_13h57.26.361,lexical_decision_task_DD_L5,2021.2.3,Win32,59.81934558,z,1,0.7187,,,,,,,,0.7187,1,0,10,10,9,1,1001,FARINY,z,,,,,,,,,,,,,,,,,,,,,,,,,,,,,,,,,,,,,,,,,,,,,,,,,,,,,,,,,,,,,,,,,,,
,,,,,,,,,,,,,,,,,60fdd69df07af0302d9ce2de,21,2022-02-12_13h57.26.361,lexical_decision_task_DD_L5,2021.2.3,Win32,59.81934558,m,1,0.5022,,,,,,,,0.5022,1,0,11,11,2,1,1001,ALMOND,m,,,,,,,,,,,,,,,,,,,,,,,,,,,,,,,,,,,,,,,,,,,,,,,,,,,,,,,,,,,,,,,,,,,
,,,,,,,,,,,,,,,,,60fdd69df07af0302d9ce2de,21,2022-02-12_13h57.26.361,lexical_decision_task_DD_L5,2021.2.3,Win32,59.81934558,z,1,0.5984,,,,,,,,0.5984,1,0,12,12,11,1,1001,RASHET,z,,,,,,,,,,,,,,,,,,,,,,,,,,,,,,,,,,,,,,,,,,,,,,,,,,,,,,,,,,,,,,,,,,,
,,,,,,,,,,,,,,,,,60fdd69df07af0302d9ce2de,21,2022-02-12_13h57.26.361,lexical_decision_task_DD_L5,2021.2.3,Win32,59.81934558,m,1,0.4635,,,,,,,,0.4635,1,0,13,13,4,1,1001,SQUEAK,m,,,,,,,,,,,,,,,,,,,,,,,,,,,,,,,,,,,,,,,,,,,,,,,,,,,,,,,,,,,,,,,,,,,
,,,,,,,,,,,,,,,,,60fdd69df07af0302d9ce2de,21,2022-02-12_13h57.26.361,lexical_decision_task_DD_L5,2021.2.3,Win32,59.81934558,z,1,0.5742,,,,,,,,0.5742,1,0,14,14,15,1,1001,WHAISE,z,,,,,,,,,,,,,,,,,,,,,,,,,,,,,,,,,,,,,,,,,,,,,,,,,,,,,,,,,,,,,,,,,,,
,,,,,,,,,,,,,,,,,60fdd69df07af0302d9ce2de,21,2022-02-12_13h57.26.361,lexical_decision_task_DD_L5,2021.2.3,Win32,59.81934558,z,1,0.6185,,,,,,,,0.6185,1,0,15,15,8,1,1001,ASLERT,z,,,,,,,,,,,,,,,,,,,,,,,,,,,,,,,,,,,,,,,,,,,,,,,,,,,,,,,,,,,,,,,,,,,
,-0.034662013,-0.40179097,1,0,0,instr_done_button,,,,,,1,end_of_practice,"You have completed the practice trials. During the experimental trials, you will not receive feedback. 
Before you begin, please ensure that you are in a comfortable and quiet location and will not be disturbed for about 15 minutes, as we cannot use your data if you do not complete all the trials. 
 When you are ready to start the experimental trials, please press space or touch the button below.",,,60fdd69df07af0302d9ce2de,21,2022-02-12_13h57.26.361,lexical_decision_task_DD_L5,2021.2.3,Win32,59.81934558,,,,,,,,,,,,,,,,,,,,,0,0,0,0,1,,,,,,,,,,,,,,,,,,,,,,,,,,,,,,,,,,,,,,,,,,,,,,,,,,,,,,,,,,,,,,
,,,,,,,,,,,,,,,,,60fdd69df07af0302d9ce2de,21,2022-02-12_13h57.26.361,lexical_decision_task_DD_L5,2021.2.3,Win32,59.81934558,,,,,,,,,,,0.8112,1,,,,,,,,,,,,,,z,1,0.8112,,,,,,,,0.056614708,-0.365973452,0,0,0,,0,0,0,165,1,TROWN,C,old,z,./images/TROWN.png,,,,,,,,,,,,,,,,,,,,,,,,,,,,,,,,,,,,
,,,,,,,,,,,,,,,,,60fdd69df07af0302d9ce2de,21,2022-02-12_13h57.26.361,lexical_decision_task_DD_L5,2021.2.3,Win32,59.81934558,,,,,,,,,,,0.7005,1,,,,,,,,,,,,,,m,1,0.7005,,,,,,,,0.056614708,-0.365973452,0,0,0,,0,1,1,9,1,DIVER,HB,old,m,./images/DIVERHB.png,,,,,,,,,,,,,,,,,,,,,,,,,,,,,,,,,,,,
,,,,,,,,,,,,,,,,,60fdd69df07af0302d9ce2de,21,2022-02-12_13h57.26.361,lexical_decision_task_DD_L5,2021.2.3,Win32,59.81934558,,,,,,,,,,,0.5505,1,,,,,,,,,,,,,,m,1,0.5505,,,,,,,,0.056614708,-0.365973452,0,0,0,,0,2,2,82,1,PEBBLE,LB,old,m,./images/PEBBLELB.png,,,,,,,,,,,,,,,,,,,,,,,,,,,,,,,,,,,,
,,,,,,,,,,,,,,,,,60fdd69df07af0302d9ce2de,21,2022-02-12_13h57.26.361,lexical_decision_task_DD_L5,2021.2.3,Win32,59.81934558,,,,,,,,,,,0.6334,1,,,,,,,,,,,,,,z,1,0.6334,,,,,,,,0.056614708,-0.365973452,0,0,0,,0,3,3,149,1,VEASE,LB,old,z,./images/VEASELB.png,,,,,,,,,,,,,,,,,,,,,,,,,,,,,,,,,,,,
,,,,,,,,,,,,,,,,,60fdd69df07af0302d9ce2de,21,2022-02-12_13h57.26.361,lexical_decision_task_DD_L5,2021.2.3,Win32,59.81934558,,,,,,,,,,,0.6432,1,,,,,,,,,,,,,,m,1,0.6432,,,,,,,,0.056614708,-0.365973452,0,0,0,,0,4,4,2,1,STOVE,C,old,m,./images/STOVE.png,,,,,,,,,,,,,,,,,,,,,,,,,,,,,,,,,,,,
,,,,,,,,,,,,,,,,,60fdd69df07af0302d9ce2de,21,2022-02-12_13h57.26.361,lexical_decision_task_DD_L5,2021.2.3,Win32,59.81934558,,,,,,,,,,,0.6669,1,,,,,,,,,,,,,,z,1,0.6669,,,,,,,,0.056614708,-0.365973452,0,0,0,,0,5,5,122,1,BLOOT,LB,old,z,./images/BLOOTLB.png,,,,,,,,,,,,,,,,,,,,,,,,,,,,,,,,,,,,
,,,,,,,,,,,,,,,,,60fdd69df07af0302d9ce2de,21,2022-02-12_13h57.26.361,lexical_decision_task_DD_L5,2021.2.3,Win32,59.81934558,,,,,,,,,,,0.6196,1,,,,,,,,,,,,,,m,1,0.6196,,,,,,,,0.056614708,-0.365973452,0,0,0,,0,6,6,42,1,CHAIN,HB,old,m,./images/CHAINHB.png,,,,,,,,,,,,,,,,,,,,,,,,,,,,,,,,,,,,
,,,,,,,,,,,,,,,,,60fdd69df07af0302d9ce2de,21,2022-02-12_13h57.26.361,lexical_decision_task_DD_L5,2021.2.3,Win32,59.81934558,,,,,,,,,,,0.5861,1,,,,,,,,,,,,,,z,1,0.5861,,,,,,,,0.056614708,-0.365973452,0,0,0,,0,7,7,150,1,NOOLS,C,old,z,./images/NOOLS.png,,,,,,,,,,,,,,,,,,,,,,,,,,,,,,,,,,,,
,,,,,,,,,,,,,,,,,60fdd69df07af0302d9ce2de,21,2022-02-12_13h57.26.361,lexical_decision_task_DD_L5,2021.2.3,Win32,59.81934558,,,,,,,,,,,0.5513,1,,,,,,,,,,,,,,m,1,0.5513,,,,,,,,0.056614708,-0.365973452,0,0,0,,0,8,8,43,1,STOOL,LB,old,m,./images/STOOLLB.png,,,,,,,,,,,,,,,,,,,,,,,,,,,,,,,,,,,,
,,,,,,,,,,,,,,,,,60fdd69df07af0302d9ce2de,21,2022-02-12_13h57.26.361,lexical_decision_task_DD_L5,2021.2.3,Win32,59.81934558,,,,,,,,,,,0.8601,1,,,,,,,,,,,,,,z,1,0.8601,,,,,,,,0.056614708,-0.365973452,0,0,0,,0,9,9,134,1,TROSS,LB,old,z,./images/TROSSLB.png,,,,,,,,,,,,,,,,,,,,,,,,,,,,,,,,,,,,
,,,,,,,,,,,,,,,,,60fdd69df07af0302d9ce2de,21,2022-02-12_13h57.26.361,lexical_decision_task_DD_L5,2021.2.3,Win32,59.81934558,,,,,,,,,,,0.5508,1,,,,,,,,,,,,,,z,1,0.5508,,,,,,,,0.056614708,-0.365973452,0,0,0,,0,10,10,89,1,DRIEK,LB,old,z,./images/DRIEKLB.png,,,,,,,,,,,,,,,,,,,,,,,,,,,,,,,,,,,,
,,,,,,,,,,,,,,,,,60fdd69df07af0302d9ce2de,21,2022-02-12_13h57.26.361,lexical_decision_task_DD_L5,2021.2.3,Win32,59.81934558,,,,,,,,,,,0.6184,1,,,,,,,,,,,,,,z,1,0.6184,,,,,,,,0.056614708,-0.365973452,0,0,0,,0,11,11,152,1,FRAIN,LB,old,z,./images/FRAINLB.png,,,,,,,,,,,,,,,,,,,,,,,,,,,,,,,,,,,,
,,,,,,,,,,,,,,,,,60fdd69df07af0302d9ce2de,21,2022-02-12_13h57.26.361,lexical_decision_task_DD_L5,2021.2.3,Win32,59.81934558,,,,,,,,,,,0.518,1,,,,,,,,,,,,,,m,1,0.518,,,,,,,,0.056614708,-0.365973452,0,0,0,,0,12,12,19,1,DONKEY,LB,old,m,./images/DONKEYLB.png,,,,,,,,,,,,,,,,,,,,,,,,,,,,,,,,,,,,
,,,,,,,,,,,,,,,,,60fdd69df07af0302d9ce2de,21,2022-02-12_13h57.26.361,lexical_decision_task_DD_L5,2021.2.3,Win32,59.81934558,,,,,,,,,,,0.551,1,,,,,,,,,,,,,,z,1,0.551,,,,,,,,0.056614708,-0.365973452,0,0,0,,0,13,13,90,1,NEAST,C,old,z,./images/NEAST.png,,,,,,,,,,,,,,,,,,,,,,,,,,,,,,,,,,,,
,,,,,,,,,,,,,,,,,60fdd69df07af0302d9ce2de,21,2022-02-12_13h57.26.361,lexical_decision_task_DD_L5,2021.2.3,Win32,59.81934558,,,,,,,,,,,0.9907,1,,,,,,,,,,,,,,m,1,0.9907,,,,,,,,0.056614708,-0.365973452,0,0,0,,0,14,14,27,1,BUTTER,HB,old,m,./images/BUTTERHB.png,,,,,,,,,,,,,,,,,,,,,,,,,,,,,,,,,,,,
,,,,,,,,,,,,,,,,,60fdd69df07af0302d9ce2de,21,2022-02-12_13h57.26.361,lexical_decision_task_DD_L5,2021.2.3,Win32,59.81934558,,,,,,,,,,,0.5351,1,,,,,,,,,,,,,,m,1,0.5351,,,,,,,,0.056614708,-0.365973452,0,0,0,,0,15,15,35,1,LLAMA,C,old,m,./images/LLAMA.png,,,,,,,,,,,,,,,,,,,,,,,,,,,,,,,,,,,,
,,,,,,,,,,,,,,,,,60fdd69df07af0302d9ce2de,21,2022-02-12_13h57.26.361,lexical_decision_task_DD_L5,2021.2.3,Win32,59.81934558,,,,,,,,,,,0.4498,1,,,,,,,,,,,,,,m,1,0.4498,,,,,,,,0.056614708,-0.365973452,0,0,0,,0,16,16,28,1,CASINO,LB,old,m,./images/CASINOLB.png,,,,,,,,,,,,,,,,,,,,,,,,,,,,,,,,,,,,
,,,,,,,,,,,,,,,,,60fdd69df07af0302d9ce2de,21,2022-02-12_13h57.26.361,lexical_decision_task_DD_L5,2021.2.3,Win32,59.81934558,,,,,,,,,,,0.6176,1,,,,,,,,,,,,,,m,1,0.6176,,,,,,,,0.056614708,-0.365973452,0,0,0,,0,17,17,45,1,MONKEY,HB,old,m,./images/MONKEYHB.png,,,,,,,,,,,,,,,,,,,,,,,,,,,,,,,,,,,,
,,,,,,,,,,,,,,,,,60fdd69df07af0302d9ce2de,21,2022-02-12_13h57.26.361,lexical_decision_task_DD_L5,2021.2.3,Win32,59.81934558,,,,,,,,,,,1.4549,1,,,,,,,,,,,,,,z,1,1.4549,,,,,,,,0.056614708,-0.365973452,0,0,0,,0,18,18,127,1,NINDY,HB,old,z,./images/NINDYHB.png,,,,,,,,,,,,,,,,,,,,,,,,,,,,,,,,,,,,
,,,,,,,,,,,,,,,,,60fdd69df07af0302d9ce2de,21,2022-02-12_13h57.26.361,lexical_decision_task_DD_L5,2021.2.3,Win32,59.81934558,,,,,,,,,,,0.5368,1,,,,,,,,,,,,,,m,1,0.5368,,,,,,,,0.056614708,-0.365973452,0,0,0,,0,19,19,6,1,STAIN,HB,old,m,./images/STAINHB.png,,,,,,,,,,,,,,,,,,,,,,,,,,,,,,,,,,,,
,,,,,,,,,,,,,,,,,60fdd69df07af0302d9ce2de,21,2022-02-12_13h57.26.361,lexical_decision_task_DD_L5,2021.2.3,Win32,59.81934558,,,,,,,,,,,0.7836,1,,,,,,,,,,,,,,z,1,0.7836,,,,,,,,0.056614708,-0.365973452,0,0,0,,0,20,20,154,1,THINT,HB,old,z,./images/THINTHB.png,,,,,,,,,,,,,,,,,,,,,,,,,,,,,,,,,,,,
,,,,,,,,,,,,,,,,,60fdd69df07af0302d9ce2de,21,2022-02-12_13h57.26.361,lexical_decision_task_DD_L5,2021.2.3,Win32,59.81934558,,,,,,,,,,,0.9286,1,,,,,,,,,,,,,,z,1,0.9286,,,,,,,,0.056614708,-0.365973452,0,0,0,,0,21,21,145,1,LAMEL,HB,old,z,./images/LAMELHB.png,,,,,,,,,,,,,,,,,,,,,,,,,,,,,,,,,,,,
,,,,,,,,,,,,,,,,,60fdd69df07af0302d9ce2de,21,2022-02-12_13h57.26.361,lexical_decision_task_DD_L5,2021.2.3,Win32,59.81934558,,,,,,,,,,,0.8195,1,,,,,,,,,,,,,,z,1,0.8195,,,,,,,,0.056614708,-0.365973452,0,0,0,,0,22,22,136,1,WERVE,HB,old,z,./images/WERVEHB.png,,,,,,,,,,,,,,,,,,,,,,,,,,,,,,,,,,,,
,,,,,,,,,,,,,,,,,60fdd69df07af0302d9ce2de,21,2022-02-12_13h57.26.361,lexical_decision_task_DD_L5,2021.2.3,Win32,59.81934558,,,,,,,,,,,0.7577,1,,,,,,,,,,,,,,z,1,0.7577,,,,,,,,0.056614708,-0.365973452,0,0,0,,0,23,23,104,1,GITTY,LB,old,z,./images/GITTYLB.png,,,,,,,,,,,,,,,,,,,,,,,,,,,,,,,,,,,,
,,,,,,,,,,,,,,,,,60fdd69df07af0302d9ce2de,21,2022-02-12_13h57.26.361,lexical_decision_task_DD_L5,2021.2.3,Win32,59.81934558,,,,,,,,,,,0.6345,1,,,,,,,,,,,,,,m,1,0.6345,,,,,,,,0.056614708,-0.365973452,0,0,0,,0,24,24,81,1,DRILL,HB,old,m,./images/DRILLHB.png,,,,,,,,,,,,,,,,,,,,,,,,,,,,,,,,,,,,
,,,,,,,,,,,,,,,,,60fdd69df07af0302d9ce2de,21,2022-02-12_13h57.26.361,lexical_decision_task_DD_L5,2021.2.3,Win32,59.81934558,,,,,,,,,,,0.5977,1,,,,,,,,,,,,,,z,1,0.5977,,,,,,,,0.056614708,-0.365973452,0,0,0,,0,25,25,129,1,PRANS,C,old,z,./images/PRANS.png,,,,,,,,,,,,,,,,,,,,,,,,,,,,,,,,,,,,
,,,,,,,,,,,,,,,,,60fdd69df07af0302d9ce2de,21,2022-02-12_13h57.26.361,lexical_decision_task_DD_L5,2021.2.3,Win32,59.81934558,,,,,,,,,,,0.5679,1,,,,,,,,,,,,,,m,1,0.5679,,,,,,,,0.056614708,-0.365973452,0,0,0,,0,26,26,68,1,VALLEY,C,old,m,./images/VALLEY.png,,,,,,,,,,,,,,,,,,,,,,,,,,,,,,,,,,,,
,,,,,,,,,,,,,,,,,60fdd69df07af0302d9ce2de,21,2022-02-12_13h57.26.361,lexical_decision_task_DD_L5,2021.2.3,Win32,59.81934558,,,,,,,,,,,0.5949,1,,,,,,,,,,,,,,z,1,0.5949,,,,,,,,0.056614708,-0.365973452,0,0,0,,0,27,27,102,1,DULLE,C,old,z,./images/DULLE.png,,,,,,,,,,,,,,,,,,,,,,,,,,,,,,,,,,,,
,,,,,,,,,,,,,,,,,60fdd69df07af0302d9ce2de,21,2022-02-12_13h57.26.361,lexical_decision_task_DD_L5,2021.2.3,Win32,59.81934558,,,,,,,,,,,0.6015,1,,,,,,,,,,,,,,z,1,0.6015,,,,,,,,0.056614708,-0.365973452,0,0,0,,0,28,28,113,1,LINEW,LB,old,z,./images/LINEWLB.png,,,,,,,,,,,,,,,,,,,,,,,,,,,,,,,,,,,,
,,,,,,,,,,,,,,,,,60fdd69df07af0302d9ce2de,21,2022-02-12_13h57.26.361,lexical_decision_task_DD_L5,2021.2.3,Win32,59.81934558,,,,,,,,,,,0.707,1,,,,,,,,,,,,,,z,1,0.707,,,,,,,,0.056614708,-0.365973452,0,0,0,,0,29,29,147,1,ZOLES,C,old,z,./images/ZOLES.png,,,,,,,,,,,,,,,,,,,,,,,,,,,,,,,,,,,,
,,,,,,,,,,,,,,,,,60fdd69df07af0302d9ce2de,21,2022-02-12_13h57.26.361,lexical_decision_task_DD_L5,2021.2.3,Win32,59.81934558,,,,,,,,,,,0.5754,1,,,,,,,,,,,,,,m,1,0.5754,,,,,,,,0.056614708,-0.365973452,0,0,0,,0,30,30,16,1,GRAPE,LB,old,m,./images/GRAPELB.png,,,,,,,,,,,,,,,,,,,,,,,,,,,,,,,,,,,,
,,,,,,,,,,,,,,,,,60fdd69df07af0302d9ce2de,21,2022-02-12_13h57.26.361,lexical_decision_task_DD_L5,2021.2.3,Win32,59.81934558,,,,,,,,,,,0.678,1,,,,,,,,,,,,,,z,1,0.678,,,,,,,,0.056614708,-0.365973452,0,0,0,,0,31,31,112,1,MYING,HB,old,z,./images/MYINGHB.png,,,,,,,,,,,,,,,,,,,,,,,,,,,,,,,,,,,,
,,,,,,,,,,,,,,,,,60fdd69df07af0302d9ce2de,21,2022-02-12_13h57.26.361,lexical_decision_task_DD_L5,2021.2.3,Win32,59.81934558,,,,,,,,,,,0.7007,1,,,,,,,,,,,,,,z,1,0.7007,,,,,,,,0.056614708,-0.365973452,0,0,0,,0,32,32,97,1,CHIDS,HB,old,z,./images/CHIDSHB.png,,,,,,,,,,,,,,,,,,,,,,,,,,,,,,,,,,,,
,,,,,,,,,,,,,,,,,60fdd69df07af0302d9ce2de,21,2022-02-12_13h57.26.361,lexical_decision_task_DD_L5,2021.2.3,Win32,59.81934558,,,,,,,,,,,0.7345,1,,,,,,,,,,,,,,m,1,0.7345,,,,,,,,0.056614708,-0.365973452,0,0,0,,0,33,33,75,1,HAMMER,HB,old,m,./images/HAMMERHB.png,,,,,,,,,,,,,,,,,,,,,,,,,,,,,,,,,,,,
,,,,,,,,,,,,,,,,,60fdd69df07af0302d9ce2de,21,2022-02-12_13h57.26.361,lexical_decision_task_DD_L5,2021.2.3,Win32,59.81934558,,,,,,,,,,,0.7511,1,,,,,,,,,,,,,,z,1,0.7511,,,,,,,,0.056614708,-0.365973452,0,0,0,,0,34,34,164,1,SGREW,LB,old,z,./images/SGREWLB.png,,,,,,,,,,,,,,,,,,,,,,,,,,,,,,,,,,,,
,,,,,,,,,,,,,,,,,60fdd69df07af0302d9ce2de,21,2022-02-12_13h57.26.361,lexical_decision_task_DD_L5,2021.2.3,Win32,59.81934558,,,,,,,,,,,1.2987,1,,,,,,,,,,,,,,z,1,1.2987,,,,,,,,0.093587558,0.493645283,0,0,0,,0,35,35,123,1,SEDGE,C,old,z,./images/SEDGE.png,,,,,,,,,,,,,,,,,,,,,,,,,,,,,,,,,,,,
,,,,,,,,,,,,,,,,,60fdd69df07af0302d9ce2de,21,2022-02-12_13h57.26.361,lexical_decision_task_DD_L5,2021.2.3,Win32,59.81934558,,,,,,,,,,,0.8426,1,,,,,,,,,,,,,,m,1,0.8426,,,,,,,,0.093587558,0.493645283,0,0,0,,0,36,36,49,1,BISHOP,LB,old,m,./images/BISHOPLB.png,,,,,,,,,,,,,,,,,,,,,,,,,,,,,,,,,,,,
,,,,,,,,,,,,,,,,,60fdd69df07af0302d9ce2de,21,2022-02-12_13h57.26.361,lexical_decision_task_DD_L5,2021.2.3,Win32,59.81934558,,,,,,,,,,,0.7547,1,,,,,,,,,,,,,,m,1,0.7547,,,,,,,,0.093587558,0.493645283,0,0,0,,0,37,37,12,1,BLOKE,HB,old,m,./images/BLOKEHB.png,,,,,,,,,,,,,,,,,,,,,,,,,,,,,,,,,,,,
,,,,,,,,,,,,,,,,,60fdd69df07af0302d9ce2de,21,2022-02-12_13h57.26.361,lexical_decision_task_DD_L5,2021.2.3,Win32,59.81934558,,,,,,,,,,,0.4763,1,,,,,,,,,,,,,,m,1,0.4763,,,,,,,,0.093587558,0.493645283,0,0,0,,0,38,38,50,1,PILOT,C,old,m,./images/PILOT.png,,,,,,,,,,,,,,,,,,,,,,,,,,,,,,,,,,,,
,,,,,,,,,,,,,,,,,60fdd69df07af0302d9ce2de,21,2022-02-12_13h57.26.361,lexical_decision_task_DD_L5,2021.2.3,Win32,59.81934558,,,,,,,,,,,0.5703,1,,,,,,,,,,,,,,m,1,0.5703,,,,,,,,0.093587558,0.493645283,0,0,0,,0,39,39,20,1,GRANNY,C,old,m,./images/GRANNY.png,,,,,,,,,,,,,,,,,,,,,,,,,,,,,,,,,,,,
,,,,,,,,,,,,,,,,,60fdd69df07af0302d9ce2de,21,2022-02-12_13h57.26.361,lexical_decision_task_DD_L5,2021.2.3,Win32,59.81934558,,,,,,,,,,,0.5528,1,,,,,,,,,,,,,,m,1,0.5528,,,,,,,,0.093587558,0.493645283,0,0,0,,0,40,40,61,1,ARTIST,LB,old,m,./images/ARTISTLB.png,,,,,,,,,,,,,,,,,,,,,,,,,,,,,,,,,,,,
,,,,,,,,,,,,,,,,,60fdd69df07af0302d9ce2de,21,2022-02-12_13h57.26.361,lexical_decision_task_DD_L5,2021.2.3,Win32,59.81934558,,,,,,,,,,,0.6607,1,,,,,,,,,,,,,,z,1,0.6607,,,,,,,,-0.020797195,-0.40987871,1,0,0,,0,41,41,167,1,ZONET,LB,old,z,./images/ZONETLB.png,break_done_button,,,,,,,,,,,,,,,,,,,,,,,,,,,,,,,,,,,
,,,,,,,,,,,,,,,,,60fdd69df07af0302d9ce2de,21,2022-02-12_13h57.26.361,lexical_decision_task_DD_L5,2021.2.3,Win32,59.81934558,,,,,,,,,,,5.2227,0,,,,,,,,,,,,,,z,0,5.2227,,,,,,,,-0.113229318,0.448584623,0,0,0,,0,42,42,83,1,WHISKY,C,old,m,./images/WHISKY.png,,,,,,,,,,,,,,,,,,,,,,,,,,,,,,,,,,,,
,,,,,,,,,,,,,,,,,60fdd69df07af0302d9ce2de,21,2022-02-12_13h57.26.361,lexical_decision_task_DD_L5,2021.2.3,Win32,59.81934558,,,,,,,,,,,1.1597,1,,,,,,,,,,,,,,z,1,1.1597,,,,,,,,-0.113229318,0.448584623,0,0,0,,0,43,43,156,1,HIXES,C,old,z,./images/HIXES.png,,,,,,,,,,,,,,,,,,,,,,,,,,,,,,,,,,,,
,,,,,,,,,,,,,,,,,60fdd69df07af0302d9ce2de,21,2022-02-12_13h57.26.361,lexical_decision_task_DD_L5,2021.2.3,Win32,59.81934558,,,,,,,,,,,0.5282,1,,,,,,,,,,,,,,m,1,0.5282,,,,,,,,-0.113229318,0.448584623,0,0,0,,0,44,44,17,1,PARADE,C,old,m,./images/PARADE.png,,,,,,,,,,,,,,,,,,,,,,,,,,,,,,,,,,,,
,,,,,,,,,,,,,,,,,60fdd69df07af0302d9ce2de,21,2022-02-12_13h57.26.361,lexical_decision_task_DD_L5,2021.2.3,Win32,59.81934558,,,,,,,,,,,0.668,1,,,,,,,,,,,,,,m,1,0.668,,,,,,,,-0.113229318,0.448584623,0,0,0,,0,45,45,58,1,CANOE,LB,old,m,./images/CANOELB.png,,,,,,,,,,,,,,,,,,,,,,,,,,,,,,,,,,,,
,,,,,,,,,,,,,,,,,60fdd69df07af0302d9ce2de,21,2022-02-12_13h57.26.361,lexical_decision_task_DD_L5,2021.2.3,Win32,59.81934558,,,,,,,,,,,0.5925,1,,,,,,,,,,,,,,z,1,0.5925,,,,,,,,-0.113229318,0.448584623,0,0,0,,0,46,46,126,1,GUELS,C,old,z,./images/GUELS.png,,,,,,,,,,,,,,,,,,,,,,,,,,,,,,,,,,,,
,,,,,,,,,,,,,,,,,60fdd69df07af0302d9ce2de,21,2022-02-12_13h57.26.361,lexical_decision_task_DD_L5,2021.2.3,Win32,59.81934558,,,,,,,,,,,0.5676,1,,,,,,,,,,,,,,m,1,0.5676,,,,,,,,-0.113229318,0.448584623,0,0,0,,0,47,47,41,1,STREAM,C,old,m,./images/STREAM.png,,,,,,,,,,,,,,,,,,,,,,,,,,,,,,,,,,,,
,,,,,,,,,,,,,,,,,60fdd69df07af0302d9ce2de,21,2022-02-12_13h57.26.361,lexical_decision_task_DD_L5,2021.2.3,Win32,59.81934558,,,,,,,,,,,0.774,1,,,,,,,,,,,,,,z,1,0.774,,,,,,,,-0.113229318,0.448584623,0,0,0,,0,48,48,91,1,SHENS,HB,old,z,./images/SHENSHB.png,,,,,,,,,,,,,,,,,,,,,,,,,,,,,,,,,,,,
,,,,,,,,,,,,,,,,,60fdd69df07af0302d9ce2de,21,2022-02-12_13h57.26.361,lexical_decision_task_DD_L5,2021.2.3,Win32,59.81934558,,,,,,,,,,,0.7836,0,,,,,,,,,,,,,,z,0,0.7836,,,,,,,,-0.113229318,0.448584623,0,0,0,,0,49,49,36,1,BOILER,HB,old,m,./images/BOILERHB.png,,,,,,,,,,,,,,,,,,,,,,,,,,,,,,,,,,,,
,,,,,,,,,,,,,,,,,60fdd69df07af0302d9ce2de,21,2022-02-12_13h57.26.361,lexical_decision_task_DD_L5,2021.2.3,Win32,59.81934558,,,,,,,,,,,1.394,1,,,,,,,,,,,,,,z,1,1.394,,,,,,,,-0.113229318,0.448584623,0,0,0,,0,50,50,85,1,CHULK,HB,old,z,./images/CHULKHB.png,,,,,,,,,,,,,,,,,,,,,,,,,,,,,,,,,,,,
,,,,,,,,,,,,,,,,,60fdd69df07af0302d9ce2de,21,2022-02-12_13h57.26.361,lexical_decision_task_DD_L5,2021.2.3,Win32,59.81934558,,,,,,,,,,,0.7028,1,,,,,,,,,,,,,,z,1,0.7028,,,,,,,,-0.113229318,0.448584623,0,0,0,,0,51,51,130,1,CRILL,HB,old,z,./images/CRILLHB.png,,,,,,,,,,,,,,,,,,,,,,,,,,,,,,,,,,,,
,,,,,,,,,,,,,,,,,60fdd69df07af0302d9ce2de,21,2022-02-12_13h57.26.361,lexical_decision_task_DD_L5,2021.2.3,Win32,59.81934558,,,,,,,,,,,1.2921,1,,,,,,,,,,,,,,m,1,1.2921,,,,,,,,-0.113229318,0.448584623,0,0,0,,0,52,52,24,1,FLESH,HB,old,m,./images/FLESHHB.png,,,,,,,,,,,,,,,,,,,,,,,,,,,,,,,,,,,,
,,,,,,,,,,,,,,,,,60fdd69df07af0302d9ce2de,21,2022-02-12_13h57.26.361,lexical_decision_task_DD_L5,2021.2.3,Win32,59.81934558,,,,,,,,,,,0.5293,1,,,,,,,,,,,,,,m,1,0.5293,,,,,,,,-0.113229318,0.448584623,0,0,0,,0,53,53,32,1,HOCKEY,C,old,m,./images/HOCKEY.png,,,,,,,,,,,,,,,,,,,,,,,,,,,,,,,,,,,,
,,,,,,,,,,,,,,,,,60fdd69df07af0302d9ce2de,21,2022-02-12_13h57.26.361,lexical_decision_task_DD_L5,2021.2.3,Win32,59.81934558,,,,,,,,,,,0.611,1,,,,,,,,,,,,,,z,1,0.611,,,,,,,,-0.113229318,0.448584623,0,0,0,,0,54,54,161,1,BLAPS,LB,old,z,./images/BLAPSLB.png,,,,,,,,,,,,,,,,,,,,,,,,,,,,,,,,,,,,
,,,,,,,,,,,,,,,,,60fdd69df07af0302d9ce2de,21,2022-02-12_13h57.26.361,lexical_decision_task_DD_L5,2021.2.3,Win32,59.81934558,,,,,,,,,,,0.9526,1,,,,,,,,,,,,,,z,1,0.9526,,,,,,,,-0.113229318,0.448584623,0,0,0,,0,55,55,163,1,GAMBA,HB,old,z,./images/GAMBAHB.png,,,,,,,,,,,,,,,,,,,,,,,,,,,,,,,,,,,,
,,,,,,,,,,,,,,,,,60fdd69df07af0302d9ce2de,21,2022-02-12_13h57.26.361,lexical_decision_task_DD_L5,2021.2.3,Win32,59.81934558,,,,,,,,,,,1.0518,1,,,,,,,,,,,,,,z,1,1.0518,,,,,,,,-0.113229318,0.448584623,0,0,0,,0,56,56,151,1,TINKY,HB,old,z,./images/TINKYHB.png,,,,,,,,,,,,,,,,,,,,,,,,,,,,,,,,,,,,
,,,,,,,,,,,,,,,,,60fdd69df07af0302d9ce2de,21,2022-02-12_13h57.26.361,lexical_decision_task_DD_L5,2021.2.3,Win32,59.81934558,,,,,,,,,,,0.6528,1,,,,,,,,,,,,,,z,1,0.6528,,,,,,,,-0.113229318,0.448584623,0,0,0,,0,57,57,153,1,CLUPS,C,old,z,./images/CLUPS.png,,,,,,,,,,,,,,,,,,,,,,,,,,,,,,,,,,,,
,,,,,,,,,,,,,,,,,60fdd69df07af0302d9ce2de,21,2022-02-12_13h57.26.361,lexical_decision_task_DD_L5,2021.2.3,Win32,59.81934558,,,,,,,,,,,0.4969,1,,,,,,,,,,,,,,m,1,0.4969,,,,,,,,-0.113229318,0.448584623,0,0,0,,0,58,58,80,1,PLANET,C,old,m,./images/PLANET.png,,,,,,,,,,,,,,,,,,,,,,,,,,,,,,,,,,,,
,,,,,,,,,,,,,,,,,60fdd69df07af0302d9ce2de,21,2022-02-12_13h57.26.361,lexical_decision_task_DD_L5,2021.2.3,Win32,59.81934558,,,,,,,,,,,0.5597,1,,,,,,,,,,,,,,z,1,0.5597,,,,,,,,-0.113229318,0.448584623,0,0,0,,0,59,59,137,1,JOOST,LB,old,z,./images/JOOSTLB.png,,,,,,,,,,,,,,,,,,,,,,,,,,,,,,,,,,,,
,,,,,,,,,,,,,,,,,60fdd69df07af0302d9ce2de,21,2022-02-12_13h57.26.361,lexical_decision_task_DD_L5,2021.2.3,Win32,59.81934558,,,,,,,,,,,0.5353,1,,,,,,,,,,,,,,m,1,0.5353,,,,,,,,-0.113229318,0.448584623,0,0,0,,0,60,60,46,1,MUMMY,LB,old,m,./images/MUMMYLB.png,,,,,,,,,,,,,,,,,,,,,,,,,,,,,,,,,,,,
,,,,,,,,,,,,,,,,,60fdd69df07af0302d9ce2de,21,2022-02-12_13h57.26.361,lexical_decision_task_DD_L5,2021.2.3,Win32,59.81934558,,,,,,,,,,,0.4766,1,,,,,,,,,,,,,,m,1,0.4766,,,,,,,,-0.113229318,0.448584623,0,0,0,,0,61,61,10,1,GARDEN,LB,old,m,./images/GARDENLB.png,,,,,,,,,,,,,,,,,,,,,,,,,,,,,,,,,,,,
,,,,,,,,,,,,,,,,,60fdd69df07af0302d9ce2de,21,2022-02-12_13h57.26.361,lexical_decision_task_DD_L5,2021.2.3,Win32,59.81934558,,,,,,,,,,,0.6709,1,,,,,,,,,,,,,,z,1,0.6709,,,,,,,,-0.113229318,0.448584623,0,0,0,,0,62,62,133,1,POWDY,HB,old,z,./images/POWDYHB.png,,,,,,,,,,,,,,,,,,,,,,,,,,,,,,,,,,,,
,,,,,,,,,,,,,,,,,60fdd69df07af0302d9ce2de,21,2022-02-12_13h57.26.361,lexical_decision_task_DD_L5,2021.2.3,Win32,59.81934558,,,,,,,,,,,0.5598,1,,,,,,,,,,,,,,m,1,0.5598,,,,,,,,-0.113229318,0.448584623,0,0,0,,0,63,63,0,1,WALNUT,HB,old,m,./images/WALNUTHB.png,,,,,,,,,,,,,,,,,,,,,,,,,,,,,,,,,,,,
,,,,,,,,,,,,,,,,,60fdd69df07af0302d9ce2de,21,2022-02-12_13h57.26.361,lexical_decision_task_DD_L5,2021.2.3,Win32,59.81934558,,,,,,,,,,,0.9797,1,,,,,,,,,,,,,,z,1,0.9797,,,,,,,,-0.113229318,0.448584623,0,0,0,,0,64,64,99,1,BACKY,C,old,z,./images/BACKY.png,,,,,,,,,,,,,,,,,,,,,,,,,,,,,,,,,,,,
,,,,,,,,,,,,,,,,,60fdd69df07af0302d9ce2de,21,2022-02-12_13h57.26.361,lexical_decision_task_DD_L5,2021.2.3,Win32,59.81934558,,,,,,,,,,,0.6914,1,,,,,,,,,,,,,,z,1,0.6914,,,,,,,,-0.113229318,0.448584623,0,0,0,,0,65,65,98,1,BAMPS,LB,old,z,./images/BAMPSLB.png,,,,,,,,,,,,,,,,,,,,,,,,,,,,,,,,,,,,
,,,,,,,,,,,,,,,,,60fdd69df07af0302d9ce2de,21,2022-02-12_13h57.26.361,lexical_decision_task_DD_L5,2021.2.3,Win32,59.81934558,,,,,,,,,,,0.6365,1,,,,,,,,,,,,,,z,1,0.6365,,,,,,,,-0.113229318,0.448584623,0,0,0,,0,66,66,88,1,GLUSH,HB,old,z,./images/GLUSHHB.png,,,,,,,,,,,,,,,,,,,,,,,,,,,,,,,,,,,,
,,,,,,,,,,,,,,,,,60fdd69df07af0302d9ce2de,21,2022-02-12_13h57.26.361,lexical_decision_task_DD_L5,2021.2.3,Win32,59.81934558,,,,,,,,,,,0.4603,1,,,,,,,,,,,,,,m,1,0.4603,,,,,,,,-0.113229318,0.448584623,0,0,0,,0,67,67,53,1,POSTER,C,old,m,./images/POSTER.png,,,,,,,,,,,,,,,,,,,,,,,,,,,,,,,,,,,,
,,,,,,,,,,,,,,,,,60fdd69df07af0302d9ce2de,21,2022-02-12_13h57.26.361,lexical_decision_task_DD_L5,2021.2.3,Win32,59.81934558,,,,,,,,,,,0.577,1,,,,,,,,,,,,,,z,1,0.577,,,,,,,,-0.113229318,0.448584623,0,0,0,,0,68,68,116,1,BALGY,LB,old,z,./images/BALGYLB.png,,,,,,,,,,,,,,,,,,,,,,,,,,,,,,,,,,,,
,,,,,,,,,,,,,,,,,60fdd69df07af0302d9ce2de,21,2022-02-12_13h57.26.361,lexical_decision_task_DD_L5,2021.2.3,Win32,59.81934558,,,,,,,,,,,0.5298,1,,,,,,,,,,,,,,m,1,0.5298,,,,,,,,-0.113229318,0.448584623,0,0,0,,0,69,69,70,1,BANANA,LB,old,m,./images/BANANALB.png,,,,,,,,,,,,,,,,,,,,,,,,,,,,,,,,,,,,
,,,,,,,,,,,,,,,,,60fdd69df07af0302d9ce2de,21,2022-02-12_13h57.26.361,lexical_decision_task_DD_L5,2021.2.3,Win32,59.81934558,,,,,,,,,,,0.8693,1,,,,,,,,,,,,,,z,1,0.8693,,,,,,,,-0.113229318,0.448584623,0,0,0,,0,70,70,107,1,FASKS,LB,old,z,./images/FASKSLB.png,,,,,,,,,,,,,,,,,,,,,,,,,,,,,,,,,,,,
,,,,,,,,,,,,,,,,,60fdd69df07af0302d9ce2de,21,2022-02-12_13h57.26.361,lexical_decision_task_DD_L5,2021.2.3,Win32,59.81934558,,,,,,,,,,,0.4943,1,,,,,,,,,,,,,,z,1,0.4943,,,,,,,,-0.113229318,0.448584623,0,0,0,,0,71,71,146,1,MOOST,LB,old,z,./images/MOOSTLB.png,,,,,,,,,,,,,,,,,,,,,,,,,,,,,,,,,,,,
,,,,,,,,,,,,,,,,,60fdd69df07af0302d9ce2de,21,2022-02-12_13h57.26.361,lexical_decision_task_DD_L5,2021.2.3,Win32,59.81934558,,,,,,,,,,,0.7045,1,,,,,,,,,,,,,,m,1,0.7045,,,,,,,,-0.113229318,0.448584623,0,0,0,,0,72,72,37,1,TIGER,LB,old,m,./images/TIGERLB.png,,,,,,,,,,,,,,,,,,,,,,,,,,,,,,,,,,,,
,,,,,,,,,,,,,,,,,60fdd69df07af0302d9ce2de,21,2022-02-12_13h57.26.361,lexical_decision_task_DD_L5,2021.2.3,Win32,59.81934558,,,,,,,,,,,0.7816,1,,,,,,,,,,,,,,z,1,0.7816,,,,,,,,-0.113229318,0.448584623,0,0,0,,0,73,73,148,1,JOMS,HB,old,z,./images/JOMSHB.png,,,,,,,,,,,,,,,,,,,,,,,,,,,,,,,,,,,,
,,,,,,,,,,,,,,,,,60fdd69df07af0302d9ce2de,21,2022-02-12_13h57.26.361,lexical_decision_task_DD_L5,2021.2.3,Win32,59.81934558,,,,,,,,,,,0.6023,1,,,,,,,,,,,,,,z,1,0.6023,,,,,,,,-0.113229318,0.448584623,0,0,0,,0,74,74,157,1,INLER,HB,old,z,./images/INLERHB.png,,,,,,,,,,,,,,,,,,,,,,,,,,,,,,,,,,,,
,,,,,,,,,,,,,,,,,60fdd69df07af0302d9ce2de,21,2022-02-12_13h57.26.361,lexical_decision_task_DD_L5,2021.2.3,Win32,59.81934558,,,,,,,,,,,1.6096,1,,,,,,,,,,,,,,z,1,1.6096,,,,,,,,-0.113229318,0.448584623,0,0,0,,0,75,75,160,1,VEETS,HB,old,z,./images/VEETSHB.png,,,,,,,,,,,,,,,,,,,,,,,,,,,,,,,,,,,,
,,,,,,,,,,,,,,,,,60fdd69df07af0302d9ce2de,21,2022-02-12_13h57.26.361,lexical_decision_task_DD_L5,2021.2.3,Win32,59.81934558,,,,,,,,,,,0.5892,1,,,,,,,,,,,,,,m,1,0.5892,,,,,,,,-0.113229318,0.448584623,0,0,0,,0,76,76,62,1,MAMMAL,C,old,m,./images/MAMMAL.png,,,,,,,,,,,,,,,,,,,,,,,,,,,,,,,,,,,,
,,,,,,,,,,,,,,,,,60fdd69df07af0302d9ce2de,21,2022-02-12_13h57.26.361,lexical_decision_task_DD_L5,2021.2.3,Win32,59.81934558,,,,,,,,,,,1.0015,1,,,,,,,,,,,,,,z,1,1.0015,,,,,,,,-0.113229318,0.448584623,0,0,0,,0,77,77,106,1,CLUMS,HB,old,z,./images/CLUMSHB.png,,,,,,,,,,,,,,,,,,,,,,,,,,,,,,,,,,,,
,,,,,,,,,,,,,,,,,60fdd69df07af0302d9ce2de,21,2022-02-12_13h57.26.361,lexical_decision_task_DD_L5,2021.2.3,Win32,59.81934558,,,,,,,,,,,0.7765,1,,,,,,,,,,,,,,z,1,0.7765,,,,,,,,-0.113229318,0.448584623,0,0,0,,0,78,78,121,1,CEERS,HB,old,z,./images/CEERSHB.png,,,,,,,,,,,,,,,,,,,,,,,,,,,,,,,,,,,,
,,,,,,,,,,,,,,,,,60fdd69df07af0302d9ce2de,21,2022-02-12_13h57.26.361,lexical_decision_task_DD_L5,2021.2.3,Win32,59.81934558,,,,,,,,,,,0.5807,1,,,,,,,,,,,,,,m,1,0.5807,,,,,,,,-0.113229318,0.448584623,0,0,0,,0,79,79,7,1,WAGON,LB,old,m,./images/WAGONLB.png,,,,,,,,,,,,,,,,,,,,,,,,,,,,,,,,,,,,
,,,,,,,,,,,,,,,,,60fdd69df07af0302d9ce2de,21,2022-02-12_13h57.26.361,lexical_decision_task_DD_L5,2021.2.3,Win32,59.81934558,,,,,,,,,,,0.7074,1,,,,,,,,,,,,,,m,1,0.7074,,,,,,,,-0.113229318,0.448584623,0,0,0,,0,80,80,74,1,JUMPER,C,old,m,./images/JUMPER.png,,,,,,,,,,,,,,,,,,,,,,,,,,,,,,,,,,,,
,,,,,,,,,,,,,,,,,60fdd69df07af0302d9ce2de,21,2022-02-12_13h57.26.361,lexical_decision_task_DD_L5,2021.2.3,Win32,59.81934558,,,,,,,,,,,1.0476,1,,,,,,,,,,,,,,z,1,1.0476,,,,,,,,-0.113229318,0.448584623,0,0,0,,0,81,81,115,1,MAWNS,HB,old,z,./images/MAWNSHB.png,,,,,,,,,,,,,,,,,,,,,,,,,,,,,,,,,,,,
,,,,,,,,,,,,,,,,,60fdd69df07af0302d9ce2de,21,2022-02-12_13h57.26.361,lexical_decision_task_DD_L5,2021.2.3,Win32,59.81934558,,,,,,,,,,,0.4224,1,,,,,,,,,,,,,,m,1,0.4224,,,,,,,,-0.113229318,0.448584623,0,0,0,,0,82,82,29,1,PISTOL,C,old,m,./images/PISTOL.png,,,,,,,,,,,,,,,,,,,,,,,,,,,,,,,,,,,,
,,,,,,,,,,,,,,,,,60fdd69df07af0302d9ce2de,21,2022-02-12_13h57.26.361,lexical_decision_task_DD_L5,2021.2.3,Win32,59.81934558,,,,,,,,,,,0.626,1,,,,,,,,,,,,,,z,1,0.626,,,,,,,,-0.113229318,0.448584623,0,0,0,space,0,83,83,162,1,LEICH,C,old,z,./images/LEICH.png,,96.407,,,,,,,,,,,,,,,,,,,,,,,,,,,,,,,,,,
,,,,,,,,,,,,,,,,,60fdd69df07af0302d9ce2de,21,2022-02-12_13h57.26.361,lexical_decision_task_DD_L5,2021.2.3,Win32,59.81934558,,,,,,,,,,,2.0516,1,,,,,,,,,,,,,,z,1,2.0516,,,,,,,,-0.113229318,0.448584623,0,0,0,,0,84,84,105,1,MOKER,C,old,z,./images/MOKER.png,,,,,,,,,,,,,,,,,,,,,,,,,,,,,,,,,,,,
,,,,,,,,,,,,,,,,,60fdd69df07af0302d9ce2de,21,2022-02-12_13h57.26.361,lexical_decision_task_DD_L5,2021.2.3,Win32,59.81934558,,,,,,,,,,,0.5634,1,,,,,,,,,,,,,,m,1,0.5634,,,,,,,,-0.113229318,0.448584623,0,0,0,,0,85,85,5,1,BAMBOO,C,old,m,./images/BAMBOO.png,,,,,,,,,,,,,,,,,,,,,,,,,,,,,,,,,,,,
,,,,,,,,,,,,,,,,,60fdd69df07af0302d9ce2de,21,2022-02-12_13h57.26.361,lexical_decision_task_DD_L5,2021.2.3,Win32,59.81934558,,,,,,,,,,,0.6891,1,,,,,,,,,,,,,,z,1,0.6891,,,,,,,,-0.113229318,0.448584623,0,0,0,,0,86,86,128,1,GRIFT,LB,old,z,./images/GRIFTLB.png,,,,,,,,,,,,,,,,,,,,,,,,,,,,,,,,,,,,
,,,,,,,,,,,,,,,,,60fdd69df07af0302d9ce2de,21,2022-02-12_13h57.26.361,lexical_decision_task_DD_L5,2021.2.3,Win32,59.81934558,,,,,,,,,,,0.4837,1,,,,,,,,,,,,,,m,1,0.4837,,,,,,,,-0.113229318,0.448584623,0,0,0,,0,87,87,23,1,CLOTH,C,old,m,./images/CLOTH.png,,,,,,,,,,,,,,,,,,,,,,,,,,,,,,,,,,,,
,,,,,,,,,,,,,,,,,60fdd69df07af0302d9ce2de,21,2022-02-12_13h57.26.361,lexical_decision_task_DD_L5,2021.2.3,Win32,59.81934558,,,,,,,,,,,0.6459,0,,,,,,,,,,,,,,z,0,0.6459,,,,,,,,-0.113229318,0.448584623,0,0,0,,0,88,88,33,1,SAUNA,HB,old,m,./images/SAUNAHB.png,,,,,,,,,,,,,,,,,,,,,,,,,,,,,,,,,,,,
,,,,,,,,,,,,,,,,,60fdd69df07af0302d9ce2de,21,2022-02-12_13h57.26.361,lexical_decision_task_DD_L5,2021.2.3,Win32,59.81934558,,,,,,,,,,,0.5967,1,,,,,,,,,,,,,,m,1,0.5967,,,,,,,,-0.113229318,0.448584623,0,0,0,,0,89,89,47,1,LAGOON,C,old,m,./images/LAGOON.png,,,,,,,,,,,,,,,,,,,,,,,,,,,,,,,,,,,,
,,,,,,,,,,,,,,,,,60fdd69df07af0302d9ce2de,21,2022-02-12_13h57.26.361,lexical_decision_task_DD_L5,2021.2.3,Win32,59.81934558,,,,,,,,,,,0.5674,1,,,,,,,,,,,,,,z,1,0.5674,,,,,,,,-0.113229318,0.448584623,0,0,0,,0,90,90,86,1,AIFED,LB,old,z,./images/AIFEDLB.png,,,,,,,,,,,,,,,,,,,,,,,,,,,,,,,,,,,,
,,,,,,,,,,,,,,,,,60fdd69df07af0302d9ce2de,21,2022-02-12_13h57.26.361,lexical_decision_task_DD_L5,2021.2.3,Win32,59.81934558,,,,,,,,,,,0.6773,1,,,,,,,,,,,,,,m,1,0.6773,,,,,,,,-0.113229318,0.448584623,0,0,0,,0,91,91,78,1,BROOM,HB,old,m,./images/BROOMHB.png,,,,,,,,,,,,,,,,,,,,,,,,,,,,,,,,,,,,
,,,,,,,,,,,,,,,,,60fdd69df07af0302d9ce2de,21,2022-02-12_13h57.26.361,lexical_decision_task_DD_L5,2021.2.3,Win32,59.81934558,,,,,,,,,,,0.4815,1,,,,,,,,,,,,,,m,1,0.4815,,,,,,,,-0.113229318,0.448584623,0,0,0,,0,92,92,11,1,MEDAL,C,old,m,./images/MEDAL.png,,,,,,,,,,,,,,,,,,,,,,,,,,,,,,,,,,,,
,,,,,,,,,,,,,,,,,60fdd69df07af0302d9ce2de,21,2022-02-12_13h57.26.361,lexical_decision_task_DD_L5,2021.2.3,Win32,59.81934558,,,,,,,,,,,0.528,1,,,,,,,,,,,,,,z,1,0.528,,,,,,,,-0.113229318,0.448584623,0,0,0,,0,93,93,132,1,SCIFF,C,old,z,./images/SCIFF.png,,,,,,,,,,,,,,,,,,,,,,,,,,,,,,,,,,,,
,,,,,,,,,,,,,,,,,60fdd69df07af0302d9ce2de,21,2022-02-12_13h57.26.361,lexical_decision_task_DD_L5,2021.2.3,Win32,59.81934558,,,,,,,,,,,0.596,1,,,,,,,,,,,,,,m,1,0.596,,,,,,,,-0.113229318,0.448584623,0,0,0,,0,94,94,56,1,HEATER,C,old,m,./images/HEATER.png,,,,,,,,,,,,,,,,,,,,,,,,,,,,,,,,,,,,
,,,,,,,,,,,,,,,,,60fdd69df07af0302d9ce2de,21,2022-02-12_13h57.26.361,lexical_decision_task_DD_L5,2021.2.3,Win32,59.81934558,,,,,,,,,,,0.8258,0,,,,,,,,,,,,,,m,0,0.8258,,,,,,,,-0.113229318,0.448584623,0,0,0,,0,95,95,166,1,SHORY,HB,old,z,./images/SHORYHB.png,,,,,,,,,,,,,,,,,,,,,,,,,,,,,,,,,,,,
,,,,,,,,,,,,,,,,,60fdd69df07af0302d9ce2de,21,2022-02-12_13h57.26.361,lexical_decision_task_DD_L5,2021.2.3,Win32,59.81934558,,,,,,,,,,,0.5617,1,,,,,,,,,,,,,,m,1,0.5617,,,,,,,,-0.113229318,0.448584623,0,0,0,,0,96,96,54,1,CHERRY,HB,old,m,./images/CHERRYHB.png,,,,,,,,,,,,,,,,,,,,,,,,,,,,,,,,,,,,
,,,,,,,,,,,,,,,,,60fdd69df07af0302d9ce2de,21,2022-02-12_13h57.26.361,lexical_decision_task_DD_L5,2021.2.3,Win32,59.81934558,,,,,,,,,,,0.5312,1,,,,,,,,,,,,,,z,1,0.5312,,,,,,,,-0.113229318,0.448584623,0,0,0,,0,97,97,135,1,JOODY,C,old,z,./images/JOODY.png,,,,,,,,,,,,,,,,,,,,,,,,,,,,,,,,,,,,
,,,,,,,,,,,,,,,,,60fdd69df07af0302d9ce2de,21,2022-02-12_13h57.26.361,lexical_decision_task_DD_L5,2021.2.3,Win32,59.81934558,,,,,,,,,,,0.4592,1,,,,,,,,,,,,,,m,1,0.4592,,,,,,,,-0.113229318,0.448584623,0,0,0,,0,98,98,13,1,BUNNY,LB,old,m,./images/BUNNYLB.png,,,,,,,,,,,,,,,,,,,,,,,,,,,,,,,,,,,,
,,,,,,,,,,,,,,,,,60fdd69df07af0302d9ce2de,21,2022-02-12_13h57.26.361,lexical_decision_task_DD_L5,2021.2.3,Win32,59.81934558,,,,,,,,,,,0.5642,1,,,,,,,,,,,,,,z,1,0.5642,,,,,,,,-0.113229318,0.448584623,0,0,0,,0,99,99,108,1,GRUET,C,old,z,./images/GRUET.png,,,,,,,,,,,,,,,,,,,,,,,,,,,,,,,,,,,,
,,,,,,,,,,,,,,,,,60fdd69df07af0302d9ce2de,21,2022-02-12_13h57.26.361,lexical_decision_task_DD_L5,2021.2.3,Win32,59.81934558,,,,,,,,,,,0.7844,1,,,,,,,,,,,,,,m,1,0.7844,,,,,,,,-0.113229318,0.448584623,0,0,0,,0,100,100,57,1,FERRY,HB,old,m,./images/FERRYHB.png,,,,,,,,,,,,,,,,,,,,,,,,,,,,,,,,,,,,
,,,,,,,,,,,,,,,,,60fdd69df07af0302d9ce2de,21,2022-02-12_13h57.26.361,lexical_decision_task_DD_L5,2021.2.3,Win32,59.81934558,,,,,,,,,,,0.5245,1,,,,,,,,,,,,,,m,1,0.5245,,,,,,,,-0.113229318,0.448584623,0,0,0,,0,101,101,4,1,BOXER,LB,old,m,./images/BOXERLB.png,,,,,,,,,,,,,,,,,,,,,,,,,,,,,,,,,,,,
,,,,,,,,,,,,,,,,,60fdd69df07af0302d9ce2de,21,2022-02-12_13h57.26.361,lexical_decision_task_DD_L5,2021.2.3,Win32,59.81934558,,,,,,,,,,,0.6009,1,,,,,,,,,,,,,,z,1,0.6009,,,,,,,,-0.113229318,0.448584623,0,0,0,,0,102,102,119,1,PAFER,LB,old,z,./images/PAFERLB.png,,,,,,,,,,,,,,,,,,,,,,,,,,,,,,,,,,,,
,,,,,,,,,,,,,,,,,60fdd69df07af0302d9ce2de,21,2022-02-12_13h57.26.361,lexical_decision_task_DD_L5,2021.2.3,Win32,59.81934558,,,,,,,,,,,0.7178,1,,,,,,,,,,,,,,z,1,0.7178,,,,,,,,-0.113229318,0.448584623,0,0,0,,0,103,103,118,1,BAVEL,HB,old,z,./images/BAVELHB.png,,,,,,,,,,,,,,,,,,,,,,,,,,,,,,,,,,,,
,,,,,,,,,,,,,,,,,60fdd69df07af0302d9ce2de,21,2022-02-12_13h57.26.361,lexical_decision_task_DD_L5,2021.2.3,Win32,59.81934558,,,,,,,,,,,0.8746,1,,,,,,,,,,,,,,z,1,0.8746,,,,,,,,-0.113229318,0.448584623,0,0,0,,0,104,104,143,1,MONGS,LB,old,z,./images/MONGSLB.png,,,,,,,,,,,,,,,,,,,,,,,,,,,,,,,,,,,,
,,,,,,,,,,,,,,,,,60fdd69df07af0302d9ce2de,21,2022-02-12_13h57.26.361,lexical_decision_task_DD_L5,2021.2.3,Win32,59.81934558,,,,,,,,,,,0.8114,1,,,,,,,,,,,,,,m,1,0.8114,,,,,,,,-0.113229318,0.448584623,0,0,0,,0,105,105,69,1,ARROW,HB,old,m,./images/ARROWHB.png,,,,,,,,,,,,,,,,,,,,,,,,,,,,,,,,,,,,
,,,,,,,,,,,,,,,,,60fdd69df07af0302d9ce2de,21,2022-02-12_13h57.26.361,lexical_decision_task_DD_L5,2021.2.3,Win32,59.81934558,,,,,,,,,,,0.5409,1,,,,,,,,,,,,,,z,1,0.5409,,,,,,,,-0.113229318,0.448584623,0,0,0,,0,106,106,101,1,GLEET,LB,old,z,./images/GLEETLB.png,,,,,,,,,,,,,,,,,,,,,,,,,,,,,,,,,,,,
,,,,,,,,,,,,,,,,,60fdd69df07af0302d9ce2de,21,2022-02-12_13h57.26.361,lexical_decision_task_DD_L5,2021.2.3,Win32,59.81934558,,,,,,,,,,,0.6446,1,,,,,,,,,,,,,,z,1,0.6446,,,,,,,,-0.113229318,0.448584623,0,0,0,,0,107,107,117,1,STEEG,C,old,z,./images/STEEG.png,,,,,,,,,,,,,,,,,,,,,,,,,,,,,,,,,,,,
,,,,,,,,,,,,,,,,,60fdd69df07af0302d9ce2de,21,2022-02-12_13h57.26.361,lexical_decision_task_DD_L5,2021.2.3,Win32,59.81934558,,,,,,,,,,,0.6877,1,,,,,,,,,,,,,,z,1,0.6877,,,,,,,,-0.113229318,0.448584623,0,0,0,,0,108,108,131,1,NACES,LB,old,z,./images/NACESLB.png,,,,,,,,,,,,,,,,,,,,,,,,,,,,,,,,,,,,
,,,,,,,,,,,,,,,,,60fdd69df07af0302d9ce2de,21,2022-02-12_13h57.26.361,lexical_decision_task_DD_L5,2021.2.3,Win32,59.81934558,,,,,,,,,,,0.5078,1,,,,,,,,,,,,,,z,1,0.5078,,,,,,,,-0.113229318,0.448584623,0,0,0,,0,109,109,96,1,KEAMS,C,old,z,./images/KEAMS.png,,,,,,,,,,,,,,,,,,,,,,,,,,,,,,,,,,,,
,,,,,,,,,,,,,,,,,60fdd69df07af0302d9ce2de,21,2022-02-12_13h57.26.361,lexical_decision_task_DD_L5,2021.2.3,Win32,59.81934558,,,,,,,,,,,0.8452,1,,,,,,,,,,,,,,z,1,0.8452,,,,,,,,-0.113229318,0.448584623,0,0,0,,0,110,110,100,1,DRIBS,HB,old,z,./images/DRIBSHB.png,,,,,,,,,,,,,,,,,,,,,,,,,,,,,,,,,,,,
,,,,,,,,,,,,,,,,,60fdd69df07af0302d9ce2de,21,2022-02-12_13h57.26.361,lexical_decision_task_DD_L5,2021.2.3,Win32,59.81934558,,,,,,,,,,,0.6242,1,,,,,,,,,,,,,,m,1,0.6242,,,,,,,,-0.113229318,0.448584623,0,0,0,,0,111,111,72,1,FLASK,HB,old,m,./images/FLASKHB.png,,,,,,,,,,,,,,,,,,,,,,,,,,,,,,,,,,,,
,,,,,,,,,,,,,,,,,60fdd69df07af0302d9ce2de,21,2022-02-12_13h57.26.361,lexical_decision_task_DD_L5,2021.2.3,Win32,59.81934558,,,,,,,,,,,0.5016,1,,,,,,,,,,,,,,m,1,0.5016,,,,,,,,-0.113229318,0.448584623,0,0,0,,0,112,112,1,1,TOWEL,LB,old,m,./images/TOWELLB.png,,,,,,,,,,,,,,,,,,,,,,,,,,,,,,,,,,,,
,,,,,,,,,,,,,,,,,60fdd69df07af0302d9ce2de,21,2022-02-12_13h57.26.361,lexical_decision_task_DD_L5,2021.2.3,Win32,59.81934558,,,,,,,,,,,0.5007,1,,,,,,,,,,,,,,m,1,0.5007,,,,,,,,-0.113229318,0.448584623,0,0,0,,0,113,113,14,1,FENCE,C,old,m,./images/FENCE.png,,,,,,,,,,,,,,,,,,,,,,,,,,,,,,,,,,,,
,,,,,,,,,,,,,,,,,60fdd69df07af0302d9ce2de,21,2022-02-12_13h57.26.361,lexical_decision_task_DD_L5,2021.2.3,Win32,59.81934558,,,,,,,,,,,0.6267,1,,,,,,,,,,,,,,m,1,0.6267,,,,,,,,-0.113229318,0.448584623,0,0,0,,0,114,114,38,1,ENGINE,C,old,m,./images/ENGINE.png,,,,,,,,,,,,,,,,,,,,,,,,,,,,,,,,,,,,
,,,,,,,,,,,,,,,,,60fdd69df07af0302d9ce2de,21,2022-02-12_13h57.26.361,lexical_decision_task_DD_L5,2021.2.3,Win32,59.81934558,,,,,,,,,,,0.7772,1,,,,,,,,,,,,,,m,1,0.7772,,,,,,,,-0.113229318,0.448584623,0,0,0,,0,115,115,30,1,SLOPE,HB,old,m,./images/SLOPEHB.png,,,,,,,,,,,,,,,,,,,,,,,,,,,,,,,,,,,,
,,,,,,,,,,,,,,,,,60fdd69df07af0302d9ce2de,21,2022-02-12_13h57.26.361,lexical_decision_task_DD_L5,2021.2.3,Win32,59.81934558,,,,,,,,,,,1.7584,1,,,,,,,,,,,,,,z,1,1.7584,,,,,,,,-0.113229318,0.448584623,0,0,0,,0,116,116,109,1,BURGE,HB,old,z,./images/BURGEHB.png,,,,,,,,,,,,,,,,,,,,,,,,,,,,,,,,,,,,
,,,,,,,,,,,,,,,,,60fdd69df07af0302d9ce2de,21,2022-02-12_13h57.26.361,lexical_decision_task_DD_L5,2021.2.3,Win32,59.81934558,,,,,,,,,,,0.6157,1,,,,,,,,,,,,,,m,1,0.6157,,,,,,,,-0.113229318,0.448584623,0,0,0,,0,117,117,8,1,CLIFF,C,old,m,./images/CLIFF.png,,,,,,,,,,,,,,,,,,,,,,,,,,,,,,,,,,,,
,,,,,,,,,,,,,,,,,60fdd69df07af0302d9ce2de,21,2022-02-12_13h57.26.361,lexical_decision_task_DD_L5,2021.2.3,Win32,59.81934558,,,,,,,,,,,0.6507,1,,,,,,,,,,,,,,m,1,0.6507,,,,,,,,-0.113229318,0.448584623,0,0,0,,0,118,118,22,1,CLOWN,LB,old,m,./images/CLOWNLB.png,,,,,,,,,,,,,,,,,,,,,,,,,,,,,,,,,,,,
,,,,,,,,,,,,,,,,,60fdd69df07af0302d9ce2de,21,2022-02-12_13h57.26.361,lexical_decision_task_DD_L5,2021.2.3,Win32,59.81934558,,,,,,,,,,,0.6027,0,,,,,,,,,,,,,,m,0,0.6027,,,,,,,,-0.113229318,0.448584623,0,0,0,,0,119,119,110,1,CRUNK,LB,old,z,./images/CRUNKLB.png,,,,,,,,,,,,,,,,,,,,,,,,,,,,,,,,,,,,
,,,,,,,,,,,,,,,,,60fdd69df07af0302d9ce2de,21,2022-02-12_13h57.26.361,lexical_decision_task_DD_L5,2021.2.3,Win32,59.81934558,,,,,,,,,,,0.7346,1,,,,,,,,,,,,,,m,1,0.7346,,,,,,,,-0.113229318,0.448584623,0,0,0,,0,120,120,15,1,COLLAR,HB,old,m,./images/COLLARHB.png,,,,,,,,,,,,,,,,,,,,,,,,,,,,,,,,,,,,
,,,,,,,,,,,,,,,,,60fdd69df07af0302d9ce2de,21,2022-02-12_13h57.26.361,lexical_decision_task_DD_L5,2021.2.3,Win32,59.81934558,,,,,,,,,,,1.2803,1,,,,,,,,,,,,,,m,1,1.2803,,,,,,,,-0.113229318,0.448584623,0,0,0,,0,121,121,3,1,CRATER,HB,old,m,./images/CRATERHB.png,,,,,,,,,,,,,,,,,,,,,,,,,,,,,,,,,,,,
,,,,,,,,,,,,,,,,,60fdd69df07af0302d9ce2de,21,2022-02-12_13h57.26.361,lexical_decision_task_DD_L5,2021.2.3,Win32,59.81934558,,,,,,,,,,,0.5989,1,,,,,,,,,,,,,,z,1,0.5989,,,,,,,,-0.113229318,0.448584623,0,0,0,,0,122,122,114,1,RIKES,C,old,z,./images/RIKES.png,,,,,,,,,,,,,,,,,,,,,,,,,,,,,,,,,,,,
,,,,,,,,,,,,,,,,,60fdd69df07af0302d9ce2de,21,2022-02-12_13h57.26.361,lexical_decision_task_DD_L5,2021.2.3,Win32,59.81934558,,,,,,,,,,,0.4378,1,,,,,,,,,,,,,,m,1,0.4378,,,,,,,,-0.113229318,0.448584623,0,0,0,,0,123,123,26,1,CLOUD,C,old,m,./images/CLOUD.png,,,,,,,,,,,,,,,,,,,,,,,,,,,,,,,,,,,,
,,,,,,,,,,,,,,,,,60fdd69df07af0302d9ce2de,21,2022-02-12_13h57.26.361,lexical_decision_task_DD_L5,2021.2.3,Win32,59.81934558,,,,,,,,,,,0.6202,1,,,,,,,,,,,,,,z,1,0.6202,,,,,,,,-0.113229318,0.448584623,0,0,0,,0,124,124,141,1,PLEET,C,old,z,./images/PLEET.png,,,,,,,,,,,,,,,,,,,,,,,,,,,,,,,,,,,,
,,,,,,,,,,,,,,,,,60fdd69df07af0302d9ce2de,21,2022-02-12_13h57.26.361,lexical_decision_task_DD_L5,2021.2.3,Win32,59.81934558,,,,,,,,,,,0.5157,1,,,,,,,,,,,,,,m,1,0.5157,,,,,,,,-0.18255341,0.489023681,0,0,0,space,0,125,125,59,1,BRUSH,C,old,m,./images/BRUSH.png,,7.6407,,,,,,,,,,,,,,,,,,,,,,,,,,,,,,,,,,
,,,,,,,,,,,,,,,,,60fdd69df07af0302d9ce2de,21,2022-02-12_13h57.26.361,lexical_decision_task_DD_L5,2021.2.3,Win32,59.81934558,,,,,,,,,,,0.6564,1,,,,,,,,,,,,,,m,1,0.6564,,,,,,,,-0.18255341,0.489023681,0,0,0,,0,126,126,64,1,BRIDE,LB,old,m,./images/BRIDELB.png,,,,,,,,,,,,,,,,,,,,,,,,,,,,,,,,,,,,
,,,,,,,,,,,,,,,,,60fdd69df07af0302d9ce2de,21,2022-02-12_13h57.26.361,lexical_decision_task_DD_L5,2021.2.3,Win32,59.81934558,,,,,,,,,,,0.4637,1,,,,,,,,,,,,,,m,1,0.4637,,,,,,,,-0.18255341,0.489023681,0,0,0,,0,127,127,55,1,ALLEY,LB,old,m,./images/ALLEYLB.png,,,,,,,,,,,,,,,,,,,,,,,,,,,,,,,,,,,,
,,,,,,,,,,,,,,,,,60fdd69df07af0302d9ce2de,21,2022-02-12_13h57.26.361,lexical_decision_task_DD_L5,2021.2.3,Win32,59.81934558,,,,,,,,,,,0.5746,1,,,,,,,,,,,,,,z,1,0.5746,,,,,,,,-0.18255341,0.489023681,0,0,0,,0,128,128,138,1,PLICE,C,old,z,./images/PLICE.png,,,,,,,,,,,,,,,,,,,,,,,,,,,,,,,,,,,,
,,,,,,,,,,,,,,,,,60fdd69df07af0302d9ce2de,21,2022-02-12_13h57.26.361,lexical_decision_task_DD_L5,2021.2.3,Win32,59.81934558,,,,,,,,,,,0.4836,1,,,,,,,,,,,,,,m,1,0.4836,,,,,,,,-0.18255341,0.489023681,0,0,0,,0,129,129,34,1,RAZOR,LB,old,m,./images/RAZORLB.png,,,,,,,,,,,,,,,,,,,,,,,,,,,,,,,,,,,,
,,,,,,,,,,,,,,,,,60fdd69df07af0302d9ce2de,21,2022-02-12_13h57.26.361,lexical_decision_task_DD_L5,2021.2.3,Win32,59.81934558,,,,,,,,,,,0.442,1,,,,,,,,,,,,,,m,1,0.442,,,,,,,,-0.18255341,0.489023681,0,0,0,,0,130,130,40,1,SNAKE,LB,old,m,./images/SNAKELB.png,,,,,,,,,,,,,,,,,,,,,,,,,,,,,,,,,,,,
,,,,,,,,,,,,,,,,,60fdd69df07af0302d9ce2de,21,2022-02-12_13h57.26.361,lexical_decision_task_DD_L5,2021.2.3,Win32,59.81934558,,,,,,,,,,,0.5744,1,,,,,,,,,,,,,,z,1,0.5744,,,,,,,,-0.18255341,0.489023681,0,0,0,,0,131,131,155,1,CANGY,LB,old,z,./images/CANGYLB.png,,,,,,,,,,,,,,,,,,,,,,,,,,,,,,,,,,,,
,,,,,,,,,,,,,,,,,60fdd69df07af0302d9ce2de,21,2022-02-12_13h57.26.361,lexical_decision_task_DD_L5,2021.2.3,Win32,59.81934558,,,,,,,,,,,0.5615,1,,,,,,,,,,,,,,z,1,0.5615,,,,,,,,-0.18255341,0.489023681,0,0,0,,0,132,132,144,1,NAIRY,C,old,z,./images/NAIRY.png,,,,,,,,,,,,,,,,,,,,,,,,,,,,,,,,,,,,
,,,,,,,,,,,,,,,,,60fdd69df07af0302d9ce2de,21,2022-02-12_13h57.26.361,lexical_decision_task_DD_L5,2021.2.3,Win32,59.81934558,,,,,,,,,,,1.0775,1,,,,,,,,,,,,,,m,1,1.0775,,,,,,,,-0.18255341,0.489023681,0,0,0,,0,133,133,65,1,SPINE,C,old,m,./images/SPINE.png,,,,,,,,,,,,,,,,,,,,,,,,,,,,,,,,,,,,
,,,,,,,,,,,,,,,,,60fdd69df07af0302d9ce2de,21,2022-02-12_13h57.26.361,lexical_decision_task_DD_L5,2021.2.3,Win32,59.81934558,,,,,,,,,,,0.6841,1,,,,,,,,,,,,,,z,1,0.6841,,,,,,,,-0.18255341,0.489023681,0,0,0,,0,134,134,92,1,PAIMS,LB,old,z,./images/PAIMSLB.png,,,,,,,,,,,,,,,,,,,,,,,,,,,,,,,,,,,,
,,,,,,,,,,,,,,,,,60fdd69df07af0302d9ce2de,21,2022-02-12_13h57.26.361,lexical_decision_task_DD_L5,2021.2.3,Win32,59.81934558,,,,,,,,,,,0.7204,1,,,,,,,,,,,,,,z,1,0.7204,,,,,,,,-0.18255341,0.489023681,0,0,0,,0,135,135,103,1,FLORT,HB,old,z,./images/FLORTHB.png,,,,,,,,,,,,,,,,,,,,,,,,,,,,,,,,,,,,
,,,,,,,,,,,,,,,,,60fdd69df07af0302d9ce2de,21,2022-02-12_13h57.26.361,lexical_decision_task_DD_L5,2021.2.3,Win32,59.81934558,,,,,,,,,,,0.5352,1,,,,,,,,,,,,,,m,1,0.5352,,,,,,,,-0.18255341,0.489023681,0,0,0,,0,136,136,71,1,BUBBLE,C,old,m,./images/BUBBLE.png,,,,,,,,,,,,,,,,,,,,,,,,,,,,,,,,,,,,
,,,,,,,,,,,,,,,,,60fdd69df07af0302d9ce2de,21,2022-02-12_13h57.26.361,lexical_decision_task_DD_L5,2021.2.3,Win32,59.81934558,,,,,,,,,,,0.7952,0,,,,,,,,,,,,,,m,0,0.7952,,,,,,,,-0.18255341,0.489023681,0,0,0,,0,137,137,142,1,PLASK,HB,old,z,./images/PLASKHB.png,,,,,,,,,,,,,,,,,,,,,,,,,,,,,,,,,,,,
,,,,,,,,,,,,,,,,,60fdd69df07af0302d9ce2de,21,2022-02-12_13h57.26.361,lexical_decision_task_DD_L5,2021.2.3,Win32,59.81934558,,,,,,,,,,,0.6232,1,,,,,,,,,,,,,,m,1,0.6232,,,,,,,,-0.18255341,0.489023681,0,0,0,,0,138,138,39,1,CANDY,HB,old,m,./images/CANDYHB.png,,,,,,,,,,,,,,,,,,,,,,,,,,,,,,,,,,,,
,,,,,,,,,,,,,,,,,60fdd69df07af0302d9ce2de,21,2022-02-12_13h57.26.361,lexical_decision_task_DD_L5,2021.2.3,Win32,59.81934558,,,,,,,,,,,0.6753,1,,,,,,,,,,,,,,z,1,0.6753,,,,,,,,-0.18255341,0.489023681,0,0,0,,0,139,139,159,1,CUDDY,C,old,z,./images/CUDDY.png,,,,,,,,,,,,,,,,,,,,,,,,,,,,,,,,,,,,
,,,,,,,,,,,,,,,,,60fdd69df07af0302d9ce2de,21,2022-02-12_13h57.26.361,lexical_decision_task_DD_L5,2021.2.3,Win32,59.81934558,,,,,,,,,,,0.5523,1,,,,,,,,,,,,,,m,1,0.5523,,,,,,,,-0.18255341,0.489023681,0,0,0,,0,140,140,67,1,POKER,LB,old,m,./images/POKERLB.png,,,,,,,,,,,,,,,,,,,,,,,,,,,,,,,,,,,,
,,,,,,,,,,,,,,,,,60fdd69df07af0302d9ce2de,21,2022-02-12_13h57.26.361,lexical_decision_task_DD_L5,2021.2.3,Win32,59.81934558,,,,,,,,,,,1.1767,1,,,,,,,,,,,,,,m,1,1.1767,,,,,,,,-0.18255341,0.489023681,0,0,0,,0,141,141,60,1,CURRY,HB,old,m,./images/CURRYHB.png,,,,,,,,,,,,,,,,,,,,,,,,,,,,,,,,,,,,
,,,,,,,,,,,,,,,,,60fdd69df07af0302d9ce2de,21,2022-02-12_13h57.26.361,lexical_decision_task_DD_L5,2021.2.3,Win32,59.81934558,,,,,,,,,,,0.7278,1,,,,,,,,,,,,,,z,1,0.7278,,,,,,,,-0.18255341,0.489023681,0,0,0,,0,142,142,84,1,HAXES,C,old,z,./images/HAXES.png,,,,,,,,,,,,,,,,,,,,,,,,,,,,,,,,,,,,
,,,,,,,,,,,,,,,,,60fdd69df07af0302d9ce2de,21,2022-02-12_13h57.26.361,lexical_decision_task_DD_L5,2021.2.3,Win32,59.81934558,,,,,,,,,,,0.5676,1,,,,,,,,,,,,,,m,1,0.5676,,,,,,,,-0.18255341,0.489023681,0,0,0,,0,143,143,25,1,CHALK,LB,old,m,./images/CHALKLB.png,,,,,,,,,,,,,,,,,,,,,,,,,,,,,,,,,,,,
,,,,,,,,,,,,,,,,,60fdd69df07af0302d9ce2de,21,2022-02-12_13h57.26.361,lexical_decision_task_DD_L5,2021.2.3,Win32,59.81934558,,,,,,,,,,,1.2756,1,,,,,,,,,,,,,,z,1,1.2756,,,,,,,,-0.18255341,0.489023681,0,0,0,,0,144,144,139,1,BLEAR,HB,old,z,./images/BLEARHB.png,,,,,,,,,,,,,,,,,,,,,,,,,,,,,,,,,,,,
,,,,,,,,,,,,,,,,,60fdd69df07af0302d9ce2de,21,2022-02-12_13h57.26.361,lexical_decision_task_DD_L5,2021.2.3,Win32,59.81934558,,,,,,,,,,,0.5512,1,,,,,,,,,,,,,,m,1,0.5512,,,,,,,,-0.18255341,0.489023681,0,0,0,,0,145,145,73,1,GLOVE,LB,old,m,./images/GLOVELB.png,,,,,,,,,,,,,,,,,,,,,,,,,,,,,,,,,,,,
,,,,,,,,,,,,,,,,,60fdd69df07af0302d9ce2de,21,2022-02-12_13h57.26.361,lexical_decision_task_DD_L5,2021.2.3,Win32,59.81934558,,,,,,,,,,,0.5064,1,,,,,,,,,,,,,,m,1,0.5064,,,,,,,,-0.18255341,0.489023681,0,0,0,,0,146,146,44,1,BASKET,C,old,m,./images/BASKET.png,,,,,,,,,,,,,,,,,,,,,,,,,,,,,,,,,,,,
,,,,,,,,,,,,,,,,,60fdd69df07af0302d9ce2de,21,2022-02-12_13h57.26.361,lexical_decision_task_DD_L5,2021.2.3,Win32,59.81934558,,,,,,,,,,,0.547,1,,,,,,,,,,,,,,z,1,0.547,,,,,,,,-0.18255341,0.489023681,0,0,0,,0,147,147,93,1,SMONE,C,old,z,./images/SMONE.png,,,,,,,,,,,,,,,,,,,,,,,,,,,,,,,,,,,,
,,,,,,,,,,,,,,,,,60fdd69df07af0302d9ce2de,21,2022-02-12_13h57.26.361,lexical_decision_task_DD_L5,2021.2.3,Win32,59.81934558,,,,,,,,,,,0.6539,1,,,,,,,,,,,,,,z,1,0.6539,,,,,,,,-0.18255341,0.489023681,0,0,0,,0,148,148,125,1,MOOKY,LB,old,z,./images/MOOKYLB.png,,,,,,,,,,,,,,,,,,,,,,,,,,,,,,,,,,,,
,,,,,,,,,,,,,,,,,60fdd69df07af0302d9ce2de,21,2022-02-12_13h57.26.361,lexical_decision_task_DD_L5,2021.2.3,Win32,59.81934558,,,,,,,,,,,0.7833,1,,,,,,,,,,,,,,m,1,0.7833,,,,,,,,-0.18255341,0.489023681,0,0,0,,0,149,149,63,1,BAKER,HB,old,m,./images/BAKERHB.png,,,,,,,,,,,,,,,,,,,,,,,,,,,,,,,,,,,,
,,,,,,,,,,,,,,,,,60fdd69df07af0302d9ce2de,21,2022-02-12_13h57.26.361,lexical_decision_task_DD_L5,2021.2.3,Win32,59.81934558,,,,,,,,,,,0.5504,1,,,,,,,,,,,,,,z,1,0.5504,,,,,,,,-0.18255341,0.489023681,0,0,0,,0,150,150,87,1,TRING,C,old,z,./images/TRING.png,,,,,,,,,,,,,,,,,,,,,,,,,,,,,,,,,,,,
,,,,,,,,,,,,,,,,,60fdd69df07af0302d9ce2de,21,2022-02-12_13h57.26.361,lexical_decision_task_DD_L5,2021.2.3,Win32,59.81934558,,,,,,,,,,,0.5275,1,,,,,,,,,,,,,,z,1,0.5275,,,,,,,,-0.18255341,0.489023681,0,0,0,,0,151,151,158,1,EGECT,LB,old,z,./images/EGECTLB.png,,,,,,,,,,,,,,,,,,,,,,,,,,,,,,,,,,,,
,,,,,,,,,,,,,,,,,60fdd69df07af0302d9ce2de,21,2022-02-12_13h57.26.361,lexical_decision_task_DD_L5,2021.2.3,Win32,59.81934558,,,,,,,,,,,0.6686,1,,,,,,,,,,,,,,m,1,0.6686,,,,,,,,-0.18255341,0.489023681,0,0,0,,0,152,152,79,1,RULER,LB,old,m,./images/RULERLB.png,,,,,,,,,,,,,,,,,,,,,,,,,,,,,,,,,,,,
,,,,,,,,,,,,,,,,,60fdd69df07af0302d9ce2de,21,2022-02-12_13h57.26.361,lexical_decision_task_DD_L5,2021.2.3,Win32,59.81934558,,,,,,,,,,,0.4598,1,,,,,,,,,,,,,,m,1,0.4598,,,,,,,,-0.18255341,0.489023681,0,0,0,,0,153,153,77,1,WHEEL,C,old,m,./images/WHEEL.png,,,,,,,,,,,,,,,,,,,,,,,,,,,,,,,,,,,,
,,,,,,,,,,,,,,,,,60fdd69df07af0302d9ce2de,21,2022-02-12_13h57.26.361,lexical_decision_task_DD_L5,2021.2.3,Win32,59.81934558,,,,,,,,,,,0.6389,1,,,,,,,,,,,,,,z,1,0.6389,,,,,,,,-0.18255341,0.489023681,0,0,0,,0,154,154,124,1,TUNCH,HB,old,z,./images/TUNCHHB.png,,,,,,,,,,,,,,,,,,,,,,,,,,,,,,,,,,,,
,,,,,,,,,,,,,,,,,60fdd69df07af0302d9ce2de,21,2022-02-12_13h57.26.361,lexical_decision_task_DD_L5,2021.2.3,Win32,59.81934558,,,,,,,,,,,0.6248,1,,,,,,,,,,,,,,m,1,0.6248,,,,,,,,-0.18255341,0.489023681,0,0,0,,0,155,155,18,1,PARCEL,HB,old,m,./images/PARCELHB.png,,,,,,,,,,,,,,,,,,,,,,,,,,,,,,,,,,,,
,,,,,,,,,,,,,,,,,60fdd69df07af0302d9ce2de,21,2022-02-12_13h57.26.361,lexical_decision_task_DD_L5,2021.2.3,Win32,59.81934558,,,,,,,,,,,0.5607,1,,,,,,,,,,,,,,z,1,0.5607,,,,,,,,-0.18255341,0.489023681,0,0,0,,0,156,156,94,1,BLANS,HB,old,z,./images/BLANSHB.png,,,,,,,,,,,,,,,,,,,,,,,,,,,,,,,,,,,,
,,,,,,,,,,,,,,,,,60fdd69df07af0302d9ce2de,21,2022-02-12_13h57.26.361,lexical_decision_task_DD_L5,2021.2.3,Win32,59.81934558,,,,,,,,,,,0.5507,1,,,,,,,,,,,,,,m,1,0.5507,,,,,,,,-0.18255341,0.489023681,0,0,0,,0,157,157,51,1,SAUCE,HB,old,m,./images/SAUCEHB.png,,,,,,,,,,,,,,,,,,,,,,,,,,,,,,,,,,,,
,,,,,,,,,,,,,,,,,60fdd69df07af0302d9ce2de,21,2022-02-12_13h57.26.361,lexical_decision_task_DD_L5,2021.2.3,Win32,59.81934558,,,,,,,,,,,0.8855,1,,,,,,,,,,,,,,m,1,0.8855,,,,,,,,-0.18255341,0.489023681,0,0,0,,0,158,158,31,1,STEAK,LB,old,m,./images/STEAKLB.png,,,,,,,,,,,,,,,,,,,,,,,,,,,,,,,,,,,,
,,,,,,,,,,,,,,,,,60fdd69df07af0302d9ce2de,21,2022-02-12_13h57.26.361,lexical_decision_task_DD_L5,2021.2.3,Win32,59.81934558,,,,,,,,,,,1.1123,1,,,,,,,,,,,,,,z,1,1.1123,,,,,,,,-0.18255341,0.489023681,0,0,0,,0,159,159,111,1,HOSSE,C,old,z,./images/HOSSE.png,,,,,,,,,,,,,,,,,,,,,,,,,,,,,,,,,,,,
,,,,,,,,,,,,,,,,,60fdd69df07af0302d9ce2de,21,2022-02-12_13h57.26.361,lexical_decision_task_DD_L5,2021.2.3,Win32,59.81934558,,,,,,,,,,,0.487,1,,,,,,,,,,,,,,m,1,0.487,,,,,,,,-0.18255341,0.489023681,0,0,0,,0,160,160,76,1,MIDGET,LB,old,m,./images/MIDGETLB.png,,,,,,,,,,,,,,,,,,,,,,,,,,,,,,,,,,,,
,,,,,,,,,,,,,,,,,60fdd69df07af0302d9ce2de,21,2022-02-12_13h57.26.361,lexical_decision_task_DD_L5,2021.2.3,Win32,59.81934558,,,,,,,,,,,1.0184,1,,,,,,,,,,,,,,m,1,1.0184,,,,,,,,-0.18255341,0.489023681,0,0,0,,0,161,161,21,1,DANCER,HB,old,m,./images/DANCERHB.png,,,,,,,,,,,,,,,,,,,,,,,,,,,,,,,,,,,,
,,,,,,,,,,,,,,,,,60fdd69df07af0302d9ce2de,21,2022-02-12_13h57.26.361,lexical_decision_task_DD_L5,2021.2.3,Win32,59.81934558,,,,,,,,,,,0.6129,1,,,,,,,,,,,,,,z,1,0.6129,,,,,,,,-0.18255341,0.489023681,0,0,0,,0,162,162,140,1,DOVET,LB,old,z,./images/DOVETLB.png,,,,,,,,,,,,,,,,,,,,,,,,,,,,,,,,,,,,
,,,,,,,,,,,,,,,,,60fdd69df07af0302d9ce2de,21,2022-02-12_13h57.26.361,lexical_decision_task_DD_L5,2021.2.3,Win32,59.81934558,,,,,,,,,,,0.5169,1,,,,,,,,,,,,,,m,1,0.5169,,,,,,,,-0.18255341,0.489023681,0,0,0,,0,163,163,66,1,STATUE,HB,old,m,./images/STATUEHB.png,,,,,,,,,,,,,,,,,,,,,,,,,,,,,,,,,,,,
,,,,,,,,,,,,,,,,,60fdd69df07af0302d9ce2de,21,2022-02-12_13h57.26.361,lexical_decision_task_DD_L5,2021.2.3,Win32,59.81934558,,,,,,,,,,,0.5351,1,,,,,,,,,,,,,,m,1,0.5351,,,,,,,,-0.18255341,0.489023681,0,0,0,,0,164,164,52,1,DESERT,LB,old,m,./images/DESERTLB.png,,,,,,,,,,,,,,,,,,,,,,,,,,,,,,,,,,,,
,,,,,,,,,,,,,,,,,60fdd69df07af0302d9ce2de,21,2022-02-12_13h57.26.361,lexical_decision_task_DD_L5,2021.2.3,Win32,59.81934558,,,,,,,,,,,0.5083,1,,,,,,,,,,,,,,z,1,0.5083,,,,,,,,-0.18255341,0.489023681,0,0,0,,0,165,165,120,1,RINED,C,old,z,./images/RINED.png,,,,,,,,,,,,,,,,,,,,,,,,,,,,,,,,,,,,
,,,,,,,,,,,,,,,,,60fdd69df07af0302d9ce2de,21,2022-02-12_13h57.26.361,lexical_decision_task_DD_L5,2021.2.3,Win32,59.81934558,,,,,,,,,,,0.575,1,,,,,,,,,,,,,,m,1,0.575,,,,,,,,-0.18255341,0.489023681,0,0,0,,0,166,166,48,1,SHIELD,HB,old,m,./images/SHIELDHB.png,,,,,,,,,,,,,,,,,,,,,,,,,,,,,,,,,,,,
,,,,,,,,,,,,,,,,,60fdd69df07af0302d9ce2de,21,2022-02-12_13h57.26.361,lexical_decision_task_DD_L5,2021.2.3,Win32,59.81934558,,,,,,,,,,,0.5211,1,,,,,,,,,,,,,,z,1,0.5211,,,,,,,,-0.18255341,0.489023681,0,0,0,,0,167,167,95,1,HANTY,LB,old,z,./images/HANTYLB.png,,,,,,,,,,,,,,,,,,,,,,,,,,,,,,,,,,,,
,,,,,,,,,,,,,,,,,60fdd69df07af0302d9ce2de,21,2022-02-12_13h57.26.361,lexical_decision_task_DD_L5,2021.2.3,Win32,59.81934558,,,,,,,,,,,,,,,,,,,,,,,,,,,,,,,,,,,,,,,,,,,,,,,,How likely will it be that you will recognize the words presented slighly blurred on a scale of 0 (not likely) to 100 (most likely)?,,,,,,-0.009243179,-0.405257174,1,0,0,jol_adv,5,9.3591,0,0,0,1,1,,,,,,,,,,,,,,,,,,,,,
,,,,,,,,,,,,,,,,,60fdd69df07af0302d9ce2de,21,2022-02-12_13h57.26.361,lexical_decision_task_DD_L5,2021.2.3,Win32,59.81934558,,,,,,,,,,,,,,,,,,,,,,,,,,,,,,,,,,,,,,,,,,,,,,,,How likely will it be that you will recognize the words presented clearly on a scale of 0 (not likely) to 100 (most likely)?,,,,,,,,,,,,5,11.583,0,1,1,0,1,,,,,,,,,,,,,,,,,,,,,
,,,,,,,,,,,,,,,,,60fdd69df07af0302d9ce2de,21,2022-02-12_13h57.26.361,lexical_decision_task_DD_L5,2021.2.3,Win32,59.81934558,,,,,,,,,,,,,,,,,,,,,,,,,,,,,,,,,,,,,,,,,,,,,,,,How likely will it be that you will recognize the words presented very blurred on a scale of 0 (not likely) to 100 (most likely)?,,,,,,,,,,,,4,4.6825,0,2,2,2,1,,,,,,,,,,,,,,,,,,,,,
space,0.07279033,-0.394858561,0,0,0,,,,,,,1,test,"In the next phase you will be presented with the words from the the first phase. Your job is to decide whether you remember seeing the word or not. If you remember seeing the word press ""old"" or type ""m"". If you do not remember seeing the word press ""new"" or type ""z"". Please press the space bar or click on continue to begin. ",,,60fdd69df07af0302d9ce2de,21,2022-02-12_13h57.26.361,lexical_decision_task_DD_L5,2021.2.3,Win32,59.81934558,,,,,,,,,,,,,,,,,,,,,,,,,,,,,,,,,,,,,,,,,,,,,,,,,,,,,,,,,,,,,,,,,,,26.8882,0,0,0,0,1,,,,,,,,,,,,,,,
,0.046216095,-0.392547687,1,0,0,instr_done_button,,,,,,1,test,"In the next phase you will be presented with the words from the the first phase. Your job is to decide whether you remember seeing the word or not. If you remember seeing the word press ""old"" or type ""m"". If you do not remember seeing the word press ""new"" or type ""z"". Please press the space bar or click on continue to begin. ",,,60fdd69df07af0302d9ce2de,21,2022-02-12_13h57.26.361,lexical_decision_task_DD_L5,2021.2.3,Win32,59.81934558,,,,,,,,,,,,,,,,,,,,,,,,,,,,,,,,,,,,,,,,,,,,,,,,,,,,,,,,,,,,,,,,,,,,1,0,1,0,1,,,,,,,,,,,,,,,
space,0.04274989,-0.384459947,0,0,0,,,,,,,1,test,"In the next phase you will be presented with the words from the the first phase. Your job is to decide whether you remember seeing the word or not. If you remember seeing the word press ""old"" or type ""m"". If you do not remember seeing the word press ""new"" or type ""z"". Please press the space bar or click on continue to begin. ",,,60fdd69df07af0302d9ce2de,21,2022-02-12_13h57.26.361,lexical_decision_task_DD_L5,2021.2.3,Win32,59.81934558,,,,,,,,,,,,,,,,,,,,,,,,,,,,,,,,,,,,,,,,,,,,,,,,,,,,,,,,,,,,,,,,,,,2.3011,2,0,2,0,1,,,,,,,,,,,,,,,
,0.04274989,-0.384459947,1,0,0,instr_done_button,,,,,,1,test,"In the next phase you will be presented with the words from the the first phase. Your job is to decide whether you remember seeing the word or not. If you remember seeing the word press ""old"" or type ""m"". If you do not remember seeing the word press ""new"" or type ""z"". Please press the space bar or click on continue to begin. ",,,60fdd69df07af0302d9ce2de,21,2022-02-12_13h57.26.361,lexical_decision_task_DD_L5,2021.2.3,Win32,59.81934558,,,,,,,,,,,,,,,,,,,,,,,,,,,,,,,,,,,,,,,,,,,,,,,,,,,,,,,,,,,,,,,,,,,,3,0,3,0,1,,,,,,,,,,,,,,,
,0.06470259,-0.376372065,1,0,0,instr_done_button,,,,,,1,test,"In the next phase you will be presented with the words from the the first phase. Your job is to decide whether you remember seeing the word or not. If you remember seeing the word press ""old"" or type ""m"". If you do not remember seeing the word press ""new"" or type ""z"". Please press the space bar or click on continue to begin. ",,,60fdd69df07af0302d9ce2de,21,2022-02-12_13h57.26.361,lexical_decision_task_DD_L5,2021.2.3,Win32,59.81934558,,,,,,,,,,,,,,,,,,,,,,,,,,,,,,,,,,,,,,,,,,,,,,,,,,,,,,,,,,,,,,,,,,,,4,0,4,0,1,,,,,,,,,,,,,,,
,,,,,,,,,,,,,,,,,60fdd69df07af0302d9ce2de,21,2022-02-12_13h57.26.361,lexical_decision_task_DD_L5,2021.2.3,Win32,59.81934558,,,,,,,,,,,2.5924,0,,,,,,,,,,,,,,,,,,,,,,,,0.06470259,-0.376372065,0,0,0,,,,,,,STEAK,LB,m,y,./images/STEAKLB.png,,,,,,,,,,,,,,,,,,,,,,z,0,2.5924,,,,,,,,0,0,0,31,1
,,,,,,,,,,,,,,,,,60fdd69df07af0302d9ce2de,21,2022-02-12_13h57.26.361,lexical_decision_task_DD_L5,2021.2.3,Win32,59.81934558,,,,,,,,,,,1.3175,1,,,,,,,,,,,,,,,,,,,,,,,,0.06470259,-0.376372065,0,0,0,,,,,,,STRING,C,z,y,./images/STRING.png,,,,,,,,,,,,,,,,,,,,,,z,1,1.3175,,,,,,,,0,1,1,125,1
,,,,,,,,,,,,,,,,,60fdd69df07af0302d9ce2de,21,2022-02-12_13h57.26.361,lexical_decision_task_DD_L5,2021.2.3,Win32,59.81934558,,,,,,,,,,,0.9346,1,,,,,,,,,,,,,,,,,,,,,,,,0.06470259,-0.376372065,0,0,0,,,,,,,CHERRY,HB,m,y,./images/CHERRYHB.png,,,,,,,,,,,,,,,,,,,,,,m,1,0.9346,,,,,,,,0,2,2,54,1
,,,,,,,,,,,,,,,,,60fdd69df07af0302d9ce2de,21,2022-02-12_13h57.26.361,lexical_decision_task_DD_L5,2021.2.3,Win32,59.81934558,,,,,,,,,,,1.3767,1,,,,,,,,,,,,,,,,,,,,,,,,0.06470259,-0.376372065,0,0,0,,,,,,,LLAMA,C,m,y,./images/LLAMA.png,,,,,,,,,,,,,,,,,,,,,,m,1,1.3767,,,,,,,,0,3,3,35,1
,,,,,,,,,,,,,,,,,60fdd69df07af0302d9ce2de,21,2022-02-12_13h57.26.361,lexical_decision_task_DD_L5,2021.2.3,Win32,59.81934558,,,,,,,,,,,0.6598,1,,,,,,,,,,,,,,,,,,,,,,,,0.06470259,-0.376372065,0,0,0,,,,,,,CHALK,LB,m,y,./images/CHALKLB.png,,,,,,,,,,,,,,,,,,,,,,m,1,0.6598,,,,,,,,0,4,4,25,1
,,,,,,,,,,,,,,,,,60fdd69df07af0302d9ce2de,21,2022-02-12_13h57.26.361,lexical_decision_task_DD_L5,2021.2.3,Win32,59.81934558,,,,,,,,,,,0.8614,1,,,,,,,,,,,,,,,,,,,,,,,,0.06470259,-0.376372065,0,0,0,,,,,,,MUFFIN,LB,z,y,./images/MUFFINLB.png,,,,,,,,,,,,,,,,,,,,,,z,1,0.8614,,,,,,,,0,5,5,139,1
,,,,,,,,,,,,,,,,,60fdd69df07af0302d9ce2de,21,2022-02-12_13h57.26.361,lexical_decision_task_DD_L5,2021.2.3,Win32,59.81934558,,,,,,,,,,,0.5934,1,,,,,,,,,,,,,,,,,,,,,,,,0.06470259,-0.376372065,0,0,0,,,,,,,MIRROR,HB,z,y,./images/MIRRORHB.png,,,,,,,,,,,,,,,,,,,,,,z,1,0.5934,,,,,,,,0,6,6,147,1
,,,,,,,,,,,,,,,,,60fdd69df07af0302d9ce2de,21,2022-02-12_13h57.26.361,lexical_decision_task_DD_L5,2021.2.3,Win32,59.81934558,,,,,,,,,,,0.7267,1,,,,,,,,,,,,,,,,,,,,,,,,0.06470259,-0.376372065,0,0,0,,,,,,,BRIDE,LB,m,y,./images/BRIDELB.png,,,,,,,,,,,,,,,,,,,,,,m,1,0.7267,,,,,,,,0,7,7,64,1
,,,,,,,,,,,,,,,,,60fdd69df07af0302d9ce2de,21,2022-02-12_13h57.26.361,lexical_decision_task_DD_L5,2021.2.3,Win32,59.81934558,,,,,,,,,,,0.6175,0,,,,,,,,,,,,,,,,,,,,,,,,0.06470259,-0.376372065,0,0,0,,,,,,,PEBBLE,LB,m,y,./images/PEBBLELB.png,,,,,,,,,,,,,,,,,,,,,,z,0,0.6175,,,,,,,,0,8,8,82,1
,,,,,,,,,,,,,,,,,60fdd69df07af0302d9ce2de,21,2022-02-12_13h57.26.361,lexical_decision_task_DD_L5,2021.2.3,Win32,59.81934558,,,,,,,,,,,0.6513,1,,,,,,,,,,,,,,,,,,,,,,,,0.06470259,-0.376372065,0,0,0,,,,,,,WRIST,LB,z,y,./images/WRISTLB.png,,,,,,,,,,,,,,,,,,,,,,z,1,0.6513,,,,,,,,0,9,9,109,1
,,,,,,,,,,,,,,,,,60fdd69df07af0302d9ce2de,21,2022-02-12_13h57.26.361,lexical_decision_task_DD_L5,2021.2.3,Win32,59.81934558,,,,,,,,,,,1.9569,0,,,,,,,,,,,,,,,,,,,,,,,,0.06470259,-0.376372065,0,0,0,,,,,,,BABOON,LB,z,y,./images/BABOONLB.png,,,,,,,,,,,,,,,,,,,,,,m,0,1.9569,,,,,,,,0,10,10,142,1
,,,,,,,,,,,,,,,,,60fdd69df07af0302d9ce2de,21,2022-02-12_13h57.26.361,lexical_decision_task_DD_L5,2021.2.3,Win32,59.81934558,,,,,,,,,,,1.0323,1,,,,,,,,,,,,,,,,,,,,,,,,0.06470259,-0.376372065,0,0,0,,,,,,,CHAIN,HB,m,y,./images/CHAINHB.png,,,,,,,,,,,,,,,,,,,,,,m,1,1.0323,,,,,,,,0,11,11,42,1
,,,,,,,,,,,,,,,,,60fdd69df07af0302d9ce2de,21,2022-02-12_13h57.26.361,lexical_decision_task_DD_L5,2021.2.3,Win32,59.81934558,,,,,,,,,,,3.8513,1,,,,,,,,,,,,,,,,,,,,,,,,0.06470259,-0.376372065,0,0,0,,,,,,,KIDNEY,HB,z,y,./images/KIDNEYHB.png,,,,,,,,,,,,,,,,,,,,,,z,1,3.8513,,,,,,,,0,12,12,105,1
,,,,,,,,,,,,,,,,,60fdd69df07af0302d9ce2de,21,2022-02-12_13h57.26.361,lexical_decision_task_DD_L5,2021.2.3,Win32,59.81934558,,,,,,,,,,,2.7942,1,,,,,,,,,,,,,,,,,,,,,,,,0.06470259,-0.376372065,0,0,0,,,,,,,GARDEN,LB,m,y,./images/GARDENLB.png,,,,,,,,,,,,,,,,,,,,,,m,1,2.7942,,,,,,,,0,13,13,10,1
,,,,,,,,,,,,,,,,,60fdd69df07af0302d9ce2de,21,2022-02-12_13h57.26.361,lexical_decision_task_DD_L5,2021.2.3,Win32,59.81934558,,,,,,,,,,,2.7545,1,,,,,,,,,,,,,,,,,,,,,,,,0.06470259,-0.376372065,0,0,0,,,,,,,CLOWN,LB,m,y,./images/CLOWNLB.png,,,,,,,,,,,,,,,,,,,,,,m,1,2.7545,,,,,,,,0,14,14,22,1
,,,,,,,,,,,,,,,,,60fdd69df07af0302d9ce2de,21,2022-02-12_13h57.26.361,lexical_decision_task_DD_L5,2021.2.3,Win32,59.81934558,,,,,,,,,,,0.8207,1,,,,,,,,,,,,,,,,,,,,,,,,0.06470259,-0.376372065,0,0,0,,,,,,,TULIP,C,z,y,./images/TULIP.png,,,,,,,,,,,,,,,,,,,,,,z,1,0.8207,,,,,,,,0,15,15,92,1
,,,,,,,,,,,,,,,,,60fdd69df07af0302d9ce2de,21,2022-02-12_13h57.26.361,lexical_decision_task_DD_L5,2021.2.3,Win32,59.81934558,,,,,,,,,,,1.9551,1,,,,,,,,,,,,,,,,,,,,,,,,0.06470259,-0.376372065,0,0,0,,,,,,,GRAPE,LB,m,y,./images/GRAPELB.png,,,,,,,,,,,,,,,,,,,,,,m,1,1.9551,,,,,,,,0,16,16,16,1
,,,,,,,,,,,,,,,,,60fdd69df07af0302d9ce2de,21,2022-02-12_13h57.26.361,lexical_decision_task_DD_L5,2021.2.3,Win32,59.81934558,,,,,,,,,,,0.9859,1,,,,,,,,,,,,,,,,,,,,,,,,0.06470259,-0.376372065,0,0,0,,,,,,,ENGINE,C,m,y,./images/ENGINE.png,,,,,,,,,,,,,,,,,,,,,,m,1,0.9859,,,,,,,,0,17,17,38,1
,,,,,,,,,,,,,,,,,60fdd69df07af0302d9ce2de,21,2022-02-12_13h57.26.361,lexical_decision_task_DD_L5,2021.2.3,Win32,59.81934558,,,,,,,,,,,0.781,0,,,,,,,,,,,,,,,,,,,,,,,,0.06470259,-0.376372065,0,0,0,,,,,,,PURSE,C,z,y,./images/PURSE.png,,,,,,,,,,,,,,,,,,,,,,m,0,0.781,,,,,,,,0,18,18,146,1
,,,,,,,,,,,,,,,,,60fdd69df07af0302d9ce2de,21,2022-02-12_13h57.26.361,lexical_decision_task_DD_L5,2021.2.3,Win32,59.81934558,,,,,,,,,,,0.9341,1,,,,,,,,,,,,,,,,,,,,,,,,0.06470259,-0.376372065,0,0,0,,,,,,,WAGON,LB,m,y,./images/WAGONLB.png,,,,,,,,,,,,,,,,,,,,,,m,1,0.9341,,,,,,,,0,19,19,7,1
,,,,,,,,,,,,,,,,,60fdd69df07af0302d9ce2de,21,2022-02-12_13h57.26.361,lexical_decision_task_DD_L5,2021.2.3,Win32,59.81934558,,,,,,,,,,,0.6295,1,,,,,,,,,,,,,,,,,,,,,,,,0.06470259,-0.376372065,0,0,0,,,,,,,PEACH,C,z,y,./images/PEACH.png,,,,,,,,,,,,,,,,,,,,,,z,1,0.6295,,,,,,,,0,20,20,119,1
,,,,,,,,,,,,,,,,,60fdd69df07af0302d9ce2de,21,2022-02-12_13h57.26.361,lexical_decision_task_DD_L5,2021.2.3,Win32,59.81934558,,,,,,,,,,,0.6627,1,,,,,,,,,,,,,,,,,,,,,,,,0.06470259,-0.376372065,0,0,0,,,,,,,CANYON,LB,z,y,./images/CANYONLB.png,,,,,,,,,,,,,,,,,,,,,,z,1,0.6627,,,,,,,,0,21,21,118,1
,,,,,,,,,,,,,,,,,60fdd69df07af0302d9ce2de,21,2022-02-12_13h57.26.361,lexical_decision_task_DD_L5,2021.2.3,Win32,59.81934558,,,,,,,,,,,0.5535,1,,,,,,,,,,,,,,,,,,,,,,,,0.06470259,-0.376372065,0,0,0,,,,,,,TRIPOD,HB,z,y,./images/TRIPODHB.png,,,,,,,,,,,,,,,,,,,,,,z,1,0.5535,,,,,,,,0,22,22,138,1
,,,,,,,,,,,,,,,,,60fdd69df07af0302d9ce2de,21,2022-02-12_13h57.26.361,lexical_decision_task_DD_L5,2021.2.3,Win32,59.81934558,,,,,,,,,,,0.9473,1,,,,,,,,,,,,,,,,,,,,,,,,0.06470259,-0.376372065,0,0,0,,,,,,,FENCE,C,m,y,./images/FENCE.png,,,,,,,,,,,,,,,,,,,,,,m,1,0.9473,,,,,,,,0,23,23,14,1
,,,,,,,,,,,,,,,,,60fdd69df07af0302d9ce2de,21,2022-02-12_13h57.26.361,lexical_decision_task_DD_L5,2021.2.3,Win32,59.81934558,,,,,,,,,,,2.7836,1,,,,,,,,,,,,,,,,,,,,,,,,0.06470259,-0.376372065,0,0,0,,,,,,,MONKEY,HB,m,y,./images/MONKEYHB.png,,,,,,,,,,,,,,,,,,,,,,m,1,2.7836,,,,,,,,0,24,24,45,1
,,,,,,,,,,,,,,,,,60fdd69df07af0302d9ce2de,21,2022-02-12_13h57.26.361,lexical_decision_task_DD_L5,2021.2.3,Win32,59.81934558,,,,,,,,,,,1.2218,1,,,,,,,,,,,,,,,,,,,,,,,,0.06470259,-0.376372065,0,0,0,,,,,,,FLESH,HB,m,y,./images/FLESHHB.png,,,,,,,,,,,,,,,,,,,,,,m,1,1.2218,,,,,,,,0,25,25,24,1
,,,,,,,,,,,,,,,,,60fdd69df07af0302d9ce2de,21,2022-02-12_13h57.26.361,lexical_decision_task_DD_L5,2021.2.3,Win32,59.81934558,,,,,,,,,,,0.7446,1,,,,,,,,,,,,,,,,,,,,,,,,0.06470259,-0.376372065,0,0,0,,,,,,,SWEAT,HB,z,y,./images/SWEATHB.png,,,,,,,,,,,,,,,,,,,,,,z,1,0.7446,,,,,,,,0,26,26,150,1
,,,,,,,,,,,,,,,,,60fdd69df07af0302d9ce2de,21,2022-02-12_13h57.26.361,lexical_decision_task_DD_L5,2021.2.3,Win32,59.81934558,,,,,,,,,,,1.5097,0,,,,,,,,,,,,,,,,,,,,,,,,0.06470259,-0.376372065,0,0,0,,,,,,,MUSCLE,LB,z,y,./images/MUSCLELB.png,,,,,,,,,,,,,,,,,,,,,,m,0,1.5097,,,,,,,,0,27,27,88,1
,,,,,,,,,,,,,,,,,60fdd69df07af0302d9ce2de,21,2022-02-12_13h57.26.361,lexical_decision_task_DD_L5,2021.2.3,Win32,59.81934558,,,,,,,,,,,2.5336,0,,,,,,,,,,,,,,,,,,,,,,,,0.06470259,-0.376372065,0,0,0,,,,,,,URINE,LB,z,y,./images/URINELB.png,,,,,,,,,,,,,,,,,,,,,,m,0,2.5336,,,,,,,,0,28,28,154,1
,,,,,,,,,,,,,,,,,60fdd69df07af0302d9ce2de,21,2022-02-12_13h57.26.361,lexical_decision_task_DD_L5,2021.2.3,Win32,59.81934558,,,,,,,,,,,1.5016,0,,,,,,,,,,,,,,,,,,,,,,,,0.06470259,-0.376372065,0,0,0,,,,,,,PARCEL,HB,m,y,./images/PARCELHB.png,,,,,,,,,,,,,,,,,,,,,,z,0,1.5016,,,,,,,,0,29,29,18,1
,,,,,,,,,,,,,,,,,60fdd69df07af0302d9ce2de,21,2022-02-12_13h57.26.361,lexical_decision_task_DD_L5,2021.2.3,Win32,59.81934558,,,,,,,,,,,0.6691,1,,,,,,,,,,,,,,,,,,,,,,,,0.06470259,-0.376372065,0,0,0,,,,,,,TIGER,LB,m,y,./images/TIGERLB.png,,,,,,,,,,,,,,,,,,,,,,m,1,0.6691,,,,,,,,0,30,30,37,1
,,,,,,,,,,,,,,,,,60fdd69df07af0302d9ce2de,21,2022-02-12_13h57.26.361,lexical_decision_task_DD_L5,2021.2.3,Win32,59.81934558,,,,,,,,,,,1.364,0,,,,,,,,,,,,,,,,,,,,,,,,0.06470259,-0.376372065,0,0,0,,,,,,,STOVE,C,m,y,./images/STOVE.png,,,,,,,,,,,,,,,,,,,,,,z,0,1.364,,,,,,,,0,31,31,2,1
,,,,,,,,,,,,,,,,,60fdd69df07af0302d9ce2de,21,2022-02-12_13h57.26.361,lexical_decision_task_DD_L5,2021.2.3,Win32,59.81934558,,,,,,,,,,,0.7019,1,,,,,,,,,,,,,,,,,,,,,,,,0.06470259,-0.376372065,0,0,0,,,,,,,SQUARE,HB,z,y,./images/SQUAREHB.png,,,,,,,,,,,,,,,,,,,,,,z,1,0.7019,,,,,,,,0,32,32,90,1
,,,,,,,,,,,,,,,,,60fdd69df07af0302d9ce2de,21,2022-02-12_13h57.26.361,lexical_decision_task_DD_L5,2021.2.3,Win32,59.81934558,,,,,,,,,,,1.0341,0,,,,,,,,,,,,,,,,,,,,,,,,0.06470259,-0.376372065,0,0,0,,,,,,,SWING,LB,z,y,./images/SWINGLB.png,,,,,,,,,,,,,,,,,,,,,,m,0,1.0341,,,,,,,,0,33,33,124,1
,,,,,,,,,,,,,,,,,60fdd69df07af0302d9ce2de,21,2022-02-12_13h57.26.361,lexical_decision_task_DD_L5,2021.2.3,Win32,59.81934558,,,,,,,,,,,0.8343,1,,,,,,,,,,,,,,,,,,,,,,,,0.06470259,-0.376372065,0,0,0,,,,,,,STATUE,HB,m,y,./images/STATUEHB.png,,,,,,,,,,,,,,,,,,,,,,m,1,0.8343,,,,,,,,0,34,34,66,1
,,,,,,,,,,,,,,,,,60fdd69df07af0302d9ce2de,21,2022-02-12_13h57.26.361,lexical_decision_task_DD_L5,2021.2.3,Win32,59.81934558,,,,,,,,,,,0.8458,0,,,,,,,,,,,,,,,,,,,,,,,,0.06470259,-0.376372065,0,0,0,,,,,,,DONKEY,LB,m,y,./images/DONKEYLB.png,,,,,,,,,,,,,,,,,,,,,,z,0,0.8458,,,,,,,,0,35,35,19,1
,,,,,,,,,,,,,,,,,60fdd69df07af0302d9ce2de,21,2022-02-12_13h57.26.361,lexical_decision_task_DD_L5,2021.2.3,Win32,59.81934558,,,,,,,,,,,0.7629,0,,,,,,,,,,,,,,,,,,,,,,,,0.06470259,-0.376372065,0,0,0,,,,,,,BANNER,LB,z,y,./images/BANNERLB.png,,,,,,,,,,,,,,,,,,,,,,m,0,0.7629,,,,,,,,0,36,36,136,1
,,,,,,,,,,,,,,,,,60fdd69df07af0302d9ce2de,21,2022-02-12_13h57.26.361,lexical_decision_task_DD_L5,2021.2.3,Win32,59.81934558,,,,,,,,,,,1.0293,1,,,,,,,,,,,,,,,,,,,,,,,,0.06470259,-0.376372065,0,0,0,,,,,,,FINGER,HB,z,y,./images/FINGERHB.png,,,,,,,,,,,,,,,,,,,,,,z,1,1.0293,,,,,,,,0,37,37,87,1
,,,,,,,,,,,,,,,,,60fdd69df07af0302d9ce2de,21,2022-02-12_13h57.26.361,lexical_decision_task_DD_L5,2021.2.3,Win32,59.81934558,,,,,,,,,,,0.68,1,,,,,,,,,,,,,,,,,,,,,,,,0.06470259,-0.376372065,0,0,0,,,,,,,CARPET,C,z,y,./images/CARPET.png,,,,,,,,,,,,,,,,,,,,,,z,1,0.68,,,,,,,,0,38,38,137,1
,,,,,,,,,,,,,,,,,60fdd69df07af0302d9ce2de,21,2022-02-12_13h57.26.361,lexical_decision_task_DD_L5,2021.2.3,Win32,59.81934558,,,,,,,,,,,0.6672,1,,,,,,,,,,,,,,,,,,,,,,,,0.06470259,-0.376372065,0,0,0,,,,,,,PICKLE,C,z,y,./images/PICKLE.png,,,,,,,,,,,,,,,,,,,,,,z,1,0.6672,,,,,,,,0,39,39,98,1
,,,,,,,,,,,,,,,,,60fdd69df07af0302d9ce2de,21,2022-02-12_13h57.26.361,lexical_decision_task_DD_L5,2021.2.3,Win32,59.81934558,,,,,,,,,,,0.6482,1,,,,,,,,,,,,,,,,,,,,,,,,0.06470259,-0.376372065,0,0,0,,,,,,,JELLY,LB,z,y,./images/JELLYLB.png,,,,,,,,,,,,,,,,,,,,,,z,1,0.6482,,,,,,,,0,40,40,148,1
,,,,,,,,,,,,,,,,,60fdd69df07af0302d9ce2de,21,2022-02-12_13h57.26.361,lexical_decision_task_DD_L5,2021.2.3,Win32,59.81934558,,,,,,,,,,,0.6435,1,,,,,,,,,,,,,,,,,,,,,,,,-0.119006255,-0.415655788,0,0,0,space,,,,,,SPORT,HB,z,y,./images/SPORTHB.png,,59.5938,,,,,,,,,,,,,,,,,,,,z,1,0.6435,,,,,,,,0,41,41,132,1
,,,,,,,,,,,,,,,,,60fdd69df07af0302d9ce2de,21,2022-02-12_13h57.26.361,lexical_decision_task_DD_L5,2021.2.3,Win32,59.81934558,,,,,,,,,,,1.4429,0,,,,,,,,,,,,,,,,,,,,,,,,-0.119006255,-0.415655788,0,0,0,,,,,,,QUILL,LB,z,y,./images/QUILLLB.png,,,,,,,,,,,,,,,,,,,,,,m,0,1.4429,,,,,,,,0,42,42,115,1
,,,,,,,,,,,,,,,,,60fdd69df07af0302d9ce2de,21,2022-02-12_13h57.26.361,lexical_decision_task_DD_L5,2021.2.3,Win32,59.81934558,,,,,,,,,,,1.6772,1,,,,,,,,,,,,,,,,,,,,,,,,-0.119006255,-0.415655788,0,0,0,,,,,,,JUMPER,C,m,y,./images/JUMPER.png,,,,,,,,,,,,,,,,,,,,,,m,1,1.6772,,,,,,,,0,43,43,74,1
,,,,,,,,,,,,,,,,,60fdd69df07af0302d9ce2de,21,2022-02-12_13h57.26.361,lexical_decision_task_DD_L5,2021.2.3,Win32,59.81934558,,,,,,,,,,,1.2661,1,,,,,,,,,,,,,,,,,,,,,,,,-0.119006255,-0.415655788,0,0,0,,,,,,,CANDLE,LB,z,y,./images/CANDLELB.png,,,,,,,,,,,,,,,,,,,,,,z,1,1.2661,,,,,,,,0,44,44,145,1
,,,,,,,,,,,,,,,,,60fdd69df07af0302d9ce2de,21,2022-02-12_13h57.26.361,lexical_decision_task_DD_L5,2021.2.3,Win32,59.81934558,,,,,,,,,,,0.7054,1,,,,,,,,,,,,,,,,,,,,,,,,-0.119006255,-0.415655788,0,0,0,,,,,,,FERRY,HB,m,y,./images/FERRYHB.png,,,,,,,,,,,,,,,,,,,,,,m,1,0.7054,,,,,,,,0,45,45,57,1
,,,,,,,,,,,,,,,,,60fdd69df07af0302d9ce2de,21,2022-02-12_13h57.26.361,lexical_decision_task_DD_L5,2021.2.3,Win32,59.81934558,,,,,,,,,,,1.1693,1,,,,,,,,,,,,,,,,,,,,,,,,-0.119006255,-0.415655788,0,0,0,,,,,,,STORM,HB,z,y,./images/STORMHB.png,,,,,,,,,,,,,,,,,,,,,,z,1,1.1693,,,,,,,,0,46,46,114,1
,,,,,,,,,,,,,,,,,60fdd69df07af0302d9ce2de,21,2022-02-12_13h57.26.361,lexical_decision_task_DD_L5,2021.2.3,Win32,59.81934558,,,,,,,,,,,0.7497,1,,,,,,,,,,,,,,,,,,,,,,,,-0.119006255,-0.415655788,0,0,0,,,,,,,COOKER,HB,z,y,./images/COOKERHB.png,,,,,,,,,,,,,,,,,,,,,,z,1,0.7497,,,,,,,,0,47,47,153,1
,,,,,,,,,,,,,,,,,60fdd69df07af0302d9ce2de,21,2022-02-12_13h57.26.361,lexical_decision_task_DD_L5,2021.2.3,Win32,59.81934558,,,,,,,,,,,0.9107,0,,,,,,,,,,,,,,,,,,,,,,,,-0.119006255,-0.415655788,0,0,0,,,,,,,WHEEL,C,m,y,./images/WHEEL.png,,,,,,,,,,,,,,,,,,,,,,z,0,0.9107,,,,,,,,0,48,48,77,1
,,,,,,,,,,,,,,,,,60fdd69df07af0302d9ce2de,21,2022-02-12_13h57.26.361,lexical_decision_task_DD_L5,2021.2.3,Win32,59.81934558,,,,,,,,,,,0.9269,1,,,,,,,,,,,,,,,,,,,,,,,,-0.119006255,-0.415655788,0,0,0,,,,,,,GRAIN,HB,z,y,./images/GRAINHB.png,,,,,,,,,,,,,,,,,,,,,,z,1,0.9269,,,,,,,,0,49,49,159,1
,,,,,,,,,,,,,,,,,60fdd69df07af0302d9ce2de,21,2022-02-12_13h57.26.361,lexical_decision_task_DD_L5,2021.2.3,Win32,59.81934558,,,,,,,,,,,0.8601,0,,,,,,,,,,,,,,,,,,,,,,,,-0.119006255,-0.415655788,0,0,0,,,,,,,LADDER,C,z,y,./images/LADDER.png,,,,,,,,,,,,,,,,,,,,,,m,0,0.8601,,,,,,,,0,50,50,122,1
,,,,,,,,,,,,,,,,,60fdd69df07af0302d9ce2de,21,2022-02-12_13h57.26.361,lexical_decision_task_DD_L5,2021.2.3,Win32,59.81934558,,,,,,,,,,,1.6342,1,,,,,,,,,,,,,,,,,,,,,,,,-0.119006255,-0.415655788,0,0,0,,,,,,,DRILL,HB,m,y,./images/DRILLHB.png,,,,,,,,,,,,,,,,,,,,,,m,1,1.6342,,,,,,,,0,51,51,81,1
,,,,,,,,,,,,,,,,,60fdd69df07af0302d9ce2de,21,2022-02-12_13h57.26.361,lexical_decision_task_DD_L5,2021.2.3,Win32,59.81934558,,,,,,,,,,,0.6597,0,,,,,,,,,,,,,,,,,,,,,,,,-0.119006255,-0.415655788,0,0,0,,,,,,,ALLEY,LB,m,y,./images/ALLEYLB.png,,,,,,,,,,,,,,,,,,,,,,z,0,0.6597,,,,,,,,0,52,52,55,1
,,,,,,,,,,,,,,,,,60fdd69df07af0302d9ce2de,21,2022-02-12_13h57.26.361,lexical_decision_task_DD_L5,2021.2.3,Win32,59.81934558,,,,,,,,,,,0.8476,0,,,,,,,,,,,,,,,,,,,,,,,,-0.119006255,-0.415655788,0,0,0,,,,,,,DRUMS,LB,z,y,./images/DRUMSLB.png,,,,,,,,,,,,,,,,,,,,,,m,0,0.8476,,,,,,,,0,53,53,133,1
,,,,,,,,,,,,,,,,,60fdd69df07af0302d9ce2de,21,2022-02-12_13h57.26.361,lexical_decision_task_DD_L5,2021.2.3,Win32,59.81934558,,,,,,,,,,,2.2521,1,,,,,,,,,,,,,,,,,,,,,,,,-0.119006255,-0.415655788,0,0,0,,,,,,,SHELF,HB,z,y,./images/SHELFHB.png,,,,,,,,,,,,,,,,,,,,,,z,1,2.2521,,,,,,,,0,54,54,123,1
,,,,,,,,,,,,,,,,,60fdd69df07af0302d9ce2de,21,2022-02-12_13h57.26.361,lexical_decision_task_DD_L5,2021.2.3,Win32,59.81934558,,,,,,,,,,,1.017,1,,,,,,,,,,,,,,,,,,,,,,,,-0.119006255,-0.415655788,0,0,0,,,,,,,JUNGLE,C,z,y,./images/JUNGLE.png,,,,,,,,,,,,,,,,,,,,,,z,1,1.017,,,,,,,,0,55,55,167,1
,,,,,,,,,,,,,,,,,60fdd69df07af0302d9ce2de,21,2022-02-12_13h57.26.361,lexical_decision_task_DD_L5,2021.2.3,Win32,59.81934558,,,,,,,,,,,1.7687,0,,,,,,,,,,,,,,,,,,,,,,,,-0.119006255,-0.415655788,0,0,0,,,,,,,HEATER,C,m,y,./images/HEATER.png,,,,,,,,,,,,,,,,,,,,,,z,0,1.7687,,,,,,,,0,56,56,56,1
,,,,,,,,,,,,,,,,,60fdd69df07af0302d9ce2de,21,2022-02-12_13h57.26.361,lexical_decision_task_DD_L5,2021.2.3,Win32,59.81934558,,,,,,,,,,,1.9766,0,,,,,,,,,,,,,,,,,,,,,,,,-0.119006255,-0.415655788,0,0,0,,,,,,,BARREL,C,z,y,./images/BARREL.png,,,,,,,,,,,,,,,,,,,,,,m,0,1.9766,,,,,,,,0,57,57,116,1
,,,,,,,,,,,,,,,,,60fdd69df07af0302d9ce2de,21,2022-02-12_13h57.26.361,lexical_decision_task_DD_L5,2021.2.3,Win32,59.81934558,,,,,,,,,,,0.9482,1,,,,,,,,,,,,,,,,,,,,,,,,-0.119006255,-0.415655788,0,0,0,,,,,,,CLOTH,C,m,y,./images/CLOTH.png,,,,,,,,,,,,,,,,,,,,,,m,1,0.9482,,,,,,,,0,58,58,23,1
,,,,,,,,,,,,,,,,,60fdd69df07af0302d9ce2de,21,2022-02-12_13h57.26.361,lexical_decision_task_DD_L5,2021.2.3,Win32,59.81934558,,,,,,,,,,,1.0189,1,,,,,,,,,,,,,,,,,,,,,,,,-0.119006255,-0.415655788,0,0,0,,,,,,,MEDAL,C,m,y,./images/MEDAL.png,,,,,,,,,,,,,,,,,,,,,,m,1,1.0189,,,,,,,,0,59,59,11,1
,,,,,,,,,,,,,,,,,60fdd69df07af0302d9ce2de,21,2022-02-12_13h57.26.361,lexical_decision_task_DD_L5,2021.2.3,Win32,59.81934558,,,,,,,,,,,1.2304,1,,,,,,,,,,,,,,,,,,,,,,,,-0.119006255,-0.415655788,0,0,0,,,,,,,COLLAR,HB,m,y,./images/COLLARHB.png,,,,,,,,,,,,,,,,,,,,,,m,1,1.2304,,,,,,,,0,60,60,15,1
,,,,,,,,,,,,,,,,,60fdd69df07af0302d9ce2de,21,2022-02-12_13h57.26.361,lexical_decision_task_DD_L5,2021.2.3,Win32,59.81934558,,,,,,,,,,,1.2057,0,,,,,,,,,,,,,,,,,,,,,,,,-0.119006255,-0.415655788,0,0,0,,,,,,,CLIFF,C,m,y,./images/CLIFF.png,,,,,,,,,,,,,,,,,,,,,,z,0,1.2057,,,,,,,,0,61,61,8,1
,,,,,,,,,,,,,,,,,60fdd69df07af0302d9ce2de,21,2022-02-12_13h57.26.361,lexical_decision_task_DD_L5,2021.2.3,Win32,59.81934558,,,,,,,,,,,0.8481,1,,,,,,,,,,,,,,,,,,,,,,,,-0.119006255,-0.415655788,0,0,0,,,,,,,MELON,LB,z,y,./images/MELONLB.png,,,,,,,,,,,,,,,,,,,,,,z,1,0.8481,,,,,,,,0,62,62,106,1
,,,,,,,,,,,,,,,,,60fdd69df07af0302d9ce2de,21,2022-02-12_13h57.26.361,lexical_decision_task_DD_L5,2021.2.3,Win32,59.81934558,,,,,,,,,,,2.9097,1,,,,,,,,,,,,,,,,,,,,,,,,-0.119006255,-0.415655788,0,0,0,,,,,,,POKER,LB,m,y,./images/POKERLB.png,,,,,,,,,,,,,,,,,,,,,,m,1,2.9097,,,,,,,,0,63,63,67,1
,,,,,,,,,,,,,,,,,60fdd69df07af0302d9ce2de,21,2022-02-12_13h57.26.361,lexical_decision_task_DD_L5,2021.2.3,Win32,59.81934558,,,,,,,,,,,1.3049,1,,,,,,,,,,,,,,,,,,,,,,,,-0.119006255,-0.415655788,0,0,0,,,,,,,BAKER,HB,m,y,./images/BAKERHB.png,,,,,,,,,,,,,,,,,,,,,,m,1,1.3049,,,,,,,,0,64,64,63,1
,,,,,,,,,,,,,,,,,60fdd69df07af0302d9ce2de,21,2022-02-12_13h57.26.361,lexical_decision_task_DD_L5,2021.2.3,Win32,59.81934558,,,,,,,,,,,0.6282,1,,,,,,,,,,,,,,,,,,,,,,,,-0.119006255,-0.415655788,0,0,0,,,,,,,FOLDER,HB,z,y,./images/FOLDERHB.png,,,,,,,,,,,,,,,,,,,,,,z,1,0.6282,,,,,,,,0,65,65,126,1
,,,,,,,,,,,,,,,,,60fdd69df07af0302d9ce2de,21,2022-02-12_13h57.26.361,lexical_decision_task_DD_L5,2021.2.3,Win32,59.81934558,,,,,,,,,,,1.5974,0,,,,,,,,,,,,,,,,,,,,,,,,-0.119006255,-0.415655788,0,0,0,,,,,,,STAIN,HB,m,y,./images/STAINHB.png,,,,,,,,,,,,,,,,,,,,,,z,0,1.5974,,,,,,,,0,66,66,6,1
,,,,,,,,,,,,,,,,,60fdd69df07af0302d9ce2de,21,2022-02-12_13h57.26.361,lexical_decision_task_DD_L5,2021.2.3,Win32,59.81934558,,,,,,,,,,,1.4218,0,,,,,,,,,,,,,,,,,,,,,,,,-0.119006255,-0.415655788,0,0,0,,,,,,,SHORE,HB,z,y,./images/SHOREHB.png,,,,,,,,,,,,,,,,,,,,,,m,0,1.4218,,,,,,,,0,67,67,96,1
,,,,,,,,,,,,,,,,,60fdd69df07af0302d9ce2de,21,2022-02-12_13h57.26.361,lexical_decision_task_DD_L5,2021.2.3,Win32,59.81934558,,,,,,,,,,,0.8439,1,,,,,,,,,,,,,,,,,,,,,,,,-0.119006255,-0.415655788,0,0,0,,,,,,,GRANNY,C,m,y,./images/GRANNY.png,,,,,,,,,,,,,,,,,,,,,,m,1,0.8439,,,,,,,,0,68,68,20,1
,,,,,,,,,,,,,,,,,60fdd69df07af0302d9ce2de,21,2022-02-12_13h57.26.361,lexical_decision_task_DD_L5,2021.2.3,Win32,59.81934558,,,,,,,,,,,1.1727,0,,,,,,,,,,,,,,,,,,,,,,,,-0.119006255,-0.415655788,0,0,0,,,,,,,KITTEN,HB,z,y,./images/KITTENHB.png,,,,,,,,,,,,,,,,,,,,,,m,0,1.1727,,,,,,,,0,69,69,129,1
,,,,,,,,,,,,,,,,,60fdd69df07af0302d9ce2de,21,2022-02-12_13h57.26.361,lexical_decision_task_DD_L5,2021.2.3,Win32,59.81934558,,,,,,,,,,,2.4657,1,,,,,,,,,,,,,,,,,,,,,,,,-0.119006255,-0.415655788,0,0,0,,,,,,,FLASK,HB,m,y,./images/FLASKHB.png,,,,,,,,,,,,,,,,,,,,,,m,1,2.4657,,,,,,,,0,70,70,72,1
,,,,,,,,,,,,,,,,,60fdd69df07af0302d9ce2de,21,2022-02-12_13h57.26.361,lexical_decision_task_DD_L5,2021.2.3,Win32,59.81934558,,,,,,,,,,,0.8506,1,,,,,,,,,,,,,,,,,,,,,,,,-0.119006255,-0.415655788,0,0,0,,,,,,,MUMMY,LB,m,y,./images/MUMMYLB.png,,,,,,,,,,,,,,,,,,,,,,m,1,0.8506,,,,,,,,0,71,71,46,1
,,,,,,,,,,,,,,,,,60fdd69df07af0302d9ce2de,21,2022-02-12_13h57.26.361,lexical_decision_task_DD_L5,2021.2.3,Win32,59.81934558,,,,,,,,,,,0.8015,1,,,,,,,,,,,,,,,,,,,,,,,,-0.119006255,-0.415655788,0,0,0,,,,,,,MOTOR,LB,z,y,./images/MOTORLB.png,,,,,,,,,,,,,,,,,,,,,,z,1,0.8015,,,,,,,,0,72,72,97,1
,,,,,,,,,,,,,,,,,60fdd69df07af0302d9ce2de,21,2022-02-12_13h57.26.361,lexical_decision_task_DD_L5,2021.2.3,Win32,59.81934558,,,,,,,,,,,0.8282,1,,,,,,,,,,,,,,,,,,,,,,,,-0.119006255,-0.415655788,0,0,0,,,,,,,WALNUT,HB,m,y,./images/WALNUTHB.png,,,,,,,,,,,,,,,,,,,,,,m,1,0.8282,,,,,,,,0,73,73,0,1
,,,,,,,,,,,,,,,,,60fdd69df07af0302d9ce2de,21,2022-02-12_13h57.26.361,lexical_decision_task_DD_L5,2021.2.3,Win32,59.81934558,,,,,,,,,,,0.8546,0,,,,,,,,,,,,,,,,,,,,,,,,-0.119006255,-0.415655788,0,0,0,,,,,,,DOUGH,LB,z,y,./images/DOUGHLB.png,,,,,,,,,,,,,,,,,,,,,,m,0,0.8546,,,,,,,,0,74,74,103,1
,,,,,,,,,,,,,,,,,60fdd69df07af0302d9ce2de,21,2022-02-12_13h57.26.361,lexical_decision_task_DD_L5,2021.2.3,Win32,59.81934558,,,,,,,,,,,1.0177,1,,,,,,,,,,,,,,,,,,,,,,,,-0.119006255,-0.415655788,0,0,0,,,,,,,CANDY,HB,m,y,./images/CANDYHB.png,,,,,,,,,,,,,,,,,,,,,,m,1,1.0177,,,,,,,,0,75,75,39,1
,,,,,,,,,,,,,,,,,60fdd69df07af0302d9ce2de,21,2022-02-12_13h57.26.361,lexical_decision_task_DD_L5,2021.2.3,Win32,59.81934558,,,,,,,,,,,1.0592,1,,,,,,,,,,,,,,,,,,,,,,,,-0.119006255,-0.415655788,0,0,0,,,,,,,HAMMER,HB,m,y,./images/HAMMERHB.png,,,,,,,,,,,,,,,,,,,,,,m,1,1.0592,,,,,,,,0,76,76,75,1
,,,,,,,,,,,,,,,,,60fdd69df07af0302d9ce2de,21,2022-02-12_13h57.26.361,lexical_decision_task_DD_L5,2021.2.3,Win32,59.81934558,,,,,,,,,,,0.7132,1,,,,,,,,,,,,,,,,,,,,,,,,-0.119006255,-0.415655788,0,0,0,,,,,,,BAMBOO,C,m,y,./images/BAMBOO.png,,,,,,,,,,,,,,,,,,,,,,m,1,0.7132,,,,,,,,0,77,77,5,1
,,,,,,,,,,,,,,,,,60fdd69df07af0302d9ce2de,21,2022-02-12_13h57.26.361,lexical_decision_task_DD_L5,2021.2.3,Win32,59.81934558,,,,,,,,,,,0.8617,1,,,,,,,,,,,,,,,,,,,,,,,,-0.119006255,-0.415655788,0,0,0,,,,,,,SNACK,LB,z,y,./images/SNACKLB.png,,,,,,,,,,,,,,,,,,,,,,z,1,0.8617,,,,,,,,0,78,78,157,1
,,,,,,,,,,,,,,,,,60fdd69df07af0302d9ce2de,21,2022-02-12_13h57.26.361,lexical_decision_task_DD_L5,2021.2.3,Win32,59.81934558,,,,,,,,,,,0.7737,0,,,,,,,,,,,,,,,,,,,,,,,,-0.119006255,-0.415655788,0,0,0,,,,,,,RULER,LB,m,y,./images/RULERLB.png,,,,,,,,,,,,,,,,,,,,,,z,0,0.7737,,,,,,,,0,79,79,79,1
,,,,,,,,,,,,,,,,,60fdd69df07af0302d9ce2de,21,2022-02-12_13h57.26.361,lexical_decision_task_DD_L5,2021.2.3,Win32,59.81934558,,,,,,,,,,,0.6531,1,,,,,,,,,,,,,,,,,,,,,,,,-0.119006255,-0.415655788,0,0,0,,,,,,,PAINT,LB,z,y,./images/PAINTLB.png,,,,,,,,,,,,,,,,,,,,,,z,1,0.6531,,,,,,,,0,80,80,91,1
,,,,,,,,,,,,,,,,,60fdd69df07af0302d9ce2de,21,2022-02-12_13h57.26.361,lexical_decision_task_DD_L5,2021.2.3,Win32,59.81934558,,,,,,,,,,,0.9284,1,,,,,,,,,,,,,,,,,,,,,,,,-0.119006255,-0.415655788,0,0,0,,,,,,,MOOSE,HB,z,y,./images/MOOSEHB.png,,,,,,,,,,,,,,,,,,,,,,z,1,0.9284,,,,,,,,0,81,81,141,1
,,,,,,,,,,,,,,,,,60fdd69df07af0302d9ce2de,21,2022-02-12_13h57.26.361,lexical_decision_task_DD_L5,2021.2.3,Win32,59.81934558,,,,,,,,,,,0.7678,1,,,,,,,,,,,,,,,,,,,,,,,,-0.119006255,-0.415655788,0,0,0,,,,,,,BOXER,LB,m,y,./images/BOXERLB.png,,,,,,,,,,,,,,,,,,,,,,m,1,0.7678,,,,,,,,0,82,82,4,1
,,,,,,,,,,,,,,,,,60fdd69df07af0302d9ce2de,21,2022-02-12_13h57.26.361,lexical_decision_task_DD_L5,2021.2.3,Win32,59.81934558,,,,,,,,,,,1.0509,0,,,,,,,,,,,,,,,,,,,,,,,,-0.119006255,-0.415655788,1,0,0,,,,,,,PILOT,C,m,y,./images/PILOT.png,break_done_button,,,,,,,,,,,,,,,,,,,,,z,0,1.0509,,,,,,,,0,83,83,50,1
,,,,,,,,,,,,,,,,,60fdd69df07af0302d9ce2de,21,2022-02-12_13h57.26.361,lexical_decision_task_DD_L5,2021.2.3,Win32,59.81934558,,,,,,,,,,,1.6039,0,,,,,,,,,,,,,,,,,,,,,,,,-0.119006255,-0.415655788,0,0,0,,,,,,,SAILOR,LB,z,y,./images/SAILORLB.png,,,,,,,,,,,,,,,,,,,,,,m,0,1.6039,,,,,,,,0,84,84,151,1
,,,,,,,,,,,,,,,,,60fdd69df07af0302d9ce2de,21,2022-02-12_13h57.26.361,lexical_decision_task_DD_L5,2021.2.3,Win32,59.81934558,,,,,,,,,,,1.3183,0,,,,,,,,,,,,,,,,,,,,,,,,-0.119006255,-0.415655788,0,0,0,,,,,,,BURIAL,C,z,y,./images/BURIAL.png,,,,,,,,,,,,,,,,,,,,,,m,0,1.3183,,,,,,,,0,85,85,143,1
,,,,,,,,,,,,,,,,,60fdd69df07af0302d9ce2de,21,2022-02-12_13h57.26.361,lexical_decision_task_DD_L5,2021.2.3,Win32,59.81934558,,,,,,,,,,,1.0174,1,,,,,,,,,,,,,,,,,,,,,,,,-0.119006255,-0.415655788,0,0,0,,,,,,,BASKET,C,m,y,./images/BASKET.png,,,,,,,,,,,,,,,,,,,,,,m,1,1.0174,,,,,,,,0,86,86,44,1
,,,,,,,,,,,,,,,,,60fdd69df07af0302d9ce2de,21,2022-02-12_13h57.26.361,lexical_decision_task_DD_L5,2021.2.3,Win32,59.81934558,,,,,,,,,,,0.9691,1,,,,,,,,,,,,,,,,,,,,,,,,-0.119006255,-0.415655788,0,0,0,,,,,,,VALLEY,C,m,y,./images/VALLEY.png,,,,,,,,,,,,,,,,,,,,,,m,1,0.9691,,,,,,,,0,87,87,68,1
,,,,,,,,,,,,,,,,,60fdd69df07af0302d9ce2de,21,2022-02-12_13h57.26.361,lexical_decision_task_DD_L5,2021.2.3,Win32,59.81934558,,,,,,,,,,,0.8848,0,,,,,,,,,,,,,,,,,,,,,,,,-0.119006255,-0.415655788,0,0,0,,,,,,,JAGUAR,HB,z,y,./images/JAGUARHB.png,,,,,,,,,,,,,,,,,,,,,,m,0,0.8848,,,,,,,,0,88,88,102,1
,,,,,,,,,,,,,,,,,60fdd69df07af0302d9ce2de,21,2022-02-12_13h57.26.361,lexical_decision_task_DD_L5,2021.2.3,Win32,59.81934558,,,,,,,,,,,0.4883,1,,,,,,,,,,,,,,,,,,,,,,,,-0.119006255,-0.415655788,0,0,0,,,,,,,ATTIC,HB,z,y,./images/ATTICHB.png,,,,,,,,,,,,,,,,,,,,,,z,1,0.4883,,,,,,,,0,89,89,111,1
,,,,,,,,,,,,,,,,,60fdd69df07af0302d9ce2de,21,2022-02-12_13h57.26.361,lexical_decision_task_DD_L5,2021.2.3,Win32,59.81934558,,,,,,,,,,,0.9716,0,,,,,,,,,,,,,,,,,,,,,,,,-0.119006255,-0.415655788,0,0,0,,,,,,,PISTOL,C,m,y,./images/PISTOL.png,,,,,,,,,,,,,,,,,,,,,,z,0,0.9716,,,,,,,,0,90,90,29,1
,,,,,,,,,,,,,,,,,60fdd69df07af0302d9ce2de,21,2022-02-12_13h57.26.361,lexical_decision_task_DD_L5,2021.2.3,Win32,59.81934558,,,,,,,,,,,0.8612,0,,,,,,,,,,,,,,,,,,,,,,,,-0.119006255,-0.415655788,0,0,0,,,,,,,BUNNY,LB,m,y,./images/BUNNYLB.png,,,,,,,,,,,,,,,,,,,,,,z,0,0.8612,,,,,,,,0,91,91,13,1
,,,,,,,,,,,,,,,,,60fdd69df07af0302d9ce2de,21,2022-02-12_13h57.26.361,lexical_decision_task_DD_L5,2021.2.3,Win32,59.81934558,,,,,,,,,,,0.5609,0,,,,,,,,,,,,,,,,,,,,,,,,-0.119006255,-0.415655788,0,0,0,,,,,,,BRUSH,C,m,y,./images/BRUSH.png,,,,,,,,,,,,,,,,,,,,,,z,0,0.5609,,,,,,,,0,92,92,59,1
,,,,,,,,,,,,,,,,,60fdd69df07af0302d9ce2de,21,2022-02-12_13h57.26.361,lexical_decision_task_DD_L5,2021.2.3,Win32,59.81934558,,,,,,,,,,,0.6881,1,,,,,,,,,,,,,,,,,,,,,,,,-0.119006255,-0.415655788,0,0,0,,,,,,,PIMPLE,C,z,y,./images/PIMPLE.png,,,,,,,,,,,,,,,,,,,,,,z,1,0.6881,,,,,,,,0,93,93,155,1
,,,,,,,,,,,,,,,,,60fdd69df07af0302d9ce2de,21,2022-02-12_13h57.26.361,lexical_decision_task_DD_L5,2021.2.3,Win32,59.81934558,,,,,,,,,,,0.6422,1,,,,,,,,,,,,,,,,,,,,,,,,-0.119006255,-0.415655788,0,0,0,,,,,,,BEARD,C,z,y,./images/BEARD.png,,,,,,,,,,,,,,,,,,,,,,z,1,0.6422,,,,,,,,0,94,94,86,1
,,,,,,,,,,,,,,,,,60fdd69df07af0302d9ce2de,21,2022-02-12_13h57.26.361,lexical_decision_task_DD_L5,2021.2.3,Win32,59.81934558,,,,,,,,,,,0.9057,1,,,,,,,,,,,,,,,,,,,,,,,,-0.119006255,-0.415655788,0,0,0,,,,,,,BANANA,LB,m,y,./images/BANANALB.png,,,,,,,,,,,,,,,,,,,,,,m,1,0.9057,,,,,,,,0,95,95,70,1
,,,,,,,,,,,,,,,,,60fdd69df07af0302d9ce2de,21,2022-02-12_13h57.26.361,lexical_decision_task_DD_L5,2021.2.3,Win32,59.81934558,,,,,,,,,,,0.9105,1,,,,,,,,,,,,,,,,,,,,,,,,-0.119006255,-0.415655788,0,0,0,,,,,,,BROOM,HB,m,y,./images/BROOMHB.png,,,,,,,,,,,,,,,,,,,,,,m,1,0.9105,,,,,,,,0,96,96,78,1
,,,,,,,,,,,,,,,,,60fdd69df07af0302d9ce2de,21,2022-02-12_13h57.26.361,lexical_decision_task_DD_L5,2021.2.3,Win32,59.81934558,,,,,,,,,,,1.9573,1,,,,,,,,,,,,,,,,,,,,,,,,-0.119006255,-0.415655788,0,0,0,,,,,,,POSTER,C,m,y,./images/POSTER.png,,,,,,,,,,,,,,,,,,,,,,m,1,1.9573,,,,,,,,0,97,97,53,1
,,,,,,,,,,,,,,,,,60fdd69df07af0302d9ce2de,21,2022-02-12_13h57.26.361,lexical_decision_task_DD_L5,2021.2.3,Win32,59.81934558,,,,,,,,,,,1.1341,1,,,,,,,,,,,,,,,,,,,,,,,,-0.119006255,-0.415655788,0,0,0,,,,,,,SAUNA,HB,m,y,./images/SAUNAHB.png,,,,,,,,,,,,,,,,,,,,,,m,1,1.1341,,,,,,,,0,98,98,33,1
,,,,,,,,,,,,,,,,,60fdd69df07af0302d9ce2de,21,2022-02-12_13h57.26.361,lexical_decision_task_DD_L5,2021.2.3,Win32,59.81934558,,,,,,,,,,,0.894,1,,,,,,,,,,,,,,,,,,,,,,,,-0.119006255,-0.415655788,0,0,0,,,,,,,MALLET,C,z,y,./images/MALLET.png,,,,,,,,,,,,,,,,,,,,,,z,1,0.894,,,,,,,,0,99,99,134,1
,,,,,,,,,,,,,,,,,60fdd69df07af0302d9ce2de,21,2022-02-12_13h57.26.361,lexical_decision_task_DD_L5,2021.2.3,Win32,59.81934558,,,,,,,,,,,0.5433,0,,,,,,,,,,,,,,,,,,,,,,,,-0.119006255,-0.415655788,0,0,0,,,,,,,ARTIST,LB,m,y,./images/ARTISTLB.png,,,,,,,,,,,,,,,,,,,,,,z,0,0.5433,,,,,,,,0,100,100,61,1
,,,,,,,,,,,,,,,,,60fdd69df07af0302d9ce2de,21,2022-02-12_13h57.26.361,lexical_decision_task_DD_L5,2021.2.3,Win32,59.81934558,,,,,,,,,,,0.6523,1,,,,,,,,,,,,,,,,,,,,,,,,-0.119006255,-0.415655788,0,0,0,,,,,,,FARMER,C,z,y,./images/FARMER.png,,,,,,,,,,,,,,,,,,,,,,z,1,0.6523,,,,,,,,0,101,101,149,1
,,,,,,,,,,,,,,,,,60fdd69df07af0302d9ce2de,21,2022-02-12_13h57.26.361,lexical_decision_task_DD_L5,2021.2.3,Win32,59.81934558,,,,,,,,,,,1.0514,1,,,,,,,,,,,,,,,,,,,,,,,,-0.119006255,-0.415655788,0,0,0,,,,,,,CLOUD,C,m,y,./images/CLOUD.png,,,,,,,,,,,,,,,,,,,,,,m,1,1.0514,,,,,,,,0,102,102,26,1
,,,,,,,,,,,,,,,,,60fdd69df07af0302d9ce2de,21,2022-02-12_13h57.26.361,lexical_decision_task_DD_L5,2021.2.3,Win32,59.81934558,,,,,,,,,,,1.1344,1,,,,,,,,,,,,,,,,,,,,,,,,-0.119006255,-0.415655788,0,0,0,,,,,,,FALCON,LB,z,y,./images/FALCONLB.png,,,,,,,,,,,,,,,,,,,,,,z,1,1.1344,,,,,,,,0,103,103,112,1
,,,,,,,,,,,,,,,,,60fdd69df07af0302d9ce2de,21,2022-02-12_13h57.26.361,lexical_decision_task_DD_L5,2021.2.3,Win32,59.81934558,,,,,,,,,,,0.6021,1,,,,,,,,,,,,,,,,,,,,,,,,-0.119006255,-0.415655788,0,0,0,,,,,,,GREASE,HB,z,y,./images/GREASEHB.png,,,,,,,,,,,,,,,,,,,,,,z,1,0.6021,,,,,,,,0,104,104,99,1
,,,,,,,,,,,,,,,,,60fdd69df07af0302d9ce2de,21,2022-02-12_13h57.26.361,lexical_decision_task_DD_L5,2021.2.3,Win32,59.81934558,,,,,,,,,,,0.8089,1,,,,,,,,,,,,,,,,,,,,,,,,-0.119006255,-0.415655788,0,0,0,,,,,,,HOCKEY,C,m,y,./images/HOCKEY.png,,,,,,,,,,,,,,,,,,,,,,m,1,0.8089,,,,,,,,0,105,105,32,1
,,,,,,,,,,,,,,,,,60fdd69df07af0302d9ce2de,21,2022-02-12_13h57.26.361,lexical_decision_task_DD_L5,2021.2.3,Win32,59.81934558,,,,,,,,,,,0.6529,1,,,,,,,,,,,,,,,,,,,,,,,,-0.119006255,-0.415655788,0,0,0,,,,,,,LIZARD,C,z,y,./images/LIZARD.png,,,,,,,,,,,,,,,,,,,,,,z,1,0.6529,,,,,,,,0,106,106,128,1
,,,,,,,,,,,,,,,,,60fdd69df07af0302d9ce2de,21,2022-02-12_13h57.26.361,lexical_decision_task_DD_L5,2021.2.3,Win32,59.81934558,,,,,,,,,,,0.8114,0,,,,,,,,,,,,,,,,,,,,,,,,-0.119006255,-0.415655788,0,0,0,,,,,,,COUCH,C,z,y,./images/COUCH.png,,,,,,,,,,,,,,,,,,,,,,m,0,0.8114,,,,,,,,0,107,107,161,1
,,,,,,,,,,,,,,,,,60fdd69df07af0302d9ce2de,21,2022-02-12_13h57.26.361,lexical_decision_task_DD_L5,2021.2.3,Win32,59.81934558,,,,,,,,,,,0.6734,1,,,,,,,,,,,,,,,,,,,,,,,,-0.119006255,-0.415655788,0,0,0,,,,,,,CRUST,LB,z,y,./images/CRUSTLB.png,,,,,,,,,,,,,,,,,,,,,,z,1,0.6734,,,,,,,,0,108,108,163,1
,,,,,,,,,,,,,,,,,60fdd69df07af0302d9ce2de,21,2022-02-12_13h57.26.361,lexical_decision_task_DD_L5,2021.2.3,Win32,59.81934558,,,,,,,,,,,0.9537,1,,,,,,,,,,,,,,,,,,,,,,,,-0.119006255,-0.415655788,0,0,0,,,,,,,PACKET,C,z,y,./images/PACKET.png,,,,,,,,,,,,,,,,,,,,,,z,1,0.9537,,,,,,,,0,109,109,140,1
,,,,,,,,,,,,,,,,,60fdd69df07af0302d9ce2de,21,2022-02-12_13h57.26.361,lexical_decision_task_DD_L5,2021.2.3,Win32,59.81934558,,,,,,,,,,,1.7348,1,,,,,,,,,,,,,,,,,,,,,,,,-0.119006255,-0.415655788,0,0,0,,,,,,,SUNSET,LB,z,y,./images/SUNSETLB.png,,,,,,,,,,,,,,,,,,,,,,z,1,1.7348,,,,,,,,0,110,110,166,1
,,,,,,,,,,,,,,,,,60fdd69df07af0302d9ce2de,21,2022-02-12_13h57.26.361,lexical_decision_task_DD_L5,2021.2.3,Win32,59.81934558,,,,,,,,,,,1.6608,1,,,,,,,,,,,,,,,,,,,,,,,,-0.119006255,-0.415655788,0,0,0,,,,,,,BIRTH,LB,z,y,./images/BIRTHLB.png,,,,,,,,,,,,,,,,,,,,,,z,1,1.6608,,,,,,,,0,111,111,121,1
,,,,,,,,,,,,,,,,,60fdd69df07af0302d9ce2de,21,2022-02-12_13h57.26.361,lexical_decision_task_DD_L5,2021.2.3,Win32,59.81934558,,,,,,,,,,,2.2318,1,,,,,,,,,,,,,,,,,,,,,,,,-0.119006255,-0.415655788,0,0,0,,,,,,,PEARL,LB,z,y,./images/PEARLLB.png,,,,,,,,,,,,,,,,,,,,,,z,1,2.2318,,,,,,,,0,112,112,130,1
,,,,,,,,,,,,,,,,,60fdd69df07af0302d9ce2de,21,2022-02-12_13h57.26.361,lexical_decision_task_DD_L5,2021.2.3,Win32,59.81934558,,,,,,,,,,,0.8135,1,,,,,,,,,,,,,,,,,,,,,,,,-0.119006255,-0.415655788,0,0,0,,,,,,,WALRUS,C,z,y,./images/WALRUS.png,,,,,,,,,,,,,,,,,,,,,,z,1,0.8135,,,,,,,,0,113,113,107,1
,,,,,,,,,,,,,,,,,60fdd69df07af0302d9ce2de,21,2022-02-12_13h57.26.361,lexical_decision_task_DD_L5,2021.2.3,Win32,59.81934558,,,,,,,,,,,2.3356,0,,,,,,,,,,,,,,,,,,,,,,,,-0.119006255,-0.415655788,0,0,0,,,,,,,CASINO,LB,m,y,./images/CASINOLB.png,,,,,,,,,,,,,,,,,,,,,,z,0,2.3356,,,,,,,,0,114,114,28,1
,,,,,,,,,,,,,,,,,60fdd69df07af0302d9ce2de,21,2022-02-12_13h57.26.361,lexical_decision_task_DD_L5,2021.2.3,Win32,59.81934558,,,,,,,,,,,1.8814,0,,,,,,,,,,,,,,,,,,,,,,,,-0.119006255,-0.415655788,0,0,0,,,,,,,PENCE,LB,z,y,./images/PENCELB.png,,,,,,,,,,,,,,,,,,,,,,m,0,1.8814,,,,,,,,0,115,115,100,1
,,,,,,,,,,,,,,,,,60fdd69df07af0302d9ce2de,21,2022-02-12_13h57.26.361,lexical_decision_task_DD_L5,2021.2.3,Win32,59.81934558,,,,,,,,,,,1.4361,1,,,,,,,,,,,,,,,,,,,,,,,,-0.119006255,-0.415655788,0,0,0,,,,,,,SMOKER,C,z,y,./images/SMOKER.png,,,,,,,,,,,,,,,,,,,,,,z,1,1.4361,,,,,,,,0,116,116,110,1
,,,,,,,,,,,,,,,,,60fdd69df07af0302d9ce2de,21,2022-02-12_13h57.26.361,lexical_decision_task_DD_L5,2021.2.3,Win32,59.81934558,,,,,,,,,,,0.816,1,,,,,,,,,,,,,,,,,,,,,,,,-0.119006255,-0.415655788,0,0,0,,,,,,,POODLE,HB,z,y,./images/POODLEHB.png,,,,,,,,,,,,,,,,,,,,,,z,1,0.816,,,,,,,,0,117,117,165,1
,,,,,,,,,,,,,,,,,60fdd69df07af0302d9ce2de,21,2022-02-12_13h57.26.361,lexical_decision_task_DD_L5,2021.2.3,Win32,59.81934558,,,,,,,,,,,0.9178,1,,,,,,,,,,,,,,,,,,,,,,,,-0.119006255,-0.415655788,0,0,0,,,,,,,BISHOP,LB,m,y,./images/BISHOPLB.png,,,,,,,,,,,,,,,,,,,,,,m,1,0.9178,,,,,,,,0,118,118,49,1
,,,,,,,,,,,,,,,,,60fdd69df07af0302d9ce2de,21,2022-02-12_13h57.26.361,lexical_decision_task_DD_L5,2021.2.3,Win32,59.81934558,,,,,,,,,,,1.2997,1,,,,,,,,,,,,,,,,,,,,,,,,-0.119006255,-0.415655788,0,0,0,,,,,,,MIDGET,LB,m,y,./images/MIDGETLB.png,,,,,,,,,,,,,,,,,,,,,,m,1,1.2997,,,,,,,,0,119,119,76,1
,,,,,,,,,,,,,,,,,60fdd69df07af0302d9ce2de,21,2022-02-12_13h57.26.361,lexical_decision_task_DD_L5,2021.2.3,Win32,59.81934558,,,,,,,,,,,1.513,1,,,,,,,,,,,,,,,,,,,,,,,,-0.119006255,-0.415655788,0,0,0,,,,,,,DIVER,HB,m,y,./images/DIVERHB.png,,,,,,,,,,,,,,,,,,,,,,m,1,1.513,,,,,,,,0,120,120,9,1
,,,,,,,,,,,,,,,,,60fdd69df07af0302d9ce2de,21,2022-02-12_13h57.26.361,lexical_decision_task_DD_L5,2021.2.3,Win32,59.81934558,,,,,,,,,,,0.6157,0,,,,,,,,,,,,,,,,,,,,,,,,-0.119006255,-0.415655788,0,0,0,,,,,,,SPINE,C,m,y,./images/SPINE.png,,,,,,,,,,,,,,,,,,,,,,z,0,0.6157,,,,,,,,0,121,121,65,1
,,,,,,,,,,,,,,,,,60fdd69df07af0302d9ce2de,21,2022-02-12_13h57.26.361,lexical_decision_task_DD_L5,2021.2.3,Win32,59.81934558,,,,,,,,,,,0.8053,0,,,,,,,,,,,,,,,,,,,,,,,,-0.119006255,-0.415655788,0,0,0,,,,,,,CEMENT,C,z,y,./images/CEMENT.png,,,,,,,,,,,,,,,,,,,,,,m,0,0.8053,,,,,,,,0,122,122,158,1
,,,,,,,,,,,,,,,,,60fdd69df07af0302d9ce2de,21,2022-02-12_13h57.26.361,lexical_decision_task_DD_L5,2021.2.3,Win32,59.81934558,,,,,,,,,,,0.7199,0,,,,,,,,,,,,,,,,,,,,,,,,-0.119006255,-0.415655788,0,0,0,,,,,,,CRATER,HB,m,y,./images/CRATERHB.png,,,,,,,,,,,,,,,,,,,,,,z,0,0.7199,,,,,,,,0,123,123,3,1
,,,,,,,,,,,,,,,,,60fdd69df07af0302d9ce2de,21,2022-02-12_13h57.26.361,lexical_decision_task_DD_L5,2021.2.3,Win32,59.81934558,,,,,,,,,,,0.6983,1,,,,,,,,,,,,,,,,,,,,,,,,-0.119006255,-0.415655788,0,0,0,,,,,,,MOSQUE,LB,z,y,./images/MOSQUELB.png,,,,,,,,,,,,,,,,,,,,,,z,1,0.6983,,,,,,,,0,124,124,127,1
,,,,,,,,,,,,,,,,,60fdd69df07af0302d9ce2de,21,2022-02-12_13h57.26.361,lexical_decision_task_DD_L5,2021.2.3,Win32,59.81934558,,,,,,,,,,,0.6807,1,,,,,,,,,,,,,,,,,,,,,,,,-0.119006255,-0.415655788,0,0,0,space,,,,,,SHIELD,HB,m,y,./images/SHIELDHB.png,,1.0995,,,,,,,,,,,,,,,,,,,,m,1,0.6807,,,,,,,,0,125,125,48,1
,,,,,,,,,,,,,,,,,60fdd69df07af0302d9ce2de,21,2022-02-12_13h57.26.361,lexical_decision_task_DD_L5,2021.2.3,Win32,59.81934558,,,,,,,,,,,0.6307,1,,,,,,,,,,,,,,,,,,,,,,,,-0.119006255,-0.415655788,0,0,0,,,,,,,THROAT,HB,z,y,./images/THROATHB.png,,,,,,,,,,,,,,,,,,,,,,z,1,0.6307,,,,,,,,0,126,126,120,1
,,,,,,,,,,,,,,,,,60fdd69df07af0302d9ce2de,21,2022-02-12_13h57.26.361,lexical_decision_task_DD_L5,2021.2.3,Win32,59.81934558,,,,,,,,,,,0.6427,1,,,,,,,,,,,,,,,,,,,,,,,,-0.119006255,-0.415655788,0,0,0,,,,,,,RHINO,HB,z,y,./images/RHINOHB.png,,,,,,,,,,,,,,,,,,,,,,z,1,0.6427,,,,,,,,0,127,127,93,1
,,,,,,,,,,,,,,,,,60fdd69df07af0302d9ce2de,21,2022-02-12_13h57.26.361,lexical_decision_task_DD_L5,2021.2.3,Win32,59.81934558,,,,,,,,,,,0.6101,0,,,,,,,,,,,,,,,,,,,,,,,,-0.119006255,-0.415655788,0,0,0,,,,,,,BOILER,HB,m,y,./images/BOILERHB.png,,,,,,,,,,,,,,,,,,,,,,z,0,0.6101,,,,,,,,0,128,128,36,1
,,,,,,,,,,,,,,,,,60fdd69df07af0302d9ce2de,21,2022-02-12_13h57.26.361,lexical_decision_task_DD_L5,2021.2.3,Win32,59.81934558,,,,,,,,,,,0.6284,1,,,,,,,,,,,,,,,,,,,,,,,,-0.119006255,-0.415655788,0,0,0,,,,,,,SLOPE,HB,m,y,./images/SLOPEHB.png,,,,,,,,,,,,,,,,,,,,,,m,1,0.6284,,,,,,,,0,129,129,30,1
