key_resp.keys,instr_done_touch.x,instr_done_touch.y,instr_done_touch.leftButton,instr_done_touch.midButton,instr_done_touch.rightButton,instr_done_touch.clicked_name,instruction_pages.thisRepN,instruction_pages.thisTrialN,instruction_pages.thisN,instruction_pages.thisIndex,instruction_pages.ran,pageN,phase,instruct_text,has_image,instruct_image,participant,age,date,expName,psychopyVersion,OS,frameRate,response.keys,response.corr,touch_resp.x,touch_resp.y,touch_resp.leftButton,touch_resp.midButton,touch_resp.rightButton,touch_resp.time,touch_resp.clicked_name,rt,corr,practrials.thisRepN,practrials.thisTrialN,practrials.thisN,practrials.thisIndex,practrials.ran,TrialID,Target,corrAns,end_of_practice_trials_pages.thisRepN,end_of_practice_trials_pages.thisTrialN,end_of_practice_trials_pages.thisN,end_of_practice_trials_pages.thisIndex,end_of_practice_trials_pages.ran,key_resp_2.keys,key_resp_2.corr,targ_click.x,targ_click.y,targ_click.leftButton,targ_click.midButton,targ_click.rightButton,targ_click.time,targ_click.clicked_name,break_done_touch.x,break_done_touch.y,break_done_touch.leftButton,break_done_touch.midButton,break_done_touch.rightButton,break_done_keyboard.keys,maintrials.thisRepN,maintrials.thisTrialN,maintrials.thisN,maintrials.thisIndex,maintrials.ran,string,blur,study,lex,stim_path,break_done_touch.clicked_name,mouse_2.x,mouse_2.y,mouse_2.leftButton,mouse_2.midButton,mouse_2.rightButton,mouse_2.clicked_name,slider.response,slider.rt,trials.thisRepN,trials.thisTrialN,trials.thisN,trials.thisIndex,trials.ran,test_instructions.thisRepN,test_instructions.thisTrialN,test_instructions.thisN,test_instructions.thisIndex,test_instructions.ran,key_resp_3.keys,key_resp_3.corr,test_click.x,test_click.y,test_click.leftButton,test_click.midButton,test_click.rightButton,test_click.time,test_click.clicked_name,test_phase.thisRepN,test_phase.thisTrialN,test_phase.thisN,test_phase.thisIndex,test_phase.ran
,0.148979592,-0.419387755,1,0,0,instr_done_button,0,0,0,0,1,1,instructions,"INSTRUCTIONS
At the start of each trial, look at the plus sign  (+) in the center of the screen.  This tells you that a trial is about to begin and where to look. Second, the plus sign will disappear and a string of letters will appear. Your task is to determine if the string of letters is a word or not. If the item is a word press the M key (on keyboard)  or touch the word button (phone/tablet).  If the item is not a word,  press the  Z key (on keyboard)  or touch the nonword button (on phone/tablet). 
Press the space bar or touch  continue.",0,,61037a7204c3bfc31c1289dd,26,2022-02-12_17h22.52.153,lexical_decision_task_DD_L5,2021.2.3,iPhone,62.5,,,,,,,,,,,,,,,,,,,,,,,,,,,,,,,,,,,,,,,,,,,,,,,,,,,,,,,,,,,,,,,,,,,,,,,,,,,,,,,,,,
,0.132653061,-0.401020408,1,0,0,instr_done_button,0,1,1,1,1,2,instructions,"If your device has a keyboard, press the 'Z' key for nonwords and the 'M' key for words.





Press the space bar or touch the button below to continue.",0,keyboard-example.gif,61037a7204c3bfc31c1289dd,26,2022-02-12_17h22.52.153,lexical_decision_task_DD_L5,2021.2.3,iPhone,62.5,,,,,,,,,,,,,,,,,,,,,,,,,,,,,,,,,,,,,,,,,,,,,,,,,,,,,,,,,,,,,,,,,,,,,,,,,,,,,,,,,,
,0.130612245,-0.412244898,1,0,0,instr_done_button,0,2,2,2,1,3,instructions,"If you are using a touchscreen only device, use the buttons on the screen. Do not use the mouse.





Press the space bar or touch the button below to continue.",0,touchscreen-example.gif,61037a7204c3bfc31c1289dd,26,2022-02-12_17h22.52.153,lexical_decision_task_DD_L5,2021.2.3,iPhone,62.5,,,,,,,,,,,,,,,,,,,,,,,,,,,,,,,,,,,,,,,,,,,,,,,,,,,,,,,,,,,,,,,,,,,,,,,,,,,,,,,,,,
,0.137755102,-0.409183673,1,0,0,instr_done_button,0,3,3,3,1,4,instructions,"It is very important that you respond as quickly and accurately as possible, as each letter string will only be on the screen for two seconds. If you do not respond within this time, the message 'Too slow!' will be displayed and the experiment will progress to the next letter string. The first 20 trials will be practice trials and you will receive feedback on your answers. 

Press the space bar or touch the button below to start the practice trials.",0,,61037a7204c3bfc31c1289dd,26,2022-02-12_17h22.52.153,lexical_decision_task_DD_L5,2021.2.3,iPhone,62.5,,,,,,,,,,,,,,,,,,,,,,,,,,,,,,,,,,,,,,,,,,,,,,,,,,,,,,,,,,,,,,,,,,,,,,,,,,,,,,,,,,
,,,,,,,,,,,,,,,,,61037a7204c3bfc31c1289dd,26,2022-02-12_17h22.52.153,lexical_decision_task_DD_L5,2021.2.3,iPhone,62.5,,0,0.390816327,-0.274489796,1,0,0,1.444,button_right,1.444,1,0,0,0,4,1,1001,SQUEAK,m,,,,,,,,,,,,,,,,,,,,,,,,,,,,,,,,,,,,,,,,,,,,,,,,,,,,,,,,,,,,,,,
,,,,,,,,,,,,,,,,,61037a7204c3bfc31c1289dd,26,2022-02-12_17h22.52.153,lexical_decision_task_DD_L5,2021.2.3,iPhone,62.5,,0,0.351020408,-0.328571429,1,0,0,0.922,button_right,0.922,1,0,1,1,0,1,1001,UTOPIA,m,,,,,,,,,,,,,,,,,,,,,,,,,,,,,,,,,,,,,,,,,,,,,,,,,,,,,,,,,,,,,,,
,,,,,,,,,,,,,,,,,61037a7204c3bfc31c1289dd,26,2022-02-12_17h22.52.153,lexical_decision_task_DD_L5,2021.2.3,iPhone,62.5,,0,-0.321428571,-0.346938776,1,0,0,0.708,button_left,0.708,1,0,2,2,15,1,1001,WHAISE,z,,,,,,,,,,,,,,,,,,,,,,,,,,,,,,,,,,,,,,,,,,,,,,,,,,,,,,,,,,,,,,,
,,,,,,,,,,,,,,,,,61037a7204c3bfc31c1289dd,26,2022-02-12_17h22.52.153,lexical_decision_task_DD_L5,2021.2.3,iPhone,62.5,,0,-0.276530612,-0.319387755,1,0,0,0.826,button_left,0.826,1,0,3,3,11,1,1001,RASHET,z,,,,,,,,,,,,,,,,,,,,,,,,,,,,,,,,,,,,,,,,,,,,,,,,,,,,,,,,,,,,,,,
,,,,,,,,,,,,,,,,,61037a7204c3bfc31c1289dd,26,2022-02-12_17h22.52.153,lexical_decision_task_DD_L5,2021.2.3,iPhone,62.5,,0,-0.266326531,-0.293877551,1,0,0,0.78,button_left,0.78,1,0,4,4,14,1,1001,THRALE,z,,,,,,,,,,,,,,,,,,,,,,,,,,,,,,,,,,,,,,,,,,,,,,,,,,,,,,,,,,,,,,,
,,,,,,,,,,,,,,,,,61037a7204c3bfc31c1289dd,26,2022-02-12_17h22.52.153,lexical_decision_task_DD_L5,2021.2.3,iPhone,62.5,,0,-0.27244898,-0.292857143,1,0,0,0.747,button_left,0.747,1,0,5,5,13,1,1001,ROUPET,z,,,,,,,,,,,,,,,,,,,,,,,,,,,,,,,,,,,,,,,,,,,,,,,,,,,,,,,,,,,,,,,
,,,,,,,,,,,,,,,,,61037a7204c3bfc31c1289dd,26,2022-02-12_17h22.52.153,lexical_decision_task_DD_L5,2021.2.3,iPhone,62.5,,0,0.275510204,-0.341836735,1,0,0,0.749,button_right,0.749,1,0,6,6,3,1,1001,MATRIX,m,,,,,,,,,,,,,,,,,,,,,,,,,,,,,,,,,,,,,,,,,,,,,,,,,,,,,,,,,,,,,,,
,,,,,,,,,,,,,,,,,61037a7204c3bfc31c1289dd,26,2022-02-12_17h22.52.153,lexical_decision_task_DD_L5,2021.2.3,iPhone,62.5,,0,0.28877551,-0.268367347,1,0,0,0.682,button_right,0.682,1,0,7,7,1,1,1001,ADJUST,m,,,,,,,,,,,,,,,,,,,,,,,,,,,,,,,,,,,,,,,,,,,,,,,,,,,,,,,,,,,,,,,
,,,,,,,,,,,,,,,,,61037a7204c3bfc31c1289dd,26,2022-02-12_17h22.52.153,lexical_decision_task_DD_L5,2021.2.3,iPhone,62.5,,0,0.285714286,-0.380612245,1,0,0,0.674,button_right,0.674,1,0,8,8,6,1,1001,ZOMBIE,m,,,,,,,,,,,,,,,,,,,,,,,,,,,,,,,,,,,,,,,,,,,,,,,,,,,,,,,,,,,,,,,
,,,,,,,,,,,,,,,,,61037a7204c3bfc31c1289dd,26,2022-02-12_17h22.52.153,lexical_decision_task_DD_L5,2021.2.3,iPhone,62.5,,0,0.265306122,-0.381632653,1,0,0,0.587,button_right,0.587,1,0,9,9,2,1,1001,ALMOND,m,,,,,,,,,,,,,,,,,,,,,,,,,,,,,,,,,,,,,,,,,,,,,,,,,,,,,,,,,,,,,,,
,,,,,,,,,,,,,,,,,61037a7204c3bfc31c1289dd,26,2022-02-12_17h22.52.153,lexical_decision_task_DD_L5,2021.2.3,iPhone,62.5,,0,-0.230612245,-0.298979592,1,0,0,0.801,button_left,0.801,1,0,10,10,9,1,1001,FARINY,z,,,,,,,,,,,,,,,,,,,,,,,,,,,,,,,,,,,,,,,,,,,,,,,,,,,,,,,,,,,,,,,
,,,,,,,,,,,,,,,,,61037a7204c3bfc31c1289dd,26,2022-02-12_17h22.52.153,lexical_decision_task_DD_L5,2021.2.3,iPhone,62.5,,0,-0.253061224,-0.280612245,1,0,0,0.781,button_left,0.781,1,0,11,11,12,1,1001,SPRINY,z,,,,,,,,,,,,,,,,,,,,,,,,,,,,,,,,,,,,,,,,,,,,,,,,,,,,,,,,,,,,,,,
,,,,,,,,,,,,,,,,,61037a7204c3bfc31c1289dd,26,2022-02-12_17h22.52.153,lexical_decision_task_DD_L5,2021.2.3,iPhone,62.5,,0,0.3,-0.374489796,1,0,0,0.799,button_right,0.799,1,0,12,12,5,1,1001,OBTAIN,m,,,,,,,,,,,,,,,,,,,,,,,,,,,,,,,,,,,,,,,,,,,,,,,,,,,,,,,,,,,,,,,
,,,,,,,,,,,,,,,,,61037a7204c3bfc31c1289dd,26,2022-02-12_17h22.52.153,lexical_decision_task_DD_L5,2021.2.3,iPhone,62.5,,0,-0.229591837,-0.293877551,1,0,0,0.733,button_left,0.733,1,0,13,13,8,1,1001,ASLERT,z,,,,,,,,,,,,,,,,,,,,,,,,,,,,,,,,,,,,,,,,,,,,,,,,,,,,,,,,,,,,,,,
,,,,,,,,,,,,,,,,,61037a7204c3bfc31c1289dd,26,2022-02-12_17h22.52.153,lexical_decision_task_DD_L5,2021.2.3,iPhone,62.5,,0,0.278571429,-0.348979592,1,0,0,0.667,button_right,0.667,1,0,14,14,7,1,1001,VOLUME,m,,,,,,,,,,,,,,,,,,,,,,,,,,,,,,,,,,,,,,,,,,,,,,,,,,,,,,,,,,,,,,,
,,,,,,,,,,,,,,,,,61037a7204c3bfc31c1289dd,26,2022-02-12_17h22.52.153,lexical_decision_task_DD_L5,2021.2.3,iPhone,62.5,,0,-0.293877551,-0.360204082,1,0,0,0.698,button_left,0.698,1,0,15,15,10,1,1001,INLADE,z,,,,,,,,,,,,,,,,,,,,,,,,,,,,,,,,,,,,,,,,,,,,,,,,,,,,,,,,,,,,,,,
,0.085714286,-0.396938776,1,0,0,instr_done_button,,,,,,1,end_of_practice,"You have completed the practice trials. During the experimental trials, you will not receive feedback. 
Before you begin, please ensure that you are in a comfortable and quiet location and will not be disturbed for about 15 minutes, as we cannot use your data if you do not complete all the trials. 
 When you are ready to start the experimental trials, please press space or touch the button below.",,,61037a7204c3bfc31c1289dd,26,2022-02-12_17h22.52.153,lexical_decision_task_DD_L5,2021.2.3,iPhone,62.5,,,,,,,,,,,,,,,,,,,,0,0,0,0,1,,,,,,,,,,,,,,,,,,,,,,,,,,,,,,,,,,,,,,,,,,,,,,,,,,,,,,,,,,
,,,,,,,,,,,,,,,,,61037a7204c3bfc31c1289dd,26,2022-02-12_17h22.52.153,lexical_decision_task_DD_L5,2021.2.3,iPhone,62.5,,,,,,,,,,0.909,1,,,,,,,,,,,,,,,0,-0.307142857,-0.343877551,1,0,0,0.909,button_left_main,-0.307142857,-0.343877551,1,0,0,,0,0,0,113,1,LINEW,LB,old,z,./images/LINEWLB.png,,,,,,,,,,,,,,,,,,,,,,,,,,,,,,,,,
,,,,,,,,,,,,,,,,,61037a7204c3bfc31c1289dd,26,2022-02-12_17h22.52.153,lexical_decision_task_DD_L5,2021.2.3,iPhone,62.5,,,,,,,,,,1.104,1,,,,,,,,,,,,,,,0,-0.32755102,-0.347959184,1,0,0,1.104,button_left_main,-0.32755102,-0.347959184,1,0,0,,0,1,1,94,1,BLANS,HB,old,z,./images/BLANSHB.png,,,,,,,,,,,,,,,,,,,,,,,,,,,,,,,,,
,,,,,,,,,,,,,,,,,61037a7204c3bfc31c1289dd,26,2022-02-12_17h22.52.153,lexical_decision_task_DD_L5,2021.2.3,iPhone,62.5,,,,,,,,,,0.658,1,,,,,,,,,,,,,,,0,0.317346939,-0.354081633,1,0,0,0.658,button_right_main,0.317346939,-0.354081633,1,0,0,,0,2,2,23,1,CLOTH,C,old,m,./images/CLOTH.png,,,,,,,,,,,,,,,,,,,,,,,,,,,,,,,,,
,,,,,,,,,,,,,,,,,61037a7204c3bfc31c1289dd,26,2022-02-12_17h22.52.153,lexical_decision_task_DD_L5,2021.2.3,iPhone,62.5,,,,,,,,,,1.009,1,,,,,,,,,,,,,,,0,-0.324489796,-0.330612245,1,0,0,1.009,button_left_main,-0.324489796,-0.330612245,1,0,0,,0,3,3,107,1,FASKS,LB,old,z,./images/FASKSLB.png,,,,,,,,,,,,,,,,,,,,,,,,,,,,,,,,,
,,,,,,,,,,,,,,,,,61037a7204c3bfc31c1289dd,26,2022-02-12_17h22.52.153,lexical_decision_task_DD_L5,2021.2.3,iPhone,62.5,,,,,,,,,,0.722,1,,,,,,,,,,,,,,,0,0.320408163,-0.293877551,1,0,0,0.722,button_right_main,0.320408163,-0.293877551,1,0,0,,0,4,4,43,1,STOOL,LB,old,m,./images/STOOLLB.png,,,,,,,,,,,,,,,,,,,,,,,,,,,,,,,,,
,,,,,,,,,,,,,,,,,61037a7204c3bfc31c1289dd,26,2022-02-12_17h22.52.153,lexical_decision_task_DD_L5,2021.2.3,iPhone,62.5,,,,,,,,,,0.898,1,,,,,,,,,,,,,,,0,0.284693878,-0.292857143,1,0,0,0.898,button_right_main,0.284693878,-0.292857143,1,0,0,,0,5,5,18,1,PARCEL,HB,old,m,./images/PARCELHB.png,,,,,,,,,,,,,,,,,,,,,,,,,,,,,,,,,
,,,,,,,,,,,,,,,,,61037a7204c3bfc31c1289dd,26,2022-02-12_17h22.52.153,lexical_decision_task_DD_L5,2021.2.3,iPhone,62.5,,,,,,,,,,0.82,1,,,,,,,,,,,,,,,0,0.320408163,-0.331632653,1,0,0,0.82,button_right_main,0.320408163,-0.331632653,1,0,0,,0,6,6,77,1,WHEEL,C,old,m,./images/WHEEL.png,,,,,,,,,,,,,,,,,,,,,,,,,,,,,,,,,
,,,,,,,,,,,,,,,,,61037a7204c3bfc31c1289dd,26,2022-02-12_17h22.52.153,lexical_decision_task_DD_L5,2021.2.3,iPhone,62.5,,,,,,,,,,0.679,1,,,,,,,,,,,,,,,0,0.301020408,-0.32755102,1,0,0,0.679,button_right_main,0.301020408,-0.32755102,1,0,0,,0,7,7,4,1,BOXER,LB,old,m,./images/BOXERLB.png,,,,,,,,,,,,,,,,,,,,,,,,,,,,,,,,,
,,,,,,,,,,,,,,,,,61037a7204c3bfc31c1289dd,26,2022-02-12_17h22.52.153,lexical_decision_task_DD_L5,2021.2.3,iPhone,62.5,,,,,,,,,,1.065,1,,,,,,,,,,,,,,,0,-0.32244898,-0.367346939,1,0,0,1.065,button_left_main,-0.32244898,-0.367346939,1,0,0,,0,8,8,85,1,CHULK,HB,old,z,./images/CHULKHB.png,,,,,,,,,,,,,,,,,,,,,,,,,,,,,,,,,
,,,,,,,,,,,,,,,,,61037a7204c3bfc31c1289dd,26,2022-02-12_17h22.52.153,lexical_decision_task_DD_L5,2021.2.3,iPhone,62.5,,,,,,,,,,1.05,1,,,,,,,,,,,,,,,0,-0.304081633,-0.382653061,1,0,0,1.05,button_left_main,-0.304081633,-0.382653061,1,0,0,,0,9,9,98,1,BAMPS,LB,old,z,./images/BAMPSLB.png,,,,,,,,,,,,,,,,,,,,,,,,,,,,,,,,,
,,,,,,,,,,,,,,,,,61037a7204c3bfc31c1289dd,26,2022-02-12_17h22.52.153,lexical_decision_task_DD_L5,2021.2.3,iPhone,62.5,,,,,,,,,,0.646,1,,,,,,,,,,,,,,,0,0.313265306,-0.348979592,1,0,0,0.646,button_right_main,0.313265306,-0.348979592,1,0,0,,0,10,10,25,1,CHALK,LB,old,m,./images/CHALKLB.png,,,,,,,,,,,,,,,,,,,,,,,,,,,,,,,,,
,,,,,,,,,,,,,,,,,61037a7204c3bfc31c1289dd,26,2022-02-12_17h22.52.153,lexical_decision_task_DD_L5,2021.2.3,iPhone,62.5,,,,,,,,,,0.741,1,,,,,,,,,,,,,,,0,0.293877551,-0.359183673,1,0,0,0.741,button_right_main,0.293877551,-0.359183673,1,0,0,,0,11,11,12,1,BLOKE,HB,old,m,./images/BLOKEHB.png,,,,,,,,,,,,,,,,,,,,,,,,,,,,,,,,,
,,,,,,,,,,,,,,,,,61037a7204c3bfc31c1289dd,26,2022-02-12_17h22.52.153,lexical_decision_task_DD_L5,2021.2.3,iPhone,62.5,,,,,,,,,,0.682,1,,,,,,,,,,,,,,,0,-0.292857143,-0.360204082,1,0,0,0.682,button_left_main,-0.292857143,-0.360204082,1,0,0,,0,12,12,96,1,KEAMS,C,old,z,./images/KEAMS.png,,,,,,,,,,,,,,,,,,,,,,,,,,,,,,,,,
,,,,,,,,,,,,,,,,,61037a7204c3bfc31c1289dd,26,2022-02-12_17h22.52.153,lexical_decision_task_DD_L5,2021.2.3,iPhone,62.5,,,,,,,,,,0.701,1,,,,,,,,,,,,,,,0,0.294897959,-0.369387755,1,0,0,0.701,button_right_main,0.294897959,-0.369387755,1,0,0,,0,13,13,64,1,BRIDE,LB,old,m,./images/BRIDELB.png,,,,,,,,,,,,,,,,,,,,,,,,,,,,,,,,,
,,,,,,,,,,,,,,,,,61037a7204c3bfc31c1289dd,26,2022-02-12_17h22.52.153,lexical_decision_task_DD_L5,2021.2.3,iPhone,62.5,,,,,,,,,,0.735,1,,,,,,,,,,,,,,,0,-0.396938776,-0.366326531,1,0,0,0.735,button_left_main,-0.396938776,-0.366326531,1,0,0,,0,14,14,103,1,FLORT,HB,old,z,./images/FLORTHB.png,,,,,,,,,,,,,,,,,,,,,,,,,,,,,,,,,
,,,,,,,,,,,,,,,,,61037a7204c3bfc31c1289dd,26,2022-02-12_17h22.52.153,lexical_decision_task_DD_L5,2021.2.3,iPhone,62.5,,,,,,,,,,0.565,1,,,,,,,,,,,,,,,0,0.324489796,-0.359183673,1,0,0,0.565,button_right_main,0.324489796,-0.359183673,1,0,0,,0,15,15,74,1,JUMPER,C,old,m,./images/JUMPER.png,,,,,,,,,,,,,,,,,,,,,,,,,,,,,,,,,
,,,,,,,,,,,,,,,,,61037a7204c3bfc31c1289dd,26,2022-02-12_17h22.52.153,lexical_decision_task_DD_L5,2021.2.3,iPhone,62.5,,,,,,,,,,0.71,1,,,,,,,,,,,,,,,0,-0.362244898,-0.379591837,1,0,0,0.71,button_left_main,-0.362244898,-0.379591837,1,0,0,,0,16,16,111,1,HOSSE,C,old,z,./images/HOSSE.png,,,,,,,,,,,,,,,,,,,,,,,,,,,,,,,,,
,,,,,,,,,,,,,,,,,61037a7204c3bfc31c1289dd,26,2022-02-12_17h22.52.153,lexical_decision_task_DD_L5,2021.2.3,iPhone,62.5,,,,,,,,,,0.816,1,,,,,,,,,,,,,,,0,0.231632653,-0.310204082,1,0,0,0.816,button_right_main,0.231632653,-0.310204082,1,0,0,,0,17,17,29,1,PISTOL,C,old,m,./images/PISTOL.png,,,,,,,,,,,,,,,,,,,,,,,,,,,,,,,,,
,,,,,,,,,,,,,,,,,61037a7204c3bfc31c1289dd,26,2022-02-12_17h22.52.153,lexical_decision_task_DD_L5,2021.2.3,iPhone,62.5,,,,,,,,,,0.825,0,,,,,,,,,,,,,,,0,0.278571429,-0.323469388,1,0,0,0.825,button_right_main,0.278571429,-0.323469388,1,0,0,,0,18,18,90,1,NEAST,C,old,z,./images/NEAST.png,,,,,,,,,,,,,,,,,,,,,,,,,,,,,,,,,
,,,,,,,,,,,,,,,,,61037a7204c3bfc31c1289dd,26,2022-02-12_17h22.52.153,lexical_decision_task_DD_L5,2021.2.3,iPhone,62.5,,,,,,,,,,0.822,1,,,,,,,,,,,,,,,0,0.320408163,-0.292857143,1,0,0,0.822,button_right_main,0.320408163,-0.292857143,1,0,0,,0,19,19,51,1,SAUCE,HB,old,m,./images/SAUCEHB.png,,,,,,,,,,,,,,,,,,,,,,,,,,,,,,,,,
,,,,,,,,,,,,,,,,,61037a7204c3bfc31c1289dd,26,2022-02-12_17h22.52.153,lexical_decision_task_DD_L5,2021.2.3,iPhone,62.5,,,,,,,,,,0.665,1,,,,,,,,,,,,,,,0,0.326530612,-0.310204082,1,0,0,0.665,button_right_main,0.326530612,-0.310204082,1,0,0,,0,20,20,39,1,CANDY,HB,old,m,./images/CANDYHB.png,,,,,,,,,,,,,,,,,,,,,,,,,,,,,,,,,
,,,,,,,,,,,,,,,,,61037a7204c3bfc31c1289dd,26,2022-02-12_17h22.52.153,lexical_decision_task_DD_L5,2021.2.3,iPhone,62.5,,,,,,,,,,0.941,1,,,,,,,,,,,,,,,0,-0.324489796,-0.366326531,1,0,0,0.941,button_left_main,-0.324489796,-0.366326531,1,0,0,,0,21,21,106,1,CLUMS,HB,old,z,./images/CLUMSHB.png,,,,,,,,,,,,,,,,,,,,,,,,,,,,,,,,,
,,,,,,,,,,,,,,,,,61037a7204c3bfc31c1289dd,26,2022-02-12_17h22.52.153,lexical_decision_task_DD_L5,2021.2.3,iPhone,62.5,,,,,,,,,,0.832,1,,,,,,,,,,,,,,,0,0.333673469,-0.354081633,1,0,0,0.832,button_right_main,0.333673469,-0.354081633,1,0,0,,0,22,22,58,1,CANOE,LB,old,m,./images/CANOELB.png,,,,,,,,,,,,,,,,,,,,,,,,,,,,,,,,,
,,,,,,,,,,,,,,,,,61037a7204c3bfc31c1289dd,26,2022-02-12_17h22.52.153,lexical_decision_task_DD_L5,2021.2.3,iPhone,62.5,,,,,,,,,,0.683,1,,,,,,,,,,,,,,,0,0.32244898,-0.370408163,1,0,0,0.683,button_right_main,0.32244898,-0.370408163,1,0,0,,0,23,23,42,1,CHAIN,HB,old,m,./images/CHAINHB.png,,,,,,,,,,,,,,,,,,,,,,,,,,,,,,,,,
,,,,,,,,,,,,,,,,,61037a7204c3bfc31c1289dd,26,2022-02-12_17h22.52.153,lexical_decision_task_DD_L5,2021.2.3,iPhone,62.5,,,,,,,,,,0.615,1,,,,,,,,,,,,,,,0,0.354081633,-0.294897959,1,0,0,0.615,button_right_main,0.354081633,-0.294897959,1,0,0,,0,24,24,17,1,PARADE,C,old,m,./images/PARADE.png,,,,,,,,,,,,,,,,,,,,,,,,,,,,,,,,,
,,,,,,,,,,,,,,,,,61037a7204c3bfc31c1289dd,26,2022-02-12_17h22.52.153,lexical_decision_task_DD_L5,2021.2.3,iPhone,62.5,,,,,,,,,,0.663,1,,,,,,,,,,,,,,,0,0.32755102,-0.301020408,1,0,0,0.663,button_right_main,0.32755102,-0.301020408,1,0,0,,0,25,25,34,1,RAZOR,LB,old,m,./images/RAZORLB.png,,,,,,,,,,,,,,,,,,,,,,,,,,,,,,,,,
,,,,,,,,,,,,,,,,,61037a7204c3bfc31c1289dd,26,2022-02-12_17h22.52.153,lexical_decision_task_DD_L5,2021.2.3,iPhone,62.5,,,,,,,,,,0.758,1,,,,,,,,,,,,,,,0,0.345918367,-0.360204082,1,0,0,0.758,button_right_main,0.345918367,-0.360204082,1,0,0,,0,26,26,21,1,DANCER,HB,old,m,./images/DANCERHB.png,,,,,,,,,,,,,,,,,,,,,,,,,,,,,,,,,
,,,,,,,,,,,,,,,,,61037a7204c3bfc31c1289dd,26,2022-02-12_17h22.52.153,lexical_decision_task_DD_L5,2021.2.3,iPhone,62.5,,,,,,,,,,0.748,1,,,,,,,,,,,,,,,0,-0.375510204,-0.369387755,1,0,0,0.748,button_left_main,-0.375510204,-0.369387755,1,0,0,,0,27,27,146,1,MOOST,LB,old,z,./images/MOOSTLB.png,,,,,,,,,,,,,,,,,,,,,,,,,,,,,,,,,
,,,,,,,,,,,,,,,,,61037a7204c3bfc31c1289dd,26,2022-02-12_17h22.52.153,lexical_decision_task_DD_L5,2021.2.3,iPhone,62.5,,,,,,,,,,0.929,1,,,,,,,,,,,,,,,0,-0.346938776,-0.413265306,1,0,0,0.929,button_left_main,-0.285714286,-0.330612245,1,0,0,,0,28,28,120,1,RINED,C,old,z,./images/RINED.png,,,,,,,,,,,,,,,,,,,,,,,,,,,,,,,,,
,,,,,,,,,,,,,,,,,61037a7204c3bfc31c1289dd,26,2022-02-12_17h22.52.153,lexical_decision_task_DD_L5,2021.2.3,iPhone,62.5,,,,,,,,,,0.569,1,,,,,,,,,,,,,,,0,0.294897959,-0.3,1,0,0,0.569,button_right_main,0.294897959,-0.3,1,0,0,,0,29,29,19,1,DONKEY,LB,old,m,./images/DONKEYLB.png,,,,,,,,,,,,,,,,,,,,,,,,,,,,,,,,,
,,,,,,,,,,,,,,,,,61037a7204c3bfc31c1289dd,26,2022-02-12_17h22.52.153,lexical_decision_task_DD_L5,2021.2.3,iPhone,62.5,,,,,,,,,,1.247,1,,,,,,,,,,,,,,,0,-0.28877551,-0.332653061,1,0,0,1.247,button_left_main,-0.28877551,-0.332653061,1,0,0,,0,30,30,141,1,PLEET,C,old,z,./images/PLEET.png,,,,,,,,,,,,,,,,,,,,,,,,,,,,,,,,,
,,,,,,,,,,,,,,,,,61037a7204c3bfc31c1289dd,26,2022-02-12_17h22.52.153,lexical_decision_task_DD_L5,2021.2.3,iPhone,62.5,,,,,,,,,,0.531,1,,,,,,,,,,,,,,,0,0.297959184,-0.359183673,1,0,0,0.531,button_right_main,0.297959184,-0.359183673,1,0,0,,0,31,31,2,1,STOVE,C,old,m,./images/STOVE.png,,,,,,,,,,,,,,,,,,,,,,,,,,,,,,,,,
,,,,,,,,,,,,,,,,,61037a7204c3bfc31c1289dd,26,2022-02-12_17h22.52.153,lexical_decision_task_DD_L5,2021.2.3,iPhone,62.5,,,,,,,,,,0.814,1,,,,,,,,,,,,,,,0,0.3,-0.307142857,1,0,0,0.814,button_right_main,0.3,-0.307142857,1,0,0,,0,32,32,0,1,WALNUT,HB,old,m,./images/WALNUTHB.png,,,,,,,,,,,,,,,,,,,,,,,,,,,,,,,,,
,,,,,,,,,,,,,,,,,61037a7204c3bfc31c1289dd,26,2022-02-12_17h22.52.153,lexical_decision_task_DD_L5,2021.2.3,iPhone,62.5,,,,,,,,,,1.024,1,,,,,,,,,,,,,,,0,-0.321428571,-0.366326531,1,0,0,1.024,button_left_main,-0.321428571,-0.366326531,1,0,0,,0,33,33,115,1,MAWNS,HB,old,z,./images/MAWNSHB.png,,,,,,,,,,,,,,,,,,,,,,,,,,,,,,,,,
,,,,,,,,,,,,,,,,,61037a7204c3bfc31c1289dd,26,2022-02-12_17h22.52.153,lexical_decision_task_DD_L5,2021.2.3,iPhone,62.5,,,,,,,,,,0.794,1,,,,,,,,,,,,,,,0,-0.296938776,-0.344897959,1,0,0,0.794,button_left_main,-0.296938776,-0.344897959,1,0,0,,0,34,34,132,1,SCIFF,C,old,z,./images/SCIFF.png,,,,,,,,,,,,,,,,,,,,,,,,,,,,,,,,,
,,,,,,,,,,,,,,,,,61037a7204c3bfc31c1289dd,26,2022-02-12_17h22.52.153,lexical_decision_task_DD_L5,2021.2.3,iPhone,62.5,,,,,,,,,,0.525,1,,,,,,,,,,,,,,,0,0.309183673,-0.360204082,1,0,0,0.525,button_right_main,0.309183673,-0.360204082,1,0,0,,0,35,35,5,1,BAMBOO,C,old,m,./images/BAMBOO.png,,,,,,,,,,,,,,,,,,,,,,,,,,,,,,,,,
,,,,,,,,,,,,,,,,,61037a7204c3bfc31c1289dd,26,2022-02-12_17h22.52.153,lexical_decision_task_DD_L5,2021.2.3,iPhone,62.5,,,,,,,,,,0.792,1,,,,,,,,,,,,,,,0,-0.31122449,-0.354081633,1,0,0,0.792,button_left_main,-0.31122449,-0.354081633,1,0,0,,0,36,36,89,1,DRIEK,LB,old,z,./images/DRIEKLB.png,,,,,,,,,,,,,,,,,,,,,,,,,,,,,,,,,
,,,,,,,,,,,,,,,,,61037a7204c3bfc31c1289dd,26,2022-02-12_17h22.52.153,lexical_decision_task_DD_L5,2021.2.3,iPhone,62.5,,,,,,,,,,1.049,1,,,,,,,,,,,,,,,0,-0.314285714,-0.334693878,1,0,0,1.049,button_left_main,-0.314285714,-0.334693878,1,0,0,,0,37,37,166,1,SHORY,HB,old,z,./images/SHORYHB.png,,,,,,,,,,,,,,,,,,,,,,,,,,,,,,,,,
,,,,,,,,,,,,,,,,,61037a7204c3bfc31c1289dd,26,2022-02-12_17h22.52.153,lexical_decision_task_DD_L5,2021.2.3,iPhone,62.5,,,,,,,,,,0.925,1,,,,,,,,,,,,,,,0,0.324489796,-0.342857143,1,0,0,0.925,button_right_main,0.324489796,-0.342857143,1,0,0,,0,38,38,10,1,GARDEN,LB,old,m,./images/GARDENLB.png,,,,,,,,,,,,,,,,,,,,,,,,,,,,,,,,,
,,,,,,,,,,,,,,,,,61037a7204c3bfc31c1289dd,26,2022-02-12_17h22.52.153,lexical_decision_task_DD_L5,2021.2.3,iPhone,62.5,,,,,,,,,,0.721,1,,,,,,,,,,,,,,,0,0.3,-0.317346939,1,0,0,0.721,button_right_main,0.3,-0.317346939,1,0,0,,0,39,39,41,1,STREAM,C,old,m,./images/STREAM.png,,,,,,,,,,,,,,,,,,,,,,,,,,,,,,,,,
,,,,,,,,,,,,,,,,,61037a7204c3bfc31c1289dd,26,2022-02-12_17h22.52.153,lexical_decision_task_DD_L5,2021.2.3,iPhone,62.5,,,,,,,,,,0.649,1,,,,,,,,,,,,,,,0,0.32244898,-0.313265306,1,0,0,0.649,button_right_main,0.32244898,-0.313265306,1,0,0,,0,40,40,69,1,ARROW,HB,old,m,./images/ARROWHB.png,,,,,,,,,,,,,,,,,,,,,,,,,,,,,,,,,
,,,,,,,,,,,,,,,,,61037a7204c3bfc31c1289dd,26,2022-02-12_17h22.52.153,lexical_decision_task_DD_L5,2021.2.3,iPhone,62.5,,,,,,,,,,0.984,1,,,,,,,,,,,,,,,0,0.313265306,-0.31122449,1,0,0,0.984,button_right_main,0.02755102,-0.414285714,1,0,0,,0,41,41,81,1,DRILL,HB,old,m,./images/DRILLHB.png,break_done_button,,,,,,,,,,,,,,,,,,,,,,,,,,,,,,,,
,,,,,,,,,,,,,,,,,61037a7204c3bfc31c1289dd,26,2022-02-12_17h22.52.153,lexical_decision_task_DD_L5,2021.2.3,iPhone,62.5,,,,,,,,,,0.898,1,,,,,,,,,,,,,,,0,-0.290816327,-0.323469388,1,0,0,0.898,button_left_main,-0.290816327,-0.323469388,1,0,0,,0,42,42,109,1,BURGE,HB,old,z,./images/BURGEHB.png,,,,,,,,,,,,,,,,,,,,,,,,,,,,,,,,,
,,,,,,,,,,,,,,,,,61037a7204c3bfc31c1289dd,26,2022-02-12_17h22.52.153,lexical_decision_task_DD_L5,2021.2.3,iPhone,62.5,,,,,,,,,,0.888,1,,,,,,,,,,,,,,,0,-0.324489796,-0.353061224,1,0,0,0.888,button_left_main,-0.324489796,-0.353061224,1,0,0,,0,43,43,155,1,CANGY,LB,old,z,./images/CANGYLB.png,,,,,,,,,,,,,,,,,,,,,,,,,,,,,,,,,
,,,,,,,,,,,,,,,,,61037a7204c3bfc31c1289dd,26,2022-02-12_17h22.52.153,lexical_decision_task_DD_L5,2021.2.3,iPhone,62.5,,,,,,,,,,0.932,1,,,,,,,,,,,,,,,0,0.319387755,-0.287755102,1,0,0,0.932,button_right_main,0.319387755,-0.287755102,1,0,0,,0,44,44,27,1,BUTTER,HB,old,m,./images/BUTTERHB.png,,,,,,,,,,,,,,,,,,,,,,,,,,,,,,,,,
,,,,,,,,,,,,,,,,,61037a7204c3bfc31c1289dd,26,2022-02-12_17h22.52.153,lexical_decision_task_DD_L5,2021.2.3,iPhone,62.5,,,,,,,,,,0.765,1,,,,,,,,,,,,,,,0,0.298979592,-0.310204082,1,0,0,0.765,button_right_main,0.298979592,-0.310204082,1,0,0,,0,45,45,73,1,GLOVE,LB,old,m,./images/GLOVELB.png,,,,,,,,,,,,,,,,,,,,,,,,,,,,,,,,,
,,,,,,,,,,,,,,,,,61037a7204c3bfc31c1289dd,26,2022-02-12_17h22.52.153,lexical_decision_task_DD_L5,2021.2.3,iPhone,62.5,,,,,,,,,,0.928,1,,,,,,,,,,,,,,,0,-0.293877551,-0.3,1,0,0,0.928,button_left_main,-0.293877551,-0.3,1,0,0,,0,46,46,112,1,MYING,HB,old,z,./images/MYINGHB.png,,,,,,,,,,,,,,,,,,,,,,,,,,,,,,,,,
,,,,,,,,,,,,,,,,,61037a7204c3bfc31c1289dd,26,2022-02-12_17h22.52.153,lexical_decision_task_DD_L5,2021.2.3,iPhone,62.5,,,,,,,,,,0.79,1,,,,,,,,,,,,,,,0,-0.313265306,-0.276530612,1,0,0,0.79,button_left_main,-0.313265306,-0.276530612,1,0,0,,0,47,47,124,1,TUNCH,HB,old,z,./images/TUNCHHB.png,,,,,,,,,,,,,,,,,,,,,,,,,,,,,,,,,
,,,,,,,,,,,,,,,,,61037a7204c3bfc31c1289dd,26,2022-02-12_17h22.52.153,lexical_decision_task_DD_L5,2021.2.3,iPhone,62.5,,,,,,,,,,0.684,1,,,,,,,,,,,,,,,0,-0.26122449,-0.343877551,1,0,0,0.684,button_left_main,-0.26122449,-0.343877551,1,0,0,,0,48,48,108,1,GRUET,C,old,z,./images/GRUET.png,,,,,,,,,,,,,,,,,,,,,,,,,,,,,,,,,
,,,,,,,,,,,,,,,,,61037a7204c3bfc31c1289dd,26,2022-02-12_17h22.52.153,lexical_decision_task_DD_L5,2021.2.3,iPhone,62.5,,,,,,,,,,1.074,1,,,,,,,,,,,,,,,0,-0.290816327,-0.384693878,1,0,0,1.074,button_left_main,-0.290816327,-0.384693878,1,0,0,,0,49,49,151,1,TINKY,HB,old,z,./images/TINKYHB.png,,,,,,,,,,,,,,,,,,,,,,,,,,,,,,,,,
,,,,,,,,,,,,,,,,,61037a7204c3bfc31c1289dd,26,2022-02-12_17h22.52.153,lexical_decision_task_DD_L5,2021.2.3,iPhone,62.5,,,,,,,,,,0.924,1,,,,,,,,,,,,,,,0,-0.309183673,-0.360204082,1,0,0,0.924,button_left_main,-0.309183673,-0.360204082,1,0,0,,0,50,50,97,1,CHIDS,HB,old,z,./images/CHIDSHB.png,,,,,,,,,,,,,,,,,,,,,,,,,,,,,,,,,
,,,,,,,,,,,,,,,,,61037a7204c3bfc31c1289dd,26,2022-02-12_17h22.52.153,lexical_decision_task_DD_L5,2021.2.3,iPhone,62.5,,,,,,,,,,1.055,1,,,,,,,,,,,,,,,0,0.328571429,-0.32244898,1,0,0,1.055,button_right_main,0.328571429,-0.32244898,1,0,0,,0,51,51,44,1,BASKET,C,old,m,./images/BASKET.png,,,,,,,,,,,,,,,,,,,,,,,,,,,,,,,,,
,,,,,,,,,,,,,,,,,61037a7204c3bfc31c1289dd,26,2022-02-12_17h22.52.153,lexical_decision_task_DD_L5,2021.2.3,iPhone,62.5,,,,,,,,,,0.63,1,,,,,,,,,,,,,,,0,0.323469388,-0.357142857,1,0,0,0.63,button_right_main,0.323469388,-0.357142857,1,0,0,,0,52,52,83,1,WHISKY,C,old,m,./images/WHISKY.png,,,,,,,,,,,,,,,,,,,,,,,,,,,,,,,,,
,,,,,,,,,,,,,,,,,61037a7204c3bfc31c1289dd,26,2022-02-12_17h22.52.153,lexical_decision_task_DD_L5,2021.2.3,iPhone,62.5,,,,,,,,,,0.701,1,,,,,,,,,,,,,,,0,-0.273469388,-0.315306122,1,0,0,0.701,button_left_main,-0.273469388,-0.315306122,1,0,0,,0,53,53,135,1,JOODY,C,old,z,./images/JOODY.png,,,,,,,,,,,,,,,,,,,,,,,,,,,,,,,,,
,,,,,,,,,,,,,,,,,61037a7204c3bfc31c1289dd,26,2022-02-12_17h22.52.153,lexical_decision_task_DD_L5,2021.2.3,iPhone,62.5,,,,,,,,,,0.665,1,,,,,,,,,,,,,,,0,0.291836735,-0.367346939,1,0,0,0.665,button_right_main,0.291836735,-0.367346939,1,0,0,,0,54,54,22,1,CLOWN,LB,old,m,./images/CLOWNLB.png,,,,,,,,,,,,,,,,,,,,,,,,,,,,,,,,,
,,,,,,,,,,,,,,,,,61037a7204c3bfc31c1289dd,26,2022-02-12_17h22.52.153,lexical_decision_task_DD_L5,2021.2.3,iPhone,62.5,,,,,,,,,,1.184,1,,,,,,,,,,,,,,,0,0.296938776,-0.296938776,1,0,0,1.184,button_right_main,0.296938776,-0.296938776,1,0,0,,0,55,55,49,1,BISHOP,LB,old,m,./images/BISHOPLB.png,,,,,,,,,,,,,,,,,,,,,,,,,,,,,,,,,
,,,,,,,,,,,,,,,,,61037a7204c3bfc31c1289dd,26,2022-02-12_17h22.52.153,lexical_decision_task_DD_L5,2021.2.3,iPhone,62.5,,,,,,,,,,0.839,1,,,,,,,,,,,,,,,0,-0.326530612,-0.342857143,1,0,0,0.839,button_left_main,-0.326530612,-0.342857143,1,0,0,,0,56,56,139,1,BLEAR,HB,old,z,./images/BLEARHB.png,,,,,,,,,,,,,,,,,,,,,,,,,,,,,,,,,
,,,,,,,,,,,,,,,,,61037a7204c3bfc31c1289dd,26,2022-02-12_17h22.52.153,lexical_decision_task_DD_L5,2021.2.3,iPhone,62.5,,,,,,,,,,0.782,1,,,,,,,,,,,,,,,0,-0.293877551,-0.332653061,1,0,0,0.782,button_left_main,-0.293877551,-0.332653061,1,0,0,,0,57,57,126,1,GUELS,C,old,z,./images/GUELS.png,,,,,,,,,,,,,,,,,,,,,,,,,,,,,,,,,
,,,,,,,,,,,,,,,,,61037a7204c3bfc31c1289dd,26,2022-02-12_17h22.52.153,lexical_decision_task_DD_L5,2021.2.3,iPhone,62.5,,,,,,,,,,1.223,1,,,,,,,,,,,,,,,0,0.308163265,-0.356122449,1,0,0,1.223,button_right_main,0.308163265,-0.356122449,1,0,0,,0,58,58,6,1,STAIN,HB,old,m,./images/STAINHB.png,,,,,,,,,,,,,,,,,,,,,,,,,,,,,,,,,
,,,,,,,,,,,,,,,,,61037a7204c3bfc31c1289dd,26,2022-02-12_17h22.52.153,lexical_decision_task_DD_L5,2021.2.3,iPhone,62.5,,,,,,,,,,0.879,1,,,,,,,,,,,,,,,0,0.335714286,-0.291836735,1,0,0,0.879,button_right_main,0.335714286,-0.291836735,1,0,0,,0,59,59,32,1,HOCKEY,C,old,m,./images/HOCKEY.png,,,,,,,,,,,,,,,,,,,,,,,,,,,,,,,,,
,,,,,,,,,,,,,,,,,61037a7204c3bfc31c1289dd,26,2022-02-12_17h22.52.153,lexical_decision_task_DD_L5,2021.2.3,iPhone,62.5,,,,,,,,,,0.758,1,,,,,,,,,,,,,,,0,0.302040816,-0.329591837,1,0,0,0.758,button_right_main,0.302040816,-0.329591837,1,0,0,,0,60,60,60,1,CURRY,HB,old,m,./images/CURRYHB.png,,,,,,,,,,,,,,,,,,,,,,,,,,,,,,,,,
,,,,,,,,,,,,,,,,,61037a7204c3bfc31c1289dd,26,2022-02-12_17h22.52.153,lexical_decision_task_DD_L5,2021.2.3,iPhone,62.5,,,,,,,,,,0.703,1,,,,,,,,,,,,,,,0,-0.345918367,-0.335714286,1,0,0,0.703,button_left_main,-0.345918367,-0.335714286,1,0,0,,0,61,61,137,1,JOOST,LB,old,z,./images/JOOSTLB.png,,,,,,,,,,,,,,,,,,,,,,,,,,,,,,,,,
,,,,,,,,,,,,,,,,,61037a7204c3bfc31c1289dd,26,2022-02-12_17h22.52.153,lexical_decision_task_DD_L5,2021.2.3,iPhone,62.5,,,,,,,,,,0.75,1,,,,,,,,,,,,,,,0,0.305102041,-0.342857143,1,0,0,0.75,button_right_main,0.305102041,-0.342857143,1,0,0,,0,62,62,9,1,DIVER,HB,old,m,./images/DIVERHB.png,,,,,,,,,,,,,,,,,,,,,,,,,,,,,,,,,
,,,,,,,,,,,,,,,,,61037a7204c3bfc31c1289dd,26,2022-02-12_17h22.52.153,lexical_decision_task_DD_L5,2021.2.3,iPhone,62.5,,,,,,,,,,0.771,1,,,,,,,,,,,,,,,0,0.312244898,-0.346938776,1,0,0,0.771,button_right_main,0.312244898,-0.346938776,1,0,0,,0,63,63,11,1,MEDAL,C,old,m,./images/MEDAL.png,,,,,,,,,,,,,,,,,,,,,,,,,,,,,,,,,
,,,,,,,,,,,,,,,,,61037a7204c3bfc31c1289dd,26,2022-02-12_17h22.52.153,lexical_decision_task_DD_L5,2021.2.3,iPhone,62.5,,,,,,,,,,0.799,1,,,,,,,,,,,,,,,0,-0.301020408,-0.342857143,1,0,0,0.799,button_left_main,-0.301020408,-0.342857143,1,0,0,,0,64,64,92,1,PAIMS,LB,old,z,./images/PAIMSLB.png,,,,,,,,,,,,,,,,,,,,,,,,,,,,,,,,,
,,,,,,,,,,,,,,,,,61037a7204c3bfc31c1289dd,26,2022-02-12_17h22.52.153,lexical_decision_task_DD_L5,2021.2.3,iPhone,62.5,,,,,,,,,,0.608,0,,,,,,,,,,,,,,,0,0.312244898,-0.310204082,1,0,0,0.608,button_right_main,0.312244898,-0.310204082,1,0,0,,0,65,65,128,1,GRIFT,LB,old,z,./images/GRIFTLB.png,,,,,,,,,,,,,,,,,,,,,,,,,,,,,,,,,
,,,,,,,,,,,,,,,,,61037a7204c3bfc31c1289dd,26,2022-02-12_17h22.52.153,lexical_decision_task_DD_L5,2021.2.3,iPhone,62.5,,,,,,,,,,1.132,1,,,,,,,,,,,,,,,0,-0.304081633,-0.335714286,1,0,0,1.132,button_left_main,-0.304081633,-0.335714286,1,0,0,,0,66,66,99,1,BACKY,C,old,z,./images/BACKY.png,,,,,,,,,,,,,,,,,,,,,,,,,,,,,,,,,
,,,,,,,,,,,,,,,,,61037a7204c3bfc31c1289dd,26,2022-02-12_17h22.52.153,lexical_decision_task_DD_L5,2021.2.3,iPhone,62.5,,,,,,,,,,0.613,1,,,,,,,,,,,,,,,0,0.32755102,-0.325510204,1,0,0,0.613,button_right_main,0.32755102,-0.325510204,1,0,0,,0,67,67,66,1,STATUE,HB,old,m,./images/STATUEHB.png,,,,,,,,,,,,,,,,,,,,,,,,,,,,,,,,,
,,,,,,,,,,,,,,,,,61037a7204c3bfc31c1289dd,26,2022-02-12_17h22.52.153,lexical_decision_task_DD_L5,2021.2.3,iPhone,62.5,,,,,,,,,,0.881,1,,,,,,,,,,,,,,,0,-0.293877551,-0.325510204,1,0,0,0.881,button_left_main,-0.293877551,-0.325510204,1,0,0,,0,68,68,148,1,JOMS,HB,old,z,./images/JOMSHB.png,,,,,,,,,,,,,,,,,,,,,,,,,,,,,,,,,
,,,,,,,,,,,,,,,,,61037a7204c3bfc31c1289dd,26,2022-02-12_17h22.52.153,lexical_decision_task_DD_L5,2021.2.3,iPhone,62.5,,,,,,,,,,0.903,1,,,,,,,,,,,,,,,0,-0.302040816,-0.319387755,1,0,0,0.903,button_left_main,-0.302040816,-0.319387755,1,0,0,,0,69,69,140,1,DOVET,LB,old,z,./images/DOVETLB.png,,,,,,,,,,,,,,,,,,,,,,,,,,,,,,,,,
,,,,,,,,,,,,,,,,,61037a7204c3bfc31c1289dd,26,2022-02-12_17h22.52.153,lexical_decision_task_DD_L5,2021.2.3,iPhone,62.5,,,,,,,,,,0.872,1,,,,,,,,,,,,,,,0,-0.279591837,-0.297959184,1,0,0,0.872,button_left_main,-0.279591837,-0.297959184,1,0,0,,0,70,70,153,1,CLUPS,C,old,z,./images/CLUPS.png,,,,,,,,,,,,,,,,,,,,,,,,,,,,,,,,,
,,,,,,,,,,,,,,,,,61037a7204c3bfc31c1289dd,26,2022-02-12_17h22.52.153,lexical_decision_task_DD_L5,2021.2.3,iPhone,62.5,,,,,,,,,,0.724,1,,,,,,,,,,,,,,,0,-0.287755102,-0.27244898,1,0,0,0.724,button_left_main,-0.287755102,-0.27244898,1,0,0,,0,71,71,102,1,DULLE,C,old,z,./images/DULLE.png,,,,,,,,,,,,,,,,,,,,,,,,,,,,,,,,,
,,,,,,,,,,,,,,,,,61037a7204c3bfc31c1289dd,26,2022-02-12_17h22.52.153,lexical_decision_task_DD_L5,2021.2.3,iPhone,62.5,,,,,,,,,,0.885,1,,,,,,,,,,,,,,,0,-0.332653061,-0.319387755,1,0,0,0.885,button_left_main,-0.332653061,-0.319387755,1,0,0,,0,72,72,160,1,VEETS,HB,old,z,./images/VEETSHB.png,,,,,,,,,,,,,,,,,,,,,,,,,,,,,,,,,
,,,,,,,,,,,,,,,,,61037a7204c3bfc31c1289dd,26,2022-02-12_17h22.52.153,lexical_decision_task_DD_L5,2021.2.3,iPhone,62.5,,,,,,,,,,0.588,1,,,,,,,,,,,,,,,0,0.32244898,-0.291836735,1,0,0,0.588,button_right_main,0.32244898,-0.291836735,1,0,0,,0,73,73,45,1,MONKEY,HB,old,m,./images/MONKEYHB.png,,,,,,,,,,,,,,,,,,,,,,,,,,,,,,,,,
,,,,,,,,,,,,,,,,,61037a7204c3bfc31c1289dd,26,2022-02-12_17h22.52.153,lexical_decision_task_DD_L5,2021.2.3,iPhone,62.5,,,,,,,,,,0.749,1,,,,,,,,,,,,,,,0,-0.342857143,-0.32244898,1,0,0,0.749,button_left_main,-0.342857143,-0.32244898,1,0,0,,0,74,74,162,1,LEICH,C,old,z,./images/LEICH.png,,,,,,,,,,,,,,,,,,,,,,,,,,,,,,,,,
,,,,,,,,,,,,,,,,,61037a7204c3bfc31c1289dd,26,2022-02-12_17h22.52.153,lexical_decision_task_DD_L5,2021.2.3,iPhone,62.5,,,,,,,,,,1.211,1,,,,,,,,,,,,,,,0,0.369387755,-0.362244898,1,0,0,1.211,button_right_main,0.369387755,-0.362244898,1,0,0,,0,75,75,3,1,CRATER,HB,old,m,./images/CRATERHB.png,,,,,,,,,,,,,,,,,,,,,,,,,,,,,,,,,
,,,,,,,,,,,,,,,,,61037a7204c3bfc31c1289dd,26,2022-02-12_17h22.52.153,lexical_decision_task_DD_L5,2021.2.3,iPhone,62.5,,,,,,,,,,0.767,1,,,,,,,,,,,,,,,0,0.351020408,-0.355102041,1,0,0,0.767,button_right_main,0.351020408,-0.355102041,1,0,0,,0,76,76,68,1,VALLEY,C,old,m,./images/VALLEY.png,,,,,,,,,,,,,,,,,,,,,,,,,,,,,,,,,
,,,,,,,,,,,,,,,,,61037a7204c3bfc31c1289dd,26,2022-02-12_17h22.52.153,lexical_decision_task_DD_L5,2021.2.3,iPhone,62.5,,,,,,,,,,0.664,1,,,,,,,,,,,,,,,0,-0.307142857,-0.323469388,1,0,0,0.664,button_left_main,-0.307142857,-0.323469388,1,0,0,,0,77,77,133,1,POWDY,HB,old,z,./images/POWDYHB.png,,,,,,,,,,,,,,,,,,,,,,,,,,,,,,,,,
,,,,,,,,,,,,,,,,,61037a7204c3bfc31c1289dd,26,2022-02-12_17h22.52.153,lexical_decision_task_DD_L5,2021.2.3,iPhone,62.5,,,,,,,,,,0.832,1,,,,,,,,,,,,,,,0,-0.269387755,-0.346938776,1,0,0,0.832,button_left_main,-0.269387755,-0.346938776,1,0,0,,0,78,78,152,1,FRAIN,LB,old,z,./images/FRAINLB.png,,,,,,,,,,,,,,,,,,,,,,,,,,,,,,,,,
,,,,,,,,,,,,,,,,,61037a7204c3bfc31c1289dd,26,2022-02-12_17h22.52.153,lexical_decision_task_DD_L5,2021.2.3,iPhone,62.5,,,,,,,,,,0.565,1,,,,,,,,,,,,,,,0,0.326530612,-0.275510204,1,0,0,0.565,button_right_main,0.326530612,-0.275510204,1,0,0,,0,79,79,40,1,SNAKE,LB,old,m,./images/SNAKELB.png,,,,,,,,,,,,,,,,,,,,,,,,,,,,,,,,,
,,,,,,,,,,,,,,,,,61037a7204c3bfc31c1289dd,26,2022-02-12_17h22.52.153,lexical_decision_task_DD_L5,2021.2.3,iPhone,62.5,,,,,,,,,,0.715,1,,,,,,,,,,,,,,,0,0.302040816,-0.354081633,1,0,0,0.715,button_right_main,0.302040816,-0.354081633,1,0,0,,0,80,80,76,1,MIDGET,LB,old,m,./images/MIDGETLB.png,,,,,,,,,,,,,,,,,,,,,,,,,,,,,,,,,
,,,,,,,,,,,,,,,,,61037a7204c3bfc31c1289dd,26,2022-02-12_17h22.52.153,lexical_decision_task_DD_L5,2021.2.3,iPhone,62.5,,,,,,,,,,0.672,1,,,,,,,,,,,,,,,0,-0.296938776,-0.290816327,1,0,0,0.672,button_left_main,-0.296938776,-0.290816327,1,0,0,,0,81,81,149,1,VEASE,LB,old,z,./images/VEASELB.png,,,,,,,,,,,,,,,,,,,,,,,,,,,,,,,,,
,,,,,,,,,,,,,,,,,61037a7204c3bfc31c1289dd,26,2022-02-12_17h22.52.153,lexical_decision_task_DD_L5,2021.2.3,iPhone,62.5,,,,,,,,,,0.683,1,,,,,,,,,,,,,,,0,-0.279591837,-0.325510204,1,0,0,0.683,button_left_main,-0.279591837,-0.325510204,1,0,0,,0,82,82,143,1,MONGS,LB,old,z,./images/MONGSLB.png,,,,,,,,,,,,,,,,,,,,,,,,,,,,,,,,,
,,,,,,,,,,,,,,,,,61037a7204c3bfc31c1289dd,26,2022-02-12_17h22.52.153,lexical_decision_task_DD_L5,2021.2.3,iPhone,62.5,,,,,,,,,,1.064,0,,,,,,,,,,,,,,,0,-0.293877551,-0.342857143,1,0,0,1.064,button_left_main,0.064285714,-0.41122449,1,0,0,,0,83,83,33,1,SAUNA,HB,old,m,./images/SAUNAHB.png,break_done_button,,,,,,,,,,,,,,,,,,,,,,,,,,,,,,,,
,,,,,,,,,,,,,,,,,61037a7204c3bfc31c1289dd,26,2022-02-12_17h22.52.153,lexical_decision_task_DD_L5,2021.2.3,iPhone,62.5,,,,,,,,,,0.58,1,,,,,,,,,,,,,,,0,0.278571429,-0.307142857,1,0,0,0.58,button_right_main,0.278571429,-0.307142857,1,0,0,,0,84,84,71,1,BUBBLE,C,old,m,./images/BUBBLE.png,,,,,,,,,,,,,,,,,,,,,,,,,,,,,,,,,
,,,,,,,,,,,,,,,,,61037a7204c3bfc31c1289dd,26,2022-02-12_17h22.52.153,lexical_decision_task_DD_L5,2021.2.3,iPhone,62.5,,,,,,,,,,0.698,1,,,,,,,,,,,,,,,0,0.263265306,-0.325510204,1,0,0,0.698,button_right_main,0.263265306,-0.325510204,1,0,0,,0,85,85,78,1,BROOM,HB,old,m,./images/BROOMHB.png,,,,,,,,,,,,,,,,,,,,,,,,,,,,,,,,,
,,,,,,,,,,,,,,,,,61037a7204c3bfc31c1289dd,26,2022-02-12_17h22.52.153,lexical_decision_task_DD_L5,2021.2.3,iPhone,62.5,,,,,,,,,,0.732,1,,,,,,,,,,,,,,,0,-0.310204082,-0.286734694,1,0,0,0.732,button_left_main,-0.310204082,-0.286734694,1,0,0,,0,86,86,138,1,PLICE,C,old,z,./images/PLICE.png,,,,,,,,,,,,,,,,,,,,,,,,,,,,,,,,,
,,,,,,,,,,,,,,,,,61037a7204c3bfc31c1289dd,26,2022-02-12_17h22.52.153,lexical_decision_task_DD_L5,2021.2.3,iPhone,62.5,,,,,,,,,,0.686,1,,,,,,,,,,,,,,,0,0.31122449,-0.384693878,1,0,0,0.686,button_right_main,0.31122449,-0.384693878,1,0,0,,0,87,87,53,1,POSTER,C,old,m,./images/POSTER.png,,,,,,,,,,,,,,,,,,,,,,,,,,,,,,,,,
,,,,,,,,,,,,,,,,,61037a7204c3bfc31c1289dd,26,2022-02-12_17h22.52.153,lexical_decision_task_DD_L5,2021.2.3,iPhone,62.5,,,,,,,,,,0.734,1,,,,,,,,,,,,,,,0,-0.302040816,-0.331632653,1,0,0,0.734,button_left_main,-0.302040816,-0.331632653,1,0,0,,0,88,88,84,1,HAXES,C,old,z,./images/HAXES.png,,,,,,,,,,,,,,,,,,,,,,,,,,,,,,,,,
,,,,,,,,,,,,,,,,,61037a7204c3bfc31c1289dd,26,2022-02-12_17h22.52.153,lexical_decision_task_DD_L5,2021.2.3,iPhone,62.5,,,,,,,,,,1.066,1,,,,,,,,,,,,,,,0,-0.280612245,-0.313265306,1,0,0,1.066,button_left_main,-0.280612245,-0.313265306,1,0,0,,0,89,89,150,1,NOOLS,C,old,z,./images/NOOLS.png,,,,,,,,,,,,,,,,,,,,,,,,,,,,,,,,,
,,,,,,,,,,,,,,,,,61037a7204c3bfc31c1289dd,26,2022-02-12_17h22.52.153,lexical_decision_task_DD_L5,2021.2.3,iPhone,62.5,,,,,,,,,,0.59,1,,,,,,,,,,,,,,,0,-0.315306122,-0.325510204,1,0,0,0.59,button_left_main,-0.315306122,-0.325510204,1,0,0,,0,90,90,104,1,GITTY,LB,old,z,./images/GITTYLB.png,,,,,,,,,,,,,,,,,,,,,,,,,,,,,,,,,
,,,,,,,,,,,,,,,,,61037a7204c3bfc31c1289dd,26,2022-02-12_17h22.52.153,lexical_decision_task_DD_L5,2021.2.3,iPhone,62.5,,,,,,,,,,0.865,1,,,,,,,,,,,,,,,0,0.296938776,-0.331632653,1,0,0,0.865,button_right_main,0.296938776,-0.331632653,1,0,0,,0,91,91,36,1,BOILER,HB,old,m,./images/BOILERHB.png,,,,,,,,,,,,,,,,,,,,,,,,,,,,,,,,,
,,,,,,,,,,,,,,,,,61037a7204c3bfc31c1289dd,26,2022-02-12_17h22.52.153,lexical_decision_task_DD_L5,2021.2.3,iPhone,62.5,,,,,,,,,,0.781,1,,,,,,,,,,,,,,,0,0.285714286,-0.358163265,1,0,0,0.781,button_right_main,0.285714286,-0.358163265,1,0,0,,0,92,92,24,1,FLESH,HB,old,m,./images/FLESHHB.png,,,,,,,,,,,,,,,,,,,,,,,,,,,,,,,,,
,,,,,,,,,,,,,,,,,61037a7204c3bfc31c1289dd,26,2022-02-12_17h22.52.153,lexical_decision_task_DD_L5,2021.2.3,iPhone,62.5,,,,,,,,,,0.807,1,,,,,,,,,,,,,,,0,-0.306122449,-0.360204082,1,0,0,0.807,button_left_main,-0.306122449,-0.360204082,1,0,0,,0,93,93,136,1,WERVE,HB,old,z,./images/WERVEHB.png,,,,,,,,,,,,,,,,,,,,,,,,,,,,,,,,,
,,,,,,,,,,,,,,,,,61037a7204c3bfc31c1289dd,26,2022-02-12_17h22.52.153,lexical_decision_task_DD_L5,2021.2.3,iPhone,62.5,,,,,,,,,,0.861,1,,,,,,,,,,,,,,,0,-0.325510204,-0.303061224,1,0,0,0.861,button_left_main,-0.325510204,-0.303061224,1,0,0,,0,94,94,144,1,NAIRY,C,old,z,./images/NAIRY.png,,,,,,,,,,,,,,,,,,,,,,,,,,,,,,,,,
,,,,,,,,,,,,,,,,,61037a7204c3bfc31c1289dd,26,2022-02-12_17h22.52.153,lexical_decision_task_DD_L5,2021.2.3,iPhone,62.5,,,,,,,,,,1.116,1,,,,,,,,,,,,,,,0,0.310204082,-0.325510204,1,0,0,1.116,button_right_main,0.310204082,-0.325510204,1,0,0,,0,95,95,62,1,MAMMAL,C,old,m,./images/MAMMAL.png,,,,,,,,,,,,,,,,,,,,,,,,,,,,,,,,,
,,,,,,,,,,,,,,,,,61037a7204c3bfc31c1289dd,26,2022-02-12_17h22.52.153,lexical_decision_task_DD_L5,2021.2.3,iPhone,62.5,,,,,,,,,,0.876,1,,,,,,,,,,,,,,,0,-0.332653061,-0.345918367,1,0,0,0.876,button_left_main,-0.332653061,-0.345918367,1,0,0,,0,96,96,159,1,CUDDY,C,old,z,./images/CUDDY.png,,,,,,,,,,,,,,,,,,,,,,,,,,,,,,,,,
,,,,,,,,,,,,,,,,,61037a7204c3bfc31c1289dd,26,2022-02-12_17h22.52.153,lexical_decision_task_DD_L5,2021.2.3,iPhone,62.5,,,,,,,,,,0.989,1,,,,,,,,,,,,,,,0,-0.32244898,-0.329591837,1,0,0,0.989,button_left_main,-0.32244898,-0.329591837,1,0,0,,0,97,97,130,1,CRILL,HB,old,z,./images/CRILLHB.png,,,,,,,,,,,,,,,,,,,,,,,,,,,,,,,,,
,,,,,,,,,,,,,,,,,61037a7204c3bfc31c1289dd,26,2022-02-12_17h22.52.153,lexical_decision_task_DD_L5,2021.2.3,iPhone,62.5,,,,,,,,,,0.94,1,,,,,,,,,,,,,,,0,0.278571429,-0.325510204,1,0,0,0.94,button_right_main,0.278571429,-0.325510204,1,0,0,,0,98,98,72,1,FLASK,HB,old,m,./images/FLASKHB.png,,,,,,,,,,,,,,,,,,,,,,,,,,,,,,,,,
,,,,,,,,,,,,,,,,,61037a7204c3bfc31c1289dd,26,2022-02-12_17h22.52.153,lexical_decision_task_DD_L5,2021.2.3,iPhone,62.5,,,,,,,,,,1.195,1,,,,,,,,,,,,,,,0,0.273469388,-0.326530612,1,0,0,1.195,button_right_main,0.273469388,-0.326530612,1,0,0,,0,99,99,47,1,LAGOON,C,old,m,./images/LAGOON.png,,,,,,,,,,,,,,,,,,,,,,,,,,,,,,,,,
,,,,,,,,,,,,,,,,,61037a7204c3bfc31c1289dd,26,2022-02-12_17h22.52.153,lexical_decision_task_DD_L5,2021.2.3,iPhone,62.5,,,,,,,,,,0.705,1,,,,,,,,,,,,,,,0,0.287755102,-0.295918367,1,0,0,0.705,button_right_main,0.287755102,-0.295918367,1,0,0,,0,100,100,1,1,TOWEL,LB,old,m,./images/TOWELLB.png,,,,,,,,,,,,,,,,,,,,,,,,,,,,,,,,,
,,,,,,,,,,,,,,,,,61037a7204c3bfc31c1289dd,26,2022-02-12_17h22.52.153,lexical_decision_task_DD_L5,2021.2.3,iPhone,62.5,,,,,,,,,,0.93,1,,,,,,,,,,,,,,,0,0.334693878,-0.276530612,1,0,0,0.93,button_right_main,0.334693878,-0.276530612,1,0,0,,0,101,101,70,1,BANANA,LB,old,m,./images/BANANALB.png,,,,,,,,,,,,,,,,,,,,,,,,,,,,,,,,,
,,,,,,,,,,,,,,,,,61037a7204c3bfc31c1289dd,26,2022-02-12_17h22.52.153,lexical_decision_task_DD_L5,2021.2.3,iPhone,62.5,,,,,,,,,,0.822,1,,,,,,,,,,,,,,,0,-0.304081633,-0.310204082,1,0,0,0.822,button_left_main,-0.304081633,-0.310204082,1,0,0,,0,102,102,123,1,SEDGE,C,old,z,./images/SEDGE.png,,,,,,,,,,,,,,,,,,,,,,,,,,,,,,,,,
,,,,,,,,,,,,,,,,,61037a7204c3bfc31c1289dd,26,2022-02-12_17h22.52.153,lexical_decision_task_DD_L5,2021.2.3,iPhone,62.5,,,,,,,,,,0.625,1,,,,,,,,,,,,,,,0,0.259183673,-0.219387755,1,0,0,0.625,button_right_main,0.259183673,-0.219387755,1,0,0,,0,103,103,13,1,BUNNY,LB,old,m,./images/BUNNYLB.png,,,,,,,,,,,,,,,,,,,,,,,,,,,,,,,,,
,,,,,,,,,,,,,,,,,61037a7204c3bfc31c1289dd,26,2022-02-12_17h22.52.153,lexical_decision_task_DD_L5,2021.2.3,iPhone,62.5,,,,,,,,,,0.672,1,,,,,,,,,,,,,,,0,-0.328571429,-0.262244898,1,0,0,0.672,button_left_main,-0.328571429,-0.262244898,1,0,0,,0,104,104,117,1,STEEG,C,old,z,./images/STEEG.png,,,,,,,,,,,,,,,,,,,,,,,,,,,,,,,,,
,,,,,,,,,,,,,,,,,61037a7204c3bfc31c1289dd,26,2022-02-12_17h22.52.153,lexical_decision_task_DD_L5,2021.2.3,iPhone,62.5,,,,,,,,,,0.678,1,,,,,,,,,,,,,,,0,0.297959184,-0.329591837,1,0,0,0.678,button_right_main,0.297959184,-0.329591837,1,0,0,,0,105,105,55,1,ALLEY,LB,old,m,./images/ALLEYLB.png,,,,,,,,,,,,,,,,,,,,,,,,,,,,,,,,,
,,,,,,,,,,,,,,,,,61037a7204c3bfc31c1289dd,26,2022-02-12_17h22.52.153,lexical_decision_task_DD_L5,2021.2.3,iPhone,62.5,,,,,,,,,,0.696,1,,,,,,,,,,,,,,,0,0.263265306,-0.346938776,1,0,0,0.696,button_right_main,0.263265306,-0.346938776,1,0,0,,0,106,106,20,1,GRANNY,C,old,m,./images/GRANNY.png,,,,,,,,,,,,,,,,,,,,,,,,,,,,,,,,,
,,,,,,,,,,,,,,,,,61037a7204c3bfc31c1289dd,26,2022-02-12_17h22.52.153,lexical_decision_task_DD_L5,2021.2.3,iPhone,62.5,,,,,,,,,,0.668,1,,,,,,,,,,,,,,,0,-0.381632653,-0.254081633,1,0,0,0.668,button_left_main,-0.381632653,-0.254081633,1,0,0,,0,107,107,158,1,EGECT,LB,old,z,./images/EGECTLB.png,,,,,,,,,,,,,,,,,,,,,,,,,,,,,,,,,
,,,,,,,,,,,,,,,,,61037a7204c3bfc31c1289dd,26,2022-02-12_17h22.52.153,lexical_decision_task_DD_L5,2021.2.3,iPhone,62.5,,,,,,,,,,1.426,1,,,,,,,,,,,,,,,0,0.32755102,-0.332653061,1,0,0,1.426,button_right_main,0.32755102,-0.332653061,1,0,0,,0,108,108,82,1,PEBBLE,LB,old,m,./images/PEBBLELB.png,,,,,,,,,,,,,,,,,,,,,,,,,,,,,,,,,
,,,,,,,,,,,,,,,,,61037a7204c3bfc31c1289dd,26,2022-02-12_17h22.52.153,lexical_decision_task_DD_L5,2021.2.3,iPhone,62.5,,,,,,,,,,1.136,1,,,,,,,,,,,,,,,0,0.347959184,-0.332653061,1,0,0,1.136,button_right_main,0.347959184,-0.332653061,1,0,0,,0,109,109,63,1,BAKER,HB,old,m,./images/BAKERHB.png,,,,,,,,,,,,,,,,,,,,,,,,,,,,,,,,,
,,,,,,,,,,,,,,,,,61037a7204c3bfc31c1289dd,26,2022-02-12_17h22.52.153,lexical_decision_task_DD_L5,2021.2.3,iPhone,62.5,,,,,,,,,,0.591,1,,,,,,,,,,,,,,,0,0.36122449,-0.371428571,1,0,0,0.591,button_right_main,0.36122449,-0.371428571,1,0,0,,0,110,110,26,1,CLOUD,C,old,m,./images/CLOUD.png,,,,,,,,,,,,,,,,,,,,,,,,,,,,,,,,,
,,,,,,,,,,,,,,,,,61037a7204c3bfc31c1289dd,26,2022-02-12_17h22.52.153,lexical_decision_task_DD_L5,2021.2.3,iPhone,62.5,,,,,,,,,,0.748,1,,,,,,,,,,,,,,,0,0.384693878,-0.332653061,1,0,0,0.748,button_right_main,0.384693878,-0.332653061,1,0,0,,0,111,111,8,1,CLIFF,C,old,m,./images/CLIFF.png,,,,,,,,,,,,,,,,,,,,,,,,,,,,,,,,,
,,,,,,,,,,,,,,,,,61037a7204c3bfc31c1289dd,26,2022-02-12_17h22.52.153,lexical_decision_task_DD_L5,2021.2.3,iPhone,62.5,,,,,,,,,,0.781,1,,,,,,,,,,,,,,,0,-0.286734694,-0.266326531,1,0,0,0.781,button_left_main,-0.286734694,-0.266326531,1,0,0,,0,112,112,116,1,BALGY,LB,old,z,./images/BALGYLB.png,,,,,,,,,,,,,,,,,,,,,,,,,,,,,,,,,
,,,,,,,,,,,,,,,,,61037a7204c3bfc31c1289dd,26,2022-02-12_17h22.52.153,lexical_decision_task_DD_L5,2021.2.3,iPhone,62.5,,,,,,,,,,0.592,1,,,,,,,,,,,,,,,0,0.340816327,-0.342857143,1,0,0,0.592,button_right_main,0.340816327,-0.342857143,1,0,0,,0,113,113,16,1,GRAPE,LB,old,m,./images/GRAPELB.png,,,,,,,,,,,,,,,,,,,,,,,,,,,,,,,,,
,,,,,,,,,,,,,,,,,61037a7204c3bfc31c1289dd,26,2022-02-12_17h22.52.153,lexical_decision_task_DD_L5,2021.2.3,iPhone,62.5,,,,,,,,,,0.681,1,,,,,,,,,,,,,,,0,-0.284693878,-0.312244898,1,0,0,0.681,button_left_main,-0.284693878,-0.312244898,1,0,0,,0,114,114,167,1,ZONET,LB,old,z,./images/ZONETLB.png,,,,,,,,,,,,,,,,,,,,,,,,,,,,,,,,,
,,,,,,,,,,,,,,,,,61037a7204c3bfc31c1289dd,26,2022-02-12_17h22.52.153,lexical_decision_task_DD_L5,2021.2.3,iPhone,62.5,,,,,,,,,,0.895,1,,,,,,,,,,,,,,,0,-0.279591837,-0.319387755,1,0,0,0.895,button_left_main,-0.279591837,-0.319387755,1,0,0,,0,115,115,165,1,TROWN,C,old,z,./images/TROWN.png,,,,,,,,,,,,,,,,,,,,,,,,,,,,,,,,,
,,,,,,,,,,,,,,,,,61037a7204c3bfc31c1289dd,26,2022-02-12_17h22.52.153,lexical_decision_task_DD_L5,2021.2.3,iPhone,62.5,,,,,,,,,,0.75,1,,,,,,,,,,,,,,,0,-0.264285714,-0.269387755,1,0,0,0.75,button_left_main,-0.264285714,-0.269387755,1,0,0,,0,116,116,119,1,PAFER,LB,old,z,./images/PAFERLB.png,,,,,,,,,,,,,,,,,,,,,,,,,,,,,,,,,
,,,,,,,,,,,,,,,,,61037a7204c3bfc31c1289dd,26,2022-02-12_17h22.52.153,lexical_decision_task_DD_L5,2021.2.3,iPhone,62.5,,,,,,,,,,0.894,1,,,,,,,,,,,,,,,0,-0.239795918,-0.309183673,1,0,0,0.894,button_left_main,-0.239795918,-0.309183673,1,0,0,,0,117,117,93,1,SMONE,C,old,z,./images/SMONE.png,,,,,,,,,,,,,,,,,,,,,,,,,,,,,,,,,
,,,,,,,,,,,,,,,,,61037a7204c3bfc31c1289dd,26,2022-02-12_17h22.52.153,lexical_decision_task_DD_L5,2021.2.3,iPhone,62.5,,,,,,,,,,0.604,1,,,,,,,,,,,,,,,0,0.36122449,-0.314285714,1,0,0,0.604,button_right_main,0.36122449,-0.314285714,1,0,0,,0,118,118,50,1,PILOT,C,old,m,./images/PILOT.png,,,,,,,,,,,,,,,,,,,,,,,,,,,,,,,,,
,,,,,,,,,,,,,,,,,61037a7204c3bfc31c1289dd,26,2022-02-12_17h22.52.153,lexical_decision_task_DD_L5,2021.2.3,iPhone,62.5,,,,,,,,,,1.348,1,,,,,,,,,,,,,,,0,-0.293877551,-0.317346939,1,0,0,1.348,button_left_main,-0.293877551,-0.317346939,1,0,0,,0,119,119,91,1,SHENS,HB,old,z,./images/SHENSHB.png,,,,,,,,,,,,,,,,,,,,,,,,,,,,,,,,,
,,,,,,,,,,,,,,,,,61037a7204c3bfc31c1289dd,26,2022-02-12_17h22.52.153,lexical_decision_task_DD_L5,2021.2.3,iPhone,62.5,,,,,,,,,,1.062,0,,,,,,,,,,,,,,,0,0.373469388,-0.334693878,1,0,0,1.062,button_right_main,0.373469388,-0.334693878,1,0,0,,0,120,120,142,1,PLASK,HB,old,z,./images/PLASKHB.png,,,,,,,,,,,,,,,,,,,,,,,,,,,,,,,,,
,,,,,,,,,,,,,,,,,61037a7204c3bfc31c1289dd,26,2022-02-12_17h22.52.153,lexical_decision_task_DD_L5,2021.2.3,iPhone,62.5,,,,,,,,,,0.907,1,,,,,,,,,,,,,,,0,-0.343877551,-0.289795918,1,0,0,0.907,button_left_main,-0.343877551,-0.289795918,1,0,0,,0,121,121,101,1,GLEET,LB,old,z,./images/GLEETLB.png,,,,,,,,,,,,,,,,,,,,,,,,,,,,,,,,,
,,,,,,,,,,,,,,,,,61037a7204c3bfc31c1289dd,26,2022-02-12_17h22.52.153,lexical_decision_task_DD_L5,2021.2.3,iPhone,62.5,,,,,,,,,,0.617,1,,,,,,,,,,,,,,,0,0.35,-0.360204082,1,0,0,0.617,button_right_main,0.35,-0.360204082,1,0,0,,0,122,122,56,1,HEATER,C,old,m,./images/HEATER.png,,,,,,,,,,,,,,,,,,,,,,,,,,,,,,,,,
,,,,,,,,,,,,,,,,,61037a7204c3bfc31c1289dd,26,2022-02-12_17h22.52.153,lexical_decision_task_DD_L5,2021.2.3,iPhone,62.5,,,,,,,,,,1.414,1,,,,,,,,,,,,,,,0,0.379591837,-0.364285714,1,0,0,1.414,button_right_main,0.379591837,-0.364285714,1,0,0,,0,123,123,57,1,FERRY,HB,old,m,./images/FERRYHB.png,,,,,,,,,,,,,,,,,,,,,,,,,,,,,,,,,
,,,,,,,,,,,,,,,,,61037a7204c3bfc31c1289dd,26,2022-02-12_17h22.52.153,lexical_decision_task_DD_L5,2021.2.3,iPhone,62.5,,,,,,,,,,0.725,1,,,,,,,,,,,,,,,0,0.371428571,-0.36122449,1,0,0,0.725,button_right_main,0.371428571,-0.36122449,1,0,0,,0,124,124,15,1,COLLAR,HB,old,m,./images/COLLARHB.png,,,,,,,,,,,,,,,,,,,,,,,,,,,,,,,,,
,,,,,,,,,,,,,,,,,61037a7204c3bfc31c1289dd,26,2022-02-12_17h22.52.153,lexical_decision_task_DD_L5,2021.2.3,iPhone,62.5,,,,,,,,,,0.698,1,,,,,,,,,,,,,,,0,0.378571429,-0.378571429,1,0,0,0.698,button_right_main,0.135714286,-0.428571429,1,0,0,,0,125,125,48,1,SHIELD,HB,old,m,./images/SHIELDHB.png,break_done_button,,,,,,,,,,,,,,,,,,,,,,,,,,,,,,,,
,,,,,,,,,,,,,,,,,61037a7204c3bfc31c1289dd,26,2022-02-12_17h22.52.153,lexical_decision_task_DD_L5,2021.2.3,iPhone,62.5,,,,,,,,,,0.714,1,,,,,,,,,,,,,,,0,-0.286734694,-0.313265306,1,0,0,0.714,button_left_main,-0.286734694,-0.313265306,1,0,0,,0,126,126,129,1,PRANS,C,old,z,./images/PRANS.png,,,,,,,,,,,,,,,,,,,,,,,,,,,,,,,,,
,,,,,,,,,,,,,,,,,61037a7204c3bfc31c1289dd,26,2022-02-12_17h22.52.153,lexical_decision_task_DD_L5,2021.2.3,iPhone,62.5,,,,,,,,,,0.518,1,,,,,,,,,,,,,,,0,0.326530612,-0.332653061,1,0,0,0.518,button_right_main,0.326530612,-0.332653061,1,0,0,,0,127,127,46,1,MUMMY,LB,old,m,./images/MUMMYLB.png,,,,,,,,,,,,,,,,,,,,,,,,,,,,,,,,,
,,,,,,,,,,,,,,,,,61037a7204c3bfc31c1289dd,26,2022-02-12_17h22.52.153,lexical_decision_task_DD_L5,2021.2.3,iPhone,62.5,,,,,,,,,,1.246,1,,,,,,,,,,,,,,,0,0.371428571,-0.330612245,1,0,0,1.246,button_right_main,0.371428571,-0.330612245,1,0,0,,0,128,128,37,1,TIGER,LB,old,m,./images/TIGERLB.png,,,,,,,,,,,,,,,,,,,,,,,,,,,,,,,,,
,,,,,,,,,,,,,,,,,61037a7204c3bfc31c1289dd,26,2022-02-12_17h22.52.153,lexical_decision_task_DD_L5,2021.2.3,iPhone,62.5,,,,,,,,,,0.867,1,,,,,,,,,,,,,,,0,-0.278571429,-0.352040816,1,0,0,0.867,button_left_main,-0.278571429,-0.352040816,1,0,0,,0,129,129,163,1,GAMBA,HB,old,z,./images/GAMBAHB.png,,,,,,,,,,,,,,,,,,,,,,,,,,,,,,,,,
,,,,,,,,,,,,,,,,,61037a7204c3bfc31c1289dd,26,2022-02-12_17h22.52.153,lexical_decision_task_DD_L5,2021.2.3,iPhone,62.5,,,,,,,,,,0.815,1,,,,,,,,,,,,,,,0,-0.308163265,-0.294897959,1,0,0,0.815,button_left_main,-0.308163265,-0.294897959,1,0,0,,0,130,130,95,1,HANTY,LB,old,z,./images/HANTYLB.png,,,,,,,,,,,,,,,,,,,,,,,,,,,,,,,,,
,,,,,,,,,,,,,,,,,61037a7204c3bfc31c1289dd,26,2022-02-12_17h22.52.153,lexical_decision_task_DD_L5,2021.2.3,iPhone,62.5,,,,,,,,,,0.764,1,,,,,,,,,,,,,,,0,0.355102041,-0.313265306,1,0,0,0.764,button_right_main,0.355102041,-0.313265306,1,0,0,,0,131,131,35,1,LLAMA,C,old,m,./images/LLAMA.png,,,,,,,,,,,,,,,,,,,,,,,,,,,,,,,,,
,,,,,,,,,,,,,,,,,61037a7204c3bfc31c1289dd,26,2022-02-12_17h22.52.153,lexical_decision_task_DD_L5,2021.2.3,iPhone,62.5,,,,,,,,,,0.829,1,,,,,,,,,,,,,,,0,-0.341836735,-0.308163265,1,0,0,0.829,button_left_main,-0.341836735,-0.308163265,1,0,0,,0,132,132,125,1,MOOKY,LB,old,z,./images/MOOKYLB.png,,,,,,,,,,,,,,,,,,,,,,,,,,,,,,,,,
,,,,,,,,,,,,,,,,,61037a7204c3bfc31c1289dd,26,2022-02-12_17h22.52.153,lexical_decision_task_DD_L5,2021.2.3,iPhone,62.5,,,,,,,,,,0.595,1,,,,,,,,,,,,,,,0,0.347959184,-0.309183673,1,0,0,0.595,button_right_main,0.347959184,-0.309183673,1,0,0,,0,133,133,59,1,BRUSH,C,old,m,./images/BRUSH.png,,,,,,,,,,,,,,,,,,,,,,,,,,,,,,,,,
,,,,,,,,,,,,,,,,,61037a7204c3bfc31c1289dd,26,2022-02-12_17h22.52.153,lexical_decision_task_DD_L5,2021.2.3,iPhone,62.5,,,,,,,,,,0.781,1,,,,,,,,,,,,,,,0,0.302040816,-0.325510204,1,0,0,0.781,button_right_main,0.302040816,-0.325510204,1,0,0,,0,134,134,7,1,WAGON,LB,old,m,./images/WAGONLB.png,,,,,,,,,,,,,,,,,,,,,,,,,,,,,,,,,
,,,,,,,,,,,,,,,,,61037a7204c3bfc31c1289dd,26,2022-02-12_17h22.52.153,lexical_decision_task_DD_L5,2021.2.3,iPhone,62.5,,,,,,,,,,0.747,1,,,,,,,,,,,,,,,0,-0.296938776,-0.304081633,1,0,0,0.747,button_left_main,-0.296938776,-0.304081633,1,0,0,,0,135,135,122,1,BLOOT,LB,old,z,./images/BLOOTLB.png,,,,,,,,,,,,,,,,,,,,,,,,,,,,,,,,,
,,,,,,,,,,,,,,,,,61037a7204c3bfc31c1289dd,26,2022-02-12_17h22.52.153,lexical_decision_task_DD_L5,2021.2.3,iPhone,62.5,,,,,,,,,,1.224,1,,,,,,,,,,,,,,,0,-0.334693878,-0.312244898,1,0,0,1.224,button_left_main,-0.334693878,-0.312244898,1,0,0,,0,136,136,100,1,DRIBS,HB,old,z,./images/DRIBSHB.png,,,,,,,,,,,,,,,,,,,,,,,,,,,,,,,,,
,,,,,,,,,,,,,,,,,61037a7204c3bfc31c1289dd,26,2022-02-12_17h22.52.153,lexical_decision_task_DD_L5,2021.2.3,iPhone,62.5,,,,,,,,,,0.745,1,,,,,,,,,,,,,,,0,0.356122449,-0.357142857,1,0,0,0.745,button_right_main,0.356122449,-0.357142857,1,0,0,,0,137,137,79,1,RULER,LB,old,m,./images/RULERLB.png,,,,,,,,,,,,,,,,,,,,,,,,,,,,,,,,,
,,,,,,,,,,,,,,,,,61037a7204c3bfc31c1289dd,26,2022-02-12_17h22.52.153,lexical_decision_task_DD_L5,2021.2.3,iPhone,62.5,,,,,,,,,,0.96,1,,,,,,,,,,,,,,,0,-0.319387755,-0.290816327,1,0,0,0.96,button_left_main,-0.319387755,-0.290816327,1,0,0,,0,138,138,87,1,TRING,C,old,z,./images/TRING.png,,,,,,,,,,,,,,,,,,,,,,,,,,,,,,,,,
,,,,,,,,,,,,,,,,,61037a7204c3bfc31c1289dd,26,2022-02-12_17h22.52.153,lexical_decision_task_DD_L5,2021.2.3,iPhone,62.5,,,,,,,,,,0.571,1,,,,,,,,,,,,,,,0,0.351020408,-0.323469388,1,0,0,0.571,button_right_main,0.351020408,-0.323469388,1,0,0,,0,139,139,14,1,FENCE,C,old,m,./images/FENCE.png,,,,,,,,,,,,,,,,,,,,,,,,,,,,,,,,,
,,,,,,,,,,,,,,,,,61037a7204c3bfc31c1289dd,26,2022-02-12_17h22.52.153,lexical_decision_task_DD_L5,2021.2.3,iPhone,62.5,,,,,,,,,,0.745,1,,,,,,,,,,,,,,,0,-0.266326531,-0.286734694,1,0,0,0.745,button_left_main,-0.266326531,-0.286734694,1,0,0,,0,140,140,131,1,NACES,LB,old,z,./images/NACESLB.png,,,,,,,,,,,,,,,,,,,,,,,,,,,,,,,,,
,,,,,,,,,,,,,,,,,61037a7204c3bfc31c1289dd,26,2022-02-12_17h22.52.153,lexical_decision_task_DD_L5,2021.2.3,iPhone,62.5,,,,,,,,,,0.898,1,,,,,,,,,,,,,,,0,-0.306122449,-0.326530612,1,0,0,0.898,button_left_main,-0.306122449,-0.326530612,1,0,0,,0,141,141,127,1,NINDY,HB,old,z,./images/NINDYHB.png,,,,,,,,,,,,,,,,,,,,,,,,,,,,,,,,,
,,,,,,,,,,,,,,,,,61037a7204c3bfc31c1289dd,26,2022-02-12_17h22.52.153,lexical_decision_task_DD_L5,2021.2.3,iPhone,62.5,,,,,,,,,,0.704,1,,,,,,,,,,,,,,,0,-0.318367347,-0.363265306,1,0,0,0.704,button_left_main,-0.318367347,-0.363265306,1,0,0,,0,142,142,114,1,RIKES,C,old,z,./images/RIKES.png,,,,,,,,,,,,,,,,,,,,,,,,,,,,,,,,,
,,,,,,,,,,,,,,,,,61037a7204c3bfc31c1289dd,26,2022-02-12_17h22.52.153,lexical_decision_task_DD_L5,2021.2.3,iPhone,62.5,,,,,,,,,,0.848,1,,,,,,,,,,,,,,,0,-0.32755102,-0.328571429,1,0,0,0.848,button_left_main,-0.32755102,-0.328571429,1,0,0,,0,143,143,121,1,CEERS,HB,old,z,./images/CEERSHB.png,,,,,,,,,,,,,,,,,,,,,,,,,,,,,,,,,
,,,,,,,,,,,,,,,,,61037a7204c3bfc31c1289dd,26,2022-02-12_17h22.52.153,lexical_decision_task_DD_L5,2021.2.3,iPhone,62.5,,,,,,,,,,0.71,1,,,,,,,,,,,,,,,0,-0.35,-0.335714286,1,0,0,0.71,button_left_main,-0.35,-0.335714286,1,0,0,,0,144,144,86,1,AIFED,LB,old,z,./images/AIFEDLB.png,,,,,,,,,,,,,,,,,,,,,,,,,,,,,,,,,
,,,,,,,,,,,,,,,,,61037a7204c3bfc31c1289dd,26,2022-02-12_17h22.52.153,lexical_decision_task_DD_L5,2021.2.3,iPhone,62.5,,,,,,,,,,0.674,1,,,,,,,,,,,,,,,0,0.312244898,-0.380612245,1,0,0,0.674,button_right_main,0.312244898,-0.380612245,1,0,0,,0,145,145,30,1,SLOPE,HB,old,m,./images/SLOPEHB.png,,,,,,,,,,,,,,,,,,,,,,,,,,,,,,,,,
,,,,,,,,,,,,,,,,,61037a7204c3bfc31c1289dd,26,2022-02-12_17h22.52.153,lexical_decision_task_DD_L5,2021.2.3,iPhone,62.5,,,,,,,,,,0.529,1,,,,,,,,,,,,,,,0,0.32755102,-0.379591837,1,0,0,0.529,button_right_main,0.32755102,-0.379591837,1,0,0,,0,146,146,31,1,STEAK,LB,old,m,./images/STEAKLB.png,,,,,,,,,,,,,,,,,,,,,,,,,,,,,,,,,
,,,,,,,,,,,,,,,,,61037a7204c3bfc31c1289dd,26,2022-02-12_17h22.52.153,lexical_decision_task_DD_L5,2021.2.3,iPhone,62.5,,,,,,,,,,0.589,1,,,,,,,,,,,,,,,0,0.313265306,-0.348979592,1,0,0,0.589,button_right_main,0.313265306,-0.348979592,1,0,0,,0,147,147,65,1,SPINE,C,old,m,./images/SPINE.png,,,,,,,,,,,,,,,,,,,,,,,,,,,,,,,,,
,,,,,,,,,,,,,,,,,61037a7204c3bfc31c1289dd,26,2022-02-12_17h22.52.153,lexical_decision_task_DD_L5,2021.2.3,iPhone,62.5,,,,,,,,,,0.855,1,,,,,,,,,,,,,,,0,-0.306122449,-0.342857143,1,0,0,0.855,button_left_main,-0.306122449,-0.342857143,1,0,0,,0,148,148,145,1,LAMEL,HB,old,z,./images/LAMELHB.png,,,,,,,,,,,,,,,,,,,,,,,,,,,,,,,,,
,,,,,,,,,,,,,,,,,61037a7204c3bfc31c1289dd,26,2022-02-12_17h22.52.153,lexical_decision_task_DD_L5,2021.2.3,iPhone,62.5,,,,,,,,,,0.78,1,,,,,,,,,,,,,,,0,-0.285714286,-0.262244898,1,0,0,0.78,button_left_main,-0.285714286,-0.262244898,1,0,0,,0,149,149,134,1,TROSS,LB,old,z,./images/TROSSLB.png,,,,,,,,,,,,,,,,,,,,,,,,,,,,,,,,,
,,,,,,,,,,,,,,,,,61037a7204c3bfc31c1289dd,26,2022-02-12_17h22.52.153,lexical_decision_task_DD_L5,2021.2.3,iPhone,62.5,,,,,,,,,,1.081,1,,,,,,,,,,,,,,,0,-0.290816327,-0.339795918,1,0,0,1.081,button_left_main,-0.290816327,-0.339795918,1,0,0,,0,150,150,105,1,MOKER,C,old,z,./images/MOKER.png,,,,,,,,,,,,,,,,,,,,,,,,,,,,,,,,,
,,,,,,,,,,,,,,,,,61037a7204c3bfc31c1289dd,26,2022-02-12_17h22.52.153,lexical_decision_task_DD_L5,2021.2.3,iPhone,62.5,,,,,,,,,,0.629,1,,,,,,,,,,,,,,,0,0.340816327,-0.325510204,1,0,0,0.629,button_right_main,0.340816327,-0.325510204,1,0,0,,0,151,151,54,1,CHERRY,HB,old,m,./images/CHERRYHB.png,,,,,,,,,,,,,,,,,,,,,,,,,,,,,,,,,
,,,,,,,,,,,,,,,,,61037a7204c3bfc31c1289dd,26,2022-02-12_17h22.52.153,lexical_decision_task_DD_L5,2021.2.3,iPhone,62.5,,,,,,,,,,0.873,1,,,,,,,,,,,,,,,0,0.354081633,-0.352040816,1,0,0,0.873,button_right_main,0.354081633,-0.352040816,1,0,0,,0,152,152,28,1,CASINO,LB,old,m,./images/CASINOLB.png,,,,,,,,,,,,,,,,,,,,,,,,,,,,,,,,,
,,,,,,,,,,,,,,,,,61037a7204c3bfc31c1289dd,26,2022-02-12_17h22.52.153,lexical_decision_task_DD_L5,2021.2.3,iPhone,62.5,,,,,,,,,,0.655,1,,,,,,,,,,,,,,,0,-0.33877551,-0.297959184,1,0,0,0.655,button_left_main,-0.33877551,-0.297959184,1,0,0,,0,153,153,110,1,CRUNK,LB,old,z,./images/CRUNKLB.png,,,,,,,,,,,,,,,,,,,,,,,,,,,,,,,,,
,,,,,,,,,,,,,,,,,61037a7204c3bfc31c1289dd,26,2022-02-12_17h22.52.153,lexical_decision_task_DD_L5,2021.2.3,iPhone,62.5,,,,,,,,,,1.255,1,,,,,,,,,,,,,,,0,0.348979592,-0.330612245,1,0,0,1.255,button_right_main,0.348979592,-0.330612245,1,0,0,,0,154,154,75,1,HAMMER,HB,old,m,./images/HAMMERHB.png,,,,,,,,,,,,,,,,,,,,,,,,,,,,,,,,,
,,,,,,,,,,,,,,,,,61037a7204c3bfc31c1289dd,26,2022-02-12_17h22.52.153,lexical_decision_task_DD_L5,2021.2.3,iPhone,62.5,,,,,,,,,,0.632,1,,,,,,,,,,,,,,,0,-0.344897959,-0.365306122,1,0,0,0.632,button_left_main,-0.344897959,-0.365306122,1,0,0,,0,155,155,161,1,BLAPS,LB,old,z,./images/BLAPSLB.png,,,,,,,,,,,,,,,,,,,,,,,,,,,,,,,,,
,,,,,,,,,,,,,,,,,61037a7204c3bfc31c1289dd,26,2022-02-12_17h22.52.153,lexical_decision_task_DD_L5,2021.2.3,iPhone,62.5,,,,,,,,,,1.241,1,,,,,,,,,,,,,,,0,0.340816327,-0.298979592,1,0,0,1.241,button_right_main,0.340816327,-0.298979592,1,0,0,,0,156,156,52,1,DESERT,LB,old,m,./images/DESERTLB.png,,,,,,,,,,,,,,,,,,,,,,,,,,,,,,,,,
,,,,,,,,,,,,,,,,,61037a7204c3bfc31c1289dd,26,2022-02-12_17h22.52.153,lexical_decision_task_DD_L5,2021.2.3,iPhone,62.5,,,,,,,,,,1.047,1,,,,,,,,,,,,,,,0,-0.284693878,-0.301020408,1,0,0,1.047,button_left_main,-0.284693878,-0.301020408,1,0,0,,0,157,157,164,1,SGREW,LB,old,z,./images/SGREWLB.png,,,,,,,,,,,,,,,,,,,,,,,,,,,,,,,,,
,,,,,,,,,,,,,,,,,61037a7204c3bfc31c1289dd,26,2022-02-12_17h22.52.153,lexical_decision_task_DD_L5,2021.2.3,iPhone,62.5,,,,,,,,,,0.942,1,,,,,,,,,,,,,,,0,-0.257142857,-0.317346939,1,0,0,0.942,button_left_main,-0.257142857,-0.317346939,1,0,0,,0,158,158,156,1,HIXES,C,old,z,./images/HIXES.png,,,,,,,,,,,,,,,,,,,,,,,,,,,,,,,,,
,,,,,,,,,,,,,,,,,61037a7204c3bfc31c1289dd,26,2022-02-12_17h22.52.153,lexical_decision_task_DD_L5,2021.2.3,iPhone,62.5,,,,,,,,,,0.638,1,,,,,,,,,,,,,,,0,0.355102041,-0.325510204,1,0,0,0.638,button_right_main,0.355102041,-0.325510204,1,0,0,,0,159,159,61,1,ARTIST,LB,old,m,./images/ARTISTLB.png,,,,,,,,,,,,,,,,,,,,,,,,,,,,,,,,,
,,,,,,,,,,,,,,,,,61037a7204c3bfc31c1289dd,26,2022-02-12_17h22.52.153,lexical_decision_task_DD_L5,2021.2.3,iPhone,62.5,,,,,,,,,,0.63,1,,,,,,,,,,,,,,,0,0.366326531,-0.351020408,1,0,0,0.63,button_right_main,0.366326531,-0.351020408,1,0,0,,0,160,160,38,1,ENGINE,C,old,m,./images/ENGINE.png,,,,,,,,,,,,,,,,,,,,,,,,,,,,,,,,,
,,,,,,,,,,,,,,,,,61037a7204c3bfc31c1289dd,26,2022-02-12_17h22.52.153,lexical_decision_task_DD_L5,2021.2.3,iPhone,62.5,,,,,,,,,,1.741,1,,,,,,,,,,,,,,,0,-0.328571429,-0.302040816,1,0,0,1.741,button_left_main,-0.328571429,-0.302040816,1,0,0,,0,161,161,157,1,INLER,HB,old,z,./images/INLERHB.png,,,,,,,,,,,,,,,,,,,,,,,,,,,,,,,,,
,,,,,,,,,,,,,,,,,61037a7204c3bfc31c1289dd,26,2022-02-12_17h22.52.153,lexical_decision_task_DD_L5,2021.2.3,iPhone,62.5,,,,,,,,,,0.732,1,,,,,,,,,,,,,,,0,-0.265306122,-0.305102041,1,0,0,0.732,button_left_main,-0.265306122,-0.305102041,1,0,0,,0,162,162,147,1,ZOLES,C,old,z,./images/ZOLES.png,,,,,,,,,,,,,,,,,,,,,,,,,,,,,,,,,
,,,,,,,,,,,,,,,,,61037a7204c3bfc31c1289dd,26,2022-02-12_17h22.52.153,lexical_decision_task_DD_L5,2021.2.3,iPhone,62.5,,,,,,,,,,0.67,1,,,,,,,,,,,,,,,0,0.352040816,-0.342857143,1,0,0,0.67,button_right_main,0.352040816,-0.342857143,1,0,0,,0,163,163,80,1,PLANET,C,old,m,./images/PLANET.png,,,,,,,,,,,,,,,,,,,,,,,,,,,,,,,,,
,,,,,,,,,,,,,,,,,61037a7204c3bfc31c1289dd,26,2022-02-12_17h22.52.153,lexical_decision_task_DD_L5,2021.2.3,iPhone,62.5,,,,,,,,,,0.705,1,,,,,,,,,,,,,,,0,0.289795918,-0.373469388,1,0,0,0.705,button_right_main,0.289795918,-0.373469388,1,0,0,,0,164,164,67,1,POKER,LB,old,m,./images/POKERLB.png,,,,,,,,,,,,,,,,,,,,,,,,,,,,,,,,,
,,,,,,,,,,,,,,,,,61037a7204c3bfc31c1289dd,26,2022-02-12_17h22.52.153,lexical_decision_task_DD_L5,2021.2.3,iPhone,62.5,,,,,,,,,,0.847,1,,,,,,,,,,,,,,,0,-0.334693878,-0.314285714,1,0,0,0.847,button_left_main,-0.334693878,-0.314285714,1,0,0,,0,165,165,88,1,GLUSH,HB,old,z,./images/GLUSHHB.png,,,,,,,,,,,,,,,,,,,,,,,,,,,,,,,,,
,,,,,,,,,,,,,,,,,61037a7204c3bfc31c1289dd,26,2022-02-12_17h22.52.153,lexical_decision_task_DD_L5,2021.2.3,iPhone,62.5,,,,,,,,,,1.221,1,,,,,,,,,,,,,,,0,-0.324489796,-0.281632653,1,0,0,1.221,button_left_main,-0.324489796,-0.281632653,1,0,0,,0,166,166,118,1,BAVEL,HB,old,z,./images/BAVELHB.png,,,,,,,,,,,,,,,,,,,,,,,,,,,,,,,,,
,,,,,,,,,,,,,,,,,61037a7204c3bfc31c1289dd,26,2022-02-12_17h22.52.153,lexical_decision_task_DD_L5,2021.2.3,iPhone,62.5,,,,,,,,,,2.464,1,,,,,,,,,,,,,,,0,-0.320408163,-0.3,1,0,0,2.464,button_left_main,-0.320408163,-0.3,1,0,0,,0,167,167,154,1,THINT,HB,old,z,./images/THINTHB.png,,,,,,,,,,,,,,,,,,,,,,,,,,,,,,,,,
,,,,,,,,,,,,,,,,,61037a7204c3bfc31c1289dd,26,2022-02-12_17h22.52.153,lexical_decision_task_DD_L5,2021.2.3,iPhone,62.5,,,,,,,,,,,,,,,,,,,,,,,,,,,,,,,,,,,,,,,,,,,,,,How likely will it be that you will recognize the words presented clearly on a scale of 0 (not likely) to 100 (most likely)?,,,,,-0.019387755,-0.420408163,1,0,0,jol_adv,3,13.021,0,0,0,0,1,,,,,,,,,,,,,,,,,,,
,,,,,,,,,,,,,,,,,61037a7204c3bfc31c1289dd,26,2022-02-12_17h22.52.153,lexical_decision_task_DD_L5,2021.2.3,iPhone,62.5,,,,,,,,,,,,,,,,,,,,,,,,,,,,,,,,,,,,,,,,,,,,,,How likely will it be that you will recognize the words presented slighly blurred on a scale of 0 (not likely) to 100 (most likely)?,,,,,,,,,,,4,6.535,0,1,1,1,1,,,,,,,,,,,,,,,,,,,
,,,,,,,,,,,,,,,,,61037a7204c3bfc31c1289dd,26,2022-02-12_17h22.52.153,lexical_decision_task_DD_L5,2021.2.3,iPhone,62.5,,,,,,,,,,,,,,,,,,,,,,,,,,,,,,,,,,,,,,,,,,,,,,How likely will it be that you will recognize the words presented very blurred on a scale of 0 (not likely) to 100 (most likely)?,,,,,,,,,,,3,1.737,0,2,2,2,1,,,,,,,,,,,,,,,,,,,
,0.02244898,-0.38877551,1,0,0,instr_done_button,,,,,,1,test,"In the next phase you will be presented with the words from the the first phase. Your job is to decide whether you remember seeing the word or not. If you remember seeing the word press ""old"" or type ""m"". If you do not remember seeing the word press ""new"" or type ""z"". Please press the space bar or click on continue to begin. ",,,61037a7204c3bfc31c1289dd,26,2022-02-12_17h22.52.153,lexical_decision_task_DD_L5,2021.2.3,iPhone,62.5,,,,,,,,,,,,,,,,,,,,,,,,,,,,,,,,,,,,,,,,,,,,,,,,,,,,,,,,,,,,,,,,0,0,0,0,1,,,,,,,,,,,,,,
,0.02755102,-0.394897959,1,0,0,instr_done_button,,,,,,1,test,"In the next phase you will be presented with the words from the the first phase. Your job is to decide whether you remember seeing the word or not. If you remember seeing the word press ""old"" or type ""m"". If you do not remember seeing the word press ""new"" or type ""z"". Please press the space bar or click on continue to begin. ",,,61037a7204c3bfc31c1289dd,26,2022-02-12_17h22.52.153,lexical_decision_task_DD_L5,2021.2.3,iPhone,62.5,,,,,,,,,,,,,,,,,,,,,,,,,,,,,,,,,,,,,,,,,,,,,,,,,,,,,,,,,,,,,,,,1,0,1,0,1,,,,,,,,,,,,,,
,0.030612245,-0.41122449,1,0,0,instr_done_button,,,,,,1,test,"In the next phase you will be presented with the words from the the first phase. Your job is to decide whether you remember seeing the word or not. If you remember seeing the word press ""old"" or type ""m"". If you do not remember seeing the word press ""new"" or type ""z"". Please press the space bar or click on continue to begin. ",,,61037a7204c3bfc31c1289dd,26,2022-02-12_17h22.52.153,lexical_decision_task_DD_L5,2021.2.3,iPhone,62.5,,,,,,,,,,,,,,,,,,,,,,,,,,,,,,,,,,,,,,,,,,,,,,,,,,,,,,,,,,,,,,,,2,0,2,0,1,,,,,,,,,,,,,,
,0.039795918,-0.379591837,1,0,0,instr_done_button,,,,,,1,test,"In the next phase you will be presented with the words from the the first phase. Your job is to decide whether you remember seeing the word or not. If you remember seeing the word press ""old"" or type ""m"". If you do not remember seeing the word press ""new"" or type ""z"". Please press the space bar or click on continue to begin. ",,,61037a7204c3bfc31c1289dd,26,2022-02-12_17h22.52.153,lexical_decision_task_DD_L5,2021.2.3,iPhone,62.5,,,,,,,,,,,,,,,,,,,,,,,,,,,,,,,,,,,,,,,,,,,,,,,,,,,,,,,,,,,,,,,,3,0,3,0,1,,,,,,,,,,,,,,
,-0.001020408,-0.402040816,1,0,0,instr_done_button,,,,,,1,test,"In the next phase you will be presented with the words from the the first phase. Your job is to decide whether you remember seeing the word or not. If you remember seeing the word press ""old"" or type ""m"". If you do not remember seeing the word press ""new"" or type ""z"". Please press the space bar or click on continue to begin. ",,,61037a7204c3bfc31c1289dd,26,2022-02-12_17h22.52.153,lexical_decision_task_DD_L5,2021.2.3,iPhone,62.5,,,,,,,,,,,,,,,,,,,,,,,,,,,,,,,,,,,,,,,,,,,,,,,,,,,,,,,,,,,,,,,,4,0,4,0,1,,,,,,,,,,,,,,
,,,,,,,,,,,,,,,,,61037a7204c3bfc31c1289dd,26,2022-02-12_17h22.52.153,lexical_decision_task_DD_L5,2021.2.3,iPhone,62.5,,,,,,,,,,1.894,1,,,,,,,,,,,,,,,,,,,,,,,0.32244898,-0.335714286,1,0,0,,,,,,,FERRY,HB,m,y,./images/FERRYHB.png,,,,,,,,,,,,,,,,,,,,,0,0.32244898,-0.335714286,1,0,0,1.894,button_right_test,0,0,0,57,1
,,,,,,,,,,,,,,,,,61037a7204c3bfc31c1289dd,26,2022-02-12_17h22.52.153,lexical_decision_task_DD_L5,2021.2.3,iPhone,62.5,,,,,,,,,,1.176,0,,,,,,,,,,,,,,,,,,,,,,,0.312244898,-0.344897959,1,0,0,,,,,,,SCREW,HB,z,y,./images/SCREWHB.png,,,,,,,,,,,,,,,,,,,,,0,0.312244898,-0.344897959,1,0,0,1.176,button_right_test,0,1,1,108,1
,,,,,,,,,,,,,,,,,61037a7204c3bfc31c1289dd,26,2022-02-12_17h22.52.153,lexical_decision_task_DD_L5,2021.2.3,iPhone,62.5,,,,,,,,,,0.814,1,,,,,,,,,,,,,,,,,,,,,,,-0.354081633,-0.38877551,1,0,0,,,,,,,SKIING,C,z,y,./images/SKIING.png,,,,,,,,,,,,,,,,,,,,,0,-0.354081633,-0.38877551,1,0,0,0.814,button_left_test,0,2,2,101,1
,,,,,,,,,,,,,,,,,61037a7204c3bfc31c1289dd,26,2022-02-12_17h22.52.153,lexical_decision_task_DD_L5,2021.2.3,iPhone,62.5,,,,,,,,,,1.263,1,,,,,,,,,,,,,,,,,,,,,,,0.303061224,-0.344897959,1,0,0,,,,,,,TOWEL,LB,m,y,./images/TOWELLB.png,,,,,,,,,,,,,,,,,,,,,0,0.303061224,-0.344897959,1,0,0,1.263,button_right_test,0,3,3,1,1
,,,,,,,,,,,,,,,,,61037a7204c3bfc31c1289dd,26,2022-02-12_17h22.52.153,lexical_decision_task_DD_L5,2021.2.3,iPhone,62.5,,,,,,,,,,0.765,1,,,,,,,,,,,,,,,,,,,,,,,0.295918367,-0.325510204,1,0,0,,,,,,,BLOKE,HB,m,y,./images/BLOKEHB.png,,,,,,,,,,,,,,,,,,,,,0,0.295918367,-0.325510204,1,0,0,0.765,button_right_test,0,4,4,12,1
,,,,,,,,,,,,,,,,,61037a7204c3bfc31c1289dd,26,2022-02-12_17h22.52.153,lexical_decision_task_DD_L5,2021.2.3,iPhone,62.5,,,,,,,,,,0.793,1,,,,,,,,,,,,,,,,,,,,,,,-0.347959184,-0.333673469,1,0,0,,,,,,,SAILOR,LB,z,y,./images/SAILORLB.png,,,,,,,,,,,,,,,,,,,,,0,-0.347959184,-0.333673469,1,0,0,0.793,button_left_test,0,5,5,151,1
,,,,,,,,,,,,,,,,,61037a7204c3bfc31c1289dd,26,2022-02-12_17h22.52.153,lexical_decision_task_DD_L5,2021.2.3,iPhone,62.5,,,,,,,,,,1.389,1,,,,,,,,,,,,,,,,,,,,,,,0.31122449,-0.360204082,1,0,0,,,,,,,CASINO,LB,m,y,./images/CASINOLB.png,,,,,,,,,,,,,,,,,,,,,0,0.31122449,-0.360204082,1,0,0,1.389,button_right_test,0,6,6,28,1
,,,,,,,,,,,,,,,,,61037a7204c3bfc31c1289dd,26,2022-02-12_17h22.52.153,lexical_decision_task_DD_L5,2021.2.3,iPhone,62.5,,,,,,,,,,2.598,0,,,,,,,,,,,,,,,,,,,,,,,-0.341836735,-0.267346939,1,0,0,,,,,,,BUNNY,LB,m,y,./images/BUNNYLB.png,,,,,,,,,,,,,,,,,,,,,0,-0.341836735,-0.267346939,1,0,0,2.598,button_left_test,0,7,7,13,1
,,,,,,,,,,,,,,,,,61037a7204c3bfc31c1289dd,26,2022-02-12_17h22.52.153,lexical_decision_task_DD_L5,2021.2.3,iPhone,62.5,,,,,,,,,,1.721,0,,,,,,,,,,,,,,,,,,,,,,,0.337755102,-0.32244898,1,0,0,,,,,,,CANYON,LB,z,y,./images/CANYONLB.png,,,,,,,,,,,,,,,,,,,,,0,0.337755102,-0.32244898,1,0,0,1.721,button_right_test,0,8,8,118,1
,,,,,,,,,,,,,,,,,61037a7204c3bfc31c1289dd,26,2022-02-12_17h22.52.153,lexical_decision_task_DD_L5,2021.2.3,iPhone,62.5,,,,,,,,,,1.784,1,,,,,,,,,,,,,,,,,,,,,,,0.317346939,-0.328571429,1,0,0,,,,,,,CANDY,HB,m,y,./images/CANDYHB.png,,,,,,,,,,,,,,,,,,,,,0,0.317346939,-0.328571429,1,0,0,1.784,button_right_test,0,9,9,39,1
,,,,,,,,,,,,,,,,,61037a7204c3bfc31c1289dd,26,2022-02-12_17h22.52.153,lexical_decision_task_DD_L5,2021.2.3,iPhone,62.5,,,,,,,,,,1.597,1,,,,,,,,,,,,,,,,,,,,,,,-0.364285714,-0.312244898,1,0,0,,,,,,,URINE,LB,z,y,./images/URINELB.png,,,,,,,,,,,,,,,,,,,,,0,-0.364285714,-0.312244898,1,0,0,1.597,button_left_test,0,10,10,154,1
,,,,,,,,,,,,,,,,,61037a7204c3bfc31c1289dd,26,2022-02-12_17h22.52.153,lexical_decision_task_DD_L5,2021.2.3,iPhone,62.5,,,,,,,,,,1.19,1,,,,,,,,,,,,,,,,,,,,,,,0.305102041,-0.351020408,1,0,0,,,,,,,WHISKY,C,m,y,./images/WHISKY.png,,,,,,,,,,,,,,,,,,,,,0,0.305102041,-0.351020408,1,0,0,1.19,button_right_test,0,11,11,83,1
,,,,,,,,,,,,,,,,,61037a7204c3bfc31c1289dd,26,2022-02-12_17h22.52.153,lexical_decision_task_DD_L5,2021.2.3,iPhone,62.5,,,,,,,,,,2.037,1,,,,,,,,,,,,,,,,,,,,,,,0.295918367,-0.28877551,1,0,0,,,,,,,CLOWN,LB,m,y,./images/CLOWNLB.png,,,,,,,,,,,,,,,,,,,,,0,0.295918367,-0.28877551,1,0,0,2.037,button_right_test,0,12,12,22,1
,,,,,,,,,,,,,,,,,61037a7204c3bfc31c1289dd,26,2022-02-12_17h22.52.153,lexical_decision_task_DD_L5,2021.2.3,iPhone,62.5,,,,,,,,,,1.079,1,,,,,,,,,,,,,,,,,,,,,,,0.267346939,-0.296938776,1,0,0,,,,,,,CURRY,HB,m,y,./images/CURRYHB.png,,,,,,,,,,,,,,,,,,,,,0,0.267346939,-0.296938776,1,0,0,1.079,button_right_test,0,13,13,60,1
,,,,,,,,,,,,,,,,,61037a7204c3bfc31c1289dd,26,2022-02-12_17h22.52.153,lexical_decision_task_DD_L5,2021.2.3,iPhone,62.5,,,,,,,,,,1.209,1,,,,,,,,,,,,,,,,,,,,,,,0.282653061,-0.318367347,1,0,0,,,,,,,SNAKE,LB,m,y,./images/SNAKELB.png,,,,,,,,,,,,,,,,,,,,,0,0.282653061,-0.318367347,1,0,0,1.209,button_right_test,0,14,14,40,1
,,,,,,,,,,,,,,,,,61037a7204c3bfc31c1289dd,26,2022-02-12_17h22.52.153,lexical_decision_task_DD_L5,2021.2.3,iPhone,62.5,,,,,,,,,,0.731,1,,,,,,,,,,,,,,,,,,,,,,,-0.298979592,-0.367346939,1,0,0,,,,,,,JUNGLE,C,z,y,./images/JUNGLE.png,,,,,,,,,,,,,,,,,,,,,0,-0.298979592,-0.367346939,1,0,0,0.731,button_left_test,0,15,15,167,1
,,,,,,,,,,,,,,,,,61037a7204c3bfc31c1289dd,26,2022-02-12_17h22.52.153,lexical_decision_task_DD_L5,2021.2.3,iPhone,62.5,,,,,,,,,,1.614,1,,,,,,,,,,,,,,,,,,,,,,,-0.275510204,-0.330612245,1,0,0,,,,,,,QUILL,LB,z,y,./images/QUILLLB.png,,,,,,,,,,,,,,,,,,,,,0,-0.275510204,-0.330612245,1,0,0,1.614,button_left_test,0,16,16,115,1
,,,,,,,,,,,,,,,,,61037a7204c3bfc31c1289dd,26,2022-02-12_17h22.52.153,lexical_decision_task_DD_L5,2021.2.3,iPhone,62.5,,,,,,,,,,0.805,1,,,,,,,,,,,,,,,,,,,,,,,0.319387755,-0.31122449,1,0,0,,,,,,,PARADE,C,m,y,./images/PARADE.png,,,,,,,,,,,,,,,,,,,,,0,0.319387755,-0.31122449,1,0,0,0.805,button_right_test,0,17,17,17,1
,,,,,,,,,,,,,,,,,61037a7204c3bfc31c1289dd,26,2022-02-12_17h22.52.153,lexical_decision_task_DD_L5,2021.2.3,iPhone,62.5,,,,,,,,,,0.944,1,,,,,,,,,,,,,,,,,,,,,,,-0.358163265,-0.35,1,0,0,,,,,,,SUNSET,LB,z,y,./images/SUNSETLB.png,,,,,,,,,,,,,,,,,,,,,0,-0.358163265,-0.35,1,0,0,0.944,button_left_test,0,18,18,166,1
,,,,,,,,,,,,,,,,,61037a7204c3bfc31c1289dd,26,2022-02-12_17h22.52.153,lexical_decision_task_DD_L5,2021.2.3,iPhone,62.5,,,,,,,,,,1.095,0,,,,,,,,,,,,,,,,,,,,,,,-0.329591837,-0.27755102,1,0,0,,,,,,,JUMPER,C,m,y,./images/JUMPER.png,,,,,,,,,,,,,,,,,,,,,0,-0.329591837,-0.27755102,1,0,0,1.095,button_left_test,0,19,19,74,1
,,,,,,,,,,,,,,,,,61037a7204c3bfc31c1289dd,26,2022-02-12_17h22.52.153,lexical_decision_task_DD_L5,2021.2.3,iPhone,62.5,,,,,,,,,,1.312,1,,,,,,,,,,,,,,,,,,,,,,,-0.37244898,-0.297959184,1,0,0,,,,,,,NOOSE,HB,z,y,./images/NOOSEHB.png,,,,,,,,,,,,,,,,,,,,,0,-0.37244898,-0.297959184,1,0,0,1.312,button_left_test,0,20,20,156,1
,,,,,,,,,,,,,,,,,61037a7204c3bfc31c1289dd,26,2022-02-12_17h22.52.153,lexical_decision_task_DD_L5,2021.2.3,iPhone,62.5,,,,,,,,,,1.21,1,,,,,,,,,,,,,,,,,,,,,,,-0.320408163,-0.316326531,1,0,0,,,,,,,PLANK,LB,z,y,./images/PLANKLB.png,,,,,,,,,,,,,,,,,,,,,0,-0.320408163,-0.316326531,1,0,0,1.21,button_left_test,0,21,21,85,1
,,,,,,,,,,,,,,,,,61037a7204c3bfc31c1289dd,26,2022-02-12_17h22.52.153,lexical_decision_task_DD_L5,2021.2.3,iPhone,62.5,,,,,,,,,,0.982,1,,,,,,,,,,,,,,,,,,,,,,,-0.274489796,-0.374489796,1,0,0,,,,,,,INFANT,LB,z,y,./images/INFANTLB.png,,,,,,,,,,,,,,,,,,,,,0,-0.274489796,-0.374489796,1,0,0,0.982,button_left_test,0,22,22,160,1
,,,,,,,,,,,,,,,,,61037a7204c3bfc31c1289dd,26,2022-02-12_17h22.52.153,lexical_decision_task_DD_L5,2021.2.3,iPhone,62.5,,,,,,,,,,1.284,1,,,,,,,,,,,,,,,,,,,,,,,0.25,-0.339795918,1,0,0,,,,,,,STREAM,C,m,y,./images/STREAM.png,,,,,,,,,,,,,,,,,,,,,0,0.25,-0.339795918,1,0,0,1.284,button_right_test,0,23,23,41,1
,,,,,,,,,,,,,,,,,61037a7204c3bfc31c1289dd,26,2022-02-12_17h22.52.153,lexical_decision_task_DD_L5,2021.2.3,iPhone,62.5,,,,,,,,,,1.154,1,,,,,,,,,,,,,,,,,,,,,,,0.285714286,-0.315306122,1,0,0,,,,,,,GARDEN,LB,m,y,./images/GARDENLB.png,,,,,,,,,,,,,,,,,,,,,0,0.285714286,-0.315306122,1,0,0,1.154,button_right_test,0,24,24,10,1
,,,,,,,,,,,,,,,,,61037a7204c3bfc31c1289dd,26,2022-02-12_17h22.52.153,lexical_decision_task_DD_L5,2021.2.3,iPhone,62.5,,,,,,,,,,1.123,1,,,,,,,,,,,,,,,,,,,,,,,-0.313265306,-0.323469388,1,0,0,,,,,,,FOLDER,HB,z,y,./images/FOLDERHB.png,,,,,,,,,,,,,,,,,,,,,0,-0.313265306,-0.323469388,1,0,0,1.123,button_left_test,0,25,25,126,1
,,,,,,,,,,,,,,,,,61037a7204c3bfc31c1289dd,26,2022-02-12_17h22.52.153,lexical_decision_task_DD_L5,2021.2.3,iPhone,62.5,,,,,,,,,,1.012,1,,,,,,,,,,,,,,,,,,,,,,,0.284693878,-0.333673469,1,0,0,,,,,,,BISHOP,LB,m,y,./images/BISHOPLB.png,,,,,,,,,,,,,,,,,,,,,0,0.284693878,-0.333673469,1,0,0,1.012,button_right_test,0,26,26,49,1
,,,,,,,,,,,,,,,,,61037a7204c3bfc31c1289dd,26,2022-02-12_17h22.52.153,lexical_decision_task_DD_L5,2021.2.3,iPhone,62.5,,,,,,,,,,0.665,1,,,,,,,,,,,,,,,,,,,,,,,0.306122449,-0.353061224,1,0,0,,,,,,,STATUE,HB,m,y,./images/STATUEHB.png,,,,,,,,,,,,,,,,,,,,,0,0.306122449,-0.353061224,1,0,0,0.665,button_right_test,0,27,27,66,1
,,,,,,,,,,,,,,,,,61037a7204c3bfc31c1289dd,26,2022-02-12_17h22.52.153,lexical_decision_task_DD_L5,2021.2.3,iPhone,62.5,,,,,,,,,,1.047,1,,,,,,,,,,,,,,,,,,,,,,,-0.26122449,-0.313265306,1,0,0,,,,,,,SNACK,LB,z,y,./images/SNACKLB.png,,,,,,,,,,,,,,,,,,,,,0,-0.26122449,-0.313265306,1,0,0,1.047,button_left_test,0,28,28,157,1
,,,,,,,,,,,,,,,,,61037a7204c3bfc31c1289dd,26,2022-02-12_17h22.52.153,lexical_decision_task_DD_L5,2021.2.3,iPhone,62.5,,,,,,,,,,0.919,1,,,,,,,,,,,,,,,,,,,,,,,-0.339795918,-0.33877551,1,0,0,,,,,,,MOSQUE,LB,z,y,./images/MOSQUELB.png,,,,,,,,,,,,,,,,,,,,,0,0.023469388,-0.325510204,1,0,0,0.919,button_left_test,0,29,29,127,1
,,,,,,,,,,,,,,,,,61037a7204c3bfc31c1289dd,26,2022-02-12_17h22.52.153,lexical_decision_task_DD_L5,2021.2.3,iPhone,62.5,,,,,,,,,,0.925,1,,,,,,,,,,,,,,,,,,,,,,,0.279591837,-0.356122449,1,0,0,,,,,,,HEATER,C,m,y,./images/HEATER.png,,,,,,,,,,,,,,,,,,,,,0,0.279591837,-0.356122449,1,0,0,0.925,button_right_test,0,30,30,56,1
,,,,,,,,,,,,,,,,,61037a7204c3bfc31c1289dd,26,2022-02-12_17h22.52.153,lexical_decision_task_DD_L5,2021.2.3,iPhone,62.5,,,,,,,,,,1.422,1,,,,,,,,,,,,,,,,,,,,,,,-0.318367347,-0.325510204,1,0,0,,,,,,,TWINS,HB,z,y,./images/TWINSHB.png,,,,,,,,,,,,,,,,,,,,,0,-0.318367347,-0.325510204,1,0,0,1.422,button_left_test,0,31,31,144,1
,,,,,,,,,,,,,,,,,61037a7204c3bfc31c1289dd,26,2022-02-12_17h22.52.153,lexical_decision_task_DD_L5,2021.2.3,iPhone,62.5,,,,,,,,,,0.732,1,,,,,,,,,,,,,,,,,,,,,,,-0.31122449,-0.353061224,1,0,0,,,,,,,LITTER,HB,z,y,./images/LITTERHB.png,,,,,,,,,,,,,,,,,,,,,0,-0.31122449,-0.353061224,1,0,0,0.732,button_left_test,0,32,32,162,1
,,,,,,,,,,,,,,,,,61037a7204c3bfc31c1289dd,26,2022-02-12_17h22.52.153,lexical_decision_task_DD_L5,2021.2.3,iPhone,62.5,,,,,,,,,,1.378,1,,,,,,,,,,,,,,,,,,,,,,,0.364285714,-0.329591837,1,0,0,,,,,,,ENGINE,C,m,y,./images/ENGINE.png,,,,,,,,,,,,,,,,,,,,,0,0.364285714,-0.329591837,1,0,0,1.378,button_right_test,0,33,33,38,1
,,,,,,,,,,,,,,,,,61037a7204c3bfc31c1289dd,26,2022-02-12_17h22.52.153,lexical_decision_task_DD_L5,2021.2.3,iPhone,62.5,,,,,,,,,,1.389,0,,,,,,,,,,,,,,,,,,,,,,,0.347959184,-0.337755102,1,0,0,,,,,,,SWEAT,HB,z,y,./images/SWEATHB.png,,,,,,,,,,,,,,,,,,,,,0,0.347959184,-0.337755102,1,0,0,1.389,button_right_test,0,34,34,150,1
,,,,,,,,,,,,,,,,,61037a7204c3bfc31c1289dd,26,2022-02-12_17h22.52.153,lexical_decision_task_DD_L5,2021.2.3,iPhone,62.5,,,,,,,,,,0.927,1,,,,,,,,,,,,,,,,,,,,,,,0.32755102,-0.279591837,1,0,0,,,,,,,BAKER,HB,m,y,./images/BAKERHB.png,,,,,,,,,,,,,,,,,,,,,0,0.32755102,-0.279591837,1,0,0,0.927,button_right_test,0,35,35,63,1
,,,,,,,,,,,,,,,,,61037a7204c3bfc31c1289dd,26,2022-02-12_17h22.52.153,lexical_decision_task_DD_L5,2021.2.3,iPhone,62.5,,,,,,,,,,1.054,1,,,,,,,,,,,,,,,,,,,,,,,0.294897959,-0.315306122,1,0,0,,,,,,,POKER,LB,m,y,./images/POKERLB.png,,,,,,,,,,,,,,,,,,,,,0,0.294897959,-0.315306122,1,0,0,1.054,button_right_test,0,36,36,67,1
,,,,,,,,,,,,,,,,,61037a7204c3bfc31c1289dd,26,2022-02-12_17h22.52.153,lexical_decision_task_DD_L5,2021.2.3,iPhone,62.5,,,,,,,,,,0.869,1,,,,,,,,,,,,,,,,,,,,,,,0.324489796,-0.303061224,1,0,0,,,,,,,BUTTER,HB,m,y,./images/BUTTERHB.png,,,,,,,,,,,,,,,,,,,,,0,0.324489796,-0.303061224,1,0,0,0.869,button_right_test,0,37,37,27,1
,,,,,,,,,,,,,,,,,61037a7204c3bfc31c1289dd,26,2022-02-12_17h22.52.153,lexical_decision_task_DD_L5,2021.2.3,iPhone,62.5,,,,,,,,,,0.626,1,,,,,,,,,,,,,,,,,,,,,,,0.314285714,-0.384693878,1,0,0,,,,,,,SAUCE,HB,m,y,./images/SAUCEHB.png,,,,,,,,,,,,,,,,,,,,,0,0.314285714,-0.384693878,1,0,0,0.626,button_right_test,0,38,38,51,1
,,,,,,,,,,,,,,,,,61037a7204c3bfc31c1289dd,26,2022-02-12_17h22.52.153,lexical_decision_task_DD_L5,2021.2.3,iPhone,62.5,,,,,,,,,,1.147,0,,,,,,,,,,,,,,,,,,,,,,,0.296938776,-0.352040816,1,0,0,,,,,,,BANNER,LB,z,y,./images/BANNERLB.png,,,,,,,,,,,,,,,,,,,,,0,0.296938776,-0.352040816,1,0,0,1.147,button_right_test,0,39,39,136,1
,,,,,,,,,,,,,,,,,61037a7204c3bfc31c1289dd,26,2022-02-12_17h22.52.153,lexical_decision_task_DD_L5,2021.2.3,iPhone,62.5,,,,,,,,,,0.798,1,,,,,,,,,,,,,,,,,,,,,,,0.319387755,-0.320408163,1,0,0,,,,,,,ALLEY,LB,m,y,./images/ALLEYLB.png,,,,,,,,,,,,,,,,,,,,,0,0.319387755,-0.320408163,1,0,0,0.798,button_right_test,0,40,40,55,1
,,,,,,,,,,,,,,,,,61037a7204c3bfc31c1289dd,26,2022-02-12_17h22.52.153,lexical_decision_task_DD_L5,2021.2.3,iPhone,62.5,,,,,,,,,,2.32,1,,,,,,,,,,,,,,,,,,,,,,,0.070408163,-0.358163265,1,0,0,,,,,,,SHELF,HB,z,y,./images/SHELFHB.png,break_done_button,,,,,,,,,,,,,,,,,,,,0,-0.383673469,-0.352040816,1,0,0,2.32,button_left_test,0,41,41,123,1
,,,,,,,,,,,,,,,,,61037a7204c3bfc31c1289dd,26,2022-02-12_17h22.52.153,lexical_decision_task_DD_L5,2021.2.3,iPhone,62.5,,,,,,,,,,0.856,1,,,,,,,,,,,,,,,,,,,,,,,0.381632653,-0.32244898,1,0,0,,,,,,,HOCKEY,C,m,y,./images/HOCKEY.png,,,,,,,,,,,,,,,,,,,,,0,0.381632653,-0.32244898,1,0,0,0.856,button_right_test,0,42,42,32,1
,,,,,,,,,,,,,,,,,61037a7204c3bfc31c1289dd,26,2022-02-12_17h22.52.153,lexical_decision_task_DD_L5,2021.2.3,iPhone,62.5,,,,,,,,,,0.669,0,,,,,,,,,,,,,,,,,,,,,,,0.343877551,-0.337755102,1,0,0,,,,,,,PURSE,C,z,y,./images/PURSE.png,,,,,,,,,,,,,,,,,,,,,0,0.343877551,-0.337755102,1,0,0,0.669,button_right_test,0,43,43,146,1
,,,,,,,,,,,,,,,,,61037a7204c3bfc31c1289dd,26,2022-02-12_17h22.52.153,lexical_decision_task_DD_L5,2021.2.3,iPhone,62.5,,,,,,,,,,0.964,1,,,,,,,,,,,,,,,,,,,,,,,0.321428571,-0.340816327,1,0,0,,,,,,,MONKEY,HB,m,y,./images/MONKEYHB.png,,,,,,,,,,,,,,,,,,,,,0,0.321428571,-0.340816327,1,0,0,0.964,button_right_test,0,44,44,45,1
,,,,,,,,,,,,,,,,,61037a7204c3bfc31c1289dd,26,2022-02-12_17h22.52.153,lexical_decision_task_DD_L5,2021.2.3,iPhone,62.5,,,,,,,,,,1.497,1,,,,,,,,,,,,,,,,,,,,,,,0.313265306,-0.352040816,1,0,0,,,,,,,PEBBLE,LB,m,y,./images/PEBBLELB.png,,,,,,,,,,,,,,,,,,,,,0,0.313265306,-0.352040816,1,0,0,1.497,button_right_test,0,45,45,82,1
,,,,,,,,,,,,,,,,,61037a7204c3bfc31c1289dd,26,2022-02-12_17h22.52.153,lexical_decision_task_DD_L5,2021.2.3,iPhone,62.5,,,,,,,,,,2.179,1,,,,,,,,,,,,,,,,,,,,,,,-0.318367347,-0.279591837,1,0,0,,,,,,,TRIPOD,HB,z,y,./images/TRIPODHB.png,,,,,,,,,,,,,,,,,,,,,0,-0.318367347,-0.279591837,1,0,0,2.179,button_left_test,0,46,46,138,1
,,,,,,,,,,,,,,,,,61037a7204c3bfc31c1289dd,26,2022-02-12_17h22.52.153,lexical_decision_task_DD_L5,2021.2.3,iPhone,62.5,,,,,,,,,,1.024,1,,,,,,,,,,,,,,,,,,,,,,,-0.320408163,-0.332653061,1,0,0,,,,,,,PEACH,C,z,y,./images/PEACH.png,,,,,,,,,,,,,,,,,,,,,0,-0.320408163,-0.332653061,1,0,0,1.024,button_left_test,0,47,47,119,1
,,,,,,,,,,,,,,,,,61037a7204c3bfc31c1289dd,26,2022-02-12_17h22.52.153,lexical_decision_task_DD_L5,2021.2.3,iPhone,62.5,,,,,,,,,,0.693,1,,,,,,,,,,,,,,,,,,,,,,,-0.353061224,-0.329591837,1,0,0,,,,,,,MUSCLE,LB,z,y,./images/MUSCLELB.png,,,,,,,,,,,,,,,,,,,,,0,-0.353061224,-0.329591837,1,0,0,0.693,button_left_test,0,48,48,88,1
,,,,,,,,,,,,,,,,,61037a7204c3bfc31c1289dd,26,2022-02-12_17h22.52.153,lexical_decision_task_DD_L5,2021.2.3,iPhone,62.5,,,,,,,,,,1.048,1,,,,,,,,,,,,,,,,,,,,,,,0.357142857,-0.339795918,1,0,0,,,,,,,STAIN,HB,m,y,./images/STAINHB.png,,,,,,,,,,,,,,,,,,,,,0,0.357142857,-0.339795918,1,0,0,1.048,button_right_test,0,49,49,6,1
,,,,,,,,,,,,,,,,,61037a7204c3bfc31c1289dd,26,2022-02-12_17h22.52.153,lexical_decision_task_DD_L5,2021.2.3,iPhone,62.5,,,,,,,,,,1.456,1,,,,,,,,,,,,,,,,,,,,,,,-0.281632653,-0.214285714,1,0,0,,,,,,,CRUST,LB,z,y,./images/CRUSTLB.png,,,,,,,,,,,,,,,,,,,,,0,-0.281632653,-0.214285714,1,0,0,1.456,button_left_test,0,50,50,163,1
,,,,,,,,,,,,,,,,,61037a7204c3bfc31c1289dd,26,2022-02-12_17h22.52.153,lexical_decision_task_DD_L5,2021.2.3,iPhone,62.5,,,,,,,,,,1.303,0,,,,,,,,,,,,,,,,,,,,,,,0.31122449,-0.335714286,1,0,0,,,,,,,COOKER,HB,z,y,./images/COOKERHB.png,,,,,,,,,,,,,,,,,,,,,0,0.31122449,-0.335714286,1,0,0,1.303,button_right_test,0,51,51,153,1
,,,,,,,,,,,,,,,,,61037a7204c3bfc31c1289dd,26,2022-02-12_17h22.52.153,lexical_decision_task_DD_L5,2021.2.3,iPhone,62.5,,,,,,,,,,1.105,0,,,,,,,,,,,,,,,,,,,,,,,0.315306122,-0.308163265,1,0,0,,,,,,,CRUMB,C,z,y,./images/CRUMB.png,,,,,,,,,,,,,,,,,,,,,0,0.315306122,-0.308163265,1,0,0,1.105,button_right_test,0,52,52,113,1
,,,,,,,,,,,,,,,,,61037a7204c3bfc31c1289dd,26,2022-02-12_17h22.52.153,lexical_decision_task_DD_L5,2021.2.3,iPhone,62.5,,,,,,,,,,1.903,1,,,,,,,,,,,,,,,,,,,,,,,-0.293877551,-0.373469388,1,0,0,,,,,,,FALCON,LB,z,y,./images/FALCONLB.png,,,,,,,,,,,,,,,,,,,,,0,-0.293877551,-0.373469388,1,0,0,1.903,button_left_test,0,53,53,112,1
,,,,,,,,,,,,,,,,,61037a7204c3bfc31c1289dd,26,2022-02-12_17h22.52.153,lexical_decision_task_DD_L5,2021.2.3,iPhone,62.5,,,,,,,,,,0.685,1,,,,,,,,,,,,,,,,,,,,,,,0.330612245,-0.324489796,1,0,0,,,,,,,LLAMA,C,m,y,./images/LLAMA.png,,,,,,,,,,,,,,,,,,,,,0,0.330612245,-0.324489796,1,0,0,0.685,button_right_test,0,54,54,35,1
,,,,,,,,,,,,,,,,,61037a7204c3bfc31c1289dd,26,2022-02-12_17h22.52.153,lexical_decision_task_DD_L5,2021.2.3,iPhone,62.5,,,,,,,,,,0.876,0,,,,,,,,,,,,,,,,,,,,,,,-0.376530612,-0.342857143,1,0,0,,,,,,,GLOVE,LB,m,y,./images/GLOVELB.png,,,,,,,,,,,,,,,,,,,,,0,-0.376530612,-0.342857143,1,0,0,0.876,button_left_test,0,55,55,73,1
,,,,,,,,,,,,,,,,,61037a7204c3bfc31c1289dd,26,2022-02-12_17h22.52.153,lexical_decision_task_DD_L5,2021.2.3,iPhone,62.5,,,,,,,,,,1.265,1,,,,,,,,,,,,,,,,,,,,,,,-0.347959184,-0.358163265,1,0,0,,,,,,,MELON,LB,z,y,./images/MELONLB.png,,,,,,,,,,,,,,,,,,,,,0,-0.347959184,-0.358163265,1,0,0,1.265,button_left_test,0,56,56,106,1
,,,,,,,,,,,,,,,,,61037a7204c3bfc31c1289dd,26,2022-02-12_17h22.52.153,lexical_decision_task_DD_L5,2021.2.3,iPhone,62.5,,,,,,,,,,2.453,0,,,,,,,,,,,,,,,,,,,,,,,0.316326531,-0.329591837,1,0,0,,,,,,,CANDLE,LB,z,y,./images/CANDLELB.png,,,,,,,,,,,,,,,,,,,,,0,0.316326531,-0.329591837,1,0,0,2.453,button_right_test,0,57,57,145,1
,,,,,,,,,,,,,,,,,61037a7204c3bfc31c1289dd,26,2022-02-12_17h22.52.153,lexical_decision_task_DD_L5,2021.2.3,iPhone,62.5,,,,,,,,,,2.118,1,,,,,,,,,,,,,,,,,,,,,,,0.355102041,-0.329591837,1,0,0,,,,,,,BROOM,HB,m,y,./images/BROOMHB.png,,,,,,,,,,,,,,,,,,,,,0,0.355102041,-0.329591837,1,0,0,2.118,button_right_test,0,58,58,78,1
,,,,,,,,,,,,,,,,,61037a7204c3bfc31c1289dd,26,2022-02-12_17h22.52.153,lexical_decision_task_DD_L5,2021.2.3,iPhone,62.5,,,,,,,,,,1.571,1,,,,,,,,,,,,,,,,,,,,,,,0.32244898,-0.298979592,1,0,0,,,,,,,CLOTH,C,m,y,./images/CLOTH.png,,,,,,,,,,,,,,,,,,,,,0,0.32244898,-0.298979592,1,0,0,1.571,button_right_test,0,59,59,23,1
,,,,,,,,,,,,,,,,,61037a7204c3bfc31c1289dd,26,2022-02-12_17h22.52.153,lexical_decision_task_DD_L5,2021.2.3,iPhone,62.5,,,,,,,,,,1.22,0,,,,,,,,,,,,,,,,,,,,,,,-0.321428571,-0.313265306,1,0,0,,,,,,,RULER,LB,m,y,./images/RULERLB.png,,,,,,,,,,,,,,,,,,,,,0,-0.321428571,-0.313265306,1,0,0,1.22,button_left_test,0,60,60,79,1
,,,,,,,,,,,,,,,,,61037a7204c3bfc31c1289dd,26,2022-02-12_17h22.52.153,lexical_decision_task_DD_L5,2021.2.3,iPhone,62.5,,,,,,,,,,0.749,1,,,,,,,,,,,,,,,,,,,,,,,0.32244898,-0.354081633,1,0,0,,,,,,,MUMMY,LB,m,y,./images/MUMMYLB.png,,,,,,,,,,,,,,,,,,,,,0,0.32244898,-0.354081633,1,0,0,0.749,button_right_test,0,61,61,46,1
,,,,,,,,,,,,,,,,,61037a7204c3bfc31c1289dd,26,2022-02-12_17h22.52.153,lexical_decision_task_DD_L5,2021.2.3,iPhone,62.5,,,,,,,,,,1.612,1,,,,,,,,,,,,,,,,,,,,,,,0.304081633,-0.292857143,1,0,0,,,,,,,FLASK,HB,m,y,./images/FLASKHB.png,,,,,,,,,,,,,,,,,,,,,0,0.304081633,-0.292857143,1,0,0,1.612,button_right_test,0,62,62,72,1
,,,,,,,,,,,,,,,,,61037a7204c3bfc31c1289dd,26,2022-02-12_17h22.52.153,lexical_decision_task_DD_L5,2021.2.3,iPhone,62.5,,,,,,,,,,0.995,1,,,,,,,,,,,,,,,,,,,,,,,0.316326531,-0.341836735,1,0,0,,,,,,,DANCER,HB,m,y,./images/DANCERHB.png,,,,,,,,,,,,,,,,,,,,,0,0.316326531,-0.341836735,1,0,0,0.995,button_right_test,0,63,63,21,1
,,,,,,,,,,,,,,,,,61037a7204c3bfc31c1289dd,26,2022-02-12_17h22.52.153,lexical_decision_task_DD_L5,2021.2.3,iPhone,62.5,,,,,,,,,,0.933,1,,,,,,,,,,,,,,,,,,,,,,,-0.279591837,-0.365306122,1,0,0,,,,,,,MOTOR,LB,z,y,./images/MOTORLB.png,,,,,,,,,,,,,,,,,,,,,0,-0.279591837,-0.365306122,1,0,0,0.933,button_left_test,0,64,64,97,1
,,,,,,,,,,,,,,,,,61037a7204c3bfc31c1289dd,26,2022-02-12_17h22.52.153,lexical_decision_task_DD_L5,2021.2.3,iPhone,62.5,,,,,,,,,,1.367,0,,,,,,,,,,,,,,,,,,,,,,,0.251020408,-0.263265306,1,0,0,,,,,,,MAGGOT,HB,z,y,./images/MAGGOTHB.png,,,,,,,,,,,,,,,,,,,,,0,0.251020408,-0.263265306,1,0,0,1.367,button_right_test,0,65,65,117,1
,,,,,,,,,,,,,,,,,61037a7204c3bfc31c1289dd,26,2022-02-12_17h22.52.153,lexical_decision_task_DD_L5,2021.2.3,iPhone,62.5,,,,,,,,,,2.147,1,,,,,,,,,,,,,,,,,,,,,,,-0.359183673,-0.359183673,1,0,0,,,,,,,CEMENT,C,z,y,./images/CEMENT.png,,,,,,,,,,,,,,,,,,,,,0,-0.359183673,-0.359183673,1,0,0,2.147,button_left_test,0,66,66,158,1
,,,,,,,,,,,,,,,,,61037a7204c3bfc31c1289dd,26,2022-02-12_17h22.52.153,lexical_decision_task_DD_L5,2021.2.3,iPhone,62.5,,,,,,,,,,2.496,1,,,,,,,,,,,,,,,,,,,,,,,-0.369387755,-0.290816327,1,0,0,,,,,,,MUFFIN,LB,z,y,./images/MUFFINLB.png,,,,,,,,,,,,,,,,,,,,,0,-0.369387755,-0.290816327,1,0,0,2.496,button_left_test,0,67,67,139,1
,,,,,,,,,,,,,,,,,61037a7204c3bfc31c1289dd,26,2022-02-12_17h22.52.153,lexical_decision_task_DD_L5,2021.2.3,iPhone,62.5,,,,,,,,,,0.827,1,,,,,,,,,,,,,,,,,,,,,,,-0.298979592,-0.293877551,1,0,0,,,,,,,PICKLE,C,z,y,./images/PICKLE.png,,,,,,,,,,,,,,,,,,,,,0,-0.298979592,-0.293877551,1,0,0,0.827,button_left_test,0,68,68,98,1
,,,,,,,,,,,,,,,,,61037a7204c3bfc31c1289dd,26,2022-02-12_17h22.52.153,lexical_decision_task_DD_L5,2021.2.3,iPhone,62.5,,,,,,,,,,0.979,1,,,,,,,,,,,,,,,,,,,,,,,-0.266326531,-0.32244898,1,0,0,,,,,,,PENCE,LB,z,y,./images/PENCELB.png,,,,,,,,,,,,,,,,,,,,,0,-0.266326531,-0.32244898,1,0,0,0.979,button_left_test,0,69,69,100,1
,,,,,,,,,,,,,,,,,61037a7204c3bfc31c1289dd,26,2022-02-12_17h22.52.153,lexical_decision_task_DD_L5,2021.2.3,iPhone,62.5,,,,,,,,,,1.13,1,,,,,,,,,,,,,,,,,,,,,,,-0.308163265,-0.339795918,1,0,0,,,,,,,PASTA,C,z,y,./images/PASTA.png,,,,,,,,,,,,,,,,,,,,,0,-0.308163265,-0.339795918,1,0,0,1.13,button_left_test,0,70,70,89,1
,,,,,,,,,,,,,,,,,61037a7204c3bfc31c1289dd,26,2022-02-12_17h22.52.153,lexical_decision_task_DD_L5,2021.2.3,iPhone,62.5,,,,,,,,,,0.91,0,,,,,,,,,,,,,,,,,,,,,,,0.36122449,-0.353061224,1,0,0,,,,,,,MIRROR,HB,z,y,./images/MIRRORHB.png,,,,,,,,,,,,,,,,,,,,,0,0.36122449,-0.353061224,1,0,0,0.91,button_right_test,0,71,71,147,1
,,,,,,,,,,,,,,,,,61037a7204c3bfc31c1289dd,26,2022-02-12_17h22.52.153,lexical_decision_task_DD_L5,2021.2.3,iPhone,62.5,,,,,,,,,,0.877,1,,,,,,,,,,,,,,,,,,,,,,,-0.266326531,-0.36122449,1,0,0,,,,,,,PIMPLE,C,z,y,./images/PIMPLE.png,,,,,,,,,,,,,,,,,,,,,0,-0.266326531,-0.36122449,1,0,0,0.877,button_left_test,0,72,72,155,1
,,,,,,,,,,,,,,,,,61037a7204c3bfc31c1289dd,26,2022-02-12_17h22.52.153,lexical_decision_task_DD_L5,2021.2.3,iPhone,62.5,,,,,,,,,,0.769,1,,,,,,,,,,,,,,,,,,,,,,,0.306122449,-0.382653061,1,0,0,,,,,,,WHEEL,C,m,y,./images/WHEEL.png,,,,,,,,,,,,,,,,,,,,,0,0.306122449,-0.382653061,1,0,0,0.769,button_right_test,0,73,73,77,1
,,,,,,,,,,,,,,,,,61037a7204c3bfc31c1289dd,26,2022-02-12_17h22.52.153,lexical_decision_task_DD_L5,2021.2.3,iPhone,62.5,,,,,,,,,,0.75,1,,,,,,,,,,,,,,,,,,,,,,,0.333673469,-0.354081633,1,0,0,,,,,,,SAUNA,HB,m,y,./images/SAUNAHB.png,,,,,,,,,,,,,,,,,,,,,0,0.333673469,-0.354081633,1,0,0,0.75,button_right_test,0,74,74,33,1
,,,,,,,,,,,,,,,,,61037a7204c3bfc31c1289dd,26,2022-02-12_17h22.52.153,lexical_decision_task_DD_L5,2021.2.3,iPhone,62.5,,,,,,,,,,1.273,1,,,,,,,,,,,,,,,,,,,,,,,-0.296938776,-0.341836735,1,0,0,,,,,,,STRING,C,z,y,./images/STRING.png,,,,,,,,,,,,,,,,,,,,,0,-0.296938776,-0.341836735,1,0,0,1.273,button_left_test,0,75,75,125,1
,,,,,,,,,,,,,,,,,61037a7204c3bfc31c1289dd,26,2022-02-12_17h22.52.153,lexical_decision_task_DD_L5,2021.2.3,iPhone,62.5,,,,,,,,,,1.618,0,,,,,,,,,,,,,,,,,,,,,,,0.348979592,-0.339795918,1,0,0,,,,,,,BURIAL,C,z,y,./images/BURIAL.png,,,,,,,,,,,,,,,,,,,,,0,0.348979592,-0.339795918,1,0,0,1.618,button_right_test,0,76,76,143,1
,,,,,,,,,,,,,,,,,61037a7204c3bfc31c1289dd,26,2022-02-12_17h22.52.153,lexical_decision_task_DD_L5,2021.2.3,iPhone,62.5,,,,,,,,,,1.188,1,,,,,,,,,,,,,,,,,,,,,,,-0.284693878,-0.330612245,1,0,0,,,,,,,GRAIN,HB,z,y,./images/GRAINHB.png,,,,,,,,,,,,,,,,,,,,,0,-0.284693878,-0.330612245,1,0,0,1.188,button_left_test,0,77,77,159,1
,,,,,,,,,,,,,,,,,61037a7204c3bfc31c1289dd,26,2022-02-12_17h22.52.153,lexical_decision_task_DD_L5,2021.2.3,iPhone,62.5,,,,,,,,,,1.639,1,,,,,,,,,,,,,,,,,,,,,,,0.317346939,-0.305102041,1,0,0,,,,,,,MEDAL,C,m,y,./images/MEDAL.png,,,,,,,,,,,,,,,,,,,,,0,0.317346939,-0.305102041,1,0,0,1.639,button_right_test,0,78,78,11,1
,,,,,,,,,,,,,,,,,61037a7204c3bfc31c1289dd,26,2022-02-12_17h22.52.153,lexical_decision_task_DD_L5,2021.2.3,iPhone,62.5,,,,,,,,,,0.765,1,,,,,,,,,,,,,,,,,,,,,,,0.325510204,-0.344897959,1,0,0,,,,,,,DIVER,HB,m,y,./images/DIVERHB.png,,,,,,,,,,,,,,,,,,,,,0,0.325510204,-0.344897959,1,0,0,0.765,button_right_test,0,79,79,9,1
,,,,,,,,,,,,,,,,,61037a7204c3bfc31c1289dd,26,2022-02-12_17h22.52.153,lexical_decision_task_DD_L5,2021.2.3,iPhone,62.5,,,,,,,,,,0.699,1,,,,,,,,,,,,,,,,,,,,,,,0.329591837,-0.297959184,1,0,0,,,,,,,STOVE,C,m,y,./images/STOVE.png,,,,,,,,,,,,,,,,,,,,,0,0.329591837,-0.297959184,1,0,0,0.699,button_right_test,0,80,80,2,1
,,,,,,,,,,,,,,,,,61037a7204c3bfc31c1289dd,26,2022-02-12_17h22.52.153,lexical_decision_task_DD_L5,2021.2.3,iPhone,62.5,,,,,,,,,,1.475,1,,,,,,,,,,,,,,,,,,,,,,,-0.276530612,-0.315306122,1,0,0,,,,,,,BIRTH,LB,z,y,./images/BIRTHLB.png,,,,,,,,,,,,,,,,,,,,,0,-0.276530612,-0.315306122,1,0,0,1.475,button_left_test,0,81,81,121,1
,,,,,,,,,,,,,,,,,61037a7204c3bfc31c1289dd,26,2022-02-12_17h22.52.153,lexical_decision_task_DD_L5,2021.2.3,iPhone,62.5,,,,,,,,,,0.765,1,,,,,,,,,,,,,,,,,,,,,,,0.352040816,-0.329591837,1,0,0,,,,,,,MAMMAL,C,m,y,./images/MAMMAL.png,,,,,,,,,,,,,,,,,,,,,0,0.352040816,-0.329591837,1,0,0,0.765,button_right_test,0,82,82,62,1
,,,,,,,,,,,,,,,,,61037a7204c3bfc31c1289dd,26,2022-02-12_17h22.52.153,lexical_decision_task_DD_L5,2021.2.3,iPhone,62.5,,,,,,,,,,0.773,0,,,,,,,,,,,,,,,,,,,,,,,0.113265306,-0.367346939,1,0,0,,,,,,,PEARL,LB,z,y,./images/PEARLLB.png,break_done_button,,,,,,,,,,,,,,,,,,,,0,0.359183673,-0.318367347,1,0,0,0.773,button_right_test,0,83,83,130,1
,,,,,,,,,,,,,,,,,61037a7204c3bfc31c1289dd,26,2022-02-12_17h22.52.153,lexical_decision_task_DD_L5,2021.2.3,iPhone,62.5,,,,,,,,,,0.724,1,,,,,,,,,,,,,,,,,,,,,,,0.355102041,-0.342857143,1,0,0,,,,,,,GRANNY,C,m,y,./images/GRANNY.png,,,,,,,,,,,,,,,,,,,,,0,0.355102041,-0.342857143,1,0,0,0.724,button_right_test,0,84,84,20,1
,,,,,,,,,,,,,,,,,61037a7204c3bfc31c1289dd,26,2022-02-12_17h22.52.153,lexical_decision_task_DD_L5,2021.2.3,iPhone,62.5,,,,,,,,,,0.862,0,,,,,,,,,,,,,,,,,,,,,,,-0.334693878,-0.339795918,1,0,0,,,,,,,GRAPE,LB,m,y,./images/GRAPELB.png,,,,,,,,,,,,,,,,,,,,,0,-0.334693878,-0.339795918,1,0,0,0.862,button_left_test,0,85,85,16,1
,,,,,,,,,,,,,,,,,61037a7204c3bfc31c1289dd,26,2022-02-12_17h22.52.153,lexical_decision_task_DD_L5,2021.2.3,iPhone,62.5,,,,,,,,,,0.64,0,,,,,,,,,,,,,,,,,,,,,,,0.354081633,-0.317346939,1,0,0,,,,,,,TORCH,C,z,y,./images/TORCH.png,,,,,,,,,,,,,,,,,,,,,0,0.354081633,-0.317346939,1,0,0,0.64,button_right_test,0,86,86,152,1
,,,,,,,,,,,,,,,,,61037a7204c3bfc31c1289dd,26,2022-02-12_17h22.52.153,lexical_decision_task_DD_L5,2021.2.3,iPhone,62.5,,,,,,,,,,0.67,0,,,,,,,,,,,,,,,,,,,,,,,0.298979592,-0.314285714,1,0,0,,,,,,,BERRY,C,z,y,./images/BERRY.png,,,,,,,,,,,,,,,,,,,,,0,0.298979592,-0.314285714,1,0,0,0.67,button_right_test,0,87,87,131,1
,,,,,,,,,,,,,,,,,61037a7204c3bfc31c1289dd,26,2022-02-12_17h22.52.153,lexical_decision_task_DD_L5,2021.2.3,iPhone,62.5,,,,,,,,,,0.838,1,,,,,,,,,,,,,,,,,,,,,,,0.298979592,-0.374489796,1,0,0,,,,,,,STOOL,LB,m,y,./images/STOOLLB.png,,,,,,,,,,,,,,,,,,,,,0,0.298979592,-0.374489796,1,0,0,0.838,button_right_test,0,88,88,43,1
,,,,,,,,,,,,,,,,,61037a7204c3bfc31c1289dd,26,2022-02-12_17h22.52.153,lexical_decision_task_DD_L5,2021.2.3,iPhone,62.5,,,,,,,,,,0.899,1,,,,,,,,,,,,,,,,,,,,,,,0.315306122,-0.353061224,1,0,0,,,,,,,BUBBLE,C,m,y,./images/BUBBLE.png,,,,,,,,,,,,,,,,,,,,,0,0.315306122,-0.353061224,1,0,0,0.899,button_right_test,0,89,89,71,1
,,,,,,,,,,,,,,,,,61037a7204c3bfc31c1289dd,26,2022-02-12_17h22.52.153,lexical_decision_task_DD_L5,2021.2.3,iPhone,62.5,,,,,,,,,,0.98,0,,,,,,,,,,,,,,,,,,,,,,,-0.389795918,-0.367346939,1,0,0,,,,,,,LAGOON,C,m,y,./images/LAGOON.png,,,,,,,,,,,,,,,,,,,,,0,-0.389795918,-0.367346939,1,0,0,0.98,button_left_test,0,90,90,47,1
,,,,,,,,,,,,,,,,,61037a7204c3bfc31c1289dd,26,2022-02-12_17h22.52.153,lexical_decision_task_DD_L5,2021.2.3,iPhone,62.5,,,,,,,,,,1.131,1,,,,,,,,,,,,,,,,,,,,,,,-0.304081633,-0.287755102,1,0,0,,,,,,,SPORT,HB,z,y,./images/SPORTHB.png,,,,,,,,,,,,,,,,,,,,,0,-0.304081633,-0.287755102,1,0,0,1.131,button_left_test,0,91,91,132,1
,,,,,,,,,,,,,,,,,61037a7204c3bfc31c1289dd,26,2022-02-12_17h22.52.153,lexical_decision_task_DD_L5,2021.2.3,iPhone,62.5,,,,,,,,,,0.821,1,,,,,,,,,,,,,,,,,,,,,,,-0.32244898,-0.344897959,1,0,0,,,,,,,BEARD,C,z,y,./images/BEARD.png,,,,,,,,,,,,,,,,,,,,,0,-0.32244898,-0.344897959,1,0,0,0.821,button_left_test,0,92,92,86,1
,,,,,,,,,,,,,,,,,61037a7204c3bfc31c1289dd,26,2022-02-12_17h22.52.153,lexical_decision_task_DD_L5,2021.2.3,iPhone,62.5,,,,,,,,,,0.798,1,,,,,,,,,,,,,,,,,,,,,,,0.320408163,-0.31122449,1,0,0,,,,,,,DONKEY,LB,m,y,./images/DONKEYLB.png,,,,,,,,,,,,,,,,,,,,,0,0.320408163,-0.31122449,1,0,0,0.798,button_right_test,0,93,93,19,1
,,,,,,,,,,,,,,,,,61037a7204c3bfc31c1289dd,26,2022-02-12_17h22.52.153,lexical_decision_task_DD_L5,2021.2.3,iPhone,62.5,,,,,,,,,,0.747,1,,,,,,,,,,,,,,,,,,,,,,,0.31122449,-0.363265306,1,0,0,,,,,,,BRIDE,LB,m,y,./images/BRIDELB.png,,,,,,,,,,,,,,,,,,,,,0,0.31122449,-0.363265306,1,0,0,0.747,button_right_test,0,94,94,64,1
,,,,,,,,,,,,,,,,,61037a7204c3bfc31c1289dd,26,2022-02-12_17h22.52.153,lexical_decision_task_DD_L5,2021.2.3,iPhone,62.5,,,,,,,,,,1.029,1,,,,,,,,,,,,,,,,,,,,,,,0.33877551,-0.331632653,1,0,0,,,,,,,BOXER,LB,m,y,./images/BOXERLB.png,,,,,,,,,,,,,,,,,,,,,0,0.33877551,-0.331632653,1,0,0,1.029,button_right_test,0,95,95,4,1
,,,,,,,,,,,,,,,,,61037a7204c3bfc31c1289dd,26,2022-02-12_17h22.52.153,lexical_decision_task_DD_L5,2021.2.3,iPhone,62.5,,,,,,,,,,1.388,0,,,,,,,,,,,,,,,,,,,,,,,-0.42755102,-0.382653061,1,0,0,,,,,,,ARTIST,LB,m,y,./images/ARTISTLB.png,,,,,,,,,,,,,,,,,,,,,0,-0.42755102,-0.382653061,1,0,0,1.388,button_left_test,0,96,96,61,1
,,,,,,,,,,,,,,,,,61037a7204c3bfc31c1289dd,26,2022-02-12_17h22.52.153,lexical_decision_task_DD_L5,2021.2.3,iPhone,62.5,,,,,,,,,,1.325,1,,,,,,,,,,,,,,,,,,,,,,,-0.298979592,-0.346938776,1,0,0,,,,,,,LADDER,C,z,y,./images/LADDER.png,,,,,,,,,,,,,,,,,,,,,0,-0.298979592,-0.346938776,1,0,0,1.325,button_left_test,0,97,97,122,1
,,,,,,,,,,,,,,,,,61037a7204c3bfc31c1289dd,26,2022-02-12_17h22.52.153,lexical_decision_task_DD_L5,2021.2.3,iPhone,62.5,,,,,,,,,,0.814,1,,,,,,,,,,,,,,,,,,,,,,,0.348979592,-0.326530612,1,0,0,,,,,,,PISTOL,C,m,y,./images/PISTOL.png,,,,,,,,,,,,,,,,,,,,,0,0.348979592,-0.326530612,1,0,0,0.814,button_right_test,0,98,98,29,1
,,,,,,,,,,,,,,,,,61037a7204c3bfc31c1289dd,26,2022-02-12_17h22.52.153,lexical_decision_task_DD_L5,2021.2.3,iPhone,62.5,,,,,,,,,,2.335,1,,,,,,,,,,,,,,,,,,,,,,,0.360204082,-0.308163265,1,0,0,,,,,,,STEAK,LB,m,y,./images/STEAKLB.png,,,,,,,,,,,,,,,,,,,,,0,0.360204082,-0.308163265,1,0,0,2.335,button_right_test,0,99,99,31,1
,,,,,,,,,,,,,,,,,61037a7204c3bfc31c1289dd,26,2022-02-12_17h22.52.153,lexical_decision_task_DD_L5,2021.2.3,iPhone,62.5,,,,,,,,,,0.882,1,,,,,,,,,,,,,,,,,,,,,,,-0.266326531,-0.351020408,1,0,0,,,,,,,BABOON,LB,z,y,./images/BABOONLB.png,,,,,,,,,,,,,,,,,,,,,0,-0.266326531,-0.351020408,1,0,0,0.882,button_left_test,0,100,100,142,1
,,,,,,,,,,,,,,,,,61037a7204c3bfc31c1289dd,26,2022-02-12_17h22.52.153,lexical_decision_task_DD_L5,2021.2.3,iPhone,62.5,,,,,,,,,,0.88,1,,,,,,,,,,,,,,,,,,,,,,,0.37244898,-0.319387755,1,0,0,,,,,,,SPINE,C,m,y,./images/SPINE.png,,,,,,,,,,,,,,,,,,,,,0,0.37244898,-0.319387755,1,0,0,0.88,button_right_test,0,101,101,65,1
,,,,,,,,,,,,,,,,,61037a7204c3bfc31c1289dd,26,2022-02-12_17h22.52.153,lexical_decision_task_DD_L5,2021.2.3,iPhone,62.5,,,,,,,,,,1.479,1,,,,,,,,,,,,,,,,,,,,,,,0.280612245,-0.304081633,1,0,0,,,,,,,BANANA,LB,m,y,./images/BANANALB.png,,,,,,,,,,,,,,,,,,,,,0,0.280612245,-0.304081633,1,0,0,1.479,button_right_test,0,102,102,70,1
