key_resp.keys,instr_done_touch.x,instr_done_touch.y,instr_done_touch.leftButton,instr_done_touch.midButton,instr_done_touch.rightButton,instr_done_touch.clicked_name,instruction_pages.thisRepN,instruction_pages.thisTrialN,instruction_pages.thisN,instruction_pages.thisIndex,instruction_pages.ran,pageN,phase,instruct_text,has_image,instruct_image,participant,age,date,expName,psychopyVersion,OS,frameRate,response.keys,response.corr,touch_resp.x,touch_resp.y,touch_resp.leftButton,touch_resp.midButton,touch_resp.rightButton,touch_resp.time,touch_resp.clicked_name,rt,corr,practrials.thisRepN,practrials.thisTrialN,practrials.thisN,practrials.thisIndex,practrials.ran,TrialID,Target,corrAns,end_of_practice_trials_pages.thisRepN,end_of_practice_trials_pages.thisTrialN,end_of_practice_trials_pages.thisN,end_of_practice_trials_pages.thisIndex,end_of_practice_trials_pages.ran,key_resp_2.keys,key_resp_2.corr,targ_click.x,targ_click.y,targ_click.leftButton,targ_click.midButton,targ_click.rightButton,targ_click.time,targ_click.clicked_name,break_done_touch.x,break_done_touch.y,break_done_touch.leftButton,break_done_touch.midButton,break_done_touch.rightButton,break_done_keyboard.keys,maintrials.thisRepN,maintrials.thisTrialN,maintrials.thisN,maintrials.thisIndex,maintrials.ran,string,blur,study,lex,stim_path,break_done_touch.clicked_name,mouse_2.x,mouse_2.y,mouse_2.leftButton,mouse_2.midButton,mouse_2.rightButton,mouse_2.clicked_name,slider.response,slider.rt,trials.thisRepN,trials.thisTrialN,trials.thisN,trials.thisIndex,trials.ran,test_instructions.thisRepN,test_instructions.thisTrialN,test_instructions.thisN,test_instructions.thisIndex,test_instructions.ran,key_resp_3.keys,key_resp_3.corr,test_click.x,test_click.y,test_click.leftButton,test_click.midButton,test_click.rightButton,test_click.time,test_click.clicked_name,test_phase.thisRepN,test_phase.thisTrialN,test_phase.thisN,test_phase.thisIndex,test_phase.ran
,0.00625,-0.390625,1,0,0,instr_done_button,0,0,0,0,1,1,instructions,"INSTRUCTIONS
At the start of each trial, look at the plus sign  (+) in the center of the screen.  This tells you that a trial is about to begin and where to look. Second, the plus sign will disappear and a string of letters will appear. Your task is to determine if the string of letters is a word or not. If the item is a word press the M key (on keyboard)  or touch the word button (phone/tablet).  If the item is not a word,  press the  Z key (on keyboard)  or touch the nonword button (on phone/tablet). 
Press the space bar or touch  continue.",0,,610f188b8ad0a93f6d508cad,27,2022-02-12_13h27.02.791,lexical_decision_task_DD_L5,2021.2.3,Linux armv7l,59.84798612,,,,,,,,,,,,,,,,,,,,,,,,,,,,,,,,,,,,,,,,,,,,,,,,,,,,,,,,,,,,,,,,,,,,,,,,,,,,,,,,,,
,0.066666698,-0.369791698,1,0,0,instr_done_button,0,1,1,1,1,2,instructions,"If your device has a keyboard, press the 'Z' key for nonwords and the 'M' key for words.





Press the space bar or touch the button below to continue.",0,keyboard-example.gif,610f188b8ad0a93f6d508cad,27,2022-02-12_13h27.02.791,lexical_decision_task_DD_L5,2021.2.3,Linux armv7l,59.84798612,,,,,,,,,,,,,,,,,,,,,,,,,,,,,,,,,,,,,,,,,,,,,,,,,,,,,,,,,,,,,,,,,,,,,,,,,,,,,,,,,,
,0.04375,-0.394791698,1,0,0,instr_done_button,0,2,2,2,1,3,instructions,"If you are using a touchscreen only device, use the buttons on the screen. Do not use the mouse.





Press the space bar or touch the button below to continue.",0,touchscreen-example.gif,610f188b8ad0a93f6d508cad,27,2022-02-12_13h27.02.791,lexical_decision_task_DD_L5,2021.2.3,Linux armv7l,59.84798612,,,,,,,,,,,,,,,,,,,,,,,,,,,,,,,,,,,,,,,,,,,,,,,,,,,,,,,,,,,,,,,,,,,,,,,,,,,,,,,,,,
,0.083333349,-0.394791698,1,0,0,instr_done_button,0,3,3,3,1,4,instructions,"It is very important that you respond as quickly and accurately as possible, as each letter string will only be on the screen for two seconds. If you do not respond within this time, the message 'Too slow!' will be displayed and the experiment will progress to the next letter string. The first 20 trials will be practice trials and you will receive feedback on your answers. 

Press the space bar or touch the button below to start the practice trials.",0,,610f188b8ad0a93f6d508cad,27,2022-02-12_13h27.02.791,lexical_decision_task_DD_L5,2021.2.3,Linux armv7l,59.84798612,,,,,,,,,,,,,,,,,,,,,,,,,,,,,,,,,,,,,,,,,,,,,,,,,,,,,,,,,,,,,,,,,,,,,,,,,,,,,,,,,,
,,,,,,,,,,,,,,,,,610f188b8ad0a93f6d508cad,27,2022-02-12_13h27.02.791,lexical_decision_task_DD_L5,2021.2.3,Linux armv7l,59.84798612,,0,0.35,-0.326041698,1,0,0,1.439,button_right,1.439,1,0,0,0,5,1,1001,OBTAIN,m,,,,,,,,,,,,,,,,,,,,,,,,,,,,,,,,,,,,,,,,,,,,,,,,,,,,,,,,,,,,,,,
,,,,,,,,,,,,,,,,,610f188b8ad0a93f6d508cad,27,2022-02-12_13h27.02.791,lexical_decision_task_DD_L5,2021.2.3,Linux armv7l,59.84798612,,0,-0.29375,-0.338541698,1,0,0,1.1664,button_left,1.1664,1,0,1,1,11,1,1001,RASHET,z,,,,,,,,,,,,,,,,,,,,,,,,,,,,,,,,,,,,,,,,,,,,,,,,,,,,,,,,,,,,,,,
,,,,,,,,,,,,,,,,,610f188b8ad0a93f6d508cad,27,2022-02-12_13h27.02.791,lexical_decision_task_DD_L5,2021.2.3,Linux armv7l,59.84798612,,0,-0.247916651,-0.367708397,1,0,0,0.8445,button_left,0.8445,1,0,2,2,10,1,1001,INLADE,z,,,,,,,,,,,,,,,,,,,,,,,,,,,,,,,,,,,,,,,,,,,,,,,,,,,,,,,,,,,,,,,
,,,,,,,,,,,,,,,,,610f188b8ad0a93f6d508cad,27,2022-02-12_13h27.02.791,lexical_decision_task_DD_L5,2021.2.3,Linux armv7l,59.84798612,,0,-0.266666651,-0.332291698,1,0,0,0.786,button_left,0.786,1,0,3,3,8,1,1001,ASLERT,z,,,,,,,,,,,,,,,,,,,,,,,,,,,,,,,,,,,,,,,,,,,,,,,,,,,,,,,,,,,,,,,
,,,,,,,,,,,,,,,,,610f188b8ad0a93f6d508cad,27,2022-02-12_13h27.02.791,lexical_decision_task_DD_L5,2021.2.3,Linux armv7l,59.84798612,,0,0.383333397,-0.298958397,1,0,0,0.8498,button_right,0.8498,1,0,4,4,1,1,1001,ADJUST,m,,,,,,,,,,,,,,,,,,,,,,,,,,,,,,,,,,,,,,,,,,,,,,,,,,,,,,,,,,,,,,,
,,,,,,,,,,,,,,,,,610f188b8ad0a93f6d508cad,27,2022-02-12_13h27.02.791,lexical_decision_task_DD_L5,2021.2.3,Linux armv7l,59.84798612,,0,0.4125,-0.305208397,1,0,0,0.7392,button_right,0.7392,1,0,5,5,2,1,1001,ALMOND,m,,,,,,,,,,,,,,,,,,,,,,,,,,,,,,,,,,,,,,,,,,,,,,,,,,,,,,,,,,,,,,,
,,,,,,,,,,,,,,,,,610f188b8ad0a93f6d508cad,27,2022-02-12_13h27.02.791,lexical_decision_task_DD_L5,2021.2.3,Linux armv7l,59.84798612,,0,-0.247916651,-0.340625,1,0,0,0.7601,button_left,0.7601,1,0,6,6,14,1,1001,THRALE,z,,,,,,,,,,,,,,,,,,,,,,,,,,,,,,,,,,,,,,,,,,,,,,,,,,,,,,,,,,,,,,,
,,,,,,,,,,,,,,,,,610f188b8ad0a93f6d508cad,27,2022-02-12_13h27.02.791,lexical_decision_task_DD_L5,2021.2.3,Linux armv7l,59.84798612,,0,-0.320833325,-0.323958397,1,0,0,0.8447,button_left,0.8447,1,0,7,7,15,1,1001,WHAISE,z,,,,,,,,,,,,,,,,,,,,,,,,,,,,,,,,,,,,,,,,,,,,,,,,,,,,,,,,,,,,,,,
,,,,,,,,,,,,,,,,,610f188b8ad0a93f6d508cad,27,2022-02-12_13h27.02.791,lexical_decision_task_DD_L5,2021.2.3,Linux armv7l,59.84798612,,0,0.379166698,-0.340625,1,0,0,0.7289,button_right,0.7289,1,0,8,8,7,1,1001,VOLUME,m,,,,,,,,,,,,,,,,,,,,,,,,,,,,,,,,,,,,,,,,,,,,,,,,,,,,,,,,,,,,,,,
,,,,,,,,,,,,,,,,,610f188b8ad0a93f6d508cad,27,2022-02-12_13h27.02.791,lexical_decision_task_DD_L5,2021.2.3,Linux armv7l,59.84798612,,0,0.391666698,-0.342708397,1,0,0,0.7292,button_right,0.7292,1,0,9,9,4,1,1001,SQUEAK,m,,,,,,,,,,,,,,,,,,,,,,,,,,,,,,,,,,,,,,,,,,,,,,,,,,,,,,,,,,,,,,,
,,,,,,,,,,,,,,,,,610f188b8ad0a93f6d508cad,27,2022-02-12_13h27.02.791,lexical_decision_task_DD_L5,2021.2.3,Linux armv7l,59.84798612,,0,0.29375,-0.265625,1,0,0,0.7834,button_right,0.7834,1,0,10,10,6,1,1001,ZOMBIE,m,,,,,,,,,,,,,,,,,,,,,,,,,,,,,,,,,,,,,,,,,,,,,,,,,,,,,,,,,,,,,,,
,,,,,,,,,,,,,,,,,610f188b8ad0a93f6d508cad,27,2022-02-12_13h27.02.791,lexical_decision_task_DD_L5,2021.2.3,Linux armv7l,59.84798612,,0,-0.28125,-0.361458397,1,0,0,0.6539,button_left,0.6539,1,0,11,11,9,1,1001,FARINY,z,,,,,,,,,,,,,,,,,,,,,,,,,,,,,,,,,,,,,,,,,,,,,,,,,,,,,,,,,,,,,,,
,,,,,,,,,,,,,,,,,610f188b8ad0a93f6d508cad,27,2022-02-12_13h27.02.791,lexical_decision_task_DD_L5,2021.2.3,Linux armv7l,59.84798612,,0,-0.29375,-0.305208397,1,0,0,0.6603,button_left,0.6603,1,0,12,12,13,1,1001,ROUPET,z,,,,,,,,,,,,,,,,,,,,,,,,,,,,,,,,,,,,,,,,,,,,,,,,,,,,,,,,,,,,,,,
,,,,,,,,,,,,,,,,,610f188b8ad0a93f6d508cad,27,2022-02-12_13h27.02.791,lexical_decision_task_DD_L5,2021.2.3,Linux armv7l,59.84798612,,0,-0.297916651,-0.278125,1,0,0,0.7398,button_left,0.7398,1,0,13,13,12,1,1001,SPRINY,z,,,,,,,,,,,,,,,,,,,,,,,,,,,,,,,,,,,,,,,,,,,,,,,,,,,,,,,,,,,,,,,
,,,,,,,,,,,,,,,,,610f188b8ad0a93f6d508cad,27,2022-02-12_13h27.02.791,lexical_decision_task_DD_L5,2021.2.3,Linux armv7l,59.84798612,,0,0.39375,-0.346875,1,0,0,0.6769,button_right,0.6769,1,0,14,14,0,1,1001,UTOPIA,m,,,,,,,,,,,,,,,,,,,,,,,,,,,,,,,,,,,,,,,,,,,,,,,,,,,,,,,,,,,,,,,
,,,,,,,,,,,,,,,,,610f188b8ad0a93f6d508cad,27,2022-02-12_13h27.02.791,lexical_decision_task_DD_L5,2021.2.3,Linux armv7l,59.84798612,,0,0.358333397,-0.376041698,1,0,0,0.6302,button_right,0.6302,1,0,15,15,3,1,1001,MATRIX,m,,,,,,,,,,,,,,,,,,,,,,,,,,,,,,,,,,,,,,,,,,,,,,,,,,,,,,,,,,,,,,,
,0.054166698,-0.355208397,1,0,0,instr_done_button,,,,,,1,end_of_practice,"You have completed the practice trials. During the experimental trials, you will not receive feedback. 
Before you begin, please ensure that you are in a comfortable and quiet location and will not be disturbed for about 15 minutes, as we cannot use your data if you do not complete all the trials. 
 When you are ready to start the experimental trials, please press space or touch the button below.",,,610f188b8ad0a93f6d508cad,27,2022-02-12_13h27.02.791,lexical_decision_task_DD_L5,2021.2.3,Linux armv7l,59.84798612,,,,,,,,,,,,,,,,,,,,0,0,0,0,1,,,,,,,,,,,,,,,,,,,,,,,,,,,,,,,,,,,,,,,,,,,,,,,,,,,,,,,,,,
,,,,,,,,,,,,,,,,,610f188b8ad0a93f6d508cad,27,2022-02-12_13h27.02.791,lexical_decision_task_DD_L5,2021.2.3,Linux armv7l,59.84798612,,,,,,,,,,1.5862,0,,,,,,,,,,,,,,,0,-0.2875,-0.346875,1,0,0,1.5862,button_left_main,-0.2875,-0.346875,1,0,0,,0,0,0,45,1,MONKEY,HB,old,m,./images/MONKEYHB.png,,,,,,,,,,,,,,,,,,,,,,,,,,,,,,,,,
,,,,,,,,,,,,,,,,,610f188b8ad0a93f6d508cad,27,2022-02-12_13h27.02.791,lexical_decision_task_DD_L5,2021.2.3,Linux armv7l,59.84798612,,,,,,,,,,1.0688,1,,,,,,,,,,,,,,,0,-0.2875,-0.286458397,1,0,0,1.0688,button_left_main,-0.2875,-0.286458397,1,0,0,,0,1,1,138,1,PLICE,C,old,z,./images/PLICE.png,,,,,,,,,,,,,,,,,,,,,,,,,,,,,,,,,
,,,,,,,,,,,,,,,,,610f188b8ad0a93f6d508cad,27,2022-02-12_13h27.02.791,lexical_decision_task_DD_L5,2021.2.3,Linux armv7l,59.84798612,,,,,,,,,,1.0136,1,,,,,,,,,,,,,,,0,-0.258333325,-0.332291698,1,0,0,1.0136,button_left_main,-0.258333325,-0.332291698,1,0,0,,0,2,2,150,1,NOOLS,C,old,z,./images/NOOLS.png,,,,,,,,,,,,,,,,,,,,,,,,,,,,,,,,,
,,,,,,,,,,,,,,,,,610f188b8ad0a93f6d508cad,27,2022-02-12_13h27.02.791,lexical_decision_task_DD_L5,2021.2.3,Linux armv7l,59.84798612,,,,,,,,,,0.952,1,,,,,,,,,,,,,,,0,-0.291666651,-0.309375,1,0,0,0.952,button_left_main,-0.291666651,-0.309375,1,0,0,,0,3,3,155,1,CANGY,LB,old,z,./images/CANGYLB.png,,,,,,,,,,,,,,,,,,,,,,,,,,,,,,,,,
,,,,,,,,,,,,,,,,,610f188b8ad0a93f6d508cad,27,2022-02-12_13h27.02.791,lexical_decision_task_DD_L5,2021.2.3,Linux armv7l,59.84798612,,,,,,,,,,0.9581,1,,,,,,,,,,,,,,,0,0.345833397,-0.353125,1,0,0,0.9581,button_right_main,0.345833397,-0.353125,1,0,0,,0,4,4,72,1,FLASK,HB,old,m,./images/FLASKHB.png,,,,,,,,,,,,,,,,,,,,,,,,,,,,,,,,,
,,,,,,,,,,,,,,,,,610f188b8ad0a93f6d508cad,27,2022-02-12_13h27.02.791,lexical_decision_task_DD_L5,2021.2.3,Linux armv7l,59.84798612,,,,,,,,,,0.7657,1,,,,,,,,,,,,,,,0,0.370833397,-0.305208397,1,0,0,0.7657,button_right_main,0.370833397,-0.305208397,1,0,0,,0,5,5,50,1,PILOT,C,old,m,./images/PILOT.png,,,,,,,,,,,,,,,,,,,,,,,,,,,,,,,,,
,,,,,,,,,,,,,,,,,610f188b8ad0a93f6d508cad,27,2022-02-12_13h27.02.791,lexical_decision_task_DD_L5,2021.2.3,Linux armv7l,59.84798612,,,,,,,,,,0.7502,1,,,,,,,,,,,,,,,0,0.36875,-0.330208397,1,0,0,0.7502,button_right_main,0.36875,-0.330208397,1,0,0,,0,6,6,7,1,WAGON,LB,old,m,./images/WAGONLB.png,,,,,,,,,,,,,,,,,,,,,,,,,,,,,,,,,
,,,,,,,,,,,,,,,,,610f188b8ad0a93f6d508cad,27,2022-02-12_13h27.02.791,lexical_decision_task_DD_L5,2021.2.3,Linux armv7l,59.84798612,,,,,,,,,,0.8658,1,,,,,,,,,,,,,,,0,-0.289583325,-0.328125,1,0,0,0.8658,button_left_main,-0.289583325,-0.328125,1,0,0,,0,7,7,117,1,STEEG,C,old,z,./images/STEEG.png,,,,,,,,,,,,,,,,,,,,,,,,,,,,,,,,,
,,,,,,,,,,,,,,,,,610f188b8ad0a93f6d508cad,27,2022-02-12_13h27.02.791,lexical_decision_task_DD_L5,2021.2.3,Linux armv7l,59.84798612,,,,,,,,,,0.9827,1,,,,,,,,,,,,,,,0,-0.25625,-0.273958397,1,0,0,0.9827,button_left_main,-0.25625,-0.273958397,1,0,0,,0,8,8,136,1,WERVE,HB,old,z,./images/WERVEHB.png,,,,,,,,,,,,,,,,,,,,,,,,,,,,,,,,,
,,,,,,,,,,,,,,,,,610f188b8ad0a93f6d508cad,27,2022-02-12_13h27.02.791,lexical_decision_task_DD_L5,2021.2.3,Linux armv7l,59.84798612,,,,,,,,,,0.7644,1,,,,,,,,,,,,,,,0,0.33125,-0.334375,1,0,0,0.7644,button_right_main,0.33125,-0.334375,1,0,0,,0,9,9,4,1,BOXER,LB,old,m,./images/BOXERLB.png,,,,,,,,,,,,,,,,,,,,,,,,,,,,,,,,,
,,,,,,,,,,,,,,,,,610f188b8ad0a93f6d508cad,27,2022-02-12_13h27.02.791,lexical_decision_task_DD_L5,2021.2.3,Linux armv7l,59.84798612,,,,,,,,,,0.7067,1,,,,,,,,,,,,,,,0,0.358333397,-0.371875,1,0,0,0.7067,button_right_main,0.358333397,-0.371875,1,0,0,,0,10,10,73,1,GLOVE,LB,old,m,./images/GLOVELB.png,,,,,,,,,,,,,,,,,,,,,,,,,,,,,,,,,
,,,,,,,,,,,,,,,,,610f188b8ad0a93f6d508cad,27,2022-02-12_13h27.02.791,lexical_decision_task_DD_L5,2021.2.3,Linux armv7l,59.84798612,,,,,,,,,,0.9166,1,,,,,,,,,,,,,,,0,-0.277083325,-0.238541698,1,0,0,0.9166,button_left_main,-0.277083325,-0.238541698,1,0,0,,0,11,11,121,1,CEERS,HB,old,z,./images/CEERSHB.png,,,,,,,,,,,,,,,,,,,,,,,,,,,,,,,,,
,,,,,,,,,,,,,,,,,610f188b8ad0a93f6d508cad,27,2022-02-12_13h27.02.791,lexical_decision_task_DD_L5,2021.2.3,Linux armv7l,59.84798612,,,,,,,,,,0.889,1,,,,,,,,,,,,,,,0,-0.314583325,-0.290625,1,0,0,0.889,button_left_main,-0.314583325,-0.290625,1,0,0,,0,12,12,90,1,NEAST,C,old,z,./images/NEAST.png,,,,,,,,,,,,,,,,,,,,,,,,,,,,,,,,,
,,,,,,,,,,,,,,,,,610f188b8ad0a93f6d508cad,27,2022-02-12_13h27.02.791,lexical_decision_task_DD_L5,2021.2.3,Linux armv7l,59.84798612,,,,,,,,,,0.7351,1,,,,,,,,,,,,,,,0,0.370833397,-0.307291698,1,0,0,0.7351,button_right_main,0.370833397,-0.307291698,1,0,0,,0,13,13,39,1,CANDY,HB,old,m,./images/CANDYHB.png,,,,,,,,,,,,,,,,,,,,,,,,,,,,,,,,,
,,,,,,,,,,,,,,,,,610f188b8ad0a93f6d508cad,27,2022-02-12_13h27.02.791,lexical_decision_task_DD_L5,2021.2.3,Linux armv7l,59.84798612,,,,,,,,,,0.8598,1,,,,,,,,,,,,,,,0,0.360416698,-0.340625,1,0,0,0.8598,button_right_main,0.360416698,-0.340625,1,0,0,,0,14,14,59,1,BRUSH,C,old,m,./images/BRUSH.png,,,,,,,,,,,,,,,,,,,,,,,,,,,,,,,,,
,,,,,,,,,,,,,,,,,610f188b8ad0a93f6d508cad,27,2022-02-12_13h27.02.791,lexical_decision_task_DD_L5,2021.2.3,Linux armv7l,59.84798612,,,,,,,,,,0.7822,1,,,,,,,,,,,,,,,0,0.379166698,-0.328125,1,0,0,0.7822,button_right_main,0.379166698,-0.328125,1,0,0,,0,15,15,8,1,CLIFF,C,old,m,./images/CLIFF.png,,,,,,,,,,,,,,,,,,,,,,,,,,,,,,,,,
,,,,,,,,,,,,,,,,,610f188b8ad0a93f6d508cad,27,2022-02-12_13h27.02.791,lexical_decision_task_DD_L5,2021.2.3,Linux armv7l,59.84798612,,,,,,,,,,0.716,1,,,,,,,,,,,,,,,0,0.3875,-0.384375,1,0,0,0.716,button_right_main,0.3875,-0.384375,1,0,0,,0,16,16,62,1,MAMMAL,C,old,m,./images/MAMMAL.png,,,,,,,,,,,,,,,,,,,,,,,,,,,,,,,,,
,,,,,,,,,,,,,,,,,610f188b8ad0a93f6d508cad,27,2022-02-12_13h27.02.791,lexical_decision_task_DD_L5,2021.2.3,Linux armv7l,59.84798612,,,,,,,,,,0.7348,1,,,,,,,,,,,,,,,0,0.383333397,-0.392708397,1,0,0,0.7348,button_right_main,0.383333397,-0.392708397,1,0,0,,0,17,17,10,1,GARDEN,LB,old,m,./images/GARDENLB.png,,,,,,,,,,,,,,,,,,,,,,,,,,,,,,,,,
,,,,,,,,,,,,,,,,,610f188b8ad0a93f6d508cad,27,2022-02-12_13h27.02.791,lexical_decision_task_DD_L5,2021.2.3,Linux armv7l,59.84798612,,,,,,,,,,0.7155,1,,,,,,,,,,,,,,,0,0.370833397,-0.317708397,1,0,0,0.7155,button_right_main,0.370833397,-0.317708397,1,0,0,,0,18,18,32,1,HOCKEY,C,old,m,./images/HOCKEY.png,,,,,,,,,,,,,,,,,,,,,,,,,,,,,,,,,
,,,,,,,,,,,,,,,,,610f188b8ad0a93f6d508cad,27,2022-02-12_13h27.02.791,lexical_decision_task_DD_L5,2021.2.3,Linux armv7l,59.84798612,,,,,,,,,,0.9383,1,,,,,,,,,,,,,,,0,-0.29375,-0.330208397,1,0,0,0.9383,button_left_main,-0.29375,-0.330208397,1,0,0,,0,19,19,97,1,CHIDS,HB,old,z,./images/CHIDSHB.png,,,,,,,,,,,,,,,,,,,,,,,,,,,,,,,,,
,,,,,,,,,,,,,,,,,610f188b8ad0a93f6d508cad,27,2022-02-12_13h27.02.791,lexical_decision_task_DD_L5,2021.2.3,Linux armv7l,59.84798612,,,,,,,,,,0.7001,1,,,,,,,,,,,,,,,0,-0.283333325,-0.305208397,1,0,0,0.7001,button_left_main,-0.283333325,-0.305208397,1,0,0,,0,20,20,130,1,CRILL,HB,old,z,./images/CRILLHB.png,,,,,,,,,,,,,,,,,,,,,,,,,,,,,,,,,
,,,,,,,,,,,,,,,,,610f188b8ad0a93f6d508cad,27,2022-02-12_13h27.02.791,lexical_decision_task_DD_L5,2021.2.3,Linux armv7l,59.84798612,,,,,,,,,,0.876,1,,,,,,,,,,,,,,,0,-0.28125,-0.332291698,1,0,0,0.876,button_left_main,-0.28125,-0.332291698,1,0,0,,0,21,21,106,1,CLUMS,HB,old,z,./images/CLUMSHB.png,,,,,,,,,,,,,,,,,,,,,,,,,,,,,,,,,
,,,,,,,,,,,,,,,,,610f188b8ad0a93f6d508cad,27,2022-02-12_13h27.02.791,lexical_decision_task_DD_L5,2021.2.3,Linux armv7l,59.84798612,,,,,,,,,,0.9646,1,,,,,,,,,,,,,,,0,-0.314583325,-0.307291698,1,0,0,0.9646,button_left_main,-0.314583325,-0.307291698,1,0,0,,0,22,22,137,1,JOOST,LB,old,z,./images/JOOSTLB.png,,,,,,,,,,,,,,,,,,,,,,,,,,,,,,,,,
,,,,,,,,,,,,,,,,,610f188b8ad0a93f6d508cad,27,2022-02-12_13h27.02.791,lexical_decision_task_DD_L5,2021.2.3,Linux armv7l,59.84798612,,,,,,,,,,0.6606,1,,,,,,,,,,,,,,,0,-0.310416663,-0.361458397,1,0,0,0.6606,button_left_main,-0.310416663,-0.361458397,1,0,0,,0,23,23,101,1,GLEET,LB,old,z,./images/GLEETLB.png,,,,,,,,,,,,,,,,,,,,,,,,,,,,,,,,,
,,,,,,,,,,,,,,,,,610f188b8ad0a93f6d508cad,27,2022-02-12_13h27.02.791,lexical_decision_task_DD_L5,2021.2.3,Linux armv7l,59.84798612,,,,,,,,,,0.7601,1,,,,,,,,,,,,,,,0,-0.277083325,-0.336458397,1,0,0,0.7601,button_left_main,-0.277083325,-0.336458397,1,0,0,,0,24,24,131,1,NACES,LB,old,z,./images/NACESLB.png,,,,,,,,,,,,,,,,,,,,,,,,,,,,,,,,,
,,,,,,,,,,,,,,,,,610f188b8ad0a93f6d508cad,27,2022-02-12_13h27.02.791,lexical_decision_task_DD_L5,2021.2.3,Linux armv7l,59.84798612,,,,,,,,,,0.892,1,,,,,,,,,,,,,,,0,-0.297916651,-0.348958397,1,0,0,0.892,button_left_main,-0.297916651,-0.348958397,1,0,0,,0,25,25,163,1,GAMBA,HB,old,z,./images/GAMBAHB.png,,,,,,,,,,,,,,,,,,,,,,,,,,,,,,,,,
,,,,,,,,,,,,,,,,,610f188b8ad0a93f6d508cad,27,2022-02-12_13h27.02.791,lexical_decision_task_DD_L5,2021.2.3,Linux armv7l,59.84798612,,,,,,,,,,0.7641,1,,,,,,,,,,,,,,,0,0.347916698,-0.317708397,1,0,0,0.7641,button_right_main,0.347916698,-0.317708397,1,0,0,,0,26,26,47,1,LAGOON,C,old,m,./images/LAGOON.png,,,,,,,,,,,,,,,,,,,,,,,,,,,,,,,,,
,,,,,,,,,,,,,,,,,610f188b8ad0a93f6d508cad,27,2022-02-12_13h27.02.791,lexical_decision_task_DD_L5,2021.2.3,Linux armv7l,59.84798612,,,,,,,,,,0.8387,1,,,,,,,,,,,,,,,0,-0.3125,-0.330208397,1,0,0,0.8387,button_left_main,-0.3125,-0.330208397,1,0,0,,0,27,27,146,1,MOOST,LB,old,z,./images/MOOSTLB.png,,,,,,,,,,,,,,,,,,,,,,,,,,,,,,,,,
,,,,,,,,,,,,,,,,,610f188b8ad0a93f6d508cad,27,2022-02-12_13h27.02.791,lexical_decision_task_DD_L5,2021.2.3,Linux armv7l,59.84798612,,,,,,,,,,1.9694,1,,,,,,,,,,,,,,,0,0.3,-0.367708397,1,0,0,1.9694,button_right_main,0.3,-0.367708397,1,0,0,,0,28,28,82,1,PEBBLE,LB,old,m,./images/PEBBLELB.png,,,,,,,,,,,,,,,,,,,,,,,,,,,,,,,,,
,,,,,,,,,,,,,,,,,610f188b8ad0a93f6d508cad,27,2022-02-12_13h27.02.791,lexical_decision_task_DD_L5,2021.2.3,Linux armv7l,59.84798612,,,,,,,,,,0.8747,1,,,,,,,,,,,,,,,0,0.308333397,-0.373958397,1,0,0,0.8747,button_right_main,0.308333397,-0.373958397,1,0,0,,0,29,29,57,1,FERRY,HB,old,m,./images/FERRYHB.png,,,,,,,,,,,,,,,,,,,,,,,,,,,,,,,,,
,,,,,,,,,,,,,,,,,610f188b8ad0a93f6d508cad,27,2022-02-12_13h27.02.791,lexical_decision_task_DD_L5,2021.2.3,Linux armv7l,59.84798612,,,,,,,,,,0.7952,1,,,,,,,,,,,,,,,0,0.297916698,-0.321875,1,0,0,0.7952,button_right_main,0.297916698,-0.321875,1,0,0,,0,30,30,22,1,CLOWN,LB,old,m,./images/CLOWNLB.png,,,,,,,,,,,,,,,,,,,,,,,,,,,,,,,,,
,,,,,,,,,,,,,,,,,610f188b8ad0a93f6d508cad,27,2022-02-12_13h27.02.791,lexical_decision_task_DD_L5,2021.2.3,Linux armv7l,59.84798612,,,,,,,,,,0.6735,1,,,,,,,,,,,,,,,0,0.345833397,-0.348958397,1,0,0,0.6735,button_right_main,0.345833397,-0.348958397,1,0,0,,0,31,31,61,1,ARTIST,LB,old,m,./images/ARTISTLB.png,,,,,,,,,,,,,,,,,,,,,,,,,,,,,,,,,
,,,,,,,,,,,,,,,,,610f188b8ad0a93f6d508cad,27,2022-02-12_13h27.02.791,lexical_decision_task_DD_L5,2021.2.3,Linux armv7l,59.84798612,,,,,,,,,,0.9037,1,,,,,,,,,,,,,,,0,-0.289583325,-0.323958397,1,0,0,0.9037,button_left_main,-0.289583325,-0.323958397,1,0,0,,0,32,32,151,1,TINKY,HB,old,z,./images/TINKYHB.png,,,,,,,,,,,,,,,,,,,,,,,,,,,,,,,,,
,,,,,,,,,,,,,,,,,610f188b8ad0a93f6d508cad,27,2022-02-12_13h27.02.791,lexical_decision_task_DD_L5,2021.2.3,Linux armv7l,59.84798612,,,,,,,,,,0.7092,0,,,,,,,,,,,,,,,0,0.31875,-0.344791698,1,0,0,0.7092,button_right_main,0.31875,-0.344791698,1,0,0,,0,33,33,142,1,PLASK,HB,old,z,./images/PLASKHB.png,,,,,,,,,,,,,,,,,,,,,,,,,,,,,,,,,
,,,,,,,,,,,,,,,,,610f188b8ad0a93f6d508cad,27,2022-02-12_13h27.02.791,lexical_decision_task_DD_L5,2021.2.3,Linux armv7l,59.84798612,,,,,,,,,,0.8094,1,,,,,,,,,,,,,,,0,-0.30625,-0.326041698,1,0,0,0.8094,button_left_main,-0.30625,-0.326041698,1,0,0,,0,34,34,102,1,DULLE,C,old,z,./images/DULLE.png,,,,,,,,,,,,,,,,,,,,,,,,,,,,,,,,,
,,,,,,,,,,,,,,,,,610f188b8ad0a93f6d508cad,27,2022-02-12_13h27.02.791,lexical_decision_task_DD_L5,2021.2.3,Linux armv7l,59.84798612,,,,,,,,,,0.8481,1,,,,,,,,,,,,,,,0,-0.3375,-0.292708397,1,0,0,0.8481,button_left_main,-0.3375,-0.292708397,1,0,0,,0,35,35,167,1,ZONET,LB,old,z,./images/ZONETLB.png,,,,,,,,,,,,,,,,,,,,,,,,,,,,,,,,,
,,,,,,,,,,,,,,,,,610f188b8ad0a93f6d508cad,27,2022-02-12_13h27.02.791,lexical_decision_task_DD_L5,2021.2.3,Linux armv7l,59.84798612,,,,,,,,,,0.981,1,,,,,,,,,,,,,,,0,-0.30625,-0.373958397,1,0,0,0.981,button_left_main,-0.30625,-0.373958397,1,0,0,,0,36,36,118,1,BAVEL,HB,old,z,./images/BAVELHB.png,,,,,,,,,,,,,,,,,,,,,,,,,,,,,,,,,
,,,,,,,,,,,,,,,,,610f188b8ad0a93f6d508cad,27,2022-02-12_13h27.02.791,lexical_decision_task_DD_L5,2021.2.3,Linux armv7l,59.84798612,,,,,,,,,,0.8819,1,,,,,,,,,,,,,,,0,-0.2875,-0.346875,1,0,0,0.8819,button_left_main,-0.2875,-0.346875,1,0,0,,0,37,37,110,1,CRUNK,LB,old,z,./images/CRUNKLB.png,,,,,,,,,,,,,,,,,,,,,,,,,,,,,,,,,
,,,,,,,,,,,,,,,,,610f188b8ad0a93f6d508cad,27,2022-02-12_13h27.02.791,lexical_decision_task_DD_L5,2021.2.3,Linux armv7l,59.84798612,,,,,,,,,,0.8327,1,,,,,,,,,,,,,,,0,-0.297916651,-0.353125,1,0,0,0.8327,button_left_main,-0.297916651,-0.353125,1,0,0,,0,38,38,143,1,MONGS,LB,old,z,./images/MONGSLB.png,,,,,,,,,,,,,,,,,,,,,,,,,,,,,,,,,
,,,,,,,,,,,,,,,,,610f188b8ad0a93f6d508cad,27,2022-02-12_13h27.02.791,lexical_decision_task_DD_L5,2021.2.3,Linux armv7l,59.84798612,,,,,,,,,,0.7404,1,,,,,,,,,,,,,,,0,-0.29375,-0.338541698,1,0,0,0.7404,button_left_main,-0.29375,-0.338541698,1,0,0,,0,39,39,156,1,HIXES,C,old,z,./images/HIXES.png,,,,,,,,,,,,,,,,,,,,,,,,,,,,,,,,,
,,,,,,,,,,,,,,,,,610f188b8ad0a93f6d508cad,27,2022-02-12_13h27.02.791,lexical_decision_task_DD_L5,2021.2.3,Linux armv7l,59.84798612,,,,,,,,,,0.8175,1,,,,,,,,,,,,,,,0,0.364583397,-0.303125,1,0,0,0.8175,button_right_main,0.364583397,-0.303125,1,0,0,,0,40,40,5,1,BAMBOO,C,old,m,./images/BAMBOO.png,,,,,,,,,,,,,,,,,,,,,,,,,,,,,,,,,
,,,,,,,,,,,,,,,,,610f188b8ad0a93f6d508cad,27,2022-02-12_13h27.02.791,lexical_decision_task_DD_L5,2021.2.3,Linux armv7l,59.84798612,,,,,,,,,,0.8769,1,,,,,,,,,,,,,,,0,-0.3,-0.301041698,1,0,0,0.8769,button_left_main,0.05625,-0.444791698,1,0,0,,0,41,41,129,1,PRANS,C,old,z,./images/PRANS.png,break_done_button,,,,,,,,,,,,,,,,,,,,,,,,,,,,,,,,
,,,,,,,,,,,,,,,,,610f188b8ad0a93f6d508cad,27,2022-02-12_13h27.02.791,lexical_decision_task_DD_L5,2021.2.3,Linux armv7l,59.84798612,,,,,,,,,,0.7441,1,,,,,,,,,,,,,,,0,0.354166698,-0.307291698,1,0,0,0.7441,button_right_main,0.354166698,-0.307291698,1,0,0,,0,42,42,65,1,SPINE,C,old,m,./images/SPINE.png,,,,,,,,,,,,,,,,,,,,,,,,,,,,,,,,,
,,,,,,,,,,,,,,,,,610f188b8ad0a93f6d508cad,27,2022-02-12_13h27.02.791,lexical_decision_task_DD_L5,2021.2.3,Linux armv7l,59.84798612,,,,,,,,,,0.7754,1,,,,,,,,,,,,,,,0,0.3125,-0.284375,1,0,0,0.7754,button_right_main,0.3125,-0.284375,1,0,0,,0,43,43,44,1,BASKET,C,old,m,./images/BASKET.png,,,,,,,,,,,,,,,,,,,,,,,,,,,,,,,,,
,,,,,,,,,,,,,,,,,610f188b8ad0a93f6d508cad,27,2022-02-12_13h27.02.791,lexical_decision_task_DD_L5,2021.2.3,Linux armv7l,59.84798612,,,,,,,,,,0.8693,1,,,,,,,,,,,,,,,0,0.379166698,-0.280208397,1,0,0,0.8693,button_right_main,0.379166698,-0.280208397,1,0,0,,0,44,44,6,1,STAIN,HB,old,m,./images/STAINHB.png,,,,,,,,,,,,,,,,,,,,,,,,,,,,,,,,,
,,,,,,,,,,,,,,,,,610f188b8ad0a93f6d508cad,27,2022-02-12_13h27.02.791,lexical_decision_task_DD_L5,2021.2.3,Linux armv7l,59.84798612,,,,,,,,,,0.7853,0,,,,,,,,,,,,,,,0,0.285416698,-0.328125,1,0,0,0.7853,button_right_main,0.285416698,-0.328125,1,0,0,,0,45,45,166,1,SHORY,HB,old,z,./images/SHORYHB.png,,,,,,,,,,,,,,,,,,,,,,,,,,,,,,,,,
,,,,,,,,,,,,,,,,,610f188b8ad0a93f6d508cad,27,2022-02-12_13h27.02.791,lexical_decision_task_DD_L5,2021.2.3,Linux armv7l,59.84798612,,,,,,,,,,0.9253,1,,,,,,,,,,,,,,,0,-0.302083325,-0.351041698,1,0,0,0.9253,button_left_main,-0.302083325,-0.351041698,1,0,0,,0,46,46,92,1,PAIMS,LB,old,z,./images/PAIMSLB.png,,,,,,,,,,,,,,,,,,,,,,,,,,,,,,,,,
,,,,,,,,,,,,,,,,,610f188b8ad0a93f6d508cad,27,2022-02-12_13h27.02.791,lexical_decision_task_DD_L5,2021.2.3,Linux armv7l,59.84798612,,,,,,,,,,0.7986,1,,,,,,,,,,,,,,,0,0.34375,-0.332291698,1,0,0,0.7986,button_right_main,0.34375,-0.332291698,1,0,0,,0,47,47,40,1,SNAKE,LB,old,m,./images/SNAKELB.png,,,,,,,,,,,,,,,,,,,,,,,,,,,,,,,,,
,,,,,,,,,,,,,,,,,610f188b8ad0a93f6d508cad,27,2022-02-12_13h27.02.791,lexical_decision_task_DD_L5,2021.2.3,Linux armv7l,59.84798612,,,,,,,,,,0.8018,1,,,,,,,,,,,,,,,0,-0.283333325,-0.355208397,1,0,0,0.8018,button_left_main,-0.283333325,-0.355208397,1,0,0,,0,48,48,112,1,MYING,HB,old,z,./images/MYINGHB.png,,,,,,,,,,,,,,,,,,,,,,,,,,,,,,,,,
,,,,,,,,,,,,,,,,,610f188b8ad0a93f6d508cad,27,2022-02-12_13h27.02.791,lexical_decision_task_DD_L5,2021.2.3,Linux armv7l,59.84798612,,,,,,,,,,0.8833,1,,,,,,,,,,,,,,,0,-0.358333325,-0.313541698,1,0,0,0.8833,button_left_main,-0.358333325,-0.313541698,1,0,0,,0,49,49,100,1,DRIBS,HB,old,z,./images/DRIBSHB.png,,,,,,,,,,,,,,,,,,,,,,,,,,,,,,,,,
,,,,,,,,,,,,,,,,,610f188b8ad0a93f6d508cad,27,2022-02-12_13h27.02.791,lexical_decision_task_DD_L5,2021.2.3,Linux armv7l,59.84798612,,,,,,,,,,0.8504,1,,,,,,,,,,,,,,,0,0.2625,-0.328125,1,0,0,0.8504,button_right_main,0.2625,-0.328125,1,0,0,,0,50,50,63,1,BAKER,HB,old,m,./images/BAKERHB.png,,,,,,,,,,,,,,,,,,,,,,,,,,,,,,,,,
,,,,,,,,,,,,,,,,,610f188b8ad0a93f6d508cad,27,2022-02-12_13h27.02.791,lexical_decision_task_DD_L5,2021.2.3,Linux armv7l,59.84798612,,,,,,,,,,0.7809,1,,,,,,,,,,,,,,,0,-0.308333325,-0.355208397,1,0,0,0.7809,button_left_main,-0.308333325,-0.355208397,1,0,0,,0,51,51,149,1,VEASE,LB,old,z,./images/VEASELB.png,,,,,,,,,,,,,,,,,,,,,,,,,,,,,,,,,
,,,,,,,,,,,,,,,,,610f188b8ad0a93f6d508cad,27,2022-02-12_13h27.02.791,lexical_decision_task_DD_L5,2021.2.3,Linux armv7l,59.84798612,,,,,,,,,,0.7593,1,,,,,,,,,,,,,,,0,0.439583397,-0.323958397,1,0,0,0.7593,button_right_main,0.439583397,-0.323958397,1,0,0,,0,52,52,68,1,VALLEY,C,old,m,./images/VALLEY.png,,,,,,,,,,,,,,,,,,,,,,,,,,,,,,,,,
,,,,,,,,,,,,,,,,,610f188b8ad0a93f6d508cad,27,2022-02-12_13h27.02.791,lexical_decision_task_DD_L5,2021.2.3,Linux armv7l,59.84798612,,,,,,,,,,0.7574,1,,,,,,,,,,,,,,,0,0.377083397,-0.326041698,1,0,0,0.7574,button_right_main,0.377083397,-0.326041698,1,0,0,,0,53,53,26,1,CLOUD,C,old,m,./images/CLOUD.png,,,,,,,,,,,,,,,,,,,,,,,,,,,,,,,,,
,,,,,,,,,,,,,,,,,610f188b8ad0a93f6d508cad,27,2022-02-12_13h27.02.791,lexical_decision_task_DD_L5,2021.2.3,Linux armv7l,59.84798612,,,,,,,,,,0.9471,1,,,,,,,,,,,,,,,0,-0.31875,-0.280208397,1,0,0,0.9471,button_left_main,-0.31875,-0.280208397,1,0,0,,0,54,54,124,1,TUNCH,HB,old,z,./images/TUNCHHB.png,,,,,,,,,,,,,,,,,,,,,,,,,,,,,,,,,
,,,,,,,,,,,,,,,,,610f188b8ad0a93f6d508cad,27,2022-02-12_13h27.02.791,lexical_decision_task_DD_L5,2021.2.3,Linux armv7l,59.84798612,,,,,,,,,,0.782,1,,,,,,,,,,,,,,,0,0.347916698,-0.365625,1,0,0,0.782,button_right_main,0.347916698,-0.365625,1,0,0,,0,55,55,75,1,HAMMER,HB,old,m,./images/HAMMERHB.png,,,,,,,,,,,,,,,,,,,,,,,,,,,,,,,,,
,,,,,,,,,,,,,,,,,610f188b8ad0a93f6d508cad,27,2022-02-12_13h27.02.791,lexical_decision_task_DD_L5,2021.2.3,Linux armv7l,59.84798612,,,,,,,,,,0.7127,1,,,,,,,,,,,,,,,0,-0.3625,-0.361458397,1,0,0,0.7127,button_left_main,-0.3625,-0.361458397,1,0,0,,0,56,56,147,1,ZOLES,C,old,z,./images/ZOLES.png,,,,,,,,,,,,,,,,,,,,,,,,,,,,,,,,,
,,,,,,,,,,,,,,,,,610f188b8ad0a93f6d508cad,27,2022-02-12_13h27.02.791,lexical_decision_task_DD_L5,2021.2.3,Linux armv7l,59.84798612,,,,,,,,,,0.8162,1,,,,,,,,,,,,,,,0,0.341666698,-0.296875,1,0,0,0.8162,button_right_main,0.341666698,-0.296875,1,0,0,,0,57,57,53,1,POSTER,C,old,m,./images/POSTER.png,,,,,,,,,,,,,,,,,,,,,,,,,,,,,,,,,
,,,,,,,,,,,,,,,,,610f188b8ad0a93f6d508cad,27,2022-02-12_13h27.02.791,lexical_decision_task_DD_L5,2021.2.3,Linux armv7l,59.84798612,,,,,,,,,,0.8162,1,,,,,,,,,,,,,,,0,-0.295833325,-0.286458397,1,0,0,0.8162,button_left_main,-0.295833325,-0.286458397,1,0,0,,0,58,58,114,1,RIKES,C,old,z,./images/RIKES.png,,,,,,,,,,,,,,,,,,,,,,,,,,,,,,,,,
,,,,,,,,,,,,,,,,,610f188b8ad0a93f6d508cad,27,2022-02-12_13h27.02.791,lexical_decision_task_DD_L5,2021.2.3,Linux armv7l,59.84798612,,,,,,,,,,0.7648,1,,,,,,,,,,,,,,,0,0.345833397,-0.348958397,1,0,0,0.7648,button_right_main,0.345833397,-0.348958397,1,0,0,,0,59,59,29,1,PISTOL,C,old,m,./images/PISTOL.png,,,,,,,,,,,,,,,,,,,,,,,,,,,,,,,,,
,,,,,,,,,,,,,,,,,610f188b8ad0a93f6d508cad,27,2022-02-12_13h27.02.791,lexical_decision_task_DD_L5,2021.2.3,Linux armv7l,59.84798612,,,,,,,,,,1.0963,1,,,,,,,,,,,,,,,0,-0.270833325,-0.288541698,1,0,0,1.0963,button_left_main,-0.270833325,-0.288541698,1,0,0,,0,60,60,159,1,CUDDY,C,old,z,./images/CUDDY.png,,,,,,,,,,,,,,,,,,,,,,,,,,,,,,,,,
,,,,,,,,,,,,,,,,,610f188b8ad0a93f6d508cad,27,2022-02-12_13h27.02.791,lexical_decision_task_DD_L5,2021.2.3,Linux armv7l,59.84798612,,,,,,,,,,0.7146,1,,,,,,,,,,,,,,,0,0.441666698,-0.311458397,1,0,0,0.7146,button_right_main,0.441666698,-0.311458397,1,0,0,,0,61,61,25,1,CHALK,LB,old,m,./images/CHALKLB.png,,,,,,,,,,,,,,,,,,,,,,,,,,,,,,,,,
,,,,,,,,,,,,,,,,,610f188b8ad0a93f6d508cad,27,2022-02-12_13h27.02.791,lexical_decision_task_DD_L5,2021.2.3,Linux armv7l,59.84798612,,,,,,,,,,0.8165,1,,,,,,,,,,,,,,,0,0.3375,-0.278125,1,0,0,0.8165,button_right_main,0.3375,-0.278125,1,0,0,,0,62,62,9,1,DIVER,HB,old,m,./images/DIVERHB.png,,,,,,,,,,,,,,,,,,,,,,,,,,,,,,,,,
,,,,,,,,,,,,,,,,,610f188b8ad0a93f6d508cad,27,2022-02-12_13h27.02.791,lexical_decision_task_DD_L5,2021.2.3,Linux armv7l,59.84798612,,,,,,,,,,0.7206,1,,,,,,,,,,,,,,,0,0.439583397,-0.294791698,1,0,0,0.7206,button_right_main,0.439583397,-0.294791698,1,0,0,,0,63,63,34,1,RAZOR,LB,old,m,./images/RAZORLB.png,,,,,,,,,,,,,,,,,,,,,,,,,,,,,,,,,
,,,,,,,,,,,,,,,,,610f188b8ad0a93f6d508cad,27,2022-02-12_13h27.02.791,lexical_decision_task_DD_L5,2021.2.3,Linux armv7l,59.84798612,,,,,,,,,,0.8674,1,,,,,,,,,,,,,,,0,-0.366666663,-0.348958397,1,0,0,0.8674,button_left_main,-0.366666663,-0.348958397,1,0,0,,0,64,64,88,1,GLUSH,HB,old,z,./images/GLUSHHB.png,,,,,,,,,,,,,,,,,,,,,,,,,,,,,,,,,
,,,,,,,,,,,,,,,,,610f188b8ad0a93f6d508cad,27,2022-02-12_13h27.02.791,lexical_decision_task_DD_L5,2021.2.3,Linux armv7l,59.84798612,,,,,,,,,,0.8674,1,,,,,,,,,,,,,,,0,0.379166698,-0.313541698,1,0,0,0.8674,button_right_main,0.379166698,-0.313541698,1,0,0,,0,65,65,35,1,LLAMA,C,old,m,./images/LLAMA.png,,,,,,,,,,,,,,,,,,,,,,,,,,,,,,,,,
,,,,,,,,,,,,,,,,,610f188b8ad0a93f6d508cad,27,2022-02-12_13h27.02.791,lexical_decision_task_DD_L5,2021.2.3,Linux armv7l,59.84798612,,,,,,,,,,0.8168,1,,,,,,,,,,,,,,,0,0.339583397,-0.317708397,1,0,0,0.8168,button_right_main,0.339583397,-0.317708397,1,0,0,,0,66,66,42,1,CHAIN,HB,old,m,./images/CHAINHB.png,,,,,,,,,,,,,,,,,,,,,,,,,,,,,,,,,
,,,,,,,,,,,,,,,,,610f188b8ad0a93f6d508cad,27,2022-02-12_13h27.02.791,lexical_decision_task_DD_L5,2021.2.3,Linux armv7l,59.84798612,,,,,,,,,,0.6671,1,,,,,,,,,,,,,,,0,-0.297916651,-0.326041698,1,0,0,0.6671,button_left_main,-0.297916651,-0.326041698,1,0,0,,0,67,67,154,1,THINT,HB,old,z,./images/THINTHB.png,,,,,,,,,,,,,,,,,,,,,,,,,,,,,,,,,
,,,,,,,,,,,,,,,,,610f188b8ad0a93f6d508cad,27,2022-02-12_13h27.02.791,lexical_decision_task_DD_L5,2021.2.3,Linux armv7l,59.84798612,,,,,,,,,,0.9434,1,,,,,,,,,,,,,,,0,-0.289583325,-0.344791698,1,0,0,0.9434,button_left_main,-0.289583325,-0.344791698,1,0,0,,0,68,68,120,1,RINED,C,old,z,./images/RINED.png,,,,,,,,,,,,,,,,,,,,,,,,,,,,,,,,,
,,,,,,,,,,,,,,,,,610f188b8ad0a93f6d508cad,27,2022-02-12_13h27.02.791,lexical_decision_task_DD_L5,2021.2.3,Linux armv7l,59.84798612,,,,,,,,,,0.8046,1,,,,,,,,,,,,,,,0,-0.297916651,-0.328125,1,0,0,0.8046,button_left_main,-0.297916651,-0.328125,1,0,0,,0,69,69,111,1,HOSSE,C,old,z,./images/HOSSE.png,,,,,,,,,,,,,,,,,,,,,,,,,,,,,,,,,
,,,,,,,,,,,,,,,,,610f188b8ad0a93f6d508cad,27,2022-02-12_13h27.02.791,lexical_decision_task_DD_L5,2021.2.3,Linux armv7l,59.84798612,,,,,,,,,,0.7789,1,,,,,,,,,,,,,,,0,-0.285416651,-0.371875,1,0,0,0.7789,button_left_main,-0.285416651,-0.371875,1,0,0,,0,70,70,86,1,AIFED,LB,old,z,./images/AIFEDLB.png,,,,,,,,,,,,,,,,,,,,,,,,,,,,,,,,,
,,,,,,,,,,,,,,,,,610f188b8ad0a93f6d508cad,27,2022-02-12_13h27.02.791,lexical_decision_task_DD_L5,2021.2.3,Linux armv7l,59.84798612,,,,,,,,,,0.6863,1,,,,,,,,,,,,,,,0,0.389583397,-0.317708397,1,0,0,0.6863,button_right_main,0.389583397,-0.317708397,1,0,0,,0,71,71,23,1,CLOTH,C,old,m,./images/CLOTH.png,,,,,,,,,,,,,,,,,,,,,,,,,,,,,,,,,
,,,,,,,,,,,,,,,,,610f188b8ad0a93f6d508cad,27,2022-02-12_13h27.02.791,lexical_decision_task_DD_L5,2021.2.3,Linux armv7l,59.84798612,,,,,,,,,,0.642,1,,,,,,,,,,,,,,,0,-0.3,-0.284375,1,0,0,0.642,button_left_main,-0.3,-0.284375,1,0,0,,0,72,72,116,1,BALGY,LB,old,z,./images/BALGYLB.png,,,,,,,,,,,,,,,,,,,,,,,,,,,,,,,,,
,,,,,,,,,,,,,,,,,610f188b8ad0a93f6d508cad,27,2022-02-12_13h27.02.791,lexical_decision_task_DD_L5,2021.2.3,Linux armv7l,59.84798612,,,,,,,,,,0.8992,1,,,,,,,,,,,,,,,0,-0.23125,-0.294791698,1,0,0,0.8992,button_left_main,-0.23125,-0.294791698,1,0,0,,0,73,73,141,1,PLEET,C,old,z,./images/PLEET.png,,,,,,,,,,,,,,,,,,,,,,,,,,,,,,,,,
,,,,,,,,,,,,,,,,,610f188b8ad0a93f6d508cad,27,2022-02-12_13h27.02.791,lexical_decision_task_DD_L5,2021.2.3,Linux armv7l,59.84798612,,,,,,,,,,1.0634,1,,,,,,,,,,,,,,,0,-0.252083325,-0.384375,1,0,0,1.0634,button_left_main,-0.252083325,-0.384375,1,0,0,,0,74,74,145,1,LAMEL,HB,old,z,./images/LAMELHB.png,,,,,,,,,,,,,,,,,,,,,,,,,,,,,,,,,
,,,,,,,,,,,,,,,,,610f188b8ad0a93f6d508cad,27,2022-02-12_13h27.02.791,lexical_decision_task_DD_L5,2021.2.3,Linux armv7l,59.84798612,,,,,,,,,,0.6653,1,,,,,,,,,,,,,,,0,0.352083397,-0.340625,1,0,0,0.6653,button_right_main,0.352083397,-0.340625,1,0,0,,0,75,75,67,1,POKER,LB,old,m,./images/POKERLB.png,,,,,,,,,,,,,,,,,,,,,,,,,,,,,,,,,
,,,,,,,,,,,,,,,,,610f188b8ad0a93f6d508cad,27,2022-02-12_13h27.02.791,lexical_decision_task_DD_L5,2021.2.3,Linux armv7l,59.84798612,,,,,,,,,,0.8038,1,,,,,,,,,,,,,,,0,-0.310416663,-0.328125,1,0,0,0.8038,button_left_main,-0.310416663,-0.328125,1,0,0,,0,76,76,160,1,VEETS,HB,old,z,./images/VEETSHB.png,,,,,,,,,,,,,,,,,,,,,,,,,,,,,,,,,
,,,,,,,,,,,,,,,,,610f188b8ad0a93f6d508cad,27,2022-02-12_13h27.02.791,lexical_decision_task_DD_L5,2021.2.3,Linux armv7l,59.84798612,,,,,,,,,,1.4422,1,,,,,,,,,,,,,,,0,-0.379166663,-0.342708397,1,0,0,1.4422,button_left_main,-0.379166663,-0.342708397,1,0,0,,0,77,77,94,1,BLANS,HB,old,z,./images/BLANSHB.png,,,,,,,,,,,,,,,,,,,,,,,,,,,,,,,,,
,,,,,,,,,,,,,,,,,610f188b8ad0a93f6d508cad,27,2022-02-12_13h27.02.791,lexical_decision_task_DD_L5,2021.2.3,Linux armv7l,59.84798612,,,,,,,,,,0.8361,1,,,,,,,,,,,,,,,0,-0.310416663,-0.307291698,1,0,0,0.8361,button_left_main,-0.310416663,-0.307291698,1,0,0,,0,78,78,96,1,KEAMS,C,old,z,./images/KEAMS.png,,,,,,,,,,,,,,,,,,,,,,,,,,,,,,,,,
,,,,,,,,,,,,,,,,,610f188b8ad0a93f6d508cad,27,2022-02-12_13h27.02.791,lexical_decision_task_DD_L5,2021.2.3,Linux armv7l,59.84798612,,,,,,,,,,0.7152,1,,,,,,,,,,,,,,,0,0.379166698,-0.361458397,1,0,0,0.7152,button_right_main,0.379166698,-0.361458397,1,0,0,,0,79,79,78,1,BROOM,HB,old,m,./images/BROOMHB.png,,,,,,,,,,,,,,,,,,,,,,,,,,,,,,,,,
,,,,,,,,,,,,,,,,,610f188b8ad0a93f6d508cad,27,2022-02-12_13h27.02.791,lexical_decision_task_DD_L5,2021.2.3,Linux armv7l,59.84798612,,,,,,,,,,0.7657,1,,,,,,,,,,,,,,,0,-0.302083325,-0.361458397,1,0,0,0.7657,button_left_main,-0.302083325,-0.361458397,1,0,0,,0,80,80,113,1,LINEW,LB,old,z,./images/LINEWLB.png,,,,,,,,,,,,,,,,,,,,,,,,,,,,,,,,,
,,,,,,,,,,,,,,,,,610f188b8ad0a93f6d508cad,27,2022-02-12_13h27.02.791,lexical_decision_task_DD_L5,2021.2.3,Linux armv7l,59.84798612,,,,,,,,,,0.8966,1,,,,,,,,,,,,,,,0,-0.385416663,-0.340625,1,0,0,0.8966,button_left_main,-0.385416663,-0.340625,1,0,0,,0,81,81,85,1,CHULK,HB,old,z,./images/CHULKHB.png,,,,,,,,,,,,,,,,,,,,,,,,,,,,,,,,,
,,,,,,,,,,,,,,,,,610f188b8ad0a93f6d508cad,27,2022-02-12_13h27.02.791,lexical_decision_task_DD_L5,2021.2.3,Linux armv7l,59.84798612,,,,,,,,,,0.6538,1,,,,,,,,,,,,,,,0,0.3875,-0.309375,1,0,0,0.6538,button_right_main,0.3875,-0.309375,1,0,0,,0,82,82,13,1,BUNNY,LB,old,m,./images/BUNNYLB.png,,,,,,,,,,,,,,,,,,,,,,,,,,,,,,,,,
,,,,,,,,,,,,,,,,,610f188b8ad0a93f6d508cad,27,2022-02-12_13h27.02.791,lexical_decision_task_DD_L5,2021.2.3,Linux armv7l,59.84798612,,,,,,,,,,0.9487,1,,,,,,,,,,,,,,,0,-0.329166663,-0.303125,1,0,0,0.9487,button_left_main,0.05625,-0.363222831,1,0,0,,0,83,83,105,1,MOKER,C,old,z,./images/MOKER.png,break_done_button,,,,,,,,,,,,,,,,,,,,,,,,,,,,,,,,
,,,,,,,,,,,,,,,,,610f188b8ad0a93f6d508cad,27,2022-02-12_13h27.02.791,lexical_decision_task_DD_L5,2021.2.3,Linux armv7l,59.84798612,,,,,,,,,,1.075,1,,,,,,,,,,,,,,,0,0.127083354,-0.090306122,1,0,0,1.075,button_right_main,0.410711791,-0.307559956,1,0,0,,0,84,84,27,1,BUTTER,HB,old,m,./images/BUTTERHB.png,,,,,,,,,,,,,,,,,,,,,,,,,,,,,,,,,
,,,,,,,,,,,,,,,,,610f188b8ad0a93f6d508cad,27,2022-02-12_13h27.02.791,lexical_decision_task_DD_L5,2021.2.3,Linux armv7l,59.84798612,,,,,,,,,,1.0461,1,,,,,,,,,,,,,,,0,-0.289404591,-0.304094007,1,0,0,1.0461,button_left_main,-0.289404591,-0.304094007,1,0,0,,0,85,85,165,1,TROWN,C,old,z,./images/TROWN.png,,,,,,,,,,,,,,,,,,,,,,,,,,,,,,,,,
,,,,,,,,,,,,,,,,,610f188b8ad0a93f6d508cad,27,2022-02-12_13h27.02.791,lexical_decision_task_DD_L5,2021.2.3,Linux armv7l,59.84798612,,,,,,,,,,0.8835,1,,,,,,,,,,,,,,,0,-0.403779978,-0.311025819,1,0,0,0.8835,button_left_main,-0.403779978,-0.311025819,1,0,0,,0,86,86,107,1,FASKS,LB,old,z,./images/FASKSLB.png,,,,,,,,,,,,,,,,,,,,,,,,,,,,,,,,,
,,,,,,,,,,,,,,,,,610f188b8ad0a93f6d508cad,27,2022-02-12_13h27.02.791,lexical_decision_task_DD_L5,2021.2.3,Linux armv7l,59.84798612,,,,,,,,,,0.8072,1,,,,,,,,,,,,,,,0,-0.414177741,-0.259037007,1,0,0,0.8072,button_left_main,-0.414177741,-0.259037007,1,0,0,,0,87,87,126,1,GUELS,C,old,z,./images/GUELS.png,,,,,,,,,,,,,,,,,,,,,,,,,,,,,,,,,
,,,,,,,,,,,,,,,,,610f188b8ad0a93f6d508cad,27,2022-02-12_13h27.02.791,lexical_decision_task_DD_L5,2021.2.3,Linux armv7l,59.84798612,,,,,,,,,,0.9459,1,,,,,,,,,,,,,,,0,0.462700603,-0.297162194,1,0,0,0.9459,button_right_main,0.462700603,-0.297162194,1,0,0,,0,88,88,71,1,BUBBLE,C,old,m,./images/BUBBLE.png,,,,,,,,,,,,,,,,,,,,,,,,,,,,,,,,,
,,,,,,,,,,,,,,,,,610f188b8ad0a93f6d508cad,27,2022-02-12_13h27.02.791,lexical_decision_task_DD_L5,2021.2.3,Linux armv7l,59.84798612,,,,,,,,,,0.8206,1,,,,,,,,,,,,,,,0,-0.448836978,-0.33875333,1,0,0,0.8206,button_left_main,-0.448836978,-0.33875333,1,0,0,,0,89,89,128,1,GRIFT,LB,old,z,./images/GRIFTLB.png,,,,,,,,,,,,,,,,,,,,,,,,,,,,,,,,,
,,,,,,,,,,,,,,,,,610f188b8ad0a93f6d508cad,27,2022-02-12_13h27.02.791,lexical_decision_task_DD_L5,2021.2.3,Linux armv7l,59.84798612,,,,,,,,,,1.0357,1,,,,,,,,,,,,,,,0,-0.306734166,-0.328355481,1,0,0,1.0357,button_left_main,-0.306734166,-0.328355481,1,0,0,,0,90,90,84,1,HAXES,C,old,z,./images/HAXES.png,,,,,,,,,,,,,,,,,,,,,,,,,,,,,,,,,
,,,,,,,,,,,,,,,,,610f188b8ad0a93f6d508cad,27,2022-02-12_13h27.02.791,lexical_decision_task_DD_L5,2021.2.3,Linux armv7l,59.84798612,,,,,,,,,,0.9166,1,,,,,,,,,,,,,,,0,0.41764369,-0.269434769,1,0,0,0.9166,button_right_main,0.41764369,-0.269434769,1,0,0,,0,91,91,19,1,DONKEY,LB,old,m,./images/DONKEYLB.png,,,,,,,,,,,,,,,,,,,,,,,,,,,,,,,,,
,,,,,,,,,,,,,,,,,610f188b8ad0a93f6d508cad,27,2022-02-12_13h27.02.791,lexical_decision_task_DD_L5,2021.2.3,Linux armv7l,59.84798612,,,,,,,,,,0.8027,0,,,,,,,,,,,,,,,0,-0.303268303,-0.37687843,1,0,0,0.8027,button_left_main,-0.303268303,-0.37687843,1,0,0,,0,92,92,33,1,SAUNA,HB,old,m,./images/SAUNAHB.png,,,,,,,,,,,,,,,,,,,,,,,,,,,,,,,,,
,,,,,,,,,,,,,,,,,610f188b8ad0a93f6d508cad,27,2022-02-12_13h27.02.791,lexical_decision_task_DD_L5,2021.2.3,Linux armv7l,59.84798612,,,,,,,,,,0.784,1,,,,,,,,,,,,,,,0,0.400314028,-0.293696244,1,0,0,0.784,button_right_main,0.400314028,-0.293696244,1,0,0,,0,93,93,49,1,BISHOP,LB,old,m,./images/BISHOPLB.png,,,,,,,,,,,,,,,,,,,,,,,,,,,,,,,,,
,,,,,,,,,,,,,,,,,610f188b8ad0a93f6d508cad,27,2022-02-12_13h27.02.791,lexical_decision_task_DD_L5,2021.2.3,Linux armv7l,59.84798612,,,,,,,,,,0.9226,1,,,,,,,,,,,,,,,0,0.428041453,-0.324889618,1,0,0,0.9226,button_right_main,0.428041453,-0.324889618,1,0,0,,0,94,94,3,1,CRATER,HB,old,m,./images/CRATERHB.png,,,,,,,,,,,,,,,,,,,,,,,,,,,,,,,,,
,,,,,,,,,,,,,,,,,610f188b8ad0a93f6d508cad,27,2022-02-12_13h27.02.791,lexical_decision_task_DD_L5,2021.2.3,Linux armv7l,59.84798612,,,,,,,,,,0.8294,1,,,,,,,,,,,,,,,0,0.431507316,-0.349151093,1,0,0,0.8294,button_right_main,0.431507316,-0.349151093,1,0,0,,0,95,95,58,1,CANOE,LB,old,m,./images/CANOELB.png,,,,,,,,,,,,,,,,,,,,,,,,,,,,,,,,,
,,,,,,,,,,,,,,,,,610f188b8ad0a93f6d508cad,27,2022-02-12_13h27.02.791,lexical_decision_task_DD_L5,2021.2.3,Linux armv7l,59.84798612,,,,,,,,,,0.6124,1,,,,,,,,,,,,,,,0,0.410711791,-0.345685143,1,0,0,0.6124,button_right_main,0.410711791,-0.345685143,1,0,0,,0,96,96,1,1,TOWEL,LB,old,m,./images/TOWELLB.png,,,,,,,,,,,,,,,,,,,,,,,,,,,,,,,,,
,,,,,,,,,,,,,,,,,610f188b8ad0a93f6d508cad,27,2022-02-12_13h27.02.791,lexical_decision_task_DD_L5,2021.2.3,Linux armv7l,59.84798612,,,,,,,,,,0.6682,1,,,,,,,,,,,,,,,0,0.386450403,-0.394208006,1,0,0,0.6682,button_right_main,0.386450403,-0.394208006,1,0,0,,0,97,97,64,1,BRIDE,LB,old,m,./images/BRIDELB.png,,,,,,,,,,,,,,,,,,,,,,,,,,,,,,,,,
,,,,,,,,,,,,,,,,,610f188b8ad0a93f6d508cad,27,2022-02-12_13h27.02.791,lexical_decision_task_DD_L5,2021.2.3,Linux armv7l,59.84798612,,,,,,,,,,0.8326,1,,,,,,,,,,,,,,,0,0.330995727,-0.33875333,1,0,0,0.8326,button_right_main,0.330995727,-0.33875333,1,0,0,,0,98,98,14,1,FENCE,C,old,m,./images/FENCE.png,,,,,,,,,,,,,,,,,,,,,,,,,,,,,,,,,
,,,,,,,,,,,,,,,,,610f188b8ad0a93f6d508cad,27,2022-02-12_13h27.02.791,lexical_decision_task_DD_L5,2021.2.3,Linux armv7l,59.84798612,,,,,,,,,,0.9009,1,,,,,,,,,,,,,,,0,-0.303268303,-0.307559956,1,0,0,0.9009,button_left_main,-0.303268303,-0.307559956,1,0,0,,0,99,99,99,1,BACKY,C,old,z,./images/BACKY.png,,,,,,,,,,,,,,,,,,,,,,,,,,,,,,,,,
,,,,,,,,,,,,,,,,,610f188b8ad0a93f6d508cad,27,2022-02-12_13h27.02.791,lexical_decision_task_DD_L5,2021.2.3,Linux armv7l,59.84798612,,,,,,,,,,0.8329,1,,,,,,,,,,,,,,,0,0.34139349,-0.300628057,1,0,0,0.8329,button_right_main,0.34139349,-0.300628057,1,0,0,,0,100,100,60,1,CURRY,HB,old,m,./images/CURRYHB.png,,,,,,,,,,,,,,,,,,,,,,,,,,,,,,,,,
,,,,,,,,,,,,,,,,,610f188b8ad0a93f6d508cad,27,2022-02-12_13h27.02.791,lexical_decision_task_DD_L5,2021.2.3,Linux armv7l,59.84798612,,,,,,,,,,0.8129,1,,,,,,,,,,,,,,,0,0.37605264,-0.300628057,1,0,0,0.8129,button_right_main,0.37605264,-0.300628057,1,0,0,,0,101,101,11,1,MEDAL,C,old,m,./images/MEDAL.png,,,,,,,,,,,,,,,,,,,,,,,,,,,,,,,,,
,,,,,,,,,,,,,,,,,610f188b8ad0a93f6d508cad,27,2022-02-12_13h27.02.791,lexical_decision_task_DD_L5,2021.2.3,Linux armv7l,59.84798612,,,,,,,,,,0.7198,1,,,,,,,,,,,,,,,0,0.476564229,-0.224377856,1,0,0,0.7198,button_right_main,0.476564229,-0.224377856,1,0,0,,0,102,102,41,1,STREAM,C,old,m,./images/STREAM.png,,,,,,,,,,,,,,,,,,,,,,,,,,,,,,,,,
,,,,,,,,,,,,,,,,,610f188b8ad0a93f6d508cad,27,2022-02-12_13h27.02.791,lexical_decision_task_DD_L5,2021.2.3,Linux armv7l,59.84798612,,,,,,,,,,0.9173,1,,,,,,,,,,,,,,,0,-0.324063828,-0.265968906,1,0,0,0.9173,button_left_main,-0.324063828,-0.265968906,1,0,0,,0,103,103,127,1,NINDY,HB,old,z,./images/NINDYHB.png,,,,,,,,,,,,,,,,,,,,,,,,,,,,,,,,,
,,,,,,,,,,,,,,,,,610f188b8ad0a93f6d508cad,27,2022-02-12_13h27.02.791,lexical_decision_task_DD_L5,2021.2.3,Linux armv7l,59.84798612,,,,,,,,,,0.889,1,,,,,,,,,,,,,,,0,-0.344859353,-0.324889618,1,0,0,0.889,button_left_main,-0.344859353,-0.324889618,1,0,0,,0,104,104,98,1,BAMPS,LB,old,z,./images/BAMPSLB.png,,,,,,,,,,,,,,,,,,,,,,,,,,,,,,,,,
,,,,,,,,,,,,,,,,,610f188b8ad0a93f6d508cad,27,2022-02-12_13h27.02.791,lexical_decision_task_DD_L5,2021.2.3,Linux armv7l,59.84798612,,,,,,,,,,0.9022,1,,,,,,,,,,,,,,,0,-0.344859353,-0.397673955,1,0,0,0.9022,button_left_main,-0.344859353,-0.397673955,1,0,0,,0,105,105,108,1,GRUET,C,old,z,./images/GRUET.png,,,,,,,,,,,,,,,,,,,,,,,,,,,,,,,,,
,,,,,,,,,,,,,,,,,610f188b8ad0a93f6d508cad,27,2022-02-12_13h27.02.791,lexical_decision_task_DD_L5,2021.2.3,Linux armv7l,59.84798612,,,,,,,,,,1.0482,1,,,,,,,,,,,,,,,0,-0.195824642,-0.293696244,1,0,0,1.0482,button_left_main,-0.317131929,-0.252105194,1,0,0,,0,106,106,109,1,BURGE,HB,old,z,./images/BURGEHB.png,,,,,,,,,,,,,,,,,,,,,,,,,,,,,,,,,
,,,,,,,,,,,,,,,,,610f188b8ad0a93f6d508cad,27,2022-02-12_13h27.02.791,lexical_decision_task_DD_L5,2021.2.3,Linux armv7l,59.84798612,,,,,,,,,,0.988,1,,,,,,,,,,,,,,,0,0.37605264,-0.248639245,1,0,0,0.988,button_right_main,0.37605264,-0.248639245,1,0,0,,0,107,107,51,1,SAUCE,HB,old,m,./images/SAUCEHB.png,,,,,,,,,,,,,,,,,,,,,,,,,,,,,,,,,
,,,,,,,,,,,,,,,,,610f188b8ad0a93f6d508cad,27,2022-02-12_13h27.02.791,lexical_decision_task_DD_L5,2021.2.3,Linux armv7l,59.84798612,,,,,,,,,,1.0362,0,,,,,,,,,,,,,,,0,-0.310200116,-0.265968906,1,0,0,1.0362,button_left_main,-0.310200116,-0.265968906,1,0,0,,0,108,108,12,1,BLOKE,HB,old,m,./images/BLOKEHB.png,,,,,,,,,,,,,,,,,,,,,,,,,,,,,,,,,
,,,,,,,,,,,,,,,,,610f188b8ad0a93f6d508cad,27,2022-02-12_13h27.02.791,lexical_decision_task_DD_L5,2021.2.3,Linux armv7l,59.84798612,,,,,,,,,,0.7432,1,,,,,,,,,,,,,,,0,0.379518504,-0.373412481,1,0,0,0.7432,button_right_main,0.379518504,-0.373412481,1,0,0,,0,109,109,70,1,BANANA,LB,old,m,./images/BANANALB.png,,,,,,,,,,,,,,,,,,,,,,,,,,,,,,,,,
,,,,,,,,,,,,,,,,,610f188b8ad0a93f6d508cad,27,2022-02-12_13h27.02.791,lexical_decision_task_DD_L5,2021.2.3,Linux armv7l,59.84798612,,,,,,,,,,0.7845,1,,,,,,,,,,,,,,,0,-0.362188928,-0.356082905,1,0,0,0.7845,button_left_main,-0.362188928,-0.356082905,1,0,0,,0,110,110,148,1,JOMS,HB,old,z,./images/JOMSHB.png,,,,,,,,,,,,,,,,,,,,,,,,,,,,,,,,,
,,,,,,,,,,,,,,,,,610f188b8ad0a93f6d508cad,27,2022-02-12_13h27.02.791,lexical_decision_task_DD_L5,2021.2.3,Linux armv7l,59.84798612,,,,,,,,,,0.707,1,,,,,,,,,,,,,,,0,0.369120741,-0.366480668,1,0,0,0.707,button_right_main,0.369120741,-0.366480668,1,0,0,,0,111,111,79,1,RULER,LB,old,m,./images/RULERLB.png,,,,,,,,,,,,,,,,,,,,,,,,,,,,,,,,,
,,,,,,,,,,,,,,,,,610f188b8ad0a93f6d508cad,27,2022-02-12_13h27.02.791,lexical_decision_task_DD_L5,2021.2.3,Linux armv7l,59.84798612,,,,,,,,,,0.7816,1,,,,,,,,,,,,,,,0,-0.389916266,-0.317957719,1,0,0,0.7816,button_left_main,-0.389916266,-0.317957719,1,0,0,,0,112,112,140,1,DOVET,LB,old,z,./images/DOVETLB.png,,,,,,,,,,,,,,,,,,,,,,,,,,,,,,,,,
,,,,,,,,,,,,,,,,,610f188b8ad0a93f6d508cad,27,2022-02-12_13h27.02.791,lexical_decision_task_DD_L5,2021.2.3,Linux armv7l,59.84798612,,,,,,,,,,0.7859,1,,,,,,,,,,,,,,,0,-0.258211303,-0.262502957,1,0,0,0.7859,button_left_main,-0.258211303,-0.262502957,1,0,0,,0,113,113,153,1,CLUPS,C,old,z,./images/CLUPS.png,,,,,,,,,,,,,,,,,,,,,,,,,,,,,,,,,
,,,,,,,,,,,,,,,,,610f188b8ad0a93f6d508cad,27,2022-02-12_13h27.02.791,lexical_decision_task_DD_L5,2021.2.3,Linux armv7l,59.84798612,,,,,,,,,,1.2644,1,,,,,,,,,,,,,,,0,0.37605264,-0.359548855,1,0,0,1.2644,button_right_main,0.37605264,-0.359548855,1,0,0,,0,114,114,38,1,ENGINE,C,old,m,./images/ENGINE.png,,,,,,,,,,,,,,,,,,,,,,,,,,,,,,,,,
,,,,,,,,,,,,,,,,,610f188b8ad0a93f6d508cad,27,2022-02-12_13h27.02.791,lexical_decision_task_DD_L5,2021.2.3,Linux armv7l,59.84798612,,,,,,,,,,0.8052,1,,,,,,,,,,,,,,,0,-0.37605264,-0.359548855,1,0,0,0.8052,button_left_main,-0.37605264,-0.359548855,1,0,0,,0,115,115,91,1,SHENS,HB,old,z,./images/SHENSHB.png,,,,,,,,,,,,,,,,,,,,,,,,,,,,,,,,,
,,,,,,,,,,,,,,,,,610f188b8ad0a93f6d508cad,27,2022-02-12_13h27.02.791,lexical_decision_task_DD_L5,2021.2.3,Linux armv7l,59.84798612,,,,,,,,,,0.8803,1,,,,,,,,,,,,,,,0,-0.369120741,-0.317957719,1,0,0,0.8803,button_left_main,-0.369120741,-0.317957719,1,0,0,,0,116,116,122,1,BLOOT,LB,old,z,./images/BLOOTLB.png,,,,,,,,,,,,,,,,,,,,,,,,,,,,,,,,,
,,,,,,,,,,,,,,,,,610f188b8ad0a93f6d508cad,27,2022-02-12_13h27.02.791,lexical_decision_task_DD_L5,2021.2.3,Linux armv7l,59.84798612,,,,,,,,,,0.7658,1,,,,,,,,,,,,,,,0,-0.351791166,-0.349151093,1,0,0,0.7658,button_left_main,-0.351791166,-0.349151093,1,0,0,,0,117,117,162,1,LEICH,C,old,z,./images/LEICH.png,,,,,,,,,,,,,,,,,,,,,,,,,,,,,,,,,
,,,,,,,,,,,,,,,,,610f188b8ad0a93f6d508cad,27,2022-02-12_13h27.02.791,lexical_decision_task_DD_L5,2021.2.3,Linux armv7l,59.84798612,,,,,,,,,,0.6445,1,,,,,,,,,,,,,,,0,0.424575417,-0.38034438,1,0,0,0.6445,button_right_main,0.424575417,-0.38034438,1,0,0,,0,118,118,17,1,PARADE,C,old,m,./images/PARADE.png,,,,,,,,,,,,,,,,,,,,,,,,,,,,,,,,,
,,,,,,,,,,,,,,,,,610f188b8ad0a93f6d508cad,27,2022-02-12_13h27.02.791,lexical_decision_task_DD_L5,2021.2.3,Linux armv7l,59.84798612,,,,,,,,,,0.7438,1,,,,,,,,,,,,,,,0,-0.424575503,-0.401139819,1,0,0,0.7438,button_left_main,-0.29287054,-0.286764431,1,0,0,,0,119,119,95,1,HANTY,LB,old,z,./images/HANTYLB.png,,,,,,,,,,,,,,,,,,,,,,,,,,,,,,,,,
,,,,,,,,,,,,,,,,,610f188b8ad0a93f6d508cad,27,2022-02-12_13h27.02.791,lexical_decision_task_DD_L5,2021.2.3,Linux armv7l,59.84798612,,,,,,,,,,0.8337,1,,,,,,,,,,,,,,,0,-0.396848165,-0.363014718,1,0,0,0.8337,button_left_main,-0.396848165,-0.363014718,1,0,0,,0,120,120,135,1,JOODY,C,old,z,./images/JOODY.png,,,,,,,,,,,,,,,,,,,,,,,,,,,,,,,,,
,,,,,,,,,,,,,,,,,610f188b8ad0a93f6d508cad,27,2022-02-12_13h27.02.791,lexical_decision_task_DD_L5,2021.2.3,Linux armv7l,59.84798612,,,,,,,,,,0.7818,1,,,,,,,,,,,,,,,0,0.327529691,-0.328355481,1,0,0,0.7818,button_right_main,0.327529691,-0.328355481,1,0,0,,0,121,121,48,1,SHIELD,HB,old,m,./images/SHIELDHB.png,,,,,,,,,,,,,,,,,,,,,,,,,,,,,,,,,
,,,,,,,,,,,,,,,,,610f188b8ad0a93f6d508cad,27,2022-02-12_13h27.02.791,lexical_decision_task_DD_L5,2021.2.3,Linux armv7l,59.84798612,,,,,,,,,,1.1212,1,,,,,,,,,,,,,,,0,0.362189015,-0.449662768,1,0,0,1.1212,button_right_main,0.41764369,-0.272900719,1,0,0,,0,122,122,30,1,SLOPE,HB,old,m,./images/SLOPEHB.png,,,,,,,,,,,,,,,,,,,,,,,,,,,,,,,,,
,,,,,,,,,,,,,,,,,610f188b8ad0a93f6d508cad,27,2022-02-12_13h27.02.791,lexical_decision_task_DD_L5,2021.2.3,Linux armv7l,59.84798612,,,,,,,,,,0.8695,1,,,,,,,,,,,,,,,0,-0.396848165,-0.286764431,1,0,0,0.8695,button_left_main,-0.396848165,-0.286764431,1,0,0,,0,123,123,87,1,TRING,C,old,z,./images/TRING.png,,,,,,,,,,,,,,,,,,,,,,,,,,,,,,,,,
,,,,,,,,,,,,,,,,,610f188b8ad0a93f6d508cad,27,2022-02-12_13h27.02.791,lexical_decision_task_DD_L5,2021.2.3,Linux armv7l,59.84798612,,,,,,,,,,1.0164,1,,,,,,,,,,,,,,,0,0.403779892,-0.321423582,1,0,0,1.0164,button_right_main,0.403779892,-0.321423582,1,0,0,,0,124,124,77,1,WHEEL,C,old,m,./images/WHEEL.png,,,,,,,,,,,,,,,,,,,,,,,,,,,,,,,,,
,,,,,,,,,,,,,,,,,610f188b8ad0a93f6d508cad,27,2022-02-12_13h27.02.791,lexical_decision_task_DD_L5,2021.2.3,Linux armv7l,59.84798612,,,,,,,,,,0.801,1,,,,,,,,,,,,,,,0,0.469632503,-0.342219193,1,0,0,0.801,button_right_main,-0.008664917,-0.390742056,1,0,0,,0,125,125,28,1,CASINO,LB,old,m,./images/CASINOLB.png,break_done_button,,,,,,,,,,,,,,,,,,,,,,,,,,,,,,,,
,,,,,,,,,,,,,,,,,610f188b8ad0a93f6d508cad,27,2022-02-12_13h27.02.791,lexical_decision_task_DD_L5,2021.2.3,Linux armv7l,59.84798612,,,,,,,,,,0.8784,1,,,,,,,,,,,,,,,0,-0.372586691,-0.286764431,1,0,0,0.8784,button_left_main,-0.372586691,-0.286764431,1,0,0,,0,126,126,152,1,FRAIN,LB,old,z,./images/FRAINLB.png,,,,,,,,,,,,,,,,,,,,,,,,,,,,,,,,,
,,,,,,,,,,,,,,,,,610f188b8ad0a93f6d508cad,27,2022-02-12_13h27.02.791,lexical_decision_task_DD_L5,2021.2.3,Linux armv7l,59.84798612,,,,,,,,,,0.6687,1,,,,,,,,,,,,,,,0,0.448836978,-0.304094007,1,0,0,0.6687,button_right_main,0.448836978,-0.304094007,1,0,0,,0,127,127,74,1,JUMPER,C,old,m,./images/JUMPER.png,,,,,,,,,,,,,,,,,,,,,,,,,,,,,,,,,
,,,,,,,,,,,,,,,,,610f188b8ad0a93f6d508cad,27,2022-02-12_13h27.02.791,lexical_decision_task_DD_L5,2021.2.3,Linux armv7l,59.84798612,,,,,,,,,,0.6895,1,,,,,,,,,,,,,,,0,0.410711791,-0.356082905,1,0,0,0.6895,button_right_main,0.410711791,-0.356082905,1,0,0,,0,128,128,52,1,DESERT,LB,old,m,./images/DESERTLB.png,,,,,,,,,,,,,,,,,,,,,,,,,,,,,,,,,
,,,,,,,,,,,,,,,,,610f188b8ad0a93f6d508cad,27,2022-02-12_13h27.02.791,lexical_decision_task_DD_L5,2021.2.3,Linux armv7l,59.84798612,,,,,,,,,,0.7851,1,,,,,,,,,,,,,,,0,0.431507316,-0.328355481,1,0,0,0.7851,button_right_main,0.431507316,-0.328355481,1,0,0,,0,129,129,76,1,MIDGET,LB,old,m,./images/MIDGETLB.png,,,,,,,,,,,,,,,,,,,,,,,,,,,,,,,,,
,,,,,,,,,,,,,,,,,610f188b8ad0a93f6d508cad,27,2022-02-12_13h27.02.791,lexical_decision_task_DD_L5,2021.2.3,Linux armv7l,59.84798612,,,,,,,,,,0.6934,1,,,,,,,,,,,,,,,0,0.393382129,-0.304094007,1,0,0,0.6934,button_right_main,0.393382129,-0.304094007,1,0,0,,0,130,130,20,1,GRANNY,C,old,m,./images/GRANNY.png,,,,,,,,,,,,,,,,,,,,,,,,,,,,,,,,,
,,,,,,,,,,,,,,,,,610f188b8ad0a93f6d508cad,27,2022-02-12_13h27.02.791,lexical_decision_task_DD_L5,2021.2.3,Linux armv7l,59.84798612,,,,,,,,,,0.679,1,,,,,,,,,,,,,,,0,-0.296336404,-0.394208006,1,0,0,0.679,button_left_main,-0.296336404,-0.394208006,1,0,0,,0,131,131,104,1,GITTY,LB,old,z,./images/GITTYLB.png,,,,,,,,,,,,,,,,,,,,,,,,,,,,,,,,,
,,,,,,,,,,,,,,,,,610f188b8ad0a93f6d508cad,27,2022-02-12_13h27.02.791,lexical_decision_task_DD_L5,2021.2.3,Linux armv7l,59.84798612,,,,,,,,,,0.8575,1,,,,,,,,,,,,,,,0,0.486961992,-0.38034438,1,0,0,0.8575,button_right_main,0.486961992,-0.38034438,1,0,0,,0,132,132,0,1,WALNUT,HB,old,m,./images/WALNUTHB.png,,,,,,,,,,,,,,,,,,,,,,,,,,,,,,,,,
,,,,,,,,,,,,,,,,,610f188b8ad0a93f6d508cad,27,2022-02-12_13h27.02.791,lexical_decision_task_DD_L5,2021.2.3,Linux armv7l,59.84798612,,,,,,,,,,0.9669,1,,,,,,,,,,,,,,,0,-0.285938641,-0.314491769,1,0,0,0.9669,button_left_main,-0.285938641,-0.314491769,1,0,0,,0,133,133,103,1,FLORT,HB,old,z,./images/FLORTHB.png,,,,,,,,,,,,,,,,,,,,,,,,,,,,,,,,,
,,,,,,,,,,,,,,,,,610f188b8ad0a93f6d508cad,27,2022-02-12_13h27.02.791,lexical_decision_task_DD_L5,2021.2.3,Linux armv7l,59.84798612,,,,,,,,,,0.8038,1,,,,,,,,,,,,,,,0,-0.299802353,-0.262502957,1,0,0,0.8038,button_left_main,-0.299802353,-0.262502957,1,0,0,,0,134,134,161,1,BLAPS,LB,old,z,./images/BLAPSLB.png,,,,,,,,,,,,,,,,,,,,,,,,,,,,,,,,,
,,,,,,,,,,,,,,,,,610f188b8ad0a93f6d508cad,27,2022-02-12_13h27.02.791,lexical_decision_task_DD_L5,2021.2.3,Linux armv7l,59.84798612,,,,,,,,,,0.8246,1,,,,,,,,,,,,,,,0,-0.247813541,-0.359548855,1,0,0,0.8246,button_left_main,-0.247813541,-0.359548855,1,0,0,,0,135,135,115,1,MAWNS,HB,old,z,./images/MAWNSHB.png,,,,,,,,,,,,,,,,,,,,,,,,,,,,,,,,,
,,,,,,,,,,,,,,,,,610f188b8ad0a93f6d508cad,27,2022-02-12_13h27.02.791,lexical_decision_task_DD_L5,2021.2.3,Linux armv7l,59.84798612,,,,,,,,,,0.6779,1,,,,,,,,,,,,,,,0,0.372586777,-0.390742056,1,0,0,0.6779,button_right_main,0.372586777,-0.390742056,1,0,0,,0,136,136,15,1,COLLAR,HB,old,m,./images/COLLARHB.png,,,,,,,,,,,,,,,,,,,,,,,,,,,,,,,,,
,,,,,,,,,,,,,,,,,610f188b8ad0a93f6d508cad,27,2022-02-12_13h27.02.791,lexical_decision_task_DD_L5,2021.2.3,Linux armv7l,59.84798612,,,,,,,,,,0.7561,1,,,,,,,,,,,,,,,0,-0.240881555,-0.404605768,1,0,0,0.7561,button_left_main,-0.320597878,-0.293696244,1,0,0,,0,137,137,119,1,PAFER,LB,old,z,./images/PAFERLB.png,,,,,,,,,,,,,,,,,,,,,,,,,,,,,,,,,
,,,,,,,,,,,,,,,,,610f188b8ad0a93f6d508cad,27,2022-02-12_13h27.02.791,lexical_decision_task_DD_L5,2021.2.3,Linux armv7l,59.84798612,,,,,,,,,,1.048,1,,,,,,,,,,,,,,,0,-0.285938641,-0.252105194,1,0,0,1.048,button_left_main,-0.285938641,-0.252105194,1,0,0,,0,138,138,133,1,POWDY,HB,old,z,./images/POWDYHB.png,,,,,,,,,,,,,,,,,,,,,,,,,,,,,,,,,
,,,,,,,,,,,,,,,,,610f188b8ad0a93f6d508cad,27,2022-02-12_13h27.02.791,lexical_decision_task_DD_L5,2021.2.3,Linux armv7l,59.84798612,,,,,,,,,,0.7443,1,,,,,,,,,,,,,,,0,0.480030265,-0.369946618,1,0,0,0.7443,button_right_main,0.480030265,-0.369946618,1,0,0,,0,139,139,37,1,TIGER,LB,old,m,./images/TIGERLB.png,,,,,,,,,,,,,,,,,,,,,,,,,,,,,,,,,
,,,,,,,,,,,,,,,,,610f188b8ad0a93f6d508cad,27,2022-02-12_13h27.02.791,lexical_decision_task_DD_L5,2021.2.3,Linux armv7l,59.84798612,,,,,,,,,,0.7347,1,,,,,,,,,,,,,,,0,-0.389916266,-0.304094007,1,0,0,0.7347,button_left_main,-0.389916266,-0.304094007,1,0,0,,0,140,140,132,1,SCIFF,C,old,z,./images/SCIFF.png,,,,,,,,,,,,,,,,,,,,,,,,,,,,,,,,,
,,,,,,,,,,,,,,,,,610f188b8ad0a93f6d508cad,27,2022-02-12_13h27.02.791,lexical_decision_task_DD_L5,2021.2.3,Linux armv7l,59.84798612,,,,,,,,,,0.8174,1,,,,,,,,,,,,,,,0,-0.268609066,-0.349151093,1,0,0,0.8174,button_left_main,-0.268609066,-0.349151093,1,0,0,,0,141,141,139,1,BLEAR,HB,old,z,./images/BLEARHB.png,,,,,,,,,,,,,,,,,,,,,,,,,,,,,,,,,
,,,,,,,,,,,,,,,,,610f188b8ad0a93f6d508cad,27,2022-02-12_13h27.02.791,lexical_decision_task_DD_L5,2021.2.3,Linux armv7l,59.84798612,,,,,,,,,,0.7896,1,,,,,,,,,,,,,,,0,-0.285938641,-0.259037007,1,0,0,0.7896,button_left_main,-0.285938641,-0.259037007,1,0,0,,0,142,142,93,1,SMONE,C,old,z,./images/SMONE.png,,,,,,,,,,,,,,,,,,,,,,,,,,,,,,,,,
,,,,,,,,,,,,,,,,,610f188b8ad0a93f6d508cad,27,2022-02-12_13h27.02.791,lexical_decision_task_DD_L5,2021.2.3,Linux armv7l,59.84798612,,,,,,,,,,0.7746,1,,,,,,,,,,,,,,,0,0.434973179,-0.331821431,1,0,0,0.7746,button_right_main,0.434973179,-0.331821431,1,0,0,,0,143,143,36,1,BOILER,HB,old,m,./images/BOILERHB.png,,,,,,,,,,,,,,,,,,,,,,,,,,,,,,,,,
,,,,,,,,,,,,,,,,,610f188b8ad0a93f6d508cad,27,2022-02-12_13h27.02.791,lexical_decision_task_DD_L5,2021.2.3,Linux armv7l,59.84798612,,,,,,,,,,0.6678,1,,,,,,,,,,,,,,,0,-0.279006828,-0.290230294,1,0,0,0.6678,button_left_main,-0.279006828,-0.290230294,1,0,0,,0,144,144,123,1,SEDGE,C,old,z,./images/SEDGE.png,,,,,,,,,,,,,,,,,,,,,,,,,,,,,,,,,
,,,,,,,,,,,,,,,,,610f188b8ad0a93f6d508cad,27,2022-02-12_13h27.02.791,lexical_decision_task_DD_L5,2021.2.3,Linux armv7l,59.84798612,,,,,,,,,,0.7678,1,,,,,,,,,,,,,,,0,0.386450403,-0.352616956,1,0,0,0.7678,button_right_main,0.386450403,-0.352616956,1,0,0,,0,145,145,80,1,PLANET,C,old,m,./images/PLANET.png,,,,,,,,,,,,,,,,,,,,,,,,,,,,,,,,,
,,,,,,,,,,,,,,,,,610f188b8ad0a93f6d508cad,27,2022-02-12_13h27.02.791,lexical_decision_task_DD_L5,2021.2.3,Linux armv7l,59.84798612,,,,,,,,,,0.7187,1,,,,,,,,,,,,,,,0,0.452302841,-0.359548855,1,0,0,0.7187,button_right_main,0.452302841,-0.359548855,1,0,0,,0,146,146,16,1,GRAPE,LB,old,m,./images/GRAPELB.png,,,,,,,,,,,,,,,,,,,,,,,,,,,,,,,,,
,,,,,,,,,,,,,,,,,610f188b8ad0a93f6d508cad,27,2022-02-12_13h27.02.791,lexical_decision_task_DD_L5,2021.2.3,Linux armv7l,59.84798612,,,,,,,,,,0.8101,1,,,,,,,,,,,,,,,0,-0.362188928,-0.279832532,1,0,0,0.8101,button_left_main,-0.362188928,-0.279832532,1,0,0,,0,147,147,125,1,MOOKY,LB,old,z,./images/MOOKYLB.png,,,,,,,,,,,,,,,,,,,,,,,,,,,,,,,,,
,,,,,,,,,,,,,,,,,610f188b8ad0a93f6d508cad,27,2022-02-12_13h27.02.791,lexical_decision_task_DD_L5,2021.2.3,Linux armv7l,59.84798612,,,,,,,,,,1.1136,1,,,,,,,,,,,,,,,0,0.421109553,-0.33875333,1,0,0,1.1136,button_right_main,0.421109553,-0.33875333,1,0,0,,0,148,148,21,1,DANCER,HB,old,m,./images/DANCERHB.png,,,,,,,,,,,,,,,,,,,,,,,,,,,,,,,,,
,,,,,,,,,,,,,,,,,610f188b8ad0a93f6d508cad,27,2022-02-12_13h27.02.791,lexical_decision_task_DD_L5,2021.2.3,Linux armv7l,59.84798612,,,,,,,,,,0.7156,1,,,,,,,,,,,,,,,0,-0.400314028,-0.383810243,1,0,0,0.7156,button_left_main,-0.400314028,-0.383810243,1,0,0,,0,149,149,134,1,TROSS,LB,old,z,./images/TROSSLB.png,,,,,,,,,,,,,,,,,,,,,,,,,,,,,,,,,
,,,,,,,,,,,,,,,,,610f188b8ad0a93f6d508cad,27,2022-02-12_13h27.02.791,lexical_decision_task_DD_L5,2021.2.3,Linux armv7l,59.84798612,,,,,,,,,,0.8021,1,,,,,,,,,,,,,,,0,0.438439215,-0.307559956,1,0,0,0.8021,button_right_main,0.438439215,-0.307559956,1,0,0,,0,150,150,2,1,STOVE,C,old,m,./images/STOVE.png,,,,,,,,,,,,,,,,,,,,,,,,,,,,,,,,,
,,,,,,,,,,,,,,,,,610f188b8ad0a93f6d508cad,27,2022-02-12_13h27.02.791,lexical_decision_task_DD_L5,2021.2.3,Linux armv7l,59.84798612,,,,,,,,,,0.7001,1,,,,,,,,,,,,,,,0,-0.279006828,-0.238241482,1,0,0,0.7001,button_left_main,-0.279006828,-0.238241482,1,0,0,,0,151,151,164,1,SGREW,LB,old,z,./images/SGREWLB.png,,,,,,,,,,,,,,,,,,,,,,,,,,,,,,,,,
,,,,,,,,,,,,,,,,,610f188b8ad0a93f6d508cad,27,2022-02-12_13h27.02.791,lexical_decision_task_DD_L5,2021.2.3,Linux armv7l,59.84798612,,,,,,,,,,1.2433,1,,,,,,,,,,,,,,,0,-0.247813541,-0.259037007,1,0,0,1.2433,button_left_main,-0.247813541,-0.259037007,1,0,0,,0,152,152,157,1,INLER,HB,old,z,./images/INLERHB.png,,,,,,,,,,,,,,,,,,,,,,,,,,,,,,,,,
,,,,,,,,,,,,,,,,,610f188b8ad0a93f6d508cad,27,2022-02-12_13h27.02.791,lexical_decision_task_DD_L5,2021.2.3,Linux armv7l,59.84798612,,,,,,,,,,0.822,1,,,,,,,,,,,,,,,0,-0.261677253,-0.290230294,1,0,0,0.822,button_left_main,-0.261677253,-0.290230294,1,0,0,,0,153,153,144,1,NAIRY,C,old,z,./images/NAIRY.png,,,,,,,,,,,,,,,,,,,,,,,,,,,,,,,,,
,,,,,,,,,,,,,,,,,610f188b8ad0a93f6d508cad,27,2022-02-12_13h27.02.791,lexical_decision_task_DD_L5,2021.2.3,Linux armv7l,59.84798612,,,,,,,,,,0.7166,1,,,,,,,,,,,,,,,0,0.33446159,-0.33875333,1,0,0,0.7166,button_right_main,0.33446159,-0.33875333,1,0,0,,0,154,154,46,1,MUMMY,LB,old,m,./images/MUMMYLB.png,,,,,,,,,,,,,,,,,,,,,,,,,,,,,,,,,
,,,,,,,,,,,,,,,,,610f188b8ad0a93f6d508cad,27,2022-02-12_13h27.02.791,lexical_decision_task_DD_L5,2021.2.3,Linux armv7l,59.84798612,,,,,,,,,,0.9803,1,,,,,,,,,,,,,,,0,0.438439215,-0.363014718,1,0,0,0.9803,button_right_main,0.438439215,-0.363014718,1,0,0,,0,155,155,24,1,FLESH,HB,old,m,./images/FLESHHB.png,,,,,,,,,,,,,,,,,,,,,,,,,,,,,,,,,
,,,,,,,,,,,,,,,,,610f188b8ad0a93f6d508cad,27,2022-02-12_13h27.02.791,lexical_decision_task_DD_L5,2021.2.3,Linux armv7l,59.84798612,,,,,,,,,,0.7199,1,,,,,,,,,,,,,,,0,-0.296336404,-0.248639245,1,0,0,0.7199,button_left_main,-0.296336404,-0.248639245,1,0,0,,0,156,156,89,1,DRIEK,LB,old,z,./images/DRIEKLB.png,,,,,,,,,,,,,,,,,,,,,,,,,,,,,,,,,
,,,,,,,,,,,,,,,,,610f188b8ad0a93f6d508cad,27,2022-02-12_13h27.02.791,lexical_decision_task_DD_L5,2021.2.3,Linux armv7l,59.84798612,,,,,,,,,,0.9144,1,,,,,,,,,,,,,,,0,-0.296336404,-0.300628057,1,0,0,0.9144,button_left_main,-0.296336404,-0.300628057,1,0,0,,0,157,157,158,1,EGECT,LB,old,z,./images/EGECTLB.png,,,,,,,,,,,,,,,,,,,,,,,,,,,,,,,,,
,,,,,,,,,,,,,,,,,610f188b8ad0a93f6d508cad,27,2022-02-12_13h27.02.791,lexical_decision_task_DD_L5,2021.2.3,Linux armv7l,59.84798612,,,,,,,,,,0.7943,1,,,,,,,,,,,,,,,0,0.414177654,-0.359548855,1,0,0,0.7943,button_right_main,0.414177654,-0.359548855,1,0,0,,0,158,158,43,1,STOOL,LB,old,m,./images/STOOLLB.png,,,,,,,,,,,,,,,,,,,,,,,,,,,,,,,,,
,,,,,,,,,,,,,,,,,610f188b8ad0a93f6d508cad,27,2022-02-12_13h27.02.791,lexical_decision_task_DD_L5,2021.2.3,Linux armv7l,59.84798612,,,,,,,,,,0.6421,1,,,,,,,,,,,,,,,0,0.407245928,-0.373412481,1,0,0,0.6421,button_right_main,0.407245928,-0.373412481,1,0,0,,0,159,159,31,1,STEAK,LB,old,m,./images/STEAKLB.png,,,,,,,,,,,,,,,,,,,,,,,,,,,,,,,,,
,,,,,,,,,,,,,,,,,610f188b8ad0a93f6d508cad,27,2022-02-12_13h27.02.791,lexical_decision_task_DD_L5,2021.2.3,Linux armv7l,59.84798612,,,,,,,,,,0.7276,1,,,,,,,,,,,,,,,0,0.362189015,-0.33528738,1,0,0,0.7276,button_right_main,0.362189015,-0.33528738,1,0,0,,0,160,160,69,1,ARROW,HB,old,m,./images/ARROWHB.png,,,,,,,,,,,,,,,,,,,,,,,,,,,,,,,,,
,,,,,,,,,,,,,,,,,610f188b8ad0a93f6d508cad,27,2022-02-12_13h27.02.791,lexical_decision_task_DD_L5,2021.2.3,Linux armv7l,59.84798612,,,,,,,,,,0.8046,1,,,,,,,,,,,,,,,0,0.389916266,-0.356082905,1,0,0,0.8046,button_right_main,0.389916266,-0.356082905,1,0,0,,0,161,161,81,1,DRILL,HB,old,m,./images/DRILLHB.png,,,,,,,,,,,,,,,,,,,,,,,,,,,,,,,,,
,,,,,,,,,,,,,,,,,610f188b8ad0a93f6d508cad,27,2022-02-12_13h27.02.791,lexical_decision_task_DD_L5,2021.2.3,Linux armv7l,59.84798612,,,,,,,,,,0.7519,1,,,,,,,,,,,,,,,0,0.379518504,-0.324889618,1,0,0,0.7519,button_right_main,0.379518504,-0.324889618,1,0,0,,0,162,162,83,1,WHISKY,C,old,m,./images/WHISKY.png,,,,,,,,,,,,,,,,,,,,,,,,,,,,,,,,,
,,,,,,,,,,,,,,,,,610f188b8ad0a93f6d508cad,27,2022-02-12_13h27.02.791,lexical_decision_task_DD_L5,2021.2.3,Linux armv7l,59.84798612,,,,,,,,,,0.7297,1,,,,,,,,,,,,,,,0,0.407245928,-0.359548855,1,0,0,0.7297,button_right_main,0.407245928,-0.359548855,1,0,0,,0,163,163,55,1,ALLEY,LB,old,m,./images/ALLEYLB.png,,,,,,,,,,,,,,,,,,,,,,,,,,,,,,,,,
,,,,,,,,,,,,,,,,,610f188b8ad0a93f6d508cad,27,2022-02-12_13h27.02.791,lexical_decision_task_DD_L5,2021.2.3,Linux armv7l,59.84798612,,,,,,,,,,1.0539,1,,,,,,,,,,,,,,,0,0.379518504,-0.345685143,1,0,0,1.0539,button_right_main,0.379518504,-0.345685143,1,0,0,,0,164,164,66,1,STATUE,HB,old,m,./images/STATUEHB.png,,,,,,,,,,,,,,,,,,,,,,,,,,,,,,,,,
,,,,,,,,,,,,,,,,,610f188b8ad0a93f6d508cad,27,2022-02-12_13h27.02.791,lexical_decision_task_DD_L5,2021.2.3,Linux armv7l,59.84798612,,,,,,,,,,0.7142,1,,,,,,,,,,,,,,,0,0.393382129,-0.349151093,1,0,0,0.7142,button_right_main,0.393382129,-0.349151093,1,0,0,,0,165,165,54,1,CHERRY,HB,old,m,./images/CHERRYHB.png,,,,,,,,,,,,,,,,,,,,,,,,,,,,,,,,,
,,,,,,,,,,,,,,,,,610f188b8ad0a93f6d508cad,27,2022-02-12_13h27.02.791,lexical_decision_task_DD_L5,2021.2.3,Linux armv7l,59.84798612,,,,,,,,,,0.8582,1,,,,,,,,,,,,,,,0,0.38298454,-0.33875333,1,0,0,0.8582,button_right_main,0.38298454,-0.33875333,1,0,0,,0,166,166,18,1,PARCEL,HB,old,m,./images/PARCELHB.png,,,,,,,,,,,,,,,,,,,,,,,,,,,,,,,,,
,,,,,,,,,,,,,,,,,610f188b8ad0a93f6d508cad,27,2022-02-12_13h27.02.791,lexical_decision_task_DD_L5,2021.2.3,Linux armv7l,59.84798612,,,,,,,,,,0.7199,1,,,,,,,,,,,,,,,0,0.369120741,-0.352616956,1,0,0,0.7199,button_right_main,0.369120741,-0.352616956,1,0,0,,0,167,167,56,1,HEATER,C,old,m,./images/HEATER.png,,,,,,,,,,,,,,,,,,,,,,,,,,,,,,,,,
,,,,,,,,,,,,,,,,,610f188b8ad0a93f6d508cad,27,2022-02-12_13h27.02.791,lexical_decision_task_DD_L5,2021.2.3,Linux armv7l,59.84798612,,,,,,,,,,,,,,,,,,,,,,,,,,,,,,,,,,,,,,,,,,,,,,How likely will it be that you will recognize the words presented very blurred on a scale of 0 (not likely) to 100 (most likely)?,,,,,0.004166708,-0.438222831,1,0,0,jol_adv,4,8.2484,0,0,0,2,1,,,,,,,,,,,,,,,,,,,
,,,,,,,,,,,,,,,,,610f188b8ad0a93f6d508cad,27,2022-02-12_13h27.02.791,lexical_decision_task_DD_L5,2021.2.3,Linux armv7l,59.84798612,,,,,,,,,,,,,,,,,,,,,,,,,,,,,,,,,,,,,,,,,,,,,,How likely will it be that you will recognize the words presented clearly on a scale of 0 (not likely) to 100 (most likely)?,,,,,,,,,,,6,4.4368,0,1,1,0,1,,,,,,,,,,,,,,,,,,,
,,,,,,,,,,,,,,,,,610f188b8ad0a93f6d508cad,27,2022-02-12_13h27.02.791,lexical_decision_task_DD_L5,2021.2.3,Linux armv7l,59.84798612,,,,,,,,,,,,,,,,,,,,,,,,,,,,,,,,,,,,,,,,,,,,,,How likely will it be that you will recognize the words presented slighly blurred on a scale of 0 (not likely) to 100 (most likely)?,,,,,,,,,,,5,3.468,0,2,2,1,1,,,,,,,,,,,,,,,,,,,
,0.0625,-0.404889539,1,0,0,instr_done_button,,,,,,1,test,"In the next phase you will be presented with the words from the the first phase. Your job is to decide whether you remember seeing the word or not. If you remember seeing the word press ""old"" or type ""m"". If you do not remember seeing the word press ""new"" or type ""z"". Please press the space bar or click on continue to begin. ",,,610f188b8ad0a93f6d508cad,27,2022-02-12_13h27.02.791,lexical_decision_task_DD_L5,2021.2.3,Linux armv7l,59.84798612,,,,,,,,,,,,,,,,,,,,,,,,,,,,,,,,,,,,,,,,,,,,,,,,,,,,,,,,,,,,,,,,0,0,0,0,1,,,,,,,,,,,,,,
,0.05372183,-0.435799056,1,0,0,instr_done_button,,,,,,1,test,"In the next phase you will be presented with the words from the the first phase. Your job is to decide whether you remember seeing the word or not. If you remember seeing the word press ""old"" or type ""m"". If you do not remember seeing the word press ""new"" or type ""z"". Please press the space bar or click on continue to begin. ",,,610f188b8ad0a93f6d508cad,27,2022-02-12_13h27.02.791,lexical_decision_task_DD_L5,2021.2.3,Linux armv7l,59.84798612,,,,,,,,,,,,,,,,,,,,,,,,,,,,,,,,,,,,,,,,,,,,,,,,,,,,,,,,,,,,,,,,1,0,1,0,1,,,,,,,,,,,,,,
,0.057187694,-0.401139819,1,0,0,instr_done_button,,,,,,1,test,"In the next phase you will be presented with the words from the the first phase. Your job is to decide whether you remember seeing the word or not. If you remember seeing the word press ""old"" or type ""m"". If you do not remember seeing the word press ""new"" or type ""z"". Please press the space bar or click on continue to begin. ",,,610f188b8ad0a93f6d508cad,27,2022-02-12_13h27.02.791,lexical_decision_task_DD_L5,2021.2.3,Linux armv7l,59.84798612,,,,,,,,,,,,,,,,,,,,,,,,,,,,,,,,,,,,,,,,,,,,,,,,,,,,,,,,,,,,,,,,2,0,2,0,1,,,,,,,,,,,,,,
,0.016666708,-0.356972831,1,0,0,instr_done_button,,,,,,1,test,"In the next phase you will be presented with the words from the the first phase. Your job is to decide whether you remember seeing the word or not. If you remember seeing the word press ""old"" or type ""m"". If you do not remember seeing the word press ""new"" or type ""z"". Please press the space bar or click on continue to begin. ",,,610f188b8ad0a93f6d508cad,27,2022-02-12_13h27.02.791,lexical_decision_task_DD_L5,2021.2.3,Linux armv7l,59.84798612,,,,,,,,,,,,,,,,,,,,,,,,,,,,,,,,,,,,,,,,,,,,,,,,,,,,,,,,,,,,,,,,3,0,3,0,1,,,,,,,,,,,,,,
,-0.0125,-0.419472831,1,0,0,instr_done_button,,,,,,1,test,"In the next phase you will be presented with the words from the the first phase. Your job is to decide whether you remember seeing the word or not. If you remember seeing the word press ""old"" or type ""m"". If you do not remember seeing the word press ""new"" or type ""z"". Please press the space bar or click on continue to begin. ",,,610f188b8ad0a93f6d508cad,27,2022-02-12_13h27.02.791,lexical_decision_task_DD_L5,2021.2.3,Linux armv7l,59.84798612,,,,,,,,,,,,,,,,,,,,,,,,,,,,,,,,,,,,,,,,,,,,,,,,,,,,,,,,,,,,,,,,4,0,4,0,1,,,,,,,,,,,,,,
,,,,,,,,,,,,,,,,,610f188b8ad0a93f6d508cad,27,2022-02-12_13h27.02.791,lexical_decision_task_DD_L5,2021.2.3,Linux armv7l,59.84798612,,,,,,,,,,2.9295,0,,,,,,,,,,,,,,,,,,,,,,,0.476564229,-0.369946618,1,0,0,,,,,,,RHINO,HB,z,y,./images/RHINOHB.png,,,,,,,,,,,,,,,,,,,,,0,0.476564229,-0.369946618,1,0,0,2.9295,button_right_test,0,0,0,93,1
,,,,,,,,,,,,,,,,,610f188b8ad0a93f6d508cad,27,2022-02-12_13h27.02.791,lexical_decision_task_DD_L5,2021.2.3,Linux armv7l,59.84798612,,,,,,,,,,1.4961,1,,,,,,,,,,,,,,,,,,,,,,,0.486961992,-0.317957719,1,0,0,,,,,,,MIDGET,LB,m,y,./images/MIDGETLB.png,,,,,,,,,,,,,,,,,,,,,0,0.486961992,-0.317957719,1,0,0,1.4961,button_right_test,0,1,1,76,1
,,,,,,,,,,,,,,,,,610f188b8ad0a93f6d508cad,27,2022-02-12_13h27.02.791,lexical_decision_task_DD_L5,2021.2.3,Linux armv7l,59.84798612,,,,,,,,,,0.9134,1,,,,,,,,,,,,,,,,,,,,,,,-0.403779978,-0.293696244,1,0,0,,,,,,,KITTEN,HB,z,y,./images/KITTENHB.png,,,,,,,,,,,,,,,,,,,,,0,-0.403779978,-0.293696244,1,0,0,0.9134,button_left_test,0,2,2,129,1
,,,,,,,,,,,,,,,,,610f188b8ad0a93f6d508cad,27,2022-02-12_13h27.02.791,lexical_decision_task_DD_L5,2021.2.3,Linux armv7l,59.84798612,,,,,,,,,,0.8874,1,,,,,,,,,,,,,,,,,,,,,,,0.414177654,-0.383810243,1,0,0,,,,,,,ARROW,HB,m,y,./images/ARROWHB.png,,,,,,,,,,,,,,,,,,,,,0,0.414177654,-0.383810243,1,0,0,0.8874,button_right_test,0,3,3,69,1
,,,,,,,,,,,,,,,,,610f188b8ad0a93f6d508cad,27,2022-02-12_13h27.02.791,lexical_decision_task_DD_L5,2021.2.3,Linux armv7l,59.84798612,,,,,,,,,,0.9926,1,,,,,,,,,,,,,,,,,,,,,,,-0.344859353,-0.342219193,1,0,0,,,,,,,SNACK,LB,z,y,./images/SNACKLB.png,,,,,,,,,,,,,,,,,,,,,0,-0.344859353,-0.342219193,1,0,0,0.9926,button_left_test,0,4,4,157,1
,,,,,,,,,,,,,,,,,610f188b8ad0a93f6d508cad,27,2022-02-12_13h27.02.791,lexical_decision_task_DD_L5,2021.2.3,Linux armv7l,59.84798612,,,,,,,,,,1.1809,1,,,,,,,,,,,,,,,,,,,,,,,0.431507316,-0.373412481,1,0,0,,,,,,,RULER,LB,m,y,./images/RULERLB.png,,,,,,,,,,,,,,,,,,,,,0,0.431507316,-0.373412481,1,0,0,1.1809,button_right_test,0,5,5,79,1
,,,,,,,,,,,,,,,,,610f188b8ad0a93f6d508cad,27,2022-02-12_13h27.02.791,lexical_decision_task_DD_L5,2021.2.3,Linux armv7l,59.84798612,,,,,,,,,,0.7425,1,,,,,,,,,,,,,,,,,,,,,,,0.424575417,-0.311025819,1,0,0,,,,,,,WHISKY,C,m,y,./images/WHISKY.png,,,,,,,,,,,,,,,,,,,,,0,0.424575417,-0.311025819,1,0,0,0.7425,button_right_test,0,6,6,83,1
,,,,,,,,,,,,,,,,,610f188b8ad0a93f6d508cad,27,2022-02-12_13h27.02.791,lexical_decision_task_DD_L5,2021.2.3,Linux armv7l,59.84798612,,,,,,,,,,1.9579,1,,,,,,,,,,,,,,,,,,,,,,,-0.324063828,-0.345685143,1,0,0,,,,,,,CANYON,LB,z,y,./images/CANYONLB.png,,,,,,,,,,,,,,,,,,,,,0,-0.324063828,-0.345685143,1,0,0,1.9579,button_left_test,0,7,7,118,1
,,,,,,,,,,,,,,,,,610f188b8ad0a93f6d508cad,27,2022-02-12_13h27.02.791,lexical_decision_task_DD_L5,2021.2.3,Linux armv7l,59.84798612,,,,,,,,,,0.8595,1,,,,,,,,,,,,,,,,,,,,,,,0.421109553,-0.349151093,1,0,0,,,,,,,CLOWN,LB,m,y,./images/CLOWNLB.png,,,,,,,,,,,,,,,,,,,,,0,0.421109553,-0.349151093,1,0,0,0.8595,button_right_test,0,8,8,22,1
,,,,,,,,,,,,,,,,,610f188b8ad0a93f6d508cad,27,2022-02-12_13h27.02.791,lexical_decision_task_DD_L5,2021.2.3,Linux armv7l,59.84798612,,,,,,,,,,0.8802,1,,,,,,,,,,,,,,,,,,,,,,,-0.355257115,-0.286764431,1,0,0,,,,,,,COOKER,HB,z,y,./images/COOKERHB.png,,,,,,,,,,,,,,,,,,,,,0,-0.355257115,-0.286764431,1,0,0,0.8802,button_left_test,0,9,9,153,1
,,,,,,,,,,,,,,,,,610f188b8ad0a93f6d508cad,27,2022-02-12_13h27.02.791,lexical_decision_task_DD_L5,2021.2.3,Linux armv7l,59.84798612,,,,,,,,,,0.8172,1,,,,,,,,,,,,,,,,,,,,,,,0.396848165,-0.300628057,1,0,0,,,,,,,TIGER,LB,m,y,./images/TIGERLB.png,,,,,,,,,,,,,,,,,,,,,0,0.396848165,-0.300628057,1,0,0,0.8172,button_right_test,0,10,10,37,1
,,,,,,,,,,,,,,,,,610f188b8ad0a93f6d508cad,27,2022-02-12_13h27.02.791,lexical_decision_task_DD_L5,2021.2.3,Linux armv7l,59.84798612,,,,,,,,,,1.0477,1,,,,,,,,,,,,,,,,,,,,,,,0.396848165,-0.328355481,1,0,0,,,,,,,FERRY,HB,m,y,./images/FERRYHB.png,,,,,,,,,,,,,,,,,,,,,0,0.396848165,-0.328355481,1,0,0,1.0477,button_right_test,0,11,11,57,1
,,,,,,,,,,,,,,,,,610f188b8ad0a93f6d508cad,27,2022-02-12_13h27.02.791,lexical_decision_task_DD_L5,2021.2.3,Linux armv7l,59.84798612,,,,,,,,,,1.2197,1,,,,,,,,,,,,,,,,,,,,,,,0.441905078,-0.293696244,1,0,0,,,,,,,CANOE,LB,m,y,./images/CANOELB.png,,,,,,,,,,,,,,,,,,,,,0,0.441905078,-0.293696244,1,0,0,1.2197,button_right_test,0,12,12,58,1
,,,,,,,,,,,,,,,,,610f188b8ad0a93f6d508cad,27,2022-02-12_13h27.02.791,lexical_decision_task_DD_L5,2021.2.3,Linux armv7l,59.84798612,,,,,,,,,,0.9329,1,,,,,,,,,,,,,,,,,,,,,,,0.389916266,-0.213980094,1,0,0,,,,,,,BOXER,LB,m,y,./images/BOXERLB.png,,,,,,,,,,,,,,,,,,,,,0,0.389916266,-0.213980094,1,0,0,0.9329,button_right_test,0,13,13,4,1
,,,,,,,,,,,,,,,,,610f188b8ad0a93f6d508cad,27,2022-02-12_13h27.02.791,lexical_decision_task_DD_L5,2021.2.3,Linux armv7l,59.84798612,,,,,,,,,,0.9049,1,,,,,,,,,,,,,,,,,,,,,,,0.473098366,-0.241707432,1,0,0,,,,,,,HEATER,C,m,y,./images/HEATER.png,,,,,,,,,,,,,,,,,,,,,0,0.473098366,-0.241707432,1,0,0,0.9049,button_right_test,0,14,14,56,1
,,,,,,,,,,,,,,,,,610f188b8ad0a93f6d508cad,27,2022-02-12_13h27.02.791,lexical_decision_task_DD_L5,2021.2.3,Linux armv7l,59.84798612,,,,,,,,,,1.4711,1,,,,,,,,,,,,,,,,,,,,,,,0.414177654,-0.359548855,1,0,0,,,,,,,SAUNA,HB,m,y,./images/SAUNAHB.png,,,,,,,,,,,,,,,,,,,,,0,0.414177654,-0.359548855,1,0,0,1.4711,button_right_test,0,15,15,33,1
,,,,,,,,,,,,,,,,,610f188b8ad0a93f6d508cad,27,2022-02-12_13h27.02.791,lexical_decision_task_DD_L5,2021.2.3,Linux armv7l,59.84798612,,,,,,,,,,0.9744,1,,,,,,,,,,,,,,,,,,,,,,,-0.382984453,-0.363014718,1,0,0,,,,,,,PLANK,LB,z,y,./images/PLANKLB.png,,,,,,,,,,,,,,,,,,,,,0,-0.382984453,-0.363014718,1,0,0,0.9744,button_left_test,0,16,16,85,1
,,,,,,,,,,,,,,,,,610f188b8ad0a93f6d508cad,27,2022-02-12_13h27.02.791,lexical_decision_task_DD_L5,2021.2.3,Linux armv7l,59.84798612,,,,,,,,,,0.8904,1,,,,,,,,,,,,,,,,,,,,,,,0.403779892,-0.255571144,1,0,0,,,,,,,TOWEL,LB,m,y,./images/TOWELLB.png,,,,,,,,,,,,,,,,,,,,,0,0.403779892,-0.255571144,1,0,0,0.8904,button_right_test,0,17,17,1,1
,,,,,,,,,,,,,,,,,610f188b8ad0a93f6d508cad,27,2022-02-12_13h27.02.791,lexical_decision_task_DD_L5,2021.2.3,Linux armv7l,59.84798612,,,,,,,,,,1.1993,0,,,,,,,,,,,,,,,,,,,,,,,0.493893891,-0.37687843,1,0,0,,,,,,,MAGGOT,HB,z,y,./images/MAGGOTHB.png,,,,,,,,,,,,,,,,,,,,,0,0.493893891,-0.37687843,1,0,0,1.1993,button_right_test,0,18,18,117,1
,,,,,,,,,,,,,,,,,610f188b8ad0a93f6d508cad,27,2022-02-12_13h27.02.791,lexical_decision_task_DD_L5,2021.2.3,Linux armv7l,59.84798612,,,,,,,,,,2.2827,0,,,,,,,,,,,,,,,,,,,,,,,0.403779892,-0.314491769,1,0,0,,,,,,,JUNGLE,C,z,y,./images/JUNGLE.png,,,,,,,,,,,,,,,,,,,,,0,0.403779892,-0.314491769,1,0,0,2.2827,button_right_test,0,19,19,167,1
,,,,,,,,,,,,,,,,,610f188b8ad0a93f6d508cad,27,2022-02-12_13h27.02.791,lexical_decision_task_DD_L5,2021.2.3,Linux armv7l,59.84798612,,,,,,,,,,0.9709,1,,,,,,,,,,,,,,,,,,,,,,,0.431507316,-0.369946618,1,0,0,,,,,,,FLESH,HB,m,y,./images/FLESHHB.png,,,,,,,,,,,,,,,,,,,,,0,0.431507316,-0.369946618,1,0,0,0.9709,button_right_test,0,20,20,24,1
,,,,,,,,,,,,,,,,,610f188b8ad0a93f6d508cad,27,2022-02-12_13h27.02.791,lexical_decision_task_DD_L5,2021.2.3,Linux armv7l,59.84798612,,,,,,,,,,0.8613,1,,,,,,,,,,,,,,,,,,,,,,,0.50082579,-0.317957719,1,0,0,,,,,,,CHERRY,HB,m,y,./images/CHERRYHB.png,,,,,,,,,,,,,,,,,,,,,0,0.50082579,-0.317957719,1,0,0,0.8613,button_right_test,0,21,21,54,1
,,,,,,,,,,,,,,,,,610f188b8ad0a93f6d508cad,27,2022-02-12_13h27.02.791,lexical_decision_task_DD_L5,2021.2.3,Linux armv7l,59.84798612,,,,,,,,,,0.992,1,,,,,,,,,,,,,,,,,,,,,,,0.33446159,-0.317957719,1,0,0,,,,,,,STOOL,LB,m,y,./images/STOOLLB.png,,,,,,,,,,,,,,,,,,,,,0,0.33446159,-0.317957719,1,0,0,0.992,button_right_test,0,22,22,43,1
,,,,,,,,,,,,,,,,,610f188b8ad0a93f6d508cad,27,2022-02-12_13h27.02.791,lexical_decision_task_DD_L5,2021.2.3,Linux armv7l,59.84798612,,,,,,,,,,1.1756,1,,,,,,,,,,,,,,,,,,,,,,,-0.372586691,-0.317957719,1,0,0,,,,,,,GRAIN,HB,z,y,./images/GRAINHB.png,,,,,,,,,,,,,,,,,,,,,0,-0.372586691,-0.317957719,1,0,0,1.1756,button_left_test,0,23,23,159,1
,,,,,,,,,,,,,,,,,610f188b8ad0a93f6d508cad,27,2022-02-12_13h27.02.791,lexical_decision_task_DD_L5,2021.2.3,Linux armv7l,59.84798612,,,,,,,,,,0.7595,1,,,,,,,,,,,,,,,,,,,,,,,0.462700603,-0.272900719,1,0,0,,,,,,,BANANA,LB,m,y,./images/BANANALB.png,,,,,,,,,,,,,,,,,,,,,0,0.462700603,-0.272900719,1,0,0,0.7595,button_right_test,0,24,24,70,1
,,,,,,,,,,,,,,,,,610f188b8ad0a93f6d508cad,27,2022-02-12_13h27.02.791,lexical_decision_task_DD_L5,2021.2.3,Linux armv7l,59.84798612,,,,,,,,,,1.1156,1,,,,,,,,,,,,,,,,,,,,,,,0.379518504,-0.342219193,1,0,0,,,,,,,CHAIN,HB,m,y,./images/CHAINHB.png,,,,,,,,,,,,,,,,,,,,,0,0.379518504,-0.342219193,1,0,0,1.1156,button_right_test,0,25,25,42,1
,,,,,,,,,,,,,,,,,610f188b8ad0a93f6d508cad,27,2022-02-12_13h27.02.791,lexical_decision_task_DD_L5,2021.2.3,Linux armv7l,59.84798612,,,,,,,,,,0.9906,1,,,,,,,,,,,,,,,,,,,,,,,0.403779892,-0.314491769,1,0,0,,,,,,,SPINE,C,m,y,./images/SPINE.png,,,,,,,,,,,,,,,,,,,,,0,0.403779892,-0.314491769,1,0,0,0.9906,button_right_test,0,26,26,65,1
,,,,,,,,,,,,,,,,,610f188b8ad0a93f6d508cad,27,2022-02-12_13h27.02.791,lexical_decision_task_DD_L5,2021.2.3,Linux armv7l,59.84798612,,,,,,,,,,0.8513,1,,,,,,,,,,,,,,,,,,,,,,,-0.324063828,-0.328355481,1,0,0,,,,,,,PEARL,LB,z,y,./images/PEARLLB.png,,,,,,,,,,,,,,,,,,,,,0,-0.324063828,-0.328355481,1,0,0,0.8513,button_left_test,0,27,27,130,1
,,,,,,,,,,,,,,,,,610f188b8ad0a93f6d508cad,27,2022-02-12_13h27.02.791,lexical_decision_task_DD_L5,2021.2.3,Linux armv7l,59.84798612,,,,,,,,,,0.8199,1,,,,,,,,,,,,,,,,,,,,,,,0.421109553,-0.331821431,1,0,0,,,,,,,RAZOR,LB,m,y,./images/RAZORLB.png,,,,,,,,,,,,,,,,,,,,,0,0.421109553,-0.331821431,1,0,0,0.8199,button_right_test,0,28,28,34,1
,,,,,,,,,,,,,,,,,610f188b8ad0a93f6d508cad,27,2022-02-12_13h27.02.791,lexical_decision_task_DD_L5,2021.2.3,Linux armv7l,59.84798612,,,,,,,,,,1.1129,0,,,,,,,,,,,,,,,,,,,,,,,-0.317131929,-0.307559956,1,0,0,,,,,,,MEDAL,C,m,y,./images/MEDAL.png,,,,,,,,,,,,,,,,,,,,,0,-0.317131929,-0.307559956,1,0,0,1.1129,button_left_test,0,29,29,11,1
,,,,,,,,,,,,,,,,,610f188b8ad0a93f6d508cad,27,2022-02-12_13h27.02.791,lexical_decision_task_DD_L5,2021.2.3,Linux armv7l,59.84798612,,,,,,,,,,0.9636,1,,,,,,,,,,,,,,,,,,,,,,,0.428041453,-0.366480668,1,0,0,,,,,,,CRATER,HB,m,y,./images/CRATERHB.png,,,,,,,,,,,,,,,,,,,,,0,0.428041453,-0.366480668,1,0,0,0.9636,button_right_test,0,30,30,3,1
,,,,,,,,,,,,,,,,,610f188b8ad0a93f6d508cad,27,2022-02-12_13h27.02.791,lexical_decision_task_DD_L5,2021.2.3,Linux armv7l,59.84798612,,,,,,,,,,0.8744,1,,,,,,,,,,,,,,,,,,,,,,,0.424575417,-0.356082905,1,0,0,,,,,,,SAUCE,HB,m,y,./images/SAUCEHB.png,,,,,,,,,,,,,,,,,,,,,0,0.424575417,-0.356082905,1,0,0,0.8744,button_right_test,0,31,31,51,1
,,,,,,,,,,,,,,,,,610f188b8ad0a93f6d508cad,27,2022-02-12_13h27.02.791,lexical_decision_task_DD_L5,2021.2.3,Linux armv7l,59.84798612,,,,,,,,,,0.9937,1,,,,,,,,,,,,,,,,,,,,,,,0.355257115,-0.297162194,1,0,0,,,,,,,STAIN,HB,m,y,./images/STAINHB.png,,,,,,,,,,,,,,,,,,,,,0,0.355257115,-0.297162194,1,0,0,0.9937,button_right_test,0,32,32,6,1
,,,,,,,,,,,,,,,,,610f188b8ad0a93f6d508cad,27,2022-02-12_13h27.02.791,lexical_decision_task_DD_L5,2021.2.3,Linux armv7l,59.84798612,,,,,,,,,,2.3126,1,,,,,,,,,,,,,,,,,,,,,,,0.448836978,-0.352616956,1,0,0,,,,,,,BAKER,HB,m,y,./images/BAKERHB.png,,,,,,,,,,,,,,,,,,,,,0,0.448836978,-0.352616956,1,0,0,2.3126,button_right_test,0,33,33,63,1
,,,,,,,,,,,,,,,,,610f188b8ad0a93f6d508cad,27,2022-02-12_13h27.02.791,lexical_decision_task_DD_L5,2021.2.3,Linux armv7l,59.84798612,,,,,,,,,,1.0415,1,,,,,,,,,,,,,,,,,,,,,,,-0.320597878,-0.283298482,1,0,0,,,,,,,PIMPLE,C,z,y,./images/PIMPLE.png,,,,,,,,,,,,,,,,,,,,,0,-0.320597878,-0.283298482,1,0,0,1.0415,button_left_test,0,34,34,155,1
,,,,,,,,,,,,,,,,,610f188b8ad0a93f6d508cad,27,2022-02-12_13h27.02.791,lexical_decision_task_DD_L5,2021.2.3,Linux armv7l,59.84798612,,,,,,,,,,1.5581,1,,,,,,,,,,,,,,,,,,,,,,,-0.320597878,-0.314491769,1,0,0,,,,,,,LIZARD,C,z,y,./images/LIZARD.png,,,,,,,,,,,,,,,,,,,,,0,-0.320597878,-0.314491769,1,0,0,1.5581,button_left_test,0,35,35,128,1
,,,,,,,,,,,,,,,,,610f188b8ad0a93f6d508cad,27,2022-02-12_13h27.02.791,lexical_decision_task_DD_L5,2021.2.3,Linux armv7l,59.84798612,,,,,,,,,,0.9815,1,,,,,,,,,,,,,,,,,,,,,,,-0.351791166,-0.321423582,1,0,0,,,,,,,MOSQUE,LB,z,y,./images/MOSQUELB.png,,,,,,,,,,,,,,,,,,,,,0,-0.351791166,-0.321423582,1,0,0,0.9815,button_left_test,0,36,36,127,1
,,,,,,,,,,,,,,,,,610f188b8ad0a93f6d508cad,27,2022-02-12_13h27.02.791,lexical_decision_task_DD_L5,2021.2.3,Linux armv7l,59.84798612,,,,,,,,,,0.8804,1,,,,,,,,,,,,,,,,,,,,,,,0.424575417,-0.349151093,1,0,0,,,,,,,STOVE,C,m,y,./images/STOVE.png,,,,,,,,,,,,,,,,,,,,,0,0.424575417,-0.349151093,1,0,0,0.8804,button_right_test,0,37,37,2,1
,,,,,,,,,,,,,,,,,610f188b8ad0a93f6d508cad,27,2022-02-12_13h27.02.791,lexical_decision_task_DD_L5,2021.2.3,Linux armv7l,59.84798612,,,,,,,,,,0.6951,1,,,,,,,,,,,,,,,,,,,,,,,0.410711791,-0.33875333,1,0,0,,,,,,,GLOVE,LB,m,y,./images/GLOVELB.png,,,,,,,,,,,,,,,,,,,,,0,0.410711791,-0.33875333,1,0,0,0.6951,button_right_test,0,38,38,73,1
,,,,,,,,,,,,,,,,,610f188b8ad0a93f6d508cad,27,2022-02-12_13h27.02.791,lexical_decision_task_DD_L5,2021.2.3,Linux armv7l,59.84798612,,,,,,,,,,1.1468,0,,,,,,,,,,,,,,,,,,,,,,,0.396848165,-0.314491769,1,0,0,,,,,,,STRING,C,z,y,./images/STRING.png,,,,,,,,,,,,,,,,,,,,,0,0.396848165,-0.314491769,1,0,0,1.1468,button_right_test,0,39,39,125,1
,,,,,,,,,,,,,,,,,610f188b8ad0a93f6d508cad,27,2022-02-12_13h27.02.791,lexical_decision_task_DD_L5,2021.2.3,Linux armv7l,59.84798612,,,,,,,,,,0.951,1,,,,,,,,,,,,,,,,,,,,,,,-0.396848165,-0.269434769,1,0,0,,,,,,,URINE,LB,z,y,./images/URINELB.png,,,,,,,,,,,,,,,,,,,,,0,-0.396848165,-0.269434769,1,0,0,0.951,button_left_test,0,40,40,154,1
,,,,,,,,,,,,,,,,,610f188b8ad0a93f6d508cad,27,2022-02-12_13h27.02.791,lexical_decision_task_DD_L5,2021.2.3,Linux armv7l,59.84798612,,,,,,,,,,1.4136,1,,,,,,,,,,,,,,,,,,,,,,,-0.053721744,-0.373412481,1,0,0,,,,,,,BLOKE,HB,m,y,./images/BLOKEHB.png,break_done_button,,,,,,,,,,,,,,,,,,,,0,0.431507316,-0.331821431,1,0,0,1.4136,button_right_test,0,41,41,12,1
,,,,,,,,,,,,,,,,,610f188b8ad0a93f6d508cad,27,2022-02-12_13h27.02.791,lexical_decision_task_DD_L5,2021.2.3,Linux armv7l,59.84798612,,,,,,,,,,1.8146,1,,,,,,,,,,,,,,,,,,,,,,,-0.372586691,-0.297162194,1,0,0,,,,,,,PACKET,C,z,y,./images/PACKET.png,,,,,,,,,,,,,,,,,,,,,0,-0.372586691,-0.297162194,1,0,0,1.8146,button_left_test,0,42,42,140,1
,,,,,,,,,,,,,,,,,610f188b8ad0a93f6d508cad,27,2022-02-12_13h27.02.791,lexical_decision_task_DD_L5,2021.2.3,Linux armv7l,59.84798612,,,,,,,,,,0.8271,1,,,,,,,,,,,,,,,,,,,,,,,0.483496128,-0.307559956,1,0,0,,,,,,,POSTER,C,m,y,./images/POSTER.png,,,,,,,,,,,,,,,,,,,,,0,0.483496128,-0.307559956,1,0,0,0.8271,button_right_test,0,43,43,53,1
,,,,,,,,,,,,,,,,,610f188b8ad0a93f6d508cad,27,2022-02-12_13h27.02.791,lexical_decision_task_DD_L5,2021.2.3,Linux armv7l,59.84798612,,,,,,,,,,0.8757,1,,,,,,,,,,,,,,,,,,,,,,,-0.369120741,-0.33528738,1,0,0,,,,,,,ONION,HB,z,y,./images/ONIONHB.png,,,,,,,,,,,,,,,,,,,,,0,-0.369120741,-0.33528738,1,0,0,0.8757,button_left_test,0,44,44,135,1
,,,,,,,,,,,,,,,,,610f188b8ad0a93f6d508cad,27,2022-02-12_13h27.02.791,lexical_decision_task_DD_L5,2021.2.3,Linux armv7l,59.84798612,,,,,,,,,,0.9608,1,,,,,,,,,,,,,,,,,,,,,,,-0.393382216,-0.279832532,1,0,0,,,,,,,WRIST,LB,z,y,./images/WRISTLB.png,,,,,,,,,,,,,,,,,,,,,0,-0.393382216,-0.279832532,1,0,0,0.9608,button_left_test,0,45,45,109,1
,,,,,,,,,,,,,,,,,610f188b8ad0a93f6d508cad,27,2022-02-12_13h27.02.791,lexical_decision_task_DD_L5,2021.2.3,Linux armv7l,59.84798612,,,,,,,,,,0.961,1,,,,,,,,,,,,,,,,,,,,,,,0.452302841,-0.314491769,1,0,0,,,,,,,SLOPE,HB,m,y,./images/SLOPEHB.png,,,,,,,,,,,,,,,,,,,,,0,0.452302841,-0.314491769,1,0,0,0.961,button_right_test,0,46,46,30,1
,,,,,,,,,,,,,,,,,610f188b8ad0a93f6d508cad,27,2022-02-12_13h27.02.791,lexical_decision_task_DD_L5,2021.2.3,Linux armv7l,59.84798612,,,,,,,,,,0.9611,1,,,,,,,,,,,,,,,,,,,,,,,-0.362188928,-0.248639245,1,0,0,,,,,,,POODLE,HB,z,y,./images/POODLEHB.png,,,,,,,,,,,,,,,,,,,,,0,-0.362188928,-0.248639245,1,0,0,0.9611,button_left_test,0,47,47,165,1
,,,,,,,,,,,,,,,,,610f188b8ad0a93f6d508cad,27,2022-02-12_13h27.02.791,lexical_decision_task_DD_L5,2021.2.3,Linux armv7l,59.84798612,,,,,,,,,,0.7786,0,,,,,,,,,,,,,,,,,,,,,,,0.428041453,-0.265968906,1,0,0,,,,,,,MOTOR,LB,z,y,./images/MOTORLB.png,,,,,,,,,,,,,,,,,,,,,0,0.428041453,-0.265968906,1,0,0,0.7786,button_right_test,0,48,48,97,1
,,,,,,,,,,,,,,,,,610f188b8ad0a93f6d508cad,27,2022-02-12_13h27.02.791,lexical_decision_task_DD_L5,2021.2.3,Linux armv7l,59.84798612,,,,,,,,,,0.8417,1,,,,,,,,,,,,,,,,,,,,,,,0.421109553,-0.279832532,1,0,0,,,,,,,WALNUT,HB,m,y,./images/WALNUTHB.png,,,,,,,,,,,,,,,,,,,,,0,0.421109553,-0.279832532,1,0,0,0.8417,button_right_test,0,49,49,0,1
,,,,,,,,,,,,,,,,,610f188b8ad0a93f6d508cad,27,2022-02-12_13h27.02.791,lexical_decision_task_DD_L5,2021.2.3,Linux armv7l,59.84798612,,,,,,,,,,0.8586,1,,,,,,,,,,,,,,,,,,,,,,,0.34139349,-0.328355481,1,0,0,,,,,,,BROOM,HB,m,y,./images/BROOMHB.png,,,,,,,,,,,,,,,,,,,,,0,0.34139349,-0.328355481,1,0,0,0.8586,button_right_test,0,50,50,78,1
,,,,,,,,,,,,,,,,,610f188b8ad0a93f6d508cad,27,2022-02-12_13h27.02.791,lexical_decision_task_DD_L5,2021.2.3,Linux armv7l,59.84798612,,,,,,,,,,0.8412,1,,,,,,,,,,,,,,,,,,,,,,,0.365654878,-0.397673955,1,0,0,,,,,,,BUNNY,LB,m,y,./images/BUNNYLB.png,,,,,,,,,,,,,,,,,,,,,0,0.365654878,-0.397673955,1,0,0,0.8412,button_right_test,0,51,51,13,1
,,,,,,,,,,,,,,,,,610f188b8ad0a93f6d508cad,27,2022-02-12_13h27.02.791,lexical_decision_task_DD_L5,2021.2.3,Linux armv7l,59.84798612,,,,,,,,,,0.9261,1,,,,,,,,,,,,,,,,,,,,,,,-0.372586691,-0.304094007,1,0,0,,,,,,,GREASE,HB,z,y,./images/GREASEHB.png,,,,,,,,,,,,,,,,,,,,,0,-0.372586691,-0.304094007,1,0,0,0.9261,button_left_test,0,52,52,99,1
,,,,,,,,,,,,,,,,,610f188b8ad0a93f6d508cad,27,2022-02-12_13h27.02.791,lexical_decision_task_DD_L5,2021.2.3,Linux armv7l,59.84798612,,,,,,,,,,0.9091,0,,,,,,,,,,,,,,,,,,,,,,,0.330995727,-0.356082905,1,0,0,,,,,,,BERRY,C,z,y,./images/BERRY.png,,,,,,,,,,,,,,,,,,,,,0,0.330995727,-0.356082905,1,0,0,0.9091,button_right_test,0,53,53,131,1
,,,,,,,,,,,,,,,,,610f188b8ad0a93f6d508cad,27,2022-02-12_13h27.02.791,lexical_decision_task_DD_L5,2021.2.3,Linux armv7l,59.84798612,,,,,,,,,,1.0639,1,,,,,,,,,,,,,,,,,,,,,,,0.407245928,-0.321423582,1,0,0,,,,,,,VALLEY,C,m,y,./images/VALLEY.png,,,,,,,,,,,,,,,,,,,,,0,0.407245928,-0.321423582,1,0,0,1.0639,button_right_test,0,54,54,68,1
,,,,,,,,,,,,,,,,,610f188b8ad0a93f6d508cad,27,2022-02-12_13h27.02.791,lexical_decision_task_DD_L5,2021.2.3,Linux armv7l,59.84798612,,,,,,,,,,1.1466,0,,,,,,,,,,,,,,,,,,,,,,,0.441905078,-0.262502957,1,0,0,,,,,,,MIRROR,HB,z,y,./images/MIRRORHB.png,,,,,,,,,,,,,,,,,,,,,0,0.441905078,-0.262502957,1,0,0,1.1466,button_right_test,0,55,55,147,1
,,,,,,,,,,,,,,,,,610f188b8ad0a93f6d508cad,27,2022-02-12_13h27.02.791,lexical_decision_task_DD_L5,2021.2.3,Linux armv7l,59.84798612,,,,,,,,,,1.6869,1,,,,,,,,,,,,,,,,,,,,,,,-0.327529691,-0.262502957,1,0,0,,,,,,,SWEAT,HB,z,y,./images/SWEATHB.png,,,,,,,,,,,,,,,,,,,,,0,-0.327529691,-0.262502957,1,0,0,1.6869,button_left_test,0,56,56,150,1
,,,,,,,,,,,,,,,,,610f188b8ad0a93f6d508cad,27,2022-02-12_13h27.02.791,lexical_decision_task_DD_L5,2021.2.3,Linux armv7l,59.84798612,,,,,,,,,,0.925,1,,,,,,,,,,,,,,,,,,,,,,,0.414177654,-0.311025819,1,0,0,,,,,,,BAMBOO,C,m,y,./images/BAMBOO.png,,,,,,,,,,,,,,,,,,,,,0,0.414177654,-0.311025819,1,0,0,0.925,button_right_test,0,57,57,5,1
,,,,,,,,,,,,,,,,,610f188b8ad0a93f6d508cad,27,2022-02-12_13h27.02.791,lexical_decision_task_DD_L5,2021.2.3,Linux armv7l,59.84798612,,,,,,,,,,1.4117,0,,,,,,,,,,,,,,,,,,,,,,,0.469632503,-0.331821431,1,0,0,,,,,,,MELON,LB,z,y,./images/MELONLB.png,,,,,,,,,,,,,,,,,,,,,0,0.469632503,-0.331821431,1,0,0,1.4117,button_right_test,0,58,58,106,1
,,,,,,,,,,,,,,,,,610f188b8ad0a93f6d508cad,27,2022-02-12_13h27.02.791,lexical_decision_task_DD_L5,2021.2.3,Linux armv7l,59.84798612,,,,,,,,,,1.1517,0,,,,,,,,,,,,,,,,,,,,,,,0.33446159,-0.290230294,1,0,0,,,,,,,SHELF,HB,z,y,./images/SHELFHB.png,,,,,,,,,,,,,,,,,,,,,0,0.33446159,-0.290230294,1,0,0,1.1517,button_right_test,0,59,59,123,1
,,,,,,,,,,,,,,,,,610f188b8ad0a93f6d508cad,27,2022-02-12_13h27.02.791,lexical_decision_task_DD_L5,2021.2.3,Linux armv7l,59.84798612,,,,,,,,,,1.0318,1,,,,,,,,,,,,,,,,,,,,,,,0.421109553,-0.304094007,1,0,0,,,,,,,WHEEL,C,m,y,./images/WHEEL.png,,,,,,,,,,,,,,,,,,,,,0,0.421109553,-0.304094007,1,0,0,1.0318,button_right_test,0,60,60,77,1
,,,,,,,,,,,,,,,,,610f188b8ad0a93f6d508cad,27,2022-02-12_13h27.02.791,lexical_decision_task_DD_L5,2021.2.3,Linux armv7l,59.84798612,,,,,,,,,,2.6502,1,,,,,,,,,,,,,,,,,,,,,,,-0.296336404,-0.241707432,1,0,0,,,,,,,JAGUAR,HB,z,y,./images/JAGUARHB.png,,,,,,,,,,,,,,,,,,,,,0,-0.296336404,-0.241707432,1,0,0,2.6502,button_left_test,0,61,61,102,1
,,,,,,,,,,,,,,,,,610f188b8ad0a93f6d508cad,27,2022-02-12_13h27.02.791,lexical_decision_task_DD_L5,2021.2.3,Linux armv7l,59.84798612,,,,,,,,,,1.8792,0,,,,,,,,,,,,,,,,,,,,,,,0.448836978,-0.248639245,1,0,0,,,,,,,ATTIC,HB,z,y,./images/ATTICHB.png,,,,,,,,,,,,,,,,,,,,,0,0.448836978,-0.248639245,1,0,0,1.8792,button_right_test,0,62,62,111,1
,,,,,,,,,,,,,,,,,610f188b8ad0a93f6d508cad,27,2022-02-12_13h27.02.791,lexical_decision_task_DD_L5,2021.2.3,Linux armv7l,59.84798612,,,,,,,,,,1.4335,0,,,,,,,,,,,,,,,,,,,,,,,0.462700603,-0.324889618,1,0,0,,,,,,,CRUST,LB,z,y,./images/CRUSTLB.png,,,,,,,,,,,,,,,,,,,,,0,0.462700603,-0.324889618,1,0,0,1.4335,button_right_test,0,63,63,163,1
,,,,,,,,,,,,,,,,,610f188b8ad0a93f6d508cad,27,2022-02-12_13h27.02.791,lexical_decision_task_DD_L5,2021.2.3,Linux armv7l,59.84798612,,,,,,,,,,1.2467,0,,,,,,,,,,,,,,,,,,,,,,,0.424575417,-0.369946618,1,0,0,,,,,,,SAILOR,LB,z,y,./images/SAILORLB.png,,,,,,,,,,,,,,,,,,,,,0,0.424575417,-0.369946618,1,0,0,1.2467,button_right_test,0,64,64,151,1
,,,,,,,,,,,,,,,,,610f188b8ad0a93f6d508cad,27,2022-02-12_13h27.02.791,lexical_decision_task_DD_L5,2021.2.3,Linux armv7l,59.84798612,,,,,,,,,,1.2264,0,,,,,,,,,,,,,,,,,,,,,,,-0.303268303,-0.265968906,1,0,0,,,,,,,COLLAR,HB,m,y,./images/COLLARHB.png,,,,,,,,,,,,,,,,,,,,,0,-0.303268303,-0.265968906,1,0,0,1.2264,button_left_test,0,65,65,15,1
,,,,,,,,,,,,,,,,,610f188b8ad0a93f6d508cad,27,2022-02-12_13h27.02.791,lexical_decision_task_DD_L5,2021.2.3,Linux armv7l,59.84798612,,,,,,,,,,2.1495,0,,,,,,,,,,,,,,,,,,,,,,,-0.261677253,-0.286764431,1,0,0,,,,,,,MAMMAL,C,m,y,./images/MAMMAL.png,,,,,,,,,,,,,,,,,,,,,0,-0.261677253,-0.286764431,1,0,0,2.1495,button_left_test,0,66,66,62,1
,,,,,,,,,,,,,,,,,610f188b8ad0a93f6d508cad,27,2022-02-12_13h27.02.791,lexical_decision_task_DD_L5,2021.2.3,Linux armv7l,59.84798612,,,,,,,,,,1.0252,1,,,,,,,,,,,,,,,,,,,,,,,0.462700603,-0.317957719,1,0,0,,,,,,,FLASK,HB,m,y,./images/FLASKHB.png,,,,,,,,,,,,,,,,,,,,,0,0.462700603,-0.317957719,1,0,0,1.0252,button_right_test,0,67,67,72,1
,,,,,,,,,,,,,,,,,610f188b8ad0a93f6d508cad,27,2022-02-12_13h27.02.791,lexical_decision_task_DD_L5,2021.2.3,Linux armv7l,59.84798612,,,,,,,,,,1.8196,1,,,,,,,,,,,,,,,,,,,,,,,0.462700603,-0.272900719,1,0,0,,,,,,,FENCE,C,m,y,./images/FENCE.png,,,,,,,,,,,,,,,,,,,,,0,0.462700603,-0.272900719,1,0,0,1.8196,button_right_test,0,68,68,14,1
,,,,,,,,,,,,,,,,,610f188b8ad0a93f6d508cad,27,2022-02-12_13h27.02.791,lexical_decision_task_DD_L5,2021.2.3,Linux armv7l,59.84798612,,,,,,,,,,1.0681,0,,,,,,,,,,,,,,,,,,,,,,,-0.396848165,-0.293696244,1,0,0,,,,,,,JUMPER,C,m,y,./images/JUMPER.png,,,,,,,,,,,,,,,,,,,,,0,-0.396848165,-0.293696244,1,0,0,1.0681,button_left_test,0,69,69,74,1
,,,,,,,,,,,,,,,,,610f188b8ad0a93f6d508cad,27,2022-02-12_13h27.02.791,lexical_decision_task_DD_L5,2021.2.3,Linux armv7l,59.84798612,,,,,,,,,,1.3474,0,,,,,,,,,,,,,,,,,,,,,,,-0.310200116,-0.286764431,1,0,0,,,,,,,BUTTER,HB,m,y,./images/BUTTERHB.png,,,,,,,,,,,,,,,,,,,,,0,-0.310200116,-0.286764431,1,0,0,1.3474,button_left_test,0,70,70,27,1
,,,,,,,,,,,,,,,,,610f188b8ad0a93f6d508cad,27,2022-02-12_13h27.02.791,lexical_decision_task_DD_L5,2021.2.3,Linux armv7l,59.84798612,,,,,,,,,,2.2252,0,,,,,,,,,,,,,,,,,,,,,,,-0.341393403,-0.293696244,1,0,0,,,,,,,CHALK,LB,m,y,./images/CHALKLB.png,,,,,,,,,,,,,,,,,,,,,0,-0.341393403,-0.293696244,1,0,0,2.2252,button_left_test,0,71,71,25,1
,,,,,,,,,,,,,,,,,610f188b8ad0a93f6d508cad,27,2022-02-12_13h27.02.791,lexical_decision_task_DD_L5,2021.2.3,Linux armv7l,59.84798612,,,,,,,,,,1.5804,1,,,,,,,,,,,,,,,,,,,,,,,-0.379518504,-0.314491769,1,0,0,,,,,,,WALRUS,C,z,y,./images/WALRUS.png,,,,,,,,,,,,,,,,,,,,,0,-0.379518504,-0.314491769,1,0,0,1.5804,button_left_test,0,72,72,107,1
,,,,,,,,,,,,,,,,,610f188b8ad0a93f6d508cad,27,2022-02-12_13h27.02.791,lexical_decision_task_DD_L5,2021.2.3,Linux armv7l,59.84798612,,,,,,,,,,1.1443,0,,,,,,,,,,,,,,,,,,,,,,,0.386450403,-0.293696244,1,0,0,,,,,,,LITTER,HB,z,y,./images/LITTERHB.png,,,,,,,,,,,,,,,,,,,,,0,0.386450403,-0.293696244,1,0,0,1.1443,button_right_test,0,73,73,162,1
,,,,,,,,,,,,,,,,,610f188b8ad0a93f6d508cad,27,2022-02-12_13h27.02.791,lexical_decision_task_DD_L5,2021.2.3,Linux armv7l,59.84798612,,,,,,,,,,1.7671,0,,,,,,,,,,,,,,,,,,,,,,,0.362189015,-0.290230294,1,0,0,,,,,,,SHORE,HB,z,y,./images/SHOREHB.png,,,,,,,,,,,,,,,,,,,,,0,0.362189015,-0.290230294,1,0,0,1.7671,button_right_test,0,74,74,96,1
,,,,,,,,,,,,,,,,,610f188b8ad0a93f6d508cad,27,2022-02-12_13h27.02.791,lexical_decision_task_DD_L5,2021.2.3,Linux armv7l,59.84798612,,,,,,,,,,1.4382,1,,,,,,,,,,,,,,,,,,,,,,,-0.275540879,-0.272900719,1,0,0,,,,,,,CRADLE,C,z,y,./images/CRADLE.png,,,,,,,,,,,,,,,,,,,,,0,-0.275540879,-0.272900719,1,0,0,1.4382,button_left_test,0,75,75,104,1
,,,,,,,,,,,,,,,,,610f188b8ad0a93f6d508cad,27,2022-02-12_13h27.02.791,lexical_decision_task_DD_L5,2021.2.3,Linux armv7l,59.84798612,,,,,,,,,,1.1928,0,,,,,,,,,,,,,,,,,,,,,,,-0.327529691,-0.311025819,1,0,0,,,,,,,SHIELD,HB,m,y,./images/SHIELDHB.png,,,,,,,,,,,,,,,,,,,,,0,-0.327529691,-0.311025819,1,0,0,1.1928,button_left_test,0,76,76,48,1
,,,,,,,,,,,,,,,,,610f188b8ad0a93f6d508cad,27,2022-02-12_13h27.02.791,lexical_decision_task_DD_L5,2021.2.3,Linux armv7l,59.84798612,,,,,,,,,,1.2947,1,,,,,,,,,,,,,,,,,,,,,,,0.414177654,-0.283298482,1,0,0,,,,,,,LAGOON,C,m,y,./images/LAGOON.png,,,,,,,,,,,,,,,,,,,,,0,0.414177654,-0.283298482,1,0,0,1.2947,button_right_test,0,77,77,47,1
,,,,,,,,,,,,,,,,,610f188b8ad0a93f6d508cad,27,2022-02-12_13h27.02.791,lexical_decision_task_DD_L5,2021.2.3,Linux armv7l,59.84798612,,,,,,,,,,3.4413,1,,,,,,,,,,,,,,,,,,,,,,,-0.37605264,-0.272900719,1,0,0,,,,,,,LADDER,C,z,y,./images/LADDER.png,,,,,,,,,,,,,,,,,,,,,0,-0.37605264,-0.272900719,1,0,0,3.4413,button_left_test,0,78,78,122,1
,,,,,,,,,,,,,,,,,610f188b8ad0a93f6d508cad,27,2022-02-12_13h27.02.791,lexical_decision_task_DD_L5,2021.2.3,Linux armv7l,59.84798612,,,,,,,,,,1.3867,0,,,,,,,,,,,,,,,,,,,,,,,0.389916266,-0.342219193,1,0,0,,,,,,,MOOSE,HB,z,y,./images/MOOSEHB.png,,,,,,,,,,,,,,,,,,,,,0,0.389916266,-0.342219193,1,0,0,1.3867,button_right_test,0,79,79,141,1
,,,,,,,,,,,,,,,,,610f188b8ad0a93f6d508cad,27,2022-02-12_13h27.02.791,lexical_decision_task_DD_L5,2021.2.3,Linux armv7l,59.84798612,,,,,,,,,,2.0855,1,,,,,,,,,,,,,,,,,,,,,,,-0.393382216,-0.290230294,1,0,0,,,,,,,THROAT,HB,z,y,./images/THROATHB.png,,,,,,,,,,,,,,,,,,,,,0,-0.393382216,-0.290230294,1,0,0,2.0855,button_left_test,0,80,80,120,1
,,,,,,,,,,,,,,,,,610f188b8ad0a93f6d508cad,27,2022-02-12_13h27.02.791,lexical_decision_task_DD_L5,2021.2.3,Linux armv7l,59.84798612,,,,,,,,,,0.9798,1,,,,,,,,,,,,,,,,,,,,,,,0.365654878,-0.314491769,1,0,0,,,,,,,BOILER,HB,m,y,./images/BOILERHB.png,,,,,,,,,,,,,,,,,,,,,0,0.365654878,-0.314491769,1,0,0,0.9798,button_right_test,0,81,81,36,1
,,,,,,,,,,,,,,,,,610f188b8ad0a93f6d508cad,27,2022-02-12_13h27.02.791,lexical_decision_task_DD_L5,2021.2.3,Linux armv7l,59.84798612,,,,,,,,,,0.948,1,,,,,,,,,,,,,,,,,,,,,,,-0.306734166,-0.324889618,1,0,0,,,,,,,KIDNEY,HB,z,y,./images/KIDNEYHB.png,,,,,,,,,,,,,,,,,,,,,0,-0.306734166,-0.324889618,1,0,0,0.948,button_left_test,0,82,82,105,1
,,,,,,,,,,,,,,,,,610f188b8ad0a93f6d508cad,27,2022-02-12_13h27.02.791,lexical_decision_task_DD_L5,2021.2.3,Linux armv7l,59.84798612,,,,,,,,,,0.9392,1,,,,,,,,,,,,,,,,,,,,,,,0.015596644,-0.369946618,1,0,0,,,,,,,LLAMA,C,m,y,./images/LLAMA.png,break_done_button,,,,,,,,,,,,,,,,,,,,0,0.410711791,-0.276366669,1,0,0,0.9392,button_right_test,0,83,83,35,1
,,,,,,,,,,,,,,,,,610f188b8ad0a93f6d508cad,27,2022-02-12_13h27.02.791,lexical_decision_task_DD_L5,2021.2.3,Linux armv7l,59.84798612,,,,,,,,,,1.2663,1,,,,,,,,,,,,,,,,,,,,,,,0.410711791,-0.331821431,1,0,0,,,,,,,HOCKEY,C,m,y,./images/HOCKEY.png,,,,,,,,,,,,,,,,,,,,,0,0.410711791,-0.331821431,1,0,0,1.2663,button_right_test,0,84,84,32,1
,,,,,,,,,,,,,,,,,610f188b8ad0a93f6d508cad,27,2022-02-12_13h27.02.791,lexical_decision_task_DD_L5,2021.2.3,Linux armv7l,59.84798612,,,,,,,,,,1.143,1,,,,,,,,,,,,,,,,,,,,,,,-0.330995641,-0.22784372,1,0,0,,,,,,,WEASEL,C,z,y,./images/WEASEL.png,,,,,,,,,,,,,,,,,,,,,0,-0.330995641,-0.22784372,1,0,0,1.143,button_left_test,0,85,85,164,1
,,,,,,,,,,,,,,,,,610f188b8ad0a93f6d508cad,27,2022-02-12_13h27.02.791,lexical_decision_task_DD_L5,2021.2.3,Linux armv7l,59.84798612,,,,,,,,,,0.8489,1,,,,,,,,,,,,,,,,,,,,,,,0.41764369,-0.345685143,1,0,0,,,,,,,DRILL,HB,m,y,./images/DRILLHB.png,,,,,,,,,,,,,,,,,,,,,0,0.41764369,-0.345685143,1,0,0,0.8489,button_right_test,0,86,86,81,1
,,,,,,,,,,,,,,,,,610f188b8ad0a93f6d508cad,27,2022-02-12_13h27.02.791,lexical_decision_task_DD_L5,2021.2.3,Linux armv7l,59.84798612,,,,,,,,,,0.999,1,,,,,,,,,,,,,,,,,,,,,,,-0.393382216,-0.283298482,1,0,0,,,,,,,PENCE,LB,z,y,./images/PENCELB.png,,,,,,,,,,,,,,,,,,,,,0,-0.393382216,-0.283298482,1,0,0,0.999,button_left_test,0,87,87,100,1
,,,,,,,,,,,,,,,,,610f188b8ad0a93f6d508cad,27,2022-02-12_13h27.02.791,lexical_decision_task_DD_L5,2021.2.3,Linux armv7l,59.84798612,,,,,,,,,,1.0119,1,,,,,,,,,,,,,,,,,,,,,,,-0.313666065,-0.265968906,1,0,0,,,,,,,FALCON,LB,z,y,./images/FALCONLB.png,,,,,,,,,,,,,,,,,,,,,0,-0.313666065,-0.265968906,1,0,0,1.0119,button_left_test,0,88,88,112,1
,,,,,,,,,,,,,,,,,610f188b8ad0a93f6d508cad,27,2022-02-12_13h27.02.791,lexical_decision_task_DD_L5,2021.2.3,Linux armv7l,59.84798612,,,,,,,,,,0.9491,1,,,,,,,,,,,,,,,,,,,,,,,0.324063828,-0.314491769,1,0,0,,,,,,,ARTIST,LB,m,y,./images/ARTISTLB.png,,,,,,,,,,,,,,,,,,,,,0,0.324063828,-0.314491769,1,0,0,0.9491,button_right_test,0,89,89,61,1
,,,,,,,,,,,,,,,,,610f188b8ad0a93f6d508cad,27,2022-02-12_13h27.02.791,lexical_decision_task_DD_L5,2021.2.3,Linux armv7l,59.84798612,,,,,,,,,,1.0841,1,,,,,,,,,,,,,,,,,,,,,,,0.473098366,-0.304094007,1,0,0,,,,,,,STATUE,HB,m,y,./images/STATUEHB.png,,,,,,,,,,,,,,,,,,,,,0,0.473098366,-0.304094007,1,0,0,1.0841,button_right_test,0,90,90,66,1
