key_resp.keys,key_resp.rt,instr_done_touch.x,instr_done_touch.y,instr_done_touch.leftButton,instr_done_touch.midButton,instr_done_touch.rightButton,instruction_pages.thisRepN,instruction_pages.thisTrialN,instruction_pages.thisN,instruction_pages.thisIndex,instruction_pages.ran,pageN,phase,instruct_text,has_image,instruct_image,participant,age,date,expName,psychopyVersion,OS,frameRate,response.keys,response.corr,response.rt,touch_resp.x,touch_resp.y,touch_resp.leftButton,touch_resp.midButton,touch_resp.rightButton,touch_resp.time,touch_resp.clicked_name,rt,corr,practrials.thisRepN,practrials.thisTrialN,practrials.thisN,practrials.thisIndex,practrials.ran,TrialID,Target,corrAns,end_of_practice_trials_pages.thisRepN,end_of_practice_trials_pages.thisTrialN,end_of_practice_trials_pages.thisN,end_of_practice_trials_pages.thisIndex,end_of_practice_trials_pages.ran,key_resp_2.keys,key_resp_2.corr,key_resp_2.rt,targ_click.x,targ_click.y,targ_click.leftButton,targ_click.midButton,targ_click.rightButton,targ_click.time,targ_click.clicked_name,break_done_touch.x,break_done_touch.y,break_done_touch.leftButton,break_done_touch.midButton,break_done_touch.rightButton,break_done_keyboard.keys,maintrials.thisRepN,maintrials.thisTrialN,maintrials.thisN,maintrials.thisIndex,maintrials.ran,string,blur,study,lex,stim_path,break_done_keyboard.rt,mouse_2.x,mouse_2.y,mouse_2.leftButton,mouse_2.midButton,mouse_2.rightButton,mouse_2.clicked_name,slider.response,slider.rt,trials.thisRepN,trials.thisTrialN,trials.thisN,trials.thisIndex,trials.ran,test_instructions.thisRepN,test_instructions.thisTrialN,test_instructions.thisN,test_instructions.thisIndex,test_instructions.ran,instr_done_touch.clicked_name,key_resp_3.keys,key_resp_3.corr,key_resp_3.rt,test_click.x,test_click.y,test_click.leftButton,test_click.midButton,test_click.rightButton,test_click.time,test_click.clicked_name,test_phase.thisRepN,test_phase.thisTrialN,test_phase.thisN,test_phase.thisIndex,test_phase.ran
space,22.6946,0.093518519,-0.42037037,0,0,0,0,0,0,0,1,1,instructions,"INSTRUCTIONS
At the start of each trial, look at the plus sign  (+) in the center of the screen.  This tells you that a trial is about to begin and where to look. Second, the plus sign will disappear and a string of letters will appear. Your task is to determine if the string of letters is a word or not. If the item is a word press the M key (on keyboard)  or touch the word button (phone/tablet).  If the item is not a word,  press the  Z key (on keyboard)  or touch the nonword button (on phone/tablet). 
Press the space bar or touch  continue.",0,,611082ee9fd766aaaf0126db,24,2022-02-12_16h58.19.802,lexical_decision_task_DD_L5,2021.2.3,Win32,60.0240096,,,,,,,,,,,,,,,,,,,,,,,,,,,,,,,,,,,,,,,,,,,,,,,,,,,,,,,,,,,,,,,,,,,,,,,,,,,,,,,,,,,,,,
space,6.5037,0.093518519,-0.422222222,0,0,0,0,1,1,1,1,2,instructions,"If your device has a keyboard, press the 'Z' key for nonwords and the 'M' key for words.





Press the space bar or touch the button below to continue.",0,keyboard-example.gif,611082ee9fd766aaaf0126db,24,2022-02-12_16h58.19.802,lexical_decision_task_DD_L5,2021.2.3,Win32,60.0240096,,,,,,,,,,,,,,,,,,,,,,,,,,,,,,,,,,,,,,,,,,,,,,,,,,,,,,,,,,,,,,,,,,,,,,,,,,,,,,,,,,,,,,
space,4.6538,0.093518519,-0.422222222,0,0,0,0,2,2,2,1,3,instructions,"If you are using a touchscreen only device, use the buttons on the screen. Do not use the mouse.





Press the space bar or touch the button below to continue.",0,touchscreen-example.gif,611082ee9fd766aaaf0126db,24,2022-02-12_16h58.19.802,lexical_decision_task_DD_L5,2021.2.3,Win32,60.0240096,,,,,,,,,,,,,,,,,,,,,,,,,,,,,,,,,,,,,,,,,,,,,,,,,,,,,,,,,,,,,,,,,,,,,,,,,,,,,,,,,,,,,,
space,5.9057,0.087962963,-0.255555556,0,0,0,0,3,3,3,1,4,instructions,"It is very important that you respond as quickly and accurately as possible, as each letter string will only be on the screen for two seconds. If you do not respond within this time, the message 'Too slow!' will be displayed and the experiment will progress to the next letter string. The first 20 trials will be practice trials and you will receive feedback on your answers. 

Press the space bar or touch the button below to start the practice trials.",0,,611082ee9fd766aaaf0126db,24,2022-02-12_16h58.19.802,lexical_decision_task_DD_L5,2021.2.3,Win32,60.0240096,,,,,,,,,,,,,,,,,,,,,,,,,,,,,,,,,,,,,,,,,,,,,,,,,,,,,,,,,,,,,,,,,,,,,,,,,,,,,,,,,,,,,,
,,,,,,,,,,,,,,,,,611082ee9fd766aaaf0126db,24,2022-02-12_16h58.19.802,lexical_decision_task_DD_L5,2021.2.3,Win32,60.0240096,z,1,1.23,,,,,,,,1.23,1,0,0,0,9,1,1001,FARINY,z,,,,,,,,,,,,,,,,,,,,,,,,,,,,,,,,,,,,,,,,,,,,,,,,,,,,,,,,,,,,,,,,,,
,,,,,,,,,,,,,,,,,611082ee9fd766aaaf0126db,24,2022-02-12_16h58.19.802,lexical_decision_task_DD_L5,2021.2.3,Win32,60.0240096,z,1,0.8273,,,,,,,,0.8273,1,0,1,1,13,1,1001,ROUPET,z,,,,,,,,,,,,,,,,,,,,,,,,,,,,,,,,,,,,,,,,,,,,,,,,,,,,,,,,,,,,,,,,,,
,,,,,,,,,,,,,,,,,611082ee9fd766aaaf0126db,24,2022-02-12_16h58.19.802,lexical_decision_task_DD_L5,2021.2.3,Win32,60.0240096,m,1,1.9747,,,,,,,,1.9747,1,0,2,2,3,1,1001,MATRIX,m,,,,,,,,,,,,,,,,,,,,,,,,,,,,,,,,,,,,,,,,,,,,,,,,,,,,,,,,,,,,,,,,,,
,,,,,,,,,,,,,,,,,611082ee9fd766aaaf0126db,24,2022-02-12_16h58.19.802,lexical_decision_task_DD_L5,2021.2.3,Win32,60.0240096,z,1,1.2778,,,,,,,,1.2778,1,0,3,3,14,1,1001,THRALE,z,,,,,,,,,,,,,,,,,,,,,,,,,,,,,,,,,,,,,,,,,,,,,,,,,,,,,,,,,,,,,,,,,,
,,,,,,,,,,,,,,,,,611082ee9fd766aaaf0126db,24,2022-02-12_16h58.19.802,lexical_decision_task_DD_L5,2021.2.3,Win32,60.0240096,m,1,0.6544,,,,,,,,0.6544,1,0,4,4,7,1,1001,VOLUME,m,,,,,,,,,,,,,,,,,,,,,,,,,,,,,,,,,,,,,,,,,,,,,,,,,,,,,,,,,,,,,,,,,,
,,,,,,,,,,,,,,,,,611082ee9fd766aaaf0126db,24,2022-02-12_16h58.19.802,lexical_decision_task_DD_L5,2021.2.3,Win32,60.0240096,z,1,0.5807,,,,,,,,0.5807,1,0,5,5,11,1,1001,RASHET,z,,,,,,,,,,,,,,,,,,,,,,,,,,,,,,,,,,,,,,,,,,,,,,,,,,,,,,,,,,,,,,,,,,
,,,,,,,,,,,,,,,,,611082ee9fd766aaaf0126db,24,2022-02-12_16h58.19.802,lexical_decision_task_DD_L5,2021.2.3,Win32,60.0240096,m,1,0.6782,,,,,,,,0.6782,1,0,6,6,4,1,1001,SQUEAK,m,,,,,,,,,,,,,,,,,,,,,,,,,,,,,,,,,,,,,,,,,,,,,,,,,,,,,,,,,,,,,,,,,,
,,,,,,,,,,,,,,,,,611082ee9fd766aaaf0126db,24,2022-02-12_16h58.19.802,lexical_decision_task_DD_L5,2021.2.3,Win32,60.0240096,m,1,0.8617,,,,,,,,0.8617,1,0,7,7,5,1,1001,OBTAIN,m,,,,,,,,,,,,,,,,,,,,,,,,,,,,,,,,,,,,,,,,,,,,,,,,,,,,,,,,,,,,,,,,,,
,,,,,,,,,,,,,,,,,611082ee9fd766aaaf0126db,24,2022-02-12_16h58.19.802,lexical_decision_task_DD_L5,2021.2.3,Win32,60.0240096,z,1,1.0494,,,,,,,,1.0494,1,0,8,8,10,1,1001,INLADE,z,,,,,,,,,,,,,,,,,,,,,,,,,,,,,,,,,,,,,,,,,,,,,,,,,,,,,,,,,,,,,,,,,,
,,,,,,,,,,,,,,,,,611082ee9fd766aaaf0126db,24,2022-02-12_16h58.19.802,lexical_decision_task_DD_L5,2021.2.3,Win32,60.0240096,m,1,0.7512,,,,,,,,0.7512,1,0,9,9,2,1,1001,ALMOND,m,,,,,,,,,,,,,,,,,,,,,,,,,,,,,,,,,,,,,,,,,,,,,,,,,,,,,,,,,,,,,,,,,,
,,,,,,,,,,,,,,,,,611082ee9fd766aaaf0126db,24,2022-02-12_16h58.19.802,lexical_decision_task_DD_L5,2021.2.3,Win32,60.0240096,m,1,0.6179,,,,,,,,0.6179,1,0,10,10,6,1,1001,ZOMBIE,m,,,,,,,,,,,,,,,,,,,,,,,,,,,,,,,,,,,,,,,,,,,,,,,,,,,,,,,,,,,,,,,,,,
,,,,,,,,,,,,,,,,,611082ee9fd766aaaf0126db,24,2022-02-12_16h58.19.802,lexical_decision_task_DD_L5,2021.2.3,Win32,60.0240096,z,1,0.8009,,,,,,,,0.8009,1,0,11,11,12,1,1001,SPRINY,z,,,,,,,,,,,,,,,,,,,,,,,,,,,,,,,,,,,,,,,,,,,,,,,,,,,,,,,,,,,,,,,,,,
,,,,,,,,,,,,,,,,,611082ee9fd766aaaf0126db,24,2022-02-12_16h58.19.802,lexical_decision_task_DD_L5,2021.2.3,Win32,60.0240096,z,1,0.769,,,,,,,,0.769,1,0,12,12,15,1,1001,WHAISE,z,,,,,,,,,,,,,,,,,,,,,,,,,,,,,,,,,,,,,,,,,,,,,,,,,,,,,,,,,,,,,,,,,,
,,,,,,,,,,,,,,,,,611082ee9fd766aaaf0126db,24,2022-02-12_16h58.19.802,lexical_decision_task_DD_L5,2021.2.3,Win32,60.0240096,m,0,0.7358,,,,,,,,0.7358,0,0,13,13,8,1,1001,ASLERT,z,,,,,,,,,,,,,,,,,,,,,,,,,,,,,,,,,,,,,,,,,,,,,,,,,,,,,,,,,,,,,,,,,,
,,,,,,,,,,,,,,,,,611082ee9fd766aaaf0126db,24,2022-02-12_16h58.19.802,lexical_decision_task_DD_L5,2021.2.3,Win32,60.0240096,m,1,0.7453,,,,,,,,0.7453,1,0,14,14,1,1,1001,ADJUST,m,,,,,,,,,,,,,,,,,,,,,,,,,,,,,,,,,,,,,,,,,,,,,,,,,,,,,,,,,,,,,,,,,,
,,,,,,,,,,,,,,,,,611082ee9fd766aaaf0126db,24,2022-02-12_16h58.19.802,lexical_decision_task_DD_L5,2021.2.3,Win32,60.0240096,m,1,0.7299,,,,,,,,0.7299,1,0,15,15,0,1,1001,UTOPIA,m,,,,,,,,,,,,,,,,,,,,,,,,,,,,,,,,,,,,,,,,,,,,,,,,,,,,,,,,,,,,,,,,,,
space,10.8754,0.087962963,-0.255555556,0,0,0,,,,,,1,end_of_practice,"You have completed the practice trials. During the experimental trials, you will not receive feedback. 
Before you begin, please ensure that you are in a comfortable and quiet location and will not be disturbed for about 15 minutes, as we cannot use your data if you do not complete all the trials. 
 When you are ready to start the experimental trials, please press space or touch the button below.",,,611082ee9fd766aaaf0126db,24,2022-02-12_16h58.19.802,lexical_decision_task_DD_L5,2021.2.3,Win32,60.0240096,,,,,,,,,,,,,,,,,,,,,0,0,0,0,1,,,,,,,,,,,,,,,,,,,,,,,,,,,,,,,,,,,,,,,,,,,,,,,,,,,,,,,,,,,,,
,,,,,,,,,,,,,,,,,611082ee9fd766aaaf0126db,24,2022-02-12_16h58.19.802,lexical_decision_task_DD_L5,2021.2.3,Win32,60.0240096,,,,,,,,,,,1.3953,1,,,,,,,,,,,,,,m,1,1.3953,,,,,,,,0.087962963,-0.255555556,0,0,0,,0,0,0,19,1,DONKEY,LB,old,m,./images/DONKEYLB.png,,,,,,,,,,,,,,,,,,,,,,,,,,,,,,,,,,,
,,,,,,,,,,,,,,,,,611082ee9fd766aaaf0126db,24,2022-02-12_16h58.19.802,lexical_decision_task_DD_L5,2021.2.3,Win32,60.0240096,,,,,,,,,,,2.3297,1,,,,,,,,,,,,,,m,1,2.3297,,,,,,,,0.087962963,-0.255555556,0,0,0,,0,1,1,57,1,FERRY,HB,old,m,./images/FERRYHB.png,,,,,,,,,,,,,,,,,,,,,,,,,,,,,,,,,,,
,,,,,,,,,,,,,,,,,611082ee9fd766aaaf0126db,24,2022-02-12_16h58.19.802,lexical_decision_task_DD_L5,2021.2.3,Win32,60.0240096,,,,,,,,,,,0.8016,1,,,,,,,,,,,,,,z,1,0.8016,,,,,,,,0.087962963,-0.255555556,0,0,0,,0,2,2,87,1,TRING,C,old,z,./images/TRING.png,,,,,,,,,,,,,,,,,,,,,,,,,,,,,,,,,,,
,,,,,,,,,,,,,,,,,611082ee9fd766aaaf0126db,24,2022-02-12_16h58.19.802,lexical_decision_task_DD_L5,2021.2.3,Win32,60.0240096,,,,,,,,,,,1.5534,1,,,,,,,,,,,,,,z,1,1.5534,,,,,,,,0.087962963,-0.255555556,0,0,0,,0,3,3,124,1,TUNCH,HB,old,z,./images/TUNCHHB.png,,,,,,,,,,,,,,,,,,,,,,,,,,,,,,,,,,,
,,,,,,,,,,,,,,,,,611082ee9fd766aaaf0126db,24,2022-02-12_16h58.19.802,lexical_decision_task_DD_L5,2021.2.3,Win32,60.0240096,,,,,,,,,,,1.0491,1,,,,,,,,,,,,,,z,1,1.0491,,,,,,,,0.087962963,-0.255555556,0,0,0,,0,4,4,112,1,MYING,HB,old,z,./images/MYINGHB.png,,,,,,,,,,,,,,,,,,,,,,,,,,,,,,,,,,,
,,,,,,,,,,,,,,,,,611082ee9fd766aaaf0126db,24,2022-02-12_16h58.19.802,lexical_decision_task_DD_L5,2021.2.3,Win32,60.0240096,,,,,,,,,,,0.662,1,,,,,,,,,,,,,,m,1,0.662,,,,,,,,0.087962963,-0.255555556,0,0,0,,0,5,5,23,1,CLOTH,C,old,m,./images/CLOTH.png,,,,,,,,,,,,,,,,,,,,,,,,,,,,,,,,,,,
,,,,,,,,,,,,,,,,,611082ee9fd766aaaf0126db,24,2022-02-12_16h58.19.802,lexical_decision_task_DD_L5,2021.2.3,Win32,60.0240096,,,,,,,,,,,2.9849,0,,,,,,,,,,,,,,z,0,2.9849,,,,,,,,0.087962963,-0.255555556,0,0,0,,0,6,6,52,1,DESERT,LB,old,m,./images/DESERTLB.png,,,,,,,,,,,,,,,,,,,,,,,,,,,,,,,,,,,
,,,,,,,,,,,,,,,,,611082ee9fd766aaaf0126db,24,2022-02-12_16h58.19.802,lexical_decision_task_DD_L5,2021.2.3,Win32,60.0240096,,,,,,,,,,,0.9532,1,,,,,,,,,,,,,,z,1,0.9532,,,,,,,,0.087962963,-0.255555556,0,0,0,,0,7,7,165,1,TROWN,C,old,z,./images/TROWN.png,,,,,,,,,,,,,,,,,,,,,,,,,,,,,,,,,,,
,,,,,,,,,,,,,,,,,611082ee9fd766aaaf0126db,24,2022-02-12_16h58.19.802,lexical_decision_task_DD_L5,2021.2.3,Win32,60.0240096,,,,,,,,,,,1.0215,1,,,,,,,,,,,,,,m,1,1.0215,,,,,,,,0.087962963,-0.255555556,0,0,0,,0,8,8,7,1,WAGON,LB,old,m,./images/WAGONLB.png,,,,,,,,,,,,,,,,,,,,,,,,,,,,,,,,,,,
,,,,,,,,,,,,,,,,,611082ee9fd766aaaf0126db,24,2022-02-12_16h58.19.802,lexical_decision_task_DD_L5,2021.2.3,Win32,60.0240096,,,,,,,,,,,0.8761,1,,,,,,,,,,,,,,z,1,0.8761,,,,,,,,0.087962963,-0.255555556,0,0,0,,0,9,9,146,1,MOOST,LB,old,z,./images/MOOSTLB.png,,,,,,,,,,,,,,,,,,,,,,,,,,,,,,,,,,,
,,,,,,,,,,,,,,,,,611082ee9fd766aaaf0126db,24,2022-02-12_16h58.19.802,lexical_decision_task_DD_L5,2021.2.3,Win32,60.0240096,,,,,,,,,,,0.8207,1,,,,,,,,,,,,,,z,1,0.8207,,,,,,,,0.087962963,-0.255555556,0,0,0,,0,10,10,86,1,AIFED,LB,old,z,./images/AIFEDLB.png,,,,,,,,,,,,,,,,,,,,,,,,,,,,,,,,,,,
,,,,,,,,,,,,,,,,,611082ee9fd766aaaf0126db,24,2022-02-12_16h58.19.802,lexical_decision_task_DD_L5,2021.2.3,Win32,60.0240096,,,,,,,,,,,0.9683,1,,,,,,,,,,,,,,z,1,0.9683,,,,,,,,0.087962963,-0.255555556,0,0,0,,0,11,11,116,1,BALGY,LB,old,z,./images/BALGYLB.png,,,,,,,,,,,,,,,,,,,,,,,,,,,,,,,,,,,
,,,,,,,,,,,,,,,,,611082ee9fd766aaaf0126db,24,2022-02-12_16h58.19.802,lexical_decision_task_DD_L5,2021.2.3,Win32,60.0240096,,,,,,,,,,,0.8012,1,,,,,,,,,,,,,,m,1,0.8012,,,,,,,,0.087962963,-0.255555556,0,0,0,,0,12,12,55,1,ALLEY,LB,old,m,./images/ALLEYLB.png,,,,,,,,,,,,,,,,,,,,,,,,,,,,,,,,,,,
,,,,,,,,,,,,,,,,,611082ee9fd766aaaf0126db,24,2022-02-12_16h58.19.802,lexical_decision_task_DD_L5,2021.2.3,Win32,60.0240096,,,,,,,,,,,0.9045,1,,,,,,,,,,,,,,m,1,0.9045,,,,,,,,0.087962963,-0.255555556,0,0,0,,0,13,13,4,1,BOXER,LB,old,m,./images/BOXERLB.png,,,,,,,,,,,,,,,,,,,,,,,,,,,,,,,,,,,
,,,,,,,,,,,,,,,,,611082ee9fd766aaaf0126db,24,2022-02-12_16h58.19.802,lexical_decision_task_DD_L5,2021.2.3,Win32,60.0240096,,,,,,,,,,,0.7374,1,,,,,,,,,,,,,,m,1,0.7374,,,,,,,,0.087962963,-0.255555556,0,0,0,,0,14,14,34,1,RAZOR,LB,old,m,./images/RAZORLB.png,,,,,,,,,,,,,,,,,,,,,,,,,,,,,,,,,,,
,,,,,,,,,,,,,,,,,611082ee9fd766aaaf0126db,24,2022-02-12_16h58.19.802,lexical_decision_task_DD_L5,2021.2.3,Win32,60.0240096,,,,,,,,,,,0.7662,1,,,,,,,,,,,,,,z,1,0.7662,,,,,,,,0.087962963,-0.255555556,0,0,0,,0,15,15,92,1,PAIMS,LB,old,z,./images/PAIMSLB.png,,,,,,,,,,,,,,,,,,,,,,,,,,,,,,,,,,,
,,,,,,,,,,,,,,,,,611082ee9fd766aaaf0126db,24,2022-02-12_16h58.19.802,lexical_decision_task_DD_L5,2021.2.3,Win32,60.0240096,,,,,,,,,,,0.7219,1,,,,,,,,,,,,,,z,1,0.7219,,,,,,,,0.087962963,-0.255555556,0,0,0,,0,16,16,119,1,PAFER,LB,old,z,./images/PAFERLB.png,,,,,,,,,,,,,,,,,,,,,,,,,,,,,,,,,,,
,,,,,,,,,,,,,,,,,611082ee9fd766aaaf0126db,24,2022-02-12_16h58.19.802,lexical_decision_task_DD_L5,2021.2.3,Win32,60.0240096,,,,,,,,,,,1.0814,0,,,,,,,,,,,,,,z,0,1.0814,,,,,,,,0.087962963,-0.255555556,0,0,0,,0,17,17,36,1,BOILER,HB,old,m,./images/BOILERHB.png,,,,,,,,,,,,,,,,,,,,,,,,,,,,,,,,,,,
,,,,,,,,,,,,,,,,,611082ee9fd766aaaf0126db,24,2022-02-12_16h58.19.802,lexical_decision_task_DD_L5,2021.2.3,Win32,60.0240096,,,,,,,,,,,0.8807,1,,,,,,,,,,,,,,m,1,0.8807,,,,,,,,0.087962963,-0.255555556,0,0,0,,0,18,18,47,1,LAGOON,C,old,m,./images/LAGOON.png,,,,,,,,,,,,,,,,,,,,,,,,,,,,,,,,,,,
,,,,,,,,,,,,,,,,,611082ee9fd766aaaf0126db,24,2022-02-12_16h58.19.802,lexical_decision_task_DD_L5,2021.2.3,Win32,60.0240096,,,,,,,,,,,0.8909,1,,,,,,,,,,,,,,m,1,0.8909,,,,,,,,0.087962963,-0.255555556,0,0,0,,0,19,19,37,1,TIGER,LB,old,m,./images/TIGERLB.png,,,,,,,,,,,,,,,,,,,,,,,,,,,,,,,,,,,
,,,,,,,,,,,,,,,,,611082ee9fd766aaaf0126db,24,2022-02-12_16h58.19.802,lexical_decision_task_DD_L5,2021.2.3,Win32,60.0240096,,,,,,,,,,,0.7733,1,,,,,,,,,,,,,,z,1,0.7733,,,,,,,,0.087962963,-0.255555556,0,0,0,,0,20,20,128,1,GRIFT,LB,old,z,./images/GRIFTLB.png,,,,,,,,,,,,,,,,,,,,,,,,,,,,,,,,,,,
,,,,,,,,,,,,,,,,,611082ee9fd766aaaf0126db,24,2022-02-12_16h58.19.802,lexical_decision_task_DD_L5,2021.2.3,Win32,60.0240096,,,,,,,,,,,0.8226,1,,,,,,,,,,,,,,z,1,0.8226,,,,,,,,0.087962963,-0.255555556,0,0,0,,0,21,21,149,1,VEASE,LB,old,z,./images/VEASELB.png,,,,,,,,,,,,,,,,,,,,,,,,,,,,,,,,,,,
,,,,,,,,,,,,,,,,,611082ee9fd766aaaf0126db,24,2022-02-12_16h58.19.802,lexical_decision_task_DD_L5,2021.2.3,Win32,60.0240096,,,,,,,,,,,0.623,1,,,,,,,,,,,,,,m,1,0.623,,,,,,,,0.087962963,-0.255555556,0,0,0,,0,22,22,46,1,MUMMY,LB,old,m,./images/MUMMYLB.png,,,,,,,,,,,,,,,,,,,,,,,,,,,,,,,,,,,
,,,,,,,,,,,,,,,,,611082ee9fd766aaaf0126db,24,2022-02-12_16h58.19.802,lexical_decision_task_DD_L5,2021.2.3,Win32,60.0240096,,,,,,,,,,,0.8146,1,,,,,,,,,,,,,,z,1,0.8146,,,,,,,,0.087962963,-0.255555556,0,0,0,,0,23,23,153,1,CLUPS,C,old,z,./images/CLUPS.png,,,,,,,,,,,,,,,,,,,,,,,,,,,,,,,,,,,
,,,,,,,,,,,,,,,,,611082ee9fd766aaaf0126db,24,2022-02-12_16h58.19.802,lexical_decision_task_DD_L5,2021.2.3,Win32,60.0240096,,,,,,,,,,,0.8659,1,,,,,,,,,,,,,,z,1,0.8659,,,,,,,,0.087962963,-0.255555556,0,0,0,,0,24,24,104,1,GITTY,LB,old,z,./images/GITTYLB.png,,,,,,,,,,,,,,,,,,,,,,,,,,,,,,,,,,,
,,,,,,,,,,,,,,,,,611082ee9fd766aaaf0126db,24,2022-02-12_16h58.19.802,lexical_decision_task_DD_L5,2021.2.3,Win32,60.0240096,,,,,,,,,,,0.8779,1,,,,,,,,,,,,,,m,1,0.8779,,,,,,,,0.087962963,-0.255555556,0,0,0,,0,25,25,43,1,STOOL,LB,old,m,./images/STOOLLB.png,,,,,,,,,,,,,,,,,,,,,,,,,,,,,,,,,,,
,,,,,,,,,,,,,,,,,611082ee9fd766aaaf0126db,24,2022-02-12_16h58.19.802,lexical_decision_task_DD_L5,2021.2.3,Win32,60.0240096,,,,,,,,,,,0.754,1,,,,,,,,,,,,,,z,1,0.754,,,,,,,,0.087962963,-0.255555556,0,0,0,,0,26,26,143,1,MONGS,LB,old,z,./images/MONGSLB.png,,,,,,,,,,,,,,,,,,,,,,,,,,,,,,,,,,,
,,,,,,,,,,,,,,,,,611082ee9fd766aaaf0126db,24,2022-02-12_16h58.19.802,lexical_decision_task_DD_L5,2021.2.3,Win32,60.0240096,,,,,,,,,,,0.9055,1,,,,,,,,,,,,,,z,1,0.9055,,,,,,,,0.087962963,-0.255555556,0,0,0,,0,27,27,117,1,STEEG,C,old,z,./images/STEEG.png,,,,,,,,,,,,,,,,,,,,,,,,,,,,,,,,,,,
,,,,,,,,,,,,,,,,,611082ee9fd766aaaf0126db,24,2022-02-12_16h58.19.802,lexical_decision_task_DD_L5,2021.2.3,Win32,60.0240096,,,,,,,,,,,0.7177,1,,,,,,,,,,,,,,m,1,0.7177,,,,,,,,0.087962963,-0.255555556,0,0,0,,0,28,28,70,1,BANANA,LB,old,m,./images/BANANALB.png,,,,,,,,,,,,,,,,,,,,,,,,,,,,,,,,,,,
,,,,,,,,,,,,,,,,,611082ee9fd766aaaf0126db,24,2022-02-12_16h58.19.802,lexical_decision_task_DD_L5,2021.2.3,Win32,60.0240096,,,,,,,,,,,1.0206,0,,,,,,,,,,,,,,z,0,1.0206,,,,,,,,0.087962963,-0.255555556,0,0,0,,0,29,29,51,1,SAUCE,HB,old,m,./images/SAUCEHB.png,,,,,,,,,,,,,,,,,,,,,,,,,,,,,,,,,,,
,,,,,,,,,,,,,,,,,611082ee9fd766aaaf0126db,24,2022-02-12_16h58.19.802,lexical_decision_task_DD_L5,2021.2.3,Win32,60.0240096,,,,,,,,,,,0.6851,1,,,,,,,,,,,,,,m,1,0.6851,,,,,,,,0.087962963,-0.255555556,0,0,0,,0,30,30,22,1,CLOWN,LB,old,m,./images/CLOWNLB.png,,,,,,,,,,,,,,,,,,,,,,,,,,,,,,,,,,,
,,,,,,,,,,,,,,,,,611082ee9fd766aaaf0126db,24,2022-02-12_16h58.19.802,lexical_decision_task_DD_L5,2021.2.3,Win32,60.0240096,,,,,,,,,,,0.7795,1,,,,,,,,,,,,,,m,1,0.7795,,,,,,,,0.087962963,-0.255555556,0,0,0,,0,31,31,76,1,MIDGET,LB,old,m,./images/MIDGETLB.png,,,,,,,,,,,,,,,,,,,,,,,,,,,,,,,,,,,
,,,,,,,,,,,,,,,,,611082ee9fd766aaaf0126db,24,2022-02-12_16h58.19.802,lexical_decision_task_DD_L5,2021.2.3,Win32,60.0240096,,,,,,,,,,,0.7597,1,,,,,,,,,,,,,,z,1,0.7597,,,,,,,,0.087962963,-0.255555556,0,0,0,,0,32,32,152,1,FRAIN,LB,old,z,./images/FRAINLB.png,,,,,,,,,,,,,,,,,,,,,,,,,,,,,,,,,,,
,,,,,,,,,,,,,,,,,611082ee9fd766aaaf0126db,24,2022-02-12_16h58.19.802,lexical_decision_task_DD_L5,2021.2.3,Win32,60.0240096,,,,,,,,,,,0.7363,1,,,,,,,,,,,,,,m,1,0.7363,,,,,,,,0.087962963,-0.255555556,0,0,0,,0,33,33,50,1,PILOT,C,old,m,./images/PILOT.png,,,,,,,,,,,,,,,,,,,,,,,,,,,,,,,,,,,
,,,,,,,,,,,,,,,,,611082ee9fd766aaaf0126db,24,2022-02-12_16h58.19.802,lexical_decision_task_DD_L5,2021.2.3,Win32,60.0240096,,,,,,,,,,,2.3476,1,,,,,,,,,,,,,,z,1,2.3476,,,,,,,,0.087962963,-0.255555556,0,0,0,,0,34,34,85,1,CHULK,HB,old,z,./images/CHULKHB.png,,,,,,,,,,,,,,,,,,,,,,,,,,,,,,,,,,,
,,,,,,,,,,,,,,,,,611082ee9fd766aaaf0126db,24,2022-02-12_16h58.19.802,lexical_decision_task_DD_L5,2021.2.3,Win32,60.0240096,,,,,,,,,,,1.2846,1,,,,,,,,,,,,,,z,1,1.2846,,,,,,,,0.087962963,-0.255555556,0,0,0,,0,35,35,148,1,JOMS,HB,old,z,./images/JOMSHB.png,,,,,,,,,,,,,,,,,,,,,,,,,,,,,,,,,,,
,,,,,,,,,,,,,,,,,611082ee9fd766aaaf0126db,24,2022-02-12_16h58.19.802,lexical_decision_task_DD_L5,2021.2.3,Win32,60.0240096,,,,,,,,,,,0.9139,1,,,,,,,,,,,,,,z,1,0.9139,,,,,,,,0.087962963,-0.255555556,0,0,0,,0,36,36,160,1,VEETS,HB,old,z,./images/VEETSHB.png,,,,,,,,,,,,,,,,,,,,,,,,,,,,,,,,,,,
,,,,,,,,,,,,,,,,,611082ee9fd766aaaf0126db,24,2022-02-12_16h58.19.802,lexical_decision_task_DD_L5,2021.2.3,Win32,60.0240096,,,,,,,,,,,0.6308,1,,,,,,,,,,,,,,m,1,0.6308,,,,,,,,0.087962963,-0.255555556,0,0,0,,0,37,37,5,1,BAMBOO,C,old,m,./images/BAMBOO.png,,,,,,,,,,,,,,,,,,,,,,,,,,,,,,,,,,,
,,,,,,,,,,,,,,,,,611082ee9fd766aaaf0126db,24,2022-02-12_16h58.19.802,lexical_decision_task_DD_L5,2021.2.3,Win32,60.0240096,,,,,,,,,,,0.833,1,,,,,,,,,,,,,,m,1,0.833,,,,,,,,0.087962963,-0.255555556,0,0,0,,0,38,38,54,1,CHERRY,HB,old,m,./images/CHERRYHB.png,,,,,,,,,,,,,,,,,,,,,,,,,,,,,,,,,,,
,,,,,,,,,,,,,,,,,611082ee9fd766aaaf0126db,24,2022-02-12_16h58.19.802,lexical_decision_task_DD_L5,2021.2.3,Win32,60.0240096,,,,,,,,,,,0.6996,1,,,,,,,,,,,,,,z,1,0.6996,,,,,,,,0.087962963,-0.255555556,0,0,0,,0,39,39,108,1,GRUET,C,old,z,./images/GRUET.png,,,,,,,,,,,,,,,,,,,,,,,,,,,,,,,,,,,
,,,,,,,,,,,,,,,,,611082ee9fd766aaaf0126db,24,2022-02-12_16h58.19.802,lexical_decision_task_DD_L5,2021.2.3,Win32,60.0240096,,,,,,,,,,,0.7337,1,,,,,,,,,,,,,,z,1,0.7337,,,,,,,,0.087962963,-0.255555556,0,0,0,,0,40,40,123,1,SEDGE,C,old,z,./images/SEDGE.png,,,,,,,,,,,,,,,,,,,,,,,,,,,,,,,,,,,
,,,,,,,,,,,,,,,,,611082ee9fd766aaaf0126db,24,2022-02-12_16h58.19.802,lexical_decision_task_DD_L5,2021.2.3,Win32,60.0240096,,,,,,,,,,,0.769,1,,,,,,,,,,,,,,z,1,0.769,,,,,,,,0.087962963,-0.255555556,0,0,0,space,0,41,41,164,1,SGREW,LB,old,z,./images/SGREWLB.png,19.294,,,,,,,,,,,,,,,,,,,,,,,,,,,,,,,,,,
,,,,,,,,,,,,,,,,,611082ee9fd766aaaf0126db,24,2022-02-12_16h58.19.802,lexical_decision_task_DD_L5,2021.2.3,Win32,60.0240096,,,,,,,,,,,1.9348,1,,,,,,,,,,,,,,z,1,1.9348,,,,,,,,0.087962963,-0.255555556,0,0,0,,0,42,42,109,1,BURGE,HB,old,z,./images/BURGEHB.png,,,,,,,,,,,,,,,,,,,,,,,,,,,,,,,,,,,
,,,,,,,,,,,,,,,,,611082ee9fd766aaaf0126db,24,2022-02-12_16h58.19.802,lexical_decision_task_DD_L5,2021.2.3,Win32,60.0240096,,,,,,,,,,,1.5852,1,,,,,,,,,,,,,,z,1,1.5852,,,,,,,,0.087962963,-0.255555556,0,0,0,,0,43,43,166,1,SHORY,HB,old,z,./images/SHORYHB.png,,,,,,,,,,,,,,,,,,,,,,,,,,,,,,,,,,,
,,,,,,,,,,,,,,,,,611082ee9fd766aaaf0126db,24,2022-02-12_16h58.19.802,lexical_decision_task_DD_L5,2021.2.3,Win32,60.0240096,,,,,,,,,,,0.6932,1,,,,,,,,,,,,,,z,1,0.6932,,,,,,,,0.087962963,-0.255555556,0,0,0,,0,44,44,110,1,CRUNK,LB,old,z,./images/CRUNKLB.png,,,,,,,,,,,,,,,,,,,,,,,,,,,,,,,,,,,
,,,,,,,,,,,,,,,,,611082ee9fd766aaaf0126db,24,2022-02-12_16h58.19.802,lexical_decision_task_DD_L5,2021.2.3,Win32,60.0240096,,,,,,,,,,,1.2465,1,,,,,,,,,,,,,,m,1,1.2465,,,,,,,,0.087962963,-0.255555556,0,0,0,,0,45,45,21,1,DANCER,HB,old,m,./images/DANCERHB.png,,,,,,,,,,,,,,,,,,,,,,,,,,,,,,,,,,,
,,,,,,,,,,,,,,,,,611082ee9fd766aaaf0126db,24,2022-02-12_16h58.19.802,lexical_decision_task_DD_L5,2021.2.3,Win32,60.0240096,,,,,,,,,,,0.8287,1,,,,,,,,,,,,,,z,1,0.8287,,,,,,,,0.087962963,-0.255555556,0,0,0,,0,46,46,84,1,HAXES,C,old,z,./images/HAXES.png,,,,,,,,,,,,,,,,,,,,,,,,,,,,,,,,,,,
,,,,,,,,,,,,,,,,,611082ee9fd766aaaf0126db,24,2022-02-12_16h58.19.802,lexical_decision_task_DD_L5,2021.2.3,Win32,60.0240096,,,,,,,,,,,0.7784,1,,,,,,,,,,,,,,z,1,0.7784,,,,,,,,0.087962963,-0.255555556,0,0,0,,0,47,47,129,1,PRANS,C,old,z,./images/PRANS.png,,,,,,,,,,,,,,,,,,,,,,,,,,,,,,,,,,,
,,,,,,,,,,,,,,,,,611082ee9fd766aaaf0126db,24,2022-02-12_16h58.19.802,lexical_decision_task_DD_L5,2021.2.3,Win32,60.0240096,,,,,,,,,,,1.2585,1,,,,,,,,,,,,,,z,1,1.2585,,,,,,,,0.087962963,-0.255555556,0,0,0,,0,48,48,88,1,GLUSH,HB,old,z,./images/GLUSHHB.png,,,,,,,,,,,,,,,,,,,,,,,,,,,,,,,,,,,
,,,,,,,,,,,,,,,,,611082ee9fd766aaaf0126db,24,2022-02-12_16h58.19.802,lexical_decision_task_DD_L5,2021.2.3,Win32,60.0240096,,,,,,,,,,,0.9273,1,,,,,,,,,,,,,,m,1,0.9273,,,,,,,,0.087962963,-0.255555556,0,0,0,,0,49,49,24,1,FLESH,HB,old,m,./images/FLESHHB.png,,,,,,,,,,,,,,,,,,,,,,,,,,,,,,,,,,,
,,,,,,,,,,,,,,,,,611082ee9fd766aaaf0126db,24,2022-02-12_16h58.19.802,lexical_decision_task_DD_L5,2021.2.3,Win32,60.0240096,,,,,,,,,,,0.8013,1,,,,,,,,,,,,,,m,1,0.8013,,,,,,,,0.087962963,-0.255555556,0,0,0,,0,50,50,41,1,STREAM,C,old,m,./images/STREAM.png,,,,,,,,,,,,,,,,,,,,,,,,,,,,,,,,,,,
,,,,,,,,,,,,,,,,,611082ee9fd766aaaf0126db,24,2022-02-12_16h58.19.802,lexical_decision_task_DD_L5,2021.2.3,Win32,60.0240096,,,,,,,,,,,0.9057,1,,,,,,,,,,,,,,m,1,0.9057,,,,,,,,0.087962963,-0.255555556,0,0,0,,0,51,51,45,1,MONKEY,HB,old,m,./images/MONKEYHB.png,,,,,,,,,,,,,,,,,,,,,,,,,,,,,,,,,,,
,,,,,,,,,,,,,,,,,611082ee9fd766aaaf0126db,24,2022-02-12_16h58.19.802,lexical_decision_task_DD_L5,2021.2.3,Win32,60.0240096,,,,,,,,,,,1.1761,1,,,,,,,,,,,,,,z,1,1.1761,,,,,,,,0.087962963,-0.255555556,0,0,0,,0,52,52,115,1,MAWNS,HB,old,z,./images/MAWNSHB.png,,,,,,,,,,,,,,,,,,,,,,,,,,,,,,,,,,,
,,,,,,,,,,,,,,,,,611082ee9fd766aaaf0126db,24,2022-02-12_16h58.19.802,lexical_decision_task_DD_L5,2021.2.3,Win32,60.0240096,,,,,,,,,,,0.7103,1,,,,,,,,,,,,,,z,1,0.7103,,,,,,,,0.087962963,-0.255555556,0,0,0,,0,53,53,95,1,HANTY,LB,old,z,./images/HANTYLB.png,,,,,,,,,,,,,,,,,,,,,,,,,,,,,,,,,,,
,,,,,,,,,,,,,,,,,611082ee9fd766aaaf0126db,24,2022-02-12_16h58.19.802,lexical_decision_task_DD_L5,2021.2.3,Win32,60.0240096,,,,,,,,,,,0.9343,1,,,,,,,,,,,,,,z,1,0.9343,,,,,,,,0.087962963,-0.255555556,0,0,0,,0,54,54,145,1,LAMEL,HB,old,z,./images/LAMELHB.png,,,,,,,,,,,,,,,,,,,,,,,,,,,,,,,,,,,
,,,,,,,,,,,,,,,,,611082ee9fd766aaaf0126db,24,2022-02-12_16h58.19.802,lexical_decision_task_DD_L5,2021.2.3,Win32,60.0240096,,,,,,,,,,,0.7812,1,,,,,,,,,,,,,,z,1,0.7812,,,,,,,,0.087962963,-0.255555556,0,0,0,,0,55,55,125,1,MOOKY,LB,old,z,./images/MOOKYLB.png,,,,,,,,,,,,,,,,,,,,,,,,,,,,,,,,,,,
,,,,,,,,,,,,,,,,,611082ee9fd766aaaf0126db,24,2022-02-12_16h58.19.802,lexical_decision_task_DD_L5,2021.2.3,Win32,60.0240096,,,,,,,,,,,0.6821,1,,,,,,,,,,,,,,m,1,0.6821,,,,,,,,0.087962963,-0.255555556,0,0,0,,0,56,56,77,1,WHEEL,C,old,m,./images/WHEEL.png,,,,,,,,,,,,,,,,,,,,,,,,,,,,,,,,,,,
,,,,,,,,,,,,,,,,,611082ee9fd766aaaf0126db,24,2022-02-12_16h58.19.802,lexical_decision_task_DD_L5,2021.2.3,Win32,60.0240096,,,,,,,,,,,0.7225,1,,,,,,,,,,,,,,z,1,0.7225,,,,,,,,0.087962963,-0.255555556,0,0,0,,0,57,57,141,1,PLEET,C,old,z,./images/PLEET.png,,,,,,,,,,,,,,,,,,,,,,,,,,,,,,,,,,,
,,,,,,,,,,,,,,,,,611082ee9fd766aaaf0126db,24,2022-02-12_16h58.19.802,lexical_decision_task_DD_L5,2021.2.3,Win32,60.0240096,,,,,,,,,,,0.7416,1,,,,,,,,,,,,,,m,1,0.7416,,,,,,,,0.087962963,-0.255555556,0,0,0,,0,58,58,65,1,SPINE,C,old,m,./images/SPINE.png,,,,,,,,,,,,,,,,,,,,,,,,,,,,,,,,,,,
,,,,,,,,,,,,,,,,,611082ee9fd766aaaf0126db,24,2022-02-12_16h58.19.802,lexical_decision_task_DD_L5,2021.2.3,Win32,60.0240096,,,,,,,,,,,0.7044,1,,,,,,,,,,,,,,z,1,0.7044,,,,,,,,0.087962963,-0.255555556,0,0,0,,0,59,59,90,1,NEAST,C,old,z,./images/NEAST.png,,,,,,,,,,,,,,,,,,,,,,,,,,,,,,,,,,,
,,,,,,,,,,,,,,,,,611082ee9fd766aaaf0126db,24,2022-02-12_16h58.19.802,lexical_decision_task_DD_L5,2021.2.3,Win32,60.0240096,,,,,,,,,,,0.7068,1,,,,,,,,,,,,,,z,1,0.7068,,,,,,,,0.087962963,-0.255555556,0,0,0,,0,60,60,167,1,ZONET,LB,old,z,./images/ZONETLB.png,,,,,,,,,,,,,,,,,,,,,,,,,,,,,,,,,,,
,,,,,,,,,,,,,,,,,611082ee9fd766aaaf0126db,24,2022-02-12_16h58.19.802,lexical_decision_task_DD_L5,2021.2.3,Win32,60.0240096,,,,,,,,,,,0.8992,1,,,,,,,,,,,,,,z,1,0.8992,,,,,,,,0.087962963,-0.255555556,0,0,0,,0,61,61,121,1,CEERS,HB,old,z,./images/CEERSHB.png,,,,,,,,,,,,,,,,,,,,,,,,,,,,,,,,,,,
,,,,,,,,,,,,,,,,,611082ee9fd766aaaf0126db,24,2022-02-12_16h58.19.802,lexical_decision_task_DD_L5,2021.2.3,Win32,60.0240096,,,,,,,,,,,0.7192,1,,,,,,,,,,,,,,z,1,0.7192,,,,,,,,0.087962963,-0.255555556,0,0,0,,0,62,62,161,1,BLAPS,LB,old,z,./images/BLAPSLB.png,,,,,,,,,,,,,,,,,,,,,,,,,,,,,,,,,,,
,,,,,,,,,,,,,,,,,611082ee9fd766aaaf0126db,24,2022-02-12_16h58.19.802,lexical_decision_task_DD_L5,2021.2.3,Win32,60.0240096,,,,,,,,,,,1.03,1,,,,,,,,,,,,,,m,1,1.03,,,,,,,,0.087962963,-0.255555556,0,0,0,,0,63,63,15,1,COLLAR,HB,old,m,./images/COLLARHB.png,,,,,,,,,,,,,,,,,,,,,,,,,,,,,,,,,,,
,,,,,,,,,,,,,,,,,611082ee9fd766aaaf0126db,24,2022-02-12_16h58.19.802,lexical_decision_task_DD_L5,2021.2.3,Win32,60.0240096,,,,,,,,,,,1.3769,1,,,,,,,,,,,,,,m,1,1.3769,,,,,,,,0.087962963,-0.255555556,0,0,0,,0,64,64,12,1,BLOKE,HB,old,m,./images/BLOKEHB.png,,,,,,,,,,,,,,,,,,,,,,,,,,,,,,,,,,,
,,,,,,,,,,,,,,,,,611082ee9fd766aaaf0126db,24,2022-02-12_16h58.19.802,lexical_decision_task_DD_L5,2021.2.3,Win32,60.0240096,,,,,,,,,,,0.7395,1,,,,,,,,,,,,,,m,1,0.7395,,,,,,,,0.087962963,-0.255555556,0,0,0,,0,65,65,61,1,ARTIST,LB,old,m,./images/ARTISTLB.png,,,,,,,,,,,,,,,,,,,,,,,,,,,,,,,,,,,
,,,,,,,,,,,,,,,,,611082ee9fd766aaaf0126db,24,2022-02-12_16h58.19.802,lexical_decision_task_DD_L5,2021.2.3,Win32,60.0240096,,,,,,,,,,,0.6857,1,,,,,,,,,,,,,,z,1,0.6857,,,,,,,,0.087962963,-0.255555556,0,0,0,,0,66,66,150,1,NOOLS,C,old,z,./images/NOOLS.png,,,,,,,,,,,,,,,,,,,,,,,,,,,,,,,,,,,
,,,,,,,,,,,,,,,,,611082ee9fd766aaaf0126db,24,2022-02-12_16h58.19.802,lexical_decision_task_DD_L5,2021.2.3,Win32,60.0240096,,,,,,,,,,,1.1051,1,,,,,,,,,,,,,,z,1,1.1051,,,,,,,,0.087962963,-0.255555556,0,0,0,,0,67,67,97,1,CHIDS,HB,old,z,./images/CHIDSHB.png,,,,,,,,,,,,,,,,,,,,,,,,,,,,,,,,,,,
,,,,,,,,,,,,,,,,,611082ee9fd766aaaf0126db,24,2022-02-12_16h58.19.802,lexical_decision_task_DD_L5,2021.2.3,Win32,60.0240096,,,,,,,,,,,0.7293,1,,,,,,,,,,,,,,z,1,0.7293,,,,,,,,0.087962963,-0.255555556,0,0,0,,0,68,68,132,1,SCIFF,C,old,z,./images/SCIFF.png,,,,,,,,,,,,,,,,,,,,,,,,,,,,,,,,,,,
,,,,,,,,,,,,,,,,,611082ee9fd766aaaf0126db,24,2022-02-12_16h58.19.802,lexical_decision_task_DD_L5,2021.2.3,Win32,60.0240096,,,,,,,,,,,0.8438,1,,,,,,,,,,,,,,m,1,0.8438,,,,,,,,0.087962963,-0.255555556,0,0,0,,0,69,69,78,1,BROOM,HB,old,m,./images/BROOMHB.png,,,,,,,,,,,,,,,,,,,,,,,,,,,,,,,,,,,
,,,,,,,,,,,,,,,,,611082ee9fd766aaaf0126db,24,2022-02-12_16h58.19.802,lexical_decision_task_DD_L5,2021.2.3,Win32,60.0240096,,,,,,,,,,,0.8239,1,,,,,,,,,,,,,,m,1,0.8239,,,,,,,,0.087962963,-0.255555556,0,0,0,,0,70,70,33,1,SAUNA,HB,old,m,./images/SAUNAHB.png,,,,,,,,,,,,,,,,,,,,,,,,,,,,,,,,,,,
,,,,,,,,,,,,,,,,,611082ee9fd766aaaf0126db,24,2022-02-12_16h58.19.802,lexical_decision_task_DD_L5,2021.2.3,Win32,60.0240096,,,,,,,,,,,1.1489,1,,,,,,,,,,,,,,m,1,1.1489,,,,,,,,0.087962963,-0.255555556,0,0,0,,0,71,71,25,1,CHALK,LB,old,m,./images/CHALKLB.png,,,,,,,,,,,,,,,,,,,,,,,,,,,,,,,,,,,
,,,,,,,,,,,,,,,,,611082ee9fd766aaaf0126db,24,2022-02-12_16h58.19.802,lexical_decision_task_DD_L5,2021.2.3,Win32,60.0240096,,,,,,,,,,,0.7418,1,,,,,,,,,,,,,,m,1,0.7418,,,,,,,,0.087962963,-0.255555556,0,0,0,,0,72,72,8,1,CLIFF,C,old,m,./images/CLIFF.png,,,,,,,,,,,,,,,,,,,,,,,,,,,,,,,,,,,
,,,,,,,,,,,,,,,,,611082ee9fd766aaaf0126db,24,2022-02-12_16h58.19.802,lexical_decision_task_DD_L5,2021.2.3,Win32,60.0240096,,,,,,,,,,,0.8172,1,,,,,,,,,,,,,,z,1,0.8172,,,,,,,,0.087962963,-0.255555556,0,0,0,,0,73,73,103,1,FLORT,HB,old,z,./images/FLORTHB.png,,,,,,,,,,,,,,,,,,,,,,,,,,,,,,,,,,,
,,,,,,,,,,,,,,,,,611082ee9fd766aaaf0126db,24,2022-02-12_16h58.19.802,lexical_decision_task_DD_L5,2021.2.3,Win32,60.0240096,,,,,,,,,,,1.1596,1,,,,,,,,,,,,,,z,1,1.1596,,,,,,,,0.087962963,-0.255555556,0,0,0,,0,74,74,154,1,THINT,HB,old,z,./images/THINTHB.png,,,,,,,,,,,,,,,,,,,,,,,,,,,,,,,,,,,
,,,,,,,,,,,,,,,,,611082ee9fd766aaaf0126db,24,2022-02-12_16h58.19.802,lexical_decision_task_DD_L5,2021.2.3,Win32,60.0240096,,,,,,,,,,,0.8145,1,,,,,,,,,,,,,,m,1,0.8145,,,,,,,,0.087962963,-0.255555556,0,0,0,,0,75,75,58,1,CANOE,LB,old,m,./images/CANOELB.png,,,,,,,,,,,,,,,,,,,,,,,,,,,,,,,,,,,
,,,,,,,,,,,,,,,,,611082ee9fd766aaaf0126db,24,2022-02-12_16h58.19.802,lexical_decision_task_DD_L5,2021.2.3,Win32,60.0240096,,,,,,,,,,,0.6529,1,,,,,,,,,,,,,,z,1,0.6529,,,,,,,,0.087962963,-0.255555556,0,0,0,,0,76,76,101,1,GLEET,LB,old,z,./images/GLEETLB.png,,,,,,,,,,,,,,,,,,,,,,,,,,,,,,,,,,,
,,,,,,,,,,,,,,,,,611082ee9fd766aaaf0126db,24,2022-02-12_16h58.19.802,lexical_decision_task_DD_L5,2021.2.3,Win32,60.0240096,,,,,,,,,,,0.6705,1,,,,,,,,,,,,,,z,1,0.6705,,,,,,,,0.087962963,-0.255555556,0,0,0,,0,77,77,138,1,PLICE,C,old,z,./images/PLICE.png,,,,,,,,,,,,,,,,,,,,,,,,,,,,,,,,,,,
,,,,,,,,,,,,,,,,,611082ee9fd766aaaf0126db,24,2022-02-12_16h58.19.802,lexical_decision_task_DD_L5,2021.2.3,Win32,60.0240096,,,,,,,,,,,1.0076,1,,,,,,,,,,,,,,z,1,1.0076,,,,,,,,0.087962963,-0.255555556,0,0,0,,0,78,78,98,1,BAMPS,LB,old,z,./images/BAMPSLB.png,,,,,,,,,,,,,,,,,,,,,,,,,,,,,,,,,,,
,,,,,,,,,,,,,,,,,611082ee9fd766aaaf0126db,24,2022-02-12_16h58.19.802,lexical_decision_task_DD_L5,2021.2.3,Win32,60.0240096,,,,,,,,,,,0.6299,1,,,,,,,,,,,,,,z,1,0.6299,,,,,,,,0.087962963,-0.255555556,0,0,0,,0,79,79,147,1,ZOLES,C,old,z,./images/ZOLES.png,,,,,,,,,,,,,,,,,,,,,,,,,,,,,,,,,,,
,,,,,,,,,,,,,,,,,611082ee9fd766aaaf0126db,24,2022-02-12_16h58.19.802,lexical_decision_task_DD_L5,2021.2.3,Win32,60.0240096,,,,,,,,,,,0.63,1,,,,,,,,,,,,,,z,1,0.63,,,,,,,,0.087962963,-0.255555556,0,0,0,,0,80,80,113,1,LINEW,LB,old,z,./images/LINEWLB.png,,,,,,,,,,,,,,,,,,,,,,,,,,,,,,,,,,,
,,,,,,,,,,,,,,,,,611082ee9fd766aaaf0126db,24,2022-02-12_16h58.19.802,lexical_decision_task_DD_L5,2021.2.3,Win32,60.0240096,,,,,,,,,,,0.7594,1,,,,,,,,,,,,,,z,1,0.7594,,,,,,,,0.087962963,-0.255555556,0,0,0,,0,81,81,105,1,MOKER,C,old,z,./images/MOKER.png,,,,,,,,,,,,,,,,,,,,,,,,,,,,,,,,,,,
,,,,,,,,,,,,,,,,,611082ee9fd766aaaf0126db,24,2022-02-12_16h58.19.802,lexical_decision_task_DD_L5,2021.2.3,Win32,60.0240096,,,,,,,,,,,0.6186,1,,,,,,,,,,,,,,z,1,0.6186,,,,,,,,0.087962963,-0.255555556,0,0,0,,0,82,82,111,1,HOSSE,C,old,z,./images/HOSSE.png,,,,,,,,,,,,,,,,,,,,,,,,,,,,,,,,,,,
,,,,,,,,,,,,,,,,,611082ee9fd766aaaf0126db,24,2022-02-12_16h58.19.802,lexical_decision_task_DD_L5,2021.2.3,Win32,60.0240096,,,,,,,,,,,1.0881,1,,,,,,,,,,,,,,z,1,1.0881,,,,,,,,0.087962963,-0.255555556,0,0,0,space,0,83,83,106,1,CLUMS,HB,old,z,./images/CLUMSHB.png,2.5302,,,,,,,,,,,,,,,,,,,,,,,,,,,,,,,,,,
,,,,,,,,,,,,,,,,,611082ee9fd766aaaf0126db,24,2022-02-12_16h58.19.802,lexical_decision_task_DD_L5,2021.2.3,Win32,60.0240096,,,,,,,,,,,0.7797,1,,,,,,,,,,,,,,m,1,0.7797,,,,,,,,0.087962963,-0.255555556,0,0,0,,0,84,84,2,1,STOVE,C,old,m,./images/STOVE.png,,,,,,,,,,,,,,,,,,,,,,,,,,,,,,,,,,,
,,,,,,,,,,,,,,,,,611082ee9fd766aaaf0126db,24,2022-02-12_16h58.19.802,lexical_decision_task_DD_L5,2021.2.3,Win32,60.0240096,,,,,,,,,,,0.6869,1,,,,,,,,,,,,,,m,1,0.6869,,,,,,,,0.087962963,-0.255555556,0,0,0,,0,85,85,67,1,POKER,LB,old,m,./images/POKERLB.png,,,,,,,,,,,,,,,,,,,,,,,,,,,,,,,,,,,
,,,,,,,,,,,,,,,,,611082ee9fd766aaaf0126db,24,2022-02-12_16h58.19.802,lexical_decision_task_DD_L5,2021.2.3,Win32,60.0240096,,,,,,,,,,,0.6836,1,,,,,,,,,,,,,,z,1,0.6836,,,,,,,,0.087962963,-0.255555556,0,0,0,,0,86,86,131,1,NACES,LB,old,z,./images/NACESLB.png,,,,,,,,,,,,,,,,,,,,,,,,,,,,,,,,,,,
,,,,,,,,,,,,,,,,,611082ee9fd766aaaf0126db,24,2022-02-12_16h58.19.802,lexical_decision_task_DD_L5,2021.2.3,Win32,60.0240096,,,,,,,,,,,0.665,1,,,,,,,,,,,,,,z,1,0.665,,,,,,,,0.087962963,-0.255555556,0,0,0,,0,87,87,126,1,GUELS,C,old,z,./images/GUELS.png,,,,,,,,,,,,,,,,,,,,,,,,,,,,,,,,,,,
,,,,,,,,,,,,,,,,,611082ee9fd766aaaf0126db,24,2022-02-12_16h58.19.802,lexical_decision_task_DD_L5,2021.2.3,Win32,60.0240096,,,,,,,,,,,1.5557,1,,,,,,,,,,,,,,z,1,1.5557,,,,,,,,0.087962963,-0.255555556,0,0,0,,0,88,88,91,1,SHENS,HB,old,z,./images/SHENSHB.png,,,,,,,,,,,,,,,,,,,,,,,,,,,,,,,,,,,
,,,,,,,,,,,,,,,,,611082ee9fd766aaaf0126db,24,2022-02-12_16h58.19.802,lexical_decision_task_DD_L5,2021.2.3,Win32,60.0240096,,,,,,,,,,,0.8566,1,,,,,,,,,,,,,,m,1,0.8566,,,,,,,,0.087962963,-0.255555556,0,0,0,,0,89,89,69,1,ARROW,HB,old,m,./images/ARROWHB.png,,,,,,,,,,,,,,,,,,,,,,,,,,,,,,,,,,,
,,,,,,,,,,,,,,,,,611082ee9fd766aaaf0126db,24,2022-02-12_16h58.19.802,lexical_decision_task_DD_L5,2021.2.3,Win32,60.0240096,,,,,,,,,,,0.6537,1,,,,,,,,,,,,,,m,1,0.6537,,,,,,,,0.087962963,-0.255555556,0,0,0,,0,90,90,26,1,CLOUD,C,old,m,./images/CLOUD.png,,,,,,,,,,,,,,,,,,,,,,,,,,,,,,,,,,,
,,,,,,,,,,,,,,,,,611082ee9fd766aaaf0126db,24,2022-02-12_16h58.19.802,lexical_decision_task_DD_L5,2021.2.3,Win32,60.0240096,,,,,,,,,,,0.8389,1,,,,,,,,,,,,,,z,1,0.8389,,,,,,,,0.087962963,-0.255555556,0,0,0,,0,91,91,142,1,PLASK,HB,old,z,./images/PLASKHB.png,,,,,,,,,,,,,,,,,,,,,,,,,,,,,,,,,,,
,,,,,,,,,,,,,,,,,611082ee9fd766aaaf0126db,24,2022-02-12_16h58.19.802,lexical_decision_task_DD_L5,2021.2.3,Win32,60.0240096,,,,,,,,,,,0.5919,1,,,,,,,,,,,,,,m,1,0.5919,,,,,,,,0.087962963,-0.255555556,0,0,0,,0,92,92,74,1,JUMPER,C,old,m,./images/JUMPER.png,,,,,,,,,,,,,,,,,,,,,,,,,,,,,,,,,,,
,,,,,,,,,,,,,,,,,611082ee9fd766aaaf0126db,24,2022-02-12_16h58.19.802,lexical_decision_task_DD_L5,2021.2.3,Win32,60.0240096,,,,,,,,,,,0.7792,1,,,,,,,,,,,,,,m,1,0.7792,,,,,,,,0.087962963,-0.255555556,0,0,0,,0,93,93,53,1,POSTER,C,old,m,./images/POSTER.png,,,,,,,,,,,,,,,,,,,,,,,,,,,,,,,,,,,
,,,,,,,,,,,,,,,,,611082ee9fd766aaaf0126db,24,2022-02-12_16h58.19.802,lexical_decision_task_DD_L5,2021.2.3,Win32,60.0240096,,,,,,,,,,,0.6474,1,,,,,,,,,,,,,,m,1,0.6474,,,,,,,,0.087962963,-0.255555556,0,0,0,,0,94,94,44,1,BASKET,C,old,m,./images/BASKET.png,,,,,,,,,,,,,,,,,,,,,,,,,,,,,,,,,,,
,,,,,,,,,,,,,,,,,611082ee9fd766aaaf0126db,24,2022-02-12_16h58.19.802,lexical_decision_task_DD_L5,2021.2.3,Win32,60.0240096,,,,,,,,,,,0.775,1,,,,,,,,,,,,,,z,1,0.775,,,,,,,,0.087962963,-0.255555556,0,0,0,,0,95,95,140,1,DOVET,LB,old,z,./images/DOVETLB.png,,,,,,,,,,,,,,,,,,,,,,,,,,,,,,,,,,,
,,,,,,,,,,,,,,,,,611082ee9fd766aaaf0126db,24,2022-02-12_16h58.19.802,lexical_decision_task_DD_L5,2021.2.3,Win32,60.0240096,,,,,,,,,,,1.2676,1,,,,,,,,,,,,,,z,1,1.2676,,,,,,,,0.087962963,-0.255555556,0,0,0,,0,96,96,100,1,DRIBS,HB,old,z,./images/DRIBSHB.png,,,,,,,,,,,,,,,,,,,,,,,,,,,,,,,,,,,
,,,,,,,,,,,,,,,,,611082ee9fd766aaaf0126db,24,2022-02-12_16h58.19.802,lexical_decision_task_DD_L5,2021.2.3,Win32,60.0240096,,,,,,,,,,,1.2988,1,,,,,,,,,,,,,,m,1,1.2988,,,,,,,,0.087962963,-0.255555556,0,0,0,,0,97,97,42,1,CHAIN,HB,old,m,./images/CHAINHB.png,,,,,,,,,,,,,,,,,,,,,,,,,,,,,,,,,,,
,,,,,,,,,,,,,,,,,611082ee9fd766aaaf0126db,24,2022-02-12_16h58.19.802,lexical_decision_task_DD_L5,2021.2.3,Win32,60.0240096,,,,,,,,,,,0.7035,1,,,,,,,,,,,,,,z,1,0.7035,,,,,,,,0.087962963,-0.255555556,0,0,0,,0,98,98,102,1,DULLE,C,old,z,./images/DULLE.png,,,,,,,,,,,,,,,,,,,,,,,,,,,,,,,,,,,
,,,,,,,,,,,,,,,,,611082ee9fd766aaaf0126db,24,2022-02-12_16h58.19.802,lexical_decision_task_DD_L5,2021.2.3,Win32,60.0240096,,,,,,,,,,,0.7681,1,,,,,,,,,,,,,,m,1,0.7681,,,,,,,,0.087962963,-0.255555556,0,0,0,,0,99,99,49,1,BISHOP,LB,old,m,./images/BISHOPLB.png,,,,,,,,,,,,,,,,,,,,,,,,,,,,,,,,,,,
,,,,,,,,,,,,,,,,,611082ee9fd766aaaf0126db,24,2022-02-12_16h58.19.802,lexical_decision_task_DD_L5,2021.2.3,Win32,60.0240096,,,,,,,,,,,0.6339,1,,,,,,,,,,,,,,z,1,0.6339,,,,,,,,0.087962963,-0.255555556,0,0,0,,0,100,100,137,1,JOOST,LB,old,z,./images/JOOSTLB.png,,,,,,,,,,,,,,,,,,,,,,,,,,,,,,,,,,,
,,,,,,,,,,,,,,,,,611082ee9fd766aaaf0126db,24,2022-02-12_16h58.19.802,lexical_decision_task_DD_L5,2021.2.3,Win32,60.0240096,,,,,,,,,,,0.9672,1,,,,,,,,,,,,,,z,1,0.9672,,,,,,,,0.087962963,-0.255555556,0,0,0,,0,101,101,139,1,BLEAR,HB,old,z,./images/BLEARHB.png,,,,,,,,,,,,,,,,,,,,,,,,,,,,,,,,,,,
,,,,,,,,,,,,,,,,,611082ee9fd766aaaf0126db,24,2022-02-12_16h58.19.802,lexical_decision_task_DD_L5,2021.2.3,Win32,60.0240096,,,,,,,,,,,1.6662,1,,,,,,,,,,,,,,z,1,1.6662,,,,,,,,0.087962963,-0.255555556,0,0,0,,0,102,102,136,1,WERVE,HB,old,z,./images/WERVEHB.png,,,,,,,,,,,,,,,,,,,,,,,,,,,,,,,,,,,
,,,,,,,,,,,,,,,,,611082ee9fd766aaaf0126db,24,2022-02-12_16h58.19.802,lexical_decision_task_DD_L5,2021.2.3,Win32,60.0240096,,,,,,,,,,,0.7174,1,,,,,,,,,,,,,,z,1,0.7174,,,,,,,,0.087962963,-0.255555556,0,0,0,,0,103,103,158,1,EGECT,LB,old,z,./images/EGECTLB.png,,,,,,,,,,,,,,,,,,,,,,,,,,,,,,,,,,,
,,,,,,,,,,,,,,,,,611082ee9fd766aaaf0126db,24,2022-02-12_16h58.19.802,lexical_decision_task_DD_L5,2021.2.3,Win32,60.0240096,,,,,,,,,,,0.7978,1,,,,,,,,,,,,,,m,1,0.7978,,,,,,,,0.087962963,-0.255555556,0,0,0,,0,104,104,28,1,CASINO,LB,old,m,./images/CASINOLB.png,,,,,,,,,,,,,,,,,,,,,,,,,,,,,,,,,,,
,,,,,,,,,,,,,,,,,611082ee9fd766aaaf0126db,24,2022-02-12_16h58.19.802,lexical_decision_task_DD_L5,2021.2.3,Win32,60.0240096,,,,,,,,,,,0.7171,1,,,,,,,,,,,,,,m,1,0.7171,,,,,,,,0.087962963,-0.255555556,0,0,0,,0,105,105,0,1,WALNUT,HB,old,m,./images/WALNUTHB.png,,,,,,,,,,,,,,,,,,,,,,,,,,,,,,,,,,,
,,,,,,,,,,,,,,,,,611082ee9fd766aaaf0126db,24,2022-02-12_16h58.19.802,lexical_decision_task_DD_L5,2021.2.3,Win32,60.0240096,,,,,,,,,,,0.5857,1,,,,,,,,,,,,,,m,1,0.5857,,,,,,,,0.087962963,-0.255555556,0,0,0,,0,106,106,13,1,BUNNY,LB,old,m,./images/BUNNYLB.png,,,,,,,,,,,,,,,,,,,,,,,,,,,,,,,,,,,
,,,,,,,,,,,,,,,,,611082ee9fd766aaaf0126db,24,2022-02-12_16h58.19.802,lexical_decision_task_DD_L5,2021.2.3,Win32,60.0240096,,,,,,,,,,,0.6753,1,,,,,,,,,,,,,,z,1,0.6753,,,,,,,,0.087962963,-0.255555556,0,0,0,,0,107,107,93,1,SMONE,C,old,z,./images/SMONE.png,,,,,,,,,,,,,,,,,,,,,,,,,,,,,,,,,,,
,,,,,,,,,,,,,,,,,611082ee9fd766aaaf0126db,24,2022-02-12_16h58.19.802,lexical_decision_task_DD_L5,2021.2.3,Win32,60.0240096,,,,,,,,,,,0.6901,1,,,,,,,,,,,,,,z,1,0.6901,,,,,,,,0.087962963,-0.255555556,0,0,0,,0,108,108,114,1,RIKES,C,old,z,./images/RIKES.png,,,,,,,,,,,,,,,,,,,,,,,,,,,,,,,,,,,
,,,,,,,,,,,,,,,,,611082ee9fd766aaaf0126db,24,2022-02-12_16h58.19.802,lexical_decision_task_DD_L5,2021.2.3,Win32,60.0240096,,,,,,,,,,,0.6413,1,,,,,,,,,,,,,,z,1,0.6413,,,,,,,,0.087962963,-0.255555556,0,0,0,,0,109,109,96,1,KEAMS,C,old,z,./images/KEAMS.png,,,,,,,,,,,,,,,,,,,,,,,,,,,,,,,,,,,
,,,,,,,,,,,,,,,,,611082ee9fd766aaaf0126db,24,2022-02-12_16h58.19.802,lexical_decision_task_DD_L5,2021.2.3,Win32,60.0240096,,,,,,,,,,,0.7079,1,,,,,,,,,,,,,,m,1,0.7079,,,,,,,,0.087962963,-0.255555556,0,0,0,,0,110,110,62,1,MAMMAL,C,old,m,./images/MAMMAL.png,,,,,,,,,,,,,,,,,,,,,,,,,,,,,,,,,,,
,,,,,,,,,,,,,,,,,611082ee9fd766aaaf0126db,24,2022-02-12_16h58.19.802,lexical_decision_task_DD_L5,2021.2.3,Win32,60.0240096,,,,,,,,,,,0.9583,1,,,,,,,,,,,,,,z,1,0.9583,,,,,,,,0.087962963,-0.255555556,0,0,0,,0,111,111,134,1,TROSS,LB,old,z,./images/TROSSLB.png,,,,,,,,,,,,,,,,,,,,,,,,,,,,,,,,,,,
,,,,,,,,,,,,,,,,,611082ee9fd766aaaf0126db,24,2022-02-12_16h58.19.802,lexical_decision_task_DD_L5,2021.2.3,Win32,60.0240096,,,,,,,,,,,0.8319,1,,,,,,,,,,,,,,m,1,0.8319,,,,,,,,0.087962963,-0.255555556,0,0,0,,0,112,112,83,1,WHISKY,C,old,m,./images/WHISKY.png,,,,,,,,,,,,,,,,,,,,,,,,,,,,,,,,,,,
,,,,,,,,,,,,,,,,,611082ee9fd766aaaf0126db,24,2022-02-12_16h58.19.802,lexical_decision_task_DD_L5,2021.2.3,Win32,60.0240096,,,,,,,,,,,0.6736,1,,,,,,,,,,,,,,m,1,0.6736,,,,,,,,0.087962963,-0.255555556,0,0,0,,0,113,113,16,1,GRAPE,LB,old,m,./images/GRAPELB.png,,,,,,,,,,,,,,,,,,,,,,,,,,,,,,,,,,,
,,,,,,,,,,,,,,,,,611082ee9fd766aaaf0126db,24,2022-02-12_16h58.19.802,lexical_decision_task_DD_L5,2021.2.3,Win32,60.0240096,,,,,,,,,,,1.0896,1,,,,,,,,,,,,,,m,1,1.0896,,,,,,,,0.087962963,-0.255555556,0,0,0,,0,114,114,63,1,BAKER,HB,old,m,./images/BAKERHB.png,,,,,,,,,,,,,,,,,,,,,,,,,,,,,,,,,,,
,,,,,,,,,,,,,,,,,611082ee9fd766aaaf0126db,24,2022-02-12_16h58.19.802,lexical_decision_task_DD_L5,2021.2.3,Win32,60.0240096,,,,,,,,,,,0.6736,1,,,,,,,,,,,,,,m,1,0.6736,,,,,,,,0.087962963,-0.255555556,0,0,0,,0,115,115,32,1,HOCKEY,C,old,m,./images/HOCKEY.png,,,,,,,,,,,,,,,,,,,,,,,,,,,,,,,,,,,
,,,,,,,,,,,,,,,,,611082ee9fd766aaaf0126db,24,2022-02-12_16h58.19.802,lexical_decision_task_DD_L5,2021.2.3,Win32,60.0240096,,,,,,,,,,,0.8494,1,,,,,,,,,,,,,,z,1,0.8494,,,,,,,,0.087962963,-0.255555556,0,0,0,,0,116,116,159,1,CUDDY,C,old,z,./images/CUDDY.png,,,,,,,,,,,,,,,,,,,,,,,,,,,,,,,,,,,
,,,,,,,,,,,,,,,,,611082ee9fd766aaaf0126db,24,2022-02-12_16h58.19.802,lexical_decision_task_DD_L5,2021.2.3,Win32,60.0240096,,,,,,,,,,,0.787,1,,,,,,,,,,,,,,m,1,0.787,,,,,,,,0.087962963,-0.255555556,0,0,0,,0,117,117,68,1,VALLEY,C,old,m,./images/VALLEY.png,,,,,,,,,,,,,,,,,,,,,,,,,,,,,,,,,,,
,,,,,,,,,,,,,,,,,611082ee9fd766aaaf0126db,24,2022-02-12_16h58.19.802,lexical_decision_task_DD_L5,2021.2.3,Win32,60.0240096,,,,,,,,,,,0.6491,1,,,,,,,,,,,,,,m,1,0.6491,,,,,,,,0.087962963,-0.255555556,0,0,0,,0,118,118,31,1,STEAK,LB,old,m,./images/STEAKLB.png,,,,,,,,,,,,,,,,,,,,,,,,,,,,,,,,,,,
,,,,,,,,,,,,,,,,,611082ee9fd766aaaf0126db,24,2022-02-12_16h58.19.802,lexical_decision_task_DD_L5,2021.2.3,Win32,60.0240096,,,,,,,,,,,0.9396,1,,,,,,,,,,,,,,m,1,0.9396,,,,,,,,0.087962963,-0.255555556,0,0,0,,0,119,119,18,1,PARCEL,HB,old,m,./images/PARCELHB.png,,,,,,,,,,,,,,,,,,,,,,,,,,,,,,,,,,,
,,,,,,,,,,,,,,,,,611082ee9fd766aaaf0126db,24,2022-02-12_16h58.19.802,lexical_decision_task_DD_L5,2021.2.3,Win32,60.0240096,,,,,,,,,,,0.632,1,,,,,,,,,,,,,,m,1,0.632,,,,,,,,0.087962963,-0.255555556,0,0,0,,0,120,120,71,1,BUBBLE,C,old,m,./images/BUBBLE.png,,,,,,,,,,,,,,,,,,,,,,,,,,,,,,,,,,,
,,,,,,,,,,,,,,,,,611082ee9fd766aaaf0126db,24,2022-02-12_16h58.19.802,lexical_decision_task_DD_L5,2021.2.3,Win32,60.0240096,,,,,,,,,,,0.5829,1,,,,,,,,,,,,,,m,1,0.5829,,,,,,,,0.087962963,-0.255555556,0,0,0,,0,121,121,29,1,PISTOL,C,old,m,./images/PISTOL.png,,,,,,,,,,,,,,,,,,,,,,,,,,,,,,,,,,,
,,,,,,,,,,,,,,,,,611082ee9fd766aaaf0126db,24,2022-02-12_16h58.19.802,lexical_decision_task_DD_L5,2021.2.3,Win32,60.0240096,,,,,,,,,,,1.1361,1,,,,,,,,,,,,,,z,1,1.1361,,,,,,,,0.087962963,-0.255555556,0,0,0,,0,122,122,163,1,GAMBA,HB,old,z,./images/GAMBAHB.png,,,,,,,,,,,,,,,,,,,,,,,,,,,,,,,,,,,
,,,,,,,,,,,,,,,,,611082ee9fd766aaaf0126db,24,2022-02-12_16h58.19.802,lexical_decision_task_DD_L5,2021.2.3,Win32,60.0240096,,,,,,,,,,,1.0586,1,,,,,,,,,,,,,,z,1,1.0586,,,,,,,,0.087962963,-0.255555556,0,0,0,,0,123,123,130,1,CRILL,HB,old,z,./images/CRILLHB.png,,,,,,,,,,,,,,,,,,,,,,,,,,,,,,,,,,,
,,,,,,,,,,,,,,,,,611082ee9fd766aaaf0126db,24,2022-02-12_16h58.19.802,lexical_decision_task_DD_L5,2021.2.3,Win32,60.0240096,,,,,,,,,,,1.082,1,,,,,,,,,,,,,,m,1,1.082,,,,,,,,0.087962963,-0.255555556,0,0,0,,0,124,124,72,1,FLASK,HB,old,m,./images/FLASKHB.png,,,,,,,,,,,,,,,,,,,,,,,,,,,,,,,,,,,
,,,,,,,,,,,,,,,,,611082ee9fd766aaaf0126db,24,2022-02-12_16h58.19.802,lexical_decision_task_DD_L5,2021.2.3,Win32,60.0240096,,,,,,,,,,,0.8762,1,,,,,,,,,,,,,,z,1,0.8762,,,,,,,,0.087962963,-0.255555556,0,0,0,space,0,125,125,133,1,POWDY,HB,old,z,./images/POWDYHB.png,0.9512,,,,,,,,,,,,,,,,,,,,,,,,,,,,,,,,,,
,,,,,,,,,,,,,,,,,611082ee9fd766aaaf0126db,24,2022-02-12_16h58.19.802,lexical_decision_task_DD_L5,2021.2.3,Win32,60.0240096,,,,,,,,,,,0.7485,1,,,,,,,,,,,,,,m,1,0.7485,,,,,,,,0.087962963,-0.255555556,0,0,0,,0,126,126,27,1,BUTTER,HB,old,m,./images/BUTTERHB.png,,,,,,,,,,,,,,,,,,,,,,,,,,,,,,,,,,,
,,,,,,,,,,,,,,,,,611082ee9fd766aaaf0126db,24,2022-02-12_16h58.19.802,lexical_decision_task_DD_L5,2021.2.3,Win32,60.0240096,,,,,,,,,,,0.7123,1,,,,,,,,,,,,,,m,1,0.7123,,,,,,,,0.087962963,-0.255555556,0,0,0,,0,127,127,38,1,ENGINE,C,old,m,./images/ENGINE.png,,,,,,,,,,,,,,,,,,,,,,,,,,,,,,,,,,,
,,,,,,,,,,,,,,,,,611082ee9fd766aaaf0126db,24,2022-02-12_16h58.19.802,lexical_decision_task_DD_L5,2021.2.3,Win32,60.0240096,,,,,,,,,,,0.6919,1,,,,,,,,,,,,,,z,1,0.6919,,,,,,,,0.087962963,-0.255555556,0,0,0,,0,128,128,144,1,NAIRY,C,old,z,./images/NAIRY.png,,,,,,,,,,,,,,,,,,,,,,,,,,,,,,,,,,,
,,,,,,,,,,,,,,,,,611082ee9fd766aaaf0126db,24,2022-02-12_16h58.19.802,lexical_decision_task_DD_L5,2021.2.3,Win32,60.0240096,,,,,,,,,,,0.7054,1,,,,,,,,,,,,,,z,1,0.7054,,,,,,,,0.087962963,-0.255555556,0,0,0,,0,129,129,89,1,DRIEK,LB,old,z,./images/DRIEKLB.png,,,,,,,,,,,,,,,,,,,,,,,,,,,,,,,,,,,
,,,,,,,,,,,,,,,,,611082ee9fd766aaaf0126db,24,2022-02-12_16h58.19.802,lexical_decision_task_DD_L5,2021.2.3,Win32,60.0240096,,,,,,,,,,,1.3704,1,,,,,,,,,,,,,,m,1,1.3704,,,,,,,,0.087962963,-0.255555556,0,0,0,,0,130,130,3,1,CRATER,HB,old,m,./images/CRATERHB.png,,,,,,,,,,,,,,,,,,,,,,,,,,,,,,,,,,,
,,,,,,,,,,,,,,,,,611082ee9fd766aaaf0126db,24,2022-02-12_16h58.19.802,lexical_decision_task_DD_L5,2021.2.3,Win32,60.0240096,,,,,,,,,,,0.6486,1,,,,,,,,,,,,,,m,1,0.6486,,,,,,,,0.087962963,-0.255555556,0,0,0,,0,131,131,10,1,GARDEN,LB,old,m,./images/GARDENLB.png,,,,,,,,,,,,,,,,,,,,,,,,,,,,,,,,,,,
,,,,,,,,,,,,,,,,,611082ee9fd766aaaf0126db,24,2022-02-12_16h58.19.802,lexical_decision_task_DD_L5,2021.2.3,Win32,60.0240096,,,,,,,,,,,1.3601,1,,,,,,,,,,,,,,z,1,1.3601,,,,,,,,0.087962963,-0.255555556,0,0,0,,0,132,132,151,1,TINKY,HB,old,z,./images/TINKYHB.png,,,,,,,,,,,,,,,,,,,,,,,,,,,,,,,,,,,
,,,,,,,,,,,,,,,,,611082ee9fd766aaaf0126db,24,2022-02-12_16h58.19.802,lexical_decision_task_DD_L5,2021.2.3,Win32,60.0240096,,,,,,,,,,,0.7317,1,,,,,,,,,,,,,,m,1,0.7317,,,,,,,,0.087962963,-0.255555556,0,0,0,,0,133,133,9,1,DIVER,HB,old,m,./images/DIVERHB.png,,,,,,,,,,,,,,,,,,,,,,,,,,,,,,,,,,,
,,,,,,,,,,,,,,,,,611082ee9fd766aaaf0126db,24,2022-02-12_16h58.19.802,lexical_decision_task_DD_L5,2021.2.3,Win32,60.0240096,,,,,,,,,,,0.7438,1,,,,,,,,,,,,,,m,1,0.7438,,,,,,,,0.087962963,-0.255555556,0,0,0,,0,134,134,66,1,STATUE,HB,old,m,./images/STATUEHB.png,,,,,,,,,,,,,,,,,,,,,,,,,,,,,,,,,,,
,,,,,,,,,,,,,,,,,611082ee9fd766aaaf0126db,24,2022-02-12_16h58.19.802,lexical_decision_task_DD_L5,2021.2.3,Win32,60.0240096,,,,,,,,,,,0.8244,1,,,,,,,,,,,,,,z,1,0.8244,,,,,,,,0.087962963,-0.255555556,0,0,0,,0,135,135,120,1,RINED,C,old,z,./images/RINED.png,,,,,,,,,,,,,,,,,,,,,,,,,,,,,,,,,,,
,,,,,,,,,,,,,,,,,611082ee9fd766aaaf0126db,24,2022-02-12_16h58.19.802,lexical_decision_task_DD_L5,2021.2.3,Win32,60.0240096,,,,,,,,,,,0.9423,1,,,,,,,,,,,,,,m,1,0.9423,,,,,,,,0.087962963,-0.255555556,0,0,0,,0,136,136,40,1,SNAKE,LB,old,m,./images/SNAKELB.png,,,,,,,,,,,,,,,,,,,,,,,,,,,,,,,,,,,
,,,,,,,,,,,,,,,,,611082ee9fd766aaaf0126db,24,2022-02-12_16h58.19.802,lexical_decision_task_DD_L5,2021.2.3,Win32,60.0240096,,,,,,,,,,,0.7222,1,,,,,,,,,,,,,,z,1,0.7222,,,,,,,,0.087962963,-0.255555556,0,0,0,,0,137,137,122,1,BLOOT,LB,old,z,./images/BLOOTLB.png,,,,,,,,,,,,,,,,,,,,,,,,,,,,,,,,,,,
,,,,,,,,,,,,,,,,,611082ee9fd766aaaf0126db,24,2022-02-12_16h58.19.802,lexical_decision_task_DD_L5,2021.2.3,Win32,60.0240096,,,,,,,,,,,0.8829,1,,,,,,,,,,,,,,z,1,0.8829,,,,,,,,0.087962963,-0.255555556,0,0,0,,0,138,138,107,1,FASKS,LB,old,z,./images/FASKSLB.png,,,,,,,,,,,,,,,,,,,,,,,,,,,,,,,,,,,
,,,,,,,,,,,,,,,,,611082ee9fd766aaaf0126db,24,2022-02-12_16h58.19.802,lexical_decision_task_DD_L5,2021.2.3,Win32,60.0240096,,,,,,,,,,,0.7831,1,,,,,,,,,,,,,,m,1,0.7831,,,,,,,,0.087962963,-0.255555556,0,0,0,,0,139,139,59,1,BRUSH,C,old,m,./images/BRUSH.png,,,,,,,,,,,,,,,,,,,,,,,,,,,,,,,,,,,
,,,,,,,,,,,,,,,,,611082ee9fd766aaaf0126db,24,2022-02-12_16h58.19.802,lexical_decision_task_DD_L5,2021.2.3,Win32,60.0240096,,,,,,,,,,,0.6619,1,,,,,,,,,,,,,,m,1,0.6619,,,,,,,,0.087962963,-0.255555556,0,0,0,,0,140,140,64,1,BRIDE,LB,old,m,./images/BRIDELB.png,,,,,,,,,,,,,,,,,,,,,,,,,,,,,,,,,,,
,,,,,,,,,,,,,,,,,611082ee9fd766aaaf0126db,24,2022-02-12_16h58.19.802,lexical_decision_task_DD_L5,2021.2.3,Win32,60.0240096,,,,,,,,,,,0.8639,1,,,,,,,,,,,,,,m,1,0.8639,,,,,,,,0.087962963,-0.255555556,0,0,0,,0,141,141,48,1,SHIELD,HB,old,m,./images/SHIELDHB.png,,,,,,,,,,,,,,,,,,,,,,,,,,,,,,,,,,,
,,,,,,,,,,,,,,,,,611082ee9fd766aaaf0126db,24,2022-02-12_16h58.19.802,lexical_decision_task_DD_L5,2021.2.3,Win32,60.0240096,,,,,,,,,,,0.6196,1,,,,,,,,,,,,,,m,1,0.6196,,,,,,,,0.087962963,-0.255555556,0,0,0,,0,142,142,56,1,HEATER,C,old,m,./images/HEATER.png,,,,,,,,,,,,,,,,,,,,,,,,,,,,,,,,,,,
,,,,,,,,,,,,,,,,,611082ee9fd766aaaf0126db,24,2022-02-12_16h58.19.802,lexical_decision_task_DD_L5,2021.2.3,Win32,60.0240096,,,,,,,,,,,0.6822,1,,,,,,,,,,,,,,m,1,0.6822,,,,,,,,0.087962963,-0.255555556,0,0,0,,0,143,143,39,1,CANDY,HB,old,m,./images/CANDYHB.png,,,,,,,,,,,,,,,,,,,,,,,,,,,,,,,,,,,
,,,,,,,,,,,,,,,,,611082ee9fd766aaaf0126db,24,2022-02-12_16h58.19.802,lexical_decision_task_DD_L5,2021.2.3,Win32,60.0240096,,,,,,,,,,,0.6581,1,,,,,,,,,,,,,,m,1,0.6581,,,,,,,,0.087962963,-0.255555556,0,0,0,,0,144,144,20,1,GRANNY,C,old,m,./images/GRANNY.png,,,,,,,,,,,,,,,,,,,,,,,,,,,,,,,,,,,
,,,,,,,,,,,,,,,,,611082ee9fd766aaaf0126db,24,2022-02-12_16h58.19.802,lexical_decision_task_DD_L5,2021.2.3,Win32,60.0240096,,,,,,,,,,,0.708,1,,,,,,,,,,,,,,z,1,0.708,,,,,,,,0.087962963,-0.255555556,0,0,0,,0,145,145,135,1,JOODY,C,old,z,./images/JOODY.png,,,,,,,,,,,,,,,,,,,,,,,,,,,,,,,,,,,
,,,,,,,,,,,,,,,,,611082ee9fd766aaaf0126db,24,2022-02-12_16h58.19.802,lexical_decision_task_DD_L5,2021.2.3,Win32,60.0240096,,,,,,,,,,,0.7553,1,,,,,,,,,,,,,,z,1,0.7553,,,,,,,,0.087962963,-0.255555556,0,0,0,,0,146,146,155,1,CANGY,LB,old,z,./images/CANGYLB.png,,,,,,,,,,,,,,,,,,,,,,,,,,,,,,,,,,,
,,,,,,,,,,,,,,,,,611082ee9fd766aaaf0126db,24,2022-02-12_16h58.19.802,lexical_decision_task_DD_L5,2021.2.3,Win32,60.0240096,,,,,,,,,,,1.118,1,,,,,,,,,,,,,,z,1,1.118,,,,,,,,0.087962963,-0.255555556,0,0,0,,0,147,147,94,1,BLANS,HB,old,z,./images/BLANSHB.png,,,,,,,,,,,,,,,,,,,,,,,,,,,,,,,,,,,
,,,,,,,,,,,,,,,,,611082ee9fd766aaaf0126db,24,2022-02-12_16h58.19.802,lexical_decision_task_DD_L5,2021.2.3,Win32,60.0240096,,,,,,,,,,,0.6506,1,,,,,,,,,,,,,,m,1,0.6506,,,,,,,,0.087962963,-0.255555556,0,0,0,,0,148,148,17,1,PARADE,C,old,m,./images/PARADE.png,,,,,,,,,,,,,,,,,,,,,,,,,,,,,,,,,,,
,,,,,,,,,,,,,,,,,611082ee9fd766aaaf0126db,24,2022-02-12_16h58.19.802,lexical_decision_task_DD_L5,2021.2.3,Win32,60.0240096,,,,,,,,,,,0.7255,1,,,,,,,,,,,,,,z,1,0.7255,,,,,,,,0.087962963,-0.255555556,0,0,0,,0,149,149,99,1,BACKY,C,old,z,./images/BACKY.png,,,,,,,,,,,,,,,,,,,,,,,,,,,,,,,,,,,
,,,,,,,,,,,,,,,,,611082ee9fd766aaaf0126db,24,2022-02-12_16h58.19.802,lexical_decision_task_DD_L5,2021.2.3,Win32,60.0240096,,,,,,,,,,,0.6269,1,,,,,,,,,,,,,,m,1,0.6269,,,,,,,,0.087962963,-0.255555556,0,0,0,,0,150,150,11,1,MEDAL,C,old,m,./images/MEDAL.png,,,,,,,,,,,,,,,,,,,,,,,,,,,,,,,,,,,
,,,,,,,,,,,,,,,,,611082ee9fd766aaaf0126db,24,2022-02-12_16h58.19.802,lexical_decision_task_DD_L5,2021.2.3,Win32,60.0240096,,,,,,,,,,,0.6494,1,,,,,,,,,,,,,,z,1,0.6494,,,,,,,,0.087962963,-0.255555556,0,0,0,,0,151,151,156,1,HIXES,C,old,z,./images/HIXES.png,,,,,,,,,,,,,,,,,,,,,,,,,,,,,,,,,,,
,,,,,,,,,,,,,,,,,611082ee9fd766aaaf0126db,24,2022-02-12_16h58.19.802,lexical_decision_task_DD_L5,2021.2.3,Win32,60.0240096,,,,,,,,,,,0.7574,1,,,,,,,,,,,,,,m,1,0.7574,,,,,,,,0.087962963,-0.255555556,0,0,0,,0,152,152,60,1,CURRY,HB,old,m,./images/CURRYHB.png,,,,,,,,,,,,,,,,,,,,,,,,,,,,,,,,,,,
,,,,,,,,,,,,,,,,,611082ee9fd766aaaf0126db,24,2022-02-12_16h58.19.802,lexical_decision_task_DD_L5,2021.2.3,Win32,60.0240096,,,,,,,,,,,0.7836,1,,,,,,,,,,,,,,m,1,0.7836,,,,,,,,0.087962963,-0.255555556,0,0,0,,0,153,153,75,1,HAMMER,HB,old,m,./images/HAMMERHB.png,,,,,,,,,,,,,,,,,,,,,,,,,,,,,,,,,,,
,,,,,,,,,,,,,,,,,611082ee9fd766aaaf0126db,24,2022-02-12_16h58.19.802,lexical_decision_task_DD_L5,2021.2.3,Win32,60.0240096,,,,,,,,,,,0.7667,1,,,,,,,,,,,,,,m,1,0.7667,,,,,,,,0.087962963,-0.255555556,0,0,0,,0,154,154,80,1,PLANET,C,old,m,./images/PLANET.png,,,,,,,,,,,,,,,,,,,,,,,,,,,,,,,,,,,
,,,,,,,,,,,,,,,,,611082ee9fd766aaaf0126db,24,2022-02-12_16h58.19.802,lexical_decision_task_DD_L5,2021.2.3,Win32,60.0240096,,,,,,,,,,,0.9933,1,,,,,,,,,,,,,,m,1,0.9933,,,,,,,,0.087962963,-0.255555556,0,0,0,,0,155,155,30,1,SLOPE,HB,old,m,./images/SLOPEHB.png,,,,,,,,,,,,,,,,,,,,,,,,,,,,,,,,,,,
,,,,,,,,,,,,,,,,,611082ee9fd766aaaf0126db,24,2022-02-12_16h58.19.802,lexical_decision_task_DD_L5,2021.2.3,Win32,60.0240096,,,,,,,,,,,1.092,1,,,,,,,,,,,,,,m,1,1.092,,,,,,,,0.087962963,-0.255555556,0,0,0,,0,156,156,81,1,DRILL,HB,old,m,./images/DRILLHB.png,,,,,,,,,,,,,,,,,,,,,,,,,,,,,,,,,,,
,,,,,,,,,,,,,,,,,611082ee9fd766aaaf0126db,24,2022-02-12_16h58.19.802,lexical_decision_task_DD_L5,2021.2.3,Win32,60.0240096,,,,,,,,,,,0.6292,1,,,,,,,,,,,,,,m,1,0.6292,,,,,,,,0.087962963,-0.255555556,0,0,0,,0,157,157,1,1,TOWEL,LB,old,m,./images/TOWELLB.png,,,,,,,,,,,,,,,,,,,,,,,,,,,,,,,,,,,
,,,,,,,,,,,,,,,,,611082ee9fd766aaaf0126db,24,2022-02-12_16h58.19.802,lexical_decision_task_DD_L5,2021.2.3,Win32,60.0240096,,,,,,,,,,,1.3835,1,,,,,,,,,,,,,,z,1,1.3835,,,,,,,,0.087962963,-0.255555556,0,0,0,,0,158,158,162,1,LEICH,C,old,z,./images/LEICH.png,,,,,,,,,,,,,,,,,,,,,,,,,,,,,,,,,,,
,,,,,,,,,,,,,,,,,611082ee9fd766aaaf0126db,24,2022-02-12_16h58.19.802,lexical_decision_task_DD_L5,2021.2.3,Win32,60.0240096,,,,,,,,,,,0.7444,1,,,,,,,,,,,,,,m,1,0.7444,,,,,,,,0.087962963,-0.255555556,0,0,0,,0,159,159,14,1,FENCE,C,old,m,./images/FENCE.png,,,,,,,,,,,,,,,,,,,,,,,,,,,,,,,,,,,
,,,,,,,,,,,,,,,,,611082ee9fd766aaaf0126db,24,2022-02-12_16h58.19.802,lexical_decision_task_DD_L5,2021.2.3,Win32,60.0240096,,,,,,,,,,,0.7832,1,,,,,,,,,,,,,,m,1,0.7832,,,,,,,,0.087962963,-0.255555556,0,0,0,,0,160,160,6,1,STAIN,HB,old,m,./images/STAINHB.png,,,,,,,,,,,,,,,,,,,,,,,,,,,,,,,,,,,
,,,,,,,,,,,,,,,,,611082ee9fd766aaaf0126db,24,2022-02-12_16h58.19.802,lexical_decision_task_DD_L5,2021.2.3,Win32,60.0240096,,,,,,,,,,,0.6973,1,,,,,,,,,,,,,,m,1,0.6973,,,,,,,,0.087962963,-0.255555556,0,0,0,,0,161,161,73,1,GLOVE,LB,old,m,./images/GLOVELB.png,,,,,,,,,,,,,,,,,,,,,,,,,,,,,,,,,,,
,,,,,,,,,,,,,,,,,611082ee9fd766aaaf0126db,24,2022-02-12_16h58.19.802,lexical_decision_task_DD_L5,2021.2.3,Win32,60.0240096,,,,,,,,,,,0.9838,1,,,,,,,,,,,,,,z,1,0.9838,,,,,,,,0.087962963,-0.255555556,0,0,0,,0,162,162,127,1,NINDY,HB,old,z,./images/NINDYHB.png,,,,,,,,,,,,,,,,,,,,,,,,,,,,,,,,,,,
,,,,,,,,,,,,,,,,,611082ee9fd766aaaf0126db,24,2022-02-12_16h58.19.802,lexical_decision_task_DD_L5,2021.2.3,Win32,60.0240096,,,,,,,,,,,0.6991,1,,,,,,,,,,,,,,m,1,0.6991,,,,,,,,0.087962963,-0.255555556,0,0,0,,0,163,163,82,1,PEBBLE,LB,old,m,./images/PEBBLELB.png,,,,,,,,,,,,,,,,,,,,,,,,,,,,,,,,,,,
,,,,,,,,,,,,,,,,,611082ee9fd766aaaf0126db,24,2022-02-12_16h58.19.802,lexical_decision_task_DD_L5,2021.2.3,Win32,60.0240096,,,,,,,,,,,0.8773,1,,,,,,,,,,,,,,z,1,0.8773,,,,,,,,0.087962963,-0.255555556,0,0,0,,0,164,164,118,1,BAVEL,HB,old,z,./images/BAVELHB.png,,,,,,,,,,,,,,,,,,,,,,,,,,,,,,,,,,,
,,,,,,,,,,,,,,,,,611082ee9fd766aaaf0126db,24,2022-02-12_16h58.19.802,lexical_decision_task_DD_L5,2021.2.3,Win32,60.0240096,,,,,,,,,,,0.686,1,,,,,,,,,,,,,,m,1,0.686,,,,,,,,0.087962963,-0.255555556,0,0,0,,0,165,165,79,1,RULER,LB,old,m,./images/RULERLB.png,,,,,,,,,,,,,,,,,,,,,,,,,,,,,,,,,,,
,,,,,,,,,,,,,,,,,611082ee9fd766aaaf0126db,24,2022-02-12_16h58.19.802,lexical_decision_task_DD_L5,2021.2.3,Win32,60.0240096,,,,,,,,,,,1.1904,1,,,,,,,,,,,,,,z,1,1.1904,,,,,,,,0.087962963,-0.255555556,0,0,0,,0,166,166,157,1,INLER,HB,old,z,./images/INLERHB.png,,,,,,,,,,,,,,,,,,,,,,,,,,,,,,,,,,,
,,,,,,,,,,,,,,,,,611082ee9fd766aaaf0126db,24,2022-02-12_16h58.19.802,lexical_decision_task_DD_L5,2021.2.3,Win32,60.0240096,,,,,,,,,,,0.6447,1,,,,,,,,,,,,,,m,1,0.6447,,,,,,,,0.087962963,-0.255555556,0,0,0,,0,167,167,35,1,LLAMA,C,old,m,./images/LLAMA.png,,,,,,,,,,,,,,,,,,,,,,,,,,,,,,,,,,,
,,,,,,,,,,,,,,,,,611082ee9fd766aaaf0126db,24,2022-02-12_16h58.19.802,lexical_decision_task_DD_L5,2021.2.3,Win32,60.0240096,,,,,,,,,,,,,,,,,,,,,,,,,,,,,,,,,,,,,,,,,,,,,,,,How likely will it be that you will recognize the words presented very blurred on a scale of 0 (not likely) to 100 (most likely)?,,,,,0.022222222,-0.419444444,1,0,0,jol_adv,4,9.2618,0,0,0,2,1,,,,,,,,,,,,,,,,,,,,,
,,,,,,,,,,,,,,,,,611082ee9fd766aaaf0126db,24,2022-02-12_16h58.19.802,lexical_decision_task_DD_L5,2021.2.3,Win32,60.0240096,,,,,,,,,,,,,,,,,,,,,,,,,,,,,,,,,,,,,,,,,,,,,,,,How likely will it be that you will recognize the words presented clearly on a scale of 0 (not likely) to 100 (most likely)?,,,,,,,,,,,6,10.0841,0,1,1,0,1,,,,,,,,,,,,,,,,,,,,,
,,,,,,,,,,,,,,,,,611082ee9fd766aaaf0126db,24,2022-02-12_16h58.19.802,lexical_decision_task_DD_L5,2021.2.3,Win32,60.0240096,,,,,,,,,,,,,,,,,,,,,,,,,,,,,,,,,,,,,,,,,,,,,,,,How likely will it be that you will recognize the words presented slighly blurred on a scale of 0 (not likely) to 100 (most likely)?,,,,,,,,,,,5,4.6391,0,2,2,1,1,,,,,,,,,,,,,,,,,,,,,
space,18.6895,0.294444444,-0.2,0,0,0,,,,,,1,test,"In the next phase you will be presented with the words from the the first phase. Your job is to decide whether you remember seeing the word or not. If you remember seeing the word press ""old"" or type ""m"". If you do not remember seeing the word press ""new"" or type ""z"". Please press the space bar or click on continue to begin. ",,,611082ee9fd766aaaf0126db,24,2022-02-12_16h58.19.802,lexical_decision_task_DD_L5,2021.2.3,Win32,60.0240096,,,,,,,,,,,,,,,,,,,,,,,,,,,,,,,,,,,,,,,,,,,,,,,,,,,,,,,,,,,,,,,,,,0,0,0,0,1,,,,,,,,,,,,,,,,
space,2.1174,0.198148148,-0.339814815,0,0,0,,,,,,1,test,"In the next phase you will be presented with the words from the the first phase. Your job is to decide whether you remember seeing the word or not. If you remember seeing the word press ""old"" or type ""m"". If you do not remember seeing the word press ""new"" or type ""z"". Please press the space bar or click on continue to begin. ",,,611082ee9fd766aaaf0126db,24,2022-02-12_16h58.19.802,lexical_decision_task_DD_L5,2021.2.3,Win32,60.0240096,,,,,,,,,,,,,,,,,,,,,,,,,,,,,,,,,,,,,,,,,,,,,,,,,,,,,,,,,,,,,,,,,,1,0,1,0,1,,,,,,,,,,,,,,,,
,,0.110185185,-0.378703704,1,0,0,,,,,,1,test,"In the next phase you will be presented with the words from the the first phase. Your job is to decide whether you remember seeing the word or not. If you remember seeing the word press ""old"" or type ""m"". If you do not remember seeing the word press ""new"" or type ""z"". Please press the space bar or click on continue to begin. ",,,611082ee9fd766aaaf0126db,24,2022-02-12_16h58.19.802,lexical_decision_task_DD_L5,2021.2.3,Win32,60.0240096,,,,,,,,,,,,,,,,,,,,,,,,,,,,,,,,,,,,,,,,,,,,,,,,,,,,,,,,,,,,,,,,,,2,0,2,0,1,instr_done_button,,,,,,,,,,,,,,,
space,1.0157,0.013888889,-0.407407407,0,0,0,,,,,,1,test,"In the next phase you will be presented with the words from the the first phase. Your job is to decide whether you remember seeing the word or not. If you remember seeing the word press ""old"" or type ""m"". If you do not remember seeing the word press ""new"" or type ""z"". Please press the space bar or click on continue to begin. ",,,611082ee9fd766aaaf0126db,24,2022-02-12_16h58.19.802,lexical_decision_task_DD_L5,2021.2.3,Win32,60.0240096,,,,,,,,,,,,,,,,,,,,,,,,,,,,,,,,,,,,,,,,,,,,,,,,,,,,,,,,,,,,,,,,,,3,0,3,0,1,,,,,,,,,,,,,,,,
space,0.7559,-0.010185185,-0.402777778,0,0,0,,,,,,1,test,"In the next phase you will be presented with the words from the the first phase. Your job is to decide whether you remember seeing the word or not. If you remember seeing the word press ""old"" or type ""m"". If you do not remember seeing the word press ""new"" or type ""z"". Please press the space bar or click on continue to begin. ",,,611082ee9fd766aaaf0126db,24,2022-02-12_16h58.19.802,lexical_decision_task_DD_L5,2021.2.3,Win32,60.0240096,,,,,,,,,,,,,,,,,,,,,,,,,,,,,,,,,,,,,,,,,,,,,,,,,,,,,,,,,,,,,,,,,,4,0,4,0,1,,,,,,,,,,,,,,,,
,,,,,,,,,,,,,,,,,611082ee9fd766aaaf0126db,24,2022-02-12_16h58.19.802,lexical_decision_task_DD_L5,2021.2.3,Win32,60.0240096,,,,,,,,,,,2.9026,0,,,,,,,,,,,,,,,,,,,,,,,,-0.010185185,-0.402777778,0,0,0,,,,,,,CLOTH,C,m,y,./images/CLOTH.png,,,,,,,,,,,,,,,,,,,,,z,0,2.9026,,,,,,,,0,0,0,23,1
,,,,,,,,,,,,,,,,,611082ee9fd766aaaf0126db,24,2022-02-12_16h58.19.802,lexical_decision_task_DD_L5,2021.2.3,Win32,60.0240096,,,,,,,,,,,1.8767,1,,,,,,,,,,,,,,,,,,,,,,,,-0.010185185,-0.402777778,0,0,0,,,,,,,LAGOON,C,m,y,./images/LAGOON.png,,,,,,,,,,,,,,,,,,,,,m,1,1.8767,,,,,,,,0,1,1,47,1
,,,,,,,,,,,,,,,,,611082ee9fd766aaaf0126db,24,2022-02-12_16h58.19.802,lexical_decision_task_DD_L5,2021.2.3,Win32,60.0240096,,,,,,,,,,,1.9503,1,,,,,,,,,,,,,,,,,,,,,,,,-0.010185185,-0.402777778,0,0,0,,,,,,,DONKEY,LB,m,y,./images/DONKEYLB.png,,,,,,,,,,,,,,,,,,,,,m,1,1.9503,,,,,,,,0,2,2,19,1
,,,,,,,,,,,,,,,,,611082ee9fd766aaaf0126db,24,2022-02-12_16h58.19.802,lexical_decision_task_DD_L5,2021.2.3,Win32,60.0240096,,,,,,,,,,,1.1674,1,,,,,,,,,,,,,,,,,,,,,,,,-0.010185185,-0.402777778,0,0,0,,,,,,,BLOKE,HB,m,y,./images/BLOKEHB.png,,,,,,,,,,,,,,,,,,,,,m,1,1.1674,,,,,,,,0,3,3,12,1
,,,,,,,,,,,,,,,,,611082ee9fd766aaaf0126db,24,2022-02-12_16h58.19.802,lexical_decision_task_DD_L5,2021.2.3,Win32,60.0240096,,,,,,,,,,,1.1572,1,,,,,,,,,,,,,,,,,,,,,,,,-0.010185185,-0.402777778,0,0,0,,,,,,,SKIING,C,z,y,./images/SKIING.png,,,,,,,,,,,,,,,,,,,,,z,1,1.1572,,,,,,,,0,4,4,101,1
,,,,,,,,,,,,,,,,,611082ee9fd766aaaf0126db,24,2022-02-12_16h58.19.802,lexical_decision_task_DD_L5,2021.2.3,Win32,60.0240096,,,,,,,,,,,2.2528,0,,,,,,,,,,,,,,,,,,,,,,,,-0.010185185,-0.402777778,0,0,0,,,,,,,WHEEL,C,m,y,./images/WHEEL.png,,,,,,,,,,,,,,,,,,,,,z,0,2.2528,,,,,,,,0,5,5,77,1
,,,,,,,,,,,,,,,,,611082ee9fd766aaaf0126db,24,2022-02-12_16h58.19.802,lexical_decision_task_DD_L5,2021.2.3,Win32,60.0240096,,,,,,,,,,,0.9617,1,,,,,,,,,,,,,,,,,,,,,,,,-0.010185185,-0.402777778,0,0,0,,,,,,,SNACK,LB,z,y,./images/SNACKLB.png,,,,,,,,,,,,,,,,,,,,,z,1,0.9617,,,,,,,,0,6,6,157,1
,,,,,,,,,,,,,,,,,611082ee9fd766aaaf0126db,24,2022-02-12_16h58.19.802,lexical_decision_task_DD_L5,2021.2.3,Win32,60.0240096,,,,,,,,,,,1.1141,1,,,,,,,,,,,,,,,,,,,,,,,,-0.010185185,-0.402777778,0,0,0,,,,,,,BOXER,LB,m,y,./images/BOXERLB.png,,,,,,,,,,,,,,,,,,,,,m,1,1.1141,,,,,,,,0,7,7,4,1
,,,,,,,,,,,,,,,,,611082ee9fd766aaaf0126db,24,2022-02-12_16h58.19.802,lexical_decision_task_DD_L5,2021.2.3,Win32,60.0240096,,,,,,,,,,,0.965,0,,,,,,,,,,,,,,,,,,,,,,,,-0.010185185,-0.402777778,0,0,0,,,,,,,BOILER,HB,m,y,./images/BOILERHB.png,,,,,,,,,,,,,,,,,,,,,z,0,0.965,,,,,,,,0,8,8,36,1
,,,,,,,,,,,,,,,,,611082ee9fd766aaaf0126db,24,2022-02-12_16h58.19.802,lexical_decision_task_DD_L5,2021.2.3,Win32,60.0240096,,,,,,,,,,,1.0302,1,,,,,,,,,,,,,,,,,,,,,,,,-0.010185185,-0.402777778,0,0,0,,,,,,,ARROW,HB,m,y,./images/ARROWHB.png,,,,,,,,,,,,,,,,,,,,,m,1,1.0302,,,,,,,,0,9,9,69,1
,,,,,,,,,,,,,,,,,611082ee9fd766aaaf0126db,24,2022-02-12_16h58.19.802,lexical_decision_task_DD_L5,2021.2.3,Win32,60.0240096,,,,,,,,,,,1.0254,0,,,,,,,,,,,,,,,,,,,,,,,,-0.010185185,-0.402777778,0,0,0,,,,,,,FLESH,HB,m,y,./images/FLESHHB.png,,,,,,,,,,,,,,,,,,,,,z,0,1.0254,,,,,,,,0,10,10,24,1
,,,,,,,,,,,,,,,,,611082ee9fd766aaaf0126db,24,2022-02-12_16h58.19.802,lexical_decision_task_DD_L5,2021.2.3,Win32,60.0240096,,,,,,,,,,,1.3689,1,,,,,,,,,,,,,,,,,,,,,,,,-0.010185185,-0.402777778,0,0,0,,,,,,,TOWEL,LB,m,y,./images/TOWELLB.png,,,,,,,,,,,,,,,,,,,,,m,1,1.3689,,,,,,,,0,11,11,1,1
,,,,,,,,,,,,,,,,,611082ee9fd766aaaf0126db,24,2022-02-12_16h58.19.802,lexical_decision_task_DD_L5,2021.2.3,Win32,60.0240096,,,,,,,,,,,1.07,1,,,,,,,,,,,,,,,,,,,,,,,,-0.010185185,-0.402777778,0,0,0,,,,,,,ONION,HB,z,y,./images/ONIONHB.png,,,,,,,,,,,,,,,,,,,,,z,1,1.07,,,,,,,,0,12,12,135,1
,,,,,,,,,,,,,,,,,611082ee9fd766aaaf0126db,24,2022-02-12_16h58.19.802,lexical_decision_task_DD_L5,2021.2.3,Win32,60.0240096,,,,,,,,,,,1.8158,0,,,,,,,,,,,,,,,,,,,,,,,,-0.010185185,-0.402777778,0,0,0,,,,,,,BANNER,LB,z,y,./images/BANNERLB.png,,,,,,,,,,,,,,,,,,,,,m,0,1.8158,,,,,,,,0,13,13,136,1
,,,,,,,,,,,,,,,,,611082ee9fd766aaaf0126db,24,2022-02-12_16h58.19.802,lexical_decision_task_DD_L5,2021.2.3,Win32,60.0240096,,,,,,,,,,,1.0499,1,,,,,,,,,,,,,,,,,,,,,,,,-0.010185185,-0.402777778,0,0,0,,,,,,,GLOVE,LB,m,y,./images/GLOVELB.png,,,,,,,,,,,,,,,,,,,,,m,1,1.0499,,,,,,,,0,14,14,73,1
,,,,,,,,,,,,,,,,,611082ee9fd766aaaf0126db,24,2022-02-12_16h58.19.802,lexical_decision_task_DD_L5,2021.2.3,Win32,60.0240096,,,,,,,,,,,0.9008,0,,,,,,,,,,,,,,,,,,,,,,,,-0.010185185,-0.402777778,0,0,0,,,,,,,CHERRY,HB,m,y,./images/CHERRYHB.png,,,,,,,,,,,,,,,,,,,,,z,0,0.9008,,,,,,,,0,15,15,54,1
,,,,,,,,,,,,,,,,,611082ee9fd766aaaf0126db,24,2022-02-12_16h58.19.802,lexical_decision_task_DD_L5,2021.2.3,Win32,60.0240096,,,,,,,,,,,0.7683,1,,,,,,,,,,,,,,,,,,,,,,,,-0.010185185,-0.402777778,0,0,0,,,,,,,JAGUAR,HB,z,y,./images/JAGUARHB.png,,,,,,,,,,,,,,,,,,,,,z,1,0.7683,,,,,,,,0,16,16,102,1
,,,,,,,,,,,,,,,,,611082ee9fd766aaaf0126db,24,2022-02-12_16h58.19.802,lexical_decision_task_DD_L5,2021.2.3,Win32,60.0240096,,,,,,,,,,,0.7722,1,,,,,,,,,,,,,,,,,,,,,,,,-0.010185185,-0.402777778,0,0,0,,,,,,,ATTIC,HB,z,y,./images/ATTICHB.png,,,,,,,,,,,,,,,,,,,,,z,1,0.7722,,,,,,,,0,17,17,111,1
,,,,,,,,,,,,,,,,,611082ee9fd766aaaf0126db,24,2022-02-12_16h58.19.802,lexical_decision_task_DD_L5,2021.2.3,Win32,60.0240096,,,,,,,,,,,0.8672,1,,,,,,,,,,,,,,,,,,,,,,,,-0.010185185,-0.402777778,0,0,0,,,,,,,HOCKEY,C,m,y,./images/HOCKEY.png,,,,,,,,,,,,,,,,,,,,,m,1,0.8672,,,,,,,,0,18,18,32,1
,,,,,,,,,,,,,,,,,611082ee9fd766aaaf0126db,24,2022-02-12_16h58.19.802,lexical_decision_task_DD_L5,2021.2.3,Win32,60.0240096,,,,,,,,,,,2.1271,1,,,,,,,,,,,,,,,,,,,,,,,,-0.010185185,-0.402777778,0,0,0,,,,,,,BABOON,LB,z,y,./images/BABOONLB.png,,,,,,,,,,,,,,,,,,,,,z,1,2.1271,,,,,,,,0,19,19,142,1
,,,,,,,,,,,,,,,,,611082ee9fd766aaaf0126db,24,2022-02-12_16h58.19.802,lexical_decision_task_DD_L5,2021.2.3,Win32,60.0240096,,,,,,,,,,,1.1269,0,,,,,,,,,,,,,,,,,,,,,,,,-0.010185185,-0.402777778,0,0,0,,,,,,,CLOUD,C,m,y,./images/CLOUD.png,,,,,,,,,,,,,,,,,,,,,z,0,1.1269,,,,,,,,0,20,20,26,1
,,,,,,,,,,,,,,,,,611082ee9fd766aaaf0126db,24,2022-02-12_16h58.19.802,lexical_decision_task_DD_L5,2021.2.3,Win32,60.0240096,,,,,,,,,,,0.751,1,,,,,,,,,,,,,,,,,,,,,,,,-0.010185185,-0.402777778,0,0,0,,,,,,,PIMPLE,C,z,y,./images/PIMPLE.png,,,,,,,,,,,,,,,,,,,,,z,1,0.751,,,,,,,,0,21,21,155,1
,,,,,,,,,,,,,,,,,611082ee9fd766aaaf0126db,24,2022-02-12_16h58.19.802,lexical_decision_task_DD_L5,2021.2.3,Win32,60.0240096,,,,,,,,,,,0.9342,1,,,,,,,,,,,,,,,,,,,,,,,,-0.010185185,-0.402777778,0,0,0,,,,,,,SWING,LB,z,y,./images/SWINGLB.png,,,,,,,,,,,,,,,,,,,,,z,1,0.9342,,,,,,,,0,22,22,124,1
,,,,,,,,,,,,,,,,,611082ee9fd766aaaf0126db,24,2022-02-12_16h58.19.802,lexical_decision_task_DD_L5,2021.2.3,Win32,60.0240096,,,,,,,,,,,1.2287,1,,,,,,,,,,,,,,,,,,,,,,,,-0.010185185,-0.402777778,0,0,0,,,,,,,BARREL,C,z,y,./images/BARREL.png,,,,,,,,,,,,,,,,,,,,,z,1,1.2287,,,,,,,,0,23,23,116,1
,,,,,,,,,,,,,,,,,611082ee9fd766aaaf0126db,24,2022-02-12_16h58.19.802,lexical_decision_task_DD_L5,2021.2.3,Win32,60.0240096,,,,,,,,,,,0.6834,1,,,,,,,,,,,,,,,,,,,,,,,,-0.010185185,-0.402777778,0,0,0,,,,,,,BIRTH,LB,z,y,./images/BIRTHLB.png,,,,,,,,,,,,,,,,,,,,,z,1,0.6834,,,,,,,,0,24,24,121,1
,,,,,,,,,,,,,,,,,611082ee9fd766aaaf0126db,24,2022-02-12_16h58.19.802,lexical_decision_task_DD_L5,2021.2.3,Win32,60.0240096,,,,,,,,,,,1.3545,1,,,,,,,,,,,,,,,,,,,,,,,,-0.010185185,-0.402777778,0,0,0,,,,,,,POKER,LB,m,y,./images/POKERLB.png,,,,,,,,,,,,,,,,,,,,,m,1,1.3545,,,,,,,,0,25,25,67,1
,,,,,,,,,,,,,,,,,611082ee9fd766aaaf0126db,24,2022-02-12_16h58.19.802,lexical_decision_task_DD_L5,2021.2.3,Win32,60.0240096,,,,,,,,,,,0.8155,1,,,,,,,,,,,,,,,,,,,,,,,,-0.010185185,-0.402777778,0,0,0,,,,,,,MAMMAL,C,m,y,./images/MAMMAL.png,,,,,,,,,,,,,,,,,,,,,m,1,0.8155,,,,,,,,0,26,26,62,1
,,,,,,,,,,,,,,,,,611082ee9fd766aaaf0126db,24,2022-02-12_16h58.19.802,lexical_decision_task_DD_L5,2021.2.3,Win32,60.0240096,,,,,,,,,,,1.1241,0,,,,,,,,,,,,,,,,,,,,,,,,-0.010185185,-0.402777778,0,0,0,,,,,,,HEATER,C,m,y,./images/HEATER.png,,,,,,,,,,,,,,,,,,,,,z,0,1.1241,,,,,,,,0,27,27,56,1
,,,,,,,,,,,,,,,,,611082ee9fd766aaaf0126db,24,2022-02-12_16h58.19.802,lexical_decision_task_DD_L5,2021.2.3,Win32,60.0240096,,,,,,,,,,,0.76,1,,,,,,,,,,,,,,,,,,,,,,,,-0.010185185,-0.402777778,0,0,0,,,,,,,POODLE,HB,z,y,./images/POODLEHB.png,,,,,,,,,,,,,,,,,,,,,z,1,0.76,,,,,,,,0,28,28,165,1
,,,,,,,,,,,,,,,,,611082ee9fd766aaaf0126db,24,2022-02-12_16h58.19.802,lexical_decision_task_DD_L5,2021.2.3,Win32,60.0240096,,,,,,,,,,,0.9633,0,,,,,,,,,,,,,,,,,,,,,,,,-0.010185185,-0.402777778,0,0,0,,,,,,,STEAK,LB,m,y,./images/STEAKLB.png,,,,,,,,,,,,,,,,,,,,,z,0,0.9633,,,,,,,,0,29,29,31,1
,,,,,,,,,,,,,,,,,611082ee9fd766aaaf0126db,24,2022-02-12_16h58.19.802,lexical_decision_task_DD_L5,2021.2.3,Win32,60.0240096,,,,,,,,,,,0.9356,1,,,,,,,,,,,,,,,,,,,,,,,,-0.010185185,-0.402777778,0,0,0,,,,,,,WAGON,LB,m,y,./images/WAGONLB.png,,,,,,,,,,,,,,,,,,,,,m,1,0.9356,,,,,,,,0,30,30,7,1
,,,,,,,,,,,,,,,,,611082ee9fd766aaaf0126db,24,2022-02-12_16h58.19.802,lexical_decision_task_DD_L5,2021.2.3,Win32,60.0240096,,,,,,,,,,,1.0513,1,,,,,,,,,,,,,,,,,,,,,,,,-0.010185185,-0.402777778,0,0,0,,,,,,,PARCEL,HB,m,y,./images/PARCELHB.png,,,,,,,,,,,,,,,,,,,,,m,1,1.0513,,,,,,,,0,31,31,18,1
,,,,,,,,,,,,,,,,,611082ee9fd766aaaf0126db,24,2022-02-12_16h58.19.802,lexical_decision_task_DD_L5,2021.2.3,Win32,60.0240096,,,,,,,,,,,1.1494,1,,,,,,,,,,,,,,,,,,,,,,,,-0.010185185,-0.402777778,0,0,0,,,,,,,MIRROR,HB,z,y,./images/MIRRORHB.png,,,,,,,,,,,,,,,,,,,,,z,1,1.1494,,,,,,,,0,32,32,147,1
,,,,,,,,,,,,,,,,,611082ee9fd766aaaf0126db,24,2022-02-12_16h58.19.802,lexical_decision_task_DD_L5,2021.2.3,Win32,60.0240096,,,,,,,,,,,0.7443,1,,,,,,,,,,,,,,,,,,,,,,,,-0.010185185,-0.402777778,0,0,0,,,,,,,COUCH,C,z,y,./images/COUCH.png,,,,,,,,,,,,,,,,,,,,,z,1,0.7443,,,,,,,,0,33,33,161,1
,,,,,,,,,,,,,,,,,611082ee9fd766aaaf0126db,24,2022-02-12_16h58.19.802,lexical_decision_task_DD_L5,2021.2.3,Win32,60.0240096,,,,,,,,,,,1.0993,0,,,,,,,,,,,,,,,,,,,,,,,,-0.010185185,-0.402777778,0,0,0,,,,,,,HAMMER,HB,m,y,./images/HAMMERHB.png,,,,,,,,,,,,,,,,,,,,,z,0,1.0993,,,,,,,,0,34,34,75,1
,,,,,,,,,,,,,,,,,611082ee9fd766aaaf0126db,24,2022-02-12_16h58.19.802,lexical_decision_task_DD_L5,2021.2.3,Win32,60.0240096,,,,,,,,,,,1.1659,0,,,,,,,,,,,,,,,,,,,,,,,,-0.010185185,-0.402777778,0,0,0,,,,,,,PACKET,C,z,y,./images/PACKET.png,,,,,,,,,,,,,,,,,,,,,m,0,1.1659,,,,,,,,0,35,35,140,1
,,,,,,,,,,,,,,,,,611082ee9fd766aaaf0126db,24,2022-02-12_16h58.19.802,lexical_decision_task_DD_L5,2021.2.3,Win32,60.0240096,,,,,,,,,,,1.1468,1,,,,,,,,,,,,,,,,,,,,,,,,-0.010185185,-0.402777778,0,0,0,,,,,,,BRUSH,C,m,y,./images/BRUSH.png,,,,,,,,,,,,,,,,,,,,,m,1,1.1468,,,,,,,,0,36,36,59,1
,,,,,,,,,,,,,,,,,611082ee9fd766aaaf0126db,24,2022-02-12_16h58.19.802,lexical_decision_task_DD_L5,2021.2.3,Win32,60.0240096,,,,,,,,,,,0.9014,1,,,,,,,,,,,,,,,,,,,,,,,,-0.010185185,-0.402777778,0,0,0,,,,,,,MALLET,C,z,y,./images/MALLET.png,,,,,,,,,,,,,,,,,,,,,z,1,0.9014,,,,,,,,0,37,37,134,1
,,,,,,,,,,,,,,,,,611082ee9fd766aaaf0126db,24,2022-02-12_16h58.19.802,lexical_decision_task_DD_L5,2021.2.3,Win32,60.0240096,,,,,,,,,,,0.7531,0,,,,,,,,,,,,,,,,,,,,,,,,-0.010185185,-0.402777778,0,0,0,,,,,,,STOVE,C,m,y,./images/STOVE.png,,,,,,,,,,,,,,,,,,,,,z,0,0.7531,,,,,,,,0,38,38,2,1
,,,,,,,,,,,,,,,,,611082ee9fd766aaaf0126db,24,2022-02-12_16h58.19.802,lexical_decision_task_DD_L5,2021.2.3,Win32,60.0240096,,,,,,,,,,,0.7716,0,,,,,,,,,,,,,,,,,,,,,,,,-0.010185185,-0.402777778,0,0,0,,,,,,,GARDEN,LB,m,y,./images/GARDENLB.png,,,,,,,,,,,,,,,,,,,,,z,0,0.7716,,,,,,,,0,39,39,10,1
,,,,,,,,,,,,,,,,,611082ee9fd766aaaf0126db,24,2022-02-12_16h58.19.802,lexical_decision_task_DD_L5,2021.2.3,Win32,60.0240096,,,,,,,,,,,1.2149,0,,,,,,,,,,,,,,,,,,,,,,,,-0.010185185,-0.402777778,0,0,0,,,,,,,CASINO,LB,m,y,./images/CASINOLB.png,,,,,,,,,,,,,,,,,,,,,z,0,1.2149,,,,,,,,0,40,40,28,1
,,,,,,,,,,,,,,,,,611082ee9fd766aaaf0126db,24,2022-02-12_16h58.19.802,lexical_decision_task_DD_L5,2021.2.3,Win32,60.0240096,,,,,,,,,,,0.7547,1,,,,,,,,,,,,,,,,,,,,,,,,-0.010185185,-0.402777778,0,0,0,space,,,,,,LITTER,HB,z,y,./images/LITTERHB.png,1.8871,,,,,,,,,,,,,,,,,,,,z,1,0.7547,,,,,,,,0,41,41,162,1
,,,,,,,,,,,,,,,,,611082ee9fd766aaaf0126db,24,2022-02-12_16h58.19.802,lexical_decision_task_DD_L5,2021.2.3,Win32,60.0240096,,,,,,,,,,,1.7104,0,,,,,,,,,,,,,,,,,,,,,,,,-0.010185185,-0.402777778,0,0,0,,,,,,,STREAM,C,m,y,./images/STREAM.png,,,,,,,,,,,,,,,,,,,,,z,0,1.7104,,,,,,,,0,42,42,41,1
,,,,,,,,,,,,,,,,,611082ee9fd766aaaf0126db,24,2022-02-12_16h58.19.802,lexical_decision_task_DD_L5,2021.2.3,Win32,60.0240096,,,,,,,,,,,0.7376,1,,,,,,,,,,,,,,,,,,,,,,,,-0.010185185,-0.402777778,0,0,0,,,,,,,MOSQUE,LB,z,y,./images/MOSQUELB.png,,,,,,,,,,,,,,,,,,,,,z,1,0.7376,,,,,,,,0,43,43,127,1
,,,,,,,,,,,,,,,,,611082ee9fd766aaaf0126db,24,2022-02-12_16h58.19.802,lexical_decision_task_DD_L5,2021.2.3,Win32,60.0240096,,,,,,,,,,,1.0162,1,,,,,,,,,,,,,,,,,,,,,,,,-0.010185185,-0.402777778,0,0,0,,,,,,,COOKER,HB,z,y,./images/COOKERHB.png,,,,,,,,,,,,,,,,,,,,,z,1,1.0162,,,,,,,,0,44,44,153,1
,,,,,,,,,,,,,,,,,611082ee9fd766aaaf0126db,24,2022-02-12_16h58.19.802,lexical_decision_task_DD_L5,2021.2.3,Win32,60.0240096,,,,,,,,,,,1.0037,1,,,,,,,,,,,,,,,,,,,,,,,,-0.010185185,-0.402777778,0,0,0,,,,,,,VALLEY,C,m,y,./images/VALLEY.png,,,,,,,,,,,,,,,,,,,,,m,1,1.0037,,,,,,,,0,45,45,68,1
,,,,,,,,,,,,,,,,,611082ee9fd766aaaf0126db,24,2022-02-12_16h58.19.802,lexical_decision_task_DD_L5,2021.2.3,Win32,60.0240096,,,,,,,,,,,0.9568,0,,,,,,,,,,,,,,,,,,,,,,,,-0.010185185,-0.402777778,0,0,0,,,,,,,FOLDER,HB,z,y,./images/FOLDERHB.png,,,,,,,,,,,,,,,,,,,,,m,0,0.9568,,,,,,,,0,46,46,126,1
,,,,,,,,,,,,,,,,,611082ee9fd766aaaf0126db,24,2022-02-12_16h58.19.802,lexical_decision_task_DD_L5,2021.2.3,Win32,60.0240096,,,,,,,,,,,0.853,1,,,,,,,,,,,,,,,,,,,,,,,,-0.010185185,-0.402777778,0,0,0,,,,,,,POSTER,C,m,y,./images/POSTER.png,,,,,,,,,,,,,,,,,,,,,m,1,0.853,,,,,,,,0,47,47,53,1
,,,,,,,,,,,,,,,,,611082ee9fd766aaaf0126db,24,2022-02-12_16h58.19.802,lexical_decision_task_DD_L5,2021.2.3,Win32,60.0240096,,,,,,,,,,,0.6829,1,,,,,,,,,,,,,,,,,,,,,,,,-0.010185185,-0.402777778,0,0,0,,,,,,,PEACH,C,z,y,./images/PEACH.png,,,,,,,,,,,,,,,,,,,,,z,1,0.6829,,,,,,,,0,48,48,119,1
,,,,,,,,,,,,,,,,,611082ee9fd766aaaf0126db,24,2022-02-12_16h58.19.802,lexical_decision_task_DD_L5,2021.2.3,Win32,60.0240096,,,,,,,,,,,0.8287,1,,,,,,,,,,,,,,,,,,,,,,,,-0.010185185,-0.402777778,0,0,0,,,,,,,SHELF,HB,z,y,./images/SHELFHB.png,,,,,,,,,,,,,,,,,,,,,z,1,0.8287,,,,,,,,0,49,49,123,1
,,,,,,,,,,,,,,,,,611082ee9fd766aaaf0126db,24,2022-02-12_16h58.19.802,lexical_decision_task_DD_L5,2021.2.3,Win32,60.0240096,,,,,,,,,,,1.0958,1,,,,,,,,,,,,,,,,,,,,,,,,-0.010185185,-0.402777778,0,0,0,,,,,,,BAMBOO,C,m,y,./images/BAMBOO.png,,,,,,,,,,,,,,,,,,,,,m,1,1.0958,,,,,,,,0,50,50,5,1
,,,,,,,,,,,,,,,,,611082ee9fd766aaaf0126db,24,2022-02-12_16h58.19.802,lexical_decision_task_DD_L5,2021.2.3,Win32,60.0240096,,,,,,,,,,,1.8656,1,,,,,,,,,,,,,,,,,,,,,,,,-0.010185185,-0.402777778,0,0,0,,,,,,,PICKLE,C,z,y,./images/PICKLE.png,,,,,,,,,,,,,,,,,,,,,z,1,1.8656,,,,,,,,0,51,51,98,1
,,,,,,,,,,,,,,,,,611082ee9fd766aaaf0126db,24,2022-02-12_16h58.19.802,lexical_decision_task_DD_L5,2021.2.3,Win32,60.0240096,,,,,,,,,,,0.7682,1,,,,,,,,,,,,,,,,,,,,,,,,-0.010185185,-0.402777778,0,0,0,,,,,,,LLAMA,C,m,y,./images/LLAMA.png,,,,,,,,,,,,,,,,,,,,,m,1,0.7682,,,,,,,,0,52,52,35,1
,,,,,,,,,,,,,,,,,611082ee9fd766aaaf0126db,24,2022-02-12_16h58.19.802,lexical_decision_task_DD_L5,2021.2.3,Win32,60.0240096,,,,,,,,,,,0.9976,1,,,,,,,,,,,,,,,,,,,,,,,,-0.010185185,-0.402777778,0,0,0,,,,,,,SHORE,HB,z,y,./images/SHOREHB.png,,,,,,,,,,,,,,,,,,,,,z,1,0.9976,,,,,,,,0,53,53,96,1
,,,,,,,,,,,,,,,,,611082ee9fd766aaaf0126db,24,2022-02-12_16h58.19.802,lexical_decision_task_DD_L5,2021.2.3,Win32,60.0240096,,,,,,,,,,,0.8792,1,,,,,,,,,,,,,,,,,,,,,,,,-0.010185185,-0.402777778,0,0,0,,,,,,,MUMMY,LB,m,y,./images/MUMMYLB.png,,,,,,,,,,,,,,,,,,,,,m,1,0.8792,,,,,,,,0,54,54,46,1
,,,,,,,,,,,,,,,,,611082ee9fd766aaaf0126db,24,2022-02-12_16h58.19.802,lexical_decision_task_DD_L5,2021.2.3,Win32,60.0240096,,,,,,,,,,,1.0971,0,,,,,,,,,,,,,,,,,,,,,,,,-0.010185185,-0.402777778,0,0,0,,,,,,,BANANA,LB,m,y,./images/BANANALB.png,,,,,,,,,,,,,,,,,,,,,z,0,1.0971,,,,,,,,0,55,55,70,1
,,,,,,,,,,,,,,,,,611082ee9fd766aaaf0126db,24,2022-02-12_16h58.19.802,lexical_decision_task_DD_L5,2021.2.3,Win32,60.0240096,,,,,,,,,,,1.1081,1,,,,,,,,,,,,,,,,,,,,,,,,-0.010185185,-0.402777778,0,0,0,,,,,,,CRATER,HB,m,y,./images/CRATERHB.png,,,,,,,,,,,,,,,,,,,,,m,1,1.1081,,,,,,,,0,56,56,3,1
,,,,,,,,,,,,,,,,,611082ee9fd766aaaf0126db,24,2022-02-12_16h58.19.802,lexical_decision_task_DD_L5,2021.2.3,Win32,60.0240096,,,,,,,,,,,0.712,1,,,,,,,,,,,,,,,,,,,,,,,,-0.010185185,-0.402777778,0,0,0,,,,,,,MUSCLE,LB,z,y,./images/MUSCLELB.png,,,,,,,,,,,,,,,,,,,,,z,1,0.712,,,,,,,,0,57,57,88,1
,,,,,,,,,,,,,,,,,611082ee9fd766aaaf0126db,24,2022-02-12_16h58.19.802,lexical_decision_task_DD_L5,2021.2.3,Win32,60.0240096,,,,,,,,,,,0.9131,1,,,,,,,,,,,,,,,,,,,,,,,,-0.010185185,-0.402777778,0,0,0,,,,,,,TOMATO,HB,z,y,./images/TOMATOHB.png,,,,,,,,,,,,,,,,,,,,,z,1,0.9131,,,,,,,,0,58,58,84,1
,,,,,,,,,,,,,,,,,611082ee9fd766aaaf0126db,24,2022-02-12_16h58.19.802,lexical_decision_task_DD_L5,2021.2.3,Win32,60.0240096,,,,,,,,,,,1.1489,1,,,,,,,,,,,,,,,,,,,,,,,,-0.010185185,-0.402777778,0,0,0,,,,,,,BRIDE,LB,m,y,./images/BRIDELB.png,,,,,,,,,,,,,,,,,,,,,m,1,1.1489,,,,,,,,0,59,59,64,1
,,,,,,,,,,,,,,,,,611082ee9fd766aaaf0126db,24,2022-02-12_16h58.19.802,lexical_decision_task_DD_L5,2021.2.3,Win32,60.0240096,,,,,,,,,,,0.7858,0,,,,,,,,,,,,,,,,,,,,,,,,-0.010185185,-0.402777778,0,0,0,,,,,,,WALNUT,HB,m,y,./images/WALNUTHB.png,,,,,,,,,,,,,,,,,,,,,z,0,0.7858,,,,,,,,0,60,60,0,1
,,,,,,,,,,,,,,,,,611082ee9fd766aaaf0126db,24,2022-02-12_16h58.19.802,lexical_decision_task_DD_L5,2021.2.3,Win32,60.0240096,,,,,,,,,,,0.8008,1,,,,,,,,,,,,,,,,,,,,,,,,-0.010185185,-0.402777778,0,0,0,,,,,,,FARMER,C,z,y,./images/FARMER.png,,,,,,,,,,,,,,,,,,,,,z,1,0.8008,,,,,,,,0,61,61,149,1
,,,,,,,,,,,,,,,,,611082ee9fd766aaaf0126db,24,2022-02-12_16h58.19.802,lexical_decision_task_DD_L5,2021.2.3,Win32,60.0240096,,,,,,,,,,,0.7667,1,,,,,,,,,,,,,,,,,,,,,,,,-0.010185185,-0.402777778,0,0,0,,,,,,,CHALK,LB,m,y,./images/CHALKLB.png,,,,,,,,,,,,,,,,,,,,,m,1,0.7667,,,,,,,,0,62,62,25,1
,,,,,,,,,,,,,,,,,611082ee9fd766aaaf0126db,24,2022-02-12_16h58.19.802,lexical_decision_task_DD_L5,2021.2.3,Win32,60.0240096,,,,,,,,,,,0.9875,1,,,,,,,,,,,,,,,,,,,,,,,,-0.010185185,-0.402777778,0,0,0,,,,,,,ALLEY,LB,m,y,./images/ALLEYLB.png,,,,,,,,,,,,,,,,,,,,,m,1,0.9875,,,,,,,,0,63,63,55,1
,,,,,,,,,,,,,,,,,611082ee9fd766aaaf0126db,24,2022-02-12_16h58.19.802,lexical_decision_task_DD_L5,2021.2.3,Win32,60.0240096,,,,,,,,,,,0.7405,1,,,,,,,,,,,,,,,,,,,,,,,,-0.010185185,-0.402777778,0,0,0,,,,,,,WHISKY,C,m,y,./images/WHISKY.png,,,,,,,,,,,,,,,,,,,,,m,1,0.7405,,,,,,,,0,64,64,83,1
,,,,,,,,,,,,,,,,,611082ee9fd766aaaf0126db,24,2022-02-12_16h58.19.802,lexical_decision_task_DD_L5,2021.2.3,Win32,60.0240096,,,,,,,,,,,0.9135,1,,,,,,,,,,,,,,,,,,,,,,,,-0.010185185,-0.402777778,0,0,0,,,,,,,CRUMB,C,z,y,./images/CRUMB.png,,,,,,,,,,,,,,,,,,,,,z,1,0.9135,,,,,,,,0,65,65,113,1
,,,,,,,,,,,,,,,,,611082ee9fd766aaaf0126db,24,2022-02-12_16h58.19.802,lexical_decision_task_DD_L5,2021.2.3,Win32,60.0240096,,,,,,,,,,,2.3852,0,,,,,,,,,,,,,,,,,,,,,,,,-0.010185185,-0.402777778,0,0,0,,,,,,,WALRUS,C,z,y,./images/WALRUS.png,,,,,,,,,,,,,,,,,,,,,m,0,2.3852,,,,,,,,0,66,66,107,1
,,,,,,,,,,,,,,,,,611082ee9fd766aaaf0126db,24,2022-02-12_16h58.19.802,lexical_decision_task_DD_L5,2021.2.3,Win32,60.0240096,,,,,,,,,,,1.3157,1,,,,,,,,,,,,,,,,,,,,,,,,-0.010185185,-0.402777778,0,0,0,,,,,,,PAINT,LB,z,y,./images/PAINTLB.png,,,,,,,,,,,,,,,,,,,,,z,1,1.3157,,,,,,,,0,67,67,91,1
,,,,,,,,,,,,,,,,,611082ee9fd766aaaf0126db,24,2022-02-12_16h58.19.802,lexical_decision_task_DD_L5,2021.2.3,Win32,60.0240096,,,,,,,,,,,0.7736,1,,,,,,,,,,,,,,,,,,,,,,,,-0.010185185,-0.402777778,0,0,0,,,,,,,STAIN,HB,m,y,./images/STAINHB.png,,,,,,,,,,,,,,,,,,,,,m,1,0.7736,,,,,,,,0,68,68,6,1
,,,,,,,,,,,,,,,,,611082ee9fd766aaaf0126db,24,2022-02-12_16h58.19.802,lexical_decision_task_DD_L5,2021.2.3,Win32,60.0240096,,,,,,,,,,,0.7191,0,,,,,,,,,,,,,,,,,,,,,,,,-0.010185185,-0.402777778,0,0,0,,,,,,,SNAKE,LB,m,y,./images/SNAKELB.png,,,,,,,,,,,,,,,,,,,,,z,0,0.7191,,,,,,,,0,69,69,40,1
,,,,,,,,,,,,,,,,,611082ee9fd766aaaf0126db,24,2022-02-12_16h58.19.802,lexical_decision_task_DD_L5,2021.2.3,Win32,60.0240096,,,,,,,,,,,0.9246,1,,,,,,,,,,,,,,,,,,,,,,,,-0.010185185,-0.402777778,0,0,0,,,,,,,FINGER,HB,z,y,./images/FINGERHB.png,,,,,,,,,,,,,,,,,,,,,z,1,0.9246,,,,,,,,0,70,70,87,1
,,,,,,,,,,,,,,,,,611082ee9fd766aaaf0126db,24,2022-02-12_16h58.19.802,lexical_decision_task_DD_L5,2021.2.3,Win32,60.0240096,,,,,,,,,,,0.8925,0,,,,,,,,,,,,,,,,,,,,,,,,-0.010185185,-0.402777778,0,0,0,,,,,,,FERRY,HB,m,y,./images/FERRYHB.png,,,,,,,,,,,,,,,,,,,,,z,0,0.8925,,,,,,,,0,71,71,57,1
,,,,,,,,,,,,,,,,,611082ee9fd766aaaf0126db,24,2022-02-12_16h58.19.802,lexical_decision_task_DD_L5,2021.2.3,Win32,60.0240096,,,,,,,,,,,0.9037,0,,,,,,,,,,,,,,,,,,,,,,,,-0.010185185,-0.402777778,0,0,0,,,,,,,SHIELD,HB,m,y,./images/SHIELDHB.png,,,,,,,,,,,,,,,,,,,,,z,0,0.9037,,,,,,,,0,72,72,48,1
,,,,,,,,,,,,,,,,,611082ee9fd766aaaf0126db,24,2022-02-12_16h58.19.802,lexical_decision_task_DD_L5,2021.2.3,Win32,60.0240096,,,,,,,,,,,0.751,0,,,,,,,,,,,,,,,,,,,,,,,,-0.010185185,-0.402777778,0,0,0,,,,,,,SAUCE,HB,m,y,./images/SAUCEHB.png,,,,,,,,,,,,,,,,,,,,,z,0,0.751,,,,,,,,0,73,73,51,1
,,,,,,,,,,,,,,,,,611082ee9fd766aaaf0126db,24,2022-02-12_16h58.19.802,lexical_decision_task_DD_L5,2021.2.3,Win32,60.0240096,,,,,,,,,,,0.7765,1,,,,,,,,,,,,,,,,,,,,,,,,-0.010185185,-0.402777778,0,0,0,,,,,,,STATUE,HB,m,y,./images/STATUEHB.png,,,,,,,,,,,,,,,,,,,,,m,1,0.7765,,,,,,,,0,74,74,66,1
,,,,,,,,,,,,,,,,,611082ee9fd766aaaf0126db,24,2022-02-12_16h58.19.802,lexical_decision_task_DD_L5,2021.2.3,Win32,60.0240096,,,,,,,,,,,1.663,1,,,,,,,,,,,,,,,,,,,,,,,,-0.010185185,-0.402777778,0,0,0,,,,,,,GRANNY,C,m,y,./images/GRANNY.png,,,,,,,,,,,,,,,,,,,,,m,1,1.663,,,,,,,,0,75,75,20,1
,,,,,,,,,,,,,,,,,611082ee9fd766aaaf0126db,24,2022-02-12_16h58.19.802,lexical_decision_task_DD_L5,2021.2.3,Win32,60.0240096,,,,,,,,,,,0.7654,1,,,,,,,,,,,,,,,,,,,,,,,,-0.010185185,-0.402777778,0,0,0,,,,,,,STRING,C,z,y,./images/STRING.png,,,,,,,,,,,,,,,,,,,,,z,1,0.7654,,,,,,,,0,76,76,125,1
,,,,,,,,,,,,,,,,,611082ee9fd766aaaf0126db,24,2022-02-12_16h58.19.802,lexical_decision_task_DD_L5,2021.2.3,Win32,60.0240096,,,,,,,,,,,0.9535,0,,,,,,,,,,,,,,,,,,,,,,,,-0.010185185,-0.402777778,0,0,0,,,,,,,BASKET,C,m,y,./images/BASKET.png,,,,,,,,,,,,,,,,,,,,,z,0,0.9535,,,,,,,,0,77,77,44,1
,,,,,,,,,,,,,,,,,611082ee9fd766aaaf0126db,24,2022-02-12_16h58.19.802,lexical_decision_task_DD_L5,2021.2.3,Win32,60.0240096,,,,,,,,,,,0.7016,1,,,,,,,,,,,,,,,,,,,,,,,,-0.010185185,-0.402777778,0,0,0,,,,,,,BONNET,C,z,y,./images/BONNET.png,,,,,,,,,,,,,,,,,,,,,z,1,0.7016,,,,,,,,0,78,78,95,1
,,,,,,,,,,,,,,,,,611082ee9fd766aaaf0126db,24,2022-02-12_16h58.19.802,lexical_decision_task_DD_L5,2021.2.3,Win32,60.0240096,,,,,,,,,,,0.8615,1,,,,,,,,,,,,,,,,,,,,,,,,-0.010185185,-0.402777778,0,0,0,,,,,,,CANYON,LB,z,y,./images/CANYONLB.png,,,,,,,,,,,,,,,,,,,,,z,1,0.8615,,,,,,,,0,79,79,118,1
,,,,,,,,,,,,,,,,,611082ee9fd766aaaf0126db,24,2022-02-12_16h58.19.802,lexical_decision_task_DD_L5,2021.2.3,Win32,60.0240096,,,,,,,,,,,2.3306,1,,,,,,,,,,,,,,,,,,,,,,,,-0.010185185,-0.402777778,0,0,0,,,,,,,MAGGOT,HB,z,y,./images/MAGGOTHB.png,,,,,,,,,,,,,,,,,,,,,z,1,2.3306,,,,,,,,0,80,80,117,1
,,,,,,,,,,,,,,,,,611082ee9fd766aaaf0126db,24,2022-02-12_16h58.19.802,lexical_decision_task_DD_L5,2021.2.3,Win32,60.0240096,,,,,,,,,,,1.1413,1,,,,,,,,,,,,,,,,,,,,,,,,-0.010185185,-0.402777778,0,0,0,,,,,,,PARADE,C,m,y,./images/PARADE.png,,,,,,,,,,,,,,,,,,,,,m,1,1.1413,,,,,,,,0,81,81,17,1
,,,,,,,,,,,,,,,,,611082ee9fd766aaaf0126db,24,2022-02-12_16h58.19.802,lexical_decision_task_DD_L5,2021.2.3,Win32,60.0240096,,,,,,,,,,,1.1366,1,,,,,,,,,,,,,,,,,,,,,,,,-0.010185185,-0.402777778,0,0,0,,,,,,,DRILL,HB,m,y,./images/DRILLHB.png,,,,,,,,,,,,,,,,,,,,,m,1,1.1366,,,,,,,,0,82,82,81,1
,,,,,,,,,,,,,,,,,611082ee9fd766aaaf0126db,24,2022-02-12_16h58.19.802,lexical_decision_task_DD_L5,2021.2.3,Win32,60.0240096,,,,,,,,,,,1.0218,1,,,,,,,,,,,,,,,,,,,,,,,,-0.010185185,-0.402777778,0,0,0,space,,,,,,TWINS,HB,z,y,./images/TWINSHB.png,1.0001,,,,,,,,,,,,,,,,,,,,z,1,1.0218,,,,,,,,0,83,83,144,1
,,,,,,,,,,,,,,,,,611082ee9fd766aaaf0126db,24,2022-02-12_16h58.19.802,lexical_decision_task_DD_L5,2021.2.3,Win32,60.0240096,,,,,,,,,,,0.8016,1,,,,,,,,,,,,,,,,,,,,,,,,-0.010185185,-0.402777778,0,0,0,,,,,,,JUNGLE,C,z,y,./images/JUNGLE.png,,,,,,,,,,,,,,,,,,,,,z,1,0.8016,,,,,,,,0,84,84,167,1
,,,,,,,,,,,,,,,,,611082ee9fd766aaaf0126db,24,2022-02-12_16h58.19.802,lexical_decision_task_DD_L5,2021.2.3,Win32,60.0240096,,,,,,,,,,,0.6911,1,,,,,,,,,,,,,,,,,,,,,,,,-0.010185185,-0.402777778,0,0,0,,,,,,,PASTA,C,z,y,./images/PASTA.png,,,,,,,,,,,,,,,,,,,,,z,1,0.6911,,,,,,,,0,85,85,89,1
,,,,,,,,,,,,,,,,,611082ee9fd766aaaf0126db,24,2022-02-12_16h58.19.802,lexical_decision_task_DD_L5,2021.2.3,Win32,60.0240096,,,,,,,,,,,0.8862,1,,,,,,,,,,,,,,,,,,,,,,,,-0.010185185,-0.402777778,0,0,0,,,,,,,RHINO,HB,z,y,./images/RHINOHB.png,,,,,,,,,,,,,,,,,,,,,z,1,0.8862,,,,,,,,0,86,86,93,1
,,,,,,,,,,,,,,,,,611082ee9fd766aaaf0126db,24,2022-02-12_16h58.19.802,lexical_decision_task_DD_L5,2021.2.3,Win32,60.0240096,,,,,,,,,,,0.6583,1,,,,,,,,,,,,,,,,,,,,,,,,-0.010185185,-0.402777778,0,0,0,,,,,,,CEMENT,C,z,y,./images/CEMENT.png,,,,,,,,,,,,,,,,,,,,,z,1,0.6583,,,,,,,,0,87,87,158,1
,,,,,,,,,,,,,,,,,611082ee9fd766aaaf0126db,24,2022-02-12_16h58.19.802,lexical_decision_task_DD_L5,2021.2.3,Win32,60.0240096,,,,,,,,,,,0.6429,1,,,,,,,,,,,,,,,,,,,,,,,,-0.010185185,-0.402777778,0,0,0,,,,,,,WEASEL,C,z,y,./images/WEASEL.png,,,,,,,,,,,,,,,,,,,,,z,1,0.6429,,,,,,,,0,88,88,164,1
,,,,,,,,,,,,,,,,,611082ee9fd766aaaf0126db,24,2022-02-12_16h58.19.802,lexical_decision_task_DD_L5,2021.2.3,Win32,60.0240096,,,,,,,,,,,0.8621,1,,,,,,,,,,,,,,,,,,,,,,,,-0.010185185,-0.402777778,0,0,0,,,,,,,GRAIN,HB,z,y,./images/GRAINHB.png,,,,,,,,,,,,,,,,,,,,,z,1,0.8621,,,,,,,,0,89,89,159,1
,,,,,,,,,,,,,,,,,611082ee9fd766aaaf0126db,24,2022-02-12_16h58.19.802,lexical_decision_task_DD_L5,2021.2.3,Win32,60.0240096,,,,,,,,,,,0.8713,1,,,,,,,,,,,,,,,,,,,,,,,,-0.010185185,-0.402777778,0,0,0,,,,,,,KITTEN,HB,z,y,./images/KITTENHB.png,,,,,,,,,,,,,,,,,,,,,z,1,0.8713,,,,,,,,0,90,90,129,1
,,,,,,,,,,,,,,,,,611082ee9fd766aaaf0126db,24,2022-02-12_16h58.19.802,lexical_decision_task_DD_L5,2021.2.3,Win32,60.0240096,,,,,,,,,,,1.3051,1,,,,,,,,,,,,,,,,,,,,,,,,-0.010185185,-0.402777778,0,0,0,,,,,,,MUFFIN,LB,z,y,./images/MUFFINLB.png,,,,,,,,,,,,,,,,,,,,,z,1,1.3051,,,,,,,,0,91,91,139,1
,,,,,,,,,,,,,,,,,611082ee9fd766aaaf0126db,24,2022-02-12_16h58.19.802,lexical_decision_task_DD_L5,2021.2.3,Win32,60.0240096,,,,,,,,,,,1.1123,1,,,,,,,,,,,,,,,,,,,,,,,,-0.010185185,-0.402777778,0,0,0,,,,,,,PISTOL,C,m,y,./images/PISTOL.png,,,,,,,,,,,,,,,,,,,,,m,1,1.1123,,,,,,,,0,92,92,29,1
,,,,,,,,,,,,,,,,,611082ee9fd766aaaf0126db,24,2022-02-12_16h58.19.802,lexical_decision_task_DD_L5,2021.2.3,Win32,60.0240096,,,,,,,,,,,0.7972,1,,,,,,,,,,,,,,,,,,,,,,,,-0.010185185,-0.402777778,0,0,0,,,,,,,TULIP,C,z,y,./images/TULIP.png,,,,,,,,,,,,,,,,,,,,,z,1,0.7972,,,,,,,,0,93,93,92,1
,,,,,,,,,,,,,,,,,611082ee9fd766aaaf0126db,24,2022-02-12_16h58.19.802,lexical_decision_task_DD_L5,2021.2.3,Win32,60.0240096,,,,,,,,,,,1.3889,1,,,,,,,,,,,,,,,,,,,,,,,,-0.010185185,-0.402777778,0,0,0,,,,,,,CARPET,C,z,y,./images/CARPET.png,,,,,,,,,,,,,,,,,,,,,z,1,1.3889,,,,,,,,0,94,94,137,1
,,,,,,,,,,,,,,,,,611082ee9fd766aaaf0126db,24,2022-02-12_16h58.19.802,lexical_decision_task_DD_L5,2021.2.3,Win32,60.0240096,,,,,,,,,,,0.8844,1,,,,,,,,,,,,,,,,,,,,,,,,-0.010185185,-0.402777778,0,0,0,,,,,,,CURRY,HB,m,y,./images/CURRYHB.png,,,,,,,,,,,,,,,,,,,,,m,1,0.8844,,,,,,,,0,95,95,60,1
,,,,,,,,,,,,,,,,,611082ee9fd766aaaf0126db,24,2022-02-12_16h58.19.802,lexical_decision_task_DD_L5,2021.2.3,Win32,60.0240096,,,,,,,,,,,0.8665,0,,,,,,,,,,,,,,,,,,,,,,,,-0.010185185,-0.402777778,0,0,0,,,,,,,CLOWN,LB,m,y,./images/CLOWNLB.png,,,,,,,,,,,,,,,,,,,,,z,0,0.8665,,,,,,,,0,96,96,22,1
,,,,,,,,,,,,,,,,,611082ee9fd766aaaf0126db,24,2022-02-12_16h58.19.802,lexical_decision_task_DD_L5,2021.2.3,Win32,60.0240096,,,,,,,,,,,2.8037,1,,,,,,,,,,,,,,,,,,,,,,,,-0.010185185,-0.402777778,0,0,0,,,,,,,CANDY,HB,m,y,./images/CANDYHB.png,,,,,,,,,,,,,,,,,,,,,m,1,2.8037,,,,,,,,0,97,97,39,1
,,,,,,,,,,,,,,,,,611082ee9fd766aaaf0126db,24,2022-02-12_16h58.19.802,lexical_decision_task_DD_L5,2021.2.3,Win32,60.0240096,,,,,,,,,,,0.8551,1,,,,,,,,,,,,,,,,,,,,,,,,-0.010185185,-0.402777778,0,0,0,,,,,,,SAUNA,HB,m,y,./images/SAUNAHB.png,,,,,,,,,,,,,,,,,,,,,m,1,0.8551,,,,,,,,0,98,98,33,1
,,,,,,,,,,,,,,,,,611082ee9fd766aaaf0126db,24,2022-02-12_16h58.19.802,lexical_decision_task_DD_L5,2021.2.3,Win32,60.0240096,,,,,,,,,,,1.1808,1,,,,,,,,,,,,,,,,,,,,,,,,-0.010185185,-0.402777778,0,0,0,,,,,,,CANOE,LB,m,y,./images/CANOELB.png,,,,,,,,,,,,,,,,,,,,,m,1,1.1808,,,,,,,,0,99,99,58,1
,,,,,,,,,,,,,,,,,611082ee9fd766aaaf0126db,24,2022-02-12_16h58.19.802,lexical_decision_task_DD_L5,2021.2.3,Win32,60.0240096,,,,,,,,,,,0.7325,0,,,,,,,,,,,,,,,,,,,,,,,,-0.010185185,-0.402777778,0,0,0,,,,,,,GRAPE,LB,m,y,./images/GRAPELB.png,,,,,,,,,,,,,,,,,,,,,z,0,0.7325,,,,,,,,0,100,100,16,1
,,,,,,,,,,,,,,,,,611082ee9fd766aaaf0126db,24,2022-02-12_16h58.19.802,lexical_decision_task_DD_L5,2021.2.3,Win32,60.0240096,,,,,,,,,,,0.8337,1,,,,,,,,,,,,,,,,,,,,,,,,-0.010185185,-0.402777778,0,0,0,,,,,,,CRUST,LB,z,y,./images/CRUSTLB.png,,,,,,,,,,,,,,,,,,,,,z,1,0.8337,,,,,,,,0,101,101,163,1
,,,,,,,,,,,,,,,,,611082ee9fd766aaaf0126db,24,2022-02-12_16h58.19.802,lexical_decision_task_DD_L5,2021.2.3,Win32,60.0240096,,,,,,,,,,,1.0866,0,,,,,,,,,,,,,,,,,,,,,,,,-0.010185185,-0.402777778,0,0,0,,,,,,,CLIFF,C,m,y,./images/CLIFF.png,,,,,,,,,,,,,,,,,,,,,z,0,1.0866,,,,,,,,0,102,102,8,1
,,,,,,,,,,,,,,,,,611082ee9fd766aaaf0126db,24,2022-02-12_16h58.19.802,lexical_decision_task_DD_L5,2021.2.3,Win32,60.0240096,,,,,,,,,,,1.7996,1,,,,,,,,,,,,,,,,,,,,,,,,-0.010185185,-0.402777778,0,0,0,,,,,,,SCREW,HB,z,y,./images/SCREWHB.png,,,,,,,,,,,,,,,,,,,,,z,1,1.7996,,,,,,,,0,103,103,108,1
,,,,,,,,,,,,,,,,,611082ee9fd766aaaf0126db,24,2022-02-12_16h58.19.802,lexical_decision_task_DD_L5,2021.2.3,Win32,60.0240096,,,,,,,,,,,0.7494,1,,,,,,,,,,,,,,,,,,,,,,,,-0.010185185,-0.402777778,0,0,0,,,,,,,MEDAL,C,m,y,./images/MEDAL.png,,,,,,,,,,,,,,,,,,,,,m,1,0.7494,,,,,,,,0,104,104,11,1
,,,,,,,,,,,,,,,,,611082ee9fd766aaaf0126db,24,2022-02-12_16h58.19.802,lexical_decision_task_DD_L5,2021.2.3,Win32,60.0240096,,,,,,,,,,,0.7431,1,,,,,,,,,,,,,,,,,,,,,,,,-0.010185185,-0.402777778,0,0,0,,,,,,,LIZARD,C,z,y,./images/LIZARD.png,,,,,,,,,,,,,,,,,,,,,z,1,0.7431,,,,,,,,0,105,105,128,1
,,,,,,,,,,,,,,,,,611082ee9fd766aaaf0126db,24,2022-02-12_16h58.19.802,lexical_decision_task_DD_L5,2021.2.3,Win32,60.0240096,,,,,,,,,,,1.0808,1,,,,,,,,,,,,,,,,,,,,,,,,-0.010185185,-0.402777778,0,0,0,,,,,,,JUMPER,C,m,y,./images/JUMPER.png,,,,,,,,,,,,,,,,,,,,,m,1,1.0808,,,,,,,,0,106,106,74,1
,,,,,,,,,,,,,,,,,611082ee9fd766aaaf0126db,24,2022-02-12_16h58.19.802,lexical_decision_task_DD_L5,2021.2.3,Win32,60.0240096,,,,,,,,,,,1.3575,1,,,,,,,,,,,,,,,,,,,,,,,,-0.010185185,-0.402777778,0,0,0,,,,,,,DANCER,HB,m,y,./images/DANCERHB.png,,,,,,,,,,,,,,,,,,,,,m,1,1.3575,,,,,,,,0,107,107,21,1
,,,,,,,,,,,,,,,,,611082ee9fd766aaaf0126db,24,2022-02-12_16h58.19.802,lexical_decision_task_DD_L5,2021.2.3,Win32,60.0240096,,,,,,,,,,,0.9198,0,,,,,,,,,,,,,,,,,,,,,,,,-0.010185185,-0.402777778,0,0,0,,,,,,,PLANET,C,m,y,./images/PLANET.png,,,,,,,,,,,,,,,,,,,,,z,0,0.9198,,,,,,,,0,108,108,80,1
,,,,,,,,,,,,,,,,,611082ee9fd766aaaf0126db,24,2022-02-12_16h58.19.802,lexical_decision_task_DD_L5,2021.2.3,Win32,60.0240096,,,,,,,,,,,1.4039,1,,,,,,,,,,,,,,,,,,,,,,,,-0.010185185,-0.402777778,0,0,0,,,,,,,PILOT,C,m,y,./images/PILOT.png,,,,,,,,,,,,,,,,,,,,,m,1,1.4039,,,,,,,,0,109,109,50,1
,,,,,,,,,,,,,,,,,611082ee9fd766aaaf0126db,24,2022-02-12_16h58.19.802,lexical_decision_task_DD_L5,2021.2.3,Win32,60.0240096,,,,,,,,,,,1.8225,0,,,,,,,,,,,,,,,,,,,,,,,,-0.010185185,-0.402777778,0,0,0,,,,,,,SWEAT,HB,z,y,./images/SWEATHB.png,,,,,,,,,,,,,,,,,,,,,m,0,1.8225,,,,,,,,0,110,110,150,1
,,,,,,,,,,,,,,,,,611082ee9fd766aaaf0126db,24,2022-02-12_16h58.19.802,lexical_decision_task_DD_L5,2021.2.3,Win32,60.0240096,,,,,,,,,,,1.178,0,,,,,,,,,,,,,,,,,,,,,,,,-0.010185185,-0.402777778,0,0,0,,,,,,,COLLAR,HB,m,y,./images/COLLARHB.png,,,,,,,,,,,,,,,,,,,,,z,0,1.178,,,,,,,,0,111,111,15,1
,,,,,,,,,,,,,,,,,611082ee9fd766aaaf0126db,24,2022-02-12_16h58.19.802,lexical_decision_task_DD_L5,2021.2.3,Win32,60.0240096,,,,,,,,,,,0.7861,1,,,,,,,,,,,,,,,,,,,,,,,,-0.010185185,-0.402777778,0,0,0,,,,,,,URINE,LB,z,y,./images/URINELB.png,,,,,,,,,,,,,,,,,,,,,z,1,0.7861,,,,,,,,0,112,112,154,1
,,,,,,,,,,,,,,,,,611082ee9fd766aaaf0126db,24,2022-02-12_16h58.19.802,lexical_decision_task_DD_L5,2021.2.3,Win32,60.0240096,,,,,,,,,,,3.4659,1,,,,,,,,,,,,,,,,,,,,,,,,-0.010185185,-0.402777778,0,0,0,,,,,,,MOTOR,LB,z,y,./images/MOTORLB.png,,,,,,,,,,,,,,,,,,,,,z,1,3.4659,,,,,,,,0,113,113,97,1
,,,,,,,,,,,,,,,,,611082ee9fd766aaaf0126db,24,2022-02-12_16h58.19.802,lexical_decision_task_DD_L5,2021.2.3,Win32,60.0240096,,,,,,,,,,,0.7516,1,,,,,,,,,,,,,,,,,,,,,,,,-0.010185185,-0.402777778,0,0,0,,,,,,,SPORT,HB,z,y,./images/SPORTHB.png,,,,,,,,,,,,,,,,,,,,,z,1,0.7516,,,,,,,,0,114,114,132,1
,,,,,,,,,,,,,,,,,611082ee9fd766aaaf0126db,24,2022-02-12_16h58.19.802,lexical_decision_task_DD_L5,2021.2.3,Win32,60.0240096,,,,,,,,,,,1.0703,1,,,,,,,,,,,,,,,,,,,,,,,,-0.010185185,-0.402777778,0,0,0,,,,,,,BISHOP,LB,m,y,./images/BISHOPLB.png,,,,,,,,,,,,,,,,,,,,,m,1,1.0703,,,,,,,,0,115,115,49,1
,,,,,,,,,,,,,,,,,611082ee9fd766aaaf0126db,24,2022-02-12_16h58.19.802,lexical_decision_task_DD_L5,2021.2.3,Win32,60.0240096,,,,,,,,,,,0.8896,0,,,,,,,,,,,,,,,,,,,,,,,,-0.010185185,-0.402777778,0,0,0,,,,,,,ENGINE,C,m,y,./images/ENGINE.png,,,,,,,,,,,,,,,,,,,,,z,0,0.8896,,,,,,,,0,116,116,38,1
,,,,,,,,,,,,,,,,,611082ee9fd766aaaf0126db,24,2022-02-12_16h58.19.802,lexical_decision_task_DD_L5,2021.2.3,Win32,60.0240096,,,,,,,,,,,0.7351,1,,,,,,,,,,,,,,,,,,,,,,,,-0.010185185,-0.402777778,0,0,0,,,,,,,MIDGET,LB,m,y,./images/MIDGETLB.png,,,,,,,,,,,,,,,,,,,,,m,1,0.7351,,,,,,,,0,117,117,76,1
,,,,,,,,,,,,,,,,,611082ee9fd766aaaf0126db,24,2022-02-12_16h58.19.802,lexical_decision_task_DD_L5,2021.2.3,Win32,60.0240096,,,,,,,,,,,0.829,1,,,,,,,,,,,,,,,,,,,,,,,,-0.010185185,-0.402777778,0,0,0,,,,,,,FALCON,LB,z,y,./images/FALCONLB.png,,,,,,,,,,,,,,,,,,,,,z,1,0.829,,,,,,,,0,118,118,112,1
,,,,,,,,,,,,,,,,,611082ee9fd766aaaf0126db,24,2022-02-12_16h58.19.802,lexical_decision_task_DD_L5,2021.2.3,Win32,60.0240096,,,,,,,,,,,0.8954,1,,,,,,,,,,,,,,,,,,,,,,,,-0.010185185,-0.402777778,0,0,0,,,,,,,BUNNY,LB,m,y,./images/BUNNYLB.png,,,,,,,,,,,,,,,,,,,,,m,1,0.8954,,,,,,,,0,119,119,13,1
,,,,,,,,,,,,,,,,,611082ee9fd766aaaf0126db,24,2022-02-12_16h58.19.802,lexical_decision_task_DD_L5,2021.2.3,Win32,60.0240096,,,,,,,,,,,0.9746,1,,,,,,,,,,,,,,,,,,,,,,,,-0.010185185,-0.402777778,0,0,0,,,,,,,CRADLE,C,z,y,./images/CRADLE.png,,,,,,,,,,,,,,,,,,,,,z,1,0.9746,,,,,,,,0,120,120,104,1
,,,,,,,,,,,,,,,,,611082ee9fd766aaaf0126db,24,2022-02-12_16h58.19.802,lexical_decision_task_DD_L5,2021.2.3,Win32,60.0240096,,,,,,,,,,,1.5058,0,,,,,,,,,,,,,,,,,,,,,,,,-0.010185185,-0.402777778,0,0,0,,,,,,,CANDLE,LB,z,y,./images/CANDLELB.png,,,,,,,,,,,,,,,,,,,,,m,0,1.5058,,,,,,,,0,121,121,145,1
,,,,,,,,,,,,,,,,,611082ee9fd766aaaf0126db,24,2022-02-12_16h58.19.802,lexical_decision_task_DD_L5,2021.2.3,Win32,60.0240096,,,,,,,,,,,0.827,1,,,,,,,,,,,,,,,,,,,,,,,,-0.010185185,-0.402777778,0,0,0,,,,,,,BELLY,LB,z,y,./images/BELLYLB.png,,,,,,,,,,,,,,,,,,,,,z,1,0.827,,,,,,,,0,122,122,94,1
,,,,,,,,,,,,,,,,,611082ee9fd766aaaf0126db,24,2022-02-12_16h58.19.802,lexical_decision_task_DD_L5,2021.2.3,Win32,60.0240096,,,,,,,,,,,0.9529,1,,,,,,,,,,,,,,,,,,,,,,,,-0.010185185,-0.402777778,0,0,0,,,,,,,PENCE,LB,z,y,./images/PENCELB.png,,,,,,,,,,,,,,,,,,,,,z,1,0.9529,,,,,,,,0,123,123,100,1
,,,,,,,,,,,,,,,,,611082ee9fd766aaaf0126db,24,2022-02-12_16h58.19.802,lexical_decision_task_DD_L5,2021.2.3,Win32,60.0240096,,,,,,,,,,,1.3183,1,,,,,,,,,,,,,,,,,,,,,,,,-0.010185185,-0.402777778,0,0,0,,,,,,,BUTTER,HB,m,y,./images/BUTTERHB.png,,,,,,,,,,,,,,,,,,,,,m,1,1.3183,,,,,,,,0,124,124,27,1
,,,,,,,,,,,,,,,,,611082ee9fd766aaaf0126db,24,2022-02-12_16h58.19.802,lexical_decision_task_DD_L5,2021.2.3,Win32,60.0240096,,,,,,,,,,,1.915,0,,,,,,,,,,,,,,,,,,,,,,,,-0.010185185,-0.402777778,0,0,0,space,,,,,,MOOSE,HB,z,y,./images/MOOSEHB.png,1.5018,,,,,,,,,,,,,,,,,,,,m,0,1.915,,,,,,,,0,125,125,141,1
,,,,,,,,,,,,,,,,,611082ee9fd766aaaf0126db,24,2022-02-12_16h58.19.802,lexical_decision_task_DD_L5,2021.2.3,Win32,60.0240096,,,,,,,,,,,0.9499,1,,,,,,,,,,,,,,,,,,,,,,,,-0.010185185,-0.402777778,0,0,0,,,,,,,INFANT,LB,z,y,./images/INFANTLB.png,,,,,,,,,,,,,,,,,,,,,z,1,0.9499,,,,,,,,0,126,126,160,1
,,,,,,,,,,,,,,,,,611082ee9fd766aaaf0126db,24,2022-02-12_16h58.19.802,lexical_decision_task_DD_L5,2021.2.3,Win32,60.0240096,,,,,,,,,,,1.1386,1,,,,,,,,,,,,,,,,,,,,,,,,-0.010185185,-0.402777778,0,0,0,,,,,,,DESERT,LB,m,y,./images/DESERTLB.png,,,,,,,,,,,,,,,,,,,,,m,1,1.1386,,,,,,,,0,127,127,52,1
,,,,,,,,,,,,,,,,,611082ee9fd766aaaf0126db,24,2022-02-12_16h58.19.802,lexical_decision_task_DD_L5,2021.2.3,Win32,60.0240096,,,,,,,,,,,1.5806,1,,,,,,,,,,,,,,,,,,,,,,,,-0.010185185,-0.402777778,0,0,0,,,,,,,TORCH,C,z,y,./images/TORCH.png,,,,,,,,,,,,,,,,,,,,,z,1,1.5806,,,,,,,,0,128,128,152,1
,,,,,,,,,,,,,,,,,611082ee9fd766aaaf0126db,24,2022-02-12_16h58.19.802,lexical_decision_task_DD_L5,2021.2.3,Win32,60.0240096,,,,,,,,,,,1.7971,0,,,,,,,,,,,,,,,,,,,,,,,,-0.010185185,-0.402777778,0,0,0,,,,,,,LADDER,C,z,y,./images/LADDER.png,,,,,,,,,,,,,,,,,,,,,m,0,1.7971,,,,,,,,0,129,129,122,1
,,,,,,,,,,,,,,,,,611082ee9fd766aaaf0126db,24,2022-02-12_16h58.19.802,lexical_decision_task_DD_L5,2021.2.3,Win32,60.0240096,,,,,,,,,,,0.6859,1,,,,,,,,,,,,,,,,,,,,,,,,-0.010185185,-0.402777778,0,0,0,,,,,,,SAILOR,LB,z,y,./images/SAILORLB.png,,,,,,,,,,,,,,,,,,,,,z,1,0.6859,,,,,,,,0,130,130,151,1
,,,,,,,,,,,,,,,,,611082ee9fd766aaaf0126db,24,2022-02-12_16h58.19.802,lexical_decision_task_DD_L5,2021.2.3,Win32,60.0240096,,,,,,,,,,,0.7769,1,,,,,,,,,,,,,,,,,,,,,,,,-0.010185185,-0.402777778,0,0,0,,,,,,,DRUMS,LB,z,y,./images/DRUMSLB.png,,,,,,,,,,,,,,,,,,,,,z,1,0.7769,,,,,,,,0,131,131,133,1
