key_resp.keys,key_resp.rt,instr_done_touch.x,instr_done_touch.y,instr_done_touch.leftButton,instr_done_touch.midButton,instr_done_touch.rightButton,instruction_pages.thisRepN,instruction_pages.thisTrialN,instruction_pages.thisN,instruction_pages.thisIndex,instruction_pages.ran,pageN,phase,instruct_text,has_image,instruct_image,participant,age,date,expName,psychopyVersion,OS,frameRate,response.keys,response.corr,response.rt,touch_resp.x,touch_resp.y,touch_resp.leftButton,touch_resp.midButton,touch_resp.rightButton,touch_resp.time,touch_resp.clicked_name,rt,corr,practrials.thisRepN,practrials.thisTrialN,practrials.thisN,practrials.thisIndex,practrials.ran,TrialID,Target,corrAns,end_of_practice_trials_pages.thisRepN,end_of_practice_trials_pages.thisTrialN,end_of_practice_trials_pages.thisN,end_of_practice_trials_pages.thisIndex,end_of_practice_trials_pages.ran,key_resp_2.keys,key_resp_2.corr,key_resp_2.rt,targ_click.x,targ_click.y,targ_click.leftButton,targ_click.midButton,targ_click.rightButton,targ_click.time,targ_click.clicked_name,break_done_touch.x,break_done_touch.y,break_done_touch.leftButton,break_done_touch.midButton,break_done_touch.rightButton,break_done_keyboard.keys,maintrials.thisRepN,maintrials.thisTrialN,maintrials.thisN,maintrials.thisIndex,maintrials.ran,string,blur,study,lex,stim_path,break_done_keyboard.rt,mouse_2.x,mouse_2.y,mouse_2.leftButton,mouse_2.midButton,mouse_2.rightButton,mouse_2.clicked_name,slider.response,slider.rt,trials.thisRepN,trials.thisTrialN,trials.thisN,trials.thisIndex,trials.ran,test_instructions.thisRepN,test_instructions.thisTrialN,test_instructions.thisN,test_instructions.thisIndex,test_instructions.ran,instr_done_touch.clicked_name,key_resp_3.keys,key_resp_3.corr,key_resp_3.rt,test_click.x,test_click.y,test_click.leftButton,test_click.midButton,test_click.rightButton,test_click.time,test_click.clicked_name,test_phase.thisRepN,test_phase.thisTrialN,test_phase.thisN,test_phase.thisIndex,test_phase.ran
space,11.2332,-0.8,0.5,0,0,0,0,0,0,0,1,1,instructions,"INSTRUCTIONS
At the start of each trial, look at the plus sign  (+) in the center of the screen.  This tells you that a trial is about to begin and where to look. Second, the plus sign will disappear and a string of letters will appear. Your task is to determine if the string of letters is a word or not. If the item is a word press the M key (on keyboard)  or touch the word button (phone/tablet).  If the item is not a word,  press the  Z key (on keyboard)  or touch the nonword button (on phone/tablet). 
Press the space bar or touch  continue.",0,,61122ef0e7330ccc3c759eb7,30,2022-02-12_12h49.01.813,lexical_decision_task_DD_L5,2021.2.3,MacIntel,60.0024001,,,,,,,,,,,,,,,,,,,,,,,,,,,,,,,,,,,,,,,,,,,,,,,,,,,,,,,,,,,,,,,,,,,,,,,,,,,,,,,,,,,,,,
space,7.3907,-0.8,0.5,0,0,0,0,1,1,1,1,2,instructions,"If your device has a keyboard, press the 'Z' key for nonwords and the 'M' key for words.





Press the space bar or touch the button below to continue.",0,keyboard-example.gif,61122ef0e7330ccc3c759eb7,30,2022-02-12_12h49.01.813,lexical_decision_task_DD_L5,2021.2.3,MacIntel,60.0024001,,,,,,,,,,,,,,,,,,,,,,,,,,,,,,,,,,,,,,,,,,,,,,,,,,,,,,,,,,,,,,,,,,,,,,,,,,,,,,,,,,,,,,
space,2.6867,-0.8,0.5,0,0,0,0,2,2,2,1,3,instructions,"If you are using a touchscreen only device, use the buttons on the screen. Do not use the mouse.





Press the space bar or touch the button below to continue.",0,touchscreen-example.gif,61122ef0e7330ccc3c759eb7,30,2022-02-12_12h49.01.813,lexical_decision_task_DD_L5,2021.2.3,MacIntel,60.0024001,,,,,,,,,,,,,,,,,,,,,,,,,,,,,,,,,,,,,,,,,,,,,,,,,,,,,,,,,,,,,,,,,,,,,,,,,,,,,,,,,,,,,,
space,9.4765,-0.8,0.5,0,0,0,0,3,3,3,1,4,instructions,"It is very important that you respond as quickly and accurately as possible, as each letter string will only be on the screen for two seconds. If you do not respond within this time, the message 'Too slow!' will be displayed and the experiment will progress to the next letter string. The first 20 trials will be practice trials and you will receive feedback on your answers. 

Press the space bar or touch the button below to start the practice trials.",0,,61122ef0e7330ccc3c759eb7,30,2022-02-12_12h49.01.813,lexical_decision_task_DD_L5,2021.2.3,MacIntel,60.0024001,,,,,,,,,,,,,,,,,,,,,,,,,,,,,,,,,,,,,,,,,,,,,,,,,,,,,,,,,,,,,,,,,,,,,,,,,,,,,,,,,,,,,,
,,,,,,,,,,,,,,,,,61122ef0e7330ccc3c759eb7,30,2022-02-12_12h49.01.813,lexical_decision_task_DD_L5,2021.2.3,MacIntel,60.0024001,z,1,1.808,,,,,,,,1.808,1,0,0,0,10,1,1001,INLADE,z,,,,,,,,,,,,,,,,,,,,,,,,,,,,,,,,,,,,,,,,,,,,,,,,,,,,,,,,,,,,,,,,,,
,,,,,,,,,,,,,,,,,61122ef0e7330ccc3c759eb7,30,2022-02-12_12h49.01.813,lexical_decision_task_DD_L5,2021.2.3,MacIntel,60.0024001,z,1,0.9314,,,,,,,,0.9314,1,0,1,1,11,1,1001,RASHET,z,,,,,,,,,,,,,,,,,,,,,,,,,,,,,,,,,,,,,,,,,,,,,,,,,,,,,,,,,,,,,,,,,,
,,,,,,,,,,,,,,,,,61122ef0e7330ccc3c759eb7,30,2022-02-12_12h49.01.813,lexical_decision_task_DD_L5,2021.2.3,MacIntel,60.0024001,z,1,0.881,,,,,,,,0.881,1,0,2,2,15,1,1001,WHAISE,z,,,,,,,,,,,,,,,,,,,,,,,,,,,,,,,,,,,,,,,,,,,,,,,,,,,,,,,,,,,,,,,,,,
,,,,,,,,,,,,,,,,,61122ef0e7330ccc3c759eb7,30,2022-02-12_12h49.01.813,lexical_decision_task_DD_L5,2021.2.3,MacIntel,60.0024001,z,1,0.9652,,,,,,,,0.9652,1,0,3,3,8,1,1001,ASLERT,z,,,,,,,,,,,,,,,,,,,,,,,,,,,,,,,,,,,,,,,,,,,,,,,,,,,,,,,,,,,,,,,,,,
,,,,,,,,,,,,,,,,,61122ef0e7330ccc3c759eb7,30,2022-02-12_12h49.01.813,lexical_decision_task_DD_L5,2021.2.3,MacIntel,60.0024001,z,1,0.8806,,,,,,,,0.8806,1,0,4,4,13,1,1001,ROUPET,z,,,,,,,,,,,,,,,,,,,,,,,,,,,,,,,,,,,,,,,,,,,,,,,,,,,,,,,,,,,,,,,,,,
,,,,,,,,,,,,,,,,,61122ef0e7330ccc3c759eb7,30,2022-02-12_12h49.01.813,lexical_decision_task_DD_L5,2021.2.3,MacIntel,60.0024001,m,1,1.2378,,,,,,,,1.2378,1,0,5,5,4,1,1001,SQUEAK,m,,,,,,,,,,,,,,,,,,,,,,,,,,,,,,,,,,,,,,,,,,,,,,,,,,,,,,,,,,,,,,,,,,
,,,,,,,,,,,,,,,,,61122ef0e7330ccc3c759eb7,30,2022-02-12_12h49.01.813,lexical_decision_task_DD_L5,2021.2.3,MacIntel,60.0024001,m,1,0.7969,,,,,,,,0.7969,1,0,6,6,0,1,1001,UTOPIA,m,,,,,,,,,,,,,,,,,,,,,,,,,,,,,,,,,,,,,,,,,,,,,,,,,,,,,,,,,,,,,,,,,,
,,,,,,,,,,,,,,,,,61122ef0e7330ccc3c759eb7,30,2022-02-12_12h49.01.813,lexical_decision_task_DD_L5,2021.2.3,MacIntel,60.0024001,z,1,0.9006,,,,,,,,0.9006,1,0,7,7,9,1,1001,FARINY,z,,,,,,,,,,,,,,,,,,,,,,,,,,,,,,,,,,,,,,,,,,,,,,,,,,,,,,,,,,,,,,,,,,
,,,,,,,,,,,,,,,,,61122ef0e7330ccc3c759eb7,30,2022-02-12_12h49.01.813,lexical_decision_task_DD_L5,2021.2.3,MacIntel,60.0024001,m,1,0.7135,,,,,,,,0.7135,1,0,8,8,7,1,1001,VOLUME,m,,,,,,,,,,,,,,,,,,,,,,,,,,,,,,,,,,,,,,,,,,,,,,,,,,,,,,,,,,,,,,,,,,
,,,,,,,,,,,,,,,,,61122ef0e7330ccc3c759eb7,30,2022-02-12_12h49.01.813,lexical_decision_task_DD_L5,2021.2.3,MacIntel,60.0024001,m,1,0.732,,,,,,,,0.732,1,0,9,9,6,1,1001,ZOMBIE,m,,,,,,,,,,,,,,,,,,,,,,,,,,,,,,,,,,,,,,,,,,,,,,,,,,,,,,,,,,,,,,,,,,
,,,,,,,,,,,,,,,,,61122ef0e7330ccc3c759eb7,30,2022-02-12_12h49.01.813,lexical_decision_task_DD_L5,2021.2.3,MacIntel,60.0024001,m,1,0.7347,,,,,,,,0.7347,1,0,10,10,5,1,1001,OBTAIN,m,,,,,,,,,,,,,,,,,,,,,,,,,,,,,,,,,,,,,,,,,,,,,,,,,,,,,,,,,,,,,,,,,,
,,,,,,,,,,,,,,,,,61122ef0e7330ccc3c759eb7,30,2022-02-12_12h49.01.813,lexical_decision_task_DD_L5,2021.2.3,MacIntel,60.0024001,m,1,0.6945,,,,,,,,0.6945,1,0,11,11,1,1,1001,ADJUST,m,,,,,,,,,,,,,,,,,,,,,,,,,,,,,,,,,,,,,,,,,,,,,,,,,,,,,,,,,,,,,,,,,,
,,,,,,,,,,,,,,,,,61122ef0e7330ccc3c759eb7,30,2022-02-12_12h49.01.813,lexical_decision_task_DD_L5,2021.2.3,MacIntel,60.0024001,z,1,0.9123,,,,,,,,0.9123,1,0,12,12,12,1,1001,SPRINY,z,,,,,,,,,,,,,,,,,,,,,,,,,,,,,,,,,,,,,,,,,,,,,,,,,,,,,,,,,,,,,,,,,,
,,,,,,,,,,,,,,,,,61122ef0e7330ccc3c759eb7,30,2022-02-12_12h49.01.813,lexical_decision_task_DD_L5,2021.2.3,MacIntel,60.0024001,z,1,0.9688,,,,,,,,0.9688,1,0,13,13,14,1,1001,THRALE,z,,,,,,,,,,,,,,,,,,,,,,,,,,,,,,,,,,,,,,,,,,,,,,,,,,,,,,,,,,,,,,,,,,
,,,,,,,,,,,,,,,,,61122ef0e7330ccc3c759eb7,30,2022-02-12_12h49.01.813,lexical_decision_task_DD_L5,2021.2.3,MacIntel,60.0024001,m,1,0.8452,,,,,,,,0.8452,1,0,14,14,3,1,1001,MATRIX,m,,,,,,,,,,,,,,,,,,,,,,,,,,,,,,,,,,,,,,,,,,,,,,,,,,,,,,,,,,,,,,,,,,
,,,,,,,,,,,,,,,,,61122ef0e7330ccc3c759eb7,30,2022-02-12_12h49.01.813,lexical_decision_task_DD_L5,2021.2.3,MacIntel,60.0024001,m,1,0.8671,,,,,,,,0.8671,1,0,15,15,2,1,1001,ALMOND,m,,,,,,,,,,,,,,,,,,,,,,,,,,,,,,,,,,,,,,,,,,,,,,,,,,,,,,,,,,,,,,,,,,
space,18.7461,-0.8,0.5,0,0,0,,,,,,1,end_of_practice,"You have completed the practice trials. During the experimental trials, you will not receive feedback. 
Before you begin, please ensure that you are in a comfortable and quiet location and will not be disturbed for about 15 minutes, as we cannot use your data if you do not complete all the trials. 
 When you are ready to start the experimental trials, please press space or touch the button below.",,,61122ef0e7330ccc3c759eb7,30,2022-02-12_12h49.01.813,lexical_decision_task_DD_L5,2021.2.3,MacIntel,60.0024001,,,,,,,,,,,,,,,,,,,,,0,0,0,0,1,,,,,,,,,,,,,,,,,,,,,,,,,,,,,,,,,,,,,,,,,,,,,,,,,,,,,,,,,,,,,
,,,,,,,,,,,,,,,,,61122ef0e7330ccc3c759eb7,30,2022-02-12_12h49.01.813,lexical_decision_task_DD_L5,2021.2.3,MacIntel,60.0024001,,,,,,,,,,,2.5895,1,,,,,,,,,,,,,,m,1,2.5895,,,,,,,,-0.8,0.5,0,0,0,,0,0,0,78,1,BROOM,HB,old,m,./images/BROOMHB.png,,,,,,,,,,,,,,,,,,,,,,,,,,,,,,,,,,,
,,,,,,,,,,,,,,,,,61122ef0e7330ccc3c759eb7,30,2022-02-12_12h49.01.813,lexical_decision_task_DD_L5,2021.2.3,MacIntel,60.0024001,,,,,,,,,,,1.5988,1,,,,,,,,,,,,,,z,1,1.5988,,,,,,,,-0.8,0.5,0,0,0,,0,1,1,130,1,CRILL,HB,old,z,./images/CRILLHB.png,,,,,,,,,,,,,,,,,,,,,,,,,,,,,,,,,,,
,,,,,,,,,,,,,,,,,61122ef0e7330ccc3c759eb7,30,2022-02-12_12h49.01.813,lexical_decision_task_DD_L5,2021.2.3,MacIntel,60.0024001,,,,,,,,,,,1.3135,1,,,,,,,,,,,,,,z,1,1.3135,,,,,,,,-0.8,0.5,0,0,0,,0,2,2,151,1,TINKY,HB,old,z,./images/TINKYHB.png,,,,,,,,,,,,,,,,,,,,,,,,,,,,,,,,,,,
,,,,,,,,,,,,,,,,,61122ef0e7330ccc3c759eb7,30,2022-02-12_12h49.01.813,lexical_decision_task_DD_L5,2021.2.3,MacIntel,60.0024001,,,,,,,,,,,0.9129,1,,,,,,,,,,,,,,m,1,0.9129,,,,,,,,-0.8,0.5,0,0,0,,0,3,3,47,1,LAGOON,C,old,m,./images/LAGOON.png,,,,,,,,,,,,,,,,,,,,,,,,,,,,,,,,,,,
,,,,,,,,,,,,,,,,,61122ef0e7330ccc3c759eb7,30,2022-02-12_12h49.01.813,lexical_decision_task_DD_L5,2021.2.3,MacIntel,60.0024001,,,,,,,,,,,0.8122,1,,,,,,,,,,,,,,z,1,0.8122,,,,,,,,-0.8,0.5,0,0,0,,0,4,4,156,1,HIXES,C,old,z,./images/HIXES.png,,,,,,,,,,,,,,,,,,,,,,,,,,,,,,,,,,,
,,,,,,,,,,,,,,,,,61122ef0e7330ccc3c759eb7,30,2022-02-12_12h49.01.813,lexical_decision_task_DD_L5,2021.2.3,MacIntel,60.0024001,,,,,,,,,,,0.9466,1,,,,,,,,,,,,,,m,1,0.9466,,,,,,,,-0.8,0.5,0,0,0,,0,5,5,18,1,PARCEL,HB,old,m,./images/PARCELHB.png,,,,,,,,,,,,,,,,,,,,,,,,,,,,,,,,,,,
,,,,,,,,,,,,,,,,,61122ef0e7330ccc3c759eb7,30,2022-02-12_12h49.01.813,lexical_decision_task_DD_L5,2021.2.3,MacIntel,60.0024001,,,,,,,,,,,1.1799,1,,,,,,,,,,,,,,z,1,1.1799,,,,,,,,-0.8,0.5,0,0,0,,0,6,6,136,1,WERVE,HB,old,z,./images/WERVEHB.png,,,,,,,,,,,,,,,,,,,,,,,,,,,,,,,,,,,
,,,,,,,,,,,,,,,,,61122ef0e7330ccc3c759eb7,30,2022-02-12_12h49.01.813,lexical_decision_task_DD_L5,2021.2.3,MacIntel,60.0024001,,,,,,,,,,,0.745,1,,,,,,,,,,,,,,m,1,0.745,,,,,,,,-0.8,0.5,0,0,0,,0,7,7,38,1,ENGINE,C,old,m,./images/ENGINE.png,,,,,,,,,,,,,,,,,,,,,,,,,,,,,,,,,,,
,,,,,,,,,,,,,,,,,61122ef0e7330ccc3c759eb7,30,2022-02-12_12h49.01.813,lexical_decision_task_DD_L5,2021.2.3,MacIntel,60.0024001,,,,,,,,,,,0.8289,1,,,,,,,,,,,,,,z,1,0.8289,,,,,,,,-0.8,0.5,0,0,0,,0,8,8,90,1,NEAST,C,old,z,./images/NEAST.png,,,,,,,,,,,,,,,,,,,,,,,,,,,,,,,,,,,
,,,,,,,,,,,,,,,,,61122ef0e7330ccc3c759eb7,30,2022-02-12_12h49.01.813,lexical_decision_task_DD_L5,2021.2.3,MacIntel,60.0024001,,,,,,,,,,,0.9295,1,,,,,,,,,,,,,,z,1,0.9295,,,,,,,,-0.8,0.5,0,0,0,,0,9,9,116,1,BALGY,LB,old,z,./images/BALGYLB.png,,,,,,,,,,,,,,,,,,,,,,,,,,,,,,,,,,,
,,,,,,,,,,,,,,,,,61122ef0e7330ccc3c759eb7,30,2022-02-12_12h49.01.813,lexical_decision_task_DD_L5,2021.2.3,MacIntel,60.0024001,,,,,,,,,,,0.8296,1,,,,,,,,,,,,,,z,1,0.8296,,,,,,,,-0.8,0.5,0,0,0,,0,10,10,120,1,RINED,C,old,z,./images/RINED.png,,,,,,,,,,,,,,,,,,,,,,,,,,,,,,,,,,,
,,,,,,,,,,,,,,,,,61122ef0e7330ccc3c759eb7,30,2022-02-12_12h49.01.813,lexical_decision_task_DD_L5,2021.2.3,MacIntel,60.0024001,,,,,,,,,,,0.8281,1,,,,,,,,,,,,,,z,1,0.8281,,,,,,,,-0.8,0.5,0,0,0,,0,11,11,153,1,CLUPS,C,old,z,./images/CLUPS.png,,,,,,,,,,,,,,,,,,,,,,,,,,,,,,,,,,,
,,,,,,,,,,,,,,,,,61122ef0e7330ccc3c759eb7,30,2022-02-12_12h49.01.813,lexical_decision_task_DD_L5,2021.2.3,MacIntel,60.0024001,,,,,,,,,,,0.746,1,,,,,,,,,,,,,,z,1,0.746,,,,,,,,-0.8,0.5,0,0,0,,0,12,12,99,1,BACKY,C,old,z,./images/BACKY.png,,,,,,,,,,,,,,,,,,,,,,,,,,,,,,,,,,,
,,,,,,,,,,,,,,,,,61122ef0e7330ccc3c759eb7,30,2022-02-12_12h49.01.813,lexical_decision_task_DD_L5,2021.2.3,MacIntel,60.0024001,,,,,,,,,,,0.9132,1,,,,,,,,,,,,,,m,1,0.9132,,,,,,,,-0.8,0.5,0,0,0,,0,13,13,39,1,CANDY,HB,old,m,./images/CANDYHB.png,,,,,,,,,,,,,,,,,,,,,,,,,,,,,,,,,,,
,,,,,,,,,,,,,,,,,61122ef0e7330ccc3c759eb7,30,2022-02-12_12h49.01.813,lexical_decision_task_DD_L5,2021.2.3,MacIntel,60.0024001,,,,,,,,,,,1.6821,1,,,,,,,,,,,,,,m,1,1.6821,,,,,,,,-0.8,0.5,0,0,0,,0,14,14,12,1,BLOKE,HB,old,m,./images/BLOKEHB.png,,,,,,,,,,,,,,,,,,,,,,,,,,,,,,,,,,,
,,,,,,,,,,,,,,,,,61122ef0e7330ccc3c759eb7,30,2022-02-12_12h49.01.813,lexical_decision_task_DD_L5,2021.2.3,MacIntel,60.0024001,,,,,,,,,,,0.9314,1,,,,,,,,,,,,,,m,1,0.9314,,,,,,,,-0.8,0.5,0,0,0,,0,15,15,68,1,VALLEY,C,old,m,./images/VALLEY.png,,,,,,,,,,,,,,,,,,,,,,,,,,,,,,,,,,,
,,,,,,,,,,,,,,,,,61122ef0e7330ccc3c759eb7,30,2022-02-12_12h49.01.813,lexical_decision_task_DD_L5,2021.2.3,MacIntel,60.0024001,,,,,,,,,,,0.9648,1,,,,,,,,,,,,,,m,1,0.9648,,,,,,,,-0.8,0.5,0,0,0,,0,16,16,82,1,PEBBLE,LB,old,m,./images/PEBBLELB.png,,,,,,,,,,,,,,,,,,,,,,,,,,,,,,,,,,,
,,,,,,,,,,,,,,,,,61122ef0e7330ccc3c759eb7,30,2022-02-12_12h49.01.813,lexical_decision_task_DD_L5,2021.2.3,MacIntel,60.0024001,,,,,,,,,,,0.7807,1,,,,,,,,,,,,,,m,1,0.7807,,,,,,,,-0.8,0.5,0,0,0,,0,17,17,70,1,BANANA,LB,old,m,./images/BANANALB.png,,,,,,,,,,,,,,,,,,,,,,,,,,,,,,,,,,,
,,,,,,,,,,,,,,,,,61122ef0e7330ccc3c759eb7,30,2022-02-12_12h49.01.813,lexical_decision_task_DD_L5,2021.2.3,MacIntel,60.0024001,,,,,,,,,,,0.8487,1,,,,,,,,,,,,,,z,1,0.8487,,,,,,,,-0.8,0.5,0,0,0,,0,18,18,137,1,JOOST,LB,old,z,./images/JOOSTLB.png,,,,,,,,,,,,,,,,,,,,,,,,,,,,,,,,,,,
,,,,,,,,,,,,,,,,,61122ef0e7330ccc3c759eb7,30,2022-02-12_12h49.01.813,lexical_decision_task_DD_L5,2021.2.3,MacIntel,60.0024001,,,,,,,,,,,0.9308,1,,,,,,,,,,,,,,m,1,0.9308,,,,,,,,-0.8,0.5,0,0,0,,0,19,19,67,1,POKER,LB,old,m,./images/POKERLB.png,,,,,,,,,,,,,,,,,,,,,,,,,,,,,,,,,,,
,,,,,,,,,,,,,,,,,61122ef0e7330ccc3c759eb7,30,2022-02-12_12h49.01.813,lexical_decision_task_DD_L5,2021.2.3,MacIntel,60.0024001,,,,,,,,,,,0.6932,1,,,,,,,,,,,,,,m,1,0.6932,,,,,,,,-0.8,0.5,0,0,0,,0,20,20,13,1,BUNNY,LB,old,m,./images/BUNNYLB.png,,,,,,,,,,,,,,,,,,,,,,,,,,,,,,,,,,,
,,,,,,,,,,,,,,,,,61122ef0e7330ccc3c759eb7,30,2022-02-12_12h49.01.813,lexical_decision_task_DD_L5,2021.2.3,MacIntel,60.0024001,,,,,,,,,,,0.8632,1,,,,,,,,,,,,,,z,1,0.8632,,,,,,,,-0.8,0.5,0,0,0,,0,21,21,143,1,MONGS,LB,old,z,./images/MONGSLB.png,,,,,,,,,,,,,,,,,,,,,,,,,,,,,,,,,,,
,,,,,,,,,,,,,,,,,61122ef0e7330ccc3c759eb7,30,2022-02-12_12h49.01.813,lexical_decision_task_DD_L5,2021.2.3,MacIntel,60.0024001,,,,,,,,,,,0.9444,1,,,,,,,,,,,,,,z,1,0.9444,,,,,,,,-0.8,0.5,0,0,0,,0,22,22,129,1,PRANS,C,old,z,./images/PRANS.png,,,,,,,,,,,,,,,,,,,,,,,,,,,,,,,,,,,
,,,,,,,,,,,,,,,,,61122ef0e7330ccc3c759eb7,30,2022-02-12_12h49.01.813,lexical_decision_task_DD_L5,2021.2.3,MacIntel,60.0024001,,,,,,,,,,,1.0131,1,,,,,,,,,,,,,,z,1,1.0131,,,,,,,,-0.8,0.5,0,0,0,,0,23,23,117,1,STEEG,C,old,z,./images/STEEG.png,,,,,,,,,,,,,,,,,,,,,,,,,,,,,,,,,,,
,,,,,,,,,,,,,,,,,61122ef0e7330ccc3c759eb7,30,2022-02-12_12h49.01.813,lexical_decision_task_DD_L5,2021.2.3,MacIntel,60.0024001,,,,,,,,,,,1.3812,1,,,,,,,,,,,,,,m,1,1.3812,,,,,,,,-0.8,0.5,0,0,0,,0,24,24,75,1,HAMMER,HB,old,m,./images/HAMMERHB.png,,,,,,,,,,,,,,,,,,,,,,,,,,,,,,,,,,,
,,,,,,,,,,,,,,,,,61122ef0e7330ccc3c759eb7,30,2022-02-12_12h49.01.813,lexical_decision_task_DD_L5,2021.2.3,MacIntel,60.0024001,,,,,,,,,,,1.2969,1,,,,,,,,,,,,,,m,1,1.2969,,,,,,,,-0.8,0.5,0,0,0,,0,25,25,0,1,WALNUT,HB,old,m,./images/WALNUTHB.png,,,,,,,,,,,,,,,,,,,,,,,,,,,,,,,,,,,
,,,,,,,,,,,,,,,,,61122ef0e7330ccc3c759eb7,30,2022-02-12_12h49.01.813,lexical_decision_task_DD_L5,2021.2.3,MacIntel,60.0024001,,,,,,,,,,,0.7446,1,,,,,,,,,,,,,,m,1,0.7446,,,,,,,,-0.8,0.5,0,0,0,,0,26,26,41,1,STREAM,C,old,m,./images/STREAM.png,,,,,,,,,,,,,,,,,,,,,,,,,,,,,,,,,,,
,,,,,,,,,,,,,,,,,61122ef0e7330ccc3c759eb7,30,2022-02-12_12h49.01.813,lexical_decision_task_DD_L5,2021.2.3,MacIntel,60.0024001,,,,,,,,,,,1.6305,1,,,,,,,,,,,,,,z,1,1.6305,,,,,,,,-0.8,0.5,0,0,0,,0,27,27,148,1,JOMS,HB,old,z,./images/JOMSHB.png,,,,,,,,,,,,,,,,,,,,,,,,,,,,,,,,,,,
,,,,,,,,,,,,,,,,,61122ef0e7330ccc3c759eb7,30,2022-02-12_12h49.01.813,lexical_decision_task_DD_L5,2021.2.3,MacIntel,60.0024001,,,,,,,,,,,0.8143,1,,,,,,,,,,,,,,m,1,0.8143,,,,,,,,-0.8,0.5,0,0,0,,0,28,28,58,1,CANOE,LB,old,m,./images/CANOELB.png,,,,,,,,,,,,,,,,,,,,,,,,,,,,,,,,,,,
,,,,,,,,,,,,,,,,,61122ef0e7330ccc3c759eb7,30,2022-02-12_12h49.01.813,lexical_decision_task_DD_L5,2021.2.3,MacIntel,60.0024001,,,,,,,,,,,0.8446,1,,,,,,,,,,,,,,z,1,0.8446,,,,,,,,-0.8,0.5,0,0,0,,0,29,29,93,1,SMONE,C,old,z,./images/SMONE.png,,,,,,,,,,,,,,,,,,,,,,,,,,,,,,,,,,,
,,,,,,,,,,,,,,,,,61122ef0e7330ccc3c759eb7,30,2022-02-12_12h49.01.813,lexical_decision_task_DD_L5,2021.2.3,MacIntel,60.0024001,,,,,,,,,,,1.4967,1,,,,,,,,,,,,,,z,1,1.4967,,,,,,,,-0.8,0.5,0,0,0,,0,30,30,157,1,INLER,HB,old,z,./images/INLERHB.png,,,,,,,,,,,,,,,,,,,,,,,,,,,,,,,,,,,
,,,,,,,,,,,,,,,,,61122ef0e7330ccc3c759eb7,30,2022-02-12_12h49.01.813,lexical_decision_task_DD_L5,2021.2.3,MacIntel,60.0024001,,,,,,,,,,,0.8503,1,,,,,,,,,,,,,,m,1,0.8503,,,,,,,,-0.8,0.5,0,0,0,,0,31,31,45,1,MONKEY,HB,old,m,./images/MONKEYHB.png,,,,,,,,,,,,,,,,,,,,,,,,,,,,,,,,,,,
,,,,,,,,,,,,,,,,,61122ef0e7330ccc3c759eb7,30,2022-02-12_12h49.01.813,lexical_decision_task_DD_L5,2021.2.3,MacIntel,60.0024001,,,,,,,,,,,0.8624,1,,,,,,,,,,,,,,z,1,0.8624,,,,,,,,-0.8,0.5,0,0,0,,0,32,32,150,1,NOOLS,C,old,z,./images/NOOLS.png,,,,,,,,,,,,,,,,,,,,,,,,,,,,,,,,,,,
,,,,,,,,,,,,,,,,,61122ef0e7330ccc3c759eb7,30,2022-02-12_12h49.01.813,lexical_decision_task_DD_L5,2021.2.3,MacIntel,60.0024001,,,,,,,,,,,0.7354,1,,,,,,,,,,,,,,m,1,0.7354,,,,,,,,-0.8,0.5,0,0,0,,0,33,33,28,1,CASINO,LB,old,m,./images/CASINOLB.png,,,,,,,,,,,,,,,,,,,,,,,,,,,,,,,,,,,
,,,,,,,,,,,,,,,,,61122ef0e7330ccc3c759eb7,30,2022-02-12_12h49.01.813,lexical_decision_task_DD_L5,2021.2.3,MacIntel,60.0024001,,,,,,,,,,,1.0479,1,,,,,,,,,,,,,,z,1,1.0479,,,,,,,,-0.8,0.5,0,0,0,,0,34,34,107,1,FASKS,LB,old,z,./images/FASKSLB.png,,,,,,,,,,,,,,,,,,,,,,,,,,,,,,,,,,,
,,,,,,,,,,,,,,,,,61122ef0e7330ccc3c759eb7,30,2022-02-12_12h49.01.813,lexical_decision_task_DD_L5,2021.2.3,MacIntel,60.0024001,,,,,,,,,,,0.9108,1,,,,,,,,,,,,,,z,1,0.9108,,,,,,,,-0.8,0.5,0,0,0,,0,35,35,159,1,CUDDY,C,old,z,./images/CUDDY.png,,,,,,,,,,,,,,,,,,,,,,,,,,,,,,,,,,,
,,,,,,,,,,,,,,,,,61122ef0e7330ccc3c759eb7,30,2022-02-12_12h49.01.813,lexical_decision_task_DD_L5,2021.2.3,MacIntel,60.0024001,,,,,,,,,,,1.0831,1,,,,,,,,,,,,,,z,1,1.0831,,,,,,,,-0.8,0.5,0,0,0,,0,36,36,101,1,GLEET,LB,old,z,./images/GLEETLB.png,,,,,,,,,,,,,,,,,,,,,,,,,,,,,,,,,,,
,,,,,,,,,,,,,,,,,61122ef0e7330ccc3c759eb7,30,2022-02-12_12h49.01.813,lexical_decision_task_DD_L5,2021.2.3,MacIntel,60.0024001,,,,,,,,,,,0.8594,1,,,,,,,,,,,,,,z,1,0.8594,,,,,,,,-0.8,0.5,0,0,0,,0,37,37,152,1,FRAIN,LB,old,z,./images/FRAINLB.png,,,,,,,,,,,,,,,,,,,,,,,,,,,,,,,,,,,
,,,,,,,,,,,,,,,,,61122ef0e7330ccc3c759eb7,30,2022-02-12_12h49.01.813,lexical_decision_task_DD_L5,2021.2.3,MacIntel,60.0024001,,,,,,,,,,,1.5308,1,,,,,,,,,,,,,,z,1,1.5308,,,,,,,,-0.8,0.5,0,0,0,,0,38,38,109,1,BURGE,HB,old,z,./images/BURGEHB.png,,,,,,,,,,,,,,,,,,,,,,,,,,,,,,,,,,,
,,,,,,,,,,,,,,,,,61122ef0e7330ccc3c759eb7,30,2022-02-12_12h49.01.813,lexical_decision_task_DD_L5,2021.2.3,MacIntel,60.0024001,,,,,,,,,,,0.7953,1,,,,,,,,,,,,,,z,1,0.7953,,,,,,,,-0.8,0.5,0,0,0,,0,39,39,141,1,PLEET,C,old,z,./images/PLEET.png,,,,,,,,,,,,,,,,,,,,,,,,,,,,,,,,,,,
,,,,,,,,,,,,,,,,,61122ef0e7330ccc3c759eb7,30,2022-02-12_12h49.01.813,lexical_decision_task_DD_L5,2021.2.3,MacIntel,60.0024001,,,,,,,,,,,0.8331,1,,,,,,,,,,,,,,m,1,0.8331,,,,,,,,-0.8,0.5,0,0,0,,0,40,40,4,1,BOXER,LB,old,m,./images/BOXERLB.png,,,,,,,,,,,,,,,,,,,,,,,,,,,,,,,,,,,
,,,,,,,,,,,,,,,,,61122ef0e7330ccc3c759eb7,30,2022-02-12_12h49.01.813,lexical_decision_task_DD_L5,2021.2.3,MacIntel,60.0024001,,,,,,,,,,,0.731,1,,,,,,,,,,,,,,m,1,0.731,,,,,,,,-0.8,0.5,0,0,0,space,0,41,41,64,1,BRIDE,LB,old,m,./images/BRIDELB.png,5.4144,,,,,,,,,,,,,,,,,,,,,,,,,,,,,,,,,,
,,,,,,,,,,,,,,,,,61122ef0e7330ccc3c759eb7,30,2022-02-12_12h49.01.813,lexical_decision_task_DD_L5,2021.2.3,MacIntel,60.0024001,,,,,,,,,,,0.9842,1,,,,,,,,,,,,,,m,1,0.9842,,,,,,,,-0.8,0.5,0,0,0,,0,42,42,9,1,DIVER,HB,old,m,./images/DIVERHB.png,,,,,,,,,,,,,,,,,,,,,,,,,,,,,,,,,,,
,,,,,,,,,,,,,,,,,61122ef0e7330ccc3c759eb7,30,2022-02-12_12h49.01.813,lexical_decision_task_DD_L5,2021.2.3,MacIntel,60.0024001,,,,,,,,,,,1.0148,1,,,,,,,,,,,,,,m,1,1.0148,,,,,,,,-0.8,0.5,0,0,0,,0,43,43,35,1,LLAMA,C,old,m,./images/LLAMA.png,,,,,,,,,,,,,,,,,,,,,,,,,,,,,,,,,,,
,,,,,,,,,,,,,,,,,61122ef0e7330ccc3c759eb7,30,2022-02-12_12h49.01.813,lexical_decision_task_DD_L5,2021.2.3,MacIntel,60.0024001,,,,,,,,,,,1.3075,1,,,,,,,,,,,,,,z,1,1.3075,,,,,,,,-0.8,0.5,0,0,0,,0,44,44,134,1,TROSS,LB,old,z,./images/TROSSLB.png,,,,,,,,,,,,,,,,,,,,,,,,,,,,,,,,,,,
,,,,,,,,,,,,,,,,,61122ef0e7330ccc3c759eb7,30,2022-02-12_12h49.01.813,lexical_decision_task_DD_L5,2021.2.3,MacIntel,60.0024001,,,,,,,,,,,0.9339,1,,,,,,,,,,,,,,z,1,0.9339,,,,,,,,-0.8,0.5,0,0,0,,0,45,45,146,1,MOOST,LB,old,z,./images/MOOSTLB.png,,,,,,,,,,,,,,,,,,,,,,,,,,,,,,,,,,,
,,,,,,,,,,,,,,,,,61122ef0e7330ccc3c759eb7,30,2022-02-12_12h49.01.813,lexical_decision_task_DD_L5,2021.2.3,MacIntel,60.0024001,,,,,,,,,,,0.8134,1,,,,,,,,,,,,,,m,1,0.8134,,,,,,,,-0.8,0.5,0,0,0,,0,46,46,79,1,RULER,LB,old,m,./images/RULERLB.png,,,,,,,,,,,,,,,,,,,,,,,,,,,,,,,,,,,
,,,,,,,,,,,,,,,,,61122ef0e7330ccc3c759eb7,30,2022-02-12_12h49.01.813,lexical_decision_task_DD_L5,2021.2.3,MacIntel,60.0024001,,,,,,,,,,,0.8241,1,,,,,,,,,,,,,,z,1,0.8241,,,,,,,,-0.8,0.5,0,0,0,,0,47,47,161,1,BLAPS,LB,old,z,./images/BLAPSLB.png,,,,,,,,,,,,,,,,,,,,,,,,,,,,,,,,,,,
,,,,,,,,,,,,,,,,,61122ef0e7330ccc3c759eb7,30,2022-02-12_12h49.01.813,lexical_decision_task_DD_L5,2021.2.3,MacIntel,60.0024001,,,,,,,,,,,1.013,1,,,,,,,,,,,,,,z,1,1.013,,,,,,,,-0.8,0.5,0,0,0,,0,48,48,158,1,EGECT,LB,old,z,./images/EGECTLB.png,,,,,,,,,,,,,,,,,,,,,,,,,,,,,,,,,,,
,,,,,,,,,,,,,,,,,61122ef0e7330ccc3c759eb7,30,2022-02-12_12h49.01.813,lexical_decision_task_DD_L5,2021.2.3,MacIntel,60.0024001,,,,,,,,,,,0.7617,1,,,,,,,,,,,,,,z,1,0.7617,,,,,,,,-0.8,0.5,0,0,0,,0,49,49,104,1,GITTY,LB,old,z,./images/GITTYLB.png,,,,,,,,,,,,,,,,,,,,,,,,,,,,,,,,,,,
,,,,,,,,,,,,,,,,,61122ef0e7330ccc3c759eb7,30,2022-02-12_12h49.01.813,lexical_decision_task_DD_L5,2021.2.3,MacIntel,60.0024001,,,,,,,,,,,1.1659,1,,,,,,,,,,,,,,m,1,1.1659,,,,,,,,-0.8,0.5,0,0,0,,0,50,50,24,1,FLESH,HB,old,m,./images/FLESHHB.png,,,,,,,,,,,,,,,,,,,,,,,,,,,,,,,,,,,
,,,,,,,,,,,,,,,,,61122ef0e7330ccc3c759eb7,30,2022-02-12_12h49.01.813,lexical_decision_task_DD_L5,2021.2.3,MacIntel,60.0024001,,,,,,,,,,,0.7775,1,,,,,,,,,,,,,,m,1,0.7775,,,,,,,,-0.8,0.5,0,0,0,,0,51,51,50,1,PILOT,C,old,m,./images/PILOT.png,,,,,,,,,,,,,,,,,,,,,,,,,,,,,,,,,,,
,,,,,,,,,,,,,,,,,61122ef0e7330ccc3c759eb7,30,2022-02-12_12h49.01.813,lexical_decision_task_DD_L5,2021.2.3,MacIntel,60.0024001,,,,,,,,,,,1.2945,1,,,,,,,,,,,,,,z,1,1.2945,,,,,,,,-0.8,0.5,0,0,0,,0,52,52,127,1,NINDY,HB,old,z,./images/NINDYHB.png,,,,,,,,,,,,,,,,,,,,,,,,,,,,,,,,,,,
,,,,,,,,,,,,,,,,,61122ef0e7330ccc3c759eb7,30,2022-02-12_12h49.01.813,lexical_decision_task_DD_L5,2021.2.3,MacIntel,60.0024001,,,,,,,,,,,0.8292,1,,,,,,,,,,,,,,m,1,0.8292,,,,,,,,-0.8,0.5,0,0,0,,0,53,53,56,1,HEATER,C,old,m,./images/HEATER.png,,,,,,,,,,,,,,,,,,,,,,,,,,,,,,,,,,,
,,,,,,,,,,,,,,,,,61122ef0e7330ccc3c759eb7,30,2022-02-12_12h49.01.813,lexical_decision_task_DD_L5,2021.2.3,MacIntel,60.0024001,,,,,,,,,,,0.9201,1,,,,,,,,,,,,,,z,1,0.9201,,,,,,,,-0.8,0.5,0,0,0,,0,54,54,110,1,CRUNK,LB,old,z,./images/CRUNKLB.png,,,,,,,,,,,,,,,,,,,,,,,,,,,,,,,,,,,
,,,,,,,,,,,,,,,,,61122ef0e7330ccc3c759eb7,30,2022-02-12_12h49.01.813,lexical_decision_task_DD_L5,2021.2.3,MacIntel,60.0024001,,,,,,,,,,,0.8791,1,,,,,,,,,,,,,,z,1,0.8791,,,,,,,,-0.8,0.5,0,0,0,,0,55,55,108,1,GRUET,C,old,z,./images/GRUET.png,,,,,,,,,,,,,,,,,,,,,,,,,,,,,,,,,,,
,,,,,,,,,,,,,,,,,61122ef0e7330ccc3c759eb7,30,2022-02-12_12h49.01.813,lexical_decision_task_DD_L5,2021.2.3,MacIntel,60.0024001,,,,,,,,,,,0.9501,1,,,,,,,,,,,,,,z,1,0.9501,,,,,,,,-0.8,0.5,0,0,0,,0,56,56,92,1,PAIMS,LB,old,z,./images/PAIMSLB.png,,,,,,,,,,,,,,,,,,,,,,,,,,,,,,,,,,,
,,,,,,,,,,,,,,,,,61122ef0e7330ccc3c759eb7,30,2022-02-12_12h49.01.813,lexical_decision_task_DD_L5,2021.2.3,MacIntel,60.0024001,,,,,,,,,,,1.0826,1,,,,,,,,,,,,,,m,1,1.0826,,,,,,,,-0.8,0.5,0,0,0,,0,57,57,3,1,CRATER,HB,old,m,./images/CRATERHB.png,,,,,,,,,,,,,,,,,,,,,,,,,,,,,,,,,,,
,,,,,,,,,,,,,,,,,61122ef0e7330ccc3c759eb7,30,2022-02-12_12h49.01.813,lexical_decision_task_DD_L5,2021.2.3,MacIntel,60.0024001,,,,,,,,,,,0.7509,1,,,,,,,,,,,,,,m,1,0.7509,,,,,,,,-0.8,0.5,0,0,0,,0,58,58,25,1,CHALK,LB,old,m,./images/CHALKLB.png,,,,,,,,,,,,,,,,,,,,,,,,,,,,,,,,,,,
,,,,,,,,,,,,,,,,,61122ef0e7330ccc3c759eb7,30,2022-02-12_12h49.01.813,lexical_decision_task_DD_L5,2021.2.3,MacIntel,60.0024001,,,,,,,,,,,0.8238,1,,,,,,,,,,,,,,z,1,0.8238,,,,,,,,-0.8,0.5,0,0,0,,0,59,59,162,1,LEICH,C,old,z,./images/LEICH.png,,,,,,,,,,,,,,,,,,,,,,,,,,,,,,,,,,,
,,,,,,,,,,,,,,,,,61122ef0e7330ccc3c759eb7,30,2022-02-12_12h49.01.813,lexical_decision_task_DD_L5,2021.2.3,MacIntel,60.0024001,,,,,,,,,,,0.7746,1,,,,,,,,,,,,,,z,1,0.7746,,,,,,,,-0.8,0.5,0,0,0,,0,60,60,119,1,PAFER,LB,old,z,./images/PAFERLB.png,,,,,,,,,,,,,,,,,,,,,,,,,,,,,,,,,,,
,,,,,,,,,,,,,,,,,61122ef0e7330ccc3c759eb7,30,2022-02-12_12h49.01.813,lexical_decision_task_DD_L5,2021.2.3,MacIntel,60.0024001,,,,,,,,,,,1.1608,1,,,,,,,,,,,,,,z,1,1.1608,,,,,,,,-0.8,0.5,0,0,0,,0,61,61,91,1,SHENS,HB,old,z,./images/SHENSHB.png,,,,,,,,,,,,,,,,,,,,,,,,,,,,,,,,,,,
,,,,,,,,,,,,,,,,,61122ef0e7330ccc3c759eb7,30,2022-02-12_12h49.01.813,lexical_decision_task_DD_L5,2021.2.3,MacIntel,60.0024001,,,,,,,,,,,0.8293,1,,,,,,,,,,,,,,m,1,0.8293,,,,,,,,-0.8,0.5,0,0,0,,0,62,62,16,1,GRAPE,LB,old,m,./images/GRAPELB.png,,,,,,,,,,,,,,,,,,,,,,,,,,,,,,,,,,,
,,,,,,,,,,,,,,,,,61122ef0e7330ccc3c759eb7,30,2022-02-12_12h49.01.813,lexical_decision_task_DD_L5,2021.2.3,MacIntel,60.0024001,,,,,,,,,,,0.9307,1,,,,,,,,,,,,,,m,1,0.9307,,,,,,,,-0.8,0.5,0,0,0,,0,63,63,72,1,FLASK,HB,old,m,./images/FLASKHB.png,,,,,,,,,,,,,,,,,,,,,,,,,,,,,,,,,,,
,,,,,,,,,,,,,,,,,61122ef0e7330ccc3c759eb7,30,2022-02-12_12h49.01.813,lexical_decision_task_DD_L5,2021.2.3,MacIntel,60.0024001,,,,,,,,,,,1.4607,1,,,,,,,,,,,,,,z,1,1.4607,,,,,,,,-0.8,0.5,0,0,0,,0,64,64,97,1,CHIDS,HB,old,z,./images/CHIDSHB.png,,,,,,,,,,,,,,,,,,,,,,,,,,,,,,,,,,,
,,,,,,,,,,,,,,,,,61122ef0e7330ccc3c759eb7,30,2022-02-12_12h49.01.813,lexical_decision_task_DD_L5,2021.2.3,MacIntel,60.0024001,,,,,,,,,,,0.8974,1,,,,,,,,,,,,,,z,1,0.8974,,,,,,,,-0.8,0.5,0,0,0,,0,65,65,164,1,SGREW,LB,old,z,./images/SGREWLB.png,,,,,,,,,,,,,,,,,,,,,,,,,,,,,,,,,,,
,,,,,,,,,,,,,,,,,61122ef0e7330ccc3c759eb7,30,2022-02-12_12h49.01.813,lexical_decision_task_DD_L5,2021.2.3,MacIntel,60.0024001,,,,,,,,,,,0.6975,1,,,,,,,,,,,,,,m,1,0.6975,,,,,,,,-0.8,0.5,0,0,0,,0,66,66,14,1,FENCE,C,old,m,./images/FENCE.png,,,,,,,,,,,,,,,,,,,,,,,,,,,,,,,,,,,
,,,,,,,,,,,,,,,,,61122ef0e7330ccc3c759eb7,30,2022-02-12_12h49.01.813,lexical_decision_task_DD_L5,2021.2.3,MacIntel,60.0024001,,,,,,,,,,,0.6718,1,,,,,,,,,,,,,,m,1,0.6718,,,,,,,,-0.8,0.5,0,0,0,,0,67,67,10,1,GARDEN,LB,old,m,./images/GARDENLB.png,,,,,,,,,,,,,,,,,,,,,,,,,,,,,,,,,,,
,,,,,,,,,,,,,,,,,61122ef0e7330ccc3c759eb7,30,2022-02-12_12h49.01.813,lexical_decision_task_DD_L5,2021.2.3,MacIntel,60.0024001,,,,,,,,,,,0.7458,1,,,,,,,,,,,,,,m,1,0.7458,,,,,,,,-0.8,0.5,0,0,0,,0,68,68,53,1,POSTER,C,old,m,./images/POSTER.png,,,,,,,,,,,,,,,,,,,,,,,,,,,,,,,,,,,
,,,,,,,,,,,,,,,,,61122ef0e7330ccc3c759eb7,30,2022-02-12_12h49.01.813,lexical_decision_task_DD_L5,2021.2.3,MacIntel,60.0024001,,,,,,,,,,,0.712,1,,,,,,,,,,,,,,m,1,0.712,,,,,,,,-0.8,0.5,0,0,0,,0,69,69,37,1,TIGER,LB,old,m,./images/TIGERLB.png,,,,,,,,,,,,,,,,,,,,,,,,,,,,,,,,,,,
,,,,,,,,,,,,,,,,,61122ef0e7330ccc3c759eb7,30,2022-02-12_12h49.01.813,lexical_decision_task_DD_L5,2021.2.3,MacIntel,60.0024001,,,,,,,,,,,0.9459,1,,,,,,,,,,,,,,z,1,0.9459,,,,,,,,-0.8,0.5,0,0,0,,0,70,70,121,1,CEERS,HB,old,z,./images/CEERSHB.png,,,,,,,,,,,,,,,,,,,,,,,,,,,,,,,,,,,
,,,,,,,,,,,,,,,,,61122ef0e7330ccc3c759eb7,30,2022-02-12_12h49.01.813,lexical_decision_task_DD_L5,2021.2.3,MacIntel,60.0024001,,,,,,,,,,,0.8105,1,,,,,,,,,,,,,,m,1,0.8105,,,,,,,,-0.8,0.5,0,0,0,,0,71,71,69,1,ARROW,HB,old,m,./images/ARROWHB.png,,,,,,,,,,,,,,,,,,,,,,,,,,,,,,,,,,,
,,,,,,,,,,,,,,,,,61122ef0e7330ccc3c759eb7,30,2022-02-12_12h49.01.813,lexical_decision_task_DD_L5,2021.2.3,MacIntel,60.0024001,,,,,,,,,,,1.1818,1,,,,,,,,,,,,,,m,1,1.1818,,,,,,,,-0.8,0.5,0,0,0,,0,72,72,81,1,DRILL,HB,old,m,./images/DRILLHB.png,,,,,,,,,,,,,,,,,,,,,,,,,,,,,,,,,,,
,,,,,,,,,,,,,,,,,61122ef0e7330ccc3c759eb7,30,2022-02-12_12h49.01.813,lexical_decision_task_DD_L5,2021.2.3,MacIntel,60.0024001,,,,,,,,,,,1.0613,1,,,,,,,,,,,,,,z,1,1.0613,,,,,,,,-0.8,0.5,0,0,0,,0,73,73,103,1,FLORT,HB,old,z,./images/FLORTHB.png,,,,,,,,,,,,,,,,,,,,,,,,,,,,,,,,,,,
,,,,,,,,,,,,,,,,,61122ef0e7330ccc3c759eb7,30,2022-02-12_12h49.01.813,lexical_decision_task_DD_L5,2021.2.3,MacIntel,60.0024001,,,,,,,,,,,0.875,1,,,,,,,,,,,,,,z,1,0.875,,,,,,,,-0.8,0.5,0,0,0,,0,74,74,144,1,NAIRY,C,old,z,./images/NAIRY.png,,,,,,,,,,,,,,,,,,,,,,,,,,,,,,,,,,,
,,,,,,,,,,,,,,,,,61122ef0e7330ccc3c759eb7,30,2022-02-12_12h49.01.813,lexical_decision_task_DD_L5,2021.2.3,MacIntel,60.0024001,,,,,,,,,,,1.1294,1,,,,,,,,,,,,,,z,1,1.1294,,,,,,,,-0.8,0.5,0,0,0,,0,75,75,105,1,MOKER,C,old,z,./images/MOKER.png,,,,,,,,,,,,,,,,,,,,,,,,,,,,,,,,,,,
,,,,,,,,,,,,,,,,,61122ef0e7330ccc3c759eb7,30,2022-02-12_12h49.01.813,lexical_decision_task_DD_L5,2021.2.3,MacIntel,60.0024001,,,,,,,,,,,0.8733,1,,,,,,,,,,,,,,z,1,0.8733,,,,,,,,-0.8,0.5,0,0,0,,0,76,76,138,1,PLICE,C,old,z,./images/PLICE.png,,,,,,,,,,,,,,,,,,,,,,,,,,,,,,,,,,,
,,,,,,,,,,,,,,,,,61122ef0e7330ccc3c759eb7,30,2022-02-12_12h49.01.813,lexical_decision_task_DD_L5,2021.2.3,MacIntel,60.0024001,,,,,,,,,,,0.7056,1,,,,,,,,,,,,,,m,1,0.7056,,,,,,,,-0.8,0.5,0,0,0,,0,77,77,7,1,WAGON,LB,old,m,./images/WAGONLB.png,,,,,,,,,,,,,,,,,,,,,,,,,,,,,,,,,,,
,,,,,,,,,,,,,,,,,61122ef0e7330ccc3c759eb7,30,2022-02-12_12h49.01.813,lexical_decision_task_DD_L5,2021.2.3,MacIntel,60.0024001,,,,,,,,,,,1.279,1,,,,,,,,,,,,,,z,1,1.279,,,,,,,,-0.8,0.5,0,0,0,,0,78,78,124,1,TUNCH,HB,old,z,./images/TUNCHHB.png,,,,,,,,,,,,,,,,,,,,,,,,,,,,,,,,,,,
,,,,,,,,,,,,,,,,,61122ef0e7330ccc3c759eb7,30,2022-02-12_12h49.01.813,lexical_decision_task_DD_L5,2021.2.3,MacIntel,60.0024001,,,,,,,,,,,0.9229,1,,,,,,,,,,,,,,m,1,0.9229,,,,,,,,-0.8,0.5,0,0,0,,0,79,79,83,1,WHISKY,C,old,m,./images/WHISKY.png,,,,,,,,,,,,,,,,,,,,,,,,,,,,,,,,,,,
,,,,,,,,,,,,,,,,,61122ef0e7330ccc3c759eb7,30,2022-02-12_12h49.01.813,lexical_decision_task_DD_L5,2021.2.3,MacIntel,60.0024001,,,,,,,,,,,0.9785,1,,,,,,,,,,,,,,m,1,0.9785,,,,,,,,-0.8,0.5,0,0,0,,0,80,80,21,1,DANCER,HB,old,m,./images/DANCERHB.png,,,,,,,,,,,,,,,,,,,,,,,,,,,,,,,,,,,
,,,,,,,,,,,,,,,,,61122ef0e7330ccc3c759eb7,30,2022-02-12_12h49.01.813,lexical_decision_task_DD_L5,2021.2.3,MacIntel,60.0024001,,,,,,,,,,,1.2344,1,,,,,,,,,,,,,,z,1,1.2344,,,,,,,,-0.8,0.5,0,0,0,,0,81,81,149,1,VEASE,LB,old,z,./images/VEASELB.png,,,,,,,,,,,,,,,,,,,,,,,,,,,,,,,,,,,
,,,,,,,,,,,,,,,,,61122ef0e7330ccc3c759eb7,30,2022-02-12_12h49.01.813,lexical_decision_task_DD_L5,2021.2.3,MacIntel,60.0024001,,,,,,,,,,,1.179,1,,,,,,,,,,,,,,z,1,1.179,,,,,,,,-0.8,0.5,0,0,0,,0,82,82,85,1,CHULK,HB,old,z,./images/CHULKHB.png,,,,,,,,,,,,,,,,,,,,,,,,,,,,,,,,,,,
,,,,,,,,,,,,,,,,,61122ef0e7330ccc3c759eb7,30,2022-02-12_12h49.01.813,lexical_decision_task_DD_L5,2021.2.3,MacIntel,60.0024001,,,,,,,,,,,1.6129,1,,,,,,,,,,,,,,z,1,1.6129,,,,,,,,-0.8,0.5,0,0,0,space,0,83,83,166,1,SHORY,HB,old,z,./images/SHORYHB.png,4.2257,,,,,,,,,,,,,,,,,,,,,,,,,,,,,,,,,,
,,,,,,,,,,,,,,,,,61122ef0e7330ccc3c759eb7,30,2022-02-12_12h49.01.813,lexical_decision_task_DD_L5,2021.2.3,MacIntel,60.0024001,,,,,,,,,,,0.9292,1,,,,,,,,,,,,,,z,1,0.9292,,,,,,,,-0.8,0.5,0,0,0,,0,84,84,113,1,LINEW,LB,old,z,./images/LINEWLB.png,,,,,,,,,,,,,,,,,,,,,,,,,,,,,,,,,,,
,,,,,,,,,,,,,,,,,61122ef0e7330ccc3c759eb7,30,2022-02-12_12h49.01.813,lexical_decision_task_DD_L5,2021.2.3,MacIntel,60.0024001,,,,,,,,,,,0.8077,1,,,,,,,,,,,,,,m,1,0.8077,,,,,,,,-0.8,0.5,0,0,0,,0,85,85,74,1,JUMPER,C,old,m,./images/JUMPER.png,,,,,,,,,,,,,,,,,,,,,,,,,,,,,,,,,,,
,,,,,,,,,,,,,,,,,61122ef0e7330ccc3c759eb7,30,2022-02-12_12h49.01.813,lexical_decision_task_DD_L5,2021.2.3,MacIntel,60.0024001,,,,,,,,,,,0.7018,1,,,,,,,,,,,,,,m,1,0.7018,,,,,,,,-0.8,0.5,0,0,0,,0,86,86,22,1,CLOWN,LB,old,m,./images/CLOWNLB.png,,,,,,,,,,,,,,,,,,,,,,,,,,,,,,,,,,,
,,,,,,,,,,,,,,,,,61122ef0e7330ccc3c759eb7,30,2022-02-12_12h49.01.813,lexical_decision_task_DD_L5,2021.2.3,MacIntel,60.0024001,,,,,,,,,,,0.7341,1,,,,,,,,,,,,,,m,1,0.7341,,,,,,,,-0.8,0.5,0,0,0,,0,87,87,62,1,MAMMAL,C,old,m,./images/MAMMAL.png,,,,,,,,,,,,,,,,,,,,,,,,,,,,,,,,,,,
,,,,,,,,,,,,,,,,,61122ef0e7330ccc3c759eb7,30,2022-02-12_12h49.01.813,lexical_decision_task_DD_L5,2021.2.3,MacIntel,60.0024001,,,,,,,,,,,0.9368,1,,,,,,,,,,,,,,z,1,0.9368,,,,,,,,-0.8,0.5,0,0,0,,0,88,88,106,1,CLUMS,HB,old,z,./images/CLUMSHB.png,,,,,,,,,,,,,,,,,,,,,,,,,,,,,,,,,,,
,,,,,,,,,,,,,,,,,61122ef0e7330ccc3c759eb7,30,2022-02-12_12h49.01.813,lexical_decision_task_DD_L5,2021.2.3,MacIntel,60.0024001,,,,,,,,,,,0.8264,1,,,,,,,,,,,,,,m,1,0.8264,,,,,,,,-0.8,0.5,0,0,0,,0,89,89,77,1,WHEEL,C,old,m,./images/WHEEL.png,,,,,,,,,,,,,,,,,,,,,,,,,,,,,,,,,,,
,,,,,,,,,,,,,,,,,61122ef0e7330ccc3c759eb7,30,2022-02-12_12h49.01.813,lexical_decision_task_DD_L5,2021.2.3,MacIntel,60.0024001,,,,,,,,,,,0.7624,1,,,,,,,,,,,,,,m,1,0.7624,,,,,,,,-0.8,0.5,0,0,0,,0,90,90,61,1,ARTIST,LB,old,m,./images/ARTISTLB.png,,,,,,,,,,,,,,,,,,,,,,,,,,,,,,,,,,,
,,,,,,,,,,,,,,,,,61122ef0e7330ccc3c759eb7,30,2022-02-12_12h49.01.813,lexical_decision_task_DD_L5,2021.2.3,MacIntel,60.0024001,,,,,,,,,,,1.4711,1,,,,,,,,,,,,,,m,1,1.4711,,,,,,,,-0.8,0.5,0,0,0,,0,91,91,36,1,BOILER,HB,old,m,./images/BOILERHB.png,,,,,,,,,,,,,,,,,,,,,,,,,,,,,,,,,,,
,,,,,,,,,,,,,,,,,61122ef0e7330ccc3c759eb7,30,2022-02-12_12h49.01.813,lexical_decision_task_DD_L5,2021.2.3,MacIntel,60.0024001,,,,,,,,,,,0.6673,1,,,,,,,,,,,,,,z,1,0.6673,,,,,,,,-0.8,0.5,0,0,0,,0,92,92,165,1,TROWN,C,old,z,./images/TROWN.png,,,,,,,,,,,,,,,,,,,,,,,,,,,,,,,,,,,
,,,,,,,,,,,,,,,,,61122ef0e7330ccc3c759eb7,30,2022-02-12_12h49.01.813,lexical_decision_task_DD_L5,2021.2.3,MacIntel,60.0024001,,,,,,,,,,,0.7351,1,,,,,,,,,,,,,,z,1,0.7351,,,,,,,,-0.8,0.5,0,0,0,,0,93,93,96,1,KEAMS,C,old,z,./images/KEAMS.png,,,,,,,,,,,,,,,,,,,,,,,,,,,,,,,,,,,
,,,,,,,,,,,,,,,,,61122ef0e7330ccc3c759eb7,30,2022-02-12_12h49.01.813,lexical_decision_task_DD_L5,2021.2.3,MacIntel,60.0024001,,,,,,,,,,,1.5845,1,,,,,,,,,,,,,,z,1,1.5845,,,,,,,,-0.8,0.5,0,0,0,,0,94,94,142,1,PLASK,HB,old,z,./images/PLASKHB.png,,,,,,,,,,,,,,,,,,,,,,,,,,,,,,,,,,,
,,,,,,,,,,,,,,,,,61122ef0e7330ccc3c759eb7,30,2022-02-12_12h49.01.813,lexical_decision_task_DD_L5,2021.2.3,MacIntel,60.0024001,,,,,,,,,,,1.4027,1,,,,,,,,,,,,,,z,1,1.4027,,,,,,,,-0.8,0.5,0,0,0,,0,95,95,115,1,MAWNS,HB,old,z,./images/MAWNSHB.png,,,,,,,,,,,,,,,,,,,,,,,,,,,,,,,,,,,
,,,,,,,,,,,,,,,,,61122ef0e7330ccc3c759eb7,30,2022-02-12_12h49.01.813,lexical_decision_task_DD_L5,2021.2.3,MacIntel,60.0024001,,,,,,,,,,,0.8191,1,,,,,,,,,,,,,,m,1,0.8191,,,,,,,,-0.8,0.5,0,0,0,,0,96,96,44,1,BASKET,C,old,m,./images/BASKET.png,,,,,,,,,,,,,,,,,,,,,,,,,,,,,,,,,,,
,,,,,,,,,,,,,,,,,61122ef0e7330ccc3c759eb7,30,2022-02-12_12h49.01.813,lexical_decision_task_DD_L5,2021.2.3,MacIntel,60.0024001,,,,,,,,,,,1.0282,1,,,,,,,,,,,,,,m,1,1.0282,,,,,,,,-0.8,0.5,0,0,0,,0,97,97,66,1,STATUE,HB,old,m,./images/STATUEHB.png,,,,,,,,,,,,,,,,,,,,,,,,,,,,,,,,,,,
,,,,,,,,,,,,,,,,,61122ef0e7330ccc3c759eb7,30,2022-02-12_12h49.01.813,lexical_decision_task_DD_L5,2021.2.3,MacIntel,60.0024001,,,,,,,,,,,0.7102,1,,,,,,,,,,,,,,m,1,0.7102,,,,,,,,-0.8,0.5,0,0,0,,0,98,98,43,1,STOOL,LB,old,m,./images/STOOLLB.png,,,,,,,,,,,,,,,,,,,,,,,,,,,,,,,,,,,
,,,,,,,,,,,,,,,,,61122ef0e7330ccc3c759eb7,30,2022-02-12_12h49.01.813,lexical_decision_task_DD_L5,2021.2.3,MacIntel,60.0024001,,,,,,,,,,,0.7366,1,,,,,,,,,,,,,,m,1,0.7366,,,,,,,,-0.8,0.5,0,0,0,,0,99,99,71,1,BUBBLE,C,old,m,./images/BUBBLE.png,,,,,,,,,,,,,,,,,,,,,,,,,,,,,,,,,,,
,,,,,,,,,,,,,,,,,61122ef0e7330ccc3c759eb7,30,2022-02-12_12h49.01.813,lexical_decision_task_DD_L5,2021.2.3,MacIntel,60.0024001,,,,,,,,,,,0.7237,1,,,,,,,,,,,,,,z,1,0.7237,,,,,,,,-0.8,0.5,0,0,0,,0,100,100,126,1,GUELS,C,old,z,./images/GUELS.png,,,,,,,,,,,,,,,,,,,,,,,,,,,,,,,,,,,
,,,,,,,,,,,,,,,,,61122ef0e7330ccc3c759eb7,30,2022-02-12_12h49.01.813,lexical_decision_task_DD_L5,2021.2.3,MacIntel,60.0024001,,,,,,,,,,,0.7953,1,,,,,,,,,,,,,,z,1,0.7953,,,,,,,,-0.8,0.5,0,0,0,,0,101,101,155,1,CANGY,LB,old,z,./images/CANGYLB.png,,,,,,,,,,,,,,,,,,,,,,,,,,,,,,,,,,,
,,,,,,,,,,,,,,,,,61122ef0e7330ccc3c759eb7,30,2022-02-12_12h49.01.813,lexical_decision_task_DD_L5,2021.2.3,MacIntel,60.0024001,,,,,,,,,,,1.3793,1,,,,,,,,,,,,,,z,1,1.3793,,,,,,,,-0.8,0.5,0,0,0,,0,102,102,160,1,VEETS,HB,old,z,./images/VEETSHB.png,,,,,,,,,,,,,,,,,,,,,,,,,,,,,,,,,,,
,,,,,,,,,,,,,,,,,61122ef0e7330ccc3c759eb7,30,2022-02-12_12h49.01.813,lexical_decision_task_DD_L5,2021.2.3,MacIntel,60.0024001,,,,,,,,,,,0.8125,1,,,,,,,,,,,,,,z,1,0.8125,,,,,,,,-0.8,0.5,0,0,0,,0,103,103,140,1,DOVET,LB,old,z,./images/DOVETLB.png,,,,,,,,,,,,,,,,,,,,,,,,,,,,,,,,,,,
,,,,,,,,,,,,,,,,,61122ef0e7330ccc3c759eb7,30,2022-02-12_12h49.01.813,lexical_decision_task_DD_L5,2021.2.3,MacIntel,60.0024001,,,,,,,,,,,0.7948,1,,,,,,,,,,,,,,z,1,0.7948,,,,,,,,-0.8,0.5,0,0,0,,0,104,104,87,1,TRING,C,old,z,./images/TRING.png,,,,,,,,,,,,,,,,,,,,,,,,,,,,,,,,,,,
,,,,,,,,,,,,,,,,,61122ef0e7330ccc3c759eb7,30,2022-02-12_12h49.01.813,lexical_decision_task_DD_L5,2021.2.3,MacIntel,60.0024001,,,,,,,,,,,1.015,1,,,,,,,,,,,,,,z,1,1.015,,,,,,,,-0.8,0.5,0,0,0,,0,105,105,154,1,THINT,HB,old,z,./images/THINTHB.png,,,,,,,,,,,,,,,,,,,,,,,,,,,,,,,,,,,
,,,,,,,,,,,,,,,,,61122ef0e7330ccc3c759eb7,30,2022-02-12_12h49.01.813,lexical_decision_task_DD_L5,2021.2.3,MacIntel,60.0024001,,,,,,,,,,,0.6912,1,,,,,,,,,,,,,,m,1,0.6912,,,,,,,,-0.8,0.5,0,0,0,,0,106,106,2,1,STOVE,C,old,m,./images/STOVE.png,,,,,,,,,,,,,,,,,,,,,,,,,,,,,,,,,,,
,,,,,,,,,,,,,,,,,61122ef0e7330ccc3c759eb7,30,2022-02-12_12h49.01.813,lexical_decision_task_DD_L5,2021.2.3,MacIntel,60.0024001,,,,,,,,,,,0.7907,1,,,,,,,,,,,,,,z,1,0.7907,,,,,,,,-0.8,0.5,0,0,0,,0,107,107,123,1,SEDGE,C,old,z,./images/SEDGE.png,,,,,,,,,,,,,,,,,,,,,,,,,,,,,,,,,,,
,,,,,,,,,,,,,,,,,61122ef0e7330ccc3c759eb7,30,2022-02-12_12h49.01.813,lexical_decision_task_DD_L5,2021.2.3,MacIntel,60.0024001,,,,,,,,,,,0.9857,1,,,,,,,,,,,,,,z,1,0.9857,,,,,,,,-0.8,0.5,0,0,0,,0,108,108,118,1,BAVEL,HB,old,z,./images/BAVELHB.png,,,,,,,,,,,,,,,,,,,,,,,,,,,,,,,,,,,
,,,,,,,,,,,,,,,,,61122ef0e7330ccc3c759eb7,30,2022-02-12_12h49.01.813,lexical_decision_task_DD_L5,2021.2.3,MacIntel,60.0024001,,,,,,,,,,,0.7789,1,,,,,,,,,,,,,,z,1,0.7789,,,,,,,,-0.8,0.5,0,0,0,,0,109,109,128,1,GRIFT,LB,old,z,./images/GRIFTLB.png,,,,,,,,,,,,,,,,,,,,,,,,,,,,,,,,,,,
,,,,,,,,,,,,,,,,,61122ef0e7330ccc3c759eb7,30,2022-02-12_12h49.01.813,lexical_decision_task_DD_L5,2021.2.3,MacIntel,60.0024001,,,,,,,,,,,1.182,1,,,,,,,,,,,,,,m,1,1.182,,,,,,,,-0.8,0.5,0,0,0,,0,110,110,48,1,SHIELD,HB,old,m,./images/SHIELDHB.png,,,,,,,,,,,,,,,,,,,,,,,,,,,,,,,,,,,
,,,,,,,,,,,,,,,,,61122ef0e7330ccc3c759eb7,30,2022-02-12_12h49.01.813,lexical_decision_task_DD_L5,2021.2.3,MacIntel,60.0024001,,,,,,,,,,,0.7185,1,,,,,,,,,,,,,,m,1,0.7185,,,,,,,,-0.8,0.5,0,0,0,,0,111,111,80,1,PLANET,C,old,m,./images/PLANET.png,,,,,,,,,,,,,,,,,,,,,,,,,,,,,,,,,,,
,,,,,,,,,,,,,,,,,61122ef0e7330ccc3c759eb7,30,2022-02-12_12h49.01.813,lexical_decision_task_DD_L5,2021.2.3,MacIntel,60.0024001,,,,,,,,,,,1.1111,1,,,,,,,,,,,,,,m,1,1.1111,,,,,,,,-0.8,0.5,0,0,0,,0,112,112,63,1,BAKER,HB,old,m,./images/BAKERHB.png,,,,,,,,,,,,,,,,,,,,,,,,,,,,,,,,,,,
,,,,,,,,,,,,,,,,,61122ef0e7330ccc3c759eb7,30,2022-02-12_12h49.01.813,lexical_decision_task_DD_L5,2021.2.3,MacIntel,60.0024001,,,,,,,,,,,0.7957,1,,,,,,,,,,,,,,z,1,0.7957,,,,,,,,-0.8,0.5,0,0,0,,0,113,113,147,1,ZOLES,C,old,z,./images/ZOLES.png,,,,,,,,,,,,,,,,,,,,,,,,,,,,,,,,,,,
,,,,,,,,,,,,,,,,,61122ef0e7330ccc3c759eb7,30,2022-02-12_12h49.01.813,lexical_decision_task_DD_L5,2021.2.3,MacIntel,60.0024001,,,,,,,,,,,0.9094,1,,,,,,,,,,,,,,z,1,0.9094,,,,,,,,-0.8,0.5,0,0,0,,0,114,114,122,1,BLOOT,LB,old,z,./images/BLOOTLB.png,,,,,,,,,,,,,,,,,,,,,,,,,,,,,,,,,,,
,,,,,,,,,,,,,,,,,61122ef0e7330ccc3c759eb7,30,2022-02-12_12h49.01.813,lexical_decision_task_DD_L5,2021.2.3,MacIntel,60.0024001,,,,,,,,,,,1.063,1,,,,,,,,,,,,,,z,1,1.063,,,,,,,,-0.8,0.5,0,0,0,,0,115,115,163,1,GAMBA,HB,old,z,./images/GAMBAHB.png,,,,,,,,,,,,,,,,,,,,,,,,,,,,,,,,,,,
,,,,,,,,,,,,,,,,,61122ef0e7330ccc3c759eb7,30,2022-02-12_12h49.01.813,lexical_decision_task_DD_L5,2021.2.3,MacIntel,60.0024001,,,,,,,,,,,0.7767,1,,,,,,,,,,,,,,m,1,0.7767,,,,,,,,-0.8,0.5,0,0,0,,0,116,116,5,1,BAMBOO,C,old,m,./images/BAMBOO.png,,,,,,,,,,,,,,,,,,,,,,,,,,,,,,,,,,,
,,,,,,,,,,,,,,,,,61122ef0e7330ccc3c759eb7,30,2022-02-12_12h49.01.813,lexical_decision_task_DD_L5,2021.2.3,MacIntel,60.0024001,,,,,,,,,,,0.9178,1,,,,,,,,,,,,,,z,1,0.9178,,,,,,,,-0.8,0.5,0,0,0,,0,117,117,100,1,DRIBS,HB,old,z,./images/DRIBSHB.png,,,,,,,,,,,,,,,,,,,,,,,,,,,,,,,,,,,
,,,,,,,,,,,,,,,,,61122ef0e7330ccc3c759eb7,30,2022-02-12_12h49.01.813,lexical_decision_task_DD_L5,2021.2.3,MacIntel,60.0024001,,,,,,,,,,,0.7003,1,,,,,,,,,,,,,,m,1,0.7003,,,,,,,,-0.8,0.5,0,0,0,,0,118,118,59,1,BRUSH,C,old,m,./images/BRUSH.png,,,,,,,,,,,,,,,,,,,,,,,,,,,,,,,,,,,
,,,,,,,,,,,,,,,,,61122ef0e7330ccc3c759eb7,30,2022-02-12_12h49.01.813,lexical_decision_task_DD_L5,2021.2.3,MacIntel,60.0024001,,,,,,,,,,,0.7472,1,,,,,,,,,,,,,,m,1,0.7472,,,,,,,,-0.8,0.5,0,0,0,,0,119,119,49,1,BISHOP,LB,old,m,./images/BISHOPLB.png,,,,,,,,,,,,,,,,,,,,,,,,,,,,,,,,,,,
,,,,,,,,,,,,,,,,,61122ef0e7330ccc3c759eb7,30,2022-02-12_12h49.01.813,lexical_decision_task_DD_L5,2021.2.3,MacIntel,60.0024001,,,,,,,,,,,0.7971,1,,,,,,,,,,,,,,z,1,0.7971,,,,,,,,-0.8,0.5,0,0,0,,0,120,120,98,1,BAMPS,LB,old,z,./images/BAMPSLB.png,,,,,,,,,,,,,,,,,,,,,,,,,,,,,,,,,,,
,,,,,,,,,,,,,,,,,61122ef0e7330ccc3c759eb7,30,2022-02-12_12h49.01.813,lexical_decision_task_DD_L5,2021.2.3,MacIntel,60.0024001,,,,,,,,,,,0.8998,1,,,,,,,,,,,,,,z,1,0.8998,,,,,,,,-0.8,0.5,0,0,0,,0,121,121,139,1,BLEAR,HB,old,z,./images/BLEARHB.png,,,,,,,,,,,,,,,,,,,,,,,,,,,,,,,,,,,
,,,,,,,,,,,,,,,,,61122ef0e7330ccc3c759eb7,30,2022-02-12_12h49.01.813,lexical_decision_task_DD_L5,2021.2.3,MacIntel,60.0024001,,,,,,,,,,,1.1611,1,,,,,,,,,,,,,,m,1,1.1611,,,,,,,,-0.8,0.5,0,0,0,,0,122,122,30,1,SLOPE,HB,old,m,./images/SLOPEHB.png,,,,,,,,,,,,,,,,,,,,,,,,,,,,,,,,,,,
,,,,,,,,,,,,,,,,,61122ef0e7330ccc3c759eb7,30,2022-02-12_12h49.01.813,lexical_decision_task_DD_L5,2021.2.3,MacIntel,60.0024001,,,,,,,,,,,0.8079,1,,,,,,,,,,,,,,m,1,0.8079,,,,,,,,-0.8,0.5,0,0,0,,0,123,123,8,1,CLIFF,C,old,m,./images/CLIFF.png,,,,,,,,,,,,,,,,,,,,,,,,,,,,,,,,,,,
,,,,,,,,,,,,,,,,,61122ef0e7330ccc3c759eb7,30,2022-02-12_12h49.01.813,lexical_decision_task_DD_L5,2021.2.3,MacIntel,60.0024001,,,,,,,,,,,0.8919,1,,,,,,,,,,,,,,z,1,0.8919,,,,,,,,-0.8,0.5,0,0,0,,0,124,124,135,1,JOODY,C,old,z,./images/JOODY.png,,,,,,,,,,,,,,,,,,,,,,,,,,,,,,,,,,,
,,,,,,,,,,,,,,,,,61122ef0e7330ccc3c759eb7,30,2022-02-12_12h49.01.813,lexical_decision_task_DD_L5,2021.2.3,MacIntel,60.0024001,,,,,,,,,,,0.9463,1,,,,,,,,,,,,,,m,1,0.9463,,,,,,,,-0.8,0.5,0,0,0,space,0,125,125,42,1,CHAIN,HB,old,m,./images/CHAINHB.png,5.5536,,,,,,,,,,,,,,,,,,,,,,,,,,,,,,,,,,
,,,,,,,,,,,,,,,,,61122ef0e7330ccc3c759eb7,30,2022-02-12_12h49.01.813,lexical_decision_task_DD_L5,2021.2.3,MacIntel,60.0024001,,,,,,,,,,,0.8306,1,,,,,,,,,,,,,,m,1,0.8306,,,,,,,,-0.8,0.5,0,0,0,,0,126,126,1,1,TOWEL,LB,old,m,./images/TOWELLB.png,,,,,,,,,,,,,,,,,,,,,,,,,,,,,,,,,,,
,,,,,,,,,,,,,,,,,61122ef0e7330ccc3c759eb7,30,2022-02-12_12h49.01.813,lexical_decision_task_DD_L5,2021.2.3,MacIntel,60.0024001,,,,,,,,,,,0.7714,1,,,,,,,,,,,,,,z,1,0.7714,,,,,,,,-0.8,0.5,0,0,0,,0,127,127,89,1,DRIEK,LB,old,z,./images/DRIEKLB.png,,,,,,,,,,,,,,,,,,,,,,,,,,,,,,,,,,,
,,,,,,,,,,,,,,,,,61122ef0e7330ccc3c759eb7,30,2022-02-12_12h49.01.813,lexical_decision_task_DD_L5,2021.2.3,MacIntel,60.0024001,,,,,,,,,,,1.2122,1,,,,,,,,,,,,,,m,1,1.2122,,,,,,,,-0.8,0.5,0,0,0,,0,128,128,6,1,STAIN,HB,old,m,./images/STAINHB.png,,,,,,,,,,,,,,,,,,,,,,,,,,,,,,,,,,,
,,,,,,,,,,,,,,,,,61122ef0e7330ccc3c759eb7,30,2022-02-12_12h49.01.813,lexical_decision_task_DD_L5,2021.2.3,MacIntel,60.0024001,,,,,,,,,,,0.7643,1,,,,,,,,,,,,,,m,1,0.7643,,,,,,,,-0.8,0.5,0,0,0,,0,129,129,17,1,PARADE,C,old,m,./images/PARADE.png,,,,,,,,,,,,,,,,,,,,,,,,,,,,,,,,,,,
,,,,,,,,,,,,,,,,,61122ef0e7330ccc3c759eb7,30,2022-02-12_12h49.01.813,lexical_decision_task_DD_L5,2021.2.3,MacIntel,60.0024001,,,,,,,,,,,0.7775,1,,,,,,,,,,,,,,m,1,0.7775,,,,,,,,-0.8,0.5,0,0,0,,0,130,130,20,1,GRANNY,C,old,m,./images/GRANNY.png,,,,,,,,,,,,,,,,,,,,,,,,,,,,,,,,,,,
,,,,,,,,,,,,,,,,,61122ef0e7330ccc3c759eb7,30,2022-02-12_12h49.01.813,lexical_decision_task_DD_L5,2021.2.3,MacIntel,60.0024001,,,,,,,,,,,0.812,1,,,,,,,,,,,,,,z,1,0.812,,,,,,,,-0.8,0.5,0,0,0,,0,131,131,167,1,ZONET,LB,old,z,./images/ZONETLB.png,,,,,,,,,,,,,,,,,,,,,,,,,,,,,,,,,,,
,,,,,,,,,,,,,,,,,61122ef0e7330ccc3c759eb7,30,2022-02-12_12h49.01.813,lexical_decision_task_DD_L5,2021.2.3,MacIntel,60.0024001,,,,,,,,,,,0.9009,1,,,,,,,,,,,,,,m,1,0.9009,,,,,,,,-0.8,0.5,0,0,0,,0,132,132,55,1,ALLEY,LB,old,m,./images/ALLEYLB.png,,,,,,,,,,,,,,,,,,,,,,,,,,,,,,,,,,,
,,,,,,,,,,,,,,,,,61122ef0e7330ccc3c759eb7,30,2022-02-12_12h49.01.813,lexical_decision_task_DD_L5,2021.2.3,MacIntel,60.0024001,,,,,,,,,,,0.9639,1,,,,,,,,,,,,,,z,1,0.9639,,,,,,,,-0.8,0.5,0,0,0,,0,133,133,86,1,AIFED,LB,old,z,./images/AIFEDLB.png,,,,,,,,,,,,,,,,,,,,,,,,,,,,,,,,,,,
,,,,,,,,,,,,,,,,,61122ef0e7330ccc3c759eb7,30,2022-02-12_12h49.01.813,lexical_decision_task_DD_L5,2021.2.3,MacIntel,60.0024001,,,,,,,,,,,1.2216,1,,,,,,,,,,,,,,z,1,1.2216,,,,,,,,-0.8,0.5,0,0,0,,0,134,134,88,1,GLUSH,HB,old,z,./images/GLUSHHB.png,,,,,,,,,,,,,,,,,,,,,,,,,,,,,,,,,,,
,,,,,,,,,,,,,,,,,61122ef0e7330ccc3c759eb7,30,2022-02-12_12h49.01.813,lexical_decision_task_DD_L5,2021.2.3,MacIntel,60.0024001,,,,,,,,,,,0.7594,1,,,,,,,,,,,,,,m,1,0.7594,,,,,,,,-0.8,0.5,0,0,0,,0,135,135,32,1,HOCKEY,C,old,m,./images/HOCKEY.png,,,,,,,,,,,,,,,,,,,,,,,,,,,,,,,,,,,
,,,,,,,,,,,,,,,,,61122ef0e7330ccc3c759eb7,30,2022-02-12_12h49.01.813,lexical_decision_task_DD_L5,2021.2.3,MacIntel,60.0024001,,,,,,,,,,,0.7723,1,,,,,,,,,,,,,,m,1,0.7723,,,,,,,,-0.8,0.5,0,0,0,,0,136,136,52,1,DESERT,LB,old,m,./images/DESERTLB.png,,,,,,,,,,,,,,,,,,,,,,,,,,,,,,,,,,,
,,,,,,,,,,,,,,,,,61122ef0e7330ccc3c759eb7,30,2022-02-12_12h49.01.813,lexical_decision_task_DD_L5,2021.2.3,MacIntel,60.0024001,,,,,,,,,,,1.1621,1,,,,,,,,,,,,,,m,1,1.1621,,,,,,,,-0.8,0.5,0,0,0,,0,137,137,51,1,SAUCE,HB,old,m,./images/SAUCEHB.png,,,,,,,,,,,,,,,,,,,,,,,,,,,,,,,,,,,
,,,,,,,,,,,,,,,,,61122ef0e7330ccc3c759eb7,30,2022-02-12_12h49.01.813,lexical_decision_task_DD_L5,2021.2.3,MacIntel,60.0024001,,,,,,,,,,,0.7635,1,,,,,,,,,,,,,,m,1,0.7635,,,,,,,,-0.8,0.5,0,0,0,,0,138,138,40,1,SNAKE,LB,old,m,./images/SNAKELB.png,,,,,,,,,,,,,,,,,,,,,,,,,,,,,,,,,,,
,,,,,,,,,,,,,,,,,61122ef0e7330ccc3c759eb7,30,2022-02-12_12h49.01.813,lexical_decision_task_DD_L5,2021.2.3,MacIntel,60.0024001,,,,,,,,,,,1.447,1,,,,,,,,,,,,,,z,1,1.447,,,,,,,,-0.8,0.5,0,0,0,,0,139,139,94,1,BLANS,HB,old,z,./images/BLANSHB.png,,,,,,,,,,,,,,,,,,,,,,,,,,,,,,,,,,,
,,,,,,,,,,,,,,,,,61122ef0e7330ccc3c759eb7,30,2022-02-12_12h49.01.813,lexical_decision_task_DD_L5,2021.2.3,MacIntel,60.0024001,,,,,,,,,,,0.8137,1,,,,,,,,,,,,,,z,1,0.8137,,,,,,,,-0.8,0.5,0,0,0,,0,140,140,95,1,HANTY,LB,old,z,./images/HANTYLB.png,,,,,,,,,,,,,,,,,,,,,,,,,,,,,,,,,,,
,,,,,,,,,,,,,,,,,61122ef0e7330ccc3c759eb7,30,2022-02-12_12h49.01.813,lexical_decision_task_DD_L5,2021.2.3,MacIntel,60.0024001,,,,,,,,,,,0.9465,1,,,,,,,,,,,,,,m,1,0.9465,,,,,,,,-0.8,0.5,0,0,0,,0,141,141,15,1,COLLAR,HB,old,m,./images/COLLARHB.png,,,,,,,,,,,,,,,,,,,,,,,,,,,,,,,,,,,
,,,,,,,,,,,,,,,,,61122ef0e7330ccc3c759eb7,30,2022-02-12_12h49.01.813,lexical_decision_task_DD_L5,2021.2.3,MacIntel,60.0024001,,,,,,,,,,,0.7262,1,,,,,,,,,,,,,,m,1,0.7262,,,,,,,,-0.8,0.5,0,0,0,,0,142,142,23,1,CLOTH,C,old,m,./images/CLOTH.png,,,,,,,,,,,,,,,,,,,,,,,,,,,,,,,,,,,
,,,,,,,,,,,,,,,,,61122ef0e7330ccc3c759eb7,30,2022-02-12_12h49.01.813,lexical_decision_task_DD_L5,2021.2.3,MacIntel,60.0024001,,,,,,,,,,,0.9507,1,,,,,,,,,,,,,,z,1,0.9507,,,,,,,,-0.8,0.5,0,0,0,,0,143,143,133,1,POWDY,HB,old,z,./images/POWDYHB.png,,,,,,,,,,,,,,,,,,,,,,,,,,,,,,,,,,,
,,,,,,,,,,,,,,,,,61122ef0e7330ccc3c759eb7,30,2022-02-12_12h49.01.813,lexical_decision_task_DD_L5,2021.2.3,MacIntel,60.0024001,,,,,,,,,,,0.7623,1,,,,,,,,,,,,,,m,1,0.7623,,,,,,,,-0.8,0.5,0,0,0,,0,144,144,34,1,RAZOR,LB,old,m,./images/RAZORLB.png,,,,,,,,,,,,,,,,,,,,,,,,,,,,,,,,,,,
,,,,,,,,,,,,,,,,,61122ef0e7330ccc3c759eb7,30,2022-02-12_12h49.01.813,lexical_decision_task_DD_L5,2021.2.3,MacIntel,60.0024001,,,,,,,,,,,0.9772,1,,,,,,,,,,,,,,z,1,0.9772,,,,,,,,-0.8,0.5,0,0,0,,0,145,145,102,1,DULLE,C,old,z,./images/DULLE.png,,,,,,,,,,,,,,,,,,,,,,,,,,,,,,,,,,,
,,,,,,,,,,,,,,,,,61122ef0e7330ccc3c759eb7,30,2022-02-12_12h49.01.813,lexical_decision_task_DD_L5,2021.2.3,MacIntel,60.0024001,,,,,,,,,,,0.7307,1,,,,,,,,,,,,,,m,1,0.7307,,,,,,,,-0.8,0.5,0,0,0,,0,146,146,19,1,DONKEY,LB,old,m,./images/DONKEYLB.png,,,,,,,,,,,,,,,,,,,,,,,,,,,,,,,,,,,
,,,,,,,,,,,,,,,,,61122ef0e7330ccc3c759eb7,30,2022-02-12_12h49.01.813,lexical_decision_task_DD_L5,2021.2.3,MacIntel,60.0024001,,,,,,,,,,,0.7094,1,,,,,,,,,,,,,,m,1,0.7094,,,,,,,,-0.8,0.5,0,0,0,,0,147,147,29,1,PISTOL,C,old,m,./images/PISTOL.png,,,,,,,,,,,,,,,,,,,,,,,,,,,,,,,,,,,
,,,,,,,,,,,,,,,,,61122ef0e7330ccc3c759eb7,30,2022-02-12_12h49.01.813,lexical_decision_task_DD_L5,2021.2.3,MacIntel,60.0024001,,,,,,,,,,,0.8633,1,,,,,,,,,,,,,,z,1,0.8633,,,,,,,,-0.8,0.5,0,0,0,,0,148,148,84,1,HAXES,C,old,z,./images/HAXES.png,,,,,,,,,,,,,,,,,,,,,,,,,,,,,,,,,,,
,,,,,,,,,,,,,,,,,61122ef0e7330ccc3c759eb7,30,2022-02-12_12h49.01.813,lexical_decision_task_DD_L5,2021.2.3,MacIntel,60.0024001,,,,,,,,,,,0.6922,1,,,,,,,,,,,,,,m,1,0.6922,,,,,,,,-0.8,0.5,0,0,0,,0,149,149,65,1,SPINE,C,old,m,./images/SPINE.png,,,,,,,,,,,,,,,,,,,,,,,,,,,,,,,,,,,
,,,,,,,,,,,,,,,,,61122ef0e7330ccc3c759eb7,30,2022-02-12_12h49.01.813,lexical_decision_task_DD_L5,2021.2.3,MacIntel,60.0024001,,,,,,,,,,,1.4796,1,,,,,,,,,,,,,,m,1,1.4796,,,,,,,,-0.8,0.5,0,0,0,,0,150,150,57,1,FERRY,HB,old,m,./images/FERRYHB.png,,,,,,,,,,,,,,,,,,,,,,,,,,,,,,,,,,,
,,,,,,,,,,,,,,,,,61122ef0e7330ccc3c759eb7,30,2022-02-12_12h49.01.813,lexical_decision_task_DD_L5,2021.2.3,MacIntel,60.0024001,,,,,,,,,,,1.5973,1,,,,,,,,,,,,,,m,1,1.5973,,,,,,,,-0.8,0.5,0,0,0,,0,151,151,54,1,CHERRY,HB,old,m,./images/CHERRYHB.png,,,,,,,,,,,,,,,,,,,,,,,,,,,,,,,,,,,
,,,,,,,,,,,,,,,,,61122ef0e7330ccc3c759eb7,30,2022-02-12_12h49.01.813,lexical_decision_task_DD_L5,2021.2.3,MacIntel,60.0024001,,,,,,,,,,,0.8956,1,,,,,,,,,,,,,,m,1,0.8956,,,,,,,,-0.8,0.5,0,0,0,,0,152,152,76,1,MIDGET,LB,old,m,./images/MIDGETLB.png,,,,,,,,,,,,,,,,,,,,,,,,,,,,,,,,,,,
,,,,,,,,,,,,,,,,,61122ef0e7330ccc3c759eb7,30,2022-02-12_12h49.01.813,lexical_decision_task_DD_L5,2021.2.3,MacIntel,60.0024001,,,,,,,,,,,0.8954,1,,,,,,,,,,,,,,m,1,0.8954,,,,,,,,-0.8,0.5,0,0,0,,0,153,153,27,1,BUTTER,HB,old,m,./images/BUTTERHB.png,,,,,,,,,,,,,,,,,,,,,,,,,,,,,,,,,,,
,,,,,,,,,,,,,,,,,61122ef0e7330ccc3c759eb7,30,2022-02-12_12h49.01.813,lexical_decision_task_DD_L5,2021.2.3,MacIntel,60.0024001,,,,,,,,,,,0.8336,1,,,,,,,,,,,,,,m,1,0.8336,,,,,,,,-0.8,0.5,0,0,0,,0,154,154,31,1,STEAK,LB,old,m,./images/STEAKLB.png,,,,,,,,,,,,,,,,,,,,,,,,,,,,,,,,,,,
,,,,,,,,,,,,,,,,,61122ef0e7330ccc3c759eb7,30,2022-02-12_12h49.01.813,lexical_decision_task_DD_L5,2021.2.3,MacIntel,60.0024001,,,,,,,,,,,0.8931,1,,,,,,,,,,,,,,z,1,0.8931,,,,,,,,-0.8,0.5,0,0,0,,0,155,155,111,1,HOSSE,C,old,z,./images/HOSSE.png,,,,,,,,,,,,,,,,,,,,,,,,,,,,,,,,,,,
,,,,,,,,,,,,,,,,,61122ef0e7330ccc3c759eb7,30,2022-02-12_12h49.01.813,lexical_decision_task_DD_L5,2021.2.3,MacIntel,60.0024001,,,,,,,,,,,1.1297,1,,,,,,,,,,,,,,z,1,1.1297,,,,,,,,-0.8,0.5,0,0,0,,0,156,156,112,1,MYING,HB,old,z,./images/MYINGHB.png,,,,,,,,,,,,,,,,,,,,,,,,,,,,,,,,,,,
,,,,,,,,,,,,,,,,,61122ef0e7330ccc3c759eb7,30,2022-02-12_12h49.01.813,lexical_decision_task_DD_L5,2021.2.3,MacIntel,60.0024001,,,,,,,,,,,0.8423,1,,,,,,,,,,,,,,m,1,0.8423,,,,,,,,-0.8,0.5,0,0,0,,0,157,157,11,1,MEDAL,C,old,m,./images/MEDAL.png,,,,,,,,,,,,,,,,,,,,,,,,,,,,,,,,,,,
,,,,,,,,,,,,,,,,,61122ef0e7330ccc3c759eb7,30,2022-02-12_12h49.01.813,lexical_decision_task_DD_L5,2021.2.3,MacIntel,60.0024001,,,,,,,,,,,0.8287,1,,,,,,,,,,,,,,z,1,0.8287,,,,,,,,-0.8,0.5,0,0,0,,0,158,158,131,1,NACES,LB,old,z,./images/NACESLB.png,,,,,,,,,,,,,,,,,,,,,,,,,,,,,,,,,,,
,,,,,,,,,,,,,,,,,61122ef0e7330ccc3c759eb7,30,2022-02-12_12h49.01.813,lexical_decision_task_DD_L5,2021.2.3,MacIntel,60.0024001,,,,,,,,,,,0.8145,1,,,,,,,,,,,,,,m,1,0.8145,,,,,,,,-0.8,0.5,0,0,0,,0,159,159,46,1,MUMMY,LB,old,m,./images/MUMMYLB.png,,,,,,,,,,,,,,,,,,,,,,,,,,,,,,,,,,,
,,,,,,,,,,,,,,,,,61122ef0e7330ccc3c759eb7,30,2022-02-12_12h49.01.813,lexical_decision_task_DD_L5,2021.2.3,MacIntel,60.0024001,,,,,,,,,,,0.7929,1,,,,,,,,,,,,,,m,1,0.7929,,,,,,,,-0.8,0.5,0,0,0,,0,160,160,26,1,CLOUD,C,old,m,./images/CLOUD.png,,,,,,,,,,,,,,,,,,,,,,,,,,,,,,,,,,,
,,,,,,,,,,,,,,,,,61122ef0e7330ccc3c759eb7,30,2022-02-12_12h49.01.813,lexical_decision_task_DD_L5,2021.2.3,MacIntel,60.0024001,,,,,,,,,,,0.7816,1,,,,,,,,,,,,,,m,1,0.7816,,,,,,,,-0.8,0.5,0,0,0,,0,161,161,73,1,GLOVE,LB,old,m,./images/GLOVELB.png,,,,,,,,,,,,,,,,,,,,,,,,,,,,,,,,,,,
,,,,,,,,,,,,,,,,,61122ef0e7330ccc3c759eb7,30,2022-02-12_12h49.01.813,lexical_decision_task_DD_L5,2021.2.3,MacIntel,60.0024001,,,,,,,,,,,0.9303,1,,,,,,,,,,,,,,z,1,0.9303,,,,,,,,-0.8,0.5,0,0,0,,0,162,162,125,1,MOOKY,LB,old,z,./images/MOOKYLB.png,,,,,,,,,,,,,,,,,,,,,,,,,,,,,,,,,,,
,,,,,,,,,,,,,,,,,61122ef0e7330ccc3c759eb7,30,2022-02-12_12h49.01.813,lexical_decision_task_DD_L5,2021.2.3,MacIntel,60.0024001,,,,,,,,,,,0.8982,1,,,,,,,,,,,,,,m,1,0.8982,,,,,,,,-0.8,0.5,0,0,0,,0,163,163,60,1,CURRY,HB,old,m,./images/CURRYHB.png,,,,,,,,,,,,,,,,,,,,,,,,,,,,,,,,,,,
,,,,,,,,,,,,,,,,,61122ef0e7330ccc3c759eb7,30,2022-02-12_12h49.01.813,lexical_decision_task_DD_L5,2021.2.3,MacIntel,60.0024001,,,,,,,,,,,0.8482,1,,,,,,,,,,,,,,z,1,0.8482,,,,,,,,-0.8,0.5,0,0,0,,0,164,164,114,1,RIKES,C,old,z,./images/RIKES.png,,,,,,,,,,,,,,,,,,,,,,,,,,,,,,,,,,,
,,,,,,,,,,,,,,,,,61122ef0e7330ccc3c759eb7,30,2022-02-12_12h49.01.813,lexical_decision_task_DD_L5,2021.2.3,MacIntel,60.0024001,,,,,,,,,,,0.9768,1,,,,,,,,,,,,,,z,1,0.9768,,,,,,,,-0.8,0.5,0,0,0,,0,165,165,132,1,SCIFF,C,old,z,./images/SCIFF.png,,,,,,,,,,,,,,,,,,,,,,,,,,,,,,,,,,,
,,,,,,,,,,,,,,,,,61122ef0e7330ccc3c759eb7,30,2022-02-12_12h49.01.813,lexical_decision_task_DD_L5,2021.2.3,MacIntel,60.0024001,,,,,,,,,,,1.397,1,,,,,,,,,,,,,,z,1,1.397,,,,,,,,-0.8,0.5,0,0,0,,0,166,166,145,1,LAMEL,HB,old,z,./images/LAMELHB.png,,,,,,,,,,,,,,,,,,,,,,,,,,,,,,,,,,,
,,,,,,,,,,,,,,,,,61122ef0e7330ccc3c759eb7,30,2022-02-12_12h49.01.813,lexical_decision_task_DD_L5,2021.2.3,MacIntel,60.0024001,,,,,,,,,,,1.0153,1,,,,,,,,,,,,,,m,1,1.0153,,,,,,,,-0.8,0.5,0,0,0,,0,167,167,33,1,SAUNA,HB,old,m,./images/SAUNAHB.png,,,,,,,,,,,,,,,,,,,,,,,,,,,,,,,,,,,
,,,,,,,,,,,,,,,,,61122ef0e7330ccc3c759eb7,30,2022-02-12_12h49.01.813,lexical_decision_task_DD_L5,2021.2.3,MacIntel,60.0024001,,,,,,,,,,,,,,,,,,,,,,,,,,,,,,,,,,,,,,,,,,,,,,,,How likely will it be that you will recognize the words presented slighly blurred on a scale of 0 (not likely) to 100 (most likely)?,,,,,0.000517578,-0.399047852,1,0,0,jol_adv,5,12.0607,0,0,0,1,1,,,,,,,,,,,,,,,,,,,,,
,,,,,,,,,,,,,,,,,61122ef0e7330ccc3c759eb7,30,2022-02-12_12h49.01.813,lexical_decision_task_DD_L5,2021.2.3,MacIntel,60.0024001,,,,,,,,,,,,,,,,,,,,,,,,,,,,,,,,,,,,,,,,,,,,,,,,How likely will it be that you will recognize the words presented very blurred on a scale of 0 (not likely) to 100 (most likely)?,,,,,,,,,,,5,7.8182,0,1,1,2,1,,,,,,,,,,,,,,,,,,,,,
,,,,,,,,,,,,,,,,,61122ef0e7330ccc3c759eb7,30,2022-02-12_12h49.01.813,lexical_decision_task_DD_L5,2021.2.3,MacIntel,60.0024001,,,,,,,,,,,,,,,,,,,,,,,,,,,,,,,,,,,,,,,,,,,,,,,,How likely will it be that you will recognize the words presented clearly on a scale of 0 (not likely) to 100 (most likely)?,,,,,,,,,,,6,2.7643,0,2,2,0,1,,,,,,,,,,,,,,,,,,,,,
space,7.3753,-0.222319336,-0.233476563,0,0,0,,,,,,1,test,"In the next phase you will be presented with the words from the the first phase. Your job is to decide whether you remember seeing the word or not. If you remember seeing the word press ""old"" or type ""m"". If you do not remember seeing the word press ""new"" or type ""z"". Please press the space bar or click on continue to begin. ",,,61122ef0e7330ccc3c759eb7,30,2022-02-12_12h49.01.813,lexical_decision_task_DD_L5,2021.2.3,MacIntel,60.0024001,,,,,,,,,,,,,,,,,,,,,,,,,,,,,,,,,,,,,,,,,,,,,,,,,,,,,,,,,,,,,,,,,,0,0,0,0,1,,,,,,,,,,,,,,,,
,,-0.119536133,-0.383862305,1,0,0,,,,,,1,test,"In the next phase you will be presented with the words from the the first phase. Your job is to decide whether you remember seeing the word or not. If you remember seeing the word press ""old"" or type ""m"". If you do not remember seeing the word press ""new"" or type ""z"". Please press the space bar or click on continue to begin. ",,,61122ef0e7330ccc3c759eb7,30,2022-02-12_12h49.01.813,lexical_decision_task_DD_L5,2021.2.3,MacIntel,60.0024001,,,,,,,,,,,,,,,,,,,,,,,,,,,,,,,,,,,,,,,,,,,,,,,,,,,,,,,,,,,,,,,,,,1,0,1,0,1,instr_done_button,,,,,,,,,,,,,,,
space,5.7805,0.079018555,-0.213916016,0,0,0,,,,,,1,test,"In the next phase you will be presented with the words from the the first phase. Your job is to decide whether you remember seeing the word or not. If you remember seeing the word press ""old"" or type ""m"". If you do not remember seeing the word press ""new"" or type ""z"". Please press the space bar or click on continue to begin. ",,,61122ef0e7330ccc3c759eb7,30,2022-02-12_12h49.01.813,lexical_decision_task_DD_L5,2021.2.3,MacIntel,60.0024001,,,,,,,,,,,,,,,,,,,,,,,,,,,,,,,,,,,,,,,,,,,,,,,,,,,,,,,,,,,,,,,,,,2,0,2,0,1,,,,,,,,,,,,,,,,
space,0.6974,0.079018555,-0.213916016,0,0,0,,,,,,1,test,"In the next phase you will be presented with the words from the the first phase. Your job is to decide whether you remember seeing the word or not. If you remember seeing the word press ""old"" or type ""m"". If you do not remember seeing the word press ""new"" or type ""z"". Please press the space bar or click on continue to begin. ",,,61122ef0e7330ccc3c759eb7,30,2022-02-12_12h49.01.813,lexical_decision_task_DD_L5,2021.2.3,MacIntel,60.0024001,,,,,,,,,,,,,,,,,,,,,,,,,,,,,,,,,,,,,,,,,,,,,,,,,,,,,,,,,,,,,,,,,,3,0,3,0,1,,,,,,,,,,,,,,,,
,,0.042456055,-0.423779297,1,0,0,,,,,,1,test,"In the next phase you will be presented with the words from the the first phase. Your job is to decide whether you remember seeing the word or not. If you remember seeing the word press ""old"" or type ""m"". If you do not remember seeing the word press ""new"" or type ""z"". Please press the space bar or click on continue to begin. ",,,61122ef0e7330ccc3c759eb7,30,2022-02-12_12h49.01.813,lexical_decision_task_DD_L5,2021.2.3,MacIntel,60.0024001,,,,,,,,,,,,,,,,,,,,,,,,,,,,,,,,,,,,,,,,,,,,,,,,,,,,,,,,,,,,,,,,,,4,0,4,0,1,instr_done_button,,,,,,,,,,,,,,,
,,,,,,,,,,,,,,,,,61122ef0e7330ccc3c759eb7,30,2022-02-12_12h49.01.813,lexical_decision_task_DD_L5,2021.2.3,MacIntel,60.0024001,,,,,,,,,,,2.3437,1,,,,,,,,,,,,,,,,,,,,,,,,0.042456055,-0.423779297,0,0,0,,,,,,,TORCH,C,z,y,./images/TORCH.png,,,,,,,,,,,,,,,,,,,,,z,1,2.3437,,,,,,,,0,0,0,152,1
,,,,,,,,,,,,,,,,,61122ef0e7330ccc3c759eb7,30,2022-02-12_12h49.01.813,lexical_decision_task_DD_L5,2021.2.3,MacIntel,60.0024001,,,,,,,,,,,2.048,0,,,,,,,,,,,,,,,,,,,,,,,,0.042456055,-0.423779297,0,0,0,,,,,,,WAGON,LB,m,y,./images/WAGONLB.png,,,,,,,,,,,,,,,,,,,,,z,0,2.048,,,,,,,,0,1,1,7,1
,,,,,,,,,,,,,,,,,61122ef0e7330ccc3c759eb7,30,2022-02-12_12h49.01.813,lexical_decision_task_DD_L5,2021.2.3,MacIntel,60.0024001,,,,,,,,,,,1.5682,0,,,,,,,,,,,,,,,,,,,,,,,,0.042456055,-0.423779297,0,0,0,,,,,,,STOVE,C,m,y,./images/STOVE.png,,,,,,,,,,,,,,,,,,,,,z,0,1.5682,,,,,,,,0,2,2,2,1
,,,,,,,,,,,,,,,,,61122ef0e7330ccc3c759eb7,30,2022-02-12_12h49.01.813,lexical_decision_task_DD_L5,2021.2.3,MacIntel,60.0024001,,,,,,,,,,,1.12,1,,,,,,,,,,,,,,,,,,,,,,,,0.042456055,-0.423779297,0,0,0,,,,,,,STRING,C,z,y,./images/STRING.png,,,,,,,,,,,,,,,,,,,,,z,1,1.12,,,,,,,,0,3,3,125,1
,,,,,,,,,,,,,,,,,61122ef0e7330ccc3c759eb7,30,2022-02-12_12h49.01.813,lexical_decision_task_DD_L5,2021.2.3,MacIntel,60.0024001,,,,,,,,,,,0.9724,1,,,,,,,,,,,,,,,,,,,,,,,,0.042456055,-0.423779297,0,0,0,,,,,,,PISTOL,C,m,y,./images/PISTOL.png,,,,,,,,,,,,,,,,,,,,,m,1,0.9724,,,,,,,,0,4,4,29,1
,,,,,,,,,,,,,,,,,61122ef0e7330ccc3c759eb7,30,2022-02-12_12h49.01.813,lexical_decision_task_DD_L5,2021.2.3,MacIntel,60.0024001,,,,,,,,,,,0.8481,1,,,,,,,,,,,,,,,,,,,,,,,,0.042456055,-0.423779297,0,0,0,,,,,,,CHERRY,HB,m,y,./images/CHERRYHB.png,,,,,,,,,,,,,,,,,,,,,m,1,0.8481,,,,,,,,0,5,5,54,1
,,,,,,,,,,,,,,,,,61122ef0e7330ccc3c759eb7,30,2022-02-12_12h49.01.813,lexical_decision_task_DD_L5,2021.2.3,MacIntel,60.0024001,,,,,,,,,,,0.9164,1,,,,,,,,,,,,,,,,,,,,,,,,0.042456055,-0.423779297,0,0,0,,,,,,,MALLET,C,z,y,./images/MALLET.png,,,,,,,,,,,,,,,,,,,,,z,1,0.9164,,,,,,,,0,6,6,134,1
,,,,,,,,,,,,,,,,,61122ef0e7330ccc3c759eb7,30,2022-02-12_12h49.01.813,lexical_decision_task_DD_L5,2021.2.3,MacIntel,60.0024001,,,,,,,,,,,0.9201,1,,,,,,,,,,,,,,,,,,,,,,,,0.042456055,-0.423779297,0,0,0,,,,,,,MOOSE,HB,z,y,./images/MOOSEHB.png,,,,,,,,,,,,,,,,,,,,,z,1,0.9201,,,,,,,,0,7,7,141,1
,,,,,,,,,,,,,,,,,61122ef0e7330ccc3c759eb7,30,2022-02-12_12h49.01.813,lexical_decision_task_DD_L5,2021.2.3,MacIntel,60.0024001,,,,,,,,,,,0.946,1,,,,,,,,,,,,,,,,,,,,,,,,0.042456055,-0.423779297,0,0,0,,,,,,,THROAT,HB,z,y,./images/THROATHB.png,,,,,,,,,,,,,,,,,,,,,z,1,0.946,,,,,,,,0,8,8,120,1
,,,,,,,,,,,,,,,,,61122ef0e7330ccc3c759eb7,30,2022-02-12_12h49.01.813,lexical_decision_task_DD_L5,2021.2.3,MacIntel,60.0024001,,,,,,,,,,,0.8032,1,,,,,,,,,,,,,,,,,,,,,,,,0.042456055,-0.423779297,0,0,0,,,,,,,MONKEY,HB,m,y,./images/MONKEYHB.png,,,,,,,,,,,,,,,,,,,,,m,1,0.8032,,,,,,,,0,9,9,45,1
,,,,,,,,,,,,,,,,,61122ef0e7330ccc3c759eb7,30,2022-02-12_12h49.01.813,lexical_decision_task_DD_L5,2021.2.3,MacIntel,60.0024001,,,,,,,,,,,1.1615,1,,,,,,,,,,,,,,,,,,,,,,,,0.042456055,-0.423779297,0,0,0,,,,,,,CANYON,LB,z,y,./images/CANYONLB.png,,,,,,,,,,,,,,,,,,,,,z,1,1.1615,,,,,,,,0,10,10,118,1
,,,,,,,,,,,,,,,,,61122ef0e7330ccc3c759eb7,30,2022-02-12_12h49.01.813,lexical_decision_task_DD_L5,2021.2.3,MacIntel,60.0024001,,,,,,,,,,,0.9153,1,,,,,,,,,,,,,,,,,,,,,,,,0.042456055,-0.423779297,0,0,0,,,,,,,DESERT,LB,m,y,./images/DESERTLB.png,,,,,,,,,,,,,,,,,,,,,m,1,0.9153,,,,,,,,0,11,11,52,1
,,,,,,,,,,,,,,,,,61122ef0e7330ccc3c759eb7,30,2022-02-12_12h49.01.813,lexical_decision_task_DD_L5,2021.2.3,MacIntel,60.0024001,,,,,,,,,,,1.1352,1,,,,,,,,,,,,,,,,,,,,,,,,0.042456055,-0.423779297,0,0,0,,,,,,,STORM,HB,z,y,./images/STORMHB.png,,,,,,,,,,,,,,,,,,,,,z,1,1.1352,,,,,,,,0,12,12,114,1
,,,,,,,,,,,,,,,,,61122ef0e7330ccc3c759eb7,30,2022-02-12_12h49.01.813,lexical_decision_task_DD_L5,2021.2.3,MacIntel,60.0024001,,,,,,,,,,,0.8338,1,,,,,,,,,,,,,,,,,,,,,,,,0.042456055,-0.423779297,0,0,0,,,,,,,CHALK,LB,m,y,./images/CHALKLB.png,,,,,,,,,,,,,,,,,,,,,m,1,0.8338,,,,,,,,0,13,13,25,1
,,,,,,,,,,,,,,,,,61122ef0e7330ccc3c759eb7,30,2022-02-12_12h49.01.813,lexical_decision_task_DD_L5,2021.2.3,MacIntel,60.0024001,,,,,,,,,,,0.9295,1,,,,,,,,,,,,,,,,,,,,,,,,0.042456055,-0.423779297,0,0,0,,,,,,,DANCER,HB,m,y,./images/DANCERHB.png,,,,,,,,,,,,,,,,,,,,,m,1,0.9295,,,,,,,,0,14,14,21,1
,,,,,,,,,,,,,,,,,61122ef0e7330ccc3c759eb7,30,2022-02-12_12h49.01.813,lexical_decision_task_DD_L5,2021.2.3,MacIntel,60.0024001,,,,,,,,,,,0.8818,1,,,,,,,,,,,,,,,,,,,,,,,,0.042456055,-0.423779297,0,0,0,,,,,,,JUNGLE,C,z,y,./images/JUNGLE.png,,,,,,,,,,,,,,,,,,,,,z,1,0.8818,,,,,,,,0,15,15,167,1
,,,,,,,,,,,,,,,,,61122ef0e7330ccc3c759eb7,30,2022-02-12_12h49.01.813,lexical_decision_task_DD_L5,2021.2.3,MacIntel,60.0024001,,,,,,,,,,,0.8997,1,,,,,,,,,,,,,,,,,,,,,,,,0.042456055,-0.423779297,0,0,0,,,,,,,BURIAL,C,z,y,./images/BURIAL.png,,,,,,,,,,,,,,,,,,,,,z,1,0.8997,,,,,,,,0,16,16,143,1
,,,,,,,,,,,,,,,,,61122ef0e7330ccc3c759eb7,30,2022-02-12_12h49.01.813,lexical_decision_task_DD_L5,2021.2.3,MacIntel,60.0024001,,,,,,,,,,,1.0157,1,,,,,,,,,,,,,,,,,,,,,,,,0.042456055,-0.423779297,0,0,0,,,,,,,BOILER,HB,m,y,./images/BOILERHB.png,,,,,,,,,,,,,,,,,,,,,m,1,1.0157,,,,,,,,0,17,17,36,1
,,,,,,,,,,,,,,,,,61122ef0e7330ccc3c759eb7,30,2022-02-12_12h49.01.813,lexical_decision_task_DD_L5,2021.2.3,MacIntel,60.0024001,,,,,,,,,,,0.8817,1,,,,,,,,,,,,,,,,,,,,,,,,0.042456055,-0.423779297,0,0,0,,,,,,,URINE,LB,z,y,./images/URINELB.png,,,,,,,,,,,,,,,,,,,,,z,1,0.8817,,,,,,,,0,18,18,154,1
,,,,,,,,,,,,,,,,,61122ef0e7330ccc3c759eb7,30,2022-02-12_12h49.01.813,lexical_decision_task_DD_L5,2021.2.3,MacIntel,60.0024001,,,,,,,,,,,2.0322,1,,,,,,,,,,,,,,,,,,,,,,,,0.042456055,-0.423779297,0,0,0,,,,,,,KITTEN,HB,z,y,./images/KITTENHB.png,,,,,,,,,,,,,,,,,,,,,z,1,2.0322,,,,,,,,0,19,19,129,1
,,,,,,,,,,,,,,,,,61122ef0e7330ccc3c759eb7,30,2022-02-12_12h49.01.813,lexical_decision_task_DD_L5,2021.2.3,MacIntel,60.0024001,,,,,,,,,,,1.0329,1,,,,,,,,,,,,,,,,,,,,,,,,0.042456055,-0.423779297,0,0,0,,,,,,,POODLE,HB,z,y,./images/POODLEHB.png,,,,,,,,,,,,,,,,,,,,,z,1,1.0329,,,,,,,,0,20,20,165,1
,,,,,,,,,,,,,,,,,61122ef0e7330ccc3c759eb7,30,2022-02-12_12h49.01.813,lexical_decision_task_DD_L5,2021.2.3,MacIntel,60.0024001,,,,,,,,,,,0.9158,1,,,,,,,,,,,,,,,,,,,,,,,,0.042456055,-0.423779297,0,0,0,,,,,,,TWINS,HB,z,y,./images/TWINSHB.png,,,,,,,,,,,,,,,,,,,,,z,1,0.9158,,,,,,,,0,21,21,144,1
,,,,,,,,,,,,,,,,,61122ef0e7330ccc3c759eb7,30,2022-02-12_12h49.01.813,lexical_decision_task_DD_L5,2021.2.3,MacIntel,60.0024001,,,,,,,,,,,0.8802,1,,,,,,,,,,,,,,,,,,,,,,,,0.042456055,-0.423779297,0,0,0,,,,,,,INFANT,LB,z,y,./images/INFANTLB.png,,,,,,,,,,,,,,,,,,,,,z,1,0.8802,,,,,,,,0,22,22,160,1
,,,,,,,,,,,,,,,,,61122ef0e7330ccc3c759eb7,30,2022-02-12_12h49.01.813,lexical_decision_task_DD_L5,2021.2.3,MacIntel,60.0024001,,,,,,,,,,,1.0485,1,,,,,,,,,,,,,,,,,,,,,,,,0.042456055,-0.423779297,0,0,0,,,,,,,BERRY,C,z,y,./images/BERRY.png,,,,,,,,,,,,,,,,,,,,,z,1,1.0485,,,,,,,,0,23,23,131,1
,,,,,,,,,,,,,,,,,61122ef0e7330ccc3c759eb7,30,2022-02-12_12h49.01.813,lexical_decision_task_DD_L5,2021.2.3,MacIntel,60.0024001,,,,,,,,,,,0.9302,1,,,,,,,,,,,,,,,,,,,,,,,,0.042456055,-0.423779297,0,0,0,,,,,,,BAKER,HB,m,y,./images/BAKERHB.png,,,,,,,,,,,,,,,,,,,,,m,1,0.9302,,,,,,,,0,24,24,63,1
,,,,,,,,,,,,,,,,,61122ef0e7330ccc3c759eb7,30,2022-02-12_12h49.01.813,lexical_decision_task_DD_L5,2021.2.3,MacIntel,60.0024001,,,,,,,,,,,0.8957,1,,,,,,,,,,,,,,,,,,,,,,,,0.042456055,-0.423779297,0,0,0,,,,,,,PASTA,C,z,y,./images/PASTA.png,,,,,,,,,,,,,,,,,,,,,z,1,0.8957,,,,,,,,0,25,25,89,1
,,,,,,,,,,,,,,,,,61122ef0e7330ccc3c759eb7,30,2022-02-12_12h49.01.813,lexical_decision_task_DD_L5,2021.2.3,MacIntel,60.0024001,,,,,,,,,,,0.9317,1,,,,,,,,,,,,,,,,,,,,,,,,0.042456055,-0.423779297,0,0,0,,,,,,,FERRY,HB,m,y,./images/FERRYHB.png,,,,,,,,,,,,,,,,,,,,,m,1,0.9317,,,,,,,,0,26,26,57,1
,,,,,,,,,,,,,,,,,61122ef0e7330ccc3c759eb7,30,2022-02-12_12h49.01.813,lexical_decision_task_DD_L5,2021.2.3,MacIntel,60.0024001,,,,,,,,,,,0.9481,1,,,,,,,,,,,,,,,,,,,,,,,,0.042456055,-0.423779297,0,0,0,,,,,,,DRILL,HB,m,y,./images/DRILLHB.png,,,,,,,,,,,,,,,,,,,,,m,1,0.9481,,,,,,,,0,27,27,81,1
,,,,,,,,,,,,,,,,,61122ef0e7330ccc3c759eb7,30,2022-02-12_12h49.01.813,lexical_decision_task_DD_L5,2021.2.3,MacIntel,60.0024001,,,,,,,,,,,0.9806,1,,,,,,,,,,,,,,,,,,,,,,,,0.042456055,-0.423779297,0,0,0,,,,,,,BONNET,C,z,y,./images/BONNET.png,,,,,,,,,,,,,,,,,,,,,z,1,0.9806,,,,,,,,0,28,28,95,1
,,,,,,,,,,,,,,,,,61122ef0e7330ccc3c759eb7,30,2022-02-12_12h49.01.813,lexical_decision_task_DD_L5,2021.2.3,MacIntel,60.0024001,,,,,,,,,,,1.9984,1,,,,,,,,,,,,,,,,,,,,,,,,0.042456055,-0.423779297,0,0,0,,,,,,,LAGOON,C,m,y,./images/LAGOON.png,,,,,,,,,,,,,,,,,,,,,m,1,1.9984,,,,,,,,0,29,29,47,1
,,,,,,,,,,,,,,,,,61122ef0e7330ccc3c759eb7,30,2022-02-12_12h49.01.813,lexical_decision_task_DD_L5,2021.2.3,MacIntel,60.0024001,,,,,,,,,,,1.0454,1,,,,,,,,,,,,,,,,,,,,,,,,0.042456055,-0.423779297,0,0,0,,,,,,,BABOON,LB,z,y,./images/BABOONLB.png,,,,,,,,,,,,,,,,,,,,,z,1,1.0454,,,,,,,,0,30,30,142,1
,,,,,,,,,,,,,,,,,61122ef0e7330ccc3c759eb7,30,2022-02-12_12h49.01.813,lexical_decision_task_DD_L5,2021.2.3,MacIntel,60.0024001,,,,,,,,,,,1.147,1,,,,,,,,,,,,,,,,,,,,,,,,0.042456055,-0.423779297,0,0,0,,,,,,,PEACH,C,z,y,./images/PEACH.png,,,,,,,,,,,,,,,,,,,,,z,1,1.147,,,,,,,,0,31,31,119,1
,,,,,,,,,,,,,,,,,61122ef0e7330ccc3c759eb7,30,2022-02-12_12h49.01.813,lexical_decision_task_DD_L5,2021.2.3,MacIntel,60.0024001,,,,,,,,,,,0.9544,1,,,,,,,,,,,,,,,,,,,,,,,,0.042456055,-0.423779297,0,0,0,,,,,,,GRAPE,LB,m,y,./images/GRAPELB.png,,,,,,,,,,,,,,,,,,,,,m,1,0.9544,,,,,,,,0,32,32,16,1
,,,,,,,,,,,,,,,,,61122ef0e7330ccc3c759eb7,30,2022-02-12_12h49.01.813,lexical_decision_task_DD_L5,2021.2.3,MacIntel,60.0024001,,,,,,,,,,,0.916,1,,,,,,,,,,,,,,,,,,,,,,,,0.042456055,-0.423779297,0,0,0,,,,,,,DIVER,HB,m,y,./images/DIVERHB.png,,,,,,,,,,,,,,,,,,,,,m,1,0.916,,,,,,,,0,33,33,9,1
,,,,,,,,,,,,,,,,,61122ef0e7330ccc3c759eb7,30,2022-02-12_12h49.01.813,lexical_decision_task_DD_L5,2021.2.3,MacIntel,60.0024001,,,,,,,,,,,0.7975,1,,,,,,,,,,,,,,,,,,,,,,,,0.042456055,-0.423779297,0,0,0,,,,,,,TOWEL,LB,m,y,./images/TOWELLB.png,,,,,,,,,,,,,,,,,,,,,m,1,0.7975,,,,,,,,0,34,34,1,1
,,,,,,,,,,,,,,,,,61122ef0e7330ccc3c759eb7,30,2022-02-12_12h49.01.813,lexical_decision_task_DD_L5,2021.2.3,MacIntel,60.0024001,,,,,,,,,,,1.2138,0,,,,,,,,,,,,,,,,,,,,,,,,0.042456055,-0.423779297,0,0,0,,,,,,,SHIELD,HB,m,y,./images/SHIELDHB.png,,,,,,,,,,,,,,,,,,,,,z,0,1.2138,,,,,,,,0,35,35,48,1
,,,,,,,,,,,,,,,,,61122ef0e7330ccc3c759eb7,30,2022-02-12_12h49.01.813,lexical_decision_task_DD_L5,2021.2.3,MacIntel,60.0024001,,,,,,,,,,,0.8099,1,,,,,,,,,,,,,,,,,,,,,,,,0.042456055,-0.423779297,0,0,0,,,,,,,DONKEY,LB,m,y,./images/DONKEYLB.png,,,,,,,,,,,,,,,,,,,,,m,1,0.8099,,,,,,,,0,36,36,19,1
,,,,,,,,,,,,,,,,,61122ef0e7330ccc3c759eb7,30,2022-02-12_12h49.01.813,lexical_decision_task_DD_L5,2021.2.3,MacIntel,60.0024001,,,,,,,,,,,0.8808,1,,,,,,,,,,,,,,,,,,,,,,,,0.042456055,-0.423779297,0,0,0,,,,,,,BISHOP,LB,m,y,./images/BISHOPLB.png,,,,,,,,,,,,,,,,,,,,,m,1,0.8808,,,,,,,,0,37,37,49,1
,,,,,,,,,,,,,,,,,61122ef0e7330ccc3c759eb7,30,2022-02-12_12h49.01.813,lexical_decision_task_DD_L5,2021.2.3,MacIntel,60.0024001,,,,,,,,,,,0.8966,1,,,,,,,,,,,,,,,,,,,,,,,,0.042456055,-0.423779297,0,0,0,,,,,,,RULER,LB,m,y,./images/RULERLB.png,,,,,,,,,,,,,,,,,,,,,m,1,0.8966,,,,,,,,0,38,38,79,1
,,,,,,,,,,,,,,,,,61122ef0e7330ccc3c759eb7,30,2022-02-12_12h49.01.813,lexical_decision_task_DD_L5,2021.2.3,MacIntel,60.0024001,,,,,,,,,,,1.0698,1,,,,,,,,,,,,,,,,,,,,,,,,0.042456055,-0.423779297,0,0,0,,,,,,,MUFFIN,LB,z,y,./images/MUFFINLB.png,,,,,,,,,,,,,,,,,,,,,z,1,1.0698,,,,,,,,0,39,39,139,1
,,,,,,,,,,,,,,,,,61122ef0e7330ccc3c759eb7,30,2022-02-12_12h49.01.813,lexical_decision_task_DD_L5,2021.2.3,MacIntel,60.0024001,,,,,,,,,,,1.1994,1,,,,,,,,,,,,,,,,,,,,,,,,0.042456055,-0.423779297,0,0,0,,,,,,,SHORE,HB,z,y,./images/SHOREHB.png,,,,,,,,,,,,,,,,,,,,,z,1,1.1994,,,,,,,,0,40,40,96,1
,,,,,,,,,,,,,,,,,61122ef0e7330ccc3c759eb7,30,2022-02-12_12h49.01.813,lexical_decision_task_DD_L5,2021.2.3,MacIntel,60.0024001,,,,,,,,,,,0.9283,1,,,,,,,,,,,,,,,,,,,,,,,,0.042456055,-0.423779297,0,0,0,space,,,,,,DRUMS,LB,z,y,./images/DRUMSLB.png,5.0061,,,,,,,,,,,,,,,,,,,,z,1,0.9283,,,,,,,,0,41,41,133,1
,,,,,,,,,,,,,,,,,61122ef0e7330ccc3c759eb7,30,2022-02-12_12h49.01.813,lexical_decision_task_DD_L5,2021.2.3,MacIntel,60.0024001,,,,,,,,,,,1.0638,1,,,,,,,,,,,,,,,,,,,,,,,,0.042456055,-0.423779297,0,0,0,,,,,,,BUTTER,HB,m,y,./images/BUTTERHB.png,,,,,,,,,,,,,,,,,,,,,m,1,1.0638,,,,,,,,0,42,42,27,1
,,,,,,,,,,,,,,,,,61122ef0e7330ccc3c759eb7,30,2022-02-12_12h49.01.813,lexical_decision_task_DD_L5,2021.2.3,MacIntel,60.0024001,,,,,,,,,,,0.8638,1,,,,,,,,,,,,,,,,,,,,,,,,0.042456055,-0.423779297,0,0,0,,,,,,,CHAIN,HB,m,y,./images/CHAINHB.png,,,,,,,,,,,,,,,,,,,,,m,1,0.8638,,,,,,,,0,43,43,42,1
,,,,,,,,,,,,,,,,,61122ef0e7330ccc3c759eb7,30,2022-02-12_12h49.01.813,lexical_decision_task_DD_L5,2021.2.3,MacIntel,60.0024001,,,,,,,,,,,0.7988,1,,,,,,,,,,,,,,,,,,,,,,,,0.042456055,-0.423779297,0,0,0,,,,,,,BUBBLE,C,m,y,./images/BUBBLE.png,,,,,,,,,,,,,,,,,,,,,m,1,0.7988,,,,,,,,0,44,44,71,1
,,,,,,,,,,,,,,,,,61122ef0e7330ccc3c759eb7,30,2022-02-12_12h49.01.813,lexical_decision_task_DD_L5,2021.2.3,MacIntel,60.0024001,,,,,,,,,,,0.9001,0,,,,,,,,,,,,,,,,,,,,,,,,0.042456055,-0.423779297,0,0,0,,,,,,,ENGINE,C,m,y,./images/ENGINE.png,,,,,,,,,,,,,,,,,,,,,z,0,0.9001,,,,,,,,0,45,45,38,1
,,,,,,,,,,,,,,,,,61122ef0e7330ccc3c759eb7,30,2022-02-12_12h49.01.813,lexical_decision_task_DD_L5,2021.2.3,MacIntel,60.0024001,,,,,,,,,,,1.062,1,,,,,,,,,,,,,,,,,,,,,,,,0.042456055,-0.423779297,0,0,0,,,,,,,GRAIN,HB,z,y,./images/GRAINHB.png,,,,,,,,,,,,,,,,,,,,,z,1,1.062,,,,,,,,0,46,46,159,1
,,,,,,,,,,,,,,,,,61122ef0e7330ccc3c759eb7,30,2022-02-12_12h49.01.813,lexical_decision_task_DD_L5,2021.2.3,MacIntel,60.0024001,,,,,,,,,,,0.9283,1,,,,,,,,,,,,,,,,,,,,,,,,0.042456055,-0.423779297,0,0,0,,,,,,,SHELF,HB,z,y,./images/SHELFHB.png,,,,,,,,,,,,,,,,,,,,,z,1,0.9283,,,,,,,,0,47,47,123,1
,,,,,,,,,,,,,,,,,61122ef0e7330ccc3c759eb7,30,2022-02-12_12h49.01.813,lexical_decision_task_DD_L5,2021.2.3,MacIntel,60.0024001,,,,,,,,,,,0.8692,1,,,,,,,,,,,,,,,,,,,,,,,,0.042456055,-0.423779297,0,0,0,,,,,,,PIMPLE,C,z,y,./images/PIMPLE.png,,,,,,,,,,,,,,,,,,,,,z,1,0.8692,,,,,,,,0,48,48,155,1
,,,,,,,,,,,,,,,,,61122ef0e7330ccc3c759eb7,30,2022-02-12_12h49.01.813,lexical_decision_task_DD_L5,2021.2.3,MacIntel,60.0024001,,,,,,,,,,,0.936,1,,,,,,,,,,,,,,,,,,,,,,,,0.042456055,-0.423779297,0,0,0,,,,,,,SPORT,HB,z,y,./images/SPORTHB.png,,,,,,,,,,,,,,,,,,,,,z,1,0.936,,,,,,,,0,49,49,132,1
,,,,,,,,,,,,,,,,,61122ef0e7330ccc3c759eb7,30,2022-02-12_12h49.01.813,lexical_decision_task_DD_L5,2021.2.3,MacIntel,60.0024001,,,,,,,,,,,1.8034,1,,,,,,,,,,,,,,,,,,,,,,,,0.042456055,-0.423779297,0,0,0,,,,,,,GLOVE,LB,m,y,./images/GLOVELB.png,,,,,,,,,,,,,,,,,,,,,m,1,1.8034,,,,,,,,0,50,50,73,1
,,,,,,,,,,,,,,,,,61122ef0e7330ccc3c759eb7,30,2022-02-12_12h49.01.813,lexical_decision_task_DD_L5,2021.2.3,MacIntel,60.0024001,,,,,,,,,,,0.8934,1,,,,,,,,,,,,,,,,,,,,,,,,0.042456055,-0.423779297,0,0,0,,,,,,,WALNUT,HB,m,y,./images/WALNUTHB.png,,,,,,,,,,,,,,,,,,,,,m,1,0.8934,,,,,,,,0,51,51,0,1
,,,,,,,,,,,,,,,,,61122ef0e7330ccc3c759eb7,30,2022-02-12_12h49.01.813,lexical_decision_task_DD_L5,2021.2.3,MacIntel,60.0024001,,,,,,,,,,,2.1665,0,,,,,,,,,,,,,,,,,,,,,,,,0.042456055,-0.423779297,0,0,0,,,,,,,PAINT,LB,z,y,./images/PAINTLB.png,,,,,,,,,,,,,,,,,,,,,m,0,2.1665,,,,,,,,0,52,52,91,1
,,,,,,,,,,,,,,,,,61122ef0e7330ccc3c759eb7,30,2022-02-12_12h49.01.813,lexical_decision_task_DD_L5,2021.2.3,MacIntel,60.0024001,,,,,,,,,,,0.9028,1,,,,,,,,,,,,,,,,,,,,,,,,0.042456055,-0.423779297,0,0,0,,,,,,,CANDY,HB,m,y,./images/CANDYHB.png,,,,,,,,,,,,,,,,,,,,,m,1,0.9028,,,,,,,,0,53,53,39,1
,,,,,,,,,,,,,,,,,61122ef0e7330ccc3c759eb7,30,2022-02-12_12h49.01.813,lexical_decision_task_DD_L5,2021.2.3,MacIntel,60.0024001,,,,,,,,,,,0.8016,1,,,,,,,,,,,,,,,,,,,,,,,,0.042456055,-0.423779297,0,0,0,,,,,,,STOOL,LB,m,y,./images/STOOLLB.png,,,,,,,,,,,,,,,,,,,,,m,1,0.8016,,,,,,,,0,54,54,43,1
,,,,,,,,,,,,,,,,,61122ef0e7330ccc3c759eb7,30,2022-02-12_12h49.01.813,lexical_decision_task_DD_L5,2021.2.3,MacIntel,60.0024001,,,,,,,,,,,0.9838,1,,,,,,,,,,,,,,,,,,,,,,,,0.042456055,-0.423779297,0,0,0,,,,,,,HEATER,C,m,y,./images/HEATER.png,,,,,,,,,,,,,,,,,,,,,m,1,0.9838,,,,,,,,0,55,55,56,1
,,,,,,,,,,,,,,,,,61122ef0e7330ccc3c759eb7,30,2022-02-12_12h49.01.813,lexical_decision_task_DD_L5,2021.2.3,MacIntel,60.0024001,,,,,,,,,,,0.981,1,,,,,,,,,,,,,,,,,,,,,,,,0.042456055,-0.423779297,0,0,0,,,,,,,CARPET,C,z,y,./images/CARPET.png,,,,,,,,,,,,,,,,,,,,,z,1,0.981,,,,,,,,0,56,56,137,1
,,,,,,,,,,,,,,,,,61122ef0e7330ccc3c759eb7,30,2022-02-12_12h49.01.813,lexical_decision_task_DD_L5,2021.2.3,MacIntel,60.0024001,,,,,,,,,,,1.1969,1,,,,,,,,,,,,,,,,,,,,,,,,0.042456055,-0.423779297,0,0,0,,,,,,,JUMPER,C,m,y,./images/JUMPER.png,,,,,,,,,,,,,,,,,,,,,m,1,1.1969,,,,,,,,0,57,57,74,1
,,,,,,,,,,,,,,,,,61122ef0e7330ccc3c759eb7,30,2022-02-12_12h49.01.813,lexical_decision_task_DD_L5,2021.2.3,MacIntel,60.0024001,,,,,,,,,,,0.8015,1,,,,,,,,,,,,,,,,,,,,,,,,0.042456055,-0.423779297,0,0,0,,,,,,,BAMBOO,C,m,y,./images/BAMBOO.png,,,,,,,,,,,,,,,,,,,,,m,1,0.8015,,,,,,,,0,58,58,5,1
,,,,,,,,,,,,,,,,,61122ef0e7330ccc3c759eb7,30,2022-02-12_12h49.01.813,lexical_decision_task_DD_L5,2021.2.3,MacIntel,60.0024001,,,,,,,,,,,0.8369,1,,,,,,,,,,,,,,,,,,,,,,,,0.042456055,-0.423779297,0,0,0,,,,,,,SAUCE,HB,m,y,./images/SAUCEHB.png,,,,,,,,,,,,,,,,,,,,,m,1,0.8369,,,,,,,,0,59,59,51,1
,,,,,,,,,,,,,,,,,61122ef0e7330ccc3c759eb7,30,2022-02-12_12h49.01.813,lexical_decision_task_DD_L5,2021.2.3,MacIntel,60.0024001,,,,,,,,,,,0.9159,1,,,,,,,,,,,,,,,,,,,,,,,,0.042456055,-0.423779297,0,0,0,,,,,,,COOKER,HB,z,y,./images/COOKERHB.png,,,,,,,,,,,,,,,,,,,,,z,1,0.9159,,,,,,,,0,60,60,153,1
,,,,,,,,,,,,,,,,,61122ef0e7330ccc3c759eb7,30,2022-02-12_12h49.01.813,lexical_decision_task_DD_L5,2021.2.3,MacIntel,60.0024001,,,,,,,,,,,0.8357,1,,,,,,,,,,,,,,,,,,,,,,,,0.042456055,-0.423779297,0,0,0,,,,,,,LLAMA,C,m,y,./images/LLAMA.png,,,,,,,,,,,,,,,,,,,,,m,1,0.8357,,,,,,,,0,61,61,35,1
,,,,,,,,,,,,,,,,,61122ef0e7330ccc3c759eb7,30,2022-02-12_12h49.01.813,lexical_decision_task_DD_L5,2021.2.3,MacIntel,60.0024001,,,,,,,,,,,0.8682,1,,,,,,,,,,,,,,,,,,,,,,,,0.042456055,-0.423779297,0,0,0,,,,,,,CRUMB,C,z,y,./images/CRUMB.png,,,,,,,,,,,,,,,,,,,,,z,1,0.8682,,,,,,,,0,62,62,113,1
,,,,,,,,,,,,,,,,,61122ef0e7330ccc3c759eb7,30,2022-02-12_12h49.01.813,lexical_decision_task_DD_L5,2021.2.3,MacIntel,60.0024001,,,,,,,,,,,1.0312,1,,,,,,,,,,,,,,,,,,,,,,,,0.042456055,-0.423779297,0,0,0,,,,,,,PLANET,C,m,y,./images/PLANET.png,,,,,,,,,,,,,,,,,,,,,m,1,1.0312,,,,,,,,0,63,63,80,1
,,,,,,,,,,,,,,,,,61122ef0e7330ccc3c759eb7,30,2022-02-12_12h49.01.813,lexical_decision_task_DD_L5,2021.2.3,MacIntel,60.0024001,,,,,,,,,,,0.9146,1,,,,,,,,,,,,,,,,,,,,,,,,0.042456055,-0.423779297,0,0,0,,,,,,,ATTIC,HB,z,y,./images/ATTICHB.png,,,,,,,,,,,,,,,,,,,,,z,1,0.9146,,,,,,,,0,64,64,111,1
,,,,,,,,,,,,,,,,,61122ef0e7330ccc3c759eb7,30,2022-02-12_12h49.01.813,lexical_decision_task_DD_L5,2021.2.3,MacIntel,60.0024001,,,,,,,,,,,2.5137,1,,,,,,,,,,,,,,,,,,,,,,,,0.042456055,-0.423779297,0,0,0,,,,,,,TIGER,LB,m,y,./images/TIGERLB.png,,,,,,,,,,,,,,,,,,,,,m,1,2.5137,,,,,,,,0,65,65,37,1
,,,,,,,,,,,,,,,,,61122ef0e7330ccc3c759eb7,30,2022-02-12_12h49.01.813,lexical_decision_task_DD_L5,2021.2.3,MacIntel,60.0024001,,,,,,,,,,,1.0004,1,,,,,,,,,,,,,,,,,,,,,,,,0.042456055,-0.423779297,0,0,0,,,,,,,BANNER,LB,z,y,./images/BANNERLB.png,,,,,,,,,,,,,,,,,,,,,z,1,1.0004,,,,,,,,0,66,66,136,1
,,,,,,,,,,,,,,,,,61122ef0e7330ccc3c759eb7,30,2022-02-12_12h49.01.813,lexical_decision_task_DD_L5,2021.2.3,MacIntel,60.0024001,,,,,,,,,,,1.0636,0,,,,,,,,,,,,,,,,,,,,,,,,0.042456055,-0.423779297,0,0,0,,,,,,,WHEEL,C,m,y,./images/WHEEL.png,,,,,,,,,,,,,,,,,,,,,z,0,1.0636,,,,,,,,0,67,67,77,1
,,,,,,,,,,,,,,,,,61122ef0e7330ccc3c759eb7,30,2022-02-12_12h49.01.813,lexical_decision_task_DD_L5,2021.2.3,MacIntel,60.0024001,,,,,,,,,,,1.0136,1,,,,,,,,,,,,,,,,,,,,,,,,0.042456055,-0.423779297,0,0,0,,,,,,,BIRTH,LB,z,y,./images/BIRTHLB.png,,,,,,,,,,,,,,,,,,,,,z,1,1.0136,,,,,,,,0,68,68,121,1
,,,,,,,,,,,,,,,,,61122ef0e7330ccc3c759eb7,30,2022-02-12_12h49.01.813,lexical_decision_task_DD_L5,2021.2.3,MacIntel,60.0024001,,,,,,,,,,,0.9124,0,,,,,,,,,,,,,,,,,,,,,,,,0.042456055,-0.423779297,0,0,0,,,,,,,STREAM,C,m,y,./images/STREAM.png,,,,,,,,,,,,,,,,,,,,,z,0,0.9124,,,,,,,,0,69,69,41,1
,,,,,,,,,,,,,,,,,61122ef0e7330ccc3c759eb7,30,2022-02-12_12h49.01.813,lexical_decision_task_DD_L5,2021.2.3,MacIntel,60.0024001,,,,,,,,,,,0.8864,1,,,,,,,,,,,,,,,,,,,,,,,,0.042456055,-0.423779297,0,0,0,,,,,,,LADDER,C,z,y,./images/LADDER.png,,,,,,,,,,,,,,,,,,,,,z,1,0.8864,,,,,,,,0,70,70,122,1
,,,,,,,,,,,,,,,,,61122ef0e7330ccc3c759eb7,30,2022-02-12_12h49.01.813,lexical_decision_task_DD_L5,2021.2.3,MacIntel,60.0024001,,,,,,,,,,,0.8848,1,,,,,,,,,,,,,,,,,,,,,,,,0.042456055,-0.423779297,0,0,0,,,,,,,SWING,LB,z,y,./images/SWINGLB.png,,,,,,,,,,,,,,,,,,,,,z,1,0.8848,,,,,,,,0,71,71,124,1
,,,,,,,,,,,,,,,,,61122ef0e7330ccc3c759eb7,30,2022-02-12_12h49.01.813,lexical_decision_task_DD_L5,2021.2.3,MacIntel,60.0024001,,,,,,,,,,,0.9809,1,,,,,,,,,,,,,,,,,,,,,,,,0.042456055,-0.423779297,0,0,0,,,,,,,PARADE,C,m,y,./images/PARADE.png,,,,,,,,,,,,,,,,,,,,,m,1,0.9809,,,,,,,,0,72,72,17,1
,,,,,,,,,,,,,,,,,61122ef0e7330ccc3c759eb7,30,2022-02-12_12h49.01.813,lexical_decision_task_DD_L5,2021.2.3,MacIntel,60.0024001,,,,,,,,,,,0.9361,1,,,,,,,,,,,,,,,,,,,,,,,,0.042456055,-0.423779297,0,0,0,,,,,,,CRUST,LB,z,y,./images/CRUSTLB.png,,,,,,,,,,,,,,,,,,,,,z,1,0.9361,,,,,,,,0,73,73,163,1
,,,,,,,,,,,,,,,,,61122ef0e7330ccc3c759eb7,30,2022-02-12_12h49.01.813,lexical_decision_task_DD_L5,2021.2.3,MacIntel,60.0024001,,,,,,,,,,,1.2385,1,,,,,,,,,,,,,,,,,,,,,,,,0.042456055,-0.423779297,0,0,0,,,,,,,MELON,LB,z,y,./images/MELONLB.png,,,,,,,,,,,,,,,,,,,,,z,1,1.2385,,,,,,,,0,74,74,106,1
,,,,,,,,,,,,,,,,,61122ef0e7330ccc3c759eb7,30,2022-02-12_12h49.01.813,lexical_decision_task_DD_L5,2021.2.3,MacIntel,60.0024001,,,,,,,,,,,2.6529,1,,,,,,,,,,,,,,,,,,,,,,,,0.042456055,-0.423779297,0,0,0,,,,,,,BROOM,HB,m,y,./images/BROOMHB.png,,,,,,,,,,,,,,,,,,,,,m,1,2.6529,,,,,,,,0,75,75,78,1
,,,,,,,,,,,,,,,,,61122ef0e7330ccc3c759eb7,30,2022-02-12_12h49.01.813,lexical_decision_task_DD_L5,2021.2.3,MacIntel,60.0024001,,,,,,,,,,,0.851,1,,,,,,,,,,,,,,,,,,,,,,,,0.042456055,-0.423779297,0,0,0,,,,,,,GARDEN,LB,m,y,./images/GARDENLB.png,,,,,,,,,,,,,,,,,,,,,m,1,0.851,,,,,,,,0,76,76,10,1
,,,,,,,,,,,,,,,,,61122ef0e7330ccc3c759eb7,30,2022-02-12_12h49.01.813,lexical_decision_task_DD_L5,2021.2.3,MacIntel,60.0024001,,,,,,,,,,,0.8018,1,,,,,,,,,,,,,,,,,,,,,,,,0.042456055,-0.423779297,0,0,0,,,,,,,MUSCLE,LB,z,y,./images/MUSCLELB.png,,,,,,,,,,,,,,,,,,,,,z,1,0.8018,,,,,,,,0,77,77,88,1
,,,,,,,,,,,,,,,,,61122ef0e7330ccc3c759eb7,30,2022-02-12_12h49.01.813,lexical_decision_task_DD_L5,2021.2.3,MacIntel,60.0024001,,,,,,,,,,,0.9523,1,,,,,,,,,,,,,,,,,,,,,,,,0.042456055,-0.423779297,0,0,0,,,,,,,COLLAR,HB,m,y,./images/COLLARHB.png,,,,,,,,,,,,,,,,,,,,,m,1,0.9523,,,,,,,,0,78,78,15,1
,,,,,,,,,,,,,,,,,61122ef0e7330ccc3c759eb7,30,2022-02-12_12h49.01.813,lexical_decision_task_DD_L5,2021.2.3,MacIntel,60.0024001,,,,,,,,,,,1.0484,0,,,,,,,,,,,,,,,,,,,,,,,,0.042456055,-0.423779297,0,0,0,,,,,,,CLOTH,C,m,y,./images/CLOTH.png,,,,,,,,,,,,,,,,,,,,,z,0,1.0484,,,,,,,,0,79,79,23,1
,,,,,,,,,,,,,,,,,61122ef0e7330ccc3c759eb7,30,2022-02-12_12h49.01.813,lexical_decision_task_DD_L5,2021.2.3,MacIntel,60.0024001,,,,,,,,,,,2.2507,1,,,,,,,,,,,,,,,,,,,,,,,,0.042456055,-0.423779297,0,0,0,,,,,,,STAIN,HB,m,y,./images/STAINHB.png,,,,,,,,,,,,,,,,,,,,,m,1,2.2507,,,,,,,,0,80,80,6,1
,,,,,,,,,,,,,,,,,61122ef0e7330ccc3c759eb7,30,2022-02-12_12h49.01.813,lexical_decision_task_DD_L5,2021.2.3,MacIntel,60.0024001,,,,,,,,,,,0.8981,1,,,,,,,,,,,,,,,,,,,,,,,,0.042456055,-0.423779297,0,0,0,,,,,,,FARMER,C,z,y,./images/FARMER.png,,,,,,,,,,,,,,,,,,,,,z,1,0.8981,,,,,,,,0,81,81,149,1
,,,,,,,,,,,,,,,,,61122ef0e7330ccc3c759eb7,30,2022-02-12_12h49.01.813,lexical_decision_task_DD_L5,2021.2.3,MacIntel,60.0024001,,,,,,,,,,,0.9235,1,,,,,,,,,,,,,,,,,,,,,,,,0.042456055,-0.423779297,0,0,0,,,,,,,GRANNY,C,m,y,./images/GRANNY.png,,,,,,,,,,,,,,,,,,,,,m,1,0.9235,,,,,,,,0,82,82,20,1
,,,,,,,,,,,,,,,,,61122ef0e7330ccc3c759eb7,30,2022-02-12_12h49.01.813,lexical_decision_task_DD_L5,2021.2.3,MacIntel,60.0024001,,,,,,,,,,,0.9497,1,,,,,,,,,,,,,,,,,,,,,,,,0.042456055,-0.423779297,0,0,0,space,,,,,,FLASK,HB,m,y,./images/FLASKHB.png,4.0337,,,,,,,,,,,,,,,,,,,,m,1,0.9497,,,,,,,,0,83,83,72,1
,,,,,,,,,,,,,,,,,61122ef0e7330ccc3c759eb7,30,2022-02-12_12h49.01.813,lexical_decision_task_DD_L5,2021.2.3,MacIntel,60.0024001,,,,,,,,,,,1.1982,1,,,,,,,,,,,,,,,,,,,,,,,,0.042456055,-0.423779297,0,0,0,,,,,,,STATUE,HB,m,y,./images/STATUEHB.png,,,,,,,,,,,,,,,,,,,,,m,1,1.1982,,,,,,,,0,84,84,66,1
,,,,,,,,,,,,,,,,,61122ef0e7330ccc3c759eb7,30,2022-02-12_12h49.01.813,lexical_decision_task_DD_L5,2021.2.3,MacIntel,60.0024001,,,,,,,,,,,0.9651,0,,,,,,,,,,,,,,,,,,,,,,,,0.042456055,-0.423779297,0,0,0,,,,,,,POSTER,C,m,y,./images/POSTER.png,,,,,,,,,,,,,,,,,,,,,z,0,0.9651,,,,,,,,0,85,85,53,1
,,,,,,,,,,,,,,,,,61122ef0e7330ccc3c759eb7,30,2022-02-12_12h49.01.813,lexical_decision_task_DD_L5,2021.2.3,MacIntel,60.0024001,,,,,,,,,,,2.7905,1,,,,,,,,,,,,,,,,,,,,,,,,0.042456055,-0.423779297,0,0,0,,,,,,,NOOSE,HB,z,y,./images/NOOSEHB.png,,,,,,,,,,,,,,,,,,,,,z,1,2.7905,,,,,,,,0,86,86,156,1
,,,,,,,,,,,,,,,,,61122ef0e7330ccc3c759eb7,30,2022-02-12_12h49.01.813,lexical_decision_task_DD_L5,2021.2.3,MacIntel,60.0024001,,,,,,,,,,,0.8825,1,,,,,,,,,,,,,,,,,,,,,,,,0.042456055,-0.423779297,0,0,0,,,,,,,SAUNA,HB,m,y,./images/SAUNAHB.png,,,,,,,,,,,,,,,,,,,,,m,1,0.8825,,,,,,,,0,87,87,33,1
,,,,,,,,,,,,,,,,,61122ef0e7330ccc3c759eb7,30,2022-02-12_12h49.01.813,lexical_decision_task_DD_L5,2021.2.3,MacIntel,60.0024001,,,,,,,,,,,0.8872,1,,,,,,,,,,,,,,,,,,,,,,,,0.042456055,-0.423779297,0,0,0,,,,,,,FINGER,HB,z,y,./images/FINGERHB.png,,,,,,,,,,,,,,,,,,,,,z,1,0.8872,,,,,,,,0,88,88,87,1
,,,,,,,,,,,,,,,,,61122ef0e7330ccc3c759eb7,30,2022-02-12_12h49.01.813,lexical_decision_task_DD_L5,2021.2.3,MacIntel,60.0024001,,,,,,,,,,,0.8488,1,,,,,,,,,,,,,,,,,,,,,,,,0.042456055,-0.423779297,0,0,0,,,,,,,BEARD,C,z,y,./images/BEARD.png,,,,,,,,,,,,,,,,,,,,,z,1,0.8488,,,,,,,,0,89,89,86,1
,,,,,,,,,,,,,,,,,61122ef0e7330ccc3c759eb7,30,2022-02-12_12h49.01.813,lexical_decision_task_DD_L5,2021.2.3,MacIntel,60.0024001,,,,,,,,,,,0.9146,1,,,,,,,,,,,,,,,,,,,,,,,,0.042456055,-0.423779297,0,0,0,,,,,,,SPINE,C,m,y,./images/SPINE.png,,,,,,,,,,,,,,,,,,,,,m,1,0.9146,,,,,,,,0,90,90,65,1
,,,,,,,,,,,,,,,,,61122ef0e7330ccc3c759eb7,30,2022-02-12_12h49.01.813,lexical_decision_task_DD_L5,2021.2.3,MacIntel,60.0024001,,,,,,,,,,,0.8671,1,,,,,,,,,,,,,,,,,,,,,,,,0.042456055,-0.423779297,0,0,0,,,,,,,SKIING,C,z,y,./images/SKIING.png,,,,,,,,,,,,,,,,,,,,,z,1,0.8671,,,,,,,,0,91,91,101,1
,,,,,,,,,,,,,,,,,61122ef0e7330ccc3c759eb7,30,2022-02-12_12h49.01.813,lexical_decision_task_DD_L5,2021.2.3,MacIntel,60.0024001,,,,,,,,,,,1.0626,1,,,,,,,,,,,,,,,,,,,,,,,,0.042456055,-0.423779297,0,0,0,,,,,,,BLOKE,HB,m,y,./images/BLOKEHB.png,,,,,,,,,,,,,,,,,,,,,m,1,1.0626,,,,,,,,0,92,92,12,1
,,,,,,,,,,,,,,,,,61122ef0e7330ccc3c759eb7,30,2022-02-12_12h49.01.813,lexical_decision_task_DD_L5,2021.2.3,MacIntel,60.0024001,,,,,,,,,,,0.7843,1,,,,,,,,,,,,,,,,,,,,,,,,0.042456055,-0.423779297,0,0,0,,,,,,,SAILOR,LB,z,y,./images/SAILORLB.png,,,,,,,,,,,,,,,,,,,,,z,1,0.7843,,,,,,,,0,93,93,151,1
,,,,,,,,,,,,,,,,,61122ef0e7330ccc3c759eb7,30,2022-02-12_12h49.01.813,lexical_decision_task_DD_L5,2021.2.3,MacIntel,60.0024001,,,,,,,,,,,0.8053,0,,,,,,,,,,,,,,,,,,,,,,,,0.042456055,-0.423779297,0,0,0,,,,,,,VALLEY,C,m,y,./images/VALLEY.png,,,,,,,,,,,,,,,,,,,,,z,0,0.8053,,,,,,,,0,94,94,68,1
,,,,,,,,,,,,,,,,,61122ef0e7330ccc3c759eb7,30,2022-02-12_12h49.01.813,lexical_decision_task_DD_L5,2021.2.3,MacIntel,60.0024001,,,,,,,,,,,1.0801,1,,,,,,,,,,,,,,,,,,,,,,,,0.042456055,-0.423779297,0,0,0,,,,,,,FENCE,C,m,y,./images/FENCE.png,,,,,,,,,,,,,,,,,,,,,m,1,1.0801,,,,,,,,0,95,95,14,1
,,,,,,,,,,,,,,,,,61122ef0e7330ccc3c759eb7,30,2022-02-12_12h49.01.813,lexical_decision_task_DD_L5,2021.2.3,MacIntel,60.0024001,,,,,,,,,,,0.9358,1,,,,,,,,,,,,,,,,,,,,,,,,0.042456055,-0.423779297,0,0,0,,,,,,,BELLY,LB,z,y,./images/BELLYLB.png,,,,,,,,,,,,,,,,,,,,,z,1,0.9358,,,,,,,,0,96,96,94,1
,,,,,,,,,,,,,,,,,61122ef0e7330ccc3c759eb7,30,2022-02-12_12h49.01.813,lexical_decision_task_DD_L5,2021.2.3,MacIntel,60.0024001,,,,,,,,,,,0.7835,1,,,,,,,,,,,,,,,,,,,,,,,,0.042456055,-0.423779297,0,0,0,,,,,,,PLANK,LB,z,y,./images/PLANKLB.png,,,,,,,,,,,,,,,,,,,,,z,1,0.7835,,,,,,,,0,97,97,85,1
,,,,,,,,,,,,,,,,,61122ef0e7330ccc3c759eb7,30,2022-02-12_12h49.01.813,lexical_decision_task_DD_L5,2021.2.3,MacIntel,60.0024001,,,,,,,,,,,1.0081,1,,,,,,,,,,,,,,,,,,,,,,,,0.042456055,-0.423779297,0,0,0,,,,,,,WALRUS,C,z,y,./images/WALRUS.png,,,,,,,,,,,,,,,,,,,,,z,1,1.0081,,,,,,,,0,98,98,107,1
,,,,,,,,,,,,,,,,,61122ef0e7330ccc3c759eb7,30,2022-02-12_12h49.01.813,lexical_decision_task_DD_L5,2021.2.3,MacIntel,60.0024001,,,,,,,,,,,0.8562,1,,,,,,,,,,,,,,,,,,,,,,,,0.042456055,-0.423779297,0,0,0,,,,,,,HAMMER,HB,m,y,./images/HAMMERHB.png,,,,,,,,,,,,,,,,,,,,,m,1,0.8562,,,,,,,,0,99,99,75,1
,,,,,,,,,,,,,,,,,61122ef0e7330ccc3c759eb7,30,2022-02-12_12h49.01.813,lexical_decision_task_DD_L5,2021.2.3,MacIntel,60.0024001,,,,,,,,,,,0.8648,1,,,,,,,,,,,,,,,,,,,,,,,,0.042456055,-0.423779297,0,0,0,,,,,,,PICKLE,C,z,y,./images/PICKLE.png,,,,,,,,,,,,,,,,,,,,,z,1,0.8648,,,,,,,,0,100,100,98,1
,,,,,,,,,,,,,,,,,61122ef0e7330ccc3c759eb7,30,2022-02-12_12h49.01.813,lexical_decision_task_DD_L5,2021.2.3,MacIntel,60.0024001,,,,,,,,,,,0.8654,1,,,,,,,,,,,,,,,,,,,,,,,,0.042456055,-0.423779297,0,0,0,,,,,,,KIDNEY,HB,z,y,./images/KIDNEYHB.png,,,,,,,,,,,,,,,,,,,,,z,1,0.8654,,,,,,,,0,101,101,105,1
,,,,,,,,,,,,,,,,,61122ef0e7330ccc3c759eb7,30,2022-02-12_12h49.01.813,lexical_decision_task_DD_L5,2021.2.3,MacIntel,60.0024001,,,,,,,,,,,0.8394,1,,,,,,,,,,,,,,,,,,,,,,,,0.042456055,-0.423779297,0,0,0,,,,,,,CURRY,HB,m,y,./images/CURRYHB.png,,,,,,,,,,,,,,,,,,,,,m,1,0.8394,,,,,,,,0,102,102,60,1
,,,,,,,,,,,,,,,,,61122ef0e7330ccc3c759eb7,30,2022-02-12_12h49.01.813,lexical_decision_task_DD_L5,2021.2.3,MacIntel,60.0024001,,,,,,,,,,,2.0397,0,,,,,,,,,,,,,,,,,,,,,,,,0.042456055,-0.423779297,0,0,0,,,,,,,ARROW,HB,m,y,./images/ARROWHB.png,,,,,,,,,,,,,,,,,,,,,z,0,2.0397,,,,,,,,0,103,103,69,1
,,,,,,,,,,,,,,,,,61122ef0e7330ccc3c759eb7,30,2022-02-12_12h49.01.813,lexical_decision_task_DD_L5,2021.2.3,MacIntel,60.0024001,,,,,,,,,,,0.8337,1,,,,,,,,,,,,,,,,,,,,,,,,0.042456055,-0.423779297,0,0,0,,,,,,,MEDAL,C,m,y,./images/MEDAL.png,,,,,,,,,,,,,,,,,,,,,m,1,0.8337,,,,,,,,0,104,104,11,1
,,,,,,,,,,,,,,,,,61122ef0e7330ccc3c759eb7,30,2022-02-12_12h49.01.813,lexical_decision_task_DD_L5,2021.2.3,MacIntel,60.0024001,,,,,,,,,,,0.7969,1,,,,,,,,,,,,,,,,,,,,,,,,0.042456055,-0.423779297,0,0,0,,,,,,,RAZOR,LB,m,y,./images/RAZORLB.png,,,,,,,,,,,,,,,,,,,,,m,1,0.7969,,,,,,,,0,105,105,34,1
,,,,,,,,,,,,,,,,,61122ef0e7330ccc3c759eb7,30,2022-02-12_12h49.01.813,lexical_decision_task_DD_L5,2021.2.3,MacIntel,60.0024001,,,,,,,,,,,0.8555,1,,,,,,,,,,,,,,,,,,,,,,,,0.042456055,-0.423779297,0,0,0,,,,,,,JELLY,LB,z,y,./images/JELLYLB.png,,,,,,,,,,,,,,,,,,,,,z,1,0.8555,,,,,,,,0,106,106,148,1
,,,,,,,,,,,,,,,,,61122ef0e7330ccc3c759eb7,30,2022-02-12_12h49.01.813,lexical_decision_task_DD_L5,2021.2.3,MacIntel,60.0024001,,,,,,,,,,,0.8983,1,,,,,,,,,,,,,,,,,,,,,,,,0.042456055,-0.423779297,0,0,0,,,,,,,PENCE,LB,z,y,./images/PENCELB.png,,,,,,,,,,,,,,,,,,,,,z,1,0.8983,,,,,,,,0,107,107,100,1
,,,,,,,,,,,,,,,,,61122ef0e7330ccc3c759eb7,30,2022-02-12_12h49.01.813,lexical_decision_task_DD_L5,2021.2.3,MacIntel,60.0024001,,,,,,,,,,,1.2144,1,,,,,,,,,,,,,,,,,,,,,,,,0.042456055,-0.423779297,0,0,0,,,,,,,FALCON,LB,z,y,./images/FALCONLB.png,,,,,,,,,,,,,,,,,,,,,z,1,1.2144,,,,,,,,0,108,108,112,1
,,,,,,,,,,,,,,,,,61122ef0e7330ccc3c759eb7,30,2022-02-12_12h49.01.813,lexical_decision_task_DD_L5,2021.2.3,MacIntel,60.0024001,,,,,,,,,,,1.1145,0,,,,,,,,,,,,,,,,,,,,,,,,0.042456055,-0.423779297,0,0,0,,,,,,,STEAK,LB,m,y,./images/STEAKLB.png,,,,,,,,,,,,,,,,,,,,,z,0,1.1145,,,,,,,,0,109,109,31,1
,,,,,,,,,,,,,,,,,61122ef0e7330ccc3c759eb7,30,2022-02-12_12h49.01.813,lexical_decision_task_DD_L5,2021.2.3,MacIntel,60.0024001,,,,,,,,,,,1.0803,1,,,,,,,,,,,,,,,,,,,,,,,,0.042456055,-0.423779297,0,0,0,,,,,,,SWEAT,HB,z,y,./images/SWEATHB.png,,,,,,,,,,,,,,,,,,,,,z,1,1.0803,,,,,,,,0,110,110,150,1
,,,,,,,,,,,,,,,,,61122ef0e7330ccc3c759eb7,30,2022-02-12_12h49.01.813,lexical_decision_task_DD_L5,2021.2.3,MacIntel,60.0024001,,,,,,,,,,,0.9651,0,,,,,,,,,,,,,,,,,,,,,,,,0.042456055,-0.423779297,0,0,0,,,,,,,ARTIST,LB,m,y,./images/ARTISTLB.png,,,,,,,,,,,,,,,,,,,,,z,0,0.9651,,,,,,,,0,111,111,61,1
,,,,,,,,,,,,,,,,,61122ef0e7330ccc3c759eb7,30,2022-02-12_12h49.01.813,lexical_decision_task_DD_L5,2021.2.3,MacIntel,60.0024001,,,,,,,,,,,0.8649,1,,,,,,,,,,,,,,,,,,,,,,,,0.042456055,-0.423779297,0,0,0,,,,,,,BUNNY,LB,m,y,./images/BUNNYLB.png,,,,,,,,,,,,,,,,,,,,,m,1,0.8649,,,,,,,,0,112,112,13,1
,,,,,,,,,,,,,,,,,61122ef0e7330ccc3c759eb7,30,2022-02-12_12h49.01.813,lexical_decision_task_DD_L5,2021.2.3,MacIntel,60.0024001,,,,,,,,,,,0.8308,1,,,,,,,,,,,,,,,,,,,,,,,,0.042456055,-0.423779297,0,0,0,,,,,,,PURSE,C,z,y,./images/PURSE.png,,,,,,,,,,,,,,,,,,,,,z,1,0.8308,,,,,,,,0,113,113,146,1
,,,,,,,,,,,,,,,,,61122ef0e7330ccc3c759eb7,30,2022-02-12_12h49.01.813,lexical_decision_task_DD_L5,2021.2.3,MacIntel,60.0024001,,,,,,,,,,,0.8655,1,,,,,,,,,,,,,,,,,,,,,,,,0.042456055,-0.423779297,0,0,0,,,,,,,MUMMY,LB,m,y,./images/MUMMYLB.png,,,,,,,,,,,,,,,,,,,,,m,1,0.8655,,,,,,,,0,114,114,46,1
,,,,,,,,,,,,,,,,,61122ef0e7330ccc3c759eb7,30,2022-02-12_12h49.01.813,lexical_decision_task_DD_L5,2021.2.3,MacIntel,60.0024001,,,,,,,,,,,1.0752,0,,,,,,,,,,,,,,,,,,,,,,,,0.042456055,-0.423779297,0,0,0,,,,,,,PILOT,C,m,y,./images/PILOT.png,,,,,,,,,,,,,,,,,,,,,z,0,1.0752,,,,,,,,0,115,115,50,1
,,,,,,,,,,,,,,,,,61122ef0e7330ccc3c759eb7,30,2022-02-12_12h49.01.813,lexical_decision_task_DD_L5,2021.2.3,MacIntel,60.0024001,,,,,,,,,,,0.8899,1,,,,,,,,,,,,,,,,,,,,,,,,0.042456055,-0.423779297,0,0,0,,,,,,,RHINO,HB,z,y,./images/RHINOHB.png,,,,,,,,,,,,,,,,,,,,,z,1,0.8899,,,,,,,,0,116,116,93,1
,,,,,,,,,,,,,,,,,61122ef0e7330ccc3c759eb7,30,2022-02-12_12h49.01.813,lexical_decision_task_DD_L5,2021.2.3,MacIntel,60.0024001,,,,,,,,,,,0.8394,1,,,,,,,,,,,,,,,,,,,,,,,,0.042456055,-0.423779297,0,0,0,,,,,,,BOXER,LB,m,y,./images/BOXERLB.png,,,,,,,,,,,,,,,,,,,,,m,1,0.8394,,,,,,,,0,117,117,4,1
,,,,,,,,,,,,,,,,,61122ef0e7330ccc3c759eb7,30,2022-02-12_12h49.01.813,lexical_decision_task_DD_L5,2021.2.3,MacIntel,60.0024001,,,,,,,,,,,1.0013,1,,,,,,,,,,,,,,,,,,,,,,,,0.042456055,-0.423779297,0,0,0,,,,,,,CANDLE,LB,z,y,./images/CANDLELB.png,,,,,,,,,,,,,,,,,,,,,z,1,1.0013,,,,,,,,0,118,118,145,1
,,,,,,,,,,,,,,,,,61122ef0e7330ccc3c759eb7,30,2022-02-12_12h49.01.813,lexical_decision_task_DD_L5,2021.2.3,MacIntel,60.0024001,,,,,,,,,,,1.047,1,,,,,,,,,,,,,,,,,,,,,,,,0.042456055,-0.423779297,0,0,0,,,,,,,SMOKER,C,z,y,./images/SMOKER.png,,,,,,,,,,,,,,,,,,,,,z,1,1.047,,,,,,,,0,119,119,110,1
,,,,,,,,,,,,,,,,,61122ef0e7330ccc3c759eb7,30,2022-02-12_12h49.01.813,lexical_decision_task_DD_L5,2021.2.3,MacIntel,60.0024001,,,,,,,,,,,1.8244,0,,,,,,,,,,,,,,,,,,,,,,,,0.042456055,-0.423779297,0,0,0,,,,,,,BARREL,C,z,y,./images/BARREL.png,,,,,,,,,,,,,,,,,,,,,m,0,1.8244,,,,,,,,0,120,120,116,1
,,,,,,,,,,,,,,,,,61122ef0e7330ccc3c759eb7,30,2022-02-12_12h49.01.813,lexical_decision_task_DD_L5,2021.2.3,MacIntel,60.0024001,,,,,,,,,,,1.1487,1,,,,,,,,,,,,,,,,,,,,,,,,0.042456055,-0.423779297,0,0,0,,,,,,,SNAKE,LB,m,y,./images/SNAKELB.png,,,,,,,,,,,,,,,,,,,,,m,1,1.1487,,,,,,,,0,121,121,40,1
,,,,,,,,,,,,,,,,,61122ef0e7330ccc3c759eb7,30,2022-02-12_12h49.01.813,lexical_decision_task_DD_L5,2021.2.3,MacIntel,60.0024001,,,,,,,,,,,0.831,0,,,,,,,,,,,,,,,,,,,,,,,,0.042456055,-0.423779297,0,0,0,,,,,,,CRATER,HB,m,y,./images/CRATERHB.png,,,,,,,,,,,,,,,,,,,,,z,0,0.831,,,,,,,,0,122,122,3,1
,,,,,,,,,,,,,,,,,61122ef0e7330ccc3c759eb7,30,2022-02-12_12h49.01.813,lexical_decision_task_DD_L5,2021.2.3,MacIntel,60.0024001,,,,,,,,,,,1.4004,1,,,,,,,,,,,,,,,,,,,,,,,,0.042456055,-0.423779297,0,0,0,,,,,,,SCREW,HB,z,y,./images/SCREWHB.png,,,,,,,,,,,,,,,,,,,,,z,1,1.4004,,,,,,,,0,123,123,108,1
,,,,,,,,,,,,,,,,,61122ef0e7330ccc3c759eb7,30,2022-02-12_12h49.01.813,lexical_decision_task_DD_L5,2021.2.3,MacIntel,60.0024001,,,,,,,,,,,0.8835,0,,,,,,,,,,,,,,,,,,,,,,,,0.042456055,-0.423779297,0,0,0,,,,,,,HOCKEY,C,m,y,./images/HOCKEY.png,,,,,,,,,,,,,,,,,,,,,z,0,0.8835,,,,,,,,0,124,124,32,1
,,,,,,,,,,,,,,,,,61122ef0e7330ccc3c759eb7,30,2022-02-12_12h49.01.813,lexical_decision_task_DD_L5,2021.2.3,MacIntel,60.0024001,,,,,,,,,,,0.8653,0,,,,,,,,,,,,,,,,,,,,,,,,0.042456055,-0.423779297,0,0,0,space,,,,,,CLOUD,C,m,y,./images/CLOUD.png,3.4281,,,,,,,,,,,,,,,,,,,,z,0,0.8653,,,,,,,,0,125,125,26,1
,,,,,,,,,,,,,,,,,61122ef0e7330ccc3c759eb7,30,2022-02-12_12h49.01.813,lexical_decision_task_DD_L5,2021.2.3,MacIntel,60.0024001,,,,,,,,,,,0.9074,1,,,,,,,,,,,,,,,,,,,,,,,,0.042456055,-0.423779297,0,0,0,,,,,,,MOSQUE,LB,z,y,./images/MOSQUELB.png,,,,,,,,,,,,,,,,,,,,,z,1,0.9074,,,,,,,,0,126,126,127,1
,,,,,,,,,,,,,,,,,61122ef0e7330ccc3c759eb7,30,2022-02-12_12h49.01.813,lexical_decision_task_DD_L5,2021.2.3,MacIntel,60.0024001,,,,,,,,,,,0.735,1,,,,,,,,,,,,,,,,,,,,,,,,0.042456055,-0.423779297,0,0,0,,,,,,,TRIPOD,HB,z,y,./images/TRIPODHB.png,,,,,,,,,,,,,,,,,,,,,z,1,0.735,,,,,,,,0,127,127,138,1
,,,,,,,,,,,,,,,,,61122ef0e7330ccc3c759eb7,30,2022-02-12_12h49.01.813,lexical_decision_task_DD_L5,2021.2.3,MacIntel,60.0024001,,,,,,,,,,,0.897,1,,,,,,,,,,,,,,,,,,,,,,,,0.042456055,-0.423779297,0,0,0,,,,,,,POKER,LB,m,y,./images/POKERLB.png,,,,,,,,,,,,,,,,,,,,,m,1,0.897,,,,,,,,0,128,128,67,1
,,,,,,,,,,,,,,,,,61122ef0e7330ccc3c759eb7,30,2022-02-12_12h49.01.813,lexical_decision_task_DD_L5,2021.2.3,MacIntel,60.0024001,,,,,,,,,,,0.9162,1,,,,,,,,,,,,,,,,,,,,,,,,0.042456055,-0.423779297,0,0,0,,,,,,,TOMATO,HB,z,y,./images/TOMATOHB.png,,,,,,,,,,,,,,,,,,,,,z,1,0.9162,,,,,,,,0,129,129,84,1
,,,,,,,,,,,,,,,,,61122ef0e7330ccc3c759eb7,30,2022-02-12_12h49.01.813,lexical_decision_task_DD_L5,2021.2.3,MacIntel,60.0024001,,,,,,,,,,,0.7576,1,,,,,,,,,,,,,,,,,,,,,,,,0.042456055,-0.423779297,0,0,0,,,,,,,WRIST,LB,z,y,./images/WRISTLB.png,,,,,,,,,,,,,,,,,,,,,z,1,0.7576,,,,,,,,0,130,130,109,1
,,,,,,,,,,,,,,,,,61122ef0e7330ccc3c759eb7,30,2022-02-12_12h49.01.813,lexical_decision_task_DD_L5,2021.2.3,MacIntel,60.0024001,,,,,,,,,,,0.8743,1,,,,,,,,,,,,,,,,,,,,,,,,0.042456055,-0.423779297,0,0,0,,,,,,,MAMMAL,C,m,y,./images/MAMMAL.png,,,,,,,,,,,,,,,,,,,,,m,1,0.8743,,,,,,,,0,131,131,62,1
,,,,,,,,,,,,,,,,,61122ef0e7330ccc3c759eb7,30,2022-02-12_12h49.01.813,lexical_decision_task_DD_L5,2021.2.3,MacIntel,60.0024001,,,,,,,,,,,0.8309,1,,,,,,,,,,,,,,,,,,,,,,,,0.042456055,-0.423779297,0,0,0,,,,,,,MOTOR,LB,z,y,./images/MOTORLB.png,,,,,,,,,,,,,,,,,,,,,z,1,0.8309,,,,,,,,0,132,132,97,1
,,,,,,,,,,,,,,,,,61122ef0e7330ccc3c759eb7,30,2022-02-12_12h49.01.813,lexical_decision_task_DD_L5,2021.2.3,MacIntel,60.0024001,,,,,,,,,,,0.9484,1,,,,,,,,,,,,,,,,,,,,,,,,0.042456055,-0.423779297,0,0,0,,,,,,,MIDGET,LB,m,y,./images/MIDGETLB.png,,,,,,,,,,,,,,,,,,,,,m,1,0.9484,,,,,,,,0,133,133,76,1
,,,,,,,,,,,,,,,,,61122ef0e7330ccc3c759eb7,30,2022-02-12_12h49.01.813,lexical_decision_task_DD_L5,2021.2.3,MacIntel,60.0024001,,,,,,,,,,,0.8412,1,,,,,,,,,,,,,,,,,,,,,,,,0.042456055,-0.423779297,0,0,0,,,,,,,BANANA,LB,m,y,./images/BANANALB.png,,,,,,,,,,,,,,,,,,,,,m,1,0.8412,,,,,,,,0,134,134,70,1
,,,,,,,,,,,,,,,,,61122ef0e7330ccc3c759eb7,30,2022-02-12_12h49.01.813,lexical_decision_task_DD_L5,2021.2.3,MacIntel,60.0024001,,,,,,,,,,,1.0977,0,,,,,,,,,,,,,,,,,,,,,,,,0.042456055,-0.423779297,0,0,0,,,,,,,SLOPE,HB,m,y,./images/SLOPEHB.png,,,,,,,,,,,,,,,,,,,,,z,0,1.0977,,,,,,,,0,135,135,30,1
,,,,,,,,,,,,,,,,,61122ef0e7330ccc3c759eb7,30,2022-02-12_12h49.01.813,lexical_decision_task_DD_L5,2021.2.3,MacIntel,60.0024001,,,,,,,,,,,0.8821,1,,,,,,,,,,,,,,,,,,,,,,,,0.042456055,-0.423779297,0,0,0,,,,,,,CANOE,LB,m,y,./images/CANOELB.png,,,,,,,,,,,,,,,,,,,,,m,1,0.8821,,,,,,,,0,136,136,58,1
,,,,,,,,,,,,,,,,,61122ef0e7330ccc3c759eb7,30,2022-02-12_12h49.01.813,lexical_decision_task_DD_L5,2021.2.3,MacIntel,60.0024001,,,,,,,,,,,0.8522,1,,,,,,,,,,,,,,,,,,,,,,,,0.042456055,-0.423779297,0,0,0,,,,,,,WHISKY,C,m,y,./images/WHISKY.png,,,,,,,,,,,,,,,,,,,,,m,1,0.8522,,,,,,,,0,137,137,83,1
,,,,,,,,,,,,,,,,,61122ef0e7330ccc3c759eb7,30,2022-02-12_12h49.01.813,lexical_decision_task_DD_L5,2021.2.3,MacIntel,60.0024001,,,,,,,,,,,1.6185,1,,,,,,,,,,,,,,,,,,,,,,,,0.042456055,-0.423779297,0,0,0,,,,,,,CRADLE,C,z,y,./images/CRADLE.png,,,,,,,,,,,,,,,,,,,,,z,1,1.6185,,,,,,,,0,138,138,104,1
