key_resp.keys,key_resp.rt,instr_done_touch.x,instr_done_touch.y,instr_done_touch.leftButton,instr_done_touch.midButton,instr_done_touch.rightButton,instruction_pages.thisRepN,instruction_pages.thisTrialN,instruction_pages.thisN,instruction_pages.thisIndex,instruction_pages.ran,pageN,phase,instruct_text,has_image,instruct_image,participant,age,date,expName,psychopyVersion,OS,frameRate,response.keys,response.corr,response.rt,touch_resp.x,touch_resp.y,touch_resp.leftButton,touch_resp.midButton,touch_resp.rightButton,touch_resp.time,touch_resp.clicked_name,rt,corr,practrials.thisRepN,practrials.thisTrialN,practrials.thisN,practrials.thisIndex,practrials.ran,TrialID,Target,corrAns,end_of_practice_trials_pages.thisRepN,end_of_practice_trials_pages.thisTrialN,end_of_practice_trials_pages.thisN,end_of_practice_trials_pages.thisIndex,end_of_practice_trials_pages.ran,key_resp_2.keys,key_resp_2.corr,key_resp_2.rt,targ_click.x,targ_click.y,targ_click.leftButton,targ_click.midButton,targ_click.rightButton,targ_click.time,targ_click.clicked_name,break_done_touch.x,break_done_touch.y,break_done_touch.leftButton,break_done_touch.midButton,break_done_touch.rightButton,break_done_keyboard.keys,maintrials.thisRepN,maintrials.thisTrialN,maintrials.thisN,maintrials.thisIndex,maintrials.ran,string,blur,study,lex,stim_path,break_done_keyboard.rt,mouse_2.x,mouse_2.y,mouse_2.leftButton,mouse_2.midButton,mouse_2.rightButton,mouse_2.clicked_name,slider.response,slider.rt,trials.thisRepN,trials.thisTrialN,trials.thisN,trials.thisIndex,trials.ran,test_instructions.thisRepN,test_instructions.thisTrialN,test_instructions.thisN,test_instructions.thisIndex,test_instructions.ran,instr_done_touch.clicked_name,key_resp_3.keys,key_resp_3.corr,key_resp_3.rt,test_click.x,test_click.y,test_click.leftButton,test_click.midButton,test_click.rightButton,test_click.time,test_click.clicked_name,test_phase.thisRepN,test_phase.thisTrialN,test_phase.thisN,test_phase.thisIndex,test_phase.ran
space,28.2703,0.100000015,-0.198148159,0,0,0,0,0,0,0,1,1,instructions,"INSTRUCTIONS
At the start of each trial, look at the plus sign  (+) in the center of the screen.  This tells you that a trial is about to begin and where to look. Second, the plus sign will disappear and a string of letters will appear. Your task is to determine if the string of letters is a word or not. If the item is a word press the M key (on keyboard)  or touch the word button (phone/tablet).  If the item is not a word,  press the  Z key (on keyboard)  or touch the nonword button (on phone/tablet). 
Press the space bar or touch  continue.",0,,612409a1396c7029a198d1a5,21,2022-02-12_12h39.00.853,lexical_decision_task_DD_L5,2021.2.3,Win32,59.99160118,,,,,,,,,,,,,,,,,,,,,,,,,,,,,,,,,,,,,,,,,,,,,,,,,,,,,,,,,,,,,,,,,,,,,,,,,,,,,,,,,,,,,,
space,8.0258,0.100000015,-0.198148159,0,0,0,0,1,1,1,1,2,instructions,"If your device has a keyboard, press the 'Z' key for nonwords and the 'M' key for words.





Press the space bar or touch the button below to continue.",0,keyboard-example.gif,612409a1396c7029a198d1a5,21,2022-02-12_12h39.00.853,lexical_decision_task_DD_L5,2021.2.3,Win32,59.99160118,,,,,,,,,,,,,,,,,,,,,,,,,,,,,,,,,,,,,,,,,,,,,,,,,,,,,,,,,,,,,,,,,,,,,,,,,,,,,,,,,,,,,,
space,1.9167,0.100000015,-0.198148159,0,0,0,0,2,2,2,1,3,instructions,"If you are using a touchscreen only device, use the buttons on the screen. Do not use the mouse.





Press the space bar or touch the button below to continue.",0,touchscreen-example.gif,612409a1396c7029a198d1a5,21,2022-02-12_12h39.00.853,lexical_decision_task_DD_L5,2021.2.3,Win32,59.99160118,,,,,,,,,,,,,,,,,,,,,,,,,,,,,,,,,,,,,,,,,,,,,,,,,,,,,,,,,,,,,,,,,,,,,,,,,,,,,,,,,,,,,,
space,15.8479,0.100000015,-0.198148159,0,0,0,0,3,3,3,1,4,instructions,"It is very important that you respond as quickly and accurately as possible, as each letter string will only be on the screen for two seconds. If you do not respond within this time, the message 'Too slow!' will be displayed and the experiment will progress to the next letter string. The first 20 trials will be practice trials and you will receive feedback on your answers. 

Press the space bar or touch the button below to start the practice trials.",0,,612409a1396c7029a198d1a5,21,2022-02-12_12h39.00.853,lexical_decision_task_DD_L5,2021.2.3,Win32,59.99160118,,,,,,,,,,,,,,,,,,,,,,,,,,,,,,,,,,,,,,,,,,,,,,,,,,,,,,,,,,,,,,,,,,,,,,,,,,,,,,,,,,,,,,
,,,,,,,,,,,,,,,,,612409a1396c7029a198d1a5,21,2022-02-12_12h39.00.853,lexical_decision_task_DD_L5,2021.2.3,Win32,59.99160118,z,1,1.0307,,,,,,,,1.0307,1,0,0,0,9,1,1001,FARINY,z,,,,,,,,,,,,,,,,,,,,,,,,,,,,,,,,,,,,,,,,,,,,,,,,,,,,,,,,,,,,,,,,,,
,,,,,,,,,,,,,,,,,612409a1396c7029a198d1a5,21,2022-02-12_12h39.00.853,lexical_decision_task_DD_L5,2021.2.3,Win32,59.99160118,m,1,0.732,,,,,,,,0.732,1,0,1,1,1,1,1001,ADJUST,m,,,,,,,,,,,,,,,,,,,,,,,,,,,,,,,,,,,,,,,,,,,,,,,,,,,,,,,,,,,,,,,,,,
,,,,,,,,,,,,,,,,,612409a1396c7029a198d1a5,21,2022-02-12_12h39.00.853,lexical_decision_task_DD_L5,2021.2.3,Win32,59.99160118,m,1,0.6916,,,,,,,,0.6916,1,0,2,2,5,1,1001,OBTAIN,m,,,,,,,,,,,,,,,,,,,,,,,,,,,,,,,,,,,,,,,,,,,,,,,,,,,,,,,,,,,,,,,,,,
,,,,,,,,,,,,,,,,,612409a1396c7029a198d1a5,21,2022-02-12_12h39.00.853,lexical_decision_task_DD_L5,2021.2.3,Win32,59.99160118,z,1,0.6404,,,,,,,,0.6404,1,0,3,3,14,1,1001,THRALE,z,,,,,,,,,,,,,,,,,,,,,,,,,,,,,,,,,,,,,,,,,,,,,,,,,,,,,,,,,,,,,,,,,,
,,,,,,,,,,,,,,,,,612409a1396c7029a198d1a5,21,2022-02-12_12h39.00.853,lexical_decision_task_DD_L5,2021.2.3,Win32,59.99160118,m,1,0.7151,,,,,,,,0.7151,1,0,4,4,3,1,1001,MATRIX,m,,,,,,,,,,,,,,,,,,,,,,,,,,,,,,,,,,,,,,,,,,,,,,,,,,,,,,,,,,,,,,,,,,
,,,,,,,,,,,,,,,,,612409a1396c7029a198d1a5,21,2022-02-12_12h39.00.853,lexical_decision_task_DD_L5,2021.2.3,Win32,59.99160118,m,1,0.5281,,,,,,,,0.5281,1,0,5,5,6,1,1001,ZOMBIE,m,,,,,,,,,,,,,,,,,,,,,,,,,,,,,,,,,,,,,,,,,,,,,,,,,,,,,,,,,,,,,,,,,,
,,,,,,,,,,,,,,,,,612409a1396c7029a198d1a5,21,2022-02-12_12h39.00.853,lexical_decision_task_DD_L5,2021.2.3,Win32,59.99160118,m,1,0.5607,,,,,,,,0.5607,1,0,6,6,0,1,1001,UTOPIA,m,,,,,,,,,,,,,,,,,,,,,,,,,,,,,,,,,,,,,,,,,,,,,,,,,,,,,,,,,,,,,,,,,,
,,,,,,,,,,,,,,,,,612409a1396c7029a198d1a5,21,2022-02-12_12h39.00.853,lexical_decision_task_DD_L5,2021.2.3,Win32,59.99160118,z,1,0.6085,,,,,,,,0.6085,1,0,7,7,13,1,1001,ROUPET,z,,,,,,,,,,,,,,,,,,,,,,,,,,,,,,,,,,,,,,,,,,,,,,,,,,,,,,,,,,,,,,,,,,
,,,,,,,,,,,,,,,,,612409a1396c7029a198d1a5,21,2022-02-12_12h39.00.853,lexical_decision_task_DD_L5,2021.2.3,Win32,59.99160118,m,0,0.9894,,,,,,,,0.9894,0,0,8,8,12,1,1001,SPRINY,z,,,,,,,,,,,,,,,,,,,,,,,,,,,,,,,,,,,,,,,,,,,,,,,,,,,,,,,,,,,,,,,,,,
,,,,,,,,,,,,,,,,,612409a1396c7029a198d1a5,21,2022-02-12_12h39.00.853,lexical_decision_task_DD_L5,2021.2.3,Win32,59.99160118,z,1,0.7463,,,,,,,,0.7463,1,0,9,9,15,1,1001,WHAISE,z,,,,,,,,,,,,,,,,,,,,,,,,,,,,,,,,,,,,,,,,,,,,,,,,,,,,,,,,,,,,,,,,,,
,,,,,,,,,,,,,,,,,612409a1396c7029a198d1a5,21,2022-02-12_12h39.00.853,lexical_decision_task_DD_L5,2021.2.3,Win32,59.99160118,m,1,0.598,,,,,,,,0.598,1,0,10,10,7,1,1001,VOLUME,m,,,,,,,,,,,,,,,,,,,,,,,,,,,,,,,,,,,,,,,,,,,,,,,,,,,,,,,,,,,,,,,,,,
,,,,,,,,,,,,,,,,,612409a1396c7029a198d1a5,21,2022-02-12_12h39.00.853,lexical_decision_task_DD_L5,2021.2.3,Win32,59.99160118,z,1,0.6444,,,,,,,,0.6444,1,0,11,11,8,1,1001,ASLERT,z,,,,,,,,,,,,,,,,,,,,,,,,,,,,,,,,,,,,,,,,,,,,,,,,,,,,,,,,,,,,,,,,,,
,,,,,,,,,,,,,,,,,612409a1396c7029a198d1a5,21,2022-02-12_12h39.00.853,lexical_decision_task_DD_L5,2021.2.3,Win32,59.99160118,m,1,0.6203,,,,,,,,0.6203,1,0,12,12,4,1,1001,SQUEAK,m,,,,,,,,,,,,,,,,,,,,,,,,,,,,,,,,,,,,,,,,,,,,,,,,,,,,,,,,,,,,,,,,,,
,,,,,,,,,,,,,,,,,612409a1396c7029a198d1a5,21,2022-02-12_12h39.00.853,lexical_decision_task_DD_L5,2021.2.3,Win32,59.99160118,m,1,0.6913,,,,,,,,0.6913,1,0,13,13,2,1,1001,ALMOND,m,,,,,,,,,,,,,,,,,,,,,,,,,,,,,,,,,,,,,,,,,,,,,,,,,,,,,,,,,,,,,,,,,,
,,,,,,,,,,,,,,,,,612409a1396c7029a198d1a5,21,2022-02-12_12h39.00.853,lexical_decision_task_DD_L5,2021.2.3,Win32,59.99160118,m,0,0.8521,,,,,,,,0.8521,0,0,14,14,10,1,1001,INLADE,z,,,,,,,,,,,,,,,,,,,,,,,,,,,,,,,,,,,,,,,,,,,,,,,,,,,,,,,,,,,,,,,,,,
,,,,,,,,,,,,,,,,,612409a1396c7029a198d1a5,21,2022-02-12_12h39.00.853,lexical_decision_task_DD_L5,2021.2.3,Win32,59.99160118,z,1,0.5433,,,,,,,,0.5433,1,0,15,15,11,1,1001,RASHET,z,,,,,,,,,,,,,,,,,,,,,,,,,,,,,,,,,,,,,,,,,,,,,,,,,,,,,,,,,,,,,,,,,,
space,8.4082,0.100000015,-0.198148159,0,0,0,,,,,,1,end_of_practice,"You have completed the practice trials. During the experimental trials, you will not receive feedback. 
Before you begin, please ensure that you are in a comfortable and quiet location and will not be disturbed for about 15 minutes, as we cannot use your data if you do not complete all the trials. 
 When you are ready to start the experimental trials, please press space or touch the button below.",,,612409a1396c7029a198d1a5,21,2022-02-12_12h39.00.853,lexical_decision_task_DD_L5,2021.2.3,Win32,59.99160118,,,,,,,,,,,,,,,,,,,,,0,0,0,0,1,,,,,,,,,,,,,,,,,,,,,,,,,,,,,,,,,,,,,,,,,,,,,,,,,,,,,,,,,,,,,
,,,,,,,,,,,,,,,,,612409a1396c7029a198d1a5,21,2022-02-12_12h39.00.853,lexical_decision_task_DD_L5,2021.2.3,Win32,59.99160118,,,,,,,,,,,0.6438,1,,,,,,,,,,,,,,z,1,0.6438,,,,,,,,0.100000015,-0.198148159,0,0,0,,0,0,0,105,1,MOKER,C,old,z,./images/MOKER.png,,,,,,,,,,,,,,,,,,,,,,,,,,,,,,,,,,,
,,,,,,,,,,,,,,,,,612409a1396c7029a198d1a5,21,2022-02-12_12h39.00.853,lexical_decision_task_DD_L5,2021.2.3,Win32,59.99160118,,,,,,,,,,,0.7472,1,,,,,,,,,,,,,,m,1,0.7472,,,,,,,,0.100000015,-0.198148159,0,0,0,,0,1,1,23,1,CLOTH,C,old,m,./images/CLOTH.png,,,,,,,,,,,,,,,,,,,,,,,,,,,,,,,,,,,
,,,,,,,,,,,,,,,,,612409a1396c7029a198d1a5,21,2022-02-12_12h39.00.853,lexical_decision_task_DD_L5,2021.2.3,Win32,59.99160118,,,,,,,,,,,0.6182,1,,,,,,,,,,,,,,z,1,0.6182,,,,,,,,0.100000015,-0.198148159,0,0,0,,0,2,2,84,1,HAXES,C,old,z,./images/HAXES.png,,,,,,,,,,,,,,,,,,,,,,,,,,,,,,,,,,,
,,,,,,,,,,,,,,,,,612409a1396c7029a198d1a5,21,2022-02-12_12h39.00.853,lexical_decision_task_DD_L5,2021.2.3,Win32,59.99160118,,,,,,,,,,,0.7335,1,,,,,,,,,,,,,,m,1,0.7335,,,,,,,,0.100000015,-0.198148159,0,0,0,,0,3,3,4,1,BOXER,LB,old,m,./images/BOXERLB.png,,,,,,,,,,,,,,,,,,,,,,,,,,,,,,,,,,,
,,,,,,,,,,,,,,,,,612409a1396c7029a198d1a5,21,2022-02-12_12h39.00.853,lexical_decision_task_DD_L5,2021.2.3,Win32,59.99160118,,,,,,,,,,,0.6349,1,,,,,,,,,,,,,,m,1,0.6349,,,,,,,,0.100000015,-0.198148159,0,0,0,,0,4,4,59,1,BRUSH,C,old,m,./images/BRUSH.png,,,,,,,,,,,,,,,,,,,,,,,,,,,,,,,,,,,
,,,,,,,,,,,,,,,,,612409a1396c7029a198d1a5,21,2022-02-12_12h39.00.853,lexical_decision_task_DD_L5,2021.2.3,Win32,59.99160118,,,,,,,,,,,0.8235,1,,,,,,,,,,,,,,m,1,0.8235,,,,,,,,0.100000015,-0.198148159,0,0,0,,0,5,5,5,1,BAMBOO,C,old,m,./images/BAMBOO.png,,,,,,,,,,,,,,,,,,,,,,,,,,,,,,,,,,,
,,,,,,,,,,,,,,,,,612409a1396c7029a198d1a5,21,2022-02-12_12h39.00.853,lexical_decision_task_DD_L5,2021.2.3,Win32,59.99160118,,,,,,,,,,,0.544,1,,,,,,,,,,,,,,m,1,0.544,,,,,,,,0.100000015,-0.198148159,0,0,0,,0,6,6,1,1,TOWEL,LB,old,m,./images/TOWELLB.png,,,,,,,,,,,,,,,,,,,,,,,,,,,,,,,,,,,
,,,,,,,,,,,,,,,,,612409a1396c7029a198d1a5,21,2022-02-12_12h39.00.853,lexical_decision_task_DD_L5,2021.2.3,Win32,59.99160118,,,,,,,,,,,0.6049,1,,,,,,,,,,,,,,z,1,0.6049,,,,,,,,0.100000015,-0.198148159,0,0,0,,0,7,7,119,1,PAFER,LB,old,z,./images/PAFERLB.png,,,,,,,,,,,,,,,,,,,,,,,,,,,,,,,,,,,
,,,,,,,,,,,,,,,,,612409a1396c7029a198d1a5,21,2022-02-12_12h39.00.853,lexical_decision_task_DD_L5,2021.2.3,Win32,59.99160118,,,,,,,,,,,0.8794,1,,,,,,,,,,,,,,m,1,0.8794,,,,,,,,0.100000015,-0.198148159,0,0,0,,0,8,8,27,1,BUTTER,HB,old,m,./images/BUTTERHB.png,,,,,,,,,,,,,,,,,,,,,,,,,,,,,,,,,,,
,,,,,,,,,,,,,,,,,612409a1396c7029a198d1a5,21,2022-02-12_12h39.00.853,lexical_decision_task_DD_L5,2021.2.3,Win32,59.99160118,,,,,,,,,,,0.7871,1,,,,,,,,,,,,,,m,1,0.7871,,,,,,,,0.100000015,-0.198148159,0,0,0,,0,9,9,50,1,PILOT,C,old,m,./images/PILOT.png,,,,,,,,,,,,,,,,,,,,,,,,,,,,,,,,,,,
,,,,,,,,,,,,,,,,,612409a1396c7029a198d1a5,21,2022-02-12_12h39.00.853,lexical_decision_task_DD_L5,2021.2.3,Win32,59.99160118,,,,,,,,,,,0.5745,1,,,,,,,,,,,,,,m,1,0.5745,,,,,,,,0.100000015,-0.198148159,0,0,0,,0,10,10,40,1,SNAKE,LB,old,m,./images/SNAKELB.png,,,,,,,,,,,,,,,,,,,,,,,,,,,,,,,,,,,
,,,,,,,,,,,,,,,,,612409a1396c7029a198d1a5,21,2022-02-12_12h39.00.853,lexical_decision_task_DD_L5,2021.2.3,Win32,59.99160118,,,,,,,,,,,0.5353,1,,,,,,,,,,,,,,m,1,0.5353,,,,,,,,0.100000015,-0.198148159,0,0,0,,0,11,11,19,1,DONKEY,LB,old,m,./images/DONKEYLB.png,,,,,,,,,,,,,,,,,,,,,,,,,,,,,,,,,,,
,,,,,,,,,,,,,,,,,612409a1396c7029a198d1a5,21,2022-02-12_12h39.00.853,lexical_decision_task_DD_L5,2021.2.3,Win32,59.99160118,,,,,,,,,,,0.951,1,,,,,,,,,,,,,,z,1,0.951,,,,,,,,0.100000015,-0.198148159,0,0,0,,0,12,12,109,1,BURGE,HB,old,z,./images/BURGEHB.png,,,,,,,,,,,,,,,,,,,,,,,,,,,,,,,,,,,
,,,,,,,,,,,,,,,,,612409a1396c7029a198d1a5,21,2022-02-12_12h39.00.853,lexical_decision_task_DD_L5,2021.2.3,Win32,59.99160118,,,,,,,,,,,0.6219,1,,,,,,,,,,,,,,z,1,0.6219,,,,,,,,0.100000015,-0.198148159,0,0,0,,0,13,13,144,1,NAIRY,C,old,z,./images/NAIRY.png,,,,,,,,,,,,,,,,,,,,,,,,,,,,,,,,,,,
,,,,,,,,,,,,,,,,,612409a1396c7029a198d1a5,21,2022-02-12_12h39.00.853,lexical_decision_task_DD_L5,2021.2.3,Win32,59.99160118,,,,,,,,,,,0.7607,1,,,,,,,,,,,,,,m,1,0.7607,,,,,,,,0.100000015,-0.198148159,0,0,0,,0,14,14,74,1,JUMPER,C,old,m,./images/JUMPER.png,,,,,,,,,,,,,,,,,,,,,,,,,,,,,,,,,,,
,,,,,,,,,,,,,,,,,612409a1396c7029a198d1a5,21,2022-02-12_12h39.00.853,lexical_decision_task_DD_L5,2021.2.3,Win32,59.99160118,,,,,,,,,,,1.0546,1,,,,,,,,,,,,,,m,1,1.0546,,,,,,,,0.100000015,-0.198148159,0,0,0,,0,15,15,38,1,ENGINE,C,old,m,./images/ENGINE.png,,,,,,,,,,,,,,,,,,,,,,,,,,,,,,,,,,,
,,,,,,,,,,,,,,,,,612409a1396c7029a198d1a5,21,2022-02-12_12h39.00.853,lexical_decision_task_DD_L5,2021.2.3,Win32,59.99160118,,,,,,,,,,,0.9004,1,,,,,,,,,,,,,,z,1,0.9004,,,,,,,,0.100000015,-0.198148159,0,0,0,,0,16,16,149,1,VEASE,LB,old,z,./images/VEASELB.png,,,,,,,,,,,,,,,,,,,,,,,,,,,,,,,,,,,
,,,,,,,,,,,,,,,,,612409a1396c7029a198d1a5,21,2022-02-12_12h39.00.853,lexical_decision_task_DD_L5,2021.2.3,Win32,59.99160118,,,,,,,,,,,1.0171,1,,,,,,,,,,,,,,z,1,1.0171,,,,,,,,0.100000015,-0.198148159,0,0,0,,0,17,17,91,1,SHENS,HB,old,z,./images/SHENSHB.png,,,,,,,,,,,,,,,,,,,,,,,,,,,,,,,,,,,
,,,,,,,,,,,,,,,,,612409a1396c7029a198d1a5,21,2022-02-12_12h39.00.853,lexical_decision_task_DD_L5,2021.2.3,Win32,59.99160118,,,,,,,,,,,0.7862,1,,,,,,,,,,,,,,z,1,0.7862,,,,,,,,0.100000015,-0.198148159,0,0,0,,0,18,18,117,1,STEEG,C,old,z,./images/STEEG.png,,,,,,,,,,,,,,,,,,,,,,,,,,,,,,,,,,,
,,,,,,,,,,,,,,,,,612409a1396c7029a198d1a5,21,2022-02-12_12h39.00.853,lexical_decision_task_DD_L5,2021.2.3,Win32,59.99160118,,,,,,,,,,,1.0018,1,,,,,,,,,,,,,,z,1,1.0018,,,,,,,,0.100000015,-0.198148159,0,0,0,,0,19,19,160,1,VEETS,HB,old,z,./images/VEETSHB.png,,,,,,,,,,,,,,,,,,,,,,,,,,,,,,,,,,,
,,,,,,,,,,,,,,,,,612409a1396c7029a198d1a5,21,2022-02-12_12h39.00.853,lexical_decision_task_DD_L5,2021.2.3,Win32,59.99160118,,,,,,,,,,,0.7908,1,,,,,,,,,,,,,,m,1,0.7908,,,,,,,,0.100000015,-0.198148159,0,0,0,,0,20,20,68,1,VALLEY,C,old,m,./images/VALLEY.png,,,,,,,,,,,,,,,,,,,,,,,,,,,,,,,,,,,
,,,,,,,,,,,,,,,,,612409a1396c7029a198d1a5,21,2022-02-12_12h39.00.853,lexical_decision_task_DD_L5,2021.2.3,Win32,59.99160118,,,,,,,,,,,1.1867,1,,,,,,,,,,,,,,m,1,1.1867,,,,,,,,0.100000015,-0.198148159,0,0,0,,0,21,21,58,1,CANOE,LB,old,m,./images/CANOELB.png,,,,,,,,,,,,,,,,,,,,,,,,,,,,,,,,,,,
,,,,,,,,,,,,,,,,,612409a1396c7029a198d1a5,21,2022-02-12_12h39.00.853,lexical_decision_task_DD_L5,2021.2.3,Win32,59.99160118,,,,,,,,,,,0.9835,1,,,,,,,,,,,,,,m,1,0.9835,,,,,,,,0.100000015,-0.198148159,0,0,0,,0,22,22,45,1,MONKEY,HB,old,m,./images/MONKEYHB.png,,,,,,,,,,,,,,,,,,,,,,,,,,,,,,,,,,,
,,,,,,,,,,,,,,,,,612409a1396c7029a198d1a5,21,2022-02-12_12h39.00.853,lexical_decision_task_DD_L5,2021.2.3,Win32,59.99160118,,,,,,,,,,,0.7855,1,,,,,,,,,,,,,,m,1,0.7855,,,,,,,,0.100000015,-0.198148159,0,0,0,,0,23,23,75,1,HAMMER,HB,old,m,./images/HAMMERHB.png,,,,,,,,,,,,,,,,,,,,,,,,,,,,,,,,,,,
,,,,,,,,,,,,,,,,,612409a1396c7029a198d1a5,21,2022-02-12_12h39.00.853,lexical_decision_task_DD_L5,2021.2.3,Win32,59.99160118,,,,,,,,,,,0.9464,1,,,,,,,,,,,,,,z,1,0.9464,,,,,,,,0.100000015,-0.198148159,0,0,0,,0,24,24,86,1,AIFED,LB,old,z,./images/AIFEDLB.png,,,,,,,,,,,,,,,,,,,,,,,,,,,,,,,,,,,
,,,,,,,,,,,,,,,,,612409a1396c7029a198d1a5,21,2022-02-12_12h39.00.853,lexical_decision_task_DD_L5,2021.2.3,Win32,59.99160118,,,,,,,,,,,1.9347,1,,,,,,,,,,,,,,z,1,1.9347,,,,,,,,0.100000015,-0.198148159,0,0,0,,0,25,25,133,1,POWDY,HB,old,z,./images/POWDYHB.png,,,,,,,,,,,,,,,,,,,,,,,,,,,,,,,,,,,
,,,,,,,,,,,,,,,,,612409a1396c7029a198d1a5,21,2022-02-12_12h39.00.853,lexical_decision_task_DD_L5,2021.2.3,Win32,59.99160118,,,,,,,,,,,0.7388,1,,,,,,,,,,,,,,z,1,0.7388,,,,,,,,0.100000015,-0.198148159,0,0,0,,0,26,26,96,1,KEAMS,C,old,z,./images/KEAMS.png,,,,,,,,,,,,,,,,,,,,,,,,,,,,,,,,,,,
,,,,,,,,,,,,,,,,,612409a1396c7029a198d1a5,21,2022-02-12_12h39.00.853,lexical_decision_task_DD_L5,2021.2.3,Win32,59.99160118,,,,,,,,,,,1.103,1,,,,,,,,,,,,,,m,1,1.103,,,,,,,,0.100000015,-0.198148159,0,0,0,,0,27,27,43,1,STOOL,LB,old,m,./images/STOOLLB.png,,,,,,,,,,,,,,,,,,,,,,,,,,,,,,,,,,,
,,,,,,,,,,,,,,,,,612409a1396c7029a198d1a5,21,2022-02-12_12h39.00.853,lexical_decision_task_DD_L5,2021.2.3,Win32,59.99160118,,,,,,,,,,,0.9955,1,,,,,,,,,,,,,,m,1,0.9955,,,,,,,,0.100000015,-0.198148159,0,0,0,,0,28,28,76,1,MIDGET,LB,old,m,./images/MIDGETLB.png,,,,,,,,,,,,,,,,,,,,,,,,,,,,,,,,,,,
,,,,,,,,,,,,,,,,,612409a1396c7029a198d1a5,21,2022-02-12_12h39.00.853,lexical_decision_task_DD_L5,2021.2.3,Win32,59.99160118,,,,,,,,,,,0.7004,1,,,,,,,,,,,,,,z,1,0.7004,,,,,,,,0.100000015,-0.198148159,0,0,0,,0,29,29,138,1,PLICE,C,old,z,./images/PLICE.png,,,,,,,,,,,,,,,,,,,,,,,,,,,,,,,,,,,
,,,,,,,,,,,,,,,,,612409a1396c7029a198d1a5,21,2022-02-12_12h39.00.853,lexical_decision_task_DD_L5,2021.2.3,Win32,59.99160118,,,,,,,,,,,1.3458,1,,,,,,,,,,,,,,z,1,1.3458,,,,,,,,0.100000015,-0.198148159,0,0,0,,0,30,30,159,1,CUDDY,C,old,z,./images/CUDDY.png,,,,,,,,,,,,,,,,,,,,,,,,,,,,,,,,,,,
,,,,,,,,,,,,,,,,,612409a1396c7029a198d1a5,21,2022-02-12_12h39.00.853,lexical_decision_task_DD_L5,2021.2.3,Win32,59.99160118,,,,,,,,,,,1.6672,0,,,,,,,,,,,,,,m,0,1.6672,,,,,,,,0.100000015,-0.198148159,0,0,0,,0,31,31,166,1,SHORY,HB,old,z,./images/SHORYHB.png,,,,,,,,,,,,,,,,,,,,,,,,,,,,,,,,,,,
,,,,,,,,,,,,,,,,,612409a1396c7029a198d1a5,21,2022-02-12_12h39.00.853,lexical_decision_task_DD_L5,2021.2.3,Win32,59.99160118,,,,,,,,,,,1.2239,0,,,,,,,,,,,,,,m,0,1.2239,,,,,,,,0.100000015,-0.198148159,0,0,0,,0,32,32,85,1,CHULK,HB,old,z,./images/CHULKHB.png,,,,,,,,,,,,,,,,,,,,,,,,,,,,,,,,,,,
,,,,,,,,,,,,,,,,,612409a1396c7029a198d1a5,21,2022-02-12_12h39.00.853,lexical_decision_task_DD_L5,2021.2.3,Win32,59.99160118,,,,,,,,,,,1.5164,1,,,,,,,,,,,,,,z,1,1.5164,,,,,,,,0.100000015,-0.198148159,0,0,0,,0,33,33,100,1,DRIBS,HB,old,z,./images/DRIBSHB.png,,,,,,,,,,,,,,,,,,,,,,,,,,,,,,,,,,,
,,,,,,,,,,,,,,,,,612409a1396c7029a198d1a5,21,2022-02-12_12h39.00.853,lexical_decision_task_DD_L5,2021.2.3,Win32,59.99160118,,,,,,,,,,,0.917,1,,,,,,,,,,,,,,m,1,0.917,,,,,,,,0.100000015,-0.198148159,0,0,0,,0,34,34,12,1,BLOKE,HB,old,m,./images/BLOKEHB.png,,,,,,,,,,,,,,,,,,,,,,,,,,,,,,,,,,,
,,,,,,,,,,,,,,,,,612409a1396c7029a198d1a5,21,2022-02-12_12h39.00.853,lexical_decision_task_DD_L5,2021.2.3,Win32,59.99160118,,,,,,,,,,,0.6955,1,,,,,,,,,,,,,,m,1,0.6955,,,,,,,,0.100000015,-0.198148159,0,0,0,,0,35,35,69,1,ARROW,HB,old,m,./images/ARROWHB.png,,,,,,,,,,,,,,,,,,,,,,,,,,,,,,,,,,,
,,,,,,,,,,,,,,,,,612409a1396c7029a198d1a5,21,2022-02-12_12h39.00.853,lexical_decision_task_DD_L5,2021.2.3,Win32,59.99160118,,,,,,,,,,,0.6021,1,,,,,,,,,,,,,,m,1,0.6021,,,,,,,,0.100000015,-0.198148159,0,0,0,,0,36,36,22,1,CLOWN,LB,old,m,./images/CLOWNLB.png,,,,,,,,,,,,,,,,,,,,,,,,,,,,,,,,,,,
,,,,,,,,,,,,,,,,,612409a1396c7029a198d1a5,21,2022-02-12_12h39.00.853,lexical_decision_task_DD_L5,2021.2.3,Win32,59.99160118,,,,,,,,,,,1.4948,1,,,,,,,,,,,,,,z,1,1.4948,,,,,,,,0.100000015,-0.198148159,0,0,0,,0,37,37,87,1,TRING,C,old,z,./images/TRING.png,,,,,,,,,,,,,,,,,,,,,,,,,,,,,,,,,,,
,,,,,,,,,,,,,,,,,612409a1396c7029a198d1a5,21,2022-02-12_12h39.00.853,lexical_decision_task_DD_L5,2021.2.3,Win32,59.99160118,,,,,,,,,,,0.7277,1,,,,,,,,,,,,,,m,1,0.7277,,,,,,,,0.100000015,-0.198148159,0,0,0,,0,38,38,83,1,WHISKY,C,old,m,./images/WHISKY.png,,,,,,,,,,,,,,,,,,,,,,,,,,,,,,,,,,,
,,,,,,,,,,,,,,,,,612409a1396c7029a198d1a5,21,2022-02-12_12h39.00.853,lexical_decision_task_DD_L5,2021.2.3,Win32,59.99160118,,,,,,,,,,,0.9611,0,,,,,,,,,,,,,,z,0,0.9611,,,,,,,,0.100000015,-0.198148159,0,0,0,,0,39,39,21,1,DANCER,HB,old,m,./images/DANCERHB.png,,,,,,,,,,,,,,,,,,,,,,,,,,,,,,,,,,,
,,,,,,,,,,,,,,,,,612409a1396c7029a198d1a5,21,2022-02-12_12h39.00.853,lexical_decision_task_DD_L5,2021.2.3,Win32,59.99160118,,,,,,,,,,,1.0516,1,,,,,,,,,,,,,,z,1,1.0516,,,,,,,,0.100000015,-0.198148159,0,0,0,,0,40,40,89,1,DRIEK,LB,old,z,./images/DRIEKLB.png,,,,,,,,,,,,,,,,,,,,,,,,,,,,,,,,,,,
,,,,,,,,,,,,,,,,,612409a1396c7029a198d1a5,21,2022-02-12_12h39.00.853,lexical_decision_task_DD_L5,2021.2.3,Win32,59.99160118,,,,,,,,,,,0.7419,1,,,,,,,,,,,,,,m,1,0.7419,,,,,,,,0.100000015,-0.198148159,0,0,0,space,0,41,41,13,1,BUNNY,LB,old,m,./images/BUNNYLB.png,59.4859,,,,,,,,,,,,,,,,,,,,,,,,,,,,,,,,,,
,,,,,,,,,,,,,,,,,612409a1396c7029a198d1a5,21,2022-02-12_12h39.00.853,lexical_decision_task_DD_L5,2021.2.3,Win32,59.99160118,,,,,,,,,,,1.2719,1,,,,,,,,,,,,,,z,1,1.2719,,,,,,,,0.100000015,-0.198148159,0,0,0,,0,42,42,97,1,CHIDS,HB,old,z,./images/CHIDSHB.png,,,,,,,,,,,,,,,,,,,,,,,,,,,,,,,,,,,
,,,,,,,,,,,,,,,,,612409a1396c7029a198d1a5,21,2022-02-12_12h39.00.853,lexical_decision_task_DD_L5,2021.2.3,Win32,59.99160118,,,,,,,,,,,1.1702,1,,,,,,,,,,,,,,m,1,1.1702,,,,,,,,0.100000015,-0.198148159,0,0,0,,0,43,43,52,1,DESERT,LB,old,m,./images/DESERTLB.png,,,,,,,,,,,,,,,,,,,,,,,,,,,,,,,,,,,
,,,,,,,,,,,,,,,,,612409a1396c7029a198d1a5,21,2022-02-12_12h39.00.853,lexical_decision_task_DD_L5,2021.2.3,Win32,59.99160118,,,,,,,,,,,0.8622,1,,,,,,,,,,,,,,z,1,0.8622,,,,,,,,0.100000015,-0.198148159,0,0,0,,0,44,44,98,1,BAMPS,LB,old,z,./images/BAMPSLB.png,,,,,,,,,,,,,,,,,,,,,,,,,,,,,,,,,,,
,,,,,,,,,,,,,,,,,612409a1396c7029a198d1a5,21,2022-02-12_12h39.00.853,lexical_decision_task_DD_L5,2021.2.3,Win32,59.99160118,,,,,,,,,,,1.1247,1,,,,,,,,,,,,,,z,1,1.1247,,,,,,,,0.100000015,-0.198148159,0,0,0,,0,45,45,118,1,BAVEL,HB,old,z,./images/BAVELHB.png,,,,,,,,,,,,,,,,,,,,,,,,,,,,,,,,,,,
,,,,,,,,,,,,,,,,,612409a1396c7029a198d1a5,21,2022-02-12_12h39.00.853,lexical_decision_task_DD_L5,2021.2.3,Win32,59.99160118,,,,,,,,,,,0.9506,1,,,,,,,,,,,,,,z,1,0.9506,,,,,,,,0.100000015,-0.198148159,0,0,0,,0,46,46,99,1,BACKY,C,old,z,./images/BACKY.png,,,,,,,,,,,,,,,,,,,,,,,,,,,,,,,,,,,
,,,,,,,,,,,,,,,,,612409a1396c7029a198d1a5,21,2022-02-12_12h39.00.853,lexical_decision_task_DD_L5,2021.2.3,Win32,59.99160118,,,,,,,,,,,1.2442,1,,,,,,,,,,,,,,m,1,1.2442,,,,,,,,0.100000015,-0.198148159,0,0,0,,0,47,47,37,1,TIGER,LB,old,m,./images/TIGERLB.png,,,,,,,,,,,,,,,,,,,,,,,,,,,,,,,,,,,
,,,,,,,,,,,,,,,,,612409a1396c7029a198d1a5,21,2022-02-12_12h39.00.853,lexical_decision_task_DD_L5,2021.2.3,Win32,59.99160118,,,,,,,,,,,0.6684,1,,,,,,,,,,,,,,z,1,0.6684,,,,,,,,0.100000015,-0.198148159,0,0,0,,0,48,48,102,1,DULLE,C,old,z,./images/DULLE.png,,,,,,,,,,,,,,,,,,,,,,,,,,,,,,,,,,,
,,,,,,,,,,,,,,,,,612409a1396c7029a198d1a5,21,2022-02-12_12h39.00.853,lexical_decision_task_DD_L5,2021.2.3,Win32,59.99160118,,,,,,,,,,,0.7942,1,,,,,,,,,,,,,,z,1,0.7942,,,,,,,,0.100000015,-0.198148159,0,0,0,,0,49,49,125,1,MOOKY,LB,old,z,./images/MOOKYLB.png,,,,,,,,,,,,,,,,,,,,,,,,,,,,,,,,,,,
,,,,,,,,,,,,,,,,,612409a1396c7029a198d1a5,21,2022-02-12_12h39.00.853,lexical_decision_task_DD_L5,2021.2.3,Win32,59.99160118,,,,,,,,,,,0.8,1,,,,,,,,,,,,,,z,1,0.8,,,,,,,,0.100000015,-0.198148159,0,0,0,,0,50,50,93,1,SMONE,C,old,z,./images/SMONE.png,,,,,,,,,,,,,,,,,,,,,,,,,,,,,,,,,,,
,,,,,,,,,,,,,,,,,612409a1396c7029a198d1a5,21,2022-02-12_12h39.00.853,lexical_decision_task_DD_L5,2021.2.3,Win32,59.99160118,,,,,,,,,,,0.6428,1,,,,,,,,,,,,,,m,1,0.6428,,,,,,,,0.100000015,-0.198148159,0,0,0,,0,51,51,46,1,MUMMY,LB,old,m,./images/MUMMYLB.png,,,,,,,,,,,,,,,,,,,,,,,,,,,,,,,,,,,
,,,,,,,,,,,,,,,,,612409a1396c7029a198d1a5,21,2022-02-12_12h39.00.853,lexical_decision_task_DD_L5,2021.2.3,Win32,59.99160118,,,,,,,,,,,0.5569,1,,,,,,,,,,,,,,m,1,0.5569,,,,,,,,0.100000015,-0.198148159,0,0,0,,0,52,52,67,1,POKER,LB,old,m,./images/POKERLB.png,,,,,,,,,,,,,,,,,,,,,,,,,,,,,,,,,,,
,,,,,,,,,,,,,,,,,612409a1396c7029a198d1a5,21,2022-02-12_12h39.00.853,lexical_decision_task_DD_L5,2021.2.3,Win32,59.99160118,,,,,,,,,,,0.6258,1,,,,,,,,,,,,,,m,1,0.6258,,,,,,,,0.100000015,-0.198148159,0,0,0,,0,53,53,62,1,MAMMAL,C,old,m,./images/MAMMAL.png,,,,,,,,,,,,,,,,,,,,,,,,,,,,,,,,,,,
,,,,,,,,,,,,,,,,,612409a1396c7029a198d1a5,21,2022-02-12_12h39.00.853,lexical_decision_task_DD_L5,2021.2.3,Win32,59.99160118,,,,,,,,,,,0.9077,1,,,,,,,,,,,,,,z,1,0.9077,,,,,,,,0.100000015,-0.198148159,0,0,0,,0,54,54,163,1,GAMBA,HB,old,z,./images/GAMBAHB.png,,,,,,,,,,,,,,,,,,,,,,,,,,,,,,,,,,,
,,,,,,,,,,,,,,,,,612409a1396c7029a198d1a5,21,2022-02-12_12h39.00.853,lexical_decision_task_DD_L5,2021.2.3,Win32,59.99160118,,,,,,,,,,,1.008,1,,,,,,,,,,,,,,m,1,1.008,,,,,,,,0.100000015,-0.198148159,0,0,0,,0,55,55,7,1,WAGON,LB,old,m,./images/WAGONLB.png,,,,,,,,,,,,,,,,,,,,,,,,,,,,,,,,,,,
,,,,,,,,,,,,,,,,,612409a1396c7029a198d1a5,21,2022-02-12_12h39.00.853,lexical_decision_task_DD_L5,2021.2.3,Win32,59.99160118,,,,,,,,,,,0.68,1,,,,,,,,,,,,,,m,1,0.68,,,,,,,,0.100000015,-0.198148159,0,0,0,,0,56,56,49,1,BISHOP,LB,old,m,./images/BISHOPLB.png,,,,,,,,,,,,,,,,,,,,,,,,,,,,,,,,,,,
,,,,,,,,,,,,,,,,,612409a1396c7029a198d1a5,21,2022-02-12_12h39.00.853,lexical_decision_task_DD_L5,2021.2.3,Win32,59.99160118,,,,,,,,,,,0.9691,0,,,,,,,,,,,,,,m,0,0.9691,,,,,,,,0.100000015,-0.198148159,0,0,0,,0,57,57,156,1,HIXES,C,old,z,./images/HIXES.png,,,,,,,,,,,,,,,,,,,,,,,,,,,,,,,,,,,
,,,,,,,,,,,,,,,,,612409a1396c7029a198d1a5,21,2022-02-12_12h39.00.853,lexical_decision_task_DD_L5,2021.2.3,Win32,59.99160118,,,,,,,,,,,0.5358,1,,,,,,,,,,,,,,m,1,0.5358,,,,,,,,0.100000015,-0.198148159,0,0,0,,0,58,58,41,1,STREAM,C,old,m,./images/STREAM.png,,,,,,,,,,,,,,,,,,,,,,,,,,,,,,,,,,,
,,,,,,,,,,,,,,,,,612409a1396c7029a198d1a5,21,2022-02-12_12h39.00.853,lexical_decision_task_DD_L5,2021.2.3,Win32,59.99160118,,,,,,,,,,,0.7444,1,,,,,,,,,,,,,,m,1,0.7444,,,,,,,,0.100000015,-0.198148159,0,0,0,,0,59,59,31,1,STEAK,LB,old,m,./images/STEAKLB.png,,,,,,,,,,,,,,,,,,,,,,,,,,,,,,,,,,,
,,,,,,,,,,,,,,,,,612409a1396c7029a198d1a5,21,2022-02-12_12h39.00.853,lexical_decision_task_DD_L5,2021.2.3,Win32,59.99160118,,,,,,,,,,,0.4467,1,,,,,,,,,,,,,,m,1,0.4467,,,,,,,,0.100000015,-0.198148159,0,0,0,,0,60,60,26,1,CLOUD,C,old,m,./images/CLOUD.png,,,,,,,,,,,,,,,,,,,,,,,,,,,,,,,,,,,
,,,,,,,,,,,,,,,,,612409a1396c7029a198d1a5,21,2022-02-12_12h39.00.853,lexical_decision_task_DD_L5,2021.2.3,Win32,59.99160118,,,,,,,,,,,0.957,1,,,,,,,,,,,,,,m,1,0.957,,,,,,,,0.100000015,-0.198148159,0,0,0,,0,61,61,55,1,ALLEY,LB,old,m,./images/ALLEYLB.png,,,,,,,,,,,,,,,,,,,,,,,,,,,,,,,,,,,
,,,,,,,,,,,,,,,,,612409a1396c7029a198d1a5,21,2022-02-12_12h39.00.853,lexical_decision_task_DD_L5,2021.2.3,Win32,59.99160118,,,,,,,,,,,0.9213,1,,,,,,,,,,,,,,z,1,0.9213,,,,,,,,0.100000015,-0.198148159,0,0,0,,0,62,62,101,1,GLEET,LB,old,z,./images/GLEETLB.png,,,,,,,,,,,,,,,,,,,,,,,,,,,,,,,,,,,
,,,,,,,,,,,,,,,,,612409a1396c7029a198d1a5,21,2022-02-12_12h39.00.853,lexical_decision_task_DD_L5,2021.2.3,Win32,59.99160118,,,,,,,,,,,0.9431,1,,,,,,,,,,,,,,m,1,0.9431,,,,,,,,0.100000015,-0.198148159,0,0,0,,0,63,63,30,1,SLOPE,HB,old,m,./images/SLOPEHB.png,,,,,,,,,,,,,,,,,,,,,,,,,,,,,,,,,,,
,,,,,,,,,,,,,,,,,612409a1396c7029a198d1a5,21,2022-02-12_12h39.00.853,lexical_decision_task_DD_L5,2021.2.3,Win32,59.99160118,,,,,,,,,,,0.6556,1,,,,,,,,,,,,,,z,1,0.6556,,,,,,,,0.100000015,-0.198148159,0,0,0,,0,64,64,120,1,RINED,C,old,z,./images/RINED.png,,,,,,,,,,,,,,,,,,,,,,,,,,,,,,,,,,,
,,,,,,,,,,,,,,,,,612409a1396c7029a198d1a5,21,2022-02-12_12h39.00.853,lexical_decision_task_DD_L5,2021.2.3,Win32,59.99160118,,,,,,,,,,,0.8907,0,,,,,,,,,,,,,,z,0,0.8907,,,,,,,,0.100000015,-0.198148159,0,0,0,,0,65,65,57,1,FERRY,HB,old,m,./images/FERRYHB.png,,,,,,,,,,,,,,,,,,,,,,,,,,,,,,,,,,,
,,,,,,,,,,,,,,,,,612409a1396c7029a198d1a5,21,2022-02-12_12h39.00.853,lexical_decision_task_DD_L5,2021.2.3,Win32,59.99160118,,,,,,,,,,,0.7602,1,,,,,,,,,,,,,,z,1,0.7602,,,,,,,,0.100000015,-0.198148159,0,0,0,,0,66,66,155,1,CANGY,LB,old,z,./images/CANGYLB.png,,,,,,,,,,,,,,,,,,,,,,,,,,,,,,,,,,,
,,,,,,,,,,,,,,,,,612409a1396c7029a198d1a5,21,2022-02-12_12h39.00.853,lexical_decision_task_DD_L5,2021.2.3,Win32,59.99160118,,,,,,,,,,,0.7888,1,,,,,,,,,,,,,,m,1,0.7888,,,,,,,,0.100000015,-0.198148159,0,0,0,,0,67,67,0,1,WALNUT,HB,old,m,./images/WALNUTHB.png,,,,,,,,,,,,,,,,,,,,,,,,,,,,,,,,,,,
,,,,,,,,,,,,,,,,,612409a1396c7029a198d1a5,21,2022-02-12_12h39.00.853,lexical_decision_task_DD_L5,2021.2.3,Win32,59.99160118,,,,,,,,,,,0.5463,1,,,,,,,,,,,,,,m,1,0.5463,,,,,,,,0.100000015,-0.198148159,0,0,0,,0,68,68,2,1,STOVE,C,old,m,./images/STOVE.png,,,,,,,,,,,,,,,,,,,,,,,,,,,,,,,,,,,
,,,,,,,,,,,,,,,,,612409a1396c7029a198d1a5,21,2022-02-12_12h39.00.853,lexical_decision_task_DD_L5,2021.2.3,Win32,59.99160118,,,,,,,,,,,1.5673,1,,,,,,,,,,,,,,z,1,1.5673,,,,,,,,0.100000015,-0.198148159,0,0,0,,0,69,69,152,1,FRAIN,LB,old,z,./images/FRAINLB.png,,,,,,,,,,,,,,,,,,,,,,,,,,,,,,,,,,,
,,,,,,,,,,,,,,,,,612409a1396c7029a198d1a5,21,2022-02-12_12h39.00.853,lexical_decision_task_DD_L5,2021.2.3,Win32,59.99160118,,,,,,,,,,,0.9215,1,,,,,,,,,,,,,,m,1,0.9215,,,,,,,,0.100000015,-0.198148159,0,0,0,,0,70,70,60,1,CURRY,HB,old,m,./images/CURRYHB.png,,,,,,,,,,,,,,,,,,,,,,,,,,,,,,,,,,,
,,,,,,,,,,,,,,,,,612409a1396c7029a198d1a5,21,2022-02-12_12h39.00.853,lexical_decision_task_DD_L5,2021.2.3,Win32,59.99160118,,,,,,,,,,,1.1159,1,,,,,,,,,,,,,,z,1,1.1159,,,,,,,,0.100000015,-0.198148159,0,0,0,,0,71,71,142,1,PLASK,HB,old,z,./images/PLASKHB.png,,,,,,,,,,,,,,,,,,,,,,,,,,,,,,,,,,,
,,,,,,,,,,,,,,,,,612409a1396c7029a198d1a5,21,2022-02-12_12h39.00.853,lexical_decision_task_DD_L5,2021.2.3,Win32,59.99160118,,,,,,,,,,,0.8459,1,,,,,,,,,,,,,,z,1,0.8459,,,,,,,,0.100000015,-0.198148159,0,0,0,,0,72,72,165,1,TROWN,C,old,z,./images/TROWN.png,,,,,,,,,,,,,,,,,,,,,,,,,,,,,,,,,,,
,,,,,,,,,,,,,,,,,612409a1396c7029a198d1a5,21,2022-02-12_12h39.00.853,lexical_decision_task_DD_L5,2021.2.3,Win32,59.99160118,,,,,,,,,,,1.183,1,,,,,,,,,,,,,,z,1,1.183,,,,,,,,0.100000015,-0.198148159,0,0,0,,0,73,73,121,1,CEERS,HB,old,z,./images/CEERSHB.png,,,,,,,,,,,,,,,,,,,,,,,,,,,,,,,,,,,
,,,,,,,,,,,,,,,,,612409a1396c7029a198d1a5,21,2022-02-12_12h39.00.853,lexical_decision_task_DD_L5,2021.2.3,Win32,59.99160118,,,,,,,,,,,1.2551,0,,,,,,,,,,,,,,m,0,1.2551,,,,,,,,0.100000015,-0.198148159,0,0,0,,0,74,74,128,1,GRIFT,LB,old,z,./images/GRIFTLB.png,,,,,,,,,,,,,,,,,,,,,,,,,,,,,,,,,,,
,,,,,,,,,,,,,,,,,612409a1396c7029a198d1a5,21,2022-02-12_12h39.00.853,lexical_decision_task_DD_L5,2021.2.3,Win32,59.99160118,,,,,,,,,,,0.7431,1,,,,,,,,,,,,,,m,1,0.7431,,,,,,,,0.100000015,-0.198148159,0,0,0,,0,75,75,20,1,GRANNY,C,old,m,./images/GRANNY.png,,,,,,,,,,,,,,,,,,,,,,,,,,,,,,,,,,,
,,,,,,,,,,,,,,,,,612409a1396c7029a198d1a5,21,2022-02-12_12h39.00.853,lexical_decision_task_DD_L5,2021.2.3,Win32,59.99160118,,,,,,,,,,,0.7727,1,,,,,,,,,,,,,,z,1,0.7727,,,,,,,,0.100000015,-0.198148159,0,0,0,,0,76,76,161,1,BLAPS,LB,old,z,./images/BLAPSLB.png,,,,,,,,,,,,,,,,,,,,,,,,,,,,,,,,,,,
,,,,,,,,,,,,,,,,,612409a1396c7029a198d1a5,21,2022-02-12_12h39.00.853,lexical_decision_task_DD_L5,2021.2.3,Win32,59.99160118,,,,,,,,,,,1.4506,1,,,,,,,,,,,,,,z,1,1.4506,,,,,,,,0.100000015,-0.198148159,0,0,0,,0,77,77,127,1,NINDY,HB,old,z,./images/NINDYHB.png,,,,,,,,,,,,,,,,,,,,,,,,,,,,,,,,,,,
,,,,,,,,,,,,,,,,,612409a1396c7029a198d1a5,21,2022-02-12_12h39.00.853,lexical_decision_task_DD_L5,2021.2.3,Win32,59.99160118,,,,,,,,,,,0.9334,1,,,,,,,,,,,,,,m,1,0.9334,,,,,,,,0.100000015,-0.198148159,0,0,0,,0,78,78,9,1,DIVER,HB,old,m,./images/DIVERHB.png,,,,,,,,,,,,,,,,,,,,,,,,,,,,,,,,,,,
,,,,,,,,,,,,,,,,,612409a1396c7029a198d1a5,21,2022-02-12_12h39.00.853,lexical_decision_task_DD_L5,2021.2.3,Win32,59.99160118,,,,,,,,,,,0.6919,1,,,,,,,,,,,,,,m,1,0.6919,,,,,,,,0.100000015,-0.198148159,0,0,0,,0,79,79,14,1,FENCE,C,old,m,./images/FENCE.png,,,,,,,,,,,,,,,,,,,,,,,,,,,,,,,,,,,
,,,,,,,,,,,,,,,,,612409a1396c7029a198d1a5,21,2022-02-12_12h39.00.853,lexical_decision_task_DD_L5,2021.2.3,Win32,59.99160118,,,,,,,,,,,1.2288,1,,,,,,,,,,,,,,z,1,1.2288,,,,,,,,0.100000015,-0.198148159,0,0,0,,0,80,80,115,1,MAWNS,HB,old,z,./images/MAWNSHB.png,,,,,,,,,,,,,,,,,,,,,,,,,,,,,,,,,,,
,,,,,,,,,,,,,,,,,612409a1396c7029a198d1a5,21,2022-02-12_12h39.00.853,lexical_decision_task_DD_L5,2021.2.3,Win32,59.99160118,,,,,,,,,,,0.6843,1,,,,,,,,,,,,,,z,1,0.6843,,,,,,,,0.100000015,-0.198148159,0,0,0,,0,81,81,135,1,JOODY,C,old,z,./images/JOODY.png,,,,,,,,,,,,,,,,,,,,,,,,,,,,,,,,,,,
,,,,,,,,,,,,,,,,,612409a1396c7029a198d1a5,21,2022-02-12_12h39.00.853,lexical_decision_task_DD_L5,2021.2.3,Win32,59.99160118,,,,,,,,,,,0.7271,1,,,,,,,,,,,,,,z,1,0.7271,,,,,,,,0.100000015,-0.198148159,0,0,0,,0,82,82,111,1,HOSSE,C,old,z,./images/HOSSE.png,,,,,,,,,,,,,,,,,,,,,,,,,,,,,,,,,,,
,,,,,,,,,,,,,,,,,612409a1396c7029a198d1a5,21,2022-02-12_12h39.00.853,lexical_decision_task_DD_L5,2021.2.3,Win32,59.99160118,,,,,,,,,,,0.7587,0,,,,,,,,,,,,,,z,0,0.7587,,,,,,,,0.100000015,-0.198148159,0,0,0,space,0,83,83,81,1,DRILL,HB,old,m,./images/DRILLHB.png,86.4306,,,,,,,,,,,,,,,,,,,,,,,,,,,,,,,,,,
,,,,,,,,,,,,,,,,,612409a1396c7029a198d1a5,21,2022-02-12_12h39.00.853,lexical_decision_task_DD_L5,2021.2.3,Win32,59.99160118,,,,,,,,,,,0.6495,1,,,,,,,,,,,,,,z,1,0.6495,,,,,,,,0.100000015,-0.198148159,0,0,0,,0,84,84,141,1,PLEET,C,old,z,./images/PLEET.png,,,,,,,,,,,,,,,,,,,,,,,,,,,,,,,,,,,
,,,,,,,,,,,,,,,,,612409a1396c7029a198d1a5,21,2022-02-12_12h39.00.853,lexical_decision_task_DD_L5,2021.2.3,Win32,59.99160118,,,,,,,,,,,0.7962,1,,,,,,,,,,,,,,m,1,0.7962,,,,,,,,0.100000015,-0.198148159,0,0,0,,0,85,85,18,1,PARCEL,HB,old,m,./images/PARCELHB.png,,,,,,,,,,,,,,,,,,,,,,,,,,,,,,,,,,,
,,,,,,,,,,,,,,,,,612409a1396c7029a198d1a5,21,2022-02-12_12h39.00.853,lexical_decision_task_DD_L5,2021.2.3,Win32,59.99160118,,,,,,,,,,,0.727,1,,,,,,,,,,,,,,z,1,0.727,,,,,,,,0.100000015,-0.198148159,0,0,0,,0,86,86,108,1,GRUET,C,old,z,./images/GRUET.png,,,,,,,,,,,,,,,,,,,,,,,,,,,,,,,,,,,
,,,,,,,,,,,,,,,,,612409a1396c7029a198d1a5,21,2022-02-12_12h39.00.853,lexical_decision_task_DD_L5,2021.2.3,Win32,59.99160118,,,,,,,,,,,0.8753,1,,,,,,,,,,,,,,z,1,0.8753,,,,,,,,0.100000015,-0.198148159,0,0,0,,0,87,87,139,1,BLEAR,HB,old,z,./images/BLEARHB.png,,,,,,,,,,,,,,,,,,,,,,,,,,,,,,,,,,,
,,,,,,,,,,,,,,,,,612409a1396c7029a198d1a5,21,2022-02-12_12h39.00.853,lexical_decision_task_DD_L5,2021.2.3,Win32,59.99160118,,,,,,,,,,,0.6208,1,,,,,,,,,,,,,,m,1,0.6208,,,,,,,,0.100000015,-0.198148159,0,0,0,,0,88,88,79,1,RULER,LB,old,m,./images/RULERLB.png,,,,,,,,,,,,,,,,,,,,,,,,,,,,,,,,,,,
,,,,,,,,,,,,,,,,,612409a1396c7029a198d1a5,21,2022-02-12_12h39.00.853,lexical_decision_task_DD_L5,2021.2.3,Win32,59.99160118,,,,,,,,,,,0.7187,1,,,,,,,,,,,,,,z,1,0.7187,,,,,,,,0.100000015,-0.198148159,0,0,0,,0,89,89,162,1,LEICH,C,old,z,./images/LEICH.png,,,,,,,,,,,,,,,,,,,,,,,,,,,,,,,,,,,
,,,,,,,,,,,,,,,,,612409a1396c7029a198d1a5,21,2022-02-12_12h39.00.853,lexical_decision_task_DD_L5,2021.2.3,Win32,59.99160118,,,,,,,,,,,1.1462,0,,,,,,,,,,,,,,z,0,1.1462,,,,,,,,0.100000015,-0.198148159,0,0,0,,0,90,90,24,1,FLESH,HB,old,m,./images/FLESHHB.png,,,,,,,,,,,,,,,,,,,,,,,,,,,,,,,,,,,
,,,,,,,,,,,,,,,,,612409a1396c7029a198d1a5,21,2022-02-12_12h39.00.853,lexical_decision_task_DD_L5,2021.2.3,Win32,59.99160118,,,,,,,,,,,1.1503,1,,,,,,,,,,,,,,z,1,1.1503,,,,,,,,0.100000015,-0.198148159,0,0,0,,0,91,91,140,1,DOVET,LB,old,z,./images/DOVETLB.png,,,,,,,,,,,,,,,,,,,,,,,,,,,,,,,,,,,
,,,,,,,,,,,,,,,,,612409a1396c7029a198d1a5,21,2022-02-12_12h39.00.853,lexical_decision_task_DD_L5,2021.2.3,Win32,59.99160118,,,,,,,,,,,1.0916,0,,,,,,,,,,,,,,m,0,1.0916,,,,,,,,0.100000015,-0.198148159,0,0,0,,0,92,92,88,1,GLUSH,HB,old,z,./images/GLUSHHB.png,,,,,,,,,,,,,,,,,,,,,,,,,,,,,,,,,,,
,,,,,,,,,,,,,,,,,612409a1396c7029a198d1a5,21,2022-02-12_12h39.00.853,lexical_decision_task_DD_L5,2021.2.3,Win32,59.99160118,,,,,,,,,,,0.7837,1,,,,,,,,,,,,,,m,1,0.7837,,,,,,,,0.100000015,-0.198148159,0,0,0,,0,93,93,47,1,LAGOON,C,old,m,./images/LAGOON.png,,,,,,,,,,,,,,,,,,,,,,,,,,,,,,,,,,,
,,,,,,,,,,,,,,,,,612409a1396c7029a198d1a5,21,2022-02-12_12h39.00.853,lexical_decision_task_DD_L5,2021.2.3,Win32,59.99160118,,,,,,,,,,,0.7035,1,,,,,,,,,,,,,,m,1,0.7035,,,,,,,,0.100000015,-0.198148159,0,0,0,,0,94,94,8,1,CLIFF,C,old,m,./images/CLIFF.png,,,,,,,,,,,,,,,,,,,,,,,,,,,,,,,,,,,
,,,,,,,,,,,,,,,,,612409a1396c7029a198d1a5,21,2022-02-12_12h39.00.853,lexical_decision_task_DD_L5,2021.2.3,Win32,59.99160118,,,,,,,,,,,0.7758,1,,,,,,,,,,,,,,m,1,0.7758,,,,,,,,0.100000015,-0.198148159,0,0,0,,0,95,95,25,1,CHALK,LB,old,m,./images/CHALKLB.png,,,,,,,,,,,,,,,,,,,,,,,,,,,,,,,,,,,
,,,,,,,,,,,,,,,,,612409a1396c7029a198d1a5,21,2022-02-12_12h39.00.853,lexical_decision_task_DD_L5,2021.2.3,Win32,59.99160118,,,,,,,,,,,0.8558,1,,,,,,,,,,,,,,z,1,0.8558,,,,,,,,0.100000015,-0.198148159,0,0,0,,0,96,96,94,1,BLANS,HB,old,z,./images/BLANSHB.png,,,,,,,,,,,,,,,,,,,,,,,,,,,,,,,,,,,
,,,,,,,,,,,,,,,,,612409a1396c7029a198d1a5,21,2022-02-12_12h39.00.853,lexical_decision_task_DD_L5,2021.2.3,Win32,59.99160118,,,,,,,,,,,0.7921,0,,,,,,,,,,,,,,m,0,0.7921,,,,,,,,0.100000015,-0.198148159,0,0,0,,0,97,97,153,1,CLUPS,C,old,z,./images/CLUPS.png,,,,,,,,,,,,,,,,,,,,,,,,,,,,,,,,,,,
,,,,,,,,,,,,,,,,,612409a1396c7029a198d1a5,21,2022-02-12_12h39.00.853,lexical_decision_task_DD_L5,2021.2.3,Win32,59.99160118,,,,,,,,,,,0.7047,1,,,,,,,,,,,,,,m,1,0.7047,,,,,,,,0.100000015,-0.198148159,0,0,0,,0,98,98,54,1,CHERRY,HB,old,m,./images/CHERRYHB.png,,,,,,,,,,,,,,,,,,,,,,,,,,,,,,,,,,,
,,,,,,,,,,,,,,,,,612409a1396c7029a198d1a5,21,2022-02-12_12h39.00.853,lexical_decision_task_DD_L5,2021.2.3,Win32,59.99160118,,,,,,,,,,,0.6698,1,,,,,,,,,,,,,,m,1,0.6698,,,,,,,,0.100000015,-0.198148159,0,0,0,,0,99,99,82,1,PEBBLE,LB,old,m,./images/PEBBLELB.png,,,,,,,,,,,,,,,,,,,,,,,,,,,,,,,,,,,
,,,,,,,,,,,,,,,,,612409a1396c7029a198d1a5,21,2022-02-12_12h39.00.853,lexical_decision_task_DD_L5,2021.2.3,Win32,59.99160118,,,,,,,,,,,0.5783,1,,,,,,,,,,,,,,z,1,0.5783,,,,,,,,0.100000015,-0.198148159,0,0,0,,0,100,100,164,1,SGREW,LB,old,z,./images/SGREWLB.png,,,,,,,,,,,,,,,,,,,,,,,,,,,,,,,,,,,
,,,,,,,,,,,,,,,,,612409a1396c7029a198d1a5,21,2022-02-12_12h39.00.853,lexical_decision_task_DD_L5,2021.2.3,Win32,59.99160118,,,,,,,,,,,0.69,0,,,,,,,,,,,,,,m,0,0.69,,,,,,,,0.100000015,-0.198148159,0,0,0,,0,101,101,106,1,CLUMS,HB,old,z,./images/CLUMSHB.png,,,,,,,,,,,,,,,,,,,,,,,,,,,,,,,,,,,
,,,,,,,,,,,,,,,,,612409a1396c7029a198d1a5,21,2022-02-12_12h39.00.853,lexical_decision_task_DD_L5,2021.2.3,Win32,59.99160118,,,,,,,,,,,0.6266,1,,,,,,,,,,,,,,m,1,0.6266,,,,,,,,0.100000015,-0.198148159,0,0,0,,0,102,102,71,1,BUBBLE,C,old,m,./images/BUBBLE.png,,,,,,,,,,,,,,,,,,,,,,,,,,,,,,,,,,,
,,,,,,,,,,,,,,,,,612409a1396c7029a198d1a5,21,2022-02-12_12h39.00.853,lexical_decision_task_DD_L5,2021.2.3,Win32,59.99160118,,,,,,,,,,,0.6403,1,,,,,,,,,,,,,,m,1,0.6403,,,,,,,,0.100000015,-0.198148159,0,0,0,,0,103,103,77,1,WHEEL,C,old,m,./images/WHEEL.png,,,,,,,,,,,,,,,,,,,,,,,,,,,,,,,,,,,
,,,,,,,,,,,,,,,,,612409a1396c7029a198d1a5,21,2022-02-12_12h39.00.853,lexical_decision_task_DD_L5,2021.2.3,Win32,59.99160118,,,,,,,,,,,1.1282,1,,,,,,,,,,,,,,z,1,1.1282,,,,,,,,0.100000015,-0.198148159,0,0,0,,0,104,104,107,1,FASKS,LB,old,z,./images/FASKSLB.png,,,,,,,,,,,,,,,,,,,,,,,,,,,,,,,,,,,
,,,,,,,,,,,,,,,,,612409a1396c7029a198d1a5,21,2022-02-12_12h39.00.853,lexical_decision_task_DD_L5,2021.2.3,Win32,59.99160118,,,,,,,,,,,0.7594,1,,,,,,,,,,,,,,z,1,0.7594,,,,,,,,0.100000015,-0.198148159,0,0,0,,0,105,105,167,1,ZONET,LB,old,z,./images/ZONETLB.png,,,,,,,,,,,,,,,,,,,,,,,,,,,,,,,,,,,
,,,,,,,,,,,,,,,,,612409a1396c7029a198d1a5,21,2022-02-12_12h39.00.853,lexical_decision_task_DD_L5,2021.2.3,Win32,59.99160118,,,,,,,,,,,1.1421,1,,,,,,,,,,,,,,m,1,1.1421,,,,,,,,0.100000015,-0.198148159,0,0,0,,0,106,106,51,1,SAUCE,HB,old,m,./images/SAUCEHB.png,,,,,,,,,,,,,,,,,,,,,,,,,,,,,,,,,,,
,,,,,,,,,,,,,,,,,612409a1396c7029a198d1a5,21,2022-02-12_12h39.00.853,lexical_decision_task_DD_L5,2021.2.3,Win32,59.99160118,,,,,,,,,,,0.8684,1,,,,,,,,,,,,,,m,1,0.8684,,,,,,,,0.100000015,-0.198148159,0,0,0,,0,107,107,15,1,COLLAR,HB,old,m,./images/COLLARHB.png,,,,,,,,,,,,,,,,,,,,,,,,,,,,,,,,,,,
,,,,,,,,,,,,,,,,,612409a1396c7029a198d1a5,21,2022-02-12_12h39.00.853,lexical_decision_task_DD_L5,2021.2.3,Win32,59.99160118,,,,,,,,,,,0.7748,1,,,,,,,,,,,,,,z,1,0.7748,,,,,,,,0.100000015,-0.198148159,0,0,0,,0,108,108,90,1,NEAST,C,old,z,./images/NEAST.png,,,,,,,,,,,,,,,,,,,,,,,,,,,,,,,,,,,
,,,,,,,,,,,,,,,,,612409a1396c7029a198d1a5,21,2022-02-12_12h39.00.853,lexical_decision_task_DD_L5,2021.2.3,Win32,59.99160118,,,,,,,,,,,0.844,1,,,,,,,,,,,,,,z,1,0.844,,,,,,,,0.100000015,-0.198148159,0,0,0,,0,109,109,95,1,HANTY,LB,old,z,./images/HANTYLB.png,,,,,,,,,,,,,,,,,,,,,,,,,,,,,,,,,,,
,,,,,,,,,,,,,,,,,612409a1396c7029a198d1a5,21,2022-02-12_12h39.00.853,lexical_decision_task_DD_L5,2021.2.3,Win32,59.99160118,,,,,,,,,,,1.0162,1,,,,,,,,,,,,,,z,1,1.0162,,,,,,,,0.100000015,-0.198148159,0,0,0,,0,110,110,145,1,LAMEL,HB,old,z,./images/LAMELHB.png,,,,,,,,,,,,,,,,,,,,,,,,,,,,,,,,,,,
,,,,,,,,,,,,,,,,,612409a1396c7029a198d1a5,21,2022-02-12_12h39.00.853,lexical_decision_task_DD_L5,2021.2.3,Win32,59.99160118,,,,,,,,,,,0.7386,1,,,,,,,,,,,,,,z,1,0.7386,,,,,,,,0.100000015,-0.198148159,0,0,0,,0,111,111,137,1,JOOST,LB,old,z,./images/JOOSTLB.png,,,,,,,,,,,,,,,,,,,,,,,,,,,,,,,,,,,
,,,,,,,,,,,,,,,,,612409a1396c7029a198d1a5,21,2022-02-12_12h39.00.853,lexical_decision_task_DD_L5,2021.2.3,Win32,59.99160118,,,,,,,,,,,0.5501,1,,,,,,,,,,,,,,m,1,0.5501,,,,,,,,0.100000015,-0.198148159,0,0,0,,0,112,112,17,1,PARADE,C,old,m,./images/PARADE.png,,,,,,,,,,,,,,,,,,,,,,,,,,,,,,,,,,,
,,,,,,,,,,,,,,,,,612409a1396c7029a198d1a5,21,2022-02-12_12h39.00.853,lexical_decision_task_DD_L5,2021.2.3,Win32,59.99160118,,,,,,,,,,,0.6432,1,,,,,,,,,,,,,,m,1,0.6432,,,,,,,,0.100000015,-0.198148159,0,0,0,,0,113,113,28,1,CASINO,LB,old,m,./images/CASINOLB.png,,,,,,,,,,,,,,,,,,,,,,,,,,,,,,,,,,,
,,,,,,,,,,,,,,,,,612409a1396c7029a198d1a5,21,2022-02-12_12h39.00.853,lexical_decision_task_DD_L5,2021.2.3,Win32,59.99160118,,,,,,,,,,,1.0186,0,,,,,,,,,,,,,,z,0,1.0186,,,,,,,,0.100000015,-0.198148159,0,0,0,,0,114,114,3,1,CRATER,HB,old,m,./images/CRATERHB.png,,,,,,,,,,,,,,,,,,,,,,,,,,,,,,,,,,,
,,,,,,,,,,,,,,,,,612409a1396c7029a198d1a5,21,2022-02-12_12h39.00.853,lexical_decision_task_DD_L5,2021.2.3,Win32,59.99160118,,,,,,,,,,,0.5552,1,,,,,,,,,,,,,,m,1,0.5552,,,,,,,,0.100000015,-0.198148159,0,0,0,,0,115,115,61,1,ARTIST,LB,old,m,./images/ARTISTLB.png,,,,,,,,,,,,,,,,,,,,,,,,,,,,,,,,,,,
,,,,,,,,,,,,,,,,,612409a1396c7029a198d1a5,21,2022-02-12_12h39.00.853,lexical_decision_task_DD_L5,2021.2.3,Win32,59.99160118,,,,,,,,,,,0.662,1,,,,,,,,,,,,,,m,1,0.662,,,,,,,,0.100000015,-0.198148159,0,0,0,,0,116,116,63,1,BAKER,HB,old,m,./images/BAKERHB.png,,,,,,,,,,,,,,,,,,,,,,,,,,,,,,,,,,,
,,,,,,,,,,,,,,,,,612409a1396c7029a198d1a5,21,2022-02-12_12h39.00.853,lexical_decision_task_DD_L5,2021.2.3,Win32,59.99160118,,,,,,,,,,,0.5538,1,,,,,,,,,,,,,,m,1,0.5538,,,,,,,,0.100000015,-0.198148159,0,0,0,,0,117,117,34,1,RAZOR,LB,old,m,./images/RAZORLB.png,,,,,,,,,,,,,,,,,,,,,,,,,,,,,,,,,,,
,,,,,,,,,,,,,,,,,612409a1396c7029a198d1a5,21,2022-02-12_12h39.00.853,lexical_decision_task_DD_L5,2021.2.3,Win32,59.99160118,,,,,,,,,,,0.7125,1,,,,,,,,,,,,,,z,1,0.7125,,,,,,,,0.100000015,-0.198148159,0,0,0,,0,118,118,103,1,FLORT,HB,old,z,./images/FLORTHB.png,,,,,,,,,,,,,,,,,,,,,,,,,,,,,,,,,,,
,,,,,,,,,,,,,,,,,612409a1396c7029a198d1a5,21,2022-02-12_12h39.00.853,lexical_decision_task_DD_L5,2021.2.3,Win32,59.99160118,,,,,,,,,,,1.1339,1,,,,,,,,,,,,,,z,1,1.1339,,,,,,,,0.100000015,-0.198148159,0,0,0,,0,119,119,154,1,THINT,HB,old,z,./images/THINTHB.png,,,,,,,,,,,,,,,,,,,,,,,,,,,,,,,,,,,
,,,,,,,,,,,,,,,,,612409a1396c7029a198d1a5,21,2022-02-12_12h39.00.853,lexical_decision_task_DD_L5,2021.2.3,Win32,59.99160118,,,,,,,,,,,0.5524,1,,,,,,,,,,,,,,m,1,0.5524,,,,,,,,0.100000015,-0.198148159,0,0,0,,0,120,120,53,1,POSTER,C,old,m,./images/POSTER.png,,,,,,,,,,,,,,,,,,,,,,,,,,,,,,,,,,,
,,,,,,,,,,,,,,,,,612409a1396c7029a198d1a5,21,2022-02-12_12h39.00.853,lexical_decision_task_DD_L5,2021.2.3,Win32,59.99160118,,,,,,,,,,,0.9594,1,,,,,,,,,,,,,,z,1,0.9594,,,,,,,,0.100000015,-0.198148159,0,0,0,,0,121,121,157,1,INLER,HB,old,z,./images/INLERHB.png,,,,,,,,,,,,,,,,,,,,,,,,,,,,,,,,,,,
,,,,,,,,,,,,,,,,,612409a1396c7029a198d1a5,21,2022-02-12_12h39.00.853,lexical_decision_task_DD_L5,2021.2.3,Win32,59.99160118,,,,,,,,,,,1.0568,1,,,,,,,,,,,,,,z,1,1.0568,,,,,,,,0.100000015,-0.198148159,0,0,0,,0,122,122,92,1,PAIMS,LB,old,z,./images/PAIMSLB.png,,,,,,,,,,,,,,,,,,,,,,,,,,,,,,,,,,,
,,,,,,,,,,,,,,,,,612409a1396c7029a198d1a5,21,2022-02-12_12h39.00.853,lexical_decision_task_DD_L5,2021.2.3,Win32,59.99160118,,,,,,,,,,,0.6925,1,,,,,,,,,,,,,,m,1,0.6925,,,,,,,,0.100000015,-0.198148159,0,0,0,,0,123,123,64,1,BRIDE,LB,old,m,./images/BRIDELB.png,,,,,,,,,,,,,,,,,,,,,,,,,,,,,,,,,,,
,,,,,,,,,,,,,,,,,612409a1396c7029a198d1a5,21,2022-02-12_12h39.00.853,lexical_decision_task_DD_L5,2021.2.3,Win32,59.99160118,,,,,,,,,,,0.6261,1,,,,,,,,,,,,,,z,1,0.6261,,,,,,,,0.100000015,-0.198148159,0,0,0,,0,124,124,158,1,EGECT,LB,old,z,./images/EGECTLB.png,,,,,,,,,,,,,,,,,,,,,,,,,,,,,,,,,,,
,,,,,,,,,,,,,,,,,612409a1396c7029a198d1a5,21,2022-02-12_12h39.00.853,lexical_decision_task_DD_L5,2021.2.3,Win32,59.99160118,,,,,,,,,,,0.6365,1,,,,,,,,,,,,,,m,1,0.6365,,,,,,,,0.100000015,-0.198148159,0,0,0,space,0,125,125,78,1,BROOM,HB,old,m,./images/BROOMHB.png,49.1683,,,,,,,,,,,,,,,,,,,,,,,,,,,,,,,,,,
,,,,,,,,,,,,,,,,,612409a1396c7029a198d1a5,21,2022-02-12_12h39.00.853,lexical_decision_task_DD_L5,2021.2.3,Win32,59.99160118,,,,,,,,,,,0.7078,1,,,,,,,,,,,,,,z,1,0.7078,,,,,,,,0.100000015,-0.198148159,0,0,0,,0,126,126,129,1,PRANS,C,old,z,./images/PRANS.png,,,,,,,,,,,,,,,,,,,,,,,,,,,,,,,,,,,
,,,,,,,,,,,,,,,,,612409a1396c7029a198d1a5,21,2022-02-12_12h39.00.853,lexical_decision_task_DD_L5,2021.2.3,Win32,59.99160118,,,,,,,,,,,0.7791,1,,,,,,,,,,,,,,z,1,0.7791,,,,,,,,0.100000015,-0.198148159,0,0,0,,0,127,127,146,1,MOOST,LB,old,z,./images/MOOSTLB.png,,,,,,,,,,,,,,,,,,,,,,,,,,,,,,,,,,,
,,,,,,,,,,,,,,,,,612409a1396c7029a198d1a5,21,2022-02-12_12h39.00.853,lexical_decision_task_DD_L5,2021.2.3,Win32,59.99160118,,,,,,,,,,,0.8185,1,,,,,,,,,,,,,,m,1,0.8185,,,,,,,,0.100000015,-0.198148159,0,0,0,,0,128,128,42,1,CHAIN,HB,old,m,./images/CHAINHB.png,,,,,,,,,,,,,,,,,,,,,,,,,,,,,,,,,,,
,,,,,,,,,,,,,,,,,612409a1396c7029a198d1a5,21,2022-02-12_12h39.00.853,lexical_decision_task_DD_L5,2021.2.3,Win32,59.99160118,,,,,,,,,,,0.8232,1,,,,,,,,,,,,,,z,1,0.8232,,,,,,,,0.100000015,-0.198148159,0,0,0,,0,129,129,143,1,MONGS,LB,old,z,./images/MONGSLB.png,,,,,,,,,,,,,,,,,,,,,,,,,,,,,,,,,,,
,,,,,,,,,,,,,,,,,612409a1396c7029a198d1a5,21,2022-02-12_12h39.00.853,lexical_decision_task_DD_L5,2021.2.3,Win32,59.99160118,,,,,,,,,,,0.8161,1,,,,,,,,,,,,,,z,1,0.8161,,,,,,,,0.100000015,-0.198148159,0,0,0,,0,130,130,136,1,WERVE,HB,old,z,./images/WERVEHB.png,,,,,,,,,,,,,,,,,,,,,,,,,,,,,,,,,,,
,,,,,,,,,,,,,,,,,612409a1396c7029a198d1a5,21,2022-02-12_12h39.00.853,lexical_decision_task_DD_L5,2021.2.3,Win32,59.99160118,,,,,,,,,,,0.6933,1,,,,,,,,,,,,,,z,1,0.6933,,,,,,,,0.100000015,-0.198148159,0,0,0,,0,131,131,134,1,TROSS,LB,old,z,./images/TROSSLB.png,,,,,,,,,,,,,,,,,,,,,,,,,,,,,,,,,,,
,,,,,,,,,,,,,,,,,612409a1396c7029a198d1a5,21,2022-02-12_12h39.00.853,lexical_decision_task_DD_L5,2021.2.3,Win32,59.99160118,,,,,,,,,,,0.6889,1,,,,,,,,,,,,,,m,1,0.6889,,,,,,,,0.100000015,-0.198148159,0,0,0,,0,132,132,11,1,MEDAL,C,old,m,./images/MEDAL.png,,,,,,,,,,,,,,,,,,,,,,,,,,,,,,,,,,,
,,,,,,,,,,,,,,,,,612409a1396c7029a198d1a5,21,2022-02-12_12h39.00.853,lexical_decision_task_DD_L5,2021.2.3,Win32,59.99160118,,,,,,,,,,,1.2529,0,,,,,,,,,,,,,,z,0,1.2529,,,,,,,,0.100000015,-0.198148159,0,0,0,,0,133,133,33,1,SAUNA,HB,old,m,./images/SAUNAHB.png,,,,,,,,,,,,,,,,,,,,,,,,,,,,,,,,,,,
,,,,,,,,,,,,,,,,,612409a1396c7029a198d1a5,21,2022-02-12_12h39.00.853,lexical_decision_task_DD_L5,2021.2.3,Win32,59.99160118,,,,,,,,,,,0.7034,1,,,,,,,,,,,,,,m,1,0.7034,,,,,,,,0.100000015,-0.198148159,0,0,0,,0,134,134,48,1,SHIELD,HB,old,m,./images/SHIELDHB.png,,,,,,,,,,,,,,,,,,,,,,,,,,,,,,,,,,,
,,,,,,,,,,,,,,,,,612409a1396c7029a198d1a5,21,2022-02-12_12h39.00.853,lexical_decision_task_DD_L5,2021.2.3,Win32,59.99160118,,,,,,,,,,,0.6162,1,,,,,,,,,,,,,,z,1,0.6162,,,,,,,,0.100000015,-0.198148159,0,0,0,,0,135,135,114,1,RIKES,C,old,z,./images/RIKES.png,,,,,,,,,,,,,,,,,,,,,,,,,,,,,,,,,,,
,,,,,,,,,,,,,,,,,612409a1396c7029a198d1a5,21,2022-02-12_12h39.00.853,lexical_decision_task_DD_L5,2021.2.3,Win32,59.99160118,,,,,,,,,,,0.7514,1,,,,,,,,,,,,,,z,1,0.7514,,,,,,,,0.100000015,-0.198148159,0,0,0,,0,136,136,130,1,CRILL,HB,old,z,./images/CRILLHB.png,,,,,,,,,,,,,,,,,,,,,,,,,,,,,,,,,,,
,,,,,,,,,,,,,,,,,612409a1396c7029a198d1a5,21,2022-02-12_12h39.00.853,lexical_decision_task_DD_L5,2021.2.3,Win32,59.99160118,,,,,,,,,,,1.1195,1,,,,,,,,,,,,,,z,1,1.1195,,,,,,,,0.100000015,-0.198148159,0,0,0,,0,137,137,104,1,GITTY,LB,old,z,./images/GITTYLB.png,,,,,,,,,,,,,,,,,,,,,,,,,,,,,,,,,,,
,,,,,,,,,,,,,,,,,612409a1396c7029a198d1a5,21,2022-02-12_12h39.00.853,lexical_decision_task_DD_L5,2021.2.3,Win32,59.99160118,,,,,,,,,,,1.1169,1,,,,,,,,,,,,,,m,1,1.1169,,,,,,,,0.100000015,-0.198148159,0,0,0,,0,138,138,36,1,BOILER,HB,old,m,./images/BOILERHB.png,,,,,,,,,,,,,,,,,,,,,,,,,,,,,,,,,,,
,,,,,,,,,,,,,,,,,612409a1396c7029a198d1a5,21,2022-02-12_12h39.00.853,lexical_decision_task_DD_L5,2021.2.3,Win32,59.99160118,,,,,,,,,,,1.2464,1,,,,,,,,,,,,,,m,1,1.2464,,,,,,,,0.100000015,-0.198148159,0,0,0,,0,139,139,6,1,STAIN,HB,old,m,./images/STAINHB.png,,,,,,,,,,,,,,,,,,,,,,,,,,,,,,,,,,,
,,,,,,,,,,,,,,,,,612409a1396c7029a198d1a5,21,2022-02-12_12h39.00.853,lexical_decision_task_DD_L5,2021.2.3,Win32,59.99160118,,,,,,,,,,,0.5824,1,,,,,,,,,,,,,,m,1,0.5824,,,,,,,,0.100000015,-0.198148159,0,0,0,,0,140,140,80,1,PLANET,C,old,m,./images/PLANET.png,,,,,,,,,,,,,,,,,,,,,,,,,,,,,,,,,,,
,,,,,,,,,,,,,,,,,612409a1396c7029a198d1a5,21,2022-02-12_12h39.00.853,lexical_decision_task_DD_L5,2021.2.3,Win32,59.99160118,,,,,,,,,,,0.7006,1,,,,,,,,,,,,,,m,1,0.7006,,,,,,,,0.100000015,-0.198148159,0,0,0,,0,141,141,72,1,FLASK,HB,old,m,./images/FLASKHB.png,,,,,,,,,,,,,,,,,,,,,,,,,,,,,,,,,,,
,,,,,,,,,,,,,,,,,612409a1396c7029a198d1a5,21,2022-02-12_12h39.00.853,lexical_decision_task_DD_L5,2021.2.3,Win32,59.99160118,,,,,,,,,,,0.7074,1,,,,,,,,,,,,,,z,1,0.7074,,,,,,,,0.100000015,-0.198148159,0,0,0,,0,142,142,150,1,NOOLS,C,old,z,./images/NOOLS.png,,,,,,,,,,,,,,,,,,,,,,,,,,,,,,,,,,,
,,,,,,,,,,,,,,,,,612409a1396c7029a198d1a5,21,2022-02-12_12h39.00.853,lexical_decision_task_DD_L5,2021.2.3,Win32,59.99160118,,,,,,,,,,,0.783,1,,,,,,,,,,,,,,z,1,0.783,,,,,,,,0.100000015,-0.198148159,0,0,0,,0,143,143,131,1,NACES,LB,old,z,./images/NACESLB.png,,,,,,,,,,,,,,,,,,,,,,,,,,,,,,,,,,,
,,,,,,,,,,,,,,,,,612409a1396c7029a198d1a5,21,2022-02-12_12h39.00.853,lexical_decision_task_DD_L5,2021.2.3,Win32,59.99160118,,,,,,,,,,,0.6235,1,,,,,,,,,,,,,,m,1,0.6235,,,,,,,,0.100000015,-0.198148159,0,0,0,,0,144,144,70,1,BANANA,LB,old,m,./images/BANANALB.png,,,,,,,,,,,,,,,,,,,,,,,,,,,,,,,,,,,
,,,,,,,,,,,,,,,,,612409a1396c7029a198d1a5,21,2022-02-12_12h39.00.853,lexical_decision_task_DD_L5,2021.2.3,Win32,59.99160118,,,,,,,,,,,0.8117,1,,,,,,,,,,,,,,m,1,0.8117,,,,,,,,0.100000015,-0.198148159,0,0,0,,0,145,145,44,1,BASKET,C,old,m,./images/BASKET.png,,,,,,,,,,,,,,,,,,,,,,,,,,,,,,,,,,,
,,,,,,,,,,,,,,,,,612409a1396c7029a198d1a5,21,2022-02-12_12h39.00.853,lexical_decision_task_DD_L5,2021.2.3,Win32,59.99160118,,,,,,,,,,,1.0166,1,,,,,,,,,,,,,,z,1,1.0166,,,,,,,,0.100000015,-0.198148159,0,0,0,,0,146,146,151,1,TINKY,HB,old,z,./images/TINKYHB.png,,,,,,,,,,,,,,,,,,,,,,,,,,,,,,,,,,,
,,,,,,,,,,,,,,,,,612409a1396c7029a198d1a5,21,2022-02-12_12h39.00.853,lexical_decision_task_DD_L5,2021.2.3,Win32,59.99160118,,,,,,,,,,,1.0913,1,,,,,,,,,,,,,,m,1,1.0913,,,,,,,,0.100000015,-0.198148159,0,0,0,,0,147,147,39,1,CANDY,HB,old,m,./images/CANDYHB.png,,,,,,,,,,,,,,,,,,,,,,,,,,,,,,,,,,,
,,,,,,,,,,,,,,,,,612409a1396c7029a198d1a5,21,2022-02-12_12h39.00.853,lexical_decision_task_DD_L5,2021.2.3,Win32,59.99160118,,,,,,,,,,,0.6992,1,,,,,,,,,,,,,,z,1,0.6992,,,,,,,,0.100000015,-0.198148159,0,0,0,,0,148,148,123,1,SEDGE,C,old,z,./images/SEDGE.png,,,,,,,,,,,,,,,,,,,,,,,,,,,,,,,,,,,
,,,,,,,,,,,,,,,,,612409a1396c7029a198d1a5,21,2022-02-12_12h39.00.853,lexical_decision_task_DD_L5,2021.2.3,Win32,59.99160118,,,,,,,,,,,0.651,1,,,,,,,,,,,,,,m,1,0.651,,,,,,,,0.100000015,-0.198148159,0,0,0,,0,149,149,10,1,GARDEN,LB,old,m,./images/GARDENLB.png,,,,,,,,,,,,,,,,,,,,,,,,,,,,,,,,,,,
,,,,,,,,,,,,,,,,,612409a1396c7029a198d1a5,21,2022-02-12_12h39.00.853,lexical_decision_task_DD_L5,2021.2.3,Win32,59.99160118,,,,,,,,,,,0.6512,1,,,,,,,,,,,,,,z,1,0.6512,,,,,,,,0.100000015,-0.198148159,0,0,0,,0,150,150,116,1,BALGY,LB,old,z,./images/BALGYLB.png,,,,,,,,,,,,,,,,,,,,,,,,,,,,,,,,,,,
,,,,,,,,,,,,,,,,,612409a1396c7029a198d1a5,21,2022-02-12_12h39.00.853,lexical_decision_task_DD_L5,2021.2.3,Win32,59.99160118,,,,,,,,,,,0.5997,1,,,,,,,,,,,,,,z,1,0.5997,,,,,,,,0.100000015,-0.198148159,0,0,0,,0,151,151,113,1,LINEW,LB,old,z,./images/LINEWLB.png,,,,,,,,,,,,,,,,,,,,,,,,,,,,,,,,,,,
,,,,,,,,,,,,,,,,,612409a1396c7029a198d1a5,21,2022-02-12_12h39.00.853,lexical_decision_task_DD_L5,2021.2.3,Win32,59.99160118,,,,,,,,,,,0.9869,1,,,,,,,,,,,,,,z,1,0.9869,,,,,,,,0.100000015,-0.198148159,0,0,0,,0,152,152,122,1,BLOOT,LB,old,z,./images/BLOOTLB.png,,,,,,,,,,,,,,,,,,,,,,,,,,,,,,,,,,,
,,,,,,,,,,,,,,,,,612409a1396c7029a198d1a5,21,2022-02-12_12h39.00.853,lexical_decision_task_DD_L5,2021.2.3,Win32,59.99160118,,,,,,,,,,,0.7675,1,,,,,,,,,,,,,,m,1,0.7675,,,,,,,,0.100000015,-0.198148159,0,0,0,,0,153,153,32,1,HOCKEY,C,old,m,./images/HOCKEY.png,,,,,,,,,,,,,,,,,,,,,,,,,,,,,,,,,,,
,,,,,,,,,,,,,,,,,612409a1396c7029a198d1a5,21,2022-02-12_12h39.00.853,lexical_decision_task_DD_L5,2021.2.3,Win32,59.99160118,,,,,,,,,,,0.7841,1,,,,,,,,,,,,,,z,1,0.7841,,,,,,,,0.100000015,-0.198148159,0,0,0,,0,154,154,126,1,GUELS,C,old,z,./images/GUELS.png,,,,,,,,,,,,,,,,,,,,,,,,,,,,,,,,,,,
,,,,,,,,,,,,,,,,,612409a1396c7029a198d1a5,21,2022-02-12_12h39.00.853,lexical_decision_task_DD_L5,2021.2.3,Win32,59.99160118,,,,,,,,,,,0.9574,1,,,,,,,,,,,,,,z,1,0.9574,,,,,,,,0.100000015,-0.198148159,0,0,0,,0,155,155,148,1,JOMS,HB,old,z,./images/JOMSHB.png,,,,,,,,,,,,,,,,,,,,,,,,,,,,,,,,,,,
,,,,,,,,,,,,,,,,,612409a1396c7029a198d1a5,21,2022-02-12_12h39.00.853,lexical_decision_task_DD_L5,2021.2.3,Win32,59.99160118,,,,,,,,,,,0.561,1,,,,,,,,,,,,,,m,1,0.561,,,,,,,,0.100000015,-0.198148159,0,0,0,,0,156,156,16,1,GRAPE,LB,old,m,./images/GRAPELB.png,,,,,,,,,,,,,,,,,,,,,,,,,,,,,,,,,,,
,,,,,,,,,,,,,,,,,612409a1396c7029a198d1a5,21,2022-02-12_12h39.00.853,lexical_decision_task_DD_L5,2021.2.3,Win32,59.99160118,,,,,,,,,,,0.522,1,,,,,,,,,,,,,,z,1,0.522,,,,,,,,0.100000015,-0.198148159,0,0,0,,0,157,157,132,1,SCIFF,C,old,z,./images/SCIFF.png,,,,,,,,,,,,,,,,,,,,,,,,,,,,,,,,,,,
,,,,,,,,,,,,,,,,,612409a1396c7029a198d1a5,21,2022-02-12_12h39.00.853,lexical_decision_task_DD_L5,2021.2.3,Win32,59.99160118,,,,,,,,,,,0.7224,1,,,,,,,,,,,,,,m,1,0.7224,,,,,,,,0.100000015,-0.198148159,0,0,0,,0,158,158,73,1,GLOVE,LB,old,m,./images/GLOVELB.png,,,,,,,,,,,,,,,,,,,,,,,,,,,,,,,,,,,
,,,,,,,,,,,,,,,,,612409a1396c7029a198d1a5,21,2022-02-12_12h39.00.853,lexical_decision_task_DD_L5,2021.2.3,Win32,59.99160118,,,,,,,,,,,0.8378,1,,,,,,,,,,,,,,z,1,0.8378,,,,,,,,0.100000015,-0.198148159,0,0,0,,0,159,159,110,1,CRUNK,LB,old,z,./images/CRUNKLB.png,,,,,,,,,,,,,,,,,,,,,,,,,,,,,,,,,,,
,,,,,,,,,,,,,,,,,612409a1396c7029a198d1a5,21,2022-02-12_12h39.00.853,lexical_decision_task_DD_L5,2021.2.3,Win32,59.99160118,,,,,,,,,,,0.9287,1,,,,,,,,,,,,,,m,1,0.9287,,,,,,,,0.100000015,-0.198148159,0,0,0,,0,160,160,35,1,LLAMA,C,old,m,./images/LLAMA.png,,,,,,,,,,,,,,,,,,,,,,,,,,,,,,,,,,,
,,,,,,,,,,,,,,,,,612409a1396c7029a198d1a5,21,2022-02-12_12h39.00.853,lexical_decision_task_DD_L5,2021.2.3,Win32,59.99160118,,,,,,,,,,,0.5771,1,,,,,,,,,,,,,,m,1,0.5771,,,,,,,,0.100000015,-0.198148159,0,0,0,,0,161,161,56,1,HEATER,C,old,m,./images/HEATER.png,,,,,,,,,,,,,,,,,,,,,,,,,,,,,,,,,,,
,,,,,,,,,,,,,,,,,612409a1396c7029a198d1a5,21,2022-02-12_12h39.00.853,lexical_decision_task_DD_L5,2021.2.3,Win32,59.99160118,,,,,,,,,,,1.2,1,,,,,,,,,,,,,,z,1,1.2,,,,,,,,0.100000015,-0.198148159,0,0,0,,0,162,162,112,1,MYING,HB,old,z,./images/MYINGHB.png,,,,,,,,,,,,,,,,,,,,,,,,,,,,,,,,,,,
,,,,,,,,,,,,,,,,,612409a1396c7029a198d1a5,21,2022-02-12_12h39.00.853,lexical_decision_task_DD_L5,2021.2.3,Win32,59.99160118,,,,,,,,,,,0.8601,1,,,,,,,,,,,,,,z,1,0.8601,,,,,,,,0.100000015,-0.198148159,0,0,0,,0,163,163,124,1,TUNCH,HB,old,z,./images/TUNCHHB.png,,,,,,,,,,,,,,,,,,,,,,,,,,,,,,,,,,,
,,,,,,,,,,,,,,,,,612409a1396c7029a198d1a5,21,2022-02-12_12h39.00.853,lexical_decision_task_DD_L5,2021.2.3,Win32,59.99160118,,,,,,,,,,,0.5681,1,,,,,,,,,,,,,,z,1,0.5681,,,,,,,,0.100000015,-0.198148159,0,0,0,,0,164,164,147,1,ZOLES,C,old,z,./images/ZOLES.png,,,,,,,,,,,,,,,,,,,,,,,,,,,,,,,,,,,
,,,,,,,,,,,,,,,,,612409a1396c7029a198d1a5,21,2022-02-12_12h39.00.853,lexical_decision_task_DD_L5,2021.2.3,Win32,59.99160118,,,,,,,,,,,0.6726,1,,,,,,,,,,,,,,m,1,0.6726,,,,,,,,0.100000015,-0.198148159,0,0,0,,0,165,165,65,1,SPINE,C,old,m,./images/SPINE.png,,,,,,,,,,,,,,,,,,,,,,,,,,,,,,,,,,,
,,,,,,,,,,,,,,,,,612409a1396c7029a198d1a5,21,2022-02-12_12h39.00.853,lexical_decision_task_DD_L5,2021.2.3,Win32,59.99160118,,,,,,,,,,,0.8017,1,,,,,,,,,,,,,,m,1,0.8017,,,,,,,,0.100000015,-0.198148159,0,0,0,,0,166,166,66,1,STATUE,HB,old,m,./images/STATUEHB.png,,,,,,,,,,,,,,,,,,,,,,,,,,,,,,,,,,,
,,,,,,,,,,,,,,,,,612409a1396c7029a198d1a5,21,2022-02-12_12h39.00.853,lexical_decision_task_DD_L5,2021.2.3,Win32,59.99160118,,,,,,,,,,,0.5729,1,,,,,,,,,,,,,,m,1,0.5729,,,,,,,,0.100000015,-0.198148159,0,0,0,,0,167,167,29,1,PISTOL,C,old,m,./images/PISTOL.png,,,,,,,,,,,,,,,,,,,,,,,,,,,,,,,,,,,
,,,,,,,,,,,,,,,,,612409a1396c7029a198d1a5,21,2022-02-12_12h39.00.853,lexical_decision_task_DD_L5,2021.2.3,Win32,59.99160118,,,,,,,,,,,,,,,,,,,,,,,,,,,,,,,,,,,,,,,,,,,,,,,,How likely will it be that you will recognize the words presented very blurred on a scale of 0 (not likely) to 100 (most likely)?,,,,,-0.003703691,-0.409259329,1,0,0,jol_adv,2,7.9962,0,0,0,2,1,,,,,,,,,,,,,,,,,,,,,
,,,,,,,,,,,,,,,,,612409a1396c7029a198d1a5,21,2022-02-12_12h39.00.853,lexical_decision_task_DD_L5,2021.2.3,Win32,59.99160118,,,,,,,,,,,,,,,,,,,,,,,,,,,,,,,,,,,,,,,,,,,,,,,,How likely will it be that you will recognize the words presented slighly blurred on a scale of 0 (not likely) to 100 (most likely)?,,,,,,,,,,,4,4.0527,0,1,1,1,1,,,,,,,,,,,,,,,,,,,,,
,,,,,,,,,,,,,,,,,612409a1396c7029a198d1a5,21,2022-02-12_12h39.00.853,lexical_decision_task_DD_L5,2021.2.3,Win32,59.99160118,,,,,,,,,,,,,,,,,,,,,,,,,,,,,,,,,,,,,,,,,,,,,,,,How likely will it be that you will recognize the words presented clearly on a scale of 0 (not likely) to 100 (most likely)?,,,,,,,,,,,6,1.6472,0,2,2,0,1,,,,,,,,,,,,,,,,,,,,,
space,16.9686,0.487962983,-0.199074084,0,0,0,,,,,,1,test,"In the next phase you will be presented with the words from the the first phase. Your job is to decide whether you remember seeing the word or not. If you remember seeing the word press ""old"" or type ""m"". If you do not remember seeing the word press ""new"" or type ""z"". Please press the space bar or click on continue to begin. ",,,612409a1396c7029a198d1a5,21,2022-02-12_12h39.00.853,lexical_decision_task_DD_L5,2021.2.3,Win32,59.99160118,,,,,,,,,,,,,,,,,,,,,,,,,,,,,,,,,,,,,,,,,,,,,,,,,,,,,,,,,,,,,,,,,,0,0,0,0,1,,,,,,,,,,,,,,,,
,,0.01666668,-0.392592606,1,0,0,,,,,,1,test,"In the next phase you will be presented with the words from the the first phase. Your job is to decide whether you remember seeing the word or not. If you remember seeing the word press ""old"" or type ""m"". If you do not remember seeing the word press ""new"" or type ""z"". Please press the space bar or click on continue to begin. ",,,612409a1396c7029a198d1a5,21,2022-02-12_12h39.00.853,lexical_decision_task_DD_L5,2021.2.3,Win32,59.99160118,,,,,,,,,,,,,,,,,,,,,,,,,,,,,,,,,,,,,,,,,,,,,,,,,,,,,,,,,,,,,,,,,,1,0,1,0,1,instr_done_button,,,,,,,,,,,,,,,
space,1.0405,0.098148163,-0.334259272,0,0,0,,,,,,1,test,"In the next phase you will be presented with the words from the the first phase. Your job is to decide whether you remember seeing the word or not. If you remember seeing the word press ""old"" or type ""m"". If you do not remember seeing the word press ""new"" or type ""z"". Please press the space bar or click on continue to begin. ",,,612409a1396c7029a198d1a5,21,2022-02-12_12h39.00.853,lexical_decision_task_DD_L5,2021.2.3,Win32,59.99160118,,,,,,,,,,,,,,,,,,,,,,,,,,,,,,,,,,,,,,,,,,,,,,,,,,,,,,,,,,,,,,,,,,2,0,2,0,1,,,,,,,,,,,,,,,,
space,0.8494,0.098148163,-0.334259272,0,0,0,,,,,,1,test,"In the next phase you will be presented with the words from the the first phase. Your job is to decide whether you remember seeing the word or not. If you remember seeing the word press ""old"" or type ""m"". If you do not remember seeing the word press ""new"" or type ""z"". Please press the space bar or click on continue to begin. ",,,612409a1396c7029a198d1a5,21,2022-02-12_12h39.00.853,lexical_decision_task_DD_L5,2021.2.3,Win32,59.99160118,,,,,,,,,,,,,,,,,,,,,,,,,,,,,,,,,,,,,,,,,,,,,,,,,,,,,,,,,,,,,,,,,,3,0,3,0,1,,,,,,,,,,,,,,,,
,,0.047222236,-0.418518589,1,0,0,,,,,,1,test,"In the next phase you will be presented with the words from the the first phase. Your job is to decide whether you remember seeing the word or not. If you remember seeing the word press ""old"" or type ""m"". If you do not remember seeing the word press ""new"" or type ""z"". Please press the space bar or click on continue to begin. ",,,612409a1396c7029a198d1a5,21,2022-02-12_12h39.00.853,lexical_decision_task_DD_L5,2021.2.3,Win32,59.99160118,,,,,,,,,,,,,,,,,,,,,,,,,,,,,,,,,,,,,,,,,,,,,,,,,,,,,,,,,,,,,,,,,,4,0,4,0,1,instr_done_button,,,,,,,,,,,,,,,
,,,,,,,,,,,,,,,,,612409a1396c7029a198d1a5,21,2022-02-12_12h39.00.853,lexical_decision_task_DD_L5,2021.2.3,Win32,59.99160118,,,,,,,,,,,1.1973,1,,,,,,,,,,,,,,,,,,,,,,,,0.337962981,-0.156481491,0,0,0,,,,,,,ONION,HB,z,y,./images/ONIONHB.png,,,,,,,,,,,,,,,,,,,,,z,1,1.1973,,,,,,,,0,0,0,135,1
,,,,,,,,,,,,,,,,,612409a1396c7029a198d1a5,21,2022-02-12_12h39.00.853,lexical_decision_task_DD_L5,2021.2.3,Win32,59.99160118,,,,,,,,,,,1.2205,1,,,,,,,,,,,,,,,,,,,,,,,,0.337962981,-0.156481491,0,0,0,,,,,,,HOCKEY,C,m,y,./images/HOCKEY.png,,,,,,,,,,,,,,,,,,,,,m,1,1.2205,,,,,,,,0,1,1,32,1
,,,,,,,,,,,,,,,,,612409a1396c7029a198d1a5,21,2022-02-12_12h39.00.853,lexical_decision_task_DD_L5,2021.2.3,Win32,59.99160118,,,,,,,,,,,0.6494,1,,,,,,,,,,,,,,,,,,,,,,,,0.337962981,-0.156481491,0,0,0,,,,,,,BAMBOO,C,m,y,./images/BAMBOO.png,,,,,,,,,,,,,,,,,,,,,m,1,0.6494,,,,,,,,0,2,2,5,1
,,,,,,,,,,,,,,,,,612409a1396c7029a198d1a5,21,2022-02-12_12h39.00.853,lexical_decision_task_DD_L5,2021.2.3,Win32,59.99160118,,,,,,,,,,,0.5836,1,,,,,,,,,,,,,,,,,,,,,,,,0.337962981,-0.156481491,0,0,0,,,,,,,WHISKY,C,m,y,./images/WHISKY.png,,,,,,,,,,,,,,,,,,,,,m,1,0.5836,,,,,,,,0,3,3,83,1
,,,,,,,,,,,,,,,,,612409a1396c7029a198d1a5,21,2022-02-12_12h39.00.853,lexical_decision_task_DD_L5,2021.2.3,Win32,59.99160118,,,,,,,,,,,0.6837,1,,,,,,,,,,,,,,,,,,,,,,,,0.337962981,-0.156481491,0,0,0,,,,,,,ATTIC,HB,z,y,./images/ATTICHB.png,,,,,,,,,,,,,,,,,,,,,z,1,0.6837,,,,,,,,0,4,4,111,1
,,,,,,,,,,,,,,,,,612409a1396c7029a198d1a5,21,2022-02-12_12h39.00.853,lexical_decision_task_DD_L5,2021.2.3,Win32,59.99160118,,,,,,,,,,,0.6975,1,,,,,,,,,,,,,,,,,,,,,,,,0.337962981,-0.156481491,0,0,0,,,,,,,DESERT,LB,m,y,./images/DESERTLB.png,,,,,,,,,,,,,,,,,,,,,m,1,0.6975,,,,,,,,0,5,5,52,1
,,,,,,,,,,,,,,,,,612409a1396c7029a198d1a5,21,2022-02-12_12h39.00.853,lexical_decision_task_DD_L5,2021.2.3,Win32,59.99160118,,,,,,,,,,,0.7809,1,,,,,,,,,,,,,,,,,,,,,,,,0.337962981,-0.156481491,0,0,0,,,,,,,SAUNA,HB,m,y,./images/SAUNAHB.png,,,,,,,,,,,,,,,,,,,,,m,1,0.7809,,,,,,,,0,6,6,33,1
,,,,,,,,,,,,,,,,,612409a1396c7029a198d1a5,21,2022-02-12_12h39.00.853,lexical_decision_task_DD_L5,2021.2.3,Win32,59.99160118,,,,,,,,,,,0.7231,1,,,,,,,,,,,,,,,,,,,,,,,,0.337962981,-0.156481491,0,0,0,,,,,,,RHINO,HB,z,y,./images/RHINOHB.png,,,,,,,,,,,,,,,,,,,,,z,1,0.7231,,,,,,,,0,7,7,93,1
,,,,,,,,,,,,,,,,,612409a1396c7029a198d1a5,21,2022-02-12_12h39.00.853,lexical_decision_task_DD_L5,2021.2.3,Win32,59.99160118,,,,,,,,,,,0.7184,1,,,,,,,,,,,,,,,,,,,,,,,,0.337962981,-0.156481491,0,0,0,,,,,,,MALLET,C,z,y,./images/MALLET.png,,,,,,,,,,,,,,,,,,,,,z,1,0.7184,,,,,,,,0,8,8,134,1
,,,,,,,,,,,,,,,,,612409a1396c7029a198d1a5,21,2022-02-12_12h39.00.853,lexical_decision_task_DD_L5,2021.2.3,Win32,59.99160118,,,,,,,,,,,0.6465,1,,,,,,,,,,,,,,,,,,,,,,,,0.337962981,-0.156481491,0,0,0,,,,,,,ARROW,HB,m,y,./images/ARROWHB.png,,,,,,,,,,,,,,,,,,,,,m,1,0.6465,,,,,,,,0,9,9,69,1
,,,,,,,,,,,,,,,,,612409a1396c7029a198d1a5,21,2022-02-12_12h39.00.853,lexical_decision_task_DD_L5,2021.2.3,Win32,59.99160118,,,,,,,,,,,0.6161,1,,,,,,,,,,,,,,,,,,,,,,,,0.337962981,-0.156481491,0,0,0,,,,,,,STOVE,C,m,y,./images/STOVE.png,,,,,,,,,,,,,,,,,,,,,m,1,0.6161,,,,,,,,0,10,10,2,1
,,,,,,,,,,,,,,,,,612409a1396c7029a198d1a5,21,2022-02-12_12h39.00.853,lexical_decision_task_DD_L5,2021.2.3,Win32,59.99160118,,,,,,,,,,,0.6169,0,,,,,,,,,,,,,,,,,,,,,,,,0.337962981,-0.156481491,0,0,0,,,,,,,SNACK,LB,z,y,./images/SNACKLB.png,,,,,,,,,,,,,,,,,,,,,m,0,0.6169,,,,,,,,0,11,11,157,1
,,,,,,,,,,,,,,,,,612409a1396c7029a198d1a5,21,2022-02-12_12h39.00.853,lexical_decision_task_DD_L5,2021.2.3,Win32,59.99160118,,,,,,,,,,,1.0978,0,,,,,,,,,,,,,,,,,,,,,,,,0.337962981,-0.156481491,0,0,0,,,,,,,CRUST,LB,z,y,./images/CRUSTLB.png,,,,,,,,,,,,,,,,,,,,,m,0,1.0978,,,,,,,,0,12,12,163,1
,,,,,,,,,,,,,,,,,612409a1396c7029a198d1a5,21,2022-02-12_12h39.00.853,lexical_decision_task_DD_L5,2021.2.3,Win32,59.99160118,,,,,,,,,,,0.7498,1,,,,,,,,,,,,,,,,,,,,,,,,0.337962981,-0.156481491,0,0,0,,,,,,,DOUGH,LB,z,y,./images/DOUGHLB.png,,,,,,,,,,,,,,,,,,,,,z,1,0.7498,,,,,,,,0,13,13,103,1
,,,,,,,,,,,,,,,,,612409a1396c7029a198d1a5,21,2022-02-12_12h39.00.853,lexical_decision_task_DD_L5,2021.2.3,Win32,59.99160118,,,,,,,,,,,1.0039,1,,,,,,,,,,,,,,,,,,,,,,,,0.337962981,-0.156481491,0,0,0,,,,,,,BISHOP,LB,m,y,./images/BISHOPLB.png,,,,,,,,,,,,,,,,,,,,,m,1,1.0039,,,,,,,,0,14,14,49,1
,,,,,,,,,,,,,,,,,612409a1396c7029a198d1a5,21,2022-02-12_12h39.00.853,lexical_decision_task_DD_L5,2021.2.3,Win32,59.99160118,,,,,,,,,,,0.6853,1,,,,,,,,,,,,,,,,,,,,,,,,0.337962981,-0.156481491,0,0,0,,,,,,,CASINO,LB,m,y,./images/CASINOLB.png,,,,,,,,,,,,,,,,,,,,,m,1,0.6853,,,,,,,,0,15,15,28,1
,,,,,,,,,,,,,,,,,612409a1396c7029a198d1a5,21,2022-02-12_12h39.00.853,lexical_decision_task_DD_L5,2021.2.3,Win32,59.99160118,,,,,,,,,,,0.7425,1,,,,,,,,,,,,,,,,,,,,,,,,0.337962981,-0.156481491,0,0,0,,,,,,,CARPET,C,z,y,./images/CARPET.png,,,,,,,,,,,,,,,,,,,,,z,1,0.7425,,,,,,,,0,16,16,137,1
,,,,,,,,,,,,,,,,,612409a1396c7029a198d1a5,21,2022-02-12_12h39.00.853,lexical_decision_task_DD_L5,2021.2.3,Win32,59.99160118,,,,,,,,,,,1.3377,1,,,,,,,,,,,,,,,,,,,,,,,,0.337962981,-0.156481491,0,0,0,,,,,,,BANNER,LB,z,y,./images/BANNERLB.png,,,,,,,,,,,,,,,,,,,,,z,1,1.3377,,,,,,,,0,17,17,136,1
,,,,,,,,,,,,,,,,,612409a1396c7029a198d1a5,21,2022-02-12_12h39.00.853,lexical_decision_task_DD_L5,2021.2.3,Win32,59.99160118,,,,,,,,,,,0.716,0,,,,,,,,,,,,,,,,,,,,,,,,0.337962981,-0.156481491,0,0,0,,,,,,,MELON,LB,z,y,./images/MELONLB.png,,,,,,,,,,,,,,,,,,,,,m,0,0.716,,,,,,,,0,18,18,106,1
,,,,,,,,,,,,,,,,,612409a1396c7029a198d1a5,21,2022-02-12_12h39.00.853,lexical_decision_task_DD_L5,2021.2.3,Win32,59.99160118,,,,,,,,,,,1.0518,1,,,,,,,,,,,,,,,,,,,,,,,,0.337962981,-0.156481491,0,0,0,,,,,,,KIDNEY,HB,z,y,./images/KIDNEYHB.png,,,,,,,,,,,,,,,,,,,,,z,1,1.0518,,,,,,,,0,19,19,105,1
,,,,,,,,,,,,,,,,,612409a1396c7029a198d1a5,21,2022-02-12_12h39.00.853,lexical_decision_task_DD_L5,2021.2.3,Win32,59.99160118,,,,,,,,,,,1.3964,0,,,,,,,,,,,,,,,,,,,,,,,,0.337962981,-0.156481491,0,0,0,,,,,,,SMOKER,C,z,y,./images/SMOKER.png,,,,,,,,,,,,,,,,,,,,,m,0,1.3964,,,,,,,,0,20,20,110,1
,,,,,,,,,,,,,,,,,612409a1396c7029a198d1a5,21,2022-02-12_12h39.00.853,lexical_decision_task_DD_L5,2021.2.3,Win32,59.99160118,,,,,,,,,,,0.7282,1,,,,,,,,,,,,,,,,,,,,,,,,0.337962981,-0.156481491,0,0,0,,,,,,,FLASK,HB,m,y,./images/FLASKHB.png,,,,,,,,,,,,,,,,,,,,,m,1,0.7282,,,,,,,,0,21,21,72,1
,,,,,,,,,,,,,,,,,612409a1396c7029a198d1a5,21,2022-02-12_12h39.00.853,lexical_decision_task_DD_L5,2021.2.3,Win32,59.99160118,,,,,,,,,,,0.917,1,,,,,,,,,,,,,,,,,,,,,,,,0.337962981,-0.156481491,0,0,0,,,,,,,MUSCLE,LB,z,y,./images/MUSCLELB.png,,,,,,,,,,,,,,,,,,,,,z,1,0.917,,,,,,,,0,22,22,88,1
,,,,,,,,,,,,,,,,,612409a1396c7029a198d1a5,21,2022-02-12_12h39.00.853,lexical_decision_task_DD_L5,2021.2.3,Win32,59.99160118,,,,,,,,,,,0.7016,1,,,,,,,,,,,,,,,,,,,,,,,,0.337962981,-0.156481491,0,0,0,,,,,,,PILOT,C,m,y,./images/PILOT.png,,,,,,,,,,,,,,,,,,,,,m,1,0.7016,,,,,,,,0,23,23,50,1
,,,,,,,,,,,,,,,,,612409a1396c7029a198d1a5,21,2022-02-12_12h39.00.853,lexical_decision_task_DD_L5,2021.2.3,Win32,59.99160118,,,,,,,,,,,0.8518,1,,,,,,,,,,,,,,,,,,,,,,,,0.337962981,-0.156481491,0,0,0,,,,,,,BUBBLE,C,m,y,./images/BUBBLE.png,,,,,,,,,,,,,,,,,,,,,m,1,0.8518,,,,,,,,0,24,24,71,1
,,,,,,,,,,,,,,,,,612409a1396c7029a198d1a5,21,2022-02-12_12h39.00.853,lexical_decision_task_DD_L5,2021.2.3,Win32,59.99160118,,,,,,,,,,,0.7106,1,,,,,,,,,,,,,,,,,,,,,,,,0.337962981,-0.156481491,0,0,0,,,,,,,LIZARD,C,z,y,./images/LIZARD.png,,,,,,,,,,,,,,,,,,,,,z,1,0.7106,,,,,,,,0,25,25,128,1
,,,,,,,,,,,,,,,,,612409a1396c7029a198d1a5,21,2022-02-12_12h39.00.853,lexical_decision_task_DD_L5,2021.2.3,Win32,59.99160118,,,,,,,,,,,0.7957,1,,,,,,,,,,,,,,,,,,,,,,,,0.337962981,-0.156481491,0,0,0,,,,,,,CHALK,LB,m,y,./images/CHALKLB.png,,,,,,,,,,,,,,,,,,,,,m,1,0.7957,,,,,,,,0,26,26,25,1
,,,,,,,,,,,,,,,,,612409a1396c7029a198d1a5,21,2022-02-12_12h39.00.853,lexical_decision_task_DD_L5,2021.2.3,Win32,59.99160118,,,,,,,,,,,0.6419,1,,,,,,,,,,,,,,,,,,,,,,,,0.337962981,-0.156481491,0,0,0,,,,,,,HEATER,C,m,y,./images/HEATER.png,,,,,,,,,,,,,,,,,,,,,m,1,0.6419,,,,,,,,0,27,27,56,1
,,,,,,,,,,,,,,,,,612409a1396c7029a198d1a5,21,2022-02-12_12h39.00.853,lexical_decision_task_DD_L5,2021.2.3,Win32,59.99160118,,,,,,,,,,,0.8021,1,,,,,,,,,,,,,,,,,,,,,,,,0.337962981,-0.156481491,0,0,0,,,,,,,SWING,LB,z,y,./images/SWINGLB.png,,,,,,,,,,,,,,,,,,,,,z,1,0.8021,,,,,,,,0,28,28,124,1
,,,,,,,,,,,,,,,,,612409a1396c7029a198d1a5,21,2022-02-12_12h39.00.853,lexical_decision_task_DD_L5,2021.2.3,Win32,59.99160118,,,,,,,,,,,0.8115,1,,,,,,,,,,,,,,,,,,,,,,,,0.337962981,-0.156481491,0,0,0,,,,,,,GREASE,HB,z,y,./images/GREASEHB.png,,,,,,,,,,,,,,,,,,,,,z,1,0.8115,,,,,,,,0,29,29,99,1
,,,,,,,,,,,,,,,,,612409a1396c7029a198d1a5,21,2022-02-12_12h39.00.853,lexical_decision_task_DD_L5,2021.2.3,Win32,59.99160118,,,,,,,,,,,0.9696,1,,,,,,,,,,,,,,,,,,,,,,,,0.337962981,-0.156481491,0,0,0,,,,,,,PURSE,C,z,y,./images/PURSE.png,,,,,,,,,,,,,,,,,,,,,z,1,0.9696,,,,,,,,0,30,30,146,1
,,,,,,,,,,,,,,,,,612409a1396c7029a198d1a5,21,2022-02-12_12h39.00.853,lexical_decision_task_DD_L5,2021.2.3,Win32,59.99160118,,,,,,,,,,,0.6007,1,,,,,,,,,,,,,,,,,,,,,,,,0.337962981,-0.156481491,0,0,0,,,,,,,LLAMA,C,m,y,./images/LLAMA.png,,,,,,,,,,,,,,,,,,,,,m,1,0.6007,,,,,,,,0,31,31,35,1
,,,,,,,,,,,,,,,,,612409a1396c7029a198d1a5,21,2022-02-12_12h39.00.853,lexical_decision_task_DD_L5,2021.2.3,Win32,59.99160118,,,,,,,,,,,1.6218,0,,,,,,,,,,,,,,,,,,,,,,,,0.337962981,-0.156481491,0,0,0,,,,,,,SKIING,C,z,y,./images/SKIING.png,,,,,,,,,,,,,,,,,,,,,m,0,1.6218,,,,,,,,0,32,32,101,1
,,,,,,,,,,,,,,,,,612409a1396c7029a198d1a5,21,2022-02-12_12h39.00.853,lexical_decision_task_DD_L5,2021.2.3,Win32,59.99160118,,,,,,,,,,,0.6339,1,,,,,,,,,,,,,,,,,,,,,,,,0.337962981,-0.156481491,0,0,0,,,,,,,CURRY,HB,m,y,./images/CURRYHB.png,,,,,,,,,,,,,,,,,,,,,m,1,0.6339,,,,,,,,0,33,33,60,1
,,,,,,,,,,,,,,,,,612409a1396c7029a198d1a5,21,2022-02-12_12h39.00.853,lexical_decision_task_DD_L5,2021.2.3,Win32,59.99160118,,,,,,,,,,,0.877,1,,,,,,,,,,,,,,,,,,,,,,,,0.337962981,-0.156481491,0,0,0,,,,,,,TIGER,LB,m,y,./images/TIGERLB.png,,,,,,,,,,,,,,,,,,,,,m,1,0.877,,,,,,,,0,34,34,37,1
,,,,,,,,,,,,,,,,,612409a1396c7029a198d1a5,21,2022-02-12_12h39.00.853,lexical_decision_task_DD_L5,2021.2.3,Win32,59.99160118,,,,,,,,,,,0.8722,1,,,,,,,,,,,,,,,,,,,,,,,,0.337962981,-0.156481491,0,0,0,,,,,,,PASTA,C,z,y,./images/PASTA.png,,,,,,,,,,,,,,,,,,,,,z,1,0.8722,,,,,,,,0,35,35,89,1
,,,,,,,,,,,,,,,,,612409a1396c7029a198d1a5,21,2022-02-12_12h39.00.853,lexical_decision_task_DD_L5,2021.2.3,Win32,59.99160118,,,,,,,,,,,0.8737,0,,,,,,,,,,,,,,,,,,,,,,,,0.337962981,-0.156481491,0,0,0,,,,,,,STRING,C,z,y,./images/STRING.png,,,,,,,,,,,,,,,,,,,,,m,0,0.8737,,,,,,,,0,36,36,125,1
,,,,,,,,,,,,,,,,,612409a1396c7029a198d1a5,21,2022-02-12_12h39.00.853,lexical_decision_task_DD_L5,2021.2.3,Win32,59.99160118,,,,,,,,,,,0.5728,1,,,,,,,,,,,,,,,,,,,,,,,,0.337962981,-0.156481491,0,0,0,,,,,,,BROOM,HB,m,y,./images/BROOMHB.png,,,,,,,,,,,,,,,,,,,,,m,1,0.5728,,,,,,,,0,37,37,78,1
,,,,,,,,,,,,,,,,,612409a1396c7029a198d1a5,21,2022-02-12_12h39.00.853,lexical_decision_task_DD_L5,2021.2.3,Win32,59.99160118,,,,,,,,,,,1.0206,1,,,,,,,,,,,,,,,,,,,,,,,,0.337962981,-0.156481491,0,0,0,,,,,,,SPORT,HB,z,y,./images/SPORTHB.png,,,,,,,,,,,,,,,,,,,,,z,1,1.0206,,,,,,,,0,38,38,132,1
,,,,,,,,,,,,,,,,,612409a1396c7029a198d1a5,21,2022-02-12_12h39.00.853,lexical_decision_task_DD_L5,2021.2.3,Win32,59.99160118,,,,,,,,,,,0.8034,1,,,,,,,,,,,,,,,,,,,,,,,,0.337962981,-0.156481491,0,0,0,,,,,,,ALLEY,LB,m,y,./images/ALLEYLB.png,,,,,,,,,,,,,,,,,,,,,m,1,0.8034,,,,,,,,0,39,39,55,1
,,,,,,,,,,,,,,,,,612409a1396c7029a198d1a5,21,2022-02-12_12h39.00.853,lexical_decision_task_DD_L5,2021.2.3,Win32,59.99160118,,,,,,,,,,,1.1163,1,,,,,,,,,,,,,,,,,,,,,,,,0.337962981,-0.156481491,0,0,0,,,,,,,BRIDE,LB,m,y,./images/BRIDELB.png,,,,,,,,,,,,,,,,,,,,,m,1,1.1163,,,,,,,,0,40,40,64,1
,,,,,,,,,,,,,,,,,612409a1396c7029a198d1a5,21,2022-02-12_12h39.00.853,lexical_decision_task_DD_L5,2021.2.3,Win32,59.99160118,,,,,,,,,,,0.8663,1,,,,,,,,,,,,,,,,,,,,,,,,0.337962981,-0.156481491,0,0,0,space,,,,,,MOTOR,LB,z,y,./images/MOTORLB.png,121.7013,,,,,,,,,,,,,,,,,,,,z,1,0.8663,,,,,,,,0,41,41,97,1
,,,,,,,,,,,,,,,,,612409a1396c7029a198d1a5,21,2022-02-12_12h39.00.853,lexical_decision_task_DD_L5,2021.2.3,Win32,59.99160118,,,,,,,,,,,1.0063,1,,,,,,,,,,,,,,,,,,,,,,,,0.337962981,-0.156481491,0,0,0,,,,,,,JAGUAR,HB,z,y,./images/JAGUARHB.png,,,,,,,,,,,,,,,,,,,,,z,1,1.0063,,,,,,,,0,42,42,102,1
,,,,,,,,,,,,,,,,,612409a1396c7029a198d1a5,21,2022-02-12_12h39.00.853,lexical_decision_task_DD_L5,2021.2.3,Win32,59.99160118,,,,,,,,,,,0.7065,1,,,,,,,,,,,,,,,,,,,,,,,,0.337962981,-0.156481491,0,0,0,,,,,,,THROAT,HB,z,y,./images/THROATHB.png,,,,,,,,,,,,,,,,,,,,,z,1,0.7065,,,,,,,,0,43,43,120,1
,,,,,,,,,,,,,,,,,612409a1396c7029a198d1a5,21,2022-02-12_12h39.00.853,lexical_decision_task_DD_L5,2021.2.3,Win32,59.99160118,,,,,,,,,,,1.4372,0,,,,,,,,,,,,,,,,,,,,,,,,0.337962981,-0.156481491,0,0,0,,,,,,,WHEEL,C,m,y,./images/WHEEL.png,,,,,,,,,,,,,,,,,,,,,z,0,1.4372,,,,,,,,0,44,44,77,1
,,,,,,,,,,,,,,,,,612409a1396c7029a198d1a5,21,2022-02-12_12h39.00.853,lexical_decision_task_DD_L5,2021.2.3,Win32,59.99160118,,,,,,,,,,,0.6382,1,,,,,,,,,,,,,,,,,,,,,,,,0.337962981,-0.156481491,0,0,0,,,,,,,POSTER,C,m,y,./images/POSTER.png,,,,,,,,,,,,,,,,,,,,,m,1,0.6382,,,,,,,,0,45,45,53,1
,,,,,,,,,,,,,,,,,612409a1396c7029a198d1a5,21,2022-02-12_12h39.00.853,lexical_decision_task_DD_L5,2021.2.3,Win32,59.99160118,,,,,,,,,,,0.6026,1,,,,,,,,,,,,,,,,,,,,,,,,0.337962981,-0.156481491,0,0,0,,,,,,,SHIELD,HB,m,y,./images/SHIELDHB.png,,,,,,,,,,,,,,,,,,,,,m,1,0.6026,,,,,,,,0,46,46,48,1
,,,,,,,,,,,,,,,,,612409a1396c7029a198d1a5,21,2022-02-12_12h39.00.853,lexical_decision_task_DD_L5,2021.2.3,Win32,59.99160118,,,,,,,,,,,0.5554,0,,,,,,,,,,,,,,,,,,,,,,,,0.337962981,-0.156481491,0,0,0,,,,,,,BABOON,LB,z,y,./images/BABOONLB.png,,,,,,,,,,,,,,,,,,,,,m,0,0.5554,,,,,,,,0,47,47,142,1
,,,,,,,,,,,,,,,,,612409a1396c7029a198d1a5,21,2022-02-12_12h39.00.853,lexical_decision_task_DD_L5,2021.2.3,Win32,59.99160118,,,,,,,,,,,1.3188,1,,,,,,,,,,,,,,,,,,,,,,,,0.337962981,-0.156481491,0,0,0,,,,,,,CLOWN,LB,m,y,./images/CLOWNLB.png,,,,,,,,,,,,,,,,,,,,,m,1,1.3188,,,,,,,,0,48,48,22,1
,,,,,,,,,,,,,,,,,612409a1396c7029a198d1a5,21,2022-02-12_12h39.00.853,lexical_decision_task_DD_L5,2021.2.3,Win32,59.99160118,,,,,,,,,,,0.9031,1,,,,,,,,,,,,,,,,,,,,,,,,0.337962981,-0.156481491,0,0,0,,,,,,,PISTOL,C,m,y,./images/PISTOL.png,,,,,,,,,,,,,,,,,,,,,m,1,0.9031,,,,,,,,0,49,49,29,1
,,,,,,,,,,,,,,,,,612409a1396c7029a198d1a5,21,2022-02-12_12h39.00.853,lexical_decision_task_DD_L5,2021.2.3,Win32,59.99160118,,,,,,,,,,,0.7512,1,,,,,,,,,,,,,,,,,,,,,,,,0.337962981,-0.156481491,0,0,0,,,,,,,BAKER,HB,m,y,./images/BAKERHB.png,,,,,,,,,,,,,,,,,,,,,m,1,0.7512,,,,,,,,0,50,50,63,1
,,,,,,,,,,,,,,,,,612409a1396c7029a198d1a5,21,2022-02-12_12h39.00.853,lexical_decision_task_DD_L5,2021.2.3,Win32,59.99160118,,,,,,,,,,,0.6245,1,,,,,,,,,,,,,,,,,,,,,,,,0.337962981,-0.156481491,0,0,0,,,,,,,CLOUD,C,m,y,./images/CLOUD.png,,,,,,,,,,,,,,,,,,,,,m,1,0.6245,,,,,,,,0,51,51,26,1
,,,,,,,,,,,,,,,,,612409a1396c7029a198d1a5,21,2022-02-12_12h39.00.853,lexical_decision_task_DD_L5,2021.2.3,Win32,59.99160118,,,,,,,,,,,0.6779,1,,,,,,,,,,,,,,,,,,,,,,,,0.337962981,-0.156481491,0,0,0,,,,,,,PIMPLE,C,z,y,./images/PIMPLE.png,,,,,,,,,,,,,,,,,,,,,z,1,0.6779,,,,,,,,0,52,52,155,1
,,,,,,,,,,,,,,,,,612409a1396c7029a198d1a5,21,2022-02-12_12h39.00.853,lexical_decision_task_DD_L5,2021.2.3,Win32,59.99160118,,,,,,,,,,,0.9911,0,,,,,,,,,,,,,,,,,,,,,,,,0.337962981,-0.156481491,0,0,0,,,,,,,DONKEY,LB,m,y,./images/DONKEYLB.png,,,,,,,,,,,,,,,,,,,,,z,0,0.9911,,,,,,,,0,53,53,19,1
,,,,,,,,,,,,,,,,,612409a1396c7029a198d1a5,21,2022-02-12_12h39.00.853,lexical_decision_task_DD_L5,2021.2.3,Win32,59.99160118,,,,,,,,,,,0.9246,0,,,,,,,,,,,,,,,,,,,,,,,,0.337962981,-0.156481491,0,0,0,,,,,,,BEARD,C,z,y,./images/BEARD.png,,,,,,,,,,,,,,,,,,,,,m,0,0.9246,,,,,,,,0,54,54,86,1
,,,,,,,,,,,,,,,,,612409a1396c7029a198d1a5,21,2022-02-12_12h39.00.853,lexical_decision_task_DD_L5,2021.2.3,Win32,59.99160118,,,,,,,,,,,0.676,1,,,,,,,,,,,,,,,,,,,,,,,,0.337962981,-0.156481491,0,0,0,,,,,,,MOSQUE,LB,z,y,./images/MOSQUELB.png,,,,,,,,,,,,,,,,,,,,,z,1,0.676,,,,,,,,0,55,55,127,1
,,,,,,,,,,,,,,,,,612409a1396c7029a198d1a5,21,2022-02-12_12h39.00.853,lexical_decision_task_DD_L5,2021.2.3,Win32,59.99160118,,,,,,,,,,,0.9604,1,,,,,,,,,,,,,,,,,,,,,,,,0.337962981,-0.156481491,0,0,0,,,,,,,BERRY,C,z,y,./images/BERRY.png,,,,,,,,,,,,,,,,,,,,,z,1,0.9604,,,,,,,,0,56,56,131,1
,,,,,,,,,,,,,,,,,612409a1396c7029a198d1a5,21,2022-02-12_12h39.00.853,lexical_decision_task_DD_L5,2021.2.3,Win32,59.99160118,,,,,,,,,,,0.8357,1,,,,,,,,,,,,,,,,,,,,,,,,0.337962981,-0.156481491,0,0,0,,,,,,,CRADLE,C,z,y,./images/CRADLE.png,,,,,,,,,,,,,,,,,,,,,z,1,0.8357,,,,,,,,0,57,57,104,1
,,,,,,,,,,,,,,,,,612409a1396c7029a198d1a5,21,2022-02-12_12h39.00.853,lexical_decision_task_DD_L5,2021.2.3,Win32,59.99160118,,,,,,,,,,,0.9337,1,,,,,,,,,,,,,,,,,,,,,,,,0.337962981,-0.156481491,0,0,0,,,,,,,TOMATO,HB,z,y,./images/TOMATOHB.png,,,,,,,,,,,,,,,,,,,,,z,1,0.9337,,,,,,,,0,58,58,84,1
,,,,,,,,,,,,,,,,,612409a1396c7029a198d1a5,21,2022-02-12_12h39.00.853,lexical_decision_task_DD_L5,2021.2.3,Win32,59.99160118,,,,,,,,,,,0.644,1,,,,,,,,,,,,,,,,,,,,,,,,0.337962981,-0.156481491,0,0,0,,,,,,,ARTIST,LB,m,y,./images/ARTISTLB.png,,,,,,,,,,,,,,,,,,,,,m,1,0.644,,,,,,,,0,59,59,61,1
,,,,,,,,,,,,,,,,,612409a1396c7029a198d1a5,21,2022-02-12_12h39.00.853,lexical_decision_task_DD_L5,2021.2.3,Win32,59.99160118,,,,,,,,,,,0.968,1,,,,,,,,,,,,,,,,,,,,,,,,0.337962981,-0.156481491,0,0,0,,,,,,,PAINT,LB,z,y,./images/PAINTLB.png,,,,,,,,,,,,,,,,,,,,,z,1,0.968,,,,,,,,0,60,60,91,1
,,,,,,,,,,,,,,,,,612409a1396c7029a198d1a5,21,2022-02-12_12h39.00.853,lexical_decision_task_DD_L5,2021.2.3,Win32,59.99160118,,,,,,,,,,,0.7614,1,,,,,,,,,,,,,,,,,,,,,,,,0.337962981,-0.156481491,0,0,0,,,,,,,CHERRY,HB,m,y,./images/CHERRYHB.png,,,,,,,,,,,,,,,,,,,,,m,1,0.7614,,,,,,,,0,61,61,54,1
,,,,,,,,,,,,,,,,,612409a1396c7029a198d1a5,21,2022-02-12_12h39.00.853,lexical_decision_task_DD_L5,2021.2.3,Win32,59.99160118,,,,,,,,,,,0.7114,1,,,,,,,,,,,,,,,,,,,,,,,,0.337962981,-0.156481491,0,0,0,,,,,,,WEASEL,C,z,y,./images/WEASEL.png,,,,,,,,,,,,,,,,,,,,,z,1,0.7114,,,,,,,,0,62,62,164,1
,,,,,,,,,,,,,,,,,612409a1396c7029a198d1a5,21,2022-02-12_12h39.00.853,lexical_decision_task_DD_L5,2021.2.3,Win32,59.99160118,,,,,,,,,,,0.6836,1,,,,,,,,,,,,,,,,,,,,,,,,0.337962981,-0.156481491,0,0,0,,,,,,,SLOPE,HB,m,y,./images/SLOPEHB.png,,,,,,,,,,,,,,,,,,,,,m,1,0.6836,,,,,,,,0,63,63,30,1
,,,,,,,,,,,,,,,,,612409a1396c7029a198d1a5,21,2022-02-12_12h39.00.853,lexical_decision_task_DD_L5,2021.2.3,Win32,59.99160118,,,,,,,,,,,0.6083,1,,,,,,,,,,,,,,,,,,,,,,,,0.337962981,-0.156481491,0,0,0,,,,,,,BUTTER,HB,m,y,./images/BUTTERHB.png,,,,,,,,,,,,,,,,,,,,,m,1,0.6083,,,,,,,,0,64,64,27,1
,,,,,,,,,,,,,,,,,612409a1396c7029a198d1a5,21,2022-02-12_12h39.00.853,lexical_decision_task_DD_L5,2021.2.3,Win32,59.99160118,,,,,,,,,,,0.7412,1,,,,,,,,,,,,,,,,,,,,,,,,0.337962981,-0.156481491,0,0,0,,,,,,,TULIP,C,z,y,./images/TULIP.png,,,,,,,,,,,,,,,,,,,,,z,1,0.7412,,,,,,,,0,65,65,92,1
,,,,,,,,,,,,,,,,,612409a1396c7029a198d1a5,21,2022-02-12_12h39.00.853,lexical_decision_task_DD_L5,2021.2.3,Win32,59.99160118,,,,,,,,,,,0.7568,1,,,,,,,,,,,,,,,,,,,,,,,,0.337962981,-0.156481491,0,0,0,,,,,,,PEBBLE,LB,m,y,./images/PEBBLELB.png,,,,,,,,,,,,,,,,,,,,,m,1,0.7568,,,,,,,,0,66,66,82,1
,,,,,,,,,,,,,,,,,612409a1396c7029a198d1a5,21,2022-02-12_12h39.00.853,lexical_decision_task_DD_L5,2021.2.3,Win32,59.99160118,,,,,,,,,,,0.7745,1,,,,,,,,,,,,,,,,,,,,,,,,0.337962981,-0.156481491,0,0,0,,,,,,,BONNET,C,z,y,./images/BONNET.png,,,,,,,,,,,,,,,,,,,,,z,1,0.7745,,,,,,,,0,67,67,95,1
,,,,,,,,,,,,,,,,,612409a1396c7029a198d1a5,21,2022-02-12_12h39.00.853,lexical_decision_task_DD_L5,2021.2.3,Win32,59.99160118,,,,,,,,,,,0.6175,1,,,,,,,,,,,,,,,,,,,,,,,,0.337962981,-0.156481491,0,0,0,,,,,,,BANANA,LB,m,y,./images/BANANALB.png,,,,,,,,,,,,,,,,,,,,,m,1,0.6175,,,,,,,,0,68,68,70,1
,,,,,,,,,,,,,,,,,612409a1396c7029a198d1a5,21,2022-02-12_12h39.00.853,lexical_decision_task_DD_L5,2021.2.3,Win32,59.99160118,,,,,,,,,,,0.5856,1,,,,,,,,,,,,,,,,,,,,,,,,0.337962981,-0.156481491,0,0,0,,,,,,,FLESH,HB,m,y,./images/FLESHHB.png,,,,,,,,,,,,,,,,,,,,,m,1,0.5856,,,,,,,,0,69,69,24,1
,,,,,,,,,,,,,,,,,612409a1396c7029a198d1a5,21,2022-02-12_12h39.00.853,lexical_decision_task_DD_L5,2021.2.3,Win32,59.99160118,,,,,,,,,,,0.6172,1,,,,,,,,,,,,,,,,,,,,,,,,0.337962981,-0.156481491,0,0,0,,,,,,,STEAK,LB,m,y,./images/STEAKLB.png,,,,,,,,,,,,,,,,,,,,,m,1,0.6172,,,,,,,,0,70,70,31,1
,,,,,,,,,,,,,,,,,612409a1396c7029a198d1a5,21,2022-02-12_12h39.00.853,lexical_decision_task_DD_L5,2021.2.3,Win32,59.99160118,,,,,,,,,,,0.9615,1,,,,,,,,,,,,,,,,,,,,,,,,0.337962981,-0.156481491,0,0,0,,,,,,,CRUMB,C,z,y,./images/CRUMB.png,,,,,,,,,,,,,,,,,,,,,z,1,0.9615,,,,,,,,0,71,71,113,1
,,,,,,,,,,,,,,,,,612409a1396c7029a198d1a5,21,2022-02-12_12h39.00.853,lexical_decision_task_DD_L5,2021.2.3,Win32,59.99160118,,,,,,,,,,,0.7592,0,,,,,,,,,,,,,,,,,,,,,,,,0.337962981,-0.156481491,0,0,0,,,,,,,BOXER,LB,m,y,./images/BOXERLB.png,,,,,,,,,,,,,,,,,,,,,z,0,0.7592,,,,,,,,0,72,72,4,1
,,,,,,,,,,,,,,,,,612409a1396c7029a198d1a5,21,2022-02-12_12h39.00.853,lexical_decision_task_DD_L5,2021.2.3,Win32,59.99160118,,,,,,,,,,,0.6854,1,,,,,,,,,,,,,,,,,,,,,,,,0.337962981,-0.156481491,0,0,0,,,,,,,COOKER,HB,z,y,./images/COOKERHB.png,,,,,,,,,,,,,,,,,,,,,z,1,0.6854,,,,,,,,0,73,73,153,1
,,,,,,,,,,,,,,,,,612409a1396c7029a198d1a5,21,2022-02-12_12h39.00.853,lexical_decision_task_DD_L5,2021.2.3,Win32,59.99160118,,,,,,,,,,,0.661,1,,,,,,,,,,,,,,,,,,,,,,,,0.337962981,-0.156481491,0,0,0,,,,,,,MAGGOT,HB,z,y,./images/MAGGOTHB.png,,,,,,,,,,,,,,,,,,,,,z,1,0.661,,,,,,,,0,74,74,117,1
,,,,,,,,,,,,,,,,,612409a1396c7029a198d1a5,21,2022-02-12_12h39.00.853,lexical_decision_task_DD_L5,2021.2.3,Win32,59.99160118,,,,,,,,,,,0.991,1,,,,,,,,,,,,,,,,,,,,,,,,0.337962981,-0.156481491,0,0,0,,,,,,,BLOKE,HB,m,y,./images/BLOKEHB.png,,,,,,,,,,,,,,,,,,,,,m,1,0.991,,,,,,,,0,75,75,12,1
,,,,,,,,,,,,,,,,,612409a1396c7029a198d1a5,21,2022-02-12_12h39.00.853,lexical_decision_task_DD_L5,2021.2.3,Win32,59.99160118,,,,,,,,,,,0.835,1,,,,,,,,,,,,,,,,,,,,,,,,0.337962981,-0.156481491,0,0,0,,,,,,,SAILOR,LB,z,y,./images/SAILORLB.png,,,,,,,,,,,,,,,,,,,,,z,1,0.835,,,,,,,,0,76,76,151,1
,,,,,,,,,,,,,,,,,612409a1396c7029a198d1a5,21,2022-02-12_12h39.00.853,lexical_decision_task_DD_L5,2021.2.3,Win32,59.99160118,,,,,,,,,,,0.8858,1,,,,,,,,,,,,,,,,,,,,,,,,0.337962981,-0.156481491,0,0,0,,,,,,,SNAKE,LB,m,y,./images/SNAKELB.png,,,,,,,,,,,,,,,,,,,,,m,1,0.8858,,,,,,,,0,77,77,40,1
,,,,,,,,,,,,,,,,,612409a1396c7029a198d1a5,21,2022-02-12_12h39.00.853,lexical_decision_task_DD_L5,2021.2.3,Win32,59.99160118,,,,,,,,,,,0.9249,1,,,,,,,,,,,,,,,,,,,,,,,,0.337962981,-0.156481491,0,0,0,,,,,,,SPINE,C,m,y,./images/SPINE.png,,,,,,,,,,,,,,,,,,,,,m,1,0.9249,,,,,,,,0,78,78,65,1
,,,,,,,,,,,,,,,,,612409a1396c7029a198d1a5,21,2022-02-12_12h39.00.853,lexical_decision_task_DD_L5,2021.2.3,Win32,59.99160118,,,,,,,,,,,0.603,1,,,,,,,,,,,,,,,,,,,,,,,,0.337962981,-0.156481491,0,0,0,,,,,,,TORCH,C,z,y,./images/TORCH.png,,,,,,,,,,,,,,,,,,,,,z,1,0.603,,,,,,,,0,79,79,152,1
,,,,,,,,,,,,,,,,,612409a1396c7029a198d1a5,21,2022-02-12_12h39.00.853,lexical_decision_task_DD_L5,2021.2.3,Win32,59.99160118,,,,,,,,,,,0.69,0,,,,,,,,,,,,,,,,,,,,,,,,0.337962981,-0.156481491,0,0,0,,,,,,,PEACH,C,z,y,./images/PEACH.png,,,,,,,,,,,,,,,,,,,,,m,0,0.69,,,,,,,,0,80,80,119,1
,,,,,,,,,,,,,,,,,612409a1396c7029a198d1a5,21,2022-02-12_12h39.00.853,lexical_decision_task_DD_L5,2021.2.3,Win32,59.99160118,,,,,,,,,,,0.8204,1,,,,,,,,,,,,,,,,,,,,,,,,0.337962981,-0.156481491,0,0,0,,,,,,,BIRTH,LB,z,y,./images/BIRTHLB.png,,,,,,,,,,,,,,,,,,,,,z,1,0.8204,,,,,,,,0,81,81,121,1
,,,,,,,,,,,,,,,,,612409a1396c7029a198d1a5,21,2022-02-12_12h39.00.853,lexical_decision_task_DD_L5,2021.2.3,Win32,59.99160118,,,,,,,,,,,1.3209,0,,,,,,,,,,,,,,,,,,,,,,,,0.337962981,-0.156481491,0,0,0,,,,,,,PEARL,LB,z,y,./images/PEARLLB.png,,,,,,,,,,,,,,,,,,,,,m,0,1.3209,,,,,,,,0,82,82,130,1
,,,,,,,,,,,,,,,,,612409a1396c7029a198d1a5,21,2022-02-12_12h39.00.853,lexical_decision_task_DD_L5,2021.2.3,Win32,59.99160118,,,,,,,,,,,0.8006,1,,,,,,,,,,,,,,,,,,,,,,,,0.425925946,-0.112037046,0,0,0,space,,,,,,BASKET,C,m,y,./images/BASKET.png,62.2587,,,,,,,,,,,,,,,,,,,,m,1,0.8006,,,,,,,,0,83,83,44,1
,,,,,,,,,,,,,,,,,612409a1396c7029a198d1a5,21,2022-02-12_12h39.00.853,lexical_decision_task_DD_L5,2021.2.3,Win32,59.99160118,,,,,,,,,,,0.7388,1,,,,,,,,,,,,,,,,,,,,,,,,0.425925946,-0.112037046,0,0,0,,,,,,,SCREW,HB,z,y,./images/SCREWHB.png,,,,,,,,,,,,,,,,,,,,,z,1,0.7388,,,,,,,,0,84,84,108,1
,,,,,,,,,,,,,,,,,612409a1396c7029a198d1a5,21,2022-02-12_12h39.00.853,lexical_decision_task_DD_L5,2021.2.3,Win32,59.99160118,,,,,,,,,,,0.8008,1,,,,,,,,,,,,,,,,,,,,,,,,0.425925946,-0.112037046,0,0,0,,,,,,,KITTEN,HB,z,y,./images/KITTENHB.png,,,,,,,,,,,,,,,,,,,,,z,1,0.8008,,,,,,,,0,85,85,129,1
,,,,,,,,,,,,,,,,,612409a1396c7029a198d1a5,21,2022-02-12_12h39.00.853,lexical_decision_task_DD_L5,2021.2.3,Win32,59.99160118,,,,,,,,,,,0.6511,1,,,,,,,,,,,,,,,,,,,,,,,,0.425925946,-0.112037046,0,0,0,,,,,,,WALRUS,C,z,y,./images/WALRUS.png,,,,,,,,,,,,,,,,,,,,,z,1,0.6511,,,,,,,,0,86,86,107,1
,,,,,,,,,,,,,,,,,612409a1396c7029a198d1a5,21,2022-02-12_12h39.00.853,lexical_decision_task_DD_L5,2021.2.3,Win32,59.99160118,,,,,,,,,,,0.9773,1,,,,,,,,,,,,,,,,,,,,,,,,0.425925946,-0.112037046,0,0,0,,,,,,,CLIFF,C,m,y,./images/CLIFF.png,,,,,,,,,,,,,,,,,,,,,m,1,0.9773,,,,,,,,0,87,87,8,1
,,,,,,,,,,,,,,,,,612409a1396c7029a198d1a5,21,2022-02-12_12h39.00.853,lexical_decision_task_DD_L5,2021.2.3,Win32,59.99160118,,,,,,,,,,,0.6672,1,,,,,,,,,,,,,,,,,,,,,,,,0.425925946,-0.112037046,0,0,0,,,,,,,STREAM,C,m,y,./images/STREAM.png,,,,,,,,,,,,,,,,,,,,,m,1,0.6672,,,,,,,,0,88,88,41,1
,,,,,,,,,,,,,,,,,612409a1396c7029a198d1a5,21,2022-02-12_12h39.00.853,lexical_decision_task_DD_L5,2021.2.3,Win32,59.99160118,,,,,,,,,,,1.0994,1,,,,,,,,,,,,,,,,,,,,,,,,0.425925946,-0.112037046,0,0,0,,,,,,,MIDGET,LB,m,y,./images/MIDGETLB.png,,,,,,,,,,,,,,,,,,,,,m,1,1.0994,,,,,,,,0,89,89,76,1
,,,,,,,,,,,,,,,,,612409a1396c7029a198d1a5,21,2022-02-12_12h39.00.853,lexical_decision_task_DD_L5,2021.2.3,Win32,59.99160118,,,,,,,,,,,0.7351,0,,,,,,,,,,,,,,,,,,,,,,,,0.425925946,-0.112037046,0,0,0,,,,,,,DRILL,HB,m,y,./images/DRILLHB.png,,,,,,,,,,,,,,,,,,,,,z,0,0.7351,,,,,,,,0,90,90,81,1
,,,,,,,,,,,,,,,,,612409a1396c7029a198d1a5,21,2022-02-12_12h39.00.853,lexical_decision_task_DD_L5,2021.2.3,Win32,59.99160118,,,,,,,,,,,0.8572,1,,,,,,,,,,,,,,,,,,,,,,,,0.425925946,-0.112037046,0,0,0,,,,,,,CANOE,LB,m,y,./images/CANOELB.png,,,,,,,,,,,,,,,,,,,,,m,1,0.8572,,,,,,,,0,91,91,58,1
,,,,,,,,,,,,,,,,,612409a1396c7029a198d1a5,21,2022-02-12_12h39.00.853,lexical_decision_task_DD_L5,2021.2.3,Win32,59.99160118,,,,,,,,,,,0.716,1,,,,,,,,,,,,,,,,,,,,,,,,0.425925946,-0.112037046,0,0,0,,,,,,,JUMPER,C,m,y,./images/JUMPER.png,,,,,,,,,,,,,,,,,,,,,m,1,0.716,,,,,,,,0,92,92,74,1
,,,,,,,,,,,,,,,,,612409a1396c7029a198d1a5,21,2022-02-12_12h39.00.853,lexical_decision_task_DD_L5,2021.2.3,Win32,59.99160118,,,,,,,,,,,0.8275,1,,,,,,,,,,,,,,,,,,,,,,,,0.425925946,-0.112037046,0,0,0,,,,,,,JUNGLE,C,z,y,./images/JUNGLE.png,,,,,,,,,,,,,,,,,,,,,z,1,0.8275,,,,,,,,0,93,93,167,1
,,,,,,,,,,,,,,,,,612409a1396c7029a198d1a5,21,2022-02-12_12h39.00.853,lexical_decision_task_DD_L5,2021.2.3,Win32,59.99160118,,,,,,,,,,,1.1173,1,,,,,,,,,,,,,,,,,,,,,,,,0.425925946,-0.112037046,0,0,0,,,,,,,COUCH,C,z,y,./images/COUCH.png,,,,,,,,,,,,,,,,,,,,,z,1,1.1173,,,,,,,,0,94,94,161,1
,,,,,,,,,,,,,,,,,612409a1396c7029a198d1a5,21,2022-02-12_12h39.00.853,lexical_decision_task_DD_L5,2021.2.3,Win32,59.99160118,,,,,,,,,,,0.6788,1,,,,,,,,,,,,,,,,,,,,,,,,0.425925946,-0.112037046,0,0,0,,,,,,,POKER,LB,m,y,./images/POKERLB.png,,,,,,,,,,,,,,,,,,,,,m,1,0.6788,,,,,,,,0,95,95,67,1
,,,,,,,,,,,,,,,,,612409a1396c7029a198d1a5,21,2022-02-12_12h39.00.853,lexical_decision_task_DD_L5,2021.2.3,Win32,59.99160118,,,,,,,,,,,1.2861,1,,,,,,,,,,,,,,,,,,,,,,,,0.425925946,-0.112037046,0,0,0,,,,,,,CEMENT,C,z,y,./images/CEMENT.png,,,,,,,,,,,,,,,,,,,,,z,1,1.2861,,,,,,,,0,96,96,158,1
,,,,,,,,,,,,,,,,,612409a1396c7029a198d1a5,21,2022-02-12_12h39.00.853,lexical_decision_task_DD_L5,2021.2.3,Win32,59.99160118,,,,,,,,,,,0.8559,0,,,,,,,,,,,,,,,,,,,,,,,,0.425925946,-0.112037046,0,0,0,,,,,,,STAIN,HB,m,y,./images/STAINHB.png,,,,,,,,,,,,,,,,,,,,,z,0,0.8559,,,,,,,,0,97,97,6,1
,,,,,,,,,,,,,,,,,612409a1396c7029a198d1a5,21,2022-02-12_12h39.00.853,lexical_decision_task_DD_L5,2021.2.3,Win32,59.99160118,,,,,,,,,,,1.1787,1,,,,,,,,,,,,,,,,,,,,,,,,0.425925946,-0.112037046,0,0,0,,,,,,,CRATER,HB,m,y,./images/CRATERHB.png,,,,,,,,,,,,,,,,,,,,,m,1,1.1787,,,,,,,,0,98,98,3,1
,,,,,,,,,,,,,,,,,612409a1396c7029a198d1a5,21,2022-02-12_12h39.00.853,lexical_decision_task_DD_L5,2021.2.3,Win32,59.99160118,,,,,,,,,,,1.0941,0,,,,,,,,,,,,,,,,,,,,,,,,0.425925946,-0.112037046,0,0,0,,,,,,,CLOTH,C,m,y,./images/CLOTH.png,,,,,,,,,,,,,,,,,,,,,z,0,1.0941,,,,,,,,0,99,99,23,1
,,,,,,,,,,,,,,,,,612409a1396c7029a198d1a5,21,2022-02-12_12h39.00.853,lexical_decision_task_DD_L5,2021.2.3,Win32,59.99160118,,,,,,,,,,,0.8891,1,,,,,,,,,,,,,,,,,,,,,,,,0.425925946,-0.112037046,0,0,0,,,,,,,PENCE,LB,z,y,./images/PENCELB.png,,,,,,,,,,,,,,,,,,,,,z,1,0.8891,,,,,,,,0,100,100,100,1
,,,,,,,,,,,,,,,,,612409a1396c7029a198d1a5,21,2022-02-12_12h39.00.853,lexical_decision_task_DD_L5,2021.2.3,Win32,59.99160118,,,,,,,,,,,0.7199,1,,,,,,,,,,,,,,,,,,,,,,,,0.425925946,-0.112037046,0,0,0,,,,,,,MAMMAL,C,m,y,./images/MAMMAL.png,,,,,,,,,,,,,,,,,,,,,m,1,0.7199,,,,,,,,0,101,101,62,1
,,,,,,,,,,,,,,,,,612409a1396c7029a198d1a5,21,2022-02-12_12h39.00.853,lexical_decision_task_DD_L5,2021.2.3,Win32,59.99160118,,,,,,,,,,,0.7358,1,,,,,,,,,,,,,,,,,,,,,,,,0.425925946,-0.112037046,0,0,0,,,,,,,SHELF,HB,z,y,./images/SHELFHB.png,,,,,,,,,,,,,,,,,,,,,z,1,0.7358,,,,,,,,0,102,102,123,1
,,,,,,,,,,,,,,,,,612409a1396c7029a198d1a5,21,2022-02-12_12h39.00.853,lexical_decision_task_DD_L5,2021.2.3,Win32,59.99160118,,,,,,,,,,,1.3518,1,,,,,,,,,,,,,,,,,,,,,,,,0.425925946,-0.112037046,0,0,0,,,,,,,JELLY,LB,z,y,./images/JELLYLB.png,,,,,,,,,,,,,,,,,,,,,z,1,1.3518,,,,,,,,0,103,103,148,1
,,,,,,,,,,,,,,,,,612409a1396c7029a198d1a5,21,2022-02-12_12h39.00.853,lexical_decision_task_DD_L5,2021.2.3,Win32,59.99160118,,,,,,,,,,,0.9995,1,,,,,,,,,,,,,,,,,,,,,,,,0.425925946,-0.112037046,0,0,0,,,,,,,TWINS,HB,z,y,./images/TWINSHB.png,,,,,,,,,,,,,,,,,,,,,z,1,0.9995,,,,,,,,0,104,104,144,1
,,,,,,,,,,,,,,,,,612409a1396c7029a198d1a5,21,2022-02-12_12h39.00.853,lexical_decision_task_DD_L5,2021.2.3,Win32,59.99160118,,,,,,,,,,,0.9382,1,,,,,,,,,,,,,,,,,,,,,,,,0.425925946,-0.112037046,0,0,0,,,,,,,SAUCE,HB,m,y,./images/SAUCEHB.png,,,,,,,,,,,,,,,,,,,,,m,1,0.9382,,,,,,,,0,105,105,51,1
,,,,,,,,,,,,,,,,,612409a1396c7029a198d1a5,21,2022-02-12_12h39.00.853,lexical_decision_task_DD_L5,2021.2.3,Win32,59.99160118,,,,,,,,,,,0.6557,0,,,,,,,,,,,,,,,,,,,,,,,,0.425925946,-0.112037046,0,0,0,,,,,,,MOOSE,HB,z,y,./images/MOOSEHB.png,,,,,,,,,,,,,,,,,,,,,m,0,0.6557,,,,,,,,0,106,106,141,1
,,,,,,,,,,,,,,,,,612409a1396c7029a198d1a5,21,2022-02-12_12h39.00.853,lexical_decision_task_DD_L5,2021.2.3,Win32,59.99160118,,,,,,,,,,,0.9374,1,,,,,,,,,,,,,,,,,,,,,,,,0.425925946,-0.112037046,0,0,0,,,,,,,BUNNY,LB,m,y,./images/BUNNYLB.png,,,,,,,,,,,,,,,,,,,,,m,1,0.9374,,,,,,,,0,107,107,13,1
,,,,,,,,,,,,,,,,,612409a1396c7029a198d1a5,21,2022-02-12_12h39.00.853,lexical_decision_task_DD_L5,2021.2.3,Win32,59.99160118,,,,,,,,,,,0.57,1,,,,,,,,,,,,,,,,,,,,,,,,0.425925946,-0.112037046,0,0,0,,,,,,,DIVER,HB,m,y,./images/DIVERHB.png,,,,,,,,,,,,,,,,,,,,,m,1,0.57,,,,,,,,0,108,108,9,1
,,,,,,,,,,,,,,,,,612409a1396c7029a198d1a5,21,2022-02-12_12h39.00.853,lexical_decision_task_DD_L5,2021.2.3,Win32,59.99160118,,,,,,,,,,,0.7691,1,,,,,,,,,,,,,,,,,,,,,,,,0.425925946,-0.112037046,0,0,0,,,,,,,MIRROR,HB,z,y,./images/MIRRORHB.png,,,,,,,,,,,,,,,,,,,,,z,1,0.7691,,,,,,,,0,109,109,147,1
,,,,,,,,,,,,,,,,,612409a1396c7029a198d1a5,21,2022-02-12_12h39.00.853,lexical_decision_task_DD_L5,2021.2.3,Win32,59.99160118,,,,,,,,,,,0.6547,1,,,,,,,,,,,,,,,,,,,,,,,,0.425925946,-0.112037046,0,0,0,,,,,,,BOILER,HB,m,y,./images/BOILERHB.png,,,,,,,,,,,,,,,,,,,,,m,1,0.6547,,,,,,,,0,110,110,36,1
,,,,,,,,,,,,,,,,,612409a1396c7029a198d1a5,21,2022-02-12_12h39.00.853,lexical_decision_task_DD_L5,2021.2.3,Win32,59.99160118,,,,,,,,,,,1.4257,1,,,,,,,,,,,,,,,,,,,,,,,,0.425925946,-0.112037046,0,0,0,,,,,,,PLANK,LB,z,y,./images/PLANKLB.png,,,,,,,,,,,,,,,,,,,,,z,1,1.4257,,,,,,,,0,111,111,85,1
,,,,,,,,,,,,,,,,,612409a1396c7029a198d1a5,21,2022-02-12_12h39.00.853,lexical_decision_task_DD_L5,2021.2.3,Win32,59.99160118,,,,,,,,,,,0.7109,1,,,,,,,,,,,,,,,,,,,,,,,,0.425925946,-0.112037046,0,0,0,,,,,,,WRIST,LB,z,y,./images/WRISTLB.png,,,,,,,,,,,,,,,,,,,,,z,1,0.7109,,,,,,,,0,112,112,109,1
,,,,,,,,,,,,,,,,,612409a1396c7029a198d1a5,21,2022-02-12_12h39.00.853,lexical_decision_task_DD_L5,2021.2.3,Win32,59.99160118,,,,,,,,,,,0.9508,1,,,,,,,,,,,,,,,,,,,,,,,,0.425925946,-0.112037046,0,0,0,,,,,,,STORM,HB,z,y,./images/STORMHB.png,,,,,,,,,,,,,,,,,,,,,z,1,0.9508,,,,,,,,0,113,113,114,1
,,,,,,,,,,,,,,,,,612409a1396c7029a198d1a5,21,2022-02-12_12h39.00.853,lexical_decision_task_DD_L5,2021.2.3,Win32,59.99160118,,,,,,,,,,,0.6514,1,,,,,,,,,,,,,,,,,,,,,,,,0.425925946,-0.112037046,0,0,0,,,,,,,HAMMER,HB,m,y,./images/HAMMERHB.png,,,,,,,,,,,,,,,,,,,,,m,1,0.6514,,,,,,,,0,114,114,75,1
,,,,,,,,,,,,,,,,,612409a1396c7029a198d1a5,21,2022-02-12_12h39.00.853,lexical_decision_task_DD_L5,2021.2.3,Win32,59.99160118,,,,,,,,,,,0.6198,0,,,,,,,,,,,,,,,,,,,,,,,,0.425925946,-0.112037046,0,0,0,,,,,,,FENCE,C,m,y,./images/FENCE.png,,,,,,,,,,,,,,,,,,,,,z,0,0.6198,,,,,,,,0,115,115,14,1
,,,,,,,,,,,,,,,,,612409a1396c7029a198d1a5,21,2022-02-12_12h39.00.853,lexical_decision_task_DD_L5,2021.2.3,Win32,59.99160118,,,,,,,,,,,0.8012,1,,,,,,,,,,,,,,,,,,,,,,,,0.425925946,-0.112037046,0,0,0,,,,,,,BELLY,LB,z,y,./images/BELLYLB.png,,,,,,,,,,,,,,,,,,,,,z,1,0.8012,,,,,,,,0,116,116,94,1
,,,,,,,,,,,,,,,,,612409a1396c7029a198d1a5,21,2022-02-12_12h39.00.853,lexical_decision_task_DD_L5,2021.2.3,Win32,59.99160118,,,,,,,,,,,0.5896,0,,,,,,,,,,,,,,,,,,,,,,,,0.425925946,-0.112037046,0,0,0,,,,,,,PARCEL,HB,m,y,./images/PARCELHB.png,,,,,,,,,,,,,,,,,,,,,z,0,0.5896,,,,,,,,0,117,117,18,1
,,,,,,,,,,,,,,,,,612409a1396c7029a198d1a5,21,2022-02-12_12h39.00.853,lexical_decision_task_DD_L5,2021.2.3,Win32,59.99160118,,,,,,,,,,,0.9537,1,,,,,,,,,,,,,,,,,,,,,,,,0.425925946,-0.112037046,0,0,0,,,,,,,BRUSH,C,m,y,./images/BRUSH.png,,,,,,,,,,,,,,,,,,,,,m,1,0.9537,,,,,,,,0,118,118,59,1
,,,,,,,,,,,,,,,,,612409a1396c7029a198d1a5,21,2022-02-12_12h39.00.853,lexical_decision_task_DD_L5,2021.2.3,Win32,59.99160118,,,,,,,,,,,1.1033,0,,,,,,,,,,,,,,,,,,,,,,,,0.425925946,-0.112037046,0,0,0,,,,,,,POODLE,HB,z,y,./images/POODLEHB.png,,,,,,,,,,,,,,,,,,,,,m,0,1.1033,,,,,,,,0,119,119,165,1
,,,,,,,,,,,,,,,,,612409a1396c7029a198d1a5,21,2022-02-12_12h39.00.853,lexical_decision_task_DD_L5,2021.2.3,Win32,59.99160118,,,,,,,,,,,0.8003,1,,,,,,,,,,,,,,,,,,,,,,,,0.425925946,-0.112037046,0,0,0,,,,,,,CANYON,LB,z,y,./images/CANYONLB.png,,,,,,,,,,,,,,,,,,,,,z,1,0.8003,,,,,,,,0,120,120,118,1
,,,,,,,,,,,,,,,,,612409a1396c7029a198d1a5,21,2022-02-12_12h39.00.853,lexical_decision_task_DD_L5,2021.2.3,Win32,59.99160118,,,,,,,,,,,0.6059,1,,,,,,,,,,,,,,,,,,,,,,,,0.425925946,-0.112037046,0,0,0,,,,,,,RAZOR,LB,m,y,./images/RAZORLB.png,,,,,,,,,,,,,,,,,,,,,m,1,0.6059,,,,,,,,0,121,121,34,1
,,,,,,,,,,,,,,,,,612409a1396c7029a198d1a5,21,2022-02-12_12h39.00.853,lexical_decision_task_DD_L5,2021.2.3,Win32,59.99160118,,,,,,,,,,,0.8108,1,,,,,,,,,,,,,,,,,,,,,,,,0.425925946,-0.112037046,0,0,0,,,,,,,CANDLE,LB,z,y,./images/CANDLELB.png,,,,,,,,,,,,,,,,,,,,,z,1,0.8108,,,,,,,,0,122,122,145,1
,,,,,,,,,,,,,,,,,612409a1396c7029a198d1a5,21,2022-02-12_12h39.00.853,lexical_decision_task_DD_L5,2021.2.3,Win32,59.99160118,,,,,,,,,,,1.0185,1,,,,,,,,,,,,,,,,,,,,,,,,0.425925946,-0.112037046,0,0,0,,,,,,,SQUARE,HB,z,y,./images/SQUAREHB.png,,,,,,,,,,,,,,,,,,,,,z,1,1.0185,,,,,,,,0,123,123,90,1
,,,,,,,,,,,,,,,,,612409a1396c7029a198d1a5,21,2022-02-12_12h39.00.853,lexical_decision_task_DD_L5,2021.2.3,Win32,59.99160118,,,,,,,,,,,1.1287,1,,,,,,,,,,,,,,,,,,,,,,,,0.425925946,-0.112037046,0,0,0,,,,,,,GRANNY,C,m,y,./images/GRANNY.png,,,,,,,,,,,,,,,,,,,,,m,1,1.1287,,,,,,,,0,124,124,20,1
,,,,,,,,,,,,,,,,,612409a1396c7029a198d1a5,21,2022-02-12_12h39.00.853,lexical_decision_task_DD_L5,2021.2.3,Win32,59.99160118,,,,,,,,,,,0.735,1,,,,,,,,,,,,,,,,,,,,,,,,0.425925946,-0.112037046,0,0,0,space,,,,,,DRUMS,LB,z,y,./images/DRUMSLB.png,136.5734,,,,,,,,,,,,,,,,,,,,z,1,0.735,,,,,,,,0,125,125,133,1
,,,,,,,,,,,,,,,,,612409a1396c7029a198d1a5,21,2022-02-12_12h39.00.853,lexical_decision_task_DD_L5,2021.2.3,Win32,59.99160118,,,,,,,,,,,0.662,1,,,,,,,,,,,,,,,,,,,,,,,,0.425925946,-0.112037046,0,0,0,,,,,,,URINE,LB,z,y,./images/URINELB.png,,,,,,,,,,,,,,,,,,,,,z,1,0.662,,,,,,,,0,126,126,154,1
,,,,,,,,,,,,,,,,,612409a1396c7029a198d1a5,21,2022-02-12_12h39.00.853,lexical_decision_task_DD_L5,2021.2.3,Win32,59.99160118,,,,,,,,,,,0.6075,0,,,,,,,,,,,,,,,,,,,,,,,,0.425925946,-0.112037046,0,0,0,,,,,,,VALLEY,C,m,y,./images/VALLEY.png,,,,,,,,,,,,,,,,,,,,,z,0,0.6075,,,,,,,,0,127,127,68,1
,,,,,,,,,,,,,,,,,612409a1396c7029a198d1a5,21,2022-02-12_12h39.00.853,lexical_decision_task_DD_L5,2021.2.3,Win32,59.99160118,,,,,,,,,,,0.5685,1,,,,,,,,,,,,,,,,,,,,,,,,0.425925946,-0.112037046,0,0,0,,,,,,,TRIPOD,HB,z,y,./images/TRIPODHB.png,,,,,,,,,,,,,,,,,,,,,z,1,0.5685,,,,,,,,0,128,128,138,1
,,,,,,,,,,,,,,,,,612409a1396c7029a198d1a5,21,2022-02-12_12h39.00.853,lexical_decision_task_DD_L5,2021.2.3,Win32,59.99160118,,,,,,,,,,,0.7857,1,,,,,,,,,,,,,,,,,,,,,,,,0.425925946,-0.112037046,0,0,0,,,,,,,PACKET,C,z,y,./images/PACKET.png,,,,,,,,,,,,,,,,,,,,,z,1,0.7857,,,,,,,,0,129,129,140,1
,,,,,,,,,,,,,,,,,612409a1396c7029a198d1a5,21,2022-02-12_12h39.00.853,lexical_decision_task_DD_L5,2021.2.3,Win32,59.99160118,,,,,,,,,,,0.562,1,,,,,,,,,,,,,,,,,,,,,,,,0.425925946,-0.112037046,0,0,0,,,,,,,QUILL,LB,z,y,./images/QUILLLB.png,,,,,,,,,,,,,,,,,,,,,z,1,0.562,,,,,,,,0,130,130,115,1
,,,,,,,,,,,,,,,,,612409a1396c7029a198d1a5,21,2022-02-12_12h39.00.853,lexical_decision_task_DD_L5,2021.2.3,Win32,59.99160118,,,,,,,,,,,0.5848,1,,,,,,,,,,,,,,,,,,,,,,,,0.425925946,-0.112037046,0,0,0,,,,,,,PICKLE,C,z,y,./images/PICKLE.png,,,,,,,,,,,,,,,,,,,,,z,1,0.5848,,,,,,,,0,131,131,98,1
