key_resp.keys,key_resp.rt,instr_done_touch.x,instr_done_touch.y,instr_done_touch.leftButton,instr_done_touch.midButton,instr_done_touch.rightButton,instruction_pages.thisRepN,instruction_pages.thisTrialN,instruction_pages.thisN,instruction_pages.thisIndex,instruction_pages.ran,pageN,phase,instruct_text,has_image,instruct_image,participant,age,date,expName,psychopyVersion,OS,frameRate,instr_done_touch.clicked_name,response.keys,response.corr,touch_resp.x,touch_resp.y,touch_resp.leftButton,touch_resp.midButton,touch_resp.rightButton,touch_resp.time,touch_resp.clicked_name,rt,corr,practrials.thisRepN,practrials.thisTrialN,practrials.thisN,practrials.thisIndex,practrials.ran,TrialID,Target,corrAns,response.rt,end_of_practice_trials_pages.thisRepN,end_of_practice_trials_pages.thisTrialN,end_of_practice_trials_pages.thisN,end_of_practice_trials_pages.thisIndex,end_of_practice_trials_pages.ran,key_resp_2.keys,key_resp_2.corr,key_resp_2.rt,targ_click.x,targ_click.y,targ_click.leftButton,targ_click.midButton,targ_click.rightButton,targ_click.time,targ_click.clicked_name,break_done_touch.x,break_done_touch.y,break_done_touch.leftButton,break_done_touch.midButton,break_done_touch.rightButton,break_done_keyboard.keys,maintrials.thisRepN,maintrials.thisTrialN,maintrials.thisN,maintrials.thisIndex,maintrials.ran,string,blur,study,lex,stim_path,break_done_keyboard.rt,mouse_2.x,mouse_2.y,mouse_2.leftButton,mouse_2.midButton,mouse_2.rightButton,mouse_2.clicked_name,slider.response,slider.rt,trials.thisRepN,trials.thisTrialN,trials.thisN,trials.thisIndex,trials.ran,test_instructions.thisRepN,test_instructions.thisTrialN,test_instructions.thisN,test_instructions.thisIndex,test_instructions.ran,key_resp_3.keys,key_resp_3.corr,key_resp_3.rt,test_click.x,test_click.y,test_click.leftButton,test_click.midButton,test_click.rightButton,test_click.time,test_click.clicked_name,test_phase.thisRepN,test_phase.thisTrialN,test_phase.thisN,test_phase.thisIndex,test_phase.ran
space,35.5072,0.168518519,-0.222222222,0,0,0,0,0,0,0,1,1,instructions,"INSTRUCTIONS
At the start of each trial, look at the plus sign  (+) in the center of the screen.  This tells you that a trial is about to begin and where to look. Second, the plus sign will disappear and a string of letters will appear. Your task is to determine if the string of letters is a word or not. If the item is a word press the M key (on keyboard)  or touch the word button (phone/tablet).  If the item is not a word,  press the  Z key (on keyboard)  or touch the nonword button (on phone/tablet). 
Press the space bar or touch  continue.",0,,612d18cff20cd023bd839bde,47,2022-02-12_18h13.35.987,lexical_decision_task_DD_L5,2021.2.3,Win32,60.20107158,,,,,,,,,,,,,,,,,,,,,,,,,,,,,,,,,,,,,,,,,,,,,,,,,,,,,,,,,,,,,,,,,,,,,,,,,,,,,,,,,,,,,,
,,0.042592593,-0.403703704,1,0,0,0,1,1,1,1,2,instructions,"If your device has a keyboard, press the 'Z' key for nonwords and the 'M' key for words.





Press the space bar or touch the button below to continue.",0,keyboard-example.gif,612d18cff20cd023bd839bde,47,2022-02-12_18h13.35.987,lexical_decision_task_DD_L5,2021.2.3,Win32,60.20107158,instr_done_button,,,,,,,,,,,,,,,,,,,,,,,,,,,,,,,,,,,,,,,,,,,,,,,,,,,,,,,,,,,,,,,,,,,,,,,,,,,,,,,,,,,,,
,,0.065740741,-0.409259259,1,0,0,0,2,2,2,1,3,instructions,"If you are using a touchscreen only device, use the buttons on the screen. Do not use the mouse.





Press the space bar or touch the button below to continue.",0,touchscreen-example.gif,612d18cff20cd023bd839bde,47,2022-02-12_18h13.35.987,lexical_decision_task_DD_L5,2021.2.3,Win32,60.20107158,instr_done_button,,,,,,,,,,,,,,,,,,,,,,,,,,,,,,,,,,,,,,,,,,,,,,,,,,,,,,,,,,,,,,,,,,,,,,,,,,,,,,,,,,,,,
,,0.123148148,-0.392592593,1,0,0,0,3,3,3,1,4,instructions,"It is very important that you respond as quickly and accurately as possible, as each letter string will only be on the screen for two seconds. If you do not respond within this time, the message 'Too slow!' will be displayed and the experiment will progress to the next letter string. The first 20 trials will be practice trials and you will receive feedback on your answers. 

Press the space bar or touch the button below to start the practice trials.",0,,612d18cff20cd023bd839bde,47,2022-02-12_18h13.35.987,lexical_decision_task_DD_L5,2021.2.3,Win32,60.20107158,instr_done_button,,,,,,,,,,,,,,,,,,,,,,,,,,,,,,,,,,,,,,,,,,,,,,,,,,,,,,,,,,,,,,,,,,,,,,,,,,,,,,,,,,,,,
,,,,,,,,,,,,,,,,,612d18cff20cd023bd839bde,47,2022-02-12_18h13.35.987,lexical_decision_task_DD_L5,2021.2.3,Win32,60.20107158,,,0,-0.22037037,-0.349074074,1,0,0,1.9557,button_left,1.9557,1,0,0,0,13,1,1001,ROUPET,z,,,,,,,,,,,,,,,,,,,,,,,,,,,,,,,,,,,,,,,,,,,,,,,,,,,,,,,,,,,,,,,,,,
,,,,,,,,,,,,,,,,,612d18cff20cd023bd839bde,47,2022-02-12_18h13.35.987,lexical_decision_task_DD_L5,2021.2.3,Win32,60.20107158,,,0,-0.344444444,-0.361111111,1,0,0,1.393,button_left,1.393,1,0,1,1,12,1,1001,SPRINY,z,,,,,,,,,,,,,,,,,,,,,,,,,,,,,,,,,,,,,,,,,,,,,,,,,,,,,,,,,,,,,,,,,,
,,,,,,,,,,,,,,,,,612d18cff20cd023bd839bde,47,2022-02-12_18h13.35.987,lexical_decision_task_DD_L5,2021.2.3,Win32,60.20107158,,,0,-0.22037037,-0.317592593,1,0,0,1.3942,button_left,1.3942,1,0,2,2,9,1,1001,FARINY,z,,,,,,,,,,,,,,,,,,,,,,,,,,,,,,,,,,,,,,,,,,,,,,,,,,,,,,,,,,,,,,,,,,
,,,,,,,,,,,,,,,,,612d18cff20cd023bd839bde,47,2022-02-12_18h13.35.987,lexical_decision_task_DD_L5,2021.2.3,Win32,60.20107158,,,0,0.365740741,-0.303703704,1,0,0,1.7429,button_right,1.7429,1,0,3,3,4,1,1001,SQUEAK,m,,,,,,,,,,,,,,,,,,,,,,,,,,,,,,,,,,,,,,,,,,,,,,,,,,,,,,,,,,,,,,,,,,
,,,,,,,,,,,,,,,,,612d18cff20cd023bd839bde,47,2022-02-12_18h13.35.987,lexical_decision_task_DD_L5,2021.2.3,Win32,60.20107158,,m,1,,,,,,,,1.6973,1,0,4,4,6,1,1001,ZOMBIE,m,1.6973,,,,,,,,,,,,,,,,,,,,,,,,,,,,,,,,,,,,,,,,,,,,,,,,,,,,,,,,,,,,,,,,,
,,,,,,,,,,,,,,,,,612d18cff20cd023bd839bde,47,2022-02-12_18h13.35.987,lexical_decision_task_DD_L5,2021.2.3,Win32,60.20107158,,z,1,,,,,,,,1.398,1,0,5,5,10,1,1001,INLADE,z,1.398,,,,,,,,,,,,,,,,,,,,,,,,,,,,,,,,,,,,,,,,,,,,,,,,,,,,,,,,,,,,,,,,,
,,,,,,,,,,,,,,,,,612d18cff20cd023bd839bde,47,2022-02-12_18h13.35.987,lexical_decision_task_DD_L5,2021.2.3,Win32,60.20107158,,m,1,,,,,,,,0.9189,1,0,6,6,0,1,1001,UTOPIA,m,0.9189,,,,,,,,,,,,,,,,,,,,,,,,,,,,,,,,,,,,,,,,,,,,,,,,,,,,,,,,,,,,,,,,,
,,,,,,,,,,,,,,,,,612d18cff20cd023bd839bde,47,2022-02-12_18h13.35.987,lexical_decision_task_DD_L5,2021.2.3,Win32,60.20107158,,z,1,,,,,,,,0.775,1,0,7,7,14,1,1001,THRALE,z,0.775,,,,,,,,,,,,,,,,,,,,,,,,,,,,,,,,,,,,,,,,,,,,,,,,,,,,,,,,,,,,,,,,,
,,,,,,,,,,,,,,,,,612d18cff20cd023bd839bde,47,2022-02-12_18h13.35.987,lexical_decision_task_DD_L5,2021.2.3,Win32,60.20107158,,m,1,,,,,,,,0.6707,1,0,8,8,3,1,1001,MATRIX,m,0.6707,,,,,,,,,,,,,,,,,,,,,,,,,,,,,,,,,,,,,,,,,,,,,,,,,,,,,,,,,,,,,,,,,
,,,,,,,,,,,,,,,,,612d18cff20cd023bd839bde,47,2022-02-12_18h13.35.987,lexical_decision_task_DD_L5,2021.2.3,Win32,60.20107158,,m,1,,,,,,,,0.5665,1,0,9,9,2,1,1001,ALMOND,m,0.5665,,,,,,,,,,,,,,,,,,,,,,,,,,,,,,,,,,,,,,,,,,,,,,,,,,,,,,,,,,,,,,,,,
,,,,,,,,,,,,,,,,,612d18cff20cd023bd839bde,47,2022-02-12_18h13.35.987,lexical_decision_task_DD_L5,2021.2.3,Win32,60.20107158,,m,1,,,,,,,,0.5237,1,0,10,10,7,1,1001,VOLUME,m,0.5237,,,,,,,,,,,,,,,,,,,,,,,,,,,,,,,,,,,,,,,,,,,,,,,,,,,,,,,,,,,,,,,,,
,,,,,,,,,,,,,,,,,612d18cff20cd023bd839bde,47,2022-02-12_18h13.35.987,lexical_decision_task_DD_L5,2021.2.3,Win32,60.20107158,,m,1,,,,,,,,0.6504,1,0,11,11,1,1,1001,ADJUST,m,0.6504,,,,,,,,,,,,,,,,,,,,,,,,,,,,,,,,,,,,,,,,,,,,,,,,,,,,,,,,,,,,,,,,,
,,,,,,,,,,,,,,,,,612d18cff20cd023bd839bde,47,2022-02-12_18h13.35.987,lexical_decision_task_DD_L5,2021.2.3,Win32,60.20107158,,z,1,,,,,,,,0.6991,1,0,12,12,8,1,1001,ASLERT,z,0.6991,,,,,,,,,,,,,,,,,,,,,,,,,,,,,,,,,,,,,,,,,,,,,,,,,,,,,,,,,,,,,,,,,
,,,,,,,,,,,,,,,,,612d18cff20cd023bd839bde,47,2022-02-12_18h13.35.987,lexical_decision_task_DD_L5,2021.2.3,Win32,60.20107158,,z,1,,,,,,,,0.8892,1,0,13,13,15,1,1001,WHAISE,z,0.8892,,,,,,,,,,,,,,,,,,,,,,,,,,,,,,,,,,,,,,,,,,,,,,,,,,,,,,,,,,,,,,,,,
,,,,,,,,,,,,,,,,,612d18cff20cd023bd839bde,47,2022-02-12_18h13.35.987,lexical_decision_task_DD_L5,2021.2.3,Win32,60.20107158,,m,1,,,,,,,,0.6199,1,0,14,14,5,1,1001,OBTAIN,m,0.6199,,,,,,,,,,,,,,,,,,,,,,,,,,,,,,,,,,,,,,,,,,,,,,,,,,,,,,,,,,,,,,,,,
,,,,,,,,,,,,,,,,,612d18cff20cd023bd839bde,47,2022-02-12_18h13.35.987,lexical_decision_task_DD_L5,2021.2.3,Win32,60.20107158,,z,1,,,,,,,,0.7844,1,0,15,15,11,1,1001,RASHET,z,0.7844,,,,,,,,,,,,,,,,,,,,,,,,,,,,,,,,,,,,,,,,,,,,,,,,,,,,,,,,,,,,,,,,,
,,0.1,-0.425,1,0,0,,,,,,1,end_of_practice,"You have completed the practice trials. During the experimental trials, you will not receive feedback. 
Before you begin, please ensure that you are in a comfortable and quiet location and will not be disturbed for about 15 minutes, as we cannot use your data if you do not complete all the trials. 
 When you are ready to start the experimental trials, please press space or touch the button below.",,,612d18cff20cd023bd839bde,47,2022-02-12_18h13.35.987,lexical_decision_task_DD_L5,2021.2.3,Win32,60.20107158,instr_done_button,,,,,,,,,,,,,,,,,,,,,0,0,0,0,1,,,,,,,,,,,,,,,,,,,,,,,,,,,,,,,,,,,,,,,,,,,,,,,,,,,,,,,,,,,,
,,,,,,,,,,,,,,,,,612d18cff20cd023bd839bde,47,2022-02-12_18h13.35.987,lexical_decision_task_DD_L5,2021.2.3,Win32,60.20107158,,,,,,,,,,,3.0641,1,,,,,,,,,,,,,,,m,1,3.0641,,,,,,,,0.22962963,-0.318518519,0,0,0,,0,0,0,63,1,BAKER,HB,old,m,./images/BAKERHB.png,,,,,,,,,,,,,,,,,,,,,,,,,,,,,,,,,,
,,,,,,,,,,,,,,,,,612d18cff20cd023bd839bde,47,2022-02-12_18h13.35.987,lexical_decision_task_DD_L5,2021.2.3,Win32,60.20107158,,,,,,,,,,,2.2781,1,,,,,,,,,,,,,,,z,1,2.2781,,,,,,,,0.22962963,-0.318518519,0,0,0,,0,1,1,154,1,THINT,HB,old,z,./images/THINTHB.png,,,,,,,,,,,,,,,,,,,,,,,,,,,,,,,,,,
,,,,,,,,,,,,,,,,,612d18cff20cd023bd839bde,47,2022-02-12_18h13.35.987,lexical_decision_task_DD_L5,2021.2.3,Win32,60.20107158,,,,,,,,,,,2.3588,1,,,,,,,,,,,,,,,z,1,2.3588,,,,,,,,0.22962963,-0.318518519,0,0,0,,0,2,2,100,1,DRIBS,HB,old,z,./images/DRIBSHB.png,,,,,,,,,,,,,,,,,,,,,,,,,,,,,,,,,,
,,,,,,,,,,,,,,,,,612d18cff20cd023bd839bde,47,2022-02-12_18h13.35.987,lexical_decision_task_DD_L5,2021.2.3,Win32,60.20107158,,,,,,,,,,,1.7755,1,,,,,,,,,,,,,,,z,1,1.7755,,,,,,,,0.22962963,-0.318518519,0,0,0,,0,3,3,142,1,PLASK,HB,old,z,./images/PLASKHB.png,,,,,,,,,,,,,,,,,,,,,,,,,,,,,,,,,,
,,,,,,,,,,,,,,,,,612d18cff20cd023bd839bde,47,2022-02-12_18h13.35.987,lexical_decision_task_DD_L5,2021.2.3,Win32,60.20107158,,,,,,,,,,,1.8998,1,,,,,,,,,,,,,,,m,1,1.8998,,,,,,,,0.22962963,-0.318518519,0,0,0,,0,4,4,41,1,STREAM,C,old,m,./images/STREAM.png,,,,,,,,,,,,,,,,,,,,,,,,,,,,,,,,,,
,,,,,,,,,,,,,,,,,612d18cff20cd023bd839bde,47,2022-02-12_18h13.35.987,lexical_decision_task_DD_L5,2021.2.3,Win32,60.20107158,,,,,,,,,,,1.4187,1,,,,,,,,,,,,,,,z,1,1.4187,,,,,,,,0.22962963,-0.318518519,0,0,0,,0,5,5,125,1,MOOKY,LB,old,z,./images/MOOKYLB.png,,,,,,,,,,,,,,,,,,,,,,,,,,,,,,,,,,
,,,,,,,,,,,,,,,,,612d18cff20cd023bd839bde,47,2022-02-12_18h13.35.987,lexical_decision_task_DD_L5,2021.2.3,Win32,60.20107158,,,,,,,,,,,0.9263,1,,,,,,,,,,,,,,,m,1,0.9263,,,,,,,,0.22962963,-0.318518519,0,0,0,,0,6,6,62,1,MAMMAL,C,old,m,./images/MAMMAL.png,,,,,,,,,,,,,,,,,,,,,,,,,,,,,,,,,,
,,,,,,,,,,,,,,,,,612d18cff20cd023bd839bde,47,2022-02-12_18h13.35.987,lexical_decision_task_DD_L5,2021.2.3,Win32,60.20107158,,,,,,,,,,,0.8654,1,,,,,,,,,,,,,,,m,1,0.8654,,,,,,,,0.22962963,-0.318518519,0,0,0,,0,7,7,58,1,CANOE,LB,old,m,./images/CANOELB.png,,,,,,,,,,,,,,,,,,,,,,,,,,,,,,,,,,
,,,,,,,,,,,,,,,,,612d18cff20cd023bd839bde,47,2022-02-12_18h13.35.987,lexical_decision_task_DD_L5,2021.2.3,Win32,60.20107158,,,,,,,,,,,1.1593,1,,,,,,,,,,,,,,,m,1,1.1593,,,,,,,,0.22962963,-0.318518519,0,0,0,,0,8,8,82,1,PEBBLE,LB,old,m,./images/PEBBLELB.png,,,,,,,,,,,,,,,,,,,,,,,,,,,,,,,,,,
,,,,,,,,,,,,,,,,,612d18cff20cd023bd839bde,47,2022-02-12_18h13.35.987,lexical_decision_task_DD_L5,2021.2.3,Win32,60.20107158,,,,,,,,,,,0.8761,1,,,,,,,,,,,,,,,z,1,0.8761,,,,,,,,0.22962963,-0.318518519,0,0,0,,0,9,9,96,1,KEAMS,C,old,z,./images/KEAMS.png,,,,,,,,,,,,,,,,,,,,,,,,,,,,,,,,,,
,,,,,,,,,,,,,,,,,612d18cff20cd023bd839bde,47,2022-02-12_18h13.35.987,lexical_decision_task_DD_L5,2021.2.3,Win32,60.20107158,,,,,,,,,,,1.0096,1,,,,,,,,,,,,,,,z,1,1.0096,,,,,,,,0.22962963,-0.318518519,0,0,0,,0,10,10,110,1,CRUNK,LB,old,z,./images/CRUNKLB.png,,,,,,,,,,,,,,,,,,,,,,,,,,,,,,,,,,
,,,,,,,,,,,,,,,,,612d18cff20cd023bd839bde,47,2022-02-12_18h13.35.987,lexical_decision_task_DD_L5,2021.2.3,Win32,60.20107158,,,,,,,,,,,0.8539,1,,,,,,,,,,,,,,,z,1,0.8539,,,,,,,,0.22962963,-0.318518519,0,0,0,,0,11,11,153,1,CLUPS,C,old,z,./images/CLUPS.png,,,,,,,,,,,,,,,,,,,,,,,,,,,,,,,,,,
,,,,,,,,,,,,,,,,,612d18cff20cd023bd839bde,47,2022-02-12_18h13.35.987,lexical_decision_task_DD_L5,2021.2.3,Win32,60.20107158,,,,,,,,,,,0.7268,1,,,,,,,,,,,,,,,z,1,0.7268,,,,,,,,0.22962963,-0.318518519,0,0,0,,0,12,12,87,1,TRING,C,old,z,./images/TRING.png,,,,,,,,,,,,,,,,,,,,,,,,,,,,,,,,,,
,,,,,,,,,,,,,,,,,612d18cff20cd023bd839bde,47,2022-02-12_18h13.35.987,lexical_decision_task_DD_L5,2021.2.3,Win32,60.20107158,,,,,,,,,,,2.3058,1,,,,,,,,,,,,,,,z,1,2.3058,,,,,,,,0.22962963,-0.318518519,0,0,0,,0,13,13,157,1,INLER,HB,old,z,./images/INLERHB.png,,,,,,,,,,,,,,,,,,,,,,,,,,,,,,,,,,
,,,,,,,,,,,,,,,,,612d18cff20cd023bd839bde,47,2022-02-12_18h13.35.987,lexical_decision_task_DD_L5,2021.2.3,Win32,60.20107158,,,,,,,,,,,1.2001,1,,,,,,,,,,,,,,,z,1,1.2001,,,,,,,,0.22962963,-0.318518519,0,0,0,,0,14,14,140,1,DOVET,LB,old,z,./images/DOVETLB.png,,,,,,,,,,,,,,,,,,,,,,,,,,,,,,,,,,
,,,,,,,,,,,,,,,,,612d18cff20cd023bd839bde,47,2022-02-12_18h13.35.987,lexical_decision_task_DD_L5,2021.2.3,Win32,60.20107158,,,,,,,,,,,0.8575,1,,,,,,,,,,,,,,,m,1,0.8575,,,,,,,,0.22962963,-0.318518519,0,0,0,,0,15,15,23,1,CLOTH,C,old,m,./images/CLOTH.png,,,,,,,,,,,,,,,,,,,,,,,,,,,,,,,,,,
,,,,,,,,,,,,,,,,,612d18cff20cd023bd839bde,47,2022-02-12_18h13.35.987,lexical_decision_task_DD_L5,2021.2.3,Win32,60.20107158,,,,,,,,,,,1.2318,1,,,,,,,,,,,,,,,z,1,1.2318,,,,,,,,0.22962963,-0.318518519,0,0,0,,0,16,16,118,1,BAVEL,HB,old,z,./images/BAVELHB.png,,,,,,,,,,,,,,,,,,,,,,,,,,,,,,,,,,
,,,,,,,,,,,,,,,,,612d18cff20cd023bd839bde,47,2022-02-12_18h13.35.987,lexical_decision_task_DD_L5,2021.2.3,Win32,60.20107158,,,,,,,,,,,0.7367,1,,,,,,,,,,,,,,,m,1,0.7367,,,,,,,,0.22962963,-0.318518519,0,0,0,,0,17,17,5,1,BAMBOO,C,old,m,./images/BAMBOO.png,,,,,,,,,,,,,,,,,,,,,,,,,,,,,,,,,,
,,,,,,,,,,,,,,,,,612d18cff20cd023bd839bde,47,2022-02-12_18h13.35.987,lexical_decision_task_DD_L5,2021.2.3,Win32,60.20107158,,,,,,,,,,,0.7511,1,,,,,,,,,,,,,,,z,1,0.7511,,,,,,,,0.22962963,-0.318518519,0,0,0,,0,18,18,135,1,JOODY,C,old,z,./images/JOODY.png,,,,,,,,,,,,,,,,,,,,,,,,,,,,,,,,,,
,,,,,,,,,,,,,,,,,612d18cff20cd023bd839bde,47,2022-02-12_18h13.35.987,lexical_decision_task_DD_L5,2021.2.3,Win32,60.20107158,,,,,,,,,,,0.7472,1,,,,,,,,,,,,,,,z,1,0.7472,,,,,,,,0.22962963,-0.318518519,0,0,0,,0,19,19,117,1,STEEG,C,old,z,./images/STEEG.png,,,,,,,,,,,,,,,,,,,,,,,,,,,,,,,,,,
,,,,,,,,,,,,,,,,,612d18cff20cd023bd839bde,47,2022-02-12_18h13.35.987,lexical_decision_task_DD_L5,2021.2.3,Win32,60.20107158,,,,,,,,,,,0.7934,1,,,,,,,,,,,,,,,z,1,0.7934,,,,,,,,0.22962963,-0.318518519,0,0,0,,0,20,20,129,1,PRANS,C,old,z,./images/PRANS.png,,,,,,,,,,,,,,,,,,,,,,,,,,,,,,,,,,
,,,,,,,,,,,,,,,,,612d18cff20cd023bd839bde,47,2022-02-12_18h13.35.987,lexical_decision_task_DD_L5,2021.2.3,Win32,60.20107158,,,,,,,,,,,0.8996,1,,,,,,,,,,,,,,,z,1,0.8996,,,,,,,,0.22962963,-0.318518519,0,0,0,,0,21,21,101,1,GLEET,LB,old,z,./images/GLEETLB.png,,,,,,,,,,,,,,,,,,,,,,,,,,,,,,,,,,
,,,,,,,,,,,,,,,,,612d18cff20cd023bd839bde,47,2022-02-12_18h13.35.987,lexical_decision_task_DD_L5,2021.2.3,Win32,60.20107158,,,,,,,,,,,0.7366,1,,,,,,,,,,,,,,,m,1,0.7366,,,,,,,,0.22962963,-0.318518519,0,0,0,,0,22,22,80,1,PLANET,C,old,m,./images/PLANET.png,,,,,,,,,,,,,,,,,,,,,,,,,,,,,,,,,,
,,,,,,,,,,,,,,,,,612d18cff20cd023bd839bde,47,2022-02-12_18h13.35.987,lexical_decision_task_DD_L5,2021.2.3,Win32,60.20107158,,,,,,,,,,,1.4313,1,,,,,,,,,,,,,,,z,1,1.4313,,,,,,,,0.22962963,-0.318518519,0,0,0,,0,23,23,160,1,VEETS,HB,old,z,./images/VEETSHB.png,,,,,,,,,,,,,,,,,,,,,,,,,,,,,,,,,,
,,,,,,,,,,,,,,,,,612d18cff20cd023bd839bde,47,2022-02-12_18h13.35.987,lexical_decision_task_DD_L5,2021.2.3,Win32,60.20107158,,,,,,,,,,,0.7269,1,,,,,,,,,,,,,,,z,1,0.7269,,,,,,,,0.22962963,-0.318518519,0,0,0,,0,24,24,147,1,ZOLES,C,old,z,./images/ZOLES.png,,,,,,,,,,,,,,,,,,,,,,,,,,,,,,,,,,
,,,,,,,,,,,,,,,,,612d18cff20cd023bd839bde,47,2022-02-12_18h13.35.987,lexical_decision_task_DD_L5,2021.2.3,Win32,60.20107158,,,,,,,,,,,0.8608,1,,,,,,,,,,,,,,,z,1,0.8608,,,,,,,,0.22962963,-0.318518519,0,0,0,,0,25,25,146,1,MOOST,LB,old,z,./images/MOOSTLB.png,,,,,,,,,,,,,,,,,,,,,,,,,,,,,,,,,,
,,,,,,,,,,,,,,,,,612d18cff20cd023bd839bde,47,2022-02-12_18h13.35.987,lexical_decision_task_DD_L5,2021.2.3,Win32,60.20107158,,,,,,,,,,,1.4428,1,,,,,,,,,,,,,,,m,1,1.4428,,,,,,,,0.22962963,-0.318518519,0,0,0,,0,26,26,48,1,SHIELD,HB,old,m,./images/SHIELDHB.png,,,,,,,,,,,,,,,,,,,,,,,,,,,,,,,,,,
,,,,,,,,,,,,,,,,,612d18cff20cd023bd839bde,47,2022-02-12_18h13.35.987,lexical_decision_task_DD_L5,2021.2.3,Win32,60.20107158,,,,,,,,,,,0.8465,1,,,,,,,,,,,,,,,m,1,0.8465,,,,,,,,0.22962963,-0.318518519,0,0,0,,0,27,27,54,1,CHERRY,HB,old,m,./images/CHERRYHB.png,,,,,,,,,,,,,,,,,,,,,,,,,,,,,,,,,,
,,,,,,,,,,,,,,,,,612d18cff20cd023bd839bde,47,2022-02-12_18h13.35.987,lexical_decision_task_DD_L5,2021.2.3,Win32,60.20107158,,,,,,,,,,,0.8473,1,,,,,,,,,,,,,,,z,1,0.8473,,,,,,,,0.22962963,-0.318518519,0,0,0,,0,28,28,122,1,BLOOT,LB,old,z,./images/BLOOTLB.png,,,,,,,,,,,,,,,,,,,,,,,,,,,,,,,,,,
,,,,,,,,,,,,,,,,,612d18cff20cd023bd839bde,47,2022-02-12_18h13.35.987,lexical_decision_task_DD_L5,2021.2.3,Win32,60.20107158,,,,,,,,,,,1.0039,1,,,,,,,,,,,,,,,m,1,1.0039,,,,,,,,0.22962963,-0.318518519,0,0,0,,0,29,29,18,1,PARCEL,HB,old,m,./images/PARCELHB.png,,,,,,,,,,,,,,,,,,,,,,,,,,,,,,,,,,
,,,,,,,,,,,,,,,,,612d18cff20cd023bd839bde,47,2022-02-12_18h13.35.987,lexical_decision_task_DD_L5,2021.2.3,Win32,60.20107158,,,,,,,,,,,0.6771,1,,,,,,,,,,,,,,,m,1,0.6771,,,,,,,,0.22962963,-0.318518519,0,0,0,,0,30,30,22,1,CLOWN,LB,old,m,./images/CLOWNLB.png,,,,,,,,,,,,,,,,,,,,,,,,,,,,,,,,,,
,,,,,,,,,,,,,,,,,612d18cff20cd023bd839bde,47,2022-02-12_18h13.35.987,lexical_decision_task_DD_L5,2021.2.3,Win32,60.20107158,,,,,,,,,,,0.6345,0,,,,,,,,,,,,,,,z,0,0.6345,,,,,,,,0.22962963,-0.318518519,0,0,0,,0,31,31,68,1,VALLEY,C,old,m,./images/VALLEY.png,,,,,,,,,,,,,,,,,,,,,,,,,,,,,,,,,,
,,,,,,,,,,,,,,,,,612d18cff20cd023bd839bde,47,2022-02-12_18h13.35.987,lexical_decision_task_DD_L5,2021.2.3,Win32,60.20107158,,,,,,,,,,,1.8418,1,,,,,,,,,,,,,,,m,1,1.8418,,,,,,,,0.22962963,-0.318518519,0,0,0,,0,32,32,81,1,DRILL,HB,old,m,./images/DRILLHB.png,,,,,,,,,,,,,,,,,,,,,,,,,,,,,,,,,,
,,,,,,,,,,,,,,,,,612d18cff20cd023bd839bde,47,2022-02-12_18h13.35.987,lexical_decision_task_DD_L5,2021.2.3,Win32,60.20107158,,,,,,,,,,,0.7834,1,,,,,,,,,,,,,,,m,1,0.7834,,,,,,,,0.22962963,-0.318518519,0,0,0,,0,33,33,71,1,BUBBLE,C,old,m,./images/BUBBLE.png,,,,,,,,,,,,,,,,,,,,,,,,,,,,,,,,,,
,,,,,,,,,,,,,,,,,612d18cff20cd023bd839bde,47,2022-02-12_18h13.35.987,lexical_decision_task_DD_L5,2021.2.3,Win32,60.20107158,,,,,,,,,,,0.6716,1,,,,,,,,,,,,,,,m,1,0.6716,,,,,,,,0.22962963,-0.318518519,0,0,0,,0,34,34,70,1,BANANA,LB,old,m,./images/BANANALB.png,,,,,,,,,,,,,,,,,,,,,,,,,,,,,,,,,,
,,,,,,,,,,,,,,,,,612d18cff20cd023bd839bde,47,2022-02-12_18h13.35.987,lexical_decision_task_DD_L5,2021.2.3,Win32,60.20107158,,,,,,,,,,,0.7384,1,,,,,,,,,,,,,,,m,1,0.7384,,,,,,,,0.22962963,-0.318518519,0,0,0,,0,35,35,28,1,CASINO,LB,old,m,./images/CASINOLB.png,,,,,,,,,,,,,,,,,,,,,,,,,,,,,,,,,,
,,,,,,,,,,,,,,,,,612d18cff20cd023bd839bde,47,2022-02-12_18h13.35.987,lexical_decision_task_DD_L5,2021.2.3,Win32,60.20107158,,,,,,,,,,,1.3755,1,,,,,,,,,,,,,,,z,1,1.3755,,,,,,,,0.22962963,-0.318518519,0,0,0,,0,36,36,120,1,RINED,C,old,z,./images/RINED.png,,,,,,,,,,,,,,,,,,,,,,,,,,,,,,,,,,
,,,,,,,,,,,,,,,,,612d18cff20cd023bd839bde,47,2022-02-12_18h13.35.987,lexical_decision_task_DD_L5,2021.2.3,Win32,60.20107158,,,,,,,,,,,2.2288,1,,,,,,,,,,,,,,,z,1,2.2288,,,,,,,,0.22962963,-0.318518519,0,0,0,,0,37,37,151,1,TINKY,HB,old,z,./images/TINKYHB.png,,,,,,,,,,,,,,,,,,,,,,,,,,,,,,,,,,
,,,,,,,,,,,,,,,,,612d18cff20cd023bd839bde,47,2022-02-12_18h13.35.987,lexical_decision_task_DD_L5,2021.2.3,Win32,60.20107158,,,,,,,,,,,0.7835,1,,,,,,,,,,,,,,,m,1,0.7835,,,,,,,,0.22962963,-0.318518519,0,0,0,,0,38,38,19,1,DONKEY,LB,old,m,./images/DONKEYLB.png,,,,,,,,,,,,,,,,,,,,,,,,,,,,,,,,,,
,,,,,,,,,,,,,,,,,612d18cff20cd023bd839bde,47,2022-02-12_18h13.35.987,lexical_decision_task_DD_L5,2021.2.3,Win32,60.20107158,,,,,,,,,,,0.8418,1,,,,,,,,,,,,,,,m,1,0.8418,,,,,,,,0.22962963,-0.318518519,0,0,0,,0,39,39,49,1,BISHOP,LB,old,m,./images/BISHOPLB.png,,,,,,,,,,,,,,,,,,,,,,,,,,,,,,,,,,
,,,,,,,,,,,,,,,,,612d18cff20cd023bd839bde,47,2022-02-12_18h13.35.987,lexical_decision_task_DD_L5,2021.2.3,Win32,60.20107158,,,,,,,,,,,0.7645,1,,,,,,,,,,,,,,,m,1,0.7645,,,,,,,,0.22962963,-0.318518519,0,0,0,,0,40,40,7,1,WAGON,LB,old,m,./images/WAGONLB.png,,,,,,,,,,,,,,,,,,,,,,,,,,,,,,,,,,
,,,,,,,,,,,,,,,,,612d18cff20cd023bd839bde,47,2022-02-12_18h13.35.987,lexical_decision_task_DD_L5,2021.2.3,Win32,60.20107158,,,,,,,,,,,1.2025,1,,,,,,,,,,,,,,,z,1,1.2025,,,,,,,,0.22962963,-0.318518519,0,0,0,space,0,41,41,123,1,SEDGE,C,old,z,./images/SEDGE.png,44.4319,,,,,,,,,,,,,,,,,,,,,,,,,,,,,,,,,
,,,,,,,,,,,,,,,,,612d18cff20cd023bd839bde,47,2022-02-12_18h13.35.987,lexical_decision_task_DD_L5,2021.2.3,Win32,60.20107158,,,,,,,,,,,1.3755,1,,,,,,,,,,,,,,,m,1,1.3755,,,,,,,,0.22962963,-0.318518519,0,0,0,,0,42,42,33,1,SAUNA,HB,old,m,./images/SAUNAHB.png,,,,,,,,,,,,,,,,,,,,,,,,,,,,,,,,,,
,,,,,,,,,,,,,,,,,612d18cff20cd023bd839bde,47,2022-02-12_18h13.35.987,lexical_decision_task_DD_L5,2021.2.3,Win32,60.20107158,,,,,,,,,,,0.6142,1,,,,,,,,,,,,,,,m,1,0.6142,,,,,,,,0.22962963,-0.318518519,0,0,0,,0,43,43,52,1,DESERT,LB,old,m,./images/DESERTLB.png,,,,,,,,,,,,,,,,,,,,,,,,,,,,,,,,,,
,,,,,,,,,,,,,,,,,612d18cff20cd023bd839bde,47,2022-02-12_18h13.35.987,lexical_decision_task_DD_L5,2021.2.3,Win32,60.20107158,,,,,,,,,,,1.6244,1,,,,,,,,,,,,,,,z,1,1.6244,,,,,,,,0.22962963,-0.318518519,0,0,0,,0,44,44,163,1,GAMBA,HB,old,z,./images/GAMBAHB.png,,,,,,,,,,,,,,,,,,,,,,,,,,,,,,,,,,
,,,,,,,,,,,,,,,,,612d18cff20cd023bd839bde,47,2022-02-12_18h13.35.987,lexical_decision_task_DD_L5,2021.2.3,Win32,60.20107158,,,,,,,,,,,0.6315,1,,,,,,,,,,,,,,,m,1,0.6315,,,,,,,,0.22962963,-0.318518519,0,0,0,,0,45,45,83,1,WHISKY,C,old,m,./images/WHISKY.png,,,,,,,,,,,,,,,,,,,,,,,,,,,,,,,,,,
,,,,,,,,,,,,,,,,,612d18cff20cd023bd839bde,47,2022-02-12_18h13.35.987,lexical_decision_task_DD_L5,2021.2.3,Win32,60.20107158,,,,,,,,,,,0.6528,1,,,,,,,,,,,,,,,m,1,0.6528,,,,,,,,0.22962963,-0.318518519,0,0,0,,0,46,46,29,1,PISTOL,C,old,m,./images/PISTOL.png,,,,,,,,,,,,,,,,,,,,,,,,,,,,,,,,,,
,,,,,,,,,,,,,,,,,612d18cff20cd023bd839bde,47,2022-02-12_18h13.35.987,lexical_decision_task_DD_L5,2021.2.3,Win32,60.20107158,,,,,,,,,,,0.7336,1,,,,,,,,,,,,,,,z,1,0.7336,,,,,,,,0.22962963,-0.318518519,0,0,0,,0,47,47,156,1,HIXES,C,old,z,./images/HIXES.png,,,,,,,,,,,,,,,,,,,,,,,,,,,,,,,,,,
,,,,,,,,,,,,,,,,,612d18cff20cd023bd839bde,47,2022-02-12_18h13.35.987,lexical_decision_task_DD_L5,2021.2.3,Win32,60.20107158,,,,,,,,,,,0.8516,1,,,,,,,,,,,,,,,z,1,0.8516,,,,,,,,0.22962963,-0.318518519,0,0,0,,0,48,48,89,1,DRIEK,LB,old,z,./images/DRIEKLB.png,,,,,,,,,,,,,,,,,,,,,,,,,,,,,,,,,,
,,,,,,,,,,,,,,,,,612d18cff20cd023bd839bde,47,2022-02-12_18h13.35.987,lexical_decision_task_DD_L5,2021.2.3,Win32,60.20107158,,,,,,,,,,,0.8656,1,,,,,,,,,,,,,,,m,1,0.8656,,,,,,,,0.22962963,-0.318518519,0,0,0,,0,49,49,76,1,MIDGET,LB,old,m,./images/MIDGETLB.png,,,,,,,,,,,,,,,,,,,,,,,,,,,,,,,,,,
,,,,,,,,,,,,,,,,,612d18cff20cd023bd839bde,47,2022-02-12_18h13.35.987,lexical_decision_task_DD_L5,2021.2.3,Win32,60.20107158,,,,,,,,,,,0.5801,1,,,,,,,,,,,,,,,m,1,0.5801,,,,,,,,0.22962963,-0.318518519,0,0,0,,0,50,50,16,1,GRAPE,LB,old,m,./images/GRAPELB.png,,,,,,,,,,,,,,,,,,,,,,,,,,,,,,,,,,
,,,,,,,,,,,,,,,,,612d18cff20cd023bd839bde,47,2022-02-12_18h13.35.987,lexical_decision_task_DD_L5,2021.2.3,Win32,60.20107158,,,,,,,,,,,0.6294,1,,,,,,,,,,,,,,,m,1,0.6294,,,,,,,,0.22962963,-0.318518519,0,0,0,,0,51,51,46,1,MUMMY,LB,old,m,./images/MUMMYLB.png,,,,,,,,,,,,,,,,,,,,,,,,,,,,,,,,,,
,,,,,,,,,,,,,,,,,612d18cff20cd023bd839bde,47,2022-02-12_18h13.35.987,lexical_decision_task_DD_L5,2021.2.3,Win32,60.20107158,,,,,,,,,,,0.96,1,,,,,,,,,,,,,,,m,1,0.96,,,,,,,,0.22962963,-0.318518519,0,0,0,,0,52,52,42,1,CHAIN,HB,old,m,./images/CHAINHB.png,,,,,,,,,,,,,,,,,,,,,,,,,,,,,,,,,,
,,,,,,,,,,,,,,,,,612d18cff20cd023bd839bde,47,2022-02-12_18h13.35.987,lexical_decision_task_DD_L5,2021.2.3,Win32,60.20107158,,,,,,,,,,,0.5497,1,,,,,,,,,,,,,,,m,1,0.5497,,,,,,,,0.22962963,-0.318518519,0,0,0,,0,53,53,11,1,MEDAL,C,old,m,./images/MEDAL.png,,,,,,,,,,,,,,,,,,,,,,,,,,,,,,,,,,
,,,,,,,,,,,,,,,,,612d18cff20cd023bd839bde,47,2022-02-12_18h13.35.987,lexical_decision_task_DD_L5,2021.2.3,Win32,60.20107158,,,,,,,,,,,0.6584,1,,,,,,,,,,,,,,,z,1,0.6584,,,,,,,,0.22962963,-0.318518519,0,0,0,,0,54,54,105,1,MOKER,C,old,z,./images/MOKER.png,,,,,,,,,,,,,,,,,,,,,,,,,,,,,,,,,,
,,,,,,,,,,,,,,,,,612d18cff20cd023bd839bde,47,2022-02-12_18h13.35.987,lexical_decision_task_DD_L5,2021.2.3,Win32,60.20107158,,,,,,,,,,,0.6534,1,,,,,,,,,,,,,,,m,1,0.6534,,,,,,,,0.22962963,-0.318518519,0,0,0,,0,55,55,31,1,STEAK,LB,old,m,./images/STEAKLB.png,,,,,,,,,,,,,,,,,,,,,,,,,,,,,,,,,,
,,,,,,,,,,,,,,,,,612d18cff20cd023bd839bde,47,2022-02-12_18h13.35.987,lexical_decision_task_DD_L5,2021.2.3,Win32,60.20107158,,,,,,,,,,,0.6283,1,,,,,,,,,,,,,,,m,1,0.6283,,,,,,,,0.22962963,-0.318518519,0,0,0,,0,56,56,4,1,BOXER,LB,old,m,./images/BOXERLB.png,,,,,,,,,,,,,,,,,,,,,,,,,,,,,,,,,,
,,,,,,,,,,,,,,,,,612d18cff20cd023bd839bde,47,2022-02-12_18h13.35.987,lexical_decision_task_DD_L5,2021.2.3,Win32,60.20107158,,,,,,,,,,,0.6127,1,,,,,,,,,,,,,,,m,1,0.6127,,,,,,,,0.22962963,-0.318518519,0,0,0,,0,57,57,50,1,PILOT,C,old,m,./images/PILOT.png,,,,,,,,,,,,,,,,,,,,,,,,,,,,,,,,,,
,,,,,,,,,,,,,,,,,612d18cff20cd023bd839bde,47,2022-02-12_18h13.35.987,lexical_decision_task_DD_L5,2021.2.3,Win32,60.20107158,,,,,,,,,,,1.2768,1,,,,,,,,,,,,,,,z,1,1.2768,,,,,,,,0.22962963,-0.318518519,0,0,0,,0,58,58,121,1,CEERS,HB,old,z,./images/CEERSHB.png,,,,,,,,,,,,,,,,,,,,,,,,,,,,,,,,,,
,,,,,,,,,,,,,,,,,612d18cff20cd023bd839bde,47,2022-02-12_18h13.35.987,lexical_decision_task_DD_L5,2021.2.3,Win32,60.20107158,,,,,,,,,,,1.0525,1,,,,,,,,,,,,,,,m,1,1.0525,,,,,,,,0.22962963,-0.318518519,0,0,0,,0,59,59,47,1,LAGOON,C,old,m,./images/LAGOON.png,,,,,,,,,,,,,,,,,,,,,,,,,,,,,,,,,,
,,,,,,,,,,,,,,,,,612d18cff20cd023bd839bde,47,2022-02-12_18h13.35.987,lexical_decision_task_DD_L5,2021.2.3,Win32,60.20107158,,,,,,,,,,,0.5876,1,,,,,,,,,,,,,,,m,1,0.5876,,,,,,,,0.22962963,-0.318518519,0,0,0,,0,60,60,17,1,PARADE,C,old,m,./images/PARADE.png,,,,,,,,,,,,,,,,,,,,,,,,,,,,,,,,,,
,,,,,,,,,,,,,,,,,612d18cff20cd023bd839bde,47,2022-02-12_18h13.35.987,lexical_decision_task_DD_L5,2021.2.3,Win32,60.20107158,,,,,,,,,,,0.7276,1,,,,,,,,,,,,,,,z,1,0.7276,,,,,,,,0.22962963,-0.318518519,0,0,0,,0,61,61,92,1,PAIMS,LB,old,z,./images/PAIMSLB.png,,,,,,,,,,,,,,,,,,,,,,,,,,,,,,,,,,
,,,,,,,,,,,,,,,,,612d18cff20cd023bd839bde,47,2022-02-12_18h13.35.987,lexical_decision_task_DD_L5,2021.2.3,Win32,60.20107158,,,,,,,,,,,0.9272,1,,,,,,,,,,,,,,,m,1,0.9272,,,,,,,,0.22962963,-0.318518519,0,0,0,,0,62,62,37,1,TIGER,LB,old,m,./images/TIGERLB.png,,,,,,,,,,,,,,,,,,,,,,,,,,,,,,,,,,
,,,,,,,,,,,,,,,,,612d18cff20cd023bd839bde,47,2022-02-12_18h13.35.987,lexical_decision_task_DD_L5,2021.2.3,Win32,60.20107158,,,,,,,,,,,1.0197,0,,,,,,,,,,,,,,,z,0,1.0197,,,,,,,,0.22962963,-0.318518519,0,0,0,,0,63,63,12,1,BLOKE,HB,old,m,./images/BLOKEHB.png,,,,,,,,,,,,,,,,,,,,,,,,,,,,,,,,,,
,,,,,,,,,,,,,,,,,612d18cff20cd023bd839bde,47,2022-02-12_18h13.35.987,lexical_decision_task_DD_L5,2021.2.3,Win32,60.20107158,,,,,,,,,,,0.5437,1,,,,,,,,,,,,,,,m,1,0.5437,,,,,,,,0.22962963,-0.318518519,0,0,0,,0,64,64,44,1,BASKET,C,old,m,./images/BASKET.png,,,,,,,,,,,,,,,,,,,,,,,,,,,,,,,,,,
,,,,,,,,,,,,,,,,,612d18cff20cd023bd839bde,47,2022-02-12_18h13.35.987,lexical_decision_task_DD_L5,2021.2.3,Win32,60.20107158,,,,,,,,,,,0.6221,1,,,,,,,,,,,,,,,m,1,0.6221,,,,,,,,0.22962963,-0.318518519,0,0,0,,0,65,65,25,1,CHALK,LB,old,m,./images/CHALKLB.png,,,,,,,,,,,,,,,,,,,,,,,,,,,,,,,,,,
,,,,,,,,,,,,,,,,,612d18cff20cd023bd839bde,47,2022-02-12_18h13.35.987,lexical_decision_task_DD_L5,2021.2.3,Win32,60.20107158,,,,,,,,,,,0.6595,1,,,,,,,,,,,,,,,z,1,0.6595,,,,,,,,0.22962963,-0.318518519,0,0,0,,0,66,66,144,1,NAIRY,C,old,z,./images/NAIRY.png,,,,,,,,,,,,,,,,,,,,,,,,,,,,,,,,,,
,,,,,,,,,,,,,,,,,612d18cff20cd023bd839bde,47,2022-02-12_18h13.35.987,lexical_decision_task_DD_L5,2021.2.3,Win32,60.20107158,,,,,,,,,,,0.746,1,,,,,,,,,,,,,,,z,1,0.746,,,,,,,,0.22962963,-0.318518519,0,0,0,,0,67,67,90,1,NEAST,C,old,z,./images/NEAST.png,,,,,,,,,,,,,,,,,,,,,,,,,,,,,,,,,,
,,,,,,,,,,,,,,,,,612d18cff20cd023bd839bde,47,2022-02-12_18h13.35.987,lexical_decision_task_DD_L5,2021.2.3,Win32,60.20107158,,,,,,,,,,,0.6618,1,,,,,,,,,,,,,,,m,1,0.6618,,,,,,,,0.22962963,-0.318518519,0,0,0,,0,68,68,0,1,WALNUT,HB,old,m,./images/WALNUTHB.png,,,,,,,,,,,,,,,,,,,,,,,,,,,,,,,,,,
,,,,,,,,,,,,,,,,,612d18cff20cd023bd839bde,47,2022-02-12_18h13.35.987,lexical_decision_task_DD_L5,2021.2.3,Win32,60.20107158,,,,,,,,,,,0.7276,1,,,,,,,,,,,,,,,z,1,0.7276,,,,,,,,0.22962963,-0.318518519,0,0,0,,0,69,69,155,1,CANGY,LB,old,z,./images/CANGYLB.png,,,,,,,,,,,,,,,,,,,,,,,,,,,,,,,,,,
,,,,,,,,,,,,,,,,,612d18cff20cd023bd839bde,47,2022-02-12_18h13.35.987,lexical_decision_task_DD_L5,2021.2.3,Win32,60.20107158,,,,,,,,,,,0.5974,1,,,,,,,,,,,,,,,m,1,0.5974,,,,,,,,0.22962963,-0.318518519,0,0,0,,0,70,70,40,1,SNAKE,LB,old,m,./images/SNAKELB.png,,,,,,,,,,,,,,,,,,,,,,,,,,,,,,,,,,
,,,,,,,,,,,,,,,,,612d18cff20cd023bd839bde,47,2022-02-12_18h13.35.987,lexical_decision_task_DD_L5,2021.2.3,Win32,60.20107158,,,,,,,,,,,0.8096,1,,,,,,,,,,,,,,,m,1,0.8096,,,,,,,,0.22962963,-0.318518519,0,0,0,,0,71,71,8,1,CLIFF,C,old,m,./images/CLIFF.png,,,,,,,,,,,,,,,,,,,,,,,,,,,,,,,,,,
,,,,,,,,,,,,,,,,,612d18cff20cd023bd839bde,47,2022-02-12_18h13.35.987,lexical_decision_task_DD_L5,2021.2.3,Win32,60.20107158,,,,,,,,,,,0.6509,1,,,,,,,,,,,,,,,m,1,0.6509,,,,,,,,0.22962963,-0.318518519,0,0,0,,0,72,72,79,1,RULER,LB,old,m,./images/RULERLB.png,,,,,,,,,,,,,,,,,,,,,,,,,,,,,,,,,,
,,,,,,,,,,,,,,,,,612d18cff20cd023bd839bde,47,2022-02-12_18h13.35.987,lexical_decision_task_DD_L5,2021.2.3,Win32,60.20107158,,,,,,,,,,,1.0477,1,,,,,,,,,,,,,,,m,1,1.0477,,,,,,,,0.22962963,-0.318518519,0,0,0,,0,73,73,13,1,BUNNY,LB,old,m,./images/BUNNYLB.png,,,,,,,,,,,,,,,,,,,,,,,,,,,,,,,,,,
,,,,,,,,,,,,,,,,,612d18cff20cd023bd839bde,47,2022-02-12_18h13.35.987,lexical_decision_task_DD_L5,2021.2.3,Win32,60.20107158,,,,,,,,,,,0.7275,1,,,,,,,,,,,,,,,z,1,0.7275,,,,,,,,0.22962963,-0.318518519,0,0,0,,0,74,74,149,1,VEASE,LB,old,z,./images/VEASELB.png,,,,,,,,,,,,,,,,,,,,,,,,,,,,,,,,,,
,,,,,,,,,,,,,,,,,612d18cff20cd023bd839bde,47,2022-02-12_18h13.35.987,lexical_decision_task_DD_L5,2021.2.3,Win32,60.20107158,,,,,,,,,,,0.7833,1,,,,,,,,,,,,,,,z,1,0.7833,,,,,,,,0.22962963,-0.318518519,0,0,0,,0,75,75,162,1,LEICH,C,old,z,./images/LEICH.png,,,,,,,,,,,,,,,,,,,,,,,,,,,,,,,,,,
,,,,,,,,,,,,,,,,,612d18cff20cd023bd839bde,47,2022-02-12_18h13.35.987,lexical_decision_task_DD_L5,2021.2.3,Win32,60.20107158,,,,,,,,,,,1.4116,0,,,,,,,,,,,,,,,m,0,1.4116,,,,,,,,0.22962963,-0.318518519,0,0,0,,0,76,76,166,1,SHORY,HB,old,z,./images/SHORYHB.png,,,,,,,,,,,,,,,,,,,,,,,,,,,,,,,,,,
,,,,,,,,,,,,,,,,,612d18cff20cd023bd839bde,47,2022-02-12_18h13.35.987,lexical_decision_task_DD_L5,2021.2.3,Win32,60.20107158,,,,,,,,,,,0.8696,1,,,,,,,,,,,,,,,z,1,0.8696,,,,,,,,0.22962963,-0.318518519,0,0,0,,0,77,77,131,1,NACES,LB,old,z,./images/NACESLB.png,,,,,,,,,,,,,,,,,,,,,,,,,,,,,,,,,,
,,,,,,,,,,,,,,,,,612d18cff20cd023bd839bde,47,2022-02-12_18h13.35.987,lexical_decision_task_DD_L5,2021.2.3,Win32,60.20107158,,,,,,,,,,,1.0102,1,,,,,,,,,,,,,,,z,1,1.0102,,,,,,,,0.22962963,-0.318518519,0,0,0,,0,78,78,133,1,POWDY,HB,old,z,./images/POWDYHB.png,,,,,,,,,,,,,,,,,,,,,,,,,,,,,,,,,,
,,,,,,,,,,,,,,,,,612d18cff20cd023bd839bde,47,2022-02-12_18h13.35.987,lexical_decision_task_DD_L5,2021.2.3,Win32,60.20107158,,,,,,,,,,,0.929,1,,,,,,,,,,,,,,,m,1,0.929,,,,,,,,0.22962963,-0.318518519,0,0,0,,0,79,79,21,1,DANCER,HB,old,m,./images/DANCERHB.png,,,,,,,,,,,,,,,,,,,,,,,,,,,,,,,,,,
,,,,,,,,,,,,,,,,,612d18cff20cd023bd839bde,47,2022-02-12_18h13.35.987,lexical_decision_task_DD_L5,2021.2.3,Win32,60.20107158,,,,,,,,,,,0.8947,0,,,,,,,,,,,,,,,z,0,0.8947,,,,,,,,0.22962963,-0.318518519,0,0,0,,0,80,80,6,1,STAIN,HB,old,m,./images/STAINHB.png,,,,,,,,,,,,,,,,,,,,,,,,,,,,,,,,,,
,,,,,,,,,,,,,,,,,612d18cff20cd023bd839bde,47,2022-02-12_18h13.35.987,lexical_decision_task_DD_L5,2021.2.3,Win32,60.20107158,,,,,,,,,,,1.7518,0,,,,,,,,,,,,,,,z,0,1.7518,,,,,,,,0.22962963,-0.318518519,0,0,0,,0,81,81,75,1,HAMMER,HB,old,m,./images/HAMMERHB.png,,,,,,,,,,,,,,,,,,,,,,,,,,,,,,,,,,
,,,,,,,,,,,,,,,,,612d18cff20cd023bd839bde,47,2022-02-12_18h13.35.987,lexical_decision_task_DD_L5,2021.2.3,Win32,60.20107158,,,,,,,,,,,0.6775,1,,,,,,,,,,,,,,,m,1,0.6775,,,,,,,,0.22962963,-0.318518519,0,0,0,,0,82,82,67,1,POKER,LB,old,m,./images/POKERLB.png,,,,,,,,,,,,,,,,,,,,,,,,,,,,,,,,,,
,,,,,,,,,,,,,,,,,612d18cff20cd023bd839bde,47,2022-02-12_18h13.35.987,lexical_decision_task_DD_L5,2021.2.3,Win32,60.20107158,,,,,,,,,,,0.5531,1,,,,,,,,,,,,,,,m,1,0.5531,,,,,,,,0.22962963,-0.318518519,0,0,0,space,0,83,83,26,1,CLOUD,C,old,m,./images/CLOUD.png,2.3854,,,,,,,,,,,,,,,,,,,,,,,,,,,,,,,,,
,,,,,,,,,,,,,,,,,612d18cff20cd023bd839bde,47,2022-02-12_18h13.35.987,lexical_decision_task_DD_L5,2021.2.3,Win32,60.20107158,,,,,,,,,,,0.6935,1,,,,,,,,,,,,,,,m,1,0.6935,,,,,,,,0.22962963,-0.318518519,0,0,0,,0,84,84,64,1,BRIDE,LB,old,m,./images/BRIDELB.png,,,,,,,,,,,,,,,,,,,,,,,,,,,,,,,,,,
,,,,,,,,,,,,,,,,,612d18cff20cd023bd839bde,47,2022-02-12_18h13.35.987,lexical_decision_task_DD_L5,2021.2.3,Win32,60.20107158,,,,,,,,,,,0.5638,1,,,,,,,,,,,,,,,m,1,0.5638,,,,,,,,0.22962963,-0.318518519,0,0,0,,0,85,85,55,1,ALLEY,LB,old,m,./images/ALLEYLB.png,,,,,,,,,,,,,,,,,,,,,,,,,,,,,,,,,,
,,,,,,,,,,,,,,,,,612d18cff20cd023bd839bde,47,2022-02-12_18h13.35.987,lexical_decision_task_DD_L5,2021.2.3,Win32,60.20107158,,,,,,,,,,,0.6421,1,,,,,,,,,,,,,,,z,1,0.6421,,,,,,,,0.22962963,-0.318518519,0,0,0,,0,86,86,113,1,LINEW,LB,old,z,./images/LINEWLB.png,,,,,,,,,,,,,,,,,,,,,,,,,,,,,,,,,,
,,,,,,,,,,,,,,,,,612d18cff20cd023bd839bde,47,2022-02-12_18h13.35.987,lexical_decision_task_DD_L5,2021.2.3,Win32,60.20107158,,,,,,,,,,,1.459,1,,,,,,,,,,,,,,,z,1,1.459,,,,,,,,0.22962963,-0.318518519,0,0,0,,0,87,87,115,1,MAWNS,HB,old,z,./images/MAWNSHB.png,,,,,,,,,,,,,,,,,,,,,,,,,,,,,,,,,,
,,,,,,,,,,,,,,,,,612d18cff20cd023bd839bde,47,2022-02-12_18h13.35.987,lexical_decision_task_DD_L5,2021.2.3,Win32,60.20107158,,,,,,,,,,,1.1475,1,,,,,,,,,,,,,,,z,1,1.1475,,,,,,,,0.22962963,-0.318518519,0,0,0,,0,88,88,139,1,BLEAR,HB,old,z,./images/BLEARHB.png,,,,,,,,,,,,,,,,,,,,,,,,,,,,,,,,,,
,,,,,,,,,,,,,,,,,612d18cff20cd023bd839bde,47,2022-02-12_18h13.35.987,lexical_decision_task_DD_L5,2021.2.3,Win32,60.20107158,,,,,,,,,,,0.5707,1,,,,,,,,,,,,,,,m,1,0.5707,,,,,,,,0.22962963,-0.318518519,0,0,0,,0,89,89,1,1,TOWEL,LB,old,m,./images/TOWELLB.png,,,,,,,,,,,,,,,,,,,,,,,,,,,,,,,,,,
,,,,,,,,,,,,,,,,,612d18cff20cd023bd839bde,47,2022-02-12_18h13.35.987,lexical_decision_task_DD_L5,2021.2.3,Win32,60.20107158,,,,,,,,,,,0.6369,1,,,,,,,,,,,,,,,z,1,0.6369,,,,,,,,0.22962963,-0.318518519,0,0,0,,0,90,90,164,1,SGREW,LB,old,z,./images/SGREWLB.png,,,,,,,,,,,,,,,,,,,,,,,,,,,,,,,,,,
,,,,,,,,,,,,,,,,,612d18cff20cd023bd839bde,47,2022-02-12_18h13.35.987,lexical_decision_task_DD_L5,2021.2.3,Win32,60.20107158,,,,,,,,,,,1.3118,1,,,,,,,,,,,,,,,z,1,1.3118,,,,,,,,0.22962963,-0.318518519,0,0,0,,0,91,91,91,1,SHENS,HB,old,z,./images/SHENSHB.png,,,,,,,,,,,,,,,,,,,,,,,,,,,,,,,,,,
,,,,,,,,,,,,,,,,,612d18cff20cd023bd839bde,47,2022-02-12_18h13.35.987,lexical_decision_task_DD_L5,2021.2.3,Win32,60.20107158,,,,,,,,,,,0.871,0,,,,,,,,,,,,,,,z,0,0.871,,,,,,,,0.22962963,-0.318518519,0,0,0,,0,92,92,36,1,BOILER,HB,old,m,./images/BOILERHB.png,,,,,,,,,,,,,,,,,,,,,,,,,,,,,,,,,,
,,,,,,,,,,,,,,,,,612d18cff20cd023bd839bde,47,2022-02-12_18h13.35.987,lexical_decision_task_DD_L5,2021.2.3,Win32,60.20107158,,,,,,,,,,,0.9437,1,,,,,,,,,,,,,,,z,1,0.9437,,,,,,,,0.22962963,-0.318518519,0,0,0,,0,93,93,97,1,CHIDS,HB,old,z,./images/CHIDSHB.png,,,,,,,,,,,,,,,,,,,,,,,,,,,,,,,,,,
,,,,,,,,,,,,,,,,,612d18cff20cd023bd839bde,47,2022-02-12_18h13.35.987,lexical_decision_task_DD_L5,2021.2.3,Win32,60.20107158,,,,,,,,,,,0.4849,1,,,,,,,,,,,,,,,m,1,0.4849,,,,,,,,0.22962963,-0.318518519,0,0,0,,0,94,94,59,1,BRUSH,C,old,m,./images/BRUSH.png,,,,,,,,,,,,,,,,,,,,,,,,,,,,,,,,,,
,,,,,,,,,,,,,,,,,612d18cff20cd023bd839bde,47,2022-02-12_18h13.35.987,lexical_decision_task_DD_L5,2021.2.3,Win32,60.20107158,,,,,,,,,,,0.6762,1,,,,,,,,,,,,,,,z,1,0.6762,,,,,,,,0.22962963,-0.318518519,0,0,0,,0,95,95,143,1,MONGS,LB,old,z,./images/MONGSLB.png,,,,,,,,,,,,,,,,,,,,,,,,,,,,,,,,,,
,,,,,,,,,,,,,,,,,612d18cff20cd023bd839bde,47,2022-02-12_18h13.35.987,lexical_decision_task_DD_L5,2021.2.3,Win32,60.20107158,,,,,,,,,,,0.7272,1,,,,,,,,,,,,,,,m,1,0.7272,,,,,,,,0.22962963,-0.318518519,0,0,0,,0,96,96,69,1,ARROW,HB,old,m,./images/ARROWHB.png,,,,,,,,,,,,,,,,,,,,,,,,,,,,,,,,,,
,,,,,,,,,,,,,,,,,612d18cff20cd023bd839bde,47,2022-02-12_18h13.35.987,lexical_decision_task_DD_L5,2021.2.3,Win32,60.20107158,,,,,,,,,,,0.5275,1,,,,,,,,,,,,,,,m,1,0.5275,,,,,,,,0.22962963,-0.318518519,0,0,0,,0,97,97,65,1,SPINE,C,old,m,./images/SPINE.png,,,,,,,,,,,,,,,,,,,,,,,,,,,,,,,,,,
,,,,,,,,,,,,,,,,,612d18cff20cd023bd839bde,47,2022-02-12_18h13.35.987,lexical_decision_task_DD_L5,2021.2.3,Win32,60.20107158,,,,,,,,,,,0.6993,1,,,,,,,,,,,,,,,z,1,0.6993,,,,,,,,0.22962963,-0.318518519,0,0,0,,0,98,98,158,1,EGECT,LB,old,z,./images/EGECTLB.png,,,,,,,,,,,,,,,,,,,,,,,,,,,,,,,,,,
,,,,,,,,,,,,,,,,,612d18cff20cd023bd839bde,47,2022-02-12_18h13.35.987,lexical_decision_task_DD_L5,2021.2.3,Win32,60.20107158,,,,,,,,,,,0.748,1,,,,,,,,,,,,,,,z,1,0.748,,,,,,,,0.22962963,-0.318518519,0,0,0,,0,99,99,161,1,BLAPS,LB,old,z,./images/BLAPSLB.png,,,,,,,,,,,,,,,,,,,,,,,,,,,,,,,,,,
,,,,,,,,,,,,,,,,,612d18cff20cd023bd839bde,47,2022-02-12_18h13.35.987,lexical_decision_task_DD_L5,2021.2.3,Win32,60.20107158,,,,,,,,,,,0.7615,1,,,,,,,,,,,,,,,z,1,0.7615,,,,,,,,0.22962963,-0.318518519,0,0,0,,0,100,100,104,1,GITTY,LB,old,z,./images/GITTYLB.png,,,,,,,,,,,,,,,,,,,,,,,,,,,,,,,,,,
,,,,,,,,,,,,,,,,,612d18cff20cd023bd839bde,47,2022-02-12_18h13.35.987,lexical_decision_task_DD_L5,2021.2.3,Win32,60.20107158,,,,,,,,,,,0.8378,1,,,,,,,,,,,,,,,z,1,0.8378,,,,,,,,0.22962963,-0.318518519,0,0,0,,0,101,101,103,1,FLORT,HB,old,z,./images/FLORTHB.png,,,,,,,,,,,,,,,,,,,,,,,,,,,,,,,,,,
,,,,,,,,,,,,,,,,,612d18cff20cd023bd839bde,47,2022-02-12_18h13.35.987,lexical_decision_task_DD_L5,2021.2.3,Win32,60.20107158,,,,,,,,,,,0.739,1,,,,,,,,,,,,,,,z,1,0.739,,,,,,,,0.22962963,-0.318518519,0,0,0,,0,102,102,134,1,TROSS,LB,old,z,./images/TROSSLB.png,,,,,,,,,,,,,,,,,,,,,,,,,,,,,,,,,,
,,,,,,,,,,,,,,,,,612d18cff20cd023bd839bde,47,2022-02-12_18h13.35.987,lexical_decision_task_DD_L5,2021.2.3,Win32,60.20107158,,,,,,,,,,,0.6497,1,,,,,,,,,,,,,,,z,1,0.6497,,,,,,,,0.22962963,-0.318518519,0,0,0,,0,103,103,116,1,BALGY,LB,old,z,./images/BALGYLB.png,,,,,,,,,,,,,,,,,,,,,,,,,,,,,,,,,,
,,,,,,,,,,,,,,,,,612d18cff20cd023bd839bde,47,2022-02-12_18h13.35.987,lexical_decision_task_DD_L5,2021.2.3,Win32,60.20107158,,,,,,,,,,,1.0519,1,,,,,,,,,,,,,,,m,1,1.0519,,,,,,,,0.22962963,-0.318518519,0,0,0,,0,104,104,57,1,FERRY,HB,old,m,./images/FERRYHB.png,,,,,,,,,,,,,,,,,,,,,,,,,,,,,,,,,,
,,,,,,,,,,,,,,,,,612d18cff20cd023bd839bde,47,2022-02-12_18h13.35.987,lexical_decision_task_DD_L5,2021.2.3,Win32,60.20107158,,,,,,,,,,,0.7607,1,,,,,,,,,,,,,,,m,1,0.7607,,,,,,,,0.22962963,-0.318518519,0,0,0,,0,105,105,27,1,BUTTER,HB,old,m,./images/BUTTERHB.png,,,,,,,,,,,,,,,,,,,,,,,,,,,,,,,,,,
,,,,,,,,,,,,,,,,,612d18cff20cd023bd839bde,47,2022-02-12_18h13.35.987,lexical_decision_task_DD_L5,2021.2.3,Win32,60.20107158,,,,,,,,,,,0.5931,1,,,,,,,,,,,,,,,m,1,0.5931,,,,,,,,0.22962963,-0.318518519,0,0,0,,0,106,106,2,1,STOVE,C,old,m,./images/STOVE.png,,,,,,,,,,,,,,,,,,,,,,,,,,,,,,,,,,
,,,,,,,,,,,,,,,,,612d18cff20cd023bd839bde,47,2022-02-12_18h13.35.987,lexical_decision_task_DD_L5,2021.2.3,Win32,60.20107158,,,,,,,,,,,0.9851,1,,,,,,,,,,,,,,,z,1,0.9851,,,,,,,,0.22962963,-0.318518519,0,0,0,,0,107,107,94,1,BLANS,HB,old,z,./images/BLANSHB.png,,,,,,,,,,,,,,,,,,,,,,,,,,,,,,,,,,
,,,,,,,,,,,,,,,,,612d18cff20cd023bd839bde,47,2022-02-12_18h13.35.987,lexical_decision_task_DD_L5,2021.2.3,Win32,60.20107158,,,,,,,,,,,0.9956,1,,,,,,,,,,,,,,,m,1,0.9956,,,,,,,,0.22962963,-0.318518519,0,0,0,,0,108,108,39,1,CANDY,HB,old,m,./images/CANDYHB.png,,,,,,,,,,,,,,,,,,,,,,,,,,,,,,,,,,
,,,,,,,,,,,,,,,,,612d18cff20cd023bd839bde,47,2022-02-12_18h13.35.987,lexical_decision_task_DD_L5,2021.2.3,Win32,60.20107158,,,,,,,,,,,0.8294,1,,,,,,,,,,,,,,,z,1,0.8294,,,,,,,,0.22962963,-0.318518519,0,0,0,,0,109,109,114,1,RIKES,C,old,z,./images/RIKES.png,,,,,,,,,,,,,,,,,,,,,,,,,,,,,,,,,,
,,,,,,,,,,,,,,,,,612d18cff20cd023bd839bde,47,2022-02-12_18h13.35.987,lexical_decision_task_DD_L5,2021.2.3,Win32,60.20107158,,,,,,,,,,,0.5814,0,,,,,,,,,,,,,,,m,0,0.5814,,,,,,,,0.22962963,-0.318518519,0,0,0,,0,110,110,128,1,GRIFT,LB,old,z,./images/GRIFTLB.png,,,,,,,,,,,,,,,,,,,,,,,,,,,,,,,,,,
,,,,,,,,,,,,,,,,,612d18cff20cd023bd839bde,47,2022-02-12_18h13.35.987,lexical_decision_task_DD_L5,2021.2.3,Win32,60.20107158,,,,,,,,,,,1.2597,1,,,,,,,,,,,,,,,z,1,1.2597,,,,,,,,0.22962963,-0.318518519,0,0,0,,0,111,111,124,1,TUNCH,HB,old,z,./images/TUNCHHB.png,,,,,,,,,,,,,,,,,,,,,,,,,,,,,,,,,,
,,,,,,,,,,,,,,,,,612d18cff20cd023bd839bde,47,2022-02-12_18h13.35.987,lexical_decision_task_DD_L5,2021.2.3,Win32,60.20107158,,,,,,,,,,,0.7264,1,,,,,,,,,,,,,,,z,1,0.7264,,,,,,,,0.22962963,-0.318518519,0,0,0,,0,112,112,108,1,GRUET,C,old,z,./images/GRUET.png,,,,,,,,,,,,,,,,,,,,,,,,,,,,,,,,,,
,,,,,,,,,,,,,,,,,612d18cff20cd023bd839bde,47,2022-02-12_18h13.35.987,lexical_decision_task_DD_L5,2021.2.3,Win32,60.20107158,,,,,,,,,,,1.0266,1,,,,,,,,,,,,,,,m,1,1.0266,,,,,,,,0.22962963,-0.318518519,0,0,0,,0,113,113,60,1,CURRY,HB,old,m,./images/CURRYHB.png,,,,,,,,,,,,,,,,,,,,,,,,,,,,,,,,,,
,,,,,,,,,,,,,,,,,612d18cff20cd023bd839bde,47,2022-02-12_18h13.35.987,lexical_decision_task_DD_L5,2021.2.3,Win32,60.20107158,,,,,,,,,,,1.0034,1,,,,,,,,,,,,,,,z,1,1.0034,,,,,,,,0.22962963,-0.318518519,0,0,0,,0,114,114,106,1,CLUMS,HB,old,z,./images/CLUMSHB.png,,,,,,,,,,,,,,,,,,,,,,,,,,,,,,,,,,
,,,,,,,,,,,,,,,,,612d18cff20cd023bd839bde,47,2022-02-12_18h13.35.987,lexical_decision_task_DD_L5,2021.2.3,Win32,60.20107158,,,,,,,,,,,0.6657,1,,,,,,,,,,,,,,,m,1,0.6657,,,,,,,,0.22962963,-0.318518519,0,0,0,,0,115,115,61,1,ARTIST,LB,old,m,./images/ARTISTLB.png,,,,,,,,,,,,,,,,,,,,,,,,,,,,,,,,,,
,,,,,,,,,,,,,,,,,612d18cff20cd023bd839bde,47,2022-02-12_18h13.35.987,lexical_decision_task_DD_L5,2021.2.3,Win32,60.20107158,,,,,,,,,,,0.7916,1,,,,,,,,,,,,,,,z,1,0.7916,,,,,,,,0.22962963,-0.318518519,0,0,0,,0,116,116,99,1,BACKY,C,old,z,./images/BACKY.png,,,,,,,,,,,,,,,,,,,,,,,,,,,,,,,,,,
,,,,,,,,,,,,,,,,,612d18cff20cd023bd839bde,47,2022-02-12_18h13.35.987,lexical_decision_task_DD_L5,2021.2.3,Win32,60.20107158,,,,,,,,,,,0.6653,1,,,,,,,,,,,,,,,z,1,0.6653,,,,,,,,0.22962963,-0.318518519,0,0,0,,0,117,117,137,1,JOOST,LB,old,z,./images/JOOSTLB.png,,,,,,,,,,,,,,,,,,,,,,,,,,,,,,,,,,
,,,,,,,,,,,,,,,,,612d18cff20cd023bd839bde,47,2022-02-12_18h13.35.987,lexical_decision_task_DD_L5,2021.2.3,Win32,60.20107158,,,,,,,,,,,0.6814,1,,,,,,,,,,,,,,,m,1,0.6814,,,,,,,,0.22962963,-0.318518519,0,0,0,,0,118,118,32,1,HOCKEY,C,old,m,./images/HOCKEY.png,,,,,,,,,,,,,,,,,,,,,,,,,,,,,,,,,,
,,,,,,,,,,,,,,,,,612d18cff20cd023bd839bde,47,2022-02-12_18h13.35.987,lexical_decision_task_DD_L5,2021.2.3,Win32,60.20107158,,,,,,,,,,,0.6645,1,,,,,,,,,,,,,,,z,1,0.6645,,,,,,,,0.22962963,-0.318518519,0,0,0,,0,119,119,152,1,FRAIN,LB,old,z,./images/FRAINLB.png,,,,,,,,,,,,,,,,,,,,,,,,,,,,,,,,,,
,,,,,,,,,,,,,,,,,612d18cff20cd023bd839bde,47,2022-02-12_18h13.35.987,lexical_decision_task_DD_L5,2021.2.3,Win32,60.20107158,,,,,,,,,,,1.3106,1,,,,,,,,,,,,,,,z,1,1.3106,,,,,,,,0.22962963,-0.318518519,0,0,0,,0,120,120,145,1,LAMEL,HB,old,z,./images/LAMELHB.png,,,,,,,,,,,,,,,,,,,,,,,,,,,,,,,,,,
,,,,,,,,,,,,,,,,,612d18cff20cd023bd839bde,47,2022-02-12_18h13.35.987,lexical_decision_task_DD_L5,2021.2.3,Win32,60.20107158,,,,,,,,,,,0.9937,1,,,,,,,,,,,,,,,m,1,0.9937,,,,,,,,0.22962963,-0.318518519,0,0,0,,0,121,121,51,1,SAUCE,HB,old,m,./images/SAUCEHB.png,,,,,,,,,,,,,,,,,,,,,,,,,,,,,,,,,,
,,,,,,,,,,,,,,,,,612d18cff20cd023bd839bde,47,2022-02-12_18h13.35.987,lexical_decision_task_DD_L5,2021.2.3,Win32,60.20107158,,,,,,,,,,,0.6765,1,,,,,,,,,,,,,,,z,1,0.6765,,,,,,,,0.22962963,-0.318518519,0,0,0,,0,122,122,107,1,FASKS,LB,old,z,./images/FASKSLB.png,,,,,,,,,,,,,,,,,,,,,,,,,,,,,,,,,,
,,,,,,,,,,,,,,,,,612d18cff20cd023bd839bde,47,2022-02-12_18h13.35.987,lexical_decision_task_DD_L5,2021.2.3,Win32,60.20107158,,,,,,,,,,,0.8317,1,,,,,,,,,,,,,,,z,1,0.8317,,,,,,,,0.22962963,-0.318518519,0,0,0,,0,123,123,93,1,SMONE,C,old,z,./images/SMONE.png,,,,,,,,,,,,,,,,,,,,,,,,,,,,,,,,,,
,,,,,,,,,,,,,,,,,612d18cff20cd023bd839bde,47,2022-02-12_18h13.35.987,lexical_decision_task_DD_L5,2021.2.3,Win32,60.20107158,,,,,,,,,,,0.6159,0,,,,,,,,,,,,,,,m,0,0.6159,,,,,,,,0.22962963,-0.318518519,0,0,0,,0,124,124,102,1,DULLE,C,old,z,./images/DULLE.png,,,,,,,,,,,,,,,,,,,,,,,,,,,,,,,,,,
,,,,,,,,,,,,,,,,,612d18cff20cd023bd839bde,47,2022-02-12_18h13.35.987,lexical_decision_task_DD_L5,2021.2.3,Win32,60.20107158,,,,,,,,,,,1.0875,1,,,,,,,,,,,,,,,z,1,1.0875,,,,,,,,0.22962963,-0.318518519,0,0,0,space,0,125,125,88,1,GLUSH,HB,old,z,./images/GLUSHHB.png,6.2862,,,,,,,,,,,,,,,,,,,,,,,,,,,,,,,,,
,,,,,,,,,,,,,,,,,612d18cff20cd023bd839bde,47,2022-02-12_18h13.35.987,lexical_decision_task_DD_L5,2021.2.3,Win32,60.20107158,,,,,,,,,,,0.5762,1,,,,,,,,,,,,,,,m,1,0.5762,,,,,,,,0.22962963,-0.318518519,0,0,0,,0,126,126,14,1,FENCE,C,old,m,./images/FENCE.png,,,,,,,,,,,,,,,,,,,,,,,,,,,,,,,,,,
,,,,,,,,,,,,,,,,,612d18cff20cd023bd839bde,47,2022-02-12_18h13.35.987,lexical_decision_task_DD_L5,2021.2.3,Win32,60.20107158,,,,,,,,,,,0.6131,1,,,,,,,,,,,,,,,z,1,0.6131,,,,,,,,0.22962963,-0.318518519,0,0,0,,0,127,127,98,1,BAMPS,LB,old,z,./images/BAMPSLB.png,,,,,,,,,,,,,,,,,,,,,,,,,,,,,,,,,,
,,,,,,,,,,,,,,,,,612d18cff20cd023bd839bde,47,2022-02-12_18h13.35.987,lexical_decision_task_DD_L5,2021.2.3,Win32,60.20107158,,,,,,,,,,,0.7003,1,,,,,,,,,,,,,,,m,1,0.7003,,,,,,,,0.22962963,-0.318518519,0,0,0,,0,128,128,73,1,GLOVE,LB,old,m,./images/GLOVELB.png,,,,,,,,,,,,,,,,,,,,,,,,,,,,,,,,,,
,,,,,,,,,,,,,,,,,612d18cff20cd023bd839bde,47,2022-02-12_18h13.35.987,lexical_decision_task_DD_L5,2021.2.3,Win32,60.20107158,,,,,,,,,,,0.5151,1,,,,,,,,,,,,,,,m,1,0.5151,,,,,,,,0.22962963,-0.318518519,0,0,0,,0,129,129,74,1,JUMPER,C,old,m,./images/JUMPER.png,,,,,,,,,,,,,,,,,,,,,,,,,,,,,,,,,,
,,,,,,,,,,,,,,,,,612d18cff20cd023bd839bde,47,2022-02-12_18h13.35.987,lexical_decision_task_DD_L5,2021.2.3,Win32,60.20107158,,,,,,,,,,,0.8849,1,,,,,,,,,,,,,,,m,1,0.8849,,,,,,,,0.22962963,-0.318518519,0,0,0,,0,130,130,24,1,FLESH,HB,old,m,./images/FLESHHB.png,,,,,,,,,,,,,,,,,,,,,,,,,,,,,,,,,,
,,,,,,,,,,,,,,,,,612d18cff20cd023bd839bde,47,2022-02-12_18h13.35.987,lexical_decision_task_DD_L5,2021.2.3,Win32,60.20107158,,,,,,,,,,,0.7129,1,,,,,,,,,,,,,,,z,1,0.7129,,,,,,,,0.22962963,-0.318518519,0,0,0,,0,131,131,119,1,PAFER,LB,old,z,./images/PAFERLB.png,,,,,,,,,,,,,,,,,,,,,,,,,,,,,,,,,,
,,,,,,,,,,,,,,,,,612d18cff20cd023bd839bde,47,2022-02-12_18h13.35.987,lexical_decision_task_DD_L5,2021.2.3,Win32,60.20107158,,,,,,,,,,,0.8188,1,,,,,,,,,,,,,,,z,1,0.8188,,,,,,,,0.22962963,-0.318518519,0,0,0,,0,132,132,86,1,AIFED,LB,old,z,./images/AIFEDLB.png,,,,,,,,,,,,,,,,,,,,,,,,,,,,,,,,,,
,,,,,,,,,,,,,,,,,612d18cff20cd023bd839bde,47,2022-02-12_18h13.35.987,lexical_decision_task_DD_L5,2021.2.3,Win32,60.20107158,,,,,,,,,,,0.8761,1,,,,,,,,,,,,,,,z,1,0.8761,,,,,,,,0.22962963,-0.318518519,0,0,0,,0,133,133,84,1,HAXES,C,old,z,./images/HAXES.png,,,,,,,,,,,,,,,,,,,,,,,,,,,,,,,,,,
,,,,,,,,,,,,,,,,,612d18cff20cd023bd839bde,47,2022-02-12_18h13.35.987,lexical_decision_task_DD_L5,2021.2.3,Win32,60.20107158,,,,,,,,,,,0.601,1,,,,,,,,,,,,,,,z,1,0.601,,,,,,,,0.22962963,-0.318518519,0,0,0,,0,134,134,141,1,PLEET,C,old,z,./images/PLEET.png,,,,,,,,,,,,,,,,,,,,,,,,,,,,,,,,,,
,,,,,,,,,,,,,,,,,612d18cff20cd023bd839bde,47,2022-02-12_18h13.35.987,lexical_decision_task_DD_L5,2021.2.3,Win32,60.20107158,,,,,,,,,,,0.6916,1,,,,,,,,,,,,,,,z,1,0.6916,,,,,,,,0.22962963,-0.318518519,0,0,0,,0,135,135,126,1,GUELS,C,old,z,./images/GUELS.png,,,,,,,,,,,,,,,,,,,,,,,,,,,,,,,,,,
,,,,,,,,,,,,,,,,,612d18cff20cd023bd839bde,47,2022-02-12_18h13.35.987,lexical_decision_task_DD_L5,2021.2.3,Win32,60.20107158,,,,,,,,,,,0.5812,1,,,,,,,,,,,,,,,z,1,0.5812,,,,,,,,0.22962963,-0.318518519,0,0,0,,0,136,136,132,1,SCIFF,C,old,z,./images/SCIFF.png,,,,,,,,,,,,,,,,,,,,,,,,,,,,,,,,,,
,,,,,,,,,,,,,,,,,612d18cff20cd023bd839bde,47,2022-02-12_18h13.35.987,lexical_decision_task_DD_L5,2021.2.3,Win32,60.20107158,,,,,,,,,,,0.9941,1,,,,,,,,,,,,,,,z,1,0.9941,,,,,,,,0.22962963,-0.318518519,0,0,0,,0,137,137,148,1,JOMS,HB,old,z,./images/JOMSHB.png,,,,,,,,,,,,,,,,,,,,,,,,,,,,,,,,,,
,,,,,,,,,,,,,,,,,612d18cff20cd023bd839bde,47,2022-02-12_18h13.35.987,lexical_decision_task_DD_L5,2021.2.3,Win32,60.20107158,,,,,,,,,,,1.5814,1,,,,,,,,,,,,,,,z,1,1.5814,,,,,,,,0.22962963,-0.318518519,0,0,0,,0,138,138,136,1,WERVE,HB,old,z,./images/WERVEHB.png,,,,,,,,,,,,,,,,,,,,,,,,,,,,,,,,,,
,,,,,,,,,,,,,,,,,612d18cff20cd023bd839bde,47,2022-02-12_18h13.35.987,lexical_decision_task_DD_L5,2021.2.3,Win32,60.20107158,,,,,,,,,,,0.7778,1,,,,,,,,,,,,,,,m,1,0.7778,,,,,,,,0.22962963,-0.318518519,0,0,0,,0,139,139,78,1,BROOM,HB,old,m,./images/BROOMHB.png,,,,,,,,,,,,,,,,,,,,,,,,,,,,,,,,,,
,,,,,,,,,,,,,,,,,612d18cff20cd023bd839bde,47,2022-02-12_18h13.35.987,lexical_decision_task_DD_L5,2021.2.3,Win32,60.20107158,,,,,,,,,,,0.5951,1,,,,,,,,,,,,,,,z,1,0.5951,,,,,,,,0.22962963,-0.318518519,0,0,0,,0,140,140,159,1,CUDDY,C,old,z,./images/CUDDY.png,,,,,,,,,,,,,,,,,,,,,,,,,,,,,,,,,,
,,,,,,,,,,,,,,,,,612d18cff20cd023bd839bde,47,2022-02-12_18h13.35.987,lexical_decision_task_DD_L5,2021.2.3,Win32,60.20107158,,,,,,,,,,,0.8016,1,,,,,,,,,,,,,,,m,1,0.8016,,,,,,,,0.22962963,-0.318518519,0,0,0,,0,141,141,72,1,FLASK,HB,old,m,./images/FLASKHB.png,,,,,,,,,,,,,,,,,,,,,,,,,,,,,,,,,,
,,,,,,,,,,,,,,,,,612d18cff20cd023bd839bde,47,2022-02-12_18h13.35.987,lexical_decision_task_DD_L5,2021.2.3,Win32,60.20107158,,,,,,,,,,,0.6501,1,,,,,,,,,,,,,,,m,1,0.6501,,,,,,,,0.22962963,-0.318518519,0,0,0,,0,142,142,34,1,RAZOR,LB,old,m,./images/RAZORLB.png,,,,,,,,,,,,,,,,,,,,,,,,,,,,,,,,,,
,,,,,,,,,,,,,,,,,612d18cff20cd023bd839bde,47,2022-02-12_18h13.35.987,lexical_decision_task_DD_L5,2021.2.3,Win32,60.20107158,,,,,,,,,,,0.5367,1,,,,,,,,,,,,,,,m,1,0.5367,,,,,,,,0.22962963,-0.318518519,0,0,0,,0,143,143,10,1,GARDEN,LB,old,m,./images/GARDENLB.png,,,,,,,,,,,,,,,,,,,,,,,,,,,,,,,,,,
,,,,,,,,,,,,,,,,,612d18cff20cd023bd839bde,47,2022-02-12_18h13.35.987,lexical_decision_task_DD_L5,2021.2.3,Win32,60.20107158,,,,,,,,,,,1.5557,1,,,,,,,,,,,,,,,z,1,1.5557,,,,,,,,0.22962963,-0.318518519,0,0,0,,0,144,144,130,1,CRILL,HB,old,z,./images/CRILLHB.png,,,,,,,,,,,,,,,,,,,,,,,,,,,,,,,,,,
,,,,,,,,,,,,,,,,,612d18cff20cd023bd839bde,47,2022-02-12_18h13.35.987,lexical_decision_task_DD_L5,2021.2.3,Win32,60.20107158,,,,,,,,,,,0.8161,1,,,,,,,,,,,,,,,m,1,0.8161,,,,,,,,0.22962963,-0.318518519,0,0,0,,0,145,145,15,1,COLLAR,HB,old,m,./images/COLLARHB.png,,,,,,,,,,,,,,,,,,,,,,,,,,,,,,,,,,
,,,,,,,,,,,,,,,,,612d18cff20cd023bd839bde,47,2022-02-12_18h13.35.987,lexical_decision_task_DD_L5,2021.2.3,Win32,60.20107158,,,,,,,,,,,0.6817,1,,,,,,,,,,,,,,,z,1,0.6817,,,,,,,,0.22962963,-0.318518519,0,0,0,,0,146,146,95,1,HANTY,LB,old,z,./images/HANTYLB.png,,,,,,,,,,,,,,,,,,,,,,,,,,,,,,,,,,
,,,,,,,,,,,,,,,,,612d18cff20cd023bd839bde,47,2022-02-12_18h13.35.987,lexical_decision_task_DD_L5,2021.2.3,Win32,60.20107158,,,,,,,,,,,0.6215,1,,,,,,,,,,,,,,,m,1,0.6215,,,,,,,,0.22962963,-0.318518519,0,0,0,,0,147,147,38,1,ENGINE,C,old,m,./images/ENGINE.png,,,,,,,,,,,,,,,,,,,,,,,,,,,,,,,,,,
,,,,,,,,,,,,,,,,,612d18cff20cd023bd839bde,47,2022-02-12_18h13.35.987,lexical_decision_task_DD_L5,2021.2.3,Win32,60.20107158,,,,,,,,,,,0.6121,1,,,,,,,,,,,,,,,z,1,0.6121,,,,,,,,0.22962963,-0.318518519,0,0,0,,0,148,148,150,1,NOOLS,C,old,z,./images/NOOLS.png,,,,,,,,,,,,,,,,,,,,,,,,,,,,,,,,,,
,,,,,,,,,,,,,,,,,612d18cff20cd023bd839bde,47,2022-02-12_18h13.35.987,lexical_decision_task_DD_L5,2021.2.3,Win32,60.20107158,,,,,,,,,,,1.4112,1,,,,,,,,,,,,,,,m,1,1.4112,,,,,,,,0.22962963,-0.318518519,0,0,0,,0,149,149,45,1,MONKEY,HB,old,m,./images/MONKEYHB.png,,,,,,,,,,,,,,,,,,,,,,,,,,,,,,,,,,
,,,,,,,,,,,,,,,,,612d18cff20cd023bd839bde,47,2022-02-12_18h13.35.987,lexical_decision_task_DD_L5,2021.2.3,Win32,60.20107158,,,,,,,,,,,0.9107,1,,,,,,,,,,,,,,,m,1,0.9107,,,,,,,,0.22962963,-0.318518519,0,0,0,,0,150,150,53,1,POSTER,C,old,m,./images/POSTER.png,,,,,,,,,,,,,,,,,,,,,,,,,,,,,,,,,,
,,,,,,,,,,,,,,,,,612d18cff20cd023bd839bde,47,2022-02-12_18h13.35.987,lexical_decision_task_DD_L5,2021.2.3,Win32,60.20107158,,,,,,,,,,,1.0456,0,,,,,,,,,,,,,,,z,0,1.0456,,,,,,,,0.22962963,-0.318518519,0,0,0,,0,151,151,3,1,CRATER,HB,old,m,./images/CRATERHB.png,,,,,,,,,,,,,,,,,,,,,,,,,,,,,,,,,,
,,,,,,,,,,,,,,,,,612d18cff20cd023bd839bde,47,2022-02-12_18h13.35.987,lexical_decision_task_DD_L5,2021.2.3,Win32,60.20107158,,,,,,,,,,,1.3097,1,,,,,,,,,,,,,,,z,1,1.3097,,,,,,,,0.22962963,-0.318518519,0,0,0,,0,152,152,127,1,NINDY,HB,old,z,./images/NINDYHB.png,,,,,,,,,,,,,,,,,,,,,,,,,,,,,,,,,,
,,,,,,,,,,,,,,,,,612d18cff20cd023bd839bde,47,2022-02-12_18h13.35.987,lexical_decision_task_DD_L5,2021.2.3,Win32,60.20107158,,,,,,,,,,,1.1699,1,,,,,,,,,,,,,,,z,1,1.1699,,,,,,,,0.22962963,-0.318518519,0,0,0,,0,153,153,85,1,CHULK,HB,old,z,./images/CHULKHB.png,,,,,,,,,,,,,,,,,,,,,,,,,,,,,,,,,,
,,,,,,,,,,,,,,,,,612d18cff20cd023bd839bde,47,2022-02-12_18h13.35.987,lexical_decision_task_DD_L5,2021.2.3,Win32,60.20107158,,,,,,,,,,,0.5296,1,,,,,,,,,,,,,,,m,1,0.5296,,,,,,,,0.22962963,-0.318518519,0,0,0,,0,154,154,77,1,WHEEL,C,old,m,./images/WHEEL.png,,,,,,,,,,,,,,,,,,,,,,,,,,,,,,,,,,
,,,,,,,,,,,,,,,,,612d18cff20cd023bd839bde,47,2022-02-12_18h13.35.987,lexical_decision_task_DD_L5,2021.2.3,Win32,60.20107158,,,,,,,,,,,0.7061,1,,,,,,,,,,,,,,,z,1,0.7061,,,,,,,,0.22962963,-0.318518519,0,0,0,,0,155,155,165,1,TROWN,C,old,z,./images/TROWN.png,,,,,,,,,,,,,,,,,,,,,,,,,,,,,,,,,,
,,,,,,,,,,,,,,,,,612d18cff20cd023bd839bde,47,2022-02-12_18h13.35.987,lexical_decision_task_DD_L5,2021.2.3,Win32,60.20107158,,,,,,,,,,,0.6285,1,,,,,,,,,,,,,,,m,1,0.6285,,,,,,,,0.22962963,-0.318518519,0,0,0,,0,156,156,43,1,STOOL,LB,old,m,./images/STOOLLB.png,,,,,,,,,,,,,,,,,,,,,,,,,,,,,,,,,,
,,,,,,,,,,,,,,,,,612d18cff20cd023bd839bde,47,2022-02-12_18h13.35.987,lexical_decision_task_DD_L5,2021.2.3,Win32,60.20107158,,,,,,,,,,,0.6553,0,,,,,,,,,,,,,,,z,0,0.6553,,,,,,,,0.22962963,-0.318518519,0,0,0,,0,157,157,35,1,LLAMA,C,old,m,./images/LLAMA.png,,,,,,,,,,,,,,,,,,,,,,,,,,,,,,,,,,
,,,,,,,,,,,,,,,,,612d18cff20cd023bd839bde,47,2022-02-12_18h13.35.987,lexical_decision_task_DD_L5,2021.2.3,Win32,60.20107158,,,,,,,,,,,1.1179,1,,,,,,,,,,,,,,,z,1,1.1179,,,,,,,,0.22962963,-0.318518519,0,0,0,,0,158,158,112,1,MYING,HB,old,z,./images/MYINGHB.png,,,,,,,,,,,,,,,,,,,,,,,,,,,,,,,,,,
,,,,,,,,,,,,,,,,,612d18cff20cd023bd839bde,47,2022-02-12_18h13.35.987,lexical_decision_task_DD_L5,2021.2.3,Win32,60.20107158,,,,,,,,,,,0.5616,1,,,,,,,,,,,,,,,m,1,0.5616,,,,,,,,0.22962963,-0.318518519,0,0,0,,0,159,159,56,1,HEATER,C,old,m,./images/HEATER.png,,,,,,,,,,,,,,,,,,,,,,,,,,,,,,,,,,
,,,,,,,,,,,,,,,,,612d18cff20cd023bd839bde,47,2022-02-12_18h13.35.987,lexical_decision_task_DD_L5,2021.2.3,Win32,60.20107158,,,,,,,,,,,1.0712,1,,,,,,,,,,,,,,,m,1,1.0712,,,,,,,,0.22962963,-0.318518519,0,0,0,,0,160,160,66,1,STATUE,HB,old,m,./images/STATUEHB.png,,,,,,,,,,,,,,,,,,,,,,,,,,,,,,,,,,
,,,,,,,,,,,,,,,,,612d18cff20cd023bd839bde,47,2022-02-12_18h13.35.987,lexical_decision_task_DD_L5,2021.2.3,Win32,60.20107158,,,,,,,,,,,0.6099,1,,,,,,,,,,,,,,,m,1,0.6099,,,,,,,,0.22962963,-0.318518519,0,0,0,,0,161,161,20,1,GRANNY,C,old,m,./images/GRANNY.png,,,,,,,,,,,,,,,,,,,,,,,,,,,,,,,,,,
,,,,,,,,,,,,,,,,,612d18cff20cd023bd839bde,47,2022-02-12_18h13.35.987,lexical_decision_task_DD_L5,2021.2.3,Win32,60.20107158,,,,,,,,,,,0.6937,1,,,,,,,,,,,,,,,z,1,0.6937,,,,,,,,0.22962963,-0.318518519,0,0,0,,0,162,162,111,1,HOSSE,C,old,z,./images/HOSSE.png,,,,,,,,,,,,,,,,,,,,,,,,,,,,,,,,,,
,,,,,,,,,,,,,,,,,612d18cff20cd023bd839bde,47,2022-02-12_18h13.35.987,lexical_decision_task_DD_L5,2021.2.3,Win32,60.20107158,,,,,,,,,,,1.6692,0,,,,,,,,,,,,,,,z,0,1.6692,,,,,,,,0.22962963,-0.318518519,0,0,0,,0,163,163,9,1,DIVER,HB,old,m,./images/DIVERHB.png,,,,,,,,,,,,,,,,,,,,,,,,,,,,,,,,,,
,,,,,,,,,,,,,,,,,612d18cff20cd023bd839bde,47,2022-02-12_18h13.35.987,lexical_decision_task_DD_L5,2021.2.3,Win32,60.20107158,,,,,,,,,,,1.2196,1,,,,,,,,,,,,,,,z,1,1.2196,,,,,,,,0.22962963,-0.318518519,0,0,0,,0,164,164,109,1,BURGE,HB,old,z,./images/BURGEHB.png,,,,,,,,,,,,,,,,,,,,,,,,,,,,,,,,,,
,,,,,,,,,,,,,,,,,612d18cff20cd023bd839bde,47,2022-02-12_18h13.35.987,lexical_decision_task_DD_L5,2021.2.3,Win32,60.20107158,,,,,,,,,,,0.727,1,,,,,,,,,,,,,,,z,1,0.727,,,,,,,,0.22962963,-0.318518519,0,0,0,,0,165,165,167,1,ZONET,LB,old,z,./images/ZONETLB.png,,,,,,,,,,,,,,,,,,,,,,,,,,,,,,,,,,
,,,,,,,,,,,,,,,,,612d18cff20cd023bd839bde,47,2022-02-12_18h13.35.987,lexical_decision_task_DD_L5,2021.2.3,Win32,60.20107158,,,,,,,,,,,0.6786,1,,,,,,,,,,,,,,,z,1,0.6786,,,,,,,,0.22962963,-0.318518519,0,0,0,,0,166,166,138,1,PLICE,C,old,z,./images/PLICE.png,,,,,,,,,,,,,,,,,,,,,,,,,,,,,,,,,,
,,,,,,,,,,,,,,,,,612d18cff20cd023bd839bde,47,2022-02-12_18h13.35.987,lexical_decision_task_DD_L5,2021.2.3,Win32,60.20107158,,,,,,,,,,,0.7861,1,,,,,,,,,,,,,,,m,1,0.7861,,,,,,,,0.22962963,-0.318518519,0,0,0,,0,167,167,30,1,SLOPE,HB,old,m,./images/SLOPEHB.png,,,,,,,,,,,,,,,,,,,,,,,,,,,,,,,,,,
,,,,,,,,,,,,,,,,,612d18cff20cd023bd839bde,47,2022-02-12_18h13.35.987,lexical_decision_task_DD_L5,2021.2.3,Win32,60.20107158,,,,,,,,,,,,,,,,,,,,,,,,,,,,,,,,,,,,,,,,,,,,,,,,,How likely will it be that you will recognize the words presented slighly blurred on a scale of 0 (not likely) to 100 (most likely)?,,,,,0.007407407,-0.405555556,1,0,0,jol_adv,5,13.2459,0,0,0,1,1,,,,,,,,,,,,,,,,,,,,
,,,,,,,,,,,,,,,,,612d18cff20cd023bd839bde,47,2022-02-12_18h13.35.987,lexical_decision_task_DD_L5,2021.2.3,Win32,60.20107158,,,,,,,,,,,,,,,,,,,,,,,,,,,,,,,,,,,,,,,,,,,,,,,,,How likely will it be that you will recognize the words presented clearly on a scale of 0 (not likely) to 100 (most likely)?,,,,,,,,,,,6,11.4252,0,1,1,0,1,,,,,,,,,,,,,,,,,,,,
,,,,,,,,,,,,,,,,,612d18cff20cd023bd839bde,47,2022-02-12_18h13.35.987,lexical_decision_task_DD_L5,2021.2.3,Win32,60.20107158,,,,,,,,,,,,,,,,,,,,,,,,,,,,,,,,,,,,,,,,,,,,,,,,,How likely will it be that you will recognize the words presented very blurred on a scale of 0 (not likely) to 100 (most likely)?,,,,,,,,,,,3,6.0371,0,2,2,2,1,,,,,,,,,,,,,,,,,,,,
,,0.068518519,-0.432407407,1,0,0,,,,,,1,test,"In the next phase you will be presented with the words from the the first phase. Your job is to decide whether you remember seeing the word or not. If you remember seeing the word press ""old"" or type ""m"". If you do not remember seeing the word press ""new"" or type ""z"". Please press the space bar or click on continue to begin. ",,,612d18cff20cd023bd839bde,47,2022-02-12_18h13.35.987,lexical_decision_task_DD_L5,2021.2.3,Win32,60.20107158,instr_done_button,,,,,,,,,,,,,,,,,,,,,,,,,,,,,,,,,,,,,,,,,,,,,,,,,,,,,,,,,,,,,,,,,,0,0,0,0,1,,,,,,,,,,,,,,,
space,1.9802,0.068518519,-0.432407407,0,0,0,,,,,,1,test,"In the next phase you will be presented with the words from the the first phase. Your job is to decide whether you remember seeing the word or not. If you remember seeing the word press ""old"" or type ""m"". If you do not remember seeing the word press ""new"" or type ""z"". Please press the space bar or click on continue to begin. ",,,612d18cff20cd023bd839bde,47,2022-02-12_18h13.35.987,lexical_decision_task_DD_L5,2021.2.3,Win32,60.20107158,,,,,,,,,,,,,,,,,,,,,,,,,,,,,,,,,,,,,,,,,,,,,,,,,,,,,,,,,,,,,,,,,,,1,0,1,0,1,,,,,,,,,,,,,,,
space,2.3854,0.068518519,-0.432407407,0,0,0,,,,,,1,test,"In the next phase you will be presented with the words from the the first phase. Your job is to decide whether you remember seeing the word or not. If you remember seeing the word press ""old"" or type ""m"". If you do not remember seeing the word press ""new"" or type ""z"". Please press the space bar or click on continue to begin. ",,,612d18cff20cd023bd839bde,47,2022-02-12_18h13.35.987,lexical_decision_task_DD_L5,2021.2.3,Win32,60.20107158,,,,,,,,,,,,,,,,,,,,,,,,,,,,,,,,,,,,,,,,,,,,,,,,,,,,,,,,,,,,,,,,,,,2,0,2,0,1,,,,,,,,,,,,,,,
,,0.053703704,-0.447222222,1,0,0,,,,,,1,test,"In the next phase you will be presented with the words from the the first phase. Your job is to decide whether you remember seeing the word or not. If you remember seeing the word press ""old"" or type ""m"". If you do not remember seeing the word press ""new"" or type ""z"". Please press the space bar or click on continue to begin. ",,,612d18cff20cd023bd839bde,47,2022-02-12_18h13.35.987,lexical_decision_task_DD_L5,2021.2.3,Win32,60.20107158,instr_done_button,,,,,,,,,,,,,,,,,,,,,,,,,,,,,,,,,,,,,,,,,,,,,,,,,,,,,,,,,,,,,,,,,,3,0,3,0,1,,,,,,,,,,,,,,,
space,2.5207,0.044444444,-0.425,0,0,0,,,,,,1,test,"In the next phase you will be presented with the words from the the first phase. Your job is to decide whether you remember seeing the word or not. If you remember seeing the word press ""old"" or type ""m"". If you do not remember seeing the word press ""new"" or type ""z"". Please press the space bar or click on continue to begin. ",,,612d18cff20cd023bd839bde,47,2022-02-12_18h13.35.987,lexical_decision_task_DD_L5,2021.2.3,Win32,60.20107158,,,,,,,,,,,,,,,,,,,,,,,,,,,,,,,,,,,,,,,,,,,,,,,,,,,,,,,,,,,,,,,,,,,4,0,4,0,1,,,,,,,,,,,,,,,
,,,,,,,,,,,,,,,,,612d18cff20cd023bd839bde,47,2022-02-12_18h13.35.987,lexical_decision_task_DD_L5,2021.2.3,Win32,60.20107158,,,,,,,,,,,2.3087,1,,,,,,,,,,,,,,,,,,,,,,,,,0.044444444,-0.425,0,0,0,,,,,,,PLANET,C,m,y,./images/PLANET.png,,,,,,,,,,,,,,,,,,,,m,1,2.3087,,,,,,,,0,0,0,80,1
,,,,,,,,,,,,,,,,,612d18cff20cd023bd839bde,47,2022-02-12_18h13.35.987,lexical_decision_task_DD_L5,2021.2.3,Win32,60.20107158,,,,,,,,,,,0.8959,0,,,,,,,,,,,,,,,,,,,,,,,,,0.044444444,-0.425,0,0,0,,,,,,,GRAIN,HB,z,y,./images/GRAINHB.png,,,,,,,,,,,,,,,,,,,,m,0,0.8959,,,,,,,,0,1,1,159,1
,,,,,,,,,,,,,,,,,612d18cff20cd023bd839bde,47,2022-02-12_18h13.35.987,lexical_decision_task_DD_L5,2021.2.3,Win32,60.20107158,,,,,,,,,,,1.1964,0,,,,,,,,,,,,,,,,,,,,,,,,,0.044444444,-0.425,0,0,0,,,,,,,MALLET,C,z,y,./images/MALLET.png,,,,,,,,,,,,,,,,,,,,m,0,1.1964,,,,,,,,0,2,2,134,1
,,,,,,,,,,,,,,,,,612d18cff20cd023bd839bde,47,2022-02-12_18h13.35.987,lexical_decision_task_DD_L5,2021.2.3,Win32,60.20107158,,,,,,,,,,,0.7872,1,,,,,,,,,,,,,,,,,,,,,,,,,0.044444444,-0.425,0,0,0,,,,,,,LAGOON,C,m,y,./images/LAGOON.png,,,,,,,,,,,,,,,,,,,,m,1,0.7872,,,,,,,,0,3,3,47,1
,,,,,,,,,,,,,,,,,612d18cff20cd023bd839bde,47,2022-02-12_18h13.35.987,lexical_decision_task_DD_L5,2021.2.3,Win32,60.20107158,,,,,,,,,,,0.8538,1,,,,,,,,,,,,,,,,,,,,,,,,,0.044444444,-0.425,0,0,0,,,,,,,LLAMA,C,m,y,./images/LLAMA.png,,,,,,,,,,,,,,,,,,,,m,1,0.8538,,,,,,,,0,4,4,35,1
,,,,,,,,,,,,,,,,,612d18cff20cd023bd839bde,47,2022-02-12_18h13.35.987,lexical_decision_task_DD_L5,2021.2.3,Win32,60.20107158,,,,,,,,,,,1.2952,0,,,,,,,,,,,,,,,,,,,,,,,,,0.044444444,-0.425,0,0,0,,,,,,,MUSCLE,LB,z,y,./images/MUSCLELB.png,,,,,,,,,,,,,,,,,,,,m,0,1.2952,,,,,,,,0,5,5,88,1
,,,,,,,,,,,,,,,,,612d18cff20cd023bd839bde,47,2022-02-12_18h13.35.987,lexical_decision_task_DD_L5,2021.2.3,Win32,60.20107158,,,,,,,,,,,1.5787,1,,,,,,,,,,,,,,,,,,,,,,,,,0.044444444,-0.425,0,0,0,,,,,,,BLOKE,HB,m,y,./images/BLOKEHB.png,,,,,,,,,,,,,,,,,,,,m,1,1.5787,,,,,,,,0,6,6,12,1
,,,,,,,,,,,,,,,,,612d18cff20cd023bd839bde,47,2022-02-12_18h13.35.987,lexical_decision_task_DD_L5,2021.2.3,Win32,60.20107158,,,,,,,,,,,1.6949,1,,,,,,,,,,,,,,,,,,,,,,,,,0.044444444,-0.425,0,0,0,,,,,,,CRADLE,C,z,y,./images/CRADLE.png,,,,,,,,,,,,,,,,,,,,z,1,1.6949,,,,,,,,0,7,7,104,1
,,,,,,,,,,,,,,,,,612d18cff20cd023bd839bde,47,2022-02-12_18h13.35.987,lexical_decision_task_DD_L5,2021.2.3,Win32,60.20107158,,,,,,,,,,,1.1977,1,,,,,,,,,,,,,,,,,,,,,,,,,0.044444444,-0.425,0,0,0,,,,,,,PACKET,C,z,y,./images/PACKET.png,,,,,,,,,,,,,,,,,,,,z,1,1.1977,,,,,,,,0,8,8,140,1
,,,,,,,,,,,,,,,,,612d18cff20cd023bd839bde,47,2022-02-12_18h13.35.987,lexical_decision_task_DD_L5,2021.2.3,Win32,60.20107158,,,,,,,,,,,1.3289,1,,,,,,,,,,,,,,,,,,,,,,,,,0.044444444,-0.425,0,0,0,,,,,,,ALLEY,LB,m,y,./images/ALLEYLB.png,,,,,,,,,,,,,,,,,,,,m,1,1.3289,,,,,,,,0,9,9,55,1
,,,,,,,,,,,,,,,,,612d18cff20cd023bd839bde,47,2022-02-12_18h13.35.987,lexical_decision_task_DD_L5,2021.2.3,Win32,60.20107158,,,,,,,,,,,1.3188,0,,,,,,,,,,,,,,,,,,,,,,,,,0.044444444,-0.425,0,0,0,,,,,,,KITTEN,HB,z,y,./images/KITTENHB.png,,,,,,,,,,,,,,,,,,,,m,0,1.3188,,,,,,,,0,10,10,129,1
,,,,,,,,,,,,,,,,,612d18cff20cd023bd839bde,47,2022-02-12_18h13.35.987,lexical_decision_task_DD_L5,2021.2.3,Win32,60.20107158,,,,,,,,,,,0.9836,1,,,,,,,,,,,,,,,,,,,,,,,,,0.044444444,-0.425,0,0,0,,,,,,,SPORT,HB,z,y,./images/SPORTHB.png,,,,,,,,,,,,,,,,,,,,z,1,0.9836,,,,,,,,0,11,11,132,1
,,,,,,,,,,,,,,,,,612d18cff20cd023bd839bde,47,2022-02-12_18h13.35.987,lexical_decision_task_DD_L5,2021.2.3,Win32,60.20107158,,,,,,,,,,,0.8657,1,,,,,,,,,,,,,,,,,,,,,,,,,0.044444444,-0.425,0,0,0,,,,,,,CLOUD,C,m,y,./images/CLOUD.png,,,,,,,,,,,,,,,,,,,,m,1,0.8657,,,,,,,,0,12,12,26,1
,,,,,,,,,,,,,,,,,612d18cff20cd023bd839bde,47,2022-02-12_18h13.35.987,lexical_decision_task_DD_L5,2021.2.3,Win32,60.20107158,,,,,,,,,,,0.7222,1,,,,,,,,,,,,,,,,,,,,,,,,,0.044444444,-0.425,0,0,0,,,,,,,PARADE,C,m,y,./images/PARADE.png,,,,,,,,,,,,,,,,,,,,m,1,0.7222,,,,,,,,0,13,13,17,1
,,,,,,,,,,,,,,,,,612d18cff20cd023bd839bde,47,2022-02-12_18h13.35.987,lexical_decision_task_DD_L5,2021.2.3,Win32,60.20107158,,,,,,,,,,,0.7664,0,,,,,,,,,,,,,,,,,,,,,,,,,0.044444444,-0.425,0,0,0,,,,,,,THROAT,HB,z,y,./images/THROATHB.png,,,,,,,,,,,,,,,,,,,,m,0,0.7664,,,,,,,,0,14,14,120,1
,,,,,,,,,,,,,,,,,612d18cff20cd023bd839bde,47,2022-02-12_18h13.35.987,lexical_decision_task_DD_L5,2021.2.3,Win32,60.20107158,,,,,,,,,,,0.9627,1,,,,,,,,,,,,,,,,,,,,,,,,,0.044444444,-0.425,0,0,0,,,,,,,ENGINE,C,m,y,./images/ENGINE.png,,,,,,,,,,,,,,,,,,,,m,1,0.9627,,,,,,,,0,15,15,38,1
,,,,,,,,,,,,,,,,,612d18cff20cd023bd839bde,47,2022-02-12_18h13.35.987,lexical_decision_task_DD_L5,2021.2.3,Win32,60.20107158,,,,,,,,,,,0.834,1,,,,,,,,,,,,,,,,,,,,,,,,,0.044444444,-0.425,0,0,0,,,,,,,SKIING,C,z,y,./images/SKIING.png,,,,,,,,,,,,,,,,,,,,z,1,0.834,,,,,,,,0,16,16,101,1
,,,,,,,,,,,,,,,,,612d18cff20cd023bd839bde,47,2022-02-12_18h13.35.987,lexical_decision_task_DD_L5,2021.2.3,Win32,60.20107158,,,,,,,,,,,1.4456,0,,,,,,,,,,,,,,,,,,,,,,,,,0.044444444,-0.425,0,0,0,,,,,,,CRATER,HB,m,y,./images/CRATERHB.png,,,,,,,,,,,,,,,,,,,,z,0,1.4456,,,,,,,,0,17,17,3,1
,,,,,,,,,,,,,,,,,612d18cff20cd023bd839bde,47,2022-02-12_18h13.35.987,lexical_decision_task_DD_L5,2021.2.3,Win32,60.20107158,,,,,,,,,,,0.7284,1,,,,,,,,,,,,,,,,,,,,,,,,,0.044444444,-0.425,0,0,0,,,,,,,RAZOR,LB,m,y,./images/RAZORLB.png,,,,,,,,,,,,,,,,,,,,m,1,0.7284,,,,,,,,0,18,18,34,1
,,,,,,,,,,,,,,,,,612d18cff20cd023bd839bde,47,2022-02-12_18h13.35.987,lexical_decision_task_DD_L5,2021.2.3,Win32,60.20107158,,,,,,,,,,,1.0645,0,,,,,,,,,,,,,,,,,,,,,,,,,0.044444444,-0.425,0,0,0,,,,,,,SNAKE,LB,m,y,./images/SNAKELB.png,,,,,,,,,,,,,,,,,,,,z,0,1.0645,,,,,,,,0,19,19,40,1
,,,,,,,,,,,,,,,,,612d18cff20cd023bd839bde,47,2022-02-12_18h13.35.987,lexical_decision_task_DD_L5,2021.2.3,Win32,60.20107158,,,,,,,,,,,0.9826,1,,,,,,,,,,,,,,,,,,,,,,,,,0.044444444,-0.425,0,0,0,,,,,,,WEASEL,C,z,y,./images/WEASEL.png,,,,,,,,,,,,,,,,,,,,z,1,0.9826,,,,,,,,0,20,20,164,1
,,,,,,,,,,,,,,,,,612d18cff20cd023bd839bde,47,2022-02-12_18h13.35.987,lexical_decision_task_DD_L5,2021.2.3,Win32,60.20107158,,,,,,,,,,,0.6504,0,,,,,,,,,,,,,,,,,,,,,,,,,0.044444444,-0.425,0,0,0,,,,,,,MIRROR,HB,z,y,./images/MIRRORHB.png,,,,,,,,,,,,,,,,,,,,m,0,0.6504,,,,,,,,0,21,21,147,1
,,,,,,,,,,,,,,,,,612d18cff20cd023bd839bde,47,2022-02-12_18h13.35.987,lexical_decision_task_DD_L5,2021.2.3,Win32,60.20107158,,,,,,,,,,,0.8552,1,,,,,,,,,,,,,,,,,,,,,,,,,0.044444444,-0.425,0,0,0,,,,,,,JELLY,LB,z,y,./images/JELLYLB.png,,,,,,,,,,,,,,,,,,,,z,1,0.8552,,,,,,,,0,22,22,148,1
,,,,,,,,,,,,,,,,,612d18cff20cd023bd839bde,47,2022-02-12_18h13.35.987,lexical_decision_task_DD_L5,2021.2.3,Win32,60.20107158,,,,,,,,,,,0.936,0,,,,,,,,,,,,,,,,,,,,,,,,,0.044444444,-0.425,0,0,0,,,,,,,DOUGH,LB,z,y,./images/DOUGHLB.png,,,,,,,,,,,,,,,,,,,,m,0,0.936,,,,,,,,0,23,23,103,1
,,,,,,,,,,,,,,,,,612d18cff20cd023bd839bde,47,2022-02-12_18h13.35.987,lexical_decision_task_DD_L5,2021.2.3,Win32,60.20107158,,,,,,,,,,,0.7497,1,,,,,,,,,,,,,,,,,,,,,,,,,0.044444444,-0.425,0,0,0,,,,,,,MUMMY,LB,m,y,./images/MUMMYLB.png,,,,,,,,,,,,,,,,,,,,m,1,0.7497,,,,,,,,0,24,24,46,1
,,,,,,,,,,,,,,,,,612d18cff20cd023bd839bde,47,2022-02-12_18h13.35.987,lexical_decision_task_DD_L5,2021.2.3,Win32,60.20107158,,,,,,,,,,,0.9577,1,,,,,,,,,,,,,,,,,,,,,,,,,0.044444444,-0.425,0,0,0,,,,,,,RULER,LB,m,y,./images/RULERLB.png,,,,,,,,,,,,,,,,,,,,m,1,0.9577,,,,,,,,0,25,25,79,1
,,,,,,,,,,,,,,,,,612d18cff20cd023bd839bde,47,2022-02-12_18h13.35.987,lexical_decision_task_DD_L5,2021.2.3,Win32,60.20107158,,,,,,,,,,,1.0365,1,,,,,,,,,,,,,,,,,,,,,,,,,0.044444444,-0.425,0,0,0,,,,,,,MOSQUE,LB,z,y,./images/MOSQUELB.png,,,,,,,,,,,,,,,,,,,,z,1,1.0365,,,,,,,,0,26,26,127,1
,,,,,,,,,,,,,,,,,612d18cff20cd023bd839bde,47,2022-02-12_18h13.35.987,lexical_decision_task_DD_L5,2021.2.3,Win32,60.20107158,,,,,,,,,,,0.8307,1,,,,,,,,,,,,,,,,,,,,,,,,,0.044444444,-0.425,0,0,0,,,,,,,TOMATO,HB,z,y,./images/TOMATOHB.png,,,,,,,,,,,,,,,,,,,,z,1,0.8307,,,,,,,,0,27,27,84,1
,,,,,,,,,,,,,,,,,612d18cff20cd023bd839bde,47,2022-02-12_18h13.35.987,lexical_decision_task_DD_L5,2021.2.3,Win32,60.20107158,,,,,,,,,,,1.2623,1,,,,,,,,,,,,,,,,,,,,,,,,,0.044444444,-0.425,0,0,0,,,,,,,BERRY,C,z,y,./images/BERRY.png,,,,,,,,,,,,,,,,,,,,z,1,1.2623,,,,,,,,0,28,28,131,1
,,,,,,,,,,,,,,,,,612d18cff20cd023bd839bde,47,2022-02-12_18h13.35.987,lexical_decision_task_DD_L5,2021.2.3,Win32,60.20107158,,,,,,,,,,,1.2512,1,,,,,,,,,,,,,,,,,,,,,,,,,0.044444444,-0.425,0,0,0,,,,,,,LADDER,C,z,y,./images/LADDER.png,,,,,,,,,,,,,,,,,,,,z,1,1.2512,,,,,,,,0,29,29,122,1
,,,,,,,,,,,,,,,,,612d18cff20cd023bd839bde,47,2022-02-12_18h13.35.987,lexical_decision_task_DD_L5,2021.2.3,Win32,60.20107158,,,,,,,,,,,0.6483,1,,,,,,,,,,,,,,,,,,,,,,,,,0.044444444,-0.425,0,0,0,,,,,,,BUTTER,HB,m,y,./images/BUTTERHB.png,,,,,,,,,,,,,,,,,,,,m,1,0.6483,,,,,,,,0,30,30,27,1
,,,,,,,,,,,,,,,,,612d18cff20cd023bd839bde,47,2022-02-12_18h13.35.987,lexical_decision_task_DD_L5,2021.2.3,Win32,60.20107158,,,,,,,,,,,1.0089,1,,,,,,,,,,,,,,,,,,,,,,,,,0.044444444,-0.425,0,0,0,,,,,,,PIMPLE,C,z,y,./images/PIMPLE.png,,,,,,,,,,,,,,,,,,,,z,1,1.0089,,,,,,,,0,31,31,155,1
,,,,,,,,,,,,,,,,,612d18cff20cd023bd839bde,47,2022-02-12_18h13.35.987,lexical_decision_task_DD_L5,2021.2.3,Win32,60.20107158,,,,,,,,,,,0.7531,1,,,,,,,,,,,,,,,,,,,,,,,,,0.044444444,-0.425,0,0,0,,,,,,,DANCER,HB,m,y,./images/DANCERHB.png,,,,,,,,,,,,,,,,,,,,m,1,0.7531,,,,,,,,0,32,32,21,1
,,,,,,,,,,,,,,,,,612d18cff20cd023bd839bde,47,2022-02-12_18h13.35.987,lexical_decision_task_DD_L5,2021.2.3,Win32,60.20107158,,,,,,,,,,,0.6857,0,,,,,,,,,,,,,,,,,,,,,,,,,0.044444444,-0.425,0,0,0,,,,,,,PASTA,C,z,y,./images/PASTA.png,,,,,,,,,,,,,,,,,,,,m,0,0.6857,,,,,,,,0,33,33,89,1
,,,,,,,,,,,,,,,,,612d18cff20cd023bd839bde,47,2022-02-12_18h13.35.987,lexical_decision_task_DD_L5,2021.2.3,Win32,60.20107158,,,,,,,,,,,0.9132,1,,,,,,,,,,,,,,,,,,,,,,,,,0.044444444,-0.425,0,0,0,,,,,,,JUMPER,C,m,y,./images/JUMPER.png,,,,,,,,,,,,,,,,,,,,m,1,0.9132,,,,,,,,0,34,34,74,1
,,,,,,,,,,,,,,,,,612d18cff20cd023bd839bde,47,2022-02-12_18h13.35.987,lexical_decision_task_DD_L5,2021.2.3,Win32,60.20107158,,,,,,,,,,,0.7076,1,,,,,,,,,,,,,,,,,,,,,,,,,0.044444444,-0.425,0,0,0,,,,,,,POKER,LB,m,y,./images/POKERLB.png,,,,,,,,,,,,,,,,,,,,m,1,0.7076,,,,,,,,0,35,35,67,1
,,,,,,,,,,,,,,,,,612d18cff20cd023bd839bde,47,2022-02-12_18h13.35.987,lexical_decision_task_DD_L5,2021.2.3,Win32,60.20107158,,,,,,,,,,,0.7094,1,,,,,,,,,,,,,,,,,,,,,,,,,0.044444444,-0.425,0,0,0,,,,,,,TRIPOD,HB,z,y,./images/TRIPODHB.png,,,,,,,,,,,,,,,,,,,,z,1,0.7094,,,,,,,,0,36,36,138,1
,,,,,,,,,,,,,,,,,612d18cff20cd023bd839bde,47,2022-02-12_18h13.35.987,lexical_decision_task_DD_L5,2021.2.3,Win32,60.20107158,,,,,,,,,,,1.329,0,,,,,,,,,,,,,,,,,,,,,,,,,0.044444444,-0.425,0,0,0,,,,,,,QUILL,LB,z,y,./images/QUILLLB.png,,,,,,,,,,,,,,,,,,,,m,0,1.329,,,,,,,,0,37,37,115,1
,,,,,,,,,,,,,,,,,612d18cff20cd023bd839bde,47,2022-02-12_18h13.35.987,lexical_decision_task_DD_L5,2021.2.3,Win32,60.20107158,,,,,,,,,,,0.9657,0,,,,,,,,,,,,,,,,,,,,,,,,,0.044444444,-0.425,0,0,0,,,,,,,PEARL,LB,z,y,./images/PEARLLB.png,,,,,,,,,,,,,,,,,,,,m,0,0.9657,,,,,,,,0,38,38,130,1
,,,,,,,,,,,,,,,,,612d18cff20cd023bd839bde,47,2022-02-12_18h13.35.987,lexical_decision_task_DD_L5,2021.2.3,Win32,60.20107158,,,,,,,,,,,0.7508,1,,,,,,,,,,,,,,,,,,,,,,,,,0.044444444,-0.425,0,0,0,,,,,,,CHAIN,HB,m,y,./images/CHAINHB.png,,,,,,,,,,,,,,,,,,,,m,1,0.7508,,,,,,,,0,39,39,42,1
,,,,,,,,,,,,,,,,,612d18cff20cd023bd839bde,47,2022-02-12_18h13.35.987,lexical_decision_task_DD_L5,2021.2.3,Win32,60.20107158,,,,,,,,,,,1.0968,0,,,,,,,,,,,,,,,,,,,,,,,,,0.044444444,-0.425,0,0,0,,,,,,,SNACK,LB,z,y,./images/SNACKLB.png,,,,,,,,,,,,,,,,,,,,m,0,1.0968,,,,,,,,0,40,40,157,1
,,,,,,,,,,,,,,,,,612d18cff20cd023bd839bde,47,2022-02-12_18h13.35.987,lexical_decision_task_DD_L5,2021.2.3,Win32,60.20107158,,,,,,,,,,,1.4916,0,,,,,,,,,,,,,,,,,,,,,,,,,0.044444444,-0.425,0,0,0,space,,,,,,WHEEL,C,m,y,./images/WHEEL.png,1.405,,,,,,,,,,,,,,,,,,,z,0,1.4916,,,,,,,,0,41,41,77,1
,,,,,,,,,,,,,,,,,612d18cff20cd023bd839bde,47,2022-02-12_18h13.35.987,lexical_decision_task_DD_L5,2021.2.3,Win32,60.20107158,,,,,,,,,,,1.8147,0,,,,,,,,,,,,,,,,,,,,,,,,,0.044444444,-0.425,0,0,0,,,,,,,MAGGOT,HB,z,y,./images/MAGGOTHB.png,,,,,,,,,,,,,,,,,,,,m,0,1.8147,,,,,,,,0,42,42,117,1
,,,,,,,,,,,,,,,,,612d18cff20cd023bd839bde,47,2022-02-12_18h13.35.987,lexical_decision_task_DD_L5,2021.2.3,Win32,60.20107158,,,,,,,,,,,1.0747,0,,,,,,,,,,,,,,,,,,,,,,,,,0.044444444,-0.425,0,0,0,,,,,,,BIRTH,LB,z,y,./images/BIRTHLB.png,,,,,,,,,,,,,,,,,,,,m,0,1.0747,,,,,,,,0,43,43,121,1
,,,,,,,,,,,,,,,,,612d18cff20cd023bd839bde,47,2022-02-12_18h13.35.987,lexical_decision_task_DD_L5,2021.2.3,Win32,60.20107158,,,,,,,,,,,1.0984,1,,,,,,,,,,,,,,,,,,,,,,,,,0.044444444,-0.425,0,0,0,,,,,,,SHELF,HB,z,y,./images/SHELFHB.png,,,,,,,,,,,,,,,,,,,,z,1,1.0984,,,,,,,,0,44,44,123,1
,,,,,,,,,,,,,,,,,612d18cff20cd023bd839bde,47,2022-02-12_18h13.35.987,lexical_decision_task_DD_L5,2021.2.3,Win32,60.20107158,,,,,,,,,,,1.0481,1,,,,,,,,,,,,,,,,,,,,,,,,,0.044444444,-0.425,0,0,0,,,,,,,TWINS,HB,z,y,./images/TWINSHB.png,,,,,,,,,,,,,,,,,,,,z,1,1.0481,,,,,,,,0,45,45,144,1
,,,,,,,,,,,,,,,,,612d18cff20cd023bd839bde,47,2022-02-12_18h13.35.987,lexical_decision_task_DD_L5,2021.2.3,Win32,60.20107158,,,,,,,,,,,0.9182,1,,,,,,,,,,,,,,,,,,,,,,,,,0.044444444,-0.425,0,0,0,,,,,,,BRIDE,LB,m,y,./images/BRIDELB.png,,,,,,,,,,,,,,,,,,,,m,1,0.9182,,,,,,,,0,46,46,64,1
,,,,,,,,,,,,,,,,,612d18cff20cd023bd839bde,47,2022-02-12_18h13.35.987,lexical_decision_task_DD_L5,2021.2.3,Win32,60.20107158,,,,,,,,,,,1.2182,0,,,,,,,,,,,,,,,,,,,,,,,,,0.044444444,-0.425,0,0,0,,,,,,,COOKER,HB,z,y,./images/COOKERHB.png,,,,,,,,,,,,,,,,,,,,m,0,1.2182,,,,,,,,0,47,47,153,1
,,,,,,,,,,,,,,,,,612d18cff20cd023bd839bde,47,2022-02-12_18h13.35.987,lexical_decision_task_DD_L5,2021.2.3,Win32,60.20107158,,,,,,,,,,,0.8263,1,,,,,,,,,,,,,,,,,,,,,,,,,0.044444444,-0.425,0,0,0,,,,,,,WALRUS,C,z,y,./images/WALRUS.png,,,,,,,,,,,,,,,,,,,,z,1,0.8263,,,,,,,,0,48,48,107,1
,,,,,,,,,,,,,,,,,612d18cff20cd023bd839bde,47,2022-02-12_18h13.35.987,lexical_decision_task_DD_L5,2021.2.3,Win32,60.20107158,,,,,,,,,,,1.0054,0,,,,,,,,,,,,,,,,,,,,,,,,,0.044444444,-0.425,0,0,0,,,,,,,BEARD,C,z,y,./images/BEARD.png,,,,,,,,,,,,,,,,,,,,m,0,1.0054,,,,,,,,0,49,49,86,1
,,,,,,,,,,,,,,,,,612d18cff20cd023bd839bde,47,2022-02-12_18h13.35.987,lexical_decision_task_DD_L5,2021.2.3,Win32,60.20107158,,,,,,,,,,,1.2505,0,,,,,,,,,,,,,,,,,,,,,,,,,0.044444444,-0.425,0,0,0,,,,,,,WALNUT,HB,m,y,./images/WALNUTHB.png,,,,,,,,,,,,,,,,,,,,z,0,1.2505,,,,,,,,0,50,50,0,1
,,,,,,,,,,,,,,,,,612d18cff20cd023bd839bde,47,2022-02-12_18h13.35.987,lexical_decision_task_DD_L5,2021.2.3,Win32,60.20107158,,,,,,,,,,,0.9659,1,,,,,,,,,,,,,,,,,,,,,,,,,0.044444444,-0.425,0,0,0,,,,,,,PEACH,C,z,y,./images/PEACH.png,,,,,,,,,,,,,,,,,,,,z,1,0.9659,,,,,,,,0,51,51,119,1
,,,,,,,,,,,,,,,,,612d18cff20cd023bd839bde,47,2022-02-12_18h13.35.987,lexical_decision_task_DD_L5,2021.2.3,Win32,60.20107158,,,,,,,,,,,1.0022,1,,,,,,,,,,,,,,,,,,,,,,,,,0.044444444,-0.425,0,0,0,,,,,,,DRILL,HB,m,y,./images/DRILLHB.png,,,,,,,,,,,,,,,,,,,,m,1,1.0022,,,,,,,,0,52,52,81,1
,,,,,,,,,,,,,,,,,612d18cff20cd023bd839bde,47,2022-02-12_18h13.35.987,lexical_decision_task_DD_L5,2021.2.3,Win32,60.20107158,,,,,,,,,,,1.0618,1,,,,,,,,,,,,,,,,,,,,,,,,,0.044444444,-0.425,0,0,0,,,,,,,SCREW,HB,z,y,./images/SCREWHB.png,,,,,,,,,,,,,,,,,,,,z,1,1.0618,,,,,,,,0,53,53,108,1
,,,,,,,,,,,,,,,,,612d18cff20cd023bd839bde,47,2022-02-12_18h13.35.987,lexical_decision_task_DD_L5,2021.2.3,Win32,60.20107158,,,,,,,,,,,1.1038,1,,,,,,,,,,,,,,,,,,,,,,,,,0.044444444,-0.425,0,0,0,,,,,,,BAKER,HB,m,y,./images/BAKERHB.png,,,,,,,,,,,,,,,,,,,,m,1,1.1038,,,,,,,,0,54,54,63,1
,,,,,,,,,,,,,,,,,612d18cff20cd023bd839bde,47,2022-02-12_18h13.35.987,lexical_decision_task_DD_L5,2021.2.3,Win32,60.20107158,,,,,,,,,,,0.7633,1,,,,,,,,,,,,,,,,,,,,,,,,,0.044444444,-0.425,0,0,0,,,,,,,MAMMAL,C,m,y,./images/MAMMAL.png,,,,,,,,,,,,,,,,,,,,m,1,0.7633,,,,,,,,0,55,55,62,1
,,,,,,,,,,,,,,,,,612d18cff20cd023bd839bde,47,2022-02-12_18h13.35.987,lexical_decision_task_DD_L5,2021.2.3,Win32,60.20107158,,,,,,,,,,,0.8491,1,,,,,,,,,,,,,,,,,,,,,,,,,0.044444444,-0.425,0,0,0,,,,,,,CARPET,C,z,y,./images/CARPET.png,,,,,,,,,,,,,,,,,,,,z,1,0.8491,,,,,,,,0,56,56,137,1
,,,,,,,,,,,,,,,,,612d18cff20cd023bd839bde,47,2022-02-12_18h13.35.987,lexical_decision_task_DD_L5,2021.2.3,Win32,60.20107158,,,,,,,,,,,0.9401,1,,,,,,,,,,,,,,,,,,,,,,,,,0.044444444,-0.425,0,0,0,,,,,,,SQUARE,HB,z,y,./images/SQUAREHB.png,,,,,,,,,,,,,,,,,,,,z,1,0.9401,,,,,,,,0,57,57,90,1
,,,,,,,,,,,,,,,,,612d18cff20cd023bd839bde,47,2022-02-12_18h13.35.987,lexical_decision_task_DD_L5,2021.2.3,Win32,60.20107158,,,,,,,,,,,1.3834,1,,,,,,,,,,,,,,,,,,,,,,,,,0.044444444,-0.425,0,0,0,,,,,,,CLOWN,LB,m,y,./images/CLOWNLB.png,,,,,,,,,,,,,,,,,,,,m,1,1.3834,,,,,,,,0,58,58,22,1
,,,,,,,,,,,,,,,,,612d18cff20cd023bd839bde,47,2022-02-12_18h13.35.987,lexical_decision_task_DD_L5,2021.2.3,Win32,60.20107158,,,,,,,,,,,0.7819,0,,,,,,,,,,,,,,,,,,,,,,,,,0.044444444,-0.425,0,0,0,,,,,,,HEATER,C,m,y,./images/HEATER.png,,,,,,,,,,,,,,,,,,,,z,0,0.7819,,,,,,,,0,59,59,56,1
,,,,,,,,,,,,,,,,,612d18cff20cd023bd839bde,47,2022-02-12_18h13.35.987,lexical_decision_task_DD_L5,2021.2.3,Win32,60.20107158,,,,,,,,,,,0.7658,1,,,,,,,,,,,,,,,,,,,,,,,,,0.044444444,-0.425,0,0,0,,,,,,,MELON,LB,z,y,./images/MELONLB.png,,,,,,,,,,,,,,,,,,,,z,1,0.7658,,,,,,,,0,60,60,106,1
,,,,,,,,,,,,,,,,,612d18cff20cd023bd839bde,47,2022-02-12_18h13.35.987,lexical_decision_task_DD_L5,2021.2.3,Win32,60.20107158,,,,,,,,,,,0.8808,1,,,,,,,,,,,,,,,,,,,,,,,,,0.044444444,-0.425,0,0,0,,,,,,,INFANT,LB,z,y,./images/INFANTLB.png,,,,,,,,,,,,,,,,,,,,z,1,0.8808,,,,,,,,0,61,61,160,1
,,,,,,,,,,,,,,,,,612d18cff20cd023bd839bde,47,2022-02-12_18h13.35.987,lexical_decision_task_DD_L5,2021.2.3,Win32,60.20107158,,,,,,,,,,,0.9424,1,,,,,,,,,,,,,,,,,,,,,,,,,0.044444444,-0.425,0,0,0,,,,,,,FLASK,HB,m,y,./images/FLASKHB.png,,,,,,,,,,,,,,,,,,,,m,1,0.9424,,,,,,,,0,62,62,72,1
,,,,,,,,,,,,,,,,,612d18cff20cd023bd839bde,47,2022-02-12_18h13.35.987,lexical_decision_task_DD_L5,2021.2.3,Win32,60.20107158,,,,,,,,,,,0.7727,1,,,,,,,,,,,,,,,,,,,,,,,,,0.044444444,-0.425,0,0,0,,,,,,,STOVE,C,m,y,./images/STOVE.png,,,,,,,,,,,,,,,,,,,,m,1,0.7727,,,,,,,,0,63,63,2,1
,,,,,,,,,,,,,,,,,612d18cff20cd023bd839bde,47,2022-02-12_18h13.35.987,lexical_decision_task_DD_L5,2021.2.3,Win32,60.20107158,,,,,,,,,,,0.9793,0,,,,,,,,,,,,,,,,,,,,,,,,,0.044444444,-0.425,0,0,0,,,,,,,SHIELD,HB,m,y,./images/SHIELDHB.png,,,,,,,,,,,,,,,,,,,,z,0,0.9793,,,,,,,,0,64,64,48,1
,,,,,,,,,,,,,,,,,612d18cff20cd023bd839bde,47,2022-02-12_18h13.35.987,lexical_decision_task_DD_L5,2021.2.3,Win32,60.20107158,,,,,,,,,,,0.8708,1,,,,,,,,,,,,,,,,,,,,,,,,,0.044444444,-0.425,0,0,0,,,,,,,MOTOR,LB,z,y,./images/MOTORLB.png,,,,,,,,,,,,,,,,,,,,z,1,0.8708,,,,,,,,0,65,65,97,1
,,,,,,,,,,,,,,,,,612d18cff20cd023bd839bde,47,2022-02-12_18h13.35.987,lexical_decision_task_DD_L5,2021.2.3,Win32,60.20107158,,,,,,,,,,,0.7547,1,,,,,,,,,,,,,,,,,,,,,,,,,0.044444444,-0.425,0,0,0,,,,,,,BANANA,LB,m,y,./images/BANANALB.png,,,,,,,,,,,,,,,,,,,,m,1,0.7547,,,,,,,,0,66,66,70,1
,,,,,,,,,,,,,,,,,612d18cff20cd023bd839bde,47,2022-02-12_18h13.35.987,lexical_decision_task_DD_L5,2021.2.3,Win32,60.20107158,,,,,,,,,,,0.7823,1,,,,,,,,,,,,,,,,,,,,,,,,,0.044444444,-0.425,0,0,0,,,,,,,CLIFF,C,m,y,./images/CLIFF.png,,,,,,,,,,,,,,,,,,,,m,1,0.7823,,,,,,,,0,67,67,8,1
,,,,,,,,,,,,,,,,,612d18cff20cd023bd839bde,47,2022-02-12_18h13.35.987,lexical_decision_task_DD_L5,2021.2.3,Win32,60.20107158,,,,,,,,,,,0.8397,1,,,,,,,,,,,,,,,,,,,,,,,,,0.044444444,-0.425,0,0,0,,,,,,,VALLEY,C,m,y,./images/VALLEY.png,,,,,,,,,,,,,,,,,,,,m,1,0.8397,,,,,,,,0,68,68,68,1
,,,,,,,,,,,,,,,,,612d18cff20cd023bd839bde,47,2022-02-12_18h13.35.987,lexical_decision_task_DD_L5,2021.2.3,Win32,60.20107158,,,,,,,,,,,1.0093,1,,,,,,,,,,,,,,,,,,,,,,,,,0.044444444,-0.425,0,0,0,,,,,,,POSTER,C,m,y,./images/POSTER.png,,,,,,,,,,,,,,,,,,,,m,1,1.0093,,,,,,,,0,69,69,53,1
,,,,,,,,,,,,,,,,,612d18cff20cd023bd839bde,47,2022-02-12_18h13.35.987,lexical_decision_task_DD_L5,2021.2.3,Win32,60.20107158,,,,,,,,,,,1.1473,1,,,,,,,,,,,,,,,,,,,,,,,,,0.044444444,-0.425,0,0,0,,,,,,,BRUSH,C,m,y,./images/BRUSH.png,,,,,,,,,,,,,,,,,,,,m,1,1.1473,,,,,,,,0,70,70,59,1
,,,,,,,,,,,,,,,,,612d18cff20cd023bd839bde,47,2022-02-12_18h13.35.987,lexical_decision_task_DD_L5,2021.2.3,Win32,60.20107158,,,,,,,,,,,1.063,1,,,,,,,,,,,,,,,,,,,,,,,,,0.044444444,-0.425,0,0,0,,,,,,,PISTOL,C,m,y,./images/PISTOL.png,,,,,,,,,,,,,,,,,,,,m,1,1.063,,,,,,,,0,71,71,29,1
,,,,,,,,,,,,,,,,,612d18cff20cd023bd839bde,47,2022-02-12_18h13.35.987,lexical_decision_task_DD_L5,2021.2.3,Win32,60.20107158,,,,,,,,,,,0.7692,1,,,,,,,,,,,,,,,,,,,,,,,,,0.044444444,-0.425,0,0,0,,,,,,,PILOT,C,m,y,./images/PILOT.png,,,,,,,,,,,,,,,,,,,,m,1,0.7692,,,,,,,,0,72,72,50,1
,,,,,,,,,,,,,,,,,612d18cff20cd023bd839bde,47,2022-02-12_18h13.35.987,lexical_decision_task_DD_L5,2021.2.3,Win32,60.20107158,,,,,,,,,,,1.4289,1,,,,,,,,,,,,,,,,,,,,,,,,,0.044444444,-0.425,0,0,0,,,,,,,STEAK,LB,m,y,./images/STEAKLB.png,,,,,,,,,,,,,,,,,,,,m,1,1.4289,,,,,,,,0,73,73,31,1
,,,,,,,,,,,,,,,,,612d18cff20cd023bd839bde,47,2022-02-12_18h13.35.987,lexical_decision_task_DD_L5,2021.2.3,Win32,60.20107158,,,,,,,,,,,1.1812,0,,,,,,,,,,,,,,,,,,,,,,,,,0.044444444,-0.425,0,0,0,,,,,,,MEDAL,C,m,y,./images/MEDAL.png,,,,,,,,,,,,,,,,,,,,z,0,1.1812,,,,,,,,0,74,74,11,1
,,,,,,,,,,,,,,,,,612d18cff20cd023bd839bde,47,2022-02-12_18h13.35.987,lexical_decision_task_DD_L5,2021.2.3,Win32,60.20107158,,,,,,,,,,,1.0036,1,,,,,,,,,,,,,,,,,,,,,,,,,0.044444444,-0.425,0,0,0,,,,,,,HAMMER,HB,m,y,./images/HAMMERHB.png,,,,,,,,,,,,,,,,,,,,m,1,1.0036,,,,,,,,0,75,75,75,1
,,,,,,,,,,,,,,,,,612d18cff20cd023bd839bde,47,2022-02-12_18h13.35.987,lexical_decision_task_DD_L5,2021.2.3,Win32,60.20107158,,,,,,,,,,,1.1916,1,,,,,,,,,,,,,,,,,,,,,,,,,0.044444444,-0.425,0,0,0,,,,,,,BURIAL,C,z,y,./images/BURIAL.png,,,,,,,,,,,,,,,,,,,,z,1,1.1916,,,,,,,,0,76,76,143,1
,,,,,,,,,,,,,,,,,612d18cff20cd023bd839bde,47,2022-02-12_18h13.35.987,lexical_decision_task_DD_L5,2021.2.3,Win32,60.20107158,,,,,,,,,,,1.2479,1,,,,,,,,,,,,,,,,,,,,,,,,,0.044444444,-0.425,0,0,0,,,,,,,CEMENT,C,z,y,./images/CEMENT.png,,,,,,,,,,,,,,,,,,,,z,1,1.2479,,,,,,,,0,77,77,158,1
,,,,,,,,,,,,,,,,,612d18cff20cd023bd839bde,47,2022-02-12_18h13.35.987,lexical_decision_task_DD_L5,2021.2.3,Win32,60.20107158,,,,,,,,,,,0.7479,1,,,,,,,,,,,,,,,,,,,,,,,,,0.044444444,-0.425,0,0,0,,,,,,,SUNSET,LB,z,y,./images/SUNSETLB.png,,,,,,,,,,,,,,,,,,,,z,1,0.7479,,,,,,,,0,78,78,166,1
,,,,,,,,,,,,,,,,,612d18cff20cd023bd839bde,47,2022-02-12_18h13.35.987,lexical_decision_task_DD_L5,2021.2.3,Win32,60.20107158,,,,,,,,,,,0.8167,1,,,,,,,,,,,,,,,,,,,,,,,,,0.044444444,-0.425,0,0,0,,,,,,,DRUMS,LB,z,y,./images/DRUMSLB.png,,,,,,,,,,,,,,,,,,,,z,1,0.8167,,,,,,,,0,79,79,133,1
,,,,,,,,,,,,,,,,,612d18cff20cd023bd839bde,47,2022-02-12_18h13.35.987,lexical_decision_task_DD_L5,2021.2.3,Win32,60.20107158,,,,,,,,,,,1.2033,1,,,,,,,,,,,,,,,,,,,,,,,,,0.044444444,-0.425,0,0,0,,,,,,,STRING,C,z,y,./images/STRING.png,,,,,,,,,,,,,,,,,,,,z,1,1.2033,,,,,,,,0,80,80,125,1
,,,,,,,,,,,,,,,,,612d18cff20cd023bd839bde,47,2022-02-12_18h13.35.987,lexical_decision_task_DD_L5,2021.2.3,Win32,60.20107158,,,,,,,,,,,1.0879,0,,,,,,,,,,,,,,,,,,,,,,,,,0.044444444,-0.425,0,0,0,,,,,,,STORM,HB,z,y,./images/STORMHB.png,,,,,,,,,,,,,,,,,,,,m,0,1.0879,,,,,,,,0,81,81,114,1
,,,,,,,,,,,,,,,,,612d18cff20cd023bd839bde,47,2022-02-12_18h13.35.987,lexical_decision_task_DD_L5,2021.2.3,Win32,60.20107158,,,,,,,,,,,0.763,1,,,,,,,,,,,,,,,,,,,,,,,,,0.044444444,-0.425,0,0,0,,,,,,,TIGER,LB,m,y,./images/TIGERLB.png,,,,,,,,,,,,,,,,,,,,m,1,0.763,,,,,,,,0,82,82,37,1
,,,,,,,,,,,,,,,,,612d18cff20cd023bd839bde,47,2022-02-12_18h13.35.987,lexical_decision_task_DD_L5,2021.2.3,Win32,60.20107158,,,,,,,,,,,0.9154,1,,,,,,,,,,,,,,,,,,,,,,,,,0.044444444,-0.425,0,0,0,space,,,,,,SAILOR,LB,z,y,./images/SAILORLB.png,3.8159,,,,,,,,,,,,,,,,,,,z,1,0.9154,,,,,,,,0,83,83,151,1
,,,,,,,,,,,,,,,,,612d18cff20cd023bd839bde,47,2022-02-12_18h13.35.987,lexical_decision_task_DD_L5,2021.2.3,Win32,60.20107158,,,,,,,,,,,1.1649,0,,,,,,,,,,,,,,,,,,,,,,,,,0.044444444,-0.425,0,0,0,,,,,,,ARROW,HB,m,y,./images/ARROWHB.png,,,,,,,,,,,,,,,,,,,,z,0,1.1649,,,,,,,,0,84,84,69,1
,,,,,,,,,,,,,,,,,612d18cff20cd023bd839bde,47,2022-02-12_18h13.35.987,lexical_decision_task_DD_L5,2021.2.3,Win32,60.20107158,,,,,,,,,,,0.6645,1,,,,,,,,,,,,,,,,,,,,,,,,,0.044444444,-0.425,0,0,0,,,,,,,BAMBOO,C,m,y,./images/BAMBOO.png,,,,,,,,,,,,,,,,,,,,m,1,0.6645,,,,,,,,0,85,85,5,1
,,,,,,,,,,,,,,,,,612d18cff20cd023bd839bde,47,2022-02-12_18h13.35.987,lexical_decision_task_DD_L5,2021.2.3,Win32,60.20107158,,,,,,,,,,,0.8544,1,,,,,,,,,,,,,,,,,,,,,,,,,0.044444444,-0.425,0,0,0,,,,,,,POODLE,HB,z,y,./images/POODLEHB.png,,,,,,,,,,,,,,,,,,,,z,1,0.8544,,,,,,,,0,86,86,165,1
,,,,,,,,,,,,,,,,,612d18cff20cd023bd839bde,47,2022-02-12_18h13.35.987,lexical_decision_task_DD_L5,2021.2.3,Win32,60.20107158,,,,,,,,,,,0.8167,1,,,,,,,,,,,,,,,,,,,,,,,,,0.044444444,-0.425,0,0,0,,,,,,,DESERT,LB,m,y,./images/DESERTLB.png,,,,,,,,,,,,,,,,,,,,m,1,0.8167,,,,,,,,0,87,87,52,1
,,,,,,,,,,,,,,,,,612d18cff20cd023bd839bde,47,2022-02-12_18h13.35.987,lexical_decision_task_DD_L5,2021.2.3,Win32,60.20107158,,,,,,,,,,,0.666,1,,,,,,,,,,,,,,,,,,,,,,,,,0.044444444,-0.425,0,0,0,,,,,,,CLOTH,C,m,y,./images/CLOTH.png,,,,,,,,,,,,,,,,,,,,m,1,0.666,,,,,,,,0,88,88,23,1
,,,,,,,,,,,,,,,,,612d18cff20cd023bd839bde,47,2022-02-12_18h13.35.987,lexical_decision_task_DD_L5,2021.2.3,Win32,60.20107158,,,,,,,,,,,1.0459,1,,,,,,,,,,,,,,,,,,,,,,,,,0.044444444,-0.425,0,0,0,,,,,,,SPINE,C,m,y,./images/SPINE.png,,,,,,,,,,,,,,,,,,,,m,1,1.0459,,,,,,,,0,89,89,65,1
,,,,,,,,,,,,,,,,,612d18cff20cd023bd839bde,47,2022-02-12_18h13.35.987,lexical_decision_task_DD_L5,2021.2.3,Win32,60.20107158,,,,,,,,,,,0.9549,1,,,,,,,,,,,,,,,,,,,,,,,,,0.044444444,-0.425,0,0,0,,,,,,,BUNNY,LB,m,y,./images/BUNNYLB.png,,,,,,,,,,,,,,,,,,,,m,1,0.9549,,,,,,,,0,90,90,13,1
,,,,,,,,,,,,,,,,,612d18cff20cd023bd839bde,47,2022-02-12_18h13.35.987,lexical_decision_task_DD_L5,2021.2.3,Win32,60.20107158,,,,,,,,,,,0.6657,1,,,,,,,,,,,,,,,,,,,,,,,,,0.044444444,-0.425,0,0,0,,,,,,,SHORE,HB,z,y,./images/SHOREHB.png,,,,,,,,,,,,,,,,,,,,z,1,0.6657,,,,,,,,0,91,91,96,1
,,,,,,,,,,,,,,,,,612d18cff20cd023bd839bde,47,2022-02-12_18h13.35.987,lexical_decision_task_DD_L5,2021.2.3,Win32,60.20107158,,,,,,,,,,,0.9665,1,,,,,,,,,,,,,,,,,,,,,,,,,0.044444444,-0.425,0,0,0,,,,,,,BOXER,LB,m,y,./images/BOXERLB.png,,,,,,,,,,,,,,,,,,,,m,1,0.9665,,,,,,,,0,92,92,4,1
,,,,,,,,,,,,,,,,,612d18cff20cd023bd839bde,47,2022-02-12_18h13.35.987,lexical_decision_task_DD_L5,2021.2.3,Win32,60.20107158,,,,,,,,,,,0.7512,1,,,,,,,,,,,,,,,,,,,,,,,,,0.044444444,-0.425,0,0,0,,,,,,,FARMER,C,z,y,./images/FARMER.png,,,,,,,,,,,,,,,,,,,,z,1,0.7512,,,,,,,,0,93,93,149,1
,,,,,,,,,,,,,,,,,612d18cff20cd023bd839bde,47,2022-02-12_18h13.35.987,lexical_decision_task_DD_L5,2021.2.3,Win32,60.20107158,,,,,,,,,,,1.6401,0,,,,,,,,,,,,,,,,,,,,,,,,,0.044444444,-0.425,0,0,0,,,,,,,SMOKER,C,z,y,./images/SMOKER.png,,,,,,,,,,,,,,,,,,,,m,0,1.6401,,,,,,,,0,94,94,110,1
,,,,,,,,,,,,,,,,,612d18cff20cd023bd839bde,47,2022-02-12_18h13.35.987,lexical_decision_task_DD_L5,2021.2.3,Win32,60.20107158,,,,,,,,,,,1.041,0,,,,,,,,,,,,,,,,,,,,,,,,,0.044444444,-0.425,0,0,0,,,,,,,DIVER,HB,m,y,./images/DIVERHB.png,,,,,,,,,,,,,,,,,,,,z,0,1.041,,,,,,,,0,95,95,9,1
,,,,,,,,,,,,,,,,,612d18cff20cd023bd839bde,47,2022-02-12_18h13.35.987,lexical_decision_task_DD_L5,2021.2.3,Win32,60.20107158,,,,,,,,,,,0.9139,1,,,,,,,,,,,,,,,,,,,,,,,,,0.044444444,-0.425,0,0,0,,,,,,,PLANK,LB,z,y,./images/PLANKLB.png,,,,,,,,,,,,,,,,,,,,z,1,0.9139,,,,,,,,0,96,96,85,1
,,,,,,,,,,,,,,,,,612d18cff20cd023bd839bde,47,2022-02-12_18h13.35.987,lexical_decision_task_DD_L5,2021.2.3,Win32,60.20107158,,,,,,,,,,,0.7409,1,,,,,,,,,,,,,,,,,,,,,,,,,0.044444444,-0.425,0,0,0,,,,,,,ONION,HB,z,y,./images/ONIONHB.png,,,,,,,,,,,,,,,,,,,,z,1,0.7409,,,,,,,,0,97,97,135,1
,,,,,,,,,,,,,,,,,612d18cff20cd023bd839bde,47,2022-02-12_18h13.35.987,lexical_decision_task_DD_L5,2021.2.3,Win32,60.20107158,,,,,,,,,,,1.1824,1,,,,,,,,,,,,,,,,,,,,,,,,,0.044444444,-0.425,0,0,0,,,,,,,BABOON,LB,z,y,./images/BABOONLB.png,,,,,,,,,,,,,,,,,,,,z,1,1.1824,,,,,,,,0,98,98,142,1
,,,,,,,,,,,,,,,,,612d18cff20cd023bd839bde,47,2022-02-12_18h13.35.987,lexical_decision_task_DD_L5,2021.2.3,Win32,60.20107158,,,,,,,,,,,1.6834,1,,,,,,,,,,,,,,,,,,,,,,,,,0.044444444,-0.425,0,0,0,,,,,,,STREAM,C,m,y,./images/STREAM.png,,,,,,,,,,,,,,,,,,,,m,1,1.6834,,,,,,,,0,99,99,41,1
,,,,,,,,,,,,,,,,,612d18cff20cd023bd839bde,47,2022-02-12_18h13.35.987,lexical_decision_task_DD_L5,2021.2.3,Win32,60.20107158,,,,,,,,,,,0.7139,1,,,,,,,,,,,,,,,,,,,,,,,,,0.044444444,-0.425,0,0,0,,,,,,,CANOE,LB,m,y,./images/CANOELB.png,,,,,,,,,,,,,,,,,,,,m,1,0.7139,,,,,,,,0,100,100,58,1
,,,,,,,,,,,,,,,,,612d18cff20cd023bd839bde,47,2022-02-12_18h13.35.987,lexical_decision_task_DD_L5,2021.2.3,Win32,60.20107158,,,,,,,,,,,0.8498,1,,,,,,,,,,,,,,,,,,,,,,,,,0.044444444,-0.425,0,0,0,,,,,,,CHALK,LB,m,y,./images/CHALKLB.png,,,,,,,,,,,,,,,,,,,,m,1,0.8498,,,,,,,,0,101,101,25,1
,,,,,,,,,,,,,,,,,612d18cff20cd023bd839bde,47,2022-02-12_18h13.35.987,lexical_decision_task_DD_L5,2021.2.3,Win32,60.20107158,,,,,,,,,,,0.6841,1,,,,,,,,,,,,,,,,,,,,,,,,,0.044444444,-0.425,0,0,0,,,,,,,PENCE,LB,z,y,./images/PENCELB.png,,,,,,,,,,,,,,,,,,,,z,1,0.6841,,,,,,,,0,102,102,100,1
,,,,,,,,,,,,,,,,,612d18cff20cd023bd839bde,47,2022-02-12_18h13.35.987,lexical_decision_task_DD_L5,2021.2.3,Win32,60.20107158,,,,,,,,,,,1.2222,1,,,,,,,,,,,,,,,,,,,,,,,,,0.044444444,-0.425,0,0,0,,,,,,,SLOPE,HB,m,y,./images/SLOPEHB.png,,,,,,,,,,,,,,,,,,,,m,1,1.2222,,,,,,,,0,103,103,30,1
,,,,,,,,,,,,,,,,,612d18cff20cd023bd839bde,47,2022-02-12_18h13.35.987,lexical_decision_task_DD_L5,2021.2.3,Win32,60.20107158,,,,,,,,,,,0.6234,1,,,,,,,,,,,,,,,,,,,,,,,,,0.044444444,-0.425,0,0,0,,,,,,,MONKEY,HB,m,y,./images/MONKEYHB.png,,,,,,,,,,,,,,,,,,,,m,1,0.6234,,,,,,,,0,104,104,45,1
,,,,,,,,,,,,,,,,,612d18cff20cd023bd839bde,47,2022-02-12_18h13.35.987,lexical_decision_task_DD_L5,2021.2.3,Win32,60.20107158,,,,,,,,,,,1.3194,1,,,,,,,,,,,,,,,,,,,,,,,,,0.044444444,-0.425,0,0,0,,,,,,,GREASE,HB,z,y,./images/GREASEHB.png,,,,,,,,,,,,,,,,,,,,z,1,1.3194,,,,,,,,0,105,105,99,1
,,,,,,,,,,,,,,,,,612d18cff20cd023bd839bde,47,2022-02-12_18h13.35.987,lexical_decision_task_DD_L5,2021.2.3,Win32,60.20107158,,,,,,,,,,,0.8378,0,,,,,,,,,,,,,,,,,,,,,,,,,0.044444444,-0.425,0,0,0,,,,,,,SAUNA,HB,m,y,./images/SAUNAHB.png,,,,,,,,,,,,,,,,,,,,z,0,0.8378,,,,,,,,0,106,106,33,1
,,,,,,,,,,,,,,,,,612d18cff20cd023bd839bde,47,2022-02-12_18h13.35.987,lexical_decision_task_DD_L5,2021.2.3,Win32,60.20107158,,,,,,,,,,,0.73,1,,,,,,,,,,,,,,,,,,,,,,,,,0.044444444,-0.425,0,0,0,,,,,,,FLESH,HB,m,y,./images/FLESHHB.png,,,,,,,,,,,,,,,,,,,,m,1,0.73,,,,,,,,0,107,107,24,1
,,,,,,,,,,,,,,,,,612d18cff20cd023bd839bde,47,2022-02-12_18h13.35.987,lexical_decision_task_DD_L5,2021.2.3,Win32,60.20107158,,,,,,,,,,,0.8718,1,,,,,,,,,,,,,,,,,,,,,,,,,0.044444444,-0.425,0,0,0,,,,,,,BARREL,C,z,y,./images/BARREL.png,,,,,,,,,,,,,,,,,,,,z,1,0.8718,,,,,,,,0,108,108,116,1
,,,,,,,,,,,,,,,,,612d18cff20cd023bd839bde,47,2022-02-12_18h13.35.987,lexical_decision_task_DD_L5,2021.2.3,Win32,60.20107158,,,,,,,,,,,0.9181,1,,,,,,,,,,,,,,,,,,,,,,,,,0.044444444,-0.425,0,0,0,,,,,,,SAUCE,HB,m,y,./images/SAUCEHB.png,,,,,,,,,,,,,,,,,,,,m,1,0.9181,,,,,,,,0,109,109,51,1
,,,,,,,,,,,,,,,,,612d18cff20cd023bd839bde,47,2022-02-12_18h13.35.987,lexical_decision_task_DD_L5,2021.2.3,Win32,60.20107158,,,,,,,,,,,0.8471,0,,,,,,,,,,,,,,,,,,,,,,,,,0.044444444,-0.425,0,0,0,,,,,,,BONNET,C,z,y,./images/BONNET.png,,,,,,,,,,,,,,,,,,,,m,0,0.8471,,,,,,,,0,110,110,95,1
,,,,,,,,,,,,,,,,,612d18cff20cd023bd839bde,47,2022-02-12_18h13.35.987,lexical_decision_task_DD_L5,2021.2.3,Win32,60.20107158,,,,,,,,,,,0.8174,0,,,,,,,,,,,,,,,,,,,,,,,,,0.044444444,-0.425,0,0,0,,,,,,,GRANNY,C,m,y,./images/GRANNY.png,,,,,,,,,,,,,,,,,,,,z,0,0.8174,,,,,,,,0,111,111,20,1
,,,,,,,,,,,,,,,,,612d18cff20cd023bd839bde,47,2022-02-12_18h13.35.987,lexical_decision_task_DD_L5,2021.2.3,Win32,60.20107158,,,,,,,,,,,1.0962,1,,,,,,,,,,,,,,,,,,,,,,,,,0.044444444,-0.425,0,0,0,,,,,,,PARCEL,HB,m,y,./images/PARCELHB.png,,,,,,,,,,,,,,,,,,,,m,1,1.0962,,,,,,,,0,112,112,18,1
,,,,,,,,,,,,,,,,,612d18cff20cd023bd839bde,47,2022-02-12_18h13.35.987,lexical_decision_task_DD_L5,2021.2.3,Win32,60.20107158,,,,,,,,,,,0.6474,1,,,,,,,,,,,,,,,,,,,,,,,,,0.044444444,-0.425,0,0,0,,,,,,,GARDEN,LB,m,y,./images/GARDENLB.png,,,,,,,,,,,,,,,,,,,,m,1,0.6474,,,,,,,,0,113,113,10,1
,,,,,,,,,,,,,,,,,612d18cff20cd023bd839bde,47,2022-02-12_18h13.35.987,lexical_decision_task_DD_L5,2021.2.3,Win32,60.20107158,,,,,,,,,,,0.9633,0,,,,,,,,,,,,,,,,,,,,,,,,,0.044444444,-0.425,0,0,0,,,,,,,BROOM,HB,m,y,./images/BROOMHB.png,,,,,,,,,,,,,,,,,,,,z,0,0.9633,,,,,,,,0,114,114,78,1
,,,,,,,,,,,,,,,,,612d18cff20cd023bd839bde,47,2022-02-12_18h13.35.987,lexical_decision_task_DD_L5,2021.2.3,Win32,60.20107158,,,,,,,,,,,0.7726,1,,,,,,,,,,,,,,,,,,,,,,,,,0.044444444,-0.425,0,0,0,,,,,,,BELLY,LB,z,y,./images/BELLYLB.png,,,,,,,,,,,,,,,,,,,,z,1,0.7726,,,,,,,,0,115,115,94,1
,,,,,,,,,,,,,,,,,612d18cff20cd023bd839bde,47,2022-02-12_18h13.35.987,lexical_decision_task_DD_L5,2021.2.3,Win32,60.20107158,,,,,,,,,,,0.897,1,,,,,,,,,,,,,,,,,,,,,,,,,0.044444444,-0.425,0,0,0,,,,,,,KIDNEY,HB,z,y,./images/KIDNEYHB.png,,,,,,,,,,,,,,,,,,,,z,1,0.897,,,,,,,,0,116,116,105,1
,,,,,,,,,,,,,,,,,612d18cff20cd023bd839bde,47,2022-02-12_18h13.35.987,lexical_decision_task_DD_L5,2021.2.3,Win32,60.20107158,,,,,,,,,,,0.6867,0,,,,,,,,,,,,,,,,,,,,,,,,,0.044444444,-0.425,0,0,0,,,,,,,ARTIST,LB,m,y,./images/ARTISTLB.png,,,,,,,,,,,,,,,,,,,,z,0,0.6867,,,,,,,,0,117,117,61,1
,,,,,,,,,,,,,,,,,612d18cff20cd023bd839bde,47,2022-02-12_18h13.35.987,lexical_decision_task_DD_L5,2021.2.3,Win32,60.20107158,,,,,,,,,,,1.0513,1,,,,,,,,,,,,,,,,,,,,,,,,,0.044444444,-0.425,0,0,0,,,,,,,JUNGLE,C,z,y,./images/JUNGLE.png,,,,,,,,,,,,,,,,,,,,z,1,1.0513,,,,,,,,0,118,118,167,1
,,,,,,,,,,,,,,,,,612d18cff20cd023bd839bde,47,2022-02-12_18h13.35.987,lexical_decision_task_DD_L5,2021.2.3,Win32,60.20107158,,,,,,,,,,,0.8093,0,,,,,,,,,,,,,,,,,,,,,,,,,0.044444444,-0.425,0,0,0,,,,,,,BISHOP,LB,m,y,./images/BISHOPLB.png,,,,,,,,,,,,,,,,,,,,z,0,0.8093,,,,,,,,0,119,119,49,1
,,,,,,,,,,,,,,,,,612d18cff20cd023bd839bde,47,2022-02-12_18h13.35.987,lexical_decision_task_DD_L5,2021.2.3,Win32,60.20107158,,,,,,,,,,,0.8739,1,,,,,,,,,,,,,,,,,,,,,,,,,0.044444444,-0.425,0,0,0,,,,,,,JAGUAR,HB,z,y,./images/JAGUARHB.png,,,,,,,,,,,,,,,,,,,,z,1,0.8739,,,,,,,,0,120,120,102,1
,,,,,,,,,,,,,,,,,612d18cff20cd023bd839bde,47,2022-02-12_18h13.35.987,lexical_decision_task_DD_L5,2021.2.3,Win32,60.20107158,,,,,,,,,,,0.8467,1,,,,,,,,,,,,,,,,,,,,,,,,,0.044444444,-0.425,0,0,0,,,,,,,PICKLE,C,z,y,./images/PICKLE.png,,,,,,,,,,,,,,,,,,,,z,1,0.8467,,,,,,,,0,121,121,98,1
,,,,,,,,,,,,,,,,,612d18cff20cd023bd839bde,47,2022-02-12_18h13.35.987,lexical_decision_task_DD_L5,2021.2.3,Win32,60.20107158,,,,,,,,,,,1.1331,1,,,,,,,,,,,,,,,,,,,,,,,,,0.044444444,-0.425,0,0,0,,,,,,,WAGON,LB,m,y,./images/WAGONLB.png,,,,,,,,,,,,,,,,,,,,m,1,1.1331,,,,,,,,0,122,122,7,1
,,,,,,,,,,,,,,,,,612d18cff20cd023bd839bde,47,2022-02-12_18h13.35.987,lexical_decision_task_DD_L5,2021.2.3,Win32,60.20107158,,,,,,,,,,,1.7316,1,,,,,,,,,,,,,,,,,,,,,,,,,0.044444444,-0.425,0,0,0,,,,,,,FOLDER,HB,z,y,./images/FOLDERHB.png,,,,,,,,,,,,,,,,,,,,z,1,1.7316,,,,,,,,0,123,123,126,1
,,,,,,,,,,,,,,,,,612d18cff20cd023bd839bde,47,2022-02-12_18h13.35.987,lexical_decision_task_DD_L5,2021.2.3,Win32,60.20107158,,,,,,,,,,,0.7695,1,,,,,,,,,,,,,,,,,,,,,,,,,0.044444444,-0.425,0,0,0,,,,,,,NOOSE,HB,z,y,./images/NOOSEHB.png,,,,,,,,,,,,,,,,,,,,z,1,0.7695,,,,,,,,0,124,124,156,1
,,,,,,,,,,,,,,,,,612d18cff20cd023bd839bde,47,2022-02-12_18h13.35.987,lexical_decision_task_DD_L5,2021.2.3,Win32,60.20107158,,,,,,,,,,,1.0087,0,,,,,,,,,,,,,,,,,,,,,,,,,0.044444444,-0.425,0,0,0,space,,,,,,LITTER,HB,z,y,./images/LITTERHB.png,4.9733,,,,,,,,,,,,,,,,,,,m,0,1.0087,,,,,,,,0,125,125,162,1
,,,,,,,,,,,,,,,,,612d18cff20cd023bd839bde,47,2022-02-12_18h13.35.987,lexical_decision_task_DD_L5,2021.2.3,Win32,60.20107158,,,,,,,,,,,0.8798,1,,,,,,,,,,,,,,,,,,,,,,,,,0.044444444,-0.425,0,0,0,,,,,,,COUCH,C,z,y,./images/COUCH.png,,,,,,,,,,,,,,,,,,,,z,1,0.8798,,,,,,,,0,126,126,161,1
,,,,,,,,,,,,,,,,,612d18cff20cd023bd839bde,47,2022-02-12_18h13.35.987,lexical_decision_task_DD_L5,2021.2.3,Win32,60.20107158,,,,,,,,,,,0.9163,0,,,,,,,,,,,,,,,,,,,,,,,,,0.044444444,-0.425,0,0,0,,,,,,,GRAPE,LB,m,y,./images/GRAPELB.png,,,,,,,,,,,,,,,,,,,,z,0,0.9163,,,,,,,,0,127,127,16,1
,,,,,,,,,,,,,,,,,612d18cff20cd023bd839bde,47,2022-02-12_18h13.35.987,lexical_decision_task_DD_L5,2021.2.3,Win32,60.20107158,,,,,,,,,,,0.8306,0,,,,,,,,,,,,,,,,,,,,,,,,,0.044444444,-0.425,0,0,0,,,,,,,BUBBLE,C,m,y,./images/BUBBLE.png,,,,,,,,,,,,,,,,,,,,z,0,0.8306,,,,,,,,0,128,128,71,1
,,,,,,,,,,,,,,,,,612d18cff20cd023bd839bde,47,2022-02-12_18h13.35.987,lexical_decision_task_DD_L5,2021.2.3,Win32,60.20107158,,,,,,,,,,,0.8533,1,,,,,,,,,,,,,,,,,,,,,,,,,0.044444444,-0.425,0,0,0,,,,,,,CANDY,HB,m,y,./images/CANDYHB.png,,,,,,,,,,,,,,,,,,,,m,1,0.8533,,,,,,,,0,129,129,39,1
,,,,,,,,,,,,,,,,,612d18cff20cd023bd839bde,47,2022-02-12_18h13.35.987,lexical_decision_task_DD_L5,2021.2.3,Win32,60.20107158,,,,,,,,,,,0.7874,1,,,,,,,,,,,,,,,,,,,,,,,,,0.044444444,-0.425,0,0,0,,,,,,,FALCON,LB,z,y,./images/FALCONLB.png,,,,,,,,,,,,,,,,,,,,z,1,0.7874,,,,,,,,0,130,130,112,1
,,,,,,,,,,,,,,,,,612d18cff20cd023bd839bde,47,2022-02-12_18h13.35.987,lexical_decision_task_DD_L5,2021.2.3,Win32,60.20107158,,,,,,,,,,,0.7252,1,,,,,,,,,,,,,,,,,,,,,,,,,0.044444444,-0.425,0,0,0,,,,,,,CRUMB,C,z,y,./images/CRUMB.png,,,,,,,,,,,,,,,,,,,,z,1,0.7252,,,,,,,,0,131,131,113,1
,,,,,,,,,,,,,,,,,612d18cff20cd023bd839bde,47,2022-02-12_18h13.35.987,lexical_decision_task_DD_L5,2021.2.3,Win32,60.20107158,,,,,,,,,,,1.0064,0,,,,,,,,,,,,,,,,,,,,,,,,,0.044444444,-0.425,0,0,0,,,,,,,FINGER,HB,z,y,./images/FINGERHB.png,,,,,,,,,,,,,,,,,,,,m,0,1.0064,,,,,,,,0,132,132,87,1
,,,,,,,,,,,,,,,,,612d18cff20cd023bd839bde,47,2022-02-12_18h13.35.987,lexical_decision_task_DD_L5,2021.2.3,Win32,60.20107158,,,,,,,,,,,1.2851,0,,,,,,,,,,,,,,,,,,,,,,,,,0.044444444,-0.425,0,0,0,,,,,,,WRIST,LB,z,y,./images/WRISTLB.png,,,,,,,,,,,,,,,,,,,,m,0,1.2851,,,,,,,,0,133,133,109,1
,,,,,,,,,,,,,,,,,612d18cff20cd023bd839bde,47,2022-02-12_18h13.35.987,lexical_decision_task_DD_L5,2021.2.3,Win32,60.20107158,,,,,,,,,,,2.1783,0,,,,,,,,,,,,,,,,,,,,,,,,,0.044444444,-0.425,0,0,0,,,,,,,ATTIC,HB,z,y,./images/ATTICHB.png,,,,,,,,,,,,,,,,,,,,m,0,2.1783,,,,,,,,0,134,134,111,1
