key_resp.keys,key_resp.rt,instr_done_touch.x,instr_done_touch.y,instr_done_touch.leftButton,instr_done_touch.midButton,instr_done_touch.rightButton,instruction_pages.thisRepN,instruction_pages.thisTrialN,instruction_pages.thisN,instruction_pages.thisIndex,instruction_pages.ran,pageN,phase,instruct_text,has_image,instruct_image,participant,age,date,expName,psychopyVersion,OS,frameRate,response.keys,response.corr,response.rt,touch_resp.x,touch_resp.y,touch_resp.leftButton,touch_resp.midButton,touch_resp.rightButton,touch_resp.time,touch_resp.clicked_name,rt,corr,practrials.thisRepN,practrials.thisTrialN,practrials.thisN,practrials.thisIndex,practrials.ran,TrialID,Target,corrAns,end_of_practice_trials_pages.thisRepN,end_of_practice_trials_pages.thisTrialN,end_of_practice_trials_pages.thisN,end_of_practice_trials_pages.thisIndex,end_of_practice_trials_pages.ran,key_resp_2.keys,key_resp_2.corr,key_resp_2.rt,targ_click.x,targ_click.y,targ_click.leftButton,targ_click.midButton,targ_click.rightButton,targ_click.time,targ_click.clicked_name,break_done_touch.x,break_done_touch.y,break_done_touch.leftButton,break_done_touch.midButton,break_done_touch.rightButton,break_done_keyboard.keys,maintrials.thisRepN,maintrials.thisTrialN,maintrials.thisN,maintrials.thisIndex,maintrials.ran,string,blur,study,lex,stim_path,break_done_keyboard.rt,mouse_2.x,mouse_2.y,mouse_2.leftButton,mouse_2.midButton,mouse_2.rightButton,mouse_2.clicked_name,slider.response,slider.rt,trials.thisRepN,trials.thisTrialN,trials.thisN,trials.thisIndex,trials.ran,test_instructions.thisRepN,test_instructions.thisTrialN,test_instructions.thisN,test_instructions.thisIndex,test_instructions.ran,instr_done_touch.clicked_name,key_resp_3.keys,key_resp_3.corr,key_resp_3.rt,test_click.x,test_click.y,test_click.leftButton,test_click.midButton,test_click.rightButton,test_click.time,test_click.clicked_name,test_phase.thisRepN,test_phase.thisTrialN,test_phase.thisN,test_phase.thisIndex,test_phase.ran
space,16.6527,0.425925926,-0.163888889,0,0,0,0,0,0,0,1,1,instructions,"INSTRUCTIONS
At the start of each trial, look at the plus sign  (+) in the center of the screen.  This tells you that a trial is about to begin and where to look. Second, the plus sign will disappear and a string of letters will appear. Your task is to determine if the string of letters is a word or not. If the item is a word press the M key (on keyboard)  or touch the word button (phone/tablet).  If the item is not a word,  press the  Z key (on keyboard)  or touch the nonword button (on phone/tablet). 
Press the space bar or touch  continue.",0,,5832fa8996ecce0001d65197,40,2022-02-12_18h02.14.807,lexical_decision_task_DD_L6,2021.2.3,Win32,20,,,,,,,,,,,,,,,,,,,,,,,,,,,,,,,,,,,,,,,,,,,,,,,,,,,,,,,,,,,,,,,,,,,,,,,,,,,,,,,,,,,,,,
space,6.0558,0.425925926,-0.163888889,0,0,0,0,1,1,1,1,2,instructions,"If your device has a keyboard, press the 'Z' key for nonwords and the 'M' key for words.





Press the space bar or touch the button below to continue.",0,keyboard-example.gif,5832fa8996ecce0001d65197,40,2022-02-12_18h02.14.807,lexical_decision_task_DD_L6,2021.2.3,Win32,20,,,,,,,,,,,,,,,,,,,,,,,,,,,,,,,,,,,,,,,,,,,,,,,,,,,,,,,,,,,,,,,,,,,,,,,,,,,,,,,,,,,,,,
space,8.3465,0.425925926,-0.163888889,0,0,0,0,2,2,2,1,3,instructions,"If you are using a touchscreen only device, use the buttons on the screen. Do not use the mouse.





Press the space bar or touch the button below to continue.",0,touchscreen-example.gif,5832fa8996ecce0001d65197,40,2022-02-12_18h02.14.807,lexical_decision_task_DD_L6,2021.2.3,Win32,20,,,,,,,,,,,,,,,,,,,,,,,,,,,,,,,,,,,,,,,,,,,,,,,,,,,,,,,,,,,,,,,,,,,,,,,,,,,,,,,,,,,,,,
space,7.4279,0.425925926,-0.163888889,0,0,0,0,3,3,3,1,4,instructions,"It is very important that you respond as quickly and accurately as possible, as each letter string will only be on the screen for two seconds. If you do not respond within this time, the message 'Too slow!' will be displayed and the experiment will progress to the next letter string. The first 20 trials will be practice trials and you will receive feedback on your answers. 

Press the space bar or touch the button below to start the practice trials.",0,,5832fa8996ecce0001d65197,40,2022-02-12_18h02.14.807,lexical_decision_task_DD_L6,2021.2.3,Win32,20,,,,,,,,,,,,,,,,,,,,,,,,,,,,,,,,,,,,,,,,,,,,,,,,,,,,,,,,,,,,,,,,,,,,,,,,,,,,,,,,,,,,,,
,,,,,,,,,,,,,,,,,5832fa8996ecce0001d65197,40,2022-02-12_18h02.14.807,lexical_decision_task_DD_L6,2021.2.3,Win32,20,z,1,1.111,,,,,,,,1.111,1,0,0,0,13,1,1001,ROUPET,z,,,,,,,,,,,,,,,,,,,,,,,,,,,,,,,,,,,,,,,,,,,,,,,,,,,,,,,,,,,,,,,,,,
,,,,,,,,,,,,,,,,,5832fa8996ecce0001d65197,40,2022-02-12_18h02.14.807,lexical_decision_task_DD_L6,2021.2.3,Win32,20,z,1,0.9529,,,,,,,,0.9529,1,0,1,1,8,1,1001,ASLERT,z,,,,,,,,,,,,,,,,,,,,,,,,,,,,,,,,,,,,,,,,,,,,,,,,,,,,,,,,,,,,,,,,,,
,,,,,,,,,,,,,,,,,5832fa8996ecce0001d65197,40,2022-02-12_18h02.14.807,lexical_decision_task_DD_L6,2021.2.3,Win32,20,m,1,0.8419,,,,,,,,0.8419,1,0,2,2,5,1,1001,OBTAIN,m,,,,,,,,,,,,,,,,,,,,,,,,,,,,,,,,,,,,,,,,,,,,,,,,,,,,,,,,,,,,,,,,,,
,,,,,,,,,,,,,,,,,5832fa8996ecce0001d65197,40,2022-02-12_18h02.14.807,lexical_decision_task_DD_L6,2021.2.3,Win32,20,z,1,1.1565,,,,,,,,1.1565,1,0,3,3,10,1,1001,INLADE,z,,,,,,,,,,,,,,,,,,,,,,,,,,,,,,,,,,,,,,,,,,,,,,,,,,,,,,,,,,,,,,,,,,
,,,,,,,,,,,,,,,,,5832fa8996ecce0001d65197,40,2022-02-12_18h02.14.807,lexical_decision_task_DD_L6,2021.2.3,Win32,20,m,1,0.9508,,,,,,,,0.9508,1,0,4,4,0,1,1001,UTOPIA,m,,,,,,,,,,,,,,,,,,,,,,,,,,,,,,,,,,,,,,,,,,,,,,,,,,,,,,,,,,,,,,,,,,
,,,,,,,,,,,,,,,,,5832fa8996ecce0001d65197,40,2022-02-12_18h02.14.807,lexical_decision_task_DD_L6,2021.2.3,Win32,20,z,1,0.9678,,,,,,,,0.9678,1,0,5,5,9,1,1001,FARINY,z,,,,,,,,,,,,,,,,,,,,,,,,,,,,,,,,,,,,,,,,,,,,,,,,,,,,,,,,,,,,,,,,,,
,,,,,,,,,,,,,,,,,5832fa8996ecce0001d65197,40,2022-02-12_18h02.14.807,lexical_decision_task_DD_L6,2021.2.3,Win32,20,z,1,1.0432,,,,,,,,1.0432,1,0,6,6,11,1,1001,RASHET,z,,,,,,,,,,,,,,,,,,,,,,,,,,,,,,,,,,,,,,,,,,,,,,,,,,,,,,,,,,,,,,,,,,
,,,,,,,,,,,,,,,,,5832fa8996ecce0001d65197,40,2022-02-12_18h02.14.807,lexical_decision_task_DD_L6,2021.2.3,Win32,20,m,1,0.8709,,,,,,,,0.8709,1,0,7,7,4,1,1001,SQUEAK,m,,,,,,,,,,,,,,,,,,,,,,,,,,,,,,,,,,,,,,,,,,,,,,,,,,,,,,,,,,,,,,,,,,
,,,,,,,,,,,,,,,,,5832fa8996ecce0001d65197,40,2022-02-12_18h02.14.807,lexical_decision_task_DD_L6,2021.2.3,Win32,20,m,1,1.0065,,,,,,,,1.0065,1,0,8,8,6,1,1001,ZOMBIE,m,,,,,,,,,,,,,,,,,,,,,,,,,,,,,,,,,,,,,,,,,,,,,,,,,,,,,,,,,,,,,,,,,,
,,,,,,,,,,,,,,,,,5832fa8996ecce0001d65197,40,2022-02-12_18h02.14.807,lexical_decision_task_DD_L6,2021.2.3,Win32,20,m,1,0.9995,,,,,,,,0.9995,1,0,9,9,7,1,1001,VOLUME,m,,,,,,,,,,,,,,,,,,,,,,,,,,,,,,,,,,,,,,,,,,,,,,,,,,,,,,,,,,,,,,,,,,
,,,,,,,,,,,,,,,,,5832fa8996ecce0001d65197,40,2022-02-12_18h02.14.807,lexical_decision_task_DD_L6,2021.2.3,Win32,20,z,1,1.0398,,,,,,,,1.0398,1,0,10,10,15,1,1001,WHAISE,z,,,,,,,,,,,,,,,,,,,,,,,,,,,,,,,,,,,,,,,,,,,,,,,,,,,,,,,,,,,,,,,,,,
,,,,,,,,,,,,,,,,,5832fa8996ecce0001d65197,40,2022-02-12_18h02.14.807,lexical_decision_task_DD_L6,2021.2.3,Win32,20,m,1,0.8721,,,,,,,,0.8721,1,0,11,11,2,1,1001,ALMOND,m,,,,,,,,,,,,,,,,,,,,,,,,,,,,,,,,,,,,,,,,,,,,,,,,,,,,,,,,,,,,,,,,,,
,,,,,,,,,,,,,,,,,5832fa8996ecce0001d65197,40,2022-02-12_18h02.14.807,lexical_decision_task_DD_L6,2021.2.3,Win32,20,m,1,1.0846,,,,,,,,1.0846,1,0,12,12,3,1,1001,MATRIX,m,,,,,,,,,,,,,,,,,,,,,,,,,,,,,,,,,,,,,,,,,,,,,,,,,,,,,,,,,,,,,,,,,,
,,,,,,,,,,,,,,,,,5832fa8996ecce0001d65197,40,2022-02-12_18h02.14.807,lexical_decision_task_DD_L6,2021.2.3,Win32,20,m,1,1.101,,,,,,,,1.101,1,0,13,13,1,1,1001,ADJUST,m,,,,,,,,,,,,,,,,,,,,,,,,,,,,,,,,,,,,,,,,,,,,,,,,,,,,,,,,,,,,,,,,,,
,,,,,,,,,,,,,,,,,5832fa8996ecce0001d65197,40,2022-02-12_18h02.14.807,lexical_decision_task_DD_L6,2021.2.3,Win32,20,m,0,0.8293,,,,,,,,0.8293,0,0,14,14,12,1,1001,SPRINY,z,,,,,,,,,,,,,,,,,,,,,,,,,,,,,,,,,,,,,,,,,,,,,,,,,,,,,,,,,,,,,,,,,,
,,,,,,,,,,,,,,,,,5832fa8996ecce0001d65197,40,2022-02-12_18h02.14.807,lexical_decision_task_DD_L6,2021.2.3,Win32,20,z,1,1.0046,,,,,,,,1.0046,1,0,15,15,14,1,1001,THRALE,z,,,,,,,,,,,,,,,,,,,,,,,,,,,,,,,,,,,,,,,,,,,,,,,,,,,,,,,,,,,,,,,,,,
space,9.5935,0.425925926,-0.163888889,0,0,0,,,,,,1,end_of_practice,"You have completed the practice trials. During the experimental trials, you will not receive feedback. 
Before you begin, please ensure that you are in a comfortable and quiet location and will not be disturbed for about 15 minutes, as we cannot use your data if you do not complete all the trials. 
 When you are ready to start the experimental trials, please press space or touch the button below.",,,5832fa8996ecce0001d65197,40,2022-02-12_18h02.14.807,lexical_decision_task_DD_L6,2021.2.3,Win32,20,,,,,,,,,,,,,,,,,,,,,0,0,0,0,1,,,,,,,,,,,,,,,,,,,,,,,,,,,,,,,,,,,,,,,,,,,,,,,,,,,,,,,,,,,,,
,,,,,,,,,,,,,,,,,5832fa8996ecce0001d65197,40,2022-02-12_18h02.14.807,lexical_decision_task_DD_L6,2021.2.3,Win32,20,,,,,,,,,,,1.2295,1,,,,,,,,,,,,,,m,1,1.2295,,,,,,,,0.425925926,-0.163888889,0,0,0,,0,0,0,19,1,DONKEY,C,m,m,./images/DONKEY.png,,,,,,,,,,,,,,,,,,,,,,,,,,,,,,,,,,,
,,,,,,,,,,,,,,,,,5832fa8996ecce0001d65197,40,2022-02-12_18h02.14.807,lexical_decision_task_DD_L6,2021.2.3,Win32,20,,,,,,,,,,,3.167,1,,,,,,,,,,,,,,m,1,3.167,,,,,,,,0.425925926,-0.163888889,0,0,0,,0,1,1,66,1,STATUE,LB,m,m,./images/STATUELB.png,,,,,,,,,,,,,,,,,,,,,,,,,,,,,,,,,,,
,,,,,,,,,,,,,,,,,5832fa8996ecce0001d65197,40,2022-02-12_18h02.14.807,lexical_decision_task_DD_L6,2021.2.3,Win32,20,,,,,,,,,,,1.9042,1,,,,,,,,,,,,,,m,1,1.9042,,,,,,,,0.425925926,-0.163888889,0,0,0,,0,2,2,57,1,FERRY,LB,m,m,./images/FERRYLB.png,,,,,,,,,,,,,,,,,,,,,,,,,,,,,,,,,,,
,,,,,,,,,,,,,,,,,5832fa8996ecce0001d65197,40,2022-02-12_18h02.14.807,lexical_decision_task_DD_L6,2021.2.3,Win32,20,,,,,,,,,,,0.7744,1,,,,,,,,,,,,,,m,1,0.7744,,,,,,,,0.425925926,-0.163888889,0,0,0,,0,3,3,67,1,POKER,C,m,m,./images/POKER.png,,,,,,,,,,,,,,,,,,,,,,,,,,,,,,,,,,,
,,,,,,,,,,,,,,,,,5832fa8996ecce0001d65197,40,2022-02-12_18h02.14.807,lexical_decision_task_DD_L6,2021.2.3,Win32,20,,,,,,,,,,,1.5201,1,,,,,,,,,,,,,,m,1,1.5201,,,,,,,,0.425925926,-0.163888889,0,0,0,,0,4,4,36,1,BOILER,LB,m,m,./images/BOILERLB.png,,,,,,,,,,,,,,,,,,,,,,,,,,,,,,,,,,,
,,,,,,,,,,,,,,,,,5832fa8996ecce0001d65197,40,2022-02-12_18h02.14.807,lexical_decision_task_DD_L6,2021.2.3,Win32,20,,,,,,,,,,,0.8129,1,,,,,,,,,,,,,,m,1,0.8129,,,,,,,,0.425925926,-0.163888889,0,0,0,,0,5,5,64,1,BRIDE,C,m,m,./images/BRIDE.png,,,,,,,,,,,,,,,,,,,,,,,,,,,,,,,,,,,
,,,,,,,,,,,,,,,,,5832fa8996ecce0001d65197,40,2022-02-12_18h02.14.807,lexical_decision_task_DD_L6,2021.2.3,Win32,20,,,,,,,,,,,1.0466,1,,,,,,,,,,,,,,z,1,1.0466,,,,,,,,0.425925926,-0.163888889,0,0,0,,0,6,6,111,1,HOSSE,C,z,z,./images/HOSSE.png,,,,,,,,,,,,,,,,,,,,,,,,,,,,,,,,,,,
,,,,,,,,,,,,,,,,,5832fa8996ecce0001d65197,40,2022-02-12_18h02.14.807,lexical_decision_task_DD_L6,2021.2.3,Win32,20,,,,,,,,,,,1.1185,1,,,,,,,,,,,,,,m,1,1.1185,,,,,,,,0.425925926,-0.163888889,0,0,0,,0,7,7,39,1,CANDY,LB,m,m,./images/CANDYLB.png,,,,,,,,,,,,,,,,,,,,,,,,,,,,,,,,,,,
,,,,,,,,,,,,,,,,,5832fa8996ecce0001d65197,40,2022-02-12_18h02.14.807,lexical_decision_task_DD_L6,2021.2.3,Win32,20,,,,,,,,,,,1.9486,0,,,,,,,,,,,,,,z,0,1.9486,,,,,,,,0.425925926,-0.163888889,0,0,0,,0,8,8,65,1,SPINE,HB,m,m,./images/SPINEHB.png,,,,,,,,,,,,,,,,,,,,,,,,,,,,,,,,,,,
,,,,,,,,,,,,,,,,,5832fa8996ecce0001d65197,40,2022-02-12_18h02.14.807,lexical_decision_task_DD_L6,2021.2.3,Win32,20,,,,,,,,,,,0.9225,1,,,,,,,,,,,,,,m,1,0.9225,,,,,,,,0.425925926,-0.163888889,0,0,0,,0,9,9,35,1,LLAMA,HB,m,m,./images/LLAMAHB.png,,,,,,,,,,,,,,,,,,,,,,,,,,,,,,,,,,,
,,,,,,,,,,,,,,,,,5832fa8996ecce0001d65197,40,2022-02-12_18h02.14.807,lexical_decision_task_DD_L6,2021.2.3,Win32,20,,,,,,,,,,,2.1214,1,,,,,,,,,,,,,,m,1,2.1214,,,,,,,,0.425925926,-0.163888889,0,0,0,,0,10,10,2,1,STOVE,HB,m,m,./images/STOVEHB.png,,,,,,,,,,,,,,,,,,,,,,,,,,,,,,,,,,,
,,,,,,,,,,,,,,,,,5832fa8996ecce0001d65197,40,2022-02-12_18h02.14.807,lexical_decision_task_DD_L6,2021.2.3,Win32,20,,,,,,,,,,,1.2668,1,,,,,,,,,,,,,,m,1,1.2668,,,,,,,,0.425925926,-0.163888889,0,0,0,,0,11,11,81,1,DRILL,LB,m,m,./images/DRILLLB.png,,,,,,,,,,,,,,,,,,,,,,,,,,,,,,,,,,,
,,,,,,,,,,,,,,,,,5832fa8996ecce0001d65197,40,2022-02-12_18h02.14.807,lexical_decision_task_DD_L6,2021.2.3,Win32,20,,,,,,,,,,,1.0639,1,,,,,,,,,,,,,,m,1,1.0639,,,,,,,,0.425925926,-0.163888889,0,0,0,,0,12,12,61,1,ARTIST,C,m,m,./images/ARTIST.png,,,,,,,,,,,,,,,,,,,,,,,,,,,,,,,,,,,
,,,,,,,,,,,,,,,,,5832fa8996ecce0001d65197,40,2022-02-12_18h02.14.807,lexical_decision_task_DD_L6,2021.2.3,Win32,20,,,,,,,,,,,1.0949,0,,,,,,,,,,,,,,m,0,1.0949,,,,,,,,0.425925926,-0.163888889,0,0,0,,0,13,13,140,1,DOVET,LB,z,z,./images/DOVETLB.png,,,,,,,,,,,,,,,,,,,,,,,,,,,,,,,,,,,
,,,,,,,,,,,,,,,,,5832fa8996ecce0001d65197,40,2022-02-12_18h02.14.807,lexical_decision_task_DD_L6,2021.2.3,Win32,20,,,,,,,,,,,1.0594,1,,,,,,,,,,,,,,z,1,1.0594,,,,,,,,0.425925926,-0.163888889,0,0,0,,0,14,14,102,1,DULLE,C,z,z,./images/DULLE.png,,,,,,,,,,,,,,,,,,,,,,,,,,,,,,,,,,,
,,,,,,,,,,,,,,,,,5832fa8996ecce0001d65197,40,2022-02-12_18h02.14.807,lexical_decision_task_DD_L6,2021.2.3,Win32,20,,,,,,,,,,,1.1502,1,,,,,,,,,,,,,,z,1,1.1502,,,,,,,,0.425925926,-0.163888889,0,0,0,,0,15,15,156,1,HIXES,C,z,z,./images/HIXES.png,,,,,,,,,,,,,,,,,,,,,,,,,,,,,,,,,,,
,,,,,,,,,,,,,,,,,5832fa8996ecce0001d65197,40,2022-02-12_18h02.14.807,lexical_decision_task_DD_L6,2021.2.3,Win32,20,,,,,,,,,,,1.0614,1,,,,,,,,,,,,,,z,1,1.0614,,,,,,,,0.425925926,-0.163888889,0,0,0,,0,16,16,117,1,STEEG,C,z,z,./images/STEEG.png,,,,,,,,,,,,,,,,,,,,,,,,,,,,,,,,,,,
,,,,,,,,,,,,,,,,,5832fa8996ecce0001d65197,40,2022-02-12_18h02.14.807,lexical_decision_task_DD_L6,2021.2.3,Win32,20,,,,,,,,,,,1.1849,1,,,,,,,,,,,,,,m,1,1.1849,,,,,,,,0.425925926,-0.163888889,0,0,0,,0,17,17,4,1,BOXER,C,m,m,./images/BOXER.png,,,,,,,,,,,,,,,,,,,,,,,,,,,,,,,,,,,
,,,,,,,,,,,,,,,,,5832fa8996ecce0001d65197,40,2022-02-12_18h02.14.807,lexical_decision_task_DD_L6,2021.2.3,Win32,20,,,,,,,,,,,0.9806,1,,,,,,,,,,,,,,z,1,0.9806,,,,,,,,0.425925926,-0.163888889,0,0,0,,0,18,18,127,1,NINDY,HB,z,z,./images/NINDYHB.png,,,,,,,,,,,,,,,,,,,,,,,,,,,,,,,,,,,
,,,,,,,,,,,,,,,,,5832fa8996ecce0001d65197,40,2022-02-12_18h02.14.807,lexical_decision_task_DD_L6,2021.2.3,Win32,20,,,,,,,,,,,1.0822,1,,,,,,,,,,,,,,m,1,1.0822,,,,,,,,0.425925926,-0.163888889,0,0,0,,0,19,19,78,1,BROOM,LB,m,m,./images/BROOMLB.png,,,,,,,,,,,,,,,,,,,,,,,,,,,,,,,,,,,
,,,,,,,,,,,,,,,,,5832fa8996ecce0001d65197,40,2022-02-12_18h02.14.807,lexical_decision_task_DD_L6,2021.2.3,Win32,20,,,,,,,,,,,1.6067,1,,,,,,,,,,,,,,m,1,1.6067,,,,,,,,0.425925926,-0.163888889,0,0,0,,0,20,20,5,1,BAMBOO,HB,m,m,./images/BAMBOOHB.png,,,,,,,,,,,,,,,,,,,,,,,,,,,,,,,,,,,
,,,,,,,,,,,,,,,,,5832fa8996ecce0001d65197,40,2022-02-12_18h02.14.807,lexical_decision_task_DD_L6,2021.2.3,Win32,20,,,,,,,,,,,1.7407,1,,,,,,,,,,,,,,m,1,1.7407,,,,,,,,0.425925926,-0.163888889,0,0,0,,0,21,21,54,1,CHERRY,LB,m,m,./images/CHERRYLB.png,,,,,,,,,,,,,,,,,,,,,,,,,,,,,,,,,,,
,,,,,,,,,,,,,,,,,5832fa8996ecce0001d65197,40,2022-02-12_18h02.14.807,lexical_decision_task_DD_L6,2021.2.3,Win32,20,,,,,,,,,,,2.1494,1,,,,,,,,,,,,,,z,1,2.1494,,,,,,,,0.425925926,-0.163888889,0,0,0,,0,22,22,85,1,CHULK,HB,z,z,./images/CHULKHB.png,,,,,,,,,,,,,,,,,,,,,,,,,,,,,,,,,,,
,,,,,,,,,,,,,,,,,5832fa8996ecce0001d65197,40,2022-02-12_18h02.14.807,lexical_decision_task_DD_L6,2021.2.3,Win32,20,,,,,,,,,,,0.9874,1,,,,,,,,,,,,,,m,1,0.9874,,,,,,,,0.425925926,-0.163888889,0,0,0,,0,23,23,11,1,MEDAL,HB,m,m,./images/MEDALHB.png,,,,,,,,,,,,,,,,,,,,,,,,,,,,,,,,,,,
,,,,,,,,,,,,,,,,,5832fa8996ecce0001d65197,40,2022-02-12_18h02.14.807,lexical_decision_task_DD_L6,2021.2.3,Win32,20,,,,,,,,,,,1.164,1,,,,,,,,,,,,,,z,1,1.164,,,,,,,,0.425925926,-0.163888889,0,0,0,,0,24,24,152,1,FRAIN,LB,z,z,./images/FRAINLB.png,,,,,,,,,,,,,,,,,,,,,,,,,,,,,,,,,,,
,,,,,,,,,,,,,,,,,5832fa8996ecce0001d65197,40,2022-02-12_18h02.14.807,lexical_decision_task_DD_L6,2021.2.3,Win32,20,,,,,,,,,,,1.7051,1,,,,,,,,,,,,,,z,1,1.7051,,,,,,,,0.425925926,-0.163888889,0,0,0,,0,25,25,133,1,POWDY,HB,z,z,./images/POWDYHB.png,,,,,,,,,,,,,,,,,,,,,,,,,,,,,,,,,,,
,,,,,,,,,,,,,,,,,5832fa8996ecce0001d65197,40,2022-02-12_18h02.14.807,lexical_decision_task_DD_L6,2021.2.3,Win32,20,,,,,,,,,,,0.9715,1,,,,,,,,,,,,,,z,1,0.9715,,,,,,,,0.425925926,-0.163888889,0,0,0,,0,26,26,131,1,NACES,LB,z,z,./images/NACESLB.png,,,,,,,,,,,,,,,,,,,,,,,,,,,,,,,,,,,
,,,,,,,,,,,,,,,,,5832fa8996ecce0001d65197,40,2022-02-12_18h02.14.807,lexical_decision_task_DD_L6,2021.2.3,Win32,20,,,,,,,,,,,1.134,1,,,,,,,,,,,,,,m,1,1.134,,,,,,,,0.425925926,-0.163888889,0,0,0,,0,27,27,74,1,JUMPER,HB,m,m,./images/JUMPERHB.png,,,,,,,,,,,,,,,,,,,,,,,,,,,,,,,,,,,
,,,,,,,,,,,,,,,,,5832fa8996ecce0001d65197,40,2022-02-12_18h02.14.807,lexical_decision_task_DD_L6,2021.2.3,Win32,20,,,,,,,,,,,0.8738,1,,,,,,,,,,,,,,z,1,0.8738,,,,,,,,0.425925926,-0.163888889,0,0,0,,0,28,28,107,1,FASKS,LB,z,z,./images/FASKSLB.png,,,,,,,,,,,,,,,,,,,,,,,,,,,,,,,,,,,
,,,,,,,,,,,,,,,,,5832fa8996ecce0001d65197,40,2022-02-12_18h02.14.807,lexical_decision_task_DD_L6,2021.2.3,Win32,20,,,,,,,,,,,1.2542,1,,,,,,,,,,,,,,z,1,1.2542,,,,,,,,0.425925926,-0.163888889,0,0,0,,0,29,29,116,1,BALGY,LB,z,z,./images/BALGYLB.png,,,,,,,,,,,,,,,,,,,,,,,,,,,,,,,,,,,
,,,,,,,,,,,,,,,,,5832fa8996ecce0001d65197,40,2022-02-12_18h02.14.807,lexical_decision_task_DD_L6,2021.2.3,Win32,20,,,,,,,,,,,1.0739,1,,,,,,,,,,,,,,z,1,1.0739,,,,,,,,0.425925926,-0.163888889,0,0,0,,0,30,30,136,1,WERVE,HB,z,z,./images/WERVEHB.png,,,,,,,,,,,,,,,,,,,,,,,,,,,,,,,,,,,
,,,,,,,,,,,,,,,,,5832fa8996ecce0001d65197,40,2022-02-12_18h02.14.807,lexical_decision_task_DD_L6,2021.2.3,Win32,20,,,,,,,,,,,1.3475,1,,,,,,,,,,,,,,m,1,1.3475,,,,,,,,0.425925926,-0.163888889,0,0,0,,0,31,31,8,1,CLIFF,HB,m,m,./images/CLIFFHB.png,,,,,,,,,,,,,,,,,,,,,,,,,,,,,,,,,,,
,,,,,,,,,,,,,,,,,5832fa8996ecce0001d65197,40,2022-02-12_18h02.14.807,lexical_decision_task_DD_L6,2021.2.3,Win32,20,,,,,,,,,,,0.7623,1,,,,,,,,,,,,,,z,1,0.7623,,,,,,,,0.425925926,-0.163888889,0,0,0,,0,32,32,126,1,GUELS,C,z,z,./images/GUELS.png,,,,,,,,,,,,,,,,,,,,,,,,,,,,,,,,,,,
,,,,,,,,,,,,,,,,,5832fa8996ecce0001d65197,40,2022-02-12_18h02.14.807,lexical_decision_task_DD_L6,2021.2.3,Win32,20,,,,,,,,,,,0.8567,1,,,,,,,,,,,,,,z,1,0.8567,,,,,,,,0.425925926,-0.163888889,0,0,0,,0,33,33,143,1,MONGS,LB,z,z,./images/MONGSLB.png,,,,,,,,,,,,,,,,,,,,,,,,,,,,,,,,,,,
,,,,,,,,,,,,,,,,,5832fa8996ecce0001d65197,40,2022-02-12_18h02.14.807,lexical_decision_task_DD_L6,2021.2.3,Win32,20,,,,,,,,,,,1.1509,0,,,,,,,,,,,,,,z,0,1.1509,,,,,,,,0.425925926,-0.163888889,0,0,0,,0,34,34,50,1,PILOT,HB,m,m,./images/PILOTHB.png,,,,,,,,,,,,,,,,,,,,,,,,,,,,,,,,,,,
,,,,,,,,,,,,,,,,,5832fa8996ecce0001d65197,40,2022-02-12_18h02.14.807,lexical_decision_task_DD_L6,2021.2.3,Win32,20,,,,,,,,,,,0.8744,1,,,,,,,,,,,,,,m,1,0.8744,,,,,,,,0.425925926,-0.163888889,0,0,0,,0,35,35,28,1,CASINO,C,m,m,./images/CASINO.png,,,,,,,,,,,,,,,,,,,,,,,,,,,,,,,,,,,
,,,,,,,,,,,,,,,,,5832fa8996ecce0001d65197,40,2022-02-12_18h02.14.807,lexical_decision_task_DD_L6,2021.2.3,Win32,20,,,,,,,,,,,1.4026,1,,,,,,,,,,,,,,m,1,1.4026,,,,,,,,0.425925926,-0.163888889,0,0,0,,0,36,36,18,1,PARCEL,LB,m,m,./images/PARCELLB.png,,,,,,,,,,,,,,,,,,,,,,,,,,,,,,,,,,,
,,,,,,,,,,,,,,,,,5832fa8996ecce0001d65197,40,2022-02-12_18h02.14.807,lexical_decision_task_DD_L6,2021.2.3,Win32,20,,,,,,,,,,,1.4538,1,,,,,,,,,,,,,,m,1,1.4538,,,,,,,,0.425925926,-0.163888889,0,0,0,,0,37,37,14,1,FENCE,HB,m,m,./images/FENCEHB.png,,,,,,,,,,,,,,,,,,,,,,,,,,,,,,,,,,,
,,,,,,,,,,,,,,,,,5832fa8996ecce0001d65197,40,2022-02-12_18h02.14.807,lexical_decision_task_DD_L6,2021.2.3,Win32,20,,,,,,,,,,,1.8712,1,,,,,,,,,,,,,,z,1,1.8712,,,,,,,,0.425925926,-0.163888889,0,0,0,,0,38,38,138,1,PLICE,C,z,z,./images/PLICE.png,,,,,,,,,,,,,,,,,,,,,,,,,,,,,,,,,,,
,,,,,,,,,,,,,,,,,5832fa8996ecce0001d65197,40,2022-02-12_18h02.14.807,lexical_decision_task_DD_L6,2021.2.3,Win32,20,,,,,,,,,,,1.461,1,,,,,,,,,,,,,,m,1,1.461,,,,,,,,0.425925926,-0.163888889,0,0,0,,0,39,39,68,1,VALLEY,HB,m,m,./images/VALLEYHB.png,,,,,,,,,,,,,,,,,,,,,,,,,,,,,,,,,,,
,,,,,,,,,,,,,,,,,5832fa8996ecce0001d65197,40,2022-02-12_18h02.14.807,lexical_decision_task_DD_L6,2021.2.3,Win32,20,,,,,,,,,,,1.4114,1,,,,,,,,,,,,,,z,1,1.4114,,,,,,,,0.425925926,-0.163888889,0,0,0,,0,40,40,109,1,BURGE,HB,z,z,./images/BURGEHB.png,,,,,,,,,,,,,,,,,,,,,,,,,,,,,,,,,,,
,,,,,,,,,,,,,,,,,5832fa8996ecce0001d65197,40,2022-02-12_18h02.14.807,lexical_decision_task_DD_L6,2021.2.3,Win32,20,,,,,,,,,,,1.3147,1,,,,,,,,,,,,,,z,1,1.3147,,,,,,,,0.425925926,-0.163888889,0,0,0,space,0,41,41,155,1,CANGY,LB,z,z,./images/CANGYLB.png,7.8749,,,,,,,,,,,,,,,,,,,,,,,,,,,,,,,,,,
,,,,,,,,,,,,,,,,,5832fa8996ecce0001d65197,40,2022-02-12_18h02.14.807,lexical_decision_task_DD_L6,2021.2.3,Win32,20,,,,,,,,,,,1.0981,1,,,,,,,,,,,,,,m,1,1.0981,,,,,,,,0.425925926,-0.163888889,0,0,0,,0,42,42,24,1,FLESH,LB,m,m,./images/FLESHLB.png,,,,,,,,,,,,,,,,,,,,,,,,,,,,,,,,,,,
,,,,,,,,,,,,,,,,,5832fa8996ecce0001d65197,40,2022-02-12_18h02.14.807,lexical_decision_task_DD_L6,2021.2.3,Win32,20,,,,,,,,,,,1.2338,1,,,,,,,,,,,,,,z,1,1.2338,,,,,,,,0.425925926,-0.163888889,0,0,0,,0,43,43,135,1,JOODY,C,z,z,./images/JOODY.png,,,,,,,,,,,,,,,,,,,,,,,,,,,,,,,,,,,
,,,,,,,,,,,,,,,,,5832fa8996ecce0001d65197,40,2022-02-12_18h02.14.807,lexical_decision_task_DD_L6,2021.2.3,Win32,20,,,,,,,,,,,0.906,1,,,,,,,,,,,,,,m,1,0.906,,,,,,,,0.425925926,-0.163888889,0,0,0,,0,44,44,0,1,WALNUT,LB,m,m,./images/WALNUTLB.png,,,,,,,,,,,,,,,,,,,,,,,,,,,,,,,,,,,
,,,,,,,,,,,,,,,,,5832fa8996ecce0001d65197,40,2022-02-12_18h02.14.807,lexical_decision_task_DD_L6,2021.2.3,Win32,20,,,,,,,,,,,1.3762,1,,,,,,,,,,,,,,z,1,1.3762,,,,,,,,0.425925926,-0.163888889,0,0,0,,0,45,45,108,1,GRUET,C,z,z,./images/GRUET.png,,,,,,,,,,,,,,,,,,,,,,,,,,,,,,,,,,,
,,,,,,,,,,,,,,,,,5832fa8996ecce0001d65197,40,2022-02-12_18h02.14.807,lexical_decision_task_DD_L6,2021.2.3,Win32,20,,,,,,,,,,,3.1242,1,,,,,,,,,,,,,,z,1,3.1242,,,,,,,,0.425925926,-0.163888889,0,0,0,,0,46,46,167,1,ZONET,LB,z,z,./images/ZONETLB.png,,,,,,,,,,,,,,,,,,,,,,,,,,,,,,,,,,,
,,,,,,,,,,,,,,,,,5832fa8996ecce0001d65197,40,2022-02-12_18h02.14.807,lexical_decision_task_DD_L6,2021.2.3,Win32,20,,,,,,,,,,,1.7935,1,,,,,,,,,,,,,,z,1,1.7935,,,,,,,,0.425925926,-0.163888889,0,0,0,,0,47,47,149,1,VEASE,LB,z,z,./images/VEASELB.png,,,,,,,,,,,,,,,,,,,,,,,,,,,,,,,,,,,
,,,,,,,,,,,,,,,,,5832fa8996ecce0001d65197,40,2022-02-12_18h02.14.807,lexical_decision_task_DD_L6,2021.2.3,Win32,20,,,,,,,,,,,2.9178,1,,,,,,,,,,,,,,m,1,2.9178,,,,,,,,0.425925926,-0.163888889,0,0,0,,0,48,48,75,1,HAMMER,LB,m,m,./images/HAMMERLB.png,,,,,,,,,,,,,,,,,,,,,,,,,,,,,,,,,,,
,,,,,,,,,,,,,,,,,5832fa8996ecce0001d65197,40,2022-02-12_18h02.14.807,lexical_decision_task_DD_L6,2021.2.3,Win32,20,,,,,,,,,,,1.1944,1,,,,,,,,,,,,,,m,1,1.1944,,,,,,,,0.425925926,-0.163888889,0,0,0,,0,49,49,79,1,RULER,C,m,m,./images/RULER.png,,,,,,,,,,,,,,,,,,,,,,,,,,,,,,,,,,,
,,,,,,,,,,,,,,,,,5832fa8996ecce0001d65197,40,2022-02-12_18h02.14.807,lexical_decision_task_DD_L6,2021.2.3,Win32,20,,,,,,,,,,,2.3863,1,,,,,,,,,,,,,,z,1,2.3863,,,,,,,,0.425925926,-0.163888889,0,0,0,,0,50,50,91,1,SHENS,HB,z,z,./images/SHENSHB.png,,,,,,,,,,,,,,,,,,,,,,,,,,,,,,,,,,,
,,,,,,,,,,,,,,,,,5832fa8996ecce0001d65197,40,2022-02-12_18h02.14.807,lexical_decision_task_DD_L6,2021.2.3,Win32,20,,,,,,,,,,,1.265,1,,,,,,,,,,,,,,m,1,1.265,,,,,,,,0.425925926,-0.163888889,0,0,0,,0,51,51,70,1,BANANA,C,m,m,./images/BANANA.png,,,,,,,,,,,,,,,,,,,,,,,,,,,,,,,,,,,
,,,,,,,,,,,,,,,,,5832fa8996ecce0001d65197,40,2022-02-12_18h02.14.807,lexical_decision_task_DD_L6,2021.2.3,Win32,20,,,,,,,,,,,1.7011,1,,,,,,,,,,,,,,m,1,1.7011,,,,,,,,0.425925926,-0.163888889,0,0,0,,0,52,52,20,1,GRANNY,HB,m,m,./images/GRANNYHB.png,,,,,,,,,,,,,,,,,,,,,,,,,,,,,,,,,,,
,,,,,,,,,,,,,,,,,5832fa8996ecce0001d65197,40,2022-02-12_18h02.14.807,lexical_decision_task_DD_L6,2021.2.3,Win32,20,,,,,,,,,,,1.1892,1,,,,,,,,,,,,,,z,1,1.1892,,,,,,,,0.425925926,-0.163888889,0,0,0,,0,53,53,125,1,MOOKY,LB,z,z,./images/MOOKYLB.png,,,,,,,,,,,,,,,,,,,,,,,,,,,,,,,,,,,
,,,,,,,,,,,,,,,,,5832fa8996ecce0001d65197,40,2022-02-12_18h02.14.807,lexical_decision_task_DD_L6,2021.2.3,Win32,20,,,,,,,,,,,0.985,1,,,,,,,,,,,,,,z,1,0.985,,,,,,,,0.425925926,-0.163888889,0,0,0,,0,54,54,92,1,PAIMS,LB,z,z,./images/PAIMSLB.png,,,,,,,,,,,,,,,,,,,,,,,,,,,,,,,,,,,
,,,,,,,,,,,,,,,,,5832fa8996ecce0001d65197,40,2022-02-12_18h02.14.807,lexical_decision_task_DD_L6,2021.2.3,Win32,20,,,,,,,,,,,2.0201,1,,,,,,,,,,,,,,m,1,2.0201,,,,,,,,0.425925926,-0.163888889,0,0,0,,0,55,55,32,1,HOCKEY,HB,m,m,./images/HOCKEYHB.png,,,,,,,,,,,,,,,,,,,,,,,,,,,,,,,,,,,
,,,,,,,,,,,,,,,,,5832fa8996ecce0001d65197,40,2022-02-12_18h02.14.807,lexical_decision_task_DD_L6,2021.2.3,Win32,20,,,,,,,,,,,0.735,1,,,,,,,,,,,,,,z,1,0.735,,,,,,,,0.425925926,-0.163888889,0,0,0,,0,56,56,90,1,NEAST,C,z,z,./images/NEAST.png,,,,,,,,,,,,,,,,,,,,,,,,,,,,,,,,,,,
,,,,,,,,,,,,,,,,,5832fa8996ecce0001d65197,40,2022-02-12_18h02.14.807,lexical_decision_task_DD_L6,2021.2.3,Win32,20,,,,,,,,,,,1.2552,1,,,,,,,,,,,,,,z,1,1.2552,,,,,,,,0.425925926,-0.163888889,0,0,0,,0,57,57,163,1,GAMBA,HB,z,z,./images/GAMBAHB.png,,,,,,,,,,,,,,,,,,,,,,,,,,,,,,,,,,,
,,,,,,,,,,,,,,,,,5832fa8996ecce0001d65197,40,2022-02-12_18h02.14.807,lexical_decision_task_DD_L6,2021.2.3,Win32,20,,,,,,,,,,,1.8058,1,,,,,,,,,,,,,,z,1,1.8058,,,,,,,,0.425925926,-0.163888889,0,0,0,,0,58,58,100,1,DRIBS,HB,z,z,./images/DRIBSHB.png,,,,,,,,,,,,,,,,,,,,,,,,,,,,,,,,,,,
,,,,,,,,,,,,,,,,,5832fa8996ecce0001d65197,40,2022-02-12_18h02.14.807,lexical_decision_task_DD_L6,2021.2.3,Win32,20,,,,,,,,,,,1.8945,1,,,,,,,,,,,,,,m,1,1.8945,,,,,,,,0.425925926,-0.163888889,0,0,0,,0,59,59,62,1,MAMMAL,HB,m,m,./images/MAMMALHB.png,,,,,,,,,,,,,,,,,,,,,,,,,,,,,,,,,,,
,,,,,,,,,,,,,,,,,5832fa8996ecce0001d65197,40,2022-02-12_18h02.14.807,lexical_decision_task_DD_L6,2021.2.3,Win32,20,,,,,,,,,,,1.022,1,,,,,,,,,,,,,,m,1,1.022,,,,,,,,0.425925926,-0.163888889,0,0,0,,0,60,60,76,1,MIDGET,C,m,m,./images/MIDGET.png,,,,,,,,,,,,,,,,,,,,,,,,,,,,,,,,,,,
,,,,,,,,,,,,,,,,,5832fa8996ecce0001d65197,40,2022-02-12_18h02.14.807,lexical_decision_task_DD_L6,2021.2.3,Win32,20,,,,,,,,,,,1.0817,1,,,,,,,,,,,,,,m,1,1.0817,,,,,,,,0.425925926,-0.163888889,0,0,0,,0,61,61,25,1,CHALK,C,m,m,./images/CHALK.png,,,,,,,,,,,,,,,,,,,,,,,,,,,,,,,,,,,
,,,,,,,,,,,,,,,,,5832fa8996ecce0001d65197,40,2022-02-12_18h02.14.807,lexical_decision_task_DD_L6,2021.2.3,Win32,20,,,,,,,,,,,1.3646,1,,,,,,,,,,,,,,z,1,1.3646,,,,,,,,0.425925926,-0.163888889,0,0,0,,0,62,62,134,1,TROSS,LB,z,z,./images/TROSSLB.png,,,,,,,,,,,,,,,,,,,,,,,,,,,,,,,,,,,
,,,,,,,,,,,,,,,,,5832fa8996ecce0001d65197,40,2022-02-12_18h02.14.807,lexical_decision_task_DD_L6,2021.2.3,Win32,20,,,,,,,,,,,1.2251,1,,,,,,,,,,,,,,m,1,1.2251,,,,,,,,0.425925926,-0.163888889,0,0,0,,0,63,63,10,1,GARDEN,C,m,m,./images/GARDEN.png,,,,,,,,,,,,,,,,,,,,,,,,,,,,,,,,,,,
,,,,,,,,,,,,,,,,,5832fa8996ecce0001d65197,40,2022-02-12_18h02.14.807,lexical_decision_task_DD_L6,2021.2.3,Win32,20,,,,,,,,,,,1.266,1,,,,,,,,,,,,,,z,1,1.266,,,,,,,,0.425925926,-0.163888889,0,0,0,,0,64,64,147,1,ZOLES,C,z,z,./images/ZOLES.png,,,,,,,,,,,,,,,,,,,,,,,,,,,,,,,,,,,
,,,,,,,,,,,,,,,,,5832fa8996ecce0001d65197,40,2022-02-12_18h02.14.807,lexical_decision_task_DD_L6,2021.2.3,Win32,20,,,,,,,,,,,0.979,0,,,,,,,,,,,,,,m,0,0.979,,,,,,,,0.425925926,-0.163888889,0,0,0,,0,65,65,88,1,GLUSH,HB,z,z,./images/GLUSHHB.png,,,,,,,,,,,,,,,,,,,,,,,,,,,,,,,,,,,
,,,,,,,,,,,,,,,,,5832fa8996ecce0001d65197,40,2022-02-12_18h02.14.807,lexical_decision_task_DD_L6,2021.2.3,Win32,20,,,,,,,,,,,1.1294,1,,,,,,,,,,,,,,z,1,1.1294,,,,,,,,0.425925926,-0.163888889,0,0,0,,0,66,66,122,1,BLOOT,LB,z,z,./images/BLOOTLB.png,,,,,,,,,,,,,,,,,,,,,,,,,,,,,,,,,,,
,,,,,,,,,,,,,,,,,5832fa8996ecce0001d65197,40,2022-02-12_18h02.14.807,lexical_decision_task_DD_L6,2021.2.3,Win32,20,,,,,,,,,,,1.4415,1,,,,,,,,,,,,,,z,1,1.4415,,,,,,,,0.425925926,-0.163888889,0,0,0,,0,67,67,112,1,MYING,HB,z,z,./images/MYINGHB.png,,,,,,,,,,,,,,,,,,,,,,,,,,,,,,,,,,,
,,,,,,,,,,,,,,,,,5832fa8996ecce0001d65197,40,2022-02-12_18h02.14.807,lexical_decision_task_DD_L6,2021.2.3,Win32,20,,,,,,,,,,,1.0616,1,,,,,,,,,,,,,,z,1,1.0616,,,,,,,,0.425925926,-0.163888889,0,0,0,,0,68,68,86,1,AIFED,LB,z,z,./images/AIFEDLB.png,,,,,,,,,,,,,,,,,,,,,,,,,,,,,,,,,,,
,,,,,,,,,,,,,,,,,5832fa8996ecce0001d65197,40,2022-02-12_18h02.14.807,lexical_decision_task_DD_L6,2021.2.3,Win32,20,,,,,,,,,,,1.2395,1,,,,,,,,,,,,,,z,1,1.2395,,,,,,,,0.425925926,-0.163888889,0,0,0,,0,69,69,84,1,HAXES,C,z,z,./images/HAXES.png,,,,,,,,,,,,,,,,,,,,,,,,,,,,,,,,,,,
,,,,,,,,,,,,,,,,,5832fa8996ecce0001d65197,40,2022-02-12_18h02.14.807,lexical_decision_task_DD_L6,2021.2.3,Win32,20,,,,,,,,,,,1.4063,1,,,,,,,,,,,,,,z,1,1.4063,,,,,,,,0.425925926,-0.163888889,0,0,0,,0,70,70,118,1,BAVEL,HB,z,z,./images/BAVELHB.png,,,,,,,,,,,,,,,,,,,,,,,,,,,,,,,,,,,
,,,,,,,,,,,,,,,,,5832fa8996ecce0001d65197,40,2022-02-12_18h02.14.807,lexical_decision_task_DD_L6,2021.2.3,Win32,20,,,,,,,,,,,1.4052,1,,,,,,,,,,,,,,m,1,1.4052,,,,,,,,0.425925926,-0.163888889,0,0,0,,0,71,71,51,1,SAUCE,LB,m,m,./images/SAUCELB.png,,,,,,,,,,,,,,,,,,,,,,,,,,,,,,,,,,,
,,,,,,,,,,,,,,,,,5832fa8996ecce0001d65197,40,2022-02-12_18h02.14.807,lexical_decision_task_DD_L6,2021.2.3,Win32,20,,,,,,,,,,,1.5415,1,,,,,,,,,,,,,,z,1,1.5415,,,,,,,,0.425925926,-0.163888889,0,0,0,,0,72,72,158,1,EGECT,LB,z,z,./images/EGECTLB.png,,,,,,,,,,,,,,,,,,,,,,,,,,,,,,,,,,,
,,,,,,,,,,,,,,,,,5832fa8996ecce0001d65197,40,2022-02-12_18h02.14.807,lexical_decision_task_DD_L6,2021.2.3,Win32,20,,,,,,,,,,,1.3004,1,,,,,,,,,,,,,,m,1,1.3004,,,,,,,,0.425925926,-0.163888889,0,0,0,,0,73,73,22,1,CLOWN,C,m,m,./images/CLOWN.png,,,,,,,,,,,,,,,,,,,,,,,,,,,,,,,,,,,
,,,,,,,,,,,,,,,,,5832fa8996ecce0001d65197,40,2022-02-12_18h02.14.807,lexical_decision_task_DD_L6,2021.2.3,Win32,20,,,,,,,,,,,1.856,1,,,,,,,,,,,,,,z,1,1.856,,,,,,,,0.425925926,-0.163888889,0,0,0,,0,74,74,142,1,PLASK,HB,z,z,./images/PLASKHB.png,,,,,,,,,,,,,,,,,,,,,,,,,,,,,,,,,,,
,,,,,,,,,,,,,,,,,5832fa8996ecce0001d65197,40,2022-02-12_18h02.14.807,lexical_decision_task_DD_L6,2021.2.3,Win32,20,,,,,,,,,,,1.9511,1,,,,,,,,,,,,,,m,1,1.9511,,,,,,,,0.425925926,-0.163888889,0,0,0,,0,75,75,34,1,RAZOR,C,m,m,./images/RAZOR.png,,,,,,,,,,,,,,,,,,,,,,,,,,,,,,,,,,,
,,,,,,,,,,,,,,,,,5832fa8996ecce0001d65197,40,2022-02-12_18h02.14.807,lexical_decision_task_DD_L6,2021.2.3,Win32,20,,,,,,,,,,,0.9355,1,,,,,,,,,,,,,,z,1,0.9355,,,,,,,,0.425925926,-0.163888889,0,0,0,,0,76,76,162,1,LEICH,C,z,z,./images/LEICH.png,,,,,,,,,,,,,,,,,,,,,,,,,,,,,,,,,,,
,,,,,,,,,,,,,,,,,5832fa8996ecce0001d65197,40,2022-02-12_18h02.14.807,lexical_decision_task_DD_L6,2021.2.3,Win32,20,,,,,,,,,,,2.7232,1,,,,,,,,,,,,,,z,1,2.7232,,,,,,,,0.425925926,-0.163888889,0,0,0,,0,77,77,164,1,SGREW,LB,z,z,./images/SGREWLB.png,,,,,,,,,,,,,,,,,,,,,,,,,,,,,,,,,,,
,,,,,,,,,,,,,,,,,5832fa8996ecce0001d65197,40,2022-02-12_18h02.14.807,lexical_decision_task_DD_L6,2021.2.3,Win32,20,,,,,,,,,,,1.9465,1,,,,,,,,,,,,,,m,1,1.9465,,,,,,,,0.425925926,-0.163888889,0,0,0,,0,78,78,30,1,SLOPE,LB,m,m,./images/SLOPELB.png,,,,,,,,,,,,,,,,,,,,,,,,,,,,,,,,,,,
,,,,,,,,,,,,,,,,,5832fa8996ecce0001d65197,40,2022-02-12_18h02.14.807,lexical_decision_task_DD_L6,2021.2.3,Win32,20,,,,,,,,,,,1.3992,1,,,,,,,,,,,,,,z,1,1.3992,,,,,,,,0.425925926,-0.163888889,0,0,0,,0,79,79,87,1,TRING,C,z,z,./images/TRING.png,,,,,,,,,,,,,,,,,,,,,,,,,,,,,,,,,,,
,,,,,,,,,,,,,,,,,5832fa8996ecce0001d65197,40,2022-02-12_18h02.14.807,lexical_decision_task_DD_L6,2021.2.3,Win32,20,,,,,,,,,,,1.4183,1,,,,,,,,,,,,,,z,1,1.4183,,,,,,,,0.425925926,-0.163888889,0,0,0,,0,80,80,99,1,BACKY,C,z,z,./images/BACKY.png,,,,,,,,,,,,,,,,,,,,,,,,,,,,,,,,,,,
,,,,,,,,,,,,,,,,,5832fa8996ecce0001d65197,40,2022-02-12_18h02.14.807,lexical_decision_task_DD_L6,2021.2.3,Win32,20,,,,,,,,,,,1.5385,1,,,,,,,,,,,,,,z,1,1.5385,,,,,,,,0.425925926,-0.163888889,0,0,0,,0,81,81,94,1,BLANS,HB,z,z,./images/BLANSHB.png,,,,,,,,,,,,,,,,,,,,,,,,,,,,,,,,,,,
,,,,,,,,,,,,,,,,,5832fa8996ecce0001d65197,40,2022-02-12_18h02.14.807,lexical_decision_task_DD_L6,2021.2.3,Win32,20,,,,,,,,,,,1.1703,1,,,,,,,,,,,,,,z,1,1.1703,,,,,,,,0.425925926,-0.163888889,0,0,0,,0,82,82,103,1,FLORT,HB,z,z,./images/FLORTHB.png,,,,,,,,,,,,,,,,,,,,,,,,,,,,,,,,,,,
,,,,,,,,,,,,,,,,,5832fa8996ecce0001d65197,40,2022-02-12_18h02.14.807,lexical_decision_task_DD_L6,2021.2.3,Win32,20,,,,,,,,,,,1.5364,1,,,,,,,,,,,,,,m,1,1.5364,,,,,,,,0.425925926,-0.163888889,0,0,0,space,0,83,83,13,1,BUNNY,C,m,m,./images/BUNNY.png,4.6032,,,,,,,,,,,,,,,,,,,,,,,,,,,,,,,,,,
,,,,,,,,,,,,,,,,,5832fa8996ecce0001d65197,40,2022-02-12_18h02.14.807,lexical_decision_task_DD_L6,2021.2.3,Win32,20,,,,,,,,,,,1.0885,0,,,,,,,,,,,,,,z,0,1.0885,,,,,,,,0.425925926,-0.163888889,0,0,0,,0,84,84,38,1,ENGINE,HB,m,m,./images/ENGINEHB.png,,,,,,,,,,,,,,,,,,,,,,,,,,,,,,,,,,,
,,,,,,,,,,,,,,,,,5832fa8996ecce0001d65197,40,2022-02-12_18h02.14.807,lexical_decision_task_DD_L6,2021.2.3,Win32,20,,,,,,,,,,,1.7285,1,,,,,,,,,,,,,,z,1,1.7285,,,,,,,,0.425925926,-0.163888889,0,0,0,,0,85,85,97,1,CHIDS,HB,z,z,./images/CHIDSHB.png,,,,,,,,,,,,,,,,,,,,,,,,,,,,,,,,,,,
,,,,,,,,,,,,,,,,,5832fa8996ecce0001d65197,40,2022-02-12_18h02.14.807,lexical_decision_task_DD_L6,2021.2.3,Win32,20,,,,,,,,,,,1.1074,1,,,,,,,,,,,,,,m,1,1.1074,,,,,,,,0.425925926,-0.163888889,0,0,0,,0,86,86,49,1,BISHOP,C,m,m,./images/BISHOP.png,,,,,,,,,,,,,,,,,,,,,,,,,,,,,,,,,,,
,,,,,,,,,,,,,,,,,5832fa8996ecce0001d65197,40,2022-02-12_18h02.14.807,lexical_decision_task_DD_L6,2021.2.3,Win32,20,,,,,,,,,,,1.3654,1,,,,,,,,,,,,,,z,1,1.3654,,,,,,,,0.425925926,-0.163888889,0,0,0,,0,87,87,145,1,LAMEL,HB,z,z,./images/LAMELHB.png,,,,,,,,,,,,,,,,,,,,,,,,,,,,,,,,,,,
,,,,,,,,,,,,,,,,,5832fa8996ecce0001d65197,40,2022-02-12_18h02.14.807,lexical_decision_task_DD_L6,2021.2.3,Win32,20,,,,,,,,,,,1.3348,1,,,,,,,,,,,,,,z,1,1.3348,,,,,,,,0.425925926,-0.163888889,0,0,0,,0,88,88,165,1,TROWN,C,z,z,./images/TROWN.png,,,,,,,,,,,,,,,,,,,,,,,,,,,,,,,,,,,
,,,,,,,,,,,,,,,,,5832fa8996ecce0001d65197,40,2022-02-12_18h02.14.807,lexical_decision_task_DD_L6,2021.2.3,Win32,20,,,,,,,,,,,1.2712,1,,,,,,,,,,,,,,m,1,1.2712,,,,,,,,0.425925926,-0.163888889,0,0,0,,0,89,89,16,1,GRAPE,C,m,m,./images/GRAPE.png,,,,,,,,,,,,,,,,,,,,,,,,,,,,,,,,,,,
,,,,,,,,,,,,,,,,,5832fa8996ecce0001d65197,40,2022-02-12_18h02.14.807,lexical_decision_task_DD_L6,2021.2.3,Win32,20,,,,,,,,,,,0.9647,1,,,,,,,,,,,,,,z,1,0.9647,,,,,,,,0.425925926,-0.163888889,0,0,0,,0,90,90,101,1,GLEET,LB,z,z,./images/GLEETLB.png,,,,,,,,,,,,,,,,,,,,,,,,,,,,,,,,,,,
,,,,,,,,,,,,,,,,,5832fa8996ecce0001d65197,40,2022-02-12_18h02.14.807,lexical_decision_task_DD_L6,2021.2.3,Win32,20,,,,,,,,,,,1.1103,1,,,,,,,,,,,,,,m,1,1.1103,,,,,,,,0.425925926,-0.163888889,0,0,0,,0,91,91,3,1,CRATER,LB,m,m,./images/CRATERLB.png,,,,,,,,,,,,,,,,,,,,,,,,,,,,,,,,,,,
,,,,,,,,,,,,,,,,,5832fa8996ecce0001d65197,40,2022-02-12_18h02.14.807,lexical_decision_task_DD_L6,2021.2.3,Win32,20,,,,,,,,,,,1.4985,1,,,,,,,,,,,,,,z,1,1.4985,,,,,,,,0.425925926,-0.163888889,0,0,0,,0,92,92,148,1,JOMS,HB,z,z,./images/JOMSHB.png,,,,,,,,,,,,,,,,,,,,,,,,,,,,,,,,,,,
,,,,,,,,,,,,,,,,,5832fa8996ecce0001d65197,40,2022-02-12_18h02.14.807,lexical_decision_task_DD_L6,2021.2.3,Win32,20,,,,,,,,,,,1.0402,1,,,,,,,,,,,,,,z,1,1.0402,,,,,,,,0.425925926,-0.163888889,0,0,0,,0,93,93,132,1,SCIFF,C,z,z,./images/SCIFF.png,,,,,,,,,,,,,,,,,,,,,,,,,,,,,,,,,,,
,,,,,,,,,,,,,,,,,5832fa8996ecce0001d65197,40,2022-02-12_18h02.14.807,lexical_decision_task_DD_L6,2021.2.3,Win32,20,,,,,,,,,,,1.2168,1,,,,,,,,,,,,,,m,1,1.2168,,,,,,,,0.425925926,-0.163888889,0,0,0,,0,94,94,33,1,SAUNA,LB,m,m,./images/SAUNALB.png,,,,,,,,,,,,,,,,,,,,,,,,,,,,,,,,,,,
,,,,,,,,,,,,,,,,,5832fa8996ecce0001d65197,40,2022-02-12_18h02.14.807,lexical_decision_task_DD_L6,2021.2.3,Win32,20,,,,,,,,,,,1.2498,1,,,,,,,,,,,,,,m,1,1.2498,,,,,,,,0.425925926,-0.163888889,0,0,0,,0,95,95,82,1,PEBBLE,C,m,m,./images/PEBBLE.png,,,,,,,,,,,,,,,,,,,,,,,,,,,,,,,,,,,
,,,,,,,,,,,,,,,,,5832fa8996ecce0001d65197,40,2022-02-12_18h02.14.807,lexical_decision_task_DD_L6,2021.2.3,Win32,20,,,,,,,,,,,0.9719,1,,,,,,,,,,,,,,z,1,0.9719,,,,,,,,0.425925926,-0.163888889,0,0,0,,0,96,96,153,1,CLUPS,C,z,z,./images/CLUPS.png,,,,,,,,,,,,,,,,,,,,,,,,,,,,,,,,,,,
,,,,,,,,,,,,,,,,,5832fa8996ecce0001d65197,40,2022-02-12_18h02.14.807,lexical_decision_task_DD_L6,2021.2.3,Win32,20,,,,,,,,,,,1.2625,1,,,,,,,,,,,,,,m,1,1.2625,,,,,,,,0.425925926,-0.163888889,0,0,0,,0,97,97,6,1,STAIN,LB,m,m,./images/STAINLB.png,,,,,,,,,,,,,,,,,,,,,,,,,,,,,,,,,,,
,,,,,,,,,,,,,,,,,5832fa8996ecce0001d65197,40,2022-02-12_18h02.14.807,lexical_decision_task_DD_L6,2021.2.3,Win32,20,,,,,,,,,,,0.9412,1,,,,,,,,,,,,,,z,1,0.9412,,,,,,,,0.425925926,-0.163888889,0,0,0,,0,98,98,114,1,RIKES,C,z,z,./images/RIKES.png,,,,,,,,,,,,,,,,,,,,,,,,,,,,,,,,,,,
,,,,,,,,,,,,,,,,,5832fa8996ecce0001d65197,40,2022-02-12_18h02.14.807,lexical_decision_task_DD_L6,2021.2.3,Win32,20,,,,,,,,,,,1.3242,1,,,,,,,,,,,,,,m,1,1.3242,,,,,,,,0.425925926,-0.163888889,0,0,0,,0,99,99,56,1,HEATER,HB,m,m,./images/HEATERHB.png,,,,,,,,,,,,,,,,,,,,,,,,,,,,,,,,,,,
,,,,,,,,,,,,,,,,,5832fa8996ecce0001d65197,40,2022-02-12_18h02.14.807,lexical_decision_task_DD_L6,2021.2.3,Win32,20,,,,,,,,,,,1.3491,1,,,,,,,,,,,,,,z,1,1.3491,,,,,,,,0.425925926,-0.163888889,0,0,0,,0,100,100,113,1,LINEW,LB,z,z,./images/LINEWLB.png,,,,,,,,,,,,,,,,,,,,,,,,,,,,,,,,,,,
,,,,,,,,,,,,,,,,,5832fa8996ecce0001d65197,40,2022-02-12_18h02.14.807,lexical_decision_task_DD_L6,2021.2.3,Win32,20,,,,,,,,,,,1.0288,1,,,,,,,,,,,,,,m,1,1.0288,,,,,,,,0.425925926,-0.163888889,0,0,0,,0,101,101,17,1,PARADE,HB,m,m,./images/PARADEHB.png,,,,,,,,,,,,,,,,,,,,,,,,,,,,,,,,,,,
,,,,,,,,,,,,,,,,,5832fa8996ecce0001d65197,40,2022-02-12_18h02.14.807,lexical_decision_task_DD_L6,2021.2.3,Win32,20,,,,,,,,,,,0.9053,1,,,,,,,,,,,,,,m,1,0.9053,,,,,,,,0.425925926,-0.163888889,0,0,0,,0,102,102,31,1,STEAK,C,m,m,./images/STEAK.png,,,,,,,,,,,,,,,,,,,,,,,,,,,,,,,,,,,
,,,,,,,,,,,,,,,,,5832fa8996ecce0001d65197,40,2022-02-12_18h02.14.807,lexical_decision_task_DD_L6,2021.2.3,Win32,20,,,,,,,,,,,1.5288,1,,,,,,,,,,,,,,m,1,1.5288,,,,,,,,0.425925926,-0.163888889,0,0,0,,0,103,103,7,1,WAGON,C,m,m,./images/WAGON.png,,,,,,,,,,,,,,,,,,,,,,,,,,,,,,,,,,,
,,,,,,,,,,,,,,,,,5832fa8996ecce0001d65197,40,2022-02-12_18h02.14.807,lexical_decision_task_DD_L6,2021.2.3,Win32,20,,,,,,,,,,,1.4362,1,,,,,,,,,,,,,,z,1,1.4362,,,,,,,,0.425925926,-0.163888889,0,0,0,,0,104,104,95,1,HANTY,LB,z,z,./images/HANTYLB.png,,,,,,,,,,,,,,,,,,,,,,,,,,,,,,,,,,,
,,,,,,,,,,,,,,,,,5832fa8996ecce0001d65197,40,2022-02-12_18h02.14.807,lexical_decision_task_DD_L6,2021.2.3,Win32,20,,,,,,,,,,,1.7553,1,,,,,,,,,,,,,,z,1,1.7553,,,,,,,,0.425925926,-0.163888889,0,0,0,,0,105,105,154,1,THINT,HB,z,z,./images/THINTHB.png,,,,,,,,,,,,,,,,,,,,,,,,,,,,,,,,,,,
,,,,,,,,,,,,,,,,,5832fa8996ecce0001d65197,40,2022-02-12_18h02.14.807,lexical_decision_task_DD_L6,2021.2.3,Win32,20,,,,,,,,,,,2.0271,1,,,,,,,,,,,,,,z,1,2.0271,,,,,,,,0.425925926,-0.163888889,0,0,0,,0,106,106,157,1,INLER,HB,z,z,./images/INLERHB.png,,,,,,,,,,,,,,,,,,,,,,,,,,,,,,,,,,,
,,,,,,,,,,,,,,,,,5832fa8996ecce0001d65197,40,2022-02-12_18h02.14.807,lexical_decision_task_DD_L6,2021.2.3,Win32,20,,,,,,,,,,,1.5238,0,,,,,,,,,,,,,,z,0,1.5238,,,,,,,,0.425925926,-0.163888889,0,0,0,,0,107,107,12,1,BLOKE,LB,m,m,./images/BLOKELB.png,,,,,,,,,,,,,,,,,,,,,,,,,,,,,,,,,,,
,,,,,,,,,,,,,,,,,5832fa8996ecce0001d65197,40,2022-02-12_18h02.14.807,lexical_decision_task_DD_L6,2021.2.3,Win32,20,,,,,,,,,,,2.1514,1,,,,,,,,,,,,,,m,1,2.1514,,,,,,,,0.425925926,-0.163888889,0,0,0,,0,108,108,59,1,BRUSH,HB,m,m,./images/BRUSHHB.png,,,,,,,,,,,,,,,,,,,,,,,,,,,,,,,,,,,
,,,,,,,,,,,,,,,,,5832fa8996ecce0001d65197,40,2022-02-12_18h02.14.807,lexical_decision_task_DD_L6,2021.2.3,Win32,20,,,,,,,,,,,1.0006,1,,,,,,,,,,,,,,m,1,1.0006,,,,,,,,0.425925926,-0.163888889,0,0,0,,0,109,109,42,1,CHAIN,LB,m,m,./images/CHAINLB.png,,,,,,,,,,,,,,,,,,,,,,,,,,,,,,,,,,,
,,,,,,,,,,,,,,,,,5832fa8996ecce0001d65197,40,2022-02-12_18h02.14.807,lexical_decision_task_DD_L6,2021.2.3,Win32,20,,,,,,,,,,,1.5342,1,,,,,,,,,,,,,,m,1,1.5342,,,,,,,,0.425925926,-0.163888889,0,0,0,,0,110,110,80,1,PLANET,HB,m,m,./images/PLANETHB.png,,,,,,,,,,,,,,,,,,,,,,,,,,,,,,,,,,,
,,,,,,,,,,,,,,,,,5832fa8996ecce0001d65197,40,2022-02-12_18h02.14.807,lexical_decision_task_DD_L6,2021.2.3,Win32,20,,,,,,,,,,,2.7113,1,,,,,,,,,,,,,,z,1,2.7113,,,,,,,,0.425925926,-0.163888889,0,0,0,,0,111,111,129,1,PRANS,C,z,z,./images/PRANS.png,,,,,,,,,,,,,,,,,,,,,,,,,,,,,,,,,,,
,,,,,,,,,,,,,,,,,5832fa8996ecce0001d65197,40,2022-02-12_18h02.14.807,lexical_decision_task_DD_L6,2021.2.3,Win32,20,,,,,,,,,,,2.6135,1,,,,,,,,,,,,,,m,1,2.6135,,,,,,,,0.425925926,-0.163888889,0,0,0,,0,112,112,72,1,FLASK,LB,m,m,./images/FLASKLB.png,,,,,,,,,,,,,,,,,,,,,,,,,,,,,,,,,,,
,,,,,,,,,,,,,,,,,5832fa8996ecce0001d65197,40,2022-02-12_18h02.14.807,lexical_decision_task_DD_L6,2021.2.3,Win32,20,,,,,,,,,,,2.3606,1,,,,,,,,,,,,,,z,1,2.3606,,,,,,,,0.425925926,-0.163888889,0,0,0,,0,113,113,137,1,JOOST,LB,z,z,./images/JOOSTLB.png,,,,,,,,,,,,,,,,,,,,,,,,,,,,,,,,,,,
,,,,,,,,,,,,,,,,,5832fa8996ecce0001d65197,40,2022-02-12_18h02.14.807,lexical_decision_task_DD_L6,2021.2.3,Win32,20,,,,,,,,,,,2.2322,1,,,,,,,,,,,,,,m,1,2.2322,,,,,,,,0.425925926,-0.163888889,0,0,0,,0,114,114,26,1,CLOUD,HB,m,m,./images/CLOUDHB.png,,,,,,,,,,,,,,,,,,,,,,,,,,,,,,,,,,,
,,,,,,,,,,,,,,,,,5832fa8996ecce0001d65197,40,2022-02-12_18h02.14.807,lexical_decision_task_DD_L6,2021.2.3,Win32,20,,,,,,,,,,,2.1453,1,,,,,,,,,,,,,,z,1,2.1453,,,,,,,,0.425925926,-0.163888889,0,0,0,,0,115,115,141,1,PLEET,C,z,z,./images/PLEET.png,,,,,,,,,,,,,,,,,,,,,,,,,,,,,,,,,,,
,,,,,,,,,,,,,,,,,5832fa8996ecce0001d65197,40,2022-02-12_18h02.14.807,lexical_decision_task_DD_L6,2021.2.3,Win32,20,,,,,,,,,,,1.4445,1,,,,,,,,,,,,,,z,1,1.4445,,,,,,,,0.425925926,-0.163888889,0,0,0,,0,116,116,161,1,BLAPS,LB,z,z,./images/BLAPSLB.png,,,,,,,,,,,,,,,,,,,,,,,,,,,,,,,,,,,
,,,,,,,,,,,,,,,,,5832fa8996ecce0001d65197,40,2022-02-12_18h02.14.807,lexical_decision_task_DD_L6,2021.2.3,Win32,20,,,,,,,,,,,1.0582,1,,,,,,,,,,,,,,m,1,1.0582,,,,,,,,0.425925926,-0.163888889,0,0,0,,0,117,117,23,1,CLOTH,HB,m,m,./images/CLOTHHB.png,,,,,,,,,,,,,,,,,,,,,,,,,,,,,,,,,,,
,,,,,,,,,,,,,,,,,5832fa8996ecce0001d65197,40,2022-02-12_18h02.14.807,lexical_decision_task_DD_L6,2021.2.3,Win32,20,,,,,,,,,,,1.0734,1,,,,,,,,,,,,,,z,1,1.0734,,,,,,,,0.425925926,-0.163888889,0,0,0,,0,118,118,115,1,MAWNS,HB,z,z,./images/MAWNSHB.png,,,,,,,,,,,,,,,,,,,,,,,,,,,,,,,,,,,
,,,,,,,,,,,,,,,,,5832fa8996ecce0001d65197,40,2022-02-12_18h02.14.807,lexical_decision_task_DD_L6,2021.2.3,Win32,20,,,,,,,,,,,0.9131,1,,,,,,,,,,,,,,m,1,0.9131,,,,,,,,0.425925926,-0.163888889,0,0,0,,0,119,119,55,1,ALLEY,C,m,m,./images/ALLEY.png,,,,,,,,,,,,,,,,,,,,,,,,,,,,,,,,,,,
,,,,,,,,,,,,,,,,,5832fa8996ecce0001d65197,40,2022-02-12_18h02.14.807,lexical_decision_task_DD_L6,2021.2.3,Win32,20,,,,,,,,,,,0.9048,1,,,,,,,,,,,,,,z,1,0.9048,,,,,,,,0.425925926,-0.163888889,0,0,0,,0,120,120,119,1,PAFER,LB,z,z,./images/PAFERLB.png,,,,,,,,,,,,,,,,,,,,,,,,,,,,,,,,,,,
,,,,,,,,,,,,,,,,,5832fa8996ecce0001d65197,40,2022-02-12_18h02.14.807,lexical_decision_task_DD_L6,2021.2.3,Win32,20,,,,,,,,,,,1.1872,1,,,,,,,,,,,,,,m,1,1.1872,,,,,,,,0.425925926,-0.163888889,0,0,0,,0,121,121,15,1,COLLAR,LB,m,m,./images/COLLARLB.png,,,,,,,,,,,,,,,,,,,,,,,,,,,,,,,,,,,
,,,,,,,,,,,,,,,,,5832fa8996ecce0001d65197,40,2022-02-12_18h02.14.807,lexical_decision_task_DD_L6,2021.2.3,Win32,20,,,,,,,,,,,1.3607,1,,,,,,,,,,,,,,m,1,1.3607,,,,,,,,0.425925926,-0.163888889,0,0,0,,0,122,122,63,1,BAKER,LB,m,m,./images/BAKERLB.png,,,,,,,,,,,,,,,,,,,,,,,,,,,,,,,,,,,
,,,,,,,,,,,,,,,,,5832fa8996ecce0001d65197,40,2022-02-12_18h02.14.807,lexical_decision_task_DD_L6,2021.2.3,Win32,20,,,,,,,,,,,0.9484,1,,,,,,,,,,,,,,z,1,0.9484,,,,,,,,0.425925926,-0.163888889,0,0,0,,0,123,123,89,1,DRIEK,LB,z,z,./images/DRIEKLB.png,,,,,,,,,,,,,,,,,,,,,,,,,,,,,,,,,,,
,,,,,,,,,,,,,,,,,5832fa8996ecce0001d65197,40,2022-02-12_18h02.14.807,lexical_decision_task_DD_L6,2021.2.3,Win32,20,,,,,,,,,,,1.0028,1,,,,,,,,,,,,,,m,1,1.0028,,,,,,,,0.425925926,-0.163888889,0,0,0,,0,124,124,46,1,MUMMY,C,m,m,./images/MUMMY.png,,,,,,,,,,,,,,,,,,,,,,,,,,,,,,,,,,,
,,,,,,,,,,,,,,,,,5832fa8996ecce0001d65197,40,2022-02-12_18h02.14.807,lexical_decision_task_DD_L6,2021.2.3,Win32,20,,,,,,,,,,,1.5618,1,,,,,,,,,,,,,,z,1,1.5618,,,,,,,,0.425925926,-0.163888889,0,0,0,space,0,125,125,150,1,NOOLS,C,z,z,./images/NOOLS.png,77.3014,,,,,,,,,,,,,,,,,,,,,,,,,,,,,,,,,,
,,,,,,,,,,,,,,,,,5832fa8996ecce0001d65197,40,2022-02-12_18h02.14.807,lexical_decision_task_DD_L6,2021.2.3,Win32,20,,,,,,,,,,,0.8111,1,,,,,,,,,,,,,,z,1,0.8111,,,,,,,,0.425925926,-0.163888889,0,0,0,,0,126,126,151,1,TINKY,HB,z,z,./images/TINKYHB.png,,,,,,,,,,,,,,,,,,,,,,,,,,,,,,,,,,,
,,,,,,,,,,,,,,,,,5832fa8996ecce0001d65197,40,2022-02-12_18h02.14.807,lexical_decision_task_DD_L6,2021.2.3,Win32,20,,,,,,,,,,,0.9138,1,,,,,,,,,,,,,,z,1,0.9138,,,,,,,,0.425925926,-0.163888889,0,0,0,,0,127,127,160,1,VEETS,HB,z,z,./images/VEETSHB.png,,,,,,,,,,,,,,,,,,,,,,,,,,,,,,,,,,,
,,,,,,,,,,,,,,,,,5832fa8996ecce0001d65197,40,2022-02-12_18h02.14.807,lexical_decision_task_DD_L6,2021.2.3,Win32,20,,,,,,,,,,,1.857,1,,,,,,,,,,,,,,z,1,1.857,,,,,,,,0.425925926,-0.163888889,0,0,0,,0,128,128,130,1,CRILL,HB,z,z,./images/CRILLHB.png,,,,,,,,,,,,,,,,,,,,,,,,,,,,,,,,,,,
,,,,,,,,,,,,,,,,,5832fa8996ecce0001d65197,40,2022-02-12_18h02.14.807,lexical_decision_task_DD_L6,2021.2.3,Win32,20,,,,,,,,,,,1.0569,1,,,,,,,,,,,,,,z,1,1.0569,,,,,,,,0.425925926,-0.163888889,0,0,0,,0,129,129,159,1,CUDDY,C,z,z,./images/CUDDY.png,,,,,,,,,,,,,,,,,,,,,,,,,,,,,,,,,,,
,,,,,,,,,,,,,,,,,5832fa8996ecce0001d65197,40,2022-02-12_18h02.14.807,lexical_decision_task_DD_L6,2021.2.3,Win32,20,,,,,,,,,,,0.8387,1,,,,,,,,,,,,,,m,1,0.8387,,,,,,,,0.425925926,-0.163888889,0,0,0,,0,130,130,73,1,GLOVE,C,m,m,./images/GLOVE.png,,,,,,,,,,,,,,,,,,,,,,,,,,,,,,,,,,,
,,,,,,,,,,,,,,,,,5832fa8996ecce0001d65197,40,2022-02-12_18h02.14.807,lexical_decision_task_DD_L6,2021.2.3,Win32,20,,,,,,,,,,,1.545,1,,,,,,,,,,,,,,m,1,1.545,,,,,,,,0.425925926,-0.163888889,0,0,0,,0,131,131,53,1,POSTER,HB,m,m,./images/POSTERHB.png,,,,,,,,,,,,,,,,,,,,,,,,,,,,,,,,,,,
,,,,,,,,,,,,,,,,,5832fa8996ecce0001d65197,40,2022-02-12_18h02.14.807,lexical_decision_task_DD_L6,2021.2.3,Win32,20,,,,,,,,,,,1.7627,1,,,,,,,,,,,,,,m,1,1.7627,,,,,,,,0.425925926,-0.163888889,0,0,0,,0,132,132,48,1,SHIELD,LB,m,m,./images/SHIELDLB.png,,,,,,,,,,,,,,,,,,,,,,,,,,,,,,,,,,,
,,,,,,,,,,,,,,,,,5832fa8996ecce0001d65197,40,2022-02-12_18h02.14.807,lexical_decision_task_DD_L6,2021.2.3,Win32,20,,,,,,,,,,,1.3252,1,,,,,,,,,,,,,,m,1,1.3252,,,,,,,,0.425925926,-0.163888889,0,0,0,,0,133,133,44,1,BASKET,HB,m,m,./images/BASKETHB.png,,,,,,,,,,,,,,,,,,,,,,,,,,,,,,,,,,,
,,,,,,,,,,,,,,,,,5832fa8996ecce0001d65197,40,2022-02-12_18h02.14.807,lexical_decision_task_DD_L6,2021.2.3,Win32,20,,,,,,,,,,,2.3212,1,,,,,,,,,,,,,,z,1,2.3212,,,,,,,,0.425925926,-0.163888889,0,0,0,,0,134,134,144,1,NAIRY,C,z,z,./images/NAIRY.png,,,,,,,,,,,,,,,,,,,,,,,,,,,,,,,,,,,
,,,,,,,,,,,,,,,,,5832fa8996ecce0001d65197,40,2022-02-12_18h02.14.807,lexical_decision_task_DD_L6,2021.2.3,Win32,20,,,,,,,,,,,1.908,1,,,,,,,,,,,,,,m,1,1.908,,,,,,,,0.425925926,-0.163888889,0,0,0,,0,135,135,29,1,PISTOL,HB,m,m,./images/PISTOLHB.png,,,,,,,,,,,,,,,,,,,,,,,,,,,,,,,,,,,
,,,,,,,,,,,,,,,,,5832fa8996ecce0001d65197,40,2022-02-12_18h02.14.807,lexical_decision_task_DD_L6,2021.2.3,Win32,20,,,,,,,,,,,1.7263,1,,,,,,,,,,,,,,m,1,1.7263,,,,,,,,0.425925926,-0.163888889,0,0,0,,0,136,136,37,1,TIGER,C,m,m,./images/TIGER.png,,,,,,,,,,,,,,,,,,,,,,,,,,,,,,,,,,,
,,,,,,,,,,,,,,,,,5832fa8996ecce0001d65197,40,2022-02-12_18h02.14.807,lexical_decision_task_DD_L6,2021.2.3,Win32,20,,,,,,,,,,,1.4532,1,,,,,,,,,,,,,,z,1,1.4532,,,,,,,,0.425925926,-0.163888889,0,0,0,,0,137,137,123,1,SEDGE,C,z,z,./images/SEDGE.png,,,,,,,,,,,,,,,,,,,,,,,,,,,,,,,,,,,
,,,,,,,,,,,,,,,,,5832fa8996ecce0001d65197,40,2022-02-12_18h02.14.807,lexical_decision_task_DD_L6,2021.2.3,Win32,20,,,,,,,,,,,1.4702,1,,,,,,,,,,,,,,z,1,1.4702,,,,,,,,0.425925926,-0.163888889,0,0,0,,0,138,138,106,1,CLUMS,HB,z,z,./images/CLUMSHB.png,,,,,,,,,,,,,,,,,,,,,,,,,,,,,,,,,,,
,,,,,,,,,,,,,,,,,5832fa8996ecce0001d65197,40,2022-02-12_18h02.14.807,lexical_decision_task_DD_L6,2021.2.3,Win32,20,,,,,,,,,,,1.6398,1,,,,,,,,,,,,,,m,1,1.6398,,,,,,,,0.425925926,-0.163888889,0,0,0,,0,139,139,47,1,LAGOON,HB,m,m,./images/LAGOONHB.png,,,,,,,,,,,,,,,,,,,,,,,,,,,,,,,,,,,
,,,,,,,,,,,,,,,,,5832fa8996ecce0001d65197,40,2022-02-12_18h02.14.807,lexical_decision_task_DD_L6,2021.2.3,Win32,20,,,,,,,,,,,1.6382,1,,,,,,,,,,,,,,z,1,1.6382,,,,,,,,0.425925926,-0.163888889,0,0,0,,0,140,140,124,1,TUNCH,HB,z,z,./images/TUNCHHB.png,,,,,,,,,,,,,,,,,,,,,,,,,,,,,,,,,,,
,,,,,,,,,,,,,,,,,5832fa8996ecce0001d65197,40,2022-02-12_18h02.14.807,lexical_decision_task_DD_L6,2021.2.3,Win32,20,,,,,,,,,,,1.1626,1,,,,,,,,,,,,,,z,1,1.1626,,,,,,,,0.425925926,-0.163888889,0,0,0,,0,141,141,120,1,RINED,C,z,z,./images/RINED.png,,,,,,,,,,,,,,,,,,,,,,,,,,,,,,,,,,,
,,,,,,,,,,,,,,,,,5832fa8996ecce0001d65197,40,2022-02-12_18h02.14.807,lexical_decision_task_DD_L6,2021.2.3,Win32,20,,,,,,,,,,,1.1427,1,,,,,,,,,,,,,,z,1,1.1427,,,,,,,,0.425925926,-0.163888889,0,0,0,,0,142,142,98,1,BAMPS,LB,z,z,./images/BAMPSLB.png,,,,,,,,,,,,,,,,,,,,,,,,,,,,,,,,,,,
,,,,,,,,,,,,,,,,,5832fa8996ecce0001d65197,40,2022-02-12_18h02.14.807,lexical_decision_task_DD_L6,2021.2.3,Win32,20,,,,,,,,,,,1.4379,1,,,,,,,,,,,,,,z,1,1.4379,,,,,,,,0.425925926,-0.163888889,0,0,0,,0,143,143,110,1,CRUNK,LB,z,z,./images/CRUNKLB.png,,,,,,,,,,,,,,,,,,,,,,,,,,,,,,,,,,,
,,,,,,,,,,,,,,,,,5832fa8996ecce0001d65197,40,2022-02-12_18h02.14.807,lexical_decision_task_DD_L6,2021.2.3,Win32,20,,,,,,,,,,,1.6007,1,,,,,,,,,,,,,,m,1,1.6007,,,,,,,,0.425925926,-0.163888889,0,0,0,,0,144,144,83,1,WHISKY,HB,m,m,./images/WHISKYHB.png,,,,,,,,,,,,,,,,,,,,,,,,,,,,,,,,,,,
,,,,,,,,,,,,,,,,,5832fa8996ecce0001d65197,40,2022-02-12_18h02.14.807,lexical_decision_task_DD_L6,2021.2.3,Win32,20,,,,,,,,,,,1.0628,1,,,,,,,,,,,,,,m,1,1.0628,,,,,,,,0.425925926,-0.163888889,0,0,0,,0,145,145,52,1,DESERT,C,m,m,./images/DESERT.png,,,,,,,,,,,,,,,,,,,,,,,,,,,,,,,,,,,
,,,,,,,,,,,,,,,,,5832fa8996ecce0001d65197,40,2022-02-12_18h02.14.807,lexical_decision_task_DD_L6,2021.2.3,Win32,20,,,,,,,,,,,1.2257,1,,,,,,,,,,,,,,z,1,1.2257,,,,,,,,0.425925926,-0.163888889,0,0,0,,0,146,146,146,1,MOOST,LB,z,z,./images/MOOSTLB.png,,,,,,,,,,,,,,,,,,,,,,,,,,,,,,,,,,,
,,,,,,,,,,,,,,,,,5832fa8996ecce0001d65197,40,2022-02-12_18h02.14.807,lexical_decision_task_DD_L6,2021.2.3,Win32,20,,,,,,,,,,,2.5381,1,,,,,,,,,,,,,,m,1,2.5381,,,,,,,,0.425925926,-0.163888889,0,0,0,,0,147,147,77,1,WHEEL,HB,m,m,./images/WHEELHB.png,,,,,,,,,,,,,,,,,,,,,,,,,,,,,,,,,,,
,,,,,,,,,,,,,,,,,5832fa8996ecce0001d65197,40,2022-02-12_18h02.14.807,lexical_decision_task_DD_L6,2021.2.3,Win32,20,,,,,,,,,,,1.5685,1,,,,,,,,,,,,,,z,1,1.5685,,,,,,,,0.425925926,-0.163888889,0,0,0,,0,148,148,104,1,GITTY,LB,z,z,./images/GITTYLB.png,,,,,,,,,,,,,,,,,,,,,,,,,,,,,,,,,,,
,,,,,,,,,,,,,,,,,5832fa8996ecce0001d65197,40,2022-02-12_18h02.14.807,lexical_decision_task_DD_L6,2021.2.3,Win32,20,,,,,,,,,,,1.1452,1,,,,,,,,,,,,,,m,1,1.1452,,,,,,,,0.425925926,-0.163888889,0,0,0,,0,149,149,69,1,ARROW,LB,m,m,./images/ARROWLB.png,,,,,,,,,,,,,,,,,,,,,,,,,,,,,,,,,,,
,,,,,,,,,,,,,,,,,5832fa8996ecce0001d65197,40,2022-02-12_18h02.14.807,lexical_decision_task_DD_L6,2021.2.3,Win32,20,,,,,,,,,,,1.0601,1,,,,,,,,,,,,,,m,1,1.0601,,,,,,,,0.425925926,-0.163888889,0,0,0,,0,150,150,71,1,BUBBLE,HB,m,m,./images/BUBBLEHB.png,,,,,,,,,,,,,,,,,,,,,,,,,,,,,,,,,,,
,,,,,,,,,,,,,,,,,5832fa8996ecce0001d65197,40,2022-02-12_18h02.14.807,lexical_decision_task_DD_L6,2021.2.3,Win32,20,,,,,,,,,,,1.3145,1,,,,,,,,,,,,,,m,1,1.3145,,,,,,,,0.425925926,-0.163888889,0,0,0,,0,151,151,1,1,TOWEL,C,m,m,./images/TOWEL.png,,,,,,,,,,,,,,,,,,,,,,,,,,,,,,,,,,,
,,,,,,,,,,,,,,,,,5832fa8996ecce0001d65197,40,2022-02-12_18h02.14.807,lexical_decision_task_DD_L6,2021.2.3,Win32,20,,,,,,,,,,,1.1531,1,,,,,,,,,,,,,,m,1,1.1531,,,,,,,,0.425925926,-0.163888889,0,0,0,,0,152,152,21,1,DANCER,LB,m,m,./images/DANCERLB.png,,,,,,,,,,,,,,,,,,,,,,,,,,,,,,,,,,,
,,,,,,,,,,,,,,,,,5832fa8996ecce0001d65197,40,2022-02-12_18h02.14.807,lexical_decision_task_DD_L6,2021.2.3,Win32,20,,,,,,,,,,,1.1545,1,,,,,,,,,,,,,,z,1,1.1545,,,,,,,,0.425925926,-0.163888889,0,0,0,,0,153,153,96,1,KEAMS,C,z,z,./images/KEAMS.png,,,,,,,,,,,,,,,,,,,,,,,,,,,,,,,,,,,
,,,,,,,,,,,,,,,,,5832fa8996ecce0001d65197,40,2022-02-12_18h02.14.807,lexical_decision_task_DD_L6,2021.2.3,Win32,20,,,,,,,,,,,1.1573,1,,,,,,,,,,,,,,m,1,1.1573,,,,,,,,0.425925926,-0.163888889,0,0,0,,0,154,154,9,1,DIVER,LB,m,m,./images/DIVERLB.png,,,,,,,,,,,,,,,,,,,,,,,,,,,,,,,,,,,
,,,,,,,,,,,,,,,,,5832fa8996ecce0001d65197,40,2022-02-12_18h02.14.807,lexical_decision_task_DD_L6,2021.2.3,Win32,20,,,,,,,,,,,1.5749,1,,,,,,,,,,,,,,m,1,1.5749,,,,,,,,0.425925926,-0.163888889,0,0,0,,0,155,155,58,1,CANOE,C,m,m,./images/CANOE.png,,,,,,,,,,,,,,,,,,,,,,,,,,,,,,,,,,,
,,,,,,,,,,,,,,,,,5832fa8996ecce0001d65197,40,2022-02-12_18h02.14.807,lexical_decision_task_DD_L6,2021.2.3,Win32,20,,,,,,,,,,,1.6873,1,,,,,,,,,,,,,,z,1,1.6873,,,,,,,,0.425925926,-0.163888889,0,0,0,,0,156,156,121,1,CEERS,HB,z,z,./images/CEERSHB.png,,,,,,,,,,,,,,,,,,,,,,,,,,,,,,,,,,,
,,,,,,,,,,,,,,,,,5832fa8996ecce0001d65197,40,2022-02-12_18h02.14.807,lexical_decision_task_DD_L6,2021.2.3,Win32,20,,,,,,,,,,,1.3244,1,,,,,,,,,,,,,,m,1,1.3244,,,,,,,,0.425925926,-0.163888889,0,0,0,,0,157,157,43,1,STOOL,C,m,m,./images/STOOL.png,,,,,,,,,,,,,,,,,,,,,,,,,,,,,,,,,,,
,,,,,,,,,,,,,,,,,5832fa8996ecce0001d65197,40,2022-02-12_18h02.14.807,lexical_decision_task_DD_L6,2021.2.3,Win32,20,,,,,,,,,,,1.5097,1,,,,,,,,,,,,,,m,1,1.5097,,,,,,,,0.425925926,-0.163888889,0,0,0,,0,158,158,45,1,MONKEY,LB,m,m,./images/MONKEYLB.png,,,,,,,,,,,,,,,,,,,,,,,,,,,,,,,,,,,
,,,,,,,,,,,,,,,,,5832fa8996ecce0001d65197,40,2022-02-12_18h02.14.807,lexical_decision_task_DD_L6,2021.2.3,Win32,20,,,,,,,,,,,1.3238,1,,,,,,,,,,,,,,m,1,1.3238,,,,,,,,0.425925926,-0.163888889,0,0,0,,0,159,159,27,1,BUTTER,LB,m,m,./images/BUTTERLB.png,,,,,,,,,,,,,,,,,,,,,,,,,,,,,,,,,,,
,,,,,,,,,,,,,,,,,5832fa8996ecce0001d65197,40,2022-02-12_18h02.14.807,lexical_decision_task_DD_L6,2021.2.3,Win32,20,,,,,,,,,,,1.4305,0,,,,,,,,,,,,,,m,0,1.4305,,,,,,,,0.425925926,-0.163888889,0,0,0,,0,160,160,128,1,GRIFT,LB,z,z,./images/GRIFTLB.png,,,,,,,,,,,,,,,,,,,,,,,,,,,,,,,,,,,
,,,,,,,,,,,,,,,,,5832fa8996ecce0001d65197,40,2022-02-12_18h02.14.807,lexical_decision_task_DD_L6,2021.2.3,Win32,20,,,,,,,,,,,2.0719,1,,,,,,,,,,,,,,m,1,2.0719,,,,,,,,0.425925926,-0.163888889,0,0,0,,0,161,161,41,1,STREAM,HB,m,m,./images/STREAMHB.png,,,,,,,,,,,,,,,,,,,,,,,,,,,,,,,,,,,
,,,,,,,,,,,,,,,,,5832fa8996ecce0001d65197,40,2022-02-12_18h02.14.807,lexical_decision_task_DD_L6,2021.2.3,Win32,20,,,,,,,,,,,2.3755,1,,,,,,,,,,,,,,z,1,2.3755,,,,,,,,0.425925926,-0.163888889,0,0,0,,0,162,162,166,1,SHORY,HB,z,z,./images/SHORYHB.png,,,,,,,,,,,,,,,,,,,,,,,,,,,,,,,,,,,
,,,,,,,,,,,,,,,,,5832fa8996ecce0001d65197,40,2022-02-12_18h02.14.807,lexical_decision_task_DD_L6,2021.2.3,Win32,20,,,,,,,,,,,2.3667,0,,,,,,,,,,,,,,m,0,2.3667,,,,,,,,0.425925926,-0.163888889,0,0,0,,0,163,163,139,1,BLEAR,HB,z,z,./images/BLEARHB.png,,,,,,,,,,,,,,,,,,,,,,,,,,,,,,,,,,,
,,,,,,,,,,,,,,,,,5832fa8996ecce0001d65197,40,2022-02-12_18h02.14.807,lexical_decision_task_DD_L6,2021.2.3,Win32,20,,,,,,,,,,,1.2356,1,,,,,,,,,,,,,,z,1,1.2356,,,,,,,,0.425925926,-0.163888889,0,0,0,,0,164,164,105,1,MOKER,C,z,z,./images/MOKER.png,,,,,,,,,,,,,,,,,,,,,,,,,,,,,,,,,,,
,,,,,,,,,,,,,,,,,5832fa8996ecce0001d65197,40,2022-02-12_18h02.14.807,lexical_decision_task_DD_L6,2021.2.3,Win32,20,,,,,,,,,,,2.6337,1,,,,,,,,,,,,,,z,1,2.6337,,,,,,,,0.425925926,-0.163888889,0,0,0,,0,165,165,93,1,SMONE,C,z,z,./images/SMONE.png,,,,,,,,,,,,,,,,,,,,,,,,,,,,,,,,,,,
,,,,,,,,,,,,,,,,,5832fa8996ecce0001d65197,40,2022-02-12_18h02.14.807,lexical_decision_task_DD_L6,2021.2.3,Win32,20,,,,,,,,,,,2.9783,0,,,,,,,,,,,,,,z,0,2.9783,,,,,,,,0.425925926,-0.163888889,0,0,0,,0,166,166,40,1,SNAKE,C,m,m,./images/SNAKE.png,,,,,,,,,,,,,,,,,,,,,,,,,,,,,,,,,,,
,,,,,,,,,,,,,,,,,5832fa8996ecce0001d65197,40,2022-02-12_18h02.14.807,lexical_decision_task_DD_L6,2021.2.3,Win32,20,,,,,,,,,,,2.2428,1,,,,,,,,,,,,,,m,1,2.2428,,,,,,,,0.425925926,-0.163888889,0,0,0,,0,167,167,60,1,CURRY,LB,m,m,./images/CURRYLB.png,,,,,,,,,,,,,,,,,,,,,,,,,,,,,,,,,,,
,,,,,,,,,,,,,,,,,5832fa8996ecce0001d65197,40,2022-02-12_18h02.14.807,lexical_decision_task_DD_L6,2021.2.3,Win32,20,,,,,,,,,,,,,,,,,,,,,,,,,,,,,,,,,,,,,,,,,,,,,,,,How likely will it be that you will recognize the words presented slighly blurred on a scale of 0 (not likely) to 100 (most likely)?,,,,,0.025,-0.434259259,1,0,0,jol_adv,5,7.4842,0,0,0,1,1,,,,,,,,,,,,,,,,,,,,,
,,,,,,,,,,,,,,,,,5832fa8996ecce0001d65197,40,2022-02-12_18h02.14.807,lexical_decision_task_DD_L6,2021.2.3,Win32,20,,,,,,,,,,,,,,,,,,,,,,,,,,,,,,,,,,,,,,,,,,,,,,,,How likely will it be that you will recognize the words presented very blurred on a scale of 0 (not likely) to 100 (most likely)?,,,,,,,,,,,2,5.4947,0,1,1,2,1,,,,,,,,,,,,,,,,,,,,,
,,,,,,,,,,,,,,,,,5832fa8996ecce0001d65197,40,2022-02-12_18h02.14.807,lexical_decision_task_DD_L6,2021.2.3,Win32,20,,,,,,,,,,,,,,,,,,,,,,,,,,,,,,,,,,,,,,,,,,,,,,,,How likely will it be that you will recognize the words presented clearly on a scale of 0 (not likely) to 100 (most likely)?,,,,,,,,,,,6,2.5346,0,2,2,0,1,,,,,,,,,,,,,,,,,,,,,
space,13.7188,0.456481481,-0.372222222,0,0,0,,,,,,1,test,"In the next phase you will be presented with the words from the the first phase. Your job is to decide whether you remember seeing the word or not. If you remember seeing the word press ""old"" or type ""m"". If you do not remember seeing the word press ""new"" or type ""z"". Please press the space bar or click on continue to begin. ",,,5832fa8996ecce0001d65197,40,2022-02-12_18h02.14.807,lexical_decision_task_DD_L6,2021.2.3,Win32,20,,,,,,,,,,,,,,,,,,,,,,,,,,,,,,,,,,,,,,,,,,,,,,,,,,,,,,,,,,,,,,,,,,0,0,0,0,1,,,,,,,,,,,,,,,,
space,3.4068,0.456481481,-0.372222222,0,0,0,,,,,,1,test,"In the next phase you will be presented with the words from the the first phase. Your job is to decide whether you remember seeing the word or not. If you remember seeing the word press ""old"" or type ""m"". If you do not remember seeing the word press ""new"" or type ""z"". Please press the space bar or click on continue to begin. ",,,5832fa8996ecce0001d65197,40,2022-02-12_18h02.14.807,lexical_decision_task_DD_L6,2021.2.3,Win32,20,,,,,,,,,,,,,,,,,,,,,,,,,,,,,,,,,,,,,,,,,,,,,,,,,,,,,,,,,,,,,,,,,,1,0,1,0,1,,,,,,,,,,,,,,,,
,,0.125,-0.37037037,1,0,0,,,,,,1,test,"In the next phase you will be presented with the words from the the first phase. Your job is to decide whether you remember seeing the word or not. If you remember seeing the word press ""old"" or type ""m"". If you do not remember seeing the word press ""new"" or type ""z"". Please press the space bar or click on continue to begin. ",,,5832fa8996ecce0001d65197,40,2022-02-12_18h02.14.807,lexical_decision_task_DD_L6,2021.2.3,Win32,20,,,,,,,,,,,,,,,,,,,,,,,,,,,,,,,,,,,,,,,,,,,,,,,,,,,,,,,,,,,,,,,,,,2,0,2,0,1,instr_done_button,,,,,,,,,,,,,,,
,,-0.037962963,-0.410185185,1,0,0,,,,,,1,test,"In the next phase you will be presented with the words from the the first phase. Your job is to decide whether you remember seeing the word or not. If you remember seeing the word press ""old"" or type ""m"". If you do not remember seeing the word press ""new"" or type ""z"". Please press the space bar or click on continue to begin. ",,,5832fa8996ecce0001d65197,40,2022-02-12_18h02.14.807,lexical_decision_task_DD_L6,2021.2.3,Win32,20,,,,,,,,,,,,,,,,,,,,,,,,,,,,,,,,,,,,,,,,,,,,,,,,,,,,,,,,,,,,,,,,,,3,0,3,0,1,instr_done_button,,,,,,,,,,,,,,,
space,5.8573,0.299074074,-0.183333333,0,0,0,,,,,,1,test,"In the next phase you will be presented with the words from the the first phase. Your job is to decide whether you remember seeing the word or not. If you remember seeing the word press ""old"" or type ""m"". If you do not remember seeing the word press ""new"" or type ""z"". Please press the space bar or click on continue to begin. ",,,5832fa8996ecce0001d65197,40,2022-02-12_18h02.14.807,lexical_decision_task_DD_L6,2021.2.3,Win32,20,,,,,,,,,,,,,,,,,,,,,,,,,,,,,,,,,,,,,,,,,,,,,,,,,,,,,,,,,,,,,,,,,,4,0,4,0,1,,,,,,,,,,,,,,,,
,,,,,,,,,,,,,,,,,5832fa8996ecce0001d65197,40,2022-02-12_18h02.14.807,lexical_decision_task_DD_L6,2021.2.3,Win32,20,,,,,,,,,,,2.0059,1,,,,,,,,,,,,,,,,,,,,,,,,0.299074074,-0.183333333,0,0,0,,,,,,,PACKET,HB,z,y,./images/PACKETHB.png,,,,,,,,,,,,,,,,,,,,,z,1,2.0059,,,,,,,,0,0,0,140,1
,,,,,,,,,,,,,,,,,5832fa8996ecce0001d65197,40,2022-02-12_18h02.14.807,lexical_decision_task_DD_L6,2021.2.3,Win32,20,,,,,,,,,,,1.5927,0,,,,,,,,,,,,,,,,,,,,,,,,0.299074074,-0.183333333,0,0,0,,,,,,,POODLE,LB,z,y,./images/POODLELB.png,,,,,,,,,,,,,,,,,,,,,m,0,1.5927,,,,,,,,0,1,1,165,1
,,,,,,,,,,,,,,,,,5832fa8996ecce0001d65197,40,2022-02-12_18h02.14.807,lexical_decision_task_DD_L6,2021.2.3,Win32,20,,,,,,,,,,,1.2218,0,,,,,,,,,,,,,,,,,,,,,,,,0.299074074,-0.183333333,0,0,0,,,,,,,SWING,C,z,y,./images/SWING.png,,,,,,,,,,,,,,,,,,,,,m,0,1.2218,,,,,,,,0,2,2,124,1
,,,,,,,,,,,,,,,,,5832fa8996ecce0001d65197,40,2022-02-12_18h02.14.807,lexical_decision_task_DD_L6,2021.2.3,Win32,20,,,,,,,,,,,1.1125,1,,,,,,,,,,,,,,,,,,,,,,,,0.299074074,-0.183333333,0,0,0,,,,,,,FOLDER,LB,z,y,./images/FOLDERLB.png,,,,,,,,,,,,,,,,,,,,,z,1,1.1125,,,,,,,,0,3,3,126,1
,,,,,,,,,,,,,,,,,5832fa8996ecce0001d65197,40,2022-02-12_18h02.14.807,lexical_decision_task_DD_L6,2021.2.3,Win32,20,,,,,,,,,,,0.7475,1,,,,,,,,,,,,,,,,,,,,,,,,0.299074074,-0.183333333,0,0,0,,,,,,,BISHOP,C,m,y,./images/BISHOP.png,,,,,,,,,,,,,,,,,,,,,m,1,0.7475,,,,,,,,0,4,4,49,1
,,,,,,,,,,,,,,,,,5832fa8996ecce0001d65197,40,2022-02-12_18h02.14.807,lexical_decision_task_DD_L6,2021.2.3,Win32,20,,,,,,,,,,,1.2946,1,,,,,,,,,,,,,,,,,,,,,,,,0.299074074,-0.183333333,0,0,0,,,,,,,FALCON,C,z,y,./images/FALCON.png,,,,,,,,,,,,,,,,,,,,,z,1,1.2946,,,,,,,,0,5,5,112,1
,,,,,,,,,,,,,,,,,5832fa8996ecce0001d65197,40,2022-02-12_18h02.14.807,lexical_decision_task_DD_L6,2021.2.3,Win32,20,,,,,,,,,,,1.1161,1,,,,,,,,,,,,,,,,,,,,,,,,0.299074074,-0.183333333,0,0,0,,,,,,,LAGOON,HB,m,y,./images/LAGOONHB.png,,,,,,,,,,,,,,,,,,,,,m,1,1.1161,,,,,,,,0,6,6,47,1
,,,,,,,,,,,,,,,,,5832fa8996ecce0001d65197,40,2022-02-12_18h02.14.807,lexical_decision_task_DD_L6,2021.2.3,Win32,20,,,,,,,,,,,1.6474,1,,,,,,,,,,,,,,,,,,,,,,,,0.299074074,-0.183333333,0,0,0,,,,,,,HEATER,HB,m,y,./images/HEATERHB.png,,,,,,,,,,,,,,,,,,,,,m,1,1.6474,,,,,,,,0,7,7,56,1
,,,,,,,,,,,,,,,,,5832fa8996ecce0001d65197,40,2022-02-12_18h02.14.807,lexical_decision_task_DD_L6,2021.2.3,Win32,20,,,,,,,,,,,1.2838,1,,,,,,,,,,,,,,,,,,,,,,,,0.299074074,-0.183333333,0,0,0,,,,,,,HAMMER,LB,m,y,./images/HAMMERLB.png,,,,,,,,,,,,,,,,,,,,,m,1,1.2838,,,,,,,,0,8,8,75,1
,,,,,,,,,,,,,,,,,5832fa8996ecce0001d65197,40,2022-02-12_18h02.14.807,lexical_decision_task_DD_L6,2021.2.3,Win32,20,,,,,,,,,,,1.4378,0,,,,,,,,,,,,,,,,,,,,,,,,0.299074074,-0.183333333,0,0,0,,,,,,,FENCE,HB,m,y,./images/FENCEHB.png,,,,,,,,,,,,,,,,,,,,,z,0,1.4378,,,,,,,,0,9,9,14,1
,,,,,,,,,,,,,,,,,5832fa8996ecce0001d65197,40,2022-02-12_18h02.14.807,lexical_decision_task_DD_L6,2021.2.3,Win32,20,,,,,,,,,,,2.1529,1,,,,,,,,,,,,,,,,,,,,,,,,0.299074074,-0.183333333,0,0,0,,,,,,,LITTER,LB,z,y,./images/LITTERLB.png,,,,,,,,,,,,,,,,,,,,,z,1,2.1529,,,,,,,,0,10,10,162,1
,,,,,,,,,,,,,,,,,5832fa8996ecce0001d65197,40,2022-02-12_18h02.14.807,lexical_decision_task_DD_L6,2021.2.3,Win32,20,,,,,,,,,,,1.7916,1,,,,,,,,,,,,,,,,,,,,,,,,0.299074074,-0.183333333,0,0,0,,,,,,,RULER,C,m,y,./images/RULER.png,,,,,,,,,,,,,,,,,,,,,m,1,1.7916,,,,,,,,0,11,11,79,1
,,,,,,,,,,,,,,,,,5832fa8996ecce0001d65197,40,2022-02-12_18h02.14.807,lexical_decision_task_DD_L6,2021.2.3,Win32,20,,,,,,,,,,,1.5937,1,,,,,,,,,,,,,,,,,,,,,,,,0.299074074,-0.183333333,0,0,0,,,,,,,DOUGH,C,z,y,./images/DOUGH.png,,,,,,,,,,,,,,,,,,,,,z,1,1.5937,,,,,,,,0,12,12,103,1
,,,,,,,,,,,,,,,,,5832fa8996ecce0001d65197,40,2022-02-12_18h02.14.807,lexical_decision_task_DD_L6,2021.2.3,Win32,20,,,,,,,,,,,1.0666,0,,,,,,,,,,,,,,,,,,,,,,,,0.299074074,-0.183333333,0,0,0,,,,,,,SCREW,LB,z,y,./images/SCREWLB.png,,,,,,,,,,,,,,,,,,,,,m,0,1.0666,,,,,,,,0,13,13,108,1
,,,,,,,,,,,,,,,,,5832fa8996ecce0001d65197,40,2022-02-12_18h02.14.807,lexical_decision_task_DD_L6,2021.2.3,Win32,20,,,,,,,,,,,1.4271,0,,,,,,,,,,,,,,,,,,,,,,,,0.299074074,-0.183333333,0,0,0,,,,,,,PEARL,C,z,y,./images/PEARL.png,,,,,,,,,,,,,,,,,,,,,m,0,1.4271,,,,,,,,0,14,14,130,1
,,,,,,,,,,,,,,,,,5832fa8996ecce0001d65197,40,2022-02-12_18h02.14.807,lexical_decision_task_DD_L6,2021.2.3,Win32,20,,,,,,,,,,,1.2227,1,,,,,,,,,,,,,,,,,,,,,,,,0.299074074,-0.183333333,0,0,0,,,,,,,CHERRY,LB,m,y,./images/CHERRYLB.png,,,,,,,,,,,,,,,,,,,,,m,1,1.2227,,,,,,,,0,15,15,54,1
,,,,,,,,,,,,,,,,,5832fa8996ecce0001d65197,40,2022-02-12_18h02.14.807,lexical_decision_task_DD_L6,2021.2.3,Win32,20,,,,,,,,,,,1.5387,0,,,,,,,,,,,,,,,,,,,,,,,,0.299074074,-0.183333333,0,0,0,,,,,,,CARPET,HB,z,y,./images/CARPETHB.png,,,,,,,,,,,,,,,,,,,,,m,0,1.5387,,,,,,,,0,16,16,137,1
,,,,,,,,,,,,,,,,,5832fa8996ecce0001d65197,40,2022-02-12_18h02.14.807,lexical_decision_task_DD_L6,2021.2.3,Win32,20,,,,,,,,,,,0.9523,1,,,,,,,,,,,,,,,,,,,,,,,,0.299074074,-0.183333333,0,0,0,,,,,,,MOSQUE,C,z,y,./images/MOSQUE.png,,,,,,,,,,,,,,,,,,,,,z,1,0.9523,,,,,,,,0,17,17,127,1
,,,,,,,,,,,,,,,,,5832fa8996ecce0001d65197,40,2022-02-12_18h02.14.807,lexical_decision_task_DD_L6,2021.2.3,Win32,20,,,,,,,,,,,1.1934,1,,,,,,,,,,,,,,,,,,,,,,,,0.299074074,-0.183333333,0,0,0,,,,,,,PENCE,C,z,y,./images/PENCE.png,,,,,,,,,,,,,,,,,,,,,z,1,1.1934,,,,,,,,0,18,18,100,1
,,,,,,,,,,,,,,,,,5832fa8996ecce0001d65197,40,2022-02-12_18h02.14.807,lexical_decision_task_DD_L6,2021.2.3,Win32,20,,,,,,,,,,,1.0449,1,,,,,,,,,,,,,,,,,,,,,,,,0.299074074,-0.183333333,0,0,0,,,,,,,TOMATO,LB,z,y,./images/TOMATOLB.png,,,,,,,,,,,,,,,,,,,,,z,1,1.0449,,,,,,,,0,19,19,84,1
,,,,,,,,,,,,,,,,,5832fa8996ecce0001d65197,40,2022-02-12_18h02.14.807,lexical_decision_task_DD_L6,2021.2.3,Win32,20,,,,,,,,,,,0.9265,1,,,,,,,,,,,,,,,,,,,,,,,,0.299074074,-0.183333333,0,0,0,,,,,,,ENGINE,HB,m,y,./images/ENGINEHB.png,,,,,,,,,,,,,,,,,,,,,m,1,0.9265,,,,,,,,0,20,20,38,1
,,,,,,,,,,,,,,,,,5832fa8996ecce0001d65197,40,2022-02-12_18h02.14.807,lexical_decision_task_DD_L6,2021.2.3,Win32,20,,,,,,,,,,,1.5267,1,,,,,,,,,,,,,,,,,,,,,,,,0.299074074,-0.183333333,0,0,0,,,,,,,CRUMB,HB,z,y,./images/CRUMBHB.png,,,,,,,,,,,,,,,,,,,,,z,1,1.5267,,,,,,,,0,21,21,113,1
,,,,,,,,,,,,,,,,,5832fa8996ecce0001d65197,40,2022-02-12_18h02.14.807,lexical_decision_task_DD_L6,2021.2.3,Win32,20,,,,,,,,,,,0.8929,1,,,,,,,,,,,,,,,,,,,,,,,,0.299074074,-0.183333333,0,0,0,,,,,,,CLOUD,HB,m,y,./images/CLOUDHB.png,,,,,,,,,,,,,,,,,,,,,m,1,0.8929,,,,,,,,0,22,22,26,1
,,,,,,,,,,,,,,,,,5832fa8996ecce0001d65197,40,2022-02-12_18h02.14.807,lexical_decision_task_DD_L6,2021.2.3,Win32,20,,,,,,,,,,,0.8794,0,,,,,,,,,,,,,,,,,,,,,,,,0.299074074,-0.183333333,0,0,0,,,,,,,VALLEY,HB,m,y,./images/VALLEYHB.png,,,,,,,,,,,,,,,,,,,,,z,0,0.8794,,,,,,,,0,23,23,68,1
,,,,,,,,,,,,,,,,,5832fa8996ecce0001d65197,40,2022-02-12_18h02.14.807,lexical_decision_task_DD_L6,2021.2.3,Win32,20,,,,,,,,,,,1.0692,1,,,,,,,,,,,,,,,,,,,,,,,,0.299074074,-0.183333333,0,0,0,,,,,,,BONNET,HB,z,y,./images/BONNETHB.png,,,,,,,,,,,,,,,,,,,,,z,1,1.0692,,,,,,,,0,24,24,95,1
,,,,,,,,,,,,,,,,,5832fa8996ecce0001d65197,40,2022-02-12_18h02.14.807,lexical_decision_task_DD_L6,2021.2.3,Win32,20,,,,,,,,,,,0.9847,1,,,,,,,,,,,,,,,,,,,,,,,,0.299074074,-0.183333333,0,0,0,,,,,,,PARADE,HB,m,y,./images/PARADEHB.png,,,,,,,,,,,,,,,,,,,,,m,1,0.9847,,,,,,,,0,25,25,17,1
,,,,,,,,,,,,,,,,,5832fa8996ecce0001d65197,40,2022-02-12_18h02.14.807,lexical_decision_task_DD_L6,2021.2.3,Win32,20,,,,,,,,,,,1.1015,1,,,,,,,,,,,,,,,,,,,,,,,,0.299074074,-0.183333333,0,0,0,,,,,,,BAKER,LB,m,y,./images/BAKERLB.png,,,,,,,,,,,,,,,,,,,,,m,1,1.1015,,,,,,,,0,26,26,63,1
,,,,,,,,,,,,,,,,,5832fa8996ecce0001d65197,40,2022-02-12_18h02.14.807,lexical_decision_task_DD_L6,2021.2.3,Win32,20,,,,,,,,,,,1.1717,1,,,,,,,,,,,,,,,,,,,,,,,,0.299074074,-0.183333333,0,0,0,,,,,,,LIZARD,HB,z,y,./images/LIZARDHB.png,,,,,,,,,,,,,,,,,,,,,z,1,1.1717,,,,,,,,0,27,27,128,1
,,,,,,,,,,,,,,,,,5832fa8996ecce0001d65197,40,2022-02-12_18h02.14.807,lexical_decision_task_DD_L6,2021.2.3,Win32,20,,,,,,,,,,,1.6203,1,,,,,,,,,,,,,,,,,,,,,,,,0.299074074,-0.183333333,0,0,0,,,,,,,BUNNY,C,m,y,./images/BUNNY.png,,,,,,,,,,,,,,,,,,,,,m,1,1.6203,,,,,,,,0,28,28,13,1
,,,,,,,,,,,,,,,,,5832fa8996ecce0001d65197,40,2022-02-12_18h02.14.807,lexical_decision_task_DD_L6,2021.2.3,Win32,20,,,,,,,,,,,1.3753,0,,,,,,,,,,,,,,,,,,,,,,,,0.299074074,-0.183333333,0,0,0,,,,,,,PASTA,HB,z,y,./images/PASTAHB.png,,,,,,,,,,,,,,,,,,,,,m,0,1.3753,,,,,,,,0,29,29,89,1
,,,,,,,,,,,,,,,,,5832fa8996ecce0001d65197,40,2022-02-12_18h02.14.807,lexical_decision_task_DD_L6,2021.2.3,Win32,20,,,,,,,,,,,1.1735,1,,,,,,,,,,,,,,,,,,,,,,,,0.299074074,-0.183333333,0,0,0,,,,,,,MUSCLE,C,z,y,./images/MUSCLE.png,,,,,,,,,,,,,,,,,,,,,z,1,1.1735,,,,,,,,0,30,30,88,1
,,,,,,,,,,,,,,,,,5832fa8996ecce0001d65197,40,2022-02-12_18h02.14.807,lexical_decision_task_DD_L6,2021.2.3,Win32,20,,,,,,,,,,,1.452,1,,,,,,,,,,,,,,,,,,,,,,,,0.299074074,-0.183333333,0,0,0,,,,,,,MIDGET,C,m,y,./images/MIDGET.png,,,,,,,,,,,,,,,,,,,,,m,1,1.452,,,,,,,,0,31,31,76,1
,,,,,,,,,,,,,,,,,5832fa8996ecce0001d65197,40,2022-02-12_18h02.14.807,lexical_decision_task_DD_L6,2021.2.3,Win32,20,,,,,,,,,,,1.1153,1,,,,,,,,,,,,,,,,,,,,,,,,0.299074074,-0.183333333,0,0,0,,,,,,,CHAIN,LB,m,y,./images/CHAINLB.png,,,,,,,,,,,,,,,,,,,,,m,1,1.1153,,,,,,,,0,32,32,42,1
,,,,,,,,,,,,,,,,,5832fa8996ecce0001d65197,40,2022-02-12_18h02.14.807,lexical_decision_task_DD_L6,2021.2.3,Win32,20,,,,,,,,,,,1.0405,1,,,,,,,,,,,,,,,,,,,,,,,,0.299074074,-0.183333333,0,0,0,,,,,,,GRAPE,C,m,y,./images/GRAPE.png,,,,,,,,,,,,,,,,,,,,,m,1,1.0405,,,,,,,,0,33,33,16,1
,,,,,,,,,,,,,,,,,5832fa8996ecce0001d65197,40,2022-02-12_18h02.14.807,lexical_decision_task_DD_L6,2021.2.3,Win32,20,,,,,,,,,,,1.0232,1,,,,,,,,,,,,,,,,,,,,,,,,0.299074074,-0.183333333,0,0,0,,,,,,,BLOKE,LB,m,y,./images/BLOKELB.png,,,,,,,,,,,,,,,,,,,,,m,1,1.0232,,,,,,,,0,34,34,12,1
,,,,,,,,,,,,,,,,,5832fa8996ecce0001d65197,40,2022-02-12_18h02.14.807,lexical_decision_task_DD_L6,2021.2.3,Win32,20,,,,,,,,,,,0.9838,1,,,,,,,,,,,,,,,,,,,,,,,,0.299074074,-0.183333333,0,0,0,,,,,,,SMOKER,HB,z,y,./images/SMOKERHB.png,,,,,,,,,,,,,,,,,,,,,z,1,0.9838,,,,,,,,0,35,35,110,1
,,,,,,,,,,,,,,,,,5832fa8996ecce0001d65197,40,2022-02-12_18h02.14.807,lexical_decision_task_DD_L6,2021.2.3,Win32,20,,,,,,,,,,,1.0671,0,,,,,,,,,,,,,,,,,,,,,,,,0.299074074,-0.183333333,0,0,0,,,,,,,STATUE,LB,m,y,./images/STATUELB.png,,,,,,,,,,,,,,,,,,,,,z,0,1.0671,,,,,,,,0,36,36,66,1
,,,,,,,,,,,,,,,,,5832fa8996ecce0001d65197,40,2022-02-12_18h02.14.807,lexical_decision_task_DD_L6,2021.2.3,Win32,20,,,,,,,,,,,1.0581,1,,,,,,,,,,,,,,,,,,,,,,,,0.299074074,-0.183333333,0,0,0,,,,,,,PISTOL,HB,m,y,./images/PISTOLHB.png,,,,,,,,,,,,,,,,,,,,,m,1,1.0581,,,,,,,,0,37,37,29,1
,,,,,,,,,,,,,,,,,5832fa8996ecce0001d65197,40,2022-02-12_18h02.14.807,lexical_decision_task_DD_L6,2021.2.3,Win32,20,,,,,,,,,,,0.8612,1,,,,,,,,,,,,,,,,,,,,,,,,0.299074074,-0.183333333,0,0,0,,,,,,,SLOPE,LB,m,y,./images/SLOPELB.png,,,,,,,,,,,,,,,,,,,,,m,1,0.8612,,,,,,,,0,38,38,30,1
,,,,,,,,,,,,,,,,,5832fa8996ecce0001d65197,40,2022-02-12_18h02.14.807,lexical_decision_task_DD_L6,2021.2.3,Win32,20,,,,,,,,,,,1.3942,0,,,,,,,,,,,,,,,,,,,,,,,,0.299074074,-0.183333333,0,0,0,,,,,,,SAUNA,LB,m,y,./images/SAUNALB.png,,,,,,,,,,,,,,,,,,,,,z,0,1.3942,,,,,,,,0,39,39,33,1
,,,,,,,,,,,,,,,,,5832fa8996ecce0001d65197,40,2022-02-12_18h02.14.807,lexical_decision_task_DD_L6,2021.2.3,Win32,20,,,,,,,,,,,1.1676,1,,,,,,,,,,,,,,,,,,,,,,,,0.299074074,-0.183333333,0,0,0,,,,,,,ARTIST,C,m,y,./images/ARTIST.png,,,,,,,,,,,,,,,,,,,,,m,1,1.1676,,,,,,,,0,40,40,61,1
,,,,,,,,,,,,,,,,,5832fa8996ecce0001d65197,40,2022-02-12_18h02.14.807,lexical_decision_task_DD_L6,2021.2.3,Win32,20,,,,,,,,,,,1.0395,0,,,,,,,,,,,,,,,,,,,,,,,,0.299074074,-0.183333333,0,0,0,space,,,,,,CRUST,C,z,y,./images/CRUST.png,3.2765,,,,,,,,,,,,,,,,,,,,m,0,1.0395,,,,,,,,0,41,41,163,1
,,,,,,,,,,,,,,,,,5832fa8996ecce0001d65197,40,2022-02-12_18h02.14.807,lexical_decision_task_DD_L6,2021.2.3,Win32,20,,,,,,,,,,,1.2102,1,,,,,,,,,,,,,,,,,,,,,,,,0.299074074,-0.183333333,0,0,0,,,,,,,URINE,C,z,y,./images/URINE.png,,,,,,,,,,,,,,,,,,,,,z,1,1.2102,,,,,,,,0,42,42,154,1
,,,,,,,,,,,,,,,,,5832fa8996ecce0001d65197,40,2022-02-12_18h02.14.807,lexical_decision_task_DD_L6,2021.2.3,Win32,20,,,,,,,,,,,0.9319,1,,,,,,,,,,,,,,,,,,,,,,,,0.299074074,-0.183333333,0,0,0,,,,,,,BUBBLE,HB,m,y,./images/BUBBLEHB.png,,,,,,,,,,,,,,,,,,,,,m,1,0.9319,,,,,,,,0,43,43,71,1
,,,,,,,,,,,,,,,,,5832fa8996ecce0001d65197,40,2022-02-12_18h02.14.807,lexical_decision_task_DD_L6,2021.2.3,Win32,20,,,,,,,,,,,0.9177,1,,,,,,,,,,,,,,,,,,,,,,,,0.299074074,-0.183333333,0,0,0,,,,,,,DESERT,C,m,y,./images/DESERT.png,,,,,,,,,,,,,,,,,,,,,m,1,0.9177,,,,,,,,0,44,44,52,1
,,,,,,,,,,,,,,,,,5832fa8996ecce0001d65197,40,2022-02-12_18h02.14.807,lexical_decision_task_DD_L6,2021.2.3,Win32,20,,,,,,,,,,,1.2683,1,,,,,,,,,,,,,,,,,,,,,,,,0.299074074,-0.183333333,0,0,0,,,,,,,COUCH,HB,z,y,./images/COUCHHB.png,,,,,,,,,,,,,,,,,,,,,z,1,1.2683,,,,,,,,0,45,45,161,1
,,,,,,,,,,,,,,,,,5832fa8996ecce0001d65197,40,2022-02-12_18h02.14.807,lexical_decision_task_DD_L6,2021.2.3,Win32,20,,,,,,,,,,,0.9443,0,,,,,,,,,,,,,,,,,,,,,,,,0.299074074,-0.183333333,0,0,0,,,,,,,CANDLE,C,z,y,./images/CANDLE.png,,,,,,,,,,,,,,,,,,,,,m,0,0.9443,,,,,,,,0,46,46,145,1
,,,,,,,,,,,,,,,,,5832fa8996ecce0001d65197,40,2022-02-12_18h02.14.807,lexical_decision_task_DD_L6,2021.2.3,Win32,20,,,,,,,,,,,1.2328,1,,,,,,,,,,,,,,,,,,,,,,,,0.299074074,-0.183333333,0,0,0,,,,,,,GRANNY,HB,m,y,./images/GRANNYHB.png,,,,,,,,,,,,,,,,,,,,,m,1,1.2328,,,,,,,,0,47,47,20,1
,,,,,,,,,,,,,,,,,5832fa8996ecce0001d65197,40,2022-02-12_18h02.14.807,lexical_decision_task_DD_L6,2021.2.3,Win32,20,,,,,,,,,,,1.0014,0,,,,,,,,,,,,,,,,,,,,,,,,0.299074074,-0.183333333,0,0,0,,,,,,,LADDER,HB,z,y,./images/LADDERHB.png,,,,,,,,,,,,,,,,,,,,,m,0,1.0014,,,,,,,,0,48,48,122,1
,,,,,,,,,,,,,,,,,5832fa8996ecce0001d65197,40,2022-02-12_18h02.14.807,lexical_decision_task_DD_L6,2021.2.3,Win32,20,,,,,,,,,,,1.0027,1,,,,,,,,,,,,,,,,,,,,,,,,0.299074074,-0.183333333,0,0,0,,,,,,,FLESH,LB,m,y,./images/FLESHLB.png,,,,,,,,,,,,,,,,,,,,,m,1,1.0027,,,,,,,,0,49,49,24,1
,,,,,,,,,,,,,,,,,5832fa8996ecce0001d65197,40,2022-02-12_18h02.14.807,lexical_decision_task_DD_L6,2021.2.3,Win32,20,,,,,,,,,,,1.0043,1,,,,,,,,,,,,,,,,,,,,,,,,0.299074074,-0.183333333,0,0,0,,,,,,,BURIAL,HB,z,y,./images/BURIALHB.png,,,,,,,,,,,,,,,,,,,,,z,1,1.0043,,,,,,,,0,50,50,143,1
,,,,,,,,,,,,,,,,,5832fa8996ecce0001d65197,40,2022-02-12_18h02.14.807,lexical_decision_task_DD_L6,2021.2.3,Win32,20,,,,,,,,,,,0.9372,1,,,,,,,,,,,,,,,,,,,,,,,,0.299074074,-0.183333333,0,0,0,,,,,,,WALRUS,HB,z,y,./images/WALRUSHB.png,,,,,,,,,,,,,,,,,,,,,z,1,0.9372,,,,,,,,0,51,51,107,1
,,,,,,,,,,,,,,,,,5832fa8996ecce0001d65197,40,2022-02-12_18h02.14.807,lexical_decision_task_DD_L6,2021.2.3,Win32,20,,,,,,,,,,,1.1506,0,,,,,,,,,,,,,,,,,,,,,,,,0.299074074,-0.183333333,0,0,0,,,,,,,BELLY,C,z,y,./images/BELLY.png,,,,,,,,,,,,,,,,,,,,,m,0,1.1506,,,,,,,,0,52,52,94,1
,,,,,,,,,,,,,,,,,5832fa8996ecce0001d65197,40,2022-02-12_18h02.14.807,lexical_decision_task_DD_L6,2021.2.3,Win32,20,,,,,,,,,,,0.9947,0,,,,,,,,,,,,,,,,,,,,,,,,0.299074074,-0.183333333,0,0,0,,,,,,,DRUMS,C,z,y,./images/DRUMS.png,,,,,,,,,,,,,,,,,,,,,m,0,0.9947,,,,,,,,0,53,53,133,1
,,,,,,,,,,,,,,,,,5832fa8996ecce0001d65197,40,2022-02-12_18h02.14.807,lexical_decision_task_DD_L6,2021.2.3,Win32,20,,,,,,,,,,,0.9371,1,,,,,,,,,,,,,,,,,,,,,,,,0.299074074,-0.183333333,0,0,0,,,,,,,WHEEL,HB,m,y,./images/WHEELHB.png,,,,,,,,,,,,,,,,,,,,,m,1,0.9371,,,,,,,,0,54,54,77,1
,,,,,,,,,,,,,,,,,5832fa8996ecce0001d65197,40,2022-02-12_18h02.14.807,lexical_decision_task_DD_L6,2021.2.3,Win32,20,,,,,,,,,,,0.8002,1,,,,,,,,,,,,,,,,,,,,,,,,0.299074074,-0.183333333,0,0,0,,,,,,,DRILL,LB,m,y,./images/DRILLLB.png,,,,,,,,,,,,,,,,,,,,,m,1,0.8002,,,,,,,,0,55,55,81,1
,,,,,,,,,,,,,,,,,5832fa8996ecce0001d65197,40,2022-02-12_18h02.14.807,lexical_decision_task_DD_L6,2021.2.3,Win32,20,,,,,,,,,,,1.5372,0,,,,,,,,,,,,,,,,,,,,,,,,0.299074074,-0.183333333,0,0,0,,,,,,,ALLEY,C,m,y,./images/ALLEY.png,,,,,,,,,,,,,,,,,,,,,z,0,1.5372,,,,,,,,0,56,56,55,1
,,,,,,,,,,,,,,,,,5832fa8996ecce0001d65197,40,2022-02-12_18h02.14.807,lexical_decision_task_DD_L6,2021.2.3,Win32,20,,,,,,,,,,,0.7973,1,,,,,,,,,,,,,,,,,,,,,,,,0.299074074,-0.183333333,0,0,0,,,,,,,MONKEY,LB,m,y,./images/MONKEYLB.png,,,,,,,,,,,,,,,,,,,,,m,1,0.7973,,,,,,,,0,57,57,45,1
,,,,,,,,,,,,,,,,,5832fa8996ecce0001d65197,40,2022-02-12_18h02.14.807,lexical_decision_task_DD_L6,2021.2.3,Win32,20,,,,,,,,,,,0.8539,1,,,,,,,,,,,,,,,,,,,,,,,,0.299074074,-0.183333333,0,0,0,,,,,,,BRIDE,C,m,y,./images/BRIDE.png,,,,,,,,,,,,,,,,,,,,,m,1,0.8539,,,,,,,,0,58,58,64,1
,,,,,,,,,,,,,,,,,5832fa8996ecce0001d65197,40,2022-02-12_18h02.14.807,lexical_decision_task_DD_L6,2021.2.3,Win32,20,,,,,,,,,,,0.8528,1,,,,,,,,,,,,,,,,,,,,,,,,0.299074074,-0.183333333,0,0,0,,,,,,,BROOM,LB,m,y,./images/BROOMLB.png,,,,,,,,,,,,,,,,,,,,,m,1,0.8528,,,,,,,,0,59,59,78,1
,,,,,,,,,,,,,,,,,5832fa8996ecce0001d65197,40,2022-02-12_18h02.14.807,lexical_decision_task_DD_L6,2021.2.3,Win32,20,,,,,,,,,,,1.248,1,,,,,,,,,,,,,,,,,,,,,,,,0.299074074,-0.183333333,0,0,0,,,,,,,BERRY,HB,z,y,./images/BERRYHB.png,,,,,,,,,,,,,,,,,,,,,z,1,1.248,,,,,,,,0,60,60,131,1
,,,,,,,,,,,,,,,,,5832fa8996ecce0001d65197,40,2022-02-12_18h02.14.807,lexical_decision_task_DD_L6,2021.2.3,Win32,20,,,,,,,,,,,1.7711,0,,,,,,,,,,,,,,,,,,,,,,,,0.299074074,-0.183333333,0,0,0,,,,,,,PICKLE,HB,z,y,./images/PICKLEHB.png,,,,,,,,,,,,,,,,,,,,,m,0,1.7711,,,,,,,,0,61,61,98,1
,,,,,,,,,,,,,,,,,5832fa8996ecce0001d65197,40,2022-02-12_18h02.14.807,lexical_decision_task_DD_L6,2021.2.3,Win32,20,,,,,,,,,,,1.2677,0,,,,,,,,,,,,,,,,,,,,,,,,0.299074074,-0.183333333,0,0,0,,,,,,,MAGGOT,LB,z,y,./images/MAGGOTLB.png,,,,,,,,,,,,,,,,,,,,,m,0,1.2677,,,,,,,,0,62,62,117,1
,,,,,,,,,,,,,,,,,5832fa8996ecce0001d65197,40,2022-02-12_18h02.14.807,lexical_decision_task_DD_L6,2021.2.3,Win32,20,,,,,,,,,,,0.7648,0,,,,,,,,,,,,,,,,,,,,,,,,0.299074074,-0.183333333,0,0,0,,,,,,,SPORT,LB,z,y,./images/SPORTLB.png,,,,,,,,,,,,,,,,,,,,,m,0,0.7648,,,,,,,,0,63,63,132,1
,,,,,,,,,,,,,,,,,5832fa8996ecce0001d65197,40,2022-02-12_18h02.14.807,lexical_decision_task_DD_L6,2021.2.3,Win32,20,,,,,,,,,,,1.2274,0,,,,,,,,,,,,,,,,,,,,,,,,0.299074074,-0.183333333,0,0,0,,,,,,,BARREL,HB,z,y,./images/BARRELHB.png,,,,,,,,,,,,,,,,,,,,,m,0,1.2274,,,,,,,,0,64,64,116,1
,,,,,,,,,,,,,,,,,5832fa8996ecce0001d65197,40,2022-02-12_18h02.14.807,lexical_decision_task_DD_L6,2021.2.3,Win32,20,,,,,,,,,,,1.0375,1,,,,,,,,,,,,,,,,,,,,,,,,0.299074074,-0.183333333,0,0,0,,,,,,,BASKET,HB,m,y,./images/BASKETHB.png,,,,,,,,,,,,,,,,,,,,,m,1,1.0375,,,,,,,,0,65,65,44,1
,,,,,,,,,,,,,,,,,5832fa8996ecce0001d65197,40,2022-02-12_18h02.14.807,lexical_decision_task_DD_L6,2021.2.3,Win32,20,,,,,,,,,,,0.9322,1,,,,,,,,,,,,,,,,,,,,,,,,0.299074074,-0.183333333,0,0,0,,,,,,,COOKER,LB,z,y,./images/COOKERLB.png,,,,,,,,,,,,,,,,,,,,,z,1,0.9322,,,,,,,,0,66,66,153,1
,,,,,,,,,,,,,,,,,5832fa8996ecce0001d65197,40,2022-02-12_18h02.14.807,lexical_decision_task_DD_L6,2021.2.3,Win32,20,,,,,,,,,,,0.9368,1,,,,,,,,,,,,,,,,,,,,,,,,0.299074074,-0.183333333,0,0,0,,,,,,,WHISKY,HB,m,y,./images/WHISKYHB.png,,,,,,,,,,,,,,,,,,,,,m,1,0.9368,,,,,,,,0,67,67,83,1
,,,,,,,,,,,,,,,,,5832fa8996ecce0001d65197,40,2022-02-12_18h02.14.807,lexical_decision_task_DD_L6,2021.2.3,Win32,20,,,,,,,,,,,0.8902,1,,,,,,,,,,,,,,,,,,,,,,,,0.299074074,-0.183333333,0,0,0,,,,,,,GLOVE,C,m,y,./images/GLOVE.png,,,,,,,,,,,,,,,,,,,,,m,1,0.8902,,,,,,,,0,68,68,73,1
,,,,,,,,,,,,,,,,,5832fa8996ecce0001d65197,40,2022-02-12_18h02.14.807,lexical_decision_task_DD_L6,2021.2.3,Win32,20,,,,,,,,,,,0.7843,0,,,,,,,,,,,,,,,,,,,,,,,,0.299074074,-0.183333333,0,0,0,,,,,,,STORM,LB,z,y,./images/STORMLB.png,,,,,,,,,,,,,,,,,,,,,m,0,0.7843,,,,,,,,0,69,69,114,1
,,,,,,,,,,,,,,,,,5832fa8996ecce0001d65197,40,2022-02-12_18h02.14.807,lexical_decision_task_DD_L6,2021.2.3,Win32,20,,,,,,,,,,,1.002,0,,,,,,,,,,,,,,,,,,,,,,,,0.299074074,-0.183333333,0,0,0,,,,,,,STRING,HB,z,y,./images/STRINGHB.png,,,,,,,,,,,,,,,,,,,,,m,0,1.002,,,,,,,,0,70,70,125,1
,,,,,,,,,,,,,,,,,5832fa8996ecce0001d65197,40,2022-02-12_18h02.14.807,lexical_decision_task_DD_L6,2021.2.3,Win32,20,,,,,,,,,,,1.2682,0,,,,,,,,,,,,,,,,,,,,,,,,0.299074074,-0.183333333,0,0,0,,,,,,,BABOON,C,z,y,./images/BABOON.png,,,,,,,,,,,,,,,,,,,,,m,0,1.2682,,,,,,,,0,71,71,142,1
,,,,,,,,,,,,,,,,,5832fa8996ecce0001d65197,40,2022-02-12_18h02.14.807,lexical_decision_task_DD_L6,2021.2.3,Win32,20,,,,,,,,,,,1.1052,1,,,,,,,,,,,,,,,,,,,,,,,,0.299074074,-0.183333333,0,0,0,,,,,,,POSTER,HB,m,y,./images/POSTERHB.png,,,,,,,,,,,,,,,,,,,,,m,1,1.1052,,,,,,,,0,72,72,53,1
,,,,,,,,,,,,,,,,,5832fa8996ecce0001d65197,40,2022-02-12_18h02.14.807,lexical_decision_task_DD_L6,2021.2.3,Win32,20,,,,,,,,,,,1.2705,1,,,,,,,,,,,,,,,,,,,,,,,,0.299074074,-0.183333333,0,0,0,,,,,,,KITTEN,LB,z,y,./images/KITTENLB.png,,,,,,,,,,,,,,,,,,,,,z,1,1.2705,,,,,,,,0,73,73,129,1
,,,,,,,,,,,,,,,,,5832fa8996ecce0001d65197,40,2022-02-12_18h02.14.807,lexical_decision_task_DD_L6,2021.2.3,Win32,20,,,,,,,,,,,0.859,0,,,,,,,,,,,,,,,,,,,,,,,,0.299074074,-0.183333333,0,0,0,,,,,,,MUFFIN,C,z,y,./images/MUFFIN.png,,,,,,,,,,,,,,,,,,,,,m,0,0.859,,,,,,,,0,74,74,139,1
,,,,,,,,,,,,,,,,,5832fa8996ecce0001d65197,40,2022-02-12_18h02.14.807,lexical_decision_task_DD_L6,2021.2.3,Win32,20,,,,,,,,,,,0.6913,1,,,,,,,,,,,,,,,,,,,,,,,,0.299074074,-0.183333333,0,0,0,,,,,,,CRATER,LB,m,y,./images/CRATERLB.png,,,,,,,,,,,,,,,,,,,,,m,1,0.6913,,,,,,,,0,75,75,3,1
,,,,,,,,,,,,,,,,,5832fa8996ecce0001d65197,40,2022-02-12_18h02.14.807,lexical_decision_task_DD_L6,2021.2.3,Win32,20,,,,,,,,,,,0.9838,1,,,,,,,,,,,,,,,,,,,,,,,,0.299074074,-0.183333333,0,0,0,,,,,,,PEBBLE,C,m,y,./images/PEBBLE.png,,,,,,,,,,,,,,,,,,,,,m,1,0.9838,,,,,,,,0,76,76,82,1
,,,,,,,,,,,,,,,,,5832fa8996ecce0001d65197,40,2022-02-12_18h02.14.807,lexical_decision_task_DD_L6,2021.2.3,Win32,20,,,,,,,,,,,0.8864,1,,,,,,,,,,,,,,,,,,,,,,,,0.299074074,-0.183333333,0,0,0,,,,,,,CURRY,LB,m,y,./images/CURRYLB.png,,,,,,,,,,,,,,,,,,,,,m,1,0.8864,,,,,,,,0,77,77,60,1
,,,,,,,,,,,,,,,,,5832fa8996ecce0001d65197,40,2022-02-12_18h02.14.807,lexical_decision_task_DD_L6,2021.2.3,Win32,20,,,,,,,,,,,0.8858,0,,,,,,,,,,,,,,,,,,,,,,,,0.299074074,-0.183333333,0,0,0,,,,,,,CRADLE,HB,z,y,./images/CRADLEHB.png,,,,,,,,,,,,,,,,,,,,,m,0,0.8858,,,,,,,,0,78,78,104,1
,,,,,,,,,,,,,,,,,5832fa8996ecce0001d65197,40,2022-02-12_18h02.14.807,lexical_decision_task_DD_L6,2021.2.3,Win32,20,,,,,,,,,,,0.9073,1,,,,,,,,,,,,,,,,,,,,,,,,0.299074074,-0.183333333,0,0,0,,,,,,,CLIFF,HB,m,y,./images/CLIFFHB.png,,,,,,,,,,,,,,,,,,,,,m,1,0.9073,,,,,,,,0,79,79,8,1
,,,,,,,,,,,,,,,,,5832fa8996ecce0001d65197,40,2022-02-12_18h02.14.807,lexical_decision_task_DD_L6,2021.2.3,Win32,20,,,,,,,,,,,0.8704,0,,,,,,,,,,,,,,,,,,,,,,,,0.299074074,-0.183333333,0,0,0,,,,,,,CEMENT,HB,z,y,./images/CEMENTHB.png,,,,,,,,,,,,,,,,,,,,,m,0,0.8704,,,,,,,,0,80,80,158,1
,,,,,,,,,,,,,,,,,5832fa8996ecce0001d65197,40,2022-02-12_18h02.14.807,lexical_decision_task_DD_L6,2021.2.3,Win32,20,,,,,,,,,,,1.2841,0,,,,,,,,,,,,,,,,,,,,,,,,0.299074074,-0.183333333,0,0,0,,,,,,,BOXER,C,m,y,./images/BOXER.png,,,,,,,,,,,,,,,,,,,,,z,0,1.2841,,,,,,,,0,81,81,4,1
,,,,,,,,,,,,,,,,,5832fa8996ecce0001d65197,40,2022-02-12_18h02.14.807,lexical_decision_task_DD_L6,2021.2.3,Win32,20,,,,,,,,,,,1.2857,1,,,,,,,,,,,,,,,,,,,,,,,,0.299074074,-0.183333333,0,0,0,,,,,,,HOCKEY,HB,m,y,./images/HOCKEYHB.png,,,,,,,,,,,,,,,,,,,,,m,1,1.2857,,,,,,,,0,82,82,32,1
,,,,,,,,,,,,,,,,,5832fa8996ecce0001d65197,40,2022-02-12_18h02.14.807,lexical_decision_task_DD_L6,2021.2.3,Win32,20,,,,,,,,,,,0.8736,0,,,,,,,,,,,,,,,,,,,,,,,,0.299074074,-0.183333333,0,0,0,space,,,,,,SQUARE,LB,z,y,./images/SQUARELB.png,12.0973,,,,,,,,,,,,,,,,,,,,m,0,0.8736,,,,,,,,0,83,83,90,1
,,,,,,,,,,,,,,,,,5832fa8996ecce0001d65197,40,2022-02-12_18h02.14.807,lexical_decision_task_DD_L6,2021.2.3,Win32,20,,,,,,,,,,,1.7143,1,,,,,,,,,,,,,,,,,,,,,,,,0.299074074,-0.183333333,0,0,0,,,,,,,KIDNEY,LB,z,y,./images/KIDNEYLB.png,,,,,,,,,,,,,,,,,,,,,z,1,1.7143,,,,,,,,0,84,84,105,1
,,,,,,,,,,,,,,,,,5832fa8996ecce0001d65197,40,2022-02-12_18h02.14.807,lexical_decision_task_DD_L6,2021.2.3,Win32,20,,,,,,,,,,,1.5993,1,,,,,,,,,,,,,,,,,,,,,,,,0.299074074,-0.183333333,0,0,0,,,,,,,PARCEL,LB,m,y,./images/PARCELLB.png,,,,,,,,,,,,,,,,,,,,,m,1,1.5993,,,,,,,,0,85,85,18,1
,,,,,,,,,,,,,,,,,5832fa8996ecce0001d65197,40,2022-02-12_18h02.14.807,lexical_decision_task_DD_L6,2021.2.3,Win32,20,,,,,,,,,,,1.2465,1,,,,,,,,,,,,,,,,,,,,,,,,0.299074074,-0.183333333,0,0,0,,,,,,,CANOE,C,m,y,./images/CANOE.png,,,,,,,,,,,,,,,,,,,,,m,1,1.2465,,,,,,,,0,86,86,58,1
,,,,,,,,,,,,,,,,,5832fa8996ecce0001d65197,40,2022-02-12_18h02.14.807,lexical_decision_task_DD_L6,2021.2.3,Win32,20,,,,,,,,,,,1.306,1,,,,,,,,,,,,,,,,,,,,,,,,0.299074074,-0.183333333,0,0,0,,,,,,,TWINS,LB,z,y,./images/TWINSLB.png,,,,,,,,,,,,,,,,,,,,,z,1,1.306,,,,,,,,0,87,87,144,1
,,,,,,,,,,,,,,,,,5832fa8996ecce0001d65197,40,2022-02-12_18h02.14.807,lexical_decision_task_DD_L6,2021.2.3,Win32,20,,,,,,,,,,,1.2526,1,,,,,,,,,,,,,,,,,,,,,,,,0.299074074,-0.183333333,0,0,0,,,,,,,FLASK,LB,m,y,./images/FLASKLB.png,,,,,,,,,,,,,,,,,,,,,m,1,1.2526,,,,,,,,0,88,88,72,1
,,,,,,,,,,,,,,,,,5832fa8996ecce0001d65197,40,2022-02-12_18h02.14.807,lexical_decision_task_DD_L6,2021.2.3,Win32,20,,,,,,,,,,,1.2253,1,,,,,,,,,,,,,,,,,,,,,,,,0.299074074,-0.183333333,0,0,0,,,,,,,RHINO,LB,z,y,./images/RHINOLB.png,,,,,,,,,,,,,,,,,,,,,z,1,1.2253,,,,,,,,0,89,89,93,1
,,,,,,,,,,,,,,,,,5832fa8996ecce0001d65197,40,2022-02-12_18h02.14.807,lexical_decision_task_DD_L6,2021.2.3,Win32,20,,,,,,,,,,,0.8762,1,,,,,,,,,,,,,,,,,,,,,,,,0.299074074,-0.183333333,0,0,0,,,,,,,BAMBOO,HB,m,y,./images/BAMBOOHB.png,,,,,,,,,,,,,,,,,,,,,m,1,0.8762,,,,,,,,0,90,90,5,1
,,,,,,,,,,,,,,,,,5832fa8996ecce0001d65197,40,2022-02-12_18h02.14.807,lexical_decision_task_DD_L6,2021.2.3,Win32,20,,,,,,,,,,,1.2508,1,,,,,,,,,,,,,,,,,,,,,,,,0.299074074,-0.183333333,0,0,0,,,,,,,WEASEL,HB,z,y,./images/WEASELHB.png,,,,,,,,,,,,,,,,,,,,,z,1,1.2508,,,,,,,,0,91,91,164,1
,,,,,,,,,,,,,,,,,5832fa8996ecce0001d65197,40,2022-02-12_18h02.14.807,lexical_decision_task_DD_L6,2021.2.3,Win32,20,,,,,,,,,,,0.67,0,,,,,,,,,,,,,,,,,,,,,,,,0.299074074,-0.183333333,0,0,0,,,,,,,WRIST,C,z,y,./images/WRIST.png,,,,,,,,,,,,,,,,,,,,,m,0,0.67,,,,,,,,0,92,92,109,1
,,,,,,,,,,,,,,,,,5832fa8996ecce0001d65197,40,2022-02-12_18h02.14.807,lexical_decision_task_DD_L6,2021.2.3,Win32,20,,,,,,,,,,,1.0268,1,,,,,,,,,,,,,,,,,,,,,,,,0.299074074,-0.183333333,0,0,0,,,,,,,STOVE,HB,m,y,./images/STOVEHB.png,,,,,,,,,,,,,,,,,,,,,m,1,1.0268,,,,,,,,0,93,93,2,1
,,,,,,,,,,,,,,,,,5832fa8996ecce0001d65197,40,2022-02-12_18h02.14.807,lexical_decision_task_DD_L6,2021.2.3,Win32,20,,,,,,,,,,,1.2452,1,,,,,,,,,,,,,,,,,,,,,,,,0.299074074,-0.183333333,0,0,0,,,,,,,JELLY,C,z,y,./images/JELLY.png,,,,,,,,,,,,,,,,,,,,,z,1,1.2452,,,,,,,,0,94,94,148,1
,,,,,,,,,,,,,,,,,5832fa8996ecce0001d65197,40,2022-02-12_18h02.14.807,lexical_decision_task_DD_L6,2021.2.3,Win32,20,,,,,,,,,,,0.7194,1,,,,,,,,,,,,,,,,,,,,,,,,0.299074074,-0.183333333,0,0,0,,,,,,,SAUCE,LB,m,y,./images/SAUCELB.png,,,,,,,,,,,,,,,,,,,,,m,1,0.7194,,,,,,,,0,95,95,51,1
,,,,,,,,,,,,,,,,,5832fa8996ecce0001d65197,40,2022-02-12_18h02.14.807,lexical_decision_task_DD_L6,2021.2.3,Win32,20,,,,,,,,,,,0.673,1,,,,,,,,,,,,,,,,,,,,,,,,0.299074074,-0.183333333,0,0,0,,,,,,,ARROW,LB,m,y,./images/ARROWLB.png,,,,,,,,,,,,,,,,,,,,,m,1,0.673,,,,,,,,0,96,96,69,1
,,,,,,,,,,,,,,,,,5832fa8996ecce0001d65197,40,2022-02-12_18h02.14.807,lexical_decision_task_DD_L6,2021.2.3,Win32,20,,,,,,,,,,,0.8308,0,,,,,,,,,,,,,,,,,,,,,,,,0.299074074,-0.183333333,0,0,0,,,,,,,BANNER,C,z,y,./images/BANNER.png,,,,,,,,,,,,,,,,,,,,,m,0,0.8308,,,,,,,,0,97,97,136,1
,,,,,,,,,,,,,,,,,5832fa8996ecce0001d65197,40,2022-02-12_18h02.14.807,lexical_decision_task_DD_L6,2021.2.3,Win32,20,,,,,,,,,,,0.9106,1,,,,,,,,,,,,,,,,,,,,,,,,0.299074074,-0.183333333,0,0,0,,,,,,,JUMPER,HB,m,y,./images/JUMPERHB.png,,,,,,,,,,,,,,,,,,,,,m,1,0.9106,,,,,,,,0,98,98,74,1
,,,,,,,,,,,,,,,,,5832fa8996ecce0001d65197,40,2022-02-12_18h02.14.807,lexical_decision_task_DD_L6,2021.2.3,Win32,20,,,,,,,,,,,1.3224,1,,,,,,,,,,,,,,,,,,,,,,,,0.299074074,-0.183333333,0,0,0,,,,,,,BUTTER,LB,m,y,./images/BUTTERLB.png,,,,,,,,,,,,,,,,,,,,,m,1,1.3224,,,,,,,,0,99,99,27,1
,,,,,,,,,,,,,,,,,5832fa8996ecce0001d65197,40,2022-02-12_18h02.14.807,lexical_decision_task_DD_L6,2021.2.3,Win32,20,,,,,,,,,,,1.0567,1,,,,,,,,,,,,,,,,,,,,,,,,0.299074074,-0.183333333,0,0,0,,,,,,,DIVER,LB,m,y,./images/DIVERLB.png,,,,,,,,,,,,,,,,,,,,,m,1,1.0567,,,,,,,,0,100,100,9,1
,,,,,,,,,,,,,,,,,5832fa8996ecce0001d65197,40,2022-02-12_18h02.14.807,lexical_decision_task_DD_L6,2021.2.3,Win32,20,,,,,,,,,,,1.083,0,,,,,,,,,,,,,,,,,,,,,,,,0.299074074,-0.183333333,0,0,0,,,,,,,GREASE,LB,z,y,./images/GREASELB.png,,,,,,,,,,,,,,,,,,,,,m,0,1.083,,,,,,,,0,101,101,99,1
,,,,,,,,,,,,,,,,,5832fa8996ecce0001d65197,40,2022-02-12_18h02.14.807,lexical_decision_task_DD_L6,2021.2.3,Win32,20,,,,,,,,,,,1.185,0,,,,,,,,,,,,,,,,,,,,,,,,0.299074074,-0.183333333,0,0,0,,,,,,,SHORE,LB,z,y,./images/SHORELB.png,,,,,,,,,,,,,,,,,,,,,m,0,1.185,,,,,,,,0,102,102,96,1
,,,,,,,,,,,,,,,,,5832fa8996ecce0001d65197,40,2022-02-12_18h02.14.807,lexical_decision_task_DD_L6,2021.2.3,Win32,20,,,,,,,,,,,1.4155,1,,,,,,,,,,,,,,,,,,,,,,,,0.299074074,-0.183333333,0,0,0,,,,,,,MOTOR,C,z,y,./images/MOTOR.png,,,,,,,,,,,,,,,,,,,,,z,1,1.4155,,,,,,,,0,103,103,97,1
,,,,,,,,,,,,,,,,,5832fa8996ecce0001d65197,40,2022-02-12_18h02.14.807,lexical_decision_task_DD_L6,2021.2.3,Win32,20,,,,,,,,,,,1.1658,1,,,,,,,,,,,,,,,,,,,,,,,,0.299074074,-0.183333333,0,0,0,,,,,,,STOOL,C,m,y,./images/STOOL.png,,,,,,,,,,,,,,,,,,,,,m,1,1.1658,,,,,,,,0,104,104,43,1
,,,,,,,,,,,,,,,,,5832fa8996ecce0001d65197,40,2022-02-12_18h02.14.807,lexical_decision_task_DD_L6,2021.2.3,Win32,20,,,,,,,,,,,0.8159,1,,,,,,,,,,,,,,,,,,,,,,,,0.299074074,-0.183333333,0,0,0,,,,,,,STREAM,HB,m,y,./images/STREAMHB.png,,,,,,,,,,,,,,,,,,,,,m,1,0.8159,,,,,,,,0,105,105,41,1
,,,,,,,,,,,,,,,,,5832fa8996ecce0001d65197,40,2022-02-12_18h02.14.807,lexical_decision_task_DD_L6,2021.2.3,Win32,20,,,,,,,,,,,0.9903,1,,,,,,,,,,,,,,,,,,,,,,,,0.299074074,-0.183333333,0,0,0,,,,,,,CANDY,LB,m,y,./images/CANDYLB.png,,,,,,,,,,,,,,,,,,,,,m,1,0.9903,,,,,,,,0,106,106,39,1
,,,,,,,,,,,,,,,,,5832fa8996ecce0001d65197,40,2022-02-12_18h02.14.807,lexical_decision_task_DD_L6,2021.2.3,Win32,20,,,,,,,,,,,1.2365,1,,,,,,,,,,,,,,,,,,,,,,,,0.299074074,-0.183333333,0,0,0,,,,,,,MUMMY,C,m,y,./images/MUMMY.png,,,,,,,,,,,,,,,,,,,,,m,1,1.2365,,,,,,,,0,107,107,46,1
,,,,,,,,,,,,,,,,,5832fa8996ecce0001d65197,40,2022-02-12_18h02.14.807,lexical_decision_task_DD_L6,2021.2.3,Win32,20,,,,,,,,,,,0.8975,0,,,,,,,,,,,,,,,,,,,,,,,,0.299074074,-0.183333333,0,0,0,,,,,,,FINGER,LB,z,y,./images/FINGERLB.png,,,,,,,,,,,,,,,,,,,,,m,0,0.8975,,,,,,,,0,108,108,87,1
,,,,,,,,,,,,,,,,,5832fa8996ecce0001d65197,40,2022-02-12_18h02.14.807,lexical_decision_task_DD_L6,2021.2.3,Win32,20,,,,,,,,,,,1.6934,1,,,,,,,,,,,,,,,,,,,,,,,,0.299074074,-0.183333333,0,0,0,,,,,,,JUNGLE,HB,z,y,./images/JUNGLEHB.png,,,,,,,,,,,,,,,,,,,,,z,1,1.6934,,,,,,,,0,109,109,167,1
,,,,,,,,,,,,,,,,,5832fa8996ecce0001d65197,40,2022-02-12_18h02.14.807,lexical_decision_task_DD_L6,2021.2.3,Win32,20,,,,,,,,,,,0.8319,1,,,,,,,,,,,,,,,,,,,,,,,,0.299074074,-0.183333333,0,0,0,,,,,,,PILOT,HB,m,y,./images/PILOTHB.png,,,,,,,,,,,,,,,,,,,,,m,1,0.8319,,,,,,,,0,110,110,50,1
,,,,,,,,,,,,,,,,,5832fa8996ecce0001d65197,40,2022-02-12_18h02.14.807,lexical_decision_task_DD_L6,2021.2.3,Win32,20,,,,,,,,,,,1.6,1,,,,,,,,,,,,,,,,,,,,,,,,0.299074074,-0.183333333,0,0,0,,,,,,,CHALK,C,m,y,./images/CHALK.png,,,,,,,,,,,,,,,,,,,,,m,1,1.6,,,,,,,,0,111,111,25,1
,,,,,,,,,,,,,,,,,5832fa8996ecce0001d65197,40,2022-02-12_18h02.14.807,lexical_decision_task_DD_L6,2021.2.3,Win32,20,,,,,,,,,,,0.9214,0,,,,,,,,,,,,,,,,,,,,,,,,0.299074074,-0.183333333,0,0,0,,,,,,,SAILOR,C,z,y,./images/SAILOR.png,,,,,,,,,,,,,,,,,,,,,m,0,0.9214,,,,,,,,0,112,112,151,1
,,,,,,,,,,,,,,,,,5832fa8996ecce0001d65197,40,2022-02-12_18h02.14.807,lexical_decision_task_DD_L6,2021.2.3,Win32,20,,,,,,,,,,,1.1222,1,,,,,,,,,,,,,,,,,,,,,,,,0.299074074,-0.183333333,0,0,0,,,,,,,COLLAR,LB,m,y,./images/COLLARLB.png,,,,,,,,,,,,,,,,,,,,,m,1,1.1222,,,,,,,,0,113,113,15,1
,,,,,,,,,,,,,,,,,5832fa8996ecce0001d65197,40,2022-02-12_18h02.14.807,lexical_decision_task_DD_L6,2021.2.3,Win32,20,,,,,,,,,,,1.4098,1,,,,,,,,,,,,,,,,,,,,,,,,0.299074074,-0.183333333,0,0,0,,,,,,,SHELF,LB,z,y,./images/SHELFLB.png,,,,,,,,,,,,,,,,,,,,,z,1,1.4098,,,,,,,,0,114,114,123,1
,,,,,,,,,,,,,,,,,5832fa8996ecce0001d65197,40,2022-02-12_18h02.14.807,lexical_decision_task_DD_L6,2021.2.3,Win32,20,,,,,,,,,,,1.1999,1,,,,,,,,,,,,,,,,,,,,,,,,0.299074074,-0.183333333,0,0,0,,,,,,,CLOTH,HB,m,y,./images/CLOTHHB.png,,,,,,,,,,,,,,,,,,,,,m,1,1.1999,,,,,,,,0,115,115,23,1
,,,,,,,,,,,,,,,,,5832fa8996ecce0001d65197,40,2022-02-12_18h02.14.807,lexical_decision_task_DD_L6,2021.2.3,Win32,20,,,,,,,,,,,1.2701,0,,,,,,,,,,,,,,,,,,,,,,,,0.299074074,-0.183333333,0,0,0,,,,,,,TIGER,C,m,y,./images/TIGER.png,,,,,,,,,,,,,,,,,,,,,z,0,1.2701,,,,,,,,0,116,116,37,1
,,,,,,,,,,,,,,,,,5832fa8996ecce0001d65197,40,2022-02-12_18h02.14.807,lexical_decision_task_DD_L6,2021.2.3,Win32,20,,,,,,,,,,,1.3314,1,,,,,,,,,,,,,,,,,,,,,,,,0.299074074,-0.183333333,0,0,0,,,,,,,SKIING,HB,z,y,./images/SKIINGHB.png,,,,,,,,,,,,,,,,,,,,,z,1,1.3314,,,,,,,,0,117,117,101,1
,,,,,,,,,,,,,,,,,5832fa8996ecce0001d65197,40,2022-02-12_18h02.14.807,lexical_decision_task_DD_L6,2021.2.3,Win32,20,,,,,,,,,,,0.7518,0,,,,,,,,,,,,,,,,,,,,,,,,0.299074074,-0.183333333,0,0,0,,,,,,,ONION,LB,z,y,./images/ONIONLB.png,,,,,,,,,,,,,,,,,,,,,m,0,0.7518,,,,,,,,0,118,118,135,1
,,,,,,,,,,,,,,,,,5832fa8996ecce0001d65197,40,2022-02-12_18h02.14.807,lexical_decision_task_DD_L6,2021.2.3,Win32,20,,,,,,,,,,,1.0669,0,,,,,,,,,,,,,,,,,,,,,,,,0.299074074,-0.183333333,0,0,0,,,,,,,MELON,C,z,y,./images/MELON.png,,,,,,,,,,,,,,,,,,,,,m,0,1.0669,,,,,,,,0,119,119,106,1
,,,,,,,,,,,,,,,,,5832fa8996ecce0001d65197,40,2022-02-12_18h02.14.807,lexical_decision_task_DD_L6,2021.2.3,Win32,20,,,,,,,,,,,1.7065,1,,,,,,,,,,,,,,,,,,,,,,,,0.299074074,-0.183333333,0,0,0,,,,,,,CANYON,C,z,y,./images/CANYON.png,,,,,,,,,,,,,,,,,,,,,z,1,1.7065,,,,,,,,0,120,120,118,1
,,,,,,,,,,,,,,,,,5832fa8996ecce0001d65197,40,2022-02-12_18h02.14.807,lexical_decision_task_DD_L6,2021.2.3,Win32,20,,,,,,,,,,,1.2151,1,,,,,,,,,,,,,,,,,,,,,,,,0.299074074,-0.183333333,0,0,0,,,,,,,BOILER,LB,m,y,./images/BOILERLB.png,,,,,,,,,,,,,,,,,,,,,m,1,1.2151,,,,,,,,0,121,121,36,1
,,,,,,,,,,,,,,,,,5832fa8996ecce0001d65197,40,2022-02-12_18h02.14.807,lexical_decision_task_DD_L6,2021.2.3,Win32,20,,,,,,,,,,,0.7706,1,,,,,,,,,,,,,,,,,,,,,,,,0.299074074,-0.183333333,0,0,0,,,,,,,CASINO,C,m,y,./images/CASINO.png,,,,,,,,,,,,,,,,,,,,,m,1,0.7706,,,,,,,,0,122,122,28,1
,,,,,,,,,,,,,,,,,5832fa8996ecce0001d65197,40,2022-02-12_18h02.14.807,lexical_decision_task_DD_L6,2021.2.3,Win32,20,,,,,,,,,,,1.0363,1,,,,,,,,,,,,,,,,,,,,,,,,0.299074074,-0.183333333,0,0,0,,,,,,,LLAMA,HB,m,y,./images/LLAMAHB.png,,,,,,,,,,,,,,,,,,,,,m,1,1.0363,,,,,,,,0,123,123,35,1
,,,,,,,,,,,,,,,,,5832fa8996ecce0001d65197,40,2022-02-12_18h02.14.807,lexical_decision_task_DD_L6,2021.2.3,Win32,20,,,,,,,,,,,1.5788,1,,,,,,,,,,,,,,,,,,,,,,,,0.299074074,-0.183333333,0,0,0,,,,,,,THROAT,LB,z,y,./images/THROATLB.png,,,,,,,,,,,,,,,,,,,,,z,1,1.5788,,,,,,,,0,124,124,120,1
,,,,,,,,,,,,,,,,,5832fa8996ecce0001d65197,40,2022-02-12_18h02.14.807,lexical_decision_task_DD_L6,2021.2.3,Win32,20,,,,,,,,,,,1.2044,0,,,,,,,,,,,,,,,,,,,,,,,,0.299074074,-0.183333333,0,0,0,space,,,,,,GRAIN,LB,z,y,./images/GRAINLB.png,5.2523,,,,,,,,,,,,,,,,,,,,m,0,1.2044,,,,,,,,0,125,125,159,1
,,,,,,,,,,,,,,,,,5832fa8996ecce0001d65197,40,2022-02-12_18h02.14.807,lexical_decision_task_DD_L6,2021.2.3,Win32,20,,,,,,,,,,,0.7927,1,,,,,,,,,,,,,,,,,,,,,,,,0.299074074,-0.183333333,0,0,0,,,,,,,SNAKE,C,m,y,./images/SNAKE.png,,,,,,,,,,,,,,,,,,,,,m,1,0.7927,,,,,,,,0,126,126,40,1
,,,,,,,,,,,,,,,,,5832fa8996ecce0001d65197,40,2022-02-12_18h02.14.807,lexical_decision_task_DD_L6,2021.2.3,Win32,20,,,,,,,,,,,1.4002,1,,,,,,,,,,,,,,,,,,,,,,,,0.299074074,-0.183333333,0,0,0,,,,,,,POKER,C,m,y,./images/POKER.png,,,,,,,,,,,,,,,,,,,,,m,1,1.4002,,,,,,,,0,127,127,67,1
,,,,,,,,,,,,,,,,,5832fa8996ecce0001d65197,40,2022-02-12_18h02.14.807,lexical_decision_task_DD_L6,2021.2.3,Win32,20,,,,,,,,,,,0.8958,0,,,,,,,,,,,,,,,,,,,,,,,,0.299074074,-0.183333333,0,0,0,,,,,,,SUNSET,C,z,y,./images/SUNSET.png,,,,,,,,,,,,,,,,,,,,,m,0,0.8958,,,,,,,,0,128,128,166,1
,,,,,,,,,,,,,,,,,5832fa8996ecce0001d65197,40,2022-02-12_18h02.14.807,lexical_decision_task_DD_L6,2021.2.3,Win32,20,,,,,,,,,,,0.972,1,,,,,,,,,,,,,,,,,,,,,,,,0.299074074,-0.183333333,0,0,0,,,,,,,TRIPOD,LB,z,y,./images/TRIPODLB.png,,,,,,,,,,,,,,,,,,,,,z,1,0.972,,,,,,,,0,129,129,138,1
,,,,,,,,,,,,,,,,,5832fa8996ecce0001d65197,40,2022-02-12_18h02.14.807,lexical_decision_task_DD_L6,2021.2.3,Win32,20,,,,,,,,,,,1.1596,0,,,,,,,,,,,,,,,,,,,,,,,,0.299074074,-0.183333333,0,0,0,,,,,,,TORCH,HB,z,y,./images/TORCHHB.png,,,,,,,,,,,,,,,,,,,,,m,0,1.1596,,,,,,,,0,130,130,152,1
,,,,,,,,,,,,,,,,,5832fa8996ecce0001d65197,40,2022-02-12_18h02.14.807,lexical_decision_task_DD_L6,2021.2.3,Win32,20,,,,,,,,,,,0.9303,0,,,,,,,,,,,,,,,,,,,,,,,,0.299074074,-0.183333333,0,0,0,,,,,,,ATTIC,LB,z,y,./images/ATTICLB.png,,,,,,,,,,,,,,,,,,,,,m,0,0.9303,,,,,,,,0,131,131,111,1
,,,,,,,,,,,,,,,,,5832fa8996ecce0001d65197,40,2022-02-12_18h02.14.807,lexical_decision_task_DD_L6,2021.2.3,Win32,20,,,,,,,,,,,0.8296,0,,,,,,,,,,,,,,,,,,,,,,,,0.299074074,-0.183333333,0,0,0,,,,,,,SWEAT,LB,z,y,./images/SWEATLB.png,,,,,,,,,,,,,,,,,,,,,m,0,0.8296,,,,,,,,0,132,132,150,1
,,,,,,,,,,,,,,,,,5832fa8996ecce0001d65197,40,2022-02-12_18h02.14.807,lexical_decision_task_DD_L6,2021.2.3,Win32,20,,,,,,,,,,,1.1366,1,,,,,,,,,,,,,,,,,,,,,,,,0.299074074,-0.183333333,0,0,0,,,,,,,CLOWN,C,m,y,./images/CLOWN.png,,,,,,,,,,,,,,,,,,,,,m,1,1.1366,,,,,,,,0,133,133,22,1
,,,,,,,,,,,,,,,,,5832fa8996ecce0001d65197,40,2022-02-12_18h02.14.807,lexical_decision_task_DD_L6,2021.2.3,Win32,20,,,,,,,,,,,0.7533,0,,,,,,,,,,,,,,,,,,,,,,,,0.299074074,-0.183333333,0,0,0,,,,,,,PURSE,HB,z,y,./images/PURSEHB.png,,,,,,,,,,,,,,,,,,,,,m,0,0.7533,,,,,,,,0,134,134,146,1
,,,,,,,,,,,,,,,,,5832fa8996ecce0001d65197,40,2022-02-12_18h02.14.807,lexical_decision_task_DD_L6,2021.2.3,Win32,20,,,,,,,,,,,1.6767,0,,,,,,,,,,,,,,,,,,,,,,,,0.299074074,-0.183333333,0,0,0,,,,,,,PIMPLE,HB,z,y,./images/PIMPLEHB.png,,,,,,,,,,,,,,,,,,,,,m,0,1.6767,,,,,,,,0,135,135,155,1
,,,,,,,,,,,,,,,,,5832fa8996ecce0001d65197,40,2022-02-12_18h02.14.807,lexical_decision_task_DD_L6,2021.2.3,Win32,20,,,,,,,,,,,0.8793,0,,,,,,,,,,,,,,,,,,,,,,,,0.299074074,-0.183333333,0,0,0,,,,,,,SNACK,C,z,y,./images/SNACK.png,,,,,,,,,,,,,,,,,,,,,m,0,0.8793,,,,,,,,0,136,136,157,1
,,,,,,,,,,,,,,,,,5832fa8996ecce0001d65197,40,2022-02-12_18h02.14.807,lexical_decision_task_DD_L6,2021.2.3,Win32,20,,,,,,,,,,,0.9925,1,,,,,,,,,,,,,,,,,,,,,,,,0.299074074,-0.183333333,0,0,0,,,,,,,SHIELD,LB,m,y,./images/SHIELDLB.png,,,,,,,,,,,,,,,,,,,,,m,1,0.9925,,,,,,,,0,137,137,48,1
,,,,,,,,,,,,,,,,,5832fa8996ecce0001d65197,40,2022-02-12_18h02.14.807,lexical_decision_task_DD_L6,2021.2.3,Win32,20,,,,,,,,,,,1.2614,1,,,,,,,,,,,,,,,,,,,,,,,,0.299074074,-0.183333333,0,0,0,,,,,,,WALNUT,LB,m,y,./images/WALNUTLB.png,,,,,,,,,,,,,,,,,,,,,m,1,1.2614,,,,,,,,0,138,138,0,1
,,,,,,,,,,,,,,,,,5832fa8996ecce0001d65197,40,2022-02-12_18h02.14.807,lexical_decision_task_DD_L6,2021.2.3,Win32,20,,,,,,,,,,,1.9204,0,,,,,,,,,,,,,,,,,,,,,,,,0.299074074,-0.183333333,0,0,0,,,,,,,BANANA,C,m,y,./images/BANANA.png,,,,,,,,,,,,,,,,,,,,,z,0,1.9204,,,,,,,,0,139,139,70,1
,,,,,,,,,,,,,,,,,5832fa8996ecce0001d65197,40,2022-02-12_18h02.14.807,lexical_decision_task_DD_L6,2021.2.3,Win32,20,,,,,,,,,,,1.4361,1,,,,,,,,,,,,,,,,,,,,,,,,0.299074074,-0.183333333,0,0,0,,,,,,,TULIP,HB,z,y,./images/TULIPHB.png,,,,,,,,,,,,,,,,,,,,,z,1,1.4361,,,,,,,,0,140,140,92,1
,,,,,,,,,,,,,,,,,5832fa8996ecce0001d65197,40,2022-02-12_18h02.14.807,lexical_decision_task_DD_L6,2021.2.3,Win32,20,,,,,,,,,,,0.9031,0,,,,,,,,,,,,,,,,,,,,,,,,0.299074074,-0.183333333,0,0,0,,,,,,,FARMER,HB,z,y,./images/FARMERHB.png,,,,,,,,,,,,,,,,,,,,,m,0,0.9031,,,,,,,,0,141,141,149,1
,,,,,,,,,,,,,,,,,5832fa8996ecce0001d65197,40,2022-02-12_18h02.14.807,lexical_decision_task_DD_L6,2021.2.3,Win32,20,,,,,,,,,,,1.0118,0,,,,,,,,,,,,,,,,,,,,,,,,0.299074074,-0.183333333,0,0,0,,,,,,,MIRROR,LB,z,y,./images/MIRRORLB.png,,,,,,,,,,,,,,,,,,,,,m,0,1.0118,,,,,,,,0,142,142,147,1
