key_resp.keys,key_resp.rt,instr_done_touch.x,instr_done_touch.y,instr_done_touch.leftButton,instr_done_touch.midButton,instr_done_touch.rightButton,instruction_pages.thisRepN,instruction_pages.thisTrialN,instruction_pages.thisN,instruction_pages.thisIndex,instruction_pages.ran,pageN,phase,instruct_text,has_image,instruct_image,participant,age,date,expName,psychopyVersion,OS,frameRate,response.keys,response.corr,response.rt,touch_resp.x,touch_resp.y,touch_resp.leftButton,touch_resp.midButton,touch_resp.rightButton,touch_resp.time,touch_resp.clicked_name,rt,corr,practrials.thisRepN,practrials.thisTrialN,practrials.thisN,practrials.thisIndex,practrials.ran,TrialID,Target,corrAns,end_of_practice_trials_pages.thisRepN,end_of_practice_trials_pages.thisTrialN,end_of_practice_trials_pages.thisN,end_of_practice_trials_pages.thisIndex,end_of_practice_trials_pages.ran,key_resp_2.keys,key_resp_2.corr,key_resp_2.rt,targ_click.x,targ_click.y,targ_click.leftButton,targ_click.midButton,targ_click.rightButton,targ_click.time,targ_click.clicked_name,break_done_touch.x,break_done_touch.y,break_done_touch.leftButton,break_done_touch.midButton,break_done_touch.rightButton,break_done_keyboard.keys,maintrials.thisRepN,maintrials.thisTrialN,maintrials.thisN,maintrials.thisIndex,maintrials.ran,string,blur,study,lex,stim_path,break_done_keyboard.rt,mouse_2.x,mouse_2.y,mouse_2.leftButton,mouse_2.midButton,mouse_2.rightButton,mouse_2.clicked_name,slider.response,slider.rt,trials.thisRepN,trials.thisTrialN,trials.thisN,trials.thisIndex,trials.ran,instr_done_touch.clicked_name,test_instructions.thisRepN,test_instructions.thisTrialN,test_instructions.thisN,test_instructions.thisIndex,test_instructions.ran,key_resp_3.keys,key_resp_3.corr,key_resp_3.rt,test_click.x,test_click.y,test_click.leftButton,test_click.midButton,test_click.rightButton,test_click.time,test_click.clicked_name,test_phase.thisRepN,test_phase.thisTrialN,test_phase.thisN,test_phase.thisIndex,test_phase.ran
space,25.051,0.554166667,0.009722222,0,0,0,0,0,0,0,1,1,instructions,"INSTRUCTIONS
At the start of each trial, look at the plus sign  (+) in the center of the screen.  This tells you that a trial is about to begin and where to look. Second, the plus sign will disappear and a string of letters will appear. Your task is to determine if the string of letters is a word or not. If the item is a word press the M key (on keyboard)  or touch the word button (phone/tablet).  If the item is not a word,  press the  Z key (on keyboard)  or touch the nonword button (on phone/tablet). 
Press the space bar or touch  continue.",0,,5b2eae5577b17f0001c037af,,2022-02-12_17h16.32.316,lexical_decision_task_DD_L6,2021.2.3,Win32,60.0240096,,,,,,,,,,,,,,,,,,,,,,,,,,,,,,,,,,,,,,,,,,,,,,,,,,,,,,,,,,,,,,,,,,,,,,,,,,,,,,,,,,,,,,
space,10.681,0.554166667,0.009722222,0,0,0,0,1,1,1,1,2,instructions,"If your device has a keyboard, press the 'Z' key for nonwords and the 'M' key for words.





Press the space bar or touch the button below to continue.",0,keyboard-example.gif,5b2eae5577b17f0001c037af,,2022-02-12_17h16.32.316,lexical_decision_task_DD_L6,2021.2.3,Win32,60.0240096,,,,,,,,,,,,,,,,,,,,,,,,,,,,,,,,,,,,,,,,,,,,,,,,,,,,,,,,,,,,,,,,,,,,,,,,,,,,,,,,,,,,,,
space,2.757,0.554166667,0.009722222,0,0,0,0,2,2,2,1,3,instructions,"If you are using a touchscreen only device, use the buttons on the screen. Do not use the mouse.





Press the space bar or touch the button below to continue.",0,touchscreen-example.gif,5b2eae5577b17f0001c037af,,2022-02-12_17h16.32.316,lexical_decision_task_DD_L6,2021.2.3,Win32,60.0240096,,,,,,,,,,,,,,,,,,,,,,,,,,,,,,,,,,,,,,,,,,,,,,,,,,,,,,,,,,,,,,,,,,,,,,,,,,,,,,,,,,,,,,
space,11.049,0.554166667,0.009722222,0,0,0,0,3,3,3,1,4,instructions,"It is very important that you respond as quickly and accurately as possible, as each letter string will only be on the screen for two seconds. If you do not respond within this time, the message 'Too slow!' will be displayed and the experiment will progress to the next letter string. The first 20 trials will be practice trials and you will receive feedback on your answers. 

Press the space bar or touch the button below to start the practice trials.",0,,5b2eae5577b17f0001c037af,,2022-02-12_17h16.32.316,lexical_decision_task_DD_L6,2021.2.3,Win32,60.0240096,,,,,,,,,,,,,,,,,,,,,,,,,,,,,,,,,,,,,,,,,,,,,,,,,,,,,,,,,,,,,,,,,,,,,,,,,,,,,,,,,,,,,,
,,,,,,,,,,,,,,,,,5b2eae5577b17f0001c037af,,2022-02-12_17h16.32.316,lexical_decision_task_DD_L6,2021.2.3,Win32,60.0240096,z,1,1.85,,,,,,,,1.85,1,0,0,0,13,1,1001,ROUPET,z,,,,,,,,,,,,,,,,,,,,,,,,,,,,,,,,,,,,,,,,,,,,,,,,,,,,,,,,,,,,,,,,,,
,,,,,,,,,,,,,,,,,5b2eae5577b17f0001c037af,,2022-02-12_17h16.32.316,lexical_decision_task_DD_L6,2021.2.3,Win32,60.0240096,z,1,0.873,,,,,,,,0.873,1,0,1,1,14,1,1001,THRALE,z,,,,,,,,,,,,,,,,,,,,,,,,,,,,,,,,,,,,,,,,,,,,,,,,,,,,,,,,,,,,,,,,,,
,,,,,,,,,,,,,,,,,5b2eae5577b17f0001c037af,,2022-02-12_17h16.32.316,lexical_decision_task_DD_L6,2021.2.3,Win32,60.0240096,m,1,0.739,,,,,,,,0.739,1,0,2,2,4,1,1001,SQUEAK,m,,,,,,,,,,,,,,,,,,,,,,,,,,,,,,,,,,,,,,,,,,,,,,,,,,,,,,,,,,,,,,,,,,
,,,,,,,,,,,,,,,,,5b2eae5577b17f0001c037af,,2022-02-12_17h16.32.316,lexical_decision_task_DD_L6,2021.2.3,Win32,60.0240096,z,1,0.767,,,,,,,,0.767,1,0,3,3,10,1,1001,INLADE,z,,,,,,,,,,,,,,,,,,,,,,,,,,,,,,,,,,,,,,,,,,,,,,,,,,,,,,,,,,,,,,,,,,
,,,,,,,,,,,,,,,,,5b2eae5577b17f0001c037af,,2022-02-12_17h16.32.316,lexical_decision_task_DD_L6,2021.2.3,Win32,60.0240096,z,1,0.713,,,,,,,,0.713,1,0,4,4,11,1,1001,RASHET,z,,,,,,,,,,,,,,,,,,,,,,,,,,,,,,,,,,,,,,,,,,,,,,,,,,,,,,,,,,,,,,,,,,
,,,,,,,,,,,,,,,,,5b2eae5577b17f0001c037af,,2022-02-12_17h16.32.316,lexical_decision_task_DD_L6,2021.2.3,Win32,60.0240096,m,1,0.799,,,,,,,,0.799,1,0,5,5,0,1,1001,UTOPIA,m,,,,,,,,,,,,,,,,,,,,,,,,,,,,,,,,,,,,,,,,,,,,,,,,,,,,,,,,,,,,,,,,,,
,,,,,,,,,,,,,,,,,5b2eae5577b17f0001c037af,,2022-02-12_17h16.32.316,lexical_decision_task_DD_L6,2021.2.3,Win32,60.0240096,m,1,0.697,,,,,,,,0.697,1,0,6,6,5,1,1001,OBTAIN,m,,,,,,,,,,,,,,,,,,,,,,,,,,,,,,,,,,,,,,,,,,,,,,,,,,,,,,,,,,,,,,,,,,
,,,,,,,,,,,,,,,,,5b2eae5577b17f0001c037af,,2022-02-12_17h16.32.316,lexical_decision_task_DD_L6,2021.2.3,Win32,60.0240096,z,1,0.692,,,,,,,,0.692,1,0,7,7,15,1,1001,WHAISE,z,,,,,,,,,,,,,,,,,,,,,,,,,,,,,,,,,,,,,,,,,,,,,,,,,,,,,,,,,,,,,,,,,,
,,,,,,,,,,,,,,,,,5b2eae5577b17f0001c037af,,2022-02-12_17h16.32.316,lexical_decision_task_DD_L6,2021.2.3,Win32,60.0240096,m,1,0.664,,,,,,,,0.664,1,0,8,8,3,1,1001,MATRIX,m,,,,,,,,,,,,,,,,,,,,,,,,,,,,,,,,,,,,,,,,,,,,,,,,,,,,,,,,,,,,,,,,,,
,,,,,,,,,,,,,,,,,5b2eae5577b17f0001c037af,,2022-02-12_17h16.32.316,lexical_decision_task_DD_L6,2021.2.3,Win32,60.0240096,m,1,0.656,,,,,,,,0.656,1,0,9,9,2,1,1001,ALMOND,m,,,,,,,,,,,,,,,,,,,,,,,,,,,,,,,,,,,,,,,,,,,,,,,,,,,,,,,,,,,,,,,,,,
,,,,,,,,,,,,,,,,,5b2eae5577b17f0001c037af,,2022-02-12_17h16.32.316,lexical_decision_task_DD_L6,2021.2.3,Win32,60.0240096,z,1,0.726,,,,,,,,0.726,1,0,10,10,8,1,1001,ASLERT,z,,,,,,,,,,,,,,,,,,,,,,,,,,,,,,,,,,,,,,,,,,,,,,,,,,,,,,,,,,,,,,,,,,
,,,,,,,,,,,,,,,,,5b2eae5577b17f0001c037af,,2022-02-12_17h16.32.316,lexical_decision_task_DD_L6,2021.2.3,Win32,60.0240096,m,1,0.672,,,,,,,,0.672,1,0,11,11,1,1,1001,ADJUST,m,,,,,,,,,,,,,,,,,,,,,,,,,,,,,,,,,,,,,,,,,,,,,,,,,,,,,,,,,,,,,,,,,,
,,,,,,,,,,,,,,,,,5b2eae5577b17f0001c037af,,2022-02-12_17h16.32.316,lexical_decision_task_DD_L6,2021.2.3,Win32,60.0240096,m,1,0.589,,,,,,,,0.589,1,0,12,12,7,1,1001,VOLUME,m,,,,,,,,,,,,,,,,,,,,,,,,,,,,,,,,,,,,,,,,,,,,,,,,,,,,,,,,,,,,,,,,,,
,,,,,,,,,,,,,,,,,5b2eae5577b17f0001c037af,,2022-02-12_17h16.32.316,lexical_decision_task_DD_L6,2021.2.3,Win32,60.0240096,z,1,0.638,,,,,,,,0.638,1,0,13,13,12,1,1001,SPRINY,z,,,,,,,,,,,,,,,,,,,,,,,,,,,,,,,,,,,,,,,,,,,,,,,,,,,,,,,,,,,,,,,,,,
,,,,,,,,,,,,,,,,,5b2eae5577b17f0001c037af,,2022-02-12_17h16.32.316,lexical_decision_task_DD_L6,2021.2.3,Win32,60.0240096,m,1,0.688,,,,,,,,0.688,1,0,14,14,6,1,1001,ZOMBIE,m,,,,,,,,,,,,,,,,,,,,,,,,,,,,,,,,,,,,,,,,,,,,,,,,,,,,,,,,,,,,,,,,,,
,,,,,,,,,,,,,,,,,5b2eae5577b17f0001c037af,,2022-02-12_17h16.32.316,lexical_decision_task_DD_L6,2021.2.3,Win32,60.0240096,z,1,0.645,,,,,,,,0.645,1,0,15,15,9,1,1001,FARINY,z,,,,,,,,,,,,,,,,,,,,,,,,,,,,,,,,,,,,,,,,,,,,,,,,,,,,,,,,,,,,,,,,,,
space,10.502,0.554166667,0.009722222,0,0,0,,,,,,1,end_of_practice,"You have completed the practice trials. During the experimental trials, you will not receive feedback. 
Before you begin, please ensure that you are in a comfortable and quiet location and will not be disturbed for about 15 minutes, as we cannot use your data if you do not complete all the trials. 
 When you are ready to start the experimental trials, please press space or touch the button below.",,,5b2eae5577b17f0001c037af,,2022-02-12_17h16.32.316,lexical_decision_task_DD_L6,2021.2.3,Win32,60.0240096,,,,,,,,,,,,,,,,,,,,,0,0,0,0,1,,,,,,,,,,,,,,,,,,,,,,,,,,,,,,,,,,,,,,,,,,,,,,,,,,,,,,,,,,,,,
,,,,,,,,,,,,,,,,,5b2eae5577b17f0001c037af,,2022-02-12_17h16.32.316,lexical_decision_task_DD_L6,2021.2.3,Win32,60.0240096,,,,,,,,,,,0.863,1,,,,,,,,,,,,,,m,1,0.863,,,,,,,,0.554166667,0.009722222,0,0,0,,0,0,0,25,1,CHALK,C,m,m,./images/CHALK.png,,,,,,,,,,,,,,,,,,,,,,,,,,,,,,,,,,,
,,,,,,,,,,,,,,,,,5b2eae5577b17f0001c037af,,2022-02-12_17h16.32.316,lexical_decision_task_DD_L6,2021.2.3,Win32,60.0240096,,,,,,,,,,,0.934,0,,,,,,,,,,,,,,z,0,0.934,,,,,,,,0.554166667,0.009722222,0,0,0,,0,1,1,68,1,VALLEY,HB,m,m,./images/VALLEYHB.png,,,,,,,,,,,,,,,,,,,,,,,,,,,,,,,,,,,
,,,,,,,,,,,,,,,,,5b2eae5577b17f0001c037af,,2022-02-12_17h16.32.316,lexical_decision_task_DD_L6,2021.2.3,Win32,60.0240096,,,,,,,,,,,0.748,1,,,,,,,,,,,,,,m,1,0.748,,,,,,,,0.554166667,0.009722222,0,0,0,,0,2,2,14,1,FENCE,HB,m,m,./images/FENCEHB.png,,,,,,,,,,,,,,,,,,,,,,,,,,,,,,,,,,,
,,,,,,,,,,,,,,,,,5b2eae5577b17f0001c037af,,2022-02-12_17h16.32.316,lexical_decision_task_DD_L6,2021.2.3,Win32,60.0240096,,,,,,,,,,,0.689,1,,,,,,,,,,,,,,m,1,0.689,,,,,,,,0.554166667,0.009722222,0,0,0,,0,3,3,57,1,FERRY,LB,m,m,./images/FERRYLB.png,,,,,,,,,,,,,,,,,,,,,,,,,,,,,,,,,,,
,,,,,,,,,,,,,,,,,5b2eae5577b17f0001c037af,,2022-02-12_17h16.32.316,lexical_decision_task_DD_L6,2021.2.3,Win32,60.0240096,,,,,,,,,,,0.7,1,,,,,,,,,,,,,,m,1,0.7,,,,,,,,0.554166667,0.009722222,0,0,0,,0,4,4,79,1,RULER,C,m,m,./images/RULER.png,,,,,,,,,,,,,,,,,,,,,,,,,,,,,,,,,,,
,,,,,,,,,,,,,,,,,5b2eae5577b17f0001c037af,,2022-02-12_17h16.32.316,lexical_decision_task_DD_L6,2021.2.3,Win32,60.0240096,,,,,,,,,,,0.738,0,,,,,,,,,,,,,,z,0,0.738,,,,,,,,0.554166667,0.009722222,0,0,0,,0,5,5,2,1,STOVE,HB,m,m,./images/STOVEHB.png,,,,,,,,,,,,,,,,,,,,,,,,,,,,,,,,,,,
,,,,,,,,,,,,,,,,,5b2eae5577b17f0001c037af,,2022-02-12_17h16.32.316,lexical_decision_task_DD_L6,2021.2.3,Win32,60.0240096,,,,,,,,,,,0.82,1,,,,,,,,,,,,,,m,1,0.82,,,,,,,,0.554166667,0.009722222,0,0,0,,0,6,6,41,1,STREAM,HB,m,m,./images/STREAMHB.png,,,,,,,,,,,,,,,,,,,,,,,,,,,,,,,,,,,
,,,,,,,,,,,,,,,,,5b2eae5577b17f0001c037af,,2022-02-12_17h16.32.316,lexical_decision_task_DD_L6,2021.2.3,Win32,60.0240096,,,,,,,,,,,0.968,1,,,,,,,,,,,,,,m,1,0.968,,,,,,,,0.554166667,0.009722222,0,0,0,,0,7,7,47,1,LAGOON,HB,m,m,./images/LAGOONHB.png,,,,,,,,,,,,,,,,,,,,,,,,,,,,,,,,,,,
,,,,,,,,,,,,,,,,,5b2eae5577b17f0001c037af,,2022-02-12_17h16.32.316,lexical_decision_task_DD_L6,2021.2.3,Win32,60.0240096,,,,,,,,,,,0.748,1,,,,,,,,,,,,,,m,1,0.748,,,,,,,,0.554166667,0.009722222,0,0,0,,0,8,8,51,1,SAUCE,LB,m,m,./images/SAUCELB.png,,,,,,,,,,,,,,,,,,,,,,,,,,,,,,,,,,,
,,,,,,,,,,,,,,,,,5b2eae5577b17f0001c037af,,2022-02-12_17h16.32.316,lexical_decision_task_DD_L6,2021.2.3,Win32,60.0240096,,,,,,,,,,,0.761,1,,,,,,,,,,,,,,m,1,0.761,,,,,,,,0.554166667,0.009722222,0,0,0,,0,9,9,40,1,SNAKE,C,m,m,./images/SNAKE.png,,,,,,,,,,,,,,,,,,,,,,,,,,,,,,,,,,,
,,,,,,,,,,,,,,,,,5b2eae5577b17f0001c037af,,2022-02-12_17h16.32.316,lexical_decision_task_DD_L6,2021.2.3,Win32,60.0240096,,,,,,,,,,,0.954,1,,,,,,,,,,,,,,z,1,0.954,,,,,,,,0.554166667,0.009722222,0,0,0,,0,10,10,163,1,GAMBA,HB,z,z,./images/GAMBAHB.png,,,,,,,,,,,,,,,,,,,,,,,,,,,,,,,,,,,
,,,,,,,,,,,,,,,,,5b2eae5577b17f0001c037af,,2022-02-12_17h16.32.316,lexical_decision_task_DD_L6,2021.2.3,Win32,60.0240096,,,,,,,,,,,0.795,1,,,,,,,,,,,,,,z,1,0.795,,,,,,,,0.554166667,0.009722222,0,0,0,,0,11,11,162,1,LEICH,C,z,z,./images/LEICH.png,,,,,,,,,,,,,,,,,,,,,,,,,,,,,,,,,,,
,,,,,,,,,,,,,,,,,5b2eae5577b17f0001c037af,,2022-02-12_17h16.32.316,lexical_decision_task_DD_L6,2021.2.3,Win32,60.0240096,,,,,,,,,,,0.753,1,,,,,,,,,,,,,,m,1,0.753,,,,,,,,0.554166667,0.009722222,0,0,0,,0,12,12,28,1,CASINO,C,m,m,./images/CASINO.png,,,,,,,,,,,,,,,,,,,,,,,,,,,,,,,,,,,
,,,,,,,,,,,,,,,,,5b2eae5577b17f0001c037af,,2022-02-12_17h16.32.316,lexical_decision_task_DD_L6,2021.2.3,Win32,60.0240096,,,,,,,,,,,0.872,1,,,,,,,,,,,,,,z,1,0.872,,,,,,,,0.554166667,0.009722222,0,0,0,,0,13,13,134,1,TROSS,LB,z,z,./images/TROSSLB.png,,,,,,,,,,,,,,,,,,,,,,,,,,,,,,,,,,,
,,,,,,,,,,,,,,,,,5b2eae5577b17f0001c037af,,2022-02-12_17h16.32.316,lexical_decision_task_DD_L6,2021.2.3,Win32,60.0240096,,,,,,,,,,,0.734,1,,,,,,,,,,,,,,m,1,0.734,,,,,,,,0.554166667,0.009722222,0,0,0,,0,14,14,34,1,RAZOR,C,m,m,./images/RAZOR.png,,,,,,,,,,,,,,,,,,,,,,,,,,,,,,,,,,,
,,,,,,,,,,,,,,,,,5b2eae5577b17f0001c037af,,2022-02-12_17h16.32.316,lexical_decision_task_DD_L6,2021.2.3,Win32,60.0240096,,,,,,,,,,,0.79,1,,,,,,,,,,,,,,z,1,0.79,,,,,,,,0.554166667,0.009722222,0,0,0,,0,15,15,140,1,DOVET,LB,z,z,./images/DOVETLB.png,,,,,,,,,,,,,,,,,,,,,,,,,,,,,,,,,,,
,,,,,,,,,,,,,,,,,5b2eae5577b17f0001c037af,,2022-02-12_17h16.32.316,lexical_decision_task_DD_L6,2021.2.3,Win32,60.0240096,,,,,,,,,,,0.85,1,,,,,,,,,,,,,,m,1,0.85,,,,,,,,0.554166667,0.009722222,0,0,0,,0,16,16,17,1,PARADE,HB,m,m,./images/PARADEHB.png,,,,,,,,,,,,,,,,,,,,,,,,,,,,,,,,,,,
,,,,,,,,,,,,,,,,,5b2eae5577b17f0001c037af,,2022-02-12_17h16.32.316,lexical_decision_task_DD_L6,2021.2.3,Win32,60.0240096,,,,,,,,,,,0.734,1,,,,,,,,,,,,,,z,1,0.734,,,,,,,,0.554166667,0.009722222,0,0,0,,0,17,17,136,1,WERVE,HB,z,z,./images/WERVEHB.png,,,,,,,,,,,,,,,,,,,,,,,,,,,,,,,,,,,
,,,,,,,,,,,,,,,,,5b2eae5577b17f0001c037af,,2022-02-12_17h16.32.316,lexical_decision_task_DD_L6,2021.2.3,Win32,60.0240096,,,,,,,,,,,0.751,1,,,,,,,,,,,,,,z,1,0.751,,,,,,,,0.554166667,0.009722222,0,0,0,,0,18,18,105,1,MOKER,C,z,z,./images/MOKER.png,,,,,,,,,,,,,,,,,,,,,,,,,,,,,,,,,,,
,,,,,,,,,,,,,,,,,5b2eae5577b17f0001c037af,,2022-02-12_17h16.32.316,lexical_decision_task_DD_L6,2021.2.3,Win32,60.0240096,,,,,,,,,,,0.873,1,,,,,,,,,,,,,,m,1,0.873,,,,,,,,0.554166667,0.009722222,0,0,0,,0,19,19,59,1,BRUSH,HB,m,m,./images/BRUSHHB.png,,,,,,,,,,,,,,,,,,,,,,,,,,,,,,,,,,,
,,,,,,,,,,,,,,,,,5b2eae5577b17f0001c037af,,2022-02-12_17h16.32.316,lexical_decision_task_DD_L6,2021.2.3,Win32,60.0240096,,,,,,,,,,,0.696,1,,,,,,,,,,,,,,z,1,0.696,,,,,,,,0.554166667,0.009722222,0,0,0,,0,20,20,89,1,DRIEK,LB,z,z,./images/DRIEKLB.png,,,,,,,,,,,,,,,,,,,,,,,,,,,,,,,,,,,
,,,,,,,,,,,,,,,,,5b2eae5577b17f0001c037af,,2022-02-12_17h16.32.316,lexical_decision_task_DD_L6,2021.2.3,Win32,60.0240096,,,,,,,,,,,1.047,1,,,,,,,,,,,,,,m,1,1.047,,,,,,,,0.554166667,0.009722222,0,0,0,,0,21,21,70,1,BANANA,C,m,m,./images/BANANA.png,,,,,,,,,,,,,,,,,,,,,,,,,,,,,,,,,,,
,,,,,,,,,,,,,,,,,5b2eae5577b17f0001c037af,,2022-02-12_17h16.32.316,lexical_decision_task_DD_L6,2021.2.3,Win32,60.0240096,,,,,,,,,,,0.79,1,,,,,,,,,,,,,,z,1,0.79,,,,,,,,0.554166667,0.009722222,0,0,0,,0,22,22,123,1,SEDGE,C,z,z,./images/SEDGE.png,,,,,,,,,,,,,,,,,,,,,,,,,,,,,,,,,,,
,,,,,,,,,,,,,,,,,5b2eae5577b17f0001c037af,,2022-02-12_17h16.32.316,lexical_decision_task_DD_L6,2021.2.3,Win32,60.0240096,,,,,,,,,,,0.805,1,,,,,,,,,,,,,,z,1,0.805,,,,,,,,0.554166667,0.009722222,0,0,0,,0,23,23,155,1,CANGY,LB,z,z,./images/CANGYLB.png,,,,,,,,,,,,,,,,,,,,,,,,,,,,,,,,,,,
,,,,,,,,,,,,,,,,,5b2eae5577b17f0001c037af,,2022-02-12_17h16.32.316,lexical_decision_task_DD_L6,2021.2.3,Win32,60.0240096,,,,,,,,,,,0.863,1,,,,,,,,,,,,,,z,1,0.863,,,,,,,,0.554166667,0.009722222,0,0,0,,0,24,24,94,1,BLANS,HB,z,z,./images/BLANSHB.png,,,,,,,,,,,,,,,,,,,,,,,,,,,,,,,,,,,
,,,,,,,,,,,,,,,,,5b2eae5577b17f0001c037af,,2022-02-12_17h16.32.316,lexical_decision_task_DD_L6,2021.2.3,Win32,60.0240096,,,,,,,,,,,0.776,1,,,,,,,,,,,,,,z,1,0.776,,,,,,,,0.554166667,0.009722222,0,0,0,,0,25,25,131,1,NACES,LB,z,z,./images/NACESLB.png,,,,,,,,,,,,,,,,,,,,,,,,,,,,,,,,,,,
,,,,,,,,,,,,,,,,,5b2eae5577b17f0001c037af,,2022-02-12_17h16.32.316,lexical_decision_task_DD_L6,2021.2.3,Win32,60.0240096,,,,,,,,,,,0.685,1,,,,,,,,,,,,,,m,1,0.685,,,,,,,,0.554166667,0.009722222,0,0,0,,0,26,26,46,1,MUMMY,C,m,m,./images/MUMMY.png,,,,,,,,,,,,,,,,,,,,,,,,,,,,,,,,,,,
,,,,,,,,,,,,,,,,,5b2eae5577b17f0001c037af,,2022-02-12_17h16.32.316,lexical_decision_task_DD_L6,2021.2.3,Win32,60.0240096,,,,,,,,,,,0.687,1,,,,,,,,,,,,,,m,1,0.687,,,,,,,,0.554166667,0.009722222,0,0,0,,0,27,27,73,1,GLOVE,C,m,m,./images/GLOVE.png,,,,,,,,,,,,,,,,,,,,,,,,,,,,,,,,,,,
,,,,,,,,,,,,,,,,,5b2eae5577b17f0001c037af,,2022-02-12_17h16.32.316,lexical_decision_task_DD_L6,2021.2.3,Win32,60.0240096,,,,,,,,,,,0.66,1,,,,,,,,,,,,,,z,1,0.66,,,,,,,,0.554166667,0.009722222,0,0,0,,0,28,28,137,1,JOOST,LB,z,z,./images/JOOSTLB.png,,,,,,,,,,,,,,,,,,,,,,,,,,,,,,,,,,,
,,,,,,,,,,,,,,,,,5b2eae5577b17f0001c037af,,2022-02-12_17h16.32.316,lexical_decision_task_DD_L6,2021.2.3,Win32,60.0240096,,,,,,,,,,,0.829,1,,,,,,,,,,,,,,z,1,0.829,,,,,,,,0.554166667,0.009722222,0,0,0,,0,29,29,160,1,VEETS,HB,z,z,./images/VEETSHB.png,,,,,,,,,,,,,,,,,,,,,,,,,,,,,,,,,,,
,,,,,,,,,,,,,,,,,5b2eae5577b17f0001c037af,,2022-02-12_17h16.32.316,lexical_decision_task_DD_L6,2021.2.3,Win32,60.0240096,,,,,,,,,,,0.674,1,,,,,,,,,,,,,,m,1,0.674,,,,,,,,0.554166667,0.009722222,0,0,0,,0,30,30,31,1,STEAK,C,m,m,./images/STEAK.png,,,,,,,,,,,,,,,,,,,,,,,,,,,,,,,,,,,
,,,,,,,,,,,,,,,,,5b2eae5577b17f0001c037af,,2022-02-12_17h16.32.316,lexical_decision_task_DD_L6,2021.2.3,Win32,60.0240096,,,,,,,,,,,0.708,1,,,,,,,,,,,,,,z,1,0.708,,,,,,,,0.554166667,0.009722222,0,0,0,,0,31,31,139,1,BLEAR,HB,z,z,./images/BLEARHB.png,,,,,,,,,,,,,,,,,,,,,,,,,,,,,,,,,,,
,,,,,,,,,,,,,,,,,5b2eae5577b17f0001c037af,,2022-02-12_17h16.32.316,lexical_decision_task_DD_L6,2021.2.3,Win32,60.0240096,,,,,,,,,,,0.762,1,,,,,,,,,,,,,,z,1,0.762,,,,,,,,0.554166667,0.009722222,0,0,0,,0,32,32,95,1,HANTY,LB,z,z,./images/HANTYLB.png,,,,,,,,,,,,,,,,,,,,,,,,,,,,,,,,,,,
,,,,,,,,,,,,,,,,,5b2eae5577b17f0001c037af,,2022-02-12_17h16.32.316,lexical_decision_task_DD_L6,2021.2.3,Win32,60.0240096,,,,,,,,,,,0.788,1,,,,,,,,,,,,,,z,1,0.788,,,,,,,,0.554166667,0.009722222,0,0,0,,0,33,33,97,1,CHIDS,HB,z,z,./images/CHIDSHB.png,,,,,,,,,,,,,,,,,,,,,,,,,,,,,,,,,,,
,,,,,,,,,,,,,,,,,5b2eae5577b17f0001c037af,,2022-02-12_17h16.32.316,lexical_decision_task_DD_L6,2021.2.3,Win32,60.0240096,,,,,,,,,,,0.881,1,,,,,,,,,,,,,,z,1,0.881,,,,,,,,0.554166667,0.009722222,0,0,0,,0,34,34,88,1,GLUSH,HB,z,z,./images/GLUSHHB.png,,,,,,,,,,,,,,,,,,,,,,,,,,,,,,,,,,,
,,,,,,,,,,,,,,,,,5b2eae5577b17f0001c037af,,2022-02-12_17h16.32.316,lexical_decision_task_DD_L6,2021.2.3,Win32,60.0240096,,,,,,,,,,,0.82,1,,,,,,,,,,,,,,z,1,0.82,,,,,,,,0.540277778,-0.004166667,0,0,0,,0,35,35,167,1,ZONET,LB,z,z,./images/ZONETLB.png,,,,,,,,,,,,,,,,,,,,,,,,,,,,,,,,,,,
,,,,,,,,,,,,,,,,,5b2eae5577b17f0001c037af,,2022-02-12_17h16.32.316,lexical_decision_task_DD_L6,2021.2.3,Win32,60.0240096,,,,,,,,,,,0.784,1,,,,,,,,,,,,,,z,1,0.784,,,,,,,,0.540277778,-0.004166667,0,0,0,,0,36,36,126,1,GUELS,C,z,z,./images/GUELS.png,,,,,,,,,,,,,,,,,,,,,,,,,,,,,,,,,,,
,,,,,,,,,,,,,,,,,5b2eae5577b17f0001c037af,,2022-02-12_17h16.32.316,lexical_decision_task_DD_L6,2021.2.3,Win32,60.0240096,,,,,,,,,,,0.853,1,,,,,,,,,,,,,,z,1,0.853,,,,,,,,0.540277778,-0.004166667,0,0,0,,0,37,37,116,1,BALGY,LB,z,z,./images/BALGYLB.png,,,,,,,,,,,,,,,,,,,,,,,,,,,,,,,,,,,
,,,,,,,,,,,,,,,,,5b2eae5577b17f0001c037af,,2022-02-12_17h16.32.316,lexical_decision_task_DD_L6,2021.2.3,Win32,60.0240096,,,,,,,,,,,0.735,1,,,,,,,,,,,,,,m,1,0.735,,,,,,,,0.540277778,-0.004166667,0,0,0,,0,38,38,63,1,BAKER,LB,m,m,./images/BAKERLB.png,,,,,,,,,,,,,,,,,,,,,,,,,,,,,,,,,,,
,,,,,,,,,,,,,,,,,5b2eae5577b17f0001c037af,,2022-02-12_17h16.32.316,lexical_decision_task_DD_L6,2021.2.3,Win32,60.0240096,,,,,,,,,,,0.759,1,,,,,,,,,,,,,,m,1,0.759,,,,,,,,0.540277778,-0.004166667,0,0,0,,0,39,39,77,1,WHEEL,HB,m,m,./images/WHEELHB.png,,,,,,,,,,,,,,,,,,,,,,,,,,,,,,,,,,,
,,,,,,,,,,,,,,,,,5b2eae5577b17f0001c037af,,2022-02-12_17h16.32.316,lexical_decision_task_DD_L6,2021.2.3,Win32,60.0240096,,,,,,,,,,,0.735,1,,,,,,,,,,,,,,m,1,0.735,,,,,,,,0.540277778,-0.004166667,0,0,0,,0,40,40,19,1,DONKEY,C,m,m,./images/DONKEY.png,,,,,,,,,,,,,,,,,,,,,,,,,,,,,,,,,,,
,,,,,,,,,,,,,,,,,5b2eae5577b17f0001c037af,,2022-02-12_17h16.32.316,lexical_decision_task_DD_L6,2021.2.3,Win32,60.0240096,,,,,,,,,,,0.878,1,,,,,,,,,,,,,,m,1,0.878,,,,,,,,0.540277778,-0.004166667,0,0,0,space,0,41,41,29,1,PISTOL,HB,m,m,./images/PISTOLHB.png,4.136,,,,,,,,,,,,,,,,,,,,,,,,,,,,,,,,,,
,,,,,,,,,,,,,,,,,5b2eae5577b17f0001c037af,,2022-02-12_17h16.32.316,lexical_decision_task_DD_L6,2021.2.3,Win32,60.0240096,,,,,,,,,,,0.712,1,,,,,,,,,,,,,,z,1,0.712,,,,,,,,0.540277778,-0.004166667,0,0,0,,0,42,42,87,1,TRING,C,z,z,./images/TRING.png,,,,,,,,,,,,,,,,,,,,,,,,,,,,,,,,,,,
,,,,,,,,,,,,,,,,,5b2eae5577b17f0001c037af,,2022-02-12_17h16.32.316,lexical_decision_task_DD_L6,2021.2.3,Win32,60.0240096,,,,,,,,,,,1.13,1,,,,,,,,,,,,,,m,1,1.13,,,,,,,,0.540277778,-0.004166667,0,0,0,,0,43,43,12,1,BLOKE,LB,m,m,./images/BLOKELB.png,,,,,,,,,,,,,,,,,,,,,,,,,,,,,,,,,,,
,,,,,,,,,,,,,,,,,5b2eae5577b17f0001c037af,,2022-02-12_17h16.32.316,lexical_decision_task_DD_L6,2021.2.3,Win32,60.0240096,,,,,,,,,,,0.602,1,,,,,,,,,,,,,,m,1,0.602,,,,,,,,0.540277778,-0.004166667,0,0,0,,0,44,44,67,1,POKER,C,m,m,./images/POKER.png,,,,,,,,,,,,,,,,,,,,,,,,,,,,,,,,,,,
,,,,,,,,,,,,,,,,,5b2eae5577b17f0001c037af,,2022-02-12_17h16.32.316,lexical_decision_task_DD_L6,2021.2.3,Win32,60.0240096,,,,,,,,,,,0.654,1,,,,,,,,,,,,,,z,1,0.654,,,,,,,,0.540277778,-0.004166667,0,0,0,,0,45,45,111,1,HOSSE,C,z,z,./images/HOSSE.png,,,,,,,,,,,,,,,,,,,,,,,,,,,,,,,,,,,
,,,,,,,,,,,,,,,,,5b2eae5577b17f0001c037af,,2022-02-12_17h16.32.316,lexical_decision_task_DD_L6,2021.2.3,Win32,60.0240096,,,,,,,,,,,0.778,1,,,,,,,,,,,,,,z,1,0.778,,,,,,,,0.540277778,-0.004166667,0,0,0,,0,46,46,157,1,INLER,HB,z,z,./images/INLERHB.png,,,,,,,,,,,,,,,,,,,,,,,,,,,,,,,,,,,
,,,,,,,,,,,,,,,,,5b2eae5577b17f0001c037af,,2022-02-12_17h16.32.316,lexical_decision_task_DD_L6,2021.2.3,Win32,60.0240096,,,,,,,,,,,0.737,1,,,,,,,,,,,,,,z,1,0.737,,,,,,,,0.540277778,-0.004166667,0,0,0,,0,47,47,120,1,RINED,C,z,z,./images/RINED.png,,,,,,,,,,,,,,,,,,,,,,,,,,,,,,,,,,,
,,,,,,,,,,,,,,,,,5b2eae5577b17f0001c037af,,2022-02-12_17h16.32.316,lexical_decision_task_DD_L6,2021.2.3,Win32,60.0240096,,,,,,,,,,,0.7,1,,,,,,,,,,,,,,m,1,0.7,,,,,,,,0.540277778,-0.004166667,0,0,0,,0,48,48,71,1,BUBBLE,HB,m,m,./images/BUBBLEHB.png,,,,,,,,,,,,,,,,,,,,,,,,,,,,,,,,,,,
,,,,,,,,,,,,,,,,,5b2eae5577b17f0001c037af,,2022-02-12_17h16.32.316,lexical_decision_task_DD_L6,2021.2.3,Win32,60.0240096,,,,,,,,,,,0.685,1,,,,,,,,,,,,,,m,1,0.685,,,,,,,,0.540277778,-0.004166667,0,0,0,,0,49,49,60,1,CURRY,LB,m,m,./images/CURRYLB.png,,,,,,,,,,,,,,,,,,,,,,,,,,,,,,,,,,,
,,,,,,,,,,,,,,,,,5b2eae5577b17f0001c037af,,2022-02-12_17h16.32.316,lexical_decision_task_DD_L6,2021.2.3,Win32,60.0240096,,,,,,,,,,,0.671,1,,,,,,,,,,,,,,z,1,0.671,,,,,,,,0.540277778,-0.004166667,0,0,0,,0,50,50,113,1,LINEW,LB,z,z,./images/LINEWLB.png,,,,,,,,,,,,,,,,,,,,,,,,,,,,,,,,,,,
,,,,,,,,,,,,,,,,,5b2eae5577b17f0001c037af,,2022-02-12_17h16.32.316,lexical_decision_task_DD_L6,2021.2.3,Win32,60.0240096,,,,,,,,,,,0.779,1,,,,,,,,,,,,,,z,1,0.779,,,,,,,,0.540277778,-0.004166667,0,0,0,,0,51,51,121,1,CEERS,HB,z,z,./images/CEERSHB.png,,,,,,,,,,,,,,,,,,,,,,,,,,,,,,,,,,,
,,,,,,,,,,,,,,,,,5b2eae5577b17f0001c037af,,2022-02-12_17h16.32.316,lexical_decision_task_DD_L6,2021.2.3,Win32,60.0240096,,,,,,,,,,,0.625,1,,,,,,,,,,,,,,m,1,0.625,,,,,,,,0.540277778,-0.004166667,0,0,0,,0,52,52,27,1,BUTTER,LB,m,m,./images/BUTTERLB.png,,,,,,,,,,,,,,,,,,,,,,,,,,,,,,,,,,,
,,,,,,,,,,,,,,,,,5b2eae5577b17f0001c037af,,2022-02-12_17h16.32.316,lexical_decision_task_DD_L6,2021.2.3,Win32,60.0240096,,,,,,,,,,,0.708,1,,,,,,,,,,,,,,z,1,0.708,,,,,,,,0.540277778,-0.004166667,0,0,0,,0,53,53,165,1,TROWN,C,z,z,./images/TROWN.png,,,,,,,,,,,,,,,,,,,,,,,,,,,,,,,,,,,
,,,,,,,,,,,,,,,,,5b2eae5577b17f0001c037af,,2022-02-12_17h16.32.316,lexical_decision_task_DD_L6,2021.2.3,Win32,60.0240096,,,,,,,,,,,0.772,1,,,,,,,,,,,,,,m,1,0.772,,,,,,,,0.540277778,-0.004166667,0,0,0,,0,54,54,72,1,FLASK,LB,m,m,./images/FLASKLB.png,,,,,,,,,,,,,,,,,,,,,,,,,,,,,,,,,,,
,,,,,,,,,,,,,,,,,5b2eae5577b17f0001c037af,,2022-02-12_17h16.32.316,lexical_decision_task_DD_L6,2021.2.3,Win32,60.0240096,,,,,,,,,,,0.705,1,,,,,,,,,,,,,,z,1,0.705,,,,,,,,0.540277778,-0.004166667,0,0,0,,0,55,55,125,1,MOOKY,LB,z,z,./images/MOOKYLB.png,,,,,,,,,,,,,,,,,,,,,,,,,,,,,,,,,,,
,,,,,,,,,,,,,,,,,5b2eae5577b17f0001c037af,,2022-02-12_17h16.32.316,lexical_decision_task_DD_L6,2021.2.3,Win32,60.0240096,,,,,,,,,,,0.599,1,,,,,,,,,,,,,,m,1,0.599,,,,,,,,0.540277778,-0.004166667,0,0,0,,0,56,56,6,1,STAIN,LB,m,m,./images/STAINLB.png,,,,,,,,,,,,,,,,,,,,,,,,,,,,,,,,,,,
,,,,,,,,,,,,,,,,,5b2eae5577b17f0001c037af,,2022-02-12_17h16.32.316,lexical_decision_task_DD_L6,2021.2.3,Win32,60.0240096,,,,,,,,,,,0.718,1,,,,,,,,,,,,,,z,1,0.718,,,,,,,,0.540277778,-0.004166667,0,0,0,,0,57,57,110,1,CRUNK,LB,z,z,./images/CRUNKLB.png,,,,,,,,,,,,,,,,,,,,,,,,,,,,,,,,,,,
,,,,,,,,,,,,,,,,,5b2eae5577b17f0001c037af,,2022-02-12_17h16.32.316,lexical_decision_task_DD_L6,2021.2.3,Win32,60.0240096,,,,,,,,,,,0.709,1,,,,,,,,,,,,,,m,1,0.709,,,,,,,,0.540277778,-0.004166667,0,0,0,,0,58,58,20,1,GRANNY,HB,m,m,./images/GRANNYHB.png,,,,,,,,,,,,,,,,,,,,,,,,,,,,,,,,,,,
,,,,,,,,,,,,,,,,,5b2eae5577b17f0001c037af,,2022-02-12_17h16.32.316,lexical_decision_task_DD_L6,2021.2.3,Win32,60.0240096,,,,,,,,,,,0.609,1,,,,,,,,,,,,,,m,1,0.609,,,,,,,,0.540277778,-0.004166667,0,0,0,,0,59,59,81,1,DRILL,LB,m,m,./images/DRILLLB.png,,,,,,,,,,,,,,,,,,,,,,,,,,,,,,,,,,,
,,,,,,,,,,,,,,,,,5b2eae5577b17f0001c037af,,2022-02-12_17h16.32.316,lexical_decision_task_DD_L6,2021.2.3,Win32,60.0240096,,,,,,,,,,,0.87,1,,,,,,,,,,,,,,m,1,0.87,,,,,,,,0.540277778,-0.004166667,0,0,0,,0,60,60,5,1,BAMBOO,HB,m,m,./images/BAMBOOHB.png,,,,,,,,,,,,,,,,,,,,,,,,,,,,,,,,,,,
,,,,,,,,,,,,,,,,,5b2eae5577b17f0001c037af,,2022-02-12_17h16.32.316,lexical_decision_task_DD_L6,2021.2.3,Win32,60.0240096,,,,,,,,,,,0.752,1,,,,,,,,,,,,,,m,1,0.752,,,,,,,,0.540277778,-0.004166667,0,0,0,,0,61,61,65,1,SPINE,HB,m,m,./images/SPINEHB.png,,,,,,,,,,,,,,,,,,,,,,,,,,,,,,,,,,,
,,,,,,,,,,,,,,,,,5b2eae5577b17f0001c037af,,2022-02-12_17h16.32.316,lexical_decision_task_DD_L6,2021.2.3,Win32,60.0240096,,,,,,,,,,,0.806,1,,,,,,,,,,,,,,m,1,0.806,,,,,,,,0.540277778,-0.004166667,0,0,0,,0,62,62,32,1,HOCKEY,HB,m,m,./images/HOCKEYHB.png,,,,,,,,,,,,,,,,,,,,,,,,,,,,,,,,,,,
,,,,,,,,,,,,,,,,,5b2eae5577b17f0001c037af,,2022-02-12_17h16.32.316,lexical_decision_task_DD_L6,2021.2.3,Win32,60.0240096,,,,,,,,,,,0.588,1,,,,,,,,,,,,,,m,1,0.588,,,,,,,,0.540277778,-0.004166667,0,0,0,,0,63,63,75,1,HAMMER,LB,m,m,./images/HAMMERLB.png,,,,,,,,,,,,,,,,,,,,,,,,,,,,,,,,,,,
,,,,,,,,,,,,,,,,,5b2eae5577b17f0001c037af,,2022-02-12_17h16.32.316,lexical_decision_task_DD_L6,2021.2.3,Win32,60.0240096,,,,,,,,,,,0.744,1,,,,,,,,,,,,,,z,1,0.744,,,,,,,,0.540277778,-0.004166667,0,0,0,,0,64,64,118,1,BAVEL,HB,z,z,./images/BAVELHB.png,,,,,,,,,,,,,,,,,,,,,,,,,,,,,,,,,,,
,,,,,,,,,,,,,,,,,5b2eae5577b17f0001c037af,,2022-02-12_17h16.32.316,lexical_decision_task_DD_L6,2021.2.3,Win32,60.0240096,,,,,,,,,,,0.737,1,,,,,,,,,,,,,,m,1,0.737,,,,,,,,0.540277778,-0.004166667,0,0,0,,0,65,65,58,1,CANOE,C,m,m,./images/CANOE.png,,,,,,,,,,,,,,,,,,,,,,,,,,,,,,,,,,,
,,,,,,,,,,,,,,,,,5b2eae5577b17f0001c037af,,2022-02-12_17h16.32.316,lexical_decision_task_DD_L6,2021.2.3,Win32,60.0240096,,,,,,,,,,,0.735,1,,,,,,,,,,,,,,m,1,0.735,,,,,,,,0.540277778,-0.004166667,0,0,0,,0,66,66,64,1,BRIDE,C,m,m,./images/BRIDE.png,,,,,,,,,,,,,,,,,,,,,,,,,,,,,,,,,,,
,,,,,,,,,,,,,,,,,5b2eae5577b17f0001c037af,,2022-02-12_17h16.32.316,lexical_decision_task_DD_L6,2021.2.3,Win32,60.0240096,,,,,,,,,,,2.03,1,,,,,,,,,,,,,,z,1,2.03,,,,,,,,0.540277778,-0.004166667,0,0,0,,0,67,67,158,1,EGECT,LB,z,z,./images/EGECTLB.png,,,,,,,,,,,,,,,,,,,,,,,,,,,,,,,,,,,
,,,,,,,,,,,,,,,,,5b2eae5577b17f0001c037af,,2022-02-12_17h16.32.316,lexical_decision_task_DD_L6,2021.2.3,Win32,60.0240096,,,,,,,,,,,0.702,1,,,,,,,,,,,,,,m,1,0.702,,,,,,,,0.540277778,-0.004166667,0,0,0,,0,68,68,56,1,HEATER,HB,m,m,./images/HEATERHB.png,,,,,,,,,,,,,,,,,,,,,,,,,,,,,,,,,,,
,,,,,,,,,,,,,,,,,5b2eae5577b17f0001c037af,,2022-02-12_17h16.32.316,lexical_decision_task_DD_L6,2021.2.3,Win32,60.0240096,,,,,,,,,,,0.872,1,,,,,,,,,,,,,,m,1,0.872,,,,,,,,0.540277778,-0.004166667,0,0,0,,0,69,69,11,1,MEDAL,HB,m,m,./images/MEDALHB.png,,,,,,,,,,,,,,,,,,,,,,,,,,,,,,,,,,,
,,,,,,,,,,,,,,,,,5b2eae5577b17f0001c037af,,2022-02-12_17h16.32.316,lexical_decision_task_DD_L6,2021.2.3,Win32,60.0240096,,,,,,,,,,,1.139,1,,,,,,,,,,,,,,z,1,1.139,,,,,,,,0.540277778,-0.004166667,0,0,0,,0,70,70,151,1,TINKY,HB,z,z,./images/TINKYHB.png,,,,,,,,,,,,,,,,,,,,,,,,,,,,,,,,,,,
,,,,,,,,,,,,,,,,,5b2eae5577b17f0001c037af,,2022-02-12_17h16.32.316,lexical_decision_task_DD_L6,2021.2.3,Win32,60.0240096,,,,,,,,,,,0.827,1,,,,,,,,,,,,,,z,1,0.827,,,,,,,,0.540277778,-0.004166667,0,0,0,,0,71,71,156,1,HIXES,C,z,z,./images/HIXES.png,,,,,,,,,,,,,,,,,,,,,,,,,,,,,,,,,,,
,,,,,,,,,,,,,,,,,5b2eae5577b17f0001c037af,,2022-02-12_17h16.32.316,lexical_decision_task_DD_L6,2021.2.3,Win32,60.0240096,,,,,,,,,,,0.742,1,,,,,,,,,,,,,,z,1,0.742,,,,,,,,0.540277778,-0.004166667,0,0,0,,0,72,72,143,1,MONGS,LB,z,z,./images/MONGSLB.png,,,,,,,,,,,,,,,,,,,,,,,,,,,,,,,,,,,
,,,,,,,,,,,,,,,,,5b2eae5577b17f0001c037af,,2022-02-12_17h16.32.316,lexical_decision_task_DD_L6,2021.2.3,Win32,60.0240096,,,,,,,,,,,0.819,1,,,,,,,,,,,,,,z,1,0.819,,,,,,,,0.540277778,-0.004166667,0,0,0,,0,73,73,107,1,FASKS,LB,z,z,./images/FASKSLB.png,,,,,,,,,,,,,,,,,,,,,,,,,,,,,,,,,,,
,,,,,,,,,,,,,,,,,5b2eae5577b17f0001c037af,,2022-02-12_17h16.32.316,lexical_decision_task_DD_L6,2021.2.3,Win32,60.0240096,,,,,,,,,,,0.756,1,,,,,,,,,,,,,,z,1,0.756,,,,,,,,0.540277778,-0.004166667,0,0,0,,0,74,74,115,1,MAWNS,HB,z,z,./images/MAWNSHB.png,,,,,,,,,,,,,,,,,,,,,,,,,,,,,,,,,,,
,,,,,,,,,,,,,,,,,5b2eae5577b17f0001c037af,,2022-02-12_17h16.32.316,lexical_decision_task_DD_L6,2021.2.3,Win32,60.0240096,,,,,,,,,,,0.652,1,,,,,,,,,,,,,,m,1,0.652,,,,,,,,0.540277778,-0.004166667,0,0,0,,0,75,75,48,1,SHIELD,LB,m,m,./images/SHIELDLB.png,,,,,,,,,,,,,,,,,,,,,,,,,,,,,,,,,,,
,,,,,,,,,,,,,,,,,5b2eae5577b17f0001c037af,,2022-02-12_17h16.32.316,lexical_decision_task_DD_L6,2021.2.3,Win32,60.0240096,,,,,,,,,,,0.588,1,,,,,,,,,,,,,,m,1,0.588,,,,,,,,0.540277778,-0.004166667,0,0,0,,0,76,76,22,1,CLOWN,C,m,m,./images/CLOWN.png,,,,,,,,,,,,,,,,,,,,,,,,,,,,,,,,,,,
,,,,,,,,,,,,,,,,,5b2eae5577b17f0001c037af,,2022-02-12_17h16.32.316,lexical_decision_task_DD_L6,2021.2.3,Win32,60.0240096,,,,,,,,,,,0.7,1,,,,,,,,,,,,,,m,1,0.7,,,,,,,,0.540277778,-0.004166667,0,0,0,,0,77,77,53,1,POSTER,HB,m,m,./images/POSTERHB.png,,,,,,,,,,,,,,,,,,,,,,,,,,,,,,,,,,,
,,,,,,,,,,,,,,,,,5b2eae5577b17f0001c037af,,2022-02-12_17h16.32.316,lexical_decision_task_DD_L6,2021.2.3,Win32,60.0240096,,,,,,,,,,,0.82,1,,,,,,,,,,,,,,z,1,0.82,,,,,,,,0.540277778,-0.004166667,0,0,0,,0,78,78,109,1,BURGE,HB,z,z,./images/BURGEHB.png,,,,,,,,,,,,,,,,,,,,,,,,,,,,,,,,,,,
,,,,,,,,,,,,,,,,,5b2eae5577b17f0001c037af,,2022-02-12_17h16.32.316,lexical_decision_task_DD_L6,2021.2.3,Win32,60.0240096,,,,,,,,,,,0.745,1,,,,,,,,,,,,,,z,1,0.745,,,,,,,,0.540277778,-0.004166667,0,0,0,,0,79,79,122,1,BLOOT,LB,z,z,./images/BLOOTLB.png,,,,,,,,,,,,,,,,,,,,,,,,,,,,,,,,,,,
,,,,,,,,,,,,,,,,,5b2eae5577b17f0001c037af,,2022-02-12_17h16.32.316,lexical_decision_task_DD_L6,2021.2.3,Win32,60.0240096,,,,,,,,,,,0.67,1,,,,,,,,,,,,,,z,1,0.67,,,,,,,,0.540277778,-0.004166667,0,0,0,,0,80,80,135,1,JOODY,C,z,z,./images/JOODY.png,,,,,,,,,,,,,,,,,,,,,,,,,,,,,,,,,,,
,,,,,,,,,,,,,,,,,5b2eae5577b17f0001c037af,,2022-02-12_17h16.32.316,lexical_decision_task_DD_L6,2021.2.3,Win32,60.0240096,,,,,,,,,,,0.631,1,,,,,,,,,,,,,,m,1,0.631,,,,,,,,0.540277778,-0.004166667,0,0,0,,0,81,81,0,1,WALNUT,LB,m,m,./images/WALNUTLB.png,,,,,,,,,,,,,,,,,,,,,,,,,,,,,,,,,,,
,,,,,,,,,,,,,,,,,5b2eae5577b17f0001c037af,,2022-02-12_17h16.32.316,lexical_decision_task_DD_L6,2021.2.3,Win32,60.0240096,,,,,,,,,,,0.654,1,,,,,,,,,,,,,,z,1,0.654,,,,,,,,0.540277778,-0.004166667,0,0,0,,0,82,82,92,1,PAIMS,LB,z,z,./images/PAIMSLB.png,,,,,,,,,,,,,,,,,,,,,,,,,,,,,,,,,,,
,,,,,,,,,,,,,,,,,5b2eae5577b17f0001c037af,,2022-02-12_17h16.32.316,lexical_decision_task_DD_L6,2021.2.3,Win32,60.0240096,,,,,,,,,,,0.709,1,,,,,,,,,,,,,,m,1,0.709,,,,,,,,0.536111111,-0.018055556,0,0,0,space,0,83,83,62,1,MAMMAL,HB,m,m,./images/MAMMALHB.png,3.367,,,,,,,,,,,,,,,,,,,,,,,,,,,,,,,,,,
,,,,,,,,,,,,,,,,,5b2eae5577b17f0001c037af,,2022-02-12_17h16.32.316,lexical_decision_task_DD_L6,2021.2.3,Win32,60.0240096,,,,,,,,,,,0.623,1,,,,,,,,,,,,,,m,1,0.623,,,,,,,,0.536111111,-0.018055556,0,0,0,,0,84,84,45,1,MONKEY,LB,m,m,./images/MONKEYLB.png,,,,,,,,,,,,,,,,,,,,,,,,,,,,,,,,,,,
,,,,,,,,,,,,,,,,,5b2eae5577b17f0001c037af,,2022-02-12_17h16.32.316,lexical_decision_task_DD_L6,2021.2.3,Win32,60.0240096,,,,,,,,,,,0.588,1,,,,,,,,,,,,,,m,1,0.588,,,,,,,,0.536111111,-0.018055556,0,0,0,,0,85,85,55,1,ALLEY,C,m,m,./images/ALLEY.png,,,,,,,,,,,,,,,,,,,,,,,,,,,,,,,,,,,
,,,,,,,,,,,,,,,,,5b2eae5577b17f0001c037af,,2022-02-12_17h16.32.316,lexical_decision_task_DD_L6,2021.2.3,Win32,60.0240096,,,,,,,,,,,0.679,1,,,,,,,,,,,,,,z,1,0.679,,,,,,,,0.536111111,-0.018055556,0,0,0,,0,86,86,148,1,JOMS,HB,z,z,./images/JOMSHB.png,,,,,,,,,,,,,,,,,,,,,,,,,,,,,,,,,,,
,,,,,,,,,,,,,,,,,5b2eae5577b17f0001c037af,,2022-02-12_17h16.32.316,lexical_decision_task_DD_L6,2021.2.3,Win32,60.0240096,,,,,,,,,,,0.743,1,,,,,,,,,,,,,,z,1,0.743,,,,,,,,0.536111111,-0.018055556,0,0,0,,0,87,87,99,1,BACKY,C,z,z,./images/BACKY.png,,,,,,,,,,,,,,,,,,,,,,,,,,,,,,,,,,,
,,,,,,,,,,,,,,,,,5b2eae5577b17f0001c037af,,2022-02-12_17h16.32.316,lexical_decision_task_DD_L6,2021.2.3,Win32,60.0240096,,,,,,,,,,,0.629,1,,,,,,,,,,,,,,m,1,0.629,,,,,,,,0.536111111,-0.018055556,0,0,0,,0,88,88,36,1,BOILER,LB,m,m,./images/BOILERLB.png,,,,,,,,,,,,,,,,,,,,,,,,,,,,,,,,,,,
,,,,,,,,,,,,,,,,,5b2eae5577b17f0001c037af,,2022-02-12_17h16.32.316,lexical_decision_task_DD_L6,2021.2.3,Win32,60.0240096,,,,,,,,,,,0.675,1,,,,,,,,,,,,,,z,1,0.675,,,,,,,,0.536111111,-0.018055556,0,0,0,,0,89,89,108,1,GRUET,C,z,z,./images/GRUET.png,,,,,,,,,,,,,,,,,,,,,,,,,,,,,,,,,,,
,,,,,,,,,,,,,,,,,5b2eae5577b17f0001c037af,,2022-02-12_17h16.32.316,lexical_decision_task_DD_L6,2021.2.3,Win32,60.0240096,,,,,,,,,,,0.836,1,,,,,,,,,,,,,,m,1,0.836,,,,,,,,0.536111111,-0.018055556,0,0,0,,0,90,90,50,1,PILOT,HB,m,m,./images/PILOTHB.png,,,,,,,,,,,,,,,,,,,,,,,,,,,,,,,,,,,
,,,,,,,,,,,,,,,,,5b2eae5577b17f0001c037af,,2022-02-12_17h16.32.316,lexical_decision_task_DD_L6,2021.2.3,Win32,60.0240096,,,,,,,,,,,0.755,1,,,,,,,,,,,,,,z,1,0.755,,,,,,,,0.536111111,-0.018055556,0,0,0,,0,91,91,133,1,POWDY,HB,z,z,./images/POWDYHB.png,,,,,,,,,,,,,,,,,,,,,,,,,,,,,,,,,,,
,,,,,,,,,,,,,,,,,5b2eae5577b17f0001c037af,,2022-02-12_17h16.32.316,lexical_decision_task_DD_L6,2021.2.3,Win32,60.0240096,,,,,,,,,,,0.757,1,,,,,,,,,,,,,,m,1,0.757,,,,,,,,0.536111111,-0.018055556,0,0,0,,0,92,92,74,1,JUMPER,HB,m,m,./images/JUMPERHB.png,,,,,,,,,,,,,,,,,,,,,,,,,,,,,,,,,,,
,,,,,,,,,,,,,,,,,5b2eae5577b17f0001c037af,,2022-02-12_17h16.32.316,lexical_decision_task_DD_L6,2021.2.3,Win32,60.0240096,,,,,,,,,,,0.618,1,,,,,,,,,,,,,,m,1,0.618,,,,,,,,0.536111111,-0.018055556,0,0,0,,0,93,93,69,1,ARROW,LB,m,m,./images/ARROWLB.png,,,,,,,,,,,,,,,,,,,,,,,,,,,,,,,,,,,
,,,,,,,,,,,,,,,,,5b2eae5577b17f0001c037af,,2022-02-12_17h16.32.316,lexical_decision_task_DD_L6,2021.2.3,Win32,60.0240096,,,,,,,,,,,0.94,1,,,,,,,,,,,,,,z,1,0.94,,,,,,,,0.536111111,-0.018055556,0,0,0,,0,94,94,142,1,PLASK,HB,z,z,./images/PLASKHB.png,,,,,,,,,,,,,,,,,,,,,,,,,,,,,,,,,,,
,,,,,,,,,,,,,,,,,5b2eae5577b17f0001c037af,,2022-02-12_17h16.32.316,lexical_decision_task_DD_L6,2021.2.3,Win32,60.0240096,,,,,,,,,,,0.885,1,,,,,,,,,,,,,,z,1,0.885,,,,,,,,0.536111111,-0.018055556,0,0,0,,0,95,95,124,1,TUNCH,HB,z,z,./images/TUNCHHB.png,,,,,,,,,,,,,,,,,,,,,,,,,,,,,,,,,,,
,,,,,,,,,,,,,,,,,5b2eae5577b17f0001c037af,,2022-02-12_17h16.32.316,lexical_decision_task_DD_L6,2021.2.3,Win32,60.0240096,,,,,,,,,,,0.847,1,,,,,,,,,,,,,,z,1,0.847,,,,,,,,0.536111111,-0.018055556,0,0,0,,0,96,96,93,1,SMONE,C,z,z,./images/SMONE.png,,,,,,,,,,,,,,,,,,,,,,,,,,,,,,,,,,,
,,,,,,,,,,,,,,,,,5b2eae5577b17f0001c037af,,2022-02-12_17h16.32.316,lexical_decision_task_DD_L6,2021.2.3,Win32,60.0240096,,,,,,,,,,,0.747,1,,,,,,,,,,,,,,z,1,0.747,,,,,,,,0.536111111,-0.018055556,0,0,0,,0,97,97,138,1,PLICE,C,z,z,./images/PLICE.png,,,,,,,,,,,,,,,,,,,,,,,,,,,,,,,,,,,
,,,,,,,,,,,,,,,,,5b2eae5577b17f0001c037af,,2022-02-12_17h16.32.316,lexical_decision_task_DD_L6,2021.2.3,Win32,60.0240096,,,,,,,,,,,0.648,1,,,,,,,,,,,,,,m,1,0.648,,,,,,,,0.536111111,-0.018055556,0,0,0,,0,98,98,4,1,BOXER,C,m,m,./images/BOXER.png,,,,,,,,,,,,,,,,,,,,,,,,,,,,,,,,,,,
,,,,,,,,,,,,,,,,,5b2eae5577b17f0001c037af,,2022-02-12_17h16.32.316,lexical_decision_task_DD_L6,2021.2.3,Win32,60.0240096,,,,,,,,,,,0.673,1,,,,,,,,,,,,,,z,1,0.673,,,,,,,,0.536111111,-0.018055556,0,0,0,,0,99,99,119,1,PAFER,LB,z,z,./images/PAFERLB.png,,,,,,,,,,,,,,,,,,,,,,,,,,,,,,,,,,,
,,,,,,,,,,,,,,,,,5b2eae5577b17f0001c037af,,2022-02-12_17h16.32.316,lexical_decision_task_DD_L6,2021.2.3,Win32,60.0240096,,,,,,,,,,,0.743,0,,,,,,,,,,,,,,m,0,0.743,,,,,,,,0.536111111,-0.018055556,0,0,0,,0,100,100,127,1,NINDY,HB,z,z,./images/NINDYHB.png,,,,,,,,,,,,,,,,,,,,,,,,,,,,,,,,,,,
,,,,,,,,,,,,,,,,,5b2eae5577b17f0001c037af,,2022-02-12_17h16.32.316,lexical_decision_task_DD_L6,2021.2.3,Win32,60.0240096,,,,,,,,,,,0.618,1,,,,,,,,,,,,,,m,1,0.618,,,,,,,,0.536111111,-0.018055556,0,0,0,,0,101,101,1,1,TOWEL,C,m,m,./images/TOWEL.png,,,,,,,,,,,,,,,,,,,,,,,,,,,,,,,,,,,
,,,,,,,,,,,,,,,,,5b2eae5577b17f0001c037af,,2022-02-12_17h16.32.316,lexical_decision_task_DD_L6,2021.2.3,Win32,60.0240096,,,,,,,,,,,0.775,1,,,,,,,,,,,,,,m,1,0.775,,,,,,,,0.536111111,-0.018055556,0,0,0,,0,102,102,66,1,STATUE,LB,m,m,./images/STATUELB.png,,,,,,,,,,,,,,,,,,,,,,,,,,,,,,,,,,,
,,,,,,,,,,,,,,,,,5b2eae5577b17f0001c037af,,2022-02-12_17h16.32.316,lexical_decision_task_DD_L6,2021.2.3,Win32,60.0240096,,,,,,,,,,,0.98,1,,,,,,,,,,,,,,m,1,0.98,,,,,,,,0.536111111,-0.018055556,0,0,0,,0,103,103,21,1,DANCER,LB,m,m,./images/DANCERLB.png,,,,,,,,,,,,,,,,,,,,,,,,,,,,,,,,,,,
,,,,,,,,,,,,,,,,,5b2eae5577b17f0001c037af,,2022-02-12_17h16.32.316,lexical_decision_task_DD_L6,2021.2.3,Win32,60.0240096,,,,,,,,,,,0.616,1,,,,,,,,,,,,,,z,1,0.616,,,,,,,,0.536111111,-0.018055556,0,0,0,,0,104,104,147,1,ZOLES,C,z,z,./images/ZOLES.png,,,,,,,,,,,,,,,,,,,,,,,,,,,,,,,,,,,
,,,,,,,,,,,,,,,,,5b2eae5577b17f0001c037af,,2022-02-12_17h16.32.316,lexical_decision_task_DD_L6,2021.2.3,Win32,60.0240096,,,,,,,,,,,0.748,1,,,,,,,,,,,,,,m,1,0.748,,,,,,,,0.536111111,-0.018055556,0,0,0,,0,105,105,33,1,SAUNA,LB,m,m,./images/SAUNALB.png,,,,,,,,,,,,,,,,,,,,,,,,,,,,,,,,,,,
,,,,,,,,,,,,,,,,,5b2eae5577b17f0001c037af,,2022-02-12_17h16.32.316,lexical_decision_task_DD_L6,2021.2.3,Win32,60.0240096,,,,,,,,,,,0.63,1,,,,,,,,,,,,,,m,1,0.63,,,,,,,,0.536111111,-0.018055556,0,0,0,,0,106,106,61,1,ARTIST,C,m,m,./images/ARTIST.png,,,,,,,,,,,,,,,,,,,,,,,,,,,,,,,,,,,
,,,,,,,,,,,,,,,,,5b2eae5577b17f0001c037af,,2022-02-12_17h16.32.316,lexical_decision_task_DD_L6,2021.2.3,Win32,60.0240096,,,,,,,,,,,0.681,1,,,,,,,,,,,,,,z,1,0.681,,,,,,,,0.536111111,-0.018055556,0,0,0,,0,107,107,106,1,CLUMS,HB,z,z,./images/CLUMSHB.png,,,,,,,,,,,,,,,,,,,,,,,,,,,,,,,,,,,
,,,,,,,,,,,,,,,,,5b2eae5577b17f0001c037af,,2022-02-12_17h16.32.316,lexical_decision_task_DD_L6,2021.2.3,Win32,60.0240096,,,,,,,,,,,0.653,1,,,,,,,,,,,,,,z,1,0.653,,,,,,,,0.536111111,-0.018055556,0,0,0,,0,108,108,104,1,GITTY,LB,z,z,./images/GITTYLB.png,,,,,,,,,,,,,,,,,,,,,,,,,,,,,,,,,,,
,,,,,,,,,,,,,,,,,5b2eae5577b17f0001c037af,,2022-02-12_17h16.32.316,lexical_decision_task_DD_L6,2021.2.3,Win32,60.0240096,,,,,,,,,,,0.731,1,,,,,,,,,,,,,,z,1,0.731,,,,,,,,0.536111111,-0.018055556,0,0,0,,0,109,109,101,1,GLEET,LB,z,z,./images/GLEETLB.png,,,,,,,,,,,,,,,,,,,,,,,,,,,,,,,,,,,
,,,,,,,,,,,,,,,,,5b2eae5577b17f0001c037af,,2022-02-12_17h16.32.316,lexical_decision_task_DD_L6,2021.2.3,Win32,60.0240096,,,,,,,,,,,0.638,1,,,,,,,,,,,,,,m,1,0.638,,,,,,,,0.536111111,-0.018055556,0,0,0,,0,110,110,78,1,BROOM,LB,m,m,./images/BROOMLB.png,,,,,,,,,,,,,,,,,,,,,,,,,,,,,,,,,,,
,,,,,,,,,,,,,,,,,5b2eae5577b17f0001c037af,,2022-02-12_17h16.32.316,lexical_decision_task_DD_L6,2021.2.3,Win32,60.0240096,,,,,,,,,,,0.682,1,,,,,,,,,,,,,,m,1,0.682,,,,,,,,0.536111111,-0.018055556,0,0,0,,0,111,111,42,1,CHAIN,LB,m,m,./images/CHAINLB.png,,,,,,,,,,,,,,,,,,,,,,,,,,,,,,,,,,,
,,,,,,,,,,,,,,,,,5b2eae5577b17f0001c037af,,2022-02-12_17h16.32.316,lexical_decision_task_DD_L6,2021.2.3,Win32,60.0240096,,,,,,,,,,,0.635,1,,,,,,,,,,,,,,z,1,0.635,,,,,,,,0.536111111,-0.018055556,0,0,0,,0,112,112,114,1,RIKES,C,z,z,./images/RIKES.png,,,,,,,,,,,,,,,,,,,,,,,,,,,,,,,,,,,
,,,,,,,,,,,,,,,,,5b2eae5577b17f0001c037af,,2022-02-12_17h16.32.316,lexical_decision_task_DD_L6,2021.2.3,Win32,60.0240096,,,,,,,,,,,0.62,1,,,,,,,,,,,,,,z,1,0.62,,,,,,,,0.536111111,-0.018055556,0,0,0,,0,113,113,96,1,KEAMS,C,z,z,./images/KEAMS.png,,,,,,,,,,,,,,,,,,,,,,,,,,,,,,,,,,,
,,,,,,,,,,,,,,,,,5b2eae5577b17f0001c037af,,2022-02-12_17h16.32.316,lexical_decision_task_DD_L6,2021.2.3,Win32,60.0240096,,,,,,,,,,,0.636,1,,,,,,,,,,,,,,m,1,0.636,,,,,,,,0.536111111,-0.018055556,0,0,0,,0,114,114,16,1,GRAPE,C,m,m,./images/GRAPE.png,,,,,,,,,,,,,,,,,,,,,,,,,,,,,,,,,,,
,,,,,,,,,,,,,,,,,5b2eae5577b17f0001c037af,,2022-02-12_17h16.32.316,lexical_decision_task_DD_L6,2021.2.3,Win32,60.0240096,,,,,,,,,,,0.666,1,,,,,,,,,,,,,,m,1,0.666,,,,,,,,0.536111111,-0.018055556,0,0,0,,0,115,115,49,1,BISHOP,C,m,m,./images/BISHOP.png,,,,,,,,,,,,,,,,,,,,,,,,,,,,,,,,,,,
,,,,,,,,,,,,,,,,,5b2eae5577b17f0001c037af,,2022-02-12_17h16.32.316,lexical_decision_task_DD_L6,2021.2.3,Win32,60.0240096,,,,,,,,,,,0.651,1,,,,,,,,,,,,,,z,1,0.651,,,,,,,,0.536111111,-0.018055556,0,0,0,,0,116,116,141,1,PLEET,C,z,z,./images/PLEET.png,,,,,,,,,,,,,,,,,,,,,,,,,,,,,,,,,,,
,,,,,,,,,,,,,,,,,5b2eae5577b17f0001c037af,,2022-02-12_17h16.32.316,lexical_decision_task_DD_L6,2021.2.3,Win32,60.0240096,,,,,,,,,,,0.918,1,,,,,,,,,,,,,,z,1,0.918,,,,,,,,0.536111111,-0.018055556,0,0,0,,0,117,117,164,1,SGREW,LB,z,z,./images/SGREWLB.png,,,,,,,,,,,,,,,,,,,,,,,,,,,,,,,,,,,
,,,,,,,,,,,,,,,,,5b2eae5577b17f0001c037af,,2022-02-12_17h16.32.316,lexical_decision_task_DD_L6,2021.2.3,Win32,60.0240096,,,,,,,,,,,0.762,1,,,,,,,,,,,,,,m,1,0.762,,,,,,,,0.536111111,-0.018055556,0,0,0,,0,118,118,8,1,CLIFF,HB,m,m,./images/CLIFFHB.png,,,,,,,,,,,,,,,,,,,,,,,,,,,,,,,,,,,
,,,,,,,,,,,,,,,,,5b2eae5577b17f0001c037af,,2022-02-12_17h16.32.316,lexical_decision_task_DD_L6,2021.2.3,Win32,60.0240096,,,,,,,,,,,0.655,1,,,,,,,,,,,,,,z,1,0.655,,,,,,,,0.536111111,-0.018055556,0,0,0,,0,119,119,132,1,SCIFF,C,z,z,./images/SCIFF.png,,,,,,,,,,,,,,,,,,,,,,,,,,,,,,,,,,,
,,,,,,,,,,,,,,,,,5b2eae5577b17f0001c037af,,2022-02-12_17h16.32.316,lexical_decision_task_DD_L6,2021.2.3,Win32,60.0240096,,,,,,,,,,,0.733,1,,,,,,,,,,,,,,m,1,0.733,,,,,,,,0.536111111,-0.018055556,0,0,0,,0,120,120,18,1,PARCEL,LB,m,m,./images/PARCELLB.png,,,,,,,,,,,,,,,,,,,,,,,,,,,,,,,,,,,
,,,,,,,,,,,,,,,,,5b2eae5577b17f0001c037af,,2022-02-12_17h16.32.316,lexical_decision_task_DD_L6,2021.2.3,Win32,60.0240096,,,,,,,,,,,0.675,1,,,,,,,,,,,,,,z,1,0.675,,,,,,,,0.536111111,-0.018055556,0,0,0,,0,121,121,150,1,NOOLS,C,z,z,./images/NOOLS.png,,,,,,,,,,,,,,,,,,,,,,,,,,,,,,,,,,,
,,,,,,,,,,,,,,,,,5b2eae5577b17f0001c037af,,2022-02-12_17h16.32.316,lexical_decision_task_DD_L6,2021.2.3,Win32,60.0240096,,,,,,,,,,,0.674,1,,,,,,,,,,,,,,m,1,0.674,,,,,,,,0.536111111,-0.018055556,0,0,0,,0,122,122,39,1,CANDY,LB,m,m,./images/CANDYLB.png,,,,,,,,,,,,,,,,,,,,,,,,,,,,,,,,,,,
,,,,,,,,,,,,,,,,,5b2eae5577b17f0001c037af,,2022-02-12_17h16.32.316,lexical_decision_task_DD_L6,2021.2.3,Win32,60.0240096,,,,,,,,,,,0.686,1,,,,,,,,,,,,,,m,1,0.686,,,,,,,,0.536111111,-0.018055556,0,0,0,,0,123,123,54,1,CHERRY,LB,m,m,./images/CHERRYLB.png,,,,,,,,,,,,,,,,,,,,,,,,,,,,,,,,,,,
,,,,,,,,,,,,,,,,,5b2eae5577b17f0001c037af,,2022-02-12_17h16.32.316,lexical_decision_task_DD_L6,2021.2.3,Win32,60.0240096,,,,,,,,,,,0.626,1,,,,,,,,,,,,,,m,1,0.626,,,,,,,,0.536111111,-0.018055556,0,0,0,,0,124,124,37,1,TIGER,C,m,m,./images/TIGER.png,,,,,,,,,,,,,,,,,,,,,,,,,,,,,,,,,,,
,,,,,,,,,,,,,,,,,5b2eae5577b17f0001c037af,,2022-02-12_17h16.32.316,lexical_decision_task_DD_L6,2021.2.3,Win32,60.0240096,,,,,,,,,,,0.679,1,,,,,,,,,,,,,,z,1,0.679,,,,,,,,0.536111111,-0.018055556,0,0,0,space,0,125,125,154,1,THINT,HB,z,z,./images/THINTHB.png,1.655,,,,,,,,,,,,,,,,,,,,,,,,,,,,,,,,,,
,,,,,,,,,,,,,,,,,5b2eae5577b17f0001c037af,,2022-02-12_17h16.32.316,lexical_decision_task_DD_L6,2021.2.3,Win32,60.0240096,,,,,,,,,,,0.669,1,,,,,,,,,,,,,,z,1,0.669,,,,,,,,0.536111111,-0.018055556,0,0,0,,0,126,126,129,1,PRANS,C,z,z,./images/PRANS.png,,,,,,,,,,,,,,,,,,,,,,,,,,,,,,,,,,,
,,,,,,,,,,,,,,,,,5b2eae5577b17f0001c037af,,2022-02-12_17h16.32.316,lexical_decision_task_DD_L6,2021.2.3,Win32,60.0240096,,,,,,,,,,,0.665,1,,,,,,,,,,,,,,m,1,0.665,,,,,,,,0.536111111,-0.018055556,0,0,0,,0,127,127,15,1,COLLAR,LB,m,m,./images/COLLARLB.png,,,,,,,,,,,,,,,,,,,,,,,,,,,,,,,,,,,
,,,,,,,,,,,,,,,,,5b2eae5577b17f0001c037af,,2022-02-12_17h16.32.316,lexical_decision_task_DD_L6,2021.2.3,Win32,60.0240096,,,,,,,,,,,0.647,1,,,,,,,,,,,,,,m,1,0.647,,,,,,,,0.536111111,-0.018055556,0,0,0,,0,128,128,24,1,FLESH,LB,m,m,./images/FLESHLB.png,,,,,,,,,,,,,,,,,,,,,,,,,,,,,,,,,,,
,,,,,,,,,,,,,,,,,5b2eae5577b17f0001c037af,,2022-02-12_17h16.32.316,lexical_decision_task_DD_L6,2021.2.3,Win32,60.0240096,,,,,,,,,,,0.702,1,,,,,,,,,,,,,,z,1,0.702,,,,,,,,0.536111111,-0.018055556,0,0,0,,0,129,129,112,1,MYING,HB,z,z,./images/MYINGHB.png,,,,,,,,,,,,,,,,,,,,,,,,,,,,,,,,,,,
,,,,,,,,,,,,,,,,,5b2eae5577b17f0001c037af,,2022-02-12_17h16.32.316,lexical_decision_task_DD_L6,2021.2.3,Win32,60.0240096,,,,,,,,,,,0.705,1,,,,,,,,,,,,,,z,1,0.705,,,,,,,,0.536111111,-0.018055556,0,0,0,,0,130,130,153,1,CLUPS,C,z,z,./images/CLUPS.png,,,,,,,,,,,,,,,,,,,,,,,,,,,,,,,,,,,
,,,,,,,,,,,,,,,,,5b2eae5577b17f0001c037af,,2022-02-12_17h16.32.316,lexical_decision_task_DD_L6,2021.2.3,Win32,60.0240096,,,,,,,,,,,0.643,1,,,,,,,,,,,,,,m,1,0.643,,,,,,,,0.536111111,-0.018055556,0,0,0,,0,131,131,76,1,MIDGET,C,m,m,./images/MIDGET.png,,,,,,,,,,,,,,,,,,,,,,,,,,,,,,,,,,,
,,,,,,,,,,,,,,,,,5b2eae5577b17f0001c037af,,2022-02-12_17h16.32.316,lexical_decision_task_DD_L6,2021.2.3,Win32,60.0240096,,,,,,,,,,,0.667,1,,,,,,,,,,,,,,z,1,0.667,,,,,,,,0.536111111,-0.018055556,0,0,0,,0,132,132,103,1,FLORT,HB,z,z,./images/FLORTHB.png,,,,,,,,,,,,,,,,,,,,,,,,,,,,,,,,,,,
,,,,,,,,,,,,,,,,,5b2eae5577b17f0001c037af,,2022-02-12_17h16.32.316,lexical_decision_task_DD_L6,2021.2.3,Win32,60.0240096,,,,,,,,,,,0.694,1,,,,,,,,,,,,,,z,1,0.694,,,,,,,,0.536111111,-0.018055556,0,0,0,,0,133,133,91,1,SHENS,HB,z,z,./images/SHENSHB.png,,,,,,,,,,,,,,,,,,,,,,,,,,,,,,,,,,,
,,,,,,,,,,,,,,,,,5b2eae5577b17f0001c037af,,2022-02-12_17h16.32.316,lexical_decision_task_DD_L6,2021.2.3,Win32,60.0240096,,,,,,,,,,,0.679,1,,,,,,,,,,,,,,m,1,0.679,,,,,,,,0.536111111,-0.018055556,0,0,0,,0,134,134,10,1,GARDEN,C,m,m,./images/GARDEN.png,,,,,,,,,,,,,,,,,,,,,,,,,,,,,,,,,,,
,,,,,,,,,,,,,,,,,5b2eae5577b17f0001c037af,,2022-02-12_17h16.32.316,lexical_decision_task_DD_L6,2021.2.3,Win32,60.0240096,,,,,,,,,,,0.65,1,,,,,,,,,,,,,,z,1,0.65,,,,,,,,0.536111111,-0.018055556,0,0,0,,0,135,135,146,1,MOOST,LB,z,z,./images/MOOSTLB.png,,,,,,,,,,,,,,,,,,,,,,,,,,,,,,,,,,,
,,,,,,,,,,,,,,,,,5b2eae5577b17f0001c037af,,2022-02-12_17h16.32.316,lexical_decision_task_DD_L6,2021.2.3,Win32,60.0240096,,,,,,,,,,,0.69,1,,,,,,,,,,,,,,m,1,0.69,,,,,,,,0.536111111,-0.018055556,0,0,0,,0,136,136,80,1,PLANET,HB,m,m,./images/PLANETHB.png,,,,,,,,,,,,,,,,,,,,,,,,,,,,,,,,,,,
,,,,,,,,,,,,,,,,,5b2eae5577b17f0001c037af,,2022-02-12_17h16.32.316,lexical_decision_task_DD_L6,2021.2.3,Win32,60.0240096,,,,,,,,,,,0.604,1,,,,,,,,,,,,,,z,1,0.604,,,,,,,,0.536111111,-0.018055556,0,0,0,,0,137,137,152,1,FRAIN,LB,z,z,./images/FRAINLB.png,,,,,,,,,,,,,,,,,,,,,,,,,,,,,,,,,,,
,,,,,,,,,,,,,,,,,5b2eae5577b17f0001c037af,,2022-02-12_17h16.32.316,lexical_decision_task_DD_L6,2021.2.3,Win32,60.0240096,,,,,,,,,,,0.709,1,,,,,,,,,,,,,,m,1,0.709,,,,,,,,0.536111111,-0.018055556,0,0,0,,0,138,138,26,1,CLOUD,HB,m,m,./images/CLOUDHB.png,,,,,,,,,,,,,,,,,,,,,,,,,,,,,,,,,,,
,,,,,,,,,,,,,,,,,5b2eae5577b17f0001c037af,,2022-02-12_17h16.32.316,lexical_decision_task_DD_L6,2021.2.3,Win32,60.0240096,,,,,,,,,,,0.797,1,,,,,,,,,,,,,,m,1,0.797,,,,,,,,0.536111111,-0.018055556,0,0,0,,0,139,139,52,1,DESERT,C,m,m,./images/DESERT.png,,,,,,,,,,,,,,,,,,,,,,,,,,,,,,,,,,,
,,,,,,,,,,,,,,,,,5b2eae5577b17f0001c037af,,2022-02-12_17h16.32.316,lexical_decision_task_DD_L6,2021.2.3,Win32,60.0240096,,,,,,,,,,,0.813,1,,,,,,,,,,,,,,m,1,0.813,,,,,,,,0.536111111,-0.018055556,0,0,0,,0,140,140,23,1,CLOTH,HB,m,m,./images/CLOTHHB.png,,,,,,,,,,,,,,,,,,,,,,,,,,,,,,,,,,,
,,,,,,,,,,,,,,,,,5b2eae5577b17f0001c037af,,2022-02-12_17h16.32.316,lexical_decision_task_DD_L6,2021.2.3,Win32,60.0240096,,,,,,,,,,,0.756,1,,,,,,,,,,,,,,m,1,0.756,,,,,,,,0.536111111,-0.018055556,0,0,0,,0,141,141,38,1,ENGINE,HB,m,m,./images/ENGINEHB.png,,,,,,,,,,,,,,,,,,,,,,,,,,,,,,,,,,,
,,,,,,,,,,,,,,,,,5b2eae5577b17f0001c037af,,2022-02-12_17h16.32.316,lexical_decision_task_DD_L6,2021.2.3,Win32,60.0240096,,,,,,,,,,,0.651,1,,,,,,,,,,,,,,m,1,0.651,,,,,,,,0.536111111,-0.018055556,0,0,0,,0,142,142,82,1,PEBBLE,C,m,m,./images/PEBBLE.png,,,,,,,,,,,,,,,,,,,,,,,,,,,,,,,,,,,
,,,,,,,,,,,,,,,,,5b2eae5577b17f0001c037af,,2022-02-12_17h16.32.316,lexical_decision_task_DD_L6,2021.2.3,Win32,60.0240096,,,,,,,,,,,0.684,1,,,,,,,,,,,,,,z,1,0.684,,,,,,,,0.536111111,-0.018055556,0,0,0,,0,143,143,90,1,NEAST,C,z,z,./images/NEAST.png,,,,,,,,,,,,,,,,,,,,,,,,,,,,,,,,,,,
,,,,,,,,,,,,,,,,,5b2eae5577b17f0001c037af,,2022-02-12_17h16.32.316,lexical_decision_task_DD_L6,2021.2.3,Win32,60.0240096,,,,,,,,,,,0.59,1,,,,,,,,,,,,,,m,1,0.59,,,,,,,,0.536111111,-0.018055556,0,0,0,,0,144,144,9,1,DIVER,LB,m,m,./images/DIVERLB.png,,,,,,,,,,,,,,,,,,,,,,,,,,,,,,,,,,,
,,,,,,,,,,,,,,,,,5b2eae5577b17f0001c037af,,2022-02-12_17h16.32.316,lexical_decision_task_DD_L6,2021.2.3,Win32,60.0240096,,,,,,,,,,,0.619,1,,,,,,,,,,,,,,m,1,0.619,,,,,,,,0.536111111,-0.018055556,0,0,0,,0,145,145,7,1,WAGON,C,m,m,./images/WAGON.png,,,,,,,,,,,,,,,,,,,,,,,,,,,,,,,,,,,
,,,,,,,,,,,,,,,,,5b2eae5577b17f0001c037af,,2022-02-12_17h16.32.316,lexical_decision_task_DD_L6,2021.2.3,Win32,60.0240096,,,,,,,,,,,0.567,1,,,,,,,,,,,,,,m,1,0.567,,,,,,,,0.536111111,-0.018055556,0,0,0,,0,146,146,43,1,STOOL,C,m,m,./images/STOOL.png,,,,,,,,,,,,,,,,,,,,,,,,,,,,,,,,,,,
,,,,,,,,,,,,,,,,,5b2eae5577b17f0001c037af,,2022-02-12_17h16.32.316,lexical_decision_task_DD_L6,2021.2.3,Win32,60.0240096,,,,,,,,,,,0.614,1,,,,,,,,,,,,,,z,1,0.614,,,,,,,,0.536111111,-0.018055556,0,0,0,,0,147,147,84,1,HAXES,C,z,z,./images/HAXES.png,,,,,,,,,,,,,,,,,,,,,,,,,,,,,,,,,,,
,,,,,,,,,,,,,,,,,5b2eae5577b17f0001c037af,,2022-02-12_17h16.32.316,lexical_decision_task_DD_L6,2021.2.3,Win32,60.0240096,,,,,,,,,,,0.732,1,,,,,,,,,,,,,,z,1,0.732,,,,,,,,0.536111111,-0.018055556,0,0,0,,0,148,148,98,1,BAMPS,LB,z,z,./images/BAMPSLB.png,,,,,,,,,,,,,,,,,,,,,,,,,,,,,,,,,,,
,,,,,,,,,,,,,,,,,5b2eae5577b17f0001c037af,,2022-02-12_17h16.32.316,lexical_decision_task_DD_L6,2021.2.3,Win32,60.0240096,,,,,,,,,,,0.801,1,,,,,,,,,,,,,,z,1,0.801,,,,,,,,0.536111111,-0.018055556,0,0,0,,0,149,149,130,1,CRILL,HB,z,z,./images/CRILLHB.png,,,,,,,,,,,,,,,,,,,,,,,,,,,,,,,,,,,
,,,,,,,,,,,,,,,,,5b2eae5577b17f0001c037af,,2022-02-12_17h16.32.316,lexical_decision_task_DD_L6,2021.2.3,Win32,60.0240096,,,,,,,,,,,0.922,1,,,,,,,,,,,,,,m,1,0.922,,,,,,,,0.536111111,-0.018055556,0,0,0,,0,150,150,35,1,LLAMA,HB,m,m,./images/LLAMAHB.png,,,,,,,,,,,,,,,,,,,,,,,,,,,,,,,,,,,
,,,,,,,,,,,,,,,,,5b2eae5577b17f0001c037af,,2022-02-12_17h16.32.316,lexical_decision_task_DD_L6,2021.2.3,Win32,60.0240096,,,,,,,,,,,0.65,1,,,,,,,,,,,,,,z,1,0.65,,,,,,,,0.536111111,-0.018055556,0,0,0,,0,151,151,144,1,NAIRY,C,z,z,./images/NAIRY.png,,,,,,,,,,,,,,,,,,,,,,,,,,,,,,,,,,,
,,,,,,,,,,,,,,,,,5b2eae5577b17f0001c037af,,2022-02-12_17h16.32.316,lexical_decision_task_DD_L6,2021.2.3,Win32,60.0240096,,,,,,,,,,,0.672,1,,,,,,,,,,,,,,z,1,0.672,,,,,,,,0.536111111,-0.018055556,0,0,0,,0,152,152,149,1,VEASE,LB,z,z,./images/VEASELB.png,,,,,,,,,,,,,,,,,,,,,,,,,,,,,,,,,,,
,,,,,,,,,,,,,,,,,5b2eae5577b17f0001c037af,,2022-02-12_17h16.32.316,lexical_decision_task_DD_L6,2021.2.3,Win32,60.0240096,,,,,,,,,,,1.144,1,,,,,,,,,,,,,,z,1,1.144,,,,,,,,0.536111111,-0.018055556,0,0,0,,0,153,153,100,1,DRIBS,HB,z,z,./images/DRIBSHB.png,,,,,,,,,,,,,,,,,,,,,,,,,,,,,,,,,,,
,,,,,,,,,,,,,,,,,5b2eae5577b17f0001c037af,,2022-02-12_17h16.32.316,lexical_decision_task_DD_L6,2021.2.3,Win32,60.0240096,,,,,,,,,,,0.645,1,,,,,,,,,,,,,,m,1,0.645,,,,,,,,0.536111111,-0.018055556,0,0,0,,0,154,154,44,1,BASKET,HB,m,m,./images/BASKETHB.png,,,,,,,,,,,,,,,,,,,,,,,,,,,,,,,,,,,
,,,,,,,,,,,,,,,,,5b2eae5577b17f0001c037af,,2022-02-12_17h16.32.316,lexical_decision_task_DD_L6,2021.2.3,Win32,60.0240096,,,,,,,,,,,0.742,1,,,,,,,,,,,,,,z,1,0.742,,,,,,,,0.536111111,-0.018055556,0,0,0,,0,155,155,128,1,GRIFT,LB,z,z,./images/GRIFTLB.png,,,,,,,,,,,,,,,,,,,,,,,,,,,,,,,,,,,
,,,,,,,,,,,,,,,,,5b2eae5577b17f0001c037af,,2022-02-12_17h16.32.316,lexical_decision_task_DD_L6,2021.2.3,Win32,60.0240096,,,,,,,,,,,0.642,1,,,,,,,,,,,,,,m,1,0.642,,,,,,,,0.536111111,-0.018055556,0,0,0,,0,156,156,13,1,BUNNY,C,m,m,./images/BUNNY.png,,,,,,,,,,,,,,,,,,,,,,,,,,,,,,,,,,,
,,,,,,,,,,,,,,,,,5b2eae5577b17f0001c037af,,2022-02-12_17h16.32.316,lexical_decision_task_DD_L6,2021.2.3,Win32,60.0240096,,,,,,,,,,,0.678,1,,,,,,,,,,,,,,m,1,0.678,,,,,,,,0.536111111,-0.018055556,0,0,0,,0,157,157,30,1,SLOPE,LB,m,m,./images/SLOPELB.png,,,,,,,,,,,,,,,,,,,,,,,,,,,,,,,,,,,
,,,,,,,,,,,,,,,,,5b2eae5577b17f0001c037af,,2022-02-12_17h16.32.316,lexical_decision_task_DD_L6,2021.2.3,Win32,60.0240096,,,,,,,,,,,0.787,1,,,,,,,,,,,,,,z,1,0.787,,,,,,,,0.536111111,-0.018055556,0,0,0,,0,158,158,159,1,CUDDY,C,z,z,./images/CUDDY.png,,,,,,,,,,,,,,,,,,,,,,,,,,,,,,,,,,,
,,,,,,,,,,,,,,,,,5b2eae5577b17f0001c037af,,2022-02-12_17h16.32.316,lexical_decision_task_DD_L6,2021.2.3,Win32,60.0240096,,,,,,,,,,,0.688,1,,,,,,,,,,,,,,z,1,0.688,,,,,,,,0.536111111,-0.018055556,0,0,0,,0,159,159,102,1,DULLE,C,z,z,./images/DULLE.png,,,,,,,,,,,,,,,,,,,,,,,,,,,,,,,,,,,
,,,,,,,,,,,,,,,,,5b2eae5577b17f0001c037af,,2022-02-12_17h16.32.316,lexical_decision_task_DD_L6,2021.2.3,Win32,60.0240096,,,,,,,,,,,1.066,1,,,,,,,,,,,,,,z,1,1.066,,,,,,,,0.536111111,-0.018055556,0,0,0,,0,160,160,145,1,LAMEL,HB,z,z,./images/LAMELHB.png,,,,,,,,,,,,,,,,,,,,,,,,,,,,,,,,,,,
,,,,,,,,,,,,,,,,,5b2eae5577b17f0001c037af,,2022-02-12_17h16.32.316,lexical_decision_task_DD_L6,2021.2.3,Win32,60.0240096,,,,,,,,,,,0.9,1,,,,,,,,,,,,,,z,1,0.9,,,,,,,,0.536111111,-0.018055556,0,0,0,,0,161,161,166,1,SHORY,HB,z,z,./images/SHORYHB.png,,,,,,,,,,,,,,,,,,,,,,,,,,,,,,,,,,,
,,,,,,,,,,,,,,,,,5b2eae5577b17f0001c037af,,2022-02-12_17h16.32.316,lexical_decision_task_DD_L6,2021.2.3,Win32,60.0240096,,,,,,,,,,,0.704,1,,,,,,,,,,,,,,m,1,0.704,,,,,,,,0.536111111,-0.018055556,0,0,0,,0,162,162,83,1,WHISKY,HB,m,m,./images/WHISKYHB.png,,,,,,,,,,,,,,,,,,,,,,,,,,,,,,,,,,,
,,,,,,,,,,,,,,,,,5b2eae5577b17f0001c037af,,2022-02-12_17h16.32.316,lexical_decision_task_DD_L6,2021.2.3,Win32,60.0240096,,,,,,,,,,,0.648,1,,,,,,,,,,,,,,z,1,0.648,,,,,,,,0.536111111,-0.018055556,0,0,0,,0,163,163,86,1,AIFED,LB,z,z,./images/AIFEDLB.png,,,,,,,,,,,,,,,,,,,,,,,,,,,,,,,,,,,
,,,,,,,,,,,,,,,,,5b2eae5577b17f0001c037af,,2022-02-12_17h16.32.316,lexical_decision_task_DD_L6,2021.2.3,Win32,60.0240096,,,,,,,,,,,0.832,1,,,,,,,,,,,,,,z,1,0.832,,,,,,,,0.536111111,-0.018055556,0,0,0,,0,164,164,85,1,CHULK,HB,z,z,./images/CHULKHB.png,,,,,,,,,,,,,,,,,,,,,,,,,,,,,,,,,,,
,,,,,,,,,,,,,,,,,5b2eae5577b17f0001c037af,,2022-02-12_17h16.32.316,lexical_decision_task_DD_L6,2021.2.3,Win32,60.0240096,,,,,,,,,,,0.74,1,,,,,,,,,,,,,,m,1,0.74,,,,,,,,0.536111111,-0.018055556,0,0,0,,0,165,165,3,1,CRATER,LB,m,m,./images/CRATERLB.png,,,,,,,,,,,,,,,,,,,,,,,,,,,,,,,,,,,
,,,,,,,,,,,,,,,,,5b2eae5577b17f0001c037af,,2022-02-12_17h16.32.316,lexical_decision_task_DD_L6,2021.2.3,Win32,60.0240096,,,,,,,,,,,0.738,1,,,,,,,,,,,,,,z,1,0.738,,,,,,,,0.536111111,-0.018055556,0,0,0,,0,166,166,161,1,BLAPS,LB,z,z,./images/BLAPSLB.png,,,,,,,,,,,,,,,,,,,,,,,,,,,,,,,,,,,
,,,,,,,,,,,,,,,,,5b2eae5577b17f0001c037af,,2022-02-12_17h16.32.316,lexical_decision_task_DD_L6,2021.2.3,Win32,60.0240096,,,,,,,,,,,0.722,1,,,,,,,,,,,,,,z,1,0.722,,,,,,,,0.536111111,-0.018055556,0,0,0,,0,167,167,117,1,STEEG,C,z,z,./images/STEEG.png,,,,,,,,,,,,,,,,,,,,,,,,,,,,,,,,,,,
,,,,,,,,,,,,,,,,,5b2eae5577b17f0001c037af,,2022-02-12_17h16.32.316,lexical_decision_task_DD_L6,2021.2.3,Win32,60.0240096,,,,,,,,,,,,,,,,,,,,,,,,,,,,,,,,,,,,,,,,,,,,,,,,How likely will it be that you will recognize the words presented clearly on a scale of 0 (not likely) to 100 (most likely)?,,,,,-0.018055556,-0.415277778,1,0,0,jol_adv,3,22.204,0,0,0,0,1,,,,,,,,,,,,,,,,,,,,,
,,,,,,,,,,,,,,,,,5b2eae5577b17f0001c037af,,2022-02-12_17h16.32.316,lexical_decision_task_DD_L6,2021.2.3,Win32,60.0240096,,,,,,,,,,,,,,,,,,,,,,,,,,,,,,,,,,,,,,,,,,,,,,,,How likely will it be that you will recognize the words presented slighly blurred on a scale of 0 (not likely) to 100 (most likely)?,,,,,,,,,,,5,21.833,0,1,1,1,1,,,,,,,,,,,,,,,,,,,,,
,,,,,,,,,,,,,,,,,5b2eae5577b17f0001c037af,,2022-02-12_17h16.32.316,lexical_decision_task_DD_L6,2021.2.3,Win32,60.0240096,,,,,,,,,,,,,,,,,,,,,,,,,,,,,,,,,,,,,,,,,,,,,,,,How likely will it be that you will recognize the words presented very blurred on a scale of 0 (not likely) to 100 (most likely)?,,,,,,,,,,,3,3.213,0,2,2,2,1,,,,,,,,,,,,,,,,,,,,,
,,-0.043055556,-0.401388889,1,0,0,,,,,,1,test,"In the next phase you will be presented with the words from the the first phase. Your job is to decide whether you remember seeing the word or not. If you remember seeing the word press ""old"" or type ""m"". If you do not remember seeing the word press ""new"" or type ""z"". Please press the space bar or click on continue to begin. ",,,5b2eae5577b17f0001c037af,,2022-02-12_17h16.32.316,lexical_decision_task_DD_L6,2021.2.3,Win32,60.0240096,,,,,,,,,,,,,,,,,,,,,,,,,,,,,,,,,,,,,,,,,,,,,,,,,,,,,,,,,,,,,,,,,,instr_done_button,0,0,0,0,1,,,,,,,,,,,,,,,
space,38.92,-0.001388889,-0.302777778,0,0,0,,,,,,1,test,"In the next phase you will be presented with the words from the the first phase. Your job is to decide whether you remember seeing the word or not. If you remember seeing the word press ""old"" or type ""m"". If you do not remember seeing the word press ""new"" or type ""z"". Please press the space bar or click on continue to begin. ",,,5b2eae5577b17f0001c037af,,2022-02-12_17h16.32.316,lexical_decision_task_DD_L6,2021.2.3,Win32,60.0240096,,,,,,,,,,,,,,,,,,,,,,,,,,,,,,,,,,,,,,,,,,,,,,,,,,,,,,,,,,,,,,,,,,,1,0,1,0,1,,,,,,,,,,,,,,,
space,1.297,-0.001388889,-0.294444444,0,0,0,,,,,,1,test,"In the next phase you will be presented with the words from the the first phase. Your job is to decide whether you remember seeing the word or not. If you remember seeing the word press ""old"" or type ""m"". If you do not remember seeing the word press ""new"" or type ""z"". Please press the space bar or click on continue to begin. ",,,5b2eae5577b17f0001c037af,,2022-02-12_17h16.32.316,lexical_decision_task_DD_L6,2021.2.3,Win32,60.0240096,,,,,,,,,,,,,,,,,,,,,,,,,,,,,,,,,,,,,,,,,,,,,,,,,,,,,,,,,,,,,,,,,,,2,0,2,0,1,,,,,,,,,,,,,,,
space,0.581,-0.001388889,-0.294444444,0,0,0,,,,,,1,test,"In the next phase you will be presented with the words from the the first phase. Your job is to decide whether you remember seeing the word or not. If you remember seeing the word press ""old"" or type ""m"". If you do not remember seeing the word press ""new"" or type ""z"". Please press the space bar or click on continue to begin. ",,,5b2eae5577b17f0001c037af,,2022-02-12_17h16.32.316,lexical_decision_task_DD_L6,2021.2.3,Win32,60.0240096,,,,,,,,,,,,,,,,,,,,,,,,,,,,,,,,,,,,,,,,,,,,,,,,,,,,,,,,,,,,,,,,,,,3,0,3,0,1,,,,,,,,,,,,,,,
space,0.532,-0.001388889,-0.294444444,0,0,0,,,,,,1,test,"In the next phase you will be presented with the words from the the first phase. Your job is to decide whether you remember seeing the word or not. If you remember seeing the word press ""old"" or type ""m"". If you do not remember seeing the word press ""new"" or type ""z"". Please press the space bar or click on continue to begin. ",,,5b2eae5577b17f0001c037af,,2022-02-12_17h16.32.316,lexical_decision_task_DD_L6,2021.2.3,Win32,60.0240096,,,,,,,,,,,,,,,,,,,,,,,,,,,,,,,,,,,,,,,,,,,,,,,,,,,,,,,,,,,,,,,,,,,4,0,4,0,1,,,,,,,,,,,,,,,
,,,,,,,,,,,,,,,,,5b2eae5577b17f0001c037af,,2022-02-12_17h16.32.316,lexical_decision_task_DD_L6,2021.2.3,Win32,60.0240096,,,,,,,,,,,4.898,0,,,,,,,,,,,,,,,,,,,,,,,,-0.001388889,-0.294444444,0,0,0,,,,,,,BELLY,C,z,y,./images/BELLY.png,,,,,,,,,,,,,,,,,,,,,m,0,4.898,,,,,,,,0,0,0,94,1
,,,,,,,,,,,,,,,,,5b2eae5577b17f0001c037af,,2022-02-12_17h16.32.316,lexical_decision_task_DD_L6,2021.2.3,Win32,60.0240096,,,,,,,,,,,1.569,1,,,,,,,,,,,,,,,,,,,,,,,,-0.001388889,-0.294444444,0,0,0,,,,,,,ENGINE,HB,m,y,./images/ENGINEHB.png,,,,,,,,,,,,,,,,,,,,,m,1,1.569,,,,,,,,0,1,1,38,1
,,,,,,,,,,,,,,,,,5b2eae5577b17f0001c037af,,2022-02-12_17h16.32.316,lexical_decision_task_DD_L6,2021.2.3,Win32,60.0240096,,,,,,,,,,,0.733,1,,,,,,,,,,,,,,,,,,,,,,,,-0.001388889,-0.294444444,0,0,0,,,,,,,CHALK,C,m,y,./images/CHALK.png,,,,,,,,,,,,,,,,,,,,,m,1,0.733,,,,,,,,0,2,2,25,1
,,,,,,,,,,,,,,,,,5b2eae5577b17f0001c037af,,2022-02-12_17h16.32.316,lexical_decision_task_DD_L6,2021.2.3,Win32,60.0240096,,,,,,,,,,,1.718,1,,,,,,,,,,,,,,,,,,,,,,,,-0.001388889,-0.294444444,0,0,0,,,,,,,FALCON,C,z,y,./images/FALCON.png,,,,,,,,,,,,,,,,,,,,,z,1,1.718,,,,,,,,0,3,3,112,1
,,,,,,,,,,,,,,,,,5b2eae5577b17f0001c037af,,2022-02-12_17h16.32.316,lexical_decision_task_DD_L6,2021.2.3,Win32,60.0240096,,,,,,,,,,,0.851,1,,,,,,,,,,,,,,,,,,,,,,,,-0.001388889,-0.294444444,0,0,0,,,,,,,CURRY,LB,m,y,./images/CURRYLB.png,,,,,,,,,,,,,,,,,,,,,m,1,0.851,,,,,,,,0,4,4,60,1
,,,,,,,,,,,,,,,,,5b2eae5577b17f0001c037af,,2022-02-12_17h16.32.316,lexical_decision_task_DD_L6,2021.2.3,Win32,60.0240096,,,,,,,,,,,0.707,1,,,,,,,,,,,,,,,,,,,,,,,,-0.001388889,-0.294444444,0,0,0,,,,,,,WALNUT,LB,m,y,./images/WALNUTLB.png,,,,,,,,,,,,,,,,,,,,,m,1,0.707,,,,,,,,0,5,5,0,1
,,,,,,,,,,,,,,,,,5b2eae5577b17f0001c037af,,2022-02-12_17h16.32.316,lexical_decision_task_DD_L6,2021.2.3,Win32,60.0240096,,,,,,,,,,,1.214,0,,,,,,,,,,,,,,,,,,,,,,,,-0.001388889,-0.294444444,0,0,0,,,,,,,BRIDE,C,m,y,./images/BRIDE.png,,,,,,,,,,,,,,,,,,,,,z,0,1.214,,,,,,,,0,6,6,64,1
,,,,,,,,,,,,,,,,,5b2eae5577b17f0001c037af,,2022-02-12_17h16.32.316,lexical_decision_task_DD_L6,2021.2.3,Win32,60.0240096,,,,,,,,,,,1.055,1,,,,,,,,,,,,,,,,,,,,,,,,-0.001388889,-0.294444444,0,0,0,,,,,,,CHERRY,LB,m,y,./images/CHERRYLB.png,,,,,,,,,,,,,,,,,,,,,m,1,1.055,,,,,,,,0,7,7,54,1
,,,,,,,,,,,,,,,,,5b2eae5577b17f0001c037af,,2022-02-12_17h16.32.316,lexical_decision_task_DD_L6,2021.2.3,Win32,60.0240096,,,,,,,,,,,1.305,1,,,,,,,,,,,,,,,,,,,,,,,,-0.001388889,-0.294444444,0,0,0,,,,,,,TORCH,HB,z,y,./images/TORCHHB.png,,,,,,,,,,,,,,,,,,,,,z,1,1.305,,,,,,,,0,8,8,152,1
,,,,,,,,,,,,,,,,,5b2eae5577b17f0001c037af,,2022-02-12_17h16.32.316,lexical_decision_task_DD_L6,2021.2.3,Win32,60.0240096,,,,,,,,,,,0.866,1,,,,,,,,,,,,,,,,,,,,,,,,-0.001388889,-0.294444444,0,0,0,,,,,,,FARMER,HB,z,y,./images/FARMERHB.png,,,,,,,,,,,,,,,,,,,,,z,1,0.866,,,,,,,,0,9,9,149,1
,,,,,,,,,,,,,,,,,5b2eae5577b17f0001c037af,,2022-02-12_17h16.32.316,lexical_decision_task_DD_L6,2021.2.3,Win32,60.0240096,,,,,,,,,,,1.049,1,,,,,,,,,,,,,,,,,,,,,,,,-0.001388889,-0.294444444,0,0,0,,,,,,,FERRY,LB,m,y,./images/FERRYLB.png,,,,,,,,,,,,,,,,,,,,,m,1,1.049,,,,,,,,0,10,10,57,1
,,,,,,,,,,,,,,,,,5b2eae5577b17f0001c037af,,2022-02-12_17h16.32.316,lexical_decision_task_DD_L6,2021.2.3,Win32,60.0240096,,,,,,,,,,,1.315,1,,,,,,,,,,,,,,,,,,,,,,,,-0.001388889,-0.294444444,0,0,0,,,,,,,MIRROR,LB,z,y,./images/MIRRORLB.png,,,,,,,,,,,,,,,,,,,,,z,1,1.315,,,,,,,,0,11,11,147,1
,,,,,,,,,,,,,,,,,5b2eae5577b17f0001c037af,,2022-02-12_17h16.32.316,lexical_decision_task_DD_L6,2021.2.3,Win32,60.0240096,,,,,,,,,,,0.985,1,,,,,,,,,,,,,,,,,,,,,,,,-0.001388889,-0.294444444,0,0,0,,,,,,,BOXER,C,m,y,./images/BOXER.png,,,,,,,,,,,,,,,,,,,,,m,1,0.985,,,,,,,,0,12,12,4,1
,,,,,,,,,,,,,,,,,5b2eae5577b17f0001c037af,,2022-02-12_17h16.32.316,lexical_decision_task_DD_L6,2021.2.3,Win32,60.0240096,,,,,,,,,,,1.09,1,,,,,,,,,,,,,,,,,,,,,,,,-0.001388889,-0.294444444,0,0,0,,,,,,,CANYON,C,z,y,./images/CANYON.png,,,,,,,,,,,,,,,,,,,,,z,1,1.09,,,,,,,,0,13,13,118,1
,,,,,,,,,,,,,,,,,5b2eae5577b17f0001c037af,,2022-02-12_17h16.32.316,lexical_decision_task_DD_L6,2021.2.3,Win32,60.0240096,,,,,,,,,,,0.99,0,,,,,,,,,,,,,,,,,,,,,,,,-0.001388889,-0.294444444,0,0,0,,,,,,,SQUARE,LB,z,y,./images/SQUARELB.png,,,,,,,,,,,,,,,,,,,,,m,0,0.99,,,,,,,,0,14,14,90,1
,,,,,,,,,,,,,,,,,5b2eae5577b17f0001c037af,,2022-02-12_17h16.32.316,lexical_decision_task_DD_L6,2021.2.3,Win32,60.0240096,,,,,,,,,,,1.119,1,,,,,,,,,,,,,,,,,,,,,,,,-0.001388889,-0.294444444,0,0,0,,,,,,,TWINS,LB,z,y,./images/TWINSLB.png,,,,,,,,,,,,,,,,,,,,,z,1,1.119,,,,,,,,0,15,15,144,1
,,,,,,,,,,,,,,,,,5b2eae5577b17f0001c037af,,2022-02-12_17h16.32.316,lexical_decision_task_DD_L6,2021.2.3,Win32,60.0240096,,,,,,,,,,,1.353,0,,,,,,,,,,,,,,,,,,,,,,,,-0.001388889,-0.294444444,0,0,0,,,,,,,SNACK,C,z,y,./images/SNACK.png,,,,,,,,,,,,,,,,,,,,,m,0,1.353,,,,,,,,0,16,16,157,1
,,,,,,,,,,,,,,,,,5b2eae5577b17f0001c037af,,2022-02-12_17h16.32.316,lexical_decision_task_DD_L6,2021.2.3,Win32,60.0240096,,,,,,,,,,,0.941,1,,,,,,,,,,,,,,,,,,,,,,,,-0.001388889,-0.294444444,0,0,0,,,,,,,BLOKE,LB,m,y,./images/BLOKELB.png,,,,,,,,,,,,,,,,,,,,,m,1,0.941,,,,,,,,0,17,17,12,1
,,,,,,,,,,,,,,,,,5b2eae5577b17f0001c037af,,2022-02-12_17h16.32.316,lexical_decision_task_DD_L6,2021.2.3,Win32,60.0240096,,,,,,,,,,,1.015,1,,,,,,,,,,,,,,,,,,,,,,,,-0.001388889,-0.294444444,0,0,0,,,,,,,CANOE,C,m,y,./images/CANOE.png,,,,,,,,,,,,,,,,,,,,,m,1,1.015,,,,,,,,0,18,18,58,1
,,,,,,,,,,,,,,,,,5b2eae5577b17f0001c037af,,2022-02-12_17h16.32.316,lexical_decision_task_DD_L6,2021.2.3,Win32,60.0240096,,,,,,,,,,,0.805,1,,,,,,,,,,,,,,,,,,,,,,,,-0.001388889,-0.294444444,0,0,0,,,,,,,TULIP,HB,z,y,./images/TULIPHB.png,,,,,,,,,,,,,,,,,,,,,z,1,0.805,,,,,,,,0,19,19,92,1
,,,,,,,,,,,,,,,,,5b2eae5577b17f0001c037af,,2022-02-12_17h16.32.316,lexical_decision_task_DD_L6,2021.2.3,Win32,60.0240096,,,,,,,,,,,2.991,1,,,,,,,,,,,,,,,,,,,,,,,,-0.001388889,-0.294444444,0,0,0,,,,,,,BABOON,C,z,y,./images/BABOON.png,,,,,,,,,,,,,,,,,,,,,z,1,2.991,,,,,,,,0,20,20,142,1
,,,,,,,,,,,,,,,,,5b2eae5577b17f0001c037af,,2022-02-12_17h16.32.316,lexical_decision_task_DD_L6,2021.2.3,Win32,60.0240096,,,,,,,,,,,1.087,1,,,,,,,,,,,,,,,,,,,,,,,,-0.001388889,-0.294444444,0,0,0,,,,,,,STATUE,LB,m,y,./images/STATUELB.png,,,,,,,,,,,,,,,,,,,,,m,1,1.087,,,,,,,,0,21,21,66,1
,,,,,,,,,,,,,,,,,5b2eae5577b17f0001c037af,,2022-02-12_17h16.32.316,lexical_decision_task_DD_L6,2021.2.3,Win32,60.0240096,,,,,,,,,,,0.862,1,,,,,,,,,,,,,,,,,,,,,,,,-0.001388889,-0.294444444,0,0,0,,,,,,,THROAT,LB,z,y,./images/THROATLB.png,,,,,,,,,,,,,,,,,,,,,z,1,0.862,,,,,,,,0,22,22,120,1
,,,,,,,,,,,,,,,,,5b2eae5577b17f0001c037af,,2022-02-12_17h16.32.316,lexical_decision_task_DD_L6,2021.2.3,Win32,60.0240096,,,,,,,,,,,1.853,0,,,,,,,,,,,,,,,,,,,,,,,,-0.001388889,-0.294444444,0,0,0,,,,,,,HAMMER,LB,m,y,./images/HAMMERLB.png,,,,,,,,,,,,,,,,,,,,,z,0,1.853,,,,,,,,0,23,23,75,1
,,,,,,,,,,,,,,,,,5b2eae5577b17f0001c037af,,2022-02-12_17h16.32.316,lexical_decision_task_DD_L6,2021.2.3,Win32,60.0240096,,,,,,,,,,,0.8,0,,,,,,,,,,,,,,,,,,,,,,,,-0.001388889,-0.294444444,0,0,0,,,,,,,STORM,LB,z,y,./images/STORMLB.png,,,,,,,,,,,,,,,,,,,,,m,0,0.8,,,,,,,,0,24,24,114,1
,,,,,,,,,,,,,,,,,5b2eae5577b17f0001c037af,,2022-02-12_17h16.32.316,lexical_decision_task_DD_L6,2021.2.3,Win32,60.0240096,,,,,,,,,,,0.748,1,,,,,,,,,,,,,,,,,,,,,,,,-0.001388889,-0.294444444,0,0,0,,,,,,,WAGON,C,m,y,./images/WAGON.png,,,,,,,,,,,,,,,,,,,,,m,1,0.748,,,,,,,,0,25,25,7,1
,,,,,,,,,,,,,,,,,5b2eae5577b17f0001c037af,,2022-02-12_17h16.32.316,lexical_decision_task_DD_L6,2021.2.3,Win32,60.0240096,,,,,,,,,,,1.024,1,,,,,,,,,,,,,,,,,,,,,,,,-0.001388889,-0.294444444,0,0,0,,,,,,,BEARD,HB,z,y,./images/BEARDHB.png,,,,,,,,,,,,,,,,,,,,,z,1,1.024,,,,,,,,0,26,26,86,1
,,,,,,,,,,,,,,,,,5b2eae5577b17f0001c037af,,2022-02-12_17h16.32.316,lexical_decision_task_DD_L6,2021.2.3,Win32,60.0240096,,,,,,,,,,,0.859,0,,,,,,,,,,,,,,,,,,,,,,,,-0.001388889,-0.294444444,0,0,0,,,,,,,SHORE,LB,z,y,./images/SHORELB.png,,,,,,,,,,,,,,,,,,,,,m,0,0.859,,,,,,,,0,27,27,96,1
,,,,,,,,,,,,,,,,,5b2eae5577b17f0001c037af,,2022-02-12_17h16.32.316,lexical_decision_task_DD_L6,2021.2.3,Win32,60.0240096,,,,,,,,,,,0.799,0,,,,,,,,,,,,,,,,,,,,,,,,-0.001388889,-0.294444444,0,0,0,,,,,,,MOOSE,LB,z,y,./images/MOOSELB.png,,,,,,,,,,,,,,,,,,,,,m,0,0.799,,,,,,,,0,28,28,141,1
,,,,,,,,,,,,,,,,,5b2eae5577b17f0001c037af,,2022-02-12_17h16.32.316,lexical_decision_task_DD_L6,2021.2.3,Win32,60.0240096,,,,,,,,,,,0.704,0,,,,,,,,,,,,,,,,,,,,,,,,-0.001388889,-0.294444444,0,0,0,,,,,,,STRING,HB,z,y,./images/STRINGHB.png,,,,,,,,,,,,,,,,,,,,,m,0,0.704,,,,,,,,0,29,29,125,1
,,,,,,,,,,,,,,,,,5b2eae5577b17f0001c037af,,2022-02-12_17h16.32.316,lexical_decision_task_DD_L6,2021.2.3,Win32,60.0240096,,,,,,,,,,,0.769,0,,,,,,,,,,,,,,,,,,,,,,,,-0.001388889,-0.294444444,0,0,0,,,,,,,BERRY,HB,z,y,./images/BERRYHB.png,,,,,,,,,,,,,,,,,,,,,m,0,0.769,,,,,,,,0,30,30,131,1
,,,,,,,,,,,,,,,,,5b2eae5577b17f0001c037af,,2022-02-12_17h16.32.316,lexical_decision_task_DD_L6,2021.2.3,Win32,60.0240096,,,,,,,,,,,1.322,1,,,,,,,,,,,,,,,,,,,,,,,,-0.001388889,-0.294444444,0,0,0,,,,,,,TIGER,C,m,y,./images/TIGER.png,,,,,,,,,,,,,,,,,,,,,m,1,1.322,,,,,,,,0,31,31,37,1
,,,,,,,,,,,,,,,,,5b2eae5577b17f0001c037af,,2022-02-12_17h16.32.316,lexical_decision_task_DD_L6,2021.2.3,Win32,60.0240096,,,,,,,,,,,1.117,1,,,,,,,,,,,,,,,,,,,,,,,,-0.001388889,-0.294444444,0,0,0,,,,,,,DRUMS,C,z,y,./images/DRUMS.png,,,,,,,,,,,,,,,,,,,,,z,1,1.117,,,,,,,,0,32,32,133,1
,,,,,,,,,,,,,,,,,5b2eae5577b17f0001c037af,,2022-02-12_17h16.32.316,lexical_decision_task_DD_L6,2021.2.3,Win32,60.0240096,,,,,,,,,,,0.904,0,,,,,,,,,,,,,,,,,,,,,,,,-0.001388889,-0.294444444,0,0,0,,,,,,,SAILOR,C,z,y,./images/SAILOR.png,,,,,,,,,,,,,,,,,,,,,m,0,0.904,,,,,,,,0,33,33,151,1
,,,,,,,,,,,,,,,,,5b2eae5577b17f0001c037af,,2022-02-12_17h16.32.316,lexical_decision_task_DD_L6,2021.2.3,Win32,60.0240096,,,,,,,,,,,0.739,1,,,,,,,,,,,,,,,,,,,,,,,,-0.001388889,-0.294444444,0,0,0,,,,,,,TRIPOD,LB,z,y,./images/TRIPODLB.png,,,,,,,,,,,,,,,,,,,,,z,1,0.739,,,,,,,,0,34,34,138,1
,,,,,,,,,,,,,,,,,5b2eae5577b17f0001c037af,,2022-02-12_17h16.32.316,lexical_decision_task_DD_L6,2021.2.3,Win32,60.0240096,,,,,,,,,,,0.748,1,,,,,,,,,,,,,,,,,,,,,,,,-0.001388889,-0.294444444,0,0,0,,,,,,,BASKET,HB,m,y,./images/BASKETHB.png,,,,,,,,,,,,,,,,,,,,,m,1,0.748,,,,,,,,0,35,35,44,1
,,,,,,,,,,,,,,,,,5b2eae5577b17f0001c037af,,2022-02-12_17h16.32.316,lexical_decision_task_DD_L6,2021.2.3,Win32,60.0240096,,,,,,,,,,,0.852,0,,,,,,,,,,,,,,,,,,,,,,,,-0.001388889,-0.294444444,0,0,0,,,,,,,GARDEN,C,m,y,./images/GARDEN.png,,,,,,,,,,,,,,,,,,,,,z,0,0.852,,,,,,,,0,36,36,10,1
,,,,,,,,,,,,,,,,,5b2eae5577b17f0001c037af,,2022-02-12_17h16.32.316,lexical_decision_task_DD_L6,2021.2.3,Win32,60.0240096,,,,,,,,,,,0.8,1,,,,,,,,,,,,,,,,,,,,,,,,-0.001388889,-0.294444444,0,0,0,,,,,,,ATTIC,LB,z,y,./images/ATTICLB.png,,,,,,,,,,,,,,,,,,,,,z,1,0.8,,,,,,,,0,37,37,111,1
,,,,,,,,,,,,,,,,,5b2eae5577b17f0001c037af,,2022-02-12_17h16.32.316,lexical_decision_task_DD_L6,2021.2.3,Win32,60.0240096,,,,,,,,,,,0.788,0,,,,,,,,,,,,,,,,,,,,,,,,-0.001388889,-0.294444444,0,0,0,,,,,,,MIDGET,C,m,y,./images/MIDGET.png,,,,,,,,,,,,,,,,,,,,,z,0,0.788,,,,,,,,0,38,38,76,1
,,,,,,,,,,,,,,,,,5b2eae5577b17f0001c037af,,2022-02-12_17h16.32.316,lexical_decision_task_DD_L6,2021.2.3,Win32,60.0240096,,,,,,,,,,,0.787,1,,,,,,,,,,,,,,,,,,,,,,,,-0.001388889,-0.294444444,0,0,0,,,,,,,JUNGLE,HB,z,y,./images/JUNGLEHB.png,,,,,,,,,,,,,,,,,,,,,z,1,0.787,,,,,,,,0,39,39,167,1
,,,,,,,,,,,,,,,,,5b2eae5577b17f0001c037af,,2022-02-12_17h16.32.316,lexical_decision_task_DD_L6,2021.2.3,Win32,60.0240096,,,,,,,,,,,0.885,1,,,,,,,,,,,,,,,,,,,,,,,,-0.001388889,-0.294444444,0,0,0,,,,,,,WEASEL,HB,z,y,./images/WEASELHB.png,,,,,,,,,,,,,,,,,,,,,z,1,0.885,,,,,,,,0,40,40,164,1
,,,,,,,,,,,,,,,,,5b2eae5577b17f0001c037af,,2022-02-12_17h16.32.316,lexical_decision_task_DD_L6,2021.2.3,Win32,60.0240096,,,,,,,,,,,0.89,1,,,,,,,,,,,,,,,,,,,,,,,,-0.001388889,-0.294444444,0,0,0,space,,,,,,KITTEN,LB,z,y,./images/KITTENLB.png,1.763,,,,,,,,,,,,,,,,,,,,z,1,0.89,,,,,,,,0,41,41,129,1
,,,,,,,,,,,,,,,,,5b2eae5577b17f0001c037af,,2022-02-12_17h16.32.316,lexical_decision_task_DD_L6,2021.2.3,Win32,60.0240096,,,,,,,,,,,1.948,0,,,,,,,,,,,,,,,,,,,,,,,,-0.001388889,-0.294444444,0,0,0,,,,,,,SNAKE,C,m,y,./images/SNAKE.png,,,,,,,,,,,,,,,,,,,,,z,0,1.948,,,,,,,,0,42,42,40,1
,,,,,,,,,,,,,,,,,5b2eae5577b17f0001c037af,,2022-02-12_17h16.32.316,lexical_decision_task_DD_L6,2021.2.3,Win32,60.0240096,,,,,,,,,,,0.982,0,,,,,,,,,,,,,,,,,,,,,,,,-0.001388889,-0.294444444,0,0,0,,,,,,,JELLY,C,z,y,./images/JELLY.png,,,,,,,,,,,,,,,,,,,,,m,0,0.982,,,,,,,,0,43,43,148,1
,,,,,,,,,,,,,,,,,5b2eae5577b17f0001c037af,,2022-02-12_17h16.32.316,lexical_decision_task_DD_L6,2021.2.3,Win32,60.0240096,,,,,,,,,,,0.655,0,,,,,,,,,,,,,,,,,,,,,,,,-0.001388889,-0.294444444,0,0,0,,,,,,,HOCKEY,HB,m,y,./images/HOCKEYHB.png,,,,,,,,,,,,,,,,,,,,,z,0,0.655,,,,,,,,0,44,44,32,1
,,,,,,,,,,,,,,,,,5b2eae5577b17f0001c037af,,2022-02-12_17h16.32.316,lexical_decision_task_DD_L6,2021.2.3,Win32,60.0240096,,,,,,,,,,,0.734,0,,,,,,,,,,,,,,,,,,,,,,,,-0.001388889,-0.294444444,0,0,0,,,,,,,MEDAL,HB,m,y,./images/MEDALHB.png,,,,,,,,,,,,,,,,,,,,,z,0,0.734,,,,,,,,0,45,45,11,1
,,,,,,,,,,,,,,,,,5b2eae5577b17f0001c037af,,2022-02-12_17h16.32.316,lexical_decision_task_DD_L6,2021.2.3,Win32,60.0240096,,,,,,,,,,,0.82,1,,,,,,,,,,,,,,,,,,,,,,,,-0.001388889,-0.294444444,0,0,0,,,,,,,BAKER,LB,m,y,./images/BAKERLB.png,,,,,,,,,,,,,,,,,,,,,m,1,0.82,,,,,,,,0,46,46,63,1
,,,,,,,,,,,,,,,,,5b2eae5577b17f0001c037af,,2022-02-12_17h16.32.316,lexical_decision_task_DD_L6,2021.2.3,Win32,60.0240096,,,,,,,,,,,1.711,1,,,,,,,,,,,,,,,,,,,,,,,,-0.001388889,-0.294444444,0,0,0,,,,,,,SLOPE,LB,m,y,./images/SLOPELB.png,,,,,,,,,,,,,,,,,,,,,m,1,1.711,,,,,,,,0,47,47,30,1
,,,,,,,,,,,,,,,,,5b2eae5577b17f0001c037af,,2022-02-12_17h16.32.316,lexical_decision_task_DD_L6,2021.2.3,Win32,60.0240096,,,,,,,,,,,0.749,0,,,,,,,,,,,,,,,,,,,,,,,,-0.001388889,-0.294444444,0,0,0,,,,,,,BARREL,HB,z,y,./images/BARRELHB.png,,,,,,,,,,,,,,,,,,,,,m,0,0.749,,,,,,,,0,48,48,116,1
,,,,,,,,,,,,,,,,,5b2eae5577b17f0001c037af,,2022-02-12_17h16.32.316,lexical_decision_task_DD_L6,2021.2.3,Win32,60.0240096,,,,,,,,,,,0.669,1,,,,,,,,,,,,,,,,,,,,,,,,-0.001388889,-0.294444444,0,0,0,,,,,,,QUILL,C,z,y,./images/QUILL.png,,,,,,,,,,,,,,,,,,,,,z,1,0.669,,,,,,,,0,49,49,115,1
,,,,,,,,,,,,,,,,,5b2eae5577b17f0001c037af,,2022-02-12_17h16.32.316,lexical_decision_task_DD_L6,2021.2.3,Win32,60.0240096,,,,,,,,,,,0.846,1,,,,,,,,,,,,,,,,,,,,,,,,-0.001388889,-0.294444444,0,0,0,,,,,,,DOUGH,C,z,y,./images/DOUGH.png,,,,,,,,,,,,,,,,,,,,,z,1,0.846,,,,,,,,0,50,50,103,1
,,,,,,,,,,,,,,,,,5b2eae5577b17f0001c037af,,2022-02-12_17h16.32.316,lexical_decision_task_DD_L6,2021.2.3,Win32,60.0240096,,,,,,,,,,,0.836,1,,,,,,,,,,,,,,,,,,,,,,,,-0.001388889,-0.294444444,0,0,0,,,,,,,MOSQUE,C,z,y,./images/MOSQUE.png,,,,,,,,,,,,,,,,,,,,,z,1,0.836,,,,,,,,0,51,51,127,1
,,,,,,,,,,,,,,,,,5b2eae5577b17f0001c037af,,2022-02-12_17h16.32.316,lexical_decision_task_DD_L6,2021.2.3,Win32,60.0240096,,,,,,,,,,,0.786,0,,,,,,,,,,,,,,,,,,,,,,,,-0.001388889,-0.294444444,0,0,0,,,,,,,ARROW,LB,m,y,./images/ARROWLB.png,,,,,,,,,,,,,,,,,,,,,z,0,0.786,,,,,,,,0,52,52,69,1
,,,,,,,,,,,,,,,,,5b2eae5577b17f0001c037af,,2022-02-12_17h16.32.316,lexical_decision_task_DD_L6,2021.2.3,Win32,60.0240096,,,,,,,,,,,0.795,1,,,,,,,,,,,,,,,,,,,,,,,,-0.001388889,-0.294444444,0,0,0,,,,,,,CHAIN,LB,m,y,./images/CHAINLB.png,,,,,,,,,,,,,,,,,,,,,m,1,0.795,,,,,,,,0,53,53,42,1
,,,,,,,,,,,,,,,,,5b2eae5577b17f0001c037af,,2022-02-12_17h16.32.316,lexical_decision_task_DD_L6,2021.2.3,Win32,60.0240096,,,,,,,,,,,0.823,1,,,,,,,,,,,,,,,,,,,,,,,,-0.001388889,-0.294444444,0,0,0,,,,,,,FINGER,LB,z,y,./images/FINGERLB.png,,,,,,,,,,,,,,,,,,,,,z,1,0.823,,,,,,,,0,54,54,87,1
,,,,,,,,,,,,,,,,,5b2eae5577b17f0001c037af,,2022-02-12_17h16.32.316,lexical_decision_task_DD_L6,2021.2.3,Win32,60.0240096,,,,,,,,,,,0.894,1,,,,,,,,,,,,,,,,,,,,,,,,-0.001388889,-0.294444444,0,0,0,,,,,,,LITTER,LB,z,y,./images/LITTERLB.png,,,,,,,,,,,,,,,,,,,,,z,1,0.894,,,,,,,,0,55,55,162,1
,,,,,,,,,,,,,,,,,5b2eae5577b17f0001c037af,,2022-02-12_17h16.32.316,lexical_decision_task_DD_L6,2021.2.3,Win32,60.0240096,,,,,,,,,,,0.908,0,,,,,,,,,,,,,,,,,,,,,,,,-0.001388889,-0.294444444,0,0,0,,,,,,,BISHOP,C,m,y,./images/BISHOP.png,,,,,,,,,,,,,,,,,,,,,z,0,0.908,,,,,,,,0,56,56,49,1
,,,,,,,,,,,,,,,,,5b2eae5577b17f0001c037af,,2022-02-12_17h16.32.316,lexical_decision_task_DD_L6,2021.2.3,Win32,60.0240096,,,,,,,,,,,0.93,1,,,,,,,,,,,,,,,,,,,,,,,,-0.001388889,-0.294444444,0,0,0,,,,,,,MAGGOT,LB,z,y,./images/MAGGOTLB.png,,,,,,,,,,,,,,,,,,,,,z,1,0.93,,,,,,,,0,57,57,117,1
,,,,,,,,,,,,,,,,,5b2eae5577b17f0001c037af,,2022-02-12_17h16.32.316,lexical_decision_task_DD_L6,2021.2.3,Win32,60.0240096,,,,,,,,,,,1.118,1,,,,,,,,,,,,,,,,,,,,,,,,-0.001388889,-0.294444444,0,0,0,,,,,,,SAUNA,LB,m,y,./images/SAUNALB.png,,,,,,,,,,,,,,,,,,,,,m,1,1.118,,,,,,,,0,58,58,33,1
,,,,,,,,,,,,,,,,,5b2eae5577b17f0001c037af,,2022-02-12_17h16.32.316,lexical_decision_task_DD_L6,2021.2.3,Win32,60.0240096,,,,,,,,,,,1.348,0,,,,,,,,,,,,,,,,,,,,,,,,-0.001388889,-0.294444444,0,0,0,,,,,,,GRAIN,LB,z,y,./images/GRAINLB.png,,,,,,,,,,,,,,,,,,,,,m,0,1.348,,,,,,,,0,59,59,159,1
,,,,,,,,,,,,,,,,,5b2eae5577b17f0001c037af,,2022-02-12_17h16.32.316,lexical_decision_task_DD_L6,2021.2.3,Win32,60.0240096,,,,,,,,,,,0.795,1,,,,,,,,,,,,,,,,,,,,,,,,-0.001388889,-0.294444444,0,0,0,,,,,,,COUCH,HB,z,y,./images/COUCHHB.png,,,,,,,,,,,,,,,,,,,,,z,1,0.795,,,,,,,,0,60,60,161,1
,,,,,,,,,,,,,,,,,5b2eae5577b17f0001c037af,,2022-02-12_17h16.32.316,lexical_decision_task_DD_L6,2021.2.3,Win32,60.0240096,,,,,,,,,,,0.865,1,,,,,,,,,,,,,,,,,,,,,,,,-0.001388889,-0.294444444,0,0,0,,,,,,,STOVE,HB,m,y,./images/STOVEHB.png,,,,,,,,,,,,,,,,,,,,,m,1,0.865,,,,,,,,0,61,61,2,1
,,,,,,,,,,,,,,,,,5b2eae5577b17f0001c037af,,2022-02-12_17h16.32.316,lexical_decision_task_DD_L6,2021.2.3,Win32,60.0240096,,,,,,,,,,,0.755,1,,,,,,,,,,,,,,,,,,,,,,,,-0.001388889,-0.294444444,0,0,0,,,,,,,RAZOR,C,m,y,./images/RAZOR.png,,,,,,,,,,,,,,,,,,,,,m,1,0.755,,,,,,,,0,62,62,34,1
,,,,,,,,,,,,,,,,,5b2eae5577b17f0001c037af,,2022-02-12_17h16.32.316,lexical_decision_task_DD_L6,2021.2.3,Win32,60.0240096,,,,,,,,,,,0.77,1,,,,,,,,,,,,,,,,,,,,,,,,-0.001388889,-0.294444444,0,0,0,,,,,,,BUBBLE,HB,m,y,./images/BUBBLEHB.png,,,,,,,,,,,,,,,,,,,,,m,1,0.77,,,,,,,,0,63,63,71,1
,,,,,,,,,,,,,,,,,5b2eae5577b17f0001c037af,,2022-02-12_17h16.32.316,lexical_decision_task_DD_L6,2021.2.3,Win32,60.0240096,,,,,,,,,,,1.185,1,,,,,,,,,,,,,,,,,,,,,,,,-0.001388889,-0.294444444,0,0,0,,,,,,,COLLAR,LB,m,y,./images/COLLARLB.png,,,,,,,,,,,,,,,,,,,,,m,1,1.185,,,,,,,,0,64,64,15,1
,,,,,,,,,,,,,,,,,5b2eae5577b17f0001c037af,,2022-02-12_17h16.32.316,lexical_decision_task_DD_L6,2021.2.3,Win32,60.0240096,,,,,,,,,,,0.969,0,,,,,,,,,,,,,,,,,,,,,,,,-0.001388889,-0.294444444,0,0,0,,,,,,,SMOKER,HB,z,y,./images/SMOKERHB.png,,,,,,,,,,,,,,,,,,,,,m,0,0.969,,,,,,,,0,65,65,110,1
,,,,,,,,,,,,,,,,,5b2eae5577b17f0001c037af,,2022-02-12_17h16.32.316,lexical_decision_task_DD_L6,2021.2.3,Win32,60.0240096,,,,,,,,,,,1.639,1,,,,,,,,,,,,,,,,,,,,,,,,-0.001388889,-0.294444444,0,0,0,,,,,,,PLANK,C,z,y,./images/PLANK.png,,,,,,,,,,,,,,,,,,,,,z,1,1.639,,,,,,,,0,66,66,85,1
,,,,,,,,,,,,,,,,,5b2eae5577b17f0001c037af,,2022-02-12_17h16.32.316,lexical_decision_task_DD_L6,2021.2.3,Win32,60.0240096,,,,,,,,,,,0.815,1,,,,,,,,,,,,,,,,,,,,,,,,-0.001388889,-0.294444444,0,0,0,,,,,,,WALRUS,HB,z,y,./images/WALRUSHB.png,,,,,,,,,,,,,,,,,,,,,z,1,0.815,,,,,,,,0,67,67,107,1
,,,,,,,,,,,,,,,,,5b2eae5577b17f0001c037af,,2022-02-12_17h16.32.316,lexical_decision_task_DD_L6,2021.2.3,Win32,60.0240096,,,,,,,,,,,0.85,1,,,,,,,,,,,,,,,,,,,,,,,,-0.001388889,-0.294444444,0,0,0,,,,,,,PASTA,HB,z,y,./images/PASTAHB.png,,,,,,,,,,,,,,,,,,,,,z,1,0.85,,,,,,,,0,68,68,89,1
,,,,,,,,,,,,,,,,,5b2eae5577b17f0001c037af,,2022-02-12_17h16.32.316,lexical_decision_task_DD_L6,2021.2.3,Win32,60.0240096,,,,,,,,,,,0.787,1,,,,,,,,,,,,,,,,,,,,,,,,-0.001388889,-0.294444444,0,0,0,,,,,,,FOLDER,LB,z,y,./images/FOLDERLB.png,,,,,,,,,,,,,,,,,,,,,z,1,0.787,,,,,,,,0,69,69,126,1
,,,,,,,,,,,,,,,,,5b2eae5577b17f0001c037af,,2022-02-12_17h16.32.316,lexical_decision_task_DD_L6,2021.2.3,Win32,60.0240096,,,,,,,,,,,0.788,1,,,,,,,,,,,,,,,,,,,,,,,,-0.001388889,-0.294444444,0,0,0,,,,,,,DRILL,LB,m,y,./images/DRILLLB.png,,,,,,,,,,,,,,,,,,,,,m,1,0.788,,,,,,,,0,70,70,81,1
,,,,,,,,,,,,,,,,,5b2eae5577b17f0001c037af,,2022-02-12_17h16.32.316,lexical_decision_task_DD_L6,2021.2.3,Win32,60.0240096,,,,,,,,,,,0.791,1,,,,,,,,,,,,,,,,,,,,,,,,-0.001388889,-0.294444444,0,0,0,,,,,,,CLOTH,HB,m,y,./images/CLOTHHB.png,,,,,,,,,,,,,,,,,,,,,m,1,0.791,,,,,,,,0,71,71,23,1
,,,,,,,,,,,,,,,,,5b2eae5577b17f0001c037af,,2022-02-12_17h16.32.316,lexical_decision_task_DD_L6,2021.2.3,Win32,60.0240096,,,,,,,,,,,0.819,1,,,,,,,,,,,,,,,,,,,,,,,,-0.001388889,-0.294444444,0,0,0,,,,,,,GREASE,LB,z,y,./images/GREASELB.png,,,,,,,,,,,,,,,,,,,,,z,1,0.819,,,,,,,,0,72,72,99,1
,,,,,,,,,,,,,,,,,5b2eae5577b17f0001c037af,,2022-02-12_17h16.32.316,lexical_decision_task_DD_L6,2021.2.3,Win32,60.0240096,,,,,,,,,,,1.679,1,,,,,,,,,,,,,,,,,,,,,,,,-0.001388889,-0.294444444,0,0,0,,,,,,,DANCER,LB,m,y,./images/DANCERLB.png,,,,,,,,,,,,,,,,,,,,,m,1,1.679,,,,,,,,0,73,73,21,1
,,,,,,,,,,,,,,,,,5b2eae5577b17f0001c037af,,2022-02-12_17h16.32.316,lexical_decision_task_DD_L6,2021.2.3,Win32,60.0240096,,,,,,,,,,,0.704,1,,,,,,,,,,,,,,,,,,,,,,,,-0.001388889,-0.294444444,0,0,0,,,,,,,MELON,C,z,y,./images/MELON.png,,,,,,,,,,,,,,,,,,,,,z,1,0.704,,,,,,,,0,74,74,106,1
,,,,,,,,,,,,,,,,,5b2eae5577b17f0001c037af,,2022-02-12_17h16.32.316,lexical_decision_task_DD_L6,2021.2.3,Win32,60.0240096,,,,,,,,,,,0.785,0,,,,,,,,,,,,,,,,,,,,,,,,-0.001388889,-0.294444444,0,0,0,,,,,,,DIVER,LB,m,y,./images/DIVERLB.png,,,,,,,,,,,,,,,,,,,,,z,0,0.785,,,,,,,,0,75,75,9,1
,,,,,,,,,,,,,,,,,5b2eae5577b17f0001c037af,,2022-02-12_17h16.32.316,lexical_decision_task_DD_L6,2021.2.3,Win32,60.0240096,,,,,,,,,,,0.75,1,,,,,,,,,,,,,,,,,,,,,,,,-0.001388889,-0.294444444,0,0,0,,,,,,,DONKEY,C,m,y,./images/DONKEY.png,,,,,,,,,,,,,,,,,,,,,m,1,0.75,,,,,,,,0,76,76,19,1
,,,,,,,,,,,,,,,,,5b2eae5577b17f0001c037af,,2022-02-12_17h16.32.316,lexical_decision_task_DD_L6,2021.2.3,Win32,60.0240096,,,,,,,,,,,1.848,1,,,,,,,,,,,,,,,,,,,,,,,,-0.001388889,-0.294444444,0,0,0,,,,,,,CANDY,LB,m,y,./images/CANDYLB.png,,,,,,,,,,,,,,,,,,,,,m,1,1.848,,,,,,,,0,77,77,39,1
,,,,,,,,,,,,,,,,,5b2eae5577b17f0001c037af,,2022-02-12_17h16.32.316,lexical_decision_task_DD_L6,2021.2.3,Win32,60.0240096,,,,,,,,,,,0.945,1,,,,,,,,,,,,,,,,,,,,,,,,-0.001388889,-0.294444444,0,0,0,,,,,,,PARADE,HB,m,y,./images/PARADEHB.png,,,,,,,,,,,,,,,,,,,,,m,1,0.945,,,,,,,,0,78,78,17,1
,,,,,,,,,,,,,,,,,5b2eae5577b17f0001c037af,,2022-02-12_17h16.32.316,lexical_decision_task_DD_L6,2021.2.3,Win32,60.0240096,,,,,,,,,,,1.233,1,,,,,,,,,,,,,,,,,,,,,,,,-0.001388889,-0.294444444,0,0,0,,,,,,,CRUMB,HB,z,y,./images/CRUMBHB.png,,,,,,,,,,,,,,,,,,,,,z,1,1.233,,,,,,,,0,79,79,113,1
,,,,,,,,,,,,,,,,,5b2eae5577b17f0001c037af,,2022-02-12_17h16.32.316,lexical_decision_task_DD_L6,2021.2.3,Win32,60.0240096,,,,,,,,,,,2.235,1,,,,,,,,,,,,,,,,,,,,,,,,-0.001388889,-0.294444444,0,0,0,,,,,,,SWING,C,z,y,./images/SWING.png,,,,,,,,,,,,,,,,,,,,,z,1,2.235,,,,,,,,0,80,80,124,1
,,,,,,,,,,,,,,,,,5b2eae5577b17f0001c037af,,2022-02-12_17h16.32.316,lexical_decision_task_DD_L6,2021.2.3,Win32,60.0240096,,,,,,,,,,,1.388,0,,,,,,,,,,,,,,,,,,,,,,,,-0.001388889,-0.294444444,0,0,0,,,,,,,GRAPE,C,m,y,./images/GRAPE.png,,,,,,,,,,,,,,,,,,,,,z,0,1.388,,,,,,,,0,81,81,16,1
,,,,,,,,,,,,,,,,,5b2eae5577b17f0001c037af,,2022-02-12_17h16.32.316,lexical_decision_task_DD_L6,2021.2.3,Win32,60.0240096,,,,,,,,,,,0.83,1,,,,,,,,,,,,,,,,,,,,,,,,-0.001388889,-0.294444444,0,0,0,,,,,,,NOOSE,LB,z,y,./images/NOOSELB.png,,,,,,,,,,,,,,,,,,,,,z,1,0.83,,,,,,,,0,82,82,156,1
,,,,,,,,,,,,,,,,,5b2eae5577b17f0001c037af,,2022-02-12_17h16.32.316,lexical_decision_task_DD_L6,2021.2.3,Win32,60.0240096,,,,,,,,,,,0.719,1,,,,,,,,,,,,,,,,,,,,,,,,-0.001388889,-0.294444444,0,0,0,space,,,,,,SWEAT,LB,z,y,./images/SWEATLB.png,1.211,,,,,,,,,,,,,,,,,,,,z,1,0.719,,,,,,,,0,83,83,150,1
,,,,,,,,,,,,,,,,,5b2eae5577b17f0001c037af,,2022-02-12_17h16.32.316,lexical_decision_task_DD_L6,2021.2.3,Win32,60.0240096,,,,,,,,,,,0.79,1,,,,,,,,,,,,,,,,,,,,,,,,-0.001388889,-0.294444444,0,0,0,,,,,,,SHELF,LB,z,y,./images/SHELFLB.png,,,,,,,,,,,,,,,,,,,,,z,1,0.79,,,,,,,,0,84,84,123,1
,,,,,,,,,,,,,,,,,5b2eae5577b17f0001c037af,,2022-02-12_17h16.32.316,lexical_decision_task_DD_L6,2021.2.3,Win32,60.0240096,,,,,,,,,,,0.754,1,,,,,,,,,,,,,,,,,,,,,,,,-0.001388889,-0.294444444,0,0,0,,,,,,,BANNER,C,z,y,./images/BANNER.png,,,,,,,,,,,,,,,,,,,,,z,1,0.754,,,,,,,,0,85,85,136,1
,,,,,,,,,,,,,,,,,5b2eae5577b17f0001c037af,,2022-02-12_17h16.32.316,lexical_decision_task_DD_L6,2021.2.3,Win32,60.0240096,,,,,,,,,,,0.713,0,,,,,,,,,,,,,,,,,,,,,,,,-0.001388889,-0.294444444,0,0,0,,,,,,,HEATER,HB,m,y,./images/HEATERHB.png,,,,,,,,,,,,,,,,,,,,,z,0,0.713,,,,,,,,0,86,86,56,1
,,,,,,,,,,,,,,,,,5b2eae5577b17f0001c037af,,2022-02-12_17h16.32.316,lexical_decision_task_DD_L6,2021.2.3,Win32,60.0240096,,,,,,,,,,,0.7,1,,,,,,,,,,,,,,,,,,,,,,,,-0.001388889,-0.294444444,0,0,0,,,,,,,ONION,LB,z,y,./images/ONIONLB.png,,,,,,,,,,,,,,,,,,,,,z,1,0.7,,,,,,,,0,87,87,135,1
,,,,,,,,,,,,,,,,,5b2eae5577b17f0001c037af,,2022-02-12_17h16.32.316,lexical_decision_task_DD_L6,2021.2.3,Win32,60.0240096,,,,,,,,,,,0.699,1,,,,,,,,,,,,,,,,,,,,,,,,-0.001388889,-0.294444444,0,0,0,,,,,,,SUNSET,C,z,y,./images/SUNSET.png,,,,,,,,,,,,,,,,,,,,,z,1,0.699,,,,,,,,0,88,88,166,1
,,,,,,,,,,,,,,,,,5b2eae5577b17f0001c037af,,2022-02-12_17h16.32.316,lexical_decision_task_DD_L6,2021.2.3,Win32,60.0240096,,,,,,,,,,,1.315,1,,,,,,,,,,,,,,,,,,,,,,,,-0.001388889,-0.294444444,0,0,0,,,,,,,PLANET,HB,m,y,./images/PLANETHB.png,,,,,,,,,,,,,,,,,,,,,m,1,1.315,,,,,,,,0,89,89,80,1
,,,,,,,,,,,,,,,,,5b2eae5577b17f0001c037af,,2022-02-12_17h16.32.316,lexical_decision_task_DD_L6,2021.2.3,Win32,60.0240096,,,,,,,,,,,0.727,1,,,,,,,,,,,,,,,,,,,,,,,,-0.001388889,-0.294444444,0,0,0,,,,,,,URINE,C,z,y,./images/URINE.png,,,,,,,,,,,,,,,,,,,,,z,1,0.727,,,,,,,,0,90,90,154,1
,,,,,,,,,,,,,,,,,5b2eae5577b17f0001c037af,,2022-02-12_17h16.32.316,lexical_decision_task_DD_L6,2021.2.3,Win32,60.0240096,,,,,,,,,,,1.084,1,,,,,,,,,,,,,,,,,,,,,,,,-0.001388889,-0.294444444,0,0,0,,,,,,,CLOUD,HB,m,y,./images/CLOUDHB.png,,,,,,,,,,,,,,,,,,,,,m,1,1.084,,,,,,,,0,91,91,26,1
,,,,,,,,,,,,,,,,,5b2eae5577b17f0001c037af,,2022-02-12_17h16.32.316,lexical_decision_task_DD_L6,2021.2.3,Win32,60.0240096,,,,,,,,,,,0.729,1,,,,,,,,,,,,,,,,,,,,,,,,-0.001388889,-0.294444444,0,0,0,,,,,,,WHISKY,HB,m,y,./images/WHISKYHB.png,,,,,,,,,,,,,,,,,,,,,m,1,0.729,,,,,,,,0,92,92,83,1
,,,,,,,,,,,,,,,,,5b2eae5577b17f0001c037af,,2022-02-12_17h16.32.316,lexical_decision_task_DD_L6,2021.2.3,Win32,60.0240096,,,,,,,,,,,0.694,1,,,,,,,,,,,,,,,,,,,,,,,,-0.001388889,-0.294444444,0,0,0,,,,,,,BURIAL,HB,z,y,./images/BURIALHB.png,,,,,,,,,,,,,,,,,,,,,z,1,0.694,,,,,,,,0,93,93,143,1
,,,,,,,,,,,,,,,,,5b2eae5577b17f0001c037af,,2022-02-12_17h16.32.316,lexical_decision_task_DD_L6,2021.2.3,Win32,60.0240096,,,,,,,,,,,0.937,0,,,,,,,,,,,,,,,,,,,,,,,,-0.001388889,-0.294444444,0,0,0,,,,,,,SAUCE,LB,m,y,./images/SAUCELB.png,,,,,,,,,,,,,,,,,,,,,z,0,0.937,,,,,,,,0,94,94,51,1
,,,,,,,,,,,,,,,,,5b2eae5577b17f0001c037af,,2022-02-12_17h16.32.316,lexical_decision_task_DD_L6,2021.2.3,Win32,60.0240096,,,,,,,,,,,0.799,1,,,,,,,,,,,,,,,,,,,,,,,,-0.001388889,-0.294444444,0,0,0,,,,,,,BAMBOO,HB,m,y,./images/BAMBOOHB.png,,,,,,,,,,,,,,,,,,,,,m,1,0.799,,,,,,,,0,95,95,5,1
,,,,,,,,,,,,,,,,,5b2eae5577b17f0001c037af,,2022-02-12_17h16.32.316,lexical_decision_task_DD_L6,2021.2.3,Win32,60.0240096,,,,,,,,,,,1.049,1,,,,,,,,,,,,,,,,,,,,,,,,-0.001388889,-0.294444444,0,0,0,,,,,,,LLAMA,HB,m,y,./images/LLAMAHB.png,,,,,,,,,,,,,,,,,,,,,m,1,1.049,,,,,,,,0,96,96,35,1
,,,,,,,,,,,,,,,,,5b2eae5577b17f0001c037af,,2022-02-12_17h16.32.316,lexical_decision_task_DD_L6,2021.2.3,Win32,60.0240096,,,,,,,,,,,0.776,1,,,,,,,,,,,,,,,,,,,,,,,,-0.001388889,-0.294444444,0,0,0,,,,,,,PILOT,HB,m,y,./images/PILOTHB.png,,,,,,,,,,,,,,,,,,,,,m,1,0.776,,,,,,,,0,97,97,50,1
,,,,,,,,,,,,,,,,,5b2eae5577b17f0001c037af,,2022-02-12_17h16.32.316,lexical_decision_task_DD_L6,2021.2.3,Win32,60.0240096,,,,,,,,,,,1.832,0,,,,,,,,,,,,,,,,,,,,,,,,-0.001388889,-0.294444444,0,0,0,,,,,,,TOWEL,C,m,y,./images/TOWEL.png,,,,,,,,,,,,,,,,,,,,,z,0,1.832,,,,,,,,0,98,98,1,1
,,,,,,,,,,,,,,,,,5b2eae5577b17f0001c037af,,2022-02-12_17h16.32.316,lexical_decision_task_DD_L6,2021.2.3,Win32,60.0240096,,,,,,,,,,,1.212,1,,,,,,,,,,,,,,,,,,,,,,,,-0.001388889,-0.294444444,0,0,0,,,,,,,POSTER,HB,m,y,./images/POSTERHB.png,,,,,,,,,,,,,,,,,,,,,m,1,1.212,,,,,,,,0,99,99,53,1
,,,,,,,,,,,,,,,,,5b2eae5577b17f0001c037af,,2022-02-12_17h16.32.316,lexical_decision_task_DD_L6,2021.2.3,Win32,60.0240096,,,,,,,,,,,0.772,1,,,,,,,,,,,,,,,,,,,,,,,,-0.001388889,-0.294444444,0,0,0,,,,,,,LAGOON,HB,m,y,./images/LAGOONHB.png,,,,,,,,,,,,,,,,,,,,,m,1,0.772,,,,,,,,0,100,100,47,1
,,,,,,,,,,,,,,,,,5b2eae5577b17f0001c037af,,2022-02-12_17h16.32.316,lexical_decision_task_DD_L6,2021.2.3,Win32,60.0240096,,,,,,,,,,,0.707,1,,,,,,,,,,,,,,,,,,,,,,,,-0.001388889,-0.294444444,0,0,0,,,,,,,STAIN,LB,m,y,./images/STAINLB.png,,,,,,,,,,,,,,,,,,,,,m,1,0.707,,,,,,,,0,101,101,6,1
,,,,,,,,,,,,,,,,,5b2eae5577b17f0001c037af,,2022-02-12_17h16.32.316,lexical_decision_task_DD_L6,2021.2.3,Win32,60.0240096,,,,,,,,,,,1.084,1,,,,,,,,,,,,,,,,,,,,,,,,-0.001388889,-0.294444444,0,0,0,,,,,,,MUMMY,C,m,y,./images/MUMMY.png,,,,,,,,,,,,,,,,,,,,,m,1,1.084,,,,,,,,0,102,102,46,1
,,,,,,,,,,,,,,,,,5b2eae5577b17f0001c037af,,2022-02-12_17h16.32.316,lexical_decision_task_DD_L6,2021.2.3,Win32,60.0240096,,,,,,,,,,,1.894,1,,,,,,,,,,,,,,,,,,,,,,,,-0.001388889,-0.294444444,0,0,0,,,,,,,PACKET,HB,z,y,./images/PACKETHB.png,,,,,,,,,,,,,,,,,,,,,z,1,1.894,,,,,,,,0,103,103,140,1
,,,,,,,,,,,,,,,,,5b2eae5577b17f0001c037af,,2022-02-12_17h16.32.316,lexical_decision_task_DD_L6,2021.2.3,Win32,60.0240096,,,,,,,,,,,0.832,1,,,,,,,,,,,,,,,,,,,,,,,,-0.001388889,-0.294444444,0,0,0,,,,,,,BUNNY,C,m,y,./images/BUNNY.png,,,,,,,,,,,,,,,,,,,,,m,1,0.832,,,,,,,,0,104,104,13,1
,,,,,,,,,,,,,,,,,5b2eae5577b17f0001c037af,,2022-02-12_17h16.32.316,lexical_decision_task_DD_L6,2021.2.3,Win32,60.0240096,,,,,,,,,,,0.699,1,,,,,,,,,,,,,,,,,,,,,,,,-0.001388889,-0.294444444,0,0,0,,,,,,,PICKLE,HB,z,y,./images/PICKLEHB.png,,,,,,,,,,,,,,,,,,,,,z,1,0.699,,,,,,,,0,105,105,98,1
,,,,,,,,,,,,,,,,,5b2eae5577b17f0001c037af,,2022-02-12_17h16.32.316,lexical_decision_task_DD_L6,2021.2.3,Win32,60.0240096,,,,,,,,,,,0.703,1,,,,,,,,,,,,,,,,,,,,,,,,-0.001388889,-0.294444444,0,0,0,,,,,,,INFANT,C,z,y,./images/INFANT.png,,,,,,,,,,,,,,,,,,,,,z,1,0.703,,,,,,,,0,106,106,160,1
,,,,,,,,,,,,,,,,,5b2eae5577b17f0001c037af,,2022-02-12_17h16.32.316,lexical_decision_task_DD_L6,2021.2.3,Win32,60.0240096,,,,,,,,,,,1.317,1,,,,,,,,,,,,,,,,,,,,,,,,-0.001388889,-0.294444444,0,0,0,,,,,,,PEARL,C,z,y,./images/PEARL.png,,,,,,,,,,,,,,,,,,,,,z,1,1.317,,,,,,,,0,107,107,130,1
,,,,,,,,,,,,,,,,,5b2eae5577b17f0001c037af,,2022-02-12_17h16.32.316,lexical_decision_task_DD_L6,2021.2.3,Win32,60.0240096,,,,,,,,,,,2.065,0,,,,,,,,,,,,,,,,,,,,,,,,-0.001388889,-0.294444444,0,0,0,,,,,,,LIZARD,HB,z,y,./images/LIZARDHB.png,,,,,,,,,,,,,,,,,,,,,m,0,2.065,,,,,,,,0,108,108,128,1
,,,,,,,,,,,,,,,,,5b2eae5577b17f0001c037af,,2022-02-12_17h16.32.316,lexical_decision_task_DD_L6,2021.2.3,Win32,60.0240096,,,,,,,,,,,0.749,1,,,,,,,,,,,,,,,,,,,,,,,,-0.001388889,-0.294444444,0,0,0,,,,,,,KIDNEY,LB,z,y,./images/KIDNEYLB.png,,,,,,,,,,,,,,,,,,,,,z,1,0.749,,,,,,,,0,109,109,105,1
,,,,,,,,,,,,,,,,,5b2eae5577b17f0001c037af,,2022-02-12_17h16.32.316,lexical_decision_task_DD_L6,2021.2.3,Win32,60.0240096,,,,,,,,,,,0.685,1,,,,,,,,,,,,,,,,,,,,,,,,-0.001388889,-0.294444444,0,0,0,,,,,,,MONKEY,LB,m,y,./images/MONKEYLB.png,,,,,,,,,,,,,,,,,,,,,m,1,0.685,,,,,,,,0,110,110,45,1
,,,,,,,,,,,,,,,,,5b2eae5577b17f0001c037af,,2022-02-12_17h16.32.316,lexical_decision_task_DD_L6,2021.2.3,Win32,60.0240096,,,,,,,,,,,0.751,0,,,,,,,,,,,,,,,,,,,,,,,,-0.001388889,-0.294444444,0,0,0,,,,,,,JUMPER,HB,m,y,./images/JUMPERHB.png,,,,,,,,,,,,,,,,,,,,,z,0,0.751,,,,,,,,0,111,111,74,1
,,,,,,,,,,,,,,,,,5b2eae5577b17f0001c037af,,2022-02-12_17h16.32.316,lexical_decision_task_DD_L6,2021.2.3,Win32,60.0240096,,,,,,,,,,,1.371,1,,,,,,,,,,,,,,,,,,,,,,,,-0.001388889,-0.294444444,0,0,0,,,,,,,TOMATO,LB,z,y,./images/TOMATOLB.png,,,,,,,,,,,,,,,,,,,,,z,1,1.371,,,,,,,,0,112,112,84,1
,,,,,,,,,,,,,,,,,5b2eae5577b17f0001c037af,,2022-02-12_17h16.32.316,lexical_decision_task_DD_L6,2021.2.3,Win32,60.0240096,,,,,,,,,,,0.721,1,,,,,,,,,,,,,,,,,,,,,,,,-0.001388889,-0.294444444,0,0,0,,,,,,,MALLET,HB,z,y,./images/MALLETHB.png,,,,,,,,,,,,,,,,,,,,,z,1,0.721,,,,,,,,0,113,113,134,1
,,,,,,,,,,,,,,,,,5b2eae5577b17f0001c037af,,2022-02-12_17h16.32.316,lexical_decision_task_DD_L6,2021.2.3,Win32,60.0240096,,,,,,,,,,,0.828,1,,,,,,,,,,,,,,,,,,,,,,,,-0.001388889,-0.294444444,0,0,0,,,,,,,SPORT,LB,z,y,./images/SPORTLB.png,,,,,,,,,,,,,,,,,,,,,z,1,0.828,,,,,,,,0,114,114,132,1
,,,,,,,,,,,,,,,,,5b2eae5577b17f0001c037af,,2022-02-12_17h16.32.316,lexical_decision_task_DD_L6,2021.2.3,Win32,60.0240096,,,,,,,,,,,0.851,1,,,,,,,,,,,,,,,,,,,,,,,,-0.001388889,-0.294444444,0,0,0,,,,,,,WRIST,C,z,y,./images/WRIST.png,,,,,,,,,,,,,,,,,,,,,z,1,0.851,,,,,,,,0,115,115,109,1
,,,,,,,,,,,,,,,,,5b2eae5577b17f0001c037af,,2022-02-12_17h16.32.316,lexical_decision_task_DD_L6,2021.2.3,Win32,60.0240096,,,,,,,,,,,1.088,1,,,,,,,,,,,,,,,,,,,,,,,,-0.001388889,-0.294444444,0,0,0,,,,,,,MOTOR,C,z,y,./images/MOTOR.png,,,,,,,,,,,,,,,,,,,,,z,1,1.088,,,,,,,,0,116,116,97,1
,,,,,,,,,,,,,,,,,5b2eae5577b17f0001c037af,,2022-02-12_17h16.32.316,lexical_decision_task_DD_L6,2021.2.3,Win32,60.0240096,,,,,,,,,,,0.776,1,,,,,,,,,,,,,,,,,,,,,,,,-0.001388889,-0.294444444,0,0,0,,,,,,,FENCE,HB,m,y,./images/FENCEHB.png,,,,,,,,,,,,,,,,,,,,,m,1,0.776,,,,,,,,0,117,117,14,1
,,,,,,,,,,,,,,,,,5b2eae5577b17f0001c037af,,2022-02-12_17h16.32.316,lexical_decision_task_DD_L6,2021.2.3,Win32,60.0240096,,,,,,,,,,,1.234,1,,,,,,,,,,,,,,,,,,,,,,,,-0.001388889,-0.294444444,0,0,0,,,,,,,BROOM,LB,m,y,./images/BROOMLB.png,,,,,,,,,,,,,,,,,,,,,m,1,1.234,,,,,,,,0,118,118,78,1
,,,,,,,,,,,,,,,,,5b2eae5577b17f0001c037af,,2022-02-12_17h16.32.316,lexical_decision_task_DD_L6,2021.2.3,Win32,60.0240096,,,,,,,,,,,0.853,0,,,,,,,,,,,,,,,,,,,,,,,,-0.001388889,-0.294444444,0,0,0,,,,,,,CRUST,C,z,y,./images/CRUST.png,,,,,,,,,,,,,,,,,,,,,m,0,0.853,,,,,,,,0,119,119,163,1
,,,,,,,,,,,,,,,,,5b2eae5577b17f0001c037af,,2022-02-12_17h16.32.316,lexical_decision_task_DD_L6,2021.2.3,Win32,60.0240096,,,,,,,,,,,0.857,1,,,,,,,,,,,,,,,,,,,,,,,,-0.001388889,-0.294444444,0,0,0,,,,,,,SHIELD,LB,m,y,./images/SHIELDLB.png,,,,,,,,,,,,,,,,,,,,,m,1,0.857,,,,,,,,0,120,120,48,1
,,,,,,,,,,,,,,,,,5b2eae5577b17f0001c037af,,2022-02-12_17h16.32.316,lexical_decision_task_DD_L6,2021.2.3,Win32,60.0240096,,,,,,,,,,,0.793,1,,,,,,,,,,,,,,,,,,,,,,,,-0.001388889,-0.294444444,0,0,0,,,,,,,POKER,C,m,y,./images/POKER.png,,,,,,,,,,,,,,,,,,,,,m,1,0.793,,,,,,,,0,121,121,67,1
,,,,,,,,,,,,,,,,,5b2eae5577b17f0001c037af,,2022-02-12_17h16.32.316,lexical_decision_task_DD_L6,2021.2.3,Win32,60.0240096,,,,,,,,,,,0.692,1,,,,,,,,,,,,,,,,,,,,,,,,-0.001388889,-0.294444444,0,0,0,,,,,,,COOKER,LB,z,y,./images/COOKERLB.png,,,,,,,,,,,,,,,,,,,,,z,1,0.692,,,,,,,,0,122,122,153,1
,,,,,,,,,,,,,,,,,5b2eae5577b17f0001c037af,,2022-02-12_17h16.32.316,lexical_decision_task_DD_L6,2021.2.3,Win32,60.0240096,,,,,,,,,,,0.756,1,,,,,,,,,,,,,,,,,,,,,,,,-0.001388889,-0.294444444,0,0,0,,,,,,,PENCE,C,z,y,./images/PENCE.png,,,,,,,,,,,,,,,,,,,,,z,1,0.756,,,,,,,,0,123,123,100,1
,,,,,,,,,,,,,,,,,5b2eae5577b17f0001c037af,,2022-02-12_17h16.32.316,lexical_decision_task_DD_L6,2021.2.3,Win32,60.0240096,,,,,,,,,,,2.101,1,,,,,,,,,,,,,,,,,,,,,,,,-0.001388889,-0.294444444,0,0,0,,,,,,,PISTOL,HB,m,y,./images/PISTOLHB.png,,,,,,,,,,,,,,,,,,,,,m,1,2.101,,,,,,,,0,124,124,29,1
,,,,,,,,,,,,,,,,,5b2eae5577b17f0001c037af,,2022-02-12_17h16.32.316,lexical_decision_task_DD_L6,2021.2.3,Win32,60.0240096,,,,,,,,,,,1.132,0,,,,,,,,,,,,,,,,,,,,,,,,-0.020833333,-0.333333333,0,0,0,space,,,,,,JAGUAR,LB,z,y,./images/JAGUARLB.png,2.933,,,,,,,,,,,,,,,,,,,,m,0,1.132,,,,,,,,0,125,125,102,1
,,,,,,,,,,,,,,,,,5b2eae5577b17f0001c037af,,2022-02-12_17h16.32.316,lexical_decision_task_DD_L6,2021.2.3,Win32,60.0240096,,,,,,,,,,,0.871,1,,,,,,,,,,,,,,,,,,,,,,,,-0.020833333,-0.333333333,0,0,0,,,,,,,BIRTH,C,z,y,./images/BIRTH.png,,,,,,,,,,,,,,,,,,,,,z,1,0.871,,,,,,,,0,126,126,121,1
,,,,,,,,,,,,,,,,,5b2eae5577b17f0001c037af,,2022-02-12_17h16.32.316,lexical_decision_task_DD_L6,2021.2.3,Win32,60.0240096,,,,,,,,,,,0.93,0,,,,,,,,,,,,,,,,,,,,,,,,-0.020833333,-0.333333333,0,0,0,,,,,,,POODLE,LB,z,y,./images/POODLELB.png,,,,,,,,,,,,,,,,,,,,,m,0,0.93,,,,,,,,0,127,127,165,1
,,,,,,,,,,,,,,,,,5b2eae5577b17f0001c037af,,2022-02-12_17h16.32.316,lexical_decision_task_DD_L6,2021.2.3,Win32,60.0240096,,,,,,,,,,,0.87,1,,,,,,,,,,,,,,,,,,,,,,,,-0.020833333,-0.333333333,0,0,0,,,,,,,PURSE,HB,z,y,./images/PURSEHB.png,,,,,,,,,,,,,,,,,,,,,z,1,0.87,,,,,,,,0,128,128,146,1
,,,,,,,,,,,,,,,,,5b2eae5577b17f0001c037af,,2022-02-12_17h16.32.316,lexical_decision_task_DD_L6,2021.2.3,Win32,60.0240096,,,,,,,,,,,1.433,1,,,,,,,,,,,,,,,,,,,,,,,,-0.020833333,-0.333333333,0,0,0,,,,,,,BRUSH,HB,m,y,./images/BRUSHHB.png,,,,,,,,,,,,,,,,,,,,,m,1,1.433,,,,,,,,0,129,129,59,1
,,,,,,,,,,,,,,,,,5b2eae5577b17f0001c037af,,2022-02-12_17h16.32.316,lexical_decision_task_DD_L6,2021.2.3,Win32,60.0240096,,,,,,,,,,,0.819,1,,,,,,,,,,,,,,,,,,,,,,,,-0.020833333,-0.333333333,0,0,0,,,,,,,CANDLE,C,z,y,./images/CANDLE.png,,,,,,,,,,,,,,,,,,,,,z,1,0.819,,,,,,,,0,130,130,145,1
,,,,,,,,,,,,,,,,,5b2eae5577b17f0001c037af,,2022-02-12_17h16.32.316,lexical_decision_task_DD_L6,2021.2.3,Win32,60.0240096,,,,,,,,,,,0.779,0,,,,,,,,,,,,,,,,,,,,,,,,-0.020833333,-0.333333333,0,0,0,,,,,,,BOILER,LB,m,y,./images/BOILERLB.png,,,,,,,,,,,,,,,,,,,,,z,0,0.779,,,,,,,,0,131,131,36,1
,,,,,,,,,,,,,,,,,5b2eae5577b17f0001c037af,,2022-02-12_17h16.32.316,lexical_decision_task_DD_L6,2021.2.3,Win32,60.0240096,,,,,,,,,,,0.792,1,,,,,,,,,,,,,,,,,,,,,,,,-0.020833333,-0.333333333,0,0,0,,,,,,,PARCEL,LB,m,y,./images/PARCELLB.png,,,,,,,,,,,,,,,,,,,,,m,1,0.792,,,,,,,,0,132,132,18,1
,,,,,,,,,,,,,,,,,5b2eae5577b17f0001c037af,,2022-02-12_17h16.32.316,lexical_decision_task_DD_L6,2021.2.3,Win32,60.0240096,,,,,,,,,,,0.855,1,,,,,,,,,,,,,,,,,,,,,,,,-0.020833333,-0.333333333,0,0,0,,,,,,,SPINE,HB,m,y,./images/SPINEHB.png,,,,,,,,,,,,,,,,,,,,,m,1,0.855,,,,,,,,0,133,133,65,1
,,,,,,,,,,,,,,,,,5b2eae5577b17f0001c037af,,2022-02-12_17h16.32.316,lexical_decision_task_DD_L6,2021.2.3,Win32,60.0240096,,,,,,,,,,,0.765,1,,,,,,,,,,,,,,,,,,,,,,,,-0.020833333,-0.333333333,0,0,0,,,,,,,PIMPLE,HB,z,y,./images/PIMPLEHB.png,,,,,,,,,,,,,,,,,,,,,z,1,0.765,,,,,,,,0,134,134,155,1
,,,,,,,,,,,,,,,,,5b2eae5577b17f0001c037af,,2022-02-12_17h16.32.316,lexical_decision_task_DD_L6,2021.2.3,Win32,60.0240096,,,,,,,,,,,0.849,1,,,,,,,,,,,,,,,,,,,,,,,,-0.020833333,-0.333333333,0,0,0,,,,,,,LADDER,HB,z,y,./images/LADDERHB.png,,,,,,,,,,,,,,,,,,,,,z,1,0.849,,,,,,,,0,135,135,122,1
,,,,,,,,,,,,,,,,,5b2eae5577b17f0001c037af,,2022-02-12_17h16.32.316,lexical_decision_task_DD_L6,2021.2.3,Win32,60.0240096,,,,,,,,,,,0.834,1,,,,,,,,,,,,,,,,,,,,,,,,-0.020833333,-0.333333333,0,0,0,,,,,,,DESERT,C,m,y,./images/DESERT.png,,,,,,,,,,,,,,,,,,,,,m,1,0.834,,,,,,,,0,136,136,52,1
,,,,,,,,,,,,,,,,,5b2eae5577b17f0001c037af,,2022-02-12_17h16.32.316,lexical_decision_task_DD_L6,2021.2.3,Win32,60.0240096,,,,,,,,,,,0.783,1,,,,,,,,,,,,,,,,,,,,,,,,-0.020833333,-0.333333333,0,0,0,,,,,,,ALLEY,C,m,y,./images/ALLEY.png,,,,,,,,,,,,,,,,,,,,,m,1,0.783,,,,,,,,0,137,137,55,1
