key_resp.keys,key_resp.rt,instr_done_touch.x,instr_done_touch.y,instr_done_touch.leftButton,instr_done_touch.midButton,instr_done_touch.rightButton,instruction_pages.thisRepN,instruction_pages.thisTrialN,instruction_pages.thisN,instruction_pages.thisIndex,instruction_pages.ran,pageN,phase,instruct_text,has_image,instruct_image,participant,age,date,expName,psychopyVersion,OS,frameRate,response.keys,response.corr,response.rt,touch_resp.x,touch_resp.y,touch_resp.leftButton,touch_resp.midButton,touch_resp.rightButton,touch_resp.time,touch_resp.clicked_name,rt,corr,practrials.thisRepN,practrials.thisTrialN,practrials.thisN,practrials.thisIndex,practrials.ran,TrialID,Target,corrAns,instr_done_touch.clicked_name,end_of_practice_trials_pages.thisRepN,end_of_practice_trials_pages.thisTrialN,end_of_practice_trials_pages.thisN,end_of_practice_trials_pages.thisIndex,end_of_practice_trials_pages.ran,key_resp_2.keys,key_resp_2.corr,key_resp_2.rt,targ_click.x,targ_click.y,targ_click.leftButton,targ_click.midButton,targ_click.rightButton,targ_click.time,targ_click.clicked_name,break_done_touch.x,break_done_touch.y,break_done_touch.leftButton,break_done_touch.midButton,break_done_touch.rightButton,break_done_keyboard.keys,maintrials.thisRepN,maintrials.thisTrialN,maintrials.thisN,maintrials.thisIndex,maintrials.ran,string,blur,study,lex,stim_path,break_done_keyboard.rt,mouse_2.x,mouse_2.y,mouse_2.leftButton,mouse_2.midButton,mouse_2.rightButton,mouse_2.clicked_name,slider.response,slider.rt,trials.thisRepN,trials.thisTrialN,trials.thisN,trials.thisIndex,trials.ran,test_instructions.thisRepN,test_instructions.thisTrialN,test_instructions.thisN,test_instructions.thisIndex,test_instructions.ran,key_resp_3.keys,key_resp_3.corr,key_resp_3.rt,test_click.x,test_click.y,test_click.leftButton,test_click.midButton,test_click.rightButton,test_click.time,test_click.clicked_name,test_phase.thisRepN,test_phase.thisTrialN,test_phase.thisN,test_phase.thisIndex,test_phase.ran
space,31.8197,0.117361111,-0.099305556,0,0,0,0,0,0,0,1,1,instructions,"INSTRUCTIONS
At the start of each trial, look at the plus sign  (+) in the center of the screen.  This tells you that a trial is about to begin and where to look. Second, the plus sign will disappear and a string of letters will appear. Your task is to determine if the string of letters is a word or not. If the item is a word press the M key (on keyboard)  or touch the word button (phone/tablet).  If the item is not a word,  press the  Z key (on keyboard)  or touch the nonword button (on phone/tablet). 
Press the space bar or touch  continue.",0,,5c054e8a553fb800011917d7,22,2022-02-12_14h05.18.811,lexical_decision_task_DD_L6,2021.2.3,Win32,164.0419948,,,,,,,,,,,,,,,,,,,,,,,,,,,,,,,,,,,,,,,,,,,,,,,,,,,,,,,,,,,,,,,,,,,,,,,,,,,,,,,,,,,,,,
space,4.2236,0.117361111,-0.099305556,0,0,0,0,1,1,1,1,2,instructions,"If your device has a keyboard, press the 'Z' key for nonwords and the 'M' key for words.





Press the space bar or touch the button below to continue.",0,keyboard-example.gif,5c054e8a553fb800011917d7,22,2022-02-12_14h05.18.811,lexical_decision_task_DD_L6,2021.2.3,Win32,164.0419948,,,,,,,,,,,,,,,,,,,,,,,,,,,,,,,,,,,,,,,,,,,,,,,,,,,,,,,,,,,,,,,,,,,,,,,,,,,,,,,,,,,,,,
space,1.2985,0.117361111,-0.099305556,0,0,0,0,2,2,2,1,3,instructions,"If you are using a touchscreen only device, use the buttons on the screen. Do not use the mouse.





Press the space bar or touch the button below to continue.",0,touchscreen-example.gif,5c054e8a553fb800011917d7,22,2022-02-12_14h05.18.811,lexical_decision_task_DD_L6,2021.2.3,Win32,164.0419948,,,,,,,,,,,,,,,,,,,,,,,,,,,,,,,,,,,,,,,,,,,,,,,,,,,,,,,,,,,,,,,,,,,,,,,,,,,,,,,,,,,,,,
space,7.4374,0.117361111,-0.099305556,0,0,0,0,3,3,3,1,4,instructions,"It is very important that you respond as quickly and accurately as possible, as each letter string will only be on the screen for two seconds. If you do not respond within this time, the message 'Too slow!' will be displayed and the experiment will progress to the next letter string. The first 20 trials will be practice trials and you will receive feedback on your answers. 

Press the space bar or touch the button below to start the practice trials.",0,,5c054e8a553fb800011917d7,22,2022-02-12_14h05.18.811,lexical_decision_task_DD_L6,2021.2.3,Win32,164.0419948,,,,,,,,,,,,,,,,,,,,,,,,,,,,,,,,,,,,,,,,,,,,,,,,,,,,,,,,,,,,,,,,,,,,,,,,,,,,,,,,,,,,,,
,,,,,,,,,,,,,,,,,5c054e8a553fb800011917d7,22,2022-02-12_14h05.18.811,lexical_decision_task_DD_L6,2021.2.3,Win32,164.0419948,m,1,0.6367,,,,,,,,0.6367,1,0,0,0,6,1,1001,ZOMBIE,m,,,,,,,,,,,,,,,,,,,,,,,,,,,,,,,,,,,,,,,,,,,,,,,,,,,,,,,,,,,,,,,,,,
,,,,,,,,,,,,,,,,,5c054e8a553fb800011917d7,22,2022-02-12_14h05.18.811,lexical_decision_task_DD_L6,2021.2.3,Win32,164.0419948,z,1,0.7225,,,,,,,,0.7225,1,0,1,1,8,1,1001,ASLERT,z,,,,,,,,,,,,,,,,,,,,,,,,,,,,,,,,,,,,,,,,,,,,,,,,,,,,,,,,,,,,,,,,,,
,,,,,,,,,,,,,,,,,5c054e8a553fb800011917d7,22,2022-02-12_14h05.18.811,lexical_decision_task_DD_L6,2021.2.3,Win32,164.0419948,m,1,1.0432,,,,,,,,1.0432,1,0,2,2,4,1,1001,SQUEAK,m,,,,,,,,,,,,,,,,,,,,,,,,,,,,,,,,,,,,,,,,,,,,,,,,,,,,,,,,,,,,,,,,,,
,,,,,,,,,,,,,,,,,5c054e8a553fb800011917d7,22,2022-02-12_14h05.18.811,lexical_decision_task_DD_L6,2021.2.3,Win32,164.0419948,m,1,0.6423,,,,,,,,0.6423,1,0,3,3,0,1,1001,UTOPIA,m,,,,,,,,,,,,,,,,,,,,,,,,,,,,,,,,,,,,,,,,,,,,,,,,,,,,,,,,,,,,,,,,,,
,,,,,,,,,,,,,,,,,5c054e8a553fb800011917d7,22,2022-02-12_14h05.18.811,lexical_decision_task_DD_L6,2021.2.3,Win32,164.0419948,z,1,0.8263,,,,,,,,0.8263,1,0,4,4,12,1,1001,SPRINY,z,,,,,,,,,,,,,,,,,,,,,,,,,,,,,,,,,,,,,,,,,,,,,,,,,,,,,,,,,,,,,,,,,,
,,,,,,,,,,,,,,,,,5c054e8a553fb800011917d7,22,2022-02-12_14h05.18.811,lexical_decision_task_DD_L6,2021.2.3,Win32,164.0419948,m,1,0.6,,,,,,,,0.6,1,0,5,5,5,1,1001,OBTAIN,m,,,,,,,,,,,,,,,,,,,,,,,,,,,,,,,,,,,,,,,,,,,,,,,,,,,,,,,,,,,,,,,,,,
,,,,,,,,,,,,,,,,,5c054e8a553fb800011917d7,22,2022-02-12_14h05.18.811,lexical_decision_task_DD_L6,2021.2.3,Win32,164.0419948,z,1,1.0433,,,,,,,,1.0433,1,0,6,6,14,1,1001,THRALE,z,,,,,,,,,,,,,,,,,,,,,,,,,,,,,,,,,,,,,,,,,,,,,,,,,,,,,,,,,,,,,,,,,,
,,,,,,,,,,,,,,,,,5c054e8a553fb800011917d7,22,2022-02-12_14h05.18.811,lexical_decision_task_DD_L6,2021.2.3,Win32,164.0419948,z,1,0.7705,,,,,,,,0.7705,1,0,7,7,13,1,1001,ROUPET,z,,,,,,,,,,,,,,,,,,,,,,,,,,,,,,,,,,,,,,,,,,,,,,,,,,,,,,,,,,,,,,,,,,
,,,,,,,,,,,,,,,,,5c054e8a553fb800011917d7,22,2022-02-12_14h05.18.811,lexical_decision_task_DD_L6,2021.2.3,Win32,164.0419948,m,1,0.5433,,,,,,,,0.5433,1,0,8,8,1,1,1001,ADJUST,m,,,,,,,,,,,,,,,,,,,,,,,,,,,,,,,,,,,,,,,,,,,,,,,,,,,,,,,,,,,,,,,,,,
,,,,,,,,,,,,,,,,,5c054e8a553fb800011917d7,22,2022-02-12_14h05.18.811,lexical_decision_task_DD_L6,2021.2.3,Win32,164.0419948,z,1,0.5736,,,,,,,,0.5736,1,0,9,9,11,1,1001,RASHET,z,,,,,,,,,,,,,,,,,,,,,,,,,,,,,,,,,,,,,,,,,,,,,,,,,,,,,,,,,,,,,,,,,,
,,,,,,,,,,,,,,,,,5c054e8a553fb800011917d7,22,2022-02-12_14h05.18.811,lexical_decision_task_DD_L6,2021.2.3,Win32,164.0419948,m,1,0.6161,,,,,,,,0.6161,1,0,10,10,7,1,1001,VOLUME,m,,,,,,,,,,,,,,,,,,,,,,,,,,,,,,,,,,,,,,,,,,,,,,,,,,,,,,,,,,,,,,,,,,
,,,,,,,,,,,,,,,,,5c054e8a553fb800011917d7,22,2022-02-12_14h05.18.811,lexical_decision_task_DD_L6,2021.2.3,Win32,164.0419948,z,1,0.5471,,,,,,,,0.5471,1,0,11,11,10,1,1001,INLADE,z,,,,,,,,,,,,,,,,,,,,,,,,,,,,,,,,,,,,,,,,,,,,,,,,,,,,,,,,,,,,,,,,,,
,,,,,,,,,,,,,,,,,5c054e8a553fb800011917d7,22,2022-02-12_14h05.18.811,lexical_decision_task_DD_L6,2021.2.3,Win32,164.0419948,z,1,0.7222,,,,,,,,0.7222,1,0,12,12,15,1,1001,WHAISE,z,,,,,,,,,,,,,,,,,,,,,,,,,,,,,,,,,,,,,,,,,,,,,,,,,,,,,,,,,,,,,,,,,,
,,,,,,,,,,,,,,,,,5c054e8a553fb800011917d7,22,2022-02-12_14h05.18.811,lexical_decision_task_DD_L6,2021.2.3,Win32,164.0419948,m,1,0.8753,,,,,,,,0.8753,1,0,13,13,2,1,1001,ALMOND,m,,,,,,,,,,,,,,,,,,,,,,,,,,,,,,,,,,,,,,,,,,,,,,,,,,,,,,,,,,,,,,,,,,
,,,,,,,,,,,,,,,,,5c054e8a553fb800011917d7,22,2022-02-12_14h05.18.811,lexical_decision_task_DD_L6,2021.2.3,Win32,164.0419948,z,1,1.0116,,,,,,,,1.0116,1,0,14,14,9,1,1001,FARINY,z,,,,,,,,,,,,,,,,,,,,,,,,,,,,,,,,,,,,,,,,,,,,,,,,,,,,,,,,,,,,,,,,,,
,,,,,,,,,,,,,,,,,5c054e8a553fb800011917d7,22,2022-02-12_14h05.18.811,lexical_decision_task_DD_L6,2021.2.3,Win32,164.0419948,m,1,0.5954,,,,,,,,0.5954,1,0,15,15,3,1,1001,MATRIX,m,,,,,,,,,,,,,,,,,,,,,,,,,,,,,,,,,,,,,,,,,,,,,,,,,,,,,,,,,,,,,,,,,,
,,0.008333333,-0.38125,1,0,0,,,,,,1,end_of_practice,"You have completed the practice trials. During the experimental trials, you will not receive feedback. 
Before you begin, please ensure that you are in a comfortable and quiet location and will not be disturbed for about 15 minutes, as we cannot use your data if you do not complete all the trials. 
 When you are ready to start the experimental trials, please press space or touch the button below.",,,5c054e8a553fb800011917d7,22,2022-02-12_14h05.18.811,lexical_decision_task_DD_L6,2021.2.3,Win32,164.0419948,,,,,,,,,,,,,,,,,,,,,instr_done_button,0,0,0,0,1,,,,,,,,,,,,,,,,,,,,,,,,,,,,,,,,,,,,,,,,,,,,,,,,,,,,,,,,,,,,
,,,,,,,,,,,,,,,,,5c054e8a553fb800011917d7,22,2022-02-12_14h05.18.811,lexical_decision_task_DD_L6,2021.2.3,Win32,164.0419948,,,,,,,,,,,2.5207,0,,,,,,,,,,,,,,,m,0,2.5207,,,,,,,,0.008333333,-0.38125,0,0,0,,0,0,0,94,1,BLANS,HB,z,z,./images/BLANSHB.png,,,,,,,,,,,,,,,,,,,,,,,,,,,,,,,,,,
,,,,,,,,,,,,,,,,,5c054e8a553fb800011917d7,22,2022-02-12_14h05.18.811,lexical_decision_task_DD_L6,2021.2.3,Win32,164.0419948,,,,,,,,,,,1.4472,1,,,,,,,,,,,,,,,m,1,1.4472,,,,,,,,0.008333333,-0.38125,0,0,0,,0,1,1,72,1,FLASK,LB,m,m,./images/FLASKLB.png,,,,,,,,,,,,,,,,,,,,,,,,,,,,,,,,,,
,,,,,,,,,,,,,,,,,5c054e8a553fb800011917d7,22,2022-02-12_14h05.18.811,lexical_decision_task_DD_L6,2021.2.3,Win32,164.0419948,,,,,,,,,,,1.454,1,,,,,,,,,,,,,,,m,1,1.454,,,,,,,,0.008333333,-0.38125,0,0,0,,0,2,2,47,1,LAGOON,HB,m,m,./images/LAGOONHB.png,,,,,,,,,,,,,,,,,,,,,,,,,,,,,,,,,,
,,,,,,,,,,,,,,,,,5c054e8a553fb800011917d7,22,2022-02-12_14h05.18.811,lexical_decision_task_DD_L6,2021.2.3,Win32,164.0419948,,,,,,,,,,,0.9695,1,,,,,,,,,,,,,,,m,1,0.9695,,,,,,,,0.008333333,-0.38125,0,0,0,,0,3,3,78,1,BROOM,LB,m,m,./images/BROOMLB.png,,,,,,,,,,,,,,,,,,,,,,,,,,,,,,,,,,
,,,,,,,,,,,,,,,,,5c054e8a553fb800011917d7,22,2022-02-12_14h05.18.811,lexical_decision_task_DD_L6,2021.2.3,Win32,164.0419948,,,,,,,,,,,0.8215,1,,,,,,,,,,,,,,,m,1,0.8215,,,,,,,,0.008333333,-0.38125,0,0,0,,0,4,4,64,1,BRIDE,C,m,m,./images/BRIDE.png,,,,,,,,,,,,,,,,,,,,,,,,,,,,,,,,,,
,,,,,,,,,,,,,,,,,5c054e8a553fb800011917d7,22,2022-02-12_14h05.18.811,lexical_decision_task_DD_L6,2021.2.3,Win32,164.0419948,,,,,,,,,,,1.4728,1,,,,,,,,,,,,,,,z,1,1.4728,,,,,,,,0.008333333,-0.38125,0,0,0,,0,5,5,148,1,JOMS,HB,z,z,./images/JOMSHB.png,,,,,,,,,,,,,,,,,,,,,,,,,,,,,,,,,,
,,,,,,,,,,,,,,,,,5c054e8a553fb800011917d7,22,2022-02-12_14h05.18.811,lexical_decision_task_DD_L6,2021.2.3,Win32,164.0419948,,,,,,,,,,,1.0171,1,,,,,,,,,,,,,,,z,1,1.0171,,,,,,,,0.008333333,-0.38125,0,0,0,,0,6,6,90,1,NEAST,C,z,z,./images/NEAST.png,,,,,,,,,,,,,,,,,,,,,,,,,,,,,,,,,,
,,,,,,,,,,,,,,,,,5c054e8a553fb800011917d7,22,2022-02-12_14h05.18.811,lexical_decision_task_DD_L6,2021.2.3,Win32,164.0419948,,,,,,,,,,,1.0235,1,,,,,,,,,,,,,,,m,1,1.0235,,,,,,,,0.008333333,-0.38125,0,0,0,,0,7,7,18,1,PARCEL,LB,m,m,./images/PARCELLB.png,,,,,,,,,,,,,,,,,,,,,,,,,,,,,,,,,,
,,,,,,,,,,,,,,,,,5c054e8a553fb800011917d7,22,2022-02-12_14h05.18.811,lexical_decision_task_DD_L6,2021.2.3,Win32,164.0419948,,,,,,,,,,,0.7636,1,,,,,,,,,,,,,,,m,1,0.7636,,,,,,,,0.008333333,-0.38125,0,0,0,,0,8,8,55,1,ALLEY,C,m,m,./images/ALLEY.png,,,,,,,,,,,,,,,,,,,,,,,,,,,,,,,,,,
,,,,,,,,,,,,,,,,,5c054e8a553fb800011917d7,22,2022-02-12_14h05.18.811,lexical_decision_task_DD_L6,2021.2.3,Win32,164.0419948,,,,,,,,,,,0.845,1,,,,,,,,,,,,,,,m,1,0.845,,,,,,,,0.008333333,-0.38125,0,0,0,,0,9,9,21,1,DANCER,LB,m,m,./images/DANCERLB.png,,,,,,,,,,,,,,,,,,,,,,,,,,,,,,,,,,
,,,,,,,,,,,,,,,,,5c054e8a553fb800011917d7,22,2022-02-12_14h05.18.811,lexical_decision_task_DD_L6,2021.2.3,Win32,164.0419948,,,,,,,,,,,0.8801,1,,,,,,,,,,,,,,,m,1,0.8801,,,,,,,,0.008333333,-0.38125,0,0,0,,0,10,10,82,1,PEBBLE,C,m,m,./images/PEBBLE.png,,,,,,,,,,,,,,,,,,,,,,,,,,,,,,,,,,
,,,,,,,,,,,,,,,,,5c054e8a553fb800011917d7,22,2022-02-12_14h05.18.811,lexical_decision_task_DD_L6,2021.2.3,Win32,164.0419948,,,,,,,,,,,1.474,1,,,,,,,,,,,,,,,m,1,1.474,,,,,,,,0.008333333,-0.38125,0,0,0,,0,11,11,26,1,CLOUD,HB,m,m,./images/CLOUDHB.png,,,,,,,,,,,,,,,,,,,,,,,,,,,,,,,,,,
,,,,,,,,,,,,,,,,,5c054e8a553fb800011917d7,22,2022-02-12_14h05.18.811,lexical_decision_task_DD_L6,2021.2.3,Win32,164.0419948,,,,,,,,,,,0.7535,1,,,,,,,,,,,,,,,m,1,0.7535,,,,,,,,0.008333333,-0.38125,0,0,0,,0,12,12,33,1,SAUNA,LB,m,m,./images/SAUNALB.png,,,,,,,,,,,,,,,,,,,,,,,,,,,,,,,,,,
,,,,,,,,,,,,,,,,,5c054e8a553fb800011917d7,22,2022-02-12_14h05.18.811,lexical_decision_task_DD_L6,2021.2.3,Win32,164.0419948,,,,,,,,,,,0.854,1,,,,,,,,,,,,,,,z,1,0.854,,,,,,,,0.008333333,-0.38125,0,0,0,,0,13,13,161,1,BLAPS,LB,z,z,./images/BLAPSLB.png,,,,,,,,,,,,,,,,,,,,,,,,,,,,,,,,,,
,,,,,,,,,,,,,,,,,5c054e8a553fb800011917d7,22,2022-02-12_14h05.18.811,lexical_decision_task_DD_L6,2021.2.3,Win32,164.0419948,,,,,,,,,,,0.8988,1,,,,,,,,,,,,,,,z,1,0.8988,,,,,,,,0.008333333,-0.38125,0,0,0,,0,14,14,140,1,DOVET,LB,z,z,./images/DOVETLB.png,,,,,,,,,,,,,,,,,,,,,,,,,,,,,,,,,,
,,,,,,,,,,,,,,,,,5c054e8a553fb800011917d7,22,2022-02-12_14h05.18.811,lexical_decision_task_DD_L6,2021.2.3,Win32,164.0419948,,,,,,,,,,,0.8104,1,,,,,,,,,,,,,,,m,1,0.8104,,,,,,,,0.008333333,-0.38125,0,0,0,,0,15,15,25,1,CHALK,C,m,m,./images/CHALK.png,,,,,,,,,,,,,,,,,,,,,,,,,,,,,,,,,,
,,,,,,,,,,,,,,,,,5c054e8a553fb800011917d7,22,2022-02-12_14h05.18.811,lexical_decision_task_DD_L6,2021.2.3,Win32,164.0419948,,,,,,,,,,,0.6587,1,,,,,,,,,,,,,,,m,1,0.6587,,,,,,,,0.008333333,-0.38125,0,0,0,,0,16,16,36,1,BOILER,LB,m,m,./images/BOILERLB.png,,,,,,,,,,,,,,,,,,,,,,,,,,,,,,,,,,
,,,,,,,,,,,,,,,,,5c054e8a553fb800011917d7,22,2022-02-12_14h05.18.811,lexical_decision_task_DD_L6,2021.2.3,Win32,164.0419948,,,,,,,,,,,0.6628,1,,,,,,,,,,,,,,,z,1,0.6628,,,,,,,,0.008333333,-0.38125,0,0,0,,0,17,17,96,1,KEAMS,C,z,z,./images/KEAMS.png,,,,,,,,,,,,,,,,,,,,,,,,,,,,,,,,,,
,,,,,,,,,,,,,,,,,5c054e8a553fb800011917d7,22,2022-02-12_14h05.18.811,lexical_decision_task_DD_L6,2021.2.3,Win32,164.0419948,,,,,,,,,,,0.5298,1,,,,,,,,,,,,,,,m,1,0.5298,,,,,,,,0.008333333,-0.38125,0,0,0,,0,18,18,22,1,CLOWN,C,m,m,./images/CLOWN.png,,,,,,,,,,,,,,,,,,,,,,,,,,,,,,,,,,
,,,,,,,,,,,,,,,,,5c054e8a553fb800011917d7,22,2022-02-12_14h05.18.811,lexical_decision_task_DD_L6,2021.2.3,Win32,164.0419948,,,,,,,,,,,2.6039,0,,,,,,,,,,,,,,,m,0,2.6039,,,,,,,,0.008333333,-0.38125,0,0,0,,0,19,19,159,1,CUDDY,C,z,z,./images/CUDDY.png,,,,,,,,,,,,,,,,,,,,,,,,,,,,,,,,,,
,,,,,,,,,,,,,,,,,5c054e8a553fb800011917d7,22,2022-02-12_14h05.18.811,lexical_decision_task_DD_L6,2021.2.3,Win32,164.0419948,,,,,,,,,,,0.8913,1,,,,,,,,,,,,,,,z,1,0.8913,,,,,,,,0.008333333,-0.38125,0,0,0,,0,20,20,146,1,MOOST,LB,z,z,./images/MOOSTLB.png,,,,,,,,,,,,,,,,,,,,,,,,,,,,,,,,,,
,,,,,,,,,,,,,,,,,5c054e8a553fb800011917d7,22,2022-02-12_14h05.18.811,lexical_decision_task_DD_L6,2021.2.3,Win32,164.0419948,,,,,,,,,,,0.8502,1,,,,,,,,,,,,,,,z,1,0.8502,,,,,,,,0.008333333,-0.38125,0,0,0,,0,21,21,149,1,VEASE,LB,z,z,./images/VEASELB.png,,,,,,,,,,,,,,,,,,,,,,,,,,,,,,,,,,
,,,,,,,,,,,,,,,,,5c054e8a553fb800011917d7,22,2022-02-12_14h05.18.811,lexical_decision_task_DD_L6,2021.2.3,Win32,164.0419948,,,,,,,,,,,2.4737,1,,,,,,,,,,,,,,,z,1,2.4737,,,,,,,,0.008333333,-0.38125,0,0,0,,0,22,22,157,1,INLER,HB,z,z,./images/INLERHB.png,,,,,,,,,,,,,,,,,,,,,,,,,,,,,,,,,,
,,,,,,,,,,,,,,,,,5c054e8a553fb800011917d7,22,2022-02-12_14h05.18.811,lexical_decision_task_DD_L6,2021.2.3,Win32,164.0419948,,,,,,,,,,,2.2707,1,,,,,,,,,,,,,,,z,1,2.2707,,,,,,,,0.008333333,-0.38125,0,0,0,,0,23,23,121,1,CEERS,HB,z,z,./images/CEERSHB.png,,,,,,,,,,,,,,,,,,,,,,,,,,,,,,,,,,
,,,,,,,,,,,,,,,,,5c054e8a553fb800011917d7,22,2022-02-12_14h05.18.811,lexical_decision_task_DD_L6,2021.2.3,Win32,164.0419948,,,,,,,,,,,1.0081,1,,,,,,,,,,,,,,,z,1,1.0081,,,,,,,,0.008333333,-0.38125,0,0,0,,0,24,24,135,1,JOODY,C,z,z,./images/JOODY.png,,,,,,,,,,,,,,,,,,,,,,,,,,,,,,,,,,
,,,,,,,,,,,,,,,,,5c054e8a553fb800011917d7,22,2022-02-12_14h05.18.811,lexical_decision_task_DD_L6,2021.2.3,Win32,164.0419948,,,,,,,,,,,0.8994,1,,,,,,,,,,,,,,,z,1,0.8994,,,,,,,,0.008333333,-0.38125,0,0,0,,0,25,25,126,1,GUELS,C,z,z,./images/GUELS.png,,,,,,,,,,,,,,,,,,,,,,,,,,,,,,,,,,
,,,,,,,,,,,,,,,,,5c054e8a553fb800011917d7,22,2022-02-12_14h05.18.811,lexical_decision_task_DD_L6,2021.2.3,Win32,164.0419948,,,,,,,,,,,0.7809,1,,,,,,,,,,,,,,,z,1,0.7809,,,,,,,,0.008333333,-0.38125,0,0,0,,0,26,26,119,1,PAFER,LB,z,z,./images/PAFERLB.png,,,,,,,,,,,,,,,,,,,,,,,,,,,,,,,,,,
,,,,,,,,,,,,,,,,,5c054e8a553fb800011917d7,22,2022-02-12_14h05.18.811,lexical_decision_task_DD_L6,2021.2.3,Win32,164.0419948,,,,,,,,,,,0.6298,1,,,,,,,,,,,,,,,m,1,0.6298,,,,,,,,0.008333333,-0.38125,0,0,0,,0,27,27,81,1,DRILL,LB,m,m,./images/DRILLLB.png,,,,,,,,,,,,,,,,,,,,,,,,,,,,,,,,,,
,,,,,,,,,,,,,,,,,5c054e8a553fb800011917d7,22,2022-02-12_14h05.18.811,lexical_decision_task_DD_L6,2021.2.3,Win32,164.0419948,,,,,,,,,,,0.6833,1,,,,,,,,,,,,,,,m,1,0.6833,,,,,,,,0.008333333,-0.38125,0,0,0,,0,28,28,13,1,BUNNY,C,m,m,./images/BUNNY.png,,,,,,,,,,,,,,,,,,,,,,,,,,,,,,,,,,
,,,,,,,,,,,,,,,,,5c054e8a553fb800011917d7,22,2022-02-12_14h05.18.811,lexical_decision_task_DD_L6,2021.2.3,Win32,164.0419948,,,,,,,,,,,0.7893,1,,,,,,,,,,,,,,,z,1,0.7893,,,,,,,,0.008333333,-0.38125,0,0,0,,0,29,29,129,1,PRANS,C,z,z,./images/PRANS.png,,,,,,,,,,,,,,,,,,,,,,,,,,,,,,,,,,
,,,,,,,,,,,,,,,,,5c054e8a553fb800011917d7,22,2022-02-12_14h05.18.811,lexical_decision_task_DD_L6,2021.2.3,Win32,164.0419948,,,,,,,,,,,0.9308,1,,,,,,,,,,,,,,,z,1,0.9308,,,,,,,,0.008333333,-0.38125,0,0,0,,0,30,30,104,1,GITTY,LB,z,z,./images/GITTYLB.png,,,,,,,,,,,,,,,,,,,,,,,,,,,,,,,,,,
,,,,,,,,,,,,,,,,,5c054e8a553fb800011917d7,22,2022-02-12_14h05.18.811,lexical_decision_task_DD_L6,2021.2.3,Win32,164.0419948,,,,,,,,,,,0.6641,1,,,,,,,,,,,,,,,m,1,0.6641,,,,,,,,0.008333333,-0.38125,0,0,0,,0,31,31,28,1,CASINO,C,m,m,./images/CASINO.png,,,,,,,,,,,,,,,,,,,,,,,,,,,,,,,,,,
,,,,,,,,,,,,,,,,,5c054e8a553fb800011917d7,22,2022-02-12_14h05.18.811,lexical_decision_task_DD_L6,2021.2.3,Win32,164.0419948,,,,,,,,,,,1.5565,1,,,,,,,,,,,,,,,m,1,1.5565,,,,,,,,0.008333333,-0.38125,0,0,0,,0,32,32,59,1,BRUSH,HB,m,m,./images/BRUSHHB.png,,,,,,,,,,,,,,,,,,,,,,,,,,,,,,,,,,
,,,,,,,,,,,,,,,,,5c054e8a553fb800011917d7,22,2022-02-12_14h05.18.811,lexical_decision_task_DD_L6,2021.2.3,Win32,164.0419948,,,,,,,,,,,0.5501,1,,,,,,,,,,,,,,,m,1,0.5501,,,,,,,,0.008333333,-0.38125,0,0,0,,0,33,33,31,1,STEAK,C,m,m,./images/STEAK.png,,,,,,,,,,,,,,,,,,,,,,,,,,,,,,,,,,
,,,,,,,,,,,,,,,,,5c054e8a553fb800011917d7,22,2022-02-12_14h05.18.811,lexical_decision_task_DD_L6,2021.2.3,Win32,164.0419948,,,,,,,,,,,0.8253,1,,,,,,,,,,,,,,,z,1,0.8253,,,,,,,,0.008333333,-0.38125,0,0,0,,0,34,34,105,1,MOKER,C,z,z,./images/MOKER.png,,,,,,,,,,,,,,,,,,,,,,,,,,,,,,,,,,
,,,,,,,,,,,,,,,,,5c054e8a553fb800011917d7,22,2022-02-12_14h05.18.811,lexical_decision_task_DD_L6,2021.2.3,Win32,164.0419948,,,,,,,,,,,0.6581,1,,,,,,,,,,,,,,,z,1,0.6581,,,,,,,,0.008333333,-0.38125,0,0,0,,0,35,35,101,1,GLEET,LB,z,z,./images/GLEETLB.png,,,,,,,,,,,,,,,,,,,,,,,,,,,,,,,,,,
,,,,,,,,,,,,,,,,,5c054e8a553fb800011917d7,22,2022-02-12_14h05.18.811,lexical_decision_task_DD_L6,2021.2.3,Win32,164.0419948,,,,,,,,,,,0.5558,1,,,,,,,,,,,,,,,m,1,0.5558,,,,,,,,0.008333333,-0.38125,0,0,0,,0,36,36,16,1,GRAPE,C,m,m,./images/GRAPE.png,,,,,,,,,,,,,,,,,,,,,,,,,,,,,,,,,,
,,,,,,,,,,,,,,,,,5c054e8a553fb800011917d7,22,2022-02-12_14h05.18.811,lexical_decision_task_DD_L6,2021.2.3,Win32,164.0419948,,,,,,,,,,,0.5622,1,,,,,,,,,,,,,,,z,1,0.5622,,,,,,,,0.008333333,-0.38125,0,0,0,,0,37,37,132,1,SCIFF,C,z,z,./images/SCIFF.png,,,,,,,,,,,,,,,,,,,,,,,,,,,,,,,,,,
,,,,,,,,,,,,,,,,,5c054e8a553fb800011917d7,22,2022-02-12_14h05.18.811,lexical_decision_task_DD_L6,2021.2.3,Win32,164.0419948,,,,,,,,,,,1.3871,1,,,,,,,,,,,,,,,z,1,1.3871,,,,,,,,0.008333333,-0.38125,0,0,0,,0,38,38,91,1,SHENS,HB,z,z,./images/SHENSHB.png,,,,,,,,,,,,,,,,,,,,,,,,,,,,,,,,,,
,,,,,,,,,,,,,,,,,5c054e8a553fb800011917d7,22,2022-02-12_14h05.18.811,lexical_decision_task_DD_L6,2021.2.3,Win32,164.0419948,,,,,,,,,,,0.6787,1,,,,,,,,,,,,,,,m,1,0.6787,,,,,,,,0.008333333,-0.38125,0,0,0,,0,39,39,24,1,FLESH,LB,m,m,./images/FLESHLB.png,,,,,,,,,,,,,,,,,,,,,,,,,,,,,,,,,,
,,,,,,,,,,,,,,,,,5c054e8a553fb800011917d7,22,2022-02-12_14h05.18.811,lexical_decision_task_DD_L6,2021.2.3,Win32,164.0419948,,,,,,,,,,,0.7155,1,,,,,,,,,,,,,,,m,1,0.7155,,,,,,,,0.008333333,-0.38125,0,0,0,,0,40,40,15,1,COLLAR,LB,m,m,./images/COLLARLB.png,,,,,,,,,,,,,,,,,,,,,,,,,,,,,,,,,,
,,,,,,,,,,,,,,,,,5c054e8a553fb800011917d7,22,2022-02-12_14h05.18.811,lexical_decision_task_DD_L6,2021.2.3,Win32,164.0419948,,,,,,,,,,,0.8802,1,,,,,,,,,,,,,,,m,1,0.8802,,,,,,,,0.008333333,-0.38125,0,0,0,space,0,41,41,8,1,CLIFF,HB,m,m,./images/CLIFFHB.png,49.0201,,,,,,,,,,,,,,,,,,,,,,,,,,,,,,,,,
,,,,,,,,,,,,,,,,,5c054e8a553fb800011917d7,22,2022-02-12_14h05.18.811,lexical_decision_task_DD_L6,2021.2.3,Win32,164.0419948,,,,,,,,,,,0.8695,1,,,,,,,,,,,,,,,m,1,0.8695,,,,,,,,0.008333333,-0.38125,0,0,0,,0,42,42,39,1,CANDY,LB,m,m,./images/CANDYLB.png,,,,,,,,,,,,,,,,,,,,,,,,,,,,,,,,,,
,,,,,,,,,,,,,,,,,5c054e8a553fb800011917d7,22,2022-02-12_14h05.18.811,lexical_decision_task_DD_L6,2021.2.3,Win32,164.0419948,,,,,,,,,,,0.6128,1,,,,,,,,,,,,,,,m,1,0.6128,,,,,,,,0.008333333,-0.38125,0,0,0,,0,43,43,52,1,DESERT,C,m,m,./images/DESERT.png,,,,,,,,,,,,,,,,,,,,,,,,,,,,,,,,,,
,,,,,,,,,,,,,,,,,5c054e8a553fb800011917d7,22,2022-02-12_14h05.18.811,lexical_decision_task_DD_L6,2021.2.3,Win32,164.0419948,,,,,,,,,,,0.6972,1,,,,,,,,,,,,,,,z,1,0.6972,,,,,,,,0.008333333,-0.38125,0,0,0,,0,44,44,98,1,BAMPS,LB,z,z,./images/BAMPSLB.png,,,,,,,,,,,,,,,,,,,,,,,,,,,,,,,,,,
,,,,,,,,,,,,,,,,,5c054e8a553fb800011917d7,22,2022-02-12_14h05.18.811,lexical_decision_task_DD_L6,2021.2.3,Win32,164.0419948,,,,,,,,,,,0.6237,1,,,,,,,,,,,,,,,m,1,0.6237,,,,,,,,0.008333333,-0.38125,0,0,0,,0,45,45,46,1,MUMMY,C,m,m,./images/MUMMY.png,,,,,,,,,,,,,,,,,,,,,,,,,,,,,,,,,,
,,,,,,,,,,,,,,,,,5c054e8a553fb800011917d7,22,2022-02-12_14h05.18.811,lexical_decision_task_DD_L6,2021.2.3,Win32,164.0419948,,,,,,,,,,,0.6737,1,,,,,,,,,,,,,,,m,1,0.6737,,,,,,,,0.008333333,-0.38125,0,0,0,,0,46,46,0,1,WALNUT,LB,m,m,./images/WALNUTLB.png,,,,,,,,,,,,,,,,,,,,,,,,,,,,,,,,,,
,,,,,,,,,,,,,,,,,5c054e8a553fb800011917d7,22,2022-02-12_14h05.18.811,lexical_decision_task_DD_L6,2021.2.3,Win32,164.0419948,,,,,,,,,,,0.5461,1,,,,,,,,,,,,,,,z,1,0.5461,,,,,,,,0.008333333,-0.38125,0,0,0,,0,47,47,116,1,BALGY,LB,z,z,./images/BALGYLB.png,,,,,,,,,,,,,,,,,,,,,,,,,,,,,,,,,,
,,,,,,,,,,,,,,,,,5c054e8a553fb800011917d7,22,2022-02-12_14h05.18.811,lexical_decision_task_DD_L6,2021.2.3,Win32,164.0419948,,,,,,,,,,,0.5443,1,,,,,,,,,,,,,,,m,1,0.5443,,,,,,,,0.008333333,-0.38125,0,0,0,,0,48,48,7,1,WAGON,C,m,m,./images/WAGON.png,,,,,,,,,,,,,,,,,,,,,,,,,,,,,,,,,,
,,,,,,,,,,,,,,,,,5c054e8a553fb800011917d7,22,2022-02-12_14h05.18.811,lexical_decision_task_DD_L6,2021.2.3,Win32,164.0419948,,,,,,,,,,,1.1945,1,,,,,,,,,,,,,,,z,1,1.1945,,,,,,,,0.008333333,-0.38125,0,0,0,,0,49,49,127,1,NINDY,HB,z,z,./images/NINDYHB.png,,,,,,,,,,,,,,,,,,,,,,,,,,,,,,,,,,
,,,,,,,,,,,,,,,,,5c054e8a553fb800011917d7,22,2022-02-12_14h05.18.811,lexical_decision_task_DD_L6,2021.2.3,Win32,164.0419948,,,,,,,,,,,0.929,0,,,,,,,,,,,,,,,z,0,0.929,,,,,,,,0.008333333,-0.38125,0,0,0,,0,50,50,5,1,BAMBOO,HB,m,m,./images/BAMBOOHB.png,,,,,,,,,,,,,,,,,,,,,,,,,,,,,,,,,,
,,,,,,,,,,,,,,,,,5c054e8a553fb800011917d7,22,2022-02-12_14h05.18.811,lexical_decision_task_DD_L6,2021.2.3,Win32,164.0419948,,,,,,,,,,,0.9745,1,,,,,,,,,,,,,,,z,1,0.9745,,,,,,,,0.008333333,-0.38125,0,0,0,,0,51,51,165,1,TROWN,C,z,z,./images/TROWN.png,,,,,,,,,,,,,,,,,,,,,,,,,,,,,,,,,,
,,,,,,,,,,,,,,,,,5c054e8a553fb800011917d7,22,2022-02-12_14h05.18.811,lexical_decision_task_DD_L6,2021.2.3,Win32,164.0419948,,,,,,,,,,,0.5682,1,,,,,,,,,,,,,,,m,1,0.5682,,,,,,,,0.008333333,-0.38125,0,0,0,,0,52,52,75,1,HAMMER,LB,m,m,./images/HAMMERLB.png,,,,,,,,,,,,,,,,,,,,,,,,,,,,,,,,,,
,,,,,,,,,,,,,,,,,5c054e8a553fb800011917d7,22,2022-02-12_14h05.18.811,lexical_decision_task_DD_L6,2021.2.3,Win32,164.0419948,,,,,,,,,,,1.8025,1,,,,,,,,,,,,,,,z,1,1.8025,,,,,,,,0.008333333,-0.38125,0,0,0,,0,53,53,130,1,CRILL,HB,z,z,./images/CRILLHB.png,,,,,,,,,,,,,,,,,,,,,,,,,,,,,,,,,,
,,,,,,,,,,,,,,,,,5c054e8a553fb800011917d7,22,2022-02-12_14h05.18.811,lexical_decision_task_DD_L6,2021.2.3,Win32,164.0419948,,,,,,,,,,,1.6714,1,,,,,,,,,,,,,,,z,1,1.6714,,,,,,,,0.008333333,-0.38125,0,0,0,,0,54,54,100,1,DRIBS,HB,z,z,./images/DRIBSHB.png,,,,,,,,,,,,,,,,,,,,,,,,,,,,,,,,,,
,,,,,,,,,,,,,,,,,5c054e8a553fb800011917d7,22,2022-02-12_14h05.18.811,lexical_decision_task_DD_L6,2021.2.3,Win32,164.0419948,,,,,,,,,,,0.7379,1,,,,,,,,,,,,,,,z,1,0.7379,,,,,,,,0.008333333,-0.38125,0,0,0,,0,55,55,120,1,RINED,C,z,z,./images/RINED.png,,,,,,,,,,,,,,,,,,,,,,,,,,,,,,,,,,
,,,,,,,,,,,,,,,,,5c054e8a553fb800011917d7,22,2022-02-12_14h05.18.811,lexical_decision_task_DD_L6,2021.2.3,Win32,164.0419948,,,,,,,,,,,0.9207,1,,,,,,,,,,,,,,,m,1,0.9207,,,,,,,,0.008333333,-0.38125,0,0,0,,0,56,56,56,1,HEATER,HB,m,m,./images/HEATERHB.png,,,,,,,,,,,,,,,,,,,,,,,,,,,,,,,,,,
,,,,,,,,,,,,,,,,,5c054e8a553fb800011917d7,22,2022-02-12_14h05.18.811,lexical_decision_task_DD_L6,2021.2.3,Win32,164.0419948,,,,,,,,,,,1.4584,1,,,,,,,,,,,,,,,z,1,1.4584,,,,,,,,0.008333333,-0.38125,0,0,0,,0,57,57,136,1,WERVE,HB,z,z,./images/WERVEHB.png,,,,,,,,,,,,,,,,,,,,,,,,,,,,,,,,,,
,,,,,,,,,,,,,,,,,5c054e8a553fb800011917d7,22,2022-02-12_14h05.18.811,lexical_decision_task_DD_L6,2021.2.3,Win32,164.0419948,,,,,,,,,,,0.6867,1,,,,,,,,,,,,,,,z,1,0.6867,,,,,,,,0.008333333,-0.38125,0,0,0,,0,58,58,87,1,TRING,C,z,z,./images/TRING.png,,,,,,,,,,,,,,,,,,,,,,,,,,,,,,,,,,
,,,,,,,,,,,,,,,,,5c054e8a553fb800011917d7,22,2022-02-12_14h05.18.811,lexical_decision_task_DD_L6,2021.2.3,Win32,164.0419948,,,,,,,,,,,0.9925,1,,,,,,,,,,,,,,,z,1,0.9925,,,,,,,,0.008333333,-0.38125,0,0,0,,0,59,59,160,1,VEETS,HB,z,z,./images/VEETSHB.png,,,,,,,,,,,,,,,,,,,,,,,,,,,,,,,,,,
,,,,,,,,,,,,,,,,,5c054e8a553fb800011917d7,22,2022-02-12_14h05.18.811,lexical_decision_task_DD_L6,2021.2.3,Win32,164.0419948,,,,,,,,,,,2.0728,1,,,,,,,,,,,,,,,z,1,2.0728,,,,,,,,0.008333333,-0.38125,0,0,0,,0,60,60,142,1,PLASK,HB,z,z,./images/PLASKHB.png,,,,,,,,,,,,,,,,,,,,,,,,,,,,,,,,,,
,,,,,,,,,,,,,,,,,5c054e8a553fb800011917d7,22,2022-02-12_14h05.18.811,lexical_decision_task_DD_L6,2021.2.3,Win32,164.0419948,,,,,,,,,,,0.758,1,,,,,,,,,,,,,,,m,1,0.758,,,,,,,,0.008333333,-0.38125,0,0,0,,0,61,61,3,1,CRATER,LB,m,m,./images/CRATERLB.png,,,,,,,,,,,,,,,,,,,,,,,,,,,,,,,,,,
,,,,,,,,,,,,,,,,,5c054e8a553fb800011917d7,22,2022-02-12_14h05.18.811,lexical_decision_task_DD_L6,2021.2.3,Win32,164.0419948,,,,,,,,,,,1.1016,1,,,,,,,,,,,,,,,m,1,1.1016,,,,,,,,0.008333333,-0.38125,0,0,0,,0,62,62,2,1,STOVE,HB,m,m,./images/STOVEHB.png,,,,,,,,,,,,,,,,,,,,,,,,,,,,,,,,,,
,,,,,,,,,,,,,,,,,5c054e8a553fb800011917d7,22,2022-02-12_14h05.18.811,lexical_decision_task_DD_L6,2021.2.3,Win32,164.0419948,,,,,,,,,,,1.8306,1,,,,,,,,,,,,,,,m,1,1.8306,,,,,,,,0.008333333,-0.38125,0,0,0,,0,63,63,41,1,STREAM,HB,m,m,./images/STREAMHB.png,,,,,,,,,,,,,,,,,,,,,,,,,,,,,,,,,,
,,,,,,,,,,,,,,,,,5c054e8a553fb800011917d7,22,2022-02-12_14h05.18.811,lexical_decision_task_DD_L6,2021.2.3,Win32,164.0419948,,,,,,,,,,,0.7284,1,,,,,,,,,,,,,,,z,1,0.7284,,,,,,,,0.008333333,-0.38125,0,0,0,,0,64,64,156,1,HIXES,C,z,z,./images/HIXES.png,,,,,,,,,,,,,,,,,,,,,,,,,,,,,,,,,,
,,,,,,,,,,,,,,,,,5c054e8a553fb800011917d7,22,2022-02-12_14h05.18.811,lexical_decision_task_DD_L6,2021.2.3,Win32,164.0419948,,,,,,,,,,,0.6418,1,,,,,,,,,,,,,,,z,1,0.6418,,,,,,,,0.008333333,-0.38125,0,0,0,,0,65,65,138,1,PLICE,C,z,z,./images/PLICE.png,,,,,,,,,,,,,,,,,,,,,,,,,,,,,,,,,,
,,,,,,,,,,,,,,,,,5c054e8a553fb800011917d7,22,2022-02-12_14h05.18.811,lexical_decision_task_DD_L6,2021.2.3,Win32,164.0419948,,,,,,,,,,,0.5553,1,,,,,,,,,,,,,,,m,1,0.5553,,,,,,,,0.008333333,-0.38125,0,0,0,,0,66,66,67,1,POKER,C,m,m,./images/POKER.png,,,,,,,,,,,,,,,,,,,,,,,,,,,,,,,,,,
,,,,,,,,,,,,,,,,,5c054e8a553fb800011917d7,22,2022-02-12_14h05.18.811,lexical_decision_task_DD_L6,2021.2.3,Win32,164.0419948,,,,,,,,,,,0.8732,1,,,,,,,,,,,,,,,m,1,0.8732,,,,,,,,0.008333333,-0.38125,0,0,0,,0,67,67,54,1,CHERRY,LB,m,m,./images/CHERRYLB.png,,,,,,,,,,,,,,,,,,,,,,,,,,,,,,,,,,
,,,,,,,,,,,,,,,,,5c054e8a553fb800011917d7,22,2022-02-12_14h05.18.811,lexical_decision_task_DD_L6,2021.2.3,Win32,164.0419948,,,,,,,,,,,0.6296,1,,,,,,,,,,,,,,,z,1,0.6296,,,,,,,,0.008333333,-0.38125,0,0,0,,0,68,68,107,1,FASKS,LB,z,z,./images/FASKSLB.png,,,,,,,,,,,,,,,,,,,,,,,,,,,,,,,,,,
,,,,,,,,,,,,,,,,,5c054e8a553fb800011917d7,22,2022-02-12_14h05.18.811,lexical_decision_task_DD_L6,2021.2.3,Win32,164.0419948,,,,,,,,,,,2.3225,1,,,,,,,,,,,,,,,z,1,2.3225,,,,,,,,0.008333333,-0.38125,0,0,0,,0,69,69,115,1,MAWNS,HB,z,z,./images/MAWNSHB.png,,,,,,,,,,,,,,,,,,,,,,,,,,,,,,,,,,
,,,,,,,,,,,,,,,,,5c054e8a553fb800011917d7,22,2022-02-12_14h05.18.811,lexical_decision_task_DD_L6,2021.2.3,Win32,164.0419948,,,,,,,,,,,0.9748,1,,,,,,,,,,,,,,,m,1,0.9748,,,,,,,,0.008333333,-0.38125,0,0,0,,0,70,70,32,1,HOCKEY,HB,m,m,./images/HOCKEYHB.png,,,,,,,,,,,,,,,,,,,,,,,,,,,,,,,,,,
,,,,,,,,,,,,,,,,,5c054e8a553fb800011917d7,22,2022-02-12_14h05.18.811,lexical_decision_task_DD_L6,2021.2.3,Win32,164.0419948,,,,,,,,,,,0.8091,1,,,,,,,,,,,,,,,z,1,0.8091,,,,,,,,0.008333333,-0.38125,0,0,0,,0,71,71,86,1,AIFED,LB,z,z,./images/AIFEDLB.png,,,,,,,,,,,,,,,,,,,,,,,,,,,,,,,,,,
,,,,,,,,,,,,,,,,,5c054e8a553fb800011917d7,22,2022-02-12_14h05.18.811,lexical_decision_task_DD_L6,2021.2.3,Win32,164.0419948,,,,,,,,,,,0.8775,1,,,,,,,,,,,,,,,z,1,0.8775,,,,,,,,0.008333333,-0.38125,0,0,0,,0,72,72,113,1,LINEW,LB,z,z,./images/LINEWLB.png,,,,,,,,,,,,,,,,,,,,,,,,,,,,,,,,,,
,,,,,,,,,,,,,,,,,5c054e8a553fb800011917d7,22,2022-02-12_14h05.18.811,lexical_decision_task_DD_L6,2021.2.3,Win32,164.0419948,,,,,,,,,,,1.9395,1,,,,,,,,,,,,,,,z,1,1.9395,,,,,,,,0.008333333,-0.38125,0,0,0,,0,73,73,112,1,MYING,HB,z,z,./images/MYINGHB.png,,,,,,,,,,,,,,,,,,,,,,,,,,,,,,,,,,
,,,,,,,,,,,,,,,,,5c054e8a553fb800011917d7,22,2022-02-12_14h05.18.811,lexical_decision_task_DD_L6,2021.2.3,Win32,164.0419948,,,,,,,,,,,0.8061,1,,,,,,,,,,,,,,,m,1,0.8061,,,,,,,,0.008333333,-0.38125,0,0,0,,0,74,74,29,1,PISTOL,HB,m,m,./images/PISTOLHB.png,,,,,,,,,,,,,,,,,,,,,,,,,,,,,,,,,,
,,,,,,,,,,,,,,,,,5c054e8a553fb800011917d7,22,2022-02-12_14h05.18.811,lexical_decision_task_DD_L6,2021.2.3,Win32,164.0419948,,,,,,,,,,,1.6933,1,,,,,,,,,,,,,,,z,1,1.6933,,,,,,,,0.008333333,-0.38125,0,0,0,,0,75,75,85,1,CHULK,HB,z,z,./images/CHULKHB.png,,,,,,,,,,,,,,,,,,,,,,,,,,,,,,,,,,
,,,,,,,,,,,,,,,,,5c054e8a553fb800011917d7,22,2022-02-12_14h05.18.811,lexical_decision_task_DD_L6,2021.2.3,Win32,164.0419948,,,,,,,,,,,0.7642,1,,,,,,,,,,,,,,,z,1,0.7642,,,,,,,,0.008333333,-0.38125,0,0,0,,0,76,76,93,1,SMONE,C,z,z,./images/SMONE.png,,,,,,,,,,,,,,,,,,,,,,,,,,,,,,,,,,
,,,,,,,,,,,,,,,,,5c054e8a553fb800011917d7,22,2022-02-12_14h05.18.811,lexical_decision_task_DD_L6,2021.2.3,Win32,164.0419948,,,,,,,,,,,0.9729,0,,,,,,,,,,,,,,,z,0,0.9729,,,,,,,,0.008333333,-0.38125,0,0,0,,0,77,77,12,1,BLOKE,LB,m,m,./images/BLOKELB.png,,,,,,,,,,,,,,,,,,,,,,,,,,,,,,,,,,
,,,,,,,,,,,,,,,,,5c054e8a553fb800011917d7,22,2022-02-12_14h05.18.811,lexical_decision_task_DD_L6,2021.2.3,Win32,164.0419948,,,,,,,,,,,0.6544,1,,,,,,,,,,,,,,,z,1,0.6544,,,,,,,,0.008333333,-0.38125,0,0,0,,0,78,78,150,1,NOOLS,C,z,z,./images/NOOLS.png,,,,,,,,,,,,,,,,,,,,,,,,,,,,,,,,,,
,,,,,,,,,,,,,,,,,5c054e8a553fb800011917d7,22,2022-02-12_14h05.18.811,lexical_decision_task_DD_L6,2021.2.3,Win32,164.0419948,,,,,,,,,,,2.5815,1,,,,,,,,,,,,,,,z,1,2.5815,,,,,,,,0.008333333,-0.38125,0,0,0,,0,79,79,99,1,BACKY,C,z,z,./images/BACKY.png,,,,,,,,,,,,,,,,,,,,,,,,,,,,,,,,,,
,,,,,,,,,,,,,,,,,5c054e8a553fb800011917d7,22,2022-02-12_14h05.18.811,lexical_decision_task_DD_L6,2021.2.3,Win32,164.0419948,,,,,,,,,,,0.9875,1,,,,,,,,,,,,,,,z,1,0.9875,,,,,,,,0.008333333,-0.38125,0,0,0,,0,80,80,125,1,MOOKY,LB,z,z,./images/MOOKYLB.png,,,,,,,,,,,,,,,,,,,,,,,,,,,,,,,,,,
,,,,,,,,,,,,,,,,,5c054e8a553fb800011917d7,22,2022-02-12_14h05.18.811,lexical_decision_task_DD_L6,2021.2.3,Win32,164.0419948,,,,,,,,,,,1.5383,1,,,,,,,,,,,,,,,m,1,1.5383,,,,,,,,0.008333333,-0.38125,0,0,0,,0,81,81,23,1,CLOTH,HB,m,m,./images/CLOTHHB.png,,,,,,,,,,,,,,,,,,,,,,,,,,,,,,,,,,
,,,,,,,,,,,,,,,,,5c054e8a553fb800011917d7,22,2022-02-12_14h05.18.811,lexical_decision_task_DD_L6,2021.2.3,Win32,164.0419948,,,,,,,,,,,2.1237,1,,,,,,,,,,,,,,,z,1,2.1237,,,,,,,,0.008333333,-0.38125,0,0,0,,0,82,82,133,1,POWDY,HB,z,z,./images/POWDYHB.png,,,,,,,,,,,,,,,,,,,,,,,,,,,,,,,,,,
,,,,,,,,,,,,,,,,,5c054e8a553fb800011917d7,22,2022-02-12_14h05.18.811,lexical_decision_task_DD_L6,2021.2.3,Win32,164.0419948,,,,,,,,,,,0.5008,1,,,,,,,,,,,,,,,m,1,0.5008,,,,,,,,-0.316666667,0.204861111,0,0,0,space,0,83,83,61,1,ARTIST,C,m,m,./images/ARTIST.png,23.05,,,,,,,,,,,,,,,,,,,,,,,,,,,,,,,,,
,,,,,,,,,,,,,,,,,5c054e8a553fb800011917d7,22,2022-02-12_14h05.18.811,lexical_decision_task_DD_L6,2021.2.3,Win32,164.0419948,,,,,,,,,,,2.054,1,,,,,,,,,,,,,,,m,1,2.054,,,,,,,,-0.316666667,0.204861111,0,0,0,,0,84,84,68,1,VALLEY,HB,m,m,./images/VALLEYHB.png,,,,,,,,,,,,,,,,,,,,,,,,,,,,,,,,,,
,,,,,,,,,,,,,,,,,5c054e8a553fb800011917d7,22,2022-02-12_14h05.18.811,lexical_decision_task_DD_L6,2021.2.3,Win32,164.0419948,,,,,,,,,,,1.164,1,,,,,,,,,,,,,,,m,1,1.164,,,,,,,,-0.316666667,0.204861111,0,0,0,,0,85,85,35,1,LLAMA,HB,m,m,./images/LLAMAHB.png,,,,,,,,,,,,,,,,,,,,,,,,,,,,,,,,,,
,,,,,,,,,,,,,,,,,5c054e8a553fb800011917d7,22,2022-02-12_14h05.18.811,lexical_decision_task_DD_L6,2021.2.3,Win32,164.0419948,,,,,,,,,,,2.718,1,,,,,,,,,,,,,,,z,1,2.718,,,,,,,,-0.316666667,0.204861111,0,0,0,,0,86,86,110,1,CRUNK,LB,z,z,./images/CRUNKLB.png,,,,,,,,,,,,,,,,,,,,,,,,,,,,,,,,,,
,,,,,,,,,,,,,,,,,5c054e8a553fb800011917d7,22,2022-02-12_14h05.18.811,lexical_decision_task_DD_L6,2021.2.3,Win32,164.0419948,,,,,,,,,,,0.8854,1,,,,,,,,,,,,,,,z,1,0.8854,,,,,,,,-0.316666667,0.204861111,0,0,0,,0,87,87,95,1,HANTY,LB,z,z,./images/HANTYLB.png,,,,,,,,,,,,,,,,,,,,,,,,,,,,,,,,,,
,,,,,,,,,,,,,,,,,5c054e8a553fb800011917d7,22,2022-02-12_14h05.18.811,lexical_decision_task_DD_L6,2021.2.3,Win32,164.0419948,,,,,,,,,,,0.5896,1,,,,,,,,,,,,,,,m,1,0.5896,,,,,,,,-0.316666667,0.204861111,0,0,0,,0,88,88,45,1,MONKEY,LB,m,m,./images/MONKEYLB.png,,,,,,,,,,,,,,,,,,,,,,,,,,,,,,,,,,
,,,,,,,,,,,,,,,,,5c054e8a553fb800011917d7,22,2022-02-12_14h05.18.811,lexical_decision_task_DD_L6,2021.2.3,Win32,164.0419948,,,,,,,,,,,1.6902,1,,,,,,,,,,,,,,,m,1,1.6902,,,,,,,,-0.316666667,0.204861111,0,0,0,,0,89,89,65,1,SPINE,HB,m,m,./images/SPINEHB.png,,,,,,,,,,,,,,,,,,,,,,,,,,,,,,,,,,
,,,,,,,,,,,,,,,,,5c054e8a553fb800011917d7,22,2022-02-12_14h05.18.811,lexical_decision_task_DD_L6,2021.2.3,Win32,164.0419948,,,,,,,,,,,1.0797,1,,,,,,,,,,,,,,,m,1,1.0797,,,,,,,,-0.316666667,0.204861111,0,0,0,,0,90,90,17,1,PARADE,HB,m,m,./images/PARADEHB.png,,,,,,,,,,,,,,,,,,,,,,,,,,,,,,,,,,
,,,,,,,,,,,,,,,,,5c054e8a553fb800011917d7,22,2022-02-12_14h05.18.811,lexical_decision_task_DD_L6,2021.2.3,Win32,164.0419948,,,,,,,,,,,0.8039,1,,,,,,,,,,,,,,,z,1,0.8039,,,,,,,,-0.316666667,0.204861111,0,0,0,,0,91,91,131,1,NACES,LB,z,z,./images/NACESLB.png,,,,,,,,,,,,,,,,,,,,,,,,,,,,,,,,,,
,,,,,,,,,,,,,,,,,5c054e8a553fb800011917d7,22,2022-02-12_14h05.18.811,lexical_decision_task_DD_L6,2021.2.3,Win32,164.0419948,,,,,,,,,,,1.1449,1,,,,,,,,,,,,,,,m,1,1.1449,,,,,,,,-0.315972222,0.204861111,0,0,0,,0,92,92,11,1,MEDAL,HB,m,m,./images/MEDALHB.png,,,,,,,,,,,,,,,,,,,,,,,,,,,,,,,,,,
,,,,,,,,,,,,,,,,,5c054e8a553fb800011917d7,22,2022-02-12_14h05.18.811,lexical_decision_task_DD_L6,2021.2.3,Win32,164.0419948,,,,,,,,,,,0.7875,1,,,,,,,,,,,,,,,m,1,0.7875,,,,,,,,-0.315972222,0.204861111,0,0,0,,0,93,93,50,1,PILOT,HB,m,m,./images/PILOTHB.png,,,,,,,,,,,,,,,,,,,,,,,,,,,,,,,,,,
,,,,,,,,,,,,,,,,,5c054e8a553fb800011917d7,22,2022-02-12_14h05.18.811,lexical_decision_task_DD_L6,2021.2.3,Win32,164.0419948,,,,,,,,,,,1.0309,1,,,,,,,,,,,,,,,z,1,1.0309,,,,,,,,-0.315972222,0.204861111,0,0,0,,0,94,94,118,1,BAVEL,HB,z,z,./images/BAVELHB.png,,,,,,,,,,,,,,,,,,,,,,,,,,,,,,,,,,
,,,,,,,,,,,,,,,,,5c054e8a553fb800011917d7,22,2022-02-12_14h05.18.811,lexical_decision_task_DD_L6,2021.2.3,Win32,164.0419948,,,,,,,,,,,1.6922,1,,,,,,,,,,,,,,,z,1,1.6922,,,,,,,,-0.315972222,0.204861111,0,0,0,,0,95,95,139,1,BLEAR,HB,z,z,./images/BLEARHB.png,,,,,,,,,,,,,,,,,,,,,,,,,,,,,,,,,,
,,,,,,,,,,,,,,,,,5c054e8a553fb800011917d7,22,2022-02-12_14h05.18.811,lexical_decision_task_DD_L6,2021.2.3,Win32,164.0419948,,,,,,,,,,,2.1604,0,,,,,,,,,,,,,,,m,0,2.1604,,,,,,,,-0.315972222,0.204861111,0,0,0,,0,96,96,97,1,CHIDS,HB,z,z,./images/CHIDSHB.png,,,,,,,,,,,,,,,,,,,,,,,,,,,,,,,,,,
,,,,,,,,,,,,,,,,,5c054e8a553fb800011917d7,22,2022-02-12_14h05.18.811,lexical_decision_task_DD_L6,2021.2.3,Win32,164.0419948,,,,,,,,,,,0.8812,1,,,,,,,,,,,,,,,z,1,0.8812,,,,,,,,-0.315972222,0.204861111,0,0,0,,0,97,97,92,1,PAIMS,LB,z,z,./images/PAIMSLB.png,,,,,,,,,,,,,,,,,,,,,,,,,,,,,,,,,,
,,,,,,,,,,,,,,,,,5c054e8a553fb800011917d7,22,2022-02-12_14h05.18.811,lexical_decision_task_DD_L6,2021.2.3,Win32,164.0419948,,,,,,,,,,,1.5032,1,,,,,,,,,,,,,,,m,1,1.5032,,,,,,,,-0.315972222,0.204861111,0,0,0,,0,98,98,20,1,GRANNY,HB,m,m,./images/GRANNYHB.png,,,,,,,,,,,,,,,,,,,,,,,,,,,,,,,,,,
,,,,,,,,,,,,,,,,,5c054e8a553fb800011917d7,22,2022-02-12_14h05.18.811,lexical_decision_task_DD_L6,2021.2.3,Win32,164.0419948,,,,,,,,,,,0.5718,1,,,,,,,,,,,,,,,z,1,0.5718,,,,,,,,-0.315972222,0.204861111,0,0,0,,0,99,99,164,1,SGREW,LB,z,z,./images/SGREWLB.png,,,,,,,,,,,,,,,,,,,,,,,,,,,,,,,,,,
,,,,,,,,,,,,,,,,,5c054e8a553fb800011917d7,22,2022-02-12_14h05.18.811,lexical_decision_task_DD_L6,2021.2.3,Win32,164.0419948,,,,,,,,,,,0.4657,1,,,,,,,,,,,,,,,m,1,0.4657,,,,,,,,-0.315972222,0.204861111,0,0,0,,0,100,100,34,1,RAZOR,C,m,m,./images/RAZOR.png,,,,,,,,,,,,,,,,,,,,,,,,,,,,,,,,,,
,,,,,,,,,,,,,,,,,5c054e8a553fb800011917d7,22,2022-02-12_14h05.18.811,lexical_decision_task_DD_L6,2021.2.3,Win32,164.0419948,,,,,,,,,,,1.6531,1,,,,,,,,,,,,,,,z,1,1.6531,,,,,,,,-0.315972222,0.204861111,0,0,0,,0,101,101,106,1,CLUMS,HB,z,z,./images/CLUMSHB.png,,,,,,,,,,,,,,,,,,,,,,,,,,,,,,,,,,
,,,,,,,,,,,,,,,,,5c054e8a553fb800011917d7,22,2022-02-12_14h05.18.811,lexical_decision_task_DD_L6,2021.2.3,Win32,164.0419948,,,,,,,,,,,1.5747,1,,,,,,,,,,,,,,,z,1,1.5747,,,,,,,,-0.315972222,0.204861111,0,0,0,,0,102,102,154,1,THINT,HB,z,z,./images/THINTHB.png,,,,,,,,,,,,,,,,,,,,,,,,,,,,,,,,,,
,,,,,,,,,,,,,,,,,5c054e8a553fb800011917d7,22,2022-02-12_14h05.18.811,lexical_decision_task_DD_L6,2021.2.3,Win32,164.0419948,,,,,,,,,,,0.606,1,,,,,,,,,,,,,,,z,1,0.606,,,,,,,,-0.315972222,0.204861111,0,0,0,,0,103,103,144,1,NAIRY,C,z,z,./images/NAIRY.png,,,,,,,,,,,,,,,,,,,,,,,,,,,,,,,,,,
,,,,,,,,,,,,,,,,,5c054e8a553fb800011917d7,22,2022-02-12_14h05.18.811,lexical_decision_task_DD_L6,2021.2.3,Win32,164.0419948,,,,,,,,,,,1.4023,1,,,,,,,,,,,,,,,z,1,1.4023,,,,,,,,-0.315972222,0.204861111,0,0,0,,0,104,104,88,1,GLUSH,HB,z,z,./images/GLUSHHB.png,,,,,,,,,,,,,,,,,,,,,,,,,,,,,,,,,,
,,,,,,,,,,,,,,,,,5c054e8a553fb800011917d7,22,2022-02-12_14h05.18.811,lexical_decision_task_DD_L6,2021.2.3,Win32,164.0419948,,,,,,,,,,,0.4745,1,,,,,,,,,,,,,,,m,1,0.4745,,,,,,,,-0.315972222,0.204861111,0,0,0,,0,105,105,70,1,BANANA,C,m,m,./images/BANANA.png,,,,,,,,,,,,,,,,,,,,,,,,,,,,,,,,,,
,,,,,,,,,,,,,,,,,5c054e8a553fb800011917d7,22,2022-02-12_14h05.18.811,lexical_decision_task_DD_L6,2021.2.3,Win32,164.0419948,,,,,,,,,,,0.5044,1,,,,,,,,,,,,,,,z,1,0.5044,,,,,,,,-0.315972222,0.204861111,0,0,0,,0,106,106,147,1,ZOLES,C,z,z,./images/ZOLES.png,,,,,,,,,,,,,,,,,,,,,,,,,,,,,,,,,,
,,,,,,,,,,,,,,,,,5c054e8a553fb800011917d7,22,2022-02-12_14h05.18.811,lexical_decision_task_DD_L6,2021.2.3,Win32,164.0419948,,,,,,,,,,,0.9016,1,,,,,,,,,,,,,,,m,1,0.9016,,,,,,,,-0.315972222,0.204861111,0,0,0,,0,107,107,43,1,STOOL,C,m,m,./images/STOOL.png,,,,,,,,,,,,,,,,,,,,,,,,,,,,,,,,,,
,,,,,,,,,,,,,,,,,5c054e8a553fb800011917d7,22,2022-02-12_14h05.18.811,lexical_decision_task_DD_L6,2021.2.3,Win32,164.0419948,,,,,,,,,,,0.6888,1,,,,,,,,,,,,,,,m,1,0.6888,,,,,,,,-0.315972222,0.204861111,0,0,0,,0,108,108,80,1,PLANET,HB,m,m,./images/PLANETHB.png,,,,,,,,,,,,,,,,,,,,,,,,,,,,,,,,,,
,,,,,,,,,,,,,,,,,5c054e8a553fb800011917d7,22,2022-02-12_14h05.18.811,lexical_decision_task_DD_L6,2021.2.3,Win32,164.0419948,,,,,,,,,,,0.7514,1,,,,,,,,,,,,,,,z,1,0.7514,,,,,,,,-0.315972222,0.204861111,0,0,0,,0,109,109,111,1,HOSSE,C,z,z,./images/HOSSE.png,,,,,,,,,,,,,,,,,,,,,,,,,,,,,,,,,,
,,,,,,,,,,,,,,,,,5c054e8a553fb800011917d7,22,2022-02-12_14h05.18.811,lexical_decision_task_DD_L6,2021.2.3,Win32,164.0419948,,,,,,,,,,,0.7049,1,,,,,,,,,,,,,,,z,1,0.7049,,,,,,,,-0.315972222,0.204861111,0,0,0,,0,110,110,89,1,DRIEK,LB,z,z,./images/DRIEKLB.png,,,,,,,,,,,,,,,,,,,,,,,,,,,,,,,,,,
,,,,,,,,,,,,,,,,,5c054e8a553fb800011917d7,22,2022-02-12_14h05.18.811,lexical_decision_task_DD_L6,2021.2.3,Win32,164.0419948,,,,,,,,,,,0.5262,1,,,,,,,,,,,,,,,m,1,0.5262,,,,,,,,-0.315972222,0.204861111,0,0,0,,0,111,111,51,1,SAUCE,LB,m,m,./images/SAUCELB.png,,,,,,,,,,,,,,,,,,,,,,,,,,,,,,,,,,
,,,,,,,,,,,,,,,,,5c054e8a553fb800011917d7,22,2022-02-12_14h05.18.811,lexical_decision_task_DD_L6,2021.2.3,Win32,164.0419948,,,,,,,,,,,0.4683,1,,,,,,,,,,,,,,,m,1,0.4683,,,,,,,,-0.315972222,0.204861111,0,0,0,,0,112,112,37,1,TIGER,C,m,m,./images/TIGER.png,,,,,,,,,,,,,,,,,,,,,,,,,,,,,,,,,,
,,,,,,,,,,,,,,,,,5c054e8a553fb800011917d7,22,2022-02-12_14h05.18.811,lexical_decision_task_DD_L6,2021.2.3,Win32,164.0419948,,,,,,,,,,,0.5611,1,,,,,,,,,,,,,,,z,1,0.5611,,,,,,,,-0.315972222,0.204861111,0,0,0,,0,113,113,84,1,HAXES,C,z,z,./images/HAXES.png,,,,,,,,,,,,,,,,,,,,,,,,,,,,,,,,,,
,,,,,,,,,,,,,,,,,5c054e8a553fb800011917d7,22,2022-02-12_14h05.18.811,lexical_decision_task_DD_L6,2021.2.3,Win32,164.0419948,,,,,,,,,,,0.6635,1,,,,,,,,,,,,,,,m,1,0.6635,,,,,,,,-0.315972222,0.204861111,0,0,0,,0,114,114,63,1,BAKER,LB,m,m,./images/BAKERLB.png,,,,,,,,,,,,,,,,,,,,,,,,,,,,,,,,,,
,,,,,,,,,,,,,,,,,5c054e8a553fb800011917d7,22,2022-02-12_14h05.18.811,lexical_decision_task_DD_L6,2021.2.3,Win32,164.0419948,,,,,,,,,,,0.6414,1,,,,,,,,,,,,,,,m,1,0.6414,,,,,,,,-0.315972222,0.204861111,0,0,0,,0,115,115,49,1,BISHOP,C,m,m,./images/BISHOP.png,,,,,,,,,,,,,,,,,,,,,,,,,,,,,,,,,,
,,,,,,,,,,,,,,,,,5c054e8a553fb800011917d7,22,2022-02-12_14h05.18.811,lexical_decision_task_DD_L6,2021.2.3,Win32,164.0419948,,,,,,,,,,,0.5761,1,,,,,,,,,,,,,,,z,1,0.5761,,,,,,,,-0.315972222,0.204861111,0,0,0,,0,116,116,108,1,GRUET,C,z,z,./images/GRUET.png,,,,,,,,,,,,,,,,,,,,,,,,,,,,,,,,,,
,,,,,,,,,,,,,,,,,5c054e8a553fb800011917d7,22,2022-02-12_14h05.18.811,lexical_decision_task_DD_L6,2021.2.3,Win32,164.0419948,,,,,,,,,,,0.5985,1,,,,,,,,,,,,,,,z,1,0.5985,,,,,,,,-0.315972222,0.204861111,0,0,0,,0,117,117,102,1,DULLE,C,z,z,./images/DULLE.png,,,,,,,,,,,,,,,,,,,,,,,,,,,,,,,,,,
,,,,,,,,,,,,,,,,,5c054e8a553fb800011917d7,22,2022-02-12_14h05.18.811,lexical_decision_task_DD_L6,2021.2.3,Win32,164.0419948,,,,,,,,,,,0.6698,1,,,,,,,,,,,,,,,z,1,0.6698,,,,,,,,-0.315972222,0.204861111,0,0,0,,0,118,118,123,1,SEDGE,C,z,z,./images/SEDGE.png,,,,,,,,,,,,,,,,,,,,,,,,,,,,,,,,,,
,,,,,,,,,,,,,,,,,5c054e8a553fb800011917d7,22,2022-02-12_14h05.18.811,lexical_decision_task_DD_L6,2021.2.3,Win32,164.0419948,,,,,,,,,,,0.688,1,,,,,,,,,,,,,,,z,1,0.688,,,,,,,,-0.315972222,0.204861111,0,0,0,,0,119,119,134,1,TROSS,LB,z,z,./images/TROSSLB.png,,,,,,,,,,,,,,,,,,,,,,,,,,,,,,,,,,
,,,,,,,,,,,,,,,,,5c054e8a553fb800011917d7,22,2022-02-12_14h05.18.811,lexical_decision_task_DD_L6,2021.2.3,Win32,164.0419948,,,,,,,,,,,0.5324,1,,,,,,,,,,,,,,,z,1,0.5324,,,,,,,,-0.315972222,0.204861111,0,0,0,,0,120,120,152,1,FRAIN,LB,z,z,./images/FRAINLB.png,,,,,,,,,,,,,,,,,,,,,,,,,,,,,,,,,,
,,,,,,,,,,,,,,,,,5c054e8a553fb800011917d7,22,2022-02-12_14h05.18.811,lexical_decision_task_DD_L6,2021.2.3,Win32,164.0419948,,,,,,,,,,,2.5491,1,,,,,,,,,,,,,,,z,1,2.5491,,,,,,,,-0.315972222,0.204861111,0,0,0,,0,121,121,163,1,GAMBA,HB,z,z,./images/GAMBAHB.png,,,,,,,,,,,,,,,,,,,,,,,,,,,,,,,,,,
,,,,,,,,,,,,,,,,,5c054e8a553fb800011917d7,22,2022-02-12_14h05.18.811,lexical_decision_task_DD_L6,2021.2.3,Win32,164.0419948,,,,,,,,,,,0.5215,1,,,,,,,,,,,,,,,m,1,0.5215,,,,,,,,-0.315972222,0.204861111,0,0,0,,0,122,122,69,1,ARROW,LB,m,m,./images/ARROWLB.png,,,,,,,,,,,,,,,,,,,,,,,,,,,,,,,,,,
,,,,,,,,,,,,,,,,,5c054e8a553fb800011917d7,22,2022-02-12_14h05.18.811,lexical_decision_task_DD_L6,2021.2.3,Win32,164.0419948,,,,,,,,,,,1.4189,1,,,,,,,,,,,,,,,z,1,1.4189,,,,,,,,-0.315972222,0.204861111,0,0,0,,0,123,123,124,1,TUNCH,HB,z,z,./images/TUNCHHB.png,,,,,,,,,,,,,,,,,,,,,,,,,,,,,,,,,,
,,,,,,,,,,,,,,,,,5c054e8a553fb800011917d7,22,2022-02-12_14h05.18.811,lexical_decision_task_DD_L6,2021.2.3,Win32,164.0419948,,,,,,,,,,,0.4652,1,,,,,,,,,,,,,,,m,1,0.4652,,,,,,,,-0.315972222,0.204861111,0,0,0,,0,124,124,19,1,DONKEY,C,m,m,./images/DONKEY.png,,,,,,,,,,,,,,,,,,,,,,,,,,,,,,,,,,
,,,,,,,,,,,,,,,,,5c054e8a553fb800011917d7,22,2022-02-12_14h05.18.811,lexical_decision_task_DD_L6,2021.2.3,Win32,164.0419948,,,,,,,,,,,0.9549,1,,,,,,,,,,,,,,,m,1,0.9549,,,,,,,,-0.315972222,0.204861111,0,0,0,space,0,125,125,14,1,FENCE,HB,m,m,./images/FENCEHB.png,39.0625,,,,,,,,,,,,,,,,,,,,,,,,,,,,,,,,,
,,,,,,,,,,,,,,,,,5c054e8a553fb800011917d7,22,2022-02-12_14h05.18.811,lexical_decision_task_DD_L6,2021.2.3,Win32,164.0419948,,,,,,,,,,,2.0167,1,,,,,,,,,,,,,,,m,1,2.0167,,,,,,,,-0.315972222,0.204861111,0,0,0,,0,126,126,74,1,JUMPER,HB,m,m,./images/JUMPERHB.png,,,,,,,,,,,,,,,,,,,,,,,,,,,,,,,,,,
,,,,,,,,,,,,,,,,,5c054e8a553fb800011917d7,22,2022-02-12_14h05.18.811,lexical_decision_task_DD_L6,2021.2.3,Win32,164.0419948,,,,,,,,,,,0.7083,1,,,,,,,,,,,,,,,m,1,0.7083,,,,,,,,-0.315972222,0.204861111,0,0,0,,0,127,127,58,1,CANOE,C,m,m,./images/CANOE.png,,,,,,,,,,,,,,,,,,,,,,,,,,,,,,,,,,
,,,,,,,,,,,,,,,,,5c054e8a553fb800011917d7,22,2022-02-12_14h05.18.811,lexical_decision_task_DD_L6,2021.2.3,Win32,164.0419948,,,,,,,,,,,0.4846,1,,,,,,,,,,,,,,,m,1,0.4846,,,,,,,,-0.315972222,0.204861111,0,0,0,,0,128,128,57,1,FERRY,LB,m,m,./images/FERRYLB.png,,,,,,,,,,,,,,,,,,,,,,,,,,,,,,,,,,
,,,,,,,,,,,,,,,,,5c054e8a553fb800011917d7,22,2022-02-12_14h05.18.811,lexical_decision_task_DD_L6,2021.2.3,Win32,164.0419948,,,,,,,,,,,3.1661,1,,,,,,,,,,,,,,,m,1,3.1661,,,,,,,,-0.315972222,0.204861111,0,0,0,,0,129,129,83,1,WHISKY,HB,m,m,./images/WHISKYHB.png,,,,,,,,,,,,,,,,,,,,,,,,,,,,,,,,,,
,,,,,,,,,,,,,,,,,5c054e8a553fb800011917d7,22,2022-02-12_14h05.18.811,lexical_decision_task_DD_L6,2021.2.3,Win32,164.0419948,,,,,,,,,,,0.6235,1,,,,,,,,,,,,,,,z,1,0.6235,,,,,,,,-0.315972222,0.204861111,0,0,0,,0,130,130,137,1,JOOST,LB,z,z,./images/JOOSTLB.png,,,,,,,,,,,,,,,,,,,,,,,,,,,,,,,,,,
,,,,,,,,,,,,,,,,,5c054e8a553fb800011917d7,22,2022-02-12_14h05.18.811,lexical_decision_task_DD_L6,2021.2.3,Win32,164.0419948,,,,,,,,,,,0.6234,1,,,,,,,,,,,,,,,m,1,0.6234,,,,,,,,-0.315972222,0.204861111,0,0,0,,0,131,131,1,1,TOWEL,C,m,m,./images/TOWEL.png,,,,,,,,,,,,,,,,,,,,,,,,,,,,,,,,,,
,,,,,,,,,,,,,,,,,5c054e8a553fb800011917d7,22,2022-02-12_14h05.18.811,lexical_decision_task_DD_L6,2021.2.3,Win32,164.0419948,,,,,,,,,,,0.5288,1,,,,,,,,,,,,,,,m,1,0.5288,,,,,,,,-0.315972222,0.204861111,0,0,0,,0,132,132,4,1,BOXER,C,m,m,./images/BOXER.png,,,,,,,,,,,,,,,,,,,,,,,,,,,,,,,,,,
,,,,,,,,,,,,,,,,,5c054e8a553fb800011917d7,22,2022-02-12_14h05.18.811,lexical_decision_task_DD_L6,2021.2.3,Win32,164.0419948,,,,,,,,,,,1.3201,1,,,,,,,,,,,,,,,m,1,1.3201,,,,,,,,-0.315972222,0.204861111,0,0,0,,0,133,133,53,1,POSTER,HB,m,m,./images/POSTERHB.png,,,,,,,,,,,,,,,,,,,,,,,,,,,,,,,,,,
,,,,,,,,,,,,,,,,,5c054e8a553fb800011917d7,22,2022-02-12_14h05.18.811,lexical_decision_task_DD_L6,2021.2.3,Win32,164.0419948,,,,,,,,,,,0.9038,1,,,,,,,,,,,,,,,z,1,0.9038,,,,,,,,-0.315972222,0.204861111,0,0,0,,0,134,134,109,1,BURGE,HB,z,z,./images/BURGEHB.png,,,,,,,,,,,,,,,,,,,,,,,,,,,,,,,,,,
,,,,,,,,,,,,,,,,,5c054e8a553fb800011917d7,22,2022-02-12_14h05.18.811,lexical_decision_task_DD_L6,2021.2.3,Win32,164.0419948,,,,,,,,,,,0.6216,1,,,,,,,,,,,,,,,z,1,0.6216,,,,,,,,-0.315972222,0.204861111,0,0,0,,0,135,135,143,1,MONGS,LB,z,z,./images/MONGSLB.png,,,,,,,,,,,,,,,,,,,,,,,,,,,,,,,,,,
,,,,,,,,,,,,,,,,,5c054e8a553fb800011917d7,22,2022-02-12_14h05.18.811,lexical_decision_task_DD_L6,2021.2.3,Win32,164.0419948,,,,,,,,,,,0.5637,1,,,,,,,,,,,,,,,z,1,0.5637,,,,,,,,-0.315972222,0.204861111,0,0,0,,0,136,136,167,1,ZONET,LB,z,z,./images/ZONETLB.png,,,,,,,,,,,,,,,,,,,,,,,,,,,,,,,,,,
,,,,,,,,,,,,,,,,,5c054e8a553fb800011917d7,22,2022-02-12_14h05.18.811,lexical_decision_task_DD_L6,2021.2.3,Win32,164.0419948,,,,,,,,,,,1.2073,1,,,,,,,,,,,,,,,z,1,1.2073,,,,,,,,-0.315972222,0.204861111,0,0,0,,0,137,137,151,1,TINKY,HB,z,z,./images/TINKYHB.png,,,,,,,,,,,,,,,,,,,,,,,,,,,,,,,,,,
,,,,,,,,,,,,,,,,,5c054e8a553fb800011917d7,22,2022-02-12_14h05.18.811,lexical_decision_task_DD_L6,2021.2.3,Win32,164.0419948,,,,,,,,,,,0.8661,1,,,,,,,,,,,,,,,z,1,0.8661,,,,,,,,-0.315972222,0.204861111,0,0,0,,0,138,138,128,1,GRIFT,LB,z,z,./images/GRIFTLB.png,,,,,,,,,,,,,,,,,,,,,,,,,,,,,,,,,,
,,,,,,,,,,,,,,,,,5c054e8a553fb800011917d7,22,2022-02-12_14h05.18.811,lexical_decision_task_DD_L6,2021.2.3,Win32,164.0419948,,,,,,,,,,,0.5944,1,,,,,,,,,,,,,,,m,1,0.5944,,,,,,,,-0.315972222,0.204861111,0,0,0,,0,139,139,10,1,GARDEN,C,m,m,./images/GARDEN.png,,,,,,,,,,,,,,,,,,,,,,,,,,,,,,,,,,
,,,,,,,,,,,,,,,,,5c054e8a553fb800011917d7,22,2022-02-12_14h05.18.811,lexical_decision_task_DD_L6,2021.2.3,Win32,164.0419948,,,,,,,,,,,0.6205,1,,,,,,,,,,,,,,,z,1,0.6205,,,,,,,,-0.315972222,0.204861111,0,0,0,,0,140,140,117,1,STEEG,C,z,z,./images/STEEG.png,,,,,,,,,,,,,,,,,,,,,,,,,,,,,,,,,,
,,,,,,,,,,,,,,,,,5c054e8a553fb800011917d7,22,2022-02-12_14h05.18.811,lexical_decision_task_DD_L6,2021.2.3,Win32,164.0419948,,,,,,,,,,,2.004,1,,,,,,,,,,,,,,,z,1,2.004,,,,,,,,-0.315972222,0.204861111,0,0,0,,0,141,141,166,1,SHORY,HB,z,z,./images/SHORYHB.png,,,,,,,,,,,,,,,,,,,,,,,,,,,,,,,,,,
,,,,,,,,,,,,,,,,,5c054e8a553fb800011917d7,22,2022-02-12_14h05.18.811,lexical_decision_task_DD_L6,2021.2.3,Win32,164.0419948,,,,,,,,,,,0.5007,1,,,,,,,,,,,,,,,z,1,0.5007,,,,,,,,-0.315972222,0.204861111,0,0,0,,0,142,142,162,1,LEICH,C,z,z,./images/LEICH.png,,,,,,,,,,,,,,,,,,,,,,,,,,,,,,,,,,
,,,,,,,,,,,,,,,,,5c054e8a553fb800011917d7,22,2022-02-12_14h05.18.811,lexical_decision_task_DD_L6,2021.2.3,Win32,164.0419948,,,,,,,,,,,0.5336,1,,,,,,,,,,,,,,,m,1,0.5336,,,,,,,,-0.315972222,0.204861111,0,0,0,,0,143,143,40,1,SNAKE,C,m,m,./images/SNAKE.png,,,,,,,,,,,,,,,,,,,,,,,,,,,,,,,,,,
,,,,,,,,,,,,,,,,,5c054e8a553fb800011917d7,22,2022-02-12_14h05.18.811,lexical_decision_task_DD_L6,2021.2.3,Win32,164.0419948,,,,,,,,,,,1.2792,1,,,,,,,,,,,,,,,m,1,1.2792,,,,,,,,-0.315972222,0.204861111,0,0,0,,0,144,144,38,1,ENGINE,HB,m,m,./images/ENGINEHB.png,,,,,,,,,,,,,,,,,,,,,,,,,,,,,,,,,,
,,,,,,,,,,,,,,,,,5c054e8a553fb800011917d7,22,2022-02-12_14h05.18.811,lexical_decision_task_DD_L6,2021.2.3,Win32,164.0419948,,,,,,,,,,,0.5772,1,,,,,,,,,,,,,,,z,1,0.5772,,,,,,,,-0.315972222,0.204861111,0,0,0,,0,145,145,141,1,PLEET,C,z,z,./images/PLEET.png,,,,,,,,,,,,,,,,,,,,,,,,,,,,,,,,,,
,,,,,,,,,,,,,,,,,5c054e8a553fb800011917d7,22,2022-02-12_14h05.18.811,lexical_decision_task_DD_L6,2021.2.3,Win32,164.0419948,,,,,,,,,,,0.9589,1,,,,,,,,,,,,,,,m,1,0.9589,,,,,,,,-0.315972222,0.204861111,0,0,0,,0,146,146,60,1,CURRY,LB,m,m,./images/CURRYLB.png,,,,,,,,,,,,,,,,,,,,,,,,,,,,,,,,,,
,,,,,,,,,,,,,,,,,5c054e8a553fb800011917d7,22,2022-02-12_14h05.18.811,lexical_decision_task_DD_L6,2021.2.3,Win32,164.0419948,,,,,,,,,,,0.9755,1,,,,,,,,,,,,,,,z,1,0.9755,,,,,,,,-0.315972222,0.204861111,0,0,0,,0,147,147,145,1,LAMEL,HB,z,z,./images/LAMELHB.png,,,,,,,,,,,,,,,,,,,,,,,,,,,,,,,,,,
,,,,,,,,,,,,,,,,,5c054e8a553fb800011917d7,22,2022-02-12_14h05.18.811,lexical_decision_task_DD_L6,2021.2.3,Win32,164.0419948,,,,,,,,,,,0.5328,1,,,,,,,,,,,,,,,m,1,0.5328,,,,,,,,-0.315972222,0.204861111,0,0,0,,0,148,148,48,1,SHIELD,LB,m,m,./images/SHIELDLB.png,,,,,,,,,,,,,,,,,,,,,,,,,,,,,,,,,,
,,,,,,,,,,,,,,,,,5c054e8a553fb800011917d7,22,2022-02-12_14h05.18.811,lexical_decision_task_DD_L6,2021.2.3,Win32,164.0419948,,,,,,,,,,,0.841,1,,,,,,,,,,,,,,,m,1,0.841,,,,,,,,-0.315972222,0.204861111,0,0,0,,0,149,149,66,1,STATUE,LB,m,m,./images/STATUELB.png,,,,,,,,,,,,,,,,,,,,,,,,,,,,,,,,,,
,,,,,,,,,,,,,,,,,5c054e8a553fb800011917d7,22,2022-02-12_14h05.18.811,lexical_decision_task_DD_L6,2021.2.3,Win32,164.0419948,,,,,,,,,,,1.013,1,,,,,,,,,,,,,,,m,1,1.013,,,,,,,,-0.315972222,0.204861111,0,0,0,,0,150,150,76,1,MIDGET,C,m,m,./images/MIDGET.png,,,,,,,,,,,,,,,,,,,,,,,,,,,,,,,,,,
,,,,,,,,,,,,,,,,,5c054e8a553fb800011917d7,22,2022-02-12_14h05.18.811,lexical_decision_task_DD_L6,2021.2.3,Win32,164.0419948,,,,,,,,,,,0.7391,1,,,,,,,,,,,,,,,z,1,0.7391,,,,,,,,-0.315972222,0.204861111,0,0,0,,0,151,151,155,1,CANGY,LB,z,z,./images/CANGYLB.png,,,,,,,,,,,,,,,,,,,,,,,,,,,,,,,,,,
,,,,,,,,,,,,,,,,,5c054e8a553fb800011917d7,22,2022-02-12_14h05.18.811,lexical_decision_task_DD_L6,2021.2.3,Win32,164.0419948,,,,,,,,,,,0.6363,1,,,,,,,,,,,,,,,m,1,0.6363,,,,,,,,-0.315972222,0.204861111,0,0,0,,0,152,152,6,1,STAIN,LB,m,m,./images/STAINLB.png,,,,,,,,,,,,,,,,,,,,,,,,,,,,,,,,,,
,,,,,,,,,,,,,,,,,5c054e8a553fb800011917d7,22,2022-02-12_14h05.18.811,lexical_decision_task_DD_L6,2021.2.3,Win32,164.0419948,,,,,,,,,,,0.4964,1,,,,,,,,,,,,,,,m,1,0.4964,,,,,,,,-0.315972222,0.204861111,0,0,0,,0,153,153,42,1,CHAIN,LB,m,m,./images/CHAINLB.png,,,,,,,,,,,,,,,,,,,,,,,,,,,,,,,,,,
,,,,,,,,,,,,,,,,,5c054e8a553fb800011917d7,22,2022-02-12_14h05.18.811,lexical_decision_task_DD_L6,2021.2.3,Win32,164.0419948,,,,,,,,,,,1.4801,1,,,,,,,,,,,,,,,m,1,1.4801,,,,,,,,-0.315972222,0.204861111,0,0,0,,0,154,154,9,1,DIVER,LB,m,m,./images/DIVERLB.png,,,,,,,,,,,,,,,,,,,,,,,,,,,,,,,,,,
,,,,,,,,,,,,,,,,,5c054e8a553fb800011917d7,22,2022-02-12_14h05.18.811,lexical_decision_task_DD_L6,2021.2.3,Win32,164.0419948,,,,,,,,,,,1.5678,1,,,,,,,,,,,,,,,m,1,1.5678,,,,,,,,-0.315972222,0.204861111,0,0,0,,0,155,155,44,1,BASKET,HB,m,m,./images/BASKETHB.png,,,,,,,,,,,,,,,,,,,,,,,,,,,,,,,,,,
,,,,,,,,,,,,,,,,,5c054e8a553fb800011917d7,22,2022-02-12_14h05.18.811,lexical_decision_task_DD_L6,2021.2.3,Win32,164.0419948,,,,,,,,,,,0.8484,1,,,,,,,,,,,,,,,m,1,0.8484,,,,,,,,-0.315972222,0.204861111,0,0,0,,0,156,156,77,1,WHEEL,HB,m,m,./images/WHEELHB.png,,,,,,,,,,,,,,,,,,,,,,,,,,,,,,,,,,
,,,,,,,,,,,,,,,,,5c054e8a553fb800011917d7,22,2022-02-12_14h05.18.811,lexical_decision_task_DD_L6,2021.2.3,Win32,164.0419948,,,,,,,,,,,0.5253,1,,,,,,,,,,,,,,,m,1,0.5253,,,,,,,,-0.315972222,0.204861111,0,0,0,,0,157,157,79,1,RULER,C,m,m,./images/RULER.png,,,,,,,,,,,,,,,,,,,,,,,,,,,,,,,,,,
,,,,,,,,,,,,,,,,,5c054e8a553fb800011917d7,22,2022-02-12_14h05.18.811,lexical_decision_task_DD_L6,2021.2.3,Win32,164.0419948,,,,,,,,,,,0.8049,1,,,,,,,,,,,,,,,z,1,0.8049,,,,,,,,-0.315972222,0.204861111,0,0,0,,0,158,158,153,1,CLUPS,C,z,z,./images/CLUPS.png,,,,,,,,,,,,,,,,,,,,,,,,,,,,,,,,,,
,,,,,,,,,,,,,,,,,5c054e8a553fb800011917d7,22,2022-02-12_14h05.18.811,lexical_decision_task_DD_L6,2021.2.3,Win32,164.0419948,,,,,,,,,,,0.9548,1,,,,,,,,,,,,,,,m,1,0.9548,,,,,,,,-0.315972222,0.204861111,0,0,0,,0,159,159,71,1,BUBBLE,HB,m,m,./images/BUBBLEHB.png,,,,,,,,,,,,,,,,,,,,,,,,,,,,,,,,,,
,,,,,,,,,,,,,,,,,5c054e8a553fb800011917d7,22,2022-02-12_14h05.18.811,lexical_decision_task_DD_L6,2021.2.3,Win32,164.0419948,,,,,,,,,,,0.6521,1,,,,,,,,,,,,,,,z,1,0.6521,,,,,,,,-0.315972222,0.204861111,0,0,0,,0,160,160,122,1,BLOOT,LB,z,z,./images/BLOOTLB.png,,,,,,,,,,,,,,,,,,,,,,,,,,,,,,,,,,
,,,,,,,,,,,,,,,,,5c054e8a553fb800011917d7,22,2022-02-12_14h05.18.811,lexical_decision_task_DD_L6,2021.2.3,Win32,164.0419948,,,,,,,,,,,0.5798,1,,,,,,,,,,,,,,,m,1,0.5798,,,,,,,,-0.315972222,0.204861111,0,0,0,,0,161,161,73,1,GLOVE,C,m,m,./images/GLOVE.png,,,,,,,,,,,,,,,,,,,,,,,,,,,,,,,,,,
,,,,,,,,,,,,,,,,,5c054e8a553fb800011917d7,22,2022-02-12_14h05.18.811,lexical_decision_task_DD_L6,2021.2.3,Win32,164.0419948,,,,,,,,,,,0.5486,1,,,,,,,,,,,,,,,m,1,0.5486,,,,,,,,-0.315972222,0.204861111,0,0,0,,0,162,162,27,1,BUTTER,LB,m,m,./images/BUTTERLB.png,,,,,,,,,,,,,,,,,,,,,,,,,,,,,,,,,,
,,,,,,,,,,,,,,,,,5c054e8a553fb800011917d7,22,2022-02-12_14h05.18.811,lexical_decision_task_DD_L6,2021.2.3,Win32,164.0419948,,,,,,,,,,,0.6152,1,,,,,,,,,,,,,,,z,1,0.6152,,,,,,,,-0.315972222,0.204861111,0,0,0,,0,163,163,114,1,RIKES,C,z,z,./images/RIKES.png,,,,,,,,,,,,,,,,,,,,,,,,,,,,,,,,,,
,,,,,,,,,,,,,,,,,5c054e8a553fb800011917d7,22,2022-02-12_14h05.18.811,lexical_decision_task_DD_L6,2021.2.3,Win32,164.0419948,,,,,,,,,,,1.509,1,,,,,,,,,,,,,,,z,1,1.509,,,,,,,,-0.315972222,0.204861111,0,0,0,,0,164,164,103,1,FLORT,HB,z,z,./images/FLORTHB.png,,,,,,,,,,,,,,,,,,,,,,,,,,,,,,,,,,
,,,,,,,,,,,,,,,,,5c054e8a553fb800011917d7,22,2022-02-12_14h05.18.811,lexical_decision_task_DD_L6,2021.2.3,Win32,164.0419948,,,,,,,,,,,1.5023,1,,,,,,,,,,,,,,,m,1,1.5023,,,,,,,,-0.315972222,0.204861111,0,0,0,,0,165,165,62,1,MAMMAL,HB,m,m,./images/MAMMALHB.png,,,,,,,,,,,,,,,,,,,,,,,,,,,,,,,,,,
,,,,,,,,,,,,,,,,,5c054e8a553fb800011917d7,22,2022-02-12_14h05.18.811,lexical_decision_task_DD_L6,2021.2.3,Win32,164.0419948,,,,,,,,,,,0.5096,1,,,,,,,,,,,,,,,z,1,0.5096,,,,,,,,-0.315972222,0.204861111,0,0,0,,0,166,166,158,1,EGECT,LB,z,z,./images/EGECTLB.png,,,,,,,,,,,,,,,,,,,,,,,,,,,,,,,,,,
,,,,,,,,,,,,,,,,,5c054e8a553fb800011917d7,22,2022-02-12_14h05.18.811,lexical_decision_task_DD_L6,2021.2.3,Win32,164.0419948,,,,,,,,,,,0.7813,1,,,,,,,,,,,,,,,m,1,0.7813,,,,,,,,-0.315972222,0.204861111,0,0,0,,0,167,167,30,1,SLOPE,LB,m,m,./images/SLOPELB.png,,,,,,,,,,,,,,,,,,,,,,,,,,,,,,,,,,
,,,,,,,,,,,,,,,,,5c054e8a553fb800011917d7,22,2022-02-12_14h05.18.811,lexical_decision_task_DD_L6,2021.2.3,Win32,164.0419948,,,,,,,,,,,,,,,,,,,,,,,,,,,,,,,,,,,,,,,,,,,,,,,,,How likely will it be that you will recognize the words presented very blurred on a scale of 0 (not likely) to 100 (most likely)?,,,,,0.004166667,-0.411805556,1,0,0,jol_adv,4,6.0057,0,0,0,2,1,,,,,,,,,,,,,,,,,,,,
,,,,,,,,,,,,,,,,,5c054e8a553fb800011917d7,22,2022-02-12_14h05.18.811,lexical_decision_task_DD_L6,2021.2.3,Win32,164.0419948,,,,,,,,,,,,,,,,,,,,,,,,,,,,,,,,,,,,,,,,,,,,,,,,,How likely will it be that you will recognize the words presented slighly blurred on a scale of 0 (not likely) to 100 (most likely)?,,,,,,,,,,,5,4.0143,0,1,1,1,1,,,,,,,,,,,,,,,,,,,,
,,,,,,,,,,,,,,,,,5c054e8a553fb800011917d7,22,2022-02-12_14h05.18.811,lexical_decision_task_DD_L6,2021.2.3,Win32,164.0419948,,,,,,,,,,,,,,,,,,,,,,,,,,,,,,,,,,,,,,,,,,,,,,,,,How likely will it be that you will recognize the words presented clearly on a scale of 0 (not likely) to 100 (most likely)?,,,,,,,,,,,6,6.7055,0,2,2,0,1,,,,,,,,,,,,,,,,,,,,
,,0.081944444,-0.3875,1,0,0,,,,,,1,test,"In the next phase you will be presented with the words from the the first phase. Your job is to decide whether you remember seeing the word or not. If you remember seeing the word press ""old"" or type ""m"". If you do not remember seeing the word press ""new"" or type ""z"". Please press the space bar or click on continue to begin. ",,,5c054e8a553fb800011917d7,22,2022-02-12_14h05.18.811,lexical_decision_task_DD_L6,2021.2.3,Win32,164.0419948,,,,,,,,,,,,,,,,,,,,,instr_done_button,,,,,,,,,,,,,,,,,,,,,,,,,,,,,,,,,,,,,,,,,,,,,,0,0,0,0,1,,,,,,,,,,,,,,,
space,0.7834,0.067361111,-0.272222222,0,0,0,,,,,,1,test,"In the next phase you will be presented with the words from the the first phase. Your job is to decide whether you remember seeing the word or not. If you remember seeing the word press ""old"" or type ""m"". If you do not remember seeing the word press ""new"" or type ""z"". Please press the space bar or click on continue to begin. ",,,5c054e8a553fb800011917d7,22,2022-02-12_14h05.18.811,lexical_decision_task_DD_L6,2021.2.3,Win32,164.0419948,,,,,,,,,,,,,,,,,,,,,,,,,,,,,,,,,,,,,,,,,,,,,,,,,,,,,,,,,,,,,,,,,,,1,0,1,0,1,,,,,,,,,,,,,,,
space,2.7904,0.057638889,-0.338888889,0,0,0,,,,,,1,test,"In the next phase you will be presented with the words from the the first phase. Your job is to decide whether you remember seeing the word or not. If you remember seeing the word press ""old"" or type ""m"". If you do not remember seeing the word press ""new"" or type ""z"". Please press the space bar or click on continue to begin. ",,,5c054e8a553fb800011917d7,22,2022-02-12_14h05.18.811,lexical_decision_task_DD_L6,2021.2.3,Win32,164.0419948,,,,,,,,,,,,,,,,,,,,,,,,,,,,,,,,,,,,,,,,,,,,,,,,,,,,,,,,,,,,,,,,,,,2,0,2,0,1,,,,,,,,,,,,,,,
,,0.035416667,-0.415277778,1,0,0,,,,,,1,test,"In the next phase you will be presented with the words from the the first phase. Your job is to decide whether you remember seeing the word or not. If you remember seeing the word press ""old"" or type ""m"". If you do not remember seeing the word press ""new"" or type ""z"". Please press the space bar or click on continue to begin. ",,,5c054e8a553fb800011917d7,22,2022-02-12_14h05.18.811,lexical_decision_task_DD_L6,2021.2.3,Win32,164.0419948,,,,,,,,,,,,,,,,,,,,,instr_done_button,,,,,,,,,,,,,,,,,,,,,,,,,,,,,,,,,,,,,,,,,,,,,,3,0,3,0,1,,,,,,,,,,,,,,,
,,0.036111111,-0.395833333,1,0,0,,,,,,1,test,"In the next phase you will be presented with the words from the the first phase. Your job is to decide whether you remember seeing the word or not. If you remember seeing the word press ""old"" or type ""m"". If you do not remember seeing the word press ""new"" or type ""z"". Please press the space bar or click on continue to begin. ",,,5c054e8a553fb800011917d7,22,2022-02-12_14h05.18.811,lexical_decision_task_DD_L6,2021.2.3,Win32,164.0419948,,,,,,,,,,,,,,,,,,,,,instr_done_button,,,,,,,,,,,,,,,,,,,,,,,,,,,,,,,,,,,,,,,,,,,,,,4,0,4,0,1,,,,,,,,,,,,,,,
,,,,,,,,,,,,,,,,,5c054e8a553fb800011917d7,22,2022-02-12_14h05.18.811,lexical_decision_task_DD_L6,2021.2.3,Win32,164.0419948,,,,,,,,,,,2.2329,1,,,,,,,,,,,,,,,,,,,,,,,,,0.033333333,-0.395138889,0,0,0,,,,,,,WRIST,C,z,y,./images/WRIST.png,,,,,,,,,,,,,,,,,,,,z,1,2.2329,,,,,,,,0,0,0,109,1
,,,,,,,,,,,,,,,,,5c054e8a553fb800011917d7,22,2022-02-12_14h05.18.811,lexical_decision_task_DD_L6,2021.2.3,Win32,164.0419948,,,,,,,,,,,0.8584,1,,,,,,,,,,,,,,,,,,,,,,,,,0.033333333,-0.395138889,0,0,0,,,,,,,PARCEL,LB,m,y,./images/PARCELLB.png,,,,,,,,,,,,,,,,,,,,m,1,0.8584,,,,,,,,0,1,1,18,1
,,,,,,,,,,,,,,,,,5c054e8a553fb800011917d7,22,2022-02-12_14h05.18.811,lexical_decision_task_DD_L6,2021.2.3,Win32,164.0419948,,,,,,,,,,,0.6976,1,,,,,,,,,,,,,,,,,,,,,,,,,0.033333333,-0.395138889,0,0,0,,,,,,,WALNUT,LB,m,y,./images/WALNUTLB.png,,,,,,,,,,,,,,,,,,,,m,1,0.6976,,,,,,,,0,2,2,0,1
,,,,,,,,,,,,,,,,,5c054e8a553fb800011917d7,22,2022-02-12_14h05.18.811,lexical_decision_task_DD_L6,2021.2.3,Win32,164.0419948,,,,,,,,,,,1.9132,0,,,,,,,,,,,,,,,,,,,,,,,,,0.033333333,-0.395138889,0,0,0,,,,,,,KIDNEY,LB,z,y,./images/KIDNEYLB.png,,,,,,,,,,,,,,,,,,,,m,0,1.9132,,,,,,,,0,3,3,105,1
,,,,,,,,,,,,,,,,,5c054e8a553fb800011917d7,22,2022-02-12_14h05.18.811,lexical_decision_task_DD_L6,2021.2.3,Win32,164.0419948,,,,,,,,,,,0.8907,1,,,,,,,,,,,,,,,,,,,,,,,,,0.033333333,-0.395138889,0,0,0,,,,,,,PIMPLE,HB,z,y,./images/PIMPLEHB.png,,,,,,,,,,,,,,,,,,,,z,1,0.8907,,,,,,,,0,4,4,155,1
,,,,,,,,,,,,,,,,,5c054e8a553fb800011917d7,22,2022-02-12_14h05.18.811,lexical_decision_task_DD_L6,2021.2.3,Win32,164.0419948,,,,,,,,,,,2.0436,0,,,,,,,,,,,,,,,,,,,,,,,,,0.033333333,-0.395138889,0,0,0,,,,,,,BUBBLE,HB,m,y,./images/BUBBLEHB.png,,,,,,,,,,,,,,,,,,,,z,0,2.0436,,,,,,,,0,5,5,71,1
,,,,,,,,,,,,,,,,,5c054e8a553fb800011917d7,22,2022-02-12_14h05.18.811,lexical_decision_task_DD_L6,2021.2.3,Win32,164.0419948,,,,,,,,,,,0.6588,1,,,,,,,,,,,,,,,,,,,,,,,,,0.033333333,-0.395138889,0,0,0,,,,,,,BASKET,HB,m,y,./images/BASKETHB.png,,,,,,,,,,,,,,,,,,,,m,1,0.6588,,,,,,,,0,6,6,44,1
,,,,,,,,,,,,,,,,,5c054e8a553fb800011917d7,22,2022-02-12_14h05.18.811,lexical_decision_task_DD_L6,2021.2.3,Win32,164.0419948,,,,,,,,,,,0.7667,1,,,,,,,,,,,,,,,,,,,,,,,,,0.033333333,-0.395138889,0,0,0,,,,,,,PLANET,HB,m,y,./images/PLANETHB.png,,,,,,,,,,,,,,,,,,,,m,1,0.7667,,,,,,,,0,7,7,80,1
,,,,,,,,,,,,,,,,,5c054e8a553fb800011917d7,22,2022-02-12_14h05.18.811,lexical_decision_task_DD_L6,2021.2.3,Win32,164.0419948,,,,,,,,,,,0.6116,1,,,,,,,,,,,,,,,,,,,,,,,,,0.033333333,-0.395138889,0,0,0,,,,,,,STATUE,LB,m,y,./images/STATUELB.png,,,,,,,,,,,,,,,,,,,,m,1,0.6116,,,,,,,,0,8,8,66,1
,,,,,,,,,,,,,,,,,5c054e8a553fb800011917d7,22,2022-02-12_14h05.18.811,lexical_decision_task_DD_L6,2021.2.3,Win32,164.0419948,,,,,,,,,,,0.8836,1,,,,,,,,,,,,,,,,,,,,,,,,,0.033333333,-0.395138889,0,0,0,,,,,,,LITTER,LB,z,y,./images/LITTERLB.png,,,,,,,,,,,,,,,,,,,,z,1,0.8836,,,,,,,,0,9,9,162,1
,,,,,,,,,,,,,,,,,5c054e8a553fb800011917d7,22,2022-02-12_14h05.18.811,lexical_decision_task_DD_L6,2021.2.3,Win32,164.0419948,,,,,,,,,,,0.7425,1,,,,,,,,,,,,,,,,,,,,,,,,,0.033333333,-0.395138889,0,0,0,,,,,,,DIVER,LB,m,y,./images/DIVERLB.png,,,,,,,,,,,,,,,,,,,,m,1,0.7425,,,,,,,,0,10,10,9,1
,,,,,,,,,,,,,,,,,5c054e8a553fb800011917d7,22,2022-02-12_14h05.18.811,lexical_decision_task_DD_L6,2021.2.3,Win32,164.0419948,,,,,,,,,,,0.8158,1,,,,,,,,,,,,,,,,,,,,,,,,,0.033333333,-0.395138889,0,0,0,,,,,,,BURIAL,HB,z,y,./images/BURIALHB.png,,,,,,,,,,,,,,,,,,,,z,1,0.8158,,,,,,,,0,11,11,143,1
,,,,,,,,,,,,,,,,,5c054e8a553fb800011917d7,22,2022-02-12_14h05.18.811,lexical_decision_task_DD_L6,2021.2.3,Win32,164.0419948,,,,,,,,,,,1.2155,1,,,,,,,,,,,,,,,,,,,,,,,,,0.033333333,-0.395138889,0,0,0,,,,,,,SPORT,LB,z,y,./images/SPORTLB.png,,,,,,,,,,,,,,,,,,,,z,1,1.2155,,,,,,,,0,12,12,132,1
,,,,,,,,,,,,,,,,,5c054e8a553fb800011917d7,22,2022-02-12_14h05.18.811,lexical_decision_task_DD_L6,2021.2.3,Win32,164.0419948,,,,,,,,,,,1.6471,1,,,,,,,,,,,,,,,,,,,,,,,,,0.033333333,-0.395138889,0,0,0,,,,,,,GREASE,LB,z,y,./images/GREASELB.png,,,,,,,,,,,,,,,,,,,,z,1,1.6471,,,,,,,,0,13,13,99,1
,,,,,,,,,,,,,,,,,5c054e8a553fb800011917d7,22,2022-02-12_14h05.18.811,lexical_decision_task_DD_L6,2021.2.3,Win32,164.0419948,,,,,,,,,,,0.7232,1,,,,,,,,,,,,,,,,,,,,,,,,,0.033333333,-0.395138889,0,0,0,,,,,,,BOXER,C,m,y,./images/BOXER.png,,,,,,,,,,,,,,,,,,,,m,1,0.7232,,,,,,,,0,14,14,4,1
,,,,,,,,,,,,,,,,,5c054e8a553fb800011917d7,22,2022-02-12_14h05.18.811,lexical_decision_task_DD_L6,2021.2.3,Win32,164.0419948,,,,,,,,,,,1.1735,1,,,,,,,,,,,,,,,,,,,,,,,,,0.033333333,-0.395138889,0,0,0,,,,,,,BRIDE,C,m,y,./images/BRIDE.png,,,,,,,,,,,,,,,,,,,,m,1,1.1735,,,,,,,,0,15,15,64,1
,,,,,,,,,,,,,,,,,5c054e8a553fb800011917d7,22,2022-02-12_14h05.18.811,lexical_decision_task_DD_L6,2021.2.3,Win32,164.0419948,,,,,,,,,,,0.8024,0,,,,,,,,,,,,,,,,,,,,,,,,,0.033333333,-0.395138889,0,0,0,,,,,,,BARREL,HB,z,y,./images/BARRELHB.png,,,,,,,,,,,,,,,,,,,,m,0,0.8024,,,,,,,,0,16,16,116,1
,,,,,,,,,,,,,,,,,5c054e8a553fb800011917d7,22,2022-02-12_14h05.18.811,lexical_decision_task_DD_L6,2021.2.3,Win32,164.0419948,,,,,,,,,,,0.5767,1,,,,,,,,,,,,,,,,,,,,,,,,,0.033333333,-0.395138889,0,0,0,,,,,,,BANANA,C,m,y,./images/BANANA.png,,,,,,,,,,,,,,,,,,,,m,1,0.5767,,,,,,,,0,17,17,70,1
,,,,,,,,,,,,,,,,,5c054e8a553fb800011917d7,22,2022-02-12_14h05.18.811,lexical_decision_task_DD_L6,2021.2.3,Win32,164.0419948,,,,,,,,,,,1.5247,1,,,,,,,,,,,,,,,,,,,,,,,,,0.033333333,-0.395138889,0,0,0,,,,,,,COUCH,HB,z,y,./images/COUCHHB.png,,,,,,,,,,,,,,,,,,,,z,1,1.5247,,,,,,,,0,18,18,161,1
,,,,,,,,,,,,,,,,,5c054e8a553fb800011917d7,22,2022-02-12_14h05.18.811,lexical_decision_task_DD_L6,2021.2.3,Win32,164.0419948,,,,,,,,,,,1.0011,1,,,,,,,,,,,,,,,,,,,,,,,,,0.033333333,-0.395138889,0,0,0,,,,,,,BLOKE,LB,m,y,./images/BLOKELB.png,,,,,,,,,,,,,,,,,,,,m,1,1.0011,,,,,,,,0,19,19,12,1
,,,,,,,,,,,,,,,,,5c054e8a553fb800011917d7,22,2022-02-12_14h05.18.811,lexical_decision_task_DD_L6,2021.2.3,Win32,164.0419948,,,,,,,,,,,0.8586,1,,,,,,,,,,,,,,,,,,,,,,,,,0.033333333,-0.395138889,0,0,0,,,,,,,ATTIC,LB,z,y,./images/ATTICLB.png,,,,,,,,,,,,,,,,,,,,z,1,0.8586,,,,,,,,0,20,20,111,1
,,,,,,,,,,,,,,,,,5c054e8a553fb800011917d7,22,2022-02-12_14h05.18.811,lexical_decision_task_DD_L6,2021.2.3,Win32,164.0419948,,,,,,,,,,,1.5161,1,,,,,,,,,,,,,,,,,,,,,,,,,0.033333333,-0.395138889,0,0,0,,,,,,,BEARD,HB,z,y,./images/BEARDHB.png,,,,,,,,,,,,,,,,,,,,z,1,1.5161,,,,,,,,0,21,21,86,1
,,,,,,,,,,,,,,,,,5c054e8a553fb800011917d7,22,2022-02-12_14h05.18.811,lexical_decision_task_DD_L6,2021.2.3,Win32,164.0419948,,,,,,,,,,,1.0622,1,,,,,,,,,,,,,,,,,,,,,,,,,0.033333333,-0.395138889,0,0,0,,,,,,,CEMENT,HB,z,y,./images/CEMENTHB.png,,,,,,,,,,,,,,,,,,,,z,1,1.0622,,,,,,,,0,22,22,158,1
,,,,,,,,,,,,,,,,,5c054e8a553fb800011917d7,22,2022-02-12_14h05.18.811,lexical_decision_task_DD_L6,2021.2.3,Win32,164.0419948,,,,,,,,,,,0.7668,1,,,,,,,,,,,,,,,,,,,,,,,,,0.033333333,-0.395138889,0,0,0,,,,,,,PARADE,HB,m,y,./images/PARADEHB.png,,,,,,,,,,,,,,,,,,,,m,1,0.7668,,,,,,,,0,23,23,17,1
,,,,,,,,,,,,,,,,,5c054e8a553fb800011917d7,22,2022-02-12_14h05.18.811,lexical_decision_task_DD_L6,2021.2.3,Win32,164.0419948,,,,,,,,,,,0.6761,0,,,,,,,,,,,,,,,,,,,,,,,,,0.033333333,-0.395138889,0,0,0,,,,,,,CHAIN,LB,m,y,./images/CHAINLB.png,,,,,,,,,,,,,,,,,,,,z,0,0.6761,,,,,,,,0,24,24,42,1
,,,,,,,,,,,,,,,,,5c054e8a553fb800011917d7,22,2022-02-12_14h05.18.811,lexical_decision_task_DD_L6,2021.2.3,Win32,164.0419948,,,,,,,,,,,0.9903,1,,,,,,,,,,,,,,,,,,,,,,,,,0.033333333,-0.395138889,0,0,0,,,,,,,SCREW,LB,z,y,./images/SCREWLB.png,,,,,,,,,,,,,,,,,,,,z,1,0.9903,,,,,,,,0,25,25,108,1
,,,,,,,,,,,,,,,,,5c054e8a553fb800011917d7,22,2022-02-12_14h05.18.811,lexical_decision_task_DD_L6,2021.2.3,Win32,164.0419948,,,,,,,,,,,0.6316,1,,,,,,,,,,,,,,,,,,,,,,,,,0.033333333,-0.395138889,0,0,0,,,,,,,BROOM,LB,m,y,./images/BROOMLB.png,,,,,,,,,,,,,,,,,,,,m,1,0.6316,,,,,,,,0,26,26,78,1
,,,,,,,,,,,,,,,,,5c054e8a553fb800011917d7,22,2022-02-12_14h05.18.811,lexical_decision_task_DD_L6,2021.2.3,Win32,164.0419948,,,,,,,,,,,0.6301,1,,,,,,,,,,,,,,,,,,,,,,,,,0.033333333,-0.395138889,0,0,0,,,,,,,PILOT,HB,m,y,./images/PILOTHB.png,,,,,,,,,,,,,,,,,,,,m,1,0.6301,,,,,,,,0,27,27,50,1
,,,,,,,,,,,,,,,,,5c054e8a553fb800011917d7,22,2022-02-12_14h05.18.811,lexical_decision_task_DD_L6,2021.2.3,Win32,164.0419948,,,,,,,,,,,0.6219,1,,,,,,,,,,,,,,,,,,,,,,,,,0.033333333,-0.395138889,0,0,0,,,,,,,DRILL,LB,m,y,./images/DRILLLB.png,,,,,,,,,,,,,,,,,,,,m,1,0.6219,,,,,,,,0,28,28,81,1
,,,,,,,,,,,,,,,,,5c054e8a553fb800011917d7,22,2022-02-12_14h05.18.811,lexical_decision_task_DD_L6,2021.2.3,Win32,164.0419948,,,,,,,,,,,0.7713,1,,,,,,,,,,,,,,,,,,,,,,,,,0.033333333,-0.395138889,0,0,0,,,,,,,MUFFIN,C,z,y,./images/MUFFIN.png,,,,,,,,,,,,,,,,,,,,z,1,0.7713,,,,,,,,0,29,29,139,1
,,,,,,,,,,,,,,,,,5c054e8a553fb800011917d7,22,2022-02-12_14h05.18.811,lexical_decision_task_DD_L6,2021.2.3,Win32,164.0419948,,,,,,,,,,,0.8979,1,,,,,,,,,,,,,,,,,,,,,,,,,0.033333333,-0.395138889,0,0,0,,,,,,,FARMER,HB,z,y,./images/FARMERHB.png,,,,,,,,,,,,,,,,,,,,z,1,0.8979,,,,,,,,0,30,30,149,1
,,,,,,,,,,,,,,,,,5c054e8a553fb800011917d7,22,2022-02-12_14h05.18.811,lexical_decision_task_DD_L6,2021.2.3,Win32,164.0419948,,,,,,,,,,,0.8799,1,,,,,,,,,,,,,,,,,,,,,,,,,0.033333333,-0.395138889,0,0,0,,,,,,,INFANT,C,z,y,./images/INFANT.png,,,,,,,,,,,,,,,,,,,,z,1,0.8799,,,,,,,,0,31,31,160,1
,,,,,,,,,,,,,,,,,5c054e8a553fb800011917d7,22,2022-02-12_14h05.18.811,lexical_decision_task_DD_L6,2021.2.3,Win32,164.0419948,,,,,,,,,,,0.7276,1,,,,,,,,,,,,,,,,,,,,,,,,,0.033333333,-0.395138889,0,0,0,,,,,,,POSTER,HB,m,y,./images/POSTERHB.png,,,,,,,,,,,,,,,,,,,,m,1,0.7276,,,,,,,,0,32,32,53,1
,,,,,,,,,,,,,,,,,5c054e8a553fb800011917d7,22,2022-02-12_14h05.18.811,lexical_decision_task_DD_L6,2021.2.3,Win32,164.0419948,,,,,,,,,,,0.5926,1,,,,,,,,,,,,,,,,,,,,,,,,,0.033333333,-0.395138889,0,0,0,,,,,,,MIDGET,C,m,y,./images/MIDGET.png,,,,,,,,,,,,,,,,,,,,m,1,0.5926,,,,,,,,0,33,33,76,1
,,,,,,,,,,,,,,,,,5c054e8a553fb800011917d7,22,2022-02-12_14h05.18.811,lexical_decision_task_DD_L6,2021.2.3,Win32,164.0419948,,,,,,,,,,,0.869,1,,,,,,,,,,,,,,,,,,,,,,,,,0.033333333,-0.395138889,0,0,0,,,,,,,STAIN,LB,m,y,./images/STAINLB.png,,,,,,,,,,,,,,,,,,,,m,1,0.869,,,,,,,,0,34,34,6,1
,,,,,,,,,,,,,,,,,5c054e8a553fb800011917d7,22,2022-02-12_14h05.18.811,lexical_decision_task_DD_L6,2021.2.3,Win32,164.0419948,,,,,,,,,,,0.6118,1,,,,,,,,,,,,,,,,,,,,,,,,,0.033333333,-0.395138889,0,0,0,,,,,,,ARTIST,C,m,y,./images/ARTIST.png,,,,,,,,,,,,,,,,,,,,m,1,0.6118,,,,,,,,0,35,35,61,1
,,,,,,,,,,,,,,,,,5c054e8a553fb800011917d7,22,2022-02-12_14h05.18.811,lexical_decision_task_DD_L6,2021.2.3,Win32,164.0419948,,,,,,,,,,,0.9578,1,,,,,,,,,,,,,,,,,,,,,,,,,0.033333333,-0.395138889,0,0,0,,,,,,,DRUMS,C,z,y,./images/DRUMS.png,,,,,,,,,,,,,,,,,,,,z,1,0.9578,,,,,,,,0,36,36,133,1
,,,,,,,,,,,,,,,,,5c054e8a553fb800011917d7,22,2022-02-12_14h05.18.811,lexical_decision_task_DD_L6,2021.2.3,Win32,164.0419948,,,,,,,,,,,0.5951,1,,,,,,,,,,,,,,,,,,,,,,,,,0.033333333,-0.395138889,0,0,0,,,,,,,SPINE,HB,m,y,./images/SPINEHB.png,,,,,,,,,,,,,,,,,,,,m,1,0.5951,,,,,,,,0,37,37,65,1
,,,,,,,,,,,,,,,,,5c054e8a553fb800011917d7,22,2022-02-12_14h05.18.811,lexical_decision_task_DD_L6,2021.2.3,Win32,164.0419948,,,,,,,,,,,1.4195,1,,,,,,,,,,,,,,,,,,,,,,,,,0.033333333,-0.395138889,0,0,0,,,,,,,CANYON,C,z,y,./images/CANYON.png,,,,,,,,,,,,,,,,,,,,z,1,1.4195,,,,,,,,0,38,38,118,1
,,,,,,,,,,,,,,,,,5c054e8a553fb800011917d7,22,2022-02-12_14h05.18.811,lexical_decision_task_DD_L6,2021.2.3,Win32,164.0419948,,,,,,,,,,,0.831,1,,,,,,,,,,,,,,,,,,,,,,,,,0.033333333,-0.395138889,0,0,0,,,,,,,BELLY,C,z,y,./images/BELLY.png,,,,,,,,,,,,,,,,,,,,z,1,0.831,,,,,,,,0,39,39,94,1
,,,,,,,,,,,,,,,,,5c054e8a553fb800011917d7,22,2022-02-12_14h05.18.811,lexical_decision_task_DD_L6,2021.2.3,Win32,164.0419948,,,,,,,,,,,0.5266,1,,,,,,,,,,,,,,,,,,,,,,,,,0.033333333,-0.395138889,0,0,0,,,,,,,RAZOR,C,m,y,./images/RAZOR.png,,,,,,,,,,,,,,,,,,,,m,1,0.5266,,,,,,,,0,40,40,34,1
,,,,,,,,,,,,,,,,,5c054e8a553fb800011917d7,22,2022-02-12_14h05.18.811,lexical_decision_task_DD_L6,2021.2.3,Win32,164.0419948,,,,,,,,,,,0.6511,1,,,,,,,,,,,,,,,,,,,,,,,,,0.033333333,-0.395138889,0,0,0,space,,,,,,BERRY,HB,z,y,./images/BERRYHB.png,1.0396,,,,,,,,,,,,,,,,,,,z,1,0.6511,,,,,,,,0,41,41,131,1
,,,,,,,,,,,,,,,,,5c054e8a553fb800011917d7,22,2022-02-12_14h05.18.811,lexical_decision_task_DD_L6,2021.2.3,Win32,164.0419948,,,,,,,,,,,0.716,1,,,,,,,,,,,,,,,,,,,,,,,,,0.033333333,-0.395138889,0,0,0,,,,,,,CANOE,C,m,y,./images/CANOE.png,,,,,,,,,,,,,,,,,,,,m,1,0.716,,,,,,,,0,42,42,58,1
,,,,,,,,,,,,,,,,,5c054e8a553fb800011917d7,22,2022-02-12_14h05.18.811,lexical_decision_task_DD_L6,2021.2.3,Win32,164.0419948,,,,,,,,,,,0.7702,0,,,,,,,,,,,,,,,,,,,,,,,,,0.033333333,-0.395138889,0,0,0,,,,,,,HAMMER,LB,m,y,./images/HAMMERLB.png,,,,,,,,,,,,,,,,,,,,z,0,0.7702,,,,,,,,0,43,43,75,1
,,,,,,,,,,,,,,,,,5c054e8a553fb800011917d7,22,2022-02-12_14h05.18.811,lexical_decision_task_DD_L6,2021.2.3,Win32,164.0419948,,,,,,,,,,,0.7032,0,,,,,,,,,,,,,,,,,,,,,,,,,0.033333333,-0.395138889,0,0,0,,,,,,,LAGOON,HB,m,y,./images/LAGOONHB.png,,,,,,,,,,,,,,,,,,,,z,0,0.7032,,,,,,,,0,44,44,47,1
,,,,,,,,,,,,,,,,,5c054e8a553fb800011917d7,22,2022-02-12_14h05.18.811,lexical_decision_task_DD_L6,2021.2.3,Win32,164.0419948,,,,,,,,,,,0.8255,0,,,,,,,,,,,,,,,,,,,,,,,,,0.033333333,-0.395138889,0,0,0,,,,,,,DONKEY,C,m,y,./images/DONKEY.png,,,,,,,,,,,,,,,,,,,,z,0,0.8255,,,,,,,,0,45,45,19,1
,,,,,,,,,,,,,,,,,5c054e8a553fb800011917d7,22,2022-02-12_14h05.18.811,lexical_decision_task_DD_L6,2021.2.3,Win32,164.0419948,,,,,,,,,,,1.4717,1,,,,,,,,,,,,,,,,,,,,,,,,,0.033333333,-0.395138889,0,0,0,,,,,,,JUMPER,HB,m,y,./images/JUMPERHB.png,,,,,,,,,,,,,,,,,,,,m,1,1.4717,,,,,,,,0,46,46,74,1
,,,,,,,,,,,,,,,,,5c054e8a553fb800011917d7,22,2022-02-12_14h05.18.811,lexical_decision_task_DD_L6,2021.2.3,Win32,164.0419948,,,,,,,,,,,0.782,0,,,,,,,,,,,,,,,,,,,,,,,,,0.033333333,-0.395138889,0,0,0,,,,,,,ARROW,LB,m,y,./images/ARROWLB.png,,,,,,,,,,,,,,,,,,,,z,0,0.782,,,,,,,,0,47,47,69,1
,,,,,,,,,,,,,,,,,5c054e8a553fb800011917d7,22,2022-02-12_14h05.18.811,lexical_decision_task_DD_L6,2021.2.3,Win32,164.0419948,,,,,,,,,,,0.8385,1,,,,,,,,,,,,,,,,,,,,,,,,,0.033333333,-0.395138889,0,0,0,,,,,,,FALCON,C,z,y,./images/FALCON.png,,,,,,,,,,,,,,,,,,,,z,1,0.8385,,,,,,,,0,48,48,112,1
,,,,,,,,,,,,,,,,,5c054e8a553fb800011917d7,22,2022-02-12_14h05.18.811,lexical_decision_task_DD_L6,2021.2.3,Win32,164.0419948,,,,,,,,,,,0.6193,1,,,,,,,,,,,,,,,,,,,,,,,,,0.033333333,-0.395138889,0,0,0,,,,,,,STOOL,C,m,y,./images/STOOL.png,,,,,,,,,,,,,,,,,,,,m,1,0.6193,,,,,,,,0,49,49,43,1
,,,,,,,,,,,,,,,,,5c054e8a553fb800011917d7,22,2022-02-12_14h05.18.811,lexical_decision_task_DD_L6,2021.2.3,Win32,164.0419948,,,,,,,,,,,0.6484,1,,,,,,,,,,,,,,,,,,,,,,,,,0.033333333,-0.395138889,0,0,0,,,,,,,CLOTH,HB,m,y,./images/CLOTHHB.png,,,,,,,,,,,,,,,,,,,,m,1,0.6484,,,,,,,,0,50,50,23,1
,,,,,,,,,,,,,,,,,5c054e8a553fb800011917d7,22,2022-02-12_14h05.18.811,lexical_decision_task_DD_L6,2021.2.3,Win32,164.0419948,,,,,,,,,,,1.1499,1,,,,,,,,,,,,,,,,,,,,,,,,,0.033333333,-0.395138889,0,0,0,,,,,,,STEAK,C,m,y,./images/STEAK.png,,,,,,,,,,,,,,,,,,,,m,1,1.1499,,,,,,,,0,51,51,31,1
,,,,,,,,,,,,,,,,,5c054e8a553fb800011917d7,22,2022-02-12_14h05.18.811,lexical_decision_task_DD_L6,2021.2.3,Win32,164.0419948,,,,,,,,,,,0.8228,1,,,,,,,,,,,,,,,,,,,,,,,,,0.033333333,-0.395138889,0,0,0,,,,,,,LADDER,HB,z,y,./images/LADDERHB.png,,,,,,,,,,,,,,,,,,,,z,1,0.8228,,,,,,,,0,52,52,122,1
,,,,,,,,,,,,,,,,,5c054e8a553fb800011917d7,22,2022-02-12_14h05.18.811,lexical_decision_task_DD_L6,2021.2.3,Win32,164.0419948,,,,,,,,,,,0.661,1,,,,,,,,,,,,,,,,,,,,,,,,,0.033333333,-0.395138889,0,0,0,,,,,,,PASTA,HB,z,y,./images/PASTAHB.png,,,,,,,,,,,,,,,,,,,,z,1,0.661,,,,,,,,0,53,53,89,1
,,,,,,,,,,,,,,,,,5c054e8a553fb800011917d7,22,2022-02-12_14h05.18.811,lexical_decision_task_DD_L6,2021.2.3,Win32,164.0419948,,,,,,,,,,,0.6805,1,,,,,,,,,,,,,,,,,,,,,,,,,0.033333333,-0.395138889,0,0,0,,,,,,,WHISKY,HB,m,y,./images/WHISKYHB.png,,,,,,,,,,,,,,,,,,,,m,1,0.6805,,,,,,,,0,54,54,83,1
,,,,,,,,,,,,,,,,,5c054e8a553fb800011917d7,22,2022-02-12_14h05.18.811,lexical_decision_task_DD_L6,2021.2.3,Win32,164.0419948,,,,,,,,,,,0.6905,1,,,,,,,,,,,,,,,,,,,,,,,,,0.033333333,-0.395138889,0,0,0,,,,,,,FOLDER,LB,z,y,./images/FOLDERLB.png,,,,,,,,,,,,,,,,,,,,z,1,0.6905,,,,,,,,0,55,55,126,1
,,,,,,,,,,,,,,,,,5c054e8a553fb800011917d7,22,2022-02-12_14h05.18.811,lexical_decision_task_DD_L6,2021.2.3,Win32,164.0419948,,,,,,,,,,,1.1107,0,,,,,,,,,,,,,,,,,,,,,,,,,0.033333333,-0.395138889,0,0,0,,,,,,,RULER,C,m,y,./images/RULER.png,,,,,,,,,,,,,,,,,,,,z,0,1.1107,,,,,,,,0,56,56,79,1
,,,,,,,,,,,,,,,,,5c054e8a553fb800011917d7,22,2022-02-12_14h05.18.811,lexical_decision_task_DD_L6,2021.2.3,Win32,164.0419948,,,,,,,,,,,0.8348,1,,,,,,,,,,,,,,,,,,,,,,,,,0.033333333,-0.395138889,0,0,0,,,,,,,TOMATO,LB,z,y,./images/TOMATOLB.png,,,,,,,,,,,,,,,,,,,,z,1,0.8348,,,,,,,,0,57,57,84,1
,,,,,,,,,,,,,,,,,5c054e8a553fb800011917d7,22,2022-02-12_14h05.18.811,lexical_decision_task_DD_L6,2021.2.3,Win32,164.0419948,,,,,,,,,,,1.0299,1,,,,,,,,,,,,,,,,,,,,,,,,,0.033333333,-0.395138889,0,0,0,,,,,,,MIRROR,LB,z,y,./images/MIRRORLB.png,,,,,,,,,,,,,,,,,,,,z,1,1.0299,,,,,,,,0,58,58,147,1
,,,,,,,,,,,,,,,,,5c054e8a553fb800011917d7,22,2022-02-12_14h05.18.811,lexical_decision_task_DD_L6,2021.2.3,Win32,164.0419948,,,,,,,,,,,0.7612,1,,,,,,,,,,,,,,,,,,,,,,,,,0.033333333,-0.395138889,0,0,0,,,,,,,CRUMB,HB,z,y,./images/CRUMBHB.png,,,,,,,,,,,,,,,,,,,,z,1,0.7612,,,,,,,,0,59,59,113,1
,,,,,,,,,,,,,,,,,5c054e8a553fb800011917d7,22,2022-02-12_14h05.18.811,lexical_decision_task_DD_L6,2021.2.3,Win32,164.0419948,,,,,,,,,,,0.7314,1,,,,,,,,,,,,,,,,,,,,,,,,,0.033333333,-0.395138889,0,0,0,,,,,,,TRIPOD,LB,z,y,./images/TRIPODLB.png,,,,,,,,,,,,,,,,,,,,z,1,0.7314,,,,,,,,0,60,60,138,1
,,,,,,,,,,,,,,,,,5c054e8a553fb800011917d7,22,2022-02-12_14h05.18.811,lexical_decision_task_DD_L6,2021.2.3,Win32,164.0419948,,,,,,,,,,,0.6667,1,,,,,,,,,,,,,,,,,,,,,,,,,0.033333333,-0.395138889,0,0,0,,,,,,,SQUARE,LB,z,y,./images/SQUARELB.png,,,,,,,,,,,,,,,,,,,,z,1,0.6667,,,,,,,,0,61,61,90,1
,,,,,,,,,,,,,,,,,5c054e8a553fb800011917d7,22,2022-02-12_14h05.18.811,lexical_decision_task_DD_L6,2021.2.3,Win32,164.0419948,,,,,,,,,,,0.686,1,,,,,,,,,,,,,,,,,,,,,,,,,0.033333333,-0.395138889,0,0,0,,,,,,,KITTEN,LB,z,y,./images/KITTENLB.png,,,,,,,,,,,,,,,,,,,,z,1,0.686,,,,,,,,0,62,62,129,1
,,,,,,,,,,,,,,,,,5c054e8a553fb800011917d7,22,2022-02-12_14h05.18.811,lexical_decision_task_DD_L6,2021.2.3,Win32,164.0419948,,,,,,,,,,,1.0453,1,,,,,,,,,,,,,,,,,,,,,,,,,0.033333333,-0.395138889,0,0,0,,,,,,,BIRTH,C,z,y,./images/BIRTH.png,,,,,,,,,,,,,,,,,,,,z,1,1.0453,,,,,,,,0,63,63,121,1
,,,,,,,,,,,,,,,,,5c054e8a553fb800011917d7,22,2022-02-12_14h05.18.811,lexical_decision_task_DD_L6,2021.2.3,Win32,164.0419948,,,,,,,,,,,1.0979,0,,,,,,,,,,,,,,,,,,,,,,,,,0.033333333,-0.395138889,0,0,0,,,,,,,PENCE,C,z,y,./images/PENCE.png,,,,,,,,,,,,,,,,,,,,m,0,1.0979,,,,,,,,0,64,64,100,1
,,,,,,,,,,,,,,,,,5c054e8a553fb800011917d7,22,2022-02-12_14h05.18.811,lexical_decision_task_DD_L6,2021.2.3,Win32,164.0419948,,,,,,,,,,,1.5414,1,,,,,,,,,,,,,,,,,,,,,,,,,0.033333333,-0.395138889,0,0,0,,,,,,,BABOON,C,z,y,./images/BABOON.png,,,,,,,,,,,,,,,,,,,,z,1,1.5414,,,,,,,,0,65,65,142,1
,,,,,,,,,,,,,,,,,5c054e8a553fb800011917d7,22,2022-02-12_14h05.18.811,lexical_decision_task_DD_L6,2021.2.3,Win32,164.0419948,,,,,,,,,,,0.8374,0,,,,,,,,,,,,,,,,,,,,,,,,,0.033333333,-0.395138889,0,0,0,,,,,,,SHIELD,LB,m,y,./images/SHIELDLB.png,,,,,,,,,,,,,,,,,,,,z,0,0.8374,,,,,,,,0,66,66,48,1
,,,,,,,,,,,,,,,,,5c054e8a553fb800011917d7,22,2022-02-12_14h05.18.811,lexical_decision_task_DD_L6,2021.2.3,Win32,164.0419948,,,,,,,,,,,0.707,1,,,,,,,,,,,,,,,,,,,,,,,,,0.033333333,-0.395138889,0,0,0,,,,,,,POKER,C,m,y,./images/POKER.png,,,,,,,,,,,,,,,,,,,,m,1,0.707,,,,,,,,0,67,67,67,1
,,,,,,,,,,,,,,,,,5c054e8a553fb800011917d7,22,2022-02-12_14h05.18.811,lexical_decision_task_DD_L6,2021.2.3,Win32,164.0419948,,,,,,,,,,,0.737,1,,,,,,,,,,,,,,,,,,,,,,,,,0.033333333,-0.395138889,0,0,0,,,,,,,CRUST,C,z,y,./images/CRUST.png,,,,,,,,,,,,,,,,,,,,z,1,0.737,,,,,,,,0,68,68,163,1
,,,,,,,,,,,,,,,,,5c054e8a553fb800011917d7,22,2022-02-12_14h05.18.811,lexical_decision_task_DD_L6,2021.2.3,Win32,164.0419948,,,,,,,,,,,0.9578,0,,,,,,,,,,,,,,,,,,,,,,,,,0.033333333,-0.395138889,0,0,0,,,,,,,MAMMAL,HB,m,y,./images/MAMMALHB.png,,,,,,,,,,,,,,,,,,,,z,0,0.9578,,,,,,,,0,69,69,62,1
,,,,,,,,,,,,,,,,,5c054e8a553fb800011917d7,22,2022-02-12_14h05.18.811,lexical_decision_task_DD_L6,2021.2.3,Win32,164.0419948,,,,,,,,,,,0.8308,1,,,,,,,,,,,,,,,,,,,,,,,,,0.033333333,-0.395138889,0,0,0,,,,,,,CLOWN,C,m,y,./images/CLOWN.png,,,,,,,,,,,,,,,,,,,,m,1,0.8308,,,,,,,,0,70,70,22,1
,,,,,,,,,,,,,,,,,5c054e8a553fb800011917d7,22,2022-02-12_14h05.18.811,lexical_decision_task_DD_L6,2021.2.3,Win32,164.0419948,,,,,,,,,,,0.9511,0,,,,,,,,,,,,,,,,,,,,,,,,,0.033333333,-0.395138889,0,0,0,,,,,,,MALLET,HB,z,y,./images/MALLETHB.png,,,,,,,,,,,,,,,,,,,,m,0,0.9511,,,,,,,,0,71,71,134,1
,,,,,,,,,,,,,,,,,5c054e8a553fb800011917d7,22,2022-02-12_14h05.18.811,lexical_decision_task_DD_L6,2021.2.3,Win32,164.0419948,,,,,,,,,,,0.8562,1,,,,,,,,,,,,,,,,,,,,,,,,,0.033333333,-0.395138889,0,0,0,,,,,,,BOILER,LB,m,y,./images/BOILERLB.png,,,,,,,,,,,,,,,,,,,,m,1,0.8562,,,,,,,,0,72,72,36,1
,,,,,,,,,,,,,,,,,5c054e8a553fb800011917d7,22,2022-02-12_14h05.18.811,lexical_decision_task_DD_L6,2021.2.3,Win32,164.0419948,,,,,,,,,,,0.9714,0,,,,,,,,,,,,,,,,,,,,,,,,,0.033333333,-0.395138889,0,0,0,,,,,,,PISTOL,HB,m,y,./images/PISTOLHB.png,,,,,,,,,,,,,,,,,,,,z,0,0.9714,,,,,,,,0,73,73,29,1
,,,,,,,,,,,,,,,,,5c054e8a553fb800011917d7,22,2022-02-12_14h05.18.811,lexical_decision_task_DD_L6,2021.2.3,Win32,164.0419948,,,,,,,,,,,0.8197,1,,,,,,,,,,,,,,,,,,,,,,,,,0.033333333,-0.395138889,0,0,0,,,,,,,PEBBLE,C,m,y,./images/PEBBLE.png,,,,,,,,,,,,,,,,,,,,m,1,0.8197,,,,,,,,0,74,74,82,1
,,,,,,,,,,,,,,,,,5c054e8a553fb800011917d7,22,2022-02-12_14h05.18.811,lexical_decision_task_DD_L6,2021.2.3,Win32,164.0419948,,,,,,,,,,,0.6365,1,,,,,,,,,,,,,,,,,,,,,,,,,0.033333333,-0.395138889,0,0,0,,,,,,,ALLEY,C,m,y,./images/ALLEY.png,,,,,,,,,,,,,,,,,,,,m,1,0.6365,,,,,,,,0,75,75,55,1
,,,,,,,,,,,,,,,,,5c054e8a553fb800011917d7,22,2022-02-12_14h05.18.811,lexical_decision_task_DD_L6,2021.2.3,Win32,164.0419948,,,,,,,,,,,0.7464,0,,,,,,,,,,,,,,,,,,,,,,,,,0.033333333,-0.395138889,0,0,0,,,,,,,TIGER,C,m,y,./images/TIGER.png,,,,,,,,,,,,,,,,,,,,z,0,0.7464,,,,,,,,0,76,76,37,1
,,,,,,,,,,,,,,,,,5c054e8a553fb800011917d7,22,2022-02-12_14h05.18.811,lexical_decision_task_DD_L6,2021.2.3,Win32,164.0419948,,,,,,,,,,,0.6113,1,,,,,,,,,,,,,,,,,,,,,,,,,0.033333333,-0.395138889,0,0,0,,,,,,,TOWEL,C,m,y,./images/TOWEL.png,,,,,,,,,,,,,,,,,,,,m,1,0.6113,,,,,,,,0,77,77,1,1
,,,,,,,,,,,,,,,,,5c054e8a553fb800011917d7,22,2022-02-12_14h05.18.811,lexical_decision_task_DD_L6,2021.2.3,Win32,164.0419948,,,,,,,,,,,1.4814,1,,,,,,,,,,,,,,,,,,,,,,,,,0.033333333,-0.395138889,0,0,0,,,,,,,GRAIN,LB,z,y,./images/GRAINLB.png,,,,,,,,,,,,,,,,,,,,z,1,1.4814,,,,,,,,0,78,78,159,1
,,,,,,,,,,,,,,,,,5c054e8a553fb800011917d7,22,2022-02-12_14h05.18.811,lexical_decision_task_DD_L6,2021.2.3,Win32,164.0419948,,,,,,,,,,,1.1837,1,,,,,,,,,,,,,,,,,,,,,,,,,0.033333333,-0.395138889,0,0,0,,,,,,,STREAM,HB,m,y,./images/STREAMHB.png,,,,,,,,,,,,,,,,,,,,m,1,1.1837,,,,,,,,0,79,79,41,1
,,,,,,,,,,,,,,,,,5c054e8a553fb800011917d7,22,2022-02-12_14h05.18.811,lexical_decision_task_DD_L6,2021.2.3,Win32,164.0419948,,,,,,,,,,,0.7436,1,,,,,,,,,,,,,,,,,,,,,,,,,0.033333333,-0.395138889,0,0,0,,,,,,,GRANNY,HB,m,y,./images/GRANNYHB.png,,,,,,,,,,,,,,,,,,,,m,1,0.7436,,,,,,,,0,80,80,20,1
,,,,,,,,,,,,,,,,,5c054e8a553fb800011917d7,22,2022-02-12_14h05.18.811,lexical_decision_task_DD_L6,2021.2.3,Win32,164.0419948,,,,,,,,,,,1.0184,1,,,,,,,,,,,,,,,,,,,,,,,,,0.033333333,-0.395138889,0,0,0,,,,,,,MOTOR,C,z,y,./images/MOTOR.png,,,,,,,,,,,,,,,,,,,,z,1,1.0184,,,,,,,,0,81,81,97,1
,,,,,,,,,,,,,,,,,5c054e8a553fb800011917d7,22,2022-02-12_14h05.18.811,lexical_decision_task_DD_L6,2021.2.3,Win32,164.0419948,,,,,,,,,,,0.8112,0,,,,,,,,,,,,,,,,,,,,,,,,,0.033333333,-0.395138889,0,0,0,,,,,,,JELLY,C,z,y,./images/JELLY.png,,,,,,,,,,,,,,,,,,,,m,0,0.8112,,,,,,,,0,82,82,148,1
,,,,,,,,,,,,,,,,,5c054e8a553fb800011917d7,22,2022-02-12_14h05.18.811,lexical_decision_task_DD_L6,2021.2.3,Win32,164.0419948,,,,,,,,,,,0.6926,1,,,,,,,,,,,,,,,,,,,,,,,,,0.033333333,-0.395138889,0,0,0,space,,,,,,WHEEL,HB,m,y,./images/WHEELHB.png,0.67,,,,,,,,,,,,,,,,,,,m,1,0.6926,,,,,,,,0,83,83,77,1
,,,,,,,,,,,,,,,,,5c054e8a553fb800011917d7,22,2022-02-12_14h05.18.811,lexical_decision_task_DD_L6,2021.2.3,Win32,164.0419948,,,,,,,,,,,0.8923,1,,,,,,,,,,,,,,,,,,,,,,,,,0.033333333,-0.395138889,0,0,0,,,,,,,FINGER,LB,z,y,./images/FINGERLB.png,,,,,,,,,,,,,,,,,,,,z,1,0.8923,,,,,,,,0,84,84,87,1
,,,,,,,,,,,,,,,,,5c054e8a553fb800011917d7,22,2022-02-12_14h05.18.811,lexical_decision_task_DD_L6,2021.2.3,Win32,164.0419948,,,,,,,,,,,0.8322,1,,,,,,,,,,,,,,,,,,,,,,,,,0.033333333,-0.395138889,0,0,0,,,,,,,CASINO,C,m,y,./images/CASINO.png,,,,,,,,,,,,,,,,,,,,m,1,0.8322,,,,,,,,0,85,85,28,1
,,,,,,,,,,,,,,,,,5c054e8a553fb800011917d7,22,2022-02-12_14h05.18.811,lexical_decision_task_DD_L6,2021.2.3,Win32,164.0419948,,,,,,,,,,,0.8208,1,,,,,,,,,,,,,,,,,,,,,,,,,0.033333333,-0.395138889,0,0,0,,,,,,,SLOPE,LB,m,y,./images/SLOPELB.png,,,,,,,,,,,,,,,,,,,,m,1,0.8208,,,,,,,,0,86,86,30,1
,,,,,,,,,,,,,,,,,5c054e8a553fb800011917d7,22,2022-02-12_14h05.18.811,lexical_decision_task_DD_L6,2021.2.3,Win32,164.0419948,,,,,,,,,,,1.0048,1,,,,,,,,,,,,,,,,,,,,,,,,,0.033333333,-0.395138889,0,0,0,,,,,,,HEATER,HB,m,y,./images/HEATERHB.png,,,,,,,,,,,,,,,,,,,,m,1,1.0048,,,,,,,,0,87,87,56,1
,,,,,,,,,,,,,,,,,5c054e8a553fb800011917d7,22,2022-02-12_14h05.18.811,lexical_decision_task_DD_L6,2021.2.3,Win32,164.0419948,,,,,,,,,,,0.9327,0,,,,,,,,,,,,,,,,,,,,,,,,,0.033333333,-0.395138889,0,0,0,,,,,,,MAGGOT,LB,z,y,./images/MAGGOTLB.png,,,,,,,,,,,,,,,,,,,,m,0,0.9327,,,,,,,,0,88,88,117,1
,,,,,,,,,,,,,,,,,5c054e8a553fb800011917d7,22,2022-02-12_14h05.18.811,lexical_decision_task_DD_L6,2021.2.3,Win32,164.0419948,,,,,,,,,,,0.7314,1,,,,,,,,,,,,,,,,,,,,,,,,,0.033333333,-0.395138889,0,0,0,,,,,,,DOUGH,C,z,y,./images/DOUGH.png,,,,,,,,,,,,,,,,,,,,z,1,0.7314,,,,,,,,0,89,89,103,1
,,,,,,,,,,,,,,,,,5c054e8a553fb800011917d7,22,2022-02-12_14h05.18.811,lexical_decision_task_DD_L6,2021.2.3,Win32,164.0419948,,,,,,,,,,,0.6218,1,,,,,,,,,,,,,,,,,,,,,,,,,0.033333333,-0.395138889,0,0,0,,,,,,,STOVE,HB,m,y,./images/STOVEHB.png,,,,,,,,,,,,,,,,,,,,m,1,0.6218,,,,,,,,0,90,90,2,1
,,,,,,,,,,,,,,,,,5c054e8a553fb800011917d7,22,2022-02-12_14h05.18.811,lexical_decision_task_DD_L6,2021.2.3,Win32,164.0419948,,,,,,,,,,,1.0932,0,,,,,,,,,,,,,,,,,,,,,,,,,0.033333333,-0.395138889,0,0,0,,,,,,,TORCH,HB,z,y,./images/TORCHHB.png,,,,,,,,,,,,,,,,,,,,m,0,1.0932,,,,,,,,0,91,91,152,1
,,,,,,,,,,,,,,,,,5c054e8a553fb800011917d7,22,2022-02-12_14h05.18.811,lexical_decision_task_DD_L6,2021.2.3,Win32,164.0419948,,,,,,,,,,,0.8904,1,,,,,,,,,,,,,,,,,,,,,,,,,0.033333333,-0.395138889,0,0,0,,,,,,,THROAT,LB,z,y,./images/THROATLB.png,,,,,,,,,,,,,,,,,,,,z,1,0.8904,,,,,,,,0,92,92,120,1
,,,,,,,,,,,,,,,,,5c054e8a553fb800011917d7,22,2022-02-12_14h05.18.811,lexical_decision_task_DD_L6,2021.2.3,Win32,164.0419948,,,,,,,,,,,2.1016,1,,,,,,,,,,,,,,,,,,,,,,,,,0.033333333,-0.395138889,0,0,0,,,,,,,HOCKEY,HB,m,y,./images/HOCKEYHB.png,,,,,,,,,,,,,,,,,,,,m,1,2.1016,,,,,,,,0,93,93,32,1
,,,,,,,,,,,,,,,,,5c054e8a553fb800011917d7,22,2022-02-12_14h05.18.811,lexical_decision_task_DD_L6,2021.2.3,Win32,164.0419948,,,,,,,,,,,0.7038,1,,,,,,,,,,,,,,,,,,,,,,,,,0.033333333,-0.395138889,0,0,0,,,,,,,ONION,LB,z,y,./images/ONIONLB.png,,,,,,,,,,,,,,,,,,,,z,1,0.7038,,,,,,,,0,94,94,135,1
,,,,,,,,,,,,,,,,,5c054e8a553fb800011917d7,22,2022-02-12_14h05.18.811,lexical_decision_task_DD_L6,2021.2.3,Win32,164.0419948,,,,,,,,,,,1.3228,1,,,,,,,,,,,,,,,,,,,,,,,,,0.033333333,-0.395138889,0,0,0,,,,,,,VALLEY,HB,m,y,./images/VALLEYHB.png,,,,,,,,,,,,,,,,,,,,m,1,1.3228,,,,,,,,0,95,95,68,1
,,,,,,,,,,,,,,,,,5c054e8a553fb800011917d7,22,2022-02-12_14h05.18.811,lexical_decision_task_DD_L6,2021.2.3,Win32,164.0419948,,,,,,,,,,,2.6149,0,,,,,,,,,,,,,,,,,,,,,,,,,0.033333333,-0.395138889,0,0,0,,,,,,,MONKEY,LB,m,y,./images/MONKEYLB.png,,,,,,,,,,,,,,,,,,,,z,0,2.6149,,,,,,,,0,96,96,45,1
,,,,,,,,,,,,,,,,,5c054e8a553fb800011917d7,22,2022-02-12_14h05.18.811,lexical_decision_task_DD_L6,2021.2.3,Win32,164.0419948,,,,,,,,,,,0.8685,1,,,,,,,,,,,,,,,,,,,,,,,,,0.033333333,-0.395138889,0,0,0,,,,,,,LLAMA,HB,m,y,./images/LLAMAHB.png,,,,,,,,,,,,,,,,,,,,m,1,0.8685,,,,,,,,0,97,97,35,1
,,,,,,,,,,,,,,,,,5c054e8a553fb800011917d7,22,2022-02-12_14h05.18.811,lexical_decision_task_DD_L6,2021.2.3,Win32,164.0419948,,,,,,,,,,,0.9574,0,,,,,,,,,,,,,,,,,,,,,,,,,0.033333333,-0.395138889,0,0,0,,,,,,,SHORE,LB,z,y,./images/SHORELB.png,,,,,,,,,,,,,,,,,,,,m,0,0.9574,,,,,,,,0,98,98,96,1
,,,,,,,,,,,,,,,,,5c054e8a553fb800011917d7,22,2022-02-12_14h05.18.811,lexical_decision_task_DD_L6,2021.2.3,Win32,164.0419948,,,,,,,,,,,0.8198,0,,,,,,,,,,,,,,,,,,,,,,,,,0.033333333,-0.395138889,0,0,0,,,,,,,CRATER,LB,m,y,./images/CRATERLB.png,,,,,,,,,,,,,,,,,,,,z,0,0.8198,,,,,,,,0,99,99,3,1
,,,,,,,,,,,,,,,,,5c054e8a553fb800011917d7,22,2022-02-12_14h05.18.811,lexical_decision_task_DD_L6,2021.2.3,Win32,164.0419948,,,,,,,,,,,0.612,1,,,,,,,,,,,,,,,,,,,,,,,,,0.033333333,-0.395138889,0,0,0,,,,,,,BAKER,LB,m,y,./images/BAKERLB.png,,,,,,,,,,,,,,,,,,,,m,1,0.612,,,,,,,,0,100,100,63,1
,,,,,,,,,,,,,,,,,5c054e8a553fb800011917d7,22,2022-02-12_14h05.18.811,lexical_decision_task_DD_L6,2021.2.3,Win32,164.0419948,,,,,,,,,,,0.7511,1,,,,,,,,,,,,,,,,,,,,,,,,,0.033333333,-0.395138889,0,0,0,,,,,,,SMOKER,HB,z,y,./images/SMOKERHB.png,,,,,,,,,,,,,,,,,,,,z,1,0.7511,,,,,,,,0,101,101,110,1
,,,,,,,,,,,,,,,,,5c054e8a553fb800011917d7,22,2022-02-12_14h05.18.811,lexical_decision_task_DD_L6,2021.2.3,Win32,164.0419948,,,,,,,,,,,0.9006,1,,,,,,,,,,,,,,,,,,,,,,,,,0.033333333,-0.395138889,0,0,0,,,,,,,PEACH,HB,z,y,./images/PEACHHB.png,,,,,,,,,,,,,,,,,,,,z,1,0.9006,,,,,,,,0,102,102,119,1
,,,,,,,,,,,,,,,,,5c054e8a553fb800011917d7,22,2022-02-12_14h05.18.811,lexical_decision_task_DD_L6,2021.2.3,Win32,164.0419948,,,,,,,,,,,0.681,1,,,,,,,,,,,,,,,,,,,,,,,,,0.033333333,-0.395138889,0,0,0,,,,,,,CLIFF,HB,m,y,./images/CLIFFHB.png,,,,,,,,,,,,,,,,,,,,m,1,0.681,,,,,,,,0,103,103,8,1
,,,,,,,,,,,,,,,,,5c054e8a553fb800011917d7,22,2022-02-12_14h05.18.811,lexical_decision_task_DD_L6,2021.2.3,Win32,164.0419948,,,,,,,,,,,0.7155,0,,,,,,,,,,,,,,,,,,,,,,,,,0.033333333,-0.395138889,0,0,0,,,,,,,BUTTER,LB,m,y,./images/BUTTERLB.png,,,,,,,,,,,,,,,,,,,,z,0,0.7155,,,,,,,,0,104,104,27,1
,,,,,,,,,,,,,,,,,5c054e8a553fb800011917d7,22,2022-02-12_14h05.18.811,lexical_decision_task_DD_L6,2021.2.3,Win32,164.0419948,,,,,,,,,,,0.6583,1,,,,,,,,,,,,,,,,,,,,,,,,,0.033333333,-0.395138889,0,0,0,,,,,,,FLASK,LB,m,y,./images/FLASKLB.png,,,,,,,,,,,,,,,,,,,,m,1,0.6583,,,,,,,,0,105,105,72,1
,,,,,,,,,,,,,,,,,5c054e8a553fb800011917d7,22,2022-02-12_14h05.18.811,lexical_decision_task_DD_L6,2021.2.3,Win32,164.0419948,,,,,,,,,,,0.6886,0,,,,,,,,,,,,,,,,,,,,,,,,,0.033333333,-0.395138889,0,0,0,,,,,,,ENGINE,HB,m,y,./images/ENGINEHB.png,,,,,,,,,,,,,,,,,,,,z,0,0.6886,,,,,,,,0,106,106,38,1
,,,,,,,,,,,,,,,,,5c054e8a553fb800011917d7,22,2022-02-12_14h05.18.811,lexical_decision_task_DD_L6,2021.2.3,Win32,164.0419948,,,,,,,,,,,0.7138,0,,,,,,,,,,,,,,,,,,,,,,,,,0.033333333,-0.395138889,0,0,0,,,,,,,GLOVE,C,m,y,./images/GLOVE.png,,,,,,,,,,,,,,,,,,,,z,0,0.7138,,,,,,,,0,107,107,73,1
,,,,,,,,,,,,,,,,,5c054e8a553fb800011917d7,22,2022-02-12_14h05.18.811,lexical_decision_task_DD_L6,2021.2.3,Win32,164.0419948,,,,,,,,,,,0.9183,1,,,,,,,,,,,,,,,,,,,,,,,,,0.033333333,-0.395138889,0,0,0,,,,,,,MOOSE,LB,z,y,./images/MOOSELB.png,,,,,,,,,,,,,,,,,,,,z,1,0.9183,,,,,,,,0,108,108,141,1
,,,,,,,,,,,,,,,,,5c054e8a553fb800011917d7,22,2022-02-12_14h05.18.811,lexical_decision_task_DD_L6,2021.2.3,Win32,164.0419948,,,,,,,,,,,0.6567,1,,,,,,,,,,,,,,,,,,,,,,,,,0.033333333,-0.395138889,0,0,0,,,,,,,URINE,C,z,y,./images/URINE.png,,,,,,,,,,,,,,,,,,,,z,1,0.6567,,,,,,,,0,109,109,154,1
,,,,,,,,,,,,,,,,,5c054e8a553fb800011917d7,22,2022-02-12_14h05.18.811,lexical_decision_task_DD_L6,2021.2.3,Win32,164.0419948,,,,,,,,,,,0.7348,0,,,,,,,,,,,,,,,,,,,,,,,,,0.033333333,-0.395138889,0,0,0,,,,,,,GRAPE,C,m,y,./images/GRAPE.png,,,,,,,,,,,,,,,,,,,,z,0,0.7348,,,,,,,,0,110,110,16,1
,,,,,,,,,,,,,,,,,5c054e8a553fb800011917d7,22,2022-02-12_14h05.18.811,lexical_decision_task_DD_L6,2021.2.3,Win32,164.0419948,,,,,,,,,,,0.9184,1,,,,,,,,,,,,,,,,,,,,,,,,,0.033333333,-0.395138889,0,0,0,,,,,,,POODLE,LB,z,y,./images/POODLELB.png,,,,,,,,,,,,,,,,,,,,z,1,0.9184,,,,,,,,0,111,111,165,1
,,,,,,,,,,,,,,,,,5c054e8a553fb800011917d7,22,2022-02-12_14h05.18.811,lexical_decision_task_DD_L6,2021.2.3,Win32,164.0419948,,,,,,,,,,,0.8587,1,,,,,,,,,,,,,,,,,,,,,,,,,0.033333333,-0.395138889,0,0,0,,,,,,,PICKLE,HB,z,y,./images/PICKLEHB.png,,,,,,,,,,,,,,,,,,,,z,1,0.8587,,,,,,,,0,112,112,98,1
,,,,,,,,,,,,,,,,,5c054e8a553fb800011917d7,22,2022-02-12_14h05.18.811,lexical_decision_task_DD_L6,2021.2.3,Win32,164.0419948,,,,,,,,,,,0.7836,1,,,,,,,,,,,,,,,,,,,,,,,,,0.033333333,-0.395138889,0,0,0,,,,,,,STORM,LB,z,y,./images/STORMLB.png,,,,,,,,,,,,,,,,,,,,z,1,0.7836,,,,,,,,0,113,113,114,1
,,,,,,,,,,,,,,,,,5c054e8a553fb800011917d7,22,2022-02-12_14h05.18.811,lexical_decision_task_DD_L6,2021.2.3,Win32,164.0419948,,,,,,,,,,,0.7527,1,,,,,,,,,,,,,,,,,,,,,,,,,0.033333333,-0.395138889,0,0,0,,,,,,,CURRY,LB,m,y,./images/CURRYLB.png,,,,,,,,,,,,,,,,,,,,m,1,0.7527,,,,,,,,0,114,114,60,1
,,,,,,,,,,,,,,,,,5c054e8a553fb800011917d7,22,2022-02-12_14h05.18.811,lexical_decision_task_DD_L6,2021.2.3,Win32,164.0419948,,,,,,,,,,,0.8361,1,,,,,,,,,,,,,,,,,,,,,,,,,0.033333333,-0.395138889,0,0,0,,,,,,,WEASEL,HB,z,y,./images/WEASELHB.png,,,,,,,,,,,,,,,,,,,,z,1,0.8361,,,,,,,,0,115,115,164,1
,,,,,,,,,,,,,,,,,5c054e8a553fb800011917d7,22,2022-02-12_14h05.18.811,lexical_decision_task_DD_L6,2021.2.3,Win32,164.0419948,,,,,,,,,,,0.7578,1,,,,,,,,,,,,,,,,,,,,,,,,,0.033333333,-0.395138889,0,0,0,,,,,,,JUNGLE,HB,z,y,./images/JUNGLEHB.png,,,,,,,,,,,,,,,,,,,,z,1,0.7578,,,,,,,,0,116,116,167,1
,,,,,,,,,,,,,,,,,5c054e8a553fb800011917d7,22,2022-02-12_14h05.18.811,lexical_decision_task_DD_L6,2021.2.3,Win32,164.0419948,,,,,,,,,,,1.1729,0,,,,,,,,,,,,,,,,,,,,,,,,,0.033333333,-0.395138889,0,0,0,,,,,,,BAMBOO,HB,m,y,./images/BAMBOOHB.png,,,,,,,,,,,,,,,,,,,,z,0,1.1729,,,,,,,,0,117,117,5,1
,,,,,,,,,,,,,,,,,5c054e8a553fb800011917d7,22,2022-02-12_14h05.18.811,lexical_decision_task_DD_L6,2021.2.3,Win32,164.0419948,,,,,,,,,,,0.9097,1,,,,,,,,,,,,,,,,,,,,,,,,,0.033333333,-0.395138889,0,0,0,,,,,,,BANNER,C,z,y,./images/BANNER.png,,,,,,,,,,,,,,,,,,,,z,1,0.9097,,,,,,,,0,118,118,136,1
,,,,,,,,,,,,,,,,,5c054e8a553fb800011917d7,22,2022-02-12_14h05.18.811,lexical_decision_task_DD_L6,2021.2.3,Win32,164.0419948,,,,,,,,,,,1.2316,0,,,,,,,,,,,,,,,,,,,,,,,,,0.033333333,-0.395138889,0,0,0,,,,,,,SAUNA,LB,m,y,./images/SAUNALB.png,,,,,,,,,,,,,,,,,,,,z,0,1.2316,,,,,,,,0,119,119,33,1
,,,,,,,,,,,,,,,,,5c054e8a553fb800011917d7,22,2022-02-12_14h05.18.811,lexical_decision_task_DD_L6,2021.2.3,Win32,164.0419948,,,,,,,,,,,0.69,1,,,,,,,,,,,,,,,,,,,,,,,,,0.033333333,-0.395138889,0,0,0,,,,,,,SNACK,C,z,y,./images/SNACK.png,,,,,,,,,,,,,,,,,,,,z,1,0.69,,,,,,,,0,120,120,157,1
,,,,,,,,,,,,,,,,,5c054e8a553fb800011917d7,22,2022-02-12_14h05.18.811,lexical_decision_task_DD_L6,2021.2.3,Win32,164.0419948,,,,,,,,,,,0.8898,0,,,,,,,,,,,,,,,,,,,,,,,,,0.033333333,-0.395138889,0,0,0,,,,,,,SAUCE,LB,m,y,./images/SAUCELB.png,,,,,,,,,,,,,,,,,,,,z,0,0.8898,,,,,,,,0,121,121,51,1
,,,,,,,,,,,,,,,,,5c054e8a553fb800011917d7,22,2022-02-12_14h05.18.811,lexical_decision_task_DD_L6,2021.2.3,Win32,164.0419948,,,,,,,,,,,0.7617,1,,,,,,,,,,,,,,,,,,,,,,,,,0.033333333,-0.395138889,0,0,0,,,,,,,CARPET,HB,z,y,./images/CARPETHB.png,,,,,,,,,,,,,,,,,,,,z,1,0.7617,,,,,,,,0,122,122,137,1
,,,,,,,,,,,,,,,,,5c054e8a553fb800011917d7,22,2022-02-12_14h05.18.811,lexical_decision_task_DD_L6,2021.2.3,Win32,164.0419948,,,,,,,,,,,0.8034,1,,,,,,,,,,,,,,,,,,,,,,,,,0.033333333,-0.395138889,0,0,0,,,,,,,PURSE,HB,z,y,./images/PURSEHB.png,,,,,,,,,,,,,,,,,,,,z,1,0.8034,,,,,,,,0,123,123,146,1
,,,,,,,,,,,,,,,,,5c054e8a553fb800011917d7,22,2022-02-12_14h05.18.811,lexical_decision_task_DD_L6,2021.2.3,Win32,164.0419948,,,,,,,,,,,1.2677,1,,,,,,,,,,,,,,,,,,,,,,,,,0.033333333,-0.395138889,0,0,0,,,,,,,CHERRY,LB,m,y,./images/CHERRYLB.png,,,,,,,,,,,,,,,,,,,,m,1,1.2677,,,,,,,,0,124,124,54,1
,,,,,,,,,,,,,,,,,5c054e8a553fb800011917d7,22,2022-02-12_14h05.18.811,lexical_decision_task_DD_L6,2021.2.3,Win32,164.0419948,,,,,,,,,,,0.7499,1,,,,,,,,,,,,,,,,,,,,,,,,,0.033333333,-0.395138889,0,0,0,space,,,,,,TULIP,HB,z,y,./images/TULIPHB.png,0.6852,,,,,,,,,,,,,,,,,,,z,1,0.7499,,,,,,,,0,125,125,92,1
,,,,,,,,,,,,,,,,,5c054e8a553fb800011917d7,22,2022-02-12_14h05.18.811,lexical_decision_task_DD_L6,2021.2.3,Win32,164.0419948,,,,,,,,,,,0.9994,1,,,,,,,,,,,,,,,,,,,,,,,,,0.033333333,-0.395138889,0,0,0,,,,,,,GARDEN,C,m,y,./images/GARDEN.png,,,,,,,,,,,,,,,,,,,,m,1,0.9994,,,,,,,,0,126,126,10,1
,,,,,,,,,,,,,,,,,5c054e8a553fb800011917d7,22,2022-02-12_14h05.18.811,lexical_decision_task_DD_L6,2021.2.3,Win32,164.0419948,,,,,,,,,,,0.6829,1,,,,,,,,,,,,,,,,,,,,,,,,,0.033333333,-0.395138889,0,0,0,,,,,,,MOSQUE,C,z,y,./images/MOSQUE.png,,,,,,,,,,,,,,,,,,,,z,1,0.6829,,,,,,,,0,127,127,127,1
,,,,,,,,,,,,,,,,,5c054e8a553fb800011917d7,22,2022-02-12_14h05.18.811,lexical_decision_task_DD_L6,2021.2.3,Win32,164.0419948,,,,,,,,,,,0.6806,1,,,,,,,,,,,,,,,,,,,,,,,,,0.033333333,-0.395138889,0,0,0,,,,,,,JAGUAR,LB,z,y,./images/JAGUARLB.png,,,,,,,,,,,,,,,,,,,,z,1,0.6806,,,,,,,,0,128,128,102,1
,,,,,,,,,,,,,,,,,5c054e8a553fb800011917d7,22,2022-02-12_14h05.18.811,lexical_decision_task_DD_L6,2021.2.3,Win32,164.0419948,,,,,,,,,,,0.6249,1,,,,,,,,,,,,,,,,,,,,,,,,,0.033333333,-0.395138889,0,0,0,,,,,,,MELON,C,z,y,./images/MELON.png,,,,,,,,,,,,,,,,,,,,z,1,0.6249,,,,,,,,0,129,129,106,1
,,,,,,,,,,,,,,,,,5c054e8a553fb800011917d7,22,2022-02-12_14h05.18.811,lexical_decision_task_DD_L6,2021.2.3,Win32,164.0419948,,,,,,,,,,,0.7427,1,,,,,,,,,,,,,,,,,,,,,,,,,0.033333333,-0.395138889,0,0,0,,,,,,,STRING,HB,z,y,./images/STRINGHB.png,,,,,,,,,,,,,,,,,,,,z,1,0.7427,,,,,,,,0,130,130,125,1
,,,,,,,,,,,,,,,,,5c054e8a553fb800011917d7,22,2022-02-12_14h05.18.811,lexical_decision_task_DD_L6,2021.2.3,Win32,164.0419948,,,,,,,,,,,0.7577,1,,,,,,,,,,,,,,,,,,,,,,,,,0.033333333,-0.395138889,0,0,0,,,,,,,MUSCLE,C,z,y,./images/MUSCLE.png,,,,,,,,,,,,,,,,,,,,z,1,0.7577,,,,,,,,0,131,131,88,1
,,,,,,,,,,,,,,,,,5c054e8a553fb800011917d7,22,2022-02-12_14h05.18.811,lexical_decision_task_DD_L6,2021.2.3,Win32,164.0419948,,,,,,,,,,,0.7587,1,,,,,,,,,,,,,,,,,,,,,,,,,0.033333333,-0.395138889,0,0,0,,,,,,,COOKER,LB,z,y,./images/COOKERLB.png,,,,,,,,,,,,,,,,,,,,z,1,0.7587,,,,,,,,0,132,132,153,1
,,,,,,,,,,,,,,,,,5c054e8a553fb800011917d7,22,2022-02-12_14h05.18.811,lexical_decision_task_DD_L6,2021.2.3,Win32,164.0419948,,,,,,,,,,,0.6579,1,,,,,,,,,,,,,,,,,,,,,,,,,0.033333333,-0.395138889,0,0,0,,,,,,,PAINT,C,z,y,./images/PAINT.png,,,,,,,,,,,,,,,,,,,,z,1,0.6579,,,,,,,,0,133,133,91,1
