key_resp.keys,instr_done_touch.x,instr_done_touch.y,instr_done_touch.leftButton,instr_done_touch.midButton,instr_done_touch.rightButton,instr_done_touch.clicked_name,instruction_pages.thisRepN,instruction_pages.thisTrialN,instruction_pages.thisN,instruction_pages.thisIndex,instruction_pages.ran,pageN,phase,instruct_text,has_image,instruct_image,participant,age,date,expName,psychopyVersion,OS,frameRate,response.keys,response.corr,response.rt,touch_resp.x,touch_resp.y,touch_resp.leftButton,touch_resp.midButton,touch_resp.rightButton,touch_resp.time,touch_resp.clicked_name,rt,corr,practrials.thisRepN,practrials.thisTrialN,practrials.thisN,practrials.thisIndex,practrials.ran,TrialID,Target,corrAns,end_of_practice_trials_pages.thisRepN,end_of_practice_trials_pages.thisTrialN,end_of_practice_trials_pages.thisN,end_of_practice_trials_pages.thisIndex,end_of_practice_trials_pages.ran,key_resp_2.keys,key_resp_2.corr,key_resp_2.rt,targ_click.x,targ_click.y,targ_click.leftButton,targ_click.midButton,targ_click.rightButton,targ_click.time,targ_click.clicked_name,break_done_touch.x,break_done_touch.y,break_done_touch.leftButton,break_done_touch.midButton,break_done_touch.rightButton,break_done_keyboard.keys,maintrials.thisRepN,maintrials.thisTrialN,maintrials.thisN,maintrials.thisIndex,maintrials.ran,string,blur,study,lex,stim_path,break_done_touch.clicked_name,mouse_2.x,mouse_2.y,mouse_2.leftButton,mouse_2.midButton,mouse_2.rightButton,mouse_2.clicked_name,slider.response,slider.rt,trials.thisRepN,trials.thisTrialN,trials.thisN,trials.thisIndex,trials.ran,test_instructions.thisRepN,test_instructions.thisTrialN,test_instructions.thisN,test_instructions.thisIndex,test_instructions.ran,key_resp_3.keys,key_resp_3.corr,key_resp_3.rt,test_click.x,test_click.y,test_click.leftButton,test_click.midButton,test_click.rightButton,test_click.time,test_click.clicked_name,test_phase.thisRepN,test_phase.thisTrialN,test_phase.thisN,test_phase.thisIndex,test_phase.ran
,0.101851881,-0.370370396,1,0,0,instr_done_button,0,0,0,0,1,1,instructions,"INSTRUCTIONS
At the start of each trial, look at the plus sign  (+) in the center of the screen.  This tells you that a trial is about to begin and where to look. Second, the plus sign will disappear and a string of letters will appear. Your task is to determine if the string of letters is a word or not. If the item is a word press the M key (on keyboard)  or touch the word button (phone/tablet).  If the item is not a word,  press the  Z key (on keyboard)  or touch the nonword button (on phone/tablet). 
Press the space bar or touch  continue.",0,,5c8570c3bce73c00178c4dc6,50,2022-02-12_12h36.47.823,lexical_decision_task_DD_L6,2021.2.3,Win32,60.03121623,,,,,,,,,,,,,,,,,,,,,,,,,,,,,,,,,,,,,,,,,,,,,,,,,,,,,,,,,,,,,,,,,,,,,,,,,,,,,,,,,,,,,
,0.026851936,-0.377777804,1,0,0,instr_done_button,0,1,1,1,1,2,instructions,"If your device has a keyboard, press the 'Z' key for nonwords and the 'M' key for words.





Press the space bar or touch the button below to continue.",0,keyboard-example.gif,5c8570c3bce73c00178c4dc6,50,2022-02-12_12h36.47.823,lexical_decision_task_DD_L6,2021.2.3,Win32,60.03121623,,,,,,,,,,,,,,,,,,,,,,,,,,,,,,,,,,,,,,,,,,,,,,,,,,,,,,,,,,,,,,,,,,,,,,,,,,,,,,,,,,,,,
,0.027777805,-0.377777804,1,0,0,instr_done_button,0,2,2,2,1,3,instructions,"If you are using a touchscreen only device, use the buttons on the screen. Do not use the mouse.





Press the space bar or touch the button below to continue.",0,touchscreen-example.gif,5c8570c3bce73c00178c4dc6,50,2022-02-12_12h36.47.823,lexical_decision_task_DD_L6,2021.2.3,Win32,60.03121623,,,,,,,,,,,,,,,,,,,,,,,,,,,,,,,,,,,,,,,,,,,,,,,,,,,,,,,,,,,,,,,,,,,,,,,,,,,,,,,,,,,,,
,0.073148177,-0.391666693,1,0,0,instr_done_button,0,3,3,3,1,4,instructions,"It is very important that you respond as quickly and accurately as possible, as each letter string will only be on the screen for two seconds. If you do not respond within this time, the message 'Too slow!' will be displayed and the experiment will progress to the next letter string. The first 20 trials will be practice trials and you will receive feedback on your answers. 

Press the space bar or touch the button below to start the practice trials.",0,,5c8570c3bce73c00178c4dc6,50,2022-02-12_12h36.47.823,lexical_decision_task_DD_L6,2021.2.3,Win32,60.03121623,,,,,,,,,,,,,,,,,,,,,,,,,,,,,,,,,,,,,,,,,,,,,,,,,,,,,,,,,,,,,,,,,,,,,,,,,,,,,,,,,,,,,
,,,,,,,,,,,,,,,,,5c8570c3bce73c00178c4dc6,50,2022-02-12_12h36.47.823,lexical_decision_task_DD_L6,2021.2.3,Win32,60.03121623,z,1,1.9494,,,,,,,,1.9494,1,0,0,0,8,1,1001,ASLERT,z,,,,,,,,,,,,,,,,,,,,,,,,,,,,,,,,,,,,,,,,,,,,,,,,,,,,,,,,,,,,,,,,,
,,,,,,,,,,,,,,,,,5c8570c3bce73c00178c4dc6,50,2022-02-12_12h36.47.823,lexical_decision_task_DD_L6,2021.2.3,Win32,60.03121623,m,1,1.1136,,,,,,,,1.1136,1,0,1,1,6,1,1001,ZOMBIE,m,,,,,,,,,,,,,,,,,,,,,,,,,,,,,,,,,,,,,,,,,,,,,,,,,,,,,,,,,,,,,,,,,
,,,,,,,,,,,,,,,,,5c8570c3bce73c00178c4dc6,50,2022-02-12_12h36.47.823,lexical_decision_task_DD_L6,2021.2.3,Win32,60.03121623,m,1,0.6164,,,,,,,,0.6164,1,0,2,2,5,1,1001,OBTAIN,m,,,,,,,,,,,,,,,,,,,,,,,,,,,,,,,,,,,,,,,,,,,,,,,,,,,,,,,,,,,,,,,,,
,,,,,,,,,,,,,,,,,5c8570c3bce73c00178c4dc6,50,2022-02-12_12h36.47.823,lexical_decision_task_DD_L6,2021.2.3,Win32,60.03121623,m,1,0.6842,,,,,,,,0.6842,1,0,3,3,4,1,1001,SQUEAK,m,,,,,,,,,,,,,,,,,,,,,,,,,,,,,,,,,,,,,,,,,,,,,,,,,,,,,,,,,,,,,,,,,
,,,,,,,,,,,,,,,,,5c8570c3bce73c00178c4dc6,50,2022-02-12_12h36.47.823,lexical_decision_task_DD_L6,2021.2.3,Win32,60.03121623,z,1,0.6335,,,,,,,,0.6335,1,0,4,4,11,1,1001,RASHET,z,,,,,,,,,,,,,,,,,,,,,,,,,,,,,,,,,,,,,,,,,,,,,,,,,,,,,,,,,,,,,,,,,
,,,,,,,,,,,,,,,,,5c8570c3bce73c00178c4dc6,50,2022-02-12_12h36.47.823,lexical_decision_task_DD_L6,2021.2.3,Win32,60.03121623,m,1,0.6005,,,,,,,,0.6005,1,0,5,5,1,1,1001,ADJUST,m,,,,,,,,,,,,,,,,,,,,,,,,,,,,,,,,,,,,,,,,,,,,,,,,,,,,,,,,,,,,,,,,,
,,,,,,,,,,,,,,,,,5c8570c3bce73c00178c4dc6,50,2022-02-12_12h36.47.823,lexical_decision_task_DD_L6,2021.2.3,Win32,60.03121623,m,1,0.558,,,,,,,,0.558,1,0,6,6,3,1,1001,MATRIX,m,,,,,,,,,,,,,,,,,,,,,,,,,,,,,,,,,,,,,,,,,,,,,,,,,,,,,,,,,,,,,,,,,
,,,,,,,,,,,,,,,,,5c8570c3bce73c00178c4dc6,50,2022-02-12_12h36.47.823,lexical_decision_task_DD_L6,2021.2.3,Win32,60.03121623,z,1,0.6829,,,,,,,,0.6829,1,0,7,7,12,1,1001,SPRINY,z,,,,,,,,,,,,,,,,,,,,,,,,,,,,,,,,,,,,,,,,,,,,,,,,,,,,,,,,,,,,,,,,,
,,,,,,,,,,,,,,,,,5c8570c3bce73c00178c4dc6,50,2022-02-12_12h36.47.823,lexical_decision_task_DD_L6,2021.2.3,Win32,60.03121623,m,1,0.3591,,,,,,,,0.3591,1,0,8,8,0,1,1001,UTOPIA,m,,,,,,,,,,,,,,,,,,,,,,,,,,,,,,,,,,,,,,,,,,,,,,,,,,,,,,,,,,,,,,,,,
,,,,,,,,,,,,,,,,,5c8570c3bce73c00178c4dc6,50,2022-02-12_12h36.47.823,lexical_decision_task_DD_L6,2021.2.3,Win32,60.03121623,z,1,0.6425,,,,,,,,0.6425,1,0,9,9,13,1,1001,ROUPET,z,,,,,,,,,,,,,,,,,,,,,,,,,,,,,,,,,,,,,,,,,,,,,,,,,,,,,,,,,,,,,,,,,
,,,,,,,,,,,,,,,,,5c8570c3bce73c00178c4dc6,50,2022-02-12_12h36.47.823,lexical_decision_task_DD_L6,2021.2.3,Win32,60.03121623,z,1,0.7358,,,,,,,,0.7358,1,0,10,10,9,1,1001,FARINY,z,,,,,,,,,,,,,,,,,,,,,,,,,,,,,,,,,,,,,,,,,,,,,,,,,,,,,,,,,,,,,,,,,
,,,,,,,,,,,,,,,,,5c8570c3bce73c00178c4dc6,50,2022-02-12_12h36.47.823,lexical_decision_task_DD_L6,2021.2.3,Win32,60.03121623,m,1,0.4367,,,,,,,,0.4367,1,0,11,11,7,1,1001,VOLUME,m,,,,,,,,,,,,,,,,,,,,,,,,,,,,,,,,,,,,,,,,,,,,,,,,,,,,,,,,,,,,,,,,,
,,,,,,,,,,,,,,,,,5c8570c3bce73c00178c4dc6,50,2022-02-12_12h36.47.823,lexical_decision_task_DD_L6,2021.2.3,Win32,60.03121623,z,1,0.766,,,,,,,,0.766,1,0,12,12,15,1,1001,WHAISE,z,,,,,,,,,,,,,,,,,,,,,,,,,,,,,,,,,,,,,,,,,,,,,,,,,,,,,,,,,,,,,,,,,
,,,,,,,,,,,,,,,,,5c8570c3bce73c00178c4dc6,50,2022-02-12_12h36.47.823,lexical_decision_task_DD_L6,2021.2.3,Win32,60.03121623,m,1,0.4517,,,,,,,,0.4517,1,0,13,13,2,1,1001,ALMOND,m,,,,,,,,,,,,,,,,,,,,,,,,,,,,,,,,,,,,,,,,,,,,,,,,,,,,,,,,,,,,,,,,,
,,,,,,,,,,,,,,,,,5c8570c3bce73c00178c4dc6,50,2022-02-12_12h36.47.823,lexical_decision_task_DD_L6,2021.2.3,Win32,60.03121623,z,1,0.7898,,,,,,,,0.7898,1,0,14,14,10,1,1001,INLADE,z,,,,,,,,,,,,,,,,,,,,,,,,,,,,,,,,,,,,,,,,,,,,,,,,,,,,,,,,,,,,,,,,,
,,,,,,,,,,,,,,,,,5c8570c3bce73c00178c4dc6,50,2022-02-12_12h36.47.823,lexical_decision_task_DD_L6,2021.2.3,Win32,60.03121623,m,0,0.7411,,,,,,,,0.7411,0,0,15,15,14,1,1001,THRALE,z,,,,,,,,,,,,,,,,,,,,,,,,,,,,,,,,,,,,,,,,,,,,,,,,,,,,,,,,,,,,,,,,,
,0.073148177,-0.391666693,1,0,0,instr_done_button,,,,,,1,end_of_practice,"You have completed the practice trials. During the experimental trials, you will not receive feedback. 
Before you begin, please ensure that you are in a comfortable and quiet location and will not be disturbed for about 15 minutes, as we cannot use your data if you do not complete all the trials. 
 When you are ready to start the experimental trials, please press space or touch the button below.",,,5c8570c3bce73c00178c4dc6,50,2022-02-12_12h36.47.823,lexical_decision_task_DD_L6,2021.2.3,Win32,60.03121623,,,,,,,,,,,,,,,,,,,,,0,0,0,0,1,,,,,,,,,,,,,,,,,,,,,,,,,,,,,,,,,,,,,,,,,,,,,,,,,,,,,,,,,,,,
,,,,,,,,,,,,,,,,,5c8570c3bce73c00178c4dc6,50,2022-02-12_12h36.47.823,lexical_decision_task_DD_L6,2021.2.3,Win32,60.03121623,,,,,,,,,,,0.6615,1,,,,,,,,,,,,,,m,1,0.6615,,,,,,,,0.073148177,-0.391666693,0,0,0,,0,0,0,52,1,DESERT,C,m,m,./images/DESERT.png,,,,,,,,,,,,,,,,,,,,,,,,,,,,,,,,,,
,,,,,,,,,,,,,,,,,5c8570c3bce73c00178c4dc6,50,2022-02-12_12h36.47.823,lexical_decision_task_DD_L6,2021.2.3,Win32,60.03121623,,,,,,,,,,,0.6293,1,,,,,,,,,,,,,,z,1,0.6293,,,,,,,,0.073148177,-0.391666693,0,0,0,,0,1,1,116,1,BALGY,LB,z,z,./images/BALGYLB.png,,,,,,,,,,,,,,,,,,,,,,,,,,,,,,,,,,
,,,,,,,,,,,,,,,,,5c8570c3bce73c00178c4dc6,50,2022-02-12_12h36.47.823,lexical_decision_task_DD_L6,2021.2.3,Win32,60.03121623,,,,,,,,,,,0.8869,1,,,,,,,,,,,,,,m,1,0.8869,,,,,,,,0.073148177,-0.391666693,0,0,0,,0,2,2,11,1,MEDAL,HB,m,m,./images/MEDALHB.png,,,,,,,,,,,,,,,,,,,,,,,,,,,,,,,,,,
,,,,,,,,,,,,,,,,,5c8570c3bce73c00178c4dc6,50,2022-02-12_12h36.47.823,lexical_decision_task_DD_L6,2021.2.3,Win32,60.03121623,,,,,,,,,,,0.4375,1,,,,,,,,,,,,,,m,1,0.4375,,,,,,,,0.073148177,-0.391666693,0,0,0,,0,3,3,73,1,GLOVE,C,m,m,./images/GLOVE.png,,,,,,,,,,,,,,,,,,,,,,,,,,,,,,,,,,
,,,,,,,,,,,,,,,,,5c8570c3bce73c00178c4dc6,50,2022-02-12_12h36.47.823,lexical_decision_task_DD_L6,2021.2.3,Win32,60.03121623,,,,,,,,,,,0.597,1,,,,,,,,,,,,,,m,1,0.597,,,,,,,,0.073148177,-0.391666693,0,0,0,,0,4,4,48,1,SHIELD,LB,m,m,./images/SHIELDLB.png,,,,,,,,,,,,,,,,,,,,,,,,,,,,,,,,,,
,,,,,,,,,,,,,,,,,5c8570c3bce73c00178c4dc6,50,2022-02-12_12h36.47.823,lexical_decision_task_DD_L6,2021.2.3,Win32,60.03121623,,,,,,,,,,,1.3393,1,,,,,,,,,,,,,,z,1,1.3393,,,,,,,,0.073148177,-0.391666693,0,0,0,,0,5,5,85,1,CHULK,HB,z,z,./images/CHULKHB.png,,,,,,,,,,,,,,,,,,,,,,,,,,,,,,,,,,
,,,,,,,,,,,,,,,,,5c8570c3bce73c00178c4dc6,50,2022-02-12_12h36.47.823,lexical_decision_task_DD_L6,2021.2.3,Win32,60.03121623,,,,,,,,,,,0.5001,1,,,,,,,,,,,,,,m,1,0.5001,,,,,,,,0.073148177,-0.391666693,0,0,0,,0,6,6,19,1,DONKEY,C,m,m,./images/DONKEY.png,,,,,,,,,,,,,,,,,,,,,,,,,,,,,,,,,,
,,,,,,,,,,,,,,,,,5c8570c3bce73c00178c4dc6,50,2022-02-12_12h36.47.823,lexical_decision_task_DD_L6,2021.2.3,Win32,60.03121623,,,,,,,,,,,0.9678,1,,,,,,,,,,,,,,z,1,0.9678,,,,,,,,0.073148177,-0.391666693,0,0,0,,0,7,7,104,1,GITTY,LB,z,z,./images/GITTYLB.png,,,,,,,,,,,,,,,,,,,,,,,,,,,,,,,,,,
,,,,,,,,,,,,,,,,,5c8570c3bce73c00178c4dc6,50,2022-02-12_12h36.47.823,lexical_decision_task_DD_L6,2021.2.3,Win32,60.03121623,,,,,,,,,,,0.6597,1,,,,,,,,,,,,,,z,1,0.6597,,,,,,,,0.073148177,-0.391666693,0,0,0,,0,8,8,102,1,DULLE,C,z,z,./images/DULLE.png,,,,,,,,,,,,,,,,,,,,,,,,,,,,,,,,,,
,,,,,,,,,,,,,,,,,5c8570c3bce73c00178c4dc6,50,2022-02-12_12h36.47.823,lexical_decision_task_DD_L6,2021.2.3,Win32,60.03121623,,,,,,,,,,,0.5301,1,,,,,,,,,,,,,,m,1,0.5301,,,,,,,,0.073148177,-0.391666693,0,0,0,,0,9,9,12,1,BLOKE,LB,m,m,./images/BLOKELB.png,,,,,,,,,,,,,,,,,,,,,,,,,,,,,,,,,,
,,,,,,,,,,,,,,,,,5c8570c3bce73c00178c4dc6,50,2022-02-12_12h36.47.823,lexical_decision_task_DD_L6,2021.2.3,Win32,60.03121623,,,,,,,,,,,0.7542,1,,,,,,,,,,,,,,m,1,0.7542,,,,,,,,0.073148177,-0.391666693,0,0,0,,0,10,10,71,1,BUBBLE,HB,m,m,./images/BUBBLEHB.png,,,,,,,,,,,,,,,,,,,,,,,,,,,,,,,,,,
,,,,,,,,,,,,,,,,,5c8570c3bce73c00178c4dc6,50,2022-02-12_12h36.47.823,lexical_decision_task_DD_L6,2021.2.3,Win32,60.03121623,,,,,,,,,,,0.6344,1,,,,,,,,,,,,,,m,1,0.6344,,,,,,,,0.073148177,-0.391666693,0,0,0,,0,11,11,36,1,BOILER,LB,m,m,./images/BOILERLB.png,,,,,,,,,,,,,,,,,,,,,,,,,,,,,,,,,,
,,,,,,,,,,,,,,,,,5c8570c3bce73c00178c4dc6,50,2022-02-12_12h36.47.823,lexical_decision_task_DD_L6,2021.2.3,Win32,60.03121623,,,,,,,,,,,0.4748,1,,,,,,,,,,,,,,m,1,0.4748,,,,,,,,0.073148177,-0.391666693,0,0,0,,0,12,12,27,1,BUTTER,LB,m,m,./images/BUTTERLB.png,,,,,,,,,,,,,,,,,,,,,,,,,,,,,,,,,,
,,,,,,,,,,,,,,,,,5c8570c3bce73c00178c4dc6,50,2022-02-12_12h36.47.823,lexical_decision_task_DD_L6,2021.2.3,Win32,60.03121623,,,,,,,,,,,0.4636,1,,,,,,,,,,,,,,m,1,0.4636,,,,,,,,0.073148177,-0.391666693,0,0,0,,0,13,13,16,1,GRAPE,C,m,m,./images/GRAPE.png,,,,,,,,,,,,,,,,,,,,,,,,,,,,,,,,,,
,,,,,,,,,,,,,,,,,5c8570c3bce73c00178c4dc6,50,2022-02-12_12h36.47.823,lexical_decision_task_DD_L6,2021.2.3,Win32,60.03121623,,,,,,,,,,,0.7636,1,,,,,,,,,,,,,,m,1,0.7636,,,,,,,,0.073148177,-0.391666693,0,0,0,,0,14,14,26,1,CLOUD,HB,m,m,./images/CLOUDHB.png,,,,,,,,,,,,,,,,,,,,,,,,,,,,,,,,,,
,,,,,,,,,,,,,,,,,5c8570c3bce73c00178c4dc6,50,2022-02-12_12h36.47.823,lexical_decision_task_DD_L6,2021.2.3,Win32,60.03121623,,,,,,,,,,,0.478,0,,,,,,,,,,,,,,m,0,0.478,,,,,,,,0.073148177,-0.391666693,0,0,0,,0,15,15,92,1,PAIMS,LB,z,z,./images/PAIMSLB.png,,,,,,,,,,,,,,,,,,,,,,,,,,,,,,,,,,
,,,,,,,,,,,,,,,,,5c8570c3bce73c00178c4dc6,50,2022-02-12_12h36.47.823,lexical_decision_task_DD_L6,2021.2.3,Win32,60.03121623,,,,,,,,,,,1.1109,1,,,,,,,,,,,,,,z,1,1.1109,,,,,,,,0.073148177,-0.391666693,0,0,0,,0,16,16,160,1,VEETS,HB,z,z,./images/VEETSHB.png,,,,,,,,,,,,,,,,,,,,,,,,,,,,,,,,,,
,,,,,,,,,,,,,,,,,5c8570c3bce73c00178c4dc6,50,2022-02-12_12h36.47.823,lexical_decision_task_DD_L6,2021.2.3,Win32,60.03121623,,,,,,,,,,,0.6533,1,,,,,,,,,,,,,,m,1,0.6533,,,,,,,,0.073148177,-0.391666693,0,0,0,,0,17,17,57,1,FERRY,LB,m,m,./images/FERRYLB.png,,,,,,,,,,,,,,,,,,,,,,,,,,,,,,,,,,
,,,,,,,,,,,,,,,,,5c8570c3bce73c00178c4dc6,50,2022-02-12_12h36.47.823,lexical_decision_task_DD_L6,2021.2.3,Win32,60.03121623,,,,,,,,,,,0.6345,1,,,,,,,,,,,,,,z,1,0.6345,,,,,,,,0.073148177,-0.391666693,0,0,0,,0,18,18,108,1,GRUET,C,z,z,./images/GRUET.png,,,,,,,,,,,,,,,,,,,,,,,,,,,,,,,,,,
,,,,,,,,,,,,,,,,,5c8570c3bce73c00178c4dc6,50,2022-02-12_12h36.47.823,lexical_decision_task_DD_L6,2021.2.3,Win32,60.03121623,,,,,,,,,,,0.759,1,,,,,,,,,,,,,,z,1,0.759,,,,,,,,0.073148177,-0.391666693,0,0,0,,0,19,19,161,1,BLAPS,LB,z,z,./images/BLAPSLB.png,,,,,,,,,,,,,,,,,,,,,,,,,,,,,,,,,,
,,,,,,,,,,,,,,,,,5c8570c3bce73c00178c4dc6,50,2022-02-12_12h36.47.823,lexical_decision_task_DD_L6,2021.2.3,Win32,60.03121623,,,,,,,,,,,0.5028,1,,,,,,,,,,,,,,m,1,0.5028,,,,,,,,0.073148177,-0.391666693,0,0,0,,0,20,20,37,1,TIGER,C,m,m,./images/TIGER.png,,,,,,,,,,,,,,,,,,,,,,,,,,,,,,,,,,
,,,,,,,,,,,,,,,,,5c8570c3bce73c00178c4dc6,50,2022-02-12_12h36.47.823,lexical_decision_task_DD_L6,2021.2.3,Win32,60.03121623,,,,,,,,,,,0.5369,1,,,,,,,,,,,,,,m,1,0.5369,,,,,,,,0.073148177,-0.391666693,0,0,0,,0,21,21,43,1,STOOL,C,m,m,./images/STOOL.png,,,,,,,,,,,,,,,,,,,,,,,,,,,,,,,,,,
,,,,,,,,,,,,,,,,,5c8570c3bce73c00178c4dc6,50,2022-02-12_12h36.47.823,lexical_decision_task_DD_L6,2021.2.3,Win32,60.03121623,,,,,,,,,,,0.3589,1,,,,,,,,,,,,,,m,1,0.3589,,,,,,,,0.073148177,-0.391666693,0,0,0,,0,22,22,67,1,POKER,C,m,m,./images/POKER.png,,,,,,,,,,,,,,,,,,,,,,,,,,,,,,,,,,
,,,,,,,,,,,,,,,,,5c8570c3bce73c00178c4dc6,50,2022-02-12_12h36.47.823,lexical_decision_task_DD_L6,2021.2.3,Win32,60.03121623,,,,,,,,,,,0.6812,1,,,,,,,,,,,,,,m,1,0.6812,,,,,,,,0.073148177,-0.391666693,0,0,0,,0,23,23,64,1,BRIDE,C,m,m,./images/BRIDE.png,,,,,,,,,,,,,,,,,,,,,,,,,,,,,,,,,,
,,,,,,,,,,,,,,,,,5c8570c3bce73c00178c4dc6,50,2022-02-12_12h36.47.823,lexical_decision_task_DD_L6,2021.2.3,Win32,60.03121623,,,,,,,,,,,0.695,1,,,,,,,,,,,,,,z,1,0.695,,,,,,,,0.073148177,-0.391666693,0,0,0,,0,24,24,147,1,ZOLES,C,z,z,./images/ZOLES.png,,,,,,,,,,,,,,,,,,,,,,,,,,,,,,,,,,
,,,,,,,,,,,,,,,,,5c8570c3bce73c00178c4dc6,50,2022-02-12_12h36.47.823,lexical_decision_task_DD_L6,2021.2.3,Win32,60.03121623,,,,,,,,,,,0.5887,1,,,,,,,,,,,,,,m,1,0.5887,,,,,,,,0.073148177,-0.391666693,0,0,0,,0,25,25,33,1,SAUNA,LB,m,m,./images/SAUNALB.png,,,,,,,,,,,,,,,,,,,,,,,,,,,,,,,,,,
,,,,,,,,,,,,,,,,,5c8570c3bce73c00178c4dc6,50,2022-02-12_12h36.47.823,lexical_decision_task_DD_L6,2021.2.3,Win32,60.03121623,,,,,,,,,,,0.3422,1,,,,,,,,,,,,,,m,1,0.3422,,,,,,,,0.073148177,-0.391666693,0,0,0,,0,26,26,47,1,LAGOON,HB,m,m,./images/LAGOONHB.png,,,,,,,,,,,,,,,,,,,,,,,,,,,,,,,,,,
,,,,,,,,,,,,,,,,,5c8570c3bce73c00178c4dc6,50,2022-02-12_12h36.47.823,lexical_decision_task_DD_L6,2021.2.3,Win32,60.03121623,,,,,,,,,,,0.6066,1,,,,,,,,,,,,,,z,1,0.6066,,,,,,,,0.073148177,-0.391666693,0,0,0,,0,27,27,132,1,SCIFF,C,z,z,./images/SCIFF.png,,,,,,,,,,,,,,,,,,,,,,,,,,,,,,,,,,
,,,,,,,,,,,,,,,,,5c8570c3bce73c00178c4dc6,50,2022-02-12_12h36.47.823,lexical_decision_task_DD_L6,2021.2.3,Win32,60.03121623,,,,,,,,,,,0.4824,0,,,,,,,,,,,,,,m,0,0.4824,,,,,,,,0.073148177,-0.391666693,0,0,0,,0,28,28,128,1,GRIFT,LB,z,z,./images/GRIFTLB.png,,,,,,,,,,,,,,,,,,,,,,,,,,,,,,,,,,
,,,,,,,,,,,,,,,,,5c8570c3bce73c00178c4dc6,50,2022-02-12_12h36.47.823,lexical_decision_task_DD_L6,2021.2.3,Win32,60.03121623,,,,,,,,,,,0.4606,1,,,,,,,,,,,,,,m,1,0.4606,,,,,,,,0.073148177,-0.391666693,0,0,0,,0,29,29,38,1,ENGINE,HB,m,m,./images/ENGINEHB.png,,,,,,,,,,,,,,,,,,,,,,,,,,,,,,,,,,
,,,,,,,,,,,,,,,,,5c8570c3bce73c00178c4dc6,50,2022-02-12_12h36.47.823,lexical_decision_task_DD_L6,2021.2.3,Win32,60.03121623,,,,,,,,,,,0.6913,1,,,,,,,,,,,,,,z,1,0.6913,,,,,,,,0.073148177,-0.391666693,0,0,0,,0,30,30,149,1,VEASE,LB,z,z,./images/VEASELB.png,,,,,,,,,,,,,,,,,,,,,,,,,,,,,,,,,,
,,,,,,,,,,,,,,,,,5c8570c3bce73c00178c4dc6,50,2022-02-12_12h36.47.823,lexical_decision_task_DD_L6,2021.2.3,Win32,60.03121623,,,,,,,,,,,2.9066,1,,,,,,,,,,,,,,z,1,2.9066,,,,,,,,0.073148177,-0.391666693,0,0,0,,0,31,31,130,1,CRILL,HB,z,z,./images/CRILLHB.png,,,,,,,,,,,,,,,,,,,,,,,,,,,,,,,,,,
,,,,,,,,,,,,,,,,,5c8570c3bce73c00178c4dc6,50,2022-02-12_12h36.47.823,lexical_decision_task_DD_L6,2021.2.3,Win32,60.03121623,,,,,,,,,,,1.3871,1,,,,,,,,,,,,,,m,1,1.3871,,,,,,,,0.073148177,-0.391666693,0,0,0,,0,32,32,17,1,PARADE,HB,m,m,./images/PARADEHB.png,,,,,,,,,,,,,,,,,,,,,,,,,,,,,,,,,,
,,,,,,,,,,,,,,,,,5c8570c3bce73c00178c4dc6,50,2022-02-12_12h36.47.823,lexical_decision_task_DD_L6,2021.2.3,Win32,60.03121623,,,,,,,,,,,0.6827,1,,,,,,,,,,,,,,z,1,0.6827,,,,,,,,0.073148177,-0.391666693,0,0,0,,0,33,33,105,1,MOKER,C,z,z,./images/MOKER.png,,,,,,,,,,,,,,,,,,,,,,,,,,,,,,,,,,
,,,,,,,,,,,,,,,,,5c8570c3bce73c00178c4dc6,50,2022-02-12_12h36.47.823,lexical_decision_task_DD_L6,2021.2.3,Win32,60.03121623,,,,,,,,,,,0.8066,1,,,,,,,,,,,,,,z,1,0.8066,,,,,,,,0.073148177,-0.391666693,0,0,0,,0,34,34,84,1,HAXES,C,z,z,./images/HAXES.png,,,,,,,,,,,,,,,,,,,,,,,,,,,,,,,,,,
,,,,,,,,,,,,,,,,,5c8570c3bce73c00178c4dc6,50,2022-02-12_12h36.47.823,lexical_decision_task_DD_L6,2021.2.3,Win32,60.03121623,,,,,,,,,,,0.9397,1,,,,,,,,,,,,,,z,1,0.9397,,,,,,,,0.073148177,-0.391666693,0,0,0,,0,35,35,112,1,MYING,HB,z,z,./images/MYINGHB.png,,,,,,,,,,,,,,,,,,,,,,,,,,,,,,,,,,
,,,,,,,,,,,,,,,,,5c8570c3bce73c00178c4dc6,50,2022-02-12_12h36.47.823,lexical_decision_task_DD_L6,2021.2.3,Win32,60.03121623,,,,,,,,,,,1.7905,1,,,,,,,,,,,,,,z,1,1.7905,,,,,,,,0.073148177,-0.391666693,0,0,0,,0,36,36,94,1,BLANS,HB,z,z,./images/BLANSHB.png,,,,,,,,,,,,,,,,,,,,,,,,,,,,,,,,,,
,,,,,,,,,,,,,,,,,5c8570c3bce73c00178c4dc6,50,2022-02-12_12h36.47.823,lexical_decision_task_DD_L6,2021.2.3,Win32,60.03121623,,,,,,,,,,,0.8396,1,,,,,,,,,,,,,,z,1,0.8396,,,,,,,,0.073148177,-0.391666693,0,0,0,,0,37,37,158,1,EGECT,LB,z,z,./images/EGECTLB.png,,,,,,,,,,,,,,,,,,,,,,,,,,,,,,,,,,
,,,,,,,,,,,,,,,,,5c8570c3bce73c00178c4dc6,50,2022-02-12_12h36.47.823,lexical_decision_task_DD_L6,2021.2.3,Win32,60.03121623,,,,,,,,,,,0.7483,1,,,,,,,,,,,,,,z,1,0.7483,,,,,,,,0.073148177,-0.391666693,0,0,0,,0,38,38,98,1,BAMPS,LB,z,z,./images/BAMPSLB.png,,,,,,,,,,,,,,,,,,,,,,,,,,,,,,,,,,
,,,,,,,,,,,,,,,,,5c8570c3bce73c00178c4dc6,50,2022-02-12_12h36.47.823,lexical_decision_task_DD_L6,2021.2.3,Win32,60.03121623,,,,,,,,,,,0.6137,1,,,,,,,,,,,,,,z,1,0.6137,,,,,,,,0.073148177,-0.391666693,0,0,0,,0,39,39,144,1,NAIRY,C,z,z,./images/NAIRY.png,,,,,,,,,,,,,,,,,,,,,,,,,,,,,,,,,,
,,,,,,,,,,,,,,,,,5c8570c3bce73c00178c4dc6,50,2022-02-12_12h36.47.823,lexical_decision_task_DD_L6,2021.2.3,Win32,60.03121623,,,,,,,,,,,0.8316,1,,,,,,,,,,,,,,z,1,0.8316,,,,,,,,0.073148177,-0.391666693,0,0,0,,0,40,40,159,1,CUDDY,C,z,z,./images/CUDDY.png,,,,,,,,,,,,,,,,,,,,,,,,,,,,,,,,,,
,,,,,,,,,,,,,,,,,5c8570c3bce73c00178c4dc6,50,2022-02-12_12h36.47.823,lexical_decision_task_DD_L6,2021.2.3,Win32,60.03121623,,,,,,,,,,,0.7146,1,,,,,,,,,,,,,,z,1,0.7146,,,,,,,,0.064814843,-0.384259286,1,0,0,,0,41,41,117,1,STEEG,C,z,z,./images/STEEG.png,break_done_button,,,,,,,,,,,,,,,,,,,,,,,,,,,,,,,,,
,,,,,,,,,,,,,,,,,5c8570c3bce73c00178c4dc6,50,2022-02-12_12h36.47.823,lexical_decision_task_DD_L6,2021.2.3,Win32,60.03121623,,,,,,,,,,,0.9979,1,,,,,,,,,,,,,,m,1,0.9979,,,,,,,,0.064814843,-0.384259286,0,0,0,,0,42,42,81,1,DRILL,LB,m,m,./images/DRILLLB.png,,,,,,,,,,,,,,,,,,,,,,,,,,,,,,,,,,
,,,,,,,,,,,,,,,,,5c8570c3bce73c00178c4dc6,50,2022-02-12_12h36.47.823,lexical_decision_task_DD_L6,2021.2.3,Win32,60.03121623,,,,,,,,,,,0.4889,1,,,,,,,,,,,,,,m,1,0.4889,,,,,,,,0.064814843,-0.384259286,0,0,0,,0,43,43,7,1,WAGON,C,m,m,./images/WAGON.png,,,,,,,,,,,,,,,,,,,,,,,,,,,,,,,,,,
,,,,,,,,,,,,,,,,,5c8570c3bce73c00178c4dc6,50,2022-02-12_12h36.47.823,lexical_decision_task_DD_L6,2021.2.3,Win32,60.03121623,,,,,,,,,,,0.7823,1,,,,,,,,,,,,,,z,1,0.7823,,,,,,,,0.064814843,-0.384259286,0,0,0,,0,44,44,165,1,TROWN,C,z,z,./images/TROWN.png,,,,,,,,,,,,,,,,,,,,,,,,,,,,,,,,,,
,,,,,,,,,,,,,,,,,5c8570c3bce73c00178c4dc6,50,2022-02-12_12h36.47.823,lexical_decision_task_DD_L6,2021.2.3,Win32,60.03121623,,,,,,,,,,,1.4731,0,,,,,,,,,,,,,,m,0,1.4731,,,,,,,,0.064814843,-0.384259286,0,0,0,,0,45,45,163,1,GAMBA,HB,z,z,./images/GAMBAHB.png,,,,,,,,,,,,,,,,,,,,,,,,,,,,,,,,,,
,,,,,,,,,,,,,,,,,5c8570c3bce73c00178c4dc6,50,2022-02-12_12h36.47.823,lexical_decision_task_DD_L6,2021.2.3,Win32,60.03121623,,,,,,,,,,,0.5619,1,,,,,,,,,,,,,,m,1,0.5619,,,,,,,,0.064814843,-0.384259286,0,0,0,,0,46,46,66,1,STATUE,LB,m,m,./images/STATUELB.png,,,,,,,,,,,,,,,,,,,,,,,,,,,,,,,,,,
,,,,,,,,,,,,,,,,,5c8570c3bce73c00178c4dc6,50,2022-02-12_12h36.47.823,lexical_decision_task_DD_L6,2021.2.3,Win32,60.03121623,,,,,,,,,,,0.7235,1,,,,,,,,,,,,,,m,1,0.7235,,,,,,,,0.064814843,-0.384259286,0,0,0,,0,47,47,6,1,STAIN,LB,m,m,./images/STAINLB.png,,,,,,,,,,,,,,,,,,,,,,,,,,,,,,,,,,
,,,,,,,,,,,,,,,,,5c8570c3bce73c00178c4dc6,50,2022-02-12_12h36.47.823,lexical_decision_task_DD_L6,2021.2.3,Win32,60.03121623,,,,,,,,,,,0.6466,1,,,,,,,,,,,,,,m,1,0.6466,,,,,,,,0.064814843,-0.384259286,0,0,0,,0,48,48,76,1,MIDGET,C,m,m,./images/MIDGET.png,,,,,,,,,,,,,,,,,,,,,,,,,,,,,,,,,,
,,,,,,,,,,,,,,,,,5c8570c3bce73c00178c4dc6,50,2022-02-12_12h36.47.823,lexical_decision_task_DD_L6,2021.2.3,Win32,60.03121623,,,,,,,,,,,0.4615,1,,,,,,,,,,,,,,m,1,0.4615,,,,,,,,0.064814843,-0.384259286,0,0,0,,0,49,49,39,1,CANDY,LB,m,m,./images/CANDYLB.png,,,,,,,,,,,,,,,,,,,,,,,,,,,,,,,,,,
,,,,,,,,,,,,,,,,,5c8570c3bce73c00178c4dc6,50,2022-02-12_12h36.47.823,lexical_decision_task_DD_L6,2021.2.3,Win32,60.03121623,,,,,,,,,,,0.6743,1,,,,,,,,,,,,,,m,1,0.6743,,,,,,,,0.064814843,-0.384259286,0,0,0,,0,50,50,56,1,HEATER,HB,m,m,./images/HEATERHB.png,,,,,,,,,,,,,,,,,,,,,,,,,,,,,,,,,,
,,,,,,,,,,,,,,,,,5c8570c3bce73c00178c4dc6,50,2022-02-12_12h36.47.823,lexical_decision_task_DD_L6,2021.2.3,Win32,60.03121623,,,,,,,,,,,1.1573,0,,,,,,,,,,,,,,m,0,1.1573,,,,,,,,0.064814843,-0.384259286,0,0,0,,0,51,51,91,1,SHENS,HB,z,z,./images/SHENSHB.png,,,,,,,,,,,,,,,,,,,,,,,,,,,,,,,,,,
,,,,,,,,,,,,,,,,,5c8570c3bce73c00178c4dc6,50,2022-02-12_12h36.47.823,lexical_decision_task_DD_L6,2021.2.3,Win32,60.03121623,,,,,,,,,,,0.8467,1,,,,,,,,,,,,,,z,1,0.8467,,,,,,,,0.064814843,-0.384259286,0,0,0,,0,52,52,152,1,FRAIN,LB,z,z,./images/FRAINLB.png,,,,,,,,,,,,,,,,,,,,,,,,,,,,,,,,,,
,,,,,,,,,,,,,,,,,5c8570c3bce73c00178c4dc6,50,2022-02-12_12h36.47.823,lexical_decision_task_DD_L6,2021.2.3,Win32,60.03121623,,,,,,,,,,,1.4748,1,,,,,,,,,,,,,,z,1,1.4748,,,,,,,,0.064814843,-0.384259286,0,0,0,,0,53,53,115,1,MAWNS,HB,z,z,./images/MAWNSHB.png,,,,,,,,,,,,,,,,,,,,,,,,,,,,,,,,,,
,,,,,,,,,,,,,,,,,5c8570c3bce73c00178c4dc6,50,2022-02-12_12h36.47.823,lexical_decision_task_DD_L6,2021.2.3,Win32,60.03121623,,,,,,,,,,,0.8486,1,,,,,,,,,,,,,,z,1,0.8486,,,,,,,,0.064814843,-0.384259286,0,0,0,,0,54,54,131,1,NACES,LB,z,z,./images/NACESLB.png,,,,,,,,,,,,,,,,,,,,,,,,,,,,,,,,,,
,,,,,,,,,,,,,,,,,5c8570c3bce73c00178c4dc6,50,2022-02-12_12h36.47.823,lexical_decision_task_DD_L6,2021.2.3,Win32,60.03121623,,,,,,,,,,,1.2649,1,,,,,,,,,,,,,,z,1,1.2649,,,,,,,,0.064814843,-0.384259286,0,0,0,,0,55,55,124,1,TUNCH,HB,z,z,./images/TUNCHHB.png,,,,,,,,,,,,,,,,,,,,,,,,,,,,,,,,,,
,,,,,,,,,,,,,,,,,5c8570c3bce73c00178c4dc6,50,2022-02-12_12h36.47.823,lexical_decision_task_DD_L6,2021.2.3,Win32,60.03121623,,,,,,,,,,,0.7084,1,,,,,,,,,,,,,,z,1,0.7084,,,,,,,,0.064814843,-0.384259286,0,0,0,,0,56,56,167,1,ZONET,LB,z,z,./images/ZONETLB.png,,,,,,,,,,,,,,,,,,,,,,,,,,,,,,,,,,
,,,,,,,,,,,,,,,,,5c8570c3bce73c00178c4dc6,50,2022-02-12_12h36.47.823,lexical_decision_task_DD_L6,2021.2.3,Win32,60.03121623,,,,,,,,,,,0.7443,1,,,,,,,,,,,,,,z,1,0.7443,,,,,,,,0.064814843,-0.384259286,0,0,0,,0,57,57,143,1,MONGS,LB,z,z,./images/MONGSLB.png,,,,,,,,,,,,,,,,,,,,,,,,,,,,,,,,,,
,,,,,,,,,,,,,,,,,5c8570c3bce73c00178c4dc6,50,2022-02-12_12h36.47.823,lexical_decision_task_DD_L6,2021.2.3,Win32,60.03121623,,,,,,,,,,,1.0895,1,,,,,,,,,,,,,,m,1,1.0895,,,,,,,,0.064814843,-0.384259286,0,0,0,,0,58,58,62,1,MAMMAL,HB,m,m,./images/MAMMALHB.png,,,,,,,,,,,,,,,,,,,,,,,,,,,,,,,,,,
,,,,,,,,,,,,,,,,,5c8570c3bce73c00178c4dc6,50,2022-02-12_12h36.47.823,lexical_decision_task_DD_L6,2021.2.3,Win32,60.03121623,,,,,,,,,,,0.7301,1,,,,,,,,,,,,,,z,1,0.7301,,,,,,,,0.064814843,-0.384259286,0,0,0,,0,59,59,119,1,PAFER,LB,z,z,./images/PAFERLB.png,,,,,,,,,,,,,,,,,,,,,,,,,,,,,,,,,,
,,,,,,,,,,,,,,,,,5c8570c3bce73c00178c4dc6,50,2022-02-12_12h36.47.823,lexical_decision_task_DD_L6,2021.2.3,Win32,60.03121623,,,,,,,,,,,0.648,1,,,,,,,,,,,,,,z,1,0.648,,,,,,,,0.064814843,-0.384259286,0,0,0,,0,60,60,93,1,SMONE,C,z,z,./images/SMONE.png,,,,,,,,,,,,,,,,,,,,,,,,,,,,,,,,,,
,,,,,,,,,,,,,,,,,5c8570c3bce73c00178c4dc6,50,2022-02-12_12h36.47.823,lexical_decision_task_DD_L6,2021.2.3,Win32,60.03121623,,,,,,,,,,,0.62,1,,,,,,,,,,,,,,z,1,0.62,,,,,,,,0.064814843,-0.384259286,0,0,0,,0,61,61,90,1,NEAST,C,z,z,./images/NEAST.png,,,,,,,,,,,,,,,,,,,,,,,,,,,,,,,,,,
,,,,,,,,,,,,,,,,,5c8570c3bce73c00178c4dc6,50,2022-02-12_12h36.47.823,lexical_decision_task_DD_L6,2021.2.3,Win32,60.03121623,,,,,,,,,,,0.5723,1,,,,,,,,,,,,,,z,1,0.5723,,,,,,,,0.064814843,-0.384259286,0,0,0,,0,62,62,111,1,HOSSE,C,z,z,./images/HOSSE.png,,,,,,,,,,,,,,,,,,,,,,,,,,,,,,,,,,
,,,,,,,,,,,,,,,,,5c8570c3bce73c00178c4dc6,50,2022-02-12_12h36.47.823,lexical_decision_task_DD_L6,2021.2.3,Win32,60.03121623,,,,,,,,,,,0.5009,1,,,,,,,,,,,,,,m,1,0.5009,,,,,,,,0.064814843,-0.384259286,0,0,0,,0,63,63,79,1,RULER,C,m,m,./images/RULER.png,,,,,,,,,,,,,,,,,,,,,,,,,,,,,,,,,,
,,,,,,,,,,,,,,,,,5c8570c3bce73c00178c4dc6,50,2022-02-12_12h36.47.823,lexical_decision_task_DD_L6,2021.2.3,Win32,60.03121623,,,,,,,,,,,0.8197,1,,,,,,,,,,,,,,z,1,0.8197,,,,,,,,0.064814843,-0.384259286,0,0,0,,0,64,64,153,1,CLUPS,C,z,z,./images/CLUPS.png,,,,,,,,,,,,,,,,,,,,,,,,,,,,,,,,,,
,,,,,,,,,,,,,,,,,5c8570c3bce73c00178c4dc6,50,2022-02-12_12h36.47.823,lexical_decision_task_DD_L6,2021.2.3,Win32,60.03121623,,,,,,,,,,,0.8652,1,,,,,,,,,,,,,,m,1,0.8652,,,,,,,,0.064814843,-0.384259286,0,0,0,,0,65,65,32,1,HOCKEY,HB,m,m,./images/HOCKEYHB.png,,,,,,,,,,,,,,,,,,,,,,,,,,,,,,,,,,
,,,,,,,,,,,,,,,,,5c8570c3bce73c00178c4dc6,50,2022-02-12_12h36.47.823,lexical_decision_task_DD_L6,2021.2.3,Win32,60.03121623,,,,,,,,,,,1.1171,1,,,,,,,,,,,,,,m,1,1.1171,,,,,,,,0.064814843,-0.384259286,0,0,0,,0,66,66,35,1,LLAMA,HB,m,m,./images/LLAMAHB.png,,,,,,,,,,,,,,,,,,,,,,,,,,,,,,,,,,
,,,,,,,,,,,,,,,,,5c8570c3bce73c00178c4dc6,50,2022-02-12_12h36.47.823,lexical_decision_task_DD_L6,2021.2.3,Win32,60.03121623,,,,,,,,,,,0.8375,1,,,,,,,,,,,,,,z,1,0.8375,,,,,,,,0.064814843,-0.384259286,0,0,0,,0,67,67,139,1,BLEAR,HB,z,z,./images/BLEARHB.png,,,,,,,,,,,,,,,,,,,,,,,,,,,,,,,,,,
,,,,,,,,,,,,,,,,,5c8570c3bce73c00178c4dc6,50,2022-02-12_12h36.47.823,lexical_decision_task_DD_L6,2021.2.3,Win32,60.03121623,,,,,,,,,,,0.6361,1,,,,,,,,,,,,,,z,1,0.6361,,,,,,,,0.064814843,-0.384259286,0,0,0,,0,68,68,87,1,TRING,C,z,z,./images/TRING.png,,,,,,,,,,,,,,,,,,,,,,,,,,,,,,,,,,
,,,,,,,,,,,,,,,,,5c8570c3bce73c00178c4dc6,50,2022-02-12_12h36.47.823,lexical_decision_task_DD_L6,2021.2.3,Win32,60.03121623,,,,,,,,,,,0.6343,1,,,,,,,,,,,,,,m,1,0.6343,,,,,,,,0.064814843,-0.384259286,0,0,0,,0,69,69,31,1,STEAK,C,m,m,./images/STEAK.png,,,,,,,,,,,,,,,,,,,,,,,,,,,,,,,,,,
,,,,,,,,,,,,,,,,,5c8570c3bce73c00178c4dc6,50,2022-02-12_12h36.47.823,lexical_decision_task_DD_L6,2021.2.3,Win32,60.03121623,,,,,,,,,,,0.887,0,,,,,,,,,,,,,,m,0,0.887,,,,,,,,0.064814843,-0.384259286,0,0,0,,0,70,70,120,1,RINED,C,z,z,./images/RINED.png,,,,,,,,,,,,,,,,,,,,,,,,,,,,,,,,,,
,,,,,,,,,,,,,,,,,5c8570c3bce73c00178c4dc6,50,2022-02-12_12h36.47.823,lexical_decision_task_DD_L6,2021.2.3,Win32,60.03121623,,,,,,,,,,,0.7254,1,,,,,,,,,,,,,,m,1,0.7254,,,,,,,,0.064814843,-0.384259286,0,0,0,,0,71,71,20,1,GRANNY,HB,m,m,./images/GRANNYHB.png,,,,,,,,,,,,,,,,,,,,,,,,,,,,,,,,,,
,,,,,,,,,,,,,,,,,5c8570c3bce73c00178c4dc6,50,2022-02-12_12h36.47.823,lexical_decision_task_DD_L6,2021.2.3,Win32,60.03121623,,,,,,,,,,,0.653,0,,,,,,,,,,,,,,z,0,0.653,,,,,,,,0.064814843,-0.384259286,0,0,0,,0,72,72,51,1,SAUCE,LB,m,m,./images/SAUCELB.png,,,,,,,,,,,,,,,,,,,,,,,,,,,,,,,,,,
,,,,,,,,,,,,,,,,,5c8570c3bce73c00178c4dc6,50,2022-02-12_12h36.47.823,lexical_decision_task_DD_L6,2021.2.3,Win32,60.03121623,,,,,,,,,,,2.0138,1,,,,,,,,,,,,,,z,1,2.0138,,,,,,,,0.064814843,-0.384259286,0,0,0,,0,73,73,118,1,BAVEL,HB,z,z,./images/BAVELHB.png,,,,,,,,,,,,,,,,,,,,,,,,,,,,,,,,,,
,,,,,,,,,,,,,,,,,5c8570c3bce73c00178c4dc6,50,2022-02-12_12h36.47.823,lexical_decision_task_DD_L6,2021.2.3,Win32,60.03121623,,,,,,,,,,,0.667,1,,,,,,,,,,,,,,z,1,0.667,,,,,,,,0.064814843,-0.384259286,0,0,0,,0,74,74,95,1,HANTY,LB,z,z,./images/HANTYLB.png,,,,,,,,,,,,,,,,,,,,,,,,,,,,,,,,,,
,,,,,,,,,,,,,,,,,5c8570c3bce73c00178c4dc6,50,2022-02-12_12h36.47.823,lexical_decision_task_DD_L6,2021.2.3,Win32,60.03121623,,,,,,,,,,,1.6528,0,,,,,,,,,,,,,,m,0,1.6528,,,,,,,,0.064814843,-0.384259286,0,0,0,,0,75,75,136,1,WERVE,HB,z,z,./images/WERVEHB.png,,,,,,,,,,,,,,,,,,,,,,,,,,,,,,,,,,
,,,,,,,,,,,,,,,,,5c8570c3bce73c00178c4dc6,50,2022-02-12_12h36.47.823,lexical_decision_task_DD_L6,2021.2.3,Win32,60.03121623,,,,,,,,,,,0.9187,1,,,,,,,,,,,,,,m,1,0.9187,,,,,,,,0.064814843,-0.384259286,0,0,0,,0,76,76,50,1,PILOT,HB,m,m,./images/PILOTHB.png,,,,,,,,,,,,,,,,,,,,,,,,,,,,,,,,,,
,,,,,,,,,,,,,,,,,5c8570c3bce73c00178c4dc6,50,2022-02-12_12h36.47.823,lexical_decision_task_DD_L6,2021.2.3,Win32,60.03121623,,,,,,,,,,,0.7618,1,,,,,,,,,,,,,,m,1,0.7618,,,,,,,,0.064814843,-0.384259286,0,0,0,,0,77,77,14,1,FENCE,HB,m,m,./images/FENCEHB.png,,,,,,,,,,,,,,,,,,,,,,,,,,,,,,,,,,
,,,,,,,,,,,,,,,,,5c8570c3bce73c00178c4dc6,50,2022-02-12_12h36.47.823,lexical_decision_task_DD_L6,2021.2.3,Win32,60.03121623,,,,,,,,,,,1.0665,1,,,,,,,,,,,,,,m,1,1.0665,,,,,,,,0.064814843,-0.384259286,0,0,0,,0,78,78,41,1,STREAM,HB,m,m,./images/STREAMHB.png,,,,,,,,,,,,,,,,,,,,,,,,,,,,,,,,,,
,,,,,,,,,,,,,,,,,5c8570c3bce73c00178c4dc6,50,2022-02-12_12h36.47.823,lexical_decision_task_DD_L6,2021.2.3,Win32,60.03121623,,,,,,,,,,,1.2036,1,,,,,,,,,,,,,,z,1,1.2036,,,,,,,,0.064814843,-0.384259286,0,0,0,,0,79,79,157,1,INLER,HB,z,z,./images/INLERHB.png,,,,,,,,,,,,,,,,,,,,,,,,,,,,,,,,,,
,,,,,,,,,,,,,,,,,5c8570c3bce73c00178c4dc6,50,2022-02-12_12h36.47.823,lexical_decision_task_DD_L6,2021.2.3,Win32,60.03121623,,,,,,,,,,,1.0375,0,,,,,,,,,,,,,,m,0,1.0375,,,,,,,,0.064814843,-0.384259286,0,0,0,,0,80,80,88,1,GLUSH,HB,z,z,./images/GLUSHHB.png,,,,,,,,,,,,,,,,,,,,,,,,,,,,,,,,,,
,,,,,,,,,,,,,,,,,5c8570c3bce73c00178c4dc6,50,2022-02-12_12h36.47.823,lexical_decision_task_DD_L6,2021.2.3,Win32,60.03121623,,,,,,,,,,,1.785,1,,,,,,,,,,,,,,z,1,1.785,,,,,,,,0.064814843,-0.384259286,0,0,0,,0,81,81,145,1,LAMEL,HB,z,z,./images/LAMELHB.png,,,,,,,,,,,,,,,,,,,,,,,,,,,,,,,,,,
,,,,,,,,,,,,,,,,,5c8570c3bce73c00178c4dc6,50,2022-02-12_12h36.47.823,lexical_decision_task_DD_L6,2021.2.3,Win32,60.03121623,,,,,,,,,,,0.6756,1,,,,,,,,,,,,,,m,1,0.6756,,,,,,,,0.064814843,-0.384259286,0,0,0,,0,82,82,23,1,CLOTH,HB,m,m,./images/CLOTHHB.png,,,,,,,,,,,,,,,,,,,,,,,,,,,,,,,,,,
,,,,,,,,,,,,,,,,,5c8570c3bce73c00178c4dc6,50,2022-02-12_12h36.47.823,lexical_decision_task_DD_L6,2021.2.3,Win32,60.03121623,,,,,,,,,,,0.4894,1,,,,,,,,,,,,,,m,1,0.4894,,,,,,,,0.064814843,-0.384259286,1,0,0,,0,83,83,3,1,CRATER,LB,m,m,./images/CRATERLB.png,break_done_button,,,,,,,,,,,,,,,,,,,,,,,,,,,,,,,,,
,,,,,,,,,,,,,,,,,5c8570c3bce73c00178c4dc6,50,2022-02-12_12h36.47.823,lexical_decision_task_DD_L6,2021.2.3,Win32,60.03121623,,,,,,,,,,,0.9317,1,,,,,,,,,,,,,,z,1,0.9317,,,,,,,,0.064814843,-0.384259286,0,0,0,,0,84,84,89,1,DRIEK,LB,z,z,./images/DRIEKLB.png,,,,,,,,,,,,,,,,,,,,,,,,,,,,,,,,,,
,,,,,,,,,,,,,,,,,5c8570c3bce73c00178c4dc6,50,2022-02-12_12h36.47.823,lexical_decision_task_DD_L6,2021.2.3,Win32,60.03121623,,,,,,,,,,,0.6555,1,,,,,,,,,,,,,,z,1,0.6555,,,,,,,,0.064814843,-0.384259286,0,0,0,,0,85,85,86,1,AIFED,LB,z,z,./images/AIFEDLB.png,,,,,,,,,,,,,,,,,,,,,,,,,,,,,,,,,,
,,,,,,,,,,,,,,,,,5c8570c3bce73c00178c4dc6,50,2022-02-12_12h36.47.823,lexical_decision_task_DD_L6,2021.2.3,Win32,60.03121623,,,,,,,,,,,0.7336,1,,,,,,,,,,,,,,m,1,0.7336,,,,,,,,0.064814843,-0.384259286,0,0,0,,0,86,86,53,1,POSTER,HB,m,m,./images/POSTERHB.png,,,,,,,,,,,,,,,,,,,,,,,,,,,,,,,,,,
,,,,,,,,,,,,,,,,,5c8570c3bce73c00178c4dc6,50,2022-02-12_12h36.47.823,lexical_decision_task_DD_L6,2021.2.3,Win32,60.03121623,,,,,,,,,,,1.0017,1,,,,,,,,,,,,,,z,1,1.0017,,,,,,,,0.064814843,-0.384259286,0,0,0,,0,87,87,97,1,CHIDS,HB,z,z,./images/CHIDSHB.png,,,,,,,,,,,,,,,,,,,,,,,,,,,,,,,,,,
,,,,,,,,,,,,,,,,,5c8570c3bce73c00178c4dc6,50,2022-02-12_12h36.47.823,lexical_decision_task_DD_L6,2021.2.3,Win32,60.03121623,,,,,,,,,,,0.7175,1,,,,,,,,,,,,,,z,1,0.7175,,,,,,,,0.064814843,-0.384259286,0,0,0,,0,88,88,156,1,HIXES,C,z,z,./images/HIXES.png,,,,,,,,,,,,,,,,,,,,,,,,,,,,,,,,,,
,,,,,,,,,,,,,,,,,5c8570c3bce73c00178c4dc6,50,2022-02-12_12h36.47.823,lexical_decision_task_DD_L6,2021.2.3,Win32,60.03121623,,,,,,,,,,,0.5841,1,,,,,,,,,,,,,,m,1,0.5841,,,,,,,,0.064814843,-0.384259286,0,0,0,,0,89,89,1,1,TOWEL,C,m,m,./images/TOWEL.png,,,,,,,,,,,,,,,,,,,,,,,,,,,,,,,,,,
,,,,,,,,,,,,,,,,,5c8570c3bce73c00178c4dc6,50,2022-02-12_12h36.47.823,lexical_decision_task_DD_L6,2021.2.3,Win32,60.03121623,,,,,,,,,,,0.7003,0,,,,,,,,,,,,,,z,0,0.7003,,,,,,,,0.064814843,-0.384259286,0,0,0,,0,90,90,68,1,VALLEY,HB,m,m,./images/VALLEYHB.png,,,,,,,,,,,,,,,,,,,,,,,,,,,,,,,,,,
,,,,,,,,,,,,,,,,,5c8570c3bce73c00178c4dc6,50,2022-02-12_12h36.47.823,lexical_decision_task_DD_L6,2021.2.3,Win32,60.03121623,,,,,,,,,,,1.1203,1,,,,,,,,,,,,,,z,1,1.1203,,,,,,,,0.064814843,-0.384259286,0,0,0,,0,91,91,162,1,LEICH,C,z,z,./images/LEICH.png,,,,,,,,,,,,,,,,,,,,,,,,,,,,,,,,,,
,,,,,,,,,,,,,,,,,5c8570c3bce73c00178c4dc6,50,2022-02-12_12h36.47.823,lexical_decision_task_DD_L6,2021.2.3,Win32,60.03121623,,,,,,,,,,,0.6261,1,,,,,,,,,,,,,,z,1,0.6261,,,,,,,,0.064814843,-0.384259286,0,0,0,,0,92,92,101,1,GLEET,LB,z,z,./images/GLEETLB.png,,,,,,,,,,,,,,,,,,,,,,,,,,,,,,,,,,
,,,,,,,,,,,,,,,,,5c8570c3bce73c00178c4dc6,50,2022-02-12_12h36.47.823,lexical_decision_task_DD_L6,2021.2.3,Win32,60.03121623,,,,,,,,,,,0.5267,1,,,,,,,,,,,,,,m,1,0.5267,,,,,,,,0.064814843,-0.384259286,0,0,0,,0,93,93,61,1,ARTIST,C,m,m,./images/ARTIST.png,,,,,,,,,,,,,,,,,,,,,,,,,,,,,,,,,,
,,,,,,,,,,,,,,,,,5c8570c3bce73c00178c4dc6,50,2022-02-12_12h36.47.823,lexical_decision_task_DD_L6,2021.2.3,Win32,60.03121623,,,,,,,,,,,1.187,1,,,,,,,,,,,,,,z,1,1.187,,,,,,,,0.064814843,-0.384259286,0,0,0,,0,94,94,154,1,THINT,HB,z,z,./images/THINTHB.png,,,,,,,,,,,,,,,,,,,,,,,,,,,,,,,,,,
,,,,,,,,,,,,,,,,,5c8570c3bce73c00178c4dc6,50,2022-02-12_12h36.47.823,lexical_decision_task_DD_L6,2021.2.3,Win32,60.03121623,,,,,,,,,,,0.6177,1,,,,,,,,,,,,,,m,1,0.6177,,,,,,,,0.064814843,-0.384259286,0,0,0,,0,95,95,60,1,CURRY,LB,m,m,./images/CURRYLB.png,,,,,,,,,,,,,,,,,,,,,,,,,,,,,,,,,,
,,,,,,,,,,,,,,,,,5c8570c3bce73c00178c4dc6,50,2022-02-12_12h36.47.823,lexical_decision_task_DD_L6,2021.2.3,Win32,60.03121623,,,,,,,,,,,0.587,1,,,,,,,,,,,,,,z,1,0.587,,,,,,,,0.064814843,-0.384259286,0,0,0,,0,96,96,99,1,BACKY,C,z,z,./images/BACKY.png,,,,,,,,,,,,,,,,,,,,,,,,,,,,,,,,,,
,,,,,,,,,,,,,,,,,5c8570c3bce73c00178c4dc6,50,2022-02-12_12h36.47.823,lexical_decision_task_DD_L6,2021.2.3,Win32,60.03121623,,,,,,,,,,,1.1048,1,,,,,,,,,,,,,,z,1,1.1048,,,,,,,,0.064814843,-0.384259286,0,0,0,,0,97,97,140,1,DOVET,LB,z,z,./images/DOVETLB.png,,,,,,,,,,,,,,,,,,,,,,,,,,,,,,,,,,
,,,,,,,,,,,,,,,,,5c8570c3bce73c00178c4dc6,50,2022-02-12_12h36.47.823,lexical_decision_task_DD_L6,2021.2.3,Win32,60.03121623,,,,,,,,,,,0.6516,0,,,,,,,,,,,,,,m,0,0.6516,,,,,,,,0.064814843,-0.384259286,0,0,0,,0,98,98,114,1,RIKES,C,z,z,./images/RIKES.png,,,,,,,,,,,,,,,,,,,,,,,,,,,,,,,,,,
,,,,,,,,,,,,,,,,,5c8570c3bce73c00178c4dc6,50,2022-02-12_12h36.47.823,lexical_decision_task_DD_L6,2021.2.3,Win32,60.03121623,,,,,,,,,,,0.4565,1,,,,,,,,,,,,,,m,1,0.4565,,,,,,,,0.064814843,-0.384259286,0,0,0,,0,99,99,13,1,BUNNY,C,m,m,./images/BUNNY.png,,,,,,,,,,,,,,,,,,,,,,,,,,,,,,,,,,
,,,,,,,,,,,,,,,,,5c8570c3bce73c00178c4dc6,50,2022-02-12_12h36.47.823,lexical_decision_task_DD_L6,2021.2.3,Win32,60.03121623,,,,,,,,,,,0.6917,1,,,,,,,,,,,,,,m,1,0.6917,,,,,,,,0.064814843,-0.384259286,0,0,0,,0,100,100,44,1,BASKET,HB,m,m,./images/BASKETHB.png,,,,,,,,,,,,,,,,,,,,,,,,,,,,,,,,,,
,,,,,,,,,,,,,,,,,5c8570c3bce73c00178c4dc6,50,2022-02-12_12h36.47.823,lexical_decision_task_DD_L6,2021.2.3,Win32,60.03121623,,,,,,,,,,,0.6835,1,,,,,,,,,,,,,,z,1,0.6835,,,,,,,,0.064814843,-0.384259286,0,0,0,,0,101,101,155,1,CANGY,LB,z,z,./images/CANGYLB.png,,,,,,,,,,,,,,,,,,,,,,,,,,,,,,,,,,
,,,,,,,,,,,,,,,,,5c8570c3bce73c00178c4dc6,50,2022-02-12_12h36.47.823,lexical_decision_task_DD_L6,2021.2.3,Win32,60.03121623,,,,,,,,,,,0.6704,1,,,,,,,,,,,,,,m,1,0.6704,,,,,,,,0.064814843,-0.384259286,0,0,0,,0,102,102,29,1,PISTOL,HB,m,m,./images/PISTOLHB.png,,,,,,,,,,,,,,,,,,,,,,,,,,,,,,,,,,
,,,,,,,,,,,,,,,,,5c8570c3bce73c00178c4dc6,50,2022-02-12_12h36.47.823,lexical_decision_task_DD_L6,2021.2.3,Win32,60.03121623,,,,,,,,,,,1.4978,0,,,,,,,,,,,,,,m,0,1.4978,,,,,,,,0.064814843,-0.384259286,0,0,0,,0,103,103,127,1,NINDY,HB,z,z,./images/NINDYHB.png,,,,,,,,,,,,,,,,,,,,,,,,,,,,,,,,,,
,,,,,,,,,,,,,,,,,5c8570c3bce73c00178c4dc6,50,2022-02-12_12h36.47.823,lexical_decision_task_DD_L6,2021.2.3,Win32,60.03121623,,,,,,,,,,,0.6831,1,,,,,,,,,,,,,,z,1,0.6831,,,,,,,,0.064814843,-0.384259286,0,0,0,,0,104,104,138,1,PLICE,C,z,z,./images/PLICE.png,,,,,,,,,,,,,,,,,,,,,,,,,,,,,,,,,,
,,,,,,,,,,,,,,,,,5c8570c3bce73c00178c4dc6,50,2022-02-12_12h36.47.823,lexical_decision_task_DD_L6,2021.2.3,Win32,60.03121623,,,,,,,,,,,0.7891,1,,,,,,,,,,,,,,z,1,0.7891,,,,,,,,0.064814843,-0.384259286,0,0,0,,0,105,105,164,1,SGREW,LB,z,z,./images/SGREWLB.png,,,,,,,,,,,,,,,,,,,,,,,,,,,,,,,,,,
,,,,,,,,,,,,,,,,,5c8570c3bce73c00178c4dc6,50,2022-02-12_12h36.47.823,lexical_decision_task_DD_L6,2021.2.3,Win32,60.03121623,,,,,,,,,,,0.5216,1,,,,,,,,,,,,,,m,1,0.5216,,,,,,,,0.064814843,-0.384259286,0,0,0,,0,106,106,10,1,GARDEN,C,m,m,./images/GARDEN.png,,,,,,,,,,,,,,,,,,,,,,,,,,,,,,,,,,
,,,,,,,,,,,,,,,,,5c8570c3bce73c00178c4dc6,50,2022-02-12_12h36.47.823,lexical_decision_task_DD_L6,2021.2.3,Win32,60.03121623,,,,,,,,,,,0.834,1,,,,,,,,,,,,,,z,1,0.834,,,,,,,,0.064814843,-0.384259286,0,0,0,,0,107,107,107,1,FASKS,LB,z,z,./images/FASKSLB.png,,,,,,,,,,,,,,,,,,,,,,,,,,,,,,,,,,
,,,,,,,,,,,,,,,,,5c8570c3bce73c00178c4dc6,50,2022-02-12_12h36.47.823,lexical_decision_task_DD_L6,2021.2.3,Win32,60.03121623,,,,,,,,,,,0.668,1,,,,,,,,,,,,,,z,1,0.668,,,,,,,,0.064814843,-0.384259286,0,0,0,,0,108,108,141,1,PLEET,C,z,z,./images/PLEET.png,,,,,,,,,,,,,,,,,,,,,,,,,,,,,,,,,,
,,,,,,,,,,,,,,,,,5c8570c3bce73c00178c4dc6,50,2022-02-12_12h36.47.823,lexical_decision_task_DD_L6,2021.2.3,Win32,60.03121623,,,,,,,,,,,0.6256,1,,,,,,,,,,,,,,m,1,0.6256,,,,,,,,0.064814843,-0.384259286,0,0,0,,0,109,109,15,1,COLLAR,LB,m,m,./images/COLLARLB.png,,,,,,,,,,,,,,,,,,,,,,,,,,,,,,,,,,
,,,,,,,,,,,,,,,,,5c8570c3bce73c00178c4dc6,50,2022-02-12_12h36.47.823,lexical_decision_task_DD_L6,2021.2.3,Win32,60.03121623,,,,,,,,,,,0.4801,1,,,,,,,,,,,,,,m,1,0.4801,,,,,,,,0.064814843,-0.384259286,0,0,0,,0,110,110,22,1,CLOWN,C,m,m,./images/CLOWN.png,,,,,,,,,,,,,,,,,,,,,,,,,,,,,,,,,,
,,,,,,,,,,,,,,,,,5c8570c3bce73c00178c4dc6,50,2022-02-12_12h36.47.823,lexical_decision_task_DD_L6,2021.2.3,Win32,60.03121623,,,,,,,,,,,0.508,1,,,,,,,,,,,,,,m,1,0.508,,,,,,,,0.064814843,-0.384259286,0,0,0,,0,111,111,2,1,STOVE,HB,m,m,./images/STOVEHB.png,,,,,,,,,,,,,,,,,,,,,,,,,,,,,,,,,,
,,,,,,,,,,,,,,,,,5c8570c3bce73c00178c4dc6,50,2022-02-12_12h36.47.823,lexical_decision_task_DD_L6,2021.2.3,Win32,60.03121623,,,,,,,,,,,1.0004,0,,,,,,,,,,,,,,m,0,1.0004,,,,,,,,0.064814843,-0.384259286,0,0,0,,0,112,112,100,1,DRIBS,HB,z,z,./images/DRIBSHB.png,,,,,,,,,,,,,,,,,,,,,,,,,,,,,,,,,,
,,,,,,,,,,,,,,,,,5c8570c3bce73c00178c4dc6,50,2022-02-12_12h36.47.823,lexical_decision_task_DD_L6,2021.2.3,Win32,60.03121623,,,,,,,,,,,0.8346,1,,,,,,,,,,,,,,z,1,0.8346,,,,,,,,0.064814843,-0.384259286,0,0,0,,0,113,113,151,1,TINKY,HB,z,z,./images/TINKYHB.png,,,,,,,,,,,,,,,,,,,,,,,,,,,,,,,,,,
,,,,,,,,,,,,,,,,,5c8570c3bce73c00178c4dc6,50,2022-02-12_12h36.47.823,lexical_decision_task_DD_L6,2021.2.3,Win32,60.03121623,,,,,,,,,,,0.7178,1,,,,,,,,,,,,,,m,1,0.7178,,,,,,,,0.064814843,-0.384259286,0,0,0,,0,114,114,77,1,WHEEL,HB,m,m,./images/WHEELHB.png,,,,,,,,,,,,,,,,,,,,,,,,,,,,,,,,,,
,,,,,,,,,,,,,,,,,5c8570c3bce73c00178c4dc6,50,2022-02-12_12h36.47.823,lexical_decision_task_DD_L6,2021.2.3,Win32,60.03121623,,,,,,,,,,,0.6002,1,,,,,,,,,,,,,,m,1,0.6002,,,,,,,,0.064814843,-0.384259286,0,0,0,,0,115,115,4,1,BOXER,C,m,m,./images/BOXER.png,,,,,,,,,,,,,,,,,,,,,,,,,,,,,,,,,,
,,,,,,,,,,,,,,,,,5c8570c3bce73c00178c4dc6,50,2022-02-12_12h36.47.823,lexical_decision_task_DD_L6,2021.2.3,Win32,60.03121623,,,,,,,,,,,0.472,1,,,,,,,,,,,,,,m,1,0.472,,,,,,,,0.064814843,-0.384259286,0,0,0,,0,116,116,58,1,CANOE,C,m,m,./images/CANOE.png,,,,,,,,,,,,,,,,,,,,,,,,,,,,,,,,,,
,,,,,,,,,,,,,,,,,5c8570c3bce73c00178c4dc6,50,2022-02-12_12h36.47.823,lexical_decision_task_DD_L6,2021.2.3,Win32,60.03121623,,,,,,,,,,,0.722,1,,,,,,,,,,,,,,m,1,0.722,,,,,,,,0.064814843,-0.384259286,0,0,0,,0,117,117,9,1,DIVER,LB,m,m,./images/DIVERLB.png,,,,,,,,,,,,,,,,,,,,,,,,,,,,,,,,,,
,,,,,,,,,,,,,,,,,5c8570c3bce73c00178c4dc6,50,2022-02-12_12h36.47.823,lexical_decision_task_DD_L6,2021.2.3,Win32,60.03121623,,,,,,,,,,,1.0517,1,,,,,,,,,,,,,,z,1,1.0517,,,,,,,,0.064814843,-0.384259286,0,0,0,,0,118,118,148,1,JOMS,HB,z,z,./images/JOMSHB.png,,,,,,,,,,,,,,,,,,,,,,,,,,,,,,,,,,
,,,,,,,,,,,,,,,,,5c8570c3bce73c00178c4dc6,50,2022-02-12_12h36.47.823,lexical_decision_task_DD_L6,2021.2.3,Win32,60.03121623,,,,,,,,,,,0.7512,1,,,,,,,,,,,,,,m,1,0.7512,,,,,,,,0.064814843,-0.384259286,0,0,0,,0,119,119,24,1,FLESH,LB,m,m,./images/FLESHLB.png,,,,,,,,,,,,,,,,,,,,,,,,,,,,,,,,,,
,,,,,,,,,,,,,,,,,5c8570c3bce73c00178c4dc6,50,2022-02-12_12h36.47.823,lexical_decision_task_DD_L6,2021.2.3,Win32,60.03121623,,,,,,,,,,,0.5191,1,,,,,,,,,,,,,,m,1,0.5191,,,,,,,,0.064814843,-0.384259286,0,0,0,,0,120,120,72,1,FLASK,LB,m,m,./images/FLASKLB.png,,,,,,,,,,,,,,,,,,,,,,,,,,,,,,,,,,
,,,,,,,,,,,,,,,,,5c8570c3bce73c00178c4dc6,50,2022-02-12_12h36.47.823,lexical_decision_task_DD_L6,2021.2.3,Win32,60.03121623,,,,,,,,,,,0.5208,1,,,,,,,,,,,,,,m,1,0.5208,,,,,,,,0.064814843,-0.384259286,0,0,0,,0,121,121,21,1,DANCER,LB,m,m,./images/DANCERLB.png,,,,,,,,,,,,,,,,,,,,,,,,,,,,,,,,,,
,,,,,,,,,,,,,,,,,5c8570c3bce73c00178c4dc6,50,2022-02-12_12h36.47.823,lexical_decision_task_DD_L6,2021.2.3,Win32,60.03121623,,,,,,,,,,,0.3986,1,,,,,,,,,,,,,,m,1,0.3986,,,,,,,,0.064814843,-0.384259286,0,0,0,,0,122,122,34,1,RAZOR,C,m,m,./images/RAZOR.png,,,,,,,,,,,,,,,,,,,,,,,,,,,,,,,,,,
,,,,,,,,,,,,,,,,,5c8570c3bce73c00178c4dc6,50,2022-02-12_12h36.47.823,lexical_decision_task_DD_L6,2021.2.3,Win32,60.03121623,,,,,,,,,,,0.8734,1,,,,,,,,,,,,,,z,1,0.8734,,,,,,,,0.064814843,-0.384259286,0,0,0,,0,123,123,133,1,POWDY,HB,z,z,./images/POWDYHB.png,,,,,,,,,,,,,,,,,,,,,,,,,,,,,,,,,,
,,,,,,,,,,,,,,,,,5c8570c3bce73c00178c4dc6,50,2022-02-12_12h36.47.823,lexical_decision_task_DD_L6,2021.2.3,Win32,60.03121623,,,,,,,,,,,0.4961,1,,,,,,,,,,,,,,m,1,0.4961,,,,,,,,0.064814843,-0.384259286,0,0,0,,0,124,124,70,1,BANANA,C,m,m,./images/BANANA.png,,,,,,,,,,,,,,,,,,,,,,,,,,,,,,,,,,
,,,,,,,,,,,,,,,,,5c8570c3bce73c00178c4dc6,50,2022-02-12_12h36.47.823,lexical_decision_task_DD_L6,2021.2.3,Win32,60.03121623,,,,,,,,,,,0.7322,0,,,,,,,,,,,,,,m,0,0.7322,,,,,,,,0.010185268,-0.364814841,1,0,0,,0,125,125,166,1,SHORY,HB,z,z,./images/SHORYHB.png,break_done_button,,,,,,,,,,,,,,,,,,,,,,,,,,,,,,,,,
,,,,,,,,,,,,,,,,,5c8570c3bce73c00178c4dc6,50,2022-02-12_12h36.47.823,lexical_decision_task_DD_L6,2021.2.3,Win32,60.03121623,,,,,,,,,,,0.554,1,,,,,,,,,,,,,,m,1,0.554,,,,,,,,0.010185268,-0.364814841,0,0,0,,0,126,126,5,1,BAMBOO,HB,m,m,./images/BAMBOOHB.png,,,,,,,,,,,,,,,,,,,,,,,,,,,,,,,,,,
,,,,,,,,,,,,,,,,,5c8570c3bce73c00178c4dc6,50,2022-02-12_12h36.47.823,lexical_decision_task_DD_L6,2021.2.3,Win32,60.03121623,,,,,,,,,,,0.5193,0,,,,,,,,,,,,,,m,0,0.5193,,,,,,,,0.010185268,-0.364814841,0,0,0,,0,127,127,142,1,PLASK,HB,z,z,./images/PLASKHB.png,,,,,,,,,,,,,,,,,,,,,,,,,,,,,,,,,,
,,,,,,,,,,,,,,,,,5c8570c3bce73c00178c4dc6,50,2022-02-12_12h36.47.823,lexical_decision_task_DD_L6,2021.2.3,Win32,60.03121623,,,,,,,,,,,0.5518,1,,,,,,,,,,,,,,m,1,0.5518,,,,,,,,0.010185268,-0.364814841,0,0,0,,0,128,128,42,1,CHAIN,LB,m,m,./images/CHAINLB.png,,,,,,,,,,,,,,,,,,,,,,,,,,,,,,,,,,
,,,,,,,,,,,,,,,,,5c8570c3bce73c00178c4dc6,50,2022-02-12_12h36.47.823,lexical_decision_task_DD_L6,2021.2.3,Win32,60.03121623,,,,,,,,,,,0.4177,0,,,,,,,,,,,,,,m,0,0.4177,,,,,,,,0.010185268,-0.364814841,0,0,0,,0,129,129,109,1,BURGE,HB,z,z,./images/BURGEHB.png,,,,,,,,,,,,,,,,,,,,,,,,,,,,,,,,,,
,,,,,,,,,,,,,,,,,5c8570c3bce73c00178c4dc6,50,2022-02-12_12h36.47.823,lexical_decision_task_DD_L6,2021.2.3,Win32,60.03121623,,,,,,,,,,,0.6303,1,,,,,,,,,,,,,,z,1,0.6303,,,,,,,,0.010185268,-0.364814841,0,0,0,,0,130,130,129,1,PRANS,C,z,z,./images/PRANS.png,,,,,,,,,,,,,,,,,,,,,,,,,,,,,,,,,,
,,,,,,,,,,,,,,,,,5c8570c3bce73c00178c4dc6,50,2022-02-12_12h36.47.823,lexical_decision_task_DD_L6,2021.2.3,Win32,60.03121623,,,,,,,,,,,0.7672,1,,,,,,,,,,,,,,z,1,0.7672,,,,,,,,0.010185268,-0.364814841,0,0,0,,0,131,131,134,1,TROSS,LB,z,z,./images/TROSSLB.png,,,,,,,,,,,,,,,,,,,,,,,,,,,,,,,,,,
,,,,,,,,,,,,,,,,,5c8570c3bce73c00178c4dc6,50,2022-02-12_12h36.47.823,lexical_decision_task_DD_L6,2021.2.3,Win32,60.03121623,,,,,,,,,,,0.6928,1,,,,,,,,,,,,,,m,1,0.6928,,,,,,,,0.010185268,-0.364814841,0,0,0,,0,132,132,80,1,PLANET,HB,m,m,./images/PLANETHB.png,,,,,,,,,,,,,,,,,,,,,,,,,,,,,,,,,,
,,,,,,,,,,,,,,,,,5c8570c3bce73c00178c4dc6,50,2022-02-12_12h36.47.823,lexical_decision_task_DD_L6,2021.2.3,Win32,60.03121623,,,,,,,,,,,0.5844,0,,,,,,,,,,,,,,m,0,0.5844,,,,,,,,0.010185268,-0.364814841,0,0,0,,0,133,133,103,1,FLORT,HB,z,z,./images/FLORTHB.png,,,,,,,,,,,,,,,,,,,,,,,,,,,,,,,,,,
,,,,,,,,,,,,,,,,,5c8570c3bce73c00178c4dc6,50,2022-02-12_12h36.47.823,lexical_decision_task_DD_L6,2021.2.3,Win32,60.03121623,,,,,,,,,,,1.4051,1,,,,,,,,,,,,,,m,1,1.4051,,,,,,,,0.010185268,-0.364814841,0,0,0,,0,134,134,49,1,BISHOP,C,m,m,./images/BISHOP.png,,,,,,,,,,,,,,,,,,,,,,,,,,,,,,,,,,
,,,,,,,,,,,,,,,,,5c8570c3bce73c00178c4dc6,50,2022-02-12_12h36.47.823,lexical_decision_task_DD_L6,2021.2.3,Win32,60.03121623,,,,,,,,,,,0.5712,1,,,,,,,,,,,,,,m,1,0.5712,,,,,,,,0.010185268,-0.364814841,0,0,0,,0,135,135,25,1,CHALK,C,m,m,./images/CHALK.png,,,,,,,,,,,,,,,,,,,,,,,,,,,,,,,,,,
,,,,,,,,,,,,,,,,,5c8570c3bce73c00178c4dc6,50,2022-02-12_12h36.47.823,lexical_decision_task_DD_L6,2021.2.3,Win32,60.03121623,,,,,,,,,,,0.862,1,,,,,,,,,,,,,,z,1,0.862,,,,,,,,0.010185268,-0.364814841,0,0,0,,0,136,136,106,1,CLUMS,HB,z,z,./images/CLUMSHB.png,,,,,,,,,,,,,,,,,,,,,,,,,,,,,,,,,,
,,,,,,,,,,,,,,,,,5c8570c3bce73c00178c4dc6,50,2022-02-12_12h36.47.823,lexical_decision_task_DD_L6,2021.2.3,Win32,60.03121623,,,,,,,,,,,0.6029,1,,,,,,,,,,,,,,m,1,0.6029,,,,,,,,0.010185268,-0.364814841,0,0,0,,0,137,137,55,1,ALLEY,C,m,m,./images/ALLEY.png,,,,,,,,,,,,,,,,,,,,,,,,,,,,,,,,,,
,,,,,,,,,,,,,,,,,5c8570c3bce73c00178c4dc6,50,2022-02-12_12h36.47.823,lexical_decision_task_DD_L6,2021.2.3,Win32,60.03121623,,,,,,,,,,,0.7552,1,,,,,,,,,,,,,,m,1,0.7552,,,,,,,,0.010185268,-0.364814841,0,0,0,,0,138,138,74,1,JUMPER,HB,m,m,./images/JUMPERHB.png,,,,,,,,,,,,,,,,,,,,,,,,,,,,,,,,,,
,,,,,,,,,,,,,,,,,5c8570c3bce73c00178c4dc6,50,2022-02-12_12h36.47.823,lexical_decision_task_DD_L6,2021.2.3,Win32,60.03121623,,,,,,,,,,,0.7684,1,,,,,,,,,,,,,,m,1,0.7684,,,,,,,,0.010185268,-0.364814841,0,0,0,,0,139,139,78,1,BROOM,LB,m,m,./images/BROOMLB.png,,,,,,,,,,,,,,,,,,,,,,,,,,,,,,,,,,
,,,,,,,,,,,,,,,,,5c8570c3bce73c00178c4dc6,50,2022-02-12_12h36.47.823,lexical_decision_task_DD_L6,2021.2.3,Win32,60.03121623,,,,,,,,,,,0.6514,1,,,,,,,,,,,,,,z,1,0.6514,,,,,,,,0.010185268,-0.364814841,0,0,0,,0,140,140,122,1,BLOOT,LB,z,z,./images/BLOOTLB.png,,,,,,,,,,,,,,,,,,,,,,,,,,,,,,,,,,
,,,,,,,,,,,,,,,,,5c8570c3bce73c00178c4dc6,50,2022-02-12_12h36.47.823,lexical_decision_task_DD_L6,2021.2.3,Win32,60.03121623,,,,,,,,,,,0.8127,1,,,,,,,,,,,,,,z,1,0.8127,,,,,,,,0.010185268,-0.364814841,0,0,0,,0,141,141,123,1,SEDGE,C,z,z,./images/SEDGE.png,,,,,,,,,,,,,,,,,,,,,,,,,,,,,,,,,,
,,,,,,,,,,,,,,,,,5c8570c3bce73c00178c4dc6,50,2022-02-12_12h36.47.823,lexical_decision_task_DD_L6,2021.2.3,Win32,60.03121623,,,,,,,,,,,0.458,1,,,,,,,,,,,,,,m,1,0.458,,,,,,,,0.010185268,-0.364814841,0,0,0,,0,142,142,69,1,ARROW,LB,m,m,./images/ARROWLB.png,,,,,,,,,,,,,,,,,,,,,,,,,,,,,,,,,,
,,,,,,,,,,,,,,,,,5c8570c3bce73c00178c4dc6,50,2022-02-12_12h36.47.823,lexical_decision_task_DD_L6,2021.2.3,Win32,60.03121623,,,,,,,,,,,1.1706,1,,,,,,,,,,,,,,z,1,1.1706,,,,,,,,0.010185268,-0.364814841,0,0,0,,0,143,143,137,1,JOOST,LB,z,z,./images/JOOSTLB.png,,,,,,,,,,,,,,,,,,,,,,,,,,,,,,,,,,
,,,,,,,,,,,,,,,,,5c8570c3bce73c00178c4dc6,50,2022-02-12_12h36.47.823,lexical_decision_task_DD_L6,2021.2.3,Win32,60.03121623,,,,,,,,,,,0.7335,1,,,,,,,,,,,,,,z,1,0.7335,,,,,,,,0.010185268,-0.364814841,0,0,0,,0,144,144,113,1,LINEW,LB,z,z,./images/LINEWLB.png,,,,,,,,,,,,,,,,,,,,,,,,,,,,,,,,,,
,,,,,,,,,,,,,,,,,5c8570c3bce73c00178c4dc6,50,2022-02-12_12h36.47.823,lexical_decision_task_DD_L6,2021.2.3,Win32,60.03121623,,,,,,,,,,,0.6151,1,,,,,,,,,,,,,,m,1,0.6151,,,,,,,,0.010185268,-0.364814841,0,0,0,,0,145,145,28,1,CASINO,C,m,m,./images/CASINO.png,,,,,,,,,,,,,,,,,,,,,,,,,,,,,,,,,,
,,,,,,,,,,,,,,,,,5c8570c3bce73c00178c4dc6,50,2022-02-12_12h36.47.823,lexical_decision_task_DD_L6,2021.2.3,Win32,60.03121623,,,,,,,,,,,0.7424,1,,,,,,,,,,,,,,z,1,0.7424,,,,,,,,0.010185268,-0.364814841,0,0,0,,0,146,146,121,1,CEERS,HB,z,z,./images/CEERSHB.png,,,,,,,,,,,,,,,,,,,,,,,,,,,,,,,,,,
,,,,,,,,,,,,,,,,,5c8570c3bce73c00178c4dc6,50,2022-02-12_12h36.47.823,lexical_decision_task_DD_L6,2021.2.3,Win32,60.03121623,,,,,,,,,,,0.6095,0,,,,,,,,,,,,,,z,0,0.6095,,,,,,,,0.010185268,-0.364814841,0,0,0,,0,147,147,30,1,SLOPE,LB,m,m,./images/SLOPELB.png,,,,,,,,,,,,,,,,,,,,,,,,,,,,,,,,,,
,,,,,,,,,,,,,,,,,5c8570c3bce73c00178c4dc6,50,2022-02-12_12h36.47.823,lexical_decision_task_DD_L6,2021.2.3,Win32,60.03121623,,,,,,,,,,,0.7054,1,,,,,,,,,,,,,,m,1,0.7054,,,,,,,,0.010185268,-0.364814841,0,0,0,,0,148,148,63,1,BAKER,LB,m,m,./images/BAKERLB.png,,,,,,,,,,,,,,,,,,,,,,,,,,,,,,,,,,
,,,,,,,,,,,,,,,,,5c8570c3bce73c00178c4dc6,50,2022-02-12_12h36.47.823,lexical_decision_task_DD_L6,2021.2.3,Win32,60.03121623,,,,,,,,,,,0.607,1,,,,,,,,,,,,,,z,1,0.607,,,,,,,,0.010185268,-0.364814841,0,0,0,,0,149,149,125,1,MOOKY,LB,z,z,./images/MOOKYLB.png,,,,,,,,,,,,,,,,,,,,,,,,,,,,,,,,,,
,,,,,,,,,,,,,,,,,5c8570c3bce73c00178c4dc6,50,2022-02-12_12h36.47.823,lexical_decision_task_DD_L6,2021.2.3,Win32,60.03121623,,,,,,,,,,,0.7509,1,,,,,,,,,,,,,,z,1,0.7509,,,,,,,,0.010185268,-0.364814841,0,0,0,,0,150,150,146,1,MOOST,LB,z,z,./images/MOOSTLB.png,,,,,,,,,,,,,,,,,,,,,,,,,,,,,,,,,,
,,,,,,,,,,,,,,,,,5c8570c3bce73c00178c4dc6,50,2022-02-12_12h36.47.823,lexical_decision_task_DD_L6,2021.2.3,Win32,60.03121623,,,,,,,,,,,0.5498,1,,,,,,,,,,,,,,m,1,0.5498,,,,,,,,0.010185268,-0.364814841,0,0,0,,0,151,151,40,1,SNAKE,C,m,m,./images/SNAKE.png,,,,,,,,,,,,,,,,,,,,,,,,,,,,,,,,,,
,,,,,,,,,,,,,,,,,5c8570c3bce73c00178c4dc6,50,2022-02-12_12h36.47.823,lexical_decision_task_DD_L6,2021.2.3,Win32,60.03121623,,,,,,,,,,,0.8607,1,,,,,,,,,,,,,,m,1,0.8607,,,,,,,,0.010185268,-0.364814841,0,0,0,,0,152,152,65,1,SPINE,HB,m,m,./images/SPINEHB.png,,,,,,,,,,,,,,,,,,,,,,,,,,,,,,,,,,
,,,,,,,,,,,,,,,,,5c8570c3bce73c00178c4dc6,50,2022-02-12_12h36.47.823,lexical_decision_task_DD_L6,2021.2.3,Win32,60.03121623,,,,,,,,,,,0.7715,1,,,,,,,,,,,,,,m,1,0.7715,,,,,,,,0.010185268,-0.364814841,0,0,0,,0,153,153,8,1,CLIFF,HB,m,m,./images/CLIFFHB.png,,,,,,,,,,,,,,,,,,,,,,,,,,,,,,,,,,
,,,,,,,,,,,,,,,,,5c8570c3bce73c00178c4dc6,50,2022-02-12_12h36.47.823,lexical_decision_task_DD_L6,2021.2.3,Win32,60.03121623,,,,,,,,,,,0.5924,1,,,,,,,,,,,,,,z,1,0.5924,,,,,,,,0.010185268,-0.364814841,0,0,0,,0,154,154,150,1,NOOLS,C,z,z,./images/NOOLS.png,,,,,,,,,,,,,,,,,,,,,,,,,,,,,,,,,,
,,,,,,,,,,,,,,,,,5c8570c3bce73c00178c4dc6,50,2022-02-12_12h36.47.823,lexical_decision_task_DD_L6,2021.2.3,Win32,60.03121623,,,,,,,,,,,0.5185,1,,,,,,,,,,,,,,m,1,0.5185,,,,,,,,0.010185268,-0.364814841,0,0,0,,0,155,155,18,1,PARCEL,LB,m,m,./images/PARCELLB.png,,,,,,,,,,,,,,,,,,,,,,,,,,,,,,,,,,
,,,,,,,,,,,,,,,,,5c8570c3bce73c00178c4dc6,50,2022-02-12_12h36.47.823,lexical_decision_task_DD_L6,2021.2.3,Win32,60.03121623,,,,,,,,,,,0.4043,0,,,,,,,,,,,,,,m,0,0.4043,,,,,,,,0.010185268,-0.364814841,0,0,0,,0,156,156,96,1,KEAMS,C,z,z,./images/KEAMS.png,,,,,,,,,,,,,,,,,,,,,,,,,,,,,,,,,,
,,,,,,,,,,,,,,,,,5c8570c3bce73c00178c4dc6,50,2022-02-12_12h36.47.823,lexical_decision_task_DD_L6,2021.2.3,Win32,60.03121623,,,,,,,,,,,0.6879,1,,,,,,,,,,,,,,z,1,0.6879,,,,,,,,0.010185268,-0.364814841,0,0,0,,0,157,157,135,1,JOODY,C,z,z,./images/JOODY.png,,,,,,,,,,,,,,,,,,,,,,,,,,,,,,,,,,
,,,,,,,,,,,,,,,,,5c8570c3bce73c00178c4dc6,50,2022-02-12_12h36.47.823,lexical_decision_task_DD_L6,2021.2.3,Win32,60.03121623,,,,,,,,,,,0.6514,1,,,,,,,,,,,,,,m,1,0.6514,,,,,,,,0.010185268,-0.364814841,0,0,0,,0,158,158,59,1,BRUSH,HB,m,m,./images/BRUSHHB.png,,,,,,,,,,,,,,,,,,,,,,,,,,,,,,,,,,
,,,,,,,,,,,,,,,,,5c8570c3bce73c00178c4dc6,50,2022-02-12_12h36.47.823,lexical_decision_task_DD_L6,2021.2.3,Win32,60.03121623,,,,,,,,,,,0.5646,1,,,,,,,,,,,,,,z,1,0.5646,,,,,,,,0.010185268,-0.364814841,0,0,0,,0,159,159,126,1,GUELS,C,z,z,./images/GUELS.png,,,,,,,,,,,,,,,,,,,,,,,,,,,,,,,,,,
,,,,,,,,,,,,,,,,,5c8570c3bce73c00178c4dc6,50,2022-02-12_12h36.47.823,lexical_decision_task_DD_L6,2021.2.3,Win32,60.03121623,,,,,,,,,,,0.5873,1,,,,,,,,,,,,,,m,1,0.5873,,,,,,,,0.010185268,-0.364814841,0,0,0,,0,160,160,75,1,HAMMER,LB,m,m,./images/HAMMERLB.png,,,,,,,,,,,,,,,,,,,,,,,,,,,,,,,,,,
,,,,,,,,,,,,,,,,,5c8570c3bce73c00178c4dc6,50,2022-02-12_12h36.47.823,lexical_decision_task_DD_L6,2021.2.3,Win32,60.03121623,,,,,,,,,,,0.7257,1,,,,,,,,,,,,,,z,1,0.7257,,,,,,,,0.010185268,-0.364814841,0,0,0,,0,161,161,110,1,CRUNK,LB,z,z,./images/CRUNKLB.png,,,,,,,,,,,,,,,,,,,,,,,,,,,,,,,,,,
,,,,,,,,,,,,,,,,,5c8570c3bce73c00178c4dc6,50,2022-02-12_12h36.47.823,lexical_decision_task_DD_L6,2021.2.3,Win32,60.03121623,,,,,,,,,,,0.5591,1,,,,,,,,,,,,,,m,1,0.5591,,,,,,,,0.010185268,-0.364814841,0,0,0,,0,162,162,82,1,PEBBLE,C,m,m,./images/PEBBLE.png,,,,,,,,,,,,,,,,,,,,,,,,,,,,,,,,,,
,,,,,,,,,,,,,,,,,5c8570c3bce73c00178c4dc6,50,2022-02-12_12h36.47.823,lexical_decision_task_DD_L6,2021.2.3,Win32,60.03121623,,,,,,,,,,,0.9512,1,,,,,,,,,,,,,,m,1,0.9512,,,,,,,,0.010185268,-0.364814841,0,0,0,,0,163,163,46,1,MUMMY,C,m,m,./images/MUMMY.png,,,,,,,,,,,,,,,,,,,,,,,,,,,,,,,,,,
,,,,,,,,,,,,,,,,,5c8570c3bce73c00178c4dc6,50,2022-02-12_12h36.47.823,lexical_decision_task_DD_L6,2021.2.3,Win32,60.03121623,,,,,,,,,,,0.4841,1,,,,,,,,,,,,,,m,1,0.4841,,,,,,,,0.010185268,-0.364814841,0,0,0,,0,164,164,54,1,CHERRY,LB,m,m,./images/CHERRYLB.png,,,,,,,,,,,,,,,,,,,,,,,,,,,,,,,,,,
,,,,,,,,,,,,,,,,,5c8570c3bce73c00178c4dc6,50,2022-02-12_12h36.47.823,lexical_decision_task_DD_L6,2021.2.3,Win32,60.03121623,,,,,,,,,,,0.3861,1,,,,,,,,,,,,,,m,1,0.3861,,,,,,,,0.010185268,-0.364814841,0,0,0,,0,165,165,45,1,MONKEY,LB,m,m,./images/MONKEYLB.png,,,,,,,,,,,,,,,,,,,,,,,,,,,,,,,,,,
,,,,,,,,,,,,,,,,,5c8570c3bce73c00178c4dc6,50,2022-02-12_12h36.47.823,lexical_decision_task_DD_L6,2021.2.3,Win32,60.03121623,,,,,,,,,,,0.4696,1,,,,,,,,,,,,,,m,1,0.4696,,,,,,,,0.010185268,-0.364814841,0,0,0,,0,166,166,0,1,WALNUT,LB,m,m,./images/WALNUTLB.png,,,,,,,,,,,,,,,,,,,,,,,,,,,,,,,,,,
,,,,,,,,,,,,,,,,,5c8570c3bce73c00178c4dc6,50,2022-02-12_12h36.47.823,lexical_decision_task_DD_L6,2021.2.3,Win32,60.03121623,,,,,,,,,,,1.1365,1,,,,,,,,,,,,,,m,1,1.1365,,,,,,,,0.010185268,-0.364814841,0,0,0,,0,167,167,83,1,WHISKY,HB,m,m,./images/WHISKYHB.png,,,,,,,,,,,,,,,,,,,,,,,,,,,,,,,,,,
,,,,,,,,,,,,,,,,,5c8570c3bce73c00178c4dc6,50,2022-02-12_12h36.47.823,lexical_decision_task_DD_L6,2021.2.3,Win32,60.03121623,,,,,,,,,,,,,,,,,,,,,,,,,,,,,,,,,,,,,,,,,,,,,,,,How likely will it be that you will recognize the words presented clearly on a scale of 0 (not likely) to 100 (most likely)?,,,,,-0.001851825,-0.40833336,1,0,0,jol_adv,5,12.7574,0,0,0,0,1,,,,,,,,,,,,,,,,,,,,
,,,,,,,,,,,,,,,,,5c8570c3bce73c00178c4dc6,50,2022-02-12_12h36.47.823,lexical_decision_task_DD_L6,2021.2.3,Win32,60.03121623,,,,,,,,,,,,,,,,,,,,,,,,,,,,,,,,,,,,,,,,,,,,,,,,How likely will it be that you will recognize the words presented very blurred on a scale of 0 (not likely) to 100 (most likely)?,,,,,,,,,,,2,9.4047,0,1,1,2,1,,,,,,,,,,,,,,,,,,,,
,,,,,,,,,,,,,,,,,5c8570c3bce73c00178c4dc6,50,2022-02-12_12h36.47.823,lexical_decision_task_DD_L6,2021.2.3,Win32,60.03121623,,,,,,,,,,,,,,,,,,,,,,,,,,,,,,,,,,,,,,,,,,,,,,,,How likely will it be that you will recognize the words presented slighly blurred on a scale of 0 (not likely) to 100 (most likely)?,,,,,,,,,,,3,12.4031,0,2,2,1,1,,,,,,,,,,,,,,,,,,,,
,-0.070370289,-0.391666693,1,0,0,instr_done_button,,,,,,1,test,"In the next phase you will be presented with the words from the the first phase. Your job is to decide whether you remember seeing the word or not. If you remember seeing the word press ""old"" or type ""m"". If you do not remember seeing the word press ""new"" or type ""z"". Please press the space bar or click on continue to begin. ",,,5c8570c3bce73c00178c4dc6,50,2022-02-12_12h36.47.823,lexical_decision_task_DD_L6,2021.2.3,Win32,60.03121623,,,,,,,,,,,,,,,,,,,,,,,,,,,,,,,,,,,,,,,,,,,,,,,,,,,,,,,,,,,,,,,,,,0,0,0,0,1,,,,,,,,,,,,,,,
,-0.024074048,-0.398148175,1,0,0,instr_done_button,,,,,,1,test,"In the next phase you will be presented with the words from the the first phase. Your job is to decide whether you remember seeing the word or not. If you remember seeing the word press ""old"" or type ""m"". If you do not remember seeing the word press ""new"" or type ""z"". Please press the space bar or click on continue to begin. ",,,5c8570c3bce73c00178c4dc6,50,2022-02-12_12h36.47.823,lexical_decision_task_DD_L6,2021.2.3,Win32,60.03121623,,,,,,,,,,,,,,,,,,,,,,,,,,,,,,,,,,,,,,,,,,,,,,,,,,,,,,,,,,,,,,,,,,1,0,1,0,1,,,,,,,,,,,,,,,
,-0.100925846,-0.391666693,1,0,0,instr_done_button,,,,,,1,test,"In the next phase you will be presented with the words from the the first phase. Your job is to decide whether you remember seeing the word or not. If you remember seeing the word press ""old"" or type ""m"". If you do not remember seeing the word press ""new"" or type ""z"". Please press the space bar or click on continue to begin. ",,,5c8570c3bce73c00178c4dc6,50,2022-02-12_12h36.47.823,lexical_decision_task_DD_L6,2021.2.3,Win32,60.03121623,,,,,,,,,,,,,,,,,,,,,,,,,,,,,,,,,,,,,,,,,,,,,,,,,,,,,,,,,,,,,,,,,,2,0,2,0,1,,,,,,,,,,,,,,,
,-0.100925846,-0.391666693,1,0,0,instr_done_button,,,,,,1,test,"In the next phase you will be presented with the words from the the first phase. Your job is to decide whether you remember seeing the word or not. If you remember seeing the word press ""old"" or type ""m"". If you do not remember seeing the word press ""new"" or type ""z"". Please press the space bar or click on continue to begin. ",,,5c8570c3bce73c00178c4dc6,50,2022-02-12_12h36.47.823,lexical_decision_task_DD_L6,2021.2.3,Win32,60.03121623,,,,,,,,,,,,,,,,,,,,,,,,,,,,,,,,,,,,,,,,,,,,,,,,,,,,,,,,,,,,,,,,,,3,0,3,0,1,,,,,,,,,,,,,,,
,-0.100925846,-0.391666693,1,0,0,instr_done_button,,,,,,1,test,"In the next phase you will be presented with the words from the the first phase. Your job is to decide whether you remember seeing the word or not. If you remember seeing the word press ""old"" or type ""m"". If you do not remember seeing the word press ""new"" or type ""z"". Please press the space bar or click on continue to begin. ",,,5c8570c3bce73c00178c4dc6,50,2022-02-12_12h36.47.823,lexical_decision_task_DD_L6,2021.2.3,Win32,60.03121623,,,,,,,,,,,,,,,,,,,,,,,,,,,,,,,,,,,,,,,,,,,,,,,,,,,,,,,,,,,,,,,,,,4,0,4,0,1,,,,,,,,,,,,,,,
,,,,,,,,,,,,,,,,,5c8570c3bce73c00178c4dc6,50,2022-02-12_12h36.47.823,lexical_decision_task_DD_L6,2021.2.3,Win32,60.03121623,,,,,,,,,,,1.4328,1,,,,,,,,,,,,,,,,,,,,,,,,-0.100925846,-0.391666693,0,0,0,,,,,,,PIMPLE,HB,z,y,./images/PIMPLEHB.png,,,,,,,,,,,,,,,,,,,,z,1,1.4328,,,,,,,,0,0,0,155,1
,,,,,,,,,,,,,,,,,5c8570c3bce73c00178c4dc6,50,2022-02-12_12h36.47.823,lexical_decision_task_DD_L6,2021.2.3,Win32,60.03121623,,,,,,,,,,,0.6315,1,,,,,,,,,,,,,,,,,,,,,,,,-0.100925846,-0.391666693,0,0,0,,,,,,,PEBBLE,C,m,y,./images/PEBBLE.png,,,,,,,,,,,,,,,,,,,,m,1,0.6315,,,,,,,,0,1,1,82,1
,,,,,,,,,,,,,,,,,5c8570c3bce73c00178c4dc6,50,2022-02-12_12h36.47.823,lexical_decision_task_DD_L6,2021.2.3,Win32,60.03121623,,,,,,,,,,,0.6011,0,,,,,,,,,,,,,,,,,,,,,,,,-0.100925846,-0.391666693,0,0,0,,,,,,,SQUARE,LB,z,y,./images/SQUARELB.png,,,,,,,,,,,,,,,,,,,,m,0,0.6011,,,,,,,,0,2,2,90,1
,,,,,,,,,,,,,,,,,5c8570c3bce73c00178c4dc6,50,2022-02-12_12h36.47.823,lexical_decision_task_DD_L6,2021.2.3,Win32,60.03121623,,,,,,,,,,,0.6976,0,,,,,,,,,,,,,,,,,,,,,,,,-0.100925846,-0.391666693,0,0,0,,,,,,,MELON,C,z,y,./images/MELON.png,,,,,,,,,,,,,,,,,,,,m,0,0.6976,,,,,,,,0,3,3,106,1
,,,,,,,,,,,,,,,,,5c8570c3bce73c00178c4dc6,50,2022-02-12_12h36.47.823,lexical_decision_task_DD_L6,2021.2.3,Win32,60.03121623,,,,,,,,,,,0.6267,1,,,,,,,,,,,,,,,,,,,,,,,,-0.100925846,-0.391666693,0,0,0,,,,,,,STOVE,HB,m,y,./images/STOVEHB.png,,,,,,,,,,,,,,,,,,,,m,1,0.6267,,,,,,,,0,4,4,2,1
,,,,,,,,,,,,,,,,,5c8570c3bce73c00178c4dc6,50,2022-02-12_12h36.47.823,lexical_decision_task_DD_L6,2021.2.3,Win32,60.03121623,,,,,,,,,,,1.0159,0,,,,,,,,,,,,,,,,,,,,,,,,-0.100925846,-0.391666693,0,0,0,,,,,,,FINGER,LB,z,y,./images/FINGERLB.png,,,,,,,,,,,,,,,,,,,,m,0,1.0159,,,,,,,,0,5,5,87,1
,,,,,,,,,,,,,,,,,5c8570c3bce73c00178c4dc6,50,2022-02-12_12h36.47.823,lexical_decision_task_DD_L6,2021.2.3,Win32,60.03121623,,,,,,,,,,,0.967,0,,,,,,,,,,,,,,,,,,,,,,,,-0.100925846,-0.391666693,0,0,0,,,,,,,MOOSE,LB,z,y,./images/MOOSELB.png,,,,,,,,,,,,,,,,,,,,m,0,0.967,,,,,,,,0,6,6,141,1
,,,,,,,,,,,,,,,,,5c8570c3bce73c00178c4dc6,50,2022-02-12_12h36.47.823,lexical_decision_task_DD_L6,2021.2.3,Win32,60.03121623,,,,,,,,,,,1.2374,0,,,,,,,,,,,,,,,,,,,,,,,,-0.100925846,-0.391666693,0,0,0,,,,,,,GLOVE,C,m,y,./images/GLOVE.png,,,,,,,,,,,,,,,,,,,,z,0,1.2374,,,,,,,,0,7,7,73,1
,,,,,,,,,,,,,,,,,5c8570c3bce73c00178c4dc6,50,2022-02-12_12h36.47.823,lexical_decision_task_DD_L6,2021.2.3,Win32,60.03121623,,,,,,,,,,,0.7899,1,,,,,,,,,,,,,,,,,,,,,,,,-0.100925846,-0.391666693,0,0,0,,,,,,,SMOKER,HB,z,y,./images/SMOKERHB.png,,,,,,,,,,,,,,,,,,,,z,1,0.7899,,,,,,,,0,8,8,110,1
,,,,,,,,,,,,,,,,,5c8570c3bce73c00178c4dc6,50,2022-02-12_12h36.47.823,lexical_decision_task_DD_L6,2021.2.3,Win32,60.03121623,,,,,,,,,,,0.8309,1,,,,,,,,,,,,,,,,,,,,,,,,-0.100925846,-0.391666693,0,0,0,,,,,,,BABOON,C,z,y,./images/BABOON.png,,,,,,,,,,,,,,,,,,,,z,1,0.8309,,,,,,,,0,9,9,142,1
,,,,,,,,,,,,,,,,,5c8570c3bce73c00178c4dc6,50,2022-02-12_12h36.47.823,lexical_decision_task_DD_L6,2021.2.3,Win32,60.03121623,,,,,,,,,,,1.0167,1,,,,,,,,,,,,,,,,,,,,,,,,-0.100925846,-0.391666693,0,0,0,,,,,,,SPORT,LB,z,y,./images/SPORTLB.png,,,,,,,,,,,,,,,,,,,,z,1,1.0167,,,,,,,,0,10,10,132,1
,,,,,,,,,,,,,,,,,5c8570c3bce73c00178c4dc6,50,2022-02-12_12h36.47.823,lexical_decision_task_DD_L6,2021.2.3,Win32,60.03121623,,,,,,,,,,,1.0538,1,,,,,,,,,,,,,,,,,,,,,,,,-0.100925846,-0.391666693,0,0,0,,,,,,,CRATER,LB,m,y,./images/CRATERLB.png,,,,,,,,,,,,,,,,,,,,m,1,1.0538,,,,,,,,0,11,11,3,1
,,,,,,,,,,,,,,,,,5c8570c3bce73c00178c4dc6,50,2022-02-12_12h36.47.823,lexical_decision_task_DD_L6,2021.2.3,Win32,60.03121623,,,,,,,,,,,0.7183,1,,,,,,,,,,,,,,,,,,,,,,,,-0.100925846,-0.391666693,0,0,0,,,,,,,FLESH,LB,m,y,./images/FLESHLB.png,,,,,,,,,,,,,,,,,,,,m,1,0.7183,,,,,,,,0,12,12,24,1
,,,,,,,,,,,,,,,,,5c8570c3bce73c00178c4dc6,50,2022-02-12_12h36.47.823,lexical_decision_task_DD_L6,2021.2.3,Win32,60.03121623,,,,,,,,,,,0.5822,0,,,,,,,,,,,,,,,,,,,,,,,,-0.100925846,-0.391666693,0,0,0,,,,,,,CRUST,C,z,y,./images/CRUST.png,,,,,,,,,,,,,,,,,,,,m,0,0.5822,,,,,,,,0,13,13,163,1
,,,,,,,,,,,,,,,,,5c8570c3bce73c00178c4dc6,50,2022-02-12_12h36.47.823,lexical_decision_task_DD_L6,2021.2.3,Win32,60.03121623,,,,,,,,,,,0.6311,0,,,,,,,,,,,,,,,,,,,,,,,,-0.100925846,-0.391666693,0,0,0,,,,,,,ALLEY,C,m,y,./images/ALLEY.png,,,,,,,,,,,,,,,,,,,,z,0,0.6311,,,,,,,,0,14,14,55,1
,,,,,,,,,,,,,,,,,5c8570c3bce73c00178c4dc6,50,2022-02-12_12h36.47.823,lexical_decision_task_DD_L6,2021.2.3,Win32,60.03121623,,,,,,,,,,,1.0132,0,,,,,,,,,,,,,,,,,,,,,,,,-0.100925846,-0.391666693,0,0,0,,,,,,,BONNET,HB,z,y,./images/BONNETHB.png,,,,,,,,,,,,,,,,,,,,m,0,1.0132,,,,,,,,0,15,15,95,1
,,,,,,,,,,,,,,,,,5c8570c3bce73c00178c4dc6,50,2022-02-12_12h36.47.823,lexical_decision_task_DD_L6,2021.2.3,Win32,60.03121623,,,,,,,,,,,0.9461,1,,,,,,,,,,,,,,,,,,,,,,,,-0.100925846,-0.391666693,0,0,0,,,,,,,RAZOR,C,m,y,./images/RAZOR.png,,,,,,,,,,,,,,,,,,,,m,1,0.9461,,,,,,,,0,16,16,34,1
,,,,,,,,,,,,,,,,,5c8570c3bce73c00178c4dc6,50,2022-02-12_12h36.47.823,lexical_decision_task_DD_L6,2021.2.3,Win32,60.03121623,,,,,,,,,,,0.7443,1,,,,,,,,,,,,,,,,,,,,,,,,-0.100925846,-0.391666693,0,0,0,,,,,,,QUILL,C,z,y,./images/QUILL.png,,,,,,,,,,,,,,,,,,,,z,1,0.7443,,,,,,,,0,17,17,115,1
,,,,,,,,,,,,,,,,,5c8570c3bce73c00178c4dc6,50,2022-02-12_12h36.47.823,lexical_decision_task_DD_L6,2021.2.3,Win32,60.03121623,,,,,,,,,,,0.6626,0,,,,,,,,,,,,,,,,,,,,,,,,-0.100925846,-0.391666693,0,0,0,,,,,,,SNACK,C,z,y,./images/SNACK.png,,,,,,,,,,,,,,,,,,,,m,0,0.6626,,,,,,,,0,18,18,157,1
,,,,,,,,,,,,,,,,,5c8570c3bce73c00178c4dc6,50,2022-02-12_12h36.47.823,lexical_decision_task_DD_L6,2021.2.3,Win32,60.03121623,,,,,,,,,,,0.6445,1,,,,,,,,,,,,,,,,,,,,,,,,-0.100925846,-0.391666693,0,0,0,,,,,,,VALLEY,HB,m,y,./images/VALLEYHB.png,,,,,,,,,,,,,,,,,,,,m,1,0.6445,,,,,,,,0,19,19,68,1
,,,,,,,,,,,,,,,,,5c8570c3bce73c00178c4dc6,50,2022-02-12_12h36.47.823,lexical_decision_task_DD_L6,2021.2.3,Win32,60.03121623,,,,,,,,,,,0.8138,1,,,,,,,,,,,,,,,,,,,,,,,,-0.100925846,-0.391666693,0,0,0,,,,,,,MEDAL,HB,m,y,./images/MEDALHB.png,,,,,,,,,,,,,,,,,,,,m,1,0.8138,,,,,,,,0,20,20,11,1
,,,,,,,,,,,,,,,,,5c8570c3bce73c00178c4dc6,50,2022-02-12_12h36.47.823,lexical_decision_task_DD_L6,2021.2.3,Win32,60.03121623,,,,,,,,,,,0.516,1,,,,,,,,,,,,,,,,,,,,,,,,-0.100925846,-0.391666693,0,0,0,,,,,,,CANDY,LB,m,y,./images/CANDYLB.png,,,,,,,,,,,,,,,,,,,,m,1,0.516,,,,,,,,0,21,21,39,1
,,,,,,,,,,,,,,,,,5c8570c3bce73c00178c4dc6,50,2022-02-12_12h36.47.823,lexical_decision_task_DD_L6,2021.2.3,Win32,60.03121623,,,,,,,,,,,0.8684,0,,,,,,,,,,,,,,,,,,,,,,,,-0.100925846,-0.391666693,0,0,0,,,,,,,WAGON,C,m,y,./images/WAGON.png,,,,,,,,,,,,,,,,,,,,z,0,0.8684,,,,,,,,0,22,22,7,1
,,,,,,,,,,,,,,,,,5c8570c3bce73c00178c4dc6,50,2022-02-12_12h36.47.823,lexical_decision_task_DD_L6,2021.2.3,Win32,60.03121623,,,,,,,,,,,0.7162,1,,,,,,,,,,,,,,,,,,,,,,,,-0.100925846,-0.391666693,0,0,0,,,,,,,POSTER,HB,m,y,./images/POSTERHB.png,,,,,,,,,,,,,,,,,,,,m,1,0.7162,,,,,,,,0,23,23,53,1
,,,,,,,,,,,,,,,,,5c8570c3bce73c00178c4dc6,50,2022-02-12_12h36.47.823,lexical_decision_task_DD_L6,2021.2.3,Win32,60.03121623,,,,,,,,,,,0.5971,1,,,,,,,,,,,,,,,,,,,,,,,,-0.100925846,-0.391666693,0,0,0,,,,,,,LAGOON,HB,m,y,./images/LAGOONHB.png,,,,,,,,,,,,,,,,,,,,m,1,0.5971,,,,,,,,0,24,24,47,1
,,,,,,,,,,,,,,,,,5c8570c3bce73c00178c4dc6,50,2022-02-12_12h36.47.823,lexical_decision_task_DD_L6,2021.2.3,Win32,60.03121623,,,,,,,,,,,0.7792,1,,,,,,,,,,,,,,,,,,,,,,,,-0.100925846,-0.391666693,0,0,0,,,,,,,BERRY,HB,z,y,./images/BERRYHB.png,,,,,,,,,,,,,,,,,,,,z,1,0.7792,,,,,,,,0,25,25,131,1
,,,,,,,,,,,,,,,,,5c8570c3bce73c00178c4dc6,50,2022-02-12_12h36.47.823,lexical_decision_task_DD_L6,2021.2.3,Win32,60.03121623,,,,,,,,,,,1.9032,1,,,,,,,,,,,,,,,,,,,,,,,,-0.100925846,-0.391666693,0,0,0,,,,,,,SAUCE,LB,m,y,./images/SAUCELB.png,,,,,,,,,,,,,,,,,,,,m,1,1.9032,,,,,,,,0,26,26,51,1
,,,,,,,,,,,,,,,,,5c8570c3bce73c00178c4dc6,50,2022-02-12_12h36.47.823,lexical_decision_task_DD_L6,2021.2.3,Win32,60.03121623,,,,,,,,,,,0.7901,1,,,,,,,,,,,,,,,,,,,,,,,,-0.100925846,-0.391666693,0,0,0,,,,,,,STEAK,C,m,y,./images/STEAK.png,,,,,,,,,,,,,,,,,,,,m,1,0.7901,,,,,,,,0,27,27,31,1
,,,,,,,,,,,,,,,,,5c8570c3bce73c00178c4dc6,50,2022-02-12_12h36.47.823,lexical_decision_task_DD_L6,2021.2.3,Win32,60.03121623,,,,,,,,,,,0.5871,1,,,,,,,,,,,,,,,,,,,,,,,,-0.100925846,-0.391666693,0,0,0,,,,,,,POKER,C,m,y,./images/POKER.png,,,,,,,,,,,,,,,,,,,,m,1,0.5871,,,,,,,,0,28,28,67,1
,,,,,,,,,,,,,,,,,5c8570c3bce73c00178c4dc6,50,2022-02-12_12h36.47.823,lexical_decision_task_DD_L6,2021.2.3,Win32,60.03121623,,,,,,,,,,,0.9732,0,,,,,,,,,,,,,,,,,,,,,,,,-0.100925846,-0.391666693,0,0,0,,,,,,,BRIDE,C,m,y,./images/BRIDE.png,,,,,,,,,,,,,,,,,,,,z,0,0.9732,,,,,,,,0,29,29,64,1
,,,,,,,,,,,,,,,,,5c8570c3bce73c00178c4dc6,50,2022-02-12_12h36.47.823,lexical_decision_task_DD_L6,2021.2.3,Win32,60.03121623,,,,,,,,,,,1.023,1,,,,,,,,,,,,,,,,,,,,,,,,-0.100925846,-0.391666693,0,0,0,,,,,,,TORCH,HB,z,y,./images/TORCHHB.png,,,,,,,,,,,,,,,,,,,,z,1,1.023,,,,,,,,0,30,30,152,1
,,,,,,,,,,,,,,,,,5c8570c3bce73c00178c4dc6,50,2022-02-12_12h36.47.823,lexical_decision_task_DD_L6,2021.2.3,Win32,60.03121623,,,,,,,,,,,0.6175,1,,,,,,,,,,,,,,,,,,,,,,,,-0.100925846,-0.391666693,0,0,0,,,,,,,FLASK,LB,m,y,./images/FLASKLB.png,,,,,,,,,,,,,,,,,,,,m,1,0.6175,,,,,,,,0,31,31,72,1
,,,,,,,,,,,,,,,,,5c8570c3bce73c00178c4dc6,50,2022-02-12_12h36.47.823,lexical_decision_task_DD_L6,2021.2.3,Win32,60.03121623,,,,,,,,,,,1.3886,1,,,,,,,,,,,,,,,,,,,,,,,,-0.100925846,-0.391666693,0,0,0,,,,,,,MUFFIN,C,z,y,./images/MUFFIN.png,,,,,,,,,,,,,,,,,,,,z,1,1.3886,,,,,,,,0,32,32,139,1
,,,,,,,,,,,,,,,,,5c8570c3bce73c00178c4dc6,50,2022-02-12_12h36.47.823,lexical_decision_task_DD_L6,2021.2.3,Win32,60.03121623,,,,,,,,,,,0.6352,1,,,,,,,,,,,,,,,,,,,,,,,,-0.100925846,-0.391666693,0,0,0,,,,,,,ARTIST,C,m,y,./images/ARTIST.png,,,,,,,,,,,,,,,,,,,,m,1,0.6352,,,,,,,,0,33,33,61,1
,,,,,,,,,,,,,,,,,5c8570c3bce73c00178c4dc6,50,2022-02-12_12h36.47.823,lexical_decision_task_DD_L6,2021.2.3,Win32,60.03121623,,,,,,,,,,,0.6881,1,,,,,,,,,,,,,,,,,,,,,,,,-0.100925846,-0.391666693,0,0,0,,,,,,,POODLE,LB,z,y,./images/POODLELB.png,,,,,,,,,,,,,,,,,,,,z,1,0.6881,,,,,,,,0,34,34,165,1
,,,,,,,,,,,,,,,,,5c8570c3bce73c00178c4dc6,50,2022-02-12_12h36.47.823,lexical_decision_task_DD_L6,2021.2.3,Win32,60.03121623,,,,,,,,,,,0.7097,1,,,,,,,,,,,,,,,,,,,,,,,,-0.100925846,-0.391666693,0,0,0,,,,,,,HOCKEY,HB,m,y,./images/HOCKEYHB.png,,,,,,,,,,,,,,,,,,,,m,1,0.7097,,,,,,,,0,35,35,32,1
,,,,,,,,,,,,,,,,,5c8570c3bce73c00178c4dc6,50,2022-02-12_12h36.47.823,lexical_decision_task_DD_L6,2021.2.3,Win32,60.03121623,,,,,,,,,,,0.7518,1,,,,,,,,,,,,,,,,,,,,,,,,-0.100925846,-0.391666693,0,0,0,,,,,,,PILOT,HB,m,y,./images/PILOTHB.png,,,,,,,,,,,,,,,,,,,,m,1,0.7518,,,,,,,,0,36,36,50,1
,,,,,,,,,,,,,,,,,5c8570c3bce73c00178c4dc6,50,2022-02-12_12h36.47.823,lexical_decision_task_DD_L6,2021.2.3,Win32,60.03121623,,,,,,,,,,,0.852,1,,,,,,,,,,,,,,,,,,,,,,,,-0.100925846,-0.391666693,0,0,0,,,,,,,PICKLE,HB,z,y,./images/PICKLEHB.png,,,,,,,,,,,,,,,,,,,,z,1,0.852,,,,,,,,0,37,37,98,1
,,,,,,,,,,,,,,,,,5c8570c3bce73c00178c4dc6,50,2022-02-12_12h36.47.823,lexical_decision_task_DD_L6,2021.2.3,Win32,60.03121623,,,,,,,,,,,0.917,1,,,,,,,,,,,,,,,,,,,,,,,,-0.100925846,-0.391666693,0,0,0,,,,,,,URINE,C,z,y,./images/URINE.png,,,,,,,,,,,,,,,,,,,,z,1,0.917,,,,,,,,0,38,38,154,1
,,,,,,,,,,,,,,,,,5c8570c3bce73c00178c4dc6,50,2022-02-12_12h36.47.823,lexical_decision_task_DD_L6,2021.2.3,Win32,60.03121623,,,,,,,,,,,0.7059,1,,,,,,,,,,,,,,,,,,,,,,,,-0.100925846,-0.391666693,0,0,0,,,,,,,SHIELD,LB,m,y,./images/SHIELDLB.png,,,,,,,,,,,,,,,,,,,,m,1,0.7059,,,,,,,,0,39,39,48,1
,,,,,,,,,,,,,,,,,5c8570c3bce73c00178c4dc6,50,2022-02-12_12h36.47.823,lexical_decision_task_DD_L6,2021.2.3,Win32,60.03121623,,,,,,,,,,,0.7709,1,,,,,,,,,,,,,,,,,,,,,,,,-0.100925846,-0.391666693,0,0,0,,,,,,,MIRROR,LB,z,y,./images/MIRRORLB.png,,,,,,,,,,,,,,,,,,,,z,1,0.7709,,,,,,,,0,40,40,147,1
,,,,,,,,,,,,,,,,,5c8570c3bce73c00178c4dc6,50,2022-02-12_12h36.47.823,lexical_decision_task_DD_L6,2021.2.3,Win32,60.03121623,,,,,,,,,,,0.7057,0,,,,,,,,,,,,,,,,,,,,,,,,-0.100925846,-0.391666693,1,0,0,,,,,,,ENGINE,HB,m,y,./images/ENGINEHB.png,break_done_button,,,,,,,,,,,,,,,,,,,z,0,0.7057,,,,,,,,0,41,41,38,1
,,,,,,,,,,,,,,,,,5c8570c3bce73c00178c4dc6,50,2022-02-12_12h36.47.823,lexical_decision_task_DD_L6,2021.2.3,Win32,60.03121623,,,,,,,,,,,0.9718,0,,,,,,,,,,,,,,,,,,,,,,,,-0.100925846,-0.391666693,0,0,0,,,,,,,COLLAR,LB,m,y,./images/COLLARLB.png,,,,,,,,,,,,,,,,,,,,z,0,0.9718,,,,,,,,0,42,42,15,1
,,,,,,,,,,,,,,,,,5c8570c3bce73c00178c4dc6,50,2022-02-12_12h36.47.823,lexical_decision_task_DD_L6,2021.2.3,Win32,60.03121623,,,,,,,,,,,0.6226,1,,,,,,,,,,,,,,,,,,,,,,,,-0.100925846,-0.391666693,0,0,0,,,,,,,BIRTH,C,z,y,./images/BIRTH.png,,,,,,,,,,,,,,,,,,,,z,1,0.6226,,,,,,,,0,43,43,121,1
,,,,,,,,,,,,,,,,,5c8570c3bce73c00178c4dc6,50,2022-02-12_12h36.47.823,lexical_decision_task_DD_L6,2021.2.3,Win32,60.03121623,,,,,,,,,,,0.7589,1,,,,,,,,,,,,,,,,,,,,,,,,-0.100925846,-0.391666693,0,0,0,,,,,,,CRUMB,HB,z,y,./images/CRUMBHB.png,,,,,,,,,,,,,,,,,,,,z,1,0.7589,,,,,,,,0,44,44,113,1
,,,,,,,,,,,,,,,,,5c8570c3bce73c00178c4dc6,50,2022-02-12_12h36.47.823,lexical_decision_task_DD_L6,2021.2.3,Win32,60.03121623,,,,,,,,,,,0.6335,1,,,,,,,,,,,,,,,,,,,,,,,,-0.100925846,-0.391666693,0,0,0,,,,,,,RULER,C,m,y,./images/RULER.png,,,,,,,,,,,,,,,,,,,,m,1,0.6335,,,,,,,,0,45,45,79,1
,,,,,,,,,,,,,,,,,5c8570c3bce73c00178c4dc6,50,2022-02-12_12h36.47.823,lexical_decision_task_DD_L6,2021.2.3,Win32,60.03121623,,,,,,,,,,,0.7001,1,,,,,,,,,,,,,,,,,,,,,,,,-0.100925846,-0.391666693,0,0,0,,,,,,,BASKET,HB,m,y,./images/BASKETHB.png,,,,,,,,,,,,,,,,,,,,m,1,0.7001,,,,,,,,0,46,46,44,1
,,,,,,,,,,,,,,,,,5c8570c3bce73c00178c4dc6,50,2022-02-12_12h36.47.823,lexical_decision_task_DD_L6,2021.2.3,Win32,60.03121623,,,,,,,,,,,0.6418,1,,,,,,,,,,,,,,,,,,,,,,,,-0.100925846,-0.391666693,0,0,0,,,,,,,CASINO,C,m,y,./images/CASINO.png,,,,,,,,,,,,,,,,,,,,m,1,0.6418,,,,,,,,0,47,47,28,1
,,,,,,,,,,,,,,,,,5c8570c3bce73c00178c4dc6,50,2022-02-12_12h36.47.823,lexical_decision_task_DD_L6,2021.2.3,Win32,60.03121623,,,,,,,,,,,0.909,0,,,,,,,,,,,,,,,,,,,,,,,,-0.100925846,-0.391666693,0,0,0,,,,,,,SPINE,HB,m,y,./images/SPINEHB.png,,,,,,,,,,,,,,,,,,,,z,0,0.909,,,,,,,,0,48,48,65,1
,,,,,,,,,,,,,,,,,5c8570c3bce73c00178c4dc6,50,2022-02-12_12h36.47.823,lexical_decision_task_DD_L6,2021.2.3,Win32,60.03121623,,,,,,,,,,,0.5862,1,,,,,,,,,,,,,,,,,,,,,,,,-0.100925846,-0.391666693,0,0,0,,,,,,,CLIFF,HB,m,y,./images/CLIFFHB.png,,,,,,,,,,,,,,,,,,,,m,1,0.5862,,,,,,,,0,49,49,8,1
,,,,,,,,,,,,,,,,,5c8570c3bce73c00178c4dc6,50,2022-02-12_12h36.47.823,lexical_decision_task_DD_L6,2021.2.3,Win32,60.03121623,,,,,,,,,,,0.6706,1,,,,,,,,,,,,,,,,,,,,,,,,-0.100925846,-0.391666693,0,0,0,,,,,,,TIGER,C,m,y,./images/TIGER.png,,,,,,,,,,,,,,,,,,,,m,1,0.6706,,,,,,,,0,50,50,37,1
,,,,,,,,,,,,,,,,,5c8570c3bce73c00178c4dc6,50,2022-02-12_12h36.47.823,lexical_decision_task_DD_L6,2021.2.3,Win32,60.03121623,,,,,,,,,,,0.6729,1,,,,,,,,,,,,,,,,,,,,,,,,-0.100925846,-0.391666693,0,0,0,,,,,,,STREAM,HB,m,y,./images/STREAMHB.png,,,,,,,,,,,,,,,,,,,,m,1,0.6729,,,,,,,,0,51,51,41,1
,,,,,,,,,,,,,,,,,5c8570c3bce73c00178c4dc6,50,2022-02-12_12h36.47.823,lexical_decision_task_DD_L6,2021.2.3,Win32,60.03121623,,,,,,,,,,,0.6389,1,,,,,,,,,,,,,,,,,,,,,,,,-0.100925846,-0.391666693,0,0,0,,,,,,,SNAKE,C,m,y,./images/SNAKE.png,,,,,,,,,,,,,,,,,,,,m,1,0.6389,,,,,,,,0,52,52,40,1
,,,,,,,,,,,,,,,,,5c8570c3bce73c00178c4dc6,50,2022-02-12_12h36.47.823,lexical_decision_task_DD_L6,2021.2.3,Win32,60.03121623,,,,,,,,,,,0.8895,1,,,,,,,,,,,,,,,,,,,,,,,,-0.100925846,-0.391666693,0,0,0,,,,,,,MUMMY,C,m,y,./images/MUMMY.png,,,,,,,,,,,,,,,,,,,,m,1,0.8895,,,,,,,,0,53,53,46,1
,,,,,,,,,,,,,,,,,5c8570c3bce73c00178c4dc6,50,2022-02-12_12h36.47.823,lexical_decision_task_DD_L6,2021.2.3,Win32,60.03121623,,,,,,,,,,,0.7542,1,,,,,,,,,,,,,,,,,,,,,,,,-0.100925846,-0.391666693,0,0,0,,,,,,,LIZARD,HB,z,y,./images/LIZARDHB.png,,,,,,,,,,,,,,,,,,,,z,1,0.7542,,,,,,,,0,54,54,128,1
,,,,,,,,,,,,,,,,,5c8570c3bce73c00178c4dc6,50,2022-02-12_12h36.47.823,lexical_decision_task_DD_L6,2021.2.3,Win32,60.03121623,,,,,,,,,,,0.7514,1,,,,,,,,,,,,,,,,,,,,,,,,-0.100925846,-0.391666693,0,0,0,,,,,,,CANOE,C,m,y,./images/CANOE.png,,,,,,,,,,,,,,,,,,,,m,1,0.7514,,,,,,,,0,55,55,58,1
,,,,,,,,,,,,,,,,,5c8570c3bce73c00178c4dc6,50,2022-02-12_12h36.47.823,lexical_decision_task_DD_L6,2021.2.3,Win32,60.03121623,,,,,,,,,,,0.7333,1,,,,,,,,,,,,,,,,,,,,,,,,-0.100925846,-0.391666693,0,0,0,,,,,,,FARMER,HB,z,y,./images/FARMERHB.png,,,,,,,,,,,,,,,,,,,,z,1,0.7333,,,,,,,,0,56,56,149,1
,,,,,,,,,,,,,,,,,5c8570c3bce73c00178c4dc6,50,2022-02-12_12h36.47.823,lexical_decision_task_DD_L6,2021.2.3,Win32,60.03121623,,,,,,,,,,,1.0003,1,,,,,,,,,,,,,,,,,,,,,,,,-0.100925846,-0.391666693,0,0,0,,,,,,,STATUE,LB,m,y,./images/STATUELB.png,,,,,,,,,,,,,,,,,,,,m,1,1.0003,,,,,,,,0,57,57,66,1
,,,,,,,,,,,,,,,,,5c8570c3bce73c00178c4dc6,50,2022-02-12_12h36.47.823,lexical_decision_task_DD_L6,2021.2.3,Win32,60.03121623,,,,,,,,,,,0.7896,1,,,,,,,,,,,,,,,,,,,,,,,,-0.100925846,-0.391666693,0,0,0,,,,,,,BAKER,LB,m,y,./images/BAKERLB.png,,,,,,,,,,,,,,,,,,,,m,1,0.7896,,,,,,,,0,58,58,63,1
,,,,,,,,,,,,,,,,,5c8570c3bce73c00178c4dc6,50,2022-02-12_12h36.47.823,lexical_decision_task_DD_L6,2021.2.3,Win32,60.03121623,,,,,,,,,,,0.6562,1,,,,,,,,,,,,,,,,,,,,,,,,-0.100925846,-0.391666693,0,0,0,,,,,,,CHAIN,LB,m,y,./images/CHAINLB.png,,,,,,,,,,,,,,,,,,,,m,1,0.6562,,,,,,,,0,59,59,42,1
,,,,,,,,,,,,,,,,,5c8570c3bce73c00178c4dc6,50,2022-02-12_12h36.47.823,lexical_decision_task_DD_L6,2021.2.3,Win32,60.03121623,,,,,,,,,,,0.7179,1,,,,,,,,,,,,,,,,,,,,,,,,-0.100925846,-0.391666693,0,0,0,,,,,,,BOXER,C,m,y,./images/BOXER.png,,,,,,,,,,,,,,,,,,,,m,1,0.7179,,,,,,,,0,60,60,4,1
,,,,,,,,,,,,,,,,,5c8570c3bce73c00178c4dc6,50,2022-02-12_12h36.47.823,lexical_decision_task_DD_L6,2021.2.3,Win32,60.03121623,,,,,,,,,,,0.6353,1,,,,,,,,,,,,,,,,,,,,,,,,-0.100925846,-0.391666693,0,0,0,,,,,,,BURIAL,HB,z,y,./images/BURIALHB.png,,,,,,,,,,,,,,,,,,,,z,1,0.6353,,,,,,,,0,61,61,143,1
,,,,,,,,,,,,,,,,,5c8570c3bce73c00178c4dc6,50,2022-02-12_12h36.47.823,lexical_decision_task_DD_L6,2021.2.3,Win32,60.03121623,,,,,,,,,,,0.7431,0,,,,,,,,,,,,,,,,,,,,,,,,-0.100925846,-0.391666693,0,0,0,,,,,,,SCREW,LB,z,y,./images/SCREWLB.png,,,,,,,,,,,,,,,,,,,,m,0,0.7431,,,,,,,,0,62,62,108,1
,,,,,,,,,,,,,,,,,5c8570c3bce73c00178c4dc6,50,2022-02-12_12h36.47.823,lexical_decision_task_DD_L6,2021.2.3,Win32,60.03121623,,,,,,,,,,,0.7033,1,,,,,,,,,,,,,,,,,,,,,,,,-0.100925846,-0.391666693,0,0,0,,,,,,,BUNNY,C,m,y,./images/BUNNY.png,,,,,,,,,,,,,,,,,,,,m,1,0.7033,,,,,,,,0,63,63,13,1
,,,,,,,,,,,,,,,,,5c8570c3bce73c00178c4dc6,50,2022-02-12_12h36.47.823,lexical_decision_task_DD_L6,2021.2.3,Win32,60.03121623,,,,,,,,,,,0.8394,0,,,,,,,,,,,,,,,,,,,,,,,,-0.100925846,-0.391666693,0,0,0,,,,,,,CHALK,C,m,y,./images/CHALK.png,,,,,,,,,,,,,,,,,,,,z,0,0.8394,,,,,,,,0,64,64,25,1
,,,,,,,,,,,,,,,,,5c8570c3bce73c00178c4dc6,50,2022-02-12_12h36.47.823,lexical_decision_task_DD_L6,2021.2.3,Win32,60.03121623,,,,,,,,,,,0.8432,0,,,,,,,,,,,,,,,,,,,,,,,,-0.100925846,-0.391666693,0,0,0,,,,,,,BRUSH,HB,m,y,./images/BRUSHHB.png,,,,,,,,,,,,,,,,,,,,z,0,0.8432,,,,,,,,0,65,65,59,1
,,,,,,,,,,,,,,,,,5c8570c3bce73c00178c4dc6,50,2022-02-12_12h36.47.823,lexical_decision_task_DD_L6,2021.2.3,Win32,60.03121623,,,,,,,,,,,0.7752,1,,,,,,,,,,,,,,,,,,,,,,,,-0.100925846,-0.391666693,0,0,0,,,,,,,CARPET,HB,z,y,./images/CARPETHB.png,,,,,,,,,,,,,,,,,,,,z,1,0.7752,,,,,,,,0,66,66,137,1
,,,,,,,,,,,,,,,,,5c8570c3bce73c00178c4dc6,50,2022-02-12_12h36.47.823,lexical_decision_task_DD_L6,2021.2.3,Win32,60.03121623,,,,,,,,,,,1.0664,1,,,,,,,,,,,,,,,,,,,,,,,,-0.100925846,-0.391666693,0,0,0,,,,,,,INFANT,C,z,y,./images/INFANT.png,,,,,,,,,,,,,,,,,,,,z,1,1.0664,,,,,,,,0,67,67,160,1
,,,,,,,,,,,,,,,,,5c8570c3bce73c00178c4dc6,50,2022-02-12_12h36.47.823,lexical_decision_task_DD_L6,2021.2.3,Win32,60.03121623,,,,,,,,,,,0.7577,1,,,,,,,,,,,,,,,,,,,,,,,,-0.100925846,-0.391666693,0,0,0,,,,,,,WRIST,C,z,y,./images/WRIST.png,,,,,,,,,,,,,,,,,,,,z,1,0.7577,,,,,,,,0,68,68,109,1
,,,,,,,,,,,,,,,,,5c8570c3bce73c00178c4dc6,50,2022-02-12_12h36.47.823,lexical_decision_task_DD_L6,2021.2.3,Win32,60.03121623,,,,,,,,,,,0.7528,1,,,,,,,,,,,,,,,,,,,,,,,,-0.100925846,-0.391666693,0,0,0,,,,,,,SHELF,LB,z,y,./images/SHELFLB.png,,,,,,,,,,,,,,,,,,,,z,1,0.7528,,,,,,,,0,69,69,123,1
,,,,,,,,,,,,,,,,,5c8570c3bce73c00178c4dc6,50,2022-02-12_12h36.47.823,lexical_decision_task_DD_L6,2021.2.3,Win32,60.03121623,,,,,,,,,,,1.3174,1,,,,,,,,,,,,,,,,,,,,,,,,-0.100925846,-0.391666693,0,0,0,,,,,,,PEACH,HB,z,y,./images/PEACHHB.png,,,,,,,,,,,,,,,,,,,,z,1,1.3174,,,,,,,,0,70,70,119,1
,,,,,,,,,,,,,,,,,5c8570c3bce73c00178c4dc6,50,2022-02-12_12h36.47.823,lexical_decision_task_DD_L6,2021.2.3,Win32,60.03121623,,,,,,,,,,,0.7502,1,,,,,,,,,,,,,,,,,,,,,,,,-0.100925846,-0.391666693,0,0,0,,,,,,,BANNER,C,z,y,./images/BANNER.png,,,,,,,,,,,,,,,,,,,,z,1,0.7502,,,,,,,,0,71,71,136,1
,,,,,,,,,,,,,,,,,5c8570c3bce73c00178c4dc6,50,2022-02-12_12h36.47.823,lexical_decision_task_DD_L6,2021.2.3,Win32,60.03121623,,,,,,,,,,,0.6337,1,,,,,,,,,,,,,,,,,,,,,,,,-0.100925846,-0.391666693,0,0,0,,,,,,,DOUGH,C,z,y,./images/DOUGH.png,,,,,,,,,,,,,,,,,,,,z,1,0.6337,,,,,,,,0,72,72,103,1
,,,,,,,,,,,,,,,,,5c8570c3bce73c00178c4dc6,50,2022-02-12_12h36.47.823,lexical_decision_task_DD_L6,2021.2.3,Win32,60.03121623,,,,,,,,,,,0.8514,1,,,,,,,,,,,,,,,,,,,,,,,,-0.100925846,-0.391666693,0,0,0,,,,,,,BUBBLE,HB,m,y,./images/BUBBLEHB.png,,,,,,,,,,,,,,,,,,,,m,1,0.8514,,,,,,,,0,73,73,71,1
,,,,,,,,,,,,,,,,,5c8570c3bce73c00178c4dc6,50,2022-02-12_12h36.47.823,lexical_decision_task_DD_L6,2021.2.3,Win32,60.03121623,,,,,,,,,,,0.7686,1,,,,,,,,,,,,,,,,,,,,,,,,-0.100925846,-0.391666693,0,0,0,,,,,,,DRUMS,C,z,y,./images/DRUMS.png,,,,,,,,,,,,,,,,,,,,z,1,0.7686,,,,,,,,0,74,74,133,1
,,,,,,,,,,,,,,,,,5c8570c3bce73c00178c4dc6,50,2022-02-12_12h36.47.823,lexical_decision_task_DD_L6,2021.2.3,Win32,60.03121623,,,,,,,,,,,0.634,1,,,,,,,,,,,,,,,,,,,,,,,,-0.100925846,-0.391666693,0,0,0,,,,,,,LLAMA,HB,m,y,./images/LLAMAHB.png,,,,,,,,,,,,,,,,,,,,m,1,0.634,,,,,,,,0,75,75,35,1
,,,,,,,,,,,,,,,,,5c8570c3bce73c00178c4dc6,50,2022-02-12_12h36.47.823,lexical_decision_task_DD_L6,2021.2.3,Win32,60.03121623,,,,,,,,,,,0.7706,0,,,,,,,,,,,,,,,,,,,,,,,,-0.100925846,-0.391666693,0,0,0,,,,,,,CLOTH,HB,m,y,./images/CLOTHHB.png,,,,,,,,,,,,,,,,,,,,z,0,0.7706,,,,,,,,0,76,76,23,1
,,,,,,,,,,,,,,,,,5c8570c3bce73c00178c4dc6,50,2022-02-12_12h36.47.823,lexical_decision_task_DD_L6,2021.2.3,Win32,60.03121623,,,,,,,,,,,0.7847,1,,,,,,,,,,,,,,,,,,,,,,,,-0.100925846,-0.391666693,0,0,0,,,,,,,PAINT,C,z,y,./images/PAINT.png,,,,,,,,,,,,,,,,,,,,z,1,0.7847,,,,,,,,0,77,77,91,1
,,,,,,,,,,,,,,,,,5c8570c3bce73c00178c4dc6,50,2022-02-12_12h36.47.823,lexical_decision_task_DD_L6,2021.2.3,Win32,60.03121623,,,,,,,,,,,0.982,0,,,,,,,,,,,,,,,,,,,,,,,,-0.100925846,-0.391666693,0,0,0,,,,,,,DANCER,LB,m,y,./images/DANCERLB.png,,,,,,,,,,,,,,,,,,,,z,0,0.982,,,,,,,,0,78,78,21,1
,,,,,,,,,,,,,,,,,5c8570c3bce73c00178c4dc6,50,2022-02-12_12h36.47.823,lexical_decision_task_DD_L6,2021.2.3,Win32,60.03121623,,,,,,,,,,,0.8668,1,,,,,,,,,,,,,,,,,,,,,,,,-0.100925846,-0.391666693,0,0,0,,,,,,,CANDLE,C,z,y,./images/CANDLE.png,,,,,,,,,,,,,,,,,,,,z,1,0.8668,,,,,,,,0,79,79,145,1
,,,,,,,,,,,,,,,,,5c8570c3bce73c00178c4dc6,50,2022-02-12_12h36.47.823,lexical_decision_task_DD_L6,2021.2.3,Win32,60.03121623,,,,,,,,,,,0.8729,1,,,,,,,,,,,,,,,,,,,,,,,,-0.100925846,-0.391666693,0,0,0,,,,,,,HAMMER,LB,m,y,./images/HAMMERLB.png,,,,,,,,,,,,,,,,,,,,m,1,0.8729,,,,,,,,0,80,80,75,1
,,,,,,,,,,,,,,,,,5c8570c3bce73c00178c4dc6,50,2022-02-12_12h36.47.823,lexical_decision_task_DD_L6,2021.2.3,Win32,60.03121623,,,,,,,,,,,0.7679,1,,,,,,,,,,,,,,,,,,,,,,,,-0.100925846,-0.391666693,0,0,0,,,,,,,WHEEL,HB,m,y,./images/WHEELHB.png,,,,,,,,,,,,,,,,,,,,m,1,0.7679,,,,,,,,0,81,81,77,1
,,,,,,,,,,,,,,,,,5c8570c3bce73c00178c4dc6,50,2022-02-12_12h36.47.823,lexical_decision_task_DD_L6,2021.2.3,Win32,60.03121623,,,,,,,,,,,0.6885,1,,,,,,,,,,,,,,,,,,,,,,,,-0.100925846,-0.391666693,0,0,0,,,,,,,PARADE,HB,m,y,./images/PARADEHB.png,,,,,,,,,,,,,,,,,,,,m,1,0.6885,,,,,,,,0,82,82,17,1
,,,,,,,,,,,,,,,,,5c8570c3bce73c00178c4dc6,50,2022-02-12_12h36.47.823,lexical_decision_task_DD_L6,2021.2.3,Win32,60.03121623,,,,,,,,,,,2.2827,1,,,,,,,,,,,,,,,,,,,,,,,,-0.100925846,-0.391666693,1,0,0,,,,,,,JUMPER,HB,m,y,./images/JUMPERHB.png,break_done_button,,,,,,,,,,,,,,,,,,,m,1,2.2827,,,,,,,,0,83,83,74,1
,,,,,,,,,,,,,,,,,5c8570c3bce73c00178c4dc6,50,2022-02-12_12h36.47.823,lexical_decision_task_DD_L6,2021.2.3,Win32,60.03121623,,,,,,,,,,,0.8685,1,,,,,,,,,,,,,,,,,,,,,,,,-0.100925846,-0.391666693,0,0,0,,,,,,,COOKER,LB,z,y,./images/COOKERLB.png,,,,,,,,,,,,,,,,,,,,z,1,0.8685,,,,,,,,0,84,84,153,1
,,,,,,,,,,,,,,,,,5c8570c3bce73c00178c4dc6,50,2022-02-12_12h36.47.823,lexical_decision_task_DD_L6,2021.2.3,Win32,60.03121623,,,,,,,,,,,0.5872,1,,,,,,,,,,,,,,,,,,,,,,,,-0.100925846,-0.391666693,0,0,0,,,,,,,STAIN,LB,m,y,./images/STAINLB.png,,,,,,,,,,,,,,,,,,,,m,1,0.5872,,,,,,,,0,85,85,6,1
,,,,,,,,,,,,,,,,,5c8570c3bce73c00178c4dc6,50,2022-02-12_12h36.47.823,lexical_decision_task_DD_L6,2021.2.3,Win32,60.03121623,,,,,,,,,,,0.7004,1,,,,,,,,,,,,,,,,,,,,,,,,-0.100925846,-0.391666693,0,0,0,,,,,,,KIDNEY,LB,z,y,./images/KIDNEYLB.png,,,,,,,,,,,,,,,,,,,,z,1,0.7004,,,,,,,,0,86,86,105,1
,,,,,,,,,,,,,,,,,5c8570c3bce73c00178c4dc6,50,2022-02-12_12h36.47.823,lexical_decision_task_DD_L6,2021.2.3,Win32,60.03121623,,,,,,,,,,,0.7007,1,,,,,,,,,,,,,,,,,,,,,,,,-0.100925846,-0.391666693,0,0,0,,,,,,,PARCEL,LB,m,y,./images/PARCELLB.png,,,,,,,,,,,,,,,,,,,,m,1,0.7007,,,,,,,,0,87,87,18,1
,,,,,,,,,,,,,,,,,5c8570c3bce73c00178c4dc6,50,2022-02-12_12h36.47.823,lexical_decision_task_DD_L6,2021.2.3,Win32,60.03121623,,,,,,,,,,,1.0207,0,,,,,,,,,,,,,,,,,,,,,,,,-0.100925846,-0.391666693,0,0,0,,,,,,,DIVER,LB,m,y,./images/DIVERLB.png,,,,,,,,,,,,,,,,,,,,z,0,1.0207,,,,,,,,0,88,88,9,1
,,,,,,,,,,,,,,,,,5c8570c3bce73c00178c4dc6,50,2022-02-12_12h36.47.823,lexical_decision_task_DD_L6,2021.2.3,Win32,60.03121623,,,,,,,,,,,0.6337,1,,,,,,,,,,,,,,,,,,,,,,,,-0.100925846,-0.391666693,0,0,0,,,,,,,MIDGET,C,m,y,./images/MIDGET.png,,,,,,,,,,,,,,,,,,,,m,1,0.6337,,,,,,,,0,89,89,76,1
,,,,,,,,,,,,,,,,,5c8570c3bce73c00178c4dc6,50,2022-02-12_12h36.47.823,lexical_decision_task_DD_L6,2021.2.3,Win32,60.03121623,,,,,,,,,,,0.95,1,,,,,,,,,,,,,,,,,,,,,,,,-0.100925846,-0.391666693,0,0,0,,,,,,,CEMENT,HB,z,y,./images/CEMENTHB.png,,,,,,,,,,,,,,,,,,,,z,1,0.95,,,,,,,,0,90,90,158,1
,,,,,,,,,,,,,,,,,5c8570c3bce73c00178c4dc6,50,2022-02-12_12h36.47.823,lexical_decision_task_DD_L6,2021.2.3,Win32,60.03121623,,,,,,,,,,,0.9184,0,,,,,,,,,,,,,,,,,,,,,,,,-0.100925846,-0.391666693,0,0,0,,,,,,,PASTA,HB,z,y,./images/PASTAHB.png,,,,,,,,,,,,,,,,,,,,m,0,0.9184,,,,,,,,0,91,91,89,1
,,,,,,,,,,,,,,,,,5c8570c3bce73c00178c4dc6,50,2022-02-12_12h36.47.823,lexical_decision_task_DD_L6,2021.2.3,Win32,60.03121623,,,,,,,,,,,0.6216,1,,,,,,,,,,,,,,,,,,,,,,,,-0.100925846,-0.391666693,0,0,0,,,,,,,BISHOP,C,m,y,./images/BISHOP.png,,,,,,,,,,,,,,,,,,,,m,1,0.6216,,,,,,,,0,92,92,49,1
,,,,,,,,,,,,,,,,,5c8570c3bce73c00178c4dc6,50,2022-02-12_12h36.47.823,lexical_decision_task_DD_L6,2021.2.3,Win32,60.03121623,,,,,,,,,,,0.8675,1,,,,,,,,,,,,,,,,,,,,,,,,-0.100925846,-0.391666693,0,0,0,,,,,,,BOILER,LB,m,y,./images/BOILERLB.png,,,,,,,,,,,,,,,,,,,,m,1,0.8675,,,,,,,,0,93,93,36,1
,,,,,,,,,,,,,,,,,5c8570c3bce73c00178c4dc6,50,2022-02-12_12h36.47.823,lexical_decision_task_DD_L6,2021.2.3,Win32,60.03121623,,,,,,,,,,,0.6595,0,,,,,,,,,,,,,,,,,,,,,,,,-0.100925846,-0.391666693,0,0,0,,,,,,,CHERRY,LB,m,y,./images/CHERRYLB.png,,,,,,,,,,,,,,,,,,,,z,0,0.6595,,,,,,,,0,94,94,54,1
,,,,,,,,,,,,,,,,,5c8570c3bce73c00178c4dc6,50,2022-02-12_12h36.47.823,lexical_decision_task_DD_L6,2021.2.3,Win32,60.03121623,,,,,,,,,,,0.6832,1,,,,,,,,,,,,,,,,,,,,,,,,-0.100925846,-0.391666693,0,0,0,,,,,,,BROOM,LB,m,y,./images/BROOMLB.png,,,,,,,,,,,,,,,,,,,,m,1,0.6832,,,,,,,,0,95,95,78,1
,,,,,,,,,,,,,,,,,5c8570c3bce73c00178c4dc6,50,2022-02-12_12h36.47.823,lexical_decision_task_DD_L6,2021.2.3,Win32,60.03121623,,,,,,,,,,,0.7657,0,,,,,,,,,,,,,,,,,,,,,,,,-0.100925846,-0.391666693,0,0,0,,,,,,,MALLET,HB,z,y,./images/MALLETHB.png,,,,,,,,,,,,,,,,,,,,m,0,0.7657,,,,,,,,0,96,96,134,1
,,,,,,,,,,,,,,,,,5c8570c3bce73c00178c4dc6,50,2022-02-12_12h36.47.823,lexical_decision_task_DD_L6,2021.2.3,Win32,60.03121623,,,,,,,,,,,0.9184,1,,,,,,,,,,,,,,,,,,,,,,,,-0.100925846,-0.391666693,0,0,0,,,,,,,CRADLE,HB,z,y,./images/CRADLEHB.png,,,,,,,,,,,,,,,,,,,,z,1,0.9184,,,,,,,,0,97,97,104,1
,,,,,,,,,,,,,,,,,5c8570c3bce73c00178c4dc6,50,2022-02-12_12h36.47.823,lexical_decision_task_DD_L6,2021.2.3,Win32,60.03121623,,,,,,,,,,,0.8167,1,,,,,,,,,,,,,,,,,,,,,,,,-0.100925846,-0.391666693,0,0,0,,,,,,,JUNGLE,HB,z,y,./images/JUNGLEHB.png,,,,,,,,,,,,,,,,,,,,z,1,0.8167,,,,,,,,0,98,98,167,1
,,,,,,,,,,,,,,,,,5c8570c3bce73c00178c4dc6,50,2022-02-12_12h36.47.823,lexical_decision_task_DD_L6,2021.2.3,Win32,60.03121623,,,,,,,,,,,0.9534,1,,,,,,,,,,,,,,,,,,,,,,,,-0.100925846,-0.391666693,0,0,0,,,,,,,WHISKY,HB,m,y,./images/WHISKYHB.png,,,,,,,,,,,,,,,,,,,,m,1,0.9534,,,,,,,,0,99,99,83,1
,,,,,,,,,,,,,,,,,5c8570c3bce73c00178c4dc6,50,2022-02-12_12h36.47.823,lexical_decision_task_DD_L6,2021.2.3,Win32,60.03121623,,,,,,,,,,,0.803,1,,,,,,,,,,,,,,,,,,,,,,,,-0.100925846,-0.391666693,0,0,0,,,,,,,RHINO,LB,z,y,./images/RHINOLB.png,,,,,,,,,,,,,,,,,,,,z,1,0.803,,,,,,,,0,100,100,93,1
,,,,,,,,,,,,,,,,,5c8570c3bce73c00178c4dc6,50,2022-02-12_12h36.47.823,lexical_decision_task_DD_L6,2021.2.3,Win32,60.03121623,,,,,,,,,,,1.0719,1,,,,,,,,,,,,,,,,,,,,,,,,-0.100925846,-0.391666693,0,0,0,,,,,,,GRANNY,HB,m,y,./images/GRANNYHB.png,,,,,,,,,,,,,,,,,,,,m,1,1.0719,,,,,,,,0,101,101,20,1
,,,,,,,,,,,,,,,,,5c8570c3bce73c00178c4dc6,50,2022-02-12_12h36.47.823,lexical_decision_task_DD_L6,2021.2.3,Win32,60.03121623,,,,,,,,,,,0.8175,0,,,,,,,,,,,,,,,,,,,,,,,,-0.100925846,-0.391666693,0,0,0,,,,,,,GRAIN,LB,z,y,./images/GRAINLB.png,,,,,,,,,,,,,,,,,,,,m,0,0.8175,,,,,,,,0,102,102,159,1
,,,,,,,,,,,,,,,,,5c8570c3bce73c00178c4dc6,50,2022-02-12_12h36.47.823,lexical_decision_task_DD_L6,2021.2.3,Win32,60.03121623,,,,,,,,,,,1.0835,1,,,,,,,,,,,,,,,,,,,,,,,,-0.100925846,-0.391666693,0,0,0,,,,,,,JELLY,C,z,y,./images/JELLY.png,,,,,,,,,,,,,,,,,,,,z,1,1.0835,,,,,,,,0,103,103,148,1
,,,,,,,,,,,,,,,,,5c8570c3bce73c00178c4dc6,50,2022-02-12_12h36.47.823,lexical_decision_task_DD_L6,2021.2.3,Win32,60.03121623,,,,,,,,,,,0.6879,1,,,,,,,,,,,,,,,,,,,,,,,,-0.100925846,-0.391666693,0,0,0,,,,,,,LITTER,LB,z,y,./images/LITTERLB.png,,,,,,,,,,,,,,,,,,,,z,1,0.6879,,,,,,,,0,104,104,162,1
,,,,,,,,,,,,,,,,,5c8570c3bce73c00178c4dc6,50,2022-02-12_12h36.47.823,lexical_decision_task_DD_L6,2021.2.3,Win32,60.03121623,,,,,,,,,,,0.6257,1,,,,,,,,,,,,,,,,,,,,,,,,-0.100925846,-0.391666693,0,0,0,,,,,,,PENCE,C,z,y,./images/PENCE.png,,,,,,,,,,,,,,,,,,,,z,1,0.6257,,,,,,,,0,105,105,100,1
,,,,,,,,,,,,,,,,,5c8570c3bce73c00178c4dc6,50,2022-02-12_12h36.47.823,lexical_decision_task_DD_L6,2021.2.3,Win32,60.03121623,,,,,,,,,,,0.5676,1,,,,,,,,,,,,,,,,,,,,,,,,-0.100925846,-0.391666693,0,0,0,,,,,,,SUNSET,C,z,y,./images/SUNSET.png,,,,,,,,,,,,,,,,,,,,z,1,0.5676,,,,,,,,0,106,106,166,1
,,,,,,,,,,,,,,,,,5c8570c3bce73c00178c4dc6,50,2022-02-12_12h36.47.823,lexical_decision_task_DD_L6,2021.2.3,Win32,60.03121623,,,,,,,,,,,0.6664,1,,,,,,,,,,,,,,,,,,,,,,,,-0.100925846,-0.391666693,0,0,0,,,,,,,STORM,LB,z,y,./images/STORMLB.png,,,,,,,,,,,,,,,,,,,,z,1,0.6664,,,,,,,,0,107,107,114,1
,,,,,,,,,,,,,,,,,5c8570c3bce73c00178c4dc6,50,2022-02-12_12h36.47.823,lexical_decision_task_DD_L6,2021.2.3,Win32,60.03121623,,,,,,,,,,,0.6352,1,,,,,,,,,,,,,,,,,,,,,,,,-0.100925846,-0.391666693,0,0,0,,,,,,,MUSCLE,C,z,y,./images/MUSCLE.png,,,,,,,,,,,,,,,,,,,,z,1,0.6352,,,,,,,,0,108,108,88,1
,,,,,,,,,,,,,,,,,5c8570c3bce73c00178c4dc6,50,2022-02-12_12h36.47.823,lexical_decision_task_DD_L6,2021.2.3,Win32,60.03121623,,,,,,,,,,,0.9203,0,,,,,,,,,,,,,,,,,,,,,,,,-0.100925846,-0.391666693,0,0,0,,,,,,,BUTTER,LB,m,y,./images/BUTTERLB.png,,,,,,,,,,,,,,,,,,,,z,0,0.9203,,,,,,,,0,109,109,27,1
,,,,,,,,,,,,,,,,,5c8570c3bce73c00178c4dc6,50,2022-02-12_12h36.47.823,lexical_decision_task_DD_L6,2021.2.3,Win32,60.03121623,,,,,,,,,,,0.5837,1,,,,,,,,,,,,,,,,,,,,,,,,-0.100925846,-0.391666693,0,0,0,,,,,,,BELLY,C,z,y,./images/BELLY.png,,,,,,,,,,,,,,,,,,,,z,1,0.5837,,,,,,,,0,110,110,94,1
,,,,,,,,,,,,,,,,,5c8570c3bce73c00178c4dc6,50,2022-02-12_12h36.47.823,lexical_decision_task_DD_L6,2021.2.3,Win32,60.03121623,,,,,,,,,,,0.8698,0,,,,,,,,,,,,,,,,,,,,,,,,-0.100925846,-0.391666693,0,0,0,,,,,,,NOOSE,LB,z,y,./images/NOOSELB.png,,,,,,,,,,,,,,,,,,,,m,0,0.8698,,,,,,,,0,111,111,156,1
,,,,,,,,,,,,,,,,,5c8570c3bce73c00178c4dc6,50,2022-02-12_12h36.47.823,lexical_decision_task_DD_L6,2021.2.3,Win32,60.03121623,,,,,,,,,,,0.7053,1,,,,,,,,,,,,,,,,,,,,,,,,-0.100925846,-0.391666693,0,0,0,,,,,,,BLOKE,LB,m,y,./images/BLOKELB.png,,,,,,,,,,,,,,,,,,,,m,1,0.7053,,,,,,,,0,112,112,12,1
,,,,,,,,,,,,,,,,,5c8570c3bce73c00178c4dc6,50,2022-02-12_12h36.47.823,lexical_decision_task_DD_L6,2021.2.3,Win32,60.03121623,,,,,,,,,,,0.7165,1,,,,,,,,,,,,,,,,,,,,,,,,-0.100925846,-0.391666693,0,0,0,,,,,,,WALNUT,LB,m,y,./images/WALNUTLB.png,,,,,,,,,,,,,,,,,,,,m,1,0.7165,,,,,,,,0,113,113,0,1
,,,,,,,,,,,,,,,,,5c8570c3bce73c00178c4dc6,50,2022-02-12_12h36.47.823,lexical_decision_task_DD_L6,2021.2.3,Win32,60.03121623,,,,,,,,,,,0.6331,1,,,,,,,,,,,,,,,,,,,,,,,,-0.100925846,-0.391666693,0,0,0,,,,,,,DESERT,C,m,y,./images/DESERT.png,,,,,,,,,,,,,,,,,,,,m,1,0.6331,,,,,,,,0,114,114,52,1
,,,,,,,,,,,,,,,,,5c8570c3bce73c00178c4dc6,50,2022-02-12_12h36.47.823,lexical_decision_task_DD_L6,2021.2.3,Win32,60.03121623,,,,,,,,,,,0.8532,1,,,,,,,,,,,,,,,,,,,,,,,,-0.100925846,-0.391666693,0,0,0,,,,,,,MAGGOT,LB,z,y,./images/MAGGOTLB.png,,,,,,,,,,,,,,,,,,,,z,1,0.8532,,,,,,,,0,115,115,117,1
,,,,,,,,,,,,,,,,,5c8570c3bce73c00178c4dc6,50,2022-02-12_12h36.47.823,lexical_decision_task_DD_L6,2021.2.3,Win32,60.03121623,,,,,,,,,,,0.7687,1,,,,,,,,,,,,,,,,,,,,,,,,-0.100925846,-0.391666693,0,0,0,,,,,,,PLANK,C,z,y,./images/PLANK.png,,,,,,,,,,,,,,,,,,,,z,1,0.7687,,,,,,,,0,116,116,85,1
,,,,,,,,,,,,,,,,,5c8570c3bce73c00178c4dc6,50,2022-02-12_12h36.47.823,lexical_decision_task_DD_L6,2021.2.3,Win32,60.03121623,,,,,,,,,,,0.7068,1,,,,,,,,,,,,,,,,,,,,,,,,-0.100925846,-0.391666693,0,0,0,,,,,,,BAMBOO,HB,m,y,./images/BAMBOOHB.png,,,,,,,,,,,,,,,,,,,,m,1,0.7068,,,,,,,,0,117,117,5,1
,,,,,,,,,,,,,,,,,5c8570c3bce73c00178c4dc6,50,2022-02-12_12h36.47.823,lexical_decision_task_DD_L6,2021.2.3,Win32,60.03121623,,,,,,,,,,,0.7224,1,,,,,,,,,,,,,,,,,,,,,,,,-0.100925846,-0.391666693,0,0,0,,,,,,,BARREL,HB,z,y,./images/BARRELHB.png,,,,,,,,,,,,,,,,,,,,z,1,0.7224,,,,,,,,0,118,118,116,1
,,,,,,,,,,,,,,,,,5c8570c3bce73c00178c4dc6,50,2022-02-12_12h36.47.823,lexical_decision_task_DD_L6,2021.2.3,Win32,60.03121623,,,,,,,,,,,0.7168,1,,,,,,,,,,,,,,,,,,,,,,,,-0.100925846,-0.391666693,0,0,0,,,,,,,PLANET,HB,m,y,./images/PLANETHB.png,,,,,,,,,,,,,,,,,,,,m,1,0.7168,,,,,,,,0,119,119,80,1
,,,,,,,,,,,,,,,,,5c8570c3bce73c00178c4dc6,50,2022-02-12_12h36.47.823,lexical_decision_task_DD_L6,2021.2.3,Win32,60.03121623,,,,,,,,,,,0.6337,1,,,,,,,,,,,,,,,,,,,,,,,,-0.100925846,-0.391666693,0,0,0,,,,,,,ARROW,LB,m,y,./images/ARROWLB.png,,,,,,,,,,,,,,,,,,,,m,1,0.6337,,,,,,,,0,120,120,69,1
,,,,,,,,,,,,,,,,,5c8570c3bce73c00178c4dc6,50,2022-02-12_12h36.47.823,lexical_decision_task_DD_L6,2021.2.3,Win32,60.03121623,,,,,,,,,,,0.6838,0,,,,,,,,,,,,,,,,,,,,,,,,-0.100925846,-0.391666693,0,0,0,,,,,,,HEATER,HB,m,y,./images/HEATERHB.png,,,,,,,,,,,,,,,,,,,,z,0,0.6838,,,,,,,,0,121,121,56,1
,,,,,,,,,,,,,,,,,5c8570c3bce73c00178c4dc6,50,2022-02-12_12h36.47.823,lexical_decision_task_DD_L6,2021.2.3,Win32,60.03121623,,,,,,,,,,,0.8859,1,,,,,,,,,,,,,,,,,,,,,,,,-0.100925846,-0.391666693,0,0,0,,,,,,,LADDER,HB,z,y,./images/LADDERHB.png,,,,,,,,,,,,,,,,,,,,z,1,0.8859,,,,,,,,0,122,122,122,1
,,,,,,,,,,,,,,,,,5c8570c3bce73c00178c4dc6,50,2022-02-12_12h36.47.823,lexical_decision_task_DD_L6,2021.2.3,Win32,60.03121623,,,,,,,,,,,1.0821,1,,,,,,,,,,,,,,,,,,,,,,,,-0.100925846,-0.391666693,0,0,0,,,,,,,SWEAT,LB,z,y,./images/SWEATLB.png,,,,,,,,,,,,,,,,,,,,z,1,1.0821,,,,,,,,0,123,123,150,1
,,,,,,,,,,,,,,,,,5c8570c3bce73c00178c4dc6,50,2022-02-12_12h36.47.823,lexical_decision_task_DD_L6,2021.2.3,Win32,60.03121623,,,,,,,,,,,0.6122,1,,,,,,,,,,,,,,,,,,,,,,,,-0.100925846,-0.391666693,0,0,0,,,,,,,SAUNA,LB,m,y,./images/SAUNALB.png,,,,,,,,,,,,,,,,,,,,m,1,0.6122,,,,,,,,0,124,124,33,1
,,,,,,,,,,,,,,,,,5c8570c3bce73c00178c4dc6,50,2022-02-12_12h36.47.823,lexical_decision_task_DD_L6,2021.2.3,Win32,60.03121623,,,,,,,,,,,0.7169,1,,,,,,,,,,,,,,,,,,,,,,,,-0.100925846,-0.391666693,1,0,0,,,,,,,THROAT,LB,z,y,./images/THROATLB.png,break_done_button,,,,,,,,,,,,,,,,,,,z,1,0.7169,,,,,,,,0,125,125,120,1
,,,,,,,,,,,,,,,,,5c8570c3bce73c00178c4dc6,50,2022-02-12_12h36.47.823,lexical_decision_task_DD_L6,2021.2.3,Win32,60.03121623,,,,,,,,,,,0.9374,1,,,,,,,,,,,,,,,,,,,,,,,,-0.100925846,-0.391666693,0,0,0,,,,,,,MOSQUE,C,z,y,./images/MOSQUE.png,,,,,,,,,,,,,,,,,,,,z,1,0.9374,,,,,,,,0,126,126,127,1
,,,,,,,,,,,,,,,,,5c8570c3bce73c00178c4dc6,50,2022-02-12_12h36.47.823,lexical_decision_task_DD_L6,2021.2.3,Win32,60.03121623,,,,,,,,,,,0.6841,0,,,,,,,,,,,,,,,,,,,,,,,,-0.100925846,-0.391666693,0,0,0,,,,,,,MOTOR,C,z,y,./images/MOTOR.png,,,,,,,,,,,,,,,,,,,,m,0,0.6841,,,,,,,,0,127,127,97,1
,,,,,,,,,,,,,,,,,5c8570c3bce73c00178c4dc6,50,2022-02-12_12h36.47.823,lexical_decision_task_DD_L6,2021.2.3,Win32,60.03121623,,,,,,,,,,,0.6098,0,,,,,,,,,,,,,,,,,,,,,,,,-0.100925846,-0.391666693,0,0,0,,,,,,,DRILL,LB,m,y,./images/DRILLLB.png,,,,,,,,,,,,,,,,,,,,z,0,0.6098,,,,,,,,0,128,128,81,1
,,,,,,,,,,,,,,,,,5c8570c3bce73c00178c4dc6,50,2022-02-12_12h36.47.823,lexical_decision_task_DD_L6,2021.2.3,Win32,60.03121623,,,,,,,,,,,0.8847,0,,,,,,,,,,,,,,,,,,,,,,,,-0.100925846,-0.391666693,0,0,0,,,,,,,CLOWN,C,m,y,./images/CLOWN.png,,,,,,,,,,,,,,,,,,,,z,0,0.8847,,,,,,,,0,129,129,22,1
,,,,,,,,,,,,,,,,,5c8570c3bce73c00178c4dc6,50,2022-02-12_12h36.47.823,lexical_decision_task_DD_L6,2021.2.3,Win32,60.03121623,,,,,,,,,,,0.658,0,,,,,,,,,,,,,,,,,,,,,,,,-0.100925846,-0.391666693,0,0,0,,,,,,,ATTIC,LB,z,y,./images/ATTICLB.png,,,,,,,,,,,,,,,,,,,,m,0,0.658,,,,,,,,0,130,130,111,1
,,,,,,,,,,,,,,,,,5c8570c3bce73c00178c4dc6,50,2022-02-12_12h36.47.823,lexical_decision_task_DD_L6,2021.2.3,Win32,60.03121623,,,,,,,,,,,0.6598,1,,,,,,,,,,,,,,,,,,,,,,,,-0.100925846,-0.391666693,0,0,0,,,,,,,PISTOL,HB,m,y,./images/PISTOLHB.png,,,,,,,,,,,,,,,,,,,,m,1,0.6598,,,,,,,,0,131,131,29,1
,,,,,,,,,,,,,,,,,5c8570c3bce73c00178c4dc6,50,2022-02-12_12h36.47.823,lexical_decision_task_DD_L6,2021.2.3,Win32,60.03121623,,,,,,,,,,,0.6124,1,,,,,,,,,,,,,,,,,,,,,,,,-0.100925846,-0.391666693,0,0,0,,,,,,,SLOPE,LB,m,y,./images/SLOPELB.png,,,,,,,,,,,,,,,,,,,,m,1,0.6124,,,,,,,,0,132,132,30,1
