key_resp.keys,instr_done_touch.x,instr_done_touch.y,instr_done_touch.leftButton,instr_done_touch.midButton,instr_done_touch.rightButton,instr_done_touch.clicked_name,instruction_pages.thisRepN,instruction_pages.thisTrialN,instruction_pages.thisN,instruction_pages.thisIndex,instruction_pages.ran,pageN,phase,instruct_text,has_image,instruct_image,participant,age,date,expName,psychopyVersion,OS,frameRate,key_resp.rt,response.keys,response.corr,response.rt,touch_resp.x,touch_resp.y,touch_resp.leftButton,touch_resp.midButton,touch_resp.rightButton,touch_resp.time,touch_resp.clicked_name,rt,corr,practrials.thisRepN,practrials.thisTrialN,practrials.thisN,practrials.thisIndex,practrials.ran,TrialID,Target,corrAns,end_of_practice_trials_pages.thisRepN,end_of_practice_trials_pages.thisTrialN,end_of_practice_trials_pages.thisN,end_of_practice_trials_pages.thisIndex,end_of_practice_trials_pages.ran,key_resp_2.keys,key_resp_2.corr,key_resp_2.rt,targ_click.x,targ_click.y,targ_click.leftButton,targ_click.midButton,targ_click.rightButton,targ_click.time,targ_click.clicked_name,break_done_touch.x,break_done_touch.y,break_done_touch.leftButton,break_done_touch.midButton,break_done_touch.rightButton,break_done_keyboard.keys,maintrials.thisRepN,maintrials.thisTrialN,maintrials.thisN,maintrials.thisIndex,maintrials.ran,string,blur,study,lex,stim_path,break_done_keyboard.rt,mouse_2.x,mouse_2.y,mouse_2.leftButton,mouse_2.midButton,mouse_2.rightButton,mouse_2.clicked_name,slider.response,slider.rt,trials.thisRepN,trials.thisTrialN,trials.thisN,trials.thisIndex,trials.ran,test_instructions.thisRepN,test_instructions.thisTrialN,test_instructions.thisN,test_instructions.thisIndex,test_instructions.ran,key_resp_3.keys,key_resp_3.corr,key_resp_3.rt,test_click.x,test_click.y,test_click.leftButton,test_click.midButton,test_click.rightButton,test_click.time,test_click.clicked_name,test_phase.thisRepN,test_phase.thisTrialN,test_phase.thisN,test_phase.thisIndex,test_phase.ran
,0.057246094,-0.400712891,1,0,0,instr_done_button,0,0,0,0,1,1,instructions,"INSTRUCTIONS
At the start of each trial, look at the plus sign  (+) in the center of the screen.  This tells you that a trial is about to begin and where to look. Second, the plus sign will disappear and a string of letters will appear. Your task is to determine if the string of letters is a word or not. If the item is a word press the M key (on keyboard)  or touch the word button (phone/tablet).  If the item is not a word,  press the  Z key (on keyboard)  or touch the nonword button (on phone/tablet). 
Press the space bar or touch  continue.",0,,5cc273c32daae1001787e0f7,42,2022-02-12_14h48.45.024,lexical_decision_task_DD_L6,2021.2.3,MacIntel,60.14675809,,,,,,,,,,,,,,,,,,,,,,,,,,,,,,,,,,,,,,,,,,,,,,,,,,,,,,,,,,,,,,,,,,,,,,,,,,,,,,,,,,,,,,
space,0.04984375,-0.384018555,0,0,0,,0,1,1,1,1,2,instructions,"If your device has a keyboard, press the 'Z' key for nonwords and the 'M' key for words.





Press the space bar or touch the button below to continue.",0,keyboard-example.gif,5cc273c32daae1001787e0f7,42,2022-02-12_14h48.45.024,lexical_decision_task_DD_L6,2021.2.3,MacIntel,60.14675809,11.1792,,,,,,,,,,,,,,,,,,,,,,,,,,,,,,,,,,,,,,,,,,,,,,,,,,,,,,,,,,,,,,,,,,,,,,,,,,,,,,,,,,,,,
space,0.04984375,-0.384018555,0,0,0,,0,2,2,2,1,3,instructions,"If you are using a touchscreen only device, use the buttons on the screen. Do not use the mouse.





Press the space bar or touch the button below to continue.",0,touchscreen-example.gif,5cc273c32daae1001787e0f7,42,2022-02-12_14h48.45.024,lexical_decision_task_DD_L6,2021.2.3,MacIntel,60.14675809,3.0723,,,,,,,,,,,,,,,,,,,,,,,,,,,,,,,,,,,,,,,,,,,,,,,,,,,,,,,,,,,,,,,,,,,,,,,,,,,,,,,,,,,,,
space,0.04984375,-0.384018555,0,0,0,,0,3,3,3,1,4,instructions,"It is very important that you respond as quickly and accurately as possible, as each letter string will only be on the screen for two seconds. If you do not respond within this time, the message 'Too slow!' will be displayed and the experiment will progress to the next letter string. The first 20 trials will be practice trials and you will receive feedback on your answers. 

Press the space bar or touch the button below to start the practice trials.",0,,5cc273c32daae1001787e0f7,42,2022-02-12_14h48.45.024,lexical_decision_task_DD_L6,2021.2.3,MacIntel,60.14675809,19.4809,,,,,,,,,,,,,,,,,,,,,,,,,,,,,,,,,,,,,,,,,,,,,,,,,,,,,,,,,,,,,,,,,,,,,,,,,,,,,,,,,,,,,
,,,,,,,,,,,,,,,,,5cc273c32daae1001787e0f7,42,2022-02-12_14h48.45.024,lexical_decision_task_DD_L6,2021.2.3,MacIntel,60.14675809,,m,1,1.8809,,,,,,,,1.8809,1,0,0,0,6,1,1001,ZOMBIE,m,,,,,,,,,,,,,,,,,,,,,,,,,,,,,,,,,,,,,,,,,,,,,,,,,,,,,,,,,,,,,,,,,
,,,,,,,,,,,,,,,,,5cc273c32daae1001787e0f7,42,2022-02-12_14h48.45.024,lexical_decision_task_DD_L6,2021.2.3,MacIntel,60.14675809,,z,1,0.979,,,,,,,,0.979,1,0,1,1,12,1,1001,SPRINY,z,,,,,,,,,,,,,,,,,,,,,,,,,,,,,,,,,,,,,,,,,,,,,,,,,,,,,,,,,,,,,,,,,
,,,,,,,,,,,,,,,,,5cc273c32daae1001787e0f7,42,2022-02-12_14h48.45.024,lexical_decision_task_DD_L6,2021.2.3,MacIntel,60.14675809,,z,1,0.7261,,,,,,,,0.7261,1,0,2,2,15,1,1001,WHAISE,z,,,,,,,,,,,,,,,,,,,,,,,,,,,,,,,,,,,,,,,,,,,,,,,,,,,,,,,,,,,,,,,,,
,,,,,,,,,,,,,,,,,5cc273c32daae1001787e0f7,42,2022-02-12_14h48.45.024,lexical_decision_task_DD_L6,2021.2.3,MacIntel,60.14675809,,m,1,0.6192,,,,,,,,0.6192,1,0,3,3,1,1,1001,ADJUST,m,,,,,,,,,,,,,,,,,,,,,,,,,,,,,,,,,,,,,,,,,,,,,,,,,,,,,,,,,,,,,,,,,
,,,,,,,,,,,,,,,,,5cc273c32daae1001787e0f7,42,2022-02-12_14h48.45.024,lexical_decision_task_DD_L6,2021.2.3,MacIntel,60.14675809,,z,1,0.6303,,,,,,,,0.6303,1,0,4,4,13,1,1001,ROUPET,z,,,,,,,,,,,,,,,,,,,,,,,,,,,,,,,,,,,,,,,,,,,,,,,,,,,,,,,,,,,,,,,,,
,,,,,,,,,,,,,,,,,5cc273c32daae1001787e0f7,42,2022-02-12_14h48.45.024,lexical_decision_task_DD_L6,2021.2.3,MacIntel,60.14675809,,m,1,0.5377,,,,,,,,0.5377,1,0,5,5,5,1,1001,OBTAIN,m,,,,,,,,,,,,,,,,,,,,,,,,,,,,,,,,,,,,,,,,,,,,,,,,,,,,,,,,,,,,,,,,,
,,,,,,,,,,,,,,,,,5cc273c32daae1001787e0f7,42,2022-02-12_14h48.45.024,lexical_decision_task_DD_L6,2021.2.3,MacIntel,60.14675809,,m,1,0.7649,,,,,,,,0.7649,1,0,6,6,3,1,1001,MATRIX,m,,,,,,,,,,,,,,,,,,,,,,,,,,,,,,,,,,,,,,,,,,,,,,,,,,,,,,,,,,,,,,,,,
,,,,,,,,,,,,,,,,,5cc273c32daae1001787e0f7,42,2022-02-12_14h48.45.024,lexical_decision_task_DD_L6,2021.2.3,MacIntel,60.14675809,,z,1,0.6382,,,,,,,,0.6382,1,0,7,7,14,1,1001,THRALE,z,,,,,,,,,,,,,,,,,,,,,,,,,,,,,,,,,,,,,,,,,,,,,,,,,,,,,,,,,,,,,,,,,
,,,,,,,,,,,,,,,,,5cc273c32daae1001787e0f7,42,2022-02-12_14h48.45.024,lexical_decision_task_DD_L6,2021.2.3,MacIntel,60.14675809,,m,1,0.5944,,,,,,,,0.5944,1,0,8,8,4,1,1001,SQUEAK,m,,,,,,,,,,,,,,,,,,,,,,,,,,,,,,,,,,,,,,,,,,,,,,,,,,,,,,,,,,,,,,,,,
,,,,,,,,,,,,,,,,,5cc273c32daae1001787e0f7,42,2022-02-12_14h48.45.024,lexical_decision_task_DD_L6,2021.2.3,MacIntel,60.14675809,,z,1,0.7182,,,,,,,,0.7182,1,0,9,9,11,1,1001,RASHET,z,,,,,,,,,,,,,,,,,,,,,,,,,,,,,,,,,,,,,,,,,,,,,,,,,,,,,,,,,,,,,,,,,
,,,,,,,,,,,,,,,,,5cc273c32daae1001787e0f7,42,2022-02-12_14h48.45.024,lexical_decision_task_DD_L6,2021.2.3,MacIntel,60.14675809,,m,1,0.5128,,,,,,,,0.5128,1,0,10,10,7,1,1001,VOLUME,m,,,,,,,,,,,,,,,,,,,,,,,,,,,,,,,,,,,,,,,,,,,,,,,,,,,,,,,,,,,,,,,,,
,,,,,,,,,,,,,,,,,5cc273c32daae1001787e0f7,42,2022-02-12_14h48.45.024,lexical_decision_task_DD_L6,2021.2.3,MacIntel,60.14675809,,z,1,0.7022,,,,,,,,0.7022,1,0,11,11,8,1,1001,ASLERT,z,,,,,,,,,,,,,,,,,,,,,,,,,,,,,,,,,,,,,,,,,,,,,,,,,,,,,,,,,,,,,,,,,
,,,,,,,,,,,,,,,,,5cc273c32daae1001787e0f7,42,2022-02-12_14h48.45.024,lexical_decision_task_DD_L6,2021.2.3,MacIntel,60.14675809,,m,1,0.6117,,,,,,,,0.6117,1,0,12,12,0,1,1001,UTOPIA,m,,,,,,,,,,,,,,,,,,,,,,,,,,,,,,,,,,,,,,,,,,,,,,,,,,,,,,,,,,,,,,,,,
,,,,,,,,,,,,,,,,,5cc273c32daae1001787e0f7,42,2022-02-12_14h48.45.024,lexical_decision_task_DD_L6,2021.2.3,MacIntel,60.14675809,,m,1,0.5986,,,,,,,,0.5986,1,0,13,13,2,1,1001,ALMOND,m,,,,,,,,,,,,,,,,,,,,,,,,,,,,,,,,,,,,,,,,,,,,,,,,,,,,,,,,,,,,,,,,,
,,,,,,,,,,,,,,,,,5cc273c32daae1001787e0f7,42,2022-02-12_14h48.45.024,lexical_decision_task_DD_L6,2021.2.3,MacIntel,60.14675809,,z,1,0.6796,,,,,,,,0.6796,1,0,14,14,9,1,1001,FARINY,z,,,,,,,,,,,,,,,,,,,,,,,,,,,,,,,,,,,,,,,,,,,,,,,,,,,,,,,,,,,,,,,,,
,,,,,,,,,,,,,,,,,5cc273c32daae1001787e0f7,42,2022-02-12_14h48.45.024,lexical_decision_task_DD_L6,2021.2.3,MacIntel,60.14675809,,z,1,0.6249,,,,,,,,0.6249,1,0,15,15,10,1,1001,INLADE,z,,,,,,,,,,,,,,,,,,,,,,,,,,,,,,,,,,,,,,,,,,,,,,,,,,,,,,,,,,,,,,,,,
space,0.04984375,-0.384018555,0,0,0,,,,,,,1,end_of_practice,"You have completed the practice trials. During the experimental trials, you will not receive feedback. 
Before you begin, please ensure that you are in a comfortable and quiet location and will not be disturbed for about 15 minutes, as we cannot use your data if you do not complete all the trials. 
 When you are ready to start the experimental trials, please press space or touch the button below.",,,5cc273c32daae1001787e0f7,42,2022-02-12_14h48.45.024,lexical_decision_task_DD_L6,2021.2.3,MacIntel,60.14675809,2.6145,,,,,,,,,,,,,,,,,,,,,0,0,0,0,1,,,,,,,,,,,,,,,,,,,,,,,,,,,,,,,,,,,,,,,,,,,,,,,,,,,,,,,,,,,,
,,,,,,,,,,,,,,,,,5cc273c32daae1001787e0f7,42,2022-02-12_14h48.45.024,lexical_decision_task_DD_L6,2021.2.3,MacIntel,60.14675809,,,,,,,,,,,,0.8385,1,,,,,,,,,,,,,,z,1,0.8385,,,,,,,,0.04984375,-0.384018555,0,0,0,,0,0,0,153,1,CLUPS,C,z,z,./images/CLUPS.png,,,,,,,,,,,,,,,,,,,,,,,,,,,,,,,,,,
,,,,,,,,,,,,,,,,,5cc273c32daae1001787e0f7,42,2022-02-12_14h48.45.024,lexical_decision_task_DD_L6,2021.2.3,MacIntel,60.14675809,,,,,,,,,,,,0.612,1,,,,,,,,,,,,,,m,1,0.612,,,,,,,,0.04984375,-0.384018555,0,0,0,,0,1,1,40,1,SNAKE,C,m,m,./images/SNAKE.png,,,,,,,,,,,,,,,,,,,,,,,,,,,,,,,,,,
,,,,,,,,,,,,,,,,,5cc273c32daae1001787e0f7,42,2022-02-12_14h48.45.024,lexical_decision_task_DD_L6,2021.2.3,MacIntel,60.14675809,,,,,,,,,,,,0.7195,1,,,,,,,,,,,,,,m,1,0.7195,,,,,,,,0.04984375,-0.384018555,0,0,0,,0,2,2,69,1,ARROW,LB,m,m,./images/ARROWLB.png,,,,,,,,,,,,,,,,,,,,,,,,,,,,,,,,,,
,,,,,,,,,,,,,,,,,5cc273c32daae1001787e0f7,42,2022-02-12_14h48.45.024,lexical_decision_task_DD_L6,2021.2.3,MacIntel,60.14675809,,,,,,,,,,,,0.4839,1,,,,,,,,,,,,,,m,1,0.4839,,,,,,,,0.04984375,-0.384018555,0,0,0,,0,3,3,72,1,FLASK,LB,m,m,./images/FLASKLB.png,,,,,,,,,,,,,,,,,,,,,,,,,,,,,,,,,,
,,,,,,,,,,,,,,,,,5cc273c32daae1001787e0f7,42,2022-02-12_14h48.45.024,lexical_decision_task_DD_L6,2021.2.3,MacIntel,60.14675809,,,,,,,,,,,,0.5014,1,,,,,,,,,,,,,,m,1,0.5014,,,,,,,,0.04984375,-0.384018555,0,0,0,,0,4,4,10,1,GARDEN,C,m,m,./images/GARDEN.png,,,,,,,,,,,,,,,,,,,,,,,,,,,,,,,,,,
,,,,,,,,,,,,,,,,,5cc273c32daae1001787e0f7,42,2022-02-12_14h48.45.024,lexical_decision_task_DD_L6,2021.2.3,MacIntel,60.14675809,,,,,,,,,,,,0.6925,1,,,,,,,,,,,,,,z,1,0.6925,,,,,,,,0.04984375,-0.384018555,0,0,0,,0,5,5,155,1,CANGY,LB,z,z,./images/CANGYLB.png,,,,,,,,,,,,,,,,,,,,,,,,,,,,,,,,,,
,,,,,,,,,,,,,,,,,5cc273c32daae1001787e0f7,42,2022-02-12_14h48.45.024,lexical_decision_task_DD_L6,2021.2.3,MacIntel,60.14675809,,,,,,,,,,,,0.5296,1,,,,,,,,,,,,,,m,1,0.5296,,,,,,,,0.04984375,-0.384018555,0,0,0,,0,6,6,42,1,CHAIN,LB,m,m,./images/CHAINLB.png,,,,,,,,,,,,,,,,,,,,,,,,,,,,,,,,,,
,,,,,,,,,,,,,,,,,5cc273c32daae1001787e0f7,42,2022-02-12_14h48.45.024,lexical_decision_task_DD_L6,2021.2.3,MacIntel,60.14675809,,,,,,,,,,,,0.6168,1,,,,,,,,,,,,,,z,1,0.6168,,,,,,,,0.04984375,-0.384018555,0,0,0,,0,7,7,104,1,GITTY,LB,z,z,./images/GITTYLB.png,,,,,,,,,,,,,,,,,,,,,,,,,,,,,,,,,,
,,,,,,,,,,,,,,,,,5cc273c32daae1001787e0f7,42,2022-02-12_14h48.45.024,lexical_decision_task_DD_L6,2021.2.3,MacIntel,60.14675809,,,,,,,,,,,,0.7458,1,,,,,,,,,,,,,,z,1,0.7458,,,,,,,,0.04984375,-0.384018555,0,0,0,,0,8,8,167,1,ZONET,LB,z,z,./images/ZONETLB.png,,,,,,,,,,,,,,,,,,,,,,,,,,,,,,,,,,
,,,,,,,,,,,,,,,,,5cc273c32daae1001787e0f7,42,2022-02-12_14h48.45.024,lexical_decision_task_DD_L6,2021.2.3,MacIntel,60.14675809,,,,,,,,,,,,0.7625,1,,,,,,,,,,,,,,m,1,0.7625,,,,,,,,0.04984375,-0.384018555,0,0,0,,0,9,9,56,1,HEATER,HB,m,m,./images/HEATERHB.png,,,,,,,,,,,,,,,,,,,,,,,,,,,,,,,,,,
,,,,,,,,,,,,,,,,,5cc273c32daae1001787e0f7,42,2022-02-12_14h48.45.024,lexical_decision_task_DD_L6,2021.2.3,MacIntel,60.14675809,,,,,,,,,,,,0.8629,1,,,,,,,,,,,,,,z,1,0.8629,,,,,,,,0.04984375,-0.384018555,0,0,0,,0,10,10,107,1,FASKS,LB,z,z,./images/FASKSLB.png,,,,,,,,,,,,,,,,,,,,,,,,,,,,,,,,,,
,,,,,,,,,,,,,,,,,5cc273c32daae1001787e0f7,42,2022-02-12_14h48.45.024,lexical_decision_task_DD_L6,2021.2.3,MacIntel,60.14675809,,,,,,,,,,,,0.8942,1,,,,,,,,,,,,,,z,1,0.8942,,,,,,,,0.04984375,-0.384018555,0,0,0,,0,11,11,113,1,LINEW,LB,z,z,./images/LINEWLB.png,,,,,,,,,,,,,,,,,,,,,,,,,,,,,,,,,,
,,,,,,,,,,,,,,,,,5cc273c32daae1001787e0f7,42,2022-02-12_14h48.45.024,lexical_decision_task_DD_L6,2021.2.3,MacIntel,60.14675809,,,,,,,,,,,,0.5618,1,,,,,,,,,,,,,,m,1,0.5618,,,,,,,,0.04984375,-0.384018555,0,0,0,,0,12,12,76,1,MIDGET,C,m,m,./images/MIDGET.png,,,,,,,,,,,,,,,,,,,,,,,,,,,,,,,,,,
,,,,,,,,,,,,,,,,,5cc273c32daae1001787e0f7,42,2022-02-12_14h48.45.024,lexical_decision_task_DD_L6,2021.2.3,MacIntel,60.14675809,,,,,,,,,,,,1.7429,1,,,,,,,,,,,,,,z,1,1.7429,,,,,,,,0.04984375,-0.384018555,0,0,0,,0,13,13,136,1,WERVE,HB,z,z,./images/WERVEHB.png,,,,,,,,,,,,,,,,,,,,,,,,,,,,,,,,,,
,,,,,,,,,,,,,,,,,5cc273c32daae1001787e0f7,42,2022-02-12_14h48.45.024,lexical_decision_task_DD_L6,2021.2.3,MacIntel,60.14675809,,,,,,,,,,,,0.6589,1,,,,,,,,,,,,,,m,1,0.6589,,,,,,,,0.04984375,-0.384018555,0,0,0,,0,14,14,48,1,SHIELD,LB,m,m,./images/SHIELDLB.png,,,,,,,,,,,,,,,,,,,,,,,,,,,,,,,,,,
,,,,,,,,,,,,,,,,,5cc273c32daae1001787e0f7,42,2022-02-12_14h48.45.024,lexical_decision_task_DD_L6,2021.2.3,MacIntel,60.14675809,,,,,,,,,,,,0.6919,1,,,,,,,,,,,,,,z,1,0.6919,,,,,,,,0.04984375,-0.384018555,0,0,0,,0,15,15,101,1,GLEET,LB,z,z,./images/GLEETLB.png,,,,,,,,,,,,,,,,,,,,,,,,,,,,,,,,,,
,,,,,,,,,,,,,,,,,5cc273c32daae1001787e0f7,42,2022-02-12_14h48.45.024,lexical_decision_task_DD_L6,2021.2.3,MacIntel,60.14675809,,,,,,,,,,,,2.2256,1,,,,,,,,,,,,,,z,1,2.2256,,,,,,,,0.04984375,-0.384018555,0,0,0,,0,16,16,145,1,LAMEL,HB,z,z,./images/LAMELHB.png,,,,,,,,,,,,,,,,,,,,,,,,,,,,,,,,,,
,,,,,,,,,,,,,,,,,5cc273c32daae1001787e0f7,42,2022-02-12_14h48.45.024,lexical_decision_task_DD_L6,2021.2.3,MacIntel,60.14675809,,,,,,,,,,,,0.7491,0,,,,,,,,,,,,,,m,0,0.7491,,,,,,,,0.04984375,-0.384018555,0,0,0,,0,17,17,128,1,GRIFT,LB,z,z,./images/GRIFTLB.png,,,,,,,,,,,,,,,,,,,,,,,,,,,,,,,,,,
,,,,,,,,,,,,,,,,,5cc273c32daae1001787e0f7,42,2022-02-12_14h48.45.024,lexical_decision_task_DD_L6,2021.2.3,MacIntel,60.14675809,,,,,,,,,,,,1.3799,1,,,,,,,,,,,,,,z,1,1.3799,,,,,,,,0.04984375,-0.384018555,0,0,0,,0,18,18,118,1,BAVEL,HB,z,z,./images/BAVELHB.png,,,,,,,,,,,,,,,,,,,,,,,,,,,,,,,,,,
,,,,,,,,,,,,,,,,,5cc273c32daae1001787e0f7,42,2022-02-12_14h48.45.024,lexical_decision_task_DD_L6,2021.2.3,MacIntel,60.14675809,,,,,,,,,,,,0.6176,1,,,,,,,,,,,,,,m,1,0.6176,,,,,,,,0.04984375,-0.384018555,0,0,0,,0,19,19,9,1,DIVER,LB,m,m,./images/DIVERLB.png,,,,,,,,,,,,,,,,,,,,,,,,,,,,,,,,,,
,,,,,,,,,,,,,,,,,5cc273c32daae1001787e0f7,42,2022-02-12_14h48.45.024,lexical_decision_task_DD_L6,2021.2.3,MacIntel,60.14675809,,,,,,,,,,,,1.6265,1,,,,,,,,,,,,,,m,1,1.6265,,,,,,,,0.04984375,-0.384018555,0,0,0,,0,20,20,41,1,STREAM,HB,m,m,./images/STREAMHB.png,,,,,,,,,,,,,,,,,,,,,,,,,,,,,,,,,,
,,,,,,,,,,,,,,,,,5cc273c32daae1001787e0f7,42,2022-02-12_14h48.45.024,lexical_decision_task_DD_L6,2021.2.3,MacIntel,60.14675809,,,,,,,,,,,,1.6015,1,,,,,,,,,,,,,,z,1,1.6015,,,,,,,,0.04984375,-0.384018555,0,0,0,,0,21,21,157,1,INLER,HB,z,z,./images/INLERHB.png,,,,,,,,,,,,,,,,,,,,,,,,,,,,,,,,,,
,,,,,,,,,,,,,,,,,5cc273c32daae1001787e0f7,42,2022-02-12_14h48.45.024,lexical_decision_task_DD_L6,2021.2.3,MacIntel,60.14675809,,,,,,,,,,,,0.7909,1,,,,,,,,,,,,,,z,1,0.7909,,,,,,,,0.04984375,-0.384018555,0,0,0,,0,22,22,96,1,KEAMS,C,z,z,./images/KEAMS.png,,,,,,,,,,,,,,,,,,,,,,,,,,,,,,,,,,
,,,,,,,,,,,,,,,,,5cc273c32daae1001787e0f7,42,2022-02-12_14h48.45.024,lexical_decision_task_DD_L6,2021.2.3,MacIntel,60.14675809,,,,,,,,,,,,0.636,1,,,,,,,,,,,,,,m,1,0.636,,,,,,,,0.04984375,-0.384018555,0,0,0,,0,23,23,16,1,GRAPE,C,m,m,./images/GRAPE.png,,,,,,,,,,,,,,,,,,,,,,,,,,,,,,,,,,
,,,,,,,,,,,,,,,,,5cc273c32daae1001787e0f7,42,2022-02-12_14h48.45.024,lexical_decision_task_DD_L6,2021.2.3,MacIntel,60.14675809,,,,,,,,,,,,0.7494,1,,,,,,,,,,,,,,m,1,0.7494,,,,,,,,0.04984375,-0.384018555,0,0,0,,0,24,24,18,1,PARCEL,LB,m,m,./images/PARCELLB.png,,,,,,,,,,,,,,,,,,,,,,,,,,,,,,,,,,
,,,,,,,,,,,,,,,,,5cc273c32daae1001787e0f7,42,2022-02-12_14h48.45.024,lexical_decision_task_DD_L6,2021.2.3,MacIntel,60.14675809,,,,,,,,,,,,0.6269,1,,,,,,,,,,,,,,z,1,0.6269,,,,,,,,0.04984375,-0.384018555,0,0,0,,0,25,25,87,1,TRING,C,z,z,./images/TRING.png,,,,,,,,,,,,,,,,,,,,,,,,,,,,,,,,,,
,,,,,,,,,,,,,,,,,5cc273c32daae1001787e0f7,42,2022-02-12_14h48.45.024,lexical_decision_task_DD_L6,2021.2.3,MacIntel,60.14675809,,,,,,,,,,,,0.7022,1,,,,,,,,,,,,,,z,1,0.7022,,,,,,,,0.04984375,-0.384018555,0,0,0,,0,26,26,131,1,NACES,LB,z,z,./images/NACESLB.png,,,,,,,,,,,,,,,,,,,,,,,,,,,,,,,,,,
,,,,,,,,,,,,,,,,,5cc273c32daae1001787e0f7,42,2022-02-12_14h48.45.024,lexical_decision_task_DD_L6,2021.2.3,MacIntel,60.14675809,,,,,,,,,,,,1.0456,1,,,,,,,,,,,,,,z,1,1.0456,,,,,,,,0.04984375,-0.384018555,0,0,0,,0,27,27,166,1,SHORY,HB,z,z,./images/SHORYHB.png,,,,,,,,,,,,,,,,,,,,,,,,,,,,,,,,,,
,,,,,,,,,,,,,,,,,5cc273c32daae1001787e0f7,42,2022-02-12_14h48.45.024,lexical_decision_task_DD_L6,2021.2.3,MacIntel,60.14675809,,,,,,,,,,,,1.51,1,,,,,,,,,,,,,,z,1,1.51,,,,,,,,0.04984375,-0.384018555,0,0,0,,0,28,28,121,1,CEERS,HB,z,z,./images/CEERSHB.png,,,,,,,,,,,,,,,,,,,,,,,,,,,,,,,,,,
,,,,,,,,,,,,,,,,,5cc273c32daae1001787e0f7,42,2022-02-12_14h48.45.024,lexical_decision_task_DD_L6,2021.2.3,MacIntel,60.14675809,,,,,,,,,,,,0.5776,1,,,,,,,,,,,,,,m,1,0.5776,,,,,,,,0.04984375,-0.384018555,0,0,0,,0,29,29,37,1,TIGER,C,m,m,./images/TIGER.png,,,,,,,,,,,,,,,,,,,,,,,,,,,,,,,,,,
,,,,,,,,,,,,,,,,,5cc273c32daae1001787e0f7,42,2022-02-12_14h48.45.024,lexical_decision_task_DD_L6,2021.2.3,MacIntel,60.14675809,,,,,,,,,,,,1.0689,1,,,,,,,,,,,,,,m,1,1.0689,,,,,,,,0.04984375,-0.384018555,0,0,0,,0,30,30,44,1,BASKET,HB,m,m,./images/BASKETHB.png,,,,,,,,,,,,,,,,,,,,,,,,,,,,,,,,,,
,,,,,,,,,,,,,,,,,5cc273c32daae1001787e0f7,42,2022-02-12_14h48.45.024,lexical_decision_task_DD_L6,2021.2.3,MacIntel,60.14675809,,,,,,,,,,,,0.6648,1,,,,,,,,,,,,,,z,1,0.6648,,,,,,,,0.04984375,-0.384018555,0,0,0,,0,31,31,156,1,HIXES,C,z,z,./images/HIXES.png,,,,,,,,,,,,,,,,,,,,,,,,,,,,,,,,,,
,,,,,,,,,,,,,,,,,5cc273c32daae1001787e0f7,42,2022-02-12_14h48.45.024,lexical_decision_task_DD_L6,2021.2.3,MacIntel,60.14675809,,,,,,,,,,,,0.7283,1,,,,,,,,,,,,,,z,1,0.7283,,,,,,,,0.04984375,-0.384018555,0,0,0,,0,32,32,158,1,EGECT,LB,z,z,./images/EGECTLB.png,,,,,,,,,,,,,,,,,,,,,,,,,,,,,,,,,,
,,,,,,,,,,,,,,,,,5cc273c32daae1001787e0f7,42,2022-02-12_14h48.45.024,lexical_decision_task_DD_L6,2021.2.3,MacIntel,60.14675809,,,,,,,,,,,,1.5998,1,,,,,,,,,,,,,,m,1,1.5998,,,,,,,,0.04984375,-0.384018555,0,0,0,,0,33,33,77,1,WHEEL,HB,m,m,./images/WHEELHB.png,,,,,,,,,,,,,,,,,,,,,,,,,,,,,,,,,,
,,,,,,,,,,,,,,,,,5cc273c32daae1001787e0f7,42,2022-02-12_14h48.45.024,lexical_decision_task_DD_L6,2021.2.3,MacIntel,60.14675809,,,,,,,,,,,,0.762,1,,,,,,,,,,,,,,m,1,0.762,,,,,,,,0.04984375,-0.384018555,0,0,0,,0,34,34,59,1,BRUSH,HB,m,m,./images/BRUSHHB.png,,,,,,,,,,,,,,,,,,,,,,,,,,,,,,,,,,
,,,,,,,,,,,,,,,,,5cc273c32daae1001787e0f7,42,2022-02-12_14h48.45.024,lexical_decision_task_DD_L6,2021.2.3,MacIntel,60.14675809,,,,,,,,,,,,0.6497,1,,,,,,,,,,,,,,m,1,0.6497,,,,,,,,0.04984375,-0.384018555,0,0,0,,0,35,35,6,1,STAIN,LB,m,m,./images/STAINLB.png,,,,,,,,,,,,,,,,,,,,,,,,,,,,,,,,,,
,,,,,,,,,,,,,,,,,5cc273c32daae1001787e0f7,42,2022-02-12_14h48.45.024,lexical_decision_task_DD_L6,2021.2.3,MacIntel,60.14675809,,,,,,,,,,,,0.5885,1,,,,,,,,,,,,,,z,1,0.5885,,,,,,,,0.04984375,-0.384018555,0,0,0,,0,36,36,116,1,BALGY,LB,z,z,./images/BALGYLB.png,,,,,,,,,,,,,,,,,,,,,,,,,,,,,,,,,,
,,,,,,,,,,,,,,,,,5cc273c32daae1001787e0f7,42,2022-02-12_14h48.45.024,lexical_decision_task_DD_L6,2021.2.3,MacIntel,60.14675809,,,,,,,,,,,,0.6789,1,,,,,,,,,,,,,,z,1,0.6789,,,,,,,,0.04984375,-0.384018555,0,0,0,,0,37,37,95,1,HANTY,LB,z,z,./images/HANTYLB.png,,,,,,,,,,,,,,,,,,,,,,,,,,,,,,,,,,
,,,,,,,,,,,,,,,,,5cc273c32daae1001787e0f7,42,2022-02-12_14h48.45.024,lexical_decision_task_DD_L6,2021.2.3,MacIntel,60.14675809,,,,,,,,,,,,1.3734,1,,,,,,,,,,,,,,z,1,1.3734,,,,,,,,0.04984375,-0.384018555,0,0,0,,0,38,38,112,1,MYING,HB,z,z,./images/MYINGHB.png,,,,,,,,,,,,,,,,,,,,,,,,,,,,,,,,,,
,,,,,,,,,,,,,,,,,5cc273c32daae1001787e0f7,42,2022-02-12_14h48.45.024,lexical_decision_task_DD_L6,2021.2.3,MacIntel,60.14675809,,,,,,,,,,,,0.7453,1,,,,,,,,,,,,,,z,1,0.7453,,,,,,,,0.04984375,-0.384018555,0,0,0,,0,39,39,123,1,SEDGE,C,z,z,./images/SEDGE.png,,,,,,,,,,,,,,,,,,,,,,,,,,,,,,,,,,
,,,,,,,,,,,,,,,,,5cc273c32daae1001787e0f7,42,2022-02-12_14h48.45.024,lexical_decision_task_DD_L6,2021.2.3,MacIntel,60.14675809,,,,,,,,,,,,2.3166,1,,,,,,,,,,,,,,m,1,2.3166,,,,,,,,0.04984375,-0.384018555,0,0,0,,0,40,40,11,1,MEDAL,HB,m,m,./images/MEDALHB.png,,,,,,,,,,,,,,,,,,,,,,,,,,,,,,,,,,
,,,,,,,,,,,,,,,,,5cc273c32daae1001787e0f7,42,2022-02-12_14h48.45.024,lexical_decision_task_DD_L6,2021.2.3,MacIntel,60.14675809,,,,,,,,,,,,0.6397,1,,,,,,,,,,,,,,m,1,0.6397,,,,,,,,0.04984375,-0.384018555,0,0,0,space,0,41,41,13,1,BUNNY,C,m,m,./images/BUNNY.png,3.0756,,,,,,,,,,,,,,,,,,,,,,,,,,,,,,,,,
,,,,,,,,,,,,,,,,,5cc273c32daae1001787e0f7,42,2022-02-12_14h48.45.024,lexical_decision_task_DD_L6,2021.2.3,MacIntel,60.14675809,,,,,,,,,,,,0.6292,1,,,,,,,,,,,,,,z,1,0.6292,,,,,,,,0.04984375,-0.384018555,0,0,0,,0,42,42,132,1,SCIFF,C,z,z,./images/SCIFF.png,,,,,,,,,,,,,,,,,,,,,,,,,,,,,,,,,,
,,,,,,,,,,,,,,,,,5cc273c32daae1001787e0f7,42,2022-02-12_14h48.45.024,lexical_decision_task_DD_L6,2021.2.3,MacIntel,60.14675809,,,,,,,,,,,,0.6619,1,,,,,,,,,,,,,,z,1,0.6619,,,,,,,,0.04984375,-0.384018555,0,0,0,,0,43,43,89,1,DRIEK,LB,z,z,./images/DRIEKLB.png,,,,,,,,,,,,,,,,,,,,,,,,,,,,,,,,,,
,,,,,,,,,,,,,,,,,5cc273c32daae1001787e0f7,42,2022-02-12_14h48.45.024,lexical_decision_task_DD_L6,2021.2.3,MacIntel,60.14675809,,,,,,,,,,,,0.5113,1,,,,,,,,,,,,,,m,1,0.5113,,,,,,,,0.04984375,-0.384018555,0,0,0,,0,44,44,27,1,BUTTER,LB,m,m,./images/BUTTERLB.png,,,,,,,,,,,,,,,,,,,,,,,,,,,,,,,,,,
,,,,,,,,,,,,,,,,,5cc273c32daae1001787e0f7,42,2022-02-12_14h48.45.024,lexical_decision_task_DD_L6,2021.2.3,MacIntel,60.14675809,,,,,,,,,,,,0.5435,1,,,,,,,,,,,,,,m,1,0.5435,,,,,,,,0.04984375,-0.384018555,0,0,0,,0,45,45,21,1,DANCER,LB,m,m,./images/DANCERLB.png,,,,,,,,,,,,,,,,,,,,,,,,,,,,,,,,,,
,,,,,,,,,,,,,,,,,5cc273c32daae1001787e0f7,42,2022-02-12_14h48.45.024,lexical_decision_task_DD_L6,2021.2.3,MacIntel,60.14675809,,,,,,,,,,,,0.6289,1,,,,,,,,,,,,,,z,1,0.6289,,,,,,,,0.04984375,-0.384018555,0,0,0,,0,46,46,144,1,NAIRY,C,z,z,./images/NAIRY.png,,,,,,,,,,,,,,,,,,,,,,,,,,,,,,,,,,
,,,,,,,,,,,,,,,,,5cc273c32daae1001787e0f7,42,2022-02-12_14h48.45.024,lexical_decision_task_DD_L6,2021.2.3,MacIntel,60.14675809,,,,,,,,,,,,0.8292,1,,,,,,,,,,,,,,m,1,0.8292,,,,,,,,0.04984375,-0.384018555,0,0,0,,0,47,47,23,1,CLOTH,HB,m,m,./images/CLOTHHB.png,,,,,,,,,,,,,,,,,,,,,,,,,,,,,,,,,,
,,,,,,,,,,,,,,,,,5cc273c32daae1001787e0f7,42,2022-02-12_14h48.45.024,lexical_decision_task_DD_L6,2021.2.3,MacIntel,60.14675809,,,,,,,,,,,,0.6548,1,,,,,,,,,,,,,,m,1,0.6548,,,,,,,,0.04984375,-0.384018555,0,0,0,,0,48,48,49,1,BISHOP,C,m,m,./images/BISHOP.png,,,,,,,,,,,,,,,,,,,,,,,,,,,,,,,,,,
,,,,,,,,,,,,,,,,,5cc273c32daae1001787e0f7,42,2022-02-12_14h48.45.024,lexical_decision_task_DD_L6,2021.2.3,MacIntel,60.14675809,,,,,,,,,,,,2.1069,0,,,,,,,,,,,,,,m,0,2.1069,,,,,,,,0.04984375,-0.384018555,0,0,0,,0,49,49,130,1,CRILL,HB,z,z,./images/CRILLHB.png,,,,,,,,,,,,,,,,,,,,,,,,,,,,,,,,,,
,,,,,,,,,,,,,,,,,5cc273c32daae1001787e0f7,42,2022-02-12_14h48.45.024,lexical_decision_task_DD_L6,2021.2.3,MacIntel,60.14675809,,,,,,,,,,,,0.6054,1,,,,,,,,,,,,,,m,1,0.6054,,,,,,,,0.04984375,-0.384018555,0,0,0,,0,50,50,25,1,CHALK,C,m,m,./images/CHALK.png,,,,,,,,,,,,,,,,,,,,,,,,,,,,,,,,,,
,,,,,,,,,,,,,,,,,5cc273c32daae1001787e0f7,42,2022-02-12_14h48.45.024,lexical_decision_task_DD_L6,2021.2.3,MacIntel,60.14675809,,,,,,,,,,,,1.2232,1,,,,,,,,,,,,,,m,1,1.2232,,,,,,,,0.04984375,-0.384018555,0,0,0,,0,51,51,8,1,CLIFF,HB,m,m,./images/CLIFFHB.png,,,,,,,,,,,,,,,,,,,,,,,,,,,,,,,,,,
,,,,,,,,,,,,,,,,,5cc273c32daae1001787e0f7,42,2022-02-12_14h48.45.024,lexical_decision_task_DD_L6,2021.2.3,MacIntel,60.14675809,,,,,,,,,,,,0.6558,1,,,,,,,,,,,,,,z,1,0.6558,,,,,,,,0.04984375,-0.384018555,0,0,0,,0,52,52,141,1,PLEET,C,z,z,./images/PLEET.png,,,,,,,,,,,,,,,,,,,,,,,,,,,,,,,,,,
,,,,,,,,,,,,,,,,,5cc273c32daae1001787e0f7,42,2022-02-12_14h48.45.024,lexical_decision_task_DD_L6,2021.2.3,MacIntel,60.14675809,,,,,,,,,,,,0.5733,1,,,,,,,,,,,,,,m,1,0.5733,,,,,,,,0.04984375,-0.384018555,0,0,0,,0,53,53,31,1,STEAK,C,m,m,./images/STEAK.png,,,,,,,,,,,,,,,,,,,,,,,,,,,,,,,,,,
,,,,,,,,,,,,,,,,,5cc273c32daae1001787e0f7,42,2022-02-12_14h48.45.024,lexical_decision_task_DD_L6,2021.2.3,MacIntel,60.14675809,,,,,,,,,,,,1.0182,1,,,,,,,,,,,,,,z,1,1.0182,,,,,,,,0.04984375,-0.384018555,0,0,0,,0,54,54,114,1,RIKES,C,z,z,./images/RIKES.png,,,,,,,,,,,,,,,,,,,,,,,,,,,,,,,,,,
,,,,,,,,,,,,,,,,,5cc273c32daae1001787e0f7,42,2022-02-12_14h48.45.024,lexical_decision_task_DD_L6,2021.2.3,MacIntel,60.14675809,,,,,,,,,,,,0.7797,1,,,,,,,,,,,,,,z,1,0.7797,,,,,,,,0.04984375,-0.384018555,0,0,0,,0,55,55,143,1,MONGS,LB,z,z,./images/MONGSLB.png,,,,,,,,,,,,,,,,,,,,,,,,,,,,,,,,,,
,,,,,,,,,,,,,,,,,5cc273c32daae1001787e0f7,42,2022-02-12_14h48.45.024,lexical_decision_task_DD_L6,2021.2.3,MacIntel,60.14675809,,,,,,,,,,,,1.1613,1,,,,,,,,,,,,,,z,1,1.1613,,,,,,,,0.04984375,-0.384018555,0,0,0,,0,56,56,103,1,FLORT,HB,z,z,./images/FLORTHB.png,,,,,,,,,,,,,,,,,,,,,,,,,,,,,,,,,,
,,,,,,,,,,,,,,,,,5cc273c32daae1001787e0f7,42,2022-02-12_14h48.45.024,lexical_decision_task_DD_L6,2021.2.3,MacIntel,60.14675809,,,,,,,,,,,,0.7048,1,,,,,,,,,,,,,,z,1,0.7048,,,,,,,,0.04984375,-0.384018555,0,0,0,,0,57,57,119,1,PAFER,LB,z,z,./images/PAFERLB.png,,,,,,,,,,,,,,,,,,,,,,,,,,,,,,,,,,
,,,,,,,,,,,,,,,,,5cc273c32daae1001787e0f7,42,2022-02-12_14h48.45.024,lexical_decision_task_DD_L6,2021.2.3,MacIntel,60.14675809,,,,,,,,,,,,0.7777,1,,,,,,,,,,,,,,m,1,0.7777,,,,,,,,0.04984375,-0.384018555,0,0,0,,0,58,58,17,1,PARADE,HB,m,m,./images/PARADEHB.png,,,,,,,,,,,,,,,,,,,,,,,,,,,,,,,,,,
,,,,,,,,,,,,,,,,,5cc273c32daae1001787e0f7,42,2022-02-12_14h48.45.024,lexical_decision_task_DD_L6,2021.2.3,MacIntel,60.14675809,,,,,,,,,,,,0.5321,1,,,,,,,,,,,,,,m,1,0.5321,,,,,,,,0.04984375,-0.384018555,0,0,0,,0,59,59,51,1,SAUCE,LB,m,m,./images/SAUCELB.png,,,,,,,,,,,,,,,,,,,,,,,,,,,,,,,,,,
,,,,,,,,,,,,,,,,,5cc273c32daae1001787e0f7,42,2022-02-12_14h48.45.024,lexical_decision_task_DD_L6,2021.2.3,MacIntel,60.14675809,,,,,,,,,,,,0.6044,1,,,,,,,,,,,,,,m,1,0.6044,,,,,,,,0.04984375,-0.384018555,0,0,0,,0,60,60,46,1,MUMMY,C,m,m,./images/MUMMY.png,,,,,,,,,,,,,,,,,,,,,,,,,,,,,,,,,,
,,,,,,,,,,,,,,,,,5cc273c32daae1001787e0f7,42,2022-02-12_14h48.45.024,lexical_decision_task_DD_L6,2021.2.3,MacIntel,60.14675809,,,,,,,,,,,,0.5971,1,,,,,,,,,,,,,,m,1,0.5971,,,,,,,,0.04984375,-0.384018555,0,0,0,,0,61,61,57,1,FERRY,LB,m,m,./images/FERRYLB.png,,,,,,,,,,,,,,,,,,,,,,,,,,,,,,,,,,
,,,,,,,,,,,,,,,,,5cc273c32daae1001787e0f7,42,2022-02-12_14h48.45.024,lexical_decision_task_DD_L6,2021.2.3,MacIntel,60.14675809,,,,,,,,,,,,0.7755,1,,,,,,,,,,,,,,z,1,0.7755,,,,,,,,0.04984375,-0.384018555,0,0,0,,0,62,62,84,1,HAXES,C,z,z,./images/HAXES.png,,,,,,,,,,,,,,,,,,,,,,,,,,,,,,,,,,
,,,,,,,,,,,,,,,,,5cc273c32daae1001787e0f7,42,2022-02-12_14h48.45.024,lexical_decision_task_DD_L6,2021.2.3,MacIntel,60.14675809,,,,,,,,,,,,0.5231,1,,,,,,,,,,,,,,m,1,0.5231,,,,,,,,0.04984375,-0.384018555,0,0,0,,0,63,63,22,1,CLOWN,C,m,m,./images/CLOWN.png,,,,,,,,,,,,,,,,,,,,,,,,,,,,,,,,,,
,,,,,,,,,,,,,,,,,5cc273c32daae1001787e0f7,42,2022-02-12_14h48.45.024,lexical_decision_task_DD_L6,2021.2.3,MacIntel,60.14675809,,,,,,,,,,,,0.5546,1,,,,,,,,,,,,,,m,1,0.5546,,,,,,,,0.04984375,-0.384018555,0,0,0,,0,64,64,73,1,GLOVE,C,m,m,./images/GLOVE.png,,,,,,,,,,,,,,,,,,,,,,,,,,,,,,,,,,
,,,,,,,,,,,,,,,,,5cc273c32daae1001787e0f7,42,2022-02-12_14h48.45.024,lexical_decision_task_DD_L6,2021.2.3,MacIntel,60.14675809,,,,,,,,,,,,1.545,1,,,,,,,,,,,,,,z,1,1.545,,,,,,,,0.04984375,-0.384018555,0,0,0,,0,65,65,162,1,LEICH,C,z,z,./images/LEICH.png,,,,,,,,,,,,,,,,,,,,,,,,,,,,,,,,,,
,,,,,,,,,,,,,,,,,5cc273c32daae1001787e0f7,42,2022-02-12_14h48.45.024,lexical_decision_task_DD_L6,2021.2.3,MacIntel,60.14675809,,,,,,,,,,,,2.0271,0,,,,,,,,,,,,,,m,0,2.0271,,,,,,,,0.04984375,-0.384018555,0,0,0,,0,66,66,109,1,BURGE,HB,z,z,./images/BURGEHB.png,,,,,,,,,,,,,,,,,,,,,,,,,,,,,,,,,,
,,,,,,,,,,,,,,,,,5cc273c32daae1001787e0f7,42,2022-02-12_14h48.45.024,lexical_decision_task_DD_L6,2021.2.3,MacIntel,60.14675809,,,,,,,,,,,,0.5906,1,,,,,,,,,,,,,,m,1,0.5906,,,,,,,,0.04984375,-0.384018555,0,0,0,,0,67,67,52,1,DESERT,C,m,m,./images/DESERT.png,,,,,,,,,,,,,,,,,,,,,,,,,,,,,,,,,,
,,,,,,,,,,,,,,,,,5cc273c32daae1001787e0f7,42,2022-02-12_14h48.45.024,lexical_decision_task_DD_L6,2021.2.3,MacIntel,60.14675809,,,,,,,,,,,,2.3384,1,,,,,,,,,,,,,,m,1,2.3384,,,,,,,,0.04984375,-0.384018555,0,0,0,,0,68,68,65,1,SPINE,HB,m,m,./images/SPINEHB.png,,,,,,,,,,,,,,,,,,,,,,,,,,,,,,,,,,
,,,,,,,,,,,,,,,,,5cc273c32daae1001787e0f7,42,2022-02-12_14h48.45.024,lexical_decision_task_DD_L6,2021.2.3,MacIntel,60.14675809,,,,,,,,,,,,0.6915,1,,,,,,,,,,,,,,z,1,0.6915,,,,,,,,0.04984375,-0.384018555,0,0,0,,0,69,69,111,1,HOSSE,C,z,z,./images/HOSSE.png,,,,,,,,,,,,,,,,,,,,,,,,,,,,,,,,,,
,,,,,,,,,,,,,,,,,5cc273c32daae1001787e0f7,42,2022-02-12_14h48.45.024,lexical_decision_task_DD_L6,2021.2.3,MacIntel,60.14675809,,,,,,,,,,,,1.299,1,,,,,,,,,,,,,,z,1,1.299,,,,,,,,0.04984375,-0.384018555,0,0,0,,0,70,70,127,1,NINDY,HB,z,z,./images/NINDYHB.png,,,,,,,,,,,,,,,,,,,,,,,,,,,,,,,,,,
,,,,,,,,,,,,,,,,,5cc273c32daae1001787e0f7,42,2022-02-12_14h48.45.024,lexical_decision_task_DD_L6,2021.2.3,MacIntel,60.14675809,,,,,,,,,,,,1.0192,1,,,,,,,,,,,,,,m,1,1.0192,,,,,,,,0.04984375,-0.384018555,0,0,0,,0,71,71,62,1,MAMMAL,HB,m,m,./images/MAMMALHB.png,,,,,,,,,,,,,,,,,,,,,,,,,,,,,,,,,,
,,,,,,,,,,,,,,,,,5cc273c32daae1001787e0f7,42,2022-02-12_14h48.45.024,lexical_decision_task_DD_L6,2021.2.3,MacIntel,60.14675809,,,,,,,,,,,,0.5438,1,,,,,,,,,,,,,,m,1,0.5438,,,,,,,,0.04984375,-0.384018555,0,0,0,,0,72,72,64,1,BRIDE,C,m,m,./images/BRIDE.png,,,,,,,,,,,,,,,,,,,,,,,,,,,,,,,,,,
,,,,,,,,,,,,,,,,,5cc273c32daae1001787e0f7,42,2022-02-12_14h48.45.024,lexical_decision_task_DD_L6,2021.2.3,MacIntel,60.14675809,,,,,,,,,,,,0.8392,1,,,,,,,,,,,,,,z,1,0.8392,,,,,,,,0.04984375,-0.384018555,0,0,0,,0,73,73,99,1,BACKY,C,z,z,./images/BACKY.png,,,,,,,,,,,,,,,,,,,,,,,,,,,,,,,,,,
,,,,,,,,,,,,,,,,,5cc273c32daae1001787e0f7,42,2022-02-12_14h48.45.024,lexical_decision_task_DD_L6,2021.2.3,MacIntel,60.14675809,,,,,,,,,,,,2.6079,1,,,,,,,,,,,,,,z,1,2.6079,,,,,,,,0.04984375,-0.384018555,0,0,0,,0,74,74,115,1,MAWNS,HB,z,z,./images/MAWNSHB.png,,,,,,,,,,,,,,,,,,,,,,,,,,,,,,,,,,
,,,,,,,,,,,,,,,,,5cc273c32daae1001787e0f7,42,2022-02-12_14h48.45.024,lexical_decision_task_DD_L6,2021.2.3,MacIntel,60.14675809,,,,,,,,,,,,0.7567,1,,,,,,,,,,,,,,z,1,0.7567,,,,,,,,0.04984375,-0.384018555,0,0,0,,0,75,75,159,1,CUDDY,C,z,z,./images/CUDDY.png,,,,,,,,,,,,,,,,,,,,,,,,,,,,,,,,,,
,,,,,,,,,,,,,,,,,5cc273c32daae1001787e0f7,42,2022-02-12_14h48.45.024,lexical_decision_task_DD_L6,2021.2.3,MacIntel,60.14675809,,,,,,,,,,,,0.5574,1,,,,,,,,,,,,,,m,1,0.5574,,,,,,,,0.04984375,-0.384018555,0,0,0,,0,76,76,4,1,BOXER,C,m,m,./images/BOXER.png,,,,,,,,,,,,,,,,,,,,,,,,,,,,,,,,,,
,,,,,,,,,,,,,,,,,5cc273c32daae1001787e0f7,42,2022-02-12_14h48.45.024,lexical_decision_task_DD_L6,2021.2.3,MacIntel,60.14675809,,,,,,,,,,,,0.7064,1,,,,,,,,,,,,,,z,1,0.7064,,,,,,,,0.04984375,-0.384018555,0,0,0,,0,77,77,93,1,SMONE,C,z,z,./images/SMONE.png,,,,,,,,,,,,,,,,,,,,,,,,,,,,,,,,,,
,,,,,,,,,,,,,,,,,5cc273c32daae1001787e0f7,42,2022-02-12_14h48.45.024,lexical_decision_task_DD_L6,2021.2.3,MacIntel,60.14675809,,,,,,,,,,,,0.9123,1,,,,,,,,,,,,,,m,1,0.9123,,,,,,,,0.04984375,-0.384018555,0,0,0,,0,78,78,14,1,FENCE,HB,m,m,./images/FENCEHB.png,,,,,,,,,,,,,,,,,,,,,,,,,,,,,,,,,,
,,,,,,,,,,,,,,,,,5cc273c32daae1001787e0f7,42,2022-02-12_14h48.45.024,lexical_decision_task_DD_L6,2021.2.3,MacIntel,60.14675809,,,,,,,,,,,,0.7433,1,,,,,,,,,,,,,,m,1,0.7433,,,,,,,,0.04984375,-0.384018555,0,0,0,,0,79,79,30,1,SLOPE,LB,m,m,./images/SLOPELB.png,,,,,,,,,,,,,,,,,,,,,,,,,,,,,,,,,,
,,,,,,,,,,,,,,,,,5cc273c32daae1001787e0f7,42,2022-02-12_14h48.45.024,lexical_decision_task_DD_L6,2021.2.3,MacIntel,60.14675809,,,,,,,,,,,,0.5816,1,,,,,,,,,,,,,,m,1,0.5816,,,,,,,,0.04984375,-0.384018555,0,0,0,,0,80,80,78,1,BROOM,LB,m,m,./images/BROOMLB.png,,,,,,,,,,,,,,,,,,,,,,,,,,,,,,,,,,
,,,,,,,,,,,,,,,,,5cc273c32daae1001787e0f7,42,2022-02-12_14h48.45.024,lexical_decision_task_DD_L6,2021.2.3,MacIntel,60.14675809,,,,,,,,,,,,0.5474,1,,,,,,,,,,,,,,m,1,0.5474,,,,,,,,0.04984375,-0.384018555,0,0,0,,0,81,81,26,1,CLOUD,HB,m,m,./images/CLOUDHB.png,,,,,,,,,,,,,,,,,,,,,,,,,,,,,,,,,,
,,,,,,,,,,,,,,,,,5cc273c32daae1001787e0f7,42,2022-02-12_14h48.45.024,lexical_decision_task_DD_L6,2021.2.3,MacIntel,60.14675809,,,,,,,,,,,,0.5366,1,,,,,,,,,,,,,,m,1,0.5366,,,,,,,,0.04984375,-0.384018555,0,0,0,,0,82,82,7,1,WAGON,C,m,m,./images/WAGON.png,,,,,,,,,,,,,,,,,,,,,,,,,,,,,,,,,,
,,,,,,,,,,,,,,,,,5cc273c32daae1001787e0f7,42,2022-02-12_14h48.45.024,lexical_decision_task_DD_L6,2021.2.3,MacIntel,60.14675809,,,,,,,,,,,,0.7025,1,,,,,,,,,,,,,,z,1,0.7025,,,,,,,,0.04984375,-0.384018555,0,0,0,space,0,83,83,102,1,DULLE,C,z,z,./images/DULLE.png,1.5337,,,,,,,,,,,,,,,,,,,,,,,,,,,,,,,,,
,,,,,,,,,,,,,,,,,5cc273c32daae1001787e0f7,42,2022-02-12_14h48.45.024,lexical_decision_task_DD_L6,2021.2.3,MacIntel,60.14675809,,,,,,,,,,,,0.7396,1,,,,,,,,,,,,,,z,1,0.7396,,,,,,,,0.04984375,-0.384018555,0,0,0,,0,84,84,117,1,STEEG,C,z,z,./images/STEEG.png,,,,,,,,,,,,,,,,,,,,,,,,,,,,,,,,,,
,,,,,,,,,,,,,,,,,5cc273c32daae1001787e0f7,42,2022-02-12_14h48.45.024,lexical_decision_task_DD_L6,2021.2.3,MacIntel,60.14675809,,,,,,,,,,,,1.5509,1,,,,,,,,,,,,,,z,1,1.5509,,,,,,,,0.04984375,-0.384018555,0,0,0,,0,85,85,85,1,CHULK,HB,z,z,./images/CHULKHB.png,,,,,,,,,,,,,,,,,,,,,,,,,,,,,,,,,,
,,,,,,,,,,,,,,,,,5cc273c32daae1001787e0f7,42,2022-02-12_14h48.45.024,lexical_decision_task_DD_L6,2021.2.3,MacIntel,60.14675809,,,,,,,,,,,,2.376,1,,,,,,,,,,,,,,z,1,2.376,,,,,,,,0.04984375,-0.384018555,0,0,0,,0,86,86,154,1,THINT,HB,z,z,./images/THINTHB.png,,,,,,,,,,,,,,,,,,,,,,,,,,,,,,,,,,
,,,,,,,,,,,,,,,,,5cc273c32daae1001787e0f7,42,2022-02-12_14h48.45.024,lexical_decision_task_DD_L6,2021.2.3,MacIntel,60.14675809,,,,,,,,,,,,0.577,1,,,,,,,,,,,,,,m,1,0.577,,,,,,,,0.04984375,-0.384018555,0,0,0,,0,87,87,75,1,HAMMER,LB,m,m,./images/HAMMERLB.png,,,,,,,,,,,,,,,,,,,,,,,,,,,,,,,,,,
,,,,,,,,,,,,,,,,,5cc273c32daae1001787e0f7,42,2022-02-12_14h48.45.024,lexical_decision_task_DD_L6,2021.2.3,MacIntel,60.14675809,,,,,,,,,,,,0.5801,1,,,,,,,,,,,,,,m,1,0.5801,,,,,,,,0.04984375,-0.384018555,0,0,0,,0,88,88,61,1,ARTIST,C,m,m,./images/ARTIST.png,,,,,,,,,,,,,,,,,,,,,,,,,,,,,,,,,,
,,,,,,,,,,,,,,,,,5cc273c32daae1001787e0f7,42,2022-02-12_14h48.45.024,lexical_decision_task_DD_L6,2021.2.3,MacIntel,60.14675809,,,,,,,,,,,,2.2756,1,,,,,,,,,,,,,,z,1,2.2756,,,,,,,,0.04984375,-0.384018555,0,0,0,,0,89,89,88,1,GLUSH,HB,z,z,./images/GLUSHHB.png,,,,,,,,,,,,,,,,,,,,,,,,,,,,,,,,,,
,,,,,,,,,,,,,,,,,5cc273c32daae1001787e0f7,42,2022-02-12_14h48.45.024,lexical_decision_task_DD_L6,2021.2.3,MacIntel,60.14675809,,,,,,,,,,,,0.9326,1,,,,,,,,,,,,,,m,1,0.9326,,,,,,,,0.04984375,-0.384018555,0,0,0,,0,90,90,5,1,BAMBOO,HB,m,m,./images/BAMBOOHB.png,,,,,,,,,,,,,,,,,,,,,,,,,,,,,,,,,,
,,,,,,,,,,,,,,,,,5cc273c32daae1001787e0f7,42,2022-02-12_14h48.45.024,lexical_decision_task_DD_L6,2021.2.3,MacIntel,60.14675809,,,,,,,,,,,,0.821,1,,,,,,,,,,,,,,m,1,0.821,,,,,,,,0.04984375,-0.384018555,0,0,0,,0,91,91,50,1,PILOT,HB,m,m,./images/PILOTHB.png,,,,,,,,,,,,,,,,,,,,,,,,,,,,,,,,,,
,,,,,,,,,,,,,,,,,5cc273c32daae1001787e0f7,42,2022-02-12_14h48.45.024,lexical_decision_task_DD_L6,2021.2.3,MacIntel,60.14675809,,,,,,,,,,,,0.8958,1,,,,,,,,,,,,,,z,1,0.8958,,,,,,,,0.04984375,-0.384018555,0,0,0,,0,92,92,140,1,DOVET,LB,z,z,./images/DOVETLB.png,,,,,,,,,,,,,,,,,,,,,,,,,,,,,,,,,,
,,,,,,,,,,,,,,,,,5cc273c32daae1001787e0f7,42,2022-02-12_14h48.45.024,lexical_decision_task_DD_L6,2021.2.3,MacIntel,60.14675809,,,,,,,,,,,,0.5918,1,,,,,,,,,,,,,,m,1,0.5918,,,,,,,,0.04984375,-0.384018555,0,0,0,,0,93,93,55,1,ALLEY,C,m,m,./images/ALLEY.png,,,,,,,,,,,,,,,,,,,,,,,,,,,,,,,,,,
,,,,,,,,,,,,,,,,,5cc273c32daae1001787e0f7,42,2022-02-12_14h48.45.024,lexical_decision_task_DD_L6,2021.2.3,MacIntel,60.14675809,,,,,,,,,,,,0.58,1,,,,,,,,,,,,,,m,1,0.58,,,,,,,,0.04984375,-0.384018555,0,0,0,,0,94,94,66,1,STATUE,LB,m,m,./images/STATUELB.png,,,,,,,,,,,,,,,,,,,,,,,,,,,,,,,,,,
,,,,,,,,,,,,,,,,,5cc273c32daae1001787e0f7,42,2022-02-12_14h48.45.024,lexical_decision_task_DD_L6,2021.2.3,MacIntel,60.14675809,,,,,,,,,,,,0.9766,1,,,,,,,,,,,,,,m,1,0.9766,,,,,,,,0.04984375,-0.384018555,0,0,0,,0,95,95,2,1,STOVE,HB,m,m,./images/STOVEHB.png,,,,,,,,,,,,,,,,,,,,,,,,,,,,,,,,,,
,,,,,,,,,,,,,,,,,5cc273c32daae1001787e0f7,42,2022-02-12_14h48.45.024,lexical_decision_task_DD_L6,2021.2.3,MacIntel,60.14675809,,,,,,,,,,,,0.8381,1,,,,,,,,,,,,,,z,1,0.8381,,,,,,,,0.04984375,-0.384018555,0,0,0,,0,96,96,165,1,TROWN,C,z,z,./images/TROWN.png,,,,,,,,,,,,,,,,,,,,,,,,,,,,,,,,,,
,,,,,,,,,,,,,,,,,5cc273c32daae1001787e0f7,42,2022-02-12_14h48.45.024,lexical_decision_task_DD_L6,2021.2.3,MacIntel,60.14675809,,,,,,,,,,,,0.9686,1,,,,,,,,,,,,,,m,1,0.9686,,,,,,,,0.04984375,-0.384018555,0,0,0,,0,97,97,53,1,POSTER,HB,m,m,./images/POSTERHB.png,,,,,,,,,,,,,,,,,,,,,,,,,,,,,,,,,,
,,,,,,,,,,,,,,,,,5cc273c32daae1001787e0f7,42,2022-02-12_14h48.45.024,lexical_decision_task_DD_L6,2021.2.3,MacIntel,60.14675809,,,,,,,,,,,,0.8252,1,,,,,,,,,,,,,,m,1,0.8252,,,,,,,,0.04984375,-0.384018555,0,0,0,,0,98,98,20,1,GRANNY,HB,m,m,./images/GRANNYHB.png,,,,,,,,,,,,,,,,,,,,,,,,,,,,,,,,,,
,,,,,,,,,,,,,,,,,5cc273c32daae1001787e0f7,42,2022-02-12_14h48.45.024,lexical_decision_task_DD_L6,2021.2.3,MacIntel,60.14675809,,,,,,,,,,,,0.6787,1,,,,,,,,,,,,,,z,1,0.6787,,,,,,,,0.04984375,-0.384018555,0,0,0,,0,99,99,126,1,GUELS,C,z,z,./images/GUELS.png,,,,,,,,,,,,,,,,,,,,,,,,,,,,,,,,,,
,,,,,,,,,,,,,,,,,5cc273c32daae1001787e0f7,42,2022-02-12_14h48.45.024,lexical_decision_task_DD_L6,2021.2.3,MacIntel,60.14675809,,,,,,,,,,,,0.5449,1,,,,,,,,,,,,,,m,1,0.5449,,,,,,,,0.04984375,-0.384018555,0,0,0,,0,100,100,45,1,MONKEY,LB,m,m,./images/MONKEYLB.png,,,,,,,,,,,,,,,,,,,,,,,,,,,,,,,,,,
,,,,,,,,,,,,,,,,,5cc273c32daae1001787e0f7,42,2022-02-12_14h48.45.024,lexical_decision_task_DD_L6,2021.2.3,MacIntel,60.14675809,,,,,,,,,,,,2.8731,1,,,,,,,,,,,,,,z,1,2.8731,,,,,,,,0.04984375,-0.384018555,0,0,0,,0,101,101,100,1,DRIBS,HB,z,z,./images/DRIBSHB.png,,,,,,,,,,,,,,,,,,,,,,,,,,,,,,,,,,
,,,,,,,,,,,,,,,,,5cc273c32daae1001787e0f7,42,2022-02-12_14h48.45.024,lexical_decision_task_DD_L6,2021.2.3,MacIntel,60.14675809,,,,,,,,,,,,0.5877,1,,,,,,,,,,,,,,m,1,0.5877,,,,,,,,0.04984375,-0.384018555,0,0,0,,0,102,102,3,1,CRATER,LB,m,m,./images/CRATERLB.png,,,,,,,,,,,,,,,,,,,,,,,,,,,,,,,,,,
,,,,,,,,,,,,,,,,,5cc273c32daae1001787e0f7,42,2022-02-12_14h48.45.024,lexical_decision_task_DD_L6,2021.2.3,MacIntel,60.14675809,,,,,,,,,,,,0.976,1,,,,,,,,,,,,,,z,1,0.976,,,,,,,,0.04984375,-0.384018555,0,0,0,,0,103,103,124,1,TUNCH,HB,z,z,./images/TUNCHHB.png,,,,,,,,,,,,,,,,,,,,,,,,,,,,,,,,,,
,,,,,,,,,,,,,,,,,5cc273c32daae1001787e0f7,42,2022-02-12_14h48.45.024,lexical_decision_task_DD_L6,2021.2.3,MacIntel,60.14675809,,,,,,,,,,,,2.2218,1,,,,,,,,,,,,,,z,1,2.2218,,,,,,,,0.04984375,-0.384018555,0,0,0,,0,104,104,91,1,SHENS,HB,z,z,./images/SHENSHB.png,,,,,,,,,,,,,,,,,,,,,,,,,,,,,,,,,,
,,,,,,,,,,,,,,,,,5cc273c32daae1001787e0f7,42,2022-02-12_14h48.45.024,lexical_decision_task_DD_L6,2021.2.3,MacIntel,60.14675809,,,,,,,,,,,,1.1539,1,,,,,,,,,,,,,,m,1,1.1539,,,,,,,,0.04984375,-0.384018555,0,0,0,,0,105,105,80,1,PLANET,HB,m,m,./images/PLANETHB.png,,,,,,,,,,,,,,,,,,,,,,,,,,,,,,,,,,
,,,,,,,,,,,,,,,,,5cc273c32daae1001787e0f7,42,2022-02-12_14h48.45.024,lexical_decision_task_DD_L6,2021.2.3,MacIntel,60.14675809,,,,,,,,,,,,1.9765,1,,,,,,,,,,,,,,z,1,1.9765,,,,,,,,0.04984375,-0.384018555,0,0,0,,0,106,106,139,1,BLEAR,HB,z,z,./images/BLEARHB.png,,,,,,,,,,,,,,,,,,,,,,,,,,,,,,,,,,
,,,,,,,,,,,,,,,,,5cc273c32daae1001787e0f7,42,2022-02-12_14h48.45.024,lexical_decision_task_DD_L6,2021.2.3,MacIntel,60.14675809,,,,,,,,,,,,0.6458,1,,,,,,,,,,,,,,m,1,0.6458,,,,,,,,0.04984375,-0.384018555,0,0,0,,0,107,107,68,1,VALLEY,HB,m,m,./images/VALLEYHB.png,,,,,,,,,,,,,,,,,,,,,,,,,,,,,,,,,,
,,,,,,,,,,,,,,,,,5cc273c32daae1001787e0f7,42,2022-02-12_14h48.45.024,lexical_decision_task_DD_L6,2021.2.3,MacIntel,60.14675809,,,,,,,,,,,,0.5871,1,,,,,,,,,,,,,,m,1,0.5871,,,,,,,,0.04984375,-0.384018555,0,0,0,,0,108,108,70,1,BANANA,C,m,m,./images/BANANA.png,,,,,,,,,,,,,,,,,,,,,,,,,,,,,,,,,,
,,,,,,,,,,,,,,,,,5cc273c32daae1001787e0f7,42,2022-02-12_14h48.45.024,lexical_decision_task_DD_L6,2021.2.3,MacIntel,60.14675809,,,,,,,,,,,,0.6129,1,,,,,,,,,,,,,,m,1,0.6129,,,,,,,,0.04984375,-0.384018555,0,0,0,,0,109,109,47,1,LAGOON,HB,m,m,./images/LAGOONHB.png,,,,,,,,,,,,,,,,,,,,,,,,,,,,,,,,,,
,,,,,,,,,,,,,,,,,5cc273c32daae1001787e0f7,42,2022-02-12_14h48.45.024,lexical_decision_task_DD_L6,2021.2.3,MacIntel,60.14675809,,,,,,,,,,,,0.8939,1,,,,,,,,,,,,,,m,1,0.8939,,,,,,,,0.04984375,-0.384018555,0,0,0,,0,110,110,29,1,PISTOL,HB,m,m,./images/PISTOLHB.png,,,,,,,,,,,,,,,,,,,,,,,,,,,,,,,,,,
,,,,,,,,,,,,,,,,,5cc273c32daae1001787e0f7,42,2022-02-12_14h48.45.024,lexical_decision_task_DD_L6,2021.2.3,MacIntel,60.14675809,,,,,,,,,,,,1.044,1,,,,,,,,,,,,,,m,1,1.044,,,,,,,,0.04984375,-0.384018555,0,0,0,,0,111,111,38,1,ENGINE,HB,m,m,./images/ENGINEHB.png,,,,,,,,,,,,,,,,,,,,,,,,,,,,,,,,,,
,,,,,,,,,,,,,,,,,5cc273c32daae1001787e0f7,42,2022-02-12_14h48.45.024,lexical_decision_task_DD_L6,2021.2.3,MacIntel,60.14675809,,,,,,,,,,,,0.6687,1,,,,,,,,,,,,,,z,1,0.6687,,,,,,,,0.04984375,-0.384018555,0,0,0,,0,112,112,135,1,JOODY,C,z,z,./images/JOODY.png,,,,,,,,,,,,,,,,,,,,,,,,,,,,,,,,,,
,,,,,,,,,,,,,,,,,5cc273c32daae1001787e0f7,42,2022-02-12_14h48.45.024,lexical_decision_task_DD_L6,2021.2.3,MacIntel,60.14675809,,,,,,,,,,,,0.7259,1,,,,,,,,,,,,,,m,1,0.7259,,,,,,,,0.04984375,-0.384018555,0,0,0,,0,113,113,32,1,HOCKEY,HB,m,m,./images/HOCKEYHB.png,,,,,,,,,,,,,,,,,,,,,,,,,,,,,,,,,,
,,,,,,,,,,,,,,,,,5cc273c32daae1001787e0f7,42,2022-02-12_14h48.45.024,lexical_decision_task_DD_L6,2021.2.3,MacIntel,60.14675809,,,,,,,,,,,,0.7462,1,,,,,,,,,,,,,,z,1,0.7462,,,,,,,,0.04984375,-0.384018555,0,0,0,,0,114,114,146,1,MOOST,LB,z,z,./images/MOOSTLB.png,,,,,,,,,,,,,,,,,,,,,,,,,,,,,,,,,,
,,,,,,,,,,,,,,,,,5cc273c32daae1001787e0f7,42,2022-02-12_14h48.45.024,lexical_decision_task_DD_L6,2021.2.3,MacIntel,60.14675809,,,,,,,,,,,,0.5363,1,,,,,,,,,,,,,,m,1,0.5363,,,,,,,,0.04984375,-0.384018555,0,0,0,,0,115,115,54,1,CHERRY,LB,m,m,./images/CHERRYLB.png,,,,,,,,,,,,,,,,,,,,,,,,,,,,,,,,,,
,,,,,,,,,,,,,,,,,5cc273c32daae1001787e0f7,42,2022-02-12_14h48.45.024,lexical_decision_task_DD_L6,2021.2.3,MacIntel,60.14675809,,,,,,,,,,,,0.6555,1,,,,,,,,,,,,,,m,1,0.6555,,,,,,,,0.04984375,-0.384018555,0,0,0,,0,116,116,79,1,RULER,C,m,m,./images/RULER.png,,,,,,,,,,,,,,,,,,,,,,,,,,,,,,,,,,
,,,,,,,,,,,,,,,,,5cc273c32daae1001787e0f7,42,2022-02-12_14h48.45.024,lexical_decision_task_DD_L6,2021.2.3,MacIntel,60.14675809,,,,,,,,,,,,0.7433,1,,,,,,,,,,,,,,z,1,0.7433,,,,,,,,0.04984375,-0.384018555,0,0,0,,0,117,117,90,1,NEAST,C,z,z,./images/NEAST.png,,,,,,,,,,,,,,,,,,,,,,,,,,,,,,,,,,
,,,,,,,,,,,,,,,,,5cc273c32daae1001787e0f7,42,2022-02-12_14h48.45.024,lexical_decision_task_DD_L6,2021.2.3,MacIntel,60.14675809,,,,,,,,,,,,0.7454,1,,,,,,,,,,,,,,z,1,0.7454,,,,,,,,0.04984375,-0.384018555,0,0,0,,0,118,118,86,1,AIFED,LB,z,z,./images/AIFEDLB.png,,,,,,,,,,,,,,,,,,,,,,,,,,,,,,,,,,
,,,,,,,,,,,,,,,,,5cc273c32daae1001787e0f7,42,2022-02-12_14h48.45.024,lexical_decision_task_DD_L6,2021.2.3,MacIntel,60.14675809,,,,,,,,,,,,1.3273,1,,,,,,,,,,,,,,z,1,1.3273,,,,,,,,0.04984375,-0.384018555,0,0,0,,0,119,119,149,1,VEASE,LB,z,z,./images/VEASELB.png,,,,,,,,,,,,,,,,,,,,,,,,,,,,,,,,,,
,,,,,,,,,,,,,,,,,5cc273c32daae1001787e0f7,42,2022-02-12_14h48.45.024,lexical_decision_task_DD_L6,2021.2.3,MacIntel,60.14675809,,,,,,,,,,,,1.826,1,,,,,,,,,,,,,,z,1,1.826,,,,,,,,0.04984375,-0.384018555,0,0,0,,0,120,120,97,1,CHIDS,HB,z,z,./images/CHIDSHB.png,,,,,,,,,,,,,,,,,,,,,,,,,,,,,,,,,,
,,,,,,,,,,,,,,,,,5cc273c32daae1001787e0f7,42,2022-02-12_14h48.45.024,lexical_decision_task_DD_L6,2021.2.3,MacIntel,60.14675809,,,,,,,,,,,,0.7271,0,,,,,,,,,,,,,,m,0,0.7271,,,,,,,,0.04984375,-0.384018555,0,0,0,,0,121,121,142,1,PLASK,HB,z,z,./images/PLASKHB.png,,,,,,,,,,,,,,,,,,,,,,,,,,,,,,,,,,
,,,,,,,,,,,,,,,,,5cc273c32daae1001787e0f7,42,2022-02-12_14h48.45.024,lexical_decision_task_DD_L6,2021.2.3,MacIntel,60.14675809,,,,,,,,,,,,1.6475,1,,,,,,,,,,,,,,z,1,1.6475,,,,,,,,0.04984375,-0.384018555,0,0,0,,0,122,122,106,1,CLUMS,HB,z,z,./images/CLUMSHB.png,,,,,,,,,,,,,,,,,,,,,,,,,,,,,,,,,,
,,,,,,,,,,,,,,,,,5cc273c32daae1001787e0f7,42,2022-02-12_14h48.45.024,lexical_decision_task_DD_L6,2021.2.3,MacIntel,60.14675809,,,,,,,,,,,,0.6518,0,,,,,,,,,,,,,,m,0,0.6518,,,,,,,,0.04984375,-0.384018555,0,0,0,,0,123,123,110,1,CRUNK,LB,z,z,./images/CRUNKLB.png,,,,,,,,,,,,,,,,,,,,,,,,,,,,,,,,,,
,,,,,,,,,,,,,,,,,5cc273c32daae1001787e0f7,42,2022-02-12_14h48.45.024,lexical_decision_task_DD_L6,2021.2.3,MacIntel,60.14675809,,,,,,,,,,,,0.6571,1,,,,,,,,,,,,,,z,1,0.6571,,,,,,,,0.04984375,-0.384018555,0,0,0,,0,124,124,147,1,ZOLES,C,z,z,./images/ZOLES.png,,,,,,,,,,,,,,,,,,,,,,,,,,,,,,,,,,
,,,,,,,,,,,,,,,,,5cc273c32daae1001787e0f7,42,2022-02-12_14h48.45.024,lexical_decision_task_DD_L6,2021.2.3,MacIntel,60.14675809,,,,,,,,,,,,0.5546,1,,,,,,,,,,,,,,m,1,0.5546,,,,,,,,0.04984375,-0.384018555,0,0,0,space,0,125,125,1,1,TOWEL,C,m,m,./images/TOWEL.png,1.6763,,,,,,,,,,,,,,,,,,,,,,,,,,,,,,,,,
,,,,,,,,,,,,,,,,,5cc273c32daae1001787e0f7,42,2022-02-12_14h48.45.024,lexical_decision_task_DD_L6,2021.2.3,MacIntel,60.14675809,,,,,,,,,,,,0.7918,1,,,,,,,,,,,,,,m,1,0.7918,,,,,,,,0.04984375,-0.384018555,0,0,0,,0,126,126,83,1,WHISKY,HB,m,m,./images/WHISKYHB.png,,,,,,,,,,,,,,,,,,,,,,,,,,,,,,,,,,
,,,,,,,,,,,,,,,,,5cc273c32daae1001787e0f7,42,2022-02-12_14h48.45.024,lexical_decision_task_DD_L6,2021.2.3,MacIntel,60.14675809,,,,,,,,,,,,0.7517,1,,,,,,,,,,,,,,z,1,0.7517,,,,,,,,0.04984375,-0.384018555,0,0,0,,0,127,127,98,1,BAMPS,LB,z,z,./images/BAMPSLB.png,,,,,,,,,,,,,,,,,,,,,,,,,,,,,,,,,,
,,,,,,,,,,,,,,,,,5cc273c32daae1001787e0f7,42,2022-02-12_14h48.45.024,lexical_decision_task_DD_L6,2021.2.3,MacIntel,60.14675809,,,,,,,,,,,,0.5417,1,,,,,,,,,,,,,,m,1,0.5417,,,,,,,,0.04984375,-0.384018555,0,0,0,,0,128,128,67,1,POKER,C,m,m,./images/POKER.png,,,,,,,,,,,,,,,,,,,,,,,,,,,,,,,,,,
,,,,,,,,,,,,,,,,,5cc273c32daae1001787e0f7,42,2022-02-12_14h48.45.024,lexical_decision_task_DD_L6,2021.2.3,MacIntel,60.14675809,,,,,,,,,,,,1.1991,1,,,,,,,,,,,,,,z,1,1.1991,,,,,,,,0.04984375,-0.384018555,0,0,0,,0,129,129,120,1,RINED,C,z,z,./images/RINED.png,,,,,,,,,,,,,,,,,,,,,,,,,,,,,,,,,,
,,,,,,,,,,,,,,,,,5cc273c32daae1001787e0f7,42,2022-02-12_14h48.45.024,lexical_decision_task_DD_L6,2021.2.3,MacIntel,60.14675809,,,,,,,,,,,,0.8307,1,,,,,,,,,,,,,,z,1,0.8307,,,,,,,,0.04984375,-0.384018555,0,0,0,,0,130,130,160,1,VEETS,HB,z,z,./images/VEETSHB.png,,,,,,,,,,,,,,,,,,,,,,,,,,,,,,,,,,
,,,,,,,,,,,,,,,,,5cc273c32daae1001787e0f7,42,2022-02-12_14h48.45.024,lexical_decision_task_DD_L6,2021.2.3,MacIntel,60.14675809,,,,,,,,,,,,0.5708,1,,,,,,,,,,,,,,m,1,0.5708,,,,,,,,0.04984375,-0.384018555,0,0,0,,0,131,131,36,1,BOILER,LB,m,m,./images/BOILERLB.png,,,,,,,,,,,,,,,,,,,,,,,,,,,,,,,,,,
,,,,,,,,,,,,,,,,,5cc273c32daae1001787e0f7,42,2022-02-12_14h48.45.024,lexical_decision_task_DD_L6,2021.2.3,MacIntel,60.14675809,,,,,,,,,,,,0.6951,1,,,,,,,,,,,,,,z,1,0.6951,,,,,,,,0.04984375,-0.384018555,0,0,0,,0,132,132,137,1,JOOST,LB,z,z,./images/JOOSTLB.png,,,,,,,,,,,,,,,,,,,,,,,,,,,,,,,,,,
,,,,,,,,,,,,,,,,,5cc273c32daae1001787e0f7,42,2022-02-12_14h48.45.024,lexical_decision_task_DD_L6,2021.2.3,MacIntel,60.14675809,,,,,,,,,,,,2.9593,0,,,,,,,,,,,,,,m,0,2.9593,,,,,,,,0.04984375,-0.384018555,0,0,0,,0,133,133,134,1,TROSS,LB,z,z,./images/TROSSLB.png,,,,,,,,,,,,,,,,,,,,,,,,,,,,,,,,,,
,,,,,,,,,,,,,,,,,5cc273c32daae1001787e0f7,42,2022-02-12_14h48.45.024,lexical_decision_task_DD_L6,2021.2.3,MacIntel,60.14675809,,,,,,,,,,,,0.5457,1,,,,,,,,,,,,,,m,1,0.5457,,,,,,,,0.04984375,-0.384018555,0,0,0,,0,134,134,28,1,CASINO,C,m,m,./images/CASINO.png,,,,,,,,,,,,,,,,,,,,,,,,,,,,,,,,,,
,,,,,,,,,,,,,,,,,5cc273c32daae1001787e0f7,42,2022-02-12_14h48.45.024,lexical_decision_task_DD_L6,2021.2.3,MacIntel,60.14675809,,,,,,,,,,,,0.6057,1,,,,,,,,,,,,,,m,1,0.6057,,,,,,,,0.04984375,-0.384018555,0,0,0,,0,135,135,43,1,STOOL,C,m,m,./images/STOOL.png,,,,,,,,,,,,,,,,,,,,,,,,,,,,,,,,,,
,,,,,,,,,,,,,,,,,5cc273c32daae1001787e0f7,42,2022-02-12_14h48.45.024,lexical_decision_task_DD_L6,2021.2.3,MacIntel,60.14675809,,,,,,,,,,,,0.8331,1,,,,,,,,,,,,,,z,1,0.8331,,,,,,,,0.04984375,-0.384018555,0,0,0,,0,136,136,125,1,MOOKY,LB,z,z,./images/MOOKYLB.png,,,,,,,,,,,,,,,,,,,,,,,,,,,,,,,,,,
,,,,,,,,,,,,,,,,,5cc273c32daae1001787e0f7,42,2022-02-12_14h48.45.024,lexical_decision_task_DD_L6,2021.2.3,MacIntel,60.14675809,,,,,,,,,,,,0.7334,1,,,,,,,,,,,,,,m,1,0.7334,,,,,,,,0.04984375,-0.384018555,0,0,0,,0,137,137,35,1,LLAMA,HB,m,m,./images/LLAMAHB.png,,,,,,,,,,,,,,,,,,,,,,,,,,,,,,,,,,
,,,,,,,,,,,,,,,,,5cc273c32daae1001787e0f7,42,2022-02-12_14h48.45.024,lexical_decision_task_DD_L6,2021.2.3,MacIntel,60.14675809,,,,,,,,,,,,1.3392,1,,,,,,,,,,,,,,z,1,1.3392,,,,,,,,0.04984375,-0.384018555,0,0,0,,0,138,138,129,1,PRANS,C,z,z,./images/PRANS.png,,,,,,,,,,,,,,,,,,,,,,,,,,,,,,,,,,
,,,,,,,,,,,,,,,,,5cc273c32daae1001787e0f7,42,2022-02-12_14h48.45.024,lexical_decision_task_DD_L6,2021.2.3,MacIntel,60.14675809,,,,,,,,,,,,0.5783,1,,,,,,,,,,,,,,m,1,0.5783,,,,,,,,0.04984375,-0.384018555,0,0,0,,0,139,139,82,1,PEBBLE,C,m,m,./images/PEBBLE.png,,,,,,,,,,,,,,,,,,,,,,,,,,,,,,,,,,
,,,,,,,,,,,,,,,,,5cc273c32daae1001787e0f7,42,2022-02-12_14h48.45.024,lexical_decision_task_DD_L6,2021.2.3,MacIntel,60.14675809,,,,,,,,,,,,0.6785,1,,,,,,,,,,,,,,z,1,0.6785,,,,,,,,0.04984375,-0.384018555,0,0,0,,0,140,140,150,1,NOOLS,C,z,z,./images/NOOLS.png,,,,,,,,,,,,,,,,,,,,,,,,,,,,,,,,,,
,,,,,,,,,,,,,,,,,5cc273c32daae1001787e0f7,42,2022-02-12_14h48.45.024,lexical_decision_task_DD_L6,2021.2.3,MacIntel,60.14675809,,,,,,,,,,,,0.6464,1,,,,,,,,,,,,,,m,1,0.6464,,,,,,,,0.04984375,-0.384018555,0,0,0,,0,141,141,33,1,SAUNA,LB,m,m,./images/SAUNALB.png,,,,,,,,,,,,,,,,,,,,,,,,,,,,,,,,,,
,,,,,,,,,,,,,,,,,5cc273c32daae1001787e0f7,42,2022-02-12_14h48.45.024,lexical_decision_task_DD_L6,2021.2.3,MacIntel,60.14675809,,,,,,,,,,,,0.6958,1,,,,,,,,,,,,,,z,1,0.6958,,,,,,,,0.04984375,-0.384018555,0,0,0,,0,142,142,161,1,BLAPS,LB,z,z,./images/BLAPSLB.png,,,,,,,,,,,,,,,,,,,,,,,,,,,,,,,,,,
,,,,,,,,,,,,,,,,,5cc273c32daae1001787e0f7,42,2022-02-12_14h48.45.024,lexical_decision_task_DD_L6,2021.2.3,MacIntel,60.14675809,,,,,,,,,,,,0.6564,1,,,,,,,,,,,,,,z,1,0.6564,,,,,,,,0.04984375,-0.384018555,0,0,0,,0,143,143,138,1,PLICE,C,z,z,./images/PLICE.png,,,,,,,,,,,,,,,,,,,,,,,,,,,,,,,,,,
,,,,,,,,,,,,,,,,,5cc273c32daae1001787e0f7,42,2022-02-12_14h48.45.024,lexical_decision_task_DD_L6,2021.2.3,MacIntel,60.14675809,,,,,,,,,,,,1.2777,1,,,,,,,,,,,,,,z,1,1.2777,,,,,,,,0.04984375,-0.384018555,0,0,0,,0,144,144,151,1,TINKY,HB,z,z,./images/TINKYHB.png,,,,,,,,,,,,,,,,,,,,,,,,,,,,,,,,,,
,,,,,,,,,,,,,,,,,5cc273c32daae1001787e0f7,42,2022-02-12_14h48.45.024,lexical_decision_task_DD_L6,2021.2.3,MacIntel,60.14675809,,,,,,,,,,,,0.5159,1,,,,,,,,,,,,,,m,1,0.5159,,,,,,,,0.04984375,-0.384018555,0,0,0,,0,145,145,39,1,CANDY,LB,m,m,./images/CANDYLB.png,,,,,,,,,,,,,,,,,,,,,,,,,,,,,,,,,,
,,,,,,,,,,,,,,,,,5cc273c32daae1001787e0f7,42,2022-02-12_14h48.45.024,lexical_decision_task_DD_L6,2021.2.3,MacIntel,60.14675809,,,,,,,,,,,,0.7403,1,,,,,,,,,,,,,,z,1,0.7403,,,,,,,,0.04984375,-0.384018555,0,0,0,,0,146,146,105,1,MOKER,C,z,z,./images/MOKER.png,,,,,,,,,,,,,,,,,,,,,,,,,,,,,,,,,,
,,,,,,,,,,,,,,,,,5cc273c32daae1001787e0f7,42,2022-02-12_14h48.45.024,lexical_decision_task_DD_L6,2021.2.3,MacIntel,60.14675809,,,,,,,,,,,,0.6962,1,,,,,,,,,,,,,,m,1,0.6962,,,,,,,,0.04984375,-0.384018555,0,0,0,,0,147,147,81,1,DRILL,LB,m,m,./images/DRILLLB.png,,,,,,,,,,,,,,,,,,,,,,,,,,,,,,,,,,
,,,,,,,,,,,,,,,,,5cc273c32daae1001787e0f7,42,2022-02-12_14h48.45.024,lexical_decision_task_DD_L6,2021.2.3,MacIntel,60.14675809,,,,,,,,,,,,0.624,1,,,,,,,,,,,,,,m,1,0.624,,,,,,,,0.04984375,-0.384018555,0,0,0,,0,148,148,34,1,RAZOR,C,m,m,./images/RAZOR.png,,,,,,,,,,,,,,,,,,,,,,,,,,,,,,,,,,
,,,,,,,,,,,,,,,,,5cc273c32daae1001787e0f7,42,2022-02-12_14h48.45.024,lexical_decision_task_DD_L6,2021.2.3,MacIntel,60.14675809,,,,,,,,,,,,0.5533,1,,,,,,,,,,,,,,m,1,0.5533,,,,,,,,0.04984375,-0.384018555,0,0,0,,0,149,149,63,1,BAKER,LB,m,m,./images/BAKERLB.png,,,,,,,,,,,,,,,,,,,,,,,,,,,,,,,,,,
,,,,,,,,,,,,,,,,,5cc273c32daae1001787e0f7,42,2022-02-12_14h48.45.024,lexical_decision_task_DD_L6,2021.2.3,MacIntel,60.14675809,,,,,,,,,,,,0.7963,1,,,,,,,,,,,,,,m,1,0.7963,,,,,,,,0.04984375,-0.384018555,0,0,0,,0,150,150,71,1,BUBBLE,HB,m,m,./images/BUBBLEHB.png,,,,,,,,,,,,,,,,,,,,,,,,,,,,,,,,,,
,,,,,,,,,,,,,,,,,5cc273c32daae1001787e0f7,42,2022-02-12_14h48.45.024,lexical_decision_task_DD_L6,2021.2.3,MacIntel,60.14675809,,,,,,,,,,,,0.612,1,,,,,,,,,,,,,,m,1,0.612,,,,,,,,0.04984375,-0.384018555,0,0,0,,0,151,151,58,1,CANOE,C,m,m,./images/CANOE.png,,,,,,,,,,,,,,,,,,,,,,,,,,,,,,,,,,
,,,,,,,,,,,,,,,,,5cc273c32daae1001787e0f7,42,2022-02-12_14h48.45.024,lexical_decision_task_DD_L6,2021.2.3,MacIntel,60.14675809,,,,,,,,,,,,0.5276,1,,,,,,,,,,,,,,m,1,0.5276,,,,,,,,0.04984375,-0.384018555,0,0,0,,0,152,152,19,1,DONKEY,C,m,m,./images/DONKEY.png,,,,,,,,,,,,,,,,,,,,,,,,,,,,,,,,,,
,,,,,,,,,,,,,,,,,5cc273c32daae1001787e0f7,42,2022-02-12_14h48.45.024,lexical_decision_task_DD_L6,2021.2.3,MacIntel,60.14675809,,,,,,,,,,,,1.2684,1,,,,,,,,,,,,,,z,1,1.2684,,,,,,,,0.04984375,-0.384018555,0,0,0,,0,153,153,133,1,POWDY,HB,z,z,./images/POWDYHB.png,,,,,,,,,,,,,,,,,,,,,,,,,,,,,,,,,,
,,,,,,,,,,,,,,,,,5cc273c32daae1001787e0f7,42,2022-02-12_14h48.45.024,lexical_decision_task_DD_L6,2021.2.3,MacIntel,60.14675809,,,,,,,,,,,,0.5112,1,,,,,,,,,,,,,,m,1,0.5112,,,,,,,,0.04984375,-0.384018555,0,0,0,,0,154,154,60,1,CURRY,LB,m,m,./images/CURRYLB.png,,,,,,,,,,,,,,,,,,,,,,,,,,,,,,,,,,
,,,,,,,,,,,,,,,,,5cc273c32daae1001787e0f7,42,2022-02-12_14h48.45.024,lexical_decision_task_DD_L6,2021.2.3,MacIntel,60.14675809,,,,,,,,,,,,0.6631,1,,,,,,,,,,,,,,z,1,0.6631,,,,,,,,0.04984375,-0.384018555,0,0,0,,0,155,155,108,1,GRUET,C,z,z,./images/GRUET.png,,,,,,,,,,,,,,,,,,,,,,,,,,,,,,,,,,
,,,,,,,,,,,,,,,,,5cc273c32daae1001787e0f7,42,2022-02-12_14h48.45.024,lexical_decision_task_DD_L6,2021.2.3,MacIntel,60.14675809,,,,,,,,,,,,0.6317,1,,,,,,,,,,,,,,m,1,0.6317,,,,,,,,0.04984375,-0.384018555,0,0,0,,0,156,156,74,1,JUMPER,HB,m,m,./images/JUMPERHB.png,,,,,,,,,,,,,,,,,,,,,,,,,,,,,,,,,,
,,,,,,,,,,,,,,,,,5cc273c32daae1001787e0f7,42,2022-02-12_14h48.45.024,lexical_decision_task_DD_L6,2021.2.3,MacIntel,60.14675809,,,,,,,,,,,,1.9597,1,,,,,,,,,,,,,,z,1,1.9597,,,,,,,,0.04984375,-0.384018555,0,0,0,,0,157,157,94,1,BLANS,HB,z,z,./images/BLANSHB.png,,,,,,,,,,,,,,,,,,,,,,,,,,,,,,,,,,
,,,,,,,,,,,,,,,,,5cc273c32daae1001787e0f7,42,2022-02-12_14h48.45.024,lexical_decision_task_DD_L6,2021.2.3,MacIntel,60.14675809,,,,,,,,,,,,0.7617,1,,,,,,,,,,,,,,m,1,0.7617,,,,,,,,0.04984375,-0.384018555,0,0,0,,0,158,158,12,1,BLOKE,LB,m,m,./images/BLOKELB.png,,,,,,,,,,,,,,,,,,,,,,,,,,,,,,,,,,
,,,,,,,,,,,,,,,,,5cc273c32daae1001787e0f7,42,2022-02-12_14h48.45.024,lexical_decision_task_DD_L6,2021.2.3,MacIntel,60.14675809,,,,,,,,,,,,0.6949,1,,,,,,,,,,,,,,z,1,0.6949,,,,,,,,0.04984375,-0.384018555,0,0,0,,0,159,159,152,1,FRAIN,LB,z,z,./images/FRAINLB.png,,,,,,,,,,,,,,,,,,,,,,,,,,,,,,,,,,
,,,,,,,,,,,,,,,,,5cc273c32daae1001787e0f7,42,2022-02-12_14h48.45.024,lexical_decision_task_DD_L6,2021.2.3,MacIntel,60.14675809,,,,,,,,,,,,0.6455,1,,,,,,,,,,,,,,m,1,0.6455,,,,,,,,0.04984375,-0.384018555,0,0,0,,0,160,160,24,1,FLESH,LB,m,m,./images/FLESHLB.png,,,,,,,,,,,,,,,,,,,,,,,,,,,,,,,,,,
,,,,,,,,,,,,,,,,,5cc273c32daae1001787e0f7,42,2022-02-12_14h48.45.024,lexical_decision_task_DD_L6,2021.2.3,MacIntel,60.14675809,,,,,,,,,,,,0.9303,1,,,,,,,,,,,,,,z,1,0.9303,,,,,,,,0.04984375,-0.384018555,0,0,0,,0,161,161,164,1,SGREW,LB,z,z,./images/SGREWLB.png,,,,,,,,,,,,,,,,,,,,,,,,,,,,,,,,,,
,,,,,,,,,,,,,,,,,5cc273c32daae1001787e0f7,42,2022-02-12_14h48.45.024,lexical_decision_task_DD_L6,2021.2.3,MacIntel,60.14675809,,,,,,,,,,,,0.9766,1,,,,,,,,,,,,,,z,1,0.9766,,,,,,,,0.04984375,-0.384018555,0,0,0,,0,162,162,148,1,JOMS,HB,z,z,./images/JOMSHB.png,,,,,,,,,,,,,,,,,,,,,,,,,,,,,,,,,,
,,,,,,,,,,,,,,,,,5cc273c32daae1001787e0f7,42,2022-02-12_14h48.45.024,lexical_decision_task_DD_L6,2021.2.3,MacIntel,60.14675809,,,,,,,,,,,,0.8524,1,,,,,,,,,,,,,,z,1,0.8524,,,,,,,,0.04984375,-0.384018555,0,0,0,,0,163,163,92,1,PAIMS,LB,z,z,./images/PAIMSLB.png,,,,,,,,,,,,,,,,,,,,,,,,,,,,,,,,,,
,,,,,,,,,,,,,,,,,5cc273c32daae1001787e0f7,42,2022-02-12_14h48.45.024,lexical_decision_task_DD_L6,2021.2.3,MacIntel,60.14675809,,,,,,,,,,,,2.2622,0,,,,,,,,,,,,,,m,0,2.2622,,,,,,,,0.04984375,-0.384018555,0,0,0,,0,164,164,163,1,GAMBA,HB,z,z,./images/GAMBAHB.png,,,,,,,,,,,,,,,,,,,,,,,,,,,,,,,,,,
,,,,,,,,,,,,,,,,,5cc273c32daae1001787e0f7,42,2022-02-12_14h48.45.024,lexical_decision_task_DD_L6,2021.2.3,MacIntel,60.14675809,,,,,,,,,,,,0.7477,1,,,,,,,,,,,,,,m,1,0.7477,,,,,,,,0.04984375,-0.384018555,0,0,0,,0,165,165,15,1,COLLAR,LB,m,m,./images/COLLARLB.png,,,,,,,,,,,,,,,,,,,,,,,,,,,,,,,,,,
,,,,,,,,,,,,,,,,,5cc273c32daae1001787e0f7,42,2022-02-12_14h48.45.024,lexical_decision_task_DD_L6,2021.2.3,MacIntel,60.14675809,,,,,,,,,,,,0.6576,1,,,,,,,,,,,,,,m,1,0.6576,,,,,,,,0.04984375,-0.384018555,0,0,0,,0,166,166,0,1,WALNUT,LB,m,m,./images/WALNUTLB.png,,,,,,,,,,,,,,,,,,,,,,,,,,,,,,,,,,
,,,,,,,,,,,,,,,,,5cc273c32daae1001787e0f7,42,2022-02-12_14h48.45.024,lexical_decision_task_DD_L6,2021.2.3,MacIntel,60.14675809,,,,,,,,,,,,0.7619,1,,,,,,,,,,,,,,z,1,0.7619,,,,,,,,0.04984375,-0.384018555,0,0,0,,0,167,167,122,1,BLOOT,LB,z,z,./images/BLOOTLB.png,,,,,,,,,,,,,,,,,,,,,,,,,,,,,,,,,,
,,,,,,,,,,,,,,,,,5cc273c32daae1001787e0f7,42,2022-02-12_14h48.45.024,lexical_decision_task_DD_L6,2021.2.3,MacIntel,60.14675809,,,,,,,,,,,,,,,,,,,,,,,,,,,,,,,,,,,,,,,,,,,,,,,,,How likely will it be that you will recognize the words presented slighly blurred on a scale of 0 (not likely) to 100 (most likely)?,,,,,-0.004926758,-0.384301758,1,0,0,jol_adv,5,17.1264,0,0,0,1,1,,,,,,,,,,,,,,,,,,,,
,,,,,,,,,,,,,,,,,5cc273c32daae1001787e0f7,42,2022-02-12_14h48.45.024,lexical_decision_task_DD_L6,2021.2.3,MacIntel,60.14675809,,,,,,,,,,,,,,,,,,,,,,,,,,,,,,,,,,,,,,,,,,,,,,,,,How likely will it be that you will recognize the words presented very blurred on a scale of 0 (not likely) to 100 (most likely)?,,,,,,,,,,,5,9.44,0,1,1,2,1,,,,,,,,,,,,,,,,,,,,
,,,,,,,,,,,,,,,,,5cc273c32daae1001787e0f7,42,2022-02-12_14h48.45.024,lexical_decision_task_DD_L6,2021.2.3,MacIntel,60.14675809,,,,,,,,,,,,,,,,,,,,,,,,,,,,,,,,,,,,,,,,,,,,,,,,,How likely will it be that you will recognize the words presented clearly on a scale of 0 (not likely) to 100 (most likely)?,,,,,,,,,,,5,1.2789,0,2,2,0,1,,,,,,,,,,,,,,,,,,,,
,0.094697266,-0.403022461,1,0,0,instr_done_button,,,,,,1,test,"In the next phase you will be presented with the words from the the first phase. Your job is to decide whether you remember seeing the word or not. If you remember seeing the word press ""old"" or type ""m"". If you do not remember seeing the word press ""new"" or type ""z"". Please press the space bar or click on continue to begin. ",,,5cc273c32daae1001787e0f7,42,2022-02-12_14h48.45.024,lexical_decision_task_DD_L6,2021.2.3,MacIntel,60.14675809,,,,,,,,,,,,,,,,,,,,,,,,,,,,,,,,,,,,,,,,,,,,,,,,,,,,,,,,,,,,,,,,,,,0,0,0,0,1,,,,,,,,,,,,,,,
,0.094697266,-0.403754883,1,0,0,instr_done_button,,,,,,1,test,"In the next phase you will be presented with the words from the the first phase. Your job is to decide whether you remember seeing the word or not. If you remember seeing the word press ""old"" or type ""m"". If you do not remember seeing the word press ""new"" or type ""z"". Please press the space bar or click on continue to begin. ",,,5cc273c32daae1001787e0f7,42,2022-02-12_14h48.45.024,lexical_decision_task_DD_L6,2021.2.3,MacIntel,60.14675809,,,,,,,,,,,,,,,,,,,,,,,,,,,,,,,,,,,,,,,,,,,,,,,,,,,,,,,,,,,,,,,,,,,1,0,1,0,1,,,,,,,,,,,,,,,
space,-0.019760742,-0.423305664,0,0,0,,,,,,,1,test,"In the next phase you will be presented with the words from the the first phase. Your job is to decide whether you remember seeing the word or not. If you remember seeing the word press ""old"" or type ""m"". If you do not remember seeing the word press ""new"" or type ""z"". Please press the space bar or click on continue to begin. ",,,5cc273c32daae1001787e0f7,42,2022-02-12_14h48.45.024,lexical_decision_task_DD_L6,2021.2.3,MacIntel,60.14675809,5.7531,,,,,,,,,,,,,,,,,,,,,,,,,,,,,,,,,,,,,,,,,,,,,,,,,,,,,,,,,,,,,,,,,,2,0,2,0,1,,,,,,,,,,,,,,,
,-0.047397461,-0.354511719,1,0,0,instr_done_button,,,,,,1,test,"In the next phase you will be presented with the words from the the first phase. Your job is to decide whether you remember seeing the word or not. If you remember seeing the word press ""old"" or type ""m"". If you do not remember seeing the word press ""new"" or type ""z"". Please press the space bar or click on continue to begin. ",,,5cc273c32daae1001787e0f7,42,2022-02-12_14h48.45.024,lexical_decision_task_DD_L6,2021.2.3,MacIntel,60.14675809,,,,,,,,,,,,,,,,,,,,,,,,,,,,,,,,,,,,,,,,,,,,,,,,,,,,,,,,,,,,,,,,,,,3,0,3,0,1,,,,,,,,,,,,,,,
,-0.051293945,-0.410400391,1,0,0,instr_done_button,,,,,,1,test,"In the next phase you will be presented with the words from the the first phase. Your job is to decide whether you remember seeing the word or not. If you remember seeing the word press ""old"" or type ""m"". If you do not remember seeing the word press ""new"" or type ""z"". Please press the space bar or click on continue to begin. ",,,5cc273c32daae1001787e0f7,42,2022-02-12_14h48.45.024,lexical_decision_task_DD_L6,2021.2.3,MacIntel,60.14675809,,,,,,,,,,,,,,,,,,,,,,,,,,,,,,,,,,,,,,,,,,,,,,,,,,,,,,,,,,,,,,,,,,,4,0,4,0,1,,,,,,,,,,,,,,,
,,,,,,,,,,,,,,,,,5cc273c32daae1001787e0f7,42,2022-02-12_14h48.45.024,lexical_decision_task_DD_L6,2021.2.3,MacIntel,60.14675809,,,,,,,,,,,,1.6254,1,,,,,,,,,,,,,,,,,,,,,,,,-0.051293945,-0.410400391,0,0,0,,,,,,,ENGINE,HB,m,y,./images/ENGINEHB.png,,,,,,,,,,,,,,,,,,,,m,1,1.6254,,,,,,,,0,0,0,38,1
,,,,,,,,,,,,,,,,,5cc273c32daae1001787e0f7,42,2022-02-12_14h48.45.024,lexical_decision_task_DD_L6,2021.2.3,MacIntel,60.14675809,,,,,,,,,,,,4.6307,1,,,,,,,,,,,,,,,,,,,,,,,,-0.051293945,-0.410400391,0,0,0,,,,,,,FINGER,LB,z,y,./images/FINGERLB.png,,,,,,,,,,,,,,,,,,,,z,1,4.6307,,,,,,,,0,1,1,87,1
,,,,,,,,,,,,,,,,,5cc273c32daae1001787e0f7,42,2022-02-12_14h48.45.024,lexical_decision_task_DD_L6,2021.2.3,MacIntel,60.14675809,,,,,,,,,,,,1.0148,1,,,,,,,,,,,,,,,,,,,,,,,,-0.051293945,-0.410400391,0,0,0,,,,,,,SAUNA,LB,m,y,./images/SAUNALB.png,,,,,,,,,,,,,,,,,,,,m,1,1.0148,,,,,,,,0,2,2,33,1
,,,,,,,,,,,,,,,,,5cc273c32daae1001787e0f7,42,2022-02-12_14h48.45.024,lexical_decision_task_DD_L6,2021.2.3,MacIntel,60.14675809,,,,,,,,,,,,0.731,1,,,,,,,,,,,,,,,,,,,,,,,,-0.051293945,-0.410400391,0,0,0,,,,,,,LAGOON,HB,m,y,./images/LAGOONHB.png,,,,,,,,,,,,,,,,,,,,m,1,0.731,,,,,,,,0,3,3,47,1
,,,,,,,,,,,,,,,,,5cc273c32daae1001787e0f7,42,2022-02-12_14h48.45.024,lexical_decision_task_DD_L6,2021.2.3,MacIntel,60.14675809,,,,,,,,,,,,0.732,1,,,,,,,,,,,,,,,,,,,,,,,,-0.051293945,-0.410400391,0,0,0,,,,,,,THROAT,LB,z,y,./images/THROATLB.png,,,,,,,,,,,,,,,,,,,,z,1,0.732,,,,,,,,0,4,4,120,1
,,,,,,,,,,,,,,,,,5cc273c32daae1001787e0f7,42,2022-02-12_14h48.45.024,lexical_decision_task_DD_L6,2021.2.3,MacIntel,60.14675809,,,,,,,,,,,,1.0981,0,,,,,,,,,,,,,,,,,,,,,,,,-0.051293945,-0.410400391,0,0,0,,,,,,,STORM,LB,z,y,./images/STORMLB.png,,,,,,,,,,,,,,,,,,,,m,0,1.0981,,,,,,,,0,5,5,114,1
,,,,,,,,,,,,,,,,,5cc273c32daae1001787e0f7,42,2022-02-12_14h48.45.024,lexical_decision_task_DD_L6,2021.2.3,MacIntel,60.14675809,,,,,,,,,,,,0.8447,1,,,,,,,,,,,,,,,,,,,,,,,,-0.051293945,-0.410400391,0,0,0,,,,,,,CLOWN,C,m,y,./images/CLOWN.png,,,,,,,,,,,,,,,,,,,,m,1,0.8447,,,,,,,,0,6,6,22,1
,,,,,,,,,,,,,,,,,5cc273c32daae1001787e0f7,42,2022-02-12_14h48.45.024,lexical_decision_task_DD_L6,2021.2.3,MacIntel,60.14675809,,,,,,,,,,,,1.662,1,,,,,,,,,,,,,,,,,,,,,,,,-0.051293945,-0.410400391,0,0,0,,,,,,,SAILOR,C,z,y,./images/SAILOR.png,,,,,,,,,,,,,,,,,,,,z,1,1.662,,,,,,,,0,7,7,151,1
,,,,,,,,,,,,,,,,,5cc273c32daae1001787e0f7,42,2022-02-12_14h48.45.024,lexical_decision_task_DD_L6,2021.2.3,MacIntel,60.14675809,,,,,,,,,,,,0.7369,1,,,,,,,,,,,,,,,,,,,,,,,,-0.051293945,-0.410400391,0,0,0,,,,,,,LITTER,LB,z,y,./images/LITTERLB.png,,,,,,,,,,,,,,,,,,,,z,1,0.7369,,,,,,,,0,8,8,162,1
,,,,,,,,,,,,,,,,,5cc273c32daae1001787e0f7,42,2022-02-12_14h48.45.024,lexical_decision_task_DD_L6,2021.2.3,MacIntel,60.14675809,,,,,,,,,,,,0.6475,1,,,,,,,,,,,,,,,,,,,,,,,,-0.051293945,-0.410400391,0,0,0,,,,,,,MIRROR,LB,z,y,./images/MIRRORLB.png,,,,,,,,,,,,,,,,,,,,z,1,0.6475,,,,,,,,0,9,9,147,1
,,,,,,,,,,,,,,,,,5cc273c32daae1001787e0f7,42,2022-02-12_14h48.45.024,lexical_decision_task_DD_L6,2021.2.3,MacIntel,60.14675809,,,,,,,,,,,,2.0098,1,,,,,,,,,,,,,,,,,,,,,,,,-0.051293945,-0.410400391,0,0,0,,,,,,,BABOON,C,z,y,./images/BABOON.png,,,,,,,,,,,,,,,,,,,,z,1,2.0098,,,,,,,,0,10,10,142,1
,,,,,,,,,,,,,,,,,5cc273c32daae1001787e0f7,42,2022-02-12_14h48.45.024,lexical_decision_task_DD_L6,2021.2.3,MacIntel,60.14675809,,,,,,,,,,,,0.6083,1,,,,,,,,,,,,,,,,,,,,,,,,-0.051293945,-0.410400391,0,0,0,,,,,,,BUTTER,LB,m,y,./images/BUTTERLB.png,,,,,,,,,,,,,,,,,,,,m,1,0.6083,,,,,,,,0,11,11,27,1
,,,,,,,,,,,,,,,,,5cc273c32daae1001787e0f7,42,2022-02-12_14h48.45.024,lexical_decision_task_DD_L6,2021.2.3,MacIntel,60.14675809,,,,,,,,,,,,0.7157,0,,,,,,,,,,,,,,,,,,,,,,,,-0.051293945,-0.410400391,0,0,0,,,,,,,FARMER,HB,z,y,./images/FARMERHB.png,,,,,,,,,,,,,,,,,,,,m,0,0.7157,,,,,,,,0,12,12,149,1
,,,,,,,,,,,,,,,,,5cc273c32daae1001787e0f7,42,2022-02-12_14h48.45.024,lexical_decision_task_DD_L6,2021.2.3,MacIntel,60.14675809,,,,,,,,,,,,0.7794,1,,,,,,,,,,,,,,,,,,,,,,,,-0.051293945,-0.410400391,0,0,0,,,,,,,PASTA,HB,z,y,./images/PASTAHB.png,,,,,,,,,,,,,,,,,,,,z,1,0.7794,,,,,,,,0,13,13,89,1
,,,,,,,,,,,,,,,,,5cc273c32daae1001787e0f7,42,2022-02-12_14h48.45.024,lexical_decision_task_DD_L6,2021.2.3,MacIntel,60.14675809,,,,,,,,,,,,0.5982,1,,,,,,,,,,,,,,,,,,,,,,,,-0.051293945,-0.410400391,0,0,0,,,,,,,MOSQUE,C,z,y,./images/MOSQUE.png,,,,,,,,,,,,,,,,,,,,z,1,0.5982,,,,,,,,0,14,14,127,1
,,,,,,,,,,,,,,,,,5cc273c32daae1001787e0f7,42,2022-02-12_14h48.45.024,lexical_decision_task_DD_L6,2021.2.3,MacIntel,60.14675809,,,,,,,,,,,,1.4667,1,,,,,,,,,,,,,,,,,,,,,,,,-0.051293945,-0.410400391,0,0,0,,,,,,,SLOPE,LB,m,y,./images/SLOPELB.png,,,,,,,,,,,,,,,,,,,,m,1,1.4667,,,,,,,,0,15,15,30,1
,,,,,,,,,,,,,,,,,5cc273c32daae1001787e0f7,42,2022-02-12_14h48.45.024,lexical_decision_task_DD_L6,2021.2.3,MacIntel,60.14675809,,,,,,,,,,,,1.0054,1,,,,,,,,,,,,,,,,,,,,,,,,-0.051293945,-0.410400391,0,0,0,,,,,,,LADDER,HB,z,y,./images/LADDERHB.png,,,,,,,,,,,,,,,,,,,,z,1,1.0054,,,,,,,,0,16,16,122,1
,,,,,,,,,,,,,,,,,5cc273c32daae1001787e0f7,42,2022-02-12_14h48.45.024,lexical_decision_task_DD_L6,2021.2.3,MacIntel,60.14675809,,,,,,,,,,,,0.6323,1,,,,,,,,,,,,,,,,,,,,,,,,-0.051293945,-0.410400391,0,0,0,,,,,,,PISTOL,HB,m,y,./images/PISTOLHB.png,,,,,,,,,,,,,,,,,,,,m,1,0.6323,,,,,,,,0,17,17,29,1
,,,,,,,,,,,,,,,,,5cc273c32daae1001787e0f7,42,2022-02-12_14h48.45.024,lexical_decision_task_DD_L6,2021.2.3,MacIntel,60.14675809,,,,,,,,,,,,0.5879,1,,,,,,,,,,,,,,,,,,,,,,,,-0.051293945,-0.410400391,0,0,0,,,,,,,CLIFF,HB,m,y,./images/CLIFFHB.png,,,,,,,,,,,,,,,,,,,,m,1,0.5879,,,,,,,,0,18,18,8,1
,,,,,,,,,,,,,,,,,5cc273c32daae1001787e0f7,42,2022-02-12_14h48.45.024,lexical_decision_task_DD_L6,2021.2.3,MacIntel,60.14675809,,,,,,,,,,,,0.6883,1,,,,,,,,,,,,,,,,,,,,,,,,-0.051293945,-0.410400391,0,0,0,,,,,,,CEMENT,HB,z,y,./images/CEMENTHB.png,,,,,,,,,,,,,,,,,,,,z,1,0.6883,,,,,,,,0,19,19,158,1
,,,,,,,,,,,,,,,,,5cc273c32daae1001787e0f7,42,2022-02-12_14h48.45.024,lexical_decision_task_DD_L6,2021.2.3,MacIntel,60.14675809,,,,,,,,,,,,0.6577,1,,,,,,,,,,,,,,,,,,,,,,,,-0.051293945,-0.410400391,0,0,0,,,,,,,PIMPLE,HB,z,y,./images/PIMPLEHB.png,,,,,,,,,,,,,,,,,,,,z,1,0.6577,,,,,,,,0,20,20,155,1
,,,,,,,,,,,,,,,,,5cc273c32daae1001787e0f7,42,2022-02-12_14h48.45.024,lexical_decision_task_DD_L6,2021.2.3,MacIntel,60.14675809,,,,,,,,,,,,0.6744,1,,,,,,,,,,,,,,,,,,,,,,,,-0.051293945,-0.410400391,0,0,0,,,,,,,COUCH,HB,z,y,./images/COUCHHB.png,,,,,,,,,,,,,,,,,,,,z,1,0.6744,,,,,,,,0,21,21,161,1
,,,,,,,,,,,,,,,,,5cc273c32daae1001787e0f7,42,2022-02-12_14h48.45.024,lexical_decision_task_DD_L6,2021.2.3,MacIntel,60.14675809,,,,,,,,,,,,0.5824,1,,,,,,,,,,,,,,,,,,,,,,,,-0.051293945,-0.410400391,0,0,0,,,,,,,COLLAR,LB,m,y,./images/COLLARLB.png,,,,,,,,,,,,,,,,,,,,m,1,0.5824,,,,,,,,0,22,22,15,1
,,,,,,,,,,,,,,,,,5cc273c32daae1001787e0f7,42,2022-02-12_14h48.45.024,lexical_decision_task_DD_L6,2021.2.3,MacIntel,60.14675809,,,,,,,,,,,,0.7198,1,,,,,,,,,,,,,,,,,,,,,,,,-0.051293945,-0.410400391,0,0,0,,,,,,,PLANET,HB,m,y,./images/PLANETHB.png,,,,,,,,,,,,,,,,,,,,m,1,0.7198,,,,,,,,0,23,23,80,1
,,,,,,,,,,,,,,,,,5cc273c32daae1001787e0f7,42,2022-02-12_14h48.45.024,lexical_decision_task_DD_L6,2021.2.3,MacIntel,60.14675809,,,,,,,,,,,,0.7316,0,,,,,,,,,,,,,,,,,,,,,,,,-0.051293945,-0.410400391,0,0,0,,,,,,,DOUGH,C,z,y,./images/DOUGH.png,,,,,,,,,,,,,,,,,,,,m,0,0.7316,,,,,,,,0,24,24,103,1
,,,,,,,,,,,,,,,,,5cc273c32daae1001787e0f7,42,2022-02-12_14h48.45.024,lexical_decision_task_DD_L6,2021.2.3,MacIntel,60.14675809,,,,,,,,,,,,0.6851,1,,,,,,,,,,,,,,,,,,,,,,,,-0.051293945,-0.410400391,0,0,0,,,,,,,MIDGET,C,m,y,./images/MIDGET.png,,,,,,,,,,,,,,,,,,,,m,1,0.6851,,,,,,,,0,25,25,76,1
,,,,,,,,,,,,,,,,,5cc273c32daae1001787e0f7,42,2022-02-12_14h48.45.024,lexical_decision_task_DD_L6,2021.2.3,MacIntel,60.14675809,,,,,,,,,,,,1.0535,1,,,,,,,,,,,,,,,,,,,,,,,,-0.051293945,-0.410400391,0,0,0,,,,,,,GRAPE,C,m,y,./images/GRAPE.png,,,,,,,,,,,,,,,,,,,,m,1,1.0535,,,,,,,,0,26,26,16,1
,,,,,,,,,,,,,,,,,5cc273c32daae1001787e0f7,42,2022-02-12_14h48.45.024,lexical_decision_task_DD_L6,2021.2.3,MacIntel,60.14675809,,,,,,,,,,,,0.8297,1,,,,,,,,,,,,,,,,,,,,,,,,-0.051293945,-0.410400391,0,0,0,,,,,,,HOCKEY,HB,m,y,./images/HOCKEYHB.png,,,,,,,,,,,,,,,,,,,,m,1,0.8297,,,,,,,,0,27,27,32,1
,,,,,,,,,,,,,,,,,5cc273c32daae1001787e0f7,42,2022-02-12_14h48.45.024,lexical_decision_task_DD_L6,2021.2.3,MacIntel,60.14675809,,,,,,,,,,,,0.7482,1,,,,,,,,,,,,,,,,,,,,,,,,-0.051293945,-0.410400391,0,0,0,,,,,,,CANDLE,C,z,y,./images/CANDLE.png,,,,,,,,,,,,,,,,,,,,z,1,0.7482,,,,,,,,0,28,28,145,1
,,,,,,,,,,,,,,,,,5cc273c32daae1001787e0f7,42,2022-02-12_14h48.45.024,lexical_decision_task_DD_L6,2021.2.3,MacIntel,60.14675809,,,,,,,,,,,,0.7509,1,,,,,,,,,,,,,,,,,,,,,,,,-0.051293945,-0.410400391,0,0,0,,,,,,,PICKLE,HB,z,y,./images/PICKLEHB.png,,,,,,,,,,,,,,,,,,,,z,1,0.7509,,,,,,,,0,29,29,98,1
,,,,,,,,,,,,,,,,,5cc273c32daae1001787e0f7,42,2022-02-12_14h48.45.024,lexical_decision_task_DD_L6,2021.2.3,MacIntel,60.14675809,,,,,,,,,,,,0.7831,1,,,,,,,,,,,,,,,,,,,,,,,,-0.051293945,-0.410400391,0,0,0,,,,,,,FOLDER,LB,z,y,./images/FOLDERLB.png,,,,,,,,,,,,,,,,,,,,z,1,0.7831,,,,,,,,0,30,30,126,1
,,,,,,,,,,,,,,,,,5cc273c32daae1001787e0f7,42,2022-02-12_14h48.45.024,lexical_decision_task_DD_L6,2021.2.3,MacIntel,60.14675809,,,,,,,,,,,,0.6129,1,,,,,,,,,,,,,,,,,,,,,,,,-0.051293945,-0.410400391,0,0,0,,,,,,,SNAKE,C,m,y,./images/SNAKE.png,,,,,,,,,,,,,,,,,,,,m,1,0.6129,,,,,,,,0,31,31,40,1
,,,,,,,,,,,,,,,,,5cc273c32daae1001787e0f7,42,2022-02-12_14h48.45.024,lexical_decision_task_DD_L6,2021.2.3,MacIntel,60.14675809,,,,,,,,,,,,0.582,1,,,,,,,,,,,,,,,,,,,,,,,,-0.051293945,-0.410400391,0,0,0,,,,,,,DIVER,LB,m,y,./images/DIVERLB.png,,,,,,,,,,,,,,,,,,,,m,1,0.582,,,,,,,,0,32,32,9,1
,,,,,,,,,,,,,,,,,5cc273c32daae1001787e0f7,42,2022-02-12_14h48.45.024,lexical_decision_task_DD_L6,2021.2.3,MacIntel,60.14675809,,,,,,,,,,,,0.6154,1,,,,,,,,,,,,,,,,,,,,,,,,-0.051293945,-0.410400391,0,0,0,,,,,,,ARROW,LB,m,y,./images/ARROWLB.png,,,,,,,,,,,,,,,,,,,,m,1,0.6154,,,,,,,,0,33,33,69,1
,,,,,,,,,,,,,,,,,5cc273c32daae1001787e0f7,42,2022-02-12_14h48.45.024,lexical_decision_task_DD_L6,2021.2.3,MacIntel,60.14675809,,,,,,,,,,,,0.6463,1,,,,,,,,,,,,,,,,,,,,,,,,-0.051293945,-0.410400391,0,0,0,,,,,,,CANYON,C,z,y,./images/CANYON.png,,,,,,,,,,,,,,,,,,,,z,1,0.6463,,,,,,,,0,34,34,118,1
,,,,,,,,,,,,,,,,,5cc273c32daae1001787e0f7,42,2022-02-12_14h48.45.024,lexical_decision_task_DD_L6,2021.2.3,MacIntel,60.14675809,,,,,,,,,,,,0.688,1,,,,,,,,,,,,,,,,,,,,,,,,-0.051293945,-0.410400391,0,0,0,,,,,,,BLOKE,LB,m,y,./images/BLOKELB.png,,,,,,,,,,,,,,,,,,,,m,1,0.688,,,,,,,,0,35,35,12,1
,,,,,,,,,,,,,,,,,5cc273c32daae1001787e0f7,42,2022-02-12_14h48.45.024,lexical_decision_task_DD_L6,2021.2.3,MacIntel,60.14675809,,,,,,,,,,,,0.6889,1,,,,,,,,,,,,,,,,,,,,,,,,-0.051293945,-0.410400391,0,0,0,,,,,,,BISHOP,C,m,y,./images/BISHOP.png,,,,,,,,,,,,,,,,,,,,m,1,0.6889,,,,,,,,0,36,36,49,1
,,,,,,,,,,,,,,,,,5cc273c32daae1001787e0f7,42,2022-02-12_14h48.45.024,lexical_decision_task_DD_L6,2021.2.3,MacIntel,60.14675809,,,,,,,,,,,,0.6486,1,,,,,,,,,,,,,,,,,,,,,,,,-0.051293945,-0.410400391,0,0,0,,,,,,,GRANNY,HB,m,y,./images/GRANNYHB.png,,,,,,,,,,,,,,,,,,,,m,1,0.6486,,,,,,,,0,37,37,20,1
,,,,,,,,,,,,,,,,,5cc273c32daae1001787e0f7,42,2022-02-12_14h48.45.024,lexical_decision_task_DD_L6,2021.2.3,MacIntel,60.14675809,,,,,,,,,,,,0.9075,1,,,,,,,,,,,,,,,,,,,,,,,,-0.051293945,-0.410400391,0,0,0,,,,,,,MALLET,HB,z,y,./images/MALLETHB.png,,,,,,,,,,,,,,,,,,,,z,1,0.9075,,,,,,,,0,38,38,134,1
,,,,,,,,,,,,,,,,,5cc273c32daae1001787e0f7,42,2022-02-12_14h48.45.024,lexical_decision_task_DD_L6,2021.2.3,MacIntel,60.14675809,,,,,,,,,,,,0.6751,1,,,,,,,,,,,,,,,,,,,,,,,,-0.051293945,-0.410400391,0,0,0,,,,,,,CHAIN,LB,m,y,./images/CHAINLB.png,,,,,,,,,,,,,,,,,,,,m,1,0.6751,,,,,,,,0,39,39,42,1
,,,,,,,,,,,,,,,,,5cc273c32daae1001787e0f7,42,2022-02-12_14h48.45.024,lexical_decision_task_DD_L6,2021.2.3,MacIntel,60.14675809,,,,,,,,,,,,0.588,1,,,,,,,,,,,,,,,,,,,,,,,,-0.051293945,-0.410400391,0,0,0,,,,,,,SPINE,HB,m,y,./images/SPINEHB.png,,,,,,,,,,,,,,,,,,,,m,1,0.588,,,,,,,,0,40,40,65,1
,,,,,,,,,,,,,,,,,5cc273c32daae1001787e0f7,42,2022-02-12_14h48.45.024,lexical_decision_task_DD_L6,2021.2.3,MacIntel,60.14675809,,,,,,,,,,,,0.7205,1,,,,,,,,,,,,,,,,,,,,,,,,-0.051293945,-0.410400391,0,0,0,space,,,,,,COOKER,LB,z,y,./images/COOKERLB.png,1.3328,,,,,,,,,,,,,,,,,,,z,1,0.7205,,,,,,,,0,41,41,153,1
,,,,,,,,,,,,,,,,,5cc273c32daae1001787e0f7,42,2022-02-12_14h48.45.024,lexical_decision_task_DD_L6,2021.2.3,MacIntel,60.14675809,,,,,,,,,,,,1.9454,0,,,,,,,,,,,,,,,,,,,,,,,,-0.051293945,-0.410400391,0,0,0,,,,,,,DANCER,LB,m,y,./images/DANCERLB.png,,,,,,,,,,,,,,,,,,,,z,0,1.9454,,,,,,,,0,42,42,21,1
,,,,,,,,,,,,,,,,,5cc273c32daae1001787e0f7,42,2022-02-12_14h48.45.024,lexical_decision_task_DD_L6,2021.2.3,MacIntel,60.14675809,,,,,,,,,,,,0.6614,1,,,,,,,,,,,,,,,,,,,,,,,,-0.051293945,-0.410400391,0,0,0,,,,,,,PEBBLE,C,m,y,./images/PEBBLE.png,,,,,,,,,,,,,,,,,,,,m,1,0.6614,,,,,,,,0,43,43,82,1
,,,,,,,,,,,,,,,,,5cc273c32daae1001787e0f7,42,2022-02-12_14h48.45.024,lexical_decision_task_DD_L6,2021.2.3,MacIntel,60.14675809,,,,,,,,,,,,0.7279,1,,,,,,,,,,,,,,,,,,,,,,,,-0.051293945,-0.410400391,0,0,0,,,,,,,SKIING,HB,z,y,./images/SKIINGHB.png,,,,,,,,,,,,,,,,,,,,z,1,0.7279,,,,,,,,0,44,44,101,1
,,,,,,,,,,,,,,,,,5cc273c32daae1001787e0f7,42,2022-02-12_14h48.45.024,lexical_decision_task_DD_L6,2021.2.3,MacIntel,60.14675809,,,,,,,,,,,,1.3332,0,,,,,,,,,,,,,,,,,,,,,,,,-0.051293945,-0.410400391,0,0,0,,,,,,,BANNER,C,z,y,./images/BANNER.png,,,,,,,,,,,,,,,,,,,,m,0,1.3332,,,,,,,,0,45,45,136,1
,,,,,,,,,,,,,,,,,5cc273c32daae1001787e0f7,42,2022-02-12_14h48.45.024,lexical_decision_task_DD_L6,2021.2.3,MacIntel,60.14675809,,,,,,,,,,,,0.6367,1,,,,,,,,,,,,,,,,,,,,,,,,-0.051293945,-0.410400391,0,0,0,,,,,,,MUMMY,C,m,y,./images/MUMMY.png,,,,,,,,,,,,,,,,,,,,m,1,0.6367,,,,,,,,0,46,46,46,1
,,,,,,,,,,,,,,,,,5cc273c32daae1001787e0f7,42,2022-02-12_14h48.45.024,lexical_decision_task_DD_L6,2021.2.3,MacIntel,60.14675809,,,,,,,,,,,,0.5974,1,,,,,,,,,,,,,,,,,,,,,,,,-0.051293945,-0.410400391,0,0,0,,,,,,,BUBBLE,HB,m,y,./images/BUBBLEHB.png,,,,,,,,,,,,,,,,,,,,m,1,0.5974,,,,,,,,0,47,47,71,1
,,,,,,,,,,,,,,,,,5cc273c32daae1001787e0f7,42,2022-02-12_14h48.45.024,lexical_decision_task_DD_L6,2021.2.3,MacIntel,60.14675809,,,,,,,,,,,,0.6984,1,,,,,,,,,,,,,,,,,,,,,,,,-0.051293945,-0.410400391,0,0,0,,,,,,,TORCH,HB,z,y,./images/TORCHHB.png,,,,,,,,,,,,,,,,,,,,z,1,0.6984,,,,,,,,0,48,48,152,1
,,,,,,,,,,,,,,,,,5cc273c32daae1001787e0f7,42,2022-02-12_14h48.45.024,lexical_decision_task_DD_L6,2021.2.3,MacIntel,60.14675809,,,,,,,,,,,,0.7556,1,,,,,,,,,,,,,,,,,,,,,,,,-0.051293945,-0.410400391,0,0,0,,,,,,,BERRY,HB,z,y,./images/BERRYHB.png,,,,,,,,,,,,,,,,,,,,z,1,0.7556,,,,,,,,0,49,49,131,1
,,,,,,,,,,,,,,,,,5cc273c32daae1001787e0f7,42,2022-02-12_14h48.45.024,lexical_decision_task_DD_L6,2021.2.3,MacIntel,60.14675809,,,,,,,,,,,,0.628,1,,,,,,,,,,,,,,,,,,,,,,,,-0.051293945,-0.410400391,0,0,0,,,,,,,FLESH,LB,m,y,./images/FLESHLB.png,,,,,,,,,,,,,,,,,,,,m,1,0.628,,,,,,,,0,50,50,24,1
,,,,,,,,,,,,,,,,,5cc273c32daae1001787e0f7,42,2022-02-12_14h48.45.024,lexical_decision_task_DD_L6,2021.2.3,MacIntel,60.14675809,,,,,,,,,,,,0.631,1,,,,,,,,,,,,,,,,,,,,,,,,-0.051293945,-0.410400391,0,0,0,,,,,,,RULER,C,m,y,./images/RULER.png,,,,,,,,,,,,,,,,,,,,m,1,0.631,,,,,,,,0,51,51,79,1
,,,,,,,,,,,,,,,,,5cc273c32daae1001787e0f7,42,2022-02-12_14h48.45.024,lexical_decision_task_DD_L6,2021.2.3,MacIntel,60.14675809,,,,,,,,,,,,0.5806,0,,,,,,,,,,,,,,,,,,,,,,,,-0.051293945,-0.410400391,0,0,0,,,,,,,MUSCLE,C,z,y,./images/MUSCLE.png,,,,,,,,,,,,,,,,,,,,m,0,0.5806,,,,,,,,0,52,52,88,1
,,,,,,,,,,,,,,,,,5cc273c32daae1001787e0f7,42,2022-02-12_14h48.45.024,lexical_decision_task_DD_L6,2021.2.3,MacIntel,60.14675809,,,,,,,,,,,,0.8149,0,,,,,,,,,,,,,,,,,,,,,,,,-0.051293945,-0.410400391,0,0,0,,,,,,,PENCE,C,z,y,./images/PENCE.png,,,,,,,,,,,,,,,,,,,,m,0,0.8149,,,,,,,,0,53,53,100,1
,,,,,,,,,,,,,,,,,5cc273c32daae1001787e0f7,42,2022-02-12_14h48.45.024,lexical_decision_task_DD_L6,2021.2.3,MacIntel,60.14675809,,,,,,,,,,,,0.7171,1,,,,,,,,,,,,,,,,,,,,,,,,-0.051293945,-0.410400391,0,0,0,,,,,,,PARCEL,LB,m,y,./images/PARCELLB.png,,,,,,,,,,,,,,,,,,,,m,1,0.7171,,,,,,,,0,54,54,18,1
,,,,,,,,,,,,,,,,,5cc273c32daae1001787e0f7,42,2022-02-12_14h48.45.024,lexical_decision_task_DD_L6,2021.2.3,MacIntel,60.14675809,,,,,,,,,,,,0.6813,1,,,,,,,,,,,,,,,,,,,,,,,,-0.051293945,-0.410400391,0,0,0,,,,,,,CHALK,C,m,y,./images/CHALK.png,,,,,,,,,,,,,,,,,,,,m,1,0.6813,,,,,,,,0,55,55,25,1
,,,,,,,,,,,,,,,,,5cc273c32daae1001787e0f7,42,2022-02-12_14h48.45.024,lexical_decision_task_DD_L6,2021.2.3,MacIntel,60.14675809,,,,,,,,,,,,0.6521,1,,,,,,,,,,,,,,,,,,,,,,,,-0.051293945,-0.410400391,0,0,0,,,,,,,ATTIC,LB,z,y,./images/ATTICLB.png,,,,,,,,,,,,,,,,,,,,z,1,0.6521,,,,,,,,0,56,56,111,1
,,,,,,,,,,,,,,,,,5cc273c32daae1001787e0f7,42,2022-02-12_14h48.45.024,lexical_decision_task_DD_L6,2021.2.3,MacIntel,60.14675809,,,,,,,,,,,,0.6697,1,,,,,,,,,,,,,,,,,,,,,,,,-0.051293945,-0.410400391,0,0,0,,,,,,,BUNNY,C,m,y,./images/BUNNY.png,,,,,,,,,,,,,,,,,,,,m,1,0.6697,,,,,,,,0,57,57,13,1
,,,,,,,,,,,,,,,,,5cc273c32daae1001787e0f7,42,2022-02-12_14h48.45.024,lexical_decision_task_DD_L6,2021.2.3,MacIntel,60.14675809,,,,,,,,,,,,1.3181,1,,,,,,,,,,,,,,,,,,,,,,,,-0.051293945,-0.410400391,0,0,0,,,,,,,ARTIST,C,m,y,./images/ARTIST.png,,,,,,,,,,,,,,,,,,,,m,1,1.3181,,,,,,,,0,58,58,61,1
,,,,,,,,,,,,,,,,,5cc273c32daae1001787e0f7,42,2022-02-12_14h48.45.024,lexical_decision_task_DD_L6,2021.2.3,MacIntel,60.14675809,,,,,,,,,,,,2.2957,1,,,,,,,,,,,,,,,,,,,,,,,,-0.051293945,-0.410400391,0,0,0,,,,,,,KIDNEY,LB,z,y,./images/KIDNEYLB.png,,,,,,,,,,,,,,,,,,,,z,1,2.2957,,,,,,,,0,59,59,105,1
,,,,,,,,,,,,,,,,,5cc273c32daae1001787e0f7,42,2022-02-12_14h48.45.024,lexical_decision_task_DD_L6,2021.2.3,MacIntel,60.14675809,,,,,,,,,,,,0.7649,1,,,,,,,,,,,,,,,,,,,,,,,,-0.051293945,-0.410400391,0,0,0,,,,,,,POODLE,LB,z,y,./images/POODLELB.png,,,,,,,,,,,,,,,,,,,,z,1,0.7649,,,,,,,,0,60,60,165,1
,,,,,,,,,,,,,,,,,5cc273c32daae1001787e0f7,42,2022-02-12_14h48.45.024,lexical_decision_task_DD_L6,2021.2.3,MacIntel,60.14675809,,,,,,,,,,,,0.6561,1,,,,,,,,,,,,,,,,,,,,,,,,-0.051293945,-0.410400391,0,0,0,,,,,,,LLAMA,HB,m,y,./images/LLAMAHB.png,,,,,,,,,,,,,,,,,,,,m,1,0.6561,,,,,,,,0,61,61,35,1
,,,,,,,,,,,,,,,,,5cc273c32daae1001787e0f7,42,2022-02-12_14h48.45.024,lexical_decision_task_DD_L6,2021.2.3,MacIntel,60.14675809,,,,,,,,,,,,0.5691,1,,,,,,,,,,,,,,,,,,,,,,,,-0.051293945,-0.410400391,0,0,0,,,,,,,MONKEY,LB,m,y,./images/MONKEYLB.png,,,,,,,,,,,,,,,,,,,,m,1,0.5691,,,,,,,,0,62,62,45,1
,,,,,,,,,,,,,,,,,5cc273c32daae1001787e0f7,42,2022-02-12_14h48.45.024,lexical_decision_task_DD_L6,2021.2.3,MacIntel,60.14675809,,,,,,,,,,,,0.6865,1,,,,,,,,,,,,,,,,,,,,,,,,-0.051293945,-0.410400391,0,0,0,,,,,,,ONION,LB,z,y,./images/ONIONLB.png,,,,,,,,,,,,,,,,,,,,z,1,0.6865,,,,,,,,0,63,63,135,1
,,,,,,,,,,,,,,,,,5cc273c32daae1001787e0f7,42,2022-02-12_14h48.45.024,lexical_decision_task_DD_L6,2021.2.3,MacIntel,60.14675809,,,,,,,,,,,,0.5991,0,,,,,,,,,,,,,,,,,,,,,,,,-0.051293945,-0.410400391,0,0,0,,,,,,,STATUE,LB,m,y,./images/STATUELB.png,,,,,,,,,,,,,,,,,,,,z,0,0.5991,,,,,,,,0,64,64,66,1
,,,,,,,,,,,,,,,,,5cc273c32daae1001787e0f7,42,2022-02-12_14h48.45.024,lexical_decision_task_DD_L6,2021.2.3,MacIntel,60.14675809,,,,,,,,,,,,0.6787,1,,,,,,,,,,,,,,,,,,,,,,,,-0.051293945,-0.410400391,0,0,0,,,,,,,WHEEL,HB,m,y,./images/WHEELHB.png,,,,,,,,,,,,,,,,,,,,m,1,0.6787,,,,,,,,0,65,65,77,1
,,,,,,,,,,,,,,,,,5cc273c32daae1001787e0f7,42,2022-02-12_14h48.45.024,lexical_decision_task_DD_L6,2021.2.3,MacIntel,60.14675809,,,,,,,,,,,,0.6639,1,,,,,,,,,,,,,,,,,,,,,,,,-0.051293945,-0.410400391,0,0,0,,,,,,,TIGER,C,m,y,./images/TIGER.png,,,,,,,,,,,,,,,,,,,,m,1,0.6639,,,,,,,,0,66,66,37,1
,,,,,,,,,,,,,,,,,5cc273c32daae1001787e0f7,42,2022-02-12_14h48.45.024,lexical_decision_task_DD_L6,2021.2.3,MacIntel,60.14675809,,,,,,,,,,,,0.9717,0,,,,,,,,,,,,,,,,,,,,,,,,-0.051293945,-0.410400391,0,0,0,,,,,,,CRUMB,HB,z,y,./images/CRUMBHB.png,,,,,,,,,,,,,,,,,,,,m,0,0.9717,,,,,,,,0,67,67,113,1
,,,,,,,,,,,,,,,,,5cc273c32daae1001787e0f7,42,2022-02-12_14h48.45.024,lexical_decision_task_DD_L6,2021.2.3,MacIntel,60.14675809,,,,,,,,,,,,0.681,1,,,,,,,,,,,,,,,,,,,,,,,,-0.051293945,-0.410400391,0,0,0,,,,,,,STOOL,C,m,y,./images/STOOL.png,,,,,,,,,,,,,,,,,,,,m,1,0.681,,,,,,,,0,68,68,43,1
,,,,,,,,,,,,,,,,,5cc273c32daae1001787e0f7,42,2022-02-12_14h48.45.024,lexical_decision_task_DD_L6,2021.2.3,MacIntel,60.14675809,,,,,,,,,,,,0.754,1,,,,,,,,,,,,,,,,,,,,,,,,-0.051293945,-0.410400391,0,0,0,,,,,,,SUNSET,C,z,y,./images/SUNSET.png,,,,,,,,,,,,,,,,,,,,z,1,0.754,,,,,,,,0,69,69,166,1
,,,,,,,,,,,,,,,,,5cc273c32daae1001787e0f7,42,2022-02-12_14h48.45.024,lexical_decision_task_DD_L6,2021.2.3,MacIntel,60.14675809,,,,,,,,,,,,0.7837,1,,,,,,,,,,,,,,,,,,,,,,,,-0.051293945,-0.410400391,0,0,0,,,,,,,POKER,C,m,y,./images/POKER.png,,,,,,,,,,,,,,,,,,,,m,1,0.7837,,,,,,,,0,70,70,67,1
,,,,,,,,,,,,,,,,,5cc273c32daae1001787e0f7,42,2022-02-12_14h48.45.024,lexical_decision_task_DD_L6,2021.2.3,MacIntel,60.14675809,,,,,,,,,,,,1.254,1,,,,,,,,,,,,,,,,,,,,,,,,-0.051293945,-0.410400391,0,0,0,,,,,,,FENCE,HB,m,y,./images/FENCEHB.png,,,,,,,,,,,,,,,,,,,,m,1,1.254,,,,,,,,0,71,71,14,1
,,,,,,,,,,,,,,,,,5cc273c32daae1001787e0f7,42,2022-02-12_14h48.45.024,lexical_decision_task_DD_L6,2021.2.3,MacIntel,60.14675809,,,,,,,,,,,,1.0134,0,,,,,,,,,,,,,,,,,,,,,,,,-0.051293945,-0.410400391,0,0,0,,,,,,,GARDEN,C,m,y,./images/GARDEN.png,,,,,,,,,,,,,,,,,,,,z,0,1.0134,,,,,,,,0,72,72,10,1
,,,,,,,,,,,,,,,,,5cc273c32daae1001787e0f7,42,2022-02-12_14h48.45.024,lexical_decision_task_DD_L6,2021.2.3,MacIntel,60.14675809,,,,,,,,,,,,0.973,1,,,,,,,,,,,,,,,,,,,,,,,,-0.051293945,-0.410400391,0,0,0,,,,,,,KITTEN,LB,z,y,./images/KITTENLB.png,,,,,,,,,,,,,,,,,,,,z,1,0.973,,,,,,,,0,73,73,129,1
,,,,,,,,,,,,,,,,,5cc273c32daae1001787e0f7,42,2022-02-12_14h48.45.024,lexical_decision_task_DD_L6,2021.2.3,MacIntel,60.14675809,,,,,,,,,,,,0.8123,1,,,,,,,,,,,,,,,,,,,,,,,,-0.051293945,-0.410400391,0,0,0,,,,,,,MOTOR,C,z,y,./images/MOTOR.png,,,,,,,,,,,,,,,,,,,,z,1,0.8123,,,,,,,,0,74,74,97,1
,,,,,,,,,,,,,,,,,5cc273c32daae1001787e0f7,42,2022-02-12_14h48.45.024,lexical_decision_task_DD_L6,2021.2.3,MacIntel,60.14675809,,,,,,,,,,,,0.6491,1,,,,,,,,,,,,,,,,,,,,,,,,-0.051293945,-0.410400391,0,0,0,,,,,,,FERRY,LB,m,y,./images/FERRYLB.png,,,,,,,,,,,,,,,,,,,,m,1,0.6491,,,,,,,,0,75,75,57,1
,,,,,,,,,,,,,,,,,5cc273c32daae1001787e0f7,42,2022-02-12_14h48.45.024,lexical_decision_task_DD_L6,2021.2.3,MacIntel,60.14675809,,,,,,,,,,,,0.6476,1,,,,,,,,,,,,,,,,,,,,,,,,-0.051293945,-0.410400391,0,0,0,,,,,,,BASKET,HB,m,y,./images/BASKETHB.png,,,,,,,,,,,,,,,,,,,,m,1,0.6476,,,,,,,,0,76,76,44,1
,,,,,,,,,,,,,,,,,5cc273c32daae1001787e0f7,42,2022-02-12_14h48.45.024,lexical_decision_task_DD_L6,2021.2.3,MacIntel,60.14675809,,,,,,,,,,,,0.8152,1,,,,,,,,,,,,,,,,,,,,,,,,-0.051293945,-0.410400391,0,0,0,,,,,,,MAGGOT,LB,z,y,./images/MAGGOTLB.png,,,,,,,,,,,,,,,,,,,,z,1,0.8152,,,,,,,,0,77,77,117,1
,,,,,,,,,,,,,,,,,5cc273c32daae1001787e0f7,42,2022-02-12_14h48.45.024,lexical_decision_task_DD_L6,2021.2.3,MacIntel,60.14675809,,,,,,,,,,,,0.5989,1,,,,,,,,,,,,,,,,,,,,,,,,-0.051293945,-0.410400391,0,0,0,,,,,,,JUMPER,HB,m,y,./images/JUMPERHB.png,,,,,,,,,,,,,,,,,,,,m,1,0.5989,,,,,,,,0,78,78,74,1
,,,,,,,,,,,,,,,,,5cc273c32daae1001787e0f7,42,2022-02-12_14h48.45.024,lexical_decision_task_DD_L6,2021.2.3,MacIntel,60.14675809,,,,,,,,,,,,0.8324,0,,,,,,,,,,,,,,,,,,,,,,,,-0.051293945,-0.410400391,0,0,0,,,,,,,BANANA,C,m,y,./images/BANANA.png,,,,,,,,,,,,,,,,,,,,z,0,0.8324,,,,,,,,0,79,79,70,1
,,,,,,,,,,,,,,,,,5cc273c32daae1001787e0f7,42,2022-02-12_14h48.45.024,lexical_decision_task_DD_L6,2021.2.3,MacIntel,60.14675809,,,,,,,,,,,,0.8282,1,,,,,,,,,,,,,,,,,,,,,,,,-0.051293945,-0.410400391,0,0,0,,,,,,,SWEAT,LB,z,y,./images/SWEATLB.png,,,,,,,,,,,,,,,,,,,,z,1,0.8282,,,,,,,,0,80,80,150,1
,,,,,,,,,,,,,,,,,5cc273c32daae1001787e0f7,42,2022-02-12_14h48.45.024,lexical_decision_task_DD_L6,2021.2.3,MacIntel,60.14675809,,,,,,,,,,,,1.7648,0,,,,,,,,,,,,,,,,,,,,,,,,-0.051293945,-0.410400391,0,0,0,,,,,,,BRIDE,C,m,y,./images/BRIDE.png,,,,,,,,,,,,,,,,,,,,z,0,1.7648,,,,,,,,0,81,81,64,1
,,,,,,,,,,,,,,,,,5cc273c32daae1001787e0f7,42,2022-02-12_14h48.45.024,lexical_decision_task_DD_L6,2021.2.3,MacIntel,60.14675809,,,,,,,,,,,,1.0852,0,,,,,,,,,,,,,,,,,,,,,,,,-0.051293945,-0.410400391,0,0,0,,,,,,,CRUST,C,z,y,./images/CRUST.png,,,,,,,,,,,,,,,,,,,,m,0,1.0852,,,,,,,,0,82,82,163,1
,,,,,,,,,,,,,,,,,5cc273c32daae1001787e0f7,42,2022-02-12_14h48.45.024,lexical_decision_task_DD_L6,2021.2.3,MacIntel,60.14675809,,,,,,,,,,,,1.7649,1,,,,,,,,,,,,,,,,,,,,,,,,-0.051293945,-0.410400391,0,0,0,space,,,,,,MOOSE,LB,z,y,./images/MOOSELB.png,1.3561,,,,,,,,,,,,,,,,,,,z,1,1.7649,,,,,,,,0,83,83,141,1
,,,,,,,,,,,,,,,,,5cc273c32daae1001787e0f7,42,2022-02-12_14h48.45.024,lexical_decision_task_DD_L6,2021.2.3,MacIntel,60.14675809,,,,,,,,,,,,1.2641,1,,,,,,,,,,,,,,,,,,,,,,,,-0.051293945,-0.410400391,0,0,0,,,,,,,CANDY,LB,m,y,./images/CANDYLB.png,,,,,,,,,,,,,,,,,,,,m,1,1.2641,,,,,,,,0,84,84,39,1
,,,,,,,,,,,,,,,,,5cc273c32daae1001787e0f7,42,2022-02-12_14h48.45.024,lexical_decision_task_DD_L6,2021.2.3,MacIntel,60.14675809,,,,,,,,,,,,0.6481,1,,,,,,,,,,,,,,,,,,,,,,,,-0.051293945,-0.410400391,0,0,0,,,,,,,GLOVE,C,m,y,./images/GLOVE.png,,,,,,,,,,,,,,,,,,,,m,1,0.6481,,,,,,,,0,85,85,73,1
,,,,,,,,,,,,,,,,,5cc273c32daae1001787e0f7,42,2022-02-12_14h48.45.024,lexical_decision_task_DD_L6,2021.2.3,MacIntel,60.14675809,,,,,,,,,,,,0.6991,1,,,,,,,,,,,,,,,,,,,,,,,,-0.051293945,-0.410400391,0,0,0,,,,,,,NOOSE,LB,z,y,./images/NOOSELB.png,,,,,,,,,,,,,,,,,,,,z,1,0.6991,,,,,,,,0,86,86,156,1
,,,,,,,,,,,,,,,,,5cc273c32daae1001787e0f7,42,2022-02-12_14h48.45.024,lexical_decision_task_DD_L6,2021.2.3,MacIntel,60.14675809,,,,,,,,,,,,0.854,1,,,,,,,,,,,,,,,,,,,,,,,,-0.051293945,-0.410400391,0,0,0,,,,,,,CARPET,HB,z,y,./images/CARPETHB.png,,,,,,,,,,,,,,,,,,,,z,1,0.854,,,,,,,,0,87,87,137,1
,,,,,,,,,,,,,,,,,5cc273c32daae1001787e0f7,42,2022-02-12_14h48.45.024,lexical_decision_task_DD_L6,2021.2.3,MacIntel,60.14675809,,,,,,,,,,,,0.6401,1,,,,,,,,,,,,,,,,,,,,,,,,-0.051293945,-0.410400391,0,0,0,,,,,,,BOXER,C,m,y,./images/BOXER.png,,,,,,,,,,,,,,,,,,,,m,1,0.6401,,,,,,,,0,88,88,4,1
,,,,,,,,,,,,,,,,,5cc273c32daae1001787e0f7,42,2022-02-12_14h48.45.024,lexical_decision_task_DD_L6,2021.2.3,MacIntel,60.14675809,,,,,,,,,,,,0.665,1,,,,,,,,,,,,,,,,,,,,,,,,-0.051293945,-0.410400391,0,0,0,,,,,,,PARADE,HB,m,y,./images/PARADEHB.png,,,,,,,,,,,,,,,,,,,,m,1,0.665,,,,,,,,0,89,89,17,1
,,,,,,,,,,,,,,,,,5cc273c32daae1001787e0f7,42,2022-02-12_14h48.45.024,lexical_decision_task_DD_L6,2021.2.3,MacIntel,60.14675809,,,,,,,,,,,,0.7872,1,,,,,,,,,,,,,,,,,,,,,,,,-0.051293945,-0.410400391,0,0,0,,,,,,,BONNET,HB,z,y,./images/BONNETHB.png,,,,,,,,,,,,,,,,,,,,z,1,0.7872,,,,,,,,0,90,90,95,1
,,,,,,,,,,,,,,,,,5cc273c32daae1001787e0f7,42,2022-02-12_14h48.45.024,lexical_decision_task_DD_L6,2021.2.3,MacIntel,60.14675809,,,,,,,,,,,,0.6982,0,,,,,,,,,,,,,,,,,,,,,,,,-0.051293945,-0.410400391,0,0,0,,,,,,,PLANK,C,z,y,./images/PLANK.png,,,,,,,,,,,,,,,,,,,,m,0,0.6982,,,,,,,,0,91,91,85,1
,,,,,,,,,,,,,,,,,5cc273c32daae1001787e0f7,42,2022-02-12_14h48.45.024,lexical_decision_task_DD_L6,2021.2.3,MacIntel,60.14675809,,,,,,,,,,,,0.8569,1,,,,,,,,,,,,,,,,,,,,,,,,-0.051293945,-0.410400391,0,0,0,,,,,,,PEARL,C,z,y,./images/PEARL.png,,,,,,,,,,,,,,,,,,,,z,1,0.8569,,,,,,,,0,92,92,130,1
,,,,,,,,,,,,,,,,,5cc273c32daae1001787e0f7,42,2022-02-12_14h48.45.024,lexical_decision_task_DD_L6,2021.2.3,MacIntel,60.14675809,,,,,,,,,,,,0.7227,0,,,,,,,,,,,,,,,,,,,,,,,,-0.051293945,-0.410400391,0,0,0,,,,,,,GREASE,LB,z,y,./images/GREASELB.png,,,,,,,,,,,,,,,,,,,,m,0,0.7227,,,,,,,,0,93,93,99,1
,,,,,,,,,,,,,,,,,5cc273c32daae1001787e0f7,42,2022-02-12_14h48.45.024,lexical_decision_task_DD_L6,2021.2.3,MacIntel,60.14675809,,,,,,,,,,,,0.7307,1,,,,,,,,,,,,,,,,,,,,,,,,-0.051293945,-0.410400391,0,0,0,,,,,,,WALRUS,HB,z,y,./images/WALRUSHB.png,,,,,,,,,,,,,,,,,,,,z,1,0.7307,,,,,,,,0,94,94,107,1
,,,,,,,,,,,,,,,,,5cc273c32daae1001787e0f7,42,2022-02-12_14h48.45.024,lexical_decision_task_DD_L6,2021.2.3,MacIntel,60.14675809,,,,,,,,,,,,0.8727,1,,,,,,,,,,,,,,,,,,,,,,,,-0.051293945,-0.410400391,0,0,0,,,,,,,SCREW,LB,z,y,./images/SCREWLB.png,,,,,,,,,,,,,,,,,,,,z,1,0.8727,,,,,,,,0,95,95,108,1
,,,,,,,,,,,,,,,,,5cc273c32daae1001787e0f7,42,2022-02-12_14h48.45.024,lexical_decision_task_DD_L6,2021.2.3,MacIntel,60.14675809,,,,,,,,,,,,1.1223,0,,,,,,,,,,,,,,,,,,,,,,,,-0.051293945,-0.410400391,0,0,0,,,,,,,WALNUT,LB,m,y,./images/WALNUTLB.png,,,,,,,,,,,,,,,,,,,,z,0,1.1223,,,,,,,,0,96,96,0,1
,,,,,,,,,,,,,,,,,5cc273c32daae1001787e0f7,42,2022-02-12_14h48.45.024,lexical_decision_task_DD_L6,2021.2.3,MacIntel,60.14675809,,,,,,,,,,,,0.9466,0,,,,,,,,,,,,,,,,,,,,,,,,-0.051293945,-0.410400391,0,0,0,,,,,,,SHORE,LB,z,y,./images/SHORELB.png,,,,,,,,,,,,,,,,,,,,m,0,0.9466,,,,,,,,0,97,97,96,1
,,,,,,,,,,,,,,,,,5cc273c32daae1001787e0f7,42,2022-02-12_14h48.45.024,lexical_decision_task_DD_L6,2021.2.3,MacIntel,60.14675809,,,,,,,,,,,,0.7285,1,,,,,,,,,,,,,,,,,,,,,,,,-0.051293945,-0.410400391,0,0,0,,,,,,,JAGUAR,LB,z,y,./images/JAGUARLB.png,,,,,,,,,,,,,,,,,,,,z,1,0.7285,,,,,,,,0,98,98,102,1
,,,,,,,,,,,,,,,,,5cc273c32daae1001787e0f7,42,2022-02-12_14h48.45.024,lexical_decision_task_DD_L6,2021.2.3,MacIntel,60.14675809,,,,,,,,,,,,0.687,1,,,,,,,,,,,,,,,,,,,,,,,,-0.051293945,-0.410400391,0,0,0,,,,,,,URINE,C,z,y,./images/URINE.png,,,,,,,,,,,,,,,,,,,,z,1,0.687,,,,,,,,0,99,99,154,1
,,,,,,,,,,,,,,,,,5cc273c32daae1001787e0f7,42,2022-02-12_14h48.45.024,lexical_decision_task_DD_L6,2021.2.3,MacIntel,60.14675809,,,,,,,,,,,,0.6555,1,,,,,,,,,,,,,,,,,,,,,,,,-0.051293945,-0.410400391,0,0,0,,,,,,,DESERT,C,m,y,./images/DESERT.png,,,,,,,,,,,,,,,,,,,,m,1,0.6555,,,,,,,,0,100,100,52,1
,,,,,,,,,,,,,,,,,5cc273c32daae1001787e0f7,42,2022-02-12_14h48.45.024,lexical_decision_task_DD_L6,2021.2.3,MacIntel,60.14675809,,,,,,,,,,,,0.7131,1,,,,,,,,,,,,,,,,,,,,,,,,-0.051293945,-0.410400391,0,0,0,,,,,,,MELON,C,z,y,./images/MELON.png,,,,,,,,,,,,,,,,,,,,z,1,0.7131,,,,,,,,0,101,101,106,1
,,,,,,,,,,,,,,,,,5cc273c32daae1001787e0f7,42,2022-02-12_14h48.45.024,lexical_decision_task_DD_L6,2021.2.3,MacIntel,60.14675809,,,,,,,,,,,,0.8797,1,,,,,,,,,,,,,,,,,,,,,,,,-0.051293945,-0.410400391,0,0,0,,,,,,,PACKET,HB,z,y,./images/PACKETHB.png,,,,,,,,,,,,,,,,,,,,z,1,0.8797,,,,,,,,0,102,102,140,1
,,,,,,,,,,,,,,,,,5cc273c32daae1001787e0f7,42,2022-02-12_14h48.45.024,lexical_decision_task_DD_L6,2021.2.3,MacIntel,60.14675809,,,,,,,,,,,,0.7475,1,,,,,,,,,,,,,,,,,,,,,,,,-0.051293945,-0.410400391,0,0,0,,,,,,,BARREL,HB,z,y,./images/BARRELHB.png,,,,,,,,,,,,,,,,,,,,z,1,0.7475,,,,,,,,0,103,103,116,1
,,,,,,,,,,,,,,,,,5cc273c32daae1001787e0f7,42,2022-02-12_14h48.45.024,lexical_decision_task_DD_L6,2021.2.3,MacIntel,60.14675809,,,,,,,,,,,,0.822,0,,,,,,,,,,,,,,,,,,,,,,,,-0.051293945,-0.410400391,0,0,0,,,,,,,STOVE,HB,m,y,./images/STOVEHB.png,,,,,,,,,,,,,,,,,,,,z,0,0.822,,,,,,,,0,104,104,2,1
,,,,,,,,,,,,,,,,,5cc273c32daae1001787e0f7,42,2022-02-12_14h48.45.024,lexical_decision_task_DD_L6,2021.2.3,MacIntel,60.14675809,,,,,,,,,,,,0.6826,1,,,,,,,,,,,,,,,,,,,,,,,,-0.051293945,-0.410400391,0,0,0,,,,,,,STAIN,LB,m,y,./images/STAINLB.png,,,,,,,,,,,,,,,,,,,,m,1,0.6826,,,,,,,,0,105,105,6,1
,,,,,,,,,,,,,,,,,5cc273c32daae1001787e0f7,42,2022-02-12_14h48.45.024,lexical_decision_task_DD_L6,2021.2.3,MacIntel,60.14675809,,,,,,,,,,,,0.5711,1,,,,,,,,,,,,,,,,,,,,,,,,-0.051293945,-0.410400391,0,0,0,,,,,,,BAKER,LB,m,y,./images/BAKERLB.png,,,,,,,,,,,,,,,,,,,,m,1,0.5711,,,,,,,,0,106,106,63,1
,,,,,,,,,,,,,,,,,5cc273c32daae1001787e0f7,42,2022-02-12_14h48.45.024,lexical_decision_task_DD_L6,2021.2.3,MacIntel,60.14675809,,,,,,,,,,,,1.4456,1,,,,,,,,,,,,,,,,,,,,,,,,-0.051293945,-0.410400391,0,0,0,,,,,,,DRILL,LB,m,y,./images/DRILLLB.png,,,,,,,,,,,,,,,,,,,,m,1,1.4456,,,,,,,,0,107,107,81,1
,,,,,,,,,,,,,,,,,5cc273c32daae1001787e0f7,42,2022-02-12_14h48.45.024,lexical_decision_task_DD_L6,2021.2.3,MacIntel,60.14675809,,,,,,,,,,,,0.7001,1,,,,,,,,,,,,,,,,,,,,,,,,-0.051293945,-0.410400391,0,0,0,,,,,,,STEAK,C,m,y,./images/STEAK.png,,,,,,,,,,,,,,,,,,,,m,1,0.7001,,,,,,,,0,108,108,31,1
,,,,,,,,,,,,,,,,,5cc273c32daae1001787e0f7,42,2022-02-12_14h48.45.024,lexical_decision_task_DD_L6,2021.2.3,MacIntel,60.14675809,,,,,,,,,,,,0.7141,1,,,,,,,,,,,,,,,,,,,,,,,,-0.051293945,-0.410400391,0,0,0,,,,,,,SWING,C,z,y,./images/SWING.png,,,,,,,,,,,,,,,,,,,,z,1,0.7141,,,,,,,,0,109,109,124,1
,,,,,,,,,,,,,,,,,5cc273c32daae1001787e0f7,42,2022-02-12_14h48.45.024,lexical_decision_task_DD_L6,2021.2.3,MacIntel,60.14675809,,,,,,,,,,,,0.6478,1,,,,,,,,,,,,,,,,,,,,,,,,-0.051293945,-0.410400391,0,0,0,,,,,,,BAMBOO,HB,m,y,./images/BAMBOOHB.png,,,,,,,,,,,,,,,,,,,,m,1,0.6478,,,,,,,,0,110,110,5,1
,,,,,,,,,,,,,,,,,5cc273c32daae1001787e0f7,42,2022-02-12_14h48.45.024,lexical_decision_task_DD_L6,2021.2.3,MacIntel,60.14675809,,,,,,,,,,,,0.9005,1,,,,,,,,,,,,,,,,,,,,,,,,-0.051293945,-0.410400391,0,0,0,,,,,,,TULIP,HB,z,y,./images/TULIPHB.png,,,,,,,,,,,,,,,,,,,,z,1,0.9005,,,,,,,,0,111,111,92,1
,,,,,,,,,,,,,,,,,5cc273c32daae1001787e0f7,42,2022-02-12_14h48.45.024,lexical_decision_task_DD_L6,2021.2.3,MacIntel,60.14675809,,,,,,,,,,,,0.9815,1,,,,,,,,,,,,,,,,,,,,,,,,-0.051293945,-0.410400391,0,0,0,,,,,,,SMOKER,HB,z,y,./images/SMOKERHB.png,,,,,,,,,,,,,,,,,,,,z,1,0.9815,,,,,,,,0,112,112,110,1
,,,,,,,,,,,,,,,,,5cc273c32daae1001787e0f7,42,2022-02-12_14h48.45.024,lexical_decision_task_DD_L6,2021.2.3,MacIntel,60.14675809,,,,,,,,,,,,0.6615,1,,,,,,,,,,,,,,,,,,,,,,,,-0.051293945,-0.410400391,0,0,0,,,,,,,WAGON,C,m,y,./images/WAGON.png,,,,,,,,,,,,,,,,,,,,m,1,0.6615,,,,,,,,0,113,113,7,1
,,,,,,,,,,,,,,,,,5cc273c32daae1001787e0f7,42,2022-02-12_14h48.45.024,lexical_decision_task_DD_L6,2021.2.3,MacIntel,60.14675809,,,,,,,,,,,,0.7307,0,,,,,,,,,,,,,,,,,,,,,,,,-0.051293945,-0.410400391,0,0,0,,,,,,,CRADLE,HB,z,y,./images/CRADLEHB.png,,,,,,,,,,,,,,,,,,,,m,0,0.7307,,,,,,,,0,114,114,104,1
,,,,,,,,,,,,,,,,,5cc273c32daae1001787e0f7,42,2022-02-12_14h48.45.024,lexical_decision_task_DD_L6,2021.2.3,MacIntel,60.14675809,,,,,,,,,,,,0.658,1,,,,,,,,,,,,,,,,,,,,,,,,-0.051293945,-0.410400391,0,0,0,,,,,,,BIRTH,C,z,y,./images/BIRTH.png,,,,,,,,,,,,,,,,,,,,z,1,0.658,,,,,,,,0,115,115,121,1
,,,,,,,,,,,,,,,,,5cc273c32daae1001787e0f7,42,2022-02-12_14h48.45.024,lexical_decision_task_DD_L6,2021.2.3,MacIntel,60.14675809,,,,,,,,,,,,1.3276,0,,,,,,,,,,,,,,,,,,,,,,,,-0.051293945,-0.410400391,0,0,0,,,,,,,CLOTH,HB,m,y,./images/CLOTHHB.png,,,,,,,,,,,,,,,,,,,,z,0,1.3276,,,,,,,,0,116,116,23,1
,,,,,,,,,,,,,,,,,5cc273c32daae1001787e0f7,42,2022-02-12_14h48.45.024,lexical_decision_task_DD_L6,2021.2.3,MacIntel,60.14675809,,,,,,,,,,,,0.6815,1,,,,,,,,,,,,,,,,,,,,,,,,-0.051293945,-0.410400391,0,0,0,,,,,,,ALLEY,C,m,y,./images/ALLEY.png,,,,,,,,,,,,,,,,,,,,m,1,0.6815,,,,,,,,0,117,117,55,1
,,,,,,,,,,,,,,,,,5cc273c32daae1001787e0f7,42,2022-02-12_14h48.45.024,lexical_decision_task_DD_L6,2021.2.3,MacIntel,60.14675809,,,,,,,,,,,,0.6514,1,,,,,,,,,,,,,,,,,,,,,,,,-0.051293945,-0.410400391,0,0,0,,,,,,,RAZOR,C,m,y,./images/RAZOR.png,,,,,,,,,,,,,,,,,,,,m,1,0.6514,,,,,,,,0,118,118,34,1
,,,,,,,,,,,,,,,,,5cc273c32daae1001787e0f7,42,2022-02-12_14h48.45.024,lexical_decision_task_DD_L6,2021.2.3,MacIntel,60.14675809,,,,,,,,,,,,0.6606,1,,,,,,,,,,,,,,,,,,,,,,,,-0.051293945,-0.410400391,0,0,0,,,,,,,HAMMER,LB,m,y,./images/HAMMERLB.png,,,,,,,,,,,,,,,,,,,,m,1,0.6606,,,,,,,,0,119,119,75,1
,,,,,,,,,,,,,,,,,5cc273c32daae1001787e0f7,42,2022-02-12_14h48.45.024,lexical_decision_task_DD_L6,2021.2.3,MacIntel,60.14675809,,,,,,,,,,,,0.9344,0,,,,,,,,,,,,,,,,,,,,,,,,-0.051293945,-0.410400391,0,0,0,,,,,,,LIZARD,HB,z,y,./images/LIZARDHB.png,,,,,,,,,,,,,,,,,,,,m,0,0.9344,,,,,,,,0,120,120,128,1
,,,,,,,,,,,,,,,,,5cc273c32daae1001787e0f7,42,2022-02-12_14h48.45.024,lexical_decision_task_DD_L6,2021.2.3,MacIntel,60.14675809,,,,,,,,,,,,0.9645,1,,,,,,,,,,,,,,,,,,,,,,,,-0.051293945,-0.410400391,0,0,0,,,,,,,MAMMAL,HB,m,y,./images/MAMMALHB.png,,,,,,,,,,,,,,,,,,,,m,1,0.9645,,,,,,,,0,121,121,62,1
,,,,,,,,,,,,,,,,,5cc273c32daae1001787e0f7,42,2022-02-12_14h48.45.024,lexical_decision_task_DD_L6,2021.2.3,MacIntel,60.14675809,,,,,,,,,,,,0.7321,1,,,,,,,,,,,,,,,,,,,,,,,,-0.051293945,-0.410400391,0,0,0,,,,,,,CASINO,C,m,y,./images/CASINO.png,,,,,,,,,,,,,,,,,,,,m,1,0.7321,,,,,,,,0,122,122,28,1
,,,,,,,,,,,,,,,,,5cc273c32daae1001787e0f7,42,2022-02-12_14h48.45.024,lexical_decision_task_DD_L6,2021.2.3,MacIntel,60.14675809,,,,,,,,,,,,0.6983,1,,,,,,,,,,,,,,,,,,,,,,,,-0.051293945,-0.410400391,0,0,0,,,,,,,JELLY,C,z,y,./images/JELLY.png,,,,,,,,,,,,,,,,,,,,z,1,0.6983,,,,,,,,0,123,123,148,1
,,,,,,,,,,,,,,,,,5cc273c32daae1001787e0f7,42,2022-02-12_14h48.45.024,lexical_decision_task_DD_L6,2021.2.3,MacIntel,60.14675809,,,,,,,,,,,,1.015,0,,,,,,,,,,,,,,,,,,,,,,,,-0.051293945,-0.410400391,0,0,0,,,,,,,HEATER,HB,m,y,./images/HEATERHB.png,,,,,,,,,,,,,,,,,,,,z,0,1.015,,,,,,,,0,124,124,56,1
,,,,,,,,,,,,,,,,,5cc273c32daae1001787e0f7,42,2022-02-12_14h48.45.024,lexical_decision_task_DD_L6,2021.2.3,MacIntel,60.14675809,,,,,,,,,,,,0.7322,1,,,,,,,,,,,,,,,,,,,,,,,,-0.051293945,-0.410400391,0,0,0,space,,,,,,DONKEY,C,m,y,./images/DONKEY.png,1.5379,,,,,,,,,,,,,,,,,,,m,1,0.7322,,,,,,,,0,125,125,19,1
,,,,,,,,,,,,,,,,,5cc273c32daae1001787e0f7,42,2022-02-12_14h48.45.024,lexical_decision_task_DD_L6,2021.2.3,MacIntel,60.14675809,,,,,,,,,,,,0.8968,1,,,,,,,,,,,,,,,,,,,,,,,,-0.051293945,-0.410400391,0,0,0,,,,,,,SQUARE,LB,z,y,./images/SQUARELB.png,,,,,,,,,,,,,,,,,,,,z,1,0.8968,,,,,,,,0,126,126,90,1
,,,,,,,,,,,,,,,,,5cc273c32daae1001787e0f7,42,2022-02-12_14h48.45.024,lexical_decision_task_DD_L6,2021.2.3,MacIntel,60.14675809,,,,,,,,,,,,0.6905,1,,,,,,,,,,,,,,,,,,,,,,,,-0.051293945,-0.410400391,0,0,0,,,,,,,TOMATO,LB,z,y,./images/TOMATOLB.png,,,,,,,,,,,,,,,,,,,,z,1,0.6905,,,,,,,,0,127,127,84,1
,,,,,,,,,,,,,,,,,5cc273c32daae1001787e0f7,42,2022-02-12_14h48.45.024,lexical_decision_task_DD_L6,2021.2.3,MacIntel,60.14675809,,,,,,,,,,,,0.7322,1,,,,,,,,,,,,,,,,,,,,,,,,-0.051293945,-0.410400391,0,0,0,,,,,,,BELLY,C,z,y,./images/BELLY.png,,,,,,,,,,,,,,,,,,,,z,1,0.7322,,,,,,,,0,128,128,94,1
,,,,,,,,,,,,,,,,,5cc273c32daae1001787e0f7,42,2022-02-12_14h48.45.024,lexical_decision_task_DD_L6,2021.2.3,MacIntel,60.14675809,,,,,,,,,,,,0.6331,1,,,,,,,,,,,,,,,,,,,,,,,,-0.051293945,-0.410400391,0,0,0,,,,,,,BURIAL,HB,z,y,./images/BURIALHB.png,,,,,,,,,,,,,,,,,,,,z,1,0.6331,,,,,,,,0,129,129,143,1
