key_resp.keys,instr_done_touch.x,instr_done_touch.y,instr_done_touch.leftButton,instr_done_touch.midButton,instr_done_touch.rightButton,instr_done_touch.clicked_name,instruction_pages.thisRepN,instruction_pages.thisTrialN,instruction_pages.thisN,instruction_pages.thisIndex,instruction_pages.ran,pageN,phase,instruct_text,has_image,instruct_image,participant,age,date,expName,psychopyVersion,OS,frameRate,response.keys,response.corr,response.rt,touch_resp.x,touch_resp.y,touch_resp.leftButton,touch_resp.midButton,touch_resp.rightButton,touch_resp.time,touch_resp.clicked_name,rt,corr,practrials.thisRepN,practrials.thisTrialN,practrials.thisN,practrials.thisIndex,practrials.ran,TrialID,Target,corrAns,end_of_practice_trials_pages.thisRepN,end_of_practice_trials_pages.thisTrialN,end_of_practice_trials_pages.thisN,end_of_practice_trials_pages.thisIndex,end_of_practice_trials_pages.ran,key_resp_2.keys,key_resp_2.corr,key_resp_2.rt,targ_click.x,targ_click.y,targ_click.leftButton,targ_click.midButton,targ_click.rightButton,targ_click.time,targ_click.clicked_name,break_done_touch.x,break_done_touch.y,break_done_touch.leftButton,break_done_touch.midButton,break_done_touch.rightButton,break_done_keyboard.keys,maintrials.thisRepN,maintrials.thisTrialN,maintrials.thisN,maintrials.thisIndex,maintrials.ran,string,blur,study,lex,stim_path,break_done_touch.clicked_name,mouse_2.x,mouse_2.y,mouse_2.leftButton,mouse_2.midButton,mouse_2.rightButton,mouse_2.clicked_name,slider.response,slider.rt,trials.thisRepN,trials.thisTrialN,trials.thisN,trials.thisIndex,trials.ran,test_instructions.thisRepN,test_instructions.thisTrialN,test_instructions.thisN,test_instructions.thisIndex,test_instructions.ran,key_resp.rt,key_resp_3.keys,key_resp_3.corr,key_resp_3.rt,test_click.x,test_click.y,test_click.leftButton,test_click.midButton,test_click.rightButton,test_click.time,test_click.clicked_name,test_phase.thisRepN,test_phase.thisTrialN,test_phase.thisN,test_phase.thisIndex,test_phase.ran,break_done_keyboard.rt
,0.049479167,-0.401041667,1,0,0,instr_done_button,0,0,0,0,1,1,instructions,"INSTRUCTIONS
At the start of each trial, look at the plus sign  (+) in the center of the screen.  This tells you that a trial is about to begin and where to look. Second, the plus sign will disappear and a string of letters will appear. Your task is to determine if the string of letters is a word or not. If the item is a word press the M key (on keyboard)  or touch the word button (phone/tablet).  If the item is not a word,  press the  Z key (on keyboard)  or touch the nonword button (on phone/tablet). 
Press the space bar or touch  continue.",0,,5dcdef4dd30a0e0acb5b6fba,,2022-02-12_13h35.05.408,lexical_decision_task_DD_L6,2021.2.3,Win32,62.81407035,,,,,,,,,,,,,,,,,,,,,,,,,,,,,,,,,,,,,,,,,,,,,,,,,,,,,,,,,,,,,,,,,,,,,,,,,,,,,,,,,,,,,,,
,0.049479167,-0.401041667,1,0,0,instr_done_button,0,1,1,1,1,2,instructions,"If your device has a keyboard, press the 'Z' key for nonwords and the 'M' key for words.





Press the space bar or touch the button below to continue.",0,keyboard-example.gif,5dcdef4dd30a0e0acb5b6fba,,2022-02-12_13h35.05.408,lexical_decision_task_DD_L6,2021.2.3,Win32,62.81407035,,,,,,,,,,,,,,,,,,,,,,,,,,,,,,,,,,,,,,,,,,,,,,,,,,,,,,,,,,,,,,,,,,,,,,,,,,,,,,,,,,,,,,,
,0.049479167,-0.401041667,1,0,0,instr_done_button,0,2,2,2,1,3,instructions,"If you are using a touchscreen only device, use the buttons on the screen. Do not use the mouse.





Press the space bar or touch the button below to continue.",0,touchscreen-example.gif,5dcdef4dd30a0e0acb5b6fba,,2022-02-12_13h35.05.408,lexical_decision_task_DD_L6,2021.2.3,Win32,62.81407035,,,,,,,,,,,,,,,,,,,,,,,,,,,,,,,,,,,,,,,,,,,,,,,,,,,,,,,,,,,,,,,,,,,,,,,,,,,,,,,,,,,,,,,
,0.049479167,-0.401041667,1,0,0,instr_done_button,0,3,3,3,1,4,instructions,"It is very important that you respond as quickly and accurately as possible, as each letter string will only be on the screen for two seconds. If you do not respond within this time, the message 'Too slow!' will be displayed and the experiment will progress to the next letter string. The first 20 trials will be practice trials and you will receive feedback on your answers. 

Press the space bar or touch the button below to start the practice trials.",0,,5dcdef4dd30a0e0acb5b6fba,,2022-02-12_13h35.05.408,lexical_decision_task_DD_L6,2021.2.3,Win32,62.81407035,,,,,,,,,,,,,,,,,,,,,,,,,,,,,,,,,,,,,,,,,,,,,,,,,,,,,,,,,,,,,,,,,,,,,,,,,,,,,,,,,,,,,,,
,,,,,,,,,,,,,,,,,5dcdef4dd30a0e0acb5b6fba,,2022-02-12_13h35.05.408,lexical_decision_task_DD_L6,2021.2.3,Win32,62.81407035,m,1,0.978,,,,,,,,0.978,1,0,0,0,1,1,1001,ADJUST,m,,,,,,,,,,,,,,,,,,,,,,,,,,,,,,,,,,,,,,,,,,,,,,,,,,,,,,,,,,,,,,,,,,,
,,,,,,,,,,,,,,,,,5dcdef4dd30a0e0acb5b6fba,,2022-02-12_13h35.05.408,lexical_decision_task_DD_L6,2021.2.3,Win32,62.81407035,z,1,0.676,,,,,,,,0.676,1,0,1,1,9,1,1001,FARINY,z,,,,,,,,,,,,,,,,,,,,,,,,,,,,,,,,,,,,,,,,,,,,,,,,,,,,,,,,,,,,,,,,,,,
,,,,,,,,,,,,,,,,,5dcdef4dd30a0e0acb5b6fba,,2022-02-12_13h35.05.408,lexical_decision_task_DD_L6,2021.2.3,Win32,62.81407035,m,1,0.7,,,,,,,,0.7,1,0,2,2,2,1,1001,ALMOND,m,,,,,,,,,,,,,,,,,,,,,,,,,,,,,,,,,,,,,,,,,,,,,,,,,,,,,,,,,,,,,,,,,,,
,,,,,,,,,,,,,,,,,5dcdef4dd30a0e0acb5b6fba,,2022-02-12_13h35.05.408,lexical_decision_task_DD_L6,2021.2.3,Win32,62.81407035,m,1,0.662,,,,,,,,0.662,1,0,3,3,3,1,1001,MATRIX,m,,,,,,,,,,,,,,,,,,,,,,,,,,,,,,,,,,,,,,,,,,,,,,,,,,,,,,,,,,,,,,,,,,,
,,,,,,,,,,,,,,,,,5dcdef4dd30a0e0acb5b6fba,,2022-02-12_13h35.05.408,lexical_decision_task_DD_L6,2021.2.3,Win32,62.81407035,z,1,0.85,,,,,,,,0.85,1,0,4,4,14,1,1001,THRALE,z,,,,,,,,,,,,,,,,,,,,,,,,,,,,,,,,,,,,,,,,,,,,,,,,,,,,,,,,,,,,,,,,,,,
,,,,,,,,,,,,,,,,,5dcdef4dd30a0e0acb5b6fba,,2022-02-12_13h35.05.408,lexical_decision_task_DD_L6,2021.2.3,Win32,62.81407035,m,1,0.734,,,,,,,,0.734,1,0,5,5,7,1,1001,VOLUME,m,,,,,,,,,,,,,,,,,,,,,,,,,,,,,,,,,,,,,,,,,,,,,,,,,,,,,,,,,,,,,,,,,,,
,,,,,,,,,,,,,,,,,5dcdef4dd30a0e0acb5b6fba,,2022-02-12_13h35.05.408,lexical_decision_task_DD_L6,2021.2.3,Win32,62.81407035,z,1,0.682,,,,,,,,0.682,1,0,6,6,11,1,1001,RASHET,z,,,,,,,,,,,,,,,,,,,,,,,,,,,,,,,,,,,,,,,,,,,,,,,,,,,,,,,,,,,,,,,,,,,
,,,,,,,,,,,,,,,,,5dcdef4dd30a0e0acb5b6fba,,2022-02-12_13h35.05.408,lexical_decision_task_DD_L6,2021.2.3,Win32,62.81407035,z,1,0.756,,,,,,,,0.756,1,0,7,7,8,1,1001,ASLERT,z,,,,,,,,,,,,,,,,,,,,,,,,,,,,,,,,,,,,,,,,,,,,,,,,,,,,,,,,,,,,,,,,,,,
,,,,,,,,,,,,,,,,,5dcdef4dd30a0e0acb5b6fba,,2022-02-12_13h35.05.408,lexical_decision_task_DD_L6,2021.2.3,Win32,62.81407035,m,1,0.898,,,,,,,,0.898,1,0,8,8,4,1,1001,SQUEAK,m,,,,,,,,,,,,,,,,,,,,,,,,,,,,,,,,,,,,,,,,,,,,,,,,,,,,,,,,,,,,,,,,,,,
,,,,,,,,,,,,,,,,,5dcdef4dd30a0e0acb5b6fba,,2022-02-12_13h35.05.408,lexical_decision_task_DD_L6,2021.2.3,Win32,62.81407035,m,1,0.777,,,,,,,,0.777,1,0,9,9,6,1,1001,ZOMBIE,m,,,,,,,,,,,,,,,,,,,,,,,,,,,,,,,,,,,,,,,,,,,,,,,,,,,,,,,,,,,,,,,,,,,
,,,,,,,,,,,,,,,,,5dcdef4dd30a0e0acb5b6fba,,2022-02-12_13h35.05.408,lexical_decision_task_DD_L6,2021.2.3,Win32,62.81407035,z,1,0.865,,,,,,,,0.865,1,0,10,10,10,1,1001,INLADE,z,,,,,,,,,,,,,,,,,,,,,,,,,,,,,,,,,,,,,,,,,,,,,,,,,,,,,,,,,,,,,,,,,,,
,,,,,,,,,,,,,,,,,5dcdef4dd30a0e0acb5b6fba,,2022-02-12_13h35.05.408,lexical_decision_task_DD_L6,2021.2.3,Win32,62.81407035,z,1,0.653,,,,,,,,0.653,1,0,11,11,13,1,1001,ROUPET,z,,,,,,,,,,,,,,,,,,,,,,,,,,,,,,,,,,,,,,,,,,,,,,,,,,,,,,,,,,,,,,,,,,,
,,,,,,,,,,,,,,,,,5dcdef4dd30a0e0acb5b6fba,,2022-02-12_13h35.05.408,lexical_decision_task_DD_L6,2021.2.3,Win32,62.81407035,m,0,0.582,,,,,,,,0.582,0,0,12,12,12,1,1001,SPRINY,z,,,,,,,,,,,,,,,,,,,,,,,,,,,,,,,,,,,,,,,,,,,,,,,,,,,,,,,,,,,,,,,,,,,
,,,,,,,,,,,,,,,,,5dcdef4dd30a0e0acb5b6fba,,2022-02-12_13h35.05.408,lexical_decision_task_DD_L6,2021.2.3,Win32,62.81407035,m,1,0.848,,,,,,,,0.848,1,0,13,13,0,1,1001,UTOPIA,m,,,,,,,,,,,,,,,,,,,,,,,,,,,,,,,,,,,,,,,,,,,,,,,,,,,,,,,,,,,,,,,,,,,
,,,,,,,,,,,,,,,,,5dcdef4dd30a0e0acb5b6fba,,2022-02-12_13h35.05.408,lexical_decision_task_DD_L6,2021.2.3,Win32,62.81407035,m,1,0.564,,,,,,,,0.564,1,0,14,14,5,1,1001,OBTAIN,m,,,,,,,,,,,,,,,,,,,,,,,,,,,,,,,,,,,,,,,,,,,,,,,,,,,,,,,,,,,,,,,,,,,
,,,,,,,,,,,,,,,,,5dcdef4dd30a0e0acb5b6fba,,2022-02-12_13h35.05.408,lexical_decision_task_DD_L6,2021.2.3,Win32,62.81407035,z,1,0.753,,,,,,,,0.753,1,0,15,15,15,1,1001,WHAISE,z,,,,,,,,,,,,,,,,,,,,,,,,,,,,,,,,,,,,,,,,,,,,,,,,,,,,,,,,,,,,,,,,,,,
,0.016927083,-0.41015625,1,0,0,instr_done_button,,,,,,1,end_of_practice,"You have completed the practice trials. During the experimental trials, you will not receive feedback. 
Before you begin, please ensure that you are in a comfortable and quiet location and will not be disturbed for about 15 minutes, as we cannot use your data if you do not complete all the trials. 
 When you are ready to start the experimental trials, please press space or touch the button below.",,,5dcdef4dd30a0e0acb5b6fba,,2022-02-12_13h35.05.408,lexical_decision_task_DD_L6,2021.2.3,Win32,62.81407035,,,,,,,,,,,,,,,,,,,,,0,0,0,0,1,,,,,,,,,,,,,,,,,,,,,,,,,,,,,,,,,,,,,,,,,,,,,,,,,,,,,,,,,,,,,,
,,,,,,,,,,,,,,,,,5dcdef4dd30a0e0acb5b6fba,,2022-02-12_13h35.05.408,lexical_decision_task_DD_L6,2021.2.3,Win32,62.81407035,,,,,,,,,,,1.245,1,,,,,,,,,,,,,,z,1,1.245,,,,,,,,0.51953125,-0.388020833,0,0,0,,0,0,0,143,1,MONGS,LB,z,z,./images/MONGSLB.png,,,,,,,,,,,,,,,,,,,,,,,,,,,,,,,,,,,,
,,,,,,,,,,,,,,,,,5dcdef4dd30a0e0acb5b6fba,,2022-02-12_13h35.05.408,lexical_decision_task_DD_L6,2021.2.3,Win32,62.81407035,,,,,,,,,,,0.722,1,,,,,,,,,,,,,,m,1,0.722,,,,,,,,0.51953125,-0.388020833,0,0,0,,0,1,1,28,1,CASINO,C,m,m,./images/CASINO.png,,,,,,,,,,,,,,,,,,,,,,,,,,,,,,,,,,,,
,,,,,,,,,,,,,,,,,5dcdef4dd30a0e0acb5b6fba,,2022-02-12_13h35.05.408,lexical_decision_task_DD_L6,2021.2.3,Win32,62.81407035,,,,,,,,,,,0.592,1,,,,,,,,,,,,,,z,1,0.592,,,,,,,,0.51953125,-0.388020833,0,0,0,,0,2,2,102,1,DULLE,C,z,z,./images/DULLE.png,,,,,,,,,,,,,,,,,,,,,,,,,,,,,,,,,,,,
,,,,,,,,,,,,,,,,,5dcdef4dd30a0e0acb5b6fba,,2022-02-12_13h35.05.408,lexical_decision_task_DD_L6,2021.2.3,Win32,62.81407035,,,,,,,,,,,0.481,1,,,,,,,,,,,,,,z,1,0.481,,,,,,,,0.51953125,-0.388020833,0,0,0,,0,3,3,126,1,GUELS,C,z,z,./images/GUELS.png,,,,,,,,,,,,,,,,,,,,,,,,,,,,,,,,,,,,
,,,,,,,,,,,,,,,,,5dcdef4dd30a0e0acb5b6fba,,2022-02-12_13h35.05.408,lexical_decision_task_DD_L6,2021.2.3,Win32,62.81407035,,,,,,,,,,,0.496,0,,,,,,,,,,,,,,m,0,0.496,,,,,,,,0.51953125,-0.388020833,0,0,0,,0,4,4,141,1,PLEET,C,z,z,./images/PLEET.png,,,,,,,,,,,,,,,,,,,,,,,,,,,,,,,,,,,,
,,,,,,,,,,,,,,,,,5dcdef4dd30a0e0acb5b6fba,,2022-02-12_13h35.05.408,lexical_decision_task_DD_L6,2021.2.3,Win32,62.81407035,,,,,,,,,,,1.011,1,,,,,,,,,,,,,,m,1,1.011,,,,,,,,0.51953125,-0.388020833,0,0,0,,0,5,5,26,1,CLOUD,HB,m,m,./images/CLOUDHB.png,,,,,,,,,,,,,,,,,,,,,,,,,,,,,,,,,,,,
,,,,,,,,,,,,,,,,,5dcdef4dd30a0e0acb5b6fba,,2022-02-12_13h35.05.408,lexical_decision_task_DD_L6,2021.2.3,Win32,62.81407035,,,,,,,,,,,0.822,1,,,,,,,,,,,,,,z,1,0.822,,,,,,,,0.51953125,-0.388020833,0,0,0,,0,6,6,155,1,CANGY,LB,z,z,./images/CANGYLB.png,,,,,,,,,,,,,,,,,,,,,,,,,,,,,,,,,,,,
,,,,,,,,,,,,,,,,,5dcdef4dd30a0e0acb5b6fba,,2022-02-12_13h35.05.408,lexical_decision_task_DD_L6,2021.2.3,Win32,62.81407035,,,,,,,,,,,0.885,1,,,,,,,,,,,,,,m,1,0.885,,,,,,,,0.51953125,-0.388020833,0,0,0,,0,7,7,60,1,CURRY,LB,m,m,./images/CURRYLB.png,,,,,,,,,,,,,,,,,,,,,,,,,,,,,,,,,,,,
,,,,,,,,,,,,,,,,,5dcdef4dd30a0e0acb5b6fba,,2022-02-12_13h35.05.408,lexical_decision_task_DD_L6,2021.2.3,Win32,62.81407035,,,,,,,,,,,0.722,1,,,,,,,,,,,,,,m,1,0.722,,,,,,,,0.51953125,-0.388020833,0,0,0,,0,8,8,49,1,BISHOP,C,m,m,./images/BISHOP.png,,,,,,,,,,,,,,,,,,,,,,,,,,,,,,,,,,,,
,,,,,,,,,,,,,,,,,5dcdef4dd30a0e0acb5b6fba,,2022-02-12_13h35.05.408,lexical_decision_task_DD_L6,2021.2.3,Win32,62.81407035,,,,,,,,,,,1.632,1,,,,,,,,,,,,,,z,1,1.632,,,,,,,,0.51953125,-0.38671875,0,0,0,,0,9,9,88,1,GLUSH,HB,z,z,./images/GLUSHHB.png,,,,,,,,,,,,,,,,,,,,,,,,,,,,,,,,,,,,
,,,,,,,,,,,,,,,,,5dcdef4dd30a0e0acb5b6fba,,2022-02-12_13h35.05.408,lexical_decision_task_DD_L6,2021.2.3,Win32,62.81407035,,,,,,,,,,,0.858,1,,,,,,,,,,,,,,m,1,0.858,,,,,,,,0.51953125,-0.38671875,0,0,0,,0,10,10,81,1,DRILL,LB,m,m,./images/DRILLLB.png,,,,,,,,,,,,,,,,,,,,,,,,,,,,,,,,,,,,
,,,,,,,,,,,,,,,,,5dcdef4dd30a0e0acb5b6fba,,2022-02-12_13h35.05.408,lexical_decision_task_DD_L6,2021.2.3,Win32,62.81407035,,,,,,,,,,,0.779,1,,,,,,,,,,,,,,z,1,0.779,,,,,,,,0.51953125,-0.38671875,0,0,0,,0,11,11,156,1,HIXES,C,z,z,./images/HIXES.png,,,,,,,,,,,,,,,,,,,,,,,,,,,,,,,,,,,,
,,,,,,,,,,,,,,,,,5dcdef4dd30a0e0acb5b6fba,,2022-02-12_13h35.05.408,lexical_decision_task_DD_L6,2021.2.3,Win32,62.81407035,,,,,,,,,,,0.508,0,,,,,,,,,,,,,,m,0,0.508,,,,,,,,0.51953125,-0.38671875,0,0,0,,0,12,12,162,1,LEICH,C,z,z,./images/LEICH.png,,,,,,,,,,,,,,,,,,,,,,,,,,,,,,,,,,,,
,,,,,,,,,,,,,,,,,5dcdef4dd30a0e0acb5b6fba,,2022-02-12_13h35.05.408,lexical_decision_task_DD_L6,2021.2.3,Win32,62.81407035,,,,,,,,,,,1.095,0,,,,,,,,,,,,,,m,0,1.095,,,,,,,,0.51953125,-0.38671875,0,0,0,,0,13,13,142,1,PLASK,HB,z,z,./images/PLASKHB.png,,,,,,,,,,,,,,,,,,,,,,,,,,,,,,,,,,,,
,,,,,,,,,,,,,,,,,5dcdef4dd30a0e0acb5b6fba,,2022-02-12_13h35.05.408,lexical_decision_task_DD_L6,2021.2.3,Win32,62.81407035,,,,,,,,,,,0.603,1,,,,,,,,,,,,,,m,1,0.603,,,,,,,,0.51953125,-0.38671875,0,0,0,,0,14,14,50,1,PILOT,HB,m,m,./images/PILOTHB.png,,,,,,,,,,,,,,,,,,,,,,,,,,,,,,,,,,,,
,,,,,,,,,,,,,,,,,5dcdef4dd30a0e0acb5b6fba,,2022-02-12_13h35.05.408,lexical_decision_task_DD_L6,2021.2.3,Win32,62.81407035,,,,,,,,,,,1.453,1,,,,,,,,,,,,,,z,1,1.453,,,,,,,,0.51953125,-0.38671875,0,0,0,,0,15,15,145,1,LAMEL,HB,z,z,./images/LAMELHB.png,,,,,,,,,,,,,,,,,,,,,,,,,,,,,,,,,,,,
,,,,,,,,,,,,,,,,,5dcdef4dd30a0e0acb5b6fba,,2022-02-12_13h35.05.408,lexical_decision_task_DD_L6,2021.2.3,Win32,62.81407035,,,,,,,,,,,1.163,1,,,,,,,,,,,,,,m,1,1.163,,,,,,,,0.51953125,-0.38671875,0,0,0,,0,16,16,20,1,GRANNY,HB,m,m,./images/GRANNYHB.png,,,,,,,,,,,,,,,,,,,,,,,,,,,,,,,,,,,,
,,,,,,,,,,,,,,,,,5dcdef4dd30a0e0acb5b6fba,,2022-02-12_13h35.05.408,lexical_decision_task_DD_L6,2021.2.3,Win32,62.81407035,,,,,,,,,,,0.647,1,,,,,,,,,,,,,,m,1,0.647,,,,,,,,0.51953125,-0.38671875,0,0,0,,0,17,17,43,1,STOOL,C,m,m,./images/STOOL.png,,,,,,,,,,,,,,,,,,,,,,,,,,,,,,,,,,,,
,,,,,,,,,,,,,,,,,5dcdef4dd30a0e0acb5b6fba,,2022-02-12_13h35.05.408,lexical_decision_task_DD_L6,2021.2.3,Win32,62.81407035,,,,,,,,,,,1.213,1,,,,,,,,,,,,,,m,1,1.213,,,,,,,,0.51953125,-0.38671875,0,0,0,,0,18,18,8,1,CLIFF,HB,m,m,./images/CLIFFHB.png,,,,,,,,,,,,,,,,,,,,,,,,,,,,,,,,,,,,
,,,,,,,,,,,,,,,,,5dcdef4dd30a0e0acb5b6fba,,2022-02-12_13h35.05.408,lexical_decision_task_DD_L6,2021.2.3,Win32,62.81407035,,,,,,,,,,,0.497,1,,,,,,,,,,,,,,m,1,0.497,,,,,,,,0.51953125,-0.38671875,0,0,0,,0,19,19,64,1,BRIDE,C,m,m,./images/BRIDE.png,,,,,,,,,,,,,,,,,,,,,,,,,,,,,,,,,,,,
,,,,,,,,,,,,,,,,,5dcdef4dd30a0e0acb5b6fba,,2022-02-12_13h35.05.408,lexical_decision_task_DD_L6,2021.2.3,Win32,62.81407035,,,,,,,,,,,0.666,1,,,,,,,,,,,,,,m,1,0.666,,,,,,,,0.51953125,-0.38671875,0,0,0,,0,20,20,42,1,CHAIN,LB,m,m,./images/CHAINLB.png,,,,,,,,,,,,,,,,,,,,,,,,,,,,,,,,,,,,
,,,,,,,,,,,,,,,,,5dcdef4dd30a0e0acb5b6fba,,2022-02-12_13h35.05.408,lexical_decision_task_DD_L6,2021.2.3,Win32,62.81407035,,,,,,,,,,,0.514,1,,,,,,,,,,,,,,m,1,0.514,,,,,,,,0.51953125,-0.38671875,0,0,0,,0,21,21,22,1,CLOWN,C,m,m,./images/CLOWN.png,,,,,,,,,,,,,,,,,,,,,,,,,,,,,,,,,,,,
,,,,,,,,,,,,,,,,,5dcdef4dd30a0e0acb5b6fba,,2022-02-12_13h35.05.408,lexical_decision_task_DD_L6,2021.2.3,Win32,62.81407035,,,,,,,,,,,0.831,1,,,,,,,,,,,,,,m,1,0.831,,,,,,,,0.51953125,-0.38671875,0,0,0,,0,22,22,24,1,FLESH,LB,m,m,./images/FLESHLB.png,,,,,,,,,,,,,,,,,,,,,,,,,,,,,,,,,,,,
,,,,,,,,,,,,,,,,,5dcdef4dd30a0e0acb5b6fba,,2022-02-12_13h35.05.408,lexical_decision_task_DD_L6,2021.2.3,Win32,62.81407035,,,,,,,,,,,0.762,1,,,,,,,,,,,,,,z,1,0.762,,,,,,,,0.51953125,-0.38671875,0,0,0,,0,23,23,161,1,BLAPS,LB,z,z,./images/BLAPSLB.png,,,,,,,,,,,,,,,,,,,,,,,,,,,,,,,,,,,,
,,,,,,,,,,,,,,,,,5dcdef4dd30a0e0acb5b6fba,,2022-02-12_13h35.05.408,lexical_decision_task_DD_L6,2021.2.3,Win32,62.81407035,,,,,,,,,,,2.015,1,,,,,,,,,,,,,,z,1,2.015,,,,,,,,0.51953125,-0.38671875,0,0,0,,0,24,24,133,1,POWDY,HB,z,z,./images/POWDYHB.png,,,,,,,,,,,,,,,,,,,,,,,,,,,,,,,,,,,,
,,,,,,,,,,,,,,,,,5dcdef4dd30a0e0acb5b6fba,,2022-02-12_13h35.05.408,lexical_decision_task_DD_L6,2021.2.3,Win32,62.81407035,,,,,,,,,,,1.276,1,,,,,,,,,,,,,,z,1,1.276,,,,,,,,0.51953125,-0.38671875,0,0,0,,0,25,25,97,1,CHIDS,HB,z,z,./images/CHIDSHB.png,,,,,,,,,,,,,,,,,,,,,,,,,,,,,,,,,,,,
,,,,,,,,,,,,,,,,,5dcdef4dd30a0e0acb5b6fba,,2022-02-12_13h35.05.408,lexical_decision_task_DD_L6,2021.2.3,Win32,62.81407035,,,,,,,,,,,0.959,1,,,,,,,,,,,,,,z,1,0.959,,,,,,,,0.51953125,-0.38671875,0,0,0,,0,26,26,154,1,THINT,HB,z,z,./images/THINTHB.png,,,,,,,,,,,,,,,,,,,,,,,,,,,,,,,,,,,,
,,,,,,,,,,,,,,,,,5dcdef4dd30a0e0acb5b6fba,,2022-02-12_13h35.05.408,lexical_decision_task_DD_L6,2021.2.3,Win32,62.81407035,,,,,,,,,,,0.924,1,,,,,,,,,,,,,,z,1,0.924,,,,,,,,0.51953125,-0.38671875,0,0,0,,0,27,27,122,1,BLOOT,LB,z,z,./images/BLOOTLB.png,,,,,,,,,,,,,,,,,,,,,,,,,,,,,,,,,,,,
,,,,,,,,,,,,,,,,,5dcdef4dd30a0e0acb5b6fba,,2022-02-12_13h35.05.408,lexical_decision_task_DD_L6,2021.2.3,Win32,62.81407035,,,,,,,,,,,0.955,1,,,,,,,,,,,,,,m,1,0.955,,,,,,,,0.51953125,-0.38671875,0,0,0,,0,28,28,21,1,DANCER,LB,m,m,./images/DANCERLB.png,,,,,,,,,,,,,,,,,,,,,,,,,,,,,,,,,,,,
,,,,,,,,,,,,,,,,,5dcdef4dd30a0e0acb5b6fba,,2022-02-12_13h35.05.408,lexical_decision_task_DD_L6,2021.2.3,Win32,62.81407035,,,,,,,,,,,0.712,1,,,,,,,,,,,,,,z,1,0.712,,,,,,,,0.51953125,-0.38671875,0,0,0,,0,29,29,144,1,NAIRY,C,z,z,./images/NAIRY.png,,,,,,,,,,,,,,,,,,,,,,,,,,,,,,,,,,,,
,,,,,,,,,,,,,,,,,5dcdef4dd30a0e0acb5b6fba,,2022-02-12_13h35.05.408,lexical_decision_task_DD_L6,2021.2.3,Win32,62.81407035,,,,,,,,,,,0.862,1,,,,,,,,,,,,,,m,1,0.862,,,,,,,,0.51953125,-0.38671875,0,0,0,,0,30,30,19,1,DONKEY,C,m,m,./images/DONKEY.png,,,,,,,,,,,,,,,,,,,,,,,,,,,,,,,,,,,,
,,,,,,,,,,,,,,,,,5dcdef4dd30a0e0acb5b6fba,,2022-02-12_13h35.05.408,lexical_decision_task_DD_L6,2021.2.3,Win32,62.81407035,,,,,,,,,,,0.674,1,,,,,,,,,,,,,,m,1,0.674,,,,,,,,0.51953125,-0.38671875,0,0,0,,0,31,31,27,1,BUTTER,LB,m,m,./images/BUTTERLB.png,,,,,,,,,,,,,,,,,,,,,,,,,,,,,,,,,,,,
,,,,,,,,,,,,,,,,,5dcdef4dd30a0e0acb5b6fba,,2022-02-12_13h35.05.408,lexical_decision_task_DD_L6,2021.2.3,Win32,62.81407035,,,,,,,,,,,0.746,1,,,,,,,,,,,,,,z,1,0.746,,,,,,,,0.51953125,-0.38671875,0,0,0,,0,32,32,95,1,HANTY,LB,z,z,./images/HANTYLB.png,,,,,,,,,,,,,,,,,,,,,,,,,,,,,,,,,,,,
,,,,,,,,,,,,,,,,,5dcdef4dd30a0e0acb5b6fba,,2022-02-12_13h35.05.408,lexical_decision_task_DD_L6,2021.2.3,Win32,62.81407035,,,,,,,,,,,0.877,1,,,,,,,,,,,,,,z,1,0.877,,,,,,,,0.51953125,-0.38671875,0,0,0,,0,33,33,128,1,GRIFT,LB,z,z,./images/GRIFTLB.png,,,,,,,,,,,,,,,,,,,,,,,,,,,,,,,,,,,,
,,,,,,,,,,,,,,,,,5dcdef4dd30a0e0acb5b6fba,,2022-02-12_13h35.05.408,lexical_decision_task_DD_L6,2021.2.3,Win32,62.81407035,,,,,,,,,,,0.866,1,,,,,,,,,,,,,,z,1,0.866,,,,,,,,0.51953125,-0.38671875,0,0,0,,0,34,34,103,1,FLORT,HB,z,z,./images/FLORTHB.png,,,,,,,,,,,,,,,,,,,,,,,,,,,,,,,,,,,,
,,,,,,,,,,,,,,,,,5dcdef4dd30a0e0acb5b6fba,,2022-02-12_13h35.05.408,lexical_decision_task_DD_L6,2021.2.3,Win32,62.81407035,,,,,,,,,,,1.458,0,,,,,,,,,,,,,,m,0,1.458,,,,,,,,0.51953125,-0.38671875,0,0,0,,0,35,35,121,1,CEERS,HB,z,z,./images/CEERSHB.png,,,,,,,,,,,,,,,,,,,,,,,,,,,,,,,,,,,,
,,,,,,,,,,,,,,,,,5dcdef4dd30a0e0acb5b6fba,,2022-02-12_13h35.05.408,lexical_decision_task_DD_L6,2021.2.3,Win32,62.81407035,,,,,,,,,,,1.486,1,,,,,,,,,,,,,,m,1,1.486,,,,,,,,0.51953125,-0.38671875,0,0,0,,0,36,36,53,1,POSTER,HB,m,m,./images/POSTERHB.png,,,,,,,,,,,,,,,,,,,,,,,,,,,,,,,,,,,,
,,,,,,,,,,,,,,,,,5dcdef4dd30a0e0acb5b6fba,,2022-02-12_13h35.05.408,lexical_decision_task_DD_L6,2021.2.3,Win32,62.81407035,,,,,,,,,,,0.726,1,,,,,,,,,,,,,,z,1,0.726,,,,,,,,0.51953125,-0.38671875,0,0,0,,0,37,37,152,1,FRAIN,LB,z,z,./images/FRAINLB.png,,,,,,,,,,,,,,,,,,,,,,,,,,,,,,,,,,,,
,,,,,,,,,,,,,,,,,5dcdef4dd30a0e0acb5b6fba,,2022-02-12_13h35.05.408,lexical_decision_task_DD_L6,2021.2.3,Win32,62.81407035,,,,,,,,,,,0.752,1,,,,,,,,,,,,,,z,1,0.752,,,,,,,,0.51953125,-0.38671875,0,0,0,,0,38,38,94,1,BLANS,HB,z,z,./images/BLANSHB.png,,,,,,,,,,,,,,,,,,,,,,,,,,,,,,,,,,,,
,,,,,,,,,,,,,,,,,5dcdef4dd30a0e0acb5b6fba,,2022-02-12_13h35.05.408,lexical_decision_task_DD_L6,2021.2.3,Win32,62.81407035,,,,,,,,,,,0.59,1,,,,,,,,,,,,,,z,1,0.59,,,,,,,,0.51953125,-0.38671875,0,0,0,,0,39,39,150,1,NOOLS,C,z,z,./images/NOOLS.png,,,,,,,,,,,,,,,,,,,,,,,,,,,,,,,,,,,,
,,,,,,,,,,,,,,,,,5dcdef4dd30a0e0acb5b6fba,,2022-02-12_13h35.05.408,lexical_decision_task_DD_L6,2021.2.3,Win32,62.81407035,,,,,,,,,,,0.975,1,,,,,,,,,,,,,,z,1,0.975,,,,,,,,0.51953125,-0.38671875,0,0,0,,0,40,40,99,1,BACKY,C,z,z,./images/BACKY.png,,,,,,,,,,,,,,,,,,,,,,,,,,,,,,,,,,,,
,,,,,,,,,,,,,,,,,5dcdef4dd30a0e0acb5b6fba,,2022-02-12_13h35.05.408,lexical_decision_task_DD_L6,2021.2.3,Win32,62.81407035,,,,,,,,,,,0.855,1,,,,,,,,,,,,,,m,1,0.855,,,,,,,,0.1171875,-0.390625,1,0,0,,0,41,41,11,1,MEDAL,HB,m,m,./images/MEDALHB.png,break_done_button,,,,,,,,,,,,,,,,,,,,,,,,,,,,,,,,,,,
,,,,,,,,,,,,,,,,,5dcdef4dd30a0e0acb5b6fba,,2022-02-12_13h35.05.408,lexical_decision_task_DD_L6,2021.2.3,Win32,62.81407035,,,,,,,,,,,1.73,0,,,,,,,,,,,,,,m,0,1.73,,,,,,,,0.4296875,-0.044270833,0,0,0,,0,42,42,151,1,TINKY,HB,z,z,./images/TINKYHB.png,,,,,,,,,,,,,,,,,,,,,,,,,,,,,,,,,,,,
,,,,,,,,,,,,,,,,,5dcdef4dd30a0e0acb5b6fba,,2022-02-12_13h35.05.408,lexical_decision_task_DD_L6,2021.2.3,Win32,62.81407035,,,,,,,,,,,0.619,1,,,,,,,,,,,,,,z,1,0.619,,,,,,,,0.4296875,-0.044270833,0,0,0,,0,43,43,108,1,GRUET,C,z,z,./images/GRUET.png,,,,,,,,,,,,,,,,,,,,,,,,,,,,,,,,,,,,
,,,,,,,,,,,,,,,,,5dcdef4dd30a0e0acb5b6fba,,2022-02-12_13h35.05.408,lexical_decision_task_DD_L6,2021.2.3,Win32,62.81407035,,,,,,,,,,,0.691,1,,,,,,,,,,,,,,m,1,0.691,,,,,,,,0.4296875,-0.044270833,0,0,0,,0,44,44,44,1,BASKET,HB,m,m,./images/BASKETHB.png,,,,,,,,,,,,,,,,,,,,,,,,,,,,,,,,,,,,
,,,,,,,,,,,,,,,,,5dcdef4dd30a0e0acb5b6fba,,2022-02-12_13h35.05.408,lexical_decision_task_DD_L6,2021.2.3,Win32,62.81407035,,,,,,,,,,,0.732,1,,,,,,,,,,,,,,m,1,0.732,,,,,,,,0.4296875,-0.044270833,0,0,0,,0,45,45,47,1,LAGOON,HB,m,m,./images/LAGOONHB.png,,,,,,,,,,,,,,,,,,,,,,,,,,,,,,,,,,,,
,,,,,,,,,,,,,,,,,5dcdef4dd30a0e0acb5b6fba,,2022-02-12_13h35.05.408,lexical_decision_task_DD_L6,2021.2.3,Win32,62.81407035,,,,,,,,,,,0.701,1,,,,,,,,,,,,,,m,1,0.701,,,,,,,,0.4296875,-0.044270833,0,0,0,,0,46,46,46,1,MUMMY,C,m,m,./images/MUMMY.png,,,,,,,,,,,,,,,,,,,,,,,,,,,,,,,,,,,,
,,,,,,,,,,,,,,,,,5dcdef4dd30a0e0acb5b6fba,,2022-02-12_13h35.05.408,lexical_decision_task_DD_L6,2021.2.3,Win32,62.81407035,,,,,,,,,,,0.682,1,,,,,,,,,,,,,,z,1,0.682,,,,,,,,0.4296875,-0.044270833,0,0,0,,0,47,47,89,1,DRIEK,LB,z,z,./images/DRIEKLB.png,,,,,,,,,,,,,,,,,,,,,,,,,,,,,,,,,,,,
,,,,,,,,,,,,,,,,,5dcdef4dd30a0e0acb5b6fba,,2022-02-12_13h35.05.408,lexical_decision_task_DD_L6,2021.2.3,Win32,62.81407035,,,,,,,,,,,0.593,1,,,,,,,,,,,,,,z,1,0.593,,,,,,,,0.4296875,-0.044270833,0,0,0,,0,48,48,149,1,VEASE,LB,z,z,./images/VEASELB.png,,,,,,,,,,,,,,,,,,,,,,,,,,,,,,,,,,,,
,,,,,,,,,,,,,,,,,5dcdef4dd30a0e0acb5b6fba,,2022-02-12_13h35.05.408,lexical_decision_task_DD_L6,2021.2.3,Win32,62.81407035,,,,,,,,,,,0.512,1,,,,,,,,,,,,,,m,1,0.512,,,,,,,,0.4296875,-0.044270833,0,0,0,,0,49,49,82,1,PEBBLE,C,m,m,./images/PEBBLE.png,,,,,,,,,,,,,,,,,,,,,,,,,,,,,,,,,,,,
,,,,,,,,,,,,,,,,,5dcdef4dd30a0e0acb5b6fba,,2022-02-12_13h35.05.408,lexical_decision_task_DD_L6,2021.2.3,Win32,62.81407035,,,,,,,,,,,0.751,1,,,,,,,,,,,,,,m,1,0.751,,,,,,,,0.4296875,-0.044270833,0,0,0,,0,50,50,29,1,PISTOL,HB,m,m,./images/PISTOLHB.png,,,,,,,,,,,,,,,,,,,,,,,,,,,,,,,,,,,,
,,,,,,,,,,,,,,,,,5dcdef4dd30a0e0acb5b6fba,,2022-02-12_13h35.05.408,lexical_decision_task_DD_L6,2021.2.3,Win32,62.81407035,,,,,,,,,,,0.702,1,,,,,,,,,,,,,,z,1,0.702,,,,,,,,0.4296875,-0.044270833,0,0,0,,0,51,51,164,1,SGREW,LB,z,z,./images/SGREWLB.png,,,,,,,,,,,,,,,,,,,,,,,,,,,,,,,,,,,,
,,,,,,,,,,,,,,,,,5dcdef4dd30a0e0acb5b6fba,,2022-02-12_13h35.05.408,lexical_decision_task_DD_L6,2021.2.3,Win32,62.81407035,,,,,,,,,,,0.641,1,,,,,,,,,,,,,,m,1,0.641,,,,,,,,0.4296875,-0.044270833,0,0,0,,0,52,52,25,1,CHALK,C,m,m,./images/CHALK.png,,,,,,,,,,,,,,,,,,,,,,,,,,,,,,,,,,,,
,,,,,,,,,,,,,,,,,5dcdef4dd30a0e0acb5b6fba,,2022-02-12_13h35.05.408,lexical_decision_task_DD_L6,2021.2.3,Win32,62.81407035,,,,,,,,,,,0.71,1,,,,,,,,,,,,,,m,1,0.71,,,,,,,,0.4296875,-0.044270833,0,0,0,,0,53,53,12,1,BLOKE,LB,m,m,./images/BLOKELB.png,,,,,,,,,,,,,,,,,,,,,,,,,,,,,,,,,,,,
,,,,,,,,,,,,,,,,,5dcdef4dd30a0e0acb5b6fba,,2022-02-12_13h35.05.408,lexical_decision_task_DD_L6,2021.2.3,Win32,62.81407035,,,,,,,,,,,0.924,1,,,,,,,,,,,,,,m,1,0.924,,,,,,,,0.4296875,-0.044270833,0,0,0,,0,54,54,38,1,ENGINE,HB,m,m,./images/ENGINEHB.png,,,,,,,,,,,,,,,,,,,,,,,,,,,,,,,,,,,,
,,,,,,,,,,,,,,,,,5dcdef4dd30a0e0acb5b6fba,,2022-02-12_13h35.05.408,lexical_decision_task_DD_L6,2021.2.3,Win32,62.81407035,,,,,,,,,,,0.569,1,,,,,,,,,,,,,,m,1,0.569,,,,,,,,0.4296875,-0.044270833,0,0,0,,0,55,55,76,1,MIDGET,C,m,m,./images/MIDGET.png,,,,,,,,,,,,,,,,,,,,,,,,,,,,,,,,,,,,
,,,,,,,,,,,,,,,,,5dcdef4dd30a0e0acb5b6fba,,2022-02-12_13h35.05.408,lexical_decision_task_DD_L6,2021.2.3,Win32,62.81407035,,,,,,,,,,,1.074,1,,,,,,,,,,,,,,z,1,1.074,,,,,,,,0.4296875,-0.044270833,0,0,0,,0,56,56,100,1,DRIBS,HB,z,z,./images/DRIBSHB.png,,,,,,,,,,,,,,,,,,,,,,,,,,,,,,,,,,,,
,,,,,,,,,,,,,,,,,5dcdef4dd30a0e0acb5b6fba,,2022-02-12_13h35.05.408,lexical_decision_task_DD_L6,2021.2.3,Win32,62.81407035,,,,,,,,,,,0.743,1,,,,,,,,,,,,,,m,1,0.743,,,,,,,,0.4296875,-0.044270833,0,0,0,,0,57,57,74,1,JUMPER,HB,m,m,./images/JUMPERHB.png,,,,,,,,,,,,,,,,,,,,,,,,,,,,,,,,,,,,
,,,,,,,,,,,,,,,,,5dcdef4dd30a0e0acb5b6fba,,2022-02-12_13h35.05.408,lexical_decision_task_DD_L6,2021.2.3,Win32,62.81407035,,,,,,,,,,,0.571,1,,,,,,,,,,,,,,m,1,0.571,,,,,,,,0.4296875,-0.044270833,0,0,0,,0,58,58,65,1,SPINE,HB,m,m,./images/SPINEHB.png,,,,,,,,,,,,,,,,,,,,,,,,,,,,,,,,,,,,
,,,,,,,,,,,,,,,,,5dcdef4dd30a0e0acb5b6fba,,2022-02-12_13h35.05.408,lexical_decision_task_DD_L6,2021.2.3,Win32,62.81407035,,,,,,,,,,,0.787,1,,,,,,,,,,,,,,m,1,0.787,,,,,,,,0.4296875,-0.044270833,0,0,0,,0,59,59,59,1,BRUSH,HB,m,m,./images/BRUSHHB.png,,,,,,,,,,,,,,,,,,,,,,,,,,,,,,,,,,,,
,,,,,,,,,,,,,,,,,5dcdef4dd30a0e0acb5b6fba,,2022-02-12_13h35.05.408,lexical_decision_task_DD_L6,2021.2.3,Win32,62.81407035,,,,,,,,,,,0.77,1,,,,,,,,,,,,,,z,1,0.77,,,,,,,,0.4296875,-0.044270833,0,0,0,,0,60,60,138,1,PLICE,C,z,z,./images/PLICE.png,,,,,,,,,,,,,,,,,,,,,,,,,,,,,,,,,,,,
,,,,,,,,,,,,,,,,,5dcdef4dd30a0e0acb5b6fba,,2022-02-12_13h35.05.408,lexical_decision_task_DD_L6,2021.2.3,Win32,62.81407035,,,,,,,,,,,0.768,1,,,,,,,,,,,,,,m,1,0.768,,,,,,,,0.4296875,-0.044270833,0,0,0,,0,61,61,51,1,SAUCE,LB,m,m,./images/SAUCELB.png,,,,,,,,,,,,,,,,,,,,,,,,,,,,,,,,,,,,
,,,,,,,,,,,,,,,,,5dcdef4dd30a0e0acb5b6fba,,2022-02-12_13h35.05.408,lexical_decision_task_DD_L6,2021.2.3,Win32,62.81407035,,,,,,,,,,,0.729,1,,,,,,,,,,,,,,m,1,0.729,,,,,,,,0.4296875,-0.044270833,0,0,0,,0,62,62,83,1,WHISKY,HB,m,m,./images/WHISKYHB.png,,,,,,,,,,,,,,,,,,,,,,,,,,,,,,,,,,,,
,,,,,,,,,,,,,,,,,5dcdef4dd30a0e0acb5b6fba,,2022-02-12_13h35.05.408,lexical_decision_task_DD_L6,2021.2.3,Win32,62.81407035,,,,,,,,,,,0.692,1,,,,,,,,,,,,,,z,1,0.692,,,,,,,,0.4296875,-0.044270833,0,0,0,,0,63,63,113,1,LINEW,LB,z,z,./images/LINEWLB.png,,,,,,,,,,,,,,,,,,,,,,,,,,,,,,,,,,,,
,,,,,,,,,,,,,,,,,5dcdef4dd30a0e0acb5b6fba,,2022-02-12_13h35.05.408,lexical_decision_task_DD_L6,2021.2.3,Win32,62.81407035,,,,,,,,,,,0.711,1,,,,,,,,,,,,,,m,1,0.711,,,,,,,,0.4296875,-0.044270833,0,0,0,,0,64,64,66,1,STATUE,LB,m,m,./images/STATUELB.png,,,,,,,,,,,,,,,,,,,,,,,,,,,,,,,,,,,,
,,,,,,,,,,,,,,,,,5dcdef4dd30a0e0acb5b6fba,,2022-02-12_13h35.05.408,lexical_decision_task_DD_L6,2021.2.3,Win32,62.81407035,,,,,,,,,,,0.705,0,,,,,,,,,,,,,,m,0,0.705,,,,,,,,0.4296875,-0.044270833,0,0,0,,0,65,65,140,1,DOVET,LB,z,z,./images/DOVETLB.png,,,,,,,,,,,,,,,,,,,,,,,,,,,,,,,,,,,,
,,,,,,,,,,,,,,,,,5dcdef4dd30a0e0acb5b6fba,,2022-02-12_13h35.05.408,lexical_decision_task_DD_L6,2021.2.3,Win32,62.81407035,,,,,,,,,,,0.787,0,,,,,,,,,,,,,,z,0,0.787,,,,,,,,0.4296875,-0.044270833,0,0,0,,0,66,66,68,1,VALLEY,HB,m,m,./images/VALLEYHB.png,,,,,,,,,,,,,,,,,,,,,,,,,,,,,,,,,,,,
,,,,,,,,,,,,,,,,,5dcdef4dd30a0e0acb5b6fba,,2022-02-12_13h35.05.408,lexical_decision_task_DD_L6,2021.2.3,Win32,62.81407035,,,,,,,,,,,1.68,1,,,,,,,,,,,,,,m,1,1.68,,,,,,,,0.4296875,-0.044270833,0,0,0,,0,67,67,10,1,GARDEN,C,m,m,./images/GARDEN.png,,,,,,,,,,,,,,,,,,,,,,,,,,,,,,,,,,,,
,,,,,,,,,,,,,,,,,5dcdef4dd30a0e0acb5b6fba,,2022-02-12_13h35.05.408,lexical_decision_task_DD_L6,2021.2.3,Win32,62.81407035,,,,,,,,,,,0.531,1,,,,,,,,,,,,,,m,1,0.531,,,,,,,,0.4296875,-0.044270833,0,0,0,,0,68,68,54,1,CHERRY,LB,m,m,./images/CHERRYLB.png,,,,,,,,,,,,,,,,,,,,,,,,,,,,,,,,,,,,
,,,,,,,,,,,,,,,,,5dcdef4dd30a0e0acb5b6fba,,2022-02-12_13h35.05.408,lexical_decision_task_DD_L6,2021.2.3,Win32,62.81407035,,,,,,,,,,,0.707,1,,,,,,,,,,,,,,m,1,0.707,,,,,,,,0.4296875,-0.044270833,0,0,0,,0,69,69,0,1,WALNUT,LB,m,m,./images/WALNUTLB.png,,,,,,,,,,,,,,,,,,,,,,,,,,,,,,,,,,,,
,,,,,,,,,,,,,,,,,5dcdef4dd30a0e0acb5b6fba,,2022-02-12_13h35.05.408,lexical_decision_task_DD_L6,2021.2.3,Win32,62.81407035,,,,,,,,,,,0.5,1,,,,,,,,,,,,,,m,1,0.5,,,,,,,,0.4296875,-0.044270833,0,0,0,,0,70,70,39,1,CANDY,LB,m,m,./images/CANDYLB.png,,,,,,,,,,,,,,,,,,,,,,,,,,,,,,,,,,,,
,,,,,,,,,,,,,,,,,5dcdef4dd30a0e0acb5b6fba,,2022-02-12_13h35.05.408,lexical_decision_task_DD_L6,2021.2.3,Win32,62.81407035,,,,,,,,,,,0.554,0,,,,,,,,,,,,,,m,0,0.554,,,,,,,,0.4296875,-0.044270833,0,0,0,,0,71,71,85,1,CHULK,HB,z,z,./images/CHULKHB.png,,,,,,,,,,,,,,,,,,,,,,,,,,,,,,,,,,,,
,,,,,,,,,,,,,,,,,5dcdef4dd30a0e0acb5b6fba,,2022-02-12_13h35.05.408,lexical_decision_task_DD_L6,2021.2.3,Win32,62.81407035,,,,,,,,,,,0.534,1,,,,,,,,,,,,,,m,1,0.534,,,,,,,,0.4296875,-0.044270833,0,0,0,,0,72,72,69,1,ARROW,LB,m,m,./images/ARROWLB.png,,,,,,,,,,,,,,,,,,,,,,,,,,,,,,,,,,,,
,,,,,,,,,,,,,,,,,5dcdef4dd30a0e0acb5b6fba,,2022-02-12_13h35.05.408,lexical_decision_task_DD_L6,2021.2.3,Win32,62.81407035,,,,,,,,,,,0.692,1,,,,,,,,,,,,,,z,1,0.692,,,,,,,,0.4296875,-0.044270833,0,0,0,,0,73,73,117,1,STEEG,C,z,z,./images/STEEG.png,,,,,,,,,,,,,,,,,,,,,,,,,,,,,,,,,,,,
,,,,,,,,,,,,,,,,,5dcdef4dd30a0e0acb5b6fba,,2022-02-12_13h35.05.408,lexical_decision_task_DD_L6,2021.2.3,Win32,62.81407035,,,,,,,,,,,0.603,1,,,,,,,,,,,,,,m,1,0.603,,,,,,,,0.4296875,-0.044270833,0,0,0,,0,74,74,9,1,DIVER,LB,m,m,./images/DIVERLB.png,,,,,,,,,,,,,,,,,,,,,,,,,,,,,,,,,,,,
,,,,,,,,,,,,,,,,,5dcdef4dd30a0e0acb5b6fba,,2022-02-12_13h35.05.408,lexical_decision_task_DD_L6,2021.2.3,Win32,62.81407035,,,,,,,,,,,0.832,1,,,,,,,,,,,,,,m,1,0.832,,,,,,,,0.4296875,-0.044270833,0,0,0,,0,75,75,2,1,STOVE,HB,m,m,./images/STOVEHB.png,,,,,,,,,,,,,,,,,,,,,,,,,,,,,,,,,,,,
,,,,,,,,,,,,,,,,,5dcdef4dd30a0e0acb5b6fba,,2022-02-12_13h35.05.408,lexical_decision_task_DD_L6,2021.2.3,Win32,62.81407035,,,,,,,,,,,0.547,1,,,,,,,,,,,,,,m,1,0.547,,,,,,,,0.4296875,-0.044270833,0,0,0,,0,76,76,73,1,GLOVE,C,m,m,./images/GLOVE.png,,,,,,,,,,,,,,,,,,,,,,,,,,,,,,,,,,,,
,,,,,,,,,,,,,,,,,5dcdef4dd30a0e0acb5b6fba,,2022-02-12_13h35.05.408,lexical_decision_task_DD_L6,2021.2.3,Win32,62.81407035,,,,,,,,,,,0.739,1,,,,,,,,,,,,,,m,1,0.739,,,,,,,,0.4296875,-0.044270833,0,0,0,,0,77,77,18,1,PARCEL,LB,m,m,./images/PARCELLB.png,,,,,,,,,,,,,,,,,,,,,,,,,,,,,,,,,,,,
,,,,,,,,,,,,,,,,,5dcdef4dd30a0e0acb5b6fba,,2022-02-12_13h35.05.408,lexical_decision_task_DD_L6,2021.2.3,Win32,62.81407035,,,,,,,,,,,0.531,1,,,,,,,,,,,,,,m,1,0.531,,,,,,,,0.4296875,-0.044270833,0,0,0,,0,78,78,15,1,COLLAR,LB,m,m,./images/COLLARLB.png,,,,,,,,,,,,,,,,,,,,,,,,,,,,,,,,,,,,
,,,,,,,,,,,,,,,,,5dcdef4dd30a0e0acb5b6fba,,2022-02-12_13h35.05.408,lexical_decision_task_DD_L6,2021.2.3,Win32,62.81407035,,,,,,,,,,,0.85,1,,,,,,,,,,,,,,z,1,0.85,,,,,,,,0.4296875,-0.044270833,0,0,0,,0,79,79,139,1,BLEAR,HB,z,z,./images/BLEARHB.png,,,,,,,,,,,,,,,,,,,,,,,,,,,,,,,,,,,,
,,,,,,,,,,,,,,,,,5dcdef4dd30a0e0acb5b6fba,,2022-02-12_13h35.05.408,lexical_decision_task_DD_L6,2021.2.3,Win32,62.81407035,,,,,,,,,,,0.718,1,,,,,,,,,,,,,,m,1,0.718,,,,,,,,0.4296875,-0.044270833,0,0,0,,0,80,80,55,1,ALLEY,C,m,m,./images/ALLEY.png,,,,,,,,,,,,,,,,,,,,,,,,,,,,,,,,,,,,
,,,,,,,,,,,,,,,,,5dcdef4dd30a0e0acb5b6fba,,2022-02-12_13h35.05.408,lexical_decision_task_DD_L6,2021.2.3,Win32,62.81407035,,,,,,,,,,,0.936,1,,,,,,,,,,,,,,m,1,0.936,,,,,,,,0.4296875,-0.044270833,0,0,0,,0,81,81,62,1,MAMMAL,HB,m,m,./images/MAMMALHB.png,,,,,,,,,,,,,,,,,,,,,,,,,,,,,,,,,,,,
,,,,,,,,,,,,,,,,,5dcdef4dd30a0e0acb5b6fba,,2022-02-12_13h35.05.408,lexical_decision_task_DD_L6,2021.2.3,Win32,62.81407035,,,,,,,,,,,0.707,1,,,,,,,,,,,,,,z,1,0.707,,,,,,,,0.4296875,-0.044270833,0,0,0,,0,82,82,153,1,CLUPS,C,z,z,./images/CLUPS.png,,,,,,,,,,,,,,,,,,,,,,,,,,,,,,,,,,,,
,,,,,,,,,,,,,,,,,5dcdef4dd30a0e0acb5b6fba,,2022-02-12_13h35.05.408,lexical_decision_task_DD_L6,2021.2.3,Win32,62.81407035,,,,,,,,,,,7.156,1,,,,,,,,,,,,,,m,1,7.156,,,,,,,,0.07421875,-0.412760417,1,0,0,,0,83,83,5,1,BAMBOO,HB,m,m,./images/BAMBOOHB.png,break_done_button,,,,,,,,,,,,,,,,,,,,,,,,,,,,,,,,,,,
,,,,,,,,,,,,,,,,,5dcdef4dd30a0e0acb5b6fba,,2022-02-12_13h35.05.408,lexical_decision_task_DD_L6,2021.2.3,Win32,62.81407035,,,,,,,,,,,1.073,0,,,,,,,,,,,,,,m,0,1.073,,,,,,,,0.07421875,-0.412760417,0,0,0,,0,84,84,130,1,CRILL,HB,z,z,./images/CRILLHB.png,,,,,,,,,,,,,,,,,,,,,,,,,,,,,,,,,,,,
,,,,,,,,,,,,,,,,,5dcdef4dd30a0e0acb5b6fba,,2022-02-12_13h35.05.408,lexical_decision_task_DD_L6,2021.2.3,Win32,62.81407035,,,,,,,,,,,0.892,1,,,,,,,,,,,,,,z,1,0.892,,,,,,,,0.07421875,-0.412760417,0,0,0,,0,85,85,160,1,VEETS,HB,z,z,./images/VEETSHB.png,,,,,,,,,,,,,,,,,,,,,,,,,,,,,,,,,,,,
,,,,,,,,,,,,,,,,,5dcdef4dd30a0e0acb5b6fba,,2022-02-12_13h35.05.408,lexical_decision_task_DD_L6,2021.2.3,Win32,62.81407035,,,,,,,,,,,0.545,0,,,,,,,,,,,,,,m,0,0.545,,,,,,,,0.07421875,-0.412760417,0,0,0,,0,86,86,107,1,FASKS,LB,z,z,./images/FASKSLB.png,,,,,,,,,,,,,,,,,,,,,,,,,,,,,,,,,,,,
,,,,,,,,,,,,,,,,,5dcdef4dd30a0e0acb5b6fba,,2022-02-12_13h35.05.408,lexical_decision_task_DD_L6,2021.2.3,Win32,62.81407035,,,,,,,,,,,0.591,1,,,,,,,,,,,,,,m,1,0.591,,,,,,,,0.07421875,-0.412760417,0,0,0,,0,87,87,7,1,WAGON,C,m,m,./images/WAGON.png,,,,,,,,,,,,,,,,,,,,,,,,,,,,,,,,,,,,
,,,,,,,,,,,,,,,,,5dcdef4dd30a0e0acb5b6fba,,2022-02-12_13h35.05.408,lexical_decision_task_DD_L6,2021.2.3,Win32,62.81407035,,,,,,,,,,,0.918,0,,,,,,,,,,,,,,m,0,0.918,,,,,,,,0.07421875,-0.412760417,0,0,0,,0,88,88,166,1,SHORY,HB,z,z,./images/SHORYHB.png,,,,,,,,,,,,,,,,,,,,,,,,,,,,,,,,,,,,
,,,,,,,,,,,,,,,,,5dcdef4dd30a0e0acb5b6fba,,2022-02-12_13h35.05.408,lexical_decision_task_DD_L6,2021.2.3,Win32,62.81407035,,,,,,,,,,,0.865,1,,,,,,,,,,,,,,z,1,0.865,,,,,,,,0.07421875,-0.412760417,0,0,0,,0,89,89,105,1,MOKER,C,z,z,./images/MOKER.png,,,,,,,,,,,,,,,,,,,,,,,,,,,,,,,,,,,,
,,,,,,,,,,,,,,,,,5dcdef4dd30a0e0acb5b6fba,,2022-02-12_13h35.05.408,lexical_decision_task_DD_L6,2021.2.3,Win32,62.81407035,,,,,,,,,,,0.573,0,,,,,,,,,,,,,,m,0,0.573,,,,,,,,0.07421875,-0.412760417,0,0,0,,0,90,90,93,1,SMONE,C,z,z,./images/SMONE.png,,,,,,,,,,,,,,,,,,,,,,,,,,,,,,,,,,,,
,,,,,,,,,,,,,,,,,5dcdef4dd30a0e0acb5b6fba,,2022-02-12_13h35.05.408,lexical_decision_task_DD_L6,2021.2.3,Win32,62.81407035,,,,,,,,,,,1.173,1,,,,,,,,,,,,,,z,1,1.173,,,,,,,,0.07421875,-0.412760417,0,0,0,,0,91,91,116,1,BALGY,LB,z,z,./images/BALGYLB.png,,,,,,,,,,,,,,,,,,,,,,,,,,,,,,,,,,,,
,,,,,,,,,,,,,,,,,5dcdef4dd30a0e0acb5b6fba,,2022-02-12_13h35.05.408,lexical_decision_task_DD_L6,2021.2.3,Win32,62.81407035,,,,,,,,,,,1.039,1,,,,,,,,,,,,,,z,1,1.039,,,,,,,,0.07421875,-0.412760417,0,0,0,,0,92,92,118,1,BAVEL,HB,z,z,./images/BAVELHB.png,,,,,,,,,,,,,,,,,,,,,,,,,,,,,,,,,,,,
,,,,,,,,,,,,,,,,,5dcdef4dd30a0e0acb5b6fba,,2022-02-12_13h35.05.408,lexical_decision_task_DD_L6,2021.2.3,Win32,62.81407035,,,,,,,,,,,0.711,1,,,,,,,,,,,,,,m,1,0.711,,,,,,,,0.07421875,-0.412760417,0,0,0,,0,93,93,78,1,BROOM,LB,m,m,./images/BROOMLB.png,,,,,,,,,,,,,,,,,,,,,,,,,,,,,,,,,,,,
,,,,,,,,,,,,,,,,,5dcdef4dd30a0e0acb5b6fba,,2022-02-12_13h35.05.408,lexical_decision_task_DD_L6,2021.2.3,Win32,62.81407035,,,,,,,,,,,0.673,1,,,,,,,,,,,,,,m,1,0.673,,,,,,,,0.07421875,-0.412760417,0,0,0,,0,94,94,57,1,FERRY,LB,m,m,./images/FERRYLB.png,,,,,,,,,,,,,,,,,,,,,,,,,,,,,,,,,,,,
,,,,,,,,,,,,,,,,,5dcdef4dd30a0e0acb5b6fba,,2022-02-12_13h35.05.408,lexical_decision_task_DD_L6,2021.2.3,Win32,62.81407035,,,,,,,,,,,0.81,1,,,,,,,,,,,,,,z,1,0.81,,,,,,,,0.07421875,-0.412760417,0,0,0,,0,95,95,86,1,AIFED,LB,z,z,./images/AIFEDLB.png,,,,,,,,,,,,,,,,,,,,,,,,,,,,,,,,,,,,
,,,,,,,,,,,,,,,,,5dcdef4dd30a0e0acb5b6fba,,2022-02-12_13h35.05.408,lexical_decision_task_DD_L6,2021.2.3,Win32,62.81407035,,,,,,,,,,,1.068,1,,,,,,,,,,,,,,m,1,1.068,,,,,,,,0.07421875,-0.412760417,0,0,0,,0,96,96,6,1,STAIN,LB,m,m,./images/STAINLB.png,,,,,,,,,,,,,,,,,,,,,,,,,,,,,,,,,,,,
,,,,,,,,,,,,,,,,,5dcdef4dd30a0e0acb5b6fba,,2022-02-12_13h35.05.408,lexical_decision_task_DD_L6,2021.2.3,Win32,62.81407035,,,,,,,,,,,1.065,1,,,,,,,,,,,,,,m,1,1.065,,,,,,,,0.07421875,-0.412760417,0,0,0,,0,97,97,32,1,HOCKEY,HB,m,m,./images/HOCKEYHB.png,,,,,,,,,,,,,,,,,,,,,,,,,,,,,,,,,,,,
,,,,,,,,,,,,,,,,,5dcdef4dd30a0e0acb5b6fba,,2022-02-12_13h35.05.408,lexical_decision_task_DD_L6,2021.2.3,Win32,62.81407035,,,,,,,,,,,0.874,1,,,,,,,,,,,,,,z,1,0.874,,,,,,,,0.07421875,-0.412760417,0,0,0,,0,98,98,104,1,GITTY,LB,z,z,./images/GITTYLB.png,,,,,,,,,,,,,,,,,,,,,,,,,,,,,,,,,,,,
,,,,,,,,,,,,,,,,,5dcdef4dd30a0e0acb5b6fba,,2022-02-12_13h35.05.408,lexical_decision_task_DD_L6,2021.2.3,Win32,62.81407035,,,,,,,,,,,0.613,1,,,,,,,,,,,,,,m,1,0.613,,,,,,,,0.07421875,-0.412760417,0,0,0,,0,99,99,58,1,CANOE,C,m,m,./images/CANOE.png,,,,,,,,,,,,,,,,,,,,,,,,,,,,,,,,,,,,
,,,,,,,,,,,,,,,,,5dcdef4dd30a0e0acb5b6fba,,2022-02-12_13h35.05.408,lexical_decision_task_DD_L6,2021.2.3,Win32,62.81407035,,,,,,,,,,,0.788,1,,,,,,,,,,,,,,m,1,0.788,,,,,,,,0.07421875,-0.412760417,0,0,0,,0,100,100,61,1,ARTIST,C,m,m,./images/ARTIST.png,,,,,,,,,,,,,,,,,,,,,,,,,,,,,,,,,,,,
,,,,,,,,,,,,,,,,,5dcdef4dd30a0e0acb5b6fba,,2022-02-12_13h35.05.408,lexical_decision_task_DD_L6,2021.2.3,Win32,62.81407035,,,,,,,,,,,0.608,1,,,,,,,,,,,,,,z,1,0.608,,,,,,,,0.07421875,-0.412760417,0,0,0,,0,101,101,123,1,SEDGE,C,z,z,./images/SEDGE.png,,,,,,,,,,,,,,,,,,,,,,,,,,,,,,,,,,,,
,,,,,,,,,,,,,,,,,5dcdef4dd30a0e0acb5b6fba,,2022-02-12_13h35.05.408,lexical_decision_task_DD_L6,2021.2.3,Win32,62.81407035,,,,,,,,,,,0.916,0,,,,,,,,,,,,,,z,0,0.916,,,,,,,,0.07421875,-0.412760417,0,0,0,,0,102,102,80,1,PLANET,HB,m,m,./images/PLANETHB.png,,,,,,,,,,,,,,,,,,,,,,,,,,,,,,,,,,,,
,,,,,,,,,,,,,,,,,5dcdef4dd30a0e0acb5b6fba,,2022-02-12_13h35.05.408,lexical_decision_task_DD_L6,2021.2.3,Win32,62.81407035,,,,,,,,,,,0.795,1,,,,,,,,,,,,,,m,1,0.795,,,,,,,,0.07421875,-0.412760417,0,0,0,,0,103,103,23,1,CLOTH,HB,m,m,./images/CLOTHHB.png,,,,,,,,,,,,,,,,,,,,,,,,,,,,,,,,,,,,
,,,,,,,,,,,,,,,,,5dcdef4dd30a0e0acb5b6fba,,2022-02-12_13h35.05.408,lexical_decision_task_DD_L6,2021.2.3,Win32,62.81407035,,,,,,,,,,,0.789,1,,,,,,,,,,,,,,m,1,0.789,,,,,,,,0.07421875,-0.412760417,0,0,0,,0,104,104,17,1,PARADE,HB,m,m,./images/PARADEHB.png,,,,,,,,,,,,,,,,,,,,,,,,,,,,,,,,,,,,
,,,,,,,,,,,,,,,,,5dcdef4dd30a0e0acb5b6fba,,2022-02-12_13h35.05.408,lexical_decision_task_DD_L6,2021.2.3,Win32,62.81407035,,,,,,,,,,,0.664,1,,,,,,,,,,,,,,z,1,0.664,,,,,,,,0.07421875,-0.412760417,0,0,0,,0,105,105,148,1,JOMS,HB,z,z,./images/JOMSHB.png,,,,,,,,,,,,,,,,,,,,,,,,,,,,,,,,,,,,
,,,,,,,,,,,,,,,,,5dcdef4dd30a0e0acb5b6fba,,2022-02-12_13h35.05.408,lexical_decision_task_DD_L6,2021.2.3,Win32,62.81407035,,,,,,,,,,,0.756,1,,,,,,,,,,,,,,z,1,0.756,,,,,,,,0.07421875,-0.412760417,0,0,0,,0,106,106,120,1,RINED,C,z,z,./images/RINED.png,,,,,,,,,,,,,,,,,,,,,,,,,,,,,,,,,,,,
,,,,,,,,,,,,,,,,,5dcdef4dd30a0e0acb5b6fba,,2022-02-12_13h35.05.408,lexical_decision_task_DD_L6,2021.2.3,Win32,62.81407035,,,,,,,,,,,0.928,1,,,,,,,,,,,,,,m,1,0.928,,,,,,,,0.07421875,-0.412760417,0,0,0,,0,107,107,14,1,FENCE,HB,m,m,./images/FENCEHB.png,,,,,,,,,,,,,,,,,,,,,,,,,,,,,,,,,,,,
,,,,,,,,,,,,,,,,,5dcdef4dd30a0e0acb5b6fba,,2022-02-12_13h35.05.408,lexical_decision_task_DD_L6,2021.2.3,Win32,62.81407035,,,,,,,,,,,0.731,1,,,,,,,,,,,,,,z,1,0.731,,,,,,,,0.07421875,-0.412760417,0,0,0,,0,108,108,159,1,CUDDY,C,z,z,./images/CUDDY.png,,,,,,,,,,,,,,,,,,,,,,,,,,,,,,,,,,,,
,,,,,,,,,,,,,,,,,5dcdef4dd30a0e0acb5b6fba,,2022-02-12_13h35.05.408,lexical_decision_task_DD_L6,2021.2.3,Win32,62.81407035,,,,,,,,,,,0.639,1,,,,,,,,,,,,,,m,1,0.639,,,,,,,,0.07421875,-0.412760417,0,0,0,,0,109,109,70,1,BANANA,C,m,m,./images/BANANA.png,,,,,,,,,,,,,,,,,,,,,,,,,,,,,,,,,,,,
,,,,,,,,,,,,,,,,,5dcdef4dd30a0e0acb5b6fba,,2022-02-12_13h35.05.408,lexical_decision_task_DD_L6,2021.2.3,Win32,62.81407035,,,,,,,,,,,0.625,1,,,,,,,,,,,,,,m,1,0.625,,,,,,,,0.07421875,-0.412760417,0,0,0,,0,110,110,48,1,SHIELD,LB,m,m,./images/SHIELDLB.png,,,,,,,,,,,,,,,,,,,,,,,,,,,,,,,,,,,,
,,,,,,,,,,,,,,,,,5dcdef4dd30a0e0acb5b6fba,,2022-02-12_13h35.05.408,lexical_decision_task_DD_L6,2021.2.3,Win32,62.81407035,,,,,,,,,,,0.814,1,,,,,,,,,,,,,,m,1,0.814,,,,,,,,0.07421875,-0.412760417,0,0,0,,0,111,111,33,1,SAUNA,LB,m,m,./images/SAUNALB.png,,,,,,,,,,,,,,,,,,,,,,,,,,,,,,,,,,,,
,,,,,,,,,,,,,,,,,5dcdef4dd30a0e0acb5b6fba,,2022-02-12_13h35.05.408,lexical_decision_task_DD_L6,2021.2.3,Win32,62.81407035,,,,,,,,,,,0.92,1,,,,,,,,,,,,,,z,1,0.92,,,,,,,,0.07421875,-0.412760417,0,0,0,,0,112,112,129,1,PRANS,C,z,z,./images/PRANS.png,,,,,,,,,,,,,,,,,,,,,,,,,,,,,,,,,,,,
,,,,,,,,,,,,,,,,,5dcdef4dd30a0e0acb5b6fba,,2022-02-12_13h35.05.408,lexical_decision_task_DD_L6,2021.2.3,Win32,62.81407035,,,,,,,,,,,0.798,1,,,,,,,,,,,,,,z,1,0.798,,,,,,,,0.07421875,-0.412760417,0,0,0,,0,113,113,98,1,BAMPS,LB,z,z,./images/BAMPSLB.png,,,,,,,,,,,,,,,,,,,,,,,,,,,,,,,,,,,,
,,,,,,,,,,,,,,,,,5dcdef4dd30a0e0acb5b6fba,,2022-02-12_13h35.05.408,lexical_decision_task_DD_L6,2021.2.3,Win32,62.81407035,,,,,,,,,,,1.222,1,,,,,,,,,,,,,,m,1,1.222,,,,,,,,0.07421875,-0.412760417,0,0,0,,0,114,114,34,1,RAZOR,C,m,m,./images/RAZOR.png,,,,,,,,,,,,,,,,,,,,,,,,,,,,,,,,,,,,
,,,,,,,,,,,,,,,,,5dcdef4dd30a0e0acb5b6fba,,2022-02-12_13h35.05.408,lexical_decision_task_DD_L6,2021.2.3,Win32,62.81407035,,,,,,,,,,,1.204,1,,,,,,,,,,,,,,m,1,1.204,,,,,,,,0.07421875,-0.412760417,0,0,0,,0,115,115,1,1,TOWEL,C,m,m,./images/TOWEL.png,,,,,,,,,,,,,,,,,,,,,,,,,,,,,,,,,,,,
,,,,,,,,,,,,,,,,,5dcdef4dd30a0e0acb5b6fba,,2022-02-12_13h35.05.408,lexical_decision_task_DD_L6,2021.2.3,Win32,62.81407035,,,,,,,,,,,1.185,1,,,,,,,,,,,,,,z,1,1.185,,,,,,,,0.07421875,-0.412760417,0,0,0,,0,116,116,167,1,ZONET,LB,z,z,./images/ZONETLB.png,,,,,,,,,,,,,,,,,,,,,,,,,,,,,,,,,,,,
,,,,,,,,,,,,,,,,,5dcdef4dd30a0e0acb5b6fba,,2022-02-12_13h35.05.408,lexical_decision_task_DD_L6,2021.2.3,Win32,62.81407035,,,,,,,,,,,2.158,1,,,,,,,,,,,,,,z,1,2.158,,,,,,,,0.07421875,-0.412760417,0,0,0,,0,117,117,114,1,RIKES,C,z,z,./images/RIKES.png,,,,,,,,,,,,,,,,,,,,,,,,,,,,,,,,,,,,
,,,,,,,,,,,,,,,,,5dcdef4dd30a0e0acb5b6fba,,2022-02-12_13h35.05.408,lexical_decision_task_DD_L6,2021.2.3,Win32,62.81407035,,,,,,,,,,,0.742,1,,,,,,,,,,,,,,z,1,0.742,,,,,,,,0.07421875,-0.412760417,0,0,0,,0,118,118,158,1,EGECT,LB,z,z,./images/EGECTLB.png,,,,,,,,,,,,,,,,,,,,,,,,,,,,,,,,,,,,
,,,,,,,,,,,,,,,,,5dcdef4dd30a0e0acb5b6fba,,2022-02-12_13h35.05.408,lexical_decision_task_DD_L6,2021.2.3,Win32,62.81407035,,,,,,,,,,,8.012,1,,,,,,,,,,,,,,m,1,8.012,,,,,,,,0.07421875,-0.412760417,0,0,0,,0,119,119,45,1,MONKEY,LB,m,m,./images/MONKEYLB.png,,,,,,,,,,,,,,,,,,,,,,,,,,,,,,,,,,,,
,,,,,,,,,,,,,,,,,5dcdef4dd30a0e0acb5b6fba,,2022-02-12_13h35.05.408,lexical_decision_task_DD_L6,2021.2.3,Win32,62.81407035,,,,,,,,,,,0.513,1,,,,,,,,,,,,,,m,1,0.513,,,,,,,,0.07421875,-0.412760417,0,0,0,,0,120,120,52,1,DESERT,C,m,m,./images/DESERT.png,,,,,,,,,,,,,,,,,,,,,,,,,,,,,,,,,,,,
,,,,,,,,,,,,,,,,,5dcdef4dd30a0e0acb5b6fba,,2022-02-12_13h35.05.408,lexical_decision_task_DD_L6,2021.2.3,Win32,62.81407035,,,,,,,,,,,0.494,1,,,,,,,,,,,,,,m,1,0.494,,,,,,,,0.07421875,-0.412760417,0,0,0,,0,121,121,75,1,HAMMER,LB,m,m,./images/HAMMERLB.png,,,,,,,,,,,,,,,,,,,,,,,,,,,,,,,,,,,,
,,,,,,,,,,,,,,,,,5dcdef4dd30a0e0acb5b6fba,,2022-02-12_13h35.05.408,lexical_decision_task_DD_L6,2021.2.3,Win32,62.81407035,,,,,,,,,,,0.556,1,,,,,,,,,,,,,,z,1,0.556,,,,,,,,0.07421875,-0.412760417,0,0,0,,0,122,122,84,1,HAXES,C,z,z,./images/HAXES.png,,,,,,,,,,,,,,,,,,,,,,,,,,,,,,,,,,,,
,,,,,,,,,,,,,,,,,5dcdef4dd30a0e0acb5b6fba,,2022-02-12_13h35.05.408,lexical_decision_task_DD_L6,2021.2.3,Win32,62.81407035,,,,,,,,,,,0.486,1,,,,,,,,,,,,,,m,1,0.486,,,,,,,,0.07421875,-0.412760417,0,0,0,,0,123,123,72,1,FLASK,LB,m,m,./images/FLASKLB.png,,,,,,,,,,,,,,,,,,,,,,,,,,,,,,,,,,,,
,,,,,,,,,,,,,,,,,5dcdef4dd30a0e0acb5b6fba,,2022-02-12_13h35.05.408,lexical_decision_task_DD_L6,2021.2.3,Win32,62.81407035,,,,,,,,,,,0.493,1,,,,,,,,,,,,,,m,1,0.493,,,,,,,,0.07421875,-0.412760417,0,0,0,,0,124,124,30,1,SLOPE,LB,m,m,./images/SLOPELB.png,,,,,,,,,,,,,,,,,,,,,,,,,,,,,,,,,,,,
,,,,,,,,,,,,,,,,,5dcdef4dd30a0e0acb5b6fba,,2022-02-12_13h35.05.408,lexical_decision_task_DD_L6,2021.2.3,Win32,62.81407035,,,,,,,,,,,0.589,1,,,,,,,,,,,,,,z,1,0.589,,,,,,,,0.076822917,-0.389322917,1,0,0,,0,125,125,110,1,CRUNK,LB,z,z,./images/CRUNKLB.png,break_done_button,,,,,,,,,,,,,,,,,,,,,,,,,,,,,,,,,,,
,,,,,,,,,,,,,,,,,5dcdef4dd30a0e0acb5b6fba,,2022-02-12_13h35.05.408,lexical_decision_task_DD_L6,2021.2.3,Win32,62.81407035,,,,,,,,,,,0.605,1,,,,,,,,,,,,,,m,1,0.605,,,,,,,,0.076822917,-0.389322917,0,0,0,,0,126,126,4,1,BOXER,C,m,m,./images/BOXER.png,,,,,,,,,,,,,,,,,,,,,,,,,,,,,,,,,,,,
,,,,,,,,,,,,,,,,,5dcdef4dd30a0e0acb5b6fba,,2022-02-12_13h35.05.408,lexical_decision_task_DD_L6,2021.2.3,Win32,62.81407035,,,,,,,,,,,0.7,1,,,,,,,,,,,,,,m,1,0.7,,,,,,,,0.076822917,-0.389322917,0,0,0,,0,127,127,41,1,STREAM,HB,m,m,./images/STREAMHB.png,,,,,,,,,,,,,,,,,,,,,,,,,,,,,,,,,,,,
,,,,,,,,,,,,,,,,,5dcdef4dd30a0e0acb5b6fba,,2022-02-12_13h35.05.408,lexical_decision_task_DD_L6,2021.2.3,Win32,62.81407035,,,,,,,,,,,0.678,1,,,,,,,,,,,,,,z,1,0.678,,,,,,,,0.076822917,-0.389322917,0,0,0,,0,128,128,109,1,BURGE,HB,z,z,./images/BURGEHB.png,,,,,,,,,,,,,,,,,,,,,,,,,,,,,,,,,,,,
,,,,,,,,,,,,,,,,,5dcdef4dd30a0e0acb5b6fba,,2022-02-12_13h35.05.408,lexical_decision_task_DD_L6,2021.2.3,Win32,62.81407035,,,,,,,,,,,0.559,1,,,,,,,,,,,,,,m,1,0.559,,,,,,,,0.076822917,-0.389322917,0,0,0,,0,129,129,40,1,SNAKE,C,m,m,./images/SNAKE.png,,,,,,,,,,,,,,,,,,,,,,,,,,,,,,,,,,,,
,,,,,,,,,,,,,,,,,5dcdef4dd30a0e0acb5b6fba,,2022-02-12_13h35.05.408,lexical_decision_task_DD_L6,2021.2.3,Win32,62.81407035,,,,,,,,,,,0.798,1,,,,,,,,,,,,,,m,1,0.798,,,,,,,,0.076822917,-0.389322917,0,0,0,,0,130,130,77,1,WHEEL,HB,m,m,./images/WHEELHB.png,,,,,,,,,,,,,,,,,,,,,,,,,,,,,,,,,,,,
,,,,,,,,,,,,,,,,,5dcdef4dd30a0e0acb5b6fba,,2022-02-12_13h35.05.408,lexical_decision_task_DD_L6,2021.2.3,Win32,62.81407035,,,,,,,,,,,0.748,1,,,,,,,,,,,,,,z,1,0.748,,,,,,,,0.076822917,-0.389322917,0,0,0,,0,131,131,132,1,SCIFF,C,z,z,./images/SCIFF.png,,,,,,,,,,,,,,,,,,,,,,,,,,,,,,,,,,,,
,,,,,,,,,,,,,,,,,5dcdef4dd30a0e0acb5b6fba,,2022-02-12_13h35.05.408,lexical_decision_task_DD_L6,2021.2.3,Win32,62.81407035,,,,,,,,,,,0.906,1,,,,,,,,,,,,,,z,1,0.906,,,,,,,,0.076822917,-0.389322917,0,0,0,,0,132,132,111,1,HOSSE,C,z,z,./images/HOSSE.png,,,,,,,,,,,,,,,,,,,,,,,,,,,,,,,,,,,,
,,,,,,,,,,,,,,,,,5dcdef4dd30a0e0acb5b6fba,,2022-02-12_13h35.05.408,lexical_decision_task_DD_L6,2021.2.3,Win32,62.81407035,,,,,,,,,,,1.011,1,,,,,,,,,,,,,,z,1,1.011,,,,,,,,0.076822917,-0.389322917,0,0,0,,0,133,133,134,1,TROSS,LB,z,z,./images/TROSSLB.png,,,,,,,,,,,,,,,,,,,,,,,,,,,,,,,,,,,,
,,,,,,,,,,,,,,,,,5dcdef4dd30a0e0acb5b6fba,,2022-02-12_13h35.05.408,lexical_decision_task_DD_L6,2021.2.3,Win32,62.81407035,,,,,,,,,,,6.244,1,,,,,,,,,,,,,,z,1,6.244,,,,,,,,0.076822917,-0.389322917,0,0,0,,0,134,134,125,1,MOOKY,LB,z,z,./images/MOOKYLB.png,,,,,,,,,,,,,,,,,,,,,,,,,,,,,,,,,,,,
,,,,,,,,,,,,,,,,,5dcdef4dd30a0e0acb5b6fba,,2022-02-12_13h35.05.408,lexical_decision_task_DD_L6,2021.2.3,Win32,62.81407035,,,,,,,,,,,0.623,1,,,,,,,,,,,,,,z,1,0.623,,,,,,,,0.076822917,-0.389322917,0,0,0,,0,135,135,96,1,KEAMS,C,z,z,./images/KEAMS.png,,,,,,,,,,,,,,,,,,,,,,,,,,,,,,,,,,,,
,,,,,,,,,,,,,,,,,5dcdef4dd30a0e0acb5b6fba,,2022-02-12_13h35.05.408,lexical_decision_task_DD_L6,2021.2.3,Win32,62.81407035,,,,,,,,,,,0.611,0,,,,,,,,,,,,,,z,0,0.611,,,,,,,,0.076822917,-0.389322917,0,0,0,,0,136,136,63,1,BAKER,LB,m,m,./images/BAKERLB.png,,,,,,,,,,,,,,,,,,,,,,,,,,,,,,,,,,,,
,,,,,,,,,,,,,,,,,5dcdef4dd30a0e0acb5b6fba,,2022-02-12_13h35.05.408,lexical_decision_task_DD_L6,2021.2.3,Win32,62.81407035,,,,,,,,,,,0.764,1,,,,,,,,,,,,,,z,1,0.764,,,,,,,,0.076822917,-0.389322917,0,0,0,,0,137,137,119,1,PAFER,LB,z,z,./images/PAFERLB.png,,,,,,,,,,,,,,,,,,,,,,,,,,,,,,,,,,,,
,,,,,,,,,,,,,,,,,5dcdef4dd30a0e0acb5b6fba,,2022-02-12_13h35.05.408,lexical_decision_task_DD_L6,2021.2.3,Win32,62.81407035,,,,,,,,,,,0.934,0,,,,,,,,,,,,,,z,0,0.934,,,,,,,,0.076822917,-0.389322917,0,0,0,,0,138,138,35,1,LLAMA,HB,m,m,./images/LLAMAHB.png,,,,,,,,,,,,,,,,,,,,,,,,,,,,,,,,,,,,
,,,,,,,,,,,,,,,,,5dcdef4dd30a0e0acb5b6fba,,2022-02-12_13h35.05.408,lexical_decision_task_DD_L6,2021.2.3,Win32,62.81407035,,,,,,,,,,,0.652,1,,,,,,,,,,,,,,m,1,0.652,,,,,,,,0.076822917,-0.389322917,0,0,0,,0,139,139,67,1,POKER,C,m,m,./images/POKER.png,,,,,,,,,,,,,,,,,,,,,,,,,,,,,,,,,,,,
,,,,,,,,,,,,,,,,,5dcdef4dd30a0e0acb5b6fba,,2022-02-12_13h35.05.408,lexical_decision_task_DD_L6,2021.2.3,Win32,62.81407035,,,,,,,,,,,0.842,1,,,,,,,,,,,,,,z,1,0.842,,,,,,,,0.076822917,-0.389322917,0,0,0,,0,140,140,165,1,TROWN,C,z,z,./images/TROWN.png,,,,,,,,,,,,,,,,,,,,,,,,,,,,,,,,,,,,
,,,,,,,,,,,,,,,,,5dcdef4dd30a0e0acb5b6fba,,2022-02-12_13h35.05.408,lexical_decision_task_DD_L6,2021.2.3,Win32,62.81407035,,,,,,,,,,,19.096,0,,,,,,,,,,,,,,m,0,19.096,,,,,,,,0.076822917,-0.389322917,0,0,0,,0,141,141,101,1,GLEET,LB,z,z,./images/GLEETLB.png,,,,,,,,,,,,,,,,,,,,,,,,,,,,,,,,,,,,
,,,,,,,,,,,,,,,,,5dcdef4dd30a0e0acb5b6fba,,2022-02-12_13h35.05.408,lexical_decision_task_DD_L6,2021.2.3,Win32,62.81407035,,,,,,,,,,,0.798,1,,,,,,,,,,,,,,z,1,0.798,,,,,,,,0.076822917,-0.389322917,0,0,0,,0,142,142,136,1,WERVE,HB,z,z,./images/WERVEHB.png,,,,,,,,,,,,,,,,,,,,,,,,,,,,,,,,,,,,
,,,,,,,,,,,,,,,,,5dcdef4dd30a0e0acb5b6fba,,2022-02-12_13h35.05.408,lexical_decision_task_DD_L6,2021.2.3,Win32,62.81407035,,,,,,,,,,,1.54,1,,,,,,,,,,,,,,z,1,1.54,,,,,,,,0.076822917,-0.389322917,0,0,0,,0,143,143,115,1,MAWNS,HB,z,z,./images/MAWNSHB.png,,,,,,,,,,,,,,,,,,,,,,,,,,,,,,,,,,,,
,,,,,,,,,,,,,,,,,5dcdef4dd30a0e0acb5b6fba,,2022-02-12_13h35.05.408,lexical_decision_task_DD_L6,2021.2.3,Win32,62.81407035,,,,,,,,,,,0.631,1,,,,,,,,,,,,,,z,1,0.631,,,,,,,,0.076822917,-0.389322917,0,0,0,,0,144,144,147,1,ZOLES,C,z,z,./images/ZOLES.png,,,,,,,,,,,,,,,,,,,,,,,,,,,,,,,,,,,,
,,,,,,,,,,,,,,,,,5dcdef4dd30a0e0acb5b6fba,,2022-02-12_13h35.05.408,lexical_decision_task_DD_L6,2021.2.3,Win32,62.81407035,,,,,,,,,,,0.558,1,,,,,,,,,,,,,,m,1,0.558,,,,,,,,0.076822917,-0.389322917,0,0,0,,0,145,145,37,1,TIGER,C,m,m,./images/TIGER.png,,,,,,,,,,,,,,,,,,,,,,,,,,,,,,,,,,,,
,,,,,,,,,,,,,,,,,5dcdef4dd30a0e0acb5b6fba,,2022-02-12_13h35.05.408,lexical_decision_task_DD_L6,2021.2.3,Win32,62.81407035,,,,,,,,,,,0.511,1,,,,,,,,,,,,,,m,1,0.511,,,,,,,,0.076822917,-0.389322917,0,0,0,,0,146,146,16,1,GRAPE,C,m,m,./images/GRAPE.png,,,,,,,,,,,,,,,,,,,,,,,,,,,,,,,,,,,,
,,,,,,,,,,,,,,,,,5dcdef4dd30a0e0acb5b6fba,,2022-02-12_13h35.05.408,lexical_decision_task_DD_L6,2021.2.3,Win32,62.81407035,,,,,,,,,,,0.602,1,,,,,,,,,,,,,,z,1,0.602,,,,,,,,0.076822917,-0.389322917,0,0,0,,0,147,147,92,1,PAIMS,LB,z,z,./images/PAIMSLB.png,,,,,,,,,,,,,,,,,,,,,,,,,,,,,,,,,,,,
,,,,,,,,,,,,,,,,,5dcdef4dd30a0e0acb5b6fba,,2022-02-12_13h35.05.408,lexical_decision_task_DD_L6,2021.2.3,Win32,62.81407035,,,,,,,,,,,0.832,1,,,,,,,,,,,,,,z,1,0.832,,,,,,,,0.076822917,-0.389322917,0,0,0,,0,148,148,163,1,GAMBA,HB,z,z,./images/GAMBAHB.png,,,,,,,,,,,,,,,,,,,,,,,,,,,,,,,,,,,,
,,,,,,,,,,,,,,,,,5dcdef4dd30a0e0acb5b6fba,,2022-02-12_13h35.05.408,lexical_decision_task_DD_L6,2021.2.3,Win32,62.81407035,,,,,,,,,,,0.581,1,,,,,,,,,,,,,,z,1,0.581,,,,,,,,0.076822917,-0.389322917,0,0,0,,0,149,149,135,1,JOODY,C,z,z,./images/JOODY.png,,,,,,,,,,,,,,,,,,,,,,,,,,,,,,,,,,,,
,,,,,,,,,,,,,,,,,5dcdef4dd30a0e0acb5b6fba,,2022-02-12_13h35.05.408,lexical_decision_task_DD_L6,2021.2.3,Win32,62.81407035,,,,,,,,,,,0.521,1,,,,,,,,,,,,,,z,1,0.521,,,,,,,,0.076822917,-0.389322917,0,0,0,,0,150,150,90,1,NEAST,C,z,z,./images/NEAST.png,,,,,,,,,,,,,,,,,,,,,,,,,,,,,,,,,,,,
,,,,,,,,,,,,,,,,,5dcdef4dd30a0e0acb5b6fba,,2022-02-12_13h35.05.408,lexical_decision_task_DD_L6,2021.2.3,Win32,62.81407035,,,,,,,,,,,0.696,1,,,,,,,,,,,,,,z,1,0.696,,,,,,,,0.076822917,-0.389322917,0,0,0,,0,151,151,87,1,TRING,C,z,z,./images/TRING.png,,,,,,,,,,,,,,,,,,,,,,,,,,,,,,,,,,,,
,,,,,,,,,,,,,,,,,5dcdef4dd30a0e0acb5b6fba,,2022-02-12_13h35.05.408,lexical_decision_task_DD_L6,2021.2.3,Win32,62.81407035,,,,,,,,,,,1.285,1,,,,,,,,,,,,,,m,1,1.285,,,,,,,,0.076822917,-0.389322917,0,0,0,,0,152,152,56,1,HEATER,HB,m,m,./images/HEATERHB.png,,,,,,,,,,,,,,,,,,,,,,,,,,,,,,,,,,,,
,,,,,,,,,,,,,,,,,5dcdef4dd30a0e0acb5b6fba,,2022-02-12_13h35.05.408,lexical_decision_task_DD_L6,2021.2.3,Win32,62.81407035,,,,,,,,,,,2.295,0,,,,,,,,,,,,,,m,0,2.295,,,,,,,,0.076822917,-0.389322917,0,0,0,,0,153,153,127,1,NINDY,HB,z,z,./images/NINDYHB.png,,,,,,,,,,,,,,,,,,,,,,,,,,,,,,,,,,,,
,,,,,,,,,,,,,,,,,5dcdef4dd30a0e0acb5b6fba,,2022-02-12_13h35.05.408,lexical_decision_task_DD_L6,2021.2.3,Win32,62.81407035,,,,,,,,,,,22.074,1,,,,,,,,,,,,,,z,1,22.074,,,,,,,,0.076822917,-0.389322917,0,0,0,,0,154,154,112,1,MYING,HB,z,z,./images/MYINGHB.png,,,,,,,,,,,,,,,,,,,,,,,,,,,,,,,,,,,,
,,,,,,,,,,,,,,,,,5dcdef4dd30a0e0acb5b6fba,,2022-02-12_13h35.05.408,lexical_decision_task_DD_L6,2021.2.3,Win32,62.81407035,,,,,,,,,,,0.573,1,,,,,,,,,,,,,,m,1,0.573,,,,,,,,0.076822917,-0.389322917,0,0,0,,0,155,155,31,1,STEAK,C,m,m,./images/STEAK.png,,,,,,,,,,,,,,,,,,,,,,,,,,,,,,,,,,,,
,,,,,,,,,,,,,,,,,5dcdef4dd30a0e0acb5b6fba,,2022-02-12_13h35.05.408,lexical_decision_task_DD_L6,2021.2.3,Win32,62.81407035,,,,,,,,,,,0.651,1,,,,,,,,,,,,,,m,1,0.651,,,,,,,,0.076822917,-0.389322917,0,0,0,,0,156,156,3,1,CRATER,LB,m,m,./images/CRATERLB.png,,,,,,,,,,,,,,,,,,,,,,,,,,,,,,,,,,,,
,,,,,,,,,,,,,,,,,5dcdef4dd30a0e0acb5b6fba,,2022-02-12_13h35.05.408,lexical_decision_task_DD_L6,2021.2.3,Win32,62.81407035,,,,,,,,,,,0.513,1,,,,,,,,,,,,,,m,1,0.513,,,,,,,,0.076822917,-0.389322917,0,0,0,,0,157,157,79,1,RULER,C,m,m,./images/RULER.png,,,,,,,,,,,,,,,,,,,,,,,,,,,,,,,,,,,,
,,,,,,,,,,,,,,,,,5dcdef4dd30a0e0acb5b6fba,,2022-02-12_13h35.05.408,lexical_decision_task_DD_L6,2021.2.3,Win32,62.81407035,,,,,,,,,,,0.76,1,,,,,,,,,,,,,,z,1,0.76,,,,,,,,0.076822917,-0.389322917,0,0,0,,0,158,158,106,1,CLUMS,HB,z,z,./images/CLUMSHB.png,,,,,,,,,,,,,,,,,,,,,,,,,,,,,,,,,,,,
,,,,,,,,,,,,,,,,,5dcdef4dd30a0e0acb5b6fba,,2022-02-12_13h35.05.408,lexical_decision_task_DD_L6,2021.2.3,Win32,62.81407035,,,,,,,,,,,0.783,1,,,,,,,,,,,,,,z,1,0.783,,,,,,,,0.076822917,-0.389322917,0,0,0,,0,159,159,91,1,SHENS,HB,z,z,./images/SHENSHB.png,,,,,,,,,,,,,,,,,,,,,,,,,,,,,,,,,,,,
,,,,,,,,,,,,,,,,,5dcdef4dd30a0e0acb5b6fba,,2022-02-12_13h35.05.408,lexical_decision_task_DD_L6,2021.2.3,Win32,62.81407035,,,,,,,,,,,0.561,1,,,,,,,,,,,,,,z,1,0.561,,,,,,,,0.076822917,-0.389322917,0,0,0,,0,160,160,137,1,JOOST,LB,z,z,./images/JOOSTLB.png,,,,,,,,,,,,,,,,,,,,,,,,,,,,,,,,,,,,
,,,,,,,,,,,,,,,,,5dcdef4dd30a0e0acb5b6fba,,2022-02-12_13h35.05.408,lexical_decision_task_DD_L6,2021.2.3,Win32,62.81407035,,,,,,,,,,,0.649,1,,,,,,,,,,,,,,z,1,0.649,,,,,,,,0.076822917,-0.389322917,0,0,0,,0,161,161,131,1,NACES,LB,z,z,./images/NACESLB.png,,,,,,,,,,,,,,,,,,,,,,,,,,,,,,,,,,,,
,,,,,,,,,,,,,,,,,5dcdef4dd30a0e0acb5b6fba,,2022-02-12_13h35.05.408,lexical_decision_task_DD_L6,2021.2.3,Win32,62.81407035,,,,,,,,,,,2.505,1,,,,,,,,,,,,,,z,1,2.505,,,,,,,,0.076822917,-0.389322917,0,0,0,,0,162,162,157,1,INLER,HB,z,z,./images/INLERHB.png,,,,,,,,,,,,,,,,,,,,,,,,,,,,,,,,,,,,
,,,,,,,,,,,,,,,,,5dcdef4dd30a0e0acb5b6fba,,2022-02-12_13h35.05.408,lexical_decision_task_DD_L6,2021.2.3,Win32,62.81407035,,,,,,,,,,,0.782,1,,,,,,,,,,,,,,z,1,0.782,,,,,,,,0.076822917,-0.389322917,0,0,0,,0,163,163,124,1,TUNCH,HB,z,z,./images/TUNCHHB.png,,,,,,,,,,,,,,,,,,,,,,,,,,,,,,,,,,,,
,,,,,,,,,,,,,,,,,5dcdef4dd30a0e0acb5b6fba,,2022-02-12_13h35.05.408,lexical_decision_task_DD_L6,2021.2.3,Win32,62.81407035,,,,,,,,,,,0.73,1,,,,,,,,,,,,,,m,1,0.73,,,,,,,,0.076822917,-0.389322917,0,0,0,,0,164,164,71,1,BUBBLE,HB,m,m,./images/BUBBLEHB.png,,,,,,,,,,,,,,,,,,,,,,,,,,,,,,,,,,,,
,,,,,,,,,,,,,,,,,5dcdef4dd30a0e0acb5b6fba,,2022-02-12_13h35.05.408,lexical_decision_task_DD_L6,2021.2.3,Win32,62.81407035,,,,,,,,,,,0.623,1,,,,,,,,,,,,,,z,1,0.623,,,,,,,,0.076822917,-0.389322917,0,0,0,,0,165,165,146,1,MOOST,LB,z,z,./images/MOOSTLB.png,,,,,,,,,,,,,,,,,,,,,,,,,,,,,,,,,,,,
,,,,,,,,,,,,,,,,,5dcdef4dd30a0e0acb5b6fba,,2022-02-12_13h35.05.408,lexical_decision_task_DD_L6,2021.2.3,Win32,62.81407035,,,,,,,,,,,0.579,1,,,,,,,,,,,,,,m,1,0.579,,,,,,,,0.076822917,-0.389322917,0,0,0,,0,166,166,36,1,BOILER,LB,m,m,./images/BOILERLB.png,,,,,,,,,,,,,,,,,,,,,,,,,,,,,,,,,,,,
,,,,,,,,,,,,,,,,,5dcdef4dd30a0e0acb5b6fba,,2022-02-12_13h35.05.408,lexical_decision_task_DD_L6,2021.2.3,Win32,62.81407035,,,,,,,,,,,1.374,1,,,,,,,,,,,,,,m,1,1.374,,,,,,,,0.076822917,-0.389322917,0,0,0,,0,167,167,13,1,BUNNY,C,m,m,./images/BUNNY.png,,,,,,,,,,,,,,,,,,,,,,,,,,,,,,,,,,,,
,,,,,,,,,,,,,,,,,5dcdef4dd30a0e0acb5b6fba,,2022-02-12_13h35.05.408,lexical_decision_task_DD_L6,2021.2.3,Win32,62.81407035,,,,,,,,,,,,,,,,,,,,,,,,,,,,,,,,,,,,,,,,,,,,,,,,How likely will it be that you will recognize the words presented clearly on a scale of 0 (not likely) to 100 (most likely)?,,,,,-0.001302083,-0.419270833,1,0,0,jol_adv,6,8.937,0,0,0,0,1,,,,,,,,,,,,,,,,,,,,,,
,,,,,,,,,,,,,,,,,5dcdef4dd30a0e0acb5b6fba,,2022-02-12_13h35.05.408,lexical_decision_task_DD_L6,2021.2.3,Win32,62.81407035,,,,,,,,,,,,,,,,,,,,,,,,,,,,,,,,,,,,,,,,,,,,,,,,How likely will it be that you will recognize the words presented slighly blurred on a scale of 0 (not likely) to 100 (most likely)?,,,,,,,,,,,4,3.968,0,1,1,1,1,,,,,,,,,,,,,,,,,,,,,,
,,,,,,,,,,,,,,,,,5dcdef4dd30a0e0acb5b6fba,,2022-02-12_13h35.05.408,lexical_decision_task_DD_L6,2021.2.3,Win32,62.81407035,,,,,,,,,,,,,,,,,,,,,,,,,,,,,,,,,,,,,,,,,,,,,,,,How likely will it be that you will recognize the words presented very blurred on a scale of 0 (not likely) to 100 (most likely)?,,,,,,,,,,,4,3.682,0,2,2,2,1,,,,,,,,,,,,,,,,,,,,,,
,0.0078125,-0.369791667,1,0,0,instr_done_button,,,,,,1,test,"In the next phase you will be presented with the words from the the first phase. Your job is to decide whether you remember seeing the word or not. If you remember seeing the word press ""old"" or type ""m"". If you do not remember seeing the word press ""new"" or type ""z"". Please press the space bar or click on continue to begin. ",,,5dcdef4dd30a0e0acb5b6fba,,2022-02-12_13h35.05.408,lexical_decision_task_DD_L6,2021.2.3,Win32,62.81407035,,,,,,,,,,,,,,,,,,,,,,,,,,,,,,,,,,,,,,,,,,,,,,,,,,,,,,,,,,,,,,,,,,0,0,0,0,1,,,,,,,,,,,,,,,,,
,0.0078125,-0.40234375,1,0,0,instr_done_button,,,,,,1,test,"In the next phase you will be presented with the words from the the first phase. Your job is to decide whether you remember seeing the word or not. If you remember seeing the word press ""old"" or type ""m"". If you do not remember seeing the word press ""new"" or type ""z"". Please press the space bar or click on continue to begin. ",,,5dcdef4dd30a0e0acb5b6fba,,2022-02-12_13h35.05.408,lexical_decision_task_DD_L6,2021.2.3,Win32,62.81407035,,,,,,,,,,,,,,,,,,,,,,,,,,,,,,,,,,,,,,,,,,,,,,,,,,,,,,,,,,,,,,,,,,1,0,1,0,1,,,,,,,,,,,,,,,,,
,0.010416667,-0.408854167,1,0,0,instr_done_button,,,,,,1,test,"In the next phase you will be presented with the words from the the first phase. Your job is to decide whether you remember seeing the word or not. If you remember seeing the word press ""old"" or type ""m"". If you do not remember seeing the word press ""new"" or type ""z"". Please press the space bar or click on continue to begin. ",,,5dcdef4dd30a0e0acb5b6fba,,2022-02-12_13h35.05.408,lexical_decision_task_DD_L6,2021.2.3,Win32,62.81407035,,,,,,,,,,,,,,,,,,,,,,,,,,,,,,,,,,,,,,,,,,,,,,,,,,,,,,,,,,,,,,,,,,2,0,2,0,1,,,,,,,,,,,,,,,,,
,0.028645833,-0.403645833,1,0,0,instr_done_button,,,,,,1,test,"In the next phase you will be presented with the words from the the first phase. Your job is to decide whether you remember seeing the word or not. If you remember seeing the word press ""old"" or type ""m"". If you do not remember seeing the word press ""new"" or type ""z"". Please press the space bar or click on continue to begin. ",,,5dcdef4dd30a0e0acb5b6fba,,2022-02-12_13h35.05.408,lexical_decision_task_DD_L6,2021.2.3,Win32,62.81407035,,,,,,,,,,,,,,,,,,,,,,,,,,,,,,,,,,,,,,,,,,,,,,,,,,,,,,,,,,,,,,,,,,3,0,3,0,1,,,,,,,,,,,,,,,,,
space,0.20703125,-0.229166667,0,0,0,,,,,,,1,test,"In the next phase you will be presented with the words from the the first phase. Your job is to decide whether you remember seeing the word or not. If you remember seeing the word press ""old"" or type ""m"". If you do not remember seeing the word press ""new"" or type ""z"". Please press the space bar or click on continue to begin. ",,,5dcdef4dd30a0e0acb5b6fba,,2022-02-12_13h35.05.408,lexical_decision_task_DD_L6,2021.2.3,Win32,62.81407035,,,,,,,,,,,,,,,,,,,,,,,,,,,,,,,,,,,,,,,,,,,,,,,,,,,,,,,,,,,,,,,,,,4,0,4,0,1,6.727,,,,,,,,,,,,,,,,
,,,,,,,,,,,,,,,,,5dcdef4dd30a0e0acb5b6fba,,2022-02-12_13h35.05.408,lexical_decision_task_DD_L6,2021.2.3,Win32,62.81407035,,,,,,,,,,,1.439,1,,,,,,,,,,,,,,,,,,,,,,,,0.20703125,-0.229166667,0,0,0,,,,,,,KITTEN,LB,z,y,./images/KITTENLB.png,,,,,,,,,,,,,,,,,,,,,z,1,1.439,,,,,,,,0,0,0,129,1,
,,,,,,,,,,,,,,,,,5dcdef4dd30a0e0acb5b6fba,,2022-02-12_13h35.05.408,lexical_decision_task_DD_L6,2021.2.3,Win32,62.81407035,,,,,,,,,,,1.827,1,,,,,,,,,,,,,,,,,,,,,,,,0.20703125,-0.229166667,0,0,0,,,,,,,STATUE,LB,m,y,./images/STATUELB.png,,,,,,,,,,,,,,,,,,,,,m,1,1.827,,,,,,,,0,1,1,66,1,
,,,,,,,,,,,,,,,,,5dcdef4dd30a0e0acb5b6fba,,2022-02-12_13h35.05.408,lexical_decision_task_DD_L6,2021.2.3,Win32,62.81407035,,,,,,,,,,,1.43,1,,,,,,,,,,,,,,,,,,,,,,,,0.20703125,-0.229166667,0,0,0,,,,,,,VALLEY,HB,m,y,./images/VALLEYHB.png,,,,,,,,,,,,,,,,,,,,,m,1,1.43,,,,,,,,0,2,2,68,1,
,,,,,,,,,,,,,,,,,5dcdef4dd30a0e0acb5b6fba,,2022-02-12_13h35.05.408,lexical_decision_task_DD_L6,2021.2.3,Win32,62.81407035,,,,,,,,,,,1.854,1,,,,,,,,,,,,,,,,,,,,,,,,0.20703125,-0.229166667,0,0,0,,,,,,,CURRY,LB,m,y,./images/CURRYLB.png,,,,,,,,,,,,,,,,,,,,,m,1,1.854,,,,,,,,0,3,3,60,1,
,,,,,,,,,,,,,,,,,5dcdef4dd30a0e0acb5b6fba,,2022-02-12_13h35.05.408,lexical_decision_task_DD_L6,2021.2.3,Win32,62.81407035,,,,,,,,,,,0.764,1,,,,,,,,,,,,,,,,,,,,,,,,0.20703125,-0.229166667,0,0,0,,,,,,,TORCH,HB,z,y,./images/TORCHHB.png,,,,,,,,,,,,,,,,,,,,,z,1,0.764,,,,,,,,0,4,4,152,1,
,,,,,,,,,,,,,,,,,5dcdef4dd30a0e0acb5b6fba,,2022-02-12_13h35.05.408,lexical_decision_task_DD_L6,2021.2.3,Win32,62.81407035,,,,,,,,,,,1.348,0,,,,,,,,,,,,,,,,,,,,,,,,0.20703125,-0.229166667,0,0,0,,,,,,,GREASE,LB,z,y,./images/GREASELB.png,,,,,,,,,,,,,,,,,,,,,m,0,1.348,,,,,,,,0,5,5,99,1,
,,,,,,,,,,,,,,,,,5dcdef4dd30a0e0acb5b6fba,,2022-02-12_13h35.05.408,lexical_decision_task_DD_L6,2021.2.3,Win32,62.81407035,,,,,,,,,,,1.778,1,,,,,,,,,,,,,,,,,,,,,,,,0.20703125,-0.229166667,0,0,0,,,,,,,MUMMY,C,m,y,./images/MUMMY.png,,,,,,,,,,,,,,,,,,,,,m,1,1.778,,,,,,,,0,6,6,46,1,
,,,,,,,,,,,,,,,,,5dcdef4dd30a0e0acb5b6fba,,2022-02-12_13h35.05.408,lexical_decision_task_DD_L6,2021.2.3,Win32,62.81407035,,,,,,,,,,,1.333,1,,,,,,,,,,,,,,,,,,,,,,,,0.20703125,-0.229166667,0,0,0,,,,,,,LIZARD,HB,z,y,./images/LIZARDHB.png,,,,,,,,,,,,,,,,,,,,,z,1,1.333,,,,,,,,0,7,7,128,1,
,,,,,,,,,,,,,,,,,5dcdef4dd30a0e0acb5b6fba,,2022-02-12_13h35.05.408,lexical_decision_task_DD_L6,2021.2.3,Win32,62.81407035,,,,,,,,,,,39.429,1,,,,,,,,,,,,,,,,,,,,,,,,0.20703125,-0.229166667,0,0,0,,,,,,,TIGER,C,m,y,./images/TIGER.png,,,,,,,,,,,,,,,,,,,,,m,1,39.429,,,,,,,,0,8,8,37,1,
,,,,,,,,,,,,,,,,,5dcdef4dd30a0e0acb5b6fba,,2022-02-12_13h35.05.408,lexical_decision_task_DD_L6,2021.2.3,Win32,62.81407035,,,,,,,,,,,1.904,1,,,,,,,,,,,,,,,,,,,,,,,,0.20703125,-0.229166667,0,0,0,,,,,,,BLOKE,LB,m,y,./images/BLOKELB.png,,,,,,,,,,,,,,,,,,,,,m,1,1.904,,,,,,,,0,9,9,12,1,
,,,,,,,,,,,,,,,,,5dcdef4dd30a0e0acb5b6fba,,2022-02-12_13h35.05.408,lexical_decision_task_DD_L6,2021.2.3,Win32,62.81407035,,,,,,,,,,,0.992,1,,,,,,,,,,,,,,,,,,,,,,,,0.20703125,-0.229166667,0,0,0,,,,,,,SUNSET,C,z,y,./images/SUNSET.png,,,,,,,,,,,,,,,,,,,,,z,1,0.992,,,,,,,,0,10,10,166,1,
,,,,,,,,,,,,,,,,,5dcdef4dd30a0e0acb5b6fba,,2022-02-12_13h35.05.408,lexical_decision_task_DD_L6,2021.2.3,Win32,62.81407035,,,,,,,,,,,1.451,0,,,,,,,,,,,,,,,,,,,,,,,,0.20703125,-0.229166667,0,0,0,,,,,,,MOTOR,C,z,y,./images/MOTOR.png,,,,,,,,,,,,,,,,,,,,,m,0,1.451,,,,,,,,0,11,11,97,1,
,,,,,,,,,,,,,,,,,5dcdef4dd30a0e0acb5b6fba,,2022-02-12_13h35.05.408,lexical_decision_task_DD_L6,2021.2.3,Win32,62.81407035,,,,,,,,,,,1.268,1,,,,,,,,,,,,,,,,,,,,,,,,0.20703125,-0.229166667,0,0,0,,,,,,,PLANK,C,z,y,./images/PLANK.png,,,,,,,,,,,,,,,,,,,,,z,1,1.268,,,,,,,,0,12,12,85,1,
,,,,,,,,,,,,,,,,,5dcdef4dd30a0e0acb5b6fba,,2022-02-12_13h35.05.408,lexical_decision_task_DD_L6,2021.2.3,Win32,62.81407035,,,,,,,,,,,1.222,1,,,,,,,,,,,,,,,,,,,,,,,,0.20703125,-0.229166667,0,0,0,,,,,,,STAIN,LB,m,y,./images/STAINLB.png,,,,,,,,,,,,,,,,,,,,,m,1,1.222,,,,,,,,0,13,13,6,1,
,,,,,,,,,,,,,,,,,5dcdef4dd30a0e0acb5b6fba,,2022-02-12_13h35.05.408,lexical_decision_task_DD_L6,2021.2.3,Win32,62.81407035,,,,,,,,,,,1.326,1,,,,,,,,,,,,,,,,,,,,,,,,0.20703125,-0.229166667,0,0,0,,,,,,,BRUSH,HB,m,y,./images/BRUSHHB.png,,,,,,,,,,,,,,,,,,,,,m,1,1.326,,,,,,,,0,14,14,59,1,
,,,,,,,,,,,,,,,,,5dcdef4dd30a0e0acb5b6fba,,2022-02-12_13h35.05.408,lexical_decision_task_DD_L6,2021.2.3,Win32,62.81407035,,,,,,,,,,,1.71,0,,,,,,,,,,,,,,,,,,,,,,,,0.20703125,-0.229166667,0,0,0,,,,,,,BONNET,HB,z,y,./images/BONNETHB.png,,,,,,,,,,,,,,,,,,,,,m,0,1.71,,,,,,,,0,15,15,95,1,
,,,,,,,,,,,,,,,,,5dcdef4dd30a0e0acb5b6fba,,2022-02-12_13h35.05.408,lexical_decision_task_DD_L6,2021.2.3,Win32,62.81407035,,,,,,,,,,,0.997,1,,,,,,,,,,,,,,,,,,,,,,,,0.20703125,-0.229166667,0,0,0,,,,,,,CLOWN,C,m,y,./images/CLOWN.png,,,,,,,,,,,,,,,,,,,,,m,1,0.997,,,,,,,,0,16,16,22,1,
,,,,,,,,,,,,,,,,,5dcdef4dd30a0e0acb5b6fba,,2022-02-12_13h35.05.408,lexical_decision_task_DD_L6,2021.2.3,Win32,62.81407035,,,,,,,,,,,1.061,0,,,,,,,,,,,,,,,,,,,,,,,,0.20703125,-0.229166667,0,0,0,,,,,,,MIRROR,LB,z,y,./images/MIRRORLB.png,,,,,,,,,,,,,,,,,,,,,m,0,1.061,,,,,,,,0,17,17,147,1,
,,,,,,,,,,,,,,,,,5dcdef4dd30a0e0acb5b6fba,,2022-02-12_13h35.05.408,lexical_decision_task_DD_L6,2021.2.3,Win32,62.81407035,,,,,,,,,,,1.654,1,,,,,,,,,,,,,,,,,,,,,,,,0.20703125,-0.229166667,0,0,0,,,,,,,PIMPLE,HB,z,y,./images/PIMPLEHB.png,,,,,,,,,,,,,,,,,,,,,z,1,1.654,,,,,,,,0,18,18,155,1,
,,,,,,,,,,,,,,,,,5dcdef4dd30a0e0acb5b6fba,,2022-02-12_13h35.05.408,lexical_decision_task_DD_L6,2021.2.3,Win32,62.81407035,,,,,,,,,,,0.869,1,,,,,,,,,,,,,,,,,,,,,,,,0.20703125,-0.229166667,0,0,0,,,,,,,BAMBOO,HB,m,y,./images/BAMBOOHB.png,,,,,,,,,,,,,,,,,,,,,m,1,0.869,,,,,,,,0,19,19,5,1,
,,,,,,,,,,,,,,,,,5dcdef4dd30a0e0acb5b6fba,,2022-02-12_13h35.05.408,lexical_decision_task_DD_L6,2021.2.3,Win32,62.81407035,,,,,,,,,,,1.253,0,,,,,,,,,,,,,,,,,,,,,,,,0.20703125,-0.229166667,0,0,0,,,,,,,PENCE,C,z,y,./images/PENCE.png,,,,,,,,,,,,,,,,,,,,,m,0,1.253,,,,,,,,0,20,20,100,1,
,,,,,,,,,,,,,,,,,5dcdef4dd30a0e0acb5b6fba,,2022-02-12_13h35.05.408,lexical_decision_task_DD_L6,2021.2.3,Win32,62.81407035,,,,,,,,,,,1.351,1,,,,,,,,,,,,,,,,,,,,,,,,0.20703125,-0.229166667,0,0,0,,,,,,,INFANT,C,z,y,./images/INFANT.png,,,,,,,,,,,,,,,,,,,,,z,1,1.351,,,,,,,,0,21,21,160,1,
,,,,,,,,,,,,,,,,,5dcdef4dd30a0e0acb5b6fba,,2022-02-12_13h35.05.408,lexical_decision_task_DD_L6,2021.2.3,Win32,62.81407035,,,,,,,,,,,2.262,1,,,,,,,,,,,,,,,,,,,,,,,,0.20703125,-0.229166667,0,0,0,,,,,,,CANOE,C,m,y,./images/CANOE.png,,,,,,,,,,,,,,,,,,,,,m,1,2.262,,,,,,,,0,22,22,58,1,
,,,,,,,,,,,,,,,,,5dcdef4dd30a0e0acb5b6fba,,2022-02-12_13h35.05.408,lexical_decision_task_DD_L6,2021.2.3,Win32,62.81407035,,,,,,,,,,,1.475,1,,,,,,,,,,,,,,,,,,,,,,,,0.20703125,-0.229166667,0,0,0,,,,,,,LAGOON,HB,m,y,./images/LAGOONHB.png,,,,,,,,,,,,,,,,,,,,,m,1,1.475,,,,,,,,0,23,23,47,1,
,,,,,,,,,,,,,,,,,5dcdef4dd30a0e0acb5b6fba,,2022-02-12_13h35.05.408,lexical_decision_task_DD_L6,2021.2.3,Win32,62.81407035,,,,,,,,,,,1.153,1,,,,,,,,,,,,,,,,,,,,,,,,0.20703125,-0.229166667,0,0,0,,,,,,,BUNNY,C,m,y,./images/BUNNY.png,,,,,,,,,,,,,,,,,,,,,m,1,1.153,,,,,,,,0,24,24,13,1,
,,,,,,,,,,,,,,,,,5dcdef4dd30a0e0acb5b6fba,,2022-02-12_13h35.05.408,lexical_decision_task_DD_L6,2021.2.3,Win32,62.81407035,,,,,,,,,,,2.039,0,,,,,,,,,,,,,,,,,,,,,,,,0.20703125,-0.229166667,0,0,0,,,,,,,PEARL,C,z,y,./images/PEARL.png,,,,,,,,,,,,,,,,,,,,,m,0,2.039,,,,,,,,0,25,25,130,1,
,,,,,,,,,,,,,,,,,5dcdef4dd30a0e0acb5b6fba,,2022-02-12_13h35.05.408,lexical_decision_task_DD_L6,2021.2.3,Win32,62.81407035,,,,,,,,,,,10.992,1,,,,,,,,,,,,,,,,,,,,,,,,0.20703125,-0.229166667,0,0,0,,,,,,,ARROW,LB,m,y,./images/ARROWLB.png,,,,,,,,,,,,,,,,,,,,,m,1,10.992,,,,,,,,0,26,26,69,1,
,,,,,,,,,,,,,,,,,5dcdef4dd30a0e0acb5b6fba,,2022-02-12_13h35.05.408,lexical_decision_task_DD_L6,2021.2.3,Win32,62.81407035,,,,,,,,,,,1.204,1,,,,,,,,,,,,,,,,,,,,,,,,0.20703125,-0.229166667,0,0,0,,,,,,,POSTER,HB,m,y,./images/POSTERHB.png,,,,,,,,,,,,,,,,,,,,,m,1,1.204,,,,,,,,0,27,27,53,1,
,,,,,,,,,,,,,,,,,5dcdef4dd30a0e0acb5b6fba,,2022-02-12_13h35.05.408,lexical_decision_task_DD_L6,2021.2.3,Win32,62.81407035,,,,,,,,,,,0.855,0,,,,,,,,,,,,,,,,,,,,,,,,0.20703125,-0.229166667,0,0,0,,,,,,,DONKEY,C,m,y,./images/DONKEY.png,,,,,,,,,,,,,,,,,,,,,z,0,0.855,,,,,,,,0,28,28,19,1,
,,,,,,,,,,,,,,,,,5dcdef4dd30a0e0acb5b6fba,,2022-02-12_13h35.05.408,lexical_decision_task_DD_L6,2021.2.3,Win32,62.81407035,,,,,,,,,,,1.203,1,,,,,,,,,,,,,,,,,,,,,,,,0.20703125,-0.229166667,0,0,0,,,,,,,DRUMS,C,z,y,./images/DRUMS.png,,,,,,,,,,,,,,,,,,,,,z,1,1.203,,,,,,,,0,29,29,133,1,
,,,,,,,,,,,,,,,,,5dcdef4dd30a0e0acb5b6fba,,2022-02-12_13h35.05.408,lexical_decision_task_DD_L6,2021.2.3,Win32,62.81407035,,,,,,,,,,,0.861,0,,,,,,,,,,,,,,,,,,,,,,,,0.20703125,-0.229166667,0,0,0,,,,,,,ARTIST,C,m,y,./images/ARTIST.png,,,,,,,,,,,,,,,,,,,,,z,0,0.861,,,,,,,,0,30,30,61,1,
,,,,,,,,,,,,,,,,,5dcdef4dd30a0e0acb5b6fba,,2022-02-12_13h35.05.408,lexical_decision_task_DD_L6,2021.2.3,Win32,62.81407035,,,,,,,,,,,1.083,1,,,,,,,,,,,,,,,,,,,,,,,,0.20703125,-0.229166667,0,0,0,,,,,,,FERRY,LB,m,y,./images/FERRYLB.png,,,,,,,,,,,,,,,,,,,,,m,1,1.083,,,,,,,,0,31,31,57,1,
,,,,,,,,,,,,,,,,,5dcdef4dd30a0e0acb5b6fba,,2022-02-12_13h35.05.408,lexical_decision_task_DD_L6,2021.2.3,Win32,62.81407035,,,,,,,,,,,1.122,1,,,,,,,,,,,,,,,,,,,,,,,,0.20703125,-0.229166667,0,0,0,,,,,,,WRIST,C,z,y,./images/WRIST.png,,,,,,,,,,,,,,,,,,,,,z,1,1.122,,,,,,,,0,32,32,109,1,
,,,,,,,,,,,,,,,,,5dcdef4dd30a0e0acb5b6fba,,2022-02-12_13h35.05.408,lexical_decision_task_DD_L6,2021.2.3,Win32,62.81407035,,,,,,,,,,,1.276,1,,,,,,,,,,,,,,,,,,,,,,,,0.20703125,-0.229166667,0,0,0,,,,,,,BOILER,LB,m,y,./images/BOILERLB.png,,,,,,,,,,,,,,,,,,,,,m,1,1.276,,,,,,,,0,33,33,36,1,
,,,,,,,,,,,,,,,,,5dcdef4dd30a0e0acb5b6fba,,2022-02-12_13h35.05.408,lexical_decision_task_DD_L6,2021.2.3,Win32,62.81407035,,,,,,,,,,,1.809,1,,,,,,,,,,,,,,,,,,,,,,,,0.20703125,-0.229166667,0,0,0,,,,,,,SAILOR,C,z,y,./images/SAILOR.png,,,,,,,,,,,,,,,,,,,,,z,1,1.809,,,,,,,,0,34,34,151,1,
,,,,,,,,,,,,,,,,,5dcdef4dd30a0e0acb5b6fba,,2022-02-12_13h35.05.408,lexical_decision_task_DD_L6,2021.2.3,Win32,62.81407035,,,,,,,,,,,3.035,1,,,,,,,,,,,,,,,,,,,,,,,,0.20703125,-0.229166667,0,0,0,,,,,,,CRUST,C,z,y,./images/CRUST.png,,,,,,,,,,,,,,,,,,,,,z,1,3.035,,,,,,,,0,35,35,163,1,
,,,,,,,,,,,,,,,,,5dcdef4dd30a0e0acb5b6fba,,2022-02-12_13h35.05.408,lexical_decision_task_DD_L6,2021.2.3,Win32,62.81407035,,,,,,,,,,,0.995,0,,,,,,,,,,,,,,,,,,,,,,,,0.20703125,-0.229166667,0,0,0,,,,,,,CASINO,C,m,y,./images/CASINO.png,,,,,,,,,,,,,,,,,,,,,z,0,0.995,,,,,,,,0,36,36,28,1,
,,,,,,,,,,,,,,,,,5dcdef4dd30a0e0acb5b6fba,,2022-02-12_13h35.05.408,lexical_decision_task_DD_L6,2021.2.3,Win32,62.81407035,,,,,,,,,,,1.318,0,,,,,,,,,,,,,,,,,,,,,,,,0.20703125,-0.229166667,0,0,0,,,,,,,FENCE,HB,m,y,./images/FENCEHB.png,,,,,,,,,,,,,,,,,,,,,z,0,1.318,,,,,,,,0,37,37,14,1,
,,,,,,,,,,,,,,,,,5dcdef4dd30a0e0acb5b6fba,,2022-02-12_13h35.05.408,lexical_decision_task_DD_L6,2021.2.3,Win32,62.81407035,,,,,,,,,,,13.148,0,,,,,,,,,,,,,,,,,,,,,,,,0.20703125,-0.229166667,0,0,0,,,,,,,RHINO,LB,z,y,./images/RHINOLB.png,,,,,,,,,,,,,,,,,,,,,m,0,13.148,,,,,,,,0,38,38,93,1,
,,,,,,,,,,,,,,,,,5dcdef4dd30a0e0acb5b6fba,,2022-02-12_13h35.05.408,lexical_decision_task_DD_L6,2021.2.3,Win32,62.81407035,,,,,,,,,,,0.991,0,,,,,,,,,,,,,,,,,,,,,,,,0.20703125,-0.229166667,0,0,0,,,,,,,STORM,LB,z,y,./images/STORMLB.png,,,,,,,,,,,,,,,,,,,,,m,0,0.991,,,,,,,,0,39,39,114,1,
,,,,,,,,,,,,,,,,,5dcdef4dd30a0e0acb5b6fba,,2022-02-12_13h35.05.408,lexical_decision_task_DD_L6,2021.2.3,Win32,62.81407035,,,,,,,,,,,1.374,1,,,,,,,,,,,,,,,,,,,,,,,,0.20703125,-0.229166667,0,0,0,,,,,,,BRIDE,C,m,y,./images/BRIDE.png,,,,,,,,,,,,,,,,,,,,,m,1,1.374,,,,,,,,0,40,40,64,1,
,,,,,,,,,,,,,,,,,5dcdef4dd30a0e0acb5b6fba,,2022-02-12_13h35.05.408,lexical_decision_task_DD_L6,2021.2.3,Win32,62.81407035,,,,,,,,,,,0.748,1,,,,,,,,,,,,,,,,,,,,,,,,0.20703125,-0.229166667,0,0,0,space,,,,,,GARDEN,C,m,y,./images/GARDEN.png,,,,,,,,,,,,,,,,,,,,,m,1,0.748,,,,,,,,0,41,41,10,1,3.17
,,,,,,,,,,,,,,,,,5dcdef4dd30a0e0acb5b6fba,,2022-02-12_13h35.05.408,lexical_decision_task_DD_L6,2021.2.3,Win32,62.81407035,,,,,,,,,,,1.575,1,,,,,,,,,,,,,,,,,,,,,,,,0.20703125,-0.229166667,0,0,0,,,,,,,MOOSE,LB,z,y,./images/MOOSELB.png,,,,,,,,,,,,,,,,,,,,,z,1,1.575,,,,,,,,0,42,42,141,1,
,,,,,,,,,,,,,,,,,5dcdef4dd30a0e0acb5b6fba,,2022-02-12_13h35.05.408,lexical_decision_task_DD_L6,2021.2.3,Win32,62.81407035,,,,,,,,,,,0.768,1,,,,,,,,,,,,,,,,,,,,,,,,0.20703125,-0.229166667,0,0,0,,,,,,,SHELF,LB,z,y,./images/SHELFLB.png,,,,,,,,,,,,,,,,,,,,,z,1,0.768,,,,,,,,0,43,43,123,1,
,,,,,,,,,,,,,,,,,5dcdef4dd30a0e0acb5b6fba,,2022-02-12_13h35.05.408,lexical_decision_task_DD_L6,2021.2.3,Win32,62.81407035,,,,,,,,,,,0.606,1,,,,,,,,,,,,,,,,,,,,,,,,0.20703125,-0.229166667,0,0,0,,,,,,,BIRTH,C,z,y,./images/BIRTH.png,,,,,,,,,,,,,,,,,,,,,z,1,0.606,,,,,,,,0,44,44,121,1,
,,,,,,,,,,,,,,,,,5dcdef4dd30a0e0acb5b6fba,,2022-02-12_13h35.05.408,lexical_decision_task_DD_L6,2021.2.3,Win32,62.81407035,,,,,,,,,,,0.757,1,,,,,,,,,,,,,,,,,,,,,,,,0.20703125,-0.229166667,0,0,0,,,,,,,WALRUS,HB,z,y,./images/WALRUSHB.png,,,,,,,,,,,,,,,,,,,,,z,1,0.757,,,,,,,,0,45,45,107,1,
,,,,,,,,,,,,,,,,,5dcdef4dd30a0e0acb5b6fba,,2022-02-12_13h35.05.408,lexical_decision_task_DD_L6,2021.2.3,Win32,62.81407035,,,,,,,,,,,0.735,1,,,,,,,,,,,,,,,,,,,,,,,,0.20703125,-0.229166667,0,0,0,,,,,,,SHIELD,LB,m,y,./images/SHIELDLB.png,,,,,,,,,,,,,,,,,,,,,m,1,0.735,,,,,,,,0,46,46,48,1,
,,,,,,,,,,,,,,,,,5dcdef4dd30a0e0acb5b6fba,,2022-02-12_13h35.05.408,lexical_decision_task_DD_L6,2021.2.3,Win32,62.81407035,,,,,,,,,,,1.168,1,,,,,,,,,,,,,,,,,,,,,,,,0.20703125,-0.229166667,0,0,0,,,,,,,DIVER,LB,m,y,./images/DIVERLB.png,,,,,,,,,,,,,,,,,,,,,m,1,1.168,,,,,,,,0,47,47,9,1,
,,,,,,,,,,,,,,,,,5dcdef4dd30a0e0acb5b6fba,,2022-02-12_13h35.05.408,lexical_decision_task_DD_L6,2021.2.3,Win32,62.81407035,,,,,,,,,,,3.076,1,,,,,,,,,,,,,,,,,,,,,,,,0.20703125,-0.229166667,0,0,0,,,,,,,CHAIN,LB,m,y,./images/CHAINLB.png,,,,,,,,,,,,,,,,,,,,,m,1,3.076,,,,,,,,0,48,48,42,1,
,,,,,,,,,,,,,,,,,5dcdef4dd30a0e0acb5b6fba,,2022-02-12_13h35.05.408,lexical_decision_task_DD_L6,2021.2.3,Win32,62.81407035,,,,,,,,,,,1.47,1,,,,,,,,,,,,,,,,,,,,,,,,0.20703125,-0.229166667,0,0,0,,,,,,,THROAT,LB,z,y,./images/THROATLB.png,,,,,,,,,,,,,,,,,,,,,z,1,1.47,,,,,,,,0,49,49,120,1,
,,,,,,,,,,,,,,,,,5dcdef4dd30a0e0acb5b6fba,,2022-02-12_13h35.05.408,lexical_decision_task_DD_L6,2021.2.3,Win32,62.81407035,,,,,,,,,,,0.802,1,,,,,,,,,,,,,,,,,,,,,,,,0.20703125,-0.229166667,0,0,0,,,,,,,SMOKER,HB,z,y,./images/SMOKERHB.png,,,,,,,,,,,,,,,,,,,,,z,1,0.802,,,,,,,,0,50,50,110,1,
,,,,,,,,,,,,,,,,,5dcdef4dd30a0e0acb5b6fba,,2022-02-12_13h35.05.408,lexical_decision_task_DD_L6,2021.2.3,Win32,62.81407035,,,,,,,,,,,0.868,1,,,,,,,,,,,,,,,,,,,,,,,,0.20703125,-0.229166667,0,0,0,,,,,,,KIDNEY,LB,z,y,./images/KIDNEYLB.png,,,,,,,,,,,,,,,,,,,,,z,1,0.868,,,,,,,,0,51,51,105,1,
,,,,,,,,,,,,,,,,,5dcdef4dd30a0e0acb5b6fba,,2022-02-12_13h35.05.408,lexical_decision_task_DD_L6,2021.2.3,Win32,62.81407035,,,,,,,,,,,3.497,0,,,,,,,,,,,,,,,,,,,,,,,,0.20703125,-0.229166667,0,0,0,,,,,,,GLOVE,C,m,y,./images/GLOVE.png,,,,,,,,,,,,,,,,,,,,,z,0,3.497,,,,,,,,0,52,52,73,1,
,,,,,,,,,,,,,,,,,5dcdef4dd30a0e0acb5b6fba,,2022-02-12_13h35.05.408,lexical_decision_task_DD_L6,2021.2.3,Win32,62.81407035,,,,,,,,,,,2.865,1,,,,,,,,,,,,,,,,,,,,,,,,0.20703125,-0.229166667,0,0,0,,,,,,,MAGGOT,LB,z,y,./images/MAGGOTLB.png,,,,,,,,,,,,,,,,,,,,,z,1,2.865,,,,,,,,0,53,53,117,1,
,,,,,,,,,,,,,,,,,5dcdef4dd30a0e0acb5b6fba,,2022-02-12_13h35.05.408,lexical_decision_task_DD_L6,2021.2.3,Win32,62.81407035,,,,,,,,,,,1.124,1,,,,,,,,,,,,,,,,,,,,,,,,0.20703125,-0.229166667,0,0,0,,,,,,,DRILL,LB,m,y,./images/DRILLLB.png,,,,,,,,,,,,,,,,,,,,,m,1,1.124,,,,,,,,0,54,54,81,1,
,,,,,,,,,,,,,,,,,5dcdef4dd30a0e0acb5b6fba,,2022-02-12_13h35.05.408,lexical_decision_task_DD_L6,2021.2.3,Win32,62.81407035,,,,,,,,,,,15.413,1,,,,,,,,,,,,,,,,,,,,,,,,0.20703125,-0.229166667,0,0,0,,,,,,,TULIP,HB,z,y,./images/TULIPHB.png,,,,,,,,,,,,,,,,,,,,,z,1,15.413,,,,,,,,0,55,55,92,1,
,,,,,,,,,,,,,,,,,5dcdef4dd30a0e0acb5b6fba,,2022-02-12_13h35.05.408,lexical_decision_task_DD_L6,2021.2.3,Win32,62.81407035,,,,,,,,,,,1.027,1,,,,,,,,,,,,,,,,,,,,,,,,0.20703125,-0.229166667,0,0,0,,,,,,,BROOM,LB,m,y,./images/BROOMLB.png,,,,,,,,,,,,,,,,,,,,,m,1,1.027,,,,,,,,0,56,56,78,1,
,,,,,,,,,,,,,,,,,5dcdef4dd30a0e0acb5b6fba,,2022-02-12_13h35.05.408,lexical_decision_task_DD_L6,2021.2.3,Win32,62.81407035,,,,,,,,,,,0.797,1,,,,,,,,,,,,,,,,,,,,,,,,0.20703125,-0.229166667,0,0,0,,,,,,,STREAM,HB,m,y,./images/STREAMHB.png,,,,,,,,,,,,,,,,,,,,,m,1,0.797,,,,,,,,0,57,57,41,1,
,,,,,,,,,,,,,,,,,5dcdef4dd30a0e0acb5b6fba,,2022-02-12_13h35.05.408,lexical_decision_task_DD_L6,2021.2.3,Win32,62.81407035,,,,,,,,,,,1.263,1,,,,,,,,,,,,,,,,,,,,,,,,0.20703125,-0.229166667,0,0,0,,,,,,,WEASEL,HB,z,y,./images/WEASELHB.png,,,,,,,,,,,,,,,,,,,,,z,1,1.263,,,,,,,,0,58,58,164,1,
,,,,,,,,,,,,,,,,,5dcdef4dd30a0e0acb5b6fba,,2022-02-12_13h35.05.408,lexical_decision_task_DD_L6,2021.2.3,Win32,62.81407035,,,,,,,,,,,0.96,0,,,,,,,,,,,,,,,,,,,,,,,,0.20703125,-0.229166667,0,0,0,,,,,,,COLLAR,LB,m,y,./images/COLLARLB.png,,,,,,,,,,,,,,,,,,,,,z,0,0.96,,,,,,,,0,59,59,15,1,
,,,,,,,,,,,,,,,,,5dcdef4dd30a0e0acb5b6fba,,2022-02-12_13h35.05.408,lexical_decision_task_DD_L6,2021.2.3,Win32,62.81407035,,,,,,,,,,,0.896,1,,,,,,,,,,,,,,,,,,,,,,,,0.20703125,-0.229166667,0,0,0,,,,,,,SWEAT,LB,z,y,./images/SWEATLB.png,,,,,,,,,,,,,,,,,,,,,z,1,0.896,,,,,,,,0,60,60,150,1,
,,,,,,,,,,,,,,,,,5dcdef4dd30a0e0acb5b6fba,,2022-02-12_13h35.05.408,lexical_decision_task_DD_L6,2021.2.3,Win32,62.81407035,,,,,,,,,,,0.949,1,,,,,,,,,,,,,,,,,,,,,,,,0.20703125,-0.229166667,0,0,0,,,,,,,SWING,C,z,y,./images/SWING.png,,,,,,,,,,,,,,,,,,,,,z,1,0.949,,,,,,,,0,61,61,124,1,
,,,,,,,,,,,,,,,,,5dcdef4dd30a0e0acb5b6fba,,2022-02-12_13h35.05.408,lexical_decision_task_DD_L6,2021.2.3,Win32,62.81407035,,,,,,,,,,,0.64,1,,,,,,,,,,,,,,,,,,,,,,,,0.20703125,-0.229166667,0,0,0,,,,,,,SKIING,HB,z,y,./images/SKIINGHB.png,,,,,,,,,,,,,,,,,,,,,z,1,0.64,,,,,,,,0,62,62,101,1,
,,,,,,,,,,,,,,,,,5dcdef4dd30a0e0acb5b6fba,,2022-02-12_13h35.05.408,lexical_decision_task_DD_L6,2021.2.3,Win32,62.81407035,,,,,,,,,,,8.082,0,,,,,,,,,,,,,,,,,,,,,,,,0.20703125,-0.229166667,0,0,0,,,,,,,MOSQUE,C,z,y,./images/MOSQUE.png,,,,,,,,,,,,,,,,,,,,,m,0,8.082,,,,,,,,0,63,63,127,1,
,,,,,,,,,,,,,,,,,5dcdef4dd30a0e0acb5b6fba,,2022-02-12_13h35.05.408,lexical_decision_task_DD_L6,2021.2.3,Win32,62.81407035,,,,,,,,,,,1.116,0,,,,,,,,,,,,,,,,,,,,,,,,0.20703125,-0.229166667,0,0,0,,,,,,,MUFFIN,C,z,y,./images/MUFFIN.png,,,,,,,,,,,,,,,,,,,,,m,0,1.116,,,,,,,,0,64,64,139,1,
,,,,,,,,,,,,,,,,,5dcdef4dd30a0e0acb5b6fba,,2022-02-12_13h35.05.408,lexical_decision_task_DD_L6,2021.2.3,Win32,62.81407035,,,,,,,,,,,1.355,1,,,,,,,,,,,,,,,,,,,,,,,,0.20703125,-0.229166667,0,0,0,,,,,,,CLIFF,HB,m,y,./images/CLIFFHB.png,,,,,,,,,,,,,,,,,,,,,m,1,1.355,,,,,,,,0,65,65,8,1,
,,,,,,,,,,,,,,,,,5dcdef4dd30a0e0acb5b6fba,,2022-02-12_13h35.05.408,lexical_decision_task_DD_L6,2021.2.3,Win32,62.81407035,,,,,,,,,,,0.872,1,,,,,,,,,,,,,,,,,,,,,,,,0.20703125,-0.229166667,0,0,0,,,,,,,WHISKY,HB,m,y,./images/WHISKYHB.png,,,,,,,,,,,,,,,,,,,,,m,1,0.872,,,,,,,,0,66,66,83,1,
,,,,,,,,,,,,,,,,,5dcdef4dd30a0e0acb5b6fba,,2022-02-12_13h35.05.408,lexical_decision_task_DD_L6,2021.2.3,Win32,62.81407035,,,,,,,,,,,9.734,1,,,,,,,,,,,,,,,,,,,,,,,,0.20703125,-0.229166667,0,0,0,,,,,,,CLOTH,HB,m,y,./images/CLOTHHB.png,,,,,,,,,,,,,,,,,,,,,m,1,9.734,,,,,,,,0,67,67,23,1,
,,,,,,,,,,,,,,,,,5dcdef4dd30a0e0acb5b6fba,,2022-02-12_13h35.05.408,lexical_decision_task_DD_L6,2021.2.3,Win32,62.81407035,,,,,,,,,,,0.854,0,,,,,,,,,,,,,,,,,,,,,,,,0.20703125,-0.229166667,0,0,0,,,,,,,PISTOL,HB,m,y,./images/PISTOLHB.png,,,,,,,,,,,,,,,,,,,,,z,0,0.854,,,,,,,,0,68,68,29,1,
,,,,,,,,,,,,,,,,,5dcdef4dd30a0e0acb5b6fba,,2022-02-12_13h35.05.408,lexical_decision_task_DD_L6,2021.2.3,Win32,62.81407035,,,,,,,,,,,0.989,1,,,,,,,,,,,,,,,,,,,,,,,,0.20703125,-0.229166667,0,0,0,,,,,,,FALCON,C,z,y,./images/FALCON.png,,,,,,,,,,,,,,,,,,,,,z,1,0.989,,,,,,,,0,69,69,112,1,
,,,,,,,,,,,,,,,,,5dcdef4dd30a0e0acb5b6fba,,2022-02-12_13h35.05.408,lexical_decision_task_DD_L6,2021.2.3,Win32,62.81407035,,,,,,,,,,,2.257,1,,,,,,,,,,,,,,,,,,,,,,,,0.20703125,-0.229166667,0,0,0,,,,,,,RULER,C,m,y,./images/RULER.png,,,,,,,,,,,,,,,,,,,,,m,1,2.257,,,,,,,,0,70,70,79,1,
,,,,,,,,,,,,,,,,,5dcdef4dd30a0e0acb5b6fba,,2022-02-12_13h35.05.408,lexical_decision_task_DD_L6,2021.2.3,Win32,62.81407035,,,,,,,,,,,0.897,1,,,,,,,,,,,,,,,,,,,,,,,,0.20703125,-0.229166667,0,0,0,,,,,,,BUBBLE,HB,m,y,./images/BUBBLEHB.png,,,,,,,,,,,,,,,,,,,,,m,1,0.897,,,,,,,,0,71,71,71,1,
,,,,,,,,,,,,,,,,,5dcdef4dd30a0e0acb5b6fba,,2022-02-12_13h35.05.408,lexical_decision_task_DD_L6,2021.2.3,Win32,62.81407035,,,,,,,,,,,12.213,1,,,,,,,,,,,,,,,,,,,,,,,,0.20703125,-0.229166667,0,0,0,,,,,,,PARCEL,LB,m,y,./images/PARCELLB.png,,,,,,,,,,,,,,,,,,,,,m,1,12.213,,,,,,,,0,72,72,18,1,
,,,,,,,,,,,,,,,,,5dcdef4dd30a0e0acb5b6fba,,2022-02-12_13h35.05.408,lexical_decision_task_DD_L6,2021.2.3,Win32,62.81407035,,,,,,,,,,,1.693,0,,,,,,,,,,,,,,,,,,,,,,,,0.20703125,-0.229166667,0,0,0,,,,,,,CRADLE,HB,z,y,./images/CRADLEHB.png,,,,,,,,,,,,,,,,,,,,,m,0,1.693,,,,,,,,0,73,73,104,1,
,,,,,,,,,,,,,,,,,5dcdef4dd30a0e0acb5b6fba,,2022-02-12_13h35.05.408,lexical_decision_task_DD_L6,2021.2.3,Win32,62.81407035,,,,,,,,,,,0.923,1,,,,,,,,,,,,,,,,,,,,,,,,0.20703125,-0.229166667,0,0,0,,,,,,,BURIAL,HB,z,y,./images/BURIALHB.png,,,,,,,,,,,,,,,,,,,,,z,1,0.923,,,,,,,,0,74,74,143,1,
,,,,,,,,,,,,,,,,,5dcdef4dd30a0e0acb5b6fba,,2022-02-12_13h35.05.408,lexical_decision_task_DD_L6,2021.2.3,Win32,62.81407035,,,,,,,,,,,0.853,1,,,,,,,,,,,,,,,,,,,,,,,,0.20703125,-0.229166667,0,0,0,,,,,,,PAINT,C,z,y,./images/PAINT.png,,,,,,,,,,,,,,,,,,,,,z,1,0.853,,,,,,,,0,75,75,91,1,
,,,,,,,,,,,,,,,,,5dcdef4dd30a0e0acb5b6fba,,2022-02-12_13h35.05.408,lexical_decision_task_DD_L6,2021.2.3,Win32,62.81407035,,,,,,,,,,,1.701,1,,,,,,,,,,,,,,,,,,,,,,,,0.20703125,-0.229166667,0,0,0,,,,,,,CANDLE,C,z,y,./images/CANDLE.png,,,,,,,,,,,,,,,,,,,,,z,1,1.701,,,,,,,,0,76,76,145,1,
,,,,,,,,,,,,,,,,,5dcdef4dd30a0e0acb5b6fba,,2022-02-12_13h35.05.408,lexical_decision_task_DD_L6,2021.2.3,Win32,62.81407035,,,,,,,,,,,2.345,1,,,,,,,,,,,,,,,,,,,,,,,,0.20703125,-0.229166667,0,0,0,,,,,,,DESERT,C,m,y,./images/DESERT.png,,,,,,,,,,,,,,,,,,,,,m,1,2.345,,,,,,,,0,77,77,52,1,
,,,,,,,,,,,,,,,,,5dcdef4dd30a0e0acb5b6fba,,2022-02-12_13h35.05.408,lexical_decision_task_DD_L6,2021.2.3,Win32,62.81407035,,,,,,,,,,,0.806,0,,,,,,,,,,,,,,,,,,,,,,,,0.20703125,-0.229166667,0,0,0,,,,,,,NOOSE,LB,z,y,./images/NOOSELB.png,,,,,,,,,,,,,,,,,,,,,m,0,0.806,,,,,,,,0,78,78,156,1,
,,,,,,,,,,,,,,,,,5dcdef4dd30a0e0acb5b6fba,,2022-02-12_13h35.05.408,lexical_decision_task_DD_L6,2021.2.3,Win32,62.81407035,,,,,,,,,,,8.368,1,,,,,,,,,,,,,,,,,,,,,,,,0.20703125,-0.229166667,0,0,0,,,,,,,GRAPE,C,m,y,./images/GRAPE.png,,,,,,,,,,,,,,,,,,,,,m,1,8.368,,,,,,,,0,79,79,16,1,
,,,,,,,,,,,,,,,,,5dcdef4dd30a0e0acb5b6fba,,2022-02-12_13h35.05.408,lexical_decision_task_DD_L6,2021.2.3,Win32,62.81407035,,,,,,,,,,,0.786,1,,,,,,,,,,,,,,,,,,,,,,,,0.20703125,-0.229166667,0,0,0,,,,,,,ALLEY,C,m,y,./images/ALLEY.png,,,,,,,,,,,,,,,,,,,,,m,1,0.786,,,,,,,,0,80,80,55,1,
,,,,,,,,,,,,,,,,,5dcdef4dd30a0e0acb5b6fba,,2022-02-12_13h35.05.408,lexical_decision_task_DD_L6,2021.2.3,Win32,62.81407035,,,,,,,,,,,1.042,1,,,,,,,,,,,,,,,,,,,,,,,,0.20703125,-0.229166667,0,0,0,,,,,,,MUSCLE,C,z,y,./images/MUSCLE.png,,,,,,,,,,,,,,,,,,,,,z,1,1.042,,,,,,,,0,81,81,88,1,
,,,,,,,,,,,,,,,,,5dcdef4dd30a0e0acb5b6fba,,2022-02-12_13h35.05.408,lexical_decision_task_DD_L6,2021.2.3,Win32,62.81407035,,,,,,,,,,,0.747,0,,,,,,,,,,,,,,,,,,,,,,,,0.20703125,-0.229166667,0,0,0,,,,,,,WHEEL,HB,m,y,./images/WHEELHB.png,,,,,,,,,,,,,,,,,,,,,z,0,0.747,,,,,,,,0,82,82,77,1,
,,,,,,,,,,,,,,,,,5dcdef4dd30a0e0acb5b6fba,,2022-02-12_13h35.05.408,lexical_decision_task_DD_L6,2021.2.3,Win32,62.81407035,,,,,,,,,,,0.709,0,,,,,,,,,,,,,,,,,,,,,,,,0.20703125,-0.229166667,0,0,0,space,,,,,,CANDY,LB,m,y,./images/CANDYLB.png,,,,,,,,,,,,,,,,,,,,,z,0,0.709,,,,,,,,0,83,83,39,1,2.579
,,,,,,,,,,,,,,,,,5dcdef4dd30a0e0acb5b6fba,,2022-02-12_13h35.05.408,lexical_decision_task_DD_L6,2021.2.3,Win32,62.81407035,,,,,,,,,,,1.011,1,,,,,,,,,,,,,,,,,,,,,,,,0.20703125,-0.229166667,0,0,0,,,,,,,JELLY,C,z,y,./images/JELLY.png,,,,,,,,,,,,,,,,,,,,,z,1,1.011,,,,,,,,0,84,84,148,1,
,,,,,,,,,,,,,,,,,5dcdef4dd30a0e0acb5b6fba,,2022-02-12_13h35.05.408,lexical_decision_task_DD_L6,2021.2.3,Win32,62.81407035,,,,,,,,,,,1.072,1,,,,,,,,,,,,,,,,,,,,,,,,0.20703125,-0.229166667,0,0,0,,,,,,,BAKER,LB,m,y,./images/BAKERLB.png,,,,,,,,,,,,,,,,,,,,,m,1,1.072,,,,,,,,0,85,85,63,1,
,,,,,,,,,,,,,,,,,5dcdef4dd30a0e0acb5b6fba,,2022-02-12_13h35.05.408,lexical_decision_task_DD_L6,2021.2.3,Win32,62.81407035,,,,,,,,,,,17.065,0,,,,,,,,,,,,,,,,,,,,,,,,0.20703125,-0.229166667,0,0,0,,,,,,,PASTA,HB,z,y,./images/PASTAHB.png,,,,,,,,,,,,,,,,,,,,,m,0,17.065,,,,,,,,0,86,86,89,1,
,,,,,,,,,,,,,,,,,5dcdef4dd30a0e0acb5b6fba,,2022-02-12_13h35.05.408,lexical_decision_task_DD_L6,2021.2.3,Win32,62.81407035,,,,,,,,,,,0.665,1,,,,,,,,,,,,,,,,,,,,,,,,0.20703125,-0.229166667,0,0,0,,,,,,,WAGON,C,m,y,./images/WAGON.png,,,,,,,,,,,,,,,,,,,,,m,1,0.665,,,,,,,,0,87,87,7,1,
,,,,,,,,,,,,,,,,,5dcdef4dd30a0e0acb5b6fba,,2022-02-12_13h35.05.408,lexical_decision_task_DD_L6,2021.2.3,Win32,62.81407035,,,,,,,,,,,0.738,1,,,,,,,,,,,,,,,,,,,,,,,,0.20703125,-0.229166667,0,0,0,,,,,,,FLESH,LB,m,y,./images/FLESHLB.png,,,,,,,,,,,,,,,,,,,,,m,1,0.738,,,,,,,,0,88,88,24,1,
,,,,,,,,,,,,,,,,,5dcdef4dd30a0e0acb5b6fba,,2022-02-12_13h35.05.408,lexical_decision_task_DD_L6,2021.2.3,Win32,62.81407035,,,,,,,,,,,0.652,0,,,,,,,,,,,,,,,,,,,,,,,,0.20703125,-0.229166667,0,0,0,,,,,,,BARREL,HB,z,y,./images/BARRELHB.png,,,,,,,,,,,,,,,,,,,,,m,0,0.652,,,,,,,,0,89,89,116,1,
,,,,,,,,,,,,,,,,,5dcdef4dd30a0e0acb5b6fba,,2022-02-12_13h35.05.408,lexical_decision_task_DD_L6,2021.2.3,Win32,62.81407035,,,,,,,,,,,34.357,0,,,,,,,,,,,,,,,,,,,,,,,,0.20703125,-0.229166667,0,0,0,,,,,,,STRING,HB,z,y,./images/STRINGHB.png,,,,,,,,,,,,,,,,,,,,,m,0,34.357,,,,,,,,0,90,90,125,1,
,,,,,,,,,,,,,,,,,5dcdef4dd30a0e0acb5b6fba,,2022-02-12_13h35.05.408,lexical_decision_task_DD_L6,2021.2.3,Win32,62.81407035,,,,,,,,,,,1.507,1,,,,,,,,,,,,,,,,,,,,,,,,0.20703125,-0.229166667,0,0,0,,,,,,,ONION,LB,z,y,./images/ONIONLB.png,,,,,,,,,,,,,,,,,,,,,z,1,1.507,,,,,,,,0,91,91,135,1,
,,,,,,,,,,,,,,,,,5dcdef4dd30a0e0acb5b6fba,,2022-02-12_13h35.05.408,lexical_decision_task_DD_L6,2021.2.3,Win32,62.81407035,,,,,,,,,,,0.869,0,,,,,,,,,,,,,,,,,,,,,,,,0.20703125,-0.229166667,0,0,0,,,,,,,CARPET,HB,z,y,./images/CARPETHB.png,,,,,,,,,,,,,,,,,,,,,m,0,0.869,,,,,,,,0,92,92,137,1,
,,,,,,,,,,,,,,,,,5dcdef4dd30a0e0acb5b6fba,,2022-02-12_13h35.05.408,lexical_decision_task_DD_L6,2021.2.3,Win32,62.81407035,,,,,,,,,,,0.786,1,,,,,,,,,,,,,,,,,,,,,,,,0.20703125,-0.229166667,0,0,0,,,,,,,JAGUAR,LB,z,y,./images/JAGUARLB.png,,,,,,,,,,,,,,,,,,,,,z,1,0.786,,,,,,,,0,93,93,102,1,
,,,,,,,,,,,,,,,,,5dcdef4dd30a0e0acb5b6fba,,2022-02-12_13h35.05.408,lexical_decision_task_DD_L6,2021.2.3,Win32,62.81407035,,,,,,,,,,,0.799,1,,,,,,,,,,,,,,,,,,,,,,,,0.20703125,-0.229166667,0,0,0,,,,,,,JUMPER,HB,m,y,./images/JUMPERHB.png,,,,,,,,,,,,,,,,,,,,,m,1,0.799,,,,,,,,0,94,94,74,1,
,,,,,,,,,,,,,,,,,5dcdef4dd30a0e0acb5b6fba,,2022-02-12_13h35.05.408,lexical_decision_task_DD_L6,2021.2.3,Win32,62.81407035,,,,,,,,,,,1.348,1,,,,,,,,,,,,,,,,,,,,,,,,0.20703125,-0.229166667,0,0,0,,,,,,,SAUNA,LB,m,y,./images/SAUNALB.png,,,,,,,,,,,,,,,,,,,,,m,1,1.348,,,,,,,,0,95,95,33,1,
,,,,,,,,,,,,,,,,,5dcdef4dd30a0e0acb5b6fba,,2022-02-12_13h35.05.408,lexical_decision_task_DD_L6,2021.2.3,Win32,62.81407035,,,,,,,,,,,8.56,1,,,,,,,,,,,,,,,,,,,,,,,,0.20703125,-0.229166667,0,0,0,,,,,,,SPORT,LB,z,y,./images/SPORTLB.png,,,,,,,,,,,,,,,,,,,,,z,1,8.56,,,,,,,,0,96,96,132,1,
,,,,,,,,,,,,,,,,,5dcdef4dd30a0e0acb5b6fba,,2022-02-12_13h35.05.408,lexical_decision_task_DD_L6,2021.2.3,Win32,62.81407035,,,,,,,,,,,0.891,1,,,,,,,,,,,,,,,,,,,,,,,,0.20703125,-0.229166667,0,0,0,,,,,,,SNAKE,C,m,y,./images/SNAKE.png,,,,,,,,,,,,,,,,,,,,,m,1,0.891,,,,,,,,0,97,97,40,1,
,,,,,,,,,,,,,,,,,5dcdef4dd30a0e0acb5b6fba,,2022-02-12_13h35.05.408,lexical_decision_task_DD_L6,2021.2.3,Win32,62.81407035,,,,,,,,,,,1.2,1,,,,,,,,,,,,,,,,,,,,,,,,0.20703125,-0.229166667,0,0,0,,,,,,,FOLDER,LB,z,y,./images/FOLDERLB.png,,,,,,,,,,,,,,,,,,,,,z,1,1.2,,,,,,,,0,98,98,126,1,
,,,,,,,,,,,,,,,,,5dcdef4dd30a0e0acb5b6fba,,2022-02-12_13h35.05.408,lexical_decision_task_DD_L6,2021.2.3,Win32,62.81407035,,,,,,,,,,,2.396,1,,,,,,,,,,,,,,,,,,,,,,,,0.20703125,-0.229166667,0,0,0,,,,,,,LITTER,LB,z,y,./images/LITTERLB.png,,,,,,,,,,,,,,,,,,,,,z,1,2.396,,,,,,,,0,99,99,162,1,
,,,,,,,,,,,,,,,,,5dcdef4dd30a0e0acb5b6fba,,2022-02-12_13h35.05.408,lexical_decision_task_DD_L6,2021.2.3,Win32,62.81407035,,,,,,,,,,,14.807,1,,,,,,,,,,,,,,,,,,,,,,,,0.20703125,-0.229166667,0,0,0,,,,,,,SQUARE,LB,z,y,./images/SQUARELB.png,,,,,,,,,,,,,,,,,,,,,z,1,14.807,,,,,,,,0,100,100,90,1,
,,,,,,,,,,,,,,,,,5dcdef4dd30a0e0acb5b6fba,,2022-02-12_13h35.05.408,lexical_decision_task_DD_L6,2021.2.3,Win32,62.81407035,,,,,,,,,,,0.734,0,,,,,,,,,,,,,,,,,,,,,,,,0.20703125,-0.229166667,0,0,0,,,,,,,MIDGET,C,m,y,./images/MIDGET.png,,,,,,,,,,,,,,,,,,,,,z,0,0.734,,,,,,,,0,101,101,76,1,
,,,,,,,,,,,,,,,,,5dcdef4dd30a0e0acb5b6fba,,2022-02-12_13h35.05.408,lexical_decision_task_DD_L6,2021.2.3,Win32,62.81407035,,,,,,,,,,,1.439,0,,,,,,,,,,,,,,,,,,,,,,,,0.20703125,-0.229166667,0,0,0,,,,,,,RAZOR,C,m,y,./images/RAZOR.png,,,,,,,,,,,,,,,,,,,,,z,0,1.439,,,,,,,,0,102,102,34,1,
,,,,,,,,,,,,,,,,,5dcdef4dd30a0e0acb5b6fba,,2022-02-12_13h35.05.408,lexical_decision_task_DD_L6,2021.2.3,Win32,62.81407035,,,,,,,,,,,1.015,1,,,,,,,,,,,,,,,,,,,,,,,,0.20703125,-0.229166667,0,0,0,,,,,,,BELLY,C,z,y,./images/BELLY.png,,,,,,,,,,,,,,,,,,,,,z,1,1.015,,,,,,,,0,103,103,94,1,
,,,,,,,,,,,,,,,,,5dcdef4dd30a0e0acb5b6fba,,2022-02-12_13h35.05.408,lexical_decision_task_DD_L6,2021.2.3,Win32,62.81407035,,,,,,,,,,,1.06,0,,,,,,,,,,,,,,,,,,,,,,,,0.20703125,-0.229166667,0,0,0,,,,,,,STOOL,C,m,y,./images/STOOL.png,,,,,,,,,,,,,,,,,,,,,z,0,1.06,,,,,,,,0,104,104,43,1,
,,,,,,,,,,,,,,,,,5dcdef4dd30a0e0acb5b6fba,,2022-02-12_13h35.05.408,lexical_decision_task_DD_L6,2021.2.3,Win32,62.81407035,,,,,,,,,,,11.934,1,,,,,,,,,,,,,,,,,,,,,,,,0.20703125,-0.229166667,0,0,0,,,,,,,PILOT,HB,m,y,./images/PILOTHB.png,,,,,,,,,,,,,,,,,,,,,m,1,11.934,,,,,,,,0,105,105,50,1,
,,,,,,,,,,,,,,,,,5dcdef4dd30a0e0acb5b6fba,,2022-02-12_13h35.05.408,lexical_decision_task_DD_L6,2021.2.3,Win32,62.81407035,,,,,,,,,,,1.104,0,,,,,,,,,,,,,,,,,,,,,,,,0.20703125,-0.229166667,0,0,0,,,,,,,SLOPE,LB,m,y,./images/SLOPELB.png,,,,,,,,,,,,,,,,,,,,,z,0,1.104,,,,,,,,0,106,106,30,1,
,,,,,,,,,,,,,,,,,5dcdef4dd30a0e0acb5b6fba,,2022-02-12_13h35.05.408,lexical_decision_task_DD_L6,2021.2.3,Win32,62.81407035,,,,,,,,,,,0.956,1,,,,,,,,,,,,,,,,,,,,,,,,0.20703125,-0.229166667,0,0,0,,,,,,,MONKEY,LB,m,y,./images/MONKEYLB.png,,,,,,,,,,,,,,,,,,,,,m,1,0.956,,,,,,,,0,107,107,45,1,
,,,,,,,,,,,,,,,,,5dcdef4dd30a0e0acb5b6fba,,2022-02-12_13h35.05.408,lexical_decision_task_DD_L6,2021.2.3,Win32,62.81407035,,,,,,,,,,,0.754,1,,,,,,,,,,,,,,,,,,,,,,,,0.20703125,-0.229166667,0,0,0,,,,,,,POKER,C,m,y,./images/POKER.png,,,,,,,,,,,,,,,,,,,,,m,1,0.754,,,,,,,,0,108,108,67,1,
,,,,,,,,,,,,,,,,,5dcdef4dd30a0e0acb5b6fba,,2022-02-12_13h35.05.408,lexical_decision_task_DD_L6,2021.2.3,Win32,62.81407035,,,,,,,,,,,0.81,0,,,,,,,,,,,,,,,,,,,,,,,,0.20703125,-0.229166667,0,0,0,,,,,,,MELON,C,z,y,./images/MELON.png,,,,,,,,,,,,,,,,,,,,,m,0,0.81,,,,,,,,0,109,109,106,1,
,,,,,,,,,,,,,,,,,5dcdef4dd30a0e0acb5b6fba,,2022-02-12_13h35.05.408,lexical_decision_task_DD_L6,2021.2.3,Win32,62.81407035,,,,,,,,,,,10.724,1,,,,,,,,,,,,,,,,,,,,,,,,0.20703125,-0.229166667,0,0,0,,,,,,,CHERRY,LB,m,y,./images/CHERRYLB.png,,,,,,,,,,,,,,,,,,,,,m,1,10.724,,,,,,,,0,110,110,54,1,
,,,,,,,,,,,,,,,,,5dcdef4dd30a0e0acb5b6fba,,2022-02-12_13h35.05.408,lexical_decision_task_DD_L6,2021.2.3,Win32,62.81407035,,,,,,,,,,,2.698,0,,,,,,,,,,,,,,,,,,,,,,,,0.20703125,-0.229166667,0,0,0,,,,,,,SPINE,HB,m,y,./images/SPINEHB.png,,,,,,,,,,,,,,,,,,,,,z,0,2.698,,,,,,,,0,111,111,65,1,
,,,,,,,,,,,,,,,,,5dcdef4dd30a0e0acb5b6fba,,2022-02-12_13h35.05.408,lexical_decision_task_DD_L6,2021.2.3,Win32,62.81407035,,,,,,,,,,,22.155,0,,,,,,,,,,,,,,,,,,,,,,,,0.20703125,-0.229166667,0,0,0,,,,,,,STEAK,C,m,y,./images/STEAK.png,,,,,,,,,,,,,,,,,,,,,z,0,22.155,,,,,,,,0,112,112,31,1,
,,,,,,,,,,,,,,,,,5dcdef4dd30a0e0acb5b6fba,,2022-02-12_13h35.05.408,lexical_decision_task_DD_L6,2021.2.3,Win32,62.81407035,,,,,,,,,,,1.373,1,,,,,,,,,,,,,,,,,,,,,,,,0.20703125,-0.229166667,0,0,0,,,,,,,TRIPOD,LB,z,y,./images/TRIPODLB.png,,,,,,,,,,,,,,,,,,,,,z,1,1.373,,,,,,,,0,113,113,138,1,
,,,,,,,,,,,,,,,,,5dcdef4dd30a0e0acb5b6fba,,2022-02-12_13h35.05.408,lexical_decision_task_DD_L6,2021.2.3,Win32,62.81407035,,,,,,,,,,,1.107,1,,,,,,,,,,,,,,,,,,,,,,,,0.20703125,-0.229166667,0,0,0,,,,,,,BANANA,C,m,y,./images/BANANA.png,,,,,,,,,,,,,,,,,,,,,m,1,1.107,,,,,,,,0,114,114,70,1,
,,,,,,,,,,,,,,,,,5dcdef4dd30a0e0acb5b6fba,,2022-02-12_13h35.05.408,lexical_decision_task_DD_L6,2021.2.3,Win32,62.81407035,,,,,,,,,,,1.034,0,,,,,,,,,,,,,,,,,,,,,,,,0.20703125,-0.229166667,0,0,0,,,,,,,SCREW,LB,z,y,./images/SCREWLB.png,,,,,,,,,,,,,,,,,,,,,m,0,1.034,,,,,,,,0,115,115,108,1,
,,,,,,,,,,,,,,,,,5dcdef4dd30a0e0acb5b6fba,,2022-02-12_13h35.05.408,lexical_decision_task_DD_L6,2021.2.3,Win32,62.81407035,,,,,,,,,,,1.633,0,,,,,,,,,,,,,,,,,,,,,,,,0.20703125,-0.229166667,0,0,0,,,,,,,CANYON,C,z,y,./images/CANYON.png,,,,,,,,,,,,,,,,,,,,,m,0,1.633,,,,,,,,0,116,116,118,1,
,,,,,,,,,,,,,,,,,5dcdef4dd30a0e0acb5b6fba,,2022-02-12_13h35.05.408,lexical_decision_task_DD_L6,2021.2.3,Win32,62.81407035,,,,,,,,,,,1.578,0,,,,,,,,,,,,,,,,,,,,,,,,0.20703125,-0.229166667,0,0,0,,,,,,,GRAIN,LB,z,y,./images/GRAINLB.png,,,,,,,,,,,,,,,,,,,,,m,0,1.578,,,,,,,,0,117,117,159,1,
,,,,,,,,,,,,,,,,,5dcdef4dd30a0e0acb5b6fba,,2022-02-12_13h35.05.408,lexical_decision_task_DD_L6,2021.2.3,Win32,62.81407035,,,,,,,,,,,17.696,1,,,,,,,,,,,,,,,,,,,,,,,,0.20703125,-0.229166667,0,0,0,,,,,,,LLAMA,HB,m,y,./images/LLAMAHB.png,,,,,,,,,,,,,,,,,,,,,m,1,17.696,,,,,,,,0,118,118,35,1,
,,,,,,,,,,,,,,,,,5dcdef4dd30a0e0acb5b6fba,,2022-02-12_13h35.05.408,lexical_decision_task_DD_L6,2021.2.3,Win32,62.81407035,,,,,,,,,,,1.404,1,,,,,,,,,,,,,,,,,,,,,,,,0.20703125,-0.229166667,0,0,0,,,,,,,POODLE,LB,z,y,./images/POODLELB.png,,,,,,,,,,,,,,,,,,,,,z,1,1.404,,,,,,,,0,119,119,165,1,
,,,,,,,,,,,,,,,,,5dcdef4dd30a0e0acb5b6fba,,2022-02-12_13h35.05.408,lexical_decision_task_DD_L6,2021.2.3,Win32,62.81407035,,,,,,,,,,,0.784,1,,,,,,,,,,,,,,,,,,,,,,,,0.20703125,-0.229166667,0,0,0,,,,,,,CRATER,LB,m,y,./images/CRATERLB.png,,,,,,,,,,,,,,,,,,,,,m,1,0.784,,,,,,,,0,120,120,3,1,
,,,,,,,,,,,,,,,,,5dcdef4dd30a0e0acb5b6fba,,2022-02-12_13h35.05.408,lexical_decision_task_DD_L6,2021.2.3,Win32,62.81407035,,,,,,,,,,,0.784,1,,,,,,,,,,,,,,,,,,,,,,,,0.20703125,-0.229166667,0,0,0,,,,,,,FLASK,LB,m,y,./images/FLASKLB.png,,,,,,,,,,,,,,,,,,,,,m,1,0.784,,,,,,,,0,121,121,72,1,
,,,,,,,,,,,,,,,,,5dcdef4dd30a0e0acb5b6fba,,2022-02-12_13h35.05.408,lexical_decision_task_DD_L6,2021.2.3,Win32,62.81407035,,,,,,,,,,,18.581,1,,,,,,,,,,,,,,,,,,,,,,,,0.20703125,-0.229166667,0,0,0,,,,,,,HAMMER,LB,m,y,./images/HAMMERLB.png,,,,,,,,,,,,,,,,,,,,,m,1,18.581,,,,,,,,0,122,122,75,1,
,,,,,,,,,,,,,,,,,5dcdef4dd30a0e0acb5b6fba,,2022-02-12_13h35.05.408,lexical_decision_task_DD_L6,2021.2.3,Win32,62.81407035,,,,,,,,,,,0.64,1,,,,,,,,,,,,,,,,,,,,,,,,0.20703125,-0.229166667,0,0,0,,,,,,,BASKET,HB,m,y,./images/BASKETHB.png,,,,,,,,,,,,,,,,,,,,,m,1,0.64,,,,,,,,0,123,123,44,1,
,,,,,,,,,,,,,,,,,5dcdef4dd30a0e0acb5b6fba,,2022-02-12_13h35.05.408,lexical_decision_task_DD_L6,2021.2.3,Win32,62.81407035,,,,,,,,,,,0.824,1,,,,,,,,,,,,,,,,,,,,,,,,0.20703125,-0.229166667,0,0,0,,,,,,,BISHOP,C,m,y,./images/BISHOP.png,,,,,,,,,,,,,,,,,,,,,m,1,0.824,,,,,,,,0,124,124,49,1,
,,,,,,,,,,,,,,,,,5dcdef4dd30a0e0acb5b6fba,,2022-02-12_13h35.05.408,lexical_decision_task_DD_L6,2021.2.3,Win32,62.81407035,,,,,,,,,,,1.416,0,,,,,,,,,,,,,,,,,,,,,,,,0.20703125,-0.229166667,0,0,0,space,,,,,,TOWEL,C,m,y,./images/TOWEL.png,,,,,,,,,,,,,,,,,,,,,z,0,1.416,,,,,,,,0,125,125,1,1,1.786
,,,,,,,,,,,,,,,,,5dcdef4dd30a0e0acb5b6fba,,2022-02-12_13h35.05.408,lexical_decision_task_DD_L6,2021.2.3,Win32,62.81407035,,,,,,,,,,,1.149,1,,,,,,,,,,,,,,,,,,,,,,,,0.20703125,-0.229166667,0,0,0,,,,,,,WALNUT,LB,m,y,./images/WALNUTLB.png,,,,,,,,,,,,,,,,,,,,,m,1,1.149,,,,,,,,0,126,126,0,1,
,,,,,,,,,,,,,,,,,5dcdef4dd30a0e0acb5b6fba,,2022-02-12_13h35.05.408,lexical_decision_task_DD_L6,2021.2.3,Win32,62.81407035,,,,,,,,,,,10.086,0,,,,,,,,,,,,,,,,,,,,,,,,0.20703125,-0.229166667,0,0,0,,,,,,,PLANET,HB,m,y,./images/PLANETHB.png,,,,,,,,,,,,,,,,,,,,,z,0,10.086,,,,,,,,0,127,127,80,1,
,,,,,,,,,,,,,,,,,5dcdef4dd30a0e0acb5b6fba,,2022-02-12_13h35.05.408,lexical_decision_task_DD_L6,2021.2.3,Win32,62.81407035,,,,,,,,,,,2.988,1,,,,,,,,,,,,,,,,,,,,,,,,0.20703125,-0.229166667,0,0,0,,,,,,,ENGINE,HB,m,y,./images/ENGINEHB.png,,,,,,,,,,,,,,,,,,,,,m,1,2.988,,,,,,,,0,128,128,38,1,
,,,,,,,,,,,,,,,,,5dcdef4dd30a0e0acb5b6fba,,2022-02-12_13h35.05.408,lexical_decision_task_DD_L6,2021.2.3,Win32,62.81407035,,,,,,,,,,,28.008,0,,,,,,,,,,,,,,,,,,,,,,,,0.20703125,-0.229166667,0,0,0,,,,,,,QUILL,C,z,y,./images/QUILL.png,,,,,,,,,,,,,,,,,,,,,m,0,28.008,,,,,,,,0,129,129,115,1,
,,,,,,,,,,,,,,,,,5dcdef4dd30a0e0acb5b6fba,,2022-02-12_13h35.05.408,lexical_decision_task_DD_L6,2021.2.3,Win32,62.81407035,,,,,,,,,,,0.68,1,,,,,,,,,,,,,,,,,,,,,,,,0.20703125,-0.229166667,0,0,0,,,,,,,CHALK,C,m,y,./images/CHALK.png,,,,,,,,,,,,,,,,,,,,,m,1,0.68,,,,,,,,0,130,130,25,1,
,,,,,,,,,,,,,,,,,5dcdef4dd30a0e0acb5b6fba,,2022-02-12_13h35.05.408,lexical_decision_task_DD_L6,2021.2.3,Win32,62.81407035,,,,,,,,,,,0.62,0,,,,,,,,,,,,,,,,,,,,,,,,0.20703125,-0.229166667,0,0,0,,,,,,,LADDER,HB,z,y,./images/LADDERHB.png,,,,,,,,,,,,,,,,,,,,,m,0,0.62,,,,,,,,0,131,131,122,1,
,,,,,,,,,,,,,,,,,5dcdef4dd30a0e0acb5b6fba,,2022-02-12_13h35.05.408,lexical_decision_task_DD_L6,2021.2.3,Win32,62.81407035,,,,,,,,,,,0.699,1,,,,,,,,,,,,,,,,,,,,,,,,0.20703125,-0.229166667,0,0,0,,,,,,,DANCER,LB,m,y,./images/DANCERLB.png,,,,,,,,,,,,,,,,,,,,,m,1,0.699,,,,,,,,0,132,132,21,1,
,,,,,,,,,,,,,,,,,5dcdef4dd30a0e0acb5b6fba,,2022-02-12_13h35.05.408,lexical_decision_task_DD_L6,2021.2.3,Win32,62.81407035,,,,,,,,,,,9.01,1,,,,,,,,,,,,,,,,,,,,,,,,0.20703125,-0.229166667,0,0,0,,,,,,,BEARD,HB,z,y,./images/BEARDHB.png,,,,,,,,,,,,,,,,,,,,,z,1,9.01,,,,,,,,0,133,133,86,1,
,,,,,,,,,,,,,,,,,5dcdef4dd30a0e0acb5b6fba,,2022-02-12_13h35.05.408,lexical_decision_task_DD_L6,2021.2.3,Win32,62.81407035,,,,,,,,,,,93.274,1,,,,,,,,,,,,,,,,,,,,,,,,0.20703125,-0.229166667,0,0,0,,,,,,,COOKER,LB,z,y,./images/COOKERLB.png,,,,,,,,,,,,,,,,,,,,,z,1,93.274,,,,,,,,0,134,134,153,1,
,,,,,,,,,,,,,,,,,5dcdef4dd30a0e0acb5b6fba,,2022-02-12_13h35.05.408,lexical_decision_task_DD_L6,2021.2.3,Win32,62.81407035,,,,,,,,,,,1.022,1,,,,,,,,,,,,,,,,,,,,,,,,0.20703125,-0.229166667,0,0,0,,,,,,,PARADE,HB,m,y,./images/PARADEHB.png,,,,,,,,,,,,,,,,,,,,,m,1,1.022,,,,,,,,0,135,135,17,1,
,,,,,,,,,,,,,,,,,5dcdef4dd30a0e0acb5b6fba,,2022-02-12_13h35.05.408,lexical_decision_task_DD_L6,2021.2.3,Win32,62.81407035,,,,,,,,,,,1.374,1,,,,,,,,,,,,,,,,,,,,,,,,0.20703125,-0.229166667,0,0,0,,,,,,,PEBBLE,C,m,y,./images/PEBBLE.png,,,,,,,,,,,,,,,,,,,,,m,1,1.374,,,,,,,,0,136,136,82,1,
