key_resp.keys,instr_done_touch.x,instr_done_touch.y,instr_done_touch.leftButton,instr_done_touch.midButton,instr_done_touch.rightButton,instr_done_touch.clicked_name,instruction_pages.thisRepN,instruction_pages.thisTrialN,instruction_pages.thisN,instruction_pages.thisIndex,instruction_pages.ran,pageN,phase,instruct_text,has_image,instruct_image,participant,age,date,expName,psychopyVersion,OS,frameRate,key_resp.rt,response.keys,response.corr,response.rt,touch_resp.x,touch_resp.y,touch_resp.leftButton,touch_resp.midButton,touch_resp.rightButton,touch_resp.time,touch_resp.clicked_name,rt,corr,practrials.thisRepN,practrials.thisTrialN,practrials.thisN,practrials.thisIndex,practrials.ran,TrialID,Target,corrAns,end_of_practice_trials_pages.thisRepN,end_of_practice_trials_pages.thisTrialN,end_of_practice_trials_pages.thisN,end_of_practice_trials_pages.thisIndex,end_of_practice_trials_pages.ran,key_resp_2.keys,key_resp_2.corr,key_resp_2.rt,targ_click.x,targ_click.y,targ_click.leftButton,targ_click.midButton,targ_click.rightButton,targ_click.time,targ_click.clicked_name,break_done_touch.x,break_done_touch.y,break_done_touch.leftButton,break_done_touch.midButton,break_done_touch.rightButton,break_done_keyboard.keys,maintrials.thisRepN,maintrials.thisTrialN,maintrials.thisN,maintrials.thisIndex,maintrials.ran,string,blur,study,lex,stim_path,break_done_keyboard.rt,mouse_2.x,mouse_2.y,mouse_2.leftButton,mouse_2.midButton,mouse_2.rightButton,mouse_2.clicked_name,slider.response,slider.rt,trials.thisRepN,trials.thisTrialN,trials.thisN,trials.thisIndex,trials.ran,test_instructions.thisRepN,test_instructions.thisTrialN,test_instructions.thisN,test_instructions.thisIndex,test_instructions.ran,key_resp_3.keys,key_resp_3.corr,key_resp_3.rt,test_click.x,test_click.y,test_click.leftButton,test_click.midButton,test_click.rightButton,test_click.time,test_click.clicked_name,test_phase.thisRepN,test_phase.thisTrialN,test_phase.thisN,test_phase.thisIndex,test_phase.ran
,0.031481495,-0.39166668,1,0,0,instr_done_button,0,0,0,0,1,1,instructions,"INSTRUCTIONS
At the start of each trial, look at the plus sign  (+) in the center of the screen.  This tells you that a trial is about to begin and where to look. Second, the plus sign will disappear and a string of letters will appear. Your task is to determine if the string of letters is a word or not. If the item is a word press the M key (on keyboard)  or touch the word button (phone/tablet).  If the item is not a word,  press the  Z key (on keyboard)  or touch the nonword button (on phone/tablet). 
Press the space bar or touch  continue.",0,,5e1797da928b15062260e30e,70,2022-02-12_11h47.11.370,lexical_decision_task_DD_L6,2021.2.3,Win32,60.92731371,,,,,,,,,,,,,,,,,,,,,,,,,,,,,,,,,,,,,,,,,,,,,,,,,,,,,,,,,,,,,,,,,,,,,,,,,,,,,,,,,,,,,,
space,0.036111125,-0.257407419,0,0,0,,0,1,1,1,1,2,instructions,"If your device has a keyboard, press the 'Z' key for nonwords and the 'M' key for words.





Press the space bar or touch the button below to continue.",0,keyboard-example.gif,5e1797da928b15062260e30e,70,2022-02-12_11h47.11.370,lexical_decision_task_DD_L6,2021.2.3,Win32,60.92731371,15.3333,,,,,,,,,,,,,,,,,,,,,,,,,,,,,,,,,,,,,,,,,,,,,,,,,,,,,,,,,,,,,,,,,,,,,,,,,,,,,,,,,,,,,
space,0.036111125,-0.257407419,0,0,0,,0,2,2,2,1,3,instructions,"If you are using a touchscreen only device, use the buttons on the screen. Do not use the mouse.





Press the space bar or touch the button below to continue.",0,touchscreen-example.gif,5e1797da928b15062260e30e,70,2022-02-12_11h47.11.370,lexical_decision_task_DD_L6,2021.2.3,Win32,60.92731371,9.2457,,,,,,,,,,,,,,,,,,,,,,,,,,,,,,,,,,,,,,,,,,,,,,,,,,,,,,,,,,,,,,,,,,,,,,,,,,,,,,,,,,,,,
space,0.036111125,-0.257407419,0,0,0,,0,3,3,3,1,4,instructions,"It is very important that you respond as quickly and accurately as possible, as each letter string will only be on the screen for two seconds. If you do not respond within this time, the message 'Too slow!' will be displayed and the experiment will progress to the next letter string. The first 20 trials will be practice trials and you will receive feedback on your answers. 

Press the space bar or touch the button below to start the practice trials.",0,,5e1797da928b15062260e30e,70,2022-02-12_11h47.11.370,lexical_decision_task_DD_L6,2021.2.3,Win32,60.92731371,23.768,,,,,,,,,,,,,,,,,,,,,,,,,,,,,,,,,,,,,,,,,,,,,,,,,,,,,,,,,,,,,,,,,,,,,,,,,,,,,,,,,,,,,
,,,,,,,,,,,,,,,,,5e1797da928b15062260e30e,70,2022-02-12_11h47.11.370,lexical_decision_task_DD_L6,2021.2.3,Win32,60.92731371,,m,1,1.0953,,,,,,,,1.0953,1,0,0,0,5,1,1001,OBTAIN,m,,,,,,,,,,,,,,,,,,,,,,,,,,,,,,,,,,,,,,,,,,,,,,,,,,,,,,,,,,,,,,,,,
,,,,,,,,,,,,,,,,,5e1797da928b15062260e30e,70,2022-02-12_11h47.11.370,lexical_decision_task_DD_L6,2021.2.3,Win32,60.92731371,,z,1,1.2419,,,,,,,,1.2419,1,0,1,1,13,1,1001,ROUPET,z,,,,,,,,,,,,,,,,,,,,,,,,,,,,,,,,,,,,,,,,,,,,,,,,,,,,,,,,,,,,,,,,,
,,,,,,,,,,,,,,,,,5e1797da928b15062260e30e,70,2022-02-12_11h47.11.370,lexical_decision_task_DD_L6,2021.2.3,Win32,60.92731371,,m,1,0.7104,,,,,,,,0.7104,1,0,2,2,2,1,1001,ALMOND,m,,,,,,,,,,,,,,,,,,,,,,,,,,,,,,,,,,,,,,,,,,,,,,,,,,,,,,,,,,,,,,,,,
,,,,,,,,,,,,,,,,,5e1797da928b15062260e30e,70,2022-02-12_11h47.11.370,lexical_decision_task_DD_L6,2021.2.3,Win32,60.92731371,,m,1,1.1631,,,,,,,,1.1631,1,0,3,3,0,1,1001,UTOPIA,m,,,,,,,,,,,,,,,,,,,,,,,,,,,,,,,,,,,,,,,,,,,,,,,,,,,,,,,,,,,,,,,,,
,,,,,,,,,,,,,,,,,5e1797da928b15062260e30e,70,2022-02-12_11h47.11.370,lexical_decision_task_DD_L6,2021.2.3,Win32,60.92731371,,m,1,0.7819,,,,,,,,0.7819,1,0,4,4,7,1,1001,VOLUME,m,,,,,,,,,,,,,,,,,,,,,,,,,,,,,,,,,,,,,,,,,,,,,,,,,,,,,,,,,,,,,,,,,
,,,,,,,,,,,,,,,,,5e1797da928b15062260e30e,70,2022-02-12_11h47.11.370,lexical_decision_task_DD_L6,2021.2.3,Win32,60.92731371,,z,1,1.0263,,,,,,,,1.0263,1,0,5,5,10,1,1001,INLADE,z,,,,,,,,,,,,,,,,,,,,,,,,,,,,,,,,,,,,,,,,,,,,,,,,,,,,,,,,,,,,,,,,,
,,,,,,,,,,,,,,,,,5e1797da928b15062260e30e,70,2022-02-12_11h47.11.370,lexical_decision_task_DD_L6,2021.2.3,Win32,60.92731371,,m,1,0.9036,,,,,,,,0.9036,1,0,6,6,6,1,1001,ZOMBIE,m,,,,,,,,,,,,,,,,,,,,,,,,,,,,,,,,,,,,,,,,,,,,,,,,,,,,,,,,,,,,,,,,,
,,,,,,,,,,,,,,,,,5e1797da928b15062260e30e,70,2022-02-12_11h47.11.370,lexical_decision_task_DD_L6,2021.2.3,Win32,60.92731371,,m,1,0.702,,,,,,,,0.702,1,0,7,7,4,1,1001,SQUEAK,m,,,,,,,,,,,,,,,,,,,,,,,,,,,,,,,,,,,,,,,,,,,,,,,,,,,,,,,,,,,,,,,,,
,,,,,,,,,,,,,,,,,5e1797da928b15062260e30e,70,2022-02-12_11h47.11.370,lexical_decision_task_DD_L6,2021.2.3,Win32,60.92731371,,z,1,0.8631,,,,,,,,0.8631,1,0,8,8,8,1,1001,ASLERT,z,,,,,,,,,,,,,,,,,,,,,,,,,,,,,,,,,,,,,,,,,,,,,,,,,,,,,,,,,,,,,,,,,
,,,,,,,,,,,,,,,,,5e1797da928b15062260e30e,70,2022-02-12_11h47.11.370,lexical_decision_task_DD_L6,2021.2.3,Win32,60.92731371,,m,1,0.7582,,,,,,,,0.7582,1,0,9,9,3,1,1001,MATRIX,m,,,,,,,,,,,,,,,,,,,,,,,,,,,,,,,,,,,,,,,,,,,,,,,,,,,,,,,,,,,,,,,,,
,,,,,,,,,,,,,,,,,5e1797da928b15062260e30e,70,2022-02-12_11h47.11.370,lexical_decision_task_DD_L6,2021.2.3,Win32,60.92731371,,z,1,0.8253,,,,,,,,0.8253,1,0,10,10,9,1,1001,FARINY,z,,,,,,,,,,,,,,,,,,,,,,,,,,,,,,,,,,,,,,,,,,,,,,,,,,,,,,,,,,,,,,,,,
,,,,,,,,,,,,,,,,,5e1797da928b15062260e30e,70,2022-02-12_11h47.11.370,lexical_decision_task_DD_L6,2021.2.3,Win32,60.92731371,,z,1,0.6563,,,,,,,,0.6563,1,0,11,11,12,1,1001,SPRINY,z,,,,,,,,,,,,,,,,,,,,,,,,,,,,,,,,,,,,,,,,,,,,,,,,,,,,,,,,,,,,,,,,,
,,,,,,,,,,,,,,,,,5e1797da928b15062260e30e,70,2022-02-12_11h47.11.370,lexical_decision_task_DD_L6,2021.2.3,Win32,60.92731371,,z,1,0.9707,,,,,,,,0.9707,1,0,12,12,15,1,1001,WHAISE,z,,,,,,,,,,,,,,,,,,,,,,,,,,,,,,,,,,,,,,,,,,,,,,,,,,,,,,,,,,,,,,,,,
,,,,,,,,,,,,,,,,,5e1797da928b15062260e30e,70,2022-02-12_11h47.11.370,lexical_decision_task_DD_L6,2021.2.3,Win32,60.92731371,,m,1,0.9663,,,,,,,,0.9663,1,0,13,13,1,1,1001,ADJUST,m,,,,,,,,,,,,,,,,,,,,,,,,,,,,,,,,,,,,,,,,,,,,,,,,,,,,,,,,,,,,,,,,,
,,,,,,,,,,,,,,,,,5e1797da928b15062260e30e,70,2022-02-12_11h47.11.370,lexical_decision_task_DD_L6,2021.2.3,Win32,60.92731371,,z,1,0.726,,,,,,,,0.726,1,0,14,14,14,1,1001,THRALE,z,,,,,,,,,,,,,,,,,,,,,,,,,,,,,,,,,,,,,,,,,,,,,,,,,,,,,,,,,,,,,,,,,
,,,,,,,,,,,,,,,,,5e1797da928b15062260e30e,70,2022-02-12_11h47.11.370,lexical_decision_task_DD_L6,2021.2.3,Win32,60.92731371,,z,1,0.7385,,,,,,,,0.7385,1,0,15,15,11,1,1001,RASHET,z,,,,,,,,,,,,,,,,,,,,,,,,,,,,,,,,,,,,,,,,,,,,,,,,,,,,,,,,,,,,,,,,,
space,0.036111125,-0.257407419,0,0,0,,,,,,,1,end_of_practice,"You have completed the practice trials. During the experimental trials, you will not receive feedback. 
Before you begin, please ensure that you are in a comfortable and quiet location and will not be disturbed for about 15 minutes, as we cannot use your data if you do not complete all the trials. 
 When you are ready to start the experimental trials, please press space or touch the button below.",,,5e1797da928b15062260e30e,70,2022-02-12_11h47.11.370,lexical_decision_task_DD_L6,2021.2.3,Win32,60.92731371,29.6212,,,,,,,,,,,,,,,,,,,,,0,0,0,0,1,,,,,,,,,,,,,,,,,,,,,,,,,,,,,,,,,,,,,,,,,,,,,,,,,,,,,,,,,,,,
,,,,,,,,,,,,,,,,,5e1797da928b15062260e30e,70,2022-02-12_11h47.11.370,lexical_decision_task_DD_L6,2021.2.3,Win32,60.92731371,,,,,,,,,,,,1.0701,0,,,,,,,,,,,,,,m,0,1.0701,,,,,,,,0.036111125,-0.257407419,0,0,0,,0,0,0,110,1,CRUNK,LB,z,z,./images/CRUNKLB.png,,,,,,,,,,,,,,,,,,,,,,,,,,,,,,,,,,
,,,,,,,,,,,,,,,,,5e1797da928b15062260e30e,70,2022-02-12_11h47.11.370,lexical_decision_task_DD_L6,2021.2.3,Win32,60.92731371,,,,,,,,,,,,1.4996,0,,,,,,,,,,,,,,m,0,1.4996,,,,,,,,0.036111125,-0.257407419,0,0,0,,0,1,1,94,1,BLANS,HB,z,z,./images/BLANSHB.png,,,,,,,,,,,,,,,,,,,,,,,,,,,,,,,,,,
,,,,,,,,,,,,,,,,,5e1797da928b15062260e30e,70,2022-02-12_11h47.11.370,lexical_decision_task_DD_L6,2021.2.3,Win32,60.92731371,,,,,,,,,,,,0.855,0,,,,,,,,,,,,,,m,0,0.855,,,,,,,,0.036111125,-0.257407419,0,0,0,,0,2,2,140,1,DOVET,LB,z,z,./images/DOVETLB.png,,,,,,,,,,,,,,,,,,,,,,,,,,,,,,,,,,
,,,,,,,,,,,,,,,,,5e1797da928b15062260e30e,70,2022-02-12_11h47.11.370,lexical_decision_task_DD_L6,2021.2.3,Win32,60.92731371,,,,,,,,,,,,0.9302,1,,,,,,,,,,,,,,m,1,0.9302,,,,,,,,0.036111125,-0.257407419,0,0,0,,0,3,3,11,1,MEDAL,HB,m,m,./images/MEDALHB.png,,,,,,,,,,,,,,,,,,,,,,,,,,,,,,,,,,
,,,,,,,,,,,,,,,,,5e1797da928b15062260e30e,70,2022-02-12_11h47.11.370,lexical_decision_task_DD_L6,2021.2.3,Win32,60.92731371,,,,,,,,,,,,0.9442,1,,,,,,,,,,,,,,z,1,0.9442,,,,,,,,0.036111125,-0.257407419,0,0,0,,0,4,4,100,1,DRIBS,HB,z,z,./images/DRIBSHB.png,,,,,,,,,,,,,,,,,,,,,,,,,,,,,,,,,,
,,,,,,,,,,,,,,,,,5e1797da928b15062260e30e,70,2022-02-12_11h47.11.370,lexical_decision_task_DD_L6,2021.2.3,Win32,60.92731371,,,,,,,,,,,,1.0466,1,,,,,,,,,,,,,,z,1,1.0466,,,,,,,,0.036111125,-0.257407419,0,0,0,,0,5,5,118,1,BAVEL,HB,z,z,./images/BAVELHB.png,,,,,,,,,,,,,,,,,,,,,,,,,,,,,,,,,,
,,,,,,,,,,,,,,,,,5e1797da928b15062260e30e,70,2022-02-12_11h47.11.370,lexical_decision_task_DD_L6,2021.2.3,Win32,60.92731371,,,,,,,,,,,,1.1537,1,,,,,,,,,,,,,,z,1,1.1537,,,,,,,,0.036111125,-0.257407419,0,0,0,,0,6,6,131,1,NACES,LB,z,z,./images/NACESLB.png,,,,,,,,,,,,,,,,,,,,,,,,,,,,,,,,,,
,,,,,,,,,,,,,,,,,5e1797da928b15062260e30e,70,2022-02-12_11h47.11.370,lexical_decision_task_DD_L6,2021.2.3,Win32,60.92731371,,,,,,,,,,,,0.6952,1,,,,,,,,,,,,,,m,1,0.6952,,,,,,,,0.036111125,-0.257407419,0,0,0,,0,7,7,57,1,FERRY,LB,m,m,./images/FERRYLB.png,,,,,,,,,,,,,,,,,,,,,,,,,,,,,,,,,,
,,,,,,,,,,,,,,,,,5e1797da928b15062260e30e,70,2022-02-12_11h47.11.370,lexical_decision_task_DD_L6,2021.2.3,Win32,60.92731371,,,,,,,,,,,,1.0162,1,,,,,,,,,,,,,,z,1,1.0162,,,,,,,,0.036111125,-0.257407419,0,0,0,,0,8,8,90,1,NEAST,C,z,z,./images/NEAST.png,,,,,,,,,,,,,,,,,,,,,,,,,,,,,,,,,,
,,,,,,,,,,,,,,,,,5e1797da928b15062260e30e,70,2022-02-12_11h47.11.370,lexical_decision_task_DD_L6,2021.2.3,Win32,60.92731371,,,,,,,,,,,,1.4152,0,,,,,,,,,,,,,,m,0,1.4152,,,,,,,,0.036111125,-0.257407419,0,0,0,,0,9,9,134,1,TROSS,LB,z,z,./images/TROSSLB.png,,,,,,,,,,,,,,,,,,,,,,,,,,,,,,,,,,
,,,,,,,,,,,,,,,,,5e1797da928b15062260e30e,70,2022-02-12_11h47.11.370,lexical_decision_task_DD_L6,2021.2.3,Win32,60.92731371,,,,,,,,,,,,1.4155,1,,,,,,,,,,,,,,m,1,1.4155,,,,,,,,0.036111125,-0.257407419,0,0,0,,0,10,10,50,1,PILOT,HB,m,m,./images/PILOTHB.png,,,,,,,,,,,,,,,,,,,,,,,,,,,,,,,,,,
,,,,,,,,,,,,,,,,,5e1797da928b15062260e30e,70,2022-02-12_11h47.11.370,lexical_decision_task_DD_L6,2021.2.3,Win32,60.92731371,,,,,,,,,,,,1.02,1,,,,,,,,,,,,,,m,1,1.02,,,,,,,,0.036111125,-0.257407419,0,0,0,,0,11,11,49,1,BISHOP,C,m,m,./images/BISHOP.png,,,,,,,,,,,,,,,,,,,,,,,,,,,,,,,,,,
,,,,,,,,,,,,,,,,,5e1797da928b15062260e30e,70,2022-02-12_11h47.11.370,lexical_decision_task_DD_L6,2021.2.3,Win32,60.92731371,,,,,,,,,,,,1.056,1,,,,,,,,,,,,,,z,1,1.056,,,,,,,,0.036111125,-0.257407419,0,0,0,,0,12,12,142,1,PLASK,HB,z,z,./images/PLASKHB.png,,,,,,,,,,,,,,,,,,,,,,,,,,,,,,,,,,
,,,,,,,,,,,,,,,,,5e1797da928b15062260e30e,70,2022-02-12_11h47.11.370,lexical_decision_task_DD_L6,2021.2.3,Win32,60.92731371,,,,,,,,,,,,0.9073,1,,,,,,,,,,,,,,z,1,0.9073,,,,,,,,0.036111125,-0.257407419,0,0,0,,0,13,13,135,1,JOODY,C,z,z,./images/JOODY.png,,,,,,,,,,,,,,,,,,,,,,,,,,,,,,,,,,
,,,,,,,,,,,,,,,,,5e1797da928b15062260e30e,70,2022-02-12_11h47.11.370,lexical_decision_task_DD_L6,2021.2.3,Win32,60.92731371,,,,,,,,,,,,0.885,1,,,,,,,,,,,,,,z,1,0.885,,,,,,,,0.036111125,-0.257407419,0,0,0,,0,14,14,161,1,BLAPS,LB,z,z,./images/BLAPSLB.png,,,,,,,,,,,,,,,,,,,,,,,,,,,,,,,,,,
,,,,,,,,,,,,,,,,,5e1797da928b15062260e30e,70,2022-02-12_11h47.11.370,lexical_decision_task_DD_L6,2021.2.3,Win32,60.92731371,,,,,,,,,,,,1.0001,1,,,,,,,,,,,,,,z,1,1.0001,,,,,,,,0.036111125,-0.257407419,0,0,0,,0,15,15,88,1,GLUSH,HB,z,z,./images/GLUSHHB.png,,,,,,,,,,,,,,,,,,,,,,,,,,,,,,,,,,
,,,,,,,,,,,,,,,,,5e1797da928b15062260e30e,70,2022-02-12_11h47.11.370,lexical_decision_task_DD_L6,2021.2.3,Win32,60.92731371,,,,,,,,,,,,0.8494,1,,,,,,,,,,,,,,z,1,0.8494,,,,,,,,0.036111125,-0.257407419,0,0,0,,0,16,16,156,1,HIXES,C,z,z,./images/HIXES.png,,,,,,,,,,,,,,,,,,,,,,,,,,,,,,,,,,
,,,,,,,,,,,,,,,,,5e1797da928b15062260e30e,70,2022-02-12_11h47.11.370,lexical_decision_task_DD_L6,2021.2.3,Win32,60.92731371,,,,,,,,,,,,1.2738,1,,,,,,,,,,,,,,m,1,1.2738,,,,,,,,0.036111125,-0.257407419,0,0,0,,0,17,17,56,1,HEATER,HB,m,m,./images/HEATERHB.png,,,,,,,,,,,,,,,,,,,,,,,,,,,,,,,,,,
,,,,,,,,,,,,,,,,,5e1797da928b15062260e30e,70,2022-02-12_11h47.11.370,lexical_decision_task_DD_L6,2021.2.3,Win32,60.92731371,,,,,,,,,,,,1.1154,1,,,,,,,,,,,,,,m,1,1.1154,,,,,,,,0.036111125,-0.257407419,0,0,0,,0,18,18,9,1,DIVER,LB,m,m,./images/DIVERLB.png,,,,,,,,,,,,,,,,,,,,,,,,,,,,,,,,,,
,,,,,,,,,,,,,,,,,5e1797da928b15062260e30e,70,2022-02-12_11h47.11.370,lexical_decision_task_DD_L6,2021.2.3,Win32,60.92731371,,,,,,,,,,,,0.6985,1,,,,,,,,,,,,,,m,1,0.6985,,,,,,,,0.036111125,-0.257407419,0,0,0,,0,19,19,79,1,RULER,C,m,m,./images/RULER.png,,,,,,,,,,,,,,,,,,,,,,,,,,,,,,,,,,
,,,,,,,,,,,,,,,,,5e1797da928b15062260e30e,70,2022-02-12_11h47.11.370,lexical_decision_task_DD_L6,2021.2.3,Win32,60.92731371,,,,,,,,,,,,0.7175,1,,,,,,,,,,,,,,m,1,0.7175,,,,,,,,0.036111125,-0.257407419,0,0,0,,0,20,20,39,1,CANDY,LB,m,m,./images/CANDYLB.png,,,,,,,,,,,,,,,,,,,,,,,,,,,,,,,,,,
,,,,,,,,,,,,,,,,,5e1797da928b15062260e30e,70,2022-02-12_11h47.11.370,lexical_decision_task_DD_L6,2021.2.3,Win32,60.92731371,,,,,,,,,,,,0.8651,1,,,,,,,,,,,,,,z,1,0.8651,,,,,,,,0.036111125,-0.257407419,0,0,0,,0,21,21,116,1,BALGY,LB,z,z,./images/BALGYLB.png,,,,,,,,,,,,,,,,,,,,,,,,,,,,,,,,,,
,,,,,,,,,,,,,,,,,5e1797da928b15062260e30e,70,2022-02-12_11h47.11.370,lexical_decision_task_DD_L6,2021.2.3,Win32,60.92731371,,,,,,,,,,,,1.2598,1,,,,,,,,,,,,,,m,1,1.2598,,,,,,,,0.036111125,-0.257407419,0,0,0,,0,22,22,29,1,PISTOL,HB,m,m,./images/PISTOLHB.png,,,,,,,,,,,,,,,,,,,,,,,,,,,,,,,,,,
,,,,,,,,,,,,,,,,,5e1797da928b15062260e30e,70,2022-02-12_11h47.11.370,lexical_decision_task_DD_L6,2021.2.3,Win32,60.92731371,,,,,,,,,,,,1.0175,1,,,,,,,,,,,,,,z,1,1.0175,,,,,,,,0.036111125,-0.257407419,0,0,0,,0,23,23,97,1,CHIDS,HB,z,z,./images/CHIDSHB.png,,,,,,,,,,,,,,,,,,,,,,,,,,,,,,,,,,
,,,,,,,,,,,,,,,,,5e1797da928b15062260e30e,70,2022-02-12_11h47.11.370,lexical_decision_task_DD_L6,2021.2.3,Win32,60.92731371,,,,,,,,,,,,1.0188,1,,,,,,,,,,,,,,z,1,1.0188,,,,,,,,0.036111125,-0.257407419,0,0,0,,0,24,24,114,1,RIKES,C,z,z,./images/RIKES.png,,,,,,,,,,,,,,,,,,,,,,,,,,,,,,,,,,
,,,,,,,,,,,,,,,,,5e1797da928b15062260e30e,70,2022-02-12_11h47.11.370,lexical_decision_task_DD_L6,2021.2.3,Win32,60.92731371,,,,,,,,,,,,0.9174,1,,,,,,,,,,,,,,z,1,0.9174,,,,,,,,0.036111125,-0.257407419,0,0,0,,0,25,25,153,1,CLUPS,C,z,z,./images/CLUPS.png,,,,,,,,,,,,,,,,,,,,,,,,,,,,,,,,,,
,,,,,,,,,,,,,,,,,5e1797da928b15062260e30e,70,2022-02-12_11h47.11.370,lexical_decision_task_DD_L6,2021.2.3,Win32,60.92731371,,,,,,,,,,,,1.1271,1,,,,,,,,,,,,,,z,1,1.1271,,,,,,,,0.036111125,-0.257407419,0,0,0,,0,26,26,149,1,VEASE,LB,z,z,./images/VEASELB.png,,,,,,,,,,,,,,,,,,,,,,,,,,,,,,,,,,
,,,,,,,,,,,,,,,,,5e1797da928b15062260e30e,70,2022-02-12_11h47.11.370,lexical_decision_task_DD_L6,2021.2.3,Win32,60.92731371,,,,,,,,,,,,0.9165,1,,,,,,,,,,,,,,z,1,0.9165,,,,,,,,0.036111125,-0.257407419,0,0,0,,0,27,27,117,1,STEEG,C,z,z,./images/STEEG.png,,,,,,,,,,,,,,,,,,,,,,,,,,,,,,,,,,
,,,,,,,,,,,,,,,,,5e1797da928b15062260e30e,70,2022-02-12_11h47.11.370,lexical_decision_task_DD_L6,2021.2.3,Win32,60.92731371,,,,,,,,,,,,0.9827,1,,,,,,,,,,,,,,z,1,0.9827,,,,,,,,0.036111125,-0.257407419,0,0,0,,0,28,28,85,1,CHULK,HB,z,z,./images/CHULKHB.png,,,,,,,,,,,,,,,,,,,,,,,,,,,,,,,,,,
,,,,,,,,,,,,,,,,,5e1797da928b15062260e30e,70,2022-02-12_11h47.11.370,lexical_decision_task_DD_L6,2021.2.3,Win32,60.92731371,,,,,,,,,,,,1.018,1,,,,,,,,,,,,,,z,1,1.018,,,,,,,,0.036111125,-0.257407419,0,0,0,,0,29,29,146,1,MOOST,LB,z,z,./images/MOOSTLB.png,,,,,,,,,,,,,,,,,,,,,,,,,,,,,,,,,,
,,,,,,,,,,,,,,,,,5e1797da928b15062260e30e,70,2022-02-12_11h47.11.370,lexical_decision_task_DD_L6,2021.2.3,Win32,60.92731371,,,,,,,,,,,,1.5231,1,,,,,,,,,,,,,,m,1,1.5231,,,,,,,,0.036111125,-0.257407419,0,0,0,,0,30,30,33,1,SAUNA,LB,m,m,./images/SAUNALB.png,,,,,,,,,,,,,,,,,,,,,,,,,,,,,,,,,,
,,,,,,,,,,,,,,,,,5e1797da928b15062260e30e,70,2022-02-12_11h47.11.370,lexical_decision_task_DD_L6,2021.2.3,Win32,60.92731371,,,,,,,,,,,,0.75,1,,,,,,,,,,,,,,m,1,0.75,,,,,,,,0.036111125,-0.257407419,0,0,0,,0,31,31,34,1,RAZOR,C,m,m,./images/RAZOR.png,,,,,,,,,,,,,,,,,,,,,,,,,,,,,,,,,,
,,,,,,,,,,,,,,,,,5e1797da928b15062260e30e,70,2022-02-12_11h47.11.370,lexical_decision_task_DD_L6,2021.2.3,Win32,60.92731371,,,,,,,,,,,,1.0318,1,,,,,,,,,,,,,,z,1,1.0318,,,,,,,,0.036111125,-0.257407419,0,0,0,,0,32,32,113,1,LINEW,LB,z,z,./images/LINEWLB.png,,,,,,,,,,,,,,,,,,,,,,,,,,,,,,,,,,
,,,,,,,,,,,,,,,,,5e1797da928b15062260e30e,70,2022-02-12_11h47.11.370,lexical_decision_task_DD_L6,2021.2.3,Win32,60.92731371,,,,,,,,,,,,1.083,1,,,,,,,,,,,,,,m,1,1.083,,,,,,,,0.036111125,-0.257407419,0,0,0,,0,33,33,47,1,LAGOON,HB,m,m,./images/LAGOONHB.png,,,,,,,,,,,,,,,,,,,,,,,,,,,,,,,,,,
,,,,,,,,,,,,,,,,,5e1797da928b15062260e30e,70,2022-02-12_11h47.11.370,lexical_decision_task_DD_L6,2021.2.3,Win32,60.92731371,,,,,,,,,,,,1.3217,0,,,,,,,,,,,,,,m,0,1.3217,,,,,,,,0.036111125,-0.257407419,0,0,0,,0,34,34,157,1,INLER,HB,z,z,./images/INLERHB.png,,,,,,,,,,,,,,,,,,,,,,,,,,,,,,,,,,
,,,,,,,,,,,,,,,,,5e1797da928b15062260e30e,70,2022-02-12_11h47.11.370,lexical_decision_task_DD_L6,2021.2.3,Win32,60.92731371,,,,,,,,,,,,1.6164,0,,,,,,,,,,,,,,m,0,1.6164,,,,,,,,0.036111125,-0.257407419,0,0,0,,0,35,35,166,1,SHORY,HB,z,z,./images/SHORYHB.png,,,,,,,,,,,,,,,,,,,,,,,,,,,,,,,,,,
,,,,,,,,,,,,,,,,,5e1797da928b15062260e30e,70,2022-02-12_11h47.11.370,lexical_decision_task_DD_L6,2021.2.3,Win32,60.92731371,,,,,,,,,,,,1.1388,1,,,,,,,,,,,,,,m,1,1.1388,,,,,,,,0.036111125,-0.257407419,0,0,0,,0,36,36,6,1,STAIN,LB,m,m,./images/STAINLB.png,,,,,,,,,,,,,,,,,,,,,,,,,,,,,,,,,,
,,,,,,,,,,,,,,,,,5e1797da928b15062260e30e,70,2022-02-12_11h47.11.370,lexical_decision_task_DD_L6,2021.2.3,Win32,60.92731371,,,,,,,,,,,,1.1867,1,,,,,,,,,,,,,,m,1,1.1867,,,,,,,,0.036111125,-0.257407419,0,0,0,,0,37,37,59,1,BRUSH,HB,m,m,./images/BRUSHHB.png,,,,,,,,,,,,,,,,,,,,,,,,,,,,,,,,,,
,,,,,,,,,,,,,,,,,5e1797da928b15062260e30e,70,2022-02-12_11h47.11.370,lexical_decision_task_DD_L6,2021.2.3,Win32,60.92731371,,,,,,,,,,,,0.974,1,,,,,,,,,,,,,,z,1,0.974,,,,,,,,0.036111125,-0.257407419,0,0,0,,0,38,38,132,1,SCIFF,C,z,z,./images/SCIFF.png,,,,,,,,,,,,,,,,,,,,,,,,,,,,,,,,,,
,,,,,,,,,,,,,,,,,5e1797da928b15062260e30e,70,2022-02-12_11h47.11.370,lexical_decision_task_DD_L6,2021.2.3,Win32,60.92731371,,,,,,,,,,,,0.8882,1,,,,,,,,,,,,,,m,1,0.8882,,,,,,,,0.036111125,-0.257407419,0,0,0,,0,39,39,77,1,WHEEL,HB,m,m,./images/WHEELHB.png,,,,,,,,,,,,,,,,,,,,,,,,,,,,,,,,,,
,,,,,,,,,,,,,,,,,5e1797da928b15062260e30e,70,2022-02-12_11h47.11.370,lexical_decision_task_DD_L6,2021.2.3,Win32,60.92731371,,,,,,,,,,,,0.7764,1,,,,,,,,,,,,,,m,1,0.7764,,,,,,,,0.036111125,-0.257407419,0,0,0,,0,40,40,10,1,GARDEN,C,m,m,./images/GARDEN.png,,,,,,,,,,,,,,,,,,,,,,,,,,,,,,,,,,
,,,,,,,,,,,,,,,,,5e1797da928b15062260e30e,70,2022-02-12_11h47.11.370,lexical_decision_task_DD_L6,2021.2.3,Win32,60.92731371,,,,,,,,,,,,0.7087,1,,,,,,,,,,,,,,m,1,0.7087,,,,,,,,0.036111125,-0.257407419,0,0,0,space,0,41,41,73,1,GLOVE,C,m,m,./images/GLOVE.png,41.6154,,,,,,,,,,,,,,,,,,,,,,,,,,,,,,,,,
,,,,,,,,,,,,,,,,,5e1797da928b15062260e30e,70,2022-02-12_11h47.11.370,lexical_decision_task_DD_L6,2021.2.3,Win32,60.92731371,,,,,,,,,,,,1.0206,1,,,,,,,,,,,,,,m,1,1.0206,,,,,,,,0.036111125,-0.257407419,0,0,0,,0,42,42,45,1,MONKEY,LB,m,m,./images/MONKEYLB.png,,,,,,,,,,,,,,,,,,,,,,,,,,,,,,,,,,
,,,,,,,,,,,,,,,,,5e1797da928b15062260e30e,70,2022-02-12_11h47.11.370,lexical_decision_task_DD_L6,2021.2.3,Win32,60.92731371,,,,,,,,,,,,1.149,0,,,,,,,,,,,,,,m,0,1.149,,,,,,,,0.036111125,-0.257407419,0,0,0,,0,43,43,107,1,FASKS,LB,z,z,./images/FASKSLB.png,,,,,,,,,,,,,,,,,,,,,,,,,,,,,,,,,,
,,,,,,,,,,,,,,,,,5e1797da928b15062260e30e,70,2022-02-12_11h47.11.370,lexical_decision_task_DD_L6,2021.2.3,Win32,60.92731371,,,,,,,,,,,,0.9502,1,,,,,,,,,,,,,,z,1,0.9502,,,,,,,,0.036111125,-0.257407419,0,0,0,,0,44,44,152,1,FRAIN,LB,z,z,./images/FRAINLB.png,,,,,,,,,,,,,,,,,,,,,,,,,,,,,,,,,,
,,,,,,,,,,,,,,,,,5e1797da928b15062260e30e,70,2022-02-12_11h47.11.370,lexical_decision_task_DD_L6,2021.2.3,Win32,60.92731371,,,,,,,,,,,,0.9353,1,,,,,,,,,,,,,,z,1,0.9353,,,,,,,,0.036111125,-0.257407419,0,0,0,,0,45,45,147,1,ZOLES,C,z,z,./images/ZOLES.png,,,,,,,,,,,,,,,,,,,,,,,,,,,,,,,,,,
,,,,,,,,,,,,,,,,,5e1797da928b15062260e30e,70,2022-02-12_11h47.11.370,lexical_decision_task_DD_L6,2021.2.3,Win32,60.92731371,,,,,,,,,,,,0.7137,1,,,,,,,,,,,,,,m,1,0.7137,,,,,,,,0.036111125,-0.257407419,0,0,0,,0,46,46,43,1,STOOL,C,m,m,./images/STOOL.png,,,,,,,,,,,,,,,,,,,,,,,,,,,,,,,,,,
,,,,,,,,,,,,,,,,,5e1797da928b15062260e30e,70,2022-02-12_11h47.11.370,lexical_decision_task_DD_L6,2021.2.3,Win32,60.92731371,,,,,,,,,,,,0.8133,1,,,,,,,,,,,,,,z,1,0.8133,,,,,,,,0.036111125,-0.257407419,0,0,0,,0,47,47,93,1,SMONE,C,z,z,./images/SMONE.png,,,,,,,,,,,,,,,,,,,,,,,,,,,,,,,,,,
,,,,,,,,,,,,,,,,,5e1797da928b15062260e30e,70,2022-02-12_11h47.11.370,lexical_decision_task_DD_L6,2021.2.3,Win32,60.92731371,,,,,,,,,,,,1.0049,1,,,,,,,,,,,,,,m,1,1.0049,,,,,,,,0.036111125,-0.257407419,0,0,0,,0,48,48,38,1,ENGINE,HB,m,m,./images/ENGINEHB.png,,,,,,,,,,,,,,,,,,,,,,,,,,,,,,,,,,
,,,,,,,,,,,,,,,,,5e1797da928b15062260e30e,70,2022-02-12_11h47.11.370,lexical_decision_task_DD_L6,2021.2.3,Win32,60.92731371,,,,,,,,,,,,1.2871,1,,,,,,,,,,,,,,z,1,1.2871,,,,,,,,0.036111125,-0.257407419,0,0,0,,0,49,49,139,1,BLEAR,HB,z,z,./images/BLEARHB.png,,,,,,,,,,,,,,,,,,,,,,,,,,,,,,,,,,
,,,,,,,,,,,,,,,,,5e1797da928b15062260e30e,70,2022-02-12_11h47.11.370,lexical_decision_task_DD_L6,2021.2.3,Win32,60.92731371,,,,,,,,,,,,0.8953,1,,,,,,,,,,,,,,z,1,0.8953,,,,,,,,0.036111125,-0.257407419,0,0,0,,0,50,50,145,1,LAMEL,HB,z,z,./images/LAMELHB.png,,,,,,,,,,,,,,,,,,,,,,,,,,,,,,,,,,
,,,,,,,,,,,,,,,,,5e1797da928b15062260e30e,70,2022-02-12_11h47.11.370,lexical_decision_task_DD_L6,2021.2.3,Win32,60.92731371,,,,,,,,,,,,0.6929,1,,,,,,,,,,,,,,m,1,0.6929,,,,,,,,0.036111125,-0.257407419,0,0,0,,0,51,51,58,1,CANOE,C,m,m,./images/CANOE.png,,,,,,,,,,,,,,,,,,,,,,,,,,,,,,,,,,
,,,,,,,,,,,,,,,,,5e1797da928b15062260e30e,70,2022-02-12_11h47.11.370,lexical_decision_task_DD_L6,2021.2.3,Win32,60.92731371,,,,,,,,,,,,1.0225,1,,,,,,,,,,,,,,m,1,1.0225,,,,,,,,0.036111125,-0.257407419,0,0,0,,0,52,52,53,1,POSTER,HB,m,m,./images/POSTERHB.png,,,,,,,,,,,,,,,,,,,,,,,,,,,,,,,,,,
,,,,,,,,,,,,,,,,,5e1797da928b15062260e30e,70,2022-02-12_11h47.11.370,lexical_decision_task_DD_L6,2021.2.3,Win32,60.92731371,,,,,,,,,,,,0.6988,1,,,,,,,,,,,,,,m,1,0.6988,,,,,,,,0.036111125,-0.257407419,0,0,0,,0,53,53,46,1,MUMMY,C,m,m,./images/MUMMY.png,,,,,,,,,,,,,,,,,,,,,,,,,,,,,,,,,,
,,,,,,,,,,,,,,,,,5e1797da928b15062260e30e,70,2022-02-12_11h47.11.370,lexical_decision_task_DD_L6,2021.2.3,Win32,60.92731371,,,,,,,,,,,,1.1709,1,,,,,,,,,,,,,,z,1,1.1709,,,,,,,,0.036111125,-0.257407419,0,0,0,,0,54,54,121,1,CEERS,HB,z,z,./images/CEERSHB.png,,,,,,,,,,,,,,,,,,,,,,,,,,,,,,,,,,
,,,,,,,,,,,,,,,,,5e1797da928b15062260e30e,70,2022-02-12_11h47.11.370,lexical_decision_task_DD_L6,2021.2.3,Win32,60.92731371,,,,,,,,,,,,0.7874,1,,,,,,,,,,,,,,z,1,0.7874,,,,,,,,0.036111125,-0.257407419,0,0,0,,0,55,55,108,1,GRUET,C,z,z,./images/GRUET.png,,,,,,,,,,,,,,,,,,,,,,,,,,,,,,,,,,
,,,,,,,,,,,,,,,,,5e1797da928b15062260e30e,70,2022-02-12_11h47.11.370,lexical_decision_task_DD_L6,2021.2.3,Win32,60.92731371,,,,,,,,,,,,0.7117,1,,,,,,,,,,,,,,z,1,0.7117,,,,,,,,0.036111125,-0.257407419,0,0,0,,0,56,56,138,1,PLICE,C,z,z,./images/PLICE.png,,,,,,,,,,,,,,,,,,,,,,,,,,,,,,,,,,
,,,,,,,,,,,,,,,,,5e1797da928b15062260e30e,70,2022-02-12_11h47.11.370,lexical_decision_task_DD_L6,2021.2.3,Win32,60.92731371,,,,,,,,,,,,0.6858,1,,,,,,,,,,,,,,m,1,0.6858,,,,,,,,0.036111125,-0.257407419,0,0,0,,0,57,57,69,1,ARROW,LB,m,m,./images/ARROWLB.png,,,,,,,,,,,,,,,,,,,,,,,,,,,,,,,,,,
,,,,,,,,,,,,,,,,,5e1797da928b15062260e30e,70,2022-02-12_11h47.11.370,lexical_decision_task_DD_L6,2021.2.3,Win32,60.92731371,,,,,,,,,,,,0.8039,1,,,,,,,,,,,,,,z,1,0.8039,,,,,,,,0.036111125,-0.257407419,0,0,0,,0,58,58,159,1,CUDDY,C,z,z,./images/CUDDY.png,,,,,,,,,,,,,,,,,,,,,,,,,,,,,,,,,,
,,,,,,,,,,,,,,,,,5e1797da928b15062260e30e,70,2022-02-12_11h47.11.370,lexical_decision_task_DD_L6,2021.2.3,Win32,60.92731371,,,,,,,,,,,,0.7945,1,,,,,,,,,,,,,,m,1,0.7945,,,,,,,,0.036111125,-0.257407419,0,0,0,,0,59,59,13,1,BUNNY,C,m,m,./images/BUNNY.png,,,,,,,,,,,,,,,,,,,,,,,,,,,,,,,,,,
,,,,,,,,,,,,,,,,,5e1797da928b15062260e30e,70,2022-02-12_11h47.11.370,lexical_decision_task_DD_L6,2021.2.3,Win32,60.92731371,,,,,,,,,,,,1.6135,0,,,,,,,,,,,,,,z,0,1.6135,,,,,,,,0.036111125,-0.257407419,0,0,0,,0,60,60,14,1,FENCE,HB,m,m,./images/FENCEHB.png,,,,,,,,,,,,,,,,,,,,,,,,,,,,,,,,,,
,,,,,,,,,,,,,,,,,5e1797da928b15062260e30e,70,2022-02-12_11h47.11.370,lexical_decision_task_DD_L6,2021.2.3,Win32,60.92731371,,,,,,,,,,,,1.0806,1,,,,,,,,,,,,,,m,1,1.0806,,,,,,,,0.036111125,-0.257407419,0,0,0,,0,61,61,18,1,PARCEL,LB,m,m,./images/PARCELLB.png,,,,,,,,,,,,,,,,,,,,,,,,,,,,,,,,,,
,,,,,,,,,,,,,,,,,5e1797da928b15062260e30e,70,2022-02-12_11h47.11.370,lexical_decision_task_DD_L6,2021.2.3,Win32,60.92731371,,,,,,,,,,,,0.8693,1,,,,,,,,,,,,,,z,1,0.8693,,,,,,,,0.036111125,-0.257407419,0,0,0,,0,62,62,141,1,PLEET,C,z,z,./images/PLEET.png,,,,,,,,,,,,,,,,,,,,,,,,,,,,,,,,,,
,,,,,,,,,,,,,,,,,5e1797da928b15062260e30e,70,2022-02-12_11h47.11.370,lexical_decision_task_DD_L6,2021.2.3,Win32,60.92731371,,,,,,,,,,,,0.7098,1,,,,,,,,,,,,,,m,1,0.7098,,,,,,,,0.036111125,-0.257407419,0,0,0,,0,63,63,63,1,BAKER,LB,m,m,./images/BAKERLB.png,,,,,,,,,,,,,,,,,,,,,,,,,,,,,,,,,,
,,,,,,,,,,,,,,,,,5e1797da928b15062260e30e,70,2022-02-12_11h47.11.370,lexical_decision_task_DD_L6,2021.2.3,Win32,60.92731371,,,,,,,,,,,,0.8858,1,,,,,,,,,,,,,,z,1,0.8858,,,,,,,,0.036111125,-0.257407419,0,0,0,,0,64,64,101,1,GLEET,LB,z,z,./images/GLEETLB.png,,,,,,,,,,,,,,,,,,,,,,,,,,,,,,,,,,
,,,,,,,,,,,,,,,,,5e1797da928b15062260e30e,70,2022-02-12_11h47.11.370,lexical_decision_task_DD_L6,2021.2.3,Win32,60.92731371,,,,,,,,,,,,1.1784,1,,,,,,,,,,,,,,m,1,1.1784,,,,,,,,0.036111125,-0.257407419,0,0,0,,0,65,65,65,1,SPINE,HB,m,m,./images/SPINEHB.png,,,,,,,,,,,,,,,,,,,,,,,,,,,,,,,,,,
,,,,,,,,,,,,,,,,,5e1797da928b15062260e30e,70,2022-02-12_11h47.11.370,lexical_decision_task_DD_L6,2021.2.3,Win32,60.92731371,,,,,,,,,,,,1.3189,1,,,,,,,,,,,,,,z,1,1.3189,,,,,,,,0.036111125,-0.257407419,0,0,0,,0,66,66,130,1,CRILL,HB,z,z,./images/CRILLHB.png,,,,,,,,,,,,,,,,,,,,,,,,,,,,,,,,,,
,,,,,,,,,,,,,,,,,5e1797da928b15062260e30e,70,2022-02-12_11h47.11.370,lexical_decision_task_DD_L6,2021.2.3,Win32,60.92731371,,,,,,,,,,,,0.8942,1,,,,,,,,,,,,,,m,1,0.8942,,,,,,,,0.036111125,-0.257407419,0,0,0,,0,67,67,76,1,MIDGET,C,m,m,./images/MIDGET.png,,,,,,,,,,,,,,,,,,,,,,,,,,,,,,,,,,
,,,,,,,,,,,,,,,,,5e1797da928b15062260e30e,70,2022-02-12_11h47.11.370,lexical_decision_task_DD_L6,2021.2.3,Win32,60.92731371,,,,,,,,,,,,0.7299,1,,,,,,,,,,,,,,m,1,0.7299,,,,,,,,0.036111125,-0.257407419,0,0,0,,0,68,68,7,1,WAGON,C,m,m,./images/WAGON.png,,,,,,,,,,,,,,,,,,,,,,,,,,,,,,,,,,
,,,,,,,,,,,,,,,,,5e1797da928b15062260e30e,70,2022-02-12_11h47.11.370,lexical_decision_task_DD_L6,2021.2.3,Win32,60.92731371,,,,,,,,,,,,0.8899,1,,,,,,,,,,,,,,z,1,0.8899,,,,,,,,0.036111125,-0.257407419,0,0,0,,0,69,69,123,1,SEDGE,C,z,z,./images/SEDGE.png,,,,,,,,,,,,,,,,,,,,,,,,,,,,,,,,,,
,,,,,,,,,,,,,,,,,5e1797da928b15062260e30e,70,2022-02-12_11h47.11.370,lexical_decision_task_DD_L6,2021.2.3,Win32,60.92731371,,,,,,,,,,,,0.9517,0,,,,,,,,,,,,,,z,0,0.9517,,,,,,,,0.036111125,-0.257407419,0,0,0,,0,70,70,35,1,LLAMA,HB,m,m,./images/LLAMAHB.png,,,,,,,,,,,,,,,,,,,,,,,,,,,,,,,,,,
,,,,,,,,,,,,,,,,,5e1797da928b15062260e30e,70,2022-02-12_11h47.11.370,lexical_decision_task_DD_L6,2021.2.3,Win32,60.92731371,,,,,,,,,,,,2.1004,1,,,,,,,,,,,,,,z,1,2.1004,,,,,,,,0.036111125,-0.257407419,0,0,0,,0,71,71,155,1,CANGY,LB,z,z,./images/CANGYLB.png,,,,,,,,,,,,,,,,,,,,,,,,,,,,,,,,,,
,,,,,,,,,,,,,,,,,5e1797da928b15062260e30e,70,2022-02-12_11h47.11.370,lexical_decision_task_DD_L6,2021.2.3,Win32,60.92731371,,,,,,,,,,,,1.0009,1,,,,,,,,,,,,,,z,1,1.0009,,,,,,,,0.036111125,-0.257407419,0,0,0,,0,72,72,165,1,TROWN,C,z,z,./images/TROWN.png,,,,,,,,,,,,,,,,,,,,,,,,,,,,,,,,,,
,,,,,,,,,,,,,,,,,5e1797da928b15062260e30e,70,2022-02-12_11h47.11.370,lexical_decision_task_DD_L6,2021.2.3,Win32,60.92731371,,,,,,,,,,,,1.2419,1,,,,,,,,,,,,,,z,1,1.2419,,,,,,,,0.036111125,-0.257407419,0,0,0,,0,73,73,160,1,VEETS,HB,z,z,./images/VEETSHB.png,,,,,,,,,,,,,,,,,,,,,,,,,,,,,,,,,,
,,,,,,,,,,,,,,,,,5e1797da928b15062260e30e,70,2022-02-12_11h47.11.370,lexical_decision_task_DD_L6,2021.2.3,Win32,60.92731371,,,,,,,,,,,,1.4444,0,,,,,,,,,,,,,,z,0,1.4444,,,,,,,,0.036111125,-0.257407419,0,0,0,,0,74,74,20,1,GRANNY,HB,m,m,./images/GRANNYHB.png,,,,,,,,,,,,,,,,,,,,,,,,,,,,,,,,,,
,,,,,,,,,,,,,,,,,5e1797da928b15062260e30e,70,2022-02-12_11h47.11.370,lexical_decision_task_DD_L6,2021.2.3,Win32,60.92731371,,,,,,,,,,,,0.8476,1,,,,,,,,,,,,,,m,1,0.8476,,,,,,,,0.036111125,-0.257407419,0,0,0,,0,75,75,64,1,BRIDE,C,m,m,./images/BRIDE.png,,,,,,,,,,,,,,,,,,,,,,,,,,,,,,,,,,
,,,,,,,,,,,,,,,,,5e1797da928b15062260e30e,70,2022-02-12_11h47.11.370,lexical_decision_task_DD_L6,2021.2.3,Win32,60.92731371,,,,,,,,,,,,0.7727,1,,,,,,,,,,,,,,m,1,0.7727,,,,,,,,0.036111125,-0.257407419,0,0,0,,0,76,76,27,1,BUTTER,LB,m,m,./images/BUTTERLB.png,,,,,,,,,,,,,,,,,,,,,,,,,,,,,,,,,,
,,,,,,,,,,,,,,,,,5e1797da928b15062260e30e,70,2022-02-12_11h47.11.370,lexical_decision_task_DD_L6,2021.2.3,Win32,60.92731371,,,,,,,,,,,,1.0078,1,,,,,,,,,,,,,,z,1,1.0078,,,,,,,,0.036111125,-0.257407419,0,0,0,,0,77,77,112,1,MYING,HB,z,z,./images/MYINGHB.png,,,,,,,,,,,,,,,,,,,,,,,,,,,,,,,,,,
,,,,,,,,,,,,,,,,,5e1797da928b15062260e30e,70,2022-02-12_11h47.11.370,lexical_decision_task_DD_L6,2021.2.3,Win32,60.92731371,,,,,,,,,,,,0.8525,1,,,,,,,,,,,,,,m,1,0.8525,,,,,,,,0.036111125,-0.257407419,0,0,0,,0,78,78,36,1,BOILER,LB,m,m,./images/BOILERLB.png,,,,,,,,,,,,,,,,,,,,,,,,,,,,,,,,,,
,,,,,,,,,,,,,,,,,5e1797da928b15062260e30e,70,2022-02-12_11h47.11.370,lexical_decision_task_DD_L6,2021.2.3,Win32,60.92731371,,,,,,,,,,,,1.1356,1,,,,,,,,,,,,,,z,1,1.1356,,,,,,,,0.036111125,-0.257407419,0,0,0,,0,79,79,95,1,HANTY,LB,z,z,./images/HANTYLB.png,,,,,,,,,,,,,,,,,,,,,,,,,,,,,,,,,,
,,,,,,,,,,,,,,,,,5e1797da928b15062260e30e,70,2022-02-12_11h47.11.370,lexical_decision_task_DD_L6,2021.2.3,Win32,60.92731371,,,,,,,,,,,,1.337,1,,,,,,,,,,,,,,m,1,1.337,,,,,,,,0.036111125,-0.257407419,0,0,0,,0,80,80,83,1,WHISKY,HB,m,m,./images/WHISKYHB.png,,,,,,,,,,,,,,,,,,,,,,,,,,,,,,,,,,
,,,,,,,,,,,,,,,,,5e1797da928b15062260e30e,70,2022-02-12_11h47.11.370,lexical_decision_task_DD_L6,2021.2.3,Win32,60.92731371,,,,,,,,,,,,1.0767,1,,,,,,,,,,,,,,z,1,1.0767,,,,,,,,0.036111125,-0.257407419,0,0,0,,0,81,81,84,1,HAXES,C,z,z,./images/HAXES.png,,,,,,,,,,,,,,,,,,,,,,,,,,,,,,,,,,
,,,,,,,,,,,,,,,,,5e1797da928b15062260e30e,70,2022-02-12_11h47.11.370,lexical_decision_task_DD_L6,2021.2.3,Win32,60.92731371,,,,,,,,,,,,1.179,1,,,,,,,,,,,,,,z,1,1.179,,,,,,,,0.036111125,-0.257407419,0,0,0,,0,82,82,103,1,FLORT,HB,z,z,./images/FLORTHB.png,,,,,,,,,,,,,,,,,,,,,,,,,,,,,,,,,,
,,,,,,,,,,,,,,,,,5e1797da928b15062260e30e,70,2022-02-12_11h47.11.370,lexical_decision_task_DD_L6,2021.2.3,Win32,60.92731371,,,,,,,,,,,,1.2349,1,,,,,,,,,,,,,,m,1,1.2349,,,,,,,,0.036111125,-0.257407419,0,0,0,space,0,83,83,80,1,PLANET,HB,m,m,./images/PLANETHB.png,35.8309,,,,,,,,,,,,,,,,,,,,,,,,,,,,,,,,,
,,,,,,,,,,,,,,,,,5e1797da928b15062260e30e,70,2022-02-12_11h47.11.370,lexical_decision_task_DD_L6,2021.2.3,Win32,60.92731371,,,,,,,,,,,,0.6645,1,,,,,,,,,,,,,,m,1,0.6645,,,,,,,,0.036111125,-0.257407419,0,0,0,,0,84,84,52,1,DESERT,C,m,m,./images/DESERT.png,,,,,,,,,,,,,,,,,,,,,,,,,,,,,,,,,,
,,,,,,,,,,,,,,,,,5e1797da928b15062260e30e,70,2022-02-12_11h47.11.370,lexical_decision_task_DD_L6,2021.2.3,Win32,60.92731371,,,,,,,,,,,,0.7994,1,,,,,,,,,,,,,,z,1,0.7994,,,,,,,,0.036111125,-0.257407419,0,0,0,,0,85,85,167,1,ZONET,LB,z,z,./images/ZONETLB.png,,,,,,,,,,,,,,,,,,,,,,,,,,,,,,,,,,
,,,,,,,,,,,,,,,,,5e1797da928b15062260e30e,70,2022-02-12_11h47.11.370,lexical_decision_task_DD_L6,2021.2.3,Win32,60.92731371,,,,,,,,,,,,1.0711,0,,,,,,,,,,,,,,z,0,1.0711,,,,,,,,0.036111125,-0.257407419,0,0,0,,0,86,86,25,1,CHALK,C,m,m,./images/CHALK.png,,,,,,,,,,,,,,,,,,,,,,,,,,,,,,,,,,
,,,,,,,,,,,,,,,,,5e1797da928b15062260e30e,70,2022-02-12_11h47.11.370,lexical_decision_task_DD_L6,2021.2.3,Win32,60.92731371,,,,,,,,,,,,1.4179,1,,,,,,,,,,,,,,z,1,1.4179,,,,,,,,0.036111125,-0.257407419,0,0,0,,0,87,87,143,1,MONGS,LB,z,z,./images/MONGSLB.png,,,,,,,,,,,,,,,,,,,,,,,,,,,,,,,,,,
,,,,,,,,,,,,,,,,,5e1797da928b15062260e30e,70,2022-02-12_11h47.11.370,lexical_decision_task_DD_L6,2021.2.3,Win32,60.92731371,,,,,,,,,,,,0.8617,1,,,,,,,,,,,,,,z,1,0.8617,,,,,,,,0.036111125,-0.257407419,0,0,0,,0,88,88,87,1,TRING,C,z,z,./images/TRING.png,,,,,,,,,,,,,,,,,,,,,,,,,,,,,,,,,,
,,,,,,,,,,,,,,,,,5e1797da928b15062260e30e,70,2022-02-12_11h47.11.370,lexical_decision_task_DD_L6,2021.2.3,Win32,60.92731371,,,,,,,,,,,,1.2034,1,,,,,,,,,,,,,,z,1,1.2034,,,,,,,,0.036111125,-0.257407419,0,0,0,,0,89,89,91,1,SHENS,HB,z,z,./images/SHENSHB.png,,,,,,,,,,,,,,,,,,,,,,,,,,,,,,,,,,
,,,,,,,,,,,,,,,,,5e1797da928b15062260e30e,70,2022-02-12_11h47.11.370,lexical_decision_task_DD_L6,2021.2.3,Win32,60.92731371,,,,,,,,,,,,0.8389,1,,,,,,,,,,,,,,z,1,0.8389,,,,,,,,0.036111125,-0.257407419,0,0,0,,0,90,90,119,1,PAFER,LB,z,z,./images/PAFERLB.png,,,,,,,,,,,,,,,,,,,,,,,,,,,,,,,,,,
,,,,,,,,,,,,,,,,,5e1797da928b15062260e30e,70,2022-02-12_11h47.11.370,lexical_decision_task_DD_L6,2021.2.3,Win32,60.92731371,,,,,,,,,,,,1.3638,1,,,,,,,,,,,,,,m,1,1.3638,,,,,,,,0.036111125,-0.257407419,0,0,0,,0,91,91,8,1,CLIFF,HB,m,m,./images/CLIFFHB.png,,,,,,,,,,,,,,,,,,,,,,,,,,,,,,,,,,
,,,,,,,,,,,,,,,,,5e1797da928b15062260e30e,70,2022-02-12_11h47.11.370,lexical_decision_task_DD_L6,2021.2.3,Win32,60.92731371,,,,,,,,,,,,0.77,1,,,,,,,,,,,,,,m,1,0.77,,,,,,,,0.036111125,-0.257407419,0,0,0,,0,92,92,0,1,WALNUT,LB,m,m,./images/WALNUTLB.png,,,,,,,,,,,,,,,,,,,,,,,,,,,,,,,,,,
,,,,,,,,,,,,,,,,,5e1797da928b15062260e30e,70,2022-02-12_11h47.11.370,lexical_decision_task_DD_L6,2021.2.3,Win32,60.92731371,,,,,,,,,,,,0.7159,1,,,,,,,,,,,,,,m,1,0.7159,,,,,,,,0.036111125,-0.257407419,0,0,0,,0,93,93,78,1,BROOM,LB,m,m,./images/BROOMLB.png,,,,,,,,,,,,,,,,,,,,,,,,,,,,,,,,,,
,,,,,,,,,,,,,,,,,5e1797da928b15062260e30e,70,2022-02-12_11h47.11.370,lexical_decision_task_DD_L6,2021.2.3,Win32,60.92731371,,,,,,,,,,,,1.0309,1,,,,,,,,,,,,,,z,1,1.0309,,,,,,,,0.036111125,-0.257407419,0,0,0,,0,94,94,154,1,THINT,HB,z,z,./images/THINTHB.png,,,,,,,,,,,,,,,,,,,,,,,,,,,,,,,,,,
,,,,,,,,,,,,,,,,,5e1797da928b15062260e30e,70,2022-02-12_11h47.11.370,lexical_decision_task_DD_L6,2021.2.3,Win32,60.92731371,,,,,,,,,,,,0.9324,0,,,,,,,,,,,,,,z,0,0.9324,,,,,,,,0.036111125,-0.257407419,0,0,0,,0,95,95,44,1,BASKET,HB,m,m,./images/BASKETHB.png,,,,,,,,,,,,,,,,,,,,,,,,,,,,,,,,,,
,,,,,,,,,,,,,,,,,5e1797da928b15062260e30e,70,2022-02-12_11h47.11.370,lexical_decision_task_DD_L6,2021.2.3,Win32,60.92731371,,,,,,,,,,,,1.1877,1,,,,,,,,,,,,,,z,1,1.1877,,,,,,,,0.036111125,-0.257407419,0,0,0,,0,96,96,115,1,MAWNS,HB,z,z,./images/MAWNSHB.png,,,,,,,,,,,,,,,,,,,,,,,,,,,,,,,,,,
,,,,,,,,,,,,,,,,,5e1797da928b15062260e30e,70,2022-02-12_11h47.11.370,lexical_decision_task_DD_L6,2021.2.3,Win32,60.92731371,,,,,,,,,,,,0.6863,1,,,,,,,,,,,,,,m,1,0.6863,,,,,,,,0.036111125,-0.257407419,0,0,0,,0,97,97,21,1,DANCER,LB,m,m,./images/DANCERLB.png,,,,,,,,,,,,,,,,,,,,,,,,,,,,,,,,,,
,,,,,,,,,,,,,,,,,5e1797da928b15062260e30e,70,2022-02-12_11h47.11.370,lexical_decision_task_DD_L6,2021.2.3,Win32,60.92731371,,,,,,,,,,,,0.6107,1,,,,,,,,,,,,,,m,1,0.6107,,,,,,,,0.036111125,-0.257407419,0,0,0,,0,98,98,81,1,DRILL,LB,m,m,./images/DRILLLB.png,,,,,,,,,,,,,,,,,,,,,,,,,,,,,,,,,,
,,,,,,,,,,,,,,,,,5e1797da928b15062260e30e,70,2022-02-12_11h47.11.370,lexical_decision_task_DD_L6,2021.2.3,Win32,60.92731371,,,,,,,,,,,,0.6066,1,,,,,,,,,,,,,,m,1,0.6066,,,,,,,,0.036111125,-0.257407419,0,0,0,,0,99,99,61,1,ARTIST,C,m,m,./images/ARTIST.png,,,,,,,,,,,,,,,,,,,,,,,,,,,,,,,,,,
,,,,,,,,,,,,,,,,,5e1797da928b15062260e30e,70,2022-02-12_11h47.11.370,lexical_decision_task_DD_L6,2021.2.3,Win32,60.92731371,,,,,,,,,,,,0.91,1,,,,,,,,,,,,,,z,1,0.91,,,,,,,,0.036111125,-0.257407419,0,0,0,,0,100,100,150,1,NOOLS,C,z,z,./images/NOOLS.png,,,,,,,,,,,,,,,,,,,,,,,,,,,,,,,,,,
,,,,,,,,,,,,,,,,,5e1797da928b15062260e30e,70,2022-02-12_11h47.11.370,lexical_decision_task_DD_L6,2021.2.3,Win32,60.92731371,,,,,,,,,,,,0.9385,0,,,,,,,,,,,,,,z,0,0.9385,,,,,,,,0.036111125,-0.257407419,0,0,0,,0,101,101,23,1,CLOTH,HB,m,m,./images/CLOTHHB.png,,,,,,,,,,,,,,,,,,,,,,,,,,,,,,,,,,
,,,,,,,,,,,,,,,,,5e1797da928b15062260e30e,70,2022-02-12_11h47.11.370,lexical_decision_task_DD_L6,2021.2.3,Win32,60.92731371,,,,,,,,,,,,1.2511,1,,,,,,,,,,,,,,m,1,1.2511,,,,,,,,0.036111125,-0.257407419,0,0,0,,0,102,102,62,1,MAMMAL,HB,m,m,./images/MAMMALHB.png,,,,,,,,,,,,,,,,,,,,,,,,,,,,,,,,,,
,,,,,,,,,,,,,,,,,5e1797da928b15062260e30e,70,2022-02-12_11h47.11.370,lexical_decision_task_DD_L6,2021.2.3,Win32,60.92731371,,,,,,,,,,,,0.7211,1,,,,,,,,,,,,,,m,1,0.7211,,,,,,,,0.036111125,-0.257407419,0,0,0,,0,103,103,16,1,GRAPE,C,m,m,./images/GRAPE.png,,,,,,,,,,,,,,,,,,,,,,,,,,,,,,,,,,
,,,,,,,,,,,,,,,,,5e1797da928b15062260e30e,70,2022-02-12_11h47.11.370,lexical_decision_task_DD_L6,2021.2.3,Win32,60.92731371,,,,,,,,,,,,0.8713,1,,,,,,,,,,,,,,m,1,0.8713,,,,,,,,0.036111125,-0.257407419,0,0,0,,0,104,104,75,1,HAMMER,LB,m,m,./images/HAMMERLB.png,,,,,,,,,,,,,,,,,,,,,,,,,,,,,,,,,,
,,,,,,,,,,,,,,,,,5e1797da928b15062260e30e,70,2022-02-12_11h47.11.370,lexical_decision_task_DD_L6,2021.2.3,Win32,60.92731371,,,,,,,,,,,,1.0251,1,,,,,,,,,,,,,,z,1,1.0251,,,,,,,,0.036111125,-0.257407419,0,0,0,,0,105,105,109,1,BURGE,HB,z,z,./images/BURGEHB.png,,,,,,,,,,,,,,,,,,,,,,,,,,,,,,,,,,
,,,,,,,,,,,,,,,,,5e1797da928b15062260e30e,70,2022-02-12_11h47.11.370,lexical_decision_task_DD_L6,2021.2.3,Win32,60.92731371,,,,,,,,,,,,0.6777,1,,,,,,,,,,,,,,m,1,0.6777,,,,,,,,0.036111125,-0.257407419,0,0,0,,0,106,106,19,1,DONKEY,C,m,m,./images/DONKEY.png,,,,,,,,,,,,,,,,,,,,,,,,,,,,,,,,,,
,,,,,,,,,,,,,,,,,5e1797da928b15062260e30e,70,2022-02-12_11h47.11.370,lexical_decision_task_DD_L6,2021.2.3,Win32,60.92731371,,,,,,,,,,,,1.5591,1,,,,,,,,,,,,,,m,1,1.5591,,,,,,,,0.036111125,-0.257407419,0,0,0,,0,107,107,74,1,JUMPER,HB,m,m,./images/JUMPERHB.png,,,,,,,,,,,,,,,,,,,,,,,,,,,,,,,,,,
,,,,,,,,,,,,,,,,,5e1797da928b15062260e30e,70,2022-02-12_11h47.11.370,lexical_decision_task_DD_L6,2021.2.3,Win32,60.92731371,,,,,,,,,,,,1.5336,1,,,,,,,,,,,,,,z,1,1.5336,,,,,,,,0.036111125,-0.257407419,0,0,0,,0,108,108,104,1,GITTY,LB,z,z,./images/GITTYLB.png,,,,,,,,,,,,,,,,,,,,,,,,,,,,,,,,,,
,,,,,,,,,,,,,,,,,5e1797da928b15062260e30e,70,2022-02-12_11h47.11.370,lexical_decision_task_DD_L6,2021.2.3,Win32,60.92731371,,,,,,,,,,,,0.8918,1,,,,,,,,,,,,,,z,1,0.8918,,,,,,,,0.036111125,-0.257407419,0,0,0,,0,109,109,102,1,DULLE,C,z,z,./images/DULLE.png,,,,,,,,,,,,,,,,,,,,,,,,,,,,,,,,,,
,,,,,,,,,,,,,,,,,5e1797da928b15062260e30e,70,2022-02-12_11h47.11.370,lexical_decision_task_DD_L6,2021.2.3,Win32,60.92731371,,,,,,,,,,,,0.6759,1,,,,,,,,,,,,,,m,1,0.6759,,,,,,,,0.036111125,-0.257407419,0,0,0,,0,110,110,22,1,CLOWN,C,m,m,./images/CLOWN.png,,,,,,,,,,,,,,,,,,,,,,,,,,,,,,,,,,
,,,,,,,,,,,,,,,,,5e1797da928b15062260e30e,70,2022-02-12_11h47.11.370,lexical_decision_task_DD_L6,2021.2.3,Win32,60.92731371,,,,,,,,,,,,1.0596,1,,,,,,,,,,,,,,z,1,1.0596,,,,,,,,0.036111125,-0.257407419,0,0,0,,0,111,111,105,1,MOKER,C,z,z,./images/MOKER.png,,,,,,,,,,,,,,,,,,,,,,,,,,,,,,,,,,
,,,,,,,,,,,,,,,,,5e1797da928b15062260e30e,70,2022-02-12_11h47.11.370,lexical_decision_task_DD_L6,2021.2.3,Win32,60.92731371,,,,,,,,,,,,0.7098,1,,,,,,,,,,,,,,z,1,0.7098,,,,,,,,0.036111125,-0.257407419,0,0,0,,0,112,112,137,1,JOOST,LB,z,z,./images/JOOSTLB.png,,,,,,,,,,,,,,,,,,,,,,,,,,,,,,,,,,
,,,,,,,,,,,,,,,,,5e1797da928b15062260e30e,70,2022-02-12_11h47.11.370,lexical_decision_task_DD_L6,2021.2.3,Win32,60.92731371,,,,,,,,,,,,1.1131,1,,,,,,,,,,,,,,z,1,1.1131,,,,,,,,0.036111125,-0.257407419,0,0,0,,0,113,113,99,1,BACKY,C,z,z,./images/BACKY.png,,,,,,,,,,,,,,,,,,,,,,,,,,,,,,,,,,
,,,,,,,,,,,,,,,,,5e1797da928b15062260e30e,70,2022-02-12_11h47.11.370,lexical_decision_task_DD_L6,2021.2.3,Win32,60.92731371,,,,,,,,,,,,0.9018,1,,,,,,,,,,,,,,m,1,0.9018,,,,,,,,0.036111125,-0.257407419,0,0,0,,0,114,114,30,1,SLOPE,LB,m,m,./images/SLOPELB.png,,,,,,,,,,,,,,,,,,,,,,,,,,,,,,,,,,
,,,,,,,,,,,,,,,,,5e1797da928b15062260e30e,70,2022-02-12_11h47.11.370,lexical_decision_task_DD_L6,2021.2.3,Win32,60.92731371,,,,,,,,,,,,1.1734,1,,,,,,,,,,,,,,z,1,1.1734,,,,,,,,0.036111125,-0.257407419,0,0,0,,0,115,115,164,1,SGREW,LB,z,z,./images/SGREWLB.png,,,,,,,,,,,,,,,,,,,,,,,,,,,,,,,,,,
,,,,,,,,,,,,,,,,,5e1797da928b15062260e30e,70,2022-02-12_11h47.11.370,lexical_decision_task_DD_L6,2021.2.3,Win32,60.92731371,,,,,,,,,,,,1.0265,1,,,,,,,,,,,,,,z,1,1.0265,,,,,,,,0.036111125,-0.257407419,0,0,0,,0,116,116,92,1,PAIMS,LB,z,z,./images/PAIMSLB.png,,,,,,,,,,,,,,,,,,,,,,,,,,,,,,,,,,
,,,,,,,,,,,,,,,,,5e1797da928b15062260e30e,70,2022-02-12_11h47.11.370,lexical_decision_task_DD_L6,2021.2.3,Win32,60.92731371,,,,,,,,,,,,1.1219,0,,,,,,,,,,,,,,z,0,1.1219,,,,,,,,0.036111125,-0.257407419,0,0,0,,0,117,117,17,1,PARADE,HB,m,m,./images/PARADEHB.png,,,,,,,,,,,,,,,,,,,,,,,,,,,,,,,,,,
,,,,,,,,,,,,,,,,,5e1797da928b15062260e30e,70,2022-02-12_11h47.11.370,lexical_decision_task_DD_L6,2021.2.3,Win32,60.92731371,,,,,,,,,,,,0.7181,1,,,,,,,,,,,,,,m,1,0.7181,,,,,,,,0.036111125,-0.257407419,0,0,0,,0,118,118,31,1,STEAK,C,m,m,./images/STEAK.png,,,,,,,,,,,,,,,,,,,,,,,,,,,,,,,,,,
,,,,,,,,,,,,,,,,,5e1797da928b15062260e30e,70,2022-02-12_11h47.11.370,lexical_decision_task_DD_L6,2021.2.3,Win32,60.92731371,,,,,,,,,,,,1.1907,1,,,,,,,,,,,,,,z,1,1.1907,,,,,,,,0.036111125,-0.257407419,0,0,0,,0,119,119,122,1,BLOOT,LB,z,z,./images/BLOOTLB.png,,,,,,,,,,,,,,,,,,,,,,,,,,,,,,,,,,
,,,,,,,,,,,,,,,,,5e1797da928b15062260e30e,70,2022-02-12_11h47.11.370,lexical_decision_task_DD_L6,2021.2.3,Win32,60.92731371,,,,,,,,,,,,1.1644,1,,,,,,,,,,,,,,z,1,1.1644,,,,,,,,0.036111125,-0.257407419,0,0,0,,0,120,120,106,1,CLUMS,HB,z,z,./images/CLUMSHB.png,,,,,,,,,,,,,,,,,,,,,,,,,,,,,,,,,,
,,,,,,,,,,,,,,,,,5e1797da928b15062260e30e,70,2022-02-12_11h47.11.370,lexical_decision_task_DD_L6,2021.2.3,Win32,60.92731371,,,,,,,,,,,,0.6813,1,,,,,,,,,,,,,,m,1,0.6813,,,,,,,,0.036111125,-0.257407419,0,0,0,,0,121,121,67,1,POKER,C,m,m,./images/POKER.png,,,,,,,,,,,,,,,,,,,,,,,,,,,,,,,,,,
,,,,,,,,,,,,,,,,,5e1797da928b15062260e30e,70,2022-02-12_11h47.11.370,lexical_decision_task_DD_L6,2021.2.3,Win32,60.92731371,,,,,,,,,,,,0.8574,1,,,,,,,,,,,,,,z,1,0.8574,,,,,,,,0.036111125,-0.257407419,0,0,0,,0,122,122,128,1,GRIFT,LB,z,z,./images/GRIFTLB.png,,,,,,,,,,,,,,,,,,,,,,,,,,,,,,,,,,
,,,,,,,,,,,,,,,,,5e1797da928b15062260e30e,70,2022-02-12_11h47.11.370,lexical_decision_task_DD_L6,2021.2.3,Win32,60.92731371,,,,,,,,,,,,1.1042,1,,,,,,,,,,,,,,z,1,1.1042,,,,,,,,0.036111125,-0.257407419,0,0,0,,0,123,123,86,1,AIFED,LB,z,z,./images/AIFEDLB.png,,,,,,,,,,,,,,,,,,,,,,,,,,,,,,,,,,
,,,,,,,,,,,,,,,,,5e1797da928b15062260e30e,70,2022-02-12_11h47.11.370,lexical_decision_task_DD_L6,2021.2.3,Win32,60.92731371,,,,,,,,,,,,0.7454,1,,,,,,,,,,,,,,m,1,0.7454,,,,,,,,0.036111125,-0.257407419,0,0,0,,0,124,124,42,1,CHAIN,LB,m,m,./images/CHAINLB.png,,,,,,,,,,,,,,,,,,,,,,,,,,,,,,,,,,
,,,,,,,,,,,,,,,,,5e1797da928b15062260e30e,70,2022-02-12_11h47.11.370,lexical_decision_task_DD_L6,2021.2.3,Win32,60.92731371,,,,,,,,,,,,1.19,1,,,,,,,,,,,,,,z,1,1.19,,,,,,,,0.036111125,-0.257407419,0,0,0,space,0,125,125,133,1,POWDY,HB,z,z,./images/POWDYHB.png,27.7533,,,,,,,,,,,,,,,,,,,,,,,,,,,,,,,,,
,,,,,,,,,,,,,,,,,5e1797da928b15062260e30e,70,2022-02-12_11h47.11.370,lexical_decision_task_DD_L6,2021.2.3,Win32,60.92731371,,,,,,,,,,,,1.439,1,,,,,,,,,,,,,,m,1,1.439,,,,,,,,0.036111125,-0.257407419,0,0,0,,0,126,126,3,1,CRATER,LB,m,m,./images/CRATERLB.png,,,,,,,,,,,,,,,,,,,,,,,,,,,,,,,,,,
,,,,,,,,,,,,,,,,,5e1797da928b15062260e30e,70,2022-02-12_11h47.11.370,lexical_decision_task_DD_L6,2021.2.3,Win32,60.92731371,,,,,,,,,,,,0.7764,1,,,,,,,,,,,,,,m,1,0.7764,,,,,,,,0.036111125,-0.257407419,0,0,0,,0,127,127,55,1,ALLEY,C,m,m,./images/ALLEY.png,,,,,,,,,,,,,,,,,,,,,,,,,,,,,,,,,,
,,,,,,,,,,,,,,,,,5e1797da928b15062260e30e,70,2022-02-12_11h47.11.370,lexical_decision_task_DD_L6,2021.2.3,Win32,60.92731371,,,,,,,,,,,,0.8778,1,,,,,,,,,,,,,,m,1,0.8778,,,,,,,,0.036111125,-0.257407419,0,0,0,,0,128,128,82,1,PEBBLE,C,m,m,./images/PEBBLE.png,,,,,,,,,,,,,,,,,,,,,,,,,,,,,,,,,,
,,,,,,,,,,,,,,,,,5e1797da928b15062260e30e,70,2022-02-12_11h47.11.370,lexical_decision_task_DD_L6,2021.2.3,Win32,60.92731371,,,,,,,,,,,,0.7857,1,,,,,,,,,,,,,,m,1,0.7857,,,,,,,,0.036111125,-0.257407419,0,0,0,,0,129,129,72,1,FLASK,LB,m,m,./images/FLASKLB.png,,,,,,,,,,,,,,,,,,,,,,,,,,,,,,,,,,
,,,,,,,,,,,,,,,,,5e1797da928b15062260e30e,70,2022-02-12_11h47.11.370,lexical_decision_task_DD_L6,2021.2.3,Win32,60.92731371,,,,,,,,,,,,0.8292,1,,,,,,,,,,,,,,z,1,0.8292,,,,,,,,0.036111125,-0.257407419,0,0,0,,0,130,130,126,1,GUELS,C,z,z,./images/GUELS.png,,,,,,,,,,,,,,,,,,,,,,,,,,,,,,,,,,
,,,,,,,,,,,,,,,,,5e1797da928b15062260e30e,70,2022-02-12_11h47.11.370,lexical_decision_task_DD_L6,2021.2.3,Win32,60.92731371,,,,,,,,,,,,0.7662,1,,,,,,,,,,,,,,z,1,0.7662,,,,,,,,0.036111125,-0.257407419,0,0,0,,0,131,131,127,1,NINDY,HB,z,z,./images/NINDYHB.png,,,,,,,,,,,,,,,,,,,,,,,,,,,,,,,,,,
,,,,,,,,,,,,,,,,,5e1797da928b15062260e30e,70,2022-02-12_11h47.11.370,lexical_decision_task_DD_L6,2021.2.3,Win32,60.92731371,,,,,,,,,,,,1.0204,0,,,,,,,,,,,,,,z,0,1.0204,,,,,,,,0.036111125,-0.257407419,0,0,0,,0,132,132,5,1,BAMBOO,HB,m,m,./images/BAMBOOHB.png,,,,,,,,,,,,,,,,,,,,,,,,,,,,,,,,,,
,,,,,,,,,,,,,,,,,5e1797da928b15062260e30e,70,2022-02-12_11h47.11.370,lexical_decision_task_DD_L6,2021.2.3,Win32,60.92731371,,,,,,,,,,,,0.8771,1,,,,,,,,,,,,,,z,1,0.8771,,,,,,,,0.036111125,-0.257407419,0,0,0,,0,133,133,89,1,DRIEK,LB,z,z,./images/DRIEKLB.png,,,,,,,,,,,,,,,,,,,,,,,,,,,,,,,,,,
,,,,,,,,,,,,,,,,,5e1797da928b15062260e30e,70,2022-02-12_11h47.11.370,lexical_decision_task_DD_L6,2021.2.3,Win32,60.92731371,,,,,,,,,,,,0.7018,1,,,,,,,,,,,,,,z,1,0.7018,,,,,,,,0.036111125,-0.257407419,0,0,0,,0,134,134,162,1,LEICH,C,z,z,./images/LEICH.png,,,,,,,,,,,,,,,,,,,,,,,,,,,,,,,,,,
,,,,,,,,,,,,,,,,,5e1797da928b15062260e30e,70,2022-02-12_11h47.11.370,lexical_decision_task_DD_L6,2021.2.3,Win32,60.92731371,,,,,,,,,,,,0.8044,1,,,,,,,,,,,,,,z,1,0.8044,,,,,,,,0.036111125,-0.257407419,0,0,0,,0,135,135,151,1,TINKY,HB,z,z,./images/TINKYHB.png,,,,,,,,,,,,,,,,,,,,,,,,,,,,,,,,,,
,,,,,,,,,,,,,,,,,5e1797da928b15062260e30e,70,2022-02-12_11h47.11.370,lexical_decision_task_DD_L6,2021.2.3,Win32,60.92731371,,,,,,,,,,,,0.9446,1,,,,,,,,,,,,,,z,1,0.9446,,,,,,,,0.036111125,-0.257407419,0,0,0,,0,136,136,120,1,RINED,C,z,z,./images/RINED.png,,,,,,,,,,,,,,,,,,,,,,,,,,,,,,,,,,
,,,,,,,,,,,,,,,,,5e1797da928b15062260e30e,70,2022-02-12_11h47.11.370,lexical_decision_task_DD_L6,2021.2.3,Win32,60.92731371,,,,,,,,,,,,0.7234,1,,,,,,,,,,,,,,z,1,0.7234,,,,,,,,0.036111125,-0.257407419,0,0,0,,0,137,137,144,1,NAIRY,C,z,z,./images/NAIRY.png,,,,,,,,,,,,,,,,,,,,,,,,,,,,,,,,,,
,,,,,,,,,,,,,,,,,5e1797da928b15062260e30e,70,2022-02-12_11h47.11.370,lexical_decision_task_DD_L6,2021.2.3,Win32,60.92731371,,,,,,,,,,,,0.8514,1,,,,,,,,,,,,,,z,1,0.8514,,,,,,,,0.036111125,-0.257407419,0,0,0,,0,138,138,98,1,BAMPS,LB,z,z,./images/BAMPSLB.png,,,,,,,,,,,,,,,,,,,,,,,,,,,,,,,,,,
,,,,,,,,,,,,,,,,,5e1797da928b15062260e30e,70,2022-02-12_11h47.11.370,lexical_decision_task_DD_L6,2021.2.3,Win32,60.92731371,,,,,,,,,,,,1.0098,0,,,,,,,,,,,,,,z,0,1.0098,,,,,,,,0.036111125,-0.257407419,0,0,0,,0,139,139,41,1,STREAM,HB,m,m,./images/STREAMHB.png,,,,,,,,,,,,,,,,,,,,,,,,,,,,,,,,,,
,,,,,,,,,,,,,,,,,5e1797da928b15062260e30e,70,2022-02-12_11h47.11.370,lexical_decision_task_DD_L6,2021.2.3,Win32,60.92731371,,,,,,,,,,,,0.8405,1,,,,,,,,,,,,,,m,1,0.8405,,,,,,,,0.036111125,-0.257407419,0,0,0,,0,140,140,60,1,CURRY,LB,m,m,./images/CURRYLB.png,,,,,,,,,,,,,,,,,,,,,,,,,,,,,,,,,,
,,,,,,,,,,,,,,,,,5e1797da928b15062260e30e,70,2022-02-12_11h47.11.370,lexical_decision_task_DD_L6,2021.2.3,Win32,60.92731371,,,,,,,,,,,,1.7079,1,,,,,,,,,,,,,,z,1,1.7079,,,,,,,,0.036111125,-0.257407419,0,0,0,,0,141,141,148,1,JOMS,HB,z,z,./images/JOMSHB.png,,,,,,,,,,,,,,,,,,,,,,,,,,,,,,,,,,
,,,,,,,,,,,,,,,,,5e1797da928b15062260e30e,70,2022-02-12_11h47.11.370,lexical_decision_task_DD_L6,2021.2.3,Win32,60.92731371,,,,,,,,,,,,0.9733,1,,,,,,,,,,,,,,m,1,0.9733,,,,,,,,0.036111125,-0.257407419,0,0,0,,0,142,142,26,1,CLOUD,HB,m,m,./images/CLOUDHB.png,,,,,,,,,,,,,,,,,,,,,,,,,,,,,,,,,,
,,,,,,,,,,,,,,,,,5e1797da928b15062260e30e,70,2022-02-12_11h47.11.370,lexical_decision_task_DD_L6,2021.2.3,Win32,60.92731371,,,,,,,,,,,,0.7792,1,,,,,,,,,,,,,,z,1,0.7792,,,,,,,,0.036111125,-0.257407419,0,0,0,,0,143,143,158,1,EGECT,LB,z,z,./images/EGECTLB.png,,,,,,,,,,,,,,,,,,,,,,,,,,,,,,,,,,
,,,,,,,,,,,,,,,,,5e1797da928b15062260e30e,70,2022-02-12_11h47.11.370,lexical_decision_task_DD_L6,2021.2.3,Win32,60.92731371,,,,,,,,,,,,1.441,1,,,,,,,,,,,,,,m,1,1.441,,,,,,,,0.036111125,-0.257407419,0,0,0,,0,144,144,32,1,HOCKEY,HB,m,m,./images/HOCKEYHB.png,,,,,,,,,,,,,,,,,,,,,,,,,,,,,,,,,,
,,,,,,,,,,,,,,,,,5e1797da928b15062260e30e,70,2022-02-12_11h47.11.370,lexical_decision_task_DD_L6,2021.2.3,Win32,60.92731371,,,,,,,,,,,,1.1737,1,,,,,,,,,,,,,,z,1,1.1737,,,,,,,,0.036111125,-0.257407419,0,0,0,,0,145,145,136,1,WERVE,HB,z,z,./images/WERVEHB.png,,,,,,,,,,,,,,,,,,,,,,,,,,,,,,,,,,
,,,,,,,,,,,,,,,,,5e1797da928b15062260e30e,70,2022-02-12_11h47.11.370,lexical_decision_task_DD_L6,2021.2.3,Win32,60.92731371,,,,,,,,,,,,0.746,1,,,,,,,,,,,,,,m,1,0.746,,,,,,,,0.036111125,-0.257407419,0,0,0,,0,146,146,40,1,SNAKE,C,m,m,./images/SNAKE.png,,,,,,,,,,,,,,,,,,,,,,,,,,,,,,,,,,
,,,,,,,,,,,,,,,,,5e1797da928b15062260e30e,70,2022-02-12_11h47.11.370,lexical_decision_task_DD_L6,2021.2.3,Win32,60.92731371,,,,,,,,,,,,0.7943,1,,,,,,,,,,,,,,z,1,0.7943,,,,,,,,0.036111125,-0.257407419,0,0,0,,0,147,147,96,1,KEAMS,C,z,z,./images/KEAMS.png,,,,,,,,,,,,,,,,,,,,,,,,,,,,,,,,,,
,,,,,,,,,,,,,,,,,5e1797da928b15062260e30e,70,2022-02-12_11h47.11.370,lexical_decision_task_DD_L6,2021.2.3,Win32,60.92731371,,,,,,,,,,,,1.1734,1,,,,,,,,,,,,,,m,1,1.1734,,,,,,,,0.036111125,-0.257407419,0,0,0,,0,148,148,66,1,STATUE,LB,m,m,./images/STATUELB.png,,,,,,,,,,,,,,,,,,,,,,,,,,,,,,,,,,
,,,,,,,,,,,,,,,,,5e1797da928b15062260e30e,70,2022-02-12_11h47.11.370,lexical_decision_task_DD_L6,2021.2.3,Win32,60.92731371,,,,,,,,,,,,0.7377,1,,,,,,,,,,,,,,m,1,0.7377,,,,,,,,0.036111125,-0.257407419,0,0,0,,0,149,149,54,1,CHERRY,LB,m,m,./images/CHERRYLB.png,,,,,,,,,,,,,,,,,,,,,,,,,,,,,,,,,,
,,,,,,,,,,,,,,,,,5e1797da928b15062260e30e,70,2022-02-12_11h47.11.370,lexical_decision_task_DD_L6,2021.2.3,Win32,60.92731371,,,,,,,,,,,,1.0857,1,,,,,,,,,,,,,,z,1,1.0857,,,,,,,,0.036111125,-0.257407419,0,0,0,,0,150,150,124,1,TUNCH,HB,z,z,./images/TUNCHHB.png,,,,,,,,,,,,,,,,,,,,,,,,,,,,,,,,,,
,,,,,,,,,,,,,,,,,5e1797da928b15062260e30e,70,2022-02-12_11h47.11.370,lexical_decision_task_DD_L6,2021.2.3,Win32,60.92731371,,,,,,,,,,,,0.7156,1,,,,,,,,,,,,,,m,1,0.7156,,,,,,,,0.036111125,-0.257407419,0,0,0,,0,151,151,4,1,BOXER,C,m,m,./images/BOXER.png,,,,,,,,,,,,,,,,,,,,,,,,,,,,,,,,,,
,,,,,,,,,,,,,,,,,5e1797da928b15062260e30e,70,2022-02-12_11h47.11.370,lexical_decision_task_DD_L6,2021.2.3,Win32,60.92731371,,,,,,,,,,,,0.6393,1,,,,,,,,,,,,,,m,1,0.6393,,,,,,,,0.036111125,-0.257407419,0,0,0,,0,152,152,70,1,BANANA,C,m,m,./images/BANANA.png,,,,,,,,,,,,,,,,,,,,,,,,,,,,,,,,,,
,,,,,,,,,,,,,,,,,5e1797da928b15062260e30e,70,2022-02-12_11h47.11.370,lexical_decision_task_DD_L6,2021.2.3,Win32,60.92731371,,,,,,,,,,,,1.0672,1,,,,,,,,,,,,,,m,1,1.0672,,,,,,,,0.036111125,-0.257407419,0,0,0,,0,153,153,71,1,BUBBLE,HB,m,m,./images/BUBBLEHB.png,,,,,,,,,,,,,,,,,,,,,,,,,,,,,,,,,,
,,,,,,,,,,,,,,,,,5e1797da928b15062260e30e,70,2022-02-12_11h47.11.370,lexical_decision_task_DD_L6,2021.2.3,Win32,60.92731371,,,,,,,,,,,,0.8584,1,,,,,,,,,,,,,,m,1,0.8584,,,,,,,,0.036111125,-0.257407419,0,0,0,,0,154,154,48,1,SHIELD,LB,m,m,./images/SHIELDLB.png,,,,,,,,,,,,,,,,,,,,,,,,,,,,,,,,,,
,,,,,,,,,,,,,,,,,5e1797da928b15062260e30e,70,2022-02-12_11h47.11.370,lexical_decision_task_DD_L6,2021.2.3,Win32,60.92731371,,,,,,,,,,,,0.8976,1,,,,,,,,,,,,,,z,1,0.8976,,,,,,,,0.036111125,-0.257407419,0,0,0,,0,155,155,125,1,MOOKY,LB,z,z,./images/MOOKYLB.png,,,,,,,,,,,,,,,,,,,,,,,,,,,,,,,,,,
,,,,,,,,,,,,,,,,,5e1797da928b15062260e30e,70,2022-02-12_11h47.11.370,lexical_decision_task_DD_L6,2021.2.3,Win32,60.92731371,,,,,,,,,,,,0.7586,1,,,,,,,,,,,,,,m,1,0.7586,,,,,,,,0.036111125,-0.257407419,0,0,0,,0,156,156,37,1,TIGER,C,m,m,./images/TIGER.png,,,,,,,,,,,,,,,,,,,,,,,,,,,,,,,,,,
,,,,,,,,,,,,,,,,,5e1797da928b15062260e30e,70,2022-02-12_11h47.11.370,lexical_decision_task_DD_L6,2021.2.3,Win32,60.92731371,,,,,,,,,,,,0.9342,1,,,,,,,,,,,,,,z,1,0.9342,,,,,,,,0.036111125,-0.257407419,0,0,0,,0,157,157,163,1,GAMBA,HB,z,z,./images/GAMBAHB.png,,,,,,,,,,,,,,,,,,,,,,,,,,,,,,,,,,
,,,,,,,,,,,,,,,,,5e1797da928b15062260e30e,70,2022-02-12_11h47.11.370,lexical_decision_task_DD_L6,2021.2.3,Win32,60.92731371,,,,,,,,,,,,0.7062,1,,,,,,,,,,,,,,m,1,0.7062,,,,,,,,0.036111125,-0.257407419,0,0,0,,0,158,158,24,1,FLESH,LB,m,m,./images/FLESHLB.png,,,,,,,,,,,,,,,,,,,,,,,,,,,,,,,,,,
,,,,,,,,,,,,,,,,,5e1797da928b15062260e30e,70,2022-02-12_11h47.11.370,lexical_decision_task_DD_L6,2021.2.3,Win32,60.92731371,,,,,,,,,,,,0.7267,1,,,,,,,,,,,,,,m,1,0.7267,,,,,,,,0.036111125,-0.257407419,0,0,0,,0,159,159,51,1,SAUCE,LB,m,m,./images/SAUCELB.png,,,,,,,,,,,,,,,,,,,,,,,,,,,,,,,,,,
,,,,,,,,,,,,,,,,,5e1797da928b15062260e30e,70,2022-02-12_11h47.11.370,lexical_decision_task_DD_L6,2021.2.3,Win32,60.92731371,,,,,,,,,,,,0.7298,1,,,,,,,,,,,,,,z,1,0.7298,,,,,,,,0.036111125,-0.257407419,0,0,0,,0,160,160,111,1,HOSSE,C,z,z,./images/HOSSE.png,,,,,,,,,,,,,,,,,,,,,,,,,,,,,,,,,,
,,,,,,,,,,,,,,,,,5e1797da928b15062260e30e,70,2022-02-12_11h47.11.370,lexical_decision_task_DD_L6,2021.2.3,Win32,60.92731371,,,,,,,,,,,,1.2054,1,,,,,,,,,,,,,,m,1,1.2054,,,,,,,,0.036111125,-0.257407419,0,0,0,,0,161,161,12,1,BLOKE,LB,m,m,./images/BLOKELB.png,,,,,,,,,,,,,,,,,,,,,,,,,,,,,,,,,,
,,,,,,,,,,,,,,,,,5e1797da928b15062260e30e,70,2022-02-12_11h47.11.370,lexical_decision_task_DD_L6,2021.2.3,Win32,60.92731371,,,,,,,,,,,,1.104,1,,,,,,,,,,,,,,m,1,1.104,,,,,,,,0.036111125,-0.257407419,0,0,0,,0,162,162,2,1,STOVE,HB,m,m,./images/STOVEHB.png,,,,,,,,,,,,,,,,,,,,,,,,,,,,,,,,,,
,,,,,,,,,,,,,,,,,5e1797da928b15062260e30e,70,2022-02-12_11h47.11.370,lexical_decision_task_DD_L6,2021.2.3,Win32,60.92731371,,,,,,,,,,,,1.0888,1,,,,,,,,,,,,,,m,1,1.0888,,,,,,,,0.036111125,-0.257407419,0,0,0,,0,163,163,68,1,VALLEY,HB,m,m,./images/VALLEYHB.png,,,,,,,,,,,,,,,,,,,,,,,,,,,,,,,,,,
,,,,,,,,,,,,,,,,,5e1797da928b15062260e30e,70,2022-02-12_11h47.11.370,lexical_decision_task_DD_L6,2021.2.3,Win32,60.92731371,,,,,,,,,,,,0.8909,1,,,,,,,,,,,,,,z,1,0.8909,,,,,,,,0.036111125,-0.257407419,0,0,0,,0,164,164,129,1,PRANS,C,z,z,./images/PRANS.png,,,,,,,,,,,,,,,,,,,,,,,,,,,,,,,,,,
,,,,,,,,,,,,,,,,,5e1797da928b15062260e30e,70,2022-02-12_11h47.11.370,lexical_decision_task_DD_L6,2021.2.3,Win32,60.92731371,,,,,,,,,,,,0.7291,1,,,,,,,,,,,,,,m,1,0.7291,,,,,,,,0.036111125,-0.257407419,0,0,0,,0,165,165,28,1,CASINO,C,m,m,./images/CASINO.png,,,,,,,,,,,,,,,,,,,,,,,,,,,,,,,,,,
,,,,,,,,,,,,,,,,,5e1797da928b15062260e30e,70,2022-02-12_11h47.11.370,lexical_decision_task_DD_L6,2021.2.3,Win32,60.92731371,,,,,,,,,,,,0.7567,1,,,,,,,,,,,,,,m,1,0.7567,,,,,,,,0.036111125,-0.257407419,0,0,0,,0,166,166,15,1,COLLAR,LB,m,m,./images/COLLARLB.png,,,,,,,,,,,,,,,,,,,,,,,,,,,,,,,,,,
,,,,,,,,,,,,,,,,,5e1797da928b15062260e30e,70,2022-02-12_11h47.11.370,lexical_decision_task_DD_L6,2021.2.3,Win32,60.92731371,,,,,,,,,,,,0.6601,1,,,,,,,,,,,,,,m,1,0.6601,,,,,,,,0.036111125,-0.257407419,0,0,0,,0,167,167,1,1,TOWEL,C,m,m,./images/TOWEL.png,,,,,,,,,,,,,,,,,,,,,,,,,,,,,,,,,,
,,,,,,,,,,,,,,,,,5e1797da928b15062260e30e,70,2022-02-12_11h47.11.370,lexical_decision_task_DD_L6,2021.2.3,Win32,60.92731371,,,,,,,,,,,,,,,,,,,,,,,,,,,,,,,,,,,,,,,,,,,,,,,,,How likely will it be that you will recognize the words presented clearly on a scale of 0 (not likely) to 100 (most likely)?,,,,,0.001851922,-0.390740811,1,0,0,jol_adv,1,10.6985,0,0,0,0,1,,,,,,,,,,,,,,,,,,,,
,,,,,,,,,,,,,,,,,5e1797da928b15062260e30e,70,2022-02-12_11h47.11.370,lexical_decision_task_DD_L6,2021.2.3,Win32,60.92731371,,,,,,,,,,,,,,,,,,,,,,,,,,,,,,,,,,,,,,,,,,,,,,,,,How likely will it be that you will recognize the words presented slighly blurred on a scale of 0 (not likely) to 100 (most likely)?,,,,,,,,,,,4,8.1824,0,1,1,1,1,,,,,,,,,,,,,,,,,,,,
,,,,,,,,,,,,,,,,,5e1797da928b15062260e30e,70,2022-02-12_11h47.11.370,lexical_decision_task_DD_L6,2021.2.3,Win32,60.92731371,,,,,,,,,,,,,,,,,,,,,,,,,,,,,,,,,,,,,,,,,,,,,,,,,How likely will it be that you will recognize the words presented very blurred on a scale of 0 (not likely) to 100 (most likely)?,,,,,,,,,,,2,9.7318,0,2,2,2,1,,,,,,,,,,,,,,,,,,,,
space,-0.301851843,0.323148146,0,0,0,,,,,,,1,test,"In the next phase you will be presented with the words from the the first phase. Your job is to decide whether you remember seeing the word or not. If you remember seeing the word press ""old"" or type ""m"". If you do not remember seeing the word press ""new"" or type ""z"". Please press the space bar or click on continue to begin. ",,,5e1797da928b15062260e30e,70,2022-02-12_11h47.11.370,lexical_decision_task_DD_L6,2021.2.3,Win32,60.92731371,20.9613,,,,,,,,,,,,,,,,,,,,,,,,,,,,,,,,,,,,,,,,,,,,,,,,,,,,,,,,,,,,,,,,,,0,0,0,0,1,,,,,,,,,,,,,,,
space,-0.301851843,0.323148146,0,0,0,,,,,,,1,test,"In the next phase you will be presented with the words from the the first phase. Your job is to decide whether you remember seeing the word or not. If you remember seeing the word press ""old"" or type ""m"". If you do not remember seeing the word press ""new"" or type ""z"". Please press the space bar or click on continue to begin. ",,,5e1797da928b15062260e30e,70,2022-02-12_11h47.11.370,lexical_decision_task_DD_L6,2021.2.3,Win32,60.92731371,2.3322,,,,,,,,,,,,,,,,,,,,,,,,,,,,,,,,,,,,,,,,,,,,,,,,,,,,,,,,,,,,,,,,,,1,0,1,0,1,,,,,,,,,,,,,,,
,0.155555584,-0.407407407,1,0,0,instr_done_button,,,,,,1,test,"In the next phase you will be presented with the words from the the first phase. Your job is to decide whether you remember seeing the word or not. If you remember seeing the word press ""old"" or type ""m"". If you do not remember seeing the word press ""new"" or type ""z"". Please press the space bar or click on continue to begin. ",,,5e1797da928b15062260e30e,70,2022-02-12_11h47.11.370,lexical_decision_task_DD_L6,2021.2.3,Win32,60.92731371,,,,,,,,,,,,,,,,,,,,,,,,,,,,,,,,,,,,,,,,,,,,,,,,,,,,,,,,,,,,,,,,,,,2,0,2,0,1,,,,,,,,,,,,,,,
,-0.023148135,-0.389814828,1,0,0,instr_done_button,,,,,,1,test,"In the next phase you will be presented with the words from the the first phase. Your job is to decide whether you remember seeing the word or not. If you remember seeing the word press ""old"" or type ""m"". If you do not remember seeing the word press ""new"" or type ""z"". Please press the space bar or click on continue to begin. ",,,5e1797da928b15062260e30e,70,2022-02-12_11h47.11.370,lexical_decision_task_DD_L6,2021.2.3,Win32,60.92731371,,,,,,,,,,,,,,,,,,,,,,,,,,,,,,,,,,,,,,,,,,,,,,,,,,,,,,,,,,,,,,,,,,,3,0,3,0,1,,,,,,,,,,,,,,,
space,-0.289814749,0.2287037,0,0,0,,,,,,,1,test,"In the next phase you will be presented with the words from the the first phase. Your job is to decide whether you remember seeing the word or not. If you remember seeing the word press ""old"" or type ""m"". If you do not remember seeing the word press ""new"" or type ""z"". Please press the space bar or click on continue to begin. ",,,5e1797da928b15062260e30e,70,2022-02-12_11h47.11.370,lexical_decision_task_DD_L6,2021.2.3,Win32,60.92731371,5.6145,,,,,,,,,,,,,,,,,,,,,,,,,,,,,,,,,,,,,,,,,,,,,,,,,,,,,,,,,,,,,,,,,,4,0,4,0,1,,,,,,,,,,,,,,,
,,,,,,,,,,,,,,,,,5e1797da928b15062260e30e,70,2022-02-12_11h47.11.370,lexical_decision_task_DD_L6,2021.2.3,Win32,60.92731371,,,,,,,,,,,,3.2088,0,,,,,,,,,,,,,,,,,,,,,,,,-0.289814749,0.2287037,0,0,0,,,,,,,GRAIN,LB,z,y,./images/GRAINLB.png,,,,,,,,,,,,,,,,,,,,m,0,3.2088,,,,,,,,0,0,0,159,1
,,,,,,,,,,,,,,,,,5e1797da928b15062260e30e,70,2022-02-12_11h47.11.370,lexical_decision_task_DD_L6,2021.2.3,Win32,60.92731371,,,,,,,,,,,,1.6671,1,,,,,,,,,,,,,,,,,,,,,,,,-0.289814749,0.2287037,0,0,0,,,,,,,FENCE,HB,m,y,./images/FENCEHB.png,,,,,,,,,,,,,,,,,,,,m,1,1.6671,,,,,,,,0,1,1,14,1
,,,,,,,,,,,,,,,,,5e1797da928b15062260e30e,70,2022-02-12_11h47.11.370,lexical_decision_task_DD_L6,2021.2.3,Win32,60.92731371,,,,,,,,,,,,1.3612,1,,,,,,,,,,,,,,,,,,,,,,,,-0.289814749,0.2287037,0,0,0,,,,,,,PIMPLE,HB,z,y,./images/PIMPLEHB.png,,,,,,,,,,,,,,,,,,,,z,1,1.3612,,,,,,,,0,2,2,155,1
,,,,,,,,,,,,,,,,,5e1797da928b15062260e30e,70,2022-02-12_11h47.11.370,lexical_decision_task_DD_L6,2021.2.3,Win32,60.92731371,,,,,,,,,,,,1.0633,1,,,,,,,,,,,,,,,,,,,,,,,,-0.289814749,0.2287037,0,0,0,,,,,,,PISTOL,HB,m,y,./images/PISTOLHB.png,,,,,,,,,,,,,,,,,,,,m,1,1.0633,,,,,,,,0,3,3,29,1
,,,,,,,,,,,,,,,,,5e1797da928b15062260e30e,70,2022-02-12_11h47.11.370,lexical_decision_task_DD_L6,2021.2.3,Win32,60.92731371,,,,,,,,,,,,0.9743,0,,,,,,,,,,,,,,,,,,,,,,,,-0.289814749,0.2287037,0,0,0,,,,,,,BANNER,C,z,y,./images/BANNER.png,,,,,,,,,,,,,,,,,,,,m,0,0.9743,,,,,,,,0,4,4,136,1
,,,,,,,,,,,,,,,,,5e1797da928b15062260e30e,70,2022-02-12_11h47.11.370,lexical_decision_task_DD_L6,2021.2.3,Win32,60.92731371,,,,,,,,,,,,1.326,1,,,,,,,,,,,,,,,,,,,,,,,,-0.289814749,0.2287037,0,0,0,,,,,,,BARREL,HB,z,y,./images/BARRELHB.png,,,,,,,,,,,,,,,,,,,,z,1,1.326,,,,,,,,0,5,5,116,1
,,,,,,,,,,,,,,,,,5e1797da928b15062260e30e,70,2022-02-12_11h47.11.370,lexical_decision_task_DD_L6,2021.2.3,Win32,60.92731371,,,,,,,,,,,,1.4743,1,,,,,,,,,,,,,,,,,,,,,,,,-0.289814749,0.2287037,0,0,0,,,,,,,SUNSET,C,z,y,./images/SUNSET.png,,,,,,,,,,,,,,,,,,,,z,1,1.4743,,,,,,,,0,6,6,166,1
,,,,,,,,,,,,,,,,,5e1797da928b15062260e30e,70,2022-02-12_11h47.11.370,lexical_decision_task_DD_L6,2021.2.3,Win32,60.92731371,,,,,,,,,,,,1.668,0,,,,,,,,,,,,,,,,,,,,,,,,-0.289814749,0.2287037,0,0,0,,,,,,,MIDGET,C,m,y,./images/MIDGET.png,,,,,,,,,,,,,,,,,,,,z,0,1.668,,,,,,,,0,7,7,76,1
,,,,,,,,,,,,,,,,,5e1797da928b15062260e30e,70,2022-02-12_11h47.11.370,lexical_decision_task_DD_L6,2021.2.3,Win32,60.92731371,,,,,,,,,,,,1.482,0,,,,,,,,,,,,,,,,,,,,,,,,-0.289814749,0.2287037,0,0,0,,,,,,,PENCE,C,z,y,./images/PENCE.png,,,,,,,,,,,,,,,,,,,,m,0,1.482,,,,,,,,0,8,8,100,1
,,,,,,,,,,,,,,,,,5e1797da928b15062260e30e,70,2022-02-12_11h47.11.370,lexical_decision_task_DD_L6,2021.2.3,Win32,60.92731371,,,,,,,,,,,,0.985,1,,,,,,,,,,,,,,,,,,,,,,,,-0.289814749,0.2287037,0,0,0,,,,,,,WALNUT,LB,m,y,./images/WALNUTLB.png,,,,,,,,,,,,,,,,,,,,m,1,0.985,,,,,,,,0,9,9,0,1
,,,,,,,,,,,,,,,,,5e1797da928b15062260e30e,70,2022-02-12_11h47.11.370,lexical_decision_task_DD_L6,2021.2.3,Win32,60.92731371,,,,,,,,,,,,0.8451,1,,,,,,,,,,,,,,,,,,,,,,,,-0.289814749,0.2287037,0,0,0,,,,,,,CANOE,C,m,y,./images/CANOE.png,,,,,,,,,,,,,,,,,,,,m,1,0.8451,,,,,,,,0,10,10,58,1
,,,,,,,,,,,,,,,,,5e1797da928b15062260e30e,70,2022-02-12_11h47.11.370,lexical_decision_task_DD_L6,2021.2.3,Win32,60.92731371,,,,,,,,,,,,1.2644,0,,,,,,,,,,,,,,,,,,,,,,,,-0.289814749,0.2287037,0,0,0,,,,,,,MALLET,HB,z,y,./images/MALLETHB.png,,,,,,,,,,,,,,,,,,,,m,0,1.2644,,,,,,,,0,11,11,134,1
,,,,,,,,,,,,,,,,,5e1797da928b15062260e30e,70,2022-02-12_11h47.11.370,lexical_decision_task_DD_L6,2021.2.3,Win32,60.92731371,,,,,,,,,,,,1.2968,1,,,,,,,,,,,,,,,,,,,,,,,,-0.289814749,0.2287037,0,0,0,,,,,,,WALRUS,HB,z,y,./images/WALRUSHB.png,,,,,,,,,,,,,,,,,,,,z,1,1.2968,,,,,,,,0,12,12,107,1
,,,,,,,,,,,,,,,,,5e1797da928b15062260e30e,70,2022-02-12_11h47.11.370,lexical_decision_task_DD_L6,2021.2.3,Win32,60.92731371,,,,,,,,,,,,2.078,0,,,,,,,,,,,,,,,,,,,,,,,,-0.289814749,0.2287037,0,0,0,,,,,,,QUILL,C,z,y,./images/QUILL.png,,,,,,,,,,,,,,,,,,,,m,0,2.078,,,,,,,,0,13,13,115,1
,,,,,,,,,,,,,,,,,5e1797da928b15062260e30e,70,2022-02-12_11h47.11.370,lexical_decision_task_DD_L6,2021.2.3,Win32,60.92731371,,,,,,,,,,,,0.9872,1,,,,,,,,,,,,,,,,,,,,,,,,-0.289814749,0.2287037,0,0,0,,,,,,,BUNNY,C,m,y,./images/BUNNY.png,,,,,,,,,,,,,,,,,,,,m,1,0.9872,,,,,,,,0,14,14,13,1
,,,,,,,,,,,,,,,,,5e1797da928b15062260e30e,70,2022-02-12_11h47.11.370,lexical_decision_task_DD_L6,2021.2.3,Win32,60.92731371,,,,,,,,,,,,1.145,1,,,,,,,,,,,,,,,,,,,,,,,,-0.289814749,0.2287037,0,0,0,,,,,,,LAGOON,HB,m,y,./images/LAGOONHB.png,,,,,,,,,,,,,,,,,,,,m,1,1.145,,,,,,,,0,15,15,47,1
,,,,,,,,,,,,,,,,,5e1797da928b15062260e30e,70,2022-02-12_11h47.11.370,lexical_decision_task_DD_L6,2021.2.3,Win32,60.92731371,,,,,,,,,,,,1.238,0,,,,,,,,,,,,,,,,,,,,,,,,-0.289814749,0.2287037,0,0,0,,,,,,,ATTIC,LB,z,y,./images/ATTICLB.png,,,,,,,,,,,,,,,,,,,,m,0,1.238,,,,,,,,0,16,16,111,1
,,,,,,,,,,,,,,,,,5e1797da928b15062260e30e,70,2022-02-12_11h47.11.370,lexical_decision_task_DD_L6,2021.2.3,Win32,60.92731371,,,,,,,,,,,,1.0409,1,,,,,,,,,,,,,,,,,,,,,,,,-0.289814749,0.2287037,0,0,0,,,,,,,COOKER,LB,z,y,./images/COOKERLB.png,,,,,,,,,,,,,,,,,,,,z,1,1.0409,,,,,,,,0,17,17,153,1
,,,,,,,,,,,,,,,,,5e1797da928b15062260e30e,70,2022-02-12_11h47.11.370,lexical_decision_task_DD_L6,2021.2.3,Win32,60.92731371,,,,,,,,,,,,0.9631,1,,,,,,,,,,,,,,,,,,,,,,,,-0.289814749,0.2287037,0,0,0,,,,,,,FARMER,HB,z,y,./images/FARMERHB.png,,,,,,,,,,,,,,,,,,,,z,1,0.9631,,,,,,,,0,18,18,149,1
,,,,,,,,,,,,,,,,,5e1797da928b15062260e30e,70,2022-02-12_11h47.11.370,lexical_decision_task_DD_L6,2021.2.3,Win32,60.92731371,,,,,,,,,,,,0.9091,1,,,,,,,,,,,,,,,,,,,,,,,,-0.289814749,0.2287037,0,0,0,,,,,,,COUCH,HB,z,y,./images/COUCHHB.png,,,,,,,,,,,,,,,,,,,,z,1,0.9091,,,,,,,,0,19,19,161,1
,,,,,,,,,,,,,,,,,5e1797da928b15062260e30e,70,2022-02-12_11h47.11.370,lexical_decision_task_DD_L6,2021.2.3,Win32,60.92731371,,,,,,,,,,,,0.9436,1,,,,,,,,,,,,,,,,,,,,,,,,-0.289814749,0.2287037,0,0,0,,,,,,,SAILOR,C,z,y,./images/SAILOR.png,,,,,,,,,,,,,,,,,,,,z,1,0.9436,,,,,,,,0,20,20,151,1
,,,,,,,,,,,,,,,,,5e1797da928b15062260e30e,70,2022-02-12_11h47.11.370,lexical_decision_task_DD_L6,2021.2.3,Win32,60.92731371,,,,,,,,,,,,1.7192,1,,,,,,,,,,,,,,,,,,,,,,,,-0.289814749,0.2287037,0,0,0,,,,,,,WEASEL,HB,z,y,./images/WEASELHB.png,,,,,,,,,,,,,,,,,,,,z,1,1.7192,,,,,,,,0,21,21,164,1
,,,,,,,,,,,,,,,,,5e1797da928b15062260e30e,70,2022-02-12_11h47.11.370,lexical_decision_task_DD_L6,2021.2.3,Win32,60.92731371,,,,,,,,,,,,0.9304,1,,,,,,,,,,,,,,,,,,,,,,,,-0.289814749,0.2287037,0,0,0,,,,,,,STOVE,HB,m,y,./images/STOVEHB.png,,,,,,,,,,,,,,,,,,,,m,1,0.9304,,,,,,,,0,22,22,2,1
,,,,,,,,,,,,,,,,,5e1797da928b15062260e30e,70,2022-02-12_11h47.11.370,lexical_decision_task_DD_L6,2021.2.3,Win32,60.92731371,,,,,,,,,,,,1.0006,1,,,,,,,,,,,,,,,,,,,,,,,,-0.289814749,0.2287037,0,0,0,,,,,,,SNACK,C,z,y,./images/SNACK.png,,,,,,,,,,,,,,,,,,,,z,1,1.0006,,,,,,,,0,23,23,157,1
,,,,,,,,,,,,,,,,,5e1797da928b15062260e30e,70,2022-02-12_11h47.11.370,lexical_decision_task_DD_L6,2021.2.3,Win32,60.92731371,,,,,,,,,,,,1.3186,0,,,,,,,,,,,,,,,,,,,,,,,,-0.289814749,0.2287037,0,0,0,,,,,,,FERRY,LB,m,y,./images/FERRYLB.png,,,,,,,,,,,,,,,,,,,,z,0,1.3186,,,,,,,,0,24,24,57,1
,,,,,,,,,,,,,,,,,5e1797da928b15062260e30e,70,2022-02-12_11h47.11.370,lexical_decision_task_DD_L6,2021.2.3,Win32,60.92731371,,,,,,,,,,,,1.0836,0,,,,,,,,,,,,,,,,,,,,,,,,-0.289814749,0.2287037,0,0,0,,,,,,,GLOVE,C,m,y,./images/GLOVE.png,,,,,,,,,,,,,,,,,,,,z,0,1.0836,,,,,,,,0,25,25,73,1
,,,,,,,,,,,,,,,,,5e1797da928b15062260e30e,70,2022-02-12_11h47.11.370,lexical_decision_task_DD_L6,2021.2.3,Win32,60.92731371,,,,,,,,,,,,0.9809,1,,,,,,,,,,,,,,,,,,,,,,,,-0.289814749,0.2287037,0,0,0,,,,,,,BRUSH,HB,m,y,./images/BRUSHHB.png,,,,,,,,,,,,,,,,,,,,m,1,0.9809,,,,,,,,0,26,26,59,1
,,,,,,,,,,,,,,,,,5e1797da928b15062260e30e,70,2022-02-12_11h47.11.370,lexical_decision_task_DD_L6,2021.2.3,Win32,60.92731371,,,,,,,,,,,,1.129,0,,,,,,,,,,,,,,,,,,,,,,,,-0.289814749,0.2287037,0,0,0,,,,,,,BABOON,C,z,y,./images/BABOON.png,,,,,,,,,,,,,,,,,,,,m,0,1.129,,,,,,,,0,27,27,142,1
,,,,,,,,,,,,,,,,,5e1797da928b15062260e30e,70,2022-02-12_11h47.11.370,lexical_decision_task_DD_L6,2021.2.3,Win32,60.92731371,,,,,,,,,,,,1.2353,1,,,,,,,,,,,,,,,,,,,,,,,,-0.289814749,0.2287037,0,0,0,,,,,,,TULIP,HB,z,y,./images/TULIPHB.png,,,,,,,,,,,,,,,,,,,,z,1,1.2353,,,,,,,,0,28,28,92,1
,,,,,,,,,,,,,,,,,5e1797da928b15062260e30e,70,2022-02-12_11h47.11.370,lexical_decision_task_DD_L6,2021.2.3,Win32,60.92731371,,,,,,,,,,,,1.1225,1,,,,,,,,,,,,,,,,,,,,,,,,-0.289814749,0.2287037,0,0,0,,,,,,,PURSE,HB,z,y,./images/PURSEHB.png,,,,,,,,,,,,,,,,,,,,z,1,1.1225,,,,,,,,0,29,29,146,1
,,,,,,,,,,,,,,,,,5e1797da928b15062260e30e,70,2022-02-12_11h47.11.370,lexical_decision_task_DD_L6,2021.2.3,Win32,60.92731371,,,,,,,,,,,,1.5431,1,,,,,,,,,,,,,,,,,,,,,,,,-0.289814749,0.2287037,0,0,0,,,,,,,VALLEY,HB,m,y,./images/VALLEYHB.png,,,,,,,,,,,,,,,,,,,,m,1,1.5431,,,,,,,,0,30,30,68,1
,,,,,,,,,,,,,,,,,5e1797da928b15062260e30e,70,2022-02-12_11h47.11.370,lexical_decision_task_DD_L6,2021.2.3,Win32,60.92731371,,,,,,,,,,,,1.0672,1,,,,,,,,,,,,,,,,,,,,,,,,-0.289814749,0.2287037,0,0,0,,,,,,,RHINO,LB,z,y,./images/RHINOLB.png,,,,,,,,,,,,,,,,,,,,z,1,1.0672,,,,,,,,0,31,31,93,1
,,,,,,,,,,,,,,,,,5e1797da928b15062260e30e,70,2022-02-12_11h47.11.370,lexical_decision_task_DD_L6,2021.2.3,Win32,60.92731371,,,,,,,,,,,,1.0997,1,,,,,,,,,,,,,,,,,,,,,,,,-0.289814749,0.2287037,0,0,0,,,,,,,TORCH,HB,z,y,./images/TORCHHB.png,,,,,,,,,,,,,,,,,,,,z,1,1.0997,,,,,,,,0,32,32,152,1
,,,,,,,,,,,,,,,,,5e1797da928b15062260e30e,70,2022-02-12_11h47.11.370,lexical_decision_task_DD_L6,2021.2.3,Win32,60.92731371,,,,,,,,,,,,0.9772,1,,,,,,,,,,,,,,,,,,,,,,,,-0.289814749,0.2287037,0,0,0,,,,,,,POSTER,HB,m,y,./images/POSTERHB.png,,,,,,,,,,,,,,,,,,,,m,1,0.9772,,,,,,,,0,33,33,53,1
,,,,,,,,,,,,,,,,,5e1797da928b15062260e30e,70,2022-02-12_11h47.11.370,lexical_decision_task_DD_L6,2021.2.3,Win32,60.92731371,,,,,,,,,,,,0.9733,0,,,,,,,,,,,,,,,,,,,,,,,,-0.289814749,0.2287037,0,0,0,,,,,,,BONNET,HB,z,y,./images/BONNETHB.png,,,,,,,,,,,,,,,,,,,,m,0,0.9733,,,,,,,,0,34,34,95,1
,,,,,,,,,,,,,,,,,5e1797da928b15062260e30e,70,2022-02-12_11h47.11.370,lexical_decision_task_DD_L6,2021.2.3,Win32,60.92731371,,,,,,,,,,,,1.1271,0,,,,,,,,,,,,,,,,,,,,,,,,-0.289814749,0.2287037,0,0,0,,,,,,,HEATER,HB,m,y,./images/HEATERHB.png,,,,,,,,,,,,,,,,,,,,z,0,1.1271,,,,,,,,0,35,35,56,1
,,,,,,,,,,,,,,,,,5e1797da928b15062260e30e,70,2022-02-12_11h47.11.370,lexical_decision_task_DD_L6,2021.2.3,Win32,60.92731371,,,,,,,,,,,,1.5782,1,,,,,,,,,,,,,,,,,,,,,,,,-0.289814749,0.2287037,0,0,0,,,,,,,RULER,C,m,y,./images/RULER.png,,,,,,,,,,,,,,,,,,,,m,1,1.5782,,,,,,,,0,36,36,79,1
,,,,,,,,,,,,,,,,,5e1797da928b15062260e30e,70,2022-02-12_11h47.11.370,lexical_decision_task_DD_L6,2021.2.3,Win32,60.92731371,,,,,,,,,,,,0.9954,0,,,,,,,,,,,,,,,,,,,,,,,,-0.289814749,0.2287037,0,0,0,,,,,,,POODLE,LB,z,y,./images/POODLELB.png,,,,,,,,,,,,,,,,,,,,m,0,0.9954,,,,,,,,0,37,37,165,1
,,,,,,,,,,,,,,,,,5e1797da928b15062260e30e,70,2022-02-12_11h47.11.370,lexical_decision_task_DD_L6,2021.2.3,Win32,60.92731371,,,,,,,,,,,,0.8143,1,,,,,,,,,,,,,,,,,,,,,,,,-0.289814749,0.2287037,0,0,0,,,,,,,BUBBLE,HB,m,y,./images/BUBBLEHB.png,,,,,,,,,,,,,,,,,,,,m,1,0.8143,,,,,,,,0,38,38,71,1
,,,,,,,,,,,,,,,,,5e1797da928b15062260e30e,70,2022-02-12_11h47.11.370,lexical_decision_task_DD_L6,2021.2.3,Win32,60.92731371,,,,,,,,,,,,0.8283,1,,,,,,,,,,,,,,,,,,,,,,,,-0.289814749,0.2287037,0,0,0,,,,,,,RAZOR,C,m,y,./images/RAZOR.png,,,,,,,,,,,,,,,,,,,,m,1,0.8283,,,,,,,,0,39,39,34,1
,,,,,,,,,,,,,,,,,5e1797da928b15062260e30e,70,2022-02-12_11h47.11.370,lexical_decision_task_DD_L6,2021.2.3,Win32,60.92731371,,,,,,,,,,,,1.4474,1,,,,,,,,,,,,,,,,,,,,,,,,-0.289814749,0.2287037,0,0,0,,,,,,,BERRY,HB,z,y,./images/BERRYHB.png,,,,,,,,,,,,,,,,,,,,z,1,1.4474,,,,,,,,0,40,40,131,1
,,,,,,,,,,,,,,,,,5e1797da928b15062260e30e,70,2022-02-12_11h47.11.370,lexical_decision_task_DD_L6,2021.2.3,Win32,60.92731371,,,,,,,,,,,,0.8291,1,,,,,,,,,,,,,,,,,,,,,,,,-0.289814749,0.2287037,0,0,0,space,,,,,,DRUMS,C,z,y,./images/DRUMS.png,17.6068,,,,,,,,,,,,,,,,,,,z,1,0.8291,,,,,,,,0,41,41,133,1
,,,,,,,,,,,,,,,,,5e1797da928b15062260e30e,70,2022-02-12_11h47.11.370,lexical_decision_task_DD_L6,2021.2.3,Win32,60.92731371,,,,,,,,,,,,1.378,1,,,,,,,,,,,,,,,,,,,,,,,,-0.289814749,0.2287037,0,0,0,,,,,,,COLLAR,LB,m,y,./images/COLLARLB.png,,,,,,,,,,,,,,,,,,,,m,1,1.378,,,,,,,,0,42,42,15,1
,,,,,,,,,,,,,,,,,5e1797da928b15062260e30e,70,2022-02-12_11h47.11.370,lexical_decision_task_DD_L6,2021.2.3,Win32,60.92731371,,,,,,,,,,,,1.1082,0,,,,,,,,,,,,,,,,,,,,,,,,-0.289814749,0.2287037,0,0,0,,,,,,,GRANNY,HB,m,y,./images/GRANNYHB.png,,,,,,,,,,,,,,,,,,,,z,0,1.1082,,,,,,,,0,43,43,20,1
,,,,,,,,,,,,,,,,,5e1797da928b15062260e30e,70,2022-02-12_11h47.11.370,lexical_decision_task_DD_L6,2021.2.3,Win32,60.92731371,,,,,,,,,,,,1.118,1,,,,,,,,,,,,,,,,,,,,,,,,-0.289814749,0.2287037,0,0,0,,,,,,,STRING,HB,z,y,./images/STRINGHB.png,,,,,,,,,,,,,,,,,,,,z,1,1.118,,,,,,,,0,44,44,125,1
,,,,,,,,,,,,,,,,,5e1797da928b15062260e30e,70,2022-02-12_11h47.11.370,lexical_decision_task_DD_L6,2021.2.3,Win32,60.92731371,,,,,,,,,,,,1.1685,1,,,,,,,,,,,,,,,,,,,,,,,,-0.289814749,0.2287037,0,0,0,,,,,,,SAUNA,LB,m,y,./images/SAUNALB.png,,,,,,,,,,,,,,,,,,,,m,1,1.1685,,,,,,,,0,45,45,33,1
,,,,,,,,,,,,,,,,,5e1797da928b15062260e30e,70,2022-02-12_11h47.11.370,lexical_decision_task_DD_L6,2021.2.3,Win32,60.92731371,,,,,,,,,,,,1.2204,1,,,,,,,,,,,,,,,,,,,,,,,,-0.289814749,0.2287037,0,0,0,,,,,,,LITTER,LB,z,y,./images/LITTERLB.png,,,,,,,,,,,,,,,,,,,,z,1,1.2204,,,,,,,,0,46,46,162,1
,,,,,,,,,,,,,,,,,5e1797da928b15062260e30e,70,2022-02-12_11h47.11.370,lexical_decision_task_DD_L6,2021.2.3,Win32,60.92731371,,,,,,,,,,,,1.3018,1,,,,,,,,,,,,,,,,,,,,,,,,-0.289814749,0.2287037,0,0,0,,,,,,,MAGGOT,LB,z,y,./images/MAGGOTLB.png,,,,,,,,,,,,,,,,,,,,z,1,1.3018,,,,,,,,0,47,47,117,1
,,,,,,,,,,,,,,,,,5e1797da928b15062260e30e,70,2022-02-12_11h47.11.370,lexical_decision_task_DD_L6,2021.2.3,Win32,60.92731371,,,,,,,,,,,,0.8014,1,,,,,,,,,,,,,,,,,,,,,,,,-0.289814749,0.2287037,0,0,0,,,,,,,BUTTER,LB,m,y,./images/BUTTERLB.png,,,,,,,,,,,,,,,,,,,,m,1,0.8014,,,,,,,,0,48,48,27,1
,,,,,,,,,,,,,,,,,5e1797da928b15062260e30e,70,2022-02-12_11h47.11.370,lexical_decision_task_DD_L6,2021.2.3,Win32,60.92731371,,,,,,,,,,,,0.6891,1,,,,,,,,,,,,,,,,,,,,,,,,-0.289814749,0.2287037,0,0,0,,,,,,,STEAK,C,m,y,./images/STEAK.png,,,,,,,,,,,,,,,,,,,,m,1,0.6891,,,,,,,,0,49,49,31,1
,,,,,,,,,,,,,,,,,5e1797da928b15062260e30e,70,2022-02-12_11h47.11.370,lexical_decision_task_DD_L6,2021.2.3,Win32,60.92731371,,,,,,,,,,,,0.9342,0,,,,,,,,,,,,,,,,,,,,,,,,-0.289814749,0.2287037,0,0,0,,,,,,,TWINS,LB,z,y,./images/TWINSLB.png,,,,,,,,,,,,,,,,,,,,m,0,0.9342,,,,,,,,0,50,50,144,1
,,,,,,,,,,,,,,,,,5e1797da928b15062260e30e,70,2022-02-12_11h47.11.370,lexical_decision_task_DD_L6,2021.2.3,Win32,60.92731371,,,,,,,,,,,,1.2513,0,,,,,,,,,,,,,,,,,,,,,,,,-0.289814749,0.2287037,0,0,0,,,,,,,BRIDE,C,m,y,./images/BRIDE.png,,,,,,,,,,,,,,,,,,,,z,0,1.2513,,,,,,,,0,51,51,64,1
,,,,,,,,,,,,,,,,,5e1797da928b15062260e30e,70,2022-02-12_11h47.11.370,lexical_decision_task_DD_L6,2021.2.3,Win32,60.92731371,,,,,,,,,,,,1.2877,1,,,,,,,,,,,,,,,,,,,,,,,,-0.289814749,0.2287037,0,0,0,,,,,,,ALLEY,C,m,y,./images/ALLEY.png,,,,,,,,,,,,,,,,,,,,m,1,1.2877,,,,,,,,0,52,52,55,1
,,,,,,,,,,,,,,,,,5e1797da928b15062260e30e,70,2022-02-12_11h47.11.370,lexical_decision_task_DD_L6,2021.2.3,Win32,60.92731371,,,,,,,,,,,,0.9172,1,,,,,,,,,,,,,,,,,,,,,,,,-0.289814749,0.2287037,0,0,0,,,,,,,STATUE,LB,m,y,./images/STATUELB.png,,,,,,,,,,,,,,,,,,,,m,1,0.9172,,,,,,,,0,53,53,66,1
,,,,,,,,,,,,,,,,,5e1797da928b15062260e30e,70,2022-02-12_11h47.11.370,lexical_decision_task_DD_L6,2021.2.3,Win32,60.92731371,,,,,,,,,,,,0.9245,1,,,,,,,,,,,,,,,,,,,,,,,,-0.289814749,0.2287037,0,0,0,,,,,,,CHALK,C,m,y,./images/CHALK.png,,,,,,,,,,,,,,,,,,,,m,1,0.9245,,,,,,,,0,54,54,25,1
,,,,,,,,,,,,,,,,,5e1797da928b15062260e30e,70,2022-02-12_11h47.11.370,lexical_decision_task_DD_L6,2021.2.3,Win32,60.92731371,,,,,,,,,,,,0.9413,1,,,,,,,,,,,,,,,,,,,,,,,,-0.289814749,0.2287037,0,0,0,,,,,,,JUNGLE,HB,z,y,./images/JUNGLEHB.png,,,,,,,,,,,,,,,,,,,,z,1,0.9413,,,,,,,,0,55,55,167,1
,,,,,,,,,,,,,,,,,5e1797da928b15062260e30e,70,2022-02-12_11h47.11.370,lexical_decision_task_DD_L6,2021.2.3,Win32,60.92731371,,,,,,,,,,,,1.068,1,,,,,,,,,,,,,,,,,,,,,,,,-0.289814749,0.2287037,0,0,0,,,,,,,PACKET,HB,z,y,./images/PACKETHB.png,,,,,,,,,,,,,,,,,,,,z,1,1.068,,,,,,,,0,56,56,140,1
,,,,,,,,,,,,,,,,,5e1797da928b15062260e30e,70,2022-02-12_11h47.11.370,lexical_decision_task_DD_L6,2021.2.3,Win32,60.92731371,,,,,,,,,,,,0.7853,1,,,,,,,,,,,,,,,,,,,,,,,,-0.289814749,0.2287037,0,0,0,,,,,,,TIGER,C,m,y,./images/TIGER.png,,,,,,,,,,,,,,,,,,,,m,1,0.7853,,,,,,,,0,57,57,37,1
,,,,,,,,,,,,,,,,,5e1797da928b15062260e30e,70,2022-02-12_11h47.11.370,lexical_decision_task_DD_L6,2021.2.3,Win32,60.92731371,,,,,,,,,,,,1.0185,0,,,,,,,,,,,,,,,,,,,,,,,,-0.289814749,0.2287037,0,0,0,,,,,,,CLIFF,HB,m,y,./images/CLIFFHB.png,,,,,,,,,,,,,,,,,,,,z,0,1.0185,,,,,,,,0,58,58,8,1
,,,,,,,,,,,,,,,,,5e1797da928b15062260e30e,70,2022-02-12_11h47.11.370,lexical_decision_task_DD_L6,2021.2.3,Win32,60.92731371,,,,,,,,,,,,1.2574,0,,,,,,,,,,,,,,,,,,,,,,,,-0.289814749,0.2287037,0,0,0,,,,,,,CLOTH,HB,m,y,./images/CLOTHHB.png,,,,,,,,,,,,,,,,,,,,z,0,1.2574,,,,,,,,0,59,59,23,1
,,,,,,,,,,,,,,,,,5e1797da928b15062260e30e,70,2022-02-12_11h47.11.370,lexical_decision_task_DD_L6,2021.2.3,Win32,60.92731371,,,,,,,,,,,,0.9844,1,,,,,,,,,,,,,,,,,,,,,,,,-0.289814749,0.2287037,0,0,0,,,,,,,PILOT,HB,m,y,./images/PILOTHB.png,,,,,,,,,,,,,,,,,,,,m,1,0.9844,,,,,,,,0,60,60,50,1
,,,,,,,,,,,,,,,,,5e1797da928b15062260e30e,70,2022-02-12_11h47.11.370,lexical_decision_task_DD_L6,2021.2.3,Win32,60.92731371,,,,,,,,,,,,0.813,1,,,,,,,,,,,,,,,,,,,,,,,,-0.289814749,0.2287037,0,0,0,,,,,,,CHERRY,LB,m,y,./images/CHERRYLB.png,,,,,,,,,,,,,,,,,,,,m,1,0.813,,,,,,,,0,61,61,54,1
,,,,,,,,,,,,,,,,,5e1797da928b15062260e30e,70,2022-02-12_11h47.11.370,lexical_decision_task_DD_L6,2021.2.3,Win32,60.92731371,,,,,,,,,,,,1.2437,1,,,,,,,,,,,,,,,,,,,,,,,,-0.289814749,0.2287037,0,0,0,,,,,,,DESERT,C,m,y,./images/DESERT.png,,,,,,,,,,,,,,,,,,,,m,1,1.2437,,,,,,,,0,62,62,52,1
,,,,,,,,,,,,,,,,,5e1797da928b15062260e30e,70,2022-02-12_11h47.11.370,lexical_decision_task_DD_L6,2021.2.3,Win32,60.92731371,,,,,,,,,,,,0.9698,1,,,,,,,,,,,,,,,,,,,,,,,,-0.289814749,0.2287037,0,0,0,,,,,,,URINE,C,z,y,./images/URINE.png,,,,,,,,,,,,,,,,,,,,z,1,0.9698,,,,,,,,0,63,63,154,1
,,,,,,,,,,,,,,,,,5e1797da928b15062260e30e,70,2022-02-12_11h47.11.370,lexical_decision_task_DD_L6,2021.2.3,Win32,60.92731371,,,,,,,,,,,,0.7989,1,,,,,,,,,,,,,,,,,,,,,,,,-0.289814749,0.2287037,0,0,0,,,,,,,SMOKER,HB,z,y,./images/SMOKERHB.png,,,,,,,,,,,,,,,,,,,,z,1,0.7989,,,,,,,,0,64,64,110,1
,,,,,,,,,,,,,,,,,5e1797da928b15062260e30e,70,2022-02-12_11h47.11.370,lexical_decision_task_DD_L6,2021.2.3,Win32,60.92731371,,,,,,,,,,,,1.1871,0,,,,,,,,,,,,,,,,,,,,,,,,-0.289814749,0.2287037,0,0,0,,,,,,,CRADLE,HB,z,y,./images/CRADLEHB.png,,,,,,,,,,,,,,,,,,,,m,0,1.1871,,,,,,,,0,65,65,104,1
,,,,,,,,,,,,,,,,,5e1797da928b15062260e30e,70,2022-02-12_11h47.11.370,lexical_decision_task_DD_L6,2021.2.3,Win32,60.92731371,,,,,,,,,,,,1.007,1,,,,,,,,,,,,,,,,,,,,,,,,-0.289814749,0.2287037,0,0,0,,,,,,,PEARL,C,z,y,./images/PEARL.png,,,,,,,,,,,,,,,,,,,,z,1,1.007,,,,,,,,0,66,66,130,1
,,,,,,,,,,,,,,,,,5e1797da928b15062260e30e,70,2022-02-12_11h47.11.370,lexical_decision_task_DD_L6,2021.2.3,Win32,60.92731371,,,,,,,,,,,,1.1069,0,,,,,,,,,,,,,,,,,,,,,,,,-0.289814749,0.2287037,0,0,0,,,,,,,STOOL,C,m,y,./images/STOOL.png,,,,,,,,,,,,,,,,,,,,z,0,1.1069,,,,,,,,0,67,67,43,1
,,,,,,,,,,,,,,,,,5e1797da928b15062260e30e,70,2022-02-12_11h47.11.370,lexical_decision_task_DD_L6,2021.2.3,Win32,60.92731371,,,,,,,,,,,,0.8498,1,,,,,,,,,,,,,,,,,,,,,,,,-0.289814749,0.2287037,0,0,0,,,,,,,MIRROR,LB,z,y,./images/MIRRORLB.png,,,,,,,,,,,,,,,,,,,,z,1,0.8498,,,,,,,,0,68,68,147,1
,,,,,,,,,,,,,,,,,5e1797da928b15062260e30e,70,2022-02-12_11h47.11.370,lexical_decision_task_DD_L6,2021.2.3,Win32,60.92731371,,,,,,,,,,,,0.9165,0,,,,,,,,,,,,,,,,,,,,,,,,-0.289814749,0.2287037,0,0,0,,,,,,,CHAIN,LB,m,y,./images/CHAINLB.png,,,,,,,,,,,,,,,,,,,,z,0,0.9165,,,,,,,,0,69,69,42,1
,,,,,,,,,,,,,,,,,5e1797da928b15062260e30e,70,2022-02-12_11h47.11.370,lexical_decision_task_DD_L6,2021.2.3,Win32,60.92731371,,,,,,,,,,,,0.9531,0,,,,,,,,,,,,,,,,,,,,,,,,-0.289814749,0.2287037,0,0,0,,,,,,,MOOSE,LB,z,y,./images/MOOSELB.png,,,,,,,,,,,,,,,,,,,,m,0,0.9531,,,,,,,,0,70,70,141,1
,,,,,,,,,,,,,,,,,5e1797da928b15062260e30e,70,2022-02-12_11h47.11.370,lexical_decision_task_DD_L6,2021.2.3,Win32,60.92731371,,,,,,,,,,,,1.0429,0,,,,,,,,,,,,,,,,,,,,,,,,-0.289814749,0.2287037,0,0,0,,,,,,,ENGINE,HB,m,y,./images/ENGINEHB.png,,,,,,,,,,,,,,,,,,,,z,0,1.0429,,,,,,,,0,71,71,38,1
,,,,,,,,,,,,,,,,,5e1797da928b15062260e30e,70,2022-02-12_11h47.11.370,lexical_decision_task_DD_L6,2021.2.3,Win32,60.92731371,,,,,,,,,,,,0.9595,1,,,,,,,,,,,,,,,,,,,,,,,,-0.289814749,0.2287037,0,0,0,,,,,,,BOILER,LB,m,y,./images/BOILERLB.png,,,,,,,,,,,,,,,,,,,,m,1,0.9595,,,,,,,,0,72,72,36,1
,,,,,,,,,,,,,,,,,5e1797da928b15062260e30e,70,2022-02-12_11h47.11.370,lexical_decision_task_DD_L6,2021.2.3,Win32,60.92731371,,,,,,,,,,,,1.0004,1,,,,,,,,,,,,,,,,,,,,,,,,-0.289814749,0.2287037,0,0,0,,,,,,,SPORT,LB,z,y,./images/SPORTLB.png,,,,,,,,,,,,,,,,,,,,z,1,1.0004,,,,,,,,0,73,73,132,1
,,,,,,,,,,,,,,,,,5e1797da928b15062260e30e,70,2022-02-12_11h47.11.370,lexical_decision_task_DD_L6,2021.2.3,Win32,60.92731371,,,,,,,,,,,,1.033,1,,,,,,,,,,,,,,,,,,,,,,,,-0.289814749,0.2287037,0,0,0,,,,,,,CRUST,C,z,y,./images/CRUST.png,,,,,,,,,,,,,,,,,,,,z,1,1.033,,,,,,,,0,74,74,163,1
,,,,,,,,,,,,,,,,,5e1797da928b15062260e30e,70,2022-02-12_11h47.11.370,lexical_decision_task_DD_L6,2021.2.3,Win32,60.92731371,,,,,,,,,,,,0.9684,0,,,,,,,,,,,,,,,,,,,,,,,,-0.289814749,0.2287037,0,0,0,,,,,,,GRAPE,C,m,y,./images/GRAPE.png,,,,,,,,,,,,,,,,,,,,z,0,0.9684,,,,,,,,0,75,75,16,1
,,,,,,,,,,,,,,,,,5e1797da928b15062260e30e,70,2022-02-12_11h47.11.370,lexical_decision_task_DD_L6,2021.2.3,Win32,60.92731371,,,,,,,,,,,,1.0714,0,,,,,,,,,,,,,,,,,,,,,,,,-0.289814749,0.2287037,0,0,0,,,,,,,SNAKE,C,m,y,./images/SNAKE.png,,,,,,,,,,,,,,,,,,,,z,0,1.0714,,,,,,,,0,76,76,40,1
,,,,,,,,,,,,,,,,,5e1797da928b15062260e30e,70,2022-02-12_11h47.11.370,lexical_decision_task_DD_L6,2021.2.3,Win32,60.92731371,,,,,,,,,,,,1.1374,1,,,,,,,,,,,,,,,,,,,,,,,,-0.289814749,0.2287037,0,0,0,,,,,,,BELLY,C,z,y,./images/BELLY.png,,,,,,,,,,,,,,,,,,,,z,1,1.1374,,,,,,,,0,77,77,94,1
,,,,,,,,,,,,,,,,,5e1797da928b15062260e30e,70,2022-02-12_11h47.11.370,lexical_decision_task_DD_L6,2021.2.3,Win32,60.92731371,,,,,,,,,,,,1.0019,1,,,,,,,,,,,,,,,,,,,,,,,,-0.289814749,0.2287037,0,0,0,,,,,,,SWING,C,z,y,./images/SWING.png,,,,,,,,,,,,,,,,,,,,z,1,1.0019,,,,,,,,0,78,78,124,1
,,,,,,,,,,,,,,,,,5e1797da928b15062260e30e,70,2022-02-12_11h47.11.370,lexical_decision_task_DD_L6,2021.2.3,Win32,60.92731371,,,,,,,,,,,,1.0579,0,,,,,,,,,,,,,,,,,,,,,,,,-0.289814749,0.2287037,0,0,0,,,,,,,DANCER,LB,m,y,./images/DANCERLB.png,,,,,,,,,,,,,,,,,,,,z,0,1.0579,,,,,,,,0,79,79,21,1
,,,,,,,,,,,,,,,,,5e1797da928b15062260e30e,70,2022-02-12_11h47.11.370,lexical_decision_task_DD_L6,2021.2.3,Win32,60.92731371,,,,,,,,,,,,1.151,1,,,,,,,,,,,,,,,,,,,,,,,,-0.289814749,0.2287037,0,0,0,,,,,,,BASKET,HB,m,y,./images/BASKETHB.png,,,,,,,,,,,,,,,,,,,,m,1,1.151,,,,,,,,0,80,80,44,1
,,,,,,,,,,,,,,,,,5e1797da928b15062260e30e,70,2022-02-12_11h47.11.370,lexical_decision_task_DD_L6,2021.2.3,Win32,60.92731371,,,,,,,,,,,,0.9773,1,,,,,,,,,,,,,,,,,,,,,,,,-0.289814749,0.2287037,0,0,0,,,,,,,KITTEN,LB,z,y,./images/KITTENLB.png,,,,,,,,,,,,,,,,,,,,z,1,0.9773,,,,,,,,0,81,81,129,1
,,,,,,,,,,,,,,,,,5e1797da928b15062260e30e,70,2022-02-12_11h47.11.370,lexical_decision_task_DD_L6,2021.2.3,Win32,60.92731371,,,,,,,,,,,,1.0814,1,,,,,,,,,,,,,,,,,,,,,,,,-0.289814749,0.2287037,0,0,0,,,,,,,MUMMY,C,m,y,./images/MUMMY.png,,,,,,,,,,,,,,,,,,,,m,1,1.0814,,,,,,,,0,82,82,46,1
,,,,,,,,,,,,,,,,,5e1797da928b15062260e30e,70,2022-02-12_11h47.11.370,lexical_decision_task_DD_L6,2021.2.3,Win32,60.92731371,,,,,,,,,,,,0.9908,1,,,,,,,,,,,,,,,,,,,,,,,,-0.289814749,0.229629626,0,0,0,space,,,,,,FLASK,LB,m,y,./images/FLASKLB.png,32.3393,,,,,,,,,,,,,,,,,,,m,1,0.9908,,,,,,,,0,83,83,72,1
,,,,,,,,,,,,,,,,,5e1797da928b15062260e30e,70,2022-02-12_11h47.11.370,lexical_decision_task_DD_L6,2021.2.3,Win32,60.92731371,,,,,,,,,,,,1.5169,0,,,,,,,,,,,,,,,,,,,,,,,,-0.289814749,0.229629626,0,0,0,,,,,,,FINGER,LB,z,y,./images/FINGERLB.png,,,,,,,,,,,,,,,,,,,,m,0,1.5169,,,,,,,,0,84,84,87,1
,,,,,,,,,,,,,,,,,5e1797da928b15062260e30e,70,2022-02-12_11h47.11.370,lexical_decision_task_DD_L6,2021.2.3,Win32,60.92731371,,,,,,,,,,,,1.4926,1,,,,,,,,,,,,,,,,,,,,,,,,-0.289814749,0.229629626,0,0,0,,,,,,,CARPET,HB,z,y,./images/CARPETHB.png,,,,,,,,,,,,,,,,,,,,z,1,1.4926,,,,,,,,0,85,85,137,1
,,,,,,,,,,,,,,,,,5e1797da928b15062260e30e,70,2022-02-12_11h47.11.370,lexical_decision_task_DD_L6,2021.2.3,Win32,60.92731371,,,,,,,,,,,,1.0591,1,,,,,,,,,,,,,,,,,,,,,,,,-0.289814749,0.229629626,0,0,0,,,,,,,BIRTH,C,z,y,./images/BIRTH.png,,,,,,,,,,,,,,,,,,,,z,1,1.0591,,,,,,,,0,86,86,121,1
,,,,,,,,,,,,,,,,,5e1797da928b15062260e30e,70,2022-02-12_11h47.11.370,lexical_decision_task_DD_L6,2021.2.3,Win32,60.92731371,,,,,,,,,,,,0.9673,1,,,,,,,,,,,,,,,,,,,,,,,,-0.289814749,0.229629626,0,0,0,,,,,,,MOTOR,C,z,y,./images/MOTOR.png,,,,,,,,,,,,,,,,,,,,z,1,0.9673,,,,,,,,0,87,87,97,1
,,,,,,,,,,,,,,,,,5e1797da928b15062260e30e,70,2022-02-12_11h47.11.370,lexical_decision_task_DD_L6,2021.2.3,Win32,60.92731371,,,,,,,,,,,,0.9373,0,,,,,,,,,,,,,,,,,,,,,,,,-0.289814749,0.229629626,0,0,0,,,,,,,HOCKEY,HB,m,y,./images/HOCKEYHB.png,,,,,,,,,,,,,,,,,,,,z,0,0.9373,,,,,,,,0,88,88,32,1
,,,,,,,,,,,,,,,,,5e1797da928b15062260e30e,70,2022-02-12_11h47.11.370,lexical_decision_task_DD_L6,2021.2.3,Win32,60.92731371,,,,,,,,,,,,1.1078,0,,,,,,,,,,,,,,,,,,,,,,,,-0.289814749,0.229629626,0,0,0,,,,,,,ARROW,LB,m,y,./images/ARROWLB.png,,,,,,,,,,,,,,,,,,,,z,0,1.1078,,,,,,,,0,89,89,69,1
,,,,,,,,,,,,,,,,,5e1797da928b15062260e30e,70,2022-02-12_11h47.11.370,lexical_decision_task_DD_L6,2021.2.3,Win32,60.92731371,,,,,,,,,,,,1.1189,1,,,,,,,,,,,,,,,,,,,,,,,,-0.289814749,0.229629626,0,0,0,,,,,,,ONION,LB,z,y,./images/ONIONLB.png,,,,,,,,,,,,,,,,,,,,z,1,1.1189,,,,,,,,0,90,90,135,1
,,,,,,,,,,,,,,,,,5e1797da928b15062260e30e,70,2022-02-12_11h47.11.370,lexical_decision_task_DD_L6,2021.2.3,Win32,60.92731371,,,,,,,,,,,,0.912,1,,,,,,,,,,,,,,,,,,,,,,,,-0.289814749,0.229629626,0,0,0,,,,,,,PICKLE,HB,z,y,./images/PICKLEHB.png,,,,,,,,,,,,,,,,,,,,z,1,0.912,,,,,,,,0,91,91,98,1
,,,,,,,,,,,,,,,,,5e1797da928b15062260e30e,70,2022-02-12_11h47.11.370,lexical_decision_task_DD_L6,2021.2.3,Win32,60.92731371,,,,,,,,,,,,0.9349,1,,,,,,,,,,,,,,,,,,,,,,,,-0.289814749,0.229629626,0,0,0,,,,,,,SLOPE,LB,m,y,./images/SLOPELB.png,,,,,,,,,,,,,,,,,,,,m,1,0.9349,,,,,,,,0,92,92,30,1
,,,,,,,,,,,,,,,,,5e1797da928b15062260e30e,70,2022-02-12_11h47.11.370,lexical_decision_task_DD_L6,2021.2.3,Win32,60.92731371,,,,,,,,,,,,1.3524,0,,,,,,,,,,,,,,,,,,,,,,,,-0.289814749,0.229629626,0,0,0,,,,,,,BROOM,LB,m,y,./images/BROOMLB.png,,,,,,,,,,,,,,,,,,,,z,0,1.3524,,,,,,,,0,93,93,78,1
,,,,,,,,,,,,,,,,,5e1797da928b15062260e30e,70,2022-02-12_11h47.11.370,lexical_decision_task_DD_L6,2021.2.3,Win32,60.92731371,,,,,,,,,,,,0.9345,1,,,,,,,,,,,,,,,,,,,,,,,,-0.289814749,0.229629626,0,0,0,,,,,,,DOUGH,C,z,y,./images/DOUGH.png,,,,,,,,,,,,,,,,,,,,z,1,0.9345,,,,,,,,0,94,94,103,1
,,,,,,,,,,,,,,,,,5e1797da928b15062260e30e,70,2022-02-12_11h47.11.370,lexical_decision_task_DD_L6,2021.2.3,Win32,60.92731371,,,,,,,,,,,,0.9845,1,,,,,,,,,,,,,,,,,,,,,,,,-0.289814749,0.229629626,0,0,0,,,,,,,MELON,C,z,y,./images/MELON.png,,,,,,,,,,,,,,,,,,,,z,1,0.9845,,,,,,,,0,95,95,106,1
,,,,,,,,,,,,,,,,,5e1797da928b15062260e30e,70,2022-02-12_11h47.11.370,lexical_decision_task_DD_L6,2021.2.3,Win32,60.92731371,,,,,,,,,,,,1.3684,1,,,,,,,,,,,,,,,,,,,,,,,,-0.289814749,0.229629626,0,0,0,,,,,,,LLAMA,HB,m,y,./images/LLAMAHB.png,,,,,,,,,,,,,,,,,,,,m,1,1.3684,,,,,,,,0,96,96,35,1
,,,,,,,,,,,,,,,,,5e1797da928b15062260e30e,70,2022-02-12_11h47.11.370,lexical_decision_task_DD_L6,2021.2.3,Win32,60.92731371,,,,,,,,,,,,1.317,1,,,,,,,,,,,,,,,,,,,,,,,,-0.289814749,0.229629626,0,0,0,,,,,,,SQUARE,LB,z,y,./images/SQUARELB.png,,,,,,,,,,,,,,,,,,,,z,1,1.317,,,,,,,,0,97,97,90,1
,,,,,,,,,,,,,,,,,5e1797da928b15062260e30e,70,2022-02-12_11h47.11.370,lexical_decision_task_DD_L6,2021.2.3,Win32,60.92731371,,,,,,,,,,,,1.0291,1,,,,,,,,,,,,,,,,,,,,,,,,-0.289814749,0.229629626,0,0,0,,,,,,,LIZARD,HB,z,y,./images/LIZARDHB.png,,,,,,,,,,,,,,,,,,,,z,1,1.0291,,,,,,,,0,98,98,128,1
,,,,,,,,,,,,,,,,,5e1797da928b15062260e30e,70,2022-02-12_11h47.11.370,lexical_decision_task_DD_L6,2021.2.3,Win32,60.92731371,,,,,,,,,,,,0.8629,1,,,,,,,,,,,,,,,,,,,,,,,,-0.289814749,0.229629626,0,0,0,,,,,,,PARCEL,LB,m,y,./images/PARCELLB.png,,,,,,,,,,,,,,,,,,,,m,1,0.8629,,,,,,,,0,99,99,18,1
,,,,,,,,,,,,,,,,,5e1797da928b15062260e30e,70,2022-02-12_11h47.11.370,lexical_decision_task_DD_L6,2021.2.3,Win32,60.92731371,,,,,,,,,,,,1.312,1,,,,,,,,,,,,,,,,,,,,,,,,-0.289814749,0.229629626,0,0,0,,,,,,,PLANET,HB,m,y,./images/PLANETHB.png,,,,,,,,,,,,,,,,,,,,m,1,1.312,,,,,,,,0,100,100,80,1
,,,,,,,,,,,,,,,,,5e1797da928b15062260e30e,70,2022-02-12_11h47.11.370,lexical_decision_task_DD_L6,2021.2.3,Win32,60.92731371,,,,,,,,,,,,1.0842,1,,,,,,,,,,,,,,,,,,,,,,,,-0.289814749,0.229629626,0,0,0,,,,,,,BEARD,HB,z,y,./images/BEARDHB.png,,,,,,,,,,,,,,,,,,,,z,1,1.0842,,,,,,,,0,101,101,86,1
,,,,,,,,,,,,,,,,,5e1797da928b15062260e30e,70,2022-02-12_11h47.11.370,lexical_decision_task_DD_L6,2021.2.3,Win32,60.92731371,,,,,,,,,,,,0.9844,1,,,,,,,,,,,,,,,,,,,,,,,,-0.289814749,0.229629626,0,0,0,,,,,,,CANDY,LB,m,y,./images/CANDYLB.png,,,,,,,,,,,,,,,,,,,,m,1,0.9844,,,,,,,,0,102,102,39,1
,,,,,,,,,,,,,,,,,5e1797da928b15062260e30e,70,2022-02-12_11h47.11.370,lexical_decision_task_DD_L6,2021.2.3,Win32,60.92731371,,,,,,,,,,,,0.9845,1,,,,,,,,,,,,,,,,,,,,,,,,-0.289814749,0.229629626,0,0,0,,,,,,,KIDNEY,LB,z,y,./images/KIDNEYLB.png,,,,,,,,,,,,,,,,,,,,z,1,0.9845,,,,,,,,0,103,103,105,1
,,,,,,,,,,,,,,,,,5e1797da928b15062260e30e,70,2022-02-12_11h47.11.370,lexical_decision_task_DD_L6,2021.2.3,Win32,60.92731371,,,,,,,,,,,,1.5829,0,,,,,,,,,,,,,,,,,,,,,,,,-0.289814749,0.229629626,0,0,0,,,,,,,MUFFIN,C,z,y,./images/MUFFIN.png,,,,,,,,,,,,,,,,,,,,m,0,1.5829,,,,,,,,0,104,104,139,1
,,,,,,,,,,,,,,,,,5e1797da928b15062260e30e,70,2022-02-12_11h47.11.370,lexical_decision_task_DD_L6,2021.2.3,Win32,60.92731371,,,,,,,,,,,,1.0686,1,,,,,,,,,,,,,,,,,,,,,,,,-0.289814749,0.229629626,0,0,0,,,,,,,SWEAT,LB,z,y,./images/SWEATLB.png,,,,,,,,,,,,,,,,,,,,z,1,1.0686,,,,,,,,0,105,105,150,1
,,,,,,,,,,,,,,,,,5e1797da928b15062260e30e,70,2022-02-12_11h47.11.370,lexical_decision_task_DD_L6,2021.2.3,Win32,60.92731371,,,,,,,,,,,,0.8848,0,,,,,,,,,,,,,,,,,,,,,,,,-0.289814749,0.229629626,0,0,0,,,,,,,FLESH,LB,m,y,./images/FLESHLB.png,,,,,,,,,,,,,,,,,,,,z,0,0.8848,,,,,,,,0,106,106,24,1
,,,,,,,,,,,,,,,,,5e1797da928b15062260e30e,70,2022-02-12_11h47.11.370,lexical_decision_task_DD_L6,2021.2.3,Win32,60.92731371,,,,,,,,,,,,0.8594,1,,,,,,,,,,,,,,,,,,,,,,,,-0.289814749,0.229629626,0,0,0,,,,,,,PEACH,HB,z,y,./images/PEACHHB.png,,,,,,,,,,,,,,,,,,,,z,1,0.8594,,,,,,,,0,107,107,119,1
,,,,,,,,,,,,,,,,,5e1797da928b15062260e30e,70,2022-02-12_11h47.11.370,lexical_decision_task_DD_L6,2021.2.3,Win32,60.92731371,,,,,,,,,,,,1.0027,1,,,,,,,,,,,,,,,,,,,,,,,,-0.289814749,0.229629626,0,0,0,,,,,,,STORM,LB,z,y,./images/STORMLB.png,,,,,,,,,,,,,,,,,,,,z,1,1.0027,,,,,,,,0,108,108,114,1
,,,,,,,,,,,,,,,,,5e1797da928b15062260e30e,70,2022-02-12_11h47.11.370,lexical_decision_task_DD_L6,2021.2.3,Win32,60.92731371,,,,,,,,,,,,0.8955,1,,,,,,,,,,,,,,,,,,,,,,,,-0.289814749,0.229629626,0,0,0,,,,,,,INFANT,C,z,y,./images/INFANT.png,,,,,,,,,,,,,,,,,,,,z,1,0.8955,,,,,,,,0,109,109,160,1
,,,,,,,,,,,,,,,,,5e1797da928b15062260e30e,70,2022-02-12_11h47.11.370,lexical_decision_task_DD_L6,2021.2.3,Win32,60.92731371,,,,,,,,,,,,1.1403,1,,,,,,,,,,,,,,,,,,,,,,,,-0.289814749,0.229629626,0,0,0,,,,,,,BURIAL,HB,z,y,./images/BURIALHB.png,,,,,,,,,,,,,,,,,,,,z,1,1.1403,,,,,,,,0,110,110,143,1
,,,,,,,,,,,,,,,,,5e1797da928b15062260e30e,70,2022-02-12_11h47.11.370,lexical_decision_task_DD_L6,2021.2.3,Win32,60.92731371,,,,,,,,,,,,1.1472,0,,,,,,,,,,,,,,,,,,,,,,,,-0.289814749,0.229629626,0,0,0,,,,,,,BOXER,C,m,y,./images/BOXER.png,,,,,,,,,,,,,,,,,,,,z,0,1.1472,,,,,,,,0,111,111,4,1
,,,,,,,,,,,,,,,,,5e1797da928b15062260e30e,70,2022-02-12_11h47.11.370,lexical_decision_task_DD_L6,2021.2.3,Win32,60.92731371,,,,,,,,,,,,1.1814,0,,,,,,,,,,,,,,,,,,,,,,,,-0.289814749,0.229629626,0,0,0,,,,,,,CANDLE,C,z,y,./images/CANDLE.png,,,,,,,,,,,,,,,,,,,,m,0,1.1814,,,,,,,,0,112,112,145,1
,,,,,,,,,,,,,,,,,5e1797da928b15062260e30e,70,2022-02-12_11h47.11.370,lexical_decision_task_DD_L6,2021.2.3,Win32,60.92731371,,,,,,,,,,,,1.0907,1,,,,,,,,,,,,,,,,,,,,,,,,-0.289814749,0.229629626,0,0,0,,,,,,,CEMENT,HB,z,y,./images/CEMENTHB.png,,,,,,,,,,,,,,,,,,,,z,1,1.0907,,,,,,,,0,113,113,158,1
,,,,,,,,,,,,,,,,,5e1797da928b15062260e30e,70,2022-02-12_11h47.11.370,lexical_decision_task_DD_L6,2021.2.3,Win32,60.92731371,,,,,,,,,,,,0.8879,1,,,,,,,,,,,,,,,,,,,,,,,,-0.289814749,0.229629626,0,0,0,,,,,,,PASTA,HB,z,y,./images/PASTAHB.png,,,,,,,,,,,,,,,,,,,,z,1,0.8879,,,,,,,,0,114,114,89,1
,,,,,,,,,,,,,,,,,5e1797da928b15062260e30e,70,2022-02-12_11h47.11.370,lexical_decision_task_DD_L6,2021.2.3,Win32,60.92731371,,,,,,,,,,,,1.2662,1,,,,,,,,,,,,,,,,,,,,,,,,-0.289814749,0.229629626,0,0,0,,,,,,,STAIN,LB,m,y,./images/STAINLB.png,,,,,,,,,,,,,,,,,,,,m,1,1.2662,,,,,,,,0,115,115,6,1
,,,,,,,,,,,,,,,,,5e1797da928b15062260e30e,70,2022-02-12_11h47.11.370,lexical_decision_task_DD_L6,2021.2.3,Win32,60.92731371,,,,,,,,,,,,1.233,1,,,,,,,,,,,,,,,,,,,,,,,,-0.289814749,0.229629626,0,0,0,,,,,,,CURRY,LB,m,y,./images/CURRYLB.png,,,,,,,,,,,,,,,,,,,,m,1,1.233,,,,,,,,0,116,116,60,1
,,,,,,,,,,,,,,,,,5e1797da928b15062260e30e,70,2022-02-12_11h47.11.370,lexical_decision_task_DD_L6,2021.2.3,Win32,60.92731371,,,,,,,,,,,,1.336,0,,,,,,,,,,,,,,,,,,,,,,,,-0.289814749,0.229629626,0,0,0,,,,,,,BAKER,LB,m,y,./images/BAKERLB.png,,,,,,,,,,,,,,,,,,,,z,0,1.336,,,,,,,,0,117,117,63,1
,,,,,,,,,,,,,,,,,5e1797da928b15062260e30e,70,2022-02-12_11h47.11.370,lexical_decision_task_DD_L6,2021.2.3,Win32,60.92731371,,,,,,,,,,,,1.0888,1,,,,,,,,,,,,,,,,,,,,,,,,-0.289814749,0.229629626,0,0,0,,,,,,,BLOKE,LB,m,y,./images/BLOKELB.png,,,,,,,,,,,,,,,,,,,,m,1,1.0888,,,,,,,,0,118,118,12,1
,,,,,,,,,,,,,,,,,5e1797da928b15062260e30e,70,2022-02-12_11h47.11.370,lexical_decision_task_DD_L6,2021.2.3,Win32,60.92731371,,,,,,,,,,,,1.7216,1,,,,,,,,,,,,,,,,,,,,,,,,-0.289814749,0.229629626,0,0,0,,,,,,,GREASE,LB,z,y,./images/GREASELB.png,,,,,,,,,,,,,,,,,,,,z,1,1.7216,,,,,,,,0,119,119,99,1
,,,,,,,,,,,,,,,,,5e1797da928b15062260e30e,70,2022-02-12_11h47.11.370,lexical_decision_task_DD_L6,2021.2.3,Win32,60.92731371,,,,,,,,,,,,1.2409,1,,,,,,,,,,,,,,,,,,,,,,,,-0.289814749,0.229629626,0,0,0,,,,,,,MONKEY,LB,m,y,./images/MONKEYLB.png,,,,,,,,,,,,,,,,,,,,m,1,1.2409,,,,,,,,0,120,120,45,1
,,,,,,,,,,,,,,,,,5e1797da928b15062260e30e,70,2022-02-12_11h47.11.370,lexical_decision_task_DD_L6,2021.2.3,Win32,60.92731371,,,,,,,,,,,,0.8812,1,,,,,,,,,,,,,,,,,,,,,,,,-0.289814749,0.229629626,0,0,0,,,,,,,BAMBOO,HB,m,y,./images/BAMBOOHB.png,,,,,,,,,,,,,,,,,,,,m,1,0.8812,,,,,,,,0,121,121,5,1
,,,,,,,,,,,,,,,,,5e1797da928b15062260e30e,70,2022-02-12_11h47.11.370,lexical_decision_task_DD_L6,2021.2.3,Win32,60.92731371,,,,,,,,,,,,0.9993,0,,,,,,,,,,,,,,,,,,,,,,,,-0.289814749,0.229629626,0,0,0,,,,,,,SCREW,LB,z,y,./images/SCREWLB.png,,,,,,,,,,,,,,,,,,,,m,0,0.9993,,,,,,,,0,122,122,108,1
,,,,,,,,,,,,,,,,,5e1797da928b15062260e30e,70,2022-02-12_11h47.11.370,lexical_decision_task_DD_L6,2021.2.3,Win32,60.92731371,,,,,,,,,,,,1.0028,1,,,,,,,,,,,,,,,,,,,,,,,,-0.289814749,0.229629626,0,0,0,,,,,,,CLOWN,C,m,y,./images/CLOWN.png,,,,,,,,,,,,,,,,,,,,m,1,1.0028,,,,,,,,0,123,123,22,1
,,,,,,,,,,,,,,,,,5e1797da928b15062260e30e,70,2022-02-12_11h47.11.370,lexical_decision_task_DD_L6,2021.2.3,Win32,60.92731371,,,,,,,,,,,,1.1531,1,,,,,,,,,,,,,,,,,,,,,,,,-0.289814749,0.229629626,0,0,0,,,,,,,WHEEL,HB,m,y,./images/WHEELHB.png,,,,,,,,,,,,,,,,,,,,m,1,1.1531,,,,,,,,0,124,124,77,1
,,,,,,,,,,,,,,,,,5e1797da928b15062260e30e,70,2022-02-12_11h47.11.370,lexical_decision_task_DD_L6,2021.2.3,Win32,60.92731371,,,,,,,,,,,,1.149,1,,,,,,,,,,,,,,,,,,,,,,,,-0.289814749,0.229629626,0,0,0,space,,,,,,TOMATO,LB,z,y,./images/TOMATOLB.png,26.6879,,,,,,,,,,,,,,,,,,,z,1,1.149,,,,,,,,0,125,125,84,1
,,,,,,,,,,,,,,,,,5e1797da928b15062260e30e,70,2022-02-12_11h47.11.370,lexical_decision_task_DD_L6,2021.2.3,Win32,60.92731371,,,,,,,,,,,,1.1341,1,,,,,,,,,,,,,,,,,,,,,,,,-0.289814749,0.229629626,0,0,0,,,,,,,HAMMER,LB,m,y,./images/HAMMERLB.png,,,,,,,,,,,,,,,,,,,,m,1,1.1341,,,,,,,,0,126,126,75,1
,,,,,,,,,,,,,,,,,5e1797da928b15062260e30e,70,2022-02-12_11h47.11.370,lexical_decision_task_DD_L6,2021.2.3,Win32,60.92731371,,,,,,,,,,,,1.2052,1,,,,,,,,,,,,,,,,,,,,,,,,-0.289814749,0.229629626,0,0,0,,,,,,,MUSCLE,C,z,y,./images/MUSCLE.png,,,,,,,,,,,,,,,,,,,,z,1,1.2052,,,,,,,,0,127,127,88,1
,,,,,,,,,,,,,,,,,5e1797da928b15062260e30e,70,2022-02-12_11h47.11.370,lexical_decision_task_DD_L6,2021.2.3,Win32,60.92731371,,,,,,,,,,,,1.1175,1,,,,,,,,,,,,,,,,,,,,,,,,-0.289814749,0.229629626,0,0,0,,,,,,,TRIPOD,LB,z,y,./images/TRIPODLB.png,,,,,,,,,,,,,,,,,,,,z,1,1.1175,,,,,,,,0,128,128,138,1
,,,,,,,,,,,,,,,,,5e1797da928b15062260e30e,70,2022-02-12_11h47.11.370,lexical_decision_task_DD_L6,2021.2.3,Win32,60.92731371,,,,,,,,,,,,0.9791,0,,,,,,,,,,,,,,,,,,,,,,,,-0.289814749,0.229629626,0,0,0,,,,,,,DIVER,LB,m,y,./images/DIVERLB.png,,,,,,,,,,,,,,,,,,,,z,0,0.9791,,,,,,,,0,129,129,9,1
,,,,,,,,,,,,,,,,,5e1797da928b15062260e30e,70,2022-02-12_11h47.11.370,lexical_decision_task_DD_L6,2021.2.3,Win32,60.92731371,,,,,,,,,,,,1.2202,1,,,,,,,,,,,,,,,,,,,,,,,,-0.289814749,0.229629626,0,0,0,,,,,,,CRATER,LB,m,y,./images/CRATERLB.png,,,,,,,,,,,,,,,,,,,,m,1,1.2202,,,,,,,,0,130,130,3,1
,,,,,,,,,,,,,,,,,5e1797da928b15062260e30e,70,2022-02-12_11h47.11.370,lexical_decision_task_DD_L6,2021.2.3,Win32,60.92731371,,,,,,,,,,,,1.4945,1,,,,,,,,,,,,,,,,,,,,,,,,-0.289814749,0.229629626,0,0,0,,,,,,,CRUMB,HB,z,y,./images/CRUMBHB.png,,,,,,,,,,,,,,,,,,,,z,1,1.4945,,,,,,,,0,131,131,113,1
,,,,,,,,,,,,,,,,,5e1797da928b15062260e30e,70,2022-02-12_11h47.11.370,lexical_decision_task_DD_L6,2021.2.3,Win32,60.92731371,,,,,,,,,,,,1.2531,1,,,,,,,,,,,,,,,,,,,,,,,,-0.289814749,0.229629626,0,0,0,,,,,,,CLOUD,HB,m,y,./images/CLOUDHB.png,,,,,,,,,,,,,,,,,,,,m,1,1.2531,,,,,,,,0,132,132,26,1
