key_resp.keys,instr_done_touch.x,instr_done_touch.y,instr_done_touch.leftButton,instr_done_touch.midButton,instr_done_touch.rightButton,instr_done_touch.clicked_name,instruction_pages.thisRepN,instruction_pages.thisTrialN,instruction_pages.thisN,instruction_pages.thisIndex,instruction_pages.ran,pageN,phase,instruct_text,has_image,instruct_image,participant,age,date,expName,psychopyVersion,OS,frameRate,response.keys,response.corr,response.rt,touch_resp.x,touch_resp.y,touch_resp.leftButton,touch_resp.midButton,touch_resp.rightButton,touch_resp.time,touch_resp.clicked_name,rt,corr,practrials.thisRepN,practrials.thisTrialN,practrials.thisN,practrials.thisIndex,practrials.ran,TrialID,Target,corrAns,end_of_practice_trials_pages.thisRepN,end_of_practice_trials_pages.thisTrialN,end_of_practice_trials_pages.thisN,end_of_practice_trials_pages.thisIndex,end_of_practice_trials_pages.ran,key_resp_2.keys,key_resp_2.corr,key_resp_2.rt,targ_click.x,targ_click.y,targ_click.leftButton,targ_click.midButton,targ_click.rightButton,targ_click.time,targ_click.clicked_name,break_done_touch.x,break_done_touch.y,break_done_touch.leftButton,break_done_touch.midButton,break_done_touch.rightButton,break_done_keyboard.keys,maintrials.thisRepN,maintrials.thisTrialN,maintrials.thisN,maintrials.thisIndex,maintrials.ran,string,blur,study,lex,stim_path,break_done_touch.clicked_name,break_done_keyboard.rt,mouse_2.x,mouse_2.y,mouse_2.leftButton,mouse_2.midButton,mouse_2.rightButton,mouse_2.clicked_name,slider.response,slider.rt,trials.thisRepN,trials.thisTrialN,trials.thisN,trials.thisIndex,trials.ran,test_instructions.thisRepN,test_instructions.thisTrialN,test_instructions.thisN,test_instructions.thisIndex,test_instructions.ran,key_resp.rt,key_resp_3.keys,key_resp_3.corr,key_resp_3.rt,test_click.x,test_click.y,test_click.leftButton,test_click.midButton,test_click.rightButton,test_click.time,test_click.clicked_name,test_phase.thisRepN,test_phase.thisTrialN,test_phase.thisN,test_phase.thisIndex,test_phase.ran
,0.140314136,-0.384816754,1,0,0,instr_done_button,0,0,0,0,1,1,instructions,"INSTRUCTIONS
At the start of each trial, look at the plus sign  (+) in the center of the screen.  This tells you that a trial is about to begin and where to look. Second, the plus sign will disappear and a string of letters will appear. Your task is to determine if the string of letters is a word or not. If the item is a word press the M key (on keyboard)  or touch the word button (phone/tablet).  If the item is not a word,  press the  Z key (on keyboard)  or touch the nonword button (on phone/tablet). 
Press the space bar or touch  continue.",0,,5eed592252bcc917d6b46cdf,25,2022-02-12_17h16.48.021,lexical_decision_task_DD_L6,2021.2.3,Win32,60.0240096,,,,,,,,,,,,,,,,,,,,,,,,,,,,,,,,,,,,,,,,,,,,,,,,,,,,,,,,,,,,,,,,,,,,,,,,,,,,,,,,,,,,,,,
,0.140314136,-0.384816754,1,0,0,instr_done_button,0,1,1,1,1,2,instructions,"If your device has a keyboard, press the 'Z' key for nonwords and the 'M' key for words.





Press the space bar or touch the button below to continue.",0,keyboard-example.gif,5eed592252bcc917d6b46cdf,25,2022-02-12_17h16.48.021,lexical_decision_task_DD_L6,2021.2.3,Win32,60.0240096,,,,,,,,,,,,,,,,,,,,,,,,,,,,,,,,,,,,,,,,,,,,,,,,,,,,,,,,,,,,,,,,,,,,,,,,,,,,,,,,,,,,,,,
,0.140314136,-0.384816754,1,0,0,instr_done_button,0,2,2,2,1,3,instructions,"If you are using a touchscreen only device, use the buttons on the screen. Do not use the mouse.





Press the space bar or touch the button below to continue.",0,touchscreen-example.gif,5eed592252bcc917d6b46cdf,25,2022-02-12_17h16.48.021,lexical_decision_task_DD_L6,2021.2.3,Win32,60.0240096,,,,,,,,,,,,,,,,,,,,,,,,,,,,,,,,,,,,,,,,,,,,,,,,,,,,,,,,,,,,,,,,,,,,,,,,,,,,,,,,,,,,,,,
,0.145549738,-0.378534031,1,0,0,instr_done_button,0,3,3,3,1,4,instructions,"It is very important that you respond as quickly and accurately as possible, as each letter string will only be on the screen for two seconds. If you do not respond within this time, the message 'Too slow!' will be displayed and the experiment will progress to the next letter string. The first 20 trials will be practice trials and you will receive feedback on your answers. 

Press the space bar or touch the button below to start the practice trials.",0,,5eed592252bcc917d6b46cdf,25,2022-02-12_17h16.48.021,lexical_decision_task_DD_L6,2021.2.3,Win32,60.0240096,,,,,,,,,,,,,,,,,,,,,,,,,,,,,,,,,,,,,,,,,,,,,,,,,,,,,,,,,,,,,,,,,,,,,,,,,,,,,,,,,,,,,,,
,,,,,,,,,,,,,,,,,5eed592252bcc917d6b46cdf,25,2022-02-12_17h16.48.021,lexical_decision_task_DD_L6,2021.2.3,Win32,60.0240096,m,1,1.014,,,,,,,,1.014,1,0,0,0,4,1,1001,SQUEAK,m,,,,,,,,,,,,,,,,,,,,,,,,,,,,,,,,,,,,,,,,,,,,,,,,,,,,,,,,,,,,,,,,,,,
,,,,,,,,,,,,,,,,,5eed592252bcc917d6b46cdf,25,2022-02-12_17h16.48.021,lexical_decision_task_DD_L6,2021.2.3,Win32,60.0240096,m,0,1.084,,,,,,,,1.084,0,0,1,1,12,1,1001,SPRINY,z,,,,,,,,,,,,,,,,,,,,,,,,,,,,,,,,,,,,,,,,,,,,,,,,,,,,,,,,,,,,,,,,,,,
,,,,,,,,,,,,,,,,,5eed592252bcc917d6b46cdf,25,2022-02-12_17h16.48.021,lexical_decision_task_DD_L6,2021.2.3,Win32,60.0240096,m,1,0.801,,,,,,,,0.801,1,0,2,2,6,1,1001,ZOMBIE,m,,,,,,,,,,,,,,,,,,,,,,,,,,,,,,,,,,,,,,,,,,,,,,,,,,,,,,,,,,,,,,,,,,,
,,,,,,,,,,,,,,,,,5eed592252bcc917d6b46cdf,25,2022-02-12_17h16.48.021,lexical_decision_task_DD_L6,2021.2.3,Win32,60.0240096,z,1,1.065,,,,,,,,1.065,1,0,3,3,15,1,1001,WHAISE,z,,,,,,,,,,,,,,,,,,,,,,,,,,,,,,,,,,,,,,,,,,,,,,,,,,,,,,,,,,,,,,,,,,,
,,,,,,,,,,,,,,,,,5eed592252bcc917d6b46cdf,25,2022-02-12_17h16.48.021,lexical_decision_task_DD_L6,2021.2.3,Win32,60.0240096,m,1,0.664,,,,,,,,0.664,1,0,4,4,2,1,1001,ALMOND,m,,,,,,,,,,,,,,,,,,,,,,,,,,,,,,,,,,,,,,,,,,,,,,,,,,,,,,,,,,,,,,,,,,,
,,,,,,,,,,,,,,,,,5eed592252bcc917d6b46cdf,25,2022-02-12_17h16.48.021,lexical_decision_task_DD_L6,2021.2.3,Win32,60.0240096,m,1,0.799,,,,,,,,0.799,1,0,5,5,3,1,1001,MATRIX,m,,,,,,,,,,,,,,,,,,,,,,,,,,,,,,,,,,,,,,,,,,,,,,,,,,,,,,,,,,,,,,,,,,,
,,,,,,,,,,,,,,,,,5eed592252bcc917d6b46cdf,25,2022-02-12_17h16.48.021,lexical_decision_task_DD_L6,2021.2.3,Win32,60.0240096,m,1,0.704,,,,,,,,0.704,1,0,6,6,0,1,1001,UTOPIA,m,,,,,,,,,,,,,,,,,,,,,,,,,,,,,,,,,,,,,,,,,,,,,,,,,,,,,,,,,,,,,,,,,,,
,,,,,,,,,,,,,,,,,5eed592252bcc917d6b46cdf,25,2022-02-12_17h16.48.021,lexical_decision_task_DD_L6,2021.2.3,Win32,60.0240096,m,1,0.533,,,,,,,,0.533,1,0,7,7,7,1,1001,VOLUME,m,,,,,,,,,,,,,,,,,,,,,,,,,,,,,,,,,,,,,,,,,,,,,,,,,,,,,,,,,,,,,,,,,,,
,,,,,,,,,,,,,,,,,5eed592252bcc917d6b46cdf,25,2022-02-12_17h16.48.021,lexical_decision_task_DD_L6,2021.2.3,Win32,60.0240096,z,1,0.983,,,,,,,,0.983,1,0,8,8,9,1,1001,FARINY,z,,,,,,,,,,,,,,,,,,,,,,,,,,,,,,,,,,,,,,,,,,,,,,,,,,,,,,,,,,,,,,,,,,,
,,,,,,,,,,,,,,,,,5eed592252bcc917d6b46cdf,25,2022-02-12_17h16.48.021,lexical_decision_task_DD_L6,2021.2.3,Win32,60.0240096,m,1,0.517,,,,,,,,0.517,1,0,9,9,5,1,1001,OBTAIN,m,,,,,,,,,,,,,,,,,,,,,,,,,,,,,,,,,,,,,,,,,,,,,,,,,,,,,,,,,,,,,,,,,,,
,,,,,,,,,,,,,,,,,5eed592252bcc917d6b46cdf,25,2022-02-12_17h16.48.021,lexical_decision_task_DD_L6,2021.2.3,Win32,60.0240096,z,1,0.841,,,,,,,,0.841,1,0,10,10,10,1,1001,INLADE,z,,,,,,,,,,,,,,,,,,,,,,,,,,,,,,,,,,,,,,,,,,,,,,,,,,,,,,,,,,,,,,,,,,,
,,,,,,,,,,,,,,,,,5eed592252bcc917d6b46cdf,25,2022-02-12_17h16.48.021,lexical_decision_task_DD_L6,2021.2.3,Win32,60.0240096,z,1,0.898,,,,,,,,0.898,1,0,11,11,14,1,1001,THRALE,z,,,,,,,,,,,,,,,,,,,,,,,,,,,,,,,,,,,,,,,,,,,,,,,,,,,,,,,,,,,,,,,,,,,
,,,,,,,,,,,,,,,,,5eed592252bcc917d6b46cdf,25,2022-02-12_17h16.48.021,lexical_decision_task_DD_L6,2021.2.3,Win32,60.0240096,z,1,0.816,,,,,,,,0.816,1,0,12,12,13,1,1001,ROUPET,z,,,,,,,,,,,,,,,,,,,,,,,,,,,,,,,,,,,,,,,,,,,,,,,,,,,,,,,,,,,,,,,,,,,
,,,,,,,,,,,,,,,,,5eed592252bcc917d6b46cdf,25,2022-02-12_17h16.48.021,lexical_decision_task_DD_L6,2021.2.3,Win32,60.0240096,z,1,0.717,,,,,,,,0.717,1,0,13,13,8,1,1001,ASLERT,z,,,,,,,,,,,,,,,,,,,,,,,,,,,,,,,,,,,,,,,,,,,,,,,,,,,,,,,,,,,,,,,,,,,
,,,,,,,,,,,,,,,,,5eed592252bcc917d6b46cdf,25,2022-02-12_17h16.48.021,lexical_decision_task_DD_L6,2021.2.3,Win32,60.0240096,z,1,0.748,,,,,,,,0.748,1,0,14,14,11,1,1001,RASHET,z,,,,,,,,,,,,,,,,,,,,,,,,,,,,,,,,,,,,,,,,,,,,,,,,,,,,,,,,,,,,,,,,,,,
,,,,,,,,,,,,,,,,,5eed592252bcc917d6b46cdf,25,2022-02-12_17h16.48.021,lexical_decision_task_DD_L6,2021.2.3,Win32,60.0240096,m,1,0.686,,,,,,,,0.686,1,0,15,15,1,1,1001,ADJUST,m,,,,,,,,,,,,,,,,,,,,,,,,,,,,,,,,,,,,,,,,,,,,,,,,,,,,,,,,,,,,,,,,,,,
,0.118324607,-0.406806283,1,0,0,instr_done_button,,,,,,1,end_of_practice,"You have completed the practice trials. During the experimental trials, you will not receive feedback. 
Before you begin, please ensure that you are in a comfortable and quiet location and will not be disturbed for about 15 minutes, as we cannot use your data if you do not complete all the trials. 
 When you are ready to start the experimental trials, please press space or touch the button below.",,,5eed592252bcc917d6b46cdf,25,2022-02-12_17h16.48.021,lexical_decision_task_DD_L6,2021.2.3,Win32,60.0240096,,,,,,,,,,,,,,,,,,,,,0,0,0,0,1,,,,,,,,,,,,,,,,,,,,,,,,,,,,,,,,,,,,,,,,,,,,,,,,,,,,,,,,,,,,,,
,,,,,,,,,,,,,,,,,5eed592252bcc917d6b46cdf,25,2022-02-12_17h16.48.021,lexical_decision_task_DD_L6,2021.2.3,Win32,60.0240096,,,,,,,,,,,1.277,0,,,,,,,,,,,,,,m,0,1.277,,,,,,,,0.118324607,-0.406806283,0,0,0,,0,0,0,136,1,WERVE,HB,z,z,./images/WERVEHB.png,,,,,,,,,,,,,,,,,,,,,,,,,,,,,,,,,,,,
,,,,,,,,,,,,,,,,,5eed592252bcc917d6b46cdf,25,2022-02-12_17h16.48.021,lexical_decision_task_DD_L6,2021.2.3,Win32,60.0240096,,,,,,,,,,,1.089,1,,,,,,,,,,,,,,z,1,1.089,,,,,,,,0.118324607,-0.406806283,0,0,0,,0,1,1,166,1,SHORY,HB,z,z,./images/SHORYHB.png,,,,,,,,,,,,,,,,,,,,,,,,,,,,,,,,,,,,
,,,,,,,,,,,,,,,,,5eed592252bcc917d6b46cdf,25,2022-02-12_17h16.48.021,lexical_decision_task_DD_L6,2021.2.3,Win32,60.0240096,,,,,,,,,,,0.924,1,,,,,,,,,,,,,,z,1,0.924,,,,,,,,0.118324607,-0.406806283,0,0,0,,0,2,2,131,1,NACES,LB,z,z,./images/NACESLB.png,,,,,,,,,,,,,,,,,,,,,,,,,,,,,,,,,,,,
,,,,,,,,,,,,,,,,,5eed592252bcc917d6b46cdf,25,2022-02-12_17h16.48.021,lexical_decision_task_DD_L6,2021.2.3,Win32,60.0240096,,,,,,,,,,,1.059,1,,,,,,,,,,,,,,z,1,1.059,,,,,,,,0.118324607,-0.406806283,0,0,0,,0,3,3,148,1,JOMS,HB,z,z,./images/JOMSHB.png,,,,,,,,,,,,,,,,,,,,,,,,,,,,,,,,,,,,
,,,,,,,,,,,,,,,,,5eed592252bcc917d6b46cdf,25,2022-02-12_17h16.48.021,lexical_decision_task_DD_L6,2021.2.3,Win32,60.0240096,,,,,,,,,,,1.012,1,,,,,,,,,,,,,,m,1,1.012,,,,,,,,0.118324607,-0.406806283,0,0,0,,0,4,4,40,1,SNAKE,C,m,m,./images/SNAKE.png,,,,,,,,,,,,,,,,,,,,,,,,,,,,,,,,,,,,
,,,,,,,,,,,,,,,,,5eed592252bcc917d6b46cdf,25,2022-02-12_17h16.48.021,lexical_decision_task_DD_L6,2021.2.3,Win32,60.0240096,,,,,,,,,,,0.856,1,,,,,,,,,,,,,,m,1,0.856,,,,,,,,0.118324607,-0.406806283,0,0,0,,0,5,5,32,1,HOCKEY,HB,m,m,./images/HOCKEYHB.png,,,,,,,,,,,,,,,,,,,,,,,,,,,,,,,,,,,,
,,,,,,,,,,,,,,,,,5eed592252bcc917d6b46cdf,25,2022-02-12_17h16.48.021,lexical_decision_task_DD_L6,2021.2.3,Win32,60.0240096,,,,,,,,,,,1.252,0,,,,,,,,,,,,,,m,0,1.252,,,,,,,,0.118324607,-0.406806283,0,0,0,,0,6,6,110,1,CRUNK,LB,z,z,./images/CRUNKLB.png,,,,,,,,,,,,,,,,,,,,,,,,,,,,,,,,,,,,
,,,,,,,,,,,,,,,,,5eed592252bcc917d6b46cdf,25,2022-02-12_17h16.48.021,lexical_decision_task_DD_L6,2021.2.3,Win32,60.0240096,,,,,,,,,,,0.927,1,,,,,,,,,,,,,,z,1,0.927,,,,,,,,0.118324607,-0.406806283,0,0,0,,0,7,7,134,1,TROSS,LB,z,z,./images/TROSSLB.png,,,,,,,,,,,,,,,,,,,,,,,,,,,,,,,,,,,,
,,,,,,,,,,,,,,,,,5eed592252bcc917d6b46cdf,25,2022-02-12_17h16.48.021,lexical_decision_task_DD_L6,2021.2.3,Win32,60.0240096,,,,,,,,,,,1.741,0,,,,,,,,,,,,,,m,0,1.741,,,,,,,,0.118324607,-0.406806283,0,0,0,,0,8,8,115,1,MAWNS,HB,z,z,./images/MAWNSHB.png,,,,,,,,,,,,,,,,,,,,,,,,,,,,,,,,,,,,
,,,,,,,,,,,,,,,,,5eed592252bcc917d6b46cdf,25,2022-02-12_17h16.48.021,lexical_decision_task_DD_L6,2021.2.3,Win32,60.0240096,,,,,,,,,,,0.581,1,,,,,,,,,,,,,,m,1,0.581,,,,,,,,0.118324607,-0.406806283,0,0,0,,0,9,9,60,1,CURRY,LB,m,m,./images/CURRYLB.png,,,,,,,,,,,,,,,,,,,,,,,,,,,,,,,,,,,,
,,,,,,,,,,,,,,,,,5eed592252bcc917d6b46cdf,25,2022-02-12_17h16.48.021,lexical_decision_task_DD_L6,2021.2.3,Win32,60.0240096,,,,,,,,,,,0.557,1,,,,,,,,,,,,,,m,1,0.557,,,,,,,,0.118324607,-0.406806283,0,0,0,,0,10,10,57,1,FERRY,LB,m,m,./images/FERRYLB.png,,,,,,,,,,,,,,,,,,,,,,,,,,,,,,,,,,,,
,,,,,,,,,,,,,,,,,5eed592252bcc917d6b46cdf,25,2022-02-12_17h16.48.021,lexical_decision_task_DD_L6,2021.2.3,Win32,60.0240096,,,,,,,,,,,0.559,1,,,,,,,,,,,,,,m,1,0.559,,,,,,,,0.118324607,-0.406806283,0,0,0,,0,11,11,18,1,PARCEL,LB,m,m,./images/PARCELLB.png,,,,,,,,,,,,,,,,,,,,,,,,,,,,,,,,,,,,
,,,,,,,,,,,,,,,,,5eed592252bcc917d6b46cdf,25,2022-02-12_17h16.48.021,lexical_decision_task_DD_L6,2021.2.3,Win32,60.0240096,,,,,,,,,,,0.523,1,,,,,,,,,,,,,,m,1,0.523,,,,,,,,0.118324607,-0.406806283,0,0,0,,0,12,12,3,1,CRATER,LB,m,m,./images/CRATERLB.png,,,,,,,,,,,,,,,,,,,,,,,,,,,,,,,,,,,,
,,,,,,,,,,,,,,,,,5eed592252bcc917d6b46cdf,25,2022-02-12_17h16.48.021,lexical_decision_task_DD_L6,2021.2.3,Win32,60.0240096,,,,,,,,,,,0.599,1,,,,,,,,,,,,,,m,1,0.599,,,,,,,,0.118324607,-0.406806283,0,0,0,,0,13,13,14,1,FENCE,HB,m,m,./images/FENCEHB.png,,,,,,,,,,,,,,,,,,,,,,,,,,,,,,,,,,,,
,,,,,,,,,,,,,,,,,5eed592252bcc917d6b46cdf,25,2022-02-12_17h16.48.021,lexical_decision_task_DD_L6,2021.2.3,Win32,60.0240096,,,,,,,,,,,0.544,1,,,,,,,,,,,,,,m,1,0.544,,,,,,,,0.118324607,-0.406806283,0,0,0,,0,14,14,76,1,MIDGET,C,m,m,./images/MIDGET.png,,,,,,,,,,,,,,,,,,,,,,,,,,,,,,,,,,,,
,,,,,,,,,,,,,,,,,5eed592252bcc917d6b46cdf,25,2022-02-12_17h16.48.021,lexical_decision_task_DD_L6,2021.2.3,Win32,60.0240096,,,,,,,,,,,0.641,1,,,,,,,,,,,,,,z,1,0.641,,,,,,,,0.118324607,-0.406806283,0,0,0,,0,15,15,129,1,PRANS,C,z,z,./images/PRANS.png,,,,,,,,,,,,,,,,,,,,,,,,,,,,,,,,,,,,
,,,,,,,,,,,,,,,,,5eed592252bcc917d6b46cdf,25,2022-02-12_17h16.48.021,lexical_decision_task_DD_L6,2021.2.3,Win32,60.0240096,,,,,,,,,,,0.517,1,,,,,,,,,,,,,,m,1,0.517,,,,,,,,0.118324607,-0.406806283,0,0,0,,0,16,16,79,1,RULER,C,m,m,./images/RULER.png,,,,,,,,,,,,,,,,,,,,,,,,,,,,,,,,,,,,
,,,,,,,,,,,,,,,,,5eed592252bcc917d6b46cdf,25,2022-02-12_17h16.48.021,lexical_decision_task_DD_L6,2021.2.3,Win32,60.0240096,,,,,,,,,,,0.544,1,,,,,,,,,,,,,,m,1,0.544,,,,,,,,0.118324607,-0.406806283,0,0,0,,0,17,17,69,1,ARROW,LB,m,m,./images/ARROWLB.png,,,,,,,,,,,,,,,,,,,,,,,,,,,,,,,,,,,,
,,,,,,,,,,,,,,,,,5eed592252bcc917d6b46cdf,25,2022-02-12_17h16.48.021,lexical_decision_task_DD_L6,2021.2.3,Win32,60.0240096,,,,,,,,,,,0.515,1,,,,,,,,,,,,,,m,1,0.515,,,,,,,,0.118324607,-0.406806283,0,0,0,,0,18,18,16,1,GRAPE,C,m,m,./images/GRAPE.png,,,,,,,,,,,,,,,,,,,,,,,,,,,,,,,,,,,,
,,,,,,,,,,,,,,,,,5eed592252bcc917d6b46cdf,25,2022-02-12_17h16.48.021,lexical_decision_task_DD_L6,2021.2.3,Win32,60.0240096,,,,,,,,,,,0.564,0,,,,,,,,,,,,,,m,0,0.564,,,,,,,,0.118324607,-0.406806283,0,0,0,,0,19,19,98,1,BAMPS,LB,z,z,./images/BAMPSLB.png,,,,,,,,,,,,,,,,,,,,,,,,,,,,,,,,,,,,
,,,,,,,,,,,,,,,,,5eed592252bcc917d6b46cdf,25,2022-02-12_17h16.48.021,lexical_decision_task_DD_L6,2021.2.3,Win32,60.0240096,,,,,,,,,,,0.591,1,,,,,,,,,,,,,,z,1,0.591,,,,,,,,0.118324607,-0.406806283,0,0,0,,0,20,20,117,1,STEEG,C,z,z,./images/STEEG.png,,,,,,,,,,,,,,,,,,,,,,,,,,,,,,,,,,,,
,,,,,,,,,,,,,,,,,5eed592252bcc917d6b46cdf,25,2022-02-12_17h16.48.021,lexical_decision_task_DD_L6,2021.2.3,Win32,60.0240096,,,,,,,,,,,0.668,0,,,,,,,,,,,,,,m,0,0.668,,,,,,,,0.118324607,-0.406806283,0,0,0,,0,21,21,162,1,LEICH,C,z,z,./images/LEICH.png,,,,,,,,,,,,,,,,,,,,,,,,,,,,,,,,,,,,
,,,,,,,,,,,,,,,,,5eed592252bcc917d6b46cdf,25,2022-02-12_17h16.48.021,lexical_decision_task_DD_L6,2021.2.3,Win32,60.0240096,,,,,,,,,,,0.831,1,,,,,,,,,,,,,,m,1,0.831,,,,,,,,0.118324607,-0.406806283,0,0,0,,0,22,22,52,1,DESERT,C,m,m,./images/DESERT.png,,,,,,,,,,,,,,,,,,,,,,,,,,,,,,,,,,,,
,,,,,,,,,,,,,,,,,5eed592252bcc917d6b46cdf,25,2022-02-12_17h16.48.021,lexical_decision_task_DD_L6,2021.2.3,Win32,60.0240096,,,,,,,,,,,1.043,1,,,,,,,,,,,,,,m,1,1.043,,,,,,,,0.118324607,-0.406806283,0,0,0,,0,23,23,72,1,FLASK,LB,m,m,./images/FLASKLB.png,,,,,,,,,,,,,,,,,,,,,,,,,,,,,,,,,,,,
,,,,,,,,,,,,,,,,,5eed592252bcc917d6b46cdf,25,2022-02-12_17h16.48.021,lexical_decision_task_DD_L6,2021.2.3,Win32,60.0240096,,,,,,,,,,,0.661,1,,,,,,,,,,,,,,m,1,0.661,,,,,,,,0.118324607,-0.406806283,0,0,0,,0,24,24,27,1,BUTTER,LB,m,m,./images/BUTTERLB.png,,,,,,,,,,,,,,,,,,,,,,,,,,,,,,,,,,,,
,,,,,,,,,,,,,,,,,5eed592252bcc917d6b46cdf,25,2022-02-12_17h16.48.021,lexical_decision_task_DD_L6,2021.2.3,Win32,60.0240096,,,,,,,,,,,0.817,1,,,,,,,,,,,,,,z,1,0.817,,,,,,,,0.118324607,-0.406806283,0,0,0,,0,25,25,157,1,INLER,HB,z,z,./images/INLERHB.png,,,,,,,,,,,,,,,,,,,,,,,,,,,,,,,,,,,,
,,,,,,,,,,,,,,,,,5eed592252bcc917d6b46cdf,25,2022-02-12_17h16.48.021,lexical_decision_task_DD_L6,2021.2.3,Win32,60.0240096,,,,,,,,,,,1.245,1,,,,,,,,,,,,,,m,1,1.245,,,,,,,,0.118324607,-0.406806283,0,0,0,,0,26,26,17,1,PARADE,HB,m,m,./images/PARADEHB.png,,,,,,,,,,,,,,,,,,,,,,,,,,,,,,,,,,,,
,,,,,,,,,,,,,,,,,5eed592252bcc917d6b46cdf,25,2022-02-12_17h16.48.021,lexical_decision_task_DD_L6,2021.2.3,Win32,60.0240096,,,,,,,,,,,0.797,1,,,,,,,,,,,,,,m,1,0.797,,,,,,,,0.118324607,-0.406806283,0,0,0,,0,27,27,43,1,STOOL,C,m,m,./images/STOOL.png,,,,,,,,,,,,,,,,,,,,,,,,,,,,,,,,,,,,
,,,,,,,,,,,,,,,,,5eed592252bcc917d6b46cdf,25,2022-02-12_17h16.48.021,lexical_decision_task_DD_L6,2021.2.3,Win32,60.0240096,,,,,,,,,,,1.064,1,,,,,,,,,,,,,,z,1,1.064,,,,,,,,0.118324607,-0.406806283,0,0,0,,0,28,28,142,1,PLASK,HB,z,z,./images/PLASKHB.png,,,,,,,,,,,,,,,,,,,,,,,,,,,,,,,,,,,,
,,,,,,,,,,,,,,,,,5eed592252bcc917d6b46cdf,25,2022-02-12_17h16.48.021,lexical_decision_task_DD_L6,2021.2.3,Win32,60.0240096,,,,,,,,,,,0.808,1,,,,,,,,,,,,,,m,1,0.808,,,,,,,,0.118324607,-0.406806283,0,0,0,,0,29,29,29,1,PISTOL,HB,m,m,./images/PISTOLHB.png,,,,,,,,,,,,,,,,,,,,,,,,,,,,,,,,,,,,
,,,,,,,,,,,,,,,,,5eed592252bcc917d6b46cdf,25,2022-02-12_17h16.48.021,lexical_decision_task_DD_L6,2021.2.3,Win32,60.0240096,,,,,,,,,,,0.692,1,,,,,,,,,,,,,,m,1,0.692,,,,,,,,0.118324607,-0.406806283,0,0,0,,0,30,30,82,1,PEBBLE,C,m,m,./images/PEBBLE.png,,,,,,,,,,,,,,,,,,,,,,,,,,,,,,,,,,,,
,,,,,,,,,,,,,,,,,5eed592252bcc917d6b46cdf,25,2022-02-12_17h16.48.021,lexical_decision_task_DD_L6,2021.2.3,Win32,60.0240096,,,,,,,,,,,0.807,1,,,,,,,,,,,,,,z,1,0.807,,,,,,,,0.118324607,-0.406806283,0,0,0,,0,31,31,133,1,POWDY,HB,z,z,./images/POWDYHB.png,,,,,,,,,,,,,,,,,,,,,,,,,,,,,,,,,,,,
,,,,,,,,,,,,,,,,,5eed592252bcc917d6b46cdf,25,2022-02-12_17h16.48.021,lexical_decision_task_DD_L6,2021.2.3,Win32,60.0240096,,,,,,,,,,,0.661,1,,,,,,,,,,,,,,m,1,0.661,,,,,,,,0.118324607,-0.406806283,0,0,0,,0,32,32,11,1,MEDAL,HB,m,m,./images/MEDALHB.png,,,,,,,,,,,,,,,,,,,,,,,,,,,,,,,,,,,,
,,,,,,,,,,,,,,,,,5eed592252bcc917d6b46cdf,25,2022-02-12_17h16.48.021,lexical_decision_task_DD_L6,2021.2.3,Win32,60.0240096,,,,,,,,,,,0.75,1,,,,,,,,,,,,,,z,1,0.75,,,,,,,,0.118324607,-0.406806283,0,0,0,,0,33,33,167,1,ZONET,LB,z,z,./images/ZONETLB.png,,,,,,,,,,,,,,,,,,,,,,,,,,,,,,,,,,,,
,,,,,,,,,,,,,,,,,5eed592252bcc917d6b46cdf,25,2022-02-12_17h16.48.021,lexical_decision_task_DD_L6,2021.2.3,Win32,60.0240096,,,,,,,,,,,1.007,1,,,,,,,,,,,,,,z,1,1.007,,,,,,,,0.118324607,-0.406806283,0,0,0,,0,34,34,91,1,SHENS,HB,z,z,./images/SHENSHB.png,,,,,,,,,,,,,,,,,,,,,,,,,,,,,,,,,,,,
,,,,,,,,,,,,,,,,,5eed592252bcc917d6b46cdf,25,2022-02-12_17h16.48.021,lexical_decision_task_DD_L6,2021.2.3,Win32,60.0240096,,,,,,,,,,,0.711,1,,,,,,,,,,,,,,z,1,0.711,,,,,,,,0.118324607,-0.406806283,0,0,0,,0,35,35,114,1,RIKES,C,z,z,./images/RIKES.png,,,,,,,,,,,,,,,,,,,,,,,,,,,,,,,,,,,,
,,,,,,,,,,,,,,,,,5eed592252bcc917d6b46cdf,25,2022-02-12_17h16.48.021,lexical_decision_task_DD_L6,2021.2.3,Win32,60.0240096,,,,,,,,,,,0.709,1,,,,,,,,,,,,,,z,1,0.709,,,,,,,,0.118324607,-0.406806283,0,0,0,,0,36,36,137,1,JOOST,LB,z,z,./images/JOOSTLB.png,,,,,,,,,,,,,,,,,,,,,,,,,,,,,,,,,,,,
,,,,,,,,,,,,,,,,,5eed592252bcc917d6b46cdf,25,2022-02-12_17h16.48.021,lexical_decision_task_DD_L6,2021.2.3,Win32,60.0240096,,,,,,,,,,,0.839,1,,,,,,,,,,,,,,z,1,0.839,,,,,,,,0.118324607,-0.406806283,0,0,0,,0,37,37,106,1,CLUMS,HB,z,z,./images/CLUMSHB.png,,,,,,,,,,,,,,,,,,,,,,,,,,,,,,,,,,,,
,,,,,,,,,,,,,,,,,5eed592252bcc917d6b46cdf,25,2022-02-12_17h16.48.021,lexical_decision_task_DD_L6,2021.2.3,Win32,60.0240096,,,,,,,,,,,0.964,1,,,,,,,,,,,,,,m,1,0.964,,,,,,,,0.118324607,-0.406806283,0,0,0,,0,38,38,9,1,DIVER,LB,m,m,./images/DIVERLB.png,,,,,,,,,,,,,,,,,,,,,,,,,,,,,,,,,,,,
,,,,,,,,,,,,,,,,,5eed592252bcc917d6b46cdf,25,2022-02-12_17h16.48.021,lexical_decision_task_DD_L6,2021.2.3,Win32,60.0240096,,,,,,,,,,,0.628,1,,,,,,,,,,,,,,m,1,0.628,,,,,,,,0.118324607,-0.406806283,0,0,0,,0,39,39,33,1,SAUNA,LB,m,m,./images/SAUNALB.png,,,,,,,,,,,,,,,,,,,,,,,,,,,,,,,,,,,,
,,,,,,,,,,,,,,,,,5eed592252bcc917d6b46cdf,25,2022-02-12_17h16.48.021,lexical_decision_task_DD_L6,2021.2.3,Win32,60.0240096,,,,,,,,,,,0.692,1,,,,,,,,,,,,,,z,1,0.692,,,,,,,,0.118324607,-0.406806283,0,0,0,,0,40,40,155,1,CANGY,LB,z,z,./images/CANGYLB.png,,,,,,,,,,,,,,,,,,,,,,,,,,,,,,,,,,,,
,,,,,,,,,,,,,,,,,5eed592252bcc917d6b46cdf,25,2022-02-12_17h16.48.021,lexical_decision_task_DD_L6,2021.2.3,Win32,60.0240096,,,,,,,,,,,0.691,1,,,,,,,,,,,,,,z,1,0.691,,,,,,,,0.118324607,-0.406806283,1,0,0,,0,41,41,153,1,CLUPS,C,z,z,./images/CLUPS.png,break_done_button,,,,,,,,,,,,,,,,,,,,,,,,,,,,,,,,,,,
,,,,,,,,,,,,,,,,,5eed592252bcc917d6b46cdf,25,2022-02-12_17h16.48.021,lexical_decision_task_DD_L6,2021.2.3,Win32,60.0240096,,,,,,,,,,,0.907,1,,,,,,,,,,,,,,m,1,0.907,,,,,,,,0.126701571,-0.401570681,0,0,0,,0,42,42,31,1,STEAK,C,m,m,./images/STEAK.png,,,,,,,,,,,,,,,,,,,,,,,,,,,,,,,,,,,,
,,,,,,,,,,,,,,,,,5eed592252bcc917d6b46cdf,25,2022-02-12_17h16.48.021,lexical_decision_task_DD_L6,2021.2.3,Win32,60.0240096,,,,,,,,,,,0.572,1,,,,,,,,,,,,,,m,1,0.572,,,,,,,,0.126701571,-0.401570681,0,0,0,,0,43,43,70,1,BANANA,C,m,m,./images/BANANA.png,,,,,,,,,,,,,,,,,,,,,,,,,,,,,,,,,,,,
,,,,,,,,,,,,,,,,,5eed592252bcc917d6b46cdf,25,2022-02-12_17h16.48.021,lexical_decision_task_DD_L6,2021.2.3,Win32,60.0240096,,,,,,,,,,,0.643,1,,,,,,,,,,,,,,z,1,0.643,,,,,,,,0.126701571,-0.401570681,0,0,0,,0,44,44,147,1,ZOLES,C,z,z,./images/ZOLES.png,,,,,,,,,,,,,,,,,,,,,,,,,,,,,,,,,,,,
,,,,,,,,,,,,,,,,,5eed592252bcc917d6b46cdf,25,2022-02-12_17h16.48.021,lexical_decision_task_DD_L6,2021.2.3,Win32,60.0240096,,,,,,,,,,,0.821,1,,,,,,,,,,,,,,m,1,0.821,,,,,,,,0.126701571,-0.401570681,0,0,0,,0,45,45,53,1,POSTER,HB,m,m,./images/POSTERHB.png,,,,,,,,,,,,,,,,,,,,,,,,,,,,,,,,,,,,
,,,,,,,,,,,,,,,,,5eed592252bcc917d6b46cdf,25,2022-02-12_17h16.48.021,lexical_decision_task_DD_L6,2021.2.3,Win32,60.0240096,,,,,,,,,,,0.922,1,,,,,,,,,,,,,,m,1,0.922,,,,,,,,0.126701571,-0.401570681,0,0,0,,0,46,46,47,1,LAGOON,HB,m,m,./images/LAGOONHB.png,,,,,,,,,,,,,,,,,,,,,,,,,,,,,,,,,,,,
,,,,,,,,,,,,,,,,,5eed592252bcc917d6b46cdf,25,2022-02-12_17h16.48.021,lexical_decision_task_DD_L6,2021.2.3,Win32,60.0240096,,,,,,,,,,,0.604,1,,,,,,,,,,,,,,m,1,0.604,,,,,,,,0.126701571,-0.401570681,0,0,0,,0,47,47,59,1,BRUSH,HB,m,m,./images/BRUSHHB.png,,,,,,,,,,,,,,,,,,,,,,,,,,,,,,,,,,,,
,,,,,,,,,,,,,,,,,5eed592252bcc917d6b46cdf,25,2022-02-12_17h16.48.021,lexical_decision_task_DD_L6,2021.2.3,Win32,60.0240096,,,,,,,,,,,0.83,1,,,,,,,,,,,,,,m,1,0.83,,,,,,,,0.126701571,-0.401570681,0,0,0,,0,48,48,34,1,RAZOR,C,m,m,./images/RAZOR.png,,,,,,,,,,,,,,,,,,,,,,,,,,,,,,,,,,,,
,,,,,,,,,,,,,,,,,5eed592252bcc917d6b46cdf,25,2022-02-12_17h16.48.021,lexical_decision_task_DD_L6,2021.2.3,Win32,60.0240096,,,,,,,,,,,1.222,1,,,,,,,,,,,,,,z,1,1.222,,,,,,,,0.126701571,-0.401570681,0,0,0,,0,49,49,145,1,LAMEL,HB,z,z,./images/LAMELHB.png,,,,,,,,,,,,,,,,,,,,,,,,,,,,,,,,,,,,
,,,,,,,,,,,,,,,,,5eed592252bcc917d6b46cdf,25,2022-02-12_17h16.48.021,lexical_decision_task_DD_L6,2021.2.3,Win32,60.0240096,,,,,,,,,,,0.529,1,,,,,,,,,,,,,,m,1,0.529,,,,,,,,0.126701571,-0.401570681,0,0,0,,0,50,50,2,1,STOVE,HB,m,m,./images/STOVEHB.png,,,,,,,,,,,,,,,,,,,,,,,,,,,,,,,,,,,,
,,,,,,,,,,,,,,,,,5eed592252bcc917d6b46cdf,25,2022-02-12_17h16.48.021,lexical_decision_task_DD_L6,2021.2.3,Win32,60.0240096,,,,,,,,,,,0.644,1,,,,,,,,,,,,,,z,1,0.644,,,,,,,,0.126701571,-0.401570681,0,0,0,,0,51,51,84,1,HAXES,C,z,z,./images/HAXES.png,,,,,,,,,,,,,,,,,,,,,,,,,,,,,,,,,,,,
,,,,,,,,,,,,,,,,,5eed592252bcc917d6b46cdf,25,2022-02-12_17h16.48.021,lexical_decision_task_DD_L6,2021.2.3,Win32,60.0240096,,,,,,,,,,,0.658,1,,,,,,,,,,,,,,m,1,0.658,,,,,,,,0.126701571,-0.401570681,0,0,0,,0,52,52,45,1,MONKEY,LB,m,m,./images/MONKEYLB.png,,,,,,,,,,,,,,,,,,,,,,,,,,,,,,,,,,,,
,,,,,,,,,,,,,,,,,5eed592252bcc917d6b46cdf,25,2022-02-12_17h16.48.021,lexical_decision_task_DD_L6,2021.2.3,Win32,60.0240096,,,,,,,,,,,0.631,1,,,,,,,,,,,,,,z,1,0.631,,,,,,,,0.126701571,-0.401570681,0,0,0,,0,53,53,164,1,SGREW,LB,z,z,./images/SGREWLB.png,,,,,,,,,,,,,,,,,,,,,,,,,,,,,,,,,,,,
,,,,,,,,,,,,,,,,,5eed592252bcc917d6b46cdf,25,2022-02-12_17h16.48.021,lexical_decision_task_DD_L6,2021.2.3,Win32,60.0240096,,,,,,,,,,,0.562,1,,,,,,,,,,,,,,m,1,0.562,,,,,,,,0.126701571,-0.401570681,0,0,0,,0,54,54,1,1,TOWEL,C,m,m,./images/TOWEL.png,,,,,,,,,,,,,,,,,,,,,,,,,,,,,,,,,,,,
,,,,,,,,,,,,,,,,,5eed592252bcc917d6b46cdf,25,2022-02-12_17h16.48.021,lexical_decision_task_DD_L6,2021.2.3,Win32,60.0240096,,,,,,,,,,,0.715,1,,,,,,,,,,,,,,z,1,0.715,,,,,,,,0.126701571,-0.401570681,0,0,0,,0,55,55,121,1,CEERS,HB,z,z,./images/CEERSHB.png,,,,,,,,,,,,,,,,,,,,,,,,,,,,,,,,,,,,
,,,,,,,,,,,,,,,,,5eed592252bcc917d6b46cdf,25,2022-02-12_17h16.48.021,lexical_decision_task_DD_L6,2021.2.3,Win32,60.0240096,,,,,,,,,,,1.139,1,,,,,,,,,,,,,,z,1,1.139,,,,,,,,0.126701571,-0.401570681,0,0,0,,0,56,56,127,1,NINDY,HB,z,z,./images/NINDYHB.png,,,,,,,,,,,,,,,,,,,,,,,,,,,,,,,,,,,,
,,,,,,,,,,,,,,,,,5eed592252bcc917d6b46cdf,25,2022-02-12_17h16.48.021,lexical_decision_task_DD_L6,2021.2.3,Win32,60.0240096,,,,,,,,,,,0.691,1,,,,,,,,,,,,,,m,1,0.691,,,,,,,,0.126701571,-0.401570681,0,0,0,,0,57,57,6,1,STAIN,LB,m,m,./images/STAINLB.png,,,,,,,,,,,,,,,,,,,,,,,,,,,,,,,,,,,,
,,,,,,,,,,,,,,,,,5eed592252bcc917d6b46cdf,25,2022-02-12_17h16.48.021,lexical_decision_task_DD_L6,2021.2.3,Win32,60.0240096,,,,,,,,,,,1.295,0,,,,,,,,,,,,,,z,0,1.295,,,,,,,,0.126701571,-0.401570681,0,0,0,,0,58,58,20,1,GRANNY,HB,m,m,./images/GRANNYHB.png,,,,,,,,,,,,,,,,,,,,,,,,,,,,,,,,,,,,
,,,,,,,,,,,,,,,,,5eed592252bcc917d6b46cdf,25,2022-02-12_17h16.48.021,lexical_decision_task_DD_L6,2021.2.3,Win32,60.0240096,,,,,,,,,,,0.756,1,,,,,,,,,,,,,,m,1,0.756,,,,,,,,0.126701571,-0.401570681,0,0,0,,0,59,59,12,1,BLOKE,LB,m,m,./images/BLOKELB.png,,,,,,,,,,,,,,,,,,,,,,,,,,,,,,,,,,,,
,,,,,,,,,,,,,,,,,5eed592252bcc917d6b46cdf,25,2022-02-12_17h16.48.021,lexical_decision_task_DD_L6,2021.2.3,Win32,60.0240096,,,,,,,,,,,0.706,1,,,,,,,,,,,,,,z,1,0.706,,,,,,,,0.126701571,-0.401570681,0,0,0,,0,60,60,101,1,GLEET,LB,z,z,./images/GLEETLB.png,,,,,,,,,,,,,,,,,,,,,,,,,,,,,,,,,,,,
,,,,,,,,,,,,,,,,,5eed592252bcc917d6b46cdf,25,2022-02-12_17h16.48.021,lexical_decision_task_DD_L6,2021.2.3,Win32,60.0240096,,,,,,,,,,,0.674,1,,,,,,,,,,,,,,z,1,0.674,,,,,,,,0.126701571,-0.401570681,0,0,0,,0,61,61,89,1,DRIEK,LB,z,z,./images/DRIEKLB.png,,,,,,,,,,,,,,,,,,,,,,,,,,,,,,,,,,,,
,,,,,,,,,,,,,,,,,5eed592252bcc917d6b46cdf,25,2022-02-12_17h16.48.021,lexical_decision_task_DD_L6,2021.2.3,Win32,60.0240096,,,,,,,,,,,0.755,1,,,,,,,,,,,,,,z,1,0.755,,,,,,,,0.126701571,-0.401570681,0,0,0,,0,62,62,146,1,MOOST,LB,z,z,./images/MOOSTLB.png,,,,,,,,,,,,,,,,,,,,,,,,,,,,,,,,,,,,
,,,,,,,,,,,,,,,,,5eed592252bcc917d6b46cdf,25,2022-02-12_17h16.48.021,lexical_decision_task_DD_L6,2021.2.3,Win32,60.0240096,,,,,,,,,,,0.756,1,,,,,,,,,,,,,,z,1,0.756,,,,,,,,0.126701571,-0.401570681,0,0,0,,0,63,63,141,1,PLEET,C,z,z,./images/PLEET.png,,,,,,,,,,,,,,,,,,,,,,,,,,,,,,,,,,,,
,,,,,,,,,,,,,,,,,5eed592252bcc917d6b46cdf,25,2022-02-12_17h16.48.021,lexical_decision_task_DD_L6,2021.2.3,Win32,60.0240096,,,,,,,,,,,0.758,1,,,,,,,,,,,,,,z,1,0.758,,,,,,,,0.126701571,-0.401570681,0,0,0,,0,64,64,130,1,CRILL,HB,z,z,./images/CRILLHB.png,,,,,,,,,,,,,,,,,,,,,,,,,,,,,,,,,,,,
,,,,,,,,,,,,,,,,,5eed592252bcc917d6b46cdf,25,2022-02-12_17h16.48.021,lexical_decision_task_DD_L6,2021.2.3,Win32,60.0240096,,,,,,,,,,,0.705,1,,,,,,,,,,,,,,z,1,0.705,,,,,,,,0.126701571,-0.401570681,0,0,0,,0,65,65,92,1,PAIMS,LB,z,z,./images/PAIMSLB.png,,,,,,,,,,,,,,,,,,,,,,,,,,,,,,,,,,,,
,,,,,,,,,,,,,,,,,5eed592252bcc917d6b46cdf,25,2022-02-12_17h16.48.021,lexical_decision_task_DD_L6,2021.2.3,Win32,60.0240096,,,,,,,,,,,0.59,1,,,,,,,,,,,,,,m,1,0.59,,,,,,,,0.126701571,-0.401570681,0,0,0,,0,66,66,46,1,MUMMY,C,m,m,./images/MUMMY.png,,,,,,,,,,,,,,,,,,,,,,,,,,,,,,,,,,,,
,,,,,,,,,,,,,,,,,5eed592252bcc917d6b46cdf,25,2022-02-12_17h16.48.021,lexical_decision_task_DD_L6,2021.2.3,Win32,60.0240096,,,,,,,,,,,0.757,1,,,,,,,,,,,,,,m,1,0.757,,,,,,,,0.126701571,-0.401570681,0,0,0,,0,67,67,8,1,CLIFF,HB,m,m,./images/CLIFFHB.png,,,,,,,,,,,,,,,,,,,,,,,,,,,,,,,,,,,,
,,,,,,,,,,,,,,,,,5eed592252bcc917d6b46cdf,25,2022-02-12_17h16.48.021,lexical_decision_task_DD_L6,2021.2.3,Win32,60.0240096,,,,,,,,,,,0.691,1,,,,,,,,,,,,,,z,1,0.691,,,,,,,,0.126701571,-0.401570681,0,0,0,,0,68,68,94,1,BLANS,HB,z,z,./images/BLANSHB.png,,,,,,,,,,,,,,,,,,,,,,,,,,,,,,,,,,,,
,,,,,,,,,,,,,,,,,5eed592252bcc917d6b46cdf,25,2022-02-12_17h16.48.021,lexical_decision_task_DD_L6,2021.2.3,Win32,60.0240096,,,,,,,,,,,0.725,1,,,,,,,,,,,,,,z,1,0.725,,,,,,,,0.126701571,-0.401570681,0,0,0,,0,69,69,126,1,GUELS,C,z,z,./images/GUELS.png,,,,,,,,,,,,,,,,,,,,,,,,,,,,,,,,,,,,
,,,,,,,,,,,,,,,,,5eed592252bcc917d6b46cdf,25,2022-02-12_17h16.48.021,lexical_decision_task_DD_L6,2021.2.3,Win32,60.0240096,,,,,,,,,,,0.674,1,,,,,,,,,,,,,,z,1,0.674,,,,,,,,0.126701571,-0.401570681,0,0,0,,0,70,70,93,1,SMONE,C,z,z,./images/SMONE.png,,,,,,,,,,,,,,,,,,,,,,,,,,,,,,,,,,,,
,,,,,,,,,,,,,,,,,5eed592252bcc917d6b46cdf,25,2022-02-12_17h16.48.021,lexical_decision_task_DD_L6,2021.2.3,Win32,60.0240096,,,,,,,,,,,1.244,1,,,,,,,,,,,,,,z,1,1.244,,,,,,,,0.126701571,-0.401570681,0,0,0,,0,71,71,125,1,MOOKY,LB,z,z,./images/MOOKYLB.png,,,,,,,,,,,,,,,,,,,,,,,,,,,,,,,,,,,,
,,,,,,,,,,,,,,,,,5eed592252bcc917d6b46cdf,25,2022-02-12_17h16.48.021,lexical_decision_task_DD_L6,2021.2.3,Win32,60.0240096,,,,,,,,,,,1.023,1,,,,,,,,,,,,,,m,1,1.023,,,,,,,,0.126701571,-0.401570681,0,0,0,,0,72,72,62,1,MAMMAL,HB,m,m,./images/MAMMALHB.png,,,,,,,,,,,,,,,,,,,,,,,,,,,,,,,,,,,,
,,,,,,,,,,,,,,,,,5eed592252bcc917d6b46cdf,25,2022-02-12_17h16.48.021,lexical_decision_task_DD_L6,2021.2.3,Win32,60.0240096,,,,,,,,,,,1.015,1,,,,,,,,,,,,,,z,1,1.015,,,,,,,,0.126701571,-0.401570681,0,0,0,,0,73,73,163,1,GAMBA,HB,z,z,./images/GAMBAHB.png,,,,,,,,,,,,,,,,,,,,,,,,,,,,,,,,,,,,
,,,,,,,,,,,,,,,,,5eed592252bcc917d6b46cdf,25,2022-02-12_17h16.48.021,lexical_decision_task_DD_L6,2021.2.3,Win32,60.0240096,,,,,,,,,,,1.183,1,,,,,,,,,,,,,,m,1,1.183,,,,,,,,0.126701571,-0.401570681,0,0,0,,0,74,74,56,1,HEATER,HB,m,m,./images/HEATERHB.png,,,,,,,,,,,,,,,,,,,,,,,,,,,,,,,,,,,,
,,,,,,,,,,,,,,,,,5eed592252bcc917d6b46cdf,25,2022-02-12_17h16.48.021,lexical_decision_task_DD_L6,2021.2.3,Win32,60.0240096,,,,,,,,,,,0.697,1,,,,,,,,,,,,,,z,1,0.697,,,,,,,,0.126701571,-0.401570681,0,0,0,,0,75,75,161,1,BLAPS,LB,z,z,./images/BLAPSLB.png,,,,,,,,,,,,,,,,,,,,,,,,,,,,,,,,,,,,
,,,,,,,,,,,,,,,,,5eed592252bcc917d6b46cdf,25,2022-02-12_17h16.48.021,lexical_decision_task_DD_L6,2021.2.3,Win32,60.0240096,,,,,,,,,,,0.693,1,,,,,,,,,,,,,,m,1,0.693,,,,,,,,0.126701571,-0.401570681,0,0,0,,0,76,76,4,1,BOXER,C,m,m,./images/BOXER.png,,,,,,,,,,,,,,,,,,,,,,,,,,,,,,,,,,,,
,,,,,,,,,,,,,,,,,5eed592252bcc917d6b46cdf,25,2022-02-12_17h16.48.021,lexical_decision_task_DD_L6,2021.2.3,Win32,60.0240096,,,,,,,,,,,0.704,1,,,,,,,,,,,,,,m,1,0.704,,,,,,,,0.126701571,-0.401570681,0,0,0,,0,77,77,36,1,BOILER,LB,m,m,./images/BOILERLB.png,,,,,,,,,,,,,,,,,,,,,,,,,,,,,,,,,,,,
,,,,,,,,,,,,,,,,,5eed592252bcc917d6b46cdf,25,2022-02-12_17h16.48.021,lexical_decision_task_DD_L6,2021.2.3,Win32,60.0240096,,,,,,,,,,,0.699,1,,,,,,,,,,,,,,z,1,0.699,,,,,,,,0.126701571,-0.401570681,0,0,0,,0,78,78,150,1,NOOLS,C,z,z,./images/NOOLS.png,,,,,,,,,,,,,,,,,,,,,,,,,,,,,,,,,,,,
,,,,,,,,,,,,,,,,,5eed592252bcc917d6b46cdf,25,2022-02-12_17h16.48.021,lexical_decision_task_DD_L6,2021.2.3,Win32,60.0240096,,,,,,,,,,,0.713,1,,,,,,,,,,,,,,m,1,0.713,,,,,,,,0.126701571,-0.401570681,0,0,0,,0,79,79,49,1,BISHOP,C,m,m,./images/BISHOP.png,,,,,,,,,,,,,,,,,,,,,,,,,,,,,,,,,,,,
,,,,,,,,,,,,,,,,,5eed592252bcc917d6b46cdf,25,2022-02-12_17h16.48.021,lexical_decision_task_DD_L6,2021.2.3,Win32,60.0240096,,,,,,,,,,,0.657,1,,,,,,,,,,,,,,m,1,0.657,,,,,,,,0.126701571,-0.401570681,0,0,0,,0,80,80,22,1,CLOWN,C,m,m,./images/CLOWN.png,,,,,,,,,,,,,,,,,,,,,,,,,,,,,,,,,,,,
,,,,,,,,,,,,,,,,,5eed592252bcc917d6b46cdf,25,2022-02-12_17h16.48.021,lexical_decision_task_DD_L6,2021.2.3,Win32,60.0240096,,,,,,,,,,,0.927,0,,,,,,,,,,,,,,z,0,0.927,,,,,,,,0.126701571,-0.401570681,0,0,0,,0,81,81,50,1,PILOT,HB,m,m,./images/PILOTHB.png,,,,,,,,,,,,,,,,,,,,,,,,,,,,,,,,,,,,
,,,,,,,,,,,,,,,,,5eed592252bcc917d6b46cdf,25,2022-02-12_17h16.48.021,lexical_decision_task_DD_L6,2021.2.3,Win32,60.0240096,,,,,,,,,,,0.924,1,,,,,,,,,,,,,,z,1,0.924,,,,,,,,0.126701571,-0.401570681,0,0,0,,0,82,82,159,1,CUDDY,C,z,z,./images/CUDDY.png,,,,,,,,,,,,,,,,,,,,,,,,,,,,,,,,,,,,
,,,,,,,,,,,,,,,,,5eed592252bcc917d6b46cdf,25,2022-02-12_17h16.48.021,lexical_decision_task_DD_L6,2021.2.3,Win32,60.0240096,,,,,,,,,,,0.706,1,,,,,,,,,,,,,,z,1,0.706,,,,,,,,0.126701571,-0.401570681,0,0,0,space,0,83,83,113,1,LINEW,LB,z,z,./images/LINEWLB.png,,47.999,,,,,,,,,,,,,,,,,,,,,,,,,,,,,,,,,,
,,,,,,,,,,,,,,,,,5eed592252bcc917d6b46cdf,25,2022-02-12_17h16.48.021,lexical_decision_task_DD_L6,2021.2.3,Win32,60.0240096,,,,,,,,,,,0.754,1,,,,,,,,,,,,,,m,1,0.754,,,,,,,,0.126701571,-0.401570681,0,0,0,,0,84,84,28,1,CASINO,C,m,m,./images/CASINO.png,,,,,,,,,,,,,,,,,,,,,,,,,,,,,,,,,,,,
,,,,,,,,,,,,,,,,,5eed592252bcc917d6b46cdf,25,2022-02-12_17h16.48.021,lexical_decision_task_DD_L6,2021.2.3,Win32,60.0240096,,,,,,,,,,,0.557,1,,,,,,,,,,,,,,z,1,0.557,,,,,,,,0.126701571,-0.401570681,0,0,0,,0,85,85,135,1,JOODY,C,z,z,./images/JOODY.png,,,,,,,,,,,,,,,,,,,,,,,,,,,,,,,,,,,,
,,,,,,,,,,,,,,,,,5eed592252bcc917d6b46cdf,25,2022-02-12_17h16.48.021,lexical_decision_task_DD_L6,2021.2.3,Win32,60.0240096,,,,,,,,,,,0.905,1,,,,,,,,,,,,,,z,1,0.905,,,,,,,,0.126701571,-0.401570681,0,0,0,,0,86,86,85,1,CHULK,HB,z,z,./images/CHULKHB.png,,,,,,,,,,,,,,,,,,,,,,,,,,,,,,,,,,,,
,,,,,,,,,,,,,,,,,5eed592252bcc917d6b46cdf,25,2022-02-12_17h16.48.021,lexical_decision_task_DD_L6,2021.2.3,Win32,60.0240096,,,,,,,,,,,0.665,1,,,,,,,,,,,,,,z,1,0.665,,,,,,,,0.126701571,-0.401570681,0,0,0,,0,87,87,90,1,NEAST,C,z,z,./images/NEAST.png,,,,,,,,,,,,,,,,,,,,,,,,,,,,,,,,,,,,
,,,,,,,,,,,,,,,,,5eed592252bcc917d6b46cdf,25,2022-02-12_17h16.48.021,lexical_decision_task_DD_L6,2021.2.3,Win32,60.0240096,,,,,,,,,,,1.046,1,,,,,,,,,,,,,,z,1,1.046,,,,,,,,0.126701571,-0.401570681,0,0,0,,0,88,88,100,1,DRIBS,HB,z,z,./images/DRIBSHB.png,,,,,,,,,,,,,,,,,,,,,,,,,,,,,,,,,,,,
,,,,,,,,,,,,,,,,,5eed592252bcc917d6b46cdf,25,2022-02-12_17h16.48.021,lexical_decision_task_DD_L6,2021.2.3,Win32,60.0240096,,,,,,,,,,,0.673,1,,,,,,,,,,,,,,z,1,0.673,,,,,,,,0.126701571,-0.401570681,0,0,0,,0,89,89,143,1,MONGS,LB,z,z,./images/MONGSLB.png,,,,,,,,,,,,,,,,,,,,,,,,,,,,,,,,,,,,
,,,,,,,,,,,,,,,,,5eed592252bcc917d6b46cdf,25,2022-02-12_17h16.48.021,lexical_decision_task_DD_L6,2021.2.3,Win32,60.0240096,,,,,,,,,,,0.491,1,,,,,,,,,,,,,,m,1,0.491,,,,,,,,0.126701571,-0.401570681,0,0,0,,0,90,90,10,1,GARDEN,C,m,m,./images/GARDEN.png,,,,,,,,,,,,,,,,,,,,,,,,,,,,,,,,,,,,
,,,,,,,,,,,,,,,,,5eed592252bcc917d6b46cdf,25,2022-02-12_17h16.48.021,lexical_decision_task_DD_L6,2021.2.3,Win32,60.0240096,,,,,,,,,,,0.674,1,,,,,,,,,,,,,,z,1,0.674,,,,,,,,0.126701571,-0.401570681,0,0,0,,0,91,91,119,1,PAFER,LB,z,z,./images/PAFERLB.png,,,,,,,,,,,,,,,,,,,,,,,,,,,,,,,,,,,,
,,,,,,,,,,,,,,,,,5eed592252bcc917d6b46cdf,25,2022-02-12_17h16.48.021,lexical_decision_task_DD_L6,2021.2.3,Win32,60.0240096,,,,,,,,,,,0.673,1,,,,,,,,,,,,,,m,1,0.673,,,,,,,,0.126701571,-0.401570681,0,0,0,,0,92,92,78,1,BROOM,LB,m,m,./images/BROOMLB.png,,,,,,,,,,,,,,,,,,,,,,,,,,,,,,,,,,,,
,,,,,,,,,,,,,,,,,5eed592252bcc917d6b46cdf,25,2022-02-12_17h16.48.021,lexical_decision_task_DD_L6,2021.2.3,Win32,60.0240096,,,,,,,,,,,0.564,1,,,,,,,,,,,,,,z,1,0.564,,,,,,,,0.126701571,-0.401570681,0,0,0,,0,93,93,111,1,HOSSE,C,z,z,./images/HOSSE.png,,,,,,,,,,,,,,,,,,,,,,,,,,,,,,,,,,,,
,,,,,,,,,,,,,,,,,5eed592252bcc917d6b46cdf,25,2022-02-12_17h16.48.021,lexical_decision_task_DD_L6,2021.2.3,Win32,60.0240096,,,,,,,,,,,0.829,0,,,,,,,,,,,,,,m,0,0.829,,,,,,,,0.126701571,-0.401570681,0,0,0,,0,94,94,128,1,GRIFT,LB,z,z,./images/GRIFTLB.png,,,,,,,,,,,,,,,,,,,,,,,,,,,,,,,,,,,,
,,,,,,,,,,,,,,,,,5eed592252bcc917d6b46cdf,25,2022-02-12_17h16.48.021,lexical_decision_task_DD_L6,2021.2.3,Win32,60.0240096,,,,,,,,,,,0.608,1,,,,,,,,,,,,,,z,1,0.608,,,,,,,,0.126701571,-0.401570681,0,0,0,,0,95,95,96,1,KEAMS,C,z,z,./images/KEAMS.png,,,,,,,,,,,,,,,,,,,,,,,,,,,,,,,,,,,,
,,,,,,,,,,,,,,,,,5eed592252bcc917d6b46cdf,25,2022-02-12_17h16.48.021,lexical_decision_task_DD_L6,2021.2.3,Win32,60.0240096,,,,,,,,,,,0.774,1,,,,,,,,,,,,,,z,1,0.774,,,,,,,,0.126701571,-0.401570681,0,0,0,,0,96,96,99,1,BACKY,C,z,z,./images/BACKY.png,,,,,,,,,,,,,,,,,,,,,,,,,,,,,,,,,,,,
,,,,,,,,,,,,,,,,,5eed592252bcc917d6b46cdf,25,2022-02-12_17h16.48.021,lexical_decision_task_DD_L6,2021.2.3,Win32,60.0240096,,,,,,,,,,,0.659,1,,,,,,,,,,,,,,m,1,0.659,,,,,,,,0.126701571,-0.401570681,0,0,0,,0,97,97,44,1,BASKET,HB,m,m,./images/BASKETHB.png,,,,,,,,,,,,,,,,,,,,,,,,,,,,,,,,,,,,
,,,,,,,,,,,,,,,,,5eed592252bcc917d6b46cdf,25,2022-02-12_17h16.48.021,lexical_decision_task_DD_L6,2021.2.3,Win32,60.0240096,,,,,,,,,,,0.79,1,,,,,,,,,,,,,,m,1,0.79,,,,,,,,0.126701571,-0.401570681,0,0,0,,0,98,98,77,1,WHEEL,HB,m,m,./images/WHEELHB.png,,,,,,,,,,,,,,,,,,,,,,,,,,,,,,,,,,,,
,,,,,,,,,,,,,,,,,5eed592252bcc917d6b46cdf,25,2022-02-12_17h16.48.021,lexical_decision_task_DD_L6,2021.2.3,Win32,60.0240096,,,,,,,,,,,0.924,1,,,,,,,,,,,,,,z,1,0.924,,,,,,,,0.126701571,-0.401570681,0,0,0,,0,99,99,112,1,MYING,HB,z,z,./images/MYINGHB.png,,,,,,,,,,,,,,,,,,,,,,,,,,,,,,,,,,,,
,,,,,,,,,,,,,,,,,5eed592252bcc917d6b46cdf,25,2022-02-12_17h16.48.021,lexical_decision_task_DD_L6,2021.2.3,Win32,60.0240096,,,,,,,,,,,0.857,1,,,,,,,,,,,,,,z,1,0.857,,,,,,,,0.126701571,-0.401570681,0,0,0,,0,100,100,87,1,TRING,C,z,z,./images/TRING.png,,,,,,,,,,,,,,,,,,,,,,,,,,,,,,,,,,,,
,,,,,,,,,,,,,,,,,5eed592252bcc917d6b46cdf,25,2022-02-12_17h16.48.021,lexical_decision_task_DD_L6,2021.2.3,Win32,60.0240096,,,,,,,,,,,0.662,1,,,,,,,,,,,,,,z,1,0.662,,,,,,,,0.126701571,-0.401570681,0,0,0,,0,101,101,123,1,SEDGE,C,z,z,./images/SEDGE.png,,,,,,,,,,,,,,,,,,,,,,,,,,,,,,,,,,,,
,,,,,,,,,,,,,,,,,5eed592252bcc917d6b46cdf,25,2022-02-12_17h16.48.021,lexical_decision_task_DD_L6,2021.2.3,Win32,60.0240096,,,,,,,,,,,0.596,1,,,,,,,,,,,,,,m,1,0.596,,,,,,,,0.126701571,-0.401570681,0,0,0,,0,102,102,66,1,STATUE,LB,m,m,./images/STATUELB.png,,,,,,,,,,,,,,,,,,,,,,,,,,,,,,,,,,,,
,,,,,,,,,,,,,,,,,5eed592252bcc917d6b46cdf,25,2022-02-12_17h16.48.021,lexical_decision_task_DD_L6,2021.2.3,Win32,60.0240096,,,,,,,,,,,0.521,1,,,,,,,,,,,,,,m,1,0.521,,,,,,,,0.126701571,-0.401570681,0,0,0,,0,103,103,73,1,GLOVE,C,m,m,./images/GLOVE.png,,,,,,,,,,,,,,,,,,,,,,,,,,,,,,,,,,,,
,,,,,,,,,,,,,,,,,5eed592252bcc917d6b46cdf,25,2022-02-12_17h16.48.021,lexical_decision_task_DD_L6,2021.2.3,Win32,60.0240096,,,,,,,,,,,0.891,1,,,,,,,,,,,,,,z,1,0.891,,,,,,,,0.126701571,-0.401570681,0,0,0,,0,104,104,140,1,DOVET,LB,z,z,./images/DOVETLB.png,,,,,,,,,,,,,,,,,,,,,,,,,,,,,,,,,,,,
,,,,,,,,,,,,,,,,,5eed592252bcc917d6b46cdf,25,2022-02-12_17h16.48.021,lexical_decision_task_DD_L6,2021.2.3,Win32,60.0240096,,,,,,,,,,,0.605,1,,,,,,,,,,,,,,m,1,0.605,,,,,,,,0.126701571,-0.401570681,0,0,0,,0,105,105,81,1,DRILL,LB,m,m,./images/DRILLLB.png,,,,,,,,,,,,,,,,,,,,,,,,,,,,,,,,,,,,
,,,,,,,,,,,,,,,,,5eed592252bcc917d6b46cdf,25,2022-02-12_17h16.48.021,lexical_decision_task_DD_L6,2021.2.3,Win32,60.0240096,,,,,,,,,,,0.655,1,,,,,,,,,,,,,,m,1,0.655,,,,,,,,0.126701571,-0.401570681,0,0,0,,0,106,106,24,1,FLESH,LB,m,m,./images/FLESHLB.png,,,,,,,,,,,,,,,,,,,,,,,,,,,,,,,,,,,,
,,,,,,,,,,,,,,,,,5eed592252bcc917d6b46cdf,25,2022-02-12_17h16.48.021,lexical_decision_task_DD_L6,2021.2.3,Win32,60.0240096,,,,,,,,,,,0.781,1,,,,,,,,,,,,,,m,1,0.781,,,,,,,,0.126701571,-0.401570681,0,0,0,,0,107,107,65,1,SPINE,HB,m,m,./images/SPINEHB.png,,,,,,,,,,,,,,,,,,,,,,,,,,,,,,,,,,,,
,,,,,,,,,,,,,,,,,5eed592252bcc917d6b46cdf,25,2022-02-12_17h16.48.021,lexical_decision_task_DD_L6,2021.2.3,Win32,60.0240096,,,,,,,,,,,0.892,1,,,,,,,,,,,,,,z,1,0.892,,,,,,,,0.126701571,-0.401570681,0,0,0,,0,108,108,109,1,BURGE,HB,z,z,./images/BURGEHB.png,,,,,,,,,,,,,,,,,,,,,,,,,,,,,,,,,,,,
,,,,,,,,,,,,,,,,,5eed592252bcc917d6b46cdf,25,2022-02-12_17h16.48.021,lexical_decision_task_DD_L6,2021.2.3,Win32,60.0240096,,,,,,,,,,,0.941,1,,,,,,,,,,,,,,z,1,0.941,,,,,,,,0.126701571,-0.401570681,0,0,0,,0,109,109,165,1,TROWN,C,z,z,./images/TROWN.png,,,,,,,,,,,,,,,,,,,,,,,,,,,,,,,,,,,,
,,,,,,,,,,,,,,,,,5eed592252bcc917d6b46cdf,25,2022-02-12_17h16.48.021,lexical_decision_task_DD_L6,2021.2.3,Win32,60.0240096,,,,,,,,,,,0.648,1,,,,,,,,,,,,,,m,1,0.648,,,,,,,,0.126701571,-0.401570681,0,0,0,,0,110,110,19,1,DONKEY,C,m,m,./images/DONKEY.png,,,,,,,,,,,,,,,,,,,,,,,,,,,,,,,,,,,,
,,,,,,,,,,,,,,,,,5eed592252bcc917d6b46cdf,25,2022-02-12_17h16.48.021,lexical_decision_task_DD_L6,2021.2.3,Win32,60.0240096,,,,,,,,,,,0.723,1,,,,,,,,,,,,,,m,1,0.723,,,,,,,,0.126701571,-0.401570681,0,0,0,,0,111,111,23,1,CLOTH,HB,m,m,./images/CLOTHHB.png,,,,,,,,,,,,,,,,,,,,,,,,,,,,,,,,,,,,
,,,,,,,,,,,,,,,,,5eed592252bcc917d6b46cdf,25,2022-02-12_17h16.48.021,lexical_decision_task_DD_L6,2021.2.3,Win32,60.0240096,,,,,,,,,,,0.606,1,,,,,,,,,,,,,,m,1,0.606,,,,,,,,0.126701571,-0.401570681,0,0,0,,0,112,112,42,1,CHAIN,LB,m,m,./images/CHAINLB.png,,,,,,,,,,,,,,,,,,,,,,,,,,,,,,,,,,,,
,,,,,,,,,,,,,,,,,5eed592252bcc917d6b46cdf,25,2022-02-12_17h16.48.021,lexical_decision_task_DD_L6,2021.2.3,Win32,60.0240096,,,,,,,,,,,0.55,1,,,,,,,,,,,,,,m,1,0.55,,,,,,,,0.126701571,-0.401570681,0,0,0,,0,113,113,64,1,BRIDE,C,m,m,./images/BRIDE.png,,,,,,,,,,,,,,,,,,,,,,,,,,,,,,,,,,,,
,,,,,,,,,,,,,,,,,5eed592252bcc917d6b46cdf,25,2022-02-12_17h16.48.021,lexical_decision_task_DD_L6,2021.2.3,Win32,60.0240096,,,,,,,,,,,0.67,1,,,,,,,,,,,,,,z,1,0.67,,,,,,,,0.126701571,-0.401570681,0,0,0,,0,114,114,116,1,BALGY,LB,z,z,./images/BALGYLB.png,,,,,,,,,,,,,,,,,,,,,,,,,,,,,,,,,,,,
,,,,,,,,,,,,,,,,,5eed592252bcc917d6b46cdf,25,2022-02-12_17h16.48.021,lexical_decision_task_DD_L6,2021.2.3,Win32,60.0240096,,,,,,,,,,,0.681,1,,,,,,,,,,,,,,m,1,0.681,,,,,,,,0.126701571,-0.401570681,0,0,0,,0,115,115,71,1,BUBBLE,HB,m,m,./images/BUBBLEHB.png,,,,,,,,,,,,,,,,,,,,,,,,,,,,,,,,,,,,
,,,,,,,,,,,,,,,,,5eed592252bcc917d6b46cdf,25,2022-02-12_17h16.48.021,lexical_decision_task_DD_L6,2021.2.3,Win32,60.0240096,,,,,,,,,,,0.705,1,,,,,,,,,,,,,,z,1,0.705,,,,,,,,0.126701571,-0.401570681,0,0,0,,0,116,116,105,1,MOKER,C,z,z,./images/MOKER.png,,,,,,,,,,,,,,,,,,,,,,,,,,,,,,,,,,,,
,,,,,,,,,,,,,,,,,5eed592252bcc917d6b46cdf,25,2022-02-12_17h16.48.021,lexical_decision_task_DD_L6,2021.2.3,Win32,60.0240096,,,,,,,,,,,0.727,1,,,,,,,,,,,,,,z,1,0.727,,,,,,,,0.126701571,-0.401570681,0,0,0,,0,117,117,107,1,FASKS,LB,z,z,./images/FASKSLB.png,,,,,,,,,,,,,,,,,,,,,,,,,,,,,,,,,,,,
,,,,,,,,,,,,,,,,,5eed592252bcc917d6b46cdf,25,2022-02-12_17h16.48.021,lexical_decision_task_DD_L6,2021.2.3,Win32,60.0240096,,,,,,,,,,,0.612,1,,,,,,,,,,,,,,z,1,0.612,,,,,,,,0.126701571,-0.401570681,0,0,0,,0,118,118,144,1,NAIRY,C,z,z,./images/NAIRY.png,,,,,,,,,,,,,,,,,,,,,,,,,,,,,,,,,,,,
,,,,,,,,,,,,,,,,,5eed592252bcc917d6b46cdf,25,2022-02-12_17h16.48.021,lexical_decision_task_DD_L6,2021.2.3,Win32,60.0240096,,,,,,,,,,,0.643,1,,,,,,,,,,,,,,m,1,0.643,,,,,,,,0.126701571,-0.401570681,0,0,0,,0,119,119,15,1,COLLAR,LB,m,m,./images/COLLARLB.png,,,,,,,,,,,,,,,,,,,,,,,,,,,,,,,,,,,,
,,,,,,,,,,,,,,,,,5eed592252bcc917d6b46cdf,25,2022-02-12_17h16.48.021,lexical_decision_task_DD_L6,2021.2.3,Win32,60.0240096,,,,,,,,,,,1.258,1,,,,,,,,,,,,,,z,1,1.258,,,,,,,,0.126701571,-0.401570681,0,0,0,,0,120,120,151,1,TINKY,HB,z,z,./images/TINKYHB.png,,,,,,,,,,,,,,,,,,,,,,,,,,,,,,,,,,,,
,,,,,,,,,,,,,,,,,5eed592252bcc917d6b46cdf,25,2022-02-12_17h16.48.021,lexical_decision_task_DD_L6,2021.2.3,Win32,60.0240096,,,,,,,,,,,0.825,1,,,,,,,,,,,,,,m,1,0.825,,,,,,,,0.126701571,-0.401570681,0,0,0,,0,121,121,26,1,CLOUD,HB,m,m,./images/CLOUDHB.png,,,,,,,,,,,,,,,,,,,,,,,,,,,,,,,,,,,,
,,,,,,,,,,,,,,,,,5eed592252bcc917d6b46cdf,25,2022-02-12_17h16.48.021,lexical_decision_task_DD_L6,2021.2.3,Win32,60.0240096,,,,,,,,,,,0.973,1,,,,,,,,,,,,,,m,1,0.973,,,,,,,,0.126701571,-0.401570681,0,0,0,,0,122,122,0,1,WALNUT,LB,m,m,./images/WALNUTLB.png,,,,,,,,,,,,,,,,,,,,,,,,,,,,,,,,,,,,
,,,,,,,,,,,,,,,,,5eed592252bcc917d6b46cdf,25,2022-02-12_17h16.48.021,lexical_decision_task_DD_L6,2021.2.3,Win32,60.0240096,,,,,,,,,,,0.74,1,,,,,,,,,,,,,,z,1,0.74,,,,,,,,0.126701571,-0.401570681,0,0,0,,0,123,123,152,1,FRAIN,LB,z,z,./images/FRAINLB.png,,,,,,,,,,,,,,,,,,,,,,,,,,,,,,,,,,,,
,,,,,,,,,,,,,,,,,5eed592252bcc917d6b46cdf,25,2022-02-12_17h16.48.021,lexical_decision_task_DD_L6,2021.2.3,Win32,60.0240096,,,,,,,,,,,0.706,1,,,,,,,,,,,,,,z,1,0.706,,,,,,,,0.126701571,-0.401570681,0,0,0,,0,124,124,95,1,HANTY,LB,z,z,./images/HANTYLB.png,,,,,,,,,,,,,,,,,,,,,,,,,,,,,,,,,,,,
,,,,,,,,,,,,,,,,,5eed592252bcc917d6b46cdf,25,2022-02-12_17h16.48.021,lexical_decision_task_DD_L6,2021.2.3,Win32,60.0240096,,,,,,,,,,,0.64,1,,,,,,,,,,,,,,m,1,0.64,,,,,,,,0.126701571,-0.401570681,0,0,0,space,0,125,125,25,1,CHALK,C,m,m,./images/CHALK.png,,12.515,,,,,,,,,,,,,,,,,,,,,,,,,,,,,,,,,,
,,,,,,,,,,,,,,,,,5eed592252bcc917d6b46cdf,25,2022-02-12_17h16.48.021,lexical_decision_task_DD_L6,2021.2.3,Win32,60.0240096,,,,,,,,,,,0.911,1,,,,,,,,,,,,,,m,1,0.911,,,,,,,,0.126701571,-0.401570681,0,0,0,,0,126,126,83,1,WHISKY,HB,m,m,./images/WHISKYHB.png,,,,,,,,,,,,,,,,,,,,,,,,,,,,,,,,,,,,
,,,,,,,,,,,,,,,,,5eed592252bcc917d6b46cdf,25,2022-02-12_17h16.48.021,lexical_decision_task_DD_L6,2021.2.3,Win32,60.0240096,,,,,,,,,,,1.003,1,,,,,,,,,,,,,,z,1,1.003,,,,,,,,0.126701571,-0.401570681,0,0,0,,0,127,127,103,1,FLORT,HB,z,z,./images/FLORTHB.png,,,,,,,,,,,,,,,,,,,,,,,,,,,,,,,,,,,,
,,,,,,,,,,,,,,,,,5eed592252bcc917d6b46cdf,25,2022-02-12_17h16.48.021,lexical_decision_task_DD_L6,2021.2.3,Win32,60.0240096,,,,,,,,,,,0.693,1,,,,,,,,,,,,,,z,1,0.693,,,,,,,,0.126701571,-0.401570681,0,0,0,,0,128,128,122,1,BLOOT,LB,z,z,./images/BLOOTLB.png,,,,,,,,,,,,,,,,,,,,,,,,,,,,,,,,,,,,
,,,,,,,,,,,,,,,,,5eed592252bcc917d6b46cdf,25,2022-02-12_17h16.48.021,lexical_decision_task_DD_L6,2021.2.3,Win32,60.0240096,,,,,,,,,,,0.829,1,,,,,,,,,,,,,,z,1,0.829,,,,,,,,0.126701571,-0.401570681,0,0,0,,0,129,129,124,1,TUNCH,HB,z,z,./images/TUNCHHB.png,,,,,,,,,,,,,,,,,,,,,,,,,,,,,,,,,,,,
,,,,,,,,,,,,,,,,,5eed592252bcc917d6b46cdf,25,2022-02-12_17h16.48.021,lexical_decision_task_DD_L6,2021.2.3,Win32,60.0240096,,,,,,,,,,,0.512,1,,,,,,,,,,,,,,m,1,0.512,,,,,,,,0.126701571,-0.401570681,0,0,0,,0,130,130,39,1,CANDY,LB,m,m,./images/CANDYLB.png,,,,,,,,,,,,,,,,,,,,,,,,,,,,,,,,,,,,
,,,,,,,,,,,,,,,,,5eed592252bcc917d6b46cdf,25,2022-02-12_17h16.48.021,lexical_decision_task_DD_L6,2021.2.3,Win32,60.0240096,,,,,,,,,,,0.78,1,,,,,,,,,,,,,,m,1,0.78,,,,,,,,0.126701571,-0.401570681,0,0,0,,0,131,131,5,1,BAMBOO,HB,m,m,./images/BAMBOOHB.png,,,,,,,,,,,,,,,,,,,,,,,,,,,,,,,,,,,,
,,,,,,,,,,,,,,,,,5eed592252bcc917d6b46cdf,25,2022-02-12_17h16.48.021,lexical_decision_task_DD_L6,2021.2.3,Win32,60.0240096,,,,,,,,,,,0.563,1,,,,,,,,,,,,,,m,1,0.563,,,,,,,,0.126701571,-0.401570681,0,0,0,,0,132,132,74,1,JUMPER,HB,m,m,./images/JUMPERHB.png,,,,,,,,,,,,,,,,,,,,,,,,,,,,,,,,,,,,
,,,,,,,,,,,,,,,,,5eed592252bcc917d6b46cdf,25,2022-02-12_17h16.48.021,lexical_decision_task_DD_L6,2021.2.3,Win32,60.0240096,,,,,,,,,,,0.856,1,,,,,,,,,,,,,,z,1,0.856,,,,,,,,0.126701571,-0.401570681,0,0,0,,0,133,133,118,1,BAVEL,HB,z,z,./images/BAVELHB.png,,,,,,,,,,,,,,,,,,,,,,,,,,,,,,,,,,,,
,,,,,,,,,,,,,,,,,5eed592252bcc917d6b46cdf,25,2022-02-12_17h16.48.021,lexical_decision_task_DD_L6,2021.2.3,Win32,60.0240096,,,,,,,,,,,0.465,1,,,,,,,,,,,,,,m,1,0.465,,,,,,,,0.126701571,-0.401570681,0,0,0,,0,134,134,75,1,HAMMER,LB,m,m,./images/HAMMERLB.png,,,,,,,,,,,,,,,,,,,,,,,,,,,,,,,,,,,,
,,,,,,,,,,,,,,,,,5eed592252bcc917d6b46cdf,25,2022-02-12_17h16.48.021,lexical_decision_task_DD_L6,2021.2.3,Win32,60.0240096,,,,,,,,,,,0.579,1,,,,,,,,,,,,,,z,1,0.579,,,,,,,,0.126701571,-0.401570681,0,0,0,,0,135,135,158,1,EGECT,LB,z,z,./images/EGECTLB.png,,,,,,,,,,,,,,,,,,,,,,,,,,,,,,,,,,,,
,,,,,,,,,,,,,,,,,5eed592252bcc917d6b46cdf,25,2022-02-12_17h16.48.021,lexical_decision_task_DD_L6,2021.2.3,Win32,60.0240096,,,,,,,,,,,0.724,1,,,,,,,,,,,,,,m,1,0.724,,,,,,,,0.126701571,-0.401570681,0,0,0,,0,136,136,41,1,STREAM,HB,m,m,./images/STREAMHB.png,,,,,,,,,,,,,,,,,,,,,,,,,,,,,,,,,,,,
,,,,,,,,,,,,,,,,,5eed592252bcc917d6b46cdf,25,2022-02-12_17h16.48.021,lexical_decision_task_DD_L6,2021.2.3,Win32,60.0240096,,,,,,,,,,,0.683,1,,,,,,,,,,,,,,z,1,0.683,,,,,,,,0.126701571,-0.401570681,0,0,0,,0,137,137,160,1,VEETS,HB,z,z,./images/VEETSHB.png,,,,,,,,,,,,,,,,,,,,,,,,,,,,,,,,,,,,
,,,,,,,,,,,,,,,,,5eed592252bcc917d6b46cdf,25,2022-02-12_17h16.48.021,lexical_decision_task_DD_L6,2021.2.3,Win32,60.0240096,,,,,,,,,,,0.512,1,,,,,,,,,,,,,,m,1,0.512,,,,,,,,0.126701571,-0.401570681,0,0,0,,0,138,138,51,1,SAUCE,LB,m,m,./images/SAUCELB.png,,,,,,,,,,,,,,,,,,,,,,,,,,,,,,,,,,,,
,,,,,,,,,,,,,,,,,5eed592252bcc917d6b46cdf,25,2022-02-12_17h16.48.021,lexical_decision_task_DD_L6,2021.2.3,Win32,60.0240096,,,,,,,,,,,0.706,1,,,,,,,,,,,,,,z,1,0.706,,,,,,,,0.126701571,-0.401570681,0,0,0,,0,139,139,104,1,GITTY,LB,z,z,./images/GITTYLB.png,,,,,,,,,,,,,,,,,,,,,,,,,,,,,,,,,,,,
,,,,,,,,,,,,,,,,,5eed592252bcc917d6b46cdf,25,2022-02-12_17h16.48.021,lexical_decision_task_DD_L6,2021.2.3,Win32,60.0240096,,,,,,,,,,,0.708,1,,,,,,,,,,,,,,z,1,0.708,,,,,,,,0.126701571,-0.401570681,0,0,0,,0,140,140,138,1,PLICE,C,z,z,./images/PLICE.png,,,,,,,,,,,,,,,,,,,,,,,,,,,,,,,,,,,,
,,,,,,,,,,,,,,,,,5eed592252bcc917d6b46cdf,25,2022-02-12_17h16.48.021,lexical_decision_task_DD_L6,2021.2.3,Win32,60.0240096,,,,,,,,,,,0.775,1,,,,,,,,,,,,,,z,1,0.775,,,,,,,,0.126701571,-0.401570681,0,0,0,,0,141,141,120,1,RINED,C,z,z,./images/RINED.png,,,,,,,,,,,,,,,,,,,,,,,,,,,,,,,,,,,,
,,,,,,,,,,,,,,,,,5eed592252bcc917d6b46cdf,25,2022-02-12_17h16.48.021,lexical_decision_task_DD_L6,2021.2.3,Win32,60.0240096,,,,,,,,,,,0.496,1,,,,,,,,,,,,,,m,1,0.496,,,,,,,,0.126701571,-0.401570681,0,0,0,,0,142,142,54,1,CHERRY,LB,m,m,./images/CHERRYLB.png,,,,,,,,,,,,,,,,,,,,,,,,,,,,,,,,,,,,
,,,,,,,,,,,,,,,,,5eed592252bcc917d6b46cdf,25,2022-02-12_17h16.48.021,lexical_decision_task_DD_L6,2021.2.3,Win32,60.0240096,,,,,,,,,,,0.72,1,,,,,,,,,,,,,,z,1,0.72,,,,,,,,0.126701571,-0.401570681,0,0,0,,0,143,143,156,1,HIXES,C,z,z,./images/HIXES.png,,,,,,,,,,,,,,,,,,,,,,,,,,,,,,,,,,,,
,,,,,,,,,,,,,,,,,5eed592252bcc917d6b46cdf,25,2022-02-12_17h16.48.021,lexical_decision_task_DD_L6,2021.2.3,Win32,60.0240096,,,,,,,,,,,0.887,1,,,,,,,,,,,,,,z,1,0.887,,,,,,,,0.126701571,-0.401570681,0,0,0,,0,144,144,86,1,AIFED,LB,z,z,./images/AIFEDLB.png,,,,,,,,,,,,,,,,,,,,,,,,,,,,,,,,,,,,
,,,,,,,,,,,,,,,,,5eed592252bcc917d6b46cdf,25,2022-02-12_17h16.48.021,lexical_decision_task_DD_L6,2021.2.3,Win32,60.0240096,,,,,,,,,,,0.521,1,,,,,,,,,,,,,,m,1,0.521,,,,,,,,0.126701571,-0.401570681,0,0,0,,0,145,145,37,1,TIGER,C,m,m,./images/TIGER.png,,,,,,,,,,,,,,,,,,,,,,,,,,,,,,,,,,,,
,,,,,,,,,,,,,,,,,5eed592252bcc917d6b46cdf,25,2022-02-12_17h16.48.021,lexical_decision_task_DD_L6,2021.2.3,Win32,60.0240096,,,,,,,,,,,0.559,1,,,,,,,,,,,,,,m,1,0.559,,,,,,,,0.126701571,-0.401570681,0,0,0,,0,146,146,13,1,BUNNY,C,m,m,./images/BUNNY.png,,,,,,,,,,,,,,,,,,,,,,,,,,,,,,,,,,,,
,,,,,,,,,,,,,,,,,5eed592252bcc917d6b46cdf,25,2022-02-12_17h16.48.021,lexical_decision_task_DD_L6,2021.2.3,Win32,60.0240096,,,,,,,,,,,0.748,0,,,,,,,,,,,,,,z,0,0.748,,,,,,,,0.126701571,-0.401570681,0,0,0,,0,147,147,80,1,PLANET,HB,m,m,./images/PLANETHB.png,,,,,,,,,,,,,,,,,,,,,,,,,,,,,,,,,,,,
,,,,,,,,,,,,,,,,,5eed592252bcc917d6b46cdf,25,2022-02-12_17h16.48.021,lexical_decision_task_DD_L6,2021.2.3,Win32,60.0240096,,,,,,,,,,,0.537,1,,,,,,,,,,,,,,m,1,0.537,,,,,,,,0.126701571,-0.401570681,0,0,0,,0,148,148,48,1,SHIELD,LB,m,m,./images/SHIELDLB.png,,,,,,,,,,,,,,,,,,,,,,,,,,,,,,,,,,,,
,,,,,,,,,,,,,,,,,5eed592252bcc917d6b46cdf,25,2022-02-12_17h16.48.021,lexical_decision_task_DD_L6,2021.2.3,Win32,60.0240096,,,,,,,,,,,0.656,0,,,,,,,,,,,,,,z,0,0.656,,,,,,,,0.126701571,-0.401570681,0,0,0,,0,149,149,38,1,ENGINE,HB,m,m,./images/ENGINEHB.png,,,,,,,,,,,,,,,,,,,,,,,,,,,,,,,,,,,,
,,,,,,,,,,,,,,,,,5eed592252bcc917d6b46cdf,25,2022-02-12_17h16.48.021,lexical_decision_task_DD_L6,2021.2.3,Win32,60.0240096,,,,,,,,,,,1.457,1,,,,,,,,,,,,,,m,1,1.457,,,,,,,,0.126701571,-0.401570681,0,0,0,,0,150,150,35,1,LLAMA,HB,m,m,./images/LLAMAHB.png,,,,,,,,,,,,,,,,,,,,,,,,,,,,,,,,,,,,
,,,,,,,,,,,,,,,,,5eed592252bcc917d6b46cdf,25,2022-02-12_17h16.48.021,lexical_decision_task_DD_L6,2021.2.3,Win32,60.0240096,,,,,,,,,,,0.579,1,,,,,,,,,,,,,,m,1,0.579,,,,,,,,0.126701571,-0.401570681,0,0,0,,0,151,151,21,1,DANCER,LB,m,m,./images/DANCERLB.png,,,,,,,,,,,,,,,,,,,,,,,,,,,,,,,,,,,,
,,,,,,,,,,,,,,,,,5eed592252bcc917d6b46cdf,25,2022-02-12_17h16.48.021,lexical_decision_task_DD_L6,2021.2.3,Win32,60.0240096,,,,,,,,,,,1.062,1,,,,,,,,,,,,,,z,1,1.062,,,,,,,,0.126701571,-0.401570681,0,0,0,,0,152,152,97,1,CHIDS,HB,z,z,./images/CHIDSHB.png,,,,,,,,,,,,,,,,,,,,,,,,,,,,,,,,,,,,
,,,,,,,,,,,,,,,,,5eed592252bcc917d6b46cdf,25,2022-02-12_17h16.48.021,lexical_decision_task_DD_L6,2021.2.3,Win32,60.0240096,,,,,,,,,,,0.672,1,,,,,,,,,,,,,,z,1,0.672,,,,,,,,0.126701571,-0.401570681,0,0,0,,0,153,153,132,1,SCIFF,C,z,z,./images/SCIFF.png,,,,,,,,,,,,,,,,,,,,,,,,,,,,,,,,,,,,
,,,,,,,,,,,,,,,,,5eed592252bcc917d6b46cdf,25,2022-02-12_17h16.48.021,lexical_decision_task_DD_L6,2021.2.3,Win32,60.0240096,,,,,,,,,,,0.747,1,,,,,,,,,,,,,,m,1,0.747,,,,,,,,0.126701571,-0.401570681,0,0,0,,0,154,154,58,1,CANOE,C,m,m,./images/CANOE.png,,,,,,,,,,,,,,,,,,,,,,,,,,,,,,,,,,,,
,,,,,,,,,,,,,,,,,5eed592252bcc917d6b46cdf,25,2022-02-12_17h16.48.021,lexical_decision_task_DD_L6,2021.2.3,Win32,60.0240096,,,,,,,,,,,0.624,1,,,,,,,,,,,,,,m,1,0.624,,,,,,,,0.126701571,-0.401570681,0,0,0,,0,155,155,67,1,POKER,C,m,m,./images/POKER.png,,,,,,,,,,,,,,,,,,,,,,,,,,,,,,,,,,,,
,,,,,,,,,,,,,,,,,5eed592252bcc917d6b46cdf,25,2022-02-12_17h16.48.021,lexical_decision_task_DD_L6,2021.2.3,Win32,60.0240096,,,,,,,,,,,0.924,1,,,,,,,,,,,,,,z,1,0.924,,,,,,,,0.126701571,-0.401570681,0,0,0,,0,156,156,88,1,GLUSH,HB,z,z,./images/GLUSHHB.png,,,,,,,,,,,,,,,,,,,,,,,,,,,,,,,,,,,,
,,,,,,,,,,,,,,,,,5eed592252bcc917d6b46cdf,25,2022-02-12_17h16.48.021,lexical_decision_task_DD_L6,2021.2.3,Win32,60.0240096,,,,,,,,,,,0.824,1,,,,,,,,,,,,,,z,1,0.824,,,,,,,,0.126701571,-0.401570681,0,0,0,,0,157,157,139,1,BLEAR,HB,z,z,./images/BLEARHB.png,,,,,,,,,,,,,,,,,,,,,,,,,,,,,,,,,,,,
,,,,,,,,,,,,,,,,,5eed592252bcc917d6b46cdf,25,2022-02-12_17h16.48.021,lexical_decision_task_DD_L6,2021.2.3,Win32,60.0240096,,,,,,,,,,,0.72,1,,,,,,,,,,,,,,z,1,0.72,,,,,,,,0.126701571,-0.401570681,0,0,0,,0,158,158,108,1,GRUET,C,z,z,./images/GRUET.png,,,,,,,,,,,,,,,,,,,,,,,,,,,,,,,,,,,,
,,,,,,,,,,,,,,,,,5eed592252bcc917d6b46cdf,25,2022-02-12_17h16.48.021,lexical_decision_task_DD_L6,2021.2.3,Win32,60.0240096,,,,,,,,,,,1.139,1,,,,,,,,,,,,,,m,1,1.139,,,,,,,,0.126701571,-0.401570681,0,0,0,,0,159,159,68,1,VALLEY,HB,m,m,./images/VALLEYHB.png,,,,,,,,,,,,,,,,,,,,,,,,,,,,,,,,,,,,
,,,,,,,,,,,,,,,,,5eed592252bcc917d6b46cdf,25,2022-02-12_17h16.48.021,lexical_decision_task_DD_L6,2021.2.3,Win32,60.0240096,,,,,,,,,,,0.838,1,,,,,,,,,,,,,,z,1,0.838,,,,,,,,0.126701571,-0.401570681,0,0,0,,0,160,160,154,1,THINT,HB,z,z,./images/THINTHB.png,,,,,,,,,,,,,,,,,,,,,,,,,,,,,,,,,,,,
,,,,,,,,,,,,,,,,,5eed592252bcc917d6b46cdf,25,2022-02-12_17h16.48.021,lexical_decision_task_DD_L6,2021.2.3,Win32,60.0240096,,,,,,,,,,,0.648,1,,,,,,,,,,,,,,m,1,0.648,,,,,,,,0.126701571,-0.401570681,0,0,0,,0,161,161,55,1,ALLEY,C,m,m,./images/ALLEY.png,,,,,,,,,,,,,,,,,,,,,,,,,,,,,,,,,,,,
,,,,,,,,,,,,,,,,,5eed592252bcc917d6b46cdf,25,2022-02-12_17h16.48.021,lexical_decision_task_DD_L6,2021.2.3,Win32,60.0240096,,,,,,,,,,,0.663,1,,,,,,,,,,,,,,z,1,0.663,,,,,,,,0.126701571,-0.401570681,0,0,0,,0,162,162,102,1,DULLE,C,z,z,./images/DULLE.png,,,,,,,,,,,,,,,,,,,,,,,,,,,,,,,,,,,,
,,,,,,,,,,,,,,,,,5eed592252bcc917d6b46cdf,25,2022-02-12_17h16.48.021,lexical_decision_task_DD_L6,2021.2.3,Win32,60.0240096,,,,,,,,,,,0.538,1,,,,,,,,,,,,,,m,1,0.538,,,,,,,,0.126701571,-0.401570681,0,0,0,,0,163,163,61,1,ARTIST,C,m,m,./images/ARTIST.png,,,,,,,,,,,,,,,,,,,,,,,,,,,,,,,,,,,,
,,,,,,,,,,,,,,,,,5eed592252bcc917d6b46cdf,25,2022-02-12_17h16.48.021,lexical_decision_task_DD_L6,2021.2.3,Win32,60.0240096,,,,,,,,,,,0.694,1,,,,,,,,,,,,,,m,1,0.694,,,,,,,,0.126701571,-0.401570681,0,0,0,,0,164,164,7,1,WAGON,C,m,m,./images/WAGON.png,,,,,,,,,,,,,,,,,,,,,,,,,,,,,,,,,,,,
,,,,,,,,,,,,,,,,,5eed592252bcc917d6b46cdf,25,2022-02-12_17h16.48.021,lexical_decision_task_DD_L6,2021.2.3,Win32,60.0240096,,,,,,,,,,,0.872,1,,,,,,,,,,,,,,m,1,0.872,,,,,,,,0.126701571,-0.401570681,0,0,0,,0,165,165,63,1,BAKER,LB,m,m,./images/BAKERLB.png,,,,,,,,,,,,,,,,,,,,,,,,,,,,,,,,,,,,
,,,,,,,,,,,,,,,,,5eed592252bcc917d6b46cdf,25,2022-02-12_17h16.48.021,lexical_decision_task_DD_L6,2021.2.3,Win32,60.0240096,,,,,,,,,,,0.587,1,,,,,,,,,,,,,,m,1,0.587,,,,,,,,0.126701571,-0.401570681,0,0,0,,0,166,166,30,1,SLOPE,LB,m,m,./images/SLOPELB.png,,,,,,,,,,,,,,,,,,,,,,,,,,,,,,,,,,,,
,,,,,,,,,,,,,,,,,5eed592252bcc917d6b46cdf,25,2022-02-12_17h16.48.021,lexical_decision_task_DD_L6,2021.2.3,Win32,60.0240096,,,,,,,,,,,0.923,1,,,,,,,,,,,,,,z,1,0.923,,,,,,,,0.126701571,-0.401570681,0,0,0,,0,167,167,149,1,VEASE,LB,z,z,./images/VEASELB.png,,,,,,,,,,,,,,,,,,,,,,,,,,,,,,,,,,,,
,,,,,,,,,,,,,,,,,5eed592252bcc917d6b46cdf,25,2022-02-12_17h16.48.021,lexical_decision_task_DD_L6,2021.2.3,Win32,60.0240096,,,,,,,,,,,,,,,,,,,,,,,,,,,,,,,,,,,,,,,,,,,,,,,,How likely will it be that you will recognize the words presented very blurred on a scale of 0 (not likely) to 100 (most likely)?,,,,,,0.02617801,-0.432984293,1,0,0,jol_adv,4,9.639,0,0,0,2,1,,,,,,,,,,,,,,,,,,,,,
,,,,,,,,,,,,,,,,,5eed592252bcc917d6b46cdf,25,2022-02-12_17h16.48.021,lexical_decision_task_DD_L6,2021.2.3,Win32,60.0240096,,,,,,,,,,,,,,,,,,,,,,,,,,,,,,,,,,,,,,,,,,,,,,,,How likely will it be that you will recognize the words presented slighly blurred on a scale of 0 (not likely) to 100 (most likely)?,,,,,,,,,,,,6,2.837,0,1,1,1,1,,,,,,,,,,,,,,,,,,,,,
,,,,,,,,,,,,,,,,,5eed592252bcc917d6b46cdf,25,2022-02-12_17h16.48.021,lexical_decision_task_DD_L6,2021.2.3,Win32,60.0240096,,,,,,,,,,,,,,,,,,,,,,,,,,,,,,,,,,,,,,,,,,,,,,,,How likely will it be that you will recognize the words presented clearly on a scale of 0 (not likely) to 100 (most likely)?,,,,,,,,,,,,6,2.854,0,2,2,0,1,,,,,,,,,,,,,,,,,,,,,
,0.131937173,-0.389005236,1,0,0,instr_done_button,,,,,,1,test,"In the next phase you will be presented with the words from the the first phase. Your job is to decide whether you remember seeing the word or not. If you remember seeing the word press ""old"" or type ""m"". If you do not remember seeing the word press ""new"" or type ""z"". Please press the space bar or click on continue to begin. ",,,5eed592252bcc917d6b46cdf,25,2022-02-12_17h16.48.021,lexical_decision_task_DD_L6,2021.2.3,Win32,60.0240096,,,,,,,,,,,,,,,,,,,,,,,,,,,,,,,,,,,,,,,,,,,,,,,,,,,,,,,,,,,,,,,,,,,0,0,0,0,1,,,,,,,,,,,,,,,,
space,0.240837696,-0.269633508,0,0,0,,,,,,,1,test,"In the next phase you will be presented with the words from the the first phase. Your job is to decide whether you remember seeing the word or not. If you remember seeing the word press ""old"" or type ""m"". If you do not remember seeing the word press ""new"" or type ""z"". Please press the space bar or click on continue to begin. ",,,5eed592252bcc917d6b46cdf,25,2022-02-12_17h16.48.021,lexical_decision_task_DD_L6,2021.2.3,Win32,60.0240096,,,,,,,,,,,,,,,,,,,,,,,,,,,,,,,,,,,,,,,,,,,,,,,,,,,,,,,,,,,,,,,,,,,1,0,1,0,1,1.819,,,,,,,,,,,,,,,
,0.069109948,-0.407853403,1,0,0,instr_done_button,,,,,,1,test,"In the next phase you will be presented with the words from the the first phase. Your job is to decide whether you remember seeing the word or not. If you remember seeing the word press ""old"" or type ""m"". If you do not remember seeing the word press ""new"" or type ""z"". Please press the space bar or click on continue to begin. ",,,5eed592252bcc917d6b46cdf,25,2022-02-12_17h16.48.021,lexical_decision_task_DD_L6,2021.2.3,Win32,60.0240096,,,,,,,,,,,,,,,,,,,,,,,,,,,,,,,,,,,,,,,,,,,,,,,,,,,,,,,,,,,,,,,,,,,2,0,2,0,1,,,,,,,,,,,,,,,,
,-0.02513089,-0.383769634,1,0,0,instr_done_button,,,,,,1,test,"In the next phase you will be presented with the words from the the first phase. Your job is to decide whether you remember seeing the word or not. If you remember seeing the word press ""old"" or type ""m"". If you do not remember seeing the word press ""new"" or type ""z"". Please press the space bar or click on continue to begin. ",,,5eed592252bcc917d6b46cdf,25,2022-02-12_17h16.48.021,lexical_decision_task_DD_L6,2021.2.3,Win32,60.0240096,,,,,,,,,,,,,,,,,,,,,,,,,,,,,,,,,,,,,,,,,,,,,,,,,,,,,,,,,,,,,,,,,,,3,0,3,0,1,,,,,,,,,,,,,,,,
,-0.02513089,-0.383769634,1,0,0,instr_done_button,,,,,,1,test,"In the next phase you will be presented with the words from the the first phase. Your job is to decide whether you remember seeing the word or not. If you remember seeing the word press ""old"" or type ""m"". If you do not remember seeing the word press ""new"" or type ""z"". Please press the space bar or click on continue to begin. ",,,5eed592252bcc917d6b46cdf,25,2022-02-12_17h16.48.021,lexical_decision_task_DD_L6,2021.2.3,Win32,60.0240096,,,,,,,,,,,,,,,,,,,,,,,,,,,,,,,,,,,,,,,,,,,,,,,,,,,,,,,,,,,,,,,,,,,4,0,4,0,1,,,,,,,,,,,,,,,,
,,,,,,,,,,,,,,,,,5eed592252bcc917d6b46cdf,25,2022-02-12_17h16.48.021,lexical_decision_task_DD_L6,2021.2.3,Win32,60.0240096,,,,,,,,,,,1.279,0,,,,,,,,,,,,,,,,,,,,,,,,-0.020942408,-0.383769634,0,0,0,,,,,,,TWINS,LB,z,y,./images/TWINSLB.png,,,,,,,,,,,,,,,,,,,,,,m,0,1.279,,,,,,,,0,0,0,144,1
,,,,,,,,,,,,,,,,,5eed592252bcc917d6b46cdf,25,2022-02-12_17h16.48.021,lexical_decision_task_DD_L6,2021.2.3,Win32,60.0240096,,,,,,,,,,,1.43,1,,,,,,,,,,,,,,,,,,,,,,,,-0.020942408,-0.383769634,0,0,0,,,,,,,FLASK,LB,m,y,./images/FLASKLB.png,,,,,,,,,,,,,,,,,,,,,,m,1,1.43,,,,,,,,0,1,1,72,1
,,,,,,,,,,,,,,,,,5eed592252bcc917d6b46cdf,25,2022-02-12_17h16.48.021,lexical_decision_task_DD_L6,2021.2.3,Win32,60.0240096,,,,,,,,,,,0.899,1,,,,,,,,,,,,,,,,,,,,,,,,-0.020942408,-0.383769634,0,0,0,,,,,,,DANCER,LB,m,y,./images/DANCERLB.png,,,,,,,,,,,,,,,,,,,,,,m,1,0.899,,,,,,,,0,2,2,21,1
,,,,,,,,,,,,,,,,,5eed592252bcc917d6b46cdf,25,2022-02-12_17h16.48.021,lexical_decision_task_DD_L6,2021.2.3,Win32,60.0240096,,,,,,,,,,,0.976,1,,,,,,,,,,,,,,,,,,,,,,,,-0.020942408,-0.383769634,0,0,0,,,,,,,SQUARE,LB,z,y,./images/SQUARELB.png,,,,,,,,,,,,,,,,,,,,,,z,1,0.976,,,,,,,,0,3,3,90,1
,,,,,,,,,,,,,,,,,5eed592252bcc917d6b46cdf,25,2022-02-12_17h16.48.021,lexical_decision_task_DD_L6,2021.2.3,Win32,60.0240096,,,,,,,,,,,1.304,0,,,,,,,,,,,,,,,,,,,,,,,,-0.020942408,-0.383769634,0,0,0,,,,,,,LIZARD,HB,z,y,./images/LIZARDHB.png,,,,,,,,,,,,,,,,,,,,,,m,0,1.304,,,,,,,,0,4,4,128,1
,,,,,,,,,,,,,,,,,5eed592252bcc917d6b46cdf,25,2022-02-12_17h16.48.021,lexical_decision_task_DD_L6,2021.2.3,Win32,60.0240096,,,,,,,,,,,1.143,1,,,,,,,,,,,,,,,,,,,,,,,,-0.020942408,-0.383769634,0,0,0,,,,,,,CHAIN,LB,m,y,./images/CHAINLB.png,,,,,,,,,,,,,,,,,,,,,,m,1,1.143,,,,,,,,0,5,5,42,1
,,,,,,,,,,,,,,,,,5eed592252bcc917d6b46cdf,25,2022-02-12_17h16.48.021,lexical_decision_task_DD_L6,2021.2.3,Win32,60.0240096,,,,,,,,,,,0.881,1,,,,,,,,,,,,,,,,,,,,,,,,-0.020942408,-0.383769634,0,0,0,,,,,,,BAMBOO,HB,m,y,./images/BAMBOOHB.png,,,,,,,,,,,,,,,,,,,,,,m,1,0.881,,,,,,,,0,6,6,5,1
,,,,,,,,,,,,,,,,,5eed592252bcc917d6b46cdf,25,2022-02-12_17h16.48.021,lexical_decision_task_DD_L6,2021.2.3,Win32,60.0240096,,,,,,,,,,,0.815,0,,,,,,,,,,,,,,,,,,,,,,,,-0.020942408,-0.383769634,0,0,0,,,,,,,PEBBLE,C,m,y,./images/PEBBLE.png,,,,,,,,,,,,,,,,,,,,,,z,0,0.815,,,,,,,,0,7,7,82,1
,,,,,,,,,,,,,,,,,5eed592252bcc917d6b46cdf,25,2022-02-12_17h16.48.021,lexical_decision_task_DD_L6,2021.2.3,Win32,60.0240096,,,,,,,,,,,1.049,1,,,,,,,,,,,,,,,,,,,,,,,,-0.020942408,-0.383769634,0,0,0,,,,,,,BISHOP,C,m,y,./images/BISHOP.png,,,,,,,,,,,,,,,,,,,,,,m,1,1.049,,,,,,,,0,8,8,49,1
,,,,,,,,,,,,,,,,,5eed592252bcc917d6b46cdf,25,2022-02-12_17h16.48.021,lexical_decision_task_DD_L6,2021.2.3,Win32,60.0240096,,,,,,,,,,,0.889,1,,,,,,,,,,,,,,,,,,,,,,,,-0.020942408,-0.383769634,0,0,0,,,,,,,BANANA,C,m,y,./images/BANANA.png,,,,,,,,,,,,,,,,,,,,,,m,1,0.889,,,,,,,,0,9,9,70,1
,,,,,,,,,,,,,,,,,5eed592252bcc917d6b46cdf,25,2022-02-12_17h16.48.021,lexical_decision_task_DD_L6,2021.2.3,Win32,60.0240096,,,,,,,,,,,0.667,1,,,,,,,,,,,,,,,,,,,,,,,,-0.020942408,-0.383769634,0,0,0,,,,,,,BOILER,LB,m,y,./images/BOILERLB.png,,,,,,,,,,,,,,,,,,,,,,m,1,0.667,,,,,,,,0,10,10,36,1
,,,,,,,,,,,,,,,,,5eed592252bcc917d6b46cdf,25,2022-02-12_17h16.48.021,lexical_decision_task_DD_L6,2021.2.3,Win32,60.0240096,,,,,,,,,,,0.851,1,,,,,,,,,,,,,,,,,,,,,,,,-0.020942408,-0.383769634,0,0,0,,,,,,,GREASE,LB,z,y,./images/GREASELB.png,,,,,,,,,,,,,,,,,,,,,,z,1,0.851,,,,,,,,0,11,11,99,1
,,,,,,,,,,,,,,,,,5eed592252bcc917d6b46cdf,25,2022-02-12_17h16.48.021,lexical_decision_task_DD_L6,2021.2.3,Win32,60.0240096,,,,,,,,,,,1.271,1,,,,,,,,,,,,,,,,,,,,,,,,-0.020942408,-0.383769634,0,0,0,,,,,,,MOSQUE,C,z,y,./images/MOSQUE.png,,,,,,,,,,,,,,,,,,,,,,z,1,1.271,,,,,,,,0,12,12,127,1
,,,,,,,,,,,,,,,,,5eed592252bcc917d6b46cdf,25,2022-02-12_17h16.48.021,lexical_decision_task_DD_L6,2021.2.3,Win32,60.0240096,,,,,,,,,,,0.634,1,,,,,,,,,,,,,,,,,,,,,,,,-0.020942408,-0.383769634,0,0,0,,,,,,,BAKER,LB,m,y,./images/BAKERLB.png,,,,,,,,,,,,,,,,,,,,,,m,1,0.634,,,,,,,,0,13,13,63,1
,,,,,,,,,,,,,,,,,5eed592252bcc917d6b46cdf,25,2022-02-12_17h16.48.021,lexical_decision_task_DD_L6,2021.2.3,Win32,60.0240096,,,,,,,,,,,0.751,0,,,,,,,,,,,,,,,,,,,,,,,,-0.020942408,-0.383769634,0,0,0,,,,,,,TULIP,HB,z,y,./images/TULIPHB.png,,,,,,,,,,,,,,,,,,,,,,m,0,0.751,,,,,,,,0,14,14,92,1
,,,,,,,,,,,,,,,,,5eed592252bcc917d6b46cdf,25,2022-02-12_17h16.48.021,lexical_decision_task_DD_L6,2021.2.3,Win32,60.0240096,,,,,,,,,,,1.15,1,,,,,,,,,,,,,,,,,,,,,,,,-0.020942408,-0.383769634,0,0,0,,,,,,,NOOSE,LB,z,y,./images/NOOSELB.png,,,,,,,,,,,,,,,,,,,,,,z,1,1.15,,,,,,,,0,15,15,156,1
,,,,,,,,,,,,,,,,,5eed592252bcc917d6b46cdf,25,2022-02-12_17h16.48.021,lexical_decision_task_DD_L6,2021.2.3,Win32,60.0240096,,,,,,,,,,,1.017,1,,,,,,,,,,,,,,,,,,,,,,,,-0.020942408,-0.383769634,0,0,0,,,,,,,JAGUAR,LB,z,y,./images/JAGUARLB.png,,,,,,,,,,,,,,,,,,,,,,z,1,1.017,,,,,,,,0,16,16,102,1
,,,,,,,,,,,,,,,,,5eed592252bcc917d6b46cdf,25,2022-02-12_17h16.48.021,lexical_decision_task_DD_L6,2021.2.3,Win32,60.0240096,,,,,,,,,,,0.665,0,,,,,,,,,,,,,,,,,,,,,,,,-0.020942408,-0.383769634,0,0,0,,,,,,,TOMATO,LB,z,y,./images/TOMATOLB.png,,,,,,,,,,,,,,,,,,,,,,m,0,0.665,,,,,,,,0,17,17,84,1
,,,,,,,,,,,,,,,,,5eed592252bcc917d6b46cdf,25,2022-02-12_17h16.48.021,lexical_decision_task_DD_L6,2021.2.3,Win32,60.0240096,,,,,,,,,,,0.189,1,,,,,,,,,,,,,,,,,,,,,,,,-0.020942408,-0.383769634,0,0,0,,,,,,,SMOKER,HB,z,y,./images/SMOKERHB.png,,,,,,,,,,,,,,,,,,,,,,z,1,0.189,,,,,,,,0,18,18,110,1
,,,,,,,,,,,,,,,,,5eed592252bcc917d6b46cdf,25,2022-02-12_17h16.48.021,lexical_decision_task_DD_L6,2021.2.3,Win32,60.0240096,,,,,,,,,,,0.336,1,,,,,,,,,,,,,,,,,,,,,,,,-0.020942408,-0.383769634,0,0,0,,,,,,,LAGOON,HB,m,y,./images/LAGOONHB.png,,,,,,,,,,,,,,,,,,,,,,m,1,0.336,,,,,,,,0,19,19,47,1
,,,,,,,,,,,,,,,,,5eed592252bcc917d6b46cdf,25,2022-02-12_17h16.48.021,lexical_decision_task_DD_L6,2021.2.3,Win32,60.0240096,,,,,,,,,,,0.247,1,,,,,,,,,,,,,,,,,,,,,,,,-0.020942408,-0.383769634,0,0,0,,,,,,,STAIN,LB,m,y,./images/STAINLB.png,,,,,,,,,,,,,,,,,,,,,,m,1,0.247,,,,,,,,0,20,20,6,1
,,,,,,,,,,,,,,,,,5eed592252bcc917d6b46cdf,25,2022-02-12_17h16.48.021,lexical_decision_task_DD_L6,2021.2.3,Win32,60.0240096,,,,,,,,,,,0.509,0,,,,,,,,,,,,,,,,,,,,,,,,-0.020942408,-0.383769634,0,0,0,,,,,,,BUNNY,C,m,y,./images/BUNNY.png,,,,,,,,,,,,,,,,,,,,,,z,0,0.509,,,,,,,,0,21,21,13,1
,,,,,,,,,,,,,,,,,5eed592252bcc917d6b46cdf,25,2022-02-12_17h16.48.021,lexical_decision_task_DD_L6,2021.2.3,Win32,60.0240096,,,,,,,,,,,1.221,1,,,,,,,,,,,,,,,,,,,,,,,,-0.020942408,-0.383769634,0,0,0,,,,,,,CANYON,C,z,y,./images/CANYON.png,,,,,,,,,,,,,,,,,,,,,,z,1,1.221,,,,,,,,0,22,22,118,1
,,,,,,,,,,,,,,,,,5eed592252bcc917d6b46cdf,25,2022-02-12_17h16.48.021,lexical_decision_task_DD_L6,2021.2.3,Win32,60.0240096,,,,,,,,,,,0.289,1,,,,,,,,,,,,,,,,,,,,,,,,-0.020942408,-0.383769634,0,0,0,,,,,,,STOVE,HB,m,y,./images/STOVEHB.png,,,,,,,,,,,,,,,,,,,,,,m,1,0.289,,,,,,,,0,23,23,2,1
,,,,,,,,,,,,,,,,,5eed592252bcc917d6b46cdf,25,2022-02-12_17h16.48.021,lexical_decision_task_DD_L6,2021.2.3,Win32,60.0240096,,,,,,,,,,,0.419,1,,,,,,,,,,,,,,,,,,,,,,,,-0.020942408,-0.383769634,0,0,0,,,,,,,CLOUD,HB,m,y,./images/CLOUDHB.png,,,,,,,,,,,,,,,,,,,,,,m,1,0.419,,,,,,,,0,24,24,26,1
,,,,,,,,,,,,,,,,,5eed592252bcc917d6b46cdf,25,2022-02-12_17h16.48.021,lexical_decision_task_DD_L6,2021.2.3,Win32,60.0240096,,,,,,,,,,,0.434,0,,,,,,,,,,,,,,,,,,,,,,,,-0.020942408,-0.383769634,0,0,0,,,,,,,CRUST,C,z,y,./images/CRUST.png,,,,,,,,,,,,,,,,,,,,,,m,0,0.434,,,,,,,,0,25,25,163,1
,,,,,,,,,,,,,,,,,5eed592252bcc917d6b46cdf,25,2022-02-12_17h16.48.021,lexical_decision_task_DD_L6,2021.2.3,Win32,60.0240096,,,,,,,,,,,0.434,0,,,,,,,,,,,,,,,,,,,,,,,,-0.020942408,-0.383769634,0,0,0,,,,,,,SUNSET,C,z,y,./images/SUNSET.png,,,,,,,,,,,,,,,,,,,,,,m,0,0.434,,,,,,,,0,26,26,166,1
,,,,,,,,,,,,,,,,,5eed592252bcc917d6b46cdf,25,2022-02-12_17h16.48.021,lexical_decision_task_DD_L6,2021.2.3,Win32,60.0240096,,,,,,,,,,,0.189,0,,,,,,,,,,,,,,,,,,,,,,,,-0.020942408,-0.383769634,0,0,0,,,,,,,GRANNY,HB,m,y,./images/GRANNYHB.png,,,,,,,,,,,,,,,,,,,,,,z,0,0.189,,,,,,,,0,27,27,20,1
,,,,,,,,,,,,,,,,,5eed592252bcc917d6b46cdf,25,2022-02-12_17h16.48.021,lexical_decision_task_DD_L6,2021.2.3,Win32,60.0240096,,,,,,,,,,,0.276,1,,,,,,,,,,,,,,,,,,,,,,,,-0.020942408,-0.383769634,0,0,0,,,,,,,FERRY,LB,m,y,./images/FERRYLB.png,,,,,,,,,,,,,,,,,,,,,,m,1,0.276,,,,,,,,0,28,28,57,1
,,,,,,,,,,,,,,,,,5eed592252bcc917d6b46cdf,25,2022-02-12_17h16.48.021,lexical_decision_task_DD_L6,2021.2.3,Win32,60.0240096,,,,,,,,,,,0.083,0,,,,,,,,,,,,,,,,,,,,,,,,-0.020942408,-0.383769634,0,0,0,,,,,,,LADDER,HB,z,y,./images/LADDERHB.png,,,,,,,,,,,,,,,,,,,,,,m,0,0.083,,,,,,,,0,29,29,122,1
,,,,,,,,,,,,,,,,,5eed592252bcc917d6b46cdf,25,2022-02-12_17h16.48.021,lexical_decision_task_DD_L6,2021.2.3,Win32,60.0240096,,,,,,,,,,,0.79,1,,,,,,,,,,,,,,,,,,,,,,,,-0.020942408,-0.383769634,0,0,0,,,,,,,PARCEL,LB,m,y,./images/PARCELLB.png,,,,,,,,,,,,,,,,,,,,,,m,1,0.79,,,,,,,,0,30,30,18,1
,,,,,,,,,,,,,,,,,5eed592252bcc917d6b46cdf,25,2022-02-12_17h16.48.021,lexical_decision_task_DD_L6,2021.2.3,Win32,60.0240096,,,,,,,,,,,0.603,1,,,,,,,,,,,,,,,,,,,,,,,,-0.020942408,-0.383769634,0,0,0,,,,,,,POODLE,LB,z,y,./images/POODLELB.png,,,,,,,,,,,,,,,,,,,,,,z,1,0.603,,,,,,,,0,31,31,165,1
,,,,,,,,,,,,,,,,,5eed592252bcc917d6b46cdf,25,2022-02-12_17h16.48.021,lexical_decision_task_DD_L6,2021.2.3,Win32,60.0240096,,,,,,,,,,,0.239,0,,,,,,,,,,,,,,,,,,,,,,,,-0.020942408,-0.383769634,0,0,0,,,,,,,COUCH,HB,z,y,./images/COUCHHB.png,,,,,,,,,,,,,,,,,,,,,,m,0,0.239,,,,,,,,0,32,32,161,1
,,,,,,,,,,,,,,,,,5eed592252bcc917d6b46cdf,25,2022-02-12_17h16.48.021,lexical_decision_task_DD_L6,2021.2.3,Win32,60.0240096,,,,,,,,,,,0.277,0,,,,,,,,,,,,,,,,,,,,,,,,-0.020942408,-0.383769634,0,0,0,,,,,,,MAMMAL,HB,m,y,./images/MAMMALHB.png,,,,,,,,,,,,,,,,,,,,,,z,0,0.277,,,,,,,,0,33,33,62,1
,,,,,,,,,,,,,,,,,5eed592252bcc917d6b46cdf,25,2022-02-12_17h16.48.021,lexical_decision_task_DD_L6,2021.2.3,Win32,60.0240096,,,,,,,,,,,0.751,0,,,,,,,,,,,,,,,,,,,,,,,,-0.020942408,-0.383769634,0,0,0,,,,,,,SHELF,LB,z,y,./images/SHELFLB.png,,,,,,,,,,,,,,,,,,,,,,m,0,0.751,,,,,,,,0,34,34,123,1
,,,,,,,,,,,,,,,,,5eed592252bcc917d6b46cdf,25,2022-02-12_17h16.48.021,lexical_decision_task_DD_L6,2021.2.3,Win32,60.0240096,,,,,,,,,,,0.082,0,,,,,,,,,,,,,,,,,,,,,,,,-0.020942408,-0.383769634,0,0,0,,,,,,,FLESH,LB,m,y,./images/FLESHLB.png,,,,,,,,,,,,,,,,,,,,,,z,0,0.082,,,,,,,,0,35,35,24,1
,,,,,,,,,,,,,,,,,5eed592252bcc917d6b46cdf,25,2022-02-12_17h16.48.021,lexical_decision_task_DD_L6,2021.2.3,Win32,60.0240096,,,,,,,,,,,0.948,1,,,,,,,,,,,,,,,,,,,,,,,,-0.020942408,-0.383769634,0,0,0,,,,,,,WEASEL,HB,z,y,./images/WEASELHB.png,,,,,,,,,,,,,,,,,,,,,,z,1,0.948,,,,,,,,0,36,36,164,1
,,,,,,,,,,,,,,,,,5eed592252bcc917d6b46cdf,25,2022-02-12_17h16.48.021,lexical_decision_task_DD_L6,2021.2.3,Win32,60.0240096,,,,,,,,,,,0.356,1,,,,,,,,,,,,,,,,,,,,,,,,-0.020942408,-0.383769634,0,0,0,,,,,,,COLLAR,LB,m,y,./images/COLLARLB.png,,,,,,,,,,,,,,,,,,,,,,m,1,0.356,,,,,,,,0,37,37,15,1
,,,,,,,,,,,,,,,,,5eed592252bcc917d6b46cdf,25,2022-02-12_17h16.48.021,lexical_decision_task_DD_L6,2021.2.3,Win32,60.0240096,,,,,,,,,,,0.755,1,,,,,,,,,,,,,,,,,,,,,,,,-0.020942408,-0.383769634,0,0,0,,,,,,,MEDAL,HB,m,y,./images/MEDALHB.png,,,,,,,,,,,,,,,,,,,,,,m,1,0.755,,,,,,,,0,38,38,11,1
,,,,,,,,,,,,,,,,,5eed592252bcc917d6b46cdf,25,2022-02-12_17h16.48.021,lexical_decision_task_DD_L6,2021.2.3,Win32,60.0240096,,,,,,,,,,,0.616,1,,,,,,,,,,,,,,,,,,,,,,,,-0.020942408,-0.383769634,0,0,0,,,,,,,STREAM,HB,m,y,./images/STREAMHB.png,,,,,,,,,,,,,,,,,,,,,,m,1,0.616,,,,,,,,0,39,39,41,1
,,,,,,,,,,,,,,,,,5eed592252bcc917d6b46cdf,25,2022-02-12_17h16.48.021,lexical_decision_task_DD_L6,2021.2.3,Win32,60.0240096,,,,,,,,,,,0.201,1,,,,,,,,,,,,,,,,,,,,,,,,-0.020942408,-0.383769634,0,0,0,,,,,,,SPORT,LB,z,y,./images/SPORTLB.png,,,,,,,,,,,,,,,,,,,,,,z,1,0.201,,,,,,,,0,40,40,132,1
,,,,,,,,,,,,,,,,,5eed592252bcc917d6b46cdf,25,2022-02-12_17h16.48.021,lexical_decision_task_DD_L6,2021.2.3,Win32,60.0240096,,,,,,,,,,,0.132,1,,,,,,,,,,,,,,,,,,,,,,,,0.048167539,-0.39947644,1,0,0,,,,,,,SAUNA,LB,m,y,./images/SAUNALB.png,break_done_button,,,,,,,,,,,,,,,,,,,,,m,1,0.132,,,,,,,,0,41,41,33,1
,,,,,,,,,,,,,,,,,5eed592252bcc917d6b46cdf,25,2022-02-12_17h16.48.021,lexical_decision_task_DD_L6,2021.2.3,Win32,60.0240096,,,,,,,,,,,0.751,1,,,,,,,,,,,,,,,,,,,,,,,,0.048167539,-0.39947644,0,0,0,,,,,,,MOOSE,LB,z,y,./images/MOOSELB.png,,,,,,,,,,,,,,,,,,,,,,z,1,0.751,,,,,,,,0,42,42,141,1
,,,,,,,,,,,,,,,,,5eed592252bcc917d6b46cdf,25,2022-02-12_17h16.48.021,lexical_decision_task_DD_L6,2021.2.3,Win32,60.0240096,,,,,,,,,,,0.207,1,,,,,,,,,,,,,,,,,,,,,,,,0.048167539,-0.39947644,0,0,0,,,,,,,STORM,LB,z,y,./images/STORMLB.png,,,,,,,,,,,,,,,,,,,,,,z,1,0.207,,,,,,,,0,43,43,114,1
,,,,,,,,,,,,,,,,,5eed592252bcc917d6b46cdf,25,2022-02-12_17h16.48.021,lexical_decision_task_DD_L6,2021.2.3,Win32,60.0240096,,,,,,,,,,,0.225,1,,,,,,,,,,,,,,,,,,,,,,,,0.048167539,-0.39947644,0,0,0,,,,,,,DOUGH,C,z,y,./images/DOUGH.png,,,,,,,,,,,,,,,,,,,,,,z,1,0.225,,,,,,,,0,44,44,103,1
,,,,,,,,,,,,,,,,,5eed592252bcc917d6b46cdf,25,2022-02-12_17h16.48.021,lexical_decision_task_DD_L6,2021.2.3,Win32,60.0240096,,,,,,,,,,,0.301,0,,,,,,,,,,,,,,,,,,,,,,,,0.048167539,-0.39947644,0,0,0,,,,,,,GLOVE,C,m,y,./images/GLOVE.png,,,,,,,,,,,,,,,,,,,,,,z,0,0.301,,,,,,,,0,45,45,73,1
,,,,,,,,,,,,,,,,,5eed592252bcc917d6b46cdf,25,2022-02-12_17h16.48.021,lexical_decision_task_DD_L6,2021.2.3,Win32,60.0240096,,,,,,,,,,,0.767,0,,,,,,,,,,,,,,,,,,,,,,,,0.048167539,-0.39947644,0,0,0,,,,,,,PACKET,HB,z,y,./images/PACKETHB.png,,,,,,,,,,,,,,,,,,,,,,m,0,0.767,,,,,,,,0,46,46,140,1
,,,,,,,,,,,,,,,,,5eed592252bcc917d6b46cdf,25,2022-02-12_17h16.48.021,lexical_decision_task_DD_L6,2021.2.3,Win32,60.0240096,,,,,,,,,,,0.834,1,,,,,,,,,,,,,,,,,,,,,,,,0.048167539,-0.39947644,0,0,0,,,,,,,MONKEY,LB,m,y,./images/MONKEYLB.png,,,,,,,,,,,,,,,,,,,,,,m,1,0.834,,,,,,,,0,47,47,45,1
,,,,,,,,,,,,,,,,,5eed592252bcc917d6b46cdf,25,2022-02-12_17h16.48.021,lexical_decision_task_DD_L6,2021.2.3,Win32,60.0240096,,,,,,,,,,,0.221,1,,,,,,,,,,,,,,,,,,,,,,,,0.048167539,-0.39947644,0,0,0,,,,,,,PARADE,HB,m,y,./images/PARADEHB.png,,,,,,,,,,,,,,,,,,,,,,m,1,0.221,,,,,,,,0,48,48,17,1
,,,,,,,,,,,,,,,,,5eed592252bcc917d6b46cdf,25,2022-02-12_17h16.48.021,lexical_decision_task_DD_L6,2021.2.3,Win32,60.0240096,,,,,,,,,,,0.134,1,,,,,,,,,,,,,,,,,,,,,,,,0.048167539,-0.39947644,0,0,0,,,,,,,WHISKY,HB,m,y,./images/WHISKYHB.png,,,,,,,,,,,,,,,,,,,,,,m,1,0.134,,,,,,,,0,49,49,83,1
,,,,,,,,,,,,,,,,,5eed592252bcc917d6b46cdf,25,2022-02-12_17h16.48.021,lexical_decision_task_DD_L6,2021.2.3,Win32,60.0240096,,,,,,,,,,,0.385,1,,,,,,,,,,,,,,,,,,,,,,,,0.048167539,-0.39947644,0,0,0,,,,,,,CHALK,C,m,y,./images/CHALK.png,,,,,,,,,,,,,,,,,,,,,,m,1,0.385,,,,,,,,0,50,50,25,1
,,,,,,,,,,,,,,,,,5eed592252bcc917d6b46cdf,25,2022-02-12_17h16.48.021,lexical_decision_task_DD_L6,2021.2.3,Win32,60.0240096,,,,,,,,,,,0.682,1,,,,,,,,,,,,,,,,,,,,,,,,0.048167539,-0.39947644,0,0,0,,,,,,,SHORE,LB,z,y,./images/SHORELB.png,,,,,,,,,,,,,,,,,,,,,,z,1,0.682,,,,,,,,0,51,51,96,1
,,,,,,,,,,,,,,,,,5eed592252bcc917d6b46cdf,25,2022-02-12_17h16.48.021,lexical_decision_task_DD_L6,2021.2.3,Win32,60.0240096,,,,,,,,,,,0.068,0,,,,,,,,,,,,,,,,,,,,,,,,0.048167539,-0.39947644,0,0,0,,,,,,,MUFFIN,C,z,y,./images/MUFFIN.png,,,,,,,,,,,,,,,,,,,,,,m,0,0.068,,,,,,,,0,52,52,139,1
,,,,,,,,,,,,,,,,,5eed592252bcc917d6b46cdf,25,2022-02-12_17h16.48.021,lexical_decision_task_DD_L6,2021.2.3,Win32,60.0240096,,,,,,,,,,,0.19,0,,,,,,,,,,,,,,,,,,,,,,,,0.048167539,-0.39947644,0,0,0,,,,,,,CASINO,C,m,y,./images/CASINO.png,,,,,,,,,,,,,,,,,,,,,,z,0,0.19,,,,,,,,0,53,53,28,1
,,,,,,,,,,,,,,,,,5eed592252bcc917d6b46cdf,25,2022-02-12_17h16.48.021,lexical_decision_task_DD_L6,2021.2.3,Win32,60.0240096,,,,,,,,,,,0.368,1,,,,,,,,,,,,,,,,,,,,,,,,0.048167539,-0.39947644,0,0,0,,,,,,,PLANET,HB,m,y,./images/PLANETHB.png,,,,,,,,,,,,,,,,,,,,,,m,1,0.368,,,,,,,,0,54,54,80,1
,,,,,,,,,,,,,,,,,5eed592252bcc917d6b46cdf,25,2022-02-12_17h16.48.021,lexical_decision_task_DD_L6,2021.2.3,Win32,60.0240096,,,,,,,,,,,0.373,1,,,,,,,,,,,,,,,,,,,,,,,,0.048167539,-0.39947644,0,0,0,,,,,,,LLAMA,HB,m,y,./images/LLAMAHB.png,,,,,,,,,,,,,,,,,,,,,,m,1,0.373,,,,,,,,0,55,55,35,1
,,,,,,,,,,,,,,,,,5eed592252bcc917d6b46cdf,25,2022-02-12_17h16.48.021,lexical_decision_task_DD_L6,2021.2.3,Win32,60.0240096,,,,,,,,,,,0.464,0,,,,,,,,,,,,,,,,,,,,,,,,0.048167539,-0.39947644,0,0,0,,,,,,,BELLY,C,z,y,./images/BELLY.png,,,,,,,,,,,,,,,,,,,,,,m,0,0.464,,,,,,,,0,56,56,94,1
,,,,,,,,,,,,,,,,,5eed592252bcc917d6b46cdf,25,2022-02-12_17h16.48.021,lexical_decision_task_DD_L6,2021.2.3,Win32,60.0240096,,,,,,,,,,,0.5,1,,,,,,,,,,,,,,,,,,,,,,,,0.048167539,-0.39947644,0,0,0,,,,,,,STRING,HB,z,y,./images/STRINGHB.png,,,,,,,,,,,,,,,,,,,,,,z,1,0.5,,,,,,,,0,57,57,125,1
,,,,,,,,,,,,,,,,,5eed592252bcc917d6b46cdf,25,2022-02-12_17h16.48.021,lexical_decision_task_DD_L6,2021.2.3,Win32,60.0240096,,,,,,,,,,,1.09,1,,,,,,,,,,,,,,,,,,,,,,,,0.048167539,-0.39947644,0,0,0,,,,,,,DONKEY,C,m,y,./images/DONKEY.png,,,,,,,,,,,,,,,,,,,,,,m,1,1.09,,,,,,,,0,58,58,19,1
,,,,,,,,,,,,,,,,,5eed592252bcc917d6b46cdf,25,2022-02-12_17h16.48.021,lexical_decision_task_DD_L6,2021.2.3,Win32,60.0240096,,,,,,,,,,,0.432,0,,,,,,,,,,,,,,,,,,,,,,,,0.048167539,-0.39947644,0,0,0,,,,,,,PICKLE,HB,z,y,./images/PICKLEHB.png,,,,,,,,,,,,,,,,,,,,,,m,0,0.432,,,,,,,,0,59,59,98,1
,,,,,,,,,,,,,,,,,5eed592252bcc917d6b46cdf,25,2022-02-12_17h16.48.021,lexical_decision_task_DD_L6,2021.2.3,Win32,60.0240096,,,,,,,,,,,0.582,1,,,,,,,,,,,,,,,,,,,,,,,,0.048167539,-0.39947644,0,0,0,,,,,,,TOWEL,C,m,y,./images/TOWEL.png,,,,,,,,,,,,,,,,,,,,,,m,1,0.582,,,,,,,,0,60,60,1,1
,,,,,,,,,,,,,,,,,5eed592252bcc917d6b46cdf,25,2022-02-12_17h16.48.021,lexical_decision_task_DD_L6,2021.2.3,Win32,60.0240096,,,,,,,,,,,0.6,1,,,,,,,,,,,,,,,,,,,,,,,,0.048167539,-0.39947644,0,0,0,,,,,,,QUILL,C,z,y,./images/QUILL.png,,,,,,,,,,,,,,,,,,,,,,z,1,0.6,,,,,,,,0,61,61,115,1
,,,,,,,,,,,,,,,,,5eed592252bcc917d6b46cdf,25,2022-02-12_17h16.48.021,lexical_decision_task_DD_L6,2021.2.3,Win32,60.0240096,,,,,,,,,,,0.552,0,,,,,,,,,,,,,,,,,,,,,,,,0.048167539,-0.39947644,0,0,0,,,,,,,FALCON,C,z,y,./images/FALCON.png,,,,,,,,,,,,,,,,,,,,,,m,0,0.552,,,,,,,,0,62,62,112,1
,,,,,,,,,,,,,,,,,5eed592252bcc917d6b46cdf,25,2022-02-12_17h16.48.021,lexical_decision_task_DD_L6,2021.2.3,Win32,60.0240096,,,,,,,,,,,0.416,1,,,,,,,,,,,,,,,,,,,,,,,,0.048167539,-0.39947644,0,0,0,,,,,,,CANOE,C,m,y,./images/CANOE.png,,,,,,,,,,,,,,,,,,,,,,m,1,0.416,,,,,,,,0,63,63,58,1
,,,,,,,,,,,,,,,,,5eed592252bcc917d6b46cdf,25,2022-02-12_17h16.48.021,lexical_decision_task_DD_L6,2021.2.3,Win32,60.0240096,,,,,,,,,,,0.475,1,,,,,,,,,,,,,,,,,,,,,,,,0.048167539,-0.39947644,0,0,0,,,,,,,RULER,C,m,y,./images/RULER.png,,,,,,,,,,,,,,,,,,,,,,m,1,0.475,,,,,,,,0,64,64,79,1
,,,,,,,,,,,,,,,,,5eed592252bcc917d6b46cdf,25,2022-02-12_17h16.48.021,lexical_decision_task_DD_L6,2021.2.3,Win32,60.0240096,,,,,,,,,,,0.374,1,,,,,,,,,,,,,,,,,,,,,,,,0.048167539,-0.39947644,0,0,0,,,,,,,CLOTH,HB,m,y,./images/CLOTHHB.png,,,,,,,,,,,,,,,,,,,,,,m,1,0.374,,,,,,,,0,65,65,23,1
,,,,,,,,,,,,,,,,,5eed592252bcc917d6b46cdf,25,2022-02-12_17h16.48.021,lexical_decision_task_DD_L6,2021.2.3,Win32,60.0240096,,,,,,,,,,,0.793,0,,,,,,,,,,,,,,,,,,,,,,,,0.048167539,-0.39947644,0,0,0,,,,,,,SWEAT,LB,z,y,./images/SWEATLB.png,,,,,,,,,,,,,,,,,,,,,,m,0,0.793,,,,,,,,0,66,66,150,1
,,,,,,,,,,,,,,,,,5eed592252bcc917d6b46cdf,25,2022-02-12_17h16.48.021,lexical_decision_task_DD_L6,2021.2.3,Win32,60.0240096,,,,,,,,,,,0.625,0,,,,,,,,,,,,,,,,,,,,,,,,0.048167539,-0.39947644,0,0,0,,,,,,,GRAIN,LB,z,y,./images/GRAINLB.png,,,,,,,,,,,,,,,,,,,,,,m,0,0.625,,,,,,,,0,67,67,159,1
,,,,,,,,,,,,,,,,,5eed592252bcc917d6b46cdf,25,2022-02-12_17h16.48.021,lexical_decision_task_DD_L6,2021.2.3,Win32,60.0240096,,,,,,,,,,,1.101,1,,,,,,,,,,,,,,,,,,,,,,,,0.048167539,-0.39947644,0,0,0,,,,,,,BOXER,C,m,y,./images/BOXER.png,,,,,,,,,,,,,,,,,,,,,,m,1,1.101,,,,,,,,0,68,68,4,1
,,,,,,,,,,,,,,,,,5eed592252bcc917d6b46cdf,25,2022-02-12_17h16.48.021,lexical_decision_task_DD_L6,2021.2.3,Win32,60.0240096,,,,,,,,,,,0.591,0,,,,,,,,,,,,,,,,,,,,,,,,0.048167539,-0.39947644,0,0,0,,,,,,,BURIAL,HB,z,y,./images/BURIALHB.png,,,,,,,,,,,,,,,,,,,,,,m,0,0.591,,,,,,,,0,69,69,143,1
,,,,,,,,,,,,,,,,,5eed592252bcc917d6b46cdf,25,2022-02-12_17h16.48.021,lexical_decision_task_DD_L6,2021.2.3,Win32,60.0240096,,,,,,,,,,,1.068,1,,,,,,,,,,,,,,,,,,,,,,,,0.048167539,-0.39947644,0,0,0,,,,,,,HEATER,HB,m,y,./images/HEATERHB.png,,,,,,,,,,,,,,,,,,,,,,m,1,1.068,,,,,,,,0,70,70,56,1
,,,,,,,,,,,,,,,,,5eed592252bcc917d6b46cdf,25,2022-02-12_17h16.48.021,lexical_decision_task_DD_L6,2021.2.3,Win32,60.0240096,,,,,,,,,,,0.668,1,,,,,,,,,,,,,,,,,,,,,,,,0.048167539,-0.39947644,0,0,0,,,,,,,MUMMY,C,m,y,./images/MUMMY.png,,,,,,,,,,,,,,,,,,,,,,m,1,0.668,,,,,,,,0,71,71,46,1
,,,,,,,,,,,,,,,,,5eed592252bcc917d6b46cdf,25,2022-02-12_17h16.48.021,lexical_decision_task_DD_L6,2021.2.3,Win32,60.0240096,,,,,,,,,,,0.731,1,,,,,,,,,,,,,,,,,,,,,,,,0.048167539,-0.39947644,0,0,0,,,,,,,SLOPE,LB,m,y,./images/SLOPELB.png,,,,,,,,,,,,,,,,,,,,,,m,1,0.731,,,,,,,,0,72,72,30,1
,,,,,,,,,,,,,,,,,5eed592252bcc917d6b46cdf,25,2022-02-12_17h16.48.021,lexical_decision_task_DD_L6,2021.2.3,Win32,60.0240096,,,,,,,,,,,0.232,1,,,,,,,,,,,,,,,,,,,,,,,,0.048167539,-0.39947644,0,0,0,,,,,,,WALRUS,HB,z,y,./images/WALRUSHB.png,,,,,,,,,,,,,,,,,,,,,,z,1,0.232,,,,,,,,0,73,73,107,1
,,,,,,,,,,,,,,,,,5eed592252bcc917d6b46cdf,25,2022-02-12_17h16.48.021,lexical_decision_task_DD_L6,2021.2.3,Win32,60.0240096,,,,,,,,,,,0.002,1,,,,,,,,,,,,,,,,,,,,,,,,0.048167539,-0.39947644,0,0,0,,,,,,,ARTIST,C,m,y,./images/ARTIST.png,,,,,,,,,,,,,,,,,,,,,,m,1,0.002,,,,,,,,0,74,74,61,1
,,,,,,,,,,,,,,,,,5eed592252bcc917d6b46cdf,25,2022-02-12_17h16.48.021,lexical_decision_task_DD_L6,2021.2.3,Win32,60.0240096,,,,,,,,,,,0.749,0,,,,,,,,,,,,,,,,,,,,,,,,0.048167539,-0.39947644,0,0,0,,,,,,,PEACH,HB,z,y,./images/PEACHHB.png,,,,,,,,,,,,,,,,,,,,,,m,0,0.749,,,,,,,,0,75,75,119,1
,,,,,,,,,,,,,,,,,5eed592252bcc917d6b46cdf,25,2022-02-12_17h16.48.021,lexical_decision_task_DD_L6,2021.2.3,Win32,60.0240096,,,,,,,,,,,0.684,0,,,,,,,,,,,,,,,,,,,,,,,,0.048167539,-0.39947644,0,0,0,,,,,,,SPINE,HB,m,y,./images/SPINEHB.png,,,,,,,,,,,,,,,,,,,,,,z,0,0.684,,,,,,,,0,76,76,65,1
,,,,,,,,,,,,,,,,,5eed592252bcc917d6b46cdf,25,2022-02-12_17h16.48.021,lexical_decision_task_DD_L6,2021.2.3,Win32,60.0240096,,,,,,,,,,,0.169,1,,,,,,,,,,,,,,,,,,,,,,,,0.048167539,-0.39947644,0,0,0,,,,,,,TIGER,C,m,y,./images/TIGER.png,,,,,,,,,,,,,,,,,,,,,,m,1,0.169,,,,,,,,0,77,77,37,1
,,,,,,,,,,,,,,,,,5eed592252bcc917d6b46cdf,25,2022-02-12_17h16.48.021,lexical_decision_task_DD_L6,2021.2.3,Win32,60.0240096,,,,,,,,,,,0.084,0,,,,,,,,,,,,,,,,,,,,,,,,0.048167539,-0.39947644,0,0,0,,,,,,,HOCKEY,HB,m,y,./images/HOCKEYHB.png,,,,,,,,,,,,,,,,,,,,,,z,0,0.084,,,,,,,,0,78,78,32,1
,,,,,,,,,,,,,,,,,5eed592252bcc917d6b46cdf,25,2022-02-12_17h16.48.021,lexical_decision_task_DD_L6,2021.2.3,Win32,60.0240096,,,,,,,,,,,0.217,1,,,,,,,,,,,,,,,,,,,,,,,,0.048167539,-0.39947644,0,0,0,,,,,,,CHERRY,LB,m,y,./images/CHERRYLB.png,,,,,,,,,,,,,,,,,,,,,,m,1,0.217,,,,,,,,0,79,79,54,1
,,,,,,,,,,,,,,,,,5eed592252bcc917d6b46cdf,25,2022-02-12_17h16.48.021,lexical_decision_task_DD_L6,2021.2.3,Win32,60.0240096,,,,,,,,,,,0.167,0,,,,,,,,,,,,,,,,,,,,,,,,0.048167539,-0.39947644,0,0,0,,,,,,,PEARL,C,z,y,./images/PEARL.png,,,,,,,,,,,,,,,,,,,,,,m,0,0.167,,,,,,,,0,80,80,130,1
,,,,,,,,,,,,,,,,,5eed592252bcc917d6b46cdf,25,2022-02-12_17h16.48.021,lexical_decision_task_DD_L6,2021.2.3,Win32,60.0240096,,,,,,,,,,,0.268,1,,,,,,,,,,,,,,,,,,,,,,,,0.048167539,-0.39947644,0,0,0,,,,,,,PAINT,C,z,y,./images/PAINT.png,,,,,,,,,,,,,,,,,,,,,,z,1,0.268,,,,,,,,0,81,81,91,1
,,,,,,,,,,,,,,,,,5eed592252bcc917d6b46cdf,25,2022-02-12_17h16.48.021,lexical_decision_task_DD_L6,2021.2.3,Win32,60.0240096,,,,,,,,,,,0.133,0,,,,,,,,,,,,,,,,,,,,,,,,0.048167539,-0.39947644,0,0,0,,,,,,,BONNET,HB,z,y,./images/BONNETHB.png,,,,,,,,,,,,,,,,,,,,,,m,0,0.133,,,,,,,,0,82,82,95,1
,,,,,,,,,,,,,,,,,5eed592252bcc917d6b46cdf,25,2022-02-12_17h16.48.021,lexical_decision_task_DD_L6,2021.2.3,Win32,60.0240096,,,,,,,,,,,0.567,0,,,,,,,,,,,,,,,,,,,,,,,,0.048167539,-0.39947644,0,0,0,space,,,,,,BABOON,C,z,y,./images/BABOON.png,,1.647,,,,,,,,,,,,,,,,,,,,m,0,0.567,,,,,,,,0,83,83,142,1
,,,,,,,,,,,,,,,,,5eed592252bcc917d6b46cdf,25,2022-02-12_17h16.48.021,lexical_decision_task_DD_L6,2021.2.3,Win32,60.0240096,,,,,,,,,,,0.517,0,,,,,,,,,,,,,,,,,,,,,,,,0.048167539,-0.39947644,0,0,0,,,,,,,CARPET,HB,z,y,./images/CARPETHB.png,,,,,,,,,,,,,,,,,,,,,,m,0,0.517,,,,,,,,0,84,84,137,1
,,,,,,,,,,,,,,,,,5eed592252bcc917d6b46cdf,25,2022-02-12_17h16.48.021,lexical_decision_task_DD_L6,2021.2.3,Win32,60.0240096,,,,,,,,,,,0.734,1,,,,,,,,,,,,,,,,,,,,,,,,0.048167539,-0.39947644,0,0,0,,,,,,,PISTOL,HB,m,y,./images/PISTOLHB.png,,,,,,,,,,,,,,,,,,,,,,m,1,0.734,,,,,,,,0,85,85,29,1
,,,,,,,,,,,,,,,,,5eed592252bcc917d6b46cdf,25,2022-02-12_17h16.48.021,lexical_decision_task_DD_L6,2021.2.3,Win32,60.0240096,,,,,,,,,,,0.591,0,,,,,,,,,,,,,,,,,,,,,,,,0.048167539,-0.39947644,0,0,0,,,,,,,MAGGOT,LB,z,y,./images/MAGGOTLB.png,,,,,,,,,,,,,,,,,,,,,,m,0,0.591,,,,,,,,0,86,86,117,1
,,,,,,,,,,,,,,,,,5eed592252bcc917d6b46cdf,25,2022-02-12_17h16.48.021,lexical_decision_task_DD_L6,2021.2.3,Win32,60.0240096,,,,,,,,,,,0.574,1,,,,,,,,,,,,,,,,,,,,,,,,0.048167539,-0.39947644,0,0,0,,,,,,,SNAKE,C,m,y,./images/SNAKE.png,,,,,,,,,,,,,,,,,,,,,,m,1,0.574,,,,,,,,0,87,87,40,1
,,,,,,,,,,,,,,,,,5eed592252bcc917d6b46cdf,25,2022-02-12_17h16.48.021,lexical_decision_task_DD_L6,2021.2.3,Win32,60.0240096,,,,,,,,,,,0.583,0,,,,,,,,,,,,,,,,,,,,,,,,0.048167539,-0.39947644,0,0,0,,,,,,,FINGER,LB,z,y,./images/FINGERLB.png,,,,,,,,,,,,,,,,,,,,,,m,0,0.583,,,,,,,,0,88,88,87,1
,,,,,,,,,,,,,,,,,5eed592252bcc917d6b46cdf,25,2022-02-12_17h16.48.021,lexical_decision_task_DD_L6,2021.2.3,Win32,60.0240096,,,,,,,,,,,0.954,0,,,,,,,,,,,,,,,,,,,,,,,,0.048167539,-0.39947644,0,0,0,,,,,,,BEARD,HB,z,y,./images/BEARDHB.png,,,,,,,,,,,,,,,,,,,,,,m,0,0.954,,,,,,,,0,89,89,86,1
,,,,,,,,,,,,,,,,,5eed592252bcc917d6b46cdf,25,2022-02-12_17h16.48.021,lexical_decision_task_DD_L6,2021.2.3,Win32,60.0240096,,,,,,,,,,,0.799,1,,,,,,,,,,,,,,,,,,,,,,,,0.048167539,-0.39947644,0,0,0,,,,,,,SCREW,LB,z,y,./images/SCREWLB.png,,,,,,,,,,,,,,,,,,,,,,z,1,0.799,,,,,,,,0,90,90,108,1
,,,,,,,,,,,,,,,,,5eed592252bcc917d6b46cdf,25,2022-02-12_17h16.48.021,lexical_decision_task_DD_L6,2021.2.3,Win32,60.0240096,,,,,,,,,,,0.733,1,,,,,,,,,,,,,,,,,,,,,,,,0.048167539,-0.39947644,0,0,0,,,,,,,WALNUT,LB,m,y,./images/WALNUTLB.png,,,,,,,,,,,,,,,,,,,,,,m,1,0.733,,,,,,,,0,91,91,0,1
,,,,,,,,,,,,,,,,,5eed592252bcc917d6b46cdf,25,2022-02-12_17h16.48.021,lexical_decision_task_DD_L6,2021.2.3,Win32,60.0240096,,,,,,,,,,,0.967,1,,,,,,,,,,,,,,,,,,,,,,,,0.048167539,-0.39947644,0,0,0,,,,,,,TORCH,HB,z,y,./images/TORCHHB.png,,,,,,,,,,,,,,,,,,,,,,z,1,0.967,,,,,,,,0,92,92,152,1
,,,,,,,,,,,,,,,,,5eed592252bcc917d6b46cdf,25,2022-02-12_17h16.48.021,lexical_decision_task_DD_L6,2021.2.3,Win32,60.0240096,,,,,,,,,,,0.435,0,,,,,,,,,,,,,,,,,,,,,,,,0.048167539,-0.39947644,0,0,0,,,,,,,SWING,C,z,y,./images/SWING.png,,,,,,,,,,,,,,,,,,,,,,m,0,0.435,,,,,,,,0,93,93,124,1
,,,,,,,,,,,,,,,,,5eed592252bcc917d6b46cdf,25,2022-02-12_17h16.48.021,lexical_decision_task_DD_L6,2021.2.3,Win32,60.0240096,,,,,,,,,,,0.504,1,,,,,,,,,,,,,,,,,,,,,,,,0.048167539,-0.39947644,0,0,0,,,,,,,CLOWN,C,m,y,./images/CLOWN.png,,,,,,,,,,,,,,,,,,,,,,m,1,0.504,,,,,,,,0,94,94,22,1
,,,,,,,,,,,,,,,,,5eed592252bcc917d6b46cdf,25,2022-02-12_17h16.48.021,lexical_decision_task_DD_L6,2021.2.3,Win32,60.0240096,,,,,,,,,,,0.3,1,,,,,,,,,,,,,,,,,,,,,,,,0.048167539,-0.39947644,0,0,0,,,,,,,SNACK,C,z,y,./images/SNACK.png,,,,,,,,,,,,,,,,,,,,,,z,1,0.3,,,,,,,,0,95,95,157,1
,,,,,,,,,,,,,,,,,5eed592252bcc917d6b46cdf,25,2022-02-12_17h16.48.021,lexical_decision_task_DD_L6,2021.2.3,Win32,60.0240096,,,,,,,,,,,0.237,0,,,,,,,,,,,,,,,,,,,,,,,,0.048167539,-0.39947644,0,0,0,,,,,,,SKIING,HB,z,y,./images/SKIINGHB.png,,,,,,,,,,,,,,,,,,,,,,m,0,0.237,,,,,,,,0,96,96,101,1
,,,,,,,,,,,,,,,,,5eed592252bcc917d6b46cdf,25,2022-02-12_17h16.48.021,lexical_decision_task_DD_L6,2021.2.3,Win32,60.0240096,,,,,,,,,,,0.935,1,,,,,,,,,,,,,,,,,,,,,,,,0.048167539,-0.39947644,0,0,0,,,,,,,MIRROR,LB,z,y,./images/MIRRORLB.png,,,,,,,,,,,,,,,,,,,,,,z,1,0.935,,,,,,,,0,97,97,147,1
,,,,,,,,,,,,,,,,,5eed592252bcc917d6b46cdf,25,2022-02-12_17h16.48.021,lexical_decision_task_DD_L6,2021.2.3,Win32,60.0240096,,,,,,,,,,,0.476,1,,,,,,,,,,,,,,,,,,,,,,,,0.048167539,-0.39947644,0,0,0,,,,,,,DIVER,LB,m,y,./images/DIVERLB.png,,,,,,,,,,,,,,,,,,,,,,m,1,0.476,,,,,,,,0,98,98,9,1
,,,,,,,,,,,,,,,,,5eed592252bcc917d6b46cdf,25,2022-02-12_17h16.48.021,lexical_decision_task_DD_L6,2021.2.3,Win32,60.0240096,,,,,,,,,,,0.423,1,,,,,,,,,,,,,,,,,,,,,,,,0.048167539,-0.39947644,0,0,0,,,,,,,JUNGLE,HB,z,y,./images/JUNGLEHB.png,,,,,,,,,,,,,,,,,,,,,,z,1,0.423,,,,,,,,0,99,99,167,1
,,,,,,,,,,,,,,,,,5eed592252bcc917d6b46cdf,25,2022-02-12_17h16.48.021,lexical_decision_task_DD_L6,2021.2.3,Win32,60.0240096,,,,,,,,,,,0.256,0,,,,,,,,,,,,,,,,,,,,,,,,0.048167539,-0.39947644,0,0,0,,,,,,,INFANT,C,z,y,./images/INFANT.png,,,,,,,,,,,,,,,,,,,,,,m,0,0.256,,,,,,,,0,100,100,160,1
,,,,,,,,,,,,,,,,,5eed592252bcc917d6b46cdf,25,2022-02-12_17h16.48.021,lexical_decision_task_DD_L6,2021.2.3,Win32,60.0240096,,,,,,,,,,,0.57,0,,,,,,,,,,,,,,,,,,,,,,,,0.048167539,-0.39947644,0,0,0,,,,,,,CRUMB,HB,z,y,./images/CRUMBHB.png,,,,,,,,,,,,,,,,,,,,,,m,0,0.57,,,,,,,,0,101,101,113,1
,,,,,,,,,,,,,,,,,5eed592252bcc917d6b46cdf,25,2022-02-12_17h16.48.021,lexical_decision_task_DD_L6,2021.2.3,Win32,60.0240096,,,,,,,,,,,1.083,1,,,,,,,,,,,,,,,,,,,,,,,,0.048167539,-0.39947644,0,0,0,,,,,,,THROAT,LB,z,y,./images/THROATLB.png,,,,,,,,,,,,,,,,,,,,,,z,1,1.083,,,,,,,,0,102,102,120,1
,,,,,,,,,,,,,,,,,5eed592252bcc917d6b46cdf,25,2022-02-12_17h16.48.021,lexical_decision_task_DD_L6,2021.2.3,Win32,60.0240096,,,,,,,,,,,0.301,0,,,,,,,,,,,,,,,,,,,,,,,,0.048167539,-0.39947644,0,0,0,,,,,,,PLANK,C,z,y,./images/PLANK.png,,,,,,,,,,,,,,,,,,,,,,m,0,0.301,,,,,,,,0,103,103,85,1
,,,,,,,,,,,,,,,,,5eed592252bcc917d6b46cdf,25,2022-02-12_17h16.48.021,lexical_decision_task_DD_L6,2021.2.3,Win32,60.0240096,,,,,,,,,,,0.234,1,,,,,,,,,,,,,,,,,,,,,,,,0.048167539,-0.39947644,0,0,0,,,,,,,DESERT,C,m,y,./images/DESERT.png,,,,,,,,,,,,,,,,,,,,,,m,1,0.234,,,,,,,,0,104,104,52,1
,,,,,,,,,,,,,,,,,5eed592252bcc917d6b46cdf,25,2022-02-12_17h16.48.021,lexical_decision_task_DD_L6,2021.2.3,Win32,60.0240096,,,,,,,,,,,0.834,1,,,,,,,,,,,,,,,,,,,,,,,,0.048167539,-0.39947644,0,0,0,,,,,,,GRAPE,C,m,y,./images/GRAPE.png,,,,,,,,,,,,,,,,,,,,,,m,1,0.834,,,,,,,,0,105,105,16,1
,,,,,,,,,,,,,,,,,5eed592252bcc917d6b46cdf,25,2022-02-12_17h16.48.021,lexical_decision_task_DD_L6,2021.2.3,Win32,60.0240096,,,,,,,,,,,0.856,1,,,,,,,,,,,,,,,,,,,,,,,,0.048167539,-0.39947644,0,0,0,,,,,,,VALLEY,HB,m,y,./images/VALLEYHB.png,,,,,,,,,,,,,,,,,,,,,,m,1,0.856,,,,,,,,0,106,106,68,1
,,,,,,,,,,,,,,,,,5eed592252bcc917d6b46cdf,25,2022-02-12_17h16.48.021,lexical_decision_task_DD_L6,2021.2.3,Win32,60.0240096,,,,,,,,,,,0.705,1,,,,,,,,,,,,,,,,,,,,,,,,0.048167539,-0.39947644,0,0,0,,,,,,,BERRY,HB,z,y,./images/BERRYHB.png,,,,,,,,,,,,,,,,,,,,,,z,1,0.705,,,,,,,,0,107,107,131,1
,,,,,,,,,,,,,,,,,5eed592252bcc917d6b46cdf,25,2022-02-12_17h16.48.021,lexical_decision_task_DD_L6,2021.2.3,Win32,60.0240096,,,,,,,,,,,0.289,0,,,,,,,,,,,,,,,,,,,,,,,,0.048167539,-0.39947644,0,0,0,,,,,,,MALLET,HB,z,y,./images/MALLETHB.png,,,,,,,,,,,,,,,,,,,,,,m,0,0.289,,,,,,,,0,108,108,134,1
,,,,,,,,,,,,,,,,,5eed592252bcc917d6b46cdf,25,2022-02-12_17h16.48.021,lexical_decision_task_DD_L6,2021.2.3,Win32,60.0240096,,,,,,,,,,,0.724,1,,,,,,,,,,,,,,,,,,,,,,,,0.048167539,-0.39947644,0,0,0,,,,,,,DRILL,LB,m,y,./images/DRILLLB.png,,,,,,,,,,,,,,,,,,,,,,m,1,0.724,,,,,,,,0,109,109,81,1
,,,,,,,,,,,,,,,,,5eed592252bcc917d6b46cdf,25,2022-02-12_17h16.48.021,lexical_decision_task_DD_L6,2021.2.3,Win32,60.0240096,,,,,,,,,,,0.604,0,,,,,,,,,,,,,,,,,,,,,,,,0.048167539,-0.39947644,0,0,0,,,,,,,BARREL,HB,z,y,./images/BARRELHB.png,,,,,,,,,,,,,,,,,,,,,,m,0,0.604,,,,,,,,0,110,110,116,1
,,,,,,,,,,,,,,,,,5eed592252bcc917d6b46cdf,25,2022-02-12_17h16.48.021,lexical_decision_task_DD_L6,2021.2.3,Win32,60.0240096,,,,,,,,,,,0.568,1,,,,,,,,,,,,,,,,,,,,,,,,0.048167539,-0.39947644,0,0,0,,,,,,,STATUE,LB,m,y,./images/STATUELB.png,,,,,,,,,,,,,,,,,,,,,,m,1,0.568,,,,,,,,0,111,111,66,1
,,,,,,,,,,,,,,,,,5eed592252bcc917d6b46cdf,25,2022-02-12_17h16.48.021,lexical_decision_task_DD_L6,2021.2.3,Win32,60.0240096,,,,,,,,,,,0.848,1,,,,,,,,,,,,,,,,,,,,,,,,0.048167539,-0.39947644,0,0,0,,,,,,,BUTTER,LB,m,y,./images/BUTTERLB.png,,,,,,,,,,,,,,,,,,,,,,m,1,0.848,,,,,,,,0,112,112,27,1
,,,,,,,,,,,,,,,,,5eed592252bcc917d6b46cdf,25,2022-02-12_17h16.48.021,lexical_decision_task_DD_L6,2021.2.3,Win32,60.0240096,,,,,,,,,,,0.521,1,,,,,,,,,,,,,,,,,,,,,,,,0.048167539,-0.39947644,0,0,0,,,,,,,WAGON,C,m,y,./images/WAGON.png,,,,,,,,,,,,,,,,,,,,,,m,1,0.521,,,,,,,,0,113,113,7,1
,,,,,,,,,,,,,,,,,5eed592252bcc917d6b46cdf,25,2022-02-12_17h16.48.021,lexical_decision_task_DD_L6,2021.2.3,Win32,60.0240096,,,,,,,,,,,0.717,0,,,,,,,,,,,,,,,,,,,,,,,,0.048167539,-0.39947644,0,0,0,,,,,,,PIMPLE,HB,z,y,./images/PIMPLEHB.png,,,,,,,,,,,,,,,,,,,,,,m,0,0.717,,,,,,,,0,114,114,155,1
,,,,,,,,,,,,,,,,,5eed592252bcc917d6b46cdf,25,2022-02-12_17h16.48.021,lexical_decision_task_DD_L6,2021.2.3,Win32,60.0240096,,,,,,,,,,,0.284,0,,,,,,,,,,,,,,,,,,,,,,,,0.048167539,-0.39947644,0,0,0,,,,,,,CRADLE,HB,z,y,./images/CRADLEHB.png,,,,,,,,,,,,,,,,,,,,,,m,0,0.284,,,,,,,,0,115,115,104,1
,,,,,,,,,,,,,,,,,5eed592252bcc917d6b46cdf,25,2022-02-12_17h16.48.021,lexical_decision_task_DD_L6,2021.2.3,Win32,60.0240096,,,,,,,,,,,0.516,1,,,,,,,,,,,,,,,,,,,,,,,,0.048167539,-0.39947644,0,0,0,,,,,,,JUMPER,HB,m,y,./images/JUMPERHB.png,,,,,,,,,,,,,,,,,,,,,,m,1,0.516,,,,,,,,0,116,116,74,1
,,,,,,,,,,,,,,,,,5eed592252bcc917d6b46cdf,25,2022-02-12_17h16.48.021,lexical_decision_task_DD_L6,2021.2.3,Win32,60.0240096,,,,,,,,,,,0.301,0,,,,,,,,,,,,,,,,,,,,,,,,0.048167539,-0.39947644,0,0,0,,,,,,,ALLEY,C,m,y,./images/ALLEY.png,,,,,,,,,,,,,,,,,,,,,,z,0,0.301,,,,,,,,0,117,117,55,1
,,,,,,,,,,,,,,,,,5eed592252bcc917d6b46cdf,25,2022-02-12_17h16.48.021,lexical_decision_task_DD_L6,2021.2.3,Win32,60.0240096,,,,,,,,,,,1.25,1,,,,,,,,,,,,,,,,,,,,,,,,0.048167539,-0.39947644,0,0,0,,,,,,,CEMENT,HB,z,y,./images/CEMENTHB.png,,,,,,,,,,,,,,,,,,,,,,z,1,1.25,,,,,,,,0,118,118,158,1
,,,,,,,,,,,,,,,,,5eed592252bcc917d6b46cdf,25,2022-02-12_17h16.48.021,lexical_decision_task_DD_L6,2021.2.3,Win32,60.0240096,,,,,,,,,,,0.961,1,,,,,,,,,,,,,,,,,,,,,,,,0.048167539,-0.39947644,0,0,0,,,,,,,STOOL,C,m,y,./images/STOOL.png,,,,,,,,,,,,,,,,,,,,,,m,1,0.961,,,,,,,,0,119,119,43,1
,,,,,,,,,,,,,,,,,5eed592252bcc917d6b46cdf,25,2022-02-12_17h16.48.021,lexical_decision_task_DD_L6,2021.2.3,Win32,60.0240096,,,,,,,,,,,0.649,1,,,,,,,,,,,,,,,,,,,,,,,,0.048167539,-0.39947644,0,0,0,,,,,,,ATTIC,LB,z,y,./images/ATTICLB.png,,,,,,,,,,,,,,,,,,,,,,z,1,0.649,,,,,,,,0,120,120,111,1
,,,,,,,,,,,,,,,,,5eed592252bcc917d6b46cdf,25,2022-02-12_17h16.48.021,lexical_decision_task_DD_L6,2021.2.3,Win32,60.0240096,,,,,,,,,,,1.076,1,,,,,,,,,,,,,,,,,,,,,,,,0.048167539,-0.39947644,0,0,0,,,,,,,MIDGET,C,m,y,./images/MIDGET.png,,,,,,,,,,,,,,,,,,,,,,m,1,1.076,,,,,,,,0,121,121,76,1
,,,,,,,,,,,,,,,,,5eed592252bcc917d6b46cdf,25,2022-02-12_17h16.48.021,lexical_decision_task_DD_L6,2021.2.3,Win32,60.0240096,,,,,,,,,,,0.833,1,,,,,,,,,,,,,,,,,,,,,,,,0.048167539,-0.39947644,0,0,0,,,,,,,BIRTH,C,z,y,./images/BIRTH.png,,,,,,,,,,,,,,,,,,,,,,z,1,0.833,,,,,,,,0,122,122,121,1
,,,,,,,,,,,,,,,,,5eed592252bcc917d6b46cdf,25,2022-02-12_17h16.48.021,lexical_decision_task_DD_L6,2021.2.3,Win32,60.0240096,,,,,,,,,,,0.259,0,,,,,,,,,,,,,,,,,,,,,,,,0.048167539,-0.39947644,0,0,0,,,,,,,PENCE,C,z,y,./images/PENCE.png,,,,,,,,,,,,,,,,,,,,,,m,0,0.259,,,,,,,,0,123,123,100,1
,,,,,,,,,,,,,,,,,5eed592252bcc917d6b46cdf,25,2022-02-12_17h16.48.021,lexical_decision_task_DD_L6,2021.2.3,Win32,60.0240096,,,,,,,,,,,0.08,1,,,,,,,,,,,,,,,,,,,,,,,,0.048167539,-0.39947644,0,0,0,,,,,,,HAMMER,LB,m,y,./images/HAMMERLB.png,,,,,,,,,,,,,,,,,,,,,,m,1,0.08,,,,,,,,0,124,124,75,1
,,,,,,,,,,,,,,,,,5eed592252bcc917d6b46cdf,25,2022-02-12_17h16.48.021,lexical_decision_task_DD_L6,2021.2.3,Win32,60.0240096,,,,,,,,,,,0.905,0,,,,,,,,,,,,,,,,,,,,,,,,0.048167539,-0.39947644,0,0,0,space,,,,,,CANDLE,C,z,y,./images/CANDLE.png,,2.773,,,,,,,,,,,,,,,,,,,,m,0,0.905,,,,,,,,0,125,125,145,1
,,,,,,,,,,,,,,,,,5eed592252bcc917d6b46cdf,25,2022-02-12_17h16.48.021,lexical_decision_task_DD_L6,2021.2.3,Win32,60.0240096,,,,,,,,,,,0.799,0,,,,,,,,,,,,,,,,,,,,,,,,0.048167539,-0.39947644,0,0,0,,,,,,,PASTA,HB,z,y,./images/PASTAHB.png,,,,,,,,,,,,,,,,,,,,,,m,0,0.799,,,,,,,,0,126,126,89,1
,,,,,,,,,,,,,,,,,5eed592252bcc917d6b46cdf,25,2022-02-12_17h16.48.021,lexical_decision_task_DD_L6,2021.2.3,Win32,60.0240096,,,,,,,,,,,0.583,0,,,,,,,,,,,,,,,,,,,,,,,,0.048167539,-0.39947644,0,0,0,,,,,,,URINE,C,z,y,./images/URINE.png,,,,,,,,,,,,,,,,,,,,,,m,0,0.583,,,,,,,,0,127,127,154,1
,,,,,,,,,,,,,,,,,5eed592252bcc917d6b46cdf,25,2022-02-12_17h16.48.021,lexical_decision_task_DD_L6,2021.2.3,Win32,60.0240096,,,,,,,,,,,0.834,1,,,,,,,,,,,,,,,,,,,,,,,,0.048167539,-0.39947644,0,0,0,,,,,,,SHIELD,LB,m,y,./images/SHIELDLB.png,,,,,,,,,,,,,,,,,,,,,,m,1,0.834,,,,,,,,0,128,128,48,1
,,,,,,,,,,,,,,,,,5eed592252bcc917d6b46cdf,25,2022-02-12_17h16.48.021,lexical_decision_task_DD_L6,2021.2.3,Win32,60.0240096,,,,,,,,,,,0.87,1,,,,,,,,,,,,,,,,,,,,,,,,0.048167539,-0.39947644,0,0,0,,,,,,,POSTER,HB,m,y,./images/POSTERHB.png,,,,,,,,,,,,,,,,,,,,,,m,1,0.87,,,,,,,,0,129,129,53,1
,,,,,,,,,,,,,,,,,5eed592252bcc917d6b46cdf,25,2022-02-12_17h16.48.021,lexical_decision_task_DD_L6,2021.2.3,Win32,60.0240096,,,,,,,,,,,0.57,0,,,,,,,,,,,,,,,,,,,,,,,,0.048167539,-0.39947644,0,0,0,,,,,,,WHEEL,HB,m,y,./images/WHEELHB.png,,,,,,,,,,,,,,,,,,,,,,z,0,0.57,,,,,,,,0,130,130,77,1
,,,,,,,,,,,,,,,,,5eed592252bcc917d6b46cdf,25,2022-02-12_17h16.48.021,lexical_decision_task_DD_L6,2021.2.3,Win32,60.0240096,,,,,,,,,,,0.717,1,,,,,,,,,,,,,,,,,,,,,,,,0.048167539,-0.39947644,0,0,0,,,,,,,WRIST,C,z,y,./images/WRIST.png,,,,,,,,,,,,,,,,,,,,,,z,1,0.717,,,,,,,,0,131,131,109,1
,,,,,,,,,,,,,,,,,5eed592252bcc917d6b46cdf,25,2022-02-12_17h16.48.021,lexical_decision_task_DD_L6,2021.2.3,Win32,60.0240096,,,,,,,,,,,0.884,1,,,,,,,,,,,,,,,,,,,,,,,,0.048167539,-0.39947644,0,0,0,,,,,,,SAUCE,LB,m,y,./images/SAUCELB.png,,,,,,,,,,,,,,,,,,,,,,m,1,0.884,,,,,,,,0,132,132,51,1
,,,,,,,,,,,,,,,,,5eed592252bcc917d6b46cdf,25,2022-02-12_17h16.48.021,lexical_decision_task_DD_L6,2021.2.3,Win32,60.0240096,,,,,,,,,,,0.887,1,,,,,,,,,,,,,,,,,,,,,,,,0.048167539,-0.39947644,0,0,0,,,,,,,SAILOR,C,z,y,./images/SAILOR.png,,,,,,,,,,,,,,,,,,,,,,z,1,0.887,,,,,,,,0,133,133,151,1
,,,,,,,,,,,,,,,,,5eed592252bcc917d6b46cdf,25,2022-02-12_17h16.48.021,lexical_decision_task_DD_L6,2021.2.3,Win32,60.0240096,,,,,,,,,,,1.05,1,,,,,,,,,,,,,,,,,,,,,,,,0.048167539,-0.39947644,0,0,0,,,,,,,FARMER,HB,z,y,./images/FARMERHB.png,,,,,,,,,,,,,,,,,,,,,,z,1,1.05,,,,,,,,0,134,134,149,1
