key_resp.keys,key_resp.rt,instr_done_touch.x,instr_done_touch.y,instr_done_touch.leftButton,instr_done_touch.midButton,instr_done_touch.rightButton,instruction_pages.thisRepN,instruction_pages.thisTrialN,instruction_pages.thisN,instruction_pages.thisIndex,instruction_pages.ran,pageN,phase,instruct_text,has_image,instruct_image,participant,age,date,expName,psychopyVersion,OS,frameRate,response.keys,response.corr,response.rt,touch_resp.x,touch_resp.y,touch_resp.leftButton,touch_resp.midButton,touch_resp.rightButton,touch_resp.time,touch_resp.clicked_name,rt,corr,practrials.thisRepN,practrials.thisTrialN,practrials.thisN,practrials.thisIndex,practrials.ran,TrialID,Target,corrAns,end_of_practice_trials_pages.thisRepN,end_of_practice_trials_pages.thisTrialN,end_of_practice_trials_pages.thisN,end_of_practice_trials_pages.thisIndex,end_of_practice_trials_pages.ran,key_resp_2.keys,key_resp_2.corr,key_resp_2.rt,targ_click.x,targ_click.y,targ_click.leftButton,targ_click.midButton,targ_click.rightButton,targ_click.time,targ_click.clicked_name,break_done_touch.x,break_done_touch.y,break_done_touch.leftButton,break_done_touch.midButton,break_done_touch.rightButton,break_done_keyboard.keys,maintrials.thisRepN,maintrials.thisTrialN,maintrials.thisN,maintrials.thisIndex,maintrials.ran,string,blur,study,lex,stim_path,break_done_keyboard.rt,mouse_2.x,mouse_2.y,mouse_2.leftButton,mouse_2.midButton,mouse_2.rightButton,mouse_2.clicked_name,slider.response,slider.rt,trials.thisRepN,trials.thisTrialN,trials.thisN,trials.thisIndex,trials.ran,instr_done_touch.clicked_name,test_instructions.thisRepN,test_instructions.thisTrialN,test_instructions.thisN,test_instructions.thisIndex,test_instructions.ran,key_resp_3.keys,key_resp_3.corr,key_resp_3.rt,test_click.x,test_click.y,test_click.leftButton,test_click.midButton,test_click.rightButton,test_click.time,test_click.clicked_name,test_phase.thisRepN,test_phase.thisTrialN,test_phase.thisN,test_phase.thisIndex,test_phase.ran
space,2.5296,-0.056522926,-0.393313964,0,0,0,0,0,0,0,1,1,instructions,"INSTRUCTIONS
At the start of each trial, look at the plus sign  (+) in the center of the screen.  This tells you that a trial is about to begin and where to look. Second, the plus sign will disappear and a string of letters will appear. Your task is to determine if the string of letters is a word or not. If the item is a word press the M key (on keyboard)  or touch the word button (phone/tablet).  If the item is not a word,  press the  Z key (on keyboard)  or touch the nonword button (on phone/tablet). 
Press the space bar or touch  continue.",0,,5f1286c944b6a41e3f0e6826,18,2022-02-12_14h29.32.524,lexical_decision_task_DD_L6,2021.2.3,Linux x86_64,60.06006006,,,,,,,,,,,,,,,,,,,,,,,,,,,,,,,,,,,,,,,,,,,,,,,,,,,,,,,,,,,,,,,,,,,,,,,,,,,,,,,,,,,,,,
space,6.5029,-0.056522926,-0.393313964,0,0,0,0,1,1,1,1,2,instructions,"If your device has a keyboard, press the 'Z' key for nonwords and the 'M' key for words.





Press the space bar or touch the button below to continue.",0,keyboard-example.gif,5f1286c944b6a41e3f0e6826,18,2022-02-12_14h29.32.524,lexical_decision_task_DD_L6,2021.2.3,Linux x86_64,60.06006006,,,,,,,,,,,,,,,,,,,,,,,,,,,,,,,,,,,,,,,,,,,,,,,,,,,,,,,,,,,,,,,,,,,,,,,,,,,,,,,,,,,,,,
space,4.9769,-0.056522926,-0.393313964,0,0,0,0,2,2,2,1,3,instructions,"If you are using a touchscreen only device, use the buttons on the screen. Do not use the mouse.





Press the space bar or touch the button below to continue.",0,touchscreen-example.gif,5f1286c944b6a41e3f0e6826,18,2022-02-12_14h29.32.524,lexical_decision_task_DD_L6,2021.2.3,Linux x86_64,60.06006006,,,,,,,,,,,,,,,,,,,,,,,,,,,,,,,,,,,,,,,,,,,,,,,,,,,,,,,,,,,,,,,,,,,,,,,,,,,,,,,,,,,,,,
space,3.356,-0.056522926,-0.393313964,0,0,0,0,3,3,3,1,4,instructions,"It is very important that you respond as quickly and accurately as possible, as each letter string will only be on the screen for two seconds. If you do not respond within this time, the message 'Too slow!' will be displayed and the experiment will progress to the next letter string. The first 20 trials will be practice trials and you will receive feedback on your answers. 

Press the space bar or touch the button below to start the practice trials.",0,,5f1286c944b6a41e3f0e6826,18,2022-02-12_14h29.32.524,lexical_decision_task_DD_L6,2021.2.3,Linux x86_64,60.06006006,,,,,,,,,,,,,,,,,,,,,,,,,,,,,,,,,,,,,,,,,,,,,,,,,,,,,,,,,,,,,,,,,,,,,,,,,,,,,,,,,,,,,,
,,,,,,,,,,,,,,,,,5f1286c944b6a41e3f0e6826,18,2022-02-12_14h29.32.524,lexical_decision_task_DD_L6,2021.2.3,Linux x86_64,60.06006006,m,1,2.1878,,,,,,,,2.1878,1,0,0,0,2,1,1001,ALMOND,m,,,,,,,,,,,,,,,,,,,,,,,,,,,,,,,,,,,,,,,,,,,,,,,,,,,,,,,,,,,,,,,,,,
,,,,,,,,,,,,,,,,,5f1286c944b6a41e3f0e6826,18,2022-02-12_14h29.32.524,lexical_decision_task_DD_L6,2021.2.3,Linux x86_64,60.06006006,m,1,0.6945,,,,,,,,0.6945,1,0,1,1,7,1,1001,VOLUME,m,,,,,,,,,,,,,,,,,,,,,,,,,,,,,,,,,,,,,,,,,,,,,,,,,,,,,,,,,,,,,,,,,,
,,,,,,,,,,,,,,,,,5f1286c944b6a41e3f0e6826,18,2022-02-12_14h29.32.524,lexical_decision_task_DD_L6,2021.2.3,Linux x86_64,60.06006006,z,0,1.0301,,,,,,,,1.0301,0,0,2,2,3,1,1001,MATRIX,m,,,,,,,,,,,,,,,,,,,,,,,,,,,,,,,,,,,,,,,,,,,,,,,,,,,,,,,,,,,,,,,,,,
,,,,,,,,,,,,,,,,,5f1286c944b6a41e3f0e6826,18,2022-02-12_14h29.32.524,lexical_decision_task_DD_L6,2021.2.3,Linux x86_64,60.06006006,z,1,0.9161,,,,,,,,0.9161,1,0,3,3,10,1,1001,INLADE,z,,,,,,,,,,,,,,,,,,,,,,,,,,,,,,,,,,,,,,,,,,,,,,,,,,,,,,,,,,,,,,,,,,
,,,,,,,,,,,,,,,,,5f1286c944b6a41e3f0e6826,18,2022-02-12_14h29.32.524,lexical_decision_task_DD_L6,2021.2.3,Linux x86_64,60.06006006,z,1,0.7478,,,,,,,,0.7478,1,0,4,4,13,1,1001,ROUPET,z,,,,,,,,,,,,,,,,,,,,,,,,,,,,,,,,,,,,,,,,,,,,,,,,,,,,,,,,,,,,,,,,,,
,,,,,,,,,,,,,,,,,5f1286c944b6a41e3f0e6826,18,2022-02-12_14h29.32.524,lexical_decision_task_DD_L6,2021.2.3,Linux x86_64,60.06006006,m,1,0.7176,,,,,,,,0.7176,1,0,5,5,1,1,1001,ADJUST,m,,,,,,,,,,,,,,,,,,,,,,,,,,,,,,,,,,,,,,,,,,,,,,,,,,,,,,,,,,,,,,,,,,
,,,,,,,,,,,,,,,,,5f1286c944b6a41e3f0e6826,18,2022-02-12_14h29.32.524,lexical_decision_task_DD_L6,2021.2.3,Linux x86_64,60.06006006,m,1,1.1571,,,,,,,,1.1571,1,0,6,6,0,1,1001,UTOPIA,m,,,,,,,,,,,,,,,,,,,,,,,,,,,,,,,,,,,,,,,,,,,,,,,,,,,,,,,,,,,,,,,,,,
,,,,,,,,,,,,,,,,,5f1286c944b6a41e3f0e6826,18,2022-02-12_14h29.32.524,lexical_decision_task_DD_L6,2021.2.3,Linux x86_64,60.06006006,z,1,0.9376,,,,,,,,0.9376,1,0,7,7,14,1,1001,THRALE,z,,,,,,,,,,,,,,,,,,,,,,,,,,,,,,,,,,,,,,,,,,,,,,,,,,,,,,,,,,,,,,,,,,
,,,,,,,,,,,,,,,,,5f1286c944b6a41e3f0e6826,18,2022-02-12_14h29.32.524,lexical_decision_task_DD_L6,2021.2.3,Linux x86_64,60.06006006,z,1,0.9324,,,,,,,,0.9324,1,0,8,8,11,1,1001,RASHET,z,,,,,,,,,,,,,,,,,,,,,,,,,,,,,,,,,,,,,,,,,,,,,,,,,,,,,,,,,,,,,,,,,,
,,,,,,,,,,,,,,,,,5f1286c944b6a41e3f0e6826,18,2022-02-12_14h29.32.524,lexical_decision_task_DD_L6,2021.2.3,Linux x86_64,60.06006006,m,1,1.0893,,,,,,,,1.0893,1,0,9,9,4,1,1001,SQUEAK,m,,,,,,,,,,,,,,,,,,,,,,,,,,,,,,,,,,,,,,,,,,,,,,,,,,,,,,,,,,,,,,,,,,
,,,,,,,,,,,,,,,,,5f1286c944b6a41e3f0e6826,18,2022-02-12_14h29.32.524,lexical_decision_task_DD_L6,2021.2.3,Linux x86_64,60.06006006,z,1,0.936,,,,,,,,0.936,1,0,10,10,12,1,1001,SPRINY,z,,,,,,,,,,,,,,,,,,,,,,,,,,,,,,,,,,,,,,,,,,,,,,,,,,,,,,,,,,,,,,,,,,
,,,,,,,,,,,,,,,,,5f1286c944b6a41e3f0e6826,18,2022-02-12_14h29.32.524,lexical_decision_task_DD_L6,2021.2.3,Linux x86_64,60.06006006,z,1,0.7805,,,,,,,,0.7805,1,0,11,11,15,1,1001,WHAISE,z,,,,,,,,,,,,,,,,,,,,,,,,,,,,,,,,,,,,,,,,,,,,,,,,,,,,,,,,,,,,,,,,,,
,,,,,,,,,,,,,,,,,5f1286c944b6a41e3f0e6826,18,2022-02-12_14h29.32.524,lexical_decision_task_DD_L6,2021.2.3,Linux x86_64,60.06006006,z,1,0.7472,,,,,,,,0.7472,1,0,12,12,8,1,1001,ASLERT,z,,,,,,,,,,,,,,,,,,,,,,,,,,,,,,,,,,,,,,,,,,,,,,,,,,,,,,,,,,,,,,,,,,
,,,,,,,,,,,,,,,,,5f1286c944b6a41e3f0e6826,18,2022-02-12_14h29.32.524,lexical_decision_task_DD_L6,2021.2.3,Linux x86_64,60.06006006,m,1,0.5519,,,,,,,,0.5519,1,0,13,13,6,1,1001,ZOMBIE,m,,,,,,,,,,,,,,,,,,,,,,,,,,,,,,,,,,,,,,,,,,,,,,,,,,,,,,,,,,,,,,,,,,
,,,,,,,,,,,,,,,,,5f1286c944b6a41e3f0e6826,18,2022-02-12_14h29.32.524,lexical_decision_task_DD_L6,2021.2.3,Linux x86_64,60.06006006,z,1,0.7704,,,,,,,,0.7704,1,0,14,14,9,1,1001,FARINY,z,,,,,,,,,,,,,,,,,,,,,,,,,,,,,,,,,,,,,,,,,,,,,,,,,,,,,,,,,,,,,,,,,,
,,,,,,,,,,,,,,,,,5f1286c944b6a41e3f0e6826,18,2022-02-12_14h29.32.524,lexical_decision_task_DD_L6,2021.2.3,Linux x86_64,60.06006006,m,1,0.7298,,,,,,,,0.7298,1,0,15,15,5,1,1001,OBTAIN,m,,,,,,,,,,,,,,,,,,,,,,,,,,,,,,,,,,,,,,,,,,,,,,,,,,,,,,,,,,,,,,,,,,
space,14.4452,-0.056522926,-0.393313964,0,0,0,,,,,,1,end_of_practice,"You have completed the practice trials. During the experimental trials, you will not receive feedback. 
Before you begin, please ensure that you are in a comfortable and quiet location and will not be disturbed for about 15 minutes, as we cannot use your data if you do not complete all the trials. 
 When you are ready to start the experimental trials, please press space or touch the button below.",,,5f1286c944b6a41e3f0e6826,18,2022-02-12_14h29.32.524,lexical_decision_task_DD_L6,2021.2.3,Linux x86_64,60.06006006,,,,,,,,,,,,,,,,,,,,,0,0,0,0,1,,,,,,,,,,,,,,,,,,,,,,,,,,,,,,,,,,,,,,,,,,,,,,,,,,,,,,,,,,,,,
,,,,,,,,,,,,,,,,,5f1286c944b6a41e3f0e6826,18,2022-02-12_14h29.32.524,lexical_decision_task_DD_L6,2021.2.3,Linux x86_64,60.06006006,,,,,,,,,,,1.4362,1,,,,,,,,,,,,,,z,1,1.4362,,,,,,,,-0.056522926,-0.393313964,0,0,0,,0,0,0,113,1,LINEW,LB,z,z,./images/LINEWLB.png,,,,,,,,,,,,,,,,,,,,,,,,,,,,,,,,,,,
,,,,,,,,,,,,,,,,,5f1286c944b6a41e3f0e6826,18,2022-02-12_14h29.32.524,lexical_decision_task_DD_L6,2021.2.3,Linux x86_64,60.06006006,,,,,,,,,,,0.7499,1,,,,,,,,,,,,,,z,1,0.7499,,,,,,,,-0.056522926,-0.393313964,0,0,0,,0,1,1,128,1,GRIFT,LB,z,z,./images/GRIFTLB.png,,,,,,,,,,,,,,,,,,,,,,,,,,,,,,,,,,,
,,,,,,,,,,,,,,,,,5f1286c944b6a41e3f0e6826,18,2022-02-12_14h29.32.524,lexical_decision_task_DD_L6,2021.2.3,Linux x86_64,60.06006006,,,,,,,,,,,1.5898,1,,,,,,,,,,,,,,m,1,1.5898,,,,,,,,-0.056522926,-0.393313964,0,0,0,,0,2,2,17,1,PARADE,HB,m,m,./images/PARADEHB.png,,,,,,,,,,,,,,,,,,,,,,,,,,,,,,,,,,,
,,,,,,,,,,,,,,,,,5f1286c944b6a41e3f0e6826,18,2022-02-12_14h29.32.524,lexical_decision_task_DD_L6,2021.2.3,Linux x86_64,60.06006006,,,,,,,,,,,0.7519,1,,,,,,,,,,,,,,m,1,0.7519,,,,,,,,-0.056522926,-0.393313964,0,0,0,,0,3,3,41,1,STREAM,HB,m,m,./images/STREAMHB.png,,,,,,,,,,,,,,,,,,,,,,,,,,,,,,,,,,,
,,,,,,,,,,,,,,,,,5f1286c944b6a41e3f0e6826,18,2022-02-12_14h29.32.524,lexical_decision_task_DD_L6,2021.2.3,Linux x86_64,60.06006006,,,,,,,,,,,0.9534,1,,,,,,,,,,,,,,m,1,0.9534,,,,,,,,-0.056522926,-0.393313964,0,0,0,,0,4,4,53,1,POSTER,HB,m,m,./images/POSTERHB.png,,,,,,,,,,,,,,,,,,,,,,,,,,,,,,,,,,,
,,,,,,,,,,,,,,,,,5f1286c944b6a41e3f0e6826,18,2022-02-12_14h29.32.524,lexical_decision_task_DD_L6,2021.2.3,Linux x86_64,60.06006006,,,,,,,,,,,0.7811,1,,,,,,,,,,,,,,z,1,0.7811,,,,,,,,-0.056522926,-0.393313964,0,0,0,,0,5,5,131,1,NACES,LB,z,z,./images/NACESLB.png,,,,,,,,,,,,,,,,,,,,,,,,,,,,,,,,,,,
,,,,,,,,,,,,,,,,,5f1286c944b6a41e3f0e6826,18,2022-02-12_14h29.32.524,lexical_decision_task_DD_L6,2021.2.3,Linux x86_64,60.06006006,,,,,,,,,,,0.8525,1,,,,,,,,,,,,,,z,1,0.8525,,,,,,,,-0.056522926,-0.393313964,0,0,0,,0,6,6,147,1,ZOLES,C,z,z,./images/ZOLES.png,,,,,,,,,,,,,,,,,,,,,,,,,,,,,,,,,,,
,,,,,,,,,,,,,,,,,5f1286c944b6a41e3f0e6826,18,2022-02-12_14h29.32.524,lexical_decision_task_DD_L6,2021.2.3,Linux x86_64,60.06006006,,,,,,,,,,,0.7152,0,,,,,,,,,,,,,,m,0,0.7152,,,,,,,,-0.056522926,-0.393313964,0,0,0,,0,7,7,95,1,HANTY,LB,z,z,./images/HANTYLB.png,,,,,,,,,,,,,,,,,,,,,,,,,,,,,,,,,,,
,,,,,,,,,,,,,,,,,5f1286c944b6a41e3f0e6826,18,2022-02-12_14h29.32.524,lexical_decision_task_DD_L6,2021.2.3,Linux x86_64,60.06006006,,,,,,,,,,,0.9043,1,,,,,,,,,,,,,,z,1,0.9043,,,,,,,,-0.056522926,-0.393313964,0,0,0,,0,8,8,99,1,BACKY,C,z,z,./images/BACKY.png,,,,,,,,,,,,,,,,,,,,,,,,,,,,,,,,,,,
,,,,,,,,,,,,,,,,,5f1286c944b6a41e3f0e6826,18,2022-02-12_14h29.32.524,lexical_decision_task_DD_L6,2021.2.3,Linux x86_64,60.06006006,,,,,,,,,,,0.7553,1,,,,,,,,,,,,,,z,1,0.7553,,,,,,,,-0.056522926,-0.393313964,0,0,0,,0,9,9,155,1,CANGY,LB,z,z,./images/CANGYLB.png,,,,,,,,,,,,,,,,,,,,,,,,,,,,,,,,,,,
,,,,,,,,,,,,,,,,,5f1286c944b6a41e3f0e6826,18,2022-02-12_14h29.32.524,lexical_decision_task_DD_L6,2021.2.3,Linux x86_64,60.06006006,,,,,,,,,,,1.0056,1,,,,,,,,,,,,,,z,1,1.0056,,,,,,,,-0.056522926,-0.393313964,0,0,0,,0,10,10,85,1,CHULK,HB,z,z,./images/CHULKHB.png,,,,,,,,,,,,,,,,,,,,,,,,,,,,,,,,,,,
,,,,,,,,,,,,,,,,,5f1286c944b6a41e3f0e6826,18,2022-02-12_14h29.32.524,lexical_decision_task_DD_L6,2021.2.3,Linux x86_64,60.06006006,,,,,,,,,,,0.7337,1,,,,,,,,,,,,,,z,1,0.7337,,,,,,,,-0.056522926,-0.393313964,0,0,0,,0,11,11,135,1,JOODY,C,z,z,./images/JOODY.png,,,,,,,,,,,,,,,,,,,,,,,,,,,,,,,,,,,
,,,,,,,,,,,,,,,,,5f1286c944b6a41e3f0e6826,18,2022-02-12_14h29.32.524,lexical_decision_task_DD_L6,2021.2.3,Linux x86_64,60.06006006,,,,,,,,,,,0.7327,1,,,,,,,,,,,,,,m,1,0.7327,,,,,,,,-0.056522926,-0.393313964,0,0,0,,0,12,12,48,1,SHIELD,LB,m,m,./images/SHIELDLB.png,,,,,,,,,,,,,,,,,,,,,,,,,,,,,,,,,,,
,,,,,,,,,,,,,,,,,5f1286c944b6a41e3f0e6826,18,2022-02-12_14h29.32.524,lexical_decision_task_DD_L6,2021.2.3,Linux x86_64,60.06006006,,,,,,,,,,,2.0199,1,,,,,,,,,,,,,,z,1,2.0199,,,,,,,,-0.056522926,-0.393313964,0,0,0,,0,13,13,130,1,CRILL,HB,z,z,./images/CRILLHB.png,,,,,,,,,,,,,,,,,,,,,,,,,,,,,,,,,,,
,,,,,,,,,,,,,,,,,5f1286c944b6a41e3f0e6826,18,2022-02-12_14h29.32.524,lexical_decision_task_DD_L6,2021.2.3,Linux x86_64,60.06006006,,,,,,,,,,,2.2007,1,,,,,,,,,,,,,,z,1,2.2007,,,,,,,,-0.056522926,-0.393313964,0,0,0,,0,14,14,94,1,BLANS,HB,z,z,./images/BLANSHB.png,,,,,,,,,,,,,,,,,,,,,,,,,,,,,,,,,,,
,,,,,,,,,,,,,,,,,5f1286c944b6a41e3f0e6826,18,2022-02-12_14h29.32.524,lexical_decision_task_DD_L6,2021.2.3,Linux x86_64,60.06006006,,,,,,,,,,,0.6392,1,,,,,,,,,,,,,,m,1,0.6392,,,,,,,,-0.056522926,-0.393313964,0,0,0,,0,15,15,75,1,HAMMER,LB,m,m,./images/HAMMERLB.png,,,,,,,,,,,,,,,,,,,,,,,,,,,,,,,,,,,
,,,,,,,,,,,,,,,,,5f1286c944b6a41e3f0e6826,18,2022-02-12_14h29.32.524,lexical_decision_task_DD_L6,2021.2.3,Linux x86_64,60.06006006,,,,,,,,,,,0.7308,1,,,,,,,,,,,,,,z,1,0.7308,,,,,,,,-0.056522926,-0.393313964,0,0,0,,0,16,16,161,1,BLAPS,LB,z,z,./images/BLAPSLB.png,,,,,,,,,,,,,,,,,,,,,,,,,,,,,,,,,,,
,,,,,,,,,,,,,,,,,5f1286c944b6a41e3f0e6826,18,2022-02-12_14h29.32.524,lexical_decision_task_DD_L6,2021.2.3,Linux x86_64,60.06006006,,,,,,,,,,,0.8942,1,,,,,,,,,,,,,,z,1,0.8942,,,,,,,,-0.056522926,-0.393313964,0,0,0,,0,17,17,146,1,MOOST,LB,z,z,./images/MOOSTLB.png,,,,,,,,,,,,,,,,,,,,,,,,,,,,,,,,,,,
,,,,,,,,,,,,,,,,,5f1286c944b6a41e3f0e6826,18,2022-02-12_14h29.32.524,lexical_decision_task_DD_L6,2021.2.3,Linux x86_64,60.06006006,,,,,,,,,,,0.6101,0,,,,,,,,,,,,,,z,0,0.6101,,,,,,,,-0.056522926,-0.393313964,0,0,0,,0,18,18,18,1,PARCEL,LB,m,m,./images/PARCELLB.png,,,,,,,,,,,,,,,,,,,,,,,,,,,,,,,,,,,
,,,,,,,,,,,,,,,,,5f1286c944b6a41e3f0e6826,18,2022-02-12_14h29.32.524,lexical_decision_task_DD_L6,2021.2.3,Linux x86_64,60.06006006,,,,,,,,,,,0.6785,1,,,,,,,,,,,,,,m,1,0.6785,,,,,,,,-0.056522926,-0.393313964,0,0,0,,0,19,19,61,1,ARTIST,C,m,m,./images/ARTIST.png,,,,,,,,,,,,,,,,,,,,,,,,,,,,,,,,,,,
,,,,,,,,,,,,,,,,,5f1286c944b6a41e3f0e6826,18,2022-02-12_14h29.32.524,lexical_decision_task_DD_L6,2021.2.3,Linux x86_64,60.06006006,,,,,,,,,,,0.7727,1,,,,,,,,,,,,,,m,1,0.7727,,,,,,,,-0.056522926,-0.393313964,0,0,0,,0,20,20,26,1,CLOUD,HB,m,m,./images/CLOUDHB.png,,,,,,,,,,,,,,,,,,,,,,,,,,,,,,,,,,,
,,,,,,,,,,,,,,,,,5f1286c944b6a41e3f0e6826,18,2022-02-12_14h29.32.524,lexical_decision_task_DD_L6,2021.2.3,Linux x86_64,60.06006006,,,,,,,,,,,0.6794,1,,,,,,,,,,,,,,z,1,0.6794,,,,,,,,-0.056522926,-0.393313964,0,0,0,,0,21,21,165,1,TROWN,C,z,z,./images/TROWN.png,,,,,,,,,,,,,,,,,,,,,,,,,,,,,,,,,,,
,,,,,,,,,,,,,,,,,5f1286c944b6a41e3f0e6826,18,2022-02-12_14h29.32.524,lexical_decision_task_DD_L6,2021.2.3,Linux x86_64,60.06006006,,,,,,,,,,,0.708,1,,,,,,,,,,,,,,z,1,0.708,,,,,,,,-0.056522926,-0.393313964,0,0,0,,0,22,22,158,1,EGECT,LB,z,z,./images/EGECTLB.png,,,,,,,,,,,,,,,,,,,,,,,,,,,,,,,,,,,
,,,,,,,,,,,,,,,,,5f1286c944b6a41e3f0e6826,18,2022-02-12_14h29.32.524,lexical_decision_task_DD_L6,2021.2.3,Linux x86_64,60.06006006,,,,,,,,,,,0.6693,0,,,,,,,,,,,,,,z,0,0.6693,,,,,,,,-0.056522926,-0.393313964,0,0,0,,0,23,23,81,1,DRILL,LB,m,m,./images/DRILLLB.png,,,,,,,,,,,,,,,,,,,,,,,,,,,,,,,,,,,
,,,,,,,,,,,,,,,,,5f1286c944b6a41e3f0e6826,18,2022-02-12_14h29.32.524,lexical_decision_task_DD_L6,2021.2.3,Linux x86_64,60.06006006,,,,,,,,,,,0.8021,1,,,,,,,,,,,,,,z,1,0.8021,,,,,,,,-0.056522926,-0.393313964,0,0,0,,0,24,24,109,1,BURGE,HB,z,z,./images/BURGEHB.png,,,,,,,,,,,,,,,,,,,,,,,,,,,,,,,,,,,
,,,,,,,,,,,,,,,,,5f1286c944b6a41e3f0e6826,18,2022-02-12_14h29.32.524,lexical_decision_task_DD_L6,2021.2.3,Linux x86_64,60.06006006,,,,,,,,,,,1.2881,1,,,,,,,,,,,,,,m,1,1.2881,,,,,,,,-0.056522926,-0.393313964,0,0,0,,0,25,25,68,1,VALLEY,HB,m,m,./images/VALLEYHB.png,,,,,,,,,,,,,,,,,,,,,,,,,,,,,,,,,,,
,,,,,,,,,,,,,,,,,5f1286c944b6a41e3f0e6826,18,2022-02-12_14h29.32.524,lexical_decision_task_DD_L6,2021.2.3,Linux x86_64,60.06006006,,,,,,,,,,,0.6271,1,,,,,,,,,,,,,,z,1,0.6271,,,,,,,,-0.056522926,-0.393313964,0,0,0,,0,26,26,150,1,NOOLS,C,z,z,./images/NOOLS.png,,,,,,,,,,,,,,,,,,,,,,,,,,,,,,,,,,,
,,,,,,,,,,,,,,,,,5f1286c944b6a41e3f0e6826,18,2022-02-12_14h29.32.524,lexical_decision_task_DD_L6,2021.2.3,Linux x86_64,60.06006006,,,,,,,,,,,1.4309,1,,,,,,,,,,,,,,z,1,1.4309,,,,,,,,-0.056522926,-0.393313964,0,0,0,,0,27,27,118,1,BAVEL,HB,z,z,./images/BAVELHB.png,,,,,,,,,,,,,,,,,,,,,,,,,,,,,,,,,,,
,,,,,,,,,,,,,,,,,5f1286c944b6a41e3f0e6826,18,2022-02-12_14h29.32.524,lexical_decision_task_DD_L6,2021.2.3,Linux x86_64,60.06006006,,,,,,,,,,,0.8439,1,,,,,,,,,,,,,,m,1,0.8439,,,,,,,,-0.056522926,-0.393313964,0,0,0,,0,28,28,34,1,RAZOR,C,m,m,./images/RAZOR.png,,,,,,,,,,,,,,,,,,,,,,,,,,,,,,,,,,,
,,,,,,,,,,,,,,,,,5f1286c944b6a41e3f0e6826,18,2022-02-12_14h29.32.524,lexical_decision_task_DD_L6,2021.2.3,Linux x86_64,60.06006006,,,,,,,,,,,0.7213,1,,,,,,,,,,,,,,m,1,0.7213,,,,,,,,-0.056522926,-0.393313964,0,0,0,,0,29,29,27,1,BUTTER,LB,m,m,./images/BUTTERLB.png,,,,,,,,,,,,,,,,,,,,,,,,,,,,,,,,,,,
,,,,,,,,,,,,,,,,,5f1286c944b6a41e3f0e6826,18,2022-02-12_14h29.32.524,lexical_decision_task_DD_L6,2021.2.3,Linux x86_64,60.06006006,,,,,,,,,,,0.7183,1,,,,,,,,,,,,,,z,1,0.7183,,,,,,,,-0.056522926,-0.393313964,0,0,0,,0,30,30,105,1,MOKER,C,z,z,./images/MOKER.png,,,,,,,,,,,,,,,,,,,,,,,,,,,,,,,,,,,
,,,,,,,,,,,,,,,,,5f1286c944b6a41e3f0e6826,18,2022-02-12_14h29.32.524,lexical_decision_task_DD_L6,2021.2.3,Linux x86_64,60.06006006,,,,,,,,,,,0.6672,1,,,,,,,,,,,,,,z,1,0.6672,,,,,,,,-0.056522926,-0.393313964,0,0,0,,0,31,31,144,1,NAIRY,C,z,z,./images/NAIRY.png,,,,,,,,,,,,,,,,,,,,,,,,,,,,,,,,,,,
,,,,,,,,,,,,,,,,,5f1286c944b6a41e3f0e6826,18,2022-02-12_14h29.32.524,lexical_decision_task_DD_L6,2021.2.3,Linux x86_64,60.06006006,,,,,,,,,,,0.6423,1,,,,,,,,,,,,,,z,1,0.6423,,,,,,,,-0.056522926,-0.393313964,0,0,0,,0,32,32,87,1,TRING,C,z,z,./images/TRING.png,,,,,,,,,,,,,,,,,,,,,,,,,,,,,,,,,,,
,,,,,,,,,,,,,,,,,5f1286c944b6a41e3f0e6826,18,2022-02-12_14h29.32.524,lexical_decision_task_DD_L6,2021.2.3,Linux x86_64,60.06006006,,,,,,,,,,,0.9285,1,,,,,,,,,,,,,,z,1,0.9285,,,,,,,,-0.056522926,-0.393313964,0,0,0,,0,33,33,139,1,BLEAR,HB,z,z,./images/BLEARHB.png,,,,,,,,,,,,,,,,,,,,,,,,,,,,,,,,,,,
,,,,,,,,,,,,,,,,,5f1286c944b6a41e3f0e6826,18,2022-02-12_14h29.32.524,lexical_decision_task_DD_L6,2021.2.3,Linux x86_64,60.06006006,,,,,,,,,,,0.7377,1,,,,,,,,,,,,,,m,1,0.7377,,,,,,,,-0.056522926,-0.393313964,0,0,0,,0,34,34,31,1,STEAK,C,m,m,./images/STEAK.png,,,,,,,,,,,,,,,,,,,,,,,,,,,,,,,,,,,
,,,,,,,,,,,,,,,,,5f1286c944b6a41e3f0e6826,18,2022-02-12_14h29.32.524,lexical_decision_task_DD_L6,2021.2.3,Linux x86_64,60.06006006,,,,,,,,,,,0.6498,1,,,,,,,,,,,,,,z,1,0.6498,,,,,,,,-0.056522926,-0.393313964,0,0,0,,0,35,35,101,1,GLEET,LB,z,z,./images/GLEETLB.png,,,,,,,,,,,,,,,,,,,,,,,,,,,,,,,,,,,
,,,,,,,,,,,,,,,,,5f1286c944b6a41e3f0e6826,18,2022-02-12_14h29.32.524,lexical_decision_task_DD_L6,2021.2.3,Linux x86_64,60.06006006,,,,,,,,,,,0.6012,1,,,,,,,,,,,,,,z,1,0.6012,,,,,,,,-0.056522926,-0.393313964,0,0,0,,0,36,36,86,1,AIFED,LB,z,z,./images/AIFEDLB.png,,,,,,,,,,,,,,,,,,,,,,,,,,,,,,,,,,,
,,,,,,,,,,,,,,,,,5f1286c944b6a41e3f0e6826,18,2022-02-12_14h29.32.524,lexical_decision_task_DD_L6,2021.2.3,Linux x86_64,60.06006006,,,,,,,,,,,0.9927,1,,,,,,,,,,,,,,m,1,0.9927,,,,,,,,-0.056522926,-0.393313964,0,0,0,,0,37,37,30,1,SLOPE,LB,m,m,./images/SLOPELB.png,,,,,,,,,,,,,,,,,,,,,,,,,,,,,,,,,,,
,,,,,,,,,,,,,,,,,5f1286c944b6a41e3f0e6826,18,2022-02-12_14h29.32.524,lexical_decision_task_DD_L6,2021.2.3,Linux x86_64,60.06006006,,,,,,,,,,,0.7547,1,,,,,,,,,,,,,,z,1,0.7547,,,,,,,,-0.056522926,-0.393313964,0,0,0,,0,38,38,93,1,SMONE,C,z,z,./images/SMONE.png,,,,,,,,,,,,,,,,,,,,,,,,,,,,,,,,,,,
,,,,,,,,,,,,,,,,,5f1286c944b6a41e3f0e6826,18,2022-02-12_14h29.32.524,lexical_decision_task_DD_L6,2021.2.3,Linux x86_64,60.06006006,,,,,,,,,,,0.5455,0,,,,,,,,,,,,,,z,0,0.5455,,,,,,,,-0.056522926,-0.393313964,0,0,0,,0,39,39,58,1,CANOE,C,m,m,./images/CANOE.png,,,,,,,,,,,,,,,,,,,,,,,,,,,,,,,,,,,
,,,,,,,,,,,,,,,,,5f1286c944b6a41e3f0e6826,18,2022-02-12_14h29.32.524,lexical_decision_task_DD_L6,2021.2.3,Linux x86_64,60.06006006,,,,,,,,,,,0.8093,0,,,,,,,,,,,,,,z,0,0.8093,,,,,,,,-0.056522926,-0.393313964,0,0,0,,0,40,40,32,1,HOCKEY,HB,m,m,./images/HOCKEYHB.png,,,,,,,,,,,,,,,,,,,,,,,,,,,,,,,,,,,
,,,,,,,,,,,,,,,,,5f1286c944b6a41e3f0e6826,18,2022-02-12_14h29.32.524,lexical_decision_task_DD_L6,2021.2.3,Linux x86_64,60.06006006,,,,,,,,,,,1.3642,1,,,,,,,,,,,,,,m,1,1.3642,,,,,,,,-0.056522926,-0.393313964,0,0,0,space,0,41,41,11,1,MEDAL,HB,m,m,./images/MEDALHB.png,3.0771,,,,,,,,,,,,,,,,,,,,,,,,,,,,,,,,,,
,,,,,,,,,,,,,,,,,5f1286c944b6a41e3f0e6826,18,2022-02-12_14h29.32.524,lexical_decision_task_DD_L6,2021.2.3,Linux x86_64,60.06006006,,,,,,,,,,,0.6124,1,,,,,,,,,,,,,,m,1,0.6124,,,,,,,,-0.056522926,-0.393313964,0,0,0,,0,42,42,1,1,TOWEL,C,m,m,./images/TOWEL.png,,,,,,,,,,,,,,,,,,,,,,,,,,,,,,,,,,,
,,,,,,,,,,,,,,,,,5f1286c944b6a41e3f0e6826,18,2022-02-12_14h29.32.524,lexical_decision_task_DD_L6,2021.2.3,Linux x86_64,60.06006006,,,,,,,,,,,0.977,1,,,,,,,,,,,,,,z,1,0.977,,,,,,,,-0.056522926,-0.393313964,0,0,0,,0,43,43,111,1,HOSSE,C,z,z,./images/HOSSE.png,,,,,,,,,,,,,,,,,,,,,,,,,,,,,,,,,,,
,,,,,,,,,,,,,,,,,5f1286c944b6a41e3f0e6826,18,2022-02-12_14h29.32.524,lexical_decision_task_DD_L6,2021.2.3,Linux x86_64,60.06006006,,,,,,,,,,,0.6607,1,,,,,,,,,,,,,,z,1,0.6607,,,,,,,,-0.056522926,-0.393313964,0,0,0,,0,44,44,96,1,KEAMS,C,z,z,./images/KEAMS.png,,,,,,,,,,,,,,,,,,,,,,,,,,,,,,,,,,,
,,,,,,,,,,,,,,,,,5f1286c944b6a41e3f0e6826,18,2022-02-12_14h29.32.524,lexical_decision_task_DD_L6,2021.2.3,Linux x86_64,60.06006006,,,,,,,,,,,1.199,1,,,,,,,,,,,,,,z,1,1.199,,,,,,,,-0.056522926,-0.393313964,0,0,0,,0,45,45,136,1,WERVE,HB,z,z,./images/WERVEHB.png,,,,,,,,,,,,,,,,,,,,,,,,,,,,,,,,,,,
,,,,,,,,,,,,,,,,,5f1286c944b6a41e3f0e6826,18,2022-02-12_14h29.32.524,lexical_decision_task_DD_L6,2021.2.3,Linux x86_64,60.06006006,,,,,,,,,,,1.2119,1,,,,,,,,,,,,,,m,1,1.2119,,,,,,,,-0.056522926,-0.393313964,0,0,0,,0,46,46,83,1,WHISKY,HB,m,m,./images/WHISKYHB.png,,,,,,,,,,,,,,,,,,,,,,,,,,,,,,,,,,,
,,,,,,,,,,,,,,,,,5f1286c944b6a41e3f0e6826,18,2022-02-12_14h29.32.524,lexical_decision_task_DD_L6,2021.2.3,Linux x86_64,60.06006006,,,,,,,,,,,0.8304,1,,,,,,,,,,,,,,m,1,0.8304,,,,,,,,-0.056522926,-0.393313964,0,0,0,,0,47,47,54,1,CHERRY,LB,m,m,./images/CHERRYLB.png,,,,,,,,,,,,,,,,,,,,,,,,,,,,,,,,,,,
,,,,,,,,,,,,,,,,,5f1286c944b6a41e3f0e6826,18,2022-02-12_14h29.32.524,lexical_decision_task_DD_L6,2021.2.3,Linux x86_64,60.06006006,,,,,,,,,,,0.8728,1,,,,,,,,,,,,,,z,1,0.8728,,,,,,,,-0.056522926,-0.393313964,0,0,0,,0,48,48,160,1,VEETS,HB,z,z,./images/VEETSHB.png,,,,,,,,,,,,,,,,,,,,,,,,,,,,,,,,,,,
,,,,,,,,,,,,,,,,,5f1286c944b6a41e3f0e6826,18,2022-02-12_14h29.32.524,lexical_decision_task_DD_L6,2021.2.3,Linux x86_64,60.06006006,,,,,,,,,,,1.2376,1,,,,,,,,,,,,,,m,1,1.2376,,,,,,,,-0.056522926,-0.393313964,0,0,0,,0,49,49,80,1,PLANET,HB,m,m,./images/PLANETHB.png,,,,,,,,,,,,,,,,,,,,,,,,,,,,,,,,,,,
,,,,,,,,,,,,,,,,,5f1286c944b6a41e3f0e6826,18,2022-02-12_14h29.32.524,lexical_decision_task_DD_L6,2021.2.3,Linux x86_64,60.06006006,,,,,,,,,,,1.5882,1,,,,,,,,,,,,,,z,1,1.5882,,,,,,,,-0.056522926,-0.393313964,0,0,0,,0,50,50,91,1,SHENS,HB,z,z,./images/SHENSHB.png,,,,,,,,,,,,,,,,,,,,,,,,,,,,,,,,,,,
,,,,,,,,,,,,,,,,,5f1286c944b6a41e3f0e6826,18,2022-02-12_14h29.32.524,lexical_decision_task_DD_L6,2021.2.3,Linux x86_64,60.06006006,,,,,,,,,,,0.8933,1,,,,,,,,,,,,,,z,1,0.8933,,,,,,,,-0.056522926,-0.393313964,0,0,0,,0,51,51,134,1,TROSS,LB,z,z,./images/TROSSLB.png,,,,,,,,,,,,,,,,,,,,,,,,,,,,,,,,,,,
,,,,,,,,,,,,,,,,,5f1286c944b6a41e3f0e6826,18,2022-02-12_14h29.32.524,lexical_decision_task_DD_L6,2021.2.3,Linux x86_64,60.06006006,,,,,,,,,,,0.8954,1,,,,,,,,,,,,,,m,1,0.8954,,,,,,,,-0.056522926,-0.393313964,0,0,0,,0,52,52,60,1,CURRY,LB,m,m,./images/CURRYLB.png,,,,,,,,,,,,,,,,,,,,,,,,,,,,,,,,,,,
,,,,,,,,,,,,,,,,,5f1286c944b6a41e3f0e6826,18,2022-02-12_14h29.32.524,lexical_decision_task_DD_L6,2021.2.3,Linux x86_64,60.06006006,,,,,,,,,,,0.5933,1,,,,,,,,,,,,,,m,1,0.5933,,,,,,,,-0.056522926,-0.393313964,0,0,0,,0,53,53,22,1,CLOWN,C,m,m,./images/CLOWN.png,,,,,,,,,,,,,,,,,,,,,,,,,,,,,,,,,,,
,,,,,,,,,,,,,,,,,5f1286c944b6a41e3f0e6826,18,2022-02-12_14h29.32.524,lexical_decision_task_DD_L6,2021.2.3,Linux x86_64,60.06006006,,,,,,,,,,,0.8259,1,,,,,,,,,,,,,,z,1,0.8259,,,,,,,,-0.056522926,-0.393313964,0,0,0,,0,54,54,84,1,HAXES,C,z,z,./images/HAXES.png,,,,,,,,,,,,,,,,,,,,,,,,,,,,,,,,,,,
,,,,,,,,,,,,,,,,,5f1286c944b6a41e3f0e6826,18,2022-02-12_14h29.32.524,lexical_decision_task_DD_L6,2021.2.3,Linux x86_64,60.06006006,,,,,,,,,,,1.6351,1,,,,,,,,,,,,,,m,1,1.6351,,,,,,,,-0.056522926,-0.393313964,0,0,0,,0,55,55,20,1,GRANNY,HB,m,m,./images/GRANNYHB.png,,,,,,,,,,,,,,,,,,,,,,,,,,,,,,,,,,,
,,,,,,,,,,,,,,,,,5f1286c944b6a41e3f0e6826,18,2022-02-12_14h29.32.524,lexical_decision_task_DD_L6,2021.2.3,Linux x86_64,60.06006006,,,,,,,,,,,1.8191,1,,,,,,,,,,,,,,z,1,1.8191,,,,,,,,-0.056522926,-0.393313964,0,0,0,,0,56,56,163,1,GAMBA,HB,z,z,./images/GAMBAHB.png,,,,,,,,,,,,,,,,,,,,,,,,,,,,,,,,,,,
,,,,,,,,,,,,,,,,,5f1286c944b6a41e3f0e6826,18,2022-02-12_14h29.32.524,lexical_decision_task_DD_L6,2021.2.3,Linux x86_64,60.06006006,,,,,,,,,,,0.7072,1,,,,,,,,,,,,,,z,1,0.7072,,,,,,,,-0.056522926,-0.393313964,0,0,0,,0,57,57,116,1,BALGY,LB,z,z,./images/BALGYLB.png,,,,,,,,,,,,,,,,,,,,,,,,,,,,,,,,,,,
,,,,,,,,,,,,,,,,,5f1286c944b6a41e3f0e6826,18,2022-02-12_14h29.32.524,lexical_decision_task_DD_L6,2021.2.3,Linux x86_64,60.06006006,,,,,,,,,,,0.7576,0,,,,,,,,,,,,,,z,0,0.7576,,,,,,,,-0.056522926,-0.393313964,0,0,0,,0,58,58,12,1,BLOKE,LB,m,m,./images/BLOKELB.png,,,,,,,,,,,,,,,,,,,,,,,,,,,,,,,,,,,
,,,,,,,,,,,,,,,,,5f1286c944b6a41e3f0e6826,18,2022-02-12_14h29.32.524,lexical_decision_task_DD_L6,2021.2.3,Linux x86_64,60.06006006,,,,,,,,,,,1.0529,1,,,,,,,,,,,,,,m,1,1.0529,,,,,,,,-0.056522926,-0.393313964,0,0,0,,0,59,59,33,1,SAUNA,LB,m,m,./images/SAUNALB.png,,,,,,,,,,,,,,,,,,,,,,,,,,,,,,,,,,,
,,,,,,,,,,,,,,,,,5f1286c944b6a41e3f0e6826,18,2022-02-12_14h29.32.524,lexical_decision_task_DD_L6,2021.2.3,Linux x86_64,60.06006006,,,,,,,,,,,0.8929,1,,,,,,,,,,,,,,m,1,0.8929,,,,,,,,-0.056522926,-0.393313964,0,0,0,,0,60,60,43,1,STOOL,C,m,m,./images/STOOL.png,,,,,,,,,,,,,,,,,,,,,,,,,,,,,,,,,,,
,,,,,,,,,,,,,,,,,5f1286c944b6a41e3f0e6826,18,2022-02-12_14h29.32.524,lexical_decision_task_DD_L6,2021.2.3,Linux x86_64,60.06006006,,,,,,,,,,,1.0716,1,,,,,,,,,,,,,,z,1,1.0716,,,,,,,,-0.056522926,-0.393313964,0,0,0,,0,61,61,123,1,SEDGE,C,z,z,./images/SEDGE.png,,,,,,,,,,,,,,,,,,,,,,,,,,,,,,,,,,,
,,,,,,,,,,,,,,,,,5f1286c944b6a41e3f0e6826,18,2022-02-12_14h29.32.524,lexical_decision_task_DD_L6,2021.2.3,Linux x86_64,60.06006006,,,,,,,,,,,1.7183,1,,,,,,,,,,,,,,m,1,1.7183,,,,,,,,-0.056522926,-0.393313964,0,0,0,,0,62,62,74,1,JUMPER,HB,m,m,./images/JUMPERHB.png,,,,,,,,,,,,,,,,,,,,,,,,,,,,,,,,,,,
,,,,,,,,,,,,,,,,,5f1286c944b6a41e3f0e6826,18,2022-02-12_14h29.32.524,lexical_decision_task_DD_L6,2021.2.3,Linux x86_64,60.06006006,,,,,,,,,,,0.7369,1,,,,,,,,,,,,,,z,1,0.7369,,,,,,,,-0.056522926,-0.393313964,0,0,0,,0,63,63,137,1,JOOST,LB,z,z,./images/JOOSTLB.png,,,,,,,,,,,,,,,,,,,,,,,,,,,,,,,,,,,
,,,,,,,,,,,,,,,,,5f1286c944b6a41e3f0e6826,18,2022-02-12_14h29.32.524,lexical_decision_task_DD_L6,2021.2.3,Linux x86_64,60.06006006,,,,,,,,,,,0.9222,1,,,,,,,,,,,,,,m,1,0.9222,,,,,,,,-0.056522926,-0.393313964,0,0,0,,0,64,64,3,1,CRATER,LB,m,m,./images/CRATERLB.png,,,,,,,,,,,,,,,,,,,,,,,,,,,,,,,,,,,
,,,,,,,,,,,,,,,,,5f1286c944b6a41e3f0e6826,18,2022-02-12_14h29.32.524,lexical_decision_task_DD_L6,2021.2.3,Linux x86_64,60.06006006,,,,,,,,,,,0.6562,1,,,,,,,,,,,,,,m,1,0.6562,,,,,,,,-0.056522926,-0.393313964,0,0,0,,0,65,65,25,1,CHALK,C,m,m,./images/CHALK.png,,,,,,,,,,,,,,,,,,,,,,,,,,,,,,,,,,,
,,,,,,,,,,,,,,,,,5f1286c944b6a41e3f0e6826,18,2022-02-12_14h29.32.524,lexical_decision_task_DD_L6,2021.2.3,Linux x86_64,60.06006006,,,,,,,,,,,0.7342,1,,,,,,,,,,,,,,z,1,0.7342,,,,,,,,-0.056522926,-0.393313964,0,0,0,,0,66,66,141,1,PLEET,C,z,z,./images/PLEET.png,,,,,,,,,,,,,,,,,,,,,,,,,,,,,,,,,,,
,,,,,,,,,,,,,,,,,5f1286c944b6a41e3f0e6826,18,2022-02-12_14h29.32.524,lexical_decision_task_DD_L6,2021.2.3,Linux x86_64,60.06006006,,,,,,,,,,,0.7657,1,,,,,,,,,,,,,,z,1,0.7657,,,,,,,,-0.056522926,-0.393313964,0,0,0,,0,67,67,122,1,BLOOT,LB,z,z,./images/BLOOTLB.png,,,,,,,,,,,,,,,,,,,,,,,,,,,,,,,,,,,
,,,,,,,,,,,,,,,,,5f1286c944b6a41e3f0e6826,18,2022-02-12_14h29.32.524,lexical_decision_task_DD_L6,2021.2.3,Linux x86_64,60.06006006,,,,,,,,,,,0.7533,1,,,,,,,,,,,,,,m,1,0.7533,,,,,,,,-0.056522926,-0.393313964,0,0,0,,0,68,68,24,1,FLESH,LB,m,m,./images/FLESHLB.png,,,,,,,,,,,,,,,,,,,,,,,,,,,,,,,,,,,
,,,,,,,,,,,,,,,,,5f1286c944b6a41e3f0e6826,18,2022-02-12_14h29.32.524,lexical_decision_task_DD_L6,2021.2.3,Linux x86_64,60.06006006,,,,,,,,,,,1.0143,1,,,,,,,,,,,,,,m,1,1.0143,,,,,,,,-0.056522926,-0.393313964,0,0,0,,0,69,69,40,1,SNAKE,C,m,m,./images/SNAKE.png,,,,,,,,,,,,,,,,,,,,,,,,,,,,,,,,,,,
,,,,,,,,,,,,,,,,,5f1286c944b6a41e3f0e6826,18,2022-02-12_14h29.32.524,lexical_decision_task_DD_L6,2021.2.3,Linux x86_64,60.06006006,,,,,,,,,,,0.6999,1,,,,,,,,,,,,,,m,1,0.6999,,,,,,,,-0.056522926,-0.393313964,0,0,0,,0,70,70,15,1,COLLAR,LB,m,m,./images/COLLARLB.png,,,,,,,,,,,,,,,,,,,,,,,,,,,,,,,,,,,
,,,,,,,,,,,,,,,,,5f1286c944b6a41e3f0e6826,18,2022-02-12_14h29.32.524,lexical_decision_task_DD_L6,2021.2.3,Linux x86_64,60.06006006,,,,,,,,,,,0.9091,1,,,,,,,,,,,,,,m,1,0.9091,,,,,,,,-0.056522926,-0.393313964,0,0,0,,0,71,71,29,1,PISTOL,HB,m,m,./images/PISTOLHB.png,,,,,,,,,,,,,,,,,,,,,,,,,,,,,,,,,,,
,,,,,,,,,,,,,,,,,5f1286c944b6a41e3f0e6826,18,2022-02-12_14h29.32.524,lexical_decision_task_DD_L6,2021.2.3,Linux x86_64,60.06006006,,,,,,,,,,,0.7069,1,,,,,,,,,,,,,,m,1,0.7069,,,,,,,,-0.056522926,-0.393313964,0,0,0,,0,72,72,2,1,STOVE,HB,m,m,./images/STOVEHB.png,,,,,,,,,,,,,,,,,,,,,,,,,,,,,,,,,,,
,,,,,,,,,,,,,,,,,5f1286c944b6a41e3f0e6826,18,2022-02-12_14h29.32.524,lexical_decision_task_DD_L6,2021.2.3,Linux x86_64,60.06006006,,,,,,,,,,,1.15,0,,,,,,,,,,,,,,m,0,1.15,,,,,,,,-0.056522926,-0.393313964,0,0,0,,0,73,73,157,1,INLER,HB,z,z,./images/INLERHB.png,,,,,,,,,,,,,,,,,,,,,,,,,,,,,,,,,,,
,,,,,,,,,,,,,,,,,5f1286c944b6a41e3f0e6826,18,2022-02-12_14h29.32.524,lexical_decision_task_DD_L6,2021.2.3,Linux x86_64,60.06006006,,,,,,,,,,,0.5872,1,,,,,,,,,,,,,,m,1,0.5872,,,,,,,,-0.056522926,-0.393313964,0,0,0,,0,74,74,69,1,ARROW,LB,m,m,./images/ARROWLB.png,,,,,,,,,,,,,,,,,,,,,,,,,,,,,,,,,,,
,,,,,,,,,,,,,,,,,5f1286c944b6a41e3f0e6826,18,2022-02-12_14h29.32.524,lexical_decision_task_DD_L6,2021.2.3,Linux x86_64,60.06006006,,,,,,,,,,,0.6495,1,,,,,,,,,,,,,,z,1,0.6495,,,,,,,,-0.056522926,-0.393313964,0,0,0,,0,75,75,153,1,CLUPS,C,z,z,./images/CLUPS.png,,,,,,,,,,,,,,,,,,,,,,,,,,,,,,,,,,,
,,,,,,,,,,,,,,,,,5f1286c944b6a41e3f0e6826,18,2022-02-12_14h29.32.524,lexical_decision_task_DD_L6,2021.2.3,Linux x86_64,60.06006006,,,,,,,,,,,0.881,1,,,,,,,,,,,,,,m,1,0.881,,,,,,,,-0.056522926,-0.393313964,0,0,0,,0,76,76,57,1,FERRY,LB,m,m,./images/FERRYLB.png,,,,,,,,,,,,,,,,,,,,,,,,,,,,,,,,,,,
,,,,,,,,,,,,,,,,,5f1286c944b6a41e3f0e6826,18,2022-02-12_14h29.32.524,lexical_decision_task_DD_L6,2021.2.3,Linux x86_64,60.06006006,,,,,,,,,,,0.8403,1,,,,,,,,,,,,,,z,1,0.8403,,,,,,,,-0.056522926,-0.393313964,0,0,0,,0,77,77,152,1,FRAIN,LB,z,z,./images/FRAINLB.png,,,,,,,,,,,,,,,,,,,,,,,,,,,,,,,,,,,
,,,,,,,,,,,,,,,,,5f1286c944b6a41e3f0e6826,18,2022-02-12_14h29.32.524,lexical_decision_task_DD_L6,2021.2.3,Linux x86_64,60.06006006,,,,,,,,,,,0.7885,1,,,,,,,,,,,,,,m,1,0.7885,,,,,,,,-0.056522926,-0.393313964,0,0,0,,0,78,78,79,1,RULER,C,m,m,./images/RULER.png,,,,,,,,,,,,,,,,,,,,,,,,,,,,,,,,,,,
,,,,,,,,,,,,,,,,,5f1286c944b6a41e3f0e6826,18,2022-02-12_14h29.32.524,lexical_decision_task_DD_L6,2021.2.3,Linux x86_64,60.06006006,,,,,,,,,,,0.8275,1,,,,,,,,,,,,,,m,1,0.8275,,,,,,,,-0.056522926,-0.393313964,0,0,0,,0,79,79,65,1,SPINE,HB,m,m,./images/SPINEHB.png,,,,,,,,,,,,,,,,,,,,,,,,,,,,,,,,,,,
,,,,,,,,,,,,,,,,,5f1286c944b6a41e3f0e6826,18,2022-02-12_14h29.32.524,lexical_decision_task_DD_L6,2021.2.3,Linux x86_64,60.06006006,,,,,,,,,,,0.7034,1,,,,,,,,,,,,,,m,1,0.7034,,,,,,,,-0.056522926,-0.393313964,0,0,0,,0,80,80,0,1,WALNUT,LB,m,m,./images/WALNUTLB.png,,,,,,,,,,,,,,,,,,,,,,,,,,,,,,,,,,,
,,,,,,,,,,,,,,,,,5f1286c944b6a41e3f0e6826,18,2022-02-12_14h29.32.524,lexical_decision_task_DD_L6,2021.2.3,Linux x86_64,60.06006006,,,,,,,,,,,0.8017,1,,,,,,,,,,,,,,z,1,0.8017,,,,,,,,-0.056522926,-0.393313964,0,0,0,,0,81,81,107,1,FASKS,LB,z,z,./images/FASKSLB.png,,,,,,,,,,,,,,,,,,,,,,,,,,,,,,,,,,,
,,,,,,,,,,,,,,,,,5f1286c944b6a41e3f0e6826,18,2022-02-12_14h29.32.524,lexical_decision_task_DD_L6,2021.2.3,Linux x86_64,60.06006006,,,,,,,,,,,0.9975,0,,,,,,,,,,,,,,z,0,0.9975,,,,,,,,-0.056522926,-0.393313964,0,0,0,,0,82,82,64,1,BRIDE,C,m,m,./images/BRIDE.png,,,,,,,,,,,,,,,,,,,,,,,,,,,,,,,,,,,
,,,,,,,,,,,,,,,,,5f1286c944b6a41e3f0e6826,18,2022-02-12_14h29.32.524,lexical_decision_task_DD_L6,2021.2.3,Linux x86_64,60.06006006,,,,,,,,,,,0.882,1,,,,,,,,,,,,,,z,1,0.882,,,,,,,,-0.056522926,-0.393313964,0,0,0,space,0,83,83,88,1,GLUSH,HB,z,z,./images/GLUSHHB.png,1.6522,,,,,,,,,,,,,,,,,,,,,,,,,,,,,,,,,,
,,,,,,,,,,,,,,,,,5f1286c944b6a41e3f0e6826,18,2022-02-12_14h29.32.524,lexical_decision_task_DD_L6,2021.2.3,Linux x86_64,60.06006006,,,,,,,,,,,0.8276,1,,,,,,,,,,,,,,z,1,0.8276,,,,,,,,-0.056522926,-0.393313964,0,0,0,,0,84,84,110,1,CRUNK,LB,z,z,./images/CRUNKLB.png,,,,,,,,,,,,,,,,,,,,,,,,,,,,,,,,,,,
,,,,,,,,,,,,,,,,,5f1286c944b6a41e3f0e6826,18,2022-02-12_14h29.32.524,lexical_decision_task_DD_L6,2021.2.3,Linux x86_64,60.06006006,,,,,,,,,,,0.837,1,,,,,,,,,,,,,,m,1,0.837,,,,,,,,-0.056522926,-0.393313964,0,0,0,,0,85,85,67,1,POKER,C,m,m,./images/POKER.png,,,,,,,,,,,,,,,,,,,,,,,,,,,,,,,,,,,
,,,,,,,,,,,,,,,,,5f1286c944b6a41e3f0e6826,18,2022-02-12_14h29.32.524,lexical_decision_task_DD_L6,2021.2.3,Linux x86_64,60.06006006,,,,,,,,,,,1.4388,1,,,,,,,,,,,,,,z,1,1.4388,,,,,,,,-0.056522926,-0.393313964,0,0,0,,0,86,86,151,1,TINKY,HB,z,z,./images/TINKYHB.png,,,,,,,,,,,,,,,,,,,,,,,,,,,,,,,,,,,
,,,,,,,,,,,,,,,,,5f1286c944b6a41e3f0e6826,18,2022-02-12_14h29.32.524,lexical_decision_task_DD_L6,2021.2.3,Linux x86_64,60.06006006,,,,,,,,,,,0.691,1,,,,,,,,,,,,,,m,1,0.691,,,,,,,,-0.056522926,-0.393313964,0,0,0,,0,87,87,16,1,GRAPE,C,m,m,./images/GRAPE.png,,,,,,,,,,,,,,,,,,,,,,,,,,,,,,,,,,,
,,,,,,,,,,,,,,,,,5f1286c944b6a41e3f0e6826,18,2022-02-12_14h29.32.524,lexical_decision_task_DD_L6,2021.2.3,Linux x86_64,60.06006006,,,,,,,,,,,0.7191,1,,,,,,,,,,,,,,z,1,0.7191,,,,,,,,-0.056522926,-0.393313964,0,0,0,,0,88,88,167,1,ZONET,LB,z,z,./images/ZONETLB.png,,,,,,,,,,,,,,,,,,,,,,,,,,,,,,,,,,,
,,,,,,,,,,,,,,,,,5f1286c944b6a41e3f0e6826,18,2022-02-12_14h29.32.524,lexical_decision_task_DD_L6,2021.2.3,Linux x86_64,60.06006006,,,,,,,,,,,0.6859,1,,,,,,,,,,,,,,m,1,0.6859,,,,,,,,-0.056522926,-0.393313964,0,0,0,,0,89,89,55,1,ALLEY,C,m,m,./images/ALLEY.png,,,,,,,,,,,,,,,,,,,,,,,,,,,,,,,,,,,
,,,,,,,,,,,,,,,,,5f1286c944b6a41e3f0e6826,18,2022-02-12_14h29.32.524,lexical_decision_task_DD_L6,2021.2.3,Linux x86_64,60.06006006,,,,,,,,,,,0.6111,1,,,,,,,,,,,,,,m,1,0.6111,,,,,,,,-0.056522926,-0.393313964,0,0,0,,0,90,90,72,1,FLASK,LB,m,m,./images/FLASKLB.png,,,,,,,,,,,,,,,,,,,,,,,,,,,,,,,,,,,
,,,,,,,,,,,,,,,,,5f1286c944b6a41e3f0e6826,18,2022-02-12_14h29.32.524,lexical_decision_task_DD_L6,2021.2.3,Linux x86_64,60.06006006,,,,,,,,,,,1.5691,1,,,,,,,,,,,,,,z,1,1.5691,,,,,,,,-0.056522926,-0.393313964,0,0,0,,0,91,91,106,1,CLUMS,HB,z,z,./images/CLUMSHB.png,,,,,,,,,,,,,,,,,,,,,,,,,,,,,,,,,,,
,,,,,,,,,,,,,,,,,5f1286c944b6a41e3f0e6826,18,2022-02-12_14h29.32.524,lexical_decision_task_DD_L6,2021.2.3,Linux x86_64,60.06006006,,,,,,,,,,,0.7081,1,,,,,,,,,,,,,,m,1,0.7081,,,,,,,,-0.056522926,-0.393313964,0,0,0,,0,92,92,71,1,BUBBLE,HB,m,m,./images/BUBBLEHB.png,,,,,,,,,,,,,,,,,,,,,,,,,,,,,,,,,,,
,,,,,,,,,,,,,,,,,5f1286c944b6a41e3f0e6826,18,2022-02-12_14h29.32.524,lexical_decision_task_DD_L6,2021.2.3,Linux x86_64,60.06006006,,,,,,,,,,,0.7346,1,,,,,,,,,,,,,,m,1,0.7346,,,,,,,,-0.056522926,-0.393313964,0,0,0,,0,93,93,47,1,LAGOON,HB,m,m,./images/LAGOONHB.png,,,,,,,,,,,,,,,,,,,,,,,,,,,,,,,,,,,
,,,,,,,,,,,,,,,,,5f1286c944b6a41e3f0e6826,18,2022-02-12_14h29.32.524,lexical_decision_task_DD_L6,2021.2.3,Linux x86_64,60.06006006,,,,,,,,,,,0.5832,1,,,,,,,,,,,,,,m,1,0.5832,,,,,,,,-0.056522926,-0.393313964,0,0,0,,0,94,94,28,1,CASINO,C,m,m,./images/CASINO.png,,,,,,,,,,,,,,,,,,,,,,,,,,,,,,,,,,,
,,,,,,,,,,,,,,,,,5f1286c944b6a41e3f0e6826,18,2022-02-12_14h29.32.524,lexical_decision_task_DD_L6,2021.2.3,Linux x86_64,60.06006006,,,,,,,,,,,0.9147,1,,,,,,,,,,,,,,z,1,0.9147,,,,,,,,-0.056522926,-0.393313964,0,0,0,,0,95,95,90,1,NEAST,C,z,z,./images/NEAST.png,,,,,,,,,,,,,,,,,,,,,,,,,,,,,,,,,,,
,,,,,,,,,,,,,,,,,5f1286c944b6a41e3f0e6826,18,2022-02-12_14h29.32.524,lexical_decision_task_DD_L6,2021.2.3,Linux x86_64,60.06006006,,,,,,,,,,,0.9449,1,,,,,,,,,,,,,,z,1,0.9449,,,,,,,,-0.056522926,-0.393313964,0,0,0,,0,96,96,100,1,DRIBS,HB,z,z,./images/DRIBSHB.png,,,,,,,,,,,,,,,,,,,,,,,,,,,,,,,,,,,
,,,,,,,,,,,,,,,,,5f1286c944b6a41e3f0e6826,18,2022-02-12_14h29.32.524,lexical_decision_task_DD_L6,2021.2.3,Linux x86_64,60.06006006,,,,,,,,,,,0.642,1,,,,,,,,,,,,,,m,1,0.642,,,,,,,,-0.056522926,-0.393313964,0,0,0,,0,97,97,36,1,BOILER,LB,m,m,./images/BOILERLB.png,,,,,,,,,,,,,,,,,,,,,,,,,,,,,,,,,,,
,,,,,,,,,,,,,,,,,5f1286c944b6a41e3f0e6826,18,2022-02-12_14h29.32.524,lexical_decision_task_DD_L6,2021.2.3,Linux x86_64,60.06006006,,,,,,,,,,,0.8194,1,,,,,,,,,,,,,,z,1,0.8194,,,,,,,,-0.056522926,-0.393313964,0,0,0,,0,98,98,124,1,TUNCH,HB,z,z,./images/TUNCHHB.png,,,,,,,,,,,,,,,,,,,,,,,,,,,,,,,,,,,
,,,,,,,,,,,,,,,,,5f1286c944b6a41e3f0e6826,18,2022-02-12_14h29.32.524,lexical_decision_task_DD_L6,2021.2.3,Linux x86_64,60.06006006,,,,,,,,,,,0.6816,0,,,,,,,,,,,,,,z,0,0.6816,,,,,,,,-0.056522926,-0.393313964,0,0,0,,0,99,99,49,1,BISHOP,C,m,m,./images/BISHOP.png,,,,,,,,,,,,,,,,,,,,,,,,,,,,,,,,,,,
,,,,,,,,,,,,,,,,,5f1286c944b6a41e3f0e6826,18,2022-02-12_14h29.32.524,lexical_decision_task_DD_L6,2021.2.3,Linux x86_64,60.06006006,,,,,,,,,,,0.7438,1,,,,,,,,,,,,,,z,1,0.7438,,,,,,,,-0.056522926,-0.393313964,0,0,0,,0,100,100,114,1,RIKES,C,z,z,./images/RIKES.png,,,,,,,,,,,,,,,,,,,,,,,,,,,,,,,,,,,
,,,,,,,,,,,,,,,,,5f1286c944b6a41e3f0e6826,18,2022-02-12_14h29.32.524,lexical_decision_task_DD_L6,2021.2.3,Linux x86_64,60.06006006,,,,,,,,,,,0.6166,1,,,,,,,,,,,,,,z,1,0.6166,,,,,,,,-0.056522926,-0.393313964,0,0,0,,0,101,101,108,1,GRUET,C,z,z,./images/GRUET.png,,,,,,,,,,,,,,,,,,,,,,,,,,,,,,,,,,,
,,,,,,,,,,,,,,,,,5f1286c944b6a41e3f0e6826,18,2022-02-12_14h29.32.524,lexical_decision_task_DD_L6,2021.2.3,Linux x86_64,60.06006006,,,,,,,,,,,0.59,1,,,,,,,,,,,,,,m,1,0.59,,,,,,,,-0.056522926,-0.393313964,0,0,0,,0,102,102,45,1,MONKEY,LB,m,m,./images/MONKEYLB.png,,,,,,,,,,,,,,,,,,,,,,,,,,,,,,,,,,,
,,,,,,,,,,,,,,,,,5f1286c944b6a41e3f0e6826,18,2022-02-12_14h29.32.524,lexical_decision_task_DD_L6,2021.2.3,Linux x86_64,60.06006006,,,,,,,,,,,0.5416,1,,,,,,,,,,,,,,m,1,0.5416,,,,,,,,-0.056522926,-0.393313964,0,0,0,,0,103,103,37,1,TIGER,C,m,m,./images/TIGER.png,,,,,,,,,,,,,,,,,,,,,,,,,,,,,,,,,,,
,,,,,,,,,,,,,,,,,5f1286c944b6a41e3f0e6826,18,2022-02-12_14h29.32.524,lexical_decision_task_DD_L6,2021.2.3,Linux x86_64,60.06006006,,,,,,,,,,,1.1392,1,,,,,,,,,,,,,,z,1,1.1392,,,,,,,,-0.056522926,-0.393313964,0,0,0,,0,104,104,154,1,THINT,HB,z,z,./images/THINTHB.png,,,,,,,,,,,,,,,,,,,,,,,,,,,,,,,,,,,
,,,,,,,,,,,,,,,,,5f1286c944b6a41e3f0e6826,18,2022-02-12_14h29.32.524,lexical_decision_task_DD_L6,2021.2.3,Linux x86_64,60.06006006,,,,,,,,,,,0.7276,1,,,,,,,,,,,,,,m,1,0.7276,,,,,,,,-0.056522926,-0.393313964,0,0,0,,0,105,105,77,1,WHEEL,HB,m,m,./images/WHEELHB.png,,,,,,,,,,,,,,,,,,,,,,,,,,,,,,,,,,,
,,,,,,,,,,,,,,,,,5f1286c944b6a41e3f0e6826,18,2022-02-12_14h29.32.524,lexical_decision_task_DD_L6,2021.2.3,Linux x86_64,60.06006006,,,,,,,,,,,0.8918,1,,,,,,,,,,,,,,z,1,0.8918,,,,,,,,-0.056522926,-0.393313964,0,0,0,,0,106,106,148,1,JOMS,HB,z,z,./images/JOMSHB.png,,,,,,,,,,,,,,,,,,,,,,,,,,,,,,,,,,,
,,,,,,,,,,,,,,,,,5f1286c944b6a41e3f0e6826,18,2022-02-12_14h29.32.524,lexical_decision_task_DD_L6,2021.2.3,Linux x86_64,60.06006006,,,,,,,,,,,0.6156,1,,,,,,,,,,,,,,m,1,0.6156,,,,,,,,-0.056522926,-0.393313964,0,0,0,,0,107,107,42,1,CHAIN,LB,m,m,./images/CHAINLB.png,,,,,,,,,,,,,,,,,,,,,,,,,,,,,,,,,,,
,,,,,,,,,,,,,,,,,5f1286c944b6a41e3f0e6826,18,2022-02-12_14h29.32.524,lexical_decision_task_DD_L6,2021.2.3,Linux x86_64,60.06006006,,,,,,,,,,,0.647,1,,,,,,,,,,,,,,z,1,0.647,,,,,,,,-0.056522926,-0.393313964,0,0,0,,0,108,108,138,1,PLICE,C,z,z,./images/PLICE.png,,,,,,,,,,,,,,,,,,,,,,,,,,,,,,,,,,,
,,,,,,,,,,,,,,,,,5f1286c944b6a41e3f0e6826,18,2022-02-12_14h29.32.524,lexical_decision_task_DD_L6,2021.2.3,Linux x86_64,60.06006006,,,,,,,,,,,0.6292,1,,,,,,,,,,,,,,z,1,0.6292,,,,,,,,-0.056522926,-0.393313964,0,0,0,,0,109,109,162,1,LEICH,C,z,z,./images/LEICH.png,,,,,,,,,,,,,,,,,,,,,,,,,,,,,,,,,,,
,,,,,,,,,,,,,,,,,5f1286c944b6a41e3f0e6826,18,2022-02-12_14h29.32.524,lexical_decision_task_DD_L6,2021.2.3,Linux x86_64,60.06006006,,,,,,,,,,,0.6806,1,,,,,,,,,,,,,,z,1,0.6806,,,,,,,,-0.056522926,-0.393313964,0,0,0,,0,110,110,126,1,GUELS,C,z,z,./images/GUELS.png,,,,,,,,,,,,,,,,,,,,,,,,,,,,,,,,,,,
,,,,,,,,,,,,,,,,,5f1286c944b6a41e3f0e6826,18,2022-02-12_14h29.32.524,lexical_decision_task_DD_L6,2021.2.3,Linux x86_64,60.06006006,,,,,,,,,,,0.9974,1,,,,,,,,,,,,,,m,1,0.9974,,,,,,,,-0.056522926,-0.393313964,0,0,0,,0,111,111,56,1,HEATER,HB,m,m,./images/HEATERHB.png,,,,,,,,,,,,,,,,,,,,,,,,,,,,,,,,,,,
,,,,,,,,,,,,,,,,,5f1286c944b6a41e3f0e6826,18,2022-02-12_14h29.32.524,lexical_decision_task_DD_L6,2021.2.3,Linux x86_64,60.06006006,,,,,,,,,,,0.893,1,,,,,,,,,,,,,,m,1,0.893,,,,,,,,-0.056522926,-0.393313964,0,0,0,,0,112,112,73,1,GLOVE,C,m,m,./images/GLOVE.png,,,,,,,,,,,,,,,,,,,,,,,,,,,,,,,,,,,
,,,,,,,,,,,,,,,,,5f1286c944b6a41e3f0e6826,18,2022-02-12_14h29.32.524,lexical_decision_task_DD_L6,2021.2.3,Linux x86_64,60.06006006,,,,,,,,,,,0.6346,1,,,,,,,,,,,,,,z,1,0.6346,,,,,,,,-0.056522926,-0.393313964,0,0,0,,0,113,113,164,1,SGREW,LB,z,z,./images/SGREWLB.png,,,,,,,,,,,,,,,,,,,,,,,,,,,,,,,,,,,
,,,,,,,,,,,,,,,,,5f1286c944b6a41e3f0e6826,18,2022-02-12_14h29.32.524,lexical_decision_task_DD_L6,2021.2.3,Linux x86_64,60.06006006,,,,,,,,,,,0.8582,1,,,,,,,,,,,,,,z,1,0.8582,,,,,,,,-0.056522926,-0.393313964,0,0,0,,0,114,114,92,1,PAIMS,LB,z,z,./images/PAIMSLB.png,,,,,,,,,,,,,,,,,,,,,,,,,,,,,,,,,,,
,,,,,,,,,,,,,,,,,5f1286c944b6a41e3f0e6826,18,2022-02-12_14h29.32.524,lexical_decision_task_DD_L6,2021.2.3,Linux x86_64,60.06006006,,,,,,,,,,,0.6555,1,,,,,,,,,,,,,,z,1,0.6555,,,,,,,,-0.056522926,-0.393313964,0,0,0,,0,115,115,143,1,MONGS,LB,z,z,./images/MONGSLB.png,,,,,,,,,,,,,,,,,,,,,,,,,,,,,,,,,,,
,,,,,,,,,,,,,,,,,5f1286c944b6a41e3f0e6826,18,2022-02-12_14h29.32.524,lexical_decision_task_DD_L6,2021.2.3,Linux x86_64,60.06006006,,,,,,,,,,,0.5105,1,,,,,,,,,,,,,,z,1,0.5105,,,,,,,,-0.056522926,-0.393313964,0,0,0,,0,116,116,129,1,PRANS,C,z,z,./images/PRANS.png,,,,,,,,,,,,,,,,,,,,,,,,,,,,,,,,,,,
,,,,,,,,,,,,,,,,,5f1286c944b6a41e3f0e6826,18,2022-02-12_14h29.32.524,lexical_decision_task_DD_L6,2021.2.3,Linux x86_64,60.06006006,,,,,,,,,,,0.5423,1,,,,,,,,,,,,,,m,1,0.5423,,,,,,,,-0.056522926,-0.393313964,0,0,0,,0,117,117,51,1,SAUCE,LB,m,m,./images/SAUCELB.png,,,,,,,,,,,,,,,,,,,,,,,,,,,,,,,,,,,
,,,,,,,,,,,,,,,,,5f1286c944b6a41e3f0e6826,18,2022-02-12_14h29.32.524,lexical_decision_task_DD_L6,2021.2.3,Linux x86_64,60.06006006,,,,,,,,,,,0.8936,1,,,,,,,,,,,,,,z,1,0.8936,,,,,,,,-0.056522926,-0.393313964,0,0,0,,0,118,118,140,1,DOVET,LB,z,z,./images/DOVETLB.png,,,,,,,,,,,,,,,,,,,,,,,,,,,,,,,,,,,
,,,,,,,,,,,,,,,,,5f1286c944b6a41e3f0e6826,18,2022-02-12_14h29.32.524,lexical_decision_task_DD_L6,2021.2.3,Linux x86_64,60.06006006,,,,,,,,,,,0.8858,1,,,,,,,,,,,,,,m,1,0.8858,,,,,,,,-0.056522926,-0.393313964,0,0,0,,0,119,119,14,1,FENCE,HB,m,m,./images/FENCEHB.png,,,,,,,,,,,,,,,,,,,,,,,,,,,,,,,,,,,
,,,,,,,,,,,,,,,,,5f1286c944b6a41e3f0e6826,18,2022-02-12_14h29.32.524,lexical_decision_task_DD_L6,2021.2.3,Linux x86_64,60.06006006,,,,,,,,,,,0.7355,1,,,,,,,,,,,,,,z,1,0.7355,,,,,,,,-0.056522926,-0.393313964,0,0,0,,0,120,120,115,1,MAWNS,HB,z,z,./images/MAWNSHB.png,,,,,,,,,,,,,,,,,,,,,,,,,,,,,,,,,,,
,,,,,,,,,,,,,,,,,5f1286c944b6a41e3f0e6826,18,2022-02-12_14h29.32.524,lexical_decision_task_DD_L6,2021.2.3,Linux x86_64,60.06006006,,,,,,,,,,,0.4957,1,,,,,,,,,,,,,,z,1,0.4957,,,,,,,,-0.056522926,-0.393313964,0,0,0,,0,121,121,102,1,DULLE,C,z,z,./images/DULLE.png,,,,,,,,,,,,,,,,,,,,,,,,,,,,,,,,,,,
,,,,,,,,,,,,,,,,,5f1286c944b6a41e3f0e6826,18,2022-02-12_14h29.32.524,lexical_decision_task_DD_L6,2021.2.3,Linux x86_64,60.06006006,,,,,,,,,,,1.3773,1,,,,,,,,,,,,,,m,1,1.3773,,,,,,,,-0.056522926,-0.393313964,0,0,0,,0,122,122,62,1,MAMMAL,HB,m,m,./images/MAMMALHB.png,,,,,,,,,,,,,,,,,,,,,,,,,,,,,,,,,,,
,,,,,,,,,,,,,,,,,5f1286c944b6a41e3f0e6826,18,2022-02-12_14h29.32.524,lexical_decision_task_DD_L6,2021.2.3,Linux x86_64,60.06006006,,,,,,,,,,,0.7514,1,,,,,,,,,,,,,,z,1,0.7514,,,,,,,,-0.056522926,-0.393313964,0,0,0,,0,123,123,120,1,RINED,C,z,z,./images/RINED.png,,,,,,,,,,,,,,,,,,,,,,,,,,,,,,,,,,,
,,,,,,,,,,,,,,,,,5f1286c944b6a41e3f0e6826,18,2022-02-12_14h29.32.524,lexical_decision_task_DD_L6,2021.2.3,Linux x86_64,60.06006006,,,,,,,,,,,0.6654,1,,,,,,,,,,,,,,z,1,0.6654,,,,,,,,-0.056522926,-0.393313964,0,0,0,,0,124,124,103,1,FLORT,HB,z,z,./images/FLORTHB.png,,,,,,,,,,,,,,,,,,,,,,,,,,,,,,,,,,,
,,,,,,,,,,,,,,,,,5f1286c944b6a41e3f0e6826,18,2022-02-12_14h29.32.524,lexical_decision_task_DD_L6,2021.2.3,Linux x86_64,60.06006006,,,,,,,,,,,0.7594,1,,,,,,,,,,,,,,m,1,0.7594,,,,,,,,-0.056522926,-0.393313964,0,0,0,space,0,125,125,38,1,ENGINE,HB,m,m,./images/ENGINEHB.png,0.7372,,,,,,,,,,,,,,,,,,,,,,,,,,,,,,,,,,
,,,,,,,,,,,,,,,,,5f1286c944b6a41e3f0e6826,18,2022-02-12_14h29.32.524,lexical_decision_task_DD_L6,2021.2.3,Linux x86_64,60.06006006,,,,,,,,,,,0.8924,1,,,,,,,,,,,,,,m,1,0.8924,,,,,,,,-0.056522926,-0.393313964,0,0,0,,0,126,126,59,1,BRUSH,HB,m,m,./images/BRUSHHB.png,,,,,,,,,,,,,,,,,,,,,,,,,,,,,,,,,,,
,,,,,,,,,,,,,,,,,5f1286c944b6a41e3f0e6826,18,2022-02-12_14h29.32.524,lexical_decision_task_DD_L6,2021.2.3,Linux x86_64,60.06006006,,,,,,,,,,,0.8519,1,,,,,,,,,,,,,,z,1,0.8519,,,,,,,,-0.056522926,-0.393313964,0,0,0,,0,127,127,97,1,CHIDS,HB,z,z,./images/CHIDSHB.png,,,,,,,,,,,,,,,,,,,,,,,,,,,,,,,,,,,
,,,,,,,,,,,,,,,,,5f1286c944b6a41e3f0e6826,18,2022-02-12_14h29.32.524,lexical_decision_task_DD_L6,2021.2.3,Linux x86_64,60.06006006,,,,,,,,,,,0.5214,1,,,,,,,,,,,,,,m,1,0.5214,,,,,,,,-0.056522926,-0.393313964,0,0,0,,0,128,128,46,1,MUMMY,C,m,m,./images/MUMMY.png,,,,,,,,,,,,,,,,,,,,,,,,,,,,,,,,,,,
,,,,,,,,,,,,,,,,,5f1286c944b6a41e3f0e6826,18,2022-02-12_14h29.32.524,lexical_decision_task_DD_L6,2021.2.3,Linux x86_64,60.06006006,,,,,,,,,,,0.9143,1,,,,,,,,,,,,,,z,1,0.9143,,,,,,,,-0.056522926,-0.393313964,0,0,0,,0,129,129,132,1,SCIFF,C,z,z,./images/SCIFF.png,,,,,,,,,,,,,,,,,,,,,,,,,,,,,,,,,,,
,,,,,,,,,,,,,,,,,5f1286c944b6a41e3f0e6826,18,2022-02-12_14h29.32.524,lexical_decision_task_DD_L6,2021.2.3,Linux x86_64,60.06006006,,,,,,,,,,,1.3145,1,,,,,,,,,,,,,,z,1,1.3145,,,,,,,,-0.056522926,-0.393313964,0,0,0,,0,130,130,127,1,NINDY,HB,z,z,./images/NINDYHB.png,,,,,,,,,,,,,,,,,,,,,,,,,,,,,,,,,,,
,,,,,,,,,,,,,,,,,5f1286c944b6a41e3f0e6826,18,2022-02-12_14h29.32.524,lexical_decision_task_DD_L6,2021.2.3,Linux x86_64,60.06006006,,,,,,,,,,,0.879,1,,,,,,,,,,,,,,m,1,0.879,,,,,,,,-0.056522926,-0.393313964,0,0,0,,0,131,131,9,1,DIVER,LB,m,m,./images/DIVERLB.png,,,,,,,,,,,,,,,,,,,,,,,,,,,,,,,,,,,
,,,,,,,,,,,,,,,,,5f1286c944b6a41e3f0e6826,18,2022-02-12_14h29.32.524,lexical_decision_task_DD_L6,2021.2.3,Linux x86_64,60.06006006,,,,,,,,,,,0.6439,1,,,,,,,,,,,,,,m,1,0.6439,,,,,,,,-0.056522926,-0.393313964,0,0,0,,0,132,132,21,1,DANCER,LB,m,m,./images/DANCERLB.png,,,,,,,,,,,,,,,,,,,,,,,,,,,,,,,,,,,
,,,,,,,,,,,,,,,,,5f1286c944b6a41e3f0e6826,18,2022-02-12_14h29.32.524,lexical_decision_task_DD_L6,2021.2.3,Linux x86_64,60.06006006,,,,,,,,,,,0.9403,1,,,,,,,,,,,,,,z,1,0.9403,,,,,,,,-0.056522926,-0.393313964,0,0,0,,0,133,133,119,1,PAFER,LB,z,z,./images/PAFERLB.png,,,,,,,,,,,,,,,,,,,,,,,,,,,,,,,,,,,
,,,,,,,,,,,,,,,,,5f1286c944b6a41e3f0e6826,18,2022-02-12_14h29.32.524,lexical_decision_task_DD_L6,2021.2.3,Linux x86_64,60.06006006,,,,,,,,,,,0.7566,1,,,,,,,,,,,,,,z,1,0.7566,,,,,,,,-0.056522926,-0.393313964,0,0,0,,0,134,134,112,1,MYING,HB,z,z,./images/MYINGHB.png,,,,,,,,,,,,,,,,,,,,,,,,,,,,,,,,,,,
,,,,,,,,,,,,,,,,,5f1286c944b6a41e3f0e6826,18,2022-02-12_14h29.32.524,lexical_decision_task_DD_L6,2021.2.3,Linux x86_64,60.06006006,,,,,,,,,,,0.6285,1,,,,,,,,,,,,,,z,1,0.6285,,,,,,,,-0.056522926,-0.393313964,0,0,0,,0,135,135,89,1,DRIEK,LB,z,z,./images/DRIEKLB.png,,,,,,,,,,,,,,,,,,,,,,,,,,,,,,,,,,,
,,,,,,,,,,,,,,,,,5f1286c944b6a41e3f0e6826,18,2022-02-12_14h29.32.524,lexical_decision_task_DD_L6,2021.2.3,Linux x86_64,60.06006006,,,,,,,,,,,0.5321,1,,,,,,,,,,,,,,z,1,0.5321,,,,,,,,-0.056522926,-0.393313964,0,0,0,,0,136,136,117,1,STEEG,C,z,z,./images/STEEG.png,,,,,,,,,,,,,,,,,,,,,,,,,,,,,,,,,,,
,,,,,,,,,,,,,,,,,5f1286c944b6a41e3f0e6826,18,2022-02-12_14h29.32.524,lexical_decision_task_DD_L6,2021.2.3,Linux x86_64,60.06006006,,,,,,,,,,,1.3982,1,,,,,,,,,,,,,,z,1,1.3982,,,,,,,,-0.056522926,-0.393313964,0,0,0,,0,137,137,159,1,CUDDY,C,z,z,./images/CUDDY.png,,,,,,,,,,,,,,,,,,,,,,,,,,,,,,,,,,,
,,,,,,,,,,,,,,,,,5f1286c944b6a41e3f0e6826,18,2022-02-12_14h29.32.524,lexical_decision_task_DD_L6,2021.2.3,Linux x86_64,60.06006006,,,,,,,,,,,0.7897,1,,,,,,,,,,,,,,m,1,0.7897,,,,,,,,-0.056522926,-0.393313964,0,0,0,,0,138,138,66,1,STATUE,LB,m,m,./images/STATUELB.png,,,,,,,,,,,,,,,,,,,,,,,,,,,,,,,,,,,
,,,,,,,,,,,,,,,,,5f1286c944b6a41e3f0e6826,18,2022-02-12_14h29.32.524,lexical_decision_task_DD_L6,2021.2.3,Linux x86_64,60.06006006,,,,,,,,,,,0.8311,0,,,,,,,,,,,,,,z,0,0.8311,,,,,,,,-0.056522926,-0.393313964,0,0,0,,0,139,139,76,1,MIDGET,C,m,m,./images/MIDGET.png,,,,,,,,,,,,,,,,,,,,,,,,,,,,,,,,,,,
,,,,,,,,,,,,,,,,,5f1286c944b6a41e3f0e6826,18,2022-02-12_14h29.32.524,lexical_decision_task_DD_L6,2021.2.3,Linux x86_64,60.06006006,,,,,,,,,,,1.4327,1,,,,,,,,,,,,,,z,1,1.4327,,,,,,,,-0.056522926,-0.393313964,0,0,0,,0,140,140,166,1,SHORY,HB,z,z,./images/SHORYHB.png,,,,,,,,,,,,,,,,,,,,,,,,,,,,,,,,,,,
,,,,,,,,,,,,,,,,,5f1286c944b6a41e3f0e6826,18,2022-02-12_14h29.32.524,lexical_decision_task_DD_L6,2021.2.3,Linux x86_64,60.06006006,,,,,,,,,,,0.9738,1,,,,,,,,,,,,,,m,1,0.9738,,,,,,,,-0.056522926,-0.393313964,0,0,0,,0,141,141,23,1,CLOTH,HB,m,m,./images/CLOTHHB.png,,,,,,,,,,,,,,,,,,,,,,,,,,,,,,,,,,,
,,,,,,,,,,,,,,,,,5f1286c944b6a41e3f0e6826,18,2022-02-12_14h29.32.524,lexical_decision_task_DD_L6,2021.2.3,Linux x86_64,60.06006006,,,,,,,,,,,0.6071,1,,,,,,,,,,,,,,z,1,0.6071,,,,,,,,-0.056522926,-0.393313964,0,0,0,,0,142,142,149,1,VEASE,LB,z,z,./images/VEASELB.png,,,,,,,,,,,,,,,,,,,,,,,,,,,,,,,,,,,
,,,,,,,,,,,,,,,,,5f1286c944b6a41e3f0e6826,18,2022-02-12_14h29.32.524,lexical_decision_task_DD_L6,2021.2.3,Linux x86_64,60.06006006,,,,,,,,,,,0.9481,1,,,,,,,,,,,,,,m,1,0.9481,,,,,,,,-0.056522926,-0.393313964,0,0,0,,0,143,143,6,1,STAIN,LB,m,m,./images/STAINLB.png,,,,,,,,,,,,,,,,,,,,,,,,,,,,,,,,,,,
,,,,,,,,,,,,,,,,,5f1286c944b6a41e3f0e6826,18,2022-02-12_14h29.32.524,lexical_decision_task_DD_L6,2021.2.3,Linux x86_64,60.06006006,,,,,,,,,,,0.9305,1,,,,,,,,,,,,,,z,1,0.9305,,,,,,,,-0.056522926,-0.393313964,0,0,0,,0,144,144,98,1,BAMPS,LB,z,z,./images/BAMPSLB.png,,,,,,,,,,,,,,,,,,,,,,,,,,,,,,,,,,,
,,,,,,,,,,,,,,,,,5f1286c944b6a41e3f0e6826,18,2022-02-12_14h29.32.524,lexical_decision_task_DD_L6,2021.2.3,Linux x86_64,60.06006006,,,,,,,,,,,2.9591,1,,,,,,,,,,,,,,m,1,2.9591,,,,,,,,-0.056522926,-0.393313964,0,0,0,,0,145,145,50,1,PILOT,HB,m,m,./images/PILOTHB.png,,,,,,,,,,,,,,,,,,,,,,,,,,,,,,,,,,,
,,,,,,,,,,,,,,,,,5f1286c944b6a41e3f0e6826,18,2022-02-12_14h29.32.524,lexical_decision_task_DD_L6,2021.2.3,Linux x86_64,60.06006006,,,,,,,,,,,0.7722,1,,,,,,,,,,,,,,m,1,0.7722,,,,,,,,-0.056522926,-0.393313964,0,0,0,,0,146,146,70,1,BANANA,C,m,m,./images/BANANA.png,,,,,,,,,,,,,,,,,,,,,,,,,,,,,,,,,,,
,,,,,,,,,,,,,,,,,5f1286c944b6a41e3f0e6826,18,2022-02-12_14h29.32.524,lexical_decision_task_DD_L6,2021.2.3,Linux x86_64,60.06006006,,,,,,,,,,,0.5146,1,,,,,,,,,,,,,,m,1,0.5146,,,,,,,,-0.056522926,-0.393313964,0,0,0,,0,147,147,4,1,BOXER,C,m,m,./images/BOXER.png,,,,,,,,,,,,,,,,,,,,,,,,,,,,,,,,,,,
,,,,,,,,,,,,,,,,,5f1286c944b6a41e3f0e6826,18,2022-02-12_14h29.32.524,lexical_decision_task_DD_L6,2021.2.3,Linux x86_64,60.06006006,,,,,,,,,,,0.4573,1,,,,,,,,,,,,,,m,1,0.4573,,,,,,,,-0.056522926,-0.393313964,0,0,0,,0,148,148,13,1,BUNNY,C,m,m,./images/BUNNY.png,,,,,,,,,,,,,,,,,,,,,,,,,,,,,,,,,,,
,,,,,,,,,,,,,,,,,5f1286c944b6a41e3f0e6826,18,2022-02-12_14h29.32.524,lexical_decision_task_DD_L6,2021.2.3,Linux x86_64,60.06006006,,,,,,,,,,,0.8212,1,,,,,,,,,,,,,,m,1,0.8212,,,,,,,,-0.056522926,-0.393313964,0,0,0,,0,149,149,8,1,CLIFF,HB,m,m,./images/CLIFFHB.png,,,,,,,,,,,,,,,,,,,,,,,,,,,,,,,,,,,
,,,,,,,,,,,,,,,,,5f1286c944b6a41e3f0e6826,18,2022-02-12_14h29.32.524,lexical_decision_task_DD_L6,2021.2.3,Linux x86_64,60.06006006,,,,,,,,,,,1.3207,1,,,,,,,,,,,,,,z,1,1.3207,,,,,,,,-0.056522926,-0.393313964,0,0,0,,0,150,150,133,1,POWDY,HB,z,z,./images/POWDYHB.png,,,,,,,,,,,,,,,,,,,,,,,,,,,,,,,,,,,
,,,,,,,,,,,,,,,,,5f1286c944b6a41e3f0e6826,18,2022-02-12_14h29.32.524,lexical_decision_task_DD_L6,2021.2.3,Linux x86_64,60.06006006,,,,,,,,,,,0.6625,1,,,,,,,,,,,,,,z,1,0.6625,,,,,,,,-0.056522926,-0.393313964,0,0,0,,0,151,151,156,1,HIXES,C,z,z,./images/HIXES.png,,,,,,,,,,,,,,,,,,,,,,,,,,,,,,,,,,,
,,,,,,,,,,,,,,,,,5f1286c944b6a41e3f0e6826,18,2022-02-12_14h29.32.524,lexical_decision_task_DD_L6,2021.2.3,Linux x86_64,60.06006006,,,,,,,,,,,0.7234,1,,,,,,,,,,,,,,m,1,0.7234,,,,,,,,-0.056522926,-0.393313964,0,0,0,,0,152,152,10,1,GARDEN,C,m,m,./images/GARDEN.png,,,,,,,,,,,,,,,,,,,,,,,,,,,,,,,,,,,
,,,,,,,,,,,,,,,,,5f1286c944b6a41e3f0e6826,18,2022-02-12_14h29.32.524,lexical_decision_task_DD_L6,2021.2.3,Linux x86_64,60.06006006,,,,,,,,,,,0.5003,1,,,,,,,,,,,,,,m,1,0.5003,,,,,,,,-0.056522926,-0.393313964,0,0,0,,0,153,153,63,1,BAKER,LB,m,m,./images/BAKERLB.png,,,,,,,,,,,,,,,,,,,,,,,,,,,,,,,,,,,
,,,,,,,,,,,,,,,,,5f1286c944b6a41e3f0e6826,18,2022-02-12_14h29.32.524,lexical_decision_task_DD_L6,2021.2.3,Linux x86_64,60.06006006,,,,,,,,,,,0.732,1,,,,,,,,,,,,,,z,1,0.732,,,,,,,,-0.056522926,-0.393313964,0,0,0,,0,154,154,121,1,CEERS,HB,z,z,./images/CEERSHB.png,,,,,,,,,,,,,,,,,,,,,,,,,,,,,,,,,,,
,,,,,,,,,,,,,,,,,5f1286c944b6a41e3f0e6826,18,2022-02-12_14h29.32.524,lexical_decision_task_DD_L6,2021.2.3,Linux x86_64,60.06006006,,,,,,,,,,,0.5869,1,,,,,,,,,,,,,,m,1,0.5869,,,,,,,,-0.056522926,-0.393313964,0,0,0,,0,155,155,52,1,DESERT,C,m,m,./images/DESERT.png,,,,,,,,,,,,,,,,,,,,,,,,,,,,,,,,,,,
,,,,,,,,,,,,,,,,,5f1286c944b6a41e3f0e6826,18,2022-02-12_14h29.32.524,lexical_decision_task_DD_L6,2021.2.3,Linux x86_64,60.06006006,,,,,,,,,,,0.709,1,,,,,,,,,,,,,,m,1,0.709,,,,,,,,-0.056522926,-0.393313964,0,0,0,,0,156,156,78,1,BROOM,LB,m,m,./images/BROOMLB.png,,,,,,,,,,,,,,,,,,,,,,,,,,,,,,,,,,,
,,,,,,,,,,,,,,,,,5f1286c944b6a41e3f0e6826,18,2022-02-12_14h29.32.524,lexical_decision_task_DD_L6,2021.2.3,Linux x86_64,60.06006006,,,,,,,,,,,0.8971,1,,,,,,,,,,,,,,z,1,0.8971,,,,,,,,-0.056522926,-0.393313964,0,0,0,,0,157,157,145,1,LAMEL,HB,z,z,./images/LAMELHB.png,,,,,,,,,,,,,,,,,,,,,,,,,,,,,,,,,,,
,,,,,,,,,,,,,,,,,5f1286c944b6a41e3f0e6826,18,2022-02-12_14h29.32.524,lexical_decision_task_DD_L6,2021.2.3,Linux x86_64,60.06006006,,,,,,,,,,,0.8437,1,,,,,,,,,,,,,,m,1,0.8437,,,,,,,,-0.056522926,-0.393313964,0,0,0,,0,158,158,5,1,BAMBOO,HB,m,m,./images/BAMBOOHB.png,,,,,,,,,,,,,,,,,,,,,,,,,,,,,,,,,,,
,,,,,,,,,,,,,,,,,5f1286c944b6a41e3f0e6826,18,2022-02-12_14h29.32.524,lexical_decision_task_DD_L6,2021.2.3,Linux x86_64,60.06006006,,,,,,,,,,,1.5215,0,,,,,,,,,,,,,,m,0,1.5215,,,,,,,,-0.056522926,-0.393313964,0,0,0,,0,159,159,142,1,PLASK,HB,z,z,./images/PLASKHB.png,,,,,,,,,,,,,,,,,,,,,,,,,,,,,,,,,,,
,,,,,,,,,,,,,,,,,5f1286c944b6a41e3f0e6826,18,2022-02-12_14h29.32.524,lexical_decision_task_DD_L6,2021.2.3,Linux x86_64,60.06006006,,,,,,,,,,,0.5533,1,,,,,,,,,,,,,,m,1,0.5533,,,,,,,,-0.056522926,-0.393313964,0,0,0,,0,160,160,82,1,PEBBLE,C,m,m,./images/PEBBLE.png,,,,,,,,,,,,,,,,,,,,,,,,,,,,,,,,,,,
,,,,,,,,,,,,,,,,,5f1286c944b6a41e3f0e6826,18,2022-02-12_14h29.32.524,lexical_decision_task_DD_L6,2021.2.3,Linux x86_64,60.06006006,,,,,,,,,,,1.005,1,,,,,,,,,,,,,,z,1,1.005,,,,,,,,-0.056522926,-0.393313964,0,0,0,,0,161,161,125,1,MOOKY,LB,z,z,./images/MOOKYLB.png,,,,,,,,,,,,,,,,,,,,,,,,,,,,,,,,,,,
,,,,,,,,,,,,,,,,,5f1286c944b6a41e3f0e6826,18,2022-02-12_14h29.32.524,lexical_decision_task_DD_L6,2021.2.3,Linux x86_64,60.06006006,,,,,,,,,,,1.2097,1,,,,,,,,,,,,,,m,1,1.2097,,,,,,,,-0.056522926,-0.393313964,0,0,0,,0,162,162,35,1,LLAMA,HB,m,m,./images/LLAMAHB.png,,,,,,,,,,,,,,,,,,,,,,,,,,,,,,,,,,,
,,,,,,,,,,,,,,,,,5f1286c944b6a41e3f0e6826,18,2022-02-12_14h29.32.524,lexical_decision_task_DD_L6,2021.2.3,Linux x86_64,60.06006006,,,,,,,,,,,1.1361,1,,,,,,,,,,,,,,m,1,1.1361,,,,,,,,-0.056522926,-0.393313964,0,0,0,,0,163,163,44,1,BASKET,HB,m,m,./images/BASKETHB.png,,,,,,,,,,,,,,,,,,,,,,,,,,,,,,,,,,,
,,,,,,,,,,,,,,,,,5f1286c944b6a41e3f0e6826,18,2022-02-12_14h29.32.524,lexical_decision_task_DD_L6,2021.2.3,Linux x86_64,60.06006006,,,,,,,,,,,0.6184,1,,,,,,,,,,,,,,m,1,0.6184,,,,,,,,-0.056522926,-0.393313964,0,0,0,,0,164,164,39,1,CANDY,LB,m,m,./images/CANDYLB.png,,,,,,,,,,,,,,,,,,,,,,,,,,,,,,,,,,,
,,,,,,,,,,,,,,,,,5f1286c944b6a41e3f0e6826,18,2022-02-12_14h29.32.524,lexical_decision_task_DD_L6,2021.2.3,Linux x86_64,60.06006006,,,,,,,,,,,0.5719,1,,,,,,,,,,,,,,m,1,0.5719,,,,,,,,-0.056522926,-0.393313964,0,0,0,,0,165,165,7,1,WAGON,C,m,m,./images/WAGON.png,,,,,,,,,,,,,,,,,,,,,,,,,,,,,,,,,,,
,,,,,,,,,,,,,,,,,5f1286c944b6a41e3f0e6826,18,2022-02-12_14h29.32.524,lexical_decision_task_DD_L6,2021.2.3,Linux x86_64,60.06006006,,,,,,,,,,,0.8672,1,,,,,,,,,,,,,,z,1,0.8672,,,,,,,,-0.056522926,-0.393313964,0,0,0,,0,166,166,104,1,GITTY,LB,z,z,./images/GITTYLB.png,,,,,,,,,,,,,,,,,,,,,,,,,,,,,,,,,,,
,,,,,,,,,,,,,,,,,5f1286c944b6a41e3f0e6826,18,2022-02-12_14h29.32.524,lexical_decision_task_DD_L6,2021.2.3,Linux x86_64,60.06006006,,,,,,,,,,,1.0224,1,,,,,,,,,,,,,,m,1,1.0224,,,,,,,,-0.056522926,-0.393313964,0,0,0,,0,167,167,19,1,DONKEY,C,m,m,./images/DONKEY.png,,,,,,,,,,,,,,,,,,,,,,,,,,,,,,,,,,,
,,,,,,,,,,,,,,,,,5f1286c944b6a41e3f0e6826,18,2022-02-12_14h29.32.524,lexical_decision_task_DD_L6,2021.2.3,Linux x86_64,60.06006006,,,,,,,,,,,,,,,,,,,,,,,,,,,,,,,,,,,,,,,,,,,,,,,,How likely will it be that you will recognize the words presented very blurred on a scale of 0 (not likely) to 100 (most likely)?,,,,,0.002682368,-0.414782763,1,0,0,jol_adv,5,9.3802,0,0,0,2,1,,,,,,,,,,,,,,,,,,,,,
,,,,,,,,,,,,,,,,,5f1286c944b6a41e3f0e6826,18,2022-02-12_14h29.32.524,lexical_decision_task_DD_L6,2021.2.3,Linux x86_64,60.06006006,,,,,,,,,,,,,,,,,,,,,,,,,,,,,,,,,,,,,,,,,,,,,,,,How likely will it be that you will recognize the words presented clearly on a scale of 0 (not likely) to 100 (most likely)?,,,,,,,,,,,5,1.8906,0,1,1,0,1,,,,,,,,,,,,,,,,,,,,,
,,,,,,,,,,,,,,,,,5f1286c944b6a41e3f0e6826,18,2022-02-12_14h29.32.524,lexical_decision_task_DD_L6,2021.2.3,Linux x86_64,60.06006006,,,,,,,,,,,,,,,,,,,,,,,,,,,,,,,,,,,,,,,,,,,,,,,,How likely will it be that you will recognize the words presented slighly blurred on a scale of 0 (not likely) to 100 (most likely)?,,,,,,,,,,,4,0.7555,0,2,2,1,1,,,,,,,,,,,,,,,,,,,,,
,,0.041687648,-0.412509123,1,0,0,,,,,,1,test,"In the next phase you will be presented with the words from the the first phase. Your job is to decide whether you remember seeing the word or not. If you remember seeing the word press ""old"" or type ""m"". If you do not remember seeing the word press ""new"" or type ""z"". Please press the space bar or click on continue to begin. ",,,5f1286c944b6a41e3f0e6826,18,2022-02-12_14h29.32.524,lexical_decision_task_DD_L6,2021.2.3,Linux x86_64,60.06006006,,,,,,,,,,,,,,,,,,,,,,,,,,,,,,,,,,,,,,,,,,,,,,,,,,,,,,,,,,,,,,,,,,instr_done_button,0,0,0,0,1,,,,,,,,,,,,,,,
,,0.050327222,-0.384322882,1,0,0,,,,,,1,test,"In the next phase you will be presented with the words from the the first phase. Your job is to decide whether you remember seeing the word or not. If you remember seeing the word press ""old"" or type ""m"". If you do not remember seeing the word press ""new"" or type ""z"". Please press the space bar or click on continue to begin. ",,,5f1286c944b6a41e3f0e6826,18,2022-02-12_14h29.32.524,lexical_decision_task_DD_L6,2021.2.3,Linux x86_64,60.06006006,,,,,,,,,,,,,,,,,,,,,,,,,,,,,,,,,,,,,,,,,,,,,,,,,,,,,,,,,,,,,,,,,,instr_done_button,1,0,1,0,1,,,,,,,,,,,,,,,
space,0.8141,0.050327222,-0.384322882,0,0,0,,,,,,1,test,"In the next phase you will be presented with the words from the the first phase. Your job is to decide whether you remember seeing the word or not. If you remember seeing the word press ""old"" or type ""m"". If you do not remember seeing the word press ""new"" or type ""z"". Please press the space bar or click on continue to begin. ",,,5f1286c944b6a41e3f0e6826,18,2022-02-12_14h29.32.524,lexical_decision_task_DD_L6,2021.2.3,Linux x86_64,60.06006006,,,,,,,,,,,,,,,,,,,,,,,,,,,,,,,,,,,,,,,,,,,,,,,,,,,,,,,,,,,,,,,,,,,2,0,2,0,1,,,,,,,,,,,,,,,
space,1.1641,0.062062661,-0.366970778,0,0,0,,,,,,1,test,"In the next phase you will be presented with the words from the the first phase. Your job is to decide whether you remember seeing the word or not. If you remember seeing the word press ""old"" or type ""m"". If you do not remember seeing the word press ""new"" or type ""z"". Please press the space bar or click on continue to begin. ",,,5f1286c944b6a41e3f0e6826,18,2022-02-12_14h29.32.524,lexical_decision_task_DD_L6,2021.2.3,Linux x86_64,60.06006006,,,,,,,,,,,,,,,,,,,,,,,,,,,,,,,,,,,,,,,,,,,,,,,,,,,,,,,,,,,,,,,,,,,3,0,3,0,1,,,,,,,,,,,,,,,
,,0.038141171,-0.397233486,1,0,0,,,,,,1,test,"In the next phase you will be presented with the words from the the first phase. Your job is to decide whether you remember seeing the word or not. If you remember seeing the word press ""old"" or type ""m"". If you do not remember seeing the word press ""new"" or type ""z"". Please press the space bar or click on continue to begin. ",,,5f1286c944b6a41e3f0e6826,18,2022-02-12_14h29.32.524,lexical_decision_task_DD_L6,2021.2.3,Linux x86_64,60.06006006,,,,,,,,,,,,,,,,,,,,,,,,,,,,,,,,,,,,,,,,,,,,,,,,,,,,,,,,,,,,,,,,,,instr_done_button,4,0,4,0,1,,,,,,,,,,,,,,,
,,,,,,,,,,,,,,,,,5f1286c944b6a41e3f0e6826,18,2022-02-12_14h29.32.524,lexical_decision_task_DD_L6,2021.2.3,Linux x86_64,60.06006006,,,,,,,,,,,3.6092,1,,,,,,,,,,,,,,,,,,,,,,,,0.038141171,-0.397233486,0,0,0,,,,,,,BURIAL,HB,z,y,./images/BURIALHB.png,,,,,,,,,,,,,,,,,,,,,z,1,3.6092,,,,,,,,0,0,0,143,1
,,,,,,,,,,,,,,,,,5f1286c944b6a41e3f0e6826,18,2022-02-12_14h29.32.524,lexical_decision_task_DD_L6,2021.2.3,Linux x86_64,60.06006006,,,,,,,,,,,0.6879,1,,,,,,,,,,,,,,,,,,,,,,,,0.038141171,-0.397233486,0,0,0,,,,,,,SHIELD,LB,m,y,./images/SHIELDLB.png,,,,,,,,,,,,,,,,,,,,,m,1,0.6879,,,,,,,,0,1,1,48,1
,,,,,,,,,,,,,,,,,5f1286c944b6a41e3f0e6826,18,2022-02-12_14h29.32.524,lexical_decision_task_DD_L6,2021.2.3,Linux x86_64,60.06006006,,,,,,,,,,,0.7064,0,,,,,,,,,,,,,,,,,,,,,,,,0.038141171,-0.397233486,0,0,0,,,,,,,MOTOR,C,z,y,./images/MOTOR.png,,,,,,,,,,,,,,,,,,,,,m,0,0.7064,,,,,,,,0,2,2,97,1
,,,,,,,,,,,,,,,,,5f1286c944b6a41e3f0e6826,18,2022-02-12_14h29.32.524,lexical_decision_task_DD_L6,2021.2.3,Linux x86_64,60.06006006,,,,,,,,,,,1.5345,1,,,,,,,,,,,,,,,,,,,,,,,,0.038141171,-0.397233486,0,0,0,,,,,,,BAMBOO,HB,m,y,./images/BAMBOOHB.png,,,,,,,,,,,,,,,,,,,,,m,1,1.5345,,,,,,,,0,3,3,5,1
,,,,,,,,,,,,,,,,,5f1286c944b6a41e3f0e6826,18,2022-02-12_14h29.32.524,lexical_decision_task_DD_L6,2021.2.3,Linux x86_64,60.06006006,,,,,,,,,,,3.5892,1,,,,,,,,,,,,,,,,,,,,,,,,0.038141171,-0.397233486,0,0,0,,,,,,,WHISKY,HB,m,y,./images/WHISKYHB.png,,,,,,,,,,,,,,,,,,,,,m,1,3.5892,,,,,,,,0,4,4,83,1
,,,,,,,,,,,,,,,,,5f1286c944b6a41e3f0e6826,18,2022-02-12_14h29.32.524,lexical_decision_task_DD_L6,2021.2.3,Linux x86_64,60.06006006,,,,,,,,,,,0.5387,0,,,,,,,,,,,,,,,,,,,,,,,,0.038141171,-0.397233486,0,0,0,,,,,,,CANDLE,C,z,y,./images/CANDLE.png,,,,,,,,,,,,,,,,,,,,,m,0,0.5387,,,,,,,,0,5,5,145,1
,,,,,,,,,,,,,,,,,5f1286c944b6a41e3f0e6826,18,2022-02-12_14h29.32.524,lexical_decision_task_DD_L6,2021.2.3,Linux x86_64,60.06006006,,,,,,,,,,,0.9215,1,,,,,,,,,,,,,,,,,,,,,,,,0.038141171,-0.397233486,0,0,0,,,,,,,DOUGH,C,z,y,./images/DOUGH.png,,,,,,,,,,,,,,,,,,,,,z,1,0.9215,,,,,,,,0,6,6,103,1
,,,,,,,,,,,,,,,,,5f1286c944b6a41e3f0e6826,18,2022-02-12_14h29.32.524,lexical_decision_task_DD_L6,2021.2.3,Linux x86_64,60.06006006,,,,,,,,,,,0.6929,1,,,,,,,,,,,,,,,,,,,,,,,,0.038141171,-0.397233486,0,0,0,,,,,,,PISTOL,HB,m,y,./images/PISTOLHB.png,,,,,,,,,,,,,,,,,,,,,m,1,0.6929,,,,,,,,0,7,7,29,1
,,,,,,,,,,,,,,,,,5f1286c944b6a41e3f0e6826,18,2022-02-12_14h29.32.524,lexical_decision_task_DD_L6,2021.2.3,Linux x86_64,60.06006006,,,,,,,,,,,1.6596,0,,,,,,,,,,,,,,,,,,,,,,,,0.038141171,-0.397233486,0,0,0,,,,,,,PARCEL,LB,m,y,./images/PARCELLB.png,,,,,,,,,,,,,,,,,,,,,z,0,1.6596,,,,,,,,0,8,8,18,1
,,,,,,,,,,,,,,,,,5f1286c944b6a41e3f0e6826,18,2022-02-12_14h29.32.524,lexical_decision_task_DD_L6,2021.2.3,Linux x86_64,60.06006006,,,,,,,,,,,0.7148,1,,,,,,,,,,,,,,,,,,,,,,,,0.038141171,-0.397233486,0,0,0,,,,,,,STEAK,C,m,y,./images/STEAK.png,,,,,,,,,,,,,,,,,,,,,m,1,0.7148,,,,,,,,0,9,9,31,1
,,,,,,,,,,,,,,,,,5f1286c944b6a41e3f0e6826,18,2022-02-12_14h29.32.524,lexical_decision_task_DD_L6,2021.2.3,Linux x86_64,60.06006006,,,,,,,,,,,1.8284,1,,,,,,,,,,,,,,,,,,,,,,,,0.038141171,-0.397233486,0,0,0,,,,,,,CRUMB,HB,z,y,./images/CRUMBHB.png,,,,,,,,,,,,,,,,,,,,,z,1,1.8284,,,,,,,,0,10,10,113,1
,,,,,,,,,,,,,,,,,5f1286c944b6a41e3f0e6826,18,2022-02-12_14h29.32.524,lexical_decision_task_DD_L6,2021.2.3,Linux x86_64,60.06006006,,,,,,,,,,,0.6359,1,,,,,,,,,,,,,,,,,,,,,,,,0.038141171,-0.397233486,0,0,0,,,,,,,BANANA,C,m,y,./images/BANANA.png,,,,,,,,,,,,,,,,,,,,,m,1,0.6359,,,,,,,,0,11,11,70,1
,,,,,,,,,,,,,,,,,5f1286c944b6a41e3f0e6826,18,2022-02-12_14h29.32.524,lexical_decision_task_DD_L6,2021.2.3,Linux x86_64,60.06006006,,,,,,,,,,,0.8975,1,,,,,,,,,,,,,,,,,,,,,,,,0.038141171,-0.397233486,0,0,0,,,,,,,WEASEL,HB,z,y,./images/WEASELHB.png,,,,,,,,,,,,,,,,,,,,,z,1,0.8975,,,,,,,,0,12,12,164,1
,,,,,,,,,,,,,,,,,5f1286c944b6a41e3f0e6826,18,2022-02-12_14h29.32.524,lexical_decision_task_DD_L6,2021.2.3,Linux x86_64,60.06006006,,,,,,,,,,,0.6429,1,,,,,,,,,,,,,,,,,,,,,,,,0.038141171,-0.397233486,0,0,0,,,,,,,FALCON,C,z,y,./images/FALCON.png,,,,,,,,,,,,,,,,,,,,,z,1,0.6429,,,,,,,,0,13,13,112,1
,,,,,,,,,,,,,,,,,5f1286c944b6a41e3f0e6826,18,2022-02-12_14h29.32.524,lexical_decision_task_DD_L6,2021.2.3,Linux x86_64,60.06006006,,,,,,,,,,,0.6603,1,,,,,,,,,,,,,,,,,,,,,,,,0.038141171,-0.397233486,0,0,0,,,,,,,PLANK,C,z,y,./images/PLANK.png,,,,,,,,,,,,,,,,,,,,,z,1,0.6603,,,,,,,,0,14,14,85,1
,,,,,,,,,,,,,,,,,5f1286c944b6a41e3f0e6826,18,2022-02-12_14h29.32.524,lexical_decision_task_DD_L6,2021.2.3,Linux x86_64,60.06006006,,,,,,,,,,,0.7165,1,,,,,,,,,,,,,,,,,,,,,,,,0.038141171,-0.397233486,0,0,0,,,,,,,JAGUAR,LB,z,y,./images/JAGUARLB.png,,,,,,,,,,,,,,,,,,,,,z,1,0.7165,,,,,,,,0,15,15,102,1
,,,,,,,,,,,,,,,,,5f1286c944b6a41e3f0e6826,18,2022-02-12_14h29.32.524,lexical_decision_task_DD_L6,2021.2.3,Linux x86_64,60.06006006,,,,,,,,,,,1.3845,0,,,,,,,,,,,,,,,,,,,,,,,,0.038141171,-0.397233486,0,0,0,,,,,,,SKIING,HB,z,y,./images/SKIINGHB.png,,,,,,,,,,,,,,,,,,,,,m,0,1.3845,,,,,,,,0,16,16,101,1
,,,,,,,,,,,,,,,,,5f1286c944b6a41e3f0e6826,18,2022-02-12_14h29.32.524,lexical_decision_task_DD_L6,2021.2.3,Linux x86_64,60.06006006,,,,,,,,,,,0.9601,1,,,,,,,,,,,,,,,,,,,,,,,,0.038141171,-0.397233486,0,0,0,,,,,,,ENGINE,HB,m,y,./images/ENGINEHB.png,,,,,,,,,,,,,,,,,,,,,m,1,0.9601,,,,,,,,0,17,17,38,1
,,,,,,,,,,,,,,,,,5f1286c944b6a41e3f0e6826,18,2022-02-12_14h29.32.524,lexical_decision_task_DD_L6,2021.2.3,Linux x86_64,60.06006006,,,,,,,,,,,1.2696,1,,,,,,,,,,,,,,,,,,,,,,,,0.038141171,-0.397233486,0,0,0,,,,,,,BELLY,C,z,y,./images/BELLY.png,,,,,,,,,,,,,,,,,,,,,z,1,1.2696,,,,,,,,0,18,18,94,1
,,,,,,,,,,,,,,,,,5f1286c944b6a41e3f0e6826,18,2022-02-12_14h29.32.524,lexical_decision_task_DD_L6,2021.2.3,Linux x86_64,60.06006006,,,,,,,,,,,2.4024,1,,,,,,,,,,,,,,,,,,,,,,,,0.038141171,-0.397233486,0,0,0,,,,,,,DRUMS,C,z,y,./images/DRUMS.png,,,,,,,,,,,,,,,,,,,,,z,1,2.4024,,,,,,,,0,19,19,133,1
,,,,,,,,,,,,,,,,,5f1286c944b6a41e3f0e6826,18,2022-02-12_14h29.32.524,lexical_decision_task_DD_L6,2021.2.3,Linux x86_64,60.06006006,,,,,,,,,,,1.4101,1,,,,,,,,,,,,,,,,,,,,,,,,0.038141171,-0.397233486,0,0,0,,,,,,,CHALK,C,m,y,./images/CHALK.png,,,,,,,,,,,,,,,,,,,,,m,1,1.4101,,,,,,,,0,20,20,25,1
,,,,,,,,,,,,,,,,,5f1286c944b6a41e3f0e6826,18,2022-02-12_14h29.32.524,lexical_decision_task_DD_L6,2021.2.3,Linux x86_64,60.06006006,,,,,,,,,,,0.1239,0,,,,,,,,,,,,,,,,,,,,,,,,0.038141171,-0.397233486,0,0,0,,,,,,,BUTTER,LB,m,y,./images/BUTTERLB.png,,,,,,,,,,,,,,,,,,,,,z,0,0.1239,,,,,,,,0,21,21,27,1
,,,,,,,,,,,,,,,,,5f1286c944b6a41e3f0e6826,18,2022-02-12_14h29.32.524,lexical_decision_task_DD_L6,2021.2.3,Linux x86_64,60.06006006,,,,,,,,,,,0.0222,1,,,,,,,,,,,,,,,,,,,,,,,,0.038141171,-0.397233486,0,0,0,,,,,,,GLOVE,C,m,y,./images/GLOVE.png,,,,,,,,,,,,,,,,,,,,,m,1,0.0222,,,,,,,,0,22,22,73,1
,,,,,,,,,,,,,,,,,5f1286c944b6a41e3f0e6826,18,2022-02-12_14h29.32.524,lexical_decision_task_DD_L6,2021.2.3,Linux x86_64,60.06006006,,,,,,,,,,,0.1439,1,,,,,,,,,,,,,,,,,,,,,,,,0.038141171,-0.397233486,0,0,0,,,,,,,BOXER,C,m,y,./images/BOXER.png,,,,,,,,,,,,,,,,,,,,,m,1,0.1439,,,,,,,,0,23,23,4,1
,,,,,,,,,,,,,,,,,5f1286c944b6a41e3f0e6826,18,2022-02-12_14h29.32.524,lexical_decision_task_DD_L6,2021.2.3,Linux x86_64,60.06006006,,,,,,,,,,,0.1041,0,,,,,,,,,,,,,,,,,,,,,,,,0.038141171,-0.397233486,0,0,0,,,,,,,HOCKEY,HB,m,y,./images/HOCKEYHB.png,,,,,,,,,,,,,,,,,,,,,z,0,0.1041,,,,,,,,0,24,24,32,1
,,,,,,,,,,,,,,,,,5f1286c944b6a41e3f0e6826,18,2022-02-12_14h29.32.524,lexical_decision_task_DD_L6,2021.2.3,Linux x86_64,60.06006006,,,,,,,,,,,0.245,0,,,,,,,,,,,,,,,,,,,,,,,,0.038141171,-0.397233486,0,0,0,,,,,,,LLAMA,HB,m,y,./images/LLAMAHB.png,,,,,,,,,,,,,,,,,,,,,z,0,0.245,,,,,,,,0,25,25,35,1
,,,,,,,,,,,,,,,,,5f1286c944b6a41e3f0e6826,18,2022-02-12_14h29.32.524,lexical_decision_task_DD_L6,2021.2.3,Linux x86_64,60.06006006,,,,,,,,,,,0.2078,0,,,,,,,,,,,,,,,,,,,,,,,,0.038141171,-0.397233486,0,0,0,,,,,,,MONKEY,LB,m,y,./images/MONKEYLB.png,,,,,,,,,,,,,,,,,,,,,z,0,0.2078,,,,,,,,0,26,26,45,1
,,,,,,,,,,,,,,,,,5f1286c944b6a41e3f0e6826,18,2022-02-12_14h29.32.524,lexical_decision_task_DD_L6,2021.2.3,Linux x86_64,60.06006006,,,,,,,,,,,0.0752,1,,,,,,,,,,,,,,,,,,,,,,,,0.038141171,-0.397233486,0,0,0,,,,,,,BABOON,C,z,y,./images/BABOON.png,,,,,,,,,,,,,,,,,,,,,z,1,0.0752,,,,,,,,0,27,27,142,1
,,,,,,,,,,,,,,,,,5f1286c944b6a41e3f0e6826,18,2022-02-12_14h29.32.524,lexical_decision_task_DD_L6,2021.2.3,Linux x86_64,60.06006006,,,,,,,,,,,0.1212,1,,,,,,,,,,,,,,,,,,,,,,,,0.038141171,-0.397233486,0,0,0,,,,,,,PLANET,HB,m,y,./images/PLANETHB.png,,,,,,,,,,,,,,,,,,,,,m,1,0.1212,,,,,,,,0,28,28,80,1
,,,,,,,,,,,,,,,,,5f1286c944b6a41e3f0e6826,18,2022-02-12_14h29.32.524,lexical_decision_task_DD_L6,2021.2.3,Linux x86_64,60.06006006,,,,,,,,,,,0.1033,1,,,,,,,,,,,,,,,,,,,,,,,,0.038141171,-0.397233486,0,0,0,,,,,,,FENCE,HB,m,y,./images/FENCEHB.png,,,,,,,,,,,,,,,,,,,,,m,1,0.1033,,,,,,,,0,29,29,14,1
,,,,,,,,,,,,,,,,,5f1286c944b6a41e3f0e6826,18,2022-02-12_14h29.32.524,lexical_decision_task_DD_L6,2021.2.3,Linux x86_64,60.06006006,,,,,,,,,,,0.0197,1,,,,,,,,,,,,,,,,,,,,,,,,0.038141171,-0.397233486,0,0,0,,,,,,,GRANNY,HB,m,y,./images/GRANNYHB.png,,,,,,,,,,,,,,,,,,,,,m,1,0.0197,,,,,,,,0,30,30,20,1
,,,,,,,,,,,,,,,,,5f1286c944b6a41e3f0e6826,18,2022-02-12_14h29.32.524,lexical_decision_task_DD_L6,2021.2.3,Linux x86_64,60.06006006,,,,,,,,,,,0.053,0,,,,,,,,,,,,,,,,,,,,,,,,0.038141171,-0.397233486,0,0,0,,,,,,,LADDER,HB,z,y,./images/LADDERHB.png,,,,,,,,,,,,,,,,,,,,,m,0,0.053,,,,,,,,0,31,31,122,1
,,,,,,,,,,,,,,,,,5f1286c944b6a41e3f0e6826,18,2022-02-12_14h29.32.524,lexical_decision_task_DD_L6,2021.2.3,Linux x86_64,60.06006006,,,,,,,,,,,0.0411,0,,,,,,,,,,,,,,,,,,,,,,,,0.038141171,-0.397233486,0,0,0,,,,,,,SCREW,LB,z,y,./images/SCREWLB.png,,,,,,,,,,,,,,,,,,,,,m,0,0.0411,,,,,,,,0,32,32,108,1
,,,,,,,,,,,,,,,,,5f1286c944b6a41e3f0e6826,18,2022-02-12_14h29.32.524,lexical_decision_task_DD_L6,2021.2.3,Linux x86_64,60.06006006,,,,,,,,,,,0.1379,1,,,,,,,,,,,,,,,,,,,,,,,,0.038141171,-0.397233486,0,0,0,,,,,,,TOWEL,C,m,y,./images/TOWEL.png,,,,,,,,,,,,,,,,,,,,,m,1,0.1379,,,,,,,,0,33,33,1,1
,,,,,,,,,,,,,,,,,5f1286c944b6a41e3f0e6826,18,2022-02-12_14h29.32.524,lexical_decision_task_DD_L6,2021.2.3,Linux x86_64,60.06006006,,,,,,,,,,,0.0018,0,,,,,,,,,,,,,,,,,,,,,,,,0.038141171,-0.397233486,0,0,0,,,,,,,STREAM,HB,m,y,./images/STREAMHB.png,,,,,,,,,,,,,,,,,,,,,z,0,0.0018,,,,,,,,0,34,34,41,1
,,,,,,,,,,,,,,,,,5f1286c944b6a41e3f0e6826,18,2022-02-12_14h29.32.524,lexical_decision_task_DD_L6,2021.2.3,Linux x86_64,60.06006006,,,,,,,,,,,0.0373,0,,,,,,,,,,,,,,,,,,,,,,,,0.038141171,-0.397233486,0,0,0,,,,,,,MIDGET,C,m,y,./images/MIDGET.png,,,,,,,,,,,,,,,,,,,,,z,0,0.0373,,,,,,,,0,35,35,76,1
,,,,,,,,,,,,,,,,,5f1286c944b6a41e3f0e6826,18,2022-02-12_14h29.32.524,lexical_decision_task_DD_L6,2021.2.3,Linux x86_64,60.06006006,,,,,,,,,,,0.1156,1,,,,,,,,,,,,,,,,,,,,,,,,0.038141171,-0.397233486,0,0,0,,,,,,,TRIPOD,LB,z,y,./images/TRIPODLB.png,,,,,,,,,,,,,,,,,,,,,z,1,0.1156,,,,,,,,0,36,36,138,1
,,,,,,,,,,,,,,,,,5f1286c944b6a41e3f0e6826,18,2022-02-12_14h29.32.524,lexical_decision_task_DD_L6,2021.2.3,Linux x86_64,60.06006006,,,,,,,,,,,0.1004,0,,,,,,,,,,,,,,,,,,,,,,,,0.038141171,-0.397233486,0,0,0,,,,,,,CURRY,LB,m,y,./images/CURRYLB.png,,,,,,,,,,,,,,,,,,,,,z,0,0.1004,,,,,,,,0,37,37,60,1
,,,,,,,,,,,,,,,,,5f1286c944b6a41e3f0e6826,18,2022-02-12_14h29.32.524,lexical_decision_task_DD_L6,2021.2.3,Linux x86_64,60.06006006,,,,,,,,,,,0.0017,0,,,,,,,,,,,,,,,,,,,,,,,,0.038141171,-0.397233486,0,0,0,,,,,,,CHERRY,LB,m,y,./images/CHERRYLB.png,,,,,,,,,,,,,,,,,,,,,z,0,0.0017,,,,,,,,0,38,38,54,1
,,,,,,,,,,,,,,,,,5f1286c944b6a41e3f0e6826,18,2022-02-12_14h29.32.524,lexical_decision_task_DD_L6,2021.2.3,Linux x86_64,60.06006006,,,,,,,,,,,0.0954,0,,,,,,,,,,,,,,,,,,,,,,,,0.038141171,-0.397233486,0,0,0,,,,,,,INFANT,C,z,y,./images/INFANT.png,,,,,,,,,,,,,,,,,,,,,m,0,0.0954,,,,,,,,0,39,39,160,1
,,,,,,,,,,,,,,,,,5f1286c944b6a41e3f0e6826,18,2022-02-12_14h29.32.524,lexical_decision_task_DD_L6,2021.2.3,Linux x86_64,60.06006006,,,,,,,,,,,0.1104,0,,,,,,,,,,,,,,,,,,,,,,,,0.038141171,-0.397233486,0,0,0,,,,,,,MUSCLE,C,z,y,./images/MUSCLE.png,,,,,,,,,,,,,,,,,,,,,m,0,0.1104,,,,,,,,0,40,40,88,1
,,,,,,,,,,,,,,,,,5f1286c944b6a41e3f0e6826,18,2022-02-12_14h29.32.524,lexical_decision_task_DD_L6,2021.2.3,Linux x86_64,60.06006006,,,,,,,,,,,0.0226,1,,,,,,,,,,,,,,,,,,,,,,,,0.038141171,-0.397233486,0,0,0,space,,,,,,MUMMY,C,m,y,./images/MUMMY.png,0.9213,,,,,,,,,,,,,,,,,,,,m,1,0.0226,,,,,,,,0,41,41,46,1
,,,,,,,,,,,,,,,,,5f1286c944b6a41e3f0e6826,18,2022-02-12_14h29.32.524,lexical_decision_task_DD_L6,2021.2.3,Linux x86_64,60.06006006,,,,,,,,,,,0.0264,0,,,,,,,,,,,,,,,,,,,,,,,,0.038141171,-0.397233486,0,0,0,,,,,,,JUMPER,HB,m,y,./images/JUMPERHB.png,,,,,,,,,,,,,,,,,,,,,z,0,0.0264,,,,,,,,0,42,42,74,1
,,,,,,,,,,,,,,,,,5f1286c944b6a41e3f0e6826,18,2022-02-12_14h29.32.524,lexical_decision_task_DD_L6,2021.2.3,Linux x86_64,60.06006006,,,,,,,,,,,0.1472,0,,,,,,,,,,,,,,,,,,,,,,,,0.038141171,-0.397233486,0,0,0,,,,,,,SWEAT,LB,z,y,./images/SWEATLB.png,,,,,,,,,,,,,,,,,,,,,m,0,0.1472,,,,,,,,0,43,43,150,1
,,,,,,,,,,,,,,,,,5f1286c944b6a41e3f0e6826,18,2022-02-12_14h29.32.524,lexical_decision_task_DD_L6,2021.2.3,Linux x86_64,60.06006006,,,,,,,,,,,0.0027,1,,,,,,,,,,,,,,,,,,,,,,,,0.038141171,-0.397233486,0,0,0,,,,,,,CLOTH,HB,m,y,./images/CLOTHHB.png,,,,,,,,,,,,,,,,,,,,,m,1,0.0027,,,,,,,,0,44,44,23,1
,,,,,,,,,,,,,,,,,5f1286c944b6a41e3f0e6826,18,2022-02-12_14h29.32.524,lexical_decision_task_DD_L6,2021.2.3,Linux x86_64,60.06006006,,,,,,,,,,,0.0207,0,,,,,,,,,,,,,,,,,,,,,,,,0.038141171,-0.397233486,0,0,0,,,,,,,ALLEY,C,m,y,./images/ALLEY.png,,,,,,,,,,,,,,,,,,,,,z,0,0.0207,,,,,,,,0,45,45,55,1
,,,,,,,,,,,,,,,,,5f1286c944b6a41e3f0e6826,18,2022-02-12_14h29.32.524,lexical_decision_task_DD_L6,2021.2.3,Linux x86_64,60.06006006,,,,,,,,,,,0.0751,1,,,,,,,,,,,,,,,,,,,,,,,,0.038141171,-0.397233486,0,0,0,,,,,,,NOOSE,LB,z,y,./images/NOOSELB.png,,,,,,,,,,,,,,,,,,,,,z,1,0.0751,,,,,,,,0,46,46,156,1
,,,,,,,,,,,,,,,,,5f1286c944b6a41e3f0e6826,18,2022-02-12_14h29.32.524,lexical_decision_task_DD_L6,2021.2.3,Linux x86_64,60.06006006,,,,,,,,,,,0.0027,0,,,,,,,,,,,,,,,,,,,,,,,,0.038141171,-0.397233486,0,0,0,,,,,,,JELLY,C,z,y,./images/JELLY.png,,,,,,,,,,,,,,,,,,,,,m,0,0.0027,,,,,,,,0,47,47,148,1
,,,,,,,,,,,,,,,,,5f1286c944b6a41e3f0e6826,18,2022-02-12_14h29.32.524,lexical_decision_task_DD_L6,2021.2.3,Linux x86_64,60.06006006,,,,,,,,,,,0.005,0,,,,,,,,,,,,,,,,,,,,,,,,0.038141171,-0.397233486,0,0,0,,,,,,,SMOKER,HB,z,y,./images/SMOKERHB.png,,,,,,,,,,,,,,,,,,,,,m,0,0.005,,,,,,,,0,48,48,110,1
,,,,,,,,,,,,,,,,,5f1286c944b6a41e3f0e6826,18,2022-02-12_14h29.32.524,lexical_decision_task_DD_L6,2021.2.3,Linux x86_64,60.06006006,,,,,,,,,,,0.1533,1,,,,,,,,,,,,,,,,,,,,,,,,0.038141171,-0.397233486,0,0,0,,,,,,,MAGGOT,LB,z,y,./images/MAGGOTLB.png,,,,,,,,,,,,,,,,,,,,,z,1,0.1533,,,,,,,,0,49,49,117,1
,,,,,,,,,,,,,,,,,5f1286c944b6a41e3f0e6826,18,2022-02-12_14h29.32.524,lexical_decision_task_DD_L6,2021.2.3,Linux x86_64,60.06006006,,,,,,,,,,,0.0021,0,,,,,,,,,,,,,,,,,,,,,,,,0.038141171,-0.397233486,0,0,0,,,,,,,RAZOR,C,m,y,./images/RAZOR.png,,,,,,,,,,,,,,,,,,,,,z,0,0.0021,,,,,,,,0,50,50,34,1
,,,,,,,,,,,,,,,,,5f1286c944b6a41e3f0e6826,18,2022-02-12_14h29.32.524,lexical_decision_task_DD_L6,2021.2.3,Linux x86_64,60.06006006,,,,,,,,,,,0.0015,1,,,,,,,,,,,,,,,,,,,,,,,,0.038141171,-0.397233486,0,0,0,,,,,,,SAILOR,C,z,y,./images/SAILOR.png,,,,,,,,,,,,,,,,,,,,,z,1,0.0015,,,,,,,,0,51,51,151,1
,,,,,,,,,,,,,,,,,5f1286c944b6a41e3f0e6826,18,2022-02-12_14h29.32.524,lexical_decision_task_DD_L6,2021.2.3,Linux x86_64,60.06006006,,,,,,,,,,,0.0568,1,,,,,,,,,,,,,,,,,,,,,,,,0.038141171,-0.397233486,0,0,0,,,,,,,SQUARE,LB,z,y,./images/SQUARELB.png,,,,,,,,,,,,,,,,,,,,,z,1,0.0568,,,,,,,,0,52,52,90,1
,,,,,,,,,,,,,,,,,5f1286c944b6a41e3f0e6826,18,2022-02-12_14h29.32.524,lexical_decision_task_DD_L6,2021.2.3,Linux x86_64,60.06006006,,,,,,,,,,,0.0771,1,,,,,,,,,,,,,,,,,,,,,,,,0.038141171,-0.397233486,0,0,0,,,,,,,BUBBLE,HB,m,y,./images/BUBBLEHB.png,,,,,,,,,,,,,,,,,,,,,m,1,0.0771,,,,,,,,0,53,53,71,1
,,,,,,,,,,,,,,,,,5f1286c944b6a41e3f0e6826,18,2022-02-12_14h29.32.524,lexical_decision_task_DD_L6,2021.2.3,Linux x86_64,60.06006006,,,,,,,,,,,0.0385,0,,,,,,,,,,,,,,,,,,,,,,,,0.038141171,-0.397233486,0,0,0,,,,,,,RHINO,LB,z,y,./images/RHINOLB.png,,,,,,,,,,,,,,,,,,,,,m,0,0.0385,,,,,,,,0,54,54,93,1
,,,,,,,,,,,,,,,,,5f1286c944b6a41e3f0e6826,18,2022-02-12_14h29.32.524,lexical_decision_task_DD_L6,2021.2.3,Linux x86_64,60.06006006,,,,,,,,,,,2.0256,0,,,,,,,,,,,,,,,,,,,,,,,,-0.414874236,0.268701355,0,0,0,,,,,,,BONNET,HB,z,y,./images/BONNETHB.png,,,,,,,,,,,,,,,,,,,,,m,0,2.0256,,,,,,,,0,55,55,95,1
,,,,,,,,,,,,,,,,,5f1286c944b6a41e3f0e6826,18,2022-02-12_14h29.32.524,lexical_decision_task_DD_L6,2021.2.3,Linux x86_64,60.06006006,,,,,,,,,,,0.0925,1,,,,,,,,,,,,,,,,,,,,,,,,-0.414874236,0.268701355,0,0,0,,,,,,,CASINO,C,m,y,./images/CASINO.png,,,,,,,,,,,,,,,,,,,,,m,1,0.0925,,,,,,,,0,56,56,28,1
,,,,,,,,,,,,,,,,,5f1286c944b6a41e3f0e6826,18,2022-02-12_14h29.32.524,lexical_decision_task_DD_L6,2021.2.3,Linux x86_64,60.06006006,,,,,,,,,,,0.1738,1,,,,,,,,,,,,,,,,,,,,,,,,-0.414874236,0.268701355,0,0,0,,,,,,,BASKET,HB,m,y,./images/BASKETHB.png,,,,,,,,,,,,,,,,,,,,,m,1,0.1738,,,,,,,,0,57,57,44,1
,,,,,,,,,,,,,,,,,5f1286c944b6a41e3f0e6826,18,2022-02-12_14h29.32.524,lexical_decision_task_DD_L6,2021.2.3,Linux x86_64,60.06006006,,,,,,,,,,,0.0014,0,,,,,,,,,,,,,,,,,,,,,,,,-0.414874236,0.268701355,0,0,0,,,,,,,PEACH,HB,z,y,./images/PEACHHB.png,,,,,,,,,,,,,,,,,,,,,m,0,0.0014,,,,,,,,0,58,58,119,1
,,,,,,,,,,,,,,,,,5f1286c944b6a41e3f0e6826,18,2022-02-12_14h29.32.524,lexical_decision_task_DD_L6,2021.2.3,Linux x86_64,60.06006006,,,,,,,,,,,0.0798,1,,,,,,,,,,,,,,,,,,,,,,,,-0.414874236,0.268701355,0,0,0,,,,,,,MOSQUE,C,z,y,./images/MOSQUE.png,,,,,,,,,,,,,,,,,,,,,z,1,0.0798,,,,,,,,0,59,59,127,1
,,,,,,,,,,,,,,,,,5f1286c944b6a41e3f0e6826,18,2022-02-12_14h29.32.524,lexical_decision_task_DD_L6,2021.2.3,Linux x86_64,60.06006006,,,,,,,,,,,0.0066,1,,,,,,,,,,,,,,,,,,,,,,,,-0.414874236,0.268701355,0,0,0,,,,,,,PAINT,C,z,y,./images/PAINT.png,,,,,,,,,,,,,,,,,,,,,z,1,0.0066,,,,,,,,0,60,60,91,1
,,,,,,,,,,,,,,,,,5f1286c944b6a41e3f0e6826,18,2022-02-12_14h29.32.524,lexical_decision_task_DD_L6,2021.2.3,Linux x86_64,60.06006006,,,,,,,,,,,0.0015,1,,,,,,,,,,,,,,,,,,,,,,,,-0.414874236,0.268701355,0,0,0,,,,,,,PICKLE,HB,z,y,./images/PICKLEHB.png,,,,,,,,,,,,,,,,,,,,,z,1,0.0015,,,,,,,,0,61,61,98,1
,,,,,,,,,,,,,,,,,5f1286c944b6a41e3f0e6826,18,2022-02-12_14h29.32.524,lexical_decision_task_DD_L6,2021.2.3,Linux x86_64,60.06006006,,,,,,,,,,,0.002,0,,,,,,,,,,,,,,,,,,,,,,,,-0.414874236,0.268701355,0,0,0,,,,,,,CANDY,LB,m,y,./images/CANDYLB.png,,,,,,,,,,,,,,,,,,,,,z,0,0.002,,,,,,,,0,62,62,39,1
,,,,,,,,,,,,,,,,,5f1286c944b6a41e3f0e6826,18,2022-02-12_14h29.32.524,lexical_decision_task_DD_L6,2021.2.3,Linux x86_64,60.06006006,,,,,,,,,,,0.0096,0,,,,,,,,,,,,,,,,,,,,,,,,-0.414874236,0.268701355,0,0,0,,,,,,,WAGON,C,m,y,./images/WAGON.png,,,,,,,,,,,,,,,,,,,,,z,0,0.0096,,,,,,,,0,63,63,7,1
,,,,,,,,,,,,,,,,,5f1286c944b6a41e3f0e6826,18,2022-02-12_14h29.32.524,lexical_decision_task_DD_L6,2021.2.3,Linux x86_64,60.06006006,,,,,,,,,,,0.0568,0,,,,,,,,,,,,,,,,,,,,,,,,-0.414874236,0.268701355,0,0,0,,,,,,,PASTA,HB,z,y,./images/PASTAHB.png,,,,,,,,,,,,,,,,,,,,,m,0,0.0568,,,,,,,,0,64,64,89,1
,,,,,,,,,,,,,,,,,5f1286c944b6a41e3f0e6826,18,2022-02-12_14h29.32.524,lexical_decision_task_DD_L6,2021.2.3,Linux x86_64,60.06006006,,,,,,,,,,,0.157,0,,,,,,,,,,,,,,,,,,,,,,,,-0.414874236,0.268701355,0,0,0,,,,,,,STAIN,LB,m,y,./images/STAINLB.png,,,,,,,,,,,,,,,,,,,,,z,0,0.157,,,,,,,,0,65,65,6,1
,,,,,,,,,,,,,,,,,5f1286c944b6a41e3f0e6826,18,2022-02-12_14h29.32.524,lexical_decision_task_DD_L6,2021.2.3,Linux x86_64,60.06006006,,,,,,,,,,,0.002,1,,,,,,,,,,,,,,,,,,,,,,,,-0.414874236,0.268701355,0,0,0,,,,,,,SWING,C,z,y,./images/SWING.png,,,,,,,,,,,,,,,,,,,,,z,1,0.002,,,,,,,,0,66,66,124,1
,,,,,,,,,,,,,,,,,5f1286c944b6a41e3f0e6826,18,2022-02-12_14h29.32.524,lexical_decision_task_DD_L6,2021.2.3,Linux x86_64,60.06006006,,,,,,,,,,,0.0291,1,,,,,,,,,,,,,,,,,,,,,,,,-0.414874236,0.268701355,0,0,0,,,,,,,CLOWN,C,m,y,./images/CLOWN.png,,,,,,,,,,,,,,,,,,,,,m,1,0.0291,,,,,,,,0,67,67,22,1
,,,,,,,,,,,,,,,,,5f1286c944b6a41e3f0e6826,18,2022-02-12_14h29.32.524,lexical_decision_task_DD_L6,2021.2.3,Linux x86_64,60.06006006,,,,,,,,,,,0.0488,0,,,,,,,,,,,,,,,,,,,,,,,,-0.414874236,0.268701355,0,0,0,,,,,,,LAGOON,HB,m,y,./images/LAGOONHB.png,,,,,,,,,,,,,,,,,,,,,z,0,0.0488,,,,,,,,0,68,68,47,1
,,,,,,,,,,,,,,,,,5f1286c944b6a41e3f0e6826,18,2022-02-12_14h29.32.524,lexical_decision_task_DD_L6,2021.2.3,Linux x86_64,60.06006006,,,,,,,,,,,0.0013,0,,,,,,,,,,,,,,,,,,,,,,,,-0.414874236,0.268701355,0,0,0,,,,,,,DANCER,LB,m,y,./images/DANCERLB.png,,,,,,,,,,,,,,,,,,,,,z,0,0.0013,,,,,,,,0,69,69,21,1
,,,,,,,,,,,,,,,,,5f1286c944b6a41e3f0e6826,18,2022-02-12_14h29.32.524,lexical_decision_task_DD_L6,2021.2.3,Linux x86_64,60.06006006,,,,,,,,,,,0.0244,0,,,,,,,,,,,,,,,,,,,,,,,,-0.414874236,0.268701355,0,0,0,,,,,,,TWINS,LB,z,y,./images/TWINSLB.png,,,,,,,,,,,,,,,,,,,,,m,0,0.0244,,,,,,,,0,70,70,144,1
,,,,,,,,,,,,,,,,,5f1286c944b6a41e3f0e6826,18,2022-02-12_14h29.32.524,lexical_decision_task_DD_L6,2021.2.3,Linux x86_64,60.06006006,,,,,,,,,,,0.0017,1,,,,,,,,,,,,,,,,,,,,,,,,-0.414874236,0.268701355,0,0,0,,,,,,,RULER,C,m,y,./images/RULER.png,,,,,,,,,,,,,,,,,,,,,m,1,0.0017,,,,,,,,0,71,71,79,1
,,,,,,,,,,,,,,,,,5f1286c944b6a41e3f0e6826,18,2022-02-12_14h29.32.524,lexical_decision_task_DD_L6,2021.2.3,Linux x86_64,60.06006006,,,,,,,,,,,0.0894,0,,,,,,,,,,,,,,,,,,,,,,,,-0.414874236,0.268701355,0,0,0,,,,,,,DONKEY,C,m,y,./images/DONKEY.png,,,,,,,,,,,,,,,,,,,,,z,0,0.0894,,,,,,,,0,72,72,19,1
,,,,,,,,,,,,,,,,,5f1286c944b6a41e3f0e6826,18,2022-02-12_14h29.32.524,lexical_decision_task_DD_L6,2021.2.3,Linux x86_64,60.06006006,,,,,,,,,,,0.0048,1,,,,,,,,,,,,,,,,,,,,,,,,-0.414874236,0.268701355,0,0,0,,,,,,,BAKER,LB,m,y,./images/BAKERLB.png,,,,,,,,,,,,,,,,,,,,,m,1,0.0048,,,,,,,,0,73,73,63,1
,,,,,,,,,,,,,,,,,5f1286c944b6a41e3f0e6826,18,2022-02-12_14h29.32.524,lexical_decision_task_DD_L6,2021.2.3,Linux x86_64,60.06006006,,,,,,,,,,,0.1751,1,,,,,,,,,,,,,,,,,,,,,,,,-0.414874236,0.268701355,0,0,0,,,,,,,BLOKE,LB,m,y,./images/BLOKELB.png,,,,,,,,,,,,,,,,,,,,,m,1,0.1751,,,,,,,,0,74,74,12,1
,,,,,,,,,,,,,,,,,5f1286c944b6a41e3f0e6826,18,2022-02-12_14h29.32.524,lexical_decision_task_DD_L6,2021.2.3,Linux x86_64,60.06006006,,,,,,,,,,,0.1154,0,,,,,,,,,,,,,,,,,,,,,,,,-0.414874236,0.268701355,0,0,0,,,,,,,CLOUD,HB,m,y,./images/CLOUDHB.png,,,,,,,,,,,,,,,,,,,,,z,0,0.1154,,,,,,,,0,75,75,26,1
,,,,,,,,,,,,,,,,,5f1286c944b6a41e3f0e6826,18,2022-02-12_14h29.32.524,lexical_decision_task_DD_L6,2021.2.3,Linux x86_64,60.06006006,,,,,,,,,,,0.0435,1,,,,,,,,,,,,,,,,,,,,,,,,-0.414874236,0.268701355,0,0,0,,,,,,,SUNSET,C,z,y,./images/SUNSET.png,,,,,,,,,,,,,,,,,,,,,z,1,0.0435,,,,,,,,0,76,76,166,1
,,,,,,,,,,,,,,,,,5f1286c944b6a41e3f0e6826,18,2022-02-12_14h29.32.524,lexical_decision_task_DD_L6,2021.2.3,Linux x86_64,60.06006006,,,,,,,,,,,0.0284,0,,,,,,,,,,,,,,,,,,,,,,,,-0.414874236,0.268701355,0,0,0,,,,,,,BROOM,LB,m,y,./images/BROOMLB.png,,,,,,,,,,,,,,,,,,,,,z,0,0.0284,,,,,,,,0,77,77,78,1
,,,,,,,,,,,,,,,,,5f1286c944b6a41e3f0e6826,18,2022-02-12_14h29.32.524,lexical_decision_task_DD_L6,2021.2.3,Linux x86_64,60.06006006,,,,,,,,,,,0.0504,1,,,,,,,,,,,,,,,,,,,,,,,,-0.414874236,0.268701355,0,0,0,,,,,,,BIRTH,C,z,y,./images/BIRTH.png,,,,,,,,,,,,,,,,,,,,,z,1,0.0504,,,,,,,,0,78,78,121,1
,,,,,,,,,,,,,,,,,5f1286c944b6a41e3f0e6826,18,2022-02-12_14h29.32.524,lexical_decision_task_DD_L6,2021.2.3,Linux x86_64,60.06006006,,,,,,,,,,,0.0316,1,,,,,,,,,,,,,,,,,,,,,,,,-0.414874236,0.268701355,0,0,0,,,,,,,GRAIN,LB,z,y,./images/GRAINLB.png,,,,,,,,,,,,,,,,,,,,,z,1,0.0316,,,,,,,,0,79,79,159,1
,,,,,,,,,,,,,,,,,5f1286c944b6a41e3f0e6826,18,2022-02-12_14h29.32.524,lexical_decision_task_DD_L6,2021.2.3,Linux x86_64,60.06006006,,,,,,,,,,,0.1017,1,,,,,,,,,,,,,,,,,,,,,,,,-0.414874236,0.268701355,0,0,0,,,,,,,CHAIN,LB,m,y,./images/CHAINLB.png,,,,,,,,,,,,,,,,,,,,,m,1,0.1017,,,,,,,,0,80,80,42,1
,,,,,,,,,,,,,,,,,5f1286c944b6a41e3f0e6826,18,2022-02-12_14h29.32.524,lexical_decision_task_DD_L6,2021.2.3,Linux x86_64,60.06006006,,,,,,,,,,,0.1575,0,,,,,,,,,,,,,,,,,,,,,,,,-0.414874236,0.268701355,0,0,0,,,,,,,SAUCE,LB,m,y,./images/SAUCELB.png,,,,,,,,,,,,,,,,,,,,,z,0,0.1575,,,,,,,,0,81,81,51,1
,,,,,,,,,,,,,,,,,5f1286c944b6a41e3f0e6826,18,2022-02-12_14h29.32.524,lexical_decision_task_DD_L6,2021.2.3,Linux x86_64,60.06006006,,,,,,,,,,,0.0717,0,,,,,,,,,,,,,,,,,,,,,,,,-0.414874236,0.268701355,0,0,0,,,,,,,SLOPE,LB,m,y,./images/SLOPELB.png,,,,,,,,,,,,,,,,,,,,,z,0,0.0717,,,,,,,,0,82,82,30,1
,,,,,,,,,,,,,,,,,5f1286c944b6a41e3f0e6826,18,2022-02-12_14h29.32.524,lexical_decision_task_DD_L6,2021.2.3,Linux x86_64,60.06006006,,,,,,,,,,,0.0447,1,,,,,,,,,,,,,,,,,,,,,,,,-0.414874236,0.268701355,0,0,0,space,,,,,,BARREL,HB,z,y,./images/BARRELHB.png,1.18,,,,,,,,,,,,,,,,,,,,z,1,0.0447,,,,,,,,0,83,83,116,1
,,,,,,,,,,,,,,,,,5f1286c944b6a41e3f0e6826,18,2022-02-12_14h29.32.524,lexical_decision_task_DD_L6,2021.2.3,Linux x86_64,60.06006006,,,,,,,,,,,0.0678,1,,,,,,,,,,,,,,,,,,,,,,,,-0.414874236,0.268701355,0,0,0,,,,,,,POKER,C,m,y,./images/POKER.png,,,,,,,,,,,,,,,,,,,,,m,1,0.0678,,,,,,,,0,84,84,67,1
,,,,,,,,,,,,,,,,,5f1286c944b6a41e3f0e6826,18,2022-02-12_14h29.32.524,lexical_decision_task_DD_L6,2021.2.3,Linux x86_64,60.06006006,,,,,,,,,,,0.1828,0,,,,,,,,,,,,,,,,,,,,,,,,-0.414874236,0.268701355,0,0,0,,,,,,,ONION,LB,z,y,./images/ONIONLB.png,,,,,,,,,,,,,,,,,,,,,m,0,0.1828,,,,,,,,0,85,85,135,1
,,,,,,,,,,,,,,,,,5f1286c944b6a41e3f0e6826,18,2022-02-12_14h29.32.524,lexical_decision_task_DD_L6,2021.2.3,Linux x86_64,60.06006006,,,,,,,,,,,0.0239,1,,,,,,,,,,,,,,,,,,,,,,,,-0.414874236,0.268701355,0,0,0,,,,,,,CRUST,C,z,y,./images/CRUST.png,,,,,,,,,,,,,,,,,,,,,z,1,0.0239,,,,,,,,0,86,86,163,1
,,,,,,,,,,,,,,,,,5f1286c944b6a41e3f0e6826,18,2022-02-12_14h29.32.524,lexical_decision_task_DD_L6,2021.2.3,Linux x86_64,60.06006006,,,,,,,,,,,0.1287,1,,,,,,,,,,,,,,,,,,,,,,,,-0.414874236,0.268701355,0,0,0,,,,,,,BEARD,HB,z,y,./images/BEARDHB.png,,,,,,,,,,,,,,,,,,,,,z,1,0.1287,,,,,,,,0,87,87,86,1
,,,,,,,,,,,,,,,,,5f1286c944b6a41e3f0e6826,18,2022-02-12_14h29.32.524,lexical_decision_task_DD_L6,2021.2.3,Linux x86_64,60.06006006,,,,,,,,,,,0.0409,1,,,,,,,,,,,,,,,,,,,,,,,,-0.414874236,0.268701355,0,0,0,,,,,,,URINE,C,z,y,./images/URINE.png,,,,,,,,,,,,,,,,,,,,,z,1,0.0409,,,,,,,,0,88,88,154,1
,,,,,,,,,,,,,,,,,5f1286c944b6a41e3f0e6826,18,2022-02-12_14h29.32.524,lexical_decision_task_DD_L6,2021.2.3,Linux x86_64,60.06006006,,,,,,,,,,,0.1253,0,,,,,,,,,,,,,,,,,,,,,,,,-0.414874236,0.268701355,0,0,0,,,,,,,CRATER,LB,m,y,./images/CRATERLB.png,,,,,,,,,,,,,,,,,,,,,z,0,0.1253,,,,,,,,0,89,89,3,1
,,,,,,,,,,,,,,,,,5f1286c944b6a41e3f0e6826,18,2022-02-12_14h29.32.524,lexical_decision_task_DD_L6,2021.2.3,Linux x86_64,60.06006006,,,,,,,,,,,0.0022,0,,,,,,,,,,,,,,,,,,,,,,,,-0.414874236,0.268701355,0,0,0,,,,,,,BISHOP,C,m,y,./images/BISHOP.png,,,,,,,,,,,,,,,,,,,,,z,0,0.0022,,,,,,,,0,90,90,49,1
,,,,,,,,,,,,,,,,,5f1286c944b6a41e3f0e6826,18,2022-02-12_14h29.32.524,lexical_decision_task_DD_L6,2021.2.3,Linux x86_64,60.06006006,,,,,,,,,,,0.0904,1,,,,,,,,,,,,,,,,,,,,,,,,-0.414874236,0.268701355,0,0,0,,,,,,,PIMPLE,HB,z,y,./images/PIMPLEHB.png,,,,,,,,,,,,,,,,,,,,,z,1,0.0904,,,,,,,,0,91,91,155,1
,,,,,,,,,,,,,,,,,5f1286c944b6a41e3f0e6826,18,2022-02-12_14h29.32.524,lexical_decision_task_DD_L6,2021.2.3,Linux x86_64,60.06006006,,,,,,,,,,,0.1179,1,,,,,,,,,,,,,,,,,,,,,,,,-0.414874236,0.268701355,0,0,0,,,,,,,TOMATO,LB,z,y,./images/TOMATOLB.png,,,,,,,,,,,,,,,,,,,,,z,1,0.1179,,,,,,,,0,92,92,84,1
,,,,,,,,,,,,,,,,,5f1286c944b6a41e3f0e6826,18,2022-02-12_14h29.32.524,lexical_decision_task_DD_L6,2021.2.3,Linux x86_64,60.06006006,,,,,,,,,,,0.0172,0,,,,,,,,,,,,,,,,,,,,,,,,-0.414874236,0.268701355,0,0,0,,,,,,,PACKET,HB,z,y,./images/PACKETHB.png,,,,,,,,,,,,,,,,,,,,,m,0,0.0172,,,,,,,,0,93,93,140,1
,,,,,,,,,,,,,,,,,5f1286c944b6a41e3f0e6826,18,2022-02-12_14h29.32.524,lexical_decision_task_DD_L6,2021.2.3,Linux x86_64,60.06006006,,,,,,,,,,,0.0905,0,,,,,,,,,,,,,,,,,,,,,,,,-0.414874236,0.268701355,0,0,0,,,,,,,TIGER,C,m,y,./images/TIGER.png,,,,,,,,,,,,,,,,,,,,,z,0,0.0905,,,,,,,,0,94,94,37,1
,,,,,,,,,,,,,,,,,5f1286c944b6a41e3f0e6826,18,2022-02-12_14h29.32.524,lexical_decision_task_DD_L6,2021.2.3,Linux x86_64,60.06006006,,,,,,,,,,,0.073,0,,,,,,,,,,,,,,,,,,,,,,,,-0.414874236,0.268701355,0,0,0,,,,,,,DRILL,LB,m,y,./images/DRILLLB.png,,,,,,,,,,,,,,,,,,,,,z,0,0.073,,,,,,,,0,95,95,81,1
,,,,,,,,,,,,,,,,,5f1286c944b6a41e3f0e6826,18,2022-02-12_14h29.32.524,lexical_decision_task_DD_L6,2021.2.3,Linux x86_64,60.06006006,,,,,,,,,,,0.118,0,,,,,,,,,,,,,,,,,,,,,,,,-0.414874236,0.268701355,0,0,0,,,,,,,FLASK,LB,m,y,./images/FLASKLB.png,,,,,,,,,,,,,,,,,,,,,z,0,0.118,,,,,,,,0,96,96,72,1
,,,,,,,,,,,,,,,,,5f1286c944b6a41e3f0e6826,18,2022-02-12_14h29.32.524,lexical_decision_task_DD_L6,2021.2.3,Linux x86_64,60.06006006,,,,,,,,,,,0.0881,1,,,,,,,,,,,,,,,,,,,,,,,,-0.414874236,0.268701355,0,0,0,,,,,,,TORCH,HB,z,y,./images/TORCHHB.png,,,,,,,,,,,,,,,,,,,,,z,1,0.0881,,,,,,,,0,97,97,152,1
,,,,,,,,,,,,,,,,,5f1286c944b6a41e3f0e6826,18,2022-02-12_14h29.32.524,lexical_decision_task_DD_L6,2021.2.3,Linux x86_64,60.06006006,,,,,,,,,,,0.0772,0,,,,,,,,,,,,,,,,,,,,,,,,-0.414874236,0.268701355,0,0,0,,,,,,,STOVE,HB,m,y,./images/STOVEHB.png,,,,,,,,,,,,,,,,,,,,,z,0,0.0772,,,,,,,,0,98,98,2,1
,,,,,,,,,,,,,,,,,5f1286c944b6a41e3f0e6826,18,2022-02-12_14h29.32.524,lexical_decision_task_DD_L6,2021.2.3,Linux x86_64,60.06006006,,,,,,,,,,,0.0499,1,,,,,,,,,,,,,,,,,,,,,,,,-0.414874236,0.268701355,0,0,0,,,,,,,THROAT,LB,z,y,./images/THROATLB.png,,,,,,,,,,,,,,,,,,,,,z,1,0.0499,,,,,,,,0,99,99,120,1
,,,,,,,,,,,,,,,,,5f1286c944b6a41e3f0e6826,18,2022-02-12_14h29.32.524,lexical_decision_task_DD_L6,2021.2.3,Linux x86_64,60.06006006,,,,,,,,,,,0.1116,1,,,,,,,,,,,,,,,,,,,,,,,,-0.414874236,0.268701355,0,0,0,,,,,,,BANNER,C,z,y,./images/BANNER.png,,,,,,,,,,,,,,,,,,,,,z,1,0.1116,,,,,,,,0,100,100,136,1
,,,,,,,,,,,,,,,,,5f1286c944b6a41e3f0e6826,18,2022-02-12_14h29.32.524,lexical_decision_task_DD_L6,2021.2.3,Linux x86_64,60.06006006,,,,,,,,,,,0.0755,1,,,,,,,,,,,,,,,,,,,,,,,,-0.414874236,0.268701355,0,0,0,,,,,,,ATTIC,LB,z,y,./images/ATTICLB.png,,,,,,,,,,,,,,,,,,,,,z,1,0.0755,,,,,,,,0,101,101,111,1
,,,,,,,,,,,,,,,,,5f1286c944b6a41e3f0e6826,18,2022-02-12_14h29.32.524,lexical_decision_task_DD_L6,2021.2.3,Linux x86_64,60.06006006,,,,,,,,,,,0.2368,1,,,,,,,,,,,,,,,,,,,,,,,,-0.414874236,0.268701355,0,0,0,,,,,,,HAMMER,LB,m,y,./images/HAMMERLB.png,,,,,,,,,,,,,,,,,,,,,m,1,0.2368,,,,,,,,0,102,102,75,1
,,,,,,,,,,,,,,,,,5f1286c944b6a41e3f0e6826,18,2022-02-12_14h29.32.524,lexical_decision_task_DD_L6,2021.2.3,Linux x86_64,60.06006006,,,,,,,,,,,0.0102,0,,,,,,,,,,,,,,,,,,,,,,,,-0.414874236,0.268701355,0,0,0,,,,,,,PILOT,HB,m,y,./images/PILOTHB.png,,,,,,,,,,,,,,,,,,,,,z,0,0.0102,,,,,,,,0,103,103,50,1
,,,,,,,,,,,,,,,,,5f1286c944b6a41e3f0e6826,18,2022-02-12_14h29.32.524,lexical_decision_task_DD_L6,2021.2.3,Linux x86_64,60.06006006,,,,,,,,,,,0.036,0,,,,,,,,,,,,,,,,,,,,,,,,-0.414874236,0.268701355,0,0,0,,,,,,,SPORT,LB,z,y,./images/SPORTLB.png,,,,,,,,,,,,,,,,,,,,,m,0,0.036,,,,,,,,0,104,104,132,1
,,,,,,,,,,,,,,,,,5f1286c944b6a41e3f0e6826,18,2022-02-12_14h29.32.524,lexical_decision_task_DD_L6,2021.2.3,Linux x86_64,60.06006006,,,,,,,,,,,0.07,1,,,,,,,,,,,,,,,,,,,,,,,,-0.414874236,0.268701355,0,0,0,,,,,,,MELON,C,z,y,./images/MELON.png,,,,,,,,,,,,,,,,,,,,,z,1,0.07,,,,,,,,0,105,105,106,1
,,,,,,,,,,,,,,,,,5f1286c944b6a41e3f0e6826,18,2022-02-12_14h29.32.524,lexical_decision_task_DD_L6,2021.2.3,Linux x86_64,60.06006006,,,,,,,,,,,0.0019,1,,,,,,,,,,,,,,,,,,,,,,,,-0.414874236,0.268701355,0,0,0,,,,,,,PARADE,HB,m,y,./images/PARADEHB.png,,,,,,,,,,,,,,,,,,,,,m,1,0.0019,,,,,,,,0,106,106,17,1
,,,,,,,,,,,,,,,,,5f1286c944b6a41e3f0e6826,18,2022-02-12_14h29.32.524,lexical_decision_task_DD_L6,2021.2.3,Linux x86_64,60.06006006,,,,,,,,,,,0.0233,0,,,,,,,,,,,,,,,,,,,,,,,,-0.414874236,0.268701355,0,0,0,,,,,,,ARROW,LB,m,y,./images/ARROWLB.png,,,,,,,,,,,,,,,,,,,,,z,0,0.0233,,,,,,,,0,107,107,69,1
,,,,,,,,,,,,,,,,,5f1286c944b6a41e3f0e6826,18,2022-02-12_14h29.32.524,lexical_decision_task_DD_L6,2021.2.3,Linux x86_64,60.06006006,,,,,,,,,,,0.0015,0,,,,,,,,,,,,,,,,,,,,,,,,-0.414874236,0.268701355,0,0,0,,,,,,,SNACK,C,z,y,./images/SNACK.png,,,,,,,,,,,,,,,,,,,,,m,0,0.0015,,,,,,,,0,108,108,157,1
,,,,,,,,,,,,,,,,,5f1286c944b6a41e3f0e6826,18,2022-02-12_14h29.32.524,lexical_decision_task_DD_L6,2021.2.3,Linux x86_64,60.06006006,,,,,,,,,,,0.0414,1,,,,,,,,,,,,,,,,,,,,,,,,-0.414874236,0.268701355,0,0,0,,,,,,,MALLET,HB,z,y,./images/MALLETHB.png,,,,,,,,,,,,,,,,,,,,,z,1,0.0414,,,,,,,,0,109,109,134,1
,,,,,,,,,,,,,,,,,5f1286c944b6a41e3f0e6826,18,2022-02-12_14h29.32.524,lexical_decision_task_DD_L6,2021.2.3,Linux x86_64,60.06006006,,,,,,,,,,,0.0457,1,,,,,,,,,,,,,,,,,,,,,,,,-0.414874236,0.268701355,0,0,0,,,,,,,WALRUS,HB,z,y,./images/WALRUSHB.png,,,,,,,,,,,,,,,,,,,,,z,1,0.0457,,,,,,,,0,110,110,107,1
,,,,,,,,,,,,,,,,,5f1286c944b6a41e3f0e6826,18,2022-02-12_14h29.32.524,lexical_decision_task_DD_L6,2021.2.3,Linux x86_64,60.06006006,,,,,,,,,,,1.2542,0,,,,,,,,,,,,,,,,,,,,,,,,-0.610486249,0.5,0,0,0,,,,,,,PENCE,C,z,y,./images/PENCE.png,,,,,,,,,,,,,,,,,,,,,m,0,1.2542,,,,,,,,0,111,111,100,1
,,,,,,,,,,,,,,,,,5f1286c944b6a41e3f0e6826,18,2022-02-12_14h29.32.524,lexical_decision_task_DD_L6,2021.2.3,Linux x86_64,60.06006006,,,,,,,,,,,0.0897,1,,,,,,,,,,,,,,,,,,,,,,,,-0.610486249,0.5,0,0,0,,,,,,,MUFFIN,C,z,y,./images/MUFFIN.png,,,,,,,,,,,,,,,,,,,,,z,1,0.0897,,,,,,,,0,112,112,139,1
,,,,,,,,,,,,,,,,,5f1286c944b6a41e3f0e6826,18,2022-02-12_14h29.32.524,lexical_decision_task_DD_L6,2021.2.3,Linux x86_64,60.06006006,,,,,,,,,,,0.2202,0,,,,,,,,,,,,,,,,,,,,,,,,-0.610486249,0.5,0,0,0,,,,,,,COLLAR,LB,m,y,./images/COLLARLB.png,,,,,,,,,,,,,,,,,,,,,z,0,0.2202,,,,,,,,0,113,113,15,1
,,,,,,,,,,,,,,,,,5f1286c944b6a41e3f0e6826,18,2022-02-12_14h29.32.524,lexical_decision_task_DD_L6,2021.2.3,Linux x86_64,60.06006006,,,,,,,,,,,0.0369,0,,,,,,,,,,,,,,,,,,,,,,,,-0.610486249,0.5,0,0,0,,,,,,,PEARL,C,z,y,./images/PEARL.png,,,,,,,,,,,,,,,,,,,,,m,0,0.0369,,,,,,,,0,114,114,130,1
,,,,,,,,,,,,,,,,,5f1286c944b6a41e3f0e6826,18,2022-02-12_14h29.32.524,lexical_decision_task_DD_L6,2021.2.3,Linux x86_64,60.06006006,,,,,,,,,,,0.057,1,,,,,,,,,,,,,,,,,,,,,,,,-0.610486249,0.5,0,0,0,,,,,,,FLESH,LB,m,y,./images/FLESHLB.png,,,,,,,,,,,,,,,,,,,,,m,1,0.057,,,,,,,,0,115,115,24,1
,,,,,,,,,,,,,,,,,5f1286c944b6a41e3f0e6826,18,2022-02-12_14h29.32.524,lexical_decision_task_DD_L6,2021.2.3,Linux x86_64,60.06006006,,,,,,,,,,,0.022,1,,,,,,,,,,,,,,,,,,,,,,,,-0.610486249,0.5,0,0,0,,,,,,,FERRY,LB,m,y,./images/FERRYLB.png,,,,,,,,,,,,,,,,,,,,,m,1,0.022,,,,,,,,0,116,116,57,1
,,,,,,,,,,,,,,,,,5f1286c944b6a41e3f0e6826,18,2022-02-12_14h29.32.524,lexical_decision_task_DD_L6,2021.2.3,Linux x86_64,60.06006006,,,,,,,,,,,0.0386,1,,,,,,,,,,,,,,,,,,,,,,,,-0.610486249,0.5,0,0,0,,,,,,,SAUNA,LB,m,y,./images/SAUNALB.png,,,,,,,,,,,,,,,,,,,,,m,1,0.0386,,,,,,,,0,117,117,33,1
,,,,,,,,,,,,,,,,,5f1286c944b6a41e3f0e6826,18,2022-02-12_14h29.32.524,lexical_decision_task_DD_L6,2021.2.3,Linux x86_64,60.06006006,,,,,,,,,,,0.0222,0,,,,,,,,,,,,,,,,,,,,,,,,-0.610486249,0.5,0,0,0,,,,,,,COOKER,LB,z,y,./images/COOKERLB.png,,,,,,,,,,,,,,,,,,,,,m,0,0.0222,,,,,,,,0,118,118,153,1
,,,,,,,,,,,,,,,,,5f1286c944b6a41e3f0e6826,18,2022-02-12_14h29.32.524,lexical_decision_task_DD_L6,2021.2.3,Linux x86_64,60.06006006,,,,,,,,,,,0.0993,1,,,,,,,,,,,,,,,,,,,,,,,,-0.610486249,0.5,0,0,0,,,,,,,DIVER,LB,m,y,./images/DIVERLB.png,,,,,,,,,,,,,,,,,,,,,m,1,0.0993,,,,,,,,0,119,119,9,1
,,,,,,,,,,,,,,,,,5f1286c944b6a41e3f0e6826,18,2022-02-12_14h29.32.524,lexical_decision_task_DD_L6,2021.2.3,Linux x86_64,60.06006006,,,,,,,,,,,0.0854,1,,,,,,,,,,,,,,,,,,,,,,,,-0.610486249,0.5,0,0,0,,,,,,,VALLEY,HB,m,y,./images/VALLEYHB.png,,,,,,,,,,,,,,,,,,,,,m,1,0.0854,,,,,,,,0,120,120,68,1
,,,,,,,,,,,,,,,,,5f1286c944b6a41e3f0e6826,18,2022-02-12_14h29.32.524,lexical_decision_task_DD_L6,2021.2.3,Linux x86_64,60.06006006,,,,,,,,,,,0.0999,0,,,,,,,,,,,,,,,,,,,,,,,,-0.610486249,0.5,0,0,0,,,,,,,GREASE,LB,z,y,./images/GREASELB.png,,,,,,,,,,,,,,,,,,,,,m,0,0.0999,,,,,,,,0,121,121,99,1
,,,,,,,,,,,,,,,,,5f1286c944b6a41e3f0e6826,18,2022-02-12_14h29.32.524,lexical_decision_task_DD_L6,2021.2.3,Linux x86_64,60.06006006,,,,,,,,,,,0.0881,0,,,,,,,,,,,,,,,,,,,,,,,,-0.610486249,0.5,0,0,0,,,,,,,TULIP,HB,z,y,./images/TULIPHB.png,,,,,,,,,,,,,,,,,,,,,m,0,0.0881,,,,,,,,0,122,122,92,1
,,,,,,,,,,,,,,,,,5f1286c944b6a41e3f0e6826,18,2022-02-12_14h29.32.524,lexical_decision_task_DD_L6,2021.2.3,Linux x86_64,60.06006006,,,,,,,,,,,0.0585,1,,,,,,,,,,,,,,,,,,,,,,,,-0.610486249,0.5,0,0,0,,,,,,,PEBBLE,C,m,y,./images/PEBBLE.png,,,,,,,,,,,,,,,,,,,,,m,1,0.0585,,,,,,,,0,123,123,82,1
,,,,,,,,,,,,,,,,,5f1286c944b6a41e3f0e6826,18,2022-02-12_14h29.32.524,lexical_decision_task_DD_L6,2021.2.3,Linux x86_64,60.06006006,,,,,,,,,,,0.0041,1,,,,,,,,,,,,,,,,,,,,,,,,-0.610486249,0.5,0,0,0,,,,,,,CRADLE,HB,z,y,./images/CRADLEHB.png,,,,,,,,,,,,,,,,,,,,,z,1,0.0041,,,,,,,,0,124,124,104,1
