key_resp.keys,instr_done_touch.x,instr_done_touch.y,instr_done_touch.leftButton,instr_done_touch.midButton,instr_done_touch.rightButton,instr_done_touch.clicked_name,instruction_pages.thisRepN,instruction_pages.thisTrialN,instruction_pages.thisN,instruction_pages.thisIndex,instruction_pages.ran,pageN,phase,instruct_text,has_image,instruct_image,participant,age,date,expName,psychopyVersion,OS,frameRate,response.keys,response.corr,touch_resp.x,touch_resp.y,touch_resp.leftButton,touch_resp.midButton,touch_resp.rightButton,touch_resp.time,touch_resp.clicked_name,rt,corr,practrials.thisRepN,practrials.thisTrialN,practrials.thisN,practrials.thisIndex,practrials.ran,TrialID,Target,corrAns,end_of_practice_trials_pages.thisRepN,end_of_practice_trials_pages.thisTrialN,end_of_practice_trials_pages.thisN,end_of_practice_trials_pages.thisIndex,end_of_practice_trials_pages.ran,key_resp_2.keys,key_resp_2.corr,targ_click.x,targ_click.y,targ_click.leftButton,targ_click.midButton,targ_click.rightButton,targ_click.time,targ_click.clicked_name,break_done_touch.x,break_done_touch.y,break_done_touch.leftButton,break_done_touch.midButton,break_done_touch.rightButton,break_done_keyboard.keys,maintrials.thisRepN,maintrials.thisTrialN,maintrials.thisN,maintrials.thisIndex,maintrials.ran,string,blur,study,lex,stim_path,break_done_touch.clicked_name,mouse_2.x,mouse_2.y,mouse_2.leftButton,mouse_2.midButton,mouse_2.rightButton,mouse_2.clicked_name,slider.response,slider.rt,trials.thisRepN,trials.thisTrialN,trials.thisN,trials.thisIndex,trials.ran,test_instructions.thisRepN,test_instructions.thisTrialN,test_instructions.thisN,test_instructions.thisIndex,test_instructions.ran,key_resp_3.keys,key_resp_3.corr,test_click.x,test_click.y,test_click.leftButton,test_click.midButton,test_click.rightButton,test_click.time,test_click.clicked_name,test_phase.thisRepN,test_phase.thisTrialN,test_phase.thisN,test_phase.thisIndex,test_phase.ran
,0.062244898,-0.405612245,1,0,0,instr_done_button,0,0,0,0,1,1,instructions,"INSTRUCTIONS
At the start of each trial, look at the plus sign  (+) in the center of the screen.  This tells you that a trial is about to begin and where to look. Second, the plus sign will disappear and a string of letters will appear. Your task is to determine if the string of letters is a word or not. If the item is a word press the M key (on keyboard)  or touch the word button (phone/tablet).  If the item is not a word,  press the  Z key (on keyboard)  or touch the nonword button (on phone/tablet). 
Press the space bar or touch  continue.",0,,5f15e4bc797c740fff2c442c,28,2022-02-12_13h24.25.344,lexical_decision_task_DD_L6,2021.2.3,iPhone,58.82352941,,,,,,,,,,,,,,,,,,,,,,,,,,,,,,,,,,,,,,,,,,,,,,,,,,,,,,,,,,,,,,,,,,,,,,,,,,,,,,,,,,
,0.036734694,-0.400510204,1,0,0,instr_done_button,0,1,1,1,1,2,instructions,"If your device has a keyboard, press the 'Z' key for nonwords and the 'M' key for words.





Press the space bar or touch the button below to continue.",0,keyboard-example.gif,5f15e4bc797c740fff2c442c,28,2022-02-12_13h24.25.344,lexical_decision_task_DD_L6,2021.2.3,iPhone,58.82352941,,,,,,,,,,,,,,,,,,,,,,,,,,,,,,,,,,,,,,,,,,,,,,,,,,,,,,,,,,,,,,,,,,,,,,,,,,,,,,,,,,
,0.007142857,-0.408673469,1,0,0,instr_done_button,0,2,2,2,1,3,instructions,"If you are using a touchscreen only device, use the buttons on the screen. Do not use the mouse.





Press the space bar or touch the button below to continue.",0,touchscreen-example.gif,5f15e4bc797c740fff2c442c,28,2022-02-12_13h24.25.344,lexical_decision_task_DD_L6,2021.2.3,iPhone,58.82352941,,,,,,,,,,,,,,,,,,,,,,,,,,,,,,,,,,,,,,,,,,,,,,,,,,,,,,,,,,,,,,,,,,,,,,,,,,,,,,,,,,
,0.040816327,-0.411734694,1,0,0,instr_done_button,0,3,3,3,1,4,instructions,"It is very important that you respond as quickly and accurately as possible, as each letter string will only be on the screen for two seconds. If you do not respond within this time, the message 'Too slow!' will be displayed and the experiment will progress to the next letter string. The first 20 trials will be practice trials and you will receive feedback on your answers. 

Press the space bar or touch the button below to start the practice trials.",0,,5f15e4bc797c740fff2c442c,28,2022-02-12_13h24.25.344,lexical_decision_task_DD_L6,2021.2.3,iPhone,58.82352941,,,,,,,,,,,,,,,,,,,,,,,,,,,,,,,,,,,,,,,,,,,,,,,,,,,,,,,,,,,,,,,,,,,,,,,,,,,,,,,,,,
,,,,,,,,,,,,,,,,,5f15e4bc797c740fff2c442c,28,2022-02-12_13h24.25.344,lexical_decision_task_DD_L6,2021.2.3,iPhone,58.82352941,,0,-0.296938776,-0.317857143,1,0,0,1.755,button_left,1.755,1,0,0,0,15,1,1001,WHAISE,z,,,,,,,,,,,,,,,,,,,,,,,,,,,,,,,,,,,,,,,,,,,,,,,,,,,,,,,,,,,,,,,
,,,,,,,,,,,,,,,,,5f15e4bc797c740fff2c442c,28,2022-02-12_13h24.25.344,lexical_decision_task_DD_L6,2021.2.3,iPhone,58.82352941,,0,-0.263265306,-0.315816327,1,0,0,1.747,button_left,1.747,1,0,1,1,9,1,1001,FARINY,z,,,,,,,,,,,,,,,,,,,,,,,,,,,,,,,,,,,,,,,,,,,,,,,,,,,,,,,,,,,,,,,
,,,,,,,,,,,,,,,,,5f15e4bc797c740fff2c442c,28,2022-02-12_13h24.25.344,lexical_decision_task_DD_L6,2021.2.3,iPhone,58.82352941,,0,-0.263265306,-0.300510204,1,0,0,2.001,button_left,2.001,1,0,2,2,14,1,1001,THRALE,z,,,,,,,,,,,,,,,,,,,,,,,,,,,,,,,,,,,,,,,,,,,,,,,,,,,,,,,,,,,,,,,
,,,,,,,,,,,,,,,,,5f15e4bc797c740fff2c442c,28,2022-02-12_13h24.25.344,lexical_decision_task_DD_L6,2021.2.3,iPhone,58.82352941,,0,0.343877551,-0.334183673,1,0,0,0.806,button_right,0.806,1,0,3,3,1,1,1001,ADJUST,m,,,,,,,,,,,,,,,,,,,,,,,,,,,,,,,,,,,,,,,,,,,,,,,,,,,,,,,,,,,,,,,
,,,,,,,,,,,,,,,,,5f15e4bc797c740fff2c442c,28,2022-02-12_13h24.25.344,lexical_decision_task_DD_L6,2021.2.3,iPhone,58.82352941,,0,0.258163265,-0.356632653,1,0,0,1.99,button_right,1.99,0,0,4,4,10,1,1001,INLADE,z,,,,,,,,,,,,,,,,,,,,,,,,,,,,,,,,,,,,,,,,,,,,,,,,,,,,,,,,,,,,,,,
,,,,,,,,,,,,,,,,,5f15e4bc797c740fff2c442c,28,2022-02-12_13h24.25.344,lexical_decision_task_DD_L6,2021.2.3,iPhone,58.82352941,,0,0.284693878,-0.350510204,1,0,0,0.931,button_right,0.931,1,0,5,5,2,1,1001,ALMOND,m,,,,,,,,,,,,,,,,,,,,,,,,,,,,,,,,,,,,,,,,,,,,,,,,,,,,,,,,,,,,,,,
,,,,,,,,,,,,,,,,,5f15e4bc797c740fff2c442c,28,2022-02-12_13h24.25.344,lexical_decision_task_DD_L6,2021.2.3,iPhone,58.82352941,,0,-0.292857143,-0.319897959,1,0,0,0.863,button_left,0.863,1,0,6,6,11,1,1001,RASHET,z,,,,,,,,,,,,,,,,,,,,,,,,,,,,,,,,,,,,,,,,,,,,,,,,,,,,,,,,,,,,,,,
,,,,,,,,,,,,,,,,,5f15e4bc797c740fff2c442c,28,2022-02-12_13h24.25.344,lexical_decision_task_DD_L6,2021.2.3,iPhone,58.82352941,,0,0.287755102,-0.325,1,0,0,0.907,button_right,0.907,1,0,7,7,4,1,1001,SQUEAK,m,,,,,,,,,,,,,,,,,,,,,,,,,,,,,,,,,,,,,,,,,,,,,,,,,,,,,,,,,,,,,,,
,,,,,,,,,,,,,,,,,5f15e4bc797c740fff2c442c,28,2022-02-12_13h24.25.344,lexical_decision_task_DD_L6,2021.2.3,iPhone,58.82352941,,0,-0.252040816,-0.335204082,1,0,0,0.916,button_left,0.916,1,0,8,8,13,1,1001,ROUPET,z,,,,,,,,,,,,,,,,,,,,,,,,,,,,,,,,,,,,,,,,,,,,,,,,,,,,,,,,,,,,,,,
,,,,,,,,,,,,,,,,,5f15e4bc797c740fff2c442c,28,2022-02-12_13h24.25.344,lexical_decision_task_DD_L6,2021.2.3,iPhone,58.82352941,,0,0.309183673,-0.321938776,1,0,0,0.932,button_right,0.932,1,0,9,9,0,1,1001,UTOPIA,m,,,,,,,,,,,,,,,,,,,,,,,,,,,,,,,,,,,,,,,,,,,,,,,,,,,,,,,,,,,,,,,
,,,,,,,,,,,,,,,,,5f15e4bc797c740fff2c442c,28,2022-02-12_13h24.25.344,lexical_decision_task_DD_L6,2021.2.3,iPhone,58.82352941,,0,-0.264285714,-0.333163265,1,0,0,0.84,button_left,0.84,1,0,10,10,8,1,1001,ASLERT,z,,,,,,,,,,,,,,,,,,,,,,,,,,,,,,,,,,,,,,,,,,,,,,,,,,,,,,,,,,,,,,,
,,,,,,,,,,,,,,,,,5f15e4bc797c740fff2c442c,28,2022-02-12_13h24.25.344,lexical_decision_task_DD_L6,2021.2.3,iPhone,58.82352941,,0,0.26122449,-0.316836735,1,0,0,0.779,button_right,0.779,1,0,11,11,3,1,1001,MATRIX,m,,,,,,,,,,,,,,,,,,,,,,,,,,,,,,,,,,,,,,,,,,,,,,,,,,,,,,,,,,,,,,,
,,,,,,,,,,,,,,,,,5f15e4bc797c740fff2c442c,28,2022-02-12_13h24.25.344,lexical_decision_task_DD_L6,2021.2.3,iPhone,58.82352941,,0,-0.260204082,-0.305612245,1,0,0,1.262,button_left,1.262,1,0,12,12,12,1,1001,SPRINY,z,,,,,,,,,,,,,,,,,,,,,,,,,,,,,,,,,,,,,,,,,,,,,,,,,,,,,,,,,,,,,,,
,,,,,,,,,,,,,,,,,5f15e4bc797c740fff2c442c,28,2022-02-12_13h24.25.344,lexical_decision_task_DD_L6,2021.2.3,iPhone,58.82352941,,0,0.279591837,-0.327040816,1,0,0,0.66,button_right,0.66,1,0,13,13,6,1,1001,ZOMBIE,m,,,,,,,,,,,,,,,,,,,,,,,,,,,,,,,,,,,,,,,,,,,,,,,,,,,,,,,,,,,,,,,
,,,,,,,,,,,,,,,,,5f15e4bc797c740fff2c442c,28,2022-02-12_13h24.25.344,lexical_decision_task_DD_L6,2021.2.3,iPhone,58.82352941,,0,0.235714286,-0.326020408,1,0,0,0.806,button_right,0.806,1,0,14,14,5,1,1001,OBTAIN,m,,,,,,,,,,,,,,,,,,,,,,,,,,,,,,,,,,,,,,,,,,,,,,,,,,,,,,,,,,,,,,,
,,,,,,,,,,,,,,,,,5f15e4bc797c740fff2c442c,28,2022-02-12_13h24.25.344,lexical_decision_task_DD_L6,2021.2.3,iPhone,58.82352941,,0,0.259183673,-0.338265306,1,0,0,0.709,button_right,0.709,1,0,15,15,7,1,1001,VOLUME,m,,,,,,,,,,,,,,,,,,,,,,,,,,,,,,,,,,,,,,,,,,,,,,,,,,,,,,,,,,,,,,,
,0.020408163,-0.405612245,1,0,0,instr_done_button,,,,,,1,end_of_practice,"You have completed the practice trials. During the experimental trials, you will not receive feedback. 
Before you begin, please ensure that you are in a comfortable and quiet location and will not be disturbed for about 15 minutes, as we cannot use your data if you do not complete all the trials. 
 When you are ready to start the experimental trials, please press space or touch the button below.",,,5f15e4bc797c740fff2c442c,28,2022-02-12_13h24.25.344,lexical_decision_task_DD_L6,2021.2.3,iPhone,58.82352941,,,,,,,,,,,,,,,,,,,,0,0,0,0,1,,,,,,,,,,,,,,,,,,,,,,,,,,,,,,,,,,,,,,,,,,,,,,,,,,,,,,,,,,
,,,,,,,,,,,,,,,,,5f15e4bc797c740fff2c442c,28,2022-02-12_13h24.25.344,lexical_decision_task_DD_L6,2021.2.3,iPhone,58.82352941,,,,,,,,,,2.294,0,,,,,,,,,,,,,,,0,-0.27244898,-0.30255102,1,0,0,2.294,button_left_main,-0.27244898,-0.30255102,1,0,0,,0,0,0,83,1,WHISKY,HB,m,m,./images/WHISKYHB.png,,,,,,,,,,,,,,,,,,,,,,,,,,,,,,,,,
,,,,,,,,,,,,,,,,,5f15e4bc797c740fff2c442c,28,2022-02-12_13h24.25.344,lexical_decision_task_DD_L6,2021.2.3,iPhone,58.82352941,,,,,,,,,,0.992,1,,,,,,,,,,,,,,,0,-0.271428571,-0.357653061,1,0,0,0.992,button_left_main,-0.271428571,-0.357653061,1,0,0,,0,1,1,138,1,PLICE,C,z,z,./images/PLICE.png,,,,,,,,,,,,,,,,,,,,,,,,,,,,,,,,,
,,,,,,,,,,,,,,,,,5f15e4bc797c740fff2c442c,28,2022-02-12_13h24.25.344,lexical_decision_task_DD_L6,2021.2.3,iPhone,58.82352941,,,,,,,,,,2.131,1,,,,,,,,,,,,,,,0,-0.252040816,-0.346428571,1,0,0,2.131,button_left_main,-0.252040816,-0.346428571,1,0,0,,0,2,2,112,1,MYING,HB,z,z,./images/MYINGHB.png,,,,,,,,,,,,,,,,,,,,,,,,,,,,,,,,,
,,,,,,,,,,,,,,,,,5f15e4bc797c740fff2c442c,28,2022-02-12_13h24.25.344,lexical_decision_task_DD_L6,2021.2.3,iPhone,58.82352941,,,,,,,,,,1.064,1,,,,,,,,,,,,,,,0,0.297959184,-0.31377551,1,0,0,1.064,button_right_main,0.297959184,-0.31377551,1,0,0,,0,3,3,8,1,CLIFF,HB,m,m,./images/CLIFFHB.png,,,,,,,,,,,,,,,,,,,,,,,,,,,,,,,,,
,,,,,,,,,,,,,,,,,5f15e4bc797c740fff2c442c,28,2022-02-12_13h24.25.344,lexical_decision_task_DD_L6,2021.2.3,iPhone,58.82352941,,,,,,,,,,2.127,1,,,,,,,,,,,,,,,0,-0.255102041,-0.346428571,1,0,0,2.127,button_left_main,-0.255102041,-0.346428571,1,0,0,,0,4,4,136,1,WERVE,HB,z,z,./images/WERVEHB.png,,,,,,,,,,,,,,,,,,,,,,,,,,,,,,,,,
,,,,,,,,,,,,,,,,,5f15e4bc797c740fff2c442c,28,2022-02-12_13h24.25.344,lexical_decision_task_DD_L6,2021.2.3,iPhone,58.82352941,,,,,,,,,,1.067,1,,,,,,,,,,,,,,,0,-0.27755102,-0.335204082,1,0,0,1.067,button_left_main,-0.27755102,-0.335204082,1,0,0,,0,5,5,137,1,JOOST,LB,z,z,./images/JOOSTLB.png,,,,,,,,,,,,,,,,,,,,,,,,,,,,,,,,,
,,,,,,,,,,,,,,,,,5f15e4bc797c740fff2c442c,28,2022-02-12_13h24.25.344,lexical_decision_task_DD_L6,2021.2.3,iPhone,58.82352941,,,,,,,,,,1.086,1,,,,,,,,,,,,,,,0,-0.236734694,-0.327040816,1,0,0,1.086,button_left_main,-0.236734694,-0.327040816,1,0,0,,0,6,6,111,1,HOSSE,C,z,z,./images/HOSSE.png,,,,,,,,,,,,,,,,,,,,,,,,,,,,,,,,,
,,,,,,,,,,,,,,,,,5f15e4bc797c740fff2c442c,28,2022-02-12_13h24.25.344,lexical_decision_task_DD_L6,2021.2.3,iPhone,58.82352941,,,,,,,,,,0.774,1,,,,,,,,,,,,,,,0,0.309183673,-0.335204082,1,0,0,0.774,button_right_main,0.309183673,-0.335204082,1,0,0,,0,7,7,81,1,DRILL,LB,m,m,./images/DRILLLB.png,,,,,,,,,,,,,,,,,,,,,,,,,,,,,,,,,
,,,,,,,,,,,,,,,,,5f15e4bc797c740fff2c442c,28,2022-02-12_13h24.25.344,lexical_decision_task_DD_L6,2021.2.3,iPhone,58.82352941,,,,,,,,,,0.991,1,,,,,,,,,,,,,,,0,0.264285714,-0.330102041,1,0,0,0.991,button_right_main,0.264285714,-0.330102041,1,0,0,,0,8,8,30,1,SLOPE,LB,m,m,./images/SLOPELB.png,,,,,,,,,,,,,,,,,,,,,,,,,,,,,,,,,
,,,,,,,,,,,,,,,,,5f15e4bc797c740fff2c442c,28,2022-02-12_13h24.25.344,lexical_decision_task_DD_L6,2021.2.3,iPhone,58.82352941,,,,,,,,,,0.797,1,,,,,,,,,,,,,,,0,-0.262244898,-0.344387755,1,0,0,0.797,button_left_main,-0.262244898,-0.344387755,1,0,0,,0,9,9,167,1,ZONET,LB,z,z,./images/ZONETLB.png,,,,,,,,,,,,,,,,,,,,,,,,,,,,,,,,,
,,,,,,,,,,,,,,,,,5f15e4bc797c740fff2c442c,28,2022-02-12_13h24.25.344,lexical_decision_task_DD_L6,2021.2.3,iPhone,58.82352941,,,,,,,,,,0.764,1,,,,,,,,,,,,,,,0,0.309183673,-0.329081633,1,0,0,0.764,button_right_main,0.309183673,-0.329081633,1,0,0,,0,10,10,33,1,SAUNA,LB,m,m,./images/SAUNALB.png,,,,,,,,,,,,,,,,,,,,,,,,,,,,,,,,,
,,,,,,,,,,,,,,,,,5f15e4bc797c740fff2c442c,28,2022-02-12_13h24.25.344,lexical_decision_task_DD_L6,2021.2.3,iPhone,58.82352941,,,,,,,,,,0.949,1,,,,,,,,,,,,,,,0,-0.240816327,-0.327040816,1,0,0,0.949,button_left_main,-0.240816327,-0.327040816,1,0,0,,0,11,11,85,1,CHULK,HB,z,z,./images/CHULKHB.png,,,,,,,,,,,,,,,,,,,,,,,,,,,,,,,,,
,,,,,,,,,,,,,,,,,5f15e4bc797c740fff2c442c,28,2022-02-12_13h24.25.344,lexical_decision_task_DD_L6,2021.2.3,iPhone,58.82352941,,,,,,,,,,1.123,0,,,,,,,,,,,,,,,0,0.31122449,-0.320918367,1,0,0,1.123,button_right_main,0.31122449,-0.320918367,1,0,0,,0,12,12,128,1,GRIFT,LB,z,z,./images/GRIFTLB.png,,,,,,,,,,,,,,,,,,,,,,,,,,,,,,,,,
,,,,,,,,,,,,,,,,,5f15e4bc797c740fff2c442c,28,2022-02-12_13h24.25.344,lexical_decision_task_DD_L6,2021.2.3,iPhone,58.82352941,,,,,,,,,,0.884,1,,,,,,,,,,,,,,,0,0.245918367,-0.346428571,1,0,0,0.884,button_right_main,0.245918367,-0.346428571,1,0,0,,0,13,13,23,1,CLOTH,HB,m,m,./images/CLOTHHB.png,,,,,,,,,,,,,,,,,,,,,,,,,,,,,,,,,
,,,,,,,,,,,,,,,,,5f15e4bc797c740fff2c442c,28,2022-02-12_13h24.25.344,lexical_decision_task_DD_L6,2021.2.3,iPhone,58.82352941,,,,,,,,,,0.711,1,,,,,,,,,,,,,,,0,0.306122449,-0.330102041,1,0,0,0.711,button_right_main,0.306122449,-0.330102041,1,0,0,,0,14,14,6,1,STAIN,LB,m,m,./images/STAINLB.png,,,,,,,,,,,,,,,,,,,,,,,,,,,,,,,,,
,,,,,,,,,,,,,,,,,5f15e4bc797c740fff2c442c,28,2022-02-12_13h24.25.344,lexical_decision_task_DD_L6,2021.2.3,iPhone,58.82352941,,,,,,,,,,0.8,1,,,,,,,,,,,,,,,0,0.276530612,-0.342346939,1,0,0,0.8,button_right_main,0.276530612,-0.342346939,1,0,0,,0,15,15,70,1,BANANA,C,m,m,./images/BANANA.png,,,,,,,,,,,,,,,,,,,,,,,,,,,,,,,,,
,,,,,,,,,,,,,,,,,5f15e4bc797c740fff2c442c,28,2022-02-12_13h24.25.344,lexical_decision_task_DD_L6,2021.2.3,iPhone,58.82352941,,,,,,,,,,1.078,1,,,,,,,,,,,,,,,0,-0.248979592,-0.329081633,1,0,0,1.078,button_left_main,-0.248979592,-0.329081633,1,0,0,,0,16,16,107,1,FASKS,LB,z,z,./images/FASKSLB.png,,,,,,,,,,,,,,,,,,,,,,,,,,,,,,,,,
,,,,,,,,,,,,,,,,,5f15e4bc797c740fff2c442c,28,2022-02-12_13h24.25.344,lexical_decision_task_DD_L6,2021.2.3,iPhone,58.82352941,,,,,,,,,,1.026,1,,,,,,,,,,,,,,,0,0.278571429,-0.307653061,1,0,0,1.026,button_right_main,0.278571429,-0.307653061,1,0,0,,0,17,17,12,1,BLOKE,LB,m,m,./images/BLOKELB.png,,,,,,,,,,,,,,,,,,,,,,,,,,,,,,,,,
,,,,,,,,,,,,,,,,,5f15e4bc797c740fff2c442c,28,2022-02-12_13h24.25.344,lexical_decision_task_DD_L6,2021.2.3,iPhone,58.82352941,,,,,,,,,,0.865,1,,,,,,,,,,,,,,,0,-0.235714286,-0.317857143,1,0,0,0.865,button_left_main,-0.235714286,-0.317857143,1,0,0,,0,18,18,86,1,AIFED,LB,z,z,./images/AIFEDLB.png,,,,,,,,,,,,,,,,,,,,,,,,,,,,,,,,,
,,,,,,,,,,,,,,,,,5f15e4bc797c740fff2c442c,28,2022-02-12_13h24.25.344,lexical_decision_task_DD_L6,2021.2.3,iPhone,58.82352941,,,,,,,,,,1.245,1,,,,,,,,,,,,,,,0,0.278571429,-0.304591837,1,0,0,1.245,button_right_main,0.278571429,-0.304591837,1,0,0,,0,19,19,45,1,MONKEY,LB,m,m,./images/MONKEYLB.png,,,,,,,,,,,,,,,,,,,,,,,,,,,,,,,,,
,,,,,,,,,,,,,,,,,5f15e4bc797c740fff2c442c,28,2022-02-12_13h24.25.344,lexical_decision_task_DD_L6,2021.2.3,iPhone,58.82352941,,,,,,,,,,0.914,1,,,,,,,,,,,,,,,0,-0.236734694,-0.339285714,1,0,0,0.914,button_left_main,-0.236734694,-0.339285714,1,0,0,,0,20,20,160,1,VEETS,HB,z,z,./images/VEETSHB.png,,,,,,,,,,,,,,,,,,,,,,,,,,,,,,,,,
,,,,,,,,,,,,,,,,,5f15e4bc797c740fff2c442c,28,2022-02-12_13h24.25.344,lexical_decision_task_DD_L6,2021.2.3,iPhone,58.82352941,,,,,,,,,,1.058,1,,,,,,,,,,,,,,,0,-0.232653061,-0.350510204,1,0,0,1.058,button_left_main,-0.232653061,-0.350510204,1,0,0,,0,21,21,115,1,MAWNS,HB,z,z,./images/MAWNSHB.png,,,,,,,,,,,,,,,,,,,,,,,,,,,,,,,,,
,,,,,,,,,,,,,,,,,5f15e4bc797c740fff2c442c,28,2022-02-12_13h24.25.344,lexical_decision_task_DD_L6,2021.2.3,iPhone,58.82352941,,,,,,,,,,1.14,1,,,,,,,,,,,,,,,0,-0.221428571,-0.342346939,1,0,0,1.14,button_left_main,-0.221428571,-0.342346939,1,0,0,,0,22,22,121,1,CEERS,HB,z,z,./images/CEERSHB.png,,,,,,,,,,,,,,,,,,,,,,,,,,,,,,,,,
,,,,,,,,,,,,,,,,,5f15e4bc797c740fff2c442c,28,2022-02-12_13h24.25.344,lexical_decision_task_DD_L6,2021.2.3,iPhone,58.82352941,,,,,,,,,,1.742,0,,,,,,,,,,,,,,,0,-0.240816327,-0.368877551,1,0,0,1.742,button_left_main,-0.240816327,-0.368877551,1,0,0,,0,23,23,38,1,ENGINE,HB,m,m,./images/ENGINEHB.png,,,,,,,,,,,,,,,,,,,,,,,,,,,,,,,,,
,,,,,,,,,,,,,,,,,5f15e4bc797c740fff2c442c,28,2022-02-12_13h24.25.344,lexical_decision_task_DD_L6,2021.2.3,iPhone,58.82352941,,,,,,,,,,1.236,0,,,,,,,,,,,,,,,0,0.270408163,-0.321938776,1,0,0,1.236,button_right_main,0.270408163,-0.321938776,1,0,0,,0,24,24,110,1,CRUNK,LB,z,z,./images/CRUNKLB.png,,,,,,,,,,,,,,,,,,,,,,,,,,,,,,,,,
,,,,,,,,,,,,,,,,,5f15e4bc797c740fff2c442c,28,2022-02-12_13h24.25.344,lexical_decision_task_DD_L6,2021.2.3,iPhone,58.82352941,,,,,,,,,,0.858,1,,,,,,,,,,,,,,,0,0.28877551,-0.30255102,1,0,0,0.858,button_right_main,0.28877551,-0.30255102,1,0,0,,0,25,25,24,1,FLESH,LB,m,m,./images/FLESHLB.png,,,,,,,,,,,,,,,,,,,,,,,,,,,,,,,,,
,,,,,,,,,,,,,,,,,5f15e4bc797c740fff2c442c,28,2022-02-12_13h24.25.344,lexical_decision_task_DD_L6,2021.2.3,iPhone,58.82352941,,,,,,,,,,0.868,1,,,,,,,,,,,,,,,0,-0.259183673,-0.291326531,1,0,0,0.868,button_left_main,-0.259183673,-0.291326531,1,0,0,,0,26,26,161,1,BLAPS,LB,z,z,./images/BLAPSLB.png,,,,,,,,,,,,,,,,,,,,,,,,,,,,,,,,,
,,,,,,,,,,,,,,,,,5f15e4bc797c740fff2c442c,28,2022-02-12_13h24.25.344,lexical_decision_task_DD_L6,2021.2.3,iPhone,58.82352941,,,,,,,,,,1.53,1,,,,,,,,,,,,,,,0,-0.223469388,-0.343367347,1,0,0,1.53,button_left_main,-0.223469388,-0.343367347,1,0,0,,0,27,27,94,1,BLANS,HB,z,z,./images/BLANSHB.png,,,,,,,,,,,,,,,,,,,,,,,,,,,,,,,,,
,,,,,,,,,,,,,,,,,5f15e4bc797c740fff2c442c,28,2022-02-12_13h24.25.344,lexical_decision_task_DD_L6,2021.2.3,iPhone,58.82352941,,,,,,,,,,0.865,1,,,,,,,,,,,,,,,0,-0.214285714,-0.343367347,1,0,0,0.865,button_left_main,-0.214285714,-0.343367347,1,0,0,,0,28,28,96,1,KEAMS,C,z,z,./images/KEAMS.png,,,,,,,,,,,,,,,,,,,,,,,,,,,,,,,,,
,,,,,,,,,,,,,,,,,5f15e4bc797c740fff2c442c,28,2022-02-12_13h24.25.344,lexical_decision_task_DD_L6,2021.2.3,iPhone,58.82352941,,,,,,,,,,1.119,1,,,,,,,,,,,,,,,0,0.309183673,-0.31377551,1,0,0,1.119,button_right_main,0.309183673,-0.31377551,1,0,0,,0,29,29,47,1,LAGOON,HB,m,m,./images/LAGOONHB.png,,,,,,,,,,,,,,,,,,,,,,,,,,,,,,,,,
,,,,,,,,,,,,,,,,,5f15e4bc797c740fff2c442c,28,2022-02-12_13h24.25.344,lexical_decision_task_DD_L6,2021.2.3,iPhone,58.82352941,,,,,,,,,,1.024,1,,,,,,,,,,,,,,,0,-0.25,-0.334183673,1,0,0,1.024,button_left_main,-0.25,-0.334183673,1,0,0,,0,30,30,91,1,SHENS,HB,z,z,./images/SHENSHB.png,,,,,,,,,,,,,,,,,,,,,,,,,,,,,,,,,
,,,,,,,,,,,,,,,,,5f15e4bc797c740fff2c442c,28,2022-02-12_13h24.25.344,lexical_decision_task_DD_L6,2021.2.3,iPhone,58.82352941,,,,,,,,,,0.831,1,,,,,,,,,,,,,,,0,0.268367347,-0.34744898,1,0,0,0.831,button_right_main,0.268367347,-0.34744898,1,0,0,,0,31,31,13,1,BUNNY,C,m,m,./images/BUNNY.png,,,,,,,,,,,,,,,,,,,,,,,,,,,,,,,,,
,,,,,,,,,,,,,,,,,5f15e4bc797c740fff2c442c,28,2022-02-12_13h24.25.344,lexical_decision_task_DD_L6,2021.2.3,iPhone,58.82352941,,,,,,,,,,1.179,1,,,,,,,,,,,,,,,0,-0.246938776,-0.334183673,1,0,0,1.179,button_left_main,-0.246938776,-0.334183673,1,0,0,,0,32,32,118,1,BAVEL,HB,z,z,./images/BAVELHB.png,,,,,,,,,,,,,,,,,,,,,,,,,,,,,,,,,
,,,,,,,,,,,,,,,,,5f15e4bc797c740fff2c442c,28,2022-02-12_13h24.25.344,lexical_decision_task_DD_L6,2021.2.3,iPhone,58.82352941,,,,,,,,,,1.549,1,,,,,,,,,,,,,,,0,-0.224489796,-0.333163265,1,0,0,1.549,button_left_main,-0.224489796,-0.333163265,1,0,0,,0,33,33,163,1,GAMBA,HB,z,z,./images/GAMBAHB.png,,,,,,,,,,,,,,,,,,,,,,,,,,,,,,,,,
,,,,,,,,,,,,,,,,,5f15e4bc797c740fff2c442c,28,2022-02-12_13h24.25.344,lexical_decision_task_DD_L6,2021.2.3,iPhone,58.82352941,,,,,,,,,,0.707,1,,,,,,,,,,,,,,,0,0.292857143,-0.320918367,1,0,0,0.707,button_right_main,0.292857143,-0.320918367,1,0,0,,0,34,34,67,1,POKER,C,m,m,./images/POKER.png,,,,,,,,,,,,,,,,,,,,,,,,,,,,,,,,,
,,,,,,,,,,,,,,,,,5f15e4bc797c740fff2c442c,28,2022-02-12_13h24.25.344,lexical_decision_task_DD_L6,2021.2.3,iPhone,58.82352941,,,,,,,,,,1.224,1,,,,,,,,,,,,,,,0,0.246938776,-0.322959184,1,0,0,1.224,button_right_main,0.246938776,-0.322959184,1,0,0,,0,35,35,53,1,POSTER,HB,m,m,./images/POSTERHB.png,,,,,,,,,,,,,,,,,,,,,,,,,,,,,,,,,
,,,,,,,,,,,,,,,,,5f15e4bc797c740fff2c442c,28,2022-02-12_13h24.25.344,lexical_decision_task_DD_L6,2021.2.3,iPhone,58.82352941,,,,,,,,,,1.046,1,,,,,,,,,,,,,,,0,-0.275510204,-0.327040816,1,0,0,1.046,button_left_main,-0.275510204,-0.327040816,1,0,0,,0,36,36,159,1,CUDDY,C,z,z,./images/CUDDY.png,,,,,,,,,,,,,,,,,,,,,,,,,,,,,,,,,
,,,,,,,,,,,,,,,,,5f15e4bc797c740fff2c442c,28,2022-02-12_13h24.25.344,lexical_decision_task_DD_L6,2021.2.3,iPhone,58.82352941,,,,,,,,,,0.704,1,,,,,,,,,,,,,,,0,0.279591837,-0.326020408,1,0,0,0.704,button_right_main,0.279591837,-0.326020408,1,0,0,,0,37,37,0,1,WALNUT,LB,m,m,./images/WALNUTLB.png,,,,,,,,,,,,,,,,,,,,,,,,,,,,,,,,,
,,,,,,,,,,,,,,,,,5f15e4bc797c740fff2c442c,28,2022-02-12_13h24.25.344,lexical_decision_task_DD_L6,2021.2.3,iPhone,58.82352941,,,,,,,,,,0.893,1,,,,,,,,,,,,,,,0,-0.263265306,-0.34744898,1,0,0,0.893,button_left_main,-0.263265306,-0.34744898,1,0,0,,0,38,38,135,1,JOODY,C,z,z,./images/JOODY.png,,,,,,,,,,,,,,,,,,,,,,,,,,,,,,,,,
,,,,,,,,,,,,,,,,,5f15e4bc797c740fff2c442c,28,2022-02-12_13h24.25.344,lexical_decision_task_DD_L6,2021.2.3,iPhone,58.82352941,,,,,,,,,,0.781,1,,,,,,,,,,,,,,,0,0.306122449,-0.329081633,1,0,0,0.781,button_right_main,0.306122449,-0.329081633,1,0,0,,0,39,39,10,1,GARDEN,C,m,m,./images/GARDEN.png,,,,,,,,,,,,,,,,,,,,,,,,,,,,,,,,,
,,,,,,,,,,,,,,,,,5f15e4bc797c740fff2c442c,28,2022-02-12_13h24.25.344,lexical_decision_task_DD_L6,2021.2.3,iPhone,58.82352941,,,,,,,,,,0.995,1,,,,,,,,,,,,,,,0,-0.275510204,-0.343367347,1,0,0,0.995,button_left_main,-0.275510204,-0.343367347,1,0,0,,0,40,40,165,1,TROWN,C,z,z,./images/TROWN.png,,,,,,,,,,,,,,,,,,,,,,,,,,,,,,,,,
,,,,,,,,,,,,,,,,,5f15e4bc797c740fff2c442c,28,2022-02-12_13h24.25.344,lexical_decision_task_DD_L6,2021.2.3,iPhone,58.82352941,,,,,,,,,,0.911,1,,,,,,,,,,,,,,,0,0.310204082,-0.316836735,1,0,0,0.911,button_right_main,0.024489796,-0.431122449,1,0,0,,0,41,41,79,1,RULER,C,m,m,./images/RULER.png,break_done_button,,,,,,,,,,,,,,,,,,,,,,,,,,,,,,,,
,,,,,,,,,,,,,,,,,5f15e4bc797c740fff2c442c,28,2022-02-12_13h24.25.344,lexical_decision_task_DD_L6,2021.2.3,iPhone,58.82352941,,,,,,,,,,0.854,1,,,,,,,,,,,,,,,0,-0.246938776,-0.350510204,1,0,0,0.854,button_left_main,-0.246938776,-0.350510204,1,0,0,,0,42,42,101,1,GLEET,LB,z,z,./images/GLEETLB.png,,,,,,,,,,,,,,,,,,,,,,,,,,,,,,,,,
,,,,,,,,,,,,,,,,,5f15e4bc797c740fff2c442c,28,2022-02-12_13h24.25.344,lexical_decision_task_DD_L6,2021.2.3,iPhone,58.82352941,,,,,,,,,,0.773,1,,,,,,,,,,,,,,,0,-0.25,-0.316836735,1,0,0,0.773,button_left_main,-0.25,-0.316836735,1,0,0,,0,43,43,108,1,GRUET,C,z,z,./images/GRUET.png,,,,,,,,,,,,,,,,,,,,,,,,,,,,,,,,,
,,,,,,,,,,,,,,,,,5f15e4bc797c740fff2c442c,28,2022-02-12_13h24.25.344,lexical_decision_task_DD_L6,2021.2.3,iPhone,58.82352941,,,,,,,,,,0.811,1,,,,,,,,,,,,,,,0,0.287755102,-0.331122449,1,0,0,0.811,button_right_main,0.287755102,-0.331122449,1,0,0,,0,44,44,42,1,CHAIN,LB,m,m,./images/CHAINLB.png,,,,,,,,,,,,,,,,,,,,,,,,,,,,,,,,,
,,,,,,,,,,,,,,,,,5f15e4bc797c740fff2c442c,28,2022-02-12_13h24.25.344,lexical_decision_task_DD_L6,2021.2.3,iPhone,58.82352941,,,,,,,,,,0.992,1,,,,,,,,,,,,,,,0,0.258163265,-0.346428571,1,0,0,0.992,button_right_main,0.258163265,-0.346428571,1,0,0,,0,45,45,18,1,PARCEL,LB,m,m,./images/PARCELLB.png,,,,,,,,,,,,,,,,,,,,,,,,,,,,,,,,,
,,,,,,,,,,,,,,,,,5f15e4bc797c740fff2c442c,28,2022-02-12_13h24.25.344,lexical_decision_task_DD_L6,2021.2.3,iPhone,58.82352941,,,,,,,,,,0.807,1,,,,,,,,,,,,,,,0,0.293877551,-0.335204082,1,0,0,0.807,button_right_main,0.293877551,-0.335204082,1,0,0,,0,46,46,36,1,BOILER,LB,m,m,./images/BOILERLB.png,,,,,,,,,,,,,,,,,,,,,,,,,,,,,,,,,
,,,,,,,,,,,,,,,,,5f15e4bc797c740fff2c442c,28,2022-02-12_13h24.25.344,lexical_decision_task_DD_L6,2021.2.3,iPhone,58.82352941,,,,,,,,,,0.788,1,,,,,,,,,,,,,,,0,-0.260204082,-0.325,1,0,0,0.788,button_left_main,-0.260204082,-0.325,1,0,0,,0,47,47,120,1,RINED,C,z,z,./images/RINED.png,,,,,,,,,,,,,,,,,,,,,,,,,,,,,,,,,
,,,,,,,,,,,,,,,,,5f15e4bc797c740fff2c442c,28,2022-02-12_13h24.25.344,lexical_decision_task_DD_L6,2021.2.3,iPhone,58.82352941,,,,,,,,,,1.143,1,,,,,,,,,,,,,,,0,-0.248979592,-0.321938776,1,0,0,1.143,button_left_main,-0.248979592,-0.321938776,1,0,0,,0,48,48,122,1,BLOOT,LB,z,z,./images/BLOOTLB.png,,,,,,,,,,,,,,,,,,,,,,,,,,,,,,,,,
,,,,,,,,,,,,,,,,,5f15e4bc797c740fff2c442c,28,2022-02-12_13h24.25.344,lexical_decision_task_DD_L6,2021.2.3,iPhone,58.82352941,,,,,,,,,,1.001,1,,,,,,,,,,,,,,,0,0.285714286,-0.312755102,1,0,0,1.001,button_right_main,0.285714286,-0.312755102,1,0,0,,0,49,49,65,1,SPINE,HB,m,m,./images/SPINEHB.png,,,,,,,,,,,,,,,,,,,,,,,,,,,,,,,,,
,,,,,,,,,,,,,,,,,5f15e4bc797c740fff2c442c,28,2022-02-12_13h24.25.344,lexical_decision_task_DD_L6,2021.2.3,iPhone,58.82352941,,,,,,,,,,1.093,1,,,,,,,,,,,,,,,0,-0.266326531,-0.338265306,1,0,0,1.093,button_left_main,-0.266326531,-0.338265306,1,0,0,,0,50,50,130,1,CRILL,HB,z,z,./images/CRILLHB.png,,,,,,,,,,,,,,,,,,,,,,,,,,,,,,,,,
,,,,,,,,,,,,,,,,,5f15e4bc797c740fff2c442c,28,2022-02-12_13h24.25.344,lexical_decision_task_DD_L6,2021.2.3,iPhone,58.82352941,,,,,,,,,,0.791,1,,,,,,,,,,,,,,,0,0.328571429,-0.325,1,0,0,0.791,button_right_main,0.328571429,-0.325,1,0,0,,0,51,51,28,1,CASINO,C,m,m,./images/CASINO.png,,,,,,,,,,,,,,,,,,,,,,,,,,,,,,,,,
,,,,,,,,,,,,,,,,,5f15e4bc797c740fff2c442c,28,2022-02-12_13h24.25.344,lexical_decision_task_DD_L6,2021.2.3,iPhone,58.82352941,,,,,,,,,,0.705,1,,,,,,,,,,,,,,,0,0.281632653,-0.343367347,1,0,0,0.705,button_right_main,0.281632653,-0.343367347,1,0,0,,0,52,52,75,1,HAMMER,LB,m,m,./images/HAMMERLB.png,,,,,,,,,,,,,,,,,,,,,,,,,,,,,,,,,
,,,,,,,,,,,,,,,,,5f15e4bc797c740fff2c442c,28,2022-02-12_13h24.25.344,lexical_decision_task_DD_L6,2021.2.3,iPhone,58.82352941,,,,,,,,,,1.011,1,,,,,,,,,,,,,,,0,0.297959184,-0.316836735,1,0,0,1.011,button_right_main,0.297959184,-0.316836735,1,0,0,,0,53,53,41,1,STREAM,HB,m,m,./images/STREAMHB.png,,,,,,,,,,,,,,,,,,,,,,,,,,,,,,,,,
,,,,,,,,,,,,,,,,,5f15e4bc797c740fff2c442c,28,2022-02-12_13h24.25.344,lexical_decision_task_DD_L6,2021.2.3,iPhone,58.82352941,,,,,,,,,,0.868,0,,,,,,,,,,,,,,,0,0.289795918,-0.309693878,1,0,0,0.868,button_right_main,0.289795918,-0.309693878,1,0,0,,0,54,54,142,1,PLASK,HB,z,z,./images/PLASKHB.png,,,,,,,,,,,,,,,,,,,,,,,,,,,,,,,,,
,,,,,,,,,,,,,,,,,5f15e4bc797c740fff2c442c,28,2022-02-12_13h24.25.344,lexical_decision_task_DD_L6,2021.2.3,iPhone,58.82352941,,,,,,,,,,0.649,1,,,,,,,,,,,,,,,0,0.293877551,-0.322959184,1,0,0,0.649,button_right_main,0.293877551,-0.322959184,1,0,0,,0,55,55,31,1,STEAK,C,m,m,./images/STEAK.png,,,,,,,,,,,,,,,,,,,,,,,,,,,,,,,,,
,,,,,,,,,,,,,,,,,5f15e4bc797c740fff2c442c,28,2022-02-12_13h24.25.344,lexical_decision_task_DD_L6,2021.2.3,iPhone,58.82352941,,,,,,,,,,1.029,1,,,,,,,,,,,,,,,0,0.314285714,-0.300510204,1,0,0,1.029,button_right_main,0.314285714,-0.300510204,1,0,0,,0,56,56,32,1,HOCKEY,HB,m,m,./images/HOCKEYHB.png,,,,,,,,,,,,,,,,,,,,,,,,,,,,,,,,,
,,,,,,,,,,,,,,,,,5f15e4bc797c740fff2c442c,28,2022-02-12_13h24.25.344,lexical_decision_task_DD_L6,2021.2.3,iPhone,58.82352941,,,,,,,,,,1.07,1,,,,,,,,,,,,,,,0,0.302040816,-0.304591837,1,0,0,1.07,button_right_main,0.302040816,-0.304591837,1,0,0,,0,57,57,56,1,HEATER,HB,m,m,./images/HEATERHB.png,,,,,,,,,,,,,,,,,,,,,,,,,,,,,,,,,
,,,,,,,,,,,,,,,,,5f15e4bc797c740fff2c442c,28,2022-02-12_13h24.25.344,lexical_decision_task_DD_L6,2021.2.3,iPhone,58.82352941,,,,,,,,,,0.994,1,,,,,,,,,,,,,,,0,-0.279591837,-0.292346939,1,0,0,0.994,button_left_main,-0.279591837,-0.292346939,1,0,0,,0,58,58,149,1,VEASE,LB,z,z,./images/VEASELB.png,,,,,,,,,,,,,,,,,,,,,,,,,,,,,,,,,
,,,,,,,,,,,,,,,,,5f15e4bc797c740fff2c442c,28,2022-02-12_13h24.25.344,lexical_decision_task_DD_L6,2021.2.3,iPhone,58.82352941,,,,,,,,,,1.081,1,,,,,,,,,,,,,,,0,0.310204082,-0.325,1,0,0,1.081,button_right_main,0.310204082,-0.325,1,0,0,,0,59,59,77,1,WHEEL,HB,m,m,./images/WHEELHB.png,,,,,,,,,,,,,,,,,,,,,,,,,,,,,,,,,
,,,,,,,,,,,,,,,,,5f15e4bc797c740fff2c442c,28,2022-02-12_13h24.25.344,lexical_decision_task_DD_L6,2021.2.3,iPhone,58.82352941,,,,,,,,,,0.571,1,,,,,,,,,,,,,,,0,0.263265306,-0.317857143,1,0,0,0.571,button_right_main,0.263265306,-0.317857143,1,0,0,,0,60,60,1,1,TOWEL,C,m,m,./images/TOWEL.png,,,,,,,,,,,,,,,,,,,,,,,,,,,,,,,,,
,,,,,,,,,,,,,,,,,5f15e4bc797c740fff2c442c,28,2022-02-12_13h24.25.344,lexical_decision_task_DD_L6,2021.2.3,iPhone,58.82352941,,,,,,,,,,1.159,1,,,,,,,,,,,,,,,0,0.280612245,-0.319897959,1,0,0,1.159,button_right_main,0.280612245,-0.319897959,1,0,0,,0,61,61,50,1,PILOT,HB,m,m,./images/PILOTHB.png,,,,,,,,,,,,,,,,,,,,,,,,,,,,,,,,,
,,,,,,,,,,,,,,,,,5f15e4bc797c740fff2c442c,28,2022-02-12_13h24.25.344,lexical_decision_task_DD_L6,2021.2.3,iPhone,58.82352941,,,,,,,,,,0.802,1,,,,,,,,,,,,,,,0,-0.263265306,-0.326020408,1,0,0,0.802,button_left_main,-0.263265306,-0.326020408,1,0,0,,0,62,62,132,1,SCIFF,C,z,z,./images/SCIFF.png,,,,,,,,,,,,,,,,,,,,,,,,,,,,,,,,,
,,,,,,,,,,,,,,,,,5f15e4bc797c740fff2c442c,28,2022-02-12_13h24.25.344,lexical_decision_task_DD_L6,2021.2.3,iPhone,58.82352941,,,,,,,,,,0.657,1,,,,,,,,,,,,,,,0,0.27244898,-0.315816327,1,0,0,0.657,button_right_main,0.27244898,-0.315816327,1,0,0,,0,63,63,22,1,CLOWN,C,m,m,./images/CLOWN.png,,,,,,,,,,,,,,,,,,,,,,,,,,,,,,,,,
,,,,,,,,,,,,,,,,,5f15e4bc797c740fff2c442c,28,2022-02-12_13h24.25.344,lexical_decision_task_DD_L6,2021.2.3,iPhone,58.82352941,,,,,,,,,,0.863,1,,,,,,,,,,,,,,,0,-0.231632653,-0.322959184,1,0,0,0.863,button_left_main,-0.231632653,-0.322959184,1,0,0,,0,64,64,152,1,FRAIN,LB,z,z,./images/FRAINLB.png,,,,,,,,,,,,,,,,,,,,,,,,,,,,,,,,,
,,,,,,,,,,,,,,,,,5f15e4bc797c740fff2c442c,28,2022-02-12_13h24.25.344,lexical_decision_task_DD_L6,2021.2.3,iPhone,58.82352941,,,,,,,,,,0.765,1,,,,,,,,,,,,,,,0,0.270408163,-0.316836735,1,0,0,0.765,button_right_main,0.270408163,-0.316836735,1,0,0,,0,65,65,51,1,SAUCE,LB,m,m,./images/SAUCELB.png,,,,,,,,,,,,,,,,,,,,,,,,,,,,,,,,,
,,,,,,,,,,,,,,,,,5f15e4bc797c740fff2c442c,28,2022-02-12_13h24.25.344,lexical_decision_task_DD_L6,2021.2.3,iPhone,58.82352941,,,,,,,,,,0.694,1,,,,,,,,,,,,,,,0,0.253061224,-0.317857143,1,0,0,0.694,button_right_main,0.253061224,-0.317857143,1,0,0,,0,66,66,25,1,CHALK,C,m,m,./images/CHALK.png,,,,,,,,,,,,,,,,,,,,,,,,,,,,,,,,,
,,,,,,,,,,,,,,,,,5f15e4bc797c740fff2c442c,28,2022-02-12_13h24.25.344,lexical_decision_task_DD_L6,2021.2.3,iPhone,58.82352941,,,,,,,,,,0.83,1,,,,,,,,,,,,,,,0,-0.258163265,-0.338265306,1,0,0,0.83,button_left_main,-0.258163265,-0.338265306,1,0,0,,0,67,67,116,1,BALGY,LB,z,z,./images/BALGYLB.png,,,,,,,,,,,,,,,,,,,,,,,,,,,,,,,,,
,,,,,,,,,,,,,,,,,5f15e4bc797c740fff2c442c,28,2022-02-12_13h24.25.344,lexical_decision_task_DD_L6,2021.2.3,iPhone,58.82352941,,,,,,,,,,0.83,1,,,,,,,,,,,,,,,0,-0.210204082,-0.316836735,1,0,0,0.83,button_left_main,-0.210204082,-0.316836735,1,0,0,,0,68,68,156,1,HIXES,C,z,z,./images/HIXES.png,,,,,,,,,,,,,,,,,,,,,,,,,,,,,,,,,
,,,,,,,,,,,,,,,,,5f15e4bc797c740fff2c442c,28,2022-02-12_13h24.25.344,lexical_decision_task_DD_L6,2021.2.3,iPhone,58.82352941,,,,,,,,,,1.484,1,,,,,,,,,,,,,,,0,-0.218367347,-0.339285714,1,0,0,1.484,button_left_main,-0.218367347,-0.339285714,1,0,0,,0,69,69,124,1,TUNCH,HB,z,z,./images/TUNCHHB.png,,,,,,,,,,,,,,,,,,,,,,,,,,,,,,,,,
,,,,,,,,,,,,,,,,,5f15e4bc797c740fff2c442c,28,2022-02-12_13h24.25.344,lexical_decision_task_DD_L6,2021.2.3,iPhone,58.82352941,,,,,,,,,,0.864,1,,,,,,,,,,,,,,,0,0.31122449,-0.307653061,1,0,0,0.864,button_right_main,0.31122449,-0.307653061,1,0,0,,0,70,70,68,1,VALLEY,HB,m,m,./images/VALLEYHB.png,,,,,,,,,,,,,,,,,,,,,,,,,,,,,,,,,
,,,,,,,,,,,,,,,,,5f15e4bc797c740fff2c442c,28,2022-02-12_13h24.25.344,lexical_decision_task_DD_L6,2021.2.3,iPhone,58.82352941,,,,,,,,,,0.946,1,,,,,,,,,,,,,,,0,-0.23877551,-0.350510204,1,0,0,0.946,button_left_main,-0.23877551,-0.350510204,1,0,0,,0,71,71,151,1,TINKY,HB,z,z,./images/TINKYHB.png,,,,,,,,,,,,,,,,,,,,,,,,,,,,,,,,,
,,,,,,,,,,,,,,,,,5f15e4bc797c740fff2c442c,28,2022-02-12_13h24.25.344,lexical_decision_task_DD_L6,2021.2.3,iPhone,58.82352941,,,,,,,,,,0.852,1,,,,,,,,,,,,,,,0,-0.224489796,-0.325,1,0,0,0.852,button_left_main,-0.224489796,-0.325,1,0,0,,0,72,72,146,1,MOOST,LB,z,z,./images/MOOSTLB.png,,,,,,,,,,,,,,,,,,,,,,,,,,,,,,,,,
,,,,,,,,,,,,,,,,,5f15e4bc797c740fff2c442c,28,2022-02-12_13h24.25.344,lexical_decision_task_DD_L6,2021.2.3,iPhone,58.82352941,,,,,,,,,,1.038,1,,,,,,,,,,,,,,,0,0.336734694,-0.300510204,1,0,0,1.038,button_right_main,0.336734694,-0.300510204,1,0,0,,0,73,73,57,1,FERRY,LB,m,m,./images/FERRYLB.png,,,,,,,,,,,,,,,,,,,,,,,,,,,,,,,,,
,,,,,,,,,,,,,,,,,5f15e4bc797c740fff2c442c,28,2022-02-12_13h24.25.344,lexical_decision_task_DD_L6,2021.2.3,iPhone,58.82352941,,,,,,,,,,1.309,1,,,,,,,,,,,,,,,0,-0.223469388,-0.348469388,1,0,0,1.309,button_left_main,-0.223469388,-0.348469388,1,0,0,,0,74,74,139,1,BLEAR,HB,z,z,./images/BLEARHB.png,,,,,,,,,,,,,,,,,,,,,,,,,,,,,,,,,
,,,,,,,,,,,,,,,,,5f15e4bc797c740fff2c442c,28,2022-02-12_13h24.25.344,lexical_decision_task_DD_L6,2021.2.3,iPhone,58.82352941,,,,,,,,,,0.64,1,,,,,,,,,,,,,,,0,0.293877551,-0.321938776,1,0,0,0.64,button_right_main,0.293877551,-0.321938776,1,0,0,,0,75,75,72,1,FLASK,LB,m,m,./images/FLASKLB.png,,,,,,,,,,,,,,,,,,,,,,,,,,,,,,,,,
,,,,,,,,,,,,,,,,,5f15e4bc797c740fff2c442c,28,2022-02-12_13h24.25.344,lexical_decision_task_DD_L6,2021.2.3,iPhone,58.82352941,,,,,,,,,,0.806,1,,,,,,,,,,,,,,,0,0.264285714,-0.334183673,1,0,0,0.806,button_right_main,0.264285714,-0.334183673,1,0,0,,0,76,76,69,1,ARROW,LB,m,m,./images/ARROWLB.png,,,,,,,,,,,,,,,,,,,,,,,,,,,,,,,,,
,,,,,,,,,,,,,,,,,5f15e4bc797c740fff2c442c,28,2022-02-12_13h24.25.344,lexical_decision_task_DD_L6,2021.2.3,iPhone,58.82352941,,,,,,,,,,0.689,1,,,,,,,,,,,,,,,0,0.289795918,-0.319897959,1,0,0,0.689,button_right_main,0.289795918,-0.319897959,1,0,0,,0,77,77,39,1,CANDY,LB,m,m,./images/CANDYLB.png,,,,,,,,,,,,,,,,,,,,,,,,,,,,,,,,,
,,,,,,,,,,,,,,,,,5f15e4bc797c740fff2c442c,28,2022-02-12_13h24.25.344,lexical_decision_task_DD_L6,2021.2.3,iPhone,58.82352941,,,,,,,,,,0.857,1,,,,,,,,,,,,,,,0,0.274489796,-0.331122449,1,0,0,0.857,button_right_main,0.274489796,-0.331122449,1,0,0,,0,78,78,44,1,BASKET,HB,m,m,./images/BASKETHB.png,,,,,,,,,,,,,,,,,,,,,,,,,,,,,,,,,
,,,,,,,,,,,,,,,,,5f15e4bc797c740fff2c442c,28,2022-02-12_13h24.25.344,lexical_decision_task_DD_L6,2021.2.3,iPhone,58.82352941,,,,,,,,,,0.745,1,,,,,,,,,,,,,,,0,-0.244897959,-0.334183673,1,0,0,0.745,button_left_main,-0.244897959,-0.334183673,1,0,0,,0,79,79,114,1,RIKES,C,z,z,./images/RIKES.png,,,,,,,,,,,,,,,,,,,,,,,,,,,,,,,,,
,,,,,,,,,,,,,,,,,5f15e4bc797c740fff2c442c,28,2022-02-12_13h24.25.344,lexical_decision_task_DD_L6,2021.2.3,iPhone,58.82352941,,,,,,,,,,0.641,1,,,,,,,,,,,,,,,0,0.278571429,-0.289285714,1,0,0,0.641,button_right_main,0.278571429,-0.289285714,1,0,0,,0,80,80,40,1,SNAKE,C,m,m,./images/SNAKE.png,,,,,,,,,,,,,,,,,,,,,,,,,,,,,,,,,
,,,,,,,,,,,,,,,,,5f15e4bc797c740fff2c442c,28,2022-02-12_13h24.25.344,lexical_decision_task_DD_L6,2021.2.3,iPhone,58.82352941,,,,,,,,,,1.065,1,,,,,,,,,,,,,,,0,-0.22755102,-0.329081633,1,0,0,1.065,button_left_main,-0.22755102,-0.329081633,1,0,0,,0,81,81,93,1,SMONE,C,z,z,./images/SMONE.png,,,,,,,,,,,,,,,,,,,,,,,,,,,,,,,,,
,,,,,,,,,,,,,,,,,5f15e4bc797c740fff2c442c,28,2022-02-12_13h24.25.344,lexical_decision_task_DD_L6,2021.2.3,iPhone,58.82352941,,,,,,,,,,0.924,0,,,,,,,,,,,,,,,0,0.291836735,-0.298469388,1,0,0,0.924,button_right_main,0.291836735,-0.298469388,1,0,0,,0,82,82,104,1,GITTY,LB,z,z,./images/GITTYLB.png,,,,,,,,,,,,,,,,,,,,,,,,,,,,,,,,,
,,,,,,,,,,,,,,,,,5f15e4bc797c740fff2c442c,28,2022-02-12_13h24.25.344,lexical_decision_task_DD_L6,2021.2.3,iPhone,58.82352941,,,,,,,,,,0.909,1,,,,,,,,,,,,,,,0,-0.218367347,-0.337244898,1,0,0,0.909,button_left_main,0.062244898,-0.381122449,1,0,0,,0,83,83,119,1,PAFER,LB,z,z,./images/PAFERLB.png,break_done_button,,,,,,,,,,,,,,,,,,,,,,,,,,,,,,,,
,,,,,,,,,,,,,,,,,5f15e4bc797c740fff2c442c,28,2022-02-12_13h24.25.344,lexical_decision_task_DD_L6,2021.2.3,iPhone,58.82352941,,,,,,,,,,0.95,1,,,,,,,,,,,,,,,0,0.301020408,-0.333163265,1,0,0,0.95,button_right_main,0.301020408,-0.333163265,1,0,0,,0,84,84,17,1,PARADE,HB,m,m,./images/PARADEHB.png,,,,,,,,,,,,,,,,,,,,,,,,,,,,,,,,,
,,,,,,,,,,,,,,,,,5f15e4bc797c740fff2c442c,28,2022-02-12_13h24.25.344,lexical_decision_task_DD_L6,2021.2.3,iPhone,58.82352941,,,,,,,,,,1.359,1,,,,,,,,,,,,,,,0,-0.22755102,-0.334183673,1,0,0,1.359,button_left_main,-0.22755102,-0.334183673,1,0,0,,0,85,85,100,1,DRIBS,HB,z,z,./images/DRIBSHB.png,,,,,,,,,,,,,,,,,,,,,,,,,,,,,,,,,
,,,,,,,,,,,,,,,,,5f15e4bc797c740fff2c442c,28,2022-02-12_13h24.25.344,lexical_decision_task_DD_L6,2021.2.3,iPhone,58.82352941,,,,,,,,,,1.058,1,,,,,,,,,,,,,,,0,-0.275510204,-0.36377551,1,0,0,1.058,button_left_main,-0.275510204,-0.36377551,1,0,0,,0,86,86,155,1,CANGY,LB,z,z,./images/CANGYLB.png,,,,,,,,,,,,,,,,,,,,,,,,,,,,,,,,,
,,,,,,,,,,,,,,,,,5f15e4bc797c740fff2c442c,28,2022-02-12_13h24.25.344,lexical_decision_task_DD_L6,2021.2.3,iPhone,58.82352941,,,,,,,,,,0.732,1,,,,,,,,,,,,,,,0,0.284693878,-0.317857143,1,0,0,0.732,button_right_main,0.284693878,-0.317857143,1,0,0,,0,87,87,63,1,BAKER,LB,m,m,./images/BAKERLB.png,,,,,,,,,,,,,,,,,,,,,,,,,,,,,,,,,
,,,,,,,,,,,,,,,,,5f15e4bc797c740fff2c442c,28,2022-02-12_13h24.25.344,lexical_decision_task_DD_L6,2021.2.3,iPhone,58.82352941,,,,,,,,,,0.678,1,,,,,,,,,,,,,,,0,0.275510204,-0.317857143,1,0,0,0.678,button_right_main,0.275510204,-0.317857143,1,0,0,,0,88,88,19,1,DONKEY,C,m,m,./images/DONKEY.png,,,,,,,,,,,,,,,,,,,,,,,,,,,,,,,,,
,,,,,,,,,,,,,,,,,5f15e4bc797c740fff2c442c,28,2022-02-12_13h24.25.344,lexical_decision_task_DD_L6,2021.2.3,iPhone,58.82352941,,,,,,,,,,0.746,1,,,,,,,,,,,,,,,0,-0.258163265,-0.338265306,1,0,0,0.746,button_left_main,-0.258163265,-0.338265306,1,0,0,,0,89,89,150,1,NOOLS,C,z,z,./images/NOOLS.png,,,,,,,,,,,,,,,,,,,,,,,,,,,,,,,,,
,,,,,,,,,,,,,,,,,5f15e4bc797c740fff2c442c,28,2022-02-12_13h24.25.344,lexical_decision_task_DD_L6,2021.2.3,iPhone,58.82352941,,,,,,,,,,1.084,1,,,,,,,,,,,,,,,0,-0.216326531,-0.342346939,1,0,0,1.084,button_left_main,-0.216326531,-0.342346939,1,0,0,,0,90,90,97,1,CHIDS,HB,z,z,./images/CHIDSHB.png,,,,,,,,,,,,,,,,,,,,,,,,,,,,,,,,,
,,,,,,,,,,,,,,,,,5f15e4bc797c740fff2c442c,28,2022-02-12_13h24.25.344,lexical_decision_task_DD_L6,2021.2.3,iPhone,58.82352941,,,,,,,,,,0.938,1,,,,,,,,,,,,,,,0,-0.22755102,-0.333163265,1,0,0,0.938,button_left_main,-0.22755102,-0.333163265,1,0,0,,0,91,91,158,1,EGECT,LB,z,z,./images/EGECTLB.png,,,,,,,,,,,,,,,,,,,,,,,,,,,,,,,,,
,,,,,,,,,,,,,,,,,5f15e4bc797c740fff2c442c,28,2022-02-12_13h24.25.344,lexical_decision_task_DD_L6,2021.2.3,iPhone,58.82352941,,,,,,,,,,0.64,1,,,,,,,,,,,,,,,0,0.275510204,-0.320918367,1,0,0,0.64,button_right_main,0.275510204,-0.320918367,1,0,0,,0,92,92,4,1,BOXER,C,m,m,./images/BOXER.png,,,,,,,,,,,,,,,,,,,,,,,,,,,,,,,,,
,,,,,,,,,,,,,,,,,5f15e4bc797c740fff2c442c,28,2022-02-12_13h24.25.344,lexical_decision_task_DD_L6,2021.2.3,iPhone,58.82352941,,,,,,,,,,0.715,1,,,,,,,,,,,,,,,0,0.259183673,-0.335204082,1,0,0,0.715,button_right_main,0.259183673,-0.335204082,1,0,0,,0,93,93,46,1,MUMMY,C,m,m,./images/MUMMY.png,,,,,,,,,,,,,,,,,,,,,,,,,,,,,,,,,
,,,,,,,,,,,,,,,,,5f15e4bc797c740fff2c442c,28,2022-02-12_13h24.25.344,lexical_decision_task_DD_L6,2021.2.3,iPhone,58.82352941,,,,,,,,,,0.68,1,,,,,,,,,,,,,,,0,0.280612245,-0.320918367,1,0,0,0.68,button_right_main,0.280612245,-0.320918367,1,0,0,,0,94,94,58,1,CANOE,C,m,m,./images/CANOE.png,,,,,,,,,,,,,,,,,,,,,,,,,,,,,,,,,
,,,,,,,,,,,,,,,,,5f15e4bc797c740fff2c442c,28,2022-02-12_13h24.25.344,lexical_decision_task_DD_L6,2021.2.3,iPhone,58.82352941,,,,,,,,,,1,1,,,,,,,,,,,,,,,0,0.283673469,-0.300510204,1,0,0,1,button_right_main,0.283673469,-0.300510204,1,0,0,,0,95,95,74,1,JUMPER,HB,m,m,./images/JUMPERHB.png,,,,,,,,,,,,,,,,,,,,,,,,,,,,,,,,,
,,,,,,,,,,,,,,,,,5f15e4bc797c740fff2c442c,28,2022-02-12_13h24.25.344,lexical_decision_task_DD_L6,2021.2.3,iPhone,58.82352941,,,,,,,,,,0.981,1,,,,,,,,,,,,,,,0,-0.22755102,-0.356632653,1,0,0,0.981,button_left_main,-0.22755102,-0.356632653,1,0,0,,0,96,96,147,1,ZOLES,C,z,z,./images/ZOLES.png,,,,,,,,,,,,,,,,,,,,,,,,,,,,,,,,,
,,,,,,,,,,,,,,,,,5f15e4bc797c740fff2c442c,28,2022-02-12_13h24.25.344,lexical_decision_task_DD_L6,2021.2.3,iPhone,58.82352941,,,,,,,,,,0.931,1,,,,,,,,,,,,,,,0,0.25,-0.305612245,1,0,0,0.931,button_right_main,0.25,-0.305612245,1,0,0,,0,97,97,3,1,CRATER,LB,m,m,./images/CRATERLB.png,,,,,,,,,,,,,,,,,,,,,,,,,,,,,,,,,
,,,,,,,,,,,,,,,,,5f15e4bc797c740fff2c442c,28,2022-02-12_13h24.25.344,lexical_decision_task_DD_L6,2021.2.3,iPhone,58.82352941,,,,,,,,,,0.943,1,,,,,,,,,,,,,,,0,0.25,-0.322959184,1,0,0,0.943,button_right_main,0.25,-0.322959184,1,0,0,,0,98,98,15,1,COLLAR,LB,m,m,./images/COLLARLB.png,,,,,,,,,,,,,,,,,,,,,,,,,,,,,,,,,
,,,,,,,,,,,,,,,,,5f15e4bc797c740fff2c442c,28,2022-02-12_13h24.25.344,lexical_decision_task_DD_L6,2021.2.3,iPhone,58.82352941,,,,,,,,,,0.773,1,,,,,,,,,,,,,,,0,0.255102041,-0.325,1,0,0,0.773,button_right_main,0.255102041,-0.325,1,0,0,,0,99,99,49,1,BISHOP,C,m,m,./images/BISHOP.png,,,,,,,,,,,,,,,,,,,,,,,,,,,,,,,,,
,,,,,,,,,,,,,,,,,5f15e4bc797c740fff2c442c,28,2022-02-12_13h24.25.344,lexical_decision_task_DD_L6,2021.2.3,iPhone,58.82352941,,,,,,,,,,0.844,1,,,,,,,,,,,,,,,0,0.314285714,-0.295408163,1,0,0,0.844,button_right_main,0.314285714,-0.295408163,1,0,0,,0,100,100,82,1,PEBBLE,C,m,m,./images/PEBBLE.png,,,,,,,,,,,,,,,,,,,,,,,,,,,,,,,,,
,,,,,,,,,,,,,,,,,5f15e4bc797c740fff2c442c,28,2022-02-12_13h24.25.344,lexical_decision_task_DD_L6,2021.2.3,iPhone,58.82352941,,,,,,,,,,0.628,1,,,,,,,,,,,,,,,0,0.274489796,-0.299489796,1,0,0,0.628,button_right_main,0.274489796,-0.299489796,1,0,0,,0,101,101,76,1,MIDGET,C,m,m,./images/MIDGET.png,,,,,,,,,,,,,,,,,,,,,,,,,,,,,,,,,
,,,,,,,,,,,,,,,,,5f15e4bc797c740fff2c442c,28,2022-02-12_13h24.25.344,lexical_decision_task_DD_L6,2021.2.3,iPhone,58.82352941,,,,,,,,,,0.701,1,,,,,,,,,,,,,,,0,0.257142857,-0.304591837,1,0,0,0.701,button_right_main,0.257142857,-0.304591837,1,0,0,,0,102,102,48,1,SHIELD,LB,m,m,./images/SHIELDLB.png,,,,,,,,,,,,,,,,,,,,,,,,,,,,,,,,,
,,,,,,,,,,,,,,,,,5f15e4bc797c740fff2c442c,28,2022-02-12_13h24.25.344,lexical_decision_task_DD_L6,2021.2.3,iPhone,58.82352941,,,,,,,,,,0.863,1,,,,,,,,,,,,,,,0,-0.273469388,-0.325,1,0,0,0.863,button_left_main,-0.273469388,-0.325,1,0,0,,0,103,103,153,1,CLUPS,C,z,z,./images/CLUPS.png,,,,,,,,,,,,,,,,,,,,,,,,,,,,,,,,,
,,,,,,,,,,,,,,,,,5f15e4bc797c740fff2c442c,28,2022-02-12_13h24.25.344,lexical_decision_task_DD_L6,2021.2.3,iPhone,58.82352941,,,,,,,,,,1.01,1,,,,,,,,,,,,,,,0,-0.246938776,-0.294387755,1,0,0,1.01,button_left_main,-0.246938776,-0.294387755,1,0,0,,0,104,104,143,1,MONGS,LB,z,z,./images/MONGSLB.png,,,,,,,,,,,,,,,,,,,,,,,,,,,,,,,,,
,,,,,,,,,,,,,,,,,5f15e4bc797c740fff2c442c,28,2022-02-12_13h24.25.344,lexical_decision_task_DD_L6,2021.2.3,iPhone,58.82352941,,,,,,,,,,1.099,1,,,,,,,,,,,,,,,0,0.329591837,-0.292346939,1,0,0,1.099,button_right_main,0.329591837,-0.292346939,1,0,0,,0,105,105,20,1,GRANNY,HB,m,m,./images/GRANNYHB.png,,,,,,,,,,,,,,,,,,,,,,,,,,,,,,,,,
,,,,,,,,,,,,,,,,,5f15e4bc797c740fff2c442c,28,2022-02-12_13h24.25.344,lexical_decision_task_DD_L6,2021.2.3,iPhone,58.82352941,,,,,,,,,,0.665,1,,,,,,,,,,,,,,,0,0.279591837,-0.294387755,1,0,0,0.665,button_right_main,0.279591837,-0.294387755,1,0,0,,0,106,106,78,1,BROOM,LB,m,m,./images/BROOMLB.png,,,,,,,,,,,,,,,,,,,,,,,,,,,,,,,,,
,,,,,,,,,,,,,,,,,5f15e4bc797c740fff2c442c,28,2022-02-12_13h24.25.344,lexical_decision_task_DD_L6,2021.2.3,iPhone,58.82352941,,,,,,,,,,0.823,1,,,,,,,,,,,,,,,0,-0.280612245,-0.322959184,1,0,0,0.823,button_left_main,-0.280612245,-0.322959184,1,0,0,,0,107,107,140,1,DOVET,LB,z,z,./images/DOVETLB.png,,,,,,,,,,,,,,,,,,,,,,,,,,,,,,,,,
,,,,,,,,,,,,,,,,,5f15e4bc797c740fff2c442c,28,2022-02-12_13h24.25.344,lexical_decision_task_DD_L6,2021.2.3,iPhone,58.82352941,,,,,,,,,,0.963,1,,,,,,,,,,,,,,,0,-0.242857143,-0.308673469,1,0,0,0.963,button_left_main,-0.242857143,-0.308673469,1,0,0,,0,108,108,89,1,DRIEK,LB,z,z,./images/DRIEKLB.png,,,,,,,,,,,,,,,,,,,,,,,,,,,,,,,,,
,,,,,,,,,,,,,,,,,5f15e4bc797c740fff2c442c,28,2022-02-12_13h24.25.344,lexical_decision_task_DD_L6,2021.2.3,iPhone,58.82352941,,,,,,,,,,1.198,1,,,,,,,,,,,,,,,0,0.298979592,-0.296428571,1,0,0,1.198,button_right_main,0.298979592,-0.296428571,1,0,0,,0,109,109,71,1,BUBBLE,HB,m,m,./images/BUBBLEHB.png,,,,,,,,,,,,,,,,,,,,,,,,,,,,,,,,,
,,,,,,,,,,,,,,,,,5f15e4bc797c740fff2c442c,28,2022-02-12_13h24.25.344,lexical_decision_task_DD_L6,2021.2.3,iPhone,58.82352941,,,,,,,,,,1.336,1,,,,,,,,,,,,,,,0,-0.292857143,-0.354591837,1,0,0,1.336,button_left_main,-0.292857143,-0.354591837,1,0,0,,0,110,110,148,1,JOMS,HB,z,z,./images/JOMSHB.png,,,,,,,,,,,,,,,,,,,,,,,,,,,,,,,,,
,,,,,,,,,,,,,,,,,5f15e4bc797c740fff2c442c,28,2022-02-12_13h24.25.344,lexical_decision_task_DD_L6,2021.2.3,iPhone,58.82352941,,,,,,,,,,1.308,1,,,,,,,,,,,,,,,0,-0.255102041,-0.338265306,1,0,0,1.308,button_left_main,-0.255102041,-0.338265306,1,0,0,,0,111,111,154,1,THINT,HB,z,z,./images/THINTHB.png,,,,,,,,,,,,,,,,,,,,,,,,,,,,,,,,,
,,,,,,,,,,,,,,,,,5f15e4bc797c740fff2c442c,28,2022-02-12_13h24.25.344,lexical_decision_task_DD_L6,2021.2.3,iPhone,58.82352941,,,,,,,,,,0.992,1,,,,,,,,,,,,,,,0,-0.252040816,-0.340306122,1,0,0,0.992,button_left_main,-0.252040816,-0.340306122,1,0,0,,0,112,112,84,1,HAXES,C,z,z,./images/HAXES.png,,,,,,,,,,,,,,,,,,,,,,,,,,,,,,,,,
,,,,,,,,,,,,,,,,,5f15e4bc797c740fff2c442c,28,2022-02-12_13h24.25.344,lexical_decision_task_DD_L6,2021.2.3,iPhone,58.82352941,,,,,,,,,,0.863,1,,,,,,,,,,,,,,,0,-0.223469388,-0.335204082,1,0,0,0.863,button_left_main,-0.223469388,-0.335204082,1,0,0,,0,113,113,129,1,PRANS,C,z,z,./images/PRANS.png,,,,,,,,,,,,,,,,,,,,,,,,,,,,,,,,,
,,,,,,,,,,,,,,,,,5f15e4bc797c740fff2c442c,28,2022-02-12_13h24.25.344,lexical_decision_task_DD_L6,2021.2.3,iPhone,58.82352941,,,,,,,,,,0.999,1,,,,,,,,,,,,,,,0,-0.25,-0.338265306,1,0,0,0.999,button_left_main,-0.25,-0.338265306,1,0,0,,0,114,114,144,1,NAIRY,C,z,z,./images/NAIRY.png,,,,,,,,,,,,,,,,,,,,,,,,,,,,,,,,,
,,,,,,,,,,,,,,,,,5f15e4bc797c740fff2c442c,28,2022-02-12_13h24.25.344,lexical_decision_task_DD_L6,2021.2.3,iPhone,58.82352941,,,,,,,,,,0.866,1,,,,,,,,,,,,,,,0,0.320408163,-0.319897959,1,0,0,0.866,button_right_main,0.320408163,-0.319897959,1,0,0,,0,115,115,43,1,STOOL,C,m,m,./images/STOOL.png,,,,,,,,,,,,,,,,,,,,,,,,,,,,,,,,,
,,,,,,,,,,,,,,,,,5f15e4bc797c740fff2c442c,28,2022-02-12_13h24.25.344,lexical_decision_task_DD_L6,2021.2.3,iPhone,58.82352941,,,,,,,,,,0.779,1,,,,,,,,,,,,,,,0,0.264285714,-0.329081633,1,0,0,0.779,button_right_main,0.264285714,-0.329081633,1,0,0,,0,116,116,21,1,DANCER,LB,m,m,./images/DANCERLB.png,,,,,,,,,,,,,,,,,,,,,,,,,,,,,,,,,
,,,,,,,,,,,,,,,,,5f15e4bc797c740fff2c442c,28,2022-02-12_13h24.25.344,lexical_decision_task_DD_L6,2021.2.3,iPhone,58.82352941,,,,,,,,,,1.014,1,,,,,,,,,,,,,,,0,-0.204081633,-0.34744898,1,0,0,1.014,button_left_main,-0.204081633,-0.34744898,1,0,0,,0,117,117,90,1,NEAST,C,z,z,./images/NEAST.png,,,,,,,,,,,,,,,,,,,,,,,,,,,,,,,,,
,,,,,,,,,,,,,,,,,5f15e4bc797c740fff2c442c,28,2022-02-12_13h24.25.344,lexical_decision_task_DD_L6,2021.2.3,iPhone,58.82352941,,,,,,,,,,0.825,1,,,,,,,,,,,,,,,0,-0.192857143,-0.330102041,1,0,0,0.825,button_left_main,-0.22755102,-0.36377551,1,0,0,,0,118,118,113,1,LINEW,LB,z,z,./images/LINEWLB.png,,,,,,,,,,,,,,,,,,,,,,,,,,,,,,,,,
,,,,,,,,,,,,,,,,,5f15e4bc797c740fff2c442c,28,2022-02-12_13h24.25.344,lexical_decision_task_DD_L6,2021.2.3,iPhone,58.82352941,,,,,,,,,,0.756,1,,,,,,,,,,,,,,,0,0.328571429,-0.294387755,1,0,0,0.756,button_right_main,0.328571429,-0.294387755,1,0,0,,0,119,119,37,1,TIGER,C,m,m,./images/TIGER.png,,,,,,,,,,,,,,,,,,,,,,,,,,,,,,,,,
,,,,,,,,,,,,,,,,,5f15e4bc797c740fff2c442c,28,2022-02-12_13h24.25.344,lexical_decision_task_DD_L6,2021.2.3,iPhone,58.82352941,,,,,,,,,,0.742,1,,,,,,,,,,,,,,,0,0.305102041,-0.295408163,1,0,0,0.742,button_right_main,0.305102041,-0.295408163,1,0,0,,0,120,120,61,1,ARTIST,C,m,m,./images/ARTIST.png,,,,,,,,,,,,,,,,,,,,,,,,,,,,,,,,,
,,,,,,,,,,,,,,,,,5f15e4bc797c740fff2c442c,28,2022-02-12_13h24.25.344,lexical_decision_task_DD_L6,2021.2.3,iPhone,58.82352941,,,,,,,,,,0.799,1,,,,,,,,,,,,,,,0,-0.263265306,-0.329081633,1,0,0,0.799,button_left_main,-0.263265306,-0.329081633,1,0,0,,0,121,121,87,1,TRING,C,z,z,./images/TRING.png,,,,,,,,,,,,,,,,,,,,,,,,,,,,,,,,,
,,,,,,,,,,,,,,,,,5f15e4bc797c740fff2c442c,28,2022-02-12_13h24.25.344,lexical_decision_task_DD_L6,2021.2.3,iPhone,58.82352941,,,,,,,,,,0.747,1,,,,,,,,,,,,,,,0,-0.269387755,-0.312755102,1,0,0,0.747,button_left_main,-0.269387755,-0.312755102,1,0,0,,0,122,122,126,1,GUELS,C,z,z,./images/GUELS.png,,,,,,,,,,,,,,,,,,,,,,,,,,,,,,,,,
,,,,,,,,,,,,,,,,,5f15e4bc797c740fff2c442c,28,2022-02-12_13h24.25.344,lexical_decision_task_DD_L6,2021.2.3,iPhone,58.82352941,,,,,,,,,,0.839,1,,,,,,,,,,,,,,,0,0.267346939,-0.292346939,1,0,0,0.839,button_right_main,0.267346939,-0.292346939,1,0,0,,0,123,123,2,1,STOVE,HB,m,m,./images/STOVEHB.png,,,,,,,,,,,,,,,,,,,,,,,,,,,,,,,,,
,,,,,,,,,,,,,,,,,5f15e4bc797c740fff2c442c,28,2022-02-12_13h24.25.344,lexical_decision_task_DD_L6,2021.2.3,iPhone,58.82352941,,,,,,,,,,0.745,1,,,,,,,,,,,,,,,0,-0.266326531,-0.320918367,1,0,0,0.745,button_left_main,-0.266326531,-0.320918367,1,0,0,,0,124,124,102,1,DULLE,C,z,z,./images/DULLE.png,,,,,,,,,,,,,,,,,,,,,,,,,,,,,,,,,
,,,,,,,,,,,,,,,,,5f15e4bc797c740fff2c442c,28,2022-02-12_13h24.25.344,lexical_decision_task_DD_L6,2021.2.3,iPhone,58.82352941,,,,,,,,,,0.876,1,,,,,,,,,,,,,,,0,0.305102041,-0.291326531,1,0,0,0.876,button_right_main,0.058163265,-0.387244898,1,0,0,,0,125,125,7,1,WAGON,C,m,m,./images/WAGON.png,break_done_button,,,,,,,,,,,,,,,,,,,,,,,,,,,,,,,,
,,,,,,,,,,,,,,,,,5f15e4bc797c740fff2c442c,28,2022-02-12_13h24.25.344,lexical_decision_task_DD_L6,2021.2.3,iPhone,58.82352941,,,,,,,,,,0.941,1,,,,,,,,,,,,,,,0,0.283673469,-0.311734694,1,0,0,0.941,button_right_main,0.283673469,-0.311734694,1,0,0,,0,126,126,62,1,MAMMAL,HB,m,m,./images/MAMMALHB.png,,,,,,,,,,,,,,,,,,,,,,,,,,,,,,,,,
,,,,,,,,,,,,,,,,,5f15e4bc797c740fff2c442c,28,2022-02-12_13h24.25.344,lexical_decision_task_DD_L6,2021.2.3,iPhone,58.82352941,,,,,,,,,,0.978,1,,,,,,,,,,,,,,,0,0.283673469,-0.303571429,1,0,0,0.978,button_right_main,0.283673469,-0.303571429,1,0,0,,0,127,127,59,1,BRUSH,HB,m,m,./images/BRUSHHB.png,,,,,,,,,,,,,,,,,,,,,,,,,,,,,,,,,
,,,,,,,,,,,,,,,,,5f15e4bc797c740fff2c442c,28,2022-02-12_13h24.25.344,lexical_decision_task_DD_L6,2021.2.3,iPhone,58.82352941,,,,,,,,,,1.144,1,,,,,,,,,,,,,,,0,-0.259183673,-0.327040816,1,0,0,1.144,button_left_main,-0.259183673,-0.327040816,1,0,0,,0,128,128,157,1,INLER,HB,z,z,./images/INLERHB.png,,,,,,,,,,,,,,,,,,,,,,,,,,,,,,,,,
,,,,,,,,,,,,,,,,,5f15e4bc797c740fff2c442c,28,2022-02-12_13h24.25.344,lexical_decision_task_DD_L6,2021.2.3,iPhone,58.82352941,,,,,,,,,,1.387,1,,,,,,,,,,,,,,,0,-0.268367347,-0.333163265,1,0,0,1.387,button_left_main,-0.268367347,-0.333163265,1,0,0,,0,129,129,103,1,FLORT,HB,z,z,./images/FLORTHB.png,,,,,,,,,,,,,,,,,,,,,,,,,,,,,,,,,
,,,,,,,,,,,,,,,,,5f15e4bc797c740fff2c442c,28,2022-02-12_13h24.25.344,lexical_decision_task_DD_L6,2021.2.3,iPhone,58.82352941,,,,,,,,,,0.847,1,,,,,,,,,,,,,,,0,-0.251020408,-0.340306122,1,0,0,0.847,button_left_main,-0.251020408,-0.340306122,1,0,0,,0,130,130,117,1,STEEG,C,z,z,./images/STEEG.png,,,,,,,,,,,,,,,,,,,,,,,,,,,,,,,,,
,,,,,,,,,,,,,,,,,5f15e4bc797c740fff2c442c,28,2022-02-12_13h24.25.344,lexical_decision_task_DD_L6,2021.2.3,iPhone,58.82352941,,,,,,,,,,0.761,1,,,,,,,,,,,,,,,0,0.343877551,-0.30255102,1,0,0,0.761,button_right_main,0.343877551,-0.30255102,1,0,0,,0,131,131,54,1,CHERRY,LB,m,m,./images/CHERRYLB.png,,,,,,,,,,,,,,,,,,,,,,,,,,,,,,,,,
,,,,,,,,,,,,,,,,,5f15e4bc797c740fff2c442c,28,2022-02-12_13h24.25.344,lexical_decision_task_DD_L6,2021.2.3,iPhone,58.82352941,,,,,,,,,,1.274,1,,,,,,,,,,,,,,,0,-0.281632653,-0.369897959,1,0,0,1.274,button_left_main,-0.281632653,-0.369897959,1,0,0,,0,132,132,127,1,NINDY,HB,z,z,./images/NINDYHB.png,,,,,,,,,,,,,,,,,,,,,,,,,,,,,,,,,
,,,,,,,,,,,,,,,,,5f15e4bc797c740fff2c442c,28,2022-02-12_13h24.25.344,lexical_decision_task_DD_L6,2021.2.3,iPhone,58.82352941,,,,,,,,,,0.826,1,,,,,,,,,,,,,,,0,-0.255102041,-0.351530612,1,0,0,0.826,button_left_main,-0.255102041,-0.351530612,1,0,0,,0,133,133,141,1,PLEET,C,z,z,./images/PLEET.png,,,,,,,,,,,,,,,,,,,,,,,,,,,,,,,,,
,,,,,,,,,,,,,,,,,5f15e4bc797c740fff2c442c,28,2022-02-12_13h24.25.344,lexical_decision_task_DD_L6,2021.2.3,iPhone,58.82352941,,,,,,,,,,0.889,1,,,,,,,,,,,,,,,0,-0.23877551,-0.327040816,1,0,0,0.889,button_left_main,-0.23877551,-0.327040816,1,0,0,,0,134,134,145,1,LAMEL,HB,z,z,./images/LAMELHB.png,,,,,,,,,,,,,,,,,,,,,,,,,,,,,,,,,
,,,,,,,,,,,,,,,,,5f15e4bc797c740fff2c442c,28,2022-02-12_13h24.25.344,lexical_decision_task_DD_L6,2021.2.3,iPhone,58.82352941,,,,,,,,,,0.846,1,,,,,,,,,,,,,,,0,0.315306122,-0.305612245,1,0,0,0.846,button_right_main,0.315306122,-0.305612245,1,0,0,,0,135,135,26,1,CLOUD,HB,m,m,./images/CLOUDHB.png,,,,,,,,,,,,,,,,,,,,,,,,,,,,,,,,,
,,,,,,,,,,,,,,,,,5f15e4bc797c740fff2c442c,28,2022-02-12_13h24.25.344,lexical_decision_task_DD_L6,2021.2.3,iPhone,58.82352941,,,,,,,,,,0.768,1,,,,,,,,,,,,,,,0,-0.252040816,-0.348469388,1,0,0,0.768,button_left_main,-0.252040816,-0.348469388,1,0,0,,0,136,136,123,1,SEDGE,C,z,z,./images/SEDGE.png,,,,,,,,,,,,,,,,,,,,,,,,,,,,,,,,,
,,,,,,,,,,,,,,,,,5f15e4bc797c740fff2c442c,28,2022-02-12_13h24.25.344,lexical_decision_task_DD_L6,2021.2.3,iPhone,58.82352941,,,,,,,,,,0.881,1,,,,,,,,,,,,,,,0,0.235714286,-0.316836735,1,0,0,0.881,button_right_main,0.235714286,-0.316836735,1,0,0,,0,137,137,5,1,BAMBOO,HB,m,m,./images/BAMBOOHB.png,,,,,,,,,,,,,,,,,,,,,,,,,,,,,,,,,
,,,,,,,,,,,,,,,,,5f15e4bc797c740fff2c442c,28,2022-02-12_13h24.25.344,lexical_decision_task_DD_L6,2021.2.3,iPhone,58.82352941,,,,,,,,,,0.679,1,,,,,,,,,,,,,,,0,0.232653061,-0.325,1,0,0,0.679,button_right_main,0.232653061,-0.325,1,0,0,,0,138,138,73,1,GLOVE,C,m,m,./images/GLOVE.png,,,,,,,,,,,,,,,,,,,,,,,,,,,,,,,,,
,,,,,,,,,,,,,,,,,5f15e4bc797c740fff2c442c,28,2022-02-12_13h24.25.344,lexical_decision_task_DD_L6,2021.2.3,iPhone,58.82352941,,,,,,,,,,0.94,1,,,,,,,,,,,,,,,0,0.22244898,-0.309693878,1,0,0,0.94,button_right_main,0.22244898,-0.309693878,1,0,0,,0,139,139,14,1,FENCE,HB,m,m,./images/FENCEHB.png,,,,,,,,,,,,,,,,,,,,,,,,,,,,,,,,,
,,,,,,,,,,,,,,,,,5f15e4bc797c740fff2c442c,28,2022-02-12_13h24.25.344,lexical_decision_task_DD_L6,2021.2.3,iPhone,58.82352941,,,,,,,,,,1.36,1,,,,,,,,,,,,,,,0,-0.260204082,-0.334183673,1,0,0,1.36,button_left_main,-0.260204082,-0.334183673,1,0,0,,0,140,140,106,1,CLUMS,HB,z,z,./images/CLUMSHB.png,,,,,,,,,,,,,,,,,,,,,,,,,,,,,,,,,
,,,,,,,,,,,,,,,,,5f15e4bc797c740fff2c442c,28,2022-02-12_13h24.25.344,lexical_decision_task_DD_L6,2021.2.3,iPhone,58.82352941,,,,,,,,,,0.999,1,,,,,,,,,,,,,,,0,-0.254081633,-0.337244898,1,0,0,0.999,button_left_main,-0.254081633,-0.337244898,1,0,0,,0,141,141,92,1,PAIMS,LB,z,z,./images/PAIMSLB.png,,,,,,,,,,,,,,,,,,,,,,,,,,,,,,,,,
,,,,,,,,,,,,,,,,,5f15e4bc797c740fff2c442c,28,2022-02-12_13h24.25.344,lexical_decision_task_DD_L6,2021.2.3,iPhone,58.82352941,,,,,,,,,,0.842,1,,,,,,,,,,,,,,,0,-0.201020408,-0.325,1,0,0,0.842,button_left_main,-0.201020408,-0.325,1,0,0,,0,142,142,95,1,HANTY,LB,z,z,./images/HANTYLB.png,,,,,,,,,,,,,,,,,,,,,,,,,,,,,,,,,
,,,,,,,,,,,,,,,,,5f15e4bc797c740fff2c442c,28,2022-02-12_13h24.25.344,lexical_decision_task_DD_L6,2021.2.3,iPhone,58.82352941,,,,,,,,,,1.111,1,,,,,,,,,,,,,,,0,0.305102041,-0.303571429,1,0,0,1.111,button_right_main,0.305102041,-0.303571429,1,0,0,,0,143,143,35,1,LLAMA,HB,m,m,./images/LLAMAHB.png,,,,,,,,,,,,,,,,,,,,,,,,,,,,,,,,,
,,,,,,,,,,,,,,,,,5f15e4bc797c740fff2c442c,28,2022-02-12_13h24.25.344,lexical_decision_task_DD_L6,2021.2.3,iPhone,58.82352941,,,,,,,,,,0.817,1,,,,,,,,,,,,,,,0,-0.263265306,-0.321938776,1,0,0,0.817,button_left_main,-0.263265306,-0.321938776,1,0,0,,0,144,144,162,1,LEICH,C,z,z,./images/LEICH.png,,,,,,,,,,,,,,,,,,,,,,,,,,,,,,,,,
,,,,,,,,,,,,,,,,,5f15e4bc797c740fff2c442c,28,2022-02-12_13h24.25.344,lexical_decision_task_DD_L6,2021.2.3,iPhone,58.82352941,,,,,,,,,,1.115,1,,,,,,,,,,,,,,,0,0.281632653,-0.30255102,1,0,0,1.115,button_right_main,0.281632653,-0.30255102,1,0,0,,0,145,145,34,1,RAZOR,C,m,m,./images/RAZOR.png,,,,,,,,,,,,,,,,,,,,,,,,,,,,,,,,,
,,,,,,,,,,,,,,,,,5f15e4bc797c740fff2c442c,28,2022-02-12_13h24.25.344,lexical_decision_task_DD_L6,2021.2.3,iPhone,58.82352941,,,,,,,,,,1.102,1,,,,,,,,,,,,,,,0,-0.266326531,-0.307653061,1,0,0,1.102,button_left_main,-0.266326531,-0.307653061,1,0,0,,0,146,146,109,1,BURGE,HB,z,z,./images/BURGEHB.png,,,,,,,,,,,,,,,,,,,,,,,,,,,,,,,,,
,,,,,,,,,,,,,,,,,5f15e4bc797c740fff2c442c,28,2022-02-12_13h24.25.344,lexical_decision_task_DD_L6,2021.2.3,iPhone,58.82352941,,,,,,,,,,1.055,1,,,,,,,,,,,,,,,0,0.312244898,-0.300510204,1,0,0,1.055,button_right_main,0.312244898,-0.300510204,1,0,0,,0,147,147,60,1,CURRY,LB,m,m,./images/CURRYLB.png,,,,,,,,,,,,,,,,,,,,,,,,,,,,,,,,,
,,,,,,,,,,,,,,,,,5f15e4bc797c740fff2c442c,28,2022-02-12_13h24.25.344,lexical_decision_task_DD_L6,2021.2.3,iPhone,58.82352941,,,,,,,,,,0.934,1,,,,,,,,,,,,,,,0,-0.251020408,-0.299489796,1,0,0,0.934,button_left_main,-0.251020408,-0.299489796,1,0,0,,0,148,148,125,1,MOOKY,LB,z,z,./images/MOOKYLB.png,,,,,,,,,,,,,,,,,,,,,,,,,,,,,,,,,
,,,,,,,,,,,,,,,,,5f15e4bc797c740fff2c442c,28,2022-02-12_13h24.25.344,lexical_decision_task_DD_L6,2021.2.3,iPhone,58.82352941,,,,,,,,,,0.716,1,,,,,,,,,,,,,,,0,0.267346939,-0.295408163,1,0,0,0.716,button_right_main,0.267346939,-0.295408163,1,0,0,,0,149,149,64,1,BRIDE,C,m,m,./images/BRIDE.png,,,,,,,,,,,,,,,,,,,,,,,,,,,,,,,,,
,,,,,,,,,,,,,,,,,5f15e4bc797c740fff2c442c,28,2022-02-12_13h24.25.344,lexical_decision_task_DD_L6,2021.2.3,iPhone,58.82352941,,,,,,,,,,1.015,1,,,,,,,,,,,,,,,0,0.275510204,-0.292346939,1,0,0,1.015,button_right_main,0.275510204,-0.292346939,1,0,0,,0,150,150,29,1,PISTOL,HB,m,m,./images/PISTOLHB.png,,,,,,,,,,,,,,,,,,,,,,,,,,,,,,,,,
,,,,,,,,,,,,,,,,,5f15e4bc797c740fff2c442c,28,2022-02-12_13h24.25.344,lexical_decision_task_DD_L6,2021.2.3,iPhone,58.82352941,,,,,,,,,,1.09,1,,,,,,,,,,,,,,,0,-0.269387755,-0.333163265,1,0,0,1.09,button_left_main,-0.269387755,-0.333163265,1,0,0,,0,151,151,105,1,MOKER,C,z,z,./images/MOKER.png,,,,,,,,,,,,,,,,,,,,,,,,,,,,,,,,,
,,,,,,,,,,,,,,,,,5f15e4bc797c740fff2c442c,28,2022-02-12_13h24.25.344,lexical_decision_task_DD_L6,2021.2.3,iPhone,58.82352941,,,,,,,,,,0.706,1,,,,,,,,,,,,,,,0,0.305102041,-0.307653061,1,0,0,0.706,button_right_main,0.305102041,-0.307653061,1,0,0,,0,152,152,16,1,GRAPE,C,m,m,./images/GRAPE.png,,,,,,,,,,,,,,,,,,,,,,,,,,,,,,,,,
,,,,,,,,,,,,,,,,,5f15e4bc797c740fff2c442c,28,2022-02-12_13h24.25.344,lexical_decision_task_DD_L6,2021.2.3,iPhone,58.82352941,,,,,,,,,,0.782,1,,,,,,,,,,,,,,,0,-0.252040816,-0.307653061,1,0,0,0.782,button_left_main,-0.252040816,-0.307653061,1,0,0,,0,153,153,134,1,TROSS,LB,z,z,./images/TROSSLB.png,,,,,,,,,,,,,,,,,,,,,,,,,,,,,,,,,
,,,,,,,,,,,,,,,,,5f15e4bc797c740fff2c442c,28,2022-02-12_13h24.25.344,lexical_decision_task_DD_L6,2021.2.3,iPhone,58.82352941,,,,,,,,,,1.386,1,,,,,,,,,,,,,,,0,-0.21122449,-0.308673469,1,0,0,1.386,button_left_main,-0.21122449,-0.308673469,1,0,0,,0,154,154,88,1,GLUSH,HB,z,z,./images/GLUSHHB.png,,,,,,,,,,,,,,,,,,,,,,,,,,,,,,,,,
,,,,,,,,,,,,,,,,,5f15e4bc797c740fff2c442c,28,2022-02-12_13h24.25.344,lexical_decision_task_DD_L6,2021.2.3,iPhone,58.82352941,,,,,,,,,,0.732,1,,,,,,,,,,,,,,,0,0.335714286,-0.28622449,1,0,0,0.732,button_right_main,0.335714286,-0.28622449,1,0,0,,0,155,155,27,1,BUTTER,LB,m,m,./images/BUTTERLB.png,,,,,,,,,,,,,,,,,,,,,,,,,,,,,,,,,
,,,,,,,,,,,,,,,,,5f15e4bc797c740fff2c442c,28,2022-02-12_13h24.25.344,lexical_decision_task_DD_L6,2021.2.3,iPhone,58.82352941,,,,,,,,,,0.992,1,,,,,,,,,,,,,,,0,0.243877551,-0.31377551,1,0,0,0.992,button_right_main,0.243877551,-0.31377551,1,0,0,,0,156,156,11,1,MEDAL,HB,m,m,./images/MEDALHB.png,,,,,,,,,,,,,,,,,,,,,,,,,,,,,,,,,
,,,,,,,,,,,,,,,,,5f15e4bc797c740fff2c442c,28,2022-02-12_13h24.25.344,lexical_decision_task_DD_L6,2021.2.3,iPhone,58.82352941,,,,,,,,,,0.894,1,,,,,,,,,,,,,,,0,0.231632653,-0.326020408,1,0,0,0.894,button_right_main,0.231632653,-0.326020408,1,0,0,,0,157,157,9,1,DIVER,LB,m,m,./images/DIVERLB.png,,,,,,,,,,,,,,,,,,,,,,,,,,,,,,,,,
,,,,,,,,,,,,,,,,,5f15e4bc797c740fff2c442c,28,2022-02-12_13h24.25.344,lexical_decision_task_DD_L6,2021.2.3,iPhone,58.82352941,,,,,,,,,,1.044,1,,,,,,,,,,,,,,,0,-0.237755102,-0.335204082,1,0,0,1.044,button_left_main,-0.237755102,-0.335204082,1,0,0,,0,158,158,99,1,BACKY,C,z,z,./images/BACKY.png,,,,,,,,,,,,,,,,,,,,,,,,,,,,,,,,,
,,,,,,,,,,,,,,,,,5f15e4bc797c740fff2c442c,28,2022-02-12_13h24.25.344,lexical_decision_task_DD_L6,2021.2.3,iPhone,58.82352941,,,,,,,,,,1.014,1,,,,,,,,,,,,,,,0,-0.220408163,-0.322959184,1,0,0,1.014,button_left_main,-0.220408163,-0.322959184,1,0,0,,0,159,159,133,1,POWDY,HB,z,z,./images/POWDYHB.png,,,,,,,,,,,,,,,,,,,,,,,,,,,,,,,,,
,,,,,,,,,,,,,,,,,5f15e4bc797c740fff2c442c,28,2022-02-12_13h24.25.344,lexical_decision_task_DD_L6,2021.2.3,iPhone,58.82352941,,,,,,,,,,0.931,1,,,,,,,,,,,,,,,0,-0.116326531,-0.326020408,1,0,0,0.931,button_left_main,-0.206122449,-0.334183673,1,0,0,,0,160,160,98,1,BAMPS,LB,z,z,./images/BAMPSLB.png,,,,,,,,,,,,,,,,,,,,,,,,,,,,,,,,,
,,,,,,,,,,,,,,,,,5f15e4bc797c740fff2c442c,28,2022-02-12_13h24.25.344,lexical_decision_task_DD_L6,2021.2.3,iPhone,58.82352941,,,,,,,,,,0.887,1,,,,,,,,,,,,,,,0,-0.240816327,-0.325,1,0,0,0.887,button_left_main,-0.240816327,-0.325,1,0,0,,0,161,161,164,1,SGREW,LB,z,z,./images/SGREWLB.png,,,,,,,,,,,,,,,,,,,,,,,,,,,,,,,,,
,,,,,,,,,,,,,,,,,5f15e4bc797c740fff2c442c,28,2022-02-12_13h24.25.344,lexical_decision_task_DD_L6,2021.2.3,iPhone,58.82352941,,,,,,,,,,0.961,1,,,,,,,,,,,,,,,0,-0.23877551,-0.343367347,1,0,0,0.961,button_left_main,-0.23877551,-0.343367347,1,0,0,,0,162,162,131,1,NACES,LB,z,z,./images/NACESLB.png,,,,,,,,,,,,,,,,,,,,,,,,,,,,,,,,,
,,,,,,,,,,,,,,,,,5f15e4bc797c740fff2c442c,28,2022-02-12_13h24.25.344,lexical_decision_task_DD_L6,2021.2.3,iPhone,58.82352941,,,,,,,,,,0.861,1,,,,,,,,,,,,,,,0,0.364285714,-0.28622449,1,0,0,0.861,button_right_main,0.364285714,-0.28622449,1,0,0,,0,163,163,55,1,ALLEY,C,m,m,./images/ALLEY.png,,,,,,,,,,,,,,,,,,,,,,,,,,,,,,,,,
,,,,,,,,,,,,,,,,,5f15e4bc797c740fff2c442c,28,2022-02-12_13h24.25.344,lexical_decision_task_DD_L6,2021.2.3,iPhone,58.82352941,,,,,,,,,,0.733,1,,,,,,,,,,,,,,,0,0.267346939,-0.329081633,1,0,0,0.733,button_right_main,0.267346939,-0.329081633,1,0,0,,0,164,164,66,1,STATUE,LB,m,m,./images/STATUELB.png,,,,,,,,,,,,,,,,,,,,,,,,,,,,,,,,,
,,,,,,,,,,,,,,,,,5f15e4bc797c740fff2c442c,28,2022-02-12_13h24.25.344,lexical_decision_task_DD_L6,2021.2.3,iPhone,58.82352941,,,,,,,,,,0.766,1,,,,,,,,,,,,,,,0,0.279591837,-0.311734694,1,0,0,0.766,button_right_main,0.279591837,-0.311734694,1,0,0,,0,165,165,52,1,DESERT,C,m,m,./images/DESERT.png,,,,,,,,,,,,,,,,,,,,,,,,,,,,,,,,,
,,,,,,,,,,,,,,,,,5f15e4bc797c740fff2c442c,28,2022-02-12_13h24.25.344,lexical_decision_task_DD_L6,2021.2.3,iPhone,58.82352941,,,,,,,,,,1.532,1,,,,,,,,,,,,,,,0,0.316326531,-0.295408163,1,0,0,1.532,button_right_main,0.316326531,-0.295408163,1,0,0,,0,166,166,80,1,PLANET,HB,m,m,./images/PLANETHB.png,,,,,,,,,,,,,,,,,,,,,,,,,,,,,,,,,
,,,,,,,,,,,,,,,,,5f15e4bc797c740fff2c442c,28,2022-02-12_13h24.25.344,lexical_decision_task_DD_L6,2021.2.3,iPhone,58.82352941,,,,,,,,,,1.125,0,,,,,,,,,,,,,,,0,0.281632653,-0.326020408,1,0,0,1.125,button_right_main,0.281632653,-0.326020408,1,0,0,,0,167,167,166,1,SHORY,HB,z,z,./images/SHORYHB.png,,,,,,,,,,,,,,,,,,,,,,,,,,,,,,,,,
,,,,,,,,,,,,,,,,,5f15e4bc797c740fff2c442c,28,2022-02-12_13h24.25.344,lexical_decision_task_DD_L6,2021.2.3,iPhone,58.82352941,,,,,,,,,,,,,,,,,,,,,,,,,,,,,,,,,,,,,,,,,,,,,,How likely will it be that you will recognize the words presented very blurred on a scale of 0 (not likely) to 100 (most likely)?,,,,,0.014285714,-0.417857143,1,0,0,jol_adv,2,30.292,0,0,0,2,1,,,,,,,,,,,,,,,,,,,
,,,,,,,,,,,,,,,,,5f15e4bc797c740fff2c442c,28,2022-02-12_13h24.25.344,lexical_decision_task_DD_L6,2021.2.3,iPhone,58.82352941,,,,,,,,,,,,,,,,,,,,,,,,,,,,,,,,,,,,,,,,,,,,,,How likely will it be that you will recognize the words presented slighly blurred on a scale of 0 (not likely) to 100 (most likely)?,,,,,,,,,,,5,5.835,0,1,1,1,1,,,,,,,,,,,,,,,,,,,
,,,,,,,,,,,,,,,,,5f15e4bc797c740fff2c442c,28,2022-02-12_13h24.25.344,lexical_decision_task_DD_L6,2021.2.3,iPhone,58.82352941,,,,,,,,,,,,,,,,,,,,,,,,,,,,,,,,,,,,,,,,,,,,,,How likely will it be that you will recognize the words presented clearly on a scale of 0 (not likely) to 100 (most likely)?,,,,,,,,,,,6,2.091,0,2,2,0,1,,,,,,,,,,,,,,,,,,,
,0.035714286,-0.426020408,1,0,0,instr_done_button,,,,,,1,test,"In the next phase you will be presented with the words from the the first phase. Your job is to decide whether you remember seeing the word or not. If you remember seeing the word press ""old"" or type ""m"". If you do not remember seeing the word press ""new"" or type ""z"". Please press the space bar or click on continue to begin. ",,,5f15e4bc797c740fff2c442c,28,2022-02-12_13h24.25.344,lexical_decision_task_DD_L6,2021.2.3,iPhone,58.82352941,,,,,,,,,,,,,,,,,,,,,,,,,,,,,,,,,,,,,,,,,,,,,,,,,,,,,,,,,,,,,,,,0,0,0,0,1,,,,,,,,,,,,,,
,0.005102041,-0.446428571,1,0,0,instr_done_button,,,,,,1,test,"In the next phase you will be presented with the words from the the first phase. Your job is to decide whether you remember seeing the word or not. If you remember seeing the word press ""old"" or type ""m"". If you do not remember seeing the word press ""new"" or type ""z"". Please press the space bar or click on continue to begin. ",,,5f15e4bc797c740fff2c442c,28,2022-02-12_13h24.25.344,lexical_decision_task_DD_L6,2021.2.3,iPhone,58.82352941,,,,,,,,,,,,,,,,,,,,,,,,,,,,,,,,,,,,,,,,,,,,,,,,,,,,,,,,,,,,,,,,1,0,1,0,1,,,,,,,,,,,,,,
,-0.018367347,-0.409693878,1,0,0,instr_done_button,,,,,,1,test,"In the next phase you will be presented with the words from the the first phase. Your job is to decide whether you remember seeing the word or not. If you remember seeing the word press ""old"" or type ""m"". If you do not remember seeing the word press ""new"" or type ""z"". Please press the space bar or click on continue to begin. ",,,5f15e4bc797c740fff2c442c,28,2022-02-12_13h24.25.344,lexical_decision_task_DD_L6,2021.2.3,iPhone,58.82352941,,,,,,,,,,,,,,,,,,,,,,,,,,,,,,,,,,,,,,,,,,,,,,,,,,,,,,,,,,,,,,,,2,0,2,0,1,,,,,,,,,,,,,,
,0.002040816,-0.390306122,1,0,0,instr_done_button,,,,,,1,test,"In the next phase you will be presented with the words from the the first phase. Your job is to decide whether you remember seeing the word or not. If you remember seeing the word press ""old"" or type ""m"". If you do not remember seeing the word press ""new"" or type ""z"". Please press the space bar or click on continue to begin. ",,,5f15e4bc797c740fff2c442c,28,2022-02-12_13h24.25.344,lexical_decision_task_DD_L6,2021.2.3,iPhone,58.82352941,,,,,,,,,,,,,,,,,,,,,,,,,,,,,,,,,,,,,,,,,,,,,,,,,,,,,,,,,,,,,,,,3,0,3,0,1,,,,,,,,,,,,,,
,0.033673469,-0.419897959,1,0,0,instr_done_button,,,,,,1,test,"In the next phase you will be presented with the words from the the first phase. Your job is to decide whether you remember seeing the word or not. If you remember seeing the word press ""old"" or type ""m"". If you do not remember seeing the word press ""new"" or type ""z"". Please press the space bar or click on continue to begin. ",,,5f15e4bc797c740fff2c442c,28,2022-02-12_13h24.25.344,lexical_decision_task_DD_L6,2021.2.3,iPhone,58.82352941,,,,,,,,,,,,,,,,,,,,,,,,,,,,,,,,,,,,,,,,,,,,,,,,,,,,,,,,,,,,,,,,4,0,4,0,1,,,,,,,,,,,,,,
,,,,,,,,,,,,,,,,,5f15e4bc797c740fff2c442c,28,2022-02-12_13h24.25.344,lexical_decision_task_DD_L6,2021.2.3,iPhone,58.82352941,,,,,,,,,,1.684,1,,,,,,,,,,,,,,,,,,,,,,,0.340816327,-0.315816327,1,0,0,,,,,,,SNAKE,C,m,y,./images/SNAKE.png,,,,,,,,,,,,,,,,,,,,,0,0.340816327,-0.315816327,1,0,0,1.684,button_right_test,0,0,0,40,1
,,,,,,,,,,,,,,,,,5f15e4bc797c740fff2c442c,28,2022-02-12_13h24.25.344,lexical_decision_task_DD_L6,2021.2.3,iPhone,58.82352941,,,,,,,,,,1.315,1,,,,,,,,,,,,,,,,,,,,,,,-0.315306122,-0.338265306,1,0,0,,,,,,,LITTER,LB,z,y,./images/LITTERLB.png,,,,,,,,,,,,,,,,,,,,,0,-0.315306122,-0.338265306,1,0,0,1.315,button_left_test,0,1,1,162,1
,,,,,,,,,,,,,,,,,5f15e4bc797c740fff2c442c,28,2022-02-12_13h24.25.344,lexical_decision_task_DD_L6,2021.2.3,iPhone,58.82352941,,,,,,,,,,1.025,1,,,,,,,,,,,,,,,,,,,,,,,0.324489796,-0.335204082,1,0,0,,,,,,,PARADE,HB,m,y,./images/PARADEHB.png,,,,,,,,,,,,,,,,,,,,,0,0.324489796,-0.335204082,1,0,0,1.025,button_right_test,0,2,2,17,1
,,,,,,,,,,,,,,,,,5f15e4bc797c740fff2c442c,28,2022-02-12_13h24.25.344,lexical_decision_task_DD_L6,2021.2.3,iPhone,58.82352941,,,,,,,,,,0.777,1,,,,,,,,,,,,,,,,,,,,,,,0.292857143,-0.340306122,1,0,0,,,,,,,WALNUT,LB,m,y,./images/WALNUTLB.png,,,,,,,,,,,,,,,,,,,,,0,0.292857143,-0.340306122,1,0,0,0.777,button_right_test,0,3,3,0,1
,,,,,,,,,,,,,,,,,5f15e4bc797c740fff2c442c,28,2022-02-12_13h24.25.344,lexical_decision_task_DD_L6,2021.2.3,iPhone,58.82352941,,,,,,,,,,0.907,0,,,,,,,,,,,,,,,,,,,,,,,0.306122449,-0.321938776,1,0,0,,,,,,,PLANK,C,z,y,./images/PLANK.png,,,,,,,,,,,,,,,,,,,,,0,0.306122449,-0.321938776,1,0,0,0.907,button_right_test,0,4,4,85,1
,,,,,,,,,,,,,,,,,5f15e4bc797c740fff2c442c,28,2022-02-12_13h24.25.344,lexical_decision_task_DD_L6,2021.2.3,iPhone,58.82352941,,,,,,,,,,1.058,0,,,,,,,,,,,,,,,,,,,,,,,-0.340816327,-0.344387755,1,0,0,,,,,,,BASKET,HB,m,y,./images/BASKETHB.png,,,,,,,,,,,,,,,,,,,,,0,-0.340816327,-0.344387755,1,0,0,1.058,button_left_test,0,5,5,44,1
,,,,,,,,,,,,,,,,,5f15e4bc797c740fff2c442c,28,2022-02-12_13h24.25.344,lexical_decision_task_DD_L6,2021.2.3,iPhone,58.82352941,,,,,,,,,,0.73,1,,,,,,,,,,,,,,,,,,,,,,,0.32755102,-0.337244898,1,0,0,,,,,,,DONKEY,C,m,y,./images/DONKEY.png,,,,,,,,,,,,,,,,,,,,,0,0.32755102,-0.337244898,1,0,0,0.73,button_right_test,0,6,6,19,1
,,,,,,,,,,,,,,,,,5f15e4bc797c740fff2c442c,28,2022-02-12_13h24.25.344,lexical_decision_task_DD_L6,2021.2.3,iPhone,58.82352941,,,,,,,,,,0.714,1,,,,,,,,,,,,,,,,,,,,,,,0.306122449,-0.311734694,1,0,0,,,,,,,BRIDE,C,m,y,./images/BRIDE.png,,,,,,,,,,,,,,,,,,,,,0,0.306122449,-0.311734694,1,0,0,0.714,button_right_test,0,7,7,64,1
,,,,,,,,,,,,,,,,,5f15e4bc797c740fff2c442c,28,2022-02-12_13h24.25.344,lexical_decision_task_DD_L6,2021.2.3,iPhone,58.82352941,,,,,,,,,,0.926,1,,,,,,,,,,,,,,,,,,,,,,,0.306122449,-0.307653061,1,0,0,,,,,,,HOCKEY,HB,m,y,./images/HOCKEYHB.png,,,,,,,,,,,,,,,,,,,,,0,0.306122449,-0.307653061,1,0,0,0.926,button_right_test,0,8,8,32,1
,,,,,,,,,,,,,,,,,5f15e4bc797c740fff2c442c,28,2022-02-12_13h24.25.344,lexical_decision_task_DD_L6,2021.2.3,iPhone,58.82352941,,,,,,,,,,0.987,0,,,,,,,,,,,,,,,,,,,,,,,-0.332653061,-0.308673469,1,0,0,,,,,,,WHISKY,HB,m,y,./images/WHISKYHB.png,,,,,,,,,,,,,,,,,,,,,0,-0.332653061,-0.308673469,1,0,0,0.987,button_left_test,0,9,9,83,1
,,,,,,,,,,,,,,,,,5f15e4bc797c740fff2c442c,28,2022-02-12_13h24.25.344,lexical_decision_task_DD_L6,2021.2.3,iPhone,58.82352941,,,,,,,,,,1.202,1,,,,,,,,,,,,,,,,,,,,,,,-0.344897959,-0.354591837,1,0,0,,,,,,,FARMER,HB,z,y,./images/FARMERHB.png,,,,,,,,,,,,,,,,,,,,,0,-0.344897959,-0.354591837,1,0,0,1.202,button_left_test,0,10,10,149,1
,,,,,,,,,,,,,,,,,5f15e4bc797c740fff2c442c,28,2022-02-12_13h24.25.344,lexical_decision_task_DD_L6,2021.2.3,iPhone,58.82352941,,,,,,,,,,1.194,1,,,,,,,,,,,,,,,,,,,,,,,-0.301020408,-0.337244898,1,0,0,,,,,,,GREASE,LB,z,y,./images/GREASELB.png,,,,,,,,,,,,,,,,,,,,,0,-0.301020408,-0.337244898,1,0,0,1.194,button_left_test,0,11,11,99,1
,,,,,,,,,,,,,,,,,5f15e4bc797c740fff2c442c,28,2022-02-12_13h24.25.344,lexical_decision_task_DD_L6,2021.2.3,iPhone,58.82352941,,,,,,,,,,1.321,0,,,,,,,,,,,,,,,,,,,,,,,-0.320408163,-0.34744898,1,0,0,,,,,,,BOXER,C,m,y,./images/BOXER.png,,,,,,,,,,,,,,,,,,,,,0,-0.320408163,-0.34744898,1,0,0,1.321,button_left_test,0,12,12,4,1
,,,,,,,,,,,,,,,,,5f15e4bc797c740fff2c442c,28,2022-02-12_13h24.25.344,lexical_decision_task_DD_L6,2021.2.3,iPhone,58.82352941,,,,,,,,,,0.86,1,,,,,,,,,,,,,,,,,,,,,,,0.32244898,-0.31377551,1,0,0,,,,,,,STOOL,C,m,y,./images/STOOL.png,,,,,,,,,,,,,,,,,,,,,0,0.32244898,-0.31377551,1,0,0,0.86,button_right_test,0,13,13,43,1
,,,,,,,,,,,,,,,,,5f15e4bc797c740fff2c442c,28,2022-02-12_13h24.25.344,lexical_decision_task_DD_L6,2021.2.3,iPhone,58.82352941,,,,,,,,,,0.901,1,,,,,,,,,,,,,,,,,,,,,,,0.32755102,-0.307653061,1,0,0,,,,,,,JUMPER,HB,m,y,./images/JUMPERHB.png,,,,,,,,,,,,,,,,,,,,,0,0.32755102,-0.307653061,1,0,0,0.901,button_right_test,0,14,14,74,1
,,,,,,,,,,,,,,,,,5f15e4bc797c740fff2c442c,28,2022-02-12_13h24.25.344,lexical_decision_task_DD_L6,2021.2.3,iPhone,58.82352941,,,,,,,,,,1.166,1,,,,,,,,,,,,,,,,,,,,,,,0.32755102,-0.321938776,1,0,0,,,,,,,CANOE,C,m,y,./images/CANOE.png,,,,,,,,,,,,,,,,,,,,,0,0.32755102,-0.321938776,1,0,0,1.166,button_right_test,0,15,15,58,1
,,,,,,,,,,,,,,,,,5f15e4bc797c740fff2c442c,28,2022-02-12_13h24.25.344,lexical_decision_task_DD_L6,2021.2.3,iPhone,58.82352941,,,,,,,,,,1.181,1,,,,,,,,,,,,,,,,,,,,,,,-0.337755102,-0.344387755,1,0,0,,,,,,,PENCE,C,z,y,./images/PENCE.png,,,,,,,,,,,,,,,,,,,,,0,-0.337755102,-0.344387755,1,0,0,1.181,button_left_test,0,16,16,100,1
,,,,,,,,,,,,,,,,,5f15e4bc797c740fff2c442c,28,2022-02-12_13h24.25.344,lexical_decision_task_DD_L6,2021.2.3,iPhone,58.82352941,,,,,,,,,,1.03,1,,,,,,,,,,,,,,,,,,,,,,,-0.312244898,-0.354591837,1,0,0,,,,,,,CARPET,HB,z,y,./images/CARPETHB.png,,,,,,,,,,,,,,,,,,,,,0,-0.312244898,-0.354591837,1,0,0,1.03,button_left_test,0,17,17,137,1
,,,,,,,,,,,,,,,,,5f15e4bc797c740fff2c442c,28,2022-02-12_13h24.25.344,lexical_decision_task_DD_L6,2021.2.3,iPhone,58.82352941,,,,,,,,,,1.563,1,,,,,,,,,,,,,,,,,,,,,,,-0.323469388,-0.377040816,1,0,0,,,,,,,BANNER,C,z,y,./images/BANNER.png,,,,,,,,,,,,,,,,,,,,,0,-0.323469388,-0.377040816,1,0,0,1.563,button_left_test,0,18,18,136,1
,,,,,,,,,,,,,,,,,5f15e4bc797c740fff2c442c,28,2022-02-12_13h24.25.344,lexical_decision_task_DD_L6,2021.2.3,iPhone,58.82352941,,,,,,,,,,1.314,0,,,,,,,,,,,,,,,,,,,,,,,-0.310204082,-0.368877551,1,0,0,,,,,,,BANANA,C,m,y,./images/BANANA.png,,,,,,,,,,,,,,,,,,,,,0,-0.310204082,-0.368877551,1,0,0,1.314,button_left_test,0,19,19,70,1
,,,,,,,,,,,,,,,,,5f15e4bc797c740fff2c442c,28,2022-02-12_13h24.25.344,lexical_decision_task_DD_L6,2021.2.3,iPhone,58.82352941,,,,,,,,,,1.528,1,,,,,,,,,,,,,,,,,,,,,,,-0.325510204,-0.357653061,1,0,0,,,,,,,MOSQUE,C,z,y,./images/MOSQUE.png,,,,,,,,,,,,,,,,,,,,,0,-0.325510204,-0.357653061,1,0,0,1.528,button_left_test,0,20,20,127,1
,,,,,,,,,,,,,,,,,5f15e4bc797c740fff2c442c,28,2022-02-12_13h24.25.344,lexical_decision_task_DD_L6,2021.2.3,iPhone,58.82352941,,,,,,,,,,1.063,1,,,,,,,,,,,,,,,,,,,,,,,-0.315306122,-0.34744898,1,0,0,,,,,,,WRIST,C,z,y,./images/WRIST.png,,,,,,,,,,,,,,,,,,,,,0,-0.315306122,-0.34744898,1,0,0,1.063,button_left_test,0,21,21,109,1
,,,,,,,,,,,,,,,,,5f15e4bc797c740fff2c442c,28,2022-02-12_13h24.25.344,lexical_decision_task_DD_L6,2021.2.3,iPhone,58.82352941,,,,,,,,,,1.137,0,,,,,,,,,,,,,,,,,,,,,,,-0.310204082,-0.354591837,1,0,0,,,,,,,CLOUD,HB,m,y,./images/CLOUDHB.png,,,,,,,,,,,,,,,,,,,,,0,-0.310204082,-0.354591837,1,0,0,1.137,button_left_test,0,22,22,26,1
,,,,,,,,,,,,,,,,,5f15e4bc797c740fff2c442c,28,2022-02-12_13h24.25.344,lexical_decision_task_DD_L6,2021.2.3,iPhone,58.82352941,,,,,,,,,,1.43,0,,,,,,,,,,,,,,,,,,,,,,,-0.302040816,-0.350510204,1,0,0,,,,,,,FLESH,LB,m,y,./images/FLESHLB.png,,,,,,,,,,,,,,,,,,,,,0,-0.302040816,-0.350510204,1,0,0,1.43,button_left_test,0,23,23,24,1
,,,,,,,,,,,,,,,,,5f15e4bc797c740fff2c442c,28,2022-02-12_13h24.25.344,lexical_decision_task_DD_L6,2021.2.3,iPhone,58.82352941,,,,,,,,,,0.693,1,,,,,,,,,,,,,,,,,,,,,,,0.332653061,-0.326020408,1,0,0,,,,,,,BAKER,LB,m,y,./images/BAKERLB.png,,,,,,,,,,,,,,,,,,,,,0,0.332653061,-0.326020408,1,0,0,0.693,button_right_test,0,24,24,63,1
,,,,,,,,,,,,,,,,,5f15e4bc797c740fff2c442c,28,2022-02-12_13h24.25.344,lexical_decision_task_DD_L6,2021.2.3,iPhone,58.82352941,,,,,,,,,,0.976,1,,,,,,,,,,,,,,,,,,,,,,,-0.325510204,-0.375,1,0,0,,,,,,,WEASEL,HB,z,y,./images/WEASELHB.png,,,,,,,,,,,,,,,,,,,,,0,-0.325510204,-0.375,1,0,0,0.976,button_left_test,0,25,25,164,1
,,,,,,,,,,,,,,,,,5f15e4bc797c740fff2c442c,28,2022-02-12_13h24.25.344,lexical_decision_task_DD_L6,2021.2.3,iPhone,58.82352941,,,,,,,,,,0.903,0,,,,,,,,,,,,,,,,,,,,,,,0.301020408,-0.333163265,1,0,0,,,,,,,MOOSE,LB,z,y,./images/MOOSELB.png,,,,,,,,,,,,,,,,,,,,,0,0.301020408,-0.333163265,1,0,0,0.903,button_right_test,0,26,26,141,1
,,,,,,,,,,,,,,,,,5f15e4bc797c740fff2c442c,28,2022-02-12_13h24.25.344,lexical_decision_task_DD_L6,2021.2.3,iPhone,58.82352941,,,,,,,,,,0.84,1,,,,,,,,,,,,,,,,,,,,,,,0.296938776,-0.317857143,1,0,0,,,,,,,DANCER,LB,m,y,./images/DANCERLB.png,,,,,,,,,,,,,,,,,,,,,0,0.296938776,-0.317857143,1,0,0,0.84,button_right_test,0,27,27,21,1
,,,,,,,,,,,,,,,,,5f15e4bc797c740fff2c442c,28,2022-02-12_13h24.25.344,lexical_decision_task_DD_L6,2021.2.3,iPhone,58.82352941,,,,,,,,,,0.935,1,,,,,,,,,,,,,,,,,,,,,,,-0.298979592,-0.359693878,1,0,0,,,,,,,WALRUS,HB,z,y,./images/WALRUSHB.png,,,,,,,,,,,,,,,,,,,,,0,-0.298979592,-0.359693878,1,0,0,0.935,button_left_test,0,28,28,107,1
,,,,,,,,,,,,,,,,,5f15e4bc797c740fff2c442c,28,2022-02-12_13h24.25.344,lexical_decision_task_DD_L6,2021.2.3,iPhone,58.82352941,,,,,,,,,,1.131,1,,,,,,,,,,,,,,,,,,,,,,,0.32755102,-0.325,1,0,0,,,,,,,LLAMA,HB,m,y,./images/LLAMAHB.png,,,,,,,,,,,,,,,,,,,,,0,0.32755102,-0.325,1,0,0,1.131,button_right_test,0,29,29,35,1
,,,,,,,,,,,,,,,,,5f15e4bc797c740fff2c442c,28,2022-02-12_13h24.25.344,lexical_decision_task_DD_L6,2021.2.3,iPhone,58.82352941,,,,,,,,,,2.518,0,,,,,,,,,,,,,,,,,,,,,,,-0.285714286,-0.335204082,1,0,0,,,,,,,STEAK,C,m,y,./images/STEAK.png,,,,,,,,,,,,,,,,,,,,,0,-0.285714286,-0.335204082,1,0,0,2.518,button_left_test,0,30,30,31,1
,,,,,,,,,,,,,,,,,5f15e4bc797c740fff2c442c,28,2022-02-12_13h24.25.344,lexical_decision_task_DD_L6,2021.2.3,iPhone,58.82352941,,,,,,,,,,0.944,1,,,,,,,,,,,,,,,,,,,,,,,-0.323469388,-0.31377551,1,0,0,,,,,,,MUFFIN,C,z,y,./images/MUFFIN.png,,,,,,,,,,,,,,,,,,,,,0,-0.323469388,-0.31377551,1,0,0,0.944,button_left_test,0,31,31,139,1
,,,,,,,,,,,,,,,,,5f15e4bc797c740fff2c442c,28,2022-02-12_13h24.25.344,lexical_decision_task_DD_L6,2021.2.3,iPhone,58.82352941,,,,,,,,,,1.054,0,,,,,,,,,,,,,,,,,,,,,,,-0.328571429,-0.333163265,1,0,0,,,,,,,POKER,C,m,y,./images/POKER.png,,,,,,,,,,,,,,,,,,,,,0,-0.328571429,-0.333163265,1,0,0,1.054,button_left_test,0,32,32,67,1
,,,,,,,,,,,,,,,,,5f15e4bc797c740fff2c442c,28,2022-02-12_13h24.25.344,lexical_decision_task_DD_L6,2021.2.3,iPhone,58.82352941,,,,,,,,,,1.357,1,,,,,,,,,,,,,,,,,,,,,,,0.292857143,-0.299489796,1,0,0,,,,,,,PILOT,HB,m,y,./images/PILOTHB.png,,,,,,,,,,,,,,,,,,,,,0,0.292857143,-0.299489796,1,0,0,1.357,button_right_test,0,33,33,50,1
,,,,,,,,,,,,,,,,,5f15e4bc797c740fff2c442c,28,2022-02-12_13h24.25.344,lexical_decision_task_DD_L6,2021.2.3,iPhone,58.82352941,,,,,,,,,,0.898,1,,,,,,,,,,,,,,,,,,,,,,,0.287755102,-0.316836735,1,0,0,,,,,,,DIVER,LB,m,y,./images/DIVERLB.png,,,,,,,,,,,,,,,,,,,,,0,0.287755102,-0.316836735,1,0,0,0.898,button_right_test,0,34,34,9,1
,,,,,,,,,,,,,,,,,5f15e4bc797c740fff2c442c,28,2022-02-12_13h24.25.344,lexical_decision_task_DD_L6,2021.2.3,iPhone,58.82352941,,,,,,,,,,0.912,0,,,,,,,,,,,,,,,,,,,,,,,-0.340816327,-0.339285714,1,0,0,,,,,,,WHEEL,HB,m,y,./images/WHEELHB.png,,,,,,,,,,,,,,,,,,,,,0,-0.340816327,-0.339285714,1,0,0,0.912,button_left_test,0,35,35,77,1
,,,,,,,,,,,,,,,,,5f15e4bc797c740fff2c442c,28,2022-02-12_13h24.25.344,lexical_decision_task_DD_L6,2021.2.3,iPhone,58.82352941,,,,,,,,,,0.981,1,,,,,,,,,,,,,,,,,,,,,,,-0.33877551,-0.321938776,1,0,0,,,,,,,CEMENT,HB,z,y,./images/CEMENTHB.png,,,,,,,,,,,,,,,,,,,,,0,-0.33877551,-0.321938776,1,0,0,0.981,button_left_test,0,36,36,158,1
,,,,,,,,,,,,,,,,,5f15e4bc797c740fff2c442c,28,2022-02-12_13h24.25.344,lexical_decision_task_DD_L6,2021.2.3,iPhone,58.82352941,,,,,,,,,,0.997,0,,,,,,,,,,,,,,,,,,,,,,,-0.332653061,-0.335204082,1,0,0,,,,,,,ALLEY,C,m,y,./images/ALLEY.png,,,,,,,,,,,,,,,,,,,,,0,-0.332653061,-0.335204082,1,0,0,0.997,button_left_test,0,37,37,55,1
,,,,,,,,,,,,,,,,,5f15e4bc797c740fff2c442c,28,2022-02-12_13h24.25.344,lexical_decision_task_DD_L6,2021.2.3,iPhone,58.82352941,,,,,,,,,,1.167,1,,,,,,,,,,,,,,,,,,,,,,,-0.321428571,-0.330102041,1,0,0,,,,,,,SPORT,LB,z,y,./images/SPORTLB.png,,,,,,,,,,,,,,,,,,,,,0,-0.321428571,-0.330102041,1,0,0,1.167,button_left_test,0,38,38,132,1
,,,,,,,,,,,,,,,,,5f15e4bc797c740fff2c442c,28,2022-02-12_13h24.25.344,lexical_decision_task_DD_L6,2021.2.3,iPhone,58.82352941,,,,,,,,,,1.114,0,,,,,,,,,,,,,,,,,,,,,,,-0.303061224,-0.316836735,1,0,0,,,,,,,FENCE,HB,m,y,./images/FENCEHB.png,,,,,,,,,,,,,,,,,,,,,0,-0.303061224,-0.316836735,1,0,0,1.114,button_left_test,0,39,39,14,1
,,,,,,,,,,,,,,,,,5f15e4bc797c740fff2c442c,28,2022-02-12_13h24.25.344,lexical_decision_task_DD_L6,2021.2.3,iPhone,58.82352941,,,,,,,,,,1.421,0,,,,,,,,,,,,,,,,,,,,,,,-0.271428571,-0.308673469,1,0,0,,,,,,,PARCEL,LB,m,y,./images/PARCELLB.png,,,,,,,,,,,,,,,,,,,,,0,-0.271428571,-0.308673469,1,0,0,1.421,button_left_test,0,40,40,18,1
,,,,,,,,,,,,,,,,,5f15e4bc797c740fff2c442c,28,2022-02-12_13h24.25.344,lexical_decision_task_DD_L6,2021.2.3,iPhone,58.82352941,,,,,,,,,,0.86,1,,,,,,,,,,,,,,,,,,,,,,,0.009183673,-0.396428571,1,0,0,,,,,,,KIDNEY,LB,z,y,./images/KIDNEYLB.png,break_done_button,,,,,,,,,,,,,,,,,,,,0,-0.280612245,-0.311734694,1,0,0,0.86,button_left_test,0,41,41,105,1
,,,,,,,,,,,,,,,,,5f15e4bc797c740fff2c442c,28,2022-02-12_13h24.25.344,lexical_decision_task_DD_L6,2021.2.3,iPhone,58.82352941,,,,,,,,,,0.82,1,,,,,,,,,,,,,,,,,,,,,,,-0.323469388,-0.338265306,1,0,0,,,,,,,PICKLE,HB,z,y,./images/PICKLEHB.png,,,,,,,,,,,,,,,,,,,,,0,-0.323469388,-0.338265306,1,0,0,0.82,button_left_test,0,42,42,98,1
,,,,,,,,,,,,,,,,,5f15e4bc797c740fff2c442c,28,2022-02-12_13h24.25.344,lexical_decision_task_DD_L6,2021.2.3,iPhone,58.82352941,,,,,,,,,,0.796,1,,,,,,,,,,,,,,,,,,,,,,,-0.293877551,-0.325,1,0,0,,,,,,,BONNET,HB,z,y,./images/BONNETHB.png,,,,,,,,,,,,,,,,,,,,,0,-0.293877551,-0.325,1,0,0,0.796,button_left_test,0,43,43,95,1
,,,,,,,,,,,,,,,,,5f15e4bc797c740fff2c442c,28,2022-02-12_13h24.25.344,lexical_decision_task_DD_L6,2021.2.3,iPhone,58.82352941,,,,,,,,,,1.065,0,,,,,,,,,,,,,,,,,,,,,,,0.358163265,-0.321938776,1,0,0,,,,,,,COOKER,LB,z,y,./images/COOKERLB.png,,,,,,,,,,,,,,,,,,,,,0,0.358163265,-0.321938776,1,0,0,1.065,button_right_test,0,44,44,153,1
,,,,,,,,,,,,,,,,,5f15e4bc797c740fff2c442c,28,2022-02-12_13h24.25.344,lexical_decision_task_DD_L6,2021.2.3,iPhone,58.82352941,,,,,,,,,,1.155,0,,,,,,,,,,,,,,,,,,,,,,,-0.318367347,-0.339285714,1,0,0,,,,,,,MIDGET,C,m,y,./images/MIDGET.png,,,,,,,,,,,,,,,,,,,,,0,-0.318367347,-0.339285714,1,0,0,1.155,button_left_test,0,45,45,76,1
,,,,,,,,,,,,,,,,,5f15e4bc797c740fff2c442c,28,2022-02-12_13h24.25.344,lexical_decision_task_DD_L6,2021.2.3,iPhone,58.82352941,,,,,,,,,,1.264,0,,,,,,,,,,,,,,,,,,,,,,,-0.31122449,-0.346428571,1,0,0,,,,,,,GARDEN,C,m,y,./images/GARDEN.png,,,,,,,,,,,,,,,,,,,,,0,-0.31122449,-0.346428571,1,0,0,1.264,button_left_test,0,46,46,10,1
,,,,,,,,,,,,,,,,,5f15e4bc797c740fff2c442c,28,2022-02-12_13h24.25.344,lexical_decision_task_DD_L6,2021.2.3,iPhone,58.82352941,,,,,,,,,,1.192,1,,,,,,,,,,,,,,,,,,,,,,,-0.324489796,-0.330102041,1,0,0,,,,,,,POODLE,LB,z,y,./images/POODLELB.png,,,,,,,,,,,,,,,,,,,,,0,-0.324489796,-0.330102041,1,0,0,1.192,button_left_test,0,47,47,165,1
,,,,,,,,,,,,,,,,,5f15e4bc797c740fff2c442c,28,2022-02-12_13h24.25.344,lexical_decision_task_DD_L6,2021.2.3,iPhone,58.82352941,,,,,,,,,,0.814,1,,,,,,,,,,,,,,,,,,,,,,,-0.314285714,-0.334183673,1,0,0,,,,,,,ATTIC,LB,z,y,./images/ATTICLB.png,,,,,,,,,,,,,,,,,,,,,0,-0.314285714,-0.334183673,1,0,0,0.814,button_left_test,0,48,48,111,1
,,,,,,,,,,,,,,,,,5f15e4bc797c740fff2c442c,28,2022-02-12_13h24.25.344,lexical_decision_task_DD_L6,2021.2.3,iPhone,58.82352941,,,,,,,,,,1.05,1,,,,,,,,,,,,,,,,,,,,,,,-0.306122449,-0.307653061,1,0,0,,,,,,,MIRROR,LB,z,y,./images/MIRRORLB.png,,,,,,,,,,,,,,,,,,,,,0,-0.306122449,-0.307653061,1,0,0,1.05,button_left_test,0,49,49,147,1
,,,,,,,,,,,,,,,,,5f15e4bc797c740fff2c442c,28,2022-02-12_13h24.25.344,lexical_decision_task_DD_L6,2021.2.3,iPhone,58.82352941,,,,,,,,,,0.915,0,,,,,,,,,,,,,,,,,,,,,,,-0.289795918,-0.330102041,1,0,0,,,,,,,BUNNY,C,m,y,./images/BUNNY.png,,,,,,,,,,,,,,,,,,,,,0,-0.289795918,-0.330102041,1,0,0,0.915,button_left_test,0,50,50,13,1
,,,,,,,,,,,,,,,,,5f15e4bc797c740fff2c442c,28,2022-02-12_13h24.25.344,lexical_decision_task_DD_L6,2021.2.3,iPhone,58.82352941,,,,,,,,,,1.366,1,,,,,,,,,,,,,,,,,,,,,,,-0.292857143,-0.309693878,1,0,0,,,,,,,FINGER,LB,z,y,./images/FINGERLB.png,,,,,,,,,,,,,,,,,,,,,0,-0.292857143,-0.309693878,1,0,0,1.366,button_left_test,0,51,51,87,1
,,,,,,,,,,,,,,,,,5f15e4bc797c740fff2c442c,28,2022-02-12_13h24.25.344,lexical_decision_task_DD_L6,2021.2.3,iPhone,58.82352941,,,,,,,,,,1.081,1,,,,,,,,,,,,,,,,,,,,,,,-0.297959184,-0.316836735,1,0,0,,,,,,,JAGUAR,LB,z,y,./images/JAGUARLB.png,,,,,,,,,,,,,,,,,,,,,0,-0.297959184,-0.316836735,1,0,0,1.081,button_left_test,0,52,52,102,1
,,,,,,,,,,,,,,,,,5f15e4bc797c740fff2c442c,28,2022-02-12_13h24.25.344,lexical_decision_task_DD_L6,2021.2.3,iPhone,58.82352941,,,,,,,,,,0.829,1,,,,,,,,,,,,,,,,,,,,,,,-0.283673469,-0.316836735,1,0,0,,,,,,,LIZARD,HB,z,y,./images/LIZARDHB.png,,,,,,,,,,,,,,,,,,,,,0,-0.283673469,-0.316836735,1,0,0,0.829,button_left_test,0,53,53,128,1
,,,,,,,,,,,,,,,,,5f15e4bc797c740fff2c442c,28,2022-02-12_13h24.25.344,lexical_decision_task_DD_L6,2021.2.3,iPhone,58.82352941,,,,,,,,,,0.869,1,,,,,,,,,,,,,,,,,,,,,,,0.31122449,-0.337244898,1,0,0,,,,,,,MUMMY,C,m,y,./images/MUMMY.png,,,,,,,,,,,,,,,,,,,,,0,0.31122449,-0.337244898,1,0,0,0.869,button_right_test,0,54,54,46,1
,,,,,,,,,,,,,,,,,5f15e4bc797c740fff2c442c,28,2022-02-12_13h24.25.344,lexical_decision_task_DD_L6,2021.2.3,iPhone,58.82352941,,,,,,,,,,1.64,1,,,,,,,,,,,,,,,,,,,,,,,-0.348979592,-0.367857143,1,0,0,,,,,,,TORCH,HB,z,y,./images/TORCHHB.png,,,,,,,,,,,,,,,,,,,,,0,-0.348979592,-0.367857143,1,0,0,1.64,button_left_test,0,55,55,152,1
,,,,,,,,,,,,,,,,,5f15e4bc797c740fff2c442c,28,2022-02-12_13h24.25.344,lexical_decision_task_DD_L6,2021.2.3,iPhone,58.82352941,,,,,,,,,,1.166,1,,,,,,,,,,,,,,,,,,,,,,,0.336734694,-0.331122449,1,0,0,,,,,,,SLOPE,LB,m,y,./images/SLOPELB.png,,,,,,,,,,,,,,,,,,,,,0,0.336734694,-0.331122449,1,0,0,1.166,button_right_test,0,56,56,30,1
,,,,,,,,,,,,,,,,,5f15e4bc797c740fff2c442c,28,2022-02-12_13h24.25.344,lexical_decision_task_DD_L6,2021.2.3,iPhone,58.82352941,,,,,,,,,,1.342,0,,,,,,,,,,,,,,,,,,,,,,,-0.325510204,-0.337244898,1,0,0,,,,,,,VALLEY,HB,m,y,./images/VALLEYHB.png,,,,,,,,,,,,,,,,,,,,,0,-0.325510204,-0.337244898,1,0,0,1.342,button_left_test,0,57,57,68,1
,,,,,,,,,,,,,,,,,5f15e4bc797c740fff2c442c,28,2022-02-12_13h24.25.344,lexical_decision_task_DD_L6,2021.2.3,iPhone,58.82352941,,,,,,,,,,1.407,0,,,,,,,,,,,,,,,,,,,,,,,-0.316326531,-0.322959184,1,0,0,,,,,,,CHERRY,LB,m,y,./images/CHERRYLB.png,,,,,,,,,,,,,,,,,,,,,0,-0.316326531,-0.322959184,1,0,0,1.407,button_left_test,0,58,58,54,1
,,,,,,,,,,,,,,,,,5f15e4bc797c740fff2c442c,28,2022-02-12_13h24.25.344,lexical_decision_task_DD_L6,2021.2.3,iPhone,58.82352941,,,,,,,,,,1.218,1,,,,,,,,,,,,,,,,,,,,,,,0.287755102,-0.319897959,1,0,0,,,,,,,BOILER,LB,m,y,./images/BOILERLB.png,,,,,,,,,,,,,,,,,,,,,0,0.287755102,-0.319897959,1,0,0,1.218,button_right_test,0,59,59,36,1
,,,,,,,,,,,,,,,,,5f15e4bc797c740fff2c442c,28,2022-02-12_13h24.25.344,lexical_decision_task_DD_L6,2021.2.3,iPhone,58.82352941,,,,,,,,,,1.216,0,,,,,,,,,,,,,,,,,,,,,,,-0.302040816,-0.309693878,1,0,0,,,,,,,GRANNY,HB,m,y,./images/GRANNYHB.png,,,,,,,,,,,,,,,,,,,,,0,-0.302040816,-0.309693878,1,0,0,1.216,button_left_test,0,60,60,20,1
,,,,,,,,,,,,,,,,,5f15e4bc797c740fff2c442c,28,2022-02-12_13h24.25.344,lexical_decision_task_DD_L6,2021.2.3,iPhone,58.82352941,,,,,,,,,,1.017,1,,,,,,,,,,,,,,,,,,,,,,,-0.323469388,-0.321938776,1,0,0,,,,,,,MUSCLE,C,z,y,./images/MUSCLE.png,,,,,,,,,,,,,,,,,,,,,0,-0.323469388,-0.321938776,1,0,0,1.017,button_left_test,0,61,61,88,1
,,,,,,,,,,,,,,,,,5f15e4bc797c740fff2c442c,28,2022-02-12_13h24.25.344,lexical_decision_task_DD_L6,2021.2.3,iPhone,58.82352941,,,,,,,,,,0.92,1,,,,,,,,,,,,,,,,,,,,,,,-0.293877551,-0.320918367,1,0,0,,,,,,,SKIING,HB,z,y,./images/SKIINGHB.png,,,,,,,,,,,,,,,,,,,,,0,-0.293877551,-0.320918367,1,0,0,0.92,button_left_test,0,62,62,101,1
,,,,,,,,,,,,,,,,,5f15e4bc797c740fff2c442c,28,2022-02-12_13h24.25.344,lexical_decision_task_DD_L6,2021.2.3,iPhone,58.82352941,,,,,,,,,,1.567,1,,,,,,,,,,,,,,,,,,,,,,,0.291836735,-0.334183673,1,0,0,,,,,,,MAMMAL,HB,m,y,./images/MAMMALHB.png,,,,,,,,,,,,,,,,,,,,,0,0.291836735,-0.334183673,1,0,0,1.567,button_right_test,0,63,63,62,1
,,,,,,,,,,,,,,,,,5f15e4bc797c740fff2c442c,28,2022-02-12_13h24.25.344,lexical_decision_task_DD_L6,2021.2.3,iPhone,58.82352941,,,,,,,,,,0.956,1,,,,,,,,,,,,,,,,,,,,,,,-0.340816327,-0.333163265,1,0,0,,,,,,,ONION,LB,z,y,./images/ONIONLB.png,,,,,,,,,,,,,,,,,,,,,0,-0.340816327,-0.333163265,1,0,0,0.956,button_left_test,0,64,64,135,1
,,,,,,,,,,,,,,,,,5f15e4bc797c740fff2c442c,28,2022-02-12_13h24.25.344,lexical_decision_task_DD_L6,2021.2.3,iPhone,58.82352941,,,,,,,,,,0.869,1,,,,,,,,,,,,,,,,,,,,,,,-0.321428571,-0.315816327,1,0,0,,,,,,,SMOKER,HB,z,y,./images/SMOKERHB.png,,,,,,,,,,,,,,,,,,,,,0,-0.321428571,-0.315816327,1,0,0,0.869,button_left_test,0,65,65,110,1
,,,,,,,,,,,,,,,,,5f15e4bc797c740fff2c442c,28,2022-02-12_13h24.25.344,lexical_decision_task_DD_L6,2021.2.3,iPhone,58.82352941,,,,,,,,,,0.797,1,,,,,,,,,,,,,,,,,,,,,,,-0.315306122,-0.333163265,1,0,0,,,,,,,SAILOR,C,z,y,./images/SAILOR.png,,,,,,,,,,,,,,,,,,,,,0,-0.315306122,-0.333163265,1,0,0,0.797,button_left_test,0,66,66,151,1
,,,,,,,,,,,,,,,,,5f15e4bc797c740fff2c442c,28,2022-02-12_13h24.25.344,lexical_decision_task_DD_L6,2021.2.3,iPhone,58.82352941,,,,,,,,,,0.99,1,,,,,,,,,,,,,,,,,,,,,,,-0.31122449,-0.31377551,1,0,0,,,,,,,TOMATO,LB,z,y,./images/TOMATOLB.png,,,,,,,,,,,,,,,,,,,,,0,-0.31122449,-0.31377551,1,0,0,0.99,button_left_test,0,67,67,84,1
,,,,,,,,,,,,,,,,,5f15e4bc797c740fff2c442c,28,2022-02-12_13h24.25.344,lexical_decision_task_DD_L6,2021.2.3,iPhone,58.82352941,,,,,,,,,,1.058,1,,,,,,,,,,,,,,,,,,,,,,,0.329591837,-0.31377551,1,0,0,,,,,,,GRAPE,C,m,y,./images/GRAPE.png,,,,,,,,,,,,,,,,,,,,,0,0.329591837,-0.31377551,1,0,0,1.058,button_right_test,0,68,68,16,1
,,,,,,,,,,,,,,,,,5f15e4bc797c740fff2c442c,28,2022-02-12_13h24.25.344,lexical_decision_task_DD_L6,2021.2.3,iPhone,58.82352941,,,,,,,,,,0.926,1,,,,,,,,,,,,,,,,,,,,,,,0.280612245,-0.31377551,1,0,0,,,,,,,WAGON,C,m,y,./images/WAGON.png,,,,,,,,,,,,,,,,,,,,,0,0.280612245,-0.31377551,1,0,0,0.926,button_right_test,0,69,69,7,1
,,,,,,,,,,,,,,,,,5f15e4bc797c740fff2c442c,28,2022-02-12_13h24.25.344,lexical_decision_task_DD_L6,2021.2.3,iPhone,58.82352941,,,,,,,,,,0.862,1,,,,,,,,,,,,,,,,,,,,,,,-0.352040816,-0.299489796,1,0,0,,,,,,,BARREL,HB,z,y,./images/BARRELHB.png,,,,,,,,,,,,,,,,,,,,,0,-0.352040816,-0.299489796,1,0,0,0.862,button_left_test,0,70,70,116,1
,,,,,,,,,,,,,,,,,5f15e4bc797c740fff2c442c,28,2022-02-12_13h24.25.344,lexical_decision_task_DD_L6,2021.2.3,iPhone,58.82352941,,,,,,,,,,0.845,1,,,,,,,,,,,,,,,,,,,,,,,-0.306122449,-0.357653061,1,0,0,,,,,,,PURSE,HB,z,y,./images/PURSEHB.png,,,,,,,,,,,,,,,,,,,,,0,-0.306122449,-0.357653061,1,0,0,0.845,button_left_test,0,71,71,146,1
,,,,,,,,,,,,,,,,,5f15e4bc797c740fff2c442c,28,2022-02-12_13h24.25.344,lexical_decision_task_DD_L6,2021.2.3,iPhone,58.82352941,,,,,,,,,,1.04,1,,,,,,,,,,,,,,,,,,,,,,,0.333673469,-0.319897959,1,0,0,,,,,,,MEDAL,HB,m,y,./images/MEDALHB.png,,,,,,,,,,,,,,,,,,,,,0,0.333673469,-0.319897959,1,0,0,1.04,button_right_test,0,72,72,11,1
,,,,,,,,,,,,,,,,,5f15e4bc797c740fff2c442c,28,2022-02-12_13h24.25.344,lexical_decision_task_DD_L6,2021.2.3,iPhone,58.82352941,,,,,,,,,,1.004,1,,,,,,,,,,,,,,,,,,,,,,,0.245918367,-0.346428571,1,0,0,,,,,,,SAUNA,LB,m,y,./images/SAUNALB.png,,,,,,,,,,,,,,,,,,,,,0,0.245918367,-0.346428571,1,0,0,1.004,button_right_test,0,73,73,33,1
,,,,,,,,,,,,,,,,,5f15e4bc797c740fff2c442c,28,2022-02-12_13h24.25.344,lexical_decision_task_DD_L6,2021.2.3,iPhone,58.82352941,,,,,,,,,,0.805,1,,,,,,,,,,,,,,,,,,,,,,,-0.310204082,-0.350510204,1,0,0,,,,,,,PASTA,HB,z,y,./images/PASTAHB.png,,,,,,,,,,,,,,,,,,,,,0,-0.310204082,-0.350510204,1,0,0,0.805,button_left_test,0,74,74,89,1
,,,,,,,,,,,,,,,,,5f15e4bc797c740fff2c442c,28,2022-02-12_13h24.25.344,lexical_decision_task_DD_L6,2021.2.3,iPhone,58.82352941,,,,,,,,,,0.763,1,,,,,,,,,,,,,,,,,,,,,,,-0.308163265,-0.335204082,1,0,0,,,,,,,SHELF,LB,z,y,./images/SHELFLB.png,,,,,,,,,,,,,,,,,,,,,0,-0.308163265,-0.335204082,1,0,0,0.763,button_left_test,0,75,75,123,1
,,,,,,,,,,,,,,,,,5f15e4bc797c740fff2c442c,28,2022-02-12_13h24.25.344,lexical_decision_task_DD_L6,2021.2.3,iPhone,58.82352941,,,,,,,,,,1.011,1,,,,,,,,,,,,,,,,,,,,,,,-0.303061224,-0.320918367,1,0,0,,,,,,,MAGGOT,LB,z,y,./images/MAGGOTLB.png,,,,,,,,,,,,,,,,,,,,,0,-0.303061224,-0.320918367,1,0,0,1.011,button_left_test,0,76,76,117,1
,,,,,,,,,,,,,,,,,5f15e4bc797c740fff2c442c,28,2022-02-12_13h24.25.344,lexical_decision_task_DD_L6,2021.2.3,iPhone,58.82352941,,,,,,,,,,0.879,1,,,,,,,,,,,,,,,,,,,,,,,-0.302040816,-0.34744898,1,0,0,,,,,,,PEACH,HB,z,y,./images/PEACHHB.png,,,,,,,,,,,,,,,,,,,,,0,-0.302040816,-0.34744898,1,0,0,0.879,button_left_test,0,77,77,119,1
,,,,,,,,,,,,,,,,,5f15e4bc797c740fff2c442c,28,2022-02-12_13h24.25.344,lexical_decision_task_DD_L6,2021.2.3,iPhone,58.82352941,,,,,,,,,,0.921,1,,,,,,,,,,,,,,,,,,,,,,,-0.284693878,-0.308673469,1,0,0,,,,,,,BEARD,HB,z,y,./images/BEARDHB.png,,,,,,,,,,,,,,,,,,,,,0,-0.284693878,-0.308673469,1,0,0,0.921,button_left_test,0,78,78,86,1
,,,,,,,,,,,,,,,,,5f15e4bc797c740fff2c442c,28,2022-02-12_13h24.25.344,lexical_decision_task_DD_L6,2021.2.3,iPhone,58.82352941,,,,,,,,,,1.027,0,,,,,,,,,,,,,,,,,,,,,,,-0.296938776,-0.331122449,1,0,0,,,,,,,BUBBLE,HB,m,y,./images/BUBBLEHB.png,,,,,,,,,,,,,,,,,,,,,0,-0.296938776,-0.331122449,1,0,0,1.027,button_left_test,0,79,79,71,1
,,,,,,,,,,,,,,,,,5f15e4bc797c740fff2c442c,28,2022-02-12_13h24.25.344,lexical_decision_task_DD_L6,2021.2.3,iPhone,58.82352941,,,,,,,,,,0.954,1,,,,,,,,,,,,,,,,,,,,,,,-0.289795918,-0.333163265,1,0,0,,,,,,,FOLDER,LB,z,y,./images/FOLDERLB.png,,,,,,,,,,,,,,,,,,,,,0,-0.289795918,-0.333163265,1,0,0,0.954,button_left_test,0,80,80,126,1
,,,,,,,,,,,,,,,,,5f15e4bc797c740fff2c442c,28,2022-02-12_13h24.25.344,lexical_decision_task_DD_L6,2021.2.3,iPhone,58.82352941,,,,,,,,,,0.904,1,,,,,,,,,,,,,,,,,,,,,,,-0.298979592,-0.312755102,1,0,0,,,,,,,SQUARE,LB,z,y,./images/SQUARELB.png,,,,,,,,,,,,,,,,,,,,,0,-0.298979592,-0.312755102,1,0,0,0.904,button_left_test,0,81,81,90,1
,,,,,,,,,,,,,,,,,5f15e4bc797c740fff2c442c,28,2022-02-12_13h24.25.344,lexical_decision_task_DD_L6,2021.2.3,iPhone,58.82352941,,,,,,,,,,1.308,1,,,,,,,,,,,,,,,,,,,,,,,-0.306122449,-0.316836735,1,0,0,,,,,,,BABOON,C,z,y,./images/BABOON.png,,,,,,,,,,,,,,,,,,,,,0,-0.306122449,-0.316836735,1,0,0,1.308,button_left_test,0,82,82,142,1
,,,,,,,,,,,,,,,,,5f15e4bc797c740fff2c442c,28,2022-02-12_13h24.25.344,lexical_decision_task_DD_L6,2021.2.3,iPhone,58.82352941,,,,,,,,,,0.834,1,,,,,,,,,,,,,,,,,,,,,,,0.015306122,-0.415816327,1,0,0,,,,,,,MOTOR,C,z,y,./images/MOTOR.png,break_done_button,,,,,,,,,,,,,,,,,,,,0,-0.31122449,-0.335204082,1,0,0,0.834,button_left_test,0,83,83,97,1
,,,,,,,,,,,,,,,,,5f15e4bc797c740fff2c442c,28,2022-02-12_13h24.25.344,lexical_decision_task_DD_L6,2021.2.3,iPhone,58.82352941,,,,,,,,,,1.276,1,,,,,,,,,,,,,,,,,,,,,,,0.297959184,-0.321938776,1,0,0,,,,,,,STOVE,HB,m,y,./images/STOVEHB.png,,,,,,,,,,,,,,,,,,,,,0,0.297959184,-0.321938776,1,0,0,1.276,button_right_test,0,84,84,2,1
,,,,,,,,,,,,,,,,,5f15e4bc797c740fff2c442c,28,2022-02-12_13h24.25.344,lexical_decision_task_DD_L6,2021.2.3,iPhone,58.82352941,,,,,,,,,,0.818,1,,,,,,,,,,,,,,,,,,,,,,,-0.341836735,-0.342346939,1,0,0,,,,,,,BERRY,HB,z,y,./images/BERRYHB.png,,,,,,,,,,,,,,,,,,,,,0,-0.341836735,-0.342346939,1,0,0,0.818,button_left_test,0,85,85,131,1
,,,,,,,,,,,,,,,,,5f15e4bc797c740fff2c442c,28,2022-02-12_13h24.25.344,lexical_decision_task_DD_L6,2021.2.3,iPhone,58.82352941,,,,,,,,,,0.783,1,,,,,,,,,,,,,,,,,,,,,,,-0.340816327,-0.329081633,1,0,0,,,,,,,PIMPLE,HB,z,y,./images/PIMPLEHB.png,,,,,,,,,,,,,,,,,,,,,0,-0.340816327,-0.329081633,1,0,0,0.783,button_left_test,0,86,86,155,1
,,,,,,,,,,,,,,,,,5f15e4bc797c740fff2c442c,28,2022-02-12_13h24.25.344,lexical_decision_task_DD_L6,2021.2.3,iPhone,58.82352941,,,,,,,,,,0.727,1,,,,,,,,,,,,,,,,,,,,,,,-0.31122449,-0.346428571,1,0,0,,,,,,,TRIPOD,LB,z,y,./images/TRIPODLB.png,,,,,,,,,,,,,,,,,,,,,0,-0.31122449,-0.346428571,1,0,0,0.727,button_left_test,0,87,87,138,1
,,,,,,,,,,,,,,,,,5f15e4bc797c740fff2c442c,28,2022-02-12_13h24.25.344,lexical_decision_task_DD_L6,2021.2.3,iPhone,58.82352941,,,,,,,,,,0.831,0,,,,,,,,,,,,,,,,,,,,,,,-0.316326531,-0.342346939,1,0,0,,,,,,,CHALK,C,m,y,./images/CHALK.png,,,,,,,,,,,,,,,,,,,,,0,-0.316326531,-0.342346939,1,0,0,0.831,button_left_test,0,88,88,25,1
,,,,,,,,,,,,,,,,,5f15e4bc797c740fff2c442c,28,2022-02-12_13h24.25.344,lexical_decision_task_DD_L6,2021.2.3,iPhone,58.82352941,,,,,,,,,,1.317,0,,,,,,,,,,,,,,,,,,,,,,,-0.28877551,-0.327040816,1,0,0,,,,,,,HAMMER,LB,m,y,./images/HAMMERLB.png,,,,,,,,,,,,,,,,,,,,,0,-0.28877551,-0.327040816,1,0,0,1.317,button_left_test,0,89,89,75,1
,,,,,,,,,,,,,,,,,5f15e4bc797c740fff2c442c,28,2022-02-12_13h24.25.344,lexical_decision_task_DD_L6,2021.2.3,iPhone,58.82352941,,,,,,,,,,1.649,1,,,,,,,,,,,,,,,,,,,,,,,0.305102041,-0.342346939,1,0,0,,,,,,,MONKEY,LB,m,y,./images/MONKEYLB.png,,,,,,,,,,,,,,,,,,,,,0,0.305102041,-0.342346939,1,0,0,1.649,button_right_test,0,90,90,45,1
,,,,,,,,,,,,,,,,,5f15e4bc797c740fff2c442c,28,2022-02-12_13h24.25.344,lexical_decision_task_DD_L6,2021.2.3,iPhone,58.82352941,,,,,,,,,,0.914,0,,,,,,,,,,,,,,,,,,,,,,,-0.324489796,-0.333163265,1,0,0,,,,,,,BISHOP,C,m,y,./images/BISHOP.png,,,,,,,,,,,,,,,,,,,,,0,-0.324489796,-0.333163265,1,0,0,0.914,button_left_test,0,91,91,49,1
,,,,,,,,,,,,,,,,,5f15e4bc797c740fff2c442c,28,2022-02-12_13h24.25.344,lexical_decision_task_DD_L6,2021.2.3,iPhone,58.82352941,,,,,,,,,,1.189,0,,,,,,,,,,,,,,,,,,,,,,,-0.331632653,-0.330102041,1,0,0,,,,,,,SAUCE,LB,m,y,./images/SAUCELB.png,,,,,,,,,,,,,,,,,,,,,0,-0.331632653,-0.330102041,1,0,0,1.189,button_left_test,0,92,92,51,1
,,,,,,,,,,,,,,,,,5f15e4bc797c740fff2c442c,28,2022-02-12_13h24.25.344,lexical_decision_task_DD_L6,2021.2.3,iPhone,58.82352941,,,,,,,,,,0.78,1,,,,,,,,,,,,,,,,,,,,,,,-0.303061224,-0.342346939,1,0,0,,,,,,,INFANT,C,z,y,./images/INFANT.png,,,,,,,,,,,,,,,,,,,,,0,-0.303061224,-0.342346939,1,0,0,0.78,button_left_test,0,93,93,160,1
,,,,,,,,,,,,,,,,,5f15e4bc797c740fff2c442c,28,2022-02-12_13h24.25.344,lexical_decision_task_DD_L6,2021.2.3,iPhone,58.82352941,,,,,,,,,,0.773,1,,,,,,,,,,,,,,,,,,,,,,,-0.321428571,-0.303571429,1,0,0,,,,,,,CRUST,C,z,y,./images/CRUST.png,,,,,,,,,,,,,,,,,,,,,0,-0.321428571,-0.303571429,1,0,0,0.773,button_left_test,0,94,94,163,1
,,,,,,,,,,,,,,,,,5f15e4bc797c740fff2c442c,28,2022-02-12_13h24.25.344,lexical_decision_task_DD_L6,2021.2.3,iPhone,58.82352941,,,,,,,,,,0.941,1,,,,,,,,,,,,,,,,,,,,,,,-0.298979592,-0.325,1,0,0,,,,,,,JELLY,C,z,y,./images/JELLY.png,,,,,,,,,,,,,,,,,,,,,0,-0.298979592,-0.325,1,0,0,0.941,button_left_test,0,95,95,148,1
,,,,,,,,,,,,,,,,,5f15e4bc797c740fff2c442c,28,2022-02-12_13h24.25.344,lexical_decision_task_DD_L6,2021.2.3,iPhone,58.82352941,,,,,,,,,,0.992,0,,,,,,,,,,,,,,,,,,,,,,,-0.293877551,-0.335204082,1,0,0,,,,,,,BROOM,LB,m,y,./images/BROOMLB.png,,,,,,,,,,,,,,,,,,,,,0,-0.293877551,-0.335204082,1,0,0,0.992,button_left_test,0,96,96,78,1
,,,,,,,,,,,,,,,,,5f15e4bc797c740fff2c442c,28,2022-02-12_13h24.25.344,lexical_decision_task_DD_L6,2021.2.3,iPhone,58.82352941,,,,,,,,,,0.791,1,,,,,,,,,,,,,,,,,,,,,,,-0.304081633,-0.325,1,0,0,,,,,,,BURIAL,HB,z,y,./images/BURIALHB.png,,,,,,,,,,,,,,,,,,,,,0,-0.304081633,-0.325,1,0,0,0.791,button_left_test,0,97,97,143,1
