key_resp.keys,key_resp.rt,instr_done_touch.x,instr_done_touch.y,instr_done_touch.leftButton,instr_done_touch.midButton,instr_done_touch.rightButton,instruction_pages.thisRepN,instruction_pages.thisTrialN,instruction_pages.thisN,instruction_pages.thisIndex,instruction_pages.ran,pageN,phase,instruct_text,has_image,instruct_image,participant,age,date,expName,psychopyVersion,OS,frameRate,response.keys,response.corr,response.rt,touch_resp.x,touch_resp.y,touch_resp.leftButton,touch_resp.midButton,touch_resp.rightButton,touch_resp.time,touch_resp.clicked_name,rt,corr,practrials.thisRepN,practrials.thisTrialN,practrials.thisN,practrials.thisIndex,practrials.ran,TrialID,Target,corrAns,end_of_practice_trials_pages.thisRepN,end_of_practice_trials_pages.thisTrialN,end_of_practice_trials_pages.thisN,end_of_practice_trials_pages.thisIndex,end_of_practice_trials_pages.ran,key_resp_2.keys,key_resp_2.corr,key_resp_2.rt,targ_click.x,targ_click.y,targ_click.leftButton,targ_click.midButton,targ_click.rightButton,targ_click.time,targ_click.clicked_name,break_done_touch.x,break_done_touch.y,break_done_touch.leftButton,break_done_touch.midButton,break_done_touch.rightButton,break_done_keyboard.keys,maintrials.thisRepN,maintrials.thisTrialN,maintrials.thisN,maintrials.thisIndex,maintrials.ran,string,blur,study,lex,stim_path,break_done_keyboard.rt,mouse_2.x,mouse_2.y,mouse_2.leftButton,mouse_2.midButton,mouse_2.rightButton,mouse_2.clicked_name,slider.response,slider.rt,trials.thisRepN,trials.thisTrialN,trials.thisN,trials.thisIndex,trials.ran,test_instructions.thisRepN,test_instructions.thisTrialN,test_instructions.thisN,test_instructions.thisIndex,test_instructions.ran,instr_done_touch.clicked_name,key_resp_3.keys,key_resp_3.corr,key_resp_3.rt,test_click.x,test_click.y,test_click.leftButton,test_click.midButton,test_click.rightButton,test_click.time,test_click.clicked_name,test_phase.thisRepN,test_phase.thisTrialN,test_phase.thisN,test_phase.thisIndex,test_phase.ran
space,15.8604,0.037830743,-0.432745972,0,0,0,0,0,0,0,1,1,instructions,"INSTRUCTIONS
At the start of each trial, look at the plus sign  (+) in the center of the screen.  This tells you that a trial is about to begin and where to look. Second, the plus sign will disappear and a string of letters will appear. Your task is to determine if the string of letters is a word or not. If the item is a word press the M key (on keyboard)  or touch the word button (phone/tablet).  If the item is not a word,  press the  Z key (on keyboard)  or touch the nonword button (on phone/tablet). 
Press the space bar or touch  continue.",0,,5f2599329c3df5250bb66565,29,2022-02-12_13h16.32.042,lexical_decision_task_DD_L6,2021.2.3,MacIntel,60.0024001,,,,,,,,,,,,,,,,,,,,,,,,,,,,,,,,,,,,,,,,,,,,,,,,,,,,,,,,,,,,,,,,,,,,,,,,,,,,,,,,,,,,,,
space,4.8234,0.037830743,-0.432745972,0,0,0,0,1,1,1,1,2,instructions,"If your device has a keyboard, press the 'Z' key for nonwords and the 'M' key for words.





Press the space bar or touch the button below to continue.",0,keyboard-example.gif,5f2599329c3df5250bb66565,29,2022-02-12_13h16.32.042,lexical_decision_task_DD_L6,2021.2.3,MacIntel,60.0024001,,,,,,,,,,,,,,,,,,,,,,,,,,,,,,,,,,,,,,,,,,,,,,,,,,,,,,,,,,,,,,,,,,,,,,,,,,,,,,,,,,,,,,
space,3.9274,0.037830743,-0.432745972,0,0,0,0,2,2,2,1,3,instructions,"If you are using a touchscreen only device, use the buttons on the screen. Do not use the mouse.





Press the space bar or touch the button below to continue.",0,touchscreen-example.gif,5f2599329c3df5250bb66565,29,2022-02-12_13h16.32.042,lexical_decision_task_DD_L6,2021.2.3,MacIntel,60.0024001,,,,,,,,,,,,,,,,,,,,,,,,,,,,,,,,,,,,,,,,,,,,,,,,,,,,,,,,,,,,,,,,,,,,,,,,,,,,,,,,,,,,,,
space,6.3816,0.037830743,-0.432745972,0,0,0,0,3,3,3,1,4,instructions,"It is very important that you respond as quickly and accurately as possible, as each letter string will only be on the screen for two seconds. If you do not respond within this time, the message 'Too slow!' will be displayed and the experiment will progress to the next letter string. The first 20 trials will be practice trials and you will receive feedback on your answers. 

Press the space bar or touch the button below to start the practice trials.",0,,5f2599329c3df5250bb66565,29,2022-02-12_13h16.32.042,lexical_decision_task_DD_L6,2021.2.3,MacIntel,60.0024001,,,,,,,,,,,,,,,,,,,,,,,,,,,,,,,,,,,,,,,,,,,,,,,,,,,,,,,,,,,,,,,,,,,,,,,,,,,,,,,,,,,,,,
,,,,,,,,,,,,,,,,,5f2599329c3df5250bb66565,29,2022-02-12_13h16.32.042,lexical_decision_task_DD_L6,2021.2.3,MacIntel,60.0024001,z,1,1.3587,,,,,,,,1.3587,1,0,0,0,15,1,1001,WHAISE,z,,,,,,,,,,,,,,,,,,,,,,,,,,,,,,,,,,,,,,,,,,,,,,,,,,,,,,,,,,,,,,,,,,
,,,,,,,,,,,,,,,,,5f2599329c3df5250bb66565,29,2022-02-12_13h16.32.042,lexical_decision_task_DD_L6,2021.2.3,MacIntel,60.0024001,m,1,0.8381,,,,,,,,0.8381,1,0,1,1,3,1,1001,MATRIX,m,,,,,,,,,,,,,,,,,,,,,,,,,,,,,,,,,,,,,,,,,,,,,,,,,,,,,,,,,,,,,,,,,,
,,,,,,,,,,,,,,,,,5f2599329c3df5250bb66565,29,2022-02-12_13h16.32.042,lexical_decision_task_DD_L6,2021.2.3,MacIntel,60.0024001,z,1,1.0063,,,,,,,,1.0063,1,0,2,2,12,1,1001,SPRINY,z,,,,,,,,,,,,,,,,,,,,,,,,,,,,,,,,,,,,,,,,,,,,,,,,,,,,,,,,,,,,,,,,,,
,,,,,,,,,,,,,,,,,5f2599329c3df5250bb66565,29,2022-02-12_13h16.32.042,lexical_decision_task_DD_L6,2021.2.3,MacIntel,60.0024001,z,1,0.9705,,,,,,,,0.9705,1,0,3,3,14,1,1001,THRALE,z,,,,,,,,,,,,,,,,,,,,,,,,,,,,,,,,,,,,,,,,,,,,,,,,,,,,,,,,,,,,,,,,,,
,,,,,,,,,,,,,,,,,5f2599329c3df5250bb66565,29,2022-02-12_13h16.32.042,lexical_decision_task_DD_L6,2021.2.3,MacIntel,60.0024001,z,1,0.7183,,,,,,,,0.7183,1,0,4,4,13,1,1001,ROUPET,z,,,,,,,,,,,,,,,,,,,,,,,,,,,,,,,,,,,,,,,,,,,,,,,,,,,,,,,,,,,,,,,,,,
,,,,,,,,,,,,,,,,,5f2599329c3df5250bb66565,29,2022-02-12_13h16.32.042,lexical_decision_task_DD_L6,2021.2.3,MacIntel,60.0024001,m,1,0.6017,,,,,,,,0.6017,1,0,5,5,4,1,1001,SQUEAK,m,,,,,,,,,,,,,,,,,,,,,,,,,,,,,,,,,,,,,,,,,,,,,,,,,,,,,,,,,,,,,,,,,,
,,,,,,,,,,,,,,,,,5f2599329c3df5250bb66565,29,2022-02-12_13h16.32.042,lexical_decision_task_DD_L6,2021.2.3,MacIntel,60.0024001,z,1,0.9845,,,,,,,,0.9845,1,0,6,6,8,1,1001,ASLERT,z,,,,,,,,,,,,,,,,,,,,,,,,,,,,,,,,,,,,,,,,,,,,,,,,,,,,,,,,,,,,,,,,,,
,,,,,,,,,,,,,,,,,5f2599329c3df5250bb66565,29,2022-02-12_13h16.32.042,lexical_decision_task_DD_L6,2021.2.3,MacIntel,60.0024001,m,1,0.707,,,,,,,,0.707,1,0,7,7,2,1,1001,ALMOND,m,,,,,,,,,,,,,,,,,,,,,,,,,,,,,,,,,,,,,,,,,,,,,,,,,,,,,,,,,,,,,,,,,,
,,,,,,,,,,,,,,,,,5f2599329c3df5250bb66565,29,2022-02-12_13h16.32.042,lexical_decision_task_DD_L6,2021.2.3,MacIntel,60.0024001,m,1,0.8192,,,,,,,,0.8192,1,0,8,8,6,1,1001,ZOMBIE,m,,,,,,,,,,,,,,,,,,,,,,,,,,,,,,,,,,,,,,,,,,,,,,,,,,,,,,,,,,,,,,,,,,
,,,,,,,,,,,,,,,,,5f2599329c3df5250bb66565,29,2022-02-12_13h16.32.042,lexical_decision_task_DD_L6,2021.2.3,MacIntel,60.0024001,m,1,0.669,,,,,,,,0.669,1,0,9,9,0,1,1001,UTOPIA,m,,,,,,,,,,,,,,,,,,,,,,,,,,,,,,,,,,,,,,,,,,,,,,,,,,,,,,,,,,,,,,,,,,
,,,,,,,,,,,,,,,,,5f2599329c3df5250bb66565,29,2022-02-12_13h16.32.042,lexical_decision_task_DD_L6,2021.2.3,MacIntel,60.0024001,z,1,0.786,,,,,,,,0.786,1,0,10,10,9,1,1001,FARINY,z,,,,,,,,,,,,,,,,,,,,,,,,,,,,,,,,,,,,,,,,,,,,,,,,,,,,,,,,,,,,,,,,,,
,,,,,,,,,,,,,,,,,5f2599329c3df5250bb66565,29,2022-02-12_13h16.32.042,lexical_decision_task_DD_L6,2021.2.3,MacIntel,60.0024001,m,1,0.6354,,,,,,,,0.6354,1,0,11,11,7,1,1001,VOLUME,m,,,,,,,,,,,,,,,,,,,,,,,,,,,,,,,,,,,,,,,,,,,,,,,,,,,,,,,,,,,,,,,,,,
,,,,,,,,,,,,,,,,,5f2599329c3df5250bb66565,29,2022-02-12_13h16.32.042,lexical_decision_task_DD_L6,2021.2.3,MacIntel,60.0024001,m,1,0.8533,,,,,,,,0.8533,1,0,12,12,1,1,1001,ADJUST,m,,,,,,,,,,,,,,,,,,,,,,,,,,,,,,,,,,,,,,,,,,,,,,,,,,,,,,,,,,,,,,,,,,
,,,,,,,,,,,,,,,,,5f2599329c3df5250bb66565,29,2022-02-12_13h16.32.042,lexical_decision_task_DD_L6,2021.2.3,MacIntel,60.0024001,z,1,0.8407,,,,,,,,0.8407,1,0,13,13,10,1,1001,INLADE,z,,,,,,,,,,,,,,,,,,,,,,,,,,,,,,,,,,,,,,,,,,,,,,,,,,,,,,,,,,,,,,,,,,
,,,,,,,,,,,,,,,,,5f2599329c3df5250bb66565,29,2022-02-12_13h16.32.042,lexical_decision_task_DD_L6,2021.2.3,MacIntel,60.0024001,m,1,0.6209,,,,,,,,0.6209,1,0,14,14,5,1,1001,OBTAIN,m,,,,,,,,,,,,,,,,,,,,,,,,,,,,,,,,,,,,,,,,,,,,,,,,,,,,,,,,,,,,,,,,,,
,,,,,,,,,,,,,,,,,5f2599329c3df5250bb66565,29,2022-02-12_13h16.32.042,lexical_decision_task_DD_L6,2021.2.3,MacIntel,60.0024001,z,1,0.8035,,,,,,,,0.8035,1,0,15,15,11,1,1001,RASHET,z,,,,,,,,,,,,,,,,,,,,,,,,,,,,,,,,,,,,,,,,,,,,,,,,,,,,,,,,,,,,,,,,,,
space,7.9984,0.037830743,-0.432745972,0,0,0,,,,,,1,end_of_practice,"You have completed the practice trials. During the experimental trials, you will not receive feedback. 
Before you begin, please ensure that you are in a comfortable and quiet location and will not be disturbed for about 15 minutes, as we cannot use your data if you do not complete all the trials. 
 When you are ready to start the experimental trials, please press space or touch the button below.",,,5f2599329c3df5250bb66565,29,2022-02-12_13h16.32.042,lexical_decision_task_DD_L6,2021.2.3,MacIntel,60.0024001,,,,,,,,,,,,,,,,,,,,,0,0,0,0,1,,,,,,,,,,,,,,,,,,,,,,,,,,,,,,,,,,,,,,,,,,,,,,,,,,,,,,,,,,,,,
,,,,,,,,,,,,,,,,,5f2599329c3df5250bb66565,29,2022-02-12_13h16.32.042,lexical_decision_task_DD_L6,2021.2.3,MacIntel,60.0024001,,,,,,,,,,,0.8614,1,,,,,,,,,,,,,,m,1,0.8614,,,,,,,,0.037830743,-0.432745972,0,0,0,,0,0,0,60,1,CURRY,LB,m,m,./images/CURRYLB.png,,,,,,,,,,,,,,,,,,,,,,,,,,,,,,,,,,,
,,,,,,,,,,,,,,,,,5f2599329c3df5250bb66565,29,2022-02-12_13h16.32.042,lexical_decision_task_DD_L6,2021.2.3,MacIntel,60.0024001,,,,,,,,,,,0.7314,1,,,,,,,,,,,,,,m,1,0.7314,,,,,,,,0.037830743,-0.432745972,0,0,0,,0,1,1,12,1,BLOKE,LB,m,m,./images/BLOKELB.png,,,,,,,,,,,,,,,,,,,,,,,,,,,,,,,,,,,
,,,,,,,,,,,,,,,,,5f2599329c3df5250bb66565,29,2022-02-12_13h16.32.042,lexical_decision_task_DD_L6,2021.2.3,MacIntel,60.0024001,,,,,,,,,,,0.5691,1,,,,,,,,,,,,,,m,1,0.5691,,,,,,,,0.037830743,-0.432745972,0,0,0,,0,2,2,31,1,STEAK,C,m,m,./images/STEAK.png,,,,,,,,,,,,,,,,,,,,,,,,,,,,,,,,,,,
,,,,,,,,,,,,,,,,,5f2599329c3df5250bb66565,29,2022-02-12_13h16.32.042,lexical_decision_task_DD_L6,2021.2.3,MacIntel,60.0024001,,,,,,,,,,,0.8311,1,,,,,,,,,,,,,,m,1,0.8311,,,,,,,,0.037830743,-0.432745972,0,0,0,,0,3,3,14,1,FENCE,HB,m,m,./images/FENCEHB.png,,,,,,,,,,,,,,,,,,,,,,,,,,,,,,,,,,,
,,,,,,,,,,,,,,,,,5f2599329c3df5250bb66565,29,2022-02-12_13h16.32.042,lexical_decision_task_DD_L6,2021.2.3,MacIntel,60.0024001,,,,,,,,,,,0.5887,1,,,,,,,,,,,,,,m,1,0.5887,,,,,,,,0.037830743,-0.432745972,0,0,0,,0,4,4,19,1,DONKEY,C,m,m,./images/DONKEY.png,,,,,,,,,,,,,,,,,,,,,,,,,,,,,,,,,,,
,,,,,,,,,,,,,,,,,5f2599329c3df5250bb66565,29,2022-02-12_13h16.32.042,lexical_decision_task_DD_L6,2021.2.3,MacIntel,60.0024001,,,,,,,,,,,0.7881,1,,,,,,,,,,,,,,z,1,0.7881,,,,,,,,0.037830743,-0.432745972,0,0,0,,0,5,5,131,1,NACES,LB,z,z,./images/NACESLB.png,,,,,,,,,,,,,,,,,,,,,,,,,,,,,,,,,,,
,,,,,,,,,,,,,,,,,5f2599329c3df5250bb66565,29,2022-02-12_13h16.32.042,lexical_decision_task_DD_L6,2021.2.3,MacIntel,60.0024001,,,,,,,,,,,1.0295,1,,,,,,,,,,,,,,z,1,1.0295,,,,,,,,0.037830743,-0.432745972,0,0,0,,0,6,6,165,1,TROWN,C,z,z,./images/TROWN.png,,,,,,,,,,,,,,,,,,,,,,,,,,,,,,,,,,,
,,,,,,,,,,,,,,,,,5f2599329c3df5250bb66565,29,2022-02-12_13h16.32.042,lexical_decision_task_DD_L6,2021.2.3,MacIntel,60.0024001,,,,,,,,,,,1.2293,1,,,,,,,,,,,,,,z,1,1.2293,,,,,,,,0.037830743,-0.432745972,0,0,0,,0,7,7,115,1,MAWNS,HB,z,z,./images/MAWNSHB.png,,,,,,,,,,,,,,,,,,,,,,,,,,,,,,,,,,,
,,,,,,,,,,,,,,,,,5f2599329c3df5250bb66565,29,2022-02-12_13h16.32.042,lexical_decision_task_DD_L6,2021.2.3,MacIntel,60.0024001,,,,,,,,,,,0.783,1,,,,,,,,,,,,,,m,1,0.783,,,,,,,,0.037830743,-0.432745972,0,0,0,,0,8,8,68,1,VALLEY,HB,m,m,./images/VALLEYHB.png,,,,,,,,,,,,,,,,,,,,,,,,,,,,,,,,,,,
,,,,,,,,,,,,,,,,,5f2599329c3df5250bb66565,29,2022-02-12_13h16.32.042,lexical_decision_task_DD_L6,2021.2.3,MacIntel,60.0024001,,,,,,,,,,,0.6031,1,,,,,,,,,,,,,,m,1,0.6031,,,,,,,,0.037830743,-0.432745972,0,0,0,,0,9,9,66,1,STATUE,LB,m,m,./images/STATUELB.png,,,,,,,,,,,,,,,,,,,,,,,,,,,,,,,,,,,
,,,,,,,,,,,,,,,,,5f2599329c3df5250bb66565,29,2022-02-12_13h16.32.042,lexical_decision_task_DD_L6,2021.2.3,MacIntel,60.0024001,,,,,,,,,,,0.8994,1,,,,,,,,,,,,,,z,1,0.8994,,,,,,,,0.037830743,-0.432745972,0,0,0,,0,10,10,119,1,PAFER,LB,z,z,./images/PAFERLB.png,,,,,,,,,,,,,,,,,,,,,,,,,,,,,,,,,,,
,,,,,,,,,,,,,,,,,5f2599329c3df5250bb66565,29,2022-02-12_13h16.32.042,lexical_decision_task_DD_L6,2021.2.3,MacIntel,60.0024001,,,,,,,,,,,0.8997,1,,,,,,,,,,,,,,z,1,0.8997,,,,,,,,0.037830743,-0.432745972,0,0,0,,0,11,11,121,1,CEERS,HB,z,z,./images/CEERSHB.png,,,,,,,,,,,,,,,,,,,,,,,,,,,,,,,,,,,
,,,,,,,,,,,,,,,,,5f2599329c3df5250bb66565,29,2022-02-12_13h16.32.042,lexical_decision_task_DD_L6,2021.2.3,MacIntel,60.0024001,,,,,,,,,,,1.0487,0,,,,,,,,,,,,,,m,0,1.0487,,,,,,,,0.037830743,-0.432745972,0,0,0,,0,12,12,130,1,CRILL,HB,z,z,./images/CRILLHB.png,,,,,,,,,,,,,,,,,,,,,,,,,,,,,,,,,,,
,,,,,,,,,,,,,,,,,5f2599329c3df5250bb66565,29,2022-02-12_13h16.32.042,lexical_decision_task_DD_L6,2021.2.3,MacIntel,60.0024001,,,,,,,,,,,0.6156,1,,,,,,,,,,,,,,m,1,0.6156,,,,,,,,0.037830743,-0.432745972,0,0,0,,0,13,13,30,1,SLOPE,LB,m,m,./images/SLOPELB.png,,,,,,,,,,,,,,,,,,,,,,,,,,,,,,,,,,,
,,,,,,,,,,,,,,,,,5f2599329c3df5250bb66565,29,2022-02-12_13h16.32.042,lexical_decision_task_DD_L6,2021.2.3,MacIntel,60.0024001,,,,,,,,,,,0.6704,1,,,,,,,,,,,,,,m,1,0.6704,,,,,,,,0.037830743,-0.432745972,0,0,0,,0,14,14,2,1,STOVE,HB,m,m,./images/STOVEHB.png,,,,,,,,,,,,,,,,,,,,,,,,,,,,,,,,,,,
,,,,,,,,,,,,,,,,,5f2599329c3df5250bb66565,29,2022-02-12_13h16.32.042,lexical_decision_task_DD_L6,2021.2.3,MacIntel,60.0024001,,,,,,,,,,,1.1003,1,,,,,,,,,,,,,,m,1,1.1003,,,,,,,,0.037830743,-0.432745972,0,0,0,,0,15,15,74,1,JUMPER,HB,m,m,./images/JUMPERHB.png,,,,,,,,,,,,,,,,,,,,,,,,,,,,,,,,,,,
,,,,,,,,,,,,,,,,,5f2599329c3df5250bb66565,29,2022-02-12_13h16.32.042,lexical_decision_task_DD_L6,2021.2.3,MacIntel,60.0024001,,,,,,,,,,,0.677,1,,,,,,,,,,,,,,z,1,0.677,,,,,,,,0.037830743,-0.432745972,0,0,0,,0,16,16,117,1,STEEG,C,z,z,./images/STEEG.png,,,,,,,,,,,,,,,,,,,,,,,,,,,,,,,,,,,
,,,,,,,,,,,,,,,,,5f2599329c3df5250bb66565,29,2022-02-12_13h16.32.042,lexical_decision_task_DD_L6,2021.2.3,MacIntel,60.0024001,,,,,,,,,,,1.0295,1,,,,,,,,,,,,,,z,1,1.0295,,,,,,,,0.037830743,-0.432745972,0,0,0,,0,17,17,106,1,CLUMS,HB,z,z,./images/CLUMSHB.png,,,,,,,,,,,,,,,,,,,,,,,,,,,,,,,,,,,
,,,,,,,,,,,,,,,,,5f2599329c3df5250bb66565,29,2022-02-12_13h16.32.042,lexical_decision_task_DD_L6,2021.2.3,MacIntel,60.0024001,,,,,,,,,,,1.3519,1,,,,,,,,,,,,,,z,1,1.3519,,,,,,,,0.037830743,-0.432745972,0,0,0,,0,18,18,116,1,BALGY,LB,z,z,./images/BALGYLB.png,,,,,,,,,,,,,,,,,,,,,,,,,,,,,,,,,,,
,,,,,,,,,,,,,,,,,5f2599329c3df5250bb66565,29,2022-02-12_13h16.32.042,lexical_decision_task_DD_L6,2021.2.3,MacIntel,60.0024001,,,,,,,,,,,0.9612,1,,,,,,,,,,,,,,z,1,0.9612,,,,,,,,0.037830743,-0.432745972,0,0,0,,0,19,19,124,1,TUNCH,HB,z,z,./images/TUNCHHB.png,,,,,,,,,,,,,,,,,,,,,,,,,,,,,,,,,,,
,,,,,,,,,,,,,,,,,5f2599329c3df5250bb66565,29,2022-02-12_13h16.32.042,lexical_decision_task_DD_L6,2021.2.3,MacIntel,60.0024001,,,,,,,,,,,0.763,1,,,,,,,,,,,,,,m,1,0.763,,,,,,,,0.037830743,-0.432745972,0,0,0,,0,20,20,77,1,WHEEL,HB,m,m,./images/WHEELHB.png,,,,,,,,,,,,,,,,,,,,,,,,,,,,,,,,,,,
,,,,,,,,,,,,,,,,,5f2599329c3df5250bb66565,29,2022-02-12_13h16.32.042,lexical_decision_task_DD_L6,2021.2.3,MacIntel,60.0024001,,,,,,,,,,,0.6952,1,,,,,,,,,,,,,,z,1,0.6952,,,,,,,,0.037830743,-0.432745972,0,0,0,,0,21,21,111,1,HOSSE,C,z,z,./images/HOSSE.png,,,,,,,,,,,,,,,,,,,,,,,,,,,,,,,,,,,
,,,,,,,,,,,,,,,,,5f2599329c3df5250bb66565,29,2022-02-12_13h16.32.042,lexical_decision_task_DD_L6,2021.2.3,MacIntel,60.0024001,,,,,,,,,,,1.1661,0,,,,,,,,,,,,,,m,0,1.1661,,,,,,,,0.037830743,-0.432745972,0,0,0,,0,22,22,110,1,CRUNK,LB,z,z,./images/CRUNKLB.png,,,,,,,,,,,,,,,,,,,,,,,,,,,,,,,,,,,
,,,,,,,,,,,,,,,,,5f2599329c3df5250bb66565,29,2022-02-12_13h16.32.042,lexical_decision_task_DD_L6,2021.2.3,MacIntel,60.0024001,,,,,,,,,,,1.8506,1,,,,,,,,,,,,,,z,1,1.8506,,,,,,,,0.037830743,-0.432745972,0,0,0,,0,23,23,137,1,JOOST,LB,z,z,./images/JOOSTLB.png,,,,,,,,,,,,,,,,,,,,,,,,,,,,,,,,,,,
,,,,,,,,,,,,,,,,,5f2599329c3df5250bb66565,29,2022-02-12_13h16.32.042,lexical_decision_task_DD_L6,2021.2.3,MacIntel,60.0024001,,,,,,,,,,,0.6315,1,,,,,,,,,,,,,,m,1,0.6315,,,,,,,,0.037830743,-0.432745972,0,0,0,,0,24,24,69,1,ARROW,LB,m,m,./images/ARROWLB.png,,,,,,,,,,,,,,,,,,,,,,,,,,,,,,,,,,,
,,,,,,,,,,,,,,,,,5f2599329c3df5250bb66565,29,2022-02-12_13h16.32.042,lexical_decision_task_DD_L6,2021.2.3,MacIntel,60.0024001,,,,,,,,,,,0.8507,1,,,,,,,,,,,,,,m,1,0.8507,,,,,,,,0.037830743,-0.432745972,0,0,0,,0,25,25,6,1,STAIN,LB,m,m,./images/STAINLB.png,,,,,,,,,,,,,,,,,,,,,,,,,,,,,,,,,,,
,,,,,,,,,,,,,,,,,5f2599329c3df5250bb66565,29,2022-02-12_13h16.32.042,lexical_decision_task_DD_L6,2021.2.3,MacIntel,60.0024001,,,,,,,,,,,1.0663,1,,,,,,,,,,,,,,z,1,1.0663,,,,,,,,0.037830743,-0.432745972,0,0,0,,0,26,26,109,1,BURGE,HB,z,z,./images/BURGEHB.png,,,,,,,,,,,,,,,,,,,,,,,,,,,,,,,,,,,
,,,,,,,,,,,,,,,,,5f2599329c3df5250bb66565,29,2022-02-12_13h16.32.042,lexical_decision_task_DD_L6,2021.2.3,MacIntel,60.0024001,,,,,,,,,,,0.7924,1,,,,,,,,,,,,,,z,1,0.7924,,,,,,,,0.037830743,-0.432745972,0,0,0,,0,27,27,120,1,RINED,C,z,z,./images/RINED.png,,,,,,,,,,,,,,,,,,,,,,,,,,,,,,,,,,,
,,,,,,,,,,,,,,,,,5f2599329c3df5250bb66565,29,2022-02-12_13h16.32.042,lexical_decision_task_DD_L6,2021.2.3,MacIntel,60.0024001,,,,,,,,,,,0.75,1,,,,,,,,,,,,,,z,1,0.75,,,,,,,,0.037830743,-0.432745972,0,0,0,,0,28,28,86,1,AIFED,LB,z,z,./images/AIFEDLB.png,,,,,,,,,,,,,,,,,,,,,,,,,,,,,,,,,,,
,,,,,,,,,,,,,,,,,5f2599329c3df5250bb66565,29,2022-02-12_13h16.32.042,lexical_decision_task_DD_L6,2021.2.3,MacIntel,60.0024001,,,,,,,,,,,0.7497,1,,,,,,,,,,,,,,m,1,0.7497,,,,,,,,0.037830743,-0.432745972,0,0,0,,0,29,29,50,1,PILOT,HB,m,m,./images/PILOTHB.png,,,,,,,,,,,,,,,,,,,,,,,,,,,,,,,,,,,
,,,,,,,,,,,,,,,,,5f2599329c3df5250bb66565,29,2022-02-12_13h16.32.042,lexical_decision_task_DD_L6,2021.2.3,MacIntel,60.0024001,,,,,,,,,,,0.6124,1,,,,,,,,,,,,,,m,1,0.6124,,,,,,,,0.037830743,-0.432745972,0,0,0,,0,30,30,26,1,CLOUD,HB,m,m,./images/CLOUDHB.png,,,,,,,,,,,,,,,,,,,,,,,,,,,,,,,,,,,
,,,,,,,,,,,,,,,,,5f2599329c3df5250bb66565,29,2022-02-12_13h16.32.042,lexical_decision_task_DD_L6,2021.2.3,MacIntel,60.0024001,,,,,,,,,,,1.1564,1,,,,,,,,,,,,,,z,1,1.1564,,,,,,,,0.037830743,-0.432745972,0,0,0,,0,31,31,166,1,SHORY,HB,z,z,./images/SHORYHB.png,,,,,,,,,,,,,,,,,,,,,,,,,,,,,,,,,,,
,,,,,,,,,,,,,,,,,5f2599329c3df5250bb66565,29,2022-02-12_13h16.32.042,lexical_decision_task_DD_L6,2021.2.3,MacIntel,60.0024001,,,,,,,,,,,1.3349,1,,,,,,,,,,,,,,z,1,1.3349,,,,,,,,0.037830743,-0.432745972,0,0,0,,0,32,32,85,1,CHULK,HB,z,z,./images/CHULKHB.png,,,,,,,,,,,,,,,,,,,,,,,,,,,,,,,,,,,
,,,,,,,,,,,,,,,,,5f2599329c3df5250bb66565,29,2022-02-12_13h16.32.042,lexical_decision_task_DD_L6,2021.2.3,MacIntel,60.0024001,,,,,,,,,,,1.0439,1,,,,,,,,,,,,,,z,1,1.0439,,,,,,,,0.037830743,-0.432745972,0,0,0,,0,33,33,90,1,NEAST,C,z,z,./images/NEAST.png,,,,,,,,,,,,,,,,,,,,,,,,,,,,,,,,,,,
,,,,,,,,,,,,,,,,,5f2599329c3df5250bb66565,29,2022-02-12_13h16.32.042,lexical_decision_task_DD_L6,2021.2.3,MacIntel,60.0024001,,,,,,,,,,,0.9672,1,,,,,,,,,,,,,,z,1,0.9672,,,,,,,,0.037830743,-0.432745972,0,0,0,,0,34,34,91,1,SHENS,HB,z,z,./images/SHENSHB.png,,,,,,,,,,,,,,,,,,,,,,,,,,,,,,,,,,,
,,,,,,,,,,,,,,,,,5f2599329c3df5250bb66565,29,2022-02-12_13h16.32.042,lexical_decision_task_DD_L6,2021.2.3,MacIntel,60.0024001,,,,,,,,,,,1.4888,1,,,,,,,,,,,,,,z,1,1.4888,,,,,,,,0.037830743,-0.432745972,0,0,0,,0,35,35,157,1,INLER,HB,z,z,./images/INLERHB.png,,,,,,,,,,,,,,,,,,,,,,,,,,,,,,,,,,,
,,,,,,,,,,,,,,,,,5f2599329c3df5250bb66565,29,2022-02-12_13h16.32.042,lexical_decision_task_DD_L6,2021.2.3,MacIntel,60.0024001,,,,,,,,,,,0.6953,1,,,,,,,,,,,,,,m,1,0.6953,,,,,,,,0.037830743,-0.432745972,0,0,0,,0,36,36,49,1,BISHOP,C,m,m,./images/BISHOP.png,,,,,,,,,,,,,,,,,,,,,,,,,,,,,,,,,,,
,,,,,,,,,,,,,,,,,5f2599329c3df5250bb66565,29,2022-02-12_13h16.32.042,lexical_decision_task_DD_L6,2021.2.3,MacIntel,60.0024001,,,,,,,,,,,0.6504,1,,,,,,,,,,,,,,m,1,0.6504,,,,,,,,0.037830743,-0.432745972,0,0,0,,0,37,37,57,1,FERRY,LB,m,m,./images/FERRYLB.png,,,,,,,,,,,,,,,,,,,,,,,,,,,,,,,,,,,
,,,,,,,,,,,,,,,,,5f2599329c3df5250bb66565,29,2022-02-12_13h16.32.042,lexical_decision_task_DD_L6,2021.2.3,MacIntel,60.0024001,,,,,,,,,,,0.6836,1,,,,,,,,,,,,,,m,1,0.6836,,,,,,,,0.037830743,-0.432745972,0,0,0,,0,38,38,21,1,DANCER,LB,m,m,./images/DANCERLB.png,,,,,,,,,,,,,,,,,,,,,,,,,,,,,,,,,,,
,,,,,,,,,,,,,,,,,5f2599329c3df5250bb66565,29,2022-02-12_13h16.32.042,lexical_decision_task_DD_L6,2021.2.3,MacIntel,60.0024001,,,,,,,,,,,1.0799,1,,,,,,,,,,,,,,z,1,1.0799,,,,,,,,0.037830743,-0.432745972,0,0,0,,0,39,39,153,1,CLUPS,C,z,z,./images/CLUPS.png,,,,,,,,,,,,,,,,,,,,,,,,,,,,,,,,,,,
,,,,,,,,,,,,,,,,,5f2599329c3df5250bb66565,29,2022-02-12_13h16.32.042,lexical_decision_task_DD_L6,2021.2.3,MacIntel,60.0024001,,,,,,,,,,,0.7486,1,,,,,,,,,,,,,,m,1,0.7486,,,,,,,,0.037830743,-0.432745972,0,0,0,,0,40,40,33,1,SAUNA,LB,m,m,./images/SAUNALB.png,,,,,,,,,,,,,,,,,,,,,,,,,,,,,,,,,,,
,,,,,,,,,,,,,,,,,5f2599329c3df5250bb66565,29,2022-02-12_13h16.32.042,lexical_decision_task_DD_L6,2021.2.3,MacIntel,60.0024001,,,,,,,,,,,0.8342,1,,,,,,,,,,,,,,m,1,0.8342,,,,,,,,0.037830743,-0.432745972,0,0,0,space,0,41,41,56,1,HEATER,HB,m,m,./images/HEATERHB.png,4.7239,,,,,,,,,,,,,,,,,,,,,,,,,,,,,,,,,,
,,,,,,,,,,,,,,,,,5f2599329c3df5250bb66565,29,2022-02-12_13h16.32.042,lexical_decision_task_DD_L6,2021.2.3,MacIntel,60.0024001,,,,,,,,,,,1.3632,1,,,,,,,,,,,,,,z,1,1.3632,,,,,,,,0.037830743,-0.432745972,0,0,0,,0,42,42,97,1,CHIDS,HB,z,z,./images/CHIDSHB.png,,,,,,,,,,,,,,,,,,,,,,,,,,,,,,,,,,,
,,,,,,,,,,,,,,,,,5f2599329c3df5250bb66565,29,2022-02-12_13h16.32.042,lexical_decision_task_DD_L6,2021.2.3,MacIntel,60.0024001,,,,,,,,,,,1.0492,1,,,,,,,,,,,,,,z,1,1.0492,,,,,,,,0.037830743,-0.432745972,0,0,0,,0,43,43,154,1,THINT,HB,z,z,./images/THINTHB.png,,,,,,,,,,,,,,,,,,,,,,,,,,,,,,,,,,,
,,,,,,,,,,,,,,,,,5f2599329c3df5250bb66565,29,2022-02-12_13h16.32.042,lexical_decision_task_DD_L6,2021.2.3,MacIntel,60.0024001,,,,,,,,,,,0.6662,1,,,,,,,,,,,,,,m,1,0.6662,,,,,,,,0.037830743,-0.432745972,0,0,0,,0,44,44,1,1,TOWEL,C,m,m,./images/TOWEL.png,,,,,,,,,,,,,,,,,,,,,,,,,,,,,,,,,,,
,,,,,,,,,,,,,,,,,5f2599329c3df5250bb66565,29,2022-02-12_13h16.32.042,lexical_decision_task_DD_L6,2021.2.3,MacIntel,60.0024001,,,,,,,,,,,0.5967,1,,,,,,,,,,,,,,m,1,0.5967,,,,,,,,0.037830743,-0.432745972,0,0,0,,0,45,45,67,1,POKER,C,m,m,./images/POKER.png,,,,,,,,,,,,,,,,,,,,,,,,,,,,,,,,,,,
,,,,,,,,,,,,,,,,,5f2599329c3df5250bb66565,29,2022-02-12_13h16.32.042,lexical_decision_task_DD_L6,2021.2.3,MacIntel,60.0024001,,,,,,,,,,,0.9462,1,,,,,,,,,,,,,,z,1,0.9462,,,,,,,,0.037830743,-0.432745972,0,0,0,,0,46,46,135,1,JOODY,C,z,z,./images/JOODY.png,,,,,,,,,,,,,,,,,,,,,,,,,,,,,,,,,,,
,,,,,,,,,,,,,,,,,5f2599329c3df5250bb66565,29,2022-02-12_13h16.32.042,lexical_decision_task_DD_L6,2021.2.3,MacIntel,60.0024001,,,,,,,,,,,1.1184,1,,,,,,,,,,,,,,z,1,1.1184,,,,,,,,0.037830743,-0.432745972,0,0,0,,0,47,47,103,1,FLORT,HB,z,z,./images/FLORTHB.png,,,,,,,,,,,,,,,,,,,,,,,,,,,,,,,,,,,
,,,,,,,,,,,,,,,,,5f2599329c3df5250bb66565,29,2022-02-12_13h16.32.042,lexical_decision_task_DD_L6,2021.2.3,MacIntel,60.0024001,,,,,,,,,,,0.8129,1,,,,,,,,,,,,,,m,1,0.8129,,,,,,,,0.037830743,-0.432745972,0,0,0,,0,48,48,20,1,GRANNY,HB,m,m,./images/GRANNYHB.png,,,,,,,,,,,,,,,,,,,,,,,,,,,,,,,,,,,
,,,,,,,,,,,,,,,,,5f2599329c3df5250bb66565,29,2022-02-12_13h16.32.042,lexical_decision_task_DD_L6,2021.2.3,MacIntel,60.0024001,,,,,,,,,,,0.5592,1,,,,,,,,,,,,,,m,1,0.5592,,,,,,,,0.037830743,-0.432745972,0,0,0,,0,49,49,10,1,GARDEN,C,m,m,./images/GARDEN.png,,,,,,,,,,,,,,,,,,,,,,,,,,,,,,,,,,,
,,,,,,,,,,,,,,,,,5f2599329c3df5250bb66565,29,2022-02-12_13h16.32.042,lexical_decision_task_DD_L6,2021.2.3,MacIntel,60.0024001,,,,,,,,,,,0.7303,1,,,,,,,,,,,,,,z,1,0.7303,,,,,,,,0.037830743,-0.432745972,0,0,0,,0,50,50,89,1,DRIEK,LB,z,z,./images/DRIEKLB.png,,,,,,,,,,,,,,,,,,,,,,,,,,,,,,,,,,,
,,,,,,,,,,,,,,,,,5f2599329c3df5250bb66565,29,2022-02-12_13h16.32.042,lexical_decision_task_DD_L6,2021.2.3,MacIntel,60.0024001,,,,,,,,,,,1.2112,1,,,,,,,,,,,,,,z,1,1.2112,,,,,,,,0.037830743,-0.432745972,0,0,0,,0,51,51,163,1,GAMBA,HB,z,z,./images/GAMBAHB.png,,,,,,,,,,,,,,,,,,,,,,,,,,,,,,,,,,,
,,,,,,,,,,,,,,,,,5f2599329c3df5250bb66565,29,2022-02-12_13h16.32.042,lexical_decision_task_DD_L6,2021.2.3,MacIntel,60.0024001,,,,,,,,,,,0.6115,1,,,,,,,,,,,,,,m,1,0.6115,,,,,,,,0.037830743,-0.432745972,0,0,0,,0,52,52,82,1,PEBBLE,C,m,m,./images/PEBBLE.png,,,,,,,,,,,,,,,,,,,,,,,,,,,,,,,,,,,
,,,,,,,,,,,,,,,,,5f2599329c3df5250bb66565,29,2022-02-12_13h16.32.042,lexical_decision_task_DD_L6,2021.2.3,MacIntel,60.0024001,,,,,,,,,,,0.5544,1,,,,,,,,,,,,,,m,1,0.5544,,,,,,,,0.037830743,-0.432745972,0,0,0,,0,53,53,28,1,CASINO,C,m,m,./images/CASINO.png,,,,,,,,,,,,,,,,,,,,,,,,,,,,,,,,,,,
,,,,,,,,,,,,,,,,,5f2599329c3df5250bb66565,29,2022-02-12_13h16.32.042,lexical_decision_task_DD_L6,2021.2.3,MacIntel,60.0024001,,,,,,,,,,,1.1668,1,,,,,,,,,,,,,,m,1,1.1668,,,,,,,,0.037830743,-0.432745972,0,0,0,,0,54,54,8,1,CLIFF,HB,m,m,./images/CLIFFHB.png,,,,,,,,,,,,,,,,,,,,,,,,,,,,,,,,,,,
,,,,,,,,,,,,,,,,,5f2599329c3df5250bb66565,29,2022-02-12_13h16.32.042,lexical_decision_task_DD_L6,2021.2.3,MacIntel,60.0024001,,,,,,,,,,,1.1391,1,,,,,,,,,,,,,,m,1,1.1391,,,,,,,,0.037830743,-0.432745972,0,0,0,,0,55,55,43,1,STOOL,C,m,m,./images/STOOL.png,,,,,,,,,,,,,,,,,,,,,,,,,,,,,,,,,,,
,,,,,,,,,,,,,,,,,5f2599329c3df5250bb66565,29,2022-02-12_13h16.32.042,lexical_decision_task_DD_L6,2021.2.3,MacIntel,60.0024001,,,,,,,,,,,0.7223,1,,,,,,,,,,,,,,z,1,0.7223,,,,,,,,0.037830743,-0.432745972,0,0,0,,0,56,56,114,1,RIKES,C,z,z,./images/RIKES.png,,,,,,,,,,,,,,,,,,,,,,,,,,,,,,,,,,,
,,,,,,,,,,,,,,,,,5f2599329c3df5250bb66565,29,2022-02-12_13h16.32.042,lexical_decision_task_DD_L6,2021.2.3,MacIntel,60.0024001,,,,,,,,,,,0.6105,1,,,,,,,,,,,,,,z,1,0.6105,,,,,,,,0.037830743,-0.432745972,0,0,0,,0,57,57,102,1,DULLE,C,z,z,./images/DULLE.png,,,,,,,,,,,,,,,,,,,,,,,,,,,,,,,,,,,
,,,,,,,,,,,,,,,,,5f2599329c3df5250bb66565,29,2022-02-12_13h16.32.042,lexical_decision_task_DD_L6,2021.2.3,MacIntel,60.0024001,,,,,,,,,,,1.4368,1,,,,,,,,,,,,,,z,1,1.4368,,,,,,,,0.037830743,-0.432745972,0,0,0,,0,58,58,94,1,BLANS,HB,z,z,./images/BLANSHB.png,,,,,,,,,,,,,,,,,,,,,,,,,,,,,,,,,,,
,,,,,,,,,,,,,,,,,5f2599329c3df5250bb66565,29,2022-02-12_13h16.32.042,lexical_decision_task_DD_L6,2021.2.3,MacIntel,60.0024001,,,,,,,,,,,1.5284,1,,,,,,,,,,,,,,z,1,1.5284,,,,,,,,0.037830743,-0.432745972,0,0,0,,0,59,59,88,1,GLUSH,HB,z,z,./images/GLUSHHB.png,,,,,,,,,,,,,,,,,,,,,,,,,,,,,,,,,,,
,,,,,,,,,,,,,,,,,5f2599329c3df5250bb66565,29,2022-02-12_13h16.32.042,lexical_decision_task_DD_L6,2021.2.3,MacIntel,60.0024001,,,,,,,,,,,0.7647,1,,,,,,,,,,,,,,z,1,0.7647,,,,,,,,0.037830743,-0.432745972,0,0,0,,0,60,60,167,1,ZONET,LB,z,z,./images/ZONETLB.png,,,,,,,,,,,,,,,,,,,,,,,,,,,,,,,,,,,
,,,,,,,,,,,,,,,,,5f2599329c3df5250bb66565,29,2022-02-12_13h16.32.042,lexical_decision_task_DD_L6,2021.2.3,MacIntel,60.0024001,,,,,,,,,,,0.6904,1,,,,,,,,,,,,,,m,1,0.6904,,,,,,,,0.037830743,-0.432745972,0,0,0,,0,61,61,70,1,BANANA,C,m,m,./images/BANANA.png,,,,,,,,,,,,,,,,,,,,,,,,,,,,,,,,,,,
,,,,,,,,,,,,,,,,,5f2599329c3df5250bb66565,29,2022-02-12_13h16.32.042,lexical_decision_task_DD_L6,2021.2.3,MacIntel,60.0024001,,,,,,,,,,,1.3904,1,,,,,,,,,,,,,,z,1,1.3904,,,,,,,,0.037830743,-0.432745972,0,0,0,,0,62,62,152,1,FRAIN,LB,z,z,./images/FRAINLB.png,,,,,,,,,,,,,,,,,,,,,,,,,,,,,,,,,,,
,,,,,,,,,,,,,,,,,5f2599329c3df5250bb66565,29,2022-02-12_13h16.32.042,lexical_decision_task_DD_L6,2021.2.3,MacIntel,60.0024001,,,,,,,,,,,0.7159,1,,,,,,,,,,,,,,m,1,0.7159,,,,,,,,0.037830743,-0.432745972,0,0,0,,0,63,63,55,1,ALLEY,C,m,m,./images/ALLEY.png,,,,,,,,,,,,,,,,,,,,,,,,,,,,,,,,,,,
,,,,,,,,,,,,,,,,,5f2599329c3df5250bb66565,29,2022-02-12_13h16.32.042,lexical_decision_task_DD_L6,2021.2.3,MacIntel,60.0024001,,,,,,,,,,,0.8446,1,,,,,,,,,,,,,,z,1,0.8446,,,,,,,,0.037830743,-0.432745972,0,0,0,,0,64,64,132,1,SCIFF,C,z,z,./images/SCIFF.png,,,,,,,,,,,,,,,,,,,,,,,,,,,,,,,,,,,
,,,,,,,,,,,,,,,,,5f2599329c3df5250bb66565,29,2022-02-12_13h16.32.042,lexical_decision_task_DD_L6,2021.2.3,MacIntel,60.0024001,,,,,,,,,,,0.7319,1,,,,,,,,,,,,,,m,1,0.7319,,,,,,,,0.037830743,-0.432745972,0,0,0,,0,65,65,22,1,CLOWN,C,m,m,./images/CLOWN.png,,,,,,,,,,,,,,,,,,,,,,,,,,,,,,,,,,,
,,,,,,,,,,,,,,,,,5f2599329c3df5250bb66565,29,2022-02-12_13h16.32.042,lexical_decision_task_DD_L6,2021.2.3,MacIntel,60.0024001,,,,,,,,,,,0.5679,1,,,,,,,,,,,,,,m,1,0.5679,,,,,,,,0.037830743,-0.432745972,0,0,0,,0,66,66,61,1,ARTIST,C,m,m,./images/ARTIST.png,,,,,,,,,,,,,,,,,,,,,,,,,,,,,,,,,,,
,,,,,,,,,,,,,,,,,5f2599329c3df5250bb66565,29,2022-02-12_13h16.32.042,lexical_decision_task_DD_L6,2021.2.3,MacIntel,60.0024001,,,,,,,,,,,0.6004,1,,,,,,,,,,,,,,m,1,0.6004,,,,,,,,0.037830743,-0.432745972,0,0,0,,0,67,67,36,1,BOILER,LB,m,m,./images/BOILERLB.png,,,,,,,,,,,,,,,,,,,,,,,,,,,,,,,,,,,
,,,,,,,,,,,,,,,,,5f2599329c3df5250bb66565,29,2022-02-12_13h16.32.042,lexical_decision_task_DD_L6,2021.2.3,MacIntel,60.0024001,,,,,,,,,,,0.5943,1,,,,,,,,,,,,,,z,1,0.5943,,,,,,,,0.037830743,-0.432745972,0,0,0,,0,68,68,150,1,NOOLS,C,z,z,./images/NOOLS.png,,,,,,,,,,,,,,,,,,,,,,,,,,,,,,,,,,,
,,,,,,,,,,,,,,,,,5f2599329c3df5250bb66565,29,2022-02-12_13h16.32.042,lexical_decision_task_DD_L6,2021.2.3,MacIntel,60.0024001,,,,,,,,,,,0.9154,1,,,,,,,,,,,,,,z,1,0.9154,,,,,,,,0.037830743,-0.432745972,0,0,0,,0,69,69,104,1,GITTY,LB,z,z,./images/GITTYLB.png,,,,,,,,,,,,,,,,,,,,,,,,,,,,,,,,,,,
,,,,,,,,,,,,,,,,,5f2599329c3df5250bb66565,29,2022-02-12_13h16.32.042,lexical_decision_task_DD_L6,2021.2.3,MacIntel,60.0024001,,,,,,,,,,,0.7979,1,,,,,,,,,,,,,,m,1,0.7979,,,,,,,,0.037830743,-0.432745972,0,0,0,,0,70,70,72,1,FLASK,LB,m,m,./images/FLASKLB.png,,,,,,,,,,,,,,,,,,,,,,,,,,,,,,,,,,,
,,,,,,,,,,,,,,,,,5f2599329c3df5250bb66565,29,2022-02-12_13h16.32.042,lexical_decision_task_DD_L6,2021.2.3,MacIntel,60.0024001,,,,,,,,,,,1.3937,0,,,,,,,,,,,,,,m,0,1.3937,,,,,,,,0.037830743,-0.432745972,0,0,0,,0,71,71,141,1,PLEET,C,z,z,./images/PLEET.png,,,,,,,,,,,,,,,,,,,,,,,,,,,,,,,,,,,
,,,,,,,,,,,,,,,,,5f2599329c3df5250bb66565,29,2022-02-12_13h16.32.042,lexical_decision_task_DD_L6,2021.2.3,MacIntel,60.0024001,,,,,,,,,,,0.9009,1,,,,,,,,,,,,,,m,1,0.9009,,,,,,,,0.037830743,-0.432745972,0,0,0,,0,72,72,38,1,ENGINE,HB,m,m,./images/ENGINEHB.png,,,,,,,,,,,,,,,,,,,,,,,,,,,,,,,,,,,
,,,,,,,,,,,,,,,,,5f2599329c3df5250bb66565,29,2022-02-12_13h16.32.042,lexical_decision_task_DD_L6,2021.2.3,MacIntel,60.0024001,,,,,,,,,,,0.7316,1,,,,,,,,,,,,,,m,1,0.7316,,,,,,,,0.037830743,-0.432745972,0,0,0,,0,73,73,40,1,SNAKE,C,m,m,./images/SNAKE.png,,,,,,,,,,,,,,,,,,,,,,,,,,,,,,,,,,,
,,,,,,,,,,,,,,,,,5f2599329c3df5250bb66565,29,2022-02-12_13h16.32.042,lexical_decision_task_DD_L6,2021.2.3,MacIntel,60.0024001,,,,,,,,,,,0.7025,1,,,,,,,,,,,,,,m,1,0.7025,,,,,,,,0.037830743,-0.432745972,0,0,0,,0,74,74,81,1,DRILL,LB,m,m,./images/DRILLLB.png,,,,,,,,,,,,,,,,,,,,,,,,,,,,,,,,,,,
,,,,,,,,,,,,,,,,,5f2599329c3df5250bb66565,29,2022-02-12_13h16.32.042,lexical_decision_task_DD_L6,2021.2.3,MacIntel,60.0024001,,,,,,,,,,,0.598,1,,,,,,,,,,,,,,m,1,0.598,,,,,,,,0.037830743,-0.432745972,0,0,0,,0,75,75,4,1,BOXER,C,m,m,./images/BOXER.png,,,,,,,,,,,,,,,,,,,,,,,,,,,,,,,,,,,
,,,,,,,,,,,,,,,,,5f2599329c3df5250bb66565,29,2022-02-12_13h16.32.042,lexical_decision_task_DD_L6,2021.2.3,MacIntel,60.0024001,,,,,,,,,,,0.5312,0,,,,,,,,,,,,,,m,0,0.5312,,,,,,,,0.037830743,-0.432745972,0,0,0,,0,76,76,128,1,GRIFT,LB,z,z,./images/GRIFTLB.png,,,,,,,,,,,,,,,,,,,,,,,,,,,,,,,,,,,
,,,,,,,,,,,,,,,,,5f2599329c3df5250bb66565,29,2022-02-12_13h16.32.042,lexical_decision_task_DD_L6,2021.2.3,MacIntel,60.0024001,,,,,,,,,,,1.5226,1,,,,,,,,,,,,,,z,1,1.5226,,,,,,,,0.037830743,-0.432745972,0,0,0,,0,77,77,162,1,LEICH,C,z,z,./images/LEICH.png,,,,,,,,,,,,,,,,,,,,,,,,,,,,,,,,,,,
,,,,,,,,,,,,,,,,,5f2599329c3df5250bb66565,29,2022-02-12_13h16.32.042,lexical_decision_task_DD_L6,2021.2.3,MacIntel,60.0024001,,,,,,,,,,,0.6016,1,,,,,,,,,,,,,,m,1,0.6016,,,,,,,,0.037830743,-0.432745972,0,0,0,,0,78,78,18,1,PARCEL,LB,m,m,./images/PARCELLB.png,,,,,,,,,,,,,,,,,,,,,,,,,,,,,,,,,,,
,,,,,,,,,,,,,,,,,5f2599329c3df5250bb66565,29,2022-02-12_13h16.32.042,lexical_decision_task_DD_L6,2021.2.3,MacIntel,60.0024001,,,,,,,,,,,0.9499,1,,,,,,,,,,,,,,z,1,0.9499,,,,,,,,0.037830743,-0.432745972,0,0,0,,0,79,79,161,1,BLAPS,LB,z,z,./images/BLAPSLB.png,,,,,,,,,,,,,,,,,,,,,,,,,,,,,,,,,,,
,,,,,,,,,,,,,,,,,5f2599329c3df5250bb66565,29,2022-02-12_13h16.32.042,lexical_decision_task_DD_L6,2021.2.3,MacIntel,60.0024001,,,,,,,,,,,0.735,1,,,,,,,,,,,,,,m,1,0.735,,,,,,,,0.037830743,-0.432745972,0,0,0,,0,80,80,80,1,PLANET,HB,m,m,./images/PLANETHB.png,,,,,,,,,,,,,,,,,,,,,,,,,,,,,,,,,,,
,,,,,,,,,,,,,,,,,5f2599329c3df5250bb66565,29,2022-02-12_13h16.32.042,lexical_decision_task_DD_L6,2021.2.3,MacIntel,60.0024001,,,,,,,,,,,1.2148,0,,,,,,,,,,,,,,z,0,1.2148,,,,,,,,0.037830743,-0.432745972,0,0,0,,0,81,81,24,1,FLESH,LB,m,m,./images/FLESHLB.png,,,,,,,,,,,,,,,,,,,,,,,,,,,,,,,,,,,
,,,,,,,,,,,,,,,,,5f2599329c3df5250bb66565,29,2022-02-12_13h16.32.042,lexical_decision_task_DD_L6,2021.2.3,MacIntel,60.0024001,,,,,,,,,,,1.0515,1,,,,,,,,,,,,,,m,1,1.0515,,,,,,,,0.037830743,-0.432745972,0,0,0,,0,82,82,62,1,MAMMAL,HB,m,m,./images/MAMMALHB.png,,,,,,,,,,,,,,,,,,,,,,,,,,,,,,,,,,,
,,,,,,,,,,,,,,,,,5f2599329c3df5250bb66565,29,2022-02-12_13h16.32.042,lexical_decision_task_DD_L6,2021.2.3,MacIntel,60.0024001,,,,,,,,,,,0.6642,1,,,,,,,,,,,,,,z,1,0.6642,,,,,,,,0.037830743,-0.432745972,0,0,0,space,0,83,83,108,1,GRUET,C,z,z,./images/GRUET.png,19.5894,,,,,,,,,,,,,,,,,,,,,,,,,,,,,,,,,,
,,,,,,,,,,,,,,,,,5f2599329c3df5250bb66565,29,2022-02-12_13h16.32.042,lexical_decision_task_DD_L6,2021.2.3,MacIntel,60.0024001,,,,,,,,,,,0.8802,1,,,,,,,,,,,,,,m,1,0.8802,,,,,,,,0.037830743,-0.432745972,0,0,0,,0,84,84,71,1,BUBBLE,HB,m,m,./images/BUBBLEHB.png,,,,,,,,,,,,,,,,,,,,,,,,,,,,,,,,,,,
,,,,,,,,,,,,,,,,,5f2599329c3df5250bb66565,29,2022-02-12_13h16.32.042,lexical_decision_task_DD_L6,2021.2.3,MacIntel,60.0024001,,,,,,,,,,,0.9635,1,,,,,,,,,,,,,,z,1,0.9635,,,,,,,,0.037830743,-0.432745972,0,0,0,,0,85,85,112,1,MYING,HB,z,z,./images/MYINGHB.png,,,,,,,,,,,,,,,,,,,,,,,,,,,,,,,,,,,
,,,,,,,,,,,,,,,,,5f2599329c3df5250bb66565,29,2022-02-12_13h16.32.042,lexical_decision_task_DD_L6,2021.2.3,MacIntel,60.0024001,,,,,,,,,,,0.6832,1,,,,,,,,,,,,,,m,1,0.6832,,,,,,,,0.037830743,-0.432745972,0,0,0,,0,86,86,75,1,HAMMER,LB,m,m,./images/HAMMERLB.png,,,,,,,,,,,,,,,,,,,,,,,,,,,,,,,,,,,
,,,,,,,,,,,,,,,,,5f2599329c3df5250bb66565,29,2022-02-12_13h16.32.042,lexical_decision_task_DD_L6,2021.2.3,MacIntel,60.0024001,,,,,,,,,,,0.8169,1,,,,,,,,,,,,,,z,1,0.8169,,,,,,,,0.037830743,-0.432745972,0,0,0,,0,87,87,129,1,PRANS,C,z,z,./images/PRANS.png,,,,,,,,,,,,,,,,,,,,,,,,,,,,,,,,,,,
,,,,,,,,,,,,,,,,,5f2599329c3df5250bb66565,29,2022-02-12_13h16.32.042,lexical_decision_task_DD_L6,2021.2.3,MacIntel,60.0024001,,,,,,,,,,,0.6785,1,,,,,,,,,,,,,,m,1,0.6785,,,,,,,,0.037830743,-0.432745972,0,0,0,,0,88,88,0,1,WALNUT,LB,m,m,./images/WALNUTLB.png,,,,,,,,,,,,,,,,,,,,,,,,,,,,,,,,,,,
,,,,,,,,,,,,,,,,,5f2599329c3df5250bb66565,29,2022-02-12_13h16.32.042,lexical_decision_task_DD_L6,2021.2.3,MacIntel,60.0024001,,,,,,,,,,,0.8453,1,,,,,,,,,,,,,,z,1,0.8453,,,,,,,,0.037830743,-0.432745972,0,0,0,,0,89,89,146,1,MOOST,LB,z,z,./images/MOOSTLB.png,,,,,,,,,,,,,,,,,,,,,,,,,,,,,,,,,,,
,,,,,,,,,,,,,,,,,5f2599329c3df5250bb66565,29,2022-02-12_13h16.32.042,lexical_decision_task_DD_L6,2021.2.3,MacIntel,60.0024001,,,,,,,,,,,0.5657,1,,,,,,,,,,,,,,m,1,0.5657,,,,,,,,0.037830743,-0.432745972,0,0,0,,0,90,90,13,1,BUNNY,C,m,m,./images/BUNNY.png,,,,,,,,,,,,,,,,,,,,,,,,,,,,,,,,,,,
,,,,,,,,,,,,,,,,,5f2599329c3df5250bb66565,29,2022-02-12_13h16.32.042,lexical_decision_task_DD_L6,2021.2.3,MacIntel,60.0024001,,,,,,,,,,,1.1179,1,,,,,,,,,,,,,,z,1,1.1179,,,,,,,,0.037830743,-0.432745972,0,0,0,,0,91,91,151,1,TINKY,HB,z,z,./images/TINKYHB.png,,,,,,,,,,,,,,,,,,,,,,,,,,,,,,,,,,,
,,,,,,,,,,,,,,,,,5f2599329c3df5250bb66565,29,2022-02-12_13h16.32.042,lexical_decision_task_DD_L6,2021.2.3,MacIntel,60.0024001,,,,,,,,,,,0.5448,1,,,,,,,,,,,,,,m,1,0.5448,,,,,,,,0.037830743,-0.432745972,0,0,0,,0,92,92,78,1,BROOM,LB,m,m,./images/BROOMLB.png,,,,,,,,,,,,,,,,,,,,,,,,,,,,,,,,,,,
,,,,,,,,,,,,,,,,,5f2599329c3df5250bb66565,29,2022-02-12_13h16.32.042,lexical_decision_task_DD_L6,2021.2.3,MacIntel,60.0024001,,,,,,,,,,,0.5565,1,,,,,,,,,,,,,,m,1,0.5565,,,,,,,,0.037830743,-0.432745972,0,0,0,,0,93,93,37,1,TIGER,C,m,m,./images/TIGER.png,,,,,,,,,,,,,,,,,,,,,,,,,,,,,,,,,,,
,,,,,,,,,,,,,,,,,5f2599329c3df5250bb66565,29,2022-02-12_13h16.32.042,lexical_decision_task_DD_L6,2021.2.3,MacIntel,60.0024001,,,,,,,,,,,0.8614,1,,,,,,,,,,,,,,z,1,0.8614,,,,,,,,0.037830743,-0.432745972,0,0,0,,0,94,94,159,1,CUDDY,C,z,z,./images/CUDDY.png,,,,,,,,,,,,,,,,,,,,,,,,,,,,,,,,,,,
,,,,,,,,,,,,,,,,,5f2599329c3df5250bb66565,29,2022-02-12_13h16.32.042,lexical_decision_task_DD_L6,2021.2.3,MacIntel,60.0024001,,,,,,,,,,,0.9455,1,,,,,,,,,,,,,,z,1,0.9455,,,,,,,,0.037830743,-0.432745972,0,0,0,,0,95,95,139,1,BLEAR,HB,z,z,./images/BLEARHB.png,,,,,,,,,,,,,,,,,,,,,,,,,,,,,,,,,,,
,,,,,,,,,,,,,,,,,5f2599329c3df5250bb66565,29,2022-02-12_13h16.32.042,lexical_decision_task_DD_L6,2021.2.3,MacIntel,60.0024001,,,,,,,,,,,0.5791,1,,,,,,,,,,,,,,m,1,0.5791,,,,,,,,0.037830743,-0.432745972,0,0,0,,0,96,96,51,1,SAUCE,LB,m,m,./images/SAUCELB.png,,,,,,,,,,,,,,,,,,,,,,,,,,,,,,,,,,,
,,,,,,,,,,,,,,,,,5f2599329c3df5250bb66565,29,2022-02-12_13h16.32.042,lexical_decision_task_DD_L6,2021.2.3,MacIntel,60.0024001,,,,,,,,,,,1.2435,1,,,,,,,,,,,,,,m,1,1.2435,,,,,,,,0.037830743,-0.432745972,0,0,0,,0,97,97,44,1,BASKET,HB,m,m,./images/BASKETHB.png,,,,,,,,,,,,,,,,,,,,,,,,,,,,,,,,,,,
,,,,,,,,,,,,,,,,,5f2599329c3df5250bb66565,29,2022-02-12_13h16.32.042,lexical_decision_task_DD_L6,2021.2.3,MacIntel,60.0024001,,,,,,,,,,,0.8625,1,,,,,,,,,,,,,,z,1,0.8625,,,,,,,,0.037830743,-0.432745972,0,0,0,,0,98,98,95,1,HANTY,LB,z,z,./images/HANTYLB.png,,,,,,,,,,,,,,,,,,,,,,,,,,,,,,,,,,,
,,,,,,,,,,,,,,,,,5f2599329c3df5250bb66565,29,2022-02-12_13h16.32.042,lexical_decision_task_DD_L6,2021.2.3,MacIntel,60.0024001,,,,,,,,,,,0.7151,1,,,,,,,,,,,,,,z,1,0.7151,,,,,,,,0.037830743,-0.432745972,0,0,0,,0,99,99,138,1,PLICE,C,z,z,./images/PLICE.png,,,,,,,,,,,,,,,,,,,,,,,,,,,,,,,,,,,
,,,,,,,,,,,,,,,,,5f2599329c3df5250bb66565,29,2022-02-12_13h16.32.042,lexical_decision_task_DD_L6,2021.2.3,MacIntel,60.0024001,,,,,,,,,,,0.8708,1,,,,,,,,,,,,,,z,1,0.8708,,,,,,,,0.037830743,-0.432745972,0,0,0,,0,100,100,160,1,VEETS,HB,z,z,./images/VEETSHB.png,,,,,,,,,,,,,,,,,,,,,,,,,,,,,,,,,,,
,,,,,,,,,,,,,,,,,5f2599329c3df5250bb66565,29,2022-02-12_13h16.32.042,lexical_decision_task_DD_L6,2021.2.3,MacIntel,60.0024001,,,,,,,,,,,0.6547,1,,,,,,,,,,,,,,m,1,0.6547,,,,,,,,0.037830743,-0.432745972,0,0,0,,0,101,101,16,1,GRAPE,C,m,m,./images/GRAPE.png,,,,,,,,,,,,,,,,,,,,,,,,,,,,,,,,,,,
,,,,,,,,,,,,,,,,,5f2599329c3df5250bb66565,29,2022-02-12_13h16.32.042,lexical_decision_task_DD_L6,2021.2.3,MacIntel,60.0024001,,,,,,,,,,,1.1176,1,,,,,,,,,,,,,,z,1,1.1176,,,,,,,,0.037830743,-0.432745972,0,0,0,,0,102,102,118,1,BAVEL,HB,z,z,./images/BAVELHB.png,,,,,,,,,,,,,,,,,,,,,,,,,,,,,,,,,,,
,,,,,,,,,,,,,,,,,5f2599329c3df5250bb66565,29,2022-02-12_13h16.32.042,lexical_decision_task_DD_L6,2021.2.3,MacIntel,60.0024001,,,,,,,,,,,1.2634,1,,,,,,,,,,,,,,z,1,1.2634,,,,,,,,0.037830743,-0.432745972,0,0,0,,0,103,103,93,1,SMONE,C,z,z,./images/SMONE.png,,,,,,,,,,,,,,,,,,,,,,,,,,,,,,,,,,,
,,,,,,,,,,,,,,,,,5f2599329c3df5250bb66565,29,2022-02-12_13h16.32.042,lexical_decision_task_DD_L6,2021.2.3,MacIntel,60.0024001,,,,,,,,,,,0.8254,1,,,,,,,,,,,,,,z,1,0.8254,,,,,,,,0.037830743,-0.432745972,0,0,0,,0,104,104,145,1,LAMEL,HB,z,z,./images/LAMELHB.png,,,,,,,,,,,,,,,,,,,,,,,,,,,,,,,,,,,
,,,,,,,,,,,,,,,,,5f2599329c3df5250bb66565,29,2022-02-12_13h16.32.042,lexical_decision_task_DD_L6,2021.2.3,MacIntel,60.0024001,,,,,,,,,,,0.8445,1,,,,,,,,,,,,,,m,1,0.8445,,,,,,,,0.037830743,-0.432745972,0,0,0,,0,105,105,5,1,BAMBOO,HB,m,m,./images/BAMBOOHB.png,,,,,,,,,,,,,,,,,,,,,,,,,,,,,,,,,,,
,,,,,,,,,,,,,,,,,5f2599329c3df5250bb66565,29,2022-02-12_13h16.32.042,lexical_decision_task_DD_L6,2021.2.3,MacIntel,60.0024001,,,,,,,,,,,1.2024,1,,,,,,,,,,,,,,m,1,1.2024,,,,,,,,0.037830743,-0.432745972,0,0,0,,0,106,106,11,1,MEDAL,HB,m,m,./images/MEDALHB.png,,,,,,,,,,,,,,,,,,,,,,,,,,,,,,,,,,,
,,,,,,,,,,,,,,,,,5f2599329c3df5250bb66565,29,2022-02-12_13h16.32.042,lexical_decision_task_DD_L6,2021.2.3,MacIntel,60.0024001,,,,,,,,,,,0.6577,1,,,,,,,,,,,,,,m,1,0.6577,,,,,,,,0.037830743,-0.432745972,0,0,0,,0,107,107,58,1,CANOE,C,m,m,./images/CANOE.png,,,,,,,,,,,,,,,,,,,,,,,,,,,,,,,,,,,
,,,,,,,,,,,,,,,,,5f2599329c3df5250bb66565,29,2022-02-12_13h16.32.042,lexical_decision_task_DD_L6,2021.2.3,MacIntel,60.0024001,,,,,,,,,,,1.1272,1,,,,,,,,,,,,,,m,1,1.1272,,,,,,,,0.037830743,-0.432745972,0,0,0,,0,108,108,35,1,LLAMA,HB,m,m,./images/LLAMAHB.png,,,,,,,,,,,,,,,,,,,,,,,,,,,,,,,,,,,
,,,,,,,,,,,,,,,,,5f2599329c3df5250bb66565,29,2022-02-12_13h16.32.042,lexical_decision_task_DD_L6,2021.2.3,MacIntel,60.0024001,,,,,,,,,,,0.7295,1,,,,,,,,,,,,,,z,1,0.7295,,,,,,,,0.037830743,-0.432745972,0,0,0,,0,109,109,125,1,MOOKY,LB,z,z,./images/MOOKYLB.png,,,,,,,,,,,,,,,,,,,,,,,,,,,,,,,,,,,
,,,,,,,,,,,,,,,,,5f2599329c3df5250bb66565,29,2022-02-12_13h16.32.042,lexical_decision_task_DD_L6,2021.2.3,MacIntel,60.0024001,,,,,,,,,,,0.7,1,,,,,,,,,,,,,,z,1,0.7,,,,,,,,0.037830743,-0.432745972,0,0,0,,0,110,110,155,1,CANGY,LB,z,z,./images/CANGYLB.png,,,,,,,,,,,,,,,,,,,,,,,,,,,,,,,,,,,
,,,,,,,,,,,,,,,,,5f2599329c3df5250bb66565,29,2022-02-12_13h16.32.042,lexical_decision_task_DD_L6,2021.2.3,MacIntel,60.0024001,,,,,,,,,,,0.6605,1,,,,,,,,,,,,,,z,1,0.6605,,,,,,,,0.037830743,-0.432745972,0,0,0,,0,111,111,96,1,KEAMS,C,z,z,./images/KEAMS.png,,,,,,,,,,,,,,,,,,,,,,,,,,,,,,,,,,,
,,,,,,,,,,,,,,,,,5f2599329c3df5250bb66565,29,2022-02-12_13h16.32.042,lexical_decision_task_DD_L6,2021.2.3,MacIntel,60.0024001,,,,,,,,,,,0.6663,1,,,,,,,,,,,,,,z,1,0.6663,,,,,,,,0.037830743,-0.432745972,0,0,0,,0,112,112,147,1,ZOLES,C,z,z,./images/ZOLES.png,,,,,,,,,,,,,,,,,,,,,,,,,,,,,,,,,,,
,,,,,,,,,,,,,,,,,5f2599329c3df5250bb66565,29,2022-02-12_13h16.32.042,lexical_decision_task_DD_L6,2021.2.3,MacIntel,60.0024001,,,,,,,,,,,0.6323,1,,,,,,,,,,,,,,m,1,0.6323,,,,,,,,0.037830743,-0.432745972,0,0,0,,0,113,113,15,1,COLLAR,LB,m,m,./images/COLLARLB.png,,,,,,,,,,,,,,,,,,,,,,,,,,,,,,,,,,,
,,,,,,,,,,,,,,,,,5f2599329c3df5250bb66565,29,2022-02-12_13h16.32.042,lexical_decision_task_DD_L6,2021.2.3,MacIntel,60.0024001,,,,,,,,,,,0.7272,1,,,,,,,,,,,,,,z,1,0.7272,,,,,,,,0.037830743,-0.432745972,0,0,0,,0,114,114,84,1,HAXES,C,z,z,./images/HAXES.png,,,,,,,,,,,,,,,,,,,,,,,,,,,,,,,,,,,
,,,,,,,,,,,,,,,,,5f2599329c3df5250bb66565,29,2022-02-12_13h16.32.042,lexical_decision_task_DD_L6,2021.2.3,MacIntel,60.0024001,,,,,,,,,,,0.9934,1,,,,,,,,,,,,,,m,1,0.9934,,,,,,,,0.037830743,-0.432745972,0,0,0,,0,115,115,3,1,CRATER,LB,m,m,./images/CRATERLB.png,,,,,,,,,,,,,,,,,,,,,,,,,,,,,,,,,,,
,,,,,,,,,,,,,,,,,5f2599329c3df5250bb66565,29,2022-02-12_13h16.32.042,lexical_decision_task_DD_L6,2021.2.3,MacIntel,60.0024001,,,,,,,,,,,0.7068,1,,,,,,,,,,,,,,m,1,0.7068,,,,,,,,0.037830743,-0.432745972,0,0,0,,0,116,116,7,1,WAGON,C,m,m,./images/WAGON.png,,,,,,,,,,,,,,,,,,,,,,,,,,,,,,,,,,,
,,,,,,,,,,,,,,,,,5f2599329c3df5250bb66565,29,2022-02-12_13h16.32.042,lexical_decision_task_DD_L6,2021.2.3,MacIntel,60.0024001,,,,,,,,,,,0.6152,1,,,,,,,,,,,,,,m,1,0.6152,,,,,,,,0.037830743,-0.432745972,0,0,0,,0,117,117,34,1,RAZOR,C,m,m,./images/RAZOR.png,,,,,,,,,,,,,,,,,,,,,,,,,,,,,,,,,,,
,,,,,,,,,,,,,,,,,5f2599329c3df5250bb66565,29,2022-02-12_13h16.32.042,lexical_decision_task_DD_L6,2021.2.3,MacIntel,60.0024001,,,,,,,,,,,0.5458,1,,,,,,,,,,,,,,m,1,0.5458,,,,,,,,0.037830743,-0.432745972,0,0,0,,0,118,118,54,1,CHERRY,LB,m,m,./images/CHERRYLB.png,,,,,,,,,,,,,,,,,,,,,,,,,,,,,,,,,,,
,,,,,,,,,,,,,,,,,5f2599329c3df5250bb66565,29,2022-02-12_13h16.32.042,lexical_decision_task_DD_L6,2021.2.3,MacIntel,60.0024001,,,,,,,,,,,0.85,1,,,,,,,,,,,,,,z,1,0.85,,,,,,,,0.037830743,-0.432745972,0,0,0,,0,119,119,123,1,SEDGE,C,z,z,./images/SEDGE.png,,,,,,,,,,,,,,,,,,,,,,,,,,,,,,,,,,,
,,,,,,,,,,,,,,,,,5f2599329c3df5250bb66565,29,2022-02-12_13h16.32.042,lexical_decision_task_DD_L6,2021.2.3,MacIntel,60.0024001,,,,,,,,,,,0.6079,1,,,,,,,,,,,,,,m,1,0.6079,,,,,,,,0.037830743,-0.432745972,0,0,0,,0,120,120,73,1,GLOVE,C,m,m,./images/GLOVE.png,,,,,,,,,,,,,,,,,,,,,,,,,,,,,,,,,,,
,,,,,,,,,,,,,,,,,5f2599329c3df5250bb66565,29,2022-02-12_13h16.32.042,lexical_decision_task_DD_L6,2021.2.3,MacIntel,60.0024001,,,,,,,,,,,0.6175,1,,,,,,,,,,,,,,m,1,0.6175,,,,,,,,0.037830743,-0.432745972,0,0,0,,0,121,121,48,1,SHIELD,LB,m,m,./images/SHIELDLB.png,,,,,,,,,,,,,,,,,,,,,,,,,,,,,,,,,,,
,,,,,,,,,,,,,,,,,5f2599329c3df5250bb66565,29,2022-02-12_13h16.32.042,lexical_decision_task_DD_L6,2021.2.3,MacIntel,60.0024001,,,,,,,,,,,1.0442,1,,,,,,,,,,,,,,z,1,1.0442,,,,,,,,0.037830743,-0.432745972,0,0,0,,0,122,122,164,1,SGREW,LB,z,z,./images/SGREWLB.png,,,,,,,,,,,,,,,,,,,,,,,,,,,,,,,,,,,
,,,,,,,,,,,,,,,,,5f2599329c3df5250bb66565,29,2022-02-12_13h16.32.042,lexical_decision_task_DD_L6,2021.2.3,MacIntel,60.0024001,,,,,,,,,,,0.7246,1,,,,,,,,,,,,,,z,1,0.7246,,,,,,,,0.037830743,-0.432745972,0,0,0,,0,123,123,156,1,HIXES,C,z,z,./images/HIXES.png,,,,,,,,,,,,,,,,,,,,,,,,,,,,,,,,,,,
,,,,,,,,,,,,,,,,,5f2599329c3df5250bb66565,29,2022-02-12_13h16.32.042,lexical_decision_task_DD_L6,2021.2.3,MacIntel,60.0024001,,,,,,,,,,,0.7097,1,,,,,,,,,,,,,,z,1,0.7097,,,,,,,,0.037830743,-0.432745972,0,0,0,,0,124,124,92,1,PAIMS,LB,z,z,./images/PAIMSLB.png,,,,,,,,,,,,,,,,,,,,,,,,,,,,,,,,,,,
,,,,,,,,,,,,,,,,,5f2599329c3df5250bb66565,29,2022-02-12_13h16.32.042,lexical_decision_task_DD_L6,2021.2.3,MacIntel,60.0024001,,,,,,,,,,,0.6612,1,,,,,,,,,,,,,,m,1,0.6612,,,,,,,,0.037830743,-0.432745972,0,0,0,space,0,125,125,79,1,RULER,C,m,m,./images/RULER.png,9.2443,,,,,,,,,,,,,,,,,,,,,,,,,,,,,,,,,,
,,,,,,,,,,,,,,,,,5f2599329c3df5250bb66565,29,2022-02-12_13h16.32.042,lexical_decision_task_DD_L6,2021.2.3,MacIntel,60.0024001,,,,,,,,,,,0.8946,1,,,,,,,,,,,,,,z,1,0.8946,,,,,,,,0.037830743,-0.432745972,0,0,0,,0,126,126,134,1,TROSS,LB,z,z,./images/TROSSLB.png,,,,,,,,,,,,,,,,,,,,,,,,,,,,,,,,,,,
,,,,,,,,,,,,,,,,,5f2599329c3df5250bb66565,29,2022-02-12_13h16.32.042,lexical_decision_task_DD_L6,2021.2.3,MacIntel,60.0024001,,,,,,,,,,,1.043,1,,,,,,,,,,,,,,z,1,1.043,,,,,,,,0.037830743,-0.432745972,0,0,0,,0,127,127,148,1,JOMS,HB,z,z,./images/JOMSHB.png,,,,,,,,,,,,,,,,,,,,,,,,,,,,,,,,,,,
,,,,,,,,,,,,,,,,,5f2599329c3df5250bb66565,29,2022-02-12_13h16.32.042,lexical_decision_task_DD_L6,2021.2.3,MacIntel,60.0024001,,,,,,,,,,,1.7456,1,,,,,,,,,,,,,,m,1,1.7456,,,,,,,,0.037830743,-0.432745972,0,0,0,,0,128,128,53,1,POSTER,HB,m,m,./images/POSTERHB.png,,,,,,,,,,,,,,,,,,,,,,,,,,,,,,,,,,,
,,,,,,,,,,,,,,,,,5f2599329c3df5250bb66565,29,2022-02-12_13h16.32.042,lexical_decision_task_DD_L6,2021.2.3,MacIntel,60.0024001,,,,,,,,,,,0.6219,1,,,,,,,,,,,,,,m,1,0.6219,,,,,,,,0.037830743,-0.432745972,0,0,0,,0,129,129,25,1,CHALK,C,m,m,./images/CHALK.png,,,,,,,,,,,,,,,,,,,,,,,,,,,,,,,,,,,
,,,,,,,,,,,,,,,,,5f2599329c3df5250bb66565,29,2022-02-12_13h16.32.042,lexical_decision_task_DD_L6,2021.2.3,MacIntel,60.0024001,,,,,,,,,,,0.7493,1,,,,,,,,,,,,,,m,1,0.7493,,,,,,,,0.037830743,-0.432745972,0,0,0,,0,130,130,41,1,STREAM,HB,m,m,./images/STREAMHB.png,,,,,,,,,,,,,,,,,,,,,,,,,,,,,,,,,,,
,,,,,,,,,,,,,,,,,5f2599329c3df5250bb66565,29,2022-02-12_13h16.32.042,lexical_decision_task_DD_L6,2021.2.3,MacIntel,60.0024001,,,,,,,,,,,0.5305,1,,,,,,,,,,,,,,m,1,0.5305,,,,,,,,0.037830743,-0.432745972,0,0,0,,0,131,131,63,1,BAKER,LB,m,m,./images/BAKERLB.png,,,,,,,,,,,,,,,,,,,,,,,,,,,,,,,,,,,
,,,,,,,,,,,,,,,,,5f2599329c3df5250bb66565,29,2022-02-12_13h16.32.042,lexical_decision_task_DD_L6,2021.2.3,MacIntel,60.0024001,,,,,,,,,,,0.7127,1,,,,,,,,,,,,,,m,1,0.7127,,,,,,,,0.037830743,-0.432745972,0,0,0,,0,132,132,17,1,PARADE,HB,m,m,./images/PARADEHB.png,,,,,,,,,,,,,,,,,,,,,,,,,,,,,,,,,,,
,,,,,,,,,,,,,,,,,5f2599329c3df5250bb66565,29,2022-02-12_13h16.32.042,lexical_decision_task_DD_L6,2021.2.3,MacIntel,60.0024001,,,,,,,,,,,1.251,1,,,,,,,,,,,,,,z,1,1.251,,,,,,,,0.037830743,-0.432745972,0,0,0,,0,133,133,133,1,POWDY,HB,z,z,./images/POWDYHB.png,,,,,,,,,,,,,,,,,,,,,,,,,,,,,,,,,,,
,,,,,,,,,,,,,,,,,5f2599329c3df5250bb66565,29,2022-02-12_13h16.32.042,lexical_decision_task_DD_L6,2021.2.3,MacIntel,60.0024001,,,,,,,,,,,0.7767,1,,,,,,,,,,,,,,m,1,0.7767,,,,,,,,0.037830743,-0.432745972,0,0,0,,0,134,134,52,1,DESERT,C,m,m,./images/DESERT.png,,,,,,,,,,,,,,,,,,,,,,,,,,,,,,,,,,,
,,,,,,,,,,,,,,,,,5f2599329c3df5250bb66565,29,2022-02-12_13h16.32.042,lexical_decision_task_DD_L6,2021.2.3,MacIntel,60.0024001,,,,,,,,,,,0.6444,1,,,,,,,,,,,,,,z,1,0.6444,,,,,,,,0.037830743,-0.432745972,0,0,0,,0,135,135,99,1,BACKY,C,z,z,./images/BACKY.png,,,,,,,,,,,,,,,,,,,,,,,,,,,,,,,,,,,
,,,,,,,,,,,,,,,,,5f2599329c3df5250bb66565,29,2022-02-12_13h16.32.042,lexical_decision_task_DD_L6,2021.2.3,MacIntel,60.0024001,,,,,,,,,,,0.8142,1,,,,,,,,,,,,,,m,1,0.8142,,,,,,,,0.037830743,-0.432745972,0,0,0,,0,136,136,47,1,LAGOON,HB,m,m,./images/LAGOONHB.png,,,,,,,,,,,,,,,,,,,,,,,,,,,,,,,,,,,
,,,,,,,,,,,,,,,,,5f2599329c3df5250bb66565,29,2022-02-12_13h16.32.042,lexical_decision_task_DD_L6,2021.2.3,MacIntel,60.0024001,,,,,,,,,,,0.9802,1,,,,,,,,,,,,,,z,1,0.9802,,,,,,,,0.037830743,-0.432745972,0,0,0,,0,137,137,107,1,FASKS,LB,z,z,./images/FASKSLB.png,,,,,,,,,,,,,,,,,,,,,,,,,,,,,,,,,,,
,,,,,,,,,,,,,,,,,5f2599329c3df5250bb66565,29,2022-02-12_13h16.32.042,lexical_decision_task_DD_L6,2021.2.3,MacIntel,60.0024001,,,,,,,,,,,1.0138,1,,,,,,,,,,,,,,z,1,1.0138,,,,,,,,0.037830743,-0.432745972,0,0,0,,0,138,138,87,1,TRING,C,z,z,./images/TRING.png,,,,,,,,,,,,,,,,,,,,,,,,,,,,,,,,,,,
,,,,,,,,,,,,,,,,,5f2599329c3df5250bb66565,29,2022-02-12_13h16.32.042,lexical_decision_task_DD_L6,2021.2.3,MacIntel,60.0024001,,,,,,,,,,,0.6265,1,,,,,,,,,,,,,,m,1,0.6265,,,,,,,,0.037830743,-0.432745972,0,0,0,,0,139,139,42,1,CHAIN,LB,m,m,./images/CHAINLB.png,,,,,,,,,,,,,,,,,,,,,,,,,,,,,,,,,,,
,,,,,,,,,,,,,,,,,5f2599329c3df5250bb66565,29,2022-02-12_13h16.32.042,lexical_decision_task_DD_L6,2021.2.3,MacIntel,60.0024001,,,,,,,,,,,0.9435,1,,,,,,,,,,,,,,m,1,0.9435,,,,,,,,0.037830743,-0.432745972,0,0,0,,0,140,140,59,1,BRUSH,HB,m,m,./images/BRUSHHB.png,,,,,,,,,,,,,,,,,,,,,,,,,,,,,,,,,,,
,,,,,,,,,,,,,,,,,5f2599329c3df5250bb66565,29,2022-02-12_13h16.32.042,lexical_decision_task_DD_L6,2021.2.3,MacIntel,60.0024001,,,,,,,,,,,0.7161,1,,,,,,,,,,,,,,z,1,0.7161,,,,,,,,0.037830743,-0.432745972,0,0,0,,0,141,141,113,1,LINEW,LB,z,z,./images/LINEWLB.png,,,,,,,,,,,,,,,,,,,,,,,,,,,,,,,,,,,
,,,,,,,,,,,,,,,,,5f2599329c3df5250bb66565,29,2022-02-12_13h16.32.042,lexical_decision_task_DD_L6,2021.2.3,MacIntel,60.0024001,,,,,,,,,,,0.6449,1,,,,,,,,,,,,,,m,1,0.6449,,,,,,,,0.037830743,-0.432745972,0,0,0,,0,142,142,23,1,CLOTH,HB,m,m,./images/CLOTHHB.png,,,,,,,,,,,,,,,,,,,,,,,,,,,,,,,,,,,
,,,,,,,,,,,,,,,,,5f2599329c3df5250bb66565,29,2022-02-12_13h16.32.042,lexical_decision_task_DD_L6,2021.2.3,MacIntel,60.0024001,,,,,,,,,,,0.6904,1,,,,,,,,,,,,,,m,1,0.6904,,,,,,,,0.037830743,-0.432745972,0,0,0,,0,143,143,29,1,PISTOL,HB,m,m,./images/PISTOLHB.png,,,,,,,,,,,,,,,,,,,,,,,,,,,,,,,,,,,
,,,,,,,,,,,,,,,,,5f2599329c3df5250bb66565,29,2022-02-12_13h16.32.042,lexical_decision_task_DD_L6,2021.2.3,MacIntel,60.0024001,,,,,,,,,,,0.8091,0,,,,,,,,,,,,,,m,0,0.8091,,,,,,,,0.037830743,-0.432745972,0,0,0,,0,144,144,100,1,DRIBS,HB,z,z,./images/DRIBSHB.png,,,,,,,,,,,,,,,,,,,,,,,,,,,,,,,,,,,
,,,,,,,,,,,,,,,,,5f2599329c3df5250bb66565,29,2022-02-12_13h16.32.042,lexical_decision_task_DD_L6,2021.2.3,MacIntel,60.0024001,,,,,,,,,,,0.5942,1,,,,,,,,,,,,,,m,1,0.5942,,,,,,,,0.037830743,-0.432745972,0,0,0,,0,145,145,27,1,BUTTER,LB,m,m,./images/BUTTERLB.png,,,,,,,,,,,,,,,,,,,,,,,,,,,,,,,,,,,
,,,,,,,,,,,,,,,,,5f2599329c3df5250bb66565,29,2022-02-12_13h16.32.042,lexical_decision_task_DD_L6,2021.2.3,MacIntel,60.0024001,,,,,,,,,,,0.7312,1,,,,,,,,,,,,,,z,1,0.7312,,,,,,,,0.037830743,-0.432745972,0,0,0,,0,146,146,158,1,EGECT,LB,z,z,./images/EGECTLB.png,,,,,,,,,,,,,,,,,,,,,,,,,,,,,,,,,,,
,,,,,,,,,,,,,,,,,5f2599329c3df5250bb66565,29,2022-02-12_13h16.32.042,lexical_decision_task_DD_L6,2021.2.3,MacIntel,60.0024001,,,,,,,,,,,0.6582,1,,,,,,,,,,,,,,m,1,0.6582,,,,,,,,0.037830743,-0.432745972,0,0,0,,0,147,147,65,1,SPINE,HB,m,m,./images/SPINEHB.png,,,,,,,,,,,,,,,,,,,,,,,,,,,,,,,,,,,
,,,,,,,,,,,,,,,,,5f2599329c3df5250bb66565,29,2022-02-12_13h16.32.042,lexical_decision_task_DD_L6,2021.2.3,MacIntel,60.0024001,,,,,,,,,,,0.5778,1,,,,,,,,,,,,,,m,1,0.5778,,,,,,,,0.037830743,-0.432745972,0,0,0,,0,148,148,45,1,MONKEY,LB,m,m,./images/MONKEYLB.png,,,,,,,,,,,,,,,,,,,,,,,,,,,,,,,,,,,
,,,,,,,,,,,,,,,,,5f2599329c3df5250bb66565,29,2022-02-12_13h16.32.042,lexical_decision_task_DD_L6,2021.2.3,MacIntel,60.0024001,,,,,,,,,,,0.624,1,,,,,,,,,,,,,,m,1,0.624,,,,,,,,0.037830743,-0.432745972,0,0,0,,0,149,149,46,1,MUMMY,C,m,m,./images/MUMMY.png,,,,,,,,,,,,,,,,,,,,,,,,,,,,,,,,,,,
,,,,,,,,,,,,,,,,,5f2599329c3df5250bb66565,29,2022-02-12_13h16.32.042,lexical_decision_task_DD_L6,2021.2.3,MacIntel,60.0024001,,,,,,,,,,,1.1269,1,,,,,,,,,,,,,,m,1,1.1269,,,,,,,,0.037830743,-0.432745972,0,0,0,,0,150,150,32,1,HOCKEY,HB,m,m,./images/HOCKEYHB.png,,,,,,,,,,,,,,,,,,,,,,,,,,,,,,,,,,,
,,,,,,,,,,,,,,,,,5f2599329c3df5250bb66565,29,2022-02-12_13h16.32.042,lexical_decision_task_DD_L6,2021.2.3,MacIntel,60.0024001,,,,,,,,,,,0.5259,1,,,,,,,,,,,,,,m,1,0.5259,,,,,,,,0.037830743,-0.432745972,0,0,0,,0,151,151,39,1,CANDY,LB,m,m,./images/CANDYLB.png,,,,,,,,,,,,,,,,,,,,,,,,,,,,,,,,,,,
,,,,,,,,,,,,,,,,,5f2599329c3df5250bb66565,29,2022-02-12_13h16.32.042,lexical_decision_task_DD_L6,2021.2.3,MacIntel,60.0024001,,,,,,,,,,,0.7133,1,,,,,,,,,,,,,,z,1,0.7133,,,,,,,,0.037830743,-0.432745972,0,0,0,,0,152,152,98,1,BAMPS,LB,z,z,./images/BAMPSLB.png,,,,,,,,,,,,,,,,,,,,,,,,,,,,,,,,,,,
,,,,,,,,,,,,,,,,,5f2599329c3df5250bb66565,29,2022-02-12_13h16.32.042,lexical_decision_task_DD_L6,2021.2.3,MacIntel,60.0024001,,,,,,,,,,,0.6613,1,,,,,,,,,,,,,,z,1,0.6613,,,,,,,,0.037830743,-0.432745972,0,0,0,,0,153,153,126,1,GUELS,C,z,z,./images/GUELS.png,,,,,,,,,,,,,,,,,,,,,,,,,,,,,,,,,,,
,,,,,,,,,,,,,,,,,5f2599329c3df5250bb66565,29,2022-02-12_13h16.32.042,lexical_decision_task_DD_L6,2021.2.3,MacIntel,60.0024001,,,,,,,,,,,0.7592,1,,,,,,,,,,,,,,m,1,0.7592,,,,,,,,0.037830743,-0.432745972,0,0,0,,0,154,154,83,1,WHISKY,HB,m,m,./images/WHISKYHB.png,,,,,,,,,,,,,,,,,,,,,,,,,,,,,,,,,,,
,,,,,,,,,,,,,,,,,5f2599329c3df5250bb66565,29,2022-02-12_13h16.32.042,lexical_decision_task_DD_L6,2021.2.3,MacIntel,60.0024001,,,,,,,,,,,0.6472,1,,,,,,,,,,,,,,z,1,0.6472,,,,,,,,0.037830743,-0.432745972,0,0,0,,0,155,155,101,1,GLEET,LB,z,z,./images/GLEETLB.png,,,,,,,,,,,,,,,,,,,,,,,,,,,,,,,,,,,
,,,,,,,,,,,,,,,,,5f2599329c3df5250bb66565,29,2022-02-12_13h16.32.042,lexical_decision_task_DD_L6,2021.2.3,MacIntel,60.0024001,,,,,,,,,,,1.0271,0,,,,,,,,,,,,,,m,0,1.0271,,,,,,,,0.037830743,-0.432745972,0,0,0,,0,156,156,142,1,PLASK,HB,z,z,./images/PLASKHB.png,,,,,,,,,,,,,,,,,,,,,,,,,,,,,,,,,,,
,,,,,,,,,,,,,,,,,5f2599329c3df5250bb66565,29,2022-02-12_13h16.32.042,lexical_decision_task_DD_L6,2021.2.3,MacIntel,60.0024001,,,,,,,,,,,0.8781,1,,,,,,,,,,,,,,z,1,0.8781,,,,,,,,0.037830743,-0.432745972,0,0,0,,0,157,157,105,1,MOKER,C,z,z,./images/MOKER.png,,,,,,,,,,,,,,,,,,,,,,,,,,,,,,,,,,,
,,,,,,,,,,,,,,,,,5f2599329c3df5250bb66565,29,2022-02-12_13h16.32.042,lexical_decision_task_DD_L6,2021.2.3,MacIntel,60.0024001,,,,,,,,,,,0.6284,1,,,,,,,,,,,,,,m,1,0.6284,,,,,,,,0.037830743,-0.432745972,0,0,0,,0,158,158,64,1,BRIDE,C,m,m,./images/BRIDE.png,,,,,,,,,,,,,,,,,,,,,,,,,,,,,,,,,,,
,,,,,,,,,,,,,,,,,5f2599329c3df5250bb66565,29,2022-02-12_13h16.32.042,lexical_decision_task_DD_L6,2021.2.3,MacIntel,60.0024001,,,,,,,,,,,0.7822,1,,,,,,,,,,,,,,z,1,0.7822,,,,,,,,0.037830743,-0.432745972,0,0,0,,0,159,159,143,1,MONGS,LB,z,z,./images/MONGSLB.png,,,,,,,,,,,,,,,,,,,,,,,,,,,,,,,,,,,
,,,,,,,,,,,,,,,,,5f2599329c3df5250bb66565,29,2022-02-12_13h16.32.042,lexical_decision_task_DD_L6,2021.2.3,MacIntel,60.0024001,,,,,,,,,,,0.7672,1,,,,,,,,,,,,,,m,1,0.7672,,,,,,,,0.037830743,-0.432745972,0,0,0,,0,160,160,76,1,MIDGET,C,m,m,./images/MIDGET.png,,,,,,,,,,,,,,,,,,,,,,,,,,,,,,,,,,,
,,,,,,,,,,,,,,,,,5f2599329c3df5250bb66565,29,2022-02-12_13h16.32.042,lexical_decision_task_DD_L6,2021.2.3,MacIntel,60.0024001,,,,,,,,,,,0.8387,1,,,,,,,,,,,,,,z,1,0.8387,,,,,,,,0.037830743,-0.432745972,0,0,0,,0,161,161,122,1,BLOOT,LB,z,z,./images/BLOOTLB.png,,,,,,,,,,,,,,,,,,,,,,,,,,,,,,,,,,,
,,,,,,,,,,,,,,,,,5f2599329c3df5250bb66565,29,2022-02-12_13h16.32.042,lexical_decision_task_DD_L6,2021.2.3,MacIntel,60.0024001,,,,,,,,,,,0.6338,1,,,,,,,,,,,,,,m,1,0.6338,,,,,,,,0.037830743,-0.432745972,0,0,0,,0,162,162,9,1,DIVER,LB,m,m,./images/DIVERLB.png,,,,,,,,,,,,,,,,,,,,,,,,,,,,,,,,,,,
,,,,,,,,,,,,,,,,,5f2599329c3df5250bb66565,29,2022-02-12_13h16.32.042,lexical_decision_task_DD_L6,2021.2.3,MacIntel,60.0024001,,,,,,,,,,,0.6328,1,,,,,,,,,,,,,,z,1,0.6328,,,,,,,,0.037830743,-0.432745972,0,0,0,,0,163,163,149,1,VEASE,LB,z,z,./images/VEASELB.png,,,,,,,,,,,,,,,,,,,,,,,,,,,,,,,,,,,
,,,,,,,,,,,,,,,,,5f2599329c3df5250bb66565,29,2022-02-12_13h16.32.042,lexical_decision_task_DD_L6,2021.2.3,MacIntel,60.0024001,,,,,,,,,,,1.227,1,,,,,,,,,,,,,,z,1,1.227,,,,,,,,0.037830743,-0.432745972,0,0,0,,0,164,164,136,1,WERVE,HB,z,z,./images/WERVEHB.png,,,,,,,,,,,,,,,,,,,,,,,,,,,,,,,,,,,
,,,,,,,,,,,,,,,,,5f2599329c3df5250bb66565,29,2022-02-12_13h16.32.042,lexical_decision_task_DD_L6,2021.2.3,MacIntel,60.0024001,,,,,,,,,,,1.243,1,,,,,,,,,,,,,,z,1,1.243,,,,,,,,0.037830743,-0.432745972,0,0,0,,0,165,165,127,1,NINDY,HB,z,z,./images/NINDYHB.png,,,,,,,,,,,,,,,,,,,,,,,,,,,,,,,,,,,
,,,,,,,,,,,,,,,,,5f2599329c3df5250bb66565,29,2022-02-12_13h16.32.042,lexical_decision_task_DD_L6,2021.2.3,MacIntel,60.0024001,,,,,,,,,,,0.7927,1,,,,,,,,,,,,,,z,1,0.7927,,,,,,,,0.037830743,-0.432745972,0,0,0,,0,166,166,140,1,DOVET,LB,z,z,./images/DOVETLB.png,,,,,,,,,,,,,,,,,,,,,,,,,,,,,,,,,,,
,,,,,,,,,,,,,,,,,5f2599329c3df5250bb66565,29,2022-02-12_13h16.32.042,lexical_decision_task_DD_L6,2021.2.3,MacIntel,60.0024001,,,,,,,,,,,1.3475,1,,,,,,,,,,,,,,z,1,1.3475,,,,,,,,0.037830743,-0.432745972,0,0,0,,0,167,167,144,1,NAIRY,C,z,z,./images/NAIRY.png,,,,,,,,,,,,,,,,,,,,,,,,,,,,,,,,,,,
,,,,,,,,,,,,,,,,,5f2599329c3df5250bb66565,29,2022-02-12_13h16.32.042,lexical_decision_task_DD_L6,2021.2.3,MacIntel,60.0024001,,,,,,,,,,,,,,,,,,,,,,,,,,,,,,,,,,,,,,,,,,,,,,,,How likely will it be that you will recognize the words presented very blurred on a scale of 0 (not likely) to 100 (most likely)?,,,,,0.01391527,-0.410329929,1,0,0,jol_adv,4,6.1699,0,0,0,2,1,,,,,,,,,,,,,,,,,,,,,
,,,,,,,,,,,,,,,,,5f2599329c3df5250bb66565,29,2022-02-12_13h16.32.042,lexical_decision_task_DD_L6,2021.2.3,MacIntel,60.0024001,,,,,,,,,,,,,,,,,,,,,,,,,,,,,,,,,,,,,,,,,,,,,,,,How likely will it be that you will recognize the words presented slighly blurred on a scale of 0 (not likely) to 100 (most likely)?,,,,,,,,,,,3,5.4885,0,1,1,1,1,,,,,,,,,,,,,,,,,,,,,
,,,,,,,,,,,,,,,,,5f2599329c3df5250bb66565,29,2022-02-12_13h16.32.042,lexical_decision_task_DD_L6,2021.2.3,MacIntel,60.0024001,,,,,,,,,,,,,,,,,,,,,,,,,,,,,,,,,,,,,,,,,,,,,,,,How likely will it be that you will recognize the words presented clearly on a scale of 0 (not likely) to 100 (most likely)?,,,,,,,,,,,5,3.8826,0,2,2,0,1,,,,,,,,,,,,,,,,,,,,,
space,13.1384,0.042786187,-0.398637763,0,0,0,,,,,,1,test,"In the next phase you will be presented with the words from the the first phase. Your job is to decide whether you remember seeing the word or not. If you remember seeing the word press ""old"" or type ""m"". If you do not remember seeing the word press ""new"" or type ""z"". Please press the space bar or click on continue to begin. ",,,5f2599329c3df5250bb66565,29,2022-02-12_13h16.32.042,lexical_decision_task_DD_L6,2021.2.3,MacIntel,60.0024001,,,,,,,,,,,,,,,,,,,,,,,,,,,,,,,,,,,,,,,,,,,,,,,,,,,,,,,,,,,,,,,,,,0,0,0,0,1,,,,,,,,,,,,,,,,
space,1.9806,0.018970269,-0.422332492,0,0,0,,,,,,1,test,"In the next phase you will be presented with the words from the the first phase. Your job is to decide whether you remember seeing the word or not. If you remember seeing the word press ""old"" or type ""m"". If you do not remember seeing the word press ""new"" or type ""z"". Please press the space bar or click on continue to begin. ",,,5f2599329c3df5250bb66565,29,2022-02-12_13h16.32.042,lexical_decision_task_DD_L6,2021.2.3,MacIntel,60.0024001,,,,,,,,,,,,,,,,,,,,,,,,,,,,,,,,,,,,,,,,,,,,,,,,,,,,,,,,,,,,,,,,,,1,0,1,0,1,,,,,,,,,,,,,,,,
,,0.029701674,-0.381321208,1,0,0,,,,,,1,test,"In the next phase you will be presented with the words from the the first phase. Your job is to decide whether you remember seeing the word or not. If you remember seeing the word press ""old"" or type ""m"". If you do not remember seeing the word press ""new"" or type ""z"". Please press the space bar or click on continue to begin. ",,,5f2599329c3df5250bb66565,29,2022-02-12_13h16.32.042,lexical_decision_task_DD_L6,2021.2.3,MacIntel,60.0024001,,,,,,,,,,,,,,,,,,,,,,,,,,,,,,,,,,,,,,,,,,,,,,,,,,,,,,,,,,,,,,,,,,2,0,2,0,1,instr_done_button,,,,,,,,,,,,,,,
space,1.1038,0.042395562,-0.213752848,0,0,0,,,,,,1,test,"In the next phase you will be presented with the words from the the first phase. Your job is to decide whether you remember seeing the word or not. If you remember seeing the word press ""old"" or type ""m"". If you do not remember seeing the word press ""new"" or type ""z"". Please press the space bar or click on continue to begin. ",,,5f2599329c3df5250bb66565,29,2022-02-12_13h16.32.042,lexical_decision_task_DD_L6,2021.2.3,MacIntel,60.0024001,,,,,,,,,,,,,,,,,,,,,,,,,,,,,,,,,,,,,,,,,,,,,,,,,,,,,,,,,,,,,,,,,,3,0,3,0,1,,,,,,,,,,,,,,,,
space,2.4831,0.042395562,-0.213752848,0,0,0,,,,,,1,test,"In the next phase you will be presented with the words from the the first phase. Your job is to decide whether you remember seeing the word or not. If you remember seeing the word press ""old"" or type ""m"". If you do not remember seeing the word press ""new"" or type ""z"". Please press the space bar or click on continue to begin. ",,,5f2599329c3df5250bb66565,29,2022-02-12_13h16.32.042,lexical_decision_task_DD_L6,2021.2.3,MacIntel,60.0024001,,,,,,,,,,,,,,,,,,,,,,,,,,,,,,,,,,,,,,,,,,,,,,,,,,,,,,,,,,,,,,,,,,4,0,4,0,1,,,,,,,,,,,,,,,,
,,,,,,,,,,,,,,,,,5f2599329c3df5250bb66565,29,2022-02-12_13h16.32.042,lexical_decision_task_DD_L6,2021.2.3,MacIntel,60.0024001,,,,,,,,,,,4.1234,0,,,,,,,,,,,,,,,,,,,,,,,,0.042395562,-0.213752848,0,0,0,,,,,,,CARPET,HB,z,y,./images/CARPETHB.png,,,,,,,,,,,,,,,,,,,,,m,0,4.1234,,,,,,,,0,0,0,137,1
,,,,,,,,,,,,,,,,,5f2599329c3df5250bb66565,29,2022-02-12_13h16.32.042,lexical_decision_task_DD_L6,2021.2.3,MacIntel,60.0024001,,,,,,,,,,,1.9887,1,,,,,,,,,,,,,,,,,,,,,,,,0.042395562,-0.213752848,0,0,0,,,,,,,MEDAL,HB,m,y,./images/MEDALHB.png,,,,,,,,,,,,,,,,,,,,,m,1,1.9887,,,,,,,,0,1,1,11,1
,,,,,,,,,,,,,,,,,5f2599329c3df5250bb66565,29,2022-02-12_13h16.32.042,lexical_decision_task_DD_L6,2021.2.3,MacIntel,60.0024001,,,,,,,,,,,1.988,1,,,,,,,,,,,,,,,,,,,,,,,,0.042395562,-0.213752848,0,0,0,,,,,,,TORCH,HB,z,y,./images/TORCHHB.png,,,,,,,,,,,,,,,,,,,,,z,1,1.988,,,,,,,,0,2,2,152,1
,,,,,,,,,,,,,,,,,5f2599329c3df5250bb66565,29,2022-02-12_13h16.32.042,lexical_decision_task_DD_L6,2021.2.3,MacIntel,60.0024001,,,,,,,,,,,0.8342,1,,,,,,,,,,,,,,,,,,,,,,,,0.042395562,-0.213752848,0,0,0,,,,,,,DANCER,LB,m,y,./images/DANCERLB.png,,,,,,,,,,,,,,,,,,,,,m,1,0.8342,,,,,,,,0,3,3,21,1
,,,,,,,,,,,,,,,,,5f2599329c3df5250bb66565,29,2022-02-12_13h16.32.042,lexical_decision_task_DD_L6,2021.2.3,MacIntel,60.0024001,,,,,,,,,,,1.0201,0,,,,,,,,,,,,,,,,,,,,,,,,0.042395562,-0.213752848,0,0,0,,,,,,,ARROW,LB,m,y,./images/ARROWLB.png,,,,,,,,,,,,,,,,,,,,,z,0,1.0201,,,,,,,,0,4,4,69,1
,,,,,,,,,,,,,,,,,5f2599329c3df5250bb66565,29,2022-02-12_13h16.32.042,lexical_decision_task_DD_L6,2021.2.3,MacIntel,60.0024001,,,,,,,,,,,0.7018,1,,,,,,,,,,,,,,,,,,,,,,,,0.042395562,-0.213752848,0,0,0,,,,,,,PILOT,HB,m,y,./images/PILOTHB.png,,,,,,,,,,,,,,,,,,,,,m,1,0.7018,,,,,,,,0,5,5,50,1
,,,,,,,,,,,,,,,,,5f2599329c3df5250bb66565,29,2022-02-12_13h16.32.042,lexical_decision_task_DD_L6,2021.2.3,MacIntel,60.0024001,,,,,,,,,,,1.0348,0,,,,,,,,,,,,,,,,,,,,,,,,0.042395562,-0.213752848,0,0,0,,,,,,,STRING,HB,z,y,./images/STRINGHB.png,,,,,,,,,,,,,,,,,,,,,m,0,1.0348,,,,,,,,0,6,6,125,1
,,,,,,,,,,,,,,,,,5f2599329c3df5250bb66565,29,2022-02-12_13h16.32.042,lexical_decision_task_DD_L6,2021.2.3,MacIntel,60.0024001,,,,,,,,,,,0.7722,1,,,,,,,,,,,,,,,,,,,,,,,,0.042395562,-0.213752848,0,0,0,,,,,,,LLAMA,HB,m,y,./images/LLAMAHB.png,,,,,,,,,,,,,,,,,,,,,m,1,0.7722,,,,,,,,0,7,7,35,1
,,,,,,,,,,,,,,,,,5f2599329c3df5250bb66565,29,2022-02-12_13h16.32.042,lexical_decision_task_DD_L6,2021.2.3,MacIntel,60.0024001,,,,,,,,,,,1.1521,1,,,,,,,,,,,,,,,,,,,,,,,,0.042395562,-0.213752848,0,0,0,,,,,,,CLOTH,HB,m,y,./images/CLOTHHB.png,,,,,,,,,,,,,,,,,,,,,m,1,1.1521,,,,,,,,0,8,8,23,1
,,,,,,,,,,,,,,,,,5f2599329c3df5250bb66565,29,2022-02-12_13h16.32.042,lexical_decision_task_DD_L6,2021.2.3,MacIntel,60.0024001,,,,,,,,,,,1.2458,1,,,,,,,,,,,,,,,,,,,,,,,,0.042395562,-0.213752848,0,0,0,,,,,,,FARMER,HB,z,y,./images/FARMERHB.png,,,,,,,,,,,,,,,,,,,,,z,1,1.2458,,,,,,,,0,9,9,149,1
,,,,,,,,,,,,,,,,,5f2599329c3df5250bb66565,29,2022-02-12_13h16.32.042,lexical_decision_task_DD_L6,2021.2.3,MacIntel,60.0024001,,,,,,,,,,,1.0677,1,,,,,,,,,,,,,,,,,,,,,,,,0.042395562,-0.213752848,0,0,0,,,,,,,DOUGH,C,z,y,./images/DOUGH.png,,,,,,,,,,,,,,,,,,,,,z,1,1.0677,,,,,,,,0,10,10,103,1
,,,,,,,,,,,,,,,,,5f2599329c3df5250bb66565,29,2022-02-12_13h16.32.042,lexical_decision_task_DD_L6,2021.2.3,MacIntel,60.0024001,,,,,,,,,,,1.6369,1,,,,,,,,,,,,,,,,,,,,,,,,0.042395562,-0.213752848,0,0,0,,,,,,,SLOPE,LB,m,y,./images/SLOPELB.png,,,,,,,,,,,,,,,,,,,,,m,1,1.6369,,,,,,,,0,11,11,30,1
,,,,,,,,,,,,,,,,,5f2599329c3df5250bb66565,29,2022-02-12_13h16.32.042,lexical_decision_task_DD_L6,2021.2.3,MacIntel,60.0024001,,,,,,,,,,,0.9082,1,,,,,,,,,,,,,,,,,,,,,,,,0.042395562,-0.213752848,0,0,0,,,,,,,GREASE,LB,z,y,./images/GREASELB.png,,,,,,,,,,,,,,,,,,,,,z,1,0.9082,,,,,,,,0,12,12,99,1
,,,,,,,,,,,,,,,,,5f2599329c3df5250bb66565,29,2022-02-12_13h16.32.042,lexical_decision_task_DD_L6,2021.2.3,MacIntel,60.0024001,,,,,,,,,,,5.0788,1,,,,,,,,,,,,,,,,,,,,,,,,0.042395562,-0.213752848,0,0,0,,,,,,,SNACK,C,z,y,./images/SNACK.png,,,,,,,,,,,,,,,,,,,,,z,1,5.0788,,,,,,,,0,13,13,157,1
,,,,,,,,,,,,,,,,,5f2599329c3df5250bb66565,29,2022-02-12_13h16.32.042,lexical_decision_task_DD_L6,2021.2.3,MacIntel,60.0024001,,,,,,,,,,,0.9932,1,,,,,,,,,,,,,,,,,,,,,,,,0.042395562,-0.213752848,0,0,0,,,,,,,BEARD,HB,z,y,./images/BEARDHB.png,,,,,,,,,,,,,,,,,,,,,z,1,0.9932,,,,,,,,0,14,14,86,1
,,,,,,,,,,,,,,,,,5f2599329c3df5250bb66565,29,2022-02-12_13h16.32.042,lexical_decision_task_DD_L6,2021.2.3,MacIntel,60.0024001,,,,,,,,,,,0.9544,1,,,,,,,,,,,,,,,,,,,,,,,,0.042395562,-0.213752848,0,0,0,,,,,,,ONION,LB,z,y,./images/ONIONLB.png,,,,,,,,,,,,,,,,,,,,,z,1,0.9544,,,,,,,,0,15,15,135,1
,,,,,,,,,,,,,,,,,5f2599329c3df5250bb66565,29,2022-02-12_13h16.32.042,lexical_decision_task_DD_L6,2021.2.3,MacIntel,60.0024001,,,,,,,,,,,1.1113,0,,,,,,,,,,,,,,,,,,,,,,,,0.042395562,-0.213752848,0,0,0,,,,,,,SNAKE,C,m,y,./images/SNAKE.png,,,,,,,,,,,,,,,,,,,,,z,0,1.1113,,,,,,,,0,16,16,40,1
,,,,,,,,,,,,,,,,,5f2599329c3df5250bb66565,29,2022-02-12_13h16.32.042,lexical_decision_task_DD_L6,2021.2.3,MacIntel,60.0024001,,,,,,,,,,,1.5458,1,,,,,,,,,,,,,,,,,,,,,,,,0.042395562,-0.213752848,0,0,0,,,,,,,KITTEN,LB,z,y,./images/KITTENLB.png,,,,,,,,,,,,,,,,,,,,,z,1,1.5458,,,,,,,,0,17,17,129,1
,,,,,,,,,,,,,,,,,5f2599329c3df5250bb66565,29,2022-02-12_13h16.32.042,lexical_decision_task_DD_L6,2021.2.3,MacIntel,60.0024001,,,,,,,,,,,0.685,1,,,,,,,,,,,,,,,,,,,,,,,,0.042395562,-0.213752848,0,0,0,,,,,,,CASINO,C,m,y,./images/CASINO.png,,,,,,,,,,,,,,,,,,,,,m,1,0.685,,,,,,,,0,18,18,28,1
,,,,,,,,,,,,,,,,,5f2599329c3df5250bb66565,29,2022-02-12_13h16.32.042,lexical_decision_task_DD_L6,2021.2.3,MacIntel,60.0024001,,,,,,,,,,,0.7834,1,,,,,,,,,,,,,,,,,,,,,,,,0.042395562,-0.213752848,0,0,0,,,,,,,MUMMY,C,m,y,./images/MUMMY.png,,,,,,,,,,,,,,,,,,,,,m,1,0.7834,,,,,,,,0,19,19,46,1
,,,,,,,,,,,,,,,,,5f2599329c3df5250bb66565,29,2022-02-12_13h16.32.042,lexical_decision_task_DD_L6,2021.2.3,MacIntel,60.0024001,,,,,,,,,,,0.7574,0,,,,,,,,,,,,,,,,,,,,,,,,0.042395562,-0.213752848,0,0,0,,,,,,,PEBBLE,C,m,y,./images/PEBBLE.png,,,,,,,,,,,,,,,,,,,,,z,0,0.7574,,,,,,,,0,20,20,82,1
,,,,,,,,,,,,,,,,,5f2599329c3df5250bb66565,29,2022-02-12_13h16.32.042,lexical_decision_task_DD_L6,2021.2.3,MacIntel,60.0024001,,,,,,,,,,,0.885,1,,,,,,,,,,,,,,,,,,,,,,,,0.042395562,-0.213752848,0,0,0,,,,,,,TOWEL,C,m,y,./images/TOWEL.png,,,,,,,,,,,,,,,,,,,,,m,1,0.885,,,,,,,,0,21,21,1,1
,,,,,,,,,,,,,,,,,5f2599329c3df5250bb66565,29,2022-02-12_13h16.32.042,lexical_decision_task_DD_L6,2021.2.3,MacIntel,60.0024001,,,,,,,,,,,1.0537,1,,,,,,,,,,,,,,,,,,,,,,,,0.042395562,-0.213752848,0,0,0,,,,,,,LITTER,LB,z,y,./images/LITTERLB.png,,,,,,,,,,,,,,,,,,,,,z,1,1.0537,,,,,,,,0,22,22,162,1
,,,,,,,,,,,,,,,,,5f2599329c3df5250bb66565,29,2022-02-12_13h16.32.042,lexical_decision_task_DD_L6,2021.2.3,MacIntel,60.0024001,,,,,,,,,,,2.2237,1,,,,,,,,,,,,,,,,,,,,,,,,0.042395562,-0.213752848,0,0,0,,,,,,,SPORT,LB,z,y,./images/SPORTLB.png,,,,,,,,,,,,,,,,,,,,,z,1,2.2237,,,,,,,,0,23,23,132,1
,,,,,,,,,,,,,,,,,5f2599329c3df5250bb66565,29,2022-02-12_13h16.32.042,lexical_decision_task_DD_L6,2021.2.3,MacIntel,60.0024001,,,,,,,,,,,0.6861,1,,,,,,,,,,,,,,,,,,,,,,,,0.042395562,-0.213752848,0,0,0,,,,,,,TIGER,C,m,y,./images/TIGER.png,,,,,,,,,,,,,,,,,,,,,m,1,0.6861,,,,,,,,0,24,24,37,1
,,,,,,,,,,,,,,,,,5f2599329c3df5250bb66565,29,2022-02-12_13h16.32.042,lexical_decision_task_DD_L6,2021.2.3,MacIntel,60.0024001,,,,,,,,,,,0.653,1,,,,,,,,,,,,,,,,,,,,,,,,0.042395562,-0.213752848,0,0,0,,,,,,,BUTTER,LB,m,y,./images/BUTTERLB.png,,,,,,,,,,,,,,,,,,,,,m,1,0.653,,,,,,,,0,25,25,27,1
,,,,,,,,,,,,,,,,,5f2599329c3df5250bb66565,29,2022-02-12_13h16.32.042,lexical_decision_task_DD_L6,2021.2.3,MacIntel,60.0024001,,,,,,,,,,,2.3213,1,,,,,,,,,,,,,,,,,,,,,,,,0.042395562,-0.213752848,0,0,0,,,,,,,CRADLE,HB,z,y,./images/CRADLEHB.png,,,,,,,,,,,,,,,,,,,,,z,1,2.3213,,,,,,,,0,26,26,104,1
,,,,,,,,,,,,,,,,,5f2599329c3df5250bb66565,29,2022-02-12_13h16.32.042,lexical_decision_task_DD_L6,2021.2.3,MacIntel,60.0024001,,,,,,,,,,,0.6698,1,,,,,,,,,,,,,,,,,,,,,,,,0.042395562,-0.213752848,0,0,0,,,,,,,PISTOL,HB,m,y,./images/PISTOLHB.png,,,,,,,,,,,,,,,,,,,,,m,1,0.6698,,,,,,,,0,27,27,29,1
,,,,,,,,,,,,,,,,,5f2599329c3df5250bb66565,29,2022-02-12_13h16.32.042,lexical_decision_task_DD_L6,2021.2.3,MacIntel,60.0024001,,,,,,,,,,,1.5682,1,,,,,,,,,,,,,,,,,,,,,,,,0.042395562,-0.213752848,0,0,0,,,,,,,CANYON,C,z,y,./images/CANYON.png,,,,,,,,,,,,,,,,,,,,,z,1,1.5682,,,,,,,,0,28,28,118,1
,,,,,,,,,,,,,,,,,5f2599329c3df5250bb66565,29,2022-02-12_13h16.32.042,lexical_decision_task_DD_L6,2021.2.3,MacIntel,60.0024001,,,,,,,,,,,1.2274,1,,,,,,,,,,,,,,,,,,,,,,,,0.042395562,-0.213752848,0,0,0,,,,,,,PEACH,HB,z,y,./images/PEACHHB.png,,,,,,,,,,,,,,,,,,,,,z,1,1.2274,,,,,,,,0,29,29,119,1
,,,,,,,,,,,,,,,,,5f2599329c3df5250bb66565,29,2022-02-12_13h16.32.042,lexical_decision_task_DD_L6,2021.2.3,MacIntel,60.0024001,,,,,,,,,,,0.672,1,,,,,,,,,,,,,,,,,,,,,,,,0.042395562,-0.213752848,0,0,0,,,,,,,SHORE,LB,z,y,./images/SHORELB.png,,,,,,,,,,,,,,,,,,,,,z,1,0.672,,,,,,,,0,30,30,96,1
,,,,,,,,,,,,,,,,,5f2599329c3df5250bb66565,29,2022-02-12_13h16.32.042,lexical_decision_task_DD_L6,2021.2.3,MacIntel,60.0024001,,,,,,,,,,,1.5544,1,,,,,,,,,,,,,,,,,,,,,,,,0.042395562,-0.213752848,0,0,0,,,,,,,DONKEY,C,m,y,./images/DONKEY.png,,,,,,,,,,,,,,,,,,,,,m,1,1.5544,,,,,,,,0,31,31,19,1
,,,,,,,,,,,,,,,,,5f2599329c3df5250bb66565,29,2022-02-12_13h16.32.042,lexical_decision_task_DD_L6,2021.2.3,MacIntel,60.0024001,,,,,,,,,,,0.7347,1,,,,,,,,,,,,,,,,,,,,,,,,0.042395562,-0.213752848,0,0,0,,,,,,,LAGOON,HB,m,y,./images/LAGOONHB.png,,,,,,,,,,,,,,,,,,,,,m,1,0.7347,,,,,,,,0,32,32,47,1
,,,,,,,,,,,,,,,,,5f2599329c3df5250bb66565,29,2022-02-12_13h16.32.042,lexical_decision_task_DD_L6,2021.2.3,MacIntel,60.0024001,,,,,,,,,,,1.1722,0,,,,,,,,,,,,,,,,,,,,,,,,0.042395562,-0.213752848,0,0,0,,,,,,,TULIP,HB,z,y,./images/TULIPHB.png,,,,,,,,,,,,,,,,,,,,,m,0,1.1722,,,,,,,,0,33,33,92,1
,,,,,,,,,,,,,,,,,5f2599329c3df5250bb66565,29,2022-02-12_13h16.32.042,lexical_decision_task_DD_L6,2021.2.3,MacIntel,60.0024001,,,,,,,,,,,0.6612,1,,,,,,,,,,,,,,,,,,,,,,,,0.042395562,-0.213752848,0,0,0,,,,,,,CANOE,C,m,y,./images/CANOE.png,,,,,,,,,,,,,,,,,,,,,m,1,0.6612,,,,,,,,0,34,34,58,1
,,,,,,,,,,,,,,,,,5f2599329c3df5250bb66565,29,2022-02-12_13h16.32.042,lexical_decision_task_DD_L6,2021.2.3,MacIntel,60.0024001,,,,,,,,,,,0.7162,1,,,,,,,,,,,,,,,,,,,,,,,,0.042395562,-0.213752848,0,0,0,,,,,,,SMOKER,HB,z,y,./images/SMOKERHB.png,,,,,,,,,,,,,,,,,,,,,z,1,0.7162,,,,,,,,0,35,35,110,1
,,,,,,,,,,,,,,,,,5f2599329c3df5250bb66565,29,2022-02-12_13h16.32.042,lexical_decision_task_DD_L6,2021.2.3,MacIntel,60.0024001,,,,,,,,,,,0.9835,0,,,,,,,,,,,,,,,,,,,,,,,,0.042395562,-0.213752848,0,0,0,,,,,,,BISHOP,C,m,y,./images/BISHOP.png,,,,,,,,,,,,,,,,,,,,,z,0,0.9835,,,,,,,,0,36,36,49,1
,,,,,,,,,,,,,,,,,5f2599329c3df5250bb66565,29,2022-02-12_13h16.32.042,lexical_decision_task_DD_L6,2021.2.3,MacIntel,60.0024001,,,,,,,,,,,0.802,1,,,,,,,,,,,,,,,,,,,,,,,,0.042395562,-0.213752848,0,0,0,,,,,,,PURSE,HB,z,y,./images/PURSEHB.png,,,,,,,,,,,,,,,,,,,,,z,1,0.802,,,,,,,,0,37,37,146,1
,,,,,,,,,,,,,,,,,5f2599329c3df5250bb66565,29,2022-02-12_13h16.32.042,lexical_decision_task_DD_L6,2021.2.3,MacIntel,60.0024001,,,,,,,,,,,1.5218,1,,,,,,,,,,,,,,,,,,,,,,,,0.042395562,-0.213752848,0,0,0,,,,,,,SKIING,HB,z,y,./images/SKIINGHB.png,,,,,,,,,,,,,,,,,,,,,z,1,1.5218,,,,,,,,0,38,38,101,1
,,,,,,,,,,,,,,,,,5f2599329c3df5250bb66565,29,2022-02-12_13h16.32.042,lexical_decision_task_DD_L6,2021.2.3,MacIntel,60.0024001,,,,,,,,,,,1.3895,1,,,,,,,,,,,,,,,,,,,,,,,,0.042395562,-0.213752848,0,0,0,,,,,,,NOOSE,LB,z,y,./images/NOOSELB.png,,,,,,,,,,,,,,,,,,,,,z,1,1.3895,,,,,,,,0,39,39,156,1
,,,,,,,,,,,,,,,,,5f2599329c3df5250bb66565,29,2022-02-12_13h16.32.042,lexical_decision_task_DD_L6,2021.2.3,MacIntel,60.0024001,,,,,,,,,,,1.7202,1,,,,,,,,,,,,,,,,,,,,,,,,0.042395562,-0.213752848,0,0,0,,,,,,,PLANET,HB,m,y,./images/PLANETHB.png,,,,,,,,,,,,,,,,,,,,,m,1,1.7202,,,,,,,,0,40,40,80,1
,,,,,,,,,,,,,,,,,5f2599329c3df5250bb66565,29,2022-02-12_13h16.32.042,lexical_decision_task_DD_L6,2021.2.3,MacIntel,60.0024001,,,,,,,,,,,0.7878,1,,,,,,,,,,,,,,,,,,,,,,,,0.042395562,-0.213752848,0,0,0,space,,,,,,BANNER,C,z,y,./images/BANNER.png,1.3067,,,,,,,,,,,,,,,,,,,,z,1,0.7878,,,,,,,,0,41,41,136,1
,,,,,,,,,,,,,,,,,5f2599329c3df5250bb66565,29,2022-02-12_13h16.32.042,lexical_decision_task_DD_L6,2021.2.3,MacIntel,60.0024001,,,,,,,,,,,1.5046,1,,,,,,,,,,,,,,,,,,,,,,,,0.042395562,-0.213752848,0,0,0,,,,,,,BLOKE,LB,m,y,./images/BLOKELB.png,,,,,,,,,,,,,,,,,,,,,m,1,1.5046,,,,,,,,0,42,42,12,1
,,,,,,,,,,,,,,,,,5f2599329c3df5250bb66565,29,2022-02-12_13h16.32.042,lexical_decision_task_DD_L6,2021.2.3,MacIntel,60.0024001,,,,,,,,,,,0.667,1,,,,,,,,,,,,,,,,,,,,,,,,0.042395562,-0.213752848,0,0,0,,,,,,,BANANA,C,m,y,./images/BANANA.png,,,,,,,,,,,,,,,,,,,,,m,1,0.667,,,,,,,,0,43,43,70,1
,,,,,,,,,,,,,,,,,5f2599329c3df5250bb66565,29,2022-02-12_13h16.32.042,lexical_decision_task_DD_L6,2021.2.3,MacIntel,60.0024001,,,,,,,,,,,0.8574,1,,,,,,,,,,,,,,,,,,,,,,,,0.042395562,-0.213752848,0,0,0,,,,,,,TRIPOD,LB,z,y,./images/TRIPODLB.png,,,,,,,,,,,,,,,,,,,,,z,1,0.8574,,,,,,,,0,44,44,138,1
,,,,,,,,,,,,,,,,,5f2599329c3df5250bb66565,29,2022-02-12_13h16.32.042,lexical_decision_task_DD_L6,2021.2.3,MacIntel,60.0024001,,,,,,,,,,,1.1548,1,,,,,,,,,,,,,,,,,,,,,,,,0.042395562,-0.213752848,0,0,0,,,,,,,BAKER,LB,m,y,./images/BAKERLB.png,,,,,,,,,,,,,,,,,,,,,m,1,1.1548,,,,,,,,0,45,45,63,1
,,,,,,,,,,,,,,,,,5f2599329c3df5250bb66565,29,2022-02-12_13h16.32.042,lexical_decision_task_DD_L6,2021.2.3,MacIntel,60.0024001,,,,,,,,,,,0.8036,1,,,,,,,,,,,,,,,,,,,,,,,,0.042395562,-0.213752848,0,0,0,,,,,,,BELLY,C,z,y,./images/BELLY.png,,,,,,,,,,,,,,,,,,,,,z,1,0.8036,,,,,,,,0,46,46,94,1
,,,,,,,,,,,,,,,,,5f2599329c3df5250bb66565,29,2022-02-12_13h16.32.042,lexical_decision_task_DD_L6,2021.2.3,MacIntel,60.0024001,,,,,,,,,,,0.9018,1,,,,,,,,,,,,,,,,,,,,,,,,0.042395562,-0.213752848,0,0,0,,,,,,,CRUST,C,z,y,./images/CRUST.png,,,,,,,,,,,,,,,,,,,,,z,1,0.9018,,,,,,,,0,47,47,163,1
,,,,,,,,,,,,,,,,,5f2599329c3df5250bb66565,29,2022-02-12_13h16.32.042,lexical_decision_task_DD_L6,2021.2.3,MacIntel,60.0024001,,,,,,,,,,,0.7019,1,,,,,,,,,,,,,,,,,,,,,,,,0.042395562,-0.213752848,0,0,0,,,,,,,JUNGLE,HB,z,y,./images/JUNGLEHB.png,,,,,,,,,,,,,,,,,,,,,z,1,0.7019,,,,,,,,0,48,48,167,1
,,,,,,,,,,,,,,,,,5f2599329c3df5250bb66565,29,2022-02-12_13h16.32.042,lexical_decision_task_DD_L6,2021.2.3,MacIntel,60.0024001,,,,,,,,,,,1.6528,1,,,,,,,,,,,,,,,,,,,,,,,,0.042395562,-0.213752848,0,0,0,,,,,,,MALLET,HB,z,y,./images/MALLETHB.png,,,,,,,,,,,,,,,,,,,,,z,1,1.6528,,,,,,,,0,49,49,134,1
,,,,,,,,,,,,,,,,,5f2599329c3df5250bb66565,29,2022-02-12_13h16.32.042,lexical_decision_task_DD_L6,2021.2.3,MacIntel,60.0024001,,,,,,,,,,,0.9172,1,,,,,,,,,,,,,,,,,,,,,,,,0.042395562,-0.213752848,0,0,0,,,,,,,MOTOR,C,z,y,./images/MOTOR.png,,,,,,,,,,,,,,,,,,,,,z,1,0.9172,,,,,,,,0,50,50,97,1
,,,,,,,,,,,,,,,,,5f2599329c3df5250bb66565,29,2022-02-12_13h16.32.042,lexical_decision_task_DD_L6,2021.2.3,MacIntel,60.0024001,,,,,,,,,,,0.9249,1,,,,,,,,,,,,,,,,,,,,,,,,0.042395562,-0.213752848,0,0,0,,,,,,,MIDGET,C,m,y,./images/MIDGET.png,,,,,,,,,,,,,,,,,,,,,m,1,0.9249,,,,,,,,0,51,51,76,1
,,,,,,,,,,,,,,,,,5f2599329c3df5250bb66565,29,2022-02-12_13h16.32.042,lexical_decision_task_DD_L6,2021.2.3,MacIntel,60.0024001,,,,,,,,,,,1.4431,1,,,,,,,,,,,,,,,,,,,,,,,,0.042395562,-0.213752848,0,0,0,,,,,,,MOOSE,LB,z,y,./images/MOOSELB.png,,,,,,,,,,,,,,,,,,,,,z,1,1.4431,,,,,,,,0,52,52,141,1
,,,,,,,,,,,,,,,,,5f2599329c3df5250bb66565,29,2022-02-12_13h16.32.042,lexical_decision_task_DD_L6,2021.2.3,MacIntel,60.0024001,,,,,,,,,,,1.4031,0,,,,,,,,,,,,,,,,,,,,,,,,0.042395562,-0.213752848,0,0,0,,,,,,,FENCE,HB,m,y,./images/FENCEHB.png,,,,,,,,,,,,,,,,,,,,,z,0,1.4031,,,,,,,,0,53,53,14,1
,,,,,,,,,,,,,,,,,5f2599329c3df5250bb66565,29,2022-02-12_13h16.32.042,lexical_decision_task_DD_L6,2021.2.3,MacIntel,60.0024001,,,,,,,,,,,0.8391,1,,,,,,,,,,,,,,,,,,,,,,,,0.042395562,-0.213752848,0,0,0,,,,,,,BURIAL,HB,z,y,./images/BURIALHB.png,,,,,,,,,,,,,,,,,,,,,z,1,0.8391,,,,,,,,0,54,54,143,1
,,,,,,,,,,,,,,,,,5f2599329c3df5250bb66565,29,2022-02-12_13h16.32.042,lexical_decision_task_DD_L6,2021.2.3,MacIntel,60.0024001,,,,,,,,,,,0.8022,1,,,,,,,,,,,,,,,,,,,,,,,,0.042395562,-0.213752848,0,0,0,,,,,,,URINE,C,z,y,./images/URINE.png,,,,,,,,,,,,,,,,,,,,,z,1,0.8022,,,,,,,,0,55,55,154,1
,,,,,,,,,,,,,,,,,5f2599329c3df5250bb66565,29,2022-02-12_13h16.32.042,lexical_decision_task_DD_L6,2021.2.3,MacIntel,60.0024001,,,,,,,,,,,0.9106,1,,,,,,,,,,,,,,,,,,,,,,,,0.042395562,-0.213752848,0,0,0,,,,,,,BUNNY,C,m,y,./images/BUNNY.png,,,,,,,,,,,,,,,,,,,,,m,1,0.9106,,,,,,,,0,56,56,13,1
,,,,,,,,,,,,,,,,,5f2599329c3df5250bb66565,29,2022-02-12_13h16.32.042,lexical_decision_task_DD_L6,2021.2.3,MacIntel,60.0024001,,,,,,,,,,,1.0026,0,,,,,,,,,,,,,,,,,,,,,,,,0.042395562,-0.213752848,0,0,0,,,,,,,BUBBLE,HB,m,y,./images/BUBBLEHB.png,,,,,,,,,,,,,,,,,,,,,z,0,1.0026,,,,,,,,0,57,57,71,1
,,,,,,,,,,,,,,,,,5f2599329c3df5250bb66565,29,2022-02-12_13h16.32.042,lexical_decision_task_DD_L6,2021.2.3,MacIntel,60.0024001,,,,,,,,,,,0.7561,1,,,,,,,,,,,,,,,,,,,,,,,,0.042395562,-0.213752848,0,0,0,,,,,,,SQUARE,LB,z,y,./images/SQUARELB.png,,,,,,,,,,,,,,,,,,,,,z,1,0.7561,,,,,,,,0,58,58,90,1
,,,,,,,,,,,,,,,,,5f2599329c3df5250bb66565,29,2022-02-12_13h16.32.042,lexical_decision_task_DD_L6,2021.2.3,MacIntel,60.0024001,,,,,,,,,,,0.7513,0,,,,,,,,,,,,,,,,,,,,,,,,0.042395562,-0.213752848,0,0,0,,,,,,,SAUCE,LB,m,y,./images/SAUCELB.png,,,,,,,,,,,,,,,,,,,,,z,0,0.7513,,,,,,,,0,59,59,51,1
,,,,,,,,,,,,,,,,,5f2599329c3df5250bb66565,29,2022-02-12_13h16.32.042,lexical_decision_task_DD_L6,2021.2.3,MacIntel,60.0024001,,,,,,,,,,,0.7766,1,,,,,,,,,,,,,,,,,,,,,,,,0.042395562,-0.213752848,0,0,0,,,,,,,MELON,C,z,y,./images/MELON.png,,,,,,,,,,,,,,,,,,,,,z,1,0.7766,,,,,,,,0,60,60,106,1
,,,,,,,,,,,,,,,,,5f2599329c3df5250bb66565,29,2022-02-12_13h16.32.042,lexical_decision_task_DD_L6,2021.2.3,MacIntel,60.0024001,,,,,,,,,,,0.788,1,,,,,,,,,,,,,,,,,,,,,,,,0.042395562,-0.213752848,0,0,0,,,,,,,JELLY,C,z,y,./images/JELLY.png,,,,,,,,,,,,,,,,,,,,,z,1,0.788,,,,,,,,0,61,61,148,1
,,,,,,,,,,,,,,,,,5f2599329c3df5250bb66565,29,2022-02-12_13h16.32.042,lexical_decision_task_DD_L6,2021.2.3,MacIntel,60.0024001,,,,,,,,,,,0.8947,0,,,,,,,,,,,,,,,,,,,,,,,,0.042395562,-0.213752848,0,0,0,,,,,,,STATUE,LB,m,y,./images/STATUELB.png,,,,,,,,,,,,,,,,,,,,,z,0,0.8947,,,,,,,,0,62,62,66,1
,,,,,,,,,,,,,,,,,5f2599329c3df5250bb66565,29,2022-02-12_13h16.32.042,lexical_decision_task_DD_L6,2021.2.3,MacIntel,60.0024001,,,,,,,,,,,1.4853,1,,,,,,,,,,,,,,,,,,,,,,,,0.042395562,-0.213752848,0,0,0,,,,,,,PENCE,C,z,y,./images/PENCE.png,,,,,,,,,,,,,,,,,,,,,z,1,1.4853,,,,,,,,0,63,63,100,1
,,,,,,,,,,,,,,,,,5f2599329c3df5250bb66565,29,2022-02-12_13h16.32.042,lexical_decision_task_DD_L6,2021.2.3,MacIntel,60.0024001,,,,,,,,,,,0.9381,1,,,,,,,,,,,,,,,,,,,,,,,,0.042395562,-0.213752848,0,0,0,,,,,,,WHISKY,HB,m,y,./images/WHISKYHB.png,,,,,,,,,,,,,,,,,,,,,m,1,0.9381,,,,,,,,0,64,64,83,1
,,,,,,,,,,,,,,,,,5f2599329c3df5250bb66565,29,2022-02-12_13h16.32.042,lexical_decision_task_DD_L6,2021.2.3,MacIntel,60.0024001,,,,,,,,,,,0.9692,1,,,,,,,,,,,,,,,,,,,,,,,,0.042395562,-0.213752848,0,0,0,,,,,,,CANDLE,C,z,y,./images/CANDLE.png,,,,,,,,,,,,,,,,,,,,,z,1,0.9692,,,,,,,,0,65,65,145,1
,,,,,,,,,,,,,,,,,5f2599329c3df5250bb66565,29,2022-02-12_13h16.32.042,lexical_decision_task_DD_L6,2021.2.3,MacIntel,60.0024001,,,,,,,,,,,1.0536,1,,,,,,,,,,,,,,,,,,,,,,,,0.042395562,-0.213752848,0,0,0,,,,,,,MOSQUE,C,z,y,./images/MOSQUE.png,,,,,,,,,,,,,,,,,,,,,z,1,1.0536,,,,,,,,0,66,66,127,1
,,,,,,,,,,,,,,,,,5f2599329c3df5250bb66565,29,2022-02-12_13h16.32.042,lexical_decision_task_DD_L6,2021.2.3,MacIntel,60.0024001,,,,,,,,,,,0.8238,1,,,,,,,,,,,,,,,,,,,,,,,,0.042395562,-0.213752848,0,0,0,,,,,,,MONKEY,LB,m,y,./images/MONKEYLB.png,,,,,,,,,,,,,,,,,,,,,m,1,0.8238,,,,,,,,0,67,67,45,1
,,,,,,,,,,,,,,,,,5f2599329c3df5250bb66565,29,2022-02-12_13h16.32.042,lexical_decision_task_DD_L6,2021.2.3,MacIntel,60.0024001,,,,,,,,,,,0.9381,1,,,,,,,,,,,,,,,,,,,,,,,,0.042395562,-0.213752848,0,0,0,,,,,,,PLANK,C,z,y,./images/PLANK.png,,,,,,,,,,,,,,,,,,,,,z,1,0.9381,,,,,,,,0,68,68,85,1
,,,,,,,,,,,,,,,,,5f2599329c3df5250bb66565,29,2022-02-12_13h16.32.042,lexical_decision_task_DD_L6,2021.2.3,MacIntel,60.0024001,,,,,,,,,,,0.9882,1,,,,,,,,,,,,,,,,,,,,,,,,0.042395562,-0.213752848,0,0,0,,,,,,,STEAK,C,m,y,./images/STEAK.png,,,,,,,,,,,,,,,,,,,,,m,1,0.9882,,,,,,,,0,69,69,31,1
,,,,,,,,,,,,,,,,,5f2599329c3df5250bb66565,29,2022-02-12_13h16.32.042,lexical_decision_task_DD_L6,2021.2.3,MacIntel,60.0024001,,,,,,,,,,,1.0699,1,,,,,,,,,,,,,,,,,,,,,,,,0.042395562,-0.213752848,0,0,0,,,,,,,POODLE,LB,z,y,./images/POODLELB.png,,,,,,,,,,,,,,,,,,,,,z,1,1.0699,,,,,,,,0,70,70,165,1
,,,,,,,,,,,,,,,,,5f2599329c3df5250bb66565,29,2022-02-12_13h16.32.042,lexical_decision_task_DD_L6,2021.2.3,MacIntel,60.0024001,,,,,,,,,,,0.8681,1,,,,,,,,,,,,,,,,,,,,,,,,0.042395562,-0.213752848,0,0,0,,,,,,,BRIDE,C,m,y,./images/BRIDE.png,,,,,,,,,,,,,,,,,,,,,m,1,0.8681,,,,,,,,0,71,71,64,1
,,,,,,,,,,,,,,,,,5f2599329c3df5250bb66565,29,2022-02-12_13h16.32.042,lexical_decision_task_DD_L6,2021.2.3,MacIntel,60.0024001,,,,,,,,,,,0.8367,0,,,,,,,,,,,,,,,,,,,,,,,,0.042395562,-0.213752848,0,0,0,,,,,,,JUMPER,HB,m,y,./images/JUMPERHB.png,,,,,,,,,,,,,,,,,,,,,z,0,0.8367,,,,,,,,0,72,72,74,1
,,,,,,,,,,,,,,,,,5f2599329c3df5250bb66565,29,2022-02-12_13h16.32.042,lexical_decision_task_DD_L6,2021.2.3,MacIntel,60.0024001,,,,,,,,,,,1.7885,1,,,,,,,,,,,,,,,,,,,,,,,,0.042395562,-0.213752848,0,0,0,,,,,,,RHINO,LB,z,y,./images/RHINOLB.png,,,,,,,,,,,,,,,,,,,,,z,1,1.7885,,,,,,,,0,73,73,93,1
,,,,,,,,,,,,,,,,,5f2599329c3df5250bb66565,29,2022-02-12_13h16.32.042,lexical_decision_task_DD_L6,2021.2.3,MacIntel,60.0024001,,,,,,,,,,,0.7604,1,,,,,,,,,,,,,,,,,,,,,,,,0.042395562,-0.213752848,0,0,0,,,,,,,INFANT,C,z,y,./images/INFANT.png,,,,,,,,,,,,,,,,,,,,,z,1,0.7604,,,,,,,,0,74,74,160,1
,,,,,,,,,,,,,,,,,5f2599329c3df5250bb66565,29,2022-02-12_13h16.32.042,lexical_decision_task_DD_L6,2021.2.3,MacIntel,60.0024001,,,,,,,,,,,0.9693,1,,,,,,,,,,,,,,,,,,,,,,,,0.042395562,-0.213752848,0,0,0,,,,,,,SPINE,HB,m,y,./images/SPINEHB.png,,,,,,,,,,,,,,,,,,,,,m,1,0.9693,,,,,,,,0,75,75,65,1
,,,,,,,,,,,,,,,,,5f2599329c3df5250bb66565,29,2022-02-12_13h16.32.042,lexical_decision_task_DD_L6,2021.2.3,MacIntel,60.0024001,,,,,,,,,,,0.9221,0,,,,,,,,,,,,,,,,,,,,,,,,0.042395562,-0.213752848,0,0,0,,,,,,,MAGGOT,LB,z,y,./images/MAGGOTLB.png,,,,,,,,,,,,,,,,,,,,,m,0,0.9221,,,,,,,,0,76,76,117,1
,,,,,,,,,,,,,,,,,5f2599329c3df5250bb66565,29,2022-02-12_13h16.32.042,lexical_decision_task_DD_L6,2021.2.3,MacIntel,60.0024001,,,,,,,,,,,0.9258,1,,,,,,,,,,,,,,,,,,,,,,,,0.042395562,-0.213752848,0,0,0,,,,,,,WRIST,C,z,y,./images/WRIST.png,,,,,,,,,,,,,,,,,,,,,z,1,0.9258,,,,,,,,0,77,77,109,1
,,,,,,,,,,,,,,,,,5f2599329c3df5250bb66565,29,2022-02-12_13h16.32.042,lexical_decision_task_DD_L6,2021.2.3,MacIntel,60.0024001,,,,,,,,,,,1.5541,1,,,,,,,,,,,,,,,,,,,,,,,,0.042395562,-0.213752848,0,0,0,,,,,,,SCREW,LB,z,y,./images/SCREWLB.png,,,,,,,,,,,,,,,,,,,,,z,1,1.5541,,,,,,,,0,78,78,108,1
,,,,,,,,,,,,,,,,,5f2599329c3df5250bb66565,29,2022-02-12_13h16.32.042,lexical_decision_task_DD_L6,2021.2.3,MacIntel,60.0024001,,,,,,,,,,,0.9951,1,,,,,,,,,,,,,,,,,,,,,,,,0.042395562,-0.213752848,0,0,0,,,,,,,ATTIC,LB,z,y,./images/ATTICLB.png,,,,,,,,,,,,,,,,,,,,,z,1,0.9951,,,,,,,,0,79,79,111,1
,,,,,,,,,,,,,,,,,5f2599329c3df5250bb66565,29,2022-02-12_13h16.32.042,lexical_decision_task_DD_L6,2021.2.3,MacIntel,60.0024001,,,,,,,,,,,1.1068,0,,,,,,,,,,,,,,,,,,,,,,,,0.042395562,-0.213752848,0,0,0,,,,,,,BABOON,C,z,y,./images/BABOON.png,,,,,,,,,,,,,,,,,,,,,m,0,1.1068,,,,,,,,0,80,80,142,1
,,,,,,,,,,,,,,,,,5f2599329c3df5250bb66565,29,2022-02-12_13h16.32.042,lexical_decision_task_DD_L6,2021.2.3,MacIntel,60.0024001,,,,,,,,,,,1.0752,0,,,,,,,,,,,,,,,,,,,,,,,,0.042395562,-0.213752848,0,0,0,,,,,,,VALLEY,HB,m,y,./images/VALLEYHB.png,,,,,,,,,,,,,,,,,,,,,z,0,1.0752,,,,,,,,0,81,81,68,1
,,,,,,,,,,,,,,,,,5f2599329c3df5250bb66565,29,2022-02-12_13h16.32.042,lexical_decision_task_DD_L6,2021.2.3,MacIntel,60.0024001,,,,,,,,,,,0.8245,1,,,,,,,,,,,,,,,,,,,,,,,,0.042395562,-0.213752848,0,0,0,,,,,,,KIDNEY,LB,z,y,./images/KIDNEYLB.png,,,,,,,,,,,,,,,,,,,,,z,1,0.8245,,,,,,,,0,82,82,105,1
,,,,,,,,,,,,,,,,,5f2599329c3df5250bb66565,29,2022-02-12_13h16.32.042,lexical_decision_task_DD_L6,2021.2.3,MacIntel,60.0024001,,,,,,,,,,,0.9377,1,,,,,,,,,,,,,,,,,,,,,,,,0.042395562,-0.213752848,0,0,0,space,,,,,,CRATER,LB,m,y,./images/CRATERLB.png,1.2233,,,,,,,,,,,,,,,,,,,,m,1,0.9377,,,,,,,,0,83,83,3,1
,,,,,,,,,,,,,,,,,5f2599329c3df5250bb66565,29,2022-02-12_13h16.32.042,lexical_decision_task_DD_L6,2021.2.3,MacIntel,60.0024001,,,,,,,,,,,2.0885,0,,,,,,,,,,,,,,,,,,,,,,,,0.042395562,-0.213752848,0,0,0,,,,,,,BARREL,HB,z,y,./images/BARRELHB.png,,,,,,,,,,,,,,,,,,,,,m,0,2.0885,,,,,,,,0,84,84,116,1
,,,,,,,,,,,,,,,,,5f2599329c3df5250bb66565,29,2022-02-12_13h16.32.042,lexical_decision_task_DD_L6,2021.2.3,MacIntel,60.0024001,,,,,,,,,,,1.1354,0,,,,,,,,,,,,,,,,,,,,,,,,0.042395562,-0.213752848,0,0,0,,,,,,,RAZOR,C,m,y,./images/RAZOR.png,,,,,,,,,,,,,,,,,,,,,z,0,1.1354,,,,,,,,0,85,85,34,1
,,,,,,,,,,,,,,,,,5f2599329c3df5250bb66565,29,2022-02-12_13h16.32.042,lexical_decision_task_DD_L6,2021.2.3,MacIntel,60.0024001,,,,,,,,,,,0.7704,1,,,,,,,,,,,,,,,,,,,,,,,,0.042395562,-0.213752848,0,0,0,,,,,,,PASTA,HB,z,y,./images/PASTAHB.png,,,,,,,,,,,,,,,,,,,,,z,1,0.7704,,,,,,,,0,86,86,89,1
,,,,,,,,,,,,,,,,,5f2599329c3df5250bb66565,29,2022-02-12_13h16.32.042,lexical_decision_task_DD_L6,2021.2.3,MacIntel,60.0024001,,,,,,,,,,,0.7059,0,,,,,,,,,,,,,,,,,,,,,,,,0.042395562,-0.213752848,0,0,0,,,,,,,SAUNA,LB,m,y,./images/SAUNALB.png,,,,,,,,,,,,,,,,,,,,,z,0,0.7059,,,,,,,,0,87,87,33,1
,,,,,,,,,,,,,,,,,5f2599329c3df5250bb66565,29,2022-02-12_13h16.32.042,lexical_decision_task_DD_L6,2021.2.3,MacIntel,60.0024001,,,,,,,,,,,1.2561,1,,,,,,,,,,,,,,,,,,,,,,,,0.042395562,-0.213752848,0,0,0,,,,,,,RULER,C,m,y,./images/RULER.png,,,,,,,,,,,,,,,,,,,,,m,1,1.2561,,,,,,,,0,88,88,79,1
,,,,,,,,,,,,,,,,,5f2599329c3df5250bb66565,29,2022-02-12_13h16.32.042,lexical_decision_task_DD_L6,2021.2.3,MacIntel,60.0024001,,,,,,,,,,,0.8513,0,,,,,,,,,,,,,,,,,,,,,,,,0.042395562,-0.213752848,0,0,0,,,,,,,MIRROR,LB,z,y,./images/MIRRORLB.png,,,,,,,,,,,,,,,,,,,,,m,0,0.8513,,,,,,,,0,89,89,147,1
,,,,,,,,,,,,,,,,,5f2599329c3df5250bb66565,29,2022-02-12_13h16.32.042,lexical_decision_task_DD_L6,2021.2.3,MacIntel,60.0024001,,,,,,,,,,,0.9406,0,,,,,,,,,,,,,,,,,,,,,,,,0.042395562,-0.213752848,0,0,0,,,,,,,STAIN,LB,m,y,./images/STAINLB.png,,,,,,,,,,,,,,,,,,,,,z,0,0.9406,,,,,,,,0,90,90,6,1
,,,,,,,,,,,,,,,,,5f2599329c3df5250bb66565,29,2022-02-12_13h16.32.042,lexical_decision_task_DD_L6,2021.2.3,MacIntel,60.0024001,,,,,,,,,,,0.8885,1,,,,,,,,,,,,,,,,,,,,,,,,0.042395562,-0.213752848,0,0,0,,,,,,,DRUMS,C,z,y,./images/DRUMS.png,,,,,,,,,,,,,,,,,,,,,z,1,0.8885,,,,,,,,0,91,91,133,1
,,,,,,,,,,,,,,,,,5f2599329c3df5250bb66565,29,2022-02-12_13h16.32.042,lexical_decision_task_DD_L6,2021.2.3,MacIntel,60.0024001,,,,,,,,,,,1.0511,1,,,,,,,,,,,,,,,,,,,,,,,,0.042395562,-0.213752848,0,0,0,,,,,,,POKER,C,m,y,./images/POKER.png,,,,,,,,,,,,,,,,,,,,,m,1,1.0511,,,,,,,,0,92,92,67,1
,,,,,,,,,,,,,,,,,5f2599329c3df5250bb66565,29,2022-02-12_13h16.32.042,lexical_decision_task_DD_L6,2021.2.3,MacIntel,60.0024001,,,,,,,,,,,0.8374,1,,,,,,,,,,,,,,,,,,,,,,,,0.042395562,-0.213752848,0,0,0,,,,,,,STREAM,HB,m,y,./images/STREAMHB.png,,,,,,,,,,,,,,,,,,,,,m,1,0.8374,,,,,,,,0,93,93,41,1
,,,,,,,,,,,,,,,,,5f2599329c3df5250bb66565,29,2022-02-12_13h16.32.042,lexical_decision_task_DD_L6,2021.2.3,MacIntel,60.0024001,,,,,,,,,,,1.1894,1,,,,,,,,,,,,,,,,,,,,,,,,0.042395562,-0.213752848,0,0,0,,,,,,,CHAIN,LB,m,y,./images/CHAINLB.png,,,,,,,,,,,,,,,,,,,,,m,1,1.1894,,,,,,,,0,94,94,42,1
,,,,,,,,,,,,,,,,,5f2599329c3df5250bb66565,29,2022-02-12_13h16.32.042,lexical_decision_task_DD_L6,2021.2.3,MacIntel,60.0024001,,,,,,,,,,,0.9055,1,,,,,,,,,,,,,,,,,,,,,,,,0.042395562,-0.213752848,0,0,0,,,,,,,PAINT,C,z,y,./images/PAINT.png,,,,,,,,,,,,,,,,,,,,,z,1,0.9055,,,,,,,,0,95,95,91,1
,,,,,,,,,,,,,,,,,5f2599329c3df5250bb66565,29,2022-02-12_13h16.32.042,lexical_decision_task_DD_L6,2021.2.3,MacIntel,60.0024001,,,,,,,,,,,1.2878,1,,,,,,,,,,,,,,,,,,,,,,,,0.042395562,-0.213752848,0,0,0,,,,,,,CLIFF,HB,m,y,./images/CLIFFHB.png,,,,,,,,,,,,,,,,,,,,,m,1,1.2878,,,,,,,,0,96,96,8,1
,,,,,,,,,,,,,,,,,5f2599329c3df5250bb66565,29,2022-02-12_13h16.32.042,lexical_decision_task_DD_L6,2021.2.3,MacIntel,60.0024001,,,,,,,,,,,1.6409,1,,,,,,,,,,,,,,,,,,,,,,,,0.042395562,-0.213752848,0,0,0,,,,,,,BROOM,LB,m,y,./images/BROOMLB.png,,,,,,,,,,,,,,,,,,,,,m,1,1.6409,,,,,,,,0,97,97,78,1
,,,,,,,,,,,,,,,,,5f2599329c3df5250bb66565,29,2022-02-12_13h16.32.042,lexical_decision_task_DD_L6,2021.2.3,MacIntel,60.0024001,,,,,,,,,,,1.1241,1,,,,,,,,,,,,,,,,,,,,,,,,0.042395562,-0.213752848,0,0,0,,,,,,,PEARL,C,z,y,./images/PEARL.png,,,,,,,,,,,,,,,,,,,,,z,1,1.1241,,,,,,,,0,98,98,130,1
,,,,,,,,,,,,,,,,,5f2599329c3df5250bb66565,29,2022-02-12_13h16.32.042,lexical_decision_task_DD_L6,2021.2.3,MacIntel,60.0024001,,,,,,,,,,,0.8784,1,,,,,,,,,,,,,,,,,,,,,,,,0.042395562,-0.213752848,0,0,0,,,,,,,THROAT,LB,z,y,./images/THROATLB.png,,,,,,,,,,,,,,,,,,,,,z,1,0.8784,,,,,,,,0,99,99,120,1
,,,,,,,,,,,,,,,,,5f2599329c3df5250bb66565,29,2022-02-12_13h16.32.042,lexical_decision_task_DD_L6,2021.2.3,MacIntel,60.0024001,,,,,,,,,,,0.7195,1,,,,,,,,,,,,,,,,,,,,,,,,0.042395562,-0.213752848,0,0,0,,,,,,,QUILL,C,z,y,./images/QUILL.png,,,,,,,,,,,,,,,,,,,,,z,1,0.7195,,,,,,,,0,100,100,115,1
,,,,,,,,,,,,,,,,,5f2599329c3df5250bb66565,29,2022-02-12_13h16.32.042,lexical_decision_task_DD_L6,2021.2.3,MacIntel,60.0024001,,,,,,,,,,,0.9246,1,,,,,,,,,,,,,,,,,,,,,,,,0.042395562,-0.213752848,0,0,0,,,,,,,HOCKEY,HB,m,y,./images/HOCKEYHB.png,,,,,,,,,,,,,,,,,,,,,m,1,0.9246,,,,,,,,0,101,101,32,1
,,,,,,,,,,,,,,,,,5f2599329c3df5250bb66565,29,2022-02-12_13h16.32.042,lexical_decision_task_DD_L6,2021.2.3,MacIntel,60.0024001,,,,,,,,,,,0.9526,1,,,,,,,,,,,,,,,,,,,,,,,,0.042395562,-0.213752848,0,0,0,,,,,,,COLLAR,LB,m,y,./images/COLLARLB.png,,,,,,,,,,,,,,,,,,,,,m,1,0.9526,,,,,,,,0,102,102,15,1
,,,,,,,,,,,,,,,,,5f2599329c3df5250bb66565,29,2022-02-12_13h16.32.042,lexical_decision_task_DD_L6,2021.2.3,MacIntel,60.0024001,,,,,,,,,,,0.9929,0,,,,,,,,,,,,,,,,,,,,,,,,0.042395562,-0.213752848,0,0,0,,,,,,,FLESH,LB,m,y,./images/FLESHLB.png,,,,,,,,,,,,,,,,,,,,,z,0,0.9929,,,,,,,,0,103,103,24,1
,,,,,,,,,,,,,,,,,5f2599329c3df5250bb66565,29,2022-02-12_13h16.32.042,lexical_decision_task_DD_L6,2021.2.3,MacIntel,60.0024001,,,,,,,,,,,1.4028,1,,,,,,,,,,,,,,,,,,,,,,,,0.042395562,-0.213752848,0,0,0,,,,,,,LIZARD,HB,z,y,./images/LIZARDHB.png,,,,,,,,,,,,,,,,,,,,,z,1,1.4028,,,,,,,,0,104,104,128,1
,,,,,,,,,,,,,,,,,5f2599329c3df5250bb66565,29,2022-02-12_13h16.32.042,lexical_decision_task_DD_L6,2021.2.3,MacIntel,60.0024001,,,,,,,,,,,0.8019,1,,,,,,,,,,,,,,,,,,,,,,,,0.042395562,-0.213752848,0,0,0,,,,,,,COOKER,LB,z,y,./images/COOKERLB.png,,,,,,,,,,,,,,,,,,,,,z,1,0.8019,,,,,,,,0,105,105,153,1
,,,,,,,,,,,,,,,,,5f2599329c3df5250bb66565,29,2022-02-12_13h16.32.042,lexical_decision_task_DD_L6,2021.2.3,MacIntel,60.0024001,,,,,,,,,,,1.4359,1,,,,,,,,,,,,,,,,,,,,,,,,0.042395562,-0.213752848,0,0,0,,,,,,,SWEAT,LB,z,y,./images/SWEATLB.png,,,,,,,,,,,,,,,,,,,,,z,1,1.4359,,,,,,,,0,106,106,150,1
,,,,,,,,,,,,,,,,,5f2599329c3df5250bb66565,29,2022-02-12_13h16.32.042,lexical_decision_task_DD_L6,2021.2.3,MacIntel,60.0024001,,,,,,,,,,,1.0526,1,,,,,,,,,,,,,,,,,,,,,,,,0.042395562,-0.213752848,0,0,0,,,,,,,CLOUD,HB,m,y,./images/CLOUDHB.png,,,,,,,,,,,,,,,,,,,,,m,1,1.0526,,,,,,,,0,107,107,26,1
,,,,,,,,,,,,,,,,,5f2599329c3df5250bb66565,29,2022-02-12_13h16.32.042,lexical_decision_task_DD_L6,2021.2.3,MacIntel,60.0024001,,,,,,,,,,,1.0349,0,,,,,,,,,,,,,,,,,,,,,,,,0.042395562,-0.213752848,0,0,0,,,,,,,CLOWN,C,m,y,./images/CLOWN.png,,,,,,,,,,,,,,,,,,,,,z,0,1.0349,,,,,,,,0,108,108,22,1
,,,,,,,,,,,,,,,,,5f2599329c3df5250bb66565,29,2022-02-12_13h16.32.042,lexical_decision_task_DD_L6,2021.2.3,MacIntel,60.0024001,,,,,,,,,,,1.9389,0,,,,,,,,,,,,,,,,,,,,,,,,0.042395562,-0.213752848,0,0,0,,,,,,,ARTIST,C,m,y,./images/ARTIST.png,,,,,,,,,,,,,,,,,,,,,z,0,1.9389,,,,,,,,0,109,109,61,1
,,,,,,,,,,,,,,,,,5f2599329c3df5250bb66565,29,2022-02-12_13h16.32.042,lexical_decision_task_DD_L6,2021.2.3,MacIntel,60.0024001,,,,,,,,,,,0.7894,1,,,,,,,,,,,,,,,,,,,,,,,,0.042395562,-0.213752848,0,0,0,,,,,,,CEMENT,HB,z,y,./images/CEMENTHB.png,,,,,,,,,,,,,,,,,,,,,z,1,0.7894,,,,,,,,0,110,110,158,1
,,,,,,,,,,,,,,,,,5f2599329c3df5250bb66565,29,2022-02-12_13h16.32.042,lexical_decision_task_DD_L6,2021.2.3,MacIntel,60.0024001,,,,,,,,,,,0.8684,1,,,,,,,,,,,,,,,,,,,,,,,,0.042395562,-0.213752848,0,0,0,,,,,,,CRUMB,HB,z,y,./images/CRUMBHB.png,,,,,,,,,,,,,,,,,,,,,z,1,0.8684,,,,,,,,0,111,111,113,1
,,,,,,,,,,,,,,,,,5f2599329c3df5250bb66565,29,2022-02-12_13h16.32.042,lexical_decision_task_DD_L6,2021.2.3,MacIntel,60.0024001,,,,,,,,,,,1.1735,1,,,,,,,,,,,,,,,,,,,,,,,,0.042395562,-0.213752848,0,0,0,,,,,,,STOVE,HB,m,y,./images/STOVEHB.png,,,,,,,,,,,,,,,,,,,,,m,1,1.1735,,,,,,,,0,112,112,2,1
,,,,,,,,,,,,,,,,,5f2599329c3df5250bb66565,29,2022-02-12_13h16.32.042,lexical_decision_task_DD_L6,2021.2.3,MacIntel,60.0024001,,,,,,,,,,,1.2861,1,,,,,,,,,,,,,,,,,,,,,,,,0.042395562,-0.213752848,0,0,0,,,,,,,CANDY,LB,m,y,./images/CANDYLB.png,,,,,,,,,,,,,,,,,,,,,m,1,1.2861,,,,,,,,0,113,113,39,1
,,,,,,,,,,,,,,,,,5f2599329c3df5250bb66565,29,2022-02-12_13h16.32.042,lexical_decision_task_DD_L6,2021.2.3,MacIntel,60.0024001,,,,,,,,,,,1.0873,1,,,,,,,,,,,,,,,,,,,,,,,,0.042395562,-0.213752848,0,0,0,,,,,,,HEATER,HB,m,y,./images/HEATERHB.png,,,,,,,,,,,,,,,,,,,,,m,1,1.0873,,,,,,,,0,114,114,56,1
,,,,,,,,,,,,,,,,,5f2599329c3df5250bb66565,29,2022-02-12_13h16.32.042,lexical_decision_task_DD_L6,2021.2.3,MacIntel,60.0024001,,,,,,,,,,,1.0522,1,,,,,,,,,,,,,,,,,,,,,,,,0.042395562,-0.213752848,0,0,0,,,,,,,GRAPE,C,m,y,./images/GRAPE.png,,,,,,,,,,,,,,,,,,,,,m,1,1.0522,,,,,,,,0,115,115,16,1
,,,,,,,,,,,,,,,,,5f2599329c3df5250bb66565,29,2022-02-12_13h16.32.042,lexical_decision_task_DD_L6,2021.2.3,MacIntel,60.0024001,,,,,,,,,,,0.9918,0,,,,,,,,,,,,,,,,,,,,,,,,0.042395562,-0.213752848,0,0,0,,,,,,,WALNUT,LB,m,y,./images/WALNUTLB.png,,,,,,,,,,,,,,,,,,,,,z,0,0.9918,,,,,,,,0,116,116,0,1
,,,,,,,,,,,,,,,,,5f2599329c3df5250bb66565,29,2022-02-12_13h16.32.042,lexical_decision_task_DD_L6,2021.2.3,MacIntel,60.0024001,,,,,,,,,,,1.1191,1,,,,,,,,,,,,,,,,,,,,,,,,0.042395562,-0.213752848,0,0,0,,,,,,,WALRUS,HB,z,y,./images/WALRUSHB.png,,,,,,,,,,,,,,,,,,,,,z,1,1.1191,,,,,,,,0,117,117,107,1
,,,,,,,,,,,,,,,,,5f2599329c3df5250bb66565,29,2022-02-12_13h16.32.042,lexical_decision_task_DD_L6,2021.2.3,MacIntel,60.0024001,,,,,,,,,,,1.324,0,,,,,,,,,,,,,,,,,,,,,,,,0.042395562,-0.213752848,0,0,0,,,,,,,BONNET,HB,z,y,./images/BONNETHB.png,,,,,,,,,,,,,,,,,,,,,m,0,1.324,,,,,,,,0,118,118,95,1
,,,,,,,,,,,,,,,,,5f2599329c3df5250bb66565,29,2022-02-12_13h16.32.042,lexical_decision_task_DD_L6,2021.2.3,MacIntel,60.0024001,,,,,,,,,,,1.0885,1,,,,,,,,,,,,,,,,,,,,,,,,0.042395562,-0.213752848,0,0,0,,,,,,,BOXER,C,m,y,./images/BOXER.png,,,,,,,,,,,,,,,,,,,,,m,1,1.0885,,,,,,,,0,119,119,4,1
,,,,,,,,,,,,,,,,,5f2599329c3df5250bb66565,29,2022-02-12_13h16.32.042,lexical_decision_task_DD_L6,2021.2.3,MacIntel,60.0024001,,,,,,,,,,,0.9901,1,,,,,,,,,,,,,,,,,,,,,,,,0.042395562,-0.213752848,0,0,0,,,,,,,CURRY,LB,m,y,./images/CURRYLB.png,,,,,,,,,,,,,,,,,,,,,m,1,0.9901,,,,,,,,0,120,120,60,1
,,,,,,,,,,,,,,,,,5f2599329c3df5250bb66565,29,2022-02-12_13h16.32.042,lexical_decision_task_DD_L6,2021.2.3,MacIntel,60.0024001,,,,,,,,,,,1.037,1,,,,,,,,,,,,,,,,,,,,,,,,0.042395562,-0.213752848,0,0,0,,,,,,,BAMBOO,HB,m,y,./images/BAMBOOHB.png,,,,,,,,,,,,,,,,,,,,,m,1,1.037,,,,,,,,0,121,121,5,1
,,,,,,,,,,,,,,,,,5f2599329c3df5250bb66565,29,2022-02-12_13h16.32.042,lexical_decision_task_DD_L6,2021.2.3,MacIntel,60.0024001,,,,,,,,,,,1.1207,0,,,,,,,,,,,,,,,,,,,,,,,,0.042395562,-0.213752848,0,0,0,,,,,,,GLOVE,C,m,y,./images/GLOVE.png,,,,,,,,,,,,,,,,,,,,,z,0,1.1207,,,,,,,,0,122,122,73,1
,,,,,,,,,,,,,,,,,5f2599329c3df5250bb66565,29,2022-02-12_13h16.32.042,lexical_decision_task_DD_L6,2021.2.3,MacIntel,60.0024001,,,,,,,,,,,1.6714,1,,,,,,,,,,,,,,,,,,,,,,,,0.042395562,-0.213752848,0,0,0,,,,,,,DIVER,LB,m,y,./images/DIVERLB.png,,,,,,,,,,,,,,,,,,,,,m,1,1.6714,,,,,,,,0,123,123,9,1
,,,,,,,,,,,,,,,,,5f2599329c3df5250bb66565,29,2022-02-12_13h16.32.042,lexical_decision_task_DD_L6,2021.2.3,MacIntel,60.0024001,,,,,,,,,,,1.0035,1,,,,,,,,,,,,,,,,,,,,,,,,0.042395562,-0.213752848,0,0,0,,,,,,,MAMMAL,HB,m,y,./images/MAMMALHB.png,,,,,,,,,,,,,,,,,,,,,m,1,1.0035,,,,,,,,0,124,124,62,1
,,,,,,,,,,,,,,,,,5f2599329c3df5250bb66565,29,2022-02-12_13h16.32.042,lexical_decision_task_DD_L6,2021.2.3,MacIntel,60.0024001,,,,,,,,,,,1.1075,0,,,,,,,,,,,,,,,,,,,,,,,,0.042395562,-0.213752848,0,0,0,space,,,,,,GARDEN,C,m,y,./images/GARDEN.png,1.0584,,,,,,,,,,,,,,,,,,,,z,0,1.1075,,,,,,,,0,125,125,10,1
,,,,,,,,,,,,,,,,,5f2599329c3df5250bb66565,29,2022-02-12_13h16.32.042,lexical_decision_task_DD_L6,2021.2.3,MacIntel,60.0024001,,,,,,,,,,,1.0259,1,,,,,,,,,,,,,,,,,,,,,,,,0.042395562,-0.213752848,0,0,0,,,,,,,MUSCLE,C,z,y,./images/MUSCLE.png,,,,,,,,,,,,,,,,,,,,,z,1,1.0259,,,,,,,,0,126,126,88,1
,,,,,,,,,,,,,,,,,5f2599329c3df5250bb66565,29,2022-02-12_13h16.32.042,lexical_decision_task_DD_L6,2021.2.3,MacIntel,60.0024001,,,,,,,,,,,1.028,1,,,,,,,,,,,,,,,,,,,,,,,,0.042395562,-0.213752848,0,0,0,,,,,,,LADDER,HB,z,y,./images/LADDERHB.png,,,,,,,,,,,,,,,,,,,,,z,1,1.028,,,,,,,,0,127,127,122,1
,,,,,,,,,,,,,,,,,5f2599329c3df5250bb66565,29,2022-02-12_13h16.32.042,lexical_decision_task_DD_L6,2021.2.3,MacIntel,60.0024001,,,,,,,,,,,0.818,1,,,,,,,,,,,,,,,,,,,,,,,,0.042395562,-0.213752848,0,0,0,,,,,,,FOLDER,LB,z,y,./images/FOLDERLB.png,,,,,,,,,,,,,,,,,,,,,z,1,0.818,,,,,,,,0,128,128,126,1
,,,,,,,,,,,,,,,,,5f2599329c3df5250bb66565,29,2022-02-12_13h16.32.042,lexical_decision_task_DD_L6,2021.2.3,MacIntel,60.0024001,,,,,,,,,,,1.2906,1,,,,,,,,,,,,,,,,,,,,,,,,0.042395562,-0.213752848,0,0,0,,,,,,,FLASK,LB,m,y,./images/FLASKLB.png,,,,,,,,,,,,,,,,,,,,,m,1,1.2906,,,,,,,,0,129,129,72,1
,,,,,,,,,,,,,,,,,5f2599329c3df5250bb66565,29,2022-02-12_13h16.32.042,lexical_decision_task_DD_L6,2021.2.3,MacIntel,60.0024001,,,,,,,,,,,0.8527,0,,,,,,,,,,,,,,,,,,,,,,,,0.042395562,-0.213752848,0,0,0,,,,,,,BRUSH,HB,m,y,./images/BRUSHHB.png,,,,,,,,,,,,,,,,,,,,,z,0,0.8527,,,,,,,,0,130,130,59,1
