key_resp.keys,instr_done_touch.x,instr_done_touch.y,instr_done_touch.leftButton,instr_done_touch.midButton,instr_done_touch.rightButton,instr_done_touch.clicked_name,instruction_pages.thisRepN,instruction_pages.thisTrialN,instruction_pages.thisN,instruction_pages.thisIndex,instruction_pages.ran,pageN,phase,instruct_text,has_image,instruct_image,participant,age,date,expName,psychopyVersion,OS,frameRate,key_resp.rt,response.keys,response.corr,response.rt,touch_resp.x,touch_resp.y,touch_resp.leftButton,touch_resp.midButton,touch_resp.rightButton,touch_resp.time,touch_resp.clicked_name,rt,corr,practrials.thisRepN,practrials.thisTrialN,practrials.thisN,practrials.thisIndex,practrials.ran,TrialID,Target,corrAns,end_of_practice_trials_pages.thisRepN,end_of_practice_trials_pages.thisTrialN,end_of_practice_trials_pages.thisN,end_of_practice_trials_pages.thisIndex,end_of_practice_trials_pages.ran,key_resp_2.keys,key_resp_2.corr,key_resp_2.rt,targ_click.x,targ_click.y,targ_click.leftButton,targ_click.midButton,targ_click.rightButton,targ_click.time,targ_click.clicked_name,break_done_touch.x,break_done_touch.y,break_done_touch.leftButton,break_done_touch.midButton,break_done_touch.rightButton,break_done_keyboard.keys,maintrials.thisRepN,maintrials.thisTrialN,maintrials.thisN,maintrials.thisIndex,maintrials.ran,string,blur,study,lex,stim_path,break_done_keyboard.rt,mouse_2.x,mouse_2.y,mouse_2.leftButton,mouse_2.midButton,mouse_2.rightButton,mouse_2.clicked_name,slider.response,slider.rt,trials.thisRepN,trials.thisTrialN,trials.thisN,trials.thisIndex,trials.ran,test_instructions.thisRepN,test_instructions.thisTrialN,test_instructions.thisN,test_instructions.thisIndex,test_instructions.ran,key_resp_3.keys,key_resp_3.corr,key_resp_3.rt,test_click.x,test_click.y,test_click.leftButton,test_click.midButton,test_click.rightButton,test_click.time,test_click.clicked_name,test_phase.thisRepN,test_phase.thisTrialN,test_phase.thisN,test_phase.thisIndex,test_phase.ran
,0.037037051,-0.375925939,1,0,0,instr_done_button,0,0,0,0,1,1,instructions,"INSTRUCTIONS
At the start of each trial, look at the plus sign  (+) in the center of the screen.  This tells you that a trial is about to begin and where to look. Second, the plus sign will disappear and a string of letters will appear. Your task is to determine if the string of letters is a word or not. If the item is a word press the M key (on keyboard)  or touch the word button (phone/tablet).  If the item is not a word,  press the  Z key (on keyboard)  or touch the nonword button (on phone/tablet). 
Press the space bar or touch  continue.",0,,5f405adcda0ade19c87826bd,32,2022-02-12_12h46.48.245,lexical_decision_task_DD_L6,2021.2.3,Win32,60.30999337,,,,,,,,,,,,,,,,,,,,,,,,,,,,,,,,,,,,,,,,,,,,,,,,,,,,,,,,,,,,,,,,,,,,,,,,,,,,,,,,,,,,,,
space,0.312962981,-0.260185197,0,0,0,,0,1,1,1,1,2,instructions,"If your device has a keyboard, press the 'Z' key for nonwords and the 'M' key for words.





Press the space bar or touch the button below to continue.",0,keyboard-example.gif,5f405adcda0ade19c87826bd,32,2022-02-12_12h46.48.245,lexical_decision_task_DD_L6,2021.2.3,Win32,60.30999337,8.4034,,,,,,,,,,,,,,,,,,,,,,,,,,,,,,,,,,,,,,,,,,,,,,,,,,,,,,,,,,,,,,,,,,,,,,,,,,,,,,,,,,,,,
space,0.312962981,-0.260185197,0,0,0,,0,2,2,2,1,3,instructions,"If you are using a touchscreen only device, use the buttons on the screen. Do not use the mouse.





Press the space bar or touch the button below to continue.",0,touchscreen-example.gif,5f405adcda0ade19c87826bd,32,2022-02-12_12h46.48.245,lexical_decision_task_DD_L6,2021.2.3,Win32,60.30999337,5.1335,,,,,,,,,,,,,,,,,,,,,,,,,,,,,,,,,,,,,,,,,,,,,,,,,,,,,,,,,,,,,,,,,,,,,,,,,,,,,,,,,,,,,
space,0.312962981,-0.260185197,0,0,0,,0,3,3,3,1,4,instructions,"It is very important that you respond as quickly and accurately as possible, as each letter string will only be on the screen for two seconds. If you do not respond within this time, the message 'Too slow!' will be displayed and the experiment will progress to the next letter string. The first 20 trials will be practice trials and you will receive feedback on your answers. 

Press the space bar or touch the button below to start the practice trials.",0,,5f405adcda0ade19c87826bd,32,2022-02-12_12h46.48.245,lexical_decision_task_DD_L6,2021.2.3,Win32,60.30999337,12.896,,,,,,,,,,,,,,,,,,,,,,,,,,,,,,,,,,,,,,,,,,,,,,,,,,,,,,,,,,,,,,,,,,,,,,,,,,,,,,,,,,,,,
,,,,,,,,,,,,,,,,,5f405adcda0ade19c87826bd,32,2022-02-12_12h46.48.245,lexical_decision_task_DD_L6,2021.2.3,Win32,60.30999337,,z,1,1.1268,,,,,,,,1.1268,1,0,0,0,13,1,1001,ROUPET,z,,,,,,,,,,,,,,,,,,,,,,,,,,,,,,,,,,,,,,,,,,,,,,,,,,,,,,,,,,,,,,,,,
,,,,,,,,,,,,,,,,,5f405adcda0ade19c87826bd,32,2022-02-12_12h46.48.245,lexical_decision_task_DD_L6,2021.2.3,Win32,60.30999337,,m,1,0.6424,,,,,,,,0.6424,1,0,1,1,1,1,1001,ADJUST,m,,,,,,,,,,,,,,,,,,,,,,,,,,,,,,,,,,,,,,,,,,,,,,,,,,,,,,,,,,,,,,,,,
,,,,,,,,,,,,,,,,,5f405adcda0ade19c87826bd,32,2022-02-12_12h46.48.245,lexical_decision_task_DD_L6,2021.2.3,Win32,60.30999337,,m,1,0.5509,,,,,,,,0.5509,1,0,2,2,4,1,1001,SQUEAK,m,,,,,,,,,,,,,,,,,,,,,,,,,,,,,,,,,,,,,,,,,,,,,,,,,,,,,,,,,,,,,,,,,
,,,,,,,,,,,,,,,,,5f405adcda0ade19c87826bd,32,2022-02-12_12h46.48.245,lexical_decision_task_DD_L6,2021.2.3,Win32,60.30999337,,m,1,0.5577,,,,,,,,0.5577,1,0,3,3,2,1,1001,ALMOND,m,,,,,,,,,,,,,,,,,,,,,,,,,,,,,,,,,,,,,,,,,,,,,,,,,,,,,,,,,,,,,,,,,
,,,,,,,,,,,,,,,,,5f405adcda0ade19c87826bd,32,2022-02-12_12h46.48.245,lexical_decision_task_DD_L6,2021.2.3,Win32,60.30999337,,z,1,0.6473,,,,,,,,0.6473,1,0,4,4,8,1,1001,ASLERT,z,,,,,,,,,,,,,,,,,,,,,,,,,,,,,,,,,,,,,,,,,,,,,,,,,,,,,,,,,,,,,,,,,
,,,,,,,,,,,,,,,,,5f405adcda0ade19c87826bd,32,2022-02-12_12h46.48.245,lexical_decision_task_DD_L6,2021.2.3,Win32,60.30999337,,z,1,0.8271,,,,,,,,0.8271,1,0,5,5,10,1,1001,INLADE,z,,,,,,,,,,,,,,,,,,,,,,,,,,,,,,,,,,,,,,,,,,,,,,,,,,,,,,,,,,,,,,,,,
,,,,,,,,,,,,,,,,,5f405adcda0ade19c87826bd,32,2022-02-12_12h46.48.245,lexical_decision_task_DD_L6,2021.2.3,Win32,60.30999337,,m,1,0.5485,,,,,,,,0.5485,1,0,6,6,7,1,1001,VOLUME,m,,,,,,,,,,,,,,,,,,,,,,,,,,,,,,,,,,,,,,,,,,,,,,,,,,,,,,,,,,,,,,,,,
,,,,,,,,,,,,,,,,,5f405adcda0ade19c87826bd,32,2022-02-12_12h46.48.245,lexical_decision_task_DD_L6,2021.2.3,Win32,60.30999337,,z,1,0.8861,,,,,,,,0.8861,1,0,7,7,14,1,1001,THRALE,z,,,,,,,,,,,,,,,,,,,,,,,,,,,,,,,,,,,,,,,,,,,,,,,,,,,,,,,,,,,,,,,,,
,,,,,,,,,,,,,,,,,5f405adcda0ade19c87826bd,32,2022-02-12_12h46.48.245,lexical_decision_task_DD_L6,2021.2.3,Win32,60.30999337,,z,1,0.6683,,,,,,,,0.6683,1,0,8,8,9,1,1001,FARINY,z,,,,,,,,,,,,,,,,,,,,,,,,,,,,,,,,,,,,,,,,,,,,,,,,,,,,,,,,,,,,,,,,,
,,,,,,,,,,,,,,,,,5f405adcda0ade19c87826bd,32,2022-02-12_12h46.48.245,lexical_decision_task_DD_L6,2021.2.3,Win32,60.30999337,,m,1,0.6477,,,,,,,,0.6477,1,0,9,9,0,1,1001,UTOPIA,m,,,,,,,,,,,,,,,,,,,,,,,,,,,,,,,,,,,,,,,,,,,,,,,,,,,,,,,,,,,,,,,,,
,,,,,,,,,,,,,,,,,5f405adcda0ade19c87826bd,32,2022-02-12_12h46.48.245,lexical_decision_task_DD_L6,2021.2.3,Win32,60.30999337,,z,1,0.6942,,,,,,,,0.6942,1,0,10,10,15,1,1001,WHAISE,z,,,,,,,,,,,,,,,,,,,,,,,,,,,,,,,,,,,,,,,,,,,,,,,,,,,,,,,,,,,,,,,,,
,,,,,,,,,,,,,,,,,5f405adcda0ade19c87826bd,32,2022-02-12_12h46.48.245,lexical_decision_task_DD_L6,2021.2.3,Win32,60.30999337,,m,1,0.5234,,,,,,,,0.5234,1,0,11,11,5,1,1001,OBTAIN,m,,,,,,,,,,,,,,,,,,,,,,,,,,,,,,,,,,,,,,,,,,,,,,,,,,,,,,,,,,,,,,,,,
,,,,,,,,,,,,,,,,,5f405adcda0ade19c87826bd,32,2022-02-12_12h46.48.245,lexical_decision_task_DD_L6,2021.2.3,Win32,60.30999337,,z,1,0.7217,,,,,,,,0.7217,1,0,12,12,12,1,1001,SPRINY,z,,,,,,,,,,,,,,,,,,,,,,,,,,,,,,,,,,,,,,,,,,,,,,,,,,,,,,,,,,,,,,,,,
,,,,,,,,,,,,,,,,,5f405adcda0ade19c87826bd,32,2022-02-12_12h46.48.245,lexical_decision_task_DD_L6,2021.2.3,Win32,60.30999337,,m,1,0.5437,,,,,,,,0.5437,1,0,13,13,3,1,1001,MATRIX,m,,,,,,,,,,,,,,,,,,,,,,,,,,,,,,,,,,,,,,,,,,,,,,,,,,,,,,,,,,,,,,,,,
,,,,,,,,,,,,,,,,,5f405adcda0ade19c87826bd,32,2022-02-12_12h46.48.245,lexical_decision_task_DD_L6,2021.2.3,Win32,60.30999337,,m,1,0.5864,,,,,,,,0.5864,1,0,14,14,6,1,1001,ZOMBIE,m,,,,,,,,,,,,,,,,,,,,,,,,,,,,,,,,,,,,,,,,,,,,,,,,,,,,,,,,,,,,,,,,,
,,,,,,,,,,,,,,,,,5f405adcda0ade19c87826bd,32,2022-02-12_12h46.48.245,lexical_decision_task_DD_L6,2021.2.3,Win32,60.30999337,,z,1,0.6841,,,,,,,,0.6841,1,0,15,15,11,1,1001,RASHET,z,,,,,,,,,,,,,,,,,,,,,,,,,,,,,,,,,,,,,,,,,,,,,,,,,,,,,,,,,,,,,,,,,
space,0.312962981,-0.260185197,0,0,0,,,,,,,1,end_of_practice,"You have completed the practice trials. During the experimental trials, you will not receive feedback. 
Before you begin, please ensure that you are in a comfortable and quiet location and will not be disturbed for about 15 minutes, as we cannot use your data if you do not complete all the trials. 
 When you are ready to start the experimental trials, please press space or touch the button below.",,,5f405adcda0ade19c87826bd,32,2022-02-12_12h46.48.245,lexical_decision_task_DD_L6,2021.2.3,Win32,60.30999337,8.4838,,,,,,,,,,,,,,,,,,,,,0,0,0,0,1,,,,,,,,,,,,,,,,,,,,,,,,,,,,,,,,,,,,,,,,,,,,,,,,,,,,,,,,,,,,
,,,,,,,,,,,,,,,,,5f405adcda0ade19c87826bd,32,2022-02-12_12h46.48.245,lexical_decision_task_DD_L6,2021.2.3,Win32,60.30999337,,,,,,,,,,,,0.7051,1,,,,,,,,,,,,,,m,1,0.7051,,,,,,,,0.312962981,-0.260185197,0,0,0,,0,0,0,49,1,BISHOP,C,m,m,./images/BISHOP.png,,,,,,,,,,,,,,,,,,,,,,,,,,,,,,,,,,
,,,,,,,,,,,,,,,,,5f405adcda0ade19c87826bd,32,2022-02-12_12h46.48.245,lexical_decision_task_DD_L6,2021.2.3,Win32,60.30999337,,,,,,,,,,,,1.2129,1,,,,,,,,,,,,,,z,1,1.2129,,,,,,,,0.312962981,-0.260185197,0,0,0,,0,1,1,109,1,BURGE,HB,z,z,./images/BURGEHB.png,,,,,,,,,,,,,,,,,,,,,,,,,,,,,,,,,,
,,,,,,,,,,,,,,,,,5f405adcda0ade19c87826bd,32,2022-02-12_12h46.48.245,lexical_decision_task_DD_L6,2021.2.3,Win32,60.30999337,,,,,,,,,,,,0.6584,1,,,,,,,,,,,,,,m,1,0.6584,,,,,,,,0.312962981,-0.260185197,0,0,0,,0,2,2,66,1,STATUE,LB,m,m,./images/STATUELB.png,,,,,,,,,,,,,,,,,,,,,,,,,,,,,,,,,,
,,,,,,,,,,,,,,,,,5f405adcda0ade19c87826bd,32,2022-02-12_12h46.48.245,lexical_decision_task_DD_L6,2021.2.3,Win32,60.30999337,,,,,,,,,,,,0.7076,1,,,,,,,,,,,,,,z,1,0.7076,,,,,,,,0.312962981,-0.260185197,0,0,0,,0,3,3,152,1,FRAIN,LB,z,z,./images/FRAINLB.png,,,,,,,,,,,,,,,,,,,,,,,,,,,,,,,,,,
,,,,,,,,,,,,,,,,,5f405adcda0ade19c87826bd,32,2022-02-12_12h46.48.245,lexical_decision_task_DD_L6,2021.2.3,Win32,60.30999337,,,,,,,,,,,,0.7357,0,,,,,,,,,,,,,,z,0,0.7357,,,,,,,,0.312962981,-0.260185197,0,0,0,,0,4,4,83,1,WHISKY,HB,m,m,./images/WHISKYHB.png,,,,,,,,,,,,,,,,,,,,,,,,,,,,,,,,,,
,,,,,,,,,,,,,,,,,5f405adcda0ade19c87826bd,32,2022-02-12_12h46.48.245,lexical_decision_task_DD_L6,2021.2.3,Win32,60.30999337,,,,,,,,,,,,0.6468,1,,,,,,,,,,,,,,m,1,0.6468,,,,,,,,0.312962981,-0.260185197,0,0,0,,0,5,5,23,1,CLOTH,HB,m,m,./images/CLOTHHB.png,,,,,,,,,,,,,,,,,,,,,,,,,,,,,,,,,,
,,,,,,,,,,,,,,,,,5f405adcda0ade19c87826bd,32,2022-02-12_12h46.48.245,lexical_decision_task_DD_L6,2021.2.3,Win32,60.30999337,,,,,,,,,,,,0.7008,1,,,,,,,,,,,,,,z,1,0.7008,,,,,,,,0.312962981,-0.260185197,0,0,0,,0,6,6,98,1,BAMPS,LB,z,z,./images/BAMPSLB.png,,,,,,,,,,,,,,,,,,,,,,,,,,,,,,,,,,
,,,,,,,,,,,,,,,,,5f405adcda0ade19c87826bd,32,2022-02-12_12h46.48.245,lexical_decision_task_DD_L6,2021.2.3,Win32,60.30999337,,,,,,,,,,,,0.8171,1,,,,,,,,,,,,,,m,1,0.8171,,,,,,,,0.312962981,-0.260185197,0,0,0,,0,7,7,35,1,LLAMA,HB,m,m,./images/LLAMAHB.png,,,,,,,,,,,,,,,,,,,,,,,,,,,,,,,,,,
,,,,,,,,,,,,,,,,,5f405adcda0ade19c87826bd,32,2022-02-12_12h46.48.245,lexical_decision_task_DD_L6,2021.2.3,Win32,60.30999337,,,,,,,,,,,,0.685,1,,,,,,,,,,,,,,m,1,0.685,,,,,,,,0.312962981,-0.260185197,0,0,0,,0,8,8,4,1,BOXER,C,m,m,./images/BOXER.png,,,,,,,,,,,,,,,,,,,,,,,,,,,,,,,,,,
,,,,,,,,,,,,,,,,,5f405adcda0ade19c87826bd,32,2022-02-12_12h46.48.245,lexical_decision_task_DD_L6,2021.2.3,Win32,60.30999337,,,,,,,,,,,,0.6699,1,,,,,,,,,,,,,,m,1,0.6699,,,,,,,,0.312962981,-0.260185197,0,0,0,,0,9,9,2,1,STOVE,HB,m,m,./images/STOVEHB.png,,,,,,,,,,,,,,,,,,,,,,,,,,,,,,,,,,
,,,,,,,,,,,,,,,,,5f405adcda0ade19c87826bd,32,2022-02-12_12h46.48.245,lexical_decision_task_DD_L6,2021.2.3,Win32,60.30999337,,,,,,,,,,,,0.5603,1,,,,,,,,,,,,,,m,1,0.5603,,,,,,,,0.312962981,-0.260185197,0,0,0,,0,10,10,69,1,ARROW,LB,m,m,./images/ARROWLB.png,,,,,,,,,,,,,,,,,,,,,,,,,,,,,,,,,,
,,,,,,,,,,,,,,,,,5f405adcda0ade19c87826bd,32,2022-02-12_12h46.48.245,lexical_decision_task_DD_L6,2021.2.3,Win32,60.30999337,,,,,,,,,,,,0.8717,1,,,,,,,,,,,,,,z,1,0.8717,,,,,,,,0.312962981,-0.260185197,0,0,0,,0,11,11,124,1,TUNCH,HB,z,z,./images/TUNCHHB.png,,,,,,,,,,,,,,,,,,,,,,,,,,,,,,,,,,
,,,,,,,,,,,,,,,,,5f405adcda0ade19c87826bd,32,2022-02-12_12h46.48.245,lexical_decision_task_DD_L6,2021.2.3,Win32,60.30999337,,,,,,,,,,,,0.5738,1,,,,,,,,,,,,,,m,1,0.5738,,,,,,,,0.312962981,-0.260185197,0,0,0,,0,12,12,57,1,FERRY,LB,m,m,./images/FERRYLB.png,,,,,,,,,,,,,,,,,,,,,,,,,,,,,,,,,,
,,,,,,,,,,,,,,,,,5f405adcda0ade19c87826bd,32,2022-02-12_12h46.48.245,lexical_decision_task_DD_L6,2021.2.3,Win32,60.30999337,,,,,,,,,,,,0.6401,1,,,,,,,,,,,,,,z,1,0.6401,,,,,,,,0.312962981,-0.260185197,0,0,0,,0,13,13,96,1,KEAMS,C,z,z,./images/KEAMS.png,,,,,,,,,,,,,,,,,,,,,,,,,,,,,,,,,,
,,,,,,,,,,,,,,,,,5f405adcda0ade19c87826bd,32,2022-02-12_12h46.48.245,lexical_decision_task_DD_L6,2021.2.3,Win32,60.30999337,,,,,,,,,,,,0.7444,1,,,,,,,,,,,,,,z,1,0.7444,,,,,,,,0.312962981,-0.260185197,0,0,0,,0,14,14,95,1,HANTY,LB,z,z,./images/HANTYLB.png,,,,,,,,,,,,,,,,,,,,,,,,,,,,,,,,,,
,,,,,,,,,,,,,,,,,5f405adcda0ade19c87826bd,32,2022-02-12_12h46.48.245,lexical_decision_task_DD_L6,2021.2.3,Win32,60.30999337,,,,,,,,,,,,0.7358,1,,,,,,,,,,,,,,m,1,0.7358,,,,,,,,0.312962981,-0.260185197,0,0,0,,0,15,15,41,1,STREAM,HB,m,m,./images/STREAMHB.png,,,,,,,,,,,,,,,,,,,,,,,,,,,,,,,,,,
,,,,,,,,,,,,,,,,,5f405adcda0ade19c87826bd,32,2022-02-12_12h46.48.245,lexical_decision_task_DD_L6,2021.2.3,Win32,60.30999337,,,,,,,,,,,,1.5332,1,,,,,,,,,,,,,,z,1,1.5332,,,,,,,,0.312962981,-0.260185197,0,0,0,,0,16,16,112,1,MYING,HB,z,z,./images/MYINGHB.png,,,,,,,,,,,,,,,,,,,,,,,,,,,,,,,,,,
,,,,,,,,,,,,,,,,,5f405adcda0ade19c87826bd,32,2022-02-12_12h46.48.245,lexical_decision_task_DD_L6,2021.2.3,Win32,60.30999337,,,,,,,,,,,,1.0875,1,,,,,,,,,,,,,,z,1,1.0875,,,,,,,,0.312962981,-0.260185197,0,0,0,,0,17,17,157,1,INLER,HB,z,z,./images/INLERHB.png,,,,,,,,,,,,,,,,,,,,,,,,,,,,,,,,,,
,,,,,,,,,,,,,,,,,5f405adcda0ade19c87826bd,32,2022-02-12_12h46.48.245,lexical_decision_task_DD_L6,2021.2.3,Win32,60.30999337,,,,,,,,,,,,0.6345,1,,,,,,,,,,,,,,m,1,0.6345,,,,,,,,0.312962981,-0.260185197,0,0,0,,0,18,18,44,1,BASKET,HB,m,m,./images/BASKETHB.png,,,,,,,,,,,,,,,,,,,,,,,,,,,,,,,,,,
,,,,,,,,,,,,,,,,,5f405adcda0ade19c87826bd,32,2022-02-12_12h46.48.245,lexical_decision_task_DD_L6,2021.2.3,Win32,60.30999337,,,,,,,,,,,,0.6029,1,,,,,,,,,,,,,,m,1,0.6029,,,,,,,,0.312962981,-0.260185197,0,0,0,,0,19,19,24,1,FLESH,LB,m,m,./images/FLESHLB.png,,,,,,,,,,,,,,,,,,,,,,,,,,,,,,,,,,
,,,,,,,,,,,,,,,,,5f405adcda0ade19c87826bd,32,2022-02-12_12h46.48.245,lexical_decision_task_DD_L6,2021.2.3,Win32,60.30999337,,,,,,,,,,,,0.9141,1,,,,,,,,,,,,,,z,1,0.9141,,,,,,,,0.312962981,-0.260185197,0,0,0,,0,20,20,94,1,BLANS,HB,z,z,./images/BLANSHB.png,,,,,,,,,,,,,,,,,,,,,,,,,,,,,,,,,,
,,,,,,,,,,,,,,,,,5f405adcda0ade19c87826bd,32,2022-02-12_12h46.48.245,lexical_decision_task_DD_L6,2021.2.3,Win32,60.30999337,,,,,,,,,,,,0.5976,1,,,,,,,,,,,,,,m,1,0.5976,,,,,,,,0.312962981,-0.260185197,0,0,0,,0,21,21,34,1,RAZOR,C,m,m,./images/RAZOR.png,,,,,,,,,,,,,,,,,,,,,,,,,,,,,,,,,,
,,,,,,,,,,,,,,,,,5f405adcda0ade19c87826bd,32,2022-02-12_12h46.48.245,lexical_decision_task_DD_L6,2021.2.3,Win32,60.30999337,,,,,,,,,,,,0.5521,1,,,,,,,,,,,,,,m,1,0.5521,,,,,,,,0.312962981,-0.260185197,0,0,0,,0,22,22,54,1,CHERRY,LB,m,m,./images/CHERRYLB.png,,,,,,,,,,,,,,,,,,,,,,,,,,,,,,,,,,
,,,,,,,,,,,,,,,,,5f405adcda0ade19c87826bd,32,2022-02-12_12h46.48.245,lexical_decision_task_DD_L6,2021.2.3,Win32,60.30999337,,,,,,,,,,,,0.5834,1,,,,,,,,,,,,,,m,1,0.5834,,,,,,,,0.312962981,-0.260185197,0,0,0,,0,23,23,61,1,ARTIST,C,m,m,./images/ARTIST.png,,,,,,,,,,,,,,,,,,,,,,,,,,,,,,,,,,
,,,,,,,,,,,,,,,,,5f405adcda0ade19c87826bd,32,2022-02-12_12h46.48.245,lexical_decision_task_DD_L6,2021.2.3,Win32,60.30999337,,,,,,,,,,,,0.6173,1,,,,,,,,,,,,,,z,1,0.6173,,,,,,,,0.312962981,-0.260185197,0,0,0,,0,24,24,89,1,DRIEK,LB,z,z,./images/DRIEKLB.png,,,,,,,,,,,,,,,,,,,,,,,,,,,,,,,,,,
,,,,,,,,,,,,,,,,,5f405adcda0ade19c87826bd,32,2022-02-12_12h46.48.245,lexical_decision_task_DD_L6,2021.2.3,Win32,60.30999337,,,,,,,,,,,,0.7024,1,,,,,,,,,,,,,,z,1,0.7024,,,,,,,,0.312962981,-0.260185197,0,0,0,,0,25,25,107,1,FASKS,LB,z,z,./images/FASKSLB.png,,,,,,,,,,,,,,,,,,,,,,,,,,,,,,,,,,
,,,,,,,,,,,,,,,,,5f405adcda0ade19c87826bd,32,2022-02-12_12h46.48.245,lexical_decision_task_DD_L6,2021.2.3,Win32,60.30999337,,,,,,,,,,,,0.7285,0,,,,,,,,,,,,,,m,0,0.7285,,,,,,,,0.312962981,-0.260185197,0,0,0,,0,26,26,145,1,LAMEL,HB,z,z,./images/LAMELHB.png,,,,,,,,,,,,,,,,,,,,,,,,,,,,,,,,,,
,,,,,,,,,,,,,,,,,5f405adcda0ade19c87826bd,32,2022-02-12_12h46.48.245,lexical_decision_task_DD_L6,2021.2.3,Win32,60.30999337,,,,,,,,,,,,0.8177,1,,,,,,,,,,,,,,z,1,0.8177,,,,,,,,0.312962981,-0.260185197,0,0,0,,0,27,27,84,1,HAXES,C,z,z,./images/HAXES.png,,,,,,,,,,,,,,,,,,,,,,,,,,,,,,,,,,
,,,,,,,,,,,,,,,,,5f405adcda0ade19c87826bd,32,2022-02-12_12h46.48.245,lexical_decision_task_DD_L6,2021.2.3,Win32,60.30999337,,,,,,,,,,,,0.5584,1,,,,,,,,,,,,,,m,1,0.5584,,,,,,,,0.312962981,-0.260185197,0,0,0,,0,28,28,40,1,SNAKE,C,m,m,./images/SNAKE.png,,,,,,,,,,,,,,,,,,,,,,,,,,,,,,,,,,
,,,,,,,,,,,,,,,,,5f405adcda0ade19c87826bd,32,2022-02-12_12h46.48.245,lexical_decision_task_DD_L6,2021.2.3,Win32,60.30999337,,,,,,,,,,,,0.552,1,,,,,,,,,,,,,,m,1,0.552,,,,,,,,0.312962981,-0.260185197,0,0,0,,0,29,29,15,1,COLLAR,LB,m,m,./images/COLLARLB.png,,,,,,,,,,,,,,,,,,,,,,,,,,,,,,,,,,
,,,,,,,,,,,,,,,,,5f405adcda0ade19c87826bd,32,2022-02-12_12h46.48.245,lexical_decision_task_DD_L6,2021.2.3,Win32,60.30999337,,,,,,,,,,,,0.5834,1,,,,,,,,,,,,,,m,1,0.5834,,,,,,,,0.312962981,-0.260185197,0,0,0,,0,30,30,30,1,SLOPE,LB,m,m,./images/SLOPELB.png,,,,,,,,,,,,,,,,,,,,,,,,,,,,,,,,,,
,,,,,,,,,,,,,,,,,5f405adcda0ade19c87826bd,32,2022-02-12_12h46.48.245,lexical_decision_task_DD_L6,2021.2.3,Win32,60.30999337,,,,,,,,,,,,0.6561,1,,,,,,,,,,,,,,z,1,0.6561,,,,,,,,0.312962981,-0.260185197,0,0,0,,0,31,31,164,1,SGREW,LB,z,z,./images/SGREWLB.png,,,,,,,,,,,,,,,,,,,,,,,,,,,,,,,,,,
,,,,,,,,,,,,,,,,,5f405adcda0ade19c87826bd,32,2022-02-12_12h46.48.245,lexical_decision_task_DD_L6,2021.2.3,Win32,60.30999337,,,,,,,,,,,,0.5673,1,,,,,,,,,,,,,,m,1,0.5673,,,,,,,,0.312962981,-0.260185197,0,0,0,,0,32,32,9,1,DIVER,LB,m,m,./images/DIVERLB.png,,,,,,,,,,,,,,,,,,,,,,,,,,,,,,,,,,
,,,,,,,,,,,,,,,,,5f405adcda0ade19c87826bd,32,2022-02-12_12h46.48.245,lexical_decision_task_DD_L6,2021.2.3,Win32,60.30999337,,,,,,,,,,,,0.6665,1,,,,,,,,,,,,,,m,1,0.6665,,,,,,,,0.312962981,-0.260185197,0,0,0,,0,33,33,32,1,HOCKEY,HB,m,m,./images/HOCKEYHB.png,,,,,,,,,,,,,,,,,,,,,,,,,,,,,,,,,,
,,,,,,,,,,,,,,,,,5f405adcda0ade19c87826bd,32,2022-02-12_12h46.48.245,lexical_decision_task_DD_L6,2021.2.3,Win32,60.30999337,,,,,,,,,,,,0.6336,1,,,,,,,,,,,,,,z,1,0.6336,,,,,,,,0.312962981,-0.260185197,0,0,0,,0,34,34,101,1,GLEET,LB,z,z,./images/GLEETLB.png,,,,,,,,,,,,,,,,,,,,,,,,,,,,,,,,,,
,,,,,,,,,,,,,,,,,5f405adcda0ade19c87826bd,32,2022-02-12_12h46.48.245,lexical_decision_task_DD_L6,2021.2.3,Win32,60.30999337,,,,,,,,,,,,0.5235,1,,,,,,,,,,,,,,m,1,0.5235,,,,,,,,0.312962981,-0.260185197,0,0,0,,0,35,35,67,1,POKER,C,m,m,./images/POKER.png,,,,,,,,,,,,,,,,,,,,,,,,,,,,,,,,,,
,,,,,,,,,,,,,,,,,5f405adcda0ade19c87826bd,32,2022-02-12_12h46.48.245,lexical_decision_task_DD_L6,2021.2.3,Win32,60.30999337,,,,,,,,,,,,0.5438,1,,,,,,,,,,,,,,m,1,0.5438,,,,,,,,0.312962981,-0.260185197,0,0,0,,0,36,36,45,1,MONKEY,LB,m,m,./images/MONKEYLB.png,,,,,,,,,,,,,,,,,,,,,,,,,,,,,,,,,,
,,,,,,,,,,,,,,,,,5f405adcda0ade19c87826bd,32,2022-02-12_12h46.48.245,lexical_decision_task_DD_L6,2021.2.3,Win32,60.30999337,,,,,,,,,,,,0.5289,1,,,,,,,,,,,,,,z,1,0.5289,,,,,,,,0.312962981,-0.260185197,0,0,0,,0,37,37,161,1,BLAPS,LB,z,z,./images/BLAPSLB.png,,,,,,,,,,,,,,,,,,,,,,,,,,,,,,,,,,
,,,,,,,,,,,,,,,,,5f405adcda0ade19c87826bd,32,2022-02-12_12h46.48.245,lexical_decision_task_DD_L6,2021.2.3,Win32,60.30999337,,,,,,,,,,,,0.5698,1,,,,,,,,,,,,,,m,1,0.5698,,,,,,,,0.312962981,-0.260185197,0,0,0,,0,38,38,39,1,CANDY,LB,m,m,./images/CANDYLB.png,,,,,,,,,,,,,,,,,,,,,,,,,,,,,,,,,,
,,,,,,,,,,,,,,,,,5f405adcda0ade19c87826bd,32,2022-02-12_12h46.48.245,lexical_decision_task_DD_L6,2021.2.3,Win32,60.30999337,,,,,,,,,,,,0.6353,1,,,,,,,,,,,,,,z,1,0.6353,,,,,,,,0.312962981,-0.260185197,0,0,0,,0,39,39,123,1,SEDGE,C,z,z,./images/SEDGE.png,,,,,,,,,,,,,,,,,,,,,,,,,,,,,,,,,,
,,,,,,,,,,,,,,,,,5f405adcda0ade19c87826bd,32,2022-02-12_12h46.48.245,lexical_decision_task_DD_L6,2021.2.3,Win32,60.30999337,,,,,,,,,,,,0.9175,1,,,,,,,,,,,,,,z,1,0.9175,,,,,,,,0.312962981,-0.260185197,0,0,0,,0,40,40,85,1,CHULK,HB,z,z,./images/CHULKHB.png,,,,,,,,,,,,,,,,,,,,,,,,,,,,,,,,,,
,,,,,,,,,,,,,,,,,5f405adcda0ade19c87826bd,32,2022-02-12_12h46.48.245,lexical_decision_task_DD_L6,2021.2.3,Win32,60.30999337,,,,,,,,,,,,0.6865,1,,,,,,,,,,,,,,z,1,0.6865,,,,,,,,0.312962981,-0.260185197,0,0,0,space,0,41,41,99,1,BACKY,C,z,z,./images/BACKY.png,7.0973,,,,,,,,,,,,,,,,,,,,,,,,,,,,,,,,,
,,,,,,,,,,,,,,,,,5f405adcda0ade19c87826bd,32,2022-02-12_12h46.48.245,lexical_decision_task_DD_L6,2021.2.3,Win32,60.30999337,,,,,,,,,,,,0.6223,1,,,,,,,,,,,,,,z,1,0.6223,,,,,,,,0.312962981,-0.260185197,0,0,0,,0,42,42,131,1,NACES,LB,z,z,./images/NACESLB.png,,,,,,,,,,,,,,,,,,,,,,,,,,,,,,,,,,
,,,,,,,,,,,,,,,,,5f405adcda0ade19c87826bd,32,2022-02-12_12h46.48.245,lexical_decision_task_DD_L6,2021.2.3,Win32,60.30999337,,,,,,,,,,,,1.0947,1,,,,,,,,,,,,,,m,1,1.0947,,,,,,,,0.312962981,-0.260185197,0,0,0,,0,43,43,71,1,BUBBLE,HB,m,m,./images/BUBBLEHB.png,,,,,,,,,,,,,,,,,,,,,,,,,,,,,,,,,,
,,,,,,,,,,,,,,,,,5f405adcda0ade19c87826bd,32,2022-02-12_12h46.48.245,lexical_decision_task_DD_L6,2021.2.3,Win32,60.30999337,,,,,,,,,,,,0.6858,1,,,,,,,,,,,,,,z,1,0.6858,,,,,,,,0.312962981,-0.260185197,0,0,0,,0,44,44,137,1,JOOST,LB,z,z,./images/JOOSTLB.png,,,,,,,,,,,,,,,,,,,,,,,,,,,,,,,,,,
,,,,,,,,,,,,,,,,,5f405adcda0ade19c87826bd,32,2022-02-12_12h46.48.245,lexical_decision_task_DD_L6,2021.2.3,Win32,60.30999337,,,,,,,,,,,,0.6878,1,,,,,,,,,,,,,,z,1,0.6878,,,,,,,,0.312962981,-0.260185197,0,0,0,,0,45,45,93,1,SMONE,C,z,z,./images/SMONE.png,,,,,,,,,,,,,,,,,,,,,,,,,,,,,,,,,,
,,,,,,,,,,,,,,,,,5f405adcda0ade19c87826bd,32,2022-02-12_12h46.48.245,lexical_decision_task_DD_L6,2021.2.3,Win32,60.30999337,,,,,,,,,,,,0.5524,1,,,,,,,,,,,,,,m,1,0.5524,,,,,,,,0.312962981,-0.260185197,0,0,0,,0,46,46,73,1,GLOVE,C,m,m,./images/GLOVE.png,,,,,,,,,,,,,,,,,,,,,,,,,,,,,,,,,,
,,,,,,,,,,,,,,,,,5f405adcda0ade19c87826bd,32,2022-02-12_12h46.48.245,lexical_decision_task_DD_L6,2021.2.3,Win32,60.30999337,,,,,,,,,,,,0.735,1,,,,,,,,,,,,,,z,1,0.735,,,,,,,,0.312962981,-0.260185197,0,0,0,,0,47,47,115,1,MAWNS,HB,z,z,./images/MAWNSHB.png,,,,,,,,,,,,,,,,,,,,,,,,,,,,,,,,,,
,,,,,,,,,,,,,,,,,5f405adcda0ade19c87826bd,32,2022-02-12_12h46.48.245,lexical_decision_task_DD_L6,2021.2.3,Win32,60.30999337,,,,,,,,,,,,0.5561,1,,,,,,,,,,,,,,m,1,0.5561,,,,,,,,0.312962981,-0.260185197,0,0,0,,0,48,48,63,1,BAKER,LB,m,m,./images/BAKERLB.png,,,,,,,,,,,,,,,,,,,,,,,,,,,,,,,,,,
,,,,,,,,,,,,,,,,,5f405adcda0ade19c87826bd,32,2022-02-12_12h46.48.245,lexical_decision_task_DD_L6,2021.2.3,Win32,60.30999337,,,,,,,,,,,,0.6221,1,,,,,,,,,,,,,,z,1,0.6221,,,,,,,,0.312962981,-0.260185197,0,0,0,,0,49,49,86,1,AIFED,LB,z,z,./images/AIFEDLB.png,,,,,,,,,,,,,,,,,,,,,,,,,,,,,,,,,,
,,,,,,,,,,,,,,,,,5f405adcda0ade19c87826bd,32,2022-02-12_12h46.48.245,lexical_decision_task_DD_L6,2021.2.3,Win32,60.30999337,,,,,,,,,,,,0.5342,0,,,,,,,,,,,,,,m,0,0.5342,,,,,,,,0.312962981,-0.260185197,0,0,0,,0,50,50,159,1,CUDDY,C,z,z,./images/CUDDY.png,,,,,,,,,,,,,,,,,,,,,,,,,,,,,,,,,,
,,,,,,,,,,,,,,,,,5f405adcda0ade19c87826bd,32,2022-02-12_12h46.48.245,lexical_decision_task_DD_L6,2021.2.3,Win32,60.30999337,,,,,,,,,,,,1.0942,0,,,,,,,,,,,,,,m,0,1.0942,,,,,,,,0.312962981,-0.260185197,0,0,0,,0,51,51,100,1,DRIBS,HB,z,z,./images/DRIBSHB.png,,,,,,,,,,,,,,,,,,,,,,,,,,,,,,,,,,
,,,,,,,,,,,,,,,,,5f405adcda0ade19c87826bd,32,2022-02-12_12h46.48.245,lexical_decision_task_DD_L6,2021.2.3,Win32,60.30999337,,,,,,,,,,,,0.9358,1,,,,,,,,,,,,,,z,1,0.9358,,,,,,,,0.312962981,-0.260185197,0,0,0,,0,52,52,139,1,BLEAR,HB,z,z,./images/BLEARHB.png,,,,,,,,,,,,,,,,,,,,,,,,,,,,,,,,,,
,,,,,,,,,,,,,,,,,5f405adcda0ade19c87826bd,32,2022-02-12_12h46.48.245,lexical_decision_task_DD_L6,2021.2.3,Win32,60.30999337,,,,,,,,,,,,0.7183,1,,,,,,,,,,,,,,m,1,0.7183,,,,,,,,0.312962981,-0.260185197,0,0,0,,0,53,53,68,1,VALLEY,HB,m,m,./images/VALLEYHB.png,,,,,,,,,,,,,,,,,,,,,,,,,,,,,,,,,,
,,,,,,,,,,,,,,,,,5f405adcda0ade19c87826bd,32,2022-02-12_12h46.48.245,lexical_decision_task_DD_L6,2021.2.3,Win32,60.30999337,,,,,,,,,,,,0.6344,1,,,,,,,,,,,,,,m,1,0.6344,,,,,,,,0.312962981,-0.260185197,0,0,0,,0,54,54,82,1,PEBBLE,C,m,m,./images/PEBBLE.png,,,,,,,,,,,,,,,,,,,,,,,,,,,,,,,,,,
,,,,,,,,,,,,,,,,,5f405adcda0ade19c87826bd,32,2022-02-12_12h46.48.245,lexical_decision_task_DD_L6,2021.2.3,Win32,60.30999337,,,,,,,,,,,,0.5858,1,,,,,,,,,,,,,,m,1,0.5858,,,,,,,,0.312962981,-0.260185197,0,0,0,,0,55,55,75,1,HAMMER,LB,m,m,./images/HAMMERLB.png,,,,,,,,,,,,,,,,,,,,,,,,,,,,,,,,,,
,,,,,,,,,,,,,,,,,5f405adcda0ade19c87826bd,32,2022-02-12_12h46.48.245,lexical_decision_task_DD_L6,2021.2.3,Win32,60.30999337,,,,,,,,,,,,0.5724,1,,,,,,,,,,,,,,m,1,0.5724,,,,,,,,0.312962981,-0.260185197,0,0,0,,0,56,56,7,1,WAGON,C,m,m,./images/WAGON.png,,,,,,,,,,,,,,,,,,,,,,,,,,,,,,,,,,
,,,,,,,,,,,,,,,,,5f405adcda0ade19c87826bd,32,2022-02-12_12h46.48.245,lexical_decision_task_DD_L6,2021.2.3,Win32,60.30999337,,,,,,,,,,,,0.5844,1,,,,,,,,,,,,,,z,1,0.5844,,,,,,,,0.312962981,-0.260185197,0,0,0,,0,57,57,156,1,HIXES,C,z,z,./images/HIXES.png,,,,,,,,,,,,,,,,,,,,,,,,,,,,,,,,,,
,,,,,,,,,,,,,,,,,5f405adcda0ade19c87826bd,32,2022-02-12_12h46.48.245,lexical_decision_task_DD_L6,2021.2.3,Win32,60.30999337,,,,,,,,,,,,0.5565,1,,,,,,,,,,,,,,m,1,0.5565,,,,,,,,0.312962981,-0.260185197,0,0,0,,0,58,58,6,1,STAIN,LB,m,m,./images/STAINLB.png,,,,,,,,,,,,,,,,,,,,,,,,,,,,,,,,,,
,,,,,,,,,,,,,,,,,5f405adcda0ade19c87826bd,32,2022-02-12_12h46.48.245,lexical_decision_task_DD_L6,2021.2.3,Win32,60.30999337,,,,,,,,,,,,0.6527,1,,,,,,,,,,,,,,m,1,0.6527,,,,,,,,0.312962981,-0.260185197,0,0,0,,0,59,59,80,1,PLANET,HB,m,m,./images/PLANETHB.png,,,,,,,,,,,,,,,,,,,,,,,,,,,,,,,,,,
,,,,,,,,,,,,,,,,,5f405adcda0ade19c87826bd,32,2022-02-12_12h46.48.245,lexical_decision_task_DD_L6,2021.2.3,Win32,60.30999337,,,,,,,,,,,,0.6337,1,,,,,,,,,,,,,,z,1,0.6337,,,,,,,,0.312962981,-0.260185197,0,0,0,,0,60,60,114,1,RIKES,C,z,z,./images/RIKES.png,,,,,,,,,,,,,,,,,,,,,,,,,,,,,,,,,,
,,,,,,,,,,,,,,,,,5f405adcda0ade19c87826bd,32,2022-02-12_12h46.48.245,lexical_decision_task_DD_L6,2021.2.3,Win32,60.30999337,,,,,,,,,,,,0.6575,1,,,,,,,,,,,,,,m,1,0.6575,,,,,,,,0.312962981,-0.260185197,0,0,0,,0,61,61,50,1,PILOT,HB,m,m,./images/PILOTHB.png,,,,,,,,,,,,,,,,,,,,,,,,,,,,,,,,,,
,,,,,,,,,,,,,,,,,5f405adcda0ade19c87826bd,32,2022-02-12_12h46.48.245,lexical_decision_task_DD_L6,2021.2.3,Win32,60.30999337,,,,,,,,,,,,0.5346,1,,,,,,,,,,,,,,m,1,0.5346,,,,,,,,0.312962981,-0.260185197,0,0,0,,0,62,62,22,1,CLOWN,C,m,m,./images/CLOWN.png,,,,,,,,,,,,,,,,,,,,,,,,,,,,,,,,,,
,,,,,,,,,,,,,,,,,5f405adcda0ade19c87826bd,32,2022-02-12_12h46.48.245,lexical_decision_task_DD_L6,2021.2.3,Win32,60.30999337,,,,,,,,,,,,0.6834,1,,,,,,,,,,,,,,z,1,0.6834,,,,,,,,0.312962981,-0.260185197,0,0,0,,0,63,63,148,1,JOMS,HB,z,z,./images/JOMSHB.png,,,,,,,,,,,,,,,,,,,,,,,,,,,,,,,,,,
,,,,,,,,,,,,,,,,,5f405adcda0ade19c87826bd,32,2022-02-12_12h46.48.245,lexical_decision_task_DD_L6,2021.2.3,Win32,60.30999337,,,,,,,,,,,,0.5336,1,,,,,,,,,,,,,,m,1,0.5336,,,,,,,,0.312962981,-0.260185197,0,0,0,,0,64,64,28,1,CASINO,C,m,m,./images/CASINO.png,,,,,,,,,,,,,,,,,,,,,,,,,,,,,,,,,,
,,,,,,,,,,,,,,,,,5f405adcda0ade19c87826bd,32,2022-02-12_12h46.48.245,lexical_decision_task_DD_L6,2021.2.3,Win32,60.30999337,,,,,,,,,,,,0.6353,1,,,,,,,,,,,,,,z,1,0.6353,,,,,,,,0.312962981,-0.260185197,0,0,0,,0,65,65,119,1,PAFER,LB,z,z,./images/PAFERLB.png,,,,,,,,,,,,,,,,,,,,,,,,,,,,,,,,,,
,,,,,,,,,,,,,,,,,5f405adcda0ade19c87826bd,32,2022-02-12_12h46.48.245,lexical_decision_task_DD_L6,2021.2.3,Win32,60.30999337,,,,,,,,,,,,0.8264,1,,,,,,,,,,,,,,z,1,0.8264,,,,,,,,0.312962981,-0.260185197,0,0,0,,0,66,66,165,1,TROWN,C,z,z,./images/TROWN.png,,,,,,,,,,,,,,,,,,,,,,,,,,,,,,,,,,
,,,,,,,,,,,,,,,,,5f405adcda0ade19c87826bd,32,2022-02-12_12h46.48.245,lexical_decision_task_DD_L6,2021.2.3,Win32,60.30999337,,,,,,,,,,,,0.8356,1,,,,,,,,,,,,,,m,1,0.8356,,,,,,,,0.312962981,-0.260185197,0,0,0,,0,67,67,52,1,DESERT,C,m,m,./images/DESERT.png,,,,,,,,,,,,,,,,,,,,,,,,,,,,,,,,,,
,,,,,,,,,,,,,,,,,5f405adcda0ade19c87826bd,32,2022-02-12_12h46.48.245,lexical_decision_task_DD_L6,2021.2.3,Win32,60.30999337,,,,,,,,,,,,0.7012,1,,,,,,,,,,,,,,m,1,0.7012,,,,,,,,0.312962981,-0.260185197,0,0,0,,0,68,68,59,1,BRUSH,HB,m,m,./images/BRUSHHB.png,,,,,,,,,,,,,,,,,,,,,,,,,,,,,,,,,,
,,,,,,,,,,,,,,,,,5f405adcda0ade19c87826bd,32,2022-02-12_12h46.48.245,lexical_decision_task_DD_L6,2021.2.3,Win32,60.30999337,,,,,,,,,,,,0.6016,1,,,,,,,,,,,,,,z,1,0.6016,,,,,,,,0.312962981,-0.260185197,0,0,0,,0,69,69,129,1,PRANS,C,z,z,./images/PRANS.png,,,,,,,,,,,,,,,,,,,,,,,,,,,,,,,,,,
,,,,,,,,,,,,,,,,,5f405adcda0ade19c87826bd,32,2022-02-12_12h46.48.245,lexical_decision_task_DD_L6,2021.2.3,Win32,60.30999337,,,,,,,,,,,,0.5759,1,,,,,,,,,,,,,,m,1,0.5759,,,,,,,,0.312962981,-0.260185197,0,0,0,,0,70,70,21,1,DANCER,LB,m,m,./images/DANCERLB.png,,,,,,,,,,,,,,,,,,,,,,,,,,,,,,,,,,
,,,,,,,,,,,,,,,,,5f405adcda0ade19c87826bd,32,2022-02-12_12h46.48.245,lexical_decision_task_DD_L6,2021.2.3,Win32,60.30999337,,,,,,,,,,,,0.526,1,,,,,,,,,,,,,,m,1,0.526,,,,,,,,0.312962981,-0.260185197,0,0,0,,0,71,71,10,1,GARDEN,C,m,m,./images/GARDEN.png,,,,,,,,,,,,,,,,,,,,,,,,,,,,,,,,,,
,,,,,,,,,,,,,,,,,5f405adcda0ade19c87826bd,32,2022-02-12_12h46.48.245,lexical_decision_task_DD_L6,2021.2.3,Win32,60.30999337,,,,,,,,,,,,0.6459,1,,,,,,,,,,,,,,z,1,0.6459,,,,,,,,0.312962981,-0.260185197,0,0,0,,0,72,72,111,1,HOSSE,C,z,z,./images/HOSSE.png,,,,,,,,,,,,,,,,,,,,,,,,,,,,,,,,,,
,,,,,,,,,,,,,,,,,5f405adcda0ade19c87826bd,32,2022-02-12_12h46.48.245,lexical_decision_task_DD_L6,2021.2.3,Win32,60.30999337,,,,,,,,,,,,0.6834,1,,,,,,,,,,,,,,m,1,0.6834,,,,,,,,0.312962981,-0.260185197,0,0,0,,0,73,73,65,1,SPINE,HB,m,m,./images/SPINEHB.png,,,,,,,,,,,,,,,,,,,,,,,,,,,,,,,,,,
,,,,,,,,,,,,,,,,,5f405adcda0ade19c87826bd,32,2022-02-12_12h46.48.245,lexical_decision_task_DD_L6,2021.2.3,Win32,60.30999337,,,,,,,,,,,,0.5813,1,,,,,,,,,,,,,,z,1,0.5813,,,,,,,,0.312962981,-0.260185197,0,0,0,,0,74,74,162,1,LEICH,C,z,z,./images/LEICH.png,,,,,,,,,,,,,,,,,,,,,,,,,,,,,,,,,,
,,,,,,,,,,,,,,,,,5f405adcda0ade19c87826bd,32,2022-02-12_12h46.48.245,lexical_decision_task_DD_L6,2021.2.3,Win32,60.30999337,,,,,,,,,,,,0.5402,1,,,,,,,,,,,,,,m,1,0.5402,,,,,,,,0.312962981,-0.260185197,0,0,0,,0,75,75,33,1,SAUNA,LB,m,m,./images/SAUNALB.png,,,,,,,,,,,,,,,,,,,,,,,,,,,,,,,,,,
,,,,,,,,,,,,,,,,,5f405adcda0ade19c87826bd,32,2022-02-12_12h46.48.245,lexical_decision_task_DD_L6,2021.2.3,Win32,60.30999337,,,,,,,,,,,,0.5469,1,,,,,,,,,,,,,,z,1,0.5469,,,,,,,,0.312962981,-0.260185197,0,0,0,,0,76,76,135,1,JOODY,C,z,z,./images/JOODY.png,,,,,,,,,,,,,,,,,,,,,,,,,,,,,,,,,,
,,,,,,,,,,,,,,,,,5f405adcda0ade19c87826bd,32,2022-02-12_12h46.48.245,lexical_decision_task_DD_L6,2021.2.3,Win32,60.30999337,,,,,,,,,,,,0.717,1,,,,,,,,,,,,,,m,1,0.717,,,,,,,,0.312962981,-0.260185197,0,0,0,,0,77,77,76,1,MIDGET,C,m,m,./images/MIDGET.png,,,,,,,,,,,,,,,,,,,,,,,,,,,,,,,,,,
,,,,,,,,,,,,,,,,,5f405adcda0ade19c87826bd,32,2022-02-12_12h46.48.245,lexical_decision_task_DD_L6,2021.2.3,Win32,60.30999337,,,,,,,,,,,,0.5008,1,,,,,,,,,,,,,,m,1,0.5008,,,,,,,,0.312962981,-0.260185197,0,0,0,,0,78,78,27,1,BUTTER,LB,m,m,./images/BUTTERLB.png,,,,,,,,,,,,,,,,,,,,,,,,,,,,,,,,,,
,,,,,,,,,,,,,,,,,5f405adcda0ade19c87826bd,32,2022-02-12_12h46.48.245,lexical_decision_task_DD_L6,2021.2.3,Win32,60.30999337,,,,,,,,,,,,0.9478,1,,,,,,,,,,,,,,z,1,0.9478,,,,,,,,0.312962981,-0.260185197,0,0,0,,0,79,79,155,1,CANGY,LB,z,z,./images/CANGYLB.png,,,,,,,,,,,,,,,,,,,,,,,,,,,,,,,,,,
,,,,,,,,,,,,,,,,,5f405adcda0ade19c87826bd,32,2022-02-12_12h46.48.245,lexical_decision_task_DD_L6,2021.2.3,Win32,60.30999337,,,,,,,,,,,,1.1364,1,,,,,,,,,,,,,,z,1,1.1364,,,,,,,,0.312962981,-0.260185197,0,0,0,,0,80,80,97,1,CHIDS,HB,z,z,./images/CHIDSHB.png,,,,,,,,,,,,,,,,,,,,,,,,,,,,,,,,,,
,,,,,,,,,,,,,,,,,5f405adcda0ade19c87826bd,32,2022-02-12_12h46.48.245,lexical_decision_task_DD_L6,2021.2.3,Win32,60.30999337,,,,,,,,,,,,0.6169,1,,,,,,,,,,,,,,m,1,0.6169,,,,,,,,0.312962981,-0.260185197,0,0,0,,0,81,81,3,1,CRATER,LB,m,m,./images/CRATERLB.png,,,,,,,,,,,,,,,,,,,,,,,,,,,,,,,,,,
,,,,,,,,,,,,,,,,,5f405adcda0ade19c87826bd,32,2022-02-12_12h46.48.245,lexical_decision_task_DD_L6,2021.2.3,Win32,60.30999337,,,,,,,,,,,,0.8839,0,,,,,,,,,,,,,,m,0,0.8839,,,,,,,,0.312962981,-0.260185197,0,0,0,,0,82,82,121,1,CEERS,HB,z,z,./images/CEERSHB.png,,,,,,,,,,,,,,,,,,,,,,,,,,,,,,,,,,
,,,,,,,,,,,,,,,,,5f405adcda0ade19c87826bd,32,2022-02-12_12h46.48.245,lexical_decision_task_DD_L6,2021.2.3,Win32,60.30999337,,,,,,,,,,,,0.7053,1,,,,,,,,,,,,,,m,1,0.7053,,,,,,,,0.310185203,-0.2638889,0,0,0,space,0,83,83,77,1,WHEEL,HB,m,m,./images/WHEELHB.png,8.7366,,,,,,,,,,,,,,,,,,,,,,,,,,,,,,,,,
,,,,,,,,,,,,,,,,,5f405adcda0ade19c87826bd,32,2022-02-12_12h46.48.245,lexical_decision_task_DD_L6,2021.2.3,Win32,60.30999337,,,,,,,,,,,,0.6167,1,,,,,,,,,,,,,,m,1,0.6167,,,,,,,,0.310185203,-0.2638889,0,0,0,,0,84,84,70,1,BANANA,C,m,m,./images/BANANA.png,,,,,,,,,,,,,,,,,,,,,,,,,,,,,,,,,,
,,,,,,,,,,,,,,,,,5f405adcda0ade19c87826bd,32,2022-02-12_12h46.48.245,lexical_decision_task_DD_L6,2021.2.3,Win32,60.30999337,,,,,,,,,,,,0.601,1,,,,,,,,,,,,,,z,1,0.601,,,,,,,,0.310185203,-0.2638889,0,0,0,,0,85,85,146,1,MOOST,LB,z,z,./images/MOOSTLB.png,,,,,,,,,,,,,,,,,,,,,,,,,,,,,,,,,,
,,,,,,,,,,,,,,,,,5f405adcda0ade19c87826bd,32,2022-02-12_12h46.48.245,lexical_decision_task_DD_L6,2021.2.3,Win32,60.30999337,,,,,,,,,,,,0.6242,1,,,,,,,,,,,,,,m,1,0.6242,,,,,,,,0.310185203,-0.2638889,0,0,0,,0,86,86,26,1,CLOUD,HB,m,m,./images/CLOUDHB.png,,,,,,,,,,,,,,,,,,,,,,,,,,,,,,,,,,
,,,,,,,,,,,,,,,,,5f405adcda0ade19c87826bd,32,2022-02-12_12h46.48.245,lexical_decision_task_DD_L6,2021.2.3,Win32,60.30999337,,,,,,,,,,,,0.5204,1,,,,,,,,,,,,,,m,1,0.5204,,,,,,,,0.310185203,-0.2638889,0,0,0,,0,87,87,19,1,DONKEY,C,m,m,./images/DONKEY.png,,,,,,,,,,,,,,,,,,,,,,,,,,,,,,,,,,
,,,,,,,,,,,,,,,,,5f405adcda0ade19c87826bd,32,2022-02-12_12h46.48.245,lexical_decision_task_DD_L6,2021.2.3,Win32,60.30999337,,,,,,,,,,,,0.7601,1,,,,,,,,,,,,,,m,1,0.7601,,,,,,,,0.310185203,-0.2638889,0,0,0,,0,88,88,11,1,MEDAL,HB,m,m,./images/MEDALHB.png,,,,,,,,,,,,,,,,,,,,,,,,,,,,,,,,,,
,,,,,,,,,,,,,,,,,5f405adcda0ade19c87826bd,32,2022-02-12_12h46.48.245,lexical_decision_task_DD_L6,2021.2.3,Win32,60.30999337,,,,,,,,,,,,0.6246,1,,,,,,,,,,,,,,z,1,0.6246,,,,,,,,0.310185203,-0.2638889,0,0,0,,0,89,89,122,1,BLOOT,LB,z,z,./images/BLOOTLB.png,,,,,,,,,,,,,,,,,,,,,,,,,,,,,,,,,,
,,,,,,,,,,,,,,,,,5f405adcda0ade19c87826bd,32,2022-02-12_12h46.48.245,lexical_decision_task_DD_L6,2021.2.3,Win32,60.30999337,,,,,,,,,,,,0.8387,1,,,,,,,,,,,,,,z,1,0.8387,,,,,,,,0.310185203,-0.2638889,0,0,0,,0,90,90,88,1,GLUSH,HB,z,z,./images/GLUSHHB.png,,,,,,,,,,,,,,,,,,,,,,,,,,,,,,,,,,
,,,,,,,,,,,,,,,,,5f405adcda0ade19c87826bd,32,2022-02-12_12h46.48.245,lexical_decision_task_DD_L6,2021.2.3,Win32,60.30999337,,,,,,,,,,,,0.8684,1,,,,,,,,,,,,,,z,1,0.8684,,,,,,,,0.310185203,-0.2638889,0,0,0,,0,91,91,128,1,GRIFT,LB,z,z,./images/GRIFTLB.png,,,,,,,,,,,,,,,,,,,,,,,,,,,,,,,,,,
,,,,,,,,,,,,,,,,,5f405adcda0ade19c87826bd,32,2022-02-12_12h46.48.245,lexical_decision_task_DD_L6,2021.2.3,Win32,60.30999337,,,,,,,,,,,,0.8332,1,,,,,,,,,,,,,,z,1,0.8332,,,,,,,,0.310185203,-0.2638889,0,0,0,,0,92,92,167,1,ZONET,LB,z,z,./images/ZONETLB.png,,,,,,,,,,,,,,,,,,,,,,,,,,,,,,,,,,
,,,,,,,,,,,,,,,,,5f405adcda0ade19c87826bd,32,2022-02-12_12h46.48.245,lexical_decision_task_DD_L6,2021.2.3,Win32,60.30999337,,,,,,,,,,,,0.7523,1,,,,,,,,,,,,,,m,1,0.7523,,,,,,,,0.310185203,-0.2638889,0,0,0,,0,93,93,18,1,PARCEL,LB,m,m,./images/PARCELLB.png,,,,,,,,,,,,,,,,,,,,,,,,,,,,,,,,,,
,,,,,,,,,,,,,,,,,5f405adcda0ade19c87826bd,32,2022-02-12_12h46.48.245,lexical_decision_task_DD_L6,2021.2.3,Win32,60.30999337,,,,,,,,,,,,0.768,1,,,,,,,,,,,,,,m,1,0.768,,,,,,,,0.310185203,-0.2638889,0,0,0,,0,94,94,60,1,CURRY,LB,m,m,./images/CURRYLB.png,,,,,,,,,,,,,,,,,,,,,,,,,,,,,,,,,,
,,,,,,,,,,,,,,,,,5f405adcda0ade19c87826bd,32,2022-02-12_12h46.48.245,lexical_decision_task_DD_L6,2021.2.3,Win32,60.30999337,,,,,,,,,,,,0.8009,1,,,,,,,,,,,,,,z,1,0.8009,,,,,,,,0.310185203,-0.2638889,0,0,0,,0,95,95,103,1,FLORT,HB,z,z,./images/FLORTHB.png,,,,,,,,,,,,,,,,,,,,,,,,,,,,,,,,,,
,,,,,,,,,,,,,,,,,5f405adcda0ade19c87826bd,32,2022-02-12_12h46.48.245,lexical_decision_task_DD_L6,2021.2.3,Win32,60.30999337,,,,,,,,,,,,0.7407,1,,,,,,,,,,,,,,z,1,0.7407,,,,,,,,0.310185203,-0.2638889,0,0,0,,0,96,96,158,1,EGECT,LB,z,z,./images/EGECTLB.png,,,,,,,,,,,,,,,,,,,,,,,,,,,,,,,,,,
,,,,,,,,,,,,,,,,,5f405adcda0ade19c87826bd,32,2022-02-12_12h46.48.245,lexical_decision_task_DD_L6,2021.2.3,Win32,60.30999337,,,,,,,,,,,,1.2378,1,,,,,,,,,,,,,,m,1,1.2378,,,,,,,,0.310185203,-0.2638889,0,0,0,,0,97,97,72,1,FLASK,LB,m,m,./images/FLASKLB.png,,,,,,,,,,,,,,,,,,,,,,,,,,,,,,,,,,
,,,,,,,,,,,,,,,,,5f405adcda0ade19c87826bd,32,2022-02-12_12h46.48.245,lexical_decision_task_DD_L6,2021.2.3,Win32,60.30999337,,,,,,,,,,,,0.8861,1,,,,,,,,,,,,,,z,1,0.8861,,,,,,,,0.310185203,-0.2638889,0,0,0,,0,98,98,154,1,THINT,HB,z,z,./images/THINTHB.png,,,,,,,,,,,,,,,,,,,,,,,,,,,,,,,,,,
,,,,,,,,,,,,,,,,,5f405adcda0ade19c87826bd,32,2022-02-12_12h46.48.245,lexical_decision_task_DD_L6,2021.2.3,Win32,60.30999337,,,,,,,,,,,,0.6054,1,,,,,,,,,,,,,,m,1,0.6054,,,,,,,,0.310185203,-0.2638889,0,0,0,,0,99,99,58,1,CANOE,C,m,m,./images/CANOE.png,,,,,,,,,,,,,,,,,,,,,,,,,,,,,,,,,,
,,,,,,,,,,,,,,,,,5f405adcda0ade19c87826bd,32,2022-02-12_12h46.48.245,lexical_decision_task_DD_L6,2021.2.3,Win32,60.30999337,,,,,,,,,,,,0.6082,1,,,,,,,,,,,,,,z,1,0.6082,,,,,,,,0.310185203,-0.2638889,0,0,0,,0,100,100,92,1,PAIMS,LB,z,z,./images/PAIMSLB.png,,,,,,,,,,,,,,,,,,,,,,,,,,,,,,,,,,
,,,,,,,,,,,,,,,,,5f405adcda0ade19c87826bd,32,2022-02-12_12h46.48.245,lexical_decision_task_DD_L6,2021.2.3,Win32,60.30999337,,,,,,,,,,,,0.7009,1,,,,,,,,,,,,,,m,1,0.7009,,,,,,,,0.310185203,-0.2638889,0,0,0,,0,101,101,17,1,PARADE,HB,m,m,./images/PARADEHB.png,,,,,,,,,,,,,,,,,,,,,,,,,,,,,,,,,,
,,,,,,,,,,,,,,,,,5f405adcda0ade19c87826bd,32,2022-02-12_12h46.48.245,lexical_decision_task_DD_L6,2021.2.3,Win32,60.30999337,,,,,,,,,,,,0.5006,1,,,,,,,,,,,,,,m,1,0.5006,,,,,,,,0.310185203,-0.2638889,0,0,0,,0,102,102,37,1,TIGER,C,m,m,./images/TIGER.png,,,,,,,,,,,,,,,,,,,,,,,,,,,,,,,,,,
,,,,,,,,,,,,,,,,,5f405adcda0ade19c87826bd,32,2022-02-12_12h46.48.245,lexical_decision_task_DD_L6,2021.2.3,Win32,60.30999337,,,,,,,,,,,,0.937,1,,,,,,,,,,,,,,m,1,0.937,,,,,,,,0.310185203,-0.2638889,0,0,0,,0,103,103,74,1,JUMPER,HB,m,m,./images/JUMPERHB.png,,,,,,,,,,,,,,,,,,,,,,,,,,,,,,,,,,
,,,,,,,,,,,,,,,,,5f405adcda0ade19c87826bd,32,2022-02-12_12h46.48.245,lexical_decision_task_DD_L6,2021.2.3,Win32,60.30999337,,,,,,,,,,,,0.6579,1,,,,,,,,,,,,,,m,1,0.6579,,,,,,,,0.310185203,-0.2638889,0,0,0,,0,104,104,8,1,CLIFF,HB,m,m,./images/CLIFFHB.png,,,,,,,,,,,,,,,,,,,,,,,,,,,,,,,,,,
,,,,,,,,,,,,,,,,,5f405adcda0ade19c87826bd,32,2022-02-12_12h46.48.245,lexical_decision_task_DD_L6,2021.2.3,Win32,60.30999337,,,,,,,,,,,,0.7175,1,,,,,,,,,,,,,,z,1,0.7175,,,,,,,,0.310185203,-0.2638889,0,0,0,,0,105,105,140,1,DOVET,LB,z,z,./images/DOVETLB.png,,,,,,,,,,,,,,,,,,,,,,,,,,,,,,,,,,
,,,,,,,,,,,,,,,,,5f405adcda0ade19c87826bd,32,2022-02-12_12h46.48.245,lexical_decision_task_DD_L6,2021.2.3,Win32,60.30999337,,,,,,,,,,,,0.7479,1,,,,,,,,,,,,,,z,1,0.7479,,,,,,,,0.310185203,-0.2638889,0,0,0,,0,106,106,143,1,MONGS,LB,z,z,./images/MONGSLB.png,,,,,,,,,,,,,,,,,,,,,,,,,,,,,,,,,,
,,,,,,,,,,,,,,,,,5f405adcda0ade19c87826bd,32,2022-02-12_12h46.48.245,lexical_decision_task_DD_L6,2021.2.3,Win32,60.30999337,,,,,,,,,,,,0.5772,1,,,,,,,,,,,,,,m,1,0.5772,,,,,,,,0.310185203,-0.2638889,0,0,0,,0,107,107,1,1,TOWEL,C,m,m,./images/TOWEL.png,,,,,,,,,,,,,,,,,,,,,,,,,,,,,,,,,,
,,,,,,,,,,,,,,,,,5f405adcda0ade19c87826bd,32,2022-02-12_12h46.48.245,lexical_decision_task_DD_L6,2021.2.3,Win32,60.30999337,,,,,,,,,,,,0.6257,1,,,,,,,,,,,,,,m,1,0.6257,,,,,,,,0.310185203,-0.2638889,0,0,0,,0,108,108,0,1,WALNUT,LB,m,m,./images/WALNUTLB.png,,,,,,,,,,,,,,,,,,,,,,,,,,,,,,,,,,
,,,,,,,,,,,,,,,,,5f405adcda0ade19c87826bd,32,2022-02-12_12h46.48.245,lexical_decision_task_DD_L6,2021.2.3,Win32,60.30999337,,,,,,,,,,,,0.6671,1,,,,,,,,,,,,,,m,1,0.6671,,,,,,,,0.310185203,-0.2638889,0,0,0,,0,109,109,38,1,ENGINE,HB,m,m,./images/ENGINEHB.png,,,,,,,,,,,,,,,,,,,,,,,,,,,,,,,,,,
,,,,,,,,,,,,,,,,,5f405adcda0ade19c87826bd,32,2022-02-12_12h46.48.245,lexical_decision_task_DD_L6,2021.2.3,Win32,60.30999337,,,,,,,,,,,,0.5704,1,,,,,,,,,,,,,,z,1,0.5704,,,,,,,,0.310185203,-0.2638889,0,0,0,,0,110,110,147,1,ZOLES,C,z,z,./images/ZOLES.png,,,,,,,,,,,,,,,,,,,,,,,,,,,,,,,,,,
,,,,,,,,,,,,,,,,,5f405adcda0ade19c87826bd,32,2022-02-12_12h46.48.245,lexical_decision_task_DD_L6,2021.2.3,Win32,60.30999337,,,,,,,,,,,,0.6515,1,,,,,,,,,,,,,,z,1,0.6515,,,,,,,,0.310185203,-0.2638889,0,0,0,,0,111,111,117,1,STEEG,C,z,z,./images/STEEG.png,,,,,,,,,,,,,,,,,,,,,,,,,,,,,,,,,,
,,,,,,,,,,,,,,,,,5f405adcda0ade19c87826bd,32,2022-02-12_12h46.48.245,lexical_decision_task_DD_L6,2021.2.3,Win32,60.30999337,,,,,,,,,,,,0.5163,1,,,,,,,,,,,,,,m,1,0.5163,,,,,,,,0.310185203,-0.2638889,0,0,0,,0,112,112,16,1,GRAPE,C,m,m,./images/GRAPE.png,,,,,,,,,,,,,,,,,,,,,,,,,,,,,,,,,,
,,,,,,,,,,,,,,,,,5f405adcda0ade19c87826bd,32,2022-02-12_12h46.48.245,lexical_decision_task_DD_L6,2021.2.3,Win32,60.30999337,,,,,,,,,,,,0.6185,1,,,,,,,,,,,,,,m,1,0.6185,,,,,,,,0.310185203,-0.2638889,0,0,0,,0,113,113,79,1,RULER,C,m,m,./images/RULER.png,,,,,,,,,,,,,,,,,,,,,,,,,,,,,,,,,,
,,,,,,,,,,,,,,,,,5f405adcda0ade19c87826bd,32,2022-02-12_12h46.48.245,lexical_decision_task_DD_L6,2021.2.3,Win32,60.30999337,,,,,,,,,,,,0.6112,1,,,,,,,,,,,,,,z,1,0.6112,,,,,,,,0.310185203,-0.2638889,0,0,0,,0,114,114,87,1,TRING,C,z,z,./images/TRING.png,,,,,,,,,,,,,,,,,,,,,,,,,,,,,,,,,,
,,,,,,,,,,,,,,,,,5f405adcda0ade19c87826bd,32,2022-02-12_12h46.48.245,lexical_decision_task_DD_L6,2021.2.3,Win32,60.30999337,,,,,,,,,,,,0.7788,1,,,,,,,,,,,,,,m,1,0.7788,,,,,,,,0.310185203,-0.2638889,0,0,0,,0,115,115,29,1,PISTOL,HB,m,m,./images/PISTOLHB.png,,,,,,,,,,,,,,,,,,,,,,,,,,,,,,,,,,
,,,,,,,,,,,,,,,,,5f405adcda0ade19c87826bd,32,2022-02-12_12h46.48.245,lexical_decision_task_DD_L6,2021.2.3,Win32,60.30999337,,,,,,,,,,,,0.8207,1,,,,,,,,,,,,,,z,1,0.8207,,,,,,,,0.310185203,-0.2638889,0,0,0,,0,116,116,160,1,VEETS,HB,z,z,./images/VEETSHB.png,,,,,,,,,,,,,,,,,,,,,,,,,,,,,,,,,,
,,,,,,,,,,,,,,,,,5f405adcda0ade19c87826bd,32,2022-02-12_12h46.48.245,lexical_decision_task_DD_L6,2021.2.3,Win32,60.30999337,,,,,,,,,,,,0.6189,1,,,,,,,,,,,,,,z,1,0.6189,,,,,,,,0.310185203,-0.2638889,0,0,0,,0,117,117,144,1,NAIRY,C,z,z,./images/NAIRY.png,,,,,,,,,,,,,,,,,,,,,,,,,,,,,,,,,,
,,,,,,,,,,,,,,,,,5f405adcda0ade19c87826bd,32,2022-02-12_12h46.48.245,lexical_decision_task_DD_L6,2021.2.3,Win32,60.30999337,,,,,,,,,,,,0.8228,1,,,,,,,,,,,,,,m,1,0.8228,,,,,,,,0.310185203,-0.2638889,0,0,0,,0,118,118,20,1,GRANNY,HB,m,m,./images/GRANNYHB.png,,,,,,,,,,,,,,,,,,,,,,,,,,,,,,,,,,
,,,,,,,,,,,,,,,,,5f405adcda0ade19c87826bd,32,2022-02-12_12h46.48.245,lexical_decision_task_DD_L6,2021.2.3,Win32,60.30999337,,,,,,,,,,,,0.7167,0,,,,,,,,,,,,,,m,0,0.7167,,,,,,,,0.310185203,-0.2638889,0,0,0,,0,119,119,142,1,PLASK,HB,z,z,./images/PLASKHB.png,,,,,,,,,,,,,,,,,,,,,,,,,,,,,,,,,,
,,,,,,,,,,,,,,,,,5f405adcda0ade19c87826bd,32,2022-02-12_12h46.48.245,lexical_decision_task_DD_L6,2021.2.3,Win32,60.30999337,,,,,,,,,,,,0.8845,1,,,,,,,,,,,,,,z,1,0.8845,,,,,,,,0.310185203,-0.2638889,0,0,0,,0,120,120,127,1,NINDY,HB,z,z,./images/NINDYHB.png,,,,,,,,,,,,,,,,,,,,,,,,,,,,,,,,,,
,,,,,,,,,,,,,,,,,5f405adcda0ade19c87826bd,32,2022-02-12_12h46.48.245,lexical_decision_task_DD_L6,2021.2.3,Win32,60.30999337,,,,,,,,,,,,1.1563,1,,,,,,,,,,,,,,m,1,1.1563,,,,,,,,0.310185203,-0.2638889,0,0,0,,0,121,121,53,1,POSTER,HB,m,m,./images/POSTERHB.png,,,,,,,,,,,,,,,,,,,,,,,,,,,,,,,,,,
,,,,,,,,,,,,,,,,,5f405adcda0ade19c87826bd,32,2022-02-12_12h46.48.245,lexical_decision_task_DD_L6,2021.2.3,Win32,60.30999337,,,,,,,,,,,,0.733,1,,,,,,,,,,,,,,m,1,0.733,,,,,,,,0.310185203,-0.2638889,0,0,0,,0,122,122,14,1,FENCE,HB,m,m,./images/FENCEHB.png,,,,,,,,,,,,,,,,,,,,,,,,,,,,,,,,,,
,,,,,,,,,,,,,,,,,5f405adcda0ade19c87826bd,32,2022-02-12_12h46.48.245,lexical_decision_task_DD_L6,2021.2.3,Win32,60.30999337,,,,,,,,,,,,0.6851,1,,,,,,,,,,,,,,m,1,0.6851,,,,,,,,0.310185203,-0.2638889,0,0,0,,0,123,123,5,1,BAMBOO,HB,m,m,./images/BAMBOOHB.png,,,,,,,,,,,,,,,,,,,,,,,,,,,,,,,,,,
,,,,,,,,,,,,,,,,,5f405adcda0ade19c87826bd,32,2022-02-12_12h46.48.245,lexical_decision_task_DD_L6,2021.2.3,Win32,60.30999337,,,,,,,,,,,,0.5561,1,,,,,,,,,,,,,,z,1,0.5561,,,,,,,,0.310185203,-0.2638889,0,0,0,,0,124,124,150,1,NOOLS,C,z,z,./images/NOOLS.png,,,,,,,,,,,,,,,,,,,,,,,,,,,,,,,,,,
,,,,,,,,,,,,,,,,,5f405adcda0ade19c87826bd,32,2022-02-12_12h46.48.245,lexical_decision_task_DD_L6,2021.2.3,Win32,60.30999337,,,,,,,,,,,,0.6285,1,,,,,,,,,,,,,,z,1,0.6285,,,,,,,,0.310185203,-0.2638889,0,0,0,space,0,125,125,126,1,GUELS,C,z,z,./images/GUELS.png,6.205,,,,,,,,,,,,,,,,,,,,,,,,,,,,,,,,,
,,,,,,,,,,,,,,,,,5f405adcda0ade19c87826bd,32,2022-02-12_12h46.48.245,lexical_decision_task_DD_L6,2021.2.3,Win32,60.30999337,,,,,,,,,,,,0.6243,1,,,,,,,,,,,,,,z,1,0.6243,,,,,,,,0.310185203,-0.2638889,0,0,0,,0,126,126,134,1,TROSS,LB,z,z,./images/TROSSLB.png,,,,,,,,,,,,,,,,,,,,,,,,,,,,,,,,,,
,,,,,,,,,,,,,,,,,5f405adcda0ade19c87826bd,32,2022-02-12_12h46.48.245,lexical_decision_task_DD_L6,2021.2.3,Win32,60.30999337,,,,,,,,,,,,0.5933,1,,,,,,,,,,,,,,m,1,0.5933,,,,,,,,0.310185203,-0.2638889,0,0,0,,0,127,127,36,1,BOILER,LB,m,m,./images/BOILERLB.png,,,,,,,,,,,,,,,,,,,,,,,,,,,,,,,,,,
,,,,,,,,,,,,,,,,,5f405adcda0ade19c87826bd,32,2022-02-12_12h46.48.245,lexical_decision_task_DD_L6,2021.2.3,Win32,60.30999337,,,,,,,,,,,,1.3768,0,,,,,,,,,,,,,,m,0,1.3768,,,,,,,,0.310185203,-0.2638889,0,0,0,,0,128,128,163,1,GAMBA,HB,z,z,./images/GAMBAHB.png,,,,,,,,,,,,,,,,,,,,,,,,,,,,,,,,,,
,,,,,,,,,,,,,,,,,5f405adcda0ade19c87826bd,32,2022-02-12_12h46.48.245,lexical_decision_task_DD_L6,2021.2.3,Win32,60.30999337,,,,,,,,,,,,0.6846,1,,,,,,,,,,,,,,z,1,0.6846,,,,,,,,0.310185203,-0.2638889,0,0,0,,0,129,129,105,1,MOKER,C,z,z,./images/MOKER.png,,,,,,,,,,,,,,,,,,,,,,,,,,,,,,,,,,
,,,,,,,,,,,,,,,,,5f405adcda0ade19c87826bd,32,2022-02-12_12h46.48.245,lexical_decision_task_DD_L6,2021.2.3,Win32,60.30999337,,,,,,,,,,,,0.6836,1,,,,,,,,,,,,,,z,1,0.6836,,,,,,,,0.310185203,-0.2638889,0,0,0,,0,130,130,116,1,BALGY,LB,z,z,./images/BALGYLB.png,,,,,,,,,,,,,,,,,,,,,,,,,,,,,,,,,,
,,,,,,,,,,,,,,,,,5f405adcda0ade19c87826bd,32,2022-02-12_12h46.48.245,lexical_decision_task_DD_L6,2021.2.3,Win32,60.30999337,,,,,,,,,,,,0.623,1,,,,,,,,,,,,,,z,1,0.623,,,,,,,,0.310185203,-0.2638889,0,0,0,,0,131,131,141,1,PLEET,C,z,z,./images/PLEET.png,,,,,,,,,,,,,,,,,,,,,,,,,,,,,,,,,,
,,,,,,,,,,,,,,,,,5f405adcda0ade19c87826bd,32,2022-02-12_12h46.48.245,lexical_decision_task_DD_L6,2021.2.3,Win32,60.30999337,,,,,,,,,,,,0.5272,0,,,,,,,,,,,,,,z,0,0.5272,,,,,,,,0.310185203,-0.2638889,0,0,0,,0,132,132,43,1,STOOL,C,m,m,./images/STOOL.png,,,,,,,,,,,,,,,,,,,,,,,,,,,,,,,,,,
,,,,,,,,,,,,,,,,,5f405adcda0ade19c87826bd,32,2022-02-12_12h46.48.245,lexical_decision_task_DD_L6,2021.2.3,Win32,60.30999337,,,,,,,,,,,,0.5841,1,,,,,,,,,,,,,,m,1,0.5841,,,,,,,,0.310185203,-0.2638889,0,0,0,,0,133,133,31,1,STEAK,C,m,m,./images/STEAK.png,,,,,,,,,,,,,,,,,,,,,,,,,,,,,,,,,,
,,,,,,,,,,,,,,,,,5f405adcda0ade19c87826bd,32,2022-02-12_12h46.48.245,lexical_decision_task_DD_L6,2021.2.3,Win32,60.30999337,,,,,,,,,,,,1.1193,1,,,,,,,,,,,,,,z,1,1.1193,,,,,,,,0.310185203,-0.2638889,0,0,0,,0,134,134,118,1,BAVEL,HB,z,z,./images/BAVELHB.png,,,,,,,,,,,,,,,,,,,,,,,,,,,,,,,,,,
,,,,,,,,,,,,,,,,,5f405adcda0ade19c87826bd,32,2022-02-12_12h46.48.245,lexical_decision_task_DD_L6,2021.2.3,Win32,60.30999337,,,,,,,,,,,,0.6043,1,,,,,,,,,,,,,,z,1,0.6043,,,,,,,,0.310185203,-0.2638889,0,0,0,,0,135,135,132,1,SCIFF,C,z,z,./images/SCIFF.png,,,,,,,,,,,,,,,,,,,,,,,,,,,,,,,,,,
,,,,,,,,,,,,,,,,,5f405adcda0ade19c87826bd,32,2022-02-12_12h46.48.245,lexical_decision_task_DD_L6,2021.2.3,Win32,60.30999337,,,,,,,,,,,,0.6377,1,,,,,,,,,,,,,,m,1,0.6377,,,,,,,,0.310185203,-0.2638889,0,0,0,,0,136,136,81,1,DRILL,LB,m,m,./images/DRILLLB.png,,,,,,,,,,,,,,,,,,,,,,,,,,,,,,,,,,
,,,,,,,,,,,,,,,,,5f405adcda0ade19c87826bd,32,2022-02-12_12h46.48.245,lexical_decision_task_DD_L6,2021.2.3,Win32,60.30999337,,,,,,,,,,,,0.4893,1,,,,,,,,,,,,,,m,1,0.4893,,,,,,,,0.310185203,-0.2638889,0,0,0,,0,137,137,42,1,CHAIN,LB,m,m,./images/CHAINLB.png,,,,,,,,,,,,,,,,,,,,,,,,,,,,,,,,,,
,,,,,,,,,,,,,,,,,5f405adcda0ade19c87826bd,32,2022-02-12_12h46.48.245,lexical_decision_task_DD_L6,2021.2.3,Win32,60.30999337,,,,,,,,,,,,0.5177,1,,,,,,,,,,,,,,m,1,0.5177,,,,,,,,0.310185203,-0.2638889,0,0,0,,0,138,138,25,1,CHALK,C,m,m,./images/CHALK.png,,,,,,,,,,,,,,,,,,,,,,,,,,,,,,,,,,
,,,,,,,,,,,,,,,,,5f405adcda0ade19c87826bd,32,2022-02-12_12h46.48.245,lexical_decision_task_DD_L6,2021.2.3,Win32,60.30999337,,,,,,,,,,,,0.7266,1,,,,,,,,,,,,,,z,1,0.7266,,,,,,,,0.310185203,-0.2638889,0,0,0,,0,139,139,110,1,CRUNK,LB,z,z,./images/CRUNKLB.png,,,,,,,,,,,,,,,,,,,,,,,,,,,,,,,,,,
,,,,,,,,,,,,,,,,,5f405adcda0ade19c87826bd,32,2022-02-12_12h46.48.245,lexical_decision_task_DD_L6,2021.2.3,Win32,60.30999337,,,,,,,,,,,,0.6665,1,,,,,,,,,,,,,,z,1,0.6665,,,,,,,,0.310185203,-0.2638889,0,0,0,,0,140,140,149,1,VEASE,LB,z,z,./images/VEASELB.png,,,,,,,,,,,,,,,,,,,,,,,,,,,,,,,,,,
,,,,,,,,,,,,,,,,,5f405adcda0ade19c87826bd,32,2022-02-12_12h46.48.245,lexical_decision_task_DD_L6,2021.2.3,Win32,60.30999337,,,,,,,,,,,,0.8331,1,,,,,,,,,,,,,,z,1,0.8331,,,,,,,,0.310185203,-0.2638889,0,0,0,,0,141,141,166,1,SHORY,HB,z,z,./images/SHORYHB.png,,,,,,,,,,,,,,,,,,,,,,,,,,,,,,,,,,
,,,,,,,,,,,,,,,,,5f405adcda0ade19c87826bd,32,2022-02-12_12h46.48.245,lexical_decision_task_DD_L6,2021.2.3,Win32,60.30999337,,,,,,,,,,,,0.6792,1,,,,,,,,,,,,,,m,1,0.6792,,,,,,,,0.310185203,-0.2638889,0,0,0,,0,142,142,62,1,MAMMAL,HB,m,m,./images/MAMMALHB.png,,,,,,,,,,,,,,,,,,,,,,,,,,,,,,,,,,
,,,,,,,,,,,,,,,,,5f405adcda0ade19c87826bd,32,2022-02-12_12h46.48.245,lexical_decision_task_DD_L6,2021.2.3,Win32,60.30999337,,,,,,,,,,,,0.706,1,,,,,,,,,,,,,,z,1,0.706,,,,,,,,0.310185203,-0.2638889,0,0,0,,0,143,143,104,1,GITTY,LB,z,z,./images/GITTYLB.png,,,,,,,,,,,,,,,,,,,,,,,,,,,,,,,,,,
,,,,,,,,,,,,,,,,,5f405adcda0ade19c87826bd,32,2022-02-12_12h46.48.245,lexical_decision_task_DD_L6,2021.2.3,Win32,60.30999337,,,,,,,,,,,,0.5072,1,,,,,,,,,,,,,,m,1,0.5072,,,,,,,,0.310185203,-0.2638889,0,0,0,,0,144,144,78,1,BROOM,LB,m,m,./images/BROOMLB.png,,,,,,,,,,,,,,,,,,,,,,,,,,,,,,,,,,
,,,,,,,,,,,,,,,,,5f405adcda0ade19c87826bd,32,2022-02-12_12h46.48.245,lexical_decision_task_DD_L6,2021.2.3,Win32,60.30999337,,,,,,,,,,,,1.0847,1,,,,,,,,,,,,,,z,1,1.0847,,,,,,,,0.310185203,-0.2638889,0,0,0,,0,145,145,106,1,CLUMS,HB,z,z,./images/CLUMSHB.png,,,,,,,,,,,,,,,,,,,,,,,,,,,,,,,,,,
,,,,,,,,,,,,,,,,,5f405adcda0ade19c87826bd,32,2022-02-12_12h46.48.245,lexical_decision_task_DD_L6,2021.2.3,Win32,60.30999337,,,,,,,,,,,,0.4841,1,,,,,,,,,,,,,,m,1,0.4841,,,,,,,,0.310185203,-0.2638889,0,0,0,,0,146,146,12,1,BLOKE,LB,m,m,./images/BLOKELB.png,,,,,,,,,,,,,,,,,,,,,,,,,,,,,,,,,,
,,,,,,,,,,,,,,,,,5f405adcda0ade19c87826bd,32,2022-02-12_12h46.48.245,lexical_decision_task_DD_L6,2021.2.3,Win32,60.30999337,,,,,,,,,,,,0.7574,1,,,,,,,,,,,,,,z,1,0.7574,,,,,,,,0.310185203,-0.2638889,0,0,0,,0,147,147,91,1,SHENS,HB,z,z,./images/SHENSHB.png,,,,,,,,,,,,,,,,,,,,,,,,,,,,,,,,,,
,,,,,,,,,,,,,,,,,5f405adcda0ade19c87826bd,32,2022-02-12_12h46.48.245,lexical_decision_task_DD_L6,2021.2.3,Win32,60.30999337,,,,,,,,,,,,0.8555,1,,,,,,,,,,,,,,z,1,0.8555,,,,,,,,0.310185203,-0.2638889,0,0,0,,0,148,148,113,1,LINEW,LB,z,z,./images/LINEWLB.png,,,,,,,,,,,,,,,,,,,,,,,,,,,,,,,,,,
,,,,,,,,,,,,,,,,,5f405adcda0ade19c87826bd,32,2022-02-12_12h46.48.245,lexical_decision_task_DD_L6,2021.2.3,Win32,60.30999337,,,,,,,,,,,,0.6428,1,,,,,,,,,,,,,,z,1,0.6428,,,,,,,,0.310185203,-0.2638889,0,0,0,,0,149,149,102,1,DULLE,C,z,z,./images/DULLE.png,,,,,,,,,,,,,,,,,,,,,,,,,,,,,,,,,,
,,,,,,,,,,,,,,,,,5f405adcda0ade19c87826bd,32,2022-02-12_12h46.48.245,lexical_decision_task_DD_L6,2021.2.3,Win32,60.30999337,,,,,,,,,,,,0.5463,1,,,,,,,,,,,,,,m,1,0.5463,,,,,,,,0.310185203,-0.2638889,0,0,0,,0,150,150,46,1,MUMMY,C,m,m,./images/MUMMY.png,,,,,,,,,,,,,,,,,,,,,,,,,,,,,,,,,,
,,,,,,,,,,,,,,,,,5f405adcda0ade19c87826bd,32,2022-02-12_12h46.48.245,lexical_decision_task_DD_L6,2021.2.3,Win32,60.30999337,,,,,,,,,,,,0.5585,1,,,,,,,,,,,,,,m,1,0.5585,,,,,,,,0.310185203,-0.2638889,0,0,0,,0,151,151,13,1,BUNNY,C,m,m,./images/BUNNY.png,,,,,,,,,,,,,,,,,,,,,,,,,,,,,,,,,,
,,,,,,,,,,,,,,,,,5f405adcda0ade19c87826bd,32,2022-02-12_12h46.48.245,lexical_decision_task_DD_L6,2021.2.3,Win32,60.30999337,,,,,,,,,,,,0.6634,1,,,,,,,,,,,,,,z,1,0.6634,,,,,,,,0.310185203,-0.2638889,0,0,0,,0,152,152,120,1,RINED,C,z,z,./images/RINED.png,,,,,,,,,,,,,,,,,,,,,,,,,,,,,,,,,,
,,,,,,,,,,,,,,,,,5f405adcda0ade19c87826bd,32,2022-02-12_12h46.48.245,lexical_decision_task_DD_L6,2021.2.3,Win32,60.30999337,,,,,,,,,,,,0.4675,1,,,,,,,,,,,,,,m,1,0.4675,,,,,,,,0.310185203,-0.2638889,0,0,0,,0,153,153,64,1,BRIDE,C,m,m,./images/BRIDE.png,,,,,,,,,,,,,,,,,,,,,,,,,,,,,,,,,,
,,,,,,,,,,,,,,,,,5f405adcda0ade19c87826bd,32,2022-02-12_12h46.48.245,lexical_decision_task_DD_L6,2021.2.3,Win32,60.30999337,,,,,,,,,,,,0.5854,1,,,,,,,,,,,,,,z,1,0.5854,,,,,,,,0.310185203,-0.2638889,0,0,0,,0,154,154,90,1,NEAST,C,z,z,./images/NEAST.png,,,,,,,,,,,,,,,,,,,,,,,,,,,,,,,,,,
,,,,,,,,,,,,,,,,,5f405adcda0ade19c87826bd,32,2022-02-12_12h46.48.245,lexical_decision_task_DD_L6,2021.2.3,Win32,60.30999337,,,,,,,,,,,,0.7232,1,,,,,,,,,,,,,,z,1,0.7232,,,,,,,,0.310185203,-0.2638889,0,0,0,,0,155,155,153,1,CLUPS,C,z,z,./images/CLUPS.png,,,,,,,,,,,,,,,,,,,,,,,,,,,,,,,,,,
,,,,,,,,,,,,,,,,,5f405adcda0ade19c87826bd,32,2022-02-12_12h46.48.245,lexical_decision_task_DD_L6,2021.2.3,Win32,60.30999337,,,,,,,,,,,,0.5644,1,,,,,,,,,,,,,,z,1,0.5644,,,,,,,,0.310185203,-0.2638889,0,0,0,,0,156,156,108,1,GRUET,C,z,z,./images/GRUET.png,,,,,,,,,,,,,,,,,,,,,,,,,,,,,,,,,,
,,,,,,,,,,,,,,,,,5f405adcda0ade19c87826bd,32,2022-02-12_12h46.48.245,lexical_decision_task_DD_L6,2021.2.3,Win32,60.30999337,,,,,,,,,,,,0.8372,1,,,,,,,,,,,,,,z,1,0.8372,,,,,,,,0.310185203,-0.2638889,0,0,0,,0,157,157,130,1,CRILL,HB,z,z,./images/CRILLHB.png,,,,,,,,,,,,,,,,,,,,,,,,,,,,,,,,,,
,,,,,,,,,,,,,,,,,5f405adcda0ade19c87826bd,32,2022-02-12_12h46.48.245,lexical_decision_task_DD_L6,2021.2.3,Win32,60.30999337,,,,,,,,,,,,0.6881,1,,,,,,,,,,,,,,m,1,0.6881,,,,,,,,0.310185203,-0.2638889,0,0,0,,0,158,158,56,1,HEATER,HB,m,m,./images/HEATERHB.png,,,,,,,,,,,,,,,,,,,,,,,,,,,,,,,,,,
,,,,,,,,,,,,,,,,,5f405adcda0ade19c87826bd,32,2022-02-12_12h46.48.245,lexical_decision_task_DD_L6,2021.2.3,Win32,60.30999337,,,,,,,,,,,,0.7411,1,,,,,,,,,,,,,,z,1,0.7411,,,,,,,,0.310185203,-0.2638889,0,0,0,,0,159,159,151,1,TINKY,HB,z,z,./images/TINKYHB.png,,,,,,,,,,,,,,,,,,,,,,,,,,,,,,,,,,
,,,,,,,,,,,,,,,,,5f405adcda0ade19c87826bd,32,2022-02-12_12h46.48.245,lexical_decision_task_DD_L6,2021.2.3,Win32,60.30999337,,,,,,,,,,,,0.71,1,,,,,,,,,,,,,,z,1,0.71,,,,,,,,0.310185203,-0.2638889,0,0,0,,0,160,160,138,1,PLICE,C,z,z,./images/PLICE.png,,,,,,,,,,,,,,,,,,,,,,,,,,,,,,,,,,
,,,,,,,,,,,,,,,,,5f405adcda0ade19c87826bd,32,2022-02-12_12h46.48.245,lexical_decision_task_DD_L6,2021.2.3,Win32,60.30999337,,,,,,,,,,,,0.7516,1,,,,,,,,,,,,,,z,1,0.7516,,,,,,,,0.310185203,-0.2638889,0,0,0,,0,161,161,133,1,POWDY,HB,z,z,./images/POWDYHB.png,,,,,,,,,,,,,,,,,,,,,,,,,,,,,,,,,,
,,,,,,,,,,,,,,,,,5f405adcda0ade19c87826bd,32,2022-02-12_12h46.48.245,lexical_decision_task_DD_L6,2021.2.3,Win32,60.30999337,,,,,,,,,,,,0.8014,1,,,,,,,,,,,,,,z,1,0.8014,,,,,,,,0.310185203,-0.2638889,0,0,0,,0,162,162,136,1,WERVE,HB,z,z,./images/WERVEHB.png,,,,,,,,,,,,,,,,,,,,,,,,,,,,,,,,,,
,,,,,,,,,,,,,,,,,5f405adcda0ade19c87826bd,32,2022-02-12_12h46.48.245,lexical_decision_task_DD_L6,2021.2.3,Win32,60.30999337,,,,,,,,,,,,0.503,1,,,,,,,,,,,,,,m,1,0.503,,,,,,,,0.310185203,-0.2638889,0,0,0,,0,163,163,55,1,ALLEY,C,m,m,./images/ALLEY.png,,,,,,,,,,,,,,,,,,,,,,,,,,,,,,,,,,
,,,,,,,,,,,,,,,,,5f405adcda0ade19c87826bd,32,2022-02-12_12h46.48.245,lexical_decision_task_DD_L6,2021.2.3,Win32,60.30999337,,,,,,,,,,,,0.7522,1,,,,,,,,,,,,,,m,1,0.7522,,,,,,,,0.310185203,-0.2638889,0,0,0,,0,164,164,47,1,LAGOON,HB,m,m,./images/LAGOONHB.png,,,,,,,,,,,,,,,,,,,,,,,,,,,,,,,,,,
,,,,,,,,,,,,,,,,,5f405adcda0ade19c87826bd,32,2022-02-12_12h46.48.245,lexical_decision_task_DD_L6,2021.2.3,Win32,60.30999337,,,,,,,,,,,,0.5311,1,,,,,,,,,,,,,,m,1,0.5311,,,,,,,,0.310185203,-0.2638889,0,0,0,,0,165,165,51,1,SAUCE,LB,m,m,./images/SAUCELB.png,,,,,,,,,,,,,,,,,,,,,,,,,,,,,,,,,,
,,,,,,,,,,,,,,,,,5f405adcda0ade19c87826bd,32,2022-02-12_12h46.48.245,lexical_decision_task_DD_L6,2021.2.3,Win32,60.30999337,,,,,,,,,,,,0.5681,1,,,,,,,,,,,,,,m,1,0.5681,,,,,,,,0.310185203,-0.2638889,0,0,0,,0,166,166,48,1,SHIELD,LB,m,m,./images/SHIELDLB.png,,,,,,,,,,,,,,,,,,,,,,,,,,,,,,,,,,
,,,,,,,,,,,,,,,,,5f405adcda0ade19c87826bd,32,2022-02-12_12h46.48.245,lexical_decision_task_DD_L6,2021.2.3,Win32,60.30999337,,,,,,,,,,,,0.7468,1,,,,,,,,,,,,,,z,1,0.7468,,,,,,,,0.310185203,-0.2638889,0,0,0,,0,167,167,125,1,MOOKY,LB,z,z,./images/MOOKYLB.png,,,,,,,,,,,,,,,,,,,,,,,,,,,,,,,,,,
,,,,,,,,,,,,,,,,,5f405adcda0ade19c87826bd,32,2022-02-12_12h46.48.245,lexical_decision_task_DD_L6,2021.2.3,Win32,60.30999337,,,,,,,,,,,,,,,,,,,,,,,,,,,,,,,,,,,,,,,,,,,,,,,,,How likely will it be that you will recognize the words presented clearly on a scale of 0 (not likely) to 100 (most likely)?,,,,,0.006481551,-0.420370384,1,0,0,jol_adv,6,6.281,0,0,0,0,1,,,,,,,,,,,,,,,,,,,,
,,,,,,,,,,,,,,,,,5f405adcda0ade19c87826bd,32,2022-02-12_12h46.48.245,lexical_decision_task_DD_L6,2021.2.3,Win32,60.30999337,,,,,,,,,,,,,,,,,,,,,,,,,,,,,,,,,,,,,,,,,,,,,,,,,How likely will it be that you will recognize the words presented slighly blurred on a scale of 0 (not likely) to 100 (most likely)?,,,,,,,,,,,5,6.1705,0,1,1,1,1,,,,,,,,,,,,,,,,,,,,
,,,,,,,,,,,,,,,,,5f405adcda0ade19c87826bd,32,2022-02-12_12h46.48.245,lexical_decision_task_DD_L6,2021.2.3,Win32,60.30999337,,,,,,,,,,,,,,,,,,,,,,,,,,,,,,,,,,,,,,,,,,,,,,,,,How likely will it be that you will recognize the words presented very blurred on a scale of 0 (not likely) to 100 (most likely)?,,,,,,,,,,,4,2.5085,0,2,2,2,1,,,,,,,,,,,,,,,,,,,,
space,0.276851869,-0.063888897,0,0,0,,,,,,,1,test,"In the next phase you will be presented with the words from the the first phase. Your job is to decide whether you remember seeing the word or not. If you remember seeing the word press ""old"" or type ""m"". If you do not remember seeing the word press ""new"" or type ""z"". Please press the space bar or click on continue to begin. ",,,5f405adcda0ade19c87826bd,32,2022-02-12_12h46.48.245,lexical_decision_task_DD_L6,2021.2.3,Win32,60.30999337,10.7094,,,,,,,,,,,,,,,,,,,,,,,,,,,,,,,,,,,,,,,,,,,,,,,,,,,,,,,,,,,,,,,,,,0,0,0,0,1,,,,,,,,,,,,,,,
space,0.276851869,-0.063888897,0,0,0,,,,,,,1,test,"In the next phase you will be presented with the words from the the first phase. Your job is to decide whether you remember seeing the word or not. If you remember seeing the word press ""old"" or type ""m"". If you do not remember seeing the word press ""new"" or type ""z"". Please press the space bar or click on continue to begin. ",,,5f405adcda0ade19c87826bd,32,2022-02-12_12h46.48.245,lexical_decision_task_DD_L6,2021.2.3,Win32,60.30999337,4.554,,,,,,,,,,,,,,,,,,,,,,,,,,,,,,,,,,,,,,,,,,,,,,,,,,,,,,,,,,,,,,,,,,1,0,1,0,1,,,,,,,,,,,,,,,
,0.019444458,-0.385185198,1,0,0,instr_done_button,,,,,,1,test,"In the next phase you will be presented with the words from the the first phase. Your job is to decide whether you remember seeing the word or not. If you remember seeing the word press ""old"" or type ""m"". If you do not remember seeing the word press ""new"" or type ""z"". Please press the space bar or click on continue to begin. ",,,5f405adcda0ade19c87826bd,32,2022-02-12_12h46.48.245,lexical_decision_task_DD_L6,2021.2.3,Win32,60.30999337,,,,,,,,,,,,,,,,,,,,,,,,,,,,,,,,,,,,,,,,,,,,,,,,,,,,,,,,,,,,,,,,,,,2,0,2,0,1,,,,,,,,,,,,,,,
,0.040740755,-0.4046297,1,0,0,instr_done_button,,,,,,1,test,"In the next phase you will be presented with the words from the the first phase. Your job is to decide whether you remember seeing the word or not. If you remember seeing the word press ""old"" or type ""m"". If you do not remember seeing the word press ""new"" or type ""z"". Please press the space bar or click on continue to begin. ",,,5f405adcda0ade19c87826bd,32,2022-02-12_12h46.48.245,lexical_decision_task_DD_L6,2021.2.3,Win32,60.30999337,,,,,,,,,,,,,,,,,,,,,,,,,,,,,,,,,,,,,,,,,,,,,,,,,,,,,,,,,,,,,,,,,,,3,0,3,0,1,,,,,,,,,,,,,,,
space,0.312962981,-0.248148159,0,0,0,,,,,,,1,test,"In the next phase you will be presented with the words from the the first phase. Your job is to decide whether you remember seeing the word or not. If you remember seeing the word press ""old"" or type ""m"". If you do not remember seeing the word press ""new"" or type ""z"". Please press the space bar or click on continue to begin. ",,,5f405adcda0ade19c87826bd,32,2022-02-12_12h46.48.245,lexical_decision_task_DD_L6,2021.2.3,Win32,60.30999337,3.3731,,,,,,,,,,,,,,,,,,,,,,,,,,,,,,,,,,,,,,,,,,,,,,,,,,,,,,,,,,,,,,,,,,4,0,4,0,1,,,,,,,,,,,,,,,
,,,,,,,,,,,,,,,,,5f405adcda0ade19c87826bd,32,2022-02-12_12h46.48.245,lexical_decision_task_DD_L6,2021.2.3,Win32,60.30999337,,,,,,,,,,,,3.0558,1,,,,,,,,,,,,,,,,,,,,,,,,0.312962981,-0.248148159,0,0,0,,,,,,,BERRY,HB,z,y,./images/BERRYHB.png,,,,,,,,,,,,,,,,,,,,z,1,3.0558,,,,,,,,0,0,0,131,1
,,,,,,,,,,,,,,,,,5f405adcda0ade19c87826bd,32,2022-02-12_12h46.48.245,lexical_decision_task_DD_L6,2021.2.3,Win32,60.30999337,,,,,,,,,,,,0.9167,1,,,,,,,,,,,,,,,,,,,,,,,,0.312962981,-0.248148159,0,0,0,,,,,,,MAMMAL,HB,m,y,./images/MAMMALHB.png,,,,,,,,,,,,,,,,,,,,m,1,0.9167,,,,,,,,0,1,1,62,1
,,,,,,,,,,,,,,,,,5f405adcda0ade19c87826bd,32,2022-02-12_12h46.48.245,lexical_decision_task_DD_L6,2021.2.3,Win32,60.30999337,,,,,,,,,,,,0.8848,1,,,,,,,,,,,,,,,,,,,,,,,,0.312962981,-0.248148159,0,0,0,,,,,,,BIRTH,C,z,y,./images/BIRTH.png,,,,,,,,,,,,,,,,,,,,z,1,0.8848,,,,,,,,0,2,2,121,1
,,,,,,,,,,,,,,,,,5f405adcda0ade19c87826bd,32,2022-02-12_12h46.48.245,lexical_decision_task_DD_L6,2021.2.3,Win32,60.30999337,,,,,,,,,,,,0.8877,1,,,,,,,,,,,,,,,,,,,,,,,,0.312962981,-0.248148159,0,0,0,,,,,,,JUNGLE,HB,z,y,./images/JUNGLEHB.png,,,,,,,,,,,,,,,,,,,,z,1,0.8877,,,,,,,,0,3,3,167,1
,,,,,,,,,,,,,,,,,5f405adcda0ade19c87826bd,32,2022-02-12_12h46.48.245,lexical_decision_task_DD_L6,2021.2.3,Win32,60.30999337,,,,,,,,,,,,0.7265,1,,,,,,,,,,,,,,,,,,,,,,,,0.312962981,-0.248148159,0,0,0,,,,,,,CHERRY,LB,m,y,./images/CHERRYLB.png,,,,,,,,,,,,,,,,,,,,m,1,0.7265,,,,,,,,0,4,4,54,1
,,,,,,,,,,,,,,,,,5f405adcda0ade19c87826bd,32,2022-02-12_12h46.48.245,lexical_decision_task_DD_L6,2021.2.3,Win32,60.30999337,,,,,,,,,,,,0.661,1,,,,,,,,,,,,,,,,,,,,,,,,0.312962981,-0.248148159,0,0,0,,,,,,,TWINS,LB,z,y,./images/TWINSLB.png,,,,,,,,,,,,,,,,,,,,z,1,0.661,,,,,,,,0,5,5,144,1
,,,,,,,,,,,,,,,,,5f405adcda0ade19c87826bd,32,2022-02-12_12h46.48.245,lexical_decision_task_DD_L6,2021.2.3,Win32,60.30999337,,,,,,,,,,,,0.66,1,,,,,,,,,,,,,,,,,,,,,,,,0.312962981,-0.248148159,0,0,0,,,,,,,DOUGH,C,z,y,./images/DOUGH.png,,,,,,,,,,,,,,,,,,,,z,1,0.66,,,,,,,,0,6,6,103,1
,,,,,,,,,,,,,,,,,5f405adcda0ade19c87826bd,32,2022-02-12_12h46.48.245,lexical_decision_task_DD_L6,2021.2.3,Win32,60.30999337,,,,,,,,,,,,1.0302,1,,,,,,,,,,,,,,,,,,,,,,,,0.312962981,-0.248148159,0,0,0,,,,,,,DANCER,LB,m,y,./images/DANCERLB.png,,,,,,,,,,,,,,,,,,,,m,1,1.0302,,,,,,,,0,7,7,21,1
,,,,,,,,,,,,,,,,,5f405adcda0ade19c87826bd,32,2022-02-12_12h46.48.245,lexical_decision_task_DD_L6,2021.2.3,Win32,60.30999337,,,,,,,,,,,,0.6858,1,,,,,,,,,,,,,,,,,,,,,,,,0.312962981,-0.248148159,0,0,0,,,,,,,THROAT,LB,z,y,./images/THROATLB.png,,,,,,,,,,,,,,,,,,,,z,1,0.6858,,,,,,,,0,8,8,120,1
,,,,,,,,,,,,,,,,,5f405adcda0ade19c87826bd,32,2022-02-12_12h46.48.245,lexical_decision_task_DD_L6,2021.2.3,Win32,60.30999337,,,,,,,,,,,,0.7205,1,,,,,,,,,,,,,,,,,,,,,,,,0.312962981,-0.248148159,0,0,0,,,,,,,BELLY,C,z,y,./images/BELLY.png,,,,,,,,,,,,,,,,,,,,z,1,0.7205,,,,,,,,0,9,9,94,1
,,,,,,,,,,,,,,,,,5f405adcda0ade19c87826bd,32,2022-02-12_12h46.48.245,lexical_decision_task_DD_L6,2021.2.3,Win32,60.30999337,,,,,,,,,,,,0.6024,1,,,,,,,,,,,,,,,,,,,,,,,,0.312962981,-0.248148159,0,0,0,,,,,,,CHAIN,LB,m,y,./images/CHAINLB.png,,,,,,,,,,,,,,,,,,,,m,1,0.6024,,,,,,,,0,10,10,42,1
,,,,,,,,,,,,,,,,,5f405adcda0ade19c87826bd,32,2022-02-12_12h46.48.245,lexical_decision_task_DD_L6,2021.2.3,Win32,60.30999337,,,,,,,,,,,,0.6501,1,,,,,,,,,,,,,,,,,,,,,,,,0.312962981,-0.248148159,0,0,0,,,,,,,WRIST,C,z,y,./images/WRIST.png,,,,,,,,,,,,,,,,,,,,z,1,0.6501,,,,,,,,0,11,11,109,1
,,,,,,,,,,,,,,,,,5f405adcda0ade19c87826bd,32,2022-02-12_12h46.48.245,lexical_decision_task_DD_L6,2021.2.3,Win32,60.30999337,,,,,,,,,,,,1.1504,0,,,,,,,,,,,,,,,,,,,,,,,,0.312962981,-0.248148159,0,0,0,,,,,,,COOKER,LB,z,y,./images/COOKERLB.png,,,,,,,,,,,,,,,,,,,,m,0,1.1504,,,,,,,,0,12,12,153,1
,,,,,,,,,,,,,,,,,5f405adcda0ade19c87826bd,32,2022-02-12_12h46.48.245,lexical_decision_task_DD_L6,2021.2.3,Win32,60.30999337,,,,,,,,,,,,0.6379,1,,,,,,,,,,,,,,,,,,,,,,,,0.312962981,-0.248148159,0,0,0,,,,,,,FLASK,LB,m,y,./images/FLASKLB.png,,,,,,,,,,,,,,,,,,,,m,1,0.6379,,,,,,,,0,13,13,72,1
,,,,,,,,,,,,,,,,,5f405adcda0ade19c87826bd,32,2022-02-12_12h46.48.245,lexical_decision_task_DD_L6,2021.2.3,Win32,60.30999337,,,,,,,,,,,,1.728,1,,,,,,,,,,,,,,,,,,,,,,,,0.312962981,-0.248148159,0,0,0,,,,,,,BABOON,C,z,y,./images/BABOON.png,,,,,,,,,,,,,,,,,,,,z,1,1.728,,,,,,,,0,14,14,142,1
,,,,,,,,,,,,,,,,,5f405adcda0ade19c87826bd,32,2022-02-12_12h46.48.245,lexical_decision_task_DD_L6,2021.2.3,Win32,60.30999337,,,,,,,,,,,,0.7673,1,,,,,,,,,,,,,,,,,,,,,,,,0.312962981,-0.248148159,0,0,0,,,,,,,URINE,C,z,y,./images/URINE.png,,,,,,,,,,,,,,,,,,,,z,1,0.7673,,,,,,,,0,15,15,154,1
,,,,,,,,,,,,,,,,,5f405adcda0ade19c87826bd,32,2022-02-12_12h46.48.245,lexical_decision_task_DD_L6,2021.2.3,Win32,60.30999337,,,,,,,,,,,,0.6125,1,,,,,,,,,,,,,,,,,,,,,,,,0.312962981,-0.248148159,0,0,0,,,,,,,MUSCLE,C,z,y,./images/MUSCLE.png,,,,,,,,,,,,,,,,,,,,z,1,0.6125,,,,,,,,0,16,16,88,1
,,,,,,,,,,,,,,,,,5f405adcda0ade19c87826bd,32,2022-02-12_12h46.48.245,lexical_decision_task_DD_L6,2021.2.3,Win32,60.30999337,,,,,,,,,,,,0.9669,1,,,,,,,,,,,,,,,,,,,,,,,,0.312962981,-0.248148159,0,0,0,,,,,,,MIRROR,LB,z,y,./images/MIRRORLB.png,,,,,,,,,,,,,,,,,,,,z,1,0.9669,,,,,,,,0,17,17,147,1
,,,,,,,,,,,,,,,,,5f405adcda0ade19c87826bd,32,2022-02-12_12h46.48.245,lexical_decision_task_DD_L6,2021.2.3,Win32,60.30999337,,,,,,,,,,,,1.2173,1,,,,,,,,,,,,,,,,,,,,,,,,0.312962981,-0.248148159,0,0,0,,,,,,,MUFFIN,C,z,y,./images/MUFFIN.png,,,,,,,,,,,,,,,,,,,,z,1,1.2173,,,,,,,,0,18,18,139,1
,,,,,,,,,,,,,,,,,5f405adcda0ade19c87826bd,32,2022-02-12_12h46.48.245,lexical_decision_task_DD_L6,2021.2.3,Win32,60.30999337,,,,,,,,,,,,0.7038,1,,,,,,,,,,,,,,,,,,,,,,,,0.311111129,-0.249074085,0,0,0,,,,,,,SAILOR,C,z,y,./images/SAILOR.png,,,,,,,,,,,,,,,,,,,,z,1,0.7038,,,,,,,,0,19,19,151,1
,,,,,,,,,,,,,,,,,5f405adcda0ade19c87826bd,32,2022-02-12_12h46.48.245,lexical_decision_task_DD_L6,2021.2.3,Win32,60.30999337,,,,,,,,,,,,0.6341,1,,,,,,,,,,,,,,,,,,,,,,,,0.311111129,-0.249074085,0,0,0,,,,,,,ARTIST,C,m,y,./images/ARTIST.png,,,,,,,,,,,,,,,,,,,,m,1,0.6341,,,,,,,,0,20,20,61,1
,,,,,,,,,,,,,,,,,5f405adcda0ade19c87826bd,32,2022-02-12_12h46.48.245,lexical_decision_task_DD_L6,2021.2.3,Win32,60.30999337,,,,,,,,,,,,0.7129,1,,,,,,,,,,,,,,,,,,,,,,,,0.311111129,-0.249074085,0,0,0,,,,,,,GRANNY,HB,m,y,./images/GRANNYHB.png,,,,,,,,,,,,,,,,,,,,m,1,0.7129,,,,,,,,0,21,21,20,1
,,,,,,,,,,,,,,,,,5f405adcda0ade19c87826bd,32,2022-02-12_12h46.48.245,lexical_decision_task_DD_L6,2021.2.3,Win32,60.30999337,,,,,,,,,,,,0.6943,1,,,,,,,,,,,,,,,,,,,,,,,,0.311111129,-0.249074085,0,0,0,,,,,,,FARMER,HB,z,y,./images/FARMERHB.png,,,,,,,,,,,,,,,,,,,,z,1,0.6943,,,,,,,,0,22,22,149,1
,,,,,,,,,,,,,,,,,5f405adcda0ade19c87826bd,32,2022-02-12_12h46.48.245,lexical_decision_task_DD_L6,2021.2.3,Win32,60.30999337,,,,,,,,,,,,0.8077,1,,,,,,,,,,,,,,,,,,,,,,,,0.311111129,-0.249074085,0,0,0,,,,,,,CLIFF,HB,m,y,./images/CLIFFHB.png,,,,,,,,,,,,,,,,,,,,m,1,0.8077,,,,,,,,0,23,23,8,1
,,,,,,,,,,,,,,,,,5f405adcda0ade19c87826bd,32,2022-02-12_12h46.48.245,lexical_decision_task_DD_L6,2021.2.3,Win32,60.30999337,,,,,,,,,,,,1.0108,1,,,,,,,,,,,,,,,,,,,,,,,,0.311111129,-0.249074085,0,0,0,,,,,,,MOTOR,C,z,y,./images/MOTOR.png,,,,,,,,,,,,,,,,,,,,z,1,1.0108,,,,,,,,0,24,24,97,1
,,,,,,,,,,,,,,,,,5f405adcda0ade19c87826bd,32,2022-02-12_12h46.48.245,lexical_decision_task_DD_L6,2021.2.3,Win32,60.30999337,,,,,,,,,,,,0.5588,1,,,,,,,,,,,,,,,,,,,,,,,,0.311111129,-0.249074085,0,0,0,,,,,,,SAUNA,LB,m,y,./images/SAUNALB.png,,,,,,,,,,,,,,,,,,,,m,1,0.5588,,,,,,,,0,25,25,33,1
,,,,,,,,,,,,,,,,,5f405adcda0ade19c87826bd,32,2022-02-12_12h46.48.245,lexical_decision_task_DD_L6,2021.2.3,Win32,60.30999337,,,,,,,,,,,,0.6585,1,,,,,,,,,,,,,,,,,,,,,,,,0.311111129,-0.249074085,0,0,0,,,,,,,PARADE,HB,m,y,./images/PARADEHB.png,,,,,,,,,,,,,,,,,,,,m,1,0.6585,,,,,,,,0,26,26,17,1
,,,,,,,,,,,,,,,,,5f405adcda0ade19c87826bd,32,2022-02-12_12h46.48.245,lexical_decision_task_DD_L6,2021.2.3,Win32,60.30999337,,,,,,,,,,,,0.576,1,,,,,,,,,,,,,,,,,,,,,,,,0.311111129,-0.249074085,0,0,0,,,,,,,GARDEN,C,m,y,./images/GARDEN.png,,,,,,,,,,,,,,,,,,,,m,1,0.576,,,,,,,,0,27,27,10,1
,,,,,,,,,,,,,,,,,5f405adcda0ade19c87826bd,32,2022-02-12_12h46.48.245,lexical_decision_task_DD_L6,2021.2.3,Win32,60.30999337,,,,,,,,,,,,1.0171,0,,,,,,,,,,,,,,,,,,,,,,,,0.311111129,-0.249074085,0,0,0,,,,,,,LITTER,LB,z,y,./images/LITTERLB.png,,,,,,,,,,,,,,,,,,,,m,0,1.0171,,,,,,,,0,28,28,162,1
,,,,,,,,,,,,,,,,,5f405adcda0ade19c87826bd,32,2022-02-12_12h46.48.245,lexical_decision_task_DD_L6,2021.2.3,Win32,60.30999337,,,,,,,,,,,,0.8124,1,,,,,,,,,,,,,,,,,,,,,,,,0.311111129,-0.249074085,0,0,0,,,,,,,PICKLE,HB,z,y,./images/PICKLEHB.png,,,,,,,,,,,,,,,,,,,,z,1,0.8124,,,,,,,,0,29,29,98,1
,,,,,,,,,,,,,,,,,5f405adcda0ade19c87826bd,32,2022-02-12_12h46.48.245,lexical_decision_task_DD_L6,2021.2.3,Win32,60.30999337,,,,,,,,,,,,0.718,1,,,,,,,,,,,,,,,,,,,,,,,,0.311111129,-0.249074085,0,0,0,,,,,,,TORCH,HB,z,y,./images/TORCHHB.png,,,,,,,,,,,,,,,,,,,,z,1,0.718,,,,,,,,0,30,30,152,1
,,,,,,,,,,,,,,,,,5f405adcda0ade19c87826bd,32,2022-02-12_12h46.48.245,lexical_decision_task_DD_L6,2021.2.3,Win32,60.30999337,,,,,,,,,,,,0.5679,1,,,,,,,,,,,,,,,,,,,,,,,,0.311111129,-0.249074085,0,0,0,,,,,,,TOWEL,C,m,y,./images/TOWEL.png,,,,,,,,,,,,,,,,,,,,m,1,0.5679,,,,,,,,0,31,31,1,1
,,,,,,,,,,,,,,,,,5f405adcda0ade19c87826bd,32,2022-02-12_12h46.48.245,lexical_decision_task_DD_L6,2021.2.3,Win32,60.30999337,,,,,,,,,,,,0.6788,1,,,,,,,,,,,,,,,,,,,,,,,,0.311111129,-0.249074085,0,0,0,,,,,,,DIVER,LB,m,y,./images/DIVERLB.png,,,,,,,,,,,,,,,,,,,,m,1,0.6788,,,,,,,,0,32,32,9,1
,,,,,,,,,,,,,,,,,5f405adcda0ade19c87826bd,32,2022-02-12_12h46.48.245,lexical_decision_task_DD_L6,2021.2.3,Win32,60.30999337,,,,,,,,,,,,0.8275,1,,,,,,,,,,,,,,,,,,,,,,,,0.311111129,-0.249074085,0,0,0,,,,,,,FOLDER,LB,z,y,./images/FOLDERLB.png,,,,,,,,,,,,,,,,,,,,z,1,0.8275,,,,,,,,0,33,33,126,1
,,,,,,,,,,,,,,,,,5f405adcda0ade19c87826bd,32,2022-02-12_12h46.48.245,lexical_decision_task_DD_L6,2021.2.3,Win32,60.30999337,,,,,,,,,,,,0.5955,0,,,,,,,,,,,,,,,,,,,,,,,,0.311111129,-0.249074085,0,0,0,,,,,,,SHELF,LB,z,y,./images/SHELFLB.png,,,,,,,,,,,,,,,,,,,,m,0,0.5955,,,,,,,,0,34,34,123,1
,,,,,,,,,,,,,,,,,5f405adcda0ade19c87826bd,32,2022-02-12_12h46.48.245,lexical_decision_task_DD_L6,2021.2.3,Win32,60.30999337,,,,,,,,,,,,0.5636,1,,,,,,,,,,,,,,,,,,,,,,,,0.311111129,-0.249074085,0,0,0,,,,,,,ALLEY,C,m,y,./images/ALLEY.png,,,,,,,,,,,,,,,,,,,,m,1,0.5636,,,,,,,,0,35,35,55,1
,,,,,,,,,,,,,,,,,5f405adcda0ade19c87826bd,32,2022-02-12_12h46.48.245,lexical_decision_task_DD_L6,2021.2.3,Win32,60.30999337,,,,,,,,,,,,0.5864,1,,,,,,,,,,,,,,,,,,,,,,,,0.311111129,-0.249074085,0,0,0,,,,,,,RULER,C,m,y,./images/RULER.png,,,,,,,,,,,,,,,,,,,,m,1,0.5864,,,,,,,,0,36,36,79,1
,,,,,,,,,,,,,,,,,5f405adcda0ade19c87826bd,32,2022-02-12_12h46.48.245,lexical_decision_task_DD_L6,2021.2.3,Win32,60.30999337,,,,,,,,,,,,0.6505,0,,,,,,,,,,,,,,,,,,,,,,,,0.311111129,-0.249074085,0,0,0,,,,,,,SMOKER,HB,z,y,./images/SMOKERHB.png,,,,,,,,,,,,,,,,,,,,m,0,0.6505,,,,,,,,0,37,37,110,1
,,,,,,,,,,,,,,,,,5f405adcda0ade19c87826bd,32,2022-02-12_12h46.48.245,lexical_decision_task_DD_L6,2021.2.3,Win32,60.30999337,,,,,,,,,,,,0.842,1,,,,,,,,,,,,,,,,,,,,,,,,0.311111129,-0.249074085,0,0,0,,,,,,,PACKET,HB,z,y,./images/PACKETHB.png,,,,,,,,,,,,,,,,,,,,z,1,0.842,,,,,,,,0,38,38,140,1
,,,,,,,,,,,,,,,,,5f405adcda0ade19c87826bd,32,2022-02-12_12h46.48.245,lexical_decision_task_DD_L6,2021.2.3,Win32,60.30999337,,,,,,,,,,,,0.7289,1,,,,,,,,,,,,,,,,,,,,,,,,0.311111129,-0.249074085,0,0,0,,,,,,,GLOVE,C,m,y,./images/GLOVE.png,,,,,,,,,,,,,,,,,,,,m,1,0.7289,,,,,,,,0,39,39,73,1
,,,,,,,,,,,,,,,,,5f405adcda0ade19c87826bd,32,2022-02-12_12h46.48.245,lexical_decision_task_DD_L6,2021.2.3,Win32,60.30999337,,,,,,,,,,,,0.6835,1,,,,,,,,,,,,,,,,,,,,,,,,0.311111129,-0.249074085,0,0,0,,,,,,,BAKER,LB,m,y,./images/BAKERLB.png,,,,,,,,,,,,,,,,,,,,m,1,0.6835,,,,,,,,0,40,40,63,1
,,,,,,,,,,,,,,,,,5f405adcda0ade19c87826bd,32,2022-02-12_12h46.48.245,lexical_decision_task_DD_L6,2021.2.3,Win32,60.30999337,,,,,,,,,,,,0.5845,0,,,,,,,,,,,,,,,,,,,,,,,,0.311111129,-0.249074085,0,0,0,space,,,,,,PASTA,HB,z,y,./images/PASTAHB.png,1.2345,,,,,,,,,,,,,,,,,,,m,0,0.5845,,,,,,,,0,41,41,89,1
,,,,,,,,,,,,,,,,,5f405adcda0ade19c87826bd,32,2022-02-12_12h46.48.245,lexical_decision_task_DD_L6,2021.2.3,Win32,60.30999337,,,,,,,,,,,,0.6893,1,,,,,,,,,,,,,,,,,,,,,,,,0.311111129,-0.249074085,0,0,0,,,,,,,KIDNEY,LB,z,y,./images/KIDNEYLB.png,,,,,,,,,,,,,,,,,,,,z,1,0.6893,,,,,,,,0,42,42,105,1
,,,,,,,,,,,,,,,,,5f405adcda0ade19c87826bd,32,2022-02-12_12h46.48.245,lexical_decision_task_DD_L6,2021.2.3,Win32,60.30999337,,,,,,,,,,,,0.6588,1,,,,,,,,,,,,,,,,,,,,,,,,0.311111129,-0.249074085,0,0,0,,,,,,,WALNUT,LB,m,y,./images/WALNUTLB.png,,,,,,,,,,,,,,,,,,,,m,1,0.6588,,,,,,,,0,43,43,0,1
,,,,,,,,,,,,,,,,,5f405adcda0ade19c87826bd,32,2022-02-12_12h46.48.245,lexical_decision_task_DD_L6,2021.2.3,Win32,60.30999337,,,,,,,,,,,,0.7293,1,,,,,,,,,,,,,,,,,,,,,,,,0.311111129,-0.249074085,0,0,0,,,,,,,DRUMS,C,z,y,./images/DRUMS.png,,,,,,,,,,,,,,,,,,,,z,1,0.7293,,,,,,,,0,44,44,133,1
,,,,,,,,,,,,,,,,,5f405adcda0ade19c87826bd,32,2022-02-12_12h46.48.245,lexical_decision_task_DD_L6,2021.2.3,Win32,60.30999337,,,,,,,,,,,,0.7503,1,,,,,,,,,,,,,,,,,,,,,,,,0.311111129,-0.249074085,0,0,0,,,,,,,MIDGET,C,m,y,./images/MIDGET.png,,,,,,,,,,,,,,,,,,,,m,1,0.7503,,,,,,,,0,45,45,76,1
,,,,,,,,,,,,,,,,,5f405adcda0ade19c87826bd,32,2022-02-12_12h46.48.245,lexical_decision_task_DD_L6,2021.2.3,Win32,60.30999337,,,,,,,,,,,,0.5965,1,,,,,,,,,,,,,,,,,,,,,,,,0.311111129,-0.249074085,0,0,0,,,,,,,WEASEL,HB,z,y,./images/WEASELHB.png,,,,,,,,,,,,,,,,,,,,z,1,0.5965,,,,,,,,0,46,46,164,1
,,,,,,,,,,,,,,,,,5f405adcda0ade19c87826bd,32,2022-02-12_12h46.48.245,lexical_decision_task_DD_L6,2021.2.3,Win32,60.30999337,,,,,,,,,,,,0.6694,1,,,,,,,,,,,,,,,,,,,,,,,,0.311111129,-0.249074085,0,0,0,,,,,,,STREAM,HB,m,y,./images/STREAMHB.png,,,,,,,,,,,,,,,,,,,,m,1,0.6694,,,,,,,,0,47,47,41,1
,,,,,,,,,,,,,,,,,5f405adcda0ade19c87826bd,32,2022-02-12_12h46.48.245,lexical_decision_task_DD_L6,2021.2.3,Win32,60.30999337,,,,,,,,,,,,0.8672,0,,,,,,,,,,,,,,,,,,,,,,,,0.311111129,-0.249074085,0,0,0,,,,,,,CANDLE,C,z,y,./images/CANDLE.png,,,,,,,,,,,,,,,,,,,,m,0,0.8672,,,,,,,,0,48,48,145,1
,,,,,,,,,,,,,,,,,5f405adcda0ade19c87826bd,32,2022-02-12_12h46.48.245,lexical_decision_task_DD_L6,2021.2.3,Win32,60.30999337,,,,,,,,,,,,0.6761,1,,,,,,,,,,,,,,,,,,,,,,,,0.311111129,-0.249074085,0,0,0,,,,,,,STATUE,LB,m,y,./images/STATUELB.png,,,,,,,,,,,,,,,,,,,,m,1,0.6761,,,,,,,,0,49,49,66,1
,,,,,,,,,,,,,,,,,5f405adcda0ade19c87826bd,32,2022-02-12_12h46.48.245,lexical_decision_task_DD_L6,2021.2.3,Win32,60.30999337,,,,,,,,,,,,0.551,1,,,,,,,,,,,,,,,,,,,,,,,,0.311111129,-0.249074085,0,0,0,,,,,,,WAGON,C,m,y,./images/WAGON.png,,,,,,,,,,,,,,,,,,,,m,1,0.551,,,,,,,,0,50,50,7,1
,,,,,,,,,,,,,,,,,5f405adcda0ade19c87826bd,32,2022-02-12_12h46.48.245,lexical_decision_task_DD_L6,2021.2.3,Win32,60.30999337,,,,,,,,,,,,0.9124,1,,,,,,,,,,,,,,,,,,,,,,,,0.311111129,-0.249074085,0,0,0,,,,,,,JAGUAR,LB,z,y,./images/JAGUARLB.png,,,,,,,,,,,,,,,,,,,,z,1,0.9124,,,,,,,,0,51,51,102,1
,,,,,,,,,,,,,,,,,5f405adcda0ade19c87826bd,32,2022-02-12_12h46.48.245,lexical_decision_task_DD_L6,2021.2.3,Win32,60.30999337,,,,,,,,,,,,1.2669,1,,,,,,,,,,,,,,,,,,,,,,,,0.311111129,-0.249074085,0,0,0,,,,,,,KITTEN,LB,z,y,./images/KITTENLB.png,,,,,,,,,,,,,,,,,,,,z,1,1.2669,,,,,,,,0,52,52,129,1
,,,,,,,,,,,,,,,,,5f405adcda0ade19c87826bd,32,2022-02-12_12h46.48.245,lexical_decision_task_DD_L6,2021.2.3,Win32,60.30999337,,,,,,,,,,,,0.613,1,,,,,,,,,,,,,,,,,,,,,,,,0.311111129,-0.249074085,0,0,0,,,,,,,HEATER,HB,m,y,./images/HEATERHB.png,,,,,,,,,,,,,,,,,,,,m,1,0.613,,,,,,,,0,53,53,56,1
,,,,,,,,,,,,,,,,,5f405adcda0ade19c87826bd,32,2022-02-12_12h46.48.245,lexical_decision_task_DD_L6,2021.2.3,Win32,60.30999337,,,,,,,,,,,,0.6168,1,,,,,,,,,,,,,,,,,,,,,,,,0.311111129,-0.249074085,0,0,0,,,,,,,RAZOR,C,m,y,./images/RAZOR.png,,,,,,,,,,,,,,,,,,,,m,1,0.6168,,,,,,,,0,54,54,34,1
,,,,,,,,,,,,,,,,,5f405adcda0ade19c87826bd,32,2022-02-12_12h46.48.245,lexical_decision_task_DD_L6,2021.2.3,Win32,60.30999337,,,,,,,,,,,,0.6854,1,,,,,,,,,,,,,,,,,,,,,,,,0.311111129,-0.249074085,0,0,0,,,,,,,FINGER,LB,z,y,./images/FINGERLB.png,,,,,,,,,,,,,,,,,,,,z,1,0.6854,,,,,,,,0,55,55,87,1
,,,,,,,,,,,,,,,,,5f405adcda0ade19c87826bd,32,2022-02-12_12h46.48.245,lexical_decision_task_DD_L6,2021.2.3,Win32,60.30999337,,,,,,,,,,,,0.7036,1,,,,,,,,,,,,,,,,,,,,,,,,0.311111129,-0.249074085,0,0,0,,,,,,,BROOM,LB,m,y,./images/BROOMLB.png,,,,,,,,,,,,,,,,,,,,m,1,0.7036,,,,,,,,0,56,56,78,1
,,,,,,,,,,,,,,,,,5f405adcda0ade19c87826bd,32,2022-02-12_12h46.48.245,lexical_decision_task_DD_L6,2021.2.3,Win32,60.30999337,,,,,,,,,,,,0.6342,1,,,,,,,,,,,,,,,,,,,,,,,,0.303703721,-0.245370381,0,0,0,,,,,,,BUTTER,LB,m,y,./images/BUTTERLB.png,,,,,,,,,,,,,,,,,,,,m,1,0.6342,,,,,,,,0,57,57,27,1
,,,,,,,,,,,,,,,,,5f405adcda0ade19c87826bd,32,2022-02-12_12h46.48.245,lexical_decision_task_DD_L6,2021.2.3,Win32,60.30999337,,,,,,,,,,,,0.5342,1,,,,,,,,,,,,,,,,,,,,,,,,0.303703721,-0.245370381,0,0,0,,,,,,,LLAMA,HB,m,y,./images/LLAMAHB.png,,,,,,,,,,,,,,,,,,,,m,1,0.5342,,,,,,,,0,58,58,35,1
,,,,,,,,,,,,,,,,,5f405adcda0ade19c87826bd,32,2022-02-12_12h46.48.245,lexical_decision_task_DD_L6,2021.2.3,Win32,60.30999337,,,,,,,,,,,,0.5336,1,,,,,,,,,,,,,,,,,,,,,,,,0.303703721,-0.245370381,0,0,0,,,,,,,STAIN,LB,m,y,./images/STAINLB.png,,,,,,,,,,,,,,,,,,,,m,1,0.5336,,,,,,,,0,59,59,6,1
,,,,,,,,,,,,,,,,,5f405adcda0ade19c87826bd,32,2022-02-12_12h46.48.245,lexical_decision_task_DD_L6,2021.2.3,Win32,60.30999337,,,,,,,,,,,,1.0502,0,,,,,,,,,,,,,,,,,,,,,,,,0.303703721,-0.245370381,0,0,0,,,,,,,STORM,LB,z,y,./images/STORMLB.png,,,,,,,,,,,,,,,,,,,,m,0,1.0502,,,,,,,,0,60,60,114,1
,,,,,,,,,,,,,,,,,5f405adcda0ade19c87826bd,32,2022-02-12_12h46.48.245,lexical_decision_task_DD_L6,2021.2.3,Win32,60.30999337,,,,,,,,,,,,0.5274,1,,,,,,,,,,,,,,,,,,,,,,,,0.30462976,-0.240740752,0,0,0,,,,,,,GRAPE,C,m,y,./images/GRAPE.png,,,,,,,,,,,,,,,,,,,,m,1,0.5274,,,,,,,,0,61,61,16,1
,,,,,,,,,,,,,,,,,5f405adcda0ade19c87826bd,32,2022-02-12_12h46.48.245,lexical_decision_task_DD_L6,2021.2.3,Win32,60.30999337,,,,,,,,,,,,1.0622,1,,,,,,,,,,,,,,,,,,,,,,,,0.30462976,-0.240740752,0,0,0,,,,,,,MOSQUE,C,z,y,./images/MOSQUE.png,,,,,,,,,,,,,,,,,,,,z,1,1.0622,,,,,,,,0,62,62,127,1
,,,,,,,,,,,,,,,,,5f405adcda0ade19c87826bd,32,2022-02-12_12h46.48.245,lexical_decision_task_DD_L6,2021.2.3,Win32,60.30999337,,,,,,,,,,,,0.5426,0,,,,,,,,,,,,,,,,,,,,,,,,0.30462976,-0.240740752,0,0,0,,,,,,,PAINT,C,z,y,./images/PAINT.png,,,,,,,,,,,,,,,,,,,,m,0,0.5426,,,,,,,,0,63,63,91,1
,,,,,,,,,,,,,,,,,5f405adcda0ade19c87826bd,32,2022-02-12_12h46.48.245,lexical_decision_task_DD_L6,2021.2.3,Win32,60.30999337,,,,,,,,,,,,0.778,1,,,,,,,,,,,,,,,,,,,,,,,,0.30462976,-0.240740752,0,0,0,,,,,,,BONNET,HB,z,y,./images/BONNETHB.png,,,,,,,,,,,,,,,,,,,,z,1,0.778,,,,,,,,0,64,64,95,1
,,,,,,,,,,,,,,,,,5f405adcda0ade19c87826bd,32,2022-02-12_12h46.48.245,lexical_decision_task_DD_L6,2021.2.3,Win32,60.30999337,,,,,,,,,,,,0.8233,1,,,,,,,,,,,,,,,,,,,,,,,,0.30462976,-0.240740752,0,0,0,,,,,,,TRIPOD,LB,z,y,./images/TRIPODLB.png,,,,,,,,,,,,,,,,,,,,z,1,0.8233,,,,,,,,0,65,65,138,1
,,,,,,,,,,,,,,,,,5f405adcda0ade19c87826bd,32,2022-02-12_12h46.48.245,lexical_decision_task_DD_L6,2021.2.3,Win32,60.30999337,,,,,,,,,,,,0.6531,1,,,,,,,,,,,,,,,,,,,,,,,,0.30462976,-0.240740752,0,0,0,,,,,,,BASKET,HB,m,y,./images/BASKETHB.png,,,,,,,,,,,,,,,,,,,,m,1,0.6531,,,,,,,,0,66,66,44,1
,,,,,,,,,,,,,,,,,5f405adcda0ade19c87826bd,32,2022-02-12_12h46.48.245,lexical_decision_task_DD_L6,2021.2.3,Win32,60.30999337,,,,,,,,,,,,0.8198,0,,,,,,,,,,,,,,,,,,,,,,,,0.30462976,-0.240740752,0,0,0,,,,,,,SWING,C,z,y,./images/SWING.png,,,,,,,,,,,,,,,,,,,,m,0,0.8198,,,,,,,,0,67,67,124,1
,,,,,,,,,,,,,,,,,5f405adcda0ade19c87826bd,32,2022-02-12_12h46.48.245,lexical_decision_task_DD_L6,2021.2.3,Win32,60.30999337,,,,,,,,,,,,0.535,1,,,,,,,,,,,,,,,,,,,,,,,,0.30462976,-0.240740752,0,0,0,,,,,,,SAUCE,LB,m,y,./images/SAUCELB.png,,,,,,,,,,,,,,,,,,,,m,1,0.535,,,,,,,,0,68,68,51,1
,,,,,,,,,,,,,,,,,5f405adcda0ade19c87826bd,32,2022-02-12_12h46.48.245,lexical_decision_task_DD_L6,2021.2.3,Win32,60.30999337,,,,,,,,,,,,0.5913,1,,,,,,,,,,,,,,,,,,,,,,,,0.30462976,-0.240740752,0,0,0,,,,,,,FLESH,LB,m,y,./images/FLESHLB.png,,,,,,,,,,,,,,,,,,,,m,1,0.5913,,,,,,,,0,69,69,24,1
,,,,,,,,,,,,,,,,,5f405adcda0ade19c87826bd,32,2022-02-12_12h46.48.245,lexical_decision_task_DD_L6,2021.2.3,Win32,60.30999337,,,,,,,,,,,,0.7672,1,,,,,,,,,,,,,,,,,,,,,,,,0.30462976,-0.240740752,0,0,0,,,,,,,PEACH,HB,z,y,./images/PEACHHB.png,,,,,,,,,,,,,,,,,,,,z,1,0.7672,,,,,,,,0,70,70,119,1
,,,,,,,,,,,,,,,,,5f405adcda0ade19c87826bd,32,2022-02-12_12h46.48.245,lexical_decision_task_DD_L6,2021.2.3,Win32,60.30999337,,,,,,,,,,,,0.6672,1,,,,,,,,,,,,,,,,,,,,,,,,0.30462976,-0.240740752,0,0,0,,,,,,,SLOPE,LB,m,y,./images/SLOPELB.png,,,,,,,,,,,,,,,,,,,,m,1,0.6672,,,,,,,,0,71,71,30,1
,,,,,,,,,,,,,,,,,5f405adcda0ade19c87826bd,32,2022-02-12_12h46.48.245,lexical_decision_task_DD_L6,2021.2.3,Win32,60.30999337,,,,,,,,,,,,0.5812,1,,,,,,,,,,,,,,,,,,,,,,,,0.30462976,-0.240740752,0,0,0,,,,,,,MONKEY,LB,m,y,./images/MONKEYLB.png,,,,,,,,,,,,,,,,,,,,m,1,0.5812,,,,,,,,0,72,72,45,1
,,,,,,,,,,,,,,,,,5f405adcda0ade19c87826bd,32,2022-02-12_12h46.48.245,lexical_decision_task_DD_L6,2021.2.3,Win32,60.30999337,,,,,,,,,,,,0.6965,1,,,,,,,,,,,,,,,,,,,,,,,,0.30462976,-0.240740752,0,0,0,,,,,,,RHINO,LB,z,y,./images/RHINOLB.png,,,,,,,,,,,,,,,,,,,,z,1,0.6965,,,,,,,,0,73,73,93,1
,,,,,,,,,,,,,,,,,5f405adcda0ade19c87826bd,32,2022-02-12_12h46.48.245,lexical_decision_task_DD_L6,2021.2.3,Win32,60.30999337,,,,,,,,,,,,0.7379,0,,,,,,,,,,,,,,,,,,,,,,,,0.30462976,-0.240740752,0,0,0,,,,,,,MALLET,HB,z,y,./images/MALLETHB.png,,,,,,,,,,,,,,,,,,,,m,0,0.7379,,,,,,,,0,74,74,134,1
,,,,,,,,,,,,,,,,,5f405adcda0ade19c87826bd,32,2022-02-12_12h46.48.245,lexical_decision_task_DD_L6,2021.2.3,Win32,60.30999337,,,,,,,,,,,,0.6003,1,,,,,,,,,,,,,,,,,,,,,,,,0.30462976,-0.240740752,0,0,0,,,,,,,BLOKE,LB,m,y,./images/BLOKELB.png,,,,,,,,,,,,,,,,,,,,m,1,0.6003,,,,,,,,0,75,75,12,1
,,,,,,,,,,,,,,,,,5f405adcda0ade19c87826bd,32,2022-02-12_12h46.48.245,lexical_decision_task_DD_L6,2021.2.3,Win32,60.30999337,,,,,,,,,,,,0.6846,1,,,,,,,,,,,,,,,,,,,,,,,,0.30462976,-0.240740752,0,0,0,,,,,,,DRILL,LB,m,y,./images/DRILLLB.png,,,,,,,,,,,,,,,,,,,,m,1,0.6846,,,,,,,,0,76,76,81,1
,,,,,,,,,,,,,,,,,5f405adcda0ade19c87826bd,32,2022-02-12_12h46.48.245,lexical_decision_task_DD_L6,2021.2.3,Win32,60.30999337,,,,,,,,,,,,0.7103,1,,,,,,,,,,,,,,,,,,,,,,,,0.30462976,-0.240740752,0,0,0,,,,,,,STOVE,HB,m,y,./images/STOVEHB.png,,,,,,,,,,,,,,,,,,,,m,1,0.7103,,,,,,,,0,77,77,2,1
,,,,,,,,,,,,,,,,,5f405adcda0ade19c87826bd,32,2022-02-12_12h46.48.245,lexical_decision_task_DD_L6,2021.2.3,Win32,60.30999337,,,,,,,,,,,,0.6792,1,,,,,,,,,,,,,,,,,,,,,,,,0.30462976,-0.240740752,0,0,0,,,,,,,CLOTH,HB,m,y,./images/CLOTHHB.png,,,,,,,,,,,,,,,,,,,,m,1,0.6792,,,,,,,,0,78,78,23,1
,,,,,,,,,,,,,,,,,5f405adcda0ade19c87826bd,32,2022-02-12_12h46.48.245,lexical_decision_task_DD_L6,2021.2.3,Win32,60.30999337,,,,,,,,,,,,0.7547,1,,,,,,,,,,,,,,,,,,,,,,,,0.30462976,-0.240740752,0,0,0,,,,,,,BRUSH,HB,m,y,./images/BRUSHHB.png,,,,,,,,,,,,,,,,,,,,m,1,0.7547,,,,,,,,0,79,79,59,1
,,,,,,,,,,,,,,,,,5f405adcda0ade19c87826bd,32,2022-02-12_12h46.48.245,lexical_decision_task_DD_L6,2021.2.3,Win32,60.30999337,,,,,,,,,,,,0.6098,1,,,,,,,,,,,,,,,,,,,,,,,,0.30462976,-0.240740752,0,0,0,,,,,,,PEBBLE,C,m,y,./images/PEBBLE.png,,,,,,,,,,,,,,,,,,,,m,1,0.6098,,,,,,,,0,80,80,82,1
,,,,,,,,,,,,,,,,,5f405adcda0ade19c87826bd,32,2022-02-12_12h46.48.245,lexical_decision_task_DD_L6,2021.2.3,Win32,60.30999337,,,,,,,,,,,,0.5726,1,,,,,,,,,,,,,,,,,,,,,,,,0.300000131,-0.233333401,0,0,0,,,,,,,CLOWN,C,m,y,./images/CLOWN.png,,,,,,,,,,,,,,,,,,,,m,1,0.5726,,,,,,,,0,81,81,22,1
,,,,,,,,,,,,,,,,,5f405adcda0ade19c87826bd,32,2022-02-12_12h46.48.245,lexical_decision_task_DD_L6,2021.2.3,Win32,60.30999337,,,,,,,,,,,,0.5075,1,,,,,,,,,,,,,,,,,,,,,,,,0.300000131,-0.233333401,0,0,0,,,,,,,CHALK,C,m,y,./images/CHALK.png,,,,,,,,,,,,,,,,,,,,m,1,0.5075,,,,,,,,0,82,82,25,1
,,,,,,,,,,,,,,,,,5f405adcda0ade19c87826bd,32,2022-02-12_12h46.48.245,lexical_decision_task_DD_L6,2021.2.3,Win32,60.30999337,,,,,,,,,,,,0.4902,0,,,,,,,,,,,,,,,,,,,,,,,,0.300000131,-0.233333401,0,0,0,space,,,,,,WALRUS,HB,z,y,./images/WALRUSHB.png,1.3002,,,,,,,,,,,,,,,,,,,m,0,0.4902,,,,,,,,0,83,83,107,1
,,,,,,,,,,,,,,,,,5f405adcda0ade19c87826bd,32,2022-02-12_12h46.48.245,lexical_decision_task_DD_L6,2021.2.3,Win32,60.30999337,,,,,,,,,,,,0.663,1,,,,,,,,,,,,,,,,,,,,,,,,0.300000131,-0.233333401,0,0,0,,,,,,,POKER,C,m,y,./images/POKER.png,,,,,,,,,,,,,,,,,,,,m,1,0.663,,,,,,,,0,84,84,67,1
,,,,,,,,,,,,,,,,,5f405adcda0ade19c87826bd,32,2022-02-12_12h46.48.245,lexical_decision_task_DD_L6,2021.2.3,Win32,60.30999337,,,,,,,,,,,,0.9273,1,,,,,,,,,,,,,,,,,,,,,,,,0.300000131,-0.233333401,0,0,0,,,,,,,SKIING,HB,z,y,./images/SKIINGHB.png,,,,,,,,,,,,,,,,,,,,z,1,0.9273,,,,,,,,0,85,85,101,1
,,,,,,,,,,,,,,,,,5f405adcda0ade19c87826bd,32,2022-02-12_12h46.48.245,lexical_decision_task_DD_L6,2021.2.3,Win32,60.30999337,,,,,,,,,,,,1.6296,0,,,,,,,,,,,,,,,,,,,,,,,,0.300000131,-0.233333401,0,0,0,,,,,,,SPORT,LB,z,y,./images/SPORTLB.png,,,,,,,,,,,,,,,,,,,,m,0,1.6296,,,,,,,,0,86,86,132,1
,,,,,,,,,,,,,,,,,5f405adcda0ade19c87826bd,32,2022-02-12_12h46.48.245,lexical_decision_task_DD_L6,2021.2.3,Win32,60.30999337,,,,,,,,,,,,0.4951,1,,,,,,,,,,,,,,,,,,,,,,,,0.300000131,-0.233333401,0,0,0,,,,,,,LAGOON,HB,m,y,./images/LAGOONHB.png,,,,,,,,,,,,,,,,,,,,m,1,0.4951,,,,,,,,0,87,87,47,1
,,,,,,,,,,,,,,,,,5f405adcda0ade19c87826bd,32,2022-02-12_12h46.48.245,lexical_decision_task_DD_L6,2021.2.3,Win32,60.30999337,,,,,,,,,,,,0.5834,1,,,,,,,,,,,,,,,,,,,,,,,,0.300000131,-0.233333401,0,0,0,,,,,,,STEAK,C,m,y,./images/STEAK.png,,,,,,,,,,,,,,,,,,,,m,1,0.5834,,,,,,,,0,88,88,31,1
,,,,,,,,,,,,,,,,,5f405adcda0ade19c87826bd,32,2022-02-12_12h46.48.245,lexical_decision_task_DD_L6,2021.2.3,Win32,60.30999337,,,,,,,,,,,,0.9037,1,,,,,,,,,,,,,,,,,,,,,,,,0.300000131,-0.233333401,0,0,0,,,,,,,CRADLE,HB,z,y,./images/CRADLEHB.png,,,,,,,,,,,,,,,,,,,,z,1,0.9037,,,,,,,,0,89,89,104,1
,,,,,,,,,,,,,,,,,5f405adcda0ade19c87826bd,32,2022-02-12_12h46.48.245,lexical_decision_task_DD_L6,2021.2.3,Win32,60.30999337,,,,,,,,,,,,0.7294,1,,,,,,,,,,,,,,,,,,,,,,,,0.300000131,-0.233333401,0,0,0,,,,,,,FENCE,HB,m,y,./images/FENCEHB.png,,,,,,,,,,,,,,,,,,,,m,1,0.7294,,,,,,,,0,90,90,14,1
,,,,,,,,,,,,,,,,,5f405adcda0ade19c87826bd,32,2022-02-12_12h46.48.245,lexical_decision_task_DD_L6,2021.2.3,Win32,60.30999337,,,,,,,,,,,,0.727,1,,,,,,,,,,,,,,,,,,,,,,,,0.300000131,-0.233333401,0,0,0,,,,,,,GREASE,LB,z,y,./images/GREASELB.png,,,,,,,,,,,,,,,,,,,,z,1,0.727,,,,,,,,0,91,91,99,1
,,,,,,,,,,,,,,,,,5f405adcda0ade19c87826bd,32,2022-02-12_12h46.48.245,lexical_decision_task_DD_L6,2021.2.3,Win32,60.30999337,,,,,,,,,,,,0.7163,1,,,,,,,,,,,,,,,,,,,,,,,,0.300000131,-0.233333401,0,0,0,,,,,,,QUILL,C,z,y,./images/QUILL.png,,,,,,,,,,,,,,,,,,,,z,1,0.7163,,,,,,,,0,92,92,115,1
,,,,,,,,,,,,,,,,,5f405adcda0ade19c87826bd,32,2022-02-12_12h46.48.245,lexical_decision_task_DD_L6,2021.2.3,Win32,60.30999337,,,,,,,,,,,,0.6256,0,,,,,,,,,,,,,,,,,,,,,,,,0.300000131,-0.233333401,0,0,0,,,,,,,STRING,HB,z,y,./images/STRINGHB.png,,,,,,,,,,,,,,,,,,,,m,0,0.6256,,,,,,,,0,93,93,125,1
,,,,,,,,,,,,,,,,,5f405adcda0ade19c87826bd,32,2022-02-12_12h46.48.245,lexical_decision_task_DD_L6,2021.2.3,Win32,60.30999337,,,,,,,,,,,,0.8,1,,,,,,,,,,,,,,,,,,,,,,,,0.300000131,-0.23425927,0,0,0,,,,,,,POODLE,LB,z,y,./images/POODLELB.png,,,,,,,,,,,,,,,,,,,,z,1,0.8,,,,,,,,0,94,94,165,1
,,,,,,,,,,,,,,,,,5f405adcda0ade19c87826bd,32,2022-02-12_12h46.48.245,lexical_decision_task_DD_L6,2021.2.3,Win32,60.30999337,,,,,,,,,,,,0.6748,1,,,,,,,,,,,,,,,,,,,,,,,,0.300000131,-0.23425927,0,0,0,,,,,,,BISHOP,C,m,y,./images/BISHOP.png,,,,,,,,,,,,,,,,,,,,m,1,0.6748,,,,,,,,0,95,95,49,1
,,,,,,,,,,,,,,,,,5f405adcda0ade19c87826bd,32,2022-02-12_12h46.48.245,lexical_decision_task_DD_L6,2021.2.3,Win32,60.30999337,,,,,,,,,,,,0.7351,1,,,,,,,,,,,,,,,,,,,,,,,,0.300000131,-0.23425927,0,0,0,,,,,,,SHIELD,LB,m,y,./images/SHIELDLB.png,,,,,,,,,,,,,,,,,,,,m,1,0.7351,,,,,,,,0,96,96,48,1
,,,,,,,,,,,,,,,,,5f405adcda0ade19c87826bd,32,2022-02-12_12h46.48.245,lexical_decision_task_DD_L6,2021.2.3,Win32,60.30999337,,,,,,,,,,,,0.7858,0,,,,,,,,,,,,,,,,,,,,,,,,0.300000131,-0.23425927,0,0,0,,,,,,,CLOUD,HB,m,y,./images/CLOUDHB.png,,,,,,,,,,,,,,,,,,,,z,0,0.7858,,,,,,,,0,97,97,26,1
,,,,,,,,,,,,,,,,,5f405adcda0ade19c87826bd,32,2022-02-12_12h46.48.245,lexical_decision_task_DD_L6,2021.2.3,Win32,60.30999337,,,,,,,,,,,,0.7311,1,,,,,,,,,,,,,,,,,,,,,,,,0.300000131,-0.23425927,0,0,0,,,,,,,BURIAL,HB,z,y,./images/BURIALHB.png,,,,,,,,,,,,,,,,,,,,z,1,0.7311,,,,,,,,0,98,98,143,1
,,,,,,,,,,,,,,,,,5f405adcda0ade19c87826bd,32,2022-02-12_12h46.48.245,lexical_decision_task_DD_L6,2021.2.3,Win32,60.30999337,,,,,,,,,,,,0.7878,1,,,,,,,,,,,,,,,,,,,,,,,,0.300000131,-0.23425927,0,0,0,,,,,,,MOOSE,LB,z,y,./images/MOOSELB.png,,,,,,,,,,,,,,,,,,,,z,1,0.7878,,,,,,,,0,99,99,141,1
,,,,,,,,,,,,,,,,,5f405adcda0ade19c87826bd,32,2022-02-12_12h46.48.245,lexical_decision_task_DD_L6,2021.2.3,Win32,60.30999337,,,,,,,,,,,,0.7004,1,,,,,,,,,,,,,,,,,,,,,,,,0.300000131,-0.23425927,0,0,0,,,,,,,HOCKEY,HB,m,y,./images/HOCKEYHB.png,,,,,,,,,,,,,,,,,,,,m,1,0.7004,,,,,,,,0,100,100,32,1
,,,,,,,,,,,,,,,,,5f405adcda0ade19c87826bd,32,2022-02-12_12h46.48.245,lexical_decision_task_DD_L6,2021.2.3,Win32,60.30999337,,,,,,,,,,,,0.6899,1,,,,,,,,,,,,,,,,,,,,,,,,0.300925944,-0.23425927,0,0,0,,,,,,,WHISKY,HB,m,y,./images/WHISKYHB.png,,,,,,,,,,,,,,,,,,,,m,1,0.6899,,,,,,,,0,101,101,83,1
,,,,,,,,,,,,,,,,,5f405adcda0ade19c87826bd,32,2022-02-12_12h46.48.245,lexical_decision_task_DD_L6,2021.2.3,Win32,60.30999337,,,,,,,,,,,,0.7117,1,,,,,,,,,,,,,,,,,,,,,,,,0.300925944,-0.23425927,0,0,0,,,,,,,STOOL,C,m,y,./images/STOOL.png,,,,,,,,,,,,,,,,,,,,m,1,0.7117,,,,,,,,0,102,102,43,1
,,,,,,,,,,,,,,,,,5f405adcda0ade19c87826bd,32,2022-02-12_12h46.48.245,lexical_decision_task_DD_L6,2021.2.3,Win32,60.30999337,,,,,,,,,,,,0.7014,1,,,,,,,,,,,,,,,,,,,,,,,,0.300925944,-0.23425927,0,0,0,,,,,,,ATTIC,LB,z,y,./images/ATTICLB.png,,,,,,,,,,,,,,,,,,,,z,1,0.7014,,,,,,,,0,103,103,111,1
,,,,,,,,,,,,,,,,,5f405adcda0ade19c87826bd,32,2022-02-12_12h46.48.245,lexical_decision_task_DD_L6,2021.2.3,Win32,60.30999337,,,,,,,,,,,,0.9348,1,,,,,,,,,,,,,,,,,,,,,,,,0.300925944,-0.23425927,0,0,0,,,,,,,CRUST,C,z,y,./images/CRUST.png,,,,,,,,,,,,,,,,,,,,z,1,0.9348,,,,,,,,0,104,104,163,1
,,,,,,,,,,,,,,,,,5f405adcda0ade19c87826bd,32,2022-02-12_12h46.48.245,lexical_decision_task_DD_L6,2021.2.3,Win32,60.30999337,,,,,,,,,,,,0.827,1,,,,,,,,,,,,,,,,,,,,,,,,0.300925944,-0.23425927,0,0,0,,,,,,,CARPET,HB,z,y,./images/CARPETHB.png,,,,,,,,,,,,,,,,,,,,z,1,0.827,,,,,,,,0,105,105,137,1
,,,,,,,,,,,,,,,,,5f405adcda0ade19c87826bd,32,2022-02-12_12h46.48.245,lexical_decision_task_DD_L6,2021.2.3,Win32,60.30999337,,,,,,,,,,,,0.6675,1,,,,,,,,,,,,,,,,,,,,,,,,0.300925944,-0.23425927,0,0,0,,,,,,,CANYON,C,z,y,./images/CANYON.png,,,,,,,,,,,,,,,,,,,,z,1,0.6675,,,,,,,,0,106,106,118,1
,,,,,,,,,,,,,,,,,5f405adcda0ade19c87826bd,32,2022-02-12_12h46.48.245,lexical_decision_task_DD_L6,2021.2.3,Win32,60.30999337,,,,,,,,,,,,0.6483,1,,,,,,,,,,,,,,,,,,,,,,,,0.300925944,-0.23425927,0,0,0,,,,,,,JUMPER,HB,m,y,./images/JUMPERHB.png,,,,,,,,,,,,,,,,,,,,m,1,0.6483,,,,,,,,0,107,107,74,1
,,,,,,,,,,,,,,,,,5f405adcda0ade19c87826bd,32,2022-02-12_12h46.48.245,lexical_decision_task_DD_L6,2021.2.3,Win32,60.30999337,,,,,,,,,,,,0.7019,1,,,,,,,,,,,,,,,,,,,,,,,,0.300925944,-0.23425927,0,0,0,,,,,,,PURSE,HB,z,y,./images/PURSEHB.png,,,,,,,,,,,,,,,,,,,,z,1,0.7019,,,,,,,,0,108,108,146,1
,,,,,,,,,,,,,,,,,5f405adcda0ade19c87826bd,32,2022-02-12_12h46.48.245,lexical_decision_task_DD_L6,2021.2.3,Win32,60.30999337,,,,,,,,,,,,0.5778,1,,,,,,,,,,,,,,,,,,,,,,,,0.300925944,-0.23425927,0,0,0,,,,,,,BAMBOO,HB,m,y,./images/BAMBOOHB.png,,,,,,,,,,,,,,,,,,,,m,1,0.5778,,,,,,,,0,109,109,5,1
,,,,,,,,,,,,,,,,,5f405adcda0ade19c87826bd,32,2022-02-12_12h46.48.245,lexical_decision_task_DD_L6,2021.2.3,Win32,60.30999337,,,,,,,,,,,,0.8833,1,,,,,,,,,,,,,,,,,,,,,,,,0.300925944,-0.23425927,0,0,0,,,,,,,POSTER,HB,m,y,./images/POSTERHB.png,,,,,,,,,,,,,,,,,,,,m,1,0.8833,,,,,,,,0,110,110,53,1
,,,,,,,,,,,,,,,,,5f405adcda0ade19c87826bd,32,2022-02-12_12h46.48.245,lexical_decision_task_DD_L6,2021.2.3,Win32,60.30999337,,,,,,,,,,,,0.6714,1,,,,,,,,,,,,,,,,,,,,,,,,0.300925944,-0.23425927,0,0,0,,,,,,,TIGER,C,m,y,./images/TIGER.png,,,,,,,,,,,,,,,,,,,,m,1,0.6714,,,,,,,,0,111,111,37,1
,,,,,,,,,,,,,,,,,5f405adcda0ade19c87826bd,32,2022-02-12_12h46.48.245,lexical_decision_task_DD_L6,2021.2.3,Win32,60.30999337,,,,,,,,,,,,0.8219,1,,,,,,,,,,,,,,,,,,,,,,,,0.300925944,-0.23425927,0,0,0,,,,,,,COLLAR,LB,m,y,./images/COLLARLB.png,,,,,,,,,,,,,,,,,,,,m,1,0.8219,,,,,,,,0,112,112,15,1
,,,,,,,,,,,,,,,,,5f405adcda0ade19c87826bd,32,2022-02-12_12h46.48.245,lexical_decision_task_DD_L6,2021.2.3,Win32,60.30999337,,,,,,,,,,,,0.6179,1,,,,,,,,,,,,,,,,,,,,,,,,0.300925944,-0.23425927,0,0,0,,,,,,,BRIDE,C,m,y,./images/BRIDE.png,,,,,,,,,,,,,,,,,,,,m,1,0.6179,,,,,,,,0,113,113,64,1
,,,,,,,,,,,,,,,,,5f405adcda0ade19c87826bd,32,2022-02-12_12h46.48.245,lexical_decision_task_DD_L6,2021.2.3,Win32,60.30999337,,,,,,,,,,,,0.6942,1,,,,,,,,,,,,,,,,,,,,,,,,0.300925944,-0.23425927,0,0,0,,,,,,,SPINE,HB,m,y,./images/SPINEHB.png,,,,,,,,,,,,,,,,,,,,m,1,0.6942,,,,,,,,0,114,114,65,1
,,,,,,,,,,,,,,,,,5f405adcda0ade19c87826bd,32,2022-02-12_12h46.48.245,lexical_decision_task_DD_L6,2021.2.3,Win32,60.30999337,,,,,,,,,,,,0.668,1,,,,,,,,,,,,,,,,,,,,,,,,0.300925944,-0.23425927,0,0,0,,,,,,,BANANA,C,m,y,./images/BANANA.png,,,,,,,,,,,,,,,,,,,,m,1,0.668,,,,,,,,0,115,115,70,1
,,,,,,,,,,,,,,,,,5f405adcda0ade19c87826bd,32,2022-02-12_12h46.48.245,lexical_decision_task_DD_L6,2021.2.3,Win32,60.30999337,,,,,,,,,,,,0.7832,0,,,,,,,,,,,,,,,,,,,,,,,,0.300925944,-0.23425927,0,0,0,,,,,,,NOOSE,LB,z,y,./images/NOOSELB.png,,,,,,,,,,,,,,,,,,,,m,0,0.7832,,,,,,,,0,116,116,156,1
,,,,,,,,,,,,,,,,,5f405adcda0ade19c87826bd,32,2022-02-12_12h46.48.245,lexical_decision_task_DD_L6,2021.2.3,Win32,60.30999337,,,,,,,,,,,,0.744,1,,,,,,,,,,,,,,,,,,,,,,,,0.300925944,-0.23425927,0,0,0,,,,,,,SUNSET,C,z,y,./images/SUNSET.png,,,,,,,,,,,,,,,,,,,,z,1,0.744,,,,,,,,0,117,117,166,1
,,,,,,,,,,,,,,,,,5f405adcda0ade19c87826bd,32,2022-02-12_12h46.48.245,lexical_decision_task_DD_L6,2021.2.3,Win32,60.30999337,,,,,,,,,,,,0.6294,1,,,,,,,,,,,,,,,,,,,,,,,,0.300925944,-0.23425927,0,0,0,,,,,,,CANDY,LB,m,y,./images/CANDYLB.png,,,,,,,,,,,,,,,,,,,,m,1,0.6294,,,,,,,,0,118,118,39,1
,,,,,,,,,,,,,,,,,5f405adcda0ade19c87826bd,32,2022-02-12_12h46.48.245,lexical_decision_task_DD_L6,2021.2.3,Win32,60.30999337,,,,,,,,,,,,0.7525,1,,,,,,,,,,,,,,,,,,,,,,,,0.300925944,-0.23425927,0,0,0,,,,,,,TOMATO,LB,z,y,./images/TOMATOLB.png,,,,,,,,,,,,,,,,,,,,z,1,0.7525,,,,,,,,0,119,119,84,1
,,,,,,,,,,,,,,,,,5f405adcda0ade19c87826bd,32,2022-02-12_12h46.48.245,lexical_decision_task_DD_L6,2021.2.3,Win32,60.30999337,,,,,,,,,,,,1.0422,0,,,,,,,,,,,,,,,,,,,,,,,,0.300925944,-0.23425927,0,0,0,,,,,,,WHEEL,HB,m,y,./images/WHEELHB.png,,,,,,,,,,,,,,,,,,,,z,0,1.0422,,,,,,,,0,120,120,77,1
,,,,,,,,,,,,,,,,,5f405adcda0ade19c87826bd,32,2022-02-12_12h46.48.245,lexical_decision_task_DD_L6,2021.2.3,Win32,60.30999337,,,,,,,,,,,,0.6848,1,,,,,,,,,,,,,,,,,,,,,,,,0.300925944,-0.23425927,0,0,0,,,,,,,ARROW,LB,m,y,./images/ARROWLB.png,,,,,,,,,,,,,,,,,,,,m,1,0.6848,,,,,,,,0,121,121,69,1
,,,,,,,,,,,,,,,,,5f405adcda0ade19c87826bd,32,2022-02-12_12h46.48.245,lexical_decision_task_DD_L6,2021.2.3,Win32,60.30999337,,,,,,,,,,,,0.641,1,,,,,,,,,,,,,,,,,,,,,,,,0.300925944,-0.23425927,0,0,0,,,,,,,CANOE,C,m,y,./images/CANOE.png,,,,,,,,,,,,,,,,,,,,m,1,0.641,,,,,,,,0,122,122,58,1
,,,,,,,,,,,,,,,,,5f405adcda0ade19c87826bd,32,2022-02-12_12h46.48.245,lexical_decision_task_DD_L6,2021.2.3,Win32,60.30999337,,,,,,,,,,,,0.635,1,,,,,,,,,,,,,,,,,,,,,,,,0.300925944,-0.23425927,0,0,0,,,,,,,CURRY,LB,m,y,./images/CURRYLB.png,,,,,,,,,,,,,,,,,,,,m,1,0.635,,,,,,,,0,123,123,60,1
,,,,,,,,,,,,,,,,,5f405adcda0ade19c87826bd,32,2022-02-12_12h46.48.245,lexical_decision_task_DD_L6,2021.2.3,Win32,60.30999337,,,,,,,,,,,,0.876,0,,,,,,,,,,,,,,,,,,,,,,,,0.300925944,-0.23425927,0,0,0,,,,,,,GRAIN,LB,z,y,./images/GRAINLB.png,,,,,,,,,,,,,,,,,,,,m,0,0.876,,,,,,,,0,124,124,159,1
,,,,,,,,,,,,,,,,,5f405adcda0ade19c87826bd,32,2022-02-12_12h46.48.245,lexical_decision_task_DD_L6,2021.2.3,Win32,60.30999337,,,,,,,,,,,,0.7762,1,,,,,,,,,,,,,,,,,,,,,,,,0.300925944,-0.23425927,0,0,0,space,,,,,,CRUMB,HB,z,y,./images/CRUMBHB.png,1.0007,,,,,,,,,,,,,,,,,,,z,1,0.7762,,,,,,,,0,125,125,113,1
,,,,,,,,,,,,,,,,,5f405adcda0ade19c87826bd,32,2022-02-12_12h46.48.245,lexical_decision_task_DD_L6,2021.2.3,Win32,60.30999337,,,,,,,,,,,,0.9001,1,,,,,,,,,,,,,,,,,,,,,,,,0.300925944,-0.23425927,0,0,0,,,,,,,BARREL,HB,z,y,./images/BARRELHB.png,,,,,,,,,,,,,,,,,,,,z,1,0.9001,,,,,,,,0,126,126,116,1
,,,,,,,,,,,,,,,,,5f405adcda0ade19c87826bd,32,2022-02-12_12h46.48.245,lexical_decision_task_DD_L6,2021.2.3,Win32,60.30999337,,,,,,,,,,,,0.6054,1,,,,,,,,,,,,,,,,,,,,,,,,0.300925944,-0.23425927,0,0,0,,,,,,,INFANT,C,z,y,./images/INFANT.png,,,,,,,,,,,,,,,,,,,,z,1,0.6054,,,,,,,,0,127,127,160,1
,,,,,,,,,,,,,,,,,5f405adcda0ade19c87826bd,32,2022-02-12_12h46.48.245,lexical_decision_task_DD_L6,2021.2.3,Win32,60.30999337,,,,,,,,,,,,0.5773,0,,,,,,,,,,,,,,,,,,,,,,,,0.300925944,-0.23425927,0,0,0,,,,,,,BOXER,C,m,y,./images/BOXER.png,,,,,,,,,,,,,,,,,,,,z,0,0.5773,,,,,,,,0,128,128,4,1
,,,,,,,,,,,,,,,,,5f405adcda0ade19c87826bd,32,2022-02-12_12h46.48.245,lexical_decision_task_DD_L6,2021.2.3,Win32,60.30999337,,,,,,,,,,,,0.6508,1,,,,,,,,,,,,,,,,,,,,,,,,0.300925944,-0.23425927,0,0,0,,,,,,,MUMMY,C,m,y,./images/MUMMY.png,,,,,,,,,,,,,,,,,,,,m,1,0.6508,,,,,,,,0,129,129,46,1
,,,,,,,,,,,,,,,,,5f405adcda0ade19c87826bd,32,2022-02-12_12h46.48.245,lexical_decision_task_DD_L6,2021.2.3,Win32,60.30999337,,,,,,,,,,,,0.5835,1,,,,,,,,,,,,,,,,,,,,,,,,0.300925944,-0.23425927,0,0,0,,,,,,,ONION,LB,z,y,./images/ONIONLB.png,,,,,,,,,,,,,,,,,,,,z,1,0.5835,,,,,,,,0,130,130,135,1
,,,,,,,,,,,,,,,,,5f405adcda0ade19c87826bd,32,2022-02-12_12h46.48.245,lexical_decision_task_DD_L6,2021.2.3,Win32,60.30999337,,,,,,,,,,,,0.6171,0,,,,,,,,,,,,,,,,,,,,,,,,0.300925944,-0.23425927,0,0,0,,,,,,,VALLEY,HB,m,y,./images/VALLEYHB.png,,,,,,,,,,,,,,,,,,,,z,0,0.6171,,,,,,,,0,131,131,68,1
,,,,,,,,,,,,,,,,,5f405adcda0ade19c87826bd,32,2022-02-12_12h46.48.245,lexical_decision_task_DD_L6,2021.2.3,Win32,60.30999337,,,,,,,,,,,,0.6109,1,,,,,,,,,,,,,,,,,,,,,,,,0.300925944,-0.23425927,0,0,0,,,,,,,PENCE,C,z,y,./images/PENCE.png,,,,,,,,,,,,,,,,,,,,z,1,0.6109,,,,,,,,0,132,132,100,1
,,,,,,,,,,,,,,,,,5f405adcda0ade19c87826bd,32,2022-02-12_12h46.48.245,lexical_decision_task_DD_L6,2021.2.3,Win32,60.30999337,,,,,,,,,,,,0.7298,1,,,,,,,,,,,,,,,,,,,,,,,,0.300925944,-0.23425927,0,0,0,,,,,,,SQUARE,LB,z,y,./images/SQUARELB.png,,,,,,,,,,,,,,,,,,,,z,1,0.7298,,,,,,,,0,133,133,90,1
