key_resp.keys,key_resp.rt,instr_done_touch.x,instr_done_touch.y,instr_done_touch.leftButton,instr_done_touch.midButton,instr_done_touch.rightButton,instruction_pages.thisRepN,instruction_pages.thisTrialN,instruction_pages.thisN,instruction_pages.thisIndex,instruction_pages.ran,pageN,phase,instruct_text,has_image,instruct_image,participant,age,date,expName,psychopyVersion,OS,frameRate,response.keys,response.corr,response.rt,touch_resp.x,touch_resp.y,touch_resp.leftButton,touch_resp.midButton,touch_resp.rightButton,touch_resp.time,touch_resp.clicked_name,rt,corr,practrials.thisRepN,practrials.thisTrialN,practrials.thisN,practrials.thisIndex,practrials.ran,TrialID,Target,corrAns,end_of_practice_trials_pages.thisRepN,end_of_practice_trials_pages.thisTrialN,end_of_practice_trials_pages.thisN,end_of_practice_trials_pages.thisIndex,end_of_practice_trials_pages.ran,key_resp_2.keys,key_resp_2.corr,key_resp_2.rt,targ_click.x,targ_click.y,targ_click.leftButton,targ_click.midButton,targ_click.rightButton,targ_click.time,targ_click.clicked_name,break_done_touch.x,break_done_touch.y,break_done_touch.leftButton,break_done_touch.midButton,break_done_touch.rightButton,break_done_keyboard.keys,maintrials.thisRepN,maintrials.thisTrialN,maintrials.thisN,maintrials.thisIndex,maintrials.ran,string,blur,study,lex,stim_path,break_done_keyboard.rt,mouse_2.x,mouse_2.y,mouse_2.leftButton,mouse_2.midButton,mouse_2.rightButton,mouse_2.clicked_name,slider.response,slider.rt,trials.thisRepN,trials.thisTrialN,trials.thisN,trials.thisIndex,trials.ran,instr_done_touch.clicked_name,test_instructions.thisRepN,test_instructions.thisTrialN,test_instructions.thisN,test_instructions.thisIndex,test_instructions.ran,key_resp_3.keys,key_resp_3.corr,test_click.x,test_click.y,test_click.leftButton,test_click.midButton,test_click.rightButton,test_click.time,test_click.clicked_name,test_phase.thisRepN,test_phase.thisTrialN,test_phase.thisN,test_phase.thisIndex,test_phase.ran,break_done_touch.clicked_name
space,21.2564,0.412037076,0.18888888,0,0,0,0,0,0,0,1,1,instructions,"INSTRUCTIONS
At the start of each trial, look at the plus sign  (+) in the center of the screen.  This tells you that a trial is about to begin and where to look. Second, the plus sign will disappear and a string of letters will appear. Your task is to determine if the string of letters is a word or not. If the item is a word press the M key (on keyboard)  or touch the word button (phone/tablet).  If the item is not a word,  press the  Z key (on keyboard)  or touch the nonword button (on phone/tablet). 
Press the space bar or touch  continue.",0,,60a5a2e1f7b39a743bfcd43a,22,2022-02-12_17h18.16.717,lexical_decision_task_DD_L6,2021.2.3,Win32,60.78657832,,,,,,,,,,,,,,,,,,,,,,,,,,,,,,,,,,,,,,,,,,,,,,,,,,,,,,,,,,,,,,,,,,,,,,,,,,,,,,,,,,,,,,
space,4.1172,0.412037076,0.18888888,0,0,0,0,1,1,1,1,2,instructions,"If your device has a keyboard, press the 'Z' key for nonwords and the 'M' key for words.





Press the space bar or touch the button below to continue.",0,keyboard-example.gif,60a5a2e1f7b39a743bfcd43a,22,2022-02-12_17h18.16.717,lexical_decision_task_DD_L6,2021.2.3,Win32,60.78657832,,,,,,,,,,,,,,,,,,,,,,,,,,,,,,,,,,,,,,,,,,,,,,,,,,,,,,,,,,,,,,,,,,,,,,,,,,,,,,,,,,,,,,
space,6.5239,0.412037076,0.18888888,0,0,0,0,2,2,2,1,3,instructions,"If you are using a touchscreen only device, use the buttons on the screen. Do not use the mouse.





Press the space bar or touch the button below to continue.",0,touchscreen-example.gif,60a5a2e1f7b39a743bfcd43a,22,2022-02-12_17h18.16.717,lexical_decision_task_DD_L6,2021.2.3,Win32,60.78657832,,,,,,,,,,,,,,,,,,,,,,,,,,,,,,,,,,,,,,,,,,,,,,,,,,,,,,,,,,,,,,,,,,,,,,,,,,,,,,,,,,,,,,
space,9.8199,0.412037076,0.18888888,0,0,0,0,3,3,3,1,4,instructions,"It is very important that you respond as quickly and accurately as possible, as each letter string will only be on the screen for two seconds. If you do not respond within this time, the message 'Too slow!' will be displayed and the experiment will progress to the next letter string. The first 20 trials will be practice trials and you will receive feedback on your answers. 

Press the space bar or touch the button below to start the practice trials.",0,,60a5a2e1f7b39a743bfcd43a,22,2022-02-12_17h18.16.717,lexical_decision_task_DD_L6,2021.2.3,Win32,60.78657832,,,,,,,,,,,,,,,,,,,,,,,,,,,,,,,,,,,,,,,,,,,,,,,,,,,,,,,,,,,,,,,,,,,,,,,,,,,,,,,,,,,,,,
,,,,,,,,,,,,,,,,,60a5a2e1f7b39a743bfcd43a,22,2022-02-12_17h18.16.717,lexical_decision_task_DD_L6,2021.2.3,Win32,60.78657832,m,0,1.5005,,,,,,,,1.5005,0,0,0,0,10,1,1001,INLADE,z,,,,,,,,,,,,,,,,,,,,,,,,,,,,,,,,,,,,,,,,,,,,,,,,,,,,,,,,,,,,,,,,,,
,,,,,,,,,,,,,,,,,60a5a2e1f7b39a743bfcd43a,22,2022-02-12_17h18.16.717,lexical_decision_task_DD_L6,2021.2.3,Win32,60.78657832,z,1,1.3776,,,,,,,,1.3776,1,0,1,1,15,1,1001,WHAISE,z,,,,,,,,,,,,,,,,,,,,,,,,,,,,,,,,,,,,,,,,,,,,,,,,,,,,,,,,,,,,,,,,,,
,,,,,,,,,,,,,,,,,60a5a2e1f7b39a743bfcd43a,22,2022-02-12_17h18.16.717,lexical_decision_task_DD_L6,2021.2.3,Win32,60.78657832,z,1,0.8939,,,,,,,,0.8939,1,0,2,2,8,1,1001,ASLERT,z,,,,,,,,,,,,,,,,,,,,,,,,,,,,,,,,,,,,,,,,,,,,,,,,,,,,,,,,,,,,,,,,,,
,,,,,,,,,,,,,,,,,60a5a2e1f7b39a743bfcd43a,22,2022-02-12_17h18.16.717,lexical_decision_task_DD_L6,2021.2.3,Win32,60.78657832,m,1,0.5747,,,,,,,,0.5747,1,0,3,3,3,1,1001,MATRIX,m,,,,,,,,,,,,,,,,,,,,,,,,,,,,,,,,,,,,,,,,,,,,,,,,,,,,,,,,,,,,,,,,,,
,,,,,,,,,,,,,,,,,60a5a2e1f7b39a743bfcd43a,22,2022-02-12_17h18.16.717,lexical_decision_task_DD_L6,2021.2.3,Win32,60.78657832,m,1,0.601,,,,,,,,0.601,1,0,4,4,0,1,1001,UTOPIA,m,,,,,,,,,,,,,,,,,,,,,,,,,,,,,,,,,,,,,,,,,,,,,,,,,,,,,,,,,,,,,,,,,,
,,,,,,,,,,,,,,,,,60a5a2e1f7b39a743bfcd43a,22,2022-02-12_17h18.16.717,lexical_decision_task_DD_L6,2021.2.3,Win32,60.78657832,m,1,0.5192,,,,,,,,0.5192,1,0,5,5,7,1,1001,VOLUME,m,,,,,,,,,,,,,,,,,,,,,,,,,,,,,,,,,,,,,,,,,,,,,,,,,,,,,,,,,,,,,,,,,,
,,,,,,,,,,,,,,,,,60a5a2e1f7b39a743bfcd43a,22,2022-02-12_17h18.16.717,lexical_decision_task_DD_L6,2021.2.3,Win32,60.78657832,z,1,0.7348,,,,,,,,0.7348,1,0,6,6,9,1,1001,FARINY,z,,,,,,,,,,,,,,,,,,,,,,,,,,,,,,,,,,,,,,,,,,,,,,,,,,,,,,,,,,,,,,,,,,
,,,,,,,,,,,,,,,,,60a5a2e1f7b39a743bfcd43a,22,2022-02-12_17h18.16.717,lexical_decision_task_DD_L6,2021.2.3,Win32,60.78657832,m,1,0.5082,,,,,,,,0.5082,1,0,7,7,4,1,1001,SQUEAK,m,,,,,,,,,,,,,,,,,,,,,,,,,,,,,,,,,,,,,,,,,,,,,,,,,,,,,,,,,,,,,,,,,,
,,,,,,,,,,,,,,,,,60a5a2e1f7b39a743bfcd43a,22,2022-02-12_17h18.16.717,lexical_decision_task_DD_L6,2021.2.3,Win32,60.78657832,m,1,0.5012,,,,,,,,0.5012,1,0,8,8,6,1,1001,ZOMBIE,m,,,,,,,,,,,,,,,,,,,,,,,,,,,,,,,,,,,,,,,,,,,,,,,,,,,,,,,,,,,,,,,,,,
,,,,,,,,,,,,,,,,,60a5a2e1f7b39a743bfcd43a,22,2022-02-12_17h18.16.717,lexical_decision_task_DD_L6,2021.2.3,Win32,60.78657832,m,0,0.7075,,,,,,,,0.7075,0,0,9,9,13,1,1001,ROUPET,z,,,,,,,,,,,,,,,,,,,,,,,,,,,,,,,,,,,,,,,,,,,,,,,,,,,,,,,,,,,,,,,,,,
,,,,,,,,,,,,,,,,,60a5a2e1f7b39a743bfcd43a,22,2022-02-12_17h18.16.717,lexical_decision_task_DD_L6,2021.2.3,Win32,60.78657832,m,0,0.8913,,,,,,,,0.8913,0,0,10,10,12,1,1001,SPRINY,z,,,,,,,,,,,,,,,,,,,,,,,,,,,,,,,,,,,,,,,,,,,,,,,,,,,,,,,,,,,,,,,,,,
,,,,,,,,,,,,,,,,,60a5a2e1f7b39a743bfcd43a,22,2022-02-12_17h18.16.717,lexical_decision_task_DD_L6,2021.2.3,Win32,60.78657832,m,1,0.6063,,,,,,,,0.6063,1,0,11,11,1,1,1001,ADJUST,m,,,,,,,,,,,,,,,,,,,,,,,,,,,,,,,,,,,,,,,,,,,,,,,,,,,,,,,,,,,,,,,,,,
,,,,,,,,,,,,,,,,,60a5a2e1f7b39a743bfcd43a,22,2022-02-12_17h18.16.717,lexical_decision_task_DD_L6,2021.2.3,Win32,60.78657832,m,0,0.8009,,,,,,,,0.8009,0,0,12,12,11,1,1001,RASHET,z,,,,,,,,,,,,,,,,,,,,,,,,,,,,,,,,,,,,,,,,,,,,,,,,,,,,,,,,,,,,,,,,,,
,,,,,,,,,,,,,,,,,60a5a2e1f7b39a743bfcd43a,22,2022-02-12_17h18.16.717,lexical_decision_task_DD_L6,2021.2.3,Win32,60.78657832,m,1,0.7762,,,,,,,,0.7762,1,0,13,13,5,1,1001,OBTAIN,m,,,,,,,,,,,,,,,,,,,,,,,,,,,,,,,,,,,,,,,,,,,,,,,,,,,,,,,,,,,,,,,,,,
,,,,,,,,,,,,,,,,,60a5a2e1f7b39a743bfcd43a,22,2022-02-12_17h18.16.717,lexical_decision_task_DD_L6,2021.2.3,Win32,60.78657832,m,1,0.6441,,,,,,,,0.6441,1,0,14,14,2,1,1001,ALMOND,m,,,,,,,,,,,,,,,,,,,,,,,,,,,,,,,,,,,,,,,,,,,,,,,,,,,,,,,,,,,,,,,,,,
,,,,,,,,,,,,,,,,,60a5a2e1f7b39a743bfcd43a,22,2022-02-12_17h18.16.717,lexical_decision_task_DD_L6,2021.2.3,Win32,60.78657832,z,1,0.7528,,,,,,,,0.7528,1,0,15,15,14,1,1001,THRALE,z,,,,,,,,,,,,,,,,,,,,,,,,,,,,,,,,,,,,,,,,,,,,,,,,,,,,,,,,,,,,,,,,,,
space,34.3105,0.412037076,0.18888888,0,0,0,,,,,,1,end_of_practice,"You have completed the practice trials. During the experimental trials, you will not receive feedback. 
Before you begin, please ensure that you are in a comfortable and quiet location and will not be disturbed for about 15 minutes, as we cannot use your data if you do not complete all the trials. 
 When you are ready to start the experimental trials, please press space or touch the button below.",,,60a5a2e1f7b39a743bfcd43a,22,2022-02-12_17h18.16.717,lexical_decision_task_DD_L6,2021.2.3,Win32,60.78657832,,,,,,,,,,,,,,,,,,,,,0,0,0,0,1,,,,,,,,,,,,,,,,,,,,,,,,,,,,,,,,,,,,,,,,,,,,,,,,,,,,,,,,,,,,,
,,,,,,,,,,,,,,,,,60a5a2e1f7b39a743bfcd43a,22,2022-02-12_17h18.16.717,lexical_decision_task_DD_L6,2021.2.3,Win32,60.78657832,,,,,,,,,,,7.9921,1,,,,,,,,,,,,,,z,1,7.9921,,,,,,,,0.412037076,0.18888888,0,0,0,,0,0,0,166,1,SHORY,HB,z,z,./images/SHORYHB.png,,,,,,,,,,,,,,,,,,,,,,,,,,,,,,,,,,,
,,,,,,,,,,,,,,,,,60a5a2e1f7b39a743bfcd43a,22,2022-02-12_17h18.16.717,lexical_decision_task_DD_L6,2021.2.3,Win32,60.78657832,,,,,,,,,,,1.3442,1,,,,,,,,,,,,,,m,1,1.3442,,,,,,,,0.412037076,0.18888888,0,0,0,,0,1,1,39,1,CANDY,LB,m,m,./images/CANDYLB.png,,,,,,,,,,,,,,,,,,,,,,,,,,,,,,,,,,,
,,,,,,,,,,,,,,,,,60a5a2e1f7b39a743bfcd43a,22,2022-02-12_17h18.16.717,lexical_decision_task_DD_L6,2021.2.3,Win32,60.78657832,,,,,,,,,,,1.3584,1,,,,,,,,,,,,,,m,1,1.3584,,,,,,,,0.412037076,0.18888888,0,0,0,,0,2,2,67,1,POKER,C,m,m,./images/POKER.png,,,,,,,,,,,,,,,,,,,,,,,,,,,,,,,,,,,
,,,,,,,,,,,,,,,,,60a5a2e1f7b39a743bfcd43a,22,2022-02-12_17h18.16.717,lexical_decision_task_DD_L6,2021.2.3,Win32,60.78657832,,,,,,,,,,,0.6423,1,,,,,,,,,,,,,,m,1,0.6423,,,,,,,,0.412037076,0.18888888,0,0,0,,0,3,3,46,1,MUMMY,C,m,m,./images/MUMMY.png,,,,,,,,,,,,,,,,,,,,,,,,,,,,,,,,,,,
,,,,,,,,,,,,,,,,,60a5a2e1f7b39a743bfcd43a,22,2022-02-12_17h18.16.717,lexical_decision_task_DD_L6,2021.2.3,Win32,60.78657832,,,,,,,,,,,0.8598,1,,,,,,,,,,,,,,z,1,0.8598,,,,,,,,0.412037076,0.18888888,0,0,0,,0,4,4,107,1,FASKS,LB,z,z,./images/FASKSLB.png,,,,,,,,,,,,,,,,,,,,,,,,,,,,,,,,,,,
,,,,,,,,,,,,,,,,,60a5a2e1f7b39a743bfcd43a,22,2022-02-12_17h18.16.717,lexical_decision_task_DD_L6,2021.2.3,Win32,60.78657832,,,,,,,,,,,0.6224,1,,,,,,,,,,,,,,m,1,0.6224,,,,,,,,0.412037076,0.18888888,0,0,0,,0,5,5,55,1,ALLEY,C,m,m,./images/ALLEY.png,,,,,,,,,,,,,,,,,,,,,,,,,,,,,,,,,,,
,,,,,,,,,,,,,,,,,60a5a2e1f7b39a743bfcd43a,22,2022-02-12_17h18.16.717,lexical_decision_task_DD_L6,2021.2.3,Win32,60.78657832,,,,,,,,,,,0.7727,1,,,,,,,,,,,,,,m,1,0.7727,,,,,,,,0.412037076,0.18888888,0,0,0,,0,6,6,56,1,HEATER,HB,m,m,./images/HEATERHB.png,,,,,,,,,,,,,,,,,,,,,,,,,,,,,,,,,,,
,,,,,,,,,,,,,,,,,60a5a2e1f7b39a743bfcd43a,22,2022-02-12_17h18.16.717,lexical_decision_task_DD_L6,2021.2.3,Win32,60.78657832,,,,,,,,,,,1.0737,1,,,,,,,,,,,,,,m,1,1.0737,,,,,,,,0.412037076,0.18888888,0,0,0,,0,7,7,58,1,CANOE,C,m,m,./images/CANOE.png,,,,,,,,,,,,,,,,,,,,,,,,,,,,,,,,,,,
,,,,,,,,,,,,,,,,,60a5a2e1f7b39a743bfcd43a,22,2022-02-12_17h18.16.717,lexical_decision_task_DD_L6,2021.2.3,Win32,60.78657832,,,,,,,,,,,0.9654,1,,,,,,,,,,,,,,z,1,0.9654,,,,,,,,0.412037076,0.18888888,0,0,0,,0,8,8,145,1,LAMEL,HB,z,z,./images/LAMELHB.png,,,,,,,,,,,,,,,,,,,,,,,,,,,,,,,,,,,
,,,,,,,,,,,,,,,,,60a5a2e1f7b39a743bfcd43a,22,2022-02-12_17h18.16.717,lexical_decision_task_DD_L6,2021.2.3,Win32,60.78657832,,,,,,,,,,,0.5771,1,,,,,,,,,,,,,,m,1,0.5771,,,,,,,,0.412037076,0.18888888,0,0,0,,0,9,9,9,1,DIVER,LB,m,m,./images/DIVERLB.png,,,,,,,,,,,,,,,,,,,,,,,,,,,,,,,,,,,
,,,,,,,,,,,,,,,,,60a5a2e1f7b39a743bfcd43a,22,2022-02-12_17h18.16.717,lexical_decision_task_DD_L6,2021.2.3,Win32,60.78657832,,,,,,,,,,,0.8068,1,,,,,,,,,,,,,,z,1,0.8068,,,,,,,,0.412037076,0.18888888,0,0,0,,0,10,10,120,1,RINED,C,z,z,./images/RINED.png,,,,,,,,,,,,,,,,,,,,,,,,,,,,,,,,,,,
,,,,,,,,,,,,,,,,,60a5a2e1f7b39a743bfcd43a,22,2022-02-12_17h18.16.717,lexical_decision_task_DD_L6,2021.2.3,Win32,60.78657832,,,,,,,,,,,1.649,1,,,,,,,,,,,,,,z,1,1.649,,,,,,,,0.412037076,0.18888888,0,0,0,,0,11,11,157,1,INLER,HB,z,z,./images/INLERHB.png,,,,,,,,,,,,,,,,,,,,,,,,,,,,,,,,,,,
,,,,,,,,,,,,,,,,,60a5a2e1f7b39a743bfcd43a,22,2022-02-12_17h18.16.717,lexical_decision_task_DD_L6,2021.2.3,Win32,60.78657832,,,,,,,,,,,0.9134,1,,,,,,,,,,,,,,z,1,0.9134,,,,,,,,0.412037076,0.18888888,0,0,0,,0,12,12,153,1,CLUPS,C,z,z,./images/CLUPS.png,,,,,,,,,,,,,,,,,,,,,,,,,,,,,,,,,,,
,,,,,,,,,,,,,,,,,60a5a2e1f7b39a743bfcd43a,22,2022-02-12_17h18.16.717,lexical_decision_task_DD_L6,2021.2.3,Win32,60.78657832,,,,,,,,,,,0.6612,1,,,,,,,,,,,,,,m,1,0.6612,,,,,,,,0.412037076,0.18888888,0,0,0,,0,13,13,45,1,MONKEY,LB,m,m,./images/MONKEYLB.png,,,,,,,,,,,,,,,,,,,,,,,,,,,,,,,,,,,
,,,,,,,,,,,,,,,,,60a5a2e1f7b39a743bfcd43a,22,2022-02-12_17h18.16.717,lexical_decision_task_DD_L6,2021.2.3,Win32,60.78657832,,,,,,,,,,,1.3425,0,,,,,,,,,,,,,,m,0,1.3425,,,,,,,,0.412037076,0.18888888,0,0,0,,0,14,14,139,1,BLEAR,HB,z,z,./images/BLEARHB.png,,,,,,,,,,,,,,,,,,,,,,,,,,,,,,,,,,,
,,,,,,,,,,,,,,,,,60a5a2e1f7b39a743bfcd43a,22,2022-02-12_17h18.16.717,lexical_decision_task_DD_L6,2021.2.3,Win32,60.78657832,,,,,,,,,,,0.8736,1,,,,,,,,,,,,,,m,1,0.8736,,,,,,,,0.412037076,0.18888888,0,0,0,,0,15,15,70,1,BANANA,C,m,m,./images/BANANA.png,,,,,,,,,,,,,,,,,,,,,,,,,,,,,,,,,,,
,,,,,,,,,,,,,,,,,60a5a2e1f7b39a743bfcd43a,22,2022-02-12_17h18.16.717,lexical_decision_task_DD_L6,2021.2.3,Win32,60.78657832,,,,,,,,,,,1.8448,1,,,,,,,,,,,,,,z,1,1.8448,,,,,,,,0.412037076,0.18888888,0,0,0,,0,16,16,136,1,WERVE,HB,z,z,./images/WERVEHB.png,,,,,,,,,,,,,,,,,,,,,,,,,,,,,,,,,,,
,,,,,,,,,,,,,,,,,60a5a2e1f7b39a743bfcd43a,22,2022-02-12_17h18.16.717,lexical_decision_task_DD_L6,2021.2.3,Win32,60.78657832,,,,,,,,,,,0.7261,1,,,,,,,,,,,,,,m,1,0.7261,,,,,,,,0.412037076,0.18888888,0,0,0,,0,17,17,23,1,CLOTH,HB,m,m,./images/CLOTHHB.png,,,,,,,,,,,,,,,,,,,,,,,,,,,,,,,,,,,
,,,,,,,,,,,,,,,,,60a5a2e1f7b39a743bfcd43a,22,2022-02-12_17h18.16.717,lexical_decision_task_DD_L6,2021.2.3,Win32,60.78657832,,,,,,,,,,,0.6122,1,,,,,,,,,,,,,,m,1,0.6122,,,,,,,,0.412037076,0.18888888,0,0,0,,0,18,18,64,1,BRIDE,C,m,m,./images/BRIDE.png,,,,,,,,,,,,,,,,,,,,,,,,,,,,,,,,,,,
,,,,,,,,,,,,,,,,,60a5a2e1f7b39a743bfcd43a,22,2022-02-12_17h18.16.717,lexical_decision_task_DD_L6,2021.2.3,Win32,60.78657832,,,,,,,,,,,0.6176,1,,,,,,,,,,,,,,m,1,0.6176,,,,,,,,0.412037076,0.18888888,0,0,0,,0,19,19,51,1,SAUCE,LB,m,m,./images/SAUCELB.png,,,,,,,,,,,,,,,,,,,,,,,,,,,,,,,,,,,
,,,,,,,,,,,,,,,,,60a5a2e1f7b39a743bfcd43a,22,2022-02-12_17h18.16.717,lexical_decision_task_DD_L6,2021.2.3,Win32,60.78657832,,,,,,,,,,,0.9025,1,,,,,,,,,,,,,,z,1,0.9025,,,,,,,,0.412037076,0.18888888,0,0,0,,0,20,20,122,1,BLOOT,LB,z,z,./images/BLOOTLB.png,,,,,,,,,,,,,,,,,,,,,,,,,,,,,,,,,,,
,,,,,,,,,,,,,,,,,60a5a2e1f7b39a743bfcd43a,22,2022-02-12_17h18.16.717,lexical_decision_task_DD_L6,2021.2.3,Win32,60.78657832,,,,,,,,,,,0.684,1,,,,,,,,,,,,,,m,1,0.684,,,,,,,,0.412037076,0.18888888,0,0,0,,0,21,21,82,1,PEBBLE,C,m,m,./images/PEBBLE.png,,,,,,,,,,,,,,,,,,,,,,,,,,,,,,,,,,,
,,,,,,,,,,,,,,,,,60a5a2e1f7b39a743bfcd43a,22,2022-02-12_17h18.16.717,lexical_decision_task_DD_L6,2021.2.3,Win32,60.78657832,,,,,,,,,,,0.7696,1,,,,,,,,,,,,,,m,1,0.7696,,,,,,,,0.412037076,0.18888888,0,0,0,,0,22,22,33,1,SAUNA,LB,m,m,./images/SAUNALB.png,,,,,,,,,,,,,,,,,,,,,,,,,,,,,,,,,,,
,,,,,,,,,,,,,,,,,60a5a2e1f7b39a743bfcd43a,22,2022-02-12_17h18.16.717,lexical_decision_task_DD_L6,2021.2.3,Win32,60.78657832,,,,,,,,,,,1.1053,1,,,,,,,,,,,,,,z,1,1.1053,,,,,,,,0.412037076,0.18888888,0,0,0,,0,23,23,154,1,THINT,HB,z,z,./images/THINTHB.png,,,,,,,,,,,,,,,,,,,,,,,,,,,,,,,,,,,
,,,,,,,,,,,,,,,,,60a5a2e1f7b39a743bfcd43a,22,2022-02-12_17h18.16.717,lexical_decision_task_DD_L6,2021.2.3,Win32,60.78657832,,,,,,,,,,,1.5363,1,,,,,,,,,,,,,,z,1,1.5363,,,,,,,,0.412037076,0.18888888,0,0,0,,0,24,24,97,1,CHIDS,HB,z,z,./images/CHIDSHB.png,,,,,,,,,,,,,,,,,,,,,,,,,,,,,,,,,,,
,,,,,,,,,,,,,,,,,60a5a2e1f7b39a743bfcd43a,22,2022-02-12_17h18.16.717,lexical_decision_task_DD_L6,2021.2.3,Win32,60.78657832,,,,,,,,,,,1.3566,1,,,,,,,,,,,,,,z,1,1.3566,,,,,,,,0.412037076,0.18888888,0,0,0,,0,25,25,144,1,NAIRY,C,z,z,./images/NAIRY.png,,,,,,,,,,,,,,,,,,,,,,,,,,,,,,,,,,,
,,,,,,,,,,,,,,,,,60a5a2e1f7b39a743bfcd43a,22,2022-02-12_17h18.16.717,lexical_decision_task_DD_L6,2021.2.3,Win32,60.78657832,,,,,,,,,,,0.6725,1,,,,,,,,,,,,,,m,1,0.6725,,,,,,,,0.412037076,0.18888888,0,0,0,,0,26,26,57,1,FERRY,LB,m,m,./images/FERRYLB.png,,,,,,,,,,,,,,,,,,,,,,,,,,,,,,,,,,,
,,,,,,,,,,,,,,,,,60a5a2e1f7b39a743bfcd43a,22,2022-02-12_17h18.16.717,lexical_decision_task_DD_L6,2021.2.3,Win32,60.78657832,,,,,,,,,,,0.779,1,,,,,,,,,,,,,,z,1,0.779,,,,,,,,0.412037076,0.18888888,0,0,0,,0,27,27,149,1,VEASE,LB,z,z,./images/VEASELB.png,,,,,,,,,,,,,,,,,,,,,,,,,,,,,,,,,,,
,,,,,,,,,,,,,,,,,60a5a2e1f7b39a743bfcd43a,22,2022-02-12_17h18.16.717,lexical_decision_task_DD_L6,2021.2.3,Win32,60.78657832,,,,,,,,,,,0.8303,1,,,,,,,,,,,,,,z,1,0.8303,,,,,,,,0.412037076,0.18888888,0,0,0,,0,28,28,123,1,SEDGE,C,z,z,./images/SEDGE.png,,,,,,,,,,,,,,,,,,,,,,,,,,,,,,,,,,,
,,,,,,,,,,,,,,,,,60a5a2e1f7b39a743bfcd43a,22,2022-02-12_17h18.16.717,lexical_decision_task_DD_L6,2021.2.3,Win32,60.78657832,,,,,,,,,,,0.7313,1,,,,,,,,,,,,,,z,1,0.7313,,,,,,,,0.412037076,0.18888888,0,0,0,,0,29,29,161,1,BLAPS,LB,z,z,./images/BLAPSLB.png,,,,,,,,,,,,,,,,,,,,,,,,,,,,,,,,,,,
,,,,,,,,,,,,,,,,,60a5a2e1f7b39a743bfcd43a,22,2022-02-12_17h18.16.717,lexical_decision_task_DD_L6,2021.2.3,Win32,60.78657832,,,,,,,,,,,1.0928,1,,,,,,,,,,,,,,z,1,1.0928,,,,,,,,0.412037076,0.18888888,0,0,0,,0,30,30,133,1,POWDY,HB,z,z,./images/POWDYHB.png,,,,,,,,,,,,,,,,,,,,,,,,,,,,,,,,,,,
,,,,,,,,,,,,,,,,,60a5a2e1f7b39a743bfcd43a,22,2022-02-12_17h18.16.717,lexical_decision_task_DD_L6,2021.2.3,Win32,60.78657832,,,,,,,,,,,0.5781,1,,,,,,,,,,,,,,m,1,0.5781,,,,,,,,0.412037076,0.18888888,0,0,0,,0,31,31,63,1,BAKER,LB,m,m,./images/BAKERLB.png,,,,,,,,,,,,,,,,,,,,,,,,,,,,,,,,,,,
,,,,,,,,,,,,,,,,,60a5a2e1f7b39a743bfcd43a,22,2022-02-12_17h18.16.717,lexical_decision_task_DD_L6,2021.2.3,Win32,60.78657832,,,,,,,,,,,0.6337,1,,,,,,,,,,,,,,z,1,0.6337,,,,,,,,0.412037076,0.18888888,0,0,0,,0,32,32,96,1,KEAMS,C,z,z,./images/KEAMS.png,,,,,,,,,,,,,,,,,,,,,,,,,,,,,,,,,,,
,,,,,,,,,,,,,,,,,60a5a2e1f7b39a743bfcd43a,22,2022-02-12_17h18.16.717,lexical_decision_task_DD_L6,2021.2.3,Win32,60.78657832,,,,,,,,,,,0.4998,1,,,,,,,,,,,,,,m,1,0.4998,,,,,,,,0.412037076,0.18888888,0,0,0,,0,33,33,4,1,BOXER,C,m,m,./images/BOXER.png,,,,,,,,,,,,,,,,,,,,,,,,,,,,,,,,,,,
,,,,,,,,,,,,,,,,,60a5a2e1f7b39a743bfcd43a,22,2022-02-12_17h18.16.717,lexical_decision_task_DD_L6,2021.2.3,Win32,60.78657832,,,,,,,,,,,0.9699,1,,,,,,,,,,,,,,z,1,0.9699,,,,,,,,0.412037076,0.18888888,0,0,0,,0,34,34,94,1,BLANS,HB,z,z,./images/BLANSHB.png,,,,,,,,,,,,,,,,,,,,,,,,,,,,,,,,,,,
,,,,,,,,,,,,,,,,,60a5a2e1f7b39a743bfcd43a,22,2022-02-12_17h18.16.717,lexical_decision_task_DD_L6,2021.2.3,Win32,60.78657832,,,,,,,,,,,0.6322,1,,,,,,,,,,,,,,m,1,0.6322,,,,,,,,0.412037076,0.18888888,0,0,0,,0,35,35,36,1,BOILER,LB,m,m,./images/BOILERLB.png,,,,,,,,,,,,,,,,,,,,,,,,,,,,,,,,,,,
,,,,,,,,,,,,,,,,,60a5a2e1f7b39a743bfcd43a,22,2022-02-12_17h18.16.717,lexical_decision_task_DD_L6,2021.2.3,Win32,60.78657832,,,,,,,,,,,0.7311,1,,,,,,,,,,,,,,z,1,0.7311,,,,,,,,0.412037076,0.18888888,0,0,0,,0,36,36,111,1,HOSSE,C,z,z,./images/HOSSE.png,,,,,,,,,,,,,,,,,,,,,,,,,,,,,,,,,,,
,,,,,,,,,,,,,,,,,60a5a2e1f7b39a743bfcd43a,22,2022-02-12_17h18.16.717,lexical_decision_task_DD_L6,2021.2.3,Win32,60.78657832,,,,,,,,,,,0.5963,1,,,,,,,,,,,,,,m,1,0.5963,,,,,,,,0.412037076,0.18888888,0,0,0,,0,37,37,75,1,HAMMER,LB,m,m,./images/HAMMERLB.png,,,,,,,,,,,,,,,,,,,,,,,,,,,,,,,,,,,
,,,,,,,,,,,,,,,,,60a5a2e1f7b39a743bfcd43a,22,2022-02-12_17h18.16.717,lexical_decision_task_DD_L6,2021.2.3,Win32,60.78657832,,,,,,,,,,,0.7114,1,,,,,,,,,,,,,,m,1,0.7114,,,,,,,,0.412037076,0.18888888,0,0,0,,0,38,38,6,1,STAIN,LB,m,m,./images/STAINLB.png,,,,,,,,,,,,,,,,,,,,,,,,,,,,,,,,,,,
,,,,,,,,,,,,,,,,,60a5a2e1f7b39a743bfcd43a,22,2022-02-12_17h18.16.717,lexical_decision_task_DD_L6,2021.2.3,Win32,60.78657832,,,,,,,,,,,0.7096,1,,,,,,,,,,,,,,z,1,0.7096,,,,,,,,0.412037076,0.18888888,0,0,0,,0,39,39,135,1,JOODY,C,z,z,./images/JOODY.png,,,,,,,,,,,,,,,,,,,,,,,,,,,,,,,,,,,
,,,,,,,,,,,,,,,,,60a5a2e1f7b39a743bfcd43a,22,2022-02-12_17h18.16.717,lexical_decision_task_DD_L6,2021.2.3,Win32,60.78657832,,,,,,,,,,,0.8165,1,,,,,,,,,,,,,,z,1,0.8165,,,,,,,,0.412037076,0.18888888,0,0,0,,0,40,40,141,1,PLEET,C,z,z,./images/PLEET.png,,,,,,,,,,,,,,,,,,,,,,,,,,,,,,,,,,,
,,,,,,,,,,,,,,,,,60a5a2e1f7b39a743bfcd43a,22,2022-02-12_17h18.16.717,lexical_decision_task_DD_L6,2021.2.3,Win32,60.78657832,,,,,,,,,,,0.8735,1,,,,,,,,,,,,,,z,1,0.8735,,,,,,,,0.412037076,0.187037028,0,0,0,space,0,41,41,159,1,CUDDY,C,z,z,./images/CUDDY.png,9.3161,,,,,,,,,,,,,,,,,,,,,,,,,,,,,,,,,,
,,,,,,,,,,,,,,,,,60a5a2e1f7b39a743bfcd43a,22,2022-02-12_17h18.16.717,lexical_decision_task_DD_L6,2021.2.3,Win32,60.78657832,,,,,,,,,,,0.7009,1,,,,,,,,,,,,,,m,1,0.7009,,,,,,,,0.412037076,0.187037028,0,0,0,,0,42,42,69,1,ARROW,LB,m,m,./images/ARROWLB.png,,,,,,,,,,,,,,,,,,,,,,,,,,,,,,,,,,,
,,,,,,,,,,,,,,,,,60a5a2e1f7b39a743bfcd43a,22,2022-02-12_17h18.16.717,lexical_decision_task_DD_L6,2021.2.3,Win32,60.78657832,,,,,,,,,,,0.6245,1,,,,,,,,,,,,,,z,1,0.6245,,,,,,,,0.412037076,0.187037028,0,0,0,,0,43,43,152,1,FRAIN,LB,z,z,./images/FRAINLB.png,,,,,,,,,,,,,,,,,,,,,,,,,,,,,,,,,,,
,,,,,,,,,,,,,,,,,60a5a2e1f7b39a743bfcd43a,22,2022-02-12_17h18.16.717,lexical_decision_task_DD_L6,2021.2.3,Win32,60.78657832,,,,,,,,,,,0.7855,1,,,,,,,,,,,,,,m,1,0.7855,,,,,,,,0.412037076,0.187037028,0,0,0,,0,44,44,60,1,CURRY,LB,m,m,./images/CURRYLB.png,,,,,,,,,,,,,,,,,,,,,,,,,,,,,,,,,,,
,,,,,,,,,,,,,,,,,60a5a2e1f7b39a743bfcd43a,22,2022-02-12_17h18.16.717,lexical_decision_task_DD_L6,2021.2.3,Win32,60.78657832,,,,,,,,,,,1.4383,1,,,,,,,,,,,,,,z,1,1.4383,,,,,,,,0.412037076,0.187037028,0,0,0,,0,45,45,100,1,DRIBS,HB,z,z,./images/DRIBSHB.png,,,,,,,,,,,,,,,,,,,,,,,,,,,,,,,,,,,
,,,,,,,,,,,,,,,,,60a5a2e1f7b39a743bfcd43a,22,2022-02-12_17h18.16.717,lexical_decision_task_DD_L6,2021.2.3,Win32,60.78657832,,,,,,,,,,,0.7359,1,,,,,,,,,,,,,,m,1,0.7359,,,,,,,,0.412037076,0.187037028,0,0,0,,0,46,46,47,1,LAGOON,HB,m,m,./images/LAGOONHB.png,,,,,,,,,,,,,,,,,,,,,,,,,,,,,,,,,,,
,,,,,,,,,,,,,,,,,60a5a2e1f7b39a743bfcd43a,22,2022-02-12_17h18.16.717,lexical_decision_task_DD_L6,2021.2.3,Win32,60.78657832,,,,,,,,,,,0.6894,1,,,,,,,,,,,,,,m,1,0.6894,,,,,,,,0.412037076,0.187037028,0,0,0,,0,47,47,73,1,GLOVE,C,m,m,./images/GLOVE.png,,,,,,,,,,,,,,,,,,,,,,,,,,,,,,,,,,,
,,,,,,,,,,,,,,,,,60a5a2e1f7b39a743bfcd43a,22,2022-02-12_17h18.16.717,lexical_decision_task_DD_L6,2021.2.3,Win32,60.78657832,,,,,,,,,,,0.7349,1,,,,,,,,,,,,,,m,1,0.7349,,,,,,,,0.412037076,0.187037028,0,0,0,,0,48,48,80,1,PLANET,HB,m,m,./images/PLANETHB.png,,,,,,,,,,,,,,,,,,,,,,,,,,,,,,,,,,,
,,,,,,,,,,,,,,,,,60a5a2e1f7b39a743bfcd43a,22,2022-02-12_17h18.16.717,lexical_decision_task_DD_L6,2021.2.3,Win32,60.78657832,,,,,,,,,,,0.6513,1,,,,,,,,,,,,,,m,1,0.6513,,,,,,,,0.412037076,0.187037028,0,0,0,,0,49,49,25,1,CHALK,C,m,m,./images/CHALK.png,,,,,,,,,,,,,,,,,,,,,,,,,,,,,,,,,,,
,,,,,,,,,,,,,,,,,60a5a2e1f7b39a743bfcd43a,22,2022-02-12_17h18.16.717,lexical_decision_task_DD_L6,2021.2.3,Win32,60.78657832,,,,,,,,,,,0.7512,0,,,,,,,,,,,,,,m,0,0.7512,,,,,,,,0.412037076,0.187037028,0,0,0,,0,50,50,128,1,GRIFT,LB,z,z,./images/GRIFTLB.png,,,,,,,,,,,,,,,,,,,,,,,,,,,,,,,,,,,
,,,,,,,,,,,,,,,,,60a5a2e1f7b39a743bfcd43a,22,2022-02-12_17h18.16.717,lexical_decision_task_DD_L6,2021.2.3,Win32,60.78657832,,,,,,,,,,,0.8067,1,,,,,,,,,,,,,,z,1,0.8067,,,,,,,,0.412037076,0.187037028,0,0,0,,0,51,51,99,1,BACKY,C,z,z,./images/BACKY.png,,,,,,,,,,,,,,,,,,,,,,,,,,,,,,,,,,,
,,,,,,,,,,,,,,,,,60a5a2e1f7b39a743bfcd43a,22,2022-02-12_17h18.16.717,lexical_decision_task_DD_L6,2021.2.3,Win32,60.78657832,,,,,,,,,,,0.6835,1,,,,,,,,,,,,,,m,1,0.6835,,,,,,,,0.412037076,0.187037028,0,0,0,,0,52,52,40,1,SNAKE,C,m,m,./images/SNAKE.png,,,,,,,,,,,,,,,,,,,,,,,,,,,,,,,,,,,
,,,,,,,,,,,,,,,,,60a5a2e1f7b39a743bfcd43a,22,2022-02-12_17h18.16.717,lexical_decision_task_DD_L6,2021.2.3,Win32,60.78657832,,,,,,,,,,,0.6456,1,,,,,,,,,,,,,,z,1,0.6456,,,,,,,,0.412037076,0.187037028,0,0,0,,0,53,53,167,1,ZONET,LB,z,z,./images/ZONETLB.png,,,,,,,,,,,,,,,,,,,,,,,,,,,,,,,,,,,
,,,,,,,,,,,,,,,,,60a5a2e1f7b39a743bfcd43a,22,2022-02-12_17h18.16.717,lexical_decision_task_DD_L6,2021.2.3,Win32,60.78657832,,,,,,,,,,,0.8525,1,,,,,,,,,,,,,,m,1,0.8525,,,,,,,,0.412037076,0.187037028,0,0,0,,0,54,54,8,1,CLIFF,HB,m,m,./images/CLIFFHB.png,,,,,,,,,,,,,,,,,,,,,,,,,,,,,,,,,,,
,,,,,,,,,,,,,,,,,60a5a2e1f7b39a743bfcd43a,22,2022-02-12_17h18.16.717,lexical_decision_task_DD_L6,2021.2.3,Win32,60.78657832,,,,,,,,,,,0.7864,1,,,,,,,,,,,,,,z,1,0.7864,,,,,,,,0.412037076,0.187037028,0,0,0,,0,55,55,156,1,HIXES,C,z,z,./images/HIXES.png,,,,,,,,,,,,,,,,,,,,,,,,,,,,,,,,,,,
,,,,,,,,,,,,,,,,,60a5a2e1f7b39a743bfcd43a,22,2022-02-12_17h18.16.717,lexical_decision_task_DD_L6,2021.2.3,Win32,60.78657832,,,,,,,,,,,1.2718,0,,,,,,,,,,,,,,m,0,1.2718,,,,,,,,0.412037076,0.187037028,0,0,0,,0,56,56,109,1,BURGE,HB,z,z,./images/BURGEHB.png,,,,,,,,,,,,,,,,,,,,,,,,,,,,,,,,,,,
,,,,,,,,,,,,,,,,,60a5a2e1f7b39a743bfcd43a,22,2022-02-12_17h18.16.717,lexical_decision_task_DD_L6,2021.2.3,Win32,60.78657832,,,,,,,,,,,0.6457,1,,,,,,,,,,,,,,m,1,0.6457,,,,,,,,0.412037076,0.187037028,0,0,0,,0,57,57,15,1,COLLAR,LB,m,m,./images/COLLARLB.png,,,,,,,,,,,,,,,,,,,,,,,,,,,,,,,,,,,
,,,,,,,,,,,,,,,,,60a5a2e1f7b39a743bfcd43a,22,2022-02-12_17h18.16.717,lexical_decision_task_DD_L6,2021.2.3,Win32,60.78657832,,,,,,,,,,,0.7507,1,,,,,,,,,,,,,,m,1,0.7507,,,,,,,,0.412037076,0.187037028,0,0,0,,0,58,58,44,1,BASKET,HB,m,m,./images/BASKETHB.png,,,,,,,,,,,,,,,,,,,,,,,,,,,,,,,,,,,
,,,,,,,,,,,,,,,,,60a5a2e1f7b39a743bfcd43a,22,2022-02-12_17h18.16.717,lexical_decision_task_DD_L6,2021.2.3,Win32,60.78657832,,,,,,,,,,,0.8176,1,,,,,,,,,,,,,,z,1,0.8176,,,,,,,,0.412037076,0.187037028,0,0,0,,0,59,59,104,1,GITTY,LB,z,z,./images/GITTYLB.png,,,,,,,,,,,,,,,,,,,,,,,,,,,,,,,,,,,
,,,,,,,,,,,,,,,,,60a5a2e1f7b39a743bfcd43a,22,2022-02-12_17h18.16.717,lexical_decision_task_DD_L6,2021.2.3,Win32,60.78657832,,,,,,,,,,,1.1065,1,,,,,,,,,,,,,,z,1,1.1065,,,,,,,,0.412037076,0.187037028,0,0,0,,0,60,60,142,1,PLASK,HB,z,z,./images/PLASKHB.png,,,,,,,,,,,,,,,,,,,,,,,,,,,,,,,,,,,
,,,,,,,,,,,,,,,,,60a5a2e1f7b39a743bfcd43a,22,2022-02-12_17h18.16.717,lexical_decision_task_DD_L6,2021.2.3,Win32,60.78657832,,,,,,,,,,,0.625,1,,,,,,,,,,,,,,m,1,0.625,,,,,,,,0.412037076,0.187037028,0,0,0,,0,61,61,0,1,WALNUT,LB,m,m,./images/WALNUTLB.png,,,,,,,,,,,,,,,,,,,,,,,,,,,,,,,,,,,
,,,,,,,,,,,,,,,,,60a5a2e1f7b39a743bfcd43a,22,2022-02-12_17h18.16.717,lexical_decision_task_DD_L6,2021.2.3,Win32,60.78657832,,,,,,,,,,,0.6026,1,,,,,,,,,,,,,,m,1,0.6026,,,,,,,,0.412037076,0.187037028,0,0,0,,0,62,62,16,1,GRAPE,C,m,m,./images/GRAPE.png,,,,,,,,,,,,,,,,,,,,,,,,,,,,,,,,,,,
,,,,,,,,,,,,,,,,,60a5a2e1f7b39a743bfcd43a,22,2022-02-12_17h18.16.717,lexical_decision_task_DD_L6,2021.2.3,Win32,60.78657832,,,,,,,,,,,0.5179,1,,,,,,,,,,,,,,m,1,0.5179,,,,,,,,0.412037076,0.187037028,0,0,0,,0,63,63,22,1,CLOWN,C,m,m,./images/CLOWN.png,,,,,,,,,,,,,,,,,,,,,,,,,,,,,,,,,,,
,,,,,,,,,,,,,,,,,60a5a2e1f7b39a743bfcd43a,22,2022-02-12_17h18.16.717,lexical_decision_task_DD_L6,2021.2.3,Win32,60.78657832,,,,,,,,,,,0.7197,1,,,,,,,,,,,,,,m,1,0.7197,,,,,,,,0.412037076,0.187037028,0,0,0,,0,64,64,12,1,BLOKE,LB,m,m,./images/BLOKELB.png,,,,,,,,,,,,,,,,,,,,,,,,,,,,,,,,,,,
,,,,,,,,,,,,,,,,,60a5a2e1f7b39a743bfcd43a,22,2022-02-12_17h18.16.717,lexical_decision_task_DD_L6,2021.2.3,Win32,60.78657832,,,,,,,,,,,0.6343,1,,,,,,,,,,,,,,z,1,0.6343,,,,,,,,0.412037076,0.187037028,0,0,0,,0,65,65,158,1,EGECT,LB,z,z,./images/EGECTLB.png,,,,,,,,,,,,,,,,,,,,,,,,,,,,,,,,,,,
,,,,,,,,,,,,,,,,,60a5a2e1f7b39a743bfcd43a,22,2022-02-12_17h18.16.717,lexical_decision_task_DD_L6,2021.2.3,Win32,60.78657832,,,,,,,,,,,0.6451,1,,,,,,,,,,,,,,z,1,0.6451,,,,,,,,0.412037076,0.187037028,0,0,0,,0,66,66,98,1,BAMPS,LB,z,z,./images/BAMPSLB.png,,,,,,,,,,,,,,,,,,,,,,,,,,,,,,,,,,,
,,,,,,,,,,,,,,,,,60a5a2e1f7b39a743bfcd43a,22,2022-02-12_17h18.16.717,lexical_decision_task_DD_L6,2021.2.3,Win32,60.78657832,,,,,,,,,,,1.2359,1,,,,,,,,,,,,,,z,1,1.2359,,,,,,,,0.412037076,0.187037028,0,0,0,,0,67,67,151,1,TINKY,HB,z,z,./images/TINKYHB.png,,,,,,,,,,,,,,,,,,,,,,,,,,,,,,,,,,,
,,,,,,,,,,,,,,,,,60a5a2e1f7b39a743bfcd43a,22,2022-02-12_17h18.16.717,lexical_decision_task_DD_L6,2021.2.3,Win32,60.78657832,,,,,,,,,,,1.2191,1,,,,,,,,,,,,,,z,1,1.2191,,,,,,,,0.412037076,0.187037028,0,0,0,,0,68,68,93,1,SMONE,C,z,z,./images/SMONE.png,,,,,,,,,,,,,,,,,,,,,,,,,,,,,,,,,,,
,,,,,,,,,,,,,,,,,60a5a2e1f7b39a743bfcd43a,22,2022-02-12_17h18.16.717,lexical_decision_task_DD_L6,2021.2.3,Win32,60.78657832,,,,,,,,,,,0.7747,1,,,,,,,,,,,,,,z,1,0.7747,,,,,,,,0.412037076,0.187037028,0,0,0,,0,69,69,132,1,SCIFF,C,z,z,./images/SCIFF.png,,,,,,,,,,,,,,,,,,,,,,,,,,,,,,,,,,,
,,,,,,,,,,,,,,,,,60a5a2e1f7b39a743bfcd43a,22,2022-02-12_17h18.16.717,lexical_decision_task_DD_L6,2021.2.3,Win32,60.78657832,,,,,,,,,,,1.2965,0,,,,,,,,,,,,,,z,0,1.2965,,,,,,,,0.412037076,0.187037028,0,0,0,,0,70,70,17,1,PARADE,HB,m,m,./images/PARADEHB.png,,,,,,,,,,,,,,,,,,,,,,,,,,,,,,,,,,,
,,,,,,,,,,,,,,,,,60a5a2e1f7b39a743bfcd43a,22,2022-02-12_17h18.16.717,lexical_decision_task_DD_L6,2021.2.3,Win32,60.78657832,,,,,,,,,,,1.6786,1,,,,,,,,,,,,,,m,1,1.6786,,,,,,,,0.412037076,0.186111102,0,0,0,,0,71,71,68,1,VALLEY,HB,m,m,./images/VALLEYHB.png,,,,,,,,,,,,,,,,,,,,,,,,,,,,,,,,,,,
,,,,,,,,,,,,,,,,,60a5a2e1f7b39a743bfcd43a,22,2022-02-12_17h18.16.717,lexical_decision_task_DD_L6,2021.2.3,Win32,60.78657832,,,,,,,,,,,0.6897,1,,,,,,,,,,,,,,z,1,0.6897,,,,,,,,0.412037076,0.186111102,0,0,0,,0,72,72,101,1,GLEET,LB,z,z,./images/GLEETLB.png,,,,,,,,,,,,,,,,,,,,,,,,,,,,,,,,,,,
,,,,,,,,,,,,,,,,,60a5a2e1f7b39a743bfcd43a,22,2022-02-12_17h18.16.717,lexical_decision_task_DD_L6,2021.2.3,Win32,60.78657832,,,,,,,,,,,1.0909,0,,,,,,,,,,,,,,z,0,1.0909,,,,,,,,0.412037076,0.186111102,0,0,0,,0,73,73,77,1,WHEEL,HB,m,m,./images/WHEELHB.png,,,,,,,,,,,,,,,,,,,,,,,,,,,,,,,,,,,
,,,,,,,,,,,,,,,,,60a5a2e1f7b39a743bfcd43a,22,2022-02-12_17h18.16.717,lexical_decision_task_DD_L6,2021.2.3,Win32,60.78657832,,,,,,,,,,,0.9254,1,,,,,,,,,,,,,,z,1,0.9254,,,,,,,,0.412037076,0.186111102,0,0,0,,0,74,74,160,1,VEETS,HB,z,z,./images/VEETSHB.png,,,,,,,,,,,,,,,,,,,,,,,,,,,,,,,,,,,
,,,,,,,,,,,,,,,,,60a5a2e1f7b39a743bfcd43a,22,2022-02-12_17h18.16.717,lexical_decision_task_DD_L6,2021.2.3,Win32,60.78657832,,,,,,,,,,,1.6863,1,,,,,,,,,,,,,,z,1,1.6863,,,,,,,,0.412037076,0.186111102,0,0,0,,0,75,75,127,1,NINDY,HB,z,z,./images/NINDYHB.png,,,,,,,,,,,,,,,,,,,,,,,,,,,,,,,,,,,
,,,,,,,,,,,,,,,,,60a5a2e1f7b39a743bfcd43a,22,2022-02-12_17h18.16.717,lexical_decision_task_DD_L6,2021.2.3,Win32,60.78657832,,,,,,,,,,,1.0109,1,,,,,,,,,,,,,,z,1,1.0109,,,,,,,,0.412037076,0.186111102,0,0,0,,0,76,76,84,1,HAXES,C,z,z,./images/HAXES.png,,,,,,,,,,,,,,,,,,,,,,,,,,,,,,,,,,,
,,,,,,,,,,,,,,,,,60a5a2e1f7b39a743bfcd43a,22,2022-02-12_17h18.16.717,lexical_decision_task_DD_L6,2021.2.3,Win32,60.78657832,,,,,,,,,,,1.0426,1,,,,,,,,,,,,,,z,1,1.0426,,,,,,,,0.412037076,0.186111102,0,0,0,,0,77,77,114,1,RIKES,C,z,z,./images/RIKES.png,,,,,,,,,,,,,,,,,,,,,,,,,,,,,,,,,,,
,,,,,,,,,,,,,,,,,60a5a2e1f7b39a743bfcd43a,22,2022-02-12_17h18.16.717,lexical_decision_task_DD_L6,2021.2.3,Win32,60.78657832,,,,,,,,,,,0.5868,1,,,,,,,,,,,,,,m,1,0.5868,,,,,,,,0.412037076,0.186111102,0,0,0,,0,78,78,19,1,DONKEY,C,m,m,./images/DONKEY.png,,,,,,,,,,,,,,,,,,,,,,,,,,,,,,,,,,,
,,,,,,,,,,,,,,,,,60a5a2e1f7b39a743bfcd43a,22,2022-02-12_17h18.16.717,lexical_decision_task_DD_L6,2021.2.3,Win32,60.78657832,,,,,,,,,,,2.1054,0,,,,,,,,,,,,,,m,0,2.1054,,,,,,,,0.412037076,0.186111102,0,0,0,,0,79,79,118,1,BAVEL,HB,z,z,./images/BAVELHB.png,,,,,,,,,,,,,,,,,,,,,,,,,,,,,,,,,,,
,,,,,,,,,,,,,,,,,60a5a2e1f7b39a743bfcd43a,22,2022-02-12_17h18.16.717,lexical_decision_task_DD_L6,2021.2.3,Win32,60.78657832,,,,,,,,,,,0.6686,1,,,,,,,,,,,,,,m,1,0.6686,,,,,,,,0.412037076,0.186111102,0,0,0,,0,80,80,43,1,STOOL,C,m,m,./images/STOOL.png,,,,,,,,,,,,,,,,,,,,,,,,,,,,,,,,,,,
,,,,,,,,,,,,,,,,,60a5a2e1f7b39a743bfcd43a,22,2022-02-12_17h18.16.717,lexical_decision_task_DD_L6,2021.2.3,Win32,60.78657832,,,,,,,,,,,0.6857,1,,,,,,,,,,,,,,m,1,0.6857,,,,,,,,0.412037076,0.186111102,0,0,0,,0,81,81,10,1,GARDEN,C,m,m,./images/GARDEN.png,,,,,,,,,,,,,,,,,,,,,,,,,,,,,,,,,,,
,,,,,,,,,,,,,,,,,60a5a2e1f7b39a743bfcd43a,22,2022-02-12_17h18.16.717,lexical_decision_task_DD_L6,2021.2.3,Win32,60.78657832,,,,,,,,,,,0.6916,1,,,,,,,,,,,,,,z,1,0.6916,,,,,,,,0.412037076,0.186111102,0,0,0,,0,82,82,86,1,AIFED,LB,z,z,./images/AIFEDLB.png,,,,,,,,,,,,,,,,,,,,,,,,,,,,,,,,,,,
,,,,,,,,,,,,,,,,,60a5a2e1f7b39a743bfcd43a,22,2022-02-12_17h18.16.717,lexical_decision_task_DD_L6,2021.2.3,Win32,60.78657832,,,,,,,,,,,1.8093,0,,,,,,,,,,,,,,z,0,1.8093,,,,,,,,0.412037076,0.186111102,0,0,0,space,0,83,83,53,1,POSTER,HB,m,m,./images/POSTERHB.png,10.2308,,,,,,,,,,,,,,,,,,,,,,,,,,,,,,,,,,
,,,,,,,,,,,,,,,,,60a5a2e1f7b39a743bfcd43a,22,2022-02-12_17h18.16.717,lexical_decision_task_DD_L6,2021.2.3,Win32,60.78657832,,,,,,,,,,,0.817,1,,,,,,,,,,,,,,m,1,0.817,,,,,,,,0.412037076,0.186111102,0,0,0,,0,84,84,50,1,PILOT,HB,m,m,./images/PILOTHB.png,,,,,,,,,,,,,,,,,,,,,,,,,,,,,,,,,,,
,,,,,,,,,,,,,,,,,60a5a2e1f7b39a743bfcd43a,22,2022-02-12_17h18.16.717,lexical_decision_task_DD_L6,2021.2.3,Win32,60.78657832,,,,,,,,,,,0.6461,1,,,,,,,,,,,,,,m,1,0.6461,,,,,,,,0.412037076,0.186111102,0,0,0,,0,85,85,37,1,TIGER,C,m,m,./images/TIGER.png,,,,,,,,,,,,,,,,,,,,,,,,,,,,,,,,,,,
,,,,,,,,,,,,,,,,,60a5a2e1f7b39a743bfcd43a,22,2022-02-12_17h18.16.717,lexical_decision_task_DD_L6,2021.2.3,Win32,60.78657832,,,,,,,,,,,0.6513,1,,,,,,,,,,,,,,z,1,0.6513,,,,,,,,0.412037076,0.186111102,0,0,0,,0,86,86,165,1,TROWN,C,z,z,./images/TROWN.png,,,,,,,,,,,,,,,,,,,,,,,,,,,,,,,,,,,
,,,,,,,,,,,,,,,,,60a5a2e1f7b39a743bfcd43a,22,2022-02-12_17h18.16.717,lexical_decision_task_DD_L6,2021.2.3,Win32,60.78657832,,,,,,,,,,,0.8369,1,,,,,,,,,,,,,,m,1,0.8369,,,,,,,,0.412037076,0.186111102,0,0,0,,0,87,87,31,1,STEAK,C,m,m,./images/STEAK.png,,,,,,,,,,,,,,,,,,,,,,,,,,,,,,,,,,,
,,,,,,,,,,,,,,,,,60a5a2e1f7b39a743bfcd43a,22,2022-02-12_17h18.16.717,lexical_decision_task_DD_L6,2021.2.3,Win32,60.78657832,,,,,,,,,,,1.5859,1,,,,,,,,,,,,,,m,1,1.5859,,,,,,,,0.412037076,0.186111102,0,0,0,,0,88,88,20,1,GRANNY,HB,m,m,./images/GRANNYHB.png,,,,,,,,,,,,,,,,,,,,,,,,,,,,,,,,,,,
,,,,,,,,,,,,,,,,,60a5a2e1f7b39a743bfcd43a,22,2022-02-12_17h18.16.717,lexical_decision_task_DD_L6,2021.2.3,Win32,60.78657832,,,,,,,,,,,0.6784,1,,,,,,,,,,,,,,m,1,0.6784,,,,,,,,0.412037076,0.186111102,0,0,0,,0,89,89,2,1,STOVE,HB,m,m,./images/STOVEHB.png,,,,,,,,,,,,,,,,,,,,,,,,,,,,,,,,,,,
,,,,,,,,,,,,,,,,,60a5a2e1f7b39a743bfcd43a,22,2022-02-12_17h18.16.717,lexical_decision_task_DD_L6,2021.2.3,Win32,60.78657832,,,,,,,,,,,1.2252,1,,,,,,,,,,,,,,m,1,1.2252,,,,,,,,0.412037076,0.186111102,0,0,0,,0,90,90,14,1,FENCE,HB,m,m,./images/FENCEHB.png,,,,,,,,,,,,,,,,,,,,,,,,,,,,,,,,,,,
,,,,,,,,,,,,,,,,,60a5a2e1f7b39a743bfcd43a,22,2022-02-12_17h18.16.717,lexical_decision_task_DD_L6,2021.2.3,Win32,60.78657832,,,,,,,,,,,0.8878,1,,,,,,,,,,,,,,m,1,0.8878,,,,,,,,0.412037076,0.186111102,0,0,0,,0,91,91,62,1,MAMMAL,HB,m,m,./images/MAMMALHB.png,,,,,,,,,,,,,,,,,,,,,,,,,,,,,,,,,,,
,,,,,,,,,,,,,,,,,60a5a2e1f7b39a743bfcd43a,22,2022-02-12_17h18.16.717,lexical_decision_task_DD_L6,2021.2.3,Win32,60.78657832,,,,,,,,,,,0.6627,1,,,,,,,,,,,,,,m,1,0.6627,,,,,,,,0.412037076,0.186111102,0,0,0,,0,92,92,42,1,CHAIN,LB,m,m,./images/CHAINLB.png,,,,,,,,,,,,,,,,,,,,,,,,,,,,,,,,,,,
,,,,,,,,,,,,,,,,,60a5a2e1f7b39a743bfcd43a,22,2022-02-12_17h18.16.717,lexical_decision_task_DD_L6,2021.2.3,Win32,60.78657832,,,,,,,,,,,0.9903,1,,,,,,,,,,,,,,m,1,0.9903,,,,,,,,0.412037076,0.186111102,0,0,0,,0,93,93,71,1,BUBBLE,HB,m,m,./images/BUBBLEHB.png,,,,,,,,,,,,,,,,,,,,,,,,,,,,,,,,,,,
,,,,,,,,,,,,,,,,,60a5a2e1f7b39a743bfcd43a,22,2022-02-12_17h18.16.717,lexical_decision_task_DD_L6,2021.2.3,Win32,60.78657832,,,,,,,,,,,0.8541,1,,,,,,,,,,,,,,z,1,0.8541,,,,,,,,0.412037076,0.186111102,0,0,0,,0,94,94,143,1,MONGS,LB,z,z,./images/MONGSLB.png,,,,,,,,,,,,,,,,,,,,,,,,,,,,,,,,,,,
,,,,,,,,,,,,,,,,,60a5a2e1f7b39a743bfcd43a,22,2022-02-12_17h18.16.717,lexical_decision_task_DD_L6,2021.2.3,Win32,60.78657832,,,,,,,,,,,0.7346,1,,,,,,,,,,,,,,m,1,0.7346,,,,,,,,0.412037076,0.186111102,0,0,0,,0,95,95,13,1,BUNNY,C,m,m,./images/BUNNY.png,,,,,,,,,,,,,,,,,,,,,,,,,,,,,,,,,,,
,,,,,,,,,,,,,,,,,60a5a2e1f7b39a743bfcd43a,22,2022-02-12_17h18.16.717,lexical_decision_task_DD_L6,2021.2.3,Win32,60.78657832,,,,,,,,,,,0.9353,1,,,,,,,,,,,,,,z,1,0.9353,,,,,,,,0.412037076,0.186111102,0,0,0,,0,96,96,125,1,MOOKY,LB,z,z,./images/MOOKYLB.png,,,,,,,,,,,,,,,,,,,,,,,,,,,,,,,,,,,
,,,,,,,,,,,,,,,,,60a5a2e1f7b39a743bfcd43a,22,2022-02-12_17h18.16.717,lexical_decision_task_DD_L6,2021.2.3,Win32,60.78657832,,,,,,,,,,,1.4089,1,,,,,,,,,,,,,,z,1,1.4089,,,,,,,,0.412037076,0.186111102,0,0,0,,0,97,97,85,1,CHULK,HB,z,z,./images/CHULKHB.png,,,,,,,,,,,,,,,,,,,,,,,,,,,,,,,,,,,
,,,,,,,,,,,,,,,,,60a5a2e1f7b39a743bfcd43a,22,2022-02-12_17h18.16.717,lexical_decision_task_DD_L6,2021.2.3,Win32,60.78657832,,,,,,,,,,,1.1125,1,,,,,,,,,,,,,,z,1,1.1125,,,,,,,,0.412037076,0.186111102,0,0,0,,0,98,98,108,1,GRUET,C,z,z,./images/GRUET.png,,,,,,,,,,,,,,,,,,,,,,,,,,,,,,,,,,,
,,,,,,,,,,,,,,,,,60a5a2e1f7b39a743bfcd43a,22,2022-02-12_17h18.16.717,lexical_decision_task_DD_L6,2021.2.3,Win32,60.78657832,,,,,,,,,,,0.974,1,,,,,,,,,,,,,,z,1,0.974,,,,,,,,0.412037076,0.186111102,0,0,0,,0,99,99,164,1,SGREW,LB,z,z,./images/SGREWLB.png,,,,,,,,,,,,,,,,,,,,,,,,,,,,,,,,,,,
,,,,,,,,,,,,,,,,,60a5a2e1f7b39a743bfcd43a,22,2022-02-12_17h18.16.717,lexical_decision_task_DD_L6,2021.2.3,Win32,60.78657832,,,,,,,,,,,0.9276,1,,,,,,,,,,,,,,z,1,0.9276,,,,,,,,0.412037076,0.186111102,0,0,0,,0,100,100,138,1,PLICE,C,z,z,./images/PLICE.png,,,,,,,,,,,,,,,,,,,,,,,,,,,,,,,,,,,
,,,,,,,,,,,,,,,,,60a5a2e1f7b39a743bfcd43a,22,2022-02-12_17h18.16.717,lexical_decision_task_DD_L6,2021.2.3,Win32,60.78657832,,,,,,,,,,,0.7444,1,,,,,,,,,,,,,,z,1,0.7444,,,,,,,,0.412037076,0.186111102,0,0,0,,0,101,101,134,1,TROSS,LB,z,z,./images/TROSSLB.png,,,,,,,,,,,,,,,,,,,,,,,,,,,,,,,,,,,
,,,,,,,,,,,,,,,,,60a5a2e1f7b39a743bfcd43a,22,2022-02-12_17h18.16.717,lexical_decision_task_DD_L6,2021.2.3,Win32,60.78657832,,,,,,,,,,,0.7009,1,,,,,,,,,,,,,,m,1,0.7009,,,,,,,,0.412037076,0.186111102,0,0,0,,0,102,102,72,1,FLASK,LB,m,m,./images/FLASKLB.png,,,,,,,,,,,,,,,,,,,,,,,,,,,,,,,,,,,
,,,,,,,,,,,,,,,,,60a5a2e1f7b39a743bfcd43a,22,2022-02-12_17h18.16.717,lexical_decision_task_DD_L6,2021.2.3,Win32,60.78657832,,,,,,,,,,,0.6557,1,,,,,,,,,,,,,,m,1,0.6557,,,,,,,,0.412037076,0.186111102,0,0,0,,0,103,103,54,1,CHERRY,LB,m,m,./images/CHERRYLB.png,,,,,,,,,,,,,,,,,,,,,,,,,,,,,,,,,,,
,,,,,,,,,,,,,,,,,60a5a2e1f7b39a743bfcd43a,22,2022-02-12_17h18.16.717,lexical_decision_task_DD_L6,2021.2.3,Win32,60.78657832,,,,,,,,,,,1.0746,1,,,,,,,,,,,,,,z,1,1.0746,,,,,,,,0.412037076,0.186111102,0,0,0,,0,104,104,148,1,JOMS,HB,z,z,./images/JOMSHB.png,,,,,,,,,,,,,,,,,,,,,,,,,,,,,,,,,,,
,,,,,,,,,,,,,,,,,60a5a2e1f7b39a743bfcd43a,22,2022-02-12_17h18.16.717,lexical_decision_task_DD_L6,2021.2.3,Win32,60.78657832,,,,,,,,,,,1.0545,1,,,,,,,,,,,,,,z,1,1.0545,,,,,,,,0.412037076,0.186111102,0,0,0,,0,105,105,121,1,CEERS,HB,z,z,./images/CEERSHB.png,,,,,,,,,,,,,,,,,,,,,,,,,,,,,,,,,,,
,,,,,,,,,,,,,,,,,60a5a2e1f7b39a743bfcd43a,22,2022-02-12_17h18.16.717,lexical_decision_task_DD_L6,2021.2.3,Win32,60.78657832,,,,,,,,,,,0.8842,1,,,,,,,,,,,,,,m,1,0.8842,,,,,,,,0.412037076,0.186111102,0,0,0,,0,106,106,52,1,DESERT,C,m,m,./images/DESERT.png,,,,,,,,,,,,,,,,,,,,,,,,,,,,,,,,,,,
,,,,,,,,,,,,,,,,,60a5a2e1f7b39a743bfcd43a,22,2022-02-12_17h18.16.717,lexical_decision_task_DD_L6,2021.2.3,Win32,60.78657832,,,,,,,,,,,0.7176,1,,,,,,,,,,,,,,z,1,0.7176,,,,,,,,0.412037076,0.186111102,0,0,0,,0,107,107,137,1,JOOST,LB,z,z,./images/JOOSTLB.png,,,,,,,,,,,,,,,,,,,,,,,,,,,,,,,,,,,
,,,,,,,,,,,,,,,,,60a5a2e1f7b39a743bfcd43a,22,2022-02-12_17h18.16.717,lexical_decision_task_DD_L6,2021.2.3,Win32,60.78657832,,,,,,,,,,,0.7172,1,,,,,,,,,,,,,,m,1,0.7172,,,,,,,,0.412037076,0.186111102,0,0,0,,0,108,108,61,1,ARTIST,C,m,m,./images/ARTIST.png,,,,,,,,,,,,,,,,,,,,,,,,,,,,,,,,,,,
,,,,,,,,,,,,,,,,,60a5a2e1f7b39a743bfcd43a,22,2022-02-12_17h18.16.717,lexical_decision_task_DD_L6,2021.2.3,Win32,60.78657832,,,,,,,,,,,0.6842,1,,,,,,,,,,,,,,z,1,0.6842,,,,,,,,0.412037076,0.186111102,0,0,0,,0,109,109,89,1,DRIEK,LB,z,z,./images/DRIEKLB.png,,,,,,,,,,,,,,,,,,,,,,,,,,,,,,,,,,,
,,,,,,,,,,,,,,,,,60a5a2e1f7b39a743bfcd43a,22,2022-02-12_17h18.16.717,lexical_decision_task_DD_L6,2021.2.3,Win32,60.78657832,,,,,,,,,,,1.1692,0,,,,,,,,,,,,,,z,0,1.1692,,,,,,,,0.412037076,0.186111102,0,0,0,,0,110,110,11,1,MEDAL,HB,m,m,./images/MEDALHB.png,,,,,,,,,,,,,,,,,,,,,,,,,,,,,,,,,,,
,,,,,,,,,,,,,,,,,60a5a2e1f7b39a743bfcd43a,22,2022-02-12_17h18.16.717,lexical_decision_task_DD_L6,2021.2.3,Win32,60.78657832,,,,,,,,,,,1.4208,1,,,,,,,,,,,,,,z,1,1.4208,,,,,,,,0.412037076,0.186111102,0,0,0,,0,111,111,91,1,SHENS,HB,z,z,./images/SHENSHB.png,,,,,,,,,,,,,,,,,,,,,,,,,,,,,,,,,,,
,,,,,,,,,,,,,,,,,60a5a2e1f7b39a743bfcd43a,22,2022-02-12_17h18.16.717,lexical_decision_task_DD_L6,2021.2.3,Win32,60.78657832,,,,,,,,,,,0.8252,1,,,,,,,,,,,,,,m,1,0.8252,,,,,,,,0.412037076,0.186111102,0,0,0,,0,112,112,5,1,BAMBOO,HB,m,m,./images/BAMBOOHB.png,,,,,,,,,,,,,,,,,,,,,,,,,,,,,,,,,,,
,,,,,,,,,,,,,,,,,60a5a2e1f7b39a743bfcd43a,22,2022-02-12_17h18.16.717,lexical_decision_task_DD_L6,2021.2.3,Win32,60.78657832,,,,,,,,,,,0.7232,1,,,,,,,,,,,,,,m,1,0.7232,,,,,,,,0.412037076,0.186111102,0,0,0,,0,113,113,30,1,SLOPE,LB,m,m,./images/SLOPELB.png,,,,,,,,,,,,,,,,,,,,,,,,,,,,,,,,,,,
,,,,,,,,,,,,,,,,,60a5a2e1f7b39a743bfcd43a,22,2022-02-12_17h18.16.717,lexical_decision_task_DD_L6,2021.2.3,Win32,60.78657832,,,,,,,,,,,0.946,1,,,,,,,,,,,,,,z,1,0.946,,,,,,,,0.412037076,0.186111102,0,0,0,,0,114,114,112,1,MYING,HB,z,z,./images/MYINGHB.png,,,,,,,,,,,,,,,,,,,,,,,,,,,,,,,,,,,
,,,,,,,,,,,,,,,,,60a5a2e1f7b39a743bfcd43a,22,2022-02-12_17h18.16.717,lexical_decision_task_DD_L6,2021.2.3,Win32,60.78657832,,,,,,,,,,,0.7515,1,,,,,,,,,,,,,,z,1,0.7515,,,,,,,,0.412037076,0.186111102,0,0,0,,0,115,115,117,1,STEEG,C,z,z,./images/STEEG.png,,,,,,,,,,,,,,,,,,,,,,,,,,,,,,,,,,,
,,,,,,,,,,,,,,,,,60a5a2e1f7b39a743bfcd43a,22,2022-02-12_17h18.16.717,lexical_decision_task_DD_L6,2021.2.3,Win32,60.78657832,,,,,,,,,,,0.7307,1,,,,,,,,,,,,,,m,1,0.7307,,,,,,,,0.412037076,0.186111102,0,0,0,,0,116,116,49,1,BISHOP,C,m,m,./images/BISHOP.png,,,,,,,,,,,,,,,,,,,,,,,,,,,,,,,,,,,
,,,,,,,,,,,,,,,,,60a5a2e1f7b39a743bfcd43a,22,2022-02-12_17h18.16.717,lexical_decision_task_DD_L6,2021.2.3,Win32,60.78657832,,,,,,,,,,,0.7343,1,,,,,,,,,,,,,,z,1,0.7343,,,,,,,,0.412037076,0.186111102,0,0,0,,0,117,117,146,1,MOOST,LB,z,z,./images/MOOSTLB.png,,,,,,,,,,,,,,,,,,,,,,,,,,,,,,,,,,,
,,,,,,,,,,,,,,,,,60a5a2e1f7b39a743bfcd43a,22,2022-02-12_17h18.16.717,lexical_decision_task_DD_L6,2021.2.3,Win32,60.78657832,,,,,,,,,,,1.0077,1,,,,,,,,,,,,,,z,1,1.0077,,,,,,,,0.412037076,0.186111102,0,0,0,,0,118,118,130,1,CRILL,HB,z,z,./images/CRILLHB.png,,,,,,,,,,,,,,,,,,,,,,,,,,,,,,,,,,,
,,,,,,,,,,,,,,,,,60a5a2e1f7b39a743bfcd43a,22,2022-02-12_17h18.16.717,lexical_decision_task_DD_L6,2021.2.3,Win32,60.78657832,,,,,,,,,,,0.7963,1,,,,,,,,,,,,,,m,1,0.7963,,,,,,,,0.412037076,0.186111102,0,0,0,,0,119,119,26,1,CLOUD,HB,m,m,./images/CLOUDHB.png,,,,,,,,,,,,,,,,,,,,,,,,,,,,,,,,,,,
,,,,,,,,,,,,,,,,,60a5a2e1f7b39a743bfcd43a,22,2022-02-12_17h18.16.717,lexical_decision_task_DD_L6,2021.2.3,Win32,60.78657832,,,,,,,,,,,0.6906,1,,,,,,,,,,,,,,z,1,0.6906,,,,,,,,0.412037076,0.186111102,0,0,0,,0,120,120,126,1,GUELS,C,z,z,./images/GUELS.png,,,,,,,,,,,,,,,,,,,,,,,,,,,,,,,,,,,
,,,,,,,,,,,,,,,,,60a5a2e1f7b39a743bfcd43a,22,2022-02-12_17h18.16.717,lexical_decision_task_DD_L6,2021.2.3,Win32,60.78657832,,,,,,,,,,,1.0506,0,,,,,,,,,,,,,,z,0,1.0506,,,,,,,,0.412037076,0.186111102,0,0,0,,0,121,121,35,1,LLAMA,HB,m,m,./images/LLAMAHB.png,,,,,,,,,,,,,,,,,,,,,,,,,,,,,,,,,,,
,,,,,,,,,,,,,,,,,60a5a2e1f7b39a743bfcd43a,22,2022-02-12_17h18.16.717,lexical_decision_task_DD_L6,2021.2.3,Win32,60.78657832,,,,,,,,,,,1.1711,1,,,,,,,,,,,,,,m,1,1.1711,,,,,,,,0.412037076,0.186111102,0,0,0,,0,122,122,74,1,JUMPER,HB,m,m,./images/JUMPERHB.png,,,,,,,,,,,,,,,,,,,,,,,,,,,,,,,,,,,
,,,,,,,,,,,,,,,,,60a5a2e1f7b39a743bfcd43a,22,2022-02-12_17h18.16.717,lexical_decision_task_DD_L6,2021.2.3,Win32,60.78657832,,,,,,,,,,,0.7034,1,,,,,,,,,,,,,,m,1,0.7034,,,,,,,,0.412037076,0.186111102,0,0,0,,0,123,123,79,1,RULER,C,m,m,./images/RULER.png,,,,,,,,,,,,,,,,,,,,,,,,,,,,,,,,,,,
,,,,,,,,,,,,,,,,,60a5a2e1f7b39a743bfcd43a,22,2022-02-12_17h18.16.717,lexical_decision_task_DD_L6,2021.2.3,Win32,60.78657832,,,,,,,,,,,0.6346,1,,,,,,,,,,,,,,m,1,0.6346,,,,,,,,0.412037076,0.186111102,0,0,0,,0,124,124,78,1,BROOM,LB,m,m,./images/BROOMLB.png,,,,,,,,,,,,,,,,,,,,,,,,,,,,,,,,,,,
,,,,,,,,,,,,,,,,,60a5a2e1f7b39a743bfcd43a,22,2022-02-12_17h18.16.717,lexical_decision_task_DD_L6,2021.2.3,Win32,60.78657832,,,,,,,,,,,1.2635,1,,,,,,,,,,,,,,m,1,1.2635,,,,,,,,0.412037076,0.186111102,0,0,0,space,0,125,125,65,1,SPINE,HB,m,m,./images/SPINEHB.png,1.5004,,,,,,,,,,,,,,,,,,,,,,,,,,,,,,,,,,
,,,,,,,,,,,,,,,,,60a5a2e1f7b39a743bfcd43a,22,2022-02-12_17h18.16.717,lexical_decision_task_DD_L6,2021.2.3,Win32,60.78657832,,,,,,,,,,,0.785,0,,,,,,,,,,,,,,m,0,0.785,,,,,,,,0.412037076,0.186111102,0,0,0,,0,126,126,140,1,DOVET,LB,z,z,./images/DOVETLB.png,,,,,,,,,,,,,,,,,,,,,,,,,,,,,,,,,,,
,,,,,,,,,,,,,,,,,60a5a2e1f7b39a743bfcd43a,22,2022-02-12_17h18.16.717,lexical_decision_task_DD_L6,2021.2.3,Win32,60.78657832,,,,,,,,,,,0.6908,1,,,,,,,,,,,,,,m,1,0.6908,,,,,,,,0.412037076,0.186111102,0,0,0,,0,127,127,24,1,FLESH,LB,m,m,./images/FLESHLB.png,,,,,,,,,,,,,,,,,,,,,,,,,,,,,,,,,,,
,,,,,,,,,,,,,,,,,60a5a2e1f7b39a743bfcd43a,22,2022-02-12_17h18.16.717,lexical_decision_task_DD_L6,2021.2.3,Win32,60.78657832,,,,,,,,,,,1.1413,1,,,,,,,,,,,,,,z,1,1.1413,,,,,,,,0.412037076,0.186111102,0,0,0,,0,128,128,106,1,CLUMS,HB,z,z,./images/CLUMSHB.png,,,,,,,,,,,,,,,,,,,,,,,,,,,,,,,,,,,
,,,,,,,,,,,,,,,,,60a5a2e1f7b39a743bfcd43a,22,2022-02-12_17h18.16.717,lexical_decision_task_DD_L6,2021.2.3,Win32,60.78657832,,,,,,,,,,,1.1091,1,,,,,,,,,,,,,,z,1,1.1091,,,,,,,,0.412037076,0.186111102,0,0,0,,0,129,129,115,1,MAWNS,HB,z,z,./images/MAWNSHB.png,,,,,,,,,,,,,,,,,,,,,,,,,,,,,,,,,,,
,,,,,,,,,,,,,,,,,60a5a2e1f7b39a743bfcd43a,22,2022-02-12_17h18.16.717,lexical_decision_task_DD_L6,2021.2.3,Win32,60.78657832,,,,,,,,,,,0.9344,1,,,,,,,,,,,,,,z,1,0.9344,,,,,,,,0.412037076,0.186111102,0,0,0,,0,130,130,147,1,ZOLES,C,z,z,./images/ZOLES.png,,,,,,,,,,,,,,,,,,,,,,,,,,,,,,,,,,,
,,,,,,,,,,,,,,,,,60a5a2e1f7b39a743bfcd43a,22,2022-02-12_17h18.16.717,lexical_decision_task_DD_L6,2021.2.3,Win32,60.78657832,,,,,,,,,,,0.7074,1,,,,,,,,,,,,,,z,1,0.7074,,,,,,,,0.412037076,0.186111102,0,0,0,,0,131,131,95,1,HANTY,LB,z,z,./images/HANTYLB.png,,,,,,,,,,,,,,,,,,,,,,,,,,,,,,,,,,,
,,,,,,,,,,,,,,,,,60a5a2e1f7b39a743bfcd43a,22,2022-02-12_17h18.16.717,lexical_decision_task_DD_L6,2021.2.3,Win32,60.78657832,,,,,,,,,,,0.8115,1,,,,,,,,,,,,,,m,1,0.8115,,,,,,,,0.412037076,0.186111102,0,0,0,,0,132,132,21,1,DANCER,LB,m,m,./images/DANCERLB.png,,,,,,,,,,,,,,,,,,,,,,,,,,,,,,,,,,,
,,,,,,,,,,,,,,,,,60a5a2e1f7b39a743bfcd43a,22,2022-02-12_17h18.16.717,lexical_decision_task_DD_L6,2021.2.3,Win32,60.78657832,,,,,,,,,,,1.3026,1,,,,,,,,,,,,,,m,1,1.3026,,,,,,,,0.412037076,0.186111102,0,0,0,,0,133,133,59,1,BRUSH,HB,m,m,./images/BRUSHHB.png,,,,,,,,,,,,,,,,,,,,,,,,,,,,,,,,,,,
,,,,,,,,,,,,,,,,,60a5a2e1f7b39a743bfcd43a,22,2022-02-12_17h18.16.717,lexical_decision_task_DD_L6,2021.2.3,Win32,60.78657832,,,,,,,,,,,0.6433,1,,,,,,,,,,,,,,z,1,0.6433,,,,,,,,0.412037076,0.186111102,0,0,0,,0,134,134,102,1,DULLE,C,z,z,./images/DULLE.png,,,,,,,,,,,,,,,,,,,,,,,,,,,,,,,,,,,
,,,,,,,,,,,,,,,,,60a5a2e1f7b39a743bfcd43a,22,2022-02-12_17h18.16.717,lexical_decision_task_DD_L6,2021.2.3,Win32,60.78657832,,,,,,,,,,,0.8406,1,,,,,,,,,,,,,,z,1,0.8406,,,,,,,,0.412037076,0.186111102,0,0,0,,0,135,135,113,1,LINEW,LB,z,z,./images/LINEWLB.png,,,,,,,,,,,,,,,,,,,,,,,,,,,,,,,,,,,
,,,,,,,,,,,,,,,,,60a5a2e1f7b39a743bfcd43a,22,2022-02-12_17h18.16.717,lexical_decision_task_DD_L6,2021.2.3,Win32,60.78657832,,,,,,,,,,,0.8178,1,,,,,,,,,,,,,,m,1,0.8178,,,,,,,,0.412037076,0.186111102,0,0,0,,0,136,136,38,1,ENGINE,HB,m,m,./images/ENGINEHB.png,,,,,,,,,,,,,,,,,,,,,,,,,,,,,,,,,,,
,,,,,,,,,,,,,,,,,60a5a2e1f7b39a743bfcd43a,22,2022-02-12_17h18.16.717,lexical_decision_task_DD_L6,2021.2.3,Win32,60.78657832,,,,,,,,,,,0.6083,1,,,,,,,,,,,,,,m,1,0.6083,,,,,,,,0.412037076,0.186111102,0,0,0,,0,137,137,81,1,DRILL,LB,m,m,./images/DRILLLB.png,,,,,,,,,,,,,,,,,,,,,,,,,,,,,,,,,,,
,,,,,,,,,,,,,,,,,60a5a2e1f7b39a743bfcd43a,22,2022-02-12_17h18.16.717,lexical_decision_task_DD_L6,2021.2.3,Win32,60.78657832,,,,,,,,,,,0.6342,1,,,,,,,,,,,,,,z,1,0.6342,,,,,,,,0.412037076,0.186111102,0,0,0,,0,138,138,90,1,NEAST,C,z,z,./images/NEAST.png,,,,,,,,,,,,,,,,,,,,,,,,,,,,,,,,,,,
,,,,,,,,,,,,,,,,,60a5a2e1f7b39a743bfcd43a,22,2022-02-12_17h18.16.717,lexical_decision_task_DD_L6,2021.2.3,Win32,60.78657832,,,,,,,,,,,0.6722,0,,,,,,,,,,,,,,m,0,0.6722,,,,,,,,0.412037076,0.186111102,0,0,0,,0,139,139,110,1,CRUNK,LB,z,z,./images/CRUNKLB.png,,,,,,,,,,,,,,,,,,,,,,,,,,,,,,,,,,,
,,,,,,,,,,,,,,,,,60a5a2e1f7b39a743bfcd43a,22,2022-02-12_17h18.16.717,lexical_decision_task_DD_L6,2021.2.3,Win32,60.78657832,,,,,,,,,,,1.2973,1,,,,,,,,,,,,,,z,1,1.2973,,,,,,,,0.412037076,0.186111102,0,0,0,,0,140,140,103,1,FLORT,HB,z,z,./images/FLORTHB.png,,,,,,,,,,,,,,,,,,,,,,,,,,,,,,,,,,,
,,,,,,,,,,,,,,,,,60a5a2e1f7b39a743bfcd43a,22,2022-02-12_17h18.16.717,lexical_decision_task_DD_L6,2021.2.3,Win32,60.78657832,,,,,,,,,,,0.718,1,,,,,,,,,,,,,,m,1,0.718,,,,,,,,0.412037076,0.186111102,0,0,0,,0,141,141,18,1,PARCEL,LB,m,m,./images/PARCELLB.png,,,,,,,,,,,,,,,,,,,,,,,,,,,,,,,,,,,
,,,,,,,,,,,,,,,,,60a5a2e1f7b39a743bfcd43a,22,2022-02-12_17h18.16.717,lexical_decision_task_DD_L6,2021.2.3,Win32,60.78657832,,,,,,,,,,,0.7121,1,,,,,,,,,,,,,,m,1,0.7121,,,,,,,,0.412037076,0.186111102,0,0,0,,0,142,142,28,1,CASINO,C,m,m,./images/CASINO.png,,,,,,,,,,,,,,,,,,,,,,,,,,,,,,,,,,,
,,,,,,,,,,,,,,,,,60a5a2e1f7b39a743bfcd43a,22,2022-02-12_17h18.16.717,lexical_decision_task_DD_L6,2021.2.3,Win32,60.78657832,,,,,,,,,,,0.6678,1,,,,,,,,,,,,,,m,1,0.6678,,,,,,,,0.412037076,0.186111102,0,0,0,,0,143,143,34,1,RAZOR,C,m,m,./images/RAZOR.png,,,,,,,,,,,,,,,,,,,,,,,,,,,,,,,,,,,
,,,,,,,,,,,,,,,,,60a5a2e1f7b39a743bfcd43a,22,2022-02-12_17h18.16.717,lexical_decision_task_DD_L6,2021.2.3,Win32,60.78657832,,,,,,,,,,,0.711,1,,,,,,,,,,,,,,m,1,0.711,,,,,,,,0.412037076,0.186111102,0,0,0,,0,144,144,3,1,CRATER,LB,m,m,./images/CRATERLB.png,,,,,,,,,,,,,,,,,,,,,,,,,,,,,,,,,,,
,,,,,,,,,,,,,,,,,60a5a2e1f7b39a743bfcd43a,22,2022-02-12_17h18.16.717,lexical_decision_task_DD_L6,2021.2.3,Win32,60.78657832,,,,,,,,,,,0.5691,1,,,,,,,,,,,,,,m,1,0.5691,,,,,,,,0.412037076,0.186111102,0,0,0,,0,145,145,7,1,WAGON,C,m,m,./images/WAGON.png,,,,,,,,,,,,,,,,,,,,,,,,,,,,,,,,,,,
,,,,,,,,,,,,,,,,,60a5a2e1f7b39a743bfcd43a,22,2022-02-12_17h18.16.717,lexical_decision_task_DD_L6,2021.2.3,Win32,60.78657832,,,,,,,,,,,0.5702,1,,,,,,,,,,,,,,m,1,0.5702,,,,,,,,0.412037076,0.186111102,0,0,0,,0,146,146,66,1,STATUE,LB,m,m,./images/STATUELB.png,,,,,,,,,,,,,,,,,,,,,,,,,,,,,,,,,,,
,,,,,,,,,,,,,,,,,60a5a2e1f7b39a743bfcd43a,22,2022-02-12_17h18.16.717,lexical_decision_task_DD_L6,2021.2.3,Win32,60.78657832,,,,,,,,,,,0.6015,1,,,,,,,,,,,,,,z,1,0.6015,,,,,,,,0.412037076,0.186111102,0,0,0,,0,147,147,87,1,TRING,C,z,z,./images/TRING.png,,,,,,,,,,,,,,,,,,,,,,,,,,,,,,,,,,,
,,,,,,,,,,,,,,,,,60a5a2e1f7b39a743bfcd43a,22,2022-02-12_17h18.16.717,lexical_decision_task_DD_L6,2021.2.3,Win32,60.78657832,,,,,,,,,,,0.6014,1,,,,,,,,,,,,,,z,1,0.6014,,,,,,,,0.412037076,0.186111102,0,0,0,,0,148,148,162,1,LEICH,C,z,z,./images/LEICH.png,,,,,,,,,,,,,,,,,,,,,,,,,,,,,,,,,,,
,,,,,,,,,,,,,,,,,60a5a2e1f7b39a743bfcd43a,22,2022-02-12_17h18.16.717,lexical_decision_task_DD_L6,2021.2.3,Win32,60.78657832,,,,,,,,,,,1.1927,1,,,,,,,,,,,,,,m,1,1.1927,,,,,,,,0.412037076,0.186111102,0,0,0,,0,149,149,32,1,HOCKEY,HB,m,m,./images/HOCKEYHB.png,,,,,,,,,,,,,,,,,,,,,,,,,,,,,,,,,,,
,,,,,,,,,,,,,,,,,60a5a2e1f7b39a743bfcd43a,22,2022-02-12_17h18.16.717,lexical_decision_task_DD_L6,2021.2.3,Win32,60.78657832,,,,,,,,,,,0.7702,1,,,,,,,,,,,,,,z,1,0.7702,,,,,,,,0.412037076,0.186111102,0,0,0,,0,150,150,119,1,PAFER,LB,z,z,./images/PAFERLB.png,,,,,,,,,,,,,,,,,,,,,,,,,,,,,,,,,,,
,,,,,,,,,,,,,,,,,60a5a2e1f7b39a743bfcd43a,22,2022-02-12_17h18.16.717,lexical_decision_task_DD_L6,2021.2.3,Win32,60.78657832,,,,,,,,,,,0.751,1,,,,,,,,,,,,,,z,1,0.751,,,,,,,,0.412037076,0.186111102,0,0,0,,0,151,151,155,1,CANGY,LB,z,z,./images/CANGYLB.png,,,,,,,,,,,,,,,,,,,,,,,,,,,,,,,,,,,
,,,,,,,,,,,,,,,,,60a5a2e1f7b39a743bfcd43a,22,2022-02-12_17h18.16.717,lexical_decision_task_DD_L6,2021.2.3,Win32,60.78657832,,,,,,,,,,,0.8515,1,,,,,,,,,,,,,,z,1,0.8515,,,,,,,,0.412037076,0.186111102,0,0,0,,0,152,152,124,1,TUNCH,HB,z,z,./images/TUNCHHB.png,,,,,,,,,,,,,,,,,,,,,,,,,,,,,,,,,,,
,,,,,,,,,,,,,,,,,60a5a2e1f7b39a743bfcd43a,22,2022-02-12_17h18.16.717,lexical_decision_task_DD_L6,2021.2.3,Win32,60.78657832,,,,,,,,,,,0.8507,1,,,,,,,,,,,,,,z,1,0.8507,,,,,,,,0.412037076,0.186111102,0,0,0,,0,153,153,129,1,PRANS,C,z,z,./images/PRANS.png,,,,,,,,,,,,,,,,,,,,,,,,,,,,,,,,,,,
,,,,,,,,,,,,,,,,,60a5a2e1f7b39a743bfcd43a,22,2022-02-12_17h18.16.717,lexical_decision_task_DD_L6,2021.2.3,Win32,60.78657832,,,,,,,,,,,1.2178,1,,,,,,,,,,,,,,m,1,1.2178,,,,,,,,0.412037076,0.186111102,0,0,0,,0,154,154,83,1,WHISKY,HB,m,m,./images/WHISKYHB.png,,,,,,,,,,,,,,,,,,,,,,,,,,,,,,,,,,,
,,,,,,,,,,,,,,,,,60a5a2e1f7b39a743bfcd43a,22,2022-02-12_17h18.16.717,lexical_decision_task_DD_L6,2021.2.3,Win32,60.78657832,,,,,,,,,,,1.5804,1,,,,,,,,,,,,,,z,1,1.5804,,,,,,,,0.412037076,0.186111102,0,0,0,,0,155,155,163,1,GAMBA,HB,z,z,./images/GAMBAHB.png,,,,,,,,,,,,,,,,,,,,,,,,,,,,,,,,,,,
,,,,,,,,,,,,,,,,,60a5a2e1f7b39a743bfcd43a,22,2022-02-12_17h18.16.717,lexical_decision_task_DD_L6,2021.2.3,Win32,60.78657832,,,,,,,,,,,0.6345,1,,,,,,,,,,,,,,m,1,0.6345,,,,,,,,0.412037076,0.186111102,0,0,0,,0,156,156,48,1,SHIELD,LB,m,m,./images/SHIELDLB.png,,,,,,,,,,,,,,,,,,,,,,,,,,,,,,,,,,,
,,,,,,,,,,,,,,,,,60a5a2e1f7b39a743bfcd43a,22,2022-02-12_17h18.16.717,lexical_decision_task_DD_L6,2021.2.3,Win32,60.78657832,,,,,,,,,,,0.7121,1,,,,,,,,,,,,,,z,1,0.7121,,,,,,,,0.412037076,0.186111102,0,0,0,,0,157,157,116,1,BALGY,LB,z,z,./images/BALGYLB.png,,,,,,,,,,,,,,,,,,,,,,,,,,,,,,,,,,,
,,,,,,,,,,,,,,,,,60a5a2e1f7b39a743bfcd43a,22,2022-02-12_17h18.16.717,lexical_decision_task_DD_L6,2021.2.3,Win32,60.78657832,,,,,,,,,,,0.8289,1,,,,,,,,,,,,,,m,1,0.8289,,,,,,,,0.412037076,0.186111102,0,0,0,,0,158,158,29,1,PISTOL,HB,m,m,./images/PISTOLHB.png,,,,,,,,,,,,,,,,,,,,,,,,,,,,,,,,,,,
,,,,,,,,,,,,,,,,,60a5a2e1f7b39a743bfcd43a,22,2022-02-12_17h18.16.717,lexical_decision_task_DD_L6,2021.2.3,Win32,60.78657832,,,,,,,,,,,1.2596,1,,,,,,,,,,,,,,z,1,1.2596,,,,,,,,0.412037076,0.186111102,0,0,0,,0,159,159,88,1,GLUSH,HB,z,z,./images/GLUSHHB.png,,,,,,,,,,,,,,,,,,,,,,,,,,,,,,,,,,,
,,,,,,,,,,,,,,,,,60a5a2e1f7b39a743bfcd43a,22,2022-02-12_17h18.16.717,lexical_decision_task_DD_L6,2021.2.3,Win32,60.78657832,,,,,,,,,,,0.6701,1,,,,,,,,,,,,,,z,1,0.6701,,,,,,,,0.412037076,0.186111102,0,0,0,,0,160,160,131,1,NACES,LB,z,z,./images/NACESLB.png,,,,,,,,,,,,,,,,,,,,,,,,,,,,,,,,,,,
,,,,,,,,,,,,,,,,,60a5a2e1f7b39a743bfcd43a,22,2022-02-12_17h18.16.717,lexical_decision_task_DD_L6,2021.2.3,Win32,60.78657832,,,,,,,,,,,0.6112,1,,,,,,,,,,,,,,z,1,0.6112,,,,,,,,0.412037076,0.186111102,0,0,0,,0,161,161,150,1,NOOLS,C,z,z,./images/NOOLS.png,,,,,,,,,,,,,,,,,,,,,,,,,,,,,,,,,,,
,,,,,,,,,,,,,,,,,60a5a2e1f7b39a743bfcd43a,22,2022-02-12_17h18.16.717,lexical_decision_task_DD_L6,2021.2.3,Win32,60.78657832,,,,,,,,,,,1.0261,1,,,,,,,,,,,,,,m,1,1.0261,,,,,,,,0.412037076,0.186111102,0,0,0,,0,162,162,41,1,STREAM,HB,m,m,./images/STREAMHB.png,,,,,,,,,,,,,,,,,,,,,,,,,,,,,,,,,,,
,,,,,,,,,,,,,,,,,60a5a2e1f7b39a743bfcd43a,22,2022-02-12_17h18.16.717,lexical_decision_task_DD_L6,2021.2.3,Win32,60.78657832,,,,,,,,,,,0.8036,1,,,,,,,,,,,,,,m,1,0.8036,,,,,,,,0.412037076,0.186111102,0,0,0,,0,163,163,76,1,MIDGET,C,m,m,./images/MIDGET.png,,,,,,,,,,,,,,,,,,,,,,,,,,,,,,,,,,,
,,,,,,,,,,,,,,,,,60a5a2e1f7b39a743bfcd43a,22,2022-02-12_17h18.16.717,lexical_decision_task_DD_L6,2021.2.3,Win32,60.78657832,,,,,,,,,,,0.7009,1,,,,,,,,,,,,,,m,1,0.7009,,,,,,,,0.412037076,0.186111102,0,0,0,,0,164,164,1,1,TOWEL,C,m,m,./images/TOWEL.png,,,,,,,,,,,,,,,,,,,,,,,,,,,,,,,,,,,
,,,,,,,,,,,,,,,,,60a5a2e1f7b39a743bfcd43a,22,2022-02-12_17h18.16.717,lexical_decision_task_DD_L6,2021.2.3,Win32,60.78657832,,,,,,,,,,,0.8844,1,,,,,,,,,,,,,,z,1,0.8844,,,,,,,,0.412037076,0.186111102,0,0,0,,0,165,165,105,1,MOKER,C,z,z,./images/MOKER.png,,,,,,,,,,,,,,,,,,,,,,,,,,,,,,,,,,,
,,,,,,,,,,,,,,,,,60a5a2e1f7b39a743bfcd43a,22,2022-02-12_17h18.16.717,lexical_decision_task_DD_L6,2021.2.3,Win32,60.78657832,,,,,,,,,,,1.7495,1,,,,,,,,,,,,,,z,1,1.7495,,,,,,,,0.412037076,0.186111102,0,0,0,,0,166,166,92,1,PAIMS,LB,z,z,./images/PAIMSLB.png,,,,,,,,,,,,,,,,,,,,,,,,,,,,,,,,,,,
,,,,,,,,,,,,,,,,,60a5a2e1f7b39a743bfcd43a,22,2022-02-12_17h18.16.717,lexical_decision_task_DD_L6,2021.2.3,Win32,60.78657832,,,,,,,,,,,0.7525,1,,,,,,,,,,,,,,m,1,0.7525,,,,,,,,0.412037076,0.186111102,0,0,0,,0,167,167,27,1,BUTTER,LB,m,m,./images/BUTTERLB.png,,,,,,,,,,,,,,,,,,,,,,,,,,,,,,,,,,,
,,,,,,,,,,,,,,,,,60a5a2e1f7b39a743bfcd43a,22,2022-02-12_17h18.16.717,lexical_decision_task_DD_L6,2021.2.3,Win32,60.78657832,,,,,,,,,,,,,,,,,,,,,,,,,,,,,,,,,,,,,,,,,,,,,,,,How likely will it be that you will recognize the words presented very blurred on a scale of 0 (not likely) to 100 (most likely)?,,,,,-0.009259177,-0.411111138,1,0,0,jol_adv,4,5.3951,0,0,0,2,1,,,,,,,,,,,,,,,,,,,,,
,,,,,,,,,,,,,,,,,60a5a2e1f7b39a743bfcd43a,22,2022-02-12_17h18.16.717,lexical_decision_task_DD_L6,2021.2.3,Win32,60.78657832,,,,,,,,,,,,,,,,,,,,,,,,,,,,,,,,,,,,,,,,,,,,,,,,How likely will it be that you will recognize the words presented slighly blurred on a scale of 0 (not likely) to 100 (most likely)?,,,,,,,,,,,5,7.121,0,1,1,1,1,,,,,,,,,,,,,,,,,,,,,
,,,,,,,,,,,,,,,,,60a5a2e1f7b39a743bfcd43a,22,2022-02-12_17h18.16.717,lexical_decision_task_DD_L6,2021.2.3,Win32,60.78657832,,,,,,,,,,,,,,,,,,,,,,,,,,,,,,,,,,,,,,,,,,,,,,,,How likely will it be that you will recognize the words presented clearly on a scale of 0 (not likely) to 100 (most likely)?,,,,,,,,,,,6,4.668,0,2,2,0,1,,,,,,,,,,,,,,,,,,,,,
,,-0.059259178,-0.401851935,1,0,0,,,,,,1,test,"In the next phase you will be presented with the words from the the first phase. Your job is to decide whether you remember seeing the word or not. If you remember seeing the word press ""old"" or type ""m"". If you do not remember seeing the word press ""new"" or type ""z"". Please press the space bar or click on continue to begin. ",,,60a5a2e1f7b39a743bfcd43a,22,2022-02-12_17h18.16.717,lexical_decision_task_DD_L6,2021.2.3,Win32,60.78657832,,,,,,,,,,,,,,,,,,,,,,,,,,,,,,,,,,,,,,,,,,,,,,,,,,,,,,,,,,,,,,,,,,instr_done_button,0,0,0,0,1,,,,,,,,,,,,,,,
space,12.4186,-0.118518496,-0.375000026,0,0,0,,,,,,1,test,"In the next phase you will be presented with the words from the the first phase. Your job is to decide whether you remember seeing the word or not. If you remember seeing the word press ""old"" or type ""m"". If you do not remember seeing the word press ""new"" or type ""z"". Please press the space bar or click on continue to begin. ",,,60a5a2e1f7b39a743bfcd43a,22,2022-02-12_17h18.16.717,lexical_decision_task_DD_L6,2021.2.3,Win32,60.78657832,,,,,,,,,,,,,,,,,,,,,,,,,,,,,,,,,,,,,,,,,,,,,,,,,,,,,,,,,,,,,,,,,,,1,0,1,0,1,,,,,,,,,,,,,,,
space,0.8125,-0.118518496,-0.375000026,0,0,0,,,,,,1,test,"In the next phase you will be presented with the words from the the first phase. Your job is to decide whether you remember seeing the word or not. If you remember seeing the word press ""old"" or type ""m"". If you do not remember seeing the word press ""new"" or type ""z"". Please press the space bar or click on continue to begin. ",,,60a5a2e1f7b39a743bfcd43a,22,2022-02-12_17h18.16.717,lexical_decision_task_DD_L6,2021.2.3,Win32,60.78657832,,,,,,,,,,,,,,,,,,,,,,,,,,,,,,,,,,,,,,,,,,,,,,,,,,,,,,,,,,,,,,,,,,,2,0,2,0,1,,,,,,,,,,,,,,,
,,0.096296326,-0.410185269,1,0,0,,,,,,1,test,"In the next phase you will be presented with the words from the the first phase. Your job is to decide whether you remember seeing the word or not. If you remember seeing the word press ""old"" or type ""m"". If you do not remember seeing the word press ""new"" or type ""z"". Please press the space bar or click on continue to begin. ",,,60a5a2e1f7b39a743bfcd43a,22,2022-02-12_17h18.16.717,lexical_decision_task_DD_L6,2021.2.3,Win32,60.78657832,,,,,,,,,,,,,,,,,,,,,,,,,,,,,,,,,,,,,,,,,,,,,,,,,,,,,,,,,,,,,,,,,,instr_done_button,3,0,3,0,1,,,,,,,,,,,,,,,
space,2.4866,0.073148177,-0.034259275,0,0,0,,,,,,1,test,"In the next phase you will be presented with the words from the the first phase. Your job is to decide whether you remember seeing the word or not. If you remember seeing the word press ""old"" or type ""m"". If you do not remember seeing the word press ""new"" or type ""z"". Please press the space bar or click on continue to begin. ",,,60a5a2e1f7b39a743bfcd43a,22,2022-02-12_17h18.16.717,lexical_decision_task_DD_L6,2021.2.3,Win32,60.78657832,,,,,,,,,,,,,,,,,,,,,,,,,,,,,,,,,,,,,,,,,,,,,,,,,,,,,,,,,,,,,,,,,,,4,0,4,0,1,,,,,,,,,,,,,,,
,,,,,,,,,,,,,,,,,60a5a2e1f7b39a743bfcd43a,22,2022-02-12_17h18.16.717,lexical_decision_task_DD_L6,2021.2.3,Win32,60.78657832,,,,,,,,,,,4.0953,1,,,,,,,,,,,,,,,,,,,,,,,,-0.205555535,-0.286111135,1,0,0,,,,,,,INFANT,C,z,y,./images/INFANT.png,,,,,,,,,,,,,,,,,,,,,,0,-0.205555535,-0.286111135,1,0,0,4.0953,button_left_test,0,0,0,160,1,
,,,,,,,,,,,,,,,,,60a5a2e1f7b39a743bfcd43a,22,2022-02-12_17h18.16.717,lexical_decision_task_DD_L6,2021.2.3,Win32,60.78657832,,,,,,,,,,,1.1471,1,,,,,,,,,,,,,,,,,,,,,,,,-0.261111092,-0.288888912,1,0,0,,,,,,,JAGUAR,LB,z,y,./images/JAGUARLB.png,,,,,,,,,,,,,,,,,,,,,,0,-0.261111092,-0.288888912,1,0,0,1.1471,button_left_test,0,1,1,102,1,
,,,,,,,,,,,,,,,,,60a5a2e1f7b39a743bfcd43a,22,2022-02-12_17h18.16.717,lexical_decision_task_DD_L6,2021.2.3,Win32,60.78657832,,,,,,,,,,,0.7815,1,,,,,,,,,,,,,,,,,,,,,,,,-0.261111092,-0.288888912,1,0,0,,,,,,,SPORT,LB,z,y,./images/SPORTLB.png,,,,,,,,,,,,,,,,,,,,,,0,-0.261111092,-0.288888912,1,0,0,0.7815,button_left_test,0,2,2,132,1,
,,,,,,,,,,,,,,,,,60a5a2e1f7b39a743bfcd43a,22,2022-02-12_17h18.16.717,lexical_decision_task_DD_L6,2021.2.3,Win32,60.78657832,,,,,,,,,,,0.9983,1,,,,,,,,,,,,,,,,,,,,,,,,0.410185224,-0.30462971,1,0,0,,,,,,,LLAMA,HB,m,y,./images/LLAMAHB.png,,,,,,,,,,,,,,,,,,,,,,0,0.410185224,-0.30462971,1,0,0,0.9983,button_right_test,0,3,3,35,1,
,,,,,,,,,,,,,,,,,60a5a2e1f7b39a743bfcd43a,22,2022-02-12_17h18.16.717,lexical_decision_task_DD_L6,2021.2.3,Win32,60.78657832,,,,,,,,,,,0.998,1,,,,,,,,,,,,,,,,,,,,,,,,0.300925961,-0.245370393,1,0,0,,,,,,,CLOUD,HB,m,y,./images/CLOUDHB.png,,,,,,,,,,,,,,,,,,,,,,0,0.300925961,-0.245370393,1,0,0,0.998,button_right_test,0,4,4,26,1,
,,,,,,,,,,,,,,,,,60a5a2e1f7b39a743bfcd43a,22,2022-02-12_17h18.16.717,lexical_decision_task_DD_L6,2021.2.3,Win32,60.78657832,,,,,,,,,,,1.0141,1,,,,,,,,,,,,,,,,,,,,,,,,-0.258333315,-0.24814817,1,0,0,,,,,,,MOSQUE,C,z,y,./images/MOSQUE.png,,,,,,,,,,,,,,,,,,,,,,0,-0.258333315,-0.24814817,1,0,0,1.0141,button_left_test,0,5,5,127,1,
,,,,,,,,,,,,,,,,,60a5a2e1f7b39a743bfcd43a,22,2022-02-12_17h18.16.717,lexical_decision_task_DD_L6,2021.2.3,Win32,60.78657832,,,,,,,,,,,0.8145,1,,,,,,,,,,,,,,,,,,,,,,,,0.28055559,-0.254629709,1,0,0,,,,,,,BUTTER,LB,m,y,./images/BUTTERLB.png,,,,,,,,,,,,,,,,,,,,,,0,0.28055559,-0.254629709,1,0,0,0.8145,button_right_test,0,6,6,27,1,
,,,,,,,,,,,,,,,,,60a5a2e1f7b39a743bfcd43a,22,2022-02-12_17h18.16.717,lexical_decision_task_DD_L6,2021.2.3,Win32,60.78657832,,,,,,,,,,,1.1816,0,,,,,,,,,,,,,,,,,,,,,,,,0.377777816,-0.256481504,1,0,0,,,,,,,DOUGH,C,z,y,./images/DOUGH.png,,,,,,,,,,,,,,,,,,,,,,0,0.377777816,-0.256481504,1,0,0,1.1816,button_right_test,0,7,7,103,1,
,,,,,,,,,,,,,,,,,60a5a2e1f7b39a743bfcd43a,22,2022-02-12_17h18.16.717,lexical_decision_task_DD_L6,2021.2.3,Win32,60.78657832,,,,,,,,,,,2.114,0,,,,,,,,,,,,,,,,,,,,,,,,0.259259293,-0.255555578,1,0,0,,,,,,,BABOON,C,z,y,./images/BABOON.png,,,,,,,,,,,,,,,,,,,,,,0,0.259259293,-0.255555578,1,0,0,2.114,button_right_test,0,8,8,142,1,
,,,,,,,,,,,,,,,,,60a5a2e1f7b39a743bfcd43a,22,2022-02-12_17h18.16.717,lexical_decision_task_DD_L6,2021.2.3,Win32,60.78657832,,,,,,,,,,,1.4976,1,,,,,,,,,,,,,,,,,,,,,,,,-0.27777776,-0.260185264,1,0,0,,,,,,,WEASEL,HB,z,y,./images/WEASELHB.png,,,,,,,,,,,,,,,,,,,,,,0,-0.27777776,-0.260185264,1,0,0,1.4976,button_left_test,0,9,9,164,1,
,,,,,,,,,,,,,,,,,60a5a2e1f7b39a743bfcd43a,22,2022-02-12_17h18.16.717,lexical_decision_task_DD_L6,2021.2.3,Win32,60.78657832,,,,,,,,,,,0.8148,1,,,,,,,,,,,,,,,,,,,,,,,,-0.335185169,-0.279629709,1,0,0,,,,,,,RHINO,LB,z,y,./images/RHINOLB.png,,,,,,,,,,,,,,,,,,,,,,0,-0.335185169,-0.279629709,1,0,0,0.8148,button_left_test,0,10,10,93,1,
,,,,,,,,,,,,,,,,,60a5a2e1f7b39a743bfcd43a,22,2022-02-12_17h18.16.717,lexical_decision_task_DD_L6,2021.2.3,Win32,60.78657832,,,,,,,,,,,1.1483,1,,,,,,,,,,,,,,,,,,,,,,,,-0.22962961,-0.231481503,1,0,0,,,,,,,BURIAL,HB,z,y,./images/BURIALHB.png,,,,,,,,,,,,,,,,,,,,,,0,-0.22962961,-0.231481503,1,0,0,1.1483,button_left_test,0,11,11,143,1,
,,,,,,,,,,,,,,,,,60a5a2e1f7b39a743bfcd43a,22,2022-02-12_17h18.16.717,lexical_decision_task_DD_L6,2021.2.3,Win32,60.78657832,,,,,,,,,,,1.7811,0,,,,,,,,,,,,,,,,,,,,,,,,0.281481516,-0.257407486,1,0,0,,,,,,,MOTOR,C,z,y,./images/MOTOR.png,,,,,,,,,,,,,,,,,,,,,,0,0.281481516,-0.257407486,1,0,0,1.7811,button_right_test,0,12,12,97,1,
,,,,,,,,,,,,,,,,,60a5a2e1f7b39a743bfcd43a,22,2022-02-12_17h18.16.717,lexical_decision_task_DD_L6,2021.2.3,Win32,60.78657832,,,,,,,,,,,1.1148,0,,,,,,,,,,,,,,,,,,,,,,,,0.222222255,-0.2527778,1,0,0,,,,,,,COUCH,HB,z,y,./images/COUCHHB.png,,,,,,,,,,,,,,,,,,,,,,0,0.222222255,-0.2527778,1,0,0,1.1148,button_right_test,0,13,13,161,1,
,,,,,,,,,,,,,,,,,60a5a2e1f7b39a743bfcd43a,22,2022-02-12_17h18.16.717,lexical_decision_task_DD_L6,2021.2.3,Win32,60.78657832,,,,,,,,,,,0.9644,1,,,,,,,,,,,,,,,,,,,,,,,,-0.203703683,-0.255555578,1,0,0,,,,,,,PICKLE,HB,z,y,./images/PICKLEHB.png,,,,,,,,,,,,,,,,,,,,,,0,-0.203703683,-0.255555578,1,0,0,0.9644,button_left_test,0,14,14,98,1,
,,,,,,,,,,,,,,,,,60a5a2e1f7b39a743bfcd43a,22,2022-02-12_17h18.16.717,lexical_decision_task_DD_L6,2021.2.3,Win32,60.78657832,,,,,,,,,,,0.981,1,,,,,,,,,,,,,,,,,,,,,,,,0.362037074,-0.244444467,1,0,0,,,,,,,CLOWN,C,m,y,./images/CLOWN.png,,,,,,,,,,,,,,,,,,,,,,0,0.362037074,-0.244444467,1,0,0,0.981,button_right_test,0,15,15,22,1,
,,,,,,,,,,,,,,,,,60a5a2e1f7b39a743bfcd43a,22,2022-02-12_17h18.16.717,lexical_decision_task_DD_L6,2021.2.3,Win32,60.78657832,,,,,,,,,,,1.4308,1,,,,,,,,,,,,,,,,,,,,,,,,0.309259295,-0.268518598,1,0,0,,,,,,,GLOVE,C,m,y,./images/GLOVE.png,,,,,,,,,,,,,,,,,,,,,,0,0.309259295,-0.268518598,1,0,0,1.4308,button_right_test,0,16,16,73,1,
,,,,,,,,,,,,,,,,,60a5a2e1f7b39a743bfcd43a,22,2022-02-12_17h18.16.717,lexical_decision_task_DD_L6,2021.2.3,Win32,60.78657832,,,,,,,,,,,1.065,1,,,,,,,,,,,,,,,,,,,,,,,,0.373148186,-0.24814817,1,0,0,,,,,,,TIGER,C,m,y,./images/TIGER.png,,,,,,,,,,,,,,,,,,,,,,0,0.373148186,-0.24814817,1,0,0,1.065,button_right_test,0,17,17,37,1,
,,,,,,,,,,,,,,,,,60a5a2e1f7b39a743bfcd43a,22,2022-02-12_17h18.16.717,lexical_decision_task_DD_L6,2021.2.3,Win32,60.78657832,,,,,,,,,,,0.8806,1,,,,,,,,,,,,,,,,,,,,,,,,0.330555592,-0.250925948,1,0,0,,,,,,,CLIFF,HB,m,y,./images/CLIFFHB.png,,,,,,,,,,,,,,,,,,,,,,0,0.330555592,-0.250925948,1,0,0,0.8806,button_right_test,0,18,18,8,1,
,,,,,,,,,,,,,,,,,60a5a2e1f7b39a743bfcd43a,22,2022-02-12_17h18.16.717,lexical_decision_task_DD_L6,2021.2.3,Win32,60.78657832,,,,,,,,,,,0.7482,1,,,,,,,,,,,,,,,,,,,,,,,,0.264814849,-0.235185264,1,0,0,,,,,,,SHIELD,LB,m,y,./images/SHIELDLB.png,,,,,,,,,,,,,,,,,,,,,,0,0.264814849,-0.235185264,1,0,0,0.7482,button_right_test,0,19,19,48,1,
,,,,,,,,,,,,,,,,,60a5a2e1f7b39a743bfcd43a,22,2022-02-12_17h18.16.717,lexical_decision_task_DD_L6,2021.2.3,Win32,60.78657832,,,,,,,,,,,0.6814,1,,,,,,,,,,,,,,,,,,,,,,,,0.31944448,-0.240740819,1,0,0,,,,,,,ENGINE,HB,m,y,./images/ENGINEHB.png,,,,,,,,,,,,,,,,,,,,,,0,0.31944448,-0.240740819,1,0,0,0.6814,button_right_test,0,20,20,38,1,
,,,,,,,,,,,,,,,,,60a5a2e1f7b39a743bfcd43a,22,2022-02-12_17h18.16.717,lexical_decision_task_DD_L6,2021.2.3,Win32,60.78657832,,,,,,,,,,,1.1648,0,,,,,,,,,,,,,,,,,,,,,,,,0.230555589,-0.251851931,1,0,0,,,,,,,POODLE,LB,z,y,./images/POODLELB.png,,,,,,,,,,,,,,,,,,,,,,0,0.230555589,-0.251851931,1,0,0,1.1648,button_right_test,0,21,21,165,1,
,,,,,,,,,,,,,,,,,60a5a2e1f7b39a743bfcd43a,22,2022-02-12_17h18.16.717,lexical_decision_task_DD_L6,2021.2.3,Win32,60.78657832,,,,,,,,,,,0.9144,1,,,,,,,,,,,,,,,,,,,,,,,,0.308333369,-0.251851931,1,0,0,,,,,,,CRATER,LB,m,y,./images/CRATERLB.png,,,,,,,,,,,,,,,,,,,,,,0,0.308333369,-0.251851931,1,0,0,0.9144,button_right_test,0,22,22,3,1,
,,,,,,,,,,,,,,,,,60a5a2e1f7b39a743bfcd43a,22,2022-02-12_17h18.16.717,lexical_decision_task_DD_L6,2021.2.3,Win32,60.78657832,,,,,,,,,,,1.2981,0,,,,,,,,,,,,,,,,,,,,,,,,0.337037074,-0.277777801,1,0,0,,,,,,,STORM,LB,z,y,./images/STORMLB.png,,,,,,,,,,,,,,,,,,,,,,0,0.337037074,-0.277777801,1,0,0,1.2981,button_right_test,0,23,23,114,1,
,,,,,,,,,,,,,,,,,60a5a2e1f7b39a743bfcd43a,22,2022-02-12_17h18.16.717,lexical_decision_task_DD_L6,2021.2.3,Win32,60.78657832,,,,,,,,,,,1.0978,1,,,,,,,,,,,,,,,,,,,,,,,,-0.251851833,-0.269444467,1,0,0,,,,,,,BONNET,HB,z,y,./images/BONNETHB.png,,,,,,,,,,,,,,,,,,,,,,0,-0.251851833,-0.269444467,1,0,0,1.0978,button_left_test,0,24,24,95,1,
,,,,,,,,,,,,,,,,,60a5a2e1f7b39a743bfcd43a,22,2022-02-12_17h18.16.717,lexical_decision_task_DD_L6,2021.2.3,Win32,60.78657832,,,,,,,,,,,1.315,1,,,,,,,,,,,,,,,,,,,,,,,,0.257407442,-0.306481506,1,0,0,,,,,,,BISHOP,C,m,y,./images/BISHOP.png,,,,,,,,,,,,,,,,,,,,,,0,0.257407442,-0.306481506,1,0,0,1.315,button_right_test,0,25,25,49,1,
,,,,,,,,,,,,,,,,,60a5a2e1f7b39a743bfcd43a,22,2022-02-12_17h18.16.717,lexical_decision_task_DD_L6,2021.2.3,Win32,60.78657832,,,,,,,,,,,0.9145,1,,,,,,,,,,,,,,,,,,,,,,,,-0.256481463,-0.264814838,1,0,0,,,,,,,QUILL,C,z,y,./images/QUILL.png,,,,,,,,,,,,,,,,,,,,,,0,-0.256481463,-0.264814838,1,0,0,0.9145,button_left_test,0,26,26,115,1,
,,,,,,,,,,,,,,,,,60a5a2e1f7b39a743bfcd43a,22,2022-02-12_17h18.16.717,lexical_decision_task_DD_L6,2021.2.3,Win32,60.78657832,,,,,,,,,,,0.9479,1,,,,,,,,,,,,,,,,,,,,,,,,-0.256481463,-0.264814838,1,0,0,,,,,,,PEARL,C,z,y,./images/PEARL.png,,,,,,,,,,,,,,,,,,,,,,0,-0.256481463,-0.264814838,1,0,0,0.9479,button_left_test,0,27,27,130,1,
,,,,,,,,,,,,,,,,,60a5a2e1f7b39a743bfcd43a,22,2022-02-12_17h18.16.717,lexical_decision_task_DD_L6,2021.2.3,Win32,60.78657832,,,,,,,,,,,1.0311,1,,,,,,,,,,,,,,,,,,,,,,,,0.359259296,-0.273148171,1,0,0,,,,,,,RULER,C,m,y,./images/RULER.png,,,,,,,,,,,,,,,,,,,,,,0,0.359259296,-0.273148171,1,0,0,1.0311,button_right_test,0,28,28,79,1,
,,,,,,,,,,,,,,,,,60a5a2e1f7b39a743bfcd43a,22,2022-02-12_17h18.16.717,lexical_decision_task_DD_L6,2021.2.3,Win32,60.78657832,,,,,,,,,,,1.0312,0,,,,,,,,,,,,,,,,,,,,,,,,0.28981485,-0.254629709,1,0,0,,,,,,,CRADLE,HB,z,y,./images/CRADLEHB.png,,,,,,,,,,,,,,,,,,,,,,0,0.28981485,-0.254629709,1,0,0,1.0312,button_right_test,0,29,29,104,1,
,,,,,,,,,,,,,,,,,60a5a2e1f7b39a743bfcd43a,22,2022-02-12_17h18.16.717,lexical_decision_task_DD_L6,2021.2.3,Win32,60.78657832,,,,,,,,,,,0.9982,0,,,,,,,,,,,,,,,,,,,,,,,,0.326851888,-0.246296375,1,0,0,,,,,,,CANYON,C,z,y,./images/CANYON.png,,,,,,,,,,,,,,,,,,,,,,0,0.326851888,-0.246296375,1,0,0,0.9982,button_right_test,0,30,30,118,1,
,,,,,,,,,,,,,,,,,60a5a2e1f7b39a743bfcd43a,22,2022-02-12_17h18.16.717,lexical_decision_task_DD_L6,2021.2.3,Win32,60.78657832,,,,,,,,,,,0.9643,0,,,,,,,,,,,,,,,,,,,,,,,,0.370370408,-0.220370392,1,0,0,,,,,,,BIRTH,C,z,y,./images/BIRTH.png,,,,,,,,,,,,,,,,,,,,,,0,0.370370408,-0.220370392,1,0,0,0.9643,button_right_test,0,31,31,121,1,
,,,,,,,,,,,,,,,,,60a5a2e1f7b39a743bfcd43a,22,2022-02-12_17h18.16.717,lexical_decision_task_DD_L6,2021.2.3,Win32,60.78657832,,,,,,,,,,,0.8816,1,,,,,,,,,,,,,,,,,,,,,,,,0.243518552,-0.237963041,1,0,0,,,,,,,BRIDE,C,m,y,./images/BRIDE.png,,,,,,,,,,,,,,,,,,,,,,0,0.243518552,-0.237963041,1,0,0,0.8816,button_right_test,0,32,32,64,1,
,,,,,,,,,,,,,,,,,60a5a2e1f7b39a743bfcd43a,22,2022-02-12_17h18.16.717,lexical_decision_task_DD_L6,2021.2.3,Win32,60.78657832,,,,,,,,,,,0.7981,1,,,,,,,,,,,,,,,,,,,,,,,,0.331481518,-0.260185264,1,0,0,,,,,,,TOWEL,C,m,y,./images/TOWEL.png,,,,,,,,,,,,,,,,,,,,,,0,0.331481518,-0.260185264,1,0,0,0.7981,button_right_test,0,33,33,1,1,
,,,,,,,,,,,,,,,,,60a5a2e1f7b39a743bfcd43a,22,2022-02-12_17h18.16.717,lexical_decision_task_DD_L6,2021.2.3,Win32,60.78657832,,,,,,,,,,,1.3647,1,,,,,,,,,,,,,,,,,,,,,,,,-0.30277776,-0.232407486,1,0,0,,,,,,,GRAIN,LB,z,y,./images/GRAINLB.png,,,,,,,,,,,,,,,,,,,,,,0,-0.30277776,-0.232407486,1,0,0,1.3647,button_left_test,0,34,34,159,1,
,,,,,,,,,,,,,,,,,60a5a2e1f7b39a743bfcd43a,22,2022-02-12_17h18.16.717,lexical_decision_task_DD_L6,2021.2.3,Win32,60.78657832,,,,,,,,,,,1.3643,1,,,,,,,,,,,,,,,,,,,,,,,,0.282407442,-0.289814838,1,0,0,,,,,,,BRUSH,HB,m,y,./images/BRUSHHB.png,,,,,,,,,,,,,,,,,,,,,,0,0.282407442,-0.289814838,1,0,0,1.3643,button_right_test,0,35,35,59,1,
,,,,,,,,,,,,,,,,,60a5a2e1f7b39a743bfcd43a,22,2022-02-12_17h18.16.717,lexical_decision_task_DD_L6,2021.2.3,Win32,60.78657832,,,,,,,,,,,0.981,0,,,,,,,,,,,,,,,,,,,,,,,,-0.233333314,-0.2527778,1,0,0,,,,,,,GRAPE,C,m,y,./images/GRAPE.png,,,,,,,,,,,,,,,,,,,,,,0,-0.162036959,-0.244444467,1,0,0,0.981,button_left_test,0,36,36,16,1,
,,,,,,,,,,,,,,,,,60a5a2e1f7b39a743bfcd43a,22,2022-02-12_17h18.16.717,lexical_decision_task_DD_L6,2021.2.3,Win32,60.78657832,,,,,,,,,,,0.948,1,,,,,,,,,,,,,,,,,,,,,,,,0.41574078,-0.264814838,1,0,0,,,,,,,STOVE,HB,m,y,./images/STOVEHB.png,,,,,,,,,,,,,,,,,,,,,,0,0.41574078,-0.264814838,1,0,0,0.948,button_right_test,0,37,37,2,1,
,,,,,,,,,,,,,,,,,60a5a2e1f7b39a743bfcd43a,22,2022-02-12_17h18.16.717,lexical_decision_task_DD_L6,2021.2.3,Win32,60.78657832,,,,,,,,,,,1.5655,1,,,,,,,,,,,,,,,,,,,,,,,,-0.235185166,-0.267592615,1,0,0,,,,,,,SQUARE,LB,z,y,./images/SQUARELB.png,,,,,,,,,,,,,,,,,,,,,,0,-0.235185166,-0.267592615,1,0,0,1.5655,button_left_test,0,38,38,90,1,
,,,,,,,,,,,,,,,,,60a5a2e1f7b39a743bfcd43a,22,2022-02-12_17h18.16.717,lexical_decision_task_DD_L6,2021.2.3,Win32,60.78657832,,,,,,,,,,,0.9651,0,,,,,,,,,,,,,,,,,,,,,,,,0.312037073,-0.268518598,1,0,0,,,,,,,CANDLE,C,z,y,./images/CANDLE.png,,,,,,,,,,,,,,,,,,,,,,0,0.312037073,-0.268518598,1,0,0,0.9651,button_right_test,0,39,39,145,1,
,,,,,,,,,,,,,,,,,60a5a2e1f7b39a743bfcd43a,22,2022-02-12_17h18.16.717,lexical_decision_task_DD_L6,2021.2.3,Win32,60.78657832,,,,,,,,,,,0.7811,1,,,,,,,,,,,,,,,,,,,,,,,,0.355555593,-0.34444447,1,0,0,,,,,,,CHALK,C,m,y,./images/CHALK.png,,,,,,,,,,,,,,,,,,,,,,0,0.355555593,-0.34444447,1,0,0,0.7811,button_right_test,0,40,40,25,1,
,,,,,,,,,,,,,,,,,60a5a2e1f7b39a743bfcd43a,22,2022-02-12_17h18.16.717,lexical_decision_task_DD_L6,2021.2.3,Win32,60.78657832,,,,,,,,,,,0.8647,1,,,,,,,,,,,,,,,,,,,,,,,,-0.062036956,-0.377777804,1,0,0,,,,,,,DRUMS,C,z,y,./images/DRUMS.png,,,,,,,,,,,,,,,,,,,,,,0,-0.282407389,-0.258333356,1,0,0,0.8647,button_left_test,0,41,41,133,1,break_done_button
,,,,,,,,,,,,,,,,,60a5a2e1f7b39a743bfcd43a,22,2022-02-12_17h18.16.717,lexical_decision_task_DD_L6,2021.2.3,Win32,60.78657832,,,,,,,,,,,1.1148,0,,,,,,,,,,,,,,,,,,,,,,,,0.28055559,-0.235185264,1,0,0,,,,,,,PAINT,C,z,y,./images/PAINT.png,,,,,,,,,,,,,,,,,,,,,,0,0.28055559,-0.235185264,1,0,0,1.1148,button_right_test,0,42,42,91,1,
,,,,,,,,,,,,,,,,,60a5a2e1f7b39a743bfcd43a,22,2022-02-12_17h18.16.717,lexical_decision_task_DD_L6,2021.2.3,Win32,60.78657832,,,,,,,,,,,1.0312,1,,,,,,,,,,,,,,,,,,,,,,,,-0.26388887,-0.244444467,1,0,0,,,,,,,TWINS,LB,z,y,./images/TWINSLB.png,,,,,,,,,,,,,,,,,,,,,,0,-0.26388887,-0.244444467,1,0,0,1.0312,button_left_test,0,43,43,144,1,
,,,,,,,,,,,,,,,,,60a5a2e1f7b39a743bfcd43a,22,2022-02-12_17h18.16.717,lexical_decision_task_DD_L6,2021.2.3,Win32,60.78657832,,,,,,,,,,,0.7812,1,,,,,,,,,,,,,,,,,,,,,,,,0.390740779,-0.275000023,1,0,0,,,,,,,FLASK,LB,m,y,./images/FLASKLB.png,,,,,,,,,,,,,,,,,,,,,,0,0.390740779,-0.275000023,1,0,0,0.7812,button_right_test,0,44,44,72,1,
,,,,,,,,,,,,,,,,,60a5a2e1f7b39a743bfcd43a,22,2022-02-12_17h18.16.717,lexical_decision_task_DD_L6,2021.2.3,Win32,60.78657832,,,,,,,,,,,0.7648,1,,,,,,,,,,,,,,,,,,,,,,,,0.29444448,-0.242592615,1,0,0,,,,,,,SLOPE,LB,m,y,./images/SLOPELB.png,,,,,,,,,,,,,,,,,,,,,,0,0.29444448,-0.242592615,1,0,0,0.7648,button_right_test,0,45,45,30,1,
,,,,,,,,,,,,,,,,,60a5a2e1f7b39a743bfcd43a,22,2022-02-12_17h18.16.717,lexical_decision_task_DD_L6,2021.2.3,Win32,60.78657832,,,,,,,,,,,0.7648,1,,,,,,,,,,,,,,,,,,,,,,,,0.315740777,-0.239814837,1,0,0,,,,,,,HOCKEY,HB,m,y,./images/HOCKEYHB.png,,,,,,,,,,,,,,,,,,,,,,0,0.315740777,-0.239814837,1,0,0,0.7648,button_right_test,0,46,46,32,1,
,,,,,,,,,,,,,,,,,60a5a2e1f7b39a743bfcd43a,22,2022-02-12_17h18.16.717,lexical_decision_task_DD_L6,2021.2.3,Win32,60.78657832,,,,,,,,,,,0.9309,1,,,,,,,,,,,,,,,,,,,,,,,,-0.35092591,-0.270370393,1,0,0,,,,,,,MELON,C,z,y,./images/MELON.png,,,,,,,,,,,,,,,,,,,,,,0,-0.35092591,-0.270370393,1,0,0,0.9309,button_left_test,0,47,47,106,1,
,,,,,,,,,,,,,,,,,60a5a2e1f7b39a743bfcd43a,22,2022-02-12_17h18.16.717,lexical_decision_task_DD_L6,2021.2.3,Win32,60.78657832,,,,,,,,,,,1.2314,1,,,,,,,,,,,,,,,,,,,,,,,,-0.274999982,-0.230555577,1,0,0,,,,,,,KIDNEY,LB,z,y,./images/KIDNEYLB.png,,,,,,,,,,,,,,,,,,,,,,0,-0.274999982,-0.230555577,1,0,0,1.2314,button_left_test,0,48,48,105,1,
,,,,,,,,,,,,,,,,,60a5a2e1f7b39a743bfcd43a,22,2022-02-12_17h18.16.717,lexical_decision_task_DD_L6,2021.2.3,Win32,60.78657832,,,,,,,,,,,0.8971,0,,,,,,,,,,,,,,,,,,,,,,,,0.243518552,-0.262963042,1,0,0,,,,,,,MAGGOT,LB,z,y,./images/MAGGOTLB.png,,,,,,,,,,,,,,,,,,,,,,0,0.243518552,-0.262963042,1,0,0,0.8971,button_right_test,0,49,49,117,1,
,,,,,,,,,,,,,,,,,60a5a2e1f7b39a743bfcd43a,22,2022-02-12_17h18.16.717,lexical_decision_task_DD_L6,2021.2.3,Win32,60.78657832,,,,,,,,,,,1.3139,1,,,,,,,,,,,,,,,,,,,,,,,,-0.27777776,-0.26203706,1,0,0,,,,,,,ONION,LB,z,y,./images/ONIONLB.png,,,,,,,,,,,,,,,,,,,,,,0,-0.27777776,-0.26203706,1,0,0,1.3139,button_left_test,0,50,50,135,1,
,,,,,,,,,,,,,,,,,60a5a2e1f7b39a743bfcd43a,22,2022-02-12_17h18.16.717,lexical_decision_task_DD_L6,2021.2.3,Win32,60.78657832,,,,,,,,,,,0.8477,1,,,,,,,,,,,,,,,,,,,,,,,,0.397222261,-0.255555578,1,0,0,,,,,,,ALLEY,C,m,y,./images/ALLEY.png,,,,,,,,,,,,,,,,,,,,,,0,0.397222261,-0.255555578,1,0,0,0.8477,button_right_test,0,51,51,55,1,
,,,,,,,,,,,,,,,,,60a5a2e1f7b39a743bfcd43a,22,2022-02-12_17h18.16.717,lexical_decision_task_DD_L6,2021.2.3,Win32,60.78657832,,,,,,,,,,,1.6147,1,,,,,,,,,,,,,,,,,,,,,,,,-0.340740724,-0.295370394,1,0,0,,,,,,,LITTER,LB,z,y,./images/LITTERLB.png,,,,,,,,,,,,,,,,,,,,,,0,-0.340740724,-0.295370394,1,0,0,1.6147,button_left_test,0,52,52,162,1,
,,,,,,,,,,,,,,,,,60a5a2e1f7b39a743bfcd43a,22,2022-02-12_17h18.16.717,lexical_decision_task_DD_L6,2021.2.3,Win32,60.78657832,,,,,,,,,,,1.2806,0,,,,,,,,,,,,,,,,,,,,,,,,-0.235185166,-0.297222246,1,0,0,,,,,,,BUNNY,C,m,y,./images/BUNNY.png,,,,,,,,,,,,,,,,,,,,,,0,-0.235185166,-0.297222246,1,0,0,1.2806,button_left_test,0,53,53,13,1,
,,,,,,,,,,,,,,,,,60a5a2e1f7b39a743bfcd43a,22,2022-02-12_17h18.16.717,lexical_decision_task_DD_L6,2021.2.3,Win32,60.78657832,,,,,,,,,,,0.7987,1,,,,,,,,,,,,,,,,,,,,,,,,-0.221296276,-0.283333357,1,0,0,,,,,,,SUNSET,C,z,y,./images/SUNSET.png,,,,,,,,,,,,,,,,,,,,,,0,-0.221296276,-0.283333357,1,0,0,0.7987,button_left_test,0,54,54,166,1,
,,,,,,,,,,,,,,,,,60a5a2e1f7b39a743bfcd43a,22,2022-02-12_17h18.16.717,lexical_decision_task_DD_L6,2021.2.3,Win32,60.78657832,,,,,,,,,,,0.998,1,,,,,,,,,,,,,,,,,,,,,,,,-0.221296276,-0.283333357,1,0,0,,,,,,,SNACK,C,z,y,./images/SNACK.png,,,,,,,,,,,,,,,,,,,,,,0,-0.221296276,-0.283333357,1,0,0,0.998,button_left_test,0,55,55,157,1,
,,,,,,,,,,,,,,,,,60a5a2e1f7b39a743bfcd43a,22,2022-02-12_17h18.16.717,lexical_decision_task_DD_L6,2021.2.3,Win32,60.78657832,,,,,,,,,,,0.9814,1,,,,,,,,,,,,,,,,,,,,,,,,-0.221296276,-0.283333357,1,0,0,,,,,,,GREASE,LB,z,y,./images/GREASELB.png,,,,,,,,,,,,,,,,,,,,,,0,-0.221296276,-0.283333357,1,0,0,0.9814,button_left_test,0,56,56,99,1,
,,,,,,,,,,,,,,,,,60a5a2e1f7b39a743bfcd43a,22,2022-02-12_17h18.16.717,lexical_decision_task_DD_L6,2021.2.3,Win32,60.78657832,,,,,,,,,,,1.048,1,,,,,,,,,,,,,,,,,,,,,,,,0.293518554,-0.303703728,1,0,0,,,,,,,CANDY,LB,m,y,./images/CANDYLB.png,,,,,,,,,,,,,,,,,,,,,,0,0.293518554,-0.303703728,1,0,0,1.048,button_right_test,0,57,57,39,1,
,,,,,,,,,,,,,,,,,60a5a2e1f7b39a743bfcd43a,22,2022-02-12_17h18.16.717,lexical_decision_task_DD_L6,2021.2.3,Win32,60.78657832,,,,,,,,,,,0.9813,1,,,,,,,,,,,,,,,,,,,,,,,,-0.236111092,-0.263888912,1,0,0,,,,,,,TRIPOD,LB,z,y,./images/TRIPODLB.png,,,,,,,,,,,,,,,,,,,,,,0,-0.236111092,-0.263888912,1,0,0,0.9813,button_left_test,0,58,58,138,1,
,,,,,,,,,,,,,,,,,60a5a2e1f7b39a743bfcd43a,22,2022-02-12_17h18.16.717,lexical_decision_task_DD_L6,2021.2.3,Win32,60.78657832,,,,,,,,,,,0.8481,1,,,,,,,,,,,,,,,,,,,,,,,,0.420370409,-0.292592616,1,0,0,,,,,,,CANOE,C,m,y,./images/CANOE.png,,,,,,,,,,,,,,,,,,,,,,0,0.420370409,-0.292592616,1,0,0,0.8481,button_right_test,0,59,59,58,1,
,,,,,,,,,,,,,,,,,60a5a2e1f7b39a743bfcd43a,22,2022-02-12_17h18.16.717,lexical_decision_task_DD_L6,2021.2.3,Win32,60.78657832,,,,,,,,,,,1.7643,1,,,,,,,,,,,,,,,,,,,,,,,,-0.202777757,-0.229629708,1,0,0,,,,,,,MOOSE,LB,z,y,./images/MOOSELB.png,,,,,,,,,,,,,,,,,,,,,,0,-0.202777757,-0.229629708,1,0,0,1.7643,button_left_test,0,60,60,141,1,
,,,,,,,,,,,,,,,,,60a5a2e1f7b39a743bfcd43a,22,2022-02-12_17h18.16.717,lexical_decision_task_DD_L6,2021.2.3,Win32,60.78657832,,,,,,,,,,,1.6314,1,,,,,,,,,,,,,,,,,,,,,,,,-0.217592573,-0.237037059,1,0,0,,,,,,,SHORE,LB,z,y,./images/SHORELB.png,,,,,,,,,,,,,,,,,,,,,,0,-0.217592573,-0.237037059,1,0,0,1.6314,button_left_test,0,61,61,96,1,
,,,,,,,,,,,,,,,,,60a5a2e1f7b39a743bfcd43a,22,2022-02-12_17h18.16.717,lexical_decision_task_DD_L6,2021.2.3,Win32,60.78657832,,,,,,,,,,,0.8976,1,,,,,,,,,,,,,,,,,,,,,,,,-0.216666647,-0.235185264,1,0,0,,,,,,,ATTIC,LB,z,y,./images/ATTICLB.png,,,,,,,,,,,,,,,,,,,,,,0,-0.216666647,-0.235185264,1,0,0,0.8976,button_left_test,0,62,62,111,1,
,,,,,,,,,,,,,,,,,60a5a2e1f7b39a743bfcd43a,22,2022-02-12_17h18.16.717,lexical_decision_task_DD_L6,2021.2.3,Win32,60.78657832,,,,,,,,,,,0.6645,0,,,,,,,,,,,,,,,,,,,,,,,,-0.215740721,-0.234259281,1,0,0,,,,,,,GARDEN,C,m,y,./images/GARDEN.png,,,,,,,,,,,,,,,,,,,,,,0,-0.215740721,-0.234259281,1,0,0,0.6645,button_left_test,0,63,63,10,1,
,,,,,,,,,,,,,,,,,60a5a2e1f7b39a743bfcd43a,22,2022-02-12_17h18.16.717,lexical_decision_task_DD_L6,2021.2.3,Win32,60.78657832,,,,,,,,,,,0.8478,1,,,,,,,,,,,,,,,,,,,,,,,,0.371296334,-0.240740819,1,0,0,,,,,,,MAMMAL,HB,m,y,./images/MAMMALHB.png,,,,,,,,,,,,,,,,,,,,,,0,0.371296334,-0.240740819,1,0,0,0.8478,button_right_test,0,64,64,62,1,
,,,,,,,,,,,,,,,,,60a5a2e1f7b39a743bfcd43a,22,2022-02-12_17h18.16.717,lexical_decision_task_DD_L6,2021.2.3,Win32,60.78657832,,,,,,,,,,,1.2482,0,,,,,,,,,,,,,,,,,,,,,,,,-0.207407387,-0.247222244,1,0,0,,,,,,,SNAKE,C,m,y,./images/SNAKE.png,,,,,,,,,,,,,,,,,,,,,,0,-0.197222202,-0.247222244,1,0,0,1.2482,button_left_test,0,65,65,40,1,
,,,,,,,,,,,,,,,,,60a5a2e1f7b39a743bfcd43a,22,2022-02-12_17h18.16.717,lexical_decision_task_DD_L6,2021.2.3,Win32,60.78657832,,,,,,,,,,,0.8312,1,,,,,,,,,,,,,,,,,,,,,,,,-0.261111092,-0.20925928,1,0,0,,,,,,,URINE,C,z,y,./images/URINE.png,,,,,,,,,,,,,,,,,,,,,,0,-0.261111092,-0.20925928,1,0,0,0.8312,button_left_test,0,66,66,154,1,
,,,,,,,,,,,,,,,,,60a5a2e1f7b39a743bfcd43a,22,2022-02-12_17h18.16.717,lexical_decision_task_DD_L6,2021.2.3,Win32,60.78657832,,,,,,,,,,,0.9149,1,,,,,,,,,,,,,,,,,,,,,,,,0.363888926,-0.277777801,1,0,0,,,,,,,CURRY,LB,m,y,./images/CURRYLB.png,,,,,,,,,,,,,,,,,,,,,,0,0.363888926,-0.277777801,1,0,0,0.9149,button_right_test,0,67,67,60,1,
,,,,,,,,,,,,,,,,,60a5a2e1f7b39a743bfcd43a,22,2022-02-12_17h18.16.717,lexical_decision_task_DD_L6,2021.2.3,Win32,60.78657832,,,,,,,,,,,0.8814,1,,,,,,,,,,,,,,,,,,,,,,,,-0.266666648,-0.262963042,1,0,0,,,,,,,TOMATO,LB,z,y,./images/TOMATOLB.png,,,,,,,,,,,,,,,,,,,,,,0,-0.266666648,-0.262963042,1,0,0,0.8814,button_left_test,0,68,68,84,1,
,,,,,,,,,,,,,,,,,60a5a2e1f7b39a743bfcd43a,22,2022-02-12_17h18.16.717,lexical_decision_task_DD_L6,2021.2.3,Win32,60.78657832,,,,,,,,,,,0.7481,1,,,,,,,,,,,,,,,,,,,,,,,,0.31944448,-0.244444467,1,0,0,,,,,,,WHISKY,HB,m,y,./images/WHISKYHB.png,,,,,,,,,,,,,,,,,,,,,,0,0.31944448,-0.244444467,1,0,0,0.7481,button_right_test,0,69,69,83,1,
,,,,,,,,,,,,,,,,,60a5a2e1f7b39a743bfcd43a,22,2022-02-12_17h18.16.717,lexical_decision_task_DD_L6,2021.2.3,Win32,60.78657832,,,,,,,,,,,1.0147,1,,,,,,,,,,,,,,,,,,,,,,,,0.337037074,-0.237037059,1,0,0,,,,,,,STATUE,LB,m,y,./images/STATUELB.png,,,,,,,,,,,,,,,,,,,,,,0,0.337037074,-0.237037059,1,0,0,1.0147,button_right_test,0,70,70,66,1,
,,,,,,,,,,,,,,,,,60a5a2e1f7b39a743bfcd43a,22,2022-02-12_17h18.16.717,lexical_decision_task_DD_L6,2021.2.3,Win32,60.78657832,,,,,,,,,,,0.7816,1,,,,,,,,,,,,,,,,,,,,,,,,0.431481521,-0.243518597,1,0,0,,,,,,,POSTER,HB,m,y,./images/POSTERHB.png,,,,,,,,,,,,,,,,,,,,,,0,0.431481521,-0.243518597,1,0,0,0.7816,button_right_test,0,71,71,53,1,
,,,,,,,,,,,,,,,,,60a5a2e1f7b39a743bfcd43a,22,2022-02-12_17h18.16.717,lexical_decision_task_DD_L6,2021.2.3,Win32,60.78657832,,,,,,,,,,,0.8983,1,,,,,,,,,,,,,,,,,,,,,,,,-0.348148132,-0.275925949,1,0,0,,,,,,,PACKET,HB,z,y,./images/PACKETHB.png,,,,,,,,,,,,,,,,,,,,,,0,-0.348148132,-0.275925949,1,0,0,0.8983,button_left_test,0,72,72,140,1,
,,,,,,,,,,,,,,,,,60a5a2e1f7b39a743bfcd43a,22,2022-02-12_17h18.16.717,lexical_decision_task_DD_L6,2021.2.3,Win32,60.78657832,,,,,,,,,,,1.2975,0,,,,,,,,,,,,,,,,,,,,,,,,-0.207407387,-0.296296377,1,0,0,,,,,,,POKER,C,m,y,./images/POKER.png,,,,,,,,,,,,,,,,,,,,,,0,-0.169444423,-0.295370394,1,0,0,1.2975,button_left_test,0,73,73,67,1,
,,,,,,,,,,,,,,,,,60a5a2e1f7b39a743bfcd43a,22,2022-02-12_17h18.16.717,lexical_decision_task_DD_L6,2021.2.3,Win32,60.78657832,,,,,,,,,,,1.1148,1,,,,,,,,,,,,,,,,,,,,,,,,-0.205555535,-0.294444468,1,0,0,,,,,,,JUNGLE,HB,z,y,./images/JUNGLEHB.png,,,,,,,,,,,,,,,,,,,,,,0,-0.205555535,-0.294444468,1,0,0,1.1148,button_left_test,0,74,74,167,1,
,,,,,,,,,,,,,,,,,60a5a2e1f7b39a743bfcd43a,22,2022-02-12_17h18.16.717,lexical_decision_task_DD_L6,2021.2.3,Win32,60.78657832,,,,,,,,,,,0.9983,1,,,,,,,,,,,,,,,,,,,,,,,,-0.205555535,-0.293518599,1,0,0,,,,,,,BERRY,HB,z,y,./images/BERRYHB.png,,,,,,,,,,,,,,,,,,,,,,0,-0.205555535,-0.293518599,1,0,0,0.9983,button_left_test,0,75,75,131,1,
,,,,,,,,,,,,,,,,,60a5a2e1f7b39a743bfcd43a,22,2022-02-12_17h18.16.717,lexical_decision_task_DD_L6,2021.2.3,Win32,60.78657832,,,,,,,,,,,0.9151,1,,,,,,,,,,,,,,,,,,,,,,,,-0.208333313,-0.292592616,1,0,0,,,,,,,PASTA,HB,z,y,./images/PASTAHB.png,,,,,,,,,,,,,,,,,,,,,,0,-0.208333313,-0.292592616,1,0,0,0.9151,button_left_test,0,76,76,89,1,
,,,,,,,,,,,,,,,,,60a5a2e1f7b39a743bfcd43a,22,2022-02-12_17h18.16.717,lexical_decision_task_DD_L6,2021.2.3,Win32,60.78657832,,,,,,,,,,,0.8145,1,,,,,,,,,,,,,,,,,,,,,,,,-0.209259239,-0.292592616,1,0,0,,,,,,,PIMPLE,HB,z,y,./images/PIMPLEHB.png,,,,,,,,,,,,,,,,,,,,,,0,-0.209259239,-0.292592616,1,0,0,0.8145,button_left_test,0,77,77,155,1,
,,,,,,,,,,,,,,,,,60a5a2e1f7b39a743bfcd43a,22,2022-02-12_17h18.16.717,lexical_decision_task_DD_L6,2021.2.3,Win32,60.78657832,,,,,,,,,,,0.7647,0,,,,,,,,,,,,,,,,,,,,,,,,-0.209259239,-0.292592616,1,0,0,,,,,,,CHERRY,LB,m,y,./images/CHERRYLB.png,,,,,,,,,,,,,,,,,,,,,,0,-0.209259239,-0.292592616,1,0,0,0.7647,button_left_test,0,78,78,54,1,
,,,,,,,,,,,,,,,,,60a5a2e1f7b39a743bfcd43a,22,2022-02-12_17h18.16.717,lexical_decision_task_DD_L6,2021.2.3,Win32,60.78657832,,,,,,,,,,,1.281,1,,,,,,,,,,,,,,,,,,,,,,,,0.208333366,-0.321296377,1,0,0,,,,,,,DANCER,LB,m,y,./images/DANCERLB.png,,,,,,,,,,,,,,,,,,,,,,0,0.208333366,-0.321296377,1,0,0,1.281,button_right_test,0,79,79,21,1,
,,,,,,,,,,,,,,,,,60a5a2e1f7b39a743bfcd43a,22,2022-02-12_17h18.16.717,lexical_decision_task_DD_L6,2021.2.3,Win32,60.78657832,,,,,,,,,,,1.2316,1,,,,,,,,,,,,,,,,,,,,,,,,0.32407411,-0.29166669,1,0,0,,,,,,,STREAM,HB,m,y,./images/STREAMHB.png,,,,,,,,,,,,,,,,,,,,,,0,0.32407411,-0.29166669,1,0,0,1.2316,button_right_test,0,80,80,41,1,
,,,,,,,,,,,,,,,,,60a5a2e1f7b39a743bfcd43a,22,2022-02-12_17h18.16.717,lexical_decision_task_DD_L6,2021.2.3,Win32,60.78657832,,,,,,,,,,,1.0989,1,,,,,,,,,,,,,,,,,,,,,,,,-0.225925906,-0.352777803,1,0,0,,,,,,,COOKER,LB,z,y,./images/COOKERLB.png,,,,,,,,,,,,,,,,,,,,,,0,-0.225925906,-0.352777803,1,0,0,1.0989,button_left_test,0,81,81,153,1,
,,,,,,,,,,,,,,,,,60a5a2e1f7b39a743bfcd43a,22,2022-02-12_17h18.16.717,lexical_decision_task_DD_L6,2021.2.3,Win32,60.78657832,,,,,,,,,,,0.9645,1,,,,,,,,,,,,,,,,,,,,,,,,0.218518552,-0.28703706,1,0,0,,,,,,,BROOM,LB,m,y,./images/BROOMLB.png,,,,,,,,,,,,,,,,,,,,,,0,0.218518552,-0.28703706,1,0,0,0.9645,button_right_test,0,82,82,78,1,
,,,,,,,,,,,,,,,,,60a5a2e1f7b39a743bfcd43a,22,2022-02-12_17h18.16.717,lexical_decision_task_DD_L6,2021.2.3,Win32,60.78657832,,,,,,,,,,,0.9148,1,,,,,,,,,,,,,,,,,,,,,,,,-0.107407384,-0.361111137,1,0,0,,,,,,,SKIING,HB,z,y,./images/SKIINGHB.png,,,,,,,,,,,,,,,,,,,,,,0,-0.200925905,-0.262963042,1,0,0,0.9148,button_left_test,0,83,83,101,1,break_done_button
,,,,,,,,,,,,,,,,,60a5a2e1f7b39a743bfcd43a,22,2022-02-12_17h18.16.717,lexical_decision_task_DD_L6,2021.2.3,Win32,60.78657832,,,,,,,,,,,1.3534,1,,,,,,,,,,,,,,,,,,,,,,,,-0.223148128,-0.237963041,1,0,0,,,,,,,MUFFIN,C,z,y,./images/MUFFIN.png,,,,,,,,,,,,,,,,,,,,,,0,-0.223148128,-0.237963041,1,0,0,1.3534,button_left_test,0,84,84,139,1,
,,,,,,,,,,,,,,,,,60a5a2e1f7b39a743bfcd43a,22,2022-02-12_17h18.16.717,lexical_decision_task_DD_L6,2021.2.3,Win32,60.78657832,,,,,,,,,,,1.248,0,,,,,,,,,,,,,,,,,,,,,,,,0.40185189,-0.238888911,1,0,0,,,,,,,PLANK,C,z,y,./images/PLANK.png,,,,,,,,,,,,,,,,,,,,,,0,0.40185189,-0.238888911,1,0,0,1.248,button_right_test,0,85,85,85,1,
,,,,,,,,,,,,,,,,,60a5a2e1f7b39a743bfcd43a,22,2022-02-12_17h18.16.717,lexical_decision_task_DD_L6,2021.2.3,Win32,60.78657832,,,,,,,,,,,1.3012,1,,,,,,,,,,,,,,,,,,,,,,,,0.383333371,-0.258333356,1,0,0,,,,,,,BLOKE,LB,m,y,./images/BLOKELB.png,,,,,,,,,,,,,,,,,,,,,,0,0.383333371,-0.258333356,1,0,0,1.3012,button_right_test,0,86,86,12,1,
,,,,,,,,,,,,,,,,,60a5a2e1f7b39a743bfcd43a,22,2022-02-12_17h18.16.717,lexical_decision_task_DD_L6,2021.2.3,Win32,60.78657832,,,,,,,,,,,1.1141,1,,,,,,,,,,,,,,,,,,,,,,,,-0.222222202,-0.255555578,1,0,0,,,,,,,SCREW,LB,z,y,./images/SCREWLB.png,,,,,,,,,,,,,,,,,,,,,,0,-0.222222202,-0.255555578,1,0,0,1.1141,button_left_test,0,87,87,108,1,
,,,,,,,,,,,,,,,,,60a5a2e1f7b39a743bfcd43a,22,2022-02-12_17h18.16.717,lexical_decision_task_DD_L6,2021.2.3,Win32,60.78657832,,,,,,,,,,,0.8814,1,,,,,,,,,,,,,,,,,,,,,,,,0.356481519,-0.261111134,1,0,0,,,,,,,BASKET,HB,m,y,./images/BASKETHB.png,,,,,,,,,,,,,,,,,,,,,,0,0.356481519,-0.261111134,1,0,0,0.8814,button_right_test,0,88,88,44,1,
,,,,,,,,,,,,,,,,,60a5a2e1f7b39a743bfcd43a,22,2022-02-12_17h18.16.717,lexical_decision_task_DD_L6,2021.2.3,Win32,60.78657832,,,,,,,,,,,0.9815,1,,,,,,,,,,,,,,,,,,,,,,,,-0.217592573,-0.275925949,1,0,0,,,,,,,SWEAT,LB,z,y,./images/SWEATLB.png,,,,,,,,,,,,,,,,,,,,,,0,-0.217592573,-0.275925949,1,0,0,0.9815,button_left_test,0,89,89,150,1,
,,,,,,,,,,,,,,,,,60a5a2e1f7b39a743bfcd43a,22,2022-02-12_17h18.16.717,lexical_decision_task_DD_L6,2021.2.3,Win32,60.78657832,,,,,,,,,,,2.9977,0,,,,,,,,,,,,,,,,,,,,,,,,-0.215740721,-0.26574082,1,0,0,,,,,,,STEAK,C,m,y,./images/STEAK.png,,,,,,,,,,,,,,,,,,,,,,0,-0.215740721,-0.26574082,1,0,0,2.9977,button_left_test,0,90,90,31,1,
,,,,,,,,,,,,,,,,,60a5a2e1f7b39a743bfcd43a,22,2022-02-12_17h18.16.717,lexical_decision_task_DD_L6,2021.2.3,Win32,60.78657832,,,,,,,,,,,1.2978,0,,,,,,,,,,,,,,,,,,,,,,,,0.472222263,-0.312037061,1,0,0,,,,,,,BARREL,HB,z,y,./images/BARRELHB.png,,,,,,,,,,,,,,,,,,,,,,0,0.472222263,-0.312037061,1,0,0,1.2978,button_right_test,0,91,91,116,1,
,,,,,,,,,,,,,,,,,60a5a2e1f7b39a743bfcd43a,22,2022-02-12_17h18.16.717,lexical_decision_task_DD_L6,2021.2.3,Win32,60.78657832,,,,,,,,,,,1.0145,1,,,,,,,,,,,,,,,,,,,,,,,,0.249074108,-0.253703726,1,0,0,,,,,,,MONKEY,LB,m,y,./images/MONKEYLB.png,,,,,,,,,,,,,,,,,,,,,,0,0.249074108,-0.253703726,1,0,0,1.0145,button_right_test,0,92,92,45,1,
,,,,,,,,,,,,,,,,,60a5a2e1f7b39a743bfcd43a,22,2022-02-12_17h18.16.717,lexical_decision_task_DD_L6,2021.2.3,Win32,60.78657832,,,,,,,,,,,1.1484,0,,,,,,,,,,,,,,,,,,,,,,,,-0.252777759,-0.306481506,1,0,0,,,,,,,BUBBLE,HB,m,y,./images/BUBBLEHB.png,,,,,,,,,,,,,,,,,,,,,,0,-0.252777759,-0.306481506,1,0,0,1.1484,button_left_test,0,93,93,71,1,
,,,,,,,,,,,,,,,,,60a5a2e1f7b39a743bfcd43a,22,2022-02-12_17h18.16.717,lexical_decision_task_DD_L6,2021.2.3,Win32,60.78657832,,,,,,,,,,,1.7315,1,,,,,,,,,,,,,,,,,,,,,,,,-0.228703684,-0.268518598,1,0,0,,,,,,,CRUST,C,z,y,./images/CRUST.png,,,,,,,,,,,,,,,,,,,,,,0,-0.228703684,-0.268518598,1,0,0,1.7315,button_left_test,0,94,94,163,1,
,,,,,,,,,,,,,,,,,60a5a2e1f7b39a743bfcd43a,22,2022-02-12_17h18.16.717,lexical_decision_task_DD_L6,2021.2.3,Win32,60.78657832,,,,,,,,,,,1.1822,1,,,,,,,,,,,,,,,,,,,,,,,,0.283333368,-0.281481505,1,0,0,,,,,,,DRILL,LB,m,y,./images/DRILLLB.png,,,,,,,,,,,,,,,,,,,,,,0,0.283333368,-0.281481505,1,0,0,1.1822,button_right_test,0,95,95,81,1,
,,,,,,,,,,,,,,,,,60a5a2e1f7b39a743bfcd43a,22,2022-02-12_17h18.16.717,lexical_decision_task_DD_L6,2021.2.3,Win32,60.78657832,,,,,,,,,,,1.2978,1,,,,,,,,,,,,,,,,,,,,,,,,0.25092596,-0.274074154,1,0,0,,,,,,,PEBBLE,C,m,y,./images/PEBBLE.png,,,,,,,,,,,,,,,,,,,,,,0,0.25092596,-0.274074154,1,0,0,1.2978,button_right_test,0,96,96,82,1,
,,,,,,,,,,,,,,,,,60a5a2e1f7b39a743bfcd43a,22,2022-02-12_17h18.16.717,lexical_decision_task_DD_L6,2021.2.3,Win32,60.78657832,,,,,,,,,,,1.2982,0,,,,,,,,,,,,,,,,,,,,,,,,-0.233333314,-0.236111133,1,0,0,,,,,,,VALLEY,HB,m,y,./images/VALLEYHB.png,,,,,,,,,,,,,,,,,,,,,,0,-0.233333314,-0.236111133,1,0,0,1.2982,button_left_test,0,97,97,68,1,
,,,,,,,,,,,,,,,,,60a5a2e1f7b39a743bfcd43a,22,2022-02-12_17h18.16.717,lexical_decision_task_DD_L6,2021.2.3,Win32,60.78657832,,,,,,,,,,,1.081,1,,,,,,,,,,,,,,,,,,,,,,,,-0.232407388,-0.236111133,1,0,0,,,,,,,LIZARD,HB,z,y,./images/LIZARDHB.png,,,,,,,,,,,,,,,,,,,,,,0,-0.232407388,-0.236111133,1,0,0,1.081,button_left_test,0,98,98,128,1,
,,,,,,,,,,,,,,,,,60a5a2e1f7b39a743bfcd43a,22,2022-02-12_17h18.16.717,lexical_decision_task_DD_L6,2021.2.3,Win32,60.78657832,,,,,,,,,,,0.898,1,,,,,,,,,,,,,,,,,,,,,,,,0.281481516,-0.274074154,1,0,0,,,,,,,DONKEY,C,m,y,./images/DONKEY.png,,,,,,,,,,,,,,,,,,,,,,0,0.281481516,-0.274074154,1,0,0,0.898,button_right_test,0,99,99,19,1,
,,,,,,,,,,,,,,,,,60a5a2e1f7b39a743bfcd43a,22,2022-02-12_17h18.16.717,lexical_decision_task_DD_L6,2021.2.3,Win32,60.78657832,,,,,,,,,,,1.1147,1,,,,,,,,,,,,,,,,,,,,,,,,-0.314814798,-0.254629709,1,0,0,,,,,,,MIRROR,LB,z,y,./images/MIRRORLB.png,,,,,,,,,,,,,,,,,,,,,,0,-0.314814798,-0.254629709,1,0,0,1.1147,button_left_test,0,100,100,147,1,
,,,,,,,,,,,,,,,,,60a5a2e1f7b39a743bfcd43a,22,2022-02-12_17h18.16.717,lexical_decision_task_DD_L6,2021.2.3,Win32,60.78657832,,,,,,,,,,,1.0815,1,,,,,,,,,,,,,,,,,,,,,,,,-0.311111094,-0.2527778,1,0,0,,,,,,,FINGER,LB,z,y,./images/FINGERLB.png,,,,,,,,,,,,,,,,,,,,,,0,-0.311111094,-0.2527778,1,0,0,1.0815,button_left_test,0,101,101,87,1,
,,,,,,,,,,,,,,,,,60a5a2e1f7b39a743bfcd43a,22,2022-02-12_17h18.16.717,lexical_decision_task_DD_L6,2021.2.3,Win32,60.78657832,,,,,,,,,,,0.9813,1,,,,,,,,,,,,,,,,,,,,,,,,0.476851893,-0.239814837,1,0,0,,,,,,,COLLAR,LB,m,y,./images/COLLARLB.png,,,,,,,,,,,,,,,,,,,,,,0,0.476851893,-0.239814837,1,0,0,0.9813,button_right_test,0,102,102,15,1,
,,,,,,,,,,,,,,,,,60a5a2e1f7b39a743bfcd43a,22,2022-02-12_17h18.16.717,lexical_decision_task_DD_L6,2021.2.3,Win32,60.78657832,,,,,,,,,,,0.8144,1,,,,,,,,,,,,,,,,,,,,,,,,-0.339814798,-0.243518597,1,0,0,,,,,,,PEACH,HB,z,y,./images/PEACHHB.png,,,,,,,,,,,,,,,,,,,,,,0,-0.339814798,-0.243518597,1,0,0,0.8144,button_left_test,0,103,103,119,1,
,,,,,,,,,,,,,,,,,60a5a2e1f7b39a743bfcd43a,22,2022-02-12_17h18.16.717,lexical_decision_task_DD_L6,2021.2.3,Win32,60.78657832,,,,,,,,,,,0.9144,1,,,,,,,,,,,,,,,,,,,,,,,,-0.338888872,-0.242592615,1,0,0,,,,,,,PENCE,C,z,y,./images/PENCE.png,,,,,,,,,,,,,,,,,,,,,,0,-0.338888872,-0.242592615,1,0,0,0.9144,button_left_test,0,104,104,100,1,
,,,,,,,,,,,,,,,,,60a5a2e1f7b39a743bfcd43a,22,2022-02-12_17h18.16.717,lexical_decision_task_DD_L6,2021.2.3,Win32,60.78657832,,,,,,,,,,,0.9311,1,,,,,,,,,,,,,,,,,,,,,,,,0.442592632,-0.260185264,1,0,0,,,,,,,PARCEL,LB,m,y,./images/PARCELLB.png,,,,,,,,,,,,,,,,,,,,,,0,0.442592632,-0.260185264,1,0,0,0.9311,button_right_test,0,105,105,18,1,
,,,,,,,,,,,,,,,,,60a5a2e1f7b39a743bfcd43a,22,2022-02-12_17h18.16.717,lexical_decision_task_DD_L6,2021.2.3,Win32,60.78657832,,,,,,,,,,,1.1147,0,,,,,,,,,,,,,,,,,,,,,,,,-0.284259241,-0.253703726,1,0,0,,,,,,,ARTIST,C,m,y,./images/ARTIST.png,,,,,,,,,,,,,,,,,,,,,,0,-0.284259241,-0.253703726,1,0,0,1.1147,button_left_test,0,106,106,61,1,
,,,,,,,,,,,,,,,,,60a5a2e1f7b39a743bfcd43a,22,2022-02-12_17h18.16.717,lexical_decision_task_DD_L6,2021.2.3,Win32,60.78657832,,,,,,,,,,,0.9313,0,,,,,,,,,,,,,,,,,,,,,,,,-0.22499998,-0.219444466,1,0,0,,,,,,,BOXER,C,m,y,./images/BOXER.png,,,,,,,,,,,,,,,,,,,,,,0,-0.199999979,-0.203703725,1,0,0,0.9313,button_left_test,0,107,107,4,1,
,,,,,,,,,,,,,,,,,60a5a2e1f7b39a743bfcd43a,22,2022-02-12_17h18.16.717,lexical_decision_task_DD_L6,2021.2.3,Win32,60.78657832,,,,,,,,,,,0.9811,1,,,,,,,,,,,,,,,,,,,,,,,,0.410185224,-0.262963042,1,0,0,,,,,,,FENCE,HB,m,y,./images/FENCEHB.png,,,,,,,,,,,,,,,,,,,,,,0,0.410185224,-0.262963042,1,0,0,0.9811,button_right_test,0,108,108,14,1,
,,,,,,,,,,,,,,,,,60a5a2e1f7b39a743bfcd43a,22,2022-02-12_17h18.16.717,lexical_decision_task_DD_L6,2021.2.3,Win32,60.78657832,,,,,,,,,,,0.8315,0,,,,,,,,,,,,,,,,,,,,,,,,-0.405555541,-0.272222245,1,0,0,,,,,,,PARADE,HB,m,y,./images/PARADEHB.png,,,,,,,,,,,,,,,,,,,,,,0,-0.405555541,-0.272222245,1,0,0,0.8315,button_left_test,0,109,109,17,1,
,,,,,,,,,,,,,,,,,60a5a2e1f7b39a743bfcd43a,22,2022-02-12_17h18.16.717,lexical_decision_task_DD_L6,2021.2.3,Win32,60.78657832,,,,,,,,,,,1.3151,0,,,,,,,,,,,,,,,,,,,,,,,,-0.332407391,-0.313888913,1,0,0,,,,,,,GRANNY,HB,m,y,./images/GRANNYHB.png,,,,,,,,,,,,,,,,,,,,,,0,-0.332407391,-0.313888913,1,0,0,1.3151,button_left_test,0,110,110,20,1,
,,,,,,,,,,,,,,,,,60a5a2e1f7b39a743bfcd43a,22,2022-02-12_17h18.16.717,lexical_decision_task_DD_L6,2021.2.3,Win32,60.78657832,,,,,,,,,,,1.432,1,,,,,,,,,,,,,,,,,,,,,,,,-0.256481463,-0.272222245,1,0,0,,,,,,,MUSCLE,C,z,y,./images/MUSCLE.png,,,,,,,,,,,,,,,,,,,,,,0,-0.256481463,-0.272222245,1,0,0,1.432,button_left_test,0,111,111,88,1,
,,,,,,,,,,,,,,,,,60a5a2e1f7b39a743bfcd43a,22,2022-02-12_17h18.16.717,lexical_decision_task_DD_L6,2021.2.3,Win32,60.78657832,,,,,,,,,,,0.6817,0,,,,,,,,,,,,,,,,,,,,,,,,-0.214814795,-0.20925928,1,0,0,,,,,,,DIVER,LB,m,y,./images/DIVERLB.png,,,,,,,,,,,,,,,,,,,,,,0,-0.214814795,-0.20925928,1,0,0,0.6817,button_left_test,0,112,112,9,1,
,,,,,,,,,,,,,,,,,60a5a2e1f7b39a743bfcd43a,22,2022-02-12_17h18.16.717,lexical_decision_task_DD_L6,2021.2.3,Win32,60.78657832,,,,,,,,,,,0.7313,1,,,,,,,,,,,,,,,,,,,,,,,,-0.214814795,-0.208333354,1,0,0,,,,,,,WALRUS,HB,z,y,./images/WALRUSHB.png,,,,,,,,,,,,,,,,,,,,,,0,-0.214814795,-0.208333354,1,0,0,0.7313,button_left_test,0,113,113,107,1,
,,,,,,,,,,,,,,,,,60a5a2e1f7b39a743bfcd43a,22,2022-02-12_17h18.16.717,lexical_decision_task_DD_L6,2021.2.3,Win32,60.78657832,,,,,,,,,,,0.7983,0,,,,,,,,,,,,,,,,,,,,,,,,-0.214814795,-0.208333354,1,0,0,,,,,,,WAGON,C,m,y,./images/WAGON.png,,,,,,,,,,,,,,,,,,,,,,0,-0.214814795,-0.208333354,1,0,0,0.7983,button_left_test,0,114,114,7,1,
,,,,,,,,,,,,,,,,,60a5a2e1f7b39a743bfcd43a,22,2022-02-12_17h18.16.717,lexical_decision_task_DD_L6,2021.2.3,Win32,60.78657832,,,,,,,,,,,1.4145,0,,,,,,,,,,,,,,,,,,,,,,,,0.487963004,-0.279629709,1,0,0,,,,,,,MALLET,HB,z,y,./images/MALLETHB.png,,,,,,,,,,,,,,,,,,,,,,0,0.487963004,-0.279629709,1,0,0,1.4145,button_right_test,0,115,115,134,1,
,,,,,,,,,,,,,,,,,60a5a2e1f7b39a743bfcd43a,22,2022-02-12_17h18.16.717,lexical_decision_task_DD_L6,2021.2.3,Win32,60.78657832,,,,,,,,,,,1.1642,0,,,,,,,,,,,,,,,,,,,,,,,,-0.249074055,-0.258333356,1,0,0,,,,,,,BOILER,LB,m,y,./images/BOILERLB.png,,,,,,,,,,,,,,,,,,,,,,0,-0.249074055,-0.258333356,1,0,0,1.1642,button_left_test,0,116,116,36,1,
