key_resp.keys,instr_done_touch.x,instr_done_touch.y,instr_done_touch.leftButton,instr_done_touch.midButton,instr_done_touch.rightButton,instr_done_touch.clicked_name,instruction_pages.thisRepN,instruction_pages.thisTrialN,instruction_pages.thisN,instruction_pages.thisIndex,instruction_pages.ran,pageN,phase,instruct_text,has_image,instruct_image,participant,age,date,expName,psychopyVersion,OS,frameRate,key_resp.rt,response.keys,response.corr,response.rt,touch_resp.x,touch_resp.y,touch_resp.leftButton,touch_resp.midButton,touch_resp.rightButton,touch_resp.time,touch_resp.clicked_name,rt,corr,practrials.thisRepN,practrials.thisTrialN,practrials.thisN,practrials.thisIndex,practrials.ran,TrialID,Target,corrAns,end_of_practice_trials_pages.thisRepN,end_of_practice_trials_pages.thisTrialN,end_of_practice_trials_pages.thisN,end_of_practice_trials_pages.thisIndex,end_of_practice_trials_pages.ran,key_resp_2.keys,key_resp_2.corr,key_resp_2.rt,targ_click.x,targ_click.y,targ_click.leftButton,targ_click.midButton,targ_click.rightButton,targ_click.time,targ_click.clicked_name,break_done_touch.x,break_done_touch.y,break_done_touch.leftButton,break_done_touch.midButton,break_done_touch.rightButton,break_done_keyboard.keys,maintrials.thisRepN,maintrials.thisTrialN,maintrials.thisN,maintrials.thisIndex,maintrials.ran,string,blur,study,lex,stim_path,break_done_keyboard.rt,mouse_2.x,mouse_2.y,mouse_2.leftButton,mouse_2.midButton,mouse_2.rightButton,mouse_2.clicked_name,slider.response,slider.rt,trials.thisRepN,trials.thisTrialN,trials.thisN,trials.thisIndex,trials.ran,test_instructions.thisRepN,test_instructions.thisTrialN,test_instructions.thisN,test_instructions.thisIndex,test_instructions.ran,key_resp_3.keys,key_resp_3.corr,key_resp_3.rt,test_click.x,test_click.y,test_click.leftButton,test_click.midButton,test_click.rightButton,test_click.time,test_click.clicked_name,test_phase.thisRepN,test_phase.thisTrialN,test_phase.thisN,test_phase.thisIndex,test_phase.ran
,0.146627566,-0.399560117,1,0,0,instr_done_button,0,0,0,0,1,1,instructions,"INSTRUCTIONS
At the start of each trial, look at the plus sign  (+) in the center of the screen.  This tells you that a trial is about to begin and where to look. Second, the plus sign will disappear and a string of letters will appear. Your task is to determine if the string of letters is a word or not. If the item is a word press the M key (on keyboard)  or touch the word button (phone/tablet).  If the item is not a word,  press the  Z key (on keyboard)  or touch the nonword button (on phone/tablet). 
Press the space bar or touch  continue.",0,,60fc658f2458e31812a4e66d,18,2022-02-12_17h33.24.070,lexical_decision_task_DD_L6,2021.2.3,Win32,60.15761295,,,,,,,,,,,,,,,,,,,,,,,,,,,,,,,,,,,,,,,,,,,,,,,,,,,,,,,,,,,,,,,,,,,,,,,,,,,,,,,,,,,,,,
space,0.146627566,-0.399560117,0,0,0,,0,1,1,1,1,2,instructions,"If your device has a keyboard, press the 'Z' key for nonwords and the 'M' key for words.





Press the space bar or touch the button below to continue.",0,keyboard-example.gif,60fc658f2458e31812a4e66d,18,2022-02-12_17h33.24.070,lexical_decision_task_DD_L6,2021.2.3,Win32,60.15761295,4.6613,,,,,,,,,,,,,,,,,,,,,,,,,,,,,,,,,,,,,,,,,,,,,,,,,,,,,,,,,,,,,,,,,,,,,,,,,,,,,,,,,,,,,
space,0.218475073,-0.125366569,0,0,0,,0,2,2,2,1,3,instructions,"If you are using a touchscreen only device, use the buttons on the screen. Do not use the mouse.





Press the space bar or touch the button below to continue.",0,touchscreen-example.gif,60fc658f2458e31812a4e66d,18,2022-02-12_17h33.24.070,lexical_decision_task_DD_L6,2021.2.3,Win32,60.15761295,2.8934,,,,,,,,,,,,,,,,,,,,,,,,,,,,,,,,,,,,,,,,,,,,,,,,,,,,,,,,,,,,,,,,,,,,,,,,,,,,,,,,,,,,,
space,0.218475073,-0.125366569,0,0,0,,0,3,3,3,1,4,instructions,"It is very important that you respond as quickly and accurately as possible, as each letter string will only be on the screen for two seconds. If you do not respond within this time, the message 'Too slow!' will be displayed and the experiment will progress to the next letter string. The first 20 trials will be practice trials and you will receive feedback on your answers. 

Press the space bar or touch the button below to start the practice trials.",0,,60fc658f2458e31812a4e66d,18,2022-02-12_17h33.24.070,lexical_decision_task_DD_L6,2021.2.3,Win32,60.15761295,9.3032,,,,,,,,,,,,,,,,,,,,,,,,,,,,,,,,,,,,,,,,,,,,,,,,,,,,,,,,,,,,,,,,,,,,,,,,,,,,,,,,,,,,,
,,,,,,,,,,,,,,,,,60fc658f2458e31812a4e66d,18,2022-02-12_17h33.24.070,lexical_decision_task_DD_L6,2021.2.3,Win32,60.15761295,,m,1,0.5663,,,,,,,,0.5663,1,0,0,0,3,1,1001,MATRIX,m,,,,,,,,,,,,,,,,,,,,,,,,,,,,,,,,,,,,,,,,,,,,,,,,,,,,,,,,,,,,,,,,,
,,,,,,,,,,,,,,,,,60fc658f2458e31812a4e66d,18,2022-02-12_17h33.24.070,lexical_decision_task_DD_L6,2021.2.3,Win32,60.15761295,,m,1,0.3987,,,,,,,,0.3987,1,0,1,1,1,1,1001,ADJUST,m,,,,,,,,,,,,,,,,,,,,,,,,,,,,,,,,,,,,,,,,,,,,,,,,,,,,,,,,,,,,,,,,,
,,,,,,,,,,,,,,,,,60fc658f2458e31812a4e66d,18,2022-02-12_17h33.24.070,lexical_decision_task_DD_L6,2021.2.3,Win32,60.15761295,,m,1,0.4118,,,,,,,,0.4118,1,0,2,2,4,1,1001,SQUEAK,m,,,,,,,,,,,,,,,,,,,,,,,,,,,,,,,,,,,,,,,,,,,,,,,,,,,,,,,,,,,,,,,,,
,,,,,,,,,,,,,,,,,60fc658f2458e31812a4e66d,18,2022-02-12_17h33.24.070,lexical_decision_task_DD_L6,2021.2.3,Win32,60.15761295,,m,1,0.4667,,,,,,,,0.4667,1,0,3,3,5,1,1001,OBTAIN,m,,,,,,,,,,,,,,,,,,,,,,,,,,,,,,,,,,,,,,,,,,,,,,,,,,,,,,,,,,,,,,,,,
,,,,,,,,,,,,,,,,,60fc658f2458e31812a4e66d,18,2022-02-12_17h33.24.070,lexical_decision_task_DD_L6,2021.2.3,Win32,60.15761295,,m,1,0.3942,,,,,,,,0.3942,1,0,4,4,6,1,1001,ZOMBIE,m,,,,,,,,,,,,,,,,,,,,,,,,,,,,,,,,,,,,,,,,,,,,,,,,,,,,,,,,,,,,,,,,,
,,,,,,,,,,,,,,,,,60fc658f2458e31812a4e66d,18,2022-02-12_17h33.24.070,lexical_decision_task_DD_L6,2021.2.3,Win32,60.15761295,,z,1,0.6104,,,,,,,,0.6104,1,0,5,5,13,1,1001,ROUPET,z,,,,,,,,,,,,,,,,,,,,,,,,,,,,,,,,,,,,,,,,,,,,,,,,,,,,,,,,,,,,,,,,,
,,,,,,,,,,,,,,,,,60fc658f2458e31812a4e66d,18,2022-02-12_17h33.24.070,lexical_decision_task_DD_L6,2021.2.3,Win32,60.15761295,,z,1,0.7773,,,,,,,,0.7773,1,0,6,6,10,1,1001,INLADE,z,,,,,,,,,,,,,,,,,,,,,,,,,,,,,,,,,,,,,,,,,,,,,,,,,,,,,,,,,,,,,,,,,
,,,,,,,,,,,,,,,,,60fc658f2458e31812a4e66d,18,2022-02-12_17h33.24.070,lexical_decision_task_DD_L6,2021.2.3,Win32,60.15761295,,z,1,0.6456,,,,,,,,0.6456,1,0,7,7,15,1,1001,WHAISE,z,,,,,,,,,,,,,,,,,,,,,,,,,,,,,,,,,,,,,,,,,,,,,,,,,,,,,,,,,,,,,,,,,
,,,,,,,,,,,,,,,,,60fc658f2458e31812a4e66d,18,2022-02-12_17h33.24.070,lexical_decision_task_DD_L6,2021.2.3,Win32,60.15761295,,z,1,0.5499,,,,,,,,0.5499,1,0,8,8,9,1,1001,FARINY,z,,,,,,,,,,,,,,,,,,,,,,,,,,,,,,,,,,,,,,,,,,,,,,,,,,,,,,,,,,,,,,,,,
,,,,,,,,,,,,,,,,,60fc658f2458e31812a4e66d,18,2022-02-12_17h33.24.070,lexical_decision_task_DD_L6,2021.2.3,Win32,60.15761295,,z,1,0.5868,,,,,,,,0.5868,1,0,9,9,12,1,1001,SPRINY,z,,,,,,,,,,,,,,,,,,,,,,,,,,,,,,,,,,,,,,,,,,,,,,,,,,,,,,,,,,,,,,,,,
,,,,,,,,,,,,,,,,,60fc658f2458e31812a4e66d,18,2022-02-12_17h33.24.070,lexical_decision_task_DD_L6,2021.2.3,Win32,60.15761295,,m,1,0.4518,,,,,,,,0.4518,1,0,10,10,7,1,1001,VOLUME,m,,,,,,,,,,,,,,,,,,,,,,,,,,,,,,,,,,,,,,,,,,,,,,,,,,,,,,,,,,,,,,,,,
,,,,,,,,,,,,,,,,,60fc658f2458e31812a4e66d,18,2022-02-12_17h33.24.070,lexical_decision_task_DD_L6,2021.2.3,Win32,60.15761295,,z,1,0.6162,,,,,,,,0.6162,1,0,11,11,14,1,1001,THRALE,z,,,,,,,,,,,,,,,,,,,,,,,,,,,,,,,,,,,,,,,,,,,,,,,,,,,,,,,,,,,,,,,,,
,,,,,,,,,,,,,,,,,60fc658f2458e31812a4e66d,18,2022-02-12_17h33.24.070,lexical_decision_task_DD_L6,2021.2.3,Win32,60.15761295,,m,1,0.6218,,,,,,,,0.6218,1,0,12,12,2,1,1001,ALMOND,m,,,,,,,,,,,,,,,,,,,,,,,,,,,,,,,,,,,,,,,,,,,,,,,,,,,,,,,,,,,,,,,,,
,,,,,,,,,,,,,,,,,60fc658f2458e31812a4e66d,18,2022-02-12_17h33.24.070,lexical_decision_task_DD_L6,2021.2.3,Win32,60.15761295,,z,1,1.1366,,,,,,,,1.1366,1,0,13,13,11,1,1001,RASHET,z,,,,,,,,,,,,,,,,,,,,,,,,,,,,,,,,,,,,,,,,,,,,,,,,,,,,,,,,,,,,,,,,,
,,,,,,,,,,,,,,,,,60fc658f2458e31812a4e66d,18,2022-02-12_17h33.24.070,lexical_decision_task_DD_L6,2021.2.3,Win32,60.15761295,,m,1,0.7861,,,,,,,,0.7861,1,0,14,14,0,1,1001,UTOPIA,m,,,,,,,,,,,,,,,,,,,,,,,,,,,,,,,,,,,,,,,,,,,,,,,,,,,,,,,,,,,,,,,,,
,,,,,,,,,,,,,,,,,60fc658f2458e31812a4e66d,18,2022-02-12_17h33.24.070,lexical_decision_task_DD_L6,2021.2.3,Win32,60.15761295,,z,1,0.7336,,,,,,,,0.7336,1,0,15,15,8,1,1001,ASLERT,z,,,,,,,,,,,,,,,,,,,,,,,,,,,,,,,,,,,,,,,,,,,,,,,,,,,,,,,,,,,,,,,,,
space,0.218475073,-0.125366569,0,0,0,,,,,,,1,end_of_practice,"You have completed the practice trials. During the experimental trials, you will not receive feedback. 
Before you begin, please ensure that you are in a comfortable and quiet location and will not be disturbed for about 15 minutes, as we cannot use your data if you do not complete all the trials. 
 When you are ready to start the experimental trials, please press space or touch the button below.",,,60fc658f2458e31812a4e66d,18,2022-02-12_17h33.24.070,lexical_decision_task_DD_L6,2021.2.3,Win32,60.15761295,16.5268,,,,,,,,,,,,,,,,,,,,,0,0,0,0,1,,,,,,,,,,,,,,,,,,,,,,,,,,,,,,,,,,,,,,,,,,,,,,,,,,,,,,,,,,,,
,,,,,,,,,,,,,,,,,60fc658f2458e31812a4e66d,18,2022-02-12_17h33.24.070,lexical_decision_task_DD_L6,2021.2.3,Win32,60.15761295,,,,,,,,,,,,0.5811,1,,,,,,,,,,,,,,z,1,0.5811,,,,,,,,0.218475073,-0.125366569,0,0,0,,0,0,0,144,1,NAIRY,C,z,z,./images/NAIRY.png,,,,,,,,,,,,,,,,,,,,,,,,,,,,,,,,,,
,,,,,,,,,,,,,,,,,60fc658f2458e31812a4e66d,18,2022-02-12_17h33.24.070,lexical_decision_task_DD_L6,2021.2.3,Win32,60.15761295,,,,,,,,,,,,0.6328,1,,,,,,,,,,,,,,z,1,0.6328,,,,,,,,0.218475073,-0.125366569,0,0,0,,0,1,1,105,1,MOKER,C,z,z,./images/MOKER.png,,,,,,,,,,,,,,,,,,,,,,,,,,,,,,,,,,
,,,,,,,,,,,,,,,,,60fc658f2458e31812a4e66d,18,2022-02-12_17h33.24.070,lexical_decision_task_DD_L6,2021.2.3,Win32,60.15761295,,,,,,,,,,,,0.7011,1,,,,,,,,,,,,,,m,1,0.7011,,,,,,,,0.218475073,-0.125366569,0,0,0,,0,2,2,80,1,PLANET,HB,m,m,./images/PLANETHB.png,,,,,,,,,,,,,,,,,,,,,,,,,,,,,,,,,,
,,,,,,,,,,,,,,,,,60fc658f2458e31812a4e66d,18,2022-02-12_17h33.24.070,lexical_decision_task_DD_L6,2021.2.3,Win32,60.15761295,,,,,,,,,,,,0.5326,1,,,,,,,,,,,,,,m,1,0.5326,,,,,,,,0.218475073,-0.125366569,0,0,0,,0,3,3,42,1,CHAIN,LB,m,m,./images/CHAINLB.png,,,,,,,,,,,,,,,,,,,,,,,,,,,,,,,,,,
,,,,,,,,,,,,,,,,,60fc658f2458e31812a4e66d,18,2022-02-12_17h33.24.070,lexical_decision_task_DD_L6,2021.2.3,Win32,60.15761295,,,,,,,,,,,,0.5514,1,,,,,,,,,,,,,,z,1,0.5514,,,,,,,,0.218475073,-0.125366569,0,0,0,,0,4,4,95,1,HANTY,LB,z,z,./images/HANTYLB.png,,,,,,,,,,,,,,,,,,,,,,,,,,,,,,,,,,
,,,,,,,,,,,,,,,,,60fc658f2458e31812a4e66d,18,2022-02-12_17h33.24.070,lexical_decision_task_DD_L6,2021.2.3,Win32,60.15761295,,,,,,,,,,,,0.4679,1,,,,,,,,,,,,,,z,1,0.4679,,,,,,,,0.218475073,-0.125366569,0,0,0,,0,5,5,158,1,EGECT,LB,z,z,./images/EGECTLB.png,,,,,,,,,,,,,,,,,,,,,,,,,,,,,,,,,,
,,,,,,,,,,,,,,,,,60fc658f2458e31812a4e66d,18,2022-02-12_17h33.24.070,lexical_decision_task_DD_L6,2021.2.3,Win32,60.15761295,,,,,,,,,,,,0.516,1,,,,,,,,,,,,,,m,1,0.516,,,,,,,,0.218475073,-0.125366569,0,0,0,,0,6,6,67,1,POKER,C,m,m,./images/POKER.png,,,,,,,,,,,,,,,,,,,,,,,,,,,,,,,,,,
,,,,,,,,,,,,,,,,,60fc658f2458e31812a4e66d,18,2022-02-12_17h33.24.070,lexical_decision_task_DD_L6,2021.2.3,Win32,60.15761295,,,,,,,,,,,,0.6797,1,,,,,,,,,,,,,,z,1,0.6797,,,,,,,,0.218475073,-0.125366569,0,0,0,,0,7,7,148,1,JOMS,HB,z,z,./images/JOMSHB.png,,,,,,,,,,,,,,,,,,,,,,,,,,,,,,,,,,
,,,,,,,,,,,,,,,,,60fc658f2458e31812a4e66d,18,2022-02-12_17h33.24.070,lexical_decision_task_DD_L6,2021.2.3,Win32,60.15761295,,,,,,,,,,,,0.469,1,,,,,,,,,,,,,,m,1,0.469,,,,,,,,0.218475073,-0.125366569,0,0,0,,0,8,8,45,1,MONKEY,LB,m,m,./images/MONKEYLB.png,,,,,,,,,,,,,,,,,,,,,,,,,,,,,,,,,,
,,,,,,,,,,,,,,,,,60fc658f2458e31812a4e66d,18,2022-02-12_17h33.24.070,lexical_decision_task_DD_L6,2021.2.3,Win32,60.15761295,,,,,,,,,,,,0.4531,1,,,,,,,,,,,,,,z,1,0.4531,,,,,,,,0.218475073,-0.125366569,0,0,0,,0,9,9,84,1,HAXES,C,z,z,./images/HAXES.png,,,,,,,,,,,,,,,,,,,,,,,,,,,,,,,,,,
,,,,,,,,,,,,,,,,,60fc658f2458e31812a4e66d,18,2022-02-12_17h33.24.070,lexical_decision_task_DD_L6,2021.2.3,Win32,60.15761295,,,,,,,,,,,,0.8014,1,,,,,,,,,,,,,,m,1,0.8014,,,,,,,,0.218475073,-0.125366569,0,0,0,,0,10,10,50,1,PILOT,HB,m,m,./images/PILOTHB.png,,,,,,,,,,,,,,,,,,,,,,,,,,,,,,,,,,
,,,,,,,,,,,,,,,,,60fc658f2458e31812a4e66d,18,2022-02-12_17h33.24.070,lexical_decision_task_DD_L6,2021.2.3,Win32,60.15761295,,,,,,,,,,,,0.5168,1,,,,,,,,,,,,,,z,1,0.5168,,,,,,,,0.218475073,-0.125366569,0,0,0,,0,11,11,153,1,CLUPS,C,z,z,./images/CLUPS.png,,,,,,,,,,,,,,,,,,,,,,,,,,,,,,,,,,
,,,,,,,,,,,,,,,,,60fc658f2458e31812a4e66d,18,2022-02-12_17h33.24.070,lexical_decision_task_DD_L6,2021.2.3,Win32,60.15761295,,,,,,,,,,,,0.6017,1,,,,,,,,,,,,,,z,1,0.6017,,,,,,,,0.218475073,-0.125366569,0,0,0,,0,12,12,113,1,LINEW,LB,z,z,./images/LINEWLB.png,,,,,,,,,,,,,,,,,,,,,,,,,,,,,,,,,,
,,,,,,,,,,,,,,,,,60fc658f2458e31812a4e66d,18,2022-02-12_17h33.24.070,lexical_decision_task_DD_L6,2021.2.3,Win32,60.15761295,,,,,,,,,,,,0.8182,1,,,,,,,,,,,,,,m,1,0.8182,,,,,,,,0.218475073,-0.125366569,0,0,0,,0,13,13,65,1,SPINE,HB,m,m,./images/SPINEHB.png,,,,,,,,,,,,,,,,,,,,,,,,,,,,,,,,,,
,,,,,,,,,,,,,,,,,60fc658f2458e31812a4e66d,18,2022-02-12_17h33.24.070,lexical_decision_task_DD_L6,2021.2.3,Win32,60.15761295,,,,,,,,,,,,0.6194,1,,,,,,,,,,,,,,z,1,0.6194,,,,,,,,0.218475073,-0.125366569,0,0,0,,0,14,14,155,1,CANGY,LB,z,z,./images/CANGYLB.png,,,,,,,,,,,,,,,,,,,,,,,,,,,,,,,,,,
,,,,,,,,,,,,,,,,,60fc658f2458e31812a4e66d,18,2022-02-12_17h33.24.070,lexical_decision_task_DD_L6,2021.2.3,Win32,60.15761295,,,,,,,,,,,,0.8698,1,,,,,,,,,,,,,,m,1,0.8698,,,,,,,,0.218475073,-0.125366569,0,0,0,,0,15,15,11,1,MEDAL,HB,m,m,./images/MEDALHB.png,,,,,,,,,,,,,,,,,,,,,,,,,,,,,,,,,,
,,,,,,,,,,,,,,,,,60fc658f2458e31812a4e66d,18,2022-02-12_17h33.24.070,lexical_decision_task_DD_L6,2021.2.3,Win32,60.15761295,,,,,,,,,,,,0.7854,1,,,,,,,,,,,,,,m,1,0.7854,,,,,,,,0.218475073,-0.125366569,0,0,0,,0,16,16,57,1,FERRY,LB,m,m,./images/FERRYLB.png,,,,,,,,,,,,,,,,,,,,,,,,,,,,,,,,,,
,,,,,,,,,,,,,,,,,60fc658f2458e31812a4e66d,18,2022-02-12_17h33.24.070,lexical_decision_task_DD_L6,2021.2.3,Win32,60.15761295,,,,,,,,,,,,0.436,1,,,,,,,,,,,,,,m,1,0.436,,,,,,,,0.218475073,-0.125366569,0,0,0,,0,17,17,39,1,CANDY,LB,m,m,./images/CANDYLB.png,,,,,,,,,,,,,,,,,,,,,,,,,,,,,,,,,,
,,,,,,,,,,,,,,,,,60fc658f2458e31812a4e66d,18,2022-02-12_17h33.24.070,lexical_decision_task_DD_L6,2021.2.3,Win32,60.15761295,,,,,,,,,,,,0.5052,0,,,,,,,,,,,,,,z,0,0.5052,,,,,,,,0.218475073,-0.125366569,0,0,0,,0,18,18,4,1,BOXER,C,m,m,./images/BOXER.png,,,,,,,,,,,,,,,,,,,,,,,,,,,,,,,,,,
,,,,,,,,,,,,,,,,,60fc658f2458e31812a4e66d,18,2022-02-12_17h33.24.070,lexical_decision_task_DD_L6,2021.2.3,Win32,60.15761295,,,,,,,,,,,,0.4843,1,,,,,,,,,,,,,,m,1,0.4843,,,,,,,,0.218475073,-0.125366569,0,0,0,,0,19,19,0,1,WALNUT,LB,m,m,./images/WALNUTLB.png,,,,,,,,,,,,,,,,,,,,,,,,,,,,,,,,,,
,,,,,,,,,,,,,,,,,60fc658f2458e31812a4e66d,18,2022-02-12_17h33.24.070,lexical_decision_task_DD_L6,2021.2.3,Win32,60.15761295,,,,,,,,,,,,0.7178,1,,,,,,,,,,,,,,z,1,0.7178,,,,,,,,0.218475073,-0.125366569,0,0,0,,0,20,20,161,1,BLAPS,LB,z,z,./images/BLAPSLB.png,,,,,,,,,,,,,,,,,,,,,,,,,,,,,,,,,,
,,,,,,,,,,,,,,,,,60fc658f2458e31812a4e66d,18,2022-02-12_17h33.24.070,lexical_decision_task_DD_L6,2021.2.3,Win32,60.15761295,,,,,,,,,,,,0.5383,1,,,,,,,,,,,,,,m,1,0.5383,,,,,,,,0.218475073,-0.125366569,0,0,0,,0,21,21,60,1,CURRY,LB,m,m,./images/CURRYLB.png,,,,,,,,,,,,,,,,,,,,,,,,,,,,,,,,,,
,,,,,,,,,,,,,,,,,60fc658f2458e31812a4e66d,18,2022-02-12_17h33.24.070,lexical_decision_task_DD_L6,2021.2.3,Win32,60.15761295,,,,,,,,,,,,0.687,1,,,,,,,,,,,,,,z,1,0.687,,,,,,,,0.218475073,-0.125366569,0,0,0,,0,22,22,143,1,MONGS,LB,z,z,./images/MONGSLB.png,,,,,,,,,,,,,,,,,,,,,,,,,,,,,,,,,,
,,,,,,,,,,,,,,,,,60fc658f2458e31812a4e66d,18,2022-02-12_17h33.24.070,lexical_decision_task_DD_L6,2021.2.3,Win32,60.15761295,,,,,,,,,,,,0.4658,1,,,,,,,,,,,,,,m,1,0.4658,,,,,,,,0.218475073,-0.125366569,0,0,0,,0,23,23,10,1,GARDEN,C,m,m,./images/GARDEN.png,,,,,,,,,,,,,,,,,,,,,,,,,,,,,,,,,,
,,,,,,,,,,,,,,,,,60fc658f2458e31812a4e66d,18,2022-02-12_17h33.24.070,lexical_decision_task_DD_L6,2021.2.3,Win32,60.15761295,,,,,,,,,,,,0.6181,1,,,,,,,,,,,,,,m,1,0.6181,,,,,,,,0.218475073,-0.125366569,0,0,0,,0,24,24,68,1,VALLEY,HB,m,m,./images/VALLEYHB.png,,,,,,,,,,,,,,,,,,,,,,,,,,,,,,,,,,
,,,,,,,,,,,,,,,,,60fc658f2458e31812a4e66d,18,2022-02-12_17h33.24.070,lexical_decision_task_DD_L6,2021.2.3,Win32,60.15761295,,,,,,,,,,,,0.5589,1,,,,,,,,,,,,,,m,1,0.5589,,,,,,,,0.218475073,-0.125366569,0,0,0,,0,25,25,15,1,COLLAR,LB,m,m,./images/COLLARLB.png,,,,,,,,,,,,,,,,,,,,,,,,,,,,,,,,,,
,,,,,,,,,,,,,,,,,60fc658f2458e31812a4e66d,18,2022-02-12_17h33.24.070,lexical_decision_task_DD_L6,2021.2.3,Win32,60.15761295,,,,,,,,,,,,0.5345,1,,,,,,,,,,,,,,z,1,0.5345,,,,,,,,0.218475073,-0.125366569,0,0,0,,0,26,26,96,1,KEAMS,C,z,z,./images/KEAMS.png,,,,,,,,,,,,,,,,,,,,,,,,,,,,,,,,,,
,,,,,,,,,,,,,,,,,60fc658f2458e31812a4e66d,18,2022-02-12_17h33.24.070,lexical_decision_task_DD_L6,2021.2.3,Win32,60.15761295,,,,,,,,,,,,0.5176,1,,,,,,,,,,,,,,m,1,0.5176,,,,,,,,0.218475073,-0.125366569,0,0,0,,0,27,27,48,1,SHIELD,LB,m,m,./images/SHIELDLB.png,,,,,,,,,,,,,,,,,,,,,,,,,,,,,,,,,,
,,,,,,,,,,,,,,,,,60fc658f2458e31812a4e66d,18,2022-02-12_17h33.24.070,lexical_decision_task_DD_L6,2021.2.3,Win32,60.15761295,,,,,,,,,,,,0.5396,1,,,,,,,,,,,,,,m,1,0.5396,,,,,,,,0.218475073,-0.125366569,0,0,0,,0,28,28,21,1,DANCER,LB,m,m,./images/DANCERLB.png,,,,,,,,,,,,,,,,,,,,,,,,,,,,,,,,,,
,,,,,,,,,,,,,,,,,60fc658f2458e31812a4e66d,18,2022-02-12_17h33.24.070,lexical_decision_task_DD_L6,2021.2.3,Win32,60.15761295,,,,,,,,,,,,0.5542,1,,,,,,,,,,,,,,m,1,0.5542,,,,,,,,0.218475073,-0.125366569,0,0,0,,0,29,29,29,1,PISTOL,HB,m,m,./images/PISTOLHB.png,,,,,,,,,,,,,,,,,,,,,,,,,,,,,,,,,,
,,,,,,,,,,,,,,,,,60fc658f2458e31812a4e66d,18,2022-02-12_17h33.24.070,lexical_decision_task_DD_L6,2021.2.3,Win32,60.15761295,,,,,,,,,,,,0.5375,1,,,,,,,,,,,,,,m,1,0.5375,,,,,,,,0.218475073,-0.125366569,0,0,0,,0,30,30,24,1,FLESH,LB,m,m,./images/FLESHLB.png,,,,,,,,,,,,,,,,,,,,,,,,,,,,,,,,,,
,,,,,,,,,,,,,,,,,60fc658f2458e31812a4e66d,18,2022-02-12_17h33.24.070,lexical_decision_task_DD_L6,2021.2.3,Win32,60.15761295,,,,,,,,,,,,0.4604,1,,,,,,,,,,,,,,m,1,0.4604,,,,,,,,0.218475073,-0.125366569,0,0,0,,0,31,31,19,1,DONKEY,C,m,m,./images/DONKEY.png,,,,,,,,,,,,,,,,,,,,,,,,,,,,,,,,,,
,,,,,,,,,,,,,,,,,60fc658f2458e31812a4e66d,18,2022-02-12_17h33.24.070,lexical_decision_task_DD_L6,2021.2.3,Win32,60.15761295,,,,,,,,,,,,0.6761,1,,,,,,,,,,,,,,z,1,0.6761,,,,,,,,0.218475073,-0.125366569,0,0,0,,0,32,32,126,1,GUELS,C,z,z,./images/GUELS.png,,,,,,,,,,,,,,,,,,,,,,,,,,,,,,,,,,
,,,,,,,,,,,,,,,,,60fc658f2458e31812a4e66d,18,2022-02-12_17h33.24.070,lexical_decision_task_DD_L6,2021.2.3,Win32,60.15761295,,,,,,,,,,,,0.5805,1,,,,,,,,,,,,,,z,1,0.5805,,,,,,,,0.218475073,-0.125366569,0,0,0,,0,33,33,108,1,GRUET,C,z,z,./images/GRUET.png,,,,,,,,,,,,,,,,,,,,,,,,,,,,,,,,,,
,,,,,,,,,,,,,,,,,60fc658f2458e31812a4e66d,18,2022-02-12_17h33.24.070,lexical_decision_task_DD_L6,2021.2.3,Win32,60.15761295,,,,,,,,,,,,0.6532,1,,,,,,,,,,,,,,m,1,0.6532,,,,,,,,0.218475073,-0.125366569,0,0,0,,0,34,34,3,1,CRATER,LB,m,m,./images/CRATERLB.png,,,,,,,,,,,,,,,,,,,,,,,,,,,,,,,,,,
,,,,,,,,,,,,,,,,,60fc658f2458e31812a4e66d,18,2022-02-12_17h33.24.070,lexical_decision_task_DD_L6,2021.2.3,Win32,60.15761295,,,,,,,,,,,,1.1844,1,,,,,,,,,,,,,,z,1,1.1844,,,,,,,,0.218475073,-0.125366569,0,0,0,,0,35,35,97,1,CHIDS,HB,z,z,./images/CHIDSHB.png,,,,,,,,,,,,,,,,,,,,,,,,,,,,,,,,,,
,,,,,,,,,,,,,,,,,60fc658f2458e31812a4e66d,18,2022-02-12_17h33.24.070,lexical_decision_task_DD_L6,2021.2.3,Win32,60.15761295,,,,,,,,,,,,0.4185,1,,,,,,,,,,,,,,m,1,0.4185,,,,,,,,0.218475073,-0.125366569,0,0,0,,0,36,36,43,1,STOOL,C,m,m,./images/STOOL.png,,,,,,,,,,,,,,,,,,,,,,,,,,,,,,,,,,
,,,,,,,,,,,,,,,,,60fc658f2458e31812a4e66d,18,2022-02-12_17h33.24.070,lexical_decision_task_DD_L6,2021.2.3,Win32,60.15761295,,,,,,,,,,,,0.8204,1,,,,,,,,,,,,,,z,1,0.8204,,,,,,,,0.218475073,-0.125366569,0,0,0,,0,37,37,103,1,FLORT,HB,z,z,./images/FLORTHB.png,,,,,,,,,,,,,,,,,,,,,,,,,,,,,,,,,,
,,,,,,,,,,,,,,,,,60fc658f2458e31812a4e66d,18,2022-02-12_17h33.24.070,lexical_decision_task_DD_L6,2021.2.3,Win32,60.15761295,,,,,,,,,,,,0.6362,1,,,,,,,,,,,,,,z,1,0.6362,,,,,,,,0.218475073,-0.125366569,0,0,0,,0,38,38,107,1,FASKS,LB,z,z,./images/FASKSLB.png,,,,,,,,,,,,,,,,,,,,,,,,,,,,,,,,,,
,,,,,,,,,,,,,,,,,60fc658f2458e31812a4e66d,18,2022-02-12_17h33.24.070,lexical_decision_task_DD_L6,2021.2.3,Win32,60.15761295,,,,,,,,,,,,0.5917,1,,,,,,,,,,,,,,m,1,0.5917,,,,,,,,0.218475073,-0.125366569,0,0,0,,0,39,39,76,1,MIDGET,C,m,m,./images/MIDGET.png,,,,,,,,,,,,,,,,,,,,,,,,,,,,,,,,,,
,,,,,,,,,,,,,,,,,60fc658f2458e31812a4e66d,18,2022-02-12_17h33.24.070,lexical_decision_task_DD_L6,2021.2.3,Win32,60.15761295,,,,,,,,,,,,0.7855,0,,,,,,,,,,,,,,z,0,0.7855,,,,,,,,0.218475073,-0.125366569,0,0,0,,0,40,40,44,1,BASKET,HB,m,m,./images/BASKETHB.png,,,,,,,,,,,,,,,,,,,,,,,,,,,,,,,,,,
,,,,,,,,,,,,,,,,,60fc658f2458e31812a4e66d,18,2022-02-12_17h33.24.070,lexical_decision_task_DD_L6,2021.2.3,Win32,60.15761295,,,,,,,,,,,,0.6355,1,,,,,,,,,,,,,,m,1,0.6355,,,,,,,,0.218475073,-0.125366569,0,0,0,space,0,41,41,34,1,RAZOR,C,m,m,./images/RAZOR.png,25.8809,,,,,,,,,,,,,,,,,,,,,,,,,,,,,,,,,
,,,,,,,,,,,,,,,,,60fc658f2458e31812a4e66d,18,2022-02-12_17h33.24.070,lexical_decision_task_DD_L6,2021.2.3,Win32,60.15761295,,,,,,,,,,,,0.4279,1,,,,,,,,,,,,,,m,1,0.4279,,,,,,,,0.218475073,-0.125366569,0,0,0,,0,42,42,37,1,TIGER,C,m,m,./images/TIGER.png,,,,,,,,,,,,,,,,,,,,,,,,,,,,,,,,,,
,,,,,,,,,,,,,,,,,60fc658f2458e31812a4e66d,18,2022-02-12_17h33.24.070,lexical_decision_task_DD_L6,2021.2.3,Win32,60.15761295,,,,,,,,,,,,0.4257,1,,,,,,,,,,,,,,m,1,0.4257,,,,,,,,0.218475073,-0.125366569,0,0,0,,0,43,43,73,1,GLOVE,C,m,m,./images/GLOVE.png,,,,,,,,,,,,,,,,,,,,,,,,,,,,,,,,,,
,,,,,,,,,,,,,,,,,60fc658f2458e31812a4e66d,18,2022-02-12_17h33.24.070,lexical_decision_task_DD_L6,2021.2.3,Win32,60.15761295,,,,,,,,,,,,0.5943,1,,,,,,,,,,,,,,m,1,0.5943,,,,,,,,0.218475073,-0.125366569,0,0,0,,0,44,44,23,1,CLOTH,HB,m,m,./images/CLOTHHB.png,,,,,,,,,,,,,,,,,,,,,,,,,,,,,,,,,,
,,,,,,,,,,,,,,,,,60fc658f2458e31812a4e66d,18,2022-02-12_17h33.24.070,lexical_decision_task_DD_L6,2021.2.3,Win32,60.15761295,,,,,,,,,,,,0.5947,1,,,,,,,,,,,,,,z,1,0.5947,,,,,,,,0.218475073,-0.125366569,0,0,0,,0,45,45,125,1,MOOKY,LB,z,z,./images/MOOKYLB.png,,,,,,,,,,,,,,,,,,,,,,,,,,,,,,,,,,
,,,,,,,,,,,,,,,,,60fc658f2458e31812a4e66d,18,2022-02-12_17h33.24.070,lexical_decision_task_DD_L6,2021.2.3,Win32,60.15761295,,,,,,,,,,,,0.4924,0,,,,,,,,,,,,,,m,0,0.4924,,,,,,,,0.218475073,-0.125366569,0,0,0,,0,46,46,99,1,BACKY,C,z,z,./images/BACKY.png,,,,,,,,,,,,,,,,,,,,,,,,,,,,,,,,,,
,,,,,,,,,,,,,,,,,60fc658f2458e31812a4e66d,18,2022-02-12_17h33.24.070,lexical_decision_task_DD_L6,2021.2.3,Win32,60.15761295,,,,,,,,,,,,1.0967,1,,,,,,,,,,,,,,z,1,1.0967,,,,,,,,0.218475073,-0.125366569,0,0,0,,0,47,47,142,1,PLASK,HB,z,z,./images/PLASKHB.png,,,,,,,,,,,,,,,,,,,,,,,,,,,,,,,,,,
,,,,,,,,,,,,,,,,,60fc658f2458e31812a4e66d,18,2022-02-12_17h33.24.070,lexical_decision_task_DD_L6,2021.2.3,Win32,60.15761295,,,,,,,,,,,,0.5777,1,,,,,,,,,,,,,,m,1,0.5777,,,,,,,,0.218475073,-0.125366569,0,0,0,,0,48,48,18,1,PARCEL,LB,m,m,./images/PARCELLB.png,,,,,,,,,,,,,,,,,,,,,,,,,,,,,,,,,,
,,,,,,,,,,,,,,,,,60fc658f2458e31812a4e66d,18,2022-02-12_17h33.24.070,lexical_decision_task_DD_L6,2021.2.3,Win32,60.15761295,,,,,,,,,,,,0.5765,0,,,,,,,,,,,,,,m,0,0.5765,,,,,,,,0.218475073,-0.125366569,0,0,0,,0,49,49,128,1,GRIFT,LB,z,z,./images/GRIFTLB.png,,,,,,,,,,,,,,,,,,,,,,,,,,,,,,,,,,
,,,,,,,,,,,,,,,,,60fc658f2458e31812a4e66d,18,2022-02-12_17h33.24.070,lexical_decision_task_DD_L6,2021.2.3,Win32,60.15761295,,,,,,,,,,,,1.3324,1,,,,,,,,,,,,,,z,1,1.3324,,,,,,,,0.218475073,-0.125366569,0,0,0,,0,50,50,159,1,CUDDY,C,z,z,./images/CUDDY.png,,,,,,,,,,,,,,,,,,,,,,,,,,,,,,,,,,
,,,,,,,,,,,,,,,,,60fc658f2458e31812a4e66d,18,2022-02-12_17h33.24.070,lexical_decision_task_DD_L6,2021.2.3,Win32,60.15761295,,,,,,,,,,,,0.5027,1,,,,,,,,,,,,,,m,1,0.5027,,,,,,,,0.218475073,-0.125366569,0,0,0,,0,51,51,51,1,SAUCE,LB,m,m,./images/SAUCELB.png,,,,,,,,,,,,,,,,,,,,,,,,,,,,,,,,,,
,,,,,,,,,,,,,,,,,60fc658f2458e31812a4e66d,18,2022-02-12_17h33.24.070,lexical_decision_task_DD_L6,2021.2.3,Win32,60.15761295,,,,,,,,,,,,0.7941,1,,,,,,,,,,,,,,z,1,0.7941,,,,,,,,0.218475073,-0.125366569,0,0,0,,0,52,52,163,1,GAMBA,HB,z,z,./images/GAMBAHB.png,,,,,,,,,,,,,,,,,,,,,,,,,,,,,,,,,,
,,,,,,,,,,,,,,,,,60fc658f2458e31812a4e66d,18,2022-02-12_17h33.24.070,lexical_decision_task_DD_L6,2021.2.3,Win32,60.15761295,,,,,,,,,,,,0.944,1,,,,,,,,,,,,,,z,1,0.944,,,,,,,,0.218475073,-0.125366569,0,0,0,,0,53,53,152,1,FRAIN,LB,z,z,./images/FRAINLB.png,,,,,,,,,,,,,,,,,,,,,,,,,,,,,,,,,,
,,,,,,,,,,,,,,,,,60fc658f2458e31812a4e66d,18,2022-02-12_17h33.24.070,lexical_decision_task_DD_L6,2021.2.3,Win32,60.15761295,,,,,,,,,,,,0.8951,1,,,,,,,,,,,,,,z,1,0.8951,,,,,,,,0.218475073,-0.125366569,0,0,0,,0,54,54,88,1,GLUSH,HB,z,z,./images/GLUSHHB.png,,,,,,,,,,,,,,,,,,,,,,,,,,,,,,,,,,
,,,,,,,,,,,,,,,,,60fc658f2458e31812a4e66d,18,2022-02-12_17h33.24.070,lexical_decision_task_DD_L6,2021.2.3,Win32,60.15761295,,,,,,,,,,,,0.6489,1,,,,,,,,,,,,,,z,1,0.6489,,,,,,,,0.218475073,-0.125366569,0,0,0,,0,55,55,156,1,HIXES,C,z,z,./images/HIXES.png,,,,,,,,,,,,,,,,,,,,,,,,,,,,,,,,,,
,,,,,,,,,,,,,,,,,60fc658f2458e31812a4e66d,18,2022-02-12_17h33.24.070,lexical_decision_task_DD_L6,2021.2.3,Win32,60.15761295,,,,,,,,,,,,0.6044,1,,,,,,,,,,,,,,z,1,0.6044,,,,,,,,0.218475073,-0.125366569,0,0,0,,0,56,56,119,1,PAFER,LB,z,z,./images/PAFERLB.png,,,,,,,,,,,,,,,,,,,,,,,,,,,,,,,,,,
,,,,,,,,,,,,,,,,,60fc658f2458e31812a4e66d,18,2022-02-12_17h33.24.070,lexical_decision_task_DD_L6,2021.2.3,Win32,60.15761295,,,,,,,,,,,,0.7346,1,,,,,,,,,,,,,,z,1,0.7346,,,,,,,,0.218475073,-0.125366569,0,0,0,,0,57,57,121,1,CEERS,HB,z,z,./images/CEERSHB.png,,,,,,,,,,,,,,,,,,,,,,,,,,,,,,,,,,
,,,,,,,,,,,,,,,,,60fc658f2458e31812a4e66d,18,2022-02-12_17h33.24.070,lexical_decision_task_DD_L6,2021.2.3,Win32,60.15761295,,,,,,,,,,,,0.8945,1,,,,,,,,,,,,,,m,1,0.8945,,,,,,,,0.218475073,-0.125366569,0,0,0,,0,58,58,83,1,WHISKY,HB,m,m,./images/WHISKYHB.png,,,,,,,,,,,,,,,,,,,,,,,,,,,,,,,,,,
,,,,,,,,,,,,,,,,,60fc658f2458e31812a4e66d,18,2022-02-12_17h33.24.070,lexical_decision_task_DD_L6,2021.2.3,Win32,60.15761295,,,,,,,,,,,,0.8247,1,,,,,,,,,,,,,,m,1,0.8247,,,,,,,,0.218475073,-0.125366569,0,0,0,,0,59,59,49,1,BISHOP,C,m,m,./images/BISHOP.png,,,,,,,,,,,,,,,,,,,,,,,,,,,,,,,,,,
,,,,,,,,,,,,,,,,,60fc658f2458e31812a4e66d,18,2022-02-12_17h33.24.070,lexical_decision_task_DD_L6,2021.2.3,Win32,60.15761295,,,,,,,,,,,,0.9079,1,,,,,,,,,,,,,,m,1,0.9079,,,,,,,,0.218475073,-0.125366569,0,0,0,,0,60,60,8,1,CLIFF,HB,m,m,./images/CLIFFHB.png,,,,,,,,,,,,,,,,,,,,,,,,,,,,,,,,,,
,,,,,,,,,,,,,,,,,60fc658f2458e31812a4e66d,18,2022-02-12_17h33.24.070,lexical_decision_task_DD_L6,2021.2.3,Win32,60.15761295,,,,,,,,,,,,0.7116,1,,,,,,,,,,,,,,m,1,0.7116,,,,,,,,0.218475073,-0.125366569,0,0,0,,0,61,61,35,1,LLAMA,HB,m,m,./images/LLAMAHB.png,,,,,,,,,,,,,,,,,,,,,,,,,,,,,,,,,,
,,,,,,,,,,,,,,,,,60fc658f2458e31812a4e66d,18,2022-02-12_17h33.24.070,lexical_decision_task_DD_L6,2021.2.3,Win32,60.15761295,,,,,,,,,,,,0.6104,1,,,,,,,,,,,,,,m,1,0.6104,,,,,,,,0.218475073,-0.125366569,0,0,0,,0,62,62,33,1,SAUNA,LB,m,m,./images/SAUNALB.png,,,,,,,,,,,,,,,,,,,,,,,,,,,,,,,,,,
,,,,,,,,,,,,,,,,,60fc658f2458e31812a4e66d,18,2022-02-12_17h33.24.070,lexical_decision_task_DD_L6,2021.2.3,Win32,60.15761295,,,,,,,,,,,,0.6268,1,,,,,,,,,,,,,,z,1,0.6268,,,,,,,,0.218475073,-0.125366569,0,0,0,,0,63,63,164,1,SGREW,LB,z,z,./images/SGREWLB.png,,,,,,,,,,,,,,,,,,,,,,,,,,,,,,,,,,
,,,,,,,,,,,,,,,,,60fc658f2458e31812a4e66d,18,2022-02-12_17h33.24.070,lexical_decision_task_DD_L6,2021.2.3,Win32,60.15761295,,,,,,,,,,,,0.5971,1,,,,,,,,,,,,,,z,1,0.5971,,,,,,,,0.218475073,-0.125366569,0,0,0,,0,64,64,116,1,BALGY,LB,z,z,./images/BALGYLB.png,,,,,,,,,,,,,,,,,,,,,,,,,,,,,,,,,,
,,,,,,,,,,,,,,,,,60fc658f2458e31812a4e66d,18,2022-02-12_17h33.24.070,lexical_decision_task_DD_L6,2021.2.3,Win32,60.15761295,,,,,,,,,,,,0.5275,1,,,,,,,,,,,,,,m,1,0.5275,,,,,,,,0.218475073,-0.125366569,0,0,0,,0,65,65,52,1,DESERT,C,m,m,./images/DESERT.png,,,,,,,,,,,,,,,,,,,,,,,,,,,,,,,,,,
,,,,,,,,,,,,,,,,,60fc658f2458e31812a4e66d,18,2022-02-12_17h33.24.070,lexical_decision_task_DD_L6,2021.2.3,Win32,60.15761295,,,,,,,,,,,,0.5618,1,,,,,,,,,,,,,,m,1,0.5618,,,,,,,,0.218475073,-0.125366569,0,0,0,,0,66,66,41,1,STREAM,HB,m,m,./images/STREAMHB.png,,,,,,,,,,,,,,,,,,,,,,,,,,,,,,,,,,
,,,,,,,,,,,,,,,,,60fc658f2458e31812a4e66d,18,2022-02-12_17h33.24.070,lexical_decision_task_DD_L6,2021.2.3,Win32,60.15761295,,,,,,,,,,,,0.6155,1,,,,,,,,,,,,,,m,1,0.6155,,,,,,,,0.218475073,-0.125366569,0,0,0,,0,67,67,54,1,CHERRY,LB,m,m,./images/CHERRYLB.png,,,,,,,,,,,,,,,,,,,,,,,,,,,,,,,,,,
,,,,,,,,,,,,,,,,,60fc658f2458e31812a4e66d,18,2022-02-12_17h33.24.070,lexical_decision_task_DD_L6,2021.2.3,Win32,60.15761295,,,,,,,,,,,,0.7273,1,,,,,,,,,,,,,,z,1,0.7273,,,,,,,,0.218475073,-0.125366569,0,0,0,,0,68,68,102,1,DULLE,C,z,z,./images/DULLE.png,,,,,,,,,,,,,,,,,,,,,,,,,,,,,,,,,,
,,,,,,,,,,,,,,,,,60fc658f2458e31812a4e66d,18,2022-02-12_17h33.24.070,lexical_decision_task_DD_L6,2021.2.3,Win32,60.15761295,,,,,,,,,,,,0.7888,1,,,,,,,,,,,,,,z,1,0.7888,,,,,,,,0.218475073,-0.125366569,0,0,0,,0,69,69,139,1,BLEAR,HB,z,z,./images/BLEARHB.png,,,,,,,,,,,,,,,,,,,,,,,,,,,,,,,,,,
,,,,,,,,,,,,,,,,,60fc658f2458e31812a4e66d,18,2022-02-12_17h33.24.070,lexical_decision_task_DD_L6,2021.2.3,Win32,60.15761295,,,,,,,,,,,,0.5505,1,,,,,,,,,,,,,,m,1,0.5505,,,,,,,,0.218475073,-0.125366569,0,0,0,,0,70,70,6,1,STAIN,LB,m,m,./images/STAINLB.png,,,,,,,,,,,,,,,,,,,,,,,,,,,,,,,,,,
,,,,,,,,,,,,,,,,,60fc658f2458e31812a4e66d,18,2022-02-12_17h33.24.070,lexical_decision_task_DD_L6,2021.2.3,Win32,60.15761295,,,,,,,,,,,,0.6638,1,,,,,,,,,,,,,,m,1,0.6638,,,,,,,,0.218475073,-0.125366569,0,0,0,,0,71,71,17,1,PARADE,HB,m,m,./images/PARADEHB.png,,,,,,,,,,,,,,,,,,,,,,,,,,,,,,,,,,
,,,,,,,,,,,,,,,,,60fc658f2458e31812a4e66d,18,2022-02-12_17h33.24.070,lexical_decision_task_DD_L6,2021.2.3,Win32,60.15761295,,,,,,,,,,,,0.53,1,,,,,,,,,,,,,,m,1,0.53,,,,,,,,0.218475073,-0.125366569,0,0,0,,0,72,72,63,1,BAKER,LB,m,m,./images/BAKERLB.png,,,,,,,,,,,,,,,,,,,,,,,,,,,,,,,,,,
,,,,,,,,,,,,,,,,,60fc658f2458e31812a4e66d,18,2022-02-12_17h33.24.070,lexical_decision_task_DD_L6,2021.2.3,Win32,60.15761295,,,,,,,,,,,,0.5786,1,,,,,,,,,,,,,,z,1,0.5786,,,,,,,,0.218475073,-0.125366569,0,0,0,,0,73,73,137,1,JOOST,LB,z,z,./images/JOOSTLB.png,,,,,,,,,,,,,,,,,,,,,,,,,,,,,,,,,,
,,,,,,,,,,,,,,,,,60fc658f2458e31812a4e66d,18,2022-02-12_17h33.24.070,lexical_decision_task_DD_L6,2021.2.3,Win32,60.15761295,,,,,,,,,,,,0.4066,0,,,,,,,,,,,,,,m,0,0.4066,,,,,,,,0.218475073,-0.125366569,0,0,0,,0,74,74,146,1,MOOST,LB,z,z,./images/MOOSTLB.png,,,,,,,,,,,,,,,,,,,,,,,,,,,,,,,,,,
,,,,,,,,,,,,,,,,,60fc658f2458e31812a4e66d,18,2022-02-12_17h33.24.070,lexical_decision_task_DD_L6,2021.2.3,Win32,60.15761295,,,,,,,,,,,,0.5694,1,,,,,,,,,,,,,,m,1,0.5694,,,,,,,,0.218475073,-0.125366569,0,0,0,,0,75,75,14,1,FENCE,HB,m,m,./images/FENCEHB.png,,,,,,,,,,,,,,,,,,,,,,,,,,,,,,,,,,
,,,,,,,,,,,,,,,,,60fc658f2458e31812a4e66d,18,2022-02-12_17h33.24.070,lexical_decision_task_DD_L6,2021.2.3,Win32,60.15761295,,,,,,,,,,,,0.5852,1,,,,,,,,,,,,,,z,1,0.5852,,,,,,,,0.218475073,-0.125366569,0,0,0,,0,76,76,111,1,HOSSE,C,z,z,./images/HOSSE.png,,,,,,,,,,,,,,,,,,,,,,,,,,,,,,,,,,
,,,,,,,,,,,,,,,,,60fc658f2458e31812a4e66d,18,2022-02-12_17h33.24.070,lexical_decision_task_DD_L6,2021.2.3,Win32,60.15761295,,,,,,,,,,,,0.552,1,,,,,,,,,,,,,,m,1,0.552,,,,,,,,0.218475073,-0.125366569,0,0,0,,0,77,77,78,1,BROOM,LB,m,m,./images/BROOMLB.png,,,,,,,,,,,,,,,,,,,,,,,,,,,,,,,,,,
,,,,,,,,,,,,,,,,,60fc658f2458e31812a4e66d,18,2022-02-12_17h33.24.070,lexical_decision_task_DD_L6,2021.2.3,Win32,60.15761295,,,,,,,,,,,,0.5371,1,,,,,,,,,,,,,,m,1,0.5371,,,,,,,,0.218475073,-0.125366569,0,0,0,,0,78,78,36,1,BOILER,LB,m,m,./images/BOILERLB.png,,,,,,,,,,,,,,,,,,,,,,,,,,,,,,,,,,
,,,,,,,,,,,,,,,,,60fc658f2458e31812a4e66d,18,2022-02-12_17h33.24.070,lexical_decision_task_DD_L6,2021.2.3,Win32,60.15761295,,,,,,,,,,,,0.6154,1,,,,,,,,,,,,,,m,1,0.6154,,,,,,,,0.218475073,-0.125366569,0,0,0,,0,79,79,13,1,BUNNY,C,m,m,./images/BUNNY.png,,,,,,,,,,,,,,,,,,,,,,,,,,,,,,,,,,
,,,,,,,,,,,,,,,,,60fc658f2458e31812a4e66d,18,2022-02-12_17h33.24.070,lexical_decision_task_DD_L6,2021.2.3,Win32,60.15761295,,,,,,,,,,,,0.5673,1,,,,,,,,,,,,,,z,1,0.5673,,,,,,,,0.218475073,-0.125366569,0,0,0,,0,80,80,123,1,SEDGE,C,z,z,./images/SEDGE.png,,,,,,,,,,,,,,,,,,,,,,,,,,,,,,,,,,
,,,,,,,,,,,,,,,,,60fc658f2458e31812a4e66d,18,2022-02-12_17h33.24.070,lexical_decision_task_DD_L6,2021.2.3,Win32,60.15761295,,,,,,,,,,,,0.8368,1,,,,,,,,,,,,,,z,1,0.8368,,,,,,,,0.218475073,-0.125366569,0,0,0,,0,81,81,145,1,LAMEL,HB,z,z,./images/LAMELHB.png,,,,,,,,,,,,,,,,,,,,,,,,,,,,,,,,,,
,,,,,,,,,,,,,,,,,60fc658f2458e31812a4e66d,18,2022-02-12_17h33.24.070,lexical_decision_task_DD_L6,2021.2.3,Win32,60.15761295,,,,,,,,,,,,0.5965,1,,,,,,,,,,,,,,z,1,0.5965,,,,,,,,0.218475073,-0.125366569,0,0,0,,0,82,82,93,1,SMONE,C,z,z,./images/SMONE.png,,,,,,,,,,,,,,,,,,,,,,,,,,,,,,,,,,
,,,,,,,,,,,,,,,,,60fc658f2458e31812a4e66d,18,2022-02-12_17h33.24.070,lexical_decision_task_DD_L6,2021.2.3,Win32,60.15761295,,,,,,,,,,,,0.6524,1,,,,,,,,,,,,,,z,1,0.6524,,,,,,,,0.218475073,-0.125366569,0,0,0,space,0,83,83,114,1,RIKES,C,z,z,./images/RIKES.png,40.6139,,,,,,,,,,,,,,,,,,,,,,,,,,,,,,,,,
,,,,,,,,,,,,,,,,,60fc658f2458e31812a4e66d,18,2022-02-12_17h33.24.070,lexical_decision_task_DD_L6,2021.2.3,Win32,60.15761295,,,,,,,,,,,,0.6273,1,,,,,,,,,,,,,,z,1,0.6273,,,,,,,,0.218475073,-0.125366569,0,0,0,,0,84,84,101,1,GLEET,LB,z,z,./images/GLEETLB.png,,,,,,,,,,,,,,,,,,,,,,,,,,,,,,,,,,
,,,,,,,,,,,,,,,,,60fc658f2458e31812a4e66d,18,2022-02-12_17h33.24.070,lexical_decision_task_DD_L6,2021.2.3,Win32,60.15761295,,,,,,,,,,,,0.6681,1,,,,,,,,,,,,,,z,1,0.6681,,,,,,,,0.218475073,-0.125366569,0,0,0,,0,85,85,132,1,SCIFF,C,z,z,./images/SCIFF.png,,,,,,,,,,,,,,,,,,,,,,,,,,,,,,,,,,
,,,,,,,,,,,,,,,,,60fc658f2458e31812a4e66d,18,2022-02-12_17h33.24.070,lexical_decision_task_DD_L6,2021.2.3,Win32,60.15761295,,,,,,,,,,,,0.6507,1,,,,,,,,,,,,,,z,1,0.6507,,,,,,,,0.218475073,-0.125366569,0,0,0,,0,86,86,141,1,PLEET,C,z,z,./images/PLEET.png,,,,,,,,,,,,,,,,,,,,,,,,,,,,,,,,,,
,,,,,,,,,,,,,,,,,60fc658f2458e31812a4e66d,18,2022-02-12_17h33.24.070,lexical_decision_task_DD_L6,2021.2.3,Win32,60.15761295,,,,,,,,,,,,0.668,1,,,,,,,,,,,,,,m,1,0.668,,,,,,,,0.218475073,-0.125366569,0,0,0,,0,87,87,75,1,HAMMER,LB,m,m,./images/HAMMERLB.png,,,,,,,,,,,,,,,,,,,,,,,,,,,,,,,,,,
,,,,,,,,,,,,,,,,,60fc658f2458e31812a4e66d,18,2022-02-12_17h33.24.070,lexical_decision_task_DD_L6,2021.2.3,Win32,60.15761295,,,,,,,,,,,,0.6873,1,,,,,,,,,,,,,,m,1,0.6873,,,,,,,,0.218475073,-0.125366569,0,0,0,,0,88,88,72,1,FLASK,LB,m,m,./images/FLASKLB.png,,,,,,,,,,,,,,,,,,,,,,,,,,,,,,,,,,
,,,,,,,,,,,,,,,,,60fc658f2458e31812a4e66d,18,2022-02-12_17h33.24.070,lexical_decision_task_DD_L6,2021.2.3,Win32,60.15761295,,,,,,,,,,,,0.7525,1,,,,,,,,,,,,,,z,1,0.7525,,,,,,,,0.218475073,-0.125366569,0,0,0,,0,89,89,100,1,DRIBS,HB,z,z,./images/DRIBSHB.png,,,,,,,,,,,,,,,,,,,,,,,,,,,,,,,,,,
,,,,,,,,,,,,,,,,,60fc658f2458e31812a4e66d,18,2022-02-12_17h33.24.070,lexical_decision_task_DD_L6,2021.2.3,Win32,60.15761295,,,,,,,,,,,,0.6175,1,,,,,,,,,,,,,,z,1,0.6175,,,,,,,,0.218475073,-0.125366569,0,0,0,,0,90,90,87,1,TRING,C,z,z,./images/TRING.png,,,,,,,,,,,,,,,,,,,,,,,,,,,,,,,,,,
,,,,,,,,,,,,,,,,,60fc658f2458e31812a4e66d,18,2022-02-12_17h33.24.070,lexical_decision_task_DD_L6,2021.2.3,Win32,60.15761295,,,,,,,,,,,,0.5855,1,,,,,,,,,,,,,,m,1,0.5855,,,,,,,,0.218475073,-0.125366569,0,0,0,,0,91,91,26,1,CLOUD,HB,m,m,./images/CLOUDHB.png,,,,,,,,,,,,,,,,,,,,,,,,,,,,,,,,,,
,,,,,,,,,,,,,,,,,60fc658f2458e31812a4e66d,18,2022-02-12_17h33.24.070,lexical_decision_task_DD_L6,2021.2.3,Win32,60.15761295,,,,,,,,,,,,0.6184,1,,,,,,,,,,,,,,m,1,0.6184,,,,,,,,0.218475073,-0.125366569,0,0,0,,0,92,92,69,1,ARROW,LB,m,m,./images/ARROWLB.png,,,,,,,,,,,,,,,,,,,,,,,,,,,,,,,,,,
,,,,,,,,,,,,,,,,,60fc658f2458e31812a4e66d,18,2022-02-12_17h33.24.070,lexical_decision_task_DD_L6,2021.2.3,Win32,60.15761295,,,,,,,,,,,,0.5014,1,,,,,,,,,,,,,,m,1,0.5014,,,,,,,,0.218475073,-0.125366569,0,0,0,,0,93,93,27,1,BUTTER,LB,m,m,./images/BUTTERLB.png,,,,,,,,,,,,,,,,,,,,,,,,,,,,,,,,,,
,,,,,,,,,,,,,,,,,60fc658f2458e31812a4e66d,18,2022-02-12_17h33.24.070,lexical_decision_task_DD_L6,2021.2.3,Win32,60.15761295,,,,,,,,,,,,0.6353,1,,,,,,,,,,,,,,m,1,0.6353,,,,,,,,0.218475073,-0.125366569,0,0,0,,0,94,94,7,1,WAGON,C,m,m,./images/WAGON.png,,,,,,,,,,,,,,,,,,,,,,,,,,,,,,,,,,
,,,,,,,,,,,,,,,,,60fc658f2458e31812a4e66d,18,2022-02-12_17h33.24.070,lexical_decision_task_DD_L6,2021.2.3,Win32,60.15761295,,,,,,,,,,,,1.036,1,,,,,,,,,,,,,,z,1,1.036,,,,,,,,0.218475073,-0.125366569,0,0,0,,0,95,95,112,1,MYING,HB,z,z,./images/MYINGHB.png,,,,,,,,,,,,,,,,,,,,,,,,,,,,,,,,,,
,,,,,,,,,,,,,,,,,60fc658f2458e31812a4e66d,18,2022-02-12_17h33.24.070,lexical_decision_task_DD_L6,2021.2.3,Win32,60.15761295,,,,,,,,,,,,1.0348,0,,,,,,,,,,,,,,m,0,1.0348,,,,,,,,0.218475073,-0.125366569,0,0,0,,0,96,96,110,1,CRUNK,LB,z,z,./images/CRUNKLB.png,,,,,,,,,,,,,,,,,,,,,,,,,,,,,,,,,,
,,,,,,,,,,,,,,,,,60fc658f2458e31812a4e66d,18,2022-02-12_17h33.24.070,lexical_decision_task_DD_L6,2021.2.3,Win32,60.15761295,,,,,,,,,,,,0.6194,1,,,,,,,,,,,,,,m,1,0.6194,,,,,,,,0.218475073,-0.125366569,0,0,0,,0,97,97,9,1,DIVER,LB,m,m,./images/DIVERLB.png,,,,,,,,,,,,,,,,,,,,,,,,,,,,,,,,,,
,,,,,,,,,,,,,,,,,60fc658f2458e31812a4e66d,18,2022-02-12_17h33.24.070,lexical_decision_task_DD_L6,2021.2.3,Win32,60.15761295,,,,,,,,,,,,1.1539,1,,,,,,,,,,,,,,z,1,1.1539,,,,,,,,0.218475073,-0.125366569,0,0,0,,0,98,98,154,1,THINT,HB,z,z,./images/THINTHB.png,,,,,,,,,,,,,,,,,,,,,,,,,,,,,,,,,,
,,,,,,,,,,,,,,,,,60fc658f2458e31812a4e66d,18,2022-02-12_17h33.24.070,lexical_decision_task_DD_L6,2021.2.3,Win32,60.15761295,,,,,,,,,,,,0.7891,1,,,,,,,,,,,,,,m,1,0.7891,,,,,,,,0.218475073,-0.125366569,0,0,0,,0,99,99,20,1,GRANNY,HB,m,m,./images/GRANNYHB.png,,,,,,,,,,,,,,,,,,,,,,,,,,,,,,,,,,
,,,,,,,,,,,,,,,,,60fc658f2458e31812a4e66d,18,2022-02-12_17h33.24.070,lexical_decision_task_DD_L6,2021.2.3,Win32,60.15761295,,,,,,,,,,,,0.5506,1,,,,,,,,,,,,,,m,1,0.5506,,,,,,,,0.218475073,-0.125366569,0,0,0,,0,100,100,31,1,STEAK,C,m,m,./images/STEAK.png,,,,,,,,,,,,,,,,,,,,,,,,,,,,,,,,,,
,,,,,,,,,,,,,,,,,60fc658f2458e31812a4e66d,18,2022-02-12_17h33.24.070,lexical_decision_task_DD_L6,2021.2.3,Win32,60.15761295,,,,,,,,,,,,0.6577,1,,,,,,,,,,,,,,m,1,0.6577,,,,,,,,0.218475073,-0.125366569,0,0,0,,0,101,101,81,1,DRILL,LB,m,m,./images/DRILLLB.png,,,,,,,,,,,,,,,,,,,,,,,,,,,,,,,,,,
,,,,,,,,,,,,,,,,,60fc658f2458e31812a4e66d,18,2022-02-12_17h33.24.070,lexical_decision_task_DD_L6,2021.2.3,Win32,60.15761295,,,,,,,,,,,,1.1353,1,,,,,,,,,,,,,,z,1,1.1353,,,,,,,,0.218475073,-0.125366569,0,0,0,,0,102,102,150,1,NOOLS,C,z,z,./images/NOOLS.png,,,,,,,,,,,,,,,,,,,,,,,,,,,,,,,,,,
,,,,,,,,,,,,,,,,,60fc658f2458e31812a4e66d,18,2022-02-12_17h33.24.070,lexical_decision_task_DD_L6,2021.2.3,Win32,60.15761295,,,,,,,,,,,,0.5499,1,,,,,,,,,,,,,,z,1,0.5499,,,,,,,,0.218475073,-0.125366569,0,0,0,,0,103,103,90,1,NEAST,C,z,z,./images/NEAST.png,,,,,,,,,,,,,,,,,,,,,,,,,,,,,,,,,,
,,,,,,,,,,,,,,,,,60fc658f2458e31812a4e66d,18,2022-02-12_17h33.24.070,lexical_decision_task_DD_L6,2021.2.3,Win32,60.15761295,,,,,,,,,,,,0.5462,1,,,,,,,,,,,,,,z,1,0.5462,,,,,,,,0.218475073,-0.125366569,0,0,0,,0,104,104,131,1,NACES,LB,z,z,./images/NACESLB.png,,,,,,,,,,,,,,,,,,,,,,,,,,,,,,,,,,
,,,,,,,,,,,,,,,,,60fc658f2458e31812a4e66d,18,2022-02-12_17h33.24.070,lexical_decision_task_DD_L6,2021.2.3,Win32,60.15761295,,,,,,,,,,,,0.4683,1,,,,,,,,,,,,,,z,1,0.4683,,,,,,,,0.218475073,-0.125366569,0,0,0,,0,105,105,135,1,JOODY,C,z,z,./images/JOODY.png,,,,,,,,,,,,,,,,,,,,,,,,,,,,,,,,,,
,,,,,,,,,,,,,,,,,60fc658f2458e31812a4e66d,18,2022-02-12_17h33.24.070,lexical_decision_task_DD_L6,2021.2.3,Win32,60.15761295,,,,,,,,,,,,0.568,1,,,,,,,,,,,,,,m,1,0.568,,,,,,,,0.218475073,-0.125366569,0,0,0,,0,106,106,55,1,ALLEY,C,m,m,./images/ALLEY.png,,,,,,,,,,,,,,,,,,,,,,,,,,,,,,,,,,
,,,,,,,,,,,,,,,,,60fc658f2458e31812a4e66d,18,2022-02-12_17h33.24.070,lexical_decision_task_DD_L6,2021.2.3,Win32,60.15761295,,,,,,,,,,,,0.5642,1,,,,,,,,,,,,,,z,1,0.5642,,,,,,,,0.218475073,-0.125366569,0,0,0,,0,107,107,147,1,ZOLES,C,z,z,./images/ZOLES.png,,,,,,,,,,,,,,,,,,,,,,,,,,,,,,,,,,
,,,,,,,,,,,,,,,,,60fc658f2458e31812a4e66d,18,2022-02-12_17h33.24.070,lexical_decision_task_DD_L6,2021.2.3,Win32,60.15761295,,,,,,,,,,,,1.3345,0,,,,,,,,,,,,,,m,0,1.3345,,,,,,,,0.218475073,-0.125366569,0,0,0,,0,108,108,130,1,CRILL,HB,z,z,./images/CRILLHB.png,,,,,,,,,,,,,,,,,,,,,,,,,,,,,,,,,,
,,,,,,,,,,,,,,,,,60fc658f2458e31812a4e66d,18,2022-02-12_17h33.24.070,lexical_decision_task_DD_L6,2021.2.3,Win32,60.15761295,,,,,,,,,,,,0.9854,1,,,,,,,,,,,,,,z,1,0.9854,,,,,,,,0.218475073,-0.125366569,0,0,0,,0,109,109,133,1,POWDY,HB,z,z,./images/POWDYHB.png,,,,,,,,,,,,,,,,,,,,,,,,,,,,,,,,,,
,,,,,,,,,,,,,,,,,60fc658f2458e31812a4e66d,18,2022-02-12_17h33.24.070,lexical_decision_task_DD_L6,2021.2.3,Win32,60.15761295,,,,,,,,,,,,0.4825,1,,,,,,,,,,,,,,m,1,0.4825,,,,,,,,0.218475073,-0.125366569,0,0,0,,0,110,110,22,1,CLOWN,C,m,m,./images/CLOWN.png,,,,,,,,,,,,,,,,,,,,,,,,,,,,,,,,,,
,,,,,,,,,,,,,,,,,60fc658f2458e31812a4e66d,18,2022-02-12_17h33.24.070,lexical_decision_task_DD_L6,2021.2.3,Win32,60.15761295,,,,,,,,,,,,0.8187,1,,,,,,,,,,,,,,z,1,0.8187,,,,,,,,0.218475073,-0.125366569,0,0,0,,0,111,111,106,1,CLUMS,HB,z,z,./images/CLUMSHB.png,,,,,,,,,,,,,,,,,,,,,,,,,,,,,,,,,,
,,,,,,,,,,,,,,,,,60fc658f2458e31812a4e66d,18,2022-02-12_17h33.24.070,lexical_decision_task_DD_L6,2021.2.3,Win32,60.15761295,,,,,,,,,,,,0.5835,1,,,,,,,,,,,,,,m,1,0.5835,,,,,,,,0.218475073,-0.125366569,0,0,0,,0,112,112,46,1,MUMMY,C,m,m,./images/MUMMY.png,,,,,,,,,,,,,,,,,,,,,,,,,,,,,,,,,,
,,,,,,,,,,,,,,,,,60fc658f2458e31812a4e66d,18,2022-02-12_17h33.24.070,lexical_decision_task_DD_L6,2021.2.3,Win32,60.15761295,,,,,,,,,,,,0.7035,1,,,,,,,,,,,,,,z,1,0.7035,,,,,,,,0.218475073,-0.125366569,0,0,0,,0,113,113,149,1,VEASE,LB,z,z,./images/VEASELB.png,,,,,,,,,,,,,,,,,,,,,,,,,,,,,,,,,,
,,,,,,,,,,,,,,,,,60fc658f2458e31812a4e66d,18,2022-02-12_17h33.24.070,lexical_decision_task_DD_L6,2021.2.3,Win32,60.15761295,,,,,,,,,,,,0.6594,1,,,,,,,,,,,,,,z,1,0.6594,,,,,,,,0.218475073,-0.125366569,0,0,0,,0,114,114,165,1,TROWN,C,z,z,./images/TROWN.png,,,,,,,,,,,,,,,,,,,,,,,,,,,,,,,,,,
,,,,,,,,,,,,,,,,,60fc658f2458e31812a4e66d,18,2022-02-12_17h33.24.070,lexical_decision_task_DD_L6,2021.2.3,Win32,60.15761295,,,,,,,,,,,,0.6543,1,,,,,,,,,,,,,,z,1,0.6543,,,,,,,,0.218475073,-0.125366569,0,0,0,,0,115,115,134,1,TROSS,LB,z,z,./images/TROSSLB.png,,,,,,,,,,,,,,,,,,,,,,,,,,,,,,,,,,
,,,,,,,,,,,,,,,,,60fc658f2458e31812a4e66d,18,2022-02-12_17h33.24.070,lexical_decision_task_DD_L6,2021.2.3,Win32,60.15761295,,,,,,,,,,,,0.9498,0,,,,,,,,,,,,,,m,0,0.9498,,,,,,,,0.218475073,-0.125366569,0,0,0,,0,116,116,166,1,SHORY,HB,z,z,./images/SHORYHB.png,,,,,,,,,,,,,,,,,,,,,,,,,,,,,,,,,,
,,,,,,,,,,,,,,,,,60fc658f2458e31812a4e66d,18,2022-02-12_17h33.24.070,lexical_decision_task_DD_L6,2021.2.3,Win32,60.15761295,,,,,,,,,,,,0.5191,1,,,,,,,,,,,,,,m,1,0.5191,,,,,,,,0.218475073,-0.125366569,0,0,0,,0,117,117,1,1,TOWEL,C,m,m,./images/TOWEL.png,,,,,,,,,,,,,,,,,,,,,,,,,,,,,,,,,,
,,,,,,,,,,,,,,,,,60fc658f2458e31812a4e66d,18,2022-02-12_17h33.24.070,lexical_decision_task_DD_L6,2021.2.3,Win32,60.15761295,,,,,,,,,,,,0.5669,1,,,,,,,,,,,,,,m,1,0.5669,,,,,,,,0.218475073,-0.125366569,0,0,0,,0,118,118,40,1,SNAKE,C,m,m,./images/SNAKE.png,,,,,,,,,,,,,,,,,,,,,,,,,,,,,,,,,,
,,,,,,,,,,,,,,,,,60fc658f2458e31812a4e66d,18,2022-02-12_17h33.24.070,lexical_decision_task_DD_L6,2021.2.3,Win32,60.15761295,,,,,,,,,,,,0.7866,1,,,,,,,,,,,,,,m,1,0.7866,,,,,,,,0.218475073,-0.125366569,0,0,0,,0,119,119,77,1,WHEEL,HB,m,m,./images/WHEELHB.png,,,,,,,,,,,,,,,,,,,,,,,,,,,,,,,,,,
,,,,,,,,,,,,,,,,,60fc658f2458e31812a4e66d,18,2022-02-12_17h33.24.070,lexical_decision_task_DD_L6,2021.2.3,Win32,60.15761295,,,,,,,,,,,,0.6128,1,,,,,,,,,,,,,,m,1,0.6128,,,,,,,,0.218475073,-0.125366569,0,0,0,,0,120,120,58,1,CANOE,C,m,m,./images/CANOE.png,,,,,,,,,,,,,,,,,,,,,,,,,,,,,,,,,,
,,,,,,,,,,,,,,,,,60fc658f2458e31812a4e66d,18,2022-02-12_17h33.24.070,lexical_decision_task_DD_L6,2021.2.3,Win32,60.15761295,,,,,,,,,,,,0.9736,1,,,,,,,,,,,,,,m,1,0.9736,,,,,,,,0.218475073,-0.125366569,0,0,0,,0,121,121,53,1,POSTER,HB,m,m,./images/POSTERHB.png,,,,,,,,,,,,,,,,,,,,,,,,,,,,,,,,,,
,,,,,,,,,,,,,,,,,60fc658f2458e31812a4e66d,18,2022-02-12_17h33.24.070,lexical_decision_task_DD_L6,2021.2.3,Win32,60.15761295,,,,,,,,,,,,0.6833,1,,,,,,,,,,,,,,z,1,0.6833,,,,,,,,0.218475073,-0.125366569,0,0,0,,0,122,122,92,1,PAIMS,LB,z,z,./images/PAIMSLB.png,,,,,,,,,,,,,,,,,,,,,,,,,,,,,,,,,,
,,,,,,,,,,,,,,,,,60fc658f2458e31812a4e66d,18,2022-02-12_17h33.24.070,lexical_decision_task_DD_L6,2021.2.3,Win32,60.15761295,,,,,,,,,,,,0.8853,1,,,,,,,,,,,,,,z,1,0.8853,,,,,,,,0.218475073,-0.125366569,0,0,0,,0,123,123,124,1,TUNCH,HB,z,z,./images/TUNCHHB.png,,,,,,,,,,,,,,,,,,,,,,,,,,,,,,,,,,
,,,,,,,,,,,,,,,,,60fc658f2458e31812a4e66d,18,2022-02-12_17h33.24.070,lexical_decision_task_DD_L6,2021.2.3,Win32,60.15761295,,,,,,,,,,,,0.7054,1,,,,,,,,,,,,,,z,1,0.7054,,,,,,,,0.218475073,-0.125366569,0,0,0,,0,124,124,122,1,BLOOT,LB,z,z,./images/BLOOTLB.png,,,,,,,,,,,,,,,,,,,,,,,,,,,,,,,,,,
,,,,,,,,,,,,,,,,,60fc658f2458e31812a4e66d,18,2022-02-12_17h33.24.070,lexical_decision_task_DD_L6,2021.2.3,Win32,60.15761295,,,,,,,,,,,,0.6169,0,,,,,,,,,,,,,,z,0,0.6169,,,,,,,,0.218475073,-0.125366569,0,0,0,space,0,125,125,79,1,RULER,C,m,m,./images/RULER.png,4.9213,,,,,,,,,,,,,,,,,,,,,,,,,,,,,,,,,
,,,,,,,,,,,,,,,,,60fc658f2458e31812a4e66d,18,2022-02-12_17h33.24.070,lexical_decision_task_DD_L6,2021.2.3,Win32,60.15761295,,,,,,,,,,,,0.5094,1,,,,,,,,,,,,,,m,1,0.5094,,,,,,,,0.218475073,-0.125366569,0,0,0,,0,126,126,66,1,STATUE,LB,m,m,./images/STATUELB.png,,,,,,,,,,,,,,,,,,,,,,,,,,,,,,,,,,
,,,,,,,,,,,,,,,,,60fc658f2458e31812a4e66d,18,2022-02-12_17h33.24.070,lexical_decision_task_DD_L6,2021.2.3,Win32,60.15761295,,,,,,,,,,,,0.443,1,,,,,,,,,,,,,,m,1,0.443,,,,,,,,0.218475073,-0.125366569,0,0,0,,0,127,127,25,1,CHALK,C,m,m,./images/CHALK.png,,,,,,,,,,,,,,,,,,,,,,,,,,,,,,,,,,
,,,,,,,,,,,,,,,,,60fc658f2458e31812a4e66d,18,2022-02-12_17h33.24.070,lexical_decision_task_DD_L6,2021.2.3,Win32,60.15761295,,,,,,,,,,,,1.0681,0,,,,,,,,,,,,,,m,0,1.0681,,,,,,,,0.218475073,-0.125366569,0,0,0,,0,128,128,104,1,GITTY,LB,z,z,./images/GITTYLB.png,,,,,,,,,,,,,,,,,,,,,,,,,,,,,,,,,,
,,,,,,,,,,,,,,,,,60fc658f2458e31812a4e66d,18,2022-02-12_17h33.24.070,lexical_decision_task_DD_L6,2021.2.3,Win32,60.15761295,,,,,,,,,,,,0.5771,1,,,,,,,,,,,,,,z,1,0.5771,,,,,,,,0.218475073,-0.125366569,0,0,0,,0,129,129,129,1,PRANS,C,z,z,./images/PRANS.png,,,,,,,,,,,,,,,,,,,,,,,,,,,,,,,,,,
,,,,,,,,,,,,,,,,,60fc658f2458e31812a4e66d,18,2022-02-12_17h33.24.070,lexical_decision_task_DD_L6,2021.2.3,Win32,60.15761295,,,,,,,,,,,,0.4984,1,,,,,,,,,,,,,,z,1,0.4984,,,,,,,,0.218475073,-0.125366569,0,0,0,,0,130,130,162,1,LEICH,C,z,z,./images/LEICH.png,,,,,,,,,,,,,,,,,,,,,,,,,,,,,,,,,,
,,,,,,,,,,,,,,,,,60fc658f2458e31812a4e66d,18,2022-02-12_17h33.24.070,lexical_decision_task_DD_L6,2021.2.3,Win32,60.15761295,,,,,,,,,,,,0.552,1,,,,,,,,,,,,,,m,1,0.552,,,,,,,,0.218475073,-0.125366569,0,0,0,,0,131,131,64,1,BRIDE,C,m,m,./images/BRIDE.png,,,,,,,,,,,,,,,,,,,,,,,,,,,,,,,,,,
,,,,,,,,,,,,,,,,,60fc658f2458e31812a4e66d,18,2022-02-12_17h33.24.070,lexical_decision_task_DD_L6,2021.2.3,Win32,60.15761295,,,,,,,,,,,,0.5846,1,,,,,,,,,,,,,,m,1,0.5846,,,,,,,,0.218475073,-0.125366569,0,0,0,,0,132,132,32,1,HOCKEY,HB,m,m,./images/HOCKEYHB.png,,,,,,,,,,,,,,,,,,,,,,,,,,,,,,,,,,
,,,,,,,,,,,,,,,,,60fc658f2458e31812a4e66d,18,2022-02-12_17h33.24.070,lexical_decision_task_DD_L6,2021.2.3,Win32,60.15761295,,,,,,,,,,,,0.665,1,,,,,,,,,,,,,,m,1,0.665,,,,,,,,0.218475073,-0.125366569,0,0,0,,0,133,133,38,1,ENGINE,HB,m,m,./images/ENGINEHB.png,,,,,,,,,,,,,,,,,,,,,,,,,,,,,,,,,,
,,,,,,,,,,,,,,,,,60fc658f2458e31812a4e66d,18,2022-02-12_17h33.24.070,lexical_decision_task_DD_L6,2021.2.3,Win32,60.15761295,,,,,,,,,,,,0.4464,1,,,,,,,,,,,,,,m,1,0.4464,,,,,,,,0.218475073,-0.125366569,0,0,0,,0,134,134,61,1,ARTIST,C,m,m,./images/ARTIST.png,,,,,,,,,,,,,,,,,,,,,,,,,,,,,,,,,,
,,,,,,,,,,,,,,,,,60fc658f2458e31812a4e66d,18,2022-02-12_17h33.24.070,lexical_decision_task_DD_L6,2021.2.3,Win32,60.15761295,,,,,,,,,,,,0.4909,1,,,,,,,,,,,,,,m,1,0.4909,,,,,,,,0.218475073,-0.125366569,0,0,0,,0,135,135,70,1,BANANA,C,m,m,./images/BANANA.png,,,,,,,,,,,,,,,,,,,,,,,,,,,,,,,,,,
,,,,,,,,,,,,,,,,,60fc658f2458e31812a4e66d,18,2022-02-12_17h33.24.070,lexical_decision_task_DD_L6,2021.2.3,Win32,60.15761295,,,,,,,,,,,,0.5347,1,,,,,,,,,,,,,,m,1,0.5347,,,,,,,,0.218475073,-0.125366569,0,0,0,,0,136,136,59,1,BRUSH,HB,m,m,./images/BRUSHHB.png,,,,,,,,,,,,,,,,,,,,,,,,,,,,,,,,,,
,,,,,,,,,,,,,,,,,60fc658f2458e31812a4e66d,18,2022-02-12_17h33.24.070,lexical_decision_task_DD_L6,2021.2.3,Win32,60.15761295,,,,,,,,,,,,0.975,1,,,,,,,,,,,,,,z,1,0.975,,,,,,,,0.218475073,-0.125366569,0,0,0,,0,137,137,94,1,BLANS,HB,z,z,./images/BLANSHB.png,,,,,,,,,,,,,,,,,,,,,,,,,,,,,,,,,,
,,,,,,,,,,,,,,,,,60fc658f2458e31812a4e66d,18,2022-02-12_17h33.24.070,lexical_decision_task_DD_L6,2021.2.3,Win32,60.15761295,,,,,,,,,,,,0.5606,1,,,,,,,,,,,,,,m,1,0.5606,,,,,,,,0.218475073,-0.125366569,0,0,0,,0,138,138,47,1,LAGOON,HB,m,m,./images/LAGOONHB.png,,,,,,,,,,,,,,,,,,,,,,,,,,,,,,,,,,
,,,,,,,,,,,,,,,,,60fc658f2458e31812a4e66d,18,2022-02-12_17h33.24.070,lexical_decision_task_DD_L6,2021.2.3,Win32,60.15761295,,,,,,,,,,,,0.5089,1,,,,,,,,,,,,,,m,1,0.5089,,,,,,,,0.218475073,-0.125366569,0,0,0,,0,139,139,28,1,CASINO,C,m,m,./images/CASINO.png,,,,,,,,,,,,,,,,,,,,,,,,,,,,,,,,,,
,,,,,,,,,,,,,,,,,60fc658f2458e31812a4e66d,18,2022-02-12_17h33.24.070,lexical_decision_task_DD_L6,2021.2.3,Win32,60.15761295,,,,,,,,,,,,0.6901,1,,,,,,,,,,,,,,z,1,0.6901,,,,,,,,0.218475073,-0.125366569,0,0,0,,0,140,140,138,1,PLICE,C,z,z,./images/PLICE.png,,,,,,,,,,,,,,,,,,,,,,,,,,,,,,,,,,
,,,,,,,,,,,,,,,,,60fc658f2458e31812a4e66d,18,2022-02-12_17h33.24.070,lexical_decision_task_DD_L6,2021.2.3,Win32,60.15761295,,,,,,,,,,,,0.6447,1,,,,,,,,,,,,,,m,1,0.6447,,,,,,,,0.218475073,-0.125366569,0,0,0,,0,141,141,71,1,BUBBLE,HB,m,m,./images/BUBBLEHB.png,,,,,,,,,,,,,,,,,,,,,,,,,,,,,,,,,,
,,,,,,,,,,,,,,,,,60fc658f2458e31812a4e66d,18,2022-02-12_17h33.24.070,lexical_decision_task_DD_L6,2021.2.3,Win32,60.15761295,,,,,,,,,,,,1.1169,1,,,,,,,,,,,,,,z,1,1.1169,,,,,,,,0.218475073,-0.125366569,0,0,0,,0,142,142,85,1,CHULK,HB,z,z,./images/CHULKHB.png,,,,,,,,,,,,,,,,,,,,,,,,,,,,,,,,,,
,,,,,,,,,,,,,,,,,60fc658f2458e31812a4e66d,18,2022-02-12_17h33.24.070,lexical_decision_task_DD_L6,2021.2.3,Win32,60.15761295,,,,,,,,,,,,1.3963,1,,,,,,,,,,,,,,z,1,1.3963,,,,,,,,0.218475073,-0.125366569,0,0,0,,0,143,143,151,1,TINKY,HB,z,z,./images/TINKYHB.png,,,,,,,,,,,,,,,,,,,,,,,,,,,,,,,,,,
,,,,,,,,,,,,,,,,,60fc658f2458e31812a4e66d,18,2022-02-12_17h33.24.070,lexical_decision_task_DD_L6,2021.2.3,Win32,60.15761295,,,,,,,,,,,,0.6995,1,,,,,,,,,,,,,,z,1,0.6995,,,,,,,,0.218475073,-0.125366569,0,0,0,,0,144,144,120,1,RINED,C,z,z,./images/RINED.png,,,,,,,,,,,,,,,,,,,,,,,,,,,,,,,,,,
,,,,,,,,,,,,,,,,,60fc658f2458e31812a4e66d,18,2022-02-12_17h33.24.070,lexical_decision_task_DD_L6,2021.2.3,Win32,60.15761295,,,,,,,,,,,,1.0639,1,,,,,,,,,,,,,,z,1,1.0639,,,,,,,,0.218475073,-0.125366569,0,0,0,,0,145,145,91,1,SHENS,HB,z,z,./images/SHENSHB.png,,,,,,,,,,,,,,,,,,,,,,,,,,,,,,,,,,
,,,,,,,,,,,,,,,,,60fc658f2458e31812a4e66d,18,2022-02-12_17h33.24.070,lexical_decision_task_DD_L6,2021.2.3,Win32,60.15761295,,,,,,,,,,,,0.5617,1,,,,,,,,,,,,,,z,1,0.5617,,,,,,,,0.218475073,-0.125366569,0,0,0,,0,146,146,86,1,AIFED,LB,z,z,./images/AIFEDLB.png,,,,,,,,,,,,,,,,,,,,,,,,,,,,,,,,,,
,,,,,,,,,,,,,,,,,60fc658f2458e31812a4e66d,18,2022-02-12_17h33.24.070,lexical_decision_task_DD_L6,2021.2.3,Win32,60.15761295,,,,,,,,,,,,0.5611,1,,,,,,,,,,,,,,z,1,0.5611,,,,,,,,0.218475073,-0.125366569,0,0,0,,0,147,147,117,1,STEEG,C,z,z,./images/STEEG.png,,,,,,,,,,,,,,,,,,,,,,,,,,,,,,,,,,
,,,,,,,,,,,,,,,,,60fc658f2458e31812a4e66d,18,2022-02-12_17h33.24.070,lexical_decision_task_DD_L6,2021.2.3,Win32,60.15761295,,,,,,,,,,,,0.7513,1,,,,,,,,,,,,,,m,1,0.7513,,,,,,,,0.218475073,-0.125366569,0,0,0,,0,148,148,56,1,HEATER,HB,m,m,./images/HEATERHB.png,,,,,,,,,,,,,,,,,,,,,,,,,,,,,,,,,,
,,,,,,,,,,,,,,,,,60fc658f2458e31812a4e66d,18,2022-02-12_17h33.24.070,lexical_decision_task_DD_L6,2021.2.3,Win32,60.15761295,,,,,,,,,,,,0.9544,1,,,,,,,,,,,,,,z,1,0.9544,,,,,,,,0.218475073,-0.125366569,0,0,0,,0,149,149,127,1,NINDY,HB,z,z,./images/NINDYHB.png,,,,,,,,,,,,,,,,,,,,,,,,,,,,,,,,,,
,,,,,,,,,,,,,,,,,60fc658f2458e31812a4e66d,18,2022-02-12_17h33.24.070,lexical_decision_task_DD_L6,2021.2.3,Win32,60.15761295,,,,,,,,,,,,0.6835,1,,,,,,,,,,,,,,m,1,0.6835,,,,,,,,0.218475073,-0.125366569,0,0,0,,0,150,150,5,1,BAMBOO,HB,m,m,./images/BAMBOOHB.png,,,,,,,,,,,,,,,,,,,,,,,,,,,,,,,,,,
,,,,,,,,,,,,,,,,,60fc658f2458e31812a4e66d,18,2022-02-12_17h33.24.070,lexical_decision_task_DD_L6,2021.2.3,Win32,60.15761295,,,,,,,,,,,,0.5748,1,,,,,,,,,,,,,,z,1,0.5748,,,,,,,,0.218475073,-0.125366569,0,0,0,,0,151,151,160,1,VEETS,HB,z,z,./images/VEETSHB.png,,,,,,,,,,,,,,,,,,,,,,,,,,,,,,,,,,
,,,,,,,,,,,,,,,,,60fc658f2458e31812a4e66d,18,2022-02-12_17h33.24.070,lexical_decision_task_DD_L6,2021.2.3,Win32,60.15761295,,,,,,,,,,,,0.6405,1,,,,,,,,,,,,,,m,1,0.6405,,,,,,,,0.218475073,-0.125366569,0,0,0,,0,152,152,82,1,PEBBLE,C,m,m,./images/PEBBLE.png,,,,,,,,,,,,,,,,,,,,,,,,,,,,,,,,,,
,,,,,,,,,,,,,,,,,60fc658f2458e31812a4e66d,18,2022-02-12_17h33.24.070,lexical_decision_task_DD_L6,2021.2.3,Win32,60.15761295,,,,,,,,,,,,1.0117,1,,,,,,,,,,,,,,z,1,1.0117,,,,,,,,0.218475073,-0.125366569,0,0,0,,0,153,153,136,1,WERVE,HB,z,z,./images/WERVEHB.png,,,,,,,,,,,,,,,,,,,,,,,,,,,,,,,,,,
,,,,,,,,,,,,,,,,,60fc658f2458e31812a4e66d,18,2022-02-12_17h33.24.070,lexical_decision_task_DD_L6,2021.2.3,Win32,60.15761295,,,,,,,,,,,,0.6994,1,,,,,,,,,,,,,,m,1,0.6994,,,,,,,,0.218475073,-0.125366569,0,0,0,,0,154,154,30,1,SLOPE,LB,m,m,./images/SLOPELB.png,,,,,,,,,,,,,,,,,,,,,,,,,,,,,,,,,,
,,,,,,,,,,,,,,,,,60fc658f2458e31812a4e66d,18,2022-02-12_17h33.24.070,lexical_decision_task_DD_L6,2021.2.3,Win32,60.15761295,,,,,,,,,,,,0.7528,1,,,,,,,,,,,,,,z,1,0.7528,,,,,,,,0.218475073,-0.125366569,0,0,0,,0,155,155,118,1,BAVEL,HB,z,z,./images/BAVELHB.png,,,,,,,,,,,,,,,,,,,,,,,,,,,,,,,,,,
,,,,,,,,,,,,,,,,,60fc658f2458e31812a4e66d,18,2022-02-12_17h33.24.070,lexical_decision_task_DD_L6,2021.2.3,Win32,60.15761295,,,,,,,,,,,,0.7112,1,,,,,,,,,,,,,,m,1,0.7112,,,,,,,,0.218475073,-0.125366569,0,0,0,,0,156,156,16,1,GRAPE,C,m,m,./images/GRAPE.png,,,,,,,,,,,,,,,,,,,,,,,,,,,,,,,,,,
,,,,,,,,,,,,,,,,,60fc658f2458e31812a4e66d,18,2022-02-12_17h33.24.070,lexical_decision_task_DD_L6,2021.2.3,Win32,60.15761295,,,,,,,,,,,,0.5902,1,,,,,,,,,,,,,,m,1,0.5902,,,,,,,,0.218475073,-0.125366569,0,0,0,,0,157,157,2,1,STOVE,HB,m,m,./images/STOVEHB.png,,,,,,,,,,,,,,,,,,,,,,,,,,,,,,,,,,
,,,,,,,,,,,,,,,,,60fc658f2458e31812a4e66d,18,2022-02-12_17h33.24.070,lexical_decision_task_DD_L6,2021.2.3,Win32,60.15761295,,,,,,,,,,,,0.6822,1,,,,,,,,,,,,,,z,1,0.6822,,,,,,,,0.218475073,-0.125366569,0,0,0,,0,158,158,109,1,BURGE,HB,z,z,./images/BURGEHB.png,,,,,,,,,,,,,,,,,,,,,,,,,,,,,,,,,,
,,,,,,,,,,,,,,,,,60fc658f2458e31812a4e66d,18,2022-02-12_17h33.24.070,lexical_decision_task_DD_L6,2021.2.3,Win32,60.15761295,,,,,,,,,,,,1.121,1,,,,,,,,,,,,,,z,1,1.121,,,,,,,,0.218475073,-0.125366569,0,0,0,,0,159,159,157,1,INLER,HB,z,z,./images/INLERHB.png,,,,,,,,,,,,,,,,,,,,,,,,,,,,,,,,,,
,,,,,,,,,,,,,,,,,60fc658f2458e31812a4e66d,18,2022-02-12_17h33.24.070,lexical_decision_task_DD_L6,2021.2.3,Win32,60.15761295,,,,,,,,,,,,0.5785,1,,,,,,,,,,,,,,z,1,0.5785,,,,,,,,0.218475073,-0.125366569,0,0,0,,0,160,160,167,1,ZONET,LB,z,z,./images/ZONETLB.png,,,,,,,,,,,,,,,,,,,,,,,,,,,,,,,,,,
,,,,,,,,,,,,,,,,,60fc658f2458e31812a4e66d,18,2022-02-12_17h33.24.070,lexical_decision_task_DD_L6,2021.2.3,Win32,60.15761295,,,,,,,,,,,,0.5104,1,,,,,,,,,,,,,,z,1,0.5104,,,,,,,,0.218475073,-0.125366569,0,0,0,,0,161,161,140,1,DOVET,LB,z,z,./images/DOVETLB.png,,,,,,,,,,,,,,,,,,,,,,,,,,,,,,,,,,
,,,,,,,,,,,,,,,,,60fc658f2458e31812a4e66d,18,2022-02-12_17h33.24.070,lexical_decision_task_DD_L6,2021.2.3,Win32,60.15761295,,,,,,,,,,,,0.6963,1,,,,,,,,,,,,,,m,1,0.6963,,,,,,,,0.218475073,-0.125366569,0,0,0,,0,162,162,62,1,MAMMAL,HB,m,m,./images/MAMMALHB.png,,,,,,,,,,,,,,,,,,,,,,,,,,,,,,,,,,
,,,,,,,,,,,,,,,,,60fc658f2458e31812a4e66d,18,2022-02-12_17h33.24.070,lexical_decision_task_DD_L6,2021.2.3,Win32,60.15761295,,,,,,,,,,,,0.8621,1,,,,,,,,,,,,,,m,1,0.8621,,,,,,,,0.218475073,-0.125366569,0,0,0,,0,163,163,12,1,BLOKE,LB,m,m,./images/BLOKELB.png,,,,,,,,,,,,,,,,,,,,,,,,,,,,,,,,,,
,,,,,,,,,,,,,,,,,60fc658f2458e31812a4e66d,18,2022-02-12_17h33.24.070,lexical_decision_task_DD_L6,2021.2.3,Win32,60.15761295,,,,,,,,,,,,0.5869,1,,,,,,,,,,,,,,z,1,0.5869,,,,,,,,0.218475073,-0.125366569,0,0,0,,0,164,164,98,1,BAMPS,LB,z,z,./images/BAMPSLB.png,,,,,,,,,,,,,,,,,,,,,,,,,,,,,,,,,,
,,,,,,,,,,,,,,,,,60fc658f2458e31812a4e66d,18,2022-02-12_17h33.24.070,lexical_decision_task_DD_L6,2021.2.3,Win32,60.15761295,,,,,,,,,,,,0.595,1,,,,,,,,,,,,,,z,1,0.595,,,,,,,,0.218475073,-0.125366569,0,0,0,,0,165,165,89,1,DRIEK,LB,z,z,./images/DRIEKLB.png,,,,,,,,,,,,,,,,,,,,,,,,,,,,,,,,,,
,,,,,,,,,,,,,,,,,60fc658f2458e31812a4e66d,18,2022-02-12_17h33.24.070,lexical_decision_task_DD_L6,2021.2.3,Win32,60.15761295,,,,,,,,,,,,0.8655,1,,,,,,,,,,,,,,z,1,0.8655,,,,,,,,0.218475073,-0.125366569,0,0,0,,0,166,166,115,1,MAWNS,HB,z,z,./images/MAWNSHB.png,,,,,,,,,,,,,,,,,,,,,,,,,,,,,,,,,,
,,,,,,,,,,,,,,,,,60fc658f2458e31812a4e66d,18,2022-02-12_17h33.24.070,lexical_decision_task_DD_L6,2021.2.3,Win32,60.15761295,,,,,,,,,,,,0.7449,1,,,,,,,,,,,,,,m,1,0.7449,,,,,,,,0.218475073,-0.125366569,0,0,0,,0,167,167,74,1,JUMPER,HB,m,m,./images/JUMPERHB.png,,,,,,,,,,,,,,,,,,,,,,,,,,,,,,,,,,
,,,,,,,,,,,,,,,,,60fc658f2458e31812a4e66d,18,2022-02-12_17h33.24.070,lexical_decision_task_DD_L6,2021.2.3,Win32,60.15761295,,,,,,,,,,,,,,,,,,,,,,,,,,,,,,,,,,,,,,,,,,,,,,,,,How likely will it be that you will recognize the words presented very blurred on a scale of 0 (not likely) to 100 (most likely)?,,,,,-0.010997067,-0.401759531,1,0,0,jol_adv,2,10.3459,0,0,0,2,1,,,,,,,,,,,,,,,,,,,,
,,,,,,,,,,,,,,,,,60fc658f2458e31812a4e66d,18,2022-02-12_17h33.24.070,lexical_decision_task_DD_L6,2021.2.3,Win32,60.15761295,,,,,,,,,,,,,,,,,,,,,,,,,,,,,,,,,,,,,,,,,,,,,,,,,How likely will it be that you will recognize the words presented clearly on a scale of 0 (not likely) to 100 (most likely)?,,,,,,,,,,,6,4.9454,0,1,1,0,1,,,,,,,,,,,,,,,,,,,,
,,,,,,,,,,,,,,,,,60fc658f2458e31812a4e66d,18,2022-02-12_17h33.24.070,lexical_decision_task_DD_L6,2021.2.3,Win32,60.15761295,,,,,,,,,,,,,,,,,,,,,,,,,,,,,,,,,,,,,,,,,,,,,,,,,How likely will it be that you will recognize the words presented slighly blurred on a scale of 0 (not likely) to 100 (most likely)?,,,,,,,,,,,5,3.9568,0,2,2,1,1,,,,,,,,,,,,,,,,,,,,
space,0.10483871,-0.403225806,0,0,0,,,,,,,1,test,"In the next phase you will be presented with the words from the the first phase. Your job is to decide whether you remember seeing the word or not. If you remember seeing the word press ""old"" or type ""m"". If you do not remember seeing the word press ""new"" or type ""z"". Please press the space bar or click on continue to begin. ",,,60fc658f2458e31812a4e66d,18,2022-02-12_17h33.24.070,lexical_decision_task_DD_L6,2021.2.3,Win32,60.15761295,15.2934,,,,,,,,,,,,,,,,,,,,,,,,,,,,,,,,,,,,,,,,,,,,,,,,,,,,,,,,,,,,,,,,,,0,0,0,0,1,,,,,,,,,,,,,,,
space,0.10483871,-0.403225806,0,0,0,,,,,,,1,test,"In the next phase you will be presented with the words from the the first phase. Your job is to decide whether you remember seeing the word or not. If you remember seeing the word press ""old"" or type ""m"". If you do not remember seeing the word press ""new"" or type ""z"". Please press the space bar or click on continue to begin. ",,,60fc658f2458e31812a4e66d,18,2022-02-12_17h33.24.070,lexical_decision_task_DD_L6,2021.2.3,Win32,60.15761295,2.8182,,,,,,,,,,,,,,,,,,,,,,,,,,,,,,,,,,,,,,,,,,,,,,,,,,,,,,,,,,,,,,,,,,1,0,1,0,1,,,,,,,,,,,,,,,
,0.104105572,-0.403225806,1,0,0,instr_done_button,,,,,,1,test,"In the next phase you will be presented with the words from the the first phase. Your job is to decide whether you remember seeing the word or not. If you remember seeing the word press ""old"" or type ""m"". If you do not remember seeing the word press ""new"" or type ""z"". Please press the space bar or click on continue to begin. ",,,60fc658f2458e31812a4e66d,18,2022-02-12_17h33.24.070,lexical_decision_task_DD_L6,2021.2.3,Win32,60.15761295,,,,,,,,,,,,,,,,,,,,,,,,,,,,,,,,,,,,,,,,,,,,,,,,,,,,,,,,,,,,,,,,,,,2,0,2,0,1,,,,,,,,,,,,,,,
space,0.189882698,0.453812317,0,0,0,,,,,,,1,test,"In the next phase you will be presented with the words from the the first phase. Your job is to decide whether you remember seeing the word or not. If you remember seeing the word press ""old"" or type ""m"". If you do not remember seeing the word press ""new"" or type ""z"". Please press the space bar or click on continue to begin. ",,,60fc658f2458e31812a4e66d,18,2022-02-12_17h33.24.070,lexical_decision_task_DD_L6,2021.2.3,Win32,60.15761295,3.4868,,,,,,,,,,,,,,,,,,,,,,,,,,,,,,,,,,,,,,,,,,,,,,,,,,,,,,,,,,,,,,,,,,3,0,3,0,1,,,,,,,,,,,,,,,
space,0.189882698,0.453812317,0,0,0,,,,,,,1,test,"In the next phase you will be presented with the words from the the first phase. Your job is to decide whether you remember seeing the word or not. If you remember seeing the word press ""old"" or type ""m"". If you do not remember seeing the word press ""new"" or type ""z"". Please press the space bar or click on continue to begin. ",,,60fc658f2458e31812a4e66d,18,2022-02-12_17h33.24.070,lexical_decision_task_DD_L6,2021.2.3,Win32,60.15761295,1.0225,,,,,,,,,,,,,,,,,,,,,,,,,,,,,,,,,,,,,,,,,,,,,,,,,,,,,,,,,,,,,,,,,,4,0,4,0,1,,,,,,,,,,,,,,,
,,,,,,,,,,,,,,,,,60fc658f2458e31812a4e66d,18,2022-02-12_17h33.24.070,lexical_decision_task_DD_L6,2021.2.3,Win32,60.15761295,,,,,,,,,,,,1.4232,1,,,,,,,,,,,,,,,,,,,,,,,,0.189882698,0.453812317,0,0,0,,,,,,,CHALK,C,m,y,./images/CHALK.png,,,,,,,,,,,,,,,,,,,,m,1,1.4232,,,,,,,,0,0,0,25,1
,,,,,,,,,,,,,,,,,60fc658f2458e31812a4e66d,18,2022-02-12_17h33.24.070,lexical_decision_task_DD_L6,2021.2.3,Win32,60.15761295,,,,,,,,,,,,1.0142,1,,,,,,,,,,,,,,,,,,,,,,,,0.189882698,0.453812317,0,0,0,,,,,,,CHAIN,LB,m,y,./images/CHAINLB.png,,,,,,,,,,,,,,,,,,,,m,1,1.0142,,,,,,,,0,1,1,42,1
,,,,,,,,,,,,,,,,,60fc658f2458e31812a4e66d,18,2022-02-12_17h33.24.070,lexical_decision_task_DD_L6,2021.2.3,Win32,60.15761295,,,,,,,,,,,,0.9974,1,,,,,,,,,,,,,,,,,,,,,,,,0.189882698,0.453812317,0,0,0,,,,,,,CRATER,LB,m,y,./images/CRATERLB.png,,,,,,,,,,,,,,,,,,,,m,1,0.9974,,,,,,,,0,2,2,3,1
,,,,,,,,,,,,,,,,,60fc658f2458e31812a4e66d,18,2022-02-12_17h33.24.070,lexical_decision_task_DD_L6,2021.2.3,Win32,60.15761295,,,,,,,,,,,,0.8585,1,,,,,,,,,,,,,,,,,,,,,,,,0.189882698,0.453812317,0,0,0,,,,,,,PAINT,C,z,y,./images/PAINT.png,,,,,,,,,,,,,,,,,,,,z,1,0.8585,,,,,,,,0,3,3,91,1
,,,,,,,,,,,,,,,,,60fc658f2458e31812a4e66d,18,2022-02-12_17h33.24.070,lexical_decision_task_DD_L6,2021.2.3,Win32,60.15761295,,,,,,,,,,,,1.6968,1,,,,,,,,,,,,,,,,,,,,,,,,0.189882698,0.453812317,0,0,0,,,,,,,DRILL,LB,m,y,./images/DRILLLB.png,,,,,,,,,,,,,,,,,,,,m,1,1.6968,,,,,,,,0,4,4,81,1
,,,,,,,,,,,,,,,,,60fc658f2458e31812a4e66d,18,2022-02-12_17h33.24.070,lexical_decision_task_DD_L6,2021.2.3,Win32,60.15761295,,,,,,,,,,,,1.3023,0,,,,,,,,,,,,,,,,,,,,,,,,0.189882698,0.453812317,0,0,0,,,,,,,MAGGOT,LB,z,y,./images/MAGGOTLB.png,,,,,,,,,,,,,,,,,,,,m,0,1.3023,,,,,,,,0,5,5,117,1
,,,,,,,,,,,,,,,,,60fc658f2458e31812a4e66d,18,2022-02-12_17h33.24.070,lexical_decision_task_DD_L6,2021.2.3,Win32,60.15761295,,,,,,,,,,,,0.8349,0,,,,,,,,,,,,,,,,,,,,,,,,0.189882698,0.453812317,0,0,0,,,,,,,STOOL,C,m,y,./images/STOOL.png,,,,,,,,,,,,,,,,,,,,z,0,0.8349,,,,,,,,0,6,6,43,1
,,,,,,,,,,,,,,,,,60fc658f2458e31812a4e66d,18,2022-02-12_17h33.24.070,lexical_decision_task_DD_L6,2021.2.3,Win32,60.15761295,,,,,,,,,,,,0.6618,1,,,,,,,,,,,,,,,,,,,,,,,,0.189882698,0.453812317,0,0,0,,,,,,,FALCON,C,z,y,./images/FALCON.png,,,,,,,,,,,,,,,,,,,,z,1,0.6618,,,,,,,,0,7,7,112,1
,,,,,,,,,,,,,,,,,60fc658f2458e31812a4e66d,18,2022-02-12_17h33.24.070,lexical_decision_task_DD_L6,2021.2.3,Win32,60.15761295,,,,,,,,,,,,0.8635,1,,,,,,,,,,,,,,,,,,,,,,,,0.189882698,0.453812317,0,0,0,,,,,,,STAIN,LB,m,y,./images/STAINLB.png,,,,,,,,,,,,,,,,,,,,m,1,0.8635,,,,,,,,0,8,8,6,1
,,,,,,,,,,,,,,,,,60fc658f2458e31812a4e66d,18,2022-02-12_17h33.24.070,lexical_decision_task_DD_L6,2021.2.3,Win32,60.15761295,,,,,,,,,,,,0.6544,1,,,,,,,,,,,,,,,,,,,,,,,,0.189882698,0.453812317,0,0,0,,,,,,,POSTER,HB,m,y,./images/POSTERHB.png,,,,,,,,,,,,,,,,,,,,m,1,0.6544,,,,,,,,0,9,9,53,1
,,,,,,,,,,,,,,,,,60fc658f2458e31812a4e66d,18,2022-02-12_17h33.24.070,lexical_decision_task_DD_L6,2021.2.3,Win32,60.15761295,,,,,,,,,,,,0.8669,1,,,,,,,,,,,,,,,,,,,,,,,,0.189882698,0.453812317,0,0,0,,,,,,,POODLE,LB,z,y,./images/POODLELB.png,,,,,,,,,,,,,,,,,,,,z,1,0.8669,,,,,,,,0,10,10,165,1
,,,,,,,,,,,,,,,,,60fc658f2458e31812a4e66d,18,2022-02-12_17h33.24.070,lexical_decision_task_DD_L6,2021.2.3,Win32,60.15761295,,,,,,,,,,,,0.65,1,,,,,,,,,,,,,,,,,,,,,,,,0.189882698,0.453812317,0,0,0,,,,,,,PEACH,HB,z,y,./images/PEACHHB.png,,,,,,,,,,,,,,,,,,,,z,1,0.65,,,,,,,,0,11,11,119,1
,,,,,,,,,,,,,,,,,60fc658f2458e31812a4e66d,18,2022-02-12_17h33.24.070,lexical_decision_task_DD_L6,2021.2.3,Win32,60.15761295,,,,,,,,,,,,0.6533,1,,,,,,,,,,,,,,,,,,,,,,,,0.189882698,0.453812317,0,0,0,,,,,,,CANDY,LB,m,y,./images/CANDYLB.png,,,,,,,,,,,,,,,,,,,,m,1,0.6533,,,,,,,,0,12,12,39,1
,,,,,,,,,,,,,,,,,60fc658f2458e31812a4e66d,18,2022-02-12_17h33.24.070,lexical_decision_task_DD_L6,2021.2.3,Win32,60.15761295,,,,,,,,,,,,1.0666,1,,,,,,,,,,,,,,,,,,,,,,,,0.189882698,0.453812317,0,0,0,,,,,,,SLOPE,LB,m,y,./images/SLOPELB.png,,,,,,,,,,,,,,,,,,,,m,1,1.0666,,,,,,,,0,13,13,30,1
,,,,,,,,,,,,,,,,,60fc658f2458e31812a4e66d,18,2022-02-12_17h33.24.070,lexical_decision_task_DD_L6,2021.2.3,Win32,60.15761295,,,,,,,,,,,,0.7796,1,,,,,,,,,,,,,,,,,,,,,,,,0.189882698,0.453812317,0,0,0,,,,,,,FARMER,HB,z,y,./images/FARMERHB.png,,,,,,,,,,,,,,,,,,,,z,1,0.7796,,,,,,,,0,14,14,149,1
,,,,,,,,,,,,,,,,,60fc658f2458e31812a4e66d,18,2022-02-12_17h33.24.070,lexical_decision_task_DD_L6,2021.2.3,Win32,60.15761295,,,,,,,,,,,,0.7683,1,,,,,,,,,,,,,,,,,,,,,,,,0.189882698,0.453812317,0,0,0,,,,,,,DRUMS,C,z,y,./images/DRUMS.png,,,,,,,,,,,,,,,,,,,,z,1,0.7683,,,,,,,,0,15,15,133,1
,,,,,,,,,,,,,,,,,60fc658f2458e31812a4e66d,18,2022-02-12_17h33.24.070,lexical_decision_task_DD_L6,2021.2.3,Win32,60.15761295,,,,,,,,,,,,0.7048,1,,,,,,,,,,,,,,,,,,,,,,,,0.189882698,0.453812317,0,0,0,,,,,,,MELON,C,z,y,./images/MELON.png,,,,,,,,,,,,,,,,,,,,z,1,0.7048,,,,,,,,0,16,16,106,1
,,,,,,,,,,,,,,,,,60fc658f2458e31812a4e66d,18,2022-02-12_17h33.24.070,lexical_decision_task_DD_L6,2021.2.3,Win32,60.15761295,,,,,,,,,,,,0.6649,1,,,,,,,,,,,,,,,,,,,,,,,,0.189882698,0.453812317,0,0,0,,,,,,,ONION,LB,z,y,./images/ONIONLB.png,,,,,,,,,,,,,,,,,,,,z,1,0.6649,,,,,,,,0,17,17,135,1
,,,,,,,,,,,,,,,,,60fc658f2458e31812a4e66d,18,2022-02-12_17h33.24.070,lexical_decision_task_DD_L6,2021.2.3,Win32,60.15761295,,,,,,,,,,,,0.9649,1,,,,,,,,,,,,,,,,,,,,,,,,0.189882698,0.453812317,0,0,0,,,,,,,WAGON,C,m,y,./images/WAGON.png,,,,,,,,,,,,,,,,,,,,m,1,0.9649,,,,,,,,0,18,18,7,1
,,,,,,,,,,,,,,,,,60fc658f2458e31812a4e66d,18,2022-02-12_17h33.24.070,lexical_decision_task_DD_L6,2021.2.3,Win32,60.15761295,,,,,,,,,,,,0.7893,0,,,,,,,,,,,,,,,,,,,,,,,,0.189882698,0.453812317,0,0,0,,,,,,,RAZOR,C,m,y,./images/RAZOR.png,,,,,,,,,,,,,,,,,,,,z,0,0.7893,,,,,,,,0,19,19,34,1
,,,,,,,,,,,,,,,,,60fc658f2458e31812a4e66d,18,2022-02-12_17h33.24.070,lexical_decision_task_DD_L6,2021.2.3,Win32,60.15761295,,,,,,,,,,,,0.5882,1,,,,,,,,,,,,,,,,,,,,,,,,0.189882698,0.453812317,0,0,0,,,,,,,SPORT,LB,z,y,./images/SPORTLB.png,,,,,,,,,,,,,,,,,,,,z,1,0.5882,,,,,,,,0,20,20,132,1
,,,,,,,,,,,,,,,,,60fc658f2458e31812a4e66d,18,2022-02-12_17h33.24.070,lexical_decision_task_DD_L6,2021.2.3,Win32,60.15761295,,,,,,,,,,,,0.5937,1,,,,,,,,,,,,,,,,,,,,,,,,0.189882698,0.453812317,0,0,0,,,,,,,MOOSE,LB,z,y,./images/MOOSELB.png,,,,,,,,,,,,,,,,,,,,z,1,0.5937,,,,,,,,0,21,21,141,1
,,,,,,,,,,,,,,,,,60fc658f2458e31812a4e66d,18,2022-02-12_17h33.24.070,lexical_decision_task_DD_L6,2021.2.3,Win32,60.15761295,,,,,,,,,,,,0.8683,1,,,,,,,,,,,,,,,,,,,,,,,,0.189882698,0.453812317,0,0,0,,,,,,,HOCKEY,HB,m,y,./images/HOCKEYHB.png,,,,,,,,,,,,,,,,,,,,m,1,0.8683,,,,,,,,0,22,22,32,1
,,,,,,,,,,,,,,,,,60fc658f2458e31812a4e66d,18,2022-02-12_17h33.24.070,lexical_decision_task_DD_L6,2021.2.3,Win32,60.15761295,,,,,,,,,,,,1.2239,1,,,,,,,,,,,,,,,,,,,,,,,,0.189882698,0.453812317,0,0,0,,,,,,,ENGINE,HB,m,y,./images/ENGINEHB.png,,,,,,,,,,,,,,,,,,,,m,1,1.2239,,,,,,,,0,23,23,38,1
,,,,,,,,,,,,,,,,,60fc658f2458e31812a4e66d,18,2022-02-12_17h33.24.070,lexical_decision_task_DD_L6,2021.2.3,Win32,60.15761295,,,,,,,,,,,,0.6687,1,,,,,,,,,,,,,,,,,,,,,,,,0.189882698,0.453812317,0,0,0,,,,,,,PIMPLE,HB,z,y,./images/PIMPLEHB.png,,,,,,,,,,,,,,,,,,,,z,1,0.6687,,,,,,,,0,24,24,155,1
,,,,,,,,,,,,,,,,,60fc658f2458e31812a4e66d,18,2022-02-12_17h33.24.070,lexical_decision_task_DD_L6,2021.2.3,Win32,60.15761295,,,,,,,,,,,,0.6739,1,,,,,,,,,,,,,,,,,,,,,,,,0.189882698,0.453812317,0,0,0,,,,,,,RHINO,LB,z,y,./images/RHINOLB.png,,,,,,,,,,,,,,,,,,,,z,1,0.6739,,,,,,,,0,25,25,93,1
,,,,,,,,,,,,,,,,,60fc658f2458e31812a4e66d,18,2022-02-12_17h33.24.070,lexical_decision_task_DD_L6,2021.2.3,Win32,60.15761295,,,,,,,,,,,,1.169,0,,,,,,,,,,,,,,,,,,,,,,,,0.189882698,0.453812317,0,0,0,,,,,,,LADDER,HB,z,y,./images/LADDERHB.png,,,,,,,,,,,,,,,,,,,,m,0,1.169,,,,,,,,0,26,26,122,1
,,,,,,,,,,,,,,,,,60fc658f2458e31812a4e66d,18,2022-02-12_17h33.24.070,lexical_decision_task_DD_L6,2021.2.3,Win32,60.15761295,,,,,,,,,,,,0.5984,1,,,,,,,,,,,,,,,,,,,,,,,,0.189882698,0.453812317,0,0,0,,,,,,,MUSCLE,C,z,y,./images/MUSCLE.png,,,,,,,,,,,,,,,,,,,,z,1,0.5984,,,,,,,,0,27,27,88,1
,,,,,,,,,,,,,,,,,60fc658f2458e31812a4e66d,18,2022-02-12_17h33.24.070,lexical_decision_task_DD_L6,2021.2.3,Win32,60.15761295,,,,,,,,,,,,1.6471,0,,,,,,,,,,,,,,,,,,,,,,,,0.189882698,0.453812317,0,0,0,,,,,,,MIDGET,C,m,y,./images/MIDGET.png,,,,,,,,,,,,,,,,,,,,z,0,1.6471,,,,,,,,0,28,28,76,1
,,,,,,,,,,,,,,,,,60fc658f2458e31812a4e66d,18,2022-02-12_17h33.24.070,lexical_decision_task_DD_L6,2021.2.3,Win32,60.15761295,,,,,,,,,,,,0.8983,0,,,,,,,,,,,,,,,,,,,,,,,,0.189882698,0.453812317,0,0,0,,,,,,,STOVE,HB,m,y,./images/STOVEHB.png,,,,,,,,,,,,,,,,,,,,z,0,0.8983,,,,,,,,0,29,29,2,1
,,,,,,,,,,,,,,,,,60fc658f2458e31812a4e66d,18,2022-02-12_17h33.24.070,lexical_decision_task_DD_L6,2021.2.3,Win32,60.15761295,,,,,,,,,,,,0.8197,1,,,,,,,,,,,,,,,,,,,,,,,,0.189882698,0.453812317,0,0,0,,,,,,,JUNGLE,HB,z,y,./images/JUNGLEHB.png,,,,,,,,,,,,,,,,,,,,z,1,0.8197,,,,,,,,0,30,30,167,1
,,,,,,,,,,,,,,,,,60fc658f2458e31812a4e66d,18,2022-02-12_17h33.24.070,lexical_decision_task_DD_L6,2021.2.3,Win32,60.15761295,,,,,,,,,,,,0.6382,1,,,,,,,,,,,,,,,,,,,,,,,,0.189882698,0.453812317,0,0,0,,,,,,,TOMATO,LB,z,y,./images/TOMATOLB.png,,,,,,,,,,,,,,,,,,,,z,1,0.6382,,,,,,,,0,31,31,84,1
,,,,,,,,,,,,,,,,,60fc658f2458e31812a4e66d,18,2022-02-12_17h33.24.070,lexical_decision_task_DD_L6,2021.2.3,Win32,60.15761295,,,,,,,,,,,,0.6728,1,,,,,,,,,,,,,,,,,,,,,,,,0.189882698,0.453812317,0,0,0,,,,,,,PILOT,HB,m,y,./images/PILOTHB.png,,,,,,,,,,,,,,,,,,,,m,1,0.6728,,,,,,,,0,32,32,50,1
,,,,,,,,,,,,,,,,,60fc658f2458e31812a4e66d,18,2022-02-12_17h33.24.070,lexical_decision_task_DD_L6,2021.2.3,Win32,60.15761295,,,,,,,,,,,,0.7353,1,,,,,,,,,,,,,,,,,,,,,,,,0.189882698,0.453812317,0,0,0,,,,,,,QUILL,C,z,y,./images/QUILL.png,,,,,,,,,,,,,,,,,,,,z,1,0.7353,,,,,,,,0,33,33,115,1
,,,,,,,,,,,,,,,,,60fc658f2458e31812a4e66d,18,2022-02-12_17h33.24.070,lexical_decision_task_DD_L6,2021.2.3,Win32,60.15761295,,,,,,,,,,,,0.6023,1,,,,,,,,,,,,,,,,,,,,,,,,0.189882698,0.453812317,0,0,0,,,,,,,BRUSH,HB,m,y,./images/BRUSHHB.png,,,,,,,,,,,,,,,,,,,,m,1,0.6023,,,,,,,,0,34,34,59,1
,,,,,,,,,,,,,,,,,60fc658f2458e31812a4e66d,18,2022-02-12_17h33.24.070,lexical_decision_task_DD_L6,2021.2.3,Win32,60.15761295,,,,,,,,,,,,0.6527,1,,,,,,,,,,,,,,,,,,,,,,,,0.189882698,0.453812317,0,0,0,,,,,,,PEBBLE,C,m,y,./images/PEBBLE.png,,,,,,,,,,,,,,,,,,,,m,1,0.6527,,,,,,,,0,35,35,82,1
,,,,,,,,,,,,,,,,,60fc658f2458e31812a4e66d,18,2022-02-12_17h33.24.070,lexical_decision_task_DD_L6,2021.2.3,Win32,60.15761295,,,,,,,,,,,,0.8355,1,,,,,,,,,,,,,,,,,,,,,,,,0.189882698,0.453812317,0,0,0,,,,,,,PARCEL,LB,m,y,./images/PARCELLB.png,,,,,,,,,,,,,,,,,,,,m,1,0.8355,,,,,,,,0,36,36,18,1
,,,,,,,,,,,,,,,,,60fc658f2458e31812a4e66d,18,2022-02-12_17h33.24.070,lexical_decision_task_DD_L6,2021.2.3,Win32,60.15761295,,,,,,,,,,,,2.0205,0,,,,,,,,,,,,,,,,,,,,,,,,0.189882698,0.453812317,0,0,0,,,,,,,SAUCE,LB,m,y,./images/SAUCELB.png,,,,,,,,,,,,,,,,,,,,z,0,2.0205,,,,,,,,0,37,37,51,1
,,,,,,,,,,,,,,,,,60fc658f2458e31812a4e66d,18,2022-02-12_17h33.24.070,lexical_decision_task_DD_L6,2021.2.3,Win32,60.15761295,,,,,,,,,,,,0.967,1,,,,,,,,,,,,,,,,,,,,,,,,0.189882698,0.453812317,0,0,0,,,,,,,BANANA,C,m,y,./images/BANANA.png,,,,,,,,,,,,,,,,,,,,m,1,0.967,,,,,,,,0,38,38,70,1
,,,,,,,,,,,,,,,,,60fc658f2458e31812a4e66d,18,2022-02-12_17h33.24.070,lexical_decision_task_DD_L6,2021.2.3,Win32,60.15761295,,,,,,,,,,,,0.9663,0,,,,,,,,,,,,,,,,,,,,,,,,0.189882698,0.453812317,0,0,0,,,,,,,BEARD,HB,z,y,./images/BEARDHB.png,,,,,,,,,,,,,,,,,,,,m,0,0.9663,,,,,,,,0,39,39,86,1
,,,,,,,,,,,,,,,,,60fc658f2458e31812a4e66d,18,2022-02-12_17h33.24.070,lexical_decision_task_DD_L6,2021.2.3,Win32,60.15761295,,,,,,,,,,,,1.1235,1,,,,,,,,,,,,,,,,,,,,,,,,0.189882698,0.453812317,0,0,0,,,,,,,SHORE,LB,z,y,./images/SHORELB.png,,,,,,,,,,,,,,,,,,,,z,1,1.1235,,,,,,,,0,40,40,96,1
,,,,,,,,,,,,,,,,,60fc658f2458e31812a4e66d,18,2022-02-12_17h33.24.070,lexical_decision_task_DD_L6,2021.2.3,Win32,60.15761295,,,,,,,,,,,,0.7578,1,,,,,,,,,,,,,,,,,,,,,,,,0.189882698,0.453812317,0,0,0,space,,,,,,TRIPOD,LB,z,y,./images/TRIPODLB.png,2.0923,,,,,,,,,,,,,,,,,,,z,1,0.7578,,,,,,,,0,41,41,138,1
,,,,,,,,,,,,,,,,,60fc658f2458e31812a4e66d,18,2022-02-12_17h33.24.070,lexical_decision_task_DD_L6,2021.2.3,Win32,60.15761295,,,,,,,,,,,,0.7182,1,,,,,,,,,,,,,,,,,,,,,,,,0.189882698,0.453812317,0,0,0,,,,,,,BARREL,HB,z,y,./images/BARRELHB.png,,,,,,,,,,,,,,,,,,,,z,1,0.7182,,,,,,,,0,42,42,116,1
,,,,,,,,,,,,,,,,,60fc658f2458e31812a4e66d,18,2022-02-12_17h33.24.070,lexical_decision_task_DD_L6,2021.2.3,Win32,60.15761295,,,,,,,,,,,,0.7747,0,,,,,,,,,,,,,,,,,,,,,,,,0.189882698,0.453812317,0,0,0,,,,,,,ARTIST,C,m,y,./images/ARTIST.png,,,,,,,,,,,,,,,,,,,,z,0,0.7747,,,,,,,,0,43,43,61,1
,,,,,,,,,,,,,,,,,60fc658f2458e31812a4e66d,18,2022-02-12_17h33.24.070,lexical_decision_task_DD_L6,2021.2.3,Win32,60.15761295,,,,,,,,,,,,1.1497,1,,,,,,,,,,,,,,,,,,,,,,,,0.189882698,0.453812317,0,0,0,,,,,,,SAUNA,LB,m,y,./images/SAUNALB.png,,,,,,,,,,,,,,,,,,,,m,1,1.1497,,,,,,,,0,44,44,33,1
,,,,,,,,,,,,,,,,,60fc658f2458e31812a4e66d,18,2022-02-12_17h33.24.070,lexical_decision_task_DD_L6,2021.2.3,Win32,60.15761295,,,,,,,,,,,,0.698,1,,,,,,,,,,,,,,,,,,,,,,,,0.189882698,0.453812317,0,0,0,,,,,,,LIZARD,HB,z,y,./images/LIZARDHB.png,,,,,,,,,,,,,,,,,,,,z,1,0.698,,,,,,,,0,45,45,128,1
,,,,,,,,,,,,,,,,,60fc658f2458e31812a4e66d,18,2022-02-12_17h33.24.070,lexical_decision_task_DD_L6,2021.2.3,Win32,60.15761295,,,,,,,,,,,,0.8072,1,,,,,,,,,,,,,,,,,,,,,,,,0.189882698,0.453812317,0,0,0,,,,,,,CRUMB,HB,z,y,./images/CRUMBHB.png,,,,,,,,,,,,,,,,,,,,z,1,0.8072,,,,,,,,0,46,46,113,1
,,,,,,,,,,,,,,,,,60fc658f2458e31812a4e66d,18,2022-02-12_17h33.24.070,lexical_decision_task_DD_L6,2021.2.3,Win32,60.15761295,,,,,,,,,,,,0.8866,0,,,,,,,,,,,,,,,,,,,,,,,,0.189882698,0.453812317,0,0,0,,,,,,,DESERT,C,m,y,./images/DESERT.png,,,,,,,,,,,,,,,,,,,,z,0,0.8866,,,,,,,,0,47,47,52,1
,,,,,,,,,,,,,,,,,60fc658f2458e31812a4e66d,18,2022-02-12_17h33.24.070,lexical_decision_task_DD_L6,2021.2.3,Win32,60.15761295,,,,,,,,,,,,1.2023,1,,,,,,,,,,,,,,,,,,,,,,,,0.189882698,0.453812317,0,0,0,,,,,,,WALRUS,HB,z,y,./images/WALRUSHB.png,,,,,,,,,,,,,,,,,,,,z,1,1.2023,,,,,,,,0,48,48,107,1
,,,,,,,,,,,,,,,,,60fc658f2458e31812a4e66d,18,2022-02-12_17h33.24.070,lexical_decision_task_DD_L6,2021.2.3,Win32,60.15761295,,,,,,,,,,,,0.7683,0,,,,,,,,,,,,,,,,,,,,,,,,0.189882698,0.453812317,0,0,0,,,,,,,CANOE,C,m,y,./images/CANOE.png,,,,,,,,,,,,,,,,,,,,z,0,0.7683,,,,,,,,0,49,49,58,1
,,,,,,,,,,,,,,,,,60fc658f2458e31812a4e66d,18,2022-02-12_17h33.24.070,lexical_decision_task_DD_L6,2021.2.3,Win32,60.15761295,,,,,,,,,,,,1.1359,0,,,,,,,,,,,,,,,,,,,,,,,,0.189882698,0.453812317,0,0,0,,,,,,,CLOWN,C,m,y,./images/CLOWN.png,,,,,,,,,,,,,,,,,,,,z,0,1.1359,,,,,,,,0,50,50,22,1
,,,,,,,,,,,,,,,,,60fc658f2458e31812a4e66d,18,2022-02-12_17h33.24.070,lexical_decision_task_DD_L6,2021.2.3,Win32,60.15761295,,,,,,,,,,,,0.9344,1,,,,,,,,,,,,,,,,,,,,,,,,0.189882698,0.453812317,0,0,0,,,,,,,SCREW,LB,z,y,./images/SCREWLB.png,,,,,,,,,,,,,,,,,,,,z,1,0.9344,,,,,,,,0,51,51,108,1
,,,,,,,,,,,,,,,,,60fc658f2458e31812a4e66d,18,2022-02-12_17h33.24.070,lexical_decision_task_DD_L6,2021.2.3,Win32,60.15761295,,,,,,,,,,,,0.8023,0,,,,,,,,,,,,,,,,,,,,,,,,0.189882698,0.453812317,0,0,0,,,,,,,DANCER,LB,m,y,./images/DANCERLB.png,,,,,,,,,,,,,,,,,,,,z,0,0.8023,,,,,,,,0,52,52,21,1
,,,,,,,,,,,,,,,,,60fc658f2458e31812a4e66d,18,2022-02-12_17h33.24.070,lexical_decision_task_DD_L6,2021.2.3,Win32,60.15761295,,,,,,,,,,,,0.8014,1,,,,,,,,,,,,,,,,,,,,,,,,0.189882698,0.453812317,0,0,0,,,,,,,GARDEN,C,m,y,./images/GARDEN.png,,,,,,,,,,,,,,,,,,,,m,1,0.8014,,,,,,,,0,53,53,10,1
,,,,,,,,,,,,,,,,,60fc658f2458e31812a4e66d,18,2022-02-12_17h33.24.070,lexical_decision_task_DD_L6,2021.2.3,Win32,60.15761295,,,,,,,,,,,,1.1019,1,,,,,,,,,,,,,,,,,,,,,,,,0.189882698,0.453812317,0,0,0,,,,,,,CASINO,C,m,y,./images/CASINO.png,,,,,,,,,,,,,,,,,,,,m,1,1.1019,,,,,,,,0,54,54,28,1
,,,,,,,,,,,,,,,,,60fc658f2458e31812a4e66d,18,2022-02-12_17h33.24.070,lexical_decision_task_DD_L6,2021.2.3,Win32,60.15761295,,,,,,,,,,,,0.8184,1,,,,,,,,,,,,,,,,,,,,,,,,0.189882698,0.453812317,0,0,0,,,,,,,HAMMER,LB,m,y,./images/HAMMERLB.png,,,,,,,,,,,,,,,,,,,,m,1,0.8184,,,,,,,,0,55,55,75,1
,,,,,,,,,,,,,,,,,60fc658f2458e31812a4e66d,18,2022-02-12_17h33.24.070,lexical_decision_task_DD_L6,2021.2.3,Win32,60.15761295,,,,,,,,,,,,0.9531,1,,,,,,,,,,,,,,,,,,,,,,,,0.189882698,0.453812317,0,0,0,,,,,,,PEARL,C,z,y,./images/PEARL.png,,,,,,,,,,,,,,,,,,,,z,1,0.9531,,,,,,,,0,56,56,130,1
,,,,,,,,,,,,,,,,,60fc658f2458e31812a4e66d,18,2022-02-12_17h33.24.070,lexical_decision_task_DD_L6,2021.2.3,Win32,60.15761295,,,,,,,,,,,,0.8191,1,,,,,,,,,,,,,,,,,,,,,,,,0.189882698,0.453812317,0,0,0,,,,,,,CURRY,LB,m,y,./images/CURRYLB.png,,,,,,,,,,,,,,,,,,,,m,1,0.8191,,,,,,,,0,57,57,60,1
,,,,,,,,,,,,,,,,,60fc658f2458e31812a4e66d,18,2022-02-12_17h33.24.070,lexical_decision_task_DD_L6,2021.2.3,Win32,60.15761295,,,,,,,,,,,,0.9981,1,,,,,,,,,,,,,,,,,,,,,,,,0.189882698,0.453812317,0,0,0,,,,,,,MUFFIN,C,z,y,./images/MUFFIN.png,,,,,,,,,,,,,,,,,,,,z,1,0.9981,,,,,,,,0,58,58,139,1
,,,,,,,,,,,,,,,,,60fc658f2458e31812a4e66d,18,2022-02-12_17h33.24.070,lexical_decision_task_DD_L6,2021.2.3,Win32,60.15761295,,,,,,,,,,,,0.7355,1,,,,,,,,,,,,,,,,,,,,,,,,0.189882698,0.453812317,0,0,0,,,,,,,URINE,C,z,y,./images/URINE.png,,,,,,,,,,,,,,,,,,,,z,1,0.7355,,,,,,,,0,59,59,154,1
,,,,,,,,,,,,,,,,,60fc658f2458e31812a4e66d,18,2022-02-12_17h33.24.070,lexical_decision_task_DD_L6,2021.2.3,Win32,60.15761295,,,,,,,,,,,,0.7018,1,,,,,,,,,,,,,,,,,,,,,,,,0.189882698,0.453812317,0,0,0,,,,,,,GLOVE,C,m,y,./images/GLOVE.png,,,,,,,,,,,,,,,,,,,,m,1,0.7018,,,,,,,,0,60,60,73,1
,,,,,,,,,,,,,,,,,60fc658f2458e31812a4e66d,18,2022-02-12_17h33.24.070,lexical_decision_task_DD_L6,2021.2.3,Win32,60.15761295,,,,,,,,,,,,1.08,0,,,,,,,,,,,,,,,,,,,,,,,,0.189882698,0.453812317,0,0,0,,,,,,,PASTA,HB,z,y,./images/PASTAHB.png,,,,,,,,,,,,,,,,,,,,m,0,1.08,,,,,,,,0,61,61,89,1
,,,,,,,,,,,,,,,,,60fc658f2458e31812a4e66d,18,2022-02-12_17h33.24.070,lexical_decision_task_DD_L6,2021.2.3,Win32,60.15761295,,,,,,,,,,,,0.6682,1,,,,,,,,,,,,,,,,,,,,,,,,0.189882698,0.453812317,0,0,0,,,,,,,FOLDER,LB,z,y,./images/FOLDERLB.png,,,,,,,,,,,,,,,,,,,,z,1,0.6682,,,,,,,,0,62,62,126,1
,,,,,,,,,,,,,,,,,60fc658f2458e31812a4e66d,18,2022-02-12_17h33.24.070,lexical_decision_task_DD_L6,2021.2.3,Win32,60.15761295,,,,,,,,,,,,1.2353,0,,,,,,,,,,,,,,,,,,,,,,,,0.189882698,0.453812317,0,0,0,,,,,,,WEASEL,HB,z,y,./images/WEASELHB.png,,,,,,,,,,,,,,,,,,,,m,0,1.2353,,,,,,,,0,63,63,164,1
,,,,,,,,,,,,,,,,,60fc658f2458e31812a4e66d,18,2022-02-12_17h33.24.070,lexical_decision_task_DD_L6,2021.2.3,Win32,60.15761295,,,,,,,,,,,,0.756,1,,,,,,,,,,,,,,,,,,,,,,,,0.189882698,0.453812317,0,0,0,,,,,,,STRING,HB,z,y,./images/STRINGHB.png,,,,,,,,,,,,,,,,,,,,z,1,0.756,,,,,,,,0,64,64,125,1
,,,,,,,,,,,,,,,,,60fc658f2458e31812a4e66d,18,2022-02-12_17h33.24.070,lexical_decision_task_DD_L6,2021.2.3,Win32,60.15761295,,,,,,,,,,,,0.7825,0,,,,,,,,,,,,,,,,,,,,,,,,0.189882698,0.453812317,0,0,0,,,,,,,BOILER,LB,m,y,./images/BOILERLB.png,,,,,,,,,,,,,,,,,,,,z,0,0.7825,,,,,,,,0,65,65,36,1
,,,,,,,,,,,,,,,,,60fc658f2458e31812a4e66d,18,2022-02-12_17h33.24.070,lexical_decision_task_DD_L6,2021.2.3,Win32,60.15761295,,,,,,,,,,,,1.933,1,,,,,,,,,,,,,,,,,,,,,,,,0.189882698,0.453812317,0,0,0,,,,,,,COOKER,LB,z,y,./images/COOKERLB.png,,,,,,,,,,,,,,,,,,,,z,1,1.933,,,,,,,,0,66,66,153,1
,,,,,,,,,,,,,,,,,60fc658f2458e31812a4e66d,18,2022-02-12_17h33.24.070,lexical_decision_task_DD_L6,2021.2.3,Win32,60.15761295,,,,,,,,,,,,1.0687,0,,,,,,,,,,,,,,,,,,,,,,,,0.189882698,0.453812317,0,0,0,,,,,,,BUBBLE,HB,m,y,./images/BUBBLEHB.png,,,,,,,,,,,,,,,,,,,,z,0,1.0687,,,,,,,,0,67,67,71,1
,,,,,,,,,,,,,,,,,60fc658f2458e31812a4e66d,18,2022-02-12_17h33.24.070,lexical_decision_task_DD_L6,2021.2.3,Win32,60.15761295,,,,,,,,,,,,1.2009,1,,,,,,,,,,,,,,,,,,,,,,,,0.189882698,0.453812317,0,0,0,,,,,,,MOSQUE,C,z,y,./images/MOSQUE.png,,,,,,,,,,,,,,,,,,,,z,1,1.2009,,,,,,,,0,68,68,127,1
,,,,,,,,,,,,,,,,,60fc658f2458e31812a4e66d,18,2022-02-12_17h33.24.070,lexical_decision_task_DD_L6,2021.2.3,Win32,60.15761295,,,,,,,,,,,,0.8015,1,,,,,,,,,,,,,,,,,,,,,,,,0.189882698,0.453812317,0,0,0,,,,,,,GRAIN,LB,z,y,./images/GRAINLB.png,,,,,,,,,,,,,,,,,,,,z,1,0.8015,,,,,,,,0,69,69,159,1
,,,,,,,,,,,,,,,,,60fc658f2458e31812a4e66d,18,2022-02-12_17h33.24.070,lexical_decision_task_DD_L6,2021.2.3,Win32,60.15761295,,,,,,,,,,,,1.352,1,,,,,,,,,,,,,,,,,,,,,,,,0.189882698,0.453812317,0,0,0,,,,,,,CHERRY,LB,m,y,./images/CHERRYLB.png,,,,,,,,,,,,,,,,,,,,m,1,1.352,,,,,,,,0,70,70,54,1
,,,,,,,,,,,,,,,,,60fc658f2458e31812a4e66d,18,2022-02-12_17h33.24.070,lexical_decision_task_DD_L6,2021.2.3,Win32,60.15761295,,,,,,,,,,,,1.1468,1,,,,,,,,,,,,,,,,,,,,,,,,0.189882698,0.453812317,0,0,0,,,,,,,SUNSET,C,z,y,./images/SUNSET.png,,,,,,,,,,,,,,,,,,,,z,1,1.1468,,,,,,,,0,71,71,166,1
,,,,,,,,,,,,,,,,,60fc658f2458e31812a4e66d,18,2022-02-12_17h33.24.070,lexical_decision_task_DD_L6,2021.2.3,Win32,60.15761295,,,,,,,,,,,,1.0075,0,,,,,,,,,,,,,,,,,,,,,,,,0.189882698,0.453812317,0,0,0,,,,,,,BISHOP,C,m,y,./images/BISHOP.png,,,,,,,,,,,,,,,,,,,,z,0,1.0075,,,,,,,,0,72,72,49,1
,,,,,,,,,,,,,,,,,60fc658f2458e31812a4e66d,18,2022-02-12_17h33.24.070,lexical_decision_task_DD_L6,2021.2.3,Win32,60.15761295,,,,,,,,,,,,0.732,1,,,,,,,,,,,,,,,,,,,,,,,,0.189882698,0.453812317,0,0,0,,,,,,,GRANNY,HB,m,y,./images/GRANNYHB.png,,,,,,,,,,,,,,,,,,,,m,1,0.732,,,,,,,,0,73,73,20,1
,,,,,,,,,,,,,,,,,60fc658f2458e31812a4e66d,18,2022-02-12_17h33.24.070,lexical_decision_task_DD_L6,2021.2.3,Win32,60.15761295,,,,,,,,,,,,1.1874,0,,,,,,,,,,,,,,,,,,,,,,,,0.189882698,0.453812317,0,0,0,,,,,,,NOOSE,LB,z,y,./images/NOOSELB.png,,,,,,,,,,,,,,,,,,,,m,0,1.1874,,,,,,,,0,74,74,156,1
,,,,,,,,,,,,,,,,,60fc658f2458e31812a4e66d,18,2022-02-12_17h33.24.070,lexical_decision_task_DD_L6,2021.2.3,Win32,60.15761295,,,,,,,,,,,,0.6642,1,,,,,,,,,,,,,,,,,,,,,,,,0.189882698,0.453812317,0,0,0,,,,,,,WHEEL,HB,m,y,./images/WHEELHB.png,,,,,,,,,,,,,,,,,,,,m,1,0.6642,,,,,,,,0,75,75,77,1
,,,,,,,,,,,,,,,,,60fc658f2458e31812a4e66d,18,2022-02-12_17h33.24.070,lexical_decision_task_DD_L6,2021.2.3,Win32,60.15761295,,,,,,,,,,,,0.6171,1,,,,,,,,,,,,,,,,,,,,,,,,0.189882698,0.453812317,0,0,0,,,,,,,STATUE,LB,m,y,./images/STATUELB.png,,,,,,,,,,,,,,,,,,,,m,1,0.6171,,,,,,,,0,76,76,66,1
,,,,,,,,,,,,,,,,,60fc658f2458e31812a4e66d,18,2022-02-12_17h33.24.070,lexical_decision_task_DD_L6,2021.2.3,Win32,60.15761295,,,,,,,,,,,,0.7318,1,,,,,,,,,,,,,,,,,,,,,,,,0.189882698,0.453812317,0,0,0,,,,,,,VALLEY,HB,m,y,./images/VALLEYHB.png,,,,,,,,,,,,,,,,,,,,m,1,0.7318,,,,,,,,0,77,77,68,1
,,,,,,,,,,,,,,,,,60fc658f2458e31812a4e66d,18,2022-02-12_17h33.24.070,lexical_decision_task_DD_L6,2021.2.3,Win32,60.15761295,,,,,,,,,,,,0.9043,1,,,,,,,,,,,,,,,,,,,,,,,,0.189882698,0.453812317,0,0,0,,,,,,,ATTIC,LB,z,y,./images/ATTICLB.png,,,,,,,,,,,,,,,,,,,,z,1,0.9043,,,,,,,,0,78,78,111,1
,,,,,,,,,,,,,,,,,60fc658f2458e31812a4e66d,18,2022-02-12_17h33.24.070,lexical_decision_task_DD_L6,2021.2.3,Win32,60.15761295,,,,,,,,,,,,0.8168,0,,,,,,,,,,,,,,,,,,,,,,,,0.189882698,0.453812317,0,0,0,,,,,,,SMOKER,HB,z,y,./images/SMOKERHB.png,,,,,,,,,,,,,,,,,,,,m,0,0.8168,,,,,,,,0,79,79,110,1
,,,,,,,,,,,,,,,,,60fc658f2458e31812a4e66d,18,2022-02-12_17h33.24.070,lexical_decision_task_DD_L6,2021.2.3,Win32,60.15761295,,,,,,,,,,,,0.7334,1,,,,,,,,,,,,,,,,,,,,,,,,0.189882698,0.453812317,0,0,0,,,,,,,TWINS,LB,z,y,./images/TWINSLB.png,,,,,,,,,,,,,,,,,,,,z,1,0.7334,,,,,,,,0,80,80,144,1
,,,,,,,,,,,,,,,,,60fc658f2458e31812a4e66d,18,2022-02-12_17h33.24.070,lexical_decision_task_DD_L6,2021.2.3,Win32,60.15761295,,,,,,,,,,,,1.4634,0,,,,,,,,,,,,,,,,,,,,,,,,0.189882698,0.453812317,0,0,0,,,,,,,PARADE,HB,m,y,./images/PARADEHB.png,,,,,,,,,,,,,,,,,,,,z,0,1.4634,,,,,,,,0,81,81,17,1
,,,,,,,,,,,,,,,,,60fc658f2458e31812a4e66d,18,2022-02-12_17h33.24.070,lexical_decision_task_DD_L6,2021.2.3,Win32,60.15761295,,,,,,,,,,,,1.2306,1,,,,,,,,,,,,,,,,,,,,,,,,0.189882698,0.453812317,0,0,0,,,,,,,SWEAT,LB,z,y,./images/SWEATLB.png,,,,,,,,,,,,,,,,,,,,z,1,1.2306,,,,,,,,0,82,82,150,1
,,,,,,,,,,,,,,,,,60fc658f2458e31812a4e66d,18,2022-02-12_17h33.24.070,lexical_decision_task_DD_L6,2021.2.3,Win32,60.15761295,,,,,,,,,,,,1.1373,1,,,,,,,,,,,,,,,,,,,,,,,,0.189882698,0.453812317,0,0,0,space,,,,,,POKER,C,m,y,./images/POKER.png,34.2272,,,,,,,,,,,,,,,,,,,m,1,1.1373,,,,,,,,0,83,83,67,1
,,,,,,,,,,,,,,,,,60fc658f2458e31812a4e66d,18,2022-02-12_17h33.24.070,lexical_decision_task_DD_L6,2021.2.3,Win32,60.15761295,,,,,,,,,,,,1.035,0,,,,,,,,,,,,,,,,,,,,,,,,0.189882698,0.453812317,0,0,0,,,,,,,BANNER,C,z,y,./images/BANNER.png,,,,,,,,,,,,,,,,,,,,m,0,1.035,,,,,,,,0,84,84,136,1
,,,,,,,,,,,,,,,,,60fc658f2458e31812a4e66d,18,2022-02-12_17h33.24.070,lexical_decision_task_DD_L6,2021.2.3,Win32,60.15761295,,,,,,,,,,,,1.1357,1,,,,,,,,,,,,,,,,,,,,,,,,0.189882698,0.453812317,0,0,0,,,,,,,LLAMA,HB,m,y,./images/LLAMAHB.png,,,,,,,,,,,,,,,,,,,,m,1,1.1357,,,,,,,,0,85,85,35,1
,,,,,,,,,,,,,,,,,60fc658f2458e31812a4e66d,18,2022-02-12_17h33.24.070,lexical_decision_task_DD_L6,2021.2.3,Win32,60.15761295,,,,,,,,,,,,0.8519,1,,,,,,,,,,,,,,,,,,,,,,,,0.189882698,0.453812317,0,0,0,,,,,,,MOTOR,C,z,y,./images/MOTOR.png,,,,,,,,,,,,,,,,,,,,z,1,0.8519,,,,,,,,0,86,86,97,1
,,,,,,,,,,,,,,,,,60fc658f2458e31812a4e66d,18,2022-02-12_17h33.24.070,lexical_decision_task_DD_L6,2021.2.3,Win32,60.15761295,,,,,,,,,,,,0.8181,0,,,,,,,,,,,,,,,,,,,,,,,,0.189882698,0.453812317,0,0,0,,,,,,,BABOON,C,z,y,./images/BABOON.png,,,,,,,,,,,,,,,,,,,,m,0,0.8181,,,,,,,,0,87,87,142,1
,,,,,,,,,,,,,,,,,60fc658f2458e31812a4e66d,18,2022-02-12_17h33.24.070,lexical_decision_task_DD_L6,2021.2.3,Win32,60.15761295,,,,,,,,,,,,0.8006,1,,,,,,,,,,,,,,,,,,,,,,,,0.189882698,0.453812317,0,0,0,,,,,,,CRADLE,HB,z,y,./images/CRADLEHB.png,,,,,,,,,,,,,,,,,,,,z,1,0.8006,,,,,,,,0,88,88,104,1
,,,,,,,,,,,,,,,,,60fc658f2458e31812a4e66d,18,2022-02-12_17h33.24.070,lexical_decision_task_DD_L6,2021.2.3,Win32,60.15761295,,,,,,,,,,,,0.7997,1,,,,,,,,,,,,,,,,,,,,,,,,0.189882698,0.453812317,0,0,0,,,,,,,KITTEN,LB,z,y,./images/KITTENLB.png,,,,,,,,,,,,,,,,,,,,z,1,0.7997,,,,,,,,0,89,89,129,1
,,,,,,,,,,,,,,,,,60fc658f2458e31812a4e66d,18,2022-02-12_17h33.24.070,lexical_decision_task_DD_L6,2021.2.3,Win32,60.15761295,,,,,,,,,,,,0.7848,1,,,,,,,,,,,,,,,,,,,,,,,,0.189882698,0.453812317,0,0,0,,,,,,,SPINE,HB,m,y,./images/SPINEHB.png,,,,,,,,,,,,,,,,,,,,m,1,0.7848,,,,,,,,0,90,90,65,1
,,,,,,,,,,,,,,,,,60fc658f2458e31812a4e66d,18,2022-02-12_17h33.24.070,lexical_decision_task_DD_L6,2021.2.3,Win32,60.15761295,,,,,,,,,,,,1.7523,1,,,,,,,,,,,,,,,,,,,,,,,,0.189882698,0.453812317,0,0,0,,,,,,,SQUARE,LB,z,y,./images/SQUARELB.png,,,,,,,,,,,,,,,,,,,,z,1,1.7523,,,,,,,,0,91,91,90,1
,,,,,,,,,,,,,,,,,60fc658f2458e31812a4e66d,18,2022-02-12_17h33.24.070,lexical_decision_task_DD_L6,2021.2.3,Win32,60.15761295,,,,,,,,,,,,0.7522,1,,,,,,,,,,,,,,,,,,,,,,,,0.189882698,0.453812317,0,0,0,,,,,,,FENCE,HB,m,y,./images/FENCEHB.png,,,,,,,,,,,,,,,,,,,,m,1,0.7522,,,,,,,,0,92,92,14,1
,,,,,,,,,,,,,,,,,60fc658f2458e31812a4e66d,18,2022-02-12_17h33.24.070,lexical_decision_task_DD_L6,2021.2.3,Win32,60.15761295,,,,,,,,,,,,1.2864,1,,,,,,,,,,,,,,,,,,,,,,,,0.189882698,0.453812317,0,0,0,,,,,,,BOXER,C,m,y,./images/BOXER.png,,,,,,,,,,,,,,,,,,,,m,1,1.2864,,,,,,,,0,93,93,4,1
,,,,,,,,,,,,,,,,,60fc658f2458e31812a4e66d,18,2022-02-12_17h33.24.070,lexical_decision_task_DD_L6,2021.2.3,Win32,60.15761295,,,,,,,,,,,,0.9024,0,,,,,,,,,,,,,,,,,,,,,,,,0.189882698,0.453812317,0,0,0,,,,,,,MEDAL,HB,m,y,./images/MEDALHB.png,,,,,,,,,,,,,,,,,,,,z,0,0.9024,,,,,,,,0,94,94,11,1
,,,,,,,,,,,,,,,,,60fc658f2458e31812a4e66d,18,2022-02-12_17h33.24.070,lexical_decision_task_DD_L6,2021.2.3,Win32,60.15761295,,,,,,,,,,,,1.7665,1,,,,,,,,,,,,,,,,,,,,,,,,0.189882698,0.453812317,0,0,0,,,,,,,PICKLE,HB,z,y,./images/PICKLEHB.png,,,,,,,,,,,,,,,,,,,,z,1,1.7665,,,,,,,,0,95,95,98,1
,,,,,,,,,,,,,,,,,60fc658f2458e31812a4e66d,18,2022-02-12_17h33.24.070,lexical_decision_task_DD_L6,2021.2.3,Win32,60.15761295,,,,,,,,,,,,0.8656,1,,,,,,,,,,,,,,,,,,,,,,,,0.189882698,0.453812317,0,0,0,,,,,,,COUCH,HB,z,y,./images/COUCHHB.png,,,,,,,,,,,,,,,,,,,,z,1,0.8656,,,,,,,,0,96,96,161,1
,,,,,,,,,,,,,,,,,60fc658f2458e31812a4e66d,18,2022-02-12_17h33.24.070,lexical_decision_task_DD_L6,2021.2.3,Win32,60.15761295,,,,,,,,,,,,0.8673,1,,,,,,,,,,,,,,,,,,,,,,,,0.189882698,0.453812317,0,0,0,,,,,,,MUMMY,C,m,y,./images/MUMMY.png,,,,,,,,,,,,,,,,,,,,m,1,0.8673,,,,,,,,0,97,97,46,1
,,,,,,,,,,,,,,,,,60fc658f2458e31812a4e66d,18,2022-02-12_17h33.24.070,lexical_decision_task_DD_L6,2021.2.3,Win32,60.15761295,,,,,,,,,,,,1.1659,1,,,,,,,,,,,,,,,,,,,,,,,,0.189882698,0.453812317,0,0,0,,,,,,,SAILOR,C,z,y,./images/SAILOR.png,,,,,,,,,,,,,,,,,,,,z,1,1.1659,,,,,,,,0,98,98,151,1
,,,,,,,,,,,,,,,,,60fc658f2458e31812a4e66d,18,2022-02-12_17h33.24.070,lexical_decision_task_DD_L6,2021.2.3,Win32,60.15761295,,,,,,,,,,,,0.7677,1,,,,,,,,,,,,,,,,,,,,,,,,0.189882698,0.453812317,0,0,0,,,,,,,CRUST,C,z,y,./images/CRUST.png,,,,,,,,,,,,,,,,,,,,z,1,0.7677,,,,,,,,0,99,99,163,1
,,,,,,,,,,,,,,,,,60fc658f2458e31812a4e66d,18,2022-02-12_17h33.24.070,lexical_decision_task_DD_L6,2021.2.3,Win32,60.15761295,,,,,,,,,,,,0.8807,1,,,,,,,,,,,,,,,,,,,,,,,,0.189882698,0.453812317,0,0,0,,,,,,,BRIDE,C,m,y,./images/BRIDE.png,,,,,,,,,,,,,,,,,,,,m,1,0.8807,,,,,,,,0,100,100,64,1
,,,,,,,,,,,,,,,,,60fc658f2458e31812a4e66d,18,2022-02-12_17h33.24.070,lexical_decision_task_DD_L6,2021.2.3,Win32,60.15761295,,,,,,,,,,,,1.0311,1,,,,,,,,,,,,,,,,,,,,,,,,0.189882698,0.453812317,0,0,0,,,,,,,STORM,LB,z,y,./images/STORMLB.png,,,,,,,,,,,,,,,,,,,,z,1,1.0311,,,,,,,,0,101,101,114,1
,,,,,,,,,,,,,,,,,60fc658f2458e31812a4e66d,18,2022-02-12_17h33.24.070,lexical_decision_task_DD_L6,2021.2.3,Win32,60.15761295,,,,,,,,,,,,0.7688,1,,,,,,,,,,,,,,,,,,,,,,,,0.189882698,0.453812317,0,0,0,,,,,,,THROAT,LB,z,y,./images/THROATLB.png,,,,,,,,,,,,,,,,,,,,z,1,0.7688,,,,,,,,0,102,102,120,1
,,,,,,,,,,,,,,,,,60fc658f2458e31812a4e66d,18,2022-02-12_17h33.24.070,lexical_decision_task_DD_L6,2021.2.3,Win32,60.15761295,,,,,,,,,,,,1.1034,1,,,,,,,,,,,,,,,,,,,,,,,,0.189882698,0.453812317,0,0,0,,,,,,,CARPET,HB,z,y,./images/CARPETHB.png,,,,,,,,,,,,,,,,,,,,z,1,1.1034,,,,,,,,0,103,103,137,1
,,,,,,,,,,,,,,,,,60fc658f2458e31812a4e66d,18,2022-02-12_17h33.24.070,lexical_decision_task_DD_L6,2021.2.3,Win32,60.15761295,,,,,,,,,,,,0.5846,1,,,,,,,,,,,,,,,,,,,,,,,,0.189882698,0.453812317,0,0,0,,,,,,,ALLEY,C,m,y,./images/ALLEY.png,,,,,,,,,,,,,,,,,,,,m,1,0.5846,,,,,,,,0,104,104,55,1
,,,,,,,,,,,,,,,,,60fc658f2458e31812a4e66d,18,2022-02-12_17h33.24.070,lexical_decision_task_DD_L6,2021.2.3,Win32,60.15761295,,,,,,,,,,,,1.1429,0,,,,,,,,,,,,,,,,,,,,,,,,0.189882698,0.453812317,0,0,0,,,,,,,CEMENT,HB,z,y,./images/CEMENTHB.png,,,,,,,,,,,,,,,,,,,,m,0,1.1429,,,,,,,,0,105,105,158,1
,,,,,,,,,,,,,,,,,60fc658f2458e31812a4e66d,18,2022-02-12_17h33.24.070,lexical_decision_task_DD_L6,2021.2.3,Win32,60.15761295,,,,,,,,,,,,0.7183,1,,,,,,,,,,,,,,,,,,,,,,,,0.189882698,0.453812317,0,0,0,,,,,,,MAMMAL,HB,m,y,./images/MAMMALHB.png,,,,,,,,,,,,,,,,,,,,m,1,0.7183,,,,,,,,0,106,106,62,1
,,,,,,,,,,,,,,,,,60fc658f2458e31812a4e66d,18,2022-02-12_17h33.24.070,lexical_decision_task_DD_L6,2021.2.3,Win32,60.15761295,,,,,,,,,,,,1.0207,1,,,,,,,,,,,,,,,,,,,,,,,,0.189882698,0.453812317,0,0,0,,,,,,,CANDLE,C,z,y,./images/CANDLE.png,,,,,,,,,,,,,,,,,,,,z,1,1.0207,,,,,,,,0,107,107,145,1
,,,,,,,,,,,,,,,,,60fc658f2458e31812a4e66d,18,2022-02-12_17h33.24.070,lexical_decision_task_DD_L6,2021.2.3,Win32,60.15761295,,,,,,,,,,,,1.0189,1,,,,,,,,,,,,,,,,,,,,,,,,0.189882698,0.453812317,0,0,0,,,,,,,ARROW,LB,m,y,./images/ARROWLB.png,,,,,,,,,,,,,,,,,,,,m,1,1.0189,,,,,,,,0,108,108,69,1
,,,,,,,,,,,,,,,,,60fc658f2458e31812a4e66d,18,2022-02-12_17h33.24.070,lexical_decision_task_DD_L6,2021.2.3,Win32,60.15761295,,,,,,,,,,,,0.8855,0,,,,,,,,,,,,,,,,,,,,,,,,0.189882698,0.453812317,0,0,0,,,,,,,TORCH,HB,z,y,./images/TORCHHB.png,,,,,,,,,,,,,,,,,,,,m,0,0.8855,,,,,,,,0,109,109,152,1
,,,,,,,,,,,,,,,,,60fc658f2458e31812a4e66d,18,2022-02-12_17h33.24.070,lexical_decision_task_DD_L6,2021.2.3,Win32,60.15761295,,,,,,,,,,,,0.7136,1,,,,,,,,,,,,,,,,,,,,,,,,0.189882698,0.453812317,0,0,0,,,,,,,SHELF,LB,z,y,./images/SHELFLB.png,,,,,,,,,,,,,,,,,,,,z,1,0.7136,,,,,,,,0,110,110,123,1
,,,,,,,,,,,,,,,,,60fc658f2458e31812a4e66d,18,2022-02-12_17h33.24.070,lexical_decision_task_DD_L6,2021.2.3,Win32,60.15761295,,,,,,,,,,,,0.8202,1,,,,,,,,,,,,,,,,,,,,,,,,0.189882698,0.453812317,0,0,0,,,,,,,TIGER,C,m,y,./images/TIGER.png,,,,,,,,,,,,,,,,,,,,m,1,0.8202,,,,,,,,0,111,111,37,1
,,,,,,,,,,,,,,,,,60fc658f2458e31812a4e66d,18,2022-02-12_17h33.24.070,lexical_decision_task_DD_L6,2021.2.3,Win32,60.15761295,,,,,,,,,,,,0.6855,1,,,,,,,,,,,,,,,,,,,,,,,,0.189882698,0.453812317,0,0,0,,,,,,,LAGOON,HB,m,y,./images/LAGOONHB.png,,,,,,,,,,,,,,,,,,,,m,1,0.6855,,,,,,,,0,112,112,47,1
,,,,,,,,,,,,,,,,,60fc658f2458e31812a4e66d,18,2022-02-12_17h33.24.070,lexical_decision_task_DD_L6,2021.2.3,Win32,60.15761295,,,,,,,,,,,,0.6511,1,,,,,,,,,,,,,,,,,,,,,,,,0.189882698,0.453812317,0,0,0,,,,,,,BURIAL,HB,z,y,./images/BURIALHB.png,,,,,,,,,,,,,,,,,,,,z,1,0.6511,,,,,,,,0,113,113,143,1
,,,,,,,,,,,,,,,,,60fc658f2458e31812a4e66d,18,2022-02-12_17h33.24.070,lexical_decision_task_DD_L6,2021.2.3,Win32,60.15761295,,,,,,,,,,,,0.7241,0,,,,,,,,,,,,,,,,,,,,,,,,0.189882698,0.453812317,0,0,0,,,,,,,DIVER,LB,m,y,./images/DIVERLB.png,,,,,,,,,,,,,,,,,,,,z,0,0.7241,,,,,,,,0,114,114,9,1
,,,,,,,,,,,,,,,,,60fc658f2458e31812a4e66d,18,2022-02-12_17h33.24.070,lexical_decision_task_DD_L6,2021.2.3,Win32,60.15761295,,,,,,,,,,,,1.6355,0,,,,,,,,,,,,,,,,,,,,,,,,0.189882698,0.453812317,0,0,0,,,,,,,BAKER,LB,m,y,./images/BAKERLB.png,,,,,,,,,,,,,,,,,,,,z,0,1.6355,,,,,,,,0,115,115,63,1
,,,,,,,,,,,,,,,,,60fc658f2458e31812a4e66d,18,2022-02-12_17h33.24.070,lexical_decision_task_DD_L6,2021.2.3,Win32,60.15761295,,,,,,,,,,,,0.8014,1,,,,,,,,,,,,,,,,,,,,,,,,0.189882698,0.453812317,0,0,0,,,,,,,DONKEY,C,m,y,./images/DONKEY.png,,,,,,,,,,,,,,,,,,,,m,1,0.8014,,,,,,,,0,116,116,19,1
,,,,,,,,,,,,,,,,,60fc658f2458e31812a4e66d,18,2022-02-12_17h33.24.070,lexical_decision_task_DD_L6,2021.2.3,Win32,60.15761295,,,,,,,,,,,,0.785,1,,,,,,,,,,,,,,,,,,,,,,,,0.189882698,0.453812317,0,0,0,,,,,,,SNACK,C,z,y,./images/SNACK.png,,,,,,,,,,,,,,,,,,,,z,1,0.785,,,,,,,,0,117,117,157,1
,,,,,,,,,,,,,,,,,60fc658f2458e31812a4e66d,18,2022-02-12_17h33.24.070,lexical_decision_task_DD_L6,2021.2.3,Win32,60.15761295,,,,,,,,,,,,0.7608,0,,,,,,,,,,,,,,,,,,,,,,,,0.189882698,0.453812317,0,0,0,,,,,,,PLANET,HB,m,y,./images/PLANETHB.png,,,,,,,,,,,,,,,,,,,,z,0,0.7608,,,,,,,,0,118,118,80,1
,,,,,,,,,,,,,,,,,60fc658f2458e31812a4e66d,18,2022-02-12_17h33.24.070,lexical_decision_task_DD_L6,2021.2.3,Win32,60.15761295,,,,,,,,,,,,0.9006,1,,,,,,,,,,,,,,,,,,,,,,,,0.189882698,0.453812317,0,0,0,,,,,,,DOUGH,C,z,y,./images/DOUGH.png,,,,,,,,,,,,,,,,,,,,z,1,0.9006,,,,,,,,0,119,119,103,1
,,,,,,,,,,,,,,,,,60fc658f2458e31812a4e66d,18,2022-02-12_17h33.24.070,lexical_decision_task_DD_L6,2021.2.3,Win32,60.15761295,,,,,,,,,,,,1.1182,1,,,,,,,,,,,,,,,,,,,,,,,,0.189882698,0.453812317,0,0,0,,,,,,,CLOUD,HB,m,y,./images/CLOUDHB.png,,,,,,,,,,,,,,,,,,,,m,1,1.1182,,,,,,,,0,120,120,26,1
,,,,,,,,,,,,,,,,,60fc658f2458e31812a4e66d,18,2022-02-12_17h33.24.070,lexical_decision_task_DD_L6,2021.2.3,Win32,60.15761295,,,,,,,,,,,,0.9186,0,,,,,,,,,,,,,,,,,,,,,,,,0.189882698,0.453812317,0,0,0,,,,,,,BUNNY,C,m,y,./images/BUNNY.png,,,,,,,,,,,,,,,,,,,,z,0,0.9186,,,,,,,,0,121,121,13,1
,,,,,,,,,,,,,,,,,60fc658f2458e31812a4e66d,18,2022-02-12_17h33.24.070,lexical_decision_task_DD_L6,2021.2.3,Win32,60.15761295,,,,,,,,,,,,0.8031,1,,,,,,,,,,,,,,,,,,,,,,,,0.189882698,0.453812317,0,0,0,,,,,,,GRAPE,C,m,y,./images/GRAPE.png,,,,,,,,,,,,,,,,,,,,m,1,0.8031,,,,,,,,0,122,122,16,1
,,,,,,,,,,,,,,,,,60fc658f2458e31812a4e66d,18,2022-02-12_17h33.24.070,lexical_decision_task_DD_L6,2021.2.3,Win32,60.15761295,,,,,,,,,,,,0.5347,1,,,,,,,,,,,,,,,,,,,,,,,,0.189882698,0.453812317,0,0,0,,,,,,,WRIST,C,z,y,./images/WRIST.png,,,,,,,,,,,,,,,,,,,,z,1,0.5347,,,,,,,,0,123,123,109,1
,,,,,,,,,,,,,,,,,60fc658f2458e31812a4e66d,18,2022-02-12_17h33.24.070,lexical_decision_task_DD_L6,2021.2.3,Win32,60.15761295,,,,,,,,,,,,0.5846,1,,,,,,,,,,,,,,,,,,,,,,,,0.189882698,0.453812317,0,0,0,,,,,,,KIDNEY,LB,z,y,./images/KIDNEYLB.png,,,,,,,,,,,,,,,,,,,,z,1,0.5846,,,,,,,,0,124,124,105,1
,,,,,,,,,,,,,,,,,60fc658f2458e31812a4e66d,18,2022-02-12_17h33.24.070,lexical_decision_task_DD_L6,2021.2.3,Win32,60.15761295,,,,,,,,,,,,1.0854,1,,,,,,,,,,,,,,,,,,,,,,,,0.085777126,0.012463343,0,0,0,space,,,,,,SWING,C,z,y,./images/SWING.png,89.3455,,,,,,,,,,,,,,,,,,,z,1,1.0854,,,,,,,,0,125,125,124,1
,,,,,,,,,,,,,,,,,60fc658f2458e31812a4e66d,18,2022-02-12_17h33.24.070,lexical_decision_task_DD_L6,2021.2.3,Win32,60.15761295,,,,,,,,,,,,0.7832,1,,,,,,,,,,,,,,,,,,,,,,,,0.085777126,0.012463343,0,0,0,,,,,,,BLOKE,LB,m,y,./images/BLOKELB.png,,,,,,,,,,,,,,,,,,,,m,1,0.7832,,,,,,,,0,126,126,12,1
,,,,,,,,,,,,,,,,,60fc658f2458e31812a4e66d,18,2022-02-12_17h33.24.070,lexical_decision_task_DD_L6,2021.2.3,Win32,60.15761295,,,,,,,,,,,,0.8441,1,,,,,,,,,,,,,,,,,,,,,,,,0.085777126,0.012463343,0,0,0,,,,,,,STREAM,HB,m,y,./images/STREAMHB.png,,,,,,,,,,,,,,,,,,,,m,1,0.8441,,,,,,,,0,127,127,41,1
,,,,,,,,,,,,,,,,,60fc658f2458e31812a4e66d,18,2022-02-12_17h33.24.070,lexical_decision_task_DD_L6,2021.2.3,Win32,60.15761295,,,,,,,,,,,,0.6676,1,,,,,,,,,,,,,,,,,,,,,,,,0.085777126,0.012463343,0,0,0,,,,,,,TULIP,HB,z,y,./images/TULIPHB.png,,,,,,,,,,,,,,,,,,,,z,1,0.6676,,,,,,,,0,128,128,92,1
,,,,,,,,,,,,,,,,,60fc658f2458e31812a4e66d,18,2022-02-12_17h33.24.070,lexical_decision_task_DD_L6,2021.2.3,Win32,60.15761295,,,,,,,,,,,,1.1359,1,,,,,,,,,,,,,,,,,,,,,,,,0.085777126,0.012463343,0,0,0,,,,,,,PLANK,C,z,y,./images/PLANK.png,,,,,,,,,,,,,,,,,,,,z,1,1.1359,,,,,,,,0,129,129,85,1
,,,,,,,,,,,,,,,,,60fc658f2458e31812a4e66d,18,2022-02-12_17h33.24.070,lexical_decision_task_DD_L6,2021.2.3,Win32,60.15761295,,,,,,,,,,,,0.6498,1,,,,,,,,,,,,,,,,,,,,,,,,0.085777126,0.012463343,0,0,0,,,,,,,JUMPER,HB,m,y,./images/JUMPERHB.png,,,,,,,,,,,,,,,,,,,,m,1,0.6498,,,,,,,,0,130,130,74,1
,,,,,,,,,,,,,,,,,60fc658f2458e31812a4e66d,18,2022-02-12_17h33.24.070,lexical_decision_task_DD_L6,2021.2.3,Win32,60.15761295,,,,,,,,,,,,0.698,1,,,,,,,,,,,,,,,,,,,,,,,,0.085777126,0.012463343,0,0,0,,,,,,,BIRTH,C,z,y,./images/BIRTH.png,,,,,,,,,,,,,,,,,,,,z,1,0.698,,,,,,,,0,131,131,121,1
,,,,,,,,,,,,,,,,,60fc658f2458e31812a4e66d,18,2022-02-12_17h33.24.070,lexical_decision_task_DD_L6,2021.2.3,Win32,60.15761295,,,,,,,,,,,,0.7659,1,,,,,,,,,,,,,,,,,,,,,,,,0.085777126,0.012463343,0,0,0,,,,,,,PENCE,C,z,y,./images/PENCE.png,,,,,,,,,,,,,,,,,,,,z,1,0.7659,,,,,,,,0,132,132,100,1
