key_resp.keys,instr_done_touch.x,instr_done_touch.y,instr_done_touch.leftButton,instr_done_touch.midButton,instr_done_touch.rightButton,instr_done_touch.clicked_name,instruction_pages.thisRepN,instruction_pages.thisTrialN,instruction_pages.thisN,instruction_pages.thisIndex,instruction_pages.ran,pageN,phase,instruct_text,has_image,instruct_image,participant,age,date,expName,psychopyVersion,OS,frameRate,key_resp.rt,response.keys,response.corr,response.rt,touch_resp.x,touch_resp.y,touch_resp.leftButton,touch_resp.midButton,touch_resp.rightButton,touch_resp.time,touch_resp.clicked_name,rt,corr,practrials.thisRepN,practrials.thisTrialN,practrials.thisN,practrials.thisIndex,practrials.ran,TrialID,Target,corrAns,end_of_practice_trials_pages.thisRepN,end_of_practice_trials_pages.thisTrialN,end_of_practice_trials_pages.thisN,end_of_practice_trials_pages.thisIndex,end_of_practice_trials_pages.ran,key_resp_2.keys,key_resp_2.corr,key_resp_2.rt,targ_click.x,targ_click.y,targ_click.leftButton,targ_click.midButton,targ_click.rightButton,targ_click.time,targ_click.clicked_name,break_done_touch.x,break_done_touch.y,break_done_touch.leftButton,break_done_touch.midButton,break_done_touch.rightButton,break_done_keyboard.keys,maintrials.thisRepN,maintrials.thisTrialN,maintrials.thisN,maintrials.thisIndex,maintrials.ran,string,blur,study,lex,stim_path,break_done_touch.clicked_name,mouse_2.x,mouse_2.y,mouse_2.leftButton,mouse_2.midButton,mouse_2.rightButton,mouse_2.clicked_name,slider.response,slider.rt,trials.thisRepN,trials.thisTrialN,trials.thisN,trials.thisIndex,trials.ran,test_instructions.thisRepN,test_instructions.thisTrialN,test_instructions.thisN,test_instructions.thisIndex,test_instructions.ran,key_resp_3.keys,key_resp_3.corr,key_resp_3.rt,test_click.x,test_click.y,test_click.leftButton,test_click.midButton,test_click.rightButton,test_click.time,test_click.clicked_name,test_phase.thisRepN,test_phase.thisTrialN,test_phase.thisN,test_phase.thisIndex,test_phase.ran
,0.113923611,-0.39015625,1,0,0,instr_done_button,0,0,0,0,1,1,instructions,"INSTRUCTIONS
At the start of each trial, look at the plus sign  (+) in the center of the screen.  This tells you that a trial is about to begin and where to look. Second, the plus sign will disappear and a string of letters will appear. Your task is to determine if the string of letters is a word or not. If the item is a word press the M key (on keyboard)  or touch the word button (phone/tablet).  If the item is not a word,  press the  Z key (on keyboard)  or touch the nonword button (on phone/tablet). 
Press the space bar or touch  continue.",0,,60fcaf5a13b051f5c8d978f2,19,2022-02-12_13h47.49.617,lexical_decision_task_DD_L6,2021.2.3,MacIntel,59.99880002,,,,,,,,,,,,,,,,,,,,,,,,,,,,,,,,,,,,,,,,,,,,,,,,,,,,,,,,,,,,,,,,,,,,,,,,,,,,,,,,,,,,,,
space,0.113923611,-0.39015625,0,0,0,,0,1,1,1,1,2,instructions,"If your device has a keyboard, press the 'Z' key for nonwords and the 'M' key for words.





Press the space bar or touch the button below to continue.",0,keyboard-example.gif,60fcaf5a13b051f5c8d978f2,19,2022-02-12_13h47.49.617,lexical_decision_task_DD_L6,2021.2.3,MacIntel,59.99880002,4.5109,,,,,,,,,,,,,,,,,,,,,,,,,,,,,,,,,,,,,,,,,,,,,,,,,,,,,,,,,,,,,,,,,,,,,,,,,,,,,,,,,,,,,
,-0.011371528,-0.425707465,1,0,0,instr_done_button,0,2,2,2,1,3,instructions,"If you are using a touchscreen only device, use the buttons on the screen. Do not use the mouse.





Press the space bar or touch the button below to continue.",0,touchscreen-example.gif,60fcaf5a13b051f5c8d978f2,19,2022-02-12_13h47.49.617,lexical_decision_task_DD_L6,2021.2.3,MacIntel,59.99880002,,,,,,,,,,,,,,,,,,,,,,,,,,,,,,,,,,,,,,,,,,,,,,,,,,,,,,,,,,,,,,,,,,,,,,,,,,,,,,,,,,,,,,
,-0.011371528,-0.425707465,1,0,0,instr_done_button,0,3,3,3,1,4,instructions,"It is very important that you respond as quickly and accurately as possible, as each letter string will only be on the screen for two seconds. If you do not respond within this time, the message 'Too slow!' will be displayed and the experiment will progress to the next letter string. The first 20 trials will be practice trials and you will receive feedback on your answers. 

Press the space bar or touch the button below to start the practice trials.",0,,60fcaf5a13b051f5c8d978f2,19,2022-02-12_13h47.49.617,lexical_decision_task_DD_L6,2021.2.3,MacIntel,59.99880002,,,,,,,,,,,,,,,,,,,,,,,,,,,,,,,,,,,,,,,,,,,,,,,,,,,,,,,,,,,,,,,,,,,,,,,,,,,,,,,,,,,,,,
,,,,,,,,,,,,,,,,,60fcaf5a13b051f5c8d978f2,19,2022-02-12_13h47.49.617,lexical_decision_task_DD_L6,2021.2.3,MacIntel,59.99880002,,m,1,0.585,,,,,,,,0.585,1,0,0,0,5,1,1001,OBTAIN,m,,,,,,,,,,,,,,,,,,,,,,,,,,,,,,,,,,,,,,,,,,,,,,,,,,,,,,,,,,,,,,,,,
,,,,,,,,,,,,,,,,,60fcaf5a13b051f5c8d978f2,19,2022-02-12_13h47.49.617,lexical_decision_task_DD_L6,2021.2.3,MacIntel,59.99880002,,m,0,0.8108,,,,,,,,0.8108,0,0,1,1,13,1,1001,ROUPET,z,,,,,,,,,,,,,,,,,,,,,,,,,,,,,,,,,,,,,,,,,,,,,,,,,,,,,,,,,,,,,,,,,
,,,,,,,,,,,,,,,,,60fcaf5a13b051f5c8d978f2,19,2022-02-12_13h47.49.617,lexical_decision_task_DD_L6,2021.2.3,MacIntel,59.99880002,,m,1,0.5486,,,,,,,,0.5486,1,0,2,2,7,1,1001,VOLUME,m,,,,,,,,,,,,,,,,,,,,,,,,,,,,,,,,,,,,,,,,,,,,,,,,,,,,,,,,,,,,,,,,,
,,,,,,,,,,,,,,,,,60fcaf5a13b051f5c8d978f2,19,2022-02-12_13h47.49.617,lexical_decision_task_DD_L6,2021.2.3,MacIntel,59.99880002,,z,1,0.725,,,,,,,,0.725,1,0,3,3,10,1,1001,INLADE,z,,,,,,,,,,,,,,,,,,,,,,,,,,,,,,,,,,,,,,,,,,,,,,,,,,,,,,,,,,,,,,,,,
,,,,,,,,,,,,,,,,,60fcaf5a13b051f5c8d978f2,19,2022-02-12_13h47.49.617,lexical_decision_task_DD_L6,2021.2.3,MacIntel,59.99880002,,m,1,0.5639,,,,,,,,0.5639,1,0,4,4,4,1,1001,SQUEAK,m,,,,,,,,,,,,,,,,,,,,,,,,,,,,,,,,,,,,,,,,,,,,,,,,,,,,,,,,,,,,,,,,,
,,,,,,,,,,,,,,,,,60fcaf5a13b051f5c8d978f2,19,2022-02-12_13h47.49.617,lexical_decision_task_DD_L6,2021.2.3,MacIntel,59.99880002,,z,1,0.8291,,,,,,,,0.8291,1,0,5,5,12,1,1001,SPRINY,z,,,,,,,,,,,,,,,,,,,,,,,,,,,,,,,,,,,,,,,,,,,,,,,,,,,,,,,,,,,,,,,,,
,,,,,,,,,,,,,,,,,60fcaf5a13b051f5c8d978f2,19,2022-02-12_13h47.49.617,lexical_decision_task_DD_L6,2021.2.3,MacIntel,59.99880002,,m,1,0.5139,,,,,,,,0.5139,1,0,6,6,3,1,1001,MATRIX,m,,,,,,,,,,,,,,,,,,,,,,,,,,,,,,,,,,,,,,,,,,,,,,,,,,,,,,,,,,,,,,,,,
,,,,,,,,,,,,,,,,,60fcaf5a13b051f5c8d978f2,19,2022-02-12_13h47.49.617,lexical_decision_task_DD_L6,2021.2.3,MacIntel,59.99880002,,m,1,0.5185,,,,,,,,0.5185,1,0,7,7,2,1,1001,ALMOND,m,,,,,,,,,,,,,,,,,,,,,,,,,,,,,,,,,,,,,,,,,,,,,,,,,,,,,,,,,,,,,,,,,
,,,,,,,,,,,,,,,,,60fcaf5a13b051f5c8d978f2,19,2022-02-12_13h47.49.617,lexical_decision_task_DD_L6,2021.2.3,MacIntel,59.99880002,,z,1,0.6302,,,,,,,,0.6302,1,0,8,8,14,1,1001,THRALE,z,,,,,,,,,,,,,,,,,,,,,,,,,,,,,,,,,,,,,,,,,,,,,,,,,,,,,,,,,,,,,,,,,
,,,,,,,,,,,,,,,,,60fcaf5a13b051f5c8d978f2,19,2022-02-12_13h47.49.617,lexical_decision_task_DD_L6,2021.2.3,MacIntel,59.99880002,,m,0,0.6638,,,,,,,,0.6638,0,0,9,9,11,1,1001,RASHET,z,,,,,,,,,,,,,,,,,,,,,,,,,,,,,,,,,,,,,,,,,,,,,,,,,,,,,,,,,,,,,,,,,
,,,,,,,,,,,,,,,,,60fcaf5a13b051f5c8d978f2,19,2022-02-12_13h47.49.617,lexical_decision_task_DD_L6,2021.2.3,MacIntel,59.99880002,,m,0,0.4985,,,,,,,,0.4985,0,0,10,10,15,1,1001,WHAISE,z,,,,,,,,,,,,,,,,,,,,,,,,,,,,,,,,,,,,,,,,,,,,,,,,,,,,,,,,,,,,,,,,,
,,,,,,,,,,,,,,,,,60fcaf5a13b051f5c8d978f2,19,2022-02-12_13h47.49.617,lexical_decision_task_DD_L6,2021.2.3,MacIntel,59.99880002,,m,1,0.5477,,,,,,,,0.5477,1,0,11,11,6,1,1001,ZOMBIE,m,,,,,,,,,,,,,,,,,,,,,,,,,,,,,,,,,,,,,,,,,,,,,,,,,,,,,,,,,,,,,,,,,
,,,,,,,,,,,,,,,,,60fcaf5a13b051f5c8d978f2,19,2022-02-12_13h47.49.617,lexical_decision_task_DD_L6,2021.2.3,MacIntel,59.99880002,,m,1,0.6012,,,,,,,,0.6012,1,0,12,12,0,1,1001,UTOPIA,m,,,,,,,,,,,,,,,,,,,,,,,,,,,,,,,,,,,,,,,,,,,,,,,,,,,,,,,,,,,,,,,,,
,,,,,,,,,,,,,,,,,60fcaf5a13b051f5c8d978f2,19,2022-02-12_13h47.49.617,lexical_decision_task_DD_L6,2021.2.3,MacIntel,59.99880002,,m,1,0.6639,,,,,,,,0.6639,1,0,13,13,1,1,1001,ADJUST,m,,,,,,,,,,,,,,,,,,,,,,,,,,,,,,,,,,,,,,,,,,,,,,,,,,,,,,,,,,,,,,,,,
,,,,,,,,,,,,,,,,,60fcaf5a13b051f5c8d978f2,19,2022-02-12_13h47.49.617,lexical_decision_task_DD_L6,2021.2.3,MacIntel,59.99880002,,z,1,0.6543,,,,,,,,0.6543,1,0,14,14,8,1,1001,ASLERT,z,,,,,,,,,,,,,,,,,,,,,,,,,,,,,,,,,,,,,,,,,,,,,,,,,,,,,,,,,,,,,,,,,
,,,,,,,,,,,,,,,,,60fcaf5a13b051f5c8d978f2,19,2022-02-12_13h47.49.617,lexical_decision_task_DD_L6,2021.2.3,MacIntel,59.99880002,,z,1,0.7139,,,,,,,,0.7139,1,0,15,15,9,1,1001,FARINY,z,,,,,,,,,,,,,,,,,,,,,,,,,,,,,,,,,,,,,,,,,,,,,,,,,,,,,,,,,,,,,,,,,
,-0.008836806,-0.397947049,1,0,0,instr_done_button,,,,,,1,end_of_practice,"You have completed the practice trials. During the experimental trials, you will not receive feedback. 
Before you begin, please ensure that you are in a comfortable and quiet location and will not be disturbed for about 15 minutes, as we cannot use your data if you do not complete all the trials. 
 When you are ready to start the experimental trials, please press space or touch the button below.",,,60fcaf5a13b051f5c8d978f2,19,2022-02-12_13h47.49.617,lexical_decision_task_DD_L6,2021.2.3,MacIntel,59.99880002,,,,,,,,,,,,,,,,,,,,,,0,0,0,0,1,,,,,,,,,,,,,,,,,,,,,,,,,,,,,,,,,,,,,,,,,,,,,,,,,,,,,,,,,,,,
,,,,,,,,,,,,,,,,,60fcaf5a13b051f5c8d978f2,19,2022-02-12_13h47.49.617,lexical_decision_task_DD_L6,2021.2.3,MacIntel,59.99880002,,,,,,,,,,,,1.4658,0,,,,,,,,,,,,,,z,0,1.4658,,,,,,,,-0.008836806,-0.397947049,0,0,0,,0,0,0,20,1,GRANNY,HB,m,m,./images/GRANNYHB.png,,,,,,,,,,,,,,,,,,,,,,,,,,,,,,,,,,
,,,,,,,,,,,,,,,,,60fcaf5a13b051f5c8d978f2,19,2022-02-12_13h47.49.617,lexical_decision_task_DD_L6,2021.2.3,MacIntel,59.99880002,,,,,,,,,,,,1.2778,1,,,,,,,,,,,,,,z,1,1.2778,,,,,,,,-0.008836806,-0.397947049,0,0,0,,0,1,1,109,1,BURGE,HB,z,z,./images/BURGEHB.png,,,,,,,,,,,,,,,,,,,,,,,,,,,,,,,,,,
,,,,,,,,,,,,,,,,,60fcaf5a13b051f5c8d978f2,19,2022-02-12_13h47.49.617,lexical_decision_task_DD_L6,2021.2.3,MacIntel,59.99880002,,,,,,,,,,,,0.6096,1,,,,,,,,,,,,,,m,1,0.6096,,,,,,,,-0.008836806,-0.397947049,0,0,0,,0,2,2,36,1,BOILER,LB,m,m,./images/BOILERLB.png,,,,,,,,,,,,,,,,,,,,,,,,,,,,,,,,,,
,,,,,,,,,,,,,,,,,60fcaf5a13b051f5c8d978f2,19,2022-02-12_13h47.49.617,lexical_decision_task_DD_L6,2021.2.3,MacIntel,59.99880002,,,,,,,,,,,,0.6986,1,,,,,,,,,,,,,,z,1,0.6986,,,,,,,,-0.008836806,-0.397947049,0,0,0,,0,3,3,138,1,PLICE,C,z,z,./images/PLICE.png,,,,,,,,,,,,,,,,,,,,,,,,,,,,,,,,,,
,,,,,,,,,,,,,,,,,60fcaf5a13b051f5c8d978f2,19,2022-02-12_13h47.49.617,lexical_decision_task_DD_L6,2021.2.3,MacIntel,59.99880002,,,,,,,,,,,,0.9588,1,,,,,,,,,,,,,,m,1,0.9588,,,,,,,,-0.008836806,-0.397947049,0,0,0,,0,4,4,23,1,CLOTH,HB,m,m,./images/CLOTHHB.png,,,,,,,,,,,,,,,,,,,,,,,,,,,,,,,,,,
,,,,,,,,,,,,,,,,,60fcaf5a13b051f5c8d978f2,19,2022-02-12_13h47.49.617,lexical_decision_task_DD_L6,2021.2.3,MacIntel,59.99880002,,,,,,,,,,,,0.7405,1,,,,,,,,,,,,,,z,1,0.7405,,,,,,,,-0.008836806,-0.397947049,0,0,0,,0,5,5,165,1,TROWN,C,z,z,./images/TROWN.png,,,,,,,,,,,,,,,,,,,,,,,,,,,,,,,,,,
,,,,,,,,,,,,,,,,,60fcaf5a13b051f5c8d978f2,19,2022-02-12_13h47.49.617,lexical_decision_task_DD_L6,2021.2.3,MacIntel,59.99880002,,,,,,,,,,,,0.8093,1,,,,,,,,,,,,,,z,1,0.8093,,,,,,,,-0.008836806,-0.397947049,0,0,0,,0,6,6,131,1,NACES,LB,z,z,./images/NACESLB.png,,,,,,,,,,,,,,,,,,,,,,,,,,,,,,,,,,
,,,,,,,,,,,,,,,,,60fcaf5a13b051f5c8d978f2,19,2022-02-12_13h47.49.617,lexical_decision_task_DD_L6,2021.2.3,MacIntel,59.99880002,,,,,,,,,,,,1.1765,1,,,,,,,,,,,,,,z,1,1.1765,,,,,,,,-0.008836806,-0.397947049,0,0,0,,0,7,7,103,1,FLORT,HB,z,z,./images/FLORTHB.png,,,,,,,,,,,,,,,,,,,,,,,,,,,,,,,,,,
,,,,,,,,,,,,,,,,,60fcaf5a13b051f5c8d978f2,19,2022-02-12_13h47.49.617,lexical_decision_task_DD_L6,2021.2.3,MacIntel,59.99880002,,,,,,,,,,,,0.6755,1,,,,,,,,,,,,,,z,1,0.6755,,,,,,,,-0.008836806,-0.397947049,0,0,0,,0,8,8,128,1,GRIFT,LB,z,z,./images/GRIFTLB.png,,,,,,,,,,,,,,,,,,,,,,,,,,,,,,,,,,
,,,,,,,,,,,,,,,,,60fcaf5a13b051f5c8d978f2,19,2022-02-12_13h47.49.617,lexical_decision_task_DD_L6,2021.2.3,MacIntel,59.99880002,,,,,,,,,,,,0.6186,1,,,,,,,,,,,,,,z,1,0.6186,,,,,,,,-0.008836806,-0.397947049,0,0,0,,0,9,9,120,1,RINED,C,z,z,./images/RINED.png,,,,,,,,,,,,,,,,,,,,,,,,,,,,,,,,,,
,,,,,,,,,,,,,,,,,60fcaf5a13b051f5c8d978f2,19,2022-02-12_13h47.49.617,lexical_decision_task_DD_L6,2021.2.3,MacIntel,59.99880002,,,,,,,,,,,,0.575,1,,,,,,,,,,,,,,m,1,0.575,,,,,,,,-0.008836806,-0.397947049,0,0,0,,0,10,10,24,1,FLESH,LB,m,m,./images/FLESHLB.png,,,,,,,,,,,,,,,,,,,,,,,,,,,,,,,,,,
,,,,,,,,,,,,,,,,,60fcaf5a13b051f5c8d978f2,19,2022-02-12_13h47.49.617,lexical_decision_task_DD_L6,2021.2.3,MacIntel,59.99880002,,,,,,,,,,,,0.7085,1,,,,,,,,,,,,,,m,1,0.7085,,,,,,,,-0.008836806,-0.397947049,0,0,0,,0,11,11,9,1,DIVER,LB,m,m,./images/DIVERLB.png,,,,,,,,,,,,,,,,,,,,,,,,,,,,,,,,,,
,,,,,,,,,,,,,,,,,60fcaf5a13b051f5c8d978f2,19,2022-02-12_13h47.49.617,lexical_decision_task_DD_L6,2021.2.3,MacIntel,59.99880002,,,,,,,,,,,,0.577,1,,,,,,,,,,,,,,m,1,0.577,,,,,,,,-0.008836806,-0.397947049,0,0,0,,0,12,12,52,1,DESERT,C,m,m,./images/DESERT.png,,,,,,,,,,,,,,,,,,,,,,,,,,,,,,,,,,
,,,,,,,,,,,,,,,,,60fcaf5a13b051f5c8d978f2,19,2022-02-12_13h47.49.617,lexical_decision_task_DD_L6,2021.2.3,MacIntel,59.99880002,,,,,,,,,,,,0.6491,1,,,,,,,,,,,,,,z,1,0.6491,,,,,,,,-0.008836806,-0.397947049,0,0,0,,0,13,13,121,1,CEERS,HB,z,z,./images/CEERSHB.png,,,,,,,,,,,,,,,,,,,,,,,,,,,,,,,,,,
,,,,,,,,,,,,,,,,,60fcaf5a13b051f5c8d978f2,19,2022-02-12_13h47.49.617,lexical_decision_task_DD_L6,2021.2.3,MacIntel,59.99880002,,,,,,,,,,,,0.6954,1,,,,,,,,,,,,,,z,1,0.6954,,,,,,,,-0.008836806,-0.397947049,0,0,0,,0,14,14,167,1,ZONET,LB,z,z,./images/ZONETLB.png,,,,,,,,,,,,,,,,,,,,,,,,,,,,,,,,,,
,,,,,,,,,,,,,,,,,60fcaf5a13b051f5c8d978f2,19,2022-02-12_13h47.49.617,lexical_decision_task_DD_L6,2021.2.3,MacIntel,59.99880002,,,,,,,,,,,,0.5256,1,,,,,,,,,,,,,,z,1,0.5256,,,,,,,,-0.008836806,-0.397947049,0,0,0,,0,15,15,116,1,BALGY,LB,z,z,./images/BALGYLB.png,,,,,,,,,,,,,,,,,,,,,,,,,,,,,,,,,,
,,,,,,,,,,,,,,,,,60fcaf5a13b051f5c8d978f2,19,2022-02-12_13h47.49.617,lexical_decision_task_DD_L6,2021.2.3,MacIntel,59.99880002,,,,,,,,,,,,0.5763,0,,,,,,,,,,,,,,z,0,0.5763,,,,,,,,-0.008836806,-0.397947049,0,0,0,,0,16,16,35,1,LLAMA,HB,m,m,./images/LLAMAHB.png,,,,,,,,,,,,,,,,,,,,,,,,,,,,,,,,,,
,,,,,,,,,,,,,,,,,60fcaf5a13b051f5c8d978f2,19,2022-02-12_13h47.49.617,lexical_decision_task_DD_L6,2021.2.3,MacIntel,59.99880002,,,,,,,,,,,,0.5443,1,,,,,,,,,,,,,,m,1,0.5443,,,,,,,,-0.008836806,-0.397947049,0,0,0,,0,17,17,34,1,RAZOR,C,m,m,./images/RAZOR.png,,,,,,,,,,,,,,,,,,,,,,,,,,,,,,,,,,
,,,,,,,,,,,,,,,,,60fcaf5a13b051f5c8d978f2,19,2022-02-12_13h47.49.617,lexical_decision_task_DD_L6,2021.2.3,MacIntel,59.99880002,,,,,,,,,,,,0.5631,1,,,,,,,,,,,,,,z,1,0.5631,,,,,,,,-0.008836806,-0.397947049,0,0,0,,0,18,18,130,1,CRILL,HB,z,z,./images/CRILLHB.png,,,,,,,,,,,,,,,,,,,,,,,,,,,,,,,,,,
,,,,,,,,,,,,,,,,,60fcaf5a13b051f5c8d978f2,19,2022-02-12_13h47.49.617,lexical_decision_task_DD_L6,2021.2.3,MacIntel,59.99880002,,,,,,,,,,,,0.5011,1,,,,,,,,,,,,,,z,1,0.5011,,,,,,,,-0.008836806,-0.397947049,0,0,0,,0,19,19,162,1,LEICH,C,z,z,./images/LEICH.png,,,,,,,,,,,,,,,,,,,,,,,,,,,,,,,,,,
,,,,,,,,,,,,,,,,,60fcaf5a13b051f5c8d978f2,19,2022-02-12_13h47.49.617,lexical_decision_task_DD_L6,2021.2.3,MacIntel,59.99880002,,,,,,,,,,,,0.8246,1,,,,,,,,,,,,,,z,1,0.8246,,,,,,,,-0.008836806,-0.397947049,0,0,0,,0,20,20,110,1,CRUNK,LB,z,z,./images/CRUNKLB.png,,,,,,,,,,,,,,,,,,,,,,,,,,,,,,,,,,
,,,,,,,,,,,,,,,,,60fcaf5a13b051f5c8d978f2,19,2022-02-12_13h47.49.617,lexical_decision_task_DD_L6,2021.2.3,MacIntel,59.99880002,,,,,,,,,,,,0.6418,1,,,,,,,,,,,,,,z,1,0.6418,,,,,,,,-0.008836806,-0.397947049,0,0,0,,0,21,21,161,1,BLAPS,LB,z,z,./images/BLAPSLB.png,,,,,,,,,,,,,,,,,,,,,,,,,,,,,,,,,,
,,,,,,,,,,,,,,,,,60fcaf5a13b051f5c8d978f2,19,2022-02-12_13h47.49.617,lexical_decision_task_DD_L6,2021.2.3,MacIntel,59.99880002,,,,,,,,,,,,0.6691,1,,,,,,,,,,,,,,m,1,0.6691,,,,,,,,-0.008836806,-0.397947049,0,0,0,,0,22,22,46,1,MUMMY,C,m,m,./images/MUMMY.png,,,,,,,,,,,,,,,,,,,,,,,,,,,,,,,,,,
,,,,,,,,,,,,,,,,,60fcaf5a13b051f5c8d978f2,19,2022-02-12_13h47.49.617,lexical_decision_task_DD_L6,2021.2.3,MacIntel,59.99880002,,,,,,,,,,,,0.7244,0,,,,,,,,,,,,,,z,0,0.7244,,,,,,,,-0.008836806,-0.397947049,0,0,0,,0,23,23,32,1,HOCKEY,HB,m,m,./images/HOCKEYHB.png,,,,,,,,,,,,,,,,,,,,,,,,,,,,,,,,,,
,,,,,,,,,,,,,,,,,60fcaf5a13b051f5c8d978f2,19,2022-02-12_13h47.49.617,lexical_decision_task_DD_L6,2021.2.3,MacIntel,59.99880002,,,,,,,,,,,,0.6846,1,,,,,,,,,,,,,,m,1,0.6846,,,,,,,,-0.008836806,-0.397947049,0,0,0,,0,24,24,82,1,PEBBLE,C,m,m,./images/PEBBLE.png,,,,,,,,,,,,,,,,,,,,,,,,,,,,,,,,,,
,,,,,,,,,,,,,,,,,60fcaf5a13b051f5c8d978f2,19,2022-02-12_13h47.49.617,lexical_decision_task_DD_L6,2021.2.3,MacIntel,59.99880002,,,,,,,,,,,,0.6991,0,,,,,,,,,,,,,,z,0,0.6991,,,,,,,,-0.008836806,-0.397947049,0,0,0,,0,25,25,53,1,POSTER,HB,m,m,./images/POSTERHB.png,,,,,,,,,,,,,,,,,,,,,,,,,,,,,,,,,,
,,,,,,,,,,,,,,,,,60fcaf5a13b051f5c8d978f2,19,2022-02-12_13h47.49.617,lexical_decision_task_DD_L6,2021.2.3,MacIntel,59.99880002,,,,,,,,,,,,0.52,1,,,,,,,,,,,,,,z,1,0.52,,,,,,,,-0.008836806,-0.397947049,0,0,0,,0,26,26,96,1,KEAMS,C,z,z,./images/KEAMS.png,,,,,,,,,,,,,,,,,,,,,,,,,,,,,,,,,,
,,,,,,,,,,,,,,,,,60fcaf5a13b051f5c8d978f2,19,2022-02-12_13h47.49.617,lexical_decision_task_DD_L6,2021.2.3,MacIntel,59.99880002,,,,,,,,,,,,0.6761,1,,,,,,,,,,,,,,m,1,0.6761,,,,,,,,-0.008836806,-0.397947049,0,0,0,,0,27,27,8,1,CLIFF,HB,m,m,./images/CLIFFHB.png,,,,,,,,,,,,,,,,,,,,,,,,,,,,,,,,,,
,,,,,,,,,,,,,,,,,60fcaf5a13b051f5c8d978f2,19,2022-02-12_13h47.49.617,lexical_decision_task_DD_L6,2021.2.3,MacIntel,59.99880002,,,,,,,,,,,,0.6775,1,,,,,,,,,,,,,,m,1,0.6775,,,,,,,,-0.008836806,-0.397947049,0,0,0,,0,28,28,62,1,MAMMAL,HB,m,m,./images/MAMMALHB.png,,,,,,,,,,,,,,,,,,,,,,,,,,,,,,,,,,
,,,,,,,,,,,,,,,,,60fcaf5a13b051f5c8d978f2,19,2022-02-12_13h47.49.617,lexical_decision_task_DD_L6,2021.2.3,MacIntel,59.99880002,,,,,,,,,,,,0.6262,0,,,,,,,,,,,,,,z,0,0.6262,,,,,,,,-0.008836806,-0.397947049,0,0,0,,0,29,29,47,1,LAGOON,HB,m,m,./images/LAGOONHB.png,,,,,,,,,,,,,,,,,,,,,,,,,,,,,,,,,,
,,,,,,,,,,,,,,,,,60fcaf5a13b051f5c8d978f2,19,2022-02-12_13h47.49.617,lexical_decision_task_DD_L6,2021.2.3,MacIntel,59.99880002,,,,,,,,,,,,0.7413,1,,,,,,,,,,,,,,m,1,0.7413,,,,,,,,-0.008836806,-0.397947049,0,0,0,,0,30,30,43,1,STOOL,C,m,m,./images/STOOL.png,,,,,,,,,,,,,,,,,,,,,,,,,,,,,,,,,,
,,,,,,,,,,,,,,,,,60fcaf5a13b051f5c8d978f2,19,2022-02-12_13h47.49.617,lexical_decision_task_DD_L6,2021.2.3,MacIntel,59.99880002,,,,,,,,,,,,0.6315,1,,,,,,,,,,,,,,m,1,0.6315,,,,,,,,-0.008836806,-0.397947049,0,0,0,,0,31,31,33,1,SAUNA,LB,m,m,./images/SAUNALB.png,,,,,,,,,,,,,,,,,,,,,,,,,,,,,,,,,,
,,,,,,,,,,,,,,,,,60fcaf5a13b051f5c8d978f2,19,2022-02-12_13h47.49.617,lexical_decision_task_DD_L6,2021.2.3,MacIntel,59.99880002,,,,,,,,,,,,0.6372,1,,,,,,,,,,,,,,m,1,0.6372,,,,,,,,-0.008836806,-0.397947049,0,0,0,,0,32,32,27,1,BUTTER,LB,m,m,./images/BUTTERLB.png,,,,,,,,,,,,,,,,,,,,,,,,,,,,,,,,,,
,,,,,,,,,,,,,,,,,60fcaf5a13b051f5c8d978f2,19,2022-02-12_13h47.49.617,lexical_decision_task_DD_L6,2021.2.3,MacIntel,59.99880002,,,,,,,,,,,,0.516,1,,,,,,,,,,,,,,z,1,0.516,,,,,,,,-0.008836806,-0.397947049,0,0,0,,0,33,33,140,1,DOVET,LB,z,z,./images/DOVETLB.png,,,,,,,,,,,,,,,,,,,,,,,,,,,,,,,,,,
,,,,,,,,,,,,,,,,,60fcaf5a13b051f5c8d978f2,19,2022-02-12_13h47.49.617,lexical_decision_task_DD_L6,2021.2.3,MacIntel,59.99880002,,,,,,,,,,,,0.6462,1,,,,,,,,,,,,,,z,1,0.6462,,,,,,,,-0.008836806,-0.397947049,0,0,0,,0,34,34,143,1,MONGS,LB,z,z,./images/MONGSLB.png,,,,,,,,,,,,,,,,,,,,,,,,,,,,,,,,,,
,,,,,,,,,,,,,,,,,60fcaf5a13b051f5c8d978f2,19,2022-02-12_13h47.49.617,lexical_decision_task_DD_L6,2021.2.3,MacIntel,59.99880002,,,,,,,,,,,,0.5862,1,,,,,,,,,,,,,,z,1,0.5862,,,,,,,,-0.008836806,-0.397947049,0,0,0,,0,35,35,108,1,GRUET,C,z,z,./images/GRUET.png,,,,,,,,,,,,,,,,,,,,,,,,,,,,,,,,,,
,,,,,,,,,,,,,,,,,60fcaf5a13b051f5c8d978f2,19,2022-02-12_13h47.49.617,lexical_decision_task_DD_L6,2021.2.3,MacIntel,59.99880002,,,,,,,,,,,,0.6567,1,,,,,,,,,,,,,,m,1,0.6567,,,,,,,,-0.008836806,-0.397947049,0,0,0,,0,36,36,72,1,FLASK,LB,m,m,./images/FLASKLB.png,,,,,,,,,,,,,,,,,,,,,,,,,,,,,,,,,,
,,,,,,,,,,,,,,,,,60fcaf5a13b051f5c8d978f2,19,2022-02-12_13h47.49.617,lexical_decision_task_DD_L6,2021.2.3,MacIntel,59.99880002,,,,,,,,,,,,0.5624,0,,,,,,,,,,,,,,z,0,0.5624,,,,,,,,-0.008836806,-0.397947049,0,0,0,,0,37,37,65,1,SPINE,HB,m,m,./images/SPINEHB.png,,,,,,,,,,,,,,,,,,,,,,,,,,,,,,,,,,
,,,,,,,,,,,,,,,,,60fcaf5a13b051f5c8d978f2,19,2022-02-12_13h47.49.617,lexical_decision_task_DD_L6,2021.2.3,MacIntel,59.99880002,,,,,,,,,,,,0.466,0,,,,,,,,,,,,,,z,0,0.466,,,,,,,,-0.008836806,-0.397947049,0,0,0,,0,38,38,51,1,SAUCE,LB,m,m,./images/SAUCELB.png,,,,,,,,,,,,,,,,,,,,,,,,,,,,,,,,,,
,,,,,,,,,,,,,,,,,60fcaf5a13b051f5c8d978f2,19,2022-02-12_13h47.49.617,lexical_decision_task_DD_L6,2021.2.3,MacIntel,59.99880002,,,,,,,,,,,,0.6851,1,,,,,,,,,,,,,,z,1,0.6851,,,,,,,,-0.008836806,-0.397947049,0,0,0,,0,39,39,147,1,ZOLES,C,z,z,./images/ZOLES.png,,,,,,,,,,,,,,,,,,,,,,,,,,,,,,,,,,
,,,,,,,,,,,,,,,,,60fcaf5a13b051f5c8d978f2,19,2022-02-12_13h47.49.617,lexical_decision_task_DD_L6,2021.2.3,MacIntel,59.99880002,,,,,,,,,,,,0.7389,1,,,,,,,,,,,,,,m,1,0.7389,,,,,,,,-0.008836806,-0.397947049,0,0,0,,0,40,40,44,1,BASKET,HB,m,m,./images/BASKETHB.png,,,,,,,,,,,,,,,,,,,,,,,,,,,,,,,,,,
,,,,,,,,,,,,,,,,,60fcaf5a13b051f5c8d978f2,19,2022-02-12_13h47.49.617,lexical_decision_task_DD_L6,2021.2.3,MacIntel,59.99880002,,,,,,,,,,,,0.6911,1,,,,,,,,,,,,,,m,1,0.6911,,,,,,,,0.04297309,-0.413945312,1,0,0,,0,41,41,68,1,VALLEY,HB,m,m,./images/VALLEYHB.png,break_done_button,,,,,,,,,,,,,,,,,,,,,,,,,,,,,,,,,
,,,,,,,,,,,,,,,,,60fcaf5a13b051f5c8d978f2,19,2022-02-12_13h47.49.617,lexical_decision_task_DD_L6,2021.2.3,MacIntel,59.99880002,,,,,,,,,,,,0.557,1,,,,,,,,,,,,,,m,1,0.557,,,,,,,,0.04297309,-0.413945312,0,0,0,,0,42,42,49,1,BISHOP,C,m,m,./images/BISHOP.png,,,,,,,,,,,,,,,,,,,,,,,,,,,,,,,,,,
,,,,,,,,,,,,,,,,,60fcaf5a13b051f5c8d978f2,19,2022-02-12_13h47.49.617,lexical_decision_task_DD_L6,2021.2.3,MacIntel,59.99880002,,,,,,,,,,,,0.4605,1,,,,,,,,,,,,,,m,1,0.4605,,,,,,,,0.04297309,-0.413945312,0,0,0,,0,43,43,21,1,DANCER,LB,m,m,./images/DANCERLB.png,,,,,,,,,,,,,,,,,,,,,,,,,,,,,,,,,,
,,,,,,,,,,,,,,,,,60fcaf5a13b051f5c8d978f2,19,2022-02-12_13h47.49.617,lexical_decision_task_DD_L6,2021.2.3,MacIntel,59.99880002,,,,,,,,,,,,0.5535,1,,,,,,,,,,,,,,z,1,0.5535,,,,,,,,0.04297309,-0.413945312,0,0,0,,0,44,44,132,1,SCIFF,C,z,z,./images/SCIFF.png,,,,,,,,,,,,,,,,,,,,,,,,,,,,,,,,,,
,,,,,,,,,,,,,,,,,60fcaf5a13b051f5c8d978f2,19,2022-02-12_13h47.49.617,lexical_decision_task_DD_L6,2021.2.3,MacIntel,59.99880002,,,,,,,,,,,,0.4552,1,,,,,,,,,,,,,,z,1,0.4552,,,,,,,,0.04297309,-0.413945312,0,0,0,,0,45,45,156,1,HIXES,C,z,z,./images/HIXES.png,,,,,,,,,,,,,,,,,,,,,,,,,,,,,,,,,,
,,,,,,,,,,,,,,,,,60fcaf5a13b051f5c8d978f2,19,2022-02-12_13h47.49.617,lexical_decision_task_DD_L6,2021.2.3,MacIntel,59.99880002,,,,,,,,,,,,0.6595,1,,,,,,,,,,,,,,z,1,0.6595,,,,,,,,0.04297309,-0.413945312,0,0,0,,0,46,46,86,1,AIFED,LB,z,z,./images/AIFEDLB.png,,,,,,,,,,,,,,,,,,,,,,,,,,,,,,,,,,
,,,,,,,,,,,,,,,,,60fcaf5a13b051f5c8d978f2,19,2022-02-12_13h47.49.617,lexical_decision_task_DD_L6,2021.2.3,MacIntel,59.99880002,,,,,,,,,,,,0.9408,0,,,,,,,,,,,,,,z,0,0.9408,,,,,,,,0.04297309,-0.413945312,0,0,0,,0,47,47,17,1,PARADE,HB,m,m,./images/PARADEHB.png,,,,,,,,,,,,,,,,,,,,,,,,,,,,,,,,,,
,,,,,,,,,,,,,,,,,60fcaf5a13b051f5c8d978f2,19,2022-02-12_13h47.49.617,lexical_decision_task_DD_L6,2021.2.3,MacIntel,59.99880002,,,,,,,,,,,,0.7631,1,,,,,,,,,,,,,,z,1,0.7631,,,,,,,,0.04297309,-0.413945312,0,0,0,,0,48,48,124,1,TUNCH,HB,z,z,./images/TUNCHHB.png,,,,,,,,,,,,,,,,,,,,,,,,,,,,,,,,,,
,,,,,,,,,,,,,,,,,60fcaf5a13b051f5c8d978f2,19,2022-02-12_13h47.49.617,lexical_decision_task_DD_L6,2021.2.3,MacIntel,59.99880002,,,,,,,,,,,,0.5635,1,,,,,,,,,,,,,,z,1,0.5635,,,,,,,,0.04297309,-0.413945312,0,0,0,,0,49,49,87,1,TRING,C,z,z,./images/TRING.png,,,,,,,,,,,,,,,,,,,,,,,,,,,,,,,,,,
,,,,,,,,,,,,,,,,,60fcaf5a13b051f5c8d978f2,19,2022-02-12_13h47.49.617,lexical_decision_task_DD_L6,2021.2.3,MacIntel,59.99880002,,,,,,,,,,,,0.5555,1,,,,,,,,,,,,,,m,1,0.5555,,,,,,,,0.04297309,-0.413945312,0,0,0,,0,50,50,70,1,BANANA,C,m,m,./images/BANANA.png,,,,,,,,,,,,,,,,,,,,,,,,,,,,,,,,,,
,,,,,,,,,,,,,,,,,60fcaf5a13b051f5c8d978f2,19,2022-02-12_13h47.49.617,lexical_decision_task_DD_L6,2021.2.3,MacIntel,59.99880002,,,,,,,,,,,,0.4388,1,,,,,,,,,,,,,,m,1,0.4388,,,,,,,,0.04297309,-0.413945312,0,0,0,,0,51,51,16,1,GRAPE,C,m,m,./images/GRAPE.png,,,,,,,,,,,,,,,,,,,,,,,,,,,,,,,,,,
,,,,,,,,,,,,,,,,,60fcaf5a13b051f5c8d978f2,19,2022-02-12_13h47.49.617,lexical_decision_task_DD_L6,2021.2.3,MacIntel,59.99880002,,,,,,,,,,,,0.8056,0,,,,,,,,,,,,,,m,0,0.8056,,,,,,,,0.04297309,-0.413945312,0,0,0,,0,52,52,90,1,NEAST,C,z,z,./images/NEAST.png,,,,,,,,,,,,,,,,,,,,,,,,,,,,,,,,,,
,,,,,,,,,,,,,,,,,60fcaf5a13b051f5c8d978f2,19,2022-02-12_13h47.49.617,lexical_decision_task_DD_L6,2021.2.3,MacIntel,59.99880002,,,,,,,,,,,,0.526,1,,,,,,,,,,,,,,m,1,0.526,,,,,,,,0.04297309,-0.413945312,0,0,0,,0,53,53,4,1,BOXER,C,m,m,./images/BOXER.png,,,,,,,,,,,,,,,,,,,,,,,,,,,,,,,,,,
,,,,,,,,,,,,,,,,,60fcaf5a13b051f5c8d978f2,19,2022-02-12_13h47.49.617,lexical_decision_task_DD_L6,2021.2.3,MacIntel,59.99880002,,,,,,,,,,,,0.7691,1,,,,,,,,,,,,,,z,1,0.7691,,,,,,,,0.04297309,-0.413945312,0,0,0,,0,54,54,141,1,PLEET,C,z,z,./images/PLEET.png,,,,,,,,,,,,,,,,,,,,,,,,,,,,,,,,,,
,,,,,,,,,,,,,,,,,60fcaf5a13b051f5c8d978f2,19,2022-02-12_13h47.49.617,lexical_decision_task_DD_L6,2021.2.3,MacIntel,59.99880002,,,,,,,,,,,,0.5598,1,,,,,,,,,,,,,,z,1,0.5598,,,,,,,,0.04297309,-0.413945312,0,0,0,,0,55,55,89,1,DRIEK,LB,z,z,./images/DRIEKLB.png,,,,,,,,,,,,,,,,,,,,,,,,,,,,,,,,,,
,,,,,,,,,,,,,,,,,60fcaf5a13b051f5c8d978f2,19,2022-02-12_13h47.49.617,lexical_decision_task_DD_L6,2021.2.3,MacIntel,59.99880002,,,,,,,,,,,,0.6258,1,,,,,,,,,,,,,,z,1,0.6258,,,,,,,,0.04297309,-0.413945312,0,0,0,,0,56,56,158,1,EGECT,LB,z,z,./images/EGECTLB.png,,,,,,,,,,,,,,,,,,,,,,,,,,,,,,,,,,
,,,,,,,,,,,,,,,,,60fcaf5a13b051f5c8d978f2,19,2022-02-12_13h47.49.617,lexical_decision_task_DD_L6,2021.2.3,MacIntel,59.99880002,,,,,,,,,,,,0.6747,1,,,,,,,,,,,,,,m,1,0.6747,,,,,,,,0.04297309,-0.413945312,0,0,0,,0,57,57,55,1,ALLEY,C,m,m,./images/ALLEY.png,,,,,,,,,,,,,,,,,,,,,,,,,,,,,,,,,,
,,,,,,,,,,,,,,,,,60fcaf5a13b051f5c8d978f2,19,2022-02-12_13h47.49.617,lexical_decision_task_DD_L6,2021.2.3,MacIntel,59.99880002,,,,,,,,,,,,0.5195,1,,,,,,,,,,,,,,m,1,0.5195,,,,,,,,0.04297309,-0.413945312,0,0,0,,0,58,58,67,1,POKER,C,m,m,./images/POKER.png,,,,,,,,,,,,,,,,,,,,,,,,,,,,,,,,,,
,,,,,,,,,,,,,,,,,60fcaf5a13b051f5c8d978f2,19,2022-02-12_13h47.49.617,lexical_decision_task_DD_L6,2021.2.3,MacIntel,59.99880002,,,,,,,,,,,,0.5074,1,,,,,,,,,,,,,,m,1,0.5074,,,,,,,,0.04297309,-0.413945312,0,0,0,,0,59,59,69,1,ARROW,LB,m,m,./images/ARROWLB.png,,,,,,,,,,,,,,,,,,,,,,,,,,,,,,,,,,
,,,,,,,,,,,,,,,,,60fcaf5a13b051f5c8d978f2,19,2022-02-12_13h47.49.617,lexical_decision_task_DD_L6,2021.2.3,MacIntel,59.99880002,,,,,,,,,,,,0.9613,0,,,,,,,,,,,,,,z,0,0.9613,,,,,,,,0.04297309,-0.413945312,0,0,0,,0,60,60,77,1,WHEEL,HB,m,m,./images/WHEELHB.png,,,,,,,,,,,,,,,,,,,,,,,,,,,,,,,,,,
,,,,,,,,,,,,,,,,,60fcaf5a13b051f5c8d978f2,19,2022-02-12_13h47.49.617,lexical_decision_task_DD_L6,2021.2.3,MacIntel,59.99880002,,,,,,,,,,,,0.4922,1,,,,,,,,,,,,,,m,1,0.4922,,,,,,,,0.04297309,-0.413945312,0,0,0,,0,61,61,79,1,RULER,C,m,m,./images/RULER.png,,,,,,,,,,,,,,,,,,,,,,,,,,,,,,,,,,
,,,,,,,,,,,,,,,,,60fcaf5a13b051f5c8d978f2,19,2022-02-12_13h47.49.617,lexical_decision_task_DD_L6,2021.2.3,MacIntel,59.99880002,,,,,,,,,,,,0.6213,1,,,,,,,,,,,,,,z,1,0.6213,,,,,,,,0.04297309,-0.413945312,0,0,0,,0,62,62,126,1,GUELS,C,z,z,./images/GUELS.png,,,,,,,,,,,,,,,,,,,,,,,,,,,,,,,,,,
,,,,,,,,,,,,,,,,,60fcaf5a13b051f5c8d978f2,19,2022-02-12_13h47.49.617,lexical_decision_task_DD_L6,2021.2.3,MacIntel,59.99880002,,,,,,,,,,,,0.5392,1,,,,,,,,,,,,,,z,1,0.5392,,,,,,,,0.04297309,-0.413945312,0,0,0,,0,63,63,150,1,NOOLS,C,z,z,./images/NOOLS.png,,,,,,,,,,,,,,,,,,,,,,,,,,,,,,,,,,
,,,,,,,,,,,,,,,,,60fcaf5a13b051f5c8d978f2,19,2022-02-12_13h47.49.617,lexical_decision_task_DD_L6,2021.2.3,MacIntel,59.99880002,,,,,,,,,,,,1.0087,1,,,,,,,,,,,,,,z,1,1.0087,,,,,,,,0.04297309,-0.413945312,0,0,0,,0,64,64,107,1,FASKS,LB,z,z,./images/FASKSLB.png,,,,,,,,,,,,,,,,,,,,,,,,,,,,,,,,,,
,,,,,,,,,,,,,,,,,60fcaf5a13b051f5c8d978f2,19,2022-02-12_13h47.49.617,lexical_decision_task_DD_L6,2021.2.3,MacIntel,59.99880002,,,,,,,,,,,,0.5143,0,,,,,,,,,,,,,,z,0,0.5143,,,,,,,,0.04297309,-0.413945312,0,0,0,,0,65,65,78,1,BROOM,LB,m,m,./images/BROOMLB.png,,,,,,,,,,,,,,,,,,,,,,,,,,,,,,,,,,
,,,,,,,,,,,,,,,,,60fcaf5a13b051f5c8d978f2,19,2022-02-12_13h47.49.617,lexical_decision_task_DD_L6,2021.2.3,MacIntel,59.99880002,,,,,,,,,,,,0.8428,1,,,,,,,,,,,,,,z,1,0.8428,,,,,,,,0.04297309,-0.413945312,0,0,0,,0,66,66,88,1,GLUSH,HB,z,z,./images/GLUSHHB.png,,,,,,,,,,,,,,,,,,,,,,,,,,,,,,,,,,
,,,,,,,,,,,,,,,,,60fcaf5a13b051f5c8d978f2,19,2022-02-12_13h47.49.617,lexical_decision_task_DD_L6,2021.2.3,MacIntel,59.99880002,,,,,,,,,,,,0.698,1,,,,,,,,,,,,,,z,1,0.698,,,,,,,,0.04297309,-0.413945312,0,0,0,,0,67,67,155,1,CANGY,LB,z,z,./images/CANGYLB.png,,,,,,,,,,,,,,,,,,,,,,,,,,,,,,,,,,
,,,,,,,,,,,,,,,,,60fcaf5a13b051f5c8d978f2,19,2022-02-12_13h47.49.617,lexical_decision_task_DD_L6,2021.2.3,MacIntel,59.99880002,,,,,,,,,,,,0.5182,1,,,,,,,,,,,,,,m,1,0.5182,,,,,,,,0.04297309,-0.413945312,0,0,0,,0,68,68,66,1,STATUE,LB,m,m,./images/STATUELB.png,,,,,,,,,,,,,,,,,,,,,,,,,,,,,,,,,,
,,,,,,,,,,,,,,,,,60fcaf5a13b051f5c8d978f2,19,2022-02-12_13h47.49.617,lexical_decision_task_DD_L6,2021.2.3,MacIntel,59.99880002,,,,,,,,,,,,0.5529,1,,,,,,,,,,,,,,z,1,0.5529,,,,,,,,0.04297309,-0.413945312,0,0,0,,0,69,69,123,1,SEDGE,C,z,z,./images/SEDGE.png,,,,,,,,,,,,,,,,,,,,,,,,,,,,,,,,,,
,,,,,,,,,,,,,,,,,60fcaf5a13b051f5c8d978f2,19,2022-02-12_13h47.49.617,lexical_decision_task_DD_L6,2021.2.3,MacIntel,59.99880002,,,,,,,,,,,,0.924,1,,,,,,,,,,,,,,m,1,0.924,,,,,,,,0.04297309,-0.413945312,0,0,0,,0,70,70,59,1,BRUSH,HB,m,m,./images/BRUSHHB.png,,,,,,,,,,,,,,,,,,,,,,,,,,,,,,,,,,
,,,,,,,,,,,,,,,,,60fcaf5a13b051f5c8d978f2,19,2022-02-12_13h47.49.617,lexical_decision_task_DD_L6,2021.2.3,MacIntel,59.99880002,,,,,,,,,,,,0.7209,1,,,,,,,,,,,,,,m,1,0.7209,,,,,,,,0.04297309,-0.413945312,0,0,0,,0,71,71,76,1,MIDGET,C,m,m,./images/MIDGET.png,,,,,,,,,,,,,,,,,,,,,,,,,,,,,,,,,,
,,,,,,,,,,,,,,,,,60fcaf5a13b051f5c8d978f2,19,2022-02-12_13h47.49.617,lexical_decision_task_DD_L6,2021.2.3,MacIntel,59.99880002,,,,,,,,,,,,0.7803,0,,,,,,,,,,,,,,m,0,0.7803,,,,,,,,0.04297309,-0.413945312,0,0,0,,0,72,72,142,1,PLASK,HB,z,z,./images/PLASKHB.png,,,,,,,,,,,,,,,,,,,,,,,,,,,,,,,,,,
,,,,,,,,,,,,,,,,,60fcaf5a13b051f5c8d978f2,19,2022-02-12_13h47.49.617,lexical_decision_task_DD_L6,2021.2.3,MacIntel,59.99880002,,,,,,,,,,,,0.9252,1,,,,,,,,,,,,,,z,1,0.9252,,,,,,,,0.04297309,-0.413945312,0,0,0,,0,73,73,163,1,GAMBA,HB,z,z,./images/GAMBAHB.png,,,,,,,,,,,,,,,,,,,,,,,,,,,,,,,,,,
,,,,,,,,,,,,,,,,,60fcaf5a13b051f5c8d978f2,19,2022-02-12_13h47.49.617,lexical_decision_task_DD_L6,2021.2.3,MacIntel,59.99880002,,,,,,,,,,,,0.6875,1,,,,,,,,,,,,,,m,1,0.6875,,,,,,,,0.04297309,-0.413945312,0,0,0,,0,74,74,37,1,TIGER,C,m,m,./images/TIGER.png,,,,,,,,,,,,,,,,,,,,,,,,,,,,,,,,,,
,,,,,,,,,,,,,,,,,60fcaf5a13b051f5c8d978f2,19,2022-02-12_13h47.49.617,lexical_decision_task_DD_L6,2021.2.3,MacIntel,59.99880002,,,,,,,,,,,,0.6379,1,,,,,,,,,,,,,,z,1,0.6379,,,,,,,,0.04297309,-0.413945312,0,0,0,,0,75,75,127,1,NINDY,HB,z,z,./images/NINDYHB.png,,,,,,,,,,,,,,,,,,,,,,,,,,,,,,,,,,
,,,,,,,,,,,,,,,,,60fcaf5a13b051f5c8d978f2,19,2022-02-12_13h47.49.617,lexical_decision_task_DD_L6,2021.2.3,MacIntel,59.99880002,,,,,,,,,,,,1.4147,1,,,,,,,,,,,,,,z,1,1.4147,,,,,,,,0.04297309,-0.413945312,0,0,0,,0,76,76,154,1,THINT,HB,z,z,./images/THINTHB.png,,,,,,,,,,,,,,,,,,,,,,,,,,,,,,,,,,
,,,,,,,,,,,,,,,,,60fcaf5a13b051f5c8d978f2,19,2022-02-12_13h47.49.617,lexical_decision_task_DD_L6,2021.2.3,MacIntel,59.99880002,,,,,,,,,,,,1.1497,1,,,,,,,,,,,,,,z,1,1.1497,,,,,,,,0.04297309,-0.413945312,0,0,0,,0,77,77,133,1,POWDY,HB,z,z,./images/POWDYHB.png,,,,,,,,,,,,,,,,,,,,,,,,,,,,,,,,,,
,,,,,,,,,,,,,,,,,60fcaf5a13b051f5c8d978f2,19,2022-02-12_13h47.49.617,lexical_decision_task_DD_L6,2021.2.3,MacIntel,59.99880002,,,,,,,,,,,,0.6446,1,,,,,,,,,,,,,,m,1,0.6446,,,,,,,,0.04297309,-0.413945312,0,0,0,,0,78,78,39,1,CANDY,LB,m,m,./images/CANDYLB.png,,,,,,,,,,,,,,,,,,,,,,,,,,,,,,,,,,
,,,,,,,,,,,,,,,,,60fcaf5a13b051f5c8d978f2,19,2022-02-12_13h47.49.617,lexical_decision_task_DD_L6,2021.2.3,MacIntel,59.99880002,,,,,,,,,,,,0.7095,1,,,,,,,,,,,,,,m,1,0.7095,,,,,,,,0.04297309,-0.413945312,0,0,0,,0,79,79,50,1,PILOT,HB,m,m,./images/PILOTHB.png,,,,,,,,,,,,,,,,,,,,,,,,,,,,,,,,,,
,,,,,,,,,,,,,,,,,60fcaf5a13b051f5c8d978f2,19,2022-02-12_13h47.49.617,lexical_decision_task_DD_L6,2021.2.3,MacIntel,59.99880002,,,,,,,,,,,,0.7758,1,,,,,,,,,,,,,,z,1,0.7758,,,,,,,,0.04297309,-0.413945312,0,0,0,,0,80,80,85,1,CHULK,HB,z,z,./images/CHULKHB.png,,,,,,,,,,,,,,,,,,,,,,,,,,,,,,,,,,
,,,,,,,,,,,,,,,,,60fcaf5a13b051f5c8d978f2,19,2022-02-12_13h47.49.617,lexical_decision_task_DD_L6,2021.2.3,MacIntel,59.99880002,,,,,,,,,,,,0.7171,1,,,,,,,,,,,,,,z,1,0.7171,,,,,,,,0.04297309,-0.413945312,0,0,0,,0,81,81,114,1,RIKES,C,z,z,./images/RIKES.png,,,,,,,,,,,,,,,,,,,,,,,,,,,,,,,,,,
,,,,,,,,,,,,,,,,,60fcaf5a13b051f5c8d978f2,19,2022-02-12_13h47.49.617,lexical_decision_task_DD_L6,2021.2.3,MacIntel,59.99880002,,,,,,,,,,,,0.6422,1,,,,,,,,,,,,,,z,1,0.6422,,,,,,,,0.04297309,-0.413945312,0,0,0,,0,82,82,101,1,GLEET,LB,z,z,./images/GLEETLB.png,,,,,,,,,,,,,,,,,,,,,,,,,,,,,,,,,,
,,,,,,,,,,,,,,,,,60fcaf5a13b051f5c8d978f2,19,2022-02-12_13h47.49.617,lexical_decision_task_DD_L6,2021.2.3,MacIntel,59.99880002,,,,,,,,,,,,1.1449,0,,,,,,,,,,,,,,m,0,1.1449,,,,,,,,0.011510417,-0.392621528,1,0,0,,0,83,83,106,1,CLUMS,HB,z,z,./images/CLUMSHB.png,break_done_button,,,,,,,,,,,,,,,,,,,,,,,,,,,,,,,,,
,,,,,,,,,,,,,,,,,60fcaf5a13b051f5c8d978f2,19,2022-02-12_13h47.49.617,lexical_decision_task_DD_L6,2021.2.3,MacIntel,59.99880002,,,,,,,,,,,,0.6253,1,,,,,,,,,,,,,,z,1,0.6253,,,,,,,,0.011510417,-0.392621528,0,0,0,,0,84,84,84,1,HAXES,C,z,z,./images/HAXES.png,,,,,,,,,,,,,,,,,,,,,,,,,,,,,,,,,,
,,,,,,,,,,,,,,,,,60fcaf5a13b051f5c8d978f2,19,2022-02-12_13h47.49.617,lexical_decision_task_DD_L6,2021.2.3,MacIntel,59.99880002,,,,,,,,,,,,0.575,1,,,,,,,,,,,,,,m,1,0.575,,,,,,,,0.011510417,-0.392621528,0,0,0,,0,85,85,58,1,CANOE,C,m,m,./images/CANOE.png,,,,,,,,,,,,,,,,,,,,,,,,,,,,,,,,,,
,,,,,,,,,,,,,,,,,60fcaf5a13b051f5c8d978f2,19,2022-02-12_13h47.49.617,lexical_decision_task_DD_L6,2021.2.3,MacIntel,59.99880002,,,,,,,,,,,,1.0085,1,,,,,,,,,,,,,,m,1,1.0085,,,,,,,,0.011510417,-0.392621528,0,0,0,,0,86,86,56,1,HEATER,HB,m,m,./images/HEATERHB.png,,,,,,,,,,,,,,,,,,,,,,,,,,,,,,,,,,
,,,,,,,,,,,,,,,,,60fcaf5a13b051f5c8d978f2,19,2022-02-12_13h47.49.617,lexical_decision_task_DD_L6,2021.2.3,MacIntel,59.99880002,,,,,,,,,,,,0.7631,1,,,,,,,,,,,,,,m,1,0.7631,,,,,,,,0.011510417,-0.392621528,0,0,0,,0,87,87,80,1,PLANET,HB,m,m,./images/PLANETHB.png,,,,,,,,,,,,,,,,,,,,,,,,,,,,,,,,,,
,,,,,,,,,,,,,,,,,60fcaf5a13b051f5c8d978f2,19,2022-02-12_13h47.49.617,lexical_decision_task_DD_L6,2021.2.3,MacIntel,59.99880002,,,,,,,,,,,,0.6293,1,,,,,,,,,,,,,,z,1,0.6293,,,,,,,,0.011510417,-0.392621528,0,0,0,,0,88,88,144,1,NAIRY,C,z,z,./images/NAIRY.png,,,,,,,,,,,,,,,,,,,,,,,,,,,,,,,,,,
,,,,,,,,,,,,,,,,,60fcaf5a13b051f5c8d978f2,19,2022-02-12_13h47.49.617,lexical_decision_task_DD_L6,2021.2.3,MacIntel,59.99880002,,,,,,,,,,,,0.5422,1,,,,,,,,,,,,,,z,1,0.5422,,,,,,,,0.011510417,-0.392621528,0,0,0,,0,89,89,137,1,JOOST,LB,z,z,./images/JOOSTLB.png,,,,,,,,,,,,,,,,,,,,,,,,,,,,,,,,,,
,,,,,,,,,,,,,,,,,60fcaf5a13b051f5c8d978f2,19,2022-02-12_13h47.49.617,lexical_decision_task_DD_L6,2021.2.3,MacIntel,59.99880002,,,,,,,,,,,,0.5757,0,,,,,,,,,,,,,,z,0,0.5757,,,,,,,,0.011510417,-0.392621528,0,0,0,,0,90,90,60,1,CURRY,LB,m,m,./images/CURRYLB.png,,,,,,,,,,,,,,,,,,,,,,,,,,,,,,,,,,
,,,,,,,,,,,,,,,,,60fcaf5a13b051f5c8d978f2,19,2022-02-12_13h47.49.617,lexical_decision_task_DD_L6,2021.2.3,MacIntel,59.99880002,,,,,,,,,,,,0.5456,1,,,,,,,,,,,,,,m,1,0.5456,,,,,,,,0.011510417,-0.392621528,0,0,0,,0,91,91,31,1,STEAK,C,m,m,./images/STEAK.png,,,,,,,,,,,,,,,,,,,,,,,,,,,,,,,,,,
,,,,,,,,,,,,,,,,,60fcaf5a13b051f5c8d978f2,19,2022-02-12_13h47.49.617,lexical_decision_task_DD_L6,2021.2.3,MacIntel,59.99880002,,,,,,,,,,,,0.7926,1,,,,,,,,,,,,,,z,1,0.7926,,,,,,,,0.011510417,-0.392621528,0,0,0,,0,92,92,94,1,BLANS,HB,z,z,./images/BLANSHB.png,,,,,,,,,,,,,,,,,,,,,,,,,,,,,,,,,,
,,,,,,,,,,,,,,,,,60fcaf5a13b051f5c8d978f2,19,2022-02-12_13h47.49.617,lexical_decision_task_DD_L6,2021.2.3,MacIntel,59.99880002,,,,,,,,,,,,0.6282,1,,,,,,,,,,,,,,z,1,0.6282,,,,,,,,0.011510417,-0.392621528,0,0,0,,0,93,93,134,1,TROSS,LB,z,z,./images/TROSSLB.png,,,,,,,,,,,,,,,,,,,,,,,,,,,,,,,,,,
,,,,,,,,,,,,,,,,,60fcaf5a13b051f5c8d978f2,19,2022-02-12_13h47.49.617,lexical_decision_task_DD_L6,2021.2.3,MacIntel,59.99880002,,,,,,,,,,,,0.74,1,,,,,,,,,,,,,,z,1,0.74,,,,,,,,0.011510417,-0.392621528,0,0,0,,0,94,94,99,1,BACKY,C,z,z,./images/BACKY.png,,,,,,,,,,,,,,,,,,,,,,,,,,,,,,,,,,
,,,,,,,,,,,,,,,,,60fcaf5a13b051f5c8d978f2,19,2022-02-12_13h47.49.617,lexical_decision_task_DD_L6,2021.2.3,MacIntel,59.99880002,,,,,,,,,,,,0.628,1,,,,,,,,,,,,,,z,1,0.628,,,,,,,,0.011510417,-0.392621528,0,0,0,,0,95,95,136,1,WERVE,HB,z,z,./images/WERVEHB.png,,,,,,,,,,,,,,,,,,,,,,,,,,,,,,,,,,
,,,,,,,,,,,,,,,,,60fcaf5a13b051f5c8d978f2,19,2022-02-12_13h47.49.617,lexical_decision_task_DD_L6,2021.2.3,MacIntel,59.99880002,,,,,,,,,,,,0.6113,1,,,,,,,,,,,,,,z,1,0.6113,,,,,,,,0.011510417,-0.392621528,0,0,0,,0,96,96,119,1,PAFER,LB,z,z,./images/PAFERLB.png,,,,,,,,,,,,,,,,,,,,,,,,,,,,,,,,,,
,,,,,,,,,,,,,,,,,60fcaf5a13b051f5c8d978f2,19,2022-02-12_13h47.49.617,lexical_decision_task_DD_L6,2021.2.3,MacIntel,59.99880002,,,,,,,,,,,,0.6255,1,,,,,,,,,,,,,,m,1,0.6255,,,,,,,,0.011510417,-0.392621528,0,0,0,,0,97,97,75,1,HAMMER,LB,m,m,./images/HAMMERLB.png,,,,,,,,,,,,,,,,,,,,,,,,,,,,,,,,,,
,,,,,,,,,,,,,,,,,60fcaf5a13b051f5c8d978f2,19,2022-02-12_13h47.49.617,lexical_decision_task_DD_L6,2021.2.3,MacIntel,59.99880002,,,,,,,,,,,,1.193,1,,,,,,,,,,,,,,z,1,1.193,,,,,,,,0.011510417,-0.392621528,0,0,0,,0,98,98,91,1,SHENS,HB,z,z,./images/SHENSHB.png,,,,,,,,,,,,,,,,,,,,,,,,,,,,,,,,,,
,,,,,,,,,,,,,,,,,60fcaf5a13b051f5c8d978f2,19,2022-02-12_13h47.49.617,lexical_decision_task_DD_L6,2021.2.3,MacIntel,59.99880002,,,,,,,,,,,,0.5284,1,,,,,,,,,,,,,,z,1,0.5284,,,,,,,,0.011510417,-0.392621528,0,0,0,,0,99,99,125,1,MOOKY,LB,z,z,./images/MOOKYLB.png,,,,,,,,,,,,,,,,,,,,,,,,,,,,,,,,,,
,,,,,,,,,,,,,,,,,60fcaf5a13b051f5c8d978f2,19,2022-02-12_13h47.49.617,lexical_decision_task_DD_L6,2021.2.3,MacIntel,59.99880002,,,,,,,,,,,,0.7408,1,,,,,,,,,,,,,,m,1,0.7408,,,,,,,,0.011510417,-0.392621528,0,0,0,,0,100,100,81,1,DRILL,LB,m,m,./images/DRILLLB.png,,,,,,,,,,,,,,,,,,,,,,,,,,,,,,,,,,
,,,,,,,,,,,,,,,,,60fcaf5a13b051f5c8d978f2,19,2022-02-12_13h47.49.617,lexical_decision_task_DD_L6,2021.2.3,MacIntel,59.99880002,,,,,,,,,,,,0.6616,1,,,,,,,,,,,,,,z,1,0.6616,,,,,,,,0.011510417,-0.392621528,0,0,0,,0,101,101,157,1,INLER,HB,z,z,./images/INLERHB.png,,,,,,,,,,,,,,,,,,,,,,,,,,,,,,,,,,
,,,,,,,,,,,,,,,,,60fcaf5a13b051f5c8d978f2,19,2022-02-12_13h47.49.617,lexical_decision_task_DD_L6,2021.2.3,MacIntel,59.99880002,,,,,,,,,,,,0.5309,1,,,,,,,,,,,,,,m,1,0.5309,,,,,,,,0.011510417,-0.392621528,0,0,0,,0,102,102,10,1,GARDEN,C,m,m,./images/GARDEN.png,,,,,,,,,,,,,,,,,,,,,,,,,,,,,,,,,,
,,,,,,,,,,,,,,,,,60fcaf5a13b051f5c8d978f2,19,2022-02-12_13h47.49.617,lexical_decision_task_DD_L6,2021.2.3,MacIntel,59.99880002,,,,,,,,,,,,0.6829,1,,,,,,,,,,,,,,z,1,0.6829,,,,,,,,0.011510417,-0.392621528,0,0,0,,0,103,103,146,1,MOOST,LB,z,z,./images/MOOSTLB.png,,,,,,,,,,,,,,,,,,,,,,,,,,,,,,,,,,
,,,,,,,,,,,,,,,,,60fcaf5a13b051f5c8d978f2,19,2022-02-12_13h47.49.617,lexical_decision_task_DD_L6,2021.2.3,MacIntel,59.99880002,,,,,,,,,,,,0.7446,1,,,,,,,,,,,,,,z,1,0.7446,,,,,,,,0.011510417,-0.392621528,0,0,0,,0,104,104,159,1,CUDDY,C,z,z,./images/CUDDY.png,,,,,,,,,,,,,,,,,,,,,,,,,,,,,,,,,,
,,,,,,,,,,,,,,,,,60fcaf5a13b051f5c8d978f2,19,2022-02-12_13h47.49.617,lexical_decision_task_DD_L6,2021.2.3,MacIntel,59.99880002,,,,,,,,,,,,0.5896,1,,,,,,,,,,,,,,z,1,0.5896,,,,,,,,0.011510417,-0.392621528,0,0,0,,0,105,105,111,1,HOSSE,C,z,z,./images/HOSSE.png,,,,,,,,,,,,,,,,,,,,,,,,,,,,,,,,,,
,,,,,,,,,,,,,,,,,60fcaf5a13b051f5c8d978f2,19,2022-02-12_13h47.49.617,lexical_decision_task_DD_L6,2021.2.3,MacIntel,59.99880002,,,,,,,,,,,,0.9805,1,,,,,,,,,,,,,,z,1,0.9805,,,,,,,,0.011510417,-0.392621528,0,0,0,,0,106,106,118,1,BAVEL,HB,z,z,./images/BAVELHB.png,,,,,,,,,,,,,,,,,,,,,,,,,,,,,,,,,,
,,,,,,,,,,,,,,,,,60fcaf5a13b051f5c8d978f2,19,2022-02-12_13h47.49.617,lexical_decision_task_DD_L6,2021.2.3,MacIntel,59.99880002,,,,,,,,,,,,0.7084,1,,,,,,,,,,,,,,m,1,0.7084,,,,,,,,0.011510417,-0.392621528,0,0,0,,0,107,107,41,1,STREAM,HB,m,m,./images/STREAMHB.png,,,,,,,,,,,,,,,,,,,,,,,,,,,,,,,,,,
,,,,,,,,,,,,,,,,,60fcaf5a13b051f5c8d978f2,19,2022-02-12_13h47.49.617,lexical_decision_task_DD_L6,2021.2.3,MacIntel,59.99880002,,,,,,,,,,,,0.5897,1,,,,,,,,,,,,,,z,1,0.5897,,,,,,,,0.011510417,-0.392621528,0,0,0,,0,108,108,153,1,CLUPS,C,z,z,./images/CLUPS.png,,,,,,,,,,,,,,,,,,,,,,,,,,,,,,,,,,
,,,,,,,,,,,,,,,,,60fcaf5a13b051f5c8d978f2,19,2022-02-12_13h47.49.617,lexical_decision_task_DD_L6,2021.2.3,MacIntel,59.99880002,,,,,,,,,,,,0.4562,1,,,,,,,,,,,,,,z,1,0.4562,,,,,,,,0.011510417,-0.392621528,0,0,0,,0,109,109,105,1,MOKER,C,z,z,./images/MOKER.png,,,,,,,,,,,,,,,,,,,,,,,,,,,,,,,,,,
,,,,,,,,,,,,,,,,,60fcaf5a13b051f5c8d978f2,19,2022-02-12_13h47.49.617,lexical_decision_task_DD_L6,2021.2.3,MacIntel,59.99880002,,,,,,,,,,,,0.6577,1,,,,,,,,,,,,,,z,1,0.6577,,,,,,,,0.011510417,-0.392621528,0,0,0,,0,110,110,112,1,MYING,HB,z,z,./images/MYINGHB.png,,,,,,,,,,,,,,,,,,,,,,,,,,,,,,,,,,
,,,,,,,,,,,,,,,,,60fcaf5a13b051f5c8d978f2,19,2022-02-12_13h47.49.617,lexical_decision_task_DD_L6,2021.2.3,MacIntel,59.99880002,,,,,,,,,,,,0.5916,1,,,,,,,,,,,,,,m,1,0.5916,,,,,,,,0.011510417,-0.392621528,0,0,0,,0,111,111,40,1,SNAKE,C,m,m,./images/SNAKE.png,,,,,,,,,,,,,,,,,,,,,,,,,,,,,,,,,,
,,,,,,,,,,,,,,,,,60fcaf5a13b051f5c8d978f2,19,2022-02-12_13h47.49.617,lexical_decision_task_DD_L6,2021.2.3,MacIntel,59.99880002,,,,,,,,,,,,1.024,1,,,,,,,,,,,,,,z,1,1.024,,,,,,,,0.011510417,-0.392621528,0,0,0,,0,112,112,151,1,TINKY,HB,z,z,./images/TINKYHB.png,,,,,,,,,,,,,,,,,,,,,,,,,,,,,,,,,,
,,,,,,,,,,,,,,,,,60fcaf5a13b051f5c8d978f2,19,2022-02-12_13h47.49.617,lexical_decision_task_DD_L6,2021.2.3,MacIntel,59.99880002,,,,,,,,,,,,0.608,1,,,,,,,,,,,,,,z,1,0.608,,,,,,,,0.011510417,-0.392621528,0,0,0,,0,113,113,164,1,SGREW,LB,z,z,./images/SGREWLB.png,,,,,,,,,,,,,,,,,,,,,,,,,,,,,,,,,,
,,,,,,,,,,,,,,,,,60fcaf5a13b051f5c8d978f2,19,2022-02-12_13h47.49.617,lexical_decision_task_DD_L6,2021.2.3,MacIntel,59.99880002,,,,,,,,,,,,0.8915,1,,,,,,,,,,,,,,m,1,0.8915,,,,,,,,0.011510417,-0.392621528,0,0,0,,0,114,114,45,1,MONKEY,LB,m,m,./images/MONKEYLB.png,,,,,,,,,,,,,,,,,,,,,,,,,,,,,,,,,,
,,,,,,,,,,,,,,,,,60fcaf5a13b051f5c8d978f2,19,2022-02-12_13h47.49.617,lexical_decision_task_DD_L6,2021.2.3,MacIntel,59.99880002,,,,,,,,,,,,0.573,1,,,,,,,,,,,,,,z,1,0.573,,,,,,,,0.011510417,-0.392621528,0,0,0,,0,115,115,93,1,SMONE,C,z,z,./images/SMONE.png,,,,,,,,,,,,,,,,,,,,,,,,,,,,,,,,,,
,,,,,,,,,,,,,,,,,60fcaf5a13b051f5c8d978f2,19,2022-02-12_13h47.49.617,lexical_decision_task_DD_L6,2021.2.3,MacIntel,59.99880002,,,,,,,,,,,,0.6026,1,,,,,,,,,,,,,,m,1,0.6026,,,,,,,,0.011510417,-0.392621528,0,0,0,,0,116,116,73,1,GLOVE,C,m,m,./images/GLOVE.png,,,,,,,,,,,,,,,,,,,,,,,,,,,,,,,,,,
,,,,,,,,,,,,,,,,,60fcaf5a13b051f5c8d978f2,19,2022-02-12_13h47.49.617,lexical_decision_task_DD_L6,2021.2.3,MacIntel,59.99880002,,,,,,,,,,,,0.766,1,,,,,,,,,,,,,,m,1,0.766,,,,,,,,0.011510417,-0.392621528,0,0,0,,0,117,117,14,1,FENCE,HB,m,m,./images/FENCEHB.png,,,,,,,,,,,,,,,,,,,,,,,,,,,,,,,,,,
,,,,,,,,,,,,,,,,,60fcaf5a13b051f5c8d978f2,19,2022-02-12_13h47.49.617,lexical_decision_task_DD_L6,2021.2.3,MacIntel,59.99880002,,,,,,,,,,,,0.6763,1,,,,,,,,,,,,,,m,1,0.6763,,,,,,,,0.011510417,-0.392621528,0,0,0,,0,118,118,15,1,COLLAR,LB,m,m,./images/COLLARLB.png,,,,,,,,,,,,,,,,,,,,,,,,,,,,,,,,,,
,,,,,,,,,,,,,,,,,60fcaf5a13b051f5c8d978f2,19,2022-02-12_13h47.49.617,lexical_decision_task_DD_L6,2021.2.3,MacIntel,59.99880002,,,,,,,,,,,,0.6514,0,,,,,,,,,,,,,,z,0,0.6514,,,,,,,,0.011510417,-0.392621528,0,0,0,,0,119,119,12,1,BLOKE,LB,m,m,./images/BLOKELB.png,,,,,,,,,,,,,,,,,,,,,,,,,,,,,,,,,,
,,,,,,,,,,,,,,,,,60fcaf5a13b051f5c8d978f2,19,2022-02-12_13h47.49.617,lexical_decision_task_DD_L6,2021.2.3,MacIntel,59.99880002,,,,,,,,,,,,0.6786,1,,,,,,,,,,,,,,m,1,0.6786,,,,,,,,0.011510417,-0.392621528,0,0,0,,0,120,120,48,1,SHIELD,LB,m,m,./images/SHIELDLB.png,,,,,,,,,,,,,,,,,,,,,,,,,,,,,,,,,,
,,,,,,,,,,,,,,,,,60fcaf5a13b051f5c8d978f2,19,2022-02-12_13h47.49.617,lexical_decision_task_DD_L6,2021.2.3,MacIntel,59.99880002,,,,,,,,,,,,0.5871,1,,,,,,,,,,,,,,m,1,0.5871,,,,,,,,0.011510417,-0.392621528,0,0,0,,0,121,121,28,1,CASINO,C,m,m,./images/CASINO.png,,,,,,,,,,,,,,,,,,,,,,,,,,,,,,,,,,
,,,,,,,,,,,,,,,,,60fcaf5a13b051f5c8d978f2,19,2022-02-12_13h47.49.617,lexical_decision_task_DD_L6,2021.2.3,MacIntel,59.99880002,,,,,,,,,,,,0.8936,1,,,,,,,,,,,,,,m,1,0.8936,,,,,,,,0.011510417,-0.392621528,0,0,0,,0,122,122,2,1,STOVE,HB,m,m,./images/STOVEHB.png,,,,,,,,,,,,,,,,,,,,,,,,,,,,,,,,,,
,,,,,,,,,,,,,,,,,60fcaf5a13b051f5c8d978f2,19,2022-02-12_13h47.49.617,lexical_decision_task_DD_L6,2021.2.3,MacIntel,59.99880002,,,,,,,,,,,,0.7054,1,,,,,,,,,,,,,,z,1,0.7054,,,,,,,,0.011510417,-0.392621528,0,0,0,,0,123,123,95,1,HANTY,LB,z,z,./images/HANTYLB.png,,,,,,,,,,,,,,,,,,,,,,,,,,,,,,,,,,
,,,,,,,,,,,,,,,,,60fcaf5a13b051f5c8d978f2,19,2022-02-12_13h47.49.617,lexical_decision_task_DD_L6,2021.2.3,MacIntel,59.99880002,,,,,,,,,,,,0.8249,1,,,,,,,,,,,,,,m,1,0.8249,,,,,,,,0.011510417,-0.392621528,0,0,0,,0,124,124,6,1,STAIN,LB,m,m,./images/STAINLB.png,,,,,,,,,,,,,,,,,,,,,,,,,,,,,,,,,,
,,,,,,,,,,,,,,,,,60fcaf5a13b051f5c8d978f2,19,2022-02-12_13h47.49.617,lexical_decision_task_DD_L6,2021.2.3,MacIntel,59.99880002,,,,,,,,,,,,0.6613,1,,,,,,,,,,,,,,z,1,0.6613,,,,,,,,-0.000342882,-0.379969618,1,0,0,,0,125,125,98,1,BAMPS,LB,z,z,./images/BAMPSLB.png,break_done_button,,,,,,,,,,,,,,,,,,,,,,,,,,,,,,,,,
,,,,,,,,,,,,,,,,,60fcaf5a13b051f5c8d978f2,19,2022-02-12_13h47.49.617,lexical_decision_task_DD_L6,2021.2.3,MacIntel,59.99880002,,,,,,,,,,,,0.5418,1,,,,,,,,,,,,,,m,1,0.5418,,,,,,,,-0.000342882,-0.379969618,0,0,0,,0,126,126,42,1,CHAIN,LB,m,m,./images/CHAINLB.png,,,,,,,,,,,,,,,,,,,,,,,,,,,,,,,,,,
,,,,,,,,,,,,,,,,,60fcaf5a13b051f5c8d978f2,19,2022-02-12_13h47.49.617,lexical_decision_task_DD_L6,2021.2.3,MacIntel,59.99880002,,,,,,,,,,,,0.4945,1,,,,,,,,,,,,,,m,1,0.4945,,,,,,,,-0.000342882,-0.379969618,0,0,0,,0,127,127,13,1,BUNNY,C,m,m,./images/BUNNY.png,,,,,,,,,,,,,,,,,,,,,,,,,,,,,,,,,,
,,,,,,,,,,,,,,,,,60fcaf5a13b051f5c8d978f2,19,2022-02-12_13h47.49.617,lexical_decision_task_DD_L6,2021.2.3,MacIntel,59.99880002,,,,,,,,,,,,0.4356,0,,,,,,,,,,,,,,m,0,0.4356,,,,,,,,-0.000342882,-0.379969618,0,0,0,,0,128,128,122,1,BLOOT,LB,z,z,./images/BLOOTLB.png,,,,,,,,,,,,,,,,,,,,,,,,,,,,,,,,,,
,,,,,,,,,,,,,,,,,60fcaf5a13b051f5c8d978f2,19,2022-02-12_13h47.49.617,lexical_decision_task_DD_L6,2021.2.3,MacIntel,59.99880002,,,,,,,,,,,,0.7784,1,,,,,,,,,,,,,,z,1,0.7784,,,,,,,,-0.000342882,-0.379969618,0,0,0,,0,129,129,97,1,CHIDS,HB,z,z,./images/CHIDSHB.png,,,,,,,,,,,,,,,,,,,,,,,,,,,,,,,,,,
,,,,,,,,,,,,,,,,,60fcaf5a13b051f5c8d978f2,19,2022-02-12_13h47.49.617,lexical_decision_task_DD_L6,2021.2.3,MacIntel,59.99880002,,,,,,,,,,,,0.8009,1,,,,,,,,,,,,,,m,1,0.8009,,,,,,,,-0.000342882,-0.379969618,0,0,0,,0,130,130,11,1,MEDAL,HB,m,m,./images/MEDALHB.png,,,,,,,,,,,,,,,,,,,,,,,,,,,,,,,,,,
,,,,,,,,,,,,,,,,,60fcaf5a13b051f5c8d978f2,19,2022-02-12_13h47.49.617,lexical_decision_task_DD_L6,2021.2.3,MacIntel,59.99880002,,,,,,,,,,,,0.8509,1,,,,,,,,,,,,,,z,1,0.8509,,,,,,,,-0.000342882,-0.379969618,0,0,0,,0,131,131,102,1,DULLE,C,z,z,./images/DULLE.png,,,,,,,,,,,,,,,,,,,,,,,,,,,,,,,,,,
,,,,,,,,,,,,,,,,,60fcaf5a13b051f5c8d978f2,19,2022-02-12_13h47.49.617,lexical_decision_task_DD_L6,2021.2.3,MacIntel,59.99880002,,,,,,,,,,,,0.6167,1,,,,,,,,,,,,,,m,1,0.6167,,,,,,,,-0.000342882,-0.379969618,0,0,0,,0,132,132,57,1,FERRY,LB,m,m,./images/FERRYLB.png,,,,,,,,,,,,,,,,,,,,,,,,,,,,,,,,,,
,,,,,,,,,,,,,,,,,60fcaf5a13b051f5c8d978f2,19,2022-02-12_13h47.49.617,lexical_decision_task_DD_L6,2021.2.3,MacIntel,59.99880002,,,,,,,,,,,,0.7966,1,,,,,,,,,,,,,,z,1,0.7966,,,,,,,,-0.000342882,-0.379969618,0,0,0,,0,133,133,160,1,VEETS,HB,z,z,./images/VEETSHB.png,,,,,,,,,,,,,,,,,,,,,,,,,,,,,,,,,,
,,,,,,,,,,,,,,,,,60fcaf5a13b051f5c8d978f2,19,2022-02-12_13h47.49.617,lexical_decision_task_DD_L6,2021.2.3,MacIntel,59.99880002,,,,,,,,,,,,0.9283,1,,,,,,,,,,,,,,z,1,0.9283,,,,,,,,-0.000342882,-0.379969618,0,0,0,,0,134,134,115,1,MAWNS,HB,z,z,./images/MAWNSHB.png,,,,,,,,,,,,,,,,,,,,,,,,,,,,,,,,,,
,,,,,,,,,,,,,,,,,60fcaf5a13b051f5c8d978f2,19,2022-02-12_13h47.49.617,lexical_decision_task_DD_L6,2021.2.3,MacIntel,59.99880002,,,,,,,,,,,,0.4747,1,,,,,,,,,,,,,,m,1,0.4747,,,,,,,,-0.000342882,-0.379969618,0,0,0,,0,135,135,22,1,CLOWN,C,m,m,./images/CLOWN.png,,,,,,,,,,,,,,,,,,,,,,,,,,,,,,,,,,
,,,,,,,,,,,,,,,,,60fcaf5a13b051f5c8d978f2,19,2022-02-12_13h47.49.617,lexical_decision_task_DD_L6,2021.2.3,MacIntel,59.99880002,,,,,,,,,,,,0.5761,1,,,,,,,,,,,,,,z,1,0.5761,,,,,,,,-0.000342882,-0.379969618,0,0,0,,0,136,136,92,1,PAIMS,LB,z,z,./images/PAIMSLB.png,,,,,,,,,,,,,,,,,,,,,,,,,,,,,,,,,,
,,,,,,,,,,,,,,,,,60fcaf5a13b051f5c8d978f2,19,2022-02-12_13h47.49.617,lexical_decision_task_DD_L6,2021.2.3,MacIntel,59.99880002,,,,,,,,,,,,0.5313,1,,,,,,,,,,,,,,z,1,0.5313,,,,,,,,-0.000342882,-0.379969618,0,0,0,,0,137,137,113,1,LINEW,LB,z,z,./images/LINEWLB.png,,,,,,,,,,,,,,,,,,,,,,,,,,,,,,,,,,
,,,,,,,,,,,,,,,,,60fcaf5a13b051f5c8d978f2,19,2022-02-12_13h47.49.617,lexical_decision_task_DD_L6,2021.2.3,MacIntel,59.99880002,,,,,,,,,,,,0.5253,1,,,,,,,,,,,,,,z,1,0.5253,,,,,,,,-0.000342882,-0.379969618,0,0,0,,0,138,138,104,1,GITTY,LB,z,z,./images/GITTYLB.png,,,,,,,,,,,,,,,,,,,,,,,,,,,,,,,,,,
,,,,,,,,,,,,,,,,,60fcaf5a13b051f5c8d978f2,19,2022-02-12_13h47.49.617,lexical_decision_task_DD_L6,2021.2.3,MacIntel,59.99880002,,,,,,,,,,,,0.5713,1,,,,,,,,,,,,,,m,1,0.5713,,,,,,,,-0.000342882,-0.379969618,0,0,0,,0,139,139,7,1,WAGON,C,m,m,./images/WAGON.png,,,,,,,,,,,,,,,,,,,,,,,,,,,,,,,,,,
,,,,,,,,,,,,,,,,,60fcaf5a13b051f5c8d978f2,19,2022-02-12_13h47.49.617,lexical_decision_task_DD_L6,2021.2.3,MacIntel,59.99880002,,,,,,,,,,,,0.6333,1,,,,,,,,,,,,,,m,1,0.6333,,,,,,,,-0.000342882,-0.379969618,0,0,0,,0,140,140,30,1,SLOPE,LB,m,m,./images/SLOPELB.png,,,,,,,,,,,,,,,,,,,,,,,,,,,,,,,,,,
,,,,,,,,,,,,,,,,,60fcaf5a13b051f5c8d978f2,19,2022-02-12_13h47.49.617,lexical_decision_task_DD_L6,2021.2.3,MacIntel,59.99880002,,,,,,,,,,,,0.7306,1,,,,,,,,,,,,,,m,1,0.7306,,,,,,,,-0.000342882,-0.379969618,0,0,0,,0,141,141,29,1,PISTOL,HB,m,m,./images/PISTOLHB.png,,,,,,,,,,,,,,,,,,,,,,,,,,,,,,,,,,
,,,,,,,,,,,,,,,,,60fcaf5a13b051f5c8d978f2,19,2022-02-12_13h47.49.617,lexical_decision_task_DD_L6,2021.2.3,MacIntel,59.99880002,,,,,,,,,,,,0.5262,1,,,,,,,,,,,,,,m,1,0.5262,,,,,,,,-0.000342882,-0.379969618,0,0,0,,0,142,142,0,1,WALNUT,LB,m,m,./images/WALNUTLB.png,,,,,,,,,,,,,,,,,,,,,,,,,,,,,,,,,,
,,,,,,,,,,,,,,,,,60fcaf5a13b051f5c8d978f2,19,2022-02-12_13h47.49.617,lexical_decision_task_DD_L6,2021.2.3,MacIntel,59.99880002,,,,,,,,,,,,0.4777,1,,,,,,,,,,,,,,m,1,0.4777,,,,,,,,-0.000342882,-0.379969618,0,0,0,,0,143,143,63,1,BAKER,LB,m,m,./images/BAKERLB.png,,,,,,,,,,,,,,,,,,,,,,,,,,,,,,,,,,
,,,,,,,,,,,,,,,,,60fcaf5a13b051f5c8d978f2,19,2022-02-12_13h47.49.617,lexical_decision_task_DD_L6,2021.2.3,MacIntel,59.99880002,,,,,,,,,,,,0.5118,1,,,,,,,,,,,,,,m,1,0.5118,,,,,,,,-0.000342882,-0.379969618,0,0,0,,0,144,144,61,1,ARTIST,C,m,m,./images/ARTIST.png,,,,,,,,,,,,,,,,,,,,,,,,,,,,,,,,,,
,,,,,,,,,,,,,,,,,60fcaf5a13b051f5c8d978f2,19,2022-02-12_13h47.49.617,lexical_decision_task_DD_L6,2021.2.3,MacIntel,59.99880002,,,,,,,,,,,,0.4812,1,,,,,,,,,,,,,,m,1,0.4812,,,,,,,,-0.000342882,-0.379969618,0,0,0,,0,145,145,1,1,TOWEL,C,m,m,./images/TOWEL.png,,,,,,,,,,,,,,,,,,,,,,,,,,,,,,,,,,
,,,,,,,,,,,,,,,,,60fcaf5a13b051f5c8d978f2,19,2022-02-12_13h47.49.617,lexical_decision_task_DD_L6,2021.2.3,MacIntel,59.99880002,,,,,,,,,,,,0.6086,1,,,,,,,,,,,,,,m,1,0.6086,,,,,,,,-0.000342882,-0.379969618,0,0,0,,0,146,146,25,1,CHALK,C,m,m,./images/CHALK.png,,,,,,,,,,,,,,,,,,,,,,,,,,,,,,,,,,
,,,,,,,,,,,,,,,,,60fcaf5a13b051f5c8d978f2,19,2022-02-12_13h47.49.617,lexical_decision_task_DD_L6,2021.2.3,MacIntel,59.99880002,,,,,,,,,,,,0.6123,0,,,,,,,,,,,,,,z,0,0.6123,,,,,,,,-0.000342882,-0.379969618,0,0,0,,0,147,147,74,1,JUMPER,HB,m,m,./images/JUMPERHB.png,,,,,,,,,,,,,,,,,,,,,,,,,,,,,,,,,,
,,,,,,,,,,,,,,,,,60fcaf5a13b051f5c8d978f2,19,2022-02-12_13h47.49.617,lexical_decision_task_DD_L6,2021.2.3,MacIntel,59.99880002,,,,,,,,,,,,1.0572,1,,,,,,,,,,,,,,z,1,1.0572,,,,,,,,-0.000342882,-0.379969618,0,0,0,,0,148,148,100,1,DRIBS,HB,z,z,./images/DRIBSHB.png,,,,,,,,,,,,,,,,,,,,,,,,,,,,,,,,,,
,,,,,,,,,,,,,,,,,60fcaf5a13b051f5c8d978f2,19,2022-02-12_13h47.49.617,lexical_decision_task_DD_L6,2021.2.3,MacIntel,59.99880002,,,,,,,,,,,,0.5169,1,,,,,,,,,,,,,,m,1,0.5169,,,,,,,,-0.000342882,-0.379969618,0,0,0,,0,149,149,54,1,CHERRY,LB,m,m,./images/CHERRYLB.png,,,,,,,,,,,,,,,,,,,,,,,,,,,,,,,,,,
,,,,,,,,,,,,,,,,,60fcaf5a13b051f5c8d978f2,19,2022-02-12_13h47.49.617,lexical_decision_task_DD_L6,2021.2.3,MacIntel,59.99880002,,,,,,,,,,,,0.6742,1,,,,,,,,,,,,,,m,1,0.6742,,,,,,,,-0.000342882,-0.379969618,0,0,0,,0,150,150,5,1,BAMBOO,HB,m,m,./images/BAMBOOHB.png,,,,,,,,,,,,,,,,,,,,,,,,,,,,,,,,,,
,,,,,,,,,,,,,,,,,60fcaf5a13b051f5c8d978f2,19,2022-02-12_13h47.49.617,lexical_decision_task_DD_L6,2021.2.3,MacIntel,59.99880002,,,,,,,,,,,,1.4259,1,,,,,,,,,,,,,,z,1,1.4259,,,,,,,,-0.000342882,-0.379969618,0,0,0,,0,151,151,166,1,SHORY,HB,z,z,./images/SHORYHB.png,,,,,,,,,,,,,,,,,,,,,,,,,,,,,,,,,,
,,,,,,,,,,,,,,,,,60fcaf5a13b051f5c8d978f2,19,2022-02-12_13h47.49.617,lexical_decision_task_DD_L6,2021.2.3,MacIntel,59.99880002,,,,,,,,,,,,0.7084,1,,,,,,,,,,,,,,m,1,0.7084,,,,,,,,-0.000342882,-0.379969618,0,0,0,,0,152,152,18,1,PARCEL,LB,m,m,./images/PARCELLB.png,,,,,,,,,,,,,,,,,,,,,,,,,,,,,,,,,,
,,,,,,,,,,,,,,,,,60fcaf5a13b051f5c8d978f2,19,2022-02-12_13h47.49.617,lexical_decision_task_DD_L6,2021.2.3,MacIntel,59.99880002,,,,,,,,,,,,0.8295,0,,,,,,,,,,,,,,z,0,0.8295,,,,,,,,-0.000342882,-0.379969618,0,0,0,,0,153,153,38,1,ENGINE,HB,m,m,./images/ENGINEHB.png,,,,,,,,,,,,,,,,,,,,,,,,,,,,,,,,,,
,,,,,,,,,,,,,,,,,60fcaf5a13b051f5c8d978f2,19,2022-02-12_13h47.49.617,lexical_decision_task_DD_L6,2021.2.3,MacIntel,59.99880002,,,,,,,,,,,,0.5836,1,,,,,,,,,,,,,,m,1,0.5836,,,,,,,,-0.000342882,-0.379969618,0,0,0,,0,154,154,26,1,CLOUD,HB,m,m,./images/CLOUDHB.png,,,,,,,,,,,,,,,,,,,,,,,,,,,,,,,,,,
,,,,,,,,,,,,,,,,,60fcaf5a13b051f5c8d978f2,19,2022-02-12_13h47.49.617,lexical_decision_task_DD_L6,2021.2.3,MacIntel,59.99880002,,,,,,,,,,,,0.9767,1,,,,,,,,,,,,,,m,1,0.9767,,,,,,,,-0.000342882,-0.379969618,0,0,0,,0,155,155,83,1,WHISKY,HB,m,m,./images/WHISKYHB.png,,,,,,,,,,,,,,,,,,,,,,,,,,,,,,,,,,
,,,,,,,,,,,,,,,,,60fcaf5a13b051f5c8d978f2,19,2022-02-12_13h47.49.617,lexical_decision_task_DD_L6,2021.2.3,MacIntel,59.99880002,,,,,,,,,,,,0.6298,1,,,,,,,,,,,,,,z,1,0.6298,,,,,,,,-0.000342882,-0.379969618,0,0,0,,0,156,156,117,1,STEEG,C,z,z,./images/STEEG.png,,,,,,,,,,,,,,,,,,,,,,,,,,,,,,,,,,
,,,,,,,,,,,,,,,,,60fcaf5a13b051f5c8d978f2,19,2022-02-12_13h47.49.617,lexical_decision_task_DD_L6,2021.2.3,MacIntel,59.99880002,,,,,,,,,,,,1.0449,1,,,,,,,,,,,,,,z,1,1.0449,,,,,,,,-0.000342882,-0.379969618,0,0,0,,0,157,157,139,1,BLEAR,HB,z,z,./images/BLEARHB.png,,,,,,,,,,,,,,,,,,,,,,,,,,,,,,,,,,
,,,,,,,,,,,,,,,,,60fcaf5a13b051f5c8d978f2,19,2022-02-12_13h47.49.617,lexical_decision_task_DD_L6,2021.2.3,MacIntel,59.99880002,,,,,,,,,,,,0.6919,1,,,,,,,,,,,,,,z,1,0.6919,,,,,,,,-0.000342882,-0.379969618,0,0,0,,0,158,158,149,1,VEASE,LB,z,z,./images/VEASELB.png,,,,,,,,,,,,,,,,,,,,,,,,,,,,,,,,,,
,,,,,,,,,,,,,,,,,60fcaf5a13b051f5c8d978f2,19,2022-02-12_13h47.49.617,lexical_decision_task_DD_L6,2021.2.3,MacIntel,59.99880002,,,,,,,,,,,,0.7989,1,,,,,,,,,,,,,,z,1,0.7989,,,,,,,,-0.000342882,-0.379969618,0,0,0,,0,159,159,148,1,JOMS,HB,z,z,./images/JOMSHB.png,,,,,,,,,,,,,,,,,,,,,,,,,,,,,,,,,,
,,,,,,,,,,,,,,,,,60fcaf5a13b051f5c8d978f2,19,2022-02-12_13h47.49.617,lexical_decision_task_DD_L6,2021.2.3,MacIntel,59.99880002,,,,,,,,,,,,0.613,1,,,,,,,,,,,,,,m,1,0.613,,,,,,,,-0.000342882,-0.379969618,0,0,0,,0,160,160,71,1,BUBBLE,HB,m,m,./images/BUBBLEHB.png,,,,,,,,,,,,,,,,,,,,,,,,,,,,,,,,,,
,,,,,,,,,,,,,,,,,60fcaf5a13b051f5c8d978f2,19,2022-02-12_13h47.49.617,lexical_decision_task_DD_L6,2021.2.3,MacIntel,59.99880002,,,,,,,,,,,,0.5772,1,,,,,,,,,,,,,,m,1,0.5772,,,,,,,,-0.000342882,-0.379969618,0,0,0,,0,161,161,19,1,DONKEY,C,m,m,./images/DONKEY.png,,,,,,,,,,,,,,,,,,,,,,,,,,,,,,,,,,
,,,,,,,,,,,,,,,,,60fcaf5a13b051f5c8d978f2,19,2022-02-12_13h47.49.617,lexical_decision_task_DD_L6,2021.2.3,MacIntel,59.99880002,,,,,,,,,,,,0.9668,1,,,,,,,,,,,,,,z,1,0.9668,,,,,,,,-0.000342882,-0.379969618,0,0,0,,0,162,162,145,1,LAMEL,HB,z,z,./images/LAMELHB.png,,,,,,,,,,,,,,,,,,,,,,,,,,,,,,,,,,
,,,,,,,,,,,,,,,,,60fcaf5a13b051f5c8d978f2,19,2022-02-12_13h47.49.617,lexical_decision_task_DD_L6,2021.2.3,MacIntel,59.99880002,,,,,,,,,,,,0.5193,1,,,,,,,,,,,,,,m,1,0.5193,,,,,,,,-0.000342882,-0.379969618,0,0,0,,0,163,163,64,1,BRIDE,C,m,m,./images/BRIDE.png,,,,,,,,,,,,,,,,,,,,,,,,,,,,,,,,,,
,,,,,,,,,,,,,,,,,60fcaf5a13b051f5c8d978f2,19,2022-02-12_13h47.49.617,lexical_decision_task_DD_L6,2021.2.3,MacIntel,59.99880002,,,,,,,,,,,,0.577,1,,,,,,,,,,,,,,z,1,0.577,,,,,,,,-0.000342882,-0.379969618,0,0,0,,0,164,164,135,1,JOODY,C,z,z,./images/JOODY.png,,,,,,,,,,,,,,,,,,,,,,,,,,,,,,,,,,
,,,,,,,,,,,,,,,,,60fcaf5a13b051f5c8d978f2,19,2022-02-12_13h47.49.617,lexical_decision_task_DD_L6,2021.2.3,MacIntel,59.99880002,,,,,,,,,,,,0.6623,1,,,,,,,,,,,,,,z,1,0.6623,,,,,,,,-0.000342882,-0.379969618,0,0,0,,0,165,165,129,1,PRANS,C,z,z,./images/PRANS.png,,,,,,,,,,,,,,,,,,,,,,,,,,,,,,,,,,
,,,,,,,,,,,,,,,,,60fcaf5a13b051f5c8d978f2,19,2022-02-12_13h47.49.617,lexical_decision_task_DD_L6,2021.2.3,MacIntel,59.99880002,,,,,,,,,,,,0.6088,1,,,,,,,,,,,,,,m,1,0.6088,,,,,,,,-0.000342882,-0.379969618,0,0,0,,0,166,166,3,1,CRATER,LB,m,m,./images/CRATERLB.png,,,,,,,,,,,,,,,,,,,,,,,,,,,,,,,,,,
,,,,,,,,,,,,,,,,,60fcaf5a13b051f5c8d978f2,19,2022-02-12_13h47.49.617,lexical_decision_task_DD_L6,2021.2.3,MacIntel,59.99880002,,,,,,,,,,,,0.641,1,,,,,,,,,,,,,,z,1,0.641,,,,,,,,-0.000342882,-0.379969618,0,0,0,,0,167,167,152,1,FRAIN,LB,z,z,./images/FRAINLB.png,,,,,,,,,,,,,,,,,,,,,,,,,,,,,,,,,,
,,,,,,,,,,,,,,,,,60fcaf5a13b051f5c8d978f2,19,2022-02-12_13h47.49.617,lexical_decision_task_DD_L6,2021.2.3,MacIntel,59.99880002,,,,,,,,,,,,,,,,,,,,,,,,,,,,,,,,,,,,,,,,,,,,,,,,,How likely will it be that you will recognize the words presented clearly on a scale of 0 (not likely) to 100 (most likely)?,,,,,0.020208333,-0.422894965,1,0,0,jol_adv,6,5.0706,0,0,0,0,1,,,,,,,,,,,,,,,,,,,,
,,,,,,,,,,,,,,,,,60fcaf5a13b051f5c8d978f2,19,2022-02-12_13h47.49.617,lexical_decision_task_DD_L6,2021.2.3,MacIntel,59.99880002,,,,,,,,,,,,,,,,,,,,,,,,,,,,,,,,,,,,,,,,,,,,,,,,,How likely will it be that you will recognize the words presented very blurred on a scale of 0 (not likely) to 100 (most likely)?,,,,,,,,,,,3,5.9001,0,1,1,2,1,,,,,,,,,,,,,,,,,,,,
,,,,,,,,,,,,,,,,,60fcaf5a13b051f5c8d978f2,19,2022-02-12_13h47.49.617,lexical_decision_task_DD_L6,2021.2.3,MacIntel,59.99880002,,,,,,,,,,,,,,,,,,,,,,,,,,,,,,,,,,,,,,,,,,,,,,,,,How likely will it be that you will recognize the words presented slighly blurred on a scale of 0 (not likely) to 100 (most likely)?,,,,,,,,,,,4,6.0974,0,2,2,1,1,,,,,,,,,,,,,,,,,,,,
,0.096571181,-0.389539931,1,0,0,instr_done_button,,,,,,1,test,"In the next phase you will be presented with the words from the the first phase. Your job is to decide whether you remember seeing the word or not. If you remember seeing the word press ""old"" or type ""m"". If you do not remember seeing the word press ""new"" or type ""z"". Please press the space bar or click on continue to begin. ",,,60fcaf5a13b051f5c8d978f2,19,2022-02-12_13h47.49.617,lexical_decision_task_DD_L6,2021.2.3,MacIntel,59.99880002,,,,,,,,,,,,,,,,,,,,,,,,,,,,,,,,,,,,,,,,,,,,,,,,,,,,,,,,,,,,,,,,,,,0,0,0,0,1,,,,,,,,,,,,,,,
,0.096571181,-0.389539931,1,0,0,instr_done_button,,,,,,1,test,"In the next phase you will be presented with the words from the the first phase. Your job is to decide whether you remember seeing the word or not. If you remember seeing the word press ""old"" or type ""m"". If you do not remember seeing the word press ""new"" or type ""z"". Please press the space bar or click on continue to begin. ",,,60fcaf5a13b051f5c8d978f2,19,2022-02-12_13h47.49.617,lexical_decision_task_DD_L6,2021.2.3,MacIntel,59.99880002,,,,,,,,,,,,,,,,,,,,,,,,,,,,,,,,,,,,,,,,,,,,,,,,,,,,,,,,,,,,,,,,,,,1,0,1,0,1,,,,,,,,,,,,,,,
,-0.000138889,-0.405407986,1,0,0,instr_done_button,,,,,,1,test,"In the next phase you will be presented with the words from the the first phase. Your job is to decide whether you remember seeing the word or not. If you remember seeing the word press ""old"" or type ""m"". If you do not remember seeing the word press ""new"" or type ""z"". Please press the space bar or click on continue to begin. ",,,60fcaf5a13b051f5c8d978f2,19,2022-02-12_13h47.49.617,lexical_decision_task_DD_L6,2021.2.3,MacIntel,59.99880002,,,,,,,,,,,,,,,,,,,,,,,,,,,,,,,,,,,,,,,,,,,,,,,,,,,,,,,,,,,,,,,,,,,2,0,2,0,1,,,,,,,,,,,,,,,
,-0.029613715,-0.41608941,1,0,0,instr_done_button,,,,,,1,test,"In the next phase you will be presented with the words from the the first phase. Your job is to decide whether you remember seeing the word or not. If you remember seeing the word press ""old"" or type ""m"". If you do not remember seeing the word press ""new"" or type ""z"". Please press the space bar or click on continue to begin. ",,,60fcaf5a13b051f5c8d978f2,19,2022-02-12_13h47.49.617,lexical_decision_task_DD_L6,2021.2.3,MacIntel,59.99880002,,,,,,,,,,,,,,,,,,,,,,,,,,,,,,,,,,,,,,,,,,,,,,,,,,,,,,,,,,,,,,,,,,,3,0,3,0,1,,,,,,,,,,,,,,,
space,-0.029613715,-0.41608941,0,0,0,,,,,,,1,test,"In the next phase you will be presented with the words from the the first phase. Your job is to decide whether you remember seeing the word or not. If you remember seeing the word press ""old"" or type ""m"". If you do not remember seeing the word press ""new"" or type ""z"". Please press the space bar or click on continue to begin. ",,,60fcaf5a13b051f5c8d978f2,19,2022-02-12_13h47.49.617,lexical_decision_task_DD_L6,2021.2.3,MacIntel,59.99880002,0.8733,,,,,,,,,,,,,,,,,,,,,,,,,,,,,,,,,,,,,,,,,,,,,,,,,,,,,,,,,,,,,,,,,,4,0,4,0,1,,,,,,,,,,,,,,,
,,,,,,,,,,,,,,,,,60fcaf5a13b051f5c8d978f2,19,2022-02-12_13h47.49.617,lexical_decision_task_DD_L6,2021.2.3,MacIntel,59.99880002,,,,,,,,,,,,0.9677,1,,,,,,,,,,,,,,,,,,,,,,,,-0.029613715,-0.41608941,0,0,0,,,,,,,BEARD,HB,z,y,./images/BEARDHB.png,,,,,,,,,,,,,,,,,,,,z,1,0.9677,,,,,,,,0,0,0,86,1
,,,,,,,,,,,,,,,,,60fcaf5a13b051f5c8d978f2,19,2022-02-12_13h47.49.617,lexical_decision_task_DD_L6,2021.2.3,MacIntel,59.99880002,,,,,,,,,,,,1.2725,0,,,,,,,,,,,,,,,,,,,,,,,,-0.029613715,-0.41608941,0,0,0,,,,,,,BABOON,C,z,y,./images/BABOON.png,,,,,,,,,,,,,,,,,,,,m,0,1.2725,,,,,,,,0,1,1,142,1
,,,,,,,,,,,,,,,,,60fcaf5a13b051f5c8d978f2,19,2022-02-12_13h47.49.617,lexical_decision_task_DD_L6,2021.2.3,MacIntel,59.99880002,,,,,,,,,,,,0.8154,1,,,,,,,,,,,,,,,,,,,,,,,,-0.029613715,-0.41608941,0,0,0,,,,,,,MALLET,HB,z,y,./images/MALLETHB.png,,,,,,,,,,,,,,,,,,,,z,1,0.8154,,,,,,,,0,2,2,134,1
,,,,,,,,,,,,,,,,,60fcaf5a13b051f5c8d978f2,19,2022-02-12_13h47.49.617,lexical_decision_task_DD_L6,2021.2.3,MacIntel,59.99880002,,,,,,,,,,,,0.682,1,,,,,,,,,,,,,,,,,,,,,,,,-0.029613715,-0.41608941,0,0,0,,,,,,,STEAK,C,m,y,./images/STEAK.png,,,,,,,,,,,,,,,,,,,,m,1,0.682,,,,,,,,0,3,3,31,1
,,,,,,,,,,,,,,,,,60fcaf5a13b051f5c8d978f2,19,2022-02-12_13h47.49.617,lexical_decision_task_DD_L6,2021.2.3,MacIntel,59.99880002,,,,,,,,,,,,0.7814,0,,,,,,,,,,,,,,,,,,,,,,,,-0.029613715,-0.41608941,0,0,0,,,,,,,BUTTER,LB,m,y,./images/BUTTERLB.png,,,,,,,,,,,,,,,,,,,,z,0,0.7814,,,,,,,,0,4,4,27,1
,,,,,,,,,,,,,,,,,60fcaf5a13b051f5c8d978f2,19,2022-02-12_13h47.49.617,lexical_decision_task_DD_L6,2021.2.3,MacIntel,59.99880002,,,,,,,,,,,,0.647,1,,,,,,,,,,,,,,,,,,,,,,,,-0.029613715,-0.41608941,0,0,0,,,,,,,MUSCLE,C,z,y,./images/MUSCLE.png,,,,,,,,,,,,,,,,,,,,z,1,0.647,,,,,,,,0,5,5,88,1
,,,,,,,,,,,,,,,,,60fcaf5a13b051f5c8d978f2,19,2022-02-12_13h47.49.617,lexical_decision_task_DD_L6,2021.2.3,MacIntel,59.99880002,,,,,,,,,,,,0.6097,1,,,,,,,,,,,,,,,,,,,,,,,,-0.029613715,-0.41608941,0,0,0,,,,,,,MUMMY,C,m,y,./images/MUMMY.png,,,,,,,,,,,,,,,,,,,,m,1,0.6097,,,,,,,,0,6,6,46,1
,,,,,,,,,,,,,,,,,60fcaf5a13b051f5c8d978f2,19,2022-02-12_13h47.49.617,lexical_decision_task_DD_L6,2021.2.3,MacIntel,59.99880002,,,,,,,,,,,,0.7367,0,,,,,,,,,,,,,,,,,,,,,,,,-0.029613715,-0.41608941,0,0,0,,,,,,,DOUGH,C,z,y,./images/DOUGH.png,,,,,,,,,,,,,,,,,,,,m,0,0.7367,,,,,,,,0,7,7,103,1
,,,,,,,,,,,,,,,,,60fcaf5a13b051f5c8d978f2,19,2022-02-12_13h47.49.617,lexical_decision_task_DD_L6,2021.2.3,MacIntel,59.99880002,,,,,,,,,,,,0.6478,1,,,,,,,,,,,,,,,,,,,,,,,,-0.029613715,-0.41608941,0,0,0,,,,,,,SNAKE,C,m,y,./images/SNAKE.png,,,,,,,,,,,,,,,,,,,,m,1,0.6478,,,,,,,,0,8,8,40,1
,,,,,,,,,,,,,,,,,60fcaf5a13b051f5c8d978f2,19,2022-02-12_13h47.49.617,lexical_decision_task_DD_L6,2021.2.3,MacIntel,59.99880002,,,,,,,,,,,,0.8154,1,,,,,,,,,,,,,,,,,,,,,,,,-0.029613715,-0.41608941,0,0,0,,,,,,,STORM,LB,z,y,./images/STORMLB.png,,,,,,,,,,,,,,,,,,,,z,1,0.8154,,,,,,,,0,9,9,114,1
,,,,,,,,,,,,,,,,,60fcaf5a13b051f5c8d978f2,19,2022-02-12_13h47.49.617,lexical_decision_task_DD_L6,2021.2.3,MacIntel,59.99880002,,,,,,,,,,,,0.638,1,,,,,,,,,,,,,,,,,,,,,,,,-0.029613715,-0.41608941,0,0,0,,,,,,,DANCER,LB,m,y,./images/DANCERLB.png,,,,,,,,,,,,,,,,,,,,m,1,0.638,,,,,,,,0,10,10,21,1
,,,,,,,,,,,,,,,,,60fcaf5a13b051f5c8d978f2,19,2022-02-12_13h47.49.617,lexical_decision_task_DD_L6,2021.2.3,MacIntel,59.99880002,,,,,,,,,,,,0.9991,0,,,,,,,,,,,,,,,,,,,,,,,,-0.029613715,-0.41608941,0,0,0,,,,,,,MAGGOT,LB,z,y,./images/MAGGOTLB.png,,,,,,,,,,,,,,,,,,,,m,0,0.9991,,,,,,,,0,11,11,117,1
,,,,,,,,,,,,,,,,,60fcaf5a13b051f5c8d978f2,19,2022-02-12_13h47.49.617,lexical_decision_task_DD_L6,2021.2.3,MacIntel,59.99880002,,,,,,,,,,,,1.0027,1,,,,,,,,,,,,,,,,,,,,,,,,-0.029613715,-0.41608941,0,0,0,,,,,,,HOCKEY,HB,m,y,./images/HOCKEYHB.png,,,,,,,,,,,,,,,,,,,,m,1,1.0027,,,,,,,,0,12,12,32,1
,,,,,,,,,,,,,,,,,60fcaf5a13b051f5c8d978f2,19,2022-02-12_13h47.49.617,lexical_decision_task_DD_L6,2021.2.3,MacIntel,59.99880002,,,,,,,,,,,,1.1417,0,,,,,,,,,,,,,,,,,,,,,,,,-0.029613715,-0.41608941,0,0,0,,,,,,,ATTIC,LB,z,y,./images/ATTICLB.png,,,,,,,,,,,,,,,,,,,,m,0,1.1417,,,,,,,,0,13,13,111,1
,,,,,,,,,,,,,,,,,60fcaf5a13b051f5c8d978f2,19,2022-02-12_13h47.49.617,lexical_decision_task_DD_L6,2021.2.3,MacIntel,59.99880002,,,,,,,,,,,,1.4337,1,,,,,,,,,,,,,,,,,,,,,,,,-0.029613715,-0.41608941,0,0,0,,,,,,,KIDNEY,LB,z,y,./images/KIDNEYLB.png,,,,,,,,,,,,,,,,,,,,z,1,1.4337,,,,,,,,0,14,14,105,1
,,,,,,,,,,,,,,,,,60fcaf5a13b051f5c8d978f2,19,2022-02-12_13h47.49.617,lexical_decision_task_DD_L6,2021.2.3,MacIntel,59.99880002,,,,,,,,,,,,0.681,1,,,,,,,,,,,,,,,,,,,,,,,,-0.029613715,-0.41608941,0,0,0,,,,,,,VALLEY,HB,m,y,./images/VALLEYHB.png,,,,,,,,,,,,,,,,,,,,m,1,0.681,,,,,,,,0,15,15,68,1
,,,,,,,,,,,,,,,,,60fcaf5a13b051f5c8d978f2,19,2022-02-12_13h47.49.617,lexical_decision_task_DD_L6,2021.2.3,MacIntel,59.99880002,,,,,,,,,,,,0.5969,1,,,,,,,,,,,,,,,,,,,,,,,,-0.029613715,-0.41608941,0,0,0,,,,,,,DONKEY,C,m,y,./images/DONKEY.png,,,,,,,,,,,,,,,,,,,,m,1,0.5969,,,,,,,,0,16,16,19,1
,,,,,,,,,,,,,,,,,60fcaf5a13b051f5c8d978f2,19,2022-02-12_13h47.49.617,lexical_decision_task_DD_L6,2021.2.3,MacIntel,59.99880002,,,,,,,,,,,,1.1002,1,,,,,,,,,,,,,,,,,,,,,,,,-0.029613715,-0.41608941,0,0,0,,,,,,,MOTOR,C,z,y,./images/MOTOR.png,,,,,,,,,,,,,,,,,,,,z,1,1.1002,,,,,,,,0,17,17,97,1
,,,,,,,,,,,,,,,,,60fcaf5a13b051f5c8d978f2,19,2022-02-12_13h47.49.617,lexical_decision_task_DD_L6,2021.2.3,MacIntel,59.99880002,,,,,,,,,,,,0.9973,1,,,,,,,,,,,,,,,,,,,,,,,,-0.029613715,-0.41608941,0,0,0,,,,,,,PACKET,HB,z,y,./images/PACKETHB.png,,,,,,,,,,,,,,,,,,,,z,1,0.9973,,,,,,,,0,18,18,140,1
,,,,,,,,,,,,,,,,,60fcaf5a13b051f5c8d978f2,19,2022-02-12_13h47.49.617,lexical_decision_task_DD_L6,2021.2.3,MacIntel,59.99880002,,,,,,,,,,,,0.9866,0,,,,,,,,,,,,,,,,,,,,,,,,-0.029613715,-0.41608941,0,0,0,,,,,,,SMOKER,HB,z,y,./images/SMOKERHB.png,,,,,,,,,,,,,,,,,,,,m,0,0.9866,,,,,,,,0,19,19,110,1
,,,,,,,,,,,,,,,,,60fcaf5a13b051f5c8d978f2,19,2022-02-12_13h47.49.617,lexical_decision_task_DD_L6,2021.2.3,MacIntel,59.99880002,,,,,,,,,,,,0.8338,1,,,,,,,,,,,,,,,,,,,,,,,,-0.029613715,-0.41608941,0,0,0,,,,,,,TWINS,LB,z,y,./images/TWINSLB.png,,,,,,,,,,,,,,,,,,,,z,1,0.8338,,,,,,,,0,20,20,144,1
,,,,,,,,,,,,,,,,,60fcaf5a13b051f5c8d978f2,19,2022-02-12_13h47.49.617,lexical_decision_task_DD_L6,2021.2.3,MacIntel,59.99880002,,,,,,,,,,,,0.6817,1,,,,,,,,,,,,,,,,,,,,,,,,-0.029613715,-0.41608941,0,0,0,,,,,,,FLASK,LB,m,y,./images/FLASKLB.png,,,,,,,,,,,,,,,,,,,,m,1,0.6817,,,,,,,,0,21,21,72,1
,,,,,,,,,,,,,,,,,60fcaf5a13b051f5c8d978f2,19,2022-02-12_13h47.49.617,lexical_decision_task_DD_L6,2021.2.3,MacIntel,59.99880002,,,,,,,,,,,,0.9027,1,,,,,,,,,,,,,,,,,,,,,,,,-0.029613715,-0.41608941,0,0,0,,,,,,,SHORE,LB,z,y,./images/SHORELB.png,,,,,,,,,,,,,,,,,,,,z,1,0.9027,,,,,,,,0,22,22,96,1
,,,,,,,,,,,,,,,,,60fcaf5a13b051f5c8d978f2,19,2022-02-12_13h47.49.617,lexical_decision_task_DD_L6,2021.2.3,MacIntel,59.99880002,,,,,,,,,,,,1.25,1,,,,,,,,,,,,,,,,,,,,,,,,-0.029613715,-0.41608941,0,0,0,,,,,,,PURSE,HB,z,y,./images/PURSEHB.png,,,,,,,,,,,,,,,,,,,,z,1,1.25,,,,,,,,0,23,23,146,1
,,,,,,,,,,,,,,,,,60fcaf5a13b051f5c8d978f2,19,2022-02-12_13h47.49.617,lexical_decision_task_DD_L6,2021.2.3,MacIntel,59.99880002,,,,,,,,,,,,0.8045,0,,,,,,,,,,,,,,,,,,,,,,,,-0.029613715,-0.41608941,0,0,0,,,,,,,MELON,C,z,y,./images/MELON.png,,,,,,,,,,,,,,,,,,,,m,0,0.8045,,,,,,,,0,24,24,106,1
,,,,,,,,,,,,,,,,,60fcaf5a13b051f5c8d978f2,19,2022-02-12_13h47.49.617,lexical_decision_task_DD_L6,2021.2.3,MacIntel,59.99880002,,,,,,,,,,,,0.748,0,,,,,,,,,,,,,,,,,,,,,,,,-0.029613715,-0.41608941,0,0,0,,,,,,,BARREL,HB,z,y,./images/BARRELHB.png,,,,,,,,,,,,,,,,,,,,m,0,0.748,,,,,,,,0,25,25,116,1
,,,,,,,,,,,,,,,,,60fcaf5a13b051f5c8d978f2,19,2022-02-12_13h47.49.617,lexical_decision_task_DD_L6,2021.2.3,MacIntel,59.99880002,,,,,,,,,,,,0.7062,1,,,,,,,,,,,,,,,,,,,,,,,,-0.029613715,-0.41608941,0,0,0,,,,,,,BROOM,LB,m,y,./images/BROOMLB.png,,,,,,,,,,,,,,,,,,,,m,1,0.7062,,,,,,,,0,26,26,78,1
,,,,,,,,,,,,,,,,,60fcaf5a13b051f5c8d978f2,19,2022-02-12_13h47.49.617,lexical_decision_task_DD_L6,2021.2.3,MacIntel,59.99880002,,,,,,,,,,,,0.796,1,,,,,,,,,,,,,,,,,,,,,,,,-0.029613715,-0.41608941,0,0,0,,,,,,,SPORT,LB,z,y,./images/SPORTLB.png,,,,,,,,,,,,,,,,,,,,z,1,0.796,,,,,,,,0,27,27,132,1
,,,,,,,,,,,,,,,,,60fcaf5a13b051f5c8d978f2,19,2022-02-12_13h47.49.617,lexical_decision_task_DD_L6,2021.2.3,MacIntel,59.99880002,,,,,,,,,,,,0.6178,1,,,,,,,,,,,,,,,,,,,,,,,,-0.029613715,-0.41608941,0,0,0,,,,,,,MIDGET,C,m,y,./images/MIDGET.png,,,,,,,,,,,,,,,,,,,,m,1,0.6178,,,,,,,,0,28,28,76,1
,,,,,,,,,,,,,,,,,60fcaf5a13b051f5c8d978f2,19,2022-02-12_13h47.49.617,lexical_decision_task_DD_L6,2021.2.3,MacIntel,59.99880002,,,,,,,,,,,,0.5802,1,,,,,,,,,,,,,,,,,,,,,,,,-0.029613715,-0.41608941,0,0,0,,,,,,,PEBBLE,C,m,y,./images/PEBBLE.png,,,,,,,,,,,,,,,,,,,,m,1,0.5802,,,,,,,,0,29,29,82,1
,,,,,,,,,,,,,,,,,60fcaf5a13b051f5c8d978f2,19,2022-02-12_13h47.49.617,lexical_decision_task_DD_L6,2021.2.3,MacIntel,59.99880002,,,,,,,,,,,,0.668,1,,,,,,,,,,,,,,,,,,,,,,,,-0.029613715,-0.41608941,0,0,0,,,,,,,DESERT,C,m,y,./images/DESERT.png,,,,,,,,,,,,,,,,,,,,m,1,0.668,,,,,,,,0,30,30,52,1
,,,,,,,,,,,,,,,,,60fcaf5a13b051f5c8d978f2,19,2022-02-12_13h47.49.617,lexical_decision_task_DD_L6,2021.2.3,MacIntel,59.99880002,,,,,,,,,,,,0.5903,1,,,,,,,,,,,,,,,,,,,,,,,,-0.029613715,-0.41608941,0,0,0,,,,,,,BISHOP,C,m,y,./images/BISHOP.png,,,,,,,,,,,,,,,,,,,,m,1,0.5903,,,,,,,,0,31,31,49,1
,,,,,,,,,,,,,,,,,60fcaf5a13b051f5c8d978f2,19,2022-02-12_13h47.49.617,lexical_decision_task_DD_L6,2021.2.3,MacIntel,59.99880002,,,,,,,,,,,,0.935,1,,,,,,,,,,,,,,,,,,,,,,,,-0.029613715,-0.41608941,0,0,0,,,,,,,SPINE,HB,m,y,./images/SPINEHB.png,,,,,,,,,,,,,,,,,,,,m,1,0.935,,,,,,,,0,32,32,65,1
,,,,,,,,,,,,,,,,,60fcaf5a13b051f5c8d978f2,19,2022-02-12_13h47.49.617,lexical_decision_task_DD_L6,2021.2.3,MacIntel,59.99880002,,,,,,,,,,,,0.7154,0,,,,,,,,,,,,,,,,,,,,,,,,-0.029613715,-0.41608941,0,0,0,,,,,,,BANNER,C,z,y,./images/BANNER.png,,,,,,,,,,,,,,,,,,,,m,0,0.7154,,,,,,,,0,33,33,136,1
,,,,,,,,,,,,,,,,,60fcaf5a13b051f5c8d978f2,19,2022-02-12_13h47.49.617,lexical_decision_task_DD_L6,2021.2.3,MacIntel,59.99880002,,,,,,,,,,,,0.6146,1,,,,,,,,,,,,,,,,,,,,,,,,-0.029613715,-0.41608941,0,0,0,,,,,,,STOVE,HB,m,y,./images/STOVEHB.png,,,,,,,,,,,,,,,,,,,,m,1,0.6146,,,,,,,,0,34,34,2,1
,,,,,,,,,,,,,,,,,60fcaf5a13b051f5c8d978f2,19,2022-02-12_13h47.49.617,lexical_decision_task_DD_L6,2021.2.3,MacIntel,59.99880002,,,,,,,,,,,,0.6314,1,,,,,,,,,,,,,,,,,,,,,,,,-0.029613715,-0.41608941,0,0,0,,,,,,,STATUE,LB,m,y,./images/STATUELB.png,,,,,,,,,,,,,,,,,,,,m,1,0.6314,,,,,,,,0,35,35,66,1
,,,,,,,,,,,,,,,,,60fcaf5a13b051f5c8d978f2,19,2022-02-12_13h47.49.617,lexical_decision_task_DD_L6,2021.2.3,MacIntel,59.99880002,,,,,,,,,,,,0.5909,0,,,,,,,,,,,,,,,,,,,,,,,,-0.029613715,-0.41608941,0,0,0,,,,,,,PIMPLE,HB,z,y,./images/PIMPLEHB.png,,,,,,,,,,,,,,,,,,,,m,0,0.5909,,,,,,,,0,36,36,155,1
,,,,,,,,,,,,,,,,,60fcaf5a13b051f5c8d978f2,19,2022-02-12_13h47.49.617,lexical_decision_task_DD_L6,2021.2.3,MacIntel,59.99880002,,,,,,,,,,,,0.7806,0,,,,,,,,,,,,,,,,,,,,,,,,-0.029613715,-0.41608941,0,0,0,,,,,,,SCREW,LB,z,y,./images/SCREWLB.png,,,,,,,,,,,,,,,,,,,,m,0,0.7806,,,,,,,,0,37,37,108,1
,,,,,,,,,,,,,,,,,60fcaf5a13b051f5c8d978f2,19,2022-02-12_13h47.49.617,lexical_decision_task_DD_L6,2021.2.3,MacIntel,59.99880002,,,,,,,,,,,,0.8805,1,,,,,,,,,,,,,,,,,,,,,,,,-0.029613715,-0.41608941,0,0,0,,,,,,,MUFFIN,C,z,y,./images/MUFFIN.png,,,,,,,,,,,,,,,,,,,,z,1,0.8805,,,,,,,,0,38,38,139,1
,,,,,,,,,,,,,,,,,60fcaf5a13b051f5c8d978f2,19,2022-02-12_13h47.49.617,lexical_decision_task_DD_L6,2021.2.3,MacIntel,59.99880002,,,,,,,,,,,,0.5974,1,,,,,,,,,,,,,,,,,,,,,,,,-0.029613715,-0.41608941,0,0,0,,,,,,,CHAIN,LB,m,y,./images/CHAINLB.png,,,,,,,,,,,,,,,,,,,,m,1,0.5974,,,,,,,,0,39,39,42,1
,,,,,,,,,,,,,,,,,60fcaf5a13b051f5c8d978f2,19,2022-02-12_13h47.49.617,lexical_decision_task_DD_L6,2021.2.3,MacIntel,59.99880002,,,,,,,,,,,,0.756,1,,,,,,,,,,,,,,,,,,,,,,,,-0.029613715,-0.41608941,0,0,0,,,,,,,CURRY,LB,m,y,./images/CURRYLB.png,,,,,,,,,,,,,,,,,,,,m,1,0.756,,,,,,,,0,40,40,60,1
,,,,,,,,,,,,,,,,,60fcaf5a13b051f5c8d978f2,19,2022-02-12_13h47.49.617,lexical_decision_task_DD_L6,2021.2.3,MacIntel,59.99880002,,,,,,,,,,,,0.587,1,,,,,,,,,,,,,,,,,,,,,,,,0.011610243,-0.38921875,1,0,0,,,,,,,PISTOL,HB,m,y,./images/PISTOLHB.png,break_done_button,,,,,,,,,,,,,,,,,,,m,1,0.587,,,,,,,,0,41,41,29,1
,,,,,,,,,,,,,,,,,60fcaf5a13b051f5c8d978f2,19,2022-02-12_13h47.49.617,lexical_decision_task_DD_L6,2021.2.3,MacIntel,59.99880002,,,,,,,,,,,,0.8704,1,,,,,,,,,,,,,,,,,,,,,,,,0.011610243,-0.38921875,0,0,0,,,,,,,PASTA,HB,z,y,./images/PASTAHB.png,,,,,,,,,,,,,,,,,,,,z,1,0.8704,,,,,,,,0,42,42,89,1
,,,,,,,,,,,,,,,,,60fcaf5a13b051f5c8d978f2,19,2022-02-12_13h47.49.617,lexical_decision_task_DD_L6,2021.2.3,MacIntel,59.99880002,,,,,,,,,,,,0.6823,1,,,,,,,,,,,,,,,,,,,,,,,,0.011610243,-0.38921875,0,0,0,,,,,,,TORCH,HB,z,y,./images/TORCHHB.png,,,,,,,,,,,,,,,,,,,,z,1,0.6823,,,,,,,,0,43,43,152,1
,,,,,,,,,,,,,,,,,60fcaf5a13b051f5c8d978f2,19,2022-02-12_13h47.49.617,lexical_decision_task_DD_L6,2021.2.3,MacIntel,59.99880002,,,,,,,,,,,,0.7527,1,,,,,,,,,,,,,,,,,,,,,,,,0.011610243,-0.38921875,0,0,0,,,,,,,SWEAT,LB,z,y,./images/SWEATLB.png,,,,,,,,,,,,,,,,,,,,z,1,0.7527,,,,,,,,0,44,44,150,1
,,,,,,,,,,,,,,,,,60fcaf5a13b051f5c8d978f2,19,2022-02-12_13h47.49.617,lexical_decision_task_DD_L6,2021.2.3,MacIntel,59.99880002,,,,,,,,,,,,0.683,1,,,,,,,,,,,,,,,,,,,,,,,,0.011610243,-0.38921875,0,0,0,,,,,,,TRIPOD,LB,z,y,./images/TRIPODLB.png,,,,,,,,,,,,,,,,,,,,z,1,0.683,,,,,,,,0,45,45,138,1
,,,,,,,,,,,,,,,,,60fcaf5a13b051f5c8d978f2,19,2022-02-12_13h47.49.617,lexical_decision_task_DD_L6,2021.2.3,MacIntel,59.99880002,,,,,,,,,,,,0.7979,1,,,,,,,,,,,,,,,,,,,,,,,,0.011610243,-0.38921875,0,0,0,,,,,,,FOLDER,LB,z,y,./images/FOLDERLB.png,,,,,,,,,,,,,,,,,,,,z,1,0.7979,,,,,,,,0,46,46,126,1
,,,,,,,,,,,,,,,,,60fcaf5a13b051f5c8d978f2,19,2022-02-12_13h47.49.617,lexical_decision_task_DD_L6,2021.2.3,MacIntel,59.99880002,,,,,,,,,,,,1.1981,1,,,,,,,,,,,,,,,,,,,,,,,,0.011610243,-0.38921875,0,0,0,,,,,,,STREAM,HB,m,y,./images/STREAMHB.png,,,,,,,,,,,,,,,,,,,,m,1,1.1981,,,,,,,,0,47,47,41,1
,,,,,,,,,,,,,,,,,60fcaf5a13b051f5c8d978f2,19,2022-02-12_13h47.49.617,lexical_decision_task_DD_L6,2021.2.3,MacIntel,59.99880002,,,,,,,,,,,,0.8865,1,,,,,,,,,,,,,,,,,,,,,,,,0.011610243,-0.38921875,0,0,0,,,,,,,LADDER,HB,z,y,./images/LADDERHB.png,,,,,,,,,,,,,,,,,,,,z,1,0.8865,,,,,,,,0,48,48,122,1
,,,,,,,,,,,,,,,,,60fcaf5a13b051f5c8d978f2,19,2022-02-12_13h47.49.617,lexical_decision_task_DD_L6,2021.2.3,MacIntel,59.99880002,,,,,,,,,,,,0.8042,0,,,,,,,,,,,,,,,,,,,,,,,,0.011610243,-0.38921875,0,0,0,,,,,,,BELLY,C,z,y,./images/BELLY.png,,,,,,,,,,,,,,,,,,,,m,0,0.8042,,,,,,,,0,49,49,94,1
,,,,,,,,,,,,,,,,,60fcaf5a13b051f5c8d978f2,19,2022-02-12_13h47.49.617,lexical_decision_task_DD_L6,2021.2.3,MacIntel,59.99880002,,,,,,,,,,,,0.9964,1,,,,,,,,,,,,,,,,,,,,,,,,0.011610243,-0.38921875,0,0,0,,,,,,,GARDEN,C,m,y,./images/GARDEN.png,,,,,,,,,,,,,,,,,,,,m,1,0.9964,,,,,,,,0,50,50,10,1
,,,,,,,,,,,,,,,,,60fcaf5a13b051f5c8d978f2,19,2022-02-12_13h47.49.617,lexical_decision_task_DD_L6,2021.2.3,MacIntel,59.99880002,,,,,,,,,,,,0.6539,1,,,,,,,,,,,,,,,,,,,,,,,,0.011610243,-0.38921875,0,0,0,,,,,,,FLESH,LB,m,y,./images/FLESHLB.png,,,,,,,,,,,,,,,,,,,,m,1,0.6539,,,,,,,,0,51,51,24,1
,,,,,,,,,,,,,,,,,60fcaf5a13b051f5c8d978f2,19,2022-02-12_13h47.49.617,lexical_decision_task_DD_L6,2021.2.3,MacIntel,59.99880002,,,,,,,,,,,,0.6998,1,,,,,,,,,,,,,,,,,,,,,,,,0.011610243,-0.38921875,0,0,0,,,,,,,TULIP,HB,z,y,./images/TULIPHB.png,,,,,,,,,,,,,,,,,,,,z,1,0.6998,,,,,,,,0,52,52,92,1
,,,,,,,,,,,,,,,,,60fcaf5a13b051f5c8d978f2,19,2022-02-12_13h47.49.617,lexical_decision_task_DD_L6,2021.2.3,MacIntel,59.99880002,,,,,,,,,,,,0.7728,1,,,,,,,,,,,,,,,,,,,,,,,,0.011610243,-0.38921875,0,0,0,,,,,,,STRING,HB,z,y,./images/STRINGHB.png,,,,,,,,,,,,,,,,,,,,z,1,0.7728,,,,,,,,0,53,53,125,1
,,,,,,,,,,,,,,,,,60fcaf5a13b051f5c8d978f2,19,2022-02-12_13h47.49.617,lexical_decision_task_DD_L6,2021.2.3,MacIntel,59.99880002,,,,,,,,,,,,0.8822,1,,,,,,,,,,,,,,,,,,,,,,,,0.011610243,-0.38921875,0,0,0,,,,,,,FALCON,C,z,y,./images/FALCON.png,,,,,,,,,,,,,,,,,,,,z,1,0.8822,,,,,,,,0,54,54,112,1
,,,,,,,,,,,,,,,,,60fcaf5a13b051f5c8d978f2,19,2022-02-12_13h47.49.617,lexical_decision_task_DD_L6,2021.2.3,MacIntel,59.99880002,,,,,,,,,,,,0.7137,1,,,,,,,,,,,,,,,,,,,,,,,,0.011610243,-0.38921875,0,0,0,,,,,,,BRUSH,HB,m,y,./images/BRUSHHB.png,,,,,,,,,,,,,,,,,,,,m,1,0.7137,,,,,,,,0,55,55,59,1
,,,,,,,,,,,,,,,,,60fcaf5a13b051f5c8d978f2,19,2022-02-12_13h47.49.617,lexical_decision_task_DD_L6,2021.2.3,MacIntel,59.99880002,,,,,,,,,,,,0.6316,1,,,,,,,,,,,,,,,,,,,,,,,,0.011610243,-0.38921875,0,0,0,,,,,,,DIVER,LB,m,y,./images/DIVERLB.png,,,,,,,,,,,,,,,,,,,,m,1,0.6316,,,,,,,,0,56,56,9,1
,,,,,,,,,,,,,,,,,60fcaf5a13b051f5c8d978f2,19,2022-02-12_13h47.49.617,lexical_decision_task_DD_L6,2021.2.3,MacIntel,59.99880002,,,,,,,,,,,,0.9508,1,,,,,,,,,,,,,,,,,,,,,,,,0.011610243,-0.38921875,0,0,0,,,,,,,COOKER,LB,z,y,./images/COOKERLB.png,,,,,,,,,,,,,,,,,,,,z,1,0.9508,,,,,,,,0,57,57,153,1
,,,,,,,,,,,,,,,,,60fcaf5a13b051f5c8d978f2,19,2022-02-12_13h47.49.617,lexical_decision_task_DD_L6,2021.2.3,MacIntel,59.99880002,,,,,,,,,,,,0.6001,1,,,,,,,,,,,,,,,,,,,,,,,,0.011610243,-0.38921875,0,0,0,,,,,,,PLANET,HB,m,y,./images/PLANETHB.png,,,,,,,,,,,,,,,,,,,,m,1,0.6001,,,,,,,,0,58,58,80,1
,,,,,,,,,,,,,,,,,60fcaf5a13b051f5c8d978f2,19,2022-02-12_13h47.49.617,lexical_decision_task_DD_L6,2021.2.3,MacIntel,59.99880002,,,,,,,,,,,,0.721,0,,,,,,,,,,,,,,,,,,,,,,,,0.011610243,-0.38921875,0,0,0,,,,,,,SHIELD,LB,m,y,./images/SHIELDLB.png,,,,,,,,,,,,,,,,,,,,z,0,0.721,,,,,,,,0,59,59,48,1
,,,,,,,,,,,,,,,,,60fcaf5a13b051f5c8d978f2,19,2022-02-12_13h47.49.617,lexical_decision_task_DD_L6,2021.2.3,MacIntel,59.99880002,,,,,,,,,,,,0.6313,1,,,,,,,,,,,,,,,,,,,,,,,,0.011610243,-0.38921875,0,0,0,,,,,,,MOSQUE,C,z,y,./images/MOSQUE.png,,,,,,,,,,,,,,,,,,,,z,1,0.6313,,,,,,,,0,60,60,127,1
,,,,,,,,,,,,,,,,,60fcaf5a13b051f5c8d978f2,19,2022-02-12_13h47.49.617,lexical_decision_task_DD_L6,2021.2.3,MacIntel,59.99880002,,,,,,,,,,,,0.6001,1,,,,,,,,,,,,,,,,,,,,,,,,0.011610243,-0.38921875,0,0,0,,,,,,,BUBBLE,HB,m,y,./images/BUBBLEHB.png,,,,,,,,,,,,,,,,,,,,m,1,0.6001,,,,,,,,0,61,61,71,1
,,,,,,,,,,,,,,,,,60fcaf5a13b051f5c8d978f2,19,2022-02-12_13h47.49.617,lexical_decision_task_DD_L6,2021.2.3,MacIntel,59.99880002,,,,,,,,,,,,0.7157,1,,,,,,,,,,,,,,,,,,,,,,,,0.011610243,-0.38921875,0,0,0,,,,,,,WALNUT,LB,m,y,./images/WALNUTLB.png,,,,,,,,,,,,,,,,,,,,m,1,0.7157,,,,,,,,0,62,62,0,1
,,,,,,,,,,,,,,,,,60fcaf5a13b051f5c8d978f2,19,2022-02-12_13h47.49.617,lexical_decision_task_DD_L6,2021.2.3,MacIntel,59.99880002,,,,,,,,,,,,0.87,1,,,,,,,,,,,,,,,,,,,,,,,,0.011610243,-0.38921875,0,0,0,,,,,,,RHINO,LB,z,y,./images/RHINOLB.png,,,,,,,,,,,,,,,,,,,,z,1,0.87,,,,,,,,0,63,63,93,1
,,,,,,,,,,,,,,,,,60fcaf5a13b051f5c8d978f2,19,2022-02-12_13h47.49.617,lexical_decision_task_DD_L6,2021.2.3,MacIntel,59.99880002,,,,,,,,,,,,0.8341,1,,,,,,,,,,,,,,,,,,,,,,,,0.011610243,-0.38921875,0,0,0,,,,,,,POSTER,HB,m,y,./images/POSTERHB.png,,,,,,,,,,,,,,,,,,,,m,1,0.8341,,,,,,,,0,64,64,53,1
,,,,,,,,,,,,,,,,,60fcaf5a13b051f5c8d978f2,19,2022-02-12_13h47.49.617,lexical_decision_task_DD_L6,2021.2.3,MacIntel,59.99880002,,,,,,,,,,,,0.7471,0,,,,,,,,,,,,,,,,,,,,,,,,0.011610243,-0.38921875,0,0,0,,,,,,,JUMPER,HB,m,y,./images/JUMPERHB.png,,,,,,,,,,,,,,,,,,,,z,0,0.7471,,,,,,,,0,65,65,74,1
,,,,,,,,,,,,,,,,,60fcaf5a13b051f5c8d978f2,19,2022-02-12_13h47.49.617,lexical_decision_task_DD_L6,2021.2.3,MacIntel,59.99880002,,,,,,,,,,,,0.7635,1,,,,,,,,,,,,,,,,,,,,,,,,0.011610243,-0.38921875,0,0,0,,,,,,,DRUMS,C,z,y,./images/DRUMS.png,,,,,,,,,,,,,,,,,,,,z,1,0.7635,,,,,,,,0,66,66,133,1
,,,,,,,,,,,,,,,,,60fcaf5a13b051f5c8d978f2,19,2022-02-12_13h47.49.617,lexical_decision_task_DD_L6,2021.2.3,MacIntel,59.99880002,,,,,,,,,,,,0.7663,1,,,,,,,,,,,,,,,,,,,,,,,,0.011610243,-0.38921875,0,0,0,,,,,,,CRUMB,HB,z,y,./images/CRUMBHB.png,,,,,,,,,,,,,,,,,,,,z,1,0.7663,,,,,,,,0,67,67,113,1
,,,,,,,,,,,,,,,,,60fcaf5a13b051f5c8d978f2,19,2022-02-12_13h47.49.617,lexical_decision_task_DD_L6,2021.2.3,MacIntel,59.99880002,,,,,,,,,,,,0.5475,1,,,,,,,,,,,,,,,,,,,,,,,,0.011610243,-0.38921875,0,0,0,,,,,,,LITTER,LB,z,y,./images/LITTERLB.png,,,,,,,,,,,,,,,,,,,,z,1,0.5475,,,,,,,,0,68,68,162,1
,,,,,,,,,,,,,,,,,60fcaf5a13b051f5c8d978f2,19,2022-02-12_13h47.49.617,lexical_decision_task_DD_L6,2021.2.3,MacIntel,59.99880002,,,,,,,,,,,,0.6738,1,,,,,,,,,,,,,,,,,,,,,,,,0.011610243,-0.38921875,0,0,0,,,,,,,BASKET,HB,m,y,./images/BASKETHB.png,,,,,,,,,,,,,,,,,,,,m,1,0.6738,,,,,,,,0,69,69,44,1
,,,,,,,,,,,,,,,,,60fcaf5a13b051f5c8d978f2,19,2022-02-12_13h47.49.617,lexical_decision_task_DD_L6,2021.2.3,MacIntel,59.99880002,,,,,,,,,,,,0.6342,1,,,,,,,,,,,,,,,,,,,,,,,,0.011610243,-0.38921875,0,0,0,,,,,,,STOOL,C,m,y,./images/STOOL.png,,,,,,,,,,,,,,,,,,,,m,1,0.6342,,,,,,,,0,70,70,43,1
,,,,,,,,,,,,,,,,,60fcaf5a13b051f5c8d978f2,19,2022-02-12_13h47.49.617,lexical_decision_task_DD_L6,2021.2.3,MacIntel,59.99880002,,,,,,,,,,,,0.5845,1,,,,,,,,,,,,,,,,,,,,,,,,0.011610243,-0.38921875,0,0,0,,,,,,,WAGON,C,m,y,./images/WAGON.png,,,,,,,,,,,,,,,,,,,,m,1,0.5845,,,,,,,,0,71,71,7,1
,,,,,,,,,,,,,,,,,60fcaf5a13b051f5c8d978f2,19,2022-02-12_13h47.49.617,lexical_decision_task_DD_L6,2021.2.3,MacIntel,59.99880002,,,,,,,,,,,,0.8311,1,,,,,,,,,,,,,,,,,,,,,,,,0.011610243,-0.38921875,0,0,0,,,,,,,TOWEL,C,m,y,./images/TOWEL.png,,,,,,,,,,,,,,,,,,,,m,1,0.8311,,,,,,,,0,72,72,1,1
,,,,,,,,,,,,,,,,,60fcaf5a13b051f5c8d978f2,19,2022-02-12_13h47.49.617,lexical_decision_task_DD_L6,2021.2.3,MacIntel,59.99880002,,,,,,,,,,,,0.6366,1,,,,,,,,,,,,,,,,,,,,,,,,0.011610243,-0.38921875,0,0,0,,,,,,,DRILL,LB,m,y,./images/DRILLLB.png,,,,,,,,,,,,,,,,,,,,m,1,0.6366,,,,,,,,0,73,73,81,1
,,,,,,,,,,,,,,,,,60fcaf5a13b051f5c8d978f2,19,2022-02-12_13h47.49.617,lexical_decision_task_DD_L6,2021.2.3,MacIntel,59.99880002,,,,,,,,,,,,0.6978,1,,,,,,,,,,,,,,,,,,,,,,,,0.011610243,-0.38921875,0,0,0,,,,,,,GRAPE,C,m,y,./images/GRAPE.png,,,,,,,,,,,,,,,,,,,,m,1,0.6978,,,,,,,,0,74,74,16,1
,,,,,,,,,,,,,,,,,60fcaf5a13b051f5c8d978f2,19,2022-02-12_13h47.49.617,lexical_decision_task_DD_L6,2021.2.3,MacIntel,59.99880002,,,,,,,,,,,,0.965,1,,,,,,,,,,,,,,,,,,,,,,,,0.011610243,-0.38921875,0,0,0,,,,,,,TOMATO,LB,z,y,./images/TOMATOLB.png,,,,,,,,,,,,,,,,,,,,z,1,0.965,,,,,,,,0,75,75,84,1
,,,,,,,,,,,,,,,,,60fcaf5a13b051f5c8d978f2,19,2022-02-12_13h47.49.617,lexical_decision_task_DD_L6,2021.2.3,MacIntel,59.99880002,,,,,,,,,,,,0.7643,0,,,,,,,,,,,,,,,,,,,,,,,,0.011610243,-0.38921875,0,0,0,,,,,,,CANDY,LB,m,y,./images/CANDYLB.png,,,,,,,,,,,,,,,,,,,,z,0,0.7643,,,,,,,,0,76,76,39,1
,,,,,,,,,,,,,,,,,60fcaf5a13b051f5c8d978f2,19,2022-02-12_13h47.49.617,lexical_decision_task_DD_L6,2021.2.3,MacIntel,59.99880002,,,,,,,,,,,,0.6641,1,,,,,,,,,,,,,,,,,,,,,,,,0.011610243,-0.38921875,0,0,0,,,,,,,BAMBOO,HB,m,y,./images/BAMBOOHB.png,,,,,,,,,,,,,,,,,,,,m,1,0.6641,,,,,,,,0,77,77,5,1
,,,,,,,,,,,,,,,,,60fcaf5a13b051f5c8d978f2,19,2022-02-12_13h47.49.617,lexical_decision_task_DD_L6,2021.2.3,MacIntel,59.99880002,,,,,,,,,,,,0.62,1,,,,,,,,,,,,,,,,,,,,,,,,0.011610243,-0.38921875,0,0,0,,,,,,,BOXER,C,m,y,./images/BOXER.png,,,,,,,,,,,,,,,,,,,,m,1,0.62,,,,,,,,0,78,78,4,1
,,,,,,,,,,,,,,,,,60fcaf5a13b051f5c8d978f2,19,2022-02-12_13h47.49.617,lexical_decision_task_DD_L6,2021.2.3,MacIntel,59.99880002,,,,,,,,,,,,0.714,1,,,,,,,,,,,,,,,,,,,,,,,,0.011610243,-0.38921875,0,0,0,,,,,,,PEACH,HB,z,y,./images/PEACHHB.png,,,,,,,,,,,,,,,,,,,,z,1,0.714,,,,,,,,0,79,79,119,1
,,,,,,,,,,,,,,,,,60fcaf5a13b051f5c8d978f2,19,2022-02-12_13h47.49.617,lexical_decision_task_DD_L6,2021.2.3,MacIntel,59.99880002,,,,,,,,,,,,0.7575,1,,,,,,,,,,,,,,,,,,,,,,,,0.011610243,-0.38921875,0,0,0,,,,,,,SQUARE,LB,z,y,./images/SQUARELB.png,,,,,,,,,,,,,,,,,,,,z,1,0.7575,,,,,,,,0,80,80,90,1
,,,,,,,,,,,,,,,,,60fcaf5a13b051f5c8d978f2,19,2022-02-12_13h47.49.617,lexical_decision_task_DD_L6,2021.2.3,MacIntel,59.99880002,,,,,,,,,,,,0.732,1,,,,,,,,,,,,,,,,,,,,,,,,0.011610243,-0.38921875,0,0,0,,,,,,,URINE,C,z,y,./images/URINE.png,,,,,,,,,,,,,,,,,,,,z,1,0.732,,,,,,,,0,81,81,154,1
,,,,,,,,,,,,,,,,,60fcaf5a13b051f5c8d978f2,19,2022-02-12_13h47.49.617,lexical_decision_task_DD_L6,2021.2.3,MacIntel,59.99880002,,,,,,,,,,,,0.6652,1,,,,,,,,,,,,,,,,,,,,,,,,0.011610243,-0.38921875,0,0,0,,,,,,,BOILER,LB,m,y,./images/BOILERLB.png,,,,,,,,,,,,,,,,,,,,m,1,0.6652,,,,,,,,0,82,82,36,1
,,,,,,,,,,,,,,,,,60fcaf5a13b051f5c8d978f2,19,2022-02-12_13h47.49.617,lexical_decision_task_DD_L6,2021.2.3,MacIntel,59.99880002,,,,,,,,,,,,0.7543,0,,,,,,,,,,,,,,,,,,,,,,,,-0.005746528,-0.403927951,1,0,0,,,,,,,CLOTH,HB,m,y,./images/CLOTHHB.png,break_done_button,,,,,,,,,,,,,,,,,,,z,0,0.7543,,,,,,,,0,83,83,23,1
,,,,,,,,,,,,,,,,,60fcaf5a13b051f5c8d978f2,19,2022-02-12_13h47.49.617,lexical_decision_task_DD_L6,2021.2.3,MacIntel,59.99880002,,,,,,,,,,,,0.7322,0,,,,,,,,,,,,,,,,,,,,,,,,-0.005746528,-0.403927951,0,0,0,,,,,,,SLOPE,LB,m,y,./images/SLOPELB.png,,,,,,,,,,,,,,,,,,,,z,0,0.7322,,,,,,,,0,84,84,30,1
,,,,,,,,,,,,,,,,,60fcaf5a13b051f5c8d978f2,19,2022-02-12_13h47.49.617,lexical_decision_task_DD_L6,2021.2.3,MacIntel,59.99880002,,,,,,,,,,,,0.4974,1,,,,,,,,,,,,,,,,,,,,,,,,-0.005746528,-0.403927951,0,0,0,,,,,,,PENCE,C,z,y,./images/PENCE.png,,,,,,,,,,,,,,,,,,,,z,1,0.4974,,,,,,,,0,85,85,100,1
,,,,,,,,,,,,,,,,,60fcaf5a13b051f5c8d978f2,19,2022-02-12_13h47.49.617,lexical_decision_task_DD_L6,2021.2.3,MacIntel,59.99880002,,,,,,,,,,,,0.6159,0,,,,,,,,,,,,,,,,,,,,,,,,-0.005746528,-0.403927951,0,0,0,,,,,,,FARMER,HB,z,y,./images/FARMERHB.png,,,,,,,,,,,,,,,,,,,,m,0,0.6159,,,,,,,,0,86,86,149,1
,,,,,,,,,,,,,,,,,60fcaf5a13b051f5c8d978f2,19,2022-02-12_13h47.49.617,lexical_decision_task_DD_L6,2021.2.3,MacIntel,59.99880002,,,,,,,,,,,,0.9148,1,,,,,,,,,,,,,,,,,,,,,,,,-0.005746528,-0.403927951,0,0,0,,,,,,,LLAMA,HB,m,y,./images/LLAMAHB.png,,,,,,,,,,,,,,,,,,,,m,1,0.9148,,,,,,,,0,87,87,35,1
,,,,,,,,,,,,,,,,,60fcaf5a13b051f5c8d978f2,19,2022-02-12_13h47.49.617,lexical_decision_task_DD_L6,2021.2.3,MacIntel,59.99880002,,,,,,,,,,,,0.8007,1,,,,,,,,,,,,,,,,,,,,,,,,-0.005746528,-0.403927951,0,0,0,,,,,,,GRAIN,LB,z,y,./images/GRAINLB.png,,,,,,,,,,,,,,,,,,,,z,1,0.8007,,,,,,,,0,88,88,159,1
,,,,,,,,,,,,,,,,,60fcaf5a13b051f5c8d978f2,19,2022-02-12_13h47.49.617,lexical_decision_task_DD_L6,2021.2.3,MacIntel,59.99880002,,,,,,,,,,,,0.697,1,,,,,,,,,,,,,,,,,,,,,,,,-0.005746528,-0.403927951,0,0,0,,,,,,,PARADE,HB,m,y,./images/PARADEHB.png,,,,,,,,,,,,,,,,,,,,m,1,0.697,,,,,,,,0,89,89,17,1
,,,,,,,,,,,,,,,,,60fcaf5a13b051f5c8d978f2,19,2022-02-12_13h47.49.617,lexical_decision_task_DD_L6,2021.2.3,MacIntel,59.99880002,,,,,,,,,,,,1.1746,1,,,,,,,,,,,,,,,,,,,,,,,,-0.005746528,-0.403927951,0,0,0,,,,,,,LAGOON,HB,m,y,./images/LAGOONHB.png,,,,,,,,,,,,,,,,,,,,m,1,1.1746,,,,,,,,0,90,90,47,1
,,,,,,,,,,,,,,,,,60fcaf5a13b051f5c8d978f2,19,2022-02-12_13h47.49.617,lexical_decision_task_DD_L6,2021.2.3,MacIntel,59.99880002,,,,,,,,,,,,0.7969,1,,,,,,,,,,,,,,,,,,,,,,,,-0.005746528,-0.403927951,0,0,0,,,,,,,BANANA,C,m,y,./images/BANANA.png,,,,,,,,,,,,,,,,,,,,m,1,0.7969,,,,,,,,0,91,91,70,1
,,,,,,,,,,,,,,,,,60fcaf5a13b051f5c8d978f2,19,2022-02-12_13h47.49.617,lexical_decision_task_DD_L6,2021.2.3,MacIntel,59.99880002,,,,,,,,,,,,0.8699,1,,,,,,,,,,,,,,,,,,,,,,,,-0.005746528,-0.403927951,0,0,0,,,,,,,LIZARD,HB,z,y,./images/LIZARDHB.png,,,,,,,,,,,,,,,,,,,,z,1,0.8699,,,,,,,,0,92,92,128,1
,,,,,,,,,,,,,,,,,60fcaf5a13b051f5c8d978f2,19,2022-02-12_13h47.49.617,lexical_decision_task_DD_L6,2021.2.3,MacIntel,59.99880002,,,,,,,,,,,,0.6804,1,,,,,,,,,,,,,,,,,,,,,,,,-0.005746528,-0.403927951,0,0,0,,,,,,,WHEEL,HB,m,y,./images/WHEELHB.png,,,,,,,,,,,,,,,,,,,,m,1,0.6804,,,,,,,,0,93,93,77,1
,,,,,,,,,,,,,,,,,60fcaf5a13b051f5c8d978f2,19,2022-02-12_13h47.49.617,lexical_decision_task_DD_L6,2021.2.3,MacIntel,59.99880002,,,,,,,,,,,,1.0461,1,,,,,,,,,,,,,,,,,,,,,,,,-0.005746528,-0.403927951,0,0,0,,,,,,,CHERRY,LB,m,y,./images/CHERRYLB.png,,,,,,,,,,,,,,,,,,,,m,1,1.0461,,,,,,,,0,94,94,54,1
,,,,,,,,,,,,,,,,,60fcaf5a13b051f5c8d978f2,19,2022-02-12_13h47.49.617,lexical_decision_task_DD_L6,2021.2.3,MacIntel,59.99880002,,,,,,,,,,,,0.7691,1,,,,,,,,,,,,,,,,,,,,,,,,-0.005746528,-0.403927951,0,0,0,,,,,,,BONNET,HB,z,y,./images/BONNETHB.png,,,,,,,,,,,,,,,,,,,,z,1,0.7691,,,,,,,,0,95,95,95,1
,,,,,,,,,,,,,,,,,60fcaf5a13b051f5c8d978f2,19,2022-02-12_13h47.49.617,lexical_decision_task_DD_L6,2021.2.3,MacIntel,59.99880002,,,,,,,,,,,,0.774,1,,,,,,,,,,,,,,,,,,,,,,,,-0.005746528,-0.403927951,0,0,0,,,,,,,SHELF,LB,z,y,./images/SHELFLB.png,,,,,,,,,,,,,,,,,,,,z,1,0.774,,,,,,,,0,96,96,123,1
,,,,,,,,,,,,,,,,,60fcaf5a13b051f5c8d978f2,19,2022-02-12_13h47.49.617,lexical_decision_task_DD_L6,2021.2.3,MacIntel,59.99880002,,,,,,,,,,,,0.8853,1,,,,,,,,,,,,,,,,,,,,,,,,-0.005746528,-0.403927951,0,0,0,,,,,,,FINGER,LB,z,y,./images/FINGERLB.png,,,,,,,,,,,,,,,,,,,,z,1,0.8853,,,,,,,,0,97,97,87,1
,,,,,,,,,,,,,,,,,60fcaf5a13b051f5c8d978f2,19,2022-02-12_13h47.49.617,lexical_decision_task_DD_L6,2021.2.3,MacIntel,59.99880002,,,,,,,,,,,,0.7068,0,,,,,,,,,,,,,,,,,,,,,,,,-0.005746528,-0.403927951,0,0,0,,,,,,,SNACK,C,z,y,./images/SNACK.png,,,,,,,,,,,,,,,,,,,,m,0,0.7068,,,,,,,,0,98,98,157,1
,,,,,,,,,,,,,,,,,60fcaf5a13b051f5c8d978f2,19,2022-02-12_13h47.49.617,lexical_decision_task_DD_L6,2021.2.3,MacIntel,59.99880002,,,,,,,,,,,,0.9138,1,,,,,,,,,,,,,,,,,,,,,,,,-0.005746528,-0.403927951,0,0,0,,,,,,,SAUCE,LB,m,y,./images/SAUCELB.png,,,,,,,,,,,,,,,,,,,,m,1,0.9138,,,,,,,,0,99,99,51,1
,,,,,,,,,,,,,,,,,60fcaf5a13b051f5c8d978f2,19,2022-02-12_13h47.49.617,lexical_decision_task_DD_L6,2021.2.3,MacIntel,59.99880002,,,,,,,,,,,,0.6123,1,,,,,,,,,,,,,,,,,,,,,,,,-0.005746528,-0.403927951,0,0,0,,,,,,,THROAT,LB,z,y,./images/THROATLB.png,,,,,,,,,,,,,,,,,,,,z,1,0.6123,,,,,,,,0,100,100,120,1
,,,,,,,,,,,,,,,,,60fcaf5a13b051f5c8d978f2,19,2022-02-12_13h47.49.617,lexical_decision_task_DD_L6,2021.2.3,MacIntel,59.99880002,,,,,,,,,,,,0.782,1,,,,,,,,,,,,,,,,,,,,,,,,-0.005746528,-0.403927951,0,0,0,,,,,,,GRANNY,HB,m,y,./images/GRANNYHB.png,,,,,,,,,,,,,,,,,,,,m,1,0.782,,,,,,,,0,101,101,20,1
,,,,,,,,,,,,,,,,,60fcaf5a13b051f5c8d978f2,19,2022-02-12_13h47.49.617,lexical_decision_task_DD_L6,2021.2.3,MacIntel,59.99880002,,,,,,,,,,,,0.8004,1,,,,,,,,,,,,,,,,,,,,,,,,-0.005746528,-0.403927951,0,0,0,,,,,,,CRUST,C,z,y,./images/CRUST.png,,,,,,,,,,,,,,,,,,,,z,1,0.8004,,,,,,,,0,102,102,163,1
,,,,,,,,,,,,,,,,,60fcaf5a13b051f5c8d978f2,19,2022-02-12_13h47.49.617,lexical_decision_task_DD_L6,2021.2.3,MacIntel,59.99880002,,,,,,,,,,,,0.6808,1,,,,,,,,,,,,,,,,,,,,,,,,-0.005746528,-0.403927951,0,0,0,,,,,,,GREASE,LB,z,y,./images/GREASELB.png,,,,,,,,,,,,,,,,,,,,z,1,0.6808,,,,,,,,0,103,103,99,1
,,,,,,,,,,,,,,,,,60fcaf5a13b051f5c8d978f2,19,2022-02-12_13h47.49.617,lexical_decision_task_DD_L6,2021.2.3,MacIntel,59.99880002,,,,,,,,,,,,0.7335,1,,,,,,,,,,,,,,,,,,,,,,,,-0.005746528,-0.403927951,0,0,0,,,,,,,ARTIST,C,m,y,./images/ARTIST.png,,,,,,,,,,,,,,,,,,,,m,1,0.7335,,,,,,,,0,104,104,61,1
,,,,,,,,,,,,,,,,,60fcaf5a13b051f5c8d978f2,19,2022-02-12_13h47.49.617,lexical_decision_task_DD_L6,2021.2.3,MacIntel,59.99880002,,,,,,,,,,,,1.2658,0,,,,,,,,,,,,,,,,,,,,,,,,-0.005746528,-0.403927951,0,0,0,,,,,,,MOOSE,LB,z,y,./images/MOOSELB.png,,,,,,,,,,,,,,,,,,,,m,0,1.2658,,,,,,,,0,105,105,141,1
,,,,,,,,,,,,,,,,,60fcaf5a13b051f5c8d978f2,19,2022-02-12_13h47.49.617,lexical_decision_task_DD_L6,2021.2.3,MacIntel,59.99880002,,,,,,,,,,,,0.6223,1,,,,,,,,,,,,,,,,,,,,,,,,-0.005746528,-0.403927951,0,0,0,,,,,,,CEMENT,HB,z,y,./images/CEMENTHB.png,,,,,,,,,,,,,,,,,,,,z,1,0.6223,,,,,,,,0,106,106,158,1
,,,,,,,,,,,,,,,,,60fcaf5a13b051f5c8d978f2,19,2022-02-12_13h47.49.617,lexical_decision_task_DD_L6,2021.2.3,MacIntel,59.99880002,,,,,,,,,,,,0.6494,1,,,,,,,,,,,,,,,,,,,,,,,,-0.005746528,-0.403927951,0,0,0,,,,,,,ARROW,LB,m,y,./images/ARROWLB.png,,,,,,,,,,,,,,,,,,,,m,1,0.6494,,,,,,,,0,107,107,69,1
,,,,,,,,,,,,,,,,,60fcaf5a13b051f5c8d978f2,19,2022-02-12_13h47.49.617,lexical_decision_task_DD_L6,2021.2.3,MacIntel,59.99880002,,,,,,,,,,,,0.6989,1,,,,,,,,,,,,,,,,,,,,,,,,-0.005746528,-0.403927951,0,0,0,,,,,,,ENGINE,HB,m,y,./images/ENGINEHB.png,,,,,,,,,,,,,,,,,,,,m,1,0.6989,,,,,,,,0,108,108,38,1
,,,,,,,,,,,,,,,,,60fcaf5a13b051f5c8d978f2,19,2022-02-12_13h47.49.617,lexical_decision_task_DD_L6,2021.2.3,MacIntel,59.99880002,,,,,,,,,,,,0.9322,1,,,,,,,,,,,,,,,,,,,,,,,,-0.005746528,-0.403927951,0,0,0,,,,,,,MEDAL,HB,m,y,./images/MEDALHB.png,,,,,,,,,,,,,,,,,,,,m,1,0.9322,,,,,,,,0,109,109,11,1
,,,,,,,,,,,,,,,,,60fcaf5a13b051f5c8d978f2,19,2022-02-12_13h47.49.617,lexical_decision_task_DD_L6,2021.2.3,MacIntel,59.99880002,,,,,,,,,,,,0.8699,0,,,,,,,,,,,,,,,,,,,,,,,,-0.005746528,-0.403927951,0,0,0,,,,,,,RULER,C,m,y,./images/RULER.png,,,,,,,,,,,,,,,,,,,,z,0,0.8699,,,,,,,,0,110,110,79,1
,,,,,,,,,,,,,,,,,60fcaf5a13b051f5c8d978f2,19,2022-02-12_13h47.49.617,lexical_decision_task_DD_L6,2021.2.3,MacIntel,59.99880002,,,,,,,,,,,,0.7166,1,,,,,,,,,,,,,,,,,,,,,,,,-0.005746528,-0.403927951,0,0,0,,,,,,,GLOVE,C,m,y,./images/GLOVE.png,,,,,,,,,,,,,,,,,,,,m,1,0.7166,,,,,,,,0,111,111,73,1
,,,,,,,,,,,,,,,,,60fcaf5a13b051f5c8d978f2,19,2022-02-12_13h47.49.617,lexical_decision_task_DD_L6,2021.2.3,MacIntel,59.99880002,,,,,,,,,,,,0.7506,1,,,,,,,,,,,,,,,,,,,,,,,,-0.005746528,-0.403927951,0,0,0,,,,,,,WEASEL,HB,z,y,./images/WEASELHB.png,,,,,,,,,,,,,,,,,,,,z,1,0.7506,,,,,,,,0,112,112,164,1
,,,,,,,,,,,,,,,,,60fcaf5a13b051f5c8d978f2,19,2022-02-12_13h47.49.617,lexical_decision_task_DD_L6,2021.2.3,MacIntel,59.99880002,,,,,,,,,,,,0.5805,1,,,,,,,,,,,,,,,,,,,,,,,,-0.005746528,-0.403927951,0,0,0,,,,,,,ONION,LB,z,y,./images/ONIONLB.png,,,,,,,,,,,,,,,,,,,,z,1,0.5805,,,,,,,,0,113,113,135,1
,,,,,,,,,,,,,,,,,60fcaf5a13b051f5c8d978f2,19,2022-02-12_13h47.49.617,lexical_decision_task_DD_L6,2021.2.3,MacIntel,59.99880002,,,,,,,,,,,,0.7722,1,,,,,,,,,,,,,,,,,,,,,,,,-0.005746528,-0.403927951,0,0,0,,,,,,,COLLAR,LB,m,y,./images/COLLARLB.png,,,,,,,,,,,,,,,,,,,,m,1,0.7722,,,,,,,,0,114,114,15,1
,,,,,,,,,,,,,,,,,60fcaf5a13b051f5c8d978f2,19,2022-02-12_13h47.49.617,lexical_decision_task_DD_L6,2021.2.3,MacIntel,59.99880002,,,,,,,,,,,,0.6362,1,,,,,,,,,,,,,,,,,,,,,,,,-0.005746528,-0.403927951,0,0,0,,,,,,,NOOSE,LB,z,y,./images/NOOSELB.png,,,,,,,,,,,,,,,,,,,,z,1,0.6362,,,,,,,,0,115,115,156,1
,,,,,,,,,,,,,,,,,60fcaf5a13b051f5c8d978f2,19,2022-02-12_13h47.49.617,lexical_decision_task_DD_L6,2021.2.3,MacIntel,59.99880002,,,,,,,,,,,,0.6079,1,,,,,,,,,,,,,,,,,,,,,,,,-0.005746528,-0.403927951,0,0,0,,,,,,,POKER,C,m,y,./images/POKER.png,,,,,,,,,,,,,,,,,,,,m,1,0.6079,,,,,,,,0,116,116,67,1
,,,,,,,,,,,,,,,,,60fcaf5a13b051f5c8d978f2,19,2022-02-12_13h47.49.617,lexical_decision_task_DD_L6,2021.2.3,MacIntel,59.99880002,,,,,,,,,,,,0.7155,1,,,,,,,,,,,,,,,,,,,,,,,,-0.005746528,-0.403927951,0,0,0,,,,,,,CANOE,C,m,y,./images/CANOE.png,,,,,,,,,,,,,,,,,,,,m,1,0.7155,,,,,,,,0,117,117,58,1
,,,,,,,,,,,,,,,,,60fcaf5a13b051f5c8d978f2,19,2022-02-12_13h47.49.617,lexical_decision_task_DD_L6,2021.2.3,MacIntel,59.99880002,,,,,,,,,,,,0.6458,1,,,,,,,,,,,,,,,,,,,,,,,,-0.005746528,-0.403927951,0,0,0,,,,,,,MIRROR,LB,z,y,./images/MIRRORLB.png,,,,,,,,,,,,,,,,,,,,z,1,0.6458,,,,,,,,0,118,118,147,1
,,,,,,,,,,,,,,,,,60fcaf5a13b051f5c8d978f2,19,2022-02-12_13h47.49.617,lexical_decision_task_DD_L6,2021.2.3,MacIntel,59.99880002,,,,,,,,,,,,0.6877,1,,,,,,,,,,,,,,,,,,,,,,,,-0.005746528,-0.403927951,0,0,0,,,,,,,JELLY,C,z,y,./images/JELLY.png,,,,,,,,,,,,,,,,,,,,z,1,0.6877,,,,,,,,0,119,119,148,1
,,,,,,,,,,,,,,,,,60fcaf5a13b051f5c8d978f2,19,2022-02-12_13h47.49.617,lexical_decision_task_DD_L6,2021.2.3,MacIntel,59.99880002,,,,,,,,,,,,0.5543,1,,,,,,,,,,,,,,,,,,,,,,,,-0.005746528,-0.403927951,0,0,0,,,,,,,SUNSET,C,z,y,./images/SUNSET.png,,,,,,,,,,,,,,,,,,,,z,1,0.5543,,,,,,,,0,120,120,166,1
,,,,,,,,,,,,,,,,,60fcaf5a13b051f5c8d978f2,19,2022-02-12_13h47.49.617,lexical_decision_task_DD_L6,2021.2.3,MacIntel,59.99880002,,,,,,,,,,,,0.6322,1,,,,,,,,,,,,,,,,,,,,,,,,-0.005746528,-0.403927951,0,0,0,,,,,,,PILOT,HB,m,y,./images/PILOTHB.png,,,,,,,,,,,,,,,,,,,,m,1,0.6322,,,,,,,,0,121,121,50,1
,,,,,,,,,,,,,,,,,60fcaf5a13b051f5c8d978f2,19,2022-02-12_13h47.49.617,lexical_decision_task_DD_L6,2021.2.3,MacIntel,59.99880002,,,,,,,,,,,,0.7325,1,,,,,,,,,,,,,,,,,,,,,,,,-0.005746528,-0.403927951,0,0,0,,,,,,,PEARL,C,z,y,./images/PEARL.png,,,,,,,,,,,,,,,,,,,,z,1,0.7325,,,,,,,,0,122,122,130,1
,,,,,,,,,,,,,,,,,60fcaf5a13b051f5c8d978f2,19,2022-02-12_13h47.49.617,lexical_decision_task_DD_L6,2021.2.3,MacIntel,59.99880002,,,,,,,,,,,,0.7387,1,,,,,,,,,,,,,,,,,,,,,,,,-0.005746528,-0.403927951,0,0,0,,,,,,,SAILOR,C,z,y,./images/SAILOR.png,,,,,,,,,,,,,,,,,,,,z,1,0.7387,,,,,,,,0,123,123,151,1
,,,,,,,,,,,,,,,,,60fcaf5a13b051f5c8d978f2,19,2022-02-12_13h47.49.617,lexical_decision_task_DD_L6,2021.2.3,MacIntel,59.99880002,,,,,,,,,,,,0.6366,1,,,,,,,,,,,,,,,,,,,,,,,,-0.005746528,-0.403927951,0,0,0,,,,,,,SKIING,HB,z,y,./images/SKIINGHB.png,,,,,,,,,,,,,,,,,,,,z,1,0.6366,,,,,,,,0,124,124,101,1
,,,,,,,,,,,,,,,,,60fcaf5a13b051f5c8d978f2,19,2022-02-12_13h47.49.617,lexical_decision_task_DD_L6,2021.2.3,MacIntel,59.99880002,,,,,,,,,,,,0.673,1,,,,,,,,,,,,,,,,,,,,,,,,-0.060772569,-0.394396701,1,0,0,,,,,,,BRIDE,C,m,y,./images/BRIDE.png,break_done_button,,,,,,,,,,,,,,,,,,,m,1,0.673,,,,,,,,0,125,125,64,1
,,,,,,,,,,,,,,,,,60fcaf5a13b051f5c8d978f2,19,2022-02-12_13h47.49.617,lexical_decision_task_DD_L6,2021.2.3,MacIntel,59.99880002,,,,,,,,,,,,0.705,1,,,,,,,,,,,,,,,,,,,,,,,,-0.060772569,-0.394396701,0,0,0,,,,,,,CRATER,LB,m,y,./images/CRATERLB.png,,,,,,,,,,,,,,,,,,,,m,1,0.705,,,,,,,,0,126,126,3,1
,,,,,,,,,,,,,,,,,60fcaf5a13b051f5c8d978f2,19,2022-02-12_13h47.49.617,lexical_decision_task_DD_L6,2021.2.3,MacIntel,59.99880002,,,,,,,,,,,,0.6831,1,,,,,,,,,,,,,,,,,,,,,,,,-0.060772569,-0.394396701,0,0,0,,,,,,,CARPET,HB,z,y,./images/CARPETHB.png,,,,,,,,,,,,,,,,,,,,z,1,0.6831,,,,,,,,0,127,127,137,1
,,,,,,,,,,,,,,,,,60fcaf5a13b051f5c8d978f2,19,2022-02-12_13h47.49.617,lexical_decision_task_DD_L6,2021.2.3,MacIntel,59.99880002,,,,,,,,,,,,0.7988,0,,,,,,,,,,,,,,,,,,,,,,,,-0.060772569,-0.394396701,0,0,0,,,,,,,KITTEN,LB,z,y,./images/KITTENLB.png,,,,,,,,,,,,,,,,,,,,m,0,0.7988,,,,,,,,0,128,128,129,1
