key_resp.keys,instr_done_touch.x,instr_done_touch.y,instr_done_touch.leftButton,instr_done_touch.midButton,instr_done_touch.rightButton,instr_done_touch.clicked_name,instruction_pages.thisRepN,instruction_pages.thisTrialN,instruction_pages.thisN,instruction_pages.thisIndex,instruction_pages.ran,pageN,phase,instruct_text,has_image,instruct_image,participant,age,date,expName,psychopyVersion,OS,frameRate,response.keys,response.corr,touch_resp.x,touch_resp.y,touch_resp.leftButton,touch_resp.midButton,touch_resp.rightButton,touch_resp.time,touch_resp.clicked_name,rt,corr,practrials.thisRepN,practrials.thisTrialN,practrials.thisN,practrials.thisIndex,practrials.ran,TrialID,Target,corrAns,end_of_practice_trials_pages.thisRepN,end_of_practice_trials_pages.thisTrialN,end_of_practice_trials_pages.thisN,end_of_practice_trials_pages.thisIndex,end_of_practice_trials_pages.ran,key_resp_2.keys,key_resp_2.corr,targ_click.x,targ_click.y,targ_click.leftButton,targ_click.midButton,targ_click.rightButton,targ_click.time,targ_click.clicked_name,break_done_touch.x,break_done_touch.y,break_done_touch.leftButton,break_done_touch.midButton,break_done_touch.rightButton,break_done_keyboard.keys,maintrials.thisRepN,maintrials.thisTrialN,maintrials.thisN,maintrials.thisIndex,maintrials.ran,string,blur,study,lex,stim_path,break_done_touch.clicked_name,mouse_2.x,mouse_2.y,mouse_2.leftButton,mouse_2.midButton,mouse_2.rightButton,mouse_2.clicked_name,slider.response,slider.rt,trials.thisRepN,trials.thisTrialN,trials.thisN,trials.thisIndex,trials.ran,test_instructions.thisRepN,test_instructions.thisTrialN,test_instructions.thisN,test_instructions.thisIndex,test_instructions.ran,key_resp_3.keys,key_resp_3.corr,test_click.x,test_click.y,test_click.leftButton,test_click.midButton,test_click.rightButton,test_click.time,test_click.clicked_name,test_phase.thisRepN,test_phase.thisTrialN,test_phase.thisN,test_phase.thisIndex,test_phase.ran
,0.080612245,-0.392857143,1,0,0,instr_done_button,0,0,0,0,1,1,instructions,"INSTRUCTIONS
At the start of each trial, look at the plus sign  (+) in the center of the screen.  This tells you that a trial is about to begin and where to look. Second, the plus sign will disappear and a string of letters will appear. Your task is to determine if the string of letters is a word or not. If the item is a word press the M key (on keyboard)  or touch the word button (phone/tablet).  If the item is not a word,  press the  Z key (on keyboard)  or touch the nonword button (on phone/tablet). 
Press the space bar or touch  continue.",0,,61000a532ea4226e8548eb48,31,2022-02-12_17h43.02.987,lexical_decision_task_DD_L6,2021.2.3,iPhone,58.82352941,,,,,,,,,,,,,,,,,,,,,,,,,,,,,,,,,,,,,,,,,,,,,,,,,,,,,,,,,,,,,,,,,,,,,,,,,,,,,,,,,,
,0.070408163,-0.381632653,1,0,0,instr_done_button,0,1,1,1,1,2,instructions,"If your device has a keyboard, press the 'Z' key for nonwords and the 'M' key for words.





Press the space bar or touch the button below to continue.",0,keyboard-example.gif,61000a532ea4226e8548eb48,31,2022-02-12_17h43.02.987,lexical_decision_task_DD_L6,2021.2.3,iPhone,58.82352941,,,,,,,,,,,,,,,,,,,,,,,,,,,,,,,,,,,,,,,,,,,,,,,,,,,,,,,,,,,,,,,,,,,,,,,,,,,,,,,,,,
,0.1,-0.404081633,1,0,0,instr_done_button,0,2,2,2,1,3,instructions,"If you are using a touchscreen only device, use the buttons on the screen. Do not use the mouse.





Press the space bar or touch the button below to continue.",0,touchscreen-example.gif,61000a532ea4226e8548eb48,31,2022-02-12_17h43.02.987,lexical_decision_task_DD_L6,2021.2.3,iPhone,58.82352941,,,,,,,,,,,,,,,,,,,,,,,,,,,,,,,,,,,,,,,,,,,,,,,,,,,,,,,,,,,,,,,,,,,,,,,,,,,,,,,,,,
,0.123469388,-0.391836735,1,0,0,instr_done_button,0,3,3,3,1,4,instructions,"It is very important that you respond as quickly and accurately as possible, as each letter string will only be on the screen for two seconds. If you do not respond within this time, the message 'Too slow!' will be displayed and the experiment will progress to the next letter string. The first 20 trials will be practice trials and you will receive feedback on your answers. 

Press the space bar or touch the button below to start the practice trials.",0,,61000a532ea4226e8548eb48,31,2022-02-12_17h43.02.987,lexical_decision_task_DD_L6,2021.2.3,iPhone,58.82352941,,,,,,,,,,,,,,,,,,,,,,,,,,,,,,,,,,,,,,,,,,,,,,,,,,,,,,,,,,,,,,,,,,,,,,,,,,,,,,,,,,
,,,,,,,,,,,,,,,,,61000a532ea4226e8548eb48,31,2022-02-12_17h43.02.987,lexical_decision_task_DD_L6,2021.2.3,iPhone,58.82352941,,0,0.410204082,-0.333673469,1,0,0,1.442,button_right,1.442,1,0,0,0,5,1,1001,OBTAIN,m,,,,,,,,,,,,,,,,,,,,,,,,,,,,,,,,,,,,,,,,,,,,,,,,,,,,,,,,,,,,,,,
,,,,,,,,,,,,,,,,,61000a532ea4226e8548eb48,31,2022-02-12_17h43.02.987,lexical_decision_task_DD_L6,2021.2.3,iPhone,58.82352941,,0,0.407142857,-0.315306122,1,0,0,1.226,button_right,1.226,1,0,1,1,6,1,1001,ZOMBIE,m,,,,,,,,,,,,,,,,,,,,,,,,,,,,,,,,,,,,,,,,,,,,,,,,,,,,,,,,,,,,,,,
,,,,,,,,,,,,,,,,,61000a532ea4226e8548eb48,31,2022-02-12_17h43.02.987,lexical_decision_task_DD_L6,2021.2.3,iPhone,58.82352941,,0,-0.33877551,-0.280612245,1,0,0,1.494,button_left,1.494,1,0,2,2,11,1,1001,RASHET,z,,,,,,,,,,,,,,,,,,,,,,,,,,,,,,,,,,,,,,,,,,,,,,,,,,,,,,,,,,,,,,,
,,,,,,,,,,,,,,,,,61000a532ea4226e8548eb48,31,2022-02-12_17h43.02.987,lexical_decision_task_DD_L6,2021.2.3,iPhone,58.82352941,,0,0.407142857,-0.292857143,1,0,0,1.36,button_right,1.36,1,0,3,3,7,1,1001,VOLUME,m,,,,,,,,,,,,,,,,,,,,,,,,,,,,,,,,,,,,,,,,,,,,,,,,,,,,,,,,,,,,,,,
,,,,,,,,,,,,,,,,,61000a532ea4226e8548eb48,31,2022-02-12_17h43.02.987,lexical_decision_task_DD_L6,2021.2.3,iPhone,58.82352941,,0,0.387755102,-0.244897959,1,0,0,1.111,button_right,1.111,1,0,4,4,4,1,1001,SQUEAK,m,,,,,,,,,,,,,,,,,,,,,,,,,,,,,,,,,,,,,,,,,,,,,,,,,,,,,,,,,,,,,,,
,,,,,,,,,,,,,,,,,61000a532ea4226e8548eb48,31,2022-02-12_17h43.02.987,lexical_decision_task_DD_L6,2021.2.3,iPhone,58.82352941,,0,0.387755102,-0.285714286,1,0,0,1.044,button_right,1.044,1,0,5,5,3,1,1001,MATRIX,m,,,,,,,,,,,,,,,,,,,,,,,,,,,,,,,,,,,,,,,,,,,,,,,,,,,,,,,,,,,,,,,
,,,,,,,,,,,,,,,,,61000a532ea4226e8548eb48,31,2022-02-12_17h43.02.987,lexical_decision_task_DD_L6,2021.2.3,iPhone,58.82352941,,0,0.443877551,-0.330612245,1,0,0,1.478,button_right,1.478,1,0,6,6,0,1,1001,UTOPIA,m,,,,,,,,,,,,,,,,,,,,,,,,,,,,,,,,,,,,,,,,,,,,,,,,,,,,,,,,,,,,,,,
,,,,,,,,,,,,,,,,,61000a532ea4226e8548eb48,31,2022-02-12_17h43.02.987,lexical_decision_task_DD_L6,2021.2.3,iPhone,58.82352941,,0,0.396938776,-0.318367347,1,0,0,0.979,button_right,0.979,1,0,7,7,2,1,1001,ALMOND,m,,,,,,,,,,,,,,,,,,,,,,,,,,,,,,,,,,,,,,,,,,,,,,,,,,,,,,,,,,,,,,,
,,,,,,,,,,,,,,,,,61000a532ea4226e8548eb48,31,2022-02-12_17h43.02.987,lexical_decision_task_DD_L6,2021.2.3,iPhone,58.82352941,,0,-0.31122449,-0.336734694,1,0,0,1.127,button_left,1.127,1,0,8,8,13,1,1001,ROUPET,z,,,,,,,,,,,,,,,,,,,,,,,,,,,,,,,,,,,,,,,,,,,,,,,,,,,,,,,,,,,,,,,
,,,,,,,,,,,,,,,,,61000a532ea4226e8548eb48,31,2022-02-12_17h43.02.987,lexical_decision_task_DD_L6,2021.2.3,iPhone,58.82352941,,0,0.410204082,-0.28877551,1,0,0,1.345,button_right,1.345,0,0,9,9,10,1,1001,INLADE,z,,,,,,,,,,,,,,,,,,,,,,,,,,,,,,,,,,,,,,,,,,,,,,,,,,,,,,,,,,,,,,,
,,,,,,,,,,,,,,,,,61000a532ea4226e8548eb48,31,2022-02-12_17h43.02.987,lexical_decision_task_DD_L6,2021.2.3,iPhone,58.82352941,,0,-0.314285714,-0.301020408,1,0,0,1.146,button_left,1.146,1,0,10,10,15,1,1001,WHAISE,z,,,,,,,,,,,,,,,,,,,,,,,,,,,,,,,,,,,,,,,,,,,,,,,,,,,,,,,,,,,,,,,
,,,,,,,,,,,,,,,,,61000a532ea4226e8548eb48,31,2022-02-12_17h43.02.987,lexical_decision_task_DD_L6,2021.2.3,iPhone,58.82352941,,0,0.393877551,-0.28877551,1,0,0,1.029,button_right,1.029,1,0,11,11,1,1,1001,ADJUST,m,,,,,,,,,,,,,,,,,,,,,,,,,,,,,,,,,,,,,,,,,,,,,,,,,,,,,,,,,,,,,,,
,,,,,,,,,,,,,,,,,61000a532ea4226e8548eb48,31,2022-02-12_17h43.02.987,lexical_decision_task_DD_L6,2021.2.3,iPhone,58.82352941,,0,-0.286734694,-0.362244898,1,0,0,1.913,button_left,1.913,1,0,12,12,12,1,1001,SPRINY,z,,,,,,,,,,,,,,,,,,,,,,,,,,,,,,,,,,,,,,,,,,,,,,,,,,,,,,,,,,,,,,,
,,,,,,,,,,,,,,,,,61000a532ea4226e8548eb48,31,2022-02-12_17h43.02.987,lexical_decision_task_DD_L6,2021.2.3,iPhone,58.82352941,,0,-0.253061224,-0.294897959,1,0,0,1.561,button_left,1.561,1,0,13,13,9,1,1001,FARINY,z,,,,,,,,,,,,,,,,,,,,,,,,,,,,,,,,,,,,,,,,,,,,,,,,,,,,,,,,,,,,,,,
,,,,,,,,,,,,,,,,,61000a532ea4226e8548eb48,31,2022-02-12_17h43.02.987,lexical_decision_task_DD_L6,2021.2.3,iPhone,58.82352941,,0,-0.374489796,-0.293877551,1,0,0,1.312,button_left,1.312,1,0,14,14,14,1,1001,THRALE,z,,,,,,,,,,,,,,,,,,,,,,,,,,,,,,,,,,,,,,,,,,,,,,,,,,,,,,,,,,,,,,,
,,,,,,,,,,,,,,,,,61000a532ea4226e8548eb48,31,2022-02-12_17h43.02.987,lexical_decision_task_DD_L6,2021.2.3,iPhone,58.82352941,,0,-0.351020408,-0.3,1,0,0,1.228,button_left,1.228,1,0,15,15,8,1,1001,ASLERT,z,,,,,,,,,,,,,,,,,,,,,,,,,,,,,,,,,,,,,,,,,,,,,,,,,,,,,,,,,,,,,,,
,0.062244898,-0.394897959,1,0,0,instr_done_button,,,,,,1,end_of_practice,"You have completed the practice trials. During the experimental trials, you will not receive feedback. 
Before you begin, please ensure that you are in a comfortable and quiet location and will not be disturbed for about 15 minutes, as we cannot use your data if you do not complete all the trials. 
 When you are ready to start the experimental trials, please press space or touch the button below.",,,61000a532ea4226e8548eb48,31,2022-02-12_17h43.02.987,lexical_decision_task_DD_L6,2021.2.3,iPhone,58.82352941,,,,,,,,,,,,,,,,,,,,0,0,0,0,1,,,,,,,,,,,,,,,,,,,,,,,,,,,,,,,,,,,,,,,,,,,,,,,,,,,,,,,,,,
,,,,,,,,,,,,,,,,,61000a532ea4226e8548eb48,31,2022-02-12_17h43.02.987,lexical_decision_task_DD_L6,2021.2.3,iPhone,58.82352941,,,,,,,,,,1.19,1,,,,,,,,,,,,,,,0,-0.355102041,-0.335714286,1,0,0,1.19,button_left_main,-0.355102041,-0.335714286,1,0,0,,0,0,0,138,1,PLICE,C,z,z,./images/PLICE.png,,,,,,,,,,,,,,,,,,,,,,,,,,,,,,,,,
,,,,,,,,,,,,,,,,,61000a532ea4226e8548eb48,31,2022-02-12_17h43.02.987,lexical_decision_task_DD_L6,2021.2.3,iPhone,58.82352941,,,,,,,,,,2.212,1,,,,,,,,,,,,,,,0,-0.331632653,-0.336734694,1,0,0,2.212,button_left_main,-0.331632653,-0.336734694,1,0,0,,0,1,1,136,1,WERVE,HB,z,z,./images/WERVEHB.png,,,,,,,,,,,,,,,,,,,,,,,,,,,,,,,,,
,,,,,,,,,,,,,,,,,61000a532ea4226e8548eb48,31,2022-02-12_17h43.02.987,lexical_decision_task_DD_L6,2021.2.3,iPhone,58.82352941,,,,,,,,,,1.208,1,,,,,,,,,,,,,,,0,-0.258163265,-0.369387755,1,0,0,1.208,button_left_main,-0.258163265,-0.369387755,1,0,0,,0,2,2,113,1,LINEW,LB,z,z,./images/LINEWLB.png,,,,,,,,,,,,,,,,,,,,,,,,,,,,,,,,,
,,,,,,,,,,,,,,,,,61000a532ea4226e8548eb48,31,2022-02-12_17h43.02.987,lexical_decision_task_DD_L6,2021.2.3,iPhone,58.82352941,,,,,,,,,,1.096,1,,,,,,,,,,,,,,,0,-0.292857143,-0.334693878,1,0,0,1.096,button_left_main,-0.292857143,-0.334693878,1,0,0,,0,3,3,147,1,ZOLES,C,z,z,./images/ZOLES.png,,,,,,,,,,,,,,,,,,,,,,,,,,,,,,,,,
,,,,,,,,,,,,,,,,,61000a532ea4226e8548eb48,31,2022-02-12_17h43.02.987,lexical_decision_task_DD_L6,2021.2.3,iPhone,58.82352941,,,,,,,,,,1.028,1,,,,,,,,,,,,,,,0,0.335714286,-0.303061224,1,0,0,1.028,button_right_main,0.335714286,-0.303061224,1,0,0,,0,4,4,70,1,BANANA,C,m,m,./images/BANANA.png,,,,,,,,,,,,,,,,,,,,,,,,,,,,,,,,,
,,,,,,,,,,,,,,,,,61000a532ea4226e8548eb48,31,2022-02-12_17h43.02.987,lexical_decision_task_DD_L6,2021.2.3,iPhone,58.82352941,,,,,,,,,,1.029,1,,,,,,,,,,,,,,,0,-0.331632653,-0.295918367,1,0,0,1.029,button_left_main,-0.331632653,-0.295918367,1,0,0,,0,5,5,108,1,GRUET,C,z,z,./images/GRUET.png,,,,,,,,,,,,,,,,,,,,,,,,,,,,,,,,,
,,,,,,,,,,,,,,,,,61000a532ea4226e8548eb48,31,2022-02-12_17h43.02.987,lexical_decision_task_DD_L6,2021.2.3,iPhone,58.82352941,,,,,,,,,,1.194,1,,,,,,,,,,,,,,,0,0.385714286,-0.312244898,1,0,0,1.194,button_right_main,0.385714286,-0.312244898,1,0,0,,0,6,6,52,1,DESERT,C,m,m,./images/DESERT.png,,,,,,,,,,,,,,,,,,,,,,,,,,,,,,,,,
,,,,,,,,,,,,,,,,,61000a532ea4226e8548eb48,31,2022-02-12_17h43.02.987,lexical_decision_task_DD_L6,2021.2.3,iPhone,58.82352941,,,,,,,,,,0.846,1,,,,,,,,,,,,,,,0,0.393877551,-0.313265306,1,0,0,0.846,button_right_main,0.393877551,-0.313265306,1,0,0,,0,7,7,37,1,TIGER,C,m,m,./images/TIGER.png,,,,,,,,,,,,,,,,,,,,,,,,,,,,,,,,,
,,,,,,,,,,,,,,,,,61000a532ea4226e8548eb48,31,2022-02-12_17h43.02.987,lexical_decision_task_DD_L6,2021.2.3,iPhone,58.82352941,,,,,,,,,,2.028,1,,,,,,,,,,,,,,,0,-0.269387755,-0.364285714,1,0,0,2.028,button_left_main,-0.269387755,-0.364285714,1,0,0,,0,8,8,142,1,PLASK,HB,z,z,./images/PLASKHB.png,,,,,,,,,,,,,,,,,,,,,,,,,,,,,,,,,
,,,,,,,,,,,,,,,,,61000a532ea4226e8548eb48,31,2022-02-12_17h43.02.987,lexical_decision_task_DD_L6,2021.2.3,iPhone,58.82352941,,,,,,,,,,1.329,1,,,,,,,,,,,,,,,0,0.366326531,-0.31122449,1,0,0,1.329,button_right_main,0.366326531,-0.31122449,1,0,0,,0,9,9,71,1,BUBBLE,HB,m,m,./images/BUBBLEHB.png,,,,,,,,,,,,,,,,,,,,,,,,,,,,,,,,,
,,,,,,,,,,,,,,,,,61000a532ea4226e8548eb48,31,2022-02-12_17h43.02.987,lexical_decision_task_DD_L6,2021.2.3,iPhone,58.82352941,,,,,,,,,,1.129,1,,,,,,,,,,,,,,,0,-0.21122449,-0.305102041,1,0,0,1.129,button_left_main,-0.21122449,-0.305102041,1,0,0,,0,10,10,93,1,SMONE,C,z,z,./images/SMONE.png,,,,,,,,,,,,,,,,,,,,,,,,,,,,,,,,,
,,,,,,,,,,,,,,,,,61000a532ea4226e8548eb48,31,2022-02-12_17h43.02.987,lexical_decision_task_DD_L6,2021.2.3,iPhone,58.82352941,,,,,,,,,,1.109,1,,,,,,,,,,,,,,,0,-0.291836735,-0.36122449,1,0,0,1.109,button_left_main,-0.291836735,-0.36122449,1,0,0,,0,11,11,158,1,EGECT,LB,z,z,./images/EGECTLB.png,,,,,,,,,,,,,,,,,,,,,,,,,,,,,,,,,
,,,,,,,,,,,,,,,,,61000a532ea4226e8548eb48,31,2022-02-12_17h43.02.987,lexical_decision_task_DD_L6,2021.2.3,iPhone,58.82352941,,,,,,,,,,1.041,1,,,,,,,,,,,,,,,0,0.341836735,-0.328571429,1,0,0,1.041,button_right_main,0.341836735,-0.328571429,1,0,0,,0,12,12,63,1,BAKER,LB,m,m,./images/BAKERLB.png,,,,,,,,,,,,,,,,,,,,,,,,,,,,,,,,,
,,,,,,,,,,,,,,,,,61000a532ea4226e8548eb48,31,2022-02-12_17h43.02.987,lexical_decision_task_DD_L6,2021.2.3,iPhone,58.82352941,,,,,,,,,,2.976,1,,,,,,,,,,,,,,,0,0.396938776,-0.316326531,1,0,0,2.976,button_right_main,0.396938776,-0.316326531,1,0,0,,0,13,13,41,1,STREAM,HB,m,m,./images/STREAMHB.png,,,,,,,,,,,,,,,,,,,,,,,,,,,,,,,,,
,,,,,,,,,,,,,,,,,61000a532ea4226e8548eb48,31,2022-02-12_17h43.02.987,lexical_decision_task_DD_L6,2021.2.3,iPhone,58.82352941,,,,,,,,,,2.762,1,,,,,,,,,,,,,,,0,-0.216326531,-0.334693878,1,0,0,2.762,button_left_main,-0.216326531,-0.334693878,1,0,0,,0,14,14,127,1,NINDY,HB,z,z,./images/NINDYHB.png,,,,,,,,,,,,,,,,,,,,,,,,,,,,,,,,,
,,,,,,,,,,,,,,,,,61000a532ea4226e8548eb48,31,2022-02-12_17h43.02.987,lexical_decision_task_DD_L6,2021.2.3,iPhone,58.82352941,,,,,,,,,,1.094,1,,,,,,,,,,,,,,,0,-0.289795918,-0.355102041,1,0,0,1.094,button_left_main,-0.289795918,-0.355102041,1,0,0,,0,15,15,153,1,CLUPS,C,z,z,./images/CLUPS.png,,,,,,,,,,,,,,,,,,,,,,,,,,,,,,,,,
,,,,,,,,,,,,,,,,,61000a532ea4226e8548eb48,31,2022-02-12_17h43.02.987,lexical_decision_task_DD_L6,2021.2.3,iPhone,58.82352941,,,,,,,,,,1.23,1,,,,,,,,,,,,,,,0,0.378571429,-0.226530612,1,0,0,1.23,button_right_main,0.378571429,-0.226530612,1,0,0,,0,16,16,17,1,PARADE,HB,m,m,./images/PARADEHB.png,,,,,,,,,,,,,,,,,,,,,,,,,,,,,,,,,
,,,,,,,,,,,,,,,,,61000a532ea4226e8548eb48,31,2022-02-12_17h43.02.987,lexical_decision_task_DD_L6,2021.2.3,iPhone,58.82352941,,,,,,,,,,1.979,1,,,,,,,,,,,,,,,0,-0.258163265,-0.364285714,1,0,0,1.979,button_left_main,-0.258163265,-0.364285714,1,0,0,,0,17,17,97,1,CHIDS,HB,z,z,./images/CHIDSHB.png,,,,,,,,,,,,,,,,,,,,,,,,,,,,,,,,,
,,,,,,,,,,,,,,,,,61000a532ea4226e8548eb48,31,2022-02-12_17h43.02.987,lexical_decision_task_DD_L6,2021.2.3,iPhone,58.82352941,,,,,,,,,,0.963,1,,,,,,,,,,,,,,,0,-0.258163265,-0.328571429,1,0,0,0.963,button_left_main,-0.258163265,-0.328571429,1,0,0,,0,18,18,137,1,JOOST,LB,z,z,./images/JOOSTLB.png,,,,,,,,,,,,,,,,,,,,,,,,,,,,,,,,,
,,,,,,,,,,,,,,,,,61000a532ea4226e8548eb48,31,2022-02-12_17h43.02.987,lexical_decision_task_DD_L6,2021.2.3,iPhone,58.82352941,,,,,,,,,,0.963,1,,,,,,,,,,,,,,,0,0.379591837,-0.336734694,1,0,0,0.963,button_right_main,0.379591837,-0.336734694,1,0,0,,0,19,19,76,1,MIDGET,C,m,m,./images/MIDGET.png,,,,,,,,,,,,,,,,,,,,,,,,,,,,,,,,,
,,,,,,,,,,,,,,,,,61000a532ea4226e8548eb48,31,2022-02-12_17h43.02.987,lexical_decision_task_DD_L6,2021.2.3,iPhone,58.82352941,,,,,,,,,,1.446,1,,,,,,,,,,,,,,,0,-0.257142857,-0.357142857,1,0,0,1.446,button_left_main,-0.257142857,-0.357142857,1,0,0,,0,20,20,150,1,NOOLS,C,z,z,./images/NOOLS.png,,,,,,,,,,,,,,,,,,,,,,,,,,,,,,,,,
,,,,,,,,,,,,,,,,,61000a532ea4226e8548eb48,31,2022-02-12_17h43.02.987,lexical_decision_task_DD_L6,2021.2.3,iPhone,58.82352941,,,,,,,,,,1.424,1,,,,,,,,,,,,,,,0,0.370408163,-0.318367347,1,0,0,1.424,button_right_main,0.370408163,-0.318367347,1,0,0,,0,21,21,38,1,ENGINE,HB,m,m,./images/ENGINEHB.png,,,,,,,,,,,,,,,,,,,,,,,,,,,,,,,,,
,,,,,,,,,,,,,,,,,61000a532ea4226e8548eb48,31,2022-02-12_17h43.02.987,lexical_decision_task_DD_L6,2021.2.3,iPhone,58.82352941,,,,,,,,,,2.078,1,,,,,,,,,,,,,,,0,-0.25,-0.407142857,1,0,0,2.078,button_left_main,-0.263265306,-0.317346939,1,0,0,,0,22,22,91,1,SHENS,HB,z,z,./images/SHENSHB.png,,,,,,,,,,,,,,,,,,,,,,,,,,,,,,,,,
,,,,,,,,,,,,,,,,,61000a532ea4226e8548eb48,31,2022-02-12_17h43.02.987,lexical_decision_task_DD_L6,2021.2.3,iPhone,58.82352941,,,,,,,,,,0.962,1,,,,,,,,,,,,,,,0,0.38877551,-0.321428571,1,0,0,0.962,button_right_main,0.38877551,-0.321428571,1,0,0,,0,23,23,25,1,CHALK,C,m,m,./images/CHALK.png,,,,,,,,,,,,,,,,,,,,,,,,,,,,,,,,,
,,,,,,,,,,,,,,,,,61000a532ea4226e8548eb48,31,2022-02-12_17h43.02.987,lexical_decision_task_DD_L6,2021.2.3,iPhone,58.82352941,,,,,,,,,,1.324,1,,,,,,,,,,,,,,,0,-0.337755102,-0.320408163,1,0,0,1.324,button_left_main,-0.337755102,-0.320408163,1,0,0,,0,24,24,124,1,TUNCH,HB,z,z,./images/TUNCHHB.png,,,,,,,,,,,,,,,,,,,,,,,,,,,,,,,,,
,,,,,,,,,,,,,,,,,61000a532ea4226e8548eb48,31,2022-02-12_17h43.02.987,lexical_decision_task_DD_L6,2021.2.3,iPhone,58.82352941,,,,,,,,,,1.09,1,,,,,,,,,,,,,,,0,0.393877551,-0.301020408,1,0,0,1.09,button_right_main,0.393877551,-0.301020408,1,0,0,,0,25,25,43,1,STOOL,C,m,m,./images/STOOL.png,,,,,,,,,,,,,,,,,,,,,,,,,,,,,,,,,
,,,,,,,,,,,,,,,,,61000a532ea4226e8548eb48,31,2022-02-12_17h43.02.987,lexical_decision_task_DD_L6,2021.2.3,iPhone,58.82352941,,,,,,,,,,1.213,1,,,,,,,,,,,,,,,0,0.395918367,-0.312244898,1,0,0,1.213,button_right_main,0.395918367,-0.312244898,1,0,0,,0,26,26,65,1,SPINE,HB,m,m,./images/SPINEHB.png,,,,,,,,,,,,,,,,,,,,,,,,,,,,,,,,,
,,,,,,,,,,,,,,,,,61000a532ea4226e8548eb48,31,2022-02-12_17h43.02.987,lexical_decision_task_DD_L6,2021.2.3,iPhone,58.82352941,,,,,,,,,,1.513,1,,,,,,,,,,,,,,,0,0.343877551,-0.295918367,1,0,0,1.513,button_right_main,0.343877551,-0.295918367,1,0,0,,0,27,27,8,1,CLIFF,HB,m,m,./images/CLIFFHB.png,,,,,,,,,,,,,,,,,,,,,,,,,,,,,,,,,
,,,,,,,,,,,,,,,,,61000a532ea4226e8548eb48,31,2022-02-12_17h43.02.987,lexical_decision_task_DD_L6,2021.2.3,iPhone,58.82352941,,,,,,,,,,0.979,1,,,,,,,,,,,,,,,0,0.324489796,-0.265306122,1,0,0,0.979,button_right_main,0.324489796,-0.265306122,1,0,0,,0,28,28,80,1,PLANET,HB,m,m,./images/PLANETHB.png,,,,,,,,,,,,,,,,,,,,,,,,,,,,,,,,,
,,,,,,,,,,,,,,,,,61000a532ea4226e8548eb48,31,2022-02-12_17h43.02.987,lexical_decision_task_DD_L6,2021.2.3,iPhone,58.82352941,,,,,,,,,,0.895,1,,,,,,,,,,,,,,,0,-0.337755102,-0.308163265,1,0,0,0.895,button_left_main,-0.337755102,-0.308163265,1,0,0,,0,29,29,131,1,NACES,LB,z,z,./images/NACESLB.png,,,,,,,,,,,,,,,,,,,,,,,,,,,,,,,,,
,,,,,,,,,,,,,,,,,61000a532ea4226e8548eb48,31,2022-02-12_17h43.02.987,lexical_decision_task_DD_L6,2021.2.3,iPhone,58.82352941,,,,,,,,,,1.412,1,,,,,,,,,,,,,,,0,0.414285714,-0.285714286,1,0,0,1.412,button_right_main,0.414285714,-0.285714286,1,0,0,,0,30,30,58,1,CANOE,C,m,m,./images/CANOE.png,,,,,,,,,,,,,,,,,,,,,,,,,,,,,,,,,
,,,,,,,,,,,,,,,,,61000a532ea4226e8548eb48,31,2022-02-12_17h43.02.987,lexical_decision_task_DD_L6,2021.2.3,iPhone,58.82352941,,,,,,,,,,0.895,1,,,,,,,,,,,,,,,0,0.384693878,-0.232653061,1,0,0,0.895,button_right_main,0.384693878,-0.232653061,1,0,0,,0,31,31,81,1,DRILL,LB,m,m,./images/DRILLLB.png,,,,,,,,,,,,,,,,,,,,,,,,,,,,,,,,,
,,,,,,,,,,,,,,,,,61000a532ea4226e8548eb48,31,2022-02-12_17h43.02.987,lexical_decision_task_DD_L6,2021.2.3,iPhone,58.82352941,,,,,,,,,,0.93,1,,,,,,,,,,,,,,,0,0.312244898,-0.324489796,1,0,0,0.93,button_right_main,0.312244898,-0.324489796,1,0,0,,0,32,32,23,1,CLOTH,HB,m,m,./images/CLOTHHB.png,,,,,,,,,,,,,,,,,,,,,,,,,,,,,,,,,
,,,,,,,,,,,,,,,,,61000a532ea4226e8548eb48,31,2022-02-12_17h43.02.987,lexical_decision_task_DD_L6,2021.2.3,iPhone,58.82352941,,,,,,,,,,1.726,0,,,,,,,,,,,,,,,0,0.364285714,-0.290816327,1,0,0,1.726,button_right_main,0.364285714,-0.290816327,1,0,0,,0,33,33,110,1,CRUNK,LB,z,z,./images/CRUNKLB.png,,,,,,,,,,,,,,,,,,,,,,,,,,,,,,,,,
,,,,,,,,,,,,,,,,,61000a532ea4226e8548eb48,31,2022-02-12_17h43.02.987,lexical_decision_task_DD_L6,2021.2.3,iPhone,58.82352941,,,,,,,,,,0.858,1,,,,,,,,,,,,,,,0,0.402040816,-0.265306122,1,0,0,0.858,button_right_main,0.402040816,-0.265306122,1,0,0,,0,34,34,21,1,DANCER,LB,m,m,./images/DANCERLB.png,,,,,,,,,,,,,,,,,,,,,,,,,,,,,,,,,
,,,,,,,,,,,,,,,,,61000a532ea4226e8548eb48,31,2022-02-12_17h43.02.987,lexical_decision_task_DD_L6,2021.2.3,iPhone,58.82352941,,,,,,,,,,0.895,1,,,,,,,,,,,,,,,0,-0.246938776,-0.301020408,1,0,0,0.895,button_left_main,-0.246938776,-0.301020408,1,0,0,,0,35,35,141,1,PLEET,C,z,z,./images/PLEET.png,,,,,,,,,,,,,,,,,,,,,,,,,,,,,,,,,
,,,,,,,,,,,,,,,,,61000a532ea4226e8548eb48,31,2022-02-12_17h43.02.987,lexical_decision_task_DD_L6,2021.2.3,iPhone,58.82352941,,,,,,,,,,1.475,1,,,,,,,,,,,,,,,0,-0.264285714,-0.343877551,1,0,0,1.475,button_left_main,-0.264285714,-0.343877551,1,0,0,,0,36,36,148,1,JOMS,HB,z,z,./images/JOMSHB.png,,,,,,,,,,,,,,,,,,,,,,,,,,,,,,,,,
,,,,,,,,,,,,,,,,,61000a532ea4226e8548eb48,31,2022-02-12_17h43.02.987,lexical_decision_task_DD_L6,2021.2.3,iPhone,58.82352941,,,,,,,,,,0.862,1,,,,,,,,,,,,,,,0,0.363265306,-0.332653061,1,0,0,0.862,button_right_main,0.363265306,-0.332653061,1,0,0,,0,37,37,7,1,WAGON,C,m,m,./images/WAGON.png,,,,,,,,,,,,,,,,,,,,,,,,,,,,,,,,,
,,,,,,,,,,,,,,,,,61000a532ea4226e8548eb48,31,2022-02-12_17h43.02.987,lexical_decision_task_DD_L6,2021.2.3,iPhone,58.82352941,,,,,,,,,,1.079,1,,,,,,,,,,,,,,,0,-0.353061224,-0.27755102,1,0,0,1.079,button_left_main,-0.353061224,-0.27755102,1,0,0,,0,38,38,98,1,BAMPS,LB,z,z,./images/BAMPSLB.png,,,,,,,,,,,,,,,,,,,,,,,,,,,,,,,,,
,,,,,,,,,,,,,,,,,61000a532ea4226e8548eb48,31,2022-02-12_17h43.02.987,lexical_decision_task_DD_L6,2021.2.3,iPhone,58.82352941,,,,,,,,,,1.043,1,,,,,,,,,,,,,,,0,-0.308163265,-0.273469388,1,0,0,1.043,button_left_main,-0.308163265,-0.273469388,1,0,0,,0,39,39,123,1,SEDGE,C,z,z,./images/SEDGE.png,,,,,,,,,,,,,,,,,,,,,,,,,,,,,,,,,
,,,,,,,,,,,,,,,,,61000a532ea4226e8548eb48,31,2022-02-12_17h43.02.987,lexical_decision_task_DD_L6,2021.2.3,iPhone,58.82352941,,,,,,,,,,0.912,1,,,,,,,,,,,,,,,0,0.373469388,-0.268367347,1,0,0,0.912,button_right_main,0.373469388,-0.268367347,1,0,0,,0,40,40,78,1,BROOM,LB,m,m,./images/BROOMLB.png,,,,,,,,,,,,,,,,,,,,,,,,,,,,,,,,,
,,,,,,,,,,,,,,,,,61000a532ea4226e8548eb48,31,2022-02-12_17h43.02.987,lexical_decision_task_DD_L6,2021.2.3,iPhone,58.82352941,,,,,,,,,,0.862,1,,,,,,,,,,,,,,,0,0.359183673,-0.316326531,1,0,0,0.862,button_right_main,0.104081633,-0.407142857,1,0,0,,0,41,41,18,1,PARCEL,LB,m,m,./images/PARCELLB.png,break_done_button,,,,,,,,,,,,,,,,,,,,,,,,,,,,,,,,
,,,,,,,,,,,,,,,,,61000a532ea4226e8548eb48,31,2022-02-12_17h43.02.987,lexical_decision_task_DD_L6,2021.2.3,iPhone,58.82352941,,,,,,,,,,0.996,1,,,,,,,,,,,,,,,0,0.36122449,-0.310204082,1,0,0,0.996,button_right_main,0.36122449,-0.310204082,1,0,0,,0,42,42,82,1,PEBBLE,C,m,m,./images/PEBBLE.png,,,,,,,,,,,,,,,,,,,,,,,,,,,,,,,,,
,,,,,,,,,,,,,,,,,61000a532ea4226e8548eb48,31,2022-02-12_17h43.02.987,lexical_decision_task_DD_L6,2021.2.3,iPhone,58.82352941,,,,,,,,,,0.829,1,,,,,,,,,,,,,,,0,0.334693878,-0.31122449,1,0,0,0.829,button_right_main,0.334693878,-0.31122449,1,0,0,,0,43,43,10,1,GARDEN,C,m,m,./images/GARDEN.png,,,,,,,,,,,,,,,,,,,,,,,,,,,,,,,,,
,,,,,,,,,,,,,,,,,61000a532ea4226e8548eb48,31,2022-02-12_17h43.02.987,lexical_decision_task_DD_L6,2021.2.3,iPhone,58.82352941,,,,,,,,,,1.663,1,,,,,,,,,,,,,,,0,0.333673469,-0.287755102,1,0,0,1.663,button_right_main,0.333673469,-0.287755102,1,0,0,,0,44,44,50,1,PILOT,HB,m,m,./images/PILOTHB.png,,,,,,,,,,,,,,,,,,,,,,,,,,,,,,,,,
,,,,,,,,,,,,,,,,,61000a532ea4226e8548eb48,31,2022-02-12_17h43.02.987,lexical_decision_task_DD_L6,2021.2.3,iPhone,58.82352941,,,,,,,,,,1.045,1,,,,,,,,,,,,,,,0,-0.341836735,-0.301020408,1,0,0,1.045,button_left_main,-0.341836735,-0.301020408,1,0,0,,0,45,45,132,1,SCIFF,C,z,z,./images/SCIFF.png,,,,,,,,,,,,,,,,,,,,,,,,,,,,,,,,,
,,,,,,,,,,,,,,,,,61000a532ea4226e8548eb48,31,2022-02-12_17h43.02.987,lexical_decision_task_DD_L6,2021.2.3,iPhone,58.82352941,,,,,,,,,,1.86,1,,,,,,,,,,,,,,,0,-0.316326531,-0.397959184,1,0,0,1.86,button_left_main,-0.316326531,-0.397959184,1,0,0,,0,46,46,85,1,CHULK,HB,z,z,./images/CHULKHB.png,,,,,,,,,,,,,,,,,,,,,,,,,,,,,,,,,
,,,,,,,,,,,,,,,,,61000a532ea4226e8548eb48,31,2022-02-12_17h43.02.987,lexical_decision_task_DD_L6,2021.2.3,iPhone,58.82352941,,,,,,,,,,0.928,1,,,,,,,,,,,,,,,0,0.353061224,-0.323469388,1,0,0,0.928,button_right_main,0.353061224,-0.323469388,1,0,0,,0,47,47,30,1,SLOPE,LB,m,m,./images/SLOPELB.png,,,,,,,,,,,,,,,,,,,,,,,,,,,,,,,,,
,,,,,,,,,,,,,,,,,61000a532ea4226e8548eb48,31,2022-02-12_17h43.02.987,lexical_decision_task_DD_L6,2021.2.3,iPhone,58.82352941,,,,,,,,,,2.845,1,,,,,,,,,,,,,,,0,0.398979592,-0.286734694,1,0,0,2.845,button_right_main,0.398979592,-0.286734694,1,0,0,,0,48,48,32,1,HOCKEY,HB,m,m,./images/HOCKEYHB.png,,,,,,,,,,,,,,,,,,,,,,,,,,,,,,,,,
,,,,,,,,,,,,,,,,,61000a532ea4226e8548eb48,31,2022-02-12_17h43.02.987,lexical_decision_task_DD_L6,2021.2.3,iPhone,58.82352941,,,,,,,,,,1.045,1,,,,,,,,,,,,,,,0,0.38877551,-0.32755102,1,0,0,1.045,button_right_main,0.38877551,-0.32755102,1,0,0,,0,49,49,24,1,FLESH,LB,m,m,./images/FLESHLB.png,,,,,,,,,,,,,,,,,,,,,,,,,,,,,,,,,
,,,,,,,,,,,,,,,,,61000a532ea4226e8548eb48,31,2022-02-12_17h43.02.987,lexical_decision_task_DD_L6,2021.2.3,iPhone,58.82352941,,,,,,,,,,0.929,1,,,,,,,,,,,,,,,0,-0.282653061,-0.28877551,1,0,0,0.929,button_left_main,-0.282653061,-0.28877551,1,0,0,,0,50,50,162,1,LEICH,C,z,z,./images/LEICH.png,,,,,,,,,,,,,,,,,,,,,,,,,,,,,,,,,
,,,,,,,,,,,,,,,,,61000a532ea4226e8548eb48,31,2022-02-12_17h43.02.987,lexical_decision_task_DD_L6,2021.2.3,iPhone,58.82352941,,,,,,,,,,0.995,1,,,,,,,,,,,,,,,0,0.4,-0.280612245,1,0,0,0.995,button_right_main,0.4,-0.280612245,1,0,0,,0,51,51,36,1,BOILER,LB,m,m,./images/BOILERLB.png,,,,,,,,,,,,,,,,,,,,,,,,,,,,,,,,,
,,,,,,,,,,,,,,,,,61000a532ea4226e8548eb48,31,2022-02-12_17h43.02.987,lexical_decision_task_DD_L6,2021.2.3,iPhone,58.82352941,,,,,,,,,,1.379,1,,,,,,,,,,,,,,,0,0.379591837,-0.314285714,1,0,0,1.379,button_right_main,0.379591837,-0.314285714,1,0,0,,0,52,52,59,1,BRUSH,HB,m,m,./images/BRUSHHB.png,,,,,,,,,,,,,,,,,,,,,,,,,,,,,,,,,
,,,,,,,,,,,,,,,,,61000a532ea4226e8548eb48,31,2022-02-12_17h43.02.987,lexical_decision_task_DD_L6,2021.2.3,iPhone,58.82352941,,,,,,,,,,1.16,1,,,,,,,,,,,,,,,0,0.310204082,-0.351020408,1,0,0,1.16,button_right_main,0.310204082,-0.351020408,1,0,0,,0,53,53,60,1,CURRY,LB,m,m,./images/CURRYLB.png,,,,,,,,,,,,,,,,,,,,,,,,,,,,,,,,,
,,,,,,,,,,,,,,,,,61000a532ea4226e8548eb48,31,2022-02-12_17h43.02.987,lexical_decision_task_DD_L6,2021.2.3,iPhone,58.82352941,,,,,,,,,,0.945,1,,,,,,,,,,,,,,,0,0.294897959,-0.312244898,1,0,0,0.945,button_right_main,0.294897959,-0.312244898,1,0,0,,0,54,54,31,1,STEAK,C,m,m,./images/STEAK.png,,,,,,,,,,,,,,,,,,,,,,,,,,,,,,,,,
,,,,,,,,,,,,,,,,,61000a532ea4226e8548eb48,31,2022-02-12_17h43.02.987,lexical_decision_task_DD_L6,2021.2.3,iPhone,58.82352941,,,,,,,,,,0.846,1,,,,,,,,,,,,,,,0,0.346938776,-0.323469388,1,0,0,0.846,button_right_main,0.346938776,-0.323469388,1,0,0,,0,55,55,19,1,DONKEY,C,m,m,./images/DONKEY.png,,,,,,,,,,,,,,,,,,,,,,,,,,,,,,,,,
,,,,,,,,,,,,,,,,,61000a532ea4226e8548eb48,31,2022-02-12_17h43.02.987,lexical_decision_task_DD_L6,2021.2.3,iPhone,58.82352941,,,,,,,,,,1.161,1,,,,,,,,,,,,,,,0,-0.312244898,-0.346938776,1,0,0,1.161,button_left_main,-0.312244898,-0.346938776,1,0,0,,0,56,56,107,1,FASKS,LB,z,z,./images/FASKSLB.png,,,,,,,,,,,,,,,,,,,,,,,,,,,,,,,,,
,,,,,,,,,,,,,,,,,61000a532ea4226e8548eb48,31,2022-02-12_17h43.02.987,lexical_decision_task_DD_L6,2021.2.3,iPhone,58.82352941,,,,,,,,,,1.013,1,,,,,,,,,,,,,,,0,-0.306122449,-0.32244898,1,0,0,1.013,button_left_main,-0.306122449,-0.32244898,1,0,0,,0,57,57,99,1,BACKY,C,z,z,./images/BACKY.png,,,,,,,,,,,,,,,,,,,,,,,,,,,,,,,,,
,,,,,,,,,,,,,,,,,61000a532ea4226e8548eb48,31,2022-02-12_17h43.02.987,lexical_decision_task_DD_L6,2021.2.3,iPhone,58.82352941,,,,,,,,,,1.129,1,,,,,,,,,,,,,,,0,-0.409183673,-0.333673469,1,0,0,1.129,button_left_main,-0.409183673,-0.333673469,1,0,0,,0,58,58,92,1,PAIMS,LB,z,z,./images/PAIMSLB.png,,,,,,,,,,,,,,,,,,,,,,,,,,,,,,,,,
,,,,,,,,,,,,,,,,,61000a532ea4226e8548eb48,31,2022-02-12_17h43.02.987,lexical_decision_task_DD_L6,2021.2.3,iPhone,58.82352941,,,,,,,,,,0.977,1,,,,,,,,,,,,,,,0,-0.243877551,-0.242857143,1,0,0,0.977,button_left_main,-0.243877551,-0.242857143,1,0,0,,0,59,59,95,1,HANTY,LB,z,z,./images/HANTYLB.png,,,,,,,,,,,,,,,,,,,,,,,,,,,,,,,,,
,,,,,,,,,,,,,,,,,61000a532ea4226e8548eb48,31,2022-02-12_17h43.02.987,lexical_decision_task_DD_L6,2021.2.3,iPhone,58.82352941,,,,,,,,,,1.097,1,,,,,,,,,,,,,,,0,0.373469388,-0.318367347,1,0,0,1.097,button_right_main,0.373469388,-0.318367347,1,0,0,,0,60,60,35,1,LLAMA,HB,m,m,./images/LLAMAHB.png,,,,,,,,,,,,,,,,,,,,,,,,,,,,,,,,,
,,,,,,,,,,,,,,,,,61000a532ea4226e8548eb48,31,2022-02-12_17h43.02.987,lexical_decision_task_DD_L6,2021.2.3,iPhone,58.82352941,,,,,,,,,,0.925,1,,,,,,,,,,,,,,,0,-0.294897959,-0.32755102,1,0,0,0.925,button_left_main,-0.294897959,-0.32755102,1,0,0,,0,61,61,102,1,DULLE,C,z,z,./images/DULLE.png,,,,,,,,,,,,,,,,,,,,,,,,,,,,,,,,,
,,,,,,,,,,,,,,,,,61000a532ea4226e8548eb48,31,2022-02-12_17h43.02.987,lexical_decision_task_DD_L6,2021.2.3,iPhone,58.82352941,,,,,,,,,,1.011,1,,,,,,,,,,,,,,,0,0.41122449,-0.265306122,1,0,0,1.011,button_right_main,0.41122449,-0.265306122,1,0,0,,0,62,62,72,1,FLASK,LB,m,m,./images/FLASKLB.png,,,,,,,,,,,,,,,,,,,,,,,,,,,,,,,,,
,,,,,,,,,,,,,,,,,61000a532ea4226e8548eb48,31,2022-02-12_17h43.02.987,lexical_decision_task_DD_L6,2021.2.3,iPhone,58.82352941,,,,,,,,,,0.945,1,,,,,,,,,,,,,,,0,0.373469388,-0.213265306,1,0,0,0.945,button_right_main,0.373469388,-0.213265306,1,0,0,,0,63,63,69,1,ARROW,LB,m,m,./images/ARROWLB.png,,,,,,,,,,,,,,,,,,,,,,,,,,,,,,,,,
,,,,,,,,,,,,,,,,,61000a532ea4226e8548eb48,31,2022-02-12_17h43.02.987,lexical_decision_task_DD_L6,2021.2.3,iPhone,58.82352941,,,,,,,,,,1.712,1,,,,,,,,,,,,,,,0,-0.291836735,-0.290816327,1,0,0,1.712,button_left_main,-0.291836735,-0.290816327,1,0,0,,0,64,64,154,1,THINT,HB,z,z,./images/THINTHB.png,,,,,,,,,,,,,,,,,,,,,,,,,,,,,,,,,
,,,,,,,,,,,,,,,,,61000a532ea4226e8548eb48,31,2022-02-12_17h43.02.987,lexical_decision_task_DD_L6,2021.2.3,iPhone,58.82352941,,,,,,,,,,1.363,1,,,,,,,,,,,,,,,0,0.386734694,-0.312244898,1,0,0,1.363,button_right_main,0.386734694,-0.312244898,1,0,0,,0,65,65,26,1,CLOUD,HB,m,m,./images/CLOUDHB.png,,,,,,,,,,,,,,,,,,,,,,,,,,,,,,,,,
,,,,,,,,,,,,,,,,,61000a532ea4226e8548eb48,31,2022-02-12_17h43.02.987,lexical_decision_task_DD_L6,2021.2.3,iPhone,58.82352941,,,,,,,,,,0.963,1,,,,,,,,,,,,,,,0,0.378571429,-0.305102041,1,0,0,0.963,button_right_main,0.378571429,-0.305102041,1,0,0,,0,66,66,48,1,SHIELD,LB,m,m,./images/SHIELDLB.png,,,,,,,,,,,,,,,,,,,,,,,,,,,,,,,,,
,,,,,,,,,,,,,,,,,61000a532ea4226e8548eb48,31,2022-02-12_17h43.02.987,lexical_decision_task_DD_L6,2021.2.3,iPhone,58.82352941,,,,,,,,,,2.178,1,,,,,,,,,,,,,,,0,-0.254081633,-0.321428571,1,0,0,2.178,button_left_main,-0.254081633,-0.321428571,1,0,0,,0,67,67,139,1,BLEAR,HB,z,z,./images/BLEARHB.png,,,,,,,,,,,,,,,,,,,,,,,,,,,,,,,,,
,,,,,,,,,,,,,,,,,61000a532ea4226e8548eb48,31,2022-02-12_17h43.02.987,lexical_decision_task_DD_L6,2021.2.3,iPhone,58.82352941,,,,,,,,,,1.063,1,,,,,,,,,,,,,,,0,-0.326530612,-0.289795918,1,0,0,1.063,button_left_main,-0.326530612,-0.289795918,1,0,0,,0,68,68,104,1,GITTY,LB,z,z,./images/GITTYLB.png,,,,,,,,,,,,,,,,,,,,,,,,,,,,,,,,,
,,,,,,,,,,,,,,,,,61000a532ea4226e8548eb48,31,2022-02-12_17h43.02.987,lexical_decision_task_DD_L6,2021.2.3,iPhone,58.82352941,,,,,,,,,,1.03,1,,,,,,,,,,,,,,,0,-0.317346939,-0.280612245,1,0,0,1.03,button_left_main,-0.317346939,-0.280612245,1,0,0,,0,69,69,143,1,MONGS,LB,z,z,./images/MONGSLB.png,,,,,,,,,,,,,,,,,,,,,,,,,,,,,,,,,
,,,,,,,,,,,,,,,,,61000a532ea4226e8548eb48,31,2022-02-12_17h43.02.987,lexical_decision_task_DD_L6,2021.2.3,iPhone,58.82352941,,,,,,,,,,0.929,1,,,,,,,,,,,,,,,0,0.365306122,-0.306122449,1,0,0,0.929,button_right_main,0.365306122,-0.306122449,1,0,0,,0,70,70,34,1,RAZOR,C,m,m,./images/RAZOR.png,,,,,,,,,,,,,,,,,,,,,,,,,,,,,,,,,
,,,,,,,,,,,,,,,,,61000a532ea4226e8548eb48,31,2022-02-12_17h43.02.987,lexical_decision_task_DD_L6,2021.2.3,iPhone,58.82352941,,,,,,,,,,0.944,1,,,,,,,,,,,,,,,0,-0.282653061,-0.332653061,1,0,0,0.944,button_left_main,-0.282653061,-0.332653061,1,0,0,,0,71,71,117,1,STEEG,C,z,z,./images/STEEG.png,,,,,,,,,,,,,,,,,,,,,,,,,,,,,,,,,
,,,,,,,,,,,,,,,,,61000a532ea4226e8548eb48,31,2022-02-12_17h43.02.987,lexical_decision_task_DD_L6,2021.2.3,iPhone,58.82352941,,,,,,,,,,0.795,1,,,,,,,,,,,,,,,0,-0.298979592,-0.271428571,1,0,0,0.795,button_left_main,-0.298979592,-0.271428571,1,0,0,,0,72,72,96,1,KEAMS,C,z,z,./images/KEAMS.png,,,,,,,,,,,,,,,,,,,,,,,,,,,,,,,,,
,,,,,,,,,,,,,,,,,61000a532ea4226e8548eb48,31,2022-02-12_17h43.02.987,lexical_decision_task_DD_L6,2021.2.3,iPhone,58.82352941,,,,,,,,,,1.71,1,,,,,,,,,,,,,,,0,0.355102041,-0.32755102,1,0,0,1.71,button_right_main,0.355102041,-0.32755102,1,0,0,,0,73,73,53,1,POSTER,HB,m,m,./images/POSTERHB.png,,,,,,,,,,,,,,,,,,,,,,,,,,,,,,,,,
,,,,,,,,,,,,,,,,,61000a532ea4226e8548eb48,31,2022-02-12_17h43.02.987,lexical_decision_task_DD_L6,2021.2.3,iPhone,58.82352941,,,,,,,,,,1.312,1,,,,,,,,,,,,,,,0,0.371428571,-0.4,1,0,0,1.312,button_right_main,0.371428571,-0.4,1,0,0,,0,74,74,64,1,BRIDE,C,m,m,./images/BRIDE.png,,,,,,,,,,,,,,,,,,,,,,,,,,,,,,,,,
,,,,,,,,,,,,,,,,,61000a532ea4226e8548eb48,31,2022-02-12_17h43.02.987,lexical_decision_task_DD_L6,2021.2.3,iPhone,58.82352941,,,,,,,,,,0.992,1,,,,,,,,,,,,,,,0,-0.381632653,-0.323469388,1,0,0,0.992,button_left_main,-0.381632653,-0.323469388,1,0,0,,0,75,75,122,1,BLOOT,LB,z,z,./images/BLOOTLB.png,,,,,,,,,,,,,,,,,,,,,,,,,,,,,,,,,
,,,,,,,,,,,,,,,,,61000a532ea4226e8548eb48,31,2022-02-12_17h43.02.987,lexical_decision_task_DD_L6,2021.2.3,iPhone,58.82352941,,,,,,,,,,2.31,1,,,,,,,,,,,,,,,0,-0.4,-0.326530612,1,0,0,2.31,button_left_main,-0.4,-0.326530612,1,0,0,,0,76,76,109,1,BURGE,HB,z,z,./images/BURGEHB.png,,,,,,,,,,,,,,,,,,,,,,,,,,,,,,,,,
,,,,,,,,,,,,,,,,,61000a532ea4226e8548eb48,31,2022-02-12_17h43.02.987,lexical_decision_task_DD_L6,2021.2.3,iPhone,58.82352941,,,,,,,,,,1.059,1,,,,,,,,,,,,,,,0,0.370408163,-0.265306122,1,0,0,1.059,button_right_main,0.370408163,-0.265306122,1,0,0,,0,77,77,44,1,BASKET,HB,m,m,./images/BASKETHB.png,,,,,,,,,,,,,,,,,,,,,,,,,,,,,,,,,
,,,,,,,,,,,,,,,,,61000a532ea4226e8548eb48,31,2022-02-12_17h43.02.987,lexical_decision_task_DD_L6,2021.2.3,iPhone,58.82352941,,,,,,,,,,0.728,1,,,,,,,,,,,,,,,0,0.419387755,-0.328571429,1,0,0,0.728,button_right_main,0.419387755,-0.328571429,1,0,0,,0,78,78,33,1,SAUNA,LB,m,m,./images/SAUNALB.png,,,,,,,,,,,,,,,,,,,,,,,,,,,,,,,,,
,,,,,,,,,,,,,,,,,61000a532ea4226e8548eb48,31,2022-02-12_17h43.02.987,lexical_decision_task_DD_L6,2021.2.3,iPhone,58.82352941,,,,,,,,,,0.912,1,,,,,,,,,,,,,,,0,-0.279591837,-0.273469388,1,0,0,0.912,button_left_main,-0.279591837,-0.273469388,1,0,0,,0,79,79,87,1,TRING,C,z,z,./images/TRING.png,,,,,,,,,,,,,,,,,,,,,,,,,,,,,,,,,
,,,,,,,,,,,,,,,,,61000a532ea4226e8548eb48,31,2022-02-12_17h43.02.987,lexical_decision_task_DD_L6,2021.2.3,iPhone,58.82352941,,,,,,,,,,1.313,1,,,,,,,,,,,,,,,0,0.37755102,-0.307142857,1,0,0,1.313,button_right_main,0.37755102,-0.307142857,1,0,0,,0,80,80,56,1,HEATER,HB,m,m,./images/HEATERHB.png,,,,,,,,,,,,,,,,,,,,,,,,,,,,,,,,,
,,,,,,,,,,,,,,,,,61000a532ea4226e8548eb48,31,2022-02-12_17h43.02.987,lexical_decision_task_DD_L6,2021.2.3,iPhone,58.82352941,,,,,,,,,,0.808,1,,,,,,,,,,,,,,,0,-0.32244898,-0.36122449,1,0,0,0.808,button_left_main,-0.32244898,-0.36122449,1,0,0,,0,81,81,126,1,GUELS,C,z,z,./images/GUELS.png,,,,,,,,,,,,,,,,,,,,,,,,,,,,,,,,,
,,,,,,,,,,,,,,,,,61000a532ea4226e8548eb48,31,2022-02-12_17h43.02.987,lexical_decision_task_DD_L6,2021.2.3,iPhone,58.82352941,,,,,,,,,,0.78,1,,,,,,,,,,,,,,,0,0.42244898,-0.369387755,1,0,0,0.78,button_right_main,0.42244898,-0.369387755,1,0,0,,0,82,82,0,1,WALNUT,LB,m,m,./images/WALNUTLB.png,,,,,,,,,,,,,,,,,,,,,,,,,,,,,,,,,
,,,,,,,,,,,,,,,,,61000a532ea4226e8548eb48,31,2022-02-12_17h43.02.987,lexical_decision_task_DD_L6,2021.2.3,iPhone,58.82352941,,,,,,,,,,1.528,1,,,,,,,,,,,,,,,0,-0.291836735,-0.384693878,1,0,0,1.528,button_left_main,0.135714286,-0.4,1,0,0,,0,83,83,90,1,NEAST,C,z,z,./images/NEAST.png,break_done_button,,,,,,,,,,,,,,,,,,,,,,,,,,,,,,,,
,,,,,,,,,,,,,,,,,61000a532ea4226e8548eb48,31,2022-02-12_17h43.02.987,lexical_decision_task_DD_L6,2021.2.3,iPhone,58.82352941,,,,,,,,,,1.196,1,,,,,,,,,,,,,,,0,0.4,-0.289795918,1,0,0,1.196,button_right_main,0.4,-0.289795918,1,0,0,,0,84,84,66,1,STATUE,LB,m,m,./images/STATUELB.png,,,,,,,,,,,,,,,,,,,,,,,,,,,,,,,,,
,,,,,,,,,,,,,,,,,61000a532ea4226e8548eb48,31,2022-02-12_17h43.02.987,lexical_decision_task_DD_L6,2021.2.3,iPhone,58.82352941,,,,,,,,,,0.608,1,,,,,,,,,,,,,,,0,0.384693878,-0.297959184,1,0,0,0.608,button_right_main,0.384693878,-0.297959184,1,0,0,,0,85,85,13,1,BUNNY,C,m,m,./images/BUNNY.png,,,,,,,,,,,,,,,,,,,,,,,,,,,,,,,,,
,,,,,,,,,,,,,,,,,61000a532ea4226e8548eb48,31,2022-02-12_17h43.02.987,lexical_decision_task_DD_L6,2021.2.3,iPhone,58.82352941,,,,,,,,,,1.23,1,,,,,,,,,,,,,,,0,0.373469388,-0.313265306,1,0,0,1.23,button_right_main,0.373469388,-0.313265306,1,0,0,,0,86,86,5,1,BAMBOO,HB,m,m,./images/BAMBOOHB.png,,,,,,,,,,,,,,,,,,,,,,,,,,,,,,,,,
,,,,,,,,,,,,,,,,,61000a532ea4226e8548eb48,31,2022-02-12_17h43.02.987,lexical_decision_task_DD_L6,2021.2.3,iPhone,58.82352941,,,,,,,,,,1.747,1,,,,,,,,,,,,,,,0,-0.279591837,-0.303061224,1,0,0,1.747,button_left_main,-0.279591837,-0.303061224,1,0,0,,0,87,87,94,1,BLANS,HB,z,z,./images/BLANSHB.png,,,,,,,,,,,,,,,,,,,,,,,,,,,,,,,,,
,,,,,,,,,,,,,,,,,61000a532ea4226e8548eb48,31,2022-02-12_17h43.02.987,lexical_decision_task_DD_L6,2021.2.3,iPhone,58.82352941,,,,,,,,,,0.676,1,,,,,,,,,,,,,,,0,0.306122449,-0.271428571,1,0,0,0.676,button_right_main,0.306122449,-0.271428571,1,0,0,,0,88,88,79,1,RULER,C,m,m,./images/RULER.png,,,,,,,,,,,,,,,,,,,,,,,,,,,,,,,,,
,,,,,,,,,,,,,,,,,61000a532ea4226e8548eb48,31,2022-02-12_17h43.02.987,lexical_decision_task_DD_L6,2021.2.3,iPhone,58.82352941,,,,,,,,,,0.912,1,,,,,,,,,,,,,,,0,0.339795918,-0.336734694,1,0,0,0.912,button_right_main,0.339795918,-0.336734694,1,0,0,,0,89,89,29,1,PISTOL,HB,m,m,./images/PISTOLHB.png,,,,,,,,,,,,,,,,,,,,,,,,,,,,,,,,,
,,,,,,,,,,,,,,,,,61000a532ea4226e8548eb48,31,2022-02-12_17h43.02.987,lexical_decision_task_DD_L6,2021.2.3,iPhone,58.82352941,,,,,,,,,,1.18,1,,,,,,,,,,,,,,,0,-0.254081633,-0.263265306,1,0,0,1.18,button_left_main,-0.254081633,-0.263265306,1,0,0,,0,90,90,145,1,LAMEL,HB,z,z,./images/LAMELHB.png,,,,,,,,,,,,,,,,,,,,,,,,,,,,,,,,,
,,,,,,,,,,,,,,,,,61000a532ea4226e8548eb48,31,2022-02-12_17h43.02.987,lexical_decision_task_DD_L6,2021.2.3,iPhone,58.82352941,,,,,,,,,,0.931,1,,,,,,,,,,,,,,,0,0.353061224,-0.352040816,1,0,0,0.931,button_right_main,0.353061224,-0.352040816,1,0,0,,0,91,91,62,1,MAMMAL,HB,m,m,./images/MAMMALHB.png,,,,,,,,,,,,,,,,,,,,,,,,,,,,,,,,,
,,,,,,,,,,,,,,,,,61000a532ea4226e8548eb48,31,2022-02-12_17h43.02.987,lexical_decision_task_DD_L6,2021.2.3,iPhone,58.82352941,,,,,,,,,,1.942,1,,,,,,,,,,,,,,,0,-0.308163265,-0.285714286,1,0,0,1.942,button_left_main,-0.308163265,-0.285714286,1,0,0,,0,92,92,120,1,RINED,C,z,z,./images/RINED.png,,,,,,,,,,,,,,,,,,,,,,,,,,,,,,,,,
,,,,,,,,,,,,,,,,,61000a532ea4226e8548eb48,31,2022-02-12_17h43.02.987,lexical_decision_task_DD_L6,2021.2.3,iPhone,58.82352941,,,,,,,,,,1.014,1,,,,,,,,,,,,,,,0,-0.294897959,-0.324489796,1,0,0,1.014,button_left_main,-0.294897959,-0.324489796,1,0,0,,0,93,93,129,1,PRANS,C,z,z,./images/PRANS.png,,,,,,,,,,,,,,,,,,,,,,,,,,,,,,,,,
,,,,,,,,,,,,,,,,,61000a532ea4226e8548eb48,31,2022-02-12_17h43.02.987,lexical_decision_task_DD_L6,2021.2.3,iPhone,58.82352941,,,,,,,,,,0.959,1,,,,,,,,,,,,,,,0,-0.276530612,-0.309183673,1,0,0,0.959,button_left_main,-0.276530612,-0.309183673,1,0,0,,0,94,94,161,1,BLAPS,LB,z,z,./images/BLAPSLB.png,,,,,,,,,,,,,,,,,,,,,,,,,,,,,,,,,
,,,,,,,,,,,,,,,,,61000a532ea4226e8548eb48,31,2022-02-12_17h43.02.987,lexical_decision_task_DD_L6,2021.2.3,iPhone,58.82352941,,,,,,,,,,0.763,1,,,,,,,,,,,,,,,0,0.290816327,-0.364285714,1,0,0,0.763,button_right_main,0.290816327,-0.364285714,1,0,0,,0,95,95,54,1,CHERRY,LB,m,m,./images/CHERRYLB.png,,,,,,,,,,,,,,,,,,,,,,,,,,,,,,,,,
,,,,,,,,,,,,,,,,,61000a532ea4226e8548eb48,31,2022-02-12_17h43.02.987,lexical_decision_task_DD_L6,2021.2.3,iPhone,58.82352941,,,,,,,,,,1.327,1,,,,,,,,,,,,,,,0,-0.309183673,-0.291836735,1,0,0,1.327,button_left_main,-0.309183673,-0.291836735,1,0,0,,0,96,96,159,1,CUDDY,C,z,z,./images/CUDDY.png,,,,,,,,,,,,,,,,,,,,,,,,,,,,,,,,,
,,,,,,,,,,,,,,,,,61000a532ea4226e8548eb48,31,2022-02-12_17h43.02.987,lexical_decision_task_DD_L6,2021.2.3,iPhone,58.82352941,,,,,,,,,,0.895,1,,,,,,,,,,,,,,,0,0.330612245,-0.333673469,1,0,0,0.895,button_right_main,0.330612245,-0.333673469,1,0,0,,0,97,97,2,1,STOVE,HB,m,m,./images/STOVEHB.png,,,,,,,,,,,,,,,,,,,,,,,,,,,,,,,,,
,,,,,,,,,,,,,,,,,61000a532ea4226e8548eb48,31,2022-02-12_17h43.02.987,lexical_decision_task_DD_L6,2021.2.3,iPhone,58.82352941,,,,,,,,,,1.713,1,,,,,,,,,,,,,,,0,0.306122449,-0.314285714,1,0,0,1.713,button_right_main,0.306122449,-0.314285714,1,0,0,,0,98,98,83,1,WHISKY,HB,m,m,./images/WHISKYHB.png,,,,,,,,,,,,,,,,,,,,,,,,,,,,,,,,,
,,,,,,,,,,,,,,,,,61000a532ea4226e8548eb48,31,2022-02-12_17h43.02.987,lexical_decision_task_DD_L6,2021.2.3,iPhone,58.82352941,,,,,,,,,,1.094,1,,,,,,,,,,,,,,,0,0.325510204,-0.301020408,1,0,0,1.094,button_right_main,0.325510204,-0.301020408,1,0,0,,0,99,99,12,1,BLOKE,LB,m,m,./images/BLOKELB.png,,,,,,,,,,,,,,,,,,,,,,,,,,,,,,,,,
,,,,,,,,,,,,,,,,,61000a532ea4226e8548eb48,31,2022-02-12_17h43.02.987,lexical_decision_task_DD_L6,2021.2.3,iPhone,58.82352941,,,,,,,,,,2.531,1,,,,,,,,,,,,,,,0,-0.228571429,-0.325510204,1,0,0,2.531,button_left_main,-0.228571429,-0.325510204,1,0,0,,0,100,100,151,1,TINKY,HB,z,z,./images/TINKYHB.png,,,,,,,,,,,,,,,,,,,,,,,,,,,,,,,,,
,,,,,,,,,,,,,,,,,61000a532ea4226e8548eb48,31,2022-02-12_17h43.02.987,lexical_decision_task_DD_L6,2021.2.3,iPhone,58.82352941,,,,,,,,,,1.03,1,,,,,,,,,,,,,,,0,-0.298979592,-0.331632653,1,0,0,1.03,button_left_main,-0.298979592,-0.331632653,1,0,0,,0,101,101,114,1,RIKES,C,z,z,./images/RIKES.png,,,,,,,,,,,,,,,,,,,,,,,,,,,,,,,,,
,,,,,,,,,,,,,,,,,61000a532ea4226e8548eb48,31,2022-02-12_17h43.02.987,lexical_decision_task_DD_L6,2021.2.3,iPhone,58.82352941,,,,,,,,,,1.045,1,,,,,,,,,,,,,,,0,0.293877551,-0.330612245,1,0,0,1.045,button_right_main,0.293877551,-0.330612245,1,0,0,,0,102,102,9,1,DIVER,LB,m,m,./images/DIVERLB.png,,,,,,,,,,,,,,,,,,,,,,,,,,,,,,,,,
,,,,,,,,,,,,,,,,,61000a532ea4226e8548eb48,31,2022-02-12_17h43.02.987,lexical_decision_task_DD_L6,2021.2.3,iPhone,58.82352941,,,,,,,,,,0.778,1,,,,,,,,,,,,,,,0,0.323469388,-0.379591837,1,0,0,0.778,button_right_main,0.323469388,-0.379591837,1,0,0,,0,103,103,47,1,LAGOON,HB,m,m,./images/LAGOONHB.png,,,,,,,,,,,,,,,,,,,,,,,,,,,,,,,,,
,,,,,,,,,,,,,,,,,61000a532ea4226e8548eb48,31,2022-02-12_17h43.02.987,lexical_decision_task_DD_L6,2021.2.3,iPhone,58.82352941,,,,,,,,,,1.445,1,,,,,,,,,,,,,,,0,-0.267346939,-0.316326531,1,0,0,1.445,button_left_main,-0.267346939,-0.316326531,1,0,0,,0,104,104,164,1,SGREW,LB,z,z,./images/SGREWLB.png,,,,,,,,,,,,,,,,,,,,,,,,,,,,,,,,,
,,,,,,,,,,,,,,,,,61000a532ea4226e8548eb48,31,2022-02-12_17h43.02.987,lexical_decision_task_DD_L6,2021.2.3,iPhone,58.82352941,,,,,,,,,,1.814,1,,,,,,,,,,,,,,,0,-0.297959184,-0.318367347,1,0,0,1.814,button_left_main,-0.297959184,-0.318367347,1,0,0,,0,105,105,100,1,DRIBS,HB,z,z,./images/DRIBSHB.png,,,,,,,,,,,,,,,,,,,,,,,,,,,,,,,,,
,,,,,,,,,,,,,,,,,61000a532ea4226e8548eb48,31,2022-02-12_17h43.02.987,lexical_decision_task_DD_L6,2021.2.3,iPhone,58.82352941,,,,,,,,,,0.874,1,,,,,,,,,,,,,,,0,0.301020408,-0.348979592,1,0,0,0.874,button_right_main,0.301020408,-0.348979592,1,0,0,,0,106,106,57,1,FERRY,LB,m,m,./images/FERRYLB.png,,,,,,,,,,,,,,,,,,,,,,,,,,,,,,,,,
,,,,,,,,,,,,,,,,,61000a532ea4226e8548eb48,31,2022-02-12_17h43.02.987,lexical_decision_task_DD_L6,2021.2.3,iPhone,58.82352941,,,,,,,,,,1.062,1,,,,,,,,,,,,,,,0,-0.267346939,-0.310204082,1,0,0,1.062,button_left_main,-0.267346939,-0.310204082,1,0,0,,0,107,107,101,1,GLEET,LB,z,z,./images/GLEETLB.png,,,,,,,,,,,,,,,,,,,,,,,,,,,,,,,,,
,,,,,,,,,,,,,,,,,61000a532ea4226e8548eb48,31,2022-02-12_17h43.02.987,lexical_decision_task_DD_L6,2021.2.3,iPhone,58.82352941,,,,,,,,,,0.946,1,,,,,,,,,,,,,,,0,-0.274489796,-0.321428571,1,0,0,0.946,button_left_main,-0.274489796,-0.321428571,1,0,0,,0,108,108,105,1,MOKER,C,z,z,./images/MOKER.png,,,,,,,,,,,,,,,,,,,,,,,,,,,,,,,,,
,,,,,,,,,,,,,,,,,61000a532ea4226e8548eb48,31,2022-02-12_17h43.02.987,lexical_decision_task_DD_L6,2021.2.3,iPhone,58.82352941,,,,,,,,,,1.313,1,,,,,,,,,,,,,,,0,-0.279591837,-0.314285714,1,0,0,1.313,button_left_main,-0.279591837,-0.314285714,1,0,0,,0,109,109,165,1,TROWN,C,z,z,./images/TROWN.png,,,,,,,,,,,,,,,,,,,,,,,,,,,,,,,,,
,,,,,,,,,,,,,,,,,61000a532ea4226e8548eb48,31,2022-02-12_17h43.02.987,lexical_decision_task_DD_L6,2021.2.3,iPhone,58.82352941,,,,,,,,,,0.924,1,,,,,,,,,,,,,,,0,-0.274489796,-0.317346939,1,0,0,0.924,button_left_main,-0.274489796,-0.317346939,1,0,0,,0,110,110,119,1,PAFER,LB,z,z,./images/PAFERLB.png,,,,,,,,,,,,,,,,,,,,,,,,,,,,,,,,,
,,,,,,,,,,,,,,,,,61000a532ea4226e8548eb48,31,2022-02-12_17h43.02.987,lexical_decision_task_DD_L6,2021.2.3,iPhone,58.82352941,,,,,,,,,,0.997,1,,,,,,,,,,,,,,,0,-0.263265306,-0.330612245,1,0,0,0.997,button_left_main,-0.263265306,-0.330612245,1,0,0,,0,111,111,86,1,AIFED,LB,z,z,./images/AIFEDLB.png,,,,,,,,,,,,,,,,,,,,,,,,,,,,,,,,,
,,,,,,,,,,,,,,,,,61000a532ea4226e8548eb48,31,2022-02-12_17h43.02.987,lexical_decision_task_DD_L6,2021.2.3,iPhone,58.82352941,,,,,,,,,,0.762,1,,,,,,,,,,,,,,,0,0.315306122,-0.317346939,1,0,0,0.762,button_right_main,0.315306122,-0.317346939,1,0,0,,0,112,112,46,1,MUMMY,C,m,m,./images/MUMMY.png,,,,,,,,,,,,,,,,,,,,,,,,,,,,,,,,,
,,,,,,,,,,,,,,,,,61000a532ea4226e8548eb48,31,2022-02-12_17h43.02.987,lexical_decision_task_DD_L6,2021.2.3,iPhone,58.82352941,,,,,,,,,,0.846,1,,,,,,,,,,,,,,,0,-0.268367347,-0.318367347,1,0,0,0.846,button_left_main,-0.268367347,-0.318367347,1,0,0,,0,113,113,156,1,HIXES,C,z,z,./images/HIXES.png,,,,,,,,,,,,,,,,,,,,,,,,,,,,,,,,,
,,,,,,,,,,,,,,,,,61000a532ea4226e8548eb48,31,2022-02-12_17h43.02.987,lexical_decision_task_DD_L6,2021.2.3,iPhone,58.82352941,,,,,,,,,,0.809,1,,,,,,,,,,,,,,,0,0.314285714,-0.295918367,1,0,0,0.809,button_right_main,0.314285714,-0.295918367,1,0,0,,0,114,114,15,1,COLLAR,LB,m,m,./images/COLLARLB.png,,,,,,,,,,,,,,,,,,,,,,,,,,,,,,,,,
,,,,,,,,,,,,,,,,,61000a532ea4226e8548eb48,31,2022-02-12_17h43.02.987,lexical_decision_task_DD_L6,2021.2.3,iPhone,58.82352941,,,,,,,,,,1.695,1,,,,,,,,,,,,,,,0,-0.25,-0.343877551,1,0,0,1.695,button_left_main,-0.25,-0.343877551,1,0,0,,0,115,115,160,1,VEETS,HB,z,z,./images/VEETSHB.png,,,,,,,,,,,,,,,,,,,,,,,,,,,,,,,,,
,,,,,,,,,,,,,,,,,61000a532ea4226e8548eb48,31,2022-02-12_17h43.02.987,lexical_decision_task_DD_L6,2021.2.3,iPhone,58.82352941,,,,,,,,,,1.642,1,,,,,,,,,,,,,,,0,-0.264285714,-0.309183673,1,0,0,1.642,button_left_main,-0.264285714,-0.309183673,1,0,0,,0,116,116,157,1,INLER,HB,z,z,./images/INLERHB.png,,,,,,,,,,,,,,,,,,,,,,,,,,,,,,,,,
,,,,,,,,,,,,,,,,,61000a532ea4226e8548eb48,31,2022-02-12_17h43.02.987,lexical_decision_task_DD_L6,2021.2.3,iPhone,58.82352941,,,,,,,,,,0.879,1,,,,,,,,,,,,,,,0,0.305102041,-0.384693878,1,0,0,0.879,button_right_main,0.305102041,-0.384693878,1,0,0,,0,117,117,73,1,GLOVE,C,m,m,./images/GLOVE.png,,,,,,,,,,,,,,,,,,,,,,,,,,,,,,,,,
,,,,,,,,,,,,,,,,,61000a532ea4226e8548eb48,31,2022-02-12_17h43.02.987,lexical_decision_task_DD_L6,2021.2.3,iPhone,58.82352941,,,,,,,,,,0.959,1,,,,,,,,,,,,,,,0,-0.264285714,-0.304081633,1,0,0,0.959,button_left_main,-0.264285714,-0.304081633,1,0,0,,0,118,118,111,1,HOSSE,C,z,z,./images/HOSSE.png,,,,,,,,,,,,,,,,,,,,,,,,,,,,,,,,,
,,,,,,,,,,,,,,,,,61000a532ea4226e8548eb48,31,2022-02-12_17h43.02.987,lexical_decision_task_DD_L6,2021.2.3,iPhone,58.82352941,,,,,,,,,,1.178,1,,,,,,,,,,,,,,,0,-0.294897959,-0.32244898,1,0,0,1.178,button_left_main,-0.294897959,-0.32244898,1,0,0,,0,119,119,128,1,GRIFT,LB,z,z,./images/GRIFTLB.png,,,,,,,,,,,,,,,,,,,,,,,,,,,,,,,,,
,,,,,,,,,,,,,,,,,61000a532ea4226e8548eb48,31,2022-02-12_17h43.02.987,lexical_decision_task_DD_L6,2021.2.3,iPhone,58.82352941,,,,,,,,,,1.995,1,,,,,,,,,,,,,,,0,-0.241836735,-0.324489796,1,0,0,1.995,button_left_main,-0.241836735,-0.324489796,1,0,0,,0,120,120,166,1,SHORY,HB,z,z,./images/SHORYHB.png,,,,,,,,,,,,,,,,,,,,,,,,,,,,,,,,,
,,,,,,,,,,,,,,,,,61000a532ea4226e8548eb48,31,2022-02-12_17h43.02.987,lexical_decision_task_DD_L6,2021.2.3,iPhone,58.82352941,,,,,,,,,,0.928,1,,,,,,,,,,,,,,,0,-0.279591837,-0.32244898,1,0,0,0.928,button_left_main,-0.279591837,-0.32244898,1,0,0,,0,121,121,116,1,BALGY,LB,z,z,./images/BALGYLB.png,,,,,,,,,,,,,,,,,,,,,,,,,,,,,,,,,
,,,,,,,,,,,,,,,,,61000a532ea4226e8548eb48,31,2022-02-12_17h43.02.987,lexical_decision_task_DD_L6,2021.2.3,iPhone,58.82352941,,,,,,,,,,1.763,1,,,,,,,,,,,,,,,0,-0.237755102,-0.312244898,1,0,0,1.763,button_left_main,-0.237755102,-0.312244898,1,0,0,,0,122,122,115,1,MAWNS,HB,z,z,./images/MAWNSHB.png,,,,,,,,,,,,,,,,,,,,,,,,,,,,,,,,,
,,,,,,,,,,,,,,,,,61000a532ea4226e8548eb48,31,2022-02-12_17h43.02.987,lexical_decision_task_DD_L6,2021.2.3,iPhone,58.82352941,,,,,,,,,,2.196,1,,,,,,,,,,,,,,,0,0.304081633,-0.298979592,1,0,0,2.196,button_right_main,0.304081633,-0.298979592,1,0,0,,0,123,123,51,1,SAUCE,LB,m,m,./images/SAUCELB.png,,,,,,,,,,,,,,,,,,,,,,,,,,,,,,,,,
,,,,,,,,,,,,,,,,,61000a532ea4226e8548eb48,31,2022-02-12_17h43.02.987,lexical_decision_task_DD_L6,2021.2.3,iPhone,58.82352941,,,,,,,,,,1.278,1,,,,,,,,,,,,,,,0,-0.27755102,-0.33877551,1,0,0,1.278,button_left_main,-0.27755102,-0.33877551,1,0,0,,0,124,124,133,1,POWDY,HB,z,z,./images/POWDYHB.png,,,,,,,,,,,,,,,,,,,,,,,,,,,,,,,,,
,,,,,,,,,,,,,,,,,61000a532ea4226e8548eb48,31,2022-02-12_17h43.02.987,lexical_decision_task_DD_L6,2021.2.3,iPhone,58.82352941,,,,,,,,,,1.38,1,,,,,,,,,,,,,,,0,0.32244898,-0.32244898,1,0,0,1.38,button_right_main,0.120408163,-0.410204082,1,0,0,,0,125,125,68,1,VALLEY,HB,m,m,./images/VALLEYHB.png,break_done_button,,,,,,,,,,,,,,,,,,,,,,,,,,,,,,,,
,,,,,,,,,,,,,,,,,61000a532ea4226e8548eb48,31,2022-02-12_17h43.02.987,lexical_decision_task_DD_L6,2021.2.3,iPhone,58.82352941,,,,,,,,,,0.945,1,,,,,,,,,,,,,,,0,0.410204082,-0.326530612,1,0,0,0.945,button_right_main,0.410204082,-0.326530612,1,0,0,,0,126,126,40,1,SNAKE,C,m,m,./images/SNAKE.png,,,,,,,,,,,,,,,,,,,,,,,,,,,,,,,,,
,,,,,,,,,,,,,,,,,61000a532ea4226e8548eb48,31,2022-02-12_17h43.02.987,lexical_decision_task_DD_L6,2021.2.3,iPhone,58.82352941,,,,,,,,,,1.03,1,,,,,,,,,,,,,,,0,0.42755102,-0.328571429,1,0,0,1.03,button_right_main,0.42755102,-0.328571429,1,0,0,,0,127,127,55,1,ALLEY,C,m,m,./images/ALLEY.png,,,,,,,,,,,,,,,,,,,,,,,,,,,,,,,,,
,,,,,,,,,,,,,,,,,61000a532ea4226e8548eb48,31,2022-02-12_17h43.02.987,lexical_decision_task_DD_L6,2021.2.3,iPhone,58.82352941,,,,,,,,,,1.678,1,,,,,,,,,,,,,,,0,-0.31122449,-0.312244898,1,0,0,1.678,button_left_main,-0.31122449,-0.312244898,1,0,0,,0,128,128,89,1,DRIEK,LB,z,z,./images/DRIEKLB.png,,,,,,,,,,,,,,,,,,,,,,,,,,,,,,,,,
,,,,,,,,,,,,,,,,,61000a532ea4226e8548eb48,31,2022-02-12_17h43.02.987,lexical_decision_task_DD_L6,2021.2.3,iPhone,58.82352941,,,,,,,,,,1.828,1,,,,,,,,,,,,,,,0,0.375510204,-0.324489796,1,0,0,1.828,button_right_main,0.375510204,-0.324489796,1,0,0,,0,129,129,3,1,CRATER,LB,m,m,./images/CRATERLB.png,,,,,,,,,,,,,,,,,,,,,,,,,,,,,,,,,
,,,,,,,,,,,,,,,,,61000a532ea4226e8548eb48,31,2022-02-12_17h43.02.987,lexical_decision_task_DD_L6,2021.2.3,iPhone,58.82352941,,,,,,,,,,1.075,1,,,,,,,,,,,,,,,0,-0.28877551,-0.280612245,1,0,0,1.075,button_left_main,-0.28877551,-0.280612245,1,0,0,,0,130,130,130,1,CRILL,HB,z,z,./images/CRILLHB.png,,,,,,,,,,,,,,,,,,,,,,,,,,,,,,,,,
,,,,,,,,,,,,,,,,,61000a532ea4226e8548eb48,31,2022-02-12_17h43.02.987,lexical_decision_task_DD_L6,2021.2.3,iPhone,58.82352941,,,,,,,,,,0.73,1,,,,,,,,,,,,,,,0,0.423469388,-0.324489796,1,0,0,0.73,button_right_main,0.423469388,-0.324489796,1,0,0,,0,131,131,67,1,POKER,C,m,m,./images/POKER.png,,,,,,,,,,,,,,,,,,,,,,,,,,,,,,,,,
,,,,,,,,,,,,,,,,,61000a532ea4226e8548eb48,31,2022-02-12_17h43.02.987,lexical_decision_task_DD_L6,2021.2.3,iPhone,58.82352941,,,,,,,,,,0.896,1,,,,,,,,,,,,,,,0,0.4,-0.316326531,1,0,0,0.896,button_right_main,0.4,-0.316326531,1,0,0,,0,132,132,28,1,CASINO,C,m,m,./images/CASINO.png,,,,,,,,,,,,,,,,,,,,,,,,,,,,,,,,,
,,,,,,,,,,,,,,,,,61000a532ea4226e8548eb48,31,2022-02-12_17h43.02.987,lexical_decision_task_DD_L6,2021.2.3,iPhone,58.82352941,,,,,,,,,,1.01,1,,,,,,,,,,,,,,,0,-0.27244898,-0.285714286,1,0,0,1.01,button_left_main,-0.27244898,-0.285714286,1,0,0,,0,133,133,84,1,HAXES,C,z,z,./images/HAXES.png,,,,,,,,,,,,,,,,,,,,,,,,,,,,,,,,,
,,,,,,,,,,,,,,,,,61000a532ea4226e8548eb48,31,2022-02-12_17h43.02.987,lexical_decision_task_DD_L6,2021.2.3,iPhone,58.82352941,,,,,,,,,,0.861,1,,,,,,,,,,,,,,,0,0.379591837,-0.312244898,1,0,0,0.861,button_right_main,0.379591837,-0.312244898,1,0,0,,0,134,134,61,1,ARTIST,C,m,m,./images/ARTIST.png,,,,,,,,,,,,,,,,,,,,,,,,,,,,,,,,,
,,,,,,,,,,,,,,,,,61000a532ea4226e8548eb48,31,2022-02-12_17h43.02.987,lexical_decision_task_DD_L6,2021.2.3,iPhone,58.82352941,,,,,,,,,,1.141,1,,,,,,,,,,,,,,,0,0.391836735,-0.269387755,1,0,0,1.141,button_right_main,0.391836735,-0.269387755,1,0,0,,0,135,135,14,1,FENCE,HB,m,m,./images/FENCEHB.png,,,,,,,,,,,,,,,,,,,,,,,,,,,,,,,,,
,,,,,,,,,,,,,,,,,61000a532ea4226e8548eb48,31,2022-02-12_17h43.02.987,lexical_decision_task_DD_L6,2021.2.3,iPhone,58.82352941,,,,,,,,,,1.313,1,,,,,,,,,,,,,,,0,-0.271428571,-0.296938776,1,0,0,1.313,button_left_main,-0.271428571,-0.296938776,1,0,0,,0,136,136,112,1,MYING,HB,z,z,./images/MYINGHB.png,,,,,,,,,,,,,,,,,,,,,,,,,,,,,,,,,
,,,,,,,,,,,,,,,,,61000a532ea4226e8548eb48,31,2022-02-12_17h43.02.987,lexical_decision_task_DD_L6,2021.2.3,iPhone,58.82352941,,,,,,,,,,0.809,1,,,,,,,,,,,,,,,0,0.367346939,-0.315306122,1,0,0,0.809,button_right_main,0.367346939,-0.315306122,1,0,0,,0,137,137,4,1,BOXER,C,m,m,./images/BOXER.png,,,,,,,,,,,,,,,,,,,,,,,,,,,,,,,,,
,,,,,,,,,,,,,,,,,61000a532ea4226e8548eb48,31,2022-02-12_17h43.02.987,lexical_decision_task_DD_L6,2021.2.3,iPhone,58.82352941,,,,,,,,,,1.196,1,,,,,,,,,,,,,,,0,-0.290816327,-0.329591837,1,0,0,1.196,button_left_main,-0.290816327,-0.329591837,1,0,0,,0,138,138,121,1,CEERS,HB,z,z,./images/CEERSHB.png,,,,,,,,,,,,,,,,,,,,,,,,,,,,,,,,,
,,,,,,,,,,,,,,,,,61000a532ea4226e8548eb48,31,2022-02-12_17h43.02.987,lexical_decision_task_DD_L6,2021.2.3,iPhone,58.82352941,,,,,,,,,,0.929,1,,,,,,,,,,,,,,,0,-0.31122449,-0.306122449,1,0,0,0.929,button_left_main,-0.31122449,-0.306122449,1,0,0,,0,139,139,135,1,JOODY,C,z,z,./images/JOODY.png,,,,,,,,,,,,,,,,,,,,,,,,,,,,,,,,,
,,,,,,,,,,,,,,,,,61000a532ea4226e8548eb48,31,2022-02-12_17h43.02.987,lexical_decision_task_DD_L6,2021.2.3,iPhone,58.82352941,,,,,,,,,,0.925,1,,,,,,,,,,,,,,,0,0.379591837,-0.378571429,1,0,0,0.925,button_right_main,0.379591837,-0.378571429,1,0,0,,0,140,140,49,1,BISHOP,C,m,m,./images/BISHOP.png,,,,,,,,,,,,,,,,,,,,,,,,,,,,,,,,,
,,,,,,,,,,,,,,,,,61000a532ea4226e8548eb48,31,2022-02-12_17h43.02.987,lexical_decision_task_DD_L6,2021.2.3,iPhone,58.82352941,,,,,,,,,,1.963,1,,,,,,,,,,,,,,,0,-0.270408163,-0.314285714,1,0,0,1.963,button_left_main,-0.270408163,-0.314285714,1,0,0,,0,141,141,163,1,GAMBA,HB,z,z,./images/GAMBAHB.png,,,,,,,,,,,,,,,,,,,,,,,,,,,,,,,,,
,,,,,,,,,,,,,,,,,61000a532ea4226e8548eb48,31,2022-02-12_17h43.02.987,lexical_decision_task_DD_L6,2021.2.3,iPhone,58.82352941,,,,,,,,,,1.026,1,,,,,,,,,,,,,,,0,-0.306122449,-0.285714286,1,0,0,1.026,button_left_main,-0.306122449,-0.285714286,1,0,0,,0,142,142,146,1,MOOST,LB,z,z,./images/MOOSTLB.png,,,,,,,,,,,,,,,,,,,,,,,,,,,,,,,,,
,,,,,,,,,,,,,,,,,61000a532ea4226e8548eb48,31,2022-02-12_17h43.02.987,lexical_decision_task_DD_L6,2021.2.3,iPhone,58.82352941,,,,,,,,,,0.879,1,,,,,,,,,,,,,,,0,-0.33877551,-0.319387755,1,0,0,0.879,button_left_main,-0.33877551,-0.319387755,1,0,0,,0,143,143,152,1,FRAIN,LB,z,z,./images/FRAINLB.png,,,,,,,,,,,,,,,,,,,,,,,,,,,,,,,,,
,,,,,,,,,,,,,,,,,61000a532ea4226e8548eb48,31,2022-02-12_17h43.02.987,lexical_decision_task_DD_L6,2021.2.3,iPhone,58.82352941,,,,,,,,,,2.863,1,,,,,,,,,,,,,,,0,0.360204082,-0.323469388,1,0,0,2.863,button_right_main,0.360204082,-0.323469388,1,0,0,,0,144,144,74,1,JUMPER,HB,m,m,./images/JUMPERHB.png,,,,,,,,,,,,,,,,,,,,,,,,,,,,,,,,,
,,,,,,,,,,,,,,,,,61000a532ea4226e8548eb48,31,2022-02-12_17h43.02.987,lexical_decision_task_DD_L6,2021.2.3,iPhone,58.82352941,,,,,,,,,,1.729,1,,,,,,,,,,,,,,,0,0.395918367,-0.331632653,1,0,0,1.729,button_right_main,0.395918367,-0.331632653,1,0,0,,0,145,145,6,1,STAIN,LB,m,m,./images/STAINLB.png,,,,,,,,,,,,,,,,,,,,,,,,,,,,,,,,,
,,,,,,,,,,,,,,,,,61000a532ea4226e8548eb48,31,2022-02-12_17h43.02.987,lexical_decision_task_DD_L6,2021.2.3,iPhone,58.82352941,,,,,,,,,,2.012,1,,,,,,,,,,,,,,,0,-0.32244898,-0.324489796,1,0,0,2.012,button_left_main,-0.32244898,-0.324489796,1,0,0,,0,146,146,125,1,MOOKY,LB,z,z,./images/MOOKYLB.png,,,,,,,,,,,,,,,,,,,,,,,,,,,,,,,,,
,,,,,,,,,,,,,,,,,61000a532ea4226e8548eb48,31,2022-02-12_17h43.02.987,lexical_decision_task_DD_L6,2021.2.3,iPhone,58.82352941,,,,,,,,,,1.159,1,,,,,,,,,,,,,,,0,0.378571429,-0.315306122,1,0,0,1.159,button_right_main,0.378571429,-0.315306122,1,0,0,,0,147,147,75,1,HAMMER,LB,m,m,./images/HAMMERLB.png,,,,,,,,,,,,,,,,,,,,,,,,,,,,,,,,,
,,,,,,,,,,,,,,,,,61000a532ea4226e8548eb48,31,2022-02-12_17h43.02.987,lexical_decision_task_DD_L6,2021.2.3,iPhone,58.82352941,,,,,,,,,,0.963,1,,,,,,,,,,,,,,,0,-0.296938776,-0.295918367,1,0,0,0.963,button_left_main,-0.296938776,-0.295918367,1,0,0,,0,148,148,155,1,CANGY,LB,z,z,./images/CANGYLB.png,,,,,,,,,,,,,,,,,,,,,,,,,,,,,,,,,
,,,,,,,,,,,,,,,,,61000a532ea4226e8548eb48,31,2022-02-12_17h43.02.987,lexical_decision_task_DD_L6,2021.2.3,iPhone,58.82352941,,,,,,,,,,1.693,1,,,,,,,,,,,,,,,0,-0.306122449,-0.287755102,1,0,0,1.693,button_left_main,-0.306122449,-0.287755102,1,0,0,,0,149,149,118,1,BAVEL,HB,z,z,./images/BAVELHB.png,,,,,,,,,,,,,,,,,,,,,,,,,,,,,,,,,
,,,,,,,,,,,,,,,,,61000a532ea4226e8548eb48,31,2022-02-12_17h43.02.987,lexical_decision_task_DD_L6,2021.2.3,iPhone,58.82352941,,,,,,,,,,0.674,1,,,,,,,,,,,,,,,0,0.42755102,-0.289795918,1,0,0,0.674,button_right_main,0.42755102,-0.289795918,1,0,0,,0,150,150,39,1,CANDY,LB,m,m,./images/CANDYLB.png,,,,,,,,,,,,,,,,,,,,,,,,,,,,,,,,,
,,,,,,,,,,,,,,,,,61000a532ea4226e8548eb48,31,2022-02-12_17h43.02.987,lexical_decision_task_DD_L6,2021.2.3,iPhone,58.82352941,,,,,,,,,,1.012,1,,,,,,,,,,,,,,,0,0.37755102,-0.373469388,1,0,0,1.012,button_right_main,0.37755102,-0.373469388,1,0,0,,0,151,151,42,1,CHAIN,LB,m,m,./images/CHAINLB.png,,,,,,,,,,,,,,,,,,,,,,,,,,,,,,,,,
,,,,,,,,,,,,,,,,,61000a532ea4226e8548eb48,31,2022-02-12_17h43.02.987,lexical_decision_task_DD_L6,2021.2.3,iPhone,58.82352941,,,,,,,,,,1.396,1,,,,,,,,,,,,,,,0,0.405102041,-0.333673469,1,0,0,1.396,button_right_main,0.405102041,-0.333673469,1,0,0,,0,152,152,77,1,WHEEL,HB,m,m,./images/WHEELHB.png,,,,,,,,,,,,,,,,,,,,,,,,,,,,,,,,,
,,,,,,,,,,,,,,,,,61000a532ea4226e8548eb48,31,2022-02-12_17h43.02.987,lexical_decision_task_DD_L6,2021.2.3,iPhone,58.82352941,,,,,,,,,,0.842,1,,,,,,,,,,,,,,,0,0.391836735,-0.312244898,1,0,0,0.842,button_right_main,0.391836735,-0.312244898,1,0,0,,0,153,153,16,1,GRAPE,C,m,m,./images/GRAPE.png,,,,,,,,,,,,,,,,,,,,,,,,,,,,,,,,,
,,,,,,,,,,,,,,,,,61000a532ea4226e8548eb48,31,2022-02-12_17h43.02.987,lexical_decision_task_DD_L6,2021.2.3,iPhone,58.82352941,,,,,,,,,,1.014,1,,,,,,,,,,,,,,,0,-0.352040816,-0.291836735,1,0,0,1.014,button_left_main,-0.352040816,-0.291836735,1,0,0,,0,154,154,149,1,VEASE,LB,z,z,./images/VEASELB.png,,,,,,,,,,,,,,,,,,,,,,,,,,,,,,,,,
,,,,,,,,,,,,,,,,,61000a532ea4226e8548eb48,31,2022-02-12_17h43.02.987,lexical_decision_task_DD_L6,2021.2.3,iPhone,58.82352941,,,,,,,,,,1.12,1,,,,,,,,,,,,,,,0,0.424489796,-0.212244898,1,0,0,1.12,button_right_main,0.424489796,-0.212244898,1,0,0,,0,155,155,11,1,MEDAL,HB,m,m,./images/MEDALHB.png,,,,,,,,,,,,,,,,,,,,,,,,,,,,,,,,,
,,,,,,,,,,,,,,,,,61000a532ea4226e8548eb48,31,2022-02-12_17h43.02.987,lexical_decision_task_DD_L6,2021.2.3,iPhone,58.82352941,,,,,,,,,,0.694,1,,,,,,,,,,,,,,,0,0.381632653,-0.273469388,1,0,0,0.694,button_right_main,0.381632653,-0.273469388,1,0,0,,0,156,156,45,1,MONKEY,LB,m,m,./images/MONKEYLB.png,,,,,,,,,,,,,,,,,,,,,,,,,,,,,,,,,
,,,,,,,,,,,,,,,,,61000a532ea4226e8548eb48,31,2022-02-12_17h43.02.987,lexical_decision_task_DD_L6,2021.2.3,iPhone,58.82352941,,,,,,,,,,1.114,1,,,,,,,,,,,,,,,0,-0.370408163,-0.256122449,1,0,0,1.114,button_left_main,-0.370408163,-0.256122449,1,0,0,,0,157,157,144,1,NAIRY,C,z,z,./images/NAIRY.png,,,,,,,,,,,,,,,,,,,,,,,,,,,,,,,,,
,,,,,,,,,,,,,,,,,61000a532ea4226e8548eb48,31,2022-02-12_17h43.02.987,lexical_decision_task_DD_L6,2021.2.3,iPhone,58.82352941,,,,,,,,,,1.712,1,,,,,,,,,,,,,,,0,-0.341836735,-0.283673469,1,0,0,1.712,button_left_main,-0.341836735,-0.283673469,1,0,0,,0,158,158,103,1,FLORT,HB,z,z,./images/FLORTHB.png,,,,,,,,,,,,,,,,,,,,,,,,,,,,,,,,,
,,,,,,,,,,,,,,,,,61000a532ea4226e8548eb48,31,2022-02-12_17h43.02.987,lexical_decision_task_DD_L6,2021.2.3,iPhone,58.82352941,,,,,,,,,,0.944,1,,,,,,,,,,,,,,,0,-0.337755102,-0.306122449,1,0,0,0.944,button_left_main,-0.337755102,-0.306122449,1,0,0,,0,159,159,134,1,TROSS,LB,z,z,./images/TROSSLB.png,,,,,,,,,,,,,,,,,,,,,,,,,,,,,,,,,
,,,,,,,,,,,,,,,,,61000a532ea4226e8548eb48,31,2022-02-12_17h43.02.987,lexical_decision_task_DD_L6,2021.2.3,iPhone,58.82352941,,,,,,,,,,0.946,1,,,,,,,,,,,,,,,0,-0.31122449,-0.332653061,1,0,0,0.946,button_left_main,-0.31122449,-0.332653061,1,0,0,,0,160,160,140,1,DOVET,LB,z,z,./images/DOVETLB.png,,,,,,,,,,,,,,,,,,,,,,,,,,,,,,,,,
,,,,,,,,,,,,,,,,,61000a532ea4226e8548eb48,31,2022-02-12_17h43.02.987,lexical_decision_task_DD_L6,2021.2.3,iPhone,58.82352941,,,,,,,,,,1.212,1,,,,,,,,,,,,,,,0,-0.323469388,-0.304081633,1,0,0,1.212,button_left_main,-0.323469388,-0.304081633,1,0,0,,0,161,161,106,1,CLUMS,HB,z,z,./images/CLUMSHB.png,,,,,,,,,,,,,,,,,,,,,,,,,,,,,,,,,
,,,,,,,,,,,,,,,,,61000a532ea4226e8548eb48,31,2022-02-12_17h43.02.987,lexical_decision_task_DD_L6,2021.2.3,iPhone,58.82352941,,,,,,,,,,0.978,1,,,,,,,,,,,,,,,0,0.383673469,-0.305102041,1,0,0,0.978,button_right_main,0.383673469,-0.305102041,1,0,0,,0,162,162,22,1,CLOWN,C,m,m,./images/CLOWN.png,,,,,,,,,,,,,,,,,,,,,,,,,,,,,,,,,
,,,,,,,,,,,,,,,,,61000a532ea4226e8548eb48,31,2022-02-12_17h43.02.987,lexical_decision_task_DD_L6,2021.2.3,iPhone,58.82352941,,,,,,,,,,1.014,1,,,,,,,,,,,,,,,0,0.38877551,-0.265306122,1,0,0,1.014,button_right_main,0.38877551,-0.265306122,1,0,0,,0,163,163,27,1,BUTTER,LB,m,m,./images/BUTTERLB.png,,,,,,,,,,,,,,,,,,,,,,,,,,,,,,,,,
,,,,,,,,,,,,,,,,,61000a532ea4226e8548eb48,31,2022-02-12_17h43.02.987,lexical_decision_task_DD_L6,2021.2.3,iPhone,58.82352941,,,,,,,,,,1.192,1,,,,,,,,,,,,,,,0,0.341836735,-0.31122449,1,0,0,1.192,button_right_main,0.341836735,-0.31122449,1,0,0,,0,164,164,1,1,TOWEL,C,m,m,./images/TOWEL.png,,,,,,,,,,,,,,,,,,,,,,,,,,,,,,,,,
,,,,,,,,,,,,,,,,,61000a532ea4226e8548eb48,31,2022-02-12_17h43.02.987,lexical_decision_task_DD_L6,2021.2.3,iPhone,58.82352941,,,,,,,,,,1.245,1,,,,,,,,,,,,,,,0,-0.341836735,-0.256122449,1,0,0,1.245,button_left_main,-0.341836735,-0.256122449,1,0,0,,0,165,165,167,1,ZONET,LB,z,z,./images/ZONETLB.png,,,,,,,,,,,,,,,,,,,,,,,,,,,,,,,,,
,,,,,,,,,,,,,,,,,61000a532ea4226e8548eb48,31,2022-02-12_17h43.02.987,lexical_decision_task_DD_L6,2021.2.3,iPhone,58.82352941,,,,,,,,,,2.046,1,,,,,,,,,,,,,,,0,0.360204082,-0.285714286,1,0,0,2.046,button_right_main,0.360204082,-0.285714286,1,0,0,,0,166,166,20,1,GRANNY,HB,m,m,./images/GRANNYHB.png,,,,,,,,,,,,,,,,,,,,,,,,,,,,,,,,,
,,,,,,,,,,,,,,,,,61000a532ea4226e8548eb48,31,2022-02-12_17h43.02.987,lexical_decision_task_DD_L6,2021.2.3,iPhone,58.82352941,,,,,,,,,,1.745,1,,,,,,,,,,,,,,,0,-0.303061224,-0.31122449,1,0,0,1.745,button_left_main,-0.303061224,-0.31122449,1,0,0,,0,167,167,88,1,GLUSH,HB,z,z,./images/GLUSHHB.png,,,,,,,,,,,,,,,,,,,,,,,,,,,,,,,,,
,,,,,,,,,,,,,,,,,61000a532ea4226e8548eb48,31,2022-02-12_17h43.02.987,lexical_decision_task_DD_L6,2021.2.3,iPhone,58.82352941,,,,,,,,,,,,,,,,,,,,,,,,,,,,,,,,,,,,,,,,,,,,,,How likely will it be that you will recognize the words presented slighly blurred on a scale of 0 (not likely) to 100 (most likely)?,,,,,0.006122449,-0.417346939,1,0,0,jol_adv,2,5.209,0,0,0,1,1,,,,,,,,,,,,,,,,,,,
,,,,,,,,,,,,,,,,,61000a532ea4226e8548eb48,31,2022-02-12_17h43.02.987,lexical_decision_task_DD_L6,2021.2.3,iPhone,58.82352941,,,,,,,,,,,,,,,,,,,,,,,,,,,,,,,,,,,,,,,,,,,,,,How likely will it be that you will recognize the words presented very blurred on a scale of 0 (not likely) to 100 (most likely)?,,,,,,,,,,,2,5.682,0,1,1,2,1,,,,,,,,,,,,,,,,,,,
,,,,,,,,,,,,,,,,,61000a532ea4226e8548eb48,31,2022-02-12_17h43.02.987,lexical_decision_task_DD_L6,2021.2.3,iPhone,58.82352941,,,,,,,,,,,,,,,,,,,,,,,,,,,,,,,,,,,,,,,,,,,,,,How likely will it be that you will recognize the words presented clearly on a scale of 0 (not likely) to 100 (most likely)?,,,,,,,,,,,6,3.612,0,2,2,0,1,,,,,,,,,,,,,,,,,,,
,0.05,-0.423469388,1,0,0,instr_done_button,,,,,,1,test,"In the next phase you will be presented with the words from the the first phase. Your job is to decide whether you remember seeing the word or not. If you remember seeing the word press ""old"" or type ""m"". If you do not remember seeing the word press ""new"" or type ""z"". Please press the space bar or click on continue to begin. ",,,61000a532ea4226e8548eb48,31,2022-02-12_17h43.02.987,lexical_decision_task_DD_L6,2021.2.3,iPhone,58.82352941,,,,,,,,,,,,,,,,,,,,,,,,,,,,,,,,,,,,,,,,,,,,,,,,,,,,,,,,,,,,,,,,0,0,0,0,1,,,,,,,,,,,,,,
,0.115306122,-0.37755102,1,0,0,instr_done_button,,,,,,1,test,"In the next phase you will be presented with the words from the the first phase. Your job is to decide whether you remember seeing the word or not. If you remember seeing the word press ""old"" or type ""m"". If you do not remember seeing the word press ""new"" or type ""z"". Please press the space bar or click on continue to begin. ",,,61000a532ea4226e8548eb48,31,2022-02-12_17h43.02.987,lexical_decision_task_DD_L6,2021.2.3,iPhone,58.82352941,,,,,,,,,,,,,,,,,,,,,,,,,,,,,,,,,,,,,,,,,,,,,,,,,,,,,,,,,,,,,,,,1,0,1,0,1,,,,,,,,,,,,,,
,0.03877551,-0.42244898,1,0,0,instr_done_button,,,,,,1,test,"In the next phase you will be presented with the words from the the first phase. Your job is to decide whether you remember seeing the word or not. If you remember seeing the word press ""old"" or type ""m"". If you do not remember seeing the word press ""new"" or type ""z"". Please press the space bar or click on continue to begin. ",,,61000a532ea4226e8548eb48,31,2022-02-12_17h43.02.987,lexical_decision_task_DD_L6,2021.2.3,iPhone,58.82352941,,,,,,,,,,,,,,,,,,,,,,,,,,,,,,,,,,,,,,,,,,,,,,,,,,,,,,,,,,,,,,,,2,0,2,0,1,,,,,,,,,,,,,,
,0.065306122,-0.375510204,1,0,0,instr_done_button,,,,,,1,test,"In the next phase you will be presented with the words from the the first phase. Your job is to decide whether you remember seeing the word or not. If you remember seeing the word press ""old"" or type ""m"". If you do not remember seeing the word press ""new"" or type ""z"". Please press the space bar or click on continue to begin. ",,,61000a532ea4226e8548eb48,31,2022-02-12_17h43.02.987,lexical_decision_task_DD_L6,2021.2.3,iPhone,58.82352941,,,,,,,,,,,,,,,,,,,,,,,,,,,,,,,,,,,,,,,,,,,,,,,,,,,,,,,,,,,,,,,,3,0,3,0,1,,,,,,,,,,,,,,
,0.043877551,-0.363265306,1,0,0,instr_done_button,,,,,,1,test,"In the next phase you will be presented with the words from the the first phase. Your job is to decide whether you remember seeing the word or not. If you remember seeing the word press ""old"" or type ""m"". If you do not remember seeing the word press ""new"" or type ""z"". Please press the space bar or click on continue to begin. ",,,61000a532ea4226e8548eb48,31,2022-02-12_17h43.02.987,lexical_decision_task_DD_L6,2021.2.3,iPhone,58.82352941,,,,,,,,,,,,,,,,,,,,,,,,,,,,,,,,,,,,,,,,,,,,,,,,,,,,,,,,,,,,,,,,4,0,4,0,1,,,,,,,,,,,,,,
,,,,,,,,,,,,,,,,,61000a532ea4226e8548eb48,31,2022-02-12_17h43.02.987,lexical_decision_task_DD_L6,2021.2.3,iPhone,58.82352941,,,,,,,,,,2.859,1,,,,,,,,,,,,,,,,,,,,,,,0.381632653,-0.33877551,1,0,0,,,,,,,BROOM,LB,m,y,./images/BROOMLB.png,,,,,,,,,,,,,,,,,,,,,0,0.381632653,-0.33877551,1,0,0,2.859,button_right_test,0,0,0,78,1
,,,,,,,,,,,,,,,,,61000a532ea4226e8548eb48,31,2022-02-12_17h43.02.987,lexical_decision_task_DD_L6,2021.2.3,iPhone,58.82352941,,,,,,,,,,0.961,1,,,,,,,,,,,,,,,,,,,,,,,0.4,-0.28877551,1,0,0,,,,,,,BUBBLE,HB,m,y,./images/BUBBLEHB.png,,,,,,,,,,,,,,,,,,,,,0,0.4,-0.28877551,1,0,0,0.961,button_right_test,0,1,1,71,1
,,,,,,,,,,,,,,,,,61000a532ea4226e8548eb48,31,2022-02-12_17h43.02.987,lexical_decision_task_DD_L6,2021.2.3,iPhone,58.82352941,,,,,,,,,,0.811,1,,,,,,,,,,,,,,,,,,,,,,,0.415306122,-0.262244898,1,0,0,,,,,,,POKER,C,m,y,./images/POKER.png,,,,,,,,,,,,,,,,,,,,,0,0.415306122,-0.262244898,1,0,0,0.811,button_right_test,0,2,2,67,1
,,,,,,,,,,,,,,,,,61000a532ea4226e8548eb48,31,2022-02-12_17h43.02.987,lexical_decision_task_DD_L6,2021.2.3,iPhone,58.82352941,,,,,,,,,,1.591,1,,,,,,,,,,,,,,,,,,,,,,,-0.321428571,-0.312244898,1,0,0,,,,,,,SPORT,LB,z,y,./images/SPORTLB.png,,,,,,,,,,,,,,,,,,,,,0,-0.321428571,-0.312244898,1,0,0,1.591,button_left_test,0,3,3,132,1
,,,,,,,,,,,,,,,,,61000a532ea4226e8548eb48,31,2022-02-12_17h43.02.987,lexical_decision_task_DD_L6,2021.2.3,iPhone,58.82352941,,,,,,,,,,0.962,1,,,,,,,,,,,,,,,,,,,,,,,0.431632653,-0.266326531,1,0,0,,,,,,,MEDAL,HB,m,y,./images/MEDALHB.png,,,,,,,,,,,,,,,,,,,,,0,0.431632653,-0.266326531,1,0,0,0.962,button_right_test,0,4,4,11,1
,,,,,,,,,,,,,,,,,61000a532ea4226e8548eb48,31,2022-02-12_17h43.02.987,lexical_decision_task_DD_L6,2021.2.3,iPhone,58.82352941,,,,,,,,,,1.378,1,,,,,,,,,,,,,,,,,,,,,,,0.320408163,-0.295918367,1,0,0,,,,,,,SLOPE,LB,m,y,./images/SLOPELB.png,,,,,,,,,,,,,,,,,,,,,0,0.320408163,-0.295918367,1,0,0,1.378,button_right_test,0,5,5,30,1
,,,,,,,,,,,,,,,,,61000a532ea4226e8548eb48,31,2022-02-12_17h43.02.987,lexical_decision_task_DD_L6,2021.2.3,iPhone,58.82352941,,,,,,,,,,1.696,1,,,,,,,,,,,,,,,,,,,,,,,-0.353061224,-0.37244898,1,0,0,,,,,,,PACKET,HB,z,y,./images/PACKETHB.png,,,,,,,,,,,,,,,,,,,,,0,-0.353061224,-0.37244898,1,0,0,1.696,button_left_test,0,6,6,140,1
,,,,,,,,,,,,,,,,,61000a532ea4226e8548eb48,31,2022-02-12_17h43.02.987,lexical_decision_task_DD_L6,2021.2.3,iPhone,58.82352941,,,,,,,,,,0.859,1,,,,,,,,,,,,,,,,,,,,,,,0.341836735,-0.291836735,1,0,0,,,,,,,CLIFF,HB,m,y,./images/CLIFFHB.png,,,,,,,,,,,,,,,,,,,,,0,0.341836735,-0.291836735,1,0,0,0.859,button_right_test,0,7,7,8,1
,,,,,,,,,,,,,,,,,61000a532ea4226e8548eb48,31,2022-02-12_17h43.02.987,lexical_decision_task_DD_L6,2021.2.3,iPhone,58.82352941,,,,,,,,,,1.01,1,,,,,,,,,,,,,,,,,,,,,,,-0.301020408,-0.307142857,1,0,0,,,,,,,MUSCLE,C,z,y,./images/MUSCLE.png,,,,,,,,,,,,,,,,,,,,,0,-0.301020408,-0.307142857,1,0,0,1.01,button_left_test,0,8,8,88,1
,,,,,,,,,,,,,,,,,61000a532ea4226e8548eb48,31,2022-02-12_17h43.02.987,lexical_decision_task_DD_L6,2021.2.3,iPhone,58.82352941,,,,,,,,,,1.194,0,,,,,,,,,,,,,,,,,,,,,,,0.340816327,-0.342857143,1,0,0,,,,,,,BANNER,C,z,y,./images/BANNER.png,,,,,,,,,,,,,,,,,,,,,0,0.340816327,-0.342857143,1,0,0,1.194,button_right_test,0,9,9,136,1
,,,,,,,,,,,,,,,,,61000a532ea4226e8548eb48,31,2022-02-12_17h43.02.987,lexical_decision_task_DD_L6,2021.2.3,iPhone,58.82352941,,,,,,,,,,1.063,1,,,,,,,,,,,,,,,,,,,,,,,-0.371428571,-0.314285714,1,0,0,,,,,,,SAILOR,C,z,y,./images/SAILOR.png,,,,,,,,,,,,,,,,,,,,,0,-0.371428571,-0.314285714,1,0,0,1.063,button_left_test,0,10,10,151,1
,,,,,,,,,,,,,,,,,61000a532ea4226e8548eb48,31,2022-02-12_17h43.02.987,lexical_decision_task_DD_L6,2021.2.3,iPhone,58.82352941,,,,,,,,,,0.829,1,,,,,,,,,,,,,,,,,,,,,,,-0.384693878,-0.3,1,0,0,,,,,,,TULIP,HB,z,y,./images/TULIPHB.png,,,,,,,,,,,,,,,,,,,,,0,-0.384693878,-0.3,1,0,0,0.829,button_left_test,0,11,11,92,1
,,,,,,,,,,,,,,,,,61000a532ea4226e8548eb48,31,2022-02-12_17h43.02.987,lexical_decision_task_DD_L6,2021.2.3,iPhone,58.82352941,,,,,,,,,,1.175,0,,,,,,,,,,,,,,,,,,,,,,,0.356122449,-0.351020408,1,0,0,,,,,,,JELLY,C,z,y,./images/JELLY.png,,,,,,,,,,,,,,,,,,,,,0,0.356122449,-0.351020408,1,0,0,1.175,button_right_test,0,12,12,148,1
,,,,,,,,,,,,,,,,,61000a532ea4226e8548eb48,31,2022-02-12_17h43.02.987,lexical_decision_task_DD_L6,2021.2.3,iPhone,58.82352941,,,,,,,,,,0.944,0,,,,,,,,,,,,,,,,,,,,,,,0.35,-0.335714286,1,0,0,,,,,,,PURSE,HB,z,y,./images/PURSEHB.png,,,,,,,,,,,,,,,,,,,,,0,0.35,-0.335714286,1,0,0,0.944,button_right_test,0,13,13,146,1
,,,,,,,,,,,,,,,,,61000a532ea4226e8548eb48,31,2022-02-12_17h43.02.987,lexical_decision_task_DD_L6,2021.2.3,iPhone,58.82352941,,,,,,,,,,0.776,1,,,,,,,,,,,,,,,,,,,,,,,-0.380612245,-0.315306122,1,0,0,,,,,,,CEMENT,HB,z,y,./images/CEMENTHB.png,,,,,,,,,,,,,,,,,,,,,0,-0.380612245,-0.315306122,1,0,0,0.776,button_left_test,0,14,14,158,1
,,,,,,,,,,,,,,,,,61000a532ea4226e8548eb48,31,2022-02-12_17h43.02.987,lexical_decision_task_DD_L6,2021.2.3,iPhone,58.82352941,,,,,,,,,,0.745,1,,,,,,,,,,,,,,,,,,,,,,,0.358163265,-0.331632653,1,0,0,,,,,,,RULER,C,m,y,./images/RULER.png,,,,,,,,,,,,,,,,,,,,,0,0.358163265,-0.331632653,1,0,0,0.745,button_right_test,0,15,15,79,1
,,,,,,,,,,,,,,,,,61000a532ea4226e8548eb48,31,2022-02-12_17h43.02.987,lexical_decision_task_DD_L6,2021.2.3,iPhone,58.82352941,,,,,,,,,,0.779,1,,,,,,,,,,,,,,,,,,,,,,,-0.389795918,-0.310204082,1,0,0,,,,,,,SUNSET,C,z,y,./images/SUNSET.png,,,,,,,,,,,,,,,,,,,,,0,-0.389795918,-0.310204082,1,0,0,0.779,button_left_test,0,16,16,166,1
,,,,,,,,,,,,,,,,,61000a532ea4226e8548eb48,31,2022-02-12_17h43.02.987,lexical_decision_task_DD_L6,2021.2.3,iPhone,58.82352941,,,,,,,,,,0.762,1,,,,,,,,,,,,,,,,,,,,,,,0.36122449,-0.283673469,1,0,0,,,,,,,SHIELD,LB,m,y,./images/SHIELDLB.png,,,,,,,,,,,,,,,,,,,,,0,0.36122449,-0.283673469,1,0,0,0.762,button_right_test,0,17,17,48,1
,,,,,,,,,,,,,,,,,61000a532ea4226e8548eb48,31,2022-02-12_17h43.02.987,lexical_decision_task_DD_L6,2021.2.3,iPhone,58.82352941,,,,,,,,,,0.745,0,,,,,,,,,,,,,,,,,,,,,,,0.336734694,-0.324489796,1,0,0,,,,,,,STORM,LB,z,y,./images/STORMLB.png,,,,,,,,,,,,,,,,,,,,,0,0.336734694,-0.324489796,1,0,0,0.745,button_right_test,0,18,18,114,1
,,,,,,,,,,,,,,,,,61000a532ea4226e8548eb48,31,2022-02-12_17h43.02.987,lexical_decision_task_DD_L6,2021.2.3,iPhone,58.82352941,,,,,,,,,,0.727,1,,,,,,,,,,,,,,,,,,,,,,,0.33877551,-0.32755102,1,0,0,,,,,,,MONKEY,LB,m,y,./images/MONKEYLB.png,,,,,,,,,,,,,,,,,,,,,0,0.33877551,-0.32755102,1,0,0,0.727,button_right_test,0,19,19,45,1
,,,,,,,,,,,,,,,,,61000a532ea4226e8548eb48,31,2022-02-12_17h43.02.987,lexical_decision_task_DD_L6,2021.2.3,iPhone,58.82352941,,,,,,,,,,0.778,0,,,,,,,,,,,,,,,,,,,,,,,0.347959184,-0.293877551,1,0,0,,,,,,,LADDER,HB,z,y,./images/LADDERHB.png,,,,,,,,,,,,,,,,,,,,,0,0.347959184,-0.293877551,1,0,0,0.778,button_right_test,0,20,20,122,1
,,,,,,,,,,,,,,,,,61000a532ea4226e8548eb48,31,2022-02-12_17h43.02.987,lexical_decision_task_DD_L6,2021.2.3,iPhone,58.82352941,,,,,,,,,,0.895,1,,,,,,,,,,,,,,,,,,,,,,,-0.381632653,-0.306122449,1,0,0,,,,,,,STRING,HB,z,y,./images/STRINGHB.png,,,,,,,,,,,,,,,,,,,,,0,-0.381632653,-0.306122449,1,0,0,0.895,button_left_test,0,21,21,125,1
,,,,,,,,,,,,,,,,,61000a532ea4226e8548eb48,31,2022-02-12_17h43.02.987,lexical_decision_task_DD_L6,2021.2.3,iPhone,58.82352941,,,,,,,,,,2.044,0,,,,,,,,,,,,,,,,,,,,,,,0.33877551,-0.35,1,0,0,,,,,,,TOMATO,LB,z,y,./images/TOMATOLB.png,,,,,,,,,,,,,,,,,,,,,0,0.33877551,-0.35,1,0,0,2.044,button_right_test,0,22,22,84,1
,,,,,,,,,,,,,,,,,61000a532ea4226e8548eb48,31,2022-02-12_17h43.02.987,lexical_decision_task_DD_L6,2021.2.3,iPhone,58.82352941,,,,,,,,,,1.579,0,,,,,,,,,,,,,,,,,,,,,,,0.35,-0.314285714,1,0,0,,,,,,,MIRROR,LB,z,y,./images/MIRRORLB.png,,,,,,,,,,,,,,,,,,,,,0,0.35,-0.314285714,1,0,0,1.579,button_right_test,0,23,23,147,1
,,,,,,,,,,,,,,,,,61000a532ea4226e8548eb48,31,2022-02-12_17h43.02.987,lexical_decision_task_DD_L6,2021.2.3,iPhone,58.82352941,,,,,,,,,,0.892,1,,,,,,,,,,,,,,,,,,,,,,,-0.407142857,-0.321428571,1,0,0,,,,,,,BIRTH,C,z,y,./images/BIRTH.png,,,,,,,,,,,,,,,,,,,,,0,-0.407142857,-0.321428571,1,0,0,0.892,button_left_test,0,24,24,121,1
,,,,,,,,,,,,,,,,,61000a532ea4226e8548eb48,31,2022-02-12_17h43.02.987,lexical_decision_task_DD_L6,2021.2.3,iPhone,58.82352941,,,,,,,,,,0.759,1,,,,,,,,,,,,,,,,,,,,,,,-0.37244898,-0.316326531,1,0,0,,,,,,,SHELF,LB,z,y,./images/SHELFLB.png,,,,,,,,,,,,,,,,,,,,,0,-0.37244898,-0.316326531,1,0,0,0.759,button_left_test,0,25,25,123,1
,,,,,,,,,,,,,,,,,61000a532ea4226e8548eb48,31,2022-02-12_17h43.02.987,lexical_decision_task_DD_L6,2021.2.3,iPhone,58.82352941,,,,,,,,,,0.778,1,,,,,,,,,,,,,,,,,,,,,,,0.306122449,-0.340816327,1,0,0,,,,,,,SAUNA,LB,m,y,./images/SAUNALB.png,,,,,,,,,,,,,,,,,,,,,0,0.306122449,-0.340816327,1,0,0,0.778,button_right_test,0,26,26,33,1
,,,,,,,,,,,,,,,,,61000a532ea4226e8548eb48,31,2022-02-12_17h43.02.987,lexical_decision_task_DD_L6,2021.2.3,iPhone,58.82352941,,,,,,,,,,1.145,1,,,,,,,,,,,,,,,,,,,,,,,-0.446938776,-0.307142857,1,0,0,,,,,,,BABOON,C,z,y,./images/BABOON.png,,,,,,,,,,,,,,,,,,,,,0,-0.446938776,-0.307142857,1,0,0,1.145,button_left_test,0,27,27,142,1
,,,,,,,,,,,,,,,,,61000a532ea4226e8548eb48,31,2022-02-12_17h43.02.987,lexical_decision_task_DD_L6,2021.2.3,iPhone,58.82352941,,,,,,,,,,1.641,0,,,,,,,,,,,,,,,,,,,,,,,0.333673469,-0.332653061,1,0,0,,,,,,,SWING,C,z,y,./images/SWING.png,,,,,,,,,,,,,,,,,,,,,0,0.333673469,-0.332653061,1,0,0,1.641,button_right_test,0,28,28,124,1
,,,,,,,,,,,,,,,,,61000a532ea4226e8548eb48,31,2022-02-12_17h43.02.987,lexical_decision_task_DD_L6,2021.2.3,iPhone,58.82352941,,,,,,,,,,0.677,1,,,,,,,,,,,,,,,,,,,,,,,0.320408163,-0.365306122,1,0,0,,,,,,,STAIN,LB,m,y,./images/STAINLB.png,,,,,,,,,,,,,,,,,,,,,0,0.320408163,-0.365306122,1,0,0,0.677,button_right_test,0,29,29,6,1
,,,,,,,,,,,,,,,,,61000a532ea4226e8548eb48,31,2022-02-12_17h43.02.987,lexical_decision_task_DD_L6,2021.2.3,iPhone,58.82352941,,,,,,,,,,0.707,1,,,,,,,,,,,,,,,,,,,,,,,0.328571429,-0.359183673,1,0,0,,,,,,,BAKER,LB,m,y,./images/BAKERLB.png,,,,,,,,,,,,,,,,,,,,,0,0.328571429,-0.359183673,1,0,0,0.707,button_right_test,0,30,30,63,1
,,,,,,,,,,,,,,,,,61000a532ea4226e8548eb48,31,2022-02-12_17h43.02.987,lexical_decision_task_DD_L6,2021.2.3,iPhone,58.82352941,,,,,,,,,,1.094,1,,,,,,,,,,,,,,,,,,,,,,,-0.417346939,-0.321428571,1,0,0,,,,,,,PEARL,C,z,y,./images/PEARL.png,,,,,,,,,,,,,,,,,,,,,0,-0.417346939,-0.321428571,1,0,0,1.094,button_left_test,0,31,31,130,1
,,,,,,,,,,,,,,,,,61000a532ea4226e8548eb48,31,2022-02-12_17h43.02.987,lexical_decision_task_DD_L6,2021.2.3,iPhone,58.82352941,,,,,,,,,,0.827,1,,,,,,,,,,,,,,,,,,,,,,,0.320408163,-0.358163265,1,0,0,,,,,,,GLOVE,C,m,y,./images/GLOVE.png,,,,,,,,,,,,,,,,,,,,,0,0.320408163,-0.358163265,1,0,0,0.827,button_right_test,0,32,32,73,1
,,,,,,,,,,,,,,,,,61000a532ea4226e8548eb48,31,2022-02-12_17h43.02.987,lexical_decision_task_DD_L6,2021.2.3,iPhone,58.82352941,,,,,,,,,,0.929,1,,,,,,,,,,,,,,,,,,,,,,,0.318367347,-0.370408163,1,0,0,,,,,,,ARROW,LB,m,y,./images/ARROWLB.png,,,,,,,,,,,,,,,,,,,,,0,0.318367347,-0.370408163,1,0,0,0.929,button_right_test,0,33,33,69,1
,,,,,,,,,,,,,,,,,61000a532ea4226e8548eb48,31,2022-02-12_17h43.02.987,lexical_decision_task_DD_L6,2021.2.3,iPhone,58.82352941,,,,,,,,,,0.728,1,,,,,,,,,,,,,,,,,,,,,,,0.323469388,-0.336734694,1,0,0,,,,,,,MUMMY,C,m,y,./images/MUMMY.png,,,,,,,,,,,,,,,,,,,,,0,0.323469388,-0.336734694,1,0,0,0.728,button_right_test,0,34,34,46,1
,,,,,,,,,,,,,,,,,61000a532ea4226e8548eb48,31,2022-02-12_17h43.02.987,lexical_decision_task_DD_L6,2021.2.3,iPhone,58.82352941,,,,,,,,,,0.963,1,,,,,,,,,,,,,,,,,,,,,,,-0.390816327,-0.335714286,1,0,0,,,,,,,GRAIN,LB,z,y,./images/GRAINLB.png,,,,,,,,,,,,,,,,,,,,,0,-0.390816327,-0.335714286,1,0,0,0.963,button_left_test,0,35,35,159,1
,,,,,,,,,,,,,,,,,61000a532ea4226e8548eb48,31,2022-02-12_17h43.02.987,lexical_decision_task_DD_L6,2021.2.3,iPhone,58.82352941,,,,,,,,,,0.992,0,,,,,,,,,,,,,,,,,,,,,,,0.336734694,-0.332653061,1,0,0,,,,,,,DOUGH,C,z,y,./images/DOUGH.png,,,,,,,,,,,,,,,,,,,,,0,0.336734694,-0.332653061,1,0,0,0.992,button_right_test,0,36,36,103,1
,,,,,,,,,,,,,,,,,61000a532ea4226e8548eb48,31,2022-02-12_17h43.02.987,lexical_decision_task_DD_L6,2021.2.3,iPhone,58.82352941,,,,,,,,,,0.794,1,,,,,,,,,,,,,,,,,,,,,,,0.32755102,-0.330612245,1,0,0,,,,,,,CLOTH,HB,m,y,./images/CLOTHHB.png,,,,,,,,,,,,,,,,,,,,,0,0.32755102,-0.330612245,1,0,0,0.794,button_right_test,0,37,37,23,1
,,,,,,,,,,,,,,,,,61000a532ea4226e8548eb48,31,2022-02-12_17h43.02.987,lexical_decision_task_DD_L6,2021.2.3,iPhone,58.82352941,,,,,,,,,,0.679,1,,,,,,,,,,,,,,,,,,,,,,,0.32755102,-0.345918367,1,0,0,,,,,,,DANCER,LB,m,y,./images/DANCERLB.png,,,,,,,,,,,,,,,,,,,,,0,0.32755102,-0.345918367,1,0,0,0.679,button_right_test,0,38,38,21,1
,,,,,,,,,,,,,,,,,61000a532ea4226e8548eb48,31,2022-02-12_17h43.02.987,lexical_decision_task_DD_L6,2021.2.3,iPhone,58.82352941,,,,,,,,,,0.878,1,,,,,,,,,,,,,,,,,,,,,,,0.320408163,-0.362244898,1,0,0,,,,,,,HOCKEY,HB,m,y,./images/HOCKEYHB.png,,,,,,,,,,,,,,,,,,,,,0,0.320408163,-0.362244898,1,0,0,0.878,button_right_test,0,39,39,32,1
,,,,,,,,,,,,,,,,,61000a532ea4226e8548eb48,31,2022-02-12_17h43.02.987,lexical_decision_task_DD_L6,2021.2.3,iPhone,58.82352941,,,,,,,,,,0.827,1,,,,,,,,,,,,,,,,,,,,,,,0.323469388,-0.332653061,1,0,0,,,,,,,BOILER,LB,m,y,./images/BOILERLB.png,,,,,,,,,,,,,,,,,,,,,0,0.323469388,-0.332653061,1,0,0,0.827,button_right_test,0,40,40,36,1
,,,,,,,,,,,,,,,,,61000a532ea4226e8548eb48,31,2022-02-12_17h43.02.987,lexical_decision_task_DD_L6,2021.2.3,iPhone,58.82352941,,,,,,,,,,0.741,1,,,,,,,,,,,,,,,,,,,,,,,0.142857143,-0.389795918,1,0,0,,,,,,,BONNET,HB,z,y,./images/BONNETHB.png,break_done_button,,,,,,,,,,,,,,,,,,,,0,-0.37244898,-0.305102041,1,0,0,0.741,button_left_test,0,41,41,95,1
,,,,,,,,,,,,,,,,,61000a532ea4226e8548eb48,31,2022-02-12_17h43.02.987,lexical_decision_task_DD_L6,2021.2.3,iPhone,58.82352941,,,,,,,,,,0.741,1,,,,,,,,,,,,,,,,,,,,,,,0.362244898,-0.319387755,1,0,0,,,,,,,BOXER,C,m,y,./images/BOXER.png,,,,,,,,,,,,,,,,,,,,,0,0.362244898,-0.319387755,1,0,0,0.741,button_right_test,0,42,42,4,1
,,,,,,,,,,,,,,,,,61000a532ea4226e8548eb48,31,2022-02-12_17h43.02.987,lexical_decision_task_DD_L6,2021.2.3,iPhone,58.82352941,,,,,,,,,,0.727,0,,,,,,,,,,,,,,,,,,,,,,,0.341836735,-0.331632653,1,0,0,,,,,,,CANDLE,C,z,y,./images/CANDLE.png,,,,,,,,,,,,,,,,,,,,,0,0.341836735,-0.331632653,1,0,0,0.727,button_right_test,0,43,43,145,1
,,,,,,,,,,,,,,,,,61000a532ea4226e8548eb48,31,2022-02-12_17h43.02.987,lexical_decision_task_DD_L6,2021.2.3,iPhone,58.82352941,,,,,,,,,,2.029,0,,,,,,,,,,,,,,,,,,,,,,,-0.402040816,-0.320408163,1,0,0,,,,,,,BANANA,C,m,y,./images/BANANA.png,,,,,,,,,,,,,,,,,,,,,0,-0.402040816,-0.320408163,1,0,0,2.029,button_left_test,0,44,44,70,1
,,,,,,,,,,,,,,,,,61000a532ea4226e8548eb48,31,2022-02-12_17h43.02.987,lexical_decision_task_DD_L6,2021.2.3,iPhone,58.82352941,,,,,,,,,,1.091,1,,,,,,,,,,,,,,,,,,,,,,,0.339795918,-0.347959184,1,0,0,,,,,,,CLOWN,C,m,y,./images/CLOWN.png,,,,,,,,,,,,,,,,,,,,,0,0.339795918,-0.347959184,1,0,0,1.091,button_right_test,0,45,45,22,1
,,,,,,,,,,,,,,,,,61000a532ea4226e8548eb48,31,2022-02-12_17h43.02.987,lexical_decision_task_DD_L6,2021.2.3,iPhone,58.82352941,,,,,,,,,,0.779,1,,,,,,,,,,,,,,,,,,,,,,,-0.369387755,-0.334693878,1,0,0,,,,,,,FALCON,C,z,y,./images/FALCON.png,,,,,,,,,,,,,,,,,,,,,0,-0.369387755,-0.334693878,1,0,0,0.779,button_left_test,0,46,46,112,1
,,,,,,,,,,,,,,,,,61000a532ea4226e8548eb48,31,2022-02-12_17h43.02.987,lexical_decision_task_DD_L6,2021.2.3,iPhone,58.82352941,,,,,,,,,,1.044,1,,,,,,,,,,,,,,,,,,,,,,,0.324489796,-0.324489796,1,0,0,,,,,,,BASKET,HB,m,y,./images/BASKETHB.png,,,,,,,,,,,,,,,,,,,,,0,0.324489796,-0.324489796,1,0,0,1.044,button_right_test,0,47,47,44,1
,,,,,,,,,,,,,,,,,61000a532ea4226e8548eb48,31,2022-02-12_17h43.02.987,lexical_decision_task_DD_L6,2021.2.3,iPhone,58.82352941,,,,,,,,,,1.209,0,,,,,,,,,,,,,,,,,,,,,,,0.320408163,-0.318367347,1,0,0,,,,,,,SQUARE,LB,z,y,./images/SQUARELB.png,,,,,,,,,,,,,,,,,,,,,0,0.320408163,-0.318367347,1,0,0,1.209,button_right_test,0,48,48,90,1
,,,,,,,,,,,,,,,,,61000a532ea4226e8548eb48,31,2022-02-12_17h43.02.987,lexical_decision_task_DD_L6,2021.2.3,iPhone,58.82352941,,,,,,,,,,0.795,1,,,,,,,,,,,,,,,,,,,,,,,-0.394897959,-0.336734694,1,0,0,,,,,,,POODLE,LB,z,y,./images/POODLELB.png,,,,,,,,,,,,,,,,,,,,,0,-0.394897959,-0.336734694,1,0,0,0.795,button_left_test,0,49,49,165,1
,,,,,,,,,,,,,,,,,61000a532ea4226e8548eb48,31,2022-02-12_17h43.02.987,lexical_decision_task_DD_L6,2021.2.3,iPhone,58.82352941,,,,,,,,,,1.781,0,,,,,,,,,,,,,,,,,,,,,,,-0.413265306,-0.330612245,1,0,0,,,,,,,SNAKE,C,m,y,./images/SNAKE.png,,,,,,,,,,,,,,,,,,,,,0,-0.413265306,-0.330612245,1,0,0,1.781,button_left_test,0,50,50,40,1
,,,,,,,,,,,,,,,,,61000a532ea4226e8548eb48,31,2022-02-12_17h43.02.987,lexical_decision_task_DD_L6,2021.2.3,iPhone,58.82352941,,,,,,,,,,0.831,0,,,,,,,,,,,,,,,,,,,,,,,0.36122449,-0.305102041,1,0,0,,,,,,,SNACK,C,z,y,./images/SNACK.png,,,,,,,,,,,,,,,,,,,,,0,0.36122449,-0.305102041,1,0,0,0.831,button_right_test,0,51,51,157,1
,,,,,,,,,,,,,,,,,61000a532ea4226e8548eb48,31,2022-02-12_17h43.02.987,lexical_decision_task_DD_L6,2021.2.3,iPhone,58.82352941,,,,,,,,,,0.779,1,,,,,,,,,,,,,,,,,,,,,,,0.341836735,-0.330612245,1,0,0,,,,,,,MIDGET,C,m,y,./images/MIDGET.png,,,,,,,,,,,,,,,,,,,,,0,0.341836735,-0.330612245,1,0,0,0.779,button_right_test,0,52,52,76,1
,,,,,,,,,,,,,,,,,61000a532ea4226e8548eb48,31,2022-02-12_17h43.02.987,lexical_decision_task_DD_L6,2021.2.3,iPhone,58.82352941,,,,,,,,,,1.012,0,,,,,,,,,,,,,,,,,,,,,,,0.35,-0.32244898,1,0,0,,,,,,,BEARD,HB,z,y,./images/BEARDHB.png,,,,,,,,,,,,,,,,,,,,,0,0.35,-0.32244898,1,0,0,1.012,button_right_test,0,53,53,86,1
,,,,,,,,,,,,,,,,,61000a532ea4226e8548eb48,31,2022-02-12_17h43.02.987,lexical_decision_task_DD_L6,2021.2.3,iPhone,58.82352941,,,,,,,,,,0.762,1,,,,,,,,,,,,,,,,,,,,,,,-0.406122449,-0.314285714,1,0,0,,,,,,,KIDNEY,LB,z,y,./images/KIDNEYLB.png,,,,,,,,,,,,,,,,,,,,,0,-0.406122449,-0.314285714,1,0,0,0.762,button_left_test,0,54,54,105,1
,,,,,,,,,,,,,,,,,61000a532ea4226e8548eb48,31,2022-02-12_17h43.02.987,lexical_decision_task_DD_L6,2021.2.3,iPhone,58.82352941,,,,,,,,,,1.046,1,,,,,,,,,,,,,,,,,,,,,,,0.363265306,-0.315306122,1,0,0,,,,,,,PEBBLE,C,m,y,./images/PEBBLE.png,,,,,,,,,,,,,,,,,,,,,0,0.363265306,-0.315306122,1,0,0,1.046,button_right_test,0,55,55,82,1
,,,,,,,,,,,,,,,,,61000a532ea4226e8548eb48,31,2022-02-12_17h43.02.987,lexical_decision_task_DD_L6,2021.2.3,iPhone,58.82352941,,,,,,,,,,1.195,0,,,,,,,,,,,,,,,,,,,,,,,-0.308163265,-0.325510204,1,0,0,,,,,,,ENGINE,HB,m,y,./images/ENGINEHB.png,,,,,,,,,,,,,,,,,,,,,0,-0.308163265,-0.325510204,1,0,0,1.195,button_left_test,0,56,56,38,1
,,,,,,,,,,,,,,,,,61000a532ea4226e8548eb48,31,2022-02-12_17h43.02.987,lexical_decision_task_DD_L6,2021.2.3,iPhone,58.82352941,,,,,,,,,,1.413,1,,,,,,,,,,,,,,,,,,,,,,,-0.269387755,-0.332653061,1,0,0,,,,,,,COOKER,LB,z,y,./images/COOKERLB.png,,,,,,,,,,,,,,,,,,,,,0,-0.269387755,-0.332653061,1,0,0,1.413,button_left_test,0,57,57,153,1
,,,,,,,,,,,,,,,,,61000a532ea4226e8548eb48,31,2022-02-12_17h43.02.987,lexical_decision_task_DD_L6,2021.2.3,iPhone,58.82352941,,,,,,,,,,0.758,0,,,,,,,,,,,,,,,,,,,,,,,0.357142857,-0.298979592,1,0,0,,,,,,,LIZARD,HB,z,y,./images/LIZARDHB.png,,,,,,,,,,,,,,,,,,,,,0,0.357142857,-0.298979592,1,0,0,0.758,button_right_test,0,58,58,128,1
,,,,,,,,,,,,,,,,,61000a532ea4226e8548eb48,31,2022-02-12_17h43.02.987,lexical_decision_task_DD_L6,2021.2.3,iPhone,58.82352941,,,,,,,,,,0.694,0,,,,,,,,,,,,,,,,,,,,,,,0.365306122,-0.318367347,1,0,0,,,,,,,MAGGOT,LB,z,y,./images/MAGGOTLB.png,,,,,,,,,,,,,,,,,,,,,0,0.365306122,-0.318367347,1,0,0,0.694,button_right_test,0,59,59,117,1
,,,,,,,,,,,,,,,,,61000a532ea4226e8548eb48,31,2022-02-12_17h43.02.987,lexical_decision_task_DD_L6,2021.2.3,iPhone,58.82352941,,,,,,,,,,1.078,1,,,,,,,,,,,,,,,,,,,,,,,-0.315306122,-0.333673469,1,0,0,,,,,,,PICKLE,HB,z,y,./images/PICKLEHB.png,,,,,,,,,,,,,,,,,,,,,0,-0.315306122,-0.333673469,1,0,0,1.078,button_left_test,0,60,60,98,1
,,,,,,,,,,,,,,,,,61000a532ea4226e8548eb48,31,2022-02-12_17h43.02.987,lexical_decision_task_DD_L6,2021.2.3,iPhone,58.82352941,,,,,,,,,,1.195,0,,,,,,,,,,,,,,,,,,,,,,,0.342857143,-0.286734694,1,0,0,,,,,,,MUFFIN,C,z,y,./images/MUFFIN.png,,,,,,,,,,,,,,,,,,,,,0,0.342857143,-0.286734694,1,0,0,1.195,button_right_test,0,61,61,139,1
,,,,,,,,,,,,,,,,,61000a532ea4226e8548eb48,31,2022-02-12_17h43.02.987,lexical_decision_task_DD_L6,2021.2.3,iPhone,58.82352941,,,,,,,,,,0.925,1,,,,,,,,,,,,,,,,,,,,,,,-0.263265306,-0.332653061,1,0,0,,,,,,,QUILL,C,z,y,./images/QUILL.png,,,,,,,,,,,,,,,,,,,,,0,-0.263265306,-0.332653061,1,0,0,0.925,button_left_test,0,62,62,115,1
,,,,,,,,,,,,,,,,,61000a532ea4226e8548eb48,31,2022-02-12_17h43.02.987,lexical_decision_task_DD_L6,2021.2.3,iPhone,58.82352941,,,,,,,,,,0.81,1,,,,,,,,,,,,,,,,,,,,,,,0.359183673,-0.303061224,1,0,0,,,,,,,HAMMER,LB,m,y,./images/HAMMERLB.png,,,,,,,,,,,,,,,,,,,,,0,0.359183673,-0.303061224,1,0,0,0.81,button_right_test,0,63,63,75,1
,,,,,,,,,,,,,,,,,61000a532ea4226e8548eb48,31,2022-02-12_17h43.02.987,lexical_decision_task_DD_L6,2021.2.3,iPhone,58.82352941,,,,,,,,,,0.845,1,,,,,,,,,,,,,,,,,,,,,,,0.331632653,-0.32755102,1,0,0,,,,,,,LAGOON,HB,m,y,./images/LAGOONHB.png,,,,,,,,,,,,,,,,,,,,,0,0.331632653,-0.32755102,1,0,0,0.845,button_right_test,0,64,64,47,1
,,,,,,,,,,,,,,,,,61000a532ea4226e8548eb48,31,2022-02-12_17h43.02.987,lexical_decision_task_DD_L6,2021.2.3,iPhone,58.82352941,,,,,,,,,,0.726,1,,,,,,,,,,,,,,,,,,,,,,,0.342857143,-0.33877551,1,0,0,,,,,,,CANOE,C,m,y,./images/CANOE.png,,,,,,,,,,,,,,,,,,,,,0,0.342857143,-0.33877551,1,0,0,0.726,button_right_test,0,65,65,58,1
,,,,,,,,,,,,,,,,,61000a532ea4226e8548eb48,31,2022-02-12_17h43.02.987,lexical_decision_task_DD_L6,2021.2.3,iPhone,58.82352941,,,,,,,,,,0.844,1,,,,,,,,,,,,,,,,,,,,,,,0.357142857,-0.343877551,1,0,0,,,,,,,STOOL,C,m,y,./images/STOOL.png,,,,,,,,,,,,,,,,,,,,,0,0.357142857,-0.343877551,1,0,0,0.844,button_right_test,0,66,66,43,1
,,,,,,,,,,,,,,,,,61000a532ea4226e8548eb48,31,2022-02-12_17h43.02.987,lexical_decision_task_DD_L6,2021.2.3,iPhone,58.82352941,,,,,,,,,,0.86,1,,,,,,,,,,,,,,,,,,,,,,,-0.348979592,-0.273469388,1,0,0,,,,,,,SHORE,LB,z,y,./images/SHORELB.png,,,,,,,,,,,,,,,,,,,,,0,-0.348979592,-0.273469388,1,0,0,0.86,button_left_test,0,67,67,96,1
,,,,,,,,,,,,,,,,,61000a532ea4226e8548eb48,31,2022-02-12_17h43.02.987,lexical_decision_task_DD_L6,2021.2.3,iPhone,58.82352941,,,,,,,,,,0.91,1,,,,,,,,,,,,,,,,,,,,,,,-0.41122449,-0.312244898,1,0,0,,,,,,,BERRY,HB,z,y,./images/BERRYHB.png,,,,,,,,,,,,,,,,,,,,,0,-0.41122449,-0.312244898,1,0,0,0.91,button_left_test,0,68,68,131,1
,,,,,,,,,,,,,,,,,61000a532ea4226e8548eb48,31,2022-02-12_17h43.02.987,lexical_decision_task_DD_L6,2021.2.3,iPhone,58.82352941,,,,,,,,,,0.823,0,,,,,,,,,,,,,,,,,,,,,,,0.380612245,-0.32244898,1,0,0,,,,,,,DRUMS,C,z,y,./images/DRUMS.png,,,,,,,,,,,,,,,,,,,,,0,0.380612245,-0.32244898,1,0,0,0.823,button_right_test,0,69,69,133,1
,,,,,,,,,,,,,,,,,61000a532ea4226e8548eb48,31,2022-02-12_17h43.02.987,lexical_decision_task_DD_L6,2021.2.3,iPhone,58.82352941,,,,,,,,,,0.794,1,,,,,,,,,,,,,,,,,,,,,,,-0.37755102,-0.339795918,1,0,0,,,,,,,TWINS,LB,z,y,./images/TWINSLB.png,,,,,,,,,,,,,,,,,,,,,0,-0.37755102,-0.339795918,1,0,0,0.794,button_left_test,0,70,70,144,1
,,,,,,,,,,,,,,,,,61000a532ea4226e8548eb48,31,2022-02-12_17h43.02.987,lexical_decision_task_DD_L6,2021.2.3,iPhone,58.82352941,,,,,,,,,,0.927,1,,,,,,,,,,,,,,,,,,,,,,,0.346938776,-0.332653061,1,0,0,,,,,,,MAMMAL,HB,m,y,./images/MAMMALHB.png,,,,,,,,,,,,,,,,,,,,,0,0.346938776,-0.332653061,1,0,0,0.927,button_right_test,0,71,71,62,1
,,,,,,,,,,,,,,,,,61000a532ea4226e8548eb48,31,2022-02-12_17h43.02.987,lexical_decision_task_DD_L6,2021.2.3,iPhone,58.82352941,,,,,,,,,,1.045,0,,,,,,,,,,,,,,,,,,,,,,,0.36122449,-0.325510204,1,0,0,,,,,,,WRIST,C,z,y,./images/WRIST.png,,,,,,,,,,,,,,,,,,,,,0,0.36122449,-0.325510204,1,0,0,1.045,button_right_test,0,72,72,109,1
,,,,,,,,,,,,,,,,,61000a532ea4226e8548eb48,31,2022-02-12_17h43.02.987,lexical_decision_task_DD_L6,2021.2.3,iPhone,58.82352941,,,,,,,,,,2.16,1,,,,,,,,,,,,,,,,,,,,,,,0.368367347,-0.305102041,1,0,0,,,,,,,LLAMA,HB,m,y,./images/LLAMAHB.png,,,,,,,,,,,,,,,,,,,,,0,0.368367347,-0.305102041,1,0,0,2.16,button_right_test,0,73,73,35,1
,,,,,,,,,,,,,,,,,61000a532ea4226e8548eb48,31,2022-02-12_17h43.02.987,lexical_decision_task_DD_L6,2021.2.3,iPhone,58.82352941,,,,,,,,,,1.178,0,,,,,,,,,,,,,,,,,,,,,,,-0.413265306,-0.290816327,1,0,0,,,,,,,STREAM,HB,m,y,./images/STREAMHB.png,,,,,,,,,,,,,,,,,,,,,0,-0.413265306,-0.290816327,1,0,0,1.178,button_left_test,0,74,74,41,1
,,,,,,,,,,,,,,,,,61000a532ea4226e8548eb48,31,2022-02-12_17h43.02.987,lexical_decision_task_DD_L6,2021.2.3,iPhone,58.82352941,,,,,,,,,,1.145,1,,,,,,,,,,,,,,,,,,,,,,,0.352040816,-0.344897959,1,0,0,,,,,,,CHERRY,LB,m,y,./images/CHERRYLB.png,,,,,,,,,,,,,,,,,,,,,0,0.352040816,-0.344897959,1,0,0,1.145,button_right_test,0,75,75,54,1
,,,,,,,,,,,,,,,,,61000a532ea4226e8548eb48,31,2022-02-12_17h43.02.987,lexical_decision_task_DD_L6,2021.2.3,iPhone,58.82352941,,,,,,,,,,0.892,1,,,,,,,,,,,,,,,,,,,,,,,-0.379591837,-0.369387755,1,0,0,,,,,,,PASTA,HB,z,y,./images/PASTAHB.png,,,,,,,,,,,,,,,,,,,,,0,-0.379591837,-0.369387755,1,0,0,0.892,button_left_test,0,76,76,89,1
,,,,,,,,,,,,,,,,,61000a532ea4226e8548eb48,31,2022-02-12_17h43.02.987,lexical_decision_task_DD_L6,2021.2.3,iPhone,58.82352941,,,,,,,,,,0.862,1,,,,,,,,,,,,,,,,,,,,,,,-0.374489796,-0.32755102,1,0,0,,,,,,,NOOSE,LB,z,y,./images/NOOSELB.png,,,,,,,,,,,,,,,,,,,,,0,-0.374489796,-0.32755102,1,0,0,0.862,button_left_test,0,77,77,156,1
,,,,,,,,,,,,,,,,,61000a532ea4226e8548eb48,31,2022-02-12_17h43.02.987,lexical_decision_task_DD_L6,2021.2.3,iPhone,58.82352941,,,,,,,,,,0.893,1,,,,,,,,,,,,,,,,,,,,,,,0.368367347,-0.320408163,1,0,0,,,,,,,FLESH,LB,m,y,./images/FLESHLB.png,,,,,,,,,,,,,,,,,,,,,0,0.368367347,-0.320408163,1,0,0,0.893,button_right_test,0,78,78,24,1
,,,,,,,,,,,,,,,,,61000a532ea4226e8548eb48,31,2022-02-12_17h43.02.987,lexical_decision_task_DD_L6,2021.2.3,iPhone,58.82352941,,,,,,,,,,0.977,1,,,,,,,,,,,,,,,,,,,,,,,0.35,-0.32755102,1,0,0,,,,,,,POSTER,HB,m,y,./images/POSTERHB.png,,,,,,,,,,,,,,,,,,,,,0,0.35,-0.32755102,1,0,0,0.977,button_right_test,0,79,79,53,1
,,,,,,,,,,,,,,,,,61000a532ea4226e8548eb48,31,2022-02-12_17h43.02.987,lexical_decision_task_DD_L6,2021.2.3,iPhone,58.82352941,,,,,,,,,,1.076,1,,,,,,,,,,,,,,,,,,,,,,,-0.36122449,-0.326530612,1,0,0,,,,,,,PENCE,C,z,y,./images/PENCE.png,,,,,,,,,,,,,,,,,,,,,0,-0.36122449,-0.326530612,1,0,0,1.076,button_left_test,0,80,80,100,1
,,,,,,,,,,,,,,,,,61000a532ea4226e8548eb48,31,2022-02-12_17h43.02.987,lexical_decision_task_DD_L6,2021.2.3,iPhone,58.82352941,,,,,,,,,,0.925,1,,,,,,,,,,,,,,,,,,,,,,,0.381632653,-0.306122449,1,0,0,,,,,,,BLOKE,LB,m,y,./images/BLOKELB.png,,,,,,,,,,,,,,,,,,,,,0,0.381632653,-0.306122449,1,0,0,0.925,button_right_test,0,81,81,12,1
,,,,,,,,,,,,,,,,,61000a532ea4226e8548eb48,31,2022-02-12_17h43.02.987,lexical_decision_task_DD_L6,2021.2.3,iPhone,58.82352941,,,,,,,,,,0.876,1,,,,,,,,,,,,,,,,,,,,,,,-0.378571429,-0.318367347,1,0,0,,,,,,,RHINO,LB,z,y,./images/RHINOLB.png,,,,,,,,,,,,,,,,,,,,,0,-0.378571429,-0.318367347,1,0,0,0.876,button_left_test,0,82,82,93,1
,,,,,,,,,,,,,,,,,61000a532ea4226e8548eb48,31,2022-02-12_17h43.02.987,lexical_decision_task_DD_L6,2021.2.3,iPhone,58.82352941,,,,,,,,,,0.929,1,,,,,,,,,,,,,,,,,,,,,,,0.131632653,-0.4,1,0,0,,,,,,,FINGER,LB,z,y,./images/FINGERLB.png,break_done_button,,,,,,,,,,,,,,,,,,,,0,-0.42244898,-0.313265306,1,0,0,0.929,button_left_test,0,83,83,87,1
,,,,,,,,,,,,,,,,,61000a532ea4226e8548eb48,31,2022-02-12_17h43.02.987,lexical_decision_task_DD_L6,2021.2.3,iPhone,58.82352941,,,,,,,,,,0.857,1,,,,,,,,,,,,,,,,,,,,,,,-0.404081633,-0.306122449,1,0,0,,,,,,,MOTOR,C,z,y,./images/MOTOR.png,,,,,,,,,,,,,,,,,,,,,0,-0.404081633,-0.306122449,1,0,0,0.857,button_left_test,0,84,84,97,1
,,,,,,,,,,,,,,,,,61000a532ea4226e8548eb48,31,2022-02-12_17h43.02.987,lexical_decision_task_DD_L6,2021.2.3,iPhone,58.82352941,,,,,,,,,,0.859,1,,,,,,,,,,,,,,,,,,,,,,,-0.403061224,-0.304081633,1,0,0,,,,,,,MOSQUE,C,z,y,./images/MOSQUE.png,,,,,,,,,,,,,,,,,,,,,0,-0.403061224,-0.304081633,1,0,0,0.859,button_left_test,0,85,85,127,1
,,,,,,,,,,,,,,,,,61000a532ea4226e8548eb48,31,2022-02-12_17h43.02.987,lexical_decision_task_DD_L6,2021.2.3,iPhone,58.82352941,,,,,,,,,,0.727,1,,,,,,,,,,,,,,,,,,,,,,,-0.402040816,-0.328571429,1,0,0,,,,,,,INFANT,C,z,y,./images/INFANT.png,,,,,,,,,,,,,,,,,,,,,0,-0.402040816,-0.328571429,1,0,0,0.727,button_left_test,0,86,86,160,1
,,,,,,,,,,,,,,,,,61000a532ea4226e8548eb48,31,2022-02-12_17h43.02.987,lexical_decision_task_DD_L6,2021.2.3,iPhone,58.82352941,,,,,,,,,,0.746,1,,,,,,,,,,,,,,,,,,,,,,,0.356122449,-0.316326531,1,0,0,,,,,,,WHEEL,HB,m,y,./images/WHEELHB.png,,,,,,,,,,,,,,,,,,,,,0,0.356122449,-0.316326531,1,0,0,0.746,button_right_test,0,87,87,77,1
,,,,,,,,,,,,,,,,,61000a532ea4226e8548eb48,31,2022-02-12_17h43.02.987,lexical_decision_task_DD_L6,2021.2.3,iPhone,58.82352941,,,,,,,,,,0.893,1,,,,,,,,,,,,,,,,,,,,,,,-0.404081633,-0.32755102,1,0,0,,,,,,,MELON,C,z,y,./images/MELON.png,,,,,,,,,,,,,,,,,,,,,0,-0.404081633,-0.32755102,1,0,0,0.893,button_left_test,0,88,88,106,1
,,,,,,,,,,,,,,,,,61000a532ea4226e8548eb48,31,2022-02-12_17h43.02.987,lexical_decision_task_DD_L6,2021.2.3,iPhone,58.82352941,,,,,,,,,,0.944,1,,,,,,,,,,,,,,,,,,,,,,,0.351020408,-0.346938776,1,0,0,,,,,,,STATUE,LB,m,y,./images/STATUELB.png,,,,,,,,,,,,,,,,,,,,,0,0.351020408,-0.346938776,1,0,0,0.944,button_right_test,0,89,89,66,1
,,,,,,,,,,,,,,,,,61000a532ea4226e8548eb48,31,2022-02-12_17h43.02.987,lexical_decision_task_DD_L6,2021.2.3,iPhone,58.82352941,,,,,,,,,,1.045,0,,,,,,,,,,,,,,,,,,,,,,,0.331632653,-0.32244898,1,0,0,,,,,,,CRADLE,HB,z,y,./images/CRADLEHB.png,,,,,,,,,,,,,,,,,,,,,0,0.331632653,-0.32244898,1,0,0,1.045,button_right_test,0,90,90,104,1
,,,,,,,,,,,,,,,,,61000a532ea4226e8548eb48,31,2022-02-12_17h43.02.987,lexical_decision_task_DD_L6,2021.2.3,iPhone,58.82352941,,,,,,,,,,0.644,1,,,,,,,,,,,,,,,,,,,,,,,-0.394897959,-0.281632653,1,0,0,,,,,,,PIMPLE,HB,z,y,./images/PIMPLEHB.png,,,,,,,,,,,,,,,,,,,,,0,-0.394897959,-0.281632653,1,0,0,0.644,button_left_test,0,91,91,155,1
,,,,,,,,,,,,,,,,,61000a532ea4226e8548eb48,31,2022-02-12_17h43.02.987,lexical_decision_task_DD_L6,2021.2.3,iPhone,58.82352941,,,,,,,,,,0.711,1,,,,,,,,,,,,,,,,,,,,,,,0.358163265,-0.341836735,1,0,0,,,,,,,STOVE,HB,m,y,./images/STOVEHB.png,,,,,,,,,,,,,,,,,,,,,0,0.358163265,-0.341836735,1,0,0,0.711,button_right_test,0,92,92,2,1
,,,,,,,,,,,,,,,,,61000a532ea4226e8548eb48,31,2022-02-12_17h43.02.987,lexical_decision_task_DD_L6,2021.2.3,iPhone,58.82352941,,,,,,,,,,0.978,1,,,,,,,,,,,,,,,,,,,,,,,-0.413265306,-0.266326531,1,0,0,,,,,,,CANYON,C,z,y,./images/CANYON.png,,,,,,,,,,,,,,,,,,,,,0,-0.413265306,-0.266326531,1,0,0,0.978,button_left_test,0,93,93,118,1
,,,,,,,,,,,,,,,,,61000a532ea4226e8548eb48,31,2022-02-12_17h43.02.987,lexical_decision_task_DD_L6,2021.2.3,iPhone,58.82352941,,,,,,,,,,0.844,1,,,,,,,,,,,,,,,,,,,,,,,0.363265306,-0.318367347,1,0,0,,,,,,,TIGER,C,m,y,./images/TIGER.png,,,,,,,,,,,,,,,,,,,,,0,0.363265306,-0.318367347,1,0,0,0.844,button_right_test,0,94,94,37,1
,,,,,,,,,,,,,,,,,61000a532ea4226e8548eb48,31,2022-02-12_17h43.02.987,lexical_decision_task_DD_L6,2021.2.3,iPhone,58.82352941,,,,,,,,,,1.125,1,,,,,,,,,,,,,,,,,,,,,,,0.351020408,-0.334693878,1,0,0,,,,,,,DIVER,LB,m,y,./images/DIVERLB.png,,,,,,,,,,,,,,,,,,,,,0,0.351020408,-0.334693878,1,0,0,1.125,button_right_test,0,95,95,9,1
,,,,,,,,,,,,,,,,,61000a532ea4226e8548eb48,31,2022-02-12_17h43.02.987,lexical_decision_task_DD_L6,2021.2.3,iPhone,58.82352941,,,,,,,,,,1.128,0,,,,,,,,,,,,,,,,,,,,,,,-0.375510204,-0.321428571,1,0,0,,,,,,,WHISKY,HB,m,y,./images/WHISKYHB.png,,,,,,,,,,,,,,,,,,,,,0,-0.375510204,-0.321428571,1,0,0,1.128,button_left_test,0,96,96,83,1
,,,,,,,,,,,,,,,,,61000a532ea4226e8548eb48,31,2022-02-12_17h43.02.987,lexical_decision_task_DD_L6,2021.2.3,iPhone,58.82352941,,,,,,,,,,0.911,1,,,,,,,,,,,,,,,,,,,,,,,-0.402040816,-0.310204082,1,0,0,,,,,,,SKIING,HB,z,y,./images/SKIINGHB.png,,,,,,,,,,,,,,,,,,,,,0,-0.402040816,-0.310204082,1,0,0,0.911,button_left_test,0,97,97,101,1
