key_resp.keys,key_resp.rt,instr_done_touch.x,instr_done_touch.y,instr_done_touch.leftButton,instr_done_touch.midButton,instr_done_touch.rightButton,instruction_pages.thisRepN,instruction_pages.thisTrialN,instruction_pages.thisN,instruction_pages.thisIndex,instruction_pages.ran,pageN,phase,instruct_text,has_image,instruct_image,participant,age,date,expName,psychopyVersion,OS,frameRate,response.keys,response.corr,response.rt,touch_resp.x,touch_resp.y,touch_resp.leftButton,touch_resp.midButton,touch_resp.rightButton,touch_resp.time,touch_resp.clicked_name,rt,corr,practrials.thisRepN,practrials.thisTrialN,practrials.thisN,practrials.thisIndex,practrials.ran,TrialID,Target,corrAns,instr_done_touch.clicked_name,end_of_practice_trials_pages.thisRepN,end_of_practice_trials_pages.thisTrialN,end_of_practice_trials_pages.thisN,end_of_practice_trials_pages.thisIndex,end_of_practice_trials_pages.ran,key_resp_2.keys,key_resp_2.corr,key_resp_2.rt,targ_click.x,targ_click.y,targ_click.leftButton,targ_click.midButton,targ_click.rightButton,targ_click.time,targ_click.clicked_name,break_done_touch.x,break_done_touch.y,break_done_touch.leftButton,break_done_touch.midButton,break_done_touch.rightButton,break_done_keyboard.keys,maintrials.thisRepN,maintrials.thisTrialN,maintrials.thisN,maintrials.thisIndex,maintrials.ran,string,blur,study,lex,stim_path,break_done_touch.clicked_name,mouse_2.x,mouse_2.y,mouse_2.leftButton,mouse_2.midButton,mouse_2.rightButton,mouse_2.clicked_name,slider.response,slider.rt,trials.thisRepN,trials.thisTrialN,trials.thisN,trials.thisIndex,trials.ran,test_instructions.thisRepN,test_instructions.thisTrialN,test_instructions.thisN,test_instructions.thisIndex,test_instructions.ran,key_resp_3.keys,key_resp_3.corr,key_resp_3.rt,test_click.x,test_click.y,test_click.leftButton,test_click.midButton,test_click.rightButton,test_click.time,test_click.clicked_name,test_phase.thisRepN,test_phase.thisTrialN,test_phase.thisN,test_phase.thisIndex,test_phase.ran,break_done_keyboard.rt
space,1.983,0.018888889,-0.386666667,0,0,0,0,0,0,0,1,1,instructions,"INSTRUCTIONS
At the start of each trial, look at the plus sign  (+) in the center of the screen.  This tells you that a trial is about to begin and where to look. Second, the plus sign will disappear and a string of letters will appear. Your task is to determine if the string of letters is a word or not. If the item is a word press the M key (on keyboard)  or touch the word button (phone/tablet).  If the item is not a word,  press the  Z key (on keyboard)  or touch the nonword button (on phone/tablet). 
Press the space bar or touch  continue.",0,,6101dba30506a0ab5e18c194,20,2022-02-12_17h41.35.234,lexical_decision_task_DD_L6,2021.2.3,MacIntel,58.82352941,,,,,,,,,,,,,,,,,,,,,,,,,,,,,,,,,,,,,,,,,,,,,,,,,,,,,,,,,,,,,,,,,,,,,,,,,,,,,,,,,,,,,,,
space,7.721,0.12,-0.391111111,0,0,0,0,1,1,1,1,2,instructions,"If your device has a keyboard, press the 'Z' key for nonwords and the 'M' key for words.





Press the space bar or touch the button below to continue.",0,keyboard-example.gif,6101dba30506a0ab5e18c194,20,2022-02-12_17h41.35.234,lexical_decision_task_DD_L6,2021.2.3,MacIntel,58.82352941,,,,,,,,,,,,,,,,,,,,,,,,,,,,,,,,,,,,,,,,,,,,,,,,,,,,,,,,,,,,,,,,,,,,,,,,,,,,,,,,,,,,,,,
space,3.375,0.12,-0.391111111,0,0,0,0,2,2,2,1,3,instructions,"If you are using a touchscreen only device, use the buttons on the screen. Do not use the mouse.





Press the space bar or touch the button below to continue.",0,touchscreen-example.gif,6101dba30506a0ab5e18c194,20,2022-02-12_17h41.35.234,lexical_decision_task_DD_L6,2021.2.3,MacIntel,58.82352941,,,,,,,,,,,,,,,,,,,,,,,,,,,,,,,,,,,,,,,,,,,,,,,,,,,,,,,,,,,,,,,,,,,,,,,,,,,,,,,,,,,,,,,
space,3.653,0.12,-0.391111111,0,0,0,0,3,3,3,1,4,instructions,"It is very important that you respond as quickly and accurately as possible, as each letter string will only be on the screen for two seconds. If you do not respond within this time, the message 'Too slow!' will be displayed and the experiment will progress to the next letter string. The first 20 trials will be practice trials and you will receive feedback on your answers. 

Press the space bar or touch the button below to start the practice trials.",0,,6101dba30506a0ab5e18c194,20,2022-02-12_17h41.35.234,lexical_decision_task_DD_L6,2021.2.3,MacIntel,58.82352941,,,,,,,,,,,,,,,,,,,,,,,,,,,,,,,,,,,,,,,,,,,,,,,,,,,,,,,,,,,,,,,,,,,,,,,,,,,,,,,,,,,,,,,
,,,,,,,,,,,,,,,,,6101dba30506a0ab5e18c194,20,2022-02-12_17h41.35.234,lexical_decision_task_DD_L6,2021.2.3,MacIntel,58.82352941,z,1,3.954,,,,,,,,3.954,1,0,0,0,11,1,1001,RASHET,z,,,,,,,,,,,,,,,,,,,,,,,,,,,,,,,,,,,,,,,,,,,,,,,,,,,,,,,,,,,,,,,,,,,
,,,,,,,,,,,,,,,,,6101dba30506a0ab5e18c194,20,2022-02-12_17h41.35.234,lexical_decision_task_DD_L6,2021.2.3,MacIntel,58.82352941,m,1,1.137,,,,,,,,1.137,1,0,1,1,3,1,1001,MATRIX,m,,,,,,,,,,,,,,,,,,,,,,,,,,,,,,,,,,,,,,,,,,,,,,,,,,,,,,,,,,,,,,,,,,,
,,,,,,,,,,,,,,,,,6101dba30506a0ab5e18c194,20,2022-02-12_17h41.35.234,lexical_decision_task_DD_L6,2021.2.3,MacIntel,58.82352941,z,1,1.03,,,,,,,,1.03,1,0,2,2,14,1,1001,THRALE,z,,,,,,,,,,,,,,,,,,,,,,,,,,,,,,,,,,,,,,,,,,,,,,,,,,,,,,,,,,,,,,,,,,,
,,,,,,,,,,,,,,,,,6101dba30506a0ab5e18c194,20,2022-02-12_17h41.35.234,lexical_decision_task_DD_L6,2021.2.3,MacIntel,58.82352941,m,0,0.895,,,,,,,,0.895,0,0,3,3,13,1,1001,ROUPET,z,,,,,,,,,,,,,,,,,,,,,,,,,,,,,,,,,,,,,,,,,,,,,,,,,,,,,,,,,,,,,,,,,,,
,,,,,,,,,,,,,,,,,6101dba30506a0ab5e18c194,20,2022-02-12_17h41.35.234,lexical_decision_task_DD_L6,2021.2.3,MacIntel,58.82352941,m,1,0.785,,,,,,,,0.785,1,0,4,4,4,1,1001,SQUEAK,m,,,,,,,,,,,,,,,,,,,,,,,,,,,,,,,,,,,,,,,,,,,,,,,,,,,,,,,,,,,,,,,,,,,
,,,,,,,,,,,,,,,,,6101dba30506a0ab5e18c194,20,2022-02-12_17h41.35.234,lexical_decision_task_DD_L6,2021.2.3,MacIntel,58.82352941,m,1,0.53,,,,,,,,0.53,1,0,5,5,7,1,1001,VOLUME,m,,,,,,,,,,,,,,,,,,,,,,,,,,,,,,,,,,,,,,,,,,,,,,,,,,,,,,,,,,,,,,,,,,,
,,,,,,,,,,,,,,,,,6101dba30506a0ab5e18c194,20,2022-02-12_17h41.35.234,lexical_decision_task_DD_L6,2021.2.3,MacIntel,58.82352941,z,1,0.746,,,,,,,,0.746,1,0,6,6,8,1,1001,ASLERT,z,,,,,,,,,,,,,,,,,,,,,,,,,,,,,,,,,,,,,,,,,,,,,,,,,,,,,,,,,,,,,,,,,,,
,,,,,,,,,,,,,,,,,6101dba30506a0ab5e18c194,20,2022-02-12_17h41.35.234,lexical_decision_task_DD_L6,2021.2.3,MacIntel,58.82352941,z,1,0.914,,,,,,,,0.914,1,0,7,7,15,1,1001,WHAISE,z,,,,,,,,,,,,,,,,,,,,,,,,,,,,,,,,,,,,,,,,,,,,,,,,,,,,,,,,,,,,,,,,,,,
,,,,,,,,,,,,,,,,,6101dba30506a0ab5e18c194,20,2022-02-12_17h41.35.234,lexical_decision_task_DD_L6,2021.2.3,MacIntel,58.82352941,m,1,0.632,,,,,,,,0.632,1,0,8,8,5,1,1001,OBTAIN,m,,,,,,,,,,,,,,,,,,,,,,,,,,,,,,,,,,,,,,,,,,,,,,,,,,,,,,,,,,,,,,,,,,,
,,,,,,,,,,,,,,,,,6101dba30506a0ab5e18c194,20,2022-02-12_17h41.35.234,lexical_decision_task_DD_L6,2021.2.3,MacIntel,58.82352941,z,1,0.917,,,,,,,,0.917,1,0,9,9,12,1,1001,SPRINY,z,,,,,,,,,,,,,,,,,,,,,,,,,,,,,,,,,,,,,,,,,,,,,,,,,,,,,,,,,,,,,,,,,,,
,,,,,,,,,,,,,,,,,6101dba30506a0ab5e18c194,20,2022-02-12_17h41.35.234,lexical_decision_task_DD_L6,2021.2.3,MacIntel,58.82352941,m,1,0.549,,,,,,,,0.549,1,0,10,10,1,1,1001,ADJUST,m,,,,,,,,,,,,,,,,,,,,,,,,,,,,,,,,,,,,,,,,,,,,,,,,,,,,,,,,,,,,,,,,,,,
,,,,,,,,,,,,,,,,,6101dba30506a0ab5e18c194,20,2022-02-12_17h41.35.234,lexical_decision_task_DD_L6,2021.2.3,MacIntel,58.82352941,z,1,1.567,,,,,,,,1.567,1,0,11,11,9,1,1001,FARINY,z,,,,,,,,,,,,,,,,,,,,,,,,,,,,,,,,,,,,,,,,,,,,,,,,,,,,,,,,,,,,,,,,,,,
,,,,,,,,,,,,,,,,,6101dba30506a0ab5e18c194,20,2022-02-12_17h41.35.234,lexical_decision_task_DD_L6,2021.2.3,MacIntel,58.82352941,m,1,0.608,,,,,,,,0.608,1,0,12,12,6,1,1001,ZOMBIE,m,,,,,,,,,,,,,,,,,,,,,,,,,,,,,,,,,,,,,,,,,,,,,,,,,,,,,,,,,,,,,,,,,,,
,,,,,,,,,,,,,,,,,6101dba30506a0ab5e18c194,20,2022-02-12_17h41.35.234,lexical_decision_task_DD_L6,2021.2.3,MacIntel,58.82352941,m,1,0.548,,,,,,,,0.548,1,0,13,13,2,1,1001,ALMOND,m,,,,,,,,,,,,,,,,,,,,,,,,,,,,,,,,,,,,,,,,,,,,,,,,,,,,,,,,,,,,,,,,,,,
,,,,,,,,,,,,,,,,,6101dba30506a0ab5e18c194,20,2022-02-12_17h41.35.234,lexical_decision_task_DD_L6,2021.2.3,MacIntel,58.82352941,m,1,0.596,,,,,,,,0.596,1,0,14,14,0,1,1001,UTOPIA,m,,,,,,,,,,,,,,,,,,,,,,,,,,,,,,,,,,,,,,,,,,,,,,,,,,,,,,,,,,,,,,,,,,,
,,,,,,,,,,,,,,,,,6101dba30506a0ab5e18c194,20,2022-02-12_17h41.35.234,lexical_decision_task_DD_L6,2021.2.3,MacIntel,58.82352941,z,1,0.798,,,,,,,,0.798,1,0,15,15,10,1,1001,INLADE,z,,,,,,,,,,,,,,,,,,,,,,,,,,,,,,,,,,,,,,,,,,,,,,,,,,,,,,,,,,,,,,,,,,,
,,-0.045555556,-0.428888889,1,0,0,,,,,,1,end_of_practice,"You have completed the practice trials. During the experimental trials, you will not receive feedback. 
Before you begin, please ensure that you are in a comfortable and quiet location and will not be disturbed for about 15 minutes, as we cannot use your data if you do not complete all the trials. 
 When you are ready to start the experimental trials, please press space or touch the button below.",,,6101dba30506a0ab5e18c194,20,2022-02-12_17h41.35.234,lexical_decision_task_DD_L6,2021.2.3,MacIntel,58.82352941,,,,,,,,,,,,,,,,,,,,,instr_done_button,0,0,0,0,1,,,,,,,,,,,,,,,,,,,,,,,,,,,,,,,,,,,,,,,,,,,,,,,,,,,,,,,,,,,,,
,,,,,,,,,,,,,,,,,6101dba30506a0ab5e18c194,20,2022-02-12_17h41.35.234,lexical_decision_task_DD_L6,2021.2.3,MacIntel,58.82352941,,,,,,,,,,,0.676,1,,,,,,,,,,,,,,,z,1,0.676,,,,,,,,0.184444444,-0.141111111,0,0,0,,0,0,0,150,1,NOOLS,C,z,z,./images/NOOLS.png,,,,,,,,,,,,,,,,,,,,,,,,,,,,,,,,,,,
,,,,,,,,,,,,,,,,,6101dba30506a0ab5e18c194,20,2022-02-12_17h41.35.234,lexical_decision_task_DD_L6,2021.2.3,MacIntel,58.82352941,,,,,,,,,,,0.649,1,,,,,,,,,,,,,,,z,1,0.649,,,,,,,,0.184444444,-0.141111111,0,0,0,,0,1,1,90,1,NEAST,C,z,z,./images/NEAST.png,,,,,,,,,,,,,,,,,,,,,,,,,,,,,,,,,,,
,,,,,,,,,,,,,,,,,6101dba30506a0ab5e18c194,20,2022-02-12_17h41.35.234,lexical_decision_task_DD_L6,2021.2.3,MacIntel,58.82352941,,,,,,,,,,,1.029,0,,,,,,,,,,,,,,,m,0,1.029,,,,,,,,0.184444444,-0.141111111,0,0,0,,0,2,2,100,1,DRIBS,HB,z,z,./images/DRIBSHB.png,,,,,,,,,,,,,,,,,,,,,,,,,,,,,,,,,,,
,,,,,,,,,,,,,,,,,6101dba30506a0ab5e18c194,20,2022-02-12_17h41.35.234,lexical_decision_task_DD_L6,2021.2.3,MacIntel,58.82352941,,,,,,,,,,,0.649,1,,,,,,,,,,,,,,,m,1,0.649,,,,,,,,0.184444444,-0.141111111,0,0,0,,0,3,3,81,1,DRILL,LB,m,m,./images/DRILLLB.png,,,,,,,,,,,,,,,,,,,,,,,,,,,,,,,,,,,
,,,,,,,,,,,,,,,,,6101dba30506a0ab5e18c194,20,2022-02-12_17h41.35.234,lexical_decision_task_DD_L6,2021.2.3,MacIntel,58.82352941,,,,,,,,,,,0.737,1,,,,,,,,,,,,,,,z,1,0.737,,,,,,,,0.184444444,-0.141111111,0,0,0,,0,4,4,155,1,CANGY,LB,z,z,./images/CANGYLB.png,,,,,,,,,,,,,,,,,,,,,,,,,,,,,,,,,,,
,,,,,,,,,,,,,,,,,6101dba30506a0ab5e18c194,20,2022-02-12_17h41.35.234,lexical_decision_task_DD_L6,2021.2.3,MacIntel,58.82352941,,,,,,,,,,,1.716,1,,,,,,,,,,,,,,,m,1,1.716,,,,,,,,0.184444444,-0.141111111,0,0,0,,0,5,5,59,1,BRUSH,HB,m,m,./images/BRUSHHB.png,,,,,,,,,,,,,,,,,,,,,,,,,,,,,,,,,,,
,,,,,,,,,,,,,,,,,6101dba30506a0ab5e18c194,20,2022-02-12_17h41.35.234,lexical_decision_task_DD_L6,2021.2.3,MacIntel,58.82352941,,,,,,,,,,,1.482,1,,,,,,,,,,,,,,,m,1,1.482,,,,,,,,0.184444444,-0.141111111,0,0,0,,0,6,6,50,1,PILOT,HB,m,m,./images/PILOTHB.png,,,,,,,,,,,,,,,,,,,,,,,,,,,,,,,,,,,
,,,,,,,,,,,,,,,,,6101dba30506a0ab5e18c194,20,2022-02-12_17h41.35.234,lexical_decision_task_DD_L6,2021.2.3,MacIntel,58.82352941,,,,,,,,,,,0.655,1,,,,,,,,,,,,,,,z,1,0.655,,,,,,,,0.184444444,-0.141111111,0,0,0,,0,7,7,87,1,TRING,C,z,z,./images/TRING.png,,,,,,,,,,,,,,,,,,,,,,,,,,,,,,,,,,,
,,,,,,,,,,,,,,,,,6101dba30506a0ab5e18c194,20,2022-02-12_17h41.35.234,lexical_decision_task_DD_L6,2021.2.3,MacIntel,58.82352941,,,,,,,,,,,0.618,1,,,,,,,,,,,,,,,m,1,0.618,,,,,,,,0.184444444,-0.141111111,0,0,0,,0,8,8,23,1,CLOTH,HB,m,m,./images/CLOTHHB.png,,,,,,,,,,,,,,,,,,,,,,,,,,,,,,,,,,,
,,,,,,,,,,,,,,,,,6101dba30506a0ab5e18c194,20,2022-02-12_17h41.35.234,lexical_decision_task_DD_L6,2021.2.3,MacIntel,58.82352941,,,,,,,,,,,1.118,0,,,,,,,,,,,,,,,m,0,1.118,,,,,,,,0.184444444,-0.141111111,0,0,0,,0,9,9,130,1,CRILL,HB,z,z,./images/CRILLHB.png,,,,,,,,,,,,,,,,,,,,,,,,,,,,,,,,,,,
,,,,,,,,,,,,,,,,,6101dba30506a0ab5e18c194,20,2022-02-12_17h41.35.234,lexical_decision_task_DD_L6,2021.2.3,MacIntel,58.82352941,,,,,,,,,,,0.521,1,,,,,,,,,,,,,,,m,1,0.521,,,,,,,,0.184444444,-0.141111111,0,0,0,,0,10,10,73,1,GLOVE,C,m,m,./images/GLOVE.png,,,,,,,,,,,,,,,,,,,,,,,,,,,,,,,,,,,
,,,,,,,,,,,,,,,,,6101dba30506a0ab5e18c194,20,2022-02-12_17h41.35.234,lexical_decision_task_DD_L6,2021.2.3,MacIntel,58.82352941,,,,,,,,,,,0.368,1,,,,,,,,,,,,,,,m,1,0.368,,,,,,,,0.184444444,-0.141111111,0,0,0,,0,11,11,37,1,TIGER,C,m,m,./images/TIGER.png,,,,,,,,,,,,,,,,,,,,,,,,,,,,,,,,,,,
,,,,,,,,,,,,,,,,,6101dba30506a0ab5e18c194,20,2022-02-12_17h41.35.234,lexical_decision_task_DD_L6,2021.2.3,MacIntel,58.82352941,,,,,,,,,,,0.7,1,,,,,,,,,,,,,,,z,1,0.7,,,,,,,,0.184444444,-0.141111111,0,0,0,,0,12,12,119,1,PAFER,LB,z,z,./images/PAFERLB.png,,,,,,,,,,,,,,,,,,,,,,,,,,,,,,,,,,,
,,,,,,,,,,,,,,,,,6101dba30506a0ab5e18c194,20,2022-02-12_17h41.35.234,lexical_decision_task_DD_L6,2021.2.3,MacIntel,58.82352941,,,,,,,,,,,0.684,1,,,,,,,,,,,,,,,m,1,0.684,,,,,,,,0.184444444,-0.141111111,0,0,0,,0,13,13,58,1,CANOE,C,m,m,./images/CANOE.png,,,,,,,,,,,,,,,,,,,,,,,,,,,,,,,,,,,
,,,,,,,,,,,,,,,,,6101dba30506a0ab5e18c194,20,2022-02-12_17h41.35.234,lexical_decision_task_DD_L6,2021.2.3,MacIntel,58.82352941,,,,,,,,,,,0.634,1,,,,,,,,,,,,,,,m,1,0.634,,,,,,,,0.184444444,-0.141111111,0,0,0,,0,14,14,18,1,PARCEL,LB,m,m,./images/PARCELLB.png,,,,,,,,,,,,,,,,,,,,,,,,,,,,,,,,,,,
,,,,,,,,,,,,,,,,,6101dba30506a0ab5e18c194,20,2022-02-12_17h41.35.234,lexical_decision_task_DD_L6,2021.2.3,MacIntel,58.82352941,,,,,,,,,,,0.633,1,,,,,,,,,,,,,,,z,1,0.633,,,,,,,,0.184444444,-0.141111111,0,0,0,,0,15,15,113,1,LINEW,LB,z,z,./images/LINEWLB.png,,,,,,,,,,,,,,,,,,,,,,,,,,,,,,,,,,,
,,,,,,,,,,,,,,,,,6101dba30506a0ab5e18c194,20,2022-02-12_17h41.35.234,lexical_decision_task_DD_L6,2021.2.3,MacIntel,58.82352941,,,,,,,,,,,0.8,1,,,,,,,,,,,,,,,z,1,0.8,,,,,,,,0.184444444,-0.141111111,0,0,0,,0,16,16,153,1,CLUPS,C,z,z,./images/CLUPS.png,,,,,,,,,,,,,,,,,,,,,,,,,,,,,,,,,,,
,,,,,,,,,,,,,,,,,6101dba30506a0ab5e18c194,20,2022-02-12_17h41.35.234,lexical_decision_task_DD_L6,2021.2.3,MacIntel,58.82352941,,,,,,,,,,,0.496,1,,,,,,,,,,,,,,,m,1,0.496,,,,,,,,0.184444444,-0.141111111,0,0,0,,0,17,17,67,1,POKER,C,m,m,./images/POKER.png,,,,,,,,,,,,,,,,,,,,,,,,,,,,,,,,,,,
,,,,,,,,,,,,,,,,,6101dba30506a0ab5e18c194,20,2022-02-12_17h41.35.234,lexical_decision_task_DD_L6,2021.2.3,MacIntel,58.82352941,,,,,,,,,,,0.566,1,,,,,,,,,,,,,,,m,1,0.566,,,,,,,,0.184444444,-0.141111111,0,0,0,,0,18,18,72,1,FLASK,LB,m,m,./images/FLASKLB.png,,,,,,,,,,,,,,,,,,,,,,,,,,,,,,,,,,,
,,,,,,,,,,,,,,,,,6101dba30506a0ab5e18c194,20,2022-02-12_17h41.35.234,lexical_decision_task_DD_L6,2021.2.3,MacIntel,58.82352941,,,,,,,,,,,0.504,1,,,,,,,,,,,,,,,m,1,0.504,,,,,,,,0.184444444,-0.141111111,0,0,0,,0,19,19,48,1,SHIELD,LB,m,m,./images/SHIELDLB.png,,,,,,,,,,,,,,,,,,,,,,,,,,,,,,,,,,,
,,,,,,,,,,,,,,,,,6101dba30506a0ab5e18c194,20,2022-02-12_17h41.35.234,lexical_decision_task_DD_L6,2021.2.3,MacIntel,58.82352941,,,,,,,,,,,0.502,1,,,,,,,,,,,,,,,z,1,0.502,,,,,,,,0.184444444,-0.141111111,0,0,0,,0,20,20,165,1,TROWN,C,z,z,./images/TROWN.png,,,,,,,,,,,,,,,,,,,,,,,,,,,,,,,,,,,
,,,,,,,,,,,,,,,,,6101dba30506a0ab5e18c194,20,2022-02-12_17h41.35.234,lexical_decision_task_DD_L6,2021.2.3,MacIntel,58.82352941,,,,,,,,,,,0.628,1,,,,,,,,,,,,,,,z,1,0.628,,,,,,,,0.184444444,-0.141111111,0,0,0,,0,21,21,146,1,MOOST,LB,z,z,./images/MOOSTLB.png,,,,,,,,,,,,,,,,,,,,,,,,,,,,,,,,,,,
,,,,,,,,,,,,,,,,,6101dba30506a0ab5e18c194,20,2022-02-12_17h41.35.234,lexical_decision_task_DD_L6,2021.2.3,MacIntel,58.82352941,,,,,,,,,,,0.503,1,,,,,,,,,,,,,,,m,1,0.503,,,,,,,,0.184444444,-0.141111111,0,0,0,,0,22,22,7,1,WAGON,C,m,m,./images/WAGON.png,,,,,,,,,,,,,,,,,,,,,,,,,,,,,,,,,,,
,,,,,,,,,,,,,,,,,6101dba30506a0ab5e18c194,20,2022-02-12_17h41.35.234,lexical_decision_task_DD_L6,2021.2.3,MacIntel,58.82352941,,,,,,,,,,,0.457,1,,,,,,,,,,,,,,,m,1,0.457,,,,,,,,0.184444444,-0.141111111,0,0,0,,0,23,23,16,1,GRAPE,C,m,m,./images/GRAPE.png,,,,,,,,,,,,,,,,,,,,,,,,,,,,,,,,,,,
,,,,,,,,,,,,,,,,,6101dba30506a0ab5e18c194,20,2022-02-12_17h41.35.234,lexical_decision_task_DD_L6,2021.2.3,MacIntel,58.82352941,,,,,,,,,,,2.714,1,,,,,,,,,,,,,,,z,1,2.714,,,,,,,,0.184444444,-0.141111111,0,0,0,,0,24,24,127,1,NINDY,HB,z,z,./images/NINDYHB.png,,,,,,,,,,,,,,,,,,,,,,,,,,,,,,,,,,,
,,,,,,,,,,,,,,,,,6101dba30506a0ab5e18c194,20,2022-02-12_17h41.35.234,lexical_decision_task_DD_L6,2021.2.3,MacIntel,58.82352941,,,,,,,,,,,0.633,1,,,,,,,,,,,,,,,z,1,0.633,,,,,,,,0.184444444,-0.141111111,0,0,0,,0,25,25,125,1,MOOKY,LB,z,z,./images/MOOKYLB.png,,,,,,,,,,,,,,,,,,,,,,,,,,,,,,,,,,,
,,,,,,,,,,,,,,,,,6101dba30506a0ab5e18c194,20,2022-02-12_17h41.35.234,lexical_decision_task_DD_L6,2021.2.3,MacIntel,58.82352941,,,,,,,,,,,0.569,1,,,,,,,,,,,,,,,m,1,0.569,,,,,,,,0.184444444,-0.141111111,0,0,0,,0,26,26,63,1,BAKER,LB,m,m,./images/BAKERLB.png,,,,,,,,,,,,,,,,,,,,,,,,,,,,,,,,,,,
,,,,,,,,,,,,,,,,,6101dba30506a0ab5e18c194,20,2022-02-12_17h41.35.234,lexical_decision_task_DD_L6,2021.2.3,MacIntel,58.82352941,,,,,,,,,,,0.493,1,,,,,,,,,,,,,,,z,1,0.493,,,,,,,,0.184444444,-0.141111111,0,0,0,,0,27,27,147,1,ZOLES,C,z,z,./images/ZOLES.png,,,,,,,,,,,,,,,,,,,,,,,,,,,,,,,,,,,
,,,,,,,,,,,,,,,,,6101dba30506a0ab5e18c194,20,2022-02-12_17h41.35.234,lexical_decision_task_DD_L6,2021.2.3,MacIntel,58.82352941,,,,,,,,,,,0.578,1,,,,,,,,,,,,,,,z,1,0.578,,,,,,,,0.184444444,-0.141111111,0,0,0,,0,28,28,140,1,DOVET,LB,z,z,./images/DOVETLB.png,,,,,,,,,,,,,,,,,,,,,,,,,,,,,,,,,,,
,,,,,,,,,,,,,,,,,6101dba30506a0ab5e18c194,20,2022-02-12_17h41.35.234,lexical_decision_task_DD_L6,2021.2.3,MacIntel,58.82352941,,,,,,,,,,,1.2,1,,,,,,,,,,,,,,,z,1,1.2,,,,,,,,0.184444444,-0.141111111,0,0,0,,0,29,29,124,1,TUNCH,HB,z,z,./images/TUNCHHB.png,,,,,,,,,,,,,,,,,,,,,,,,,,,,,,,,,,,
,,,,,,,,,,,,,,,,,6101dba30506a0ab5e18c194,20,2022-02-12_17h41.35.234,lexical_decision_task_DD_L6,2021.2.3,MacIntel,58.82352941,,,,,,,,,,,0.68,1,,,,,,,,,,,,,,,m,1,0.68,,,,,,,,0.184444444,-0.141111111,0,0,0,,0,30,30,79,1,RULER,C,m,m,./images/RULER.png,,,,,,,,,,,,,,,,,,,,,,,,,,,,,,,,,,,
,,,,,,,,,,,,,,,,,6101dba30506a0ab5e18c194,20,2022-02-12_17h41.35.234,lexical_decision_task_DD_L6,2021.2.3,MacIntel,58.82352941,,,,,,,,,,,0.681,1,,,,,,,,,,,,,,,z,1,0.681,,,,,,,,0.184444444,-0.141111111,0,0,0,,0,31,31,84,1,HAXES,C,z,z,./images/HAXES.png,,,,,,,,,,,,,,,,,,,,,,,,,,,,,,,,,,,
,,,,,,,,,,,,,,,,,6101dba30506a0ab5e18c194,20,2022-02-12_17h41.35.234,lexical_decision_task_DD_L6,2021.2.3,MacIntel,58.82352941,,,,,,,,,,,0.645,1,,,,,,,,,,,,,,,z,1,0.645,,,,,,,,0.184444444,-0.141111111,0,0,0,,0,32,32,116,1,BALGY,LB,z,z,./images/BALGYLB.png,,,,,,,,,,,,,,,,,,,,,,,,,,,,,,,,,,,
,,,,,,,,,,,,,,,,,6101dba30506a0ab5e18c194,20,2022-02-12_17h41.35.234,lexical_decision_task_DD_L6,2021.2.3,MacIntel,58.82352941,,,,,,,,,,,0.608,1,,,,,,,,,,,,,,,z,1,0.608,,,,,,,,0.184444444,-0.141111111,0,0,0,,0,33,33,118,1,BAVEL,HB,z,z,./images/BAVELHB.png,,,,,,,,,,,,,,,,,,,,,,,,,,,,,,,,,,,
,,,,,,,,,,,,,,,,,6101dba30506a0ab5e18c194,20,2022-02-12_17h41.35.234,lexical_decision_task_DD_L6,2021.2.3,MacIntel,58.82352941,,,,,,,,,,,0.965,1,,,,,,,,,,,,,,,z,1,0.965,,,,,,,,0.184444444,-0.141111111,0,0,0,,0,34,34,141,1,PLEET,C,z,z,./images/PLEET.png,,,,,,,,,,,,,,,,,,,,,,,,,,,,,,,,,,,
,,,,,,,,,,,,,,,,,6101dba30506a0ab5e18c194,20,2022-02-12_17h41.35.234,lexical_decision_task_DD_L6,2021.2.3,MacIntel,58.82352941,,,,,,,,,,,0.923,1,,,,,,,,,,,,,,,z,1,0.923,,,,,,,,0.184444444,-0.141111111,0,0,0,,0,35,35,88,1,GLUSH,HB,z,z,./images/GLUSHHB.png,,,,,,,,,,,,,,,,,,,,,,,,,,,,,,,,,,,
,,,,,,,,,,,,,,,,,6101dba30506a0ab5e18c194,20,2022-02-12_17h41.35.234,lexical_decision_task_DD_L6,2021.2.3,MacIntel,58.82352941,,,,,,,,,,,0.504,1,,,,,,,,,,,,,,,z,1,0.504,,,,,,,,0.184444444,-0.141111111,0,0,0,,0,36,36,86,1,AIFED,LB,z,z,./images/AIFEDLB.png,,,,,,,,,,,,,,,,,,,,,,,,,,,,,,,,,,,
,,,,,,,,,,,,,,,,,6101dba30506a0ab5e18c194,20,2022-02-12_17h41.35.234,lexical_decision_task_DD_L6,2021.2.3,MacIntel,58.82352941,,,,,,,,,,,0.664,1,,,,,,,,,,,,,,,z,1,0.664,,,,,,,,0.184444444,-0.141111111,0,0,0,,0,37,37,99,1,BACKY,C,z,z,./images/BACKY.png,,,,,,,,,,,,,,,,,,,,,,,,,,,,,,,,,,,
,,,,,,,,,,,,,,,,,6101dba30506a0ab5e18c194,20,2022-02-12_17h41.35.234,lexical_decision_task_DD_L6,2021.2.3,MacIntel,58.82352941,,,,,,,,,,,0.796,1,,,,,,,,,,,,,,,m,1,0.796,,,,,,,,0.184444444,-0.141111111,0,0,0,,0,38,38,29,1,PISTOL,HB,m,m,./images/PISTOLHB.png,,,,,,,,,,,,,,,,,,,,,,,,,,,,,,,,,,,
,,,,,,,,,,,,,,,,,6101dba30506a0ab5e18c194,20,2022-02-12_17h41.35.234,lexical_decision_task_DD_L6,2021.2.3,MacIntel,58.82352941,,,,,,,,,,,0.782,1,,,,,,,,,,,,,,,m,1,0.782,,,,,,,,0.184444444,-0.141111111,0,0,0,,0,39,39,74,1,JUMPER,HB,m,m,./images/JUMPERHB.png,,,,,,,,,,,,,,,,,,,,,,,,,,,,,,,,,,,
,,,,,,,,,,,,,,,,,6101dba30506a0ab5e18c194,20,2022-02-12_17h41.35.234,lexical_decision_task_DD_L6,2021.2.3,MacIntel,58.82352941,,,,,,,,,,,0.553,1,,,,,,,,,,,,,,,z,1,0.553,,,,,,,,0.184444444,-0.141111111,0,0,0,,0,40,40,111,1,HOSSE,C,z,z,./images/HOSSE.png,,,,,,,,,,,,,,,,,,,,,,,,,,,,,,,,,,,
,,,,,,,,,,,,,,,,,6101dba30506a0ab5e18c194,20,2022-02-12_17h41.35.234,lexical_decision_task_DD_L6,2021.2.3,MacIntel,58.82352941,,,,,,,,,,,0.502,1,,,,,,,,,,,,,,,m,1,0.502,,,,,,,,0.126666667,-0.393333333,1,0,0,,0,41,41,39,1,CANDY,LB,m,m,./images/CANDYLB.png,break_done_button,,,,,,,,,,,,,,,,,,,,,,,,,,,,,,,,,,
,,,,,,,,,,,,,,,,,6101dba30506a0ab5e18c194,20,2022-02-12_17h41.35.234,lexical_decision_task_DD_L6,2021.2.3,MacIntel,58.82352941,,,,,,,,,,,0.548,1,,,,,,,,,,,,,,,z,1,0.548,,,,,,,,0.628888889,0.202222222,0,0,0,,0,42,42,117,1,STEEG,C,z,z,./images/STEEG.png,,,,,,,,,,,,,,,,,,,,,,,,,,,,,,,,,,,
,,,,,,,,,,,,,,,,,6101dba30506a0ab5e18c194,20,2022-02-12_17h41.35.234,lexical_decision_task_DD_L6,2021.2.3,MacIntel,58.82352941,,,,,,,,,,,1.354,1,,,,,,,,,,,,,,,z,1,1.354,,,,,,,,0.628888889,0.202222222,0,0,0,,0,43,43,160,1,VEETS,HB,z,z,./images/VEETSHB.png,,,,,,,,,,,,,,,,,,,,,,,,,,,,,,,,,,,
,,,,,,,,,,,,,,,,,6101dba30506a0ab5e18c194,20,2022-02-12_17h41.35.234,lexical_decision_task_DD_L6,2021.2.3,MacIntel,58.82352941,,,,,,,,,,,0.899,1,,,,,,,,,,,,,,,m,1,0.899,,,,,,,,0.628888889,0.202222222,0,0,0,,0,44,44,41,1,STREAM,HB,m,m,./images/STREAMHB.png,,,,,,,,,,,,,,,,,,,,,,,,,,,,,,,,,,,
,,,,,,,,,,,,,,,,,6101dba30506a0ab5e18c194,20,2022-02-12_17h41.35.234,lexical_decision_task_DD_L6,2021.2.3,MacIntel,58.82352941,,,,,,,,,,,0.553,1,,,,,,,,,,,,,,,z,1,0.553,,,,,,,,0.628888889,0.202222222,0,0,0,,0,45,45,137,1,JOOST,LB,z,z,./images/JOOSTLB.png,,,,,,,,,,,,,,,,,,,,,,,,,,,,,,,,,,,
,,,,,,,,,,,,,,,,,6101dba30506a0ab5e18c194,20,2022-02-12_17h41.35.234,lexical_decision_task_DD_L6,2021.2.3,MacIntel,58.82352941,,,,,,,,,,,0.483,1,,,,,,,,,,,,,,,z,1,0.483,,,,,,,,0.628888889,0.202222222,0,0,0,,0,46,46,93,1,SMONE,C,z,z,./images/SMONE.png,,,,,,,,,,,,,,,,,,,,,,,,,,,,,,,,,,,
,,,,,,,,,,,,,,,,,6101dba30506a0ab5e18c194,20,2022-02-12_17h41.35.234,lexical_decision_task_DD_L6,2021.2.3,MacIntel,58.82352941,,,,,,,,,,,1.148,1,,,,,,,,,,,,,,,z,1,1.148,,,,,,,,0.628888889,0.202222222,0,0,0,,0,47,47,103,1,FLORT,HB,z,z,./images/FLORTHB.png,,,,,,,,,,,,,,,,,,,,,,,,,,,,,,,,,,,
,,,,,,,,,,,,,,,,,6101dba30506a0ab5e18c194,20,2022-02-12_17h41.35.234,lexical_decision_task_DD_L6,2021.2.3,MacIntel,58.82352941,,,,,,,,,,,0.463,1,,,,,,,,,,,,,,,z,1,0.463,,,,,,,,0.628888889,0.202222222,0,0,0,,0,48,48,158,1,EGECT,LB,z,z,./images/EGECTLB.png,,,,,,,,,,,,,,,,,,,,,,,,,,,,,,,,,,,
,,,,,,,,,,,,,,,,,6101dba30506a0ab5e18c194,20,2022-02-12_17h41.35.234,lexical_decision_task_DD_L6,2021.2.3,MacIntel,58.82352941,,,,,,,,,,,0.565,1,,,,,,,,,,,,,,,m,1,0.565,,,,,,,,0.628888889,0.202222222,0,0,0,,0,49,49,43,1,STOOL,C,m,m,./images/STOOL.png,,,,,,,,,,,,,,,,,,,,,,,,,,,,,,,,,,,
,,,,,,,,,,,,,,,,,6101dba30506a0ab5e18c194,20,2022-02-12_17h41.35.234,lexical_decision_task_DD_L6,2021.2.3,MacIntel,58.82352941,,,,,,,,,,,0.779,1,,,,,,,,,,,,,,,z,1,0.779,,,,,,,,0.628888889,0.202222222,0,0,0,,0,50,50,139,1,BLEAR,HB,z,z,./images/BLEARHB.png,,,,,,,,,,,,,,,,,,,,,,,,,,,,,,,,,,,
,,,,,,,,,,,,,,,,,6101dba30506a0ab5e18c194,20,2022-02-12_17h41.35.234,lexical_decision_task_DD_L6,2021.2.3,MacIntel,58.82352941,,,,,,,,,,,1.036,1,,,,,,,,,,,,,,,m,1,1.036,,,,,,,,0.628888889,0.202222222,0,0,0,,0,51,51,17,1,PARADE,HB,m,m,./images/PARADEHB.png,,,,,,,,,,,,,,,,,,,,,,,,,,,,,,,,,,,
,,,,,,,,,,,,,,,,,6101dba30506a0ab5e18c194,20,2022-02-12_17h41.35.234,lexical_decision_task_DD_L6,2021.2.3,MacIntel,58.82352941,,,,,,,,,,,0.446,1,,,,,,,,,,,,,,,m,1,0.446,,,,,,,,0.628888889,0.202222222,0,0,0,,0,52,52,10,1,GARDEN,C,m,m,./images/GARDEN.png,,,,,,,,,,,,,,,,,,,,,,,,,,,,,,,,,,,
,,,,,,,,,,,,,,,,,6101dba30506a0ab5e18c194,20,2022-02-12_17h41.35.234,lexical_decision_task_DD_L6,2021.2.3,MacIntel,58.82352941,,,,,,,,,,,0.554,1,,,,,,,,,,,,,,,m,1,0.554,,,,,,,,0.628888889,0.202222222,0,0,0,,0,53,53,76,1,MIDGET,C,m,m,./images/MIDGET.png,,,,,,,,,,,,,,,,,,,,,,,,,,,,,,,,,,,
,,,,,,,,,,,,,,,,,6101dba30506a0ab5e18c194,20,2022-02-12_17h41.35.234,lexical_decision_task_DD_L6,2021.2.3,MacIntel,58.82352941,,,,,,,,,,,0.566,1,,,,,,,,,,,,,,,z,1,0.566,,,,,,,,0.628888889,0.202222222,0,0,0,,0,54,54,132,1,SCIFF,C,z,z,./images/SCIFF.png,,,,,,,,,,,,,,,,,,,,,,,,,,,,,,,,,,,
,,,,,,,,,,,,,,,,,6101dba30506a0ab5e18c194,20,2022-02-12_17h41.35.234,lexical_decision_task_DD_L6,2021.2.3,MacIntel,58.82352941,,,,,,,,,,,0.404,1,,,,,,,,,,,,,,,z,1,0.404,,,,,,,,0.628888889,0.202222222,0,0,0,,0,55,55,149,1,VEASE,LB,z,z,./images/VEASELB.png,,,,,,,,,,,,,,,,,,,,,,,,,,,,,,,,,,,
,,,,,,,,,,,,,,,,,6101dba30506a0ab5e18c194,20,2022-02-12_17h41.35.234,lexical_decision_task_DD_L6,2021.2.3,MacIntel,58.82352941,,,,,,,,,,,0.417,0,,,,,,,,,,,,,,,z,0,0.417,,,,,,,,0.628888889,0.202222222,0,0,0,,0,56,56,0,1,WALNUT,LB,m,m,./images/WALNUTLB.png,,,,,,,,,,,,,,,,,,,,,,,,,,,,,,,,,,,
,,,,,,,,,,,,,,,,,6101dba30506a0ab5e18c194,20,2022-02-12_17h41.35.234,lexical_decision_task_DD_L6,2021.2.3,MacIntel,58.82352941,,,,,,,,,,,0.979,1,,,,,,,,,,,,,,,m,1,0.979,,,,,,,,0.628888889,0.202222222,0,0,0,,0,57,57,44,1,BASKET,HB,m,m,./images/BASKETHB.png,,,,,,,,,,,,,,,,,,,,,,,,,,,,,,,,,,,
,,,,,,,,,,,,,,,,,6101dba30506a0ab5e18c194,20,2022-02-12_17h41.35.234,lexical_decision_task_DD_L6,2021.2.3,MacIntel,58.82352941,,,,,,,,,,,0.485,1,,,,,,,,,,,,,,,z,1,0.485,,,,,,,,0.628888889,0.202222222,0,0,0,,0,58,58,89,1,DRIEK,LB,z,z,./images/DRIEKLB.png,,,,,,,,,,,,,,,,,,,,,,,,,,,,,,,,,,,
,,,,,,,,,,,,,,,,,6101dba30506a0ab5e18c194,20,2022-02-12_17h41.35.234,lexical_decision_task_DD_L6,2021.2.3,MacIntel,58.82352941,,,,,,,,,,,0.412,1,,,,,,,,,,,,,,,m,1,0.412,,,,,,,,0.628888889,0.202222222,0,0,0,,0,59,59,40,1,SNAKE,C,m,m,./images/SNAKE.png,,,,,,,,,,,,,,,,,,,,,,,,,,,,,,,,,,,
,,,,,,,,,,,,,,,,,6101dba30506a0ab5e18c194,20,2022-02-12_17h41.35.234,lexical_decision_task_DD_L6,2021.2.3,MacIntel,58.82352941,,,,,,,,,,,1.733,1,,,,,,,,,,,,,,,z,1,1.733,,,,,,,,0.628888889,0.202222222,0,0,0,,0,60,60,154,1,THINT,HB,z,z,./images/THINTHB.png,,,,,,,,,,,,,,,,,,,,,,,,,,,,,,,,,,,
,,,,,,,,,,,,,,,,,6101dba30506a0ab5e18c194,20,2022-02-12_17h41.35.234,lexical_decision_task_DD_L6,2021.2.3,MacIntel,58.82352941,,,,,,,,,,,0.847,1,,,,,,,,,,,,,,,m,1,0.847,,,,,,,,0.628888889,0.202222222,0,0,0,,0,61,61,62,1,MAMMAL,HB,m,m,./images/MAMMALHB.png,,,,,,,,,,,,,,,,,,,,,,,,,,,,,,,,,,,
,,,,,,,,,,,,,,,,,6101dba30506a0ab5e18c194,20,2022-02-12_17h41.35.234,lexical_decision_task_DD_L6,2021.2.3,MacIntel,58.82352941,,,,,,,,,,,0.652,1,,,,,,,,,,,,,,,m,1,0.652,,,,,,,,0.628888889,0.202222222,0,0,0,,0,62,62,53,1,POSTER,HB,m,m,./images/POSTERHB.png,,,,,,,,,,,,,,,,,,,,,,,,,,,,,,,,,,,
,,,,,,,,,,,,,,,,,6101dba30506a0ab5e18c194,20,2022-02-12_17h41.35.234,lexical_decision_task_DD_L6,2021.2.3,MacIntel,58.82352941,,,,,,,,,,,1.847,1,,,,,,,,,,,,,,,m,1,1.847,,,,,,,,0.628888889,0.202222222,0,0,0,,0,63,63,77,1,WHEEL,HB,m,m,./images/WHEELHB.png,,,,,,,,,,,,,,,,,,,,,,,,,,,,,,,,,,,
,,,,,,,,,,,,,,,,,6101dba30506a0ab5e18c194,20,2022-02-12_17h41.35.234,lexical_decision_task_DD_L6,2021.2.3,MacIntel,58.82352941,,,,,,,,,,,0.748,1,,,,,,,,,,,,,,,m,1,0.748,,,,,,,,0.628888889,0.202222222,0,0,0,,0,64,64,80,1,PLANET,HB,m,m,./images/PLANETHB.png,,,,,,,,,,,,,,,,,,,,,,,,,,,,,,,,,,,
,,,,,,,,,,,,,,,,,6101dba30506a0ab5e18c194,20,2022-02-12_17h41.35.234,lexical_decision_task_DD_L6,2021.2.3,MacIntel,58.82352941,,,,,,,,,,,0.446,1,,,,,,,,,,,,,,,z,1,0.446,,,,,,,,0.628888889,0.202222222,0,0,0,,0,65,65,135,1,JOODY,C,z,z,./images/JOODY.png,,,,,,,,,,,,,,,,,,,,,,,,,,,,,,,,,,,
,,,,,,,,,,,,,,,,,6101dba30506a0ab5e18c194,20,2022-02-12_17h41.35.234,lexical_decision_task_DD_L6,2021.2.3,MacIntel,58.82352941,,,,,,,,,,,0.815,1,,,,,,,,,,,,,,,m,1,0.815,,,,,,,,0.628888889,0.202222222,0,0,0,,0,66,66,65,1,SPINE,HB,m,m,./images/SPINEHB.png,,,,,,,,,,,,,,,,,,,,,,,,,,,,,,,,,,,
,,,,,,,,,,,,,,,,,6101dba30506a0ab5e18c194,20,2022-02-12_17h41.35.234,lexical_decision_task_DD_L6,2021.2.3,MacIntel,58.82352941,,,,,,,,,,,0.517,1,,,,,,,,,,,,,,,m,1,0.517,,,,,,,,0.628888889,0.202222222,0,0,0,,0,67,67,75,1,HAMMER,LB,m,m,./images/HAMMERLB.png,,,,,,,,,,,,,,,,,,,,,,,,,,,,,,,,,,,
,,,,,,,,,,,,,,,,,6101dba30506a0ab5e18c194,20,2022-02-12_17h41.35.234,lexical_decision_task_DD_L6,2021.2.3,MacIntel,58.82352941,,,,,,,,,,,0.563,1,,,,,,,,,,,,,,,m,1,0.563,,,,,,,,0.628888889,0.202222222,0,0,0,,0,68,68,25,1,CHALK,C,m,m,./images/CHALK.png,,,,,,,,,,,,,,,,,,,,,,,,,,,,,,,,,,,
,,,,,,,,,,,,,,,,,6101dba30506a0ab5e18c194,20,2022-02-12_17h41.35.234,lexical_decision_task_DD_L6,2021.2.3,MacIntel,58.82352941,,,,,,,,,,,0.445,1,,,,,,,,,,,,,,,m,1,0.445,,,,,,,,0.628888889,0.202222222,0,0,0,,0,69,69,36,1,BOILER,LB,m,m,./images/BOILERLB.png,,,,,,,,,,,,,,,,,,,,,,,,,,,,,,,,,,,
,,,,,,,,,,,,,,,,,6101dba30506a0ab5e18c194,20,2022-02-12_17h41.35.234,lexical_decision_task_DD_L6,2021.2.3,MacIntel,58.82352941,,,,,,,,,,,0.734,1,,,,,,,,,,,,,,,m,1,0.734,,,,,,,,0.628888889,0.202222222,0,0,0,,0,70,70,35,1,LLAMA,HB,m,m,./images/LLAMAHB.png,,,,,,,,,,,,,,,,,,,,,,,,,,,,,,,,,,,
,,,,,,,,,,,,,,,,,6101dba30506a0ab5e18c194,20,2022-02-12_17h41.35.234,lexical_decision_task_DD_L6,2021.2.3,MacIntel,58.82352941,,,,,,,,,,,0.438,1,,,,,,,,,,,,,,,m,1,0.438,,,,,,,,0.628888889,0.202222222,0,0,0,,0,71,71,61,1,ARTIST,C,m,m,./images/ARTIST.png,,,,,,,,,,,,,,,,,,,,,,,,,,,,,,,,,,,
,,,,,,,,,,,,,,,,,6101dba30506a0ab5e18c194,20,2022-02-12_17h41.35.234,lexical_decision_task_DD_L6,2021.2.3,MacIntel,58.82352941,,,,,,,,,,,0.677,1,,,,,,,,,,,,,,,z,1,0.677,,,,,,,,0.628888889,0.202222222,0,0,0,,0,72,72,105,1,MOKER,C,z,z,./images/MOKER.png,,,,,,,,,,,,,,,,,,,,,,,,,,,,,,,,,,,
,,,,,,,,,,,,,,,,,6101dba30506a0ab5e18c194,20,2022-02-12_17h41.35.234,lexical_decision_task_DD_L6,2021.2.3,MacIntel,58.82352941,,,,,,,,,,,0.431,1,,,,,,,,,,,,,,,m,1,0.431,,,,,,,,0.628888889,0.202222222,0,0,0,,0,73,73,31,1,STEAK,C,m,m,./images/STEAK.png,,,,,,,,,,,,,,,,,,,,,,,,,,,,,,,,,,,
,,,,,,,,,,,,,,,,,6101dba30506a0ab5e18c194,20,2022-02-12_17h41.35.234,lexical_decision_task_DD_L6,2021.2.3,MacIntel,58.82352941,,,,,,,,,,,1.149,1,,,,,,,,,,,,,,,m,1,1.149,,,,,,,,0.628888889,0.202222222,0,0,0,,0,74,74,11,1,MEDAL,HB,m,m,./images/MEDALHB.png,,,,,,,,,,,,,,,,,,,,,,,,,,,,,,,,,,,
,,,,,,,,,,,,,,,,,6101dba30506a0ab5e18c194,20,2022-02-12_17h41.35.234,lexical_decision_task_DD_L6,2021.2.3,MacIntel,58.82352941,,,,,,,,,,,1.248,1,,,,,,,,,,,,,,,m,1,1.248,,,,,,,,0.628888889,0.202222222,0,0,0,,0,75,75,38,1,ENGINE,HB,m,m,./images/ENGINEHB.png,,,,,,,,,,,,,,,,,,,,,,,,,,,,,,,,,,,
,,,,,,,,,,,,,,,,,6101dba30506a0ab5e18c194,20,2022-02-12_17h41.35.234,lexical_decision_task_DD_L6,2021.2.3,MacIntel,58.82352941,,,,,,,,,,,1.925,1,,,,,,,,,,,,,,,z,1,1.925,,,,,,,,0.628888889,0.202222222,0,0,0,,0,76,76,133,1,POWDY,HB,z,z,./images/POWDYHB.png,,,,,,,,,,,,,,,,,,,,,,,,,,,,,,,,,,,
,,,,,,,,,,,,,,,,,6101dba30506a0ab5e18c194,20,2022-02-12_17h41.35.234,lexical_decision_task_DD_L6,2021.2.3,MacIntel,58.82352941,,,,,,,,,,,0.946,1,,,,,,,,,,,,,,,m,1,0.946,,,,,,,,0.628888889,0.202222222,0,0,0,,0,77,77,19,1,DONKEY,C,m,m,./images/DONKEY.png,,,,,,,,,,,,,,,,,,,,,,,,,,,,,,,,,,,
,,,,,,,,,,,,,,,,,6101dba30506a0ab5e18c194,20,2022-02-12_17h41.35.234,lexical_decision_task_DD_L6,2021.2.3,MacIntel,58.82352941,,,,,,,,,,,0.55,1,,,,,,,,,,,,,,,z,1,0.55,,,,,,,,0.628888889,0.202222222,0,0,0,,0,78,78,167,1,ZONET,LB,z,z,./images/ZONETLB.png,,,,,,,,,,,,,,,,,,,,,,,,,,,,,,,,,,,
,,,,,,,,,,,,,,,,,6101dba30506a0ab5e18c194,20,2022-02-12_17h41.35.234,lexical_decision_task_DD_L6,2021.2.3,MacIntel,58.82352941,,,,,,,,,,,0.571,1,,,,,,,,,,,,,,,m,1,0.571,,,,,,,,0.628888889,0.202222222,0,0,0,,0,79,79,1,1,TOWEL,C,m,m,./images/TOWEL.png,,,,,,,,,,,,,,,,,,,,,,,,,,,,,,,,,,,
,,,,,,,,,,,,,,,,,6101dba30506a0ab5e18c194,20,2022-02-12_17h41.35.234,lexical_decision_task_DD_L6,2021.2.3,MacIntel,58.82352941,,,,,,,,,,,0.6,0,,,,,,,,,,,,,,,m,0,0.6,,,,,,,,0.628888889,0.202222222,0,0,0,,0,80,80,114,1,RIKES,C,z,z,./images/RIKES.png,,,,,,,,,,,,,,,,,,,,,,,,,,,,,,,,,,,
,,,,,,,,,,,,,,,,,6101dba30506a0ab5e18c194,20,2022-02-12_17h41.35.234,lexical_decision_task_DD_L6,2021.2.3,MacIntel,58.82352941,,,,,,,,,,,0.381,0,,,,,,,,,,,,,,,m,0,0.381,,,,,,,,0.628888889,0.202222222,0,0,0,,0,81,81,126,1,GUELS,C,z,z,./images/GUELS.png,,,,,,,,,,,,,,,,,,,,,,,,,,,,,,,,,,,
,,,,,,,,,,,,,,,,,6101dba30506a0ab5e18c194,20,2022-02-12_17h41.35.234,lexical_decision_task_DD_L6,2021.2.3,MacIntel,58.82352941,,,,,,,,,,,0.746,1,,,,,,,,,,,,,,,m,1,0.746,,,,,,,,0.628888889,0.202222222,0,0,0,,0,82,82,3,1,CRATER,LB,m,m,./images/CRATERLB.png,,,,,,,,,,,,,,,,,,,,,,,,,,,,,,,,,,,
,,,,,,,,,,,,,,,,,6101dba30506a0ab5e18c194,20,2022-02-12_17h41.35.234,lexical_decision_task_DD_L6,2021.2.3,MacIntel,58.82352941,,,,,,,,,,,0.415,1,,,,,,,,,,,,,,,m,1,0.415,,,,,,,,0.128888889,-0.394444444,1,0,0,,0,83,83,45,1,MONKEY,LB,m,m,./images/MONKEYLB.png,break_done_button,,,,,,,,,,,,,,,,,,,,,,,,,,,,,,,,,,
,,,,,,,,,,,,,,,,,6101dba30506a0ab5e18c194,20,2022-02-12_17h41.35.234,lexical_decision_task_DD_L6,2021.2.3,MacIntel,58.82352941,,,,,,,,,,,0.519,1,,,,,,,,,,,,,,,m,1,0.519,,,,,,,,0.631111111,-0.03,0,0,0,,0,84,84,60,1,CURRY,LB,m,m,./images/CURRYLB.png,,,,,,,,,,,,,,,,,,,,,,,,,,,,,,,,,,,
,,,,,,,,,,,,,,,,,6101dba30506a0ab5e18c194,20,2022-02-12_17h41.35.234,lexical_decision_task_DD_L6,2021.2.3,MacIntel,58.82352941,,,,,,,,,,,0.466,1,,,,,,,,,,,,,,,m,1,0.466,,,,,,,,0.631111111,-0.03,0,0,0,,0,85,85,27,1,BUTTER,LB,m,m,./images/BUTTERLB.png,,,,,,,,,,,,,,,,,,,,,,,,,,,,,,,,,,,
,,,,,,,,,,,,,,,,,6101dba30506a0ab5e18c194,20,2022-02-12_17h41.35.234,lexical_decision_task_DD_L6,2021.2.3,MacIntel,58.82352941,,,,,,,,,,,0.596,1,,,,,,,,,,,,,,,z,1,0.596,,,,,,,,0.631111111,-0.03,0,0,0,,0,86,86,134,1,TROSS,LB,z,z,./images/TROSSLB.png,,,,,,,,,,,,,,,,,,,,,,,,,,,,,,,,,,,
,,,,,,,,,,,,,,,,,6101dba30506a0ab5e18c194,20,2022-02-12_17h41.35.234,lexical_decision_task_DD_L6,2021.2.3,MacIntel,58.82352941,,,,,,,,,,,0.581,1,,,,,,,,,,,,,,,z,1,0.581,,,,,,,,0.631111111,-0.03,0,0,0,,0,87,87,138,1,PLICE,C,z,z,./images/PLICE.png,,,,,,,,,,,,,,,,,,,,,,,,,,,,,,,,,,,
,,,,,,,,,,,,,,,,,6101dba30506a0ab5e18c194,20,2022-02-12_17h41.35.234,lexical_decision_task_DD_L6,2021.2.3,MacIntel,58.82352941,,,,,,,,,,,0.587,1,,,,,,,,,,,,,,,m,1,0.587,,,,,,,,0.631111111,-0.03,0,0,0,,0,88,88,55,1,ALLEY,C,m,m,./images/ALLEY.png,,,,,,,,,,,,,,,,,,,,,,,,,,,,,,,,,,,
,,,,,,,,,,,,,,,,,6101dba30506a0ab5e18c194,20,2022-02-12_17h41.35.234,lexical_decision_task_DD_L6,2021.2.3,MacIntel,58.82352941,,,,,,,,,,,0.472,1,,,,,,,,,,,,,,,m,1,0.472,,,,,,,,0.631111111,-0.03,0,0,0,,0,89,89,6,1,STAIN,LB,m,m,./images/STAINLB.png,,,,,,,,,,,,,,,,,,,,,,,,,,,,,,,,,,,
,,,,,,,,,,,,,,,,,6101dba30506a0ab5e18c194,20,2022-02-12_17h41.35.234,lexical_decision_task_DD_L6,2021.2.3,MacIntel,58.82352941,,,,,,,,,,,2.404,1,,,,,,,,,,,,,,,z,1,2.404,,,,,,,,0.631111111,-0.03,0,0,0,,0,90,90,97,1,CHIDS,HB,z,z,./images/CHIDSHB.png,,,,,,,,,,,,,,,,,,,,,,,,,,,,,,,,,,,
,,,,,,,,,,,,,,,,,6101dba30506a0ab5e18c194,20,2022-02-12_17h41.35.234,lexical_decision_task_DD_L6,2021.2.3,MacIntel,58.82352941,,,,,,,,,,,0.561,1,,,,,,,,,,,,,,,z,1,0.561,,,,,,,,0.631111111,-0.03,0,0,0,,0,91,91,123,1,SEDGE,C,z,z,./images/SEDGE.png,,,,,,,,,,,,,,,,,,,,,,,,,,,,,,,,,,,
,,,,,,,,,,,,,,,,,6101dba30506a0ab5e18c194,20,2022-02-12_17h41.35.234,lexical_decision_task_DD_L6,2021.2.3,MacIntel,58.82352941,,,,,,,,,,,2.298,1,,,,,,,,,,,,,,,z,1,2.298,,,,,,,,0.631111111,-0.03,0,0,0,,0,92,92,115,1,MAWNS,HB,z,z,./images/MAWNSHB.png,,,,,,,,,,,,,,,,,,,,,,,,,,,,,,,,,,,
,,,,,,,,,,,,,,,,,6101dba30506a0ab5e18c194,20,2022-02-12_17h41.35.234,lexical_decision_task_DD_L6,2021.2.3,MacIntel,58.82352941,,,,,,,,,,,0.624,1,,,,,,,,,,,,,,,z,1,0.624,,,,,,,,0.631111111,-0.03,0,0,0,,0,93,93,92,1,PAIMS,LB,z,z,./images/PAIMSLB.png,,,,,,,,,,,,,,,,,,,,,,,,,,,,,,,,,,,
,,,,,,,,,,,,,,,,,6101dba30506a0ab5e18c194,20,2022-02-12_17h41.35.234,lexical_decision_task_DD_L6,2021.2.3,MacIntel,58.82352941,,,,,,,,,,,1.717,1,,,,,,,,,,,,,,,z,1,1.717,,,,,,,,0.631111111,-0.03,0,0,0,,0,94,94,148,1,JOMS,HB,z,z,./images/JOMSHB.png,,,,,,,,,,,,,,,,,,,,,,,,,,,,,,,,,,,
,,,,,,,,,,,,,,,,,6101dba30506a0ab5e18c194,20,2022-02-12_17h41.35.234,lexical_decision_task_DD_L6,2021.2.3,MacIntel,58.82352941,,,,,,,,,,,1.352,1,,,,,,,,,,,,,,,m,1,1.352,,,,,,,,0.631111111,-0.03,0,0,0,,0,95,95,66,1,STATUE,LB,m,m,./images/STATUELB.png,,,,,,,,,,,,,,,,,,,,,,,,,,,,,,,,,,,
,,,,,,,,,,,,,,,,,6101dba30506a0ab5e18c194,20,2022-02-12_17h41.35.234,lexical_decision_task_DD_L6,2021.2.3,MacIntel,58.82352941,,,,,,,,,,,1.106,1,,,,,,,,,,,,,,,z,1,1.106,,,,,,,,0.631111111,-0.03,0,0,0,,0,96,96,156,1,HIXES,C,z,z,./images/HIXES.png,,,,,,,,,,,,,,,,,,,,,,,,,,,,,,,,,,,
,,,,,,,,,,,,,,,,,6101dba30506a0ab5e18c194,20,2022-02-12_17h41.35.234,lexical_decision_task_DD_L6,2021.2.3,MacIntel,58.82352941,,,,,,,,,,,0.561,1,,,,,,,,,,,,,,,z,1,0.561,,,,,,,,0.631111111,-0.03,0,0,0,,0,97,97,131,1,NACES,LB,z,z,./images/NACESLB.png,,,,,,,,,,,,,,,,,,,,,,,,,,,,,,,,,,,
,,,,,,,,,,,,,,,,,6101dba30506a0ab5e18c194,20,2022-02-12_17h41.35.234,lexical_decision_task_DD_L6,2021.2.3,MacIntel,58.82352941,,,,,,,,,,,1.261,1,,,,,,,,,,,,,,,z,1,1.261,,,,,,,,0.631111111,-0.03,0,0,0,,0,98,98,91,1,SHENS,HB,z,z,./images/SHENSHB.png,,,,,,,,,,,,,,,,,,,,,,,,,,,,,,,,,,,
,,,,,,,,,,,,,,,,,6101dba30506a0ab5e18c194,20,2022-02-12_17h41.35.234,lexical_decision_task_DD_L6,2021.2.3,MacIntel,58.82352941,,,,,,,,,,,0.618,1,,,,,,,,,,,,,,,m,1,0.618,,,,,,,,0.631111111,-0.03,0,0,0,,0,99,99,49,1,BISHOP,C,m,m,./images/BISHOP.png,,,,,,,,,,,,,,,,,,,,,,,,,,,,,,,,,,,
,,,,,,,,,,,,,,,,,6101dba30506a0ab5e18c194,20,2022-02-12_17h41.35.234,lexical_decision_task_DD_L6,2021.2.3,MacIntel,58.82352941,,,,,,,,,,,0.545,1,,,,,,,,,,,,,,,z,1,0.545,,,,,,,,0.631111111,-0.03,0,0,0,,0,100,100,164,1,SGREW,LB,z,z,./images/SGREWLB.png,,,,,,,,,,,,,,,,,,,,,,,,,,,,,,,,,,,
,,,,,,,,,,,,,,,,,6101dba30506a0ab5e18c194,20,2022-02-12_17h41.35.234,lexical_decision_task_DD_L6,2021.2.3,MacIntel,58.82352941,,,,,,,,,,,0.492,0,,,,,,,,,,,,,,,z,0,0.492,,,,,,,,0.631111111,-0.03,0,0,0,,0,101,101,12,1,BLOKE,LB,m,m,./images/BLOKELB.png,,,,,,,,,,,,,,,,,,,,,,,,,,,,,,,,,,,
,,,,,,,,,,,,,,,,,6101dba30506a0ab5e18c194,20,2022-02-12_17h41.35.234,lexical_decision_task_DD_L6,2021.2.3,MacIntel,58.82352941,,,,,,,,,,,0.496,1,,,,,,,,,,,,,,,z,1,0.496,,,,,,,,0.631111111,-0.03,0,0,0,,0,102,102,162,1,LEICH,C,z,z,./images/LEICH.png,,,,,,,,,,,,,,,,,,,,,,,,,,,,,,,,,,,
,,,,,,,,,,,,,,,,,6101dba30506a0ab5e18c194,20,2022-02-12_17h41.35.234,lexical_decision_task_DD_L6,2021.2.3,MacIntel,58.82352941,,,,,,,,,,,0.612,1,,,,,,,,,,,,,,,m,1,0.612,,,,,,,,0.631111111,-0.03,0,0,0,,0,103,103,57,1,FERRY,LB,m,m,./images/FERRYLB.png,,,,,,,,,,,,,,,,,,,,,,,,,,,,,,,,,,,
,,,,,,,,,,,,,,,,,6101dba30506a0ab5e18c194,20,2022-02-12_17h41.35.234,lexical_decision_task_DD_L6,2021.2.3,MacIntel,58.82352941,,,,,,,,,,,0.822,1,,,,,,,,,,,,,,,m,1,0.822,,,,,,,,0.631111111,-0.03,0,0,0,,0,104,104,5,1,BAMBOO,HB,m,m,./images/BAMBOOHB.png,,,,,,,,,,,,,,,,,,,,,,,,,,,,,,,,,,,
,,,,,,,,,,,,,,,,,6101dba30506a0ab5e18c194,20,2022-02-12_17h41.35.234,lexical_decision_task_DD_L6,2021.2.3,MacIntel,58.82352941,,,,,,,,,,,0.532,1,,,,,,,,,,,,,,,m,1,0.532,,,,,,,,0.631111111,-0.03,0,0,0,,0,105,105,33,1,SAUNA,LB,m,m,./images/SAUNALB.png,,,,,,,,,,,,,,,,,,,,,,,,,,,,,,,,,,,
,,,,,,,,,,,,,,,,,6101dba30506a0ab5e18c194,20,2022-02-12_17h41.35.234,lexical_decision_task_DD_L6,2021.2.3,MacIntel,58.82352941,,,,,,,,,,,0.512,1,,,,,,,,,,,,,,,m,1,0.512,,,,,,,,0.631111111,-0.03,0,0,0,,0,106,106,30,1,SLOPE,LB,m,m,./images/SLOPELB.png,,,,,,,,,,,,,,,,,,,,,,,,,,,,,,,,,,,
,,,,,,,,,,,,,,,,,6101dba30506a0ab5e18c194,20,2022-02-12_17h41.35.234,lexical_decision_task_DD_L6,2021.2.3,MacIntel,58.82352941,,,,,,,,,,,0.407,1,,,,,,,,,,,,,,,m,1,0.407,,,,,,,,0.631111111,-0.03,0,0,0,,0,107,107,70,1,BANANA,C,m,m,./images/BANANA.png,,,,,,,,,,,,,,,,,,,,,,,,,,,,,,,,,,,
,,,,,,,,,,,,,,,,,6101dba30506a0ab5e18c194,20,2022-02-12_17h41.35.234,lexical_decision_task_DD_L6,2021.2.3,MacIntel,58.82352941,,,,,,,,,,,0.932,1,,,,,,,,,,,,,,,z,1,0.932,,,,,,,,0.631111111,-0.03,0,0,0,,0,108,108,151,1,TINKY,HB,z,z,./images/TINKYHB.png,,,,,,,,,,,,,,,,,,,,,,,,,,,,,,,,,,,
,,,,,,,,,,,,,,,,,6101dba30506a0ab5e18c194,20,2022-02-12_17h41.35.234,lexical_decision_task_DD_L6,2021.2.3,MacIntel,58.82352941,,,,,,,,,,,0.505,1,,,,,,,,,,,,,,,z,1,0.505,,,,,,,,0.631111111,-0.03,0,0,0,,0,109,109,159,1,CUDDY,C,z,z,./images/CUDDY.png,,,,,,,,,,,,,,,,,,,,,,,,,,,,,,,,,,,
,,,,,,,,,,,,,,,,,6101dba30506a0ab5e18c194,20,2022-02-12_17h41.35.234,lexical_decision_task_DD_L6,2021.2.3,MacIntel,58.82352941,,,,,,,,,,,1.345,0,,,,,,,,,,,,,,,z,0,1.345,,,,,,,,0.631111111,-0.03,0,0,0,,0,110,110,83,1,WHISKY,HB,m,m,./images/WHISKYHB.png,,,,,,,,,,,,,,,,,,,,,,,,,,,,,,,,,,,
,,,,,,,,,,,,,,,,,6101dba30506a0ab5e18c194,20,2022-02-12_17h41.35.234,lexical_decision_task_DD_L6,2021.2.3,MacIntel,58.82352941,,,,,,,,,,,1.228,1,,,,,,,,,,,,,,,z,1,1.228,,,,,,,,0.631111111,-0.03,0,0,0,,0,111,111,136,1,WERVE,HB,z,z,./images/WERVEHB.png,,,,,,,,,,,,,,,,,,,,,,,,,,,,,,,,,,,
,,,,,,,,,,,,,,,,,6101dba30506a0ab5e18c194,20,2022-02-12_17h41.35.234,lexical_decision_task_DD_L6,2021.2.3,MacIntel,58.82352941,,,,,,,,,,,1.068,1,,,,,,,,,,,,,,,z,1,1.068,,,,,,,,0.631111111,-0.03,0,0,0,,0,112,112,106,1,CLUMS,HB,z,z,./images/CLUMSHB.png,,,,,,,,,,,,,,,,,,,,,,,,,,,,,,,,,,,
,,,,,,,,,,,,,,,,,6101dba30506a0ab5e18c194,20,2022-02-12_17h41.35.234,lexical_decision_task_DD_L6,2021.2.3,MacIntel,58.82352941,,,,,,,,,,,0.571,1,,,,,,,,,,,,,,,m,1,0.571,,,,,,,,0.631111111,-0.03,0,0,0,,0,113,113,47,1,LAGOON,HB,m,m,./images/LAGOONHB.png,,,,,,,,,,,,,,,,,,,,,,,,,,,,,,,,,,,
,,,,,,,,,,,,,,,,,6101dba30506a0ab5e18c194,20,2022-02-12_17h41.35.234,lexical_decision_task_DD_L6,2021.2.3,MacIntel,58.82352941,,,,,,,,,,,0.952,1,,,,,,,,,,,,,,,z,1,0.952,,,,,,,,0.631111111,-0.03,0,0,0,,0,114,114,166,1,SHORY,HB,z,z,./images/SHORYHB.png,,,,,,,,,,,,,,,,,,,,,,,,,,,,,,,,,,,
,,,,,,,,,,,,,,,,,6101dba30506a0ab5e18c194,20,2022-02-12_17h41.35.234,lexical_decision_task_DD_L6,2021.2.3,MacIntel,58.82352941,,,,,,,,,,,1.712,1,,,,,,,,,,,,,,,z,1,1.712,,,,,,,,0.631111111,-0.03,0,0,0,,0,115,115,143,1,MONGS,LB,z,z,./images/MONGSLB.png,,,,,,,,,,,,,,,,,,,,,,,,,,,,,,,,,,,
,,,,,,,,,,,,,,,,,6101dba30506a0ab5e18c194,20,2022-02-12_17h41.35.234,lexical_decision_task_DD_L6,2021.2.3,MacIntel,58.82352941,,,,,,,,,,,0.586,1,,,,,,,,,,,,,,,z,1,0.586,,,,,,,,0.631111111,-0.03,0,0,0,,0,116,116,161,1,BLAPS,LB,z,z,./images/BLAPSLB.png,,,,,,,,,,,,,,,,,,,,,,,,,,,,,,,,,,,
,,,,,,,,,,,,,,,,,6101dba30506a0ab5e18c194,20,2022-02-12_17h41.35.234,lexical_decision_task_DD_L6,2021.2.3,MacIntel,58.82352941,,,,,,,,,,,0.584,1,,,,,,,,,,,,,,,z,1,0.584,,,,,,,,0.631111111,-0.03,0,0,0,,0,117,117,129,1,PRANS,C,z,z,./images/PRANS.png,,,,,,,,,,,,,,,,,,,,,,,,,,,,,,,,,,,
,,,,,,,,,,,,,,,,,6101dba30506a0ab5e18c194,20,2022-02-12_17h41.35.234,lexical_decision_task_DD_L6,2021.2.3,MacIntel,58.82352941,,,,,,,,,,,0.765,1,,,,,,,,,,,,,,,m,1,0.765,,,,,,,,0.631111111,-0.03,0,0,0,,0,118,118,15,1,COLLAR,LB,m,m,./images/COLLARLB.png,,,,,,,,,,,,,,,,,,,,,,,,,,,,,,,,,,,
,,,,,,,,,,,,,,,,,6101dba30506a0ab5e18c194,20,2022-02-12_17h41.35.234,lexical_decision_task_DD_L6,2021.2.3,MacIntel,58.82352941,,,,,,,,,,,0.592,1,,,,,,,,,,,,,,,m,1,0.592,,,,,,,,0.631111111,-0.03,0,0,0,,0,119,119,51,1,SAUCE,LB,m,m,./images/SAUCELB.png,,,,,,,,,,,,,,,,,,,,,,,,,,,,,,,,,,,
,,,,,,,,,,,,,,,,,6101dba30506a0ab5e18c194,20,2022-02-12_17h41.35.234,lexical_decision_task_DD_L6,2021.2.3,MacIntel,58.82352941,,,,,,,,,,,0.499,1,,,,,,,,,,,,,,,z,1,0.499,,,,,,,,0.631111111,-0.03,0,0,0,,0,120,120,128,1,GRIFT,LB,z,z,./images/GRIFTLB.png,,,,,,,,,,,,,,,,,,,,,,,,,,,,,,,,,,,
,,,,,,,,,,,,,,,,,6101dba30506a0ab5e18c194,20,2022-02-12_17h41.35.234,lexical_decision_task_DD_L6,2021.2.3,MacIntel,58.82352941,,,,,,,,,,,0.782,1,,,,,,,,,,,,,,,m,1,0.782,,,,,,,,0.631111111,-0.03,0,0,0,,0,121,121,52,1,DESERT,C,m,m,./images/DESERT.png,,,,,,,,,,,,,,,,,,,,,,,,,,,,,,,,,,,
,,,,,,,,,,,,,,,,,6101dba30506a0ab5e18c194,20,2022-02-12_17h41.35.234,lexical_decision_task_DD_L6,2021.2.3,MacIntel,58.82352941,,,,,,,,,,,0.433,1,,,,,,,,,,,,,,,m,1,0.433,,,,,,,,0.631111111,-0.03,0,0,0,,0,122,122,69,1,ARROW,LB,m,m,./images/ARROWLB.png,,,,,,,,,,,,,,,,,,,,,,,,,,,,,,,,,,,
,,,,,,,,,,,,,,,,,6101dba30506a0ab5e18c194,20,2022-02-12_17h41.35.234,lexical_decision_task_DD_L6,2021.2.3,MacIntel,58.82352941,,,,,,,,,,,0.576,1,,,,,,,,,,,,,,,m,1,0.576,,,,,,,,0.631111111,-0.03,0,0,0,,0,123,123,46,1,MUMMY,C,m,m,./images/MUMMY.png,,,,,,,,,,,,,,,,,,,,,,,,,,,,,,,,,,,
,,,,,,,,,,,,,,,,,6101dba30506a0ab5e18c194,20,2022-02-12_17h41.35.234,lexical_decision_task_DD_L6,2021.2.3,MacIntel,58.82352941,,,,,,,,,,,0.632,1,,,,,,,,,,,,,,,m,1,0.632,,,,,,,,0.631111111,-0.03,0,0,0,,0,124,124,24,1,FLESH,LB,m,m,./images/FLESHLB.png,,,,,,,,,,,,,,,,,,,,,,,,,,,,,,,,,,,
,,,,,,,,,,,,,,,,,6101dba30506a0ab5e18c194,20,2022-02-12_17h41.35.234,lexical_decision_task_DD_L6,2021.2.3,MacIntel,58.82352941,,,,,,,,,,,0.586,1,,,,,,,,,,,,,,,z,1,0.586,,,,,,,,0.135555556,-0.411111111,1,0,0,,0,125,125,120,1,RINED,C,z,z,./images/RINED.png,break_done_button,,,,,,,,,,,,,,,,,,,,,,,,,,,,,,,,,,
,,,,,,,,,,,,,,,,,6101dba30506a0ab5e18c194,20,2022-02-12_17h41.35.234,lexical_decision_task_DD_L6,2021.2.3,MacIntel,58.82352941,,,,,,,,,,,1.083,1,,,,,,,,,,,,,,,z,1,1.083,,,,,,,,0.706666667,-0.135555556,0,0,0,,0,126,126,121,1,CEERS,HB,z,z,./images/CEERSHB.png,,,,,,,,,,,,,,,,,,,,,,,,,,,,,,,,,,,
,,,,,,,,,,,,,,,,,6101dba30506a0ab5e18c194,20,2022-02-12_17h41.35.234,lexical_decision_task_DD_L6,2021.2.3,MacIntel,58.82352941,,,,,,,,,,,0.488,1,,,,,,,,,,,,,,,m,1,0.488,,,,,,,,0.706666667,-0.135555556,0,0,0,,0,127,127,4,1,BOXER,C,m,m,./images/BOXER.png,,,,,,,,,,,,,,,,,,,,,,,,,,,,,,,,,,,
,,,,,,,,,,,,,,,,,6101dba30506a0ab5e18c194,20,2022-02-12_17h41.35.234,lexical_decision_task_DD_L6,2021.2.3,MacIntel,58.82352941,,,,,,,,,,,0.686,1,,,,,,,,,,,,,,,m,1,0.686,,,,,,,,0.706666667,-0.135555556,0,0,0,,0,128,128,14,1,FENCE,HB,m,m,./images/FENCEHB.png,,,,,,,,,,,,,,,,,,,,,,,,,,,,,,,,,,,
,,,,,,,,,,,,,,,,,6101dba30506a0ab5e18c194,20,2022-02-12_17h41.35.234,lexical_decision_task_DD_L6,2021.2.3,MacIntel,58.82352941,,,,,,,,,,,2.351,1,,,,,,,,,,,,,,,z,1,2.351,,,,,,,,0.706666667,-0.135555556,0,0,0,,0,129,129,163,1,GAMBA,HB,z,z,./images/GAMBAHB.png,,,,,,,,,,,,,,,,,,,,,,,,,,,,,,,,,,,
,,,,,,,,,,,,,,,,,6101dba30506a0ab5e18c194,20,2022-02-12_17h41.35.234,lexical_decision_task_DD_L6,2021.2.3,MacIntel,58.82352941,,,,,,,,,,,0.517,1,,,,,,,,,,,,,,,z,1,0.517,,,,,,,,0.706666667,-0.135555556,0,0,0,,0,130,130,144,1,NAIRY,C,z,z,./images/NAIRY.png,,,,,,,,,,,,,,,,,,,,,,,,,,,,,,,,,,,
,,,,,,,,,,,,,,,,,6101dba30506a0ab5e18c194,20,2022-02-12_17h41.35.234,lexical_decision_task_DD_L6,2021.2.3,MacIntel,58.82352941,,,,,,,,,,,0.516,0,,,,,,,,,,,,,,,m,0,0.516,,,,,,,,0.706666667,-0.135555556,0,0,0,,0,131,131,104,1,GITTY,LB,z,z,./images/GITTYLB.png,,,,,,,,,,,,,,,,,,,,,,,,,,,,,,,,,,,
,,,,,,,,,,,,,,,,,6101dba30506a0ab5e18c194,20,2022-02-12_17h41.35.234,lexical_decision_task_DD_L6,2021.2.3,MacIntel,58.82352941,,,,,,,,,,,0.421,1,,,,,,,,,,,,,,,m,1,0.421,,,,,,,,0.706666667,-0.135555556,0,0,0,,0,132,132,54,1,CHERRY,LB,m,m,./images/CHERRYLB.png,,,,,,,,,,,,,,,,,,,,,,,,,,,,,,,,,,,
,,,,,,,,,,,,,,,,,6101dba30506a0ab5e18c194,20,2022-02-12_17h41.35.234,lexical_decision_task_DD_L6,2021.2.3,MacIntel,58.82352941,,,,,,,,,,,0.745,1,,,,,,,,,,,,,,,m,1,0.745,,,,,,,,0.706666667,-0.135555556,0,0,0,,0,133,133,20,1,GRANNY,HB,m,m,./images/GRANNYHB.png,,,,,,,,,,,,,,,,,,,,,,,,,,,,,,,,,,,
,,,,,,,,,,,,,,,,,6101dba30506a0ab5e18c194,20,2022-02-12_17h41.35.234,lexical_decision_task_DD_L6,2021.2.3,MacIntel,58.82352941,,,,,,,,,,,1.392,0,,,,,,,,,,,,,,,m,0,1.392,,,,,,,,0.706666667,-0.135555556,0,0,0,,0,134,134,157,1,INLER,HB,z,z,./images/INLERHB.png,,,,,,,,,,,,,,,,,,,,,,,,,,,,,,,,,,,
,,,,,,,,,,,,,,,,,6101dba30506a0ab5e18c194,20,2022-02-12_17h41.35.234,lexical_decision_task_DD_L6,2021.2.3,MacIntel,58.82352941,,,,,,,,,,,0.517,1,,,,,,,,,,,,,,,m,1,0.517,,,,,,,,0.706666667,-0.135555556,0,0,0,,0,135,135,34,1,RAZOR,C,m,m,./images/RAZOR.png,,,,,,,,,,,,,,,,,,,,,,,,,,,,,,,,,,,
,,,,,,,,,,,,,,,,,6101dba30506a0ab5e18c194,20,2022-02-12_17h41.35.234,lexical_decision_task_DD_L6,2021.2.3,MacIntel,58.82352941,,,,,,,,,,,0.8,1,,,,,,,,,,,,,,,m,1,0.8,,,,,,,,0.706666667,-0.135555556,0,0,0,,0,136,136,56,1,HEATER,HB,m,m,./images/HEATERHB.png,,,,,,,,,,,,,,,,,,,,,,,,,,,,,,,,,,,
,,,,,,,,,,,,,,,,,6101dba30506a0ab5e18c194,20,2022-02-12_17h41.35.234,lexical_decision_task_DD_L6,2021.2.3,MacIntel,58.82352941,,,,,,,,,,,1.162,0,,,,,,,,,,,,,,,m,0,1.162,,,,,,,,0.706666667,-0.135555556,0,0,0,,0,137,137,110,1,CRUNK,LB,z,z,./images/CRUNKLB.png,,,,,,,,,,,,,,,,,,,,,,,,,,,,,,,,,,,
,,,,,,,,,,,,,,,,,6101dba30506a0ab5e18c194,20,2022-02-12_17h41.35.234,lexical_decision_task_DD_L6,2021.2.3,MacIntel,58.82352941,,,,,,,,,,,0.536,1,,,,,,,,,,,,,,,m,1,0.536,,,,,,,,0.706666667,-0.135555556,0,0,0,,0,138,138,28,1,CASINO,C,m,m,./images/CASINO.png,,,,,,,,,,,,,,,,,,,,,,,,,,,,,,,,,,,
,,,,,,,,,,,,,,,,,6101dba30506a0ab5e18c194,20,2022-02-12_17h41.35.234,lexical_decision_task_DD_L6,2021.2.3,MacIntel,58.82352941,,,,,,,,,,,0.633,1,,,,,,,,,,,,,,,z,1,0.633,,,,,,,,0.706666667,-0.135555556,0,0,0,,0,139,139,152,1,FRAIN,LB,z,z,./images/FRAINLB.png,,,,,,,,,,,,,,,,,,,,,,,,,,,,,,,,,,,
,,,,,,,,,,,,,,,,,6101dba30506a0ab5e18c194,20,2022-02-12_17h41.35.234,lexical_decision_task_DD_L6,2021.2.3,MacIntel,58.82352941,,,,,,,,,,,0.535,1,,,,,,,,,,,,,,,z,1,0.535,,,,,,,,0.706666667,-0.135555556,0,0,0,,0,140,140,95,1,HANTY,LB,z,z,./images/HANTYLB.png,,,,,,,,,,,,,,,,,,,,,,,,,,,,,,,,,,,
,,,,,,,,,,,,,,,,,6101dba30506a0ab5e18c194,20,2022-02-12_17h41.35.234,lexical_decision_task_DD_L6,2021.2.3,MacIntel,58.82352941,,,,,,,,,,,0.669,1,,,,,,,,,,,,,,,z,1,0.669,,,,,,,,0.706666667,-0.135555556,0,0,0,,0,141,141,145,1,LAMEL,HB,z,z,./images/LAMELHB.png,,,,,,,,,,,,,,,,,,,,,,,,,,,,,,,,,,,
,,,,,,,,,,,,,,,,,6101dba30506a0ab5e18c194,20,2022-02-12_17h41.35.234,lexical_decision_task_DD_L6,2021.2.3,MacIntel,58.82352941,,,,,,,,,,,1.435,1,,,,,,,,,,,,,,,m,1,1.435,,,,,,,,0.706666667,-0.135555556,0,0,0,,0,142,142,8,1,CLIFF,HB,m,m,./images/CLIFFHB.png,,,,,,,,,,,,,,,,,,,,,,,,,,,,,,,,,,,
,,,,,,,,,,,,,,,,,6101dba30506a0ab5e18c194,20,2022-02-12_17h41.35.234,lexical_decision_task_DD_L6,2021.2.3,MacIntel,58.82352941,,,,,,,,,,,0.53,1,,,,,,,,,,,,,,,m,1,0.53,,,,,,,,0.706666667,-0.135555556,0,0,0,,0,143,143,9,1,DIVER,LB,m,m,./images/DIVERLB.png,,,,,,,,,,,,,,,,,,,,,,,,,,,,,,,,,,,
,,,,,,,,,,,,,,,,,6101dba30506a0ab5e18c194,20,2022-02-12_17h41.35.234,lexical_decision_task_DD_L6,2021.2.3,MacIntel,58.82352941,,,,,,,,,,,0.564,1,,,,,,,,,,,,,,,m,1,0.564,,,,,,,,0.706666667,-0.135555556,0,0,0,,0,144,144,82,1,PEBBLE,C,m,m,./images/PEBBLE.png,,,,,,,,,,,,,,,,,,,,,,,,,,,,,,,,,,,
,,,,,,,,,,,,,,,,,6101dba30506a0ab5e18c194,20,2022-02-12_17h41.35.234,lexical_decision_task_DD_L6,2021.2.3,MacIntel,58.82352941,,,,,,,,,,,0.504,1,,,,,,,,,,,,,,,m,1,0.504,,,,,,,,0.706666667,-0.135555556,0,0,0,,0,145,145,42,1,CHAIN,LB,m,m,./images/CHAINLB.png,,,,,,,,,,,,,,,,,,,,,,,,,,,,,,,,,,,
,,,,,,,,,,,,,,,,,6101dba30506a0ab5e18c194,20,2022-02-12_17h41.35.234,lexical_decision_task_DD_L6,2021.2.3,MacIntel,58.82352941,,,,,,,,,,,1.098,1,,,,,,,,,,,,,,,m,1,1.098,,,,,,,,0.706666667,-0.135555556,0,0,0,,0,146,146,64,1,BRIDE,C,m,m,./images/BRIDE.png,,,,,,,,,,,,,,,,,,,,,,,,,,,,,,,,,,,
,,,,,,,,,,,,,,,,,6101dba30506a0ab5e18c194,20,2022-02-12_17h41.35.234,lexical_decision_task_DD_L6,2021.2.3,MacIntel,58.82352941,,,,,,,,,,,0.886,1,,,,,,,,,,,,,,,z,1,0.886,,,,,,,,0.706666667,-0.135555556,0,0,0,,0,147,147,98,1,BAMPS,LB,z,z,./images/BAMPSLB.png,,,,,,,,,,,,,,,,,,,,,,,,,,,,,,,,,,,
,,,,,,,,,,,,,,,,,6101dba30506a0ab5e18c194,20,2022-02-12_17h41.35.234,lexical_decision_task_DD_L6,2021.2.3,MacIntel,58.82352941,,,,,,,,,,,0.665,1,,,,,,,,,,,,,,,m,1,0.665,,,,,,,,0.706666667,-0.135555556,0,0,0,,0,148,148,71,1,BUBBLE,HB,m,m,./images/BUBBLEHB.png,,,,,,,,,,,,,,,,,,,,,,,,,,,,,,,,,,,
,,,,,,,,,,,,,,,,,6101dba30506a0ab5e18c194,20,2022-02-12_17h41.35.234,lexical_decision_task_DD_L6,2021.2.3,MacIntel,58.82352941,,,,,,,,,,,1.42,1,,,,,,,,,,,,,,,z,1,1.42,,,,,,,,0.706666667,-0.135555556,0,0,0,,0,149,149,96,1,KEAMS,C,z,z,./images/KEAMS.png,,,,,,,,,,,,,,,,,,,,,,,,,,,,,,,,,,,
,,,,,,,,,,,,,,,,,6101dba30506a0ab5e18c194,20,2022-02-12_17h41.35.234,lexical_decision_task_DD_L6,2021.2.3,MacIntel,58.82352941,,,,,,,,,,,1.063,0,,,,,,,,,,,,,,,m,0,1.063,,,,,,,,0.706666667,-0.135555556,0,0,0,,0,150,150,142,1,PLASK,HB,z,z,./images/PLASKHB.png,,,,,,,,,,,,,,,,,,,,,,,,,,,,,,,,,,,
,,,,,,,,,,,,,,,,,6101dba30506a0ab5e18c194,20,2022-02-12_17h41.35.234,lexical_decision_task_DD_L6,2021.2.3,MacIntel,58.82352941,,,,,,,,,,,1.17,1,,,,,,,,,,,,,,,m,1,1.17,,,,,,,,0.706666667,-0.135555556,0,0,0,,0,151,151,26,1,CLOUD,HB,m,m,./images/CLOUDHB.png,,,,,,,,,,,,,,,,,,,,,,,,,,,,,,,,,,,
,,,,,,,,,,,,,,,,,6101dba30506a0ab5e18c194,20,2022-02-12_17h41.35.234,lexical_decision_task_DD_L6,2021.2.3,MacIntel,58.82352941,,,,,,,,,,,0.584,1,,,,,,,,,,,,,,,m,1,0.584,,,,,,,,0.706666667,-0.135555556,0,0,0,,0,152,152,78,1,BROOM,LB,m,m,./images/BROOMLB.png,,,,,,,,,,,,,,,,,,,,,,,,,,,,,,,,,,,
,,,,,,,,,,,,,,,,,6101dba30506a0ab5e18c194,20,2022-02-12_17h41.35.234,lexical_decision_task_DD_L6,2021.2.3,MacIntel,58.82352941,,,,,,,,,,,0.517,1,,,,,,,,,,,,,,,m,1,0.517,,,,,,,,0.706666667,-0.135555556,0,0,0,,0,153,153,21,1,DANCER,LB,m,m,./images/DANCERLB.png,,,,,,,,,,,,,,,,,,,,,,,,,,,,,,,,,,,
,,,,,,,,,,,,,,,,,6101dba30506a0ab5e18c194,20,2022-02-12_17h41.35.234,lexical_decision_task_DD_L6,2021.2.3,MacIntel,58.82352941,,,,,,,,,,,0.963,1,,,,,,,,,,,,,,,z,1,0.963,,,,,,,,0.706666667,-0.135555556,0,0,0,,0,154,154,109,1,BURGE,HB,z,z,./images/BURGEHB.png,,,,,,,,,,,,,,,,,,,,,,,,,,,,,,,,,,,
,,,,,,,,,,,,,,,,,6101dba30506a0ab5e18c194,20,2022-02-12_17h41.35.234,lexical_decision_task_DD_L6,2021.2.3,MacIntel,58.82352941,,,,,,,,,,,0.631,1,,,,,,,,,,,,,,,z,1,0.631,,,,,,,,0.706666667,-0.135555556,0,0,0,,0,155,155,112,1,MYING,HB,z,z,./images/MYINGHB.png,,,,,,,,,,,,,,,,,,,,,,,,,,,,,,,,,,,
,,,,,,,,,,,,,,,,,6101dba30506a0ab5e18c194,20,2022-02-12_17h41.35.234,lexical_decision_task_DD_L6,2021.2.3,MacIntel,58.82352941,,,,,,,,,,,0.599,1,,,,,,,,,,,,,,,m,1,0.599,,,,,,,,0.706666667,-0.135555556,0,0,0,,0,156,156,32,1,HOCKEY,HB,m,m,./images/HOCKEYHB.png,,,,,,,,,,,,,,,,,,,,,,,,,,,,,,,,,,,
,,,,,,,,,,,,,,,,,6101dba30506a0ab5e18c194,20,2022-02-12_17h41.35.234,lexical_decision_task_DD_L6,2021.2.3,MacIntel,58.82352941,,,,,,,,,,,0.534,1,,,,,,,,,,,,,,,m,1,0.534,,,,,,,,0.706666667,-0.135555556,0,0,0,,0,157,157,22,1,CLOWN,C,m,m,./images/CLOWN.png,,,,,,,,,,,,,,,,,,,,,,,,,,,,,,,,,,,
,,,,,,,,,,,,,,,,,6101dba30506a0ab5e18c194,20,2022-02-12_17h41.35.234,lexical_decision_task_DD_L6,2021.2.3,MacIntel,58.82352941,,,,,,,,,,,0.515,0,,,,,,,,,,,,,,,m,0,0.515,,,,,,,,0.706666667,-0.135555556,0,0,0,,0,158,158,107,1,FASKS,LB,z,z,./images/FASKSLB.png,,,,,,,,,,,,,,,,,,,,,,,,,,,,,,,,,,,
,,,,,,,,,,,,,,,,,6101dba30506a0ab5e18c194,20,2022-02-12_17h41.35.234,lexical_decision_task_DD_L6,2021.2.3,MacIntel,58.82352941,,,,,,,,,,,2.832,1,,,,,,,,,,,,,,,z,1,2.832,,,,,,,,0.706666667,-0.135555556,0,0,0,,0,159,159,101,1,GLEET,LB,z,z,./images/GLEETLB.png,,,,,,,,,,,,,,,,,,,,,,,,,,,,,,,,,,,
,,,,,,,,,,,,,,,,,6101dba30506a0ab5e18c194,20,2022-02-12_17h41.35.234,lexical_decision_task_DD_L6,2021.2.3,MacIntel,58.82352941,,,,,,,,,,,2.797,1,,,,,,,,,,,,,,,z,1,2.797,,,,,,,,0.706666667,-0.135555556,0,0,0,,0,160,160,94,1,BLANS,HB,z,z,./images/BLANSHB.png,,,,,,,,,,,,,,,,,,,,,,,,,,,,,,,,,,,
,,,,,,,,,,,,,,,,,6101dba30506a0ab5e18c194,20,2022-02-12_17h41.35.234,lexical_decision_task_DD_L6,2021.2.3,MacIntel,58.82352941,,,,,,,,,,,1.497,1,,,,,,,,,,,,,,,z,1,1.497,,,,,,,,0.451111111,-0.035555556,0,0,0,,0,161,161,85,1,CHULK,HB,z,z,./images/CHULKHB.png,,,,,,,,,,,,,,,,,,,,,,,,,,,,,,,,,,,
,,,,,,,,,,,,,,,,,6101dba30506a0ab5e18c194,20,2022-02-12_17h41.35.234,lexical_decision_task_DD_L6,2021.2.3,MacIntel,58.82352941,,,,,,,,,,,0.563,1,,,,,,,,,,,,,,,z,1,0.563,,,,,,,,0.451111111,-0.035555556,0,0,0,,0,162,162,108,1,GRUET,C,z,z,./images/GRUET.png,,,,,,,,,,,,,,,,,,,,,,,,,,,,,,,,,,,
,,,,,,,,,,,,,,,,,6101dba30506a0ab5e18c194,20,2022-02-12_17h41.35.234,lexical_decision_task_DD_L6,2021.2.3,MacIntel,58.82352941,,,,,,,,,,,0.587,1,,,,,,,,,,,,,,,z,1,0.587,,,,,,,,0.451111111,-0.035555556,0,0,0,,0,163,163,122,1,BLOOT,LB,z,z,./images/BLOOTLB.png,,,,,,,,,,,,,,,,,,,,,,,,,,,,,,,,,,,
,,,,,,,,,,,,,,,,,6101dba30506a0ab5e18c194,20,2022-02-12_17h41.35.234,lexical_decision_task_DD_L6,2021.2.3,MacIntel,58.82352941,,,,,,,,,,,0.488,1,,,,,,,,,,,,,,,z,1,0.488,,,,,,,,0.451111111,-0.035555556,0,0,0,,0,164,164,102,1,DULLE,C,z,z,./images/DULLE.png,,,,,,,,,,,,,,,,,,,,,,,,,,,,,,,,,,,
,,,,,,,,,,,,,,,,,6101dba30506a0ab5e18c194,20,2022-02-12_17h41.35.234,lexical_decision_task_DD_L6,2021.2.3,MacIntel,58.82352941,,,,,,,,,,,0.8,1,,,,,,,,,,,,,,,m,1,0.8,,,,,,,,0.451111111,-0.035555556,0,0,0,,0,165,165,2,1,STOVE,HB,m,m,./images/STOVEHB.png,,,,,,,,,,,,,,,,,,,,,,,,,,,,,,,,,,,
,,,,,,,,,,,,,,,,,6101dba30506a0ab5e18c194,20,2022-02-12_17h41.35.234,lexical_decision_task_DD_L6,2021.2.3,MacIntel,58.82352941,,,,,,,,,,,0.499,1,,,,,,,,,,,,,,,m,1,0.499,,,,,,,,0.451111111,-0.035555556,0,0,0,,0,166,166,13,1,BUNNY,C,m,m,./images/BUNNY.png,,,,,,,,,,,,,,,,,,,,,,,,,,,,,,,,,,,
,,,,,,,,,,,,,,,,,6101dba30506a0ab5e18c194,20,2022-02-12_17h41.35.234,lexical_decision_task_DD_L6,2021.2.3,MacIntel,58.82352941,,,,,,,,,,,0.763,1,,,,,,,,,,,,,,,m,1,0.763,,,,,,,,0.451111111,-0.035555556,0,0,0,,0,167,167,68,1,VALLEY,HB,m,m,./images/VALLEYHB.png,,,,,,,,,,,,,,,,,,,,,,,,,,,,,,,,,,,
,,,,,,,,,,,,,,,,,6101dba30506a0ab5e18c194,20,2022-02-12_17h41.35.234,lexical_decision_task_DD_L6,2021.2.3,MacIntel,58.82352941,,,,,,,,,,,,,,,,,,,,,,,,,,,,,,,,,,,,,,,,,,,,,,,,,How likely will it be that you will recognize the words presented clearly on a scale of 0 (not likely) to 100 (most likely)?,,,,,-0.001111111,-0.397777778,1,0,0,jol_adv,6,11.295,0,0,0,0,1,,,,,,,,,,,,,,,,,,,,,
,,,,,,,,,,,,,,,,,6101dba30506a0ab5e18c194,20,2022-02-12_17h41.35.234,lexical_decision_task_DD_L6,2021.2.3,MacIntel,58.82352941,,,,,,,,,,,,,,,,,,,,,,,,,,,,,,,,,,,,,,,,,,,,,,,,,How likely will it be that you will recognize the words presented very blurred on a scale of 0 (not likely) to 100 (most likely)?,,,,,,,,,,,5,5.368,0,1,1,2,1,,,,,,,,,,,,,,,,,,,,,
,,,,,,,,,,,,,,,,,6101dba30506a0ab5e18c194,20,2022-02-12_17h41.35.234,lexical_decision_task_DD_L6,2021.2.3,MacIntel,58.82352941,,,,,,,,,,,,,,,,,,,,,,,,,,,,,,,,,,,,,,,,,,,,,,,,,How likely will it be that you will recognize the words presented slighly blurred on a scale of 0 (not likely) to 100 (most likely)?,,,,,,,,,,,5,4.57,0,2,2,1,1,,,,,,,,,,,,,,,,,,,,,
,,0.09,-0.371111111,1,0,0,,,,,,1,test,"In the next phase you will be presented with the words from the the first phase. Your job is to decide whether you remember seeing the word or not. If you remember seeing the word press ""old"" or type ""m"". If you do not remember seeing the word press ""new"" or type ""z"". Please press the space bar or click on continue to begin. ",,,6101dba30506a0ab5e18c194,20,2022-02-12_17h41.35.234,lexical_decision_task_DD_L6,2021.2.3,MacIntel,58.82352941,,,,,,,,,,,,,,,,,,,,,instr_done_button,,,,,,,,,,,,,,,,,,,,,,,,,,,,,,,,,,,,,,,,,,,,,,0,0,0,0,1,,,,,,,,,,,,,,,,
,,0.025555556,-0.378888889,1,0,0,,,,,,1,test,"In the next phase you will be presented with the words from the the first phase. Your job is to decide whether you remember seeing the word or not. If you remember seeing the word press ""old"" or type ""m"". If you do not remember seeing the word press ""new"" or type ""z"". Please press the space bar or click on continue to begin. ",,,6101dba30506a0ab5e18c194,20,2022-02-12_17h41.35.234,lexical_decision_task_DD_L6,2021.2.3,MacIntel,58.82352941,,,,,,,,,,,,,,,,,,,,,instr_done_button,,,,,,,,,,,,,,,,,,,,,,,,,,,,,,,,,,,,,,,,,,,,,,1,0,1,0,1,,,,,,,,,,,,,,,,
space,0.401,0.025555556,-0.378888889,0,0,0,,,,,,1,test,"In the next phase you will be presented with the words from the the first phase. Your job is to decide whether you remember seeing the word or not. If you remember seeing the word press ""old"" or type ""m"". If you do not remember seeing the word press ""new"" or type ""z"". Please press the space bar or click on continue to begin. ",,,6101dba30506a0ab5e18c194,20,2022-02-12_17h41.35.234,lexical_decision_task_DD_L6,2021.2.3,MacIntel,58.82352941,,,,,,,,,,,,,,,,,,,,,,,,,,,,,,,,,,,,,,,,,,,,,,,,,,,,,,,,,,,,,,,,,,,2,0,2,0,1,,,,,,,,,,,,,,,,
space,1.251,0.015555556,-0.054444444,0,0,0,,,,,,1,test,"In the next phase you will be presented with the words from the the first phase. Your job is to decide whether you remember seeing the word or not. If you remember seeing the word press ""old"" or type ""m"". If you do not remember seeing the word press ""new"" or type ""z"". Please press the space bar or click on continue to begin. ",,,6101dba30506a0ab5e18c194,20,2022-02-12_17h41.35.234,lexical_decision_task_DD_L6,2021.2.3,MacIntel,58.82352941,,,,,,,,,,,,,,,,,,,,,,,,,,,,,,,,,,,,,,,,,,,,,,,,,,,,,,,,,,,,,,,,,,,3,0,3,0,1,,,,,,,,,,,,,,,,
,,-0.030487805,-0.373170732,1,0,0,,,,,,1,test,"In the next phase you will be presented with the words from the the first phase. Your job is to decide whether you remember seeing the word or not. If you remember seeing the word press ""old"" or type ""m"". If you do not remember seeing the word press ""new"" or type ""z"". Please press the space bar or click on continue to begin. ",,,6101dba30506a0ab5e18c194,20,2022-02-12_17h41.35.234,lexical_decision_task_DD_L6,2021.2.3,MacIntel,58.82352941,,,,,,,,,,,,,,,,,,,,,instr_done_button,,,,,,,,,,,,,,,,,,,,,,,,,,,,,,,,,,,,,,,,,,,,,,4,0,4,0,1,,,,,,,,,,,,,,,,
,,,,,,,,,,,,,,,,,6101dba30506a0ab5e18c194,20,2022-02-12_17h41.35.234,lexical_decision_task_DD_L6,2021.2.3,MacIntel,58.82352941,,,,,,,,,,,3.852,0,,,,,,,,,,,,,,,,,,,,,,,,,0.363414634,-0.341463415,0,0,0,,,,,,,CRADLE,HB,z,y,./images/CRADLEHB.png,,,,,,,,,,,,,,,,,,,,m,0,3.852,,,,,,,,0,0,0,104,1,
,,,,,,,,,,,,,,,,,6101dba30506a0ab5e18c194,20,2022-02-12_17h41.35.234,lexical_decision_task_DD_L6,2021.2.3,MacIntel,58.82352941,,,,,,,,,,,2.827,1,,,,,,,,,,,,,,,,,,,,,,,,,0.363414634,-0.341463415,0,0,0,,,,,,,WAGON,C,m,y,./images/WAGON.png,,,,,,,,,,,,,,,,,,,,m,1,2.827,,,,,,,,0,1,1,7,1,
,,,,,,,,,,,,,,,,,6101dba30506a0ab5e18c194,20,2022-02-12_17h41.35.234,lexical_decision_task_DD_L6,2021.2.3,MacIntel,58.82352941,,,,,,,,,,,2.68,1,,,,,,,,,,,,,,,,,,,,,,,,,0.363414634,-0.341463415,0,0,0,,,,,,,BUNNY,C,m,y,./images/BUNNY.png,,,,,,,,,,,,,,,,,,,,m,1,2.68,,,,,,,,0,2,2,13,1,
,,,,,,,,,,,,,,,,,6101dba30506a0ab5e18c194,20,2022-02-12_17h41.35.234,lexical_decision_task_DD_L6,2021.2.3,MacIntel,58.82352941,,,,,,,,,,,0.966,0,,,,,,,,,,,,,,,,,,,,,,,,,0.363414634,-0.341463415,0,0,0,,,,,,,HEATER,HB,m,y,./images/HEATERHB.png,,,,,,,,,,,,,,,,,,,,z,0,0.966,,,,,,,,0,3,3,56,1,
,,,,,,,,,,,,,,,,,6101dba30506a0ab5e18c194,20,2022-02-12_17h41.35.234,lexical_decision_task_DD_L6,2021.2.3,MacIntel,58.82352941,,,,,,,,,,,0.777,1,,,,,,,,,,,,,,,,,,,,,,,,,0.363414634,-0.341463415,0,0,0,,,,,,,MOSQUE,C,z,y,./images/MOSQUE.png,,,,,,,,,,,,,,,,,,,,z,1,0.777,,,,,,,,0,4,4,127,1,
,,,,,,,,,,,,,,,,,6101dba30506a0ab5e18c194,20,2022-02-12_17h41.35.234,lexical_decision_task_DD_L6,2021.2.3,MacIntel,58.82352941,,,,,,,,,,,0.61,1,,,,,,,,,,,,,,,,,,,,,,,,,0.363414634,-0.341463415,0,0,0,,,,,,,BASKET,HB,m,y,./images/BASKETHB.png,,,,,,,,,,,,,,,,,,,,m,1,0.61,,,,,,,,0,5,5,44,1,
,,,,,,,,,,,,,,,,,6101dba30506a0ab5e18c194,20,2022-02-12_17h41.35.234,lexical_decision_task_DD_L6,2021.2.3,MacIntel,58.82352941,,,,,,,,,,,0.728,1,,,,,,,,,,,,,,,,,,,,,,,,,0.363414634,-0.341463415,0,0,0,,,,,,,MUSCLE,C,z,y,./images/MUSCLE.png,,,,,,,,,,,,,,,,,,,,z,1,0.728,,,,,,,,0,6,6,88,1,
,,,,,,,,,,,,,,,,,6101dba30506a0ab5e18c194,20,2022-02-12_17h41.35.234,lexical_decision_task_DD_L6,2021.2.3,MacIntel,58.82352941,,,,,,,,,,,1.028,1,,,,,,,,,,,,,,,,,,,,,,,,,0.363414634,-0.341463415,0,0,0,,,,,,,WEASEL,HB,z,y,./images/WEASELHB.png,,,,,,,,,,,,,,,,,,,,z,1,1.028,,,,,,,,0,7,7,164,1,
,,,,,,,,,,,,,,,,,6101dba30506a0ab5e18c194,20,2022-02-12_17h41.35.234,lexical_decision_task_DD_L6,2021.2.3,MacIntel,58.82352941,,,,,,,,,,,0.728,0,,,,,,,,,,,,,,,,,,,,,,,,,0.363414634,-0.341463415,0,0,0,,,,,,,RAZOR,C,m,y,./images/RAZOR.png,,,,,,,,,,,,,,,,,,,,z,0,0.728,,,,,,,,0,8,8,34,1,
,,,,,,,,,,,,,,,,,6101dba30506a0ab5e18c194,20,2022-02-12_17h41.35.234,lexical_decision_task_DD_L6,2021.2.3,MacIntel,58.82352941,,,,,,,,,,,1.661,1,,,,,,,,,,,,,,,,,,,,,,,,,0.363414634,-0.341463415,0,0,0,,,,,,,SNAKE,C,m,y,./images/SNAKE.png,,,,,,,,,,,,,,,,,,,,m,1,1.661,,,,,,,,0,9,9,40,1,
,,,,,,,,,,,,,,,,,6101dba30506a0ab5e18c194,20,2022-02-12_17h41.35.234,lexical_decision_task_DD_L6,2021.2.3,MacIntel,58.82352941,,,,,,,,,,,0.572,0,,,,,,,,,,,,,,,,,,,,,,,,,0.363414634,-0.341463415,0,0,0,,,,,,,STEAK,C,m,y,./images/STEAK.png,,,,,,,,,,,,,,,,,,,,z,0,0.572,,,,,,,,0,10,10,31,1,
,,,,,,,,,,,,,,,,,6101dba30506a0ab5e18c194,20,2022-02-12_17h41.35.234,lexical_decision_task_DD_L6,2021.2.3,MacIntel,58.82352941,,,,,,,,,,,2.201,0,,,,,,,,,,,,,,,,,,,,,,,,,0.363414634,-0.341463415,0,0,0,,,,,,,BOILER,LB,m,y,./images/BOILERLB.png,,,,,,,,,,,,,,,,,,,,z,0,2.201,,,,,,,,0,11,11,36,1,
,,,,,,,,,,,,,,,,,6101dba30506a0ab5e18c194,20,2022-02-12_17h41.35.234,lexical_decision_task_DD_L6,2021.2.3,MacIntel,58.82352941,,,,,,,,,,,4.5,1,,,,,,,,,,,,,,,,,,,,,,,,,0.363414634,-0.341463415,0,0,0,,,,,,,CURRY,LB,m,y,./images/CURRYLB.png,,,,,,,,,,,,,,,,,,,,m,1,4.5,,,,,,,,0,12,12,60,1,
,,,,,,,,,,,,,,,,,6101dba30506a0ab5e18c194,20,2022-02-12_17h41.35.234,lexical_decision_task_DD_L6,2021.2.3,MacIntel,58.82352941,,,,,,,,,,,0.946,1,,,,,,,,,,,,,,,,,,,,,,,,,0.363414634,-0.352439024,0,0,0,,,,,,,DESERT,C,m,y,./images/DESERT.png,,,,,,,,,,,,,,,,,,,,m,1,0.946,,,,,,,,0,13,13,52,1,
,,,,,,,,,,,,,,,,,6101dba30506a0ab5e18c194,20,2022-02-12_17h41.35.234,lexical_decision_task_DD_L6,2021.2.3,MacIntel,58.82352941,,,,,,,,,,,1.099,0,,,,,,,,,,,,,,,,,,,,,,,,,0.363414634,-0.352439024,0,0,0,,,,,,,DONKEY,C,m,y,./images/DONKEY.png,,,,,,,,,,,,,,,,,,,,z,0,1.099,,,,,,,,0,14,14,19,1,
,,,,,,,,,,,,,,,,,6101dba30506a0ab5e18c194,20,2022-02-12_17h41.35.234,lexical_decision_task_DD_L6,2021.2.3,MacIntel,58.82352941,,,,,,,,,,,0.812,0,,,,,,,,,,,,,,,,,,,,,,,,,0.363414634,-0.352439024,0,0,0,,,,,,,STAIN,LB,m,y,./images/STAINLB.png,,,,,,,,,,,,,,,,,,,,z,0,0.812,,,,,,,,0,15,15,6,1,
,,,,,,,,,,,,,,,,,6101dba30506a0ab5e18c194,20,2022-02-12_17h41.35.234,lexical_decision_task_DD_L6,2021.2.3,MacIntel,58.82352941,,,,,,,,,,,0.862,1,,,,,,,,,,,,,,,,,,,,,,,,,0.363414634,-0.352439024,0,0,0,,,,,,,QUILL,C,z,y,./images/QUILL.png,,,,,,,,,,,,,,,,,,,,z,1,0.862,,,,,,,,0,16,16,115,1,
,,,,,,,,,,,,,,,,,6101dba30506a0ab5e18c194,20,2022-02-12_17h41.35.234,lexical_decision_task_DD_L6,2021.2.3,MacIntel,58.82352941,,,,,,,,,,,0.787,0,,,,,,,,,,,,,,,,,,,,,,,,,0.363414634,-0.352439024,0,0,0,,,,,,,WHISKY,HB,m,y,./images/WHISKYHB.png,,,,,,,,,,,,,,,,,,,,z,0,0.787,,,,,,,,0,17,17,83,1,
,,,,,,,,,,,,,,,,,6101dba30506a0ab5e18c194,20,2022-02-12_17h41.35.234,lexical_decision_task_DD_L6,2021.2.3,MacIntel,58.82352941,,,,,,,,,,,20.982,1,,,,,,,,,,,,,,,,,,,,,,,,,0.363414634,-0.352439024,1,0,0,,,,,,,SAUCE,LB,m,y,./images/SAUCELB.png,,,,,,,,,,,,,,,,,,,,,0,,0.363414634,-0.352439024,1,0,0,20.982,button_right_test,0,18,18,51,1,
,,,,,,,,,,,,,,,,,6101dba30506a0ab5e18c194,20,2022-02-12_17h41.35.234,lexical_decision_task_DD_L6,2021.2.3,MacIntel,58.82352941,,,,,,,,,,,23.783,1,,,,,,,,,,,,,,,,,,,,,,,,,-0.276829268,-0.254878049,0,0,0,,,,,,,WHEEL,HB,m,y,./images/WHEELHB.png,,,,,,,,,,,,,,,,,,,,m,1,23.783,,,,,,,,0,19,19,77,1,
,,,,,,,,,,,,,,,,,6101dba30506a0ab5e18c194,20,2022-02-12_17h41.35.234,lexical_decision_task_DD_L6,2021.2.3,MacIntel,58.82352941,,,,,,,,,,,0.649,1,,,,,,,,,,,,,,,,,,,,,,,,,-0.276829268,-0.254878049,0,0,0,,,,,,,ALLEY,C,m,y,./images/ALLEY.png,,,,,,,,,,,,,,,,,,,,m,1,0.649,,,,,,,,0,20,20,55,1,
,,,,,,,,,,,,,,,,,6101dba30506a0ab5e18c194,20,2022-02-12_17h41.35.234,lexical_decision_task_DD_L6,2021.2.3,MacIntel,58.82352941,,,,,,,,,,,0.678,0,,,,,,,,,,,,,,,,,,,,,,,,,-0.276829268,-0.254878049,0,0,0,,,,,,,BLOKE,LB,m,y,./images/BLOKELB.png,,,,,,,,,,,,,,,,,,,,z,0,0.678,,,,,,,,0,21,21,12,1,
,,,,,,,,,,,,,,,,,6101dba30506a0ab5e18c194,20,2022-02-12_17h41.35.234,lexical_decision_task_DD_L6,2021.2.3,MacIntel,58.82352941,,,,,,,,,,,0.57,0,,,,,,,,,,,,,,,,,,,,,,,,,-0.276829268,-0.254878049,0,0,0,,,,,,,BISHOP,C,m,y,./images/BISHOP.png,,,,,,,,,,,,,,,,,,,,z,0,0.57,,,,,,,,0,22,22,49,1,
,,,,,,,,,,,,,,,,,6101dba30506a0ab5e18c194,20,2022-02-12_17h41.35.234,lexical_decision_task_DD_L6,2021.2.3,MacIntel,58.82352941,,,,,,,,,,,0.714,1,,,,,,,,,,,,,,,,,,,,,,,,,-0.276829268,-0.254878049,0,0,0,,,,,,,MIDGET,C,m,y,./images/MIDGET.png,,,,,,,,,,,,,,,,,,,,m,1,0.714,,,,,,,,0,23,23,76,1,
,,,,,,,,,,,,,,,,,6101dba30506a0ab5e18c194,20,2022-02-12_17h41.35.234,lexical_decision_task_DD_L6,2021.2.3,MacIntel,58.82352941,,,,,,,,,,,0.651,1,,,,,,,,,,,,,,,,,,,,,,,,,-0.276829268,-0.254878049,0,0,0,,,,,,,PILOT,HB,m,y,./images/PILOTHB.png,,,,,,,,,,,,,,,,,,,,m,1,0.651,,,,,,,,0,24,24,50,1,
,,,,,,,,,,,,,,,,,6101dba30506a0ab5e18c194,20,2022-02-12_17h41.35.234,lexical_decision_task_DD_L6,2021.2.3,MacIntel,58.82352941,,,,,,,,,,,0.528,1,,,,,,,,,,,,,,,,,,,,,,,,,-0.276829268,-0.254878049,0,0,0,,,,,,,CHERRY,LB,m,y,./images/CHERRYLB.png,,,,,,,,,,,,,,,,,,,,m,1,0.528,,,,,,,,0,25,25,54,1,
,,,,,,,,,,,,,,,,,6101dba30506a0ab5e18c194,20,2022-02-12_17h41.35.234,lexical_decision_task_DD_L6,2021.2.3,MacIntel,58.82352941,,,,,,,,,,,0.668,0,,,,,,,,,,,,,,,,,,,,,,,,,-0.276829268,-0.254878049,0,0,0,,,,,,,SCREW,LB,z,y,./images/SCREWLB.png,,,,,,,,,,,,,,,,,,,,m,0,0.668,,,,,,,,0,26,26,108,1,
,,,,,,,,,,,,,,,,,6101dba30506a0ab5e18c194,20,2022-02-12_17h41.35.234,lexical_decision_task_DD_L6,2021.2.3,MacIntel,58.82352941,,,,,,,,,,,0.484,0,,,,,,,,,,,,,,,,,,,,,,,,,-0.276829268,-0.254878049,0,0,0,,,,,,,BOXER,C,m,y,./images/BOXER.png,,,,,,,,,,,,,,,,,,,,z,0,0.484,,,,,,,,0,27,27,4,1,
,,,,,,,,,,,,,,,,,6101dba30506a0ab5e18c194,20,2022-02-12_17h41.35.234,lexical_decision_task_DD_L6,2021.2.3,MacIntel,58.82352941,,,,,,,,,,,0.649,1,,,,,,,,,,,,,,,,,,,,,,,,,-0.276829268,-0.254878049,0,0,0,,,,,,,CLOUD,HB,m,y,./images/CLOUDHB.png,,,,,,,,,,,,,,,,,,,,m,1,0.649,,,,,,,,0,28,28,26,1,
,,,,,,,,,,,,,,,,,6101dba30506a0ab5e18c194,20,2022-02-12_17h41.35.234,lexical_decision_task_DD_L6,2021.2.3,MacIntel,58.82352941,,,,,,,,,,,0.531,1,,,,,,,,,,,,,,,,,,,,,,,,,-0.276829268,-0.254878049,0,0,0,,,,,,,FLASK,LB,m,y,./images/FLASKLB.png,,,,,,,,,,,,,,,,,,,,m,1,0.531,,,,,,,,0,29,29,72,1,
,,,,,,,,,,,,,,,,,6101dba30506a0ab5e18c194,20,2022-02-12_17h41.35.234,lexical_decision_task_DD_L6,2021.2.3,MacIntel,58.82352941,,,,,,,,,,,0.731,1,,,,,,,,,,,,,,,,,,,,,,,,,-0.276829268,-0.254878049,0,0,0,,,,,,,MAGGOT,LB,z,y,./images/MAGGOTLB.png,,,,,,,,,,,,,,,,,,,,z,1,0.731,,,,,,,,0,30,30,117,1,
,,,,,,,,,,,,,,,,,6101dba30506a0ab5e18c194,20,2022-02-12_17h41.35.234,lexical_decision_task_DD_L6,2021.2.3,MacIntel,58.82352941,,,,,,,,,,,0.682,1,,,,,,,,,,,,,,,,,,,,,,,,,-0.276829268,-0.254878049,0,0,0,,,,,,,PICKLE,HB,z,y,./images/PICKLEHB.png,,,,,,,,,,,,,,,,,,,,z,1,0.682,,,,,,,,0,31,31,98,1,
,,,,,,,,,,,,,,,,,6101dba30506a0ab5e18c194,20,2022-02-12_17h41.35.234,lexical_decision_task_DD_L6,2021.2.3,MacIntel,58.82352941,,,,,,,,,,,0.797,0,,,,,,,,,,,,,,,,,,,,,,,,,-0.276829268,-0.254878049,0,0,0,,,,,,,TORCH,HB,z,y,./images/TORCHHB.png,,,,,,,,,,,,,,,,,,,,m,0,0.797,,,,,,,,0,32,32,152,1,
,,,,,,,,,,,,,,,,,6101dba30506a0ab5e18c194,20,2022-02-12_17h41.35.234,lexical_decision_task_DD_L6,2021.2.3,MacIntel,58.82352941,,,,,,,,,,,0.661,1,,,,,,,,,,,,,,,,,,,,,,,,,-0.276829268,-0.254878049,0,0,0,,,,,,,SWEAT,LB,z,y,./images/SWEATLB.png,,,,,,,,,,,,,,,,,,,,z,1,0.661,,,,,,,,0,33,33,150,1,
,,,,,,,,,,,,,,,,,6101dba30506a0ab5e18c194,20,2022-02-12_17h41.35.234,lexical_decision_task_DD_L6,2021.2.3,MacIntel,58.82352941,,,,,,,,,,,0.844,1,,,,,,,,,,,,,,,,,,,,,,,,,-0.276829268,-0.254878049,0,0,0,,,,,,,MOTOR,C,z,y,./images/MOTOR.png,,,,,,,,,,,,,,,,,,,,z,1,0.844,,,,,,,,0,34,34,97,1,
,,,,,,,,,,,,,,,,,6101dba30506a0ab5e18c194,20,2022-02-12_17h41.35.234,lexical_decision_task_DD_L6,2021.2.3,MacIntel,58.82352941,,,,,,,,,,,0.603,1,,,,,,,,,,,,,,,,,,,,,,,,,-0.276829268,-0.254878049,0,0,0,,,,,,,STOOL,C,m,y,./images/STOOL.png,,,,,,,,,,,,,,,,,,,,m,1,0.603,,,,,,,,0,35,35,43,1,
,,,,,,,,,,,,,,,,,6101dba30506a0ab5e18c194,20,2022-02-12_17h41.35.234,lexical_decision_task_DD_L6,2021.2.3,MacIntel,58.82352941,,,,,,,,,,,0.581,0,,,,,,,,,,,,,,,,,,,,,,,,,-0.276829268,-0.254878049,0,0,0,,,,,,,CARPET,HB,z,y,./images/CARPETHB.png,,,,,,,,,,,,,,,,,,,,m,0,0.581,,,,,,,,0,36,36,137,1,
,,,,,,,,,,,,,,,,,6101dba30506a0ab5e18c194,20,2022-02-12_17h41.35.234,lexical_decision_task_DD_L6,2021.2.3,MacIntel,58.82352941,,,,,,,,,,,3.435,1,,,,,,,,,,,,,,,,,,,,,,,,,-0.109756098,0.124390244,0,0,0,,,,,,,VALLEY,HB,m,y,./images/VALLEYHB.png,,,,,,,,,,,,,,,,,,,,m,1,3.435,,,,,,,,0,37,37,68,1,
,,,,,,,,,,,,,,,,,6101dba30506a0ab5e18c194,20,2022-02-12_17h41.35.234,lexical_decision_task_DD_L6,2021.2.3,MacIntel,58.82352941,,,,,,,,,,,0.634,1,,,,,,,,,,,,,,,,,,,,,,,,,-0.109756098,0.124390244,0,0,0,,,,,,,BRUSH,HB,m,y,./images/BRUSHHB.png,,,,,,,,,,,,,,,,,,,,m,1,0.634,,,,,,,,0,38,38,59,1,
,,,,,,,,,,,,,,,,,6101dba30506a0ab5e18c194,20,2022-02-12_17h41.35.234,lexical_decision_task_DD_L6,2021.2.3,MacIntel,58.82352941,,,,,,,,,,,0.632,0,,,,,,,,,,,,,,,,,,,,,,,,,-0.109756098,0.124390244,0,0,0,,,,,,,MEDAL,HB,m,y,./images/MEDALHB.png,,,,,,,,,,,,,,,,,,,,z,0,0.632,,,,,,,,0,39,39,11,1,
,,,,,,,,,,,,,,,,,6101dba30506a0ab5e18c194,20,2022-02-12_17h41.35.234,lexical_decision_task_DD_L6,2021.2.3,MacIntel,58.82352941,,,,,,,,,,,0.611,1,,,,,,,,,,,,,,,,,,,,,,,,,-0.109756098,0.124390244,0,0,0,,,,,,,LIZARD,HB,z,y,./images/LIZARDHB.png,,,,,,,,,,,,,,,,,,,,z,1,0.611,,,,,,,,0,40,40,128,1,
,,,,,,,,,,,,,,,,,6101dba30506a0ab5e18c194,20,2022-02-12_17h41.35.234,lexical_decision_task_DD_L6,2021.2.3,MacIntel,58.82352941,,,,,,,,,,,0.934,0,,,,,,,,,,,,,,,,,,,,,,,,,0.074390244,-0.415853659,1,0,0,,,,,,,BANNER,C,z,y,./images/BANNER.png,break_done_button,,,,,,,,,,,,,,,,,,,m,0,0.934,,,,,,,,0,41,41,136,1,
,,,,,,,,,,,,,,,,,6101dba30506a0ab5e18c194,20,2022-02-12_17h41.35.234,lexical_decision_task_DD_L6,2021.2.3,MacIntel,58.82352941,,,,,,,,,,,0.586,1,,,,,,,,,,,,,,,,,,,,,,,,,0.353658537,0.476829268,0,0,0,,,,,,,INFANT,C,z,y,./images/INFANT.png,,,,,,,,,,,,,,,,,,,,z,1,0.586,,,,,,,,0,42,42,160,1,
,,,,,,,,,,,,,,,,,6101dba30506a0ab5e18c194,20,2022-02-12_17h41.35.234,lexical_decision_task_DD_L6,2021.2.3,MacIntel,58.82352941,,,,,,,,,,,0.595,1,,,,,,,,,,,,,,,,,,,,,,,,,0.353658537,0.476829268,0,0,0,,,,,,,SWING,C,z,y,./images/SWING.png,,,,,,,,,,,,,,,,,,,,z,1,0.595,,,,,,,,0,43,43,124,1,
,,,,,,,,,,,,,,,,,6101dba30506a0ab5e18c194,20,2022-02-12_17h41.35.234,lexical_decision_task_DD_L6,2021.2.3,MacIntel,58.82352941,,,,,,,,,,,0.783,1,,,,,,,,,,,,,,,,,,,,,,,,,0.353658537,0.476829268,0,0,0,,,,,,,SHORE,LB,z,y,./images/SHORELB.png,,,,,,,,,,,,,,,,,,,,z,1,0.783,,,,,,,,0,44,44,96,1,
,,,,,,,,,,,,,,,,,6101dba30506a0ab5e18c194,20,2022-02-12_17h41.35.234,lexical_decision_task_DD_L6,2021.2.3,MacIntel,58.82352941,,,,,,,,,,,0.72,1,,,,,,,,,,,,,,,,,,,,,,,,,0.353658537,0.476829268,0,0,0,,,,,,,GARDEN,C,m,y,./images/GARDEN.png,,,,,,,,,,,,,,,,,,,,m,1,0.72,,,,,,,,0,45,45,10,1,
,,,,,,,,,,,,,,,,,6101dba30506a0ab5e18c194,20,2022-02-12_17h41.35.234,lexical_decision_task_DD_L6,2021.2.3,MacIntel,58.82352941,,,,,,,,,,,0.602,1,,,,,,,,,,,,,,,,,,,,,,,,,0.353658537,0.476829268,0,0,0,,,,,,,PEARL,C,z,y,./images/PEARL.png,,,,,,,,,,,,,,,,,,,,z,1,0.602,,,,,,,,0,46,46,130,1,
,,,,,,,,,,,,,,,,,6101dba30506a0ab5e18c194,20,2022-02-12_17h41.35.234,lexical_decision_task_DD_L6,2021.2.3,MacIntel,58.82352941,,,,,,,,,,,0.662,0,,,,,,,,,,,,,,,,,,,,,,,,,0.353658537,0.476829268,0,0,0,,,,,,,LADDER,HB,z,y,./images/LADDERHB.png,,,,,,,,,,,,,,,,,,,,m,0,0.662,,,,,,,,0,47,47,122,1,
,,,,,,,,,,,,,,,,,6101dba30506a0ab5e18c194,20,2022-02-12_17h41.35.234,lexical_decision_task_DD_L6,2021.2.3,MacIntel,58.82352941,,,,,,,,,,,0.547,1,,,,,,,,,,,,,,,,,,,,,,,,,0.353658537,0.476829268,0,0,0,,,,,,,RHINO,LB,z,y,./images/RHINOLB.png,,,,,,,,,,,,,,,,,,,,z,1,0.547,,,,,,,,0,48,48,93,1,
,,,,,,,,,,,,,,,,,6101dba30506a0ab5e18c194,20,2022-02-12_17h41.35.234,lexical_decision_task_DD_L6,2021.2.3,MacIntel,58.82352941,,,,,,,,,,,0.499,1,,,,,,,,,,,,,,,,,,,,,,,,,0.353658537,0.476829268,0,0,0,,,,,,,CRUST,C,z,y,./images/CRUST.png,,,,,,,,,,,,,,,,,,,,z,1,0.499,,,,,,,,0,49,49,163,1,
,,,,,,,,,,,,,,,,,6101dba30506a0ab5e18c194,20,2022-02-12_17h41.35.234,lexical_decision_task_DD_L6,2021.2.3,MacIntel,58.82352941,,,,,,,,,,,0.805,1,,,,,,,,,,,,,,,,,,,,,,,,,0.353658537,0.476829268,0,0,0,,,,,,,CASINO,C,m,y,./images/CASINO.png,,,,,,,,,,,,,,,,,,,,m,1,0.805,,,,,,,,0,50,50,28,1,
,,,,,,,,,,,,,,,,,6101dba30506a0ab5e18c194,20,2022-02-12_17h41.35.234,lexical_decision_task_DD_L6,2021.2.3,MacIntel,58.82352941,,,,,,,,,,,0.779,1,,,,,,,,,,,,,,,,,,,,,,,,,0.353658537,0.476829268,0,0,0,,,,,,,CHALK,C,m,y,./images/CHALK.png,,,,,,,,,,,,,,,,,,,,m,1,0.779,,,,,,,,0,51,51,25,1,
,,,,,,,,,,,,,,,,,6101dba30506a0ab5e18c194,20,2022-02-12_17h41.35.234,lexical_decision_task_DD_L6,2021.2.3,MacIntel,58.82352941,,,,,,,,,,,0.529,1,,,,,,,,,,,,,,,,,,,,,,,,,0.353658537,0.476829268,0,0,0,,,,,,,FINGER,LB,z,y,./images/FINGERLB.png,,,,,,,,,,,,,,,,,,,,z,1,0.529,,,,,,,,0,52,52,87,1,
,,,,,,,,,,,,,,,,,6101dba30506a0ab5e18c194,20,2022-02-12_17h41.35.234,lexical_decision_task_DD_L6,2021.2.3,MacIntel,58.82352941,,,,,,,,,,,0.597,1,,,,,,,,,,,,,,,,,,,,,,,,,0.353658537,0.476829268,0,0,0,,,,,,,CHAIN,LB,m,y,./images/CHAINLB.png,,,,,,,,,,,,,,,,,,,,m,1,0.597,,,,,,,,0,53,53,42,1,
,,,,,,,,,,,,,,,,,6101dba30506a0ab5e18c194,20,2022-02-12_17h41.35.234,lexical_decision_task_DD_L6,2021.2.3,MacIntel,58.82352941,,,,,,,,,,,0.762,1,,,,,,,,,,,,,,,,,,,,,,,,,0.353658537,0.476829268,0,0,0,,,,,,,KIDNEY,LB,z,y,./images/KIDNEYLB.png,,,,,,,,,,,,,,,,,,,,z,1,0.762,,,,,,,,0,54,54,105,1,
,,,,,,,,,,,,,,,,,6101dba30506a0ab5e18c194,20,2022-02-12_17h41.35.234,lexical_decision_task_DD_L6,2021.2.3,MacIntel,58.82352941,,,,,,,,,,,1.354,1,,,,,,,,,,,,,,,,,,,,,,,,,0.353658537,0.476829268,0,0,0,,,,,,,MUMMY,C,m,y,./images/MUMMY.png,,,,,,,,,,,,,,,,,,,,m,1,1.354,,,,,,,,0,55,55,46,1,
,,,,,,,,,,,,,,,,,6101dba30506a0ab5e18c194,20,2022-02-12_17h41.35.234,lexical_decision_task_DD_L6,2021.2.3,MacIntel,58.82352941,,,,,,,,,,,38.016,1,,,,,,,,,,,,,,,,,,,,,,,,,0.353658537,0.476829268,0,0,0,,,,,,,FENCE,HB,m,y,./images/FENCEHB.png,,,,,,,,,,,,,,,,,,,,m,1,38.016,,,,,,,,0,56,56,14,1,
,,,,,,,,,,,,,,,,,6101dba30506a0ab5e18c194,20,2022-02-12_17h41.35.234,lexical_decision_task_DD_L6,2021.2.3,MacIntel,58.82352941,,,,,,,,,,,0.953,1,,,,,,,,,,,,,,,,,,,,,,,,,0.353658537,0.476829268,0,0,0,,,,,,,ARTIST,C,m,y,./images/ARTIST.png,,,,,,,,,,,,,,,,,,,,m,1,0.953,,,,,,,,0,57,57,61,1,
,,,,,,,,,,,,,,,,,6101dba30506a0ab5e18c194,20,2022-02-12_17h41.35.234,lexical_decision_task_DD_L6,2021.2.3,MacIntel,58.82352941,,,,,,,,,,,0.631,1,,,,,,,,,,,,,,,,,,,,,,,,,0.353658537,0.476829268,0,0,0,,,,,,,BURIAL,HB,z,y,./images/BURIALHB.png,,,,,,,,,,,,,,,,,,,,z,1,0.631,,,,,,,,0,58,58,143,1,
,,,,,,,,,,,,,,,,,6101dba30506a0ab5e18c194,20,2022-02-12_17h41.35.234,lexical_decision_task_DD_L6,2021.2.3,MacIntel,58.82352941,,,,,,,,,,,1.185,1,,,,,,,,,,,,,,,,,,,,,,,,,0.353658537,0.476829268,0,0,0,,,,,,,STORM,LB,z,y,./images/STORMLB.png,,,,,,,,,,,,,,,,,,,,z,1,1.185,,,,,,,,0,59,59,114,1,
,,,,,,,,,,,,,,,,,6101dba30506a0ab5e18c194,20,2022-02-12_17h41.35.234,lexical_decision_task_DD_L6,2021.2.3,MacIntel,58.82352941,,,,,,,,,,,0.662,1,,,,,,,,,,,,,,,,,,,,,,,,,0.353658537,0.476829268,0,0,0,,,,,,,PEBBLE,C,m,y,./images/PEBBLE.png,,,,,,,,,,,,,,,,,,,,m,1,0.662,,,,,,,,0,60,60,82,1,
,,,,,,,,,,,,,,,,,6101dba30506a0ab5e18c194,20,2022-02-12_17h41.35.234,lexical_decision_task_DD_L6,2021.2.3,MacIntel,58.82352941,,,,,,,,,,,1.015,1,,,,,,,,,,,,,,,,,,,,,,,,,0.353658537,0.476829268,0,0,0,,,,,,,HOCKEY,HB,m,y,./images/HOCKEYHB.png,,,,,,,,,,,,,,,,,,,,m,1,1.015,,,,,,,,0,61,61,32,1,
,,,,,,,,,,,,,,,,,6101dba30506a0ab5e18c194,20,2022-02-12_17h41.35.234,lexical_decision_task_DD_L6,2021.2.3,MacIntel,58.82352941,,,,,,,,,,,2.298,0,,,,,,,,,,,,,,,,,,,,,,,,,0.353658537,0.476829268,0,0,0,,,,,,,RULER,C,m,y,./images/RULER.png,,,,,,,,,,,,,,,,,,,,z,0,2.298,,,,,,,,0,62,62,79,1,
,,,,,,,,,,,,,,,,,6101dba30506a0ab5e18c194,20,2022-02-12_17h41.35.234,lexical_decision_task_DD_L6,2021.2.3,MacIntel,58.82352941,,,,,,,,,,,0.631,0,,,,,,,,,,,,,,,,,,,,,,,,,0.353658537,0.476829268,0,0,0,,,,,,,CLOTH,HB,m,y,./images/CLOTHHB.png,,,,,,,,,,,,,,,,,,,,z,0,0.631,,,,,,,,0,63,63,23,1,
,,,,,,,,,,,,,,,,,6101dba30506a0ab5e18c194,20,2022-02-12_17h41.35.234,lexical_decision_task_DD_L6,2021.2.3,MacIntel,58.82352941,,,,,,,,,,,1.579,1,,,,,,,,,,,,,,,,,,,,,,,,,0.353658537,0.476829268,0,0,0,,,,,,,PAINT,C,z,y,./images/PAINT.png,,,,,,,,,,,,,,,,,,,,z,1,1.579,,,,,,,,0,64,64,91,1,
,,,,,,,,,,,,,,,,,6101dba30506a0ab5e18c194,20,2022-02-12_17h41.35.234,lexical_decision_task_DD_L6,2021.2.3,MacIntel,58.82352941,,,,,,,,,,,1.393,0,,,,,,,,,,,,,,,,,,,,,,,,,0.353658537,0.476829268,0,0,0,,,,,,,PLANET,HB,m,y,./images/PLANETHB.png,,,,,,,,,,,,,,,,,,,,z,0,1.393,,,,,,,,0,65,65,80,1,
,,,,,,,,,,,,,,,,,6101dba30506a0ab5e18c194,20,2022-02-12_17h41.35.234,lexical_decision_task_DD_L6,2021.2.3,MacIntel,58.82352941,,,,,,,,,,,0.545,0,,,,,,,,,,,,,,,,,,,,,,,,,0.353658537,0.476829268,0,0,0,,,,,,,DRILL,LB,m,y,./images/DRILLLB.png,,,,,,,,,,,,,,,,,,,,z,0,0.545,,,,,,,,0,66,66,81,1,
,,,,,,,,,,,,,,,,,6101dba30506a0ab5e18c194,20,2022-02-12_17h41.35.234,lexical_decision_task_DD_L6,2021.2.3,MacIntel,58.82352941,,,,,,,,,,,0.593,1,,,,,,,,,,,,,,,,,,,,,,,,,0.353658537,0.476829268,0,0,0,,,,,,,PIMPLE,HB,z,y,./images/PIMPLEHB.png,,,,,,,,,,,,,,,,,,,,z,1,0.593,,,,,,,,0,67,67,155,1,
,,,,,,,,,,,,,,,,,6101dba30506a0ab5e18c194,20,2022-02-12_17h41.35.234,lexical_decision_task_DD_L6,2021.2.3,MacIntel,58.82352941,,,,,,,,,,,0.595,1,,,,,,,,,,,,,,,,,,,,,,,,,0.353658537,0.476829268,0,0,0,,,,,,,GRAIN,LB,z,y,./images/GRAINLB.png,,,,,,,,,,,,,,,,,,,,z,1,0.595,,,,,,,,0,68,68,159,1,
,,,,,,,,,,,,,,,,,6101dba30506a0ab5e18c194,20,2022-02-12_17h41.35.234,lexical_decision_task_DD_L6,2021.2.3,MacIntel,58.82352941,,,,,,,,,,,0.567,1,,,,,,,,,,,,,,,,,,,,,,,,,0.353658537,0.476829268,0,0,0,,,,,,,PISTOL,HB,m,y,./images/PISTOLHB.png,,,,,,,,,,,,,,,,,,,,m,1,0.567,,,,,,,,0,69,69,29,1,
,,,,,,,,,,,,,,,,,6101dba30506a0ab5e18c194,20,2022-02-12_17h41.35.234,lexical_decision_task_DD_L6,2021.2.3,MacIntel,58.82352941,,,,,,,,,,,0.582,0,,,,,,,,,,,,,,,,,,,,,,,,,0.353658537,0.476829268,0,0,0,,,,,,,JUMPER,HB,m,y,./images/JUMPERHB.png,,,,,,,,,,,,,,,,,,,,z,0,0.582,,,,,,,,0,70,70,74,1,
,,,,,,,,,,,,,,,,,6101dba30506a0ab5e18c194,20,2022-02-12_17h41.35.234,lexical_decision_task_DD_L6,2021.2.3,MacIntel,58.82352941,,,,,,,,,,,0.599,1,,,,,,,,,,,,,,,,,,,,,,,,,0.353658537,0.476829268,0,0,0,,,,,,,HAMMER,LB,m,y,./images/HAMMERLB.png,,,,,,,,,,,,,,,,,,,,m,1,0.599,,,,,,,,0,71,71,75,1,
,,,,,,,,,,,,,,,,,6101dba30506a0ab5e18c194,20,2022-02-12_17h41.35.234,lexical_decision_task_DD_L6,2021.2.3,MacIntel,58.82352941,,,,,,,,,,,0.529,1,,,,,,,,,,,,,,,,,,,,,,,,,0.353658537,0.476829268,0,0,0,,,,,,,SKIING,HB,z,y,./images/SKIINGHB.png,,,,,,,,,,,,,,,,,,,,z,1,0.529,,,,,,,,0,72,72,101,1,
,,,,,,,,,,,,,,,,,6101dba30506a0ab5e18c194,20,2022-02-12_17h41.35.234,lexical_decision_task_DD_L6,2021.2.3,MacIntel,58.82352941,,,,,,,,,,,0.68,1,,,,,,,,,,,,,,,,,,,,,,,,,0.353658537,0.476829268,0,0,0,,,,,,,BROOM,LB,m,y,./images/BROOMLB.png,,,,,,,,,,,,,,,,,,,,m,1,0.68,,,,,,,,0,73,73,78,1,
,,,,,,,,,,,,,,,,,6101dba30506a0ab5e18c194,20,2022-02-12_17h41.35.234,lexical_decision_task_DD_L6,2021.2.3,MacIntel,58.82352941,,,,,,,,,,,0.999,1,,,,,,,,,,,,,,,,,,,,,,,,,0.353658537,0.476829268,0,0,0,,,,,,,BANANA,C,m,y,./images/BANANA.png,,,,,,,,,,,,,,,,,,,,m,1,0.999,,,,,,,,0,74,74,70,1,
,,,,,,,,,,,,,,,,,6101dba30506a0ab5e18c194,20,2022-02-12_17h41.35.234,lexical_decision_task_DD_L6,2021.2.3,MacIntel,58.82352941,,,,,,,,,,,0.733,1,,,,,,,,,,,,,,,,,,,,,,,,,0.353658537,0.476829268,0,0,0,,,,,,,BABOON,C,z,y,./images/BABOON.png,,,,,,,,,,,,,,,,,,,,z,1,0.733,,,,,,,,0,75,75,142,1,
,,,,,,,,,,,,,,,,,6101dba30506a0ab5e18c194,20,2022-02-12_17h41.35.234,lexical_decision_task_DD_L6,2021.2.3,MacIntel,58.82352941,,,,,,,,,,,0.578,1,,,,,,,,,,,,,,,,,,,,,,,,,0.353658537,0.476829268,0,0,0,,,,,,,THROAT,LB,z,y,./images/THROATLB.png,,,,,,,,,,,,,,,,,,,,z,1,0.578,,,,,,,,0,76,76,120,1,
,,,,,,,,,,,,,,,,,6101dba30506a0ab5e18c194,20,2022-02-12_17h41.35.234,lexical_decision_task_DD_L6,2021.2.3,MacIntel,58.82352941,,,,,,,,,,,1.232,1,,,,,,,,,,,,,,,,,,,,,,,,,0.353658537,0.476829268,0,0,0,,,,,,,TULIP,HB,z,y,./images/TULIPHB.png,,,,,,,,,,,,,,,,,,,,z,1,1.232,,,,,,,,0,77,77,92,1,
,,,,,,,,,,,,,,,,,6101dba30506a0ab5e18c194,20,2022-02-12_17h41.35.234,lexical_decision_task_DD_L6,2021.2.3,MacIntel,58.82352941,,,,,,,,,,,1.161,1,,,,,,,,,,,,,,,,,,,,,,,,,0.353658537,0.476829268,0,0,0,,,,,,,GREASE,LB,z,y,./images/GREASELB.png,,,,,,,,,,,,,,,,,,,,z,1,1.161,,,,,,,,0,78,78,99,1,
,,,,,,,,,,,,,,,,,6101dba30506a0ab5e18c194,20,2022-02-12_17h41.35.234,lexical_decision_task_DD_L6,2021.2.3,MacIntel,58.82352941,,,,,,,,,,,2.37,1,,,,,,,,,,,,,,,,,,,,,,,,,0.353658537,0.476829268,0,0,0,,,,,,,MOOSE,LB,z,y,./images/MOOSELB.png,,,,,,,,,,,,,,,,,,,,z,1,2.37,,,,,,,,0,79,79,141,1,
,,,,,,,,,,,,,,,,,6101dba30506a0ab5e18c194,20,2022-02-12_17h41.35.234,lexical_decision_task_DD_L6,2021.2.3,MacIntel,58.82352941,,,,,,,,,,,0.578,1,,,,,,,,,,,,,,,,,,,,,,,,,0.353658537,0.476829268,0,0,0,,,,,,,SNACK,C,z,y,./images/SNACK.png,,,,,,,,,,,,,,,,,,,,z,1,0.578,,,,,,,,0,80,80,157,1,
,,,,,,,,,,,,,,,,,6101dba30506a0ab5e18c194,20,2022-02-12_17h41.35.234,lexical_decision_task_DD_L6,2021.2.3,MacIntel,58.82352941,,,,,,,,,,,0.833,0,,,,,,,,,,,,,,,,,,,,,,,,,0.353658537,0.476829268,0,0,0,,,,,,,SAUNA,LB,m,y,./images/SAUNALB.png,,,,,,,,,,,,,,,,,,,,z,0,0.833,,,,,,,,0,81,81,33,1,
,,,,,,,,,,,,,,,,,6101dba30506a0ab5e18c194,20,2022-02-12_17h41.35.234,lexical_decision_task_DD_L6,2021.2.3,MacIntel,58.82352941,,,,,,,,,,,2.248,0,,,,,,,,,,,,,,,,,,,,,,,,,0.353658537,0.476829268,0,0,0,,,,,,,SHIELD,LB,m,y,./images/SHIELDLB.png,,,,,,,,,,,,,,,,,,,,z,0,2.248,,,,,,,,0,82,82,48,1,
,,,,,,,,,,,,,,,,,6101dba30506a0ab5e18c194,20,2022-02-12_17h41.35.234,lexical_decision_task_DD_L6,2021.2.3,MacIntel,58.82352941,,,,,,,,,,,0.527,0,,,,,,,,,,,,,,,,,,,,,,,,,0.174390244,-0.407317073,1,0,0,,,,,,,ENGINE,HB,m,y,./images/ENGINEHB.png,break_done_button,,,,,,,,,,,,,,,,,,,z,0,0.527,,,,,,,,0,83,83,38,1,
,,,,,,,,,,,,,,,,,6101dba30506a0ab5e18c194,20,2022-02-12_17h41.35.234,lexical_decision_task_DD_L6,2021.2.3,MacIntel,58.82352941,,,,,,,,,,,4.398,0,,,,,,,,,,,,,,,,,,,,,,,,,0.876829268,-0.042682927,0,0,0,,,,,,,BIRTH,C,z,y,./images/BIRTH.png,,,,,,,,,,,,,,,,,,,,m,0,4.398,,,,,,,,0,84,84,121,1,
,,,,,,,,,,,,,,,,,6101dba30506a0ab5e18c194,20,2022-02-12_17h41.35.234,lexical_decision_task_DD_L6,2021.2.3,MacIntel,58.82352941,,,,,,,,,,,0.748,1,,,,,,,,,,,,,,,,,,,,,,,,,0.876829268,-0.042682927,0,0,0,,,,,,,SAILOR,C,z,y,./images/SAILOR.png,,,,,,,,,,,,,,,,,,,,z,1,0.748,,,,,,,,0,85,85,151,1,
,,,,,,,,,,,,,,,,,6101dba30506a0ab5e18c194,20,2022-02-12_17h41.35.234,lexical_decision_task_DD_L6,2021.2.3,MacIntel,58.82352941,,,,,,,,,,,11.063,0,,,,,,,,,,,,,,,,,,,,,,,,,0.876829268,-0.02804878,0,0,0,,,,,,,BERRY,HB,z,y,./images/BERRYHB.png,,,,,,,,,,,,,,,,,,,,m,0,11.063,,,,,,,,0,86,86,131,1,
,,,,,,,,,,,,,,,,,6101dba30506a0ab5e18c194,20,2022-02-12_17h41.35.234,lexical_decision_task_DD_L6,2021.2.3,MacIntel,58.82352941,,,,,,,,,,,0.618,1,,,,,,,,,,,,,,,,,,,,,,,,,0.876829268,-0.02804878,0,0,0,,,,,,,CANDLE,C,z,y,./images/CANDLE.png,,,,,,,,,,,,,,,,,,,,z,1,0.618,,,,,,,,0,87,87,145,1,
,,,,,,,,,,,,,,,,,6101dba30506a0ab5e18c194,20,2022-02-12_17h41.35.234,lexical_decision_task_DD_L6,2021.2.3,MacIntel,58.82352941,,,,,,,,,,,0.801,1,,,,,,,,,,,,,,,,,,,,,,,,,0.876829268,-0.02804878,0,0,0,,,,,,,FOLDER,LB,z,y,./images/FOLDERLB.png,,,,,,,,,,,,,,,,,,,,z,1,0.801,,,,,,,,0,88,88,126,1,
,,,,,,,,,,,,,,,,,6101dba30506a0ab5e18c194,20,2022-02-12_17h41.35.234,lexical_decision_task_DD_L6,2021.2.3,MacIntel,58.82352941,,,,,,,,,,,0.612,1,,,,,,,,,,,,,,,,,,,,,,,,,0.876829268,-0.02804878,0,0,0,,,,,,,MALLET,HB,z,y,./images/MALLETHB.png,,,,,,,,,,,,,,,,,,,,z,1,0.612,,,,,,,,0,89,89,134,1,
,,,,,,,,,,,,,,,,,6101dba30506a0ab5e18c194,20,2022-02-12_17h41.35.234,lexical_decision_task_DD_L6,2021.2.3,MacIntel,58.82352941,,,,,,,,,,,2.887,1,,,,,,,,,,,,,,,,,,,,,,,,,0.876829268,-0.026829268,0,0,0,,,,,,,KITTEN,LB,z,y,./images/KITTENLB.png,,,,,,,,,,,,,,,,,,,,z,1,2.887,,,,,,,,0,90,90,129,1,
,,,,,,,,,,,,,,,,,6101dba30506a0ab5e18c194,20,2022-02-12_17h41.35.234,lexical_decision_task_DD_L6,2021.2.3,MacIntel,58.82352941,,,,,,,,,,,0.893,0,,,,,,,,,,,,,,,,,,,,,,,,,0.876829268,-0.018292683,0,0,0,,,,,,,FLESH,LB,m,y,./images/FLESHLB.png,,,,,,,,,,,,,,,,,,,,z,0,0.893,,,,,,,,0,91,91,24,1,
,,,,,,,,,,,,,,,,,6101dba30506a0ab5e18c194,20,2022-02-12_17h41.35.234,lexical_decision_task_DD_L6,2021.2.3,MacIntel,58.82352941,,,,,,,,,,,1.715,0,,,,,,,,,,,,,,,,,,,,,,,,,0.847560976,-0.03902439,0,0,0,,,,,,,BELLY,C,z,y,./images/BELLY.png,,,,,,,,,,,,,,,,,,,,m,0,1.715,,,,,,,,0,92,92,94,1,
,,,,,,,,,,,,,,,,,6101dba30506a0ab5e18c194,20,2022-02-12_17h41.35.234,lexical_decision_task_DD_L6,2021.2.3,MacIntel,58.82352941,,,,,,,,,,,1.58,1,,,,,,,,,,,,,,,,,,,,,,,,,0.842682927,-0.046341463,0,0,0,,,,,,,POSTER,HB,m,y,./images/POSTERHB.png,,,,,,,,,,,,,,,,,,,,m,1,1.58,,,,,,,,0,93,93,53,1,
,,,,,,,,,,,,,,,,,6101dba30506a0ab5e18c194,20,2022-02-12_17h41.35.234,lexical_decision_task_DD_L6,2021.2.3,MacIntel,58.82352941,,,,,,,,,,,0.559,0,,,,,,,,,,,,,,,,,,,,,,,,,0.843902439,-0.068292683,0,0,0,,,,,,,MIRROR,LB,z,y,./images/MIRRORLB.png,,,,,,,,,,,,,,,,,,,,m,0,0.559,,,,,,,,0,94,94,147,1,
,,,,,,,,,,,,,,,,,6101dba30506a0ab5e18c194,20,2022-02-12_17h41.35.234,lexical_decision_task_DD_L6,2021.2.3,MacIntel,58.82352941,,,,,,,,,,,1.363,0,,,,,,,,,,,,,,,,,,,,,,,,,0.837804878,-0.07195122,0,0,0,,,,,,,SUNSET,C,z,y,./images/SUNSET.png,,,,,,,,,,,,,,,,,,,,m,0,1.363,,,,,,,,0,95,95,166,1,
,,,,,,,,,,,,,,,,,6101dba30506a0ab5e18c194,20,2022-02-12_17h41.35.234,lexical_decision_task_DD_L6,2021.2.3,MacIntel,58.82352941,,,,,,,,,,,3.998,0,,,,,,,,,,,,,,,,,,,,,,,,,0.859756098,-0.06097561,0,0,0,,,,,,,BARREL,HB,z,y,./images/BARRELHB.png,,,,,,,,,,,,,,,,,,,,m,0,3.998,,,,,,,,0,96,96,116,1,
,,,,,,,,,,,,,,,,,6101dba30506a0ab5e18c194,20,2022-02-12_17h41.35.234,lexical_decision_task_DD_L6,2021.2.3,MacIntel,58.82352941,,,,,,,,,,,0.6,0,,,,,,,,,,,,,,,,,,,,,,,,,0.857317073,-0.06097561,0,0,0,,,,,,,SLOPE,LB,m,y,./images/SLOPELB.png,,,,,,,,,,,,,,,,,,,,z,0,0.6,,,,,,,,0,97,97,30,1,
,,,,,,,,,,,,,,,,,6101dba30506a0ab5e18c194,20,2022-02-12_17h41.35.234,lexical_decision_task_DD_L6,2021.2.3,MacIntel,58.82352941,,,,,,,,,,,0.767,0,,,,,,,,,,,,,,,,,,,,,,,,,0.864634146,-0.058536585,0,0,0,,,,,,,COUCH,HB,z,y,./images/COUCHHB.png,,,,,,,,,,,,,,,,,,,,m,0,0.767,,,,,,,,0,98,98,161,1,
,,,,,,,,,,,,,,,,,6101dba30506a0ab5e18c194,20,2022-02-12_17h41.35.234,lexical_decision_task_DD_L6,2021.2.3,MacIntel,58.82352941,,,,,,,,,,,1.147,1,,,,,,,,,,,,,,,,,,,,,,,,,0.864634146,-0.058536585,0,0,0,,,,,,,SMOKER,HB,z,y,./images/SMOKERHB.png,,,,,,,,,,,,,,,,,,,,z,1,1.147,,,,,,,,0,99,99,110,1,
,,,,,,,,,,,,,,,,,6101dba30506a0ab5e18c194,20,2022-02-12_17h41.35.234,lexical_decision_task_DD_L6,2021.2.3,MacIntel,58.82352941,,,,,,,,,,,0.716,1,,,,,,,,,,,,,,,,,,,,,,,,,0.868292683,-0.045121951,0,0,0,,,,,,,PACKET,HB,z,y,./images/PACKETHB.png,,,,,,,,,,,,,,,,,,,,z,1,0.716,,,,,,,,0,100,100,140,1,
,,,,,,,,,,,,,,,,,6101dba30506a0ab5e18c194,20,2022-02-12_17h41.35.234,lexical_decision_task_DD_L6,2021.2.3,MacIntel,58.82352941,,,,,,,,,,,0.645,1,,,,,,,,,,,,,,,,,,,,,,,,,0.868292683,-0.045121951,0,0,0,,,,,,,COLLAR,LB,m,y,./images/COLLARLB.png,,,,,,,,,,,,,,,,,,,,m,1,0.645,,,,,,,,0,101,101,15,1,
,,,,,,,,,,,,,,,,,6101dba30506a0ab5e18c194,20,2022-02-12_17h41.35.234,lexical_decision_task_DD_L6,2021.2.3,MacIntel,58.82352941,,,,,,,,,,,0.828,0,,,,,,,,,,,,,,,,,,,,,,,,,0.868292683,-0.045121951,0,0,0,,,,,,,ARROW,LB,m,y,./images/ARROWLB.png,,,,,,,,,,,,,,,,,,,,z,0,0.828,,,,,,,,0,102,102,69,1,
,,,,,,,,,,,,,,,,,6101dba30506a0ab5e18c194,20,2022-02-12_17h41.35.234,lexical_decision_task_DD_L6,2021.2.3,MacIntel,58.82352941,,,,,,,,,,,0.581,1,,,,,,,,,,,,,,,,,,,,,,,,,0.868292683,-0.045121951,0,0,0,,,,,,,TWINS,LB,z,y,./images/TWINSLB.png,,,,,,,,,,,,,,,,,,,,z,1,0.581,,,,,,,,0,103,103,144,1,
,,,,,,,,,,,,,,,,,6101dba30506a0ab5e18c194,20,2022-02-12_17h41.35.234,lexical_decision_task_DD_L6,2021.2.3,MacIntel,58.82352941,,,,,,,,,,,0.583,0,,,,,,,,,,,,,,,,,,,,,,,,,0.868292683,-0.045121951,0,0,0,,,,,,,CLIFF,HB,m,y,./images/CLIFFHB.png,,,,,,,,,,,,,,,,,,,,z,0,0.583,,,,,,,,0,104,104,8,1,
,,,,,,,,,,,,,,,,,6101dba30506a0ab5e18c194,20,2022-02-12_17h41.35.234,lexical_decision_task_DD_L6,2021.2.3,MacIntel,58.82352941,,,,,,,,,,,0.7,1,,,,,,,,,,,,,,,,,,,,,,,,,0.868292683,-0.045121951,0,0,0,,,,,,,GRAPE,C,m,y,./images/GRAPE.png,,,,,,,,,,,,,,,,,,,,m,1,0.7,,,,,,,,0,105,105,16,1,
,,,,,,,,,,,,,,,,,6101dba30506a0ab5e18c194,20,2022-02-12_17h41.35.234,lexical_decision_task_DD_L6,2021.2.3,MacIntel,58.82352941,,,,,,,,,,,0.599,1,,,,,,,,,,,,,,,,,,,,,,,,,0.868292683,-0.045121951,0,0,0,,,,,,,STOVE,HB,m,y,./images/STOVEHB.png,,,,,,,,,,,,,,,,,,,,m,1,0.599,,,,,,,,0,106,106,2,1,
,,,,,,,,,,,,,,,,,6101dba30506a0ab5e18c194,20,2022-02-12_17h41.35.234,lexical_decision_task_DD_L6,2021.2.3,MacIntel,58.82352941,,,,,,,,,,,0.602,1,,,,,,,,,,,,,,,,,,,,,,,,,0.868292683,-0.045121951,0,0,0,,,,,,,PEACH,HB,z,y,./images/PEACHHB.png,,,,,,,,,,,,,,,,,,,,z,1,0.602,,,,,,,,0,107,107,119,1,
,,,,,,,,,,,,,,,,,6101dba30506a0ab5e18c194,20,2022-02-12_17h41.35.234,lexical_decision_task_DD_L6,2021.2.3,MacIntel,58.82352941,,,,,,,,,,,0.652,1,,,,,,,,,,,,,,,,,,,,,,,,,0.868292683,-0.045121951,0,0,0,,,,,,,SPORT,LB,z,y,./images/SPORTLB.png,,,,,,,,,,,,,,,,,,,,z,1,0.652,,,,,,,,0,108,108,132,1,
,,,,,,,,,,,,,,,,,6101dba30506a0ab5e18c194,20,2022-02-12_17h41.35.234,lexical_decision_task_DD_L6,2021.2.3,MacIntel,58.82352941,,,,,,,,,,,0.614,1,,,,,,,,,,,,,,,,,,,,,,,,,0.868292683,-0.045121951,0,0,0,,,,,,,PARADE,HB,m,y,./images/PARADEHB.png,,,,,,,,,,,,,,,,,,,,m,1,0.614,,,,,,,,0,109,109,17,1,
,,,,,,,,,,,,,,,,,6101dba30506a0ab5e18c194,20,2022-02-12_17h41.35.234,lexical_decision_task_DD_L6,2021.2.3,MacIntel,58.82352941,,,,,,,,,,,0.604,1,,,,,,,,,,,,,,,,,,,,,,,,,0.868292683,-0.045121951,0,0,0,,,,,,,BONNET,HB,z,y,./images/BONNETHB.png,,,,,,,,,,,,,,,,,,,,z,1,0.604,,,,,,,,0,110,110,95,1,
,,,,,,,,,,,,,,,,,6101dba30506a0ab5e18c194,20,2022-02-12_17h41.35.234,lexical_decision_task_DD_L6,2021.2.3,MacIntel,58.82352941,,,,,,,,,,,2.464,1,,,,,,,,,,,,,,,,,,,,,,,,,0.868292683,-0.045121951,0,0,0,,,,,,,FALCON,C,z,y,./images/FALCON.png,,,,,,,,,,,,,,,,,,,,z,1,2.464,,,,,,,,0,111,111,112,1,
,,,,,,,,,,,,,,,,,6101dba30506a0ab5e18c194,20,2022-02-12_17h41.35.234,lexical_decision_task_DD_L6,2021.2.3,MacIntel,58.82352941,,,,,,,,,,,1.006,1,,,,,,,,,,,,,,,,,,,,,,,,,0.868292683,-0.045121951,0,0,0,,,,,,,URINE,C,z,y,./images/URINE.png,,,,,,,,,,,,,,,,,,,,z,1,1.006,,,,,,,,0,112,112,154,1,
,,,,,,,,,,,,,,,,,6101dba30506a0ab5e18c194,20,2022-02-12_17h41.35.234,lexical_decision_task_DD_L6,2021.2.3,MacIntel,58.82352941,,,,,,,,,,,0.731,1,,,,,,,,,,,,,,,,,,,,,,,,,0.868292683,-0.045121951,0,0,0,,,,,,,NOOSE,LB,z,y,./images/NOOSELB.png,,,,,,,,,,,,,,,,,,,,z,1,0.731,,,,,,,,0,113,113,156,1,
,,,,,,,,,,,,,,,,,6101dba30506a0ab5e18c194,20,2022-02-12_17h41.35.234,lexical_decision_task_DD_L6,2021.2.3,MacIntel,58.82352941,,,,,,,,,,,1.171,0,,,,,,,,,,,,,,,,,,,,,,,,,0.863414634,-0.043902439,0,0,0,,,,,,,WRIST,C,z,y,./images/WRIST.png,,,,,,,,,,,,,,,,,,,,m,0,1.171,,,,,,,,0,114,114,109,1,
,,,,,,,,,,,,,,,,,6101dba30506a0ab5e18c194,20,2022-02-12_17h41.35.234,lexical_decision_task_DD_L6,2021.2.3,MacIntel,58.82352941,,,,,,,,,,,1.121,1,,,,,,,,,,,,,,,,,,,,,,,,,0.864634146,-0.040243902,0,0,0,,,,,,,WALNUT,LB,m,y,./images/WALNUTLB.png,,,,,,,,,,,,,,,,,,,,m,1,1.121,,,,,,,,0,115,115,0,1,
,,,,,,,,,,,,,,,,,6101dba30506a0ab5e18c194,20,2022-02-12_17h41.35.234,lexical_decision_task_DD_L6,2021.2.3,MacIntel,58.82352941,,,,,,,,,,,2.661,1,,,,,,,,,,,,,,,,,,,,,,,,,0.848780488,-0.048780488,0,0,0,,,,,,,POKER,C,m,y,./images/POKER.png,,,,,,,,,,,,,,,,,,,,m,1,2.661,,,,,,,,0,116,116,67,1,
,,,,,,,,,,,,,,,,,6101dba30506a0ab5e18c194,20,2022-02-12_17h41.35.234,lexical_decision_task_DD_L6,2021.2.3,MacIntel,58.82352941,,,,,,,,,,,0.785,1,,,,,,,,,,,,,,,,,,,,,,,,,0.851219512,-0.051219512,0,0,0,,,,,,,JELLY,C,z,y,./images/JELLY.png,,,,,,,,,,,,,,,,,,,,z,1,0.785,,,,,,,,0,117,117,148,1,
,,,,,,,,,,,,,,,,,6101dba30506a0ab5e18c194,20,2022-02-12_17h41.35.234,lexical_decision_task_DD_L6,2021.2.3,MacIntel,58.82352941,,,,,,,,,,,1.279,0,,,,,,,,,,,,,,,,,,,,,,,,,0.848780488,-0.054878049,0,0,0,,,,,,,FARMER,HB,z,y,./images/FARMERHB.png,,,,,,,,,,,,,,,,,,,,m,0,1.279,,,,,,,,0,118,118,149,1,
,,,,,,,,,,,,,,,,,6101dba30506a0ab5e18c194,20,2022-02-12_17h41.35.234,lexical_decision_task_DD_L6,2021.2.3,MacIntel,58.82352941,,,,,,,,,,,0.862,0,,,,,,,,,,,,,,,,,,,,,,,,,0.843902439,-0.007317073,0,0,0,,,,,,,CANYON,C,z,y,./images/CANYON.png,,,,,,,,,,,,,,,,,,,,m,0,0.862,,,,,,,,0,119,119,118,1,
,,,,,,,,,,,,,,,,,6101dba30506a0ab5e18c194,20,2022-02-12_17h41.35.234,lexical_decision_task_DD_L6,2021.2.3,MacIntel,58.82352941,,,,,,,,,,,2.033,0,,,,,,,,,,,,,,,,,,,,,,,,,0.843902439,-0.009756098,0,0,0,,,,,,,MELON,C,z,y,./images/MELON.png,,,,,,,,,,,,,,,,,,,,m,0,2.033,,,,,,,,0,120,120,106,1,
,,,,,,,,,,,,,,,,,6101dba30506a0ab5e18c194,20,2022-02-12_17h41.35.234,lexical_decision_task_DD_L6,2021.2.3,MacIntel,58.82352941,,,,,,,,,,,7.146,0,,,,,,,,,,,,,,,,,,,,,,,,,0.842682927,-0.004878049,0,0,0,,,,,,,DOUGH,C,z,y,./images/DOUGH.png,,,,,,,,,,,,,,,,,,,,m,0,7.146,,,,,,,,0,121,121,103,1,
,,,,,,,,,,,,,,,,,6101dba30506a0ab5e18c194,20,2022-02-12_17h41.35.234,lexical_decision_task_DD_L6,2021.2.3,MacIntel,58.82352941,,,,,,,,,,,0.734,0,,,,,,,,,,,,,,,,,,,,,,,,,0.842682927,-0.004878049,0,0,0,,,,,,,PURSE,HB,z,y,./images/PURSEHB.png,,,,,,,,,,,,,,,,,,,,m,0,0.734,,,,,,,,0,122,122,146,1,
,,,,,,,,,,,,,,,,,6101dba30506a0ab5e18c194,20,2022-02-12_17h41.35.234,lexical_decision_task_DD_L6,2021.2.3,MacIntel,58.82352941,,,,,,,,,,,0.952,1,,,,,,,,,,,,,,,,,,,,,,,,,0.842682927,-0.004878049,0,0,0,,,,,,,STATUE,LB,m,y,./images/STATUELB.png,,,,,,,,,,,,,,,,,,,,m,1,0.952,,,,,,,,0,123,123,66,1,
,,,,,,,,,,,,,,,,,6101dba30506a0ab5e18c194,20,2022-02-12_17h41.35.234,lexical_decision_task_DD_L6,2021.2.3,MacIntel,58.82352941,,,,,,,,,,,0.721,1,,,,,,,,,,,,,,,,,,,,,,,,,0.842682927,-0.004878049,0,0,0,,,,,,,BEARD,HB,z,y,./images/BEARDHB.png,,,,,,,,,,,,,,,,,,,,z,1,0.721,,,,,,,,0,124,124,86,1,
,,,,,,,,,,,,,,,,,6101dba30506a0ab5e18c194,20,2022-02-12_17h41.35.234,lexical_decision_task_DD_L6,2021.2.3,MacIntel,58.82352941,,,,,,,,,,,0.601,1,,,,,,,,,,,,,,,,,,,,,,,,,0.842682927,-0.004878049,0,0,0,space,,,,,,TIGER,C,m,y,./images/TIGER.png,,,,,,,,,,,,,,,,,,,,m,1,0.601,,,,,,,,0,125,125,37,1,1.071
,,,,,,,,,,,,,,,,,6101dba30506a0ab5e18c194,20,2022-02-12_17h41.35.234,lexical_decision_task_DD_L6,2021.2.3,MacIntel,58.82352941,,,,,,,,,,,0.631,1,,,,,,,,,,,,,,,,,,,,,,,,,0.842682927,-0.004878049,0,0,0,,,,,,,LLAMA,HB,m,y,./images/LLAMAHB.png,,,,,,,,,,,,,,,,,,,,m,1,0.631,,,,,,,,0,126,126,35,1,
,,,,,,,,,,,,,,,,,6101dba30506a0ab5e18c194,20,2022-02-12_17h41.35.234,lexical_decision_task_DD_L6,2021.2.3,MacIntel,58.82352941,,,,,,,,,,,0.65,1,,,,,,,,,,,,,,,,,,,,,,,,,0.842682927,-0.004878049,0,0,0,,,,,,,ONION,LB,z,y,./images/ONIONLB.png,,,,,,,,,,,,,,,,,,,,z,1,0.65,,,,,,,,0,127,127,135,1,
,,,,,,,,,,,,,,,,,6101dba30506a0ab5e18c194,20,2022-02-12_17h41.35.234,lexical_decision_task_DD_L6,2021.2.3,MacIntel,58.82352941,,,,,,,,,,,0.6,1,,,,,,,,,,,,,,,,,,,,,,,,,0.842682927,-0.004878049,0,0,0,,,,,,,LITTER,LB,z,y,./images/LITTERLB.png,,,,,,,,,,,,,,,,,,,,z,1,0.6,,,,,,,,0,128,128,162,1,
,,,,,,,,,,,,,,,,,6101dba30506a0ab5e18c194,20,2022-02-12_17h41.35.234,lexical_decision_task_DD_L6,2021.2.3,MacIntel,58.82352941,,,,,,,,,,,0.987,1,,,,,,,,,,,,,,,,,,,,,,,,,0.842682927,-0.004878049,0,0,0,,,,,,,PLANK,C,z,y,./images/PLANK.png,,,,,,,,,,,,,,,,,,,,z,1,0.987,,,,,,,,0,129,129,85,1,
,,,,,,,,,,,,,,,,,6101dba30506a0ab5e18c194,20,2022-02-12_17h41.35.234,lexical_decision_task_DD_L6,2021.2.3,MacIntel,58.82352941,,,,,,,,,,,0.63,1,,,,,,,,,,,,,,,,,,,,,,,,,0.842682927,-0.004878049,0,0,0,,,,,,,FERRY,LB,m,y,./images/FERRYLB.png,,,,,,,,,,,,,,,,,,,,m,1,0.63,,,,,,,,0,130,130,57,1,
,,,,,,,,,,,,,,,,,6101dba30506a0ab5e18c194,20,2022-02-12_17h41.35.234,lexical_decision_task_DD_L6,2021.2.3,MacIntel,58.82352941,,,,,,,,,,,0.685,1,,,,,,,,,,,,,,,,,,,,,,,,,0.842682927,-0.004878049,0,0,0,,,,,,,CANDY,LB,m,y,./images/CANDYLB.png,,,,,,,,,,,,,,,,,,,,m,1,0.685,,,,,,,,0,131,131,39,1,
