key_resp.keys,key_resp.rt,instr_done_touch.x,instr_done_touch.y,instr_done_touch.leftButton,instr_done_touch.midButton,instr_done_touch.rightButton,instruction_pages.thisRepN,instruction_pages.thisTrialN,instruction_pages.thisN,instruction_pages.thisIndex,instruction_pages.ran,pageN,phase,instruct_text,has_image,instruct_image,participant,age,date,expName,psychopyVersion,OS,frameRate,response.keys,response.corr,response.rt,touch_resp.x,touch_resp.y,touch_resp.leftButton,touch_resp.midButton,touch_resp.rightButton,touch_resp.time,touch_resp.clicked_name,rt,corr,practrials.thisRepN,practrials.thisTrialN,practrials.thisN,practrials.thisIndex,practrials.ran,TrialID,Target,corrAns,end_of_practice_trials_pages.thisRepN,end_of_practice_trials_pages.thisTrialN,end_of_practice_trials_pages.thisN,end_of_practice_trials_pages.thisIndex,end_of_practice_trials_pages.ran,key_resp_2.keys,key_resp_2.corr,key_resp_2.rt,targ_click.x,targ_click.y,targ_click.leftButton,targ_click.midButton,targ_click.rightButton,targ_click.time,targ_click.clicked_name,break_done_touch.x,break_done_touch.y,break_done_touch.leftButton,break_done_touch.midButton,break_done_touch.rightButton,break_done_keyboard.keys,maintrials.thisRepN,maintrials.thisTrialN,maintrials.thisN,maintrials.thisIndex,maintrials.ran,string,blur,study,lex,stim_path,break_done_keyboard.rt,mouse_2.x,mouse_2.y,mouse_2.leftButton,mouse_2.midButton,mouse_2.rightButton,mouse_2.clicked_name,slider.response,slider.rt,trials.thisRepN,trials.thisTrialN,trials.thisN,trials.thisIndex,trials.ran,instr_done_touch.clicked_name,test_instructions.thisRepN,test_instructions.thisTrialN,test_instructions.thisN,test_instructions.thisIndex,test_instructions.ran,key_resp_3.keys,key_resp_3.corr,key_resp_3.rt,test_click.x,test_click.y,test_click.leftButton,test_click.midButton,test_click.rightButton,test_click.time,test_click.clicked_name,test_phase.thisRepN,test_phase.thisTrialN,test_phase.thisN,test_phase.thisIndex,test_phase.ran
space,28.806,0.178385417,-0.247395833,0,0,0,0,0,0,0,1,1,instructions,"INSTRUCTIONS
At the start of each trial, look at the plus sign  (+) in the center of the screen.  This tells you that a trial is about to begin and where to look. Second, the plus sign will disappear and a string of letters will appear. Your task is to determine if the string of letters is a word or not. If the item is a word press the M key (on keyboard)  or touch the word button (phone/tablet).  If the item is not a word,  press the  Z key (on keyboard)  or touch the nonword button (on phone/tablet). 
Press the space bar or touch  continue.",0,,6108295fdd0270d7544b5a8a,31,2022-02-12_12h37.08.082,lexical_decision_task_DD_L6,2021.2.3,Win32,60.0240096,,,,,,,,,,,,,,,,,,,,,,,,,,,,,,,,,,,,,,,,,,,,,,,,,,,,,,,,,,,,,,,,,,,,,,,,,,,,,,,,,,,,,,
space,9.098,0.178385417,-0.247395833,0,0,0,0,1,1,1,1,2,instructions,"If your device has a keyboard, press the 'Z' key for nonwords and the 'M' key for words.





Press the space bar or touch the button below to continue.",0,keyboard-example.gif,6108295fdd0270d7544b5a8a,31,2022-02-12_12h37.08.082,lexical_decision_task_DD_L6,2021.2.3,Win32,60.0240096,,,,,,,,,,,,,,,,,,,,,,,,,,,,,,,,,,,,,,,,,,,,,,,,,,,,,,,,,,,,,,,,,,,,,,,,,,,,,,,,,,,,,,
space,5.061,0.178385417,-0.247395833,0,0,0,0,2,2,2,1,3,instructions,"If you are using a touchscreen only device, use the buttons on the screen. Do not use the mouse.





Press the space bar or touch the button below to continue.",0,touchscreen-example.gif,6108295fdd0270d7544b5a8a,31,2022-02-12_12h37.08.082,lexical_decision_task_DD_L6,2021.2.3,Win32,60.0240096,,,,,,,,,,,,,,,,,,,,,,,,,,,,,,,,,,,,,,,,,,,,,,,,,,,,,,,,,,,,,,,,,,,,,,,,,,,,,,,,,,,,,,
space,11.33,0.174479167,-0.252604167,0,0,0,0,3,3,3,1,4,instructions,"It is very important that you respond as quickly and accurately as possible, as each letter string will only be on the screen for two seconds. If you do not respond within this time, the message 'Too slow!' will be displayed and the experiment will progress to the next letter string. The first 20 trials will be practice trials and you will receive feedback on your answers. 

Press the space bar or touch the button below to start the practice trials.",0,,6108295fdd0270d7544b5a8a,31,2022-02-12_12h37.08.082,lexical_decision_task_DD_L6,2021.2.3,Win32,60.0240096,,,,,,,,,,,,,,,,,,,,,,,,,,,,,,,,,,,,,,,,,,,,,,,,,,,,,,,,,,,,,,,,,,,,,,,,,,,,,,,,,,,,,,
,,,,,,,,,,,,,,,,,6108295fdd0270d7544b5a8a,31,2022-02-12_12h37.08.082,lexical_decision_task_DD_L6,2021.2.3,Win32,60.0240096,z,1,1.77,,,,,,,,1.77,1,0,0,0,8,1,1001,ASLERT,z,,,,,,,,,,,,,,,,,,,,,,,,,,,,,,,,,,,,,,,,,,,,,,,,,,,,,,,,,,,,,,,,,,
,,,,,,,,,,,,,,,,,6108295fdd0270d7544b5a8a,31,2022-02-12_12h37.08.082,lexical_decision_task_DD_L6,2021.2.3,Win32,60.0240096,z,1,0.719,,,,,,,,0.719,1,0,1,1,15,1,1001,WHAISE,z,,,,,,,,,,,,,,,,,,,,,,,,,,,,,,,,,,,,,,,,,,,,,,,,,,,,,,,,,,,,,,,,,,
,,,,,,,,,,,,,,,,,6108295fdd0270d7544b5a8a,31,2022-02-12_12h37.08.082,lexical_decision_task_DD_L6,2021.2.3,Win32,60.0240096,m,1,0.768,,,,,,,,0.768,1,0,2,2,3,1,1001,MATRIX,m,,,,,,,,,,,,,,,,,,,,,,,,,,,,,,,,,,,,,,,,,,,,,,,,,,,,,,,,,,,,,,,,,,
,,,,,,,,,,,,,,,,,6108295fdd0270d7544b5a8a,31,2022-02-12_12h37.08.082,lexical_decision_task_DD_L6,2021.2.3,Win32,60.0240096,z,1,0.857,,,,,,,,0.857,1,0,3,3,10,1,1001,INLADE,z,,,,,,,,,,,,,,,,,,,,,,,,,,,,,,,,,,,,,,,,,,,,,,,,,,,,,,,,,,,,,,,,,,
,,,,,,,,,,,,,,,,,6108295fdd0270d7544b5a8a,31,2022-02-12_12h37.08.082,lexical_decision_task_DD_L6,2021.2.3,Win32,60.0240096,m,1,0.694,,,,,,,,0.694,1,0,4,4,4,1,1001,SQUEAK,m,,,,,,,,,,,,,,,,,,,,,,,,,,,,,,,,,,,,,,,,,,,,,,,,,,,,,,,,,,,,,,,,,,
,,,,,,,,,,,,,,,,,6108295fdd0270d7544b5a8a,31,2022-02-12_12h37.08.082,lexical_decision_task_DD_L6,2021.2.3,Win32,60.0240096,z,1,0.8,,,,,,,,0.8,1,0,5,5,11,1,1001,RASHET,z,,,,,,,,,,,,,,,,,,,,,,,,,,,,,,,,,,,,,,,,,,,,,,,,,,,,,,,,,,,,,,,,,,
,,,,,,,,,,,,,,,,,6108295fdd0270d7544b5a8a,31,2022-02-12_12h37.08.082,lexical_decision_task_DD_L6,2021.2.3,Win32,60.0240096,m,1,0.736,,,,,,,,0.736,1,0,6,6,2,1,1001,ALMOND,m,,,,,,,,,,,,,,,,,,,,,,,,,,,,,,,,,,,,,,,,,,,,,,,,,,,,,,,,,,,,,,,,,,
,,,,,,,,,,,,,,,,,6108295fdd0270d7544b5a8a,31,2022-02-12_12h37.08.082,lexical_decision_task_DD_L6,2021.2.3,Win32,60.0240096,z,1,0.722,,,,,,,,0.722,1,0,7,7,13,1,1001,ROUPET,z,,,,,,,,,,,,,,,,,,,,,,,,,,,,,,,,,,,,,,,,,,,,,,,,,,,,,,,,,,,,,,,,,,
,,,,,,,,,,,,,,,,,6108295fdd0270d7544b5a8a,31,2022-02-12_12h37.08.082,lexical_decision_task_DD_L6,2021.2.3,Win32,60.0240096,m,1,0.565,,,,,,,,0.565,1,0,8,8,6,1,1001,ZOMBIE,m,,,,,,,,,,,,,,,,,,,,,,,,,,,,,,,,,,,,,,,,,,,,,,,,,,,,,,,,,,,,,,,,,,
,,,,,,,,,,,,,,,,,6108295fdd0270d7544b5a8a,31,2022-02-12_12h37.08.082,lexical_decision_task_DD_L6,2021.2.3,Win32,60.0240096,z,1,0.753,,,,,,,,0.753,1,0,9,9,12,1,1001,SPRINY,z,,,,,,,,,,,,,,,,,,,,,,,,,,,,,,,,,,,,,,,,,,,,,,,,,,,,,,,,,,,,,,,,,,
,,,,,,,,,,,,,,,,,6108295fdd0270d7544b5a8a,31,2022-02-12_12h37.08.082,lexical_decision_task_DD_L6,2021.2.3,Win32,60.0240096,m,1,0.706,,,,,,,,0.706,1,0,10,10,7,1,1001,VOLUME,m,,,,,,,,,,,,,,,,,,,,,,,,,,,,,,,,,,,,,,,,,,,,,,,,,,,,,,,,,,,,,,,,,,
,,,,,,,,,,,,,,,,,6108295fdd0270d7544b5a8a,31,2022-02-12_12h37.08.082,lexical_decision_task_DD_L6,2021.2.3,Win32,60.0240096,m,1,0.596,,,,,,,,0.596,1,0,11,11,1,1,1001,ADJUST,m,,,,,,,,,,,,,,,,,,,,,,,,,,,,,,,,,,,,,,,,,,,,,,,,,,,,,,,,,,,,,,,,,,
,,,,,,,,,,,,,,,,,6108295fdd0270d7544b5a8a,31,2022-02-12_12h37.08.082,lexical_decision_task_DD_L6,2021.2.3,Win32,60.0240096,m,1,0.629,,,,,,,,0.629,1,0,12,12,0,1,1001,UTOPIA,m,,,,,,,,,,,,,,,,,,,,,,,,,,,,,,,,,,,,,,,,,,,,,,,,,,,,,,,,,,,,,,,,,,
,,,,,,,,,,,,,,,,,6108295fdd0270d7544b5a8a,31,2022-02-12_12h37.08.082,lexical_decision_task_DD_L6,2021.2.3,Win32,60.0240096,m,1,0.556,,,,,,,,0.556,1,0,13,13,5,1,1001,OBTAIN,m,,,,,,,,,,,,,,,,,,,,,,,,,,,,,,,,,,,,,,,,,,,,,,,,,,,,,,,,,,,,,,,,,,
,,,,,,,,,,,,,,,,,6108295fdd0270d7544b5a8a,31,2022-02-12_12h37.08.082,lexical_decision_task_DD_L6,2021.2.3,Win32,60.0240096,z,1,0.776,,,,,,,,0.776,1,0,14,14,14,1,1001,THRALE,z,,,,,,,,,,,,,,,,,,,,,,,,,,,,,,,,,,,,,,,,,,,,,,,,,,,,,,,,,,,,,,,,,,
,,,,,,,,,,,,,,,,,6108295fdd0270d7544b5a8a,31,2022-02-12_12h37.08.082,lexical_decision_task_DD_L6,2021.2.3,Win32,60.0240096,z,1,0.729,,,,,,,,0.729,1,0,15,15,9,1,1001,FARINY,z,,,,,,,,,,,,,,,,,,,,,,,,,,,,,,,,,,,,,,,,,,,,,,,,,,,,,,,,,,,,,,,,,,
space,38.337,0.174479167,-0.252604167,0,0,0,,,,,,1,end_of_practice,"You have completed the practice trials. During the experimental trials, you will not receive feedback. 
Before you begin, please ensure that you are in a comfortable and quiet location and will not be disturbed for about 15 minutes, as we cannot use your data if you do not complete all the trials. 
 When you are ready to start the experimental trials, please press space or touch the button below.",,,6108295fdd0270d7544b5a8a,31,2022-02-12_12h37.08.082,lexical_decision_task_DD_L6,2021.2.3,Win32,60.0240096,,,,,,,,,,,,,,,,,,,,,0,0,0,0,1,,,,,,,,,,,,,,,,,,,,,,,,,,,,,,,,,,,,,,,,,,,,,,,,,,,,,,,,,,,,,
,,,,,,,,,,,,,,,,,6108295fdd0270d7544b5a8a,31,2022-02-12_12h37.08.082,lexical_decision_task_DD_L6,2021.2.3,Win32,60.0240096,,,,,,,,,,,0.955,0,,,,,,,,,,,,,,m,0,0.955,,,,,,,,0.174479167,-0.252604167,0,0,0,,0,0,0,128,1,GRIFT,LB,z,z,./images/GRIFTLB.png,,,,,,,,,,,,,,,,,,,,,,,,,,,,,,,,,,,
,,,,,,,,,,,,,,,,,6108295fdd0270d7544b5a8a,31,2022-02-12_12h37.08.082,lexical_decision_task_DD_L6,2021.2.3,Win32,60.0240096,,,,,,,,,,,1.038,1,,,,,,,,,,,,,,m,1,1.038,,,,,,,,0.888020833,-0.138020833,0,0,0,,0,1,1,51,1,SAUCE,LB,m,m,./images/SAUCELB.png,,,,,,,,,,,,,,,,,,,,,,,,,,,,,,,,,,,
,,,,,,,,,,,,,,,,,6108295fdd0270d7544b5a8a,31,2022-02-12_12h37.08.082,lexical_decision_task_DD_L6,2021.2.3,Win32,60.0240096,,,,,,,,,,,0.795,1,,,,,,,,,,,,,,z,1,0.795,,,,,,,,0.888020833,-0.138020833,0,0,0,,0,2,2,103,1,FLORT,HB,z,z,./images/FLORTHB.png,,,,,,,,,,,,,,,,,,,,,,,,,,,,,,,,,,,
,,,,,,,,,,,,,,,,,6108295fdd0270d7544b5a8a,31,2022-02-12_12h37.08.082,lexical_decision_task_DD_L6,2021.2.3,Win32,60.0240096,,,,,,,,,,,0.61,1,,,,,,,,,,,,,,m,1,0.61,,,,,,,,0.888020833,-0.138020833,0,0,0,,0,3,3,73,1,GLOVE,C,m,m,./images/GLOVE.png,,,,,,,,,,,,,,,,,,,,,,,,,,,,,,,,,,,
,,,,,,,,,,,,,,,,,6108295fdd0270d7544b5a8a,31,2022-02-12_12h37.08.082,lexical_decision_task_DD_L6,2021.2.3,Win32,60.0240096,,,,,,,,,,,1.229,1,,,,,,,,,,,,,,m,1,1.229,,,,,,,,0.888020833,-0.138020833,0,0,0,,0,4,4,39,1,CANDY,LB,m,m,./images/CANDYLB.png,,,,,,,,,,,,,,,,,,,,,,,,,,,,,,,,,,,
,,,,,,,,,,,,,,,,,6108295fdd0270d7544b5a8a,31,2022-02-12_12h37.08.082,lexical_decision_task_DD_L6,2021.2.3,Win32,60.0240096,,,,,,,,,,,0.806,1,,,,,,,,,,,,,,m,1,0.806,,,,,,,,0.888020833,-0.138020833,0,0,0,,0,5,5,60,1,CURRY,LB,m,m,./images/CURRYLB.png,,,,,,,,,,,,,,,,,,,,,,,,,,,,,,,,,,,
,,,,,,,,,,,,,,,,,6108295fdd0270d7544b5a8a,31,2022-02-12_12h37.08.082,lexical_decision_task_DD_L6,2021.2.3,Win32,60.0240096,,,,,,,,,,,0.507,1,,,,,,,,,,,,,,m,1,0.507,,,,,,,,0.888020833,-0.138020833,0,0,0,,0,6,6,30,1,SLOPE,LB,m,m,./images/SLOPELB.png,,,,,,,,,,,,,,,,,,,,,,,,,,,,,,,,,,,
,,,,,,,,,,,,,,,,,6108295fdd0270d7544b5a8a,31,2022-02-12_12h37.08.082,lexical_decision_task_DD_L6,2021.2.3,Win32,60.0240096,,,,,,,,,,,0.748,1,,,,,,,,,,,,,,m,1,0.748,,,,,,,,0.888020833,-0.138020833,0,0,0,,0,7,7,32,1,HOCKEY,HB,m,m,./images/HOCKEYHB.png,,,,,,,,,,,,,,,,,,,,,,,,,,,,,,,,,,,
,,,,,,,,,,,,,,,,,6108295fdd0270d7544b5a8a,31,2022-02-12_12h37.08.082,lexical_decision_task_DD_L6,2021.2.3,Win32,60.0240096,,,,,,,,,,,1.351,1,,,,,,,,,,,,,,z,1,1.351,,,,,,,,0.888020833,-0.138020833,0,0,0,,0,8,8,120,1,RINED,C,z,z,./images/RINED.png,,,,,,,,,,,,,,,,,,,,,,,,,,,,,,,,,,,
,,,,,,,,,,,,,,,,,6108295fdd0270d7544b5a8a,31,2022-02-12_12h37.08.082,lexical_decision_task_DD_L6,2021.2.3,Win32,60.0240096,,,,,,,,,,,0.628,1,,,,,,,,,,,,,,m,1,0.628,,,,,,,,0.888020833,-0.138020833,0,0,0,,0,9,9,64,1,BRIDE,C,m,m,./images/BRIDE.png,,,,,,,,,,,,,,,,,,,,,,,,,,,,,,,,,,,
,,,,,,,,,,,,,,,,,6108295fdd0270d7544b5a8a,31,2022-02-12_12h37.08.082,lexical_decision_task_DD_L6,2021.2.3,Win32,60.0240096,,,,,,,,,,,1.07,1,,,,,,,,,,,,,,z,1,1.07,,,,,,,,0.888020833,-0.138020833,0,0,0,,0,10,10,145,1,LAMEL,HB,z,z,./images/LAMELHB.png,,,,,,,,,,,,,,,,,,,,,,,,,,,,,,,,,,,
,,,,,,,,,,,,,,,,,6108295fdd0270d7544b5a8a,31,2022-02-12_12h37.08.082,lexical_decision_task_DD_L6,2021.2.3,Win32,60.0240096,,,,,,,,,,,0.649,1,,,,,,,,,,,,,,m,1,0.649,,,,,,,,0.888020833,-0.138020833,0,0,0,,0,11,11,63,1,BAKER,LB,m,m,./images/BAKERLB.png,,,,,,,,,,,,,,,,,,,,,,,,,,,,,,,,,,,
,,,,,,,,,,,,,,,,,6108295fdd0270d7544b5a8a,31,2022-02-12_12h37.08.082,lexical_decision_task_DD_L6,2021.2.3,Win32,60.0240096,,,,,,,,,,,0.778,1,,,,,,,,,,,,,,z,1,0.778,,,,,,,,0.888020833,-0.138020833,0,0,0,,0,12,12,167,1,ZONET,LB,z,z,./images/ZONETLB.png,,,,,,,,,,,,,,,,,,,,,,,,,,,,,,,,,,,
,,,,,,,,,,,,,,,,,6108295fdd0270d7544b5a8a,31,2022-02-12_12h37.08.082,lexical_decision_task_DD_L6,2021.2.3,Win32,60.0240096,,,,,,,,,,,0.775,1,,,,,,,,,,,,,,z,1,0.775,,,,,,,,0.888020833,-0.138020833,0,0,0,,0,13,13,137,1,JOOST,LB,z,z,./images/JOOSTLB.png,,,,,,,,,,,,,,,,,,,,,,,,,,,,,,,,,,,
,,,,,,,,,,,,,,,,,6108295fdd0270d7544b5a8a,31,2022-02-12_12h37.08.082,lexical_decision_task_DD_L6,2021.2.3,Win32,60.0240096,,,,,,,,,,,0.837,1,,,,,,,,,,,,,,m,1,0.837,,,,,,,,0.888020833,-0.138020833,0,0,0,,0,14,14,41,1,STREAM,HB,m,m,./images/STREAMHB.png,,,,,,,,,,,,,,,,,,,,,,,,,,,,,,,,,,,
,,,,,,,,,,,,,,,,,6108295fdd0270d7544b5a8a,31,2022-02-12_12h37.08.082,lexical_decision_task_DD_L6,2021.2.3,Win32,60.0240096,,,,,,,,,,,0.808,1,,,,,,,,,,,,,,m,1,0.808,,,,,,,,0.888020833,-0.138020833,0,0,0,,0,15,15,65,1,SPINE,HB,m,m,./images/SPINEHB.png,,,,,,,,,,,,,,,,,,,,,,,,,,,,,,,,,,,
,,,,,,,,,,,,,,,,,6108295fdd0270d7544b5a8a,31,2022-02-12_12h37.08.082,lexical_decision_task_DD_L6,2021.2.3,Win32,60.0240096,,,,,,,,,,,1.191,1,,,,,,,,,,,,,,z,1,1.191,,,,,,,,0.888020833,-0.138020833,0,0,0,,0,16,16,149,1,VEASE,LB,z,z,./images/VEASELB.png,,,,,,,,,,,,,,,,,,,,,,,,,,,,,,,,,,,
,,,,,,,,,,,,,,,,,6108295fdd0270d7544b5a8a,31,2022-02-12_12h37.08.082,lexical_decision_task_DD_L6,2021.2.3,Win32,60.0240096,,,,,,,,,,,0.898,1,,,,,,,,,,,,,,z,1,0.898,,,,,,,,0.888020833,-0.138020833,0,0,0,,0,17,17,161,1,BLAPS,LB,z,z,./images/BLAPSLB.png,,,,,,,,,,,,,,,,,,,,,,,,,,,,,,,,,,,
,,,,,,,,,,,,,,,,,6108295fdd0270d7544b5a8a,31,2022-02-12_12h37.08.082,lexical_decision_task_DD_L6,2021.2.3,Win32,60.0240096,,,,,,,,,,,0.673,1,,,,,,,,,,,,,,m,1,0.673,,,,,,,,0.888020833,-0.138020833,0,0,0,,0,18,18,21,1,DANCER,LB,m,m,./images/DANCERLB.png,,,,,,,,,,,,,,,,,,,,,,,,,,,,,,,,,,,
,,,,,,,,,,,,,,,,,6108295fdd0270d7544b5a8a,31,2022-02-12_12h37.08.082,lexical_decision_task_DD_L6,2021.2.3,Win32,60.0240096,,,,,,,,,,,0.893,1,,,,,,,,,,,,,,z,1,0.893,,,,,,,,0.888020833,-0.138020833,0,0,0,,0,19,19,154,1,THINT,HB,z,z,./images/THINTHB.png,,,,,,,,,,,,,,,,,,,,,,,,,,,,,,,,,,,
,,,,,,,,,,,,,,,,,6108295fdd0270d7544b5a8a,31,2022-02-12_12h37.08.082,lexical_decision_task_DD_L6,2021.2.3,Win32,60.0240096,,,,,,,,,,,0.705,1,,,,,,,,,,,,,,z,1,0.705,,,,,,,,0.888020833,-0.138020833,0,0,0,,0,20,20,162,1,LEICH,C,z,z,./images/LEICH.png,,,,,,,,,,,,,,,,,,,,,,,,,,,,,,,,,,,
,,,,,,,,,,,,,,,,,6108295fdd0270d7544b5a8a,31,2022-02-12_12h37.08.082,lexical_decision_task_DD_L6,2021.2.3,Win32,60.0240096,,,,,,,,,,,0.827,1,,,,,,,,,,,,,,z,1,0.827,,,,,,,,0.888020833,-0.138020833,0,0,0,,0,21,21,143,1,MONGS,LB,z,z,./images/MONGSLB.png,,,,,,,,,,,,,,,,,,,,,,,,,,,,,,,,,,,
,,,,,,,,,,,,,,,,,6108295fdd0270d7544b5a8a,31,2022-02-12_12h37.08.082,lexical_decision_task_DD_L6,2021.2.3,Win32,60.0240096,,,,,,,,,,,0.833,0,,,,,,,,,,,,,,m,0,0.833,,,,,,,,0.888020833,-0.138020833,0,0,0,,0,22,22,123,1,SEDGE,C,z,z,./images/SEDGE.png,,,,,,,,,,,,,,,,,,,,,,,,,,,,,,,,,,,
,,,,,,,,,,,,,,,,,6108295fdd0270d7544b5a8a,31,2022-02-12_12h37.08.082,lexical_decision_task_DD_L6,2021.2.3,Win32,60.0240096,,,,,,,,,,,0.678,1,,,,,,,,,,,,,,m,1,0.678,,,,,,,,0.888020833,-0.138020833,0,0,0,,0,23,23,72,1,FLASK,LB,m,m,./images/FLASKLB.png,,,,,,,,,,,,,,,,,,,,,,,,,,,,,,,,,,,
,,,,,,,,,,,,,,,,,6108295fdd0270d7544b5a8a,31,2022-02-12_12h37.08.082,lexical_decision_task_DD_L6,2021.2.3,Win32,60.0240096,,,,,,,,,,,0.745,1,,,,,,,,,,,,,,m,1,0.745,,,,,,,,0.888020833,-0.138020833,0,0,0,,0,24,24,74,1,JUMPER,HB,m,m,./images/JUMPERHB.png,,,,,,,,,,,,,,,,,,,,,,,,,,,,,,,,,,,
,,,,,,,,,,,,,,,,,6108295fdd0270d7544b5a8a,31,2022-02-12_12h37.08.082,lexical_decision_task_DD_L6,2021.2.3,Win32,60.0240096,,,,,,,,,,,0.57,1,,,,,,,,,,,,,,m,1,0.57,,,,,,,,0.888020833,-0.138020833,0,0,0,,0,25,25,46,1,MUMMY,C,m,m,./images/MUMMY.png,,,,,,,,,,,,,,,,,,,,,,,,,,,,,,,,,,,
,,,,,,,,,,,,,,,,,6108295fdd0270d7544b5a8a,31,2022-02-12_12h37.08.082,lexical_decision_task_DD_L6,2021.2.3,Win32,60.0240096,,,,,,,,,,,1.065,1,,,,,,,,,,,,,,z,1,1.065,,,,,,,,0.888020833,-0.138020833,0,0,0,,0,26,26,97,1,CHIDS,HB,z,z,./images/CHIDSHB.png,,,,,,,,,,,,,,,,,,,,,,,,,,,,,,,,,,,
,,,,,,,,,,,,,,,,,6108295fdd0270d7544b5a8a,31,2022-02-12_12h37.08.082,lexical_decision_task_DD_L6,2021.2.3,Win32,60.0240096,,,,,,,,,,,0.757,1,,,,,,,,,,,,,,z,1,0.757,,,,,,,,0.888020833,-0.138020833,0,0,0,,0,27,27,131,1,NACES,LB,z,z,./images/NACESLB.png,,,,,,,,,,,,,,,,,,,,,,,,,,,,,,,,,,,
,,,,,,,,,,,,,,,,,6108295fdd0270d7544b5a8a,31,2022-02-12_12h37.08.082,lexical_decision_task_DD_L6,2021.2.3,Win32,60.0240096,,,,,,,,,,,0.906,1,,,,,,,,,,,,,,m,1,0.906,,,,,,,,0.888020833,-0.138020833,0,0,0,,0,28,28,8,1,CLIFF,HB,m,m,./images/CLIFFHB.png,,,,,,,,,,,,,,,,,,,,,,,,,,,,,,,,,,,
,,,,,,,,,,,,,,,,,6108295fdd0270d7544b5a8a,31,2022-02-12_12h37.08.082,lexical_decision_task_DD_L6,2021.2.3,Win32,60.0240096,,,,,,,,,,,1.092,1,,,,,,,,,,,,,,z,1,1.092,,,,,,,,0.888020833,-0.138020833,0,0,0,,0,29,29,91,1,SHENS,HB,z,z,./images/SHENSHB.png,,,,,,,,,,,,,,,,,,,,,,,,,,,,,,,,,,,
,,,,,,,,,,,,,,,,,6108295fdd0270d7544b5a8a,31,2022-02-12_12h37.08.082,lexical_decision_task_DD_L6,2021.2.3,Win32,60.0240096,,,,,,,,,,,0.824,1,,,,,,,,,,,,,,z,1,0.824,,,,,,,,0.888020833,-0.138020833,0,0,0,,0,30,30,118,1,BAVEL,HB,z,z,./images/BAVELHB.png,,,,,,,,,,,,,,,,,,,,,,,,,,,,,,,,,,,
,,,,,,,,,,,,,,,,,6108295fdd0270d7544b5a8a,31,2022-02-12_12h37.08.082,lexical_decision_task_DD_L6,2021.2.3,Win32,60.0240096,,,,,,,,,,,0.697,1,,,,,,,,,,,,,,m,1,0.697,,,,,,,,0.888020833,-0.138020833,0,0,0,,0,31,31,38,1,ENGINE,HB,m,m,./images/ENGINEHB.png,,,,,,,,,,,,,,,,,,,,,,,,,,,,,,,,,,,
,,,,,,,,,,,,,,,,,6108295fdd0270d7544b5a8a,31,2022-02-12_12h37.08.082,lexical_decision_task_DD_L6,2021.2.3,Win32,60.0240096,,,,,,,,,,,1.191,1,,,,,,,,,,,,,,z,1,1.191,,,,,,,,0.888020833,-0.138020833,0,0,0,,0,32,32,112,1,MYING,HB,z,z,./images/MYINGHB.png,,,,,,,,,,,,,,,,,,,,,,,,,,,,,,,,,,,
,,,,,,,,,,,,,,,,,6108295fdd0270d7544b5a8a,31,2022-02-12_12h37.08.082,lexical_decision_task_DD_L6,2021.2.3,Win32,60.0240096,,,,,,,,,,,0.705,1,,,,,,,,,,,,,,m,1,0.705,,,,,,,,0.888020833,-0.138020833,0,0,0,,0,33,33,26,1,CLOUD,HB,m,m,./images/CLOUDHB.png,,,,,,,,,,,,,,,,,,,,,,,,,,,,,,,,,,,
,,,,,,,,,,,,,,,,,6108295fdd0270d7544b5a8a,31,2022-02-12_12h37.08.082,lexical_decision_task_DD_L6,2021.2.3,Win32,60.0240096,,,,,,,,,,,0.686,1,,,,,,,,,,,,,,m,1,0.686,,,,,,,,0.888020833,-0.138020833,0,0,0,,0,34,34,50,1,PILOT,HB,m,m,./images/PILOTHB.png,,,,,,,,,,,,,,,,,,,,,,,,,,,,,,,,,,,
,,,,,,,,,,,,,,,,,6108295fdd0270d7544b5a8a,31,2022-02-12_12h37.08.082,lexical_decision_task_DD_L6,2021.2.3,Win32,60.0240096,,,,,,,,,,,0.913,1,,,,,,,,,,,,,,z,1,0.913,,,,,,,,0.888020833,-0.138020833,0,0,0,,0,35,35,100,1,DRIBS,HB,z,z,./images/DRIBSHB.png,,,,,,,,,,,,,,,,,,,,,,,,,,,,,,,,,,,
,,,,,,,,,,,,,,,,,6108295fdd0270d7544b5a8a,31,2022-02-12_12h37.08.082,lexical_decision_task_DD_L6,2021.2.3,Win32,60.0240096,,,,,,,,,,,0.706,1,,,,,,,,,,,,,,z,1,0.706,,,,,,,,0.888020833,-0.138020833,0,0,0,,0,36,36,89,1,DRIEK,LB,z,z,./images/DRIEKLB.png,,,,,,,,,,,,,,,,,,,,,,,,,,,,,,,,,,,
,,,,,,,,,,,,,,,,,6108295fdd0270d7544b5a8a,31,2022-02-12_12h37.08.082,lexical_decision_task_DD_L6,2021.2.3,Win32,60.0240096,,,,,,,,,,,0.917,1,,,,,,,,,,,,,,z,1,0.917,,,,,,,,0.888020833,-0.138020833,0,0,0,,0,37,37,114,1,RIKES,C,z,z,./images/RIKES.png,,,,,,,,,,,,,,,,,,,,,,,,,,,,,,,,,,,
,,,,,,,,,,,,,,,,,6108295fdd0270d7544b5a8a,31,2022-02-12_12h37.08.082,lexical_decision_task_DD_L6,2021.2.3,Win32,60.0240096,,,,,,,,,,,0.607,1,,,,,,,,,,,,,,m,1,0.607,,,,,,,,0.888020833,-0.138020833,0,0,0,,0,38,38,67,1,POKER,C,m,m,./images/POKER.png,,,,,,,,,,,,,,,,,,,,,,,,,,,,,,,,,,,
,,,,,,,,,,,,,,,,,6108295fdd0270d7544b5a8a,31,2022-02-12_12h37.08.082,lexical_decision_task_DD_L6,2021.2.3,Win32,60.0240096,,,,,,,,,,,0.926,1,,,,,,,,,,,,,,m,1,0.926,,,,,,,,0.888020833,-0.138020833,0,0,0,,0,39,39,83,1,WHISKY,HB,m,m,./images/WHISKYHB.png,,,,,,,,,,,,,,,,,,,,,,,,,,,,,,,,,,,
,,,,,,,,,,,,,,,,,6108295fdd0270d7544b5a8a,31,2022-02-12_12h37.08.082,lexical_decision_task_DD_L6,2021.2.3,Win32,60.0240096,,,,,,,,,,,0.159,1,,,,,,,,,,,,,,m,1,0.159,,,,,,,,0.888020833,-0.138020833,0,0,0,,0,40,40,3,1,CRATER,LB,m,m,./images/CRATERLB.png,,,,,,,,,,,,,,,,,,,,,,,,,,,,,,,,,,,
,,,,,,,,,,,,,,,,,6108295fdd0270d7544b5a8a,31,2022-02-12_12h37.08.082,lexical_decision_task_DD_L6,2021.2.3,Win32,60.0240096,,,,,,,,,,,1.17,1,,,,,,,,,,,,,,z,1,1.17,,,,,,,,0.888020833,-0.138020833,0,0,0,space,0,41,41,157,1,INLER,HB,z,z,./images/INLERHB.png,3.614,,,,,,,,,,,,,,,,,,,,,,,,,,,,,,,,,,
,,,,,,,,,,,,,,,,,6108295fdd0270d7544b5a8a,31,2022-02-12_12h37.08.082,lexical_decision_task_DD_L6,2021.2.3,Win32,60.0240096,,,,,,,,,,,1.173,1,,,,,,,,,,,,,,z,1,1.173,,,,,,,,0.888020833,-0.138020833,0,0,0,,0,42,42,104,1,GITTY,LB,z,z,./images/GITTYLB.png,,,,,,,,,,,,,,,,,,,,,,,,,,,,,,,,,,,
,,,,,,,,,,,,,,,,,6108295fdd0270d7544b5a8a,31,2022-02-12_12h37.08.082,lexical_decision_task_DD_L6,2021.2.3,Win32,60.0240096,,,,,,,,,,,0.908,1,,,,,,,,,,,,,,m,1,0.908,,,,,,,,0.888020833,-0.138020833,0,0,0,,0,43,43,71,1,BUBBLE,HB,m,m,./images/BUBBLEHB.png,,,,,,,,,,,,,,,,,,,,,,,,,,,,,,,,,,,
,,,,,,,,,,,,,,,,,6108295fdd0270d7544b5a8a,31,2022-02-12_12h37.08.082,lexical_decision_task_DD_L6,2021.2.3,Win32,60.0240096,,,,,,,,,,,0.697,1,,,,,,,,,,,,,,m,1,0.697,,,,,,,,0.888020833,-0.138020833,0,0,0,,0,44,44,69,1,ARROW,LB,m,m,./images/ARROWLB.png,,,,,,,,,,,,,,,,,,,,,,,,,,,,,,,,,,,
,,,,,,,,,,,,,,,,,6108295fdd0270d7544b5a8a,31,2022-02-12_12h37.08.082,lexical_decision_task_DD_L6,2021.2.3,Win32,60.0240096,,,,,,,,,,,1.201,1,,,,,,,,,,,,,,z,1,1.201,,,,,,,,0.888020833,-0.138020833,0,0,0,,0,45,45,152,1,FRAIN,LB,z,z,./images/FRAINLB.png,,,,,,,,,,,,,,,,,,,,,,,,,,,,,,,,,,,
,,,,,,,,,,,,,,,,,6108295fdd0270d7544b5a8a,31,2022-02-12_12h37.08.082,lexical_decision_task_DD_L6,2021.2.3,Win32,60.0240096,,,,,,,,,,,0.728,1,,,,,,,,,,,,,,z,1,0.728,,,,,,,,0.888020833,-0.138020833,0,0,0,,0,46,46,99,1,BACKY,C,z,z,./images/BACKY.png,,,,,,,,,,,,,,,,,,,,,,,,,,,,,,,,,,,
,,,,,,,,,,,,,,,,,6108295fdd0270d7544b5a8a,31,2022-02-12_12h37.08.082,lexical_decision_task_DD_L6,2021.2.3,Win32,60.0240096,,,,,,,,,,,0.714,1,,,,,,,,,,,,,,m,1,0.714,,,,,,,,0.888020833,-0.138020833,0,0,0,,0,47,47,1,1,TOWEL,C,m,m,./images/TOWEL.png,,,,,,,,,,,,,,,,,,,,,,,,,,,,,,,,,,,
,,,,,,,,,,,,,,,,,6108295fdd0270d7544b5a8a,31,2022-02-12_12h37.08.082,lexical_decision_task_DD_L6,2021.2.3,Win32,60.0240096,,,,,,,,,,,1.661,1,,,,,,,,,,,,,,z,1,1.661,,,,,,,,0.888020833,-0.138020833,0,0,0,,0,48,48,151,1,TINKY,HB,z,z,./images/TINKYHB.png,,,,,,,,,,,,,,,,,,,,,,,,,,,,,,,,,,,
,,,,,,,,,,,,,,,,,6108295fdd0270d7544b5a8a,31,2022-02-12_12h37.08.082,lexical_decision_task_DD_L6,2021.2.3,Win32,60.0240096,,,,,,,,,,,0.669,1,,,,,,,,,,,,,,z,1,0.669,,,,,,,,0.888020833,-0.138020833,0,0,0,,0,49,49,90,1,NEAST,C,z,z,./images/NEAST.png,,,,,,,,,,,,,,,,,,,,,,,,,,,,,,,,,,,
,,,,,,,,,,,,,,,,,6108295fdd0270d7544b5a8a,31,2022-02-12_12h37.08.082,lexical_decision_task_DD_L6,2021.2.3,Win32,60.0240096,,,,,,,,,,,0.674,1,,,,,,,,,,,,,,z,1,0.674,,,,,,,,0.888020833,-0.138020833,0,0,0,,0,50,50,113,1,LINEW,LB,z,z,./images/LINEWLB.png,,,,,,,,,,,,,,,,,,,,,,,,,,,,,,,,,,,
,,,,,,,,,,,,,,,,,6108295fdd0270d7544b5a8a,31,2022-02-12_12h37.08.082,lexical_decision_task_DD_L6,2021.2.3,Win32,60.0240096,,,,,,,,,,,0.794,1,,,,,,,,,,,,,,m,1,0.794,,,,,,,,0.888020833,-0.138020833,0,0,0,,0,51,51,56,1,HEATER,HB,m,m,./images/HEATERHB.png,,,,,,,,,,,,,,,,,,,,,,,,,,,,,,,,,,,
,,,,,,,,,,,,,,,,,6108295fdd0270d7544b5a8a,31,2022-02-12_12h37.08.082,lexical_decision_task_DD_L6,2021.2.3,Win32,60.0240096,,,,,,,,,,,1.149,1,,,,,,,,,,,,,,z,1,1.149,,,,,,,,0.888020833,-0.138020833,0,0,0,,0,52,52,85,1,CHULK,HB,z,z,./images/CHULKHB.png,,,,,,,,,,,,,,,,,,,,,,,,,,,,,,,,,,,
,,,,,,,,,,,,,,,,,6108295fdd0270d7544b5a8a,31,2022-02-12_12h37.08.082,lexical_decision_task_DD_L6,2021.2.3,Win32,60.0240096,,,,,,,,,,,1.183,1,,,,,,,,,,,,,,z,1,1.183,,,,,,,,0.888020833,-0.138020833,0,0,0,,0,53,53,136,1,WERVE,HB,z,z,./images/WERVEHB.png,,,,,,,,,,,,,,,,,,,,,,,,,,,,,,,,,,,
,,,,,,,,,,,,,,,,,6108295fdd0270d7544b5a8a,31,2022-02-12_12h37.08.082,lexical_decision_task_DD_L6,2021.2.3,Win32,60.0240096,,,,,,,,,,,0.626,1,,,,,,,,,,,,,,z,1,0.626,,,,,,,,0.888020833,-0.138020833,0,0,0,,0,54,54,95,1,HANTY,LB,z,z,./images/HANTYLB.png,,,,,,,,,,,,,,,,,,,,,,,,,,,,,,,,,,,
,,,,,,,,,,,,,,,,,6108295fdd0270d7544b5a8a,31,2022-02-12_12h37.08.082,lexical_decision_task_DD_L6,2021.2.3,Win32,60.0240096,,,,,,,,,,,0.628,1,,,,,,,,,,,,,,z,1,0.628,,,,,,,,0.888020833,-0.138020833,0,0,0,,0,55,55,108,1,GRUET,C,z,z,./images/GRUET.png,,,,,,,,,,,,,,,,,,,,,,,,,,,,,,,,,,,
,,,,,,,,,,,,,,,,,6108295fdd0270d7544b5a8a,31,2022-02-12_12h37.08.082,lexical_decision_task_DD_L6,2021.2.3,Win32,60.0240096,,,,,,,,,,,0.561,1,,,,,,,,,,,,,,z,1,0.561,,,,,,,,0.888020833,-0.138020833,0,0,0,,0,56,56,102,1,DULLE,C,z,z,./images/DULLE.png,,,,,,,,,,,,,,,,,,,,,,,,,,,,,,,,,,,
,,,,,,,,,,,,,,,,,6108295fdd0270d7544b5a8a,31,2022-02-12_12h37.08.082,lexical_decision_task_DD_L6,2021.2.3,Win32,60.0240096,,,,,,,,,,,0.632,1,,,,,,,,,,,,,,m,1,0.632,,,,,,,,0.888020833,-0.138020833,0,0,0,,0,57,57,15,1,COLLAR,LB,m,m,./images/COLLARLB.png,,,,,,,,,,,,,,,,,,,,,,,,,,,,,,,,,,,
,,,,,,,,,,,,,,,,,6108295fdd0270d7544b5a8a,31,2022-02-12_12h37.08.082,lexical_decision_task_DD_L6,2021.2.3,Win32,60.0240096,,,,,,,,,,,1.51,1,,,,,,,,,,,,,,z,1,1.51,,,,,,,,0.888020833,-0.138020833,0,0,0,,0,58,58,166,1,SHORY,HB,z,z,./images/SHORYHB.png,,,,,,,,,,,,,,,,,,,,,,,,,,,,,,,,,,,
,,,,,,,,,,,,,,,,,6108295fdd0270d7544b5a8a,31,2022-02-12_12h37.08.082,lexical_decision_task_DD_L6,2021.2.3,Win32,60.0240096,,,,,,,,,,,0.686,1,,,,,,,,,,,,,,m,1,0.686,,,,,,,,0.888020833,-0.138020833,0,0,0,,0,59,59,77,1,WHEEL,HB,m,m,./images/WHEELHB.png,,,,,,,,,,,,,,,,,,,,,,,,,,,,,,,,,,,
,,,,,,,,,,,,,,,,,6108295fdd0270d7544b5a8a,31,2022-02-12_12h37.08.082,lexical_decision_task_DD_L6,2021.2.3,Win32,60.0240096,,,,,,,,,,,0.655,1,,,,,,,,,,,,,,z,1,0.655,,,,,,,,0.888020833,-0.138020833,0,0,0,,0,60,60,129,1,PRANS,C,z,z,./images/PRANS.png,,,,,,,,,,,,,,,,,,,,,,,,,,,,,,,,,,,
,,,,,,,,,,,,,,,,,6108295fdd0270d7544b5a8a,31,2022-02-12_12h37.08.082,lexical_decision_task_DD_L6,2021.2.3,Win32,60.0240096,,,,,,,,,,,0.57,1,,,,,,,,,,,,,,m,1,0.57,,,,,,,,0.888020833,-0.138020833,0,0,0,,0,61,61,61,1,ARTIST,C,m,m,./images/ARTIST.png,,,,,,,,,,,,,,,,,,,,,,,,,,,,,,,,,,,
,,,,,,,,,,,,,,,,,6108295fdd0270d7544b5a8a,31,2022-02-12_12h37.08.082,lexical_decision_task_DD_L6,2021.2.3,Win32,60.0240096,,,,,,,,,,,0.582,1,,,,,,,,,,,,,,m,1,0.582,,,,,,,,0.888020833,-0.138020833,0,0,0,,0,62,62,36,1,BOILER,LB,m,m,./images/BOILERLB.png,,,,,,,,,,,,,,,,,,,,,,,,,,,,,,,,,,,
,,,,,,,,,,,,,,,,,6108295fdd0270d7544b5a8a,31,2022-02-12_12h37.08.082,lexical_decision_task_DD_L6,2021.2.3,Win32,60.0240096,,,,,,,,,,,0.651,1,,,,,,,,,,,,,,m,1,0.651,,,,,,,,0.888020833,-0.138020833,0,0,0,,0,63,63,57,1,FERRY,LB,m,m,./images/FERRYLB.png,,,,,,,,,,,,,,,,,,,,,,,,,,,,,,,,,,,
,,,,,,,,,,,,,,,,,6108295fdd0270d7544b5a8a,31,2022-02-12_12h37.08.082,lexical_decision_task_DD_L6,2021.2.3,Win32,60.0240096,,,,,,,,,,,0.817,1,,,,,,,,,,,,,,m,1,0.817,,,,,,,,0.888020833,-0.138020833,0,0,0,,0,64,64,47,1,LAGOON,HB,m,m,./images/LAGOONHB.png,,,,,,,,,,,,,,,,,,,,,,,,,,,,,,,,,,,
,,,,,,,,,,,,,,,,,6108295fdd0270d7544b5a8a,31,2022-02-12_12h37.08.082,lexical_decision_task_DD_L6,2021.2.3,Win32,60.0240096,,,,,,,,,,,0.548,1,,,,,,,,,,,,,,m,1,0.548,,,,,,,,0.888020833,-0.138020833,0,0,0,,0,65,65,45,1,MONKEY,LB,m,m,./images/MONKEYLB.png,,,,,,,,,,,,,,,,,,,,,,,,,,,,,,,,,,,
,,,,,,,,,,,,,,,,,6108295fdd0270d7544b5a8a,31,2022-02-12_12h37.08.082,lexical_decision_task_DD_L6,2021.2.3,Win32,60.0240096,,,,,,,,,,,0.597,1,,,,,,,,,,,,,,m,1,0.597,,,,,,,,0.888020833,-0.138020833,0,0,0,,0,66,66,33,1,SAUNA,LB,m,m,./images/SAUNALB.png,,,,,,,,,,,,,,,,,,,,,,,,,,,,,,,,,,,
,,,,,,,,,,,,,,,,,6108295fdd0270d7544b5a8a,31,2022-02-12_12h37.08.082,lexical_decision_task_DD_L6,2021.2.3,Win32,60.0240096,,,,,,,,,,,0.684,1,,,,,,,,,,,,,,m,1,0.684,,,,,,,,0.888020833,-0.138020833,0,0,0,,0,67,67,13,1,BUNNY,C,m,m,./images/BUNNY.png,,,,,,,,,,,,,,,,,,,,,,,,,,,,,,,,,,,
,,,,,,,,,,,,,,,,,6108295fdd0270d7544b5a8a,31,2022-02-12_12h37.08.082,lexical_decision_task_DD_L6,2021.2.3,Win32,60.0240096,,,,,,,,,,,0.822,1,,,,,,,,,,,,,,z,1,0.822,,,,,,,,0.888020833,-0.138020833,0,0,0,,0,68,68,146,1,MOOST,LB,z,z,./images/MOOSTLB.png,,,,,,,,,,,,,,,,,,,,,,,,,,,,,,,,,,,
,,,,,,,,,,,,,,,,,6108295fdd0270d7544b5a8a,31,2022-02-12_12h37.08.082,lexical_decision_task_DD_L6,2021.2.3,Win32,60.0240096,,,,,,,,,,,0.805,1,,,,,,,,,,,,,,z,1,0.805,,,,,,,,0.888020833,-0.138020833,0,0,0,,0,69,69,141,1,PLEET,C,z,z,./images/PLEET.png,,,,,,,,,,,,,,,,,,,,,,,,,,,,,,,,,,,
,,,,,,,,,,,,,,,,,6108295fdd0270d7544b5a8a,31,2022-02-12_12h37.08.082,lexical_decision_task_DD_L6,2021.2.3,Win32,60.0240096,,,,,,,,,,,0.675,1,,,,,,,,,,,,,,m,1,0.675,,,,,,,,0.888020833,-0.138020833,0,0,0,,0,70,70,58,1,CANOE,C,m,m,./images/CANOE.png,,,,,,,,,,,,,,,,,,,,,,,,,,,,,,,,,,,
,,,,,,,,,,,,,,,,,6108295fdd0270d7544b5a8a,31,2022-02-12_12h37.08.082,lexical_decision_task_DD_L6,2021.2.3,Win32,60.0240096,,,,,,,,,,,0.612,1,,,,,,,,,,,,,,m,1,0.612,,,,,,,,0.888020833,-0.138020833,0,0,0,,0,71,71,7,1,WAGON,C,m,m,./images/WAGON.png,,,,,,,,,,,,,,,,,,,,,,,,,,,,,,,,,,,
,,,,,,,,,,,,,,,,,6108295fdd0270d7544b5a8a,31,2022-02-12_12h37.08.082,lexical_decision_task_DD_L6,2021.2.3,Win32,60.0240096,,,,,,,,,,,1.147,1,,,,,,,,,,,,,,z,1,1.147,,,,,,,,0.888020833,-0.138020833,0,0,0,,0,72,72,139,1,BLEAR,HB,z,z,./images/BLEARHB.png,,,,,,,,,,,,,,,,,,,,,,,,,,,,,,,,,,,
,,,,,,,,,,,,,,,,,6108295fdd0270d7544b5a8a,31,2022-02-12_12h37.08.082,lexical_decision_task_DD_L6,2021.2.3,Win32,60.0240096,,,,,,,,,,,0.813,1,,,,,,,,,,,,,,m,1,0.813,,,,,,,,0.888020833,-0.138020833,0,0,0,,0,73,73,44,1,BASKET,HB,m,m,./images/BASKETHB.png,,,,,,,,,,,,,,,,,,,,,,,,,,,,,,,,,,,
,,,,,,,,,,,,,,,,,6108295fdd0270d7544b5a8a,31,2022-02-12_12h37.08.082,lexical_decision_task_DD_L6,2021.2.3,Win32,60.0240096,,,,,,,,,,,0.87,1,,,,,,,,,,,,,,z,1,0.87,,,,,,,,0.888020833,-0.138020833,0,0,0,,0,74,74,165,1,TROWN,C,z,z,./images/TROWN.png,,,,,,,,,,,,,,,,,,,,,,,,,,,,,,,,,,,
,,,,,,,,,,,,,,,,,6108295fdd0270d7544b5a8a,31,2022-02-12_12h37.08.082,lexical_decision_task_DD_L6,2021.2.3,Win32,60.0240096,,,,,,,,,,,0.914,1,,,,,,,,,,,,,,m,1,0.914,,,,,,,,0.888020833,-0.138020833,0,0,0,,0,75,75,10,1,GARDEN,C,m,m,./images/GARDEN.png,,,,,,,,,,,,,,,,,,,,,,,,,,,,,,,,,,,
,,,,,,,,,,,,,,,,,6108295fdd0270d7544b5a8a,31,2022-02-12_12h37.08.082,lexical_decision_task_DD_L6,2021.2.3,Win32,60.0240096,,,,,,,,,,,0.65,1,,,,,,,,,,,,,,z,1,0.65,,,,,,,,0.888020833,-0.138020833,0,0,0,,0,76,76,126,1,GUELS,C,z,z,./images/GUELS.png,,,,,,,,,,,,,,,,,,,,,,,,,,,,,,,,,,,
,,,,,,,,,,,,,,,,,6108295fdd0270d7544b5a8a,31,2022-02-12_12h37.08.082,lexical_decision_task_DD_L6,2021.2.3,Win32,60.0240096,,,,,,,,,,,0.651,1,,,,,,,,,,,,,,z,1,0.651,,,,,,,,0.888020833,-0.138020833,0,0,0,,0,77,77,117,1,STEEG,C,z,z,./images/STEEG.png,,,,,,,,,,,,,,,,,,,,,,,,,,,,,,,,,,,
,,,,,,,,,,,,,,,,,6108295fdd0270d7544b5a8a,31,2022-02-12_12h37.08.082,lexical_decision_task_DD_L6,2021.2.3,Win32,60.0240096,,,,,,,,,,,0.681,1,,,,,,,,,,,,,,m,1,0.681,,,,,,,,0.888020833,-0.138020833,0,0,0,,0,78,78,76,1,MIDGET,C,m,m,./images/MIDGET.png,,,,,,,,,,,,,,,,,,,,,,,,,,,,,,,,,,,
,,,,,,,,,,,,,,,,,6108295fdd0270d7544b5a8a,31,2022-02-12_12h37.08.082,lexical_decision_task_DD_L6,2021.2.3,Win32,60.0240096,,,,,,,,,,,0.973,1,,,,,,,,,,,,,,z,1,0.973,,,,,,,,0.888020833,-0.138020833,0,0,0,,0,79,79,155,1,CANGY,LB,z,z,./images/CANGYLB.png,,,,,,,,,,,,,,,,,,,,,,,,,,,,,,,,,,,
,,,,,,,,,,,,,,,,,6108295fdd0270d7544b5a8a,31,2022-02-12_12h37.08.082,lexical_decision_task_DD_L6,2021.2.3,Win32,60.0240096,,,,,,,,,,,0.84,1,,,,,,,,,,,,,,z,1,0.84,,,,,,,,0.888020833,-0.138020833,0,0,0,,0,80,80,125,1,MOOKY,LB,z,z,./images/MOOKYLB.png,,,,,,,,,,,,,,,,,,,,,,,,,,,,,,,,,,,
,,,,,,,,,,,,,,,,,6108295fdd0270d7544b5a8a,31,2022-02-12_12h37.08.082,lexical_decision_task_DD_L6,2021.2.3,Win32,60.0240096,,,,,,,,,,,0.858,1,,,,,,,,,,,,,,m,1,0.858,,,,,,,,0.888020833,-0.138020833,0,0,0,,0,81,81,35,1,LLAMA,HB,m,m,./images/LLAMAHB.png,,,,,,,,,,,,,,,,,,,,,,,,,,,,,,,,,,,
,,,,,,,,,,,,,,,,,6108295fdd0270d7544b5a8a,31,2022-02-12_12h37.08.082,lexical_decision_task_DD_L6,2021.2.3,Win32,60.0240096,,,,,,,,,,,0.932,1,,,,,,,,,,,,,,z,1,0.932,,,,,,,,0.888020833,-0.138020833,0,0,0,,0,82,82,115,1,MAWNS,HB,z,z,./images/MAWNSHB.png,,,,,,,,,,,,,,,,,,,,,,,,,,,,,,,,,,,
,,,,,,,,,,,,,,,,,6108295fdd0270d7544b5a8a,31,2022-02-12_12h37.08.082,lexical_decision_task_DD_L6,2021.2.3,Win32,60.0240096,,,,,,,,,,,0.718,1,,,,,,,,,,,,,,m,1,0.718,,,,,,,,0.888020833,-0.138020833,0,0,0,space,0,83,83,34,1,RAZOR,C,m,m,./images/RAZOR.png,5.651,,,,,,,,,,,,,,,,,,,,,,,,,,,,,,,,,,
,,,,,,,,,,,,,,,,,6108295fdd0270d7544b5a8a,31,2022-02-12_12h37.08.082,lexical_decision_task_DD_L6,2021.2.3,Win32,60.0240096,,,,,,,,,,,0.715,1,,,,,,,,,,,,,,z,1,0.715,,,,,,,,0.888020833,-0.138020833,0,0,0,,0,84,84,84,1,HAXES,C,z,z,./images/HAXES.png,,,,,,,,,,,,,,,,,,,,,,,,,,,,,,,,,,,
,,,,,,,,,,,,,,,,,6108295fdd0270d7544b5a8a,31,2022-02-12_12h37.08.082,lexical_decision_task_DD_L6,2021.2.3,Win32,60.0240096,,,,,,,,,,,0.904,1,,,,,,,,,,,,,,z,1,0.904,,,,,,,,0.888020833,-0.138020833,0,0,0,,0,85,85,148,1,JOMS,HB,z,z,./images/JOMSHB.png,,,,,,,,,,,,,,,,,,,,,,,,,,,,,,,,,,,
,,,,,,,,,,,,,,,,,6108295fdd0270d7544b5a8a,31,2022-02-12_12h37.08.082,lexical_decision_task_DD_L6,2021.2.3,Win32,60.0240096,,,,,,,,,,,0.751,1,,,,,,,,,,,,,,z,1,0.751,,,,,,,,0.888020833,-0.138020833,0,0,0,,0,86,86,147,1,ZOLES,C,z,z,./images/ZOLES.png,,,,,,,,,,,,,,,,,,,,,,,,,,,,,,,,,,,
,,,,,,,,,,,,,,,,,6108295fdd0270d7544b5a8a,31,2022-02-12_12h37.08.082,lexical_decision_task_DD_L6,2021.2.3,Win32,60.0240096,,,,,,,,,,,0.756,1,,,,,,,,,,,,,,z,1,0.756,,,,,,,,0.888020833,-0.138020833,0,0,0,,0,87,87,121,1,CEERS,HB,z,z,./images/CEERSHB.png,,,,,,,,,,,,,,,,,,,,,,,,,,,,,,,,,,,
,,,,,,,,,,,,,,,,,6108295fdd0270d7544b5a8a,31,2022-02-12_12h37.08.082,lexical_decision_task_DD_L6,2021.2.3,Win32,60.0240096,,,,,,,,,,,0.562,1,,,,,,,,,,,,,,z,1,0.562,,,,,,,,0.888020833,-0.138020833,0,0,0,,0,88,88,135,1,JOODY,C,z,z,./images/JOODY.png,,,,,,,,,,,,,,,,,,,,,,,,,,,,,,,,,,,
,,,,,,,,,,,,,,,,,6108295fdd0270d7544b5a8a,31,2022-02-12_12h37.08.082,lexical_decision_task_DD_L6,2021.2.3,Win32,60.0240096,,,,,,,,,,,0.646,1,,,,,,,,,,,,,,m,1,0.646,,,,,,,,0.888020833,-0.138020833,0,0,0,,0,89,89,55,1,ALLEY,C,m,m,./images/ALLEY.png,,,,,,,,,,,,,,,,,,,,,,,,,,,,,,,,,,,
,,,,,,,,,,,,,,,,,6108295fdd0270d7544b5a8a,31,2022-02-12_12h37.08.082,lexical_decision_task_DD_L6,2021.2.3,Win32,60.0240096,,,,,,,,,,,0.927,1,,,,,,,,,,,,,,m,1,0.927,,,,,,,,0.888020833,-0.138020833,0,0,0,,0,90,90,80,1,PLANET,HB,m,m,./images/PLANETHB.png,,,,,,,,,,,,,,,,,,,,,,,,,,,,,,,,,,,
,,,,,,,,,,,,,,,,,6108295fdd0270d7544b5a8a,31,2022-02-12_12h37.08.082,lexical_decision_task_DD_L6,2021.2.3,Win32,60.0240096,,,,,,,,,,,0.712,1,,,,,,,,,,,,,,m,1,0.712,,,,,,,,0.888020833,-0.138020833,0,0,0,,0,91,91,5,1,BAMBOO,HB,m,m,./images/BAMBOOHB.png,,,,,,,,,,,,,,,,,,,,,,,,,,,,,,,,,,,
,,,,,,,,,,,,,,,,,6108295fdd0270d7544b5a8a,31,2022-02-12_12h37.08.082,lexical_decision_task_DD_L6,2021.2.3,Win32,60.0240096,,,,,,,,,,,1.143,1,,,,,,,,,,,,,,z,1,1.143,,,,,,,,0.888020833,-0.138020833,0,0,0,,0,92,92,132,1,SCIFF,C,z,z,./images/SCIFF.png,,,,,,,,,,,,,,,,,,,,,,,,,,,,,,,,,,,
,,,,,,,,,,,,,,,,,6108295fdd0270d7544b5a8a,31,2022-02-12_12h37.08.082,lexical_decision_task_DD_L6,2021.2.3,Win32,60.0240096,,,,,,,,,,,1.157,1,,,,,,,,,,,,,,z,1,1.157,,,,,,,,0.888020833,-0.138020833,0,0,0,,0,93,93,106,1,CLUMS,HB,z,z,./images/CLUMSHB.png,,,,,,,,,,,,,,,,,,,,,,,,,,,,,,,,,,,
,,,,,,,,,,,,,,,,,6108295fdd0270d7544b5a8a,31,2022-02-12_12h37.08.082,lexical_decision_task_DD_L6,2021.2.3,Win32,60.0240096,,,,,,,,,,,0.711,1,,,,,,,,,,,,,,m,1,0.711,,,,,,,,0.888020833,-0.138020833,0,0,0,,0,94,94,68,1,VALLEY,HB,m,m,./images/VALLEYHB.png,,,,,,,,,,,,,,,,,,,,,,,,,,,,,,,,,,,
,,,,,,,,,,,,,,,,,6108295fdd0270d7544b5a8a,31,2022-02-12_12h37.08.082,lexical_decision_task_DD_L6,2021.2.3,Win32,60.0240096,,,,,,,,,,,0.776,1,,,,,,,,,,,,,,z,1,0.776,,,,,,,,0.888020833,-0.138020833,0,0,0,,0,95,95,140,1,DOVET,LB,z,z,./images/DOVETLB.png,,,,,,,,,,,,,,,,,,,,,,,,,,,,,,,,,,,
,,,,,,,,,,,,,,,,,6108295fdd0270d7544b5a8a,31,2022-02-12_12h37.08.082,lexical_decision_task_DD_L6,2021.2.3,Win32,60.0240096,,,,,,,,,,,0.693,1,,,,,,,,,,,,,,m,1,0.693,,,,,,,,0.888020833,-0.138020833,0,0,0,,0,96,96,9,1,DIVER,LB,m,m,./images/DIVERLB.png,,,,,,,,,,,,,,,,,,,,,,,,,,,,,,,,,,,
,,,,,,,,,,,,,,,,,6108295fdd0270d7544b5a8a,31,2022-02-12_12h37.08.082,lexical_decision_task_DD_L6,2021.2.3,Win32,60.0240096,,,,,,,,,,,0.638,1,,,,,,,,,,,,,,m,1,0.638,,,,,,,,0.888020833,-0.138020833,0,0,0,,0,97,97,25,1,CHALK,C,m,m,./images/CHALK.png,,,,,,,,,,,,,,,,,,,,,,,,,,,,,,,,,,,
,,,,,,,,,,,,,,,,,6108295fdd0270d7544b5a8a,31,2022-02-12_12h37.08.082,lexical_decision_task_DD_L6,2021.2.3,Win32,60.0240096,,,,,,,,,,,0.648,1,,,,,,,,,,,,,,z,1,0.648,,,,,,,,0.888020833,-0.138020833,0,0,0,,0,98,98,144,1,NAIRY,C,z,z,./images/NAIRY.png,,,,,,,,,,,,,,,,,,,,,,,,,,,,,,,,,,,
,,,,,,,,,,,,,,,,,6108295fdd0270d7544b5a8a,31,2022-02-12_12h37.08.082,lexical_decision_task_DD_L6,2021.2.3,Win32,60.0240096,,,,,,,,,,,0.627,1,,,,,,,,,,,,,,m,1,0.627,,,,,,,,0.888020833,-0.138020833,0,0,0,,0,99,99,70,1,BANANA,C,m,m,./images/BANANA.png,,,,,,,,,,,,,,,,,,,,,,,,,,,,,,,,,,,
,,,,,,,,,,,,,,,,,6108295fdd0270d7544b5a8a,31,2022-02-12_12h37.08.082,lexical_decision_task_DD_L6,2021.2.3,Win32,60.0240096,,,,,,,,,,,0.797,1,,,,,,,,,,,,,,m,1,0.797,,,,,,,,0.888020833,-0.138020833,0,0,0,,0,100,100,62,1,MAMMAL,HB,m,m,./images/MAMMALHB.png,,,,,,,,,,,,,,,,,,,,,,,,,,,,,,,,,,,
,,,,,,,,,,,,,,,,,6108295fdd0270d7544b5a8a,31,2022-02-12_12h37.08.082,lexical_decision_task_DD_L6,2021.2.3,Win32,60.0240096,,,,,,,,,,,0.626,1,,,,,,,,,,,,,,z,1,0.626,,,,,,,,0.888020833,-0.138020833,0,0,0,,0,101,101,150,1,NOOLS,C,z,z,./images/NOOLS.png,,,,,,,,,,,,,,,,,,,,,,,,,,,,,,,,,,,
,,,,,,,,,,,,,,,,,6108295fdd0270d7544b5a8a,31,2022-02-12_12h37.08.082,lexical_decision_task_DD_L6,2021.2.3,Win32,60.0240096,,,,,,,,,,,0.675,1,,,,,,,,,,,,,,m,1,0.675,,,,,,,,0.888020833,-0.138020833,0,0,0,,0,102,102,0,1,WALNUT,LB,m,m,./images/WALNUTLB.png,,,,,,,,,,,,,,,,,,,,,,,,,,,,,,,,,,,
,,,,,,,,,,,,,,,,,6108295fdd0270d7544b5a8a,31,2022-02-12_12h37.08.082,lexical_decision_task_DD_L6,2021.2.3,Win32,60.0240096,,,,,,,,,,,0.632,1,,,,,,,,,,,,,,z,1,0.632,,,,,,,,0.888020833,-0.138020833,0,0,0,,0,103,103,98,1,BAMPS,LB,z,z,./images/BAMPSLB.png,,,,,,,,,,,,,,,,,,,,,,,,,,,,,,,,,,,
,,,,,,,,,,,,,,,,,6108295fdd0270d7544b5a8a,31,2022-02-12_12h37.08.082,lexical_decision_task_DD_L6,2021.2.3,Win32,60.0240096,,,,,,,,,,,0.67,1,,,,,,,,,,,,,,m,1,0.67,,,,,,,,0.888020833,-0.138020833,0,0,0,,0,104,104,19,1,DONKEY,C,m,m,./images/DONKEY.png,,,,,,,,,,,,,,,,,,,,,,,,,,,,,,,,,,,
,,,,,,,,,,,,,,,,,6108295fdd0270d7544b5a8a,31,2022-02-12_12h37.08.082,lexical_decision_task_DD_L6,2021.2.3,Win32,60.0240096,,,,,,,,,,,0.604,1,,,,,,,,,,,,,,m,1,0.604,,,,,,,,0.888020833,-0.138020833,0,0,0,,0,105,105,22,1,CLOWN,C,m,m,./images/CLOWN.png,,,,,,,,,,,,,,,,,,,,,,,,,,,,,,,,,,,
,,,,,,,,,,,,,,,,,6108295fdd0270d7544b5a8a,31,2022-02-12_12h37.08.082,lexical_decision_task_DD_L6,2021.2.3,Win32,60.0240096,,,,,,,,,,,0.783,1,,,,,,,,,,,,,,m,1,0.783,,,,,,,,0.888020833,-0.138020833,0,0,0,,0,106,106,59,1,BRUSH,HB,m,m,./images/BRUSHHB.png,,,,,,,,,,,,,,,,,,,,,,,,,,,,,,,,,,,
,,,,,,,,,,,,,,,,,6108295fdd0270d7544b5a8a,31,2022-02-12_12h37.08.082,lexical_decision_task_DD_L6,2021.2.3,Win32,60.0240096,,,,,,,,,,,0.892,1,,,,,,,,,,,,,,z,1,0.892,,,,,,,,0.888020833,-0.138020833,0,0,0,,0,107,107,94,1,BLANS,HB,z,z,./images/BLANSHB.png,,,,,,,,,,,,,,,,,,,,,,,,,,,,,,,,,,,
,,,,,,,,,,,,,,,,,6108295fdd0270d7544b5a8a,31,2022-02-12_12h37.08.082,lexical_decision_task_DD_L6,2021.2.3,Win32,60.0240096,,,,,,,,,,,0.687,1,,,,,,,,,,,,,,z,1,0.687,,,,,,,,0.888020833,-0.138020833,0,0,0,,0,108,108,164,1,SGREW,LB,z,z,./images/SGREWLB.png,,,,,,,,,,,,,,,,,,,,,,,,,,,,,,,,,,,
,,,,,,,,,,,,,,,,,6108295fdd0270d7544b5a8a,31,2022-02-12_12h37.08.082,lexical_decision_task_DD_L6,2021.2.3,Win32,60.0240096,,,,,,,,,,,0.657,1,,,,,,,,,,,,,,m,1,0.657,,,,,,,,0.888020833,-0.138020833,0,0,0,,0,109,109,48,1,SHIELD,LB,m,m,./images/SHIELDLB.png,,,,,,,,,,,,,,,,,,,,,,,,,,,,,,,,,,,
,,,,,,,,,,,,,,,,,6108295fdd0270d7544b5a8a,31,2022-02-12_12h37.08.082,lexical_decision_task_DD_L6,2021.2.3,Win32,60.0240096,,,,,,,,,,,0.74,1,,,,,,,,,,,,,,z,1,0.74,,,,,,,,0.888020833,-0.138020833,0,0,0,,0,110,110,107,1,FASKS,LB,z,z,./images/FASKSLB.png,,,,,,,,,,,,,,,,,,,,,,,,,,,,,,,,,,,
,,,,,,,,,,,,,,,,,6108295fdd0270d7544b5a8a,31,2022-02-12_12h37.08.082,lexical_decision_task_DD_L6,2021.2.3,Win32,60.0240096,,,,,,,,,,,0.759,1,,,,,,,,,,,,,,z,1,0.759,,,,,,,,0.888020833,-0.138020833,0,0,0,,0,111,111,124,1,TUNCH,HB,z,z,./images/TUNCHHB.png,,,,,,,,,,,,,,,,,,,,,,,,,,,,,,,,,,,
,,,,,,,,,,,,,,,,,6108295fdd0270d7544b5a8a,31,2022-02-12_12h37.08.082,lexical_decision_task_DD_L6,2021.2.3,Win32,60.0240096,,,,,,,,,,,0.622,1,,,,,,,,,,,,,,m,1,0.622,,,,,,,,0.888020833,-0.138020833,0,0,0,,0,112,112,6,1,STAIN,LB,m,m,./images/STAINLB.png,,,,,,,,,,,,,,,,,,,,,,,,,,,,,,,,,,,
,,,,,,,,,,,,,,,,,6108295fdd0270d7544b5a8a,31,2022-02-12_12h37.08.082,lexical_decision_task_DD_L6,2021.2.3,Win32,60.0240096,,,,,,,,,,,0.564,1,,,,,,,,,,,,,,z,1,0.564,,,,,,,,0.888020833,-0.138020833,0,0,0,,0,113,113,96,1,KEAMS,C,z,z,./images/KEAMS.png,,,,,,,,,,,,,,,,,,,,,,,,,,,,,,,,,,,
,,,,,,,,,,,,,,,,,6108295fdd0270d7544b5a8a,31,2022-02-12_12h37.08.082,lexical_decision_task_DD_L6,2021.2.3,Win32,60.0240096,,,,,,,,,,,0.702,1,,,,,,,,,,,,,,m,1,0.702,,,,,,,,0.888020833,-0.138020833,0,0,0,,0,114,114,53,1,POSTER,HB,m,m,./images/POSTERHB.png,,,,,,,,,,,,,,,,,,,,,,,,,,,,,,,,,,,
,,,,,,,,,,,,,,,,,6108295fdd0270d7544b5a8a,31,2022-02-12_12h37.08.082,lexical_decision_task_DD_L6,2021.2.3,Win32,60.0240096,,,,,,,,,,,0.64,1,,,,,,,,,,,,,,m,1,0.64,,,,,,,,0.888020833,-0.138020833,0,0,0,,0,115,115,66,1,STATUE,LB,m,m,./images/STATUELB.png,,,,,,,,,,,,,,,,,,,,,,,,,,,,,,,,,,,
,,,,,,,,,,,,,,,,,6108295fdd0270d7544b5a8a,31,2022-02-12_12h37.08.082,lexical_decision_task_DD_L6,2021.2.3,Win32,60.0240096,,,,,,,,,,,0.637,1,,,,,,,,,,,,,,z,1,0.637,,,,,,,,0.888020833,-0.138020833,0,0,0,,0,116,116,86,1,AIFED,LB,z,z,./images/AIFEDLB.png,,,,,,,,,,,,,,,,,,,,,,,,,,,,,,,,,,,
,,,,,,,,,,,,,,,,,6108295fdd0270d7544b5a8a,31,2022-02-12_12h37.08.082,lexical_decision_task_DD_L6,2021.2.3,Win32,60.0240096,,,,,,,,,,,0.589,1,,,,,,,,,,,,,,z,1,0.589,,,,,,,,0.888020833,-0.138020833,0,0,0,,0,117,117,116,1,BALGY,LB,z,z,./images/BALGYLB.png,,,,,,,,,,,,,,,,,,,,,,,,,,,,,,,,,,,
,,,,,,,,,,,,,,,,,6108295fdd0270d7544b5a8a,31,2022-02-12_12h37.08.082,lexical_decision_task_DD_L6,2021.2.3,Win32,60.0240096,,,,,,,,,,,0.819,1,,,,,,,,,,,,,,m,1,0.819,,,,,,,,0.888020833,-0.138020833,0,0,0,,0,118,118,11,1,MEDAL,HB,m,m,./images/MEDALHB.png,,,,,,,,,,,,,,,,,,,,,,,,,,,,,,,,,,,
,,,,,,,,,,,,,,,,,6108295fdd0270d7544b5a8a,31,2022-02-12_12h37.08.082,lexical_decision_task_DD_L6,2021.2.3,Win32,60.0240096,,,,,,,,,,,0.863,1,,,,,,,,,,,,,,z,1,0.863,,,,,,,,0.888020833,-0.138020833,0,0,0,,0,119,119,160,1,VEETS,HB,z,z,./images/VEETSHB.png,,,,,,,,,,,,,,,,,,,,,,,,,,,,,,,,,,,
,,,,,,,,,,,,,,,,,6108295fdd0270d7544b5a8a,31,2022-02-12_12h37.08.082,lexical_decision_task_DD_L6,2021.2.3,Win32,60.0240096,,,,,,,,,,,0.777,1,,,,,,,,,,,,,,z,1,0.777,,,,,,,,0.888020833,-0.138020833,0,0,0,,0,120,120,127,1,NINDY,HB,z,z,./images/NINDYHB.png,,,,,,,,,,,,,,,,,,,,,,,,,,,,,,,,,,,
,,,,,,,,,,,,,,,,,6108295fdd0270d7544b5a8a,31,2022-02-12_12h37.08.082,lexical_decision_task_DD_L6,2021.2.3,Win32,60.0240096,,,,,,,,,,,0.591,1,,,,,,,,,,,,,,m,1,0.591,,,,,,,,0.888020833,-0.138020833,0,0,0,,0,121,121,78,1,BROOM,LB,m,m,./images/BROOMLB.png,,,,,,,,,,,,,,,,,,,,,,,,,,,,,,,,,,,
,,,,,,,,,,,,,,,,,6108295fdd0270d7544b5a8a,31,2022-02-12_12h37.08.082,lexical_decision_task_DD_L6,2021.2.3,Win32,60.0240096,,,,,,,,,,,0.651,1,,,,,,,,,,,,,,z,1,0.651,,,,,,,,0.888020833,-0.138020833,0,0,0,,0,122,122,138,1,PLICE,C,z,z,./images/PLICE.png,,,,,,,,,,,,,,,,,,,,,,,,,,,,,,,,,,,
,,,,,,,,,,,,,,,,,6108295fdd0270d7544b5a8a,31,2022-02-12_12h37.08.082,lexical_decision_task_DD_L6,2021.2.3,Win32,60.0240096,,,,,,,,,,,0.671,1,,,,,,,,,,,,,,m,1,0.671,,,,,,,,0.888020833,-0.138020833,0,0,0,,0,123,123,24,1,FLESH,LB,m,m,./images/FLESHLB.png,,,,,,,,,,,,,,,,,,,,,,,,,,,,,,,,,,,
,,,,,,,,,,,,,,,,,6108295fdd0270d7544b5a8a,31,2022-02-12_12h37.08.082,lexical_decision_task_DD_L6,2021.2.3,Win32,60.0240096,,,,,,,,,,,0.764,1,,,,,,,,,,,,,,z,1,0.764,,,,,,,,0.888020833,-0.138020833,0,0,0,,0,124,124,119,1,PAFER,LB,z,z,./images/PAFERLB.png,,,,,,,,,,,,,,,,,,,,,,,,,,,,,,,,,,,
,,,,,,,,,,,,,,,,,6108295fdd0270d7544b5a8a,31,2022-02-12_12h37.08.082,lexical_decision_task_DD_L6,2021.2.3,Win32,60.0240096,,,,,,,,,,,0.744,1,,,,,,,,,,,,,,m,1,0.744,,,,,,,,0.888020833,-0.138020833,0,0,0,space,0,125,125,79,1,RULER,C,m,m,./images/RULER.png,3.184,,,,,,,,,,,,,,,,,,,,,,,,,,,,,,,,,,
,,,,,,,,,,,,,,,,,6108295fdd0270d7544b5a8a,31,2022-02-12_12h37.08.082,lexical_decision_task_DD_L6,2021.2.3,Win32,60.0240096,,,,,,,,,,,0.713,1,,,,,,,,,,,,,,m,1,0.713,,,,,,,,0.888020833,-0.138020833,0,0,0,,0,126,126,2,1,STOVE,HB,m,m,./images/STOVEHB.png,,,,,,,,,,,,,,,,,,,,,,,,,,,,,,,,,,,
,,,,,,,,,,,,,,,,,6108295fdd0270d7544b5a8a,31,2022-02-12_12h37.08.082,lexical_decision_task_DD_L6,2021.2.3,Win32,60.0240096,,,,,,,,,,,0.543,1,,,,,,,,,,,,,,m,1,0.543,,,,,,,,0.888020833,-0.138020833,0,0,0,,0,127,127,40,1,SNAKE,C,m,m,./images/SNAKE.png,,,,,,,,,,,,,,,,,,,,,,,,,,,,,,,,,,,
,,,,,,,,,,,,,,,,,6108295fdd0270d7544b5a8a,31,2022-02-12_12h37.08.082,lexical_decision_task_DD_L6,2021.2.3,Win32,60.0240096,,,,,,,,,,,0.756,1,,,,,,,,,,,,,,z,1,0.756,,,,,,,,0.888020833,-0.138020833,0,0,0,,0,128,128,109,1,BURGE,HB,z,z,./images/BURGEHB.png,,,,,,,,,,,,,,,,,,,,,,,,,,,,,,,,,,,
,,,,,,,,,,,,,,,,,6108295fdd0270d7544b5a8a,31,2022-02-12_12h37.08.082,lexical_decision_task_DD_L6,2021.2.3,Win32,60.0240096,,,,,,,,,,,0.77,1,,,,,,,,,,,,,,z,1,0.77,,,,,,,,0.888020833,-0.138020833,0,0,0,,0,129,129,110,1,CRUNK,LB,z,z,./images/CRUNKLB.png,,,,,,,,,,,,,,,,,,,,,,,,,,,,,,,,,,,
,,,,,,,,,,,,,,,,,6108295fdd0270d7544b5a8a,31,2022-02-12_12h37.08.082,lexical_decision_task_DD_L6,2021.2.3,Win32,60.0240096,,,,,,,,,,,0.713,1,,,,,,,,,,,,,,z,1,0.713,,,,,,,,0.888020833,-0.138020833,0,0,0,,0,130,130,92,1,PAIMS,LB,z,z,./images/PAIMSLB.png,,,,,,,,,,,,,,,,,,,,,,,,,,,,,,,,,,,
,,,,,,,,,,,,,,,,,6108295fdd0270d7544b5a8a,31,2022-02-12_12h37.08.082,lexical_decision_task_DD_L6,2021.2.3,Win32,60.0240096,,,,,,,,,,,0.612,1,,,,,,,,,,,,,,m,1,0.612,,,,,,,,0.888020833,-0.138020833,0,0,0,,0,131,131,43,1,STOOL,C,m,m,./images/STOOL.png,,,,,,,,,,,,,,,,,,,,,,,,,,,,,,,,,,,
,,,,,,,,,,,,,,,,,6108295fdd0270d7544b5a8a,31,2022-02-12_12h37.08.082,lexical_decision_task_DD_L6,2021.2.3,Win32,60.0240096,,,,,,,,,,,0.583,1,,,,,,,,,,,,,,m,1,0.583,,,,,,,,0.888020833,-0.138020833,0,0,0,,0,132,132,28,1,CASINO,C,m,m,./images/CASINO.png,,,,,,,,,,,,,,,,,,,,,,,,,,,,,,,,,,,
,,,,,,,,,,,,,,,,,6108295fdd0270d7544b5a8a,31,2022-02-12_12h37.08.082,lexical_decision_task_DD_L6,2021.2.3,Win32,60.0240096,,,,,,,,,,,0.613,1,,,,,,,,,,,,,,z,1,0.613,,,,,,,,0.888020833,-0.138020833,0,0,0,,0,133,133,105,1,MOKER,C,z,z,./images/MOKER.png,,,,,,,,,,,,,,,,,,,,,,,,,,,,,,,,,,,
,,,,,,,,,,,,,,,,,6108295fdd0270d7544b5a8a,31,2022-02-12_12h37.08.082,lexical_decision_task_DD_L6,2021.2.3,Win32,60.0240096,,,,,,,,,,,0.541,1,,,,,,,,,,,,,,m,1,0.541,,,,,,,,0.888020833,-0.138020833,0,0,0,,0,134,134,37,1,TIGER,C,m,m,./images/TIGER.png,,,,,,,,,,,,,,,,,,,,,,,,,,,,,,,,,,,
,,,,,,,,,,,,,,,,,6108295fdd0270d7544b5a8a,31,2022-02-12_12h37.08.082,lexical_decision_task_DD_L6,2021.2.3,Win32,60.0240096,,,,,,,,,,,0.589,1,,,,,,,,,,,,,,z,1,0.589,,,,,,,,0.888020833,-0.138020833,0,0,0,,0,135,135,134,1,TROSS,LB,z,z,./images/TROSSLB.png,,,,,,,,,,,,,,,,,,,,,,,,,,,,,,,,,,,
,,,,,,,,,,,,,,,,,6108295fdd0270d7544b5a8a,31,2022-02-12_12h37.08.082,lexical_decision_task_DD_L6,2021.2.3,Win32,60.0240096,,,,,,,,,,,0.551,1,,,,,,,,,,,,,,z,1,0.551,,,,,,,,0.888020833,-0.138020833,0,0,0,,0,136,136,156,1,HIXES,C,z,z,./images/HIXES.png,,,,,,,,,,,,,,,,,,,,,,,,,,,,,,,,,,,
,,,,,,,,,,,,,,,,,6108295fdd0270d7544b5a8a,31,2022-02-12_12h37.08.082,lexical_decision_task_DD_L6,2021.2.3,Win32,60.0240096,,,,,,,,,,,0.754,1,,,,,,,,,,,,,,m,1,0.754,,,,,,,,0.888020833,-0.138020833,0,0,0,,0,137,137,29,1,PISTOL,HB,m,m,./images/PISTOLHB.png,,,,,,,,,,,,,,,,,,,,,,,,,,,,,,,,,,,
,,,,,,,,,,,,,,,,,6108295fdd0270d7544b5a8a,31,2022-02-12_12h37.08.082,lexical_decision_task_DD_L6,2021.2.3,Win32,60.0240096,,,,,,,,,,,0.637,1,,,,,,,,,,,,,,z,1,0.637,,,,,,,,0.888020833,-0.138020833,0,0,0,,0,138,138,153,1,CLUPS,C,z,z,./images/CLUPS.png,,,,,,,,,,,,,,,,,,,,,,,,,,,,,,,,,,,
,,,,,,,,,,,,,,,,,6108295fdd0270d7544b5a8a,31,2022-02-12_12h37.08.082,lexical_decision_task_DD_L6,2021.2.3,Win32,60.0240096,,,,,,,,,,,0.591,1,,,,,,,,,,,,,,z,1,0.591,,,,,,,,0.888020833,-0.138020833,0,0,0,,0,139,139,159,1,CUDDY,C,z,z,./images/CUDDY.png,,,,,,,,,,,,,,,,,,,,,,,,,,,,,,,,,,,
,,,,,,,,,,,,,,,,,6108295fdd0270d7544b5a8a,31,2022-02-12_12h37.08.082,lexical_decision_task_DD_L6,2021.2.3,Win32,60.0240096,,,,,,,,,,,0.639,1,,,,,,,,,,,,,,m,1,0.639,,,,,,,,0.888020833,-0.138020833,0,0,0,,0,140,140,49,1,BISHOP,C,m,m,./images/BISHOP.png,,,,,,,,,,,,,,,,,,,,,,,,,,,,,,,,,,,
,,,,,,,,,,,,,,,,,6108295fdd0270d7544b5a8a,31,2022-02-12_12h37.08.082,lexical_decision_task_DD_L6,2021.2.3,Win32,60.0240096,,,,,,,,,,,0.595,1,,,,,,,,,,,,,,m,1,0.595,,,,,,,,0.888020833,-0.138020833,0,0,0,,0,141,141,31,1,STEAK,C,m,m,./images/STEAK.png,,,,,,,,,,,,,,,,,,,,,,,,,,,,,,,,,,,
,,,,,,,,,,,,,,,,,6108295fdd0270d7544b5a8a,31,2022-02-12_12h37.08.082,lexical_decision_task_DD_L6,2021.2.3,Win32,60.0240096,,,,,,,,,,,0.596,1,,,,,,,,,,,,,,m,1,0.596,,,,,,,,0.888020833,-0.138020833,0,0,0,,0,142,142,4,1,BOXER,C,m,m,./images/BOXER.png,,,,,,,,,,,,,,,,,,,,,,,,,,,,,,,,,,,
,,,,,,,,,,,,,,,,,6108295fdd0270d7544b5a8a,31,2022-02-12_12h37.08.082,lexical_decision_task_DD_L6,2021.2.3,Win32,60.0240096,,,,,,,,,,,0.699,1,,,,,,,,,,,,,,m,1,0.699,,,,,,,,0.888020833,-0.138020833,0,0,0,,0,143,143,23,1,CLOTH,HB,m,m,./images/CLOTHHB.png,,,,,,,,,,,,,,,,,,,,,,,,,,,,,,,,,,,
,,,,,,,,,,,,,,,,,6108295fdd0270d7544b5a8a,31,2022-02-12_12h37.08.082,lexical_decision_task_DD_L6,2021.2.3,Win32,60.0240096,,,,,,,,,,,0.913,1,,,,,,,,,,,,,,m,1,0.913,,,,,,,,0.888020833,-0.138020833,0,0,0,,0,144,144,20,1,GRANNY,HB,m,m,./images/GRANNYHB.png,,,,,,,,,,,,,,,,,,,,,,,,,,,,,,,,,,,
,,,,,,,,,,,,,,,,,6108295fdd0270d7544b5a8a,31,2022-02-12_12h37.08.082,lexical_decision_task_DD_L6,2021.2.3,Win32,60.0240096,,,,,,,,,,,1.012,1,,,,,,,,,,,,,,z,1,1.012,,,,,,,,0.888020833,-0.138020833,0,0,0,,0,145,145,130,1,CRILL,HB,z,z,./images/CRILLHB.png,,,,,,,,,,,,,,,,,,,,,,,,,,,,,,,,,,,
,,,,,,,,,,,,,,,,,6108295fdd0270d7544b5a8a,31,2022-02-12_12h37.08.082,lexical_decision_task_DD_L6,2021.2.3,Win32,60.0240096,,,,,,,,,,,0.84,1,,,,,,,,,,,,,,z,1,0.84,,,,,,,,0.888020833,-0.138020833,0,0,0,,0,146,146,122,1,BLOOT,LB,z,z,./images/BLOOTLB.png,,,,,,,,,,,,,,,,,,,,,,,,,,,,,,,,,,,
,,,,,,,,,,,,,,,,,6108295fdd0270d7544b5a8a,31,2022-02-12_12h37.08.082,lexical_decision_task_DD_L6,2021.2.3,Win32,60.0240096,,,,,,,,,,,0.99,1,,,,,,,,,,,,,,m,1,0.99,,,,,,,,0.888020833,-0.138020833,0,0,0,,0,147,147,52,1,DESERT,C,m,m,./images/DESERT.png,,,,,,,,,,,,,,,,,,,,,,,,,,,,,,,,,,,
,,,,,,,,,,,,,,,,,6108295fdd0270d7544b5a8a,31,2022-02-12_12h37.08.082,lexical_decision_task_DD_L6,2021.2.3,Win32,60.0240096,,,,,,,,,,,0.548,1,,,,,,,,,,,,,,m,1,0.548,,,,,,,,0.888020833,-0.138020833,0,0,0,,0,148,148,27,1,BUTTER,LB,m,m,./images/BUTTERLB.png,,,,,,,,,,,,,,,,,,,,,,,,,,,,,,,,,,,
,,,,,,,,,,,,,,,,,6108295fdd0270d7544b5a8a,31,2022-02-12_12h37.08.082,lexical_decision_task_DD_L6,2021.2.3,Win32,60.0240096,,,,,,,,,,,0.642,1,,,,,,,,,,,,,,m,1,0.642,,,,,,,,0.888020833,-0.138020833,0,0,0,,0,149,149,12,1,BLOKE,LB,m,m,./images/BLOKELB.png,,,,,,,,,,,,,,,,,,,,,,,,,,,,,,,,,,,
,,,,,,,,,,,,,,,,,6108295fdd0270d7544b5a8a,31,2022-02-12_12h37.08.082,lexical_decision_task_DD_L6,2021.2.3,Win32,60.0240096,,,,,,,,,,,0.801,1,,,,,,,,,,,,,,z,1,0.801,,,,,,,,0.888020833,-0.138020833,0,0,0,,0,150,150,158,1,EGECT,LB,z,z,./images/EGECTLB.png,,,,,,,,,,,,,,,,,,,,,,,,,,,,,,,,,,,
,,,,,,,,,,,,,,,,,6108295fdd0270d7544b5a8a,31,2022-02-12_12h37.08.082,lexical_decision_task_DD_L6,2021.2.3,Win32,60.0240096,,,,,,,,,,,0.63,1,,,,,,,,,,,,,,z,1,0.63,,,,,,,,0.888020833,-0.138020833,0,0,0,,0,151,151,87,1,TRING,C,z,z,./images/TRING.png,,,,,,,,,,,,,,,,,,,,,,,,,,,,,,,,,,,
,,,,,,,,,,,,,,,,,6108295fdd0270d7544b5a8a,31,2022-02-12_12h37.08.082,lexical_decision_task_DD_L6,2021.2.3,Win32,60.0240096,,,,,,,,,,,0.724,0,,,,,,,,,,,,,,m,0,0.724,,,,,,,,0.888020833,-0.138020833,0,0,0,,0,152,152,142,1,PLASK,HB,z,z,./images/PLASKHB.png,,,,,,,,,,,,,,,,,,,,,,,,,,,,,,,,,,,
,,,,,,,,,,,,,,,,,6108295fdd0270d7544b5a8a,31,2022-02-12_12h37.08.082,lexical_decision_task_DD_L6,2021.2.3,Win32,60.0240096,,,,,,,,,,,0.832,1,,,,,,,,,,,,,,z,1,0.832,,,,,,,,0.888020833,-0.138020833,0,0,0,,0,153,153,133,1,POWDY,HB,z,z,./images/POWDYHB.png,,,,,,,,,,,,,,,,,,,,,,,,,,,,,,,,,,,
,,,,,,,,,,,,,,,,,6108295fdd0270d7544b5a8a,31,2022-02-12_12h37.08.082,lexical_decision_task_DD_L6,2021.2.3,Win32,60.0240096,,,,,,,,,,,0.899,1,,,,,,,,,,,,,,m,1,0.899,,,,,,,,0.888020833,-0.138020833,0,0,0,,0,154,154,14,1,FENCE,HB,m,m,./images/FENCEHB.png,,,,,,,,,,,,,,,,,,,,,,,,,,,,,,,,,,,
,,,,,,,,,,,,,,,,,6108295fdd0270d7544b5a8a,31,2022-02-12_12h37.08.082,lexical_decision_task_DD_L6,2021.2.3,Win32,60.0240096,,,,,,,,,,,0.726,1,,,,,,,,,,,,,,m,1,0.726,,,,,,,,0.888020833,-0.138020833,0,0,0,,0,155,155,17,1,PARADE,HB,m,m,./images/PARADEHB.png,,,,,,,,,,,,,,,,,,,,,,,,,,,,,,,,,,,
,,,,,,,,,,,,,,,,,6108295fdd0270d7544b5a8a,31,2022-02-12_12h37.08.082,lexical_decision_task_DD_L6,2021.2.3,Win32,60.0240096,,,,,,,,,,,1.107,1,,,,,,,,,,,,,,z,1,1.107,,,,,,,,0.888020833,-0.138020833,0,0,0,,0,156,156,111,1,HOSSE,C,z,z,./images/HOSSE.png,,,,,,,,,,,,,,,,,,,,,,,,,,,,,,,,,,,
,,,,,,,,,,,,,,,,,6108295fdd0270d7544b5a8a,31,2022-02-12_12h37.08.082,lexical_decision_task_DD_L6,2021.2.3,Win32,60.0240096,,,,,,,,,,,0.984,1,,,,,,,,,,,,,,z,1,0.984,,,,,,,,0.888020833,-0.138020833,0,0,0,,0,157,157,163,1,GAMBA,HB,z,z,./images/GAMBAHB.png,,,,,,,,,,,,,,,,,,,,,,,,,,,,,,,,,,,
,,,,,,,,,,,,,,,,,6108295fdd0270d7544b5a8a,31,2022-02-12_12h37.08.082,lexical_decision_task_DD_L6,2021.2.3,Win32,60.0240096,,,,,,,,,,,0.956,1,,,,,,,,,,,,,,m,1,0.956,,,,,,,,0.888020833,-0.138020833,0,0,0,,0,158,158,18,1,PARCEL,LB,m,m,./images/PARCELLB.png,,,,,,,,,,,,,,,,,,,,,,,,,,,,,,,,,,,
,,,,,,,,,,,,,,,,,6108295fdd0270d7544b5a8a,31,2022-02-12_12h37.08.082,lexical_decision_task_DD_L6,2021.2.3,Win32,60.0240096,,,,,,,,,,,0.627,1,,,,,,,,,,,,,,m,1,0.627,,,,,,,,0.888020833,-0.138020833,0,0,0,,0,159,159,42,1,CHAIN,LB,m,m,./images/CHAINLB.png,,,,,,,,,,,,,,,,,,,,,,,,,,,,,,,,,,,
,,,,,,,,,,,,,,,,,6108295fdd0270d7544b5a8a,31,2022-02-12_12h37.08.082,lexical_decision_task_DD_L6,2021.2.3,Win32,60.0240096,,,,,,,,,,,0.598,1,,,,,,,,,,,,,,m,1,0.598,,,,,,,,0.888020833,-0.138020833,0,0,0,,0,160,160,82,1,PEBBLE,C,m,m,./images/PEBBLE.png,,,,,,,,,,,,,,,,,,,,,,,,,,,,,,,,,,,
,,,,,,,,,,,,,,,,,6108295fdd0270d7544b5a8a,31,2022-02-12_12h37.08.082,lexical_decision_task_DD_L6,2021.2.3,Win32,60.0240096,,,,,,,,,,,1.188,1,,,,,,,,,,,,,,z,1,1.188,,,,,,,,0.888020833,-0.138020833,0,0,0,,0,161,161,88,1,GLUSH,HB,z,z,./images/GLUSHHB.png,,,,,,,,,,,,,,,,,,,,,,,,,,,,,,,,,,,
,,,,,,,,,,,,,,,,,6108295fdd0270d7544b5a8a,31,2022-02-12_12h37.08.082,lexical_decision_task_DD_L6,2021.2.3,Win32,60.0240096,,,,,,,,,,,0.572,1,,,,,,,,,,,,,,m,1,0.572,,,,,,,,0.888020833,-0.138020833,0,0,0,,0,162,162,16,1,GRAPE,C,m,m,./images/GRAPE.png,,,,,,,,,,,,,,,,,,,,,,,,,,,,,,,,,,,
,,,,,,,,,,,,,,,,,6108295fdd0270d7544b5a8a,31,2022-02-12_12h37.08.082,lexical_decision_task_DD_L6,2021.2.3,Win32,60.0240096,,,,,,,,,,,0.617,1,,,,,,,,,,,,,,m,1,0.617,,,,,,,,0.888020833,-0.138020833,0,0,0,,0,163,163,54,1,CHERRY,LB,m,m,./images/CHERRYLB.png,,,,,,,,,,,,,,,,,,,,,,,,,,,,,,,,,,,
,,,,,,,,,,,,,,,,,6108295fdd0270d7544b5a8a,31,2022-02-12_12h37.08.082,lexical_decision_task_DD_L6,2021.2.3,Win32,60.0240096,,,,,,,,,,,0.651,1,,,,,,,,,,,,,,z,1,0.651,,,,,,,,0.888020833,-0.138020833,0,0,0,,0,164,164,93,1,SMONE,C,z,z,./images/SMONE.png,,,,,,,,,,,,,,,,,,,,,,,,,,,,,,,,,,,
,,,,,,,,,,,,,,,,,6108295fdd0270d7544b5a8a,31,2022-02-12_12h37.08.082,lexical_decision_task_DD_L6,2021.2.3,Win32,60.0240096,,,,,,,,,,,0.597,1,,,,,,,,,,,,,,z,1,0.597,,,,,,,,0.888020833,-0.138020833,0,0,0,,0,165,165,101,1,GLEET,LB,z,z,./images/GLEETLB.png,,,,,,,,,,,,,,,,,,,,,,,,,,,,,,,,,,,
,,,,,,,,,,,,,,,,,6108295fdd0270d7544b5a8a,31,2022-02-12_12h37.08.082,lexical_decision_task_DD_L6,2021.2.3,Win32,60.0240096,,,,,,,,,,,0.599,1,,,,,,,,,,,,,,m,1,0.599,,,,,,,,0.888020833,-0.138020833,0,0,0,,0,166,166,75,1,HAMMER,LB,m,m,./images/HAMMERLB.png,,,,,,,,,,,,,,,,,,,,,,,,,,,,,,,,,,,
,,,,,,,,,,,,,,,,,6108295fdd0270d7544b5a8a,31,2022-02-12_12h37.08.082,lexical_decision_task_DD_L6,2021.2.3,Win32,60.0240096,,,,,,,,,,,0.61,1,,,,,,,,,,,,,,m,1,0.61,,,,,,,,0.888020833,-0.138020833,0,0,0,,0,167,167,81,1,DRILL,LB,m,m,./images/DRILLLB.png,,,,,,,,,,,,,,,,,,,,,,,,,,,,,,,,,,,
,,,,,,,,,,,,,,,,,6108295fdd0270d7544b5a8a,31,2022-02-12_12h37.08.082,lexical_decision_task_DD_L6,2021.2.3,Win32,60.0240096,,,,,,,,,,,,,,,,,,,,,,,,,,,,,,,,,,,,,,,,,,,,,,,,How likely will it be that you will recognize the words presented very blurred on a scale of 0 (not likely) to 100 (most likely)?,,,,,0.009114583,-0.4296875,1,0,0,jol_adv,2,6.538,0,0,0,2,1,,,,,,,,,,,,,,,,,,,,,
,,,,,,,,,,,,,,,,,6108295fdd0270d7544b5a8a,31,2022-02-12_12h37.08.082,lexical_decision_task_DD_L6,2021.2.3,Win32,60.0240096,,,,,,,,,,,,,,,,,,,,,,,,,,,,,,,,,,,,,,,,,,,,,,,,How likely will it be that you will recognize the words presented slighly blurred on a scale of 0 (not likely) to 100 (most likely)?,,,,,,,,,,,3,5.518,0,1,1,1,1,,,,,,,,,,,,,,,,,,,,,
,,,,,,,,,,,,,,,,,6108295fdd0270d7544b5a8a,31,2022-02-12_12h37.08.082,lexical_decision_task_DD_L6,2021.2.3,Win32,60.0240096,,,,,,,,,,,,,,,,,,,,,,,,,,,,,,,,,,,,,,,,,,,,,,,,How likely will it be that you will recognize the words presented clearly on a scale of 0 (not likely) to 100 (most likely)?,,,,,,,,,,,4,3.337,0,2,2,0,1,,,,,,,,,,,,,,,,,,,,,
,,0.009114583,-0.390625,1,0,0,,,,,,1,test,"In the next phase you will be presented with the words from the the first phase. Your job is to decide whether you remember seeing the word or not. If you remember seeing the word press ""old"" or type ""m"". If you do not remember seeing the word press ""new"" or type ""z"". Please press the space bar or click on continue to begin. ",,,6108295fdd0270d7544b5a8a,31,2022-02-12_12h37.08.082,lexical_decision_task_DD_L6,2021.2.3,Win32,60.0240096,,,,,,,,,,,,,,,,,,,,,,,,,,,,,,,,,,,,,,,,,,,,,,,,,,,,,,,,,,,,,,,,,,instr_done_button,0,0,0,0,1,,,,,,,,,,,,,,,
space,2.823,0.817708333,-0.229166667,0,0,0,,,,,,1,test,"In the next phase you will be presented with the words from the the first phase. Your job is to decide whether you remember seeing the word or not. If you remember seeing the word press ""old"" or type ""m"". If you do not remember seeing the word press ""new"" or type ""z"". Please press the space bar or click on continue to begin. ",,,6108295fdd0270d7544b5a8a,31,2022-02-12_12h37.08.082,lexical_decision_task_DD_L6,2021.2.3,Win32,60.0240096,,,,,,,,,,,,,,,,,,,,,,,,,,,,,,,,,,,,,,,,,,,,,,,,,,,,,,,,,,,,,,,,,,,1,0,1,0,1,,,,,,,,,,,,,,,
,,0,-0.408854167,1,0,0,,,,,,1,test,"In the next phase you will be presented with the words from the the first phase. Your job is to decide whether you remember seeing the word or not. If you remember seeing the word press ""old"" or type ""m"". If you do not remember seeing the word press ""new"" or type ""z"". Please press the space bar or click on continue to begin. ",,,6108295fdd0270d7544b5a8a,31,2022-02-12_12h37.08.082,lexical_decision_task_DD_L6,2021.2.3,Win32,60.0240096,,,,,,,,,,,,,,,,,,,,,,,,,,,,,,,,,,,,,,,,,,,,,,,,,,,,,,,,,,,,,,,,,,instr_done_button,2,0,2,0,1,,,,,,,,,,,,,,,
space,2.292,0.888020833,0.092447917,0,0,0,,,,,,1,test,"In the next phase you will be presented with the words from the the first phase. Your job is to decide whether you remember seeing the word or not. If you remember seeing the word press ""old"" or type ""m"". If you do not remember seeing the word press ""new"" or type ""z"". Please press the space bar or click on continue to begin. ",,,6108295fdd0270d7544b5a8a,31,2022-02-12_12h37.08.082,lexical_decision_task_DD_L6,2021.2.3,Win32,60.0240096,,,,,,,,,,,,,,,,,,,,,,,,,,,,,,,,,,,,,,,,,,,,,,,,,,,,,,,,,,,,,,,,,,,3,0,3,0,1,,,,,,,,,,,,,,,
,,0.027642276,-0.405691057,1,0,0,,,,,,1,test,"In the next phase you will be presented with the words from the the first phase. Your job is to decide whether you remember seeing the word or not. If you remember seeing the word press ""old"" or type ""m"". If you do not remember seeing the word press ""new"" or type ""z"". Please press the space bar or click on continue to begin. ",,,6108295fdd0270d7544b5a8a,31,2022-02-12_12h37.08.082,lexical_decision_task_DD_L6,2021.2.3,Win32,60.0240096,,,,,,,,,,,,,,,,,,,,,,,,,,,,,,,,,,,,,,,,,,,,,,,,,,,,,,,,,,,,,,,,,,instr_done_button,4,0,4,0,1,,,,,,,,,,,,,,,
,,,,,,,,,,,,,,,,,6108295fdd0270d7544b5a8a,31,2022-02-12_12h37.08.082,lexical_decision_task_DD_L6,2021.2.3,Win32,60.0240096,,,,,,,,,,,3.447,1,,,,,,,,,,,,,,,,,,,,,,,,1.108943089,0.324390244,0,0,0,,,,,,,BERRY,HB,z,y,./images/BERRYHB.png,,,,,,,,,,,,,,,,,,,,,z,1,3.447,,,,,,,,0,0,0,131,1
,,,,,,,,,,,,,,,,,6108295fdd0270d7544b5a8a,31,2022-02-12_12h37.08.082,lexical_decision_task_DD_L6,2021.2.3,Win32,60.0240096,,,,,,,,,,,1.125,1,,,,,,,,,,,,,,,,,,,,,,,,1.108943089,0.324390244,0,0,0,,,,,,,LIZARD,HB,z,y,./images/LIZARDHB.png,,,,,,,,,,,,,,,,,,,,,z,1,1.125,,,,,,,,0,1,1,128,1
,,,,,,,,,,,,,,,,,6108295fdd0270d7544b5a8a,31,2022-02-12_12h37.08.082,lexical_decision_task_DD_L6,2021.2.3,Win32,60.0240096,,,,,,,,,,,1.402,0,,,,,,,,,,,,,,,,,,,,,,,,1.108943089,0.324390244,0,0,0,,,,,,,STRING,HB,z,y,./images/STRINGHB.png,,,,,,,,,,,,,,,,,,,,,m,0,1.402,,,,,,,,0,2,2,125,1
,,,,,,,,,,,,,,,,,6108295fdd0270d7544b5a8a,31,2022-02-12_12h37.08.082,lexical_decision_task_DD_L6,2021.2.3,Win32,60.0240096,,,,,,,,,,,1.139,0,,,,,,,,,,,,,,,,,,,,,,,,1.108943089,0.324390244,0,0,0,,,,,,,PURSE,HB,z,y,./images/PURSEHB.png,,,,,,,,,,,,,,,,,,,,,m,0,1.139,,,,,,,,0,3,3,146,1
,,,,,,,,,,,,,,,,,6108295fdd0270d7544b5a8a,31,2022-02-12_12h37.08.082,lexical_decision_task_DD_L6,2021.2.3,Win32,60.0240096,,,,,,,,,,,1.896,1,,,,,,,,,,,,,,,,,,,,,,,,1.108943089,0.324390244,0,0,0,,,,,,,FERRY,LB,m,y,./images/FERRYLB.png,,,,,,,,,,,,,,,,,,,,,m,1,1.896,,,,,,,,0,4,4,57,1
,,,,,,,,,,,,,,,,,6108295fdd0270d7544b5a8a,31,2022-02-12_12h37.08.082,lexical_decision_task_DD_L6,2021.2.3,Win32,60.0240096,,,,,,,,,,,0.874,1,,,,,,,,,,,,,,,,,,,,,,,,1.108943089,0.324390244,0,0,0,,,,,,,LITTER,LB,z,y,./images/LITTERLB.png,,,,,,,,,,,,,,,,,,,,,z,1,0.874,,,,,,,,0,5,5,162,1
,,,,,,,,,,,,,,,,,6108295fdd0270d7544b5a8a,31,2022-02-12_12h37.08.082,lexical_decision_task_DD_L6,2021.2.3,Win32,60.0240096,,,,,,,,,,,1.226,1,,,,,,,,,,,,,,,,,,,,,,,,1.108943089,0.324390244,0,0,0,,,,,,,BANANA,C,m,y,./images/BANANA.png,,,,,,,,,,,,,,,,,,,,,m,1,1.226,,,,,,,,0,6,6,70,1
,,,,,,,,,,,,,,,,,6108295fdd0270d7544b5a8a,31,2022-02-12_12h37.08.082,lexical_decision_task_DD_L6,2021.2.3,Win32,60.0240096,,,,,,,,,,,1.099,1,,,,,,,,,,,,,,,,,,,,,,,,1.108943089,0.324390244,0,0,0,,,,,,,MUSCLE,C,z,y,./images/MUSCLE.png,,,,,,,,,,,,,,,,,,,,,z,1,1.099,,,,,,,,0,7,7,88,1
,,,,,,,,,,,,,,,,,6108295fdd0270d7544b5a8a,31,2022-02-12_12h37.08.082,lexical_decision_task_DD_L6,2021.2.3,Win32,60.0240096,,,,,,,,,,,0.88,1,,,,,,,,,,,,,,,,,,,,,,,,1.108943089,0.324390244,0,0,0,,,,,,,ONION,LB,z,y,./images/ONIONLB.png,,,,,,,,,,,,,,,,,,,,,z,1,0.88,,,,,,,,0,8,8,135,1
,,,,,,,,,,,,,,,,,6108295fdd0270d7544b5a8a,31,2022-02-12_12h37.08.082,lexical_decision_task_DD_L6,2021.2.3,Win32,60.0240096,,,,,,,,,,,0.665,1,,,,,,,,,,,,,,,,,,,,,,,,1.108943089,0.324390244,0,0,0,,,,,,,VALLEY,HB,m,y,./images/VALLEYHB.png,,,,,,,,,,,,,,,,,,,,,m,1,0.665,,,,,,,,0,9,9,68,1
,,,,,,,,,,,,,,,,,6108295fdd0270d7544b5a8a,31,2022-02-12_12h37.08.082,lexical_decision_task_DD_L6,2021.2.3,Win32,60.0240096,,,,,,,,,,,0.812,1,,,,,,,,,,,,,,,,,,,,,,,,1.108943089,0.324390244,0,0,0,,,,,,,PLANET,HB,m,y,./images/PLANETHB.png,,,,,,,,,,,,,,,,,,,,,m,1,0.812,,,,,,,,0,10,10,80,1
,,,,,,,,,,,,,,,,,6108295fdd0270d7544b5a8a,31,2022-02-12_12h37.08.082,lexical_decision_task_DD_L6,2021.2.3,Win32,60.0240096,,,,,,,,,,,0.715,1,,,,,,,,,,,,,,,,,,,,,,,,1.108943089,0.324390244,0,0,0,,,,,,,STORM,LB,z,y,./images/STORMLB.png,,,,,,,,,,,,,,,,,,,,,z,1,0.715,,,,,,,,0,11,11,114,1
,,,,,,,,,,,,,,,,,6108295fdd0270d7544b5a8a,31,2022-02-12_12h37.08.082,lexical_decision_task_DD_L6,2021.2.3,Win32,60.0240096,,,,,,,,,,,0.784,1,,,,,,,,,,,,,,,,,,,,,,,,1.108943089,0.324390244,0,0,0,,,,,,,CEMENT,HB,z,y,./images/CEMENTHB.png,,,,,,,,,,,,,,,,,,,,,z,1,0.784,,,,,,,,0,12,12,158,1
,,,,,,,,,,,,,,,,,6108295fdd0270d7544b5a8a,31,2022-02-12_12h37.08.082,lexical_decision_task_DD_L6,2021.2.3,Win32,60.0240096,,,,,,,,,,,0.932,1,,,,,,,,,,,,,,,,,,,,,,,,1.108943089,0.324390244,0,0,0,,,,,,,CASINO,C,m,y,./images/CASINO.png,,,,,,,,,,,,,,,,,,,,,m,1,0.932,,,,,,,,0,13,13,28,1
,,,,,,,,,,,,,,,,,6108295fdd0270d7544b5a8a,31,2022-02-12_12h37.08.082,lexical_decision_task_DD_L6,2021.2.3,Win32,60.0240096,,,,,,,,,,,0.801,1,,,,,,,,,,,,,,,,,,,,,,,,1.108943089,0.324390244,0,0,0,,,,,,,BASKET,HB,m,y,./images/BASKETHB.png,,,,,,,,,,,,,,,,,,,,,m,1,0.801,,,,,,,,0,14,14,44,1
,,,,,,,,,,,,,,,,,6108295fdd0270d7544b5a8a,31,2022-02-12_12h37.08.082,lexical_decision_task_DD_L6,2021.2.3,Win32,60.0240096,,,,,,,,,,,0.901,0,,,,,,,,,,,,,,,,,,,,,,,,1.108943089,0.324390244,0,0,0,,,,,,,MOOSE,LB,z,y,./images/MOOSELB.png,,,,,,,,,,,,,,,,,,,,,m,0,0.901,,,,,,,,0,15,15,141,1
,,,,,,,,,,,,,,,,,6108295fdd0270d7544b5a8a,31,2022-02-12_12h37.08.082,lexical_decision_task_DD_L6,2021.2.3,Win32,60.0240096,,,,,,,,,,,1.39,1,,,,,,,,,,,,,,,,,,,,,,,,1.108943089,0.324390244,0,0,0,,,,,,,LADDER,HB,z,y,./images/LADDERHB.png,,,,,,,,,,,,,,,,,,,,,z,1,1.39,,,,,,,,0,16,16,122,1
,,,,,,,,,,,,,,,,,6108295fdd0270d7544b5a8a,31,2022-02-12_12h37.08.082,lexical_decision_task_DD_L6,2021.2.3,Win32,60.0240096,,,,,,,,,,,0.833,1,,,,,,,,,,,,,,,,,,,,,,,,1.108943089,0.324390244,0,0,0,,,,,,,BUNNY,C,m,y,./images/BUNNY.png,,,,,,,,,,,,,,,,,,,,,m,1,0.833,,,,,,,,0,17,17,13,1
,,,,,,,,,,,,,,,,,6108295fdd0270d7544b5a8a,31,2022-02-12_12h37.08.082,lexical_decision_task_DD_L6,2021.2.3,Win32,60.0240096,,,,,,,,,,,1.623,1,,,,,,,,,,,,,,,,,,,,,,,,1.108943089,0.324390244,0,0,0,,,,,,,NOOSE,LB,z,y,./images/NOOSELB.png,,,,,,,,,,,,,,,,,,,,,z,1,1.623,,,,,,,,0,18,18,156,1
,,,,,,,,,,,,,,,,,6108295fdd0270d7544b5a8a,31,2022-02-12_12h37.08.082,lexical_decision_task_DD_L6,2021.2.3,Win32,60.0240096,,,,,,,,,,,1.073,1,,,,,,,,,,,,,,,,,,,,,,,,1.108943089,0.324390244,0,0,0,,,,,,,SUNSET,C,z,y,./images/SUNSET.png,,,,,,,,,,,,,,,,,,,,,z,1,1.073,,,,,,,,0,19,19,166,1
,,,,,,,,,,,,,,,,,6108295fdd0270d7544b5a8a,31,2022-02-12_12h37.08.082,lexical_decision_task_DD_L6,2021.2.3,Win32,60.0240096,,,,,,,,,,,0.708,1,,,,,,,,,,,,,,,,,,,,,,,,1.108943089,0.324390244,0,0,0,,,,,,,CLOWN,C,m,y,./images/CLOWN.png,,,,,,,,,,,,,,,,,,,,,m,1,0.708,,,,,,,,0,20,20,22,1
,,,,,,,,,,,,,,,,,6108295fdd0270d7544b5a8a,31,2022-02-12_12h37.08.082,lexical_decision_task_DD_L6,2021.2.3,Win32,60.0240096,,,,,,,,,,,0.767,1,,,,,,,,,,,,,,,,,,,,,,,,1.108943089,0.324390244,0,0,0,,,,,,,JELLY,C,z,y,./images/JELLY.png,,,,,,,,,,,,,,,,,,,,,z,1,0.767,,,,,,,,0,21,21,148,1
,,,,,,,,,,,,,,,,,6108295fdd0270d7544b5a8a,31,2022-02-12_12h37.08.082,lexical_decision_task_DD_L6,2021.2.3,Win32,60.0240096,,,,,,,,,,,1.059,1,,,,,,,,,,,,,,,,,,,,,,,,1.108943089,0.324390244,0,0,0,,,,,,,SNAKE,C,m,y,./images/SNAKE.png,,,,,,,,,,,,,,,,,,,,,m,1,1.059,,,,,,,,0,22,22,40,1
,,,,,,,,,,,,,,,,,6108295fdd0270d7544b5a8a,31,2022-02-12_12h37.08.082,lexical_decision_task_DD_L6,2021.2.3,Win32,60.0240096,,,,,,,,,,,0.655,1,,,,,,,,,,,,,,,,,,,,,,,,1.108943089,0.324390244,0,0,0,,,,,,,ALLEY,C,m,y,./images/ALLEY.png,,,,,,,,,,,,,,,,,,,,,m,1,0.655,,,,,,,,0,23,23,55,1
,,,,,,,,,,,,,,,,,6108295fdd0270d7544b5a8a,31,2022-02-12_12h37.08.082,lexical_decision_task_DD_L6,2021.2.3,Win32,60.0240096,,,,,,,,,,,0.601,1,,,,,,,,,,,,,,,,,,,,,,,,1.108943089,0.324390244,0,0,0,,,,,,,HOCKEY,HB,m,y,./images/HOCKEYHB.png,,,,,,,,,,,,,,,,,,,,,m,1,0.601,,,,,,,,0,24,24,32,1
,,,,,,,,,,,,,,,,,6108295fdd0270d7544b5a8a,31,2022-02-12_12h37.08.082,lexical_decision_task_DD_L6,2021.2.3,Win32,60.0240096,,,,,,,,,,,0.707,1,,,,,,,,,,,,,,,,,,,,,,,,1.108943089,0.324390244,0,0,0,,,,,,,MEDAL,HB,m,y,./images/MEDALHB.png,,,,,,,,,,,,,,,,,,,,,m,1,0.707,,,,,,,,0,25,25,11,1
,,,,,,,,,,,,,,,,,6108295fdd0270d7544b5a8a,31,2022-02-12_12h37.08.082,lexical_decision_task_DD_L6,2021.2.3,Win32,60.0240096,,,,,,,,,,,0.934,1,,,,,,,,,,,,,,,,,,,,,,,,1.108943089,0.324390244,0,0,0,,,,,,,DRUMS,C,z,y,./images/DRUMS.png,,,,,,,,,,,,,,,,,,,,,z,1,0.934,,,,,,,,0,26,26,133,1
,,,,,,,,,,,,,,,,,6108295fdd0270d7544b5a8a,31,2022-02-12_12h37.08.082,lexical_decision_task_DD_L6,2021.2.3,Win32,60.0240096,,,,,,,,,,,1.047,1,,,,,,,,,,,,,,,,,,,,,,,,1.108943089,0.324390244,0,0,0,,,,,,,BELLY,C,z,y,./images/BELLY.png,,,,,,,,,,,,,,,,,,,,,z,1,1.047,,,,,,,,0,27,27,94,1
,,,,,,,,,,,,,,,,,6108295fdd0270d7544b5a8a,31,2022-02-12_12h37.08.082,lexical_decision_task_DD_L6,2021.2.3,Win32,60.0240096,,,,,,,,,,,0.683,1,,,,,,,,,,,,,,,,,,,,,,,,1.108943089,0.324390244,0,0,0,,,,,,,PILOT,HB,m,y,./images/PILOTHB.png,,,,,,,,,,,,,,,,,,,,,m,1,0.683,,,,,,,,0,28,28,50,1
,,,,,,,,,,,,,,,,,6108295fdd0270d7544b5a8a,31,2022-02-12_12h37.08.082,lexical_decision_task_DD_L6,2021.2.3,Win32,60.0240096,,,,,,,,,,,0.726,1,,,,,,,,,,,,,,,,,,,,,,,,1.108943089,0.324390244,0,0,0,,,,,,,FLESH,LB,m,y,./images/FLESHLB.png,,,,,,,,,,,,,,,,,,,,,m,1,0.726,,,,,,,,0,29,29,24,1
,,,,,,,,,,,,,,,,,6108295fdd0270d7544b5a8a,31,2022-02-12_12h37.08.082,lexical_decision_task_DD_L6,2021.2.3,Win32,60.0240096,,,,,,,,,,,1.164,1,,,,,,,,,,,,,,,,,,,,,,,,1.108943089,0.324390244,0,0,0,,,,,,,SLOPE,LB,m,y,./images/SLOPELB.png,,,,,,,,,,,,,,,,,,,,,m,1,1.164,,,,,,,,0,30,30,30,1
,,,,,,,,,,,,,,,,,6108295fdd0270d7544b5a8a,31,2022-02-12_12h37.08.082,lexical_decision_task_DD_L6,2021.2.3,Win32,60.0240096,,,,,,,,,,,0.718,1,,,,,,,,,,,,,,,,,,,,,,,,1.108943089,0.324390244,0,0,0,,,,,,,CHAIN,LB,m,y,./images/CHAINLB.png,,,,,,,,,,,,,,,,,,,,,m,1,0.718,,,,,,,,0,31,31,42,1
,,,,,,,,,,,,,,,,,6108295fdd0270d7544b5a8a,31,2022-02-12_12h37.08.082,lexical_decision_task_DD_L6,2021.2.3,Win32,60.0240096,,,,,,,,,,,0.819,1,,,,,,,,,,,,,,,,,,,,,,,,1.108943089,0.324390244,0,0,0,,,,,,,STAIN,LB,m,y,./images/STAINLB.png,,,,,,,,,,,,,,,,,,,,,m,1,0.819,,,,,,,,0,32,32,6,1
,,,,,,,,,,,,,,,,,6108295fdd0270d7544b5a8a,31,2022-02-12_12h37.08.082,lexical_decision_task_DD_L6,2021.2.3,Win32,60.0240096,,,,,,,,,,,0.804,1,,,,,,,,,,,,,,,,,,,,,,,,1.108943089,0.324390244,0,0,0,,,,,,,TORCH,HB,z,y,./images/TORCHHB.png,,,,,,,,,,,,,,,,,,,,,z,1,0.804,,,,,,,,0,33,33,152,1
,,,,,,,,,,,,,,,,,6108295fdd0270d7544b5a8a,31,2022-02-12_12h37.08.082,lexical_decision_task_DD_L6,2021.2.3,Win32,60.0240096,,,,,,,,,,,0.938,1,,,,,,,,,,,,,,,,,,,,,,,,1.108943089,0.324390244,0,0,0,,,,,,,GREASE,LB,z,y,./images/GREASELB.png,,,,,,,,,,,,,,,,,,,,,z,1,0.938,,,,,,,,0,34,34,99,1
,,,,,,,,,,,,,,,,,6108295fdd0270d7544b5a8a,31,2022-02-12_12h37.08.082,lexical_decision_task_DD_L6,2021.2.3,Win32,60.0240096,,,,,,,,,,,0.78,1,,,,,,,,,,,,,,,,,,,,,,,,1.108943089,0.324390244,0,0,0,,,,,,,TRIPOD,LB,z,y,./images/TRIPODLB.png,,,,,,,,,,,,,,,,,,,,,z,1,0.78,,,,,,,,0,35,35,138,1
,,,,,,,,,,,,,,,,,6108295fdd0270d7544b5a8a,31,2022-02-12_12h37.08.082,lexical_decision_task_DD_L6,2021.2.3,Win32,60.0240096,,,,,,,,,,,0.688,1,,,,,,,,,,,,,,,,,,,,,,,,1.108943089,0.324390244,0,0,0,,,,,,,CRUMB,HB,z,y,./images/CRUMBHB.png,,,,,,,,,,,,,,,,,,,,,z,1,0.688,,,,,,,,0,36,36,113,1
,,,,,,,,,,,,,,,,,6108295fdd0270d7544b5a8a,31,2022-02-12_12h37.08.082,lexical_decision_task_DD_L6,2021.2.3,Win32,60.0240096,,,,,,,,,,,0.599,1,,,,,,,,,,,,,,,,,,,,,,,,1.108943089,0.324390244,0,0,0,,,,,,,DOUGH,C,z,y,./images/DOUGH.png,,,,,,,,,,,,,,,,,,,,,z,1,0.599,,,,,,,,0,37,37,103,1
,,,,,,,,,,,,,,,,,6108295fdd0270d7544b5a8a,31,2022-02-12_12h37.08.082,lexical_decision_task_DD_L6,2021.2.3,Win32,60.0240096,,,,,,,,,,,1.138,0,,,,,,,,,,,,,,,,,,,,,,,,1.108943089,0.324390244,0,0,0,,,,,,,GRAIN,LB,z,y,./images/GRAINLB.png,,,,,,,,,,,,,,,,,,,,,m,0,1.138,,,,,,,,0,38,38,159,1
,,,,,,,,,,,,,,,,,6108295fdd0270d7544b5a8a,31,2022-02-12_12h37.08.082,lexical_decision_task_DD_L6,2021.2.3,Win32,60.0240096,,,,,,,,,,,0.787,1,,,,,,,,,,,,,,,,,,,,,,,,1.108943089,0.324390244,0,0,0,,,,,,,PICKLE,HB,z,y,./images/PICKLEHB.png,,,,,,,,,,,,,,,,,,,,,z,1,0.787,,,,,,,,0,39,39,98,1
,,,,,,,,,,,,,,,,,6108295fdd0270d7544b5a8a,31,2022-02-12_12h37.08.082,lexical_decision_task_DD_L6,2021.2.3,Win32,60.0240096,,,,,,,,,,,0.723,1,,,,,,,,,,,,,,,,,,,,,,,,1.108943089,0.324390244,0,0,0,,,,,,,WRIST,C,z,y,./images/WRIST.png,,,,,,,,,,,,,,,,,,,,,z,1,0.723,,,,,,,,0,40,40,109,1
,,,,,,,,,,,,,,,,,6108295fdd0270d7544b5a8a,31,2022-02-12_12h37.08.082,lexical_decision_task_DD_L6,2021.2.3,Win32,60.0240096,,,,,,,,,,,0.894,1,,,,,,,,,,,,,,,,,,,,,,,,0.888020833,0.359375,0,0,0,space,,,,,,PEBBLE,C,m,y,./images/PEBBLE.png,7.243,,,,,,,,,,,,,,,,,,,,m,1,0.894,,,,,,,,0,41,41,82,1
,,,,,,,,,,,,,,,,,6108295fdd0270d7544b5a8a,31,2022-02-12_12h37.08.082,lexical_decision_task_DD_L6,2021.2.3,Win32,60.0240096,,,,,,,,,,,1.284,0,,,,,,,,,,,,,,,,,,,,,,,,0.888020833,0.359375,0,0,0,,,,,,,SHORE,LB,z,y,./images/SHORELB.png,,,,,,,,,,,,,,,,,,,,,m,0,1.284,,,,,,,,0,42,42,96,1
,,,,,,,,,,,,,,,,,6108295fdd0270d7544b5a8a,31,2022-02-12_12h37.08.082,lexical_decision_task_DD_L6,2021.2.3,Win32,60.0240096,,,,,,,,,,,0.734,1,,,,,,,,,,,,,,,,,,,,,,,,0.888020833,0.359375,0,0,0,,,,,,,CHALK,C,m,y,./images/CHALK.png,,,,,,,,,,,,,,,,,,,,,m,1,0.734,,,,,,,,0,43,43,25,1
,,,,,,,,,,,,,,,,,6108295fdd0270d7544b5a8a,31,2022-02-12_12h37.08.082,lexical_decision_task_DD_L6,2021.2.3,Win32,60.0240096,,,,,,,,,,,0.804,1,,,,,,,,,,,,,,,,,,,,,,,,0.888020833,0.359375,0,0,0,,,,,,,STOVE,HB,m,y,./images/STOVEHB.png,,,,,,,,,,,,,,,,,,,,,m,1,0.804,,,,,,,,0,44,44,2,1
,,,,,,,,,,,,,,,,,6108295fdd0270d7544b5a8a,31,2022-02-12_12h37.08.082,lexical_decision_task_DD_L6,2021.2.3,Win32,60.0240096,,,,,,,,,,,0.769,1,,,,,,,,,,,,,,,,,,,,,,,,0.888020833,0.359375,0,0,0,,,,,,,WALRUS,HB,z,y,./images/WALRUSHB.png,,,,,,,,,,,,,,,,,,,,,z,1,0.769,,,,,,,,0,45,45,107,1
,,,,,,,,,,,,,,,,,6108295fdd0270d7544b5a8a,31,2022-02-12_12h37.08.082,lexical_decision_task_DD_L6,2021.2.3,Win32,60.0240096,,,,,,,,,,,0.716,1,,,,,,,,,,,,,,,,,,,,,,,,0.888020833,0.359375,0,0,0,,,,,,,CRUST,C,z,y,./images/CRUST.png,,,,,,,,,,,,,,,,,,,,,z,1,0.716,,,,,,,,0,46,46,163,1
,,,,,,,,,,,,,,,,,6108295fdd0270d7544b5a8a,31,2022-02-12_12h37.08.082,lexical_decision_task_DD_L6,2021.2.3,Win32,60.0240096,,,,,,,,,,,0.757,1,,,,,,,,,,,,,,,,,,,,,,,,0.888020833,0.359375,0,0,0,,,,,,,STATUE,LB,m,y,./images/STATUELB.png,,,,,,,,,,,,,,,,,,,,,m,1,0.757,,,,,,,,0,47,47,66,1
,,,,,,,,,,,,,,,,,6108295fdd0270d7544b5a8a,31,2022-02-12_12h37.08.082,lexical_decision_task_DD_L6,2021.2.3,Win32,60.0240096,,,,,,,,,,,0.67,1,,,,,,,,,,,,,,,,,,,,,,,,0.888020833,0.359375,0,0,0,,,,,,,SPINE,HB,m,y,./images/SPINEHB.png,,,,,,,,,,,,,,,,,,,,,m,1,0.67,,,,,,,,0,48,48,65,1
,,,,,,,,,,,,,,,,,6108295fdd0270d7544b5a8a,31,2022-02-12_12h37.08.082,lexical_decision_task_DD_L6,2021.2.3,Win32,60.0240096,,,,,,,,,,,0.75,1,,,,,,,,,,,,,,,,,,,,,,,,0.888020833,0.359375,0,0,0,,,,,,,RULER,C,m,y,./images/RULER.png,,,,,,,,,,,,,,,,,,,,,m,1,0.75,,,,,,,,0,49,49,79,1
,,,,,,,,,,,,,,,,,6108295fdd0270d7544b5a8a,31,2022-02-12_12h37.08.082,lexical_decision_task_DD_L6,2021.2.3,Win32,60.0240096,,,,,,,,,,,0.604,1,,,,,,,,,,,,,,,,,,,,,,,,0.888020833,0.359375,0,0,0,,,,,,,GRANNY,HB,m,y,./images/GRANNYHB.png,,,,,,,,,,,,,,,,,,,,,m,1,0.604,,,,,,,,0,50,50,20,1
,,,,,,,,,,,,,,,,,6108295fdd0270d7544b5a8a,31,2022-02-12_12h37.08.082,lexical_decision_task_DD_L6,2021.2.3,Win32,60.0240096,,,,,,,,,,,0.686,1,,,,,,,,,,,,,,,,,,,,,,,,0.888020833,0.359375,0,0,0,,,,,,,DIVER,LB,m,y,./images/DIVERLB.png,,,,,,,,,,,,,,,,,,,,,m,1,0.686,,,,,,,,0,51,51,9,1
,,,,,,,,,,,,,,,,,6108295fdd0270d7544b5a8a,31,2022-02-12_12h37.08.082,lexical_decision_task_DD_L6,2021.2.3,Win32,60.0240096,,,,,,,,,,,0.616,1,,,,,,,,,,,,,,,,,,,,,,,,0.888020833,0.359375,0,0,0,,,,,,,FARMER,HB,z,y,./images/FARMERHB.png,,,,,,,,,,,,,,,,,,,,,z,1,0.616,,,,,,,,0,52,52,149,1
,,,,,,,,,,,,,,,,,6108295fdd0270d7544b5a8a,31,2022-02-12_12h37.08.082,lexical_decision_task_DD_L6,2021.2.3,Win32,60.0240096,,,,,,,,,,,0.88,1,,,,,,,,,,,,,,,,,,,,,,,,0.888020833,0.359375,0,0,0,,,,,,,FOLDER,LB,z,y,./images/FOLDERLB.png,,,,,,,,,,,,,,,,,,,,,z,1,0.88,,,,,,,,0,53,53,126,1
,,,,,,,,,,,,,,,,,6108295fdd0270d7544b5a8a,31,2022-02-12_12h37.08.082,lexical_decision_task_DD_L6,2021.2.3,Win32,60.0240096,,,,,,,,,,,0.721,1,,,,,,,,,,,,,,,,,,,,,,,,0.888020833,0.359375,0,0,0,,,,,,,PACKET,HB,z,y,./images/PACKETHB.png,,,,,,,,,,,,,,,,,,,,,z,1,0.721,,,,,,,,0,54,54,140,1
,,,,,,,,,,,,,,,,,6108295fdd0270d7544b5a8a,31,2022-02-12_12h37.08.082,lexical_decision_task_DD_L6,2021.2.3,Win32,60.0240096,,,,,,,,,,,0.807,1,,,,,,,,,,,,,,,,,,,,,,,,0.888020833,0.359375,0,0,0,,,,,,,MONKEY,LB,m,y,./images/MONKEYLB.png,,,,,,,,,,,,,,,,,,,,,m,1,0.807,,,,,,,,0,55,55,45,1
,,,,,,,,,,,,,,,,,6108295fdd0270d7544b5a8a,31,2022-02-12_12h37.08.082,lexical_decision_task_DD_L6,2021.2.3,Win32,60.0240096,,,,,,,,,,,0.847,1,,,,,,,,,,,,,,,,,,,,,,,,0.888020833,0.359375,0,0,0,,,,,,,MOSQUE,C,z,y,./images/MOSQUE.png,,,,,,,,,,,,,,,,,,,,,z,1,0.847,,,,,,,,0,56,56,127,1
,,,,,,,,,,,,,,,,,6108295fdd0270d7544b5a8a,31,2022-02-12_12h37.08.082,lexical_decision_task_DD_L6,2021.2.3,Win32,60.0240096,,,,,,,,,,,0.691,1,,,,,,,,,,,,,,,,,,,,,,,,0.888020833,0.359375,0,0,0,,,,,,,PARADE,HB,m,y,./images/PARADEHB.png,,,,,,,,,,,,,,,,,,,,,m,1,0.691,,,,,,,,0,57,57,17,1
,,,,,,,,,,,,,,,,,6108295fdd0270d7544b5a8a,31,2022-02-12_12h37.08.082,lexical_decision_task_DD_L6,2021.2.3,Win32,60.0240096,,,,,,,,,,,0.667,1,,,,,,,,,,,,,,,,,,,,,,,,0.888020833,0.359375,0,0,0,,,,,,,WEASEL,HB,z,y,./images/WEASELHB.png,,,,,,,,,,,,,,,,,,,,,z,1,0.667,,,,,,,,0,58,58,164,1
,,,,,,,,,,,,,,,,,6108295fdd0270d7544b5a8a,31,2022-02-12_12h37.08.082,lexical_decision_task_DD_L6,2021.2.3,Win32,60.0240096,,,,,,,,,,,1.153,0,,,,,,,,,,,,,,,,,,,,,,,,0.888020833,0.359375,0,0,0,,,,,,,KIDNEY,LB,z,y,./images/KIDNEYLB.png,,,,,,,,,,,,,,,,,,,,,m,0,1.153,,,,,,,,0,59,59,105,1
,,,,,,,,,,,,,,,,,6108295fdd0270d7544b5a8a,31,2022-02-12_12h37.08.082,lexical_decision_task_DD_L6,2021.2.3,Win32,60.0240096,,,,,,,,,,,0.783,1,,,,,,,,,,,,,,,,,,,,,,,,0.888020833,0.359375,0,0,0,,,,,,,MAGGOT,LB,z,y,./images/MAGGOTLB.png,,,,,,,,,,,,,,,,,,,,,z,1,0.783,,,,,,,,0,60,60,117,1
,,,,,,,,,,,,,,,,,6108295fdd0270d7544b5a8a,31,2022-02-12_12h37.08.082,lexical_decision_task_DD_L6,2021.2.3,Win32,60.0240096,,,,,,,,,,,1.249,1,,,,,,,,,,,,,,,,,,,,,,,,0.888020833,0.359375,0,0,0,,,,,,,PEACH,HB,z,y,./images/PEACHHB.png,,,,,,,,,,,,,,,,,,,,,z,1,1.249,,,,,,,,0,61,61,119,1
,,,,,,,,,,,,,,,,,6108295fdd0270d7544b5a8a,31,2022-02-12_12h37.08.082,lexical_decision_task_DD_L6,2021.2.3,Win32,60.0240096,,,,,,,,,,,0.675,1,,,,,,,,,,,,,,,,,,,,,,,,0.888020833,0.359375,0,0,0,,,,,,,FALCON,C,z,y,./images/FALCON.png,,,,,,,,,,,,,,,,,,,,,z,1,0.675,,,,,,,,0,62,62,112,1
,,,,,,,,,,,,,,,,,6108295fdd0270d7544b5a8a,31,2022-02-12_12h37.08.082,lexical_decision_task_DD_L6,2021.2.3,Win32,60.0240096,,,,,,,,,,,1.25,1,,,,,,,,,,,,,,,,,,,,,,,,0.888020833,0.359375,0,0,0,,,,,,,BURIAL,HB,z,y,./images/BURIALHB.png,,,,,,,,,,,,,,,,,,,,,z,1,1.25,,,,,,,,0,63,63,143,1
,,,,,,,,,,,,,,,,,6108295fdd0270d7544b5a8a,31,2022-02-12_12h37.08.082,lexical_decision_task_DD_L6,2021.2.3,Win32,60.0240096,,,,,,,,,,,1.032,1,,,,,,,,,,,,,,,,,,,,,,,,0.888020833,0.359375,0,0,0,,,,,,,BUBBLE,HB,m,y,./images/BUBBLEHB.png,,,,,,,,,,,,,,,,,,,,,m,1,1.032,,,,,,,,0,64,64,71,1
,,,,,,,,,,,,,,,,,6108295fdd0270d7544b5a8a,31,2022-02-12_12h37.08.082,lexical_decision_task_DD_L6,2021.2.3,Win32,60.0240096,,,,,,,,,,,0.898,1,,,,,,,,,,,,,,,,,,,,,,,,0.888020833,0.359375,0,0,0,,,,,,,PLANK,C,z,y,./images/PLANK.png,,,,,,,,,,,,,,,,,,,,,z,1,0.898,,,,,,,,0,65,65,85,1
,,,,,,,,,,,,,,,,,6108295fdd0270d7544b5a8a,31,2022-02-12_12h37.08.082,lexical_decision_task_DD_L6,2021.2.3,Win32,60.0240096,,,,,,,,,,,0.734,1,,,,,,,,,,,,,,,,,,,,,,,,0.888020833,0.359375,0,0,0,,,,,,,SAUCE,LB,m,y,./images/SAUCELB.png,,,,,,,,,,,,,,,,,,,,,m,1,0.734,,,,,,,,0,66,66,51,1
,,,,,,,,,,,,,,,,,6108295fdd0270d7544b5a8a,31,2022-02-12_12h37.08.082,lexical_decision_task_DD_L6,2021.2.3,Win32,60.0240096,,,,,,,,,,,0.756,1,,,,,,,,,,,,,,,,,,,,,,,,0.888020833,0.359375,0,0,0,,,,,,,PASTA,HB,z,y,./images/PASTAHB.png,,,,,,,,,,,,,,,,,,,,,z,1,0.756,,,,,,,,0,67,67,89,1
,,,,,,,,,,,,,,,,,6108295fdd0270d7544b5a8a,31,2022-02-12_12h37.08.082,lexical_decision_task_DD_L6,2021.2.3,Win32,60.0240096,,,,,,,,,,,0.656,1,,,,,,,,,,,,,,,,,,,,,,,,0.888020833,0.359375,0,0,0,,,,,,,CURRY,LB,m,y,./images/CURRYLB.png,,,,,,,,,,,,,,,,,,,,,m,1,0.656,,,,,,,,0,68,68,60,1
,,,,,,,,,,,,,,,,,6108295fdd0270d7544b5a8a,31,2022-02-12_12h37.08.082,lexical_decision_task_DD_L6,2021.2.3,Win32,60.0240096,,,,,,,,,,,0.585,1,,,,,,,,,,,,,,,,,,,,,,,,0.888020833,0.359375,0,0,0,,,,,,,TIGER,C,m,y,./images/TIGER.png,,,,,,,,,,,,,,,,,,,,,m,1,0.585,,,,,,,,0,69,69,37,1
,,,,,,,,,,,,,,,,,6108295fdd0270d7544b5a8a,31,2022-02-12_12h37.08.082,lexical_decision_task_DD_L6,2021.2.3,Win32,60.0240096,,,,,,,,,,,0.658,1,,,,,,,,,,,,,,,,,,,,,,,,0.888020833,0.359375,0,0,0,,,,,,,PIMPLE,HB,z,y,./images/PIMPLEHB.png,,,,,,,,,,,,,,,,,,,,,z,1,0.658,,,,,,,,0,70,70,155,1
,,,,,,,,,,,,,,,,,6108295fdd0270d7544b5a8a,31,2022-02-12_12h37.08.082,lexical_decision_task_DD_L6,2021.2.3,Win32,60.0240096,,,,,,,,,,,0.802,1,,,,,,,,,,,,,,,,,,,,,,,,0.888020833,0.359375,0,0,0,,,,,,,BIRTH,C,z,y,./images/BIRTH.png,,,,,,,,,,,,,,,,,,,,,z,1,0.802,,,,,,,,0,71,71,121,1
,,,,,,,,,,,,,,,,,6108295fdd0270d7544b5a8a,31,2022-02-12_12h37.08.082,lexical_decision_task_DD_L6,2021.2.3,Win32,60.0240096,,,,,,,,,,,0.612,0,,,,,,,,,,,,,,,,,,,,,,,,0.888020833,0.359375,0,0,0,,,,,,,SCREW,LB,z,y,./images/SCREWLB.png,,,,,,,,,,,,,,,,,,,,,m,0,0.612,,,,,,,,0,72,72,108,1
,,,,,,,,,,,,,,,,,6108295fdd0270d7544b5a8a,31,2022-02-12_12h37.08.082,lexical_decision_task_DD_L6,2021.2.3,Win32,60.0240096,,,,,,,,,,,0.747,1,,,,,,,,,,,,,,,,,,,,,,,,0.888020833,0.359375,0,0,0,,,,,,,SNACK,C,z,y,./images/SNACK.png,,,,,,,,,,,,,,,,,,,,,z,1,0.747,,,,,,,,0,73,73,157,1
,,,,,,,,,,,,,,,,,6108295fdd0270d7544b5a8a,31,2022-02-12_12h37.08.082,lexical_decision_task_DD_L6,2021.2.3,Win32,60.0240096,,,,,,,,,,,0.584,1,,,,,,,,,,,,,,,,,,,,,,,,0.888020833,0.359375,0,0,0,,,,,,,DONKEY,C,m,y,./images/DONKEY.png,,,,,,,,,,,,,,,,,,,,,m,1,0.584,,,,,,,,0,74,74,19,1
,,,,,,,,,,,,,,,,,6108295fdd0270d7544b5a8a,31,2022-02-12_12h37.08.082,lexical_decision_task_DD_L6,2021.2.3,Win32,60.0240096,,,,,,,,,,,0.896,0,,,,,,,,,,,,,,,,,,,,,,,,0.888020833,0.359375,0,0,0,,,,,,,BRUSH,HB,m,y,./images/BRUSHHB.png,,,,,,,,,,,,,,,,,,,,,z,0,0.896,,,,,,,,0,75,75,59,1
,,,,,,,,,,,,,,,,,6108295fdd0270d7544b5a8a,31,2022-02-12_12h37.08.082,lexical_decision_task_DD_L6,2021.2.3,Win32,60.0240096,,,,,,,,,,,0.609,1,,,,,,,,,,,,,,,,,,,,,,,,0.888020833,0.359375,0,0,0,,,,,,,LLAMA,HB,m,y,./images/LLAMAHB.png,,,,,,,,,,,,,,,,,,,,,m,1,0.609,,,,,,,,0,76,76,35,1
,,,,,,,,,,,,,,,,,6108295fdd0270d7544b5a8a,31,2022-02-12_12h37.08.082,lexical_decision_task_DD_L6,2021.2.3,Win32,60.0240096,,,,,,,,,,,0.63,1,,,,,,,,,,,,,,,,,,,,,,,,0.888020833,0.359375,0,0,0,,,,,,,POKER,C,m,y,./images/POKER.png,,,,,,,,,,,,,,,,,,,,,m,1,0.63,,,,,,,,0,77,77,67,1
,,,,,,,,,,,,,,,,,6108295fdd0270d7544b5a8a,31,2022-02-12_12h37.08.082,lexical_decision_task_DD_L6,2021.2.3,Win32,60.0240096,,,,,,,,,,,0.668,1,,,,,,,,,,,,,,,,,,,,,,,,0.888020833,0.359375,0,0,0,,,,,,,BARREL,HB,z,y,./images/BARRELHB.png,,,,,,,,,,,,,,,,,,,,,z,1,0.668,,,,,,,,0,78,78,116,1
,,,,,,,,,,,,,,,,,6108295fdd0270d7544b5a8a,31,2022-02-12_12h37.08.082,lexical_decision_task_DD_L6,2021.2.3,Win32,60.0240096,,,,,,,,,,,0.657,0,,,,,,,,,,,,,,,,,,,,,,,,0.888020833,0.359375,0,0,0,,,,,,,CLOTH,HB,m,y,./images/CLOTHHB.png,,,,,,,,,,,,,,,,,,,,,z,0,0.657,,,,,,,,0,79,79,23,1
,,,,,,,,,,,,,,,,,6108295fdd0270d7544b5a8a,31,2022-02-12_12h37.08.082,lexical_decision_task_DD_L6,2021.2.3,Win32,60.0240096,,,,,,,,,,,0.749,1,,,,,,,,,,,,,,,,,,,,,,,,0.888020833,0.359375,0,0,0,,,,,,,BEARD,HB,z,y,./images/BEARDHB.png,,,,,,,,,,,,,,,,,,,,,z,1,0.749,,,,,,,,0,80,80,86,1
,,,,,,,,,,,,,,,,,6108295fdd0270d7544b5a8a,31,2022-02-12_12h37.08.082,lexical_decision_task_DD_L6,2021.2.3,Win32,60.0240096,,,,,,,,,,,0.837,1,,,,,,,,,,,,,,,,,,,,,,,,0.888020833,0.359375,0,0,0,,,,,,,WHEEL,HB,m,y,./images/WHEELHB.png,,,,,,,,,,,,,,,,,,,,,m,1,0.837,,,,,,,,0,81,81,77,1
,,,,,,,,,,,,,,,,,6108295fdd0270d7544b5a8a,31,2022-02-12_12h37.08.082,lexical_decision_task_DD_L6,2021.2.3,Win32,60.0240096,,,,,,,,,,,0.871,1,,,,,,,,,,,,,,,,,,,,,,,,0.888020833,0.359375,0,0,0,,,,,,,PENCE,C,z,y,./images/PENCE.png,,,,,,,,,,,,,,,,,,,,,z,1,0.871,,,,,,,,0,82,82,100,1
,,,,,,,,,,,,,,,,,6108295fdd0270d7544b5a8a,31,2022-02-12_12h37.08.082,lexical_decision_task_DD_L6,2021.2.3,Win32,60.0240096,,,,,,,,,,,0.901,1,,,,,,,,,,,,,,,,,,,,,,,,0.888020833,0.359375,0,0,0,space,,,,,,SAUNA,LB,m,y,./images/SAUNALB.png,4.396,,,,,,,,,,,,,,,,,,,,m,1,0.901,,,,,,,,0,83,83,33,1
,,,,,,,,,,,,,,,,,6108295fdd0270d7544b5a8a,31,2022-02-12_12h37.08.082,lexical_decision_task_DD_L6,2021.2.3,Win32,60.0240096,,,,,,,,,,,1.032,1,,,,,,,,,,,,,,,,,,,,,,,,0.888020833,0.359375,0,0,0,,,,,,,STOOL,C,m,y,./images/STOOL.png,,,,,,,,,,,,,,,,,,,,,m,1,1.032,,,,,,,,0,84,84,43,1
,,,,,,,,,,,,,,,,,6108295fdd0270d7544b5a8a,31,2022-02-12_12h37.08.082,lexical_decision_task_DD_L6,2021.2.3,Win32,60.0240096,,,,,,,,,,,0.755,1,,,,,,,,,,,,,,,,,,,,,,,,0.888020833,0.359375,0,0,0,,,,,,,TULIP,HB,z,y,./images/TULIPHB.png,,,,,,,,,,,,,,,,,,,,,z,1,0.755,,,,,,,,0,85,85,92,1
,,,,,,,,,,,,,,,,,6108295fdd0270d7544b5a8a,31,2022-02-12_12h37.08.082,lexical_decision_task_DD_L6,2021.2.3,Win32,60.0240096,,,,,,,,,,,0.628,1,,,,,,,,,,,,,,,,,,,,,,,,0.888020833,0.359375,0,0,0,,,,,,,ARTIST,C,m,y,./images/ARTIST.png,,,,,,,,,,,,,,,,,,,,,m,1,0.628,,,,,,,,0,86,86,61,1
,,,,,,,,,,,,,,,,,6108295fdd0270d7544b5a8a,31,2022-02-12_12h37.08.082,lexical_decision_task_DD_L6,2021.2.3,Win32,60.0240096,,,,,,,,,,,0.883,1,,,,,,,,,,,,,,,,,,,,,,,,0.888020833,0.359375,0,0,0,,,,,,,POSTER,HB,m,y,./images/POSTERHB.png,,,,,,,,,,,,,,,,,,,,,m,1,0.883,,,,,,,,0,87,87,53,1
,,,,,,,,,,,,,,,,,6108295fdd0270d7544b5a8a,31,2022-02-12_12h37.08.082,lexical_decision_task_DD_L6,2021.2.3,Win32,60.0240096,,,,,,,,,,,1.067,0,,,,,,,,,,,,,,,,,,,,,,,,0.888020833,0.359375,0,0,0,,,,,,,MOTOR,C,z,y,./images/MOTOR.png,,,,,,,,,,,,,,,,,,,,,m,0,1.067,,,,,,,,0,88,88,97,1
,,,,,,,,,,,,,,,,,6108295fdd0270d7544b5a8a,31,2022-02-12_12h37.08.082,lexical_decision_task_DD_L6,2021.2.3,Win32,60.0240096,,,,,,,,,,,0.844,1,,,,,,,,,,,,,,,,,,,,,,,,0.888020833,0.359375,0,0,0,,,,,,,WAGON,C,m,y,./images/WAGON.png,,,,,,,,,,,,,,,,,,,,,m,1,0.844,,,,,,,,0,89,89,7,1
,,,,,,,,,,,,,,,,,6108295fdd0270d7544b5a8a,31,2022-02-12_12h37.08.082,lexical_decision_task_DD_L6,2021.2.3,Win32,60.0240096,,,,,,,,,,,0.812,0,,,,,,,,,,,,,,,,,,,,,,,,0.888020833,0.359375,0,0,0,,,,,,,BANNER,C,z,y,./images/BANNER.png,,,,,,,,,,,,,,,,,,,,,m,0,0.812,,,,,,,,0,90,90,136,1
,,,,,,,,,,,,,,,,,6108295fdd0270d7544b5a8a,31,2022-02-12_12h37.08.082,lexical_decision_task_DD_L6,2021.2.3,Win32,60.0240096,,,,,,,,,,,0.803,1,,,,,,,,,,,,,,,,,,,,,,,,0.888020833,0.359375,0,0,0,,,,,,,COOKER,LB,z,y,./images/COOKERLB.png,,,,,,,,,,,,,,,,,,,,,z,1,0.803,,,,,,,,0,91,91,153,1
,,,,,,,,,,,,,,,,,6108295fdd0270d7544b5a8a,31,2022-02-12_12h37.08.082,lexical_decision_task_DD_L6,2021.2.3,Win32,60.0240096,,,,,,,,,,,1.109,1,,,,,,,,,,,,,,,,,,,,,,,,0.888020833,0.359375,0,0,0,,,,,,,CANOE,C,m,y,./images/CANOE.png,,,,,,,,,,,,,,,,,,,,,m,1,1.109,,,,,,,,0,92,92,58,1
,,,,,,,,,,,,,,,,,6108295fdd0270d7544b5a8a,31,2022-02-12_12h37.08.082,lexical_decision_task_DD_L6,2021.2.3,Win32,60.0240096,,,,,,,,,,,0.915,1,,,,,,,,,,,,,,,,,,,,,,,,0.888020833,0.359375,0,0,0,,,,,,,SQUARE,LB,z,y,./images/SQUARELB.png,,,,,,,,,,,,,,,,,,,,,z,1,0.915,,,,,,,,0,93,93,90,1
,,,,,,,,,,,,,,,,,6108295fdd0270d7544b5a8a,31,2022-02-12_12h37.08.082,lexical_decision_task_DD_L6,2021.2.3,Win32,60.0240096,,,,,,,,,,,0.985,0,,,,,,,,,,,,,,,,,,,,,,,,0.888020833,0.359375,0,0,0,,,,,,,SWING,C,z,y,./images/SWING.png,,,,,,,,,,,,,,,,,,,,,m,0,0.985,,,,,,,,0,94,94,124,1
,,,,,,,,,,,,,,,,,6108295fdd0270d7544b5a8a,31,2022-02-12_12h37.08.082,lexical_decision_task_DD_L6,2021.2.3,Win32,60.0240096,,,,,,,,,,,1.108,0,,,,,,,,,,,,,,,,,,,,,,,,0.888020833,0.359375,0,0,0,,,,,,,GLOVE,C,m,y,./images/GLOVE.png,,,,,,,,,,,,,,,,,,,,,z,0,1.108,,,,,,,,0,95,95,73,1
,,,,,,,,,,,,,,,,,6108295fdd0270d7544b5a8a,31,2022-02-12_12h37.08.082,lexical_decision_task_DD_L6,2021.2.3,Win32,60.0240096,,,,,,,,,,,1.019,0,,,,,,,,,,,,,,,,,,,,,,,,0.888020833,0.359375,0,0,0,,,,,,,CLOUD,HB,m,y,./images/CLOUDHB.png,,,,,,,,,,,,,,,,,,,,,z,0,1.019,,,,,,,,0,96,96,26,1
,,,,,,,,,,,,,,,,,6108295fdd0270d7544b5a8a,31,2022-02-12_12h37.08.082,lexical_decision_task_DD_L6,2021.2.3,Win32,60.0240096,,,,,,,,,,,1.044,0,,,,,,,,,,,,,,,,,,,,,,,,0.888020833,0.359375,0,0,0,,,,,,,CRATER,LB,m,y,./images/CRATERLB.png,,,,,,,,,,,,,,,,,,,,,z,0,1.044,,,,,,,,0,97,97,3,1
,,,,,,,,,,,,,,,,,6108295fdd0270d7544b5a8a,31,2022-02-12_12h37.08.082,lexical_decision_task_DD_L6,2021.2.3,Win32,60.0240096,,,,,,,,,,,0.691,1,,,,,,,,,,,,,,,,,,,,,,,,0.888020833,0.359375,0,0,0,,,,,,,POODLE,LB,z,y,./images/POODLELB.png,,,,,,,,,,,,,,,,,,,,,z,1,0.691,,,,,,,,0,98,98,165,1
,,,,,,,,,,,,,,,,,6108295fdd0270d7544b5a8a,31,2022-02-12_12h37.08.082,lexical_decision_task_DD_L6,2021.2.3,Win32,60.0240096,,,,,,,,,,,0.786,1,,,,,,,,,,,,,,,,,,,,,,,,0.888020833,0.359375,0,0,0,,,,,,,WHISKY,HB,m,y,./images/WHISKYHB.png,,,,,,,,,,,,,,,,,,,,,m,1,0.786,,,,,,,,0,99,99,83,1
,,,,,,,,,,,,,,,,,6108295fdd0270d7544b5a8a,31,2022-02-12_12h37.08.082,lexical_decision_task_DD_L6,2021.2.3,Win32,60.0240096,,,,,,,,,,,0.921,0,,,,,,,,,,,,,,,,,,,,,,,,0.888020833,0.359375,0,0,0,,,,,,,SAILOR,C,z,y,./images/SAILOR.png,,,,,,,,,,,,,,,,,,,,,m,0,0.921,,,,,,,,0,100,100,151,1
,,,,,,,,,,,,,,,,,6108295fdd0270d7544b5a8a,31,2022-02-12_12h37.08.082,lexical_decision_task_DD_L6,2021.2.3,Win32,60.0240096,,,,,,,,,,,0.727,1,,,,,,,,,,,,,,,,,,,,,,,,0.888020833,0.359375,0,0,0,,,,,,,DESERT,C,m,y,./images/DESERT.png,,,,,,,,,,,,,,,,,,,,,m,1,0.727,,,,,,,,0,101,101,52,1
,,,,,,,,,,,,,,,,,6108295fdd0270d7544b5a8a,31,2022-02-12_12h37.08.082,lexical_decision_task_DD_L6,2021.2.3,Win32,60.0240096,,,,,,,,,,,0.774,1,,,,,,,,,,,,,,,,,,,,,,,,0.888020833,0.359375,0,0,0,,,,,,,FENCE,HB,m,y,./images/FENCEHB.png,,,,,,,,,,,,,,,,,,,,,m,1,0.774,,,,,,,,0,102,102,14,1
,,,,,,,,,,,,,,,,,6108295fdd0270d7544b5a8a,31,2022-02-12_12h37.08.082,lexical_decision_task_DD_L6,2021.2.3,Win32,60.0240096,,,,,,,,,,,0.792,1,,,,,,,,,,,,,,,,,,,,,,,,0.888020833,0.359375,0,0,0,,,,,,,LAGOON,HB,m,y,./images/LAGOONHB.png,,,,,,,,,,,,,,,,,,,,,m,1,0.792,,,,,,,,0,103,103,47,1
,,,,,,,,,,,,,,,,,6108295fdd0270d7544b5a8a,31,2022-02-12_12h37.08.082,lexical_decision_task_DD_L6,2021.2.3,Win32,60.0240096,,,,,,,,,,,0.7,1,,,,,,,,,,,,,,,,,,,,,,,,0.888020833,0.359375,0,0,0,,,,,,,BABOON,C,z,y,./images/BABOON.png,,,,,,,,,,,,,,,,,,,,,z,1,0.7,,,,,,,,0,104,104,142,1
,,,,,,,,,,,,,,,,,6108295fdd0270d7544b5a8a,31,2022-02-12_12h37.08.082,lexical_decision_task_DD_L6,2021.2.3,Win32,60.0240096,,,,,,,,,,,1.084,0,,,,,,,,,,,,,,,,,,,,,,,,0.888020833,0.359375,0,0,0,,,,,,,BROOM,LB,m,y,./images/BROOMLB.png,,,,,,,,,,,,,,,,,,,,,z,0,1.084,,,,,,,,0,105,105,78,1
,,,,,,,,,,,,,,,,,6108295fdd0270d7544b5a8a,31,2022-02-12_12h37.08.082,lexical_decision_task_DD_L6,2021.2.3,Win32,60.0240096,,,,,,,,,,,0.925,1,,,,,,,,,,,,,,,,,,,,,,,,0.888020833,0.359375,0,0,0,,,,,,,JUNGLE,HB,z,y,./images/JUNGLEHB.png,,,,,,,,,,,,,,,,,,,,,z,1,0.925,,,,,,,,0,106,106,167,1
,,,,,,,,,,,,,,,,,6108295fdd0270d7544b5a8a,31,2022-02-12_12h37.08.082,lexical_decision_task_DD_L6,2021.2.3,Win32,60.0240096,,,,,,,,,,,0.732,1,,,,,,,,,,,,,,,,,,,,,,,,0.888020833,0.359375,0,0,0,,,,,,,BISHOP,C,m,y,./images/BISHOP.png,,,,,,,,,,,,,,,,,,,,,m,1,0.732,,,,,,,,0,107,107,49,1
,,,,,,,,,,,,,,,,,6108295fdd0270d7544b5a8a,31,2022-02-12_12h37.08.082,lexical_decision_task_DD_L6,2021.2.3,Win32,60.0240096,,,,,,,,,,,0.97,0,,,,,,,,,,,,,,,,,,,,,,,,0.888020833,0.359375,0,0,0,,,,,,,ARROW,LB,m,y,./images/ARROWLB.png,,,,,,,,,,,,,,,,,,,,,z,0,0.97,,,,,,,,0,108,108,69,1
,,,,,,,,,,,,,,,,,6108295fdd0270d7544b5a8a,31,2022-02-12_12h37.08.082,lexical_decision_task_DD_L6,2021.2.3,Win32,60.0240096,,,,,,,,,,,0.628,1,,,,,,,,,,,,,,,,,,,,,,,,0.888020833,0.359375,0,0,0,,,,,,,TOMATO,LB,z,y,./images/TOMATOLB.png,,,,,,,,,,,,,,,,,,,,,z,1,0.628,,,,,,,,0,109,109,84,1
,,,,,,,,,,,,,,,,,6108295fdd0270d7544b5a8a,31,2022-02-12_12h37.08.082,lexical_decision_task_DD_L6,2021.2.3,Win32,60.0240096,,,,,,,,,,,0.949,1,,,,,,,,,,,,,,,,,,,,,,,,0.888020833,0.359375,0,0,0,,,,,,,MUFFIN,C,z,y,./images/MUFFIN.png,,,,,,,,,,,,,,,,,,,,,z,1,0.949,,,,,,,,0,110,110,139,1
,,,,,,,,,,,,,,,,,6108295fdd0270d7544b5a8a,31,2022-02-12_12h37.08.082,lexical_decision_task_DD_L6,2021.2.3,Win32,60.0240096,,,,,,,,,,,0.8,1,,,,,,,,,,,,,,,,,,,,,,,,0.888020833,0.359375,0,0,0,,,,,,,STEAK,C,m,y,./images/STEAK.png,,,,,,,,,,,,,,,,,,,,,m,1,0.8,,,,,,,,0,111,111,31,1
,,,,,,,,,,,,,,,,,6108295fdd0270d7544b5a8a,31,2022-02-12_12h37.08.082,lexical_decision_task_DD_L6,2021.2.3,Win32,60.0240096,,,,,,,,,,,1.119,1,,,,,,,,,,,,,,,,,,,,,,,,0.888020833,0.359375,0,0,0,,,,,,,ENGINE,HB,m,y,./images/ENGINEHB.png,,,,,,,,,,,,,,,,,,,,,m,1,1.119,,,,,,,,0,112,112,38,1
,,,,,,,,,,,,,,,,,6108295fdd0270d7544b5a8a,31,2022-02-12_12h37.08.082,lexical_decision_task_DD_L6,2021.2.3,Win32,60.0240096,,,,,,,,,,,0.847,1,,,,,,,,,,,,,,,,,,,,,,,,0.888020833,0.359375,0,0,0,,,,,,,DANCER,LB,m,y,./images/DANCERLB.png,,,,,,,,,,,,,,,,,,,,,m,1,0.847,,,,,,,,0,113,113,21,1
,,,,,,,,,,,,,,,,,6108295fdd0270d7544b5a8a,31,2022-02-12_12h37.08.082,lexical_decision_task_DD_L6,2021.2.3,Win32,60.0240096,,,,,,,,,,,0.769,1,,,,,,,,,,,,,,,,,,,,,,,,0.888020833,0.359375,0,0,0,,,,,,,CHERRY,LB,m,y,./images/CHERRYLB.png,,,,,,,,,,,,,,,,,,,,,m,1,0.769,,,,,,,,0,114,114,54,1
,,,,,,,,,,,,,,,,,6108295fdd0270d7544b5a8a,31,2022-02-12_12h37.08.082,lexical_decision_task_DD_L6,2021.2.3,Win32,60.0240096,,,,,,,,,,,0.7,1,,,,,,,,,,,,,,,,,,,,,,,,0.888020833,0.359375,0,0,0,,,,,,,BOILER,LB,m,y,./images/BOILERLB.png,,,,,,,,,,,,,,,,,,,,,m,1,0.7,,,,,,,,0,115,115,36,1
,,,,,,,,,,,,,,,,,6108295fdd0270d7544b5a8a,31,2022-02-12_12h37.08.082,lexical_decision_task_DD_L6,2021.2.3,Win32,60.0240096,,,,,,,,,,,1.318,1,,,,,,,,,,,,,,,,,,,,,,,,0.888020833,0.359375,0,0,0,,,,,,,BLOKE,LB,m,y,./images/BLOKELB.png,,,,,,,,,,,,,,,,,,,,,m,1,1.318,,,,,,,,0,116,116,12,1
,,,,,,,,,,,,,,,,,6108295fdd0270d7544b5a8a,31,2022-02-12_12h37.08.082,lexical_decision_task_DD_L6,2021.2.3,Win32,60.0240096,,,,,,,,,,,0.832,1,,,,,,,,,,,,,,,,,,,,,,,,0.888020833,0.359375,0,0,0,,,,,,,COLLAR,LB,m,y,./images/COLLARLB.png,,,,,,,,,,,,,,,,,,,,,m,1,0.832,,,,,,,,0,117,117,15,1
,,,,,,,,,,,,,,,,,6108295fdd0270d7544b5a8a,31,2022-02-12_12h37.08.082,lexical_decision_task_DD_L6,2021.2.3,Win32,60.0240096,,,,,,,,,,,0.767,1,,,,,,,,,,,,,,,,,,,,,,,,0.888020833,0.359375,0,0,0,,,,,,,MALLET,HB,z,y,./images/MALLETHB.png,,,,,,,,,,,,,,,,,,,,,z,1,0.767,,,,,,,,0,118,118,134,1
,,,,,,,,,,,,,,,,,6108295fdd0270d7544b5a8a,31,2022-02-12_12h37.08.082,lexical_decision_task_DD_L6,2021.2.3,Win32,60.0240096,,,,,,,,,,,0.735,1,,,,,,,,,,,,,,,,,,,,,,,,0.888020833,0.359375,0,0,0,,,,,,,BOXER,C,m,y,./images/BOXER.png,,,,,,,,,,,,,,,,,,,,,m,1,0.735,,,,,,,,0,119,119,4,1
,,,,,,,,,,,,,,,,,6108295fdd0270d7544b5a8a,31,2022-02-12_12h37.08.082,lexical_decision_task_DD_L6,2021.2.3,Win32,60.0240096,,,,,,,,,,,0.738,1,,,,,,,,,,,,,,,,,,,,,,,,0.888020833,0.359375,0,0,0,,,,,,,SHELF,LB,z,y,./images/SHELFLB.png,,,,,,,,,,,,,,,,,,,,,z,1,0.738,,,,,,,,0,120,120,123,1
,,,,,,,,,,,,,,,,,6108295fdd0270d7544b5a8a,31,2022-02-12_12h37.08.082,lexical_decision_task_DD_L6,2021.2.3,Win32,60.0240096,,,,,,,,,,,0.934,1,,,,,,,,,,,,,,,,,,,,,,,,0.888020833,0.359375,0,0,0,,,,,,,MIRROR,LB,z,y,./images/MIRRORLB.png,,,,,,,,,,,,,,,,,,,,,z,1,0.934,,,,,,,,0,121,121,147,1
,,,,,,,,,,,,,,,,,6108295fdd0270d7544b5a8a,31,2022-02-12_12h37.08.082,lexical_decision_task_DD_L6,2021.2.3,Win32,60.0240096,,,,,,,,,,,0.72,1,,,,,,,,,,,,,,,,,,,,,,,,0.888020833,0.359375,0,0,0,,,,,,,URINE,C,z,y,./images/URINE.png,,,,,,,,,,,,,,,,,,,,,z,1,0.72,,,,,,,,0,122,122,154,1
,,,,,,,,,,,,,,,,,6108295fdd0270d7544b5a8a,31,2022-02-12_12h37.08.082,lexical_decision_task_DD_L6,2021.2.3,Win32,60.0240096,,,,,,,,,,,0.962,0,,,,,,,,,,,,,,,,,,,,,,,,0.888020833,0.359375,0,0,0,,,,,,,BONNET,HB,z,y,./images/BONNETHB.png,,,,,,,,,,,,,,,,,,,,,m,0,0.962,,,,,,,,0,123,123,95,1
,,,,,,,,,,,,,,,,,6108295fdd0270d7544b5a8a,31,2022-02-12_12h37.08.082,lexical_decision_task_DD_L6,2021.2.3,Win32,60.0240096,,,,,,,,,,,0.802,1,,,,,,,,,,,,,,,,,,,,,,,,0.888020833,0.359375,0,0,0,,,,,,,GRAPE,C,m,y,./images/GRAPE.png,,,,,,,,,,,,,,,,,,,,,m,1,0.802,,,,,,,,0,124,124,16,1
,,,,,,,,,,,,,,,,,6108295fdd0270d7544b5a8a,31,2022-02-12_12h37.08.082,lexical_decision_task_DD_L6,2021.2.3,Win32,60.0240096,,,,,,,,,,,0.714,1,,,,,,,,,,,,,,,,,,,,,,,,0.888020833,0.359375,0,0,0,space,,,,,,HEATER,HB,m,y,./images/HEATERHB.png,62.053,,,,,,,,,,,,,,,,,,,,m,1,0.714,,,,,,,,0,125,125,56,1
,,,,,,,,,,,,,,,,,6108295fdd0270d7544b5a8a,31,2022-02-12_12h37.08.082,lexical_decision_task_DD_L6,2021.2.3,Win32,60.0240096,,,,,,,,,,,1.244,1,,,,,,,,,,,,,,,,,,,,,,,,0.888020833,0.359375,0,0,0,,,,,,,STREAM,HB,m,y,./images/STREAMHB.png,,,,,,,,,,,,,,,,,,,,,m,1,1.244,,,,,,,,0,126,126,41,1
,,,,,,,,,,,,,,,,,6108295fdd0270d7544b5a8a,31,2022-02-12_12h37.08.082,lexical_decision_task_DD_L6,2021.2.3,Win32,60.0240096,,,,,,,,,,,0.626,1,,,,,,,,,,,,,,,,,,,,,,,,0.888020833,0.359375,0,0,0,,,,,,,GARDEN,C,m,y,./images/GARDEN.png,,,,,,,,,,,,,,,,,,,,,m,1,0.626,,,,,,,,0,127,127,10,1
,,,,,,,,,,,,,,,,,6108295fdd0270d7544b5a8a,31,2022-02-12_12h37.08.082,lexical_decision_task_DD_L6,2021.2.3,Win32,60.0240096,,,,,,,,,,,1.368,1,,,,,,,,,,,,,,,,,,,,,,,,0.888020833,0.359375,0,0,0,,,,,,,PAINT,C,z,y,./images/PAINT.png,,,,,,,,,,,,,,,,,,,,,z,1,1.368,,,,,,,,0,128,128,91,1
,,,,,,,,,,,,,,,,,6108295fdd0270d7544b5a8a,31,2022-02-12_12h37.08.082,lexical_decision_task_DD_L6,2021.2.3,Win32,60.0240096,,,,,,,,,,,1.047,1,,,,,,,,,,,,,,,,,,,,,,,,0.888020833,0.359375,0,0,0,,,,,,,KITTEN,LB,z,y,./images/KITTENLB.png,,,,,,,,,,,,,,,,,,,,,z,1,1.047,,,,,,,,0,129,129,129,1
,,,,,,,,,,,,,,,,,6108295fdd0270d7544b5a8a,31,2022-02-12_12h37.08.082,lexical_decision_task_DD_L6,2021.2.3,Win32,60.0240096,,,,,,,,,,,0.837,0,,,,,,,,,,,,,,,,,,,,,,,,0.888020833,0.359375,0,0,0,,,,,,,DRILL,LB,m,y,./images/DRILLLB.png,,,,,,,,,,,,,,,,,,,,,z,0,0.837,,,,,,,,0,130,130,81,1
,,,,,,,,,,,,,,,,,6108295fdd0270d7544b5a8a,31,2022-02-12_12h37.08.082,lexical_decision_task_DD_L6,2021.2.3,Win32,60.0240096,,,,,,,,,,,0.79,1,,,,,,,,,,,,,,,,,,,,,,,,0.888020833,0.359375,0,0,0,,,,,,,BAKER,LB,m,y,./images/BAKERLB.png,,,,,,,,,,,,,,,,,,,,,m,1,0.79,,,,,,,,0,131,131,63,1
,,,,,,,,,,,,,,,,,6108295fdd0270d7544b5a8a,31,2022-02-12_12h37.08.082,lexical_decision_task_DD_L6,2021.2.3,Win32,60.0240096,,,,,,,,,,,0.677,1,,,,,,,,,,,,,,,,,,,,,,,,0.888020833,0.359375,0,0,0,,,,,,,TWINS,LB,z,y,./images/TWINSLB.png,,,,,,,,,,,,,,,,,,,,,z,1,0.677,,,,,,,,0,132,132,144,1
,,,,,,,,,,,,,,,,,6108295fdd0270d7544b5a8a,31,2022-02-12_12h37.08.082,lexical_decision_task_DD_L6,2021.2.3,Win32,60.0240096,,,,,,,,,,,0.856,1,,,,,,,,,,,,,,,,,,,,,,,,0.888020833,0.359375,0,0,0,,,,,,,CRADLE,HB,z,y,./images/CRADLEHB.png,,,,,,,,,,,,,,,,,,,,,z,1,0.856,,,,,,,,0,133,133,104,1
,,,,,,,,,,,,,,,,,6108295fdd0270d7544b5a8a,31,2022-02-12_12h37.08.082,lexical_decision_task_DD_L6,2021.2.3,Win32,60.0240096,,,,,,,,,,,0.656,1,,,,,,,,,,,,,,,,,,,,,,,,0.888020833,0.359375,0,0,0,,,,,,,PISTOL,HB,m,y,./images/PISTOLHB.png,,,,,,,,,,,,,,,,,,,,,m,1,0.656,,,,,,,,0,134,134,29,1
,,,,,,,,,,,,,,,,,6108295fdd0270d7544b5a8a,31,2022-02-12_12h37.08.082,lexical_decision_task_DD_L6,2021.2.3,Win32,60.0240096,,,,,,,,,,,0.635,1,,,,,,,,,,,,,,,,,,,,,,,,0.888020833,0.359375,0,0,0,,,,,,,BAMBOO,HB,m,y,./images/BAMBOOHB.png,,,,,,,,,,,,,,,,,,,,,m,1,0.635,,,,,,,,0,135,135,5,1
,,,,,,,,,,,,,,,,,6108295fdd0270d7544b5a8a,31,2022-02-12_12h37.08.082,lexical_decision_task_DD_L6,2021.2.3,Win32,60.0240096,,,,,,,,,,,1.416,1,,,,,,,,,,,,,,,,,,,,,,,,0.888020833,0.359375,0,0,0,,,,,,,RHINO,LB,z,y,./images/RHINOLB.png,,,,,,,,,,,,,,,,,,,,,z,1,1.416,,,,,,,,0,136,136,93,1
,,,,,,,,,,,,,,,,,6108295fdd0270d7544b5a8a,31,2022-02-12_12h37.08.082,lexical_decision_task_DD_L6,2021.2.3,Win32,60.0240096,,,,,,,,,,,0.895,1,,,,,,,,,,,,,,,,,,,,,,,,0.888020833,0.359375,0,0,0,,,,,,,SPORT,LB,z,y,./images/SPORTLB.png,,,,,,,,,,,,,,,,,,,,,z,1,0.895,,,,,,,,0,137,137,132,1
