key_resp.keys,key_resp.rt,instr_done_touch.x,instr_done_touch.y,instr_done_touch.leftButton,instr_done_touch.midButton,instr_done_touch.rightButton,instruction_pages.thisRepN,instruction_pages.thisTrialN,instruction_pages.thisN,instruction_pages.thisIndex,instruction_pages.ran,pageN,phase,instruct_text,has_image,instruct_image,participant,age,date,expName,psychopyVersion,OS,frameRate,response.keys,response.corr,response.rt,touch_resp.x,touch_resp.y,touch_resp.leftButton,touch_resp.midButton,touch_resp.rightButton,touch_resp.time,touch_resp.clicked_name,rt,corr,practrials.thisRepN,practrials.thisTrialN,practrials.thisN,practrials.thisIndex,practrials.ran,TrialID,Target,corrAns,instr_done_touch.clicked_name,end_of_practice_trials_pages.thisRepN,end_of_practice_trials_pages.thisTrialN,end_of_practice_trials_pages.thisN,end_of_practice_trials_pages.thisIndex,end_of_practice_trials_pages.ran,key_resp_2.keys,key_resp_2.corr,key_resp_2.rt,targ_click.x,targ_click.y,targ_click.leftButton,targ_click.midButton,targ_click.rightButton,targ_click.time,targ_click.clicked_name,break_done_touch.x,break_done_touch.y,break_done_touch.leftButton,break_done_touch.midButton,break_done_touch.rightButton,break_done_keyboard.keys,maintrials.thisRepN,maintrials.thisTrialN,maintrials.thisN,maintrials.thisIndex,maintrials.ran,string,blur,study,lex,stim_path,break_done_touch.clicked_name,break_done_keyboard.rt,mouse_2.x,mouse_2.y,mouse_2.leftButton,mouse_2.midButton,mouse_2.rightButton,mouse_2.clicked_name,slider.response,slider.rt,trials.thisRepN,trials.thisTrialN,trials.thisN,trials.thisIndex,trials.ran,test_instructions.thisRepN,test_instructions.thisTrialN,test_instructions.thisN,test_instructions.thisIndex,test_instructions.ran,key_resp_3.keys,key_resp_3.corr,key_resp_3.rt,test_click.x,test_click.y,test_click.leftButton,test_click.midButton,test_click.rightButton,test_click.time,test_click.clicked_name,test_phase.thisRepN,test_phase.thisTrialN,test_phase.thisN,test_phase.thisIndex,test_phase.ran
space,11.96694,-0.012586806,-0.229205729,0,0,0,0,0,0,0,1,1,instructions,"INSTRUCTIONS
At the start of each trial, look at the plus sign  (+) in the center of the screen.  This tells you that a trial is about to begin and where to look. Second, the plus sign will disappear and a string of letters will appear. Your task is to determine if the string of letters is a word or not. If the item is a word press the M key (on keyboard)  or touch the word button (phone/tablet).  If the item is not a word,  press the  Z key (on keyboard)  or touch the nonword button (on phone/tablet). 
Press the space bar or touch  continue.",0,,6154940e788774dc9a1ec182,19,2022-02-12_17h00.03,lexical_decision_task_DD_L6,2021.2.3,MacIntel,59.99880002,,,,,,,,,,,,,,,,,,,,,,,,,,,,,,,,,,,,,,,,,,,,,,,,,,,,,,,,,,,,,,,,,,,,,,,,,,,,,,,,,,,,,,,
space,10.44496,-0.012586806,-0.229205729,0,0,0,0,1,1,1,1,2,instructions,"If your device has a keyboard, press the 'Z' key for nonwords and the 'M' key for words.





Press the space bar or touch the button below to continue.",0,keyboard-example.gif,6154940e788774dc9a1ec182,19,2022-02-12_17h00.03,lexical_decision_task_DD_L6,2021.2.3,MacIntel,59.99880002,,,,,,,,,,,,,,,,,,,,,,,,,,,,,,,,,,,,,,,,,,,,,,,,,,,,,,,,,,,,,,,,,,,,,,,,,,,,,,,,,,,,,,,
space,3.772825,-0.012586806,-0.229205729,0,0,0,0,2,2,2,1,3,instructions,"If you are using a touchscreen only device, use the buttons on the screen. Do not use the mouse.





Press the space bar or touch the button below to continue.",0,touchscreen-example.gif,6154940e788774dc9a1ec182,19,2022-02-12_17h00.03,lexical_decision_task_DD_L6,2021.2.3,MacIntel,59.99880002,,,,,,,,,,,,,,,,,,,,,,,,,,,,,,,,,,,,,,,,,,,,,,,,,,,,,,,,,,,,,,,,,,,,,,,,,,,,,,,,,,,,,,,
space,6.014815,-0.643372396,-0.485277778,0,0,0,0,3,3,3,1,4,instructions,"It is very important that you respond as quickly and accurately as possible, as each letter string will only be on the screen for two seconds. If you do not respond within this time, the message 'Too slow!' will be displayed and the experiment will progress to the next letter string. The first 20 trials will be practice trials and you will receive feedback on your answers. 

Press the space bar or touch the button below to start the practice trials.",0,,6154940e788774dc9a1ec182,19,2022-02-12_17h00.03,lexical_decision_task_DD_L6,2021.2.3,MacIntel,59.99880002,,,,,,,,,,,,,,,,,,,,,,,,,,,,,,,,,,,,,,,,,,,,,,,,,,,,,,,,,,,,,,,,,,,,,,,,,,,,,,,,,,,,,,,
,,,,,,,,,,,,,,,,,6154940e788774dc9a1ec182,19,2022-02-12_17h00.03,lexical_decision_task_DD_L6,2021.2.3,MacIntel,59.99880002,m,1,2.9274,,,,,,,,2.9274,1,0,0,0,2,1,1001,ALMOND,m,,,,,,,,,,,,,,,,,,,,,,,,,,,,,,,,,,,,,,,,,,,,,,,,,,,,,,,,,,,,,,,,,,,
,,,,,,,,,,,,,,,,,6154940e788774dc9a1ec182,19,2022-02-12_17h00.03,lexical_decision_task_DD_L6,2021.2.3,MacIntel,59.99880002,m,1,1.762195,,,,,,,,1.762195,1,0,1,1,5,1,1001,OBTAIN,m,,,,,,,,,,,,,,,,,,,,,,,,,,,,,,,,,,,,,,,,,,,,,,,,,,,,,,,,,,,,,,,,,,,
,,,,,,,,,,,,,,,,,6154940e788774dc9a1ec182,19,2022-02-12_17h00.03,lexical_decision_task_DD_L6,2021.2.3,MacIntel,59.99880002,z,1,1.920665,,,,,,,,1.920665,1,0,2,2,15,1,1001,WHAISE,z,,,,,,,,,,,,,,,,,,,,,,,,,,,,,,,,,,,,,,,,,,,,,,,,,,,,,,,,,,,,,,,,,,,
,,,,,,,,,,,,,,,,,6154940e788774dc9a1ec182,19,2022-02-12_17h00.03,lexical_decision_task_DD_L6,2021.2.3,MacIntel,59.99880002,z,1,1.09475,,,,,,,,1.09475,1,0,3,3,9,1,1001,FARINY,z,,,,,,,,,,,,,,,,,,,,,,,,,,,,,,,,,,,,,,,,,,,,,,,,,,,,,,,,,,,,,,,,,,,
,,,,,,,,,,,,,,,,,6154940e788774dc9a1ec182,19,2022-02-12_17h00.03,lexical_decision_task_DD_L6,2021.2.3,MacIntel,59.99880002,z,1,1.85044,,,,,,,,1.85044,1,0,4,4,8,1,1001,ASLERT,z,,,,,,,,,,,,,,,,,,,,,,,,,,,,,,,,,,,,,,,,,,,,,,,,,,,,,,,,,,,,,,,,,,,
,,,,,,,,,,,,,,,,,6154940e788774dc9a1ec182,19,2022-02-12_17h00.03,lexical_decision_task_DD_L6,2021.2.3,MacIntel,59.99880002,z,1,0.244575,,,,,,,,0.244575,1,0,5,5,12,1,1001,SPRINY,z,,,,,,,,,,,,,,,,,,,,,,,,,,,,,,,,,,,,,,,,,,,,,,,,,,,,,,,,,,,,,,,,,,,
,,,,,,,,,,,,,,,,,6154940e788774dc9a1ec182,19,2022-02-12_17h00.03,lexical_decision_task_DD_L6,2021.2.3,MacIntel,59.99880002,m,1,0.71305,,,,,,,,0.71305,1,0,6,6,1,1,1001,ADJUST,m,,,,,,,,,,,,,,,,,,,,,,,,,,,,,,,,,,,,,,,,,,,,,,,,,,,,,,,,,,,,,,,,,,,
,,,,,,,,,,,,,,,,,6154940e788774dc9a1ec182,19,2022-02-12_17h00.03,lexical_decision_task_DD_L6,2021.2.3,MacIntel,59.99880002,m,1,0.808495,,,,,,,,0.808495,1,0,7,7,6,1,1001,ZOMBIE,m,,,,,,,,,,,,,,,,,,,,,,,,,,,,,,,,,,,,,,,,,,,,,,,,,,,,,,,,,,,,,,,,,,,
,,,,,,,,,,,,,,,,,6154940e788774dc9a1ec182,19,2022-02-12_17h00.03,lexical_decision_task_DD_L6,2021.2.3,MacIntel,59.99880002,m,1,0.72884,,,,,,,,0.72884,1,0,8,8,4,1,1001,SQUEAK,m,,,,,,,,,,,,,,,,,,,,,,,,,,,,,,,,,,,,,,,,,,,,,,,,,,,,,,,,,,,,,,,,,,,
,,,,,,,,,,,,,,,,,6154940e788774dc9a1ec182,19,2022-02-12_17h00.03,lexical_decision_task_DD_L6,2021.2.3,MacIntel,59.99880002,m,1,1.650695,,,,,,,,1.650695,1,0,9,9,0,1,1001,UTOPIA,m,,,,,,,,,,,,,,,,,,,,,,,,,,,,,,,,,,,,,,,,,,,,,,,,,,,,,,,,,,,,,,,,,,,
,,,,,,,,,,,,,,,,,6154940e788774dc9a1ec182,19,2022-02-12_17h00.03,lexical_decision_task_DD_L6,2021.2.3,MacIntel,59.99880002,z,1,0.93718,,,,,,,,0.93718,1,0,10,10,14,1,1001,THRALE,z,,,,,,,,,,,,,,,,,,,,,,,,,,,,,,,,,,,,,,,,,,,,,,,,,,,,,,,,,,,,,,,,,,,
,,,,,,,,,,,,,,,,,6154940e788774dc9a1ec182,19,2022-02-12_17h00.03,lexical_decision_task_DD_L6,2021.2.3,MacIntel,59.99880002,z,1,0.87519,,,,,,,,0.87519,1,0,11,11,13,1,1001,ROUPET,z,,,,,,,,,,,,,,,,,,,,,,,,,,,,,,,,,,,,,,,,,,,,,,,,,,,,,,,,,,,,,,,,,,,
,,,,,,,,,,,,,,,,,6154940e788774dc9a1ec182,19,2022-02-12_17h00.03,lexical_decision_task_DD_L6,2021.2.3,MacIntel,59.99880002,m,1,0.764245,,,,,,,,0.764245,1,0,12,12,3,1,1001,MATRIX,m,,,,,,,,,,,,,,,,,,,,,,,,,,,,,,,,,,,,,,,,,,,,,,,,,,,,,,,,,,,,,,,,,,,
,,,,,,,,,,,,,,,,,6154940e788774dc9a1ec182,19,2022-02-12_17h00.03,lexical_decision_task_DD_L6,2021.2.3,MacIntel,59.99880002,z,1,1.58258,,,,,,,,1.58258,1,0,13,13,11,1,1001,RASHET,z,,,,,,,,,,,,,,,,,,,,,,,,,,,,,,,,,,,,,,,,,,,,,,,,,,,,,,,,,,,,,,,,,,,
,,,,,,,,,,,,,,,,,6154940e788774dc9a1ec182,19,2022-02-12_17h00.03,lexical_decision_task_DD_L6,2021.2.3,MacIntel,59.99880002,z,1,1.067675,,,,,,,,1.067675,1,0,14,14,10,1,1001,INLADE,z,,,,,,,,,,,,,,,,,,,,,,,,,,,,,,,,,,,,,,,,,,,,,,,,,,,,,,,,,,,,,,,,,,,
,,,,,,,,,,,,,,,,,6154940e788774dc9a1ec182,19,2022-02-12_17h00.03,lexical_decision_task_DD_L6,2021.2.3,MacIntel,59.99880002,m,1,0.580665,,,,,,,,0.580665,1,0,15,15,7,1,1001,VOLUME,m,,,,,,,,,,,,,,,,,,,,,,,,,,,,,,,,,,,,,,,,,,,,,,,,,,,,,,,,,,,,,,,,,,,
,,0.024913194,-0.394605035,1,0,0,,,,,,1,end_of_practice,"You have completed the practice trials. During the experimental trials, you will not receive feedback. 
Before you begin, please ensure that you are in a comfortable and quiet location and will not be disturbed for about 15 minutes, as we cannot use your data if you do not complete all the trials. 
 When you are ready to start the experimental trials, please press space or touch the button below.",,,6154940e788774dc9a1ec182,19,2022-02-12_17h00.03,lexical_decision_task_DD_L6,2021.2.3,MacIntel,59.99880002,,,,,,,,,,,,,,,,,,,,,instr_done_button,0,0,0,0,1,,,,,,,,,,,,,,,,,,,,,,,,,,,,,,,,,,,,,,,,,,,,,,,,,,,,,,,,,,,,,
,,,,,,,,,,,,,,,,,6154940e788774dc9a1ec182,19,2022-02-12_17h00.03,lexical_decision_task_DD_L6,2021.2.3,MacIntel,59.99880002,,,,,,,,,,,2.548595,1,,,,,,,,,,,,,,,z,1,2.548595,,,,,,,,0.024913194,-0.394605035,0,0,0,,0,0,0,116,1,BALGY,LB,z,z,./images/BALGYLB.png,,,,,,,,,,,,,,,,,,,,,,,,,,,,,,,,,,,
,,,,,,,,,,,,,,,,,6154940e788774dc9a1ec182,19,2022-02-12_17h00.03,lexical_decision_task_DD_L6,2021.2.3,MacIntel,59.99880002,,,,,,,,,,,1.33146,0,,,,,,,,,,,,,,,m,0,1.33146,,,,,,,,0.024913194,-0.394605035,0,0,0,,0,1,1,94,1,BLANS,HB,z,z,./images/BLANSHB.png,,,,,,,,,,,,,,,,,,,,,,,,,,,,,,,,,,,
,,,,,,,,,,,,,,,,,6154940e788774dc9a1ec182,19,2022-02-12_17h00.03,lexical_decision_task_DD_L6,2021.2.3,MacIntel,59.99880002,,,,,,,,,,,1.319135,0,,,,,,,,,,,,,,,m,0,1.319135,,,,,,,,0.024913194,-0.394605035,0,0,0,,0,2,2,97,1,CHIDS,HB,z,z,./images/CHIDSHB.png,,,,,,,,,,,,,,,,,,,,,,,,,,,,,,,,,,,
,,,,,,,,,,,,,,,,,6154940e788774dc9a1ec182,19,2022-02-12_17h00.03,lexical_decision_task_DD_L6,2021.2.3,MacIntel,59.99880002,,,,,,,,,,,1.5312,1,,,,,,,,,,,,,,,z,1,1.5312,,,,,,,,0.024913194,-0.394605035,0,0,0,,0,3,3,100,1,DRIBS,HB,z,z,./images/DRIBSHB.png,,,,,,,,,,,,,,,,,,,,,,,,,,,,,,,,,,,
,,,,,,,,,,,,,,,,,6154940e788774dc9a1ec182,19,2022-02-12_17h00.03,lexical_decision_task_DD_L6,2021.2.3,MacIntel,59.99880002,,,,,,,,,,,1.263755,1,,,,,,,,,,,,,,,m,1,1.263755,,,,,,,,0.024913194,-0.394605035,0,0,0,,0,4,4,52,1,DESERT,C,m,m,./images/DESERT.png,,,,,,,,,,,,,,,,,,,,,,,,,,,,,,,,,,,
,,,,,,,,,,,,,,,,,6154940e788774dc9a1ec182,19,2022-02-12_17h00.03,lexical_decision_task_DD_L6,2021.2.3,MacIntel,59.99880002,,,,,,,,,,,0.655045,1,,,,,,,,,,,,,,,m,1,0.655045,,,,,,,,0.024913194,-0.394605035,0,0,0,,0,5,5,1,1,TOWEL,C,m,m,./images/TOWEL.png,,,,,,,,,,,,,,,,,,,,,,,,,,,,,,,,,,,
,,,,,,,,,,,,,,,,,6154940e788774dc9a1ec182,19,2022-02-12_17h00.03,lexical_decision_task_DD_L6,2021.2.3,MacIntel,59.99880002,,,,,,,,,,,1.000445,1,,,,,,,,,,,,,,,m,1,1.000445,,,,,,,,0.024913194,-0.394605035,0,0,0,,0,6,6,71,1,BUBBLE,HB,m,m,./images/BUBBLEHB.png,,,,,,,,,,,,,,,,,,,,,,,,,,,,,,,,,,,
,,,,,,,,,,,,,,,,,6154940e788774dc9a1ec182,19,2022-02-12_17h00.03,lexical_decision_task_DD_L6,2021.2.3,MacIntel,59.99880002,,,,,,,,,,,0.630705,1,,,,,,,,,,,,,,,m,1,0.630705,,,,,,,,0.024913194,-0.394605035,0,0,0,,0,7,7,63,1,BAKER,LB,m,m,./images/BAKERLB.png,,,,,,,,,,,,,,,,,,,,,,,,,,,,,,,,,,,
,,,,,,,,,,,,,,,,,6154940e788774dc9a1ec182,19,2022-02-12_17h00.03,lexical_decision_task_DD_L6,2021.2.3,MacIntel,59.99880002,,,,,,,,,,,1.065885,0,,,,,,,,,,,,,,,z,0,1.065885,,,,,,,,0.024913194,-0.394605035,0,0,0,,0,8,8,66,1,STATUE,LB,m,m,./images/STATUELB.png,,,,,,,,,,,,,,,,,,,,,,,,,,,,,,,,,,,
,,,,,,,,,,,,,,,,,6154940e788774dc9a1ec182,19,2022-02-12_17h00.03,lexical_decision_task_DD_L6,2021.2.3,MacIntel,59.99880002,,,,,,,,,,,1.748215,1,,,,,,,,,,,,,,,m,1,1.748215,,,,,,,,0.024913194,-0.394605035,0,0,0,,0,9,9,20,1,GRANNY,HB,m,m,./images/GRANNYHB.png,,,,,,,,,,,,,,,,,,,,,,,,,,,,,,,,,,,
,,,,,,,,,,,,,,,,,6154940e788774dc9a1ec182,19,2022-02-12_17h00.03,lexical_decision_task_DD_L6,2021.2.3,MacIntel,59.99880002,,,,,,,,,,,0.924405,1,,,,,,,,,,,,,,,z,1,0.924405,,,,,,,,0.024913194,-0.394605035,0,0,0,,0,10,10,146,1,MOOST,LB,z,z,./images/MOOSTLB.png,,,,,,,,,,,,,,,,,,,,,,,,,,,,,,,,,,,
,,,,,,,,,,,,,,,,,6154940e788774dc9a1ec182,19,2022-02-12_17h00.03,lexical_decision_task_DD_L6,2021.2.3,MacIntel,59.99880002,,,,,,,,,,,0.91342,1,,,,,,,,,,,,,,,z,1,0.91342,,,,,,,,0.024913194,-0.394605035,0,0,0,,0,11,11,135,1,JOODY,C,z,z,./images/JOODY.png,,,,,,,,,,,,,,,,,,,,,,,,,,,,,,,,,,,
,,,,,,,,,,,,,,,,,6154940e788774dc9a1ec182,19,2022-02-12_17h00.03,lexical_decision_task_DD_L6,2021.2.3,MacIntel,59.99880002,,,,,,,,,,,0.86429,1,,,,,,,,,,,,,,,z,1,0.86429,,,,,,,,0.024913194,-0.394605035,0,0,0,,0,12,12,131,1,NACES,LB,z,z,./images/NACESLB.png,,,,,,,,,,,,,,,,,,,,,,,,,,,,,,,,,,,
,,,,,,,,,,,,,,,,,6154940e788774dc9a1ec182,19,2022-02-12_17h00.03,lexical_decision_task_DD_L6,2021.2.3,MacIntel,59.99880002,,,,,,,,,,,0.764525,1,,,,,,,,,,,,,,,z,1,0.764525,,,,,,,,0.024913194,-0.394605035,0,0,0,,0,13,13,152,1,FRAIN,LB,z,z,./images/FRAINLB.png,,,,,,,,,,,,,,,,,,,,,,,,,,,,,,,,,,,
,,,,,,,,,,,,,,,,,6154940e788774dc9a1ec182,19,2022-02-12_17h00.03,lexical_decision_task_DD_L6,2021.2.3,MacIntel,59.99880002,,,,,,,,,,,1.860175,1,,,,,,,,,,,,,,,z,1,1.860175,,,,,,,,0.024913194,-0.394605035,0,0,0,,0,14,14,121,1,CEERS,HB,z,z,./images/CEERSHB.png,,,,,,,,,,,,,,,,,,,,,,,,,,,,,,,,,,,
,,,,,,,,,,,,,,,,,6154940e788774dc9a1ec182,19,2022-02-12_17h00.03,lexical_decision_task_DD_L6,2021.2.3,MacIntel,59.99880002,,,,,,,,,,,0.87221,1,,,,,,,,,,,,,,,m,1,0.87221,,,,,,,,0.024913194,-0.394605035,0,0,0,,0,15,15,68,1,VALLEY,HB,m,m,./images/VALLEYHB.png,,,,,,,,,,,,,,,,,,,,,,,,,,,,,,,,,,,
,,,,,,,,,,,,,,,,,6154940e788774dc9a1ec182,19,2022-02-12_17h00.03,lexical_decision_task_DD_L6,2021.2.3,MacIntel,59.99880002,,,,,,,,,,,0.883,1,,,,,,,,,,,,,,,z,1,0.883,,,,,,,,0.024913194,-0.394605035,0,0,0,,0,16,16,92,1,PAIMS,LB,z,z,./images/PAIMSLB.png,,,,,,,,,,,,,,,,,,,,,,,,,,,,,,,,,,,
,,,,,,,,,,,,,,,,,6154940e788774dc9a1ec182,19,2022-02-12_17h00.03,lexical_decision_task_DD_L6,2021.2.3,MacIntel,59.99880002,,,,,,,,,,,0.756615,1,,,,,,,,,,,,,,,z,1,0.756615,,,,,,,,0.024913194,-0.394605035,0,0,0,,0,17,17,137,1,JOOST,LB,z,z,./images/JOOSTLB.png,,,,,,,,,,,,,,,,,,,,,,,,,,,,,,,,,,,
,,,,,,,,,,,,,,,,,6154940e788774dc9a1ec182,19,2022-02-12_17h00.03,lexical_decision_task_DD_L6,2021.2.3,MacIntel,59.99880002,,,,,,,,,,,1.045095,1,,,,,,,,,,,,,,,z,1,1.045095,,,,,,,,0.024913194,-0.394605035,0,0,0,,0,18,18,155,1,CANGY,LB,z,z,./images/CANGYLB.png,,,,,,,,,,,,,,,,,,,,,,,,,,,,,,,,,,,
,,,,,,,,,,,,,,,,,6154940e788774dc9a1ec182,19,2022-02-12_17h00.03,lexical_decision_task_DD_L6,2021.2.3,MacIntel,59.99880002,,,,,,,,,,,0.74383,1,,,,,,,,,,,,,,,m,1,0.74383,,,,,,,,0.024913194,-0.394605035,0,0,0,,0,19,19,48,1,SHIELD,LB,m,m,./images/SHIELDLB.png,,,,,,,,,,,,,,,,,,,,,,,,,,,,,,,,,,,
,,,,,,,,,,,,,,,,,6154940e788774dc9a1ec182,19,2022-02-12_17h00.03,lexical_decision_task_DD_L6,2021.2.3,MacIntel,59.99880002,,,,,,,,,,,0.66651,1,,,,,,,,,,,,,,,m,1,0.66651,,,,,,,,0.024913194,-0.394605035,0,0,0,,0,20,20,58,1,CANOE,C,m,m,./images/CANOE.png,,,,,,,,,,,,,,,,,,,,,,,,,,,,,,,,,,,
,,,,,,,,,,,,,,,,,6154940e788774dc9a1ec182,19,2022-02-12_17h00.03,lexical_decision_task_DD_L6,2021.2.3,MacIntel,59.99880002,,,,,,,,,,,0.56404,1,,,,,,,,,,,,,,,m,1,0.56404,,,,,,,,0.024913194,-0.394605035,0,0,0,,0,21,21,49,1,BISHOP,C,m,m,./images/BISHOP.png,,,,,,,,,,,,,,,,,,,,,,,,,,,,,,,,,,,
,,,,,,,,,,,,,,,,,6154940e788774dc9a1ec182,19,2022-02-12_17h00.03,lexical_decision_task_DD_L6,2021.2.3,MacIntel,59.99880002,,,,,,,,,,,0.865765,1,,,,,,,,,,,,,,,z,1,0.865765,,,,,,,,0.024913194,-0.394605035,0,0,0,,0,22,22,112,1,MYING,HB,z,z,./images/MYINGHB.png,,,,,,,,,,,,,,,,,,,,,,,,,,,,,,,,,,,
,,,,,,,,,,,,,,,,,6154940e788774dc9a1ec182,19,2022-02-12_17h00.03,lexical_decision_task_DD_L6,2021.2.3,MacIntel,59.99880002,,,,,,,,,,,0.746045,1,,,,,,,,,,,,,,,z,1,0.746045,,,,,,,,0.024913194,-0.394605035,0,0,0,,0,23,23,163,1,GAMBA,HB,z,z,./images/GAMBAHB.png,,,,,,,,,,,,,,,,,,,,,,,,,,,,,,,,,,,
,,,,,,,,,,,,,,,,,6154940e788774dc9a1ec182,19,2022-02-12_17h00.03,lexical_decision_task_DD_L6,2021.2.3,MacIntel,59.99880002,,,,,,,,,,,0.482265,0,,,,,,,,,,,,,,,m,0,0.482265,,,,,,,,0.024913194,-0.394605035,0,0,0,,0,24,24,108,1,GRUET,C,z,z,./images/GRUET.png,,,,,,,,,,,,,,,,,,,,,,,,,,,,,,,,,,,
,,,,,,,,,,,,,,,,,6154940e788774dc9a1ec182,19,2022-02-12_17h00.03,lexical_decision_task_DD_L6,2021.2.3,MacIntel,59.99880002,,,,,,,,,,,0.7538,1,,,,,,,,,,,,,,,z,1,0.7538,,,,,,,,0.024318576,-0.398962674,0,0,0,,0,25,25,111,1,HOSSE,C,z,z,./images/HOSSE.png,,,,,,,,,,,,,,,,,,,,,,,,,,,,,,,,,,,
,,,,,,,,,,,,,,,,,6154940e788774dc9a1ec182,19,2022-02-12_17h00.03,lexical_decision_task_DD_L6,2021.2.3,MacIntel,59.99880002,,,,,,,,,,,0.70322,1,,,,,,,,,,,,,,,m,1,0.70322,,,,,,,,0.024318576,-0.398962674,0,0,0,,0,26,26,81,1,DRILL,LB,m,m,./images/DRILLLB.png,,,,,,,,,,,,,,,,,,,,,,,,,,,,,,,,,,,
,,,,,,,,,,,,,,,,,6154940e788774dc9a1ec182,19,2022-02-12_17h00.03,lexical_decision_task_DD_L6,2021.2.3,MacIntel,59.99880002,,,,,,,,,,,0.634565,1,,,,,,,,,,,,,,,z,1,0.634565,,,,,,,,0.024318576,-0.398962674,0,0,0,,0,27,27,144,1,NAIRY,C,z,z,./images/NAIRY.png,,,,,,,,,,,,,,,,,,,,,,,,,,,,,,,,,,,
,,,,,,,,,,,,,,,,,6154940e788774dc9a1ec182,19,2022-02-12_17h00.03,lexical_decision_task_DD_L6,2021.2.3,MacIntel,59.99880002,,,,,,,,,,,1.042125,1,,,,,,,,,,,,,,,z,1,1.042125,,,,,,,,0.024318576,-0.398962674,0,0,0,,0,28,28,127,1,NINDY,HB,z,z,./images/NINDYHB.png,,,,,,,,,,,,,,,,,,,,,,,,,,,,,,,,,,,
,,,,,,,,,,,,,,,,,6154940e788774dc9a1ec182,19,2022-02-12_17h00.03,lexical_decision_task_DD_L6,2021.2.3,MacIntel,59.99880002,,,,,,,,,,,0.61774,1,,,,,,,,,,,,,,,z,1,0.61774,,,,,,,,0.024318576,-0.398962674,0,0,0,,0,29,29,129,1,PRANS,C,z,z,./images/PRANS.png,,,,,,,,,,,,,,,,,,,,,,,,,,,,,,,,,,,
,,,,,,,,,,,,,,,,,6154940e788774dc9a1ec182,19,2022-02-12_17h00.03,lexical_decision_task_DD_L6,2021.2.3,MacIntel,59.99880002,,,,,,,,,,,0.89501,1,,,,,,,,,,,,,,,m,1,0.89501,,,,,,,,0.024318576,-0.398962674,0,0,0,,0,30,30,80,1,PLANET,HB,m,m,./images/PLANETHB.png,,,,,,,,,,,,,,,,,,,,,,,,,,,,,,,,,,,
,,,,,,,,,,,,,,,,,6154940e788774dc9a1ec182,19,2022-02-12_17h00.03,lexical_decision_task_DD_L6,2021.2.3,MacIntel,59.99880002,,,,,,,,,,,0.89944,1,,,,,,,,,,,,,,,m,1,0.89944,,,,,,,,0.024318576,-0.398962674,0,0,0,,0,31,31,65,1,SPINE,HB,m,m,./images/SPINEHB.png,,,,,,,,,,,,,,,,,,,,,,,,,,,,,,,,,,,
,,,,,,,,,,,,,,,,,6154940e788774dc9a1ec182,19,2022-02-12_17h00.03,lexical_decision_task_DD_L6,2021.2.3,MacIntel,59.99880002,,,,,,,,,,,0.78186,1,,,,,,,,,,,,,,,m,1,0.78186,,,,,,,,0.024318576,-0.398962674,0,0,0,,0,32,32,69,1,ARROW,LB,m,m,./images/ARROWLB.png,,,,,,,,,,,,,,,,,,,,,,,,,,,,,,,,,,,
,,,,,,,,,,,,,,,,,6154940e788774dc9a1ec182,19,2022-02-12_17h00.03,lexical_decision_task_DD_L6,2021.2.3,MacIntel,59.99880002,,,,,,,,,,,0.88955,1,,,,,,,,,,,,,,,z,1,0.88955,,,,,,,,0.081358507,-0.268072917,0,0,0,,0,33,33,133,1,POWDY,HB,z,z,./images/POWDYHB.png,,,,,,,,,,,,,,,,,,,,,,,,,,,,,,,,,,,
,,,,,,,,,,,,,,,,,6154940e788774dc9a1ec182,19,2022-02-12_17h00.03,lexical_decision_task_DD_L6,2021.2.3,MacIntel,59.99880002,,,,,,,,,,,1.146065,1,,,,,,,,,,,,,,,z,1,1.146065,,,,,,,,0.081358507,-0.268072917,0,0,0,,0,34,34,151,1,TINKY,HB,z,z,./images/TINKYHB.png,,,,,,,,,,,,,,,,,,,,,,,,,,,,,,,,,,,
,,,,,,,,,,,,,,,,,6154940e788774dc9a1ec182,19,2022-02-12_17h00.03,lexical_decision_task_DD_L6,2021.2.3,MacIntel,59.99880002,,,,,,,,,,,0.92147,1,,,,,,,,,,,,,,,m,1,0.92147,,,,,,,,0.081358507,-0.268072917,0,0,0,,0,35,35,44,1,BASKET,HB,m,m,./images/BASKETHB.png,,,,,,,,,,,,,,,,,,,,,,,,,,,,,,,,,,,
,,,,,,,,,,,,,,,,,6154940e788774dc9a1ec182,19,2022-02-12_17h00.03,lexical_decision_task_DD_L6,2021.2.3,MacIntel,59.99880002,,,,,,,,,,,0.714255,1,,,,,,,,,,,,,,,m,1,0.714255,,,,,,,,0.081358507,-0.268072917,0,0,0,,0,36,36,39,1,CANDY,LB,m,m,./images/CANDYLB.png,,,,,,,,,,,,,,,,,,,,,,,,,,,,,,,,,,,
,,,,,,,,,,,,,,,,,6154940e788774dc9a1ec182,19,2022-02-12_17h00.03,lexical_decision_task_DD_L6,2021.2.3,MacIntel,59.99880002,,,,,,,,,,,3.63282,1,,,,,,,,,,,,,,,m,1,3.63282,,,,,,,,0.081358507,-0.268072917,0,0,0,,0,37,37,43,1,STOOL,C,m,m,./images/STOOL.png,,,,,,,,,,,,,,,,,,,,,,,,,,,,,,,,,,,
,,,,,,,,,,,,,,,,,6154940e788774dc9a1ec182,19,2022-02-12_17h00.03,lexical_decision_task_DD_L6,2021.2.3,MacIntel,59.99880002,,,,,,,,,,,1.54655,0,,,,,,,,,,,,,,,z,0,1.54655,,,,,,,,0.083359375,-0.257313368,0,0,0,,0,38,38,53,1,POSTER,HB,m,m,./images/POSTERHB.png,,,,,,,,,,,,,,,,,,,,,,,,,,,,,,,,,,,
,,,,,,,,,,,,,,,,,6154940e788774dc9a1ec182,19,2022-02-12_17h00.03,lexical_decision_task_DD_L6,2021.2.3,MacIntel,59.99880002,,,,,,,,,,,0.75732,1,,,,,,,,,,,,,,,z,1,0.75732,,,,,,,,0.083359375,-0.257313368,0,0,0,,0,39,39,164,1,SGREW,LB,z,z,./images/SGREWLB.png,,,,,,,,,,,,,,,,,,,,,,,,,,,,,,,,,,,
,,,,,,,,,,,,,,,,,6154940e788774dc9a1ec182,19,2022-02-12_17h00.03,lexical_decision_task_DD_L6,2021.2.3,MacIntel,59.99880002,,,,,,,,,,,0.65249,1,,,,,,,,,,,,,,,m,1,0.65249,,,,,,,,0.083359375,-0.257313368,0,0,0,,0,40,40,29,1,PISTOL,HB,m,m,./images/PISTOLHB.png,,,,,,,,,,,,,,,,,,,,,,,,,,,,,,,,,,,
,,,,,,,,,,,,,,,,,6154940e788774dc9a1ec182,19,2022-02-12_17h00.03,lexical_decision_task_DD_L6,2021.2.3,MacIntel,59.99880002,,,,,,,,,,,1.24722,1,,,,,,,,,,,,,,,m,1,1.24722,,,,,,,,0.041744792,-0.391115451,1,0,0,,0,41,41,50,1,PILOT,HB,m,m,./images/PILOTHB.png,break_done_button,,,,,,,,,,,,,,,,,,,,,,,,,,,,,,,,,,
,,,,,,,,,,,,,,,,,6154940e788774dc9a1ec182,19,2022-02-12_17h00.03,lexical_decision_task_DD_L6,2021.2.3,MacIntel,59.99880002,,,,,,,,,,,0.86019,1,,,,,,,,,,,,,,,z,1,0.86019,,,,,,,,0.097361111,-0.385946181,0,0,0,,0,42,42,101,1,GLEET,LB,z,z,./images/GLEETLB.png,,,,,,,,,,,,,,,,,,,,,,,,,,,,,,,,,,,
,,,,,,,,,,,,,,,,,6154940e788774dc9a1ec182,19,2022-02-12_17h00.03,lexical_decision_task_DD_L6,2021.2.3,MacIntel,59.99880002,,,,,,,,,,,0.75153,1,,,,,,,,,,,,,,,m,1,0.75153,,,,,,,,0.097361111,-0.385946181,0,0,0,,0,43,43,17,1,PARADE,HB,m,m,./images/PARADEHB.png,,,,,,,,,,,,,,,,,,,,,,,,,,,,,,,,,,,
,,,,,,,,,,,,,,,,,6154940e788774dc9a1ec182,19,2022-02-12_17h00.03,lexical_decision_task_DD_L6,2021.2.3,MacIntel,59.99880002,,,,,,,,,,,0.712475,1,,,,,,,,,,,,,,,m,1,0.712475,,,,,,,,0.097361111,-0.385946181,0,0,0,,0,44,44,41,1,STREAM,HB,m,m,./images/STREAMHB.png,,,,,,,,,,,,,,,,,,,,,,,,,,,,,,,,,,,
,,,,,,,,,,,,,,,,,6154940e788774dc9a1ec182,19,2022-02-12_17h00.03,lexical_decision_task_DD_L6,2021.2.3,MacIntel,59.99880002,,,,,,,,,,,0.955765,1,,,,,,,,,,,,,,,z,1,0.955765,,,,,,,,0.097361111,-0.385946181,0,0,0,,0,45,45,147,1,ZOLES,C,z,z,./images/ZOLES.png,,,,,,,,,,,,,,,,,,,,,,,,,,,,,,,,,,,
,,,,,,,,,,,,,,,,,6154940e788774dc9a1ec182,19,2022-02-12_17h00.03,lexical_decision_task_DD_L6,2021.2.3,MacIntel,59.99880002,,,,,,,,,,,0.75099,1,,,,,,,,,,,,,,,m,1,0.75099,,,,,,,,0.097361111,-0.385946181,0,0,0,,0,46,46,78,1,BROOM,LB,m,m,./images/BROOMLB.png,,,,,,,,,,,,,,,,,,,,,,,,,,,,,,,,,,,
,,,,,,,,,,,,,,,,,6154940e788774dc9a1ec182,19,2022-02-12_17h00.03,lexical_decision_task_DD_L6,2021.2.3,MacIntel,59.99880002,,,,,,,,,,,0.698885,1,,,,,,,,,,,,,,,z,1,0.698885,,,,,,,,0.097361111,-0.385946181,0,0,0,,0,47,47,93,1,SMONE,C,z,z,./images/SMONE.png,,,,,,,,,,,,,,,,,,,,,,,,,,,,,,,,,,,
,,,,,,,,,,,,,,,,,6154940e788774dc9a1ec182,19,2022-02-12_17h00.03,lexical_decision_task_DD_L6,2021.2.3,MacIntel,59.99880002,,,,,,,,,,,0.971485,1,,,,,,,,,,,,,,,z,1,0.971485,,,,,,,,0.097361111,-0.385946181,0,0,0,,0,48,48,87,1,TRING,C,z,z,./images/TRING.png,,,,,,,,,,,,,,,,,,,,,,,,,,,,,,,,,,,
,,,,,,,,,,,,,,,,,6154940e788774dc9a1ec182,19,2022-02-12_17h00.03,lexical_decision_task_DD_L6,2021.2.3,MacIntel,59.99880002,,,,,,,,,,,2.413465,1,,,,,,,,,,,,,,,z,1,2.413465,,,,,,,,0.097361111,-0.385946181,0,0,0,,0,49,49,103,1,FLORT,HB,z,z,./images/FLORTHB.png,,,,,,,,,,,,,,,,,,,,,,,,,,,,,,,,,,,
,,,,,,,,,,,,,,,,,6154940e788774dc9a1ec182,19,2022-02-12_17h00.03,lexical_decision_task_DD_L6,2021.2.3,MacIntel,59.99880002,,,,,,,,,,,0.748535,1,,,,,,,,,,,,,,,m,1,0.748535,,,,,,,,0.097361111,-0.385946181,0,0,0,,0,50,50,8,1,CLIFF,HB,m,m,./images/CLIFFHB.png,,,,,,,,,,,,,,,,,,,,,,,,,,,,,,,,,,,
,,,,,,,,,,,,,,,,,6154940e788774dc9a1ec182,19,2022-02-12_17h00.03,lexical_decision_task_DD_L6,2021.2.3,MacIntel,59.99880002,,,,,,,,,,,0.879005,1,,,,,,,,,,,,,,,z,1,0.879005,,,,,,,,0.097361111,-0.385946181,0,0,0,,0,51,51,130,1,CRILL,HB,z,z,./images/CRILLHB.png,,,,,,,,,,,,,,,,,,,,,,,,,,,,,,,,,,,
,,,,,,,,,,,,,,,,,6154940e788774dc9a1ec182,19,2022-02-12_17h00.03,lexical_decision_task_DD_L6,2021.2.3,MacIntel,59.99880002,,,,,,,,,,,0.73096,1,,,,,,,,,,,,,,,m,1,0.73096,,,,,,,,0.097361111,-0.385946181,0,0,0,,0,52,52,73,1,GLOVE,C,m,m,./images/GLOVE.png,,,,,,,,,,,,,,,,,,,,,,,,,,,,,,,,,,,
,,,,,,,,,,,,,,,,,6154940e788774dc9a1ec182,19,2022-02-12_17h00.03,lexical_decision_task_DD_L6,2021.2.3,MacIntel,59.99880002,,,,,,,,,,,0.56579,0,,,,,,,,,,,,,,,m,0,0.56579,,,,,,,,0.097361111,-0.385946181,0,0,0,,0,53,53,99,1,BACKY,C,z,z,./images/BACKY.png,,,,,,,,,,,,,,,,,,,,,,,,,,,,,,,,,,,
,,,,,,,,,,,,,,,,,6154940e788774dc9a1ec182,19,2022-02-12_17h00.03,lexical_decision_task_DD_L6,2021.2.3,MacIntel,59.99880002,,,,,,,,,,,1.01579,1,,,,,,,,,,,,,,,m,1,1.01579,,,,,,,,0.097361111,-0.385946181,0,0,0,,0,54,54,11,1,MEDAL,HB,m,m,./images/MEDALHB.png,,,,,,,,,,,,,,,,,,,,,,,,,,,,,,,,,,,
,,,,,,,,,,,,,,,,,6154940e788774dc9a1ec182,19,2022-02-12_17h00.03,lexical_decision_task_DD_L6,2021.2.3,MacIntel,59.99880002,,,,,,,,,,,0.831065,1,,,,,,,,,,,,,,,m,1,0.831065,,,,,,,,0.097361111,-0.385946181,0,0,0,,0,55,55,75,1,HAMMER,LB,m,m,./images/HAMMERLB.png,,,,,,,,,,,,,,,,,,,,,,,,,,,,,,,,,,,
,,,,,,,,,,,,,,,,,6154940e788774dc9a1ec182,19,2022-02-12_17h00.03,lexical_decision_task_DD_L6,2021.2.3,MacIntel,59.99880002,,,,,,,,,,,0.67392,1,,,,,,,,,,,,,,,z,1,0.67392,,,,,,,,0.097361111,-0.385946181,0,0,0,,0,56,56,126,1,GUELS,C,z,z,./images/GUELS.png,,,,,,,,,,,,,,,,,,,,,,,,,,,,,,,,,,,
,,,,,,,,,,,,,,,,,6154940e788774dc9a1ec182,19,2022-02-12_17h00.03,lexical_decision_task_DD_L6,2021.2.3,MacIntel,59.99880002,,,,,,,,,,,0.91207,1,,,,,,,,,,,,,,,z,1,0.91207,,,,,,,,0.097361111,-0.385946181,0,0,0,,0,57,57,143,1,MONGS,LB,z,z,./images/MONGSLB.png,,,,,,,,,,,,,,,,,,,,,,,,,,,,,,,,,,,
,,,,,,,,,,,,,,,,,6154940e788774dc9a1ec182,19,2022-02-12_17h00.03,lexical_decision_task_DD_L6,2021.2.3,MacIntel,59.99880002,,,,,,,,,,,1.200555,0,,,,,,,,,,,,,,,m,0,1.200555,,,,,,,,0.097361111,-0.385946181,0,0,0,,0,58,58,145,1,LAMEL,HB,z,z,./images/LAMELHB.png,,,,,,,,,,,,,,,,,,,,,,,,,,,,,,,,,,,
,,,,,,,,,,,,,,,,,6154940e788774dc9a1ec182,19,2022-02-12_17h00.03,lexical_decision_task_DD_L6,2021.2.3,MacIntel,59.99880002,,,,,,,,,,,0.85344,1,,,,,,,,,,,,,,,m,1,0.85344,,,,,,,,0.097361111,-0.385946181,0,0,0,,0,59,59,79,1,RULER,C,m,m,./images/RULER.png,,,,,,,,,,,,,,,,,,,,,,,,,,,,,,,,,,,
,,,,,,,,,,,,,,,,,6154940e788774dc9a1ec182,19,2022-02-12_17h00.03,lexical_decision_task_DD_L6,2021.2.3,MacIntel,59.99880002,,,,,,,,,,,2.5719,1,,,,,,,,,,,,,,,m,1,2.5719,,,,,,,,0.097361111,-0.385946181,0,0,0,,0,60,60,62,1,MAMMAL,HB,m,m,./images/MAMMALHB.png,,,,,,,,,,,,,,,,,,,,,,,,,,,,,,,,,,,
,,,,,,,,,,,,,,,,,6154940e788774dc9a1ec182,19,2022-02-12_17h00.03,lexical_decision_task_DD_L6,2021.2.3,MacIntel,59.99880002,,,,,,,,,,,2.18349,1,,,,,,,,,,,,,,,m,1,2.18349,,,,,,,,0.097361111,-0.385946181,0,0,0,,0,61,61,57,1,FERRY,LB,m,m,./images/FERRYLB.png,,,,,,,,,,,,,,,,,,,,,,,,,,,,,,,,,,,
,,,,,,,,,,,,,,,,,6154940e788774dc9a1ec182,19,2022-02-12_17h00.03,lexical_decision_task_DD_L6,2021.2.3,MacIntel,59.99880002,,,,,,,,,,,1.36227,1,,,,,,,,,,,,,,,z,1,1.36227,,,,,,,,0.097361111,-0.385946181,0,0,0,,0,62,62,142,1,PLASK,HB,z,z,./images/PLASKHB.png,,,,,,,,,,,,,,,,,,,,,,,,,,,,,,,,,,,
,,,,,,,,,,,,,,,,,6154940e788774dc9a1ec182,19,2022-02-12_17h00.03,lexical_decision_task_DD_L6,2021.2.3,MacIntel,59.99880002,,,,,,,,,,,1.54792,1,,,,,,,,,,,,,,,z,1,1.54792,,,,,,,,0.097361111,-0.385946181,0,0,0,,0,63,63,136,1,WERVE,HB,z,z,./images/WERVEHB.png,,,,,,,,,,,,,,,,,,,,,,,,,,,,,,,,,,,
,,,,,,,,,,,,,,,,,6154940e788774dc9a1ec182,19,2022-02-12_17h00.03,lexical_decision_task_DD_L6,2021.2.3,MacIntel,59.99880002,,,,,,,,,,,0.62481,1,,,,,,,,,,,,,,,m,1,0.62481,,,,,,,,0.097361111,-0.385946181,0,0,0,,0,64,64,9,1,DIVER,LB,m,m,./images/DIVERLB.png,,,,,,,,,,,,,,,,,,,,,,,,,,,,,,,,,,,
,,,,,,,,,,,,,,,,,6154940e788774dc9a1ec182,19,2022-02-12_17h00.03,lexical_decision_task_DD_L6,2021.2.3,MacIntel,59.99880002,,,,,,,,,,,0.71053,1,,,,,,,,,,,,,,,m,1,0.71053,,,,,,,,0.097361111,-0.385946181,0,0,0,,0,65,65,26,1,CLOUD,HB,m,m,./images/CLOUDHB.png,,,,,,,,,,,,,,,,,,,,,,,,,,,,,,,,,,,
,,,,,,,,,,,,,,,,,6154940e788774dc9a1ec182,19,2022-02-12_17h00.03,lexical_decision_task_DD_L6,2021.2.3,MacIntel,59.99880002,,,,,,,,,,,2.064115,1,,,,,,,,,,,,,,,z,1,2.064115,,,,,,,,0.097361111,-0.385946181,0,0,0,,0,66,66,95,1,HANTY,LB,z,z,./images/HANTYLB.png,,,,,,,,,,,,,,,,,,,,,,,,,,,,,,,,,,,
,,,,,,,,,,,,,,,,,6154940e788774dc9a1ec182,19,2022-02-12_17h00.03,lexical_decision_task_DD_L6,2021.2.3,MacIntel,59.99880002,,,,,,,,,,,0.70337,0,,,,,,,,,,,,,,,m,0,0.70337,,,,,,,,0.097361111,-0.385946181,0,0,0,,0,67,67,114,1,RIKES,C,z,z,./images/RIKES.png,,,,,,,,,,,,,,,,,,,,,,,,,,,,,,,,,,,
,,,,,,,,,,,,,,,,,6154940e788774dc9a1ec182,19,2022-02-12_17h00.03,lexical_decision_task_DD_L6,2021.2.3,MacIntel,59.99880002,,,,,,,,,,,0.613605,1,,,,,,,,,,,,,,,m,1,0.613605,,,,,,,,0.097361111,-0.385946181,0,0,0,,0,68,68,31,1,STEAK,C,m,m,./images/STEAK.png,,,,,,,,,,,,,,,,,,,,,,,,,,,,,,,,,,,
,,,,,,,,,,,,,,,,,6154940e788774dc9a1ec182,19,2022-02-12_17h00.03,lexical_decision_task_DD_L6,2021.2.3,MacIntel,59.99880002,,,,,,,,,,,0.928,1,,,,,,,,,,,,,,,m,1,0.928,,,,,,,,0.097361111,-0.385946181,0,0,0,,0,69,69,32,1,HOCKEY,HB,m,m,./images/HOCKEYHB.png,,,,,,,,,,,,,,,,,,,,,,,,,,,,,,,,,,,
,,,,,,,,,,,,,,,,,6154940e788774dc9a1ec182,19,2022-02-12_17h00.03,lexical_decision_task_DD_L6,2021.2.3,MacIntel,59.99880002,,,,,,,,,,,0.5975,1,,,,,,,,,,,,,,,m,1,0.5975,,,,,,,,0.097361111,-0.385946181,0,0,0,,0,70,70,51,1,SAUCE,LB,m,m,./images/SAUCELB.png,,,,,,,,,,,,,,,,,,,,,,,,,,,,,,,,,,,
,,,,,,,,,,,,,,,,,6154940e788774dc9a1ec182,19,2022-02-12_17h00.03,lexical_decision_task_DD_L6,2021.2.3,MacIntel,59.99880002,,,,,,,,,,,0.530265,1,,,,,,,,,,,,,,,m,1,0.530265,,,,,,,,0.097361111,-0.385946181,0,0,0,,0,71,71,25,1,CHALK,C,m,m,./images/CHALK.png,,,,,,,,,,,,,,,,,,,,,,,,,,,,,,,,,,,
,,,,,,,,,,,,,,,,,6154940e788774dc9a1ec182,19,2022-02-12_17h00.03,lexical_decision_task_DD_L6,2021.2.3,MacIntel,59.99880002,,,,,,,,,,,0.94801,1,,,,,,,,,,,,,,,z,1,0.94801,,,,,,,,0.097361111,-0.385946181,0,0,0,,0,72,72,128,1,GRIFT,LB,z,z,./images/GRIFTLB.png,,,,,,,,,,,,,,,,,,,,,,,,,,,,,,,,,,,
,,,,,,,,,,,,,,,,,6154940e788774dc9a1ec182,19,2022-02-12_17h00.03,lexical_decision_task_DD_L6,2021.2.3,MacIntel,59.99880002,,,,,,,,,,,0.739795,1,,,,,,,,,,,,,,,m,1,0.739795,,,,,,,,0.097361111,-0.385946181,0,0,0,,0,73,73,82,1,PEBBLE,C,m,m,./images/PEBBLE.png,,,,,,,,,,,,,,,,,,,,,,,,,,,,,,,,,,,
,,,,,,,,,,,,,,,,,6154940e788774dc9a1ec182,19,2022-02-12_17h00.03,lexical_decision_task_DD_L6,2021.2.3,MacIntel,59.99880002,,,,,,,,,,,0.76328,1,,,,,,,,,,,,,,,z,1,0.76328,,,,,,,,0.097361111,-0.385946181,0,0,0,,0,74,74,157,1,INLER,HB,z,z,./images/INLERHB.png,,,,,,,,,,,,,,,,,,,,,,,,,,,,,,,,,,,
,,,,,,,,,,,,,,,,,6154940e788774dc9a1ec182,19,2022-02-12_17h00.03,lexical_decision_task_DD_L6,2021.2.3,MacIntel,59.99880002,,,,,,,,,,,0.535455,1,,,,,,,,,,,,,,,m,1,0.535455,,,,,,,,0.097361111,-0.385946181,0,0,0,,0,75,75,16,1,GRAPE,C,m,m,./images/GRAPE.png,,,,,,,,,,,,,,,,,,,,,,,,,,,,,,,,,,,
,,,,,,,,,,,,,,,,,6154940e788774dc9a1ec182,19,2022-02-12_17h00.03,lexical_decision_task_DD_L6,2021.2.3,MacIntel,59.99880002,,,,,,,,,,,1.173155,1,,,,,,,,,,,,,,,z,1,1.173155,,,,,,,,0.097361111,-0.385946181,0,0,0,,0,76,76,125,1,MOOKY,LB,z,z,./images/MOOKYLB.png,,,,,,,,,,,,,,,,,,,,,,,,,,,,,,,,,,,
,,,,,,,,,,,,,,,,,6154940e788774dc9a1ec182,19,2022-02-12_17h00.03,lexical_decision_task_DD_L6,2021.2.3,MacIntel,59.99880002,,,,,,,,,,,0.63323,1,,,,,,,,,,,,,,,m,1,0.63323,,,,,,,,0.097361111,-0.385946181,0,0,0,,0,77,77,21,1,DANCER,LB,m,m,./images/DANCERLB.png,,,,,,,,,,,,,,,,,,,,,,,,,,,,,,,,,,,
,,,,,,,,,,,,,,,,,6154940e788774dc9a1ec182,19,2022-02-12_17h00.03,lexical_decision_task_DD_L6,2021.2.3,MacIntel,59.99880002,,,,,,,,,,,0.62954,1,,,,,,,,,,,,,,,m,1,0.62954,,,,,,,,0.097361111,-0.385946181,0,0,0,,0,78,78,37,1,TIGER,C,m,m,./images/TIGER.png,,,,,,,,,,,,,,,,,,,,,,,,,,,,,,,,,,,
,,,,,,,,,,,,,,,,,6154940e788774dc9a1ec182,19,2022-02-12_17h00.03,lexical_decision_task_DD_L6,2021.2.3,MacIntel,59.99880002,,,,,,,,,,,1.215265,0,,,,,,,,,,,,,,,z,0,1.215265,,,,,,,,0.097361111,-0.385946181,0,0,0,,0,79,79,60,1,CURRY,LB,m,m,./images/CURRYLB.png,,,,,,,,,,,,,,,,,,,,,,,,,,,,,,,,,,,
,,,,,,,,,,,,,,,,,6154940e788774dc9a1ec182,19,2022-02-12_17h00.03,lexical_decision_task_DD_L6,2021.2.3,MacIntel,59.99880002,,,,,,,,,,,1.14917,1,,,,,,,,,,,,,,,m,1,1.14917,,,,,,,,0.097361111,-0.385946181,0,0,0,,0,80,80,47,1,LAGOON,HB,m,m,./images/LAGOONHB.png,,,,,,,,,,,,,,,,,,,,,,,,,,,,,,,,,,,
,,,,,,,,,,,,,,,,,6154940e788774dc9a1ec182,19,2022-02-12_17h00.03,lexical_decision_task_DD_L6,2021.2.3,MacIntel,59.99880002,,,,,,,,,,,0.96522,1,,,,,,,,,,,,,,,z,1,0.96522,,,,,,,,0.097361111,-0.385946181,0,0,0,,0,81,81,105,1,MOKER,C,z,z,./images/MOKER.png,,,,,,,,,,,,,,,,,,,,,,,,,,,,,,,,,,,
,,,,,,,,,,,,,,,,,6154940e788774dc9a1ec182,19,2022-02-12_17h00.03,lexical_decision_task_DD_L6,2021.2.3,MacIntel,59.99880002,,,,,,,,,,,1.20115,1,,,,,,,,,,,,,,,z,1,1.20115,,,,,,,,0.097361111,-0.385946181,0,0,0,,0,82,82,120,1,RINED,C,z,z,./images/RINED.png,,,,,,,,,,,,,,,,,,,,,,,,,,,,,,,,,,,
,,,,,,,,,,,,,,,,,6154940e788774dc9a1ec182,19,2022-02-12_17h00.03,lexical_decision_task_DD_L6,2021.2.3,MacIntel,59.99880002,,,,,,,,,,,0.862075,1,,,,,,,,,,,,,,,m,1,0.862075,,,,,,,,0.122730035,-0.179565972,0,0,0,space,0,83,83,22,1,CLOWN,C,m,m,./images/CLOWN.png,,10.767305,,,,,,,,,,,,,,,,,,,,,,,,,,,,,,,,,
,,,,,,,,,,,,,,,,,6154940e788774dc9a1ec182,19,2022-02-12_17h00.03,lexical_decision_task_DD_L6,2021.2.3,MacIntel,59.99880002,,,,,,,,,,,0.748625,1,,,,,,,,,,,,,,,z,1,0.748625,,,,,,,,0.122730035,-0.179565972,0,0,0,,0,84,84,150,1,NOOLS,C,z,z,./images/NOOLS.png,,,,,,,,,,,,,,,,,,,,,,,,,,,,,,,,,,,
,,,,,,,,,,,,,,,,,6154940e788774dc9a1ec182,19,2022-02-12_17h00.03,lexical_decision_task_DD_L6,2021.2.3,MacIntel,59.99880002,,,,,,,,,,,1.357295,1,,,,,,,,,,,,,,,z,1,1.357295,,,,,,,,0.122730035,-0.179565972,0,0,0,,0,85,85,166,1,SHORY,HB,z,z,./images/SHORYHB.png,,,,,,,,,,,,,,,,,,,,,,,,,,,,,,,,,,,
,,,,,,,,,,,,,,,,,6154940e788774dc9a1ec182,19,2022-02-12_17h00.03,lexical_decision_task_DD_L6,2021.2.3,MacIntel,59.99880002,,,,,,,,,,,1.334115,1,,,,,,,,,,,,,,,m,1,1.334115,,,,,,,,0.122730035,-0.179565972,0,0,0,,0,86,86,6,1,STAIN,LB,m,m,./images/STAINLB.png,,,,,,,,,,,,,,,,,,,,,,,,,,,,,,,,,,,
,,,,,,,,,,,,,,,,,6154940e788774dc9a1ec182,19,2022-02-12_17h00.03,lexical_decision_task_DD_L6,2021.2.3,MacIntel,59.99880002,,,,,,,,,,,1.88757,1,,,,,,,,,,,,,,,m,1,1.88757,,,,,,,,0.122730035,-0.179565972,0,0,0,,0,87,87,3,1,CRATER,LB,m,m,./images/CRATERLB.png,,,,,,,,,,,,,,,,,,,,,,,,,,,,,,,,,,,
,,,,,,,,,,,,,,,,,6154940e788774dc9a1ec182,19,2022-02-12_17h00.03,lexical_decision_task_DD_L6,2021.2.3,MacIntel,59.99880002,,,,,,,,,,,0.72991,1,,,,,,,,,,,,,,,m,1,0.72991,,,,,,,,0.122730035,-0.179565972,0,0,0,,0,88,88,10,1,GARDEN,C,m,m,./images/GARDEN.png,,,,,,,,,,,,,,,,,,,,,,,,,,,,,,,,,,,
,,,,,,,,,,,,,,,,,6154940e788774dc9a1ec182,19,2022-02-12_17h00.03,lexical_decision_task_DD_L6,2021.2.3,MacIntel,59.99880002,,,,,,,,,,,0.696465,1,,,,,,,,,,,,,,,z,1,0.696465,,,,,,,,0.122730035,-0.179565972,0,0,0,,0,89,89,149,1,VEASE,LB,z,z,./images/VEASELB.png,,,,,,,,,,,,,,,,,,,,,,,,,,,,,,,,,,,
,,,,,,,,,,,,,,,,,6154940e788774dc9a1ec182,19,2022-02-12_17h00.03,lexical_decision_task_DD_L6,2021.2.3,MacIntel,59.99880002,,,,,,,,,,,0.84868,1,,,,,,,,,,,,,,,z,1,0.84868,,,,,,,,0.122730035,-0.179565972,0,0,0,,0,90,90,153,1,CLUPS,C,z,z,./images/CLUPS.png,,,,,,,,,,,,,,,,,,,,,,,,,,,,,,,,,,,
,,,,,,,,,,,,,,,,,6154940e788774dc9a1ec182,19,2022-02-12_17h00.03,lexical_decision_task_DD_L6,2021.2.3,MacIntel,59.99880002,,,,,,,,,,,0.59633,0,,,,,,,,,,,,,,,m,0,0.59633,,,,,,,,0.122730035,-0.179565972,0,0,0,,0,91,91,122,1,BLOOT,LB,z,z,./images/BLOOTLB.png,,,,,,,,,,,,,,,,,,,,,,,,,,,,,,,,,,,
,,,,,,,,,,,,,,,,,6154940e788774dc9a1ec182,19,2022-02-12_17h00.03,lexical_decision_task_DD_L6,2021.2.3,MacIntel,59.99880002,,,,,,,,,,,0.60578,1,,,,,,,,,,,,,,,m,1,0.60578,,,,,,,,0.119101562,-0.18827691,0,0,0,,0,92,92,19,1,DONKEY,C,m,m,./images/DONKEY.png,,,,,,,,,,,,,,,,,,,,,,,,,,,,,,,,,,,
,,,,,,,,,,,,,,,,,6154940e788774dc9a1ec182,19,2022-02-12_17h00.03,lexical_decision_task_DD_L6,2021.2.3,MacIntel,59.99880002,,,,,,,,,,,0.7575,1,,,,,,,,,,,,,,,m,1,0.7575,,,,,,,,0.119101562,-0.18827691,0,0,0,,0,93,93,64,1,BRIDE,C,m,m,./images/BRIDE.png,,,,,,,,,,,,,,,,,,,,,,,,,,,,,,,,,,,
,,,,,,,,,,,,,,,,,6154940e788774dc9a1ec182,19,2022-02-12_17h00.03,lexical_decision_task_DD_L6,2021.2.3,MacIntel,59.99880002,,,,,,,,,,,0.665995,0,,,,,,,,,,,,,,,m,0,0.665995,,,,,,,,0.119101562,-0.18827691,0,0,0,,0,94,94,109,1,BURGE,HB,z,z,./images/BURGEHB.png,,,,,,,,,,,,,,,,,,,,,,,,,,,,,,,,,,,
,,,,,,,,,,,,,,,,,6154940e788774dc9a1ec182,19,2022-02-12_17h00.03,lexical_decision_task_DD_L6,2021.2.3,MacIntel,59.99880002,,,,,,,,,,,1.08647,1,,,,,,,,,,,,,,,m,1,1.08647,,,,,,,,0.119101562,-0.18827691,0,0,0,,0,95,95,0,1,WALNUT,LB,m,m,./images/WALNUTLB.png,,,,,,,,,,,,,,,,,,,,,,,,,,,,,,,,,,,
,,,,,,,,,,,,,,,,,6154940e788774dc9a1ec182,19,2022-02-12_17h00.03,lexical_decision_task_DD_L6,2021.2.3,MacIntel,59.99880002,,,,,,,,,,,0.54518,1,,,,,,,,,,,,,,,m,1,0.54518,,,,,,,,0.119101562,-0.18827691,0,0,0,,0,96,96,45,1,MONKEY,LB,m,m,./images/MONKEYLB.png,,,,,,,,,,,,,,,,,,,,,,,,,,,,,,,,,,,
,,,,,,,,,,,,,,,,,6154940e788774dc9a1ec182,19,2022-02-12_17h00.03,lexical_decision_task_DD_L6,2021.2.3,MacIntel,59.99880002,,,,,,,,,,,1.70326,1,,,,,,,,,,,,,,,z,1,1.70326,,,,,,,,0.119101562,-0.18827691,0,0,0,,0,97,97,138,1,PLICE,C,z,z,./images/PLICE.png,,,,,,,,,,,,,,,,,,,,,,,,,,,,,,,,,,,
,,,,,,,,,,,,,,,,,6154940e788774dc9a1ec182,19,2022-02-12_17h00.03,lexical_decision_task_DD_L6,2021.2.3,MacIntel,59.99880002,,,,,,,,,,,0.766785,1,,,,,,,,,,,,,,,m,1,0.766785,,,,,,,,0.119101562,-0.18827691,0,0,0,,0,98,98,46,1,MUMMY,C,m,m,./images/MUMMY.png,,,,,,,,,,,,,,,,,,,,,,,,,,,,,,,,,,,
,,,,,,,,,,,,,,,,,6154940e788774dc9a1ec182,19,2022-02-12_17h00.03,lexical_decision_task_DD_L6,2021.2.3,MacIntel,59.99880002,,,,,,,,,,,1.1431,1,,,,,,,,,,,,,,,z,1,1.1431,,,,,,,,0.119101562,-0.18827691,0,0,0,,0,99,99,91,1,SHENS,HB,z,z,./images/SHENSHB.png,,,,,,,,,,,,,,,,,,,,,,,,,,,,,,,,,,,
,,,,,,,,,,,,,,,,,6154940e788774dc9a1ec182,19,2022-02-12_17h00.03,lexical_decision_task_DD_L6,2021.2.3,MacIntel,59.99880002,,,,,,,,,,,1.54997,1,,,,,,,,,,,,,,,m,1,1.54997,,,,,,,,0.119101562,-0.18827691,0,0,0,,0,100,100,36,1,BOILER,LB,m,m,./images/BOILERLB.png,,,,,,,,,,,,,,,,,,,,,,,,,,,,,,,,,,,
,,,,,,,,,,,,,,,,,6154940e788774dc9a1ec182,19,2022-02-12_17h00.03,lexical_decision_task_DD_L6,2021.2.3,MacIntel,59.99880002,,,,,,,,,,,0.670765,1,,,,,,,,,,,,,,,z,1,0.670765,,,,,,,,0.119101562,-0.18827691,0,0,0,,0,101,101,156,1,HIXES,C,z,z,./images/HIXES.png,,,,,,,,,,,,,,,,,,,,,,,,,,,,,,,,,,,
,,,,,,,,,,,,,,,,,6154940e788774dc9a1ec182,19,2022-02-12_17h00.03,lexical_decision_task_DD_L6,2021.2.3,MacIntel,59.99880002,,,,,,,,,,,0.8139,1,,,,,,,,,,,,,,,m,1,0.8139,,,,,,,,0.119101562,-0.18827691,0,0,0,,0,102,102,38,1,ENGINE,HB,m,m,./images/ENGINEHB.png,,,,,,,,,,,,,,,,,,,,,,,,,,,,,,,,,,,
,,,,,,,,,,,,,,,,,6154940e788774dc9a1ec182,19,2022-02-12_17h00.03,lexical_decision_task_DD_L6,2021.2.3,MacIntel,59.99880002,,,,,,,,,,,0.69794,1,,,,,,,,,,,,,,,m,1,0.69794,,,,,,,,0.119101562,-0.18827691,0,0,0,,0,103,103,28,1,CASINO,C,m,m,./images/CASINO.png,,,,,,,,,,,,,,,,,,,,,,,,,,,,,,,,,,,
,,,,,,,,,,,,,,,,,6154940e788774dc9a1ec182,19,2022-02-12_17h00.03,lexical_decision_task_DD_L6,2021.2.3,MacIntel,59.99880002,,,,,,,,,,,0.7956,1,,,,,,,,,,,,,,,m,1,0.7956,,,,,,,,0.119101562,-0.18827691,0,0,0,,0,104,104,56,1,HEATER,HB,m,m,./images/HEATERHB.png,,,,,,,,,,,,,,,,,,,,,,,,,,,,,,,,,,,
,,,,,,,,,,,,,,,,,6154940e788774dc9a1ec182,19,2022-02-12_17h00.03,lexical_decision_task_DD_L6,2021.2.3,MacIntel,59.99880002,,,,,,,,,,,1.34667,1,,,,,,,,,,,,,,,z,1,1.34667,,,,,,,,0.119101562,-0.18827691,0,0,0,,0,105,105,139,1,BLEAR,HB,z,z,./images/BLEARHB.png,,,,,,,,,,,,,,,,,,,,,,,,,,,,,,,,,,,
,,,,,,,,,,,,,,,,,6154940e788774dc9a1ec182,19,2022-02-12_17h00.03,lexical_decision_task_DD_L6,2021.2.3,MacIntel,59.99880002,,,,,,,,,,,1.21602,1,,,,,,,,,,,,,,,z,1,1.21602,,,,,,,,0.119101562,-0.18827691,0,0,0,,0,106,106,148,1,JOMS,HB,z,z,./images/JOMSHB.png,,,,,,,,,,,,,,,,,,,,,,,,,,,,,,,,,,,
,,,,,,,,,,,,,,,,,6154940e788774dc9a1ec182,19,2022-02-12_17h00.03,lexical_decision_task_DD_L6,2021.2.3,MacIntel,59.99880002,,,,,,,,,,,0.71877,1,,,,,,,,,,,,,,,z,1,0.71877,,,,,,,,0.119101562,-0.18827691,0,0,0,,0,107,107,113,1,LINEW,LB,z,z,./images/LINEWLB.png,,,,,,,,,,,,,,,,,,,,,,,,,,,,,,,,,,,
,,,,,,,,,,,,,,,,,6154940e788774dc9a1ec182,19,2022-02-12_17h00.03,lexical_decision_task_DD_L6,2021.2.3,MacIntel,59.99880002,,,,,,,,,,,1.048595,1,,,,,,,,,,,,,,,z,1,1.048595,,,,,,,,0.119101562,-0.18827691,0,0,0,,0,108,108,84,1,HAXES,C,z,z,./images/HAXES.png,,,,,,,,,,,,,,,,,,,,,,,,,,,,,,,,,,,
,,,,,,,,,,,,,,,,,6154940e788774dc9a1ec182,19,2022-02-12_17h00.03,lexical_decision_task_DD_L6,2021.2.3,MacIntel,59.99880002,,,,,,,,,,,0.6883,1,,,,,,,,,,,,,,,m,1,0.6883,,,,,,,,0.119101562,-0.18827691,0,0,0,,0,109,109,61,1,ARTIST,C,m,m,./images/ARTIST.png,,,,,,,,,,,,,,,,,,,,,,,,,,,,,,,,,,,
,,,,,,,,,,,,,,,,,6154940e788774dc9a1ec182,19,2022-02-12_17h00.03,lexical_decision_task_DD_L6,2021.2.3,MacIntel,59.99880002,,,,,,,,,,,0.11811,0,,,,,,,,,,,,,,,z,0,0.11811,,,,,,,,0.119101562,-0.18827691,0,0,0,,0,110,110,30,1,SLOPE,LB,m,m,./images/SLOPELB.png,,,,,,,,,,,,,,,,,,,,,,,,,,,,,,,,,,,
,,,,,,,,,,,,,,,,,6154940e788774dc9a1ec182,19,2022-02-12_17h00.03,lexical_decision_task_DD_L6,2021.2.3,MacIntel,59.99880002,,,,,,,,,,,0.700765,1,,,,,,,,,,,,,,,m,1,0.700765,,,,,,,,0.119101562,-0.18827691,0,0,0,,0,111,111,14,1,FENCE,HB,m,m,./images/FENCEHB.png,,,,,,,,,,,,,,,,,,,,,,,,,,,,,,,,,,,
,,,,,,,,,,,,,,,,,6154940e788774dc9a1ec182,19,2022-02-12_17h00.03,lexical_decision_task_DD_L6,2021.2.3,MacIntel,59.99880002,,,,,,,,,,,0.70375,1,,,,,,,,,,,,,,,z,1,0.70375,,,,,,,,0.119101562,-0.18827691,0,0,0,,0,112,112,89,1,DRIEK,LB,z,z,./images/DRIEKLB.png,,,,,,,,,,,,,,,,,,,,,,,,,,,,,,,,,,,
,,,,,,,,,,,,,,,,,6154940e788774dc9a1ec182,19,2022-02-12_17h00.03,lexical_decision_task_DD_L6,2021.2.3,MacIntel,59.99880002,,,,,,,,,,,0.72407,1,,,,,,,,,,,,,,,z,1,0.72407,,,,,,,,0.119101562,-0.18827691,0,0,0,,0,113,113,160,1,VEETS,HB,z,z,./images/VEETSHB.png,,,,,,,,,,,,,,,,,,,,,,,,,,,,,,,,,,,
,,,,,,,,,,,,,,,,,6154940e788774dc9a1ec182,19,2022-02-12_17h00.03,lexical_decision_task_DD_L6,2021.2.3,MacIntel,59.99880002,,,,,,,,,,,0.54741,1,,,,,,,,,,,,,,,m,1,0.54741,,,,,,,,0.119101562,-0.18827691,0,0,0,,0,114,114,55,1,ALLEY,C,m,m,./images/ALLEY.png,,,,,,,,,,,,,,,,,,,,,,,,,,,,,,,,,,,
,,,,,,,,,,,,,,,,,6154940e788774dc9a1ec182,19,2022-02-12_17h00.03,lexical_decision_task_DD_L6,2021.2.3,MacIntel,59.99880002,,,,,,,,,,,0.97403,1,,,,,,,,,,,,,,,m,1,0.97403,,,,,,,,0.119101562,-0.18827691,0,0,0,,0,115,115,24,1,FLESH,LB,m,m,./images/FLESHLB.png,,,,,,,,,,,,,,,,,,,,,,,,,,,,,,,,,,,
,,,,,,,,,,,,,,,,,6154940e788774dc9a1ec182,19,2022-02-12_17h00.03,lexical_decision_task_DD_L6,2021.2.3,MacIntel,59.99880002,,,,,,,,,,,1.04705,1,,,,,,,,,,,,,,,z,1,1.04705,,,,,,,,0.119101562,-0.18827691,0,0,0,,0,116,116,115,1,MAWNS,HB,z,z,./images/MAWNSHB.png,,,,,,,,,,,,,,,,,,,,,,,,,,,,,,,,,,,
,,,,,,,,,,,,,,,,,6154940e788774dc9a1ec182,19,2022-02-12_17h00.03,lexical_decision_task_DD_L6,2021.2.3,MacIntel,59.99880002,,,,,,,,,,,0.71983,1,,,,,,,,,,,,,,,z,1,0.71983,,,,,,,,0.119101562,-0.18827691,0,0,0,,0,117,117,141,1,PLEET,C,z,z,./images/PLEET.png,,,,,,,,,,,,,,,,,,,,,,,,,,,,,,,,,,,
,,,,,,,,,,,,,,,,,6154940e788774dc9a1ec182,19,2022-02-12_17h00.03,lexical_decision_task_DD_L6,2021.2.3,MacIntel,59.99880002,,,,,,,,,,,0.950665,1,,,,,,,,,,,,,,,z,1,0.950665,,,,,,,,0.119101562,-0.18827691,0,0,0,,0,118,118,154,1,THINT,HB,z,z,./images/THINTHB.png,,,,,,,,,,,,,,,,,,,,,,,,,,,,,,,,,,,
,,,,,,,,,,,,,,,,,6154940e788774dc9a1ec182,19,2022-02-12_17h00.03,lexical_decision_task_DD_L6,2021.2.3,MacIntel,59.99880002,,,,,,,,,,,0.73137,1,,,,,,,,,,,,,,,z,1,0.73137,,,,,,,,0.119101562,-0.18827691,0,0,0,,0,119,119,158,1,EGECT,LB,z,z,./images/EGECTLB.png,,,,,,,,,,,,,,,,,,,,,,,,,,,,,,,,,,,
,,,,,,,,,,,,,,,,,6154940e788774dc9a1ec182,19,2022-02-12_17h00.03,lexical_decision_task_DD_L6,2021.2.3,MacIntel,59.99880002,,,,,,,,,,,0.54947,1,,,,,,,,,,,,,,,m,1,0.54947,,,,,,,,0.119101562,-0.18827691,0,0,0,,0,120,120,40,1,SNAKE,C,m,m,./images/SNAKE.png,,,,,,,,,,,,,,,,,,,,,,,,,,,,,,,,,,,
,,,,,,,,,,,,,,,,,6154940e788774dc9a1ec182,19,2022-02-12_17h00.03,lexical_decision_task_DD_L6,2021.2.3,MacIntel,59.99880002,,,,,,,,,,,0.75041,1,,,,,,,,,,,,,,,z,1,0.75041,,,,,,,,0.119101562,-0.18827691,0,0,0,,0,121,121,161,1,BLAPS,LB,z,z,./images/BLAPSLB.png,,,,,,,,,,,,,,,,,,,,,,,,,,,,,,,,,,,
,,,,,,,,,,,,,,,,,6154940e788774dc9a1ec182,19,2022-02-12_17h00.03,lexical_decision_task_DD_L6,2021.2.3,MacIntel,59.99880002,,,,,,,,,,,1.02038,1,,,,,,,,,,,,,,,m,1,1.02038,,,,,,,,0.119101562,-0.18827691,0,0,0,,0,122,122,34,1,RAZOR,C,m,m,./images/RAZOR.png,,,,,,,,,,,,,,,,,,,,,,,,,,,,,,,,,,,
,,,,,,,,,,,,,,,,,6154940e788774dc9a1ec182,19,2022-02-12_17h00.03,lexical_decision_task_DD_L6,2021.2.3,MacIntel,59.99880002,,,,,,,,,,,0.815745,1,,,,,,,,,,,,,,,z,1,0.815745,,,,,,,,0.119101562,-0.18827691,0,0,0,,0,123,123,96,1,KEAMS,C,z,z,./images/KEAMS.png,,,,,,,,,,,,,,,,,,,,,,,,,,,,,,,,,,,
,,,,,,,,,,,,,,,,,6154940e788774dc9a1ec182,19,2022-02-12_17h00.03,lexical_decision_task_DD_L6,2021.2.3,MacIntel,59.99880002,,,,,,,,,,,0.81724,1,,,,,,,,,,,,,,,m,1,0.81724,,,,,,,,0.119101562,-0.18827691,0,0,0,,0,124,124,42,1,CHAIN,LB,m,m,./images/CHAINLB.png,,,,,,,,,,,,,,,,,,,,,,,,,,,,,,,,,,,
,,,,,,,,,,,,,,,,,6154940e788774dc9a1ec182,19,2022-02-12_17h00.03,lexical_decision_task_DD_L6,2021.2.3,MacIntel,59.99880002,,,,,,,,,,,3.23778,1,,,,,,,,,,,,,,,z,1,3.23778,,,,,,,,0.124618056,-0.221297743,0,0,0,space,0,125,125,98,1,BAMPS,LB,z,z,./images/BAMPSLB.png,,2.183645,,,,,,,,,,,,,,,,,,,,,,,,,,,,,,,,,
,,,,,,,,,,,,,,,,,6154940e788774dc9a1ec182,19,2022-02-12_17h00.03,lexical_decision_task_DD_L6,2021.2.3,MacIntel,59.99880002,,,,,,,,,,,1.415055,0,,,,,,,,,,,,,,,m,0,1.415055,,,,,,,,0.124618056,-0.221297743,0,0,0,,0,126,126,88,1,GLUSH,HB,z,z,./images/GLUSHHB.png,,,,,,,,,,,,,,,,,,,,,,,,,,,,,,,,,,,
,,,,,,,,,,,,,,,,,6154940e788774dc9a1ec182,19,2022-02-12_17h00.03,lexical_decision_task_DD_L6,2021.2.3,MacIntel,59.99880002,,,,,,,,,,,0.78762,0,,,,,,,,,,,,,,,m,0,0.78762,,,,,,,,0.124618056,-0.221297743,0,0,0,,0,127,127,110,1,CRUNK,LB,z,z,./images/CRUNKLB.png,,,,,,,,,,,,,,,,,,,,,,,,,,,,,,,,,,,
,,,,,,,,,,,,,,,,,6154940e788774dc9a1ec182,19,2022-02-12_17h00.03,lexical_decision_task_DD_L6,2021.2.3,MacIntel,59.99880002,,,,,,,,,,,0.911535,1,,,,,,,,,,,,,,,z,1,0.911535,,,,,,,,0.124327257,-0.221297743,0,0,0,,0,128,128,119,1,PAFER,LB,z,z,./images/PAFERLB.png,,,,,,,,,,,,,,,,,,,,,,,,,,,,,,,,,,,
,,,,,,,,,,,,,,,,,6154940e788774dc9a1ec182,19,2022-02-12_17h00.03,lexical_decision_task_DD_L6,2021.2.3,MacIntel,59.99880002,,,,,,,,,,,1.00047,1,,,,,,,,,,,,,,,m,1,1.00047,,,,,,,,0.12625,-0.222721354,0,0,0,,0,129,129,33,1,SAUNA,LB,m,m,./images/SAUNALB.png,,,,,,,,,,,,,,,,,,,,,,,,,,,,,,,,,,,
,,,,,,,,,,,,,,,,,6154940e788774dc9a1ec182,19,2022-02-12_17h00.03,lexical_decision_task_DD_L6,2021.2.3,MacIntel,59.99880002,,,,,,,,,,,2.123205,1,,,,,,,,,,,,,,,m,1,2.123205,,,,,,,,0.12625,-0.222721354,0,0,0,,0,130,130,83,1,WHISKY,HB,m,m,./images/WHISKYHB.png,,,,,,,,,,,,,,,,,,,,,,,,,,,,,,,,,,,
,,,,,,,,,,,,,,,,,6154940e788774dc9a1ec182,19,2022-02-12_17h00.03,lexical_decision_task_DD_L6,2021.2.3,MacIntel,59.99880002,,,,,,,,,,,0.806805,1,,,,,,,,,,,,,,,m,1,0.806805,,,,,,,,0.12625,-0.222721354,0,0,0,,0,131,131,59,1,BRUSH,HB,m,m,./images/BRUSHHB.png,,,,,,,,,,,,,,,,,,,,,,,,,,,,,,,,,,,
,,,,,,,,,,,,,,,,,6154940e788774dc9a1ec182,19,2022-02-12_17h00.03,lexical_decision_task_DD_L6,2021.2.3,MacIntel,59.99880002,,,,,,,,,,,0.92559,1,,,,,,,,,,,,,,,m,1,0.92559,,,,,,,,0.12625,-0.222721354,0,0,0,,0,132,132,5,1,BAMBOO,HB,m,m,./images/BAMBOOHB.png,,,,,,,,,,,,,,,,,,,,,,,,,,,,,,,,,,,
,,,,,,,,,,,,,,,,,6154940e788774dc9a1ec182,19,2022-02-12_17h00.03,lexical_decision_task_DD_L6,2021.2.3,MacIntel,59.99880002,,,,,,,,,,,0.66336,1,,,,,,,,,,,,,,,m,1,0.66336,,,,,,,,0.12625,-0.222721354,0,0,0,,0,133,133,72,1,FLASK,LB,m,m,./images/FLASKLB.png,,,,,,,,,,,,,,,,,,,,,,,,,,,,,,,,,,,
,,,,,,,,,,,,,,,,,6154940e788774dc9a1ec182,19,2022-02-12_17h00.03,lexical_decision_task_DD_L6,2021.2.3,MacIntel,59.99880002,,,,,,,,,,,0.747685,1,,,,,,,,,,,,,,,z,1,0.747685,,,,,,,,0.12625,-0.222721354,0,0,0,,0,134,134,104,1,GITTY,LB,z,z,./images/GITTYLB.png,,,,,,,,,,,,,,,,,,,,,,,,,,,,,,,,,,,
,,,,,,,,,,,,,,,,,6154940e788774dc9a1ec182,19,2022-02-12_17h00.03,lexical_decision_task_DD_L6,2021.2.3,MacIntel,59.99880002,,,,,,,,,,,0.728395,1,,,,,,,,,,,,,,,z,1,0.728395,,,,,,,,0.12625,-0.222721354,0,0,0,,0,135,135,118,1,BAVEL,HB,z,z,./images/BAVELHB.png,,,,,,,,,,,,,,,,,,,,,,,,,,,,,,,,,,,
,,,,,,,,,,,,,,,,,6154940e788774dc9a1ec182,19,2022-02-12_17h00.03,lexical_decision_task_DD_L6,2021.2.3,MacIntel,59.99880002,,,,,,,,,,,0.702695,1,,,,,,,,,,,,,,,z,1,0.702695,,,,,,,,0.12625,-0.222721354,0,0,0,,0,136,136,167,1,ZONET,LB,z,z,./images/ZONETLB.png,,,,,,,,,,,,,,,,,,,,,,,,,,,,,,,,,,,
,,,,,,,,,,,,,,,,,6154940e788774dc9a1ec182,19,2022-02-12_17h00.03,lexical_decision_task_DD_L6,2021.2.3,MacIntel,59.99880002,,,,,,,,,,,0.97445,1,,,,,,,,,,,,,,,z,1,0.97445,,,,,,,,0.12625,-0.222721354,0,0,0,,0,137,137,106,1,CLUMS,HB,z,z,./images/CLUMSHB.png,,,,,,,,,,,,,,,,,,,,,,,,,,,,,,,,,,,
,,,,,,,,,,,,,,,,,6154940e788774dc9a1ec182,19,2022-02-12_17h00.03,lexical_decision_task_DD_L6,2021.2.3,MacIntel,59.99880002,,,,,,,,,,,0.57093,1,,,,,,,,,,,,,,,m,1,0.57093,,,,,,,,0.12625,-0.222721354,0,0,0,,0,138,138,13,1,BUNNY,C,m,m,./images/BUNNY.png,,,,,,,,,,,,,,,,,,,,,,,,,,,,,,,,,,,
,,,,,,,,,,,,,,,,,6154940e788774dc9a1ec182,19,2022-02-12_17h00.03,lexical_decision_task_DD_L6,2021.2.3,MacIntel,59.99880002,,,,,,,,,,,1.293835,1,,,,,,,,,,,,,,,m,1,1.293835,,,,,,,,0.12625,-0.222721354,0,0,0,,0,139,139,23,1,CLOTH,HB,m,m,./images/CLOTHHB.png,,,,,,,,,,,,,,,,,,,,,,,,,,,,,,,,,,,
,,,,,,,,,,,,,,,,,6154940e788774dc9a1ec182,19,2022-02-12_17h00.03,lexical_decision_task_DD_L6,2021.2.3,MacIntel,59.99880002,,,,,,,,,,,0.845485,1,,,,,,,,,,,,,,,z,1,0.845485,,,,,,,,0.12625,-0.222721354,0,0,0,,0,140,140,102,1,DULLE,C,z,z,./images/DULLE.png,,,,,,,,,,,,,,,,,,,,,,,,,,,,,,,,,,,
,,,,,,,,,,,,,,,,,6154940e788774dc9a1ec182,19,2022-02-12_17h00.03,lexical_decision_task_DD_L6,2021.2.3,MacIntel,59.99880002,,,,,,,,,,,1.035585,1,,,,,,,,,,,,,,,z,1,1.035585,,,,,,,,0.12625,-0.222721354,0,0,0,,0,141,141,165,1,TROWN,C,z,z,./images/TROWN.png,,,,,,,,,,,,,,,,,,,,,,,,,,,,,,,,,,,
,,,,,,,,,,,,,,,,,6154940e788774dc9a1ec182,19,2022-02-12_17h00.03,lexical_decision_task_DD_L6,2021.2.3,MacIntel,59.99880002,,,,,,,,,,,0.680315,0,,,,,,,,,,,,,,,m,0,0.680315,,,,,,,,0.12625,-0.222721354,0,0,0,,0,142,142,123,1,SEDGE,C,z,z,./images/SEDGE.png,,,,,,,,,,,,,,,,,,,,,,,,,,,,,,,,,,,
,,,,,,,,,,,,,,,,,6154940e788774dc9a1ec182,19,2022-02-12_17h00.03,lexical_decision_task_DD_L6,2021.2.3,MacIntel,59.99880002,,,,,,,,,,,0.629195,1,,,,,,,,,,,,,,,z,1,0.629195,,,,,,,,0.12625,-0.222721354,0,0,0,,0,143,143,132,1,SCIFF,C,z,z,./images/SCIFF.png,,,,,,,,,,,,,,,,,,,,,,,,,,,,,,,,,,,
,,,,,,,,,,,,,,,,,6154940e788774dc9a1ec182,19,2022-02-12_17h00.03,lexical_decision_task_DD_L6,2021.2.3,MacIntel,59.99880002,,,,,,,,,,,0.65083,1,,,,,,,,,,,,,,,m,1,0.65083,,,,,,,,0.12625,-0.222721354,0,0,0,,0,144,144,15,1,COLLAR,LB,m,m,./images/COLLARLB.png,,,,,,,,,,,,,,,,,,,,,,,,,,,,,,,,,,,
,,,,,,,,,,,,,,,,,6154940e788774dc9a1ec182,19,2022-02-12_17h00.03,lexical_decision_task_DD_L6,2021.2.3,MacIntel,59.99880002,,,,,,,,,,,0.867395,1,,,,,,,,,,,,,,,m,1,0.867395,,,,,,,,0.12625,-0.222721354,0,0,0,,0,145,145,2,1,STOVE,HB,m,m,./images/STOVEHB.png,,,,,,,,,,,,,,,,,,,,,,,,,,,,,,,,,,,
,,,,,,,,,,,,,,,,,6154940e788774dc9a1ec182,19,2022-02-12_17h00.03,lexical_decision_task_DD_L6,2021.2.3,MacIntel,59.99880002,,,,,,,,,,,0.782225,1,,,,,,,,,,,,,,,m,1,0.782225,,,,,,,,0.12625,-0.222721354,0,0,0,,0,146,146,76,1,MIDGET,C,m,m,./images/MIDGET.png,,,,,,,,,,,,,,,,,,,,,,,,,,,,,,,,,,,
,,,,,,,,,,,,,,,,,6154940e788774dc9a1ec182,19,2022-02-12_17h00.03,lexical_decision_task_DD_L6,2021.2.3,MacIntel,59.99880002,,,,,,,,,,,0.91794,1,,,,,,,,,,,,,,,m,1,0.91794,,,,,,,,0.124505208,-0.218650174,0,0,0,,0,147,147,77,1,WHEEL,HB,m,m,./images/WHEELHB.png,,,,,,,,,,,,,,,,,,,,,,,,,,,,,,,,,,,
,,,,,,,,,,,,,,,,,6154940e788774dc9a1ec182,19,2022-02-12_17h00.03,lexical_decision_task_DD_L6,2021.2.3,MacIntel,59.99880002,,,,,,,,,,,0.698425,1,,,,,,,,,,,,,,,z,1,0.698425,,,,,,,,0.124505208,-0.218650174,0,0,0,,0,148,148,162,1,LEICH,C,z,z,./images/LEICH.png,,,,,,,,,,,,,,,,,,,,,,,,,,,,,,,,,,,
,,,,,,,,,,,,,,,,,6154940e788774dc9a1ec182,19,2022-02-12_17h00.03,lexical_decision_task_DD_L6,2021.2.3,MacIntel,59.99880002,,,,,,,,,,,0.686715,1,,,,,,,,,,,,,,,z,1,0.686715,,,,,,,,0.124505208,-0.218650174,0,0,0,,0,149,149,134,1,TROSS,LB,z,z,./images/TROSSLB.png,,,,,,,,,,,,,,,,,,,,,,,,,,,,,,,,,,,
,,,,,,,,,,,,,,,,,6154940e788774dc9a1ec182,19,2022-02-12_17h00.03,lexical_decision_task_DD_L6,2021.2.3,MacIntel,59.99880002,,,,,,,,,,,1.344195,1,,,,,,,,,,,,,,,z,1,1.344195,,,,,,,,0.124505208,-0.218650174,0,0,0,,0,150,150,85,1,CHULK,HB,z,z,./images/CHULKHB.png,,,,,,,,,,,,,,,,,,,,,,,,,,,,,,,,,,,
,,,,,,,,,,,,,,,,,6154940e788774dc9a1ec182,19,2022-02-12_17h00.03,lexical_decision_task_DD_L6,2021.2.3,MacIntel,59.99880002,,,,,,,,,,,0.60859,1,,,,,,,,,,,,,,,m,1,0.60859,,,,,,,,0.124505208,-0.218650174,0,0,0,,0,151,151,4,1,BOXER,C,m,m,./images/BOXER.png,,,,,,,,,,,,,,,,,,,,,,,,,,,,,,,,,,,
,,,,,,,,,,,,,,,,,6154940e788774dc9a1ec182,19,2022-02-12_17h00.03,lexical_decision_task_DD_L6,2021.2.3,MacIntel,59.99880002,,,,,,,,,,,0.715025,1,,,,,,,,,,,,,,,z,1,0.715025,,,,,,,,0.124505208,-0.218650174,0,0,0,,0,152,152,90,1,NEAST,C,z,z,./images/NEAST.png,,,,,,,,,,,,,,,,,,,,,,,,,,,,,,,,,,,
,,,,,,,,,,,,,,,,,6154940e788774dc9a1ec182,19,2022-02-12_17h00.03,lexical_decision_task_DD_L6,2021.2.3,MacIntel,59.99880002,,,,,,,,,,,0.58092,1,,,,,,,,,,,,,,,z,1,0.58092,,,,,,,,0.124505208,-0.218650174,0,0,0,,0,153,153,86,1,AIFED,LB,z,z,./images/AIFEDLB.png,,,,,,,,,,,,,,,,,,,,,,,,,,,,,,,,,,,
,,,,,,,,,,,,,,,,,6154940e788774dc9a1ec182,19,2022-02-12_17h00.03,lexical_decision_task_DD_L6,2021.2.3,MacIntel,59.99880002,,,,,,,,,,,0.613395,1,,,,,,,,,,,,,,,z,1,0.613395,,,,,,,,0.124505208,-0.220655382,0,0,0,,0,154,154,117,1,STEEG,C,z,z,./images/STEEG.png,,,,,,,,,,,,,,,,,,,,,,,,,,,,,,,,,,,
,,,,,,,,,,,,,,,,,6154940e788774dc9a1ec182,19,2022-02-12_17h00.03,lexical_decision_task_DD_L6,2021.2.3,MacIntel,59.99880002,,,,,,,,,,,0.567315,1,,,,,,,,,,,,,,,m,1,0.567315,,,,,,,,0.124505208,-0.220655382,0,0,0,,0,155,155,54,1,CHERRY,LB,m,m,./images/CHERRYLB.png,,,,,,,,,,,,,,,,,,,,,,,,,,,,,,,,,,,
,,,,,,,,,,,,,,,,,6154940e788774dc9a1ec182,19,2022-02-12_17h00.03,lexical_decision_task_DD_L6,2021.2.3,MacIntel,59.99880002,,,,,,,,,,,0.84536,1,,,,,,,,,,,,,,,m,1,0.84536,,,,,,,,0.124505208,-0.220655382,0,0,0,,0,156,156,35,1,LLAMA,HB,m,m,./images/LLAMAHB.png,,,,,,,,,,,,,,,,,,,,,,,,,,,,,,,,,,,
,,,,,,,,,,,,,,,,,6154940e788774dc9a1ec182,19,2022-02-12_17h00.03,lexical_decision_task_DD_L6,2021.2.3,MacIntel,59.99880002,,,,,,,,,,,0.647615,1,,,,,,,,,,,,,,,m,1,0.647615,,,,,,,,0.124505208,-0.220655382,0,0,0,,0,157,157,67,1,POKER,C,m,m,./images/POKER.png,,,,,,,,,,,,,,,,,,,,,,,,,,,,,,,,,,,
,,,,,,,,,,,,,,,,,6154940e788774dc9a1ec182,19,2022-02-12_17h00.03,lexical_decision_task_DD_L6,2021.2.3,MacIntel,59.99880002,,,,,,,,,,,1.144885,0,,,,,,,,,,,,,,,m,0,1.144885,,,,,,,,0.124505208,-0.220655382,0,0,0,,0,158,158,140,1,DOVET,LB,z,z,./images/DOVETLB.png,,,,,,,,,,,,,,,,,,,,,,,,,,,,,,,,,,,
,,,,,,,,,,,,,,,,,6154940e788774dc9a1ec182,19,2022-02-12_17h00.03,lexical_decision_task_DD_L6,2021.2.3,MacIntel,59.99880002,,,,,,,,,,,1.04726,1,,,,,,,,,,,,,,,m,1,1.04726,,,,,,,,0.124505208,-0.220655382,0,0,0,,0,159,159,74,1,JUMPER,HB,m,m,./images/JUMPERHB.png,,,,,,,,,,,,,,,,,,,,,,,,,,,,,,,,,,,
,,,,,,,,,,,,,,,,,6154940e788774dc9a1ec182,19,2022-02-12_17h00.03,lexical_decision_task_DD_L6,2021.2.3,MacIntel,59.99880002,,,,,,,,,,,1.26775,0,,,,,,,,,,,,,,,z,0,1.26775,,,,,,,,0.124505208,-0.220655382,0,0,0,,0,160,160,12,1,BLOKE,LB,m,m,./images/BLOKELB.png,,,,,,,,,,,,,,,,,,,,,,,,,,,,,,,,,,,
,,,,,,,,,,,,,,,,,6154940e788774dc9a1ec182,19,2022-02-12_17h00.03,lexical_decision_task_DD_L6,2021.2.3,MacIntel,59.99880002,,,,,,,,,,,1.08627,0,,,,,,,,,,,,,,,m,0,1.08627,,,,,,,,0.124505208,-0.220655382,0,0,0,,0,161,161,159,1,CUDDY,C,z,z,./images/CUDDY.png,,,,,,,,,,,,,,,,,,,,,,,,,,,,,,,,,,,
,,,,,,,,,,,,,,,,,6154940e788774dc9a1ec182,19,2022-02-12_17h00.03,lexical_decision_task_DD_L6,2021.2.3,MacIntel,59.99880002,,,,,,,,,,,0.9154,1,,,,,,,,,,,,,,,z,1,0.9154,,,,,,,,0.124505208,-0.220655382,0,0,0,,0,162,162,124,1,TUNCH,HB,z,z,./images/TUNCHHB.png,,,,,,,,,,,,,,,,,,,,,,,,,,,,,,,,,,,
,,,,,,,,,,,,,,,,,6154940e788774dc9a1ec182,19,2022-02-12_17h00.03,lexical_decision_task_DD_L6,2021.2.3,MacIntel,59.99880002,,,,,,,,,,,0.762445,1,,,,,,,,,,,,,,,m,1,0.762445,,,,,,,,0.124505208,-0.220655382,0,0,0,,0,163,163,27,1,BUTTER,LB,m,m,./images/BUTTERLB.png,,,,,,,,,,,,,,,,,,,,,,,,,,,,,,,,,,,
,,,,,,,,,,,,,,,,,6154940e788774dc9a1ec182,19,2022-02-12_17h00.03,lexical_decision_task_DD_L6,2021.2.3,MacIntel,59.99880002,,,,,,,,,,,0.763125,1,,,,,,,,,,,,,,,m,1,0.763125,,,,,,,,0.124505208,-0.220655382,0,0,0,,0,164,164,7,1,WAGON,C,m,m,./images/WAGON.png,,,,,,,,,,,,,,,,,,,,,,,,,,,,,,,,,,,
,,,,,,,,,,,,,,,,,6154940e788774dc9a1ec182,19,2022-02-12_17h00.03,lexical_decision_task_DD_L6,2021.2.3,MacIntel,59.99880002,,,,,,,,,,,0.728125,0,,,,,,,,,,,,,,,z,0,0.728125,,,,,,,,0.124505208,-0.220655382,0,0,0,,0,165,165,18,1,PARCEL,LB,m,m,./images/PARCELLB.png,,,,,,,,,,,,,,,,,,,,,,,,,,,,,,,,,,,
,,,,,,,,,,,,,,,,,6154940e788774dc9a1ec182,19,2022-02-12_17h00.03,lexical_decision_task_DD_L6,2021.2.3,MacIntel,59.99880002,,,,,,,,,,,0.599035,1,,,,,,,,,,,,,,,m,1,0.599035,,,,,,,,0.124505208,-0.220655382,0,0,0,,0,166,166,70,1,BANANA,C,m,m,./images/BANANA.png,,,,,,,,,,,,,,,,,,,,,,,,,,,,,,,,,,,
,,,,,,,,,,,,,,,,,6154940e788774dc9a1ec182,19,2022-02-12_17h00.03,lexical_decision_task_DD_L6,2021.2.3,MacIntel,59.99880002,,,,,,,,,,,0.88004,0,,,,,,,,,,,,,,,m,0,0.88004,,,,,,,,0.124505208,-0.220655382,0,0,0,,0,167,167,107,1,FASKS,LB,z,z,./images/FASKSLB.png,,,,,,,,,,,,,,,,,,,,,,,,,,,,,,,,,,,
,,,,,,,,,,,,,,,,,6154940e788774dc9a1ec182,19,2022-02-12_17h00.03,lexical_decision_task_DD_L6,2021.2.3,MacIntel,59.99880002,,,,,,,,,,,,,,,,,,,,,,,,,,,,,,,,,,,,,,,,,,,,,,,,,How likely will it be that you will recognize the words presented clearly on a scale of 0 (not likely) to 100 (most likely)?,,,,,,0.005117188,-0.386532118,1,0,0,jol_adv,5,20.97561,0,0,0,0,1,,,,,,,,,,,,,,,,,,,,
,,,,,,,,,,,,,,,,,6154940e788774dc9a1ec182,19,2022-02-12_17h00.03,lexical_decision_task_DD_L6,2021.2.3,MacIntel,59.99880002,,,,,,,,,,,,,,,,,,,,,,,,,,,,,,,,,,,,,,,,,,,,,,,,,How likely will it be that you will recognize the words presented slighly blurred on a scale of 0 (not likely) to 100 (most likely)?,,,,,,,,,,,,5,6.796,0,1,1,1,1,,,,,,,,,,,,,,,,,,,,
,,,,,,,,,,,,,,,,,6154940e788774dc9a1ec182,19,2022-02-12_17h00.03,lexical_decision_task_DD_L6,2021.2.3,MacIntel,59.99880002,,,,,,,,,,,,,,,,,,,,,,,,,,,,,,,,,,,,,,,,,,,,,,,,,How likely will it be that you will recognize the words presented very blurred on a scale of 0 (not likely) to 100 (most likely)?,,,,,,,,,,,,3,2.652265,0,2,2,2,1,,,,,,,,,,,,,,,,,,,,
space,24.15912,-0.01296441,-0.389622396,0,0,0,,,,,,1,test,"In the next phase you will be presented with the words from the the first phase. Your job is to decide whether you remember seeing the word or not. If you remember seeing the word press ""old"" or type ""m"". If you do not remember seeing the word press ""new"" or type ""z"". Please press the space bar or click on continue to begin. ",,,6154940e788774dc9a1ec182,19,2022-02-12_17h00.03,lexical_decision_task_DD_L6,2021.2.3,MacIntel,59.99880002,,,,,,,,,,,,,,,,,,,,,,,,,,,,,,,,,,,,,,,,,,,,,,,,,,,,,,,,,,,,,,,,,,,,0,0,0,0,1,,,,,,,,,,,,,,,
,,0.066996528,-0.382196181,1,0,0,,,,,,1,test,"In the next phase you will be presented with the words from the the first phase. Your job is to decide whether you remember seeing the word or not. If you remember seeing the word press ""old"" or type ""m"". If you do not remember seeing the word press ""new"" or type ""z"". Please press the space bar or click on continue to begin. ",,,6154940e788774dc9a1ec182,19,2022-02-12_17h00.03,lexical_decision_task_DD_L6,2021.2.3,MacIntel,59.99880002,,,,,,,,,,,,,,,,,,,,,instr_done_button,,,,,,,,,,,,,,,,,,,,,,,,,,,,,,,,,,,,,,,,,,,,,,,1,0,1,0,1,,,,,,,,,,,,,,,
space,1.05362,0.062135417,0.038363715,0,0,0,,,,,,1,test,"In the next phase you will be presented with the words from the the first phase. Your job is to decide whether you remember seeing the word or not. If you remember seeing the word press ""old"" or type ""m"". If you do not remember seeing the word press ""new"" or type ""z"". Please press the space bar or click on continue to begin. ",,,6154940e788774dc9a1ec182,19,2022-02-12_17h00.03,lexical_decision_task_DD_L6,2021.2.3,MacIntel,59.99880002,,,,,,,,,,,,,,,,,,,,,,,,,,,,,,,,,,,,,,,,,,,,,,,,,,,,,,,,,,,,,,,,,,,,2,0,2,0,1,,,,,,,,,,,,,,,
,,0.007864583,-0.433033854,1,0,0,,,,,,1,test,"In the next phase you will be presented with the words from the the first phase. Your job is to decide whether you remember seeing the word or not. If you remember seeing the word press ""old"" or type ""m"". If you do not remember seeing the word press ""new"" or type ""z"". Please press the space bar or click on continue to begin. ",,,6154940e788774dc9a1ec182,19,2022-02-12_17h00.03,lexical_decision_task_DD_L6,2021.2.3,MacIntel,59.99880002,,,,,,,,,,,,,,,,,,,,,instr_done_button,,,,,,,,,,,,,,,,,,,,,,,,,,,,,,,,,,,,,,,,,,,,,,,3,0,3,0,1,,,,,,,,,,,,,,,
,,0.009253472,-0.390763889,1,0,0,,,,,,1,test,"In the next phase you will be presented with the words from the the first phase. Your job is to decide whether you remember seeing the word or not. If you remember seeing the word press ""old"" or type ""m"". If you do not remember seeing the word press ""new"" or type ""z"". Please press the space bar or click on continue to begin. ",,,6154940e788774dc9a1ec182,19,2022-02-12_17h00.03,lexical_decision_task_DD_L6,2021.2.3,MacIntel,59.99880002,,,,,,,,,,,,,,,,,,,,,instr_done_button,,,,,,,,,,,,,,,,,,,,,,,,,,,,,,,,,,,,,,,,,,,,,,,4,0,4,0,1,,,,,,,,,,,,,,,
,,,,,,,,,,,,,,,,,6154940e788774dc9a1ec182,19,2022-02-12_17h00.03,lexical_decision_task_DD_L6,2021.2.3,MacIntel,59.99880002,,,,,,,,,,,3.309715,1,,,,,,,,,,,,,,,,,,,,,,,,,0.097274306,-0.01343316,0,0,0,,,,,,,CHAIN,LB,m,y,./images/CHAINLB.png,,,,,,,,,,,,,,,,,,,,,m,1,3.309715,,,,,,,,0,0,0,42,1
,,,,,,,,,,,,,,,,,6154940e788774dc9a1ec182,19,2022-02-12_17h00.03,lexical_decision_task_DD_L6,2021.2.3,MacIntel,59.99880002,,,,,,,,,,,1.050345,0,,,,,,,,,,,,,,,,,,,,,,,,,0.097274306,-0.01343316,0,0,0,,,,,,,MALLET,HB,z,y,./images/MALLETHB.png,,,,,,,,,,,,,,,,,,,,,m,0,1.050345,,,,,,,,0,1,1,134,1
,,,,,,,,,,,,,,,,,6154940e788774dc9a1ec182,19,2022-02-12_17h00.03,lexical_decision_task_DD_L6,2021.2.3,MacIntel,59.99880002,,,,,,,,,,,0.913205,0,,,,,,,,,,,,,,,,,,,,,,,,,0.097274306,-0.01343316,0,0,0,,,,,,,JUMPER,HB,m,y,./images/JUMPERHB.png,,,,,,,,,,,,,,,,,,,,,z,0,0.913205,,,,,,,,0,2,2,74,1
,,,,,,,,,,,,,,,,,6154940e788774dc9a1ec182,19,2022-02-12_17h00.03,lexical_decision_task_DD_L6,2021.2.3,MacIntel,59.99880002,,,,,,,,,,,0.796875,0,,,,,,,,,,,,,,,,,,,,,,,,,0.097274306,-0.01343316,0,0,0,,,,,,,SPINE,HB,m,y,./images/SPINEHB.png,,,,,,,,,,,,,,,,,,,,,z,0,0.796875,,,,,,,,0,3,3,65,1
,,,,,,,,,,,,,,,,,6154940e788774dc9a1ec182,19,2022-02-12_17h00.03,lexical_decision_task_DD_L6,2021.2.3,MacIntel,59.99880002,,,,,,,,,,,0.749605,1,,,,,,,,,,,,,,,,,,,,,,,,,0.097274306,-0.01343316,0,0,0,,,,,,,BIRTH,C,z,y,./images/BIRTH.png,,,,,,,,,,,,,,,,,,,,,z,1,0.749605,,,,,,,,0,4,4,121,1
,,,,,,,,,,,,,,,,,6154940e788774dc9a1ec182,19,2022-02-12_17h00.03,lexical_decision_task_DD_L6,2021.2.3,MacIntel,59.99880002,,,,,,,,,,,1.001365,0,,,,,,,,,,,,,,,,,,,,,,,,,0.097274306,-0.01343316,0,0,0,,,,,,,MUSCLE,C,z,y,./images/MUSCLE.png,,,,,,,,,,,,,,,,,,,,,m,0,1.001365,,,,,,,,0,5,5,88,1
,,,,,,,,,,,,,,,,,6154940e788774dc9a1ec182,19,2022-02-12_17h00.03,lexical_decision_task_DD_L6,2021.2.3,MacIntel,59.99880002,,,,,,,,,,,0.632975,1,,,,,,,,,,,,,,,,,,,,,,,,,0.097274306,-0.01343316,0,0,0,,,,,,,BANANA,C,m,y,./images/BANANA.png,,,,,,,,,,,,,,,,,,,,,m,1,0.632975,,,,,,,,0,6,6,70,1
,,,,,,,,,,,,,,,,,6154940e788774dc9a1ec182,19,2022-02-12_17h00.03,lexical_decision_task_DD_L6,2021.2.3,MacIntel,59.99880002,,,,,,,,,,,1.421425,0,,,,,,,,,,,,,,,,,,,,,,,,,0.097274306,-0.01343316,0,0,0,,,,,,,PAINT,C,z,y,./images/PAINT.png,,,,,,,,,,,,,,,,,,,,,m,0,1.421425,,,,,,,,0,7,7,91,1
,,,,,,,,,,,,,,,,,6154940e788774dc9a1ec182,19,2022-02-12_17h00.03,lexical_decision_task_DD_L6,2021.2.3,MacIntel,59.99880002,,,,,,,,,,,0.668185,1,,,,,,,,,,,,,,,,,,,,,,,,,0.097274306,-0.01343316,0,0,0,,,,,,,SAILOR,C,z,y,./images/SAILOR.png,,,,,,,,,,,,,,,,,,,,,z,1,0.668185,,,,,,,,0,8,8,151,1
,,,,,,,,,,,,,,,,,6154940e788774dc9a1ec182,19,2022-02-12_17h00.03,lexical_decision_task_DD_L6,2021.2.3,MacIntel,59.99880002,,,,,,,,,,,4.22998,0,,,,,,,,,,,,,,,,,,,,,,,,,0.097274306,-0.01343316,0,0,0,,,,,,,ENGINE,HB,m,y,./images/ENGINEHB.png,,,,,,,,,,,,,,,,,,,,,z,0,4.22998,,,,,,,,0,9,9,38,1
,,,,,,,,,,,,,,,,,6154940e788774dc9a1ec182,19,2022-02-12_17h00.03,lexical_decision_task_DD_L6,2021.2.3,MacIntel,59.99880002,,,,,,,,,,,1.269345,1,,,,,,,,,,,,,,,,,,,,,,,,,0.097274306,-0.01343316,0,0,0,,,,,,,WHISKY,HB,m,y,./images/WHISKYHB.png,,,,,,,,,,,,,,,,,,,,,m,1,1.269345,,,,,,,,0,10,10,83,1
,,,,,,,,,,,,,,,,,6154940e788774dc9a1ec182,19,2022-02-12_17h00.03,lexical_decision_task_DD_L6,2021.2.3,MacIntel,59.99880002,,,,,,,,,,,2.200855,0,,,,,,,,,,,,,,,,,,,,,,,,,0.097274306,-0.01343316,0,0,0,,,,,,,SWEAT,LB,z,y,./images/SWEATLB.png,,,,,,,,,,,,,,,,,,,,,m,0,2.200855,,,,,,,,0,11,11,150,1
,,,,,,,,,,,,,,,,,6154940e788774dc9a1ec182,19,2022-02-12_17h00.03,lexical_decision_task_DD_L6,2021.2.3,MacIntel,59.99880002,,,,,,,,,,,2.146785,1,,,,,,,,,,,,,,,,,,,,,,,,,0.097274306,-0.01343316,0,0,0,,,,,,,NOOSE,LB,z,y,./images/NOOSELB.png,,,,,,,,,,,,,,,,,,,,,z,1,2.146785,,,,,,,,0,12,12,156,1
,,,,,,,,,,,,,,,,,6154940e788774dc9a1ec182,19,2022-02-12_17h00.03,lexical_decision_task_DD_L6,2021.2.3,MacIntel,59.99880002,,,,,,,,,,,0.78955,1,,,,,,,,,,,,,,,,,,,,,,,,,0.097274306,-0.01343316,0,0,0,,,,,,,TOWEL,C,m,y,./images/TOWEL.png,,,,,,,,,,,,,,,,,,,,,m,1,0.78955,,,,,,,,0,13,13,1,1
,,,,,,,,,,,,,,,,,6154940e788774dc9a1ec182,19,2022-02-12_17h00.03,lexical_decision_task_DD_L6,2021.2.3,MacIntel,59.99880002,,,,,,,,,,,0.633585,0,,,,,,,,,,,,,,,,,,,,,,,,,0.097274306,-0.01343316,0,0,0,,,,,,,SNACK,C,z,y,./images/SNACK.png,,,,,,,,,,,,,,,,,,,,,m,0,0.633585,,,,,,,,0,14,14,157,1
,,,,,,,,,,,,,,,,,6154940e788774dc9a1ec182,19,2022-02-12_17h00.03,lexical_decision_task_DD_L6,2021.2.3,MacIntel,59.99880002,,,,,,,,,,,2.83379,0,,,,,,,,,,,,,,,,,,,,,,,,,0.097274306,-0.01343316,0,0,0,,,,,,,STREAM,HB,m,y,./images/STREAMHB.png,,,,,,,,,,,,,,,,,,,,,z,0,2.83379,,,,,,,,0,15,15,41,1
,,,,,,,,,,,,,,,,,6154940e788774dc9a1ec182,19,2022-02-12_17h00.03,lexical_decision_task_DD_L6,2021.2.3,MacIntel,59.99880002,,,,,,,,,,,0.664095,0,,,,,,,,,,,,,,,,,,,,,,,,,0.097274306,-0.01343316,0,0,0,,,,,,,MAGGOT,LB,z,y,./images/MAGGOTLB.png,,,,,,,,,,,,,,,,,,,,,m,0,0.664095,,,,,,,,0,16,16,117,1
,,,,,,,,,,,,,,,,,6154940e788774dc9a1ec182,19,2022-02-12_17h00.03,lexical_decision_task_DD_L6,2021.2.3,MacIntel,59.99880002,,,,,,,,,,,1.39944,0,,,,,,,,,,,,,,,,,,,,,,,,,0.097274306,-0.01343316,0,0,0,,,,,,,CRUMB,HB,z,y,./images/CRUMBHB.png,,,,,,,,,,,,,,,,,,,,,m,0,1.39944,,,,,,,,0,17,17,113,1
,,,,,,,,,,,,,,,,,6154940e788774dc9a1ec182,19,2022-02-12_17h00.03,lexical_decision_task_DD_L6,2021.2.3,MacIntel,59.99880002,,,,,,,,,,,1.2158,1,,,,,,,,,,,,,,,,,,,,,,,,,0.097274306,-0.01343316,0,0,0,,,,,,,BAMBOO,HB,m,y,./images/BAMBOOHB.png,,,,,,,,,,,,,,,,,,,,,m,1,1.2158,,,,,,,,0,18,18,5,1
,,,,,,,,,,,,,,,,,6154940e788774dc9a1ec182,19,2022-02-12_17h00.03,lexical_decision_task_DD_L6,2021.2.3,MacIntel,59.99880002,,,,,,,,,,,0.7923,1,,,,,,,,,,,,,,,,,,,,,,,,,0.097274306,-0.01343316,0,0,0,,,,,,,PLANK,C,z,y,./images/PLANK.png,,,,,,,,,,,,,,,,,,,,,z,1,0.7923,,,,,,,,0,19,19,85,1
,,,,,,,,,,,,,,,,,6154940e788774dc9a1ec182,19,2022-02-12_17h00.03,lexical_decision_task_DD_L6,2021.2.3,MacIntel,59.99880002,,,,,,,,,,,0.715985,1,,,,,,,,,,,,,,,,,,,,,,,,,0.097274306,-0.01343316,0,0,0,,,,,,,BRUSH,HB,m,y,./images/BRUSHHB.png,,,,,,,,,,,,,,,,,,,,,m,1,0.715985,,,,,,,,0,20,20,59,1
,,,,,,,,,,,,,,,,,6154940e788774dc9a1ec182,19,2022-02-12_17h00.03,lexical_decision_task_DD_L6,2021.2.3,MacIntel,59.99880002,,,,,,,,,,,1.148915,1,,,,,,,,,,,,,,,,,,,,,,,,,0.097274306,-0.01343316,0,0,0,,,,,,,GARDEN,C,m,y,./images/GARDEN.png,,,,,,,,,,,,,,,,,,,,,m,1,1.148915,,,,,,,,0,21,21,10,1
,,,,,,,,,,,,,,,,,6154940e788774dc9a1ec182,19,2022-02-12_17h00.03,lexical_decision_task_DD_L6,2021.2.3,MacIntel,59.99880002,,,,,,,,,,,0.973225,1,,,,,,,,,,,,,,,,,,,,,,,,,0.097274306,-0.01343316,0,0,0,,,,,,,COLLAR,LB,m,y,./images/COLLARLB.png,,,,,,,,,,,,,,,,,,,,,m,1,0.973225,,,,,,,,0,22,22,15,1
,,,,,,,,,,,,,,,,,6154940e788774dc9a1ec182,19,2022-02-12_17h00.03,lexical_decision_task_DD_L6,2021.2.3,MacIntel,59.99880002,,,,,,,,,,,0.964785,0,,,,,,,,,,,,,,,,,,,,,,,,,0.775876736,0.5,0,0,0,,,,,,,STRING,HB,z,y,./images/STRINGHB.png,,,,,,,,,,,,,,,,,,,,,m,0,0.964785,,,,,,,,0,23,23,125,1
,,,,,,,,,,,,,,,,,6154940e788774dc9a1ec182,19,2022-02-12_17h00.03,lexical_decision_task_DD_L6,2021.2.3,MacIntel,59.99880002,,,,,,,,,,,0.76511,1,,,,,,,,,,,,,,,,,,,,,,,,,0.775876736,0.5,0,0,0,,,,,,,URINE,C,z,y,./images/URINE.png,,,,,,,,,,,,,,,,,,,,,z,1,0.76511,,,,,,,,0,24,24,154,1
,,,,,,,,,,,,,,,,,6154940e788774dc9a1ec182,19,2022-02-12_17h00.03,lexical_decision_task_DD_L6,2021.2.3,MacIntel,59.99880002,,,,,,,,,,,0.87282,1,,,,,,,,,,,,,,,,,,,,,,,,,0.775876736,0.5,0,0,0,,,,,,,DOUGH,C,z,y,./images/DOUGH.png,,,,,,,,,,,,,,,,,,,,,z,1,0.87282,,,,,,,,0,25,25,103,1
,,,,,,,,,,,,,,,,,6154940e788774dc9a1ec182,19,2022-02-12_17h00.03,lexical_decision_task_DD_L6,2021.2.3,MacIntel,59.99880002,,,,,,,,,,,1.03481,1,,,,,,,,,,,,,,,,,,,,,,,,,0.775876736,0.5,0,0,0,,,,,,,SAUCE,LB,m,y,./images/SAUCELB.png,,,,,,,,,,,,,,,,,,,,,m,1,1.03481,,,,,,,,0,26,26,51,1
,,,,,,,,,,,,,,,,,6154940e788774dc9a1ec182,19,2022-02-12_17h00.03,lexical_decision_task_DD_L6,2021.2.3,MacIntel,59.99880002,,,,,,,,,,,1.502115,1,,,,,,,,,,,,,,,,,,,,,,,,,0.775876736,0.5,0,0,0,,,,,,,SPORT,LB,z,y,./images/SPORTLB.png,,,,,,,,,,,,,,,,,,,,,z,1,1.502115,,,,,,,,0,27,27,132,1
,,,,,,,,,,,,,,,,,6154940e788774dc9a1ec182,19,2022-02-12_17h00.03,lexical_decision_task_DD_L6,2021.2.3,MacIntel,59.99880002,,,,,,,,,,,0.93935,0,,,,,,,,,,,,,,,,,,,,,,,,,0.775876736,0.5,0,0,0,,,,,,,BONNET,HB,z,y,./images/BONNETHB.png,,,,,,,,,,,,,,,,,,,,,m,0,0.93935,,,,,,,,0,28,28,95,1
,,,,,,,,,,,,,,,,,6154940e788774dc9a1ec182,19,2022-02-12_17h00.03,lexical_decision_task_DD_L6,2021.2.3,MacIntel,59.99880002,,,,,,,,,,,1.080905,1,,,,,,,,,,,,,,,,,,,,,,,,,0.775876736,0.5,0,0,0,,,,,,,WAGON,C,m,y,./images/WAGON.png,,,,,,,,,,,,,,,,,,,,,m,1,1.080905,,,,,,,,0,29,29,7,1
,,,,,,,,,,,,,,,,,6154940e788774dc9a1ec182,19,2022-02-12_17h00.03,lexical_decision_task_DD_L6,2021.2.3,MacIntel,59.99880002,,,,,,,,,,,0.7058,1,,,,,,,,,,,,,,,,,,,,,,,,,0.775876736,0.5,0,0,0,,,,,,,LLAMA,HB,m,y,./images/LLAMAHB.png,,,,,,,,,,,,,,,,,,,,,m,1,0.7058,,,,,,,,0,30,30,35,1
,,,,,,,,,,,,,,,,,6154940e788774dc9a1ec182,19,2022-02-12_17h00.03,lexical_decision_task_DD_L6,2021.2.3,MacIntel,59.99880002,,,,,,,,,,,0.881405,1,,,,,,,,,,,,,,,,,,,,,,,,,0.775876736,0.5,0,0,0,,,,,,,BROOM,LB,m,y,./images/BROOMLB.png,,,,,,,,,,,,,,,,,,,,,m,1,0.881405,,,,,,,,0,31,31,78,1
,,,,,,,,,,,,,,,,,6154940e788774dc9a1ec182,19,2022-02-12_17h00.03,lexical_decision_task_DD_L6,2021.2.3,MacIntel,59.99880002,,,,,,,,,,,1.03124,1,,,,,,,,,,,,,,,,,,,,,,,,,0.775876736,0.5,0,0,0,,,,,,,FARMER,HB,z,y,./images/FARMERHB.png,,,,,,,,,,,,,,,,,,,,,z,1,1.03124,,,,,,,,0,32,32,149,1
,,,,,,,,,,,,,,,,,6154940e788774dc9a1ec182,19,2022-02-12_17h00.03,lexical_decision_task_DD_L6,2021.2.3,MacIntel,59.99880002,,,,,,,,,,,0.68333,1,,,,,,,,,,,,,,,,,,,,,,,,,0.775876736,0.5,0,0,0,,,,,,,BARREL,HB,z,y,./images/BARRELHB.png,,,,,,,,,,,,,,,,,,,,,z,1,0.68333,,,,,,,,0,33,33,116,1
,,,,,,,,,,,,,,,,,6154940e788774dc9a1ec182,19,2022-02-12_17h00.03,lexical_decision_task_DD_L6,2021.2.3,MacIntel,59.99880002,,,,,,,,,,,0.982835,1,,,,,,,,,,,,,,,,,,,,,,,,,0.775876736,0.5,0,0,0,,,,,,,SNAKE,C,m,y,./images/SNAKE.png,,,,,,,,,,,,,,,,,,,,,m,1,0.982835,,,,,,,,0,34,34,40,1
,,,,,,,,,,,,,,,,,6154940e788774dc9a1ec182,19,2022-02-12_17h00.03,lexical_decision_task_DD_L6,2021.2.3,MacIntel,59.99880002,,,,,,,,,,,1.490655,1,,,,,,,,,,,,,,,,,,,,,,,,,0.775876736,0.5,0,0,0,,,,,,,MIDGET,C,m,y,./images/MIDGET.png,,,,,,,,,,,,,,,,,,,,,m,1,1.490655,,,,,,,,0,35,35,76,1
,,,,,,,,,,,,,,,,,6154940e788774dc9a1ec182,19,2022-02-12_17h00.03,lexical_decision_task_DD_L6,2021.2.3,MacIntel,59.99880002,,,,,,,,,,,1.65612,0,,,,,,,,,,,,,,,,,,,,,,,,,0.775876736,0.5,0,0,0,,,,,,,SCREW,LB,z,y,./images/SCREWLB.png,,,,,,,,,,,,,,,,,,,,,m,0,1.65612,,,,,,,,0,36,36,108,1
,,,,,,,,,,,,,,,,,6154940e788774dc9a1ec182,19,2022-02-12_17h00.03,lexical_decision_task_DD_L6,2021.2.3,MacIntel,59.99880002,,,,,,,,,,,0.77054,1,,,,,,,,,,,,,,,,,,,,,,,,,0.775876736,0.5,0,0,0,,,,,,,TWINS,LB,z,y,./images/TWINSLB.png,,,,,,,,,,,,,,,,,,,,,z,1,0.77054,,,,,,,,0,37,37,144,1
,,,,,,,,,,,,,,,,,6154940e788774dc9a1ec182,19,2022-02-12_17h00.03,lexical_decision_task_DD_L6,2021.2.3,MacIntel,59.99880002,,,,,,,,,,,0.755305,1,,,,,,,,,,,,,,,,,,,,,,,,,0.775876736,0.5,0,0,0,,,,,,,CANDLE,C,z,y,./images/CANDLE.png,,,,,,,,,,,,,,,,,,,,,z,1,0.755305,,,,,,,,0,38,38,145,1
,,,,,,,,,,,,,,,,,6154940e788774dc9a1ec182,19,2022-02-12_17h00.03,lexical_decision_task_DD_L6,2021.2.3,MacIntel,59.99880002,,,,,,,,,,,0.947195,1,,,,,,,,,,,,,,,,,,,,,,,,,0.775876736,0.5,0,0,0,,,,,,,TULIP,HB,z,y,./images/TULIPHB.png,,,,,,,,,,,,,,,,,,,,,z,1,0.947195,,,,,,,,0,39,39,92,1
,,,,,,,,,,,,,,,,,6154940e788774dc9a1ec182,19,2022-02-12_17h00.03,lexical_decision_task_DD_L6,2021.2.3,MacIntel,59.99880002,,,,,,,,,,,1.18336,1,,,,,,,,,,,,,,,,,,,,,,,,,0.775876736,0.5,0,0,0,,,,,,,FOLDER,LB,z,y,./images/FOLDERLB.png,,,,,,,,,,,,,,,,,,,,,z,1,1.18336,,,,,,,,0,40,40,126,1
,,,,,,,,,,,,,,,,,6154940e788774dc9a1ec182,19,2022-02-12_17h00.03,lexical_decision_task_DD_L6,2021.2.3,MacIntel,59.99880002,,,,,,,,,,,6.666615,0,,,,,,,,,,,,,,,,,,,,,,,,,0.140377604,-0.392282986,1,0,0,,,,,,,ARROW,LB,m,y,./images/ARROWLB.png,break_done_button,,,,,,,,,,,,,,,,,,,,z,0,6.666615,,,,,,,,0,41,41,69,1
,,,,,,,,,,,,,,,,,6154940e788774dc9a1ec182,19,2022-02-12_17h00.03,lexical_decision_task_DD_L6,2021.2.3,MacIntel,59.99880002,,,,,,,,,,,2.051495,1,,,,,,,,,,,,,,,,,,,,,,,,,0.140377604,-0.392282986,0,0,0,,,,,,,BURIAL,HB,z,y,./images/BURIALHB.png,,,,,,,,,,,,,,,,,,,,,z,1,2.051495,,,,,,,,0,42,42,143,1
,,,,,,,,,,,,,,,,,6154940e788774dc9a1ec182,19,2022-02-12_17h00.03,lexical_decision_task_DD_L6,2021.2.3,MacIntel,59.99880002,,,,,,,,,,,0.865615,1,,,,,,,,,,,,,,,,,,,,,,,,,0.140377604,-0.392282986,0,0,0,,,,,,,BUNNY,C,m,y,./images/BUNNY.png,,,,,,,,,,,,,,,,,,,,,m,1,0.865615,,,,,,,,0,43,43,13,1
,,,,,,,,,,,,,,,,,6154940e788774dc9a1ec182,19,2022-02-12_17h00.03,lexical_decision_task_DD_L6,2021.2.3,MacIntel,59.99880002,,,,,,,,,,,2.49727,1,,,,,,,,,,,,,,,,,,,,,,,,,0.138342014,-0.39140191,0,0,0,,,,,,,JAGUAR,LB,z,y,./images/JAGUARLB.png,,,,,,,,,,,,,,,,,,,,,z,1,2.49727,,,,,,,,0,44,44,102,1
,,,,,,,,,,,,,,,,,6154940e788774dc9a1ec182,19,2022-02-12_17h00.03,lexical_decision_task_DD_L6,2021.2.3,MacIntel,59.99880002,,,,,,,,,,,1.4278,1,,,,,,,,,,,,,,,,,,,,,,,,,0.138020833,-0.390763889,0,0,0,,,,,,,PILOT,HB,m,y,./images/PILOTHB.png,,,,,,,,,,,,,,,,,,,,,m,1,1.4278,,,,,,,,0,45,45,50,1
,,,,,,,,,,,,,,,,,6154940e788774dc9a1ec182,19,2022-02-12_17h00.03,lexical_decision_task_DD_L6,2021.2.3,MacIntel,59.99880002,,,,,,,,,,,1.418025,1,,,,,,,,,,,,,,,,,,,,,,,,,0.141814236,-0.393450521,0,0,0,,,,,,,MUMMY,C,m,y,./images/MUMMY.png,,,,,,,,,,,,,,,,,,,,,m,1,1.418025,,,,,,,,0,46,46,46,1
,,,,,,,,,,,,,,,,,6154940e788774dc9a1ec182,19,2022-02-12_17h00.03,lexical_decision_task_DD_L6,2021.2.3,MacIntel,59.99880002,,,,,,,,,,,10.604445,0,,,,,,,,,,,,,,,,,,,,,,,,,0.773875868,0.412131076,0,0,0,,,,,,,GREASE,LB,z,y,./images/GREASELB.png,,,,,,,,,,,,,,,,,,,,,m,0,10.604445,,,,,,,,0,47,47,99,1
,,,,,,,,,,,,,,,,,6154940e788774dc9a1ec182,19,2022-02-12_17h00.03,lexical_decision_task_DD_L6,2021.2.3,MacIntel,59.99880002,,,,,,,,,,,3.359485,0,,,,,,,,,,,,,,,,,,,,,,,,,0.773875868,0.412131076,0,0,0,,,,,,,RHINO,LB,z,y,./images/RHINOLB.png,,,,,,,,,,,,,,,,,,,,,m,0,3.359485,,,,,,,,0,48,48,93,1
,,,,,,,,,,,,,,,,,6154940e788774dc9a1ec182,19,2022-02-12_17h00.03,lexical_decision_task_DD_L6,2021.2.3,MacIntel,59.99880002,,,,,,,,,,,0.847975,0,,,,,,,,,,,,,,,,,,,,,,,,,0.773875868,0.412131076,0,0,0,,,,,,,PARADE,HB,m,y,./images/PARADEHB.png,,,,,,,,,,,,,,,,,,,,,z,0,0.847975,,,,,,,,0,49,49,17,1
,,,,,,,,,,,,,,,,,6154940e788774dc9a1ec182,19,2022-02-12_17h00.03,lexical_decision_task_DD_L6,2021.2.3,MacIntel,59.99880002,,,,,,,,,,,0.908825,1,,,,,,,,,,,,,,,,,,,,,,,,,0.773875868,0.412131076,0,0,0,,,,,,,BUTTER,LB,m,y,./images/BUTTERLB.png,,,,,,,,,,,,,,,,,,,,,m,1,0.908825,,,,,,,,0,50,50,27,1
,,,,,,,,,,,,,,,,,6154940e788774dc9a1ec182,19,2022-02-12_17h00.03,lexical_decision_task_DD_L6,2021.2.3,MacIntel,59.99880002,,,,,,,,,,,3.067065,1,,,,,,,,,,,,,,,,,,,,,,,,,0.773875868,0.412131076,0,0,0,,,,,,,CRATER,LB,m,y,./images/CRATERLB.png,,,,,,,,,,,,,,,,,,,,,m,1,3.067065,,,,,,,,0,51,51,3,1
,,,,,,,,,,,,,,,,,6154940e788774dc9a1ec182,19,2022-02-12_17h00.03,lexical_decision_task_DD_L6,2021.2.3,MacIntel,59.99880002,,,,,,,,,,,0.8141,0,,,,,,,,,,,,,,,,,,,,,,,,,0.773875868,0.412131076,0,0,0,,,,,,,DRILL,LB,m,y,./images/DRILLLB.png,,,,,,,,,,,,,,,,,,,,,z,0,0.8141,,,,,,,,0,52,52,81,1
,,,,,,,,,,,,,,,,,6154940e788774dc9a1ec182,19,2022-02-12_17h00.03,lexical_decision_task_DD_L6,2021.2.3,MacIntel,59.99880002,,,,,,,,,,,1.02894,1,,,,,,,,,,,,,,,,,,,,,,,,,0.773875868,0.412131076,0,0,0,,,,,,,VALLEY,HB,m,y,./images/VALLEYHB.png,,,,,,,,,,,,,,,,,,,,,m,1,1.02894,,,,,,,,0,53,53,68,1
,,,,,,,,,,,,,,,,,6154940e788774dc9a1ec182,19,2022-02-12_17h00.03,lexical_decision_task_DD_L6,2021.2.3,MacIntel,59.99880002,,,,,,,,,,,0.913465,1,,,,,,,,,,,,,,,,,,,,,,,,,0.773875868,0.412131076,0,0,0,,,,,,,LIZARD,HB,z,y,./images/LIZARDHB.png,,,,,,,,,,,,,,,,,,,,,z,1,0.913465,,,,,,,,0,54,54,128,1
,,,,,,,,,,,,,,,,,6154940e788774dc9a1ec182,19,2022-02-12_17h00.03,lexical_decision_task_DD_L6,2021.2.3,MacIntel,59.99880002,,,,,,,,,,,0.889515,1,,,,,,,,,,,,,,,,,,,,,,,,,0.773875868,0.412131076,0,0,0,,,,,,,CLIFF,HB,m,y,./images/CLIFFHB.png,,,,,,,,,,,,,,,,,,,,,m,1,0.889515,,,,,,,,0,55,55,8,1
,,,,,,,,,,,,,,,,,6154940e788774dc9a1ec182,19,2022-02-12_17h00.03,lexical_decision_task_DD_L6,2021.2.3,MacIntel,59.99880002,,,,,,,,,,,0.779805,1,,,,,,,,,,,,,,,,,,,,,,,,,0.773875868,0.412131076,0,0,0,,,,,,,CEMENT,HB,z,y,./images/CEMENTHB.png,,,,,,,,,,,,,,,,,,,,,z,1,0.779805,,,,,,,,0,56,56,158,1
,,,,,,,,,,,,,,,,,6154940e788774dc9a1ec182,19,2022-02-12_17h00.03,lexical_decision_task_DD_L6,2021.2.3,MacIntel,59.99880002,,,,,,,,,,,1.334745,1,,,,,,,,,,,,,,,,,,,,,,,,,0.773875868,0.412131076,0,0,0,,,,,,,CRUST,C,z,y,./images/CRUST.png,,,,,,,,,,,,,,,,,,,,,z,1,1.334745,,,,,,,,0,57,57,163,1
,,,,,,,,,,,,,,,,,6154940e788774dc9a1ec182,19,2022-02-12_17h00.03,lexical_decision_task_DD_L6,2021.2.3,MacIntel,59.99880002,,,,,,,,,,,0.946175,0,,,,,,,,,,,,,,,,,,,,,,,,,0.773875868,0.412131076,0,0,0,,,,,,,GLOVE,C,m,y,./images/GLOVE.png,,,,,,,,,,,,,,,,,,,,,z,0,0.946175,,,,,,,,0,58,58,73,1
,,,,,,,,,,,,,,,,,6154940e788774dc9a1ec182,19,2022-02-12_17h00.03,lexical_decision_task_DD_L6,2021.2.3,MacIntel,59.99880002,,,,,,,,,,,0.816515,1,,,,,,,,,,,,,,,,,,,,,,,,,0.773875868,0.412131076,0,0,0,,,,,,,CASINO,C,m,y,./images/CASINO.png,,,,,,,,,,,,,,,,,,,,,m,1,0.816515,,,,,,,,0,59,59,28,1
,,,,,,,,,,,,,,,,,6154940e788774dc9a1ec182,19,2022-02-12_17h00.03,lexical_decision_task_DD_L6,2021.2.3,MacIntel,59.99880002,,,,,,,,,,,1.355885,1,,,,,,,,,,,,,,,,,,,,,,,,,0.773875868,0.412131076,0,0,0,,,,,,,MOSQUE,C,z,y,./images/MOSQUE.png,,,,,,,,,,,,,,,,,,,,,z,1,1.355885,,,,,,,,0,60,60,127,1
,,,,,,,,,,,,,,,,,6154940e788774dc9a1ec182,19,2022-02-12_17h00.03,lexical_decision_task_DD_L6,2021.2.3,MacIntel,59.99880002,,,,,,,,,,,0.835485,1,,,,,,,,,,,,,,,,,,,,,,,,,0.773875868,0.412131076,0,0,0,,,,,,,MUFFIN,C,z,y,./images/MUFFIN.png,,,,,,,,,,,,,,,,,,,,,z,1,0.835485,,,,,,,,0,61,61,139,1
,,,,,,,,,,,,,,,,,6154940e788774dc9a1ec182,19,2022-02-12_17h00.03,lexical_decision_task_DD_L6,2021.2.3,MacIntel,59.99880002,,,,,,,,,,,4.488025,0,,,,,,,,,,,,,,,,,,,,,,,,,0.773875868,0.412131076,0,0,0,,,,,,,TIGER,C,m,y,./images/TIGER.png,,,,,,,,,,,,,,,,,,,,,z,0,4.488025,,,,,,,,0,62,62,37,1
,,,,,,,,,,,,,,,,,6154940e788774dc9a1ec182,19,2022-02-12_17h00.03,lexical_decision_task_DD_L6,2021.2.3,MacIntel,59.99880002,,,,,,,,,,,0.75823,0,,,,,,,,,,,,,,,,,,,,,,,,,0.773875868,0.412131076,0,0,0,,,,,,,CANYON,C,z,y,./images/CANYON.png,,,,,,,,,,,,,,,,,,,,,m,0,0.75823,,,,,,,,0,63,63,118,1
,,,,,,,,,,,,,,,,,6154940e788774dc9a1ec182,19,2022-02-12_17h00.03,lexical_decision_task_DD_L6,2021.2.3,MacIntel,59.99880002,,,,,,,,,,,1.50241,1,,,,,,,,,,,,,,,,,,,,,,,,,0.773875868,0.412131076,0,0,0,,,,,,,FENCE,HB,m,y,./images/FENCEHB.png,,,,,,,,,,,,,,,,,,,,,m,1,1.50241,,,,,,,,0,64,64,14,1
,,,,,,,,,,,,,,,,,6154940e788774dc9a1ec182,19,2022-02-12_17h00.03,lexical_decision_task_DD_L6,2021.2.3,MacIntel,59.99880002,,,,,,,,,,,0.873565,1,,,,,,,,,,,,,,,,,,,,,,,,,0.773875868,0.412131076,0,0,0,,,,,,,TRIPOD,LB,z,y,./images/TRIPODLB.png,,,,,,,,,,,,,,,,,,,,,z,1,0.873565,,,,,,,,0,65,65,138,1
,,,,,,,,,,,,,,,,,6154940e788774dc9a1ec182,19,2022-02-12_17h00.03,lexical_decision_task_DD_L6,2021.2.3,MacIntel,59.99880002,,,,,,,,,,,3.82459,0,,,,,,,,,,,,,,,,,,,,,,,,,0.773875868,0.412131076,0,0,0,,,,,,,COOKER,LB,z,y,./images/COOKERLB.png,,,,,,,,,,,,,,,,,,,,,m,0,3.82459,,,,,,,,0,66,66,153,1
,,,,,,,,,,,,,,,,,6154940e788774dc9a1ec182,19,2022-02-12_17h00.03,lexical_decision_task_DD_L6,2021.2.3,MacIntel,59.99880002,,,,,,,,,,,5.453945,1,,,,,,,,,,,,,,,,,,,,,,,,,0.773875868,0.412131076,0,0,0,,,,,,,JELLY,C,z,y,./images/JELLY.png,,,,,,,,,,,,,,,,,,,,,z,1,5.453945,,,,,,,,0,67,67,148,1
,,,,,,,,,,,,,,,,,6154940e788774dc9a1ec182,19,2022-02-12_17h00.03,lexical_decision_task_DD_L6,2021.2.3,MacIntel,59.99880002,,,,,,,,,,,2.230795,1,,,,,,,,,,,,,,,,,,,,,,,,,0.773875868,0.412131076,0,0,0,,,,,,,STOOL,C,m,y,./images/STOOL.png,,,,,,,,,,,,,,,,,,,,,m,1,2.230795,,,,,,,,0,68,68,43,1
,,,,,,,,,,,,,,,,,6154940e788774dc9a1ec182,19,2022-02-12_17h00.03,lexical_decision_task_DD_L6,2021.2.3,MacIntel,59.99880002,,,,,,,,,,,5.20361,1,,,,,,,,,,,,,,,,,,,,,,,,,0.773875868,0.412131076,0,0,0,,,,,,,PEARL,C,z,y,./images/PEARL.png,,,,,,,,,,,,,,,,,,,,,z,1,5.20361,,,,,,,,0,69,69,130,1
,,,,,,,,,,,,,,,,,6154940e788774dc9a1ec182,19,2022-02-12_17h00.03,lexical_decision_task_DD_L6,2021.2.3,MacIntel,59.99880002,,,,,,,,,,,2.22655,1,,,,,,,,,,,,,,,,,,,,,,,,,0.773875868,0.412131076,0,0,0,,,,,,,KITTEN,LB,z,y,./images/KITTENLB.png,,,,,,,,,,,,,,,,,,,,,z,1,2.22655,,,,,,,,0,70,70,129,1
,,,,,,,,,,,,,,,,,6154940e788774dc9a1ec182,19,2022-02-12_17h00.03,lexical_decision_task_DD_L6,2021.2.3,MacIntel,59.99880002,,,,,,,,,,,0.815285,1,,,,,,,,,,,,,,,,,,,,,,,,,0.773875868,0.412131076,0,0,0,,,,,,,WALNUT,LB,m,y,./images/WALNUTLB.png,,,,,,,,,,,,,,,,,,,,,m,1,0.815285,,,,,,,,0,71,71,0,1
,,,,,,,,,,,,,,,,,6154940e788774dc9a1ec182,19,2022-02-12_17h00.03,lexical_decision_task_DD_L6,2021.2.3,MacIntel,59.99880002,,,,,,,,,,,6.81559,1,,,,,,,,,,,,,,,,,,,,,,,,,0.773875868,0.412131076,0,0,0,,,,,,,STOVE,HB,m,y,./images/STOVEHB.png,,,,,,,,,,,,,,,,,,,,,m,1,6.81559,,,,,,,,0,72,72,2,1
,,,,,,,,,,,,,,,,,6154940e788774dc9a1ec182,19,2022-02-12_17h00.03,lexical_decision_task_DD_L6,2021.2.3,MacIntel,59.99880002,,,,,,,,,,,1.8756,0,,,,,,,,,,,,,,,,,,,,,,,,,0.773875868,0.412131076,0,0,0,,,,,,,HEATER,HB,m,y,./images/HEATERHB.png,,,,,,,,,,,,,,,,,,,,,z,0,1.8756,,,,,,,,0,73,73,56,1
,,,,,,,,,,,,,,,,,6154940e788774dc9a1ec182,19,2022-02-12_17h00.03,lexical_decision_task_DD_L6,2021.2.3,MacIntel,59.99880002,,,,,,,,,,,0.72935,1,,,,,,,,,,,,,,,,,,,,,,,,,0.773875868,0.412131076,0,0,0,,,,,,,SHIELD,LB,m,y,./images/SHIELDLB.png,,,,,,,,,,,,,,,,,,,,,m,1,0.72935,,,,,,,,0,74,74,48,1
,,,,,,,,,,,,,,,,,6154940e788774dc9a1ec182,19,2022-02-12_17h00.03,lexical_decision_task_DD_L6,2021.2.3,MacIntel,59.99880002,,,,,,,,,,,1.51539,1,,,,,,,,,,,,,,,,,,,,,,,,,0.773875868,0.412131076,0,0,0,,,,,,,CLOUD,HB,m,y,./images/CLOUDHB.png,,,,,,,,,,,,,,,,,,,,,m,1,1.51539,,,,,,,,0,75,75,26,1
,,,,,,,,,,,,,,,,,6154940e788774dc9a1ec182,19,2022-02-12_17h00.03,lexical_decision_task_DD_L6,2021.2.3,MacIntel,59.99880002,,,,,,,,,,,2.55226,1,,,,,,,,,,,,,,,,,,,,,,,,,0.773875868,0.412131076,0,0,0,,,,,,,POKER,C,m,y,./images/POKER.png,,,,,,,,,,,,,,,,,,,,,m,1,2.55226,,,,,,,,0,76,76,67,1
,,,,,,,,,,,,,,,,,6154940e788774dc9a1ec182,19,2022-02-12_17h00.03,lexical_decision_task_DD_L6,2021.2.3,MacIntel,59.99880002,,,,,,,,,,,1.116735,1,,,,,,,,,,,,,,,,,,,,,,,,,0.773875868,0.412131076,0,0,0,,,,,,,STORM,LB,z,y,./images/STORMLB.png,,,,,,,,,,,,,,,,,,,,,z,1,1.116735,,,,,,,,0,77,77,114,1
,,,,,,,,,,,,,,,,,6154940e788774dc9a1ec182,19,2022-02-12_17h00.03,lexical_decision_task_DD_L6,2021.2.3,MacIntel,59.99880002,,,,,,,,,,,2.530995,1,,,,,,,,,,,,,,,,,,,,,,,,,0.773875868,0.412131076,0,0,0,,,,,,,BERRY,HB,z,y,./images/BERRYHB.png,,,,,,,,,,,,,,,,,,,,,z,1,2.530995,,,,,,,,0,78,78,131,1
,,,,,,,,,,,,,,,,,6154940e788774dc9a1ec182,19,2022-02-12_17h00.03,lexical_decision_task_DD_L6,2021.2.3,MacIntel,59.99880002,,,,,,,,,,,4.735835,1,,,,,,,,,,,,,,,,,,,,,,,,,0.773875868,0.412131076,0,0,0,,,,,,,INFANT,C,z,y,./images/INFANT.png,,,,,,,,,,,,,,,,,,,,,z,1,4.735835,,,,,,,,0,79,79,160,1
,,,,,,,,,,,,,,,,,6154940e788774dc9a1ec182,19,2022-02-12_17h00.03,lexical_decision_task_DD_L6,2021.2.3,MacIntel,59.99880002,,,,,,,,,,,1.787905,1,,,,,,,,,,,,,,,,,,,,,,,,,0.773875868,0.412131076,0,0,0,,,,,,,LAGOON,HB,m,y,./images/LAGOONHB.png,,,,,,,,,,,,,,,,,,,,,m,1,1.787905,,,,,,,,0,80,80,47,1
,,,,,,,,,,,,,,,,,6154940e788774dc9a1ec182,19,2022-02-12_17h00.03,lexical_decision_task_DD_L6,2021.2.3,MacIntel,59.99880002,,,,,,,,,,,0.814495,1,,,,,,,,,,,,,,,,,,,,,,,,,0.773875868,0.412131076,0,0,0,,,,,,,RULER,C,m,y,./images/RULER.png,,,,,,,,,,,,,,,,,,,,,m,1,0.814495,,,,,,,,0,81,81,79,1
,,,,,,,,,,,,,,,,,6154940e788774dc9a1ec182,19,2022-02-12_17h00.03,lexical_decision_task_DD_L6,2021.2.3,MacIntel,59.99880002,,,,,,,,,,,3.414435,0,,,,,,,,,,,,,,,,,,,,,,,,,0.773875868,0.412131076,0,0,0,,,,,,,WEASEL,HB,z,y,./images/WEASELHB.png,,,,,,,,,,,,,,,,,,,,,m,0,3.414435,,,,,,,,0,82,82,164,1
,,,,,,,,,,,,,,,,,6154940e788774dc9a1ec182,19,2022-02-12_17h00.03,lexical_decision_task_DD_L6,2021.2.3,MacIntel,59.99880002,,,,,,,,,,,1.21471,0,,,,,,,,,,,,,,,,,,,,,,,,,0.167105035,-0.42202691,1,0,0,,,,,,,CHALK,C,m,y,./images/CHALK.png,break_done_button,,,,,,,,,,,,,,,,,,,,z,0,1.21471,,,,,,,,0,83,83,25,1
,,,,,,,,,,,,,,,,,6154940e788774dc9a1ec182,19,2022-02-12_17h00.03,lexical_decision_task_DD_L6,2021.2.3,MacIntel,59.99880002,,,,,,,,,,,10.560645,1,,,,,,,,,,,,,,,,,,,,,,,,,0.291727431,0.5,0,0,0,,,,,,,TORCH,HB,z,y,./images/TORCHHB.png,,,,,,,,,,,,,,,,,,,,,z,1,10.560645,,,,,,,,0,84,84,152,1
,,,,,,,,,,,,,,,,,6154940e788774dc9a1ec182,19,2022-02-12_17h00.03,lexical_decision_task_DD_L6,2021.2.3,MacIntel,59.99880002,,,,,,,,,,,1.02169,0,,,,,,,,,,,,,,,,,,,,,,,,,0.291727431,0.5,0,0,0,,,,,,,WRIST,C,z,y,./images/WRIST.png,,,,,,,,,,,,,,,,,,,,,m,0,1.02169,,,,,,,,0,85,85,109,1
,,,,,,,,,,,,,,,,,6154940e788774dc9a1ec182,19,2022-02-12_17h00.03,lexical_decision_task_DD_L6,2021.2.3,MacIntel,59.99880002,,,,,,,,,,,1.10033,1,,,,,,,,,,,,,,,,,,,,,,,,,0.291727431,0.5,0,0,0,,,,,,,POSTER,HB,m,y,./images/POSTERHB.png,,,,,,,,,,,,,,,,,,,,,m,1,1.10033,,,,,,,,0,86,86,53,1
,,,,,,,,,,,,,,,,,6154940e788774dc9a1ec182,19,2022-02-12_17h00.03,lexical_decision_task_DD_L6,2021.2.3,MacIntel,59.99880002,,,,,,,,,,,2.01247,0,,,,,,,,,,,,,,,,,,,,,,,,,0.291727431,0.5,0,0,0,,,,,,,DANCER,LB,m,y,./images/DANCERLB.png,,,,,,,,,,,,,,,,,,,,,z,0,2.01247,,,,,,,,0,87,87,21,1
,,,,,,,,,,,,,,,,,6154940e788774dc9a1ec182,19,2022-02-12_17h00.03,lexical_decision_task_DD_L6,2021.2.3,MacIntel,59.99880002,,,,,,,,,,,2.98392,1,,,,,,,,,,,,,,,,,,,,,,,,,0.291727431,0.5,0,0,0,,,,,,,SAUNA,LB,m,y,./images/SAUNALB.png,,,,,,,,,,,,,,,,,,,,,m,1,2.98392,,,,,,,,0,88,88,33,1
,,,,,,,,,,,,,,,,,6154940e788774dc9a1ec182,19,2022-02-12_17h00.03,lexical_decision_task_DD_L6,2021.2.3,MacIntel,59.99880002,,,,,,,,,,,0.61603,1,,,,,,,,,,,,,,,,,,,,,,,,,0.291727431,0.5,0,0,0,,,,,,,BEARD,HB,z,y,./images/BEARDHB.png,,,,,,,,,,,,,,,,,,,,,z,1,0.61603,,,,,,,,0,89,89,86,1
,,,,,,,,,,,,,,,,,6154940e788774dc9a1ec182,19,2022-02-12_17h00.03,lexical_decision_task_DD_L6,2021.2.3,MacIntel,59.99880002,,,,,,,,,,,1.16863,0,,,,,,,,,,,,,,,,,,,,,,,,,0.291727431,0.5,0,0,0,,,,,,,BOXER,C,m,y,./images/BOXER.png,,,,,,,,,,,,,,,,,,,,,z,0,1.16863,,,,,,,,0,90,90,4,1
,,,,,,,,,,,,,,,,,6154940e788774dc9a1ec182,19,2022-02-12_17h00.03,lexical_decision_task_DD_L6,2021.2.3,MacIntel,59.99880002,,,,,,,,,,,0.96519,1,,,,,,,,,,,,,,,,,,,,,,,,,0.291727431,0.5,0,0,0,,,,,,,THROAT,LB,z,y,./images/THROATLB.png,,,,,,,,,,,,,,,,,,,,,z,1,0.96519,,,,,,,,0,91,91,120,1
,,,,,,,,,,,,,,,,,6154940e788774dc9a1ec182,19,2022-02-12_17h00.03,lexical_decision_task_DD_L6,2021.2.3,MacIntel,59.99880002,,,,,,,,,,,4.68514,1,,,,,,,,,,,,,,,,,,,,,,,,,0.291727431,0.5,0,0,0,,,,,,,ALLEY,C,m,y,./images/ALLEY.png,,,,,,,,,,,,,,,,,,,,,m,1,4.68514,,,,,,,,0,92,92,55,1
,,,,,,,,,,,,,,,,,6154940e788774dc9a1ec182,19,2022-02-12_17h00.03,lexical_decision_task_DD_L6,2021.2.3,MacIntel,59.99880002,,,,,,,,,,,1.071915,0,,,,,,,,,,,,,,,,,,,,,,,,,0.291727431,0.5,0,0,0,,,,,,,COUCH,HB,z,y,./images/COUCHHB.png,,,,,,,,,,,,,,,,,,,,,m,0,1.071915,,,,,,,,0,93,93,161,1
,,,,,,,,,,,,,,,,,6154940e788774dc9a1ec182,19,2022-02-12_17h00.03,lexical_decision_task_DD_L6,2021.2.3,MacIntel,59.99880002,,,,,,,,,,,1.3879,1,,,,,,,,,,,,,,,,,,,,,,,,,0.291727431,0.5,0,0,0,,,,,,,DONKEY,C,m,y,./images/DONKEY.png,,,,,,,,,,,,,,,,,,,,,m,1,1.3879,,,,,,,,0,94,94,19,1
,,,,,,,,,,,,,,,,,6154940e788774dc9a1ec182,19,2022-02-12_17h00.03,lexical_decision_task_DD_L6,2021.2.3,MacIntel,59.99880002,,,,,,,,,,,1.242105,0,,,,,,,,,,,,,,,,,,,,,,,,,0.291727431,0.5,0,0,0,,,,,,,CURRY,LB,m,y,./images/CURRYLB.png,,,,,,,,,,,,,,,,,,,,,z,0,1.242105,,,,,,,,0,95,95,60,1
,,,,,,,,,,,,,,,,,6154940e788774dc9a1ec182,19,2022-02-12_17h00.03,lexical_decision_task_DD_L6,2021.2.3,MacIntel,59.99880002,,,,,,,,,,,0.86448,1,,,,,,,,,,,,,,,,,,,,,,,,,0.291727431,0.5,0,0,0,,,,,,,PEACH,HB,z,y,./images/PEACHHB.png,,,,,,,,,,,,,,,,,,,,,z,1,0.86448,,,,,,,,0,96,96,119,1
,,,,,,,,,,,,,,,,,6154940e788774dc9a1ec182,19,2022-02-12_17h00.03,lexical_decision_task_DD_L6,2021.2.3,MacIntel,59.99880002,,,,,,,,,,,0.866945,0,,,,,,,,,,,,,,,,,,,,,,,,,0.291727431,0.5,0,0,0,,,,,,,BLOKE,LB,m,y,./images/BLOKELB.png,,,,,,,,,,,,,,,,,,,,,z,0,0.866945,,,,,,,,0,97,97,12,1
,,,,,,,,,,,,,,,,,6154940e788774dc9a1ec182,19,2022-02-12_17h00.03,lexical_decision_task_DD_L6,2021.2.3,MacIntel,59.99880002,,,,,,,,,,,0.733755,0,,,,,,,,,,,,,,,,,,,,,,,,,0.291727431,0.5,0,0,0,,,,,,,WALRUS,HB,z,y,./images/WALRUSHB.png,,,,,,,,,,,,,,,,,,,,,m,0,0.733755,,,,,,,,0,98,98,107,1
,,,,,,,,,,,,,,,,,6154940e788774dc9a1ec182,19,2022-02-12_17h00.03,lexical_decision_task_DD_L6,2021.2.3,MacIntel,59.99880002,,,,,,,,,,,1.91984,1,,,,,,,,,,,,,,,,,,,,,,,,,0.291727431,0.5,0,0,0,,,,,,,DIVER,LB,m,y,./images/DIVERLB.png,,,,,,,,,,,,,,,,,,,,,m,1,1.91984,,,,,,,,0,99,99,9,1
,,,,,,,,,,,,,,,,,6154940e788774dc9a1ec182,19,2022-02-12_17h00.03,lexical_decision_task_DD_L6,2021.2.3,MacIntel,59.99880002,,,,,,,,,,,1.685455,1,,,,,,,,,,,,,,,,,,,,,,,,,0.291727431,0.5,0,0,0,,,,,,,STAIN,LB,m,y,./images/STAINLB.png,,,,,,,,,,,,,,,,,,,,,m,1,1.685455,,,,,,,,0,100,100,6,1
,,,,,,,,,,,,,,,,,6154940e788774dc9a1ec182,19,2022-02-12_17h00.03,lexical_decision_task_DD_L6,2021.2.3,MacIntel,59.99880002,,,,,,,,,,,0.954215,0,,,,,,,,,,,,,,,,,,,,,,,,,0.291727431,0.5,0,0,0,,,,,,,SLOPE,LB,m,y,./images/SLOPELB.png,,,,,,,,,,,,,,,,,,,,,z,0,0.954215,,,,,,,,0,101,101,30,1
,,,,,,,,,,,,,,,,,6154940e788774dc9a1ec182,19,2022-02-12_17h00.03,lexical_decision_task_DD_L6,2021.2.3,MacIntel,59.99880002,,,,,,,,,,,0.923285,1,,,,,,,,,,,,,,,,,,,,,,,,,0.291727431,0.5,0,0,0,,,,,,,MEDAL,HB,m,y,./images/MEDALHB.png,,,,,,,,,,,,,,,,,,,,,m,1,0.923285,,,,,,,,0,102,102,11,1
,,,,,,,,,,,,,,,,,6154940e788774dc9a1ec182,19,2022-02-12_17h00.03,lexical_decision_task_DD_L6,2021.2.3,MacIntel,59.99880002,,,,,,,,,,,1.09328,1,,,,,,,,,,,,,,,,,,,,,,,,,0.291727431,0.5,0,0,0,,,,,,,PARCEL,LB,m,y,./images/PARCELLB.png,,,,,,,,,,,,,,,,,,,,,m,1,1.09328,,,,,,,,0,103,103,18,1
,,,,,,,,,,,,,,,,,6154940e788774dc9a1ec182,19,2022-02-12_17h00.03,lexical_decision_task_DD_L6,2021.2.3,MacIntel,59.99880002,,,,,,,,,,,3.58054,1,,,,,,,,,,,,,,,,,,,,,,,,,0.291727431,0.5,0,0,0,,,,,,,ARTIST,C,m,y,./images/ARTIST.png,,,,,,,,,,,,,,,,,,,,,m,1,3.58054,,,,,,,,0,104,104,61,1
,,,,,,,,,,,,,,,,,6154940e788774dc9a1ec182,19,2022-02-12_17h00.03,lexical_decision_task_DD_L6,2021.2.3,MacIntel,59.99880002,,,,,,,,,,,0.782045,0,,,,,,,,,,,,,,,,,,,,,,,,,0.291727431,0.5,0,0,0,,,,,,,MOTOR,C,z,y,./images/MOTOR.png,,,,,,,,,,,,,,,,,,,,,m,0,0.782045,,,,,,,,0,105,105,97,1
,,,,,,,,,,,,,,,,,6154940e788774dc9a1ec182,19,2022-02-12_17h00.03,lexical_decision_task_DD_L6,2021.2.3,MacIntel,59.99880002,,,,,,,,,,,0.856525,1,,,,,,,,,,,,,,,,,,,,,,,,,0.291727431,0.5,0,0,0,,,,,,,PENCE,C,z,y,./images/PENCE.png,,,,,,,,,,,,,,,,,,,,,z,1,0.856525,,,,,,,,0,106,106,100,1
,,,,,,,,,,,,,,,,,6154940e788774dc9a1ec182,19,2022-02-12_17h00.03,lexical_decision_task_DD_L6,2021.2.3,MacIntel,59.99880002,,,,,,,,,,,0.749605,1,,,,,,,,,,,,,,,,,,,,,,,,,0.291727431,0.5,0,0,0,,,,,,,PASTA,HB,z,y,./images/PASTAHB.png,,,,,,,,,,,,,,,,,,,,,z,1,0.749605,,,,,,,,0,107,107,89,1
,,,,,,,,,,,,,,,,,6154940e788774dc9a1ec182,19,2022-02-12_17h00.03,lexical_decision_task_DD_L6,2021.2.3,MacIntel,59.99880002,,,,,,,,,,,0.797315,1,,,,,,,,,,,,,,,,,,,,,,,,,0.291727431,0.5,0,0,0,,,,,,,PIMPLE,HB,z,y,./images/PIMPLEHB.png,,,,,,,,,,,,,,,,,,,,,z,1,0.797315,,,,,,,,0,108,108,155,1
,,,,,,,,,,,,,,,,,6154940e788774dc9a1ec182,19,2022-02-12_17h00.03,lexical_decision_task_DD_L6,2021.2.3,MacIntel,59.99880002,,,,,,,,,,,0.733355,1,,,,,,,,,,,,,,,,,,,,,,,,,0.291727431,0.5,0,0,0,,,,,,,POODLE,LB,z,y,./images/POODLELB.png,,,,,,,,,,,,,,,,,,,,,z,1,0.733355,,,,,,,,0,109,109,165,1
,,,,,,,,,,,,,,,,,6154940e788774dc9a1ec182,19,2022-02-12_17h00.03,lexical_decision_task_DD_L6,2021.2.3,MacIntel,59.99880002,,,,,,,,,,,0.886205,0,,,,,,,,,,,,,,,,,,,,,,,,,0.291727431,0.5,0,0,0,,,,,,,PACKET,HB,z,y,./images/PACKETHB.png,,,,,,,,,,,,,,,,,,,,,m,0,0.886205,,,,,,,,0,110,110,140,1
,,,,,,,,,,,,,,,,,6154940e788774dc9a1ec182,19,2022-02-12_17h00.03,lexical_decision_task_DD_L6,2021.2.3,MacIntel,59.99880002,,,,,,,,,,,1.704735,0,,,,,,,,,,,,,,,,,,,,,,,,,0.291727431,0.5,0,0,0,,,,,,,GRAPE,C,m,y,./images/GRAPE.png,,,,,,,,,,,,,,,,,,,,,z,0,1.704735,,,,,,,,0,111,111,16,1
,,,,,,,,,,,,,,,,,6154940e788774dc9a1ec182,19,2022-02-12_17h00.03,lexical_decision_task_DD_L6,2021.2.3,MacIntel,59.99880002,,,,,,,,,,,1.266835,0,,,,,,,,,,,,,,,,,,,,,,,,,0.291727431,0.5,0,0,0,,,,,,,ATTIC,LB,z,y,./images/ATTICLB.png,,,,,,,,,,,,,,,,,,,,,m,0,1.266835,,,,,,,,0,112,112,111,1
,,,,,,,,,,,,,,,,,6154940e788774dc9a1ec182,19,2022-02-12_17h00.03,lexical_decision_task_DD_L6,2021.2.3,MacIntel,59.99880002,,,,,,,,,,,0.833565,1,,,,,,,,,,,,,,,,,,,,,,,,,0.291727431,0.5,0,0,0,,,,,,,BANNER,C,z,y,./images/BANNER.png,,,,,,,,,,,,,,,,,,,,,z,1,0.833565,,,,,,,,0,113,113,136,1
,,,,,,,,,,,,,,,,,6154940e788774dc9a1ec182,19,2022-02-12_17h00.03,lexical_decision_task_DD_L6,2021.2.3,MacIntel,59.99880002,,,,,,,,,,,1.31532,1,,,,,,,,,,,,,,,,,,,,,,,,,0.291727431,0.5,0,0,0,,,,,,,MONKEY,LB,m,y,./images/MONKEYLB.png,,,,,,,,,,,,,,,,,,,,,m,1,1.31532,,,,,,,,0,114,114,45,1
,,,,,,,,,,,,,,,,,6154940e788774dc9a1ec182,19,2022-02-12_17h00.03,lexical_decision_task_DD_L6,2021.2.3,MacIntel,59.99880002,,,,,,,,,,,0.792405,1,,,,,,,,,,,,,,,,,,,,,,,,,0.291727431,0.5,0,0,0,,,,,,,CLOWN,C,m,y,./images/CLOWN.png,,,,,,,,,,,,,,,,,,,,,m,1,0.792405,,,,,,,,0,115,115,22,1
,,,,,,,,,,,,,,,,,6154940e788774dc9a1ec182,19,2022-02-12_17h00.03,lexical_decision_task_DD_L6,2021.2.3,MacIntel,59.99880002,,,,,,,,,,,1.115185,1,,,,,,,,,,,,,,,,,,,,,,,,,0.291727431,0.5,0,0,0,,,,,,,MAMMAL,HB,m,y,./images/MAMMALHB.png,,,,,,,,,,,,,,,,,,,,,m,1,1.115185,,,,,,,,0,116,116,62,1
,,,,,,,,,,,,,,,,,6154940e788774dc9a1ec182,19,2022-02-12_17h00.03,lexical_decision_task_DD_L6,2021.2.3,MacIntel,59.99880002,,,,,,,,,,,0.759095,1,,,,,,,,,,,,,,,,,,,,,,,,,0.291727431,0.5,0,0,0,,,,,,,JUNGLE,HB,z,y,./images/JUNGLEHB.png,,,,,,,,,,,,,,,,,,,,,z,1,0.759095,,,,,,,,0,117,117,167,1
,,,,,,,,,,,,,,,,,6154940e788774dc9a1ec182,19,2022-02-12_17h00.03,lexical_decision_task_DD_L6,2021.2.3,MacIntel,59.99880002,,,,,,,,,,,1.12953,1,,,,,,,,,,,,,,,,,,,,,,,,,0.291727431,0.5,0,0,0,,,,,,,QUILL,C,z,y,./images/QUILL.png,,,,,,,,,,,,,,,,,,,,,z,1,1.12953,,,,,,,,0,118,118,115,1
,,,,,,,,,,,,,,,,,6154940e788774dc9a1ec182,19,2022-02-12_17h00.03,lexical_decision_task_DD_L6,2021.2.3,MacIntel,59.99880002,,,,,,,,,,,1.40737,0,,,,,,,,,,,,,,,,,,,,,,,,,0.291727431,0.5,0,0,0,,,,,,,MOOSE,LB,z,y,./images/MOOSELB.png,,,,,,,,,,,,,,,,,,,,,m,0,1.40737,,,,,,,,0,119,119,141,1
,,,,,,,,,,,,,,,,,6154940e788774dc9a1ec182,19,2022-02-12_17h00.03,lexical_decision_task_DD_L6,2021.2.3,MacIntel,59.99880002,,,,,,,,,,,1.116,1,,,,,,,,,,,,,,,,,,,,,,,,,0.291727431,0.5,0,0,0,,,,,,,PURSE,HB,z,y,./images/PURSEHB.png,,,,,,,,,,,,,,,,,,,,,z,1,1.116,,,,,,,,0,120,120,146,1
,,,,,,,,,,,,,,,,,6154940e788774dc9a1ec182,19,2022-02-12_17h00.03,lexical_decision_task_DD_L6,2021.2.3,MacIntel,59.99880002,,,,,,,,,,,0.970885,1,,,,,,,,,,,,,,,,,,,,,,,,,0.291727431,0.5,0,0,0,,,,,,,SHORE,LB,z,y,./images/SHORELB.png,,,,,,,,,,,,,,,,,,,,,z,1,0.970885,,,,,,,,0,121,121,96,1
,,,,,,,,,,,,,,,,,6154940e788774dc9a1ec182,19,2022-02-12_17h00.03,lexical_decision_task_DD_L6,2021.2.3,MacIntel,59.99880002,,,,,,,,,,,1.219475,0,,,,,,,,,,,,,,,,,,,,,,,,,0.291727431,0.5,0,0,0,,,,,,,BISHOP,C,m,y,./images/BISHOP.png,,,,,,,,,,,,,,,,,,,,,z,0,1.219475,,,,,,,,0,122,122,49,1
,,,,,,,,,,,,,,,,,6154940e788774dc9a1ec182,19,2022-02-12_17h00.03,lexical_decision_task_DD_L6,2021.2.3,MacIntel,59.99880002,,,,,,,,,,,1.25958,1,,,,,,,,,,,,,,,,,,,,,,,,,0.291727431,0.5,0,0,0,,,,,,,CANOE,C,m,y,./images/CANOE.png,,,,,,,,,,,,,,,,,,,,,m,1,1.25958,,,,,,,,0,123,123,58,1
,,,,,,,,,,,,,,,,,6154940e788774dc9a1ec182,19,2022-02-12_17h00.03,lexical_decision_task_DD_L6,2021.2.3,MacIntel,59.99880002,,,,,,,,,,,2.983045,1,,,,,,,,,,,,,,,,,,,,,,,,,0.291727431,0.5,0,0,0,,,,,,,LITTER,LB,z,y,./images/LITTERLB.png,,,,,,,,,,,,,,,,,,,,,z,1,2.983045,,,,,,,,0,124,124,162,1
,,,,,,,,,,,,,,,,,6154940e788774dc9a1ec182,19,2022-02-12_17h00.03,lexical_decision_task_DD_L6,2021.2.3,MacIntel,59.99880002,,,,,,,,,,,1.41744,0,,,,,,,,,,,,,,,,,,,,,,,,,0.082235243,-0.401553819,1,0,0,,,,,,,LADDER,HB,z,y,./images/LADDERHB.png,break_done_button,,,,,,,,,,,,,,,,,,,,m,0,1.41744,,,,,,,,0,125,125,122,1
,,,,,,,,,,,,,,,,,6154940e788774dc9a1ec182,19,2022-02-12_17h00.03,lexical_decision_task_DD_L6,2021.2.3,MacIntel,59.99880002,,,,,,,,,,,1.114895,0,,,,,,,,,,,,,,,,,,,,,,,,,0.082235243,-0.401553819,0,0,0,,,,,,,BRIDE,C,m,y,./images/BRIDE.png,,,,,,,,,,,,,,,,,,,,,z,0,1.114895,,,,,,,,0,126,126,64,1
,,,,,,,,,,,,,,,,,6154940e788774dc9a1ec182,19,2022-02-12_17h00.03,lexical_decision_task_DD_L6,2021.2.3,MacIntel,59.99880002,,,,,,,,,,,1.432365,1,,,,,,,,,,,,,,,,,,,,,,,,,0.082235243,-0.401553819,0,0,0,,,,,,,PISTOL,HB,m,y,./images/PISTOLHB.png,,,,,,,,,,,,,,,,,,,,,m,1,1.432365,,,,,,,,0,127,127,29,1
,,,,,,,,,,,,,,,,,6154940e788774dc9a1ec182,19,2022-02-12_17h00.03,lexical_decision_task_DD_L6,2021.2.3,MacIntel,59.99880002,,,,,,,,,,,9.13399,0,,,,,,,,,,,,,,,,,,,,,,,,,0.081653646,-0.398181424,0,0,0,,,,,,,FLASK,LB,m,y,./images/FLASKLB.png,,,,,,,,,,,,,,,,,,,,,z,0,9.13399,,,,,,,,0,128,128,72,1
,,,,,,,,,,,,,,,,,6154940e788774dc9a1ec182,19,2022-02-12_17h00.03,lexical_decision_task_DD_L6,2021.2.3,MacIntel,59.99880002,,,,,,,,,,,1.58349,1,,,,,,,,,,,,,,,,,,,,,,,,,0.081653646,-0.398181424,0,0,0,,,,,,,HAMMER,LB,m,y,./images/HAMMERLB.png,,,,,,,,,,,,,,,,,,,,,m,1,1.58349,,,,,,,,0,129,129,75,1
,,,,,,,,,,,,,,,,,6154940e788774dc9a1ec182,19,2022-02-12_17h00.03,lexical_decision_task_DD_L6,2021.2.3,MacIntel,59.99880002,,,,,,,,,,,0.94935,0,,,,,,,,,,,,,,,,,,,,,,,,,0.081653646,-0.398181424,0,0,0,,,,,,,CANDY,LB,m,y,./images/CANDYLB.png,,,,,,,,,,,,,,,,,,,,,z,0,0.94935,,,,,,,,0,130,130,39,1
,,,,,,,,,,,,,,,,,6154940e788774dc9a1ec182,19,2022-02-12_17h00.03,lexical_decision_task_DD_L6,2021.2.3,MacIntel,59.99880002,,,,,,,,,,,3.847945,1,,,,,,,,,,,,,,,,,,,,,,,,,0.081653646,-0.398181424,0,0,0,,,,,,,SHELF,LB,z,y,./images/SHELFLB.png,,,,,,,,,,,,,,,,,,,,,z,1,3.847945,,,,,,,,0,131,131,123,1
