key_resp.keys,instr_done_touch.x,instr_done_touch.y,instr_done_touch.leftButton,instr_done_touch.midButton,instr_done_touch.rightButton,instr_done_touch.clicked_name,instruction_pages.thisRepN,instruction_pages.thisTrialN,instruction_pages.thisN,instruction_pages.thisIndex,instruction_pages.ran,pageN,phase,instruct_text,has_image,instruct_image,participant,age,date,expName,psychopyVersion,OS,frameRate,key_resp.rt,response.keys,response.corr,response.rt,touch_resp.x,touch_resp.y,touch_resp.leftButton,touch_resp.midButton,touch_resp.rightButton,touch_resp.time,touch_resp.clicked_name,rt,corr,practrials.thisRepN,practrials.thisTrialN,practrials.thisN,practrials.thisIndex,practrials.ran,TrialID,Target,corrAns,end_of_practice_trials_pages.thisRepN,end_of_practice_trials_pages.thisTrialN,end_of_practice_trials_pages.thisN,end_of_practice_trials_pages.thisIndex,end_of_practice_trials_pages.ran,key_resp_2.keys,key_resp_2.corr,key_resp_2.rt,targ_click.x,targ_click.y,targ_click.leftButton,targ_click.midButton,targ_click.rightButton,targ_click.time,targ_click.clicked_name,break_done_touch.x,break_done_touch.y,break_done_touch.leftButton,break_done_touch.midButton,break_done_touch.rightButton,break_done_keyboard.keys,maintrials.thisRepN,maintrials.thisTrialN,maintrials.thisN,maintrials.thisIndex,maintrials.ran,string,blur,study,lex,stim_path,break_done_keyboard.rt,mouse_2.x,mouse_2.y,mouse_2.leftButton,mouse_2.midButton,mouse_2.rightButton,mouse_2.clicked_name,slider.response,slider.rt,trials.thisRepN,trials.thisTrialN,trials.thisN,trials.thisIndex,trials.ran,test_instructions.thisRepN,test_instructions.thisTrialN,test_instructions.thisN,test_instructions.thisIndex,test_instructions.ran,key_resp_3.keys,key_resp_3.corr,key_resp_3.rt,test_click.x,test_click.y,test_click.leftButton,test_click.midButton,test_click.rightButton,test_click.time,test_click.clicked_name,test_phase.thisRepN,test_phase.thisTrialN,test_phase.thisN,test_phase.thisIndex,test_phase.ran
,0.095370385,-0.411111125,1,0,0,instr_done_button,0,0,0,0,1,1,instructions,"INSTRUCTIONS
At the start of each trial, look at the plus sign  (+) in the center of the screen.  This tells you that a trial is about to begin and where to look. Second, the plus sign will disappear and a string of letters will appear. Your task is to determine if the string of letters is a word or not. If the item is a word press the M key (on keyboard)  or touch the word button (phone/tablet).  If the item is not a word,  press the  Z key (on keyboard)  or touch the nonword button (on phone/tablet). 
Press the space bar or touch  continue.",0,,616d163821d972bbc68ed26b,19,2022-02-12_12h44.32.661,lexical_decision_task_DD_L6,2021.2.3,Win32,60.0060006,,,,,,,,,,,,,,,,,,,,,,,,,,,,,,,,,,,,,,,,,,,,,,,,,,,,,,,,,,,,,,,,,,,,,,,,,,,,,,,,,,,,,,
space,0.094444459,-0.412037051,0,0,0,,0,1,1,1,1,2,instructions,"If your device has a keyboard, press the 'Z' key for nonwords and the 'M' key for words.





Press the space bar or touch the button below to continue.",0,keyboard-example.gif,616d163821d972bbc68ed26b,19,2022-02-12_12h44.32.661,lexical_decision_task_DD_L6,2021.2.3,Win32,60.0060006,6.3147,,,,,,,,,,,,,,,,,,,,,,,,,,,,,,,,,,,,,,,,,,,,,,,,,,,,,,,,,,,,,,,,,,,,,,,,,,,,,,,,,,,,,
space,0.094444459,-0.412037051,0,0,0,,0,2,2,2,1,3,instructions,"If you are using a touchscreen only device, use the buttons on the screen. Do not use the mouse.





Press the space bar or touch the button below to continue.",0,touchscreen-example.gif,616d163821d972bbc68ed26b,19,2022-02-12_12h44.32.661,lexical_decision_task_DD_L6,2021.2.3,Win32,60.0060006,3.045,,,,,,,,,,,,,,,,,,,,,,,,,,,,,,,,,,,,,,,,,,,,,,,,,,,,,,,,,,,,,,,,,,,,,,,,,,,,,,,,,,,,,
space,0.094444459,-0.412037051,0,0,0,,0,3,3,3,1,4,instructions,"It is very important that you respond as quickly and accurately as possible, as each letter string will only be on the screen for two seconds. If you do not respond within this time, the message 'Too slow!' will be displayed and the experiment will progress to the next letter string. The first 20 trials will be practice trials and you will receive feedback on your answers. 

Press the space bar or touch the button below to start the practice trials.",0,,616d163821d972bbc68ed26b,19,2022-02-12_12h44.32.661,lexical_decision_task_DD_L6,2021.2.3,Win32,60.0060006,29.5211,,,,,,,,,,,,,,,,,,,,,,,,,,,,,,,,,,,,,,,,,,,,,,,,,,,,,,,,,,,,,,,,,,,,,,,,,,,,,,,,,,,,,
,,,,,,,,,,,,,,,,,616d163821d972bbc68ed26b,19,2022-02-12_12h44.32.661,lexical_decision_task_DD_L6,2021.2.3,Win32,60.0060006,,z,1,2.1254,,,,,,,,2.1254,1,0,0,0,13,1,1001,ROUPET,z,,,,,,,,,,,,,,,,,,,,,,,,,,,,,,,,,,,,,,,,,,,,,,,,,,,,,,,,,,,,,,,,,
,,,,,,,,,,,,,,,,,616d163821d972bbc68ed26b,19,2022-02-12_12h44.32.661,lexical_decision_task_DD_L6,2021.2.3,Win32,60.0060006,,z,1,0.9046,,,,,,,,0.9046,1,0,1,1,10,1,1001,INLADE,z,,,,,,,,,,,,,,,,,,,,,,,,,,,,,,,,,,,,,,,,,,,,,,,,,,,,,,,,,,,,,,,,,
,,,,,,,,,,,,,,,,,616d163821d972bbc68ed26b,19,2022-02-12_12h44.32.661,lexical_decision_task_DD_L6,2021.2.3,Win32,60.0060006,,m,1,0.7267,,,,,,,,0.7267,1,0,2,2,3,1,1001,MATRIX,m,,,,,,,,,,,,,,,,,,,,,,,,,,,,,,,,,,,,,,,,,,,,,,,,,,,,,,,,,,,,,,,,,
,,,,,,,,,,,,,,,,,616d163821d972bbc68ed26b,19,2022-02-12_12h44.32.661,lexical_decision_task_DD_L6,2021.2.3,Win32,60.0060006,,m,1,0.4887,,,,,,,,0.4887,1,0,3,3,5,1,1001,OBTAIN,m,,,,,,,,,,,,,,,,,,,,,,,,,,,,,,,,,,,,,,,,,,,,,,,,,,,,,,,,,,,,,,,,,
,,,,,,,,,,,,,,,,,616d163821d972bbc68ed26b,19,2022-02-12_12h44.32.661,lexical_decision_task_DD_L6,2021.2.3,Win32,60.0060006,,z,1,0.7101,,,,,,,,0.7101,1,0,4,4,9,1,1001,FARINY,z,,,,,,,,,,,,,,,,,,,,,,,,,,,,,,,,,,,,,,,,,,,,,,,,,,,,,,,,,,,,,,,,,
,,,,,,,,,,,,,,,,,616d163821d972bbc68ed26b,19,2022-02-12_12h44.32.661,lexical_decision_task_DD_L6,2021.2.3,Win32,60.0060006,,m,1,0.5846,,,,,,,,0.5846,1,0,5,5,7,1,1001,VOLUME,m,,,,,,,,,,,,,,,,,,,,,,,,,,,,,,,,,,,,,,,,,,,,,,,,,,,,,,,,,,,,,,,,,
,,,,,,,,,,,,,,,,,616d163821d972bbc68ed26b,19,2022-02-12_12h44.32.661,lexical_decision_task_DD_L6,2021.2.3,Win32,60.0060006,,z,1,0.693,,,,,,,,0.693,1,0,6,6,12,1,1001,SPRINY,z,,,,,,,,,,,,,,,,,,,,,,,,,,,,,,,,,,,,,,,,,,,,,,,,,,,,,,,,,,,,,,,,,
,,,,,,,,,,,,,,,,,616d163821d972bbc68ed26b,19,2022-02-12_12h44.32.661,lexical_decision_task_DD_L6,2021.2.3,Win32,60.0060006,,z,1,0.6633,,,,,,,,0.6633,1,0,7,7,8,1,1001,ASLERT,z,,,,,,,,,,,,,,,,,,,,,,,,,,,,,,,,,,,,,,,,,,,,,,,,,,,,,,,,,,,,,,,,,
,,,,,,,,,,,,,,,,,616d163821d972bbc68ed26b,19,2022-02-12_12h44.32.661,lexical_decision_task_DD_L6,2021.2.3,Win32,60.0060006,,m,1,0.5888,,,,,,,,0.5888,1,0,8,8,2,1,1001,ALMOND,m,,,,,,,,,,,,,,,,,,,,,,,,,,,,,,,,,,,,,,,,,,,,,,,,,,,,,,,,,,,,,,,,,
,,,,,,,,,,,,,,,,,616d163821d972bbc68ed26b,19,2022-02-12_12h44.32.661,lexical_decision_task_DD_L6,2021.2.3,Win32,60.0060006,,z,1,0.6174,,,,,,,,0.6174,1,0,9,9,15,1,1001,WHAISE,z,,,,,,,,,,,,,,,,,,,,,,,,,,,,,,,,,,,,,,,,,,,,,,,,,,,,,,,,,,,,,,,,,
,,,,,,,,,,,,,,,,,616d163821d972bbc68ed26b,19,2022-02-12_12h44.32.661,lexical_decision_task_DD_L6,2021.2.3,Win32,60.0060006,,z,1,0.6002,,,,,,,,0.6002,1,0,10,10,14,1,1001,THRALE,z,,,,,,,,,,,,,,,,,,,,,,,,,,,,,,,,,,,,,,,,,,,,,,,,,,,,,,,,,,,,,,,,,
,,,,,,,,,,,,,,,,,616d163821d972bbc68ed26b,19,2022-02-12_12h44.32.661,lexical_decision_task_DD_L6,2021.2.3,Win32,60.0060006,,m,1,0.5625,,,,,,,,0.5625,1,0,11,11,4,1,1001,SQUEAK,m,,,,,,,,,,,,,,,,,,,,,,,,,,,,,,,,,,,,,,,,,,,,,,,,,,,,,,,,,,,,,,,,,
,,,,,,,,,,,,,,,,,616d163821d972bbc68ed26b,19,2022-02-12_12h44.32.661,lexical_decision_task_DD_L6,2021.2.3,Win32,60.0060006,,m,1,0.5321,,,,,,,,0.5321,1,0,12,12,6,1,1001,ZOMBIE,m,,,,,,,,,,,,,,,,,,,,,,,,,,,,,,,,,,,,,,,,,,,,,,,,,,,,,,,,,,,,,,,,,
,,,,,,,,,,,,,,,,,616d163821d972bbc68ed26b,19,2022-02-12_12h44.32.661,lexical_decision_task_DD_L6,2021.2.3,Win32,60.0060006,,z,1,0.6125,,,,,,,,0.6125,1,0,13,13,11,1,1001,RASHET,z,,,,,,,,,,,,,,,,,,,,,,,,,,,,,,,,,,,,,,,,,,,,,,,,,,,,,,,,,,,,,,,,,
,,,,,,,,,,,,,,,,,616d163821d972bbc68ed26b,19,2022-02-12_12h44.32.661,lexical_decision_task_DD_L6,2021.2.3,Win32,60.0060006,,m,1,0.6966,,,,,,,,0.6966,1,0,14,14,0,1,1001,UTOPIA,m,,,,,,,,,,,,,,,,,,,,,,,,,,,,,,,,,,,,,,,,,,,,,,,,,,,,,,,,,,,,,,,,,
,,,,,,,,,,,,,,,,,616d163821d972bbc68ed26b,19,2022-02-12_12h44.32.661,lexical_decision_task_DD_L6,2021.2.3,Win32,60.0060006,,m,1,0.521,,,,,,,,0.521,1,0,15,15,1,1,1001,ADJUST,m,,,,,,,,,,,,,,,,,,,,,,,,,,,,,,,,,,,,,,,,,,,,,,,,,,,,,,,,,,,,,,,,,
space,0.094444459,-0.412037051,0,0,0,,,,,,,1,end_of_practice,"You have completed the practice trials. During the experimental trials, you will not receive feedback. 
Before you begin, please ensure that you are in a comfortable and quiet location and will not be disturbed for about 15 minutes, as we cannot use your data if you do not complete all the trials. 
 When you are ready to start the experimental trials, please press space or touch the button below.",,,616d163821d972bbc68ed26b,19,2022-02-12_12h44.32.661,lexical_decision_task_DD_L6,2021.2.3,Win32,60.0060006,6.66,,,,,,,,,,,,,,,,,,,,,0,0,0,0,1,,,,,,,,,,,,,,,,,,,,,,,,,,,,,,,,,,,,,,,,,,,,,,,,,,,,,,,,,,,,
,,,,,,,,,,,,,,,,,616d163821d972bbc68ed26b,19,2022-02-12_12h44.32.661,lexical_decision_task_DD_L6,2021.2.3,Win32,60.0060006,,,,,,,,,,,,0.6341,1,,,,,,,,,,,,,,m,1,0.6341,,,,,,,,0.094444459,-0.412037051,0,0,0,,0,0,0,21,1,DANCER,LB,m,m,./images/DANCERLB.png,,,,,,,,,,,,,,,,,,,,,,,,,,,,,,,,,,
,,,,,,,,,,,,,,,,,616d163821d972bbc68ed26b,19,2022-02-12_12h44.32.661,lexical_decision_task_DD_L6,2021.2.3,Win32,60.0060006,,,,,,,,,,,,0.5909,1,,,,,,,,,,,,,,m,1,0.5909,,,,,,,,0.094444459,-0.412037051,0,0,0,,0,1,1,6,1,STAIN,LB,m,m,./images/STAINLB.png,,,,,,,,,,,,,,,,,,,,,,,,,,,,,,,,,,
,,,,,,,,,,,,,,,,,616d163821d972bbc68ed26b,19,2022-02-12_12h44.32.661,lexical_decision_task_DD_L6,2021.2.3,Win32,60.0060006,,,,,,,,,,,,0.9616,1,,,,,,,,,,,,,,z,1,0.9616,,,,,,,,0.094444459,-0.412037051,0,0,0,,0,2,2,114,1,RIKES,C,z,z,./images/RIKES.png,,,,,,,,,,,,,,,,,,,,,,,,,,,,,,,,,,
,,,,,,,,,,,,,,,,,616d163821d972bbc68ed26b,19,2022-02-12_12h44.32.661,lexical_decision_task_DD_L6,2021.2.3,Win32,60.0060006,,,,,,,,,,,,1.693,1,,,,,,,,,,,,,,z,1,1.693,,,,,,,,0.094444459,-0.412037051,0,0,0,,0,3,3,154,1,THINT,HB,z,z,./images/THINTHB.png,,,,,,,,,,,,,,,,,,,,,,,,,,,,,,,,,,
,,,,,,,,,,,,,,,,,616d163821d972bbc68ed26b,19,2022-02-12_12h44.32.661,lexical_decision_task_DD_L6,2021.2.3,Win32,60.0060006,,,,,,,,,,,,0.5652,1,,,,,,,,,,,,,,m,1,0.5652,,,,,,,,0.094444459,-0.412037051,0,0,0,,0,4,4,4,1,BOXER,C,m,m,./images/BOXER.png,,,,,,,,,,,,,,,,,,,,,,,,,,,,,,,,,,
,,,,,,,,,,,,,,,,,616d163821d972bbc68ed26b,19,2022-02-12_12h44.32.661,lexical_decision_task_DD_L6,2021.2.3,Win32,60.0060006,,,,,,,,,,,,0.644,1,,,,,,,,,,,,,,m,1,0.644,,,,,,,,0.094444459,-0.412037051,0,0,0,,0,5,5,17,1,PARADE,HB,m,m,./images/PARADEHB.png,,,,,,,,,,,,,,,,,,,,,,,,,,,,,,,,,,
,,,,,,,,,,,,,,,,,616d163821d972bbc68ed26b,19,2022-02-12_12h44.32.661,lexical_decision_task_DD_L6,2021.2.3,Win32,60.0060006,,,,,,,,,,,,1.0091,1,,,,,,,,,,,,,,z,1,1.0091,,,,,,,,0.094444459,-0.412037051,0,0,0,,0,6,6,136,1,WERVE,HB,z,z,./images/WERVEHB.png,,,,,,,,,,,,,,,,,,,,,,,,,,,,,,,,,,
,,,,,,,,,,,,,,,,,616d163821d972bbc68ed26b,19,2022-02-12_12h44.32.661,lexical_decision_task_DD_L6,2021.2.3,Win32,60.0060006,,,,,,,,,,,,0.681,1,,,,,,,,,,,,,,z,1,0.681,,,,,,,,0.094444459,-0.412037051,0,0,0,,0,7,7,131,1,NACES,LB,z,z,./images/NACESLB.png,,,,,,,,,,,,,,,,,,,,,,,,,,,,,,,,,,
,,,,,,,,,,,,,,,,,616d163821d972bbc68ed26b,19,2022-02-12_12h44.32.661,lexical_decision_task_DD_L6,2021.2.3,Win32,60.0060006,,,,,,,,,,,,0.7926,1,,,,,,,,,,,,,,m,1,0.7926,,,,,,,,0.094444459,-0.412037051,0,0,0,,0,8,8,20,1,GRANNY,HB,m,m,./images/GRANNYHB.png,,,,,,,,,,,,,,,,,,,,,,,,,,,,,,,,,,
,,,,,,,,,,,,,,,,,616d163821d972bbc68ed26b,19,2022-02-12_12h44.32.661,lexical_decision_task_DD_L6,2021.2.3,Win32,60.0060006,,,,,,,,,,,,0.667,1,,,,,,,,,,,,,,m,1,0.667,,,,,,,,0.094444459,-0.412037051,0,0,0,,0,9,9,23,1,CLOTH,HB,m,m,./images/CLOTHHB.png,,,,,,,,,,,,,,,,,,,,,,,,,,,,,,,,,,
,,,,,,,,,,,,,,,,,616d163821d972bbc68ed26b,19,2022-02-12_12h44.32.661,lexical_decision_task_DD_L6,2021.2.3,Win32,60.0060006,,,,,,,,,,,,0.5928,1,,,,,,,,,,,,,,m,1,0.5928,,,,,,,,0.094444459,-0.412037051,0,0,0,,0,10,10,81,1,DRILL,LB,m,m,./images/DRILLLB.png,,,,,,,,,,,,,,,,,,,,,,,,,,,,,,,,,,
,,,,,,,,,,,,,,,,,616d163821d972bbc68ed26b,19,2022-02-12_12h44.32.661,lexical_decision_task_DD_L6,2021.2.3,Win32,60.0060006,,,,,,,,,,,,0.7934,0,,,,,,,,,,,,,,z,0,0.7934,,,,,,,,0.094444459,-0.412037051,0,0,0,,0,11,11,53,1,POSTER,HB,m,m,./images/POSTERHB.png,,,,,,,,,,,,,,,,,,,,,,,,,,,,,,,,,,
,,,,,,,,,,,,,,,,,616d163821d972bbc68ed26b,19,2022-02-12_12h44.32.661,lexical_decision_task_DD_L6,2021.2.3,Win32,60.0060006,,,,,,,,,,,,0.6817,1,,,,,,,,,,,,,,z,1,0.6817,,,,,,,,0.094444459,-0.412037051,0,0,0,,0,12,12,158,1,EGECT,LB,z,z,./images/EGECTLB.png,,,,,,,,,,,,,,,,,,,,,,,,,,,,,,,,,,
,,,,,,,,,,,,,,,,,616d163821d972bbc68ed26b,19,2022-02-12_12h44.32.661,lexical_decision_task_DD_L6,2021.2.3,Win32,60.0060006,,,,,,,,,,,,0.7757,1,,,,,,,,,,,,,,m,1,0.7757,,,,,,,,0.094444459,-0.412037051,0,0,0,,0,13,13,38,1,ENGINE,HB,m,m,./images/ENGINEHB.png,,,,,,,,,,,,,,,,,,,,,,,,,,,,,,,,,,
,,,,,,,,,,,,,,,,,616d163821d972bbc68ed26b,19,2022-02-12_12h44.32.661,lexical_decision_task_DD_L6,2021.2.3,Win32,60.0060006,,,,,,,,,,,,0.5696,1,,,,,,,,,,,,,,z,1,0.5696,,,,,,,,0.094444459,-0.412037051,0,0,0,,0,14,14,153,1,CLUPS,C,z,z,./images/CLUPS.png,,,,,,,,,,,,,,,,,,,,,,,,,,,,,,,,,,
,,,,,,,,,,,,,,,,,616d163821d972bbc68ed26b,19,2022-02-12_12h44.32.661,lexical_decision_task_DD_L6,2021.2.3,Win32,60.0060006,,,,,,,,,,,,0.5762,1,,,,,,,,,,,,,,m,1,0.5762,,,,,,,,0.094444459,-0.412037051,0,0,0,,0,15,15,76,1,MIDGET,C,m,m,./images/MIDGET.png,,,,,,,,,,,,,,,,,,,,,,,,,,,,,,,,,,
,,,,,,,,,,,,,,,,,616d163821d972bbc68ed26b,19,2022-02-12_12h44.32.661,lexical_decision_task_DD_L6,2021.2.3,Win32,60.0060006,,,,,,,,,,,,0.8164,1,,,,,,,,,,,,,,z,1,0.8164,,,,,,,,0.094444459,-0.412037051,0,0,0,,0,16,16,94,1,BLANS,HB,z,z,./images/BLANSHB.png,,,,,,,,,,,,,,,,,,,,,,,,,,,,,,,,,,
,,,,,,,,,,,,,,,,,616d163821d972bbc68ed26b,19,2022-02-12_12h44.32.661,lexical_decision_task_DD_L6,2021.2.3,Win32,60.0060006,,,,,,,,,,,,0.5912,1,,,,,,,,,,,,,,z,1,0.5912,,,,,,,,0.094444459,-0.412037051,0,0,0,,0,17,17,137,1,JOOST,LB,z,z,./images/JOOSTLB.png,,,,,,,,,,,,,,,,,,,,,,,,,,,,,,,,,,
,,,,,,,,,,,,,,,,,616d163821d972bbc68ed26b,19,2022-02-12_12h44.32.661,lexical_decision_task_DD_L6,2021.2.3,Win32,60.0060006,,,,,,,,,,,,1.0347,1,,,,,,,,,,,,,,z,1,1.0347,,,,,,,,0.094444459,-0.412037051,0,0,0,,0,18,18,106,1,CLUMS,HB,z,z,./images/CLUMSHB.png,,,,,,,,,,,,,,,,,,,,,,,,,,,,,,,,,,
,,,,,,,,,,,,,,,,,616d163821d972bbc68ed26b,19,2022-02-12_12h44.32.661,lexical_decision_task_DD_L6,2021.2.3,Win32,60.0060006,,,,,,,,,,,,0.6354,0,,,,,,,,,,,,,,z,0,0.6354,,,,,,,,0.094444459,-0.412037051,0,0,0,,0,19,19,33,1,SAUNA,LB,m,m,./images/SAUNALB.png,,,,,,,,,,,,,,,,,,,,,,,,,,,,,,,,,,
,,,,,,,,,,,,,,,,,616d163821d972bbc68ed26b,19,2022-02-12_12h44.32.661,lexical_decision_task_DD_L6,2021.2.3,Win32,60.0060006,,,,,,,,,,,,0.5965,1,,,,,,,,,,,,,,m,1,0.5965,,,,,,,,0.094444459,-0.412037051,0,0,0,,0,20,20,9,1,DIVER,LB,m,m,./images/DIVERLB.png,,,,,,,,,,,,,,,,,,,,,,,,,,,,,,,,,,
,,,,,,,,,,,,,,,,,616d163821d972bbc68ed26b,19,2022-02-12_12h44.32.661,lexical_decision_task_DD_L6,2021.2.3,Win32,60.0060006,,,,,,,,,,,,0.6146,1,,,,,,,,,,,,,,z,1,0.6146,,,,,,,,0.094444459,-0.412037051,0,0,0,,0,21,21,86,1,AIFED,LB,z,z,./images/AIFEDLB.png,,,,,,,,,,,,,,,,,,,,,,,,,,,,,,,,,,
,,,,,,,,,,,,,,,,,616d163821d972bbc68ed26b,19,2022-02-12_12h44.32.661,lexical_decision_task_DD_L6,2021.2.3,Win32,60.0060006,,,,,,,,,,,,0.6584,1,,,,,,,,,,,,,,z,1,0.6584,,,,,,,,0.094444459,-0.412037051,0,0,0,,0,22,22,95,1,HANTY,LB,z,z,./images/HANTYLB.png,,,,,,,,,,,,,,,,,,,,,,,,,,,,,,,,,,
,,,,,,,,,,,,,,,,,616d163821d972bbc68ed26b,19,2022-02-12_12h44.32.661,lexical_decision_task_DD_L6,2021.2.3,Win32,60.0060006,,,,,,,,,,,,0.603,1,,,,,,,,,,,,,,m,1,0.603,,,,,,,,0.094444459,-0.412037051,0,0,0,,0,23,23,69,1,ARROW,LB,m,m,./images/ARROWLB.png,,,,,,,,,,,,,,,,,,,,,,,,,,,,,,,,,,
,,,,,,,,,,,,,,,,,616d163821d972bbc68ed26b,19,2022-02-12_12h44.32.661,lexical_decision_task_DD_L6,2021.2.3,Win32,60.0060006,,,,,,,,,,,,0.4125,1,,,,,,,,,,,,,,z,1,0.4125,,,,,,,,0.094444459,-0.412037051,0,0,0,,0,24,24,123,1,SEDGE,C,z,z,./images/SEDGE.png,,,,,,,,,,,,,,,,,,,,,,,,,,,,,,,,,,
,,,,,,,,,,,,,,,,,616d163821d972bbc68ed26b,19,2022-02-12_12h44.32.661,lexical_decision_task_DD_L6,2021.2.3,Win32,60.0060006,,,,,,,,,,,,0.5271,1,,,,,,,,,,,,,,m,1,0.5271,,,,,,,,0.094444459,-0.412037051,0,0,0,,0,25,25,58,1,CANOE,C,m,m,./images/CANOE.png,,,,,,,,,,,,,,,,,,,,,,,,,,,,,,,,,,
,,,,,,,,,,,,,,,,,616d163821d972bbc68ed26b,19,2022-02-12_12h44.32.661,lexical_decision_task_DD_L6,2021.2.3,Win32,60.0060006,,,,,,,,,,,,0.7591,1,,,,,,,,,,,,,,z,1,0.7591,,,,,,,,0.094444459,-0.412037051,0,0,0,,0,26,26,146,1,MOOST,LB,z,z,./images/MOOSTLB.png,,,,,,,,,,,,,,,,,,,,,,,,,,,,,,,,,,
,,,,,,,,,,,,,,,,,616d163821d972bbc68ed26b,19,2022-02-12_12h44.32.661,lexical_decision_task_DD_L6,2021.2.3,Win32,60.0060006,,,,,,,,,,,,0.5933,1,,,,,,,,,,,,,,z,1,0.5933,,,,,,,,0.094444459,-0.412037051,0,0,0,,0,27,27,156,1,HIXES,C,z,z,./images/HIXES.png,,,,,,,,,,,,,,,,,,,,,,,,,,,,,,,,,,
,,,,,,,,,,,,,,,,,616d163821d972bbc68ed26b,19,2022-02-12_12h44.32.661,lexical_decision_task_DD_L6,2021.2.3,Win32,60.0060006,,,,,,,,,,,,0.5128,1,,,,,,,,,,,,,,z,1,0.5128,,,,,,,,0.094444459,-0.412037051,0,0,0,,0,28,28,143,1,MONGS,LB,z,z,./images/MONGSLB.png,,,,,,,,,,,,,,,,,,,,,,,,,,,,,,,,,,
,,,,,,,,,,,,,,,,,616d163821d972bbc68ed26b,19,2022-02-12_12h44.32.661,lexical_decision_task_DD_L6,2021.2.3,Win32,60.0060006,,,,,,,,,,,,0.735,0,,,,,,,,,,,,,,m,0,0.735,,,,,,,,0.094444459,-0.412037051,0,0,0,,0,29,29,128,1,GRIFT,LB,z,z,./images/GRIFTLB.png,,,,,,,,,,,,,,,,,,,,,,,,,,,,,,,,,,
,,,,,,,,,,,,,,,,,616d163821d972bbc68ed26b,19,2022-02-12_12h44.32.661,lexical_decision_task_DD_L6,2021.2.3,Win32,60.0060006,,,,,,,,,,,,0.5874,1,,,,,,,,,,,,,,m,1,0.5874,,,,,,,,0.094444459,-0.412037051,0,0,0,,0,30,30,79,1,RULER,C,m,m,./images/RULER.png,,,,,,,,,,,,,,,,,,,,,,,,,,,,,,,,,,
,,,,,,,,,,,,,,,,,616d163821d972bbc68ed26b,19,2022-02-12_12h44.32.661,lexical_decision_task_DD_L6,2021.2.3,Win32,60.0060006,,,,,,,,,,,,0.6102,1,,,,,,,,,,,,,,z,1,0.6102,,,,,,,,0.094444459,-0.412037051,0,0,0,,0,31,31,91,1,SHENS,HB,z,z,./images/SHENSHB.png,,,,,,,,,,,,,,,,,,,,,,,,,,,,,,,,,,
,,,,,,,,,,,,,,,,,616d163821d972bbc68ed26b,19,2022-02-12_12h44.32.661,lexical_decision_task_DD_L6,2021.2.3,Win32,60.0060006,,,,,,,,,,,,0.6601,1,,,,,,,,,,,,,,z,1,0.6601,,,,,,,,0.094444459,-0.412037051,0,0,0,,0,32,32,107,1,FASKS,LB,z,z,./images/FASKSLB.png,,,,,,,,,,,,,,,,,,,,,,,,,,,,,,,,,,
,,,,,,,,,,,,,,,,,616d163821d972bbc68ed26b,19,2022-02-12_12h44.32.661,lexical_decision_task_DD_L6,2021.2.3,Win32,60.0060006,,,,,,,,,,,,0.703,1,,,,,,,,,,,,,,z,1,0.703,,,,,,,,0.094444459,-0.412037051,0,0,0,,0,33,33,85,1,CHULK,HB,z,z,./images/CHULKHB.png,,,,,,,,,,,,,,,,,,,,,,,,,,,,,,,,,,
,,,,,,,,,,,,,,,,,616d163821d972bbc68ed26b,19,2022-02-12_12h44.32.661,lexical_decision_task_DD_L6,2021.2.3,Win32,60.0060006,,,,,,,,,,,,0.5529,1,,,,,,,,,,,,,,z,1,0.5529,,,,,,,,0.094444459,-0.412037051,0,0,0,,0,34,34,135,1,JOODY,C,z,z,./images/JOODY.png,,,,,,,,,,,,,,,,,,,,,,,,,,,,,,,,,,
,,,,,,,,,,,,,,,,,616d163821d972bbc68ed26b,19,2022-02-12_12h44.32.661,lexical_decision_task_DD_L6,2021.2.3,Win32,60.0060006,,,,,,,,,,,,0.546,1,,,,,,,,,,,,,,m,1,0.546,,,,,,,,0.094444459,-0.412037051,0,0,0,,0,35,35,22,1,CLOWN,C,m,m,./images/CLOWN.png,,,,,,,,,,,,,,,,,,,,,,,,,,,,,,,,,,
,,,,,,,,,,,,,,,,,616d163821d972bbc68ed26b,19,2022-02-12_12h44.32.661,lexical_decision_task_DD_L6,2021.2.3,Win32,60.0060006,,,,,,,,,,,,0.6586,1,,,,,,,,,,,,,,z,1,0.6586,,,,,,,,0.094444459,-0.412037051,0,0,0,,0,36,36,160,1,VEETS,HB,z,z,./images/VEETSHB.png,,,,,,,,,,,,,,,,,,,,,,,,,,,,,,,,,,
,,,,,,,,,,,,,,,,,616d163821d972bbc68ed26b,19,2022-02-12_12h44.32.661,lexical_decision_task_DD_L6,2021.2.3,Win32,60.0060006,,,,,,,,,,,,0.7824,1,,,,,,,,,,,,,,z,1,0.7824,,,,,,,,0.094444459,-0.412037051,0,0,0,,0,37,37,139,1,BLEAR,HB,z,z,./images/BLEARHB.png,,,,,,,,,,,,,,,,,,,,,,,,,,,,,,,,,,
,,,,,,,,,,,,,,,,,616d163821d972bbc68ed26b,19,2022-02-12_12h44.32.661,lexical_decision_task_DD_L6,2021.2.3,Win32,60.0060006,,,,,,,,,,,,0.5212,1,,,,,,,,,,,,,,m,1,0.5212,,,,,,,,0.094444459,-0.412037051,0,0,0,,0,38,38,19,1,DONKEY,C,m,m,./images/DONKEY.png,,,,,,,,,,,,,,,,,,,,,,,,,,,,,,,,,,
,,,,,,,,,,,,,,,,,616d163821d972bbc68ed26b,19,2022-02-12_12h44.32.661,lexical_decision_task_DD_L6,2021.2.3,Win32,60.0060006,,,,,,,,,,,,0.5633,1,,,,,,,,,,,,,,m,1,0.5633,,,,,,,,0.094444459,-0.412037051,0,0,0,,0,39,39,80,1,PLANET,HB,m,m,./images/PLANETHB.png,,,,,,,,,,,,,,,,,,,,,,,,,,,,,,,,,,
,,,,,,,,,,,,,,,,,616d163821d972bbc68ed26b,19,2022-02-12_12h44.32.661,lexical_decision_task_DD_L6,2021.2.3,Win32,60.0060006,,,,,,,,,,,,0.5367,1,,,,,,,,,,,,,,z,1,0.5367,,,,,,,,0.094444459,-0.412037051,0,0,0,,0,40,40,164,1,SGREW,LB,z,z,./images/SGREWLB.png,,,,,,,,,,,,,,,,,,,,,,,,,,,,,,,,,,
,,,,,,,,,,,,,,,,,616d163821d972bbc68ed26b,19,2022-02-12_12h44.32.661,lexical_decision_task_DD_L6,2021.2.3,Win32,60.0060006,,,,,,,,,,,,0.7546,1,,,,,,,,,,,,,,z,1,0.7546,,,,,,,,0.094444459,-0.412037051,0,0,0,space,0,41,41,112,1,MYING,HB,z,z,./images/MYINGHB.png,1.9828,,,,,,,,,,,,,,,,,,,,,,,,,,,,,,,,,
,,,,,,,,,,,,,,,,,616d163821d972bbc68ed26b,19,2022-02-12_12h44.32.661,lexical_decision_task_DD_L6,2021.2.3,Win32,60.0060006,,,,,,,,,,,,0.6105,1,,,,,,,,,,,,,,z,1,0.6105,,,,,,,,0.094444459,-0.412037051,0,0,0,,0,42,42,119,1,PAFER,LB,z,z,./images/PAFERLB.png,,,,,,,,,,,,,,,,,,,,,,,,,,,,,,,,,,
,,,,,,,,,,,,,,,,,616d163821d972bbc68ed26b,19,2022-02-12_12h44.32.661,lexical_decision_task_DD_L6,2021.2.3,Win32,60.0060006,,,,,,,,,,,,0.5246,1,,,,,,,,,,,,,,z,1,0.5246,,,,,,,,0.094444459,-0.412037051,0,0,0,,0,43,43,165,1,TROWN,C,z,z,./images/TROWN.png,,,,,,,,,,,,,,,,,,,,,,,,,,,,,,,,,,
,,,,,,,,,,,,,,,,,616d163821d972bbc68ed26b,19,2022-02-12_12h44.32.661,lexical_decision_task_DD_L6,2021.2.3,Win32,60.0060006,,,,,,,,,,,,0.5173,1,,,,,,,,,,,,,,z,1,0.5173,,,,,,,,0.094444459,-0.412037051,0,0,0,,0,44,44,105,1,MOKER,C,z,z,./images/MOKER.png,,,,,,,,,,,,,,,,,,,,,,,,,,,,,,,,,,
,,,,,,,,,,,,,,,,,616d163821d972bbc68ed26b,19,2022-02-12_12h44.32.661,lexical_decision_task_DD_L6,2021.2.3,Win32,60.0060006,,,,,,,,,,,,0.5324,1,,,,,,,,,,,,,,z,1,0.5324,,,,,,,,0.094444459,-0.412037051,0,0,0,,0,45,45,140,1,DOVET,LB,z,z,./images/DOVETLB.png,,,,,,,,,,,,,,,,,,,,,,,,,,,,,,,,,,
,,,,,,,,,,,,,,,,,616d163821d972bbc68ed26b,19,2022-02-12_12h44.32.661,lexical_decision_task_DD_L6,2021.2.3,Win32,60.0060006,,,,,,,,,,,,0.8076,1,,,,,,,,,,,,,,m,1,0.8076,,,,,,,,0.094444459,-0.412037051,0,0,0,,0,46,46,8,1,CLIFF,HB,m,m,./images/CLIFFHB.png,,,,,,,,,,,,,,,,,,,,,,,,,,,,,,,,,,
,,,,,,,,,,,,,,,,,616d163821d972bbc68ed26b,19,2022-02-12_12h44.32.661,lexical_decision_task_DD_L6,2021.2.3,Win32,60.0060006,,,,,,,,,,,,0.609,1,,,,,,,,,,,,,,m,1,0.609,,,,,,,,0.094444459,-0.412037051,0,0,0,,0,47,47,44,1,BASKET,HB,m,m,./images/BASKETHB.png,,,,,,,,,,,,,,,,,,,,,,,,,,,,,,,,,,
,,,,,,,,,,,,,,,,,616d163821d972bbc68ed26b,19,2022-02-12_12h44.32.661,lexical_decision_task_DD_L6,2021.2.3,Win32,60.0060006,,,,,,,,,,,,0.4137,1,,,,,,,,,,,,,,z,1,0.4137,,,,,,,,0.094444459,-0.412037051,0,0,0,,0,48,48,84,1,HAXES,C,z,z,./images/HAXES.png,,,,,,,,,,,,,,,,,,,,,,,,,,,,,,,,,,
,,,,,,,,,,,,,,,,,616d163821d972bbc68ed26b,19,2022-02-12_12h44.32.661,lexical_decision_task_DD_L6,2021.2.3,Win32,60.0060006,,,,,,,,,,,,0.7445,1,,,,,,,,,,,,,,z,1,0.7445,,,,,,,,0.094444459,-0.412037051,0,0,0,,0,49,49,109,1,BURGE,HB,z,z,./images/BURGEHB.png,,,,,,,,,,,,,,,,,,,,,,,,,,,,,,,,,,
,,,,,,,,,,,,,,,,,616d163821d972bbc68ed26b,19,2022-02-12_12h44.32.661,lexical_decision_task_DD_L6,2021.2.3,Win32,60.0060006,,,,,,,,,,,,0.484,1,,,,,,,,,,,,,,z,1,0.484,,,,,,,,0.094444459,-0.412037051,0,0,0,,0,50,50,126,1,GUELS,C,z,z,./images/GUELS.png,,,,,,,,,,,,,,,,,,,,,,,,,,,,,,,,,,
,,,,,,,,,,,,,,,,,616d163821d972bbc68ed26b,19,2022-02-12_12h44.32.661,lexical_decision_task_DD_L6,2021.2.3,Win32,60.0060006,,,,,,,,,,,,0.4996,0,,,,,,,,,,,,,,z,0,0.4996,,,,,,,,0.094444459,-0.412037051,0,0,0,,0,51,51,64,1,BRIDE,C,m,m,./images/BRIDE.png,,,,,,,,,,,,,,,,,,,,,,,,,,,,,,,,,,
,,,,,,,,,,,,,,,,,616d163821d972bbc68ed26b,19,2022-02-12_12h44.32.661,lexical_decision_task_DD_L6,2021.2.3,Win32,60.0060006,,,,,,,,,,,,0.6572,1,,,,,,,,,,,,,,m,1,0.6572,,,,,,,,0.094444459,-0.412037051,0,0,0,,0,52,52,18,1,PARCEL,LB,m,m,./images/PARCELLB.png,,,,,,,,,,,,,,,,,,,,,,,,,,,,,,,,,,
,,,,,,,,,,,,,,,,,616d163821d972bbc68ed26b,19,2022-02-12_12h44.32.661,lexical_decision_task_DD_L6,2021.2.3,Win32,60.0060006,,,,,,,,,,,,0.6057,1,,,,,,,,,,,,,,m,1,0.6057,,,,,,,,0.094444459,-0.412037051,0,0,0,,0,53,53,37,1,TIGER,C,m,m,./images/TIGER.png,,,,,,,,,,,,,,,,,,,,,,,,,,,,,,,,,,
,,,,,,,,,,,,,,,,,616d163821d972bbc68ed26b,19,2022-02-12_12h44.32.661,lexical_decision_task_DD_L6,2021.2.3,Win32,60.0060006,,,,,,,,,,,,0.5785,1,,,,,,,,,,,,,,m,1,0.5785,,,,,,,,0.094444459,-0.412037051,0,0,0,,0,54,54,83,1,WHISKY,HB,m,m,./images/WHISKYHB.png,,,,,,,,,,,,,,,,,,,,,,,,,,,,,,,,,,
,,,,,,,,,,,,,,,,,616d163821d972bbc68ed26b,19,2022-02-12_12h44.32.661,lexical_decision_task_DD_L6,2021.2.3,Win32,60.0060006,,,,,,,,,,,,0.5909,1,,,,,,,,,,,,,,z,1,0.5909,,,,,,,,0.094444459,-0.412037051,0,0,0,,0,55,55,138,1,PLICE,C,z,z,./images/PLICE.png,,,,,,,,,,,,,,,,,,,,,,,,,,,,,,,,,,
,,,,,,,,,,,,,,,,,616d163821d972bbc68ed26b,19,2022-02-12_12h44.32.661,lexical_decision_task_DD_L6,2021.2.3,Win32,60.0060006,,,,,,,,,,,,0.5438,1,,,,,,,,,,,,,,z,1,0.5438,,,,,,,,0.094444459,-0.412037051,0,0,0,,0,56,56,159,1,CUDDY,C,z,z,./images/CUDDY.png,,,,,,,,,,,,,,,,,,,,,,,,,,,,,,,,,,
,,,,,,,,,,,,,,,,,616d163821d972bbc68ed26b,19,2022-02-12_12h44.32.661,lexical_decision_task_DD_L6,2021.2.3,Win32,60.0060006,,,,,,,,,,,,0.5077,1,,,,,,,,,,,,,,m,1,0.5077,,,,,,,,0.094444459,-0.412037051,0,0,0,,0,57,57,48,1,SHIELD,LB,m,m,./images/SHIELDLB.png,,,,,,,,,,,,,,,,,,,,,,,,,,,,,,,,,,
,,,,,,,,,,,,,,,,,616d163821d972bbc68ed26b,19,2022-02-12_12h44.32.661,lexical_decision_task_DD_L6,2021.2.3,Win32,60.0060006,,,,,,,,,,,,0.5167,1,,,,,,,,,,,,,,z,1,0.5167,,,,,,,,0.094444459,-0.412037051,0,0,0,,0,58,58,90,1,NEAST,C,z,z,./images/NEAST.png,,,,,,,,,,,,,,,,,,,,,,,,,,,,,,,,,,
,,,,,,,,,,,,,,,,,616d163821d972bbc68ed26b,19,2022-02-12_12h44.32.661,lexical_decision_task_DD_L6,2021.2.3,Win32,60.0060006,,,,,,,,,,,,0.6339,1,,,,,,,,,,,,,,z,1,0.6339,,,,,,,,0.094444459,-0.412037051,0,0,0,,0,59,59,134,1,TROSS,LB,z,z,./images/TROSSLB.png,,,,,,,,,,,,,,,,,,,,,,,,,,,,,,,,,,
,,,,,,,,,,,,,,,,,616d163821d972bbc68ed26b,19,2022-02-12_12h44.32.661,lexical_decision_task_DD_L6,2021.2.3,Win32,60.0060006,,,,,,,,,,,,0.5536,1,,,,,,,,,,,,,,m,1,0.5536,,,,,,,,0.094444459,-0.412037051,0,0,0,,0,60,60,51,1,SAUCE,LB,m,m,./images/SAUCELB.png,,,,,,,,,,,,,,,,,,,,,,,,,,,,,,,,,,
,,,,,,,,,,,,,,,,,616d163821d972bbc68ed26b,19,2022-02-12_12h44.32.661,lexical_decision_task_DD_L6,2021.2.3,Win32,60.0060006,,,,,,,,,,,,0.805,1,,,,,,,,,,,,,,z,1,0.805,,,,,,,,0.094444459,-0.412037051,0,0,0,,0,61,61,88,1,GLUSH,HB,z,z,./images/GLUSHHB.png,,,,,,,,,,,,,,,,,,,,,,,,,,,,,,,,,,
,,,,,,,,,,,,,,,,,616d163821d972bbc68ed26b,19,2022-02-12_12h44.32.661,lexical_decision_task_DD_L6,2021.2.3,Win32,60.0060006,,,,,,,,,,,,0.5494,1,,,,,,,,,,,,,,m,1,0.5494,,,,,,,,0.094444459,-0.412037051,0,0,0,,0,62,62,24,1,FLESH,LB,m,m,./images/FLESHLB.png,,,,,,,,,,,,,,,,,,,,,,,,,,,,,,,,,,
,,,,,,,,,,,,,,,,,616d163821d972bbc68ed26b,19,2022-02-12_12h44.32.661,lexical_decision_task_DD_L6,2021.2.3,Win32,60.0060006,,,,,,,,,,,,0.6706,1,,,,,,,,,,,,,,z,1,0.6706,,,,,,,,0.094444459,-0.412037051,0,0,0,,0,63,63,152,1,FRAIN,LB,z,z,./images/FRAINLB.png,,,,,,,,,,,,,,,,,,,,,,,,,,,,,,,,,,
,,,,,,,,,,,,,,,,,616d163821d972bbc68ed26b,19,2022-02-12_12h44.32.661,lexical_decision_task_DD_L6,2021.2.3,Win32,60.0060006,,,,,,,,,,,,0.5436,1,,,,,,,,,,,,,,m,1,0.5436,,,,,,,,0.094444459,-0.412037051,0,0,0,,0,64,64,63,1,BAKER,LB,m,m,./images/BAKERLB.png,,,,,,,,,,,,,,,,,,,,,,,,,,,,,,,,,,
,,,,,,,,,,,,,,,,,616d163821d972bbc68ed26b,19,2022-02-12_12h44.32.661,lexical_decision_task_DD_L6,2021.2.3,Win32,60.0060006,,,,,,,,,,,,0.6638,1,,,,,,,,,,,,,,z,1,0.6638,,,,,,,,0.094444459,-0.412037051,0,0,0,,0,65,65,115,1,MAWNS,HB,z,z,./images/MAWNSHB.png,,,,,,,,,,,,,,,,,,,,,,,,,,,,,,,,,,
,,,,,,,,,,,,,,,,,616d163821d972bbc68ed26b,19,2022-02-12_12h44.32.661,lexical_decision_task_DD_L6,2021.2.3,Win32,60.0060006,,,,,,,,,,,,0.8847,0,,,,,,,,,,,,,,m,0,0.8847,,,,,,,,0.094444459,-0.412037051,0,0,0,,0,66,66,100,1,DRIBS,HB,z,z,./images/DRIBSHB.png,,,,,,,,,,,,,,,,,,,,,,,,,,,,,,,,,,
,,,,,,,,,,,,,,,,,616d163821d972bbc68ed26b,19,2022-02-12_12h44.32.661,lexical_decision_task_DD_L6,2021.2.3,Win32,60.0060006,,,,,,,,,,,,0.6308,1,,,,,,,,,,,,,,z,1,0.6308,,,,,,,,0.094444459,-0.412037051,0,0,0,,0,67,67,103,1,FLORT,HB,z,z,./images/FLORTHB.png,,,,,,,,,,,,,,,,,,,,,,,,,,,,,,,,,,
,,,,,,,,,,,,,,,,,616d163821d972bbc68ed26b,19,2022-02-12_12h44.32.661,lexical_decision_task_DD_L6,2021.2.3,Win32,60.0060006,,,,,,,,,,,,0.526,1,,,,,,,,,,,,,,z,1,0.526,,,,,,,,0.094444459,-0.412037051,0,0,0,,0,68,68,150,1,NOOLS,C,z,z,./images/NOOLS.png,,,,,,,,,,,,,,,,,,,,,,,,,,,,,,,,,,
,,,,,,,,,,,,,,,,,616d163821d972bbc68ed26b,19,2022-02-12_12h44.32.661,lexical_decision_task_DD_L6,2021.2.3,Win32,60.0060006,,,,,,,,,,,,0.5902,1,,,,,,,,,,,,,,z,1,0.5902,,,,,,,,0.094444459,-0.412037051,0,0,0,,0,69,69,104,1,GITTY,LB,z,z,./images/GITTYLB.png,,,,,,,,,,,,,,,,,,,,,,,,,,,,,,,,,,
,,,,,,,,,,,,,,,,,616d163821d972bbc68ed26b,19,2022-02-12_12h44.32.661,lexical_decision_task_DD_L6,2021.2.3,Win32,60.0060006,,,,,,,,,,,,0.5474,1,,,,,,,,,,,,,,z,1,0.5474,,,,,,,,0.094444459,-0.412037051,0,0,0,,0,70,70,161,1,BLAPS,LB,z,z,./images/BLAPSLB.png,,,,,,,,,,,,,,,,,,,,,,,,,,,,,,,,,,
,,,,,,,,,,,,,,,,,616d163821d972bbc68ed26b,19,2022-02-12_12h44.32.661,lexical_decision_task_DD_L6,2021.2.3,Win32,60.0060006,,,,,,,,,,,,0.5239,1,,,,,,,,,,,,,,m,1,0.5239,,,,,,,,0.094444459,-0.412037051,0,0,0,,0,71,71,75,1,HAMMER,LB,m,m,./images/HAMMERLB.png,,,,,,,,,,,,,,,,,,,,,,,,,,,,,,,,,,
,,,,,,,,,,,,,,,,,616d163821d972bbc68ed26b,19,2022-02-12_12h44.32.661,lexical_decision_task_DD_L6,2021.2.3,Win32,60.0060006,,,,,,,,,,,,0.6447,1,,,,,,,,,,,,,,m,1,0.6447,,,,,,,,0.094444459,-0.412037051,0,0,0,,0,72,72,14,1,FENCE,HB,m,m,./images/FENCEHB.png,,,,,,,,,,,,,,,,,,,,,,,,,,,,,,,,,,
,,,,,,,,,,,,,,,,,616d163821d972bbc68ed26b,19,2022-02-12_12h44.32.661,lexical_decision_task_DD_L6,2021.2.3,Win32,60.0060006,,,,,,,,,,,,0.4551,1,,,,,,,,,,,,,,m,1,0.4551,,,,,,,,0.094444459,-0.412037051,0,0,0,,0,73,73,25,1,CHALK,C,m,m,./images/CHALK.png,,,,,,,,,,,,,,,,,,,,,,,,,,,,,,,,,,
,,,,,,,,,,,,,,,,,616d163821d972bbc68ed26b,19,2022-02-12_12h44.32.661,lexical_decision_task_DD_L6,2021.2.3,Win32,60.0060006,,,,,,,,,,,,0.5367,1,,,,,,,,,,,,,,z,1,0.5367,,,,,,,,0.094444459,-0.412037051,0,0,0,,0,74,74,89,1,DRIEK,LB,z,z,./images/DRIEKLB.png,,,,,,,,,,,,,,,,,,,,,,,,,,,,,,,,,,
,,,,,,,,,,,,,,,,,616d163821d972bbc68ed26b,19,2022-02-12_12h44.32.661,lexical_decision_task_DD_L6,2021.2.3,Win32,60.0060006,,,,,,,,,,,,0.4666,1,,,,,,,,,,,,,,m,1,0.4666,,,,,,,,0.094444459,-0.412037051,0,0,0,,0,75,75,61,1,ARTIST,C,m,m,./images/ARTIST.png,,,,,,,,,,,,,,,,,,,,,,,,,,,,,,,,,,
,,,,,,,,,,,,,,,,,616d163821d972bbc68ed26b,19,2022-02-12_12h44.32.661,lexical_decision_task_DD_L6,2021.2.3,Win32,60.0060006,,,,,,,,,,,,0.7114,1,,,,,,,,,,,,,,z,1,0.7114,,,,,,,,0.094444459,-0.412037051,0,0,0,,0,76,76,149,1,VEASE,LB,z,z,./images/VEASELB.png,,,,,,,,,,,,,,,,,,,,,,,,,,,,,,,,,,
,,,,,,,,,,,,,,,,,616d163821d972bbc68ed26b,19,2022-02-12_12h44.32.661,lexical_decision_task_DD_L6,2021.2.3,Win32,60.0060006,,,,,,,,,,,,1.0656,1,,,,,,,,,,,,,,m,1,1.0656,,,,,,,,0.094444459,-0.412037051,0,0,0,,0,77,77,11,1,MEDAL,HB,m,m,./images/MEDALHB.png,,,,,,,,,,,,,,,,,,,,,,,,,,,,,,,,,,
,,,,,,,,,,,,,,,,,616d163821d972bbc68ed26b,19,2022-02-12_12h44.32.661,lexical_decision_task_DD_L6,2021.2.3,Win32,60.0060006,,,,,,,,,,,,0.7694,1,,,,,,,,,,,,,,m,1,0.7694,,,,,,,,0.094444459,-0.412037051,0,0,0,,0,78,78,29,1,PISTOL,HB,m,m,./images/PISTOLHB.png,,,,,,,,,,,,,,,,,,,,,,,,,,,,,,,,,,
,,,,,,,,,,,,,,,,,616d163821d972bbc68ed26b,19,2022-02-12_12h44.32.661,lexical_decision_task_DD_L6,2021.2.3,Win32,60.0060006,,,,,,,,,,,,0.4571,1,,,,,,,,,,,,,,z,1,0.4571,,,,,,,,0.094444459,-0.412037051,0,0,0,,0,79,79,129,1,PRANS,C,z,z,./images/PRANS.png,,,,,,,,,,,,,,,,,,,,,,,,,,,,,,,,,,
,,,,,,,,,,,,,,,,,616d163821d972bbc68ed26b,19,2022-02-12_12h44.32.661,lexical_decision_task_DD_L6,2021.2.3,Win32,60.0060006,,,,,,,,,,,,0.8385,1,,,,,,,,,,,,,,m,1,0.8385,,,,,,,,0.094444459,-0.412037051,0,0,0,,0,80,80,68,1,VALLEY,HB,m,m,./images/VALLEYHB.png,,,,,,,,,,,,,,,,,,,,,,,,,,,,,,,,,,
,,,,,,,,,,,,,,,,,616d163821d972bbc68ed26b,19,2022-02-12_12h44.32.661,lexical_decision_task_DD_L6,2021.2.3,Win32,60.0060006,,,,,,,,,,,,1.2209,0,,,,,,,,,,,,,,m,0,1.2209,,,,,,,,0.094444459,-0.412037051,0,0,0,,0,81,81,142,1,PLASK,HB,z,z,./images/PLASKHB.png,,,,,,,,,,,,,,,,,,,,,,,,,,,,,,,,,,
,,,,,,,,,,,,,,,,,616d163821d972bbc68ed26b,19,2022-02-12_12h44.32.661,lexical_decision_task_DD_L6,2021.2.3,Win32,60.0060006,,,,,,,,,,,,0.6893,1,,,,,,,,,,,,,,m,1,0.6893,,,,,,,,0.094444459,-0.412037051,0,0,0,,0,82,82,15,1,COLLAR,LB,m,m,./images/COLLARLB.png,,,,,,,,,,,,,,,,,,,,,,,,,,,,,,,,,,
,,,,,,,,,,,,,,,,,616d163821d972bbc68ed26b,19,2022-02-12_12h44.32.661,lexical_decision_task_DD_L6,2021.2.3,Win32,60.0060006,,,,,,,,,,,,0.5801,1,,,,,,,,,,,,,,m,1,0.5801,,,,,,,,0.094444459,-0.412037051,0,0,0,space,0,83,83,34,1,RAZOR,C,m,m,./images/RAZOR.png,0.9461,,,,,,,,,,,,,,,,,,,,,,,,,,,,,,,,,
,,,,,,,,,,,,,,,,,616d163821d972bbc68ed26b,19,2022-02-12_12h44.32.661,lexical_decision_task_DD_L6,2021.2.3,Win32,60.0060006,,,,,,,,,,,,0.5151,1,,,,,,,,,,,,,,z,1,0.5151,,,,,,,,0.094444459,-0.412037051,0,0,0,,0,84,84,144,1,NAIRY,C,z,z,./images/NAIRY.png,,,,,,,,,,,,,,,,,,,,,,,,,,,,,,,,,,
,,,,,,,,,,,,,,,,,616d163821d972bbc68ed26b,19,2022-02-12_12h44.32.661,lexical_decision_task_DD_L6,2021.2.3,Win32,60.0060006,,,,,,,,,,,,0.5666,1,,,,,,,,,,,,,,z,1,0.5666,,,,,,,,0.094444459,-0.412037051,0,0,0,,0,85,85,120,1,RINED,C,z,z,./images/RINED.png,,,,,,,,,,,,,,,,,,,,,,,,,,,,,,,,,,
,,,,,,,,,,,,,,,,,616d163821d972bbc68ed26b,19,2022-02-12_12h44.32.661,lexical_decision_task_DD_L6,2021.2.3,Win32,60.0060006,,,,,,,,,,,,0.5409,1,,,,,,,,,,,,,,m,1,0.5409,,,,,,,,0.094444459,-0.412037051,0,0,0,,0,86,86,45,1,MONKEY,LB,m,m,./images/MONKEYLB.png,,,,,,,,,,,,,,,,,,,,,,,,,,,,,,,,,,
,,,,,,,,,,,,,,,,,616d163821d972bbc68ed26b,19,2022-02-12_12h44.32.661,lexical_decision_task_DD_L6,2021.2.3,Win32,60.0060006,,,,,,,,,,,,0.5639,1,,,,,,,,,,,,,,m,1,0.5639,,,,,,,,0.094444459,-0.412037051,0,0,0,,0,87,87,2,1,STOVE,HB,m,m,./images/STOVEHB.png,,,,,,,,,,,,,,,,,,,,,,,,,,,,,,,,,,
,,,,,,,,,,,,,,,,,616d163821d972bbc68ed26b,19,2022-02-12_12h44.32.661,lexical_decision_task_DD_L6,2021.2.3,Win32,60.0060006,,,,,,,,,,,,0.5133,1,,,,,,,,,,,,,,m,1,0.5133,,,,,,,,0.094444459,-0.412037051,0,0,0,,0,88,88,52,1,DESERT,C,m,m,./images/DESERT.png,,,,,,,,,,,,,,,,,,,,,,,,,,,,,,,,,,
,,,,,,,,,,,,,,,,,616d163821d972bbc68ed26b,19,2022-02-12_12h44.32.661,lexical_decision_task_DD_L6,2021.2.3,Win32,60.0060006,,,,,,,,,,,,0.6206,0,,,,,,,,,,,,,,z,0,0.6206,,,,,,,,0.094444459,-0.412037051,0,0,0,,0,89,89,60,1,CURRY,LB,m,m,./images/CURRYLB.png,,,,,,,,,,,,,,,,,,,,,,,,,,,,,,,,,,
,,,,,,,,,,,,,,,,,616d163821d972bbc68ed26b,19,2022-02-12_12h44.32.661,lexical_decision_task_DD_L6,2021.2.3,Win32,60.0060006,,,,,,,,,,,,0.6672,1,,,,,,,,,,,,,,z,1,0.6672,,,,,,,,0.094444459,-0.412037051,0,0,0,,0,90,90,162,1,LEICH,C,z,z,./images/LEICH.png,,,,,,,,,,,,,,,,,,,,,,,,,,,,,,,,,,
,,,,,,,,,,,,,,,,,616d163821d972bbc68ed26b,19,2022-02-12_12h44.32.661,lexical_decision_task_DD_L6,2021.2.3,Win32,60.0060006,,,,,,,,,,,,0.5479,1,,,,,,,,,,,,,,m,1,0.5479,,,,,,,,0.094444459,-0.412037051,0,0,0,,0,91,91,77,1,WHEEL,HB,m,m,./images/WHEELHB.png,,,,,,,,,,,,,,,,,,,,,,,,,,,,,,,,,,
,,,,,,,,,,,,,,,,,616d163821d972bbc68ed26b,19,2022-02-12_12h44.32.661,lexical_decision_task_DD_L6,2021.2.3,Win32,60.0060006,,,,,,,,,,,,0.4163,1,,,,,,,,,,,,,,z,1,0.4163,,,,,,,,0.094444459,-0.412037051,0,0,0,,0,92,92,108,1,GRUET,C,z,z,./images/GRUET.png,,,,,,,,,,,,,,,,,,,,,,,,,,,,,,,,,,
,,,,,,,,,,,,,,,,,616d163821d972bbc68ed26b,19,2022-02-12_12h44.32.661,lexical_decision_task_DD_L6,2021.2.3,Win32,60.0060006,,,,,,,,,,,,0.5493,1,,,,,,,,,,,,,,z,1,0.5493,,,,,,,,0.094444459,-0.412037051,0,0,0,,0,93,93,155,1,CANGY,LB,z,z,./images/CANGYLB.png,,,,,,,,,,,,,,,,,,,,,,,,,,,,,,,,,,
,,,,,,,,,,,,,,,,,616d163821d972bbc68ed26b,19,2022-02-12_12h44.32.661,lexical_decision_task_DD_L6,2021.2.3,Win32,60.0060006,,,,,,,,,,,,0.4658,1,,,,,,,,,,,,,,m,1,0.4658,,,,,,,,0.094444459,-0.412037051,0,0,0,,0,94,94,16,1,GRAPE,C,m,m,./images/GRAPE.png,,,,,,,,,,,,,,,,,,,,,,,,,,,,,,,,,,
,,,,,,,,,,,,,,,,,616d163821d972bbc68ed26b,19,2022-02-12_12h44.32.661,lexical_decision_task_DD_L6,2021.2.3,Win32,60.0060006,,,,,,,,,,,,0.5413,1,,,,,,,,,,,,,,m,1,0.5413,,,,,,,,0.094444459,-0.412037051,0,0,0,,0,95,95,28,1,CASINO,C,m,m,./images/CASINO.png,,,,,,,,,,,,,,,,,,,,,,,,,,,,,,,,,,
,,,,,,,,,,,,,,,,,616d163821d972bbc68ed26b,19,2022-02-12_12h44.32.661,lexical_decision_task_DD_L6,2021.2.3,Win32,60.0060006,,,,,,,,,,,,0.4661,1,,,,,,,,,,,,,,m,1,0.4661,,,,,,,,0.094444459,-0.412037051,0,0,0,,0,96,96,13,1,BUNNY,C,m,m,./images/BUNNY.png,,,,,,,,,,,,,,,,,,,,,,,,,,,,,,,,,,
,,,,,,,,,,,,,,,,,616d163821d972bbc68ed26b,19,2022-02-12_12h44.32.661,lexical_decision_task_DD_L6,2021.2.3,Win32,60.0060006,,,,,,,,,,,,0.4948,1,,,,,,,,,,,,,,m,1,0.4948,,,,,,,,0.094444459,-0.412037051,0,0,0,,0,97,97,70,1,BANANA,C,m,m,./images/BANANA.png,,,,,,,,,,,,,,,,,,,,,,,,,,,,,,,,,,
,,,,,,,,,,,,,,,,,616d163821d972bbc68ed26b,19,2022-02-12_12h44.32.661,lexical_decision_task_DD_L6,2021.2.3,Win32,60.0060006,,,,,,,,,,,,0.7356,1,,,,,,,,,,,,,,z,1,0.7356,,,,,,,,0.094444459,-0.412037051,0,0,0,,0,98,98,124,1,TUNCH,HB,z,z,./images/TUNCHHB.png,,,,,,,,,,,,,,,,,,,,,,,,,,,,,,,,,,
,,,,,,,,,,,,,,,,,616d163821d972bbc68ed26b,19,2022-02-12_12h44.32.661,lexical_decision_task_DD_L6,2021.2.3,Win32,60.0060006,,,,,,,,,,,,0.547,1,,,,,,,,,,,,,,m,1,0.547,,,,,,,,0.094444459,-0.412037051,0,0,0,,0,99,99,54,1,CHERRY,LB,m,m,./images/CHERRYLB.png,,,,,,,,,,,,,,,,,,,,,,,,,,,,,,,,,,
,,,,,,,,,,,,,,,,,616d163821d972bbc68ed26b,19,2022-02-12_12h44.32.661,lexical_decision_task_DD_L6,2021.2.3,Win32,60.0060006,,,,,,,,,,,,0.5628,1,,,,,,,,,,,,,,z,1,0.5628,,,,,,,,0.094444459,-0.412037051,0,0,0,,0,100,100,148,1,JOMS,HB,z,z,./images/JOMSHB.png,,,,,,,,,,,,,,,,,,,,,,,,,,,,,,,,,,
,,,,,,,,,,,,,,,,,616d163821d972bbc68ed26b,19,2022-02-12_12h44.32.661,lexical_decision_task_DD_L6,2021.2.3,Win32,60.0060006,,,,,,,,,,,,0.5159,1,,,,,,,,,,,,,,m,1,0.5159,,,,,,,,0.094444459,-0.412037051,0,0,0,,0,101,101,3,1,CRATER,LB,m,m,./images/CRATERLB.png,,,,,,,,,,,,,,,,,,,,,,,,,,,,,,,,,,
,,,,,,,,,,,,,,,,,616d163821d972bbc68ed26b,19,2022-02-12_12h44.32.661,lexical_decision_task_DD_L6,2021.2.3,Win32,60.0060006,,,,,,,,,,,,0.4472,0,,,,,,,,,,,,,,z,0,0.4472,,,,,,,,0.094444459,-0.412037051,0,0,0,,0,102,102,12,1,BLOKE,LB,m,m,./images/BLOKELB.png,,,,,,,,,,,,,,,,,,,,,,,,,,,,,,,,,,
,,,,,,,,,,,,,,,,,616d163821d972bbc68ed26b,19,2022-02-12_12h44.32.661,lexical_decision_task_DD_L6,2021.2.3,Win32,60.0060006,,,,,,,,,,,,0.8121,1,,,,,,,,,,,,,,m,1,0.8121,,,,,,,,0.094444459,-0.412037051,0,0,0,,0,103,103,35,1,LLAMA,HB,m,m,./images/LLAMAHB.png,,,,,,,,,,,,,,,,,,,,,,,,,,,,,,,,,,
,,,,,,,,,,,,,,,,,616d163821d972bbc68ed26b,19,2022-02-12_12h44.32.661,lexical_decision_task_DD_L6,2021.2.3,Win32,60.0060006,,,,,,,,,,,,0.4396,1,,,,,,,,,,,,,,m,1,0.4396,,,,,,,,0.094444459,-0.412037051,0,0,0,,0,104,104,39,1,CANDY,LB,m,m,./images/CANDYLB.png,,,,,,,,,,,,,,,,,,,,,,,,,,,,,,,,,,
,,,,,,,,,,,,,,,,,616d163821d972bbc68ed26b,19,2022-02-12_12h44.32.661,lexical_decision_task_DD_L6,2021.2.3,Win32,60.0060006,,,,,,,,,,,,0.5133,1,,,,,,,,,,,,,,z,1,0.5133,,,,,,,,0.094444459,-0.412037051,0,0,0,,0,105,105,93,1,SMONE,C,z,z,./images/SMONE.png,,,,,,,,,,,,,,,,,,,,,,,,,,,,,,,,,,
,,,,,,,,,,,,,,,,,616d163821d972bbc68ed26b,19,2022-02-12_12h44.32.661,lexical_decision_task_DD_L6,2021.2.3,Win32,60.0060006,,,,,,,,,,,,0.5968,1,,,,,,,,,,,,,,m,1,0.5968,,,,,,,,0.094444459,-0.412037051,0,0,0,,0,106,106,30,1,SLOPE,LB,m,m,./images/SLOPELB.png,,,,,,,,,,,,,,,,,,,,,,,,,,,,,,,,,,
,,,,,,,,,,,,,,,,,616d163821d972bbc68ed26b,19,2022-02-12_12h44.32.661,lexical_decision_task_DD_L6,2021.2.3,Win32,60.0060006,,,,,,,,,,,,0.5458,1,,,,,,,,,,,,,,z,1,0.5458,,,,,,,,0.094444459,-0.412037051,0,0,0,,0,107,107,92,1,PAIMS,LB,z,z,./images/PAIMSLB.png,,,,,,,,,,,,,,,,,,,,,,,,,,,,,,,,,,
,,,,,,,,,,,,,,,,,616d163821d972bbc68ed26b,19,2022-02-12_12h44.32.661,lexical_decision_task_DD_L6,2021.2.3,Win32,60.0060006,,,,,,,,,,,,0.592,1,,,,,,,,,,,,,,z,1,0.592,,,,,,,,0.094444459,-0.412037051,0,0,0,,0,108,108,163,1,GAMBA,HB,z,z,./images/GAMBAHB.png,,,,,,,,,,,,,,,,,,,,,,,,,,,,,,,,,,
,,,,,,,,,,,,,,,,,616d163821d972bbc68ed26b,19,2022-02-12_12h44.32.661,lexical_decision_task_DD_L6,2021.2.3,Win32,60.0060006,,,,,,,,,,,,0.5387,1,,,,,,,,,,,,,,m,1,0.5387,,,,,,,,0.094444459,-0.412037051,0,0,0,,0,109,109,49,1,BISHOP,C,m,m,./images/BISHOP.png,,,,,,,,,,,,,,,,,,,,,,,,,,,,,,,,,,
,,,,,,,,,,,,,,,,,616d163821d972bbc68ed26b,19,2022-02-12_12h44.32.661,lexical_decision_task_DD_L6,2021.2.3,Win32,60.0060006,,,,,,,,,,,,0.4367,1,,,,,,,,,,,,,,z,1,0.4367,,,,,,,,0.094444459,-0.412037051,0,0,0,,0,110,110,87,1,TRING,C,z,z,./images/TRING.png,,,,,,,,,,,,,,,,,,,,,,,,,,,,,,,,,,
,,,,,,,,,,,,,,,,,616d163821d972bbc68ed26b,19,2022-02-12_12h44.32.661,lexical_decision_task_DD_L6,2021.2.3,Win32,60.0060006,,,,,,,,,,,,1.1483,1,,,,,,,,,,,,,,z,1,1.1483,,,,,,,,0.094444459,-0.412037051,0,0,0,,0,111,111,145,1,LAMEL,HB,z,z,./images/LAMELHB.png,,,,,,,,,,,,,,,,,,,,,,,,,,,,,,,,,,
,,,,,,,,,,,,,,,,,616d163821d972bbc68ed26b,19,2022-02-12_12h44.32.661,lexical_decision_task_DD_L6,2021.2.3,Win32,60.0060006,,,,,,,,,,,,0.4776,1,,,,,,,,,,,,,,m,1,0.4776,,,,,,,,0.094444459,-0.412037051,0,0,0,,0,112,112,78,1,BROOM,LB,m,m,./images/BROOMLB.png,,,,,,,,,,,,,,,,,,,,,,,,,,,,,,,,,,
,,,,,,,,,,,,,,,,,616d163821d972bbc68ed26b,19,2022-02-12_12h44.32.661,lexical_decision_task_DD_L6,2021.2.3,Win32,60.0060006,,,,,,,,,,,,0.5891,1,,,,,,,,,,,,,,m,1,0.5891,,,,,,,,0.094444459,-0.412037051,0,0,0,,0,113,113,50,1,PILOT,HB,m,m,./images/PILOTHB.png,,,,,,,,,,,,,,,,,,,,,,,,,,,,,,,,,,
,,,,,,,,,,,,,,,,,616d163821d972bbc68ed26b,19,2022-02-12_12h44.32.661,lexical_decision_task_DD_L6,2021.2.3,Win32,60.0060006,,,,,,,,,,,,0.5484,1,,,,,,,,,,,,,,z,1,0.5484,,,,,,,,0.094444459,-0.412037051,0,0,0,,0,114,114,116,1,BALGY,LB,z,z,./images/BALGYLB.png,,,,,,,,,,,,,,,,,,,,,,,,,,,,,,,,,,
,,,,,,,,,,,,,,,,,616d163821d972bbc68ed26b,19,2022-02-12_12h44.32.661,lexical_decision_task_DD_L6,2021.2.3,Win32,60.0060006,,,,,,,,,,,,0.4502,1,,,,,,,,,,,,,,m,1,0.4502,,,,,,,,0.094444459,-0.412037051,0,0,0,,0,115,115,31,1,STEAK,C,m,m,./images/STEAK.png,,,,,,,,,,,,,,,,,,,,,,,,,,,,,,,,,,
,,,,,,,,,,,,,,,,,616d163821d972bbc68ed26b,19,2022-02-12_12h44.32.661,lexical_decision_task_DD_L6,2021.2.3,Win32,60.0060006,,,,,,,,,,,,0.4213,1,,,,,,,,,,,,,,m,1,0.4213,,,,,,,,0.094444459,-0.412037051,0,0,0,,0,116,116,73,1,GLOVE,C,m,m,./images/GLOVE.png,,,,,,,,,,,,,,,,,,,,,,,,,,,,,,,,,,
,,,,,,,,,,,,,,,,,616d163821d972bbc68ed26b,19,2022-02-12_12h44.32.661,lexical_decision_task_DD_L6,2021.2.3,Win32,60.0060006,,,,,,,,,,,,0.647,1,,,,,,,,,,,,,,z,1,0.647,,,,,,,,0.094444459,-0.412037051,0,0,0,,0,117,117,141,1,PLEET,C,z,z,./images/PLEET.png,,,,,,,,,,,,,,,,,,,,,,,,,,,,,,,,,,
,,,,,,,,,,,,,,,,,616d163821d972bbc68ed26b,19,2022-02-12_12h44.32.661,lexical_decision_task_DD_L6,2021.2.3,Win32,60.0060006,,,,,,,,,,,,0.4093,1,,,,,,,,,,,,,,z,1,0.4093,,,,,,,,0.094444459,-0.412037051,0,0,0,,0,118,118,132,1,SCIFF,C,z,z,./images/SCIFF.png,,,,,,,,,,,,,,,,,,,,,,,,,,,,,,,,,,
,,,,,,,,,,,,,,,,,616d163821d972bbc68ed26b,19,2022-02-12_12h44.32.661,lexical_decision_task_DD_L6,2021.2.3,Win32,60.0060006,,,,,,,,,,,,0.6062,1,,,,,,,,,,,,,,m,1,0.6062,,,,,,,,0.094444459,-0.412037051,0,0,0,,0,119,119,47,1,LAGOON,HB,m,m,./images/LAGOONHB.png,,,,,,,,,,,,,,,,,,,,,,,,,,,,,,,,,,
,,,,,,,,,,,,,,,,,616d163821d972bbc68ed26b,19,2022-02-12_12h44.32.661,lexical_decision_task_DD_L6,2021.2.3,Win32,60.0060006,,,,,,,,,,,,0.5756,1,,,,,,,,,,,,,,z,1,0.5756,,,,,,,,0.094444459,-0.412037051,0,0,0,,0,120,120,127,1,NINDY,HB,z,z,./images/NINDYHB.png,,,,,,,,,,,,,,,,,,,,,,,,,,,,,,,,,,
,,,,,,,,,,,,,,,,,616d163821d972bbc68ed26b,19,2022-02-12_12h44.32.661,lexical_decision_task_DD_L6,2021.2.3,Win32,60.0060006,,,,,,,,,,,,0.4838,1,,,,,,,,,,,,,,m,1,0.4838,,,,,,,,0.094444459,-0.412037051,0,0,0,,0,121,121,72,1,FLASK,LB,m,m,./images/FLASKLB.png,,,,,,,,,,,,,,,,,,,,,,,,,,,,,,,,,,
,,,,,,,,,,,,,,,,,616d163821d972bbc68ed26b,19,2022-02-12_12h44.32.661,lexical_decision_task_DD_L6,2021.2.3,Win32,60.0060006,,,,,,,,,,,,0.4068,0,,,,,,,,,,,,,,m,0,0.4068,,,,,,,,0.094444459,-0.412037051,0,0,0,,0,122,122,133,1,POWDY,HB,z,z,./images/POWDYHB.png,,,,,,,,,,,,,,,,,,,,,,,,,,,,,,,,,,
,,,,,,,,,,,,,,,,,616d163821d972bbc68ed26b,19,2022-02-12_12h44.32.661,lexical_decision_task_DD_L6,2021.2.3,Win32,60.0060006,,,,,,,,,,,,0.7394,0,,,,,,,,,,,,,,z,0,0.7394,,,,,,,,0.094444459,-0.412037051,0,0,0,,0,123,123,71,1,BUBBLE,HB,m,m,./images/BUBBLEHB.png,,,,,,,,,,,,,,,,,,,,,,,,,,,,,,,,,,
,,,,,,,,,,,,,,,,,616d163821d972bbc68ed26b,19,2022-02-12_12h44.32.661,lexical_decision_task_DD_L6,2021.2.3,Win32,60.0060006,,,,,,,,,,,,1.2651,1,,,,,,,,,,,,,,z,1,1.2651,,,,,,,,0.094444459,-0.412037051,0,0,0,,0,124,124,97,1,CHIDS,HB,z,z,./images/CHIDSHB.png,,,,,,,,,,,,,,,,,,,,,,,,,,,,,,,,,,
,,,,,,,,,,,,,,,,,616d163821d972bbc68ed26b,19,2022-02-12_12h44.32.661,lexical_decision_task_DD_L6,2021.2.3,Win32,60.0060006,,,,,,,,,,,,0.5649,1,,,,,,,,,,,,,,m,1,0.5649,,,,,,,,0.094444459,-0.412037051,0,0,0,space,0,125,125,27,1,BUTTER,LB,m,m,./images/BUTTERLB.png,0.7668,,,,,,,,,,,,,,,,,,,,,,,,,,,,,,,,,
,,,,,,,,,,,,,,,,,616d163821d972bbc68ed26b,19,2022-02-12_12h44.32.661,lexical_decision_task_DD_L6,2021.2.3,Win32,60.0060006,,,,,,,,,,,,0.5739,1,,,,,,,,,,,,,,z,1,0.5739,,,,,,,,0.094444459,-0.412037051,0,0,0,,0,126,126,147,1,ZOLES,C,z,z,./images/ZOLES.png,,,,,,,,,,,,,,,,,,,,,,,,,,,,,,,,,,
,,,,,,,,,,,,,,,,,616d163821d972bbc68ed26b,19,2022-02-12_12h44.32.661,lexical_decision_task_DD_L6,2021.2.3,Win32,60.0060006,,,,,,,,,,,,0.9606,1,,,,,,,,,,,,,,z,1,0.9606,,,,,,,,0.094444459,-0.412037051,0,0,0,,0,127,127,151,1,TINKY,HB,z,z,./images/TINKYHB.png,,,,,,,,,,,,,,,,,,,,,,,,,,,,,,,,,,
,,,,,,,,,,,,,,,,,616d163821d972bbc68ed26b,19,2022-02-12_12h44.32.661,lexical_decision_task_DD_L6,2021.2.3,Win32,60.0060006,,,,,,,,,,,,0.4825,0,,,,,,,,,,,,,,m,0,0.4825,,,,,,,,0.094444459,-0.412037051,0,0,0,,0,128,128,125,1,MOOKY,LB,z,z,./images/MOOKYLB.png,,,,,,,,,,,,,,,,,,,,,,,,,,,,,,,,,,
,,,,,,,,,,,,,,,,,616d163821d972bbc68ed26b,19,2022-02-12_12h44.32.661,lexical_decision_task_DD_L6,2021.2.3,Win32,60.0060006,,,,,,,,,,,,0.5952,1,,,,,,,,,,,,,,z,1,0.5952,,,,,,,,0.094444459,-0.412037051,0,0,0,,0,129,129,102,1,DULLE,C,z,z,./images/DULLE.png,,,,,,,,,,,,,,,,,,,,,,,,,,,,,,,,,,
,,,,,,,,,,,,,,,,,616d163821d972bbc68ed26b,19,2022-02-12_12h44.32.661,lexical_decision_task_DD_L6,2021.2.3,Win32,60.0060006,,,,,,,,,,,,0.6865,1,,,,,,,,,,,,,,z,1,0.6865,,,,,,,,0.094444459,-0.412037051,0,0,0,,0,130,130,118,1,BAVEL,HB,z,z,./images/BAVELHB.png,,,,,,,,,,,,,,,,,,,,,,,,,,,,,,,,,,
,,,,,,,,,,,,,,,,,616d163821d972bbc68ed26b,19,2022-02-12_12h44.32.661,lexical_decision_task_DD_L6,2021.2.3,Win32,60.0060006,,,,,,,,,,,,0.519,1,,,,,,,,,,,,,,z,1,0.519,,,,,,,,0.094444459,-0.412037051,0,0,0,,0,131,131,99,1,BACKY,C,z,z,./images/BACKY.png,,,,,,,,,,,,,,,,,,,,,,,,,,,,,,,,,,
,,,,,,,,,,,,,,,,,616d163821d972bbc68ed26b,19,2022-02-12_12h44.32.661,lexical_decision_task_DD_L6,2021.2.3,Win32,60.0060006,,,,,,,,,,,,0.4504,1,,,,,,,,,,,,,,z,1,0.4504,,,,,,,,0.094444459,-0.412037051,0,0,0,,0,132,132,96,1,KEAMS,C,z,z,./images/KEAMS.png,,,,,,,,,,,,,,,,,,,,,,,,,,,,,,,,,,
,,,,,,,,,,,,,,,,,616d163821d972bbc68ed26b,19,2022-02-12_12h44.32.661,lexical_decision_task_DD_L6,2021.2.3,Win32,60.0060006,,,,,,,,,,,,0.8823,1,,,,,,,,,,,,,,z,1,0.8823,,,,,,,,0.094444459,-0.412037051,0,0,0,,0,133,133,121,1,CEERS,HB,z,z,./images/CEERSHB.png,,,,,,,,,,,,,,,,,,,,,,,,,,,,,,,,,,
,,,,,,,,,,,,,,,,,616d163821d972bbc68ed26b,19,2022-02-12_12h44.32.661,lexical_decision_task_DD_L6,2021.2.3,Win32,60.0060006,,,,,,,,,,,,0.4245,1,,,,,,,,,,,,,,m,1,0.4245,,,,,,,,0.094444459,-0.412037051,0,0,0,,0,134,134,46,1,MUMMY,C,m,m,./images/MUMMY.png,,,,,,,,,,,,,,,,,,,,,,,,,,,,,,,,,,
,,,,,,,,,,,,,,,,,616d163821d972bbc68ed26b,19,2022-02-12_12h44.32.661,lexical_decision_task_DD_L6,2021.2.3,Win32,60.0060006,,,,,,,,,,,,0.7577,1,,,,,,,,,,,,,,z,1,0.7577,,,,,,,,0.094444459,-0.412037051,0,0,0,,0,135,135,130,1,CRILL,HB,z,z,./images/CRILLHB.png,,,,,,,,,,,,,,,,,,,,,,,,,,,,,,,,,,
,,,,,,,,,,,,,,,,,616d163821d972bbc68ed26b,19,2022-02-12_12h44.32.661,lexical_decision_task_DD_L6,2021.2.3,Win32,60.0060006,,,,,,,,,,,,0.6607,1,,,,,,,,,,,,,,m,1,0.6607,,,,,,,,0.094444459,-0.412037051,0,0,0,,0,136,136,26,1,CLOUD,HB,m,m,./images/CLOUDHB.png,,,,,,,,,,,,,,,,,,,,,,,,,,,,,,,,,,
,,,,,,,,,,,,,,,,,616d163821d972bbc68ed26b,19,2022-02-12_12h44.32.661,lexical_decision_task_DD_L6,2021.2.3,Win32,60.0060006,,,,,,,,,,,,0.4634,0,,,,,,,,,,,,,,z,0,0.4634,,,,,,,,0.094444459,-0.412037051,0,0,0,,0,137,137,1,1,TOWEL,C,m,m,./images/TOWEL.png,,,,,,,,,,,,,,,,,,,,,,,,,,,,,,,,,,
,,,,,,,,,,,,,,,,,616d163821d972bbc68ed26b,19,2022-02-12_12h44.32.661,lexical_decision_task_DD_L6,2021.2.3,Win32,60.0060006,,,,,,,,,,,,0.5981,1,,,,,,,,,,,,,,m,1,0.5981,,,,,,,,0.094444459,-0.412037051,0,0,0,,0,138,138,5,1,BAMBOO,HB,m,m,./images/BAMBOOHB.png,,,,,,,,,,,,,,,,,,,,,,,,,,,,,,,,,,
,,,,,,,,,,,,,,,,,616d163821d972bbc68ed26b,19,2022-02-12_12h44.32.661,lexical_decision_task_DD_L6,2021.2.3,Win32,60.0060006,,,,,,,,,,,,0.6759,1,,,,,,,,,,,,,,m,1,0.6759,,,,,,,,0.094444459,-0.412037051,0,0,0,,0,139,139,32,1,HOCKEY,HB,m,m,./images/HOCKEYHB.png,,,,,,,,,,,,,,,,,,,,,,,,,,,,,,,,,,
,,,,,,,,,,,,,,,,,616d163821d972bbc68ed26b,19,2022-02-12_12h44.32.661,lexical_decision_task_DD_L6,2021.2.3,Win32,60.0060006,,,,,,,,,,,,0.5048,1,,,,,,,,,,,,,,z,1,0.5048,,,,,,,,0.094444459,-0.412037051,0,0,0,,0,140,140,167,1,ZONET,LB,z,z,./images/ZONETLB.png,,,,,,,,,,,,,,,,,,,,,,,,,,,,,,,,,,
,,,,,,,,,,,,,,,,,616d163821d972bbc68ed26b,19,2022-02-12_12h44.32.661,lexical_decision_task_DD_L6,2021.2.3,Win32,60.0060006,,,,,,,,,,,,0.6214,1,,,,,,,,,,,,,,z,1,0.6214,,,,,,,,0.094444459,-0.412037051,0,0,0,,0,141,141,157,1,INLER,HB,z,z,./images/INLERHB.png,,,,,,,,,,,,,,,,,,,,,,,,,,,,,,,,,,
,,,,,,,,,,,,,,,,,616d163821d972bbc68ed26b,19,2022-02-12_12h44.32.661,lexical_decision_task_DD_L6,2021.2.3,Win32,60.0060006,,,,,,,,,,,,0.5428,1,,,,,,,,,,,,,,z,1,0.5428,,,,,,,,0.094444459,-0.412037051,0,0,0,,0,142,142,101,1,GLEET,LB,z,z,./images/GLEETLB.png,,,,,,,,,,,,,,,,,,,,,,,,,,,,,,,,,,
,,,,,,,,,,,,,,,,,616d163821d972bbc68ed26b,19,2022-02-12_12h44.32.661,lexical_decision_task_DD_L6,2021.2.3,Win32,60.0060006,,,,,,,,,,,,0.5759,0,,,,,,,,,,,,,,m,0,0.5759,,,,,,,,0.094444459,-0.412037051,0,0,0,,0,143,143,166,1,SHORY,HB,z,z,./images/SHORYHB.png,,,,,,,,,,,,,,,,,,,,,,,,,,,,,,,,,,
,,,,,,,,,,,,,,,,,616d163821d972bbc68ed26b,19,2022-02-12_12h44.32.661,lexical_decision_task_DD_L6,2021.2.3,Win32,60.0060006,,,,,,,,,,,,0.5393,1,,,,,,,,,,,,,,m,1,0.5393,,,,,,,,0.094444459,-0.412037051,0,0,0,,0,144,144,62,1,MAMMAL,HB,m,m,./images/MAMMALHB.png,,,,,,,,,,,,,,,,,,,,,,,,,,,,,,,,,,
,,,,,,,,,,,,,,,,,616d163821d972bbc68ed26b,19,2022-02-12_12h44.32.661,lexical_decision_task_DD_L6,2021.2.3,Win32,60.0060006,,,,,,,,,,,,0.5812,1,,,,,,,,,,,,,,m,1,0.5812,,,,,,,,0.094444459,-0.412037051,0,0,0,,0,145,145,66,1,STATUE,LB,m,m,./images/STATUELB.png,,,,,,,,,,,,,,,,,,,,,,,,,,,,,,,,,,
,,,,,,,,,,,,,,,,,616d163821d972bbc68ed26b,19,2022-02-12_12h44.32.661,lexical_decision_task_DD_L6,2021.2.3,Win32,60.0060006,,,,,,,,,,,,0.4616,0,,,,,,,,,,,,,,z,0,0.4616,,,,,,,,0.094444459,-0.412037051,0,0,0,,0,146,146,82,1,PEBBLE,C,m,m,./images/PEBBLE.png,,,,,,,,,,,,,,,,,,,,,,,,,,,,,,,,,,
,,,,,,,,,,,,,,,,,616d163821d972bbc68ed26b,19,2022-02-12_12h44.32.661,lexical_decision_task_DD_L6,2021.2.3,Win32,60.0060006,,,,,,,,,,,,0.976,0,,,,,,,,,,,,,,z,0,0.976,,,,,,,,0.094444459,-0.412037051,0,0,0,,0,147,147,41,1,STREAM,HB,m,m,./images/STREAMHB.png,,,,,,,,,,,,,,,,,,,,,,,,,,,,,,,,,,
,,,,,,,,,,,,,,,,,616d163821d972bbc68ed26b,19,2022-02-12_12h44.32.661,lexical_decision_task_DD_L6,2021.2.3,Win32,60.0060006,,,,,,,,,,,,0.6738,1,,,,,,,,,,,,,,m,1,0.6738,,,,,,,,0.094444459,-0.412037051,0,0,0,,0,148,148,7,1,WAGON,C,m,m,./images/WAGON.png,,,,,,,,,,,,,,,,,,,,,,,,,,,,,,,,,,
,,,,,,,,,,,,,,,,,616d163821d972bbc68ed26b,19,2022-02-12_12h44.32.661,lexical_decision_task_DD_L6,2021.2.3,Win32,60.0060006,,,,,,,,,,,,0.6775,1,,,,,,,,,,,,,,m,1,0.6775,,,,,,,,0.094444459,-0.412037051,0,0,0,,0,149,149,74,1,JUMPER,HB,m,m,./images/JUMPERHB.png,,,,,,,,,,,,,,,,,,,,,,,,,,,,,,,,,,
,,,,,,,,,,,,,,,,,616d163821d972bbc68ed26b,19,2022-02-12_12h44.32.661,lexical_decision_task_DD_L6,2021.2.3,Win32,60.0060006,,,,,,,,,,,,0.577,1,,,,,,,,,,,,,,z,1,0.577,,,,,,,,0.094444459,-0.412037051,0,0,0,,0,150,150,122,1,BLOOT,LB,z,z,./images/BLOOTLB.png,,,,,,,,,,,,,,,,,,,,,,,,,,,,,,,,,,
,,,,,,,,,,,,,,,,,616d163821d972bbc68ed26b,19,2022-02-12_12h44.32.661,lexical_decision_task_DD_L6,2021.2.3,Win32,60.0060006,,,,,,,,,,,,0.5008,1,,,,,,,,,,,,,,z,1,0.5008,,,,,,,,0.094444459,-0.412037051,0,0,0,,0,151,151,113,1,LINEW,LB,z,z,./images/LINEWLB.png,,,,,,,,,,,,,,,,,,,,,,,,,,,,,,,,,,
,,,,,,,,,,,,,,,,,616d163821d972bbc68ed26b,19,2022-02-12_12h44.32.661,lexical_decision_task_DD_L6,2021.2.3,Win32,60.0060006,,,,,,,,,,,,0.5824,1,,,,,,,,,,,,,,m,1,0.5824,,,,,,,,0.094444459,-0.412037051,0,0,0,,0,152,152,59,1,BRUSH,HB,m,m,./images/BRUSHHB.png,,,,,,,,,,,,,,,,,,,,,,,,,,,,,,,,,,
,,,,,,,,,,,,,,,,,616d163821d972bbc68ed26b,19,2022-02-12_12h44.32.661,lexical_decision_task_DD_L6,2021.2.3,Win32,60.0060006,,,,,,,,,,,,0.4408,1,,,,,,,,,,,,,,m,1,0.4408,,,,,,,,0.094444459,-0.412037051,0,0,0,,0,153,153,10,1,GARDEN,C,m,m,./images/GARDEN.png,,,,,,,,,,,,,,,,,,,,,,,,,,,,,,,,,,
,,,,,,,,,,,,,,,,,616d163821d972bbc68ed26b,19,2022-02-12_12h44.32.661,lexical_decision_task_DD_L6,2021.2.3,Win32,60.0060006,,,,,,,,,,,,0.5284,1,,,,,,,,,,,,,,m,1,0.5284,,,,,,,,0.094444459,-0.412037051,0,0,0,,0,154,154,43,1,STOOL,C,m,m,./images/STOOL.png,,,,,,,,,,,,,,,,,,,,,,,,,,,,,,,,,,
,,,,,,,,,,,,,,,,,616d163821d972bbc68ed26b,19,2022-02-12_12h44.32.661,lexical_decision_task_DD_L6,2021.2.3,Win32,60.0060006,,,,,,,,,,,,0.6175,1,,,,,,,,,,,,,,m,1,0.6175,,,,,,,,0.094444459,-0.412037051,0,0,0,,0,155,155,36,1,BOILER,LB,m,m,./images/BOILERLB.png,,,,,,,,,,,,,,,,,,,,,,,,,,,,,,,,,,
,,,,,,,,,,,,,,,,,616d163821d972bbc68ed26b,19,2022-02-12_12h44.32.661,lexical_decision_task_DD_L6,2021.2.3,Win32,60.0060006,,,,,,,,,,,,0.5129,1,,,,,,,,,,,,,,z,1,0.5129,,,,,,,,0.094444459,-0.412037051,0,0,0,,0,156,156,111,1,HOSSE,C,z,z,./images/HOSSE.png,,,,,,,,,,,,,,,,,,,,,,,,,,,,,,,,,,
,,,,,,,,,,,,,,,,,616d163821d972bbc68ed26b,19,2022-02-12_12h44.32.661,lexical_decision_task_DD_L6,2021.2.3,Win32,60.0060006,,,,,,,,,,,,0.5168,1,,,,,,,,,,,,,,m,1,0.5168,,,,,,,,0.094444459,-0.412037051,0,0,0,,0,157,157,42,1,CHAIN,LB,m,m,./images/CHAINLB.png,,,,,,,,,,,,,,,,,,,,,,,,,,,,,,,,,,
,,,,,,,,,,,,,,,,,616d163821d972bbc68ed26b,19,2022-02-12_12h44.32.661,lexical_decision_task_DD_L6,2021.2.3,Win32,60.0060006,,,,,,,,,,,,0.5384,1,,,,,,,,,,,,,,z,1,0.5384,,,,,,,,0.094444459,-0.412037051,0,0,0,,0,158,158,110,1,CRUNK,LB,z,z,./images/CRUNKLB.png,,,,,,,,,,,,,,,,,,,,,,,,,,,,,,,,,,
,,,,,,,,,,,,,,,,,616d163821d972bbc68ed26b,19,2022-02-12_12h44.32.661,lexical_decision_task_DD_L6,2021.2.3,Win32,60.0060006,,,,,,,,,,,,0.5346,0,,,,,,,,,,,,,,z,0,0.5346,,,,,,,,0.094444459,-0.412037051,0,0,0,,0,159,159,65,1,SPINE,HB,m,m,./images/SPINEHB.png,,,,,,,,,,,,,,,,,,,,,,,,,,,,,,,,,,
,,,,,,,,,,,,,,,,,616d163821d972bbc68ed26b,19,2022-02-12_12h44.32.661,lexical_decision_task_DD_L6,2021.2.3,Win32,60.0060006,,,,,,,,,,,,0.5972,1,,,,,,,,,,,,,,z,1,0.5972,,,,,,,,0.094444459,-0.412037051,0,0,0,,0,160,160,117,1,STEEG,C,z,z,./images/STEEG.png,,,,,,,,,,,,,,,,,,,,,,,,,,,,,,,,,,
,,,,,,,,,,,,,,,,,616d163821d972bbc68ed26b,19,2022-02-12_12h44.32.661,lexical_decision_task_DD_L6,2021.2.3,Win32,60.0060006,,,,,,,,,,,,0.486,1,,,,,,,,,,,,,,m,1,0.486,,,,,,,,0.094444459,-0.412037051,0,0,0,,0,161,161,57,1,FERRY,LB,m,m,./images/FERRYLB.png,,,,,,,,,,,,,,,,,,,,,,,,,,,,,,,,,,
,,,,,,,,,,,,,,,,,616d163821d972bbc68ed26b,19,2022-02-12_12h44.32.661,lexical_decision_task_DD_L6,2021.2.3,Win32,60.0060006,,,,,,,,,,,,0.6844,1,,,,,,,,,,,,,,m,1,0.6844,,,,,,,,0.094444459,-0.412037051,0,0,0,,0,162,162,56,1,HEATER,HB,m,m,./images/HEATERHB.png,,,,,,,,,,,,,,,,,,,,,,,,,,,,,,,,,,
,,,,,,,,,,,,,,,,,616d163821d972bbc68ed26b,19,2022-02-12_12h44.32.661,lexical_decision_task_DD_L6,2021.2.3,Win32,60.0060006,,,,,,,,,,,,0.4254,1,,,,,,,,,,,,,,m,1,0.4254,,,,,,,,0.094444459,-0.412037051,0,0,0,,0,163,163,67,1,POKER,C,m,m,./images/POKER.png,,,,,,,,,,,,,,,,,,,,,,,,,,,,,,,,,,
,,,,,,,,,,,,,,,,,616d163821d972bbc68ed26b,19,2022-02-12_12h44.32.661,lexical_decision_task_DD_L6,2021.2.3,Win32,60.0060006,,,,,,,,,,,,0.6037,1,,,,,,,,,,,,,,m,1,0.6037,,,,,,,,0.094444459,-0.412037051,0,0,0,,0,164,164,40,1,SNAKE,C,m,m,./images/SNAKE.png,,,,,,,,,,,,,,,,,,,,,,,,,,,,,,,,,,
,,,,,,,,,,,,,,,,,616d163821d972bbc68ed26b,19,2022-02-12_12h44.32.661,lexical_decision_task_DD_L6,2021.2.3,Win32,60.0060006,,,,,,,,,,,,0.5566,1,,,,,,,,,,,,,,z,1,0.5566,,,,,,,,0.094444459,-0.412037051,0,0,0,,0,165,165,98,1,BAMPS,LB,z,z,./images/BAMPSLB.png,,,,,,,,,,,,,,,,,,,,,,,,,,,,,,,,,,
,,,,,,,,,,,,,,,,,616d163821d972bbc68ed26b,19,2022-02-12_12h44.32.661,lexical_decision_task_DD_L6,2021.2.3,Win32,60.0060006,,,,,,,,,,,,0.5139,1,,,,,,,,,,,,,,m,1,0.5139,,,,,,,,0.094444459,-0.412037051,0,0,0,,0,166,166,55,1,ALLEY,C,m,m,./images/ALLEY.png,,,,,,,,,,,,,,,,,,,,,,,,,,,,,,,,,,
,,,,,,,,,,,,,,,,,616d163821d972bbc68ed26b,19,2022-02-12_12h44.32.661,lexical_decision_task_DD_L6,2021.2.3,Win32,60.0060006,,,,,,,,,,,,0.7047,1,,,,,,,,,,,,,,m,1,0.7047,,,,,,,,0.094444459,-0.412037051,0,0,0,,0,167,167,0,1,WALNUT,LB,m,m,./images/WALNUTLB.png,,,,,,,,,,,,,,,,,,,,,,,,,,,,,,,,,,
,,,,,,,,,,,,,,,,,616d163821d972bbc68ed26b,19,2022-02-12_12h44.32.661,lexical_decision_task_DD_L6,2021.2.3,Win32,60.0060006,,,,,,,,,,,,,,,,,,,,,,,,,,,,,,,,,,,,,,,,,,,,,,,,,How likely will it be that you will recognize the words presented slighly blurred on a scale of 0 (not likely) to 100 (most likely)?,,,,,0.009259273,-0.402777791,1,0,0,jol_adv,5,8.8675,0,0,0,1,1,,,,,,,,,,,,,,,,,,,,
,,,,,,,,,,,,,,,,,616d163821d972bbc68ed26b,19,2022-02-12_12h44.32.661,lexical_decision_task_DD_L6,2021.2.3,Win32,60.0060006,,,,,,,,,,,,,,,,,,,,,,,,,,,,,,,,,,,,,,,,,,,,,,,,,How likely will it be that you will recognize the words presented clearly on a scale of 0 (not likely) to 100 (most likely)?,,,,,,,,,,,6,5.0922,0,1,1,0,1,,,,,,,,,,,,,,,,,,,,
,,,,,,,,,,,,,,,,,616d163821d972bbc68ed26b,19,2022-02-12_12h44.32.661,lexical_decision_task_DD_L6,2021.2.3,Win32,60.0060006,,,,,,,,,,,,,,,,,,,,,,,,,,,,,,,,,,,,,,,,,,,,,,,,,How likely will it be that you will recognize the words presented very blurred on a scale of 0 (not likely) to 100 (most likely)?,,,,,,,,,,,5,4.0523,0,2,2,2,1,,,,,,,,,,,,,,,,,,,,
space,0.212037053,-0.214814882,0,0,0,,,,,,,1,test,"In the next phase you will be presented with the words from the the first phase. Your job is to decide whether you remember seeing the word or not. If you remember seeing the word press ""old"" or type ""m"". If you do not remember seeing the word press ""new"" or type ""z"". Please press the space bar or click on continue to begin. ",,,616d163821d972bbc68ed26b,19,2022-02-12_12h44.32.661,lexical_decision_task_DD_L6,2021.2.3,Win32,60.0060006,9.1423,,,,,,,,,,,,,,,,,,,,,,,,,,,,,,,,,,,,,,,,,,,,,,,,,,,,,,,,,,,,,,,,,,0,0,0,0,1,,,,,,,,,,,,,,,
space,0.184259275,-0.233333401,0,0,0,,,,,,,1,test,"In the next phase you will be presented with the words from the the first phase. Your job is to decide whether you remember seeing the word or not. If you remember seeing the word press ""old"" or type ""m"". If you do not remember seeing the word press ""new"" or type ""z"". Please press the space bar or click on continue to begin. ",,,616d163821d972bbc68ed26b,19,2022-02-12_12h44.32.661,lexical_decision_task_DD_L6,2021.2.3,Win32,60.0060006,1.2111,,,,,,,,,,,,,,,,,,,,,,,,,,,,,,,,,,,,,,,,,,,,,,,,,,,,,,,,,,,,,,,,,,1,0,1,0,1,,,,,,,,,,,,,,,
space,0.184259275,-0.233333401,0,0,0,,,,,,,1,test,"In the next phase you will be presented with the words from the the first phase. Your job is to decide whether you remember seeing the word or not. If you remember seeing the word press ""old"" or type ""m"". If you do not remember seeing the word press ""new"" or type ""z"". Please press the space bar or click on continue to begin. ",,,616d163821d972bbc68ed26b,19,2022-02-12_12h44.32.661,lexical_decision_task_DD_L6,2021.2.3,Win32,60.0060006,0.6448,,,,,,,,,,,,,,,,,,,,,,,,,,,,,,,,,,,,,,,,,,,,,,,,,,,,,,,,,,,,,,,,,,2,0,2,0,1,,,,,,,,,,,,,,,
,0.175000016,-0.408333347,1,0,0,instr_done_button,,,,,,1,test,"In the next phase you will be presented with the words from the the first phase. Your job is to decide whether you remember seeing the word or not. If you remember seeing the word press ""old"" or type ""m"". If you do not remember seeing the word press ""new"" or type ""z"". Please press the space bar or click on continue to begin. ",,,616d163821d972bbc68ed26b,19,2022-02-12_12h44.32.661,lexical_decision_task_DD_L6,2021.2.3,Win32,60.0060006,,,,,,,,,,,,,,,,,,,,,,,,,,,,,,,,,,,,,,,,,,,,,,,,,,,,,,,,,,,,,,,,,,,3,0,3,0,1,,,,,,,,,,,,,,,
,0.129629645,-0.399074087,1,0,0,instr_done_button,,,,,,1,test,"In the next phase you will be presented with the words from the the first phase. Your job is to decide whether you remember seeing the word or not. If you remember seeing the word press ""old"" or type ""m"". If you do not remember seeing the word press ""new"" or type ""z"". Please press the space bar or click on continue to begin. ",,,616d163821d972bbc68ed26b,19,2022-02-12_12h44.32.661,lexical_decision_task_DD_L6,2021.2.3,Win32,60.0060006,,,,,,,,,,,,,,,,,,,,,,,,,,,,,,,,,,,,,,,,,,,,,,,,,,,,,,,,,,,,,,,,,,,4,0,4,0,1,,,,,,,,,,,,,,,
,,,,,,,,,,,,,,,,,616d163821d972bbc68ed26b,19,2022-02-12_12h44.32.661,lexical_decision_task_DD_L6,2021.2.3,Win32,60.0060006,,,,,,,,,,,,1.8831,1,,,,,,,,,,,,,,,,,,,,,,,,0.408333353,-0.403703717,0,0,0,,,,,,,GARDEN,C,m,y,./images/GARDEN.png,,,,,,,,,,,,,,,,,,,,m,1,1.8831,,,,,,,,0,0,0,10,1
,,,,,,,,,,,,,,,,,616d163821d972bbc68ed26b,19,2022-02-12_12h44.32.661,lexical_decision_task_DD_L6,2021.2.3,Win32,60.0060006,,,,,,,,,,,,1.1153,0,,,,,,,,,,,,,,,,,,,,,,,,0.408333353,-0.403703717,0,0,0,,,,,,,STAIN,LB,m,y,./images/STAINLB.png,,,,,,,,,,,,,,,,,,,,z,0,1.1153,,,,,,,,0,1,1,6,1
,,,,,,,,,,,,,,,,,616d163821d972bbc68ed26b,19,2022-02-12_12h44.32.661,lexical_decision_task_DD_L6,2021.2.3,Win32,60.0060006,,,,,,,,,,,,1.3712,1,,,,,,,,,,,,,,,,,,,,,,,,0.408333353,-0.403703717,0,0,0,,,,,,,SCREW,LB,z,y,./images/SCREWLB.png,,,,,,,,,,,,,,,,,,,,z,1,1.3712,,,,,,,,0,2,2,108,1
,,,,,,,,,,,,,,,,,616d163821d972bbc68ed26b,19,2022-02-12_12h44.32.661,lexical_decision_task_DD_L6,2021.2.3,Win32,60.0060006,,,,,,,,,,,,0.7485,1,,,,,,,,,,,,,,,,,,,,,,,,0.408333353,-0.403703717,0,0,0,,,,,,,CANOE,C,m,y,./images/CANOE.png,,,,,,,,,,,,,,,,,,,,m,1,0.7485,,,,,,,,0,3,3,58,1
,,,,,,,,,,,,,,,,,616d163821d972bbc68ed26b,19,2022-02-12_12h44.32.661,lexical_decision_task_DD_L6,2021.2.3,Win32,60.0060006,,,,,,,,,,,,0.5472,1,,,,,,,,,,,,,,,,,,,,,,,,0.408333353,-0.403703717,0,0,0,,,,,,,WALNUT,LB,m,y,./images/WALNUTLB.png,,,,,,,,,,,,,,,,,,,,m,1,0.5472,,,,,,,,0,4,4,0,1
,,,,,,,,,,,,,,,,,616d163821d972bbc68ed26b,19,2022-02-12_12h44.32.661,lexical_decision_task_DD_L6,2021.2.3,Win32,60.0060006,,,,,,,,,,,,0.6338,1,,,,,,,,,,,,,,,,,,,,,,,,0.408333353,-0.403703717,0,0,0,,,,,,,PACKET,HB,z,y,./images/PACKETHB.png,,,,,,,,,,,,,,,,,,,,z,1,0.6338,,,,,,,,0,5,5,140,1
,,,,,,,,,,,,,,,,,616d163821d972bbc68ed26b,19,2022-02-12_12h44.32.661,lexical_decision_task_DD_L6,2021.2.3,Win32,60.0060006,,,,,,,,,,,,0.72,1,,,,,,,,,,,,,,,,,,,,,,,,0.408333353,-0.403703717,0,0,0,,,,,,,PAINT,C,z,y,./images/PAINT.png,,,,,,,,,,,,,,,,,,,,z,1,0.72,,,,,,,,0,6,6,91,1
,,,,,,,,,,,,,,,,,616d163821d972bbc68ed26b,19,2022-02-12_12h44.32.661,lexical_decision_task_DD_L6,2021.2.3,Win32,60.0060006,,,,,,,,,,,,0.6619,0,,,,,,,,,,,,,,,,,,,,,,,,0.408333353,-0.403703717,0,0,0,,,,,,,BABOON,C,z,y,./images/BABOON.png,,,,,,,,,,,,,,,,,,,,m,0,0.6619,,,,,,,,0,7,7,142,1
,,,,,,,,,,,,,,,,,616d163821d972bbc68ed26b,19,2022-02-12_12h44.32.661,lexical_decision_task_DD_L6,2021.2.3,Win32,60.0060006,,,,,,,,,,,,0.8431,1,,,,,,,,,,,,,,,,,,,,,,,,0.408333353,-0.403703717,0,0,0,,,,,,,KIDNEY,LB,z,y,./images/KIDNEYLB.png,,,,,,,,,,,,,,,,,,,,z,1,0.8431,,,,,,,,0,8,8,105,1
,,,,,,,,,,,,,,,,,616d163821d972bbc68ed26b,19,2022-02-12_12h44.32.661,lexical_decision_task_DD_L6,2021.2.3,Win32,60.0060006,,,,,,,,,,,,0.7907,0,,,,,,,,,,,,,,,,,,,,,,,,0.408333353,-0.403703717,0,0,0,,,,,,,BROOM,LB,m,y,./images/BROOMLB.png,,,,,,,,,,,,,,,,,,,,z,0,0.7907,,,,,,,,0,9,9,78,1
,,,,,,,,,,,,,,,,,616d163821d972bbc68ed26b,19,2022-02-12_12h44.32.661,lexical_decision_task_DD_L6,2021.2.3,Win32,60.0060006,,,,,,,,,,,,0.5844,1,,,,,,,,,,,,,,,,,,,,,,,,0.408333353,-0.403703717,0,0,0,,,,,,,ONION,LB,z,y,./images/ONIONLB.png,,,,,,,,,,,,,,,,,,,,z,1,0.5844,,,,,,,,0,10,10,135,1
,,,,,,,,,,,,,,,,,616d163821d972bbc68ed26b,19,2022-02-12_12h44.32.661,lexical_decision_task_DD_L6,2021.2.3,Win32,60.0060006,,,,,,,,,,,,0.6644,1,,,,,,,,,,,,,,,,,,,,,,,,0.408333353,-0.403703717,0,0,0,,,,,,,POSTER,HB,m,y,./images/POSTERHB.png,,,,,,,,,,,,,,,,,,,,m,1,0.6644,,,,,,,,0,11,11,53,1
,,,,,,,,,,,,,,,,,616d163821d972bbc68ed26b,19,2022-02-12_12h44.32.661,lexical_decision_task_DD_L6,2021.2.3,Win32,60.0060006,,,,,,,,,,,,0.648,1,,,,,,,,,,,,,,,,,,,,,,,,0.408333353,-0.403703717,0,0,0,,,,,,,BERRY,HB,z,y,./images/BERRYHB.png,,,,,,,,,,,,,,,,,,,,z,1,0.648,,,,,,,,0,12,12,131,1
,,,,,,,,,,,,,,,,,616d163821d972bbc68ed26b,19,2022-02-12_12h44.32.661,lexical_decision_task_DD_L6,2021.2.3,Win32,60.0060006,,,,,,,,,,,,0.784,1,,,,,,,,,,,,,,,,,,,,,,,,0.408333353,-0.403703717,0,0,0,,,,,,,CASINO,C,m,y,./images/CASINO.png,,,,,,,,,,,,,,,,,,,,m,1,0.784,,,,,,,,0,13,13,28,1
,,,,,,,,,,,,,,,,,616d163821d972bbc68ed26b,19,2022-02-12_12h44.32.661,lexical_decision_task_DD_L6,2021.2.3,Win32,60.0060006,,,,,,,,,,,,0.5337,1,,,,,,,,,,,,,,,,,,,,,,,,0.408333353,-0.403703717,0,0,0,,,,,,,JUNGLE,HB,z,y,./images/JUNGLEHB.png,,,,,,,,,,,,,,,,,,,,z,1,0.5337,,,,,,,,0,14,14,167,1
,,,,,,,,,,,,,,,,,616d163821d972bbc68ed26b,19,2022-02-12_12h44.32.661,lexical_decision_task_DD_L6,2021.2.3,Win32,60.0060006,,,,,,,,,,,,0.5451,1,,,,,,,,,,,,,,,,,,,,,,,,0.408333353,-0.403703717,0,0,0,,,,,,,CEMENT,HB,z,y,./images/CEMENTHB.png,,,,,,,,,,,,,,,,,,,,z,1,0.5451,,,,,,,,0,15,15,158,1
,,,,,,,,,,,,,,,,,616d163821d972bbc68ed26b,19,2022-02-12_12h44.32.661,lexical_decision_task_DD_L6,2021.2.3,Win32,60.0060006,,,,,,,,,,,,0.6677,1,,,,,,,,,,,,,,,,,,,,,,,,0.408333353,-0.403703717,0,0,0,,,,,,,FARMER,HB,z,y,./images/FARMERHB.png,,,,,,,,,,,,,,,,,,,,z,1,0.6677,,,,,,,,0,16,16,149,1
,,,,,,,,,,,,,,,,,616d163821d972bbc68ed26b,19,2022-02-12_12h44.32.661,lexical_decision_task_DD_L6,2021.2.3,Win32,60.0060006,,,,,,,,,,,,0.5824,1,,,,,,,,,,,,,,,,,,,,,,,,0.408333353,-0.403703717,0,0,0,,,,,,,LITTER,LB,z,y,./images/LITTERLB.png,,,,,,,,,,,,,,,,,,,,z,1,0.5824,,,,,,,,0,17,17,162,1
,,,,,,,,,,,,,,,,,616d163821d972bbc68ed26b,19,2022-02-12_12h44.32.661,lexical_decision_task_DD_L6,2021.2.3,Win32,60.0060006,,,,,,,,,,,,0.5451,1,,,,,,,,,,,,,,,,,,,,,,,,0.408333353,-0.403703717,0,0,0,,,,,,,POKER,C,m,y,./images/POKER.png,,,,,,,,,,,,,,,,,,,,m,1,0.5451,,,,,,,,0,18,18,67,1
,,,,,,,,,,,,,,,,,616d163821d972bbc68ed26b,19,2022-02-12_12h44.32.661,lexical_decision_task_DD_L6,2021.2.3,Win32,60.0060006,,,,,,,,,,,,0.5794,1,,,,,,,,,,,,,,,,,,,,,,,,0.408333353,-0.403703717,0,0,0,,,,,,,PILOT,HB,m,y,./images/PILOTHB.png,,,,,,,,,,,,,,,,,,,,m,1,0.5794,,,,,,,,0,19,19,50,1
,,,,,,,,,,,,,,,,,616d163821d972bbc68ed26b,19,2022-02-12_12h44.32.661,lexical_decision_task_DD_L6,2021.2.3,Win32,60.0060006,,,,,,,,,,,,0.9117,1,,,,,,,,,,,,,,,,,,,,,,,,0.408333353,-0.403703717,0,0,0,,,,,,,TOWEL,C,m,y,./images/TOWEL.png,,,,,,,,,,,,,,,,,,,,m,1,0.9117,,,,,,,,0,20,20,1,1
,,,,,,,,,,,,,,,,,616d163821d972bbc68ed26b,19,2022-02-12_12h44.32.661,lexical_decision_task_DD_L6,2021.2.3,Win32,60.0060006,,,,,,,,,,,,0.5936,1,,,,,,,,,,,,,,,,,,,,,,,,0.408333353,-0.403703717,0,0,0,,,,,,,TIGER,C,m,y,./images/TIGER.png,,,,,,,,,,,,,,,,,,,,m,1,0.5936,,,,,,,,0,21,21,37,1
,,,,,,,,,,,,,,,,,616d163821d972bbc68ed26b,19,2022-02-12_12h44.32.661,lexical_decision_task_DD_L6,2021.2.3,Win32,60.0060006,,,,,,,,,,,,0.7215,1,,,,,,,,,,,,,,,,,,,,,,,,0.408333353,-0.403703717,0,0,0,,,,,,,BLOKE,LB,m,y,./images/BLOKELB.png,,,,,,,,,,,,,,,,,,,,m,1,0.7215,,,,,,,,0,22,22,12,1
,,,,,,,,,,,,,,,,,616d163821d972bbc68ed26b,19,2022-02-12_12h44.32.661,lexical_decision_task_DD_L6,2021.2.3,Win32,60.0060006,,,,,,,,,,,,0.5836,0,,,,,,,,,,,,,,,,,,,,,,,,0.408333353,-0.403703717,0,0,0,,,,,,,DONKEY,C,m,y,./images/DONKEY.png,,,,,,,,,,,,,,,,,,,,z,0,0.5836,,,,,,,,0,23,23,19,1
,,,,,,,,,,,,,,,,,616d163821d972bbc68ed26b,19,2022-02-12_12h44.32.661,lexical_decision_task_DD_L6,2021.2.3,Win32,60.0060006,,,,,,,,,,,,0.7502,1,,,,,,,,,,,,,,,,,,,,,,,,0.408333353,-0.403703717,0,0,0,,,,,,,RHINO,LB,z,y,./images/RHINOLB.png,,,,,,,,,,,,,,,,,,,,z,1,0.7502,,,,,,,,0,24,24,93,1
,,,,,,,,,,,,,,,,,616d163821d972bbc68ed26b,19,2022-02-12_12h44.32.661,lexical_decision_task_DD_L6,2021.2.3,Win32,60.0060006,,,,,,,,,,,,0.5637,1,,,,,,,,,,,,,,,,,,,,,,,,0.408333353,-0.403703717,0,0,0,,,,,,,MAMMAL,HB,m,y,./images/MAMMALHB.png,,,,,,,,,,,,,,,,,,,,m,1,0.5637,,,,,,,,0,25,25,62,1
,,,,,,,,,,,,,,,,,616d163821d972bbc68ed26b,19,2022-02-12_12h44.32.661,lexical_decision_task_DD_L6,2021.2.3,Win32,60.0060006,,,,,,,,,,,,0.7545,1,,,,,,,,,,,,,,,,,,,,,,,,0.408333353,-0.403703717,0,0,0,,,,,,,QUILL,C,z,y,./images/QUILL.png,,,,,,,,,,,,,,,,,,,,z,1,0.7545,,,,,,,,0,26,26,115,1
,,,,,,,,,,,,,,,,,616d163821d972bbc68ed26b,19,2022-02-12_12h44.32.661,lexical_decision_task_DD_L6,2021.2.3,Win32,60.0060006,,,,,,,,,,,,0.5767,1,,,,,,,,,,,,,,,,,,,,,,,,0.408333353,-0.403703717,0,0,0,,,,,,,PICKLE,HB,z,y,./images/PICKLEHB.png,,,,,,,,,,,,,,,,,,,,z,1,0.5767,,,,,,,,0,27,27,98,1
,,,,,,,,,,,,,,,,,616d163821d972bbc68ed26b,19,2022-02-12_12h44.32.661,lexical_decision_task_DD_L6,2021.2.3,Win32,60.0060006,,,,,,,,,,,,0.6715,1,,,,,,,,,,,,,,,,,,,,,,,,0.408333353,-0.403703717,0,0,0,,,,,,,BELLY,C,z,y,./images/BELLY.png,,,,,,,,,,,,,,,,,,,,z,1,0.6715,,,,,,,,0,28,28,94,1
,,,,,,,,,,,,,,,,,616d163821d972bbc68ed26b,19,2022-02-12_12h44.32.661,lexical_decision_task_DD_L6,2021.2.3,Win32,60.0060006,,,,,,,,,,,,0.6817,1,,,,,,,,,,,,,,,,,,,,,,,,0.408333353,-0.403703717,0,0,0,,,,,,,MUSCLE,C,z,y,./images/MUSCLE.png,,,,,,,,,,,,,,,,,,,,z,1,0.6817,,,,,,,,0,29,29,88,1
,,,,,,,,,,,,,,,,,616d163821d972bbc68ed26b,19,2022-02-12_12h44.32.661,lexical_decision_task_DD_L6,2021.2.3,Win32,60.0060006,,,,,,,,,,,,0.7831,0,,,,,,,,,,,,,,,,,,,,,,,,0.408333353,-0.403703717,0,0,0,,,,,,,STOVE,HB,m,y,./images/STOVEHB.png,,,,,,,,,,,,,,,,,,,,z,0,0.7831,,,,,,,,0,30,30,2,1
,,,,,,,,,,,,,,,,,616d163821d972bbc68ed26b,19,2022-02-12_12h44.32.661,lexical_decision_task_DD_L6,2021.2.3,Win32,60.0060006,,,,,,,,,,,,0.567,1,,,,,,,,,,,,,,,,,,,,,,,,0.408333353,-0.403703717,0,0,0,,,,,,,SQUARE,LB,z,y,./images/SQUARELB.png,,,,,,,,,,,,,,,,,,,,z,1,0.567,,,,,,,,0,31,31,90,1
,,,,,,,,,,,,,,,,,616d163821d972bbc68ed26b,19,2022-02-12_12h44.32.661,lexical_decision_task_DD_L6,2021.2.3,Win32,60.0060006,,,,,,,,,,,,0.6214,1,,,,,,,,,,,,,,,,,,,,,,,,0.408333353,-0.403703717,0,0,0,,,,,,,SPINE,HB,m,y,./images/SPINEHB.png,,,,,,,,,,,,,,,,,,,,m,1,0.6214,,,,,,,,0,32,32,65,1
,,,,,,,,,,,,,,,,,616d163821d972bbc68ed26b,19,2022-02-12_12h44.32.661,lexical_decision_task_DD_L6,2021.2.3,Win32,60.0060006,,,,,,,,,,,,0.6644,1,,,,,,,,,,,,,,,,,,,,,,,,0.408333353,-0.403703717,0,0,0,,,,,,,BASKET,HB,m,y,./images/BASKETHB.png,,,,,,,,,,,,,,,,,,,,m,1,0.6644,,,,,,,,0,33,33,44,1
,,,,,,,,,,,,,,,,,616d163821d972bbc68ed26b,19,2022-02-12_12h44.32.661,lexical_decision_task_DD_L6,2021.2.3,Win32,60.0060006,,,,,,,,,,,,0.5694,1,,,,,,,,,,,,,,,,,,,,,,,,0.408333353,-0.403703717,0,0,0,,,,,,,FALCON,C,z,y,./images/FALCON.png,,,,,,,,,,,,,,,,,,,,z,1,0.5694,,,,,,,,0,34,34,112,1
,,,,,,,,,,,,,,,,,616d163821d972bbc68ed26b,19,2022-02-12_12h44.32.661,lexical_decision_task_DD_L6,2021.2.3,Win32,60.0060006,,,,,,,,,,,,0.7334,1,,,,,,,,,,,,,,,,,,,,,,,,0.408333353,-0.403703717,0,0,0,,,,,,,JUMPER,HB,m,y,./images/JUMPERHB.png,,,,,,,,,,,,,,,,,,,,m,1,0.7334,,,,,,,,0,35,35,74,1
,,,,,,,,,,,,,,,,,616d163821d972bbc68ed26b,19,2022-02-12_12h44.32.661,lexical_decision_task_DD_L6,2021.2.3,Win32,60.0060006,,,,,,,,,,,,0.6409,1,,,,,,,,,,,,,,,,,,,,,,,,0.408333353,-0.403703717,0,0,0,,,,,,,PISTOL,HB,m,y,./images/PISTOLHB.png,,,,,,,,,,,,,,,,,,,,m,1,0.6409,,,,,,,,0,36,36,29,1
,,,,,,,,,,,,,,,,,616d163821d972bbc68ed26b,19,2022-02-12_12h44.32.661,lexical_decision_task_DD_L6,2021.2.3,Win32,60.0060006,,,,,,,,,,,,0.9362,1,,,,,,,,,,,,,,,,,,,,,,,,0.408333353,-0.403703717,0,0,0,,,,,,,WEASEL,HB,z,y,./images/WEASELHB.png,,,,,,,,,,,,,,,,,,,,z,1,0.9362,,,,,,,,0,37,37,164,1
,,,,,,,,,,,,,,,,,616d163821d972bbc68ed26b,19,2022-02-12_12h44.32.661,lexical_decision_task_DD_L6,2021.2.3,Win32,60.0060006,,,,,,,,,,,,0.6388,1,,,,,,,,,,,,,,,,,,,,,,,,0.408333353,-0.403703717,0,0,0,,,,,,,HAMMER,LB,m,y,./images/HAMMERLB.png,,,,,,,,,,,,,,,,,,,,m,1,0.6388,,,,,,,,0,38,38,75,1
,,,,,,,,,,,,,,,,,616d163821d972bbc68ed26b,19,2022-02-12_12h44.32.661,lexical_decision_task_DD_L6,2021.2.3,Win32,60.0060006,,,,,,,,,,,,1.5803,0,,,,,,,,,,,,,,,,,,,,,,,,0.408333353,-0.403703717,0,0,0,,,,,,,MOOSE,LB,z,y,./images/MOOSELB.png,,,,,,,,,,,,,,,,,,,,m,0,1.5803,,,,,,,,0,39,39,141,1
,,,,,,,,,,,,,,,,,616d163821d972bbc68ed26b,19,2022-02-12_12h44.32.661,lexical_decision_task_DD_L6,2021.2.3,Win32,60.0060006,,,,,,,,,,,,0.6219,1,,,,,,,,,,,,,,,,,,,,,,,,0.408333353,-0.403703717,0,0,0,,,,,,,SKIING,HB,z,y,./images/SKIINGHB.png,,,,,,,,,,,,,,,,,,,,z,1,0.6219,,,,,,,,0,40,40,101,1
,,,,,,,,,,,,,,,,,616d163821d972bbc68ed26b,19,2022-02-12_12h44.32.661,lexical_decision_task_DD_L6,2021.2.3,Win32,60.0060006,,,,,,,,,,,,0.6265,1,,,,,,,,,,,,,,,,,,,,,,,,0.408333353,-0.403703717,0,0,0,space,,,,,,SNAKE,C,m,y,./images/SNAKE.png,1.2836,,,,,,,,,,,,,,,,,,,m,1,0.6265,,,,,,,,0,41,41,40,1
,,,,,,,,,,,,,,,,,616d163821d972bbc68ed26b,19,2022-02-12_12h44.32.661,lexical_decision_task_DD_L6,2021.2.3,Win32,60.0060006,,,,,,,,,,,,1.3411,1,,,,,,,,,,,,,,,,,,,,,,,,0.408333353,-0.403703717,0,0,0,,,,,,,CANDY,LB,m,y,./images/CANDYLB.png,,,,,,,,,,,,,,,,,,,,m,1,1.3411,,,,,,,,0,42,42,39,1
,,,,,,,,,,,,,,,,,616d163821d972bbc68ed26b,19,2022-02-12_12h44.32.661,lexical_decision_task_DD_L6,2021.2.3,Win32,60.0060006,,,,,,,,,,,,0.7609,1,,,,,,,,,,,,,,,,,,,,,,,,0.408333353,-0.403703717,0,0,0,,,,,,,CLIFF,HB,m,y,./images/CLIFFHB.png,,,,,,,,,,,,,,,,,,,,m,1,0.7609,,,,,,,,0,43,43,8,1
,,,,,,,,,,,,,,,,,616d163821d972bbc68ed26b,19,2022-02-12_12h44.32.661,lexical_decision_task_DD_L6,2021.2.3,Win32,60.0060006,,,,,,,,,,,,0.4796,1,,,,,,,,,,,,,,,,,,,,,,,,0.408333353,-0.403703717,0,0,0,,,,,,,BEARD,HB,z,y,./images/BEARDHB.png,,,,,,,,,,,,,,,,,,,,z,1,0.4796,,,,,,,,0,44,44,86,1
,,,,,,,,,,,,,,,,,616d163821d972bbc68ed26b,19,2022-02-12_12h44.32.661,lexical_decision_task_DD_L6,2021.2.3,Win32,60.0060006,,,,,,,,,,,,0.5942,1,,,,,,,,,,,,,,,,,,,,,,,,0.408333353,-0.403703717,0,0,0,,,,,,,ATTIC,LB,z,y,./images/ATTICLB.png,,,,,,,,,,,,,,,,,,,,z,1,0.5942,,,,,,,,0,45,45,111,1
,,,,,,,,,,,,,,,,,616d163821d972bbc68ed26b,19,2022-02-12_12h44.32.661,lexical_decision_task_DD_L6,2021.2.3,Win32,60.0060006,,,,,,,,,,,,1.1051,1,,,,,,,,,,,,,,,,,,,,,,,,0.408333353,-0.403703717,0,0,0,,,,,,,STEAK,C,m,y,./images/STEAK.png,,,,,,,,,,,,,,,,,,,,m,1,1.1051,,,,,,,,0,46,46,31,1
,,,,,,,,,,,,,,,,,616d163821d972bbc68ed26b,19,2022-02-12_12h44.32.661,lexical_decision_task_DD_L6,2021.2.3,Win32,60.0060006,,,,,,,,,,,,2.8066,0,,,,,,,,,,,,,,,,,,,,,,,,0.408333353,-0.403703717,0,0,0,,,,,,,CRUMB,HB,z,y,./images/CRUMBHB.png,,,,,,,,,,,,,,,,,,,,m,0,2.8066,,,,,,,,0,47,47,113,1
,,,,,,,,,,,,,,,,,616d163821d972bbc68ed26b,19,2022-02-12_12h44.32.661,lexical_decision_task_DD_L6,2021.2.3,Win32,60.0060006,,,,,,,,,,,,0.8199,1,,,,,,,,,,,,,,,,,,,,,,,,0.408333353,-0.403703717,0,0,0,,,,,,,HEATER,HB,m,y,./images/HEATERHB.png,,,,,,,,,,,,,,,,,,,,m,1,0.8199,,,,,,,,0,48,48,56,1
,,,,,,,,,,,,,,,,,616d163821d972bbc68ed26b,19,2022-02-12_12h44.32.661,lexical_decision_task_DD_L6,2021.2.3,Win32,60.0060006,,,,,,,,,,,,1.1261,0,,,,,,,,,,,,,,,,,,,,,,,,0.408333353,-0.403703717,0,0,0,,,,,,,COLLAR,LB,m,y,./images/COLLARLB.png,,,,,,,,,,,,,,,,,,,,z,0,1.1261,,,,,,,,0,49,49,15,1
,,,,,,,,,,,,,,,,,616d163821d972bbc68ed26b,19,2022-02-12_12h44.32.661,lexical_decision_task_DD_L6,2021.2.3,Win32,60.0060006,,,,,,,,,,,,1.3132,0,,,,,,,,,,,,,,,,,,,,,,,,0.408333353,-0.403703717,0,0,0,,,,,,,STRING,HB,z,y,./images/STRINGHB.png,,,,,,,,,,,,,,,,,,,,m,0,1.3132,,,,,,,,0,50,50,125,1
,,,,,,,,,,,,,,,,,616d163821d972bbc68ed26b,19,2022-02-12_12h44.32.661,lexical_decision_task_DD_L6,2021.2.3,Win32,60.0060006,,,,,,,,,,,,0.5811,1,,,,,,,,,,,,,,,,,,,,,,,,0.408333353,-0.403703717,0,0,0,,,,,,,PIMPLE,HB,z,y,./images/PIMPLEHB.png,,,,,,,,,,,,,,,,,,,,z,1,0.5811,,,,,,,,0,51,51,155,1
,,,,,,,,,,,,,,,,,616d163821d972bbc68ed26b,19,2022-02-12_12h44.32.661,lexical_decision_task_DD_L6,2021.2.3,Win32,60.0060006,,,,,,,,,,,,0.6984,0,,,,,,,,,,,,,,,,,,,,,,,,0.408333353,-0.403703717,0,0,0,,,,,,,FLASK,LB,m,y,./images/FLASKLB.png,,,,,,,,,,,,,,,,,,,,z,0,0.6984,,,,,,,,0,52,52,72,1
,,,,,,,,,,,,,,,,,616d163821d972bbc68ed26b,19,2022-02-12_12h44.32.661,lexical_decision_task_DD_L6,2021.2.3,Win32,60.0060006,,,,,,,,,,,,1.4605,1,,,,,,,,,,,,,,,,,,,,,,,,0.408333353,-0.403703717,0,0,0,,,,,,,TORCH,HB,z,y,./images/TORCHHB.png,,,,,,,,,,,,,,,,,,,,z,1,1.4605,,,,,,,,0,53,53,152,1
,,,,,,,,,,,,,,,,,616d163821d972bbc68ed26b,19,2022-02-12_12h44.32.661,lexical_decision_task_DD_L6,2021.2.3,Win32,60.0060006,,,,,,,,,,,,0.8185,1,,,,,,,,,,,,,,,,,,,,,,,,0.408333353,-0.403703717,0,0,0,,,,,,,MALLET,HB,z,y,./images/MALLETHB.png,,,,,,,,,,,,,,,,,,,,z,1,0.8185,,,,,,,,0,54,54,134,1
,,,,,,,,,,,,,,,,,616d163821d972bbc68ed26b,19,2022-02-12_12h44.32.661,lexical_decision_task_DD_L6,2021.2.3,Win32,60.0060006,,,,,,,,,,,,0.9128,1,,,,,,,,,,,,,,,,,,,,,,,,0.408333353,-0.403703717,0,0,0,,,,,,,BISHOP,C,m,y,./images/BISHOP.png,,,,,,,,,,,,,,,,,,,,m,1,0.9128,,,,,,,,0,55,55,49,1
,,,,,,,,,,,,,,,,,616d163821d972bbc68ed26b,19,2022-02-12_12h44.32.661,lexical_decision_task_DD_L6,2021.2.3,Win32,60.0060006,,,,,,,,,,,,0.5692,1,,,,,,,,,,,,,,,,,,,,,,,,0.408333353,-0.403703717,0,0,0,,,,,,,WALRUS,HB,z,y,./images/WALRUSHB.png,,,,,,,,,,,,,,,,,,,,z,1,0.5692,,,,,,,,0,56,56,107,1
,,,,,,,,,,,,,,,,,616d163821d972bbc68ed26b,19,2022-02-12_12h44.32.661,lexical_decision_task_DD_L6,2021.2.3,Win32,60.0060006,,,,,,,,,,,,0.6128,1,,,,,,,,,,,,,,,,,,,,,,,,0.408333353,-0.403703717,0,0,0,,,,,,,TRIPOD,LB,z,y,./images/TRIPODLB.png,,,,,,,,,,,,,,,,,,,,z,1,0.6128,,,,,,,,0,57,57,138,1
,,,,,,,,,,,,,,,,,616d163821d972bbc68ed26b,19,2022-02-12_12h44.32.661,lexical_decision_task_DD_L6,2021.2.3,Win32,60.0060006,,,,,,,,,,,,0.5553,1,,,,,,,,,,,,,,,,,,,,,,,,0.408333353,-0.403703717,0,0,0,,,,,,,MAGGOT,LB,z,y,./images/MAGGOTLB.png,,,,,,,,,,,,,,,,,,,,z,1,0.5553,,,,,,,,0,58,58,117,1
,,,,,,,,,,,,,,,,,616d163821d972bbc68ed26b,19,2022-02-12_12h44.32.661,lexical_decision_task_DD_L6,2021.2.3,Win32,60.0060006,,,,,,,,,,,,0.4709,1,,,,,,,,,,,,,,,,,,,,,,,,0.408333353,-0.403703717,0,0,0,,,,,,,COOKER,LB,z,y,./images/COOKERLB.png,,,,,,,,,,,,,,,,,,,,z,1,0.4709,,,,,,,,0,59,59,153,1
,,,,,,,,,,,,,,,,,616d163821d972bbc68ed26b,19,2022-02-12_12h44.32.661,lexical_decision_task_DD_L6,2021.2.3,Win32,60.0060006,,,,,,,,,,,,0.433,1,,,,,,,,,,,,,,,,,,,,,,,,0.408333353,-0.403703717,0,0,0,,,,,,,DOUGH,C,z,y,./images/DOUGH.png,,,,,,,,,,,,,,,,,,,,z,1,0.433,,,,,,,,0,60,60,103,1
,,,,,,,,,,,,,,,,,616d163821d972bbc68ed26b,19,2022-02-12_12h44.32.661,lexical_decision_task_DD_L6,2021.2.3,Win32,60.0060006,,,,,,,,,,,,1.011,1,,,,,,,,,,,,,,,,,,,,,,,,0.408333353,-0.403703717,0,0,0,,,,,,,DESERT,C,m,y,./images/DESERT.png,,,,,,,,,,,,,,,,,,,,m,1,1.011,,,,,,,,0,61,61,52,1
,,,,,,,,,,,,,,,,,616d163821d972bbc68ed26b,19,2022-02-12_12h44.32.661,lexical_decision_task_DD_L6,2021.2.3,Win32,60.0060006,,,,,,,,,,,,0.7047,1,,,,,,,,,,,,,,,,,,,,,,,,0.408333353,-0.403703717,0,0,0,,,,,,,MOSQUE,C,z,y,./images/MOSQUE.png,,,,,,,,,,,,,,,,,,,,z,1,0.7047,,,,,,,,0,62,62,127,1
,,,,,,,,,,,,,,,,,616d163821d972bbc68ed26b,19,2022-02-12_12h44.32.661,lexical_decision_task_DD_L6,2021.2.3,Win32,60.0060006,,,,,,,,,,,,0.6037,1,,,,,,,,,,,,,,,,,,,,,,,,0.408333353,-0.403703717,0,0,0,,,,,,,SAUNA,LB,m,y,./images/SAUNALB.png,,,,,,,,,,,,,,,,,,,,m,1,0.6037,,,,,,,,0,63,63,33,1
,,,,,,,,,,,,,,,,,616d163821d972bbc68ed26b,19,2022-02-12_12h44.32.661,lexical_decision_task_DD_L6,2021.2.3,Win32,60.0060006,,,,,,,,,,,,0.7297,1,,,,,,,,,,,,,,,,,,,,,,,,0.408333353,-0.403703717,0,0,0,,,,,,,LAGOON,HB,m,y,./images/LAGOONHB.png,,,,,,,,,,,,,,,,,,,,m,1,0.7297,,,,,,,,0,64,64,47,1
,,,,,,,,,,,,,,,,,616d163821d972bbc68ed26b,19,2022-02-12_12h44.32.661,lexical_decision_task_DD_L6,2021.2.3,Win32,60.0060006,,,,,,,,,,,,0.7698,1,,,,,,,,,,,,,,,,,,,,,,,,0.408333353,-0.403703717,0,0,0,,,,,,,RULER,C,m,y,./images/RULER.png,,,,,,,,,,,,,,,,,,,,m,1,0.7698,,,,,,,,0,65,65,79,1
,,,,,,,,,,,,,,,,,616d163821d972bbc68ed26b,19,2022-02-12_12h44.32.661,lexical_decision_task_DD_L6,2021.2.3,Win32,60.0060006,,,,,,,,,,,,0.619,0,,,,,,,,,,,,,,,,,,,,,,,,0.408333353,-0.403703717,0,0,0,,,,,,,ARROW,LB,m,y,./images/ARROWLB.png,,,,,,,,,,,,,,,,,,,,z,0,0.619,,,,,,,,0,66,66,69,1
,,,,,,,,,,,,,,,,,616d163821d972bbc68ed26b,19,2022-02-12_12h44.32.661,lexical_decision_task_DD_L6,2021.2.3,Win32,60.0060006,,,,,,,,,,,,0.5324,1,,,,,,,,,,,,,,,,,,,,,,,,0.408333353,-0.403703717,0,0,0,,,,,,,SHORE,LB,z,y,./images/SHORELB.png,,,,,,,,,,,,,,,,,,,,z,1,0.5324,,,,,,,,0,67,67,96,1
,,,,,,,,,,,,,,,,,616d163821d972bbc68ed26b,19,2022-02-12_12h44.32.661,lexical_decision_task_DD_L6,2021.2.3,Win32,60.0060006,,,,,,,,,,,,1.5396,1,,,,,,,,,,,,,,,,,,,,,,,,0.408333353,-0.403703717,0,0,0,,,,,,,WHEEL,HB,m,y,./images/WHEELHB.png,,,,,,,,,,,,,,,,,,,,m,1,1.5396,,,,,,,,0,68,68,77,1
,,,,,,,,,,,,,,,,,616d163821d972bbc68ed26b,19,2022-02-12_12h44.32.661,lexical_decision_task_DD_L6,2021.2.3,Win32,60.0060006,,,,,,,,,,,,0.6609,1,,,,,,,,,,,,,,,,,,,,,,,,0.408333353,-0.403703717,0,0,0,,,,,,,JELLY,C,z,y,./images/JELLY.png,,,,,,,,,,,,,,,,,,,,z,1,0.6609,,,,,,,,0,69,69,148,1
,,,,,,,,,,,,,,,,,616d163821d972bbc68ed26b,19,2022-02-12_12h44.32.661,lexical_decision_task_DD_L6,2021.2.3,Win32,60.0060006,,,,,,,,,,,,0.5915,1,,,,,,,,,,,,,,,,,,,,,,,,0.408333353,-0.403703717,0,0,0,,,,,,,SWING,C,z,y,./images/SWING.png,,,,,,,,,,,,,,,,,,,,z,1,0.5915,,,,,,,,0,70,70,124,1
,,,,,,,,,,,,,,,,,616d163821d972bbc68ed26b,19,2022-02-12_12h44.32.661,lexical_decision_task_DD_L6,2021.2.3,Win32,60.0060006,,,,,,,,,,,,1.288,1,,,,,,,,,,,,,,,,,,,,,,,,0.408333353,-0.403703717,0,0,0,,,,,,,CLOUD,HB,m,y,./images/CLOUDHB.png,,,,,,,,,,,,,,,,,,,,m,1,1.288,,,,,,,,0,71,71,26,1
,,,,,,,,,,,,,,,,,616d163821d972bbc68ed26b,19,2022-02-12_12h44.32.661,lexical_decision_task_DD_L6,2021.2.3,Win32,60.0060006,,,,,,,,,,,,0.5878,1,,,,,,,,,,,,,,,,,,,,,,,,0.408333353,-0.403703717,0,0,0,,,,,,,SNACK,C,z,y,./images/SNACK.png,,,,,,,,,,,,,,,,,,,,z,1,0.5878,,,,,,,,0,72,72,157,1
,,,,,,,,,,,,,,,,,616d163821d972bbc68ed26b,19,2022-02-12_12h44.32.661,lexical_decision_task_DD_L6,2021.2.3,Win32,60.0060006,,,,,,,,,,,,0.8055,1,,,,,,,,,,,,,,,,,,,,,,,,0.408333353,-0.403703717,0,0,0,,,,,,,ALLEY,C,m,y,./images/ALLEY.png,,,,,,,,,,,,,,,,,,,,m,1,0.8055,,,,,,,,0,73,73,55,1
,,,,,,,,,,,,,,,,,616d163821d972bbc68ed26b,19,2022-02-12_12h44.32.661,lexical_decision_task_DD_L6,2021.2.3,Win32,60.0060006,,,,,,,,,,,,0.6371,1,,,,,,,,,,,,,,,,,,,,,,,,0.408333353,-0.403703717,0,0,0,,,,,,,STATUE,LB,m,y,./images/STATUELB.png,,,,,,,,,,,,,,,,,,,,m,1,0.6371,,,,,,,,0,74,74,66,1
,,,,,,,,,,,,,,,,,616d163821d972bbc68ed26b,19,2022-02-12_12h44.32.661,lexical_decision_task_DD_L6,2021.2.3,Win32,60.0060006,,,,,,,,,,,,0.8875,1,,,,,,,,,,,,,,,,,,,,,,,,0.408333353,-0.403703717,0,0,0,,,,,,,MUFFIN,C,z,y,./images/MUFFIN.png,,,,,,,,,,,,,,,,,,,,z,1,0.8875,,,,,,,,0,75,75,139,1
,,,,,,,,,,,,,,,,,616d163821d972bbc68ed26b,19,2022-02-12_12h44.32.661,lexical_decision_task_DD_L6,2021.2.3,Win32,60.0060006,,,,,,,,,,,,0.7779,1,,,,,,,,,,,,,,,,,,,,,,,,0.408333353,-0.403703717,0,0,0,,,,,,,CARPET,HB,z,y,./images/CARPETHB.png,,,,,,,,,,,,,,,,,,,,z,1,0.7779,,,,,,,,0,76,76,137,1
,,,,,,,,,,,,,,,,,616d163821d972bbc68ed26b,19,2022-02-12_12h44.32.661,lexical_decision_task_DD_L6,2021.2.3,Win32,60.0060006,,,,,,,,,,,,0.5539,0,,,,,,,,,,,,,,,,,,,,,,,,0.408333353,-0.403703717,0,0,0,,,,,,,DANCER,LB,m,y,./images/DANCERLB.png,,,,,,,,,,,,,,,,,,,,z,0,0.5539,,,,,,,,0,77,77,21,1
,,,,,,,,,,,,,,,,,616d163821d972bbc68ed26b,19,2022-02-12_12h44.32.661,lexical_decision_task_DD_L6,2021.2.3,Win32,60.0060006,,,,,,,,,,,,0.563,1,,,,,,,,,,,,,,,,,,,,,,,,0.408333353,-0.403703717,0,0,0,,,,,,,WHISKY,HB,m,y,./images/WHISKYHB.png,,,,,,,,,,,,,,,,,,,,m,1,0.563,,,,,,,,0,78,78,83,1
,,,,,,,,,,,,,,,,,616d163821d972bbc68ed26b,19,2022-02-12_12h44.32.661,lexical_decision_task_DD_L6,2021.2.3,Win32,60.0060006,,,,,,,,,,,,0.535,1,,,,,,,,,,,,,,,,,,,,,,,,0.408333353,-0.403703717,0,0,0,,,,,,,FINGER,LB,z,y,./images/FINGERLB.png,,,,,,,,,,,,,,,,,,,,z,1,0.535,,,,,,,,0,79,79,87,1
,,,,,,,,,,,,,,,,,616d163821d972bbc68ed26b,19,2022-02-12_12h44.32.661,lexical_decision_task_DD_L6,2021.2.3,Win32,60.0060006,,,,,,,,,,,,0.6141,1,,,,,,,,,,,,,,,,,,,,,,,,0.408333353,-0.403703717,0,0,0,,,,,,,DRUMS,C,z,y,./images/DRUMS.png,,,,,,,,,,,,,,,,,,,,z,1,0.6141,,,,,,,,0,80,80,133,1
,,,,,,,,,,,,,,,,,616d163821d972bbc68ed26b,19,2022-02-12_12h44.32.661,lexical_decision_task_DD_L6,2021.2.3,Win32,60.0060006,,,,,,,,,,,,0.9061,1,,,,,,,,,,,,,,,,,,,,,,,,0.408333353,-0.403703717,0,0,0,,,,,,,POODLE,LB,z,y,./images/POODLELB.png,,,,,,,,,,,,,,,,,,,,z,1,0.9061,,,,,,,,0,81,81,165,1
,,,,,,,,,,,,,,,,,616d163821d972bbc68ed26b,19,2022-02-12_12h44.32.661,lexical_decision_task_DD_L6,2021.2.3,Win32,60.0060006,,,,,,,,,,,,0.5156,1,,,,,,,,,,,,,,,,,,,,,,,,0.408333353,-0.403703717,0,0,0,,,,,,,TWINS,LB,z,y,./images/TWINSLB.png,,,,,,,,,,,,,,,,,,,,z,1,0.5156,,,,,,,,0,82,82,144,1
,,,,,,,,,,,,,,,,,616d163821d972bbc68ed26b,19,2022-02-12_12h44.32.661,lexical_decision_task_DD_L6,2021.2.3,Win32,60.0060006,,,,,,,,,,,,0.6096,1,,,,,,,,,,,,,,,,,,,,,,,,0.408333353,-0.403703717,0,0,0,space,,,,,,MIDGET,C,m,y,./images/MIDGET.png,1.1106,,,,,,,,,,,,,,,,,,,m,1,0.6096,,,,,,,,0,83,83,76,1
,,,,,,,,,,,,,,,,,616d163821d972bbc68ed26b,19,2022-02-12_12h44.32.661,lexical_decision_task_DD_L6,2021.2.3,Win32,60.0060006,,,,,,,,,,,,0.6291,0,,,,,,,,,,,,,,,,,,,,,,,,0.408333353,-0.403703717,0,0,0,,,,,,,BRUSH,HB,m,y,./images/BRUSHHB.png,,,,,,,,,,,,,,,,,,,,z,0,0.6291,,,,,,,,0,84,84,59,1
,,,,,,,,,,,,,,,,,616d163821d972bbc68ed26b,19,2022-02-12_12h44.32.661,lexical_decision_task_DD_L6,2021.2.3,Win32,60.0060006,,,,,,,,,,,,0.6684,1,,,,,,,,,,,,,,,,,,,,,,,,0.408333353,-0.403703717,0,0,0,,,,,,,PEACH,HB,z,y,./images/PEACHHB.png,,,,,,,,,,,,,,,,,,,,z,1,0.6684,,,,,,,,0,85,85,119,1
,,,,,,,,,,,,,,,,,616d163821d972bbc68ed26b,19,2022-02-12_12h44.32.661,lexical_decision_task_DD_L6,2021.2.3,Win32,60.0060006,,,,,,,,,,,,0.5406,1,,,,,,,,,,,,,,,,,,,,,,,,0.408333353,-0.403703717,0,0,0,,,,,,,GRAIN,LB,z,y,./images/GRAINLB.png,,,,,,,,,,,,,,,,,,,,z,1,0.5406,,,,,,,,0,86,86,159,1
,,,,,,,,,,,,,,,,,616d163821d972bbc68ed26b,19,2022-02-12_12h44.32.661,lexical_decision_task_DD_L6,2021.2.3,Win32,60.0060006,,,,,,,,,,,,0.4717,0,,,,,,,,,,,,,,,,,,,,,,,,0.408333353,-0.403703717,0,0,0,,,,,,,FENCE,HB,m,y,./images/FENCEHB.png,,,,,,,,,,,,,,,,,,,,z,0,0.4717,,,,,,,,0,87,87,14,1
,,,,,,,,,,,,,,,,,616d163821d972bbc68ed26b,19,2022-02-12_12h44.32.661,lexical_decision_task_DD_L6,2021.2.3,Win32,60.0060006,,,,,,,,,,,,0.53,1,,,,,,,,,,,,,,,,,,,,,,,,0.408333353,-0.403703717,0,0,0,,,,,,,CRUST,C,z,y,./images/CRUST.png,,,,,,,,,,,,,,,,,,,,z,1,0.53,,,,,,,,0,88,88,163,1
,,,,,,,,,,,,,,,,,616d163821d972bbc68ed26b,19,2022-02-12_12h44.32.661,lexical_decision_task_DD_L6,2021.2.3,Win32,60.0060006,,,,,,,,,,,,0.6534,1,,,,,,,,,,,,,,,,,,,,,,,,0.408333353,-0.403703717,0,0,0,,,,,,,BARREL,HB,z,y,./images/BARRELHB.png,,,,,,,,,,,,,,,,,,,,z,1,0.6534,,,,,,,,0,89,89,116,1
,,,,,,,,,,,,,,,,,616d163821d972bbc68ed26b,19,2022-02-12_12h44.32.661,lexical_decision_task_DD_L6,2021.2.3,Win32,60.0060006,,,,,,,,,,,,0.5121,0,,,,,,,,,,,,,,,,,,,,,,,,0.408333353,-0.403703717,0,0,0,,,,,,,CHERRY,LB,m,y,./images/CHERRYLB.png,,,,,,,,,,,,,,,,,,,,z,0,0.5121,,,,,,,,0,90,90,54,1
,,,,,,,,,,,,,,,,,616d163821d972bbc68ed26b,19,2022-02-12_12h44.32.661,lexical_decision_task_DD_L6,2021.2.3,Win32,60.0060006,,,,,,,,,,,,0.5068,1,,,,,,,,,,,,,,,,,,,,,,,,0.408333353,-0.403703717,0,0,0,,,,,,,PASTA,HB,z,y,./images/PASTAHB.png,,,,,,,,,,,,,,,,,,,,z,1,0.5068,,,,,,,,0,91,91,89,1
,,,,,,,,,,,,,,,,,616d163821d972bbc68ed26b,19,2022-02-12_12h44.32.661,lexical_decision_task_DD_L6,2021.2.3,Win32,60.0060006,,,,,,,,,,,,0.5974,1,,,,,,,,,,,,,,,,,,,,,,,,0.408333353,-0.403703717,0,0,0,,,,,,,CRADLE,HB,z,y,./images/CRADLEHB.png,,,,,,,,,,,,,,,,,,,,z,1,0.5974,,,,,,,,0,92,92,104,1
,,,,,,,,,,,,,,,,,616d163821d972bbc68ed26b,19,2022-02-12_12h44.32.661,lexical_decision_task_DD_L6,2021.2.3,Win32,60.0060006,,,,,,,,,,,,0.4725,1,,,,,,,,,,,,,,,,,,,,,,,,0.408333353,-0.403703717,0,0,0,,,,,,,BONNET,HB,z,y,./images/BONNETHB.png,,,,,,,,,,,,,,,,,,,,z,1,0.4725,,,,,,,,0,93,93,95,1
,,,,,,,,,,,,,,,,,616d163821d972bbc68ed26b,19,2022-02-12_12h44.32.661,lexical_decision_task_DD_L6,2021.2.3,Win32,60.0060006,,,,,,,,,,,,0.5653,1,,,,,,,,,,,,,,,,,,,,,,,,0.408333353,-0.403703717,0,0,0,,,,,,,WAGON,C,m,y,./images/WAGON.png,,,,,,,,,,,,,,,,,,,,m,1,0.5653,,,,,,,,0,94,94,7,1
,,,,,,,,,,,,,,,,,616d163821d972bbc68ed26b,19,2022-02-12_12h44.32.661,lexical_decision_task_DD_L6,2021.2.3,Win32,60.0060006,,,,,,,,,,,,0.6425,1,,,,,,,,,,,,,,,,,,,,,,,,0.408333353,-0.403703717,0,0,0,,,,,,,MELON,C,z,y,./images/MELON.png,,,,,,,,,,,,,,,,,,,,z,1,0.6425,,,,,,,,0,95,95,106,1
,,,,,,,,,,,,,,,,,616d163821d972bbc68ed26b,19,2022-02-12_12h44.32.661,lexical_decision_task_DD_L6,2021.2.3,Win32,60.0060006,,,,,,,,,,,,1.7018,0,,,,,,,,,,,,,,,,,,,,,,,,0.408333353,-0.403703717,0,0,0,,,,,,,GRANNY,HB,m,y,./images/GRANNYHB.png,,,,,,,,,,,,,,,,,,,,z,0,1.7018,,,,,,,,0,96,96,20,1
,,,,,,,,,,,,,,,,,616d163821d972bbc68ed26b,19,2022-02-12_12h44.32.661,lexical_decision_task_DD_L6,2021.2.3,Win32,60.0060006,,,,,,,,,,,,0.5415,1,,,,,,,,,,,,,,,,,,,,,,,,0.408333353,-0.403703717,0,0,0,,,,,,,BIRTH,C,z,y,./images/BIRTH.png,,,,,,,,,,,,,,,,,,,,z,1,0.5415,,,,,,,,0,97,97,121,1
,,,,,,,,,,,,,,,,,616d163821d972bbc68ed26b,19,2022-02-12_12h44.32.661,lexical_decision_task_DD_L6,2021.2.3,Win32,60.0060006,,,,,,,,,,,,0.9023,1,,,,,,,,,,,,,,,,,,,,,,,,0.408333353,-0.403703717,0,0,0,,,,,,,CANDLE,C,z,y,./images/CANDLE.png,,,,,,,,,,,,,,,,,,,,z,1,0.9023,,,,,,,,0,98,98,145,1
,,,,,,,,,,,,,,,,,616d163821d972bbc68ed26b,19,2022-02-12_12h44.32.661,lexical_decision_task_DD_L6,2021.2.3,Win32,60.0060006,,,,,,,,,,,,0.6017,0,,,,,,,,,,,,,,,,,,,,,,,,0.408333353,-0.403703717,0,0,0,,,,,,,SLOPE,LB,m,y,./images/SLOPELB.png,,,,,,,,,,,,,,,,,,,,z,0,0.6017,,,,,,,,0,99,99,30,1
,,,,,,,,,,,,,,,,,616d163821d972bbc68ed26b,19,2022-02-12_12h44.32.661,lexical_decision_task_DD_L6,2021.2.3,Win32,60.0060006,,,,,,,,,,,,0.7349,1,,,,,,,,,,,,,,,,,,,,,,,,0.408333353,-0.403703717,0,0,0,,,,,,,SWEAT,LB,z,y,./images/SWEATLB.png,,,,,,,,,,,,,,,,,,,,z,1,0.7349,,,,,,,,0,100,100,150,1
,,,,,,,,,,,,,,,,,616d163821d972bbc68ed26b,19,2022-02-12_12h44.32.661,lexical_decision_task_DD_L6,2021.2.3,Win32,60.0060006,,,,,,,,,,,,0.6473,1,,,,,,,,,,,,,,,,,,,,,,,,0.408333353,-0.403703717,0,0,0,,,,,,,INFANT,C,z,y,./images/INFANT.png,,,,,,,,,,,,,,,,,,,,z,1,0.6473,,,,,,,,0,101,101,160,1
,,,,,,,,,,,,,,,,,616d163821d972bbc68ed26b,19,2022-02-12_12h44.32.661,lexical_decision_task_DD_L6,2021.2.3,Win32,60.0060006,,,,,,,,,,,,1.1016,1,,,,,,,,,,,,,,,,,,,,,,,,0.408333353,-0.403703717,0,0,0,,,,,,,COUCH,HB,z,y,./images/COUCHHB.png,,,,,,,,,,,,,,,,,,,,z,1,1.1016,,,,,,,,0,102,102,161,1
,,,,,,,,,,,,,,,,,616d163821d972bbc68ed26b,19,2022-02-12_12h44.32.661,lexical_decision_task_DD_L6,2021.2.3,Win32,60.0060006,,,,,,,,,,,,1.2612,0,,,,,,,,,,,,,,,,,,,,,,,,0.408333353,-0.403703717,0,0,0,,,,,,,GLOVE,C,m,y,./images/GLOVE.png,,,,,,,,,,,,,,,,,,,,z,0,1.2612,,,,,,,,0,103,103,73,1
,,,,,,,,,,,,,,,,,616d163821d972bbc68ed26b,19,2022-02-12_12h44.32.661,lexical_decision_task_DD_L6,2021.2.3,Win32,60.0060006,,,,,,,,,,,,1.2795,1,,,,,,,,,,,,,,,,,,,,,,,,0.408333353,-0.403703717,0,0,0,,,,,,,BOXER,C,m,y,./images/BOXER.png,,,,,,,,,,,,,,,,,,,,m,1,1.2795,,,,,,,,0,104,104,4,1
,,,,,,,,,,,,,,,,,616d163821d972bbc68ed26b,19,2022-02-12_12h44.32.661,lexical_decision_task_DD_L6,2021.2.3,Win32,60.0060006,,,,,,,,,,,,1.4284,1,,,,,,,,,,,,,,,,,,,,,,,,0.408333353,-0.403703717,0,0,0,,,,,,,SUNSET,C,z,y,./images/SUNSET.png,,,,,,,,,,,,,,,,,,,,z,1,1.4284,,,,,,,,0,105,105,166,1
,,,,,,,,,,,,,,,,,616d163821d972bbc68ed26b,19,2022-02-12_12h44.32.661,lexical_decision_task_DD_L6,2021.2.3,Win32,60.0060006,,,,,,,,,,,,0.8055,1,,,,,,,,,,,,,,,,,,,,,,,,0.408333353,-0.403703717,0,0,0,,,,,,,BUNNY,C,m,y,./images/BUNNY.png,,,,,,,,,,,,,,,,,,,,m,1,0.8055,,,,,,,,0,106,106,13,1
,,,,,,,,,,,,,,,,,616d163821d972bbc68ed26b,19,2022-02-12_12h44.32.661,lexical_decision_task_DD_L6,2021.2.3,Win32,60.0060006,,,,,,,,,,,,0.6486,1,,,,,,,,,,,,,,,,,,,,,,,,0.408333353,-0.403703717,0,0,0,,,,,,,DRILL,LB,m,y,./images/DRILLLB.png,,,,,,,,,,,,,,,,,,,,m,1,0.6486,,,,,,,,0,107,107,81,1
,,,,,,,,,,,,,,,,,616d163821d972bbc68ed26b,19,2022-02-12_12h44.32.661,lexical_decision_task_DD_L6,2021.2.3,Win32,60.0060006,,,,,,,,,,,,0.9171,1,,,,,,,,,,,,,,,,,,,,,,,,0.408333353,-0.403703717,0,0,0,,,,,,,CRATER,LB,m,y,./images/CRATERLB.png,,,,,,,,,,,,,,,,,,,,m,1,0.9171,,,,,,,,0,108,108,3,1
,,,,,,,,,,,,,,,,,616d163821d972bbc68ed26b,19,2022-02-12_12h44.32.661,lexical_decision_task_DD_L6,2021.2.3,Win32,60.0060006,,,,,,,,,,,,1.1825,1,,,,,,,,,,,,,,,,,,,,,,,,0.408333353,-0.403703717,0,0,0,,,,,,,PLANK,C,z,y,./images/PLANK.png,,,,,,,,,,,,,,,,,,,,z,1,1.1825,,,,,,,,0,109,109,85,1
,,,,,,,,,,,,,,,,,616d163821d972bbc68ed26b,19,2022-02-12_12h44.32.661,lexical_decision_task_DD_L6,2021.2.3,Win32,60.0060006,,,,,,,,,,,,0.7131,1,,,,,,,,,,,,,,,,,,,,,,,,0.408333353,-0.403703717,0,0,0,,,,,,,GRAPE,C,m,y,./images/GRAPE.png,,,,,,,,,,,,,,,,,,,,m,1,0.7131,,,,,,,,0,110,110,16,1
,,,,,,,,,,,,,,,,,616d163821d972bbc68ed26b,19,2022-02-12_12h44.32.661,lexical_decision_task_DD_L6,2021.2.3,Win32,60.0060006,,,,,,,,,,,,0.7097,0,,,,,,,,,,,,,,,,,,,,,,,,0.408333353,-0.403703717,0,0,0,,,,,,,STOOL,C,m,y,./images/STOOL.png,,,,,,,,,,,,,,,,,,,,z,0,0.7097,,,,,,,,0,111,111,43,1
,,,,,,,,,,,,,,,,,616d163821d972bbc68ed26b,19,2022-02-12_12h44.32.661,lexical_decision_task_DD_L6,2021.2.3,Win32,60.0060006,,,,,,,,,,,,0.9105,0,,,,,,,,,,,,,,,,,,,,,,,,0.408333353,-0.403703717,0,0,0,,,,,,,BUBBLE,HB,m,y,./images/BUBBLEHB.png,,,,,,,,,,,,,,,,,,,,z,0,0.9105,,,,,,,,0,112,112,71,1
,,,,,,,,,,,,,,,,,616d163821d972bbc68ed26b,19,2022-02-12_12h44.32.661,lexical_decision_task_DD_L6,2021.2.3,Win32,60.0060006,,,,,,,,,,,,1.059,1,,,,,,,,,,,,,,,,,,,,,,,,0.408333353,-0.403703717,0,0,0,,,,,,,LADDER,HB,z,y,./images/LADDERHB.png,,,,,,,,,,,,,,,,,,,,z,1,1.059,,,,,,,,0,113,113,122,1
,,,,,,,,,,,,,,,,,616d163821d972bbc68ed26b,19,2022-02-12_12h44.32.661,lexical_decision_task_DD_L6,2021.2.3,Win32,60.0060006,,,,,,,,,,,,0.6367,0,,,,,,,,,,,,,,,,,,,,,,,,0.408333353,-0.403703717,0,0,0,,,,,,,FLESH,LB,m,y,./images/FLESHLB.png,,,,,,,,,,,,,,,,,,,,z,0,0.6367,,,,,,,,0,114,114,24,1
,,,,,,,,,,,,,,,,,616d163821d972bbc68ed26b,19,2022-02-12_12h44.32.661,lexical_decision_task_DD_L6,2021.2.3,Win32,60.0060006,,,,,,,,,,,,0.561,1,,,,,,,,,,,,,,,,,,,,,,,,0.408333353,-0.403703717,0,0,0,,,,,,,RAZOR,C,m,y,./images/RAZOR.png,,,,,,,,,,,,,,,,,,,,m,1,0.561,,,,,,,,0,115,115,34,1
,,,,,,,,,,,,,,,,,616d163821d972bbc68ed26b,19,2022-02-12_12h44.32.661,lexical_decision_task_DD_L6,2021.2.3,Win32,60.0060006,,,,,,,,,,,,0.5292,1,,,,,,,,,,,,,,,,,,,,,,,,0.408333353,-0.403703717,0,0,0,,,,,,,MIRROR,LB,z,y,./images/MIRRORLB.png,,,,,,,,,,,,,,,,,,,,z,1,0.5292,,,,,,,,0,116,116,147,1
,,,,,,,,,,,,,,,,,616d163821d972bbc68ed26b,19,2022-02-12_12h44.32.661,lexical_decision_task_DD_L6,2021.2.3,Win32,60.0060006,,,,,,,,,,,,0.5764,1,,,,,,,,,,,,,,,,,,,,,,,,0.408333353,-0.403703717,0,0,0,,,,,,,WRIST,C,z,y,./images/WRIST.png,,,,,,,,,,,,,,,,,,,,z,1,0.5764,,,,,,,,0,117,117,109,1
,,,,,,,,,,,,,,,,,616d163821d972bbc68ed26b,19,2022-02-12_12h44.32.661,lexical_decision_task_DD_L6,2021.2.3,Win32,60.0060006,,,,,,,,,,,,0.5491,0,,,,,,,,,,,,,,,,,,,,,,,,0.408333353,-0.403703717,0,0,0,,,,,,,CHALK,C,m,y,./images/CHALK.png,,,,,,,,,,,,,,,,,,,,z,0,0.5491,,,,,,,,0,118,118,25,1
,,,,,,,,,,,,,,,,,616d163821d972bbc68ed26b,19,2022-02-12_12h44.32.661,lexical_decision_task_DD_L6,2021.2.3,Win32,60.0060006,,,,,,,,,,,,0.6136,1,,,,,,,,,,,,,,,,,,,,,,,,0.408333353,-0.403703717,0,0,0,,,,,,,GREASE,LB,z,y,./images/GREASELB.png,,,,,,,,,,,,,,,,,,,,z,1,0.6136,,,,,,,,0,119,119,99,1
,,,,,,,,,,,,,,,,,616d163821d972bbc68ed26b,19,2022-02-12_12h44.32.661,lexical_decision_task_DD_L6,2021.2.3,Win32,60.0060006,,,,,,,,,,,,0.4533,1,,,,,,,,,,,,,,,,,,,,,,,,0.408333353,-0.403703717,0,0,0,,,,,,,TOMATO,LB,z,y,./images/TOMATOLB.png,,,,,,,,,,,,,,,,,,,,z,1,0.4533,,,,,,,,0,120,120,84,1
,,,,,,,,,,,,,,,,,616d163821d972bbc68ed26b,19,2022-02-12_12h44.32.661,lexical_decision_task_DD_L6,2021.2.3,Win32,60.0060006,,,,,,,,,,,,0.5293,0,,,,,,,,,,,,,,,,,,,,,,,,0.408333353,-0.403703717,0,0,0,,,,,,,PLANET,HB,m,y,./images/PLANETHB.png,,,,,,,,,,,,,,,,,,,,z,0,0.5293,,,,,,,,0,121,121,80,1
,,,,,,,,,,,,,,,,,616d163821d972bbc68ed26b,19,2022-02-12_12h44.32.661,lexical_decision_task_DD_L6,2021.2.3,Win32,60.0060006,,,,,,,,,,,,0.611,0,,,,,,,,,,,,,,,,,,,,,,,,0.408333353,-0.403703717,0,0,0,,,,,,,ARTIST,C,m,y,./images/ARTIST.png,,,,,,,,,,,,,,,,,,,,z,0,0.611,,,,,,,,0,122,122,61,1
,,,,,,,,,,,,,,,,,616d163821d972bbc68ed26b,19,2022-02-12_12h44.32.661,lexical_decision_task_DD_L6,2021.2.3,Win32,60.0060006,,,,,,,,,,,,0.4984,1,,,,,,,,,,,,,,,,,,,,,,,,0.408333353,-0.403703717,0,0,0,,,,,,,KITTEN,LB,z,y,./images/KITTENLB.png,,,,,,,,,,,,,,,,,,,,z,1,0.4984,,,,,,,,0,123,123,129,1
,,,,,,,,,,,,,,,,,616d163821d972bbc68ed26b,19,2022-02-12_12h44.32.661,lexical_decision_task_DD_L6,2021.2.3,Win32,60.0060006,,,,,,,,,,,,0.5887,1,,,,,,,,,,,,,,,,,,,,,,,,0.408333353,-0.403703717,0,0,0,,,,,,,JAGUAR,LB,z,y,./images/JAGUARLB.png,,,,,,,,,,,,,,,,,,,,z,1,0.5887,,,,,,,,0,124,124,102,1
,,,,,,,,,,,,,,,,,616d163821d972bbc68ed26b,19,2022-02-12_12h44.32.661,lexical_decision_task_DD_L6,2021.2.3,Win32,60.0060006,,,,,,,,,,,,0.545,1,,,,,,,,,,,,,,,,,,,,,,,,0.408333353,-0.403703717,0,0,0,space,,,,,,STORM,LB,z,y,./images/STORMLB.png,0.6467,,,,,,,,,,,,,,,,,,,z,1,0.545,,,,,,,,0,125,125,114,1
,,,,,,,,,,,,,,,,,616d163821d972bbc68ed26b,19,2022-02-12_12h44.32.661,lexical_decision_task_DD_L6,2021.2.3,Win32,60.0060006,,,,,,,,,,,,0.582,1,,,,,,,,,,,,,,,,,,,,,,,,0.408333353,-0.403703717,0,0,0,,,,,,,PEBBLE,C,m,y,./images/PEBBLE.png,,,,,,,,,,,,,,,,,,,,m,1,0.582,,,,,,,,0,126,126,82,1
,,,,,,,,,,,,,,,,,616d163821d972bbc68ed26b,19,2022-02-12_12h44.32.661,lexical_decision_task_DD_L6,2021.2.3,Win32,60.0060006,,,,,,,,,,,,0.5068,1,,,,,,,,,,,,,,,,,,,,,,,,0.408333353,-0.403703717,0,0,0,,,,,,,PEARL,C,z,y,./images/PEARL.png,,,,,,,,,,,,,,,,,,,,z,1,0.5068,,,,,,,,0,127,127,130,1
,,,,,,,,,,,,,,,,,616d163821d972bbc68ed26b,19,2022-02-12_12h44.32.661,lexical_decision_task_DD_L6,2021.2.3,Win32,60.0060006,,,,,,,,,,,,0.5624,1,,,,,,,,,,,,,,,,,,,,,,,,0.408333353,-0.403703717,0,0,0,,,,,,,CANYON,C,z,y,./images/CANYON.png,,,,,,,,,,,,,,,,,,,,z,1,0.5624,,,,,,,,0,128,128,118,1
,,,,,,,,,,,,,,,,,616d163821d972bbc68ed26b,19,2022-02-12_12h44.32.661,lexical_decision_task_DD_L6,2021.2.3,Win32,60.0060006,,,,,,,,,,,,0.4938,0,,,,,,,,,,,,,,,,,,,,,,,,0.408333353,-0.403703717,0,0,0,,,,,,,BRIDE,C,m,y,./images/BRIDE.png,,,,,,,,,,,,,,,,,,,,z,0,0.4938,,,,,,,,0,129,129,64,1
,,,,,,,,,,,,,,,,,616d163821d972bbc68ed26b,19,2022-02-12_12h44.32.661,lexical_decision_task_DD_L6,2021.2.3,Win32,60.0060006,,,,,,,,,,,,0.6539,1,,,,,,,,,,,,,,,,,,,,,,,,0.408333353,-0.403703717,0,0,0,,,,,,,PENCE,C,z,y,./images/PENCE.png,,,,,,,,,,,,,,,,,,,,z,1,0.6539,,,,,,,,0,130,130,100,1
,,,,,,,,,,,,,,,,,616d163821d972bbc68ed26b,19,2022-02-12_12h44.32.661,lexical_decision_task_DD_L6,2021.2.3,Win32,60.0060006,,,,,,,,,,,,0.505,1,,,,,,,,,,,,,,,,,,,,,,,,0.408333353,-0.403703717,0,0,0,,,,,,,TULIP,HB,z,y,./images/TULIPHB.png,,,,,,,,,,,,,,,,,,,,z,1,0.505,,,,,,,,0,131,131,92,1
,,,,,,,,,,,,,,,,,616d163821d972bbc68ed26b,19,2022-02-12_12h44.32.661,lexical_decision_task_DD_L6,2021.2.3,Win32,60.0060006,,,,,,,,,,,,0.6513,1,,,,,,,,,,,,,,,,,,,,,,,,0.408333353,-0.403703717,0,0,0,,,,,,,SAUCE,LB,m,y,./images/SAUCELB.png,,,,,,,,,,,,,,,,,,,,m,1,0.6513,,,,,,,,0,132,132,51,1
,,,,,,,,,,,,,,,,,616d163821d972bbc68ed26b,19,2022-02-12_12h44.32.661,lexical_decision_task_DD_L6,2021.2.3,Win32,60.0060006,,,,,,,,,,,,0.4395,0,,,,,,,,,,,,,,,,,,,,,,,,0.408333353,-0.403703717,0,0,0,,,,,,,LLAMA,HB,m,y,./images/LLAMAHB.png,,,,,,,,,,,,,,,,,,,,z,0,0.4395,,,,,,,,0,133,133,35,1
