key_resp.keys,instr_done_touch.x,instr_done_touch.y,instr_done_touch.leftButton,instr_done_touch.midButton,instr_done_touch.rightButton,instr_done_touch.clicked_name,instruction_pages.thisRepN,instruction_pages.thisTrialN,instruction_pages.thisN,instruction_pages.thisIndex,instruction_pages.ran,pageN,phase,instruct_text,has_image,instruct_image,participant,age,date,expName,psychopyVersion,OS,frameRate,response.keys,response.corr,response.rt,touch_resp.x,touch_resp.y,touch_resp.leftButton,touch_resp.midButton,touch_resp.rightButton,touch_resp.time,touch_resp.clicked_name,rt,corr,practrials.thisRepN,practrials.thisTrialN,practrials.thisN,practrials.thisIndex,practrials.ran,TrialID,Target,corrAns,end_of_practice_trials_pages.thisRepN,end_of_practice_trials_pages.thisTrialN,end_of_practice_trials_pages.thisN,end_of_practice_trials_pages.thisIndex,end_of_practice_trials_pages.ran,key_resp_2.keys,key_resp_2.corr,key_resp_2.rt,targ_click.x,targ_click.y,targ_click.leftButton,targ_click.midButton,targ_click.rightButton,targ_click.time,targ_click.clicked_name,break_done_touch.x,break_done_touch.y,break_done_touch.leftButton,break_done_touch.midButton,break_done_touch.rightButton,break_done_keyboard.keys,maintrials.thisRepN,maintrials.thisTrialN,maintrials.thisN,maintrials.thisIndex,maintrials.ran,string,blur,study,lex,stim_path,break_done_touch.clicked_name,test_instructions.thisRepN,test_instructions.thisTrialN,test_instructions.thisN,test_instructions.thisIndex,test_instructions.ran,key_resp_3.keys,key_resp_3.corr,key_resp_3.rt,test_click.x,test_click.y,test_click.leftButton,test_click.midButton,test_click.rightButton,test_click.time,test_click.clicked_name,test_phase.thisRepN,test_phase.thisTrialN,test_phase.thisN,test_phase.thisIndex,test_phase.ran
,0.0966008,-0.417186127,1,0,0,instr_done_button,0,0,0,0,1,1,instructions,"INSTRUCTIONS
At the start of each trial, look at the plus sign  (+) in the center of the screen.  This tells you that a trial is about to begin and where to look. Second, the plus sign will disappear and a string of letters will appear. Your task is to determine if the string of letters is a word or not. If the item is a word press the M key (on keyboard)  or touch the word button (phone/tablet).  If the item is not a word,  press the  Z key (on keyboard)  or touch the nonword button (on phone/tablet). 
Press the space bar or touch  continue.",0,,198688,19,2022-01-28_16h09.47.299,lexical_decision_task_DD_L3,2021.2.3,MacIntel,59.97361161,,,,,,,,,,,,,,,,,,,,,,,,,,,,,,,,,,,,,,,,,,,,,,,,,,,,,,,,,,,,,,,,,,,,,,,,
,0.097518158,-0.40252388,1,0,0,instr_done_button,0,1,1,1,1,2,instructions,"If your device has a keyboard, press the 'Z' key for nonwords and the 'M' key for words.





Press the space bar or touch the button below to continue.",0,keyboard-example.gif,198688,19,2022-01-28_16h09.47.299,lexical_decision_task_DD_L3,2021.2.3,MacIntel,59.97361161,,,,,,,,,,,,,,,,,,,,,,,,,,,,,,,,,,,,,,,,,,,,,,,,,,,,,,,,,,,,,,,,,,,,,,,,
,0.097518158,-0.40314888,1,0,0,instr_done_button,0,2,2,2,1,3,instructions,"If you are using a touchscreen only device, use the buttons on the screen. Do not use the mouse.





Press the space bar or touch the button below to continue.",0,touchscreen-example.gif,198688,19,2022-01-28_16h09.47.299,lexical_decision_task_DD_L3,2021.2.3,MacIntel,59.97361161,,,,,,,,,,,,,,,,,,,,,,,,,,,,,,,,,,,,,,,,,,,,,,,,,,,,,,,,,,,,,,,,,,,,,,,,
,0.097230148,-0.40314888,1,0,0,instr_done_button,0,3,3,3,1,4,instructions,"It is very important that you respond as quickly and accurately as possible, as each letter string will only be on the screen for two seconds. If you do not respond within this time, the message 'Too slow!' will be displayed and the experiment will progress to the next letter string. The first 20 trials will be practice trials and you will receive feedback on your answers. 

Press the space bar or touch the button below to start the practice trials.",0,,198688,19,2022-01-28_16h09.47.299,lexical_decision_task_DD_L3,2021.2.3,MacIntel,59.97361161,,,,,,,,,,,,,,,,,,,,,,,,,,,,,,,,,,,,,,,,,,,,,,,,,,,,,,,,,,,,,,,,,,,,,,,,
,,,,,,,,,,,,,,,,,198688,19,2022-01-28_16h09.47.299,lexical_decision_task_DD_L3,2021.2.3,MacIntel,59.97361161,z,0,1.609,,,,,,,,1.609,0,0,0,0,6,1,1001,ZOMBIE,m,,,,,,,,,,,,,,,,,,,,,,,,,,,,,,,,,,,,,,,,,,,,,,,,,,,,
,,,,,,,,,,,,,,,,,198688,19,2022-01-28_16h09.47.299,lexical_decision_task_DD_L3,2021.2.3,MacIntel,59.97361161,m,0,1.0147,,,,,,,,1.0147,0,0,1,1,12,1,1001,SPRINY,z,,,,,,,,,,,,,,,,,,,,,,,,,,,,,,,,,,,,,,,,,,,,,,,,,,,,
,,,,,,,,,,,,,,,,,198688,19,2022-01-28_16h09.47.299,lexical_decision_task_DD_L3,2021.2.3,MacIntel,59.97361161,m,1,1.1814,,,,,,,,1.1814,1,0,2,2,2,1,1001,ALMOND,m,,,,,,,,,,,,,,,,,,,,,,,,,,,,,,,,,,,,,,,,,,,,,,,,,,,,
,,,,,,,,,,,,,,,,,198688,19,2022-01-28_16h09.47.299,lexical_decision_task_DD_L3,2021.2.3,MacIntel,59.97361161,m,1,0.8476,,,,,,,,0.8476,1,0,3,3,3,1,1001,MATRIX,m,,,,,,,,,,,,,,,,,,,,,,,,,,,,,,,,,,,,,,,,,,,,,,,,,,,,
,,,,,,,,,,,,,,,,,198688,19,2022-01-28_16h09.47.299,lexical_decision_task_DD_L3,2021.2.3,MacIntel,59.97361161,m,1,0.7829,,,,,,,,0.7829,1,0,4,4,0,1,1001,UTOPIA,m,,,,,,,,,,,,,,,,,,,,,,,,,,,,,,,,,,,,,,,,,,,,,,,,,,,,
,,,,,,,,,,,,,,,,,198688,19,2022-01-28_16h09.47.299,lexical_decision_task_DD_L3,2021.2.3,MacIntel,59.97361161,z,1,1.1471,,,,,,,,1.1471,1,0,5,5,9,1,1001,FARINY,z,,,,,,,,,,,,,,,,,,,,,,,,,,,,,,,,,,,,,,,,,,,,,,,,,,,,
,,,,,,,,,,,,,,,,,198688,19,2022-01-28_16h09.47.299,lexical_decision_task_DD_L3,2021.2.3,MacIntel,59.97361161,z,1,0.8987,,,,,,,,0.8987,1,0,6,6,8,1,1001,ASLERT,z,,,,,,,,,,,,,,,,,,,,,,,,,,,,,,,,,,,,,,,,,,,,,,,,,,,,
,,,,,,,,,,,,,,,,,198688,19,2022-01-28_16h09.47.299,lexical_decision_task_DD_L3,2021.2.3,MacIntel,59.97361161,z,1,0.7178,,,,,,,,0.7178,1,0,7,7,15,1,1001,WHAISE,z,,,,,,,,,,,,,,,,,,,,,,,,,,,,,,,,,,,,,,,,,,,,,,,,,,,,
,,,,,,,,,,,,,,,,,198688,19,2022-01-28_16h09.47.299,lexical_decision_task_DD_L3,2021.2.3,MacIntel,59.97361161,m,1,0.5826,,,,,,,,0.5826,1,0,8,8,5,1,1001,OBTAIN,m,,,,,,,,,,,,,,,,,,,,,,,,,,,,,,,,,,,,,,,,,,,,,,,,,,,,
,,,,,,,,,,,,,,,,,198688,19,2022-01-28_16h09.47.299,lexical_decision_task_DD_L3,2021.2.3,MacIntel,59.97361161,z,1,0.7641,,,,,,,,0.7641,1,0,9,9,13,1,1001,ROUPET,z,,,,,,,,,,,,,,,,,,,,,,,,,,,,,,,,,,,,,,,,,,,,,,,,,,,,
,,,,,,,,,,,,,,,,,198688,19,2022-01-28_16h09.47.299,lexical_decision_task_DD_L3,2021.2.3,MacIntel,59.97361161,z,1,0.798,,,,,,,,0.798,1,0,10,10,11,1,1001,RASHET,z,,,,,,,,,,,,,,,,,,,,,,,,,,,,,,,,,,,,,,,,,,,,,,,,,,,,
,,,,,,,,,,,,,,,,,198688,19,2022-01-28_16h09.47.299,lexical_decision_task_DD_L3,2021.2.3,MacIntel,59.97361161,m,1,0.7313,,,,,,,,0.7313,1,0,11,11,7,1,1001,VOLUME,m,,,,,,,,,,,,,,,,,,,,,,,,,,,,,,,,,,,,,,,,,,,,,,,,,,,,
,,,,,,,,,,,,,,,,,198688,19,2022-01-28_16h09.47.299,lexical_decision_task_DD_L3,2021.2.3,MacIntel,59.97361161,z,1,0.7345,,,,,,,,0.7345,1,0,12,12,14,1,1001,THRALE,z,,,,,,,,,,,,,,,,,,,,,,,,,,,,,,,,,,,,,,,,,,,,,,,,,,,,
,,,,,,,,,,,,,,,,,198688,19,2022-01-28_16h09.47.299,lexical_decision_task_DD_L3,2021.2.3,MacIntel,59.97361161,m,0,1.1814,,,,,,,,1.1814,0,0,13,13,10,1,1001,INLADE,z,,,,,,,,,,,,,,,,,,,,,,,,,,,,,,,,,,,,,,,,,,,,,,,,,,,,
,,,,,,,,,,,,,,,,,198688,19,2022-01-28_16h09.47.299,lexical_decision_task_DD_L3,2021.2.3,MacIntel,59.97361161,m,1,0.7548,,,,,,,,0.7548,1,0,14,14,1,1,1001,ADJUST,m,,,,,,,,,,,,,,,,,,,,,,,,,,,,,,,,,,,,,,,,,,,,,,,,,,,,
,,,,,,,,,,,,,,,,,198688,19,2022-01-28_16h09.47.299,lexical_decision_task_DD_L3,2021.2.3,MacIntel,59.97361161,m,1,1.3691,,,,,,,,1.3691,1,0,15,15,4,1,1001,SQUEAK,m,,,,,,,,,,,,,,,,,,,,,,,,,,,,,,,,,,,,,,,,,,,,,,,,,,,,
,0.101651154,-0.418568802,1,0,0,instr_done_button,,,,,,1,end_of_practice,"You have completed the practice trials. During the experimental trials, you will not receive feedback. 
Before you begin, please ensure that you are in a comfortable and quiet location and will not be disturbed for about 15 minutes, as we cannot use your data if you do not complete all the trials. 
 When you are ready to start the experimental trials, please press space or touch the button below.",,,198688,19,2022-01-28_16h09.47.299,lexical_decision_task_DD_L3,2021.2.3,MacIntel,59.97361161,,,,,,,,,,,,,,,,,,,,,0,0,0,0,1,,,,,,,,,,,,,,,,,,,,,,,,,,,,,,,,,,,,,,,,,,,,,,,
,,,,,,,,,,,,,,,,,198688,19,2022-01-28_16h09.47.299,lexical_decision_task_DD_L3,2021.2.3,MacIntel,59.97361161,,,,,,,,,,,2.9334,1,,,,,,,,,,,,,,z,1,2.9334,,,,,,,,0.153513107,-0.429387207,0,0,0,,0,0,0,151,1,TINKY,HB,old,z,./images/TINKYHB.png,,,,,,,,,,,,,,,,,,,,,
,,,,,,,,,,,,,,,,,198688,19,2022-01-28_16h09.47.299,lexical_decision_task_DD_L3,2021.2.3,MacIntel,59.97361161,,,,,,,,,,,1.0312,1,,,,,,,,,,,,,,m,1,1.0312,,,,,,,,0.153513107,-0.429387207,0,0,0,,0,1,1,60,1,TWINS,LB,old,m,./images/TWINSLB.png,,,,,,,,,,,,,,,,,,,,,
,,,,,,,,,,,,,,,,,198688,19,2022-01-28_16h09.47.299,lexical_decision_task_DD_L3,2021.2.3,MacIntel,59.97361161,,,,,,,,,,,1.2978,1,,,,,,,,,,,,,,z,1,1.2978,,,,,,,,0.153513107,-0.429387207,0,0,0,,0,2,2,109,1,BURGE,HB,old,z,./images/BURGEHB.png,,,,,,,,,,,,,,,,,,,,,
,,,,,,,,,,,,,,,,,198688,19,2022-01-28_16h09.47.299,lexical_decision_task_DD_L3,2021.2.3,MacIntel,59.97361161,,,,,,,,,,,0.7476,1,,,,,,,,,,,,,,m,1,0.7476,,,,,,,,0.153513107,-0.429387207,0,0,0,,0,3,3,39,1,SHELF,LB,old,m,./images/SHELFLB.png,,,,,,,,,,,,,,,,,,,,,
,,,,,,,,,,,,,,,,,198688,19,2022-01-28_16h09.47.299,lexical_decision_task_DD_L3,2021.2.3,MacIntel,59.97361161,,,,,,,,,,,0.6784,1,,,,,,,,,,,,,,m,1,0.6784,,,,,,,,0.153513107,-0.429387207,0,0,0,,0,4,4,28,1,FALCON,C,old,m,./images/FALCON.png,,,,,,,,,,,,,,,,,,,,,
,,,,,,,,,,,,,,,,,198688,19,2022-01-28_16h09.47.299,lexical_decision_task_DD_L3,2021.2.3,MacIntel,59.97361161,,,,,,,,,,,0.7137,1,,,,,,,,,,,,,,m,1,0.7137,,,,,,,,0.153513107,-0.429387207,0,0,0,,0,5,5,12,1,SHORE,LB,old,m,./images/SHORELB.png,,,,,,,,,,,,,,,,,,,,,
,,,,,,,,,,,,,,,,,198688,19,2022-01-28_16h09.47.299,lexical_decision_task_DD_L3,2021.2.3,MacIntel,59.97361161,,,,,,,,,,,1.1109,1,,,,,,,,,,,,,,z,1,1.1109,,,,,,,,0.153513107,-0.429387207,0,0,0,,0,6,6,90,1,NEAST,C,old,z,./images/NEAST.png,,,,,,,,,,,,,,,,,,,,,
,,,,,,,,,,,,,,,,,198688,19,2022-01-28_16h09.47.299,lexical_decision_task_DD_L3,2021.2.3,MacIntel,59.97361161,,,,,,,,,,,0.8481,1,,,,,,,,,,,,,,m,1,0.8481,,,,,,,,0.153513107,-0.429387207,0,0,0,,0,7,7,34,1,CANYON,C,old,m,./images/CANYON.png,,,,,,,,,,,,,,,,,,,,,
,,,,,,,,,,,,,,,,,198688,19,2022-01-28_16h09.47.299,lexical_decision_task_DD_L3,2021.2.3,MacIntel,59.97361161,,,,,,,,,,,1.816,1,,,,,,,,,,,,,,z,1,1.816,,,,,,,,0.153513107,-0.429387207,0,0,0,,0,8,8,130,1,CRILL,HB,old,z,./images/CRILLHB.png,,,,,,,,,,,,,,,,,,,,,
,,,,,,,,,,,,,,,,,198688,19,2022-01-28_16h09.47.299,lexical_decision_task_DD_L3,2021.2.3,MacIntel,59.97361161,,,,,,,,,,,0.729,1,,,,,,,,,,,,,,m,1,0.729,,,,,,,,0.153513107,-0.429387207,0,0,0,,0,9,9,19,1,DOUGH,C,old,m,./images/DOUGH.png,,,,,,,,,,,,,,,,,,,,,
,,,,,,,,,,,,,,,,,198688,19,2022-01-28_16h09.47.299,lexical_decision_task_DD_L3,2021.2.3,MacIntel,59.97361161,,,,,,,,,,,1.4155,1,,,,,,,,,,,,,,z,1,1.4155,,,,,,,,0.153513107,-0.429387207,0,0,0,,0,10,10,153,1,CLUPS,C,old,z,./images/CLUPS.png,,,,,,,,,,,,,,,,,,,,,
,,,,,,,,,,,,,,,,,198688,19,2022-01-28_16h09.47.299,lexical_decision_task_DD_L3,2021.2.3,MacIntel,59.97361161,,,,,,,,,,,0.9011,1,,,,,,,,,,,,,,m,1,0.9011,,,,,,,,0.153513107,-0.429387207,0,0,0,,0,11,11,54,1,TRIPOD,LB,old,m,./images/TRIPODLB.png,,,,,,,,,,,,,,,,,,,,,
,,,,,,,,,,,,,,,,,198688,19,2022-01-28_16h09.47.299,lexical_decision_task_DD_L3,2021.2.3,MacIntel,59.97361161,,,,,,,,,,,1.2973,1,,,,,,,,,,,,,,z,1,1.2973,,,,,,,,0.153513107,-0.429387207,0,0,0,,0,12,12,139,1,BLEAR,HB,old,z,./images/BLEARHB.png,,,,,,,,,,,,,,,,,,,,,
,,,,,,,,,,,,,,,,,198688,19,2022-01-28_16h09.47.299,lexical_decision_task_DD_L3,2021.2.3,MacIntel,59.97361161,,,,,,,,,,,0.7536,1,,,,,,,,,,,,,,m,1,0.7536,,,,,,,,0.153513107,-0.429387207,0,0,0,,0,13,13,56,1,PACKET,HB,old,m,./images/PACKETHB.png,,,,,,,,,,,,,,,,,,,,,
,,,,,,,,,,,,,,,,,198688,19,2022-01-28_16h09.47.299,lexical_decision_task_DD_L3,2021.2.3,MacIntel,59.97361161,,,,,,,,,,,0.9274,1,,,,,,,,,,,,,,m,1,0.9274,,,,,,,,0.153513107,-0.429387207,0,0,0,,0,14,14,58,1,BABOON,C,old,m,./images/BABOON.png,,,,,,,,,,,,,,,,,,,,,
,,,,,,,,,,,,,,,,,198688,19,2022-01-28_16h09.47.299,lexical_decision_task_DD_L3,2021.2.3,MacIntel,59.97361161,,,,,,,,,,,0.931,1,,,,,,,,,,,,,,z,1,0.931,,,,,,,,0.153513107,-0.429387207,0,0,0,,0,15,15,141,1,PLEET,C,old,z,./images/PLEET.png,,,,,,,,,,,,,,,,,,,,,
,,,,,,,,,,,,,,,,,198688,19,2022-01-28_16h09.47.299,lexical_decision_task_DD_L3,2021.2.3,MacIntel,59.97361161,,,,,,,,,,,0.6831,1,,,,,,,,,,,,,,m,1,0.6831,,,,,,,,0.153513107,-0.429387207,0,0,0,,0,16,16,42,1,FOLDER,LB,old,m,./images/FOLDERLB.png,,,,,,,,,,,,,,,,,,,,,
,,,,,,,,,,,,,,,,,198688,19,2022-01-28_16h09.47.299,lexical_decision_task_DD_L3,2021.2.3,MacIntel,59.97361161,,,,,,,,,,,1.1314,1,,,,,,,,,,,,,,m,1,1.1314,,,,,,,,0.153513107,-0.429387207,0,0,0,,0,17,17,5,1,PASTA,HB,old,m,./images/PASTAHB.png,,,,,,,,,,,,,,,,,,,,,
,,,,,,,,,,,,,,,,,198688,19,2022-01-28_16h09.47.299,lexical_decision_task_DD_L3,2021.2.3,MacIntel,59.97361161,,,,,,,,,,,0.7832,1,,,,,,,,,,,,,,z,1,0.7832,,,,,,,,0.153513107,-0.429387207,0,0,0,,0,18,18,149,1,VEASE,LB,old,z,./images/VEASELB.png,,,,,,,,,,,,,,,,,,,,,
,,,,,,,,,,,,,,,,,198688,19,2022-01-28_16h09.47.299,lexical_decision_task_DD_L3,2021.2.3,MacIntel,59.97361161,,,,,,,,,,,1.7328,1,,,,,,,,,,,,,,z,1,1.7328,,,,,,,,0.153513107,-0.429387207,0,0,0,,0,19,19,94,1,BLANS,HB,old,z,./images/BLANSHB.png,,,,,,,,,,,,,,,,,,,,,
,,,,,,,,,,,,,,,,,198688,19,2022-01-28_16h09.47.299,lexical_decision_task_DD_L3,2021.2.3,MacIntel,59.97361161,,,,,,,,,,,0.9488,1,,,,,,,,,,,,,,z,1,0.9488,,,,,,,,0.153513107,-0.429387207,0,0,0,,0,20,20,110,1,CRUNK,LB,old,z,./images/CRUNKLB.png,,,,,,,,,,,,,,,,,,,,,
,,,,,,,,,,,,,,,,,198688,19,2022-01-28_16h09.47.299,lexical_decision_task_DD_L3,2021.2.3,MacIntel,59.97361161,,,,,,,,,,,0.6155,1,,,,,,,,,,,,,,m,1,0.6155,,,,,,,,0.153513107,-0.429387207,0,0,0,,0,21,21,73,1,SNACK,C,old,m,./images/SNACK.png,,,,,,,,,,,,,,,,,,,,,
,,,,,,,,,,,,,,,,,198688,19,2022-01-28_16h09.47.299,lexical_decision_task_DD_L3,2021.2.3,MacIntel,59.97361161,,,,,,,,,,,0.7044,1,,,,,,,,,,,,,,z,1,0.7044,,,,,,,,0.153513107,-0.429387207,0,0,0,,0,22,22,89,1,DRIEK,LB,old,z,./images/DRIEKLB.png,,,,,,,,,,,,,,,,,,,,,
,,,,,,,,,,,,,,,,,198688,19,2022-01-28_16h09.47.299,lexical_decision_task_DD_L3,2021.2.3,MacIntel,59.97361161,,,,,,,,,,,1.2871,1,,,,,,,,,,,,,,m,1,1.2871,,,,,,,,0.153513107,-0.429387207,0,0,0,,0,23,23,77,1,COUCH,HB,old,m,./images/COUCHHB.png,,,,,,,,,,,,,,,,,,,,,
,,,,,,,,,,,,,,,,,198688,19,2022-01-28_16h09.47.299,lexical_decision_task_DD_L3,2021.2.3,MacIntel,59.97361161,,,,,,,,,,,1.5495,1,,,,,,,,,,,,,,z,1,1.5495,,,,,,,,0.153513107,-0.429387207,0,0,0,,0,24,24,127,1,NINDY,HB,old,z,./images/NINDYHB.png,,,,,,,,,,,,,,,,,,,,,
,,,,,,,,,,,,,,,,,198688,19,2022-01-28_16h09.47.299,lexical_decision_task_DD_L3,2021.2.3,MacIntel,59.97361161,,,,,,,,,,,0.9221,1,,,,,,,,,,,,,,z,1,0.9221,,,,,,,,0.153513107,-0.429387207,0,0,0,,0,25,25,125,1,MOOKY,LB,old,z,./images/MOOKYLB.png,,,,,,,,,,,,,,,,,,,,,
,,,,,,,,,,,,,,,,,198688,19,2022-01-28_16h09.47.299,lexical_decision_task_DD_L3,2021.2.3,MacIntel,59.97361161,,,,,,,,,,,1.7845,1,,,,,,,,,,,,,,m,1,1.7845,,,,,,,,0.153513107,-0.429387207,0,0,0,,0,26,26,71,1,PIMPLE,HB,old,m,./images/PIMPLEHB.png,,,,,,,,,,,,,,,,,,,,,
,,,,,,,,,,,,,,,,,198688,19,2022-01-28_16h09.47.299,lexical_decision_task_DD_L3,2021.2.3,MacIntel,59.97361161,,,,,,,,,,,1.2483,1,,,,,,,,,,,,,,z,1,1.2483,,,,,,,,0.153513107,-0.429387207,0,0,0,,0,27,27,163,1,GAMBA,HB,old,z,./images/GAMBAHB.png,,,,,,,,,,,,,,,,,,,,,
,,,,,,,,,,,,,,,,,198688,19,2022-01-28_16h09.47.299,lexical_decision_task_DD_L3,2021.2.3,MacIntel,59.97361161,,,,,,,,,,,0.8646,1,,,,,,,,,,,,,,z,1,0.8646,,,,,,,,0.153513107,-0.429387207,0,0,0,,0,28,28,144,1,NAIRY,C,old,z,./images/NAIRY.png,,,,,,,,,,,,,,,,,,,,,
,,,,,,,,,,,,,,,,,198688,19,2022-01-28_16h09.47.299,lexical_decision_task_DD_L3,2021.2.3,MacIntel,59.97361161,,,,,,,,,,,1.0346,0,,,,,,,,,,,,,,m,0,1.0346,,,,,,,,0.153513107,-0.429387207,0,0,0,,0,29,29,111,1,HOSSE,C,old,z,./images/HOSSE.png,,,,,,,,,,,,,,,,,,,,,
,,,,,,,,,,,,,,,,,198688,19,2022-01-28_16h09.47.299,lexical_decision_task_DD_L3,2021.2.3,MacIntel,59.97361161,,,,,,,,,,,0.9633,1,,,,,,,,,,,,,,m,1,0.9633,,,,,,,,0.153513107,-0.429387207,0,0,0,,0,30,30,70,1,URINE,C,old,m,./images/URINE.png,,,,,,,,,,,,,,,,,,,,,
,,,,,,,,,,,,,,,,,198688,19,2022-01-28_16h09.47.299,lexical_decision_task_DD_L3,2021.2.3,MacIntel,59.97361161,,,,,,,,,,,0.6015,1,,,,,,,,,,,,,,m,1,0.6015,,,,,,,,0.153513107,-0.429387207,0,0,0,,0,31,31,37,1,BIRTH,C,old,m,./images/BIRTH.png,,,,,,,,,,,,,,,,,,,,,
,,,,,,,,,,,,,,,,,198688,19,2022-01-28_16h09.47.299,lexical_decision_task_DD_L3,2021.2.3,MacIntel,59.97361161,,,,,,,,,,,0.5988,1,,,,,,,,,,,,,,z,1,0.5988,,,,,,,,0.153513107,-0.429387207,0,0,0,,0,32,32,96,1,KEAMS,C,old,z,./images/KEAMS.png,,,,,,,,,,,,,,,,,,,,,
,,,,,,,,,,,,,,,,,198688,19,2022-01-28_16h09.47.299,lexical_decision_task_DD_L3,2021.2.3,MacIntel,59.97361161,,,,,,,,,,,1.0137,1,,,,,,,,,,,,,,z,1,1.0137,,,,,,,,0.153513107,-0.429387207,0,0,0,,0,33,33,138,1,PLICE,C,old,z,./images/PLICE.png,,,,,,,,,,,,,,,,,,,,,
,,,,,,,,,,,,,,,,,198688,19,2022-01-28_16h09.47.299,lexical_decision_task_DD_L3,2021.2.3,MacIntel,59.97361161,,,,,,,,,,,1.6336,1,,,,,,,,,,,,,,z,1,1.6336,,,,,,,,0.153513107,-0.429387207,0,0,0,,0,34,34,91,1,SHENS,HB,old,z,./images/SHENSHB.png,,,,,,,,,,,,,,,,,,,,,
,,,,,,,,,,,,,,,,,198688,19,2022-01-28_16h09.47.299,lexical_decision_task_DD_L3,2021.2.3,MacIntel,59.97361161,,,,,,,,,,,1.1641,1,,,,,,,,,,,,,,z,1,1.1641,,,,,,,,0.153513107,-0.429387207,0,0,0,,0,35,35,120,1,RINED,C,old,z,./images/RINED.png,,,,,,,,,,,,,,,,,,,,,
,,,,,,,,,,,,,,,,,198688,19,2022-01-28_16h09.47.299,lexical_decision_task_DD_L3,2021.2.3,MacIntel,59.97361161,,,,,,,,,,,1.0289,0,,,,,,,,,,,,,,m,0,1.0289,,,,,,,,0.153513107,-0.429387207,0,0,0,,0,36,36,84,1,HAXES,C,old,z,./images/HAXES.png,,,,,,,,,,,,,,,,,,,,,
,,,,,,,,,,,,,,,,,198688,19,2022-01-28_16h09.47.299,lexical_decision_task_DD_L3,2021.2.3,MacIntel,59.97361161,,,,,,,,,,,0.6962,1,,,,,,,,,,,,,,m,1,0.6962,,,,,,,,0.153513107,-0.429387207,0,0,0,,0,37,37,25,1,WRIST,C,old,m,./images/WRIST.png,,,,,,,,,,,,,,,,,,,,,
,,,,,,,,,,,,,,,,,198688,19,2022-01-28_16h09.47.299,lexical_decision_task_DD_L3,2021.2.3,MacIntel,59.97361161,,,,,,,,,,,0.7152,1,,,,,,,,,,,,,,m,1,0.7152,,,,,,,,0.153513107,-0.429387207,0,0,0,,0,38,38,0,1,TOMATO,LB,old,m,./images/TOMATOLB.png,,,,,,,,,,,,,,,,,,,,,
,,,,,,,,,,,,,,,,,198688,19,2022-01-28_16h09.47.299,lexical_decision_task_DD_L3,2021.2.3,MacIntel,59.97361161,,,,,,,,,,,0.5002,1,,,,,,,,,,,,,,m,1,0.5002,,,,,,,,0.153513107,-0.429387207,0,0,0,,0,39,39,30,1,STORM,LB,old,m,./images/STORMLB.png,,,,,,,,,,,,,,,,,,,,,
,,,,,,,,,,,,,,,,,198688,19,2022-01-28_16h09.47.299,lexical_decision_task_DD_L3,2021.2.3,MacIntel,59.97361161,,,,,,,,,,,2.0841,1,,,,,,,,,,,,,,z,1,2.0841,,,,,,,,0.153513107,-0.429387207,0,0,0,,0,40,40,100,1,DRIBS,HB,old,z,./images/DRIBSHB.png,,,,,,,,,,,,,,,,,,,,,
,,,,,,,,,,,,,,,,,198688,19,2022-01-28_16h09.47.299,lexical_decision_task_DD_L3,2021.2.3,MacIntel,59.97361161,,,,,,,,,,,1.0169,1,,,,,,,,,,,,,,m,1,1.0169,,,,,,,,0.153513107,-0.429387207,1,0,0,,0,41,41,74,1,CEMENT,HB,old,m,./images/CEMENTHB.png,break_done_button,,,,,,,,,,,,,,,,,,,,
,,,,,,,,,,,,,,,,,198688,19,2022-01-28_16h09.47.299,lexical_decision_task_DD_L3,2021.2.3,MacIntel,59.97361161,,,,,,,,,,,1.9147,1,,,,,,,,,,,,,,m,1,1.9147,,,,,,,,0.153513107,-0.429387207,0,0,0,,0,42,42,50,1,MALLET,HB,old,m,./images/MALLETHB.png,,,,,,,,,,,,,,,,,,,,,
,,,,,,,,,,,,,,,,,198688,19,2022-01-28_16h09.47.299,lexical_decision_task_DD_L3,2021.2.3,MacIntel,59.97361161,,,,,,,,,,,2.597,1,,,,,,,,,,,,,,z,1,2.597,,,,,,,,0.153513107,-0.429387207,0,0,0,,0,43,43,115,1,MAWNS,HB,old,z,./images/MAWNSHB.png,,,,,,,,,,,,,,,,,,,,,
,,,,,,,,,,,,,,,,,198688,19,2022-01-28_16h09.47.299,lexical_decision_task_DD_L3,2021.2.3,MacIntel,59.97361161,,,,,,,,,,,0.7627,1,,,,,,,,,,,,,,z,1,0.7627,,,,,,,,0.153513107,-0.429387207,0,0,0,,0,44,44,156,1,HIXES,C,old,z,./images/HIXES.png,,,,,,,,,,,,,,,,,,,,,
,,,,,,,,,,,,,,,,,198688,19,2022-01-28_16h09.47.299,lexical_decision_task_DD_L3,2021.2.3,MacIntel,59.97361161,,,,,,,,,,,0.67,1,,,,,,,,,,,,,,z,1,0.67,,,,,,,,0.153513107,-0.429387207,0,0,0,,0,45,45,137,1,JOOST,LB,old,z,./images/JOOSTLB.png,,,,,,,,,,,,,,,,,,,,,
,,,,,,,,,,,,,,,,,198688,19,2022-01-28_16h09.47.299,lexical_decision_task_DD_L3,2021.2.3,MacIntel,59.97361161,,,,,,,,,,,0.6988,1,,,,,,,,,,,,,,m,1,0.6988,,,,,,,,0.153513107,-0.429387207,0,0,0,,0,46,46,78,1,LITTER,LB,old,m,./images/LITTERLB.png,,,,,,,,,,,,,,,,,,,,,
,,,,,,,,,,,,,,,,,198688,19,2022-01-28_16h09.47.299,lexical_decision_task_DD_L3,2021.2.3,MacIntel,59.97361161,,,,,,,,,,,0.8486,1,,,,,,,,,,,,,,z,1,0.8486,,,,,,,,0.153513107,-0.429387207,0,0,0,,0,47,47,107,1,FASKS,LB,old,z,./images/FASKSLB.png,,,,,,,,,,,,,,,,,,,,,
,,,,,,,,,,,,,,,,,198688,19,2022-01-28_16h09.47.299,lexical_decision_task_DD_L3,2021.2.3,MacIntel,59.97361161,,,,,,,,,,,0.646,1,,,,,,,,,,,,,,m,1,0.646,,,,,,,,0.153513107,-0.429387207,0,0,0,,0,48,48,46,1,PEARL,C,old,m,./images/PEARL.png,,,,,,,,,,,,,,,,,,,,,
,,,,,,,,,,,,,,,,,198688,19,2022-01-28_16h09.47.299,lexical_decision_task_DD_L3,2021.2.3,MacIntel,59.97361161,,,,,,,,,,,0.6372,1,,,,,,,,,,,,,,m,1,0.6372,,,,,,,,0.153513107,-0.429387207,0,0,0,,0,49,49,15,1,GREASE,LB,old,m,./images/GREASELB.png,,,,,,,,,,,,,,,,,,,,,
,,,,,,,,,,,,,,,,,198688,19,2022-01-28_16h09.47.299,lexical_decision_task_DD_L3,2021.2.3,MacIntel,59.97361161,,,,,,,,,,,0.7462,1,,,,,,,,,,,,,,z,1,0.7462,,,,,,,,0.153513107,-0.429387207,0,0,0,,0,50,50,160,1,VEETS,HB,old,z,./images/VEETSHB.png,,,,,,,,,,,,,,,,,,,,,
,,,,,,,,,,,,,,,,,198688,19,2022-01-28_16h09.47.299,lexical_decision_task_DD_L3,2021.2.3,MacIntel,59.97361161,,,,,,,,,,,0.5118,1,,,,,,,,,,,,,,m,1,0.5118,,,,,,,,0.153513107,-0.429387207,0,0,0,,0,51,51,7,1,PAINT,C,old,m,./images/PAINT.png,,,,,,,,,,,,,,,,,,,,,
,,,,,,,,,,,,,,,,,198688,19,2022-01-28_16h09.47.299,lexical_decision_task_DD_L3,2021.2.3,MacIntel,59.97361161,,,,,,,,,,,0.7106,1,,,,,,,,,,,,,,z,1,0.7106,,,,,,,,0.153513107,-0.429387207,0,0,0,,0,52,52,132,1,SCIFF,C,old,z,./images/SCIFF.png,,,,,,,,,,,,,,,,,,,,,
,,,,,,,,,,,,,,,,,198688,19,2022-01-28_16h09.47.299,lexical_decision_task_DD_L3,2021.2.3,MacIntel,59.97361161,,,,,,,,,,,0.7637,1,,,,,,,,,,,,,,m,1,0.7637,,,,,,,,0.153513107,-0.429387207,0,0,0,,0,53,53,14,1,PICKLE,HB,old,m,./images/PICKLEHB.png,,,,,,,,,,,,,,,,,,,,,
,,,,,,,,,,,,,,,,,198688,19,2022-01-28_16h09.47.299,lexical_decision_task_DD_L3,2021.2.3,MacIntel,59.97361161,,,,,,,,,,,0.594,1,,,,,,,,,,,,,,z,1,0.594,,,,,,,,0.153513107,-0.429387207,0,0,0,,0,54,54,93,1,SMONE,C,old,z,./images/SMONE.png,,,,,,,,,,,,,,,,,,,,,
,,,,,,,,,,,,,,,,,198688,19,2022-01-28_16h09.47.299,lexical_decision_task_DD_L3,2021.2.3,MacIntel,59.97361161,,,,,,,,,,,0.8493,1,,,,,,,,,,,,,,m,1,0.8493,,,,,,,,0.153513107,-0.429387207,0,0,0,,0,55,55,80,1,WEASEL,HB,old,m,./images/WEASELHB.png,,,,,,,,,,,,,,,,,,,,,
,,,,,,,,,,,,,,,,,198688,19,2022-01-28_16h09.47.299,lexical_decision_task_DD_L3,2021.2.3,MacIntel,59.97361161,,,,,,,,,,,0.7681,1,,,,,,,,,,,,,,z,1,0.7681,,,,,,,,0.153513107,-0.429387207,0,0,0,,0,56,56,158,1,EGECT,LB,old,z,./images/EGECTLB.png,,,,,,,,,,,,,,,,,,,,,
,,,,,,,,,,,,,,,,,198688,19,2022-01-28_16h09.47.299,lexical_decision_task_DD_L3,2021.2.3,MacIntel,59.97361161,,,,,,,,,,,1.0493,1,,,,,,,,,,,,,,z,1,1.0493,,,,,,,,0.153513107,-0.429387207,0,0,0,,0,57,57,148,1,JOMS,HB,old,z,./images/JOMSHB.png,,,,,,,,,,,,,,,,,,,,,
,,,,,,,,,,,,,,,,,198688,19,2022-01-28_16h09.47.299,lexical_decision_task_DD_L3,2021.2.3,MacIntel,59.97361161,,,,,,,,,,,1.397,0,,,,,,,,,,,,,,z,0,1.397,,,,,,,,0.153513107,-0.429387207,0,0,0,,0,58,58,44,1,LIZARD,HB,old,m,./images/LIZARDHB.png,,,,,,,,,,,,,,,,,,,,,
,,,,,,,,,,,,,,,,,198688,19,2022-01-28_16h09.47.299,lexical_decision_task_DD_L3,2021.2.3,MacIntel,59.97361161,,,,,,,,,,,1.2344,1,,,,,,,,,,,,,,z,1,1.2344,,,,,,,,0.153513107,-0.429387207,0,0,0,,0,59,59,124,1,TUNCH,HB,old,z,./images/TUNCHHB.png,,,,,,,,,,,,,,,,,,,,,
,,,,,,,,,,,,,,,,,198688,19,2022-01-28_16h09.47.299,lexical_decision_task_DD_L3,2021.2.3,MacIntel,59.97361161,,,,,,,,,,,0.5818,1,,,,,,,,,,,,,,m,1,0.5818,,,,,,,,0.153513107,-0.429387207,0,0,0,,0,60,60,10,1,BELLY,C,old,m,./images/BELLY.png,,,,,,,,,,,,,,,,,,,,,
,,,,,,,,,,,,,,,,,198688,19,2022-01-28_16h09.47.299,lexical_decision_task_DD_L3,2021.2.3,MacIntel,59.97361161,,,,,,,,,,,0.6134,1,,,,,,,,,,,,,,m,1,0.6134,,,,,,,,0.153513107,-0.429387207,0,0,0,,0,61,61,52,1,BANNER,C,old,m,./images/BANNER.png,,,,,,,,,,,,,,,,,,,,,
,,,,,,,,,,,,,,,,,198688,19,2022-01-28_16h09.47.299,lexical_decision_task_DD_L3,2021.2.3,MacIntel,59.97361161,,,,,,,,,,,0.6479,1,,,,,,,,,,,,,,m,1,0.6479,,,,,,,,0.153513107,-0.429387207,0,0,0,,0,62,62,67,1,SAILOR,C,old,m,./images/SAILOR.png,,,,,,,,,,,,,,,,,,,,,
,,,,,,,,,,,,,,,,,198688,19,2022-01-28_16h09.47.299,lexical_decision_task_DD_L3,2021.2.3,MacIntel,59.97361161,,,,,,,,,,,0.5648,1,,,,,,,,,,,,,,m,1,0.5648,,,,,,,,0.153513107,-0.429387207,0,0,0,,0,63,63,13,1,MOTOR,C,old,m,./images/MOTOR.png,,,,,,,,,,,,,,,,,,,,,
,,,,,,,,,,,,,,,,,198688,19,2022-01-28_16h09.47.299,lexical_decision_task_DD_L3,2021.2.3,MacIntel,59.97361161,,,,,,,,,,,0.6553,1,,,,,,,,,,,,,,z,1,0.6553,,,,,,,,0.153513107,-0.429387207,0,0,0,,0,64,64,131,1,NACES,LB,old,z,./images/NACESLB.png,,,,,,,,,,,,,,,,,,,,,
,,,,,,,,,,,,,,,,,198688,19,2022-01-28_16h09.47.299,lexical_decision_task_DD_L3,2021.2.3,MacIntel,59.97361161,,,,,,,,,,,0.6458,1,,,,,,,,,,,,,,m,1,0.6458,,,,,,,,0.153513107,-0.429387207,0,0,0,,0,65,65,55,1,MUFFIN,C,old,m,./images/MUFFIN.png,,,,,,,,,,,,,,,,,,,,,
,,,,,,,,,,,,,,,,,198688,19,2022-01-28_16h09.47.299,lexical_decision_task_DD_L3,2021.2.3,MacIntel,59.97361161,,,,,,,,,,,0.8139,1,,,,,,,,,,,,,,m,1,0.8139,,,,,,,,0.153513107,-0.429387207,0,0,0,,0,66,66,9,1,RHINO,LB,old,m,./images/RHINOLB.png,,,,,,,,,,,,,,,,,,,,,
,,,,,,,,,,,,,,,,,198688,19,2022-01-28_16h09.47.299,lexical_decision_task_DD_L3,2021.2.3,MacIntel,59.97361161,,,,,,,,,,,1.0295,1,,,,,,,,,,,,,,m,1,1.0295,,,,,,,,0.153513107,-0.429387207,0,0,0,,0,67,67,62,1,PURSE,HB,old,m,./images/PURSEHB.png,,,,,,,,,,,,,,,,,,,,,
,,,,,,,,,,,,,,,,,198688,19,2022-01-28_16h09.47.299,lexical_decision_task_DD_L3,2021.2.3,MacIntel,59.97361161,,,,,,,,,,,0.7008,1,,,,,,,,,,,,,,z,1,0.7008,,,,,,,,0.153513107,-0.429387207,0,0,0,,0,68,68,128,1,GRIFT,LB,old,z,./images/GRIFTLB.png,,,,,,,,,,,,,,,,,,,,,
,,,,,,,,,,,,,,,,,198688,19,2022-01-28_16h09.47.299,lexical_decision_task_DD_L3,2021.2.3,MacIntel,59.97361161,,,,,,,,,,,0.9288,1,,,,,,,,,,,,,,z,1,0.9288,,,,,,,,0.153513107,-0.429387207,0,0,0,,0,69,69,99,1,BACKY,C,old,z,./images/BACKY.png,,,,,,,,,,,,,,,,,,,,,
,,,,,,,,,,,,,,,,,198688,19,2022-01-28_16h09.47.299,lexical_decision_task_DD_L3,2021.2.3,MacIntel,59.97361161,,,,,,,,,,,1.4482,1,,,,,,,,,,,,,,m,1,1.4482,,,,,,,,0.153513107,-0.429387207,0,0,0,,0,70,70,32,1,BARREL,HB,old,m,./images/BARRELHB.png,,,,,,,,,,,,,,,,,,,,,
,,,,,,,,,,,,,,,,,198688,19,2022-01-28_16h09.47.299,lexical_decision_task_DD_L3,2021.2.3,MacIntel,59.97361161,,,,,,,,,,,0.9491,1,,,,,,,,,,,,,,z,1,0.9491,,,,,,,,0.153513107,-0.429387207,0,0,0,,0,71,71,97,1,CHIDS,HB,old,z,./images/CHIDSHB.png,,,,,,,,,,,,,,,,,,,,,
,,,,,,,,,,,,,,,,,198688,19,2022-01-28_16h09.47.299,lexical_decision_task_DD_L3,2021.2.3,MacIntel,59.97361161,,,,,,,,,,,1.2002,1,,,,,,,,,,,,,,m,1,1.2002,,,,,,,,0.153513107,-0.429387207,0,0,0,,0,72,72,26,1,SMOKER,HB,old,m,./images/SMOKERHB.png,,,,,,,,,,,,,,,,,,,,,
,,,,,,,,,,,,,,,,,198688,19,2022-01-28_16h09.47.299,lexical_decision_task_DD_L3,2021.2.3,MacIntel,59.97361161,,,,,,,,,,,0.4792,1,,,,,,,,,,,,,,m,1,0.4792,,,,,,,,0.153513107,-0.429387207,0,0,0,,0,73,73,16,1,PENCE,C,old,m,./images/PENCE.png,,,,,,,,,,,,,,,,,,,,,
,,,,,,,,,,,,,,,,,198688,19,2022-01-28_16h09.47.299,lexical_decision_task_DD_L3,2021.2.3,MacIntel,59.97361161,,,,,,,,,,,0.6158,1,,,,,,,,,,,,,,m,1,0.6158,,,,,,,,0.153513107,-0.429387207,0,0,0,,0,74,74,66,1,SWEAT,LB,old,m,./images/SWEATLB.png,,,,,,,,,,,,,,,,,,,,,
,,,,,,,,,,,,,,,,,198688,19,2022-01-28_16h09.47.299,lexical_decision_task_DD_L3,2021.2.3,MacIntel,59.97361161,,,,,,,,,,,0.6794,1,,,,,,,,,,,,,,z,1,0.6794,,,,,,,,0.153513107,-0.429387207,0,0,0,,0,75,75,123,1,SEDGE,C,old,z,./images/SEDGE.png,,,,,,,,,,,,,,,,,,,,,
,,,,,,,,,,,,,,,,,198688,19,2022-01-28_16h09.47.299,lexical_decision_task_DD_L3,2021.2.3,MacIntel,59.97361161,,,,,,,,,,,0.7474,1,,,,,,,,,,,,,,z,1,0.7474,,,,,,,,0.153513107,-0.429387207,0,0,0,,0,76,76,113,1,LINEW,LB,old,z,./images/LINEWLB.png,,,,,,,,,,,,,,,,,,,,,
,,,,,,,,,,,,,,,,,198688,19,2022-01-28_16h09.47.299,lexical_decision_task_DD_L3,2021.2.3,MacIntel,59.97361161,,,,,,,,,,,0.4813,1,,,,,,,,,,,,,,m,1,0.4813,,,,,,,,0.153513107,-0.429387207,0,0,0,,0,77,77,63,1,MIRROR,LB,old,m,./images/MIRRORLB.png,,,,,,,,,,,,,,,,,,,,,
,,,,,,,,,,,,,,,,,198688,19,2022-01-28_16h09.47.299,lexical_decision_task_DD_L3,2021.2.3,MacIntel,59.97361161,,,,,,,,,,,0.6629,1,,,,,,,,,,,,,,z,1,0.6629,,,,,,,,0.153513107,-0.429387207,0,0,0,,0,78,78,150,1,NOOLS,C,old,z,./images/NOOLS.png,,,,,,,,,,,,,,,,,,,,,
,,,,,,,,,,,,,,,,,198688,19,2022-01-28_16h09.47.299,lexical_decision_task_DD_L3,2021.2.3,MacIntel,59.97361161,,,,,,,,,,,0.7385,1,,,,,,,,,,,,,,m,1,0.7385,,,,,,,,0.153513107,-0.429387207,0,0,0,,0,79,79,2,1,BEARD,HB,old,m,./images/BEARDHB.png,,,,,,,,,,,,,,,,,,,,,
,,,,,,,,,,,,,,,,,198688,19,2022-01-28_16h09.47.299,lexical_decision_task_DD_L3,2021.2.3,MacIntel,59.97361161,,,,,,,,,,,0.6443,1,,,,,,,,,,,,,,z,1,0.6443,,,,,,,,0.153513107,-0.429387207,0,0,0,,0,80,80,102,1,DULLE,C,old,z,./images/DULLE.png,,,,,,,,,,,,,,,,,,,,,
,,,,,,,,,,,,,,,,,198688,19,2022-01-28_16h09.47.299,lexical_decision_task_DD_L3,2021.2.3,MacIntel,59.97361161,,,,,,,,,,,0.6489,1,,,,,,,,,,,,,,m,1,0.6489,,,,,,,,0.153513107,-0.429387207,0,0,0,,0,81,81,41,1,STRING,HB,old,m,./images/STRINGHB.png,,,,,,,,,,,,,,,,,,,,,
,,,,,,,,,,,,,,,,,198688,19,2022-01-28_16h09.47.299,lexical_decision_task_DD_L3,2021.2.3,MacIntel,59.97361161,,,,,,,,,,,0.8455,1,,,,,,,,,,,,,,z,1,0.8455,,,,,,,,0.153513107,-0.429387207,0,0,0,,0,82,82,105,1,MOKER,C,old,z,./images/MOKER.png,,,,,,,,,,,,,,,,,,,,,
,,,,,,,,,,,,,,,,,198688,19,2022-01-28_16h09.47.299,lexical_decision_task_DD_L3,2021.2.3,MacIntel,59.97361161,,,,,,,,,,,0.6302,1,,,,,,,,,,,,,,m,1,0.6302,,,,,,,,0.153513107,-0.429387207,1,0,0,,0,83,83,20,1,CRADLE,HB,old,m,./images/CRADLEHB.png,break_done_button,,,,,,,,,,,,,,,,,,,,
,,,,,,,,,,,,,,,,,198688,19,2022-01-28_16h09.47.299,lexical_decision_task_DD_L3,2021.2.3,MacIntel,59.97361161,,,,,,,,,,,0.7818,1,,,,,,,,,,,,,,z,1,0.7818,,,,,,,,0.153513107,-0.429387207,0,0,0,,0,84,84,134,1,TROSS,LB,old,z,./images/TROSSLB.png,,,,,,,,,,,,,,,,,,,,,
,,,,,,,,,,,,,,,,,198688,19,2022-01-28_16h09.47.299,lexical_decision_task_DD_L3,2021.2.3,MacIntel,59.97361161,,,,,,,,,,,0.5968,1,,,,,,,,,,,,,,z,1,0.5968,,,,,,,,0.153513107,-0.429387207,0,0,0,,0,85,85,140,1,DOVET,LB,old,z,./images/DOVETLB.png,,,,,,,,,,,,,,,,,,,,,
,,,,,,,,,,,,,,,,,198688,19,2022-01-28_16h09.47.299,lexical_decision_task_DD_L3,2021.2.3,MacIntel,59.97361161,,,,,,,,,,,0.4125,1,,,,,,,,,,,,,,m,1,0.4125,,,,,,,,0.153513107,-0.429387207,0,0,0,,0,86,86,79,1,CRUST,C,old,m,./images/CRUST.png,,,,,,,,,,,,,,,,,,,,,
,,,,,,,,,,,,,,,,,198688,19,2022-01-28_16h09.47.299,lexical_decision_task_DD_L3,2021.2.3,MacIntel,59.97361161,,,,,,,,,,,0.5468,1,,,,,,,,,,,,,,z,1,0.5468,,,,,,,,0.153513107,-0.429387207,0,0,0,,0,87,87,126,1,GUELS,C,old,z,./images/GUELS.png,,,,,,,,,,,,,,,,,,,,,
,,,,,,,,,,,,,,,,,198688,19,2022-01-28_16h09.47.299,lexical_decision_task_DD_L3,2021.2.3,MacIntel,59.97361161,,,,,,,,,,,0.7981,0,,,,,,,,,,,,,,m,0,0.7981,,,,,,,,0.153513107,-0.429387207,0,0,0,,0,88,88,88,1,GLUSH,HB,old,z,./images/GLUSHHB.png,,,,,,,,,,,,,,,,,,,,,
,,,,,,,,,,,,,,,,,198688,19,2022-01-28_16h09.47.299,lexical_decision_task_DD_L3,2021.2.3,MacIntel,59.97361161,,,,,,,,,,,0.5328,1,,,,,,,,,,,,,,m,1,0.5328,,,,,,,,0.153513107,-0.429387207,0,0,0,,0,89,89,57,1,MOOSE,LB,old,m,./images/MOOSELB.png,,,,,,,,,,,,,,,,,,,,,
,,,,,,,,,,,,,,,,,198688,19,2022-01-28_16h09.47.299,lexical_decision_task_DD_L3,2021.2.3,MacIntel,59.97361161,,,,,,,,,,,0.6957,1,,,,,,,,,,,,,,m,1,0.6957,,,,,,,,0.153513107,-0.429387207,0,0,0,,0,90,90,1,1,PLANK,C,old,m,./images/PLANK.png,,,,,,,,,,,,,,,,,,,,,
,,,,,,,,,,,,,,,,,198688,19,2022-01-28_16h09.47.299,lexical_decision_task_DD_L3,2021.2.3,MacIntel,59.97361161,,,,,,,,,,,1.2354,1,,,,,,,,,,,,,,z,1,1.2354,,,,,,,,0.153513107,-0.429387207,0,0,0,,0,91,91,157,1,INLER,HB,old,z,./images/INLERHB.png,,,,,,,,,,,,,,,,,,,,,
,,,,,,,,,,,,,,,,,198688,19,2022-01-28_16h09.47.299,lexical_decision_task_DD_L3,2021.2.3,MacIntel,59.97361161,,,,,,,,,,,0.5455,1,,,,,,,,,,,,,,m,1,0.5455,,,,,,,,0.153513107,-0.429387207,0,0,0,,0,92,92,81,1,POODLE,LB,old,m,./images/POODLELB.png,,,,,,,,,,,,,,,,,,,,,
,,,,,,,,,,,,,,,,,198688,19,2022-01-28_16h09.47.299,lexical_decision_task_DD_L3,2021.2.3,MacIntel,59.97361161,,,,,,,,,,,0.9127,1,,,,,,,,,,,,,,m,1,0.9127,,,,,,,,0.153513107,-0.429387207,0,0,0,,0,93,93,47,1,BERRY,HB,old,m,./images/BERRYHB.png,,,,,,,,,,,,,,,,,,,,,
,,,,,,,,,,,,,,,,,198688,19,2022-01-28_16h09.47.299,lexical_decision_task_DD_L3,2021.2.3,MacIntel,59.97361161,,,,,,,,,,,1.2524,1,,,,,,,,,,,,,,z,1,1.2524,,,,,,,,0.153513107,-0.429387207,0,0,0,,0,94,94,145,1,LAMEL,HB,old,z,./images/LAMELHB.png,,,,,,,,,,,,,,,,,,,,,
,,,,,,,,,,,,,,,,,198688,19,2022-01-28_16h09.47.299,lexical_decision_task_DD_L3,2021.2.3,MacIntel,59.97361161,,,,,,,,,,,0.8154,0,,,,,,,,,,,,,,m,0,0.8154,,,,,,,,0.153513107,-0.429387207,0,0,0,,0,95,95,142,1,PLASK,HB,old,z,./images/PLASKHB.png,,,,,,,,,,,,,,,,,,,,,
,,,,,,,,,,,,,,,,,198688,19,2022-01-28_16h09.47.299,lexical_decision_task_DD_L3,2021.2.3,MacIntel,59.97361161,,,,,,,,,,,0.6647,1,,,,,,,,,,,,,,m,1,0.6647,,,,,,,,0.153513107,-0.429387207,0,0,0,,0,96,96,3,1,FINGER,LB,old,m,./images/FINGERLB.png,,,,,,,,,,,,,,,,,,,,,
,,,,,,,,,,,,,,,,,198688,19,2022-01-28_16h09.47.299,lexical_decision_task_DD_L3,2021.2.3,MacIntel,59.97361161,,,,,,,,,,,0.7135,1,,,,,,,,,,,,,,m,1,0.7135,,,,,,,,0.153513107,-0.429387207,0,0,0,,0,97,97,69,1,COOKER,LB,old,m,./images/COOKERLB.png,,,,,,,,,,,,,,,,,,,,,
,,,,,,,,,,,,,,,,,198688,19,2022-01-28_16h09.47.299,lexical_decision_task_DD_L3,2021.2.3,MacIntel,59.97361161,,,,,,,,,,,0.613,1,,,,,,,,,,,,,,m,1,0.613,,,,,,,,0.153513107,-0.429387207,0,0,0,,0,98,98,6,1,SQUARE,LB,old,m,./images/SQUARELB.png,,,,,,,,,,,,,,,,,,,,,
,,,,,,,,,,,,,,,,,198688,19,2022-01-28_16h09.47.299,lexical_decision_task_DD_L3,2021.2.3,MacIntel,59.97361161,,,,,,,,,,,0.8791,1,,,,,,,,,,,,,,z,1,0.8791,,,,,,,,0.153513107,-0.429387207,0,0,0,,0,99,99,165,1,TROWN,C,old,z,./images/TROWN.png,,,,,,,,,,,,,,,,,,,,,
,,,,,,,,,,,,,,,,,198688,19,2022-01-28_16h09.47.299,lexical_decision_task_DD_L3,2021.2.3,MacIntel,59.97361161,,,,,,,,,,,1.3012,1,,,,,,,,,,,,,,z,1,1.3012,,,,,,,,0.153513107,-0.429387207,0,0,0,,0,100,100,121,1,CEERS,HB,old,z,./images/CEERSHB.png,,,,,,,,,,,,,,,,,,,,,
,,,,,,,,,,,,,,,,,198688,19,2022-01-28_16h09.47.299,lexical_decision_task_DD_L3,2021.2.3,MacIntel,59.97361161,,,,,,,,,,,0.7312,1,,,,,,,,,,,,,,z,1,0.7312,,,,,,,,0.153513107,-0.429387207,0,0,0,,0,101,101,146,1,MOOST,LB,old,z,./images/MOOSTLB.png,,,,,,,,,,,,,,,,,,,,,
,,,,,,,,,,,,,,,,,198688,19,2022-01-28_16h09.47.299,lexical_decision_task_DD_L3,2021.2.3,MacIntel,59.97361161,,,,,,,,,,,1.0287,1,,,,,,,,,,,,,,z,1,1.0287,,,,,,,,0.153513107,-0.429387207,0,0,0,,0,102,102,147,1,ZOLES,C,old,z,./images/ZOLES.png,,,,,,,,,,,,,,,,,,,,,
,,,,,,,,,,,,,,,,,198688,19,2022-01-28_16h09.47.299,lexical_decision_task_DD_L3,2021.2.3,MacIntel,59.97361161,,,,,,,,,,,0.9307,1,,,,,,,,,,,,,,z,1,0.9307,,,,,,,,0.153513107,-0.429387207,0,0,0,,0,103,103,155,1,CANGY,LB,old,z,./images/CANGYLB.png,,,,,,,,,,,,,,,,,,,,,
,,,,,,,,,,,,,,,,,198688,19,2022-01-28_16h09.47.299,lexical_decision_task_DD_L3,2021.2.3,MacIntel,59.97361161,,,,,,,,,,,1.3517,1,,,,,,,,,,,,,,z,1,1.3517,,,,,,,,0.153513107,-0.429387207,0,0,0,,0,104,104,101,1,GLEET,LB,old,z,./images/GLEETLB.png,,,,,,,,,,,,,,,,,,,,,
,,,,,,,,,,,,,,,,,198688,19,2022-01-28_16h09.47.299,lexical_decision_task_DD_L3,2021.2.3,MacIntel,59.97361161,,,,,,,,,,,1.6692,1,,,,,,,,,,,,,,z,1,1.6692,,,,,,,,0.153513107,-0.429387207,0,0,0,,0,105,105,136,1,WERVE,HB,old,z,./images/WERVEHB.png,,,,,,,,,,,,,,,,,,,,,
,,,,,,,,,,,,,,,,,198688,19,2022-01-28_16h09.47.299,lexical_decision_task_DD_L3,2021.2.3,MacIntel,59.97361161,,,,,,,,,,,1.1848,1,,,,,,,,,,,,,,m,1,1.1848,,,,,,,,0.153513107,-0.429387207,0,0,0,,0,106,106,11,1,BONNET,HB,old,m,./images/BONNETHB.png,,,,,,,,,,,,,,,,,,,,,
,,,,,,,,,,,,,,,,,198688,19,2022-01-28_16h09.47.299,lexical_decision_task_DD_L3,2021.2.3,MacIntel,59.97361161,,,,,,,,,,,0.981,1,,,,,,,,,,,,,,z,1,0.981,,,,,,,,0.153513107,-0.429387207,0,0,0,,0,107,107,143,1,MONGS,LB,old,z,./images/MONGSLB.png,,,,,,,,,,,,,,,,,,,,,
,,,,,,,,,,,,,,,,,198688,19,2022-01-28_16h09.47.299,lexical_decision_task_DD_L3,2021.2.3,MacIntel,59.97361161,,,,,,,,,,,0.5646,1,,,,,,,,,,,,,,m,1,0.5646,,,,,,,,0.153513107,-0.429387207,0,0,0,,0,108,108,45,1,KITTEN,LB,old,m,./images/KITTENLB.png,,,,,,,,,,,,,,,,,,,,,
,,,,,,,,,,,,,,,,,198688,19,2022-01-28_16h09.47.299,lexical_decision_task_DD_L3,2021.2.3,MacIntel,59.97361161,,,,,,,,,,,0.7471,1,,,,,,,,,,,,,,z,1,0.7471,,,,,,,,0.153513107,-0.429387207,0,0,0,,0,109,109,92,1,PAIMS,LB,old,z,./images/PAIMSLB.png,,,,,,,,,,,,,,,,,,,,,
,,,,,,,,,,,,,,,,,198688,19,2022-01-28_16h09.47.299,lexical_decision_task_DD_L3,2021.2.3,MacIntel,59.97361161,,,,,,,,,,,0.9487,1,,,,,,,,,,,,,,m,1,0.9487,,,,,,,,0.153513107,-0.429387207,0,0,0,,0,110,110,29,1,CRUMB,HB,old,m,./images/CRUMBHB.png,,,,,,,,,,,,,,,,,,,,,
,,,,,,,,,,,,,,,,,198688,19,2022-01-28_16h09.47.299,lexical_decision_task_DD_L3,2021.2.3,MacIntel,59.97361161,,,,,,,,,,,0.5958,0,,,,,,,,,,,,,,m,0,0.5958,,,,,,,,0.153513107,-0.429387207,0,0,0,,0,111,111,159,1,CUDDY,C,old,z,./images/CUDDY.png,,,,,,,,,,,,,,,,,,,,,
,,,,,,,,,,,,,,,,,198688,19,2022-01-28_16h09.47.299,lexical_decision_task_DD_L3,2021.2.3,MacIntel,59.97361161,,,,,,,,,,,0.7644,1,,,,,,,,,,,,,,z,1,0.7644,,,,,,,,0.153513107,-0.429387207,0,0,0,,0,112,112,95,1,HANTY,LB,old,z,./images/HANTYLB.png,,,,,,,,,,,,,,,,,,,,,
,,,,,,,,,,,,,,,,,198688,19,2022-01-28_16h09.47.299,lexical_decision_task_DD_L3,2021.2.3,MacIntel,59.97361161,,,,,,,,,,,1.15,1,,,,,,,,,,,,,,z,1,1.15,,,,,,,,0.153513107,-0.429387207,0,0,0,,0,113,113,112,1,MYING,HB,old,z,./images/MYINGHB.png,,,,,,,,,,,,,,,,,,,,,
,,,,,,,,,,,,,,,,,198688,19,2022-01-28_16h09.47.299,lexical_decision_task_DD_L3,2021.2.3,MacIntel,59.97361161,,,,,,,,,,,0.7977,1,,,,,,,,,,,,,,z,1,0.7977,,,,,,,,0.153513107,-0.429387207,0,0,0,,0,114,114,103,1,FLORT,HB,old,z,./images/FLORTHB.png,,,,,,,,,,,,,,,,,,,,,
,,,,,,,,,,,,,,,,,198688,19,2022-01-28_16h09.47.299,lexical_decision_task_DD_L3,2021.2.3,MacIntel,59.97361161,,,,,,,,,,,0.6877,1,,,,,,,,,,,,,,m,1,0.6877,,,,,,,,0.153513107,-0.429387207,0,0,0,,0,115,115,83,1,JUNGLE,HB,old,m,./images/JUNGLEHB.png,,,,,,,,,,,,,,,,,,,,,
,,,,,,,,,,,,,,,,,198688,19,2022-01-28_16h09.47.299,lexical_decision_task_DD_L3,2021.2.3,MacIntel,59.97361161,,,,,,,,,,,0.5144,1,,,,,,,,,,,,,,m,1,0.5144,,,,,,,,0.153513107,-0.429387207,0,0,0,,0,116,116,51,1,ONION,LB,old,m,./images/ONIONLB.png,,,,,,,,,,,,,,,,,,,,,
,,,,,,,,,,,,,,,,,198688,19,2022-01-28_16h09.47.299,lexical_decision_task_DD_L3,2021.2.3,MacIntel,59.97361161,,,,,,,,,,,1.1498,1,,,,,,,,,,,,,,m,1,1.1498,,,,,,,,0.153513107,-0.429387207,0,0,0,,0,117,117,65,1,FARMER,HB,old,m,./images/FARMERHB.png,,,,,,,,,,,,,,,,,,,,,
,,,,,,,,,,,,,,,,,198688,19,2022-01-28_16h09.47.299,lexical_decision_task_DD_L3,2021.2.3,MacIntel,59.97361161,,,,,,,,,,,0.5512,1,,,,,,,,,,,,,,m,1,0.5512,,,,,,,,0.153513107,-0.429387207,0,0,0,,0,118,118,75,1,GRAIN,LB,old,m,./images/GRAINLB.png,,,,,,,,,,,,,,,,,,,,,
,,,,,,,,,,,,,,,,,198688,19,2022-01-28_16h09.47.299,lexical_decision_task_DD_L3,2021.2.3,MacIntel,59.97361161,,,,,,,,,,,1.1643,1,,,,,,,,,,,,,,z,1,1.1643,,,,,,,,0.153513107,-0.429387207,0,0,0,,0,119,119,166,1,SHORY,HB,old,z,./images/SHORYHB.png,,,,,,,,,,,,,,,,,,,,,
,,,,,,,,,,,,,,,,,198688,19,2022-01-28_16h09.47.299,lexical_decision_task_DD_L3,2021.2.3,MacIntel,59.97361161,,,,,,,,,,,0.7312,1,,,,,,,,,,,,,,z,1,0.7312,,,,,,,,0.153513107,-0.429387207,0,0,0,,0,120,120,164,1,SGREW,LB,old,z,./images/SGREWLB.png,,,,,,,,,,,,,,,,,,,,,
,,,,,,,,,,,,,,,,,198688,19,2022-01-28_16h09.47.299,lexical_decision_task_DD_L3,2021.2.3,MacIntel,59.97361161,,,,,,,,,,,1.365,0,,,,,,,,,,,,,,m,0,1.365,,,,,,,,0.153513107,-0.429387207,0,0,0,,0,121,121,133,1,POWDY,HB,old,z,./images/POWDYHB.png,,,,,,,,,,,,,,,,,,,,,
,,,,,,,,,,,,,,,,,198688,19,2022-01-28_16h09.47.299,lexical_decision_task_DD_L3,2021.2.3,MacIntel,59.97361161,,,,,,,,,,,0.5336,1,,,,,,,,,,,,,,m,1,0.5336,,,,,,,,0.153513107,-0.429387207,0,0,0,,0,122,122,40,1,SWING,C,old,m,./images/SWING.png,,,,,,,,,,,,,,,,,,,,,
,,,,,,,,,,,,,,,,,198688,19,2022-01-28_16h09.47.299,lexical_decision_task_DD_L3,2021.2.3,MacIntel,59.97361161,,,,,,,,,,,0.8662,1,,,,,,,,,,,,,,z,1,0.8662,,,,,,,,0.153513107,-0.429387207,0,0,0,,0,123,123,119,1,PAFER,LB,old,z,./images/PAFERLB.png,,,,,,,,,,,,,,,,,,,,,
,,,,,,,,,,,,,,,,,198688,19,2022-01-28_16h09.47.299,lexical_decision_task_DD_L3,2021.2.3,MacIntel,59.97361161,,,,,,,,,,,0.5834,1,,,,,,,,,,,,,,m,1,0.5834,,,,,,,,0.153513107,-0.429387207,0,0,0,,0,124,124,36,1,THROAT,LB,old,m,./images/THROATLB.png,,,,,,,,,,,,,,,,,,,,,
,,,,,,,,,,,,,,,,,198688,19,2022-01-28_16h09.47.299,lexical_decision_task_DD_L3,2021.2.3,MacIntel,59.97361161,,,,,,,,,,,0.6482,1,,,,,,,,,,,,,,m,1,0.6482,,,,,,,,0.153513107,-0.429387207,1,0,0,,0,125,125,33,1,MAGGOT,LB,old,m,./images/MAGGOTLB.png,break_done_button,,,,,,,,,,,,,,,,,,,,
,,,,,,,,,,,,,,,,,198688,19,2022-01-28_16h09.47.299,lexical_decision_task_DD_L3,2021.2.3,MacIntel,59.97361161,,,,,,,,,,,0.663,1,,,,,,,,,,,,,,m,1,0.663,,,,,,,,0.153513107,-0.429387207,0,0,0,,0,126,126,24,1,SCREW,LB,old,m,./images/SCREWLB.png,,,,,,,,,,,,,,,,,,,,,
,,,,,,,,,,,,,,,,,198688,19,2022-01-28_16h09.47.299,lexical_decision_task_DD_L3,2021.2.3,MacIntel,59.97361161,,,,,,,,,,,1.0491,1,,,,,,,,,,,,,,z,1,1.0491,,,,,,,,0.153513107,-0.429387207,0,0,0,,0,127,127,118,1,BAVEL,HB,old,z,./images/BAVELHB.png,,,,,,,,,,,,,,,,,,,,,
,,,,,,,,,,,,,,,,,198688,19,2022-01-28_16h09.47.299,lexical_decision_task_DD_L3,2021.2.3,MacIntel,59.97361161,,,,,,,,,,,0.5963,1,,,,,,,,,,,,,,m,1,0.5963,,,,,,,,0.153513107,-0.429387207,0,0,0,,0,128,128,76,1,INFANT,C,old,m,./images/INFANT.png,,,,,,,,,,,,,,,,,,,,,
,,,,,,,,,,,,,,,,,198688,19,2022-01-28_16h09.47.299,lexical_decision_task_DD_L3,2021.2.3,MacIntel,59.97361161,,,,,,,,,,,0.7277,1,,,,,,,,,,,,,,z,1,0.7277,,,,,,,,0.153513107,-0.429387207,0,0,0,,0,129,129,129,1,PRANS,C,old,z,./images/PRANS.png,,,,,,,,,,,,,,,,,,,,,
,,,,,,,,,,,,,,,,,198688,19,2022-01-28_16h09.47.299,lexical_decision_task_DD_L3,2021.2.3,MacIntel,59.97361161,,,,,,,,,,,0.7475,1,,,,,,,,,,,,,,m,1,0.7475,,,,,,,,0.153513107,-0.429387207,0,0,0,,0,130,130,8,1,TULIP,HB,old,m,./images/TULIPHB.png,,,,,,,,,,,,,,,,,,,,,
,,,,,,,,,,,,,,,,,198688,19,2022-01-28_16h09.47.299,lexical_decision_task_DD_L3,2021.2.3,MacIntel,59.97361161,,,,,,,,,,,0.7648,1,,,,,,,,,,,,,,m,1,0.7648,,,,,,,,0.153513107,-0.429387207,0,0,0,,0,131,131,68,1,TORCH,HB,old,m,./images/TORCHHB.png,,,,,,,,,,,,,,,,,,,,,
,,,,,,,,,,,,,,,,,198688,19,2022-01-28_16h09.47.299,lexical_decision_task_DD_L3,2021.2.3,MacIntel,59.97361161,,,,,,,,,,,0.6814,1,,,,,,,,,,,,,,m,1,0.6814,,,,,,,,0.153513107,-0.429387207,0,0,0,,0,132,132,59,1,BURIAL,HB,old,m,./images/BURIALHB.png,,,,,,,,,,,,,,,,,,,,,
,,,,,,,,,,,,,,,,,198688,19,2022-01-28_16h09.47.299,lexical_decision_task_DD_L3,2021.2.3,MacIntel,59.97361161,,,,,,,,,,,0.631,1,,,,,,,,,,,,,,m,1,0.631,,,,,,,,0.153513107,-0.429387207,0,0,0,,0,133,133,21,1,KIDNEY,LB,old,m,./images/KIDNEYLB.png,,,,,,,,,,,,,,,,,,,,,
,,,,,,,,,,,,,,,,,198688,19,2022-01-28_16h09.47.299,lexical_decision_task_DD_L3,2021.2.3,MacIntel,59.97361161,,,,,,,,,,,0.8541,1,,,,,,,,,,,,,,m,1,0.8541,,,,,,,,0.153513107,-0.429387207,0,0,0,,0,134,134,17,1,SKIING,HB,old,m,./images/SKIINGHB.png,,,,,,,,,,,,,,,,,,,,,
,,,,,,,,,,,,,,,,,198688,19,2022-01-28_16h09.47.299,lexical_decision_task_DD_L3,2021.2.3,MacIntel,59.97361161,,,,,,,,,,,0.6437,1,,,,,,,,,,,,,,m,1,0.6437,,,,,,,,0.153513107,-0.429387207,0,0,0,,0,135,135,49,1,DRUMS,C,old,m,./images/DRUMS.png,,,,,,,,,,,,,,,,,,,,,
,,,,,,,,,,,,,,,,,198688,19,2022-01-28_16h09.47.299,lexical_decision_task_DD_L3,2021.2.3,MacIntel,59.97361161,,,,,,,,,,,0.532,1,,,,,,,,,,,,,,m,1,0.532,,,,,,,,0.153513107,-0.429387207,0,0,0,,0,136,136,64,1,JELLY,C,old,m,./images/JELLY.png,,,,,,,,,,,,,,,,,,,,,
,,,,,,,,,,,,,,,,,198688,19,2022-01-28_16h09.47.299,lexical_decision_task_DD_L3,2021.2.3,MacIntel,59.97361161,,,,,,,,,,,0.5806,1,,,,,,,,,,,,,,m,1,0.5806,,,,,,,,0.153513107,-0.429387207,0,0,0,,0,137,137,23,1,WALRUS,HB,old,m,./images/WALRUSHB.png,,,,,,,,,,,,,,,,,,,,,
,,,,,,,,,,,,,,,,,198688,19,2022-01-28_16h09.47.299,lexical_decision_task_DD_L3,2021.2.3,MacIntel,59.97361161,,,,,,,,,,,0.7492,1,,,,,,,,,,,,,,z,1,0.7492,,,,,,,,0.153513107,-0.429387207,0,0,0,,0,138,138,98,1,BAMPS,LB,old,z,./images/BAMPSLB.png,,,,,,,,,,,,,,,,,,,,,
,,,,,,,,,,,,,,,,,198688,19,2022-01-28_16h09.47.299,lexical_decision_task_DD_L3,2021.2.3,MacIntel,59.97361161,,,,,,,,,,,0.5859,1,,,,,,,,,,,,,,m,1,0.5859,,,,,,,,0.153513107,-0.429387207,0,0,0,,0,139,139,35,1,PEACH,HB,old,m,./images/PEACHHB.png,,,,,,,,,,,,,,,,,,,,,
,,,,,,,,,,,,,,,,,198688,19,2022-01-28_16h09.47.299,lexical_decision_task_DD_L3,2021.2.3,MacIntel,59.97361161,,,,,,,,,,,0.7525,1,,,,,,,,,,,,,,z,1,0.7525,,,,,,,,0.153513107,-0.429387207,0,0,0,,0,140,140,122,1,BLOOT,LB,old,z,./images/BLOOTLB.png,,,,,,,,,,,,,,,,,,,,,
,,,,,,,,,,,,,,,,,198688,19,2022-01-28_16h09.47.299,lexical_decision_task_DD_L3,2021.2.3,MacIntel,59.97361161,,,,,,,,,,,0.7621,1,,,,,,,,,,,,,,z,1,0.7621,,,,,,,,0.153513107,-0.429387207,0,0,0,,0,141,141,87,1,TRING,C,old,z,./images/TRING.png,,,,,,,,,,,,,,,,,,,,,
,,,,,,,,,,,,,,,,,198688,19,2022-01-28_16h09.47.299,lexical_decision_task_DD_L3,2021.2.3,MacIntel,59.97361161,,,,,,,,,,,0.612,1,,,,,,,,,,,,,,m,1,0.612,,,,,,,,0.153513107,-0.429387207,0,0,0,,0,142,142,82,1,SUNSET,C,old,m,./images/SUNSET.png,,,,,,,,,,,,,,,,,,,,,
,,,,,,,,,,,,,,,,,198688,19,2022-01-28_16h09.47.299,lexical_decision_task_DD_L3,2021.2.3,MacIntel,59.97361161,,,,,,,,,,,0.6479,1,,,,,,,,,,,,,,m,1,0.6479,,,,,,,,0.153513107,-0.429387207,0,0,0,,0,143,143,38,1,LADDER,HB,old,m,./images/LADDERHB.png,,,,,,,,,,,,,,,,,,,,,
,,,,,,,,,,,,,,,,,198688,19,2022-01-28_16h09.47.299,lexical_decision_task_DD_L3,2021.2.3,MacIntel,59.97361161,,,,,,,,,,,0.5766,1,,,,,,,,,,,,,,z,1,0.5766,,,,,,,,0.153513107,-0.429387207,0,0,0,,0,144,144,135,1,JOODY,C,old,z,./images/JOODY.png,,,,,,,,,,,,,,,,,,,,,
,,,,,,,,,,,,,,,,,198688,19,2022-01-28_16h09.47.299,lexical_decision_task_DD_L3,2021.2.3,MacIntel,59.97361161,,,,,,,,,,,0.4957,1,,,,,,,,,,,,,,m,1,0.4957,,,,,,,,0.153513107,-0.429387207,0,0,0,,0,145,145,61,1,CANDLE,C,old,m,./images/CANDLE.png,,,,,,,,,,,,,,,,,,,,,
,,,,,,,,,,,,,,,,,198688,19,2022-01-28_16h09.47.299,lexical_decision_task_DD_L3,2021.2.3,MacIntel,59.97361161,,,,,,,,,,,0.7358,1,,,,,,,,,,,,,,z,1,0.7358,,,,,,,,0.153513107,-0.429387207,0,0,0,,0,146,146,104,1,GITTY,LB,old,z,./images/GITTYLB.png,,,,,,,,,,,,,,,,,,,,,
,,,,,,,,,,,,,,,,,198688,19,2022-01-28_16h09.47.299,lexical_decision_task_DD_L3,2021.2.3,MacIntel,59.97361161,,,,,,,,,,,0.728,1,,,,,,,,,,,,,,m,1,0.728,,,,,,,,0.153513107,-0.429387207,0,0,0,,0,147,147,43,1,MOSQUE,C,old,m,./images/MOSQUE.png,,,,,,,,,,,,,,,,,,,,,
,,,,,,,,,,,,,,,,,198688,19,2022-01-28_16h09.47.299,lexical_decision_task_DD_L3,2021.2.3,MacIntel,59.97361161,,,,,,,,,,,1.051,1,,,,,,,,,,,,,,z,1,1.051,,,,,,,,0.153513107,-0.429387207,0,0,0,,0,148,148,85,1,CHULK,HB,old,z,./images/CHULKHB.png,,,,,,,,,,,,,,,,,,,,,
,,,,,,,,,,,,,,,,,198688,19,2022-01-28_16h09.47.299,lexical_decision_task_DD_L3,2021.2.3,MacIntel,59.97361161,,,,,,,,,,,0.595,1,,,,,,,,,,,,,,m,1,0.595,,,,,,,,0.153513107,-0.429387207,0,0,0,,0,149,149,22,1,MELON,C,old,m,./images/MELON.png,,,,,,,,,,,,,,,,,,,,,
,,,,,,,,,,,,,,,,,198688,19,2022-01-28_16h09.47.299,lexical_decision_task_DD_L3,2021.2.3,MacIntel,59.97361161,,,,,,,,,,,1.6339,1,,,,,,,,,,,,,,z,1,1.6339,,,,,,,,0.153513107,-0.429387207,0,0,0,,0,150,150,154,1,THINT,HB,old,z,./images/THINTHB.png,,,,,,,,,,,,,,,,,,,,,
,,,,,,,,,,,,,,,,,198688,19,2022-01-28_16h09.47.299,lexical_decision_task_DD_L3,2021.2.3,MacIntel,59.97361161,,,,,,,,,,,0.6182,1,,,,,,,,,,,,,,z,1,0.6182,,,,,,,,0.153513107,-0.429387207,0,0,0,,0,151,151,86,1,AIFED,LB,old,z,./images/AIFEDLB.png,,,,,,,,,,,,,,,,,,,,,
,,,,,,,,,,,,,,,,,198688,19,2022-01-28_16h09.47.299,lexical_decision_task_DD_L3,2021.2.3,MacIntel,59.97361161,,,,,,,,,,,0.5328,1,,,,,,,,,,,,,,m,1,0.5328,,,,,,,,0.153513107,-0.429387207,0,0,0,,0,152,152,48,1,SPORT,LB,old,m,./images/SPORTLB.png,,,,,,,,,,,,,,,,,,,,,
,,,,,,,,,,,,,,,,,198688,19,2022-01-28_16h09.47.299,lexical_decision_task_DD_L3,2021.2.3,MacIntel,59.97361161,,,,,,,,,,,1.0477,1,,,,,,,,,,,,,,m,1,1.0477,,,,,,,,0.153513107,-0.429387207,0,0,0,,0,153,153,72,1,NOOSE,LB,old,m,./images/NOOSELB.png,,,,,,,,,,,,,,,,,,,,,
,,,,,,,,,,,,,,,,,198688,19,2022-01-28_16h09.47.299,lexical_decision_task_DD_L3,2021.2.3,MacIntel,59.97361161,,,,,,,,,,,0.7176,1,,,,,,,,,,,,,,z,1,0.7176,,,,,,,,0.153513107,-0.429387207,0,0,0,,0,154,154,114,1,RIKES,C,old,z,./images/RIKES.png,,,,,,,,,,,,,,,,,,,,,
,,,,,,,,,,,,,,,,,198688,19,2022-01-28_16h09.47.299,lexical_decision_task_DD_L3,2021.2.3,MacIntel,59.97361161,,,,,,,,,,,0.7141,1,,,,,,,,,,,,,,m,1,0.7141,,,,,,,,0.153513107,-0.429387207,0,0,0,,0,155,155,18,1,JAGUAR,LB,old,m,./images/JAGUARLB.png,,,,,,,,,,,,,,,,,,,,,
,,,,,,,,,,,,,,,,,198688,19,2022-01-28_16h09.47.299,lexical_decision_task_DD_L3,2021.2.3,MacIntel,59.97361161,,,,,,,,,,,1.5335,1,,,,,,,,,,,,,,z,1,1.5335,,,,,,,,0.153513107,-0.429387207,0,0,0,,0,156,156,106,1,CLUMS,HB,old,z,./images/CLUMSHB.png,,,,,,,,,,,,,,,,,,,,,
,,,,,,,,,,,,,,,,,198688,19,2022-01-28_16h09.47.299,lexical_decision_task_DD_L3,2021.2.3,MacIntel,59.97361161,,,,,,,,,,,0.717,1,,,,,,,,,,,,,,z,1,0.717,,,,,,,,0.153513107,-0.429387207,0,0,0,,0,157,157,116,1,BALGY,LB,old,z,./images/BALGYLB.png,,,,,,,,,,,,,,,,,,,,,
,,,,,,,,,,,,,,,,,198688,19,2022-01-28_16h09.47.299,lexical_decision_task_DD_L3,2021.2.3,MacIntel,59.97361161,,,,,,,,,,,0.9833,1,,,,,,,,,,,,,,m,1,0.9833,,,,,,,,0.153513107,-0.429387207,0,0,0,,0,158,158,31,1,QUILL,C,old,m,./images/QUILL.png,,,,,,,,,,,,,,,,,,,,,
,,,,,,,,,,,,,,,,,198688,19,2022-01-28_16h09.47.299,lexical_decision_task_DD_L3,2021.2.3,MacIntel,59.97361161,,,,,,,,,,,0.7462,1,,,,,,,,,,,,,,z,1,0.7462,,,,,,,,0.153513107,-0.429387207,0,0,0,,0,159,159,152,1,FRAIN,LB,old,z,./images/FRAINLB.png,,,,,,,,,,,,,,,,,,,,,
,,,,,,,,,,,,,,,,,198688,19,2022-01-28_16h09.47.299,lexical_decision_task_DD_L3,2021.2.3,MacIntel,59.97361161,,,,,,,,,,,0.7941,1,,,,,,,,,,,,,,z,1,0.7941,,,,,,,,0.153513107,-0.429387207,0,0,0,,0,160,160,108,1,GRUET,C,old,z,./images/GRUET.png,,,,,,,,,,,,,,,,,,,,,
,,,,,,,,,,,,,,,,,198688,19,2022-01-28_16h09.47.299,lexical_decision_task_DD_L3,2021.2.3,MacIntel,59.97361161,,,,,,,,,,,0.6963,1,,,,,,,,,,,,,,m,1,0.6963,,,,,,,,0.153513107,-0.429387207,0,0,0,,0,161,161,53,1,CARPET,HB,old,m,./images/CARPETHB.png,,,,,,,,,,,,,,,,,,,,,
,,,,,,,,,,,,,,,,,198688,19,2022-01-28_16h09.47.299,lexical_decision_task_DD_L3,2021.2.3,MacIntel,59.97361161,,,,,,,,,,,0.5449,1,,,,,,,,,,,,,,m,1,0.5449,,,,,,,,0.153513107,-0.429387207,0,0,0,,0,162,162,4,1,MUSCLE,C,old,m,./images/MUSCLE.png,,,,,,,,,,,,,,,,,,,,,
,,,,,,,,,,,,,,,,,198688,19,2022-01-28_16h09.47.299,lexical_decision_task_DD_L3,2021.2.3,MacIntel,59.97361161,,,,,,,,,,,0.6473,1,,,,,,,,,,,,,,z,1,0.6473,,,,,,,,0.153513107,-0.429387207,0,0,0,,0,163,163,117,1,STEEG,C,old,z,./images/STEEG.png,,,,,,,,,,,,,,,,,,,,,
,,,,,,,,,,,,,,,,,198688,19,2022-01-28_16h09.47.299,lexical_decision_task_DD_L3,2021.2.3,MacIntel,59.97361161,,,,,,,,,,,0.8814,1,,,,,,,,,,,,,,z,1,0.8814,,,,,,,,0.153513107,-0.429387207,0,0,0,,0,164,164,167,1,ZONET,LB,old,z,./images/ZONETLB.png,,,,,,,,,,,,,,,,,,,,,
,,,,,,,,,,,,,,,,,198688,19,2022-01-28_16h09.47.299,lexical_decision_task_DD_L3,2021.2.3,MacIntel,59.97361161,,,,,,,,,,,1.1941,1,,,,,,,,,,,,,,z,1,1.1941,,,,,,,,0.153513107,-0.429387207,0,0,0,,0,165,165,162,1,LEICH,C,old,z,./images/LEICH.png,,,,,,,,,,,,,,,,,,,,,
,,,,,,,,,,,,,,,,,198688,19,2022-01-28_16h09.47.299,lexical_decision_task_DD_L3,2021.2.3,MacIntel,59.97361161,,,,,,,,,,,0.9339,1,,,,,,,,,,,,,,z,1,0.9339,,,,,,,,0.153513107,-0.429387207,0,0,0,,0,166,166,161,1,BLAPS,LB,old,z,./images/BLAPSLB.png,,,,,,,,,,,,,,,,,,,,,
,,,,,,,,,,,,,,,,,198688,19,2022-01-28_16h09.47.299,lexical_decision_task_DD_L3,2021.2.3,MacIntel,59.97361161,,,,,,,,,,,0.5811,1,,,,,,,,,,,,,,m,1,0.5811,,,,,,,,0.153513107,-0.429387207,0,0,0,,0,167,167,27,1,ATTIC,LB,old,m,./images/ATTICLB.png,,,,,,,,,,,,,,,,,,,,,
,0.057923813,-0.366048431,1,0,0,instr_done_button,,,,,,1,test,"In the next phase you will be presented with the words from the the first phase. Your job is to decide whether you remember seeing the word or not. If you remember seeing the word press ""old"" or type ""m"". If you do not remember seeing the word press ""new"" or type ""z"". Please press the space bar or click on continue to begin. ",,,198688,19,2022-01-28_16h09.47.299,lexical_decision_task_DD_L3,2021.2.3,MacIntel,59.97361161,,,,,,,,,,,,,,,,,,,,,,,,,,,,,,,,,,,,,,,,,,,,,,,,,,,,,0,0,0,0,1,,,,,,,,,,,,,,,
,0.050603485,-0.394795685,1,0,0,instr_done_button,,,,,,1,test,"In the next phase you will be presented with the words from the the first phase. Your job is to decide whether you remember seeing the word or not. If you remember seeing the word press ""old"" or type ""m"". If you do not remember seeing the word press ""new"" or type ""z"". Please press the space bar or click on continue to begin. ",,,198688,19,2022-01-28_16h09.47.299,lexical_decision_task_DD_L3,2021.2.3,MacIntel,59.97361161,,,,,,,,,,,,,,,,,,,,,,,,,,,,,,,,,,,,,,,,,,,,,,,,,,,,,1,0,1,0,1,,,,,,,,,,,,,,,
,-0.022185822,-0.375054779,1,0,0,instr_done_button,,,,,,1,test,"In the next phase you will be presented with the words from the the first phase. Your job is to decide whether you remember seeing the word or not. If you remember seeing the word press ""old"" or type ""m"". If you do not remember seeing the word press ""new"" or type ""z"". Please press the space bar or click on continue to begin. ",,,198688,19,2022-01-28_16h09.47.299,lexical_decision_task_DD_L3,2021.2.3,MacIntel,59.97361161,,,,,,,,,,,,,,,,,,,,,,,,,,,,,,,,,,,,,,,,,,,,,,,,,,,,,2,0,2,0,1,,,,,,,,,,,,,,,
,0.015989761,-0.410339584,1,0,0,instr_done_button,,,,,,1,test,"In the next phase you will be presented with the words from the the first phase. Your job is to decide whether you remember seeing the word or not. If you remember seeing the word press ""old"" or type ""m"". If you do not remember seeing the word press ""new"" or type ""z"". Please press the space bar or click on continue to begin. ",,,198688,19,2022-01-28_16h09.47.299,lexical_decision_task_DD_L3,2021.2.3,MacIntel,59.97361161,,,,,,,,,,,,,,,,,,,,,,,,,,,,,,,,,,,,,,,,,,,,,,,,,,,,,3,0,3,0,1,,,,,,,,,,,,,,,
,0.015220718,-0.410244293,1,0,0,instr_done_button,,,,,,1,test,"In the next phase you will be presented with the words from the the first phase. Your job is to decide whether you remember seeing the word or not. If you remember seeing the word press ""old"" or type ""m"". If you do not remember seeing the word press ""new"" or type ""z"". Please press the space bar or click on continue to begin. ",,,198688,19,2022-01-28_16h09.47.299,lexical_decision_task_DD_L3,2021.2.3,MacIntel,59.97361161,,,,,,,,,,,,,,,,,,,,,,,,,,,,,,,,,,,,,,,,,,,,,,,,,,,,,4,0,4,0,1,,,,,,,,,,,,,,,
,,,,,,,,,,,,,,,,,198688,19,2022-01-28_16h09.47.299,lexical_decision_task_DD_L3,2021.2.3,MacIntel,59.97361161,,,,,,,,,,,2.5836,1,,,,,,,,,,,,,,,,,,,,,,,,0.014595718,-0.407119293,0,0,0,,,,,,,PARADE,HB,z,m,./images/PARADEHB.png,,,,,,,z,1,2.5836,,,,,,,,0,0,0,101,1
,,,,,,,,,,,,,,,,,198688,19,2022-01-28_16h09.47.299,lexical_decision_task_DD_L3,2021.2.3,MacIntel,59.97361161,,,,,,,,,,,1.3313,0,,,,,,,,,,,,,,,,,,,,,,,,0.014595718,-0.407119293,0,0,0,,,,,,,MOTOR,C,m,m,./images/MOTOR.png,,,,,,,z,0,1.3313,,,,,,,,0,1,1,13,1
,,,,,,,,,,,,,,,,,198688,19,2022-01-28_16h09.47.299,lexical_decision_task_DD_L3,2021.2.3,MacIntel,59.97361161,,,,,,,,,,,1.181,1,,,,,,,,,,,,,,,,,,,,,,,,0.014595718,-0.407119293,0,0,0,,,,,,,ONION,LB,m,m,./images/ONIONLB.png,,,,,,,m,1,1.181,,,,,,,,0,2,2,51,1
,,,,,,,,,,,,,,,,,198688,19,2022-01-28_16h09.47.299,lexical_decision_task_DD_L3,2021.2.3,MacIntel,59.97361161,,,,,,,,,,,0.5993,1,,,,,,,,,,,,,,,,,,,,,,,,0.014595718,-0.407119293,0,0,0,,,,,,,MAGGOT,LB,m,m,./images/MAGGOTLB.png,,,,,,,m,1,0.5993,,,,,,,,0,3,3,33,1
,,,,,,,,,,,,,,,,,198688,19,2022-01-28_16h09.47.299,lexical_decision_task_DD_L3,2021.2.3,MacIntel,59.97361161,,,,,,,,,,,0.8148,0,,,,,,,,,,,,,,,,,,,,,,,,0.014595718,-0.407119293,0,0,0,,,,,,,TOWEL,C,z,m,./images/TOWEL.png,,,,,,,m,0,0.8148,,,,,,,,0,4,4,85,1
,,,,,,,,,,,,,,,,,198688,19,2022-01-28_16h09.47.299,lexical_decision_task_DD_L3,2021.2.3,MacIntel,59.97361161,,,,,,,,,,,0.8172,1,,,,,,,,,,,,,,,,,,,,,,,,0.014595718,-0.407119293,0,0,0,,,,,,,ALLEY,C,z,m,./images/ALLEY.png,,,,,,,z,1,0.8172,,,,,,,,0,5,5,139,1
,,,,,,,,,,,,,,,,,198688,19,2022-01-28_16h09.47.299,lexical_decision_task_DD_L3,2021.2.3,MacIntel,59.97361161,,,,,,,,,,,0.7178,1,,,,,,,,,,,,,,,,,,,,,,,,0.014595718,-0.407119293,0,0,0,,,,,,,WHEEL,HB,z,m,./images/WHEELHB.png,,,,,,,z,1,0.7178,,,,,,,,0,6,6,161,1
,,,,,,,,,,,,,,,,,198688,19,2022-01-28_16h09.47.299,lexical_decision_task_DD_L3,2021.2.3,MacIntel,59.97361161,,,,,,,,,,,0.835,1,,,,,,,,,,,,,,,,,,,,,,,,0.014595718,-0.407119293,0,0,0,,,,,,,STOOL,C,z,m,./images/STOOL.png,,,,,,,z,1,0.835,,,,,,,,0,7,7,127,1
,,,,,,,,,,,,,,,,,198688,19,2022-01-28_16h09.47.299,lexical_decision_task_DD_L3,2021.2.3,MacIntel,59.97361161,,,,,,,,,,,1.0845,0,,,,,,,,,,,,,,,,,,,,,,,,0.014595718,-0.407119293,0,0,0,,,,,,,FOLDER,LB,m,m,./images/FOLDERLB.png,,,,,,,z,0,1.0845,,,,,,,,0,8,8,42,1
,,,,,,,,,,,,,,,,,198688,19,2022-01-28_16h09.47.299,lexical_decision_task_DD_L3,2021.2.3,MacIntel,59.97361161,,,,,,,,,,,0.7654,1,,,,,,,,,,,,,,,,,,,,,,,,0.014595718,-0.407119293,0,0,0,,,,,,,FERRY,LB,z,m,./images/FERRYLB.png,,,,,,,z,1,0.7654,,,,,,,,0,9,9,141,1
,,,,,,,,,,,,,,,,,198688,19,2022-01-28_16h09.47.299,lexical_decision_task_DD_L3,2021.2.3,MacIntel,59.97361161,,,,,,,,,,,1.6503,1,,,,,,,,,,,,,,,,,,,,,,,,0.014595718,-0.407119293,0,0,0,,,,,,,CRADLE,HB,m,m,./images/CRADLEHB.png,,,,,,,m,1,1.6503,,,,,,,,0,10,10,20,1
,,,,,,,,,,,,,,,,,198688,19,2022-01-28_16h09.47.299,lexical_decision_task_DD_L3,2021.2.3,MacIntel,59.97361161,,,,,,,,,,,0.7486,1,,,,,,,,,,,,,,,,,,,,,,,,0.014595718,-0.407119293,0,0,0,,,,,,,HAMMER,LB,z,m,./images/HAMMERLB.png,,,,,,,z,1,0.7486,,,,,,,,0,11,11,159,1
,,,,,,,,,,,,,,,,,198688,19,2022-01-28_16h09.47.299,lexical_decision_task_DD_L3,2021.2.3,MacIntel,59.97361161,,,,,,,,,,,0.6989,0,,,,,,,,,,,,,,,,,,,,,,,,0.014595718,-0.407119293,0,0,0,,,,,,,CANDLE,C,m,m,./images/CANDLE.png,,,,,,,z,0,0.6989,,,,,,,,0,12,12,61,1
,,,,,,,,,,,,,,,,,198688,19,2022-01-28_16h09.47.299,lexical_decision_task_DD_L3,2021.2.3,MacIntel,59.97361161,,,,,,,,,,,0.7499,1,,,,,,,,,,,,,,,,,,,,,,,,0.014595718,-0.407119293,0,0,0,,,,,,,ARROW,LB,z,m,./images/ARROWLB.png,,,,,,,z,1,0.7499,,,,,,,,0,13,13,153,1
,,,,,,,,,,,,,,,,,198688,19,2022-01-28_16h09.47.299,lexical_decision_task_DD_L3,2021.2.3,MacIntel,59.97361161,,,,,,,,,,,0.6808,0,,,,,,,,,,,,,,,,,,,,,,,,0.014595718,-0.407119293,0,0,0,,,,,,,DRUMS,C,m,m,./images/DRUMS.png,,,,,,,z,0,0.6808,,,,,,,,0,14,14,49,1
,,,,,,,,,,,,,,,,,198688,19,2022-01-28_16h09.47.299,lexical_decision_task_DD_L3,2021.2.3,MacIntel,59.97361161,,,,,,,,,,,0.8805,1,,,,,,,,,,,,,,,,,,,,,,,,0.014595718,-0.407119293,0,0,0,,,,,,,MONKEY,LB,z,m,./images/MONKEYLB.png,,,,,,,z,1,0.8805,,,,,,,,0,15,15,129,1
,,,,,,,,,,,,,,,,,198688,19,2022-01-28_16h09.47.299,lexical_decision_task_DD_L3,2021.2.3,MacIntel,59.97361161,,,,,,,,,,,1.132,1,,,,,,,,,,,,,,,,,,,,,,,,0.014595718,-0.407119293,0,0,0,,,,,,,PURSE,HB,m,m,./images/PURSEHB.png,,,,,,,m,1,1.132,,,,,,,,0,16,16,62,1
,,,,,,,,,,,,,,,,,198688,19,2022-01-28_16h09.47.299,lexical_decision_task_DD_L3,2021.2.3,MacIntel,59.97361161,,,,,,,,,,,1.2195,1,,,,,,,,,,,,,,,,,,,,,,,,0.014595718,-0.407119293,0,0,0,,,,,,,WRIST,C,m,m,./images/WRIST.png,,,,,,,m,1,1.2195,,,,,,,,0,17,17,25,1
,,,,,,,,,,,,,,,,,198688,19,2022-01-28_16h09.47.299,lexical_decision_task_DD_L3,2021.2.3,MacIntel,59.97361161,,,,,,,,,,,0.6655,1,,,,,,,,,,,,,,,,,,,,,,,,0.014595718,-0.407119293,0,0,0,,,,,,,PLANET,HB,z,m,./images/PLANETHB.png,,,,,,,z,1,0.6655,,,,,,,,0,18,18,164,1
,,,,,,,,,,,,,,,,,198688,19,2022-01-28_16h09.47.299,lexical_decision_task_DD_L3,2021.2.3,MacIntel,59.97361161,,,,,,,,,,,1.568,0,,,,,,,,,,,,,,,,,,,,,,,,0.014595718,-0.407119293,0,0,0,,,,,,,MIDGET,C,z,m,./images/MIDGET.png,,,,,,,m,0,1.568,,,,,,,,0,19,19,160,1
,,,,,,,,,,,,,,,,,198688,19,2022-01-28_16h09.47.299,lexical_decision_task_DD_L3,2021.2.3,MacIntel,59.97361161,,,,,,,,,,,0.5692,1,,,,,,,,,,,,,,,,,,,,,,,,0.014595718,-0.407119293,0,0,0,,,,,,,MALLET,HB,m,m,./images/MALLETHB.png,,,,,,,m,1,0.5692,,,,,,,,0,20,20,50,1
,,,,,,,,,,,,,,,,,198688,19,2022-01-28_16h09.47.299,lexical_decision_task_DD_L3,2021.2.3,MacIntel,59.97361161,,,,,,,,,,,0.6651,1,,,,,,,,,,,,,,,,,,,,,,,,0.014595718,-0.407119293,0,0,0,,,,,,,BOXER,C,z,m,./images/BOXER.png,,,,,,,z,1,0.6651,,,,,,,,0,21,21,88,1
,,,,,,,,,,,,,,,,,198688,19,2022-01-28_16h09.47.299,lexical_decision_task_DD_L3,2021.2.3,MacIntel,59.97361161,,,,,,,,,,,0.7313,0,,,,,,,,,,,,,,,,,,,,,,,,0.014595718,-0.407119293,0,0,0,,,,,,,MUSCLE,C,m,m,./images/MUSCLE.png,,,,,,,z,0,0.7313,,,,,,,,0,22,22,4,1
,,,,,,,,,,,,,,,,,198688,19,2022-01-28_16h09.47.299,lexical_decision_task_DD_L3,2021.2.3,MacIntel,59.97361161,,,,,,,,,,,1.0663,0,,,,,,,,,,,,,,,,,,,,,,,,0.014595718,-0.407119293,0,0,0,,,,,,,LIZARD,HB,m,m,./images/LIZARDHB.png,,,,,,,z,0,1.0663,,,,,,,,0,23,23,44,1
,,,,,,,,,,,,,,,,,198688,19,2022-01-28_16h09.47.299,lexical_decision_task_DD_L3,2021.2.3,MacIntel,59.97361161,,,,,,,,,,,1.15,1,,,,,,,,,,,,,,,,,,,,,,,,0.014595718,-0.407119293,0,0,0,,,,,,,LADDER,HB,m,m,./images/LADDERHB.png,,,,,,,m,1,1.15,,,,,,,,0,24,24,38,1
,,,,,,,,,,,,,,,,,198688,19,2022-01-28_16h09.47.299,lexical_decision_task_DD_L3,2021.2.3,MacIntel,59.97361161,,,,,,,,,,,0.6979,1,,,,,,,,,,,,,,,,,,,,,,,,0.014595718,-0.407119293,0,0,0,,,,,,,CASINO,C,z,m,./images/CASINO.png,,,,,,,z,1,0.6979,,,,,,,,0,25,25,112,1
,,,,,,,,,,,,,,,,,198688,19,2022-01-28_16h09.47.299,lexical_decision_task_DD_L3,2021.2.3,MacIntel,59.97361161,,,,,,,,,,,0.8184,1,,,,,,,,,,,,,,,,,,,,,,,,0.014595718,-0.407119293,0,0,0,,,,,,,JUMPER,HB,z,m,./images/JUMPERHB.png,,,,,,,z,1,0.8184,,,,,,,,0,26,26,158,1
,,,,,,,,,,,,,,,,,198688,19,2022-01-28_16h09.47.299,lexical_decision_task_DD_L3,2021.2.3,MacIntel,59.97361161,,,,,,,,,,,0.6659,1,,,,,,,,,,,,,,,,,,,,,,,,0.014595718,-0.407119293,0,0,0,,,,,,,BUBBLE,HB,z,m,./images/BUBBLEHB.png,,,,,,,z,1,0.6659,,,,,,,,0,27,27,155,1
,,,,,,,,,,,,,,,,,198688,19,2022-01-28_16h09.47.299,lexical_decision_task_DD_L3,2021.2.3,MacIntel,59.97361161,,,,,,,,,,,0.9323,1,,,,,,,,,,,,,,,,,,,,,,,,0.014595718,-0.407119293,0,0,0,,,,,,,THROAT,LB,m,m,./images/THROATLB.png,,,,,,,m,1,0.9323,,,,,,,,0,28,28,36,1
,,,,,,,,,,,,,,,,,198688,19,2022-01-28_16h09.47.299,lexical_decision_task_DD_L3,2021.2.3,MacIntel,59.97361161,,,,,,,,,,,0.8986,0,,,,,,,,,,,,,,,,,,,,,,,,0.014595718,-0.407119293,0,0,0,,,,,,,ENGINE,HB,z,m,./images/ENGINEHB.png,,,,,,,m,0,0.8986,,,,,,,,0,29,29,122,1
,,,,,,,,,,,,,,,,,198688,19,2022-01-28_16h09.47.299,lexical_decision_task_DD_L3,2021.2.3,MacIntel,59.97361161,,,,,,,,,,,0.5646,0,,,,,,,,,,,,,,,,,,,,,,,,0.014595718,-0.407119293,0,0,0,,,,,,,BUTTER,LB,z,m,./images/BUTTERLB.png,,,,,,,m,0,0.5646,,,,,,,,0,30,30,111,1
,,,,,,,,,,,,,,,,,198688,19,2022-01-28_16h09.47.299,lexical_decision_task_DD_L3,2021.2.3,MacIntel,59.97361161,,,,,,,,,,,0.581,1,,,,,,,,,,,,,,,,,,,,,,,,0.014595718,-0.407119293,0,0,0,,,,,,,BEARD,HB,m,m,./images/BEARDHB.png,,,,,,,m,1,0.581,,,,,,,,0,31,31,2,1
,,,,,,,,,,,,,,,,,198688,19,2022-01-28_16h09.47.299,lexical_decision_task_DD_L3,2021.2.3,MacIntel,59.97361161,,,,,,,,,,,1.0824,0,,,,,,,,,,,,,,,,,,,,,,,,0.014595718,-0.407119293,0,0,0,,,,,,,BLOKE,LB,z,m,./images/BLOKELB.png,,,,,,,m,0,1.0824,,,,,,,,0,32,32,96,1
,,,,,,,,,,,,,,,,,198688,19,2022-01-28_16h09.47.299,lexical_decision_task_DD_L3,2021.2.3,MacIntel,59.97361161,,,,,,,,,,,0.6486,1,,,,,,,,,,,,,,,,,,,,,,,,0.014595718,-0.407119293,0,0,0,,,,,,,BONNET,HB,m,m,./images/BONNETHB.png,,,,,,,m,1,0.6486,,,,,,,,0,33,33,11,1
,,,,,,,,,,,,,,,,,198688,19,2022-01-28_16h09.47.299,lexical_decision_task_DD_L3,2021.2.3,MacIntel,59.97361161,,,,,,,,,,,1.0323,1,,,,,,,,,,,,,,,,,,,,,,,,0.014595718,-0.407119293,0,0,0,,,,,,,NOOSE,LB,m,m,./images/NOOSELB.png,,,,,,,m,1,1.0323,,,,,,,,0,34,34,72,1
,,,,,,,,,,,,,,,,,198688,19,2022-01-28_16h09.47.299,lexical_decision_task_DD_L3,2021.2.3,MacIntel,59.97361161,,,,,,,,,,,0.6549,1,,,,,,,,,,,,,,,,,,,,,,,,0.014595718,-0.407119293,0,0,0,,,,,,,BELLY,C,m,m,./images/BELLY.png,,,,,,,m,1,0.6549,,,,,,,,0,35,35,10,1
,,,,,,,,,,,,,,,,,198688,19,2022-01-28_16h09.47.299,lexical_decision_task_DD_L3,2021.2.3,MacIntel,59.97361161,,,,,,,,,,,1.116,0,,,,,,,,,,,,,,,,,,,,,,,,0.014595718,-0.407119293,0,0,0,,,,,,,SUNSET,C,m,m,./images/SUNSET.png,,,,,,,z,0,1.116,,,,,,,,0,36,36,82,1
,,,,,,,,,,,,,,,,,198688,19,2022-01-28_16h09.47.299,lexical_decision_task_DD_L3,2021.2.3,MacIntel,59.97361161,,,,,,,,,,,1.3673,1,,,,,,,,,,,,,,,,,,,,,,,,0.014595718,-0.407119293,0,0,0,,,,,,,POKER,C,z,m,./images/POKER.png,,,,,,,z,1,1.3673,,,,,,,,0,37,37,151,1
,,,,,,,,,,,,,,,,,198688,19,2022-01-28_16h09.47.299,lexical_decision_task_DD_L3,2021.2.3,MacIntel,59.97361161,,,,,,,,,,,0.9164,1,,,,,,,,,,,,,,,,,,,,,,,,0.014595718,-0.407119293,0,0,0,,,,,,,RHINO,LB,m,m,./images/RHINOLB.png,,,,,,,m,1,0.9164,,,,,,,,0,38,38,9,1
,,,,,,,,,,,,,,,,,198688,19,2022-01-28_16h09.47.299,lexical_decision_task_DD_L3,2021.2.3,MacIntel,59.97361161,,,,,,,,,,,0.9997,1,,,,,,,,,,,,,,,,,,,,,,,,0.014595718,-0.407119293,0,0,0,,,,,,,PENCE,C,m,m,./images/PENCE.png,,,,,,,m,1,0.9997,,,,,,,,0,39,39,16,1
,,,,,,,,,,,,,,,,,198688,19,2022-01-28_16h09.47.299,lexical_decision_task_DD_L3,2021.2.3,MacIntel,59.97361161,,,,,,,,,,,1.0658,1,,,,,,,,,,,,,,,,,,,,,,,,0.014595718,-0.407119293,0,0,0,,,,,,,TWINS,LB,m,m,./images/TWINSLB.png,,,,,,,m,1,1.0658,,,,,,,,0,40,40,60,1
,,,,,,,,,,,,,,,,,198688,19,2022-01-28_16h09.47.299,lexical_decision_task_DD_L3,2021.2.3,MacIntel,59.97361161,,,,,,,,,,,0.6004,0,,,,,,,,,,,,,,,,,,,,,,,,0.031981277,-0.374713821,1,0,0,,,,,,,STEAK,C,z,m,./images/STEAK.png,break_done_button,,,,,,m,0,0.6004,,,,,,,,0,41,41,115,1
,,,,,,,,,,,,,,,,,198688,19,2022-01-28_16h09.47.299,lexical_decision_task_DD_L3,2021.2.3,MacIntel,59.97361161,,,,,,,,,,,0.9684,0,,,,,,,,,,,,,,,,,,,,,,,,0.031981277,-0.375338821,0,0,0,,,,,,,WEASEL,HB,m,m,./images/WEASELHB.png,,,,,,,z,0,0.9684,,,,,,,,0,42,42,80,1
,,,,,,,,,,,,,,,,,198688,19,2022-01-28_16h09.47.299,lexical_decision_task_DD_L3,2021.2.3,MacIntel,59.97361161,,,,,,,,,,,0.9658,1,,,,,,,,,,,,,,,,,,,,,,,,0.031981277,-0.375338821,0,0,0,,,,,,,BUNNY,C,z,m,./images/BUNNY.png,,,,,,,z,1,0.9658,,,,,,,,0,43,43,97,1
,,,,,,,,,,,,,,,,,198688,19,2022-01-28_16h09.47.299,lexical_decision_task_DD_L3,2021.2.3,MacIntel,59.97361161,,,,,,,,,,,0.6318,1,,,,,,,,,,,,,,,,,,,,,,,,0.031981277,-0.375338821,0,0,0,,,,,,,BARREL,HB,m,m,./images/BARRELHB.png,,,,,,,m,1,0.6318,,,,,,,,0,44,44,32,1
,,,,,,,,,,,,,,,,,198688,19,2022-01-28_16h09.47.299,lexical_decision_task_DD_L3,2021.2.3,MacIntel,59.97361161,,,,,,,,,,,0.6361,0,,,,,,,,,,,,,,,,,,,,,,,,0.031981277,-0.375338821,0,0,0,,,,,,,POSTER,HB,z,m,./images/POSTERHB.png,,,,,,,m,0,0.6361,,,,,,,,0,45,45,137,1
,,,,,,,,,,,,,,,,,198688,19,2022-01-28_16h09.47.299,lexical_decision_task_DD_L3,2021.2.3,MacIntel,59.97361161,,,,,,,,,,,0.5499,0,,,,,,,,,,,,,,,,,,,,,,,,0.031981277,-0.375338821,0,0,0,,,,,,,STAIN,LB,z,m,./images/STAINLB.png,,,,,,,m,0,0.5499,,,,,,,,0,46,46,90,1
,,,,,,,,,,,,,,,,,198688,19,2022-01-28_16h09.47.299,lexical_decision_task_DD_L3,2021.2.3,MacIntel,59.97361161,,,,,,,,,,,0.7672,1,,,,,,,,,,,,,,,,,,,,,,,,0.031981277,-0.375338821,0,0,0,,,,,,,SQUARE,LB,m,m,./images/SQUARELB.png,,,,,,,m,1,0.7672,,,,,,,,0,47,47,6,1
,,,,,,,,,,,,,,,,,198688,19,2022-01-28_16h09.47.299,lexical_decision_task_DD_L3,2021.2.3,MacIntel,59.97361161,,,,,,,,,,,0.9048,1,,,,,,,,,,,,,,,,,,,,,,,,0.031981277,-0.375338821,0,0,0,,,,,,,GARDEN,C,z,m,./images/GARDEN.png,,,,,,,z,1,0.9048,,,,,,,,0,48,48,94,1
,,,,,,,,,,,,,,,,,198688,19,2022-01-28_16h09.47.299,lexical_decision_task_DD_L3,2021.2.3,MacIntel,59.97361161,,,,,,,,,,,0.5834,1,,,,,,,,,,,,,,,,,,,,,,,,0.031981277,-0.375338821,0,0,0,,,,,,,PEBBLE,C,z,m,./images/PEBBLE.png,,,,,,,z,1,0.5834,,,,,,,,0,49,49,166,1
,,,,,,,,,,,,,,,,,198688,19,2022-01-28_16h09.47.299,lexical_decision_task_DD_L3,2021.2.3,MacIntel,59.97361161,,,,,,,,,,,0.5677,0,,,,,,,,,,,,,,,,,,,,,,,,0.031981277,-0.375338821,0,0,0,,,,,,,BANNER,C,m,m,./images/BANNER.png,,,,,,,z,0,0.5677,,,,,,,,0,50,50,52,1
,,,,,,,,,,,,,,,,,198688,19,2022-01-28_16h09.47.299,lexical_decision_task_DD_L3,2021.2.3,MacIntel,59.97361161,,,,,,,,,,,0.6006,1,,,,,,,,,,,,,,,,,,,,,,,,0.031981277,-0.375338821,0,0,0,,,,,,,SMOKER,HB,m,m,./images/SMOKERHB.png,,,,,,,m,1,0.6006,,,,,,,,0,51,51,26,1
,,,,,,,,,,,,,,,,,198688,19,2022-01-28_16h09.47.299,lexical_decision_task_DD_L3,2021.2.3,MacIntel,59.97361161,,,,,,,,,,,0.9989,1,,,,,,,,,,,,,,,,,,,,,,,,0.031981277,-0.375338821,0,0,0,,,,,,,MAMMAL,HB,z,m,./images/MAMMALHB.png,,,,,,,z,1,0.9989,,,,,,,,0,52,52,146,1
,,,,,,,,,,,,,,,,,198688,19,2022-01-28_16h09.47.299,lexical_decision_task_DD_L3,2021.2.3,MacIntel,59.97361161,,,,,,,,,,,0.5817,1,,,,,,,,,,,,,,,,,,,,,,,,0.031981277,-0.375338821,0,0,0,,,,,,,CEMENT,HB,m,m,./images/CEMENTHB.png,,,,,,,m,1,0.5817,,,,,,,,0,53,53,74,1
,,,,,,,,,,,,,,,,,198688,19,2022-01-28_16h09.47.299,lexical_decision_task_DD_L3,2021.2.3,MacIntel,59.97361161,,,,,,,,,,,0.5046,0,,,,,,,,,,,,,,,,,,,,,,,,0.031981277,-0.375338821,0,0,0,,,,,,,SNAKE,C,z,m,./images/SNAKE.png,,,,,,,m,0,0.5046,,,,,,,,0,54,54,124,1
,,,,,,,,,,,,,,,,,198688,19,2022-01-28_16h09.47.299,lexical_decision_task_DD_L3,2021.2.3,MacIntel,59.97361161,,,,,,,,,,,0.4663,0,,,,,,,,,,,,,,,,,,,,,,,,0.031981277,-0.375338821,0,0,0,,,,,,,STREAM,HB,z,m,./images/STREAMHB.png,,,,,,,m,0,0.4663,,,,,,,,0,55,55,125,1
,,,,,,,,,,,,,,,,,198688,19,2022-01-28_16h09.47.299,lexical_decision_task_DD_L3,2021.2.3,MacIntel,59.97361161,,,,,,,,,,,0.9825,1,,,,,,,,,,,,,,,,,,,,,,,,0.031981277,-0.375338821,0,0,0,,,,,,,SAUCE,LB,z,m,./images/SAUCELB.png,,,,,,,z,1,0.9825,,,,,,,,0,56,56,135,1
,,,,,,,,,,,,,,,,,198688,19,2022-01-28_16h09.47.299,lexical_decision_task_DD_L3,2021.2.3,MacIntel,59.97361161,,,,,,,,,,,0.5161,0,,,,,,,,,,,,,,,,,,,,,,,,0.031981277,-0.375338821,0,0,0,,,,,,,CHAIN,LB,z,m,./images/CHAINLB.png,,,,,,,m,0,0.5161,,,,,,,,0,57,57,126,1
,,,,,,,,,,,,,,,,,198688,19,2022-01-28_16h09.47.299,lexical_decision_task_DD_L3,2021.2.3,MacIntel,59.97361161,,,,,,,,,,,0.8004,0,,,,,,,,,,,,,,,,,,,,,,,,0.031981277,-0.375338821,0,0,0,,,,,,,VALLEY,HB,z,m,./images/VALLEYHB.png,,,,,,,m,0,0.8004,,,,,,,,0,58,58,152,1
,,,,,,,,,,,,,,,,,198688,19,2022-01-28_16h09.47.299,lexical_decision_task_DD_L3,2021.2.3,MacIntel,59.97361161,,,,,,,,,,,1.018,1,,,,,,,,,,,,,,,,,,,,,,,,0.031981277,-0.375338821,0,0,0,,,,,,,COLLAR,LB,z,m,./images/COLLARLB.png,,,,,,,z,1,1.018,,,,,,,,0,59,59,99,1
,,,,,,,,,,,,,,,,,198688,19,2022-01-28_16h09.47.299,lexical_decision_task_DD_L3,2021.2.3,MacIntel,59.97361161,,,,,,,,,,,0.8809,0,,,,,,,,,,,,,,,,,,,,,,,,0.031981277,-0.375338821,0,0,0,,,,,,,WALNUT,LB,z,m,./images/WALNUTLB.png,,,,,,,m,0,0.8809,,,,,,,,0,60,60,84,1
,,,,,,,,,,,,,,,,,198688,19,2022-01-28_16h09.47.299,lexical_decision_task_DD_L3,2021.2.3,MacIntel,59.97361161,,,,,,,,,,,0.7659,1,,,,,,,,,,,,,,,,,,,,,,,,0.031981277,-0.375338821,0,0,0,,,,,,,PILOT,HB,z,m,./images/PILOTHB.png,,,,,,,z,1,0.7659,,,,,,,,0,61,61,134,1
,,,,,,,,,,,,,,,,,198688,19,2022-01-28_16h09.47.299,lexical_decision_task_DD_L3,2021.2.3,MacIntel,59.97361161,,,,,,,,,,,0.6343,1,,,,,,,,,,,,,,,,,,,,,,,,0.031981277,-0.375338821,0,0,0,,,,,,,PASTA,HB,m,m,./images/PASTAHB.png,,,,,,,m,1,0.6343,,,,,,,,0,62,62,5,1
,,,,,,,,,,,,,,,,,198688,19,2022-01-28_16h09.47.299,lexical_decision_task_DD_L3,2021.2.3,MacIntel,59.97361161,,,,,,,,,,,0.4648,0,,,,,,,,,,,,,,,,,,,,,,,,0.031981277,-0.375338821,0,0,0,,,,,,,FLESH,LB,z,m,./images/FLESHLB.png,,,,,,,m,0,0.4648,,,,,,,,0,63,63,108,1
,,,,,,,,,,,,,,,,,198688,19,2022-01-28_16h09.47.299,lexical_decision_task_DD_L3,2021.2.3,MacIntel,59.97361161,,,,,,,,,,,0.6361,1,,,,,,,,,,,,,,,,,,,,,,,,0.031981277,-0.375338821,0,0,0,,,,,,,BABOON,C,m,m,./images/BABOON.png,,,,,,,m,1,0.6361,,,,,,,,0,64,64,58,1
,,,,,,,,,,,,,,,,,198688,19,2022-01-28_16h09.47.299,lexical_decision_task_DD_L3,2021.2.3,MacIntel,59.97361161,,,,,,,,,,,0.5811,1,,,,,,,,,,,,,,,,,,,,,,,,0.031981277,-0.375338821,0,0,0,,,,,,,PACKET,HB,m,m,./images/PACKETHB.png,,,,,,,m,1,0.5811,,,,,,,,0,65,65,56,1
,,,,,,,,,,,,,,,,,198688,19,2022-01-28_16h09.47.299,lexical_decision_task_DD_L3,2021.2.3,MacIntel,59.97361161,,,,,,,,,,,0.8321,1,,,,,,,,,,,,,,,,,,,,,,,,0.031981277,-0.375338821,0,0,0,,,,,,,PICKLE,HB,m,m,./images/PICKLEHB.png,,,,,,,m,1,0.8321,,,,,,,,0,66,66,14,1
,,,,,,,,,,,,,,,,,198688,19,2022-01-28_16h09.47.299,lexical_decision_task_DD_L3,2021.2.3,MacIntel,59.97361161,,,,,,,,,,,0.6343,1,,,,,,,,,,,,,,,,,,,,,,,,0.031981277,-0.375338821,0,0,0,,,,,,,MIRROR,LB,m,m,./images/MIRRORLB.png,,,,,,,m,1,0.6343,,,,,,,,0,67,67,63,1
,,,,,,,,,,,,,,,,,198688,19,2022-01-28_16h09.47.299,lexical_decision_task_DD_L3,2021.2.3,MacIntel,59.97361161,,,,,,,,,,,0.7147,1,,,,,,,,,,,,,,,,,,,,,,,,0.031981277,-0.375338821,0,0,0,,,,,,,WALRUS,HB,m,m,./images/WALRUSHB.png,,,,,,,m,1,0.7147,,,,,,,,0,68,68,23,1
,,,,,,,,,,,,,,,,,198688,19,2022-01-28_16h09.47.299,lexical_decision_task_DD_L3,2021.2.3,MacIntel,59.97361161,,,,,,,,,,,0.718,0,,,,,,,,,,,,,,,,,,,,,,,,0.031981277,-0.375338821,0,0,0,,,,,,,MEDAL,HB,z,m,./images/MEDALHB.png,,,,,,,m,0,0.718,,,,,,,,0,69,69,95,1
,,,,,,,,,,,,,,,,,198688,19,2022-01-28_16h09.47.299,lexical_decision_task_DD_L3,2021.2.3,MacIntel,59.97361161,,,,,,,,,,,0.5831,1,,,,,,,,,,,,,,,,,,,,,,,,0.031981277,-0.375338821,0,0,0,,,,,,,GREASE,LB,m,m,./images/GREASELB.png,,,,,,,m,1,0.5831,,,,,,,,0,70,70,15,1
,,,,,,,,,,,,,,,,,198688,19,2022-01-28_16h09.47.299,lexical_decision_task_DD_L3,2021.2.3,MacIntel,59.97361161,,,,,,,,,,,0.7984,1,,,,,,,,,,,,,,,,,,,,,,,,0.031981277,-0.375338821,0,0,0,,,,,,,MOOSE,LB,m,m,./images/MOOSELB.png,,,,,,,m,1,0.7984,,,,,,,,0,71,71,57,1
,,,,,,,,,,,,,,,,,198688,19,2022-01-28_16h09.47.299,lexical_decision_task_DD_L3,2021.2.3,MacIntel,59.97361161,,,,,,,,,,,0.5828,0,,,,,,,,,,,,,,,,,,,,,,,,0.031981277,-0.375338821,0,0,0,,,,,,,BAMBOO,HB,z,m,./images/BAMBOOHB.png,,,,,,,m,0,0.5828,,,,,,,,0,72,72,89,1
,,,,,,,,,,,,,,,,,198688,19,2022-01-28_16h09.47.299,lexical_decision_task_DD_L3,2021.2.3,MacIntel,59.97361161,,,,,,,,,,,0.6662,1,,,,,,,,,,,,,,,,,,,,,,,,0.031981277,-0.375338821,0,0,0,,,,,,,STRING,HB,m,m,./images/STRINGHB.png,,,,,,,m,1,0.6662,,,,,,,,0,73,73,41,1
,,,,,,,,,,,,,,,,,198688,19,2022-01-28_16h09.47.299,lexical_decision_task_DD_L3,2021.2.3,MacIntel,59.97361161,,,,,,,,,,,0.4491,1,,,,,,,,,,,,,,,,,,,,,,,,0.031981277,-0.375338821,0,0,0,,,,,,,SCREW,LB,m,m,./images/SCREWLB.png,,,,,,,m,1,0.4491,,,,,,,,0,74,74,24,1
,,,,,,,,,,,,,,,,,198688,19,2022-01-28_16h09.47.299,lexical_decision_task_DD_L3,2021.2.3,MacIntel,59.97361161,,,,,,,,,,,0.6035,1,,,,,,,,,,,,,,,,,,,,,,,,0.031981277,-0.375338821,0,0,0,,,,,,,CRATER,LB,z,m,./images/CRATERLB.png,,,,,,,z,1,0.6035,,,,,,,,0,75,75,87,1
,,,,,,,,,,,,,,,,,198688,19,2022-01-28_16h09.47.299,lexical_decision_task_DD_L3,2021.2.3,MacIntel,59.97361161,,,,,,,,,,,0.7985,1,,,,,,,,,,,,,,,,,,,,,,,,0.031981277,-0.375338821,0,0,0,,,,,,,INFANT,C,m,m,./images/INFANT.png,,,,,,,m,1,0.7985,,,,,,,,0,76,76,76,1
,,,,,,,,,,,,,,,,,198688,19,2022-01-28_16h09.47.299,lexical_decision_task_DD_L3,2021.2.3,MacIntel,59.97361161,,,,,,,,,,,1.068,0,,,,,,,,,,,,,,,,,,,,,,,,0.031981277,-0.375338821,0,0,0,,,,,,,MUFFIN,C,m,m,./images/MUFFIN.png,,,,,,,z,0,1.068,,,,,,,,0,77,77,55,1
,,,,,,,,,,,,,,,,,198688,19,2022-01-28_16h09.47.299,lexical_decision_task_DD_L3,2021.2.3,MacIntel,59.97361161,,,,,,,,,,,0.6527,0,,,,,,,,,,,,,,,,,,,,,,,,0.031981277,-0.375338821,0,0,0,,,,,,,PARCEL,LB,z,m,./images/PARCELLB.png,,,,,,,m,0,0.6527,,,,,,,,0,78,78,102,1
,,,,,,,,,,,,,,,,,198688,19,2022-01-28_16h09.47.299,lexical_decision_task_DD_L3,2021.2.3,MacIntel,59.97361161,,,,,,,,,,,0.5812,0,,,,,,,,,,,,,,,,,,,,,,,,0.031981277,-0.375338821,0,0,0,,,,,,,CHERRY,LB,z,m,./images/CHERRYLB.png,,,,,,,m,0,0.5812,,,,,,,,0,79,79,138,1
,,,,,,,,,,,,,,,,,198688,19,2022-01-28_16h09.47.299,lexical_decision_task_DD_L3,2021.2.3,MacIntel,59.97361161,,,,,,,,,,,0.6845,0,,,,,,,,,,,,,,,,,,,,,,,,0.031981277,-0.375338821,0,0,0,,,,,,,HOCKEY,HB,z,m,./images/HOCKEYHB.png,,,,,,,m,0,0.6845,,,,,,,,0,80,80,116,1
,,,,,,,,,,,,,,,,,198688,19,2022-01-28_16h09.47.299,lexical_decision_task_DD_L3,2021.2.3,MacIntel,59.97361161,,,,,,,,,,,0.705,1,,,,,,,,,,,,,,,,,,,,,,,,0.031981277,-0.375338821,0,0,0,,,,,,,SAUNA,LB,z,m,./images/SAUNALB.png,,,,,,,z,1,0.705,,,,,,,,0,81,81,117,1
,,,,,,,,,,,,,,,,,198688,19,2022-01-28_16h09.47.299,lexical_decision_task_DD_L3,2021.2.3,MacIntel,59.97361161,,,,,,,,,,,0.5852,1,,,,,,,,,,,,,,,,,,,,,,,,0.031981277,-0.375338821,0,0,0,,,,,,,FALCON,C,m,m,./images/FALCON.png,,,,,,,m,1,0.5852,,,,,,,,0,82,82,28,1
,,,,,,,,,,,,,,,,,198688,19,2022-01-28_16h09.47.299,lexical_decision_task_DD_L3,2021.2.3,MacIntel,59.97361161,,,,,,,,,,,0.6357,1,,,,,,,,,,,,,,,,,,,,,,,,0.031981277,-0.375338821,1,0,0,,,,,,,POODLE,LB,m,m,./images/POODLELB.png,break_done_button,,,,,,m,1,0.6357,,,,,,,,0,83,83,81,1
,,,,,,,,,,,,,,,,,198688,19,2022-01-28_16h09.47.299,lexical_decision_task_DD_L3,2021.2.3,MacIntel,59.97361161,,,,,,,,,,,0.7003,0,,,,,,,,,,,,,,,,,,,,,,,,0.031981277,-0.375338821,0,0,0,,,,,,,TIGER,C,z,m,./images/TIGER.png,,,,,,,m,0,0.7003,,,,,,,,0,84,84,121,1
,,,,,,,,,,,,,,,,,198688,19,2022-01-28_16h09.47.299,lexical_decision_task_DD_L3,2021.2.3,MacIntel,59.97361161,,,,,,,,,,,0.9328,0,,,,,,,,,,,,,,,,,,,,,,,,0.031981277,-0.375338821,0,0,0,,,,,,,BOILER,LB,z,m,./images/BOILERLB.png,,,,,,,m,0,0.9328,,,,,,,,0,85,85,120,1
,,,,,,,,,,,,,,,,,198688,19,2022-01-28_16h09.47.299,lexical_decision_task_DD_L3,2021.2.3,MacIntel,59.97361161,,,,,,,,,,,0.5664,0,,,,,,,,,,,,,,,,,,,,,,,,0.031981277,-0.375338821,0,0,0,,,,,,,HEATER,HB,z,m,./images/HEATERHB.png,,,,,,,m,0,0.5664,,,,,,,,0,86,86,140,1
,,,,,,,,,,,,,,,,,198688,19,2022-01-28_16h09.47.299,lexical_decision_task_DD_L3,2021.2.3,MacIntel,59.97361161,,,,,,,,,,,0.3494,0,,,,,,,,,,,,,,,,,,,,,,,,0.031981277,-0.375338821,0,0,0,,,,,,,DIVER,LB,z,m,./images/DIVERLB.png,,,,,,,m,0,0.3494,,,,,,,,0,87,87,93,1
,,,,,,,,,,,,,,,,,198688,19,2022-01-28_16h09.47.299,lexical_decision_task_DD_L3,2021.2.3,MacIntel,59.97361161,,,,,,,,,,,0.2655,1,,,,,,,,,,,,,,,,,,,,,,,,0.031981277,-0.375338821,0,0,0,,,,,,,PAINT,C,m,m,./images/PAINT.png,,,,,,,m,1,0.2655,,,,,,,,0,88,88,7,1
,,,,,,,,,,,,,,,,,198688,19,2022-01-28_16h09.47.299,lexical_decision_task_DD_L3,2021.2.3,MacIntel,59.97361161,,,,,,,,,,,0.5691,0,,,,,,,,,,,,,,,,,,,,,,,,0.031981277,-0.375338821,0,0,0,,,,,,,FENCE,HB,z,m,./images/FENCEHB.png,,,,,,,m,0,0.5691,,,,,,,,0,89,89,98,1
,,,,,,,,,,,,,,,,,198688,19,2022-01-28_16h09.47.299,lexical_decision_task_DD_L3,2021.2.3,MacIntel,59.97361161,,,,,,,,,,,0.5841,1,,,,,,,,,,,,,,,,,,,,,,,,0.031981277,-0.375338821,0,0,0,,,,,,,SHIELD,LB,z,m,./images/SHIELDLB.png,,,,,,,z,1,0.5841,,,,,,,,0,90,90,132,1
,,,,,,,,,,,,,,,,,198688,19,2022-01-28_16h09.47.299,lexical_decision_task_DD_L3,2021.2.3,MacIntel,59.97361161,,,,,,,,,,,0.7217,1,,,,,,,,,,,,,,,,,,,,,,,,0.031981277,-0.375338821,0,0,0,,,,,,,BERRY,HB,m,m,./images/BERRYHB.png,,,,,,,m,1,0.7217,,,,,,,,0,91,91,47,1
,,,,,,,,,,,,,,,,,198688,19,2022-01-28_16h09.47.299,lexical_decision_task_DD_L3,2021.2.3,MacIntel,59.97361161,,,,,,,,,,,0.6984,1,,,,,,,,,,,,,,,,,,,,,,,,0.031981277,-0.375338821,0,0,0,,,,,,,DOUGH,C,m,m,./images/DOUGH.png,,,,,,,m,1,0.6984,,,,,,,,0,92,92,19,1
,,,,,,,,,,,,,,,,,198688,19,2022-01-28_16h09.47.299,lexical_decision_task_DD_L3,2021.2.3,MacIntel,59.97361161,,,,,,,,,,,0.853,0,,,,,,,,,,,,,,,,,,,,,,,,0.031981277,-0.375338821,0,0,0,,,,,,,DONKEY,C,z,m,./images/DONKEY.png,,,,,,,m,0,0.853,,,,,,,,0,93,93,103,1
,,,,,,,,,,,,,,,,,198688,19,2022-01-28_16h09.47.299,lexical_decision_task_DD_L3,2021.2.3,MacIntel,59.97361161,,,,,,,,,,,0.6029,1,,,,,,,,,,,,,,,,,,,,,,,,0.031981277,-0.375338821,0,0,0,,,,,,,GRAIN,LB,m,m,./images/GRAINLB.png,,,,,,,m,1,0.6029,,,,,,,,0,94,94,75,1
,,,,,,,,,,,,,,,,,198688,19,2022-01-28_16h09.47.299,lexical_decision_task_DD_L3,2021.2.3,MacIntel,59.97361161,,,,,,,,,,,0.9648,0,,,,,,,,,,,,,,,,,,,,,,,,0.031981277,-0.375338821,0,0,0,,,,,,,DESERT,C,z,m,./images/DESERT.png,,,,,,,m,0,0.9648,,,,,,,,0,95,95,136,1
,,,,,,,,,,,,,,,,,198688,19,2022-01-28_16h09.47.299,lexical_decision_task_DD_L3,2021.2.3,MacIntel,59.97361161,,,,,,,,,,,0.5183,1,,,,,,,,,,,,,,,,,,,,,,,,0.031981277,-0.375338821,0,0,0,,,,,,,SWEAT,LB,m,m,./images/SWEATLB.png,,,,,,,m,1,0.5183,,,,,,,,0,96,96,66,1
,,,,,,,,,,,,,,,,,198688,19,2022-01-28_16h09.47.299,lexical_decision_task_DD_L3,2021.2.3,MacIntel,59.97361161,,,,,,,,,,,0.9323,1,,,,,,,,,,,,,,,,,,,,,,,,0.031981277,-0.375338821,0,0,0,,,,,,,SPORT,LB,m,m,./images/SPORTLB.png,,,,,,,m,1,0.9323,,,,,,,,0,97,97,48,1
,,,,,,,,,,,,,,,,,198688,19,2022-01-28_16h09.47.299,lexical_decision_task_DD_L3,2021.2.3,MacIntel,59.97361161,,,,,,,,,,,0.5833,1,,,,,,,,,,,,,,,,,,,,,,,,0.031981277,-0.375338821,0,0,0,,,,,,,ATTIC,LB,m,m,./images/ATTICLB.png,,,,,,,m,1,0.5833,,,,,,,,0,98,98,27,1
,,,,,,,,,,,,,,,,,198688,19,2022-01-28_16h09.47.299,lexical_decision_task_DD_L3,2021.2.3,MacIntel,59.97361161,,,,,,,,,,,0.9171,1,,,,,,,,,,,,,,,,,,,,,,,,0.031981277,-0.375338821,0,0,0,,,,,,,BANANA,C,z,m,./images/BANANA.png,,,,,,,z,1,0.9171,,,,,,,,0,99,99,154,1
,,,,,,,,,,,,,,,,,198688,19,2022-01-28_16h09.47.299,lexical_decision_task_DD_L3,2021.2.3,MacIntel,59.97361161,,,,,,,,,,,0.7813,0,,,,,,,,,,,,,,,,,,,,,,,,0.031981277,-0.375338821,0,0,0,,,,,,,SHELF,LB,m,m,./images/SHELFLB.png,,,,,,,z,0,0.7813,,,,,,,,0,100,100,39,1
,,,,,,,,,,,,,,,,,198688,19,2022-01-28_16h09.47.299,lexical_decision_task_DD_L3,2021.2.3,MacIntel,59.97361161,,,,,,,,,,,0.6649,1,,,,,,,,,,,,,,,,,,,,,,,,0.031981277,-0.375338821,0,0,0,,,,,,,COUCH,HB,m,m,./images/COUCHHB.png,,,,,,,m,1,0.6649,,,,,,,,0,101,101,77,1
,,,,,,,,,,,,,,,,,198688,19,2022-01-28_16h09.47.299,lexical_decision_task_DD_L3,2021.2.3,MacIntel,59.97361161,,,,,,,,,,,0.6375,0,,,,,,,,,,,,,,,,,,,,,,,,0.031981277,-0.375338821,0,0,0,,,,,,,PEARL,C,m,m,./images/PEARL.png,,,,,,,z,0,0.6375,,,,,,,,0,102,102,46,1
,,,,,,,,,,,,,,,,,198688,19,2022-01-28_16h09.47.299,lexical_decision_task_DD_L3,2021.2.3,MacIntel,59.97361161,,,,,,,,,,,0.8199,0,,,,,,,,,,,,,,,,,,,,,,,,0.031981277,-0.375338821,0,0,0,,,,,,,CANYON,C,m,m,./images/CANYON.png,,,,,,,z,0,0.8199,,,,,,,,0,103,103,34,1
,,,,,,,,,,,,,,,,,198688,19,2022-01-28_16h09.47.299,lexical_decision_task_DD_L3,2021.2.3,MacIntel,59.97361161,,,,,,,,,,,0.8373,1,,,,,,,,,,,,,,,,,,,,,,,,0.031981277,-0.375338821,0,0,0,,,,,,,CLIFF,HB,z,m,./images/CLIFFHB.png,,,,,,,z,1,0.8373,,,,,,,,0,104,104,92,1
,,,,,,,,,,,,,,,,,198688,19,2022-01-28_16h09.47.299,lexical_decision_task_DD_L3,2021.2.3,MacIntel,59.97361161,,,,,,,,,,,0.9142,0,,,,,,,,,,,,,,,,,,,,,,,,0.031981277,-0.375338821,0,0,0,,,,,,,FLASK,LB,z,m,./images/FLASKLB.png,,,,,,,m,0,0.9142,,,,,,,,0,105,105,156,1
,,,,,,,,,,,,,,,,,198688,19,2022-01-28_16h09.47.299,lexical_decision_task_DD_L3,2021.2.3,MacIntel,59.97361161,,,,,,,,,,,0.482,1,,,,,,,,,,,,,,,,,,,,,,,,0.031981277,-0.375338821,0,0,0,,,,,,,JELLY,C,m,m,./images/JELLY.png,,,,,,,m,1,0.482,,,,,,,,0,106,106,64,1
,,,,,,,,,,,,,,,,,198688,19,2022-01-28_16h09.47.299,lexical_decision_task_DD_L3,2021.2.3,MacIntel,59.97361161,,,,,,,,,,,0.5491,0,,,,,,,,,,,,,,,,,,,,,,,,0.031981277,-0.375338821,0,0,0,,,,,,,CANDY,LB,z,m,./images/CANDYLB.png,,,,,,,m,0,0.5491,,,,,,,,0,107,107,123,1
,,,,,,,,,,,,,,,,,198688,19,2022-01-28_16h09.47.299,lexical_decision_task_DD_L3,2021.2.3,MacIntel,59.97361161,,,,,,,,,,,0.4829,0,,,,,,,,,,,,,,,,,,,,,,,,0.031981277,-0.375338821,0,0,0,,,,,,,BROOM,LB,z,m,./images/BROOMLB.png,,,,,,,m,0,0.4829,,,,,,,,0,108,108,162,1
,,,,,,,,,,,,,,,,,198688,19,2022-01-28_16h09.47.299,lexical_decision_task_DD_L3,2021.2.3,MacIntel,59.97361161,,,,,,,,,,,0.6993,1,,,,,,,,,,,,,,,,,,,,,,,,0.031981277,-0.375338821,0,0,0,,,,,,,WAGON,C,z,m,./images/WAGON.png,,,,,,,z,1,0.6993,,,,,,,,0,109,109,91,1
,,,,,,,,,,,,,,,,,198688,19,2022-01-28_16h09.47.299,lexical_decision_task_DD_L3,2021.2.3,MacIntel,59.97361161,,,,,,,,,,,0.7162,1,,,,,,,,,,,,,,,,,,,,,,,,0.031981277,-0.375338821,0,0,0,,,,,,,BASKET,HB,z,m,./images/BASKETHB.png,,,,,,,z,1,0.7162,,,,,,,,0,110,110,128,1
,,,,,,,,,,,,,,,,,198688,19,2022-01-28_16h09.47.299,lexical_decision_task_DD_L3,2021.2.3,MacIntel,59.97361161,,,,,,,,,,,0.7981,1,,,,,,,,,,,,,,,,,,,,,,,,0.031981277,-0.375338821,0,0,0,,,,,,,TRIPOD,LB,m,m,./images/TRIPODLB.png,,,,,,,m,1,0.7981,,,,,,,,0,111,111,54,1
,,,,,,,,,,,,,,,,,198688,19,2022-01-28_16h09.47.299,lexical_decision_task_DD_L3,2021.2.3,MacIntel,59.97361161,,,,,,,,,,,0.549,1,,,,,,,,,,,,,,,,,,,,,,,,0.031981277,-0.375338821,0,0,0,,,,,,,SWING,C,m,m,./images/SWING.png,,,,,,,m,1,0.549,,,,,,,,0,112,112,40,1
,,,,,,,,,,,,,,,,,198688,19,2022-01-28_16h09.47.299,lexical_decision_task_DD_L3,2021.2.3,MacIntel,59.97361161,,,,,,,,,,,0.5823,1,,,,,,,,,,,,,,,,,,,,,,,,0.031981277,-0.375338821,0,0,0,,,,,,,SAILOR,C,m,m,./images/SAILOR.png,,,,,,,m,1,0.5823,,,,,,,,0,113,113,67,1
,,,,,,,,,,,,,,,,,198688,19,2022-01-28_16h09.47.299,lexical_decision_task_DD_L3,2021.2.3,MacIntel,59.97361161,,,,,,,,,,,0.499,0,,,,,,,,,,,,,,,,,,,,,,,,0.031981277,-0.375338821,0,0,0,,,,,,,CHALK,C,z,m,./images/CHALK.png,,,,,,,m,0,0.499,,,,,,,,0,114,114,109,1
,,,,,,,,,,,,,,,,,198688,19,2022-01-28_16h09.47.299,lexical_decision_task_DD_L3,2021.2.3,MacIntel,59.97361161,,,,,,,,,,,0.5349,1,,,,,,,,,,,,,,,,,,,,,,,,0.031981277,-0.375338821,0,0,0,,,,,,,SLOPE,LB,z,m,./images/SLOPELB.png,,,,,,,z,1,0.5349,,,,,,,,0,115,115,114,1
,,,,,,,,,,,,,,,,,198688,19,2022-01-28_16h09.47.299,lexical_decision_task_DD_L3,2021.2.3,MacIntel,59.97361161,,,,,,,,,,,0.4506,1,,,,,,,,,,,,,,,,,,,,,,,,0.031981277,-0.375338821,0,0,0,,,,,,,JAGUAR,LB,m,m,./images/JAGUARLB.png,,,,,,,m,1,0.4506,,,,,,,,0,116,116,18,1
,,,,,,,,,,,,,,,,,198688,19,2022-01-28_16h09.47.299,lexical_decision_task_DD_L3,2021.2.3,MacIntel,59.97361161,,,,,,,,,,,0.6985,0,,,,,,,,,,,,,,,,,,,,,,,,0.031981277,-0.375338821,0,0,0,,,,,,,MUMMY,C,z,m,./images/MUMMY.png,,,,,,,m,0,0.6985,,,,,,,,0,117,117,130,1
,,,,,,,,,,,,,,,,,198688,19,2022-01-28_16h09.47.299,lexical_decision_task_DD_L3,2021.2.3,MacIntel,59.97361161,,,,,,,,,,,1.1355,1,,,,,,,,,,,,,,,,,,,,,,,,0.031981277,-0.375338821,0,0,0,,,,,,,CANOE,C,z,m,./images/CANOE.png,,,,,,,z,1,1.1355,,,,,,,,0,118,118,142,1
,,,,,,,,,,,,,,,,,198688,19,2022-01-28_16h09.47.299,lexical_decision_task_DD_L3,2021.2.3,MacIntel,59.97361161,,,,,,,,,,,0.5684,1,,,,,,,,,,,,,,,,,,,,,,,,0.031981277,-0.375338821,0,0,0,,,,,,,STOVE,HB,z,m,./images/STOVEHB.png,,,,,,,z,1,0.5684,,,,,,,,0,119,119,86,1
,,,,,,,,,,,,,,,,,198688,19,2022-01-28_16h09.47.299,lexical_decision_task_DD_L3,2021.2.3,MacIntel,59.97361161,,,,,,,,,,,0.6003,1,,,,,,,,,,,,,,,,,,,,,,,,0.031981277,-0.375338821,0,0,0,,,,,,,CURRY,LB,z,m,./images/CURRYLB.png,,,,,,,z,1,0.6003,,,,,,,,0,120,120,144,1
,,,,,,,,,,,,,,,,,198688,19,2022-01-28_16h09.47.299,lexical_decision_task_DD_L3,2021.2.3,MacIntel,59.97361161,,,,,,,,,,,0.8845,1,,,,,,,,,,,,,,,,,,,,,,,,0.031981277,-0.375338821,0,0,0,,,,,,,SPINE,HB,z,m,./images/SPINEHB.png,,,,,,,z,1,0.8845,,,,,,,,0,121,121,149,1
,,,,,,,,,,,,,,,,,198688,19,2022-01-28_16h09.47.299,lexical_decision_task_DD_L3,2021.2.3,MacIntel,59.97361161,,,,,,,,,,,0.6323,1,,,,,,,,,,,,,,,,,,,,,,,,0.031981277,-0.375338821,0,0,0,,,,,,,STATUE,LB,z,m,./images/STATUELB.png,,,,,,,z,1,0.6323,,,,,,,,0,122,122,150,1
,,,,,,,,,,,,,,,,,198688,19,2022-01-28_16h09.47.299,lexical_decision_task_DD_L3,2021.2.3,MacIntel,59.97361161,,,,,,,,,,,0.7358,1,,,,,,,,,,,,,,,,,,,,,,,,0.031981277,-0.375338821,0,0,0,,,,,,,CRUMB,HB,m,m,./images/CRUMBHB.png,,,,,,,m,1,0.7358,,,,,,,,0,123,123,29,1
,,,,,,,,,,,,,,,,,198688,19,2022-01-28_16h09.47.299,lexical_decision_task_DD_L3,2021.2.3,MacIntel,59.97361161,,,,,,,,,,,0.5828,1,,,,,,,,,,,,,,,,,,,,,,,,0.031981277,-0.375338821,0,0,0,,,,,,,CRUST,C,m,m,./images/CRUST.png,,,,,,,m,1,0.5828,,,,,,,,0,124,124,79,1
,,,,,,,,,,,,,,,,,198688,19,2022-01-28_16h09.47.299,lexical_decision_task_DD_L3,2021.2.3,MacIntel,59.97361161,,,,,,,,,,,0.5988,1,,,,,,,,,,,,,,,,,,,,,,,,0.031981277,-0.375338821,1,0,0,,,,,,,URINE,C,m,m,./images/URINE.png,break_done_button,,,,,,m,1,0.5988,,,,,,,,0,125,125,70,1
,,,,,,,,,,,,,,,,,198688,19,2022-01-28_16h09.47.299,lexical_decision_task_DD_L3,2021.2.3,MacIntel,59.97361161,,,,,,,,,,,0.6978,1,,,,,,,,,,,,,,,,,,,,,,,,0.031981277,-0.375338821,0,0,0,,,,,,,PEACH,HB,m,m,./images/PEACHHB.png,,,,,,,m,1,0.6978,,,,,,,,0,126,126,35,1
,,,,,,,,,,,,,,,,,198688,19,2022-01-28_16h09.47.299,lexical_decision_task_DD_L3,2021.2.3,MacIntel,59.97361161,,,,,,,,,,,0.5673,0,,,,,,,,,,,,,,,,,,,,,,,,0.031981277,-0.375338821,0,0,0,,,,,,,BISHOP,C,z,m,./images/BISHOP.png,,,,,,,m,0,0.5673,,,,,,,,0,127,127,133,1
,,,,,,,,,,,,,,,,,198688,19,2022-01-28_16h09.47.299,lexical_decision_task_DD_L3,2021.2.3,MacIntel,59.97361161,,,,,,,,,,,0.6671,1,,,,,,,,,,,,,,,,,,,,,,,,0.031981277,-0.375338821,0,0,0,,,,,,,BRIDE,C,z,m,./images/BRIDE.png,,,,,,,z,1,0.6671,,,,,,,,0,128,128,148,1
,,,,,,,,,,,,,,,,,198688,19,2022-01-28_16h09.47.299,lexical_decision_task_DD_L3,2021.2.3,MacIntel,59.97361161,,,,,,,,,,,0.5009,0,,,,,,,,,,,,,,,,,,,,,,,,0.031981277,-0.375338821,0,0,0,,,,,,,BRUSH,HB,z,m,./images/BRUSHHB.png,,,,,,,m,0,0.5009,,,,,,,,0,129,129,143,1
,,,,,,,,,,,,,,,,,198688,19,2022-01-28_16h09.47.299,lexical_decision_task_DD_L3,2021.2.3,MacIntel,59.97361161,,,,,,,,,,,0.5313,1,,,,,,,,,,,,,,,,,,,,,,,,0.031981277,-0.375338821,0,0,0,,,,,,,COOKER,LB,m,m,./images/COOKERLB.png,,,,,,,m,1,0.5313,,,,,,,,0,130,130,69,1
,,,,,,,,,,,,,,,,,198688,19,2022-01-28_16h09.47.299,lexical_decision_task_DD_L3,2021.2.3,MacIntel,59.97361161,,,,,,,,,,,0.8484,0,,,,,,,,,,,,,,,,,,,,,,,,0.031981277,-0.375338821,0,0,0,,,,,,,LAGOON,HB,z,m,./images/LAGOONHB.png,,,,,,,m,0,0.8484,,,,,,,,0,131,131,131,1
,,,,,,,,,,,,,,,,,198688,19,2022-01-28_16h09.47.299,lexical_decision_task_DD_L3,2021.2.3,MacIntel,59.97361161,,,,,,,,,,,0.7979,1,,,,,,,,,,,,,,,,,,,,,,,,0.031981277,-0.375338821,0,0,0,,,,,,,CLOUD,HB,z,m,./images/CLOUDHB.png,,,,,,,z,1,0.7979,,,,,,,,0,132,132,110,1
,,,,,,,,,,,,,,,,,198688,19,2022-01-28_16h09.47.299,lexical_decision_task_DD_L3,2021.2.3,MacIntel,59.97361161,,,,,,,,,,,0.6489,1,,,,,,,,,,,,,,,,,,,,,,,,0.031981277,-0.375338821,0,0,0,,,,,,,SHORE,LB,m,m,./images/SHORELB.png,,,,,,,m,1,0.6489,,,,,,,,0,133,133,12,1
,,,,,,,,,,,,,,,,,198688,19,2022-01-28_16h09.47.299,lexical_decision_task_DD_L3,2021.2.3,MacIntel,59.97361161,,,,,,,,,,,0.9493,1,,,,,,,,,,,,,,,,,,,,,,,,0.031981277,-0.375338821,0,0,0,,,,,,,DRILL,LB,z,m,./images/DRILLLB.png,,,,,,,z,1,0.9493,,,,,,,,0,134,134,165,1
,,,,,,,,,,,,,,,,,198688,19,2022-01-28_16h09.47.299,lexical_decision_task_DD_L3,2021.2.3,MacIntel,59.97361161,,,,,,,,,,,0.7196,1,,,,,,,,,,,,,,,,,,,,,,,,0.031981277,-0.375338821,0,0,0,,,,,,,BURIAL,HB,m,m,./images/BURIALHB.png,,,,,,,m,1,0.7196,,,,,,,,0,135,135,59,1
,,,,,,,,,,,,,,,,,198688,19,2022-01-28_16h09.47.299,lexical_decision_task_DD_L3,2021.2.3,MacIntel,59.97361161,,,,,,,,,,,0.618,0,,,,,,,,,,,,,,,,,,,,,,,,0.031981277,-0.375338821,0,0,0,,,,,,,LLAMA,HB,z,m,./images/LLAMAHB.png,,,,,,,m,0,0.618,,,,,,,,0,136,136,119,1
,,,,,,,,,,,,,,,,,198688,19,2022-01-28_16h09.47.299,lexical_decision_task_DD_L3,2021.2.3,MacIntel,59.97361161,,,,,,,,,,,0.5317,1,,,,,,,,,,,,,,,,,,,,,,,,0.031981277,-0.375338821,0,0,0,,,,,,,FARMER,HB,m,m,./images/FARMERHB.png,,,,,,,m,1,0.5317,,,,,,,,0,137,137,65,1
,,,,,,,,,,,,,,,,,198688,19,2022-01-28_16h09.47.299,lexical_decision_task_DD_L3,2021.2.3,MacIntel,59.97361161,,,,,,,,,,,0.7143,1,,,,,,,,,,,,,,,,,,,,,,,,0.031981277,-0.375338821,0,0,0,,,,,,,STORM,LB,m,m,./images/STORMLB.png,,,,,,,m,1,0.7143,,,,,,,,0,138,138,30,1
,,,,,,,,,,,,,,,,,198688,19,2022-01-28_16h09.47.299,lexical_decision_task_DD_L3,2021.2.3,MacIntel,59.97361161,,,,,,,,,,,0.9335,1,,,,,,,,,,,,,,,,,,,,,,,,0.031981277,-0.375338821,0,0,0,,,,,,,TOMATO,LB,m,m,./images/TOMATOLB.png,,,,,,,m,1,0.9335,,,,,,,,0,139,139,0,1
,,,,,,,,,,,,,,,,,198688,19,2022-01-28_16h09.47.299,lexical_decision_task_DD_L3,2021.2.3,MacIntel,59.97361161,,,,,,,,,,,0.9173,1,,,,,,,,,,,,,,,,,,,,,,,,0.031981277,-0.375338821,0,0,0,,,,,,,CLOWN,C,z,m,./images/CLOWN.png,,,,,,,z,1,0.9173,,,,,,,,0,140,140,106,1
,,,,,,,,,,,,,,,,,198688,19,2022-01-28_16h09.47.299,lexical_decision_task_DD_L3,2021.2.3,MacIntel,59.97361161,,,,,,,,,,,0.6178,1,,,,,,,,,,,,,,,,,,,,,,,,0.031981277,-0.375338821,0,0,0,,,,,,,GRAPE,C,z,m,./images/GRAPE.png,,,,,,,z,1,0.6178,,,,,,,,0,141,141,100,1
,,,,,,,,,,,,,,,,,198688,19,2022-01-28_16h09.47.299,lexical_decision_task_DD_L3,2021.2.3,MacIntel,59.97361161,,,,,,,,,,,0.633,1,,,,,,,,,,,,,,,,,,,,,,,,0.031981277,-0.375338821,0,0,0,,,,,,,ARTIST,C,z,m,./images/ARTIST.png,,,,,,,z,1,0.633,,,,,,,,0,142,142,145,1
,,,,,,,,,,,,,,,,,198688,19,2022-01-28_16h09.47.299,lexical_decision_task_DD_L3,2021.2.3,MacIntel,59.97361161,,,,,,,,,,,0.9175,1,,,,,,,,,,,,,,,,,,,,,,,,0.031981277,-0.375338821,0,0,0,,,,,,,PISTOL,HB,z,m,./images/PISTOLHB.png,,,,,,,z,1,0.9175,,,,,,,,0,143,143,113,1
,,,,,,,,,,,,,,,,,198688,19,2022-01-28_16h09.47.299,lexical_decision_task_DD_L3,2021.2.3,MacIntel,59.97361161,,,,,,,,,,,1.1201,1,,,,,,,,,,,,,,,,,,,,,,,,0.031981277,-0.375338821,0,0,0,,,,,,,MOSQUE,C,m,m,./images/MOSQUE.png,,,,,,,m,1,1.1201,,,,,,,,0,144,144,43,1
,,,,,,,,,,,,,,,,,198688,19,2022-01-28_16h09.47.299,lexical_decision_task_DD_L3,2021.2.3,MacIntel,59.97361161,,,,,,,,,,,1.0674,1,,,,,,,,,,,,,,,,,,,,,,,,0.031981277,-0.375338821,0,0,0,,,,,,,JUNGLE,HB,m,m,./images/JUNGLEHB.png,,,,,,,m,1,1.0674,,,,,,,,0,145,145,83,1
,,,,,,,,,,,,,,,,,198688,19,2022-01-28_16h09.47.299,lexical_decision_task_DD_L3,2021.2.3,MacIntel,59.97361161,,,,,,,,,,,0.8155,0,,,,,,,,,,,,,,,,,,,,,,,,0.031981277,-0.375338821,0,0,0,,,,,,,LITTER,LB,m,m,./images/LITTERLB.png,,,,,,,z,0,0.8155,,,,,,,,0,146,146,78,1
,,,,,,,,,,,,,,,,,198688,19,2022-01-28_16h09.47.299,lexical_decision_task_DD_L3,2021.2.3,MacIntel,59.97361161,,,,,,,,,,,0.5679,0,,,,,,,,,,,,,,,,,,,,,,,,0.031981277,-0.375338821,0,0,0,,,,,,,BAKER,LB,z,m,./images/BAKERLB.png,,,,,,,m,0,0.5679,,,,,,,,0,147,147,147,1
,,,,,,,,,,,,,,,,,198688,19,2022-01-28_16h09.47.299,lexical_decision_task_DD_L3,2021.2.3,MacIntel,59.97361161,,,,,,,,,,,0.7679,1,,,,,,,,,,,,,,,,,,,,,,,,0.031981277,-0.375338821,0,0,0,,,,,,,TORCH,HB,m,m,./images/TORCHHB.png,,,,,,,m,1,0.7679,,,,,,,,0,148,148,68,1
,,,,,,,,,,,,,,,,,198688,19,2022-01-28_16h09.47.299,lexical_decision_task_DD_L3,2021.2.3,MacIntel,59.97361161,,,,,,,,,,,0.5839,1,,,,,,,,,,,,,,,,,,,,,,,,0.031981277,-0.375338821,0,0,0,,,,,,,RAZOR,C,z,m,./images/RAZOR.png,,,,,,,z,1,0.5839,,,,,,,,0,149,149,118,1
,,,,,,,,,,,,,,,,,198688,19,2022-01-28_16h09.47.299,lexical_decision_task_DD_L3,2021.2.3,MacIntel,59.97361161,,,,,,,,,,,1.0535,0,,,,,,,,,,,,,,,,,,,,,,,,0.031981277,-0.375338821,0,0,0,,,,,,,CLOTH,HB,z,m,./images/CLOTHHB.png,,,,,,,m,0,1.0535,,,,,,,,0,150,150,107,1
,,,,,,,,,,,,,,,,,198688,19,2022-01-28_16h09.47.299,lexical_decision_task_DD_L3,2021.2.3,MacIntel,59.97361161,,,,,,,,,,,0.8477,1,,,,,,,,,,,,,,,,,,,,,,,,0.031981277,-0.375338821,0,0,0,,,,,,,DANCER,LB,z,m,./images/DANCERLB.png,,,,,,,z,1,0.8477,,,,,,,,0,151,151,105,1
,,,,,,,,,,,,,,,,,198688,19,2022-01-28_16h09.47.299,lexical_decision_task_DD_L3,2021.2.3,MacIntel,59.97361161,,,,,,,,,,,0.4984,0,,,,,,,,,,,,,,,,,,,,,,,,0.031981277,-0.375338821,0,0,0,,,,,,,TULIP,HB,m,m,./images/TULIPHB.png,,,,,,,z,0,0.4984,,,,,,,,0,152,152,8,1
,,,,,,,,,,,,,,,,,198688,19,2022-01-28_16h09.47.299,lexical_decision_task_DD_L3,2021.2.3,MacIntel,59.97361161,,,,,,,,,,,0.9169,1,,,,,,,,,,,,,,,,,,,,,,,,0.031981277,-0.375338821,0,0,0,,,,,,,FINGER,LB,m,m,./images/FINGERLB.png,,,,,,,m,1,0.9169,,,,,,,,0,153,153,3,1
,,,,,,,,,,,,,,,,,198688,19,2022-01-28_16h09.47.299,lexical_decision_task_DD_L3,2021.2.3,MacIntel,59.97361161,,,,,,,,,,,1.6538,1,,,,,,,,,,,,,,,,,,,,,,,,0.031981277,-0.375338821,0,0,0,,,,,,,CARPET,HB,m,m,./images/CARPETHB.png,,,,,,,m,1,1.6538,,,,,,,,0,154,154,53,1
,,,,,,,,,,,,,,,,,198688,19,2022-01-28_16h09.47.299,lexical_decision_task_DD_L3,2021.2.3,MacIntel,59.97361161,,,,,,,,,,,0.8492,1,,,,,,,,,,,,,,,,,,,,,,,,0.031981277,-0.375338821,0,0,0,,,,,,,WHISKY,HB,z,m,./images/WHISKYHB.png,,,,,,,z,1,0.8492,,,,,,,,0,155,155,167,1
,,,,,,,,,,,,,,,,,198688,19,2022-01-28_16h09.47.299,lexical_decision_task_DD_L3,2021.2.3,MacIntel,59.97361161,,,,,,,,,,,0.9168,1,,,,,,,,,,,,,,,,,,,,,,,,0.031981277,-0.375338821,0,0,0,,,,,,,MELON,C,m,m,./images/MELON.png,,,,,,,m,1,0.9168,,,,,,,,0,156,156,22,1
,,,,,,,,,,,,,,,,,198688,19,2022-01-28_16h09.47.299,lexical_decision_task_DD_L3,2021.2.3,MacIntel,59.97361161,,,,,,,,,,,0.864,1,,,,,,,,,,,,,,,,,,,,,,,,0.031981277,-0.375338821,0,0,0,,,,,,,BIRTH,C,m,m,./images/BIRTH.png,,,,,,,m,1,0.864,,,,,,,,0,157,157,37,1
,,,,,,,,,,,,,,,,,198688,19,2022-01-28_16h09.47.299,lexical_decision_task_DD_L3,2021.2.3,MacIntel,59.97361161,,,,,,,,,,,0.754,0,,,,,,,,,,,,,,,,,,,,,,,,0.031981277,-0.375338821,0,0,0,,,,,,,RULER,C,z,m,./images/RULER.png,,,,,,,m,0,0.754,,,,,,,,0,158,158,163,1
,,,,,,,,,,,,,,,,,198688,19,2022-01-28_16h09.47.299,lexical_decision_task_DD_L3,2021.2.3,MacIntel,59.97361161,,,,,,,,,,,0.9646,1,,,,,,,,,,,,,,,,,,,,,,,,0.031981277,-0.375338821,0,0,0,,,,,,,KIDNEY,LB,m,m,./images/KIDNEYLB.png,,,,,,,m,1,0.9646,,,,,,,,0,159,159,21,1
,,,,,,,,,,,,,,,,,198688,19,2022-01-28_16h09.47.299,lexical_decision_task_DD_L3,2021.2.3,MacIntel,59.97361161,,,,,,,,,,,0.7499,1,,,,,,,,,,,,,,,,,,,,,,,,0.031981277,-0.375338821,0,0,0,,,,,,,QUILL,C,m,m,./images/QUILL.png,,,,,,,m,1,0.7499,,,,,,,,0,160,160,31,1
,,,,,,,,,,,,,,,,,198688,19,2022-01-28_16h09.47.299,lexical_decision_task_DD_L3,2021.2.3,MacIntel,59.97361161,,,,,,,,,,,0.6848,1,,,,,,,,,,,,,,,,,,,,,,,,0.031981277,-0.375338821,0,0,0,,,,,,,PIMPLE,HB,m,m,./images/PIMPLEHB.png,,,,,,,m,1,0.6848,,,,,,,,0,161,161,71,1
,,,,,,,,,,,,,,,,,198688,19,2022-01-28_16h09.47.299,lexical_decision_task_DD_L3,2021.2.3,MacIntel,59.97361161,,,,,,,,,,,0.6701,1,,,,,,,,,,,,,,,,,,,,,,,,0.031981277,-0.375338821,0,0,0,,,,,,,SKIING,HB,m,m,./images/SKIINGHB.png,,,,,,,m,1,0.6701,,,,,,,,0,162,162,17,1
,,,,,,,,,,,,,,,,,198688,19,2022-01-28_16h09.47.299,lexical_decision_task_DD_L3,2021.2.3,MacIntel,59.97361161,,,,,,,,,,,0.7479,0,,,,,,,,,,,,,,,,,,,,,,,,0.031981277,-0.375338821,0,0,0,,,,,,,SNACK,C,m,m,./images/SNACK.png,,,,,,,z,0,0.7479,,,,,,,,0,163,163,73,1
,,,,,,,,,,,,,,,,,198688,19,2022-01-28_16h09.47.299,lexical_decision_task_DD_L3,2021.2.3,MacIntel,59.97361161,,,,,,,,,,,0.8815,1,,,,,,,,,,,,,,,,,,,,,,,,0.031981277,-0.375338821,0,0,0,,,,,,,KITTEN,LB,m,m,./images/KITTENLB.png,,,,,,,m,1,0.8815,,,,,,,,0,164,164,45,1
,,,,,,,,,,,,,,,,,198688,19,2022-01-28_16h09.47.299,lexical_decision_task_DD_L3,2021.2.3,MacIntel,59.97361161,,,,,,,,,,,1.4481,1,,,,,,,,,,,,,,,,,,,,,,,,0.031981277,-0.375338821,0,0,0,,,,,,,GRANNY,HB,z,m,./images/GRANNYHB.png,,,,,,,z,1,1.4481,,,,,,,,0,165,165,104,1
,,,,,,,,,,,,,,,,,198688,19,2022-01-28_16h09.47.299,lexical_decision_task_DD_L3,2021.2.3,MacIntel,59.97361161,,,,,,,,,,,1.0984,1,,,,,,,,,,,,,,,,,,,,,,,,0.031981277,-0.375338821,0,0,0,,,,,,,PLANK,C,m,m,./images/PLANK.png,,,,,,,m,1,1.0984,,,,,,,,0,166,166,1,1
,,,,,,,,,,,,,,,,,198688,19,2022-01-28_16h09.47.299,lexical_decision_task_DD_L3,2021.2.3,MacIntel,59.97361161,,,,,,,,,,,1.8686,1,,,,,,,,,,,,,,,,,,,,,,,,0.035171967,-0.361833878,0,0,0,,,,,,,GLOVE,C,z,m,./images/GLOVE.png,,,,,,,z,1,1.8686,,,,,,,,0,167,167,157,1
