key_resp.keys,instr_done_touch.x,instr_done_touch.y,instr_done_touch.leftButton,instr_done_touch.midButton,instr_done_touch.rightButton,instr_done_touch.clicked_name,instruction_pages.thisRepN,instruction_pages.thisTrialN,instruction_pages.thisN,instruction_pages.thisIndex,instruction_pages.ran,pageN,phase,instruct_text,has_image,instruct_image,participant,age,date,expName,psychopyVersion,OS,frameRate,key_resp.rt,response.keys,response.corr,response.rt,touch_resp.x,touch_resp.y,touch_resp.leftButton,touch_resp.midButton,touch_resp.rightButton,touch_resp.time,touch_resp.clicked_name,rt,corr,practrials.thisRepN,practrials.thisTrialN,practrials.thisN,practrials.thisIndex,practrials.ran,TrialID,Target,corrAns,end_of_practice_trials_pages.thisRepN,end_of_practice_trials_pages.thisTrialN,end_of_practice_trials_pages.thisN,end_of_practice_trials_pages.thisIndex,end_of_practice_trials_pages.ran,key_resp_2.keys,key_resp_2.corr,key_resp_2.rt,targ_click.x,targ_click.y,targ_click.leftButton,targ_click.midButton,targ_click.rightButton,targ_click.time,targ_click.clicked_name,break_done_touch.x,break_done_touch.y,break_done_touch.leftButton,break_done_touch.midButton,break_done_touch.rightButton,break_done_keyboard.keys,maintrials.thisRepN,maintrials.thisTrialN,maintrials.thisN,maintrials.thisIndex,maintrials.ran,string,blur,study,lex,stim_path,break_done_touch.clicked_name,break_done_keyboard.rt,test_instructions.thisRepN,test_instructions.thisTrialN,test_instructions.thisN,test_instructions.thisIndex,test_instructions.ran,key_resp_3.keys,key_resp_3.corr,key_resp_3.rt,test_click.x,test_click.y,test_click.leftButton,test_click.midButton,test_click.rightButton,test_click.time,test_click.clicked_name,test_phase.thisRepN,test_phase.thisTrialN,test_phase.thisN,test_phase.thisIndex,test_phase.ran
,0.065399306,-0.40702691,1,0,0,instr_done_button,0,0,0,0,1,1,instructions,"INSTRUCTIONS
At the start of each trial, look at the plus sign  (+) in the center of the screen.  This tells you that a trial is about to begin and where to look. Second, the plus sign will disappear and a string of letters will appear. Your task is to determine if the string of letters is a word or not. If the item is a word press the M key (on keyboard)  or touch the word button (phone/tablet).  If the item is not a word,  press the  Z key (on keyboard)  or touch the nonword button (on phone/tablet). 
Press the space bar or touch  continue.",0,,198784,19,2022-01-28_16h07.42.129,lexical_decision_task_DD_L6,2021.2.3,MacIntel,59.99880002,,,,,,,,,,,,,,,,,,,,,,,,,,,,,,,,,,,,,,,,,,,,,,,,,,,,,,,,,,,,,,,,,,,,,,,,,,
space,0.17719184,-0.213485243,0,0,0,,0,1,1,1,1,2,instructions,"If your device has a keyboard, press the 'Z' key for nonwords and the 'M' key for words.





Press the space bar or touch the button below to continue.",0,keyboard-example.gif,198784,19,2022-01-28_16h07.42.129,lexical_decision_task_DD_L6,2021.2.3,MacIntel,59.99880002,5.8299,,,,,,,,,,,,,,,,,,,,,,,,,,,,,,,,,,,,,,,,,,,,,,,,,,,,,,,,,,,,,,,,,,,,,,,,,
space,0.17719184,-0.213485243,0,0,0,,0,2,2,2,1,3,instructions,"If you are using a touchscreen only device, use the buttons on the screen. Do not use the mouse.





Press the space bar or touch the button below to continue.",0,touchscreen-example.gif,198784,19,2022-01-28_16h07.42.129,lexical_decision_task_DD_L6,2021.2.3,MacIntel,59.99880002,3.5677,,,,,,,,,,,,,,,,,,,,,,,,,,,,,,,,,,,,,,,,,,,,,,,,,,,,,,,,,,,,,,,,,,,,,,,,,
,0.113467882,-0.373025174,1,0,0,instr_done_button,0,3,3,3,1,4,instructions,"It is very important that you respond as quickly and accurately as possible, as each letter string will only be on the screen for two seconds. If you do not respond within this time, the message 'Too slow!' will be displayed and the experiment will progress to the next letter string. The first 20 trials will be practice trials and you will receive feedback on your answers. 

Press the space bar or touch the button below to start the practice trials.",0,,198784,19,2022-01-28_16h07.42.129,lexical_decision_task_DD_L6,2021.2.3,MacIntel,59.99880002,,,,,,,,,,,,,,,,,,,,,,,,,,,,,,,,,,,,,,,,,,,,,,,,,,,,,,,,,,,,,,,,,,,,,,,,,,
,,,,,,,,,,,,,,,,,198784,19,2022-01-28_16h07.42.129,lexical_decision_task_DD_L6,2021.2.3,MacIntel,59.99880002,,z,1,10.6592,,,,,,,,10.6592,1,0,0,0,8,1,1001,ASLERT,z,,,,,,,,,,,,,,,,,,,,,,,,,,,,,,,,,,,,,,,,,,,,,,,,,,,,,
,,,,,,,,,,,,,,,,,198784,19,2022-01-28_16h07.42.129,lexical_decision_task_DD_L6,2021.2.3,MacIntel,59.99880002,,z,1,7.4467,,,,,,,,7.4467,1,0,1,1,11,1,1001,RASHET,z,,,,,,,,,,,,,,,,,,,,,,,,,,,,,,,,,,,,,,,,,,,,,,,,,,,,,
,,,,,,,,,,,,,,,,,198784,19,2022-01-28_16h07.42.129,lexical_decision_task_DD_L6,2021.2.3,MacIntel,59.99880002,,m,1,1.2342,,,,,,,,1.2342,1,0,2,2,2,1,1001,ALMOND,m,,,,,,,,,,,,,,,,,,,,,,,,,,,,,,,,,,,,,,,,,,,,,,,,,,,,,
,,,,,,,,,,,,,,,,,198784,19,2022-01-28_16h07.42.129,lexical_decision_task_DD_L6,2021.2.3,MacIntel,59.99880002,,z,1,1.6541,,,,,,,,1.6541,1,0,3,3,13,1,1001,ROUPET,z,,,,,,,,,,,,,,,,,,,,,,,,,,,,,,,,,,,,,,,,,,,,,,,,,,,,,
,,,,,,,,,,,,,,,,,198784,19,2022-01-28_16h07.42.129,lexical_decision_task_DD_L6,2021.2.3,MacIntel,59.99880002,,z,1,1.1151,,,,,,,,1.1151,1,0,4,4,14,1,1001,THRALE,z,,,,,,,,,,,,,,,,,,,,,,,,,,,,,,,,,,,,,,,,,,,,,,,,,,,,,
,,,,,,,,,,,,,,,,,198784,19,2022-01-28_16h07.42.129,lexical_decision_task_DD_L6,2021.2.3,MacIntel,59.99880002,,z,1,1.2574,,,,,,,,1.2574,1,0,5,5,12,1,1001,SPRINY,z,,,,,,,,,,,,,,,,,,,,,,,,,,,,,,,,,,,,,,,,,,,,,,,,,,,,,
,,,,,,,,,,,,,,,,,198784,19,2022-01-28_16h07.42.129,lexical_decision_task_DD_L6,2021.2.3,MacIntel,59.99880002,,m,1,0.9357,,,,,,,,0.9357,1,0,6,6,0,1,1001,UTOPIA,m,,,,,,,,,,,,,,,,,,,,,,,,,,,,,,,,,,,,,,,,,,,,,,,,,,,,,
,,,,,,,,,,,,,,,,,198784,19,2022-01-28_16h07.42.129,lexical_decision_task_DD_L6,2021.2.3,MacIntel,59.99880002,,m,0,1.3032,,,,,,,,1.3032,0,0,7,7,10,1,1001,INLADE,z,,,,,,,,,,,,,,,,,,,,,,,,,,,,,,,,,,,,,,,,,,,,,,,,,,,,,
,,,,,,,,,,,,,,,,,198784,19,2022-01-28_16h07.42.129,lexical_decision_task_DD_L6,2021.2.3,MacIntel,59.99880002,,z,1,0.8011,,,,,,,,0.8011,1,0,8,8,9,1,1001,FARINY,z,,,,,,,,,,,,,,,,,,,,,,,,,,,,,,,,,,,,,,,,,,,,,,,,,,,,,
,,,,,,,,,,,,,,,,,198784,19,2022-01-28_16h07.42.129,lexical_decision_task_DD_L6,2021.2.3,MacIntel,59.99880002,,m,1,0.7394,,,,,,,,0.7394,1,0,9,9,3,1,1001,MATRIX,m,,,,,,,,,,,,,,,,,,,,,,,,,,,,,,,,,,,,,,,,,,,,,,,,,,,,,
,,,,,,,,,,,,,,,,,198784,19,2022-01-28_16h07.42.129,lexical_decision_task_DD_L6,2021.2.3,MacIntel,59.99880002,,m,1,0.6644,,,,,,,,0.6644,1,0,10,10,5,1,1001,OBTAIN,m,,,,,,,,,,,,,,,,,,,,,,,,,,,,,,,,,,,,,,,,,,,,,,,,,,,,,
,,,,,,,,,,,,,,,,,198784,19,2022-01-28_16h07.42.129,lexical_decision_task_DD_L6,2021.2.3,MacIntel,59.99880002,,z,1,1.2464,,,,,,,,1.2464,1,0,11,11,15,1,1001,WHAISE,z,,,,,,,,,,,,,,,,,,,,,,,,,,,,,,,,,,,,,,,,,,,,,,,,,,,,,
,,,,,,,,,,,,,,,,,198784,19,2022-01-28_16h07.42.129,lexical_decision_task_DD_L6,2021.2.3,MacIntel,59.99880002,,m,1,0.7215,,,,,,,,0.7215,1,0,12,12,6,1,1001,ZOMBIE,m,,,,,,,,,,,,,,,,,,,,,,,,,,,,,,,,,,,,,,,,,,,,,,,,,,,,,
,,,,,,,,,,,,,,,,,198784,19,2022-01-28_16h07.42.129,lexical_decision_task_DD_L6,2021.2.3,MacIntel,59.99880002,,m,1,0.5491,,,,,,,,0.5491,1,0,13,13,7,1,1001,VOLUME,m,,,,,,,,,,,,,,,,,,,,,,,,,,,,,,,,,,,,,,,,,,,,,,,,,,,,,
,,,,,,,,,,,,,,,,,198784,19,2022-01-28_16h07.42.129,lexical_decision_task_DD_L6,2021.2.3,MacIntel,59.99880002,,m,1,0.6415,,,,,,,,0.6415,1,0,14,14,4,1,1001,SQUEAK,m,,,,,,,,,,,,,,,,,,,,,,,,,,,,,,,,,,,,,,,,,,,,,,,,,,,,,
,,,,,,,,,,,,,,,,,198784,19,2022-01-28_16h07.42.129,lexical_decision_task_DD_L6,2021.2.3,MacIntel,59.99880002,,m,1,0.7054,,,,,,,,0.7054,1,0,15,15,1,1,1001,ADJUST,m,,,,,,,,,,,,,,,,,,,,,,,,,,,,,,,,,,,,,,,,,,,,,,,,,,,,,
,0.113467882,-0.373025174,1,0,0,instr_done_button,,,,,,1,end_of_practice,"You have completed the practice trials. During the experimental trials, you will not receive feedback. 
Before you begin, please ensure that you are in a comfortable and quiet location and will not be disturbed for about 15 minutes, as we cannot use your data if you do not complete all the trials. 
 When you are ready to start the experimental trials, please press space or touch the button below.",,,198784,19,2022-01-28_16h07.42.129,lexical_decision_task_DD_L6,2021.2.3,MacIntel,59.99880002,,,,,,,,,,,,,,,,,,,,,,0,0,0,0,1,,,,,,,,,,,,,,,,,,,,,,,,,,,,,,,,,,,,,,,,,,,,,,,,
,,,,,,,,,,,,,,,,,198784,19,2022-01-28_16h07.42.129,lexical_decision_task_DD_L6,2021.2.3,MacIntel,59.99880002,,,,,,,,,,,,2.8575,1,,,,,,,,,,,,,,z,1,2.8575,,,,,,,,0.113467882,-0.373025174,0,0,0,,0,0,0,130,1,CRILL,HB,old,z,./images/CRILLHB.png,,,,,,,,,,,,,,,,,,,,,,
,,,,,,,,,,,,,,,,,198784,19,2022-01-28_16h07.42.129,lexical_decision_task_DD_L6,2021.2.3,MacIntel,59.99880002,,,,,,,,,,,,1.4811,1,,,,,,,,,,,,,,z,1,1.4811,,,,,,,,0.113467882,-0.373025174,0,0,0,,0,1,1,104,1,GITTY,LB,old,z,./images/GITTYLB.png,,,,,,,,,,,,,,,,,,,,,,
,,,,,,,,,,,,,,,,,198784,19,2022-01-28_16h07.42.129,lexical_decision_task_DD_L6,2021.2.3,MacIntel,59.99880002,,,,,,,,,,,,1.4847,1,,,,,,,,,,,,,,z,1,1.4847,,,,,,,,0.113467882,-0.373025174,0,0,0,,0,2,2,84,1,HAXES,C,old,z,./images/HAXES.png,,,,,,,,,,,,,,,,,,,,,,
,,,,,,,,,,,,,,,,,198784,19,2022-01-28_16h07.42.129,lexical_decision_task_DD_L6,2021.2.3,MacIntel,59.99880002,,,,,,,,,,,,0.76,1,,,,,,,,,,,,,,m,1,0.76,,,,,,,,0.113467882,-0.373025174,0,0,0,,0,3,3,6,1,STAIN,LB,old,m,./images/STAINLB.png,,,,,,,,,,,,,,,,,,,,,,
,,,,,,,,,,,,,,,,,198784,19,2022-01-28_16h07.42.129,lexical_decision_task_DD_L6,2021.2.3,MacIntel,59.99880002,,,,,,,,,,,,1.0259,1,,,,,,,,,,,,,,z,1,1.0259,,,,,,,,0.113467882,-0.373025174,0,0,0,,0,4,4,90,1,NEAST,C,old,z,./images/NEAST.png,,,,,,,,,,,,,,,,,,,,,,
,,,,,,,,,,,,,,,,,198784,19,2022-01-28_16h07.42.129,lexical_decision_task_DD_L6,2021.2.3,MacIntel,59.99880002,,,,,,,,,,,,0.9703,1,,,,,,,,,,,,,,m,1,0.9703,,,,,,,,0.113467882,-0.373025174,0,0,0,,0,5,5,47,1,LAGOON,HB,old,m,./images/LAGOONHB.png,,,,,,,,,,,,,,,,,,,,,,
,,,,,,,,,,,,,,,,,198784,19,2022-01-28_16h07.42.129,lexical_decision_task_DD_L6,2021.2.3,MacIntel,59.99880002,,,,,,,,,,,,0.6139,1,,,,,,,,,,,,,,m,1,0.6139,,,,,,,,0.113467882,-0.373025174,0,0,0,,0,6,6,39,1,CANDY,LB,old,m,./images/CANDYLB.png,,,,,,,,,,,,,,,,,,,,,,
,,,,,,,,,,,,,,,,,198784,19,2022-01-28_16h07.42.129,lexical_decision_task_DD_L6,2021.2.3,MacIntel,59.99880002,,,,,,,,,,,,0.7479,1,,,,,,,,,,,,,,m,1,0.7479,,,,,,,,0.113467882,-0.373025174,0,0,0,,0,7,7,59,1,BRUSH,HB,old,m,./images/BRUSHHB.png,,,,,,,,,,,,,,,,,,,,,,
,,,,,,,,,,,,,,,,,198784,19,2022-01-28_16h07.42.129,lexical_decision_task_DD_L6,2021.2.3,MacIntel,59.99880002,,,,,,,,,,,,1.9299,1,,,,,,,,,,,,,,z,1,1.9299,,,,,,,,0.113467882,-0.373025174,0,0,0,,0,8,8,100,1,DRIBS,HB,old,z,./images/DRIBSHB.png,,,,,,,,,,,,,,,,,,,,,,
,,,,,,,,,,,,,,,,,198784,19,2022-01-28_16h07.42.129,lexical_decision_task_DD_L6,2021.2.3,MacIntel,59.99880002,,,,,,,,,,,,1.0821,1,,,,,,,,,,,,,,m,1,1.0821,,,,,,,,0.113467882,-0.373025174,0,0,0,,0,9,9,53,1,POSTER,HB,old,m,./images/POSTERHB.png,,,,,,,,,,,,,,,,,,,,,,
,,,,,,,,,,,,,,,,,198784,19,2022-01-28_16h07.42.129,lexical_decision_task_DD_L6,2021.2.3,MacIntel,59.99880002,,,,,,,,,,,,0.8312,1,,,,,,,,,,,,,,m,1,0.8312,,,,,,,,0.113467882,-0.373025174,0,0,0,,0,10,10,57,1,FERRY,LB,old,m,./images/FERRYLB.png,,,,,,,,,,,,,,,,,,,,,,
,,,,,,,,,,,,,,,,,198784,19,2022-01-28_16h07.42.129,lexical_decision_task_DD_L6,2021.2.3,MacIntel,59.99880002,,,,,,,,,,,,0.9411,1,,,,,,,,,,,,,,z,1,0.9411,,,,,,,,0.113467882,-0.373025174,0,0,0,,0,11,11,165,1,TROWN,C,old,z,./images/TROWN.png,,,,,,,,,,,,,,,,,,,,,,
,,,,,,,,,,,,,,,,,198784,19,2022-01-28_16h07.42.129,lexical_decision_task_DD_L6,2021.2.3,MacIntel,59.99880002,,,,,,,,,,,,1.4071,0,,,,,,,,,,,,,,m,0,1.4071,,,,,,,,0.113467882,-0.373025174,0,0,0,,0,12,12,113,1,LINEW,LB,old,z,./images/LINEWLB.png,,,,,,,,,,,,,,,,,,,,,,
,,,,,,,,,,,,,,,,,198784,19,2022-01-28_16h07.42.129,lexical_decision_task_DD_L6,2021.2.3,MacIntel,59.99880002,,,,,,,,,,,,1.6829,1,,,,,,,,,,,,,,z,1,1.6829,,,,,,,,0.113467882,-0.373025174,0,0,0,,0,13,13,143,1,MONGS,LB,old,z,./images/MONGSLB.png,,,,,,,,,,,,,,,,,,,,,,
,,,,,,,,,,,,,,,,,198784,19,2022-01-28_16h07.42.129,lexical_decision_task_DD_L6,2021.2.3,MacIntel,59.99880002,,,,,,,,,,,,0.642,1,,,,,,,,,,,,,,m,1,0.642,,,,,,,,0.113467882,-0.373025174,0,0,0,,0,14,14,10,1,GARDEN,C,old,m,./images/GARDEN.png,,,,,,,,,,,,,,,,,,,,,,
,,,,,,,,,,,,,,,,,198784,19,2022-01-28_16h07.42.129,lexical_decision_task_DD_L6,2021.2.3,MacIntel,59.99880002,,,,,,,,,,,,1.3299,1,,,,,,,,,,,,,,z,1,1.3299,,,,,,,,0.113467882,-0.373025174,0,0,0,,0,15,15,118,1,BAVEL,HB,old,z,./images/BAVELHB.png,,,,,,,,,,,,,,,,,,,,,,
,,,,,,,,,,,,,,,,,198784,19,2022-01-28_16h07.42.129,lexical_decision_task_DD_L6,2021.2.3,MacIntel,59.99880002,,,,,,,,,,,,0.6121,1,,,,,,,,,,,,,,m,1,0.6121,,,,,,,,0.113467882,-0.373025174,0,0,0,,0,16,16,4,1,BOXER,C,old,m,./images/BOXER.png,,,,,,,,,,,,,,,,,,,,,,
,,,,,,,,,,,,,,,,,198784,19,2022-01-28_16h07.42.129,lexical_decision_task_DD_L6,2021.2.3,MacIntel,59.99880002,,,,,,,,,,,,0.6037,1,,,,,,,,,,,,,,m,1,0.6037,,,,,,,,0.113467882,-0.373025174,0,0,0,,0,17,17,51,1,SAUCE,LB,old,m,./images/SAUCELB.png,,,,,,,,,,,,,,,,,,,,,,
,,,,,,,,,,,,,,,,,198784,19,2022-01-28_16h07.42.129,lexical_decision_task_DD_L6,2021.2.3,MacIntel,59.99880002,,,,,,,,,,,,0.7842,1,,,,,,,,,,,,,,m,1,0.7842,,,,,,,,0.113467882,-0.373025174,0,0,0,,0,18,18,17,1,PARADE,HB,old,m,./images/PARADEHB.png,,,,,,,,,,,,,,,,,,,,,,
,,,,,,,,,,,,,,,,,198784,19,2022-01-28_16h07.42.129,lexical_decision_task_DD_L6,2021.2.3,MacIntel,59.99880002,,,,,,,,,,,,0.7713,1,,,,,,,,,,,,,,z,1,0.7713,,,,,,,,0.113467882,-0.373025174,0,0,0,,0,19,19,137,1,JOOST,LB,old,z,./images/JOOSTLB.png,,,,,,,,,,,,,,,,,,,,,,
,,,,,,,,,,,,,,,,,198784,19,2022-01-28_16h07.42.129,lexical_decision_task_DD_L6,2021.2.3,MacIntel,59.99880002,,,,,,,,,,,,0.6491,1,,,,,,,,,,,,,,m,1,0.6491,,,,,,,,0.113467882,-0.373025174,0,0,0,,0,20,20,63,1,BAKER,LB,old,m,./images/BAKERLB.png,,,,,,,,,,,,,,,,,,,,,,
,,,,,,,,,,,,,,,,,198784,19,2022-01-28_16h07.42.129,lexical_decision_task_DD_L6,2021.2.3,MacIntel,59.99880002,,,,,,,,,,,,0.6997,1,,,,,,,,,,,,,,m,1,0.6997,,,,,,,,0.113467882,-0.373025174,0,0,0,,0,21,21,9,1,DIVER,LB,old,m,./images/DIVERLB.png,,,,,,,,,,,,,,,,,,,,,,
,,,,,,,,,,,,,,,,,198784,19,2022-01-28_16h07.42.129,lexical_decision_task_DD_L6,2021.2.3,MacIntel,59.99880002,,,,,,,,,,,,1.0988,1,,,,,,,,,,,,,,z,1,1.0988,,,,,,,,0.113467882,-0.373025174,0,0,0,,0,22,22,122,1,BLOOT,LB,old,z,./images/BLOOTLB.png,,,,,,,,,,,,,,,,,,,,,,
,,,,,,,,,,,,,,,,,198784,19,2022-01-28_16h07.42.129,lexical_decision_task_DD_L6,2021.2.3,MacIntel,59.99880002,,,,,,,,,,,,1.3482,1,,,,,,,,,,,,,,z,1,1.3482,,,,,,,,0.113467882,-0.373025174,0,0,0,,0,23,23,142,1,PLASK,HB,old,z,./images/PLASKHB.png,,,,,,,,,,,,,,,,,,,,,,
,,,,,,,,,,,,,,,,,198784,19,2022-01-28_16h07.42.129,lexical_decision_task_DD_L6,2021.2.3,MacIntel,59.99880002,,,,,,,,,,,,0.8581,1,,,,,,,,,,,,,,z,1,0.8581,,,,,,,,0.113467882,-0.373025174,0,0,0,,0,24,24,126,1,GUELS,C,old,z,./images/GUELS.png,,,,,,,,,,,,,,,,,,,,,,
,,,,,,,,,,,,,,,,,198784,19,2022-01-28_16h07.42.129,lexical_decision_task_DD_L6,2021.2.3,MacIntel,59.99880002,,,,,,,,,,,,0.7459,1,,,,,,,,,,,,,,z,1,0.7459,,,,,,,,0.113467882,-0.373025174,0,0,0,,0,25,25,116,1,BALGY,LB,old,z,./images/BALGYLB.png,,,,,,,,,,,,,,,,,,,,,,
,,,,,,,,,,,,,,,,,198784,19,2022-01-28_16h07.42.129,lexical_decision_task_DD_L6,2021.2.3,MacIntel,59.99880002,,,,,,,,,,,,1.2493,1,,,,,,,,,,,,,,m,1,1.2493,,,,,,,,0.113467882,-0.373025174,0,0,0,,0,26,26,11,1,MEDAL,HB,old,m,./images/MEDALHB.png,,,,,,,,,,,,,,,,,,,,,,
,,,,,,,,,,,,,,,,,198784,19,2022-01-28_16h07.42.129,lexical_decision_task_DD_L6,2021.2.3,MacIntel,59.99880002,,,,,,,,,,,,0.8464,1,,,,,,,,,,,,,,z,1,0.8464,,,,,,,,0.113467882,-0.373025174,0,0,0,,0,27,27,128,1,GRIFT,LB,old,z,./images/GRIFTLB.png,,,,,,,,,,,,,,,,,,,,,,
,,,,,,,,,,,,,,,,,198784,19,2022-01-28_16h07.42.129,lexical_decision_task_DD_L6,2021.2.3,MacIntel,59.99880002,,,,,,,,,,,,0.9646,1,,,,,,,,,,,,,,z,1,0.9646,,,,,,,,0.113467882,-0.373025174,0,0,0,,0,28,28,131,1,NACES,LB,old,z,./images/NACESLB.png,,,,,,,,,,,,,,,,,,,,,,
,,,,,,,,,,,,,,,,,198784,19,2022-01-28_16h07.42.129,lexical_decision_task_DD_L6,2021.2.3,MacIntel,59.99880002,,,,,,,,,,,,0.63,1,,,,,,,,,,,,,,z,1,0.63,,,,,,,,0.113467882,-0.373025174,0,0,0,,0,29,29,98,1,BAMPS,LB,old,z,./images/BAMPSLB.png,,,,,,,,,,,,,,,,,,,,,,
,,,,,,,,,,,,,,,,,198784,19,2022-01-28_16h07.42.129,lexical_decision_task_DD_L6,2021.2.3,MacIntel,59.99880002,,,,,,,,,,,,0.7715,1,,,,,,,,,,,,,,z,1,0.7715,,,,,,,,0.113467882,-0.373025174,0,0,0,,0,30,30,129,1,PRANS,C,old,z,./images/PRANS.png,,,,,,,,,,,,,,,,,,,,,,
,,,,,,,,,,,,,,,,,198784,19,2022-01-28_16h07.42.129,lexical_decision_task_DD_L6,2021.2.3,MacIntel,59.99880002,,,,,,,,,,,,1.0979,1,,,,,,,,,,,,,,z,1,1.0979,,,,,,,,0.113467882,-0.373025174,0,0,0,,0,31,31,121,1,CEERS,HB,old,z,./images/CEERSHB.png,,,,,,,,,,,,,,,,,,,,,,
,,,,,,,,,,,,,,,,,198784,19,2022-01-28_16h07.42.129,lexical_decision_task_DD_L6,2021.2.3,MacIntel,59.99880002,,,,,,,,,,,,0.5895,1,,,,,,,,,,,,,,m,1,0.5895,,,,,,,,0.113467882,-0.373025174,0,0,0,,0,32,32,40,1,SNAKE,C,old,m,./images/SNAKE.png,,,,,,,,,,,,,,,,,,,,,,
,,,,,,,,,,,,,,,,,198784,19,2022-01-28_16h07.42.129,lexical_decision_task_DD_L6,2021.2.3,MacIntel,59.99880002,,,,,,,,,,,,0.7498,1,,,,,,,,,,,,,,m,1,0.7498,,,,,,,,0.113467882,-0.373025174,0,0,0,,0,33,33,66,1,STATUE,LB,old,m,./images/STATUELB.png,,,,,,,,,,,,,,,,,,,,,,
,,,,,,,,,,,,,,,,,198784,19,2022-01-28_16h07.42.129,lexical_decision_task_DD_L6,2021.2.3,MacIntel,59.99880002,,,,,,,,,,,,0.5843,1,,,,,,,,,,,,,,m,1,0.5843,,,,,,,,0.113467882,-0.373025174,0,0,0,,0,34,34,0,1,WALNUT,LB,old,m,./images/WALNUTLB.png,,,,,,,,,,,,,,,,,,,,,,
,,,,,,,,,,,,,,,,,198784,19,2022-01-28_16h07.42.129,lexical_decision_task_DD_L6,2021.2.3,MacIntel,59.99880002,,,,,,,,,,,,0.739,1,,,,,,,,,,,,,,z,1,0.739,,,,,,,,0.113467882,-0.373025174,0,0,0,,0,35,35,134,1,TROSS,LB,old,z,./images/TROSSLB.png,,,,,,,,,,,,,,,,,,,,,,
,,,,,,,,,,,,,,,,,198784,19,2022-01-28_16h07.42.129,lexical_decision_task_DD_L6,2021.2.3,MacIntel,59.99880002,,,,,,,,,,,,0.7156,1,,,,,,,,,,,,,,m,1,0.7156,,,,,,,,0.113467882,-0.373025174,0,0,0,,0,36,36,32,1,HOCKEY,HB,old,m,./images/HOCKEYHB.png,,,,,,,,,,,,,,,,,,,,,,
,,,,,,,,,,,,,,,,,198784,19,2022-01-28_16h07.42.129,lexical_decision_task_DD_L6,2021.2.3,MacIntel,59.99880002,,,,,,,,,,,,0.5972,1,,,,,,,,,,,,,,m,1,0.5972,,,,,,,,0.113467882,-0.373025174,0,0,0,,0,37,37,46,1,MUMMY,C,old,m,./images/MUMMY.png,,,,,,,,,,,,,,,,,,,,,,
,,,,,,,,,,,,,,,,,198784,19,2022-01-28_16h07.42.129,lexical_decision_task_DD_L6,2021.2.3,MacIntel,59.99880002,,,,,,,,,,,,0.6823,1,,,,,,,,,,,,,,z,1,0.6823,,,,,,,,0.113467882,-0.373025174,0,0,0,,0,38,38,86,1,AIFED,LB,old,z,./images/AIFEDLB.png,,,,,,,,,,,,,,,,,,,,,,
,,,,,,,,,,,,,,,,,198784,19,2022-01-28_16h07.42.129,lexical_decision_task_DD_L6,2021.2.3,MacIntel,59.99880002,,,,,,,,,,,,0.99,1,,,,,,,,,,,,,,m,1,0.99,,,,,,,,0.113467882,-0.373025174,0,0,0,,0,39,39,62,1,MAMMAL,HB,old,m,./images/MAMMALHB.png,,,,,,,,,,,,,,,,,,,,,,
,,,,,,,,,,,,,,,,,198784,19,2022-01-28_16h07.42.129,lexical_decision_task_DD_L6,2021.2.3,MacIntel,59.99880002,,,,,,,,,,,,0.6376,1,,,,,,,,,,,,,,z,1,0.6376,,,,,,,,0.113467882,-0.373025174,0,0,0,,0,40,40,87,1,TRING,C,old,z,./images/TRING.png,,,,,,,,,,,,,,,,,,,,,,
,,,,,,,,,,,,,,,,,198784,19,2022-01-28_16h07.42.129,lexical_decision_task_DD_L6,2021.2.3,MacIntel,59.99880002,,,,,,,,,,,,0.5397,1,,,,,,,,,,,,,,m,1,0.5397,,,,,,,,0.053797743,-0.377790799,1,0,0,,0,41,41,69,1,ARROW,LB,old,m,./images/ARROWLB.png,break_done_button,,,,,,,,,,,,,,,,,,,,,
,,,,,,,,,,,,,,,,,198784,19,2022-01-28_16h07.42.129,lexical_decision_task_DD_L6,2021.2.3,MacIntel,59.99880002,,,,,,,,,,,,0.7153,1,,,,,,,,,,,,,,m,1,0.7153,,,,,,,,0.053797743,-0.377790799,0,0,0,,0,42,42,24,1,FLESH,LB,old,m,./images/FLESHLB.png,,,,,,,,,,,,,,,,,,,,,,
,,,,,,,,,,,,,,,,,198784,19,2022-01-28_16h07.42.129,lexical_decision_task_DD_L6,2021.2.3,MacIntel,59.99880002,,,,,,,,,,,,0.6867,1,,,,,,,,,,,,,,m,1,0.6867,,,,,,,,0.053797743,-0.377790799,0,0,0,,0,43,43,14,1,FENCE,HB,old,m,./images/FENCEHB.png,,,,,,,,,,,,,,,,,,,,,,
,,,,,,,,,,,,,,,,,198784,19,2022-01-28_16h07.42.129,lexical_decision_task_DD_L6,2021.2.3,MacIntel,59.99880002,,,,,,,,,,,,0.7983,0,,,,,,,,,,,,,,m,0,0.7983,,,,,,,,0.053797743,-0.377790799,0,0,0,,0,44,44,163,1,GAMBA,HB,old,z,./images/GAMBAHB.png,,,,,,,,,,,,,,,,,,,,,,
,,,,,,,,,,,,,,,,,198784,19,2022-01-28_16h07.42.129,lexical_decision_task_DD_L6,2021.2.3,MacIntel,59.99880002,,,,,,,,,,,,0.9012,1,,,,,,,,,,,,,,z,1,0.9012,,,,,,,,0.053797743,-0.377790799,0,0,0,,0,45,45,112,1,MYING,HB,old,z,./images/MYINGHB.png,,,,,,,,,,,,,,,,,,,,,,
,,,,,,,,,,,,,,,,,198784,19,2022-01-28_16h07.42.129,lexical_decision_task_DD_L6,2021.2.3,MacIntel,59.99880002,,,,,,,,,,,,0.7799,1,,,,,,,,,,,,,,m,1,0.7799,,,,,,,,0.053797743,-0.377790799,0,0,0,,0,46,46,5,1,BAMBOO,HB,old,m,./images/BAMBOOHB.png,,,,,,,,,,,,,,,,,,,,,,
,,,,,,,,,,,,,,,,,198784,19,2022-01-28_16h07.42.129,lexical_decision_task_DD_L6,2021.2.3,MacIntel,59.99880002,,,,,,,,,,,,0.6503,1,,,,,,,,,,,,,,m,1,0.6503,,,,,,,,0.053797743,-0.377790799,0,0,0,,0,47,47,21,1,DANCER,LB,old,m,./images/DANCERLB.png,,,,,,,,,,,,,,,,,,,,,,
,,,,,,,,,,,,,,,,,198784,19,2022-01-28_16h07.42.129,lexical_decision_task_DD_L6,2021.2.3,MacIntel,59.99880002,,,,,,,,,,,,0.8636,1,,,,,,,,,,,,,,m,1,0.8636,,,,,,,,0.053797743,-0.377790799,0,0,0,,0,48,48,56,1,HEATER,HB,old,m,./images/HEATERHB.png,,,,,,,,,,,,,,,,,,,,,,
,,,,,,,,,,,,,,,,,198784,19,2022-01-28_16h07.42.129,lexical_decision_task_DD_L6,2021.2.3,MacIntel,59.99880002,,,,,,,,,,,,0.7478,1,,,,,,,,,,,,,,m,1,0.7478,,,,,,,,0.053797743,-0.377790799,0,0,0,,0,49,49,74,1,JUMPER,HB,old,m,./images/JUMPERHB.png,,,,,,,,,,,,,,,,,,,,,,
,,,,,,,,,,,,,,,,,198784,19,2022-01-28_16h07.42.129,lexical_decision_task_DD_L6,2021.2.3,MacIntel,59.99880002,,,,,,,,,,,,0.6708,1,,,,,,,,,,,,,,m,1,0.6708,,,,,,,,0.053797743,-0.377790799,0,0,0,,0,50,50,76,1,MIDGET,C,old,m,./images/MIDGET.png,,,,,,,,,,,,,,,,,,,,,,
,,,,,,,,,,,,,,,,,198784,19,2022-01-28_16h07.42.129,lexical_decision_task_DD_L6,2021.2.3,MacIntel,59.99880002,,,,,,,,,,,,0.8701,1,,,,,,,,,,,,,,m,1,0.8701,,,,,,,,0.053797743,-0.377790799,0,0,0,,0,51,51,52,1,DESERT,C,old,m,./images/DESERT.png,,,,,,,,,,,,,,,,,,,,,,
,,,,,,,,,,,,,,,,,198784,19,2022-01-28_16h07.42.129,lexical_decision_task_DD_L6,2021.2.3,MacIntel,59.99880002,,,,,,,,,,,,0.8174,1,,,,,,,,,,,,,,z,1,0.8174,,,,,,,,0.053797743,-0.377790799,0,0,0,,0,52,52,92,1,PAIMS,LB,old,z,./images/PAIMSLB.png,,,,,,,,,,,,,,,,,,,,,,
,,,,,,,,,,,,,,,,,198784,19,2022-01-28_16h07.42.129,lexical_decision_task_DD_L6,2021.2.3,MacIntel,59.99880002,,,,,,,,,,,,0.7472,1,,,,,,,,,,,,,,m,1,0.7472,,,,,,,,0.053797743,-0.377790799,0,0,0,,0,53,53,42,1,CHAIN,LB,old,m,./images/CHAINLB.png,,,,,,,,,,,,,,,,,,,,,,
,,,,,,,,,,,,,,,,,198784,19,2022-01-28_16h07.42.129,lexical_decision_task_DD_L6,2021.2.3,MacIntel,59.99880002,,,,,,,,,,,,0.6883,1,,,,,,,,,,,,,,m,1,0.6883,,,,,,,,0.053797743,-0.377790799,0,0,0,,0,54,54,58,1,CANOE,C,old,m,./images/CANOE.png,,,,,,,,,,,,,,,,,,,,,,
,,,,,,,,,,,,,,,,,198784,19,2022-01-28_16h07.42.129,lexical_decision_task_DD_L6,2021.2.3,MacIntel,59.99880002,,,,,,,,,,,,0.7686,1,,,,,,,,,,,,,,m,1,0.7686,,,,,,,,0.053797743,-0.377790799,0,0,0,,0,55,55,38,1,ENGINE,HB,old,m,./images/ENGINEHB.png,,,,,,,,,,,,,,,,,,,,,,
,,,,,,,,,,,,,,,,,198784,19,2022-01-28_16h07.42.129,lexical_decision_task_DD_L6,2021.2.3,MacIntel,59.99880002,,,,,,,,,,,,1.0132,1,,,,,,,,,,,,,,m,1,1.0132,,,,,,,,0.053797743,-0.377790799,0,0,0,,0,56,56,65,1,SPINE,HB,old,m,./images/SPINEHB.png,,,,,,,,,,,,,,,,,,,,,,
,,,,,,,,,,,,,,,,,198784,19,2022-01-28_16h07.42.129,lexical_decision_task_DD_L6,2021.2.3,MacIntel,59.99880002,,,,,,,,,,,,0.9621,1,,,,,,,,,,,,,,z,1,0.9621,,,,,,,,0.053797743,-0.377790799,0,0,0,,0,57,57,160,1,VEETS,HB,old,z,./images/VEETSHB.png,,,,,,,,,,,,,,,,,,,,,,
,,,,,,,,,,,,,,,,,198784,19,2022-01-28_16h07.42.129,lexical_decision_task_DD_L6,2021.2.3,MacIntel,59.99880002,,,,,,,,,,,,0.6731,1,,,,,,,,,,,,,,m,1,0.6731,,,,,,,,0.053797743,-0.377790799,0,0,0,,0,58,58,55,1,ALLEY,C,old,m,./images/ALLEY.png,,,,,,,,,,,,,,,,,,,,,,
,,,,,,,,,,,,,,,,,198784,19,2022-01-28_16h07.42.129,lexical_decision_task_DD_L6,2021.2.3,MacIntel,59.99880002,,,,,,,,,,,,1.1185,1,,,,,,,,,,,,,,z,1,1.1185,,,,,,,,0.053797743,-0.377790799,0,0,0,,0,59,59,140,1,DOVET,LB,old,z,./images/DOVETLB.png,,,,,,,,,,,,,,,,,,,,,,
,,,,,,,,,,,,,,,,,198784,19,2022-01-28_16h07.42.129,lexical_decision_task_DD_L6,2021.2.3,MacIntel,59.99880002,,,,,,,,,,,,0.5679,1,,,,,,,,,,,,,,m,1,0.5679,,,,,,,,0.053797743,-0.377790799,0,0,0,,0,60,60,19,1,DONKEY,C,old,m,./images/DONKEY.png,,,,,,,,,,,,,,,,,,,,,,
,,,,,,,,,,,,,,,,,198784,19,2022-01-28_16h07.42.129,lexical_decision_task_DD_L6,2021.2.3,MacIntel,59.99880002,,,,,,,,,,,,0.5603,1,,,,,,,,,,,,,,m,1,0.5603,,,,,,,,0.053797743,-0.377790799,0,0,0,,0,61,61,13,1,BUNNY,C,old,m,./images/BUNNY.png,,,,,,,,,,,,,,,,,,,,,,
,,,,,,,,,,,,,,,,,198784,19,2022-01-28_16h07.42.129,lexical_decision_task_DD_L6,2021.2.3,MacIntel,59.99880002,,,,,,,,,,,,0.8646,1,,,,,,,,,,,,,,z,1,0.8646,,,,,,,,0.053797743,-0.377790799,0,0,0,,0,62,62,103,1,FLORT,HB,old,z,./images/FLORTHB.png,,,,,,,,,,,,,,,,,,,,,,
,,,,,,,,,,,,,,,,,198784,19,2022-01-28_16h07.42.129,lexical_decision_task_DD_L6,2021.2.3,MacIntel,59.99880002,,,,,,,,,,,,1.4477,1,,,,,,,,,,,,,,z,1,1.4477,,,,,,,,0.053797743,-0.377790799,0,0,0,,0,63,63,91,1,SHENS,HB,old,z,./images/SHENSHB.png,,,,,,,,,,,,,,,,,,,,,,
,,,,,,,,,,,,,,,,,198784,19,2022-01-28_16h07.42.129,lexical_decision_task_DD_L6,2021.2.3,MacIntel,59.99880002,,,,,,,,,,,,1.4464,1,,,,,,,,,,,,,,z,1,1.4464,,,,,,,,0.053797743,-0.377790799,0,0,0,,0,64,64,145,1,LAMEL,HB,old,z,./images/LAMELHB.png,,,,,,,,,,,,,,,,,,,,,,
,,,,,,,,,,,,,,,,,198784,19,2022-01-28_16h07.42.129,lexical_decision_task_DD_L6,2021.2.3,MacIntel,59.99880002,,,,,,,,,,,,0.8481,1,,,,,,,,,,,,,,z,1,0.8481,,,,,,,,0.053797743,-0.377790799,0,0,0,,0,65,65,94,1,BLANS,HB,old,z,./images/BLANSHB.png,,,,,,,,,,,,,,,,,,,,,,
,,,,,,,,,,,,,,,,,198784,19,2022-01-28_16h07.42.129,lexical_decision_task_DD_L6,2021.2.3,MacIntel,59.99880002,,,,,,,,,,,,0.9397,1,,,,,,,,,,,,,,m,1,0.9397,,,,,,,,0.053797743,-0.377790799,0,0,0,,0,66,66,33,1,SAUNA,LB,old,m,./images/SAUNALB.png,,,,,,,,,,,,,,,,,,,,,,
,,,,,,,,,,,,,,,,,198784,19,2022-01-28_16h07.42.129,lexical_decision_task_DD_L6,2021.2.3,MacIntel,59.99880002,,,,,,,,,,,,0.6298,1,,,,,,,,,,,,,,m,1,0.6298,,,,,,,,0.053797743,-0.377790799,0,0,0,,0,67,67,16,1,GRAPE,C,old,m,./images/GRAPE.png,,,,,,,,,,,,,,,,,,,,,,
,,,,,,,,,,,,,,,,,198784,19,2022-01-28_16h07.42.129,lexical_decision_task_DD_L6,2021.2.3,MacIntel,59.99880002,,,,,,,,,,,,0.553,1,,,,,,,,,,,,,,m,1,0.553,,,,,,,,0.053797743,-0.377790799,0,0,0,,0,68,68,22,1,CLOWN,C,old,m,./images/CLOWN.png,,,,,,,,,,,,,,,,,,,,,,
,,,,,,,,,,,,,,,,,198784,19,2022-01-28_16h07.42.129,lexical_decision_task_DD_L6,2021.2.3,MacIntel,59.99880002,,,,,,,,,,,,0.5376,1,,,,,,,,,,,,,,m,1,0.5376,,,,,,,,0.053797743,-0.377790799,0,0,0,,0,69,69,75,1,HAMMER,LB,old,m,./images/HAMMERLB.png,,,,,,,,,,,,,,,,,,,,,,
,,,,,,,,,,,,,,,,,198784,19,2022-01-28_16h07.42.129,lexical_decision_task_DD_L6,2021.2.3,MacIntel,59.99880002,,,,,,,,,,,,0.6417,1,,,,,,,,,,,,,,m,1,0.6417,,,,,,,,0.053797743,-0.377790799,0,0,0,,0,70,70,49,1,BISHOP,C,old,m,./images/BISHOP.png,,,,,,,,,,,,,,,,,,,,,,
,,,,,,,,,,,,,,,,,198784,19,2022-01-28_16h07.42.129,lexical_decision_task_DD_L6,2021.2.3,MacIntel,59.99880002,,,,,,,,,,,,0.7126,1,,,,,,,,,,,,,,z,1,0.7126,,,,,,,,0.053797743,-0.377790799,0,0,0,,0,71,71,161,1,BLAPS,LB,old,z,./images/BLAPSLB.png,,,,,,,,,,,,,,,,,,,,,,
,,,,,,,,,,,,,,,,,198784,19,2022-01-28_16h07.42.129,lexical_decision_task_DD_L6,2021.2.3,MacIntel,59.99880002,,,,,,,,,,,,0.6884,1,,,,,,,,,,,,,,z,1,0.6884,,,,,,,,0.053797743,-0.377790799,0,0,0,,0,72,72,111,1,HOSSE,C,old,z,./images/HOSSE.png,,,,,,,,,,,,,,,,,,,,,,
,,,,,,,,,,,,,,,,,198784,19,2022-01-28_16h07.42.129,lexical_decision_task_DD_L6,2021.2.3,MacIntel,59.99880002,,,,,,,,,,,,0.5974,1,,,,,,,,,,,,,,z,1,0.5974,,,,,,,,0.053797743,-0.377790799,0,0,0,,0,73,73,162,1,LEICH,C,old,z,./images/LEICH.png,,,,,,,,,,,,,,,,,,,,,,
,,,,,,,,,,,,,,,,,198784,19,2022-01-28_16h07.42.129,lexical_decision_task_DD_L6,2021.2.3,MacIntel,59.99880002,,,,,,,,,,,,0.5551,1,,,,,,,,,,,,,,z,1,0.5551,,,,,,,,0.053797743,-0.377790799,0,0,0,,0,74,74,96,1,KEAMS,C,old,z,./images/KEAMS.png,,,,,,,,,,,,,,,,,,,,,,
,,,,,,,,,,,,,,,,,198784,19,2022-01-28_16h07.42.129,lexical_decision_task_DD_L6,2021.2.3,MacIntel,59.99880002,,,,,,,,,,,,0.6128,1,,,,,,,,,,,,,,m,1,0.6128,,,,,,,,0.053797743,-0.377790799,0,0,0,,0,75,75,27,1,BUTTER,LB,old,m,./images/BUTTERLB.png,,,,,,,,,,,,,,,,,,,,,,
,,,,,,,,,,,,,,,,,198784,19,2022-01-28_16h07.42.129,lexical_decision_task_DD_L6,2021.2.3,MacIntel,59.99880002,,,,,,,,,,,,0.6766,1,,,,,,,,,,,,,,m,1,0.6766,,,,,,,,0.053797743,-0.377790799,0,0,0,,0,76,76,73,1,GLOVE,C,old,m,./images/GLOVE.png,,,,,,,,,,,,,,,,,,,,,,
,,,,,,,,,,,,,,,,,198784,19,2022-01-28_16h07.42.129,lexical_decision_task_DD_L6,2021.2.3,MacIntel,59.99880002,,,,,,,,,,,,0.6234,1,,,,,,,,,,,,,,z,1,0.6234,,,,,,,,0.053797743,-0.377790799,0,0,0,,0,77,77,135,1,JOODY,C,old,z,./images/JOODY.png,,,,,,,,,,,,,,,,,,,,,,
,,,,,,,,,,,,,,,,,198784,19,2022-01-28_16h07.42.129,lexical_decision_task_DD_L6,2021.2.3,MacIntel,59.99880002,,,,,,,,,,,,0.798,1,,,,,,,,,,,,,,z,1,0.798,,,,,,,,0.053797743,-0.377790799,0,0,0,,0,78,78,107,1,FASKS,LB,old,z,./images/FASKSLB.png,,,,,,,,,,,,,,,,,,,,,,
,,,,,,,,,,,,,,,,,198784,19,2022-01-28_16h07.42.129,lexical_decision_task_DD_L6,2021.2.3,MacIntel,59.99880002,,,,,,,,,,,,0.8069,1,,,,,,,,,,,,,,m,1,0.8069,,,,,,,,0.053797743,-0.377790799,0,0,0,,0,79,79,23,1,CLOTH,HB,old,m,./images/CLOTHHB.png,,,,,,,,,,,,,,,,,,,,,,
,,,,,,,,,,,,,,,,,198784,19,2022-01-28_16h07.42.129,lexical_decision_task_DD_L6,2021.2.3,MacIntel,59.99880002,,,,,,,,,,,,0.7329,1,,,,,,,,,,,,,,z,1,0.7329,,,,,,,,0.053797743,-0.377790799,0,0,0,,0,80,80,164,1,SGREW,LB,old,z,./images/SGREWLB.png,,,,,,,,,,,,,,,,,,,,,,
,,,,,,,,,,,,,,,,,198784,19,2022-01-28_16h07.42.129,lexical_decision_task_DD_L6,2021.2.3,MacIntel,59.99880002,,,,,,,,,,,,0.6542,1,,,,,,,,,,,,,,m,1,0.6542,,,,,,,,0.053797743,-0.377790799,0,0,0,,0,81,81,26,1,CLOUD,HB,old,m,./images/CLOUDHB.png,,,,,,,,,,,,,,,,,,,,,,
,,,,,,,,,,,,,,,,,198784,19,2022-01-28_16h07.42.129,lexical_decision_task_DD_L6,2021.2.3,MacIntel,59.99880002,,,,,,,,,,,,0.8879,1,,,,,,,,,,,,,,z,1,0.8879,,,,,,,,0.053797743,-0.377790799,0,0,0,,0,82,82,152,1,FRAIN,LB,old,z,./images/FRAINLB.png,,,,,,,,,,,,,,,,,,,,,,
,,,,,,,,,,,,,,,,,198784,19,2022-01-28_16h07.42.129,lexical_decision_task_DD_L6,2021.2.3,MacIntel,59.99880002,,,,,,,,,,,,0.6908,1,,,,,,,,,,,,,,m,1,0.6908,,,,,,,,0.053797743,-0.377790799,0,0,0,space,0,83,83,61,1,ARTIST,C,old,m,./images/ARTIST.png,,4.4661,,,,,,,,,,,,,,,,,,,,
,,,,,,,,,,,,,,,,,198784,19,2022-01-28_16h07.42.129,lexical_decision_task_DD_L6,2021.2.3,MacIntel,59.99880002,,,,,,,,,,,,0.7397,1,,,,,,,,,,,,,,m,1,0.7397,,,,,,,,0.053797743,-0.377790799,0,0,0,,0,84,84,45,1,MONKEY,LB,old,m,./images/MONKEYLB.png,,,,,,,,,,,,,,,,,,,,,,
,,,,,,,,,,,,,,,,,198784,19,2022-01-28_16h07.42.129,lexical_decision_task_DD_L6,2021.2.3,MacIntel,59.99880002,,,,,,,,,,,,0.6813,1,,,,,,,,,,,,,,z,1,0.6813,,,,,,,,0.053797743,-0.377790799,0,0,0,,0,85,85,125,1,MOOKY,LB,old,z,./images/MOOKYLB.png,,,,,,,,,,,,,,,,,,,,,,
,,,,,,,,,,,,,,,,,198784,19,2022-01-28_16h07.42.129,lexical_decision_task_DD_L6,2021.2.3,MacIntel,59.99880002,,,,,,,,,,,,0.5865,1,,,,,,,,,,,,,,m,1,0.5865,,,,,,,,0.053797743,-0.377790799,0,0,0,,0,86,86,54,1,CHERRY,LB,old,m,./images/CHERRYLB.png,,,,,,,,,,,,,,,,,,,,,,
,,,,,,,,,,,,,,,,,198784,19,2022-01-28_16h07.42.129,lexical_decision_task_DD_L6,2021.2.3,MacIntel,59.99880002,,,,,,,,,,,,0.7187,1,,,,,,,,,,,,,,z,1,0.7187,,,,,,,,0.053797743,-0.377790799,0,0,0,,0,87,87,102,1,DULLE,C,old,z,./images/DULLE.png,,,,,,,,,,,,,,,,,,,,,,
,,,,,,,,,,,,,,,,,198784,19,2022-01-28_16h07.42.129,lexical_decision_task_DD_L6,2021.2.3,MacIntel,59.99880002,,,,,,,,,,,,0.6183,1,,,,,,,,,,,,,,z,1,0.6183,,,,,,,,0.053797743,-0.377790799,0,0,0,,0,88,88,150,1,NOOLS,C,old,z,./images/NOOLS.png,,,,,,,,,,,,,,,,,,,,,,
,,,,,,,,,,,,,,,,,198784,19,2022-01-28_16h07.42.129,lexical_decision_task_DD_L6,2021.2.3,MacIntel,59.99880002,,,,,,,,,,,,0.807,1,,,,,,,,,,,,,,z,1,0.807,,,,,,,,0.053797743,-0.377790799,0,0,0,,0,89,89,159,1,CUDDY,C,old,z,./images/CUDDY.png,,,,,,,,,,,,,,,,,,,,,,
,,,,,,,,,,,,,,,,,198784,19,2022-01-28_16h07.42.129,lexical_decision_task_DD_L6,2021.2.3,MacIntel,59.99880002,,,,,,,,,,,,1.4551,1,,,,,,,,,,,,,,z,1,1.4551,,,,,,,,0.053797743,-0.377790799,0,0,0,,0,90,90,99,1,BACKY,C,old,z,./images/BACKY.png,,,,,,,,,,,,,,,,,,,,,,
,,,,,,,,,,,,,,,,,198784,19,2022-01-28_16h07.42.129,lexical_decision_task_DD_L6,2021.2.3,MacIntel,59.99880002,,,,,,,,,,,,0.7191,1,,,,,,,,,,,,,,m,1,0.7191,,,,,,,,0.053797743,-0.377790799,0,0,0,,0,91,91,3,1,CRATER,LB,old,m,./images/CRATERLB.png,,,,,,,,,,,,,,,,,,,,,,
,,,,,,,,,,,,,,,,,198784,19,2022-01-28_16h07.42.129,lexical_decision_task_DD_L6,2021.2.3,MacIntel,59.99880002,,,,,,,,,,,,0.6634,1,,,,,,,,,,,,,,m,1,0.6634,,,,,,,,0.053797743,-0.377790799,0,0,0,,0,92,92,31,1,STEAK,C,old,m,./images/STEAK.png,,,,,,,,,,,,,,,,,,,,,,
,,,,,,,,,,,,,,,,,198784,19,2022-01-28_16h07.42.129,lexical_decision_task_DD_L6,2021.2.3,MacIntel,59.99880002,,,,,,,,,,,,0.5208,1,,,,,,,,,,,,,,m,1,0.5208,,,,,,,,0.053797743,-0.377790799,0,0,0,,0,93,93,37,1,TIGER,C,old,m,./images/TIGER.png,,,,,,,,,,,,,,,,,,,,,,
,,,,,,,,,,,,,,,,,198784,19,2022-01-28_16h07.42.129,lexical_decision_task_DD_L6,2021.2.3,MacIntel,59.99880002,,,,,,,,,,,,0.8242,1,,,,,,,,,,,,,,m,1,0.8242,,,,,,,,0.053797743,-0.377790799,0,0,0,,0,94,94,7,1,WAGON,C,old,m,./images/WAGON.png,,,,,,,,,,,,,,,,,,,,,,
,,,,,,,,,,,,,,,,,198784,19,2022-01-28_16h07.42.129,lexical_decision_task_DD_L6,2021.2.3,MacIntel,59.99880002,,,,,,,,,,,,0.5763,1,,,,,,,,,,,,,,m,1,0.5763,,,,,,,,0.053797743,-0.377790799,0,0,0,,0,95,95,34,1,RAZOR,C,old,m,./images/RAZOR.png,,,,,,,,,,,,,,,,,,,,,,
,,,,,,,,,,,,,,,,,198784,19,2022-01-28_16h07.42.129,lexical_decision_task_DD_L6,2021.2.3,MacIntel,59.99880002,,,,,,,,,,,,0.7564,1,,,,,,,,,,,,,,m,1,0.7564,,,,,,,,0.053797743,-0.377790799,0,0,0,,0,96,96,18,1,PARCEL,LB,old,m,./images/PARCELLB.png,,,,,,,,,,,,,,,,,,,,,,
,,,,,,,,,,,,,,,,,198784,19,2022-01-28_16h07.42.129,lexical_decision_task_DD_L6,2021.2.3,MacIntel,59.99880002,,,,,,,,,,,,0.822,1,,,,,,,,,,,,,,z,1,0.822,,,,,,,,0.053797743,-0.377790799,0,0,0,,0,97,97,138,1,PLICE,C,old,z,./images/PLICE.png,,,,,,,,,,,,,,,,,,,,,,
,,,,,,,,,,,,,,,,,198784,19,2022-01-28_16h07.42.129,lexical_decision_task_DD_L6,2021.2.3,MacIntel,59.99880002,,,,,,,,,,,,0.8552,1,,,,,,,,,,,,,,m,1,0.8552,,,,,,,,0.053797743,-0.377790799,0,0,0,,0,98,98,81,1,DRILL,LB,old,m,./images/DRILLLB.png,,,,,,,,,,,,,,,,,,,,,,
,,,,,,,,,,,,,,,,,198784,19,2022-01-28_16h07.42.129,lexical_decision_task_DD_L6,2021.2.3,MacIntel,59.99880002,,,,,,,,,,,,0.6721,1,,,,,,,,,,,,,,z,1,0.6721,,,,,,,,0.053797743,-0.377790799,0,0,0,,0,99,99,123,1,SEDGE,C,old,z,./images/SEDGE.png,,,,,,,,,,,,,,,,,,,,,,
,,,,,,,,,,,,,,,,,198784,19,2022-01-28_16h07.42.129,lexical_decision_task_DD_L6,2021.2.3,MacIntel,59.99880002,,,,,,,,,,,,0.6226,1,,,,,,,,,,,,,,m,1,0.6226,,,,,,,,0.053797743,-0.377790799,0,0,0,,0,100,100,43,1,STOOL,C,old,m,./images/STOOL.png,,,,,,,,,,,,,,,,,,,,,,
,,,,,,,,,,,,,,,,,198784,19,2022-01-28_16h07.42.129,lexical_decision_task_DD_L6,2021.2.3,MacIntel,59.99880002,,,,,,,,,,,,0.8039,1,,,,,,,,,,,,,,z,1,0.8039,,,,,,,,0.053797743,-0.377790799,0,0,0,,0,101,101,156,1,HIXES,C,old,z,./images/HIXES.png,,,,,,,,,,,,,,,,,,,,,,
,,,,,,,,,,,,,,,,,198784,19,2022-01-28_16h07.42.129,lexical_decision_task_DD_L6,2021.2.3,MacIntel,59.99880002,,,,,,,,,,,,0.7061,1,,,,,,,,,,,,,,z,1,0.7061,,,,,,,,0.053797743,-0.377790799,0,0,0,,0,102,102,141,1,PLEET,C,old,z,./images/PLEET.png,,,,,,,,,,,,,,,,,,,,,,
,,,,,,,,,,,,,,,,,198784,19,2022-01-28_16h07.42.129,lexical_decision_task_DD_L6,2021.2.3,MacIntel,59.99880002,,,,,,,,,,,,0.7482,1,,,,,,,,,,,,,,z,1,0.7482,,,,,,,,0.053797743,-0.377790799,0,0,0,,0,103,103,167,1,ZONET,LB,old,z,./images/ZONETLB.png,,,,,,,,,,,,,,,,,,,,,,
,,,,,,,,,,,,,,,,,198784,19,2022-01-28_16h07.42.129,lexical_decision_task_DD_L6,2021.2.3,MacIntel,59.99880002,,,,,,,,,,,,1.2705,1,,,,,,,,,,,,,,z,1,1.2705,,,,,,,,0.053797743,-0.377790799,0,0,0,,0,104,104,97,1,CHIDS,HB,old,z,./images/CHIDSHB.png,,,,,,,,,,,,,,,,,,,,,,
,,,,,,,,,,,,,,,,,198784,19,2022-01-28_16h07.42.129,lexical_decision_task_DD_L6,2021.2.3,MacIntel,59.99880002,,,,,,,,,,,,0.7394,1,,,,,,,,,,,,,,z,1,0.7394,,,,,,,,0.053797743,-0.377790799,0,0,0,,0,105,105,147,1,ZOLES,C,old,z,./images/ZOLES.png,,,,,,,,,,,,,,,,,,,,,,
,,,,,,,,,,,,,,,,,198784,19,2022-01-28_16h07.42.129,lexical_decision_task_DD_L6,2021.2.3,MacIntel,59.99880002,,,,,,,,,,,,0.8299,1,,,,,,,,,,,,,,z,1,0.8299,,,,,,,,0.053797743,-0.377790799,0,0,0,,0,106,106,146,1,MOOST,LB,old,z,./images/MOOSTLB.png,,,,,,,,,,,,,,,,,,,,,,
,,,,,,,,,,,,,,,,,198784,19,2022-01-28_16h07.42.129,lexical_decision_task_DD_L6,2021.2.3,MacIntel,59.99880002,,,,,,,,,,,,0.7461,1,,,,,,,,,,,,,,m,1,0.7461,,,,,,,,0.053797743,-0.377790799,0,0,0,,0,107,107,36,1,BOILER,LB,old,m,./images/BOILERLB.png,,,,,,,,,,,,,,,,,,,,,,
,,,,,,,,,,,,,,,,,198784,19,2022-01-28_16h07.42.129,lexical_decision_task_DD_L6,2021.2.3,MacIntel,59.99880002,,,,,,,,,,,,0.848,1,,,,,,,,,,,,,,m,1,0.848,,,,,,,,0.053797743,-0.377790799,0,0,0,,0,108,108,20,1,GRANNY,HB,old,m,./images/GRANNYHB.png,,,,,,,,,,,,,,,,,,,,,,
,,,,,,,,,,,,,,,,,198784,19,2022-01-28_16h07.42.129,lexical_decision_task_DD_L6,2021.2.3,MacIntel,59.99880002,,,,,,,,,,,,0.5541,1,,,,,,,,,,,,,,m,1,0.5541,,,,,,,,0.053797743,-0.377790799,0,0,0,,0,109,109,64,1,BRIDE,C,old,m,./images/BRIDE.png,,,,,,,,,,,,,,,,,,,,,,
,,,,,,,,,,,,,,,,,198784,19,2022-01-28_16h07.42.129,lexical_decision_task_DD_L6,2021.2.3,MacIntel,59.99880002,,,,,,,,,,,,1.2463,1,,,,,,,,,,,,,,z,1,1.2463,,,,,,,,0.053797743,-0.377790799,0,0,0,,0,110,110,85,1,CHULK,HB,old,z,./images/CHULKHB.png,,,,,,,,,,,,,,,,,,,,,,
,,,,,,,,,,,,,,,,,198784,19,2022-01-28_16h07.42.129,lexical_decision_task_DD_L6,2021.2.3,MacIntel,59.99880002,,,,,,,,,,,,0.8667,1,,,,,,,,,,,,,,z,1,0.8667,,,,,,,,0.053797743,-0.377790799,0,0,0,,0,111,111,166,1,SHORY,HB,old,z,./images/SHORYHB.png,,,,,,,,,,,,,,,,,,,,,,
,,,,,,,,,,,,,,,,,198784,19,2022-01-28_16h07.42.129,lexical_decision_task_DD_L6,2021.2.3,MacIntel,59.99880002,,,,,,,,,,,,0.7012,1,,,,,,,,,,,,,,m,1,0.7012,,,,,,,,0.053797743,-0.377790799,0,0,0,,0,112,112,50,1,PILOT,HB,old,m,./images/PILOTHB.png,,,,,,,,,,,,,,,,,,,,,,
,,,,,,,,,,,,,,,,,198784,19,2022-01-28_16h07.42.129,lexical_decision_task_DD_L6,2021.2.3,MacIntel,59.99880002,,,,,,,,,,,,0.7346,1,,,,,,,,,,,,,,m,1,0.7346,,,,,,,,0.053797743,-0.377790799,0,0,0,,0,113,113,15,1,COLLAR,LB,old,m,./images/COLLARLB.png,,,,,,,,,,,,,,,,,,,,,,
,,,,,,,,,,,,,,,,,198784,19,2022-01-28_16h07.42.129,lexical_decision_task_DD_L6,2021.2.3,MacIntel,59.99880002,,,,,,,,,,,,0.814,1,,,,,,,,,,,,,,m,1,0.814,,,,,,,,0.053797743,-0.377790799,0,0,0,,0,114,114,44,1,BASKET,HB,old,m,./images/BASKETHB.png,,,,,,,,,,,,,,,,,,,,,,
,,,,,,,,,,,,,,,,,198784,19,2022-01-28_16h07.42.129,lexical_decision_task_DD_L6,2021.2.3,MacIntel,59.99880002,,,,,,,,,,,,0.6469,1,,,,,,,,,,,,,,m,1,0.6469,,,,,,,,0.053797743,-0.377790799,0,0,0,,0,115,115,30,1,SLOPE,LB,old,m,./images/SLOPELB.png,,,,,,,,,,,,,,,,,,,,,,
,,,,,,,,,,,,,,,,,198784,19,2022-01-28_16h07.42.129,lexical_decision_task_DD_L6,2021.2.3,MacIntel,59.99880002,,,,,,,,,,,,0.6172,1,,,,,,,,,,,,,,z,1,0.6172,,,,,,,,0.053797743,-0.377790799,0,0,0,,0,116,116,132,1,SCIFF,C,old,z,./images/SCIFF.png,,,,,,,,,,,,,,,,,,,,,,
,,,,,,,,,,,,,,,,,198784,19,2022-01-28_16h07.42.129,lexical_decision_task_DD_L6,2021.2.3,MacIntel,59.99880002,,,,,,,,,,,,0.9833,1,,,,,,,,,,,,,,z,1,0.9833,,,,,,,,0.053797743,-0.377790799,0,0,0,,0,117,117,136,1,WERVE,HB,old,z,./images/WERVEHB.png,,,,,,,,,,,,,,,,,,,,,,
,,,,,,,,,,,,,,,,,198784,19,2022-01-28_16h07.42.129,lexical_decision_task_DD_L6,2021.2.3,MacIntel,59.99880002,,,,,,,,,,,,0.7139,1,,,,,,,,,,,,,,z,1,0.7139,,,,,,,,0.053797743,-0.377790799,0,0,0,,0,118,118,149,1,VEASE,LB,old,z,./images/VEASELB.png,,,,,,,,,,,,,,,,,,,,,,
,,,,,,,,,,,,,,,,,198784,19,2022-01-28_16h07.42.129,lexical_decision_task_DD_L6,2021.2.3,MacIntel,59.99880002,,,,,,,,,,,,0.7505,1,,,,,,,,,,,,,,z,1,0.7505,,,,,,,,0.053797743,-0.377790799,0,0,0,,0,119,119,139,1,BLEAR,HB,old,z,./images/BLEARHB.png,,,,,,,,,,,,,,,,,,,,,,
,,,,,,,,,,,,,,,,,198784,19,2022-01-28_16h07.42.129,lexical_decision_task_DD_L6,2021.2.3,MacIntel,59.99880002,,,,,,,,,,,,0.8745,1,,,,,,,,,,,,,,z,1,0.8745,,,,,,,,0.053797743,-0.377790799,0,0,0,,0,120,120,148,1,JOMS,HB,old,z,./images/JOMSHB.png,,,,,,,,,,,,,,,,,,,,,,
,,,,,,,,,,,,,,,,,198784,19,2022-01-28_16h07.42.129,lexical_decision_task_DD_L6,2021.2.3,MacIntel,59.99880002,,,,,,,,,,,,0.6728,1,,,,,,,,,,,,,,m,1,0.6728,,,,,,,,0.053797743,-0.377790799,0,0,0,,0,121,121,67,1,POKER,C,old,m,./images/POKER.png,,,,,,,,,,,,,,,,,,,,,,
,,,,,,,,,,,,,,,,,198784,19,2022-01-28_16h07.42.129,lexical_decision_task_DD_L6,2021.2.3,MacIntel,59.99880002,,,,,,,,,,,,0.7087,1,,,,,,,,,,,,,,m,1,0.7087,,,,,,,,0.053797743,-0.377790799,0,0,0,,0,122,122,25,1,CHALK,C,old,m,./images/CHALK.png,,,,,,,,,,,,,,,,,,,,,,
,,,,,,,,,,,,,,,,,198784,19,2022-01-28_16h07.42.129,lexical_decision_task_DD_L6,2021.2.3,MacIntel,59.99880002,,,,,,,,,,,,0.687,1,,,,,,,,,,,,,,z,1,0.687,,,,,,,,0.053797743,-0.377790799,0,0,0,,0,123,123,153,1,CLUPS,C,old,z,./images/CLUPS.png,,,,,,,,,,,,,,,,,,,,,,
,,,,,,,,,,,,,,,,,198784,19,2022-01-28_16h07.42.129,lexical_decision_task_DD_L6,2021.2.3,MacIntel,59.99880002,,,,,,,,,,,,0.9039,1,,,,,,,,,,,,,,m,1,0.9039,,,,,,,,0.053797743,-0.377790799,0,0,0,,0,124,124,72,1,FLASK,LB,old,m,./images/FLASKLB.png,,,,,,,,,,,,,,,,,,,,,,
,,,,,,,,,,,,,,,,,198784,19,2022-01-28_16h07.42.129,lexical_decision_task_DD_L6,2021.2.3,MacIntel,59.99880002,,,,,,,,,,,,0.7554,1,,,,,,,,,,,,,,m,1,0.7554,,,,,,,,0.065928819,-0.446883681,1,0,0,,0,125,125,28,1,CASINO,C,old,m,./images/CASINO.png,break_done_button,,,,,,,,,,,,,,,,,,,,,
,,,,,,,,,,,,,,,,,198784,19,2022-01-28_16h07.42.129,lexical_decision_task_DD_L6,2021.2.3,MacIntel,59.99880002,,,,,,,,,,,,1.1899,1,,,,,,,,,,,,,,z,1,1.1899,,,,,,,,0.065928819,-0.446883681,0,0,0,,0,126,126,115,1,MAWNS,HB,old,z,./images/MAWNSHB.png,,,,,,,,,,,,,,,,,,,,,,
,,,,,,,,,,,,,,,,,198784,19,2022-01-28_16h07.42.129,lexical_decision_task_DD_L6,2021.2.3,MacIntel,59.99880002,,,,,,,,,,,,0.6735,1,,,,,,,,,,,,,,z,1,0.6735,,,,,,,,0.065928819,-0.446883681,0,0,0,,0,127,127,144,1,NAIRY,C,old,z,./images/NAIRY.png,,,,,,,,,,,,,,,,,,,,,,
,,,,,,,,,,,,,,,,,198784,19,2022-01-28_16h07.42.129,lexical_decision_task_DD_L6,2021.2.3,MacIntel,59.99880002,,,,,,,,,,,,1.0328,1,,,,,,,,,,,,,,z,1,1.0328,,,,,,,,0.065928819,-0.446883681,0,0,0,,0,128,128,106,1,CLUMS,HB,old,z,./images/CLUMSHB.png,,,,,,,,,,,,,,,,,,,,,,
,,,,,,,,,,,,,,,,,198784,19,2022-01-28_16h07.42.129,lexical_decision_task_DD_L6,2021.2.3,MacIntel,59.99880002,,,,,,,,,,,,0.7548,1,,,,,,,,,,,,,,m,1,0.7548,,,,,,,,0.065928819,-0.446883681,0,0,0,,0,129,129,83,1,WHISKY,HB,old,m,./images/WHISKYHB.png,,,,,,,,,,,,,,,,,,,,,,
,,,,,,,,,,,,,,,,,198784,19,2022-01-28_16h07.42.129,lexical_decision_task_DD_L6,2021.2.3,MacIntel,59.99880002,,,,,,,,,,,,1.598,1,,,,,,,,,,,,,,z,1,1.598,,,,,,,,0.065928819,-0.446883681,0,0,0,,0,130,130,127,1,NINDY,HB,old,z,./images/NINDYHB.png,,,,,,,,,,,,,,,,,,,,,,
,,,,,,,,,,,,,,,,,198784,19,2022-01-28_16h07.42.129,lexical_decision_task_DD_L6,2021.2.3,MacIntel,59.99880002,,,,,,,,,,,,0.652,1,,,,,,,,,,,,,,z,1,0.652,,,,,,,,0.065928819,-0.446883681,0,0,0,,0,131,131,158,1,EGECT,LB,old,z,./images/EGECTLB.png,,,,,,,,,,,,,,,,,,,,,,
,,,,,,,,,,,,,,,,,198784,19,2022-01-28_16h07.42.129,lexical_decision_task_DD_L6,2021.2.3,MacIntel,59.99880002,,,,,,,,,,,,0.8132,1,,,,,,,,,,,,,,m,1,0.8132,,,,,,,,0.065928819,-0.446883681,0,0,0,,0,132,132,2,1,STOVE,HB,old,m,./images/STOVEHB.png,,,,,,,,,,,,,,,,,,,,,,
,,,,,,,,,,,,,,,,,198784,19,2022-01-28_16h07.42.129,lexical_decision_task_DD_L6,2021.2.3,MacIntel,59.99880002,,,,,,,,,,,,0.8653,1,,,,,,,,,,,,,,m,1,0.8653,,,,,,,,0.065928819,-0.446883681,0,0,0,,0,133,133,41,1,STREAM,HB,old,m,./images/STREAMHB.png,,,,,,,,,,,,,,,,,,,,,,
,,,,,,,,,,,,,,,,,198784,19,2022-01-28_16h07.42.129,lexical_decision_task_DD_L6,2021.2.3,MacIntel,59.99880002,,,,,,,,,,,,0.7378,1,,,,,,,,,,,,,,m,1,0.7378,,,,,,,,0.065928819,-0.446883681,0,0,0,,0,134,134,71,1,BUBBLE,HB,old,m,./images/BUBBLEHB.png,,,,,,,,,,,,,,,,,,,,,,
,,,,,,,,,,,,,,,,,198784,19,2022-01-28_16h07.42.129,lexical_decision_task_DD_L6,2021.2.3,MacIntel,59.99880002,,,,,,,,,,,,0.7678,1,,,,,,,,,,,,,,z,1,0.7678,,,,,,,,0.065928819,-0.446883681,0,0,0,,0,135,135,124,1,TUNCH,HB,old,z,./images/TUNCHHB.png,,,,,,,,,,,,,,,,,,,,,,
,,,,,,,,,,,,,,,,,198784,19,2022-01-28_16h07.42.129,lexical_decision_task_DD_L6,2021.2.3,MacIntel,59.99880002,,,,,,,,,,,,1.7289,1,,,,,,,,,,,,,,z,1,1.7289,,,,,,,,0.065928819,-0.446883681,0,0,0,,0,136,136,155,1,CANGY,LB,old,z,./images/CANGYLB.png,,,,,,,,,,,,,,,,,,,,,,
,,,,,,,,,,,,,,,,,198784,19,2022-01-28_16h07.42.129,lexical_decision_task_DD_L6,2021.2.3,MacIntel,59.99880002,,,,,,,,,,,,1.1192,1,,,,,,,,,,,,,,z,1,1.1192,,,,,,,,0.065928819,-0.446883681,0,0,0,,0,137,137,105,1,MOKER,C,old,z,./images/MOKER.png,,,,,,,,,,,,,,,,,,,,,,
,,,,,,,,,,,,,,,,,198784,19,2022-01-28_16h07.42.129,lexical_decision_task_DD_L6,2021.2.3,MacIntel,59.99880002,,,,,,,,,,,,0.8154,1,,,,,,,,,,,,,,m,1,0.8154,,,,,,,,0.065928819,-0.446883681,0,0,0,,0,138,138,29,1,PISTOL,HB,old,m,./images/PISTOLHB.png,,,,,,,,,,,,,,,,,,,,,,
,,,,,,,,,,,,,,,,,198784,19,2022-01-28_16h07.42.129,lexical_decision_task_DD_L6,2021.2.3,MacIntel,59.99880002,,,,,,,,,,,,0.6596,1,,,,,,,,,,,,,,z,1,0.6596,,,,,,,,0.065928819,-0.446883681,0,0,0,,0,139,139,114,1,RIKES,C,old,z,./images/RIKES.png,,,,,,,,,,,,,,,,,,,,,,
,,,,,,,,,,,,,,,,,198784,19,2022-01-28_16h07.42.129,lexical_decision_task_DD_L6,2021.2.3,MacIntel,59.99880002,,,,,,,,,,,,0.66,1,,,,,,,,,,,,,,z,1,0.66,,,,,,,,0.065928819,-0.446883681,0,0,0,,0,140,140,117,1,STEEG,C,old,z,./images/STEEG.png,,,,,,,,,,,,,,,,,,,,,,
,,,,,,,,,,,,,,,,,198784,19,2022-01-28_16h07.42.129,lexical_decision_task_DD_L6,2021.2.3,MacIntel,59.99880002,,,,,,,,,,,,0.5724,1,,,,,,,,,,,,,,z,1,0.5724,,,,,,,,0.065928819,-0.446883681,0,0,0,,0,141,141,89,1,DRIEK,LB,old,z,./images/DRIEKLB.png,,,,,,,,,,,,,,,,,,,,,,
,,,,,,,,,,,,,,,,,198784,19,2022-01-28_16h07.42.129,lexical_decision_task_DD_L6,2021.2.3,MacIntel,59.99880002,,,,,,,,,,,,0.7831,1,,,,,,,,,,,,,,z,1,0.7831,,,,,,,,0.065928819,-0.446883681,0,0,0,,0,142,142,88,1,GLUSH,HB,old,z,./images/GLUSHHB.png,,,,,,,,,,,,,,,,,,,,,,
,,,,,,,,,,,,,,,,,198784,19,2022-01-28_16h07.42.129,lexical_decision_task_DD_L6,2021.2.3,MacIntel,59.99880002,,,,,,,,,,,,0.6821,1,,,,,,,,,,,,,,m,1,0.6821,,,,,,,,0.065928819,-0.446883681,0,0,0,,0,143,143,48,1,SHIELD,LB,old,m,./images/SHIELDLB.png,,,,,,,,,,,,,,,,,,,,,,
,,,,,,,,,,,,,,,,,198784,19,2022-01-28_16h07.42.129,lexical_decision_task_DD_L6,2021.2.3,MacIntel,59.99880002,,,,,,,,,,,,0.6016,1,,,,,,,,,,,,,,m,1,0.6016,,,,,,,,0.065928819,-0.446883681,0,0,0,,0,144,144,82,1,PEBBLE,C,old,m,./images/PEBBLE.png,,,,,,,,,,,,,,,,,,,,,,
,,,,,,,,,,,,,,,,,198784,19,2022-01-28_16h07.42.129,lexical_decision_task_DD_L6,2021.2.3,MacIntel,59.99880002,,,,,,,,,,,,0.7303,1,,,,,,,,,,,,,,z,1,0.7303,,,,,,,,0.065928819,-0.446883681,0,0,0,,0,145,145,151,1,TINKY,HB,old,z,./images/TINKYHB.png,,,,,,,,,,,,,,,,,,,,,,
,,,,,,,,,,,,,,,,,198784,19,2022-01-28_16h07.42.129,lexical_decision_task_DD_L6,2021.2.3,MacIntel,59.99880002,,,,,,,,,,,,1.0493,1,,,,,,,,,,,,,,z,1,1.0493,,,,,,,,0.065928819,-0.446883681,0,0,0,,0,146,146,154,1,THINT,HB,old,z,./images/THINTHB.png,,,,,,,,,,,,,,,,,,,,,,
,,,,,,,,,,,,,,,,,198784,19,2022-01-28_16h07.42.129,lexical_decision_task_DD_L6,2021.2.3,MacIntel,59.99880002,,,,,,,,,,,,0.731,1,,,,,,,,,,,,,,m,1,0.731,,,,,,,,0.065928819,-0.446883681,0,0,0,,0,147,147,60,1,CURRY,LB,old,m,./images/CURRYLB.png,,,,,,,,,,,,,,,,,,,,,,
,,,,,,,,,,,,,,,,,198784,19,2022-01-28_16h07.42.129,lexical_decision_task_DD_L6,2021.2.3,MacIntel,59.99880002,,,,,,,,,,,,0.6505,1,,,,,,,,,,,,,,m,1,0.6505,,,,,,,,0.065928819,-0.446883681,0,0,0,,0,148,148,78,1,BROOM,LB,old,m,./images/BROOMLB.png,,,,,,,,,,,,,,,,,,,,,,
,,,,,,,,,,,,,,,,,198784,19,2022-01-28_16h07.42.129,lexical_decision_task_DD_L6,2021.2.3,MacIntel,59.99880002,,,,,,,,,,,,0.7211,1,,,,,,,,,,,,,,m,1,0.7211,,,,,,,,0.065928819,-0.446883681,0,0,0,,0,149,149,77,1,WHEEL,HB,old,m,./images/WHEELHB.png,,,,,,,,,,,,,,,,,,,,,,
,,,,,,,,,,,,,,,,,198784,19,2022-01-28_16h07.42.129,lexical_decision_task_DD_L6,2021.2.3,MacIntel,59.99880002,,,,,,,,,,,,0.6615,1,,,,,,,,,,,,,,m,1,0.6615,,,,,,,,0.065928819,-0.446883681,0,0,0,,0,150,150,79,1,RULER,C,old,m,./images/RULER.png,,,,,,,,,,,,,,,,,,,,,,
,,,,,,,,,,,,,,,,,198784,19,2022-01-28_16h07.42.129,lexical_decision_task_DD_L6,2021.2.3,MacIntel,59.99880002,,,,,,,,,,,,0.7117,1,,,,,,,,,,,,,,z,1,0.7117,,,,,,,,0.065928819,-0.446883681,0,0,0,,0,151,151,101,1,GLEET,LB,old,z,./images/GLEETLB.png,,,,,,,,,,,,,,,,,,,,,,
,,,,,,,,,,,,,,,,,198784,19,2022-01-28_16h07.42.129,lexical_decision_task_DD_L6,2021.2.3,MacIntel,59.99880002,,,,,,,,,,,,0.9286,1,,,,,,,,,,,,,,m,1,0.9286,,,,,,,,0.065928819,-0.446883681,0,0,0,,0,152,152,80,1,PLANET,HB,old,m,./images/PLANETHB.png,,,,,,,,,,,,,,,,,,,,,,
,,,,,,,,,,,,,,,,,198784,19,2022-01-28_16h07.42.129,lexical_decision_task_DD_L6,2021.2.3,MacIntel,59.99880002,,,,,,,,,,,,1.0199,1,,,,,,,,,,,,,,m,1,1.0199,,,,,,,,0.065928819,-0.446883681,0,0,0,,0,153,153,8,1,CLIFF,HB,old,m,./images/CLIFFHB.png,,,,,,,,,,,,,,,,,,,,,,
,,,,,,,,,,,,,,,,,198784,19,2022-01-28_16h07.42.129,lexical_decision_task_DD_L6,2021.2.3,MacIntel,59.99880002,,,,,,,,,,,,1.0211,1,,,,,,,,,,,,,,m,1,1.0211,,,,,,,,0.065928819,-0.446883681,0,0,0,,0,154,154,70,1,BANANA,C,old,m,./images/BANANA.png,,,,,,,,,,,,,,,,,,,,,,
,,,,,,,,,,,,,,,,,198784,19,2022-01-28_16h07.42.129,lexical_decision_task_DD_L6,2021.2.3,MacIntel,59.99880002,,,,,,,,,,,,1.2792,1,,,,,,,,,,,,,,z,1,1.2792,,,,,,,,0.065928819,-0.446883681,0,0,0,,0,155,155,110,1,CRUNK,LB,old,z,./images/CRUNKLB.png,,,,,,,,,,,,,,,,,,,,,,
,,,,,,,,,,,,,,,,,198784,19,2022-01-28_16h07.42.129,lexical_decision_task_DD_L6,2021.2.3,MacIntel,59.99880002,,,,,,,,,,,,0.797,1,,,,,,,,,,,,,,m,1,0.797,,,,,,,,0.065928819,-0.446883681,0,0,0,,0,156,156,35,1,LLAMA,HB,old,m,./images/LLAMAHB.png,,,,,,,,,,,,,,,,,,,,,,
,,,,,,,,,,,,,,,,,198784,19,2022-01-28_16h07.42.129,lexical_decision_task_DD_L6,2021.2.3,MacIntel,59.99880002,,,,,,,,,,,,0.7082,1,,,,,,,,,,,,,,z,1,0.7082,,,,,,,,0.065928819,-0.446883681,0,0,0,,0,157,157,95,1,HANTY,LB,old,z,./images/HANTYLB.png,,,,,,,,,,,,,,,,,,,,,,
,,,,,,,,,,,,,,,,,198784,19,2022-01-28_16h07.42.129,lexical_decision_task_DD_L6,2021.2.3,MacIntel,59.99880002,,,,,,,,,,,,1.2317,1,,,,,,,,,,,,,,z,1,1.2317,,,,,,,,0.065928819,-0.446883681,0,0,0,,0,158,158,109,1,BURGE,HB,old,z,./images/BURGEHB.png,,,,,,,,,,,,,,,,,,,,,,
,,,,,,,,,,,,,,,,,198784,19,2022-01-28_16h07.42.129,lexical_decision_task_DD_L6,2021.2.3,MacIntel,59.99880002,,,,,,,,,,,,1.1308,1,,,,,,,,,,,,,,z,1,1.1308,,,,,,,,0.065928819,-0.446883681,0,0,0,,0,159,159,133,1,POWDY,HB,old,z,./images/POWDYHB.png,,,,,,,,,,,,,,,,,,,,,,
,,,,,,,,,,,,,,,,,198784,19,2022-01-28_16h07.42.129,lexical_decision_task_DD_L6,2021.2.3,MacIntel,59.99880002,,,,,,,,,,,,0.6893,1,,,,,,,,,,,,,,z,1,0.6893,,,,,,,,0.065928819,-0.446883681,0,0,0,,0,160,160,119,1,PAFER,LB,old,z,./images/PAFERLB.png,,,,,,,,,,,,,,,,,,,,,,
,,,,,,,,,,,,,,,,,198784,19,2022-01-28_16h07.42.129,lexical_decision_task_DD_L6,2021.2.3,MacIntel,59.99880002,,,,,,,,,,,,1.8724,1,,,,,,,,,,,,,,z,1,1.8724,,,,,,,,0.065928819,-0.446883681,0,0,0,,0,161,161,157,1,INLER,HB,old,z,./images/INLERHB.png,,,,,,,,,,,,,,,,,,,,,,
,,,,,,,,,,,,,,,,,198784,19,2022-01-28_16h07.42.129,lexical_decision_task_DD_L6,2021.2.3,MacIntel,59.99880002,,,,,,,,,,,,0.644,1,,,,,,,,,,,,,,z,1,0.644,,,,,,,,0.065928819,-0.446883681,0,0,0,,0,162,162,120,1,RINED,C,old,z,./images/RINED.png,,,,,,,,,,,,,,,,,,,,,,
,,,,,,,,,,,,,,,,,198784,19,2022-01-28_16h07.42.129,lexical_decision_task_DD_L6,2021.2.3,MacIntel,59.99880002,,,,,,,,,,,,0.6714,1,,,,,,,,,,,,,,z,1,0.6714,,,,,,,,0.065928819,-0.446883681,0,0,0,,0,163,163,93,1,SMONE,C,old,z,./images/SMONE.png,,,,,,,,,,,,,,,,,,,,,,
,,,,,,,,,,,,,,,,,198784,19,2022-01-28_16h07.42.129,lexical_decision_task_DD_L6,2021.2.3,MacIntel,59.99880002,,,,,,,,,,,,0.7329,1,,,,,,,,,,,,,,m,1,0.7329,,,,,,,,0.065928819,-0.446883681,0,0,0,,0,164,164,68,1,VALLEY,HB,old,m,./images/VALLEYHB.png,,,,,,,,,,,,,,,,,,,,,,
,,,,,,,,,,,,,,,,,198784,19,2022-01-28_16h07.42.129,lexical_decision_task_DD_L6,2021.2.3,MacIntel,59.99880002,,,,,,,,,,,,0.6044,1,,,,,,,,,,,,,,z,1,0.6044,,,,,,,,0.065928819,-0.446883681,0,0,0,,0,165,165,108,1,GRUET,C,old,z,./images/GRUET.png,,,,,,,,,,,,,,,,,,,,,,
,,,,,,,,,,,,,,,,,198784,19,2022-01-28_16h07.42.129,lexical_decision_task_DD_L6,2021.2.3,MacIntel,59.99880002,,,,,,,,,,,,1.0638,1,,,,,,,,,,,,,,m,1,1.0638,,,,,,,,0.065928819,-0.446883681,0,0,0,,0,166,166,12,1,BLOKE,LB,old,m,./images/BLOKELB.png,,,,,,,,,,,,,,,,,,,,,,
,,,,,,,,,,,,,,,,,198784,19,2022-01-28_16h07.42.129,lexical_decision_task_DD_L6,2021.2.3,MacIntel,59.99880002,,,,,,,,,,,,1.318,1,,,,,,,,,,,,,,m,1,1.318,,,,,,,,0.065928819,-0.446883681,0,0,0,,0,167,167,1,1,TOWEL,C,old,m,./images/TOWEL.png,,,,,,,,,,,,,,,,,,,,,,
,0.074756944,-0.396944444,1,0,0,instr_done_button,,,,,,1,test,"In the next phase you will be presented with the words from the the first phase. Your job is to decide whether you remember seeing the word or not. If you remember seeing the word press ""old"" or type ""m"". If you do not remember seeing the word press ""new"" or type ""z"". Please press the space bar or click on continue to begin. ",,,198784,19,2022-01-28_16h07.42.129,lexical_decision_task_DD_L6,2021.2.3,MacIntel,59.99880002,,,,,,,,,,,,,,,,,,,,,,,,,,,,,,,,,,,,,,,,,,,,,,,,,,,,,,,0,0,0,0,1,,,,,,,,,,,,,,,
,0.05905816,-0.398151042,1,0,0,instr_done_button,,,,,,1,test,"In the next phase you will be presented with the words from the the first phase. Your job is to decide whether you remember seeing the word or not. If you remember seeing the word press ""old"" or type ""m"". If you do not remember seeing the word press ""new"" or type ""z"". Please press the space bar or click on continue to begin. ",,,198784,19,2022-01-28_16h07.42.129,lexical_decision_task_DD_L6,2021.2.3,MacIntel,59.99880002,,,,,,,,,,,,,,,,,,,,,,,,,,,,,,,,,,,,,,,,,,,,,,,,,,,,,,,1,0,1,0,1,,,,,,,,,,,,,,,
,0.041436632,-0.420759549,1,0,0,instr_done_button,,,,,,1,test,"In the next phase you will be presented with the words from the the first phase. Your job is to decide whether you remember seeing the word or not. If you remember seeing the word press ""old"" or type ""m"". If you do not remember seeing the word press ""new"" or type ""z"". Please press the space bar or click on continue to begin. ",,,198784,19,2022-01-28_16h07.42.129,lexical_decision_task_DD_L6,2021.2.3,MacIntel,59.99880002,,,,,,,,,,,,,,,,,,,,,,,,,,,,,,,,,,,,,,,,,,,,,,,,,,,,,,,2,0,2,0,1,,,,,,,,,,,,,,,
space,0.041436632,-0.420759549,0,0,0,,,,,,,1,test,"In the next phase you will be presented with the words from the the first phase. Your job is to decide whether you remember seeing the word or not. If you remember seeing the word press ""old"" or type ""m"". If you do not remember seeing the word press ""new"" or type ""z"". Please press the space bar or click on continue to begin. ",,,198784,19,2022-01-28_16h07.42.129,lexical_decision_task_DD_L6,2021.2.3,MacIntel,59.99880002,0.5516,,,,,,,,,,,,,,,,,,,,,,,,,,,,,,,,,,,,,,,,,,,,,,,,,,,,,,3,0,3,0,1,,,,,,,,,,,,,,,
,0.05265191,-0.379835069,1,0,0,instr_done_button,,,,,,1,test,"In the next phase you will be presented with the words from the the first phase. Your job is to decide whether you remember seeing the word or not. If you remember seeing the word press ""old"" or type ""m"". If you do not remember seeing the word press ""new"" or type ""z"". Please press the space bar or click on continue to begin. ",,,198784,19,2022-01-28_16h07.42.129,lexical_decision_task_DD_L6,2021.2.3,MacIntel,59.99880002,,,,,,,,,,,,,,,,,,,,,,,,,,,,,,,,,,,,,,,,,,,,,,,,,,,,,,,4,0,4,0,1,,,,,,,,,,,,,,,
,,,,,,,,,,,,,,,,,198784,19,2022-01-28_16h07.42.129,lexical_decision_task_DD_L6,2021.2.3,MacIntel,59.99880002,,,,,,,,,,,,1.3037,1,,,,,,,,,,,,,,,,,,,,,,,,0.05265191,-0.379835069,0,0,0,,,,,,,MOSQUE,C,z,y,./images/MOSQUE.png,,,,,,,,z,1,1.3037,,,,,,,,0,0,0,127,1
,,,,,,,,,,,,,,,,,198784,19,2022-01-28_16h07.42.129,lexical_decision_task_DD_L6,2021.2.3,MacIntel,59.99880002,,,,,,,,,,,,1.0559,1,,,,,,,,,,,,,,,,,,,,,,,,0.05265191,-0.379835069,0,0,0,,,,,,,COUCH,HB,z,y,./images/COUCHHB.png,,,,,,,,z,1,1.0559,,,,,,,,0,1,1,161,1
,,,,,,,,,,,,,,,,,198784,19,2022-01-28_16h07.42.129,lexical_decision_task_DD_L6,2021.2.3,MacIntel,59.99880002,,,,,,,,,,,,1.1832,0,,,,,,,,,,,,,,,,,,,,,,,,0.05265191,-0.379835069,0,0,0,,,,,,,CHERRY,LB,m,y,./images/CHERRYLB.png,,,,,,,,z,0,1.1832,,,,,,,,0,2,2,54,1
,,,,,,,,,,,,,,,,,198784,19,2022-01-28_16h07.42.129,lexical_decision_task_DD_L6,2021.2.3,MacIntel,59.99880002,,,,,,,,,,,,1.9541,1,,,,,,,,,,,,,,,,,,,,,,,,0.05265191,-0.379835069,0,0,0,,,,,,,SWEAT,LB,z,y,./images/SWEATLB.png,,,,,,,,z,1,1.9541,,,,,,,,0,3,3,150,1
,,,,,,,,,,,,,,,,,198784,19,2022-01-28_16h07.42.129,lexical_decision_task_DD_L6,2021.2.3,MacIntel,59.99880002,,,,,,,,,,,,1.0196,1,,,,,,,,,,,,,,,,,,,,,,,,0.05265191,-0.379835069,0,0,0,,,,,,,SPINE,HB,m,y,./images/SPINEHB.png,,,,,,,,m,1,1.0196,,,,,,,,0,4,4,65,1
,,,,,,,,,,,,,,,,,198784,19,2022-01-28_16h07.42.129,lexical_decision_task_DD_L6,2021.2.3,MacIntel,59.99880002,,,,,,,,,,,,0.8532,1,,,,,,,,,,,,,,,,,,,,,,,,0.05265191,-0.379835069,0,0,0,,,,,,,JAGUAR,LB,z,y,./images/JAGUARLB.png,,,,,,,,z,1,0.8532,,,,,,,,0,5,5,102,1
,,,,,,,,,,,,,,,,,198784,19,2022-01-28_16h07.42.129,lexical_decision_task_DD_L6,2021.2.3,MacIntel,59.99880002,,,,,,,,,,,,0.8502,1,,,,,,,,,,,,,,,,,,,,,,,,0.05265191,-0.379835069,0,0,0,,,,,,,FARMER,HB,z,y,./images/FARMERHB.png,,,,,,,,z,1,0.8502,,,,,,,,0,6,6,149,1
,,,,,,,,,,,,,,,,,198784,19,2022-01-28_16h07.42.129,lexical_decision_task_DD_L6,2021.2.3,MacIntel,59.99880002,,,,,,,,,,,,0.7587,1,,,,,,,,,,,,,,,,,,,,,,,,0.05265191,-0.379835069,0,0,0,,,,,,,FALCON,C,z,y,./images/FALCON.png,,,,,,,,z,1,0.7587,,,,,,,,0,7,7,112,1
,,,,,,,,,,,,,,,,,198784,19,2022-01-28_16h07.42.129,lexical_decision_task_DD_L6,2021.2.3,MacIntel,59.99880002,,,,,,,,,,,,0.9745,1,,,,,,,,,,,,,,,,,,,,,,,,0.05265191,-0.379835069,0,0,0,,,,,,,WEASEL,HB,z,y,./images/WEASELHB.png,,,,,,,,z,1,0.9745,,,,,,,,0,8,8,164,1
,,,,,,,,,,,,,,,,,198784,19,2022-01-28_16h07.42.129,lexical_decision_task_DD_L6,2021.2.3,MacIntel,59.99880002,,,,,,,,,,,,0.7495,1,,,,,,,,,,,,,,,,,,,,,,,,0.05265191,-0.379835069,0,0,0,,,,,,,CLOUD,HB,m,y,./images/CLOUDHB.png,,,,,,,,m,1,0.7495,,,,,,,,0,9,9,26,1
,,,,,,,,,,,,,,,,,198784,19,2022-01-28_16h07.42.129,lexical_decision_task_DD_L6,2021.2.3,MacIntel,59.99880002,,,,,,,,,,,,0.8796,1,,,,,,,,,,,,,,,,,,,,,,,,0.05265191,-0.379835069,0,0,0,,,,,,,INFANT,C,z,y,./images/INFANT.png,,,,,,,,z,1,0.8796,,,,,,,,0,10,10,160,1
,,,,,,,,,,,,,,,,,198784,19,2022-01-28_16h07.42.129,lexical_decision_task_DD_L6,2021.2.3,MacIntel,59.99880002,,,,,,,,,,,,1.2334,1,,,,,,,,,,,,,,,,,,,,,,,,0.05265191,-0.379835069,0,0,0,,,,,,,BARREL,HB,z,y,./images/BARRELHB.png,,,,,,,,z,1,1.2334,,,,,,,,0,11,11,116,1
,,,,,,,,,,,,,,,,,198784,19,2022-01-28_16h07.42.129,lexical_decision_task_DD_L6,2021.2.3,MacIntel,59.99880002,,,,,,,,,,,,0.7902,1,,,,,,,,,,,,,,,,,,,,,,,,0.05265191,-0.379835069,0,0,0,,,,,,,CLOTH,HB,m,y,./images/CLOTHHB.png,,,,,,,,m,1,0.7902,,,,,,,,0,12,12,23,1
,,,,,,,,,,,,,,,,,198784,19,2022-01-28_16h07.42.129,lexical_decision_task_DD_L6,2021.2.3,MacIntel,59.99880002,,,,,,,,,,,,0.8513,1,,,,,,,,,,,,,,,,,,,,,,,,0.05265191,-0.379835069,0,0,0,,,,,,,MELON,C,z,y,./images/MELON.png,,,,,,,,z,1,0.8513,,,,,,,,0,13,13,106,1
,,,,,,,,,,,,,,,,,198784,19,2022-01-28_16h07.42.129,lexical_decision_task_DD_L6,2021.2.3,MacIntel,59.99880002,,,,,,,,,,,,0.9548,1,,,,,,,,,,,,,,,,,,,,,,,,0.05265191,-0.379835069,0,0,0,,,,,,,LAGOON,HB,m,y,./images/LAGOONHB.png,,,,,,,,m,1,0.9548,,,,,,,,0,14,14,47,1
,,,,,,,,,,,,,,,,,198784,19,2022-01-28_16h07.42.129,lexical_decision_task_DD_L6,2021.2.3,MacIntel,59.99880002,,,,,,,,,,,,1.1578,1,,,,,,,,,,,,,,,,,,,,,,,,0.05265191,-0.379835069,0,0,0,,,,,,,SUNSET,C,z,y,./images/SUNSET.png,,,,,,,,z,1,1.1578,,,,,,,,0,15,15,166,1
,,,,,,,,,,,,,,,,,198784,19,2022-01-28_16h07.42.129,lexical_decision_task_DD_L6,2021.2.3,MacIntel,59.99880002,,,,,,,,,,,,1.516,1,,,,,,,,,,,,,,,,,,,,,,,,0.05265191,-0.379835069,0,0,0,,,,,,,HOCKEY,HB,m,y,./images/HOCKEYHB.png,,,,,,,,m,1,1.516,,,,,,,,0,16,16,32,1
,,,,,,,,,,,,,,,,,198784,19,2022-01-28_16h07.42.129,lexical_decision_task_DD_L6,2021.2.3,MacIntel,59.99880002,,,,,,,,,,,,0.9148,1,,,,,,,,,,,,,,,,,,,,,,,,0.05265191,-0.379835069,0,0,0,,,,,,,STREAM,HB,m,y,./images/STREAMHB.png,,,,,,,,m,1,0.9148,,,,,,,,0,17,17,41,1
,,,,,,,,,,,,,,,,,198784,19,2022-01-28_16h07.42.129,lexical_decision_task_DD_L6,2021.2.3,MacIntel,59.99880002,,,,,,,,,,,,1.133,1,,,,,,,,,,,,,,,,,,,,,,,,0.05265191,-0.379835069,0,0,0,,,,,,,BEARD,HB,z,y,./images/BEARDHB.png,,,,,,,,z,1,1.133,,,,,,,,0,18,18,86,1
,,,,,,,,,,,,,,,,,198784,19,2022-01-28_16h07.42.129,lexical_decision_task_DD_L6,2021.2.3,MacIntel,59.99880002,,,,,,,,,,,,0.8338,1,,,,,,,,,,,,,,,,,,,,,,,,0.05265191,-0.379835069,0,0,0,,,,,,,LLAMA,HB,m,y,./images/LLAMAHB.png,,,,,,,,m,1,0.8338,,,,,,,,0,19,19,35,1
,,,,,,,,,,,,,,,,,198784,19,2022-01-28_16h07.42.129,lexical_decision_task_DD_L6,2021.2.3,MacIntel,59.99880002,,,,,,,,,,,,0.6155,1,,,,,,,,,,,,,,,,,,,,,,,,0.05265191,-0.379835069,0,0,0,,,,,,,DONKEY,C,m,y,./images/DONKEY.png,,,,,,,,m,1,0.6155,,,,,,,,0,20,20,19,1
,,,,,,,,,,,,,,,,,198784,19,2022-01-28_16h07.42.129,lexical_decision_task_DD_L6,2021.2.3,MacIntel,59.99880002,,,,,,,,,,,,0.7714,1,,,,,,,,,,,,,,,,,,,,,,,,0.05265191,-0.379835069,0,0,0,,,,,,,WALRUS,HB,z,y,./images/WALRUSHB.png,,,,,,,,z,1,0.7714,,,,,,,,0,21,21,107,1
,,,,,,,,,,,,,,,,,198784,19,2022-01-28_16h07.42.129,lexical_decision_task_DD_L6,2021.2.3,MacIntel,59.99880002,,,,,,,,,,,,0.7993,1,,,,,,,,,,,,,,,,,,,,,,,,0.05265191,-0.379835069,0,0,0,,,,,,,JUMPER,HB,m,y,./images/JUMPERHB.png,,,,,,,,m,1,0.7993,,,,,,,,0,22,22,74,1
,,,,,,,,,,,,,,,,,198784,19,2022-01-28_16h07.42.129,lexical_decision_task_DD_L6,2021.2.3,MacIntel,59.99880002,,,,,,,,,,,,0.6822,1,,,,,,,,,,,,,,,,,,,,,,,,0.05265191,-0.379835069,0,0,0,,,,,,,ENGINE,HB,m,y,./images/ENGINEHB.png,,,,,,,,m,1,0.6822,,,,,,,,0,23,23,38,1
,,,,,,,,,,,,,,,,,198784,19,2022-01-28_16h07.42.129,lexical_decision_task_DD_L6,2021.2.3,MacIntel,59.99880002,,,,,,,,,,,,0.7666,1,,,,,,,,,,,,,,,,,,,,,,,,0.05265191,-0.379835069,0,0,0,,,,,,,SAUNA,LB,m,y,./images/SAUNALB.png,,,,,,,,m,1,0.7666,,,,,,,,0,24,24,33,1
,,,,,,,,,,,,,,,,,198784,19,2022-01-28_16h07.42.129,lexical_decision_task_DD_L6,2021.2.3,MacIntel,59.99880002,,,,,,,,,,,,1.0252,1,,,,,,,,,,,,,,,,,,,,,,,,0.05265191,-0.379835069,0,0,0,,,,,,,NOOSE,LB,z,y,./images/NOOSELB.png,,,,,,,,z,1,1.0252,,,,,,,,0,25,25,156,1
,,,,,,,,,,,,,,,,,198784,19,2022-01-28_16h07.42.129,lexical_decision_task_DD_L6,2021.2.3,MacIntel,59.99880002,,,,,,,,,,,,2.0507,1,,,,,,,,,,,,,,,,,,,,,,,,0.05265191,-0.379835069,0,0,0,,,,,,,DRUMS,C,z,y,./images/DRUMS.png,,,,,,,,z,1,2.0507,,,,,,,,0,26,26,133,1
,,,,,,,,,,,,,,,,,198784,19,2022-01-28_16h07.42.129,lexical_decision_task_DD_L6,2021.2.3,MacIntel,59.99880002,,,,,,,,,,,,0.8836,1,,,,,,,,,,,,,,,,,,,,,,,,0.05265191,-0.379835069,0,0,0,,,,,,,PEARL,C,z,y,./images/PEARL.png,,,,,,,,z,1,0.8836,,,,,,,,0,27,27,130,1
,,,,,,,,,,,,,,,,,198784,19,2022-01-28_16h07.42.129,lexical_decision_task_DD_L6,2021.2.3,MacIntel,59.99880002,,,,,,,,,,,,0.7898,1,,,,,,,,,,,,,,,,,,,,,,,,0.05265191,-0.379835069,0,0,0,,,,,,,BUNNY,C,m,y,./images/BUNNY.png,,,,,,,,m,1,0.7898,,,,,,,,0,28,28,13,1
,,,,,,,,,,,,,,,,,198784,19,2022-01-28_16h07.42.129,lexical_decision_task_DD_L6,2021.2.3,MacIntel,59.99880002,,,,,,,,,,,,0.9238,1,,,,,,,,,,,,,,,,,,,,,,,,0.05265191,-0.379835069,0,0,0,,,,,,,MAMMAL,HB,m,y,./images/MAMMALHB.png,,,,,,,,m,1,0.9238,,,,,,,,0,29,29,62,1
,,,,,,,,,,,,,,,,,198784,19,2022-01-28_16h07.42.129,lexical_decision_task_DD_L6,2021.2.3,MacIntel,59.99880002,,,,,,,,,,,,2.1016,1,,,,,,,,,,,,,,,,,,,,,,,,0.05265191,-0.379835069,0,0,0,,,,,,,JELLY,C,z,y,./images/JELLY.png,,,,,,,,z,1,2.1016,,,,,,,,0,30,30,148,1
,,,,,,,,,,,,,,,,,198784,19,2022-01-28_16h07.42.129,lexical_decision_task_DD_L6,2021.2.3,MacIntel,59.99880002,,,,,,,,,,,,0.8988,1,,,,,,,,,,,,,,,,,,,,,,,,0.05265191,-0.379835069,0,0,0,,,,,,,TRIPOD,LB,z,y,./images/TRIPODLB.png,,,,,,,,z,1,0.8988,,,,,,,,0,31,31,138,1
,,,,,,,,,,,,,,,,,198784,19,2022-01-28_16h07.42.129,lexical_decision_task_DD_L6,2021.2.3,MacIntel,59.99880002,,,,,,,,,,,,0.9154,1,,,,,,,,,,,,,,,,,,,,,,,,0.05265191,-0.379835069,0,0,0,,,,,,,STEAK,C,m,y,./images/STEAK.png,,,,,,,,m,1,0.9154,,,,,,,,0,32,32,31,1
,,,,,,,,,,,,,,,,,198784,19,2022-01-28_16h07.42.129,lexical_decision_task_DD_L6,2021.2.3,MacIntel,59.99880002,,,,,,,,,,,,1.7845,1,,,,,,,,,,,,,,,,,,,,,,,,0.05265191,-0.379835069,0,0,0,,,,,,,LITTER,LB,z,y,./images/LITTERLB.png,,,,,,,,z,1,1.7845,,,,,,,,0,33,33,162,1
,,,,,,,,,,,,,,,,,198784,19,2022-01-28_16h07.42.129,lexical_decision_task_DD_L6,2021.2.3,MacIntel,59.99880002,,,,,,,,,,,,1.4178,0,,,,,,,,,,,,,,,,,,,,,,,,0.05265191,-0.379835069,0,0,0,,,,,,,ALLEY,C,m,y,./images/ALLEY.png,,,,,,,,z,0,1.4178,,,,,,,,0,34,34,55,1
,,,,,,,,,,,,,,,,,198784,19,2022-01-28_16h07.42.129,lexical_decision_task_DD_L6,2021.2.3,MacIntel,59.99880002,,,,,,,,,,,,0.7421,1,,,,,,,,,,,,,,,,,,,,,,,,0.05265191,-0.379835069,0,0,0,,,,,,,BLOKE,LB,m,y,./images/BLOKELB.png,,,,,,,,m,1,0.7421,,,,,,,,0,35,35,12,1
,,,,,,,,,,,,,,,,,198784,19,2022-01-28_16h07.42.129,lexical_decision_task_DD_L6,2021.2.3,MacIntel,59.99880002,,,,,,,,,,,,0.8511,1,,,,,,,,,,,,,,,,,,,,,,,,0.05265191,-0.379835069,0,0,0,,,,,,,MUMMY,C,m,y,./images/MUMMY.png,,,,,,,,m,1,0.8511,,,,,,,,0,36,36,46,1
,,,,,,,,,,,,,,,,,198784,19,2022-01-28_16h07.42.129,lexical_decision_task_DD_L6,2021.2.3,MacIntel,59.99880002,,,,,,,,,,,,0.8515,1,,,,,,,,,,,,,,,,,,,,,,,,0.05265191,-0.379835069,0,0,0,,,,,,,LADDER,HB,z,y,./images/LADDERHB.png,,,,,,,,z,1,0.8515,,,,,,,,0,37,37,122,1
,,,,,,,,,,,,,,,,,198784,19,2022-01-28_16h07.42.129,lexical_decision_task_DD_L6,2021.2.3,MacIntel,59.99880002,,,,,,,,,,,,0.8154,1,,,,,,,,,,,,,,,,,,,,,,,,0.05265191,-0.379835069,0,0,0,,,,,,,PURSE,HB,z,y,./images/PURSEHB.png,,,,,,,,z,1,0.8154,,,,,,,,0,38,38,146,1
,,,,,,,,,,,,,,,,,198784,19,2022-01-28_16h07.42.129,lexical_decision_task_DD_L6,2021.2.3,MacIntel,59.99880002,,,,,,,,,,,,0.8,1,,,,,,,,,,,,,,,,,,,,,,,,0.05265191,-0.379835069,0,0,0,,,,,,,BROOM,LB,m,y,./images/BROOMLB.png,,,,,,,,m,1,0.8,,,,,,,,0,39,39,78,1
,,,,,,,,,,,,,,,,,198784,19,2022-01-28_16h07.42.129,lexical_decision_task_DD_L6,2021.2.3,MacIntel,59.99880002,,,,,,,,,,,,0.701,1,,,,,,,,,,,,,,,,,,,,,,,,0.05265191,-0.379835069,0,0,0,,,,,,,BISHOP,C,m,y,./images/BISHOP.png,,,,,,,,m,1,0.701,,,,,,,,0,40,40,49,1
,,,,,,,,,,,,,,,,,198784,19,2022-01-28_16h07.42.129,lexical_decision_task_DD_L6,2021.2.3,MacIntel,59.99880002,,,,,,,,,,,,0.8371,1,,,,,,,,,,,,,,,,,,,,,,,,0.068958333,-0.392625868,1,0,0,,,,,,,WRIST,C,z,y,./images/WRIST.png,break_done_button,,,,,,,z,1,0.8371,,,,,,,,0,41,41,109,1
,,,,,,,,,,,,,,,,,198784,19,2022-01-28_16h07.42.129,lexical_decision_task_DD_L6,2021.2.3,MacIntel,59.99880002,,,,,,,,,,,,1.4506,0,,,,,,,,,,,,,,,,,,,,,,,,0.068958333,-0.392625868,0,0,0,,,,,,,GREASE,LB,z,y,./images/GREASELB.png,,,,,,,,m,0,1.4506,,,,,,,,0,42,42,99,1
,,,,,,,,,,,,,,,,,198784,19,2022-01-28_16h07.42.129,lexical_decision_task_DD_L6,2021.2.3,MacIntel,59.99880002,,,,,,,,,,,,0.7334,0,,,,,,,,,,,,,,,,,,,,,,,,0.068958333,-0.392625868,0,0,0,,,,,,,GRAPE,C,m,y,./images/GRAPE.png,,,,,,,,z,0,0.7334,,,,,,,,0,43,43,16,1
,,,,,,,,,,,,,,,,,198784,19,2022-01-28_16h07.42.129,lexical_decision_task_DD_L6,2021.2.3,MacIntel,59.99880002,,,,,,,,,,,,1.4353,0,,,,,,,,,,,,,,,,,,,,,,,,0.068958333,-0.392625868,0,0,0,,,,,,,CARPET,HB,z,y,./images/CARPETHB.png,,,,,,,,m,0,1.4353,,,,,,,,0,44,44,137,1
,,,,,,,,,,,,,,,,,198784,19,2022-01-28_16h07.42.129,lexical_decision_task_DD_L6,2021.2.3,MacIntel,59.99880002,,,,,,,,,,,,0.9383,1,,,,,,,,,,,,,,,,,,,,,,,,0.068958333,-0.392625868,0,0,0,,,,,,,WHISKY,HB,m,y,./images/WHISKYHB.png,,,,,,,,m,1,0.9383,,,,,,,,0,45,45,83,1
,,,,,,,,,,,,,,,,,198784,19,2022-01-28_16h07.42.129,lexical_decision_task_DD_L6,2021.2.3,MacIntel,59.99880002,,,,,,,,,,,,0.8348,1,,,,,,,,,,,,,,,,,,,,,,,,0.068958333,-0.392625868,0,0,0,,,,,,,CRATER,LB,m,y,./images/CRATERLB.png,,,,,,,,m,1,0.8348,,,,,,,,0,46,46,3,1
,,,,,,,,,,,,,,,,,198784,19,2022-01-28_16h07.42.129,lexical_decision_task_DD_L6,2021.2.3,MacIntel,59.99880002,,,,,,,,,,,,0.784,1,,,,,,,,,,,,,,,,,,,,,,,,0.068958333,-0.392625868,0,0,0,,,,,,,STOVE,HB,m,y,./images/STOVEHB.png,,,,,,,,m,1,0.784,,,,,,,,0,47,47,2,1
,,,,,,,,,,,,,,,,,198784,19,2022-01-28_16h07.42.129,lexical_decision_task_DD_L6,2021.2.3,MacIntel,59.99880002,,,,,,,,,,,,0.8486,0,,,,,,,,,,,,,,,,,,,,,,,,0.068958333,-0.392625868,0,0,0,,,,,,,DANCER,LB,m,y,./images/DANCERLB.png,,,,,,,,z,0,0.8486,,,,,,,,0,48,48,21,1
,,,,,,,,,,,,,,,,,198784,19,2022-01-28_16h07.42.129,lexical_decision_task_DD_L6,2021.2.3,MacIntel,59.99880002,,,,,,,,,,,,0.7087,1,,,,,,,,,,,,,,,,,,,,,,,,0.068958333,-0.392625868,0,0,0,,,,,,,TOWEL,C,m,y,./images/TOWEL.png,,,,,,,,m,1,0.7087,,,,,,,,0,49,49,1,1
,,,,,,,,,,,,,,,,,198784,19,2022-01-28_16h07.42.129,lexical_decision_task_DD_L6,2021.2.3,MacIntel,59.99880002,,,,,,,,,,,,0.9495,1,,,,,,,,,,,,,,,,,,,,,,,,0.068958333,-0.392625868,0,0,0,,,,,,,MUFFIN,C,z,y,./images/MUFFIN.png,,,,,,,,z,1,0.9495,,,,,,,,0,50,50,139,1
,,,,,,,,,,,,,,,,,198784,19,2022-01-28_16h07.42.129,lexical_decision_task_DD_L6,2021.2.3,MacIntel,59.99880002,,,,,,,,,,,,0.953,1,,,,,,,,,,,,,,,,,,,,,,,,0.068958333,-0.392625868,0,0,0,,,,,,,STORM,LB,z,y,./images/STORMLB.png,,,,,,,,z,1,0.953,,,,,,,,0,51,51,114,1
,,,,,,,,,,,,,,,,,198784,19,2022-01-28_16h07.42.129,lexical_decision_task_DD_L6,2021.2.3,MacIntel,59.99880002,,,,,,,,,,,,0.6659,1,,,,,,,,,,,,,,,,,,,,,,,,0.068958333,-0.392625868,0,0,0,,,,,,,KITTEN,LB,z,y,./images/KITTENLB.png,,,,,,,,z,1,0.6659,,,,,,,,0,52,52,129,1
,,,,,,,,,,,,,,,,,198784,19,2022-01-28_16h07.42.129,lexical_decision_task_DD_L6,2021.2.3,MacIntel,59.99880002,,,,,,,,,,,,1.2836,1,,,,,,,,,,,,,,,,,,,,,,,,0.068958333,-0.392625868,0,0,0,,,,,,,HEATER,HB,m,y,./images/HEATERHB.png,,,,,,,,m,1,1.2836,,,,,,,,0,53,53,56,1
,,,,,,,,,,,,,,,,,198784,19,2022-01-28_16h07.42.129,lexical_decision_task_DD_L6,2021.2.3,MacIntel,59.99880002,,,,,,,,,,,,0.7824,1,,,,,,,,,,,,,,,,,,,,,,,,0.068958333,-0.392625868,0,0,0,,,,,,,TIGER,C,m,y,./images/TIGER.png,,,,,,,,m,1,0.7824,,,,,,,,0,54,54,37,1
,,,,,,,,,,,,,,,,,198784,19,2022-01-28_16h07.42.129,lexical_decision_task_DD_L6,2021.2.3,MacIntel,59.99880002,,,,,,,,,,,,1.0871,0,,,,,,,,,,,,,,,,,,,,,,,,0.068958333,-0.392625868,0,0,0,,,,,,,BRUSH,HB,m,y,./images/BRUSHHB.png,,,,,,,,z,0,1.0871,,,,,,,,0,55,55,59,1
,,,,,,,,,,,,,,,,,198784,19,2022-01-28_16h07.42.129,lexical_decision_task_DD_L6,2021.2.3,MacIntel,59.99880002,,,,,,,,,,,,0.7487,1,,,,,,,,,,,,,,,,,,,,,,,,0.068958333,-0.392625868,0,0,0,,,,,,,BOXER,C,m,y,./images/BOXER.png,,,,,,,,m,1,0.7487,,,,,,,,0,56,56,4,1
,,,,,,,,,,,,,,,,,198784,19,2022-01-28_16h07.42.129,lexical_decision_task_DD_L6,2021.2.3,MacIntel,59.99880002,,,,,,,,,,,,0.75,1,,,,,,,,,,,,,,,,,,,,,,,,0.068958333,-0.392625868,0,0,0,,,,,,,MIRROR,LB,z,y,./images/MIRRORLB.png,,,,,,,,z,1,0.75,,,,,,,,0,57,57,147,1
,,,,,,,,,,,,,,,,,198784,19,2022-01-28_16h07.42.129,lexical_decision_task_DD_L6,2021.2.3,MacIntel,59.99880002,,,,,,,,,,,,0.6593,1,,,,,,,,,,,,,,,,,,,,,,,,0.068958333,-0.392625868,0,0,0,,,,,,,URINE,C,z,y,./images/URINE.png,,,,,,,,z,1,0.6593,,,,,,,,0,58,58,154,1
,,,,,,,,,,,,,,,,,198784,19,2022-01-28_16h07.42.129,lexical_decision_task_DD_L6,2021.2.3,MacIntel,59.99880002,,,,,,,,,,,,0.7326,1,,,,,,,,,,,,,,,,,,,,,,,,0.068958333,-0.392625868,0,0,0,,,,,,,CLIFF,HB,m,y,./images/CLIFFHB.png,,,,,,,,m,1,0.7326,,,,,,,,0,59,59,8,1
,,,,,,,,,,,,,,,,,198784,19,2022-01-28_16h07.42.129,lexical_decision_task_DD_L6,2021.2.3,MacIntel,59.99880002,,,,,,,,,,,,0.6831,1,,,,,,,,,,,,,,,,,,,,,,,,0.068958333,-0.392625868,0,0,0,,,,,,,BUBBLE,HB,m,y,./images/BUBBLEHB.png,,,,,,,,m,1,0.6831,,,,,,,,0,60,60,71,1
,,,,,,,,,,,,,,,,,198784,19,2022-01-28_16h07.42.129,lexical_decision_task_DD_L6,2021.2.3,MacIntel,59.99880002,,,,,,,,,,,,1.4029,0,,,,,,,,,,,,,,,,,,,,,,,,0.068958333,-0.392625868,0,0,0,,,,,,,SNACK,C,z,y,./images/SNACK.png,,,,,,,,m,0,1.4029,,,,,,,,0,61,61,157,1
,,,,,,,,,,,,,,,,,198784,19,2022-01-28_16h07.42.129,lexical_decision_task_DD_L6,2021.2.3,MacIntel,59.99880002,,,,,,,,,,,,0.8483,1,,,,,,,,,,,,,,,,,,,,,,,,0.068958333,-0.392625868,0,0,0,,,,,,,BIRTH,C,z,y,./images/BIRTH.png,,,,,,,,z,1,0.8483,,,,,,,,0,62,62,121,1
,,,,,,,,,,,,,,,,,198784,19,2022-01-28_16h07.42.129,lexical_decision_task_DD_L6,2021.2.3,MacIntel,59.99880002,,,,,,,,,,,,0.7056,1,,,,,,,,,,,,,,,,,,,,,,,,0.068958333,-0.392625868,0,0,0,,,,,,,BOILER,LB,m,y,./images/BOILERLB.png,,,,,,,,m,1,0.7056,,,,,,,,0,63,63,36,1
,,,,,,,,,,,,,,,,,198784,19,2022-01-28_16h07.42.129,lexical_decision_task_DD_L6,2021.2.3,MacIntel,59.99880002,,,,,,,,,,,,0.7243,1,,,,,,,,,,,,,,,,,,,,,,,,0.068958333,-0.392625868,0,0,0,,,,,,,FLESH,LB,m,y,./images/FLESHLB.png,,,,,,,,m,1,0.7243,,,,,,,,0,64,64,24,1
,,,,,,,,,,,,,,,,,198784,19,2022-01-28_16h07.42.129,lexical_decision_task_DD_L6,2021.2.3,MacIntel,59.99880002,,,,,,,,,,,,0.683,1,,,,,,,,,,,,,,,,,,,,,,,,0.068958333,-0.392625868,0,0,0,,,,,,,ONION,LB,z,y,./images/ONIONLB.png,,,,,,,,z,1,0.683,,,,,,,,0,65,65,135,1
,,,,,,,,,,,,,,,,,198784,19,2022-01-28_16h07.42.129,lexical_decision_task_DD_L6,2021.2.3,MacIntel,59.99880002,,,,,,,,,,,,0.6846,1,,,,,,,,,,,,,,,,,,,,,,,,0.068958333,-0.392625868,0,0,0,,,,,,,PIMPLE,HB,z,y,./images/PIMPLEHB.png,,,,,,,,z,1,0.6846,,,,,,,,0,66,66,155,1
,,,,,,,,,,,,,,,,,198784,19,2022-01-28_16h07.42.129,lexical_decision_task_DD_L6,2021.2.3,MacIntel,59.99880002,,,,,,,,,,,,0.8763,1,,,,,,,,,,,,,,,,,,,,,,,,0.068958333,-0.392625868,0,0,0,,,,,,,BAMBOO,HB,m,y,./images/BAMBOOHB.png,,,,,,,,m,1,0.8763,,,,,,,,0,67,67,5,1
,,,,,,,,,,,,,,,,,198784,19,2022-01-28_16h07.42.129,lexical_decision_task_DD_L6,2021.2.3,MacIntel,59.99880002,,,,,,,,,,,,0.685,1,,,,,,,,,,,,,,,,,,,,,,,,0.068958333,-0.392625868,0,0,0,,,,,,,BRIDE,C,m,y,./images/BRIDE.png,,,,,,,,m,1,0.685,,,,,,,,0,68,68,64,1
,,,,,,,,,,,,,,,,,198784,19,2022-01-28_16h07.42.129,lexical_decision_task_DD_L6,2021.2.3,MacIntel,59.99880002,,,,,,,,,,,,0.7364,1,,,,,,,,,,,,,,,,,,,,,,,,0.068958333,-0.392625868,0,0,0,,,,,,,CANOE,C,m,y,./images/CANOE.png,,,,,,,,m,1,0.7364,,,,,,,,0,69,69,58,1
,,,,,,,,,,,,,,,,,198784,19,2022-01-28_16h07.42.129,lexical_decision_task_DD_L6,2021.2.3,MacIntel,59.99880002,,,,,,,,,,,,0.8017,0,,,,,,,,,,,,,,,,,,,,,,,,0.068958333,-0.392625868,0,0,0,,,,,,,SCREW,LB,z,y,./images/SCREWLB.png,,,,,,,,m,0,0.8017,,,,,,,,0,70,70,108,1
,,,,,,,,,,,,,,,,,198784,19,2022-01-28_16h07.42.129,lexical_decision_task_DD_L6,2021.2.3,MacIntel,59.99880002,,,,,,,,,,,,0.9679,1,,,,,,,,,,,,,,,,,,,,,,,,0.068958333,-0.392625868,0,0,0,,,,,,,PEACH,HB,z,y,./images/PEACHHB.png,,,,,,,,z,1,0.9679,,,,,,,,0,71,71,119,1
,,,,,,,,,,,,,,,,,198784,19,2022-01-28_16h07.42.129,lexical_decision_task_DD_L6,2021.2.3,MacIntel,59.99880002,,,,,,,,,,,,0.6839,1,,,,,,,,,,,,,,,,,,,,,,,,0.068958333,-0.392625868,0,0,0,,,,,,,CLOWN,C,m,y,./images/CLOWN.png,,,,,,,,m,1,0.6839,,,,,,,,0,72,72,22,1
,,,,,,,,,,,,,,,,,198784,19,2022-01-28_16h07.42.129,lexical_decision_task_DD_L6,2021.2.3,MacIntel,59.99880002,,,,,,,,,,,,0.6648,0,,,,,,,,,,,,,,,,,,,,,,,,0.068958333,-0.392625868,0,0,0,,,,,,,PAINT,C,z,y,./images/PAINT.png,,,,,,,,m,0,0.6648,,,,,,,,0,73,73,91,1
,,,,,,,,,,,,,,,,,198784,19,2022-01-28_16h07.42.129,lexical_decision_task_DD_L6,2021.2.3,MacIntel,59.99880002,,,,,,,,,,,,1.2371,0,,,,,,,,,,,,,,,,,,,,,,,,0.068958333,-0.392625868,0,0,0,,,,,,,TULIP,HB,z,y,./images/TULIPHB.png,,,,,,,,m,0,1.2371,,,,,,,,0,74,74,92,1
,,,,,,,,,,,,,,,,,198784,19,2022-01-28_16h07.42.129,lexical_decision_task_DD_L6,2021.2.3,MacIntel,59.99880002,,,,,,,,,,,,3.8156,0,,,,,,,,,,,,,,,,,,,,,,,,0.068958333,-0.392625868,0,0,0,,,,,,,PENCE,C,z,y,./images/PENCE.png,,,,,,,,m,0,3.8156,,,,,,,,0,75,75,100,1
,,,,,,,,,,,,,,,,,198784,19,2022-01-28_16h07.42.129,lexical_decision_task_DD_L6,2021.2.3,MacIntel,59.99880002,,,,,,,,,,,,1.2436,1,,,,,,,,,,,,,,,,,,,,,,,,0.068958333,-0.392625868,0,0,0,,,,,,,WHEEL,HB,m,y,./images/WHEELHB.png,,,,,,,,m,1,1.2436,,,,,,,,0,76,76,77,1
,,,,,,,,,,,,,,,,,198784,19,2022-01-28_16h07.42.129,lexical_decision_task_DD_L6,2021.2.3,MacIntel,59.99880002,,,,,,,,,,,,1.0706,1,,,,,,,,,,,,,,,,,,,,,,,,0.068958333,-0.392625868,0,0,0,,,,,,,BANANA,C,m,y,./images/BANANA.png,,,,,,,,m,1,1.0706,,,,,,,,0,77,77,70,1
,,,,,,,,,,,,,,,,,198784,19,2022-01-28_16h07.42.129,lexical_decision_task_DD_L6,2021.2.3,MacIntel,59.99880002,,,,,,,,,,,,2.2349,0,,,,,,,,,,,,,,,,,,,,,,,,0.068958333,-0.392625868,0,0,0,,,,,,,PISTOL,HB,m,y,./images/PISTOLHB.png,,,,,,,,z,0,2.2349,,,,,,,,0,78,78,29,1
,,,,,,,,,,,,,,,,,198784,19,2022-01-28_16h07.42.129,lexical_decision_task_DD_L6,2021.2.3,MacIntel,59.99880002,,,,,,,,,,,,0.7508,1,,,,,,,,,,,,,,,,,,,,,,,,0.068958333,-0.392625868,0,0,0,,,,,,,CURRY,LB,m,y,./images/CURRYLB.png,,,,,,,,m,1,0.7508,,,,,,,,0,79,79,60,1
,,,,,,,,,,,,,,,,,198784,19,2022-01-28_16h07.42.129,lexical_decision_task_DD_L6,2021.2.3,MacIntel,59.99880002,,,,,,,,,,,,0.75,1,,,,,,,,,,,,,,,,,,,,,,,,0.068958333,-0.392625868,0,0,0,,,,,,,RHINO,LB,z,y,./images/RHINOLB.png,,,,,,,,z,1,0.75,,,,,,,,0,80,80,93,1
,,,,,,,,,,,,,,,,,198784,19,2022-01-28_16h07.42.129,lexical_decision_task_DD_L6,2021.2.3,MacIntel,59.99880002,,,,,,,,,,,,0.6335,1,,,,,,,,,,,,,,,,,,,,,,,,0.068958333,-0.392625868,0,0,0,,,,,,,VALLEY,HB,m,y,./images/VALLEYHB.png,,,,,,,,m,1,0.6335,,,,,,,,0,81,81,68,1
,,,,,,,,,,,,,,,,,198784,19,2022-01-28_16h07.42.129,lexical_decision_task_DD_L6,2021.2.3,MacIntel,59.99880002,,,,,,,,,,,,1.0345,1,,,,,,,,,,,,,,,,,,,,,,,,0.068958333,-0.392625868,0,0,0,,,,,,,SAILOR,C,z,y,./images/SAILOR.png,,,,,,,,z,1,1.0345,,,,,,,,0,82,82,151,1
,,,,,,,,,,,,,,,,,198784,19,2022-01-28_16h07.42.129,lexical_decision_task_DD_L6,2021.2.3,MacIntel,59.99880002,,,,,,,,,,,,0.7893,1,,,,,,,,,,,,,,,,,,,,,,,,0.069631076,-0.414249132,1,0,0,,,,,,,CEMENT,HB,z,y,./images/CEMENTHB.png,break_done_button,,,,,,,z,1,0.7893,,,,,,,,0,83,83,158,1
,,,,,,,,,,,,,,,,,198784,19,2022-01-28_16h07.42.129,lexical_decision_task_DD_L6,2021.2.3,MacIntel,59.99880002,,,,,,,,,,,,0.8345,1,,,,,,,,,,,,,,,,,,,,,,,,0.069631076,-0.413971354,0,0,0,,,,,,,POODLE,LB,z,y,./images/POODLELB.png,,,,,,,,z,1,0.8345,,,,,,,,0,84,84,165,1
,,,,,,,,,,,,,,,,,198784,19,2022-01-28_16h07.42.129,lexical_decision_task_DD_L6,2021.2.3,MacIntel,59.99880002,,,,,,,,,,,,0.782,1,,,,,,,,,,,,,,,,,,,,,,,,0.069631076,-0.413971354,0,0,0,,,,,,,PARADE,HB,m,y,./images/PARADEHB.png,,,,,,,,m,1,0.782,,,,,,,,0,85,85,17,1
,,,,,,,,,,,,,,,,,198784,19,2022-01-28_16h07.42.129,lexical_decision_task_DD_L6,2021.2.3,MacIntel,59.99880002,,,,,,,,,,,,1.0326,1,,,,,,,,,,,,,,,,,,,,,,,,0.069631076,-0.413971354,0,0,0,,,,,,,QUILL,C,z,y,./images/QUILL.png,,,,,,,,z,1,1.0326,,,,,,,,0,86,86,115,1
,,,,,,,,,,,,,,,,,198784,19,2022-01-28_16h07.42.129,lexical_decision_task_DD_L6,2021.2.3,MacIntel,59.99880002,,,,,,,,,,,,2.1494,1,,,,,,,,,,,,,,,,,,,,,,,,0.069631076,-0.413971354,0,0,0,,,,,,,PLANK,C,z,y,./images/PLANK.png,,,,,,,,z,1,2.1494,,,,,,,,0,87,87,85,1
,,,,,,,,,,,,,,,,,198784,19,2022-01-28_16h07.42.129,lexical_decision_task_DD_L6,2021.2.3,MacIntel,59.99880002,,,,,,,,,,,,0.6567,1,,,,,,,,,,,,,,,,,,,,,,,,0.069631076,-0.413971354,0,0,0,,,,,,,RULER,C,m,y,./images/RULER.png,,,,,,,,m,1,0.6567,,,,,,,,0,88,88,79,1
,,,,,,,,,,,,,,,,,198784,19,2022-01-28_16h07.42.129,lexical_decision_task_DD_L6,2021.2.3,MacIntel,59.99880002,,,,,,,,,,,,0.7216,0,,,,,,,,,,,,,,,,,,,,,,,,0.069631076,-0.413971354,0,0,0,,,,,,,CRADLE,HB,z,y,./images/CRADLEHB.png,,,,,,,,m,0,0.7216,,,,,,,,0,89,89,104,1
,,,,,,,,,,,,,,,,,198784,19,2022-01-28_16h07.42.129,lexical_decision_task_DD_L6,2021.2.3,MacIntel,59.99880002,,,,,,,,,,,,0.6337,0,,,,,,,,,,,,,,,,,,,,,,,,0.069631076,-0.413971354,0,0,0,,,,,,,BABOON,C,z,y,./images/BABOON.png,,,,,,,,m,0,0.6337,,,,,,,,0,90,90,142,1
,,,,,,,,,,,,,,,,,198784,19,2022-01-28_16h07.42.129,lexical_decision_task_DD_L6,2021.2.3,MacIntel,59.99880002,,,,,,,,,,,,0.5664,1,,,,,,,,,,,,,,,,,,,,,,,,0.069631076,-0.413971354,0,0,0,,,,,,,CANDY,LB,m,y,./images/CANDYLB.png,,,,,,,,m,1,0.5664,,,,,,,,0,91,91,39,1
,,,,,,,,,,,,,,,,,198784,19,2022-01-28_16h07.42.129,lexical_decision_task_DD_L6,2021.2.3,MacIntel,59.99880002,,,,,,,,,,,,0.6347,1,,,,,,,,,,,,,,,,,,,,,,,,0.069631076,-0.413971354,0,0,0,,,,,,,SHIELD,LB,m,y,./images/SHIELDLB.png,,,,,,,,m,1,0.6347,,,,,,,,0,92,92,48,1
,,,,,,,,,,,,,,,,,198784,19,2022-01-28_16h07.42.129,lexical_decision_task_DD_L6,2021.2.3,MacIntel,59.99880002,,,,,,,,,,,,0.5979,1,,,,,,,,,,,,,,,,,,,,,,,,0.069631076,-0.413971354,0,0,0,,,,,,,BAKER,LB,m,y,./images/BAKERLB.png,,,,,,,,m,1,0.5979,,,,,,,,0,93,93,63,1
,,,,,,,,,,,,,,,,,198784,19,2022-01-28_16h07.42.129,lexical_decision_task_DD_L6,2021.2.3,MacIntel,59.99880002,,,,,,,,,,,,0.9723,0,,,,,,,,,,,,,,,,,,,,,,,,0.069631076,-0.413971354,0,0,0,,,,,,,DIVER,LB,m,y,./images/DIVERLB.png,,,,,,,,z,0,0.9723,,,,,,,,0,94,94,9,1
,,,,,,,,,,,,,,,,,198784,19,2022-01-28_16h07.42.129,lexical_decision_task_DD_L6,2021.2.3,MacIntel,59.99880002,,,,,,,,,,,,0.5586,1,,,,,,,,,,,,,,,,,,,,,,,,0.069631076,-0.413971354,0,0,0,,,,,,,RAZOR,C,m,y,./images/RAZOR.png,,,,,,,,m,1,0.5586,,,,,,,,0,95,95,34,1
,,,,,,,,,,,,,,,,,198784,19,2022-01-28_16h07.42.129,lexical_decision_task_DD_L6,2021.2.3,MacIntel,59.99880002,,,,,,,,,,,,0.7238,1,,,,,,,,,,,,,,,,,,,,,,,,0.069631076,-0.413971354,0,0,0,,,,,,,PILOT,HB,m,y,./images/PILOTHB.png,,,,,,,,m,1,0.7238,,,,,,,,0,96,96,50,1
,,,,,,,,,,,,,,,,,198784,19,2022-01-28_16h07.42.129,lexical_decision_task_DD_L6,2021.2.3,MacIntel,59.99880002,,,,,,,,,,,,0.5531,1,,,,,,,,,,,,,,,,,,,,,,,,0.069631076,-0.413971354,0,0,0,,,,,,,MONKEY,LB,m,y,./images/MONKEYLB.png,,,,,,,,m,1,0.5531,,,,,,,,0,97,97,45,1
,,,,,,,,,,,,,,,,,198784,19,2022-01-28_16h07.42.129,lexical_decision_task_DD_L6,2021.2.3,MacIntel,59.99880002,,,,,,,,,,,,1.7899,0,,,,,,,,,,,,,,,,,,,,,,,,0.069631076,-0.413971354,0,0,0,,,,,,,SMOKER,HB,z,y,./images/SMOKERHB.png,,,,,,,,m,0,1.7899,,,,,,,,0,98,98,110,1
,,,,,,,,,,,,,,,,,198784,19,2022-01-28_16h07.42.129,lexical_decision_task_DD_L6,2021.2.3,MacIntel,59.99880002,,,,,,,,,,,,0.5817,1,,,,,,,,,,,,,,,,,,,,,,,,0.069631076,-0.413971354,0,0,0,,,,,,,STOOL,C,m,y,./images/STOOL.png,,,,,,,,m,1,0.5817,,,,,,,,0,99,99,43,1
,,,,,,,,,,,,,,,,,198784,19,2022-01-28_16h07.42.129,lexical_decision_task_DD_L6,2021.2.3,MacIntel,59.99880002,,,,,,,,,,,,0.6429,1,,,,,,,,,,,,,,,,,,,,,,,,0.069631076,-0.413971354,0,0,0,,,,,,,PARCEL,LB,m,y,./images/PARCELLB.png,,,,,,,,m,1,0.6429,,,,,,,,0,100,100,18,1
,,,,,,,,,,,,,,,,,198784,19,2022-01-28_16h07.42.129,lexical_decision_task_DD_L6,2021.2.3,MacIntel,59.99880002,,,,,,,,,,,,0.8813,1,,,,,,,,,,,,,,,,,,,,,,,,0.069631076,-0.413971354,0,0,0,,,,,,,ARTIST,C,m,y,./images/ARTIST.png,,,,,,,,m,1,0.8813,,,,,,,,0,101,101,61,1
,,,,,,,,,,,,,,,,,198784,19,2022-01-28_16h07.42.129,lexical_decision_task_DD_L6,2021.2.3,MacIntel,59.99880002,,,,,,,,,,,,0.6018,1,,,,,,,,,,,,,,,,,,,,,,,,0.069631076,-0.413971354,0,0,0,,,,,,,CASINO,C,m,y,./images/CASINO.png,,,,,,,,m,1,0.6018,,,,,,,,0,102,102,28,1
,,,,,,,,,,,,,,,,,198784,19,2022-01-28_16h07.42.129,lexical_decision_task_DD_L6,2021.2.3,MacIntel,59.99880002,,,,,,,,,,,,1.6554,1,,,,,,,,,,,,,,,,,,,,,,,,0.069631076,-0.413971354,0,0,0,,,,,,,TORCH,HB,z,y,./images/TORCHHB.png,,,,,,,,z,1,1.6554,,,,,,,,0,103,103,152,1
,,,,,,,,,,,,,,,,,198784,19,2022-01-28_16h07.42.129,lexical_decision_task_DD_L6,2021.2.3,MacIntel,59.99880002,,,,,,,,,,,,1.2222,1,,,,,,,,,,,,,,,,,,,,,,,,0.069631076,-0.413971354,0,0,0,,,,,,,SHELF,LB,z,y,./images/SHELFLB.png,,,,,,,,z,1,1.2222,,,,,,,,0,104,104,123,1
,,,,,,,,,,,,,,,,,198784,19,2022-01-28_16h07.42.129,lexical_decision_task_DD_L6,2021.2.3,MacIntel,59.99880002,,,,,,,,,,,,0.8696,1,,,,,,,,,,,,,,,,,,,,,,,,0.069631076,-0.413971354,0,0,0,,,,,,,SLOPE,LB,m,y,./images/SLOPELB.png,,,,,,,,m,1,0.8696,,,,,,,,0,105,105,30,1
,,,,,,,,,,,,,,,,,198784,19,2022-01-28_16h07.42.129,lexical_decision_task_DD_L6,2021.2.3,MacIntel,59.99880002,,,,,,,,,,,,1.2327,1,,,,,,,,,,,,,,,,,,,,,,,,0.069631076,-0.413971354,0,0,0,,,,,,,MOTOR,C,z,y,./images/MOTOR.png,,,,,,,,z,1,1.2327,,,,,,,,0,106,106,97,1
,,,,,,,,,,,,,,,,,198784,19,2022-01-28_16h07.42.129,lexical_decision_task_DD_L6,2021.2.3,MacIntel,59.99880002,,,,,,,,,,,,0.7247,1,,,,,,,,,,,,,,,,,,,,,,,,0.069631076,-0.413971354,0,0,0,,,,,,,DESERT,C,m,y,./images/DESERT.png,,,,,,,,m,1,0.7247,,,,,,,,0,107,107,52,1
,,,,,,,,,,,,,,,,,198784,19,2022-01-28_16h07.42.129,lexical_decision_task_DD_L6,2021.2.3,MacIntel,59.99880002,,,,,,,,,,,,0.8872,1,,,,,,,,,,,,,,,,,,,,,,,,0.069631076,-0.413971354,0,0,0,,,,,,,SPORT,LB,z,y,./images/SPORTLB.png,,,,,,,,z,1,0.8872,,,,,,,,0,108,108,132,1
,,,,,,,,,,,,,,,,,198784,19,2022-01-28_16h07.42.129,lexical_decision_task_DD_L6,2021.2.3,MacIntel,59.99880002,,,,,,,,,,,,0.6919,1,,,,,,,,,,,,,,,,,,,,,,,,0.069631076,-0.413971354,0,0,0,,,,,,,ATTIC,LB,z,y,./images/ATTICLB.png,,,,,,,,z,1,0.6919,,,,,,,,0,109,109,111,1
,,,,,,,,,,,,,,,,,198784,19,2022-01-28_16h07.42.129,lexical_decision_task_DD_L6,2021.2.3,MacIntel,59.99880002,,,,,,,,,,,,1.2158,0,,,,,,,,,,,,,,,,,,,,,,,,0.069631076,-0.413971354,0,0,0,,,,,,,SAUCE,LB,m,y,./images/SAUCELB.png,,,,,,,,z,0,1.2158,,,,,,,,0,110,110,51,1
,,,,,,,,,,,,,,,,,198784,19,2022-01-28_16h07.42.129,lexical_decision_task_DD_L6,2021.2.3,MacIntel,59.99880002,,,,,,,,,,,,0.7166,1,,,,,,,,,,,,,,,,,,,,,,,,0.069631076,-0.413971354,0,0,0,,,,,,,WALNUT,LB,m,y,./images/WALNUTLB.png,,,,,,,,m,1,0.7166,,,,,,,,0,111,111,0,1
,,,,,,,,,,,,,,,,,198784,19,2022-01-28_16h07.42.129,lexical_decision_task_DD_L6,2021.2.3,MacIntel,59.99880002,,,,,,,,,,,,2.3132,1,,,,,,,,,,,,,,,,,,,,,,,,0.069631076,-0.413971354,0,0,0,,,,,,,FLASK,LB,m,y,./images/FLASKLB.png,,,,,,,,m,1,2.3132,,,,,,,,0,112,112,72,1
,,,,,,,,,,,,,,,,,198784,19,2022-01-28_16h07.42.129,lexical_decision_task_DD_L6,2021.2.3,MacIntel,59.99880002,,,,,,,,,,,,1.8335,1,,,,,,,,,,,,,,,,,,,,,,,,0.069631076,-0.413971354,0,0,0,,,,,,,FERRY,LB,m,y,./images/FERRYLB.png,,,,,,,,m,1,1.8335,,,,,,,,0,113,113,57,1
,,,,,,,,,,,,,,,,,198784,19,2022-01-28_16h07.42.129,lexical_decision_task_DD_L6,2021.2.3,MacIntel,59.99880002,,,,,,,,,,,,0.9761,1,,,,,,,,,,,,,,,,,,,,,,,,0.069631076,-0.413971354,0,0,0,,,,,,,SWING,C,z,y,./images/SWING.png,,,,,,,,z,1,0.9761,,,,,,,,0,114,114,124,1
,,,,,,,,,,,,,,,,,198784,19,2022-01-28_16h07.42.129,lexical_decision_task_DD_L6,2021.2.3,MacIntel,59.99880002,,,,,,,,,,,,1.7661,1,,,,,,,,,,,,,,,,,,,,,,,,0.069631076,-0.413971354,0,0,0,,,,,,,JUNGLE,HB,z,y,./images/JUNGLEHB.png,,,,,,,,z,1,1.7661,,,,,,,,0,115,115,167,1
,,,,,,,,,,,,,,,,,198784,19,2022-01-28_16h07.42.129,lexical_decision_task_DD_L6,2021.2.3,MacIntel,59.99880002,,,,,,,,,,,,3.4599,0,,,,,,,,,,,,,,,,,,,,,,,,0.069631076,-0.413971354,0,0,0,,,,,,,MALLET,HB,z,y,./images/MALLETHB.png,,,,,,,,m,0,3.4599,,,,,,,,0,116,116,134,1
,,,,,,,,,,,,,,,,,198784,19,2022-01-28_16h07.42.129,lexical_decision_task_DD_L6,2021.2.3,MacIntel,59.99880002,,,,,,,,,,,,1.5587,0,,,,,,,,,,,,,,,,,,,,,,,,0.069631076,-0.413971354,0,0,0,,,,,,,BERRY,HB,z,y,./images/BERRYHB.png,,,,,,,,m,0,1.5587,,,,,,,,0,117,117,131,1
,,,,,,,,,,,,,,,,,198784,19,2022-01-28_16h07.42.129,lexical_decision_task_DD_L6,2021.2.3,MacIntel,59.99880002,,,,,,,,,,,,2.1391,1,,,,,,,,,,,,,,,,,,,,,,,,0.069631076,-0.413971354,0,0,0,,,,,,,PACKET,HB,z,y,./images/PACKETHB.png,,,,,,,,z,1,2.1391,,,,,,,,0,118,118,140,1
,,,,,,,,,,,,,,,,,198784,19,2022-01-28_16h07.42.129,lexical_decision_task_DD_L6,2021.2.3,MacIntel,59.99880002,,,,,,,,,,,,0.6856,0,,,,,,,,,,,,,,,,,,,,,,,,0.069631076,-0.413971354,0,0,0,,,,,,,MOOSE,LB,z,y,./images/MOOSELB.png,,,,,,,,m,0,0.6856,,,,,,,,0,119,119,141,1
,,,,,,,,,,,,,,,,,198784,19,2022-01-28_16h07.42.129,lexical_decision_task_DD_L6,2021.2.3,MacIntel,59.99880002,,,,,,,,,,,,1.3338,1,,,,,,,,,,,,,,,,,,,,,,,,0.069631076,-0.413971354,0,0,0,,,,,,,MAGGOT,LB,z,y,./images/MAGGOTLB.png,,,,,,,,z,1,1.3338,,,,,,,,0,120,120,117,1
,,,,,,,,,,,,,,,,,198784,19,2022-01-28_16h07.42.129,lexical_decision_task_DD_L6,2021.2.3,MacIntel,59.99880002,,,,,,,,,,,,1.2006,0,,,,,,,,,,,,,,,,,,,,,,,,0.069631076,-0.413971354,0,0,0,,,,,,,SHORE,LB,z,y,./images/SHORELB.png,,,,,,,,m,0,1.2006,,,,,,,,0,121,121,96,1
,,,,,,,,,,,,,,,,,198784,19,2022-01-28_16h07.42.129,lexical_decision_task_DD_L6,2021.2.3,MacIntel,59.99880002,,,,,,,,,,,,0.8343,1,,,,,,,,,,,,,,,,,,,,,,,,0.069631076,-0.413971354,0,0,0,,,,,,,BELLY,C,z,y,./images/BELLY.png,,,,,,,,z,1,0.8343,,,,,,,,0,122,122,94,1
,,,,,,,,,,,,,,,,,198784,19,2022-01-28_16h07.42.129,lexical_decision_task_DD_L6,2021.2.3,MacIntel,59.99880002,,,,,,,,,,,,1.167,0,,,,,,,,,,,,,,,,,,,,,,,,0.069631076,-0.413971354,0,0,0,,,,,,,CANDLE,C,z,y,./images/CANDLE.png,,,,,,,,m,0,1.167,,,,,,,,0,123,123,145,1
,,,,,,,,,,,,,,,,,198784,19,2022-01-28_16h07.42.129,lexical_decision_task_DD_L6,2021.2.3,MacIntel,59.99880002,,,,,,,,,,,,0.8006,1,,,,,,,,,,,,,,,,,,,,,,,,0.069631076,-0.413971354,0,0,0,,,,,,,PASTA,HB,z,y,./images/PASTAHB.png,,,,,,,,z,1,0.8006,,,,,,,,0,124,124,89,1
,,,,,,,,,,,,,,,,,198784,19,2022-01-28_16h07.42.129,lexical_decision_task_DD_L6,2021.2.3,MacIntel,59.99880002,,,,,,,,,,,,1.1813,0,,,,,,,,,,,,,,,,,,,,,,,,0.079201389,-0.410559896,1,0,0,,,,,,,MEDAL,HB,m,y,./images/MEDALHB.png,break_done_button,,,,,,,z,0,1.1813,,,,,,,,0,125,125,11,1
,,,,,,,,,,,,,,,,,198784,19,2022-01-28_16h07.42.129,lexical_decision_task_DD_L6,2021.2.3,MacIntel,59.99880002,,,,,,,,,,,,1.5171,1,,,,,,,,,,,,,,,,,,,,,,,,0.079201389,-0.410559896,0,0,0,,,,,,,BASKET,HB,m,y,./images/BASKETHB.png,,,,,,,,m,1,1.5171,,,,,,,,0,126,126,44,1
,,,,,,,,,,,,,,,,,198784,19,2022-01-28_16h07.42.129,lexical_decision_task_DD_L6,2021.2.3,MacIntel,59.99880002,,,,,,,,,,,,0.8657,1,,,,,,,,,,,,,,,,,,,,,,,,0.079201389,-0.410559896,0,0,0,,,,,,,SKIING,HB,z,y,./images/SKIINGHB.png,,,,,,,,z,1,0.8657,,,,,,,,0,127,127,101,1
,,,,,,,,,,,,,,,,,198784,19,2022-01-28_16h07.42.129,lexical_decision_task_DD_L6,2021.2.3,MacIntel,59.99880002,,,,,,,,,,,,1.6822,0,,,,,,,,,,,,,,,,,,,,,,,,0.079201389,-0.410559896,0,0,0,,,,,,,DOUGH,C,z,y,./images/DOUGH.png,,,,,,,,m,0,1.6822,,,,,,,,0,128,128,103,1
,,,,,,,,,,,,,,,,,198784,19,2022-01-28_16h07.42.129,lexical_decision_task_DD_L6,2021.2.3,MacIntel,59.99880002,,,,,,,,,,,,4.0686,1,,,,,,,,,,,,,,,,,,,,,,,,0.079201389,-0.410559896,0,0,0,,,,,,,MUSCLE,C,z,y,./images/MUSCLE.png,,,,,,,,z,1,4.0686,,,,,,,,0,129,129,88,1
,,,,,,,,,,,,,,,,,198784,19,2022-01-28_16h07.42.129,lexical_decision_task_DD_L6,2021.2.3,MacIntel,59.99880002,,,,,,,,,,,,0.8418,1,,,,,,,,,,,,,,,,,,,,,,,,0.079201389,-0.410559896,0,0,0,,,,,,,LIZARD,HB,z,y,./images/LIZARDHB.png,,,,,,,,z,1,0.8418,,,,,,,,0,130,130,128,1
,,,,,,,,,,,,,,,,,198784,19,2022-01-28_16h07.42.129,lexical_decision_task_DD_L6,2021.2.3,MacIntel,59.99880002,,,,,,,,,,,,0.9519,1,,,,,,,,,,,,,,,,,,,,,,,,0.079201389,-0.410559896,0,0,0,,,,,,,GARDEN,C,m,y,./images/GARDEN.png,,,,,,,,m,1,0.9519,,,,,,,,0,131,131,10,1
,,,,,,,,,,,,,,,,,198784,19,2022-01-28_16h07.42.129,lexical_decision_task_DD_L6,2021.2.3,MacIntel,59.99880002,,,,,,,,,,,,0.7362,1,,,,,,,,,,,,,,,,,,,,,,,,0.079201389,-0.410559896,0,0,0,,,,,,,CHAIN,LB,m,y,./images/CHAINLB.png,,,,,,,,m,1,0.7362,,,,,,,,0,132,132,42,1
,,,,,,,,,,,,,,,,,198784,19,2022-01-28_16h07.42.129,lexical_decision_task_DD_L6,2021.2.3,MacIntel,59.99880002,,,,,,,,,,,,0.7034,1,,,,,,,,,,,,,,,,,,,,,,,,0.079201389,-0.410559896,0,0,0,,,,,,,GRANNY,HB,m,y,./images/GRANNYHB.png,,,,,,,,m,1,0.7034,,,,,,,,0,133,133,20,1
,,,,,,,,,,,,,,,,,198784,19,2022-01-28_16h07.42.129,lexical_decision_task_DD_L6,2021.2.3,MacIntel,59.99880002,,,,,,,,,,,,0.6479,1,,,,,,,,,,,,,,,,,,,,,,,,0.079201389,-0.410559896,0,0,0,,,,,,,DRILL,LB,m,y,./images/DRILLLB.png,,,,,,,,m,1,0.6479,,,,,,,,0,134,134,81,1
,,,,,,,,,,,,,,,,,198784,19,2022-01-28_16h07.42.129,lexical_decision_task_DD_L6,2021.2.3,MacIntel,59.99880002,,,,,,,,,,,,0.9257,1,,,,,,,,,,,,,,,,,,,,,,,,0.079201389,-0.410559896,0,0,0,,,,,,,COOKER,LB,z,y,./images/COOKERLB.png,,,,,,,,z,1,0.9257,,,,,,,,0,135,135,153,1
,,,,,,,,,,,,,,,,,198784,19,2022-01-28_16h07.42.129,lexical_decision_task_DD_L6,2021.2.3,MacIntel,59.99880002,,,,,,,,,,,,0.7181,0,,,,,,,,,,,,,,,,,,,,,,,,0.079201389,-0.410559896,0,0,0,,,,,,,TOMATO,LB,z,y,./images/TOMATOLB.png,,,,,,,,m,0,0.7181,,,,,,,,0,136,136,84,1
,,,,,,,,,,,,,,,,,198784,19,2022-01-28_16h07.42.129,lexical_decision_task_DD_L6,2021.2.3,MacIntel,59.99880002,,,,,,,,,,,,1.2534,1,,,,,,,,,,,,,,,,,,,,,,,,0.079201389,-0.410559896,0,0,0,,,,,,,FINGER,LB,z,y,./images/FINGERLB.png,,,,,,,,z,1,1.2534,,,,,,,,0,137,137,87,1
,,,,,,,,,,,,,,,,,198784,19,2022-01-28_16h07.42.129,lexical_decision_task_DD_L6,2021.2.3,MacIntel,59.99880002,,,,,,,,,,,,1.1589,0,,,,,,,,,,,,,,,,,,,,,,,,0.079201389,-0.410559896,0,0,0,,,,,,,CANYON,C,z,y,./images/CANYON.png,,,,,,,,m,0,1.1589,,,,,,,,0,138,138,118,1
,,,,,,,,,,,,,,,,,198784,19,2022-01-28_16h07.42.129,lexical_decision_task_DD_L6,2021.2.3,MacIntel,59.99880002,,,,,,,,,,,,0.7426,1,,,,,,,,,,,,,,,,,,,,,,,,0.079201389,-0.410559896,0,0,0,,,,,,,SNAKE,C,m,y,./images/SNAKE.png,,,,,,,,m,1,0.7426,,,,,,,,0,139,139,40,1
,,,,,,,,,,,,,,,,,198784,19,2022-01-28_16h07.42.129,lexical_decision_task_DD_L6,2021.2.3,MacIntel,59.99880002,,,,,,,,,,,,0.8511,1,,,,,,,,,,,,,,,,,,,,,,,,0.079201389,-0.410559896,0,0,0,,,,,,,POKER,C,m,y,./images/POKER.png,,,,,,,,m,1,0.8511,,,,,,,,0,140,140,67,1
,,,,,,,,,,,,,,,,,198784,19,2022-01-28_16h07.42.129,lexical_decision_task_DD_L6,2021.2.3,MacIntel,59.99880002,,,,,,,,,,,,0.7333,1,,,,,,,,,,,,,,,,,,,,,,,,0.079201389,-0.410559896,0,0,0,,,,,,,MIDGET,C,m,y,./images/MIDGET.png,,,,,,,,m,1,0.7333,,,,,,,,0,141,141,76,1
,,,,,,,,,,,,,,,,,198784,19,2022-01-28_16h07.42.129,lexical_decision_task_DD_L6,2021.2.3,MacIntel,59.99880002,,,,,,,,,,,,0.7186,1,,,,,,,,,,,,,,,,,,,,,,,,0.079201389,-0.410559896,0,0,0,,,,,,,CRUST,C,z,y,./images/CRUST.png,,,,,,,,z,1,0.7186,,,,,,,,0,142,142,163,1
,,,,,,,,,,,,,,,,,198784,19,2022-01-28_16h07.42.129,lexical_decision_task_DD_L6,2021.2.3,MacIntel,59.99880002,,,,,,,,,,,,0.752,1,,,,,,,,,,,,,,,,,,,,,,,,0.079201389,-0.410559896,0,0,0,,,,,,,ARROW,LB,m,y,./images/ARROWLB.png,,,,,,,,m,1,0.752,,,,,,,,0,143,143,69,1
,,,,,,,,,,,,,,,,,198784,19,2022-01-28_16h07.42.129,lexical_decision_task_DD_L6,2021.2.3,MacIntel,59.99880002,,,,,,,,,,,,0.6824,1,,,,,,,,,,,,,,,,,,,,,,,,0.079201389,-0.410559896,0,0,0,,,,,,,STAIN,LB,m,y,./images/STAINLB.png,,,,,,,,m,1,0.6824,,,,,,,,0,144,144,6,1
,,,,,,,,,,,,,,,,,198784,19,2022-01-28_16h07.42.129,lexical_decision_task_DD_L6,2021.2.3,MacIntel,59.99880002,,,,,,,,,,,,0.638,1,,,,,,,,,,,,,,,,,,,,,,,,0.079201389,-0.410559896,0,0,0,,,,,,,PLANET,HB,m,y,./images/PLANETHB.png,,,,,,,,m,1,0.638,,,,,,,,0,145,145,80,1
,,,,,,,,,,,,,,,,,198784,19,2022-01-28_16h07.42.129,lexical_decision_task_DD_L6,2021.2.3,MacIntel,59.99880002,,,,,,,,,,,,0.6,1,,,,,,,,,,,,,,,,,,,,,,,,0.079201389,-0.410559896,0,0,0,,,,,,,HAMMER,LB,m,y,./images/HAMMERLB.png,,,,,,,,m,1,0.6,,,,,,,,0,146,146,75,1
,,,,,,,,,,,,,,,,,198784,19,2022-01-28_16h07.42.129,lexical_decision_task_DD_L6,2021.2.3,MacIntel,59.99880002,,,,,,,,,,,,2.0808,1,,,,,,,,,,,,,,,,,,,,,,,,0.079201389,-0.410559896,0,0,0,,,,,,,THROAT,LB,z,y,./images/THROATLB.png,,,,,,,,z,1,2.0808,,,,,,,,0,147,147,120,1
,,,,,,,,,,,,,,,,,198784,19,2022-01-28_16h07.42.129,lexical_decision_task_DD_L6,2021.2.3,MacIntel,59.99880002,,,,,,,,,,,,0.9838,1,,,,,,,,,,,,,,,,,,,,,,,,0.079201389,-0.410559896,0,0,0,,,,,,,STATUE,LB,m,y,./images/STATUELB.png,,,,,,,,m,1,0.9838,,,,,,,,0,148,148,66,1
,,,,,,,,,,,,,,,,,198784,19,2022-01-28_16h07.42.129,lexical_decision_task_DD_L6,2021.2.3,MacIntel,59.99880002,,,,,,,,,,,,0.7416,0,,,,,,,,,,,,,,,,,,,,,,,,0.079201389,-0.410559896,0,0,0,,,,,,,STRING,HB,z,y,./images/STRINGHB.png,,,,,,,,m,0,0.7416,,,,,,,,0,149,149,125,1
,,,,,,,,,,,,,,,,,198784,19,2022-01-28_16h07.42.129,lexical_decision_task_DD_L6,2021.2.3,MacIntel,59.99880002,,,,,,,,,,,,0.6997,1,,,,,,,,,,,,,,,,,,,,,,,,0.079201389,-0.410559896,0,0,0,,,,,,,COLLAR,LB,m,y,./images/COLLARLB.png,,,,,,,,m,1,0.6997,,,,,,,,0,150,150,15,1
,,,,,,,,,,,,,,,,,198784,19,2022-01-28_16h07.42.129,lexical_decision_task_DD_L6,2021.2.3,MacIntel,59.99880002,,,,,,,,,,,,0.9656,0,,,,,,,,,,,,,,,,,,,,,,,,0.079201389,-0.410559896,0,0,0,,,,,,,CRUMB,HB,z,y,./images/CRUMBHB.png,,,,,,,,m,0,0.9656,,,,,,,,0,151,151,113,1
,,,,,,,,,,,,,,,,,198784,19,2022-01-28_16h07.42.129,lexical_decision_task_DD_L6,2021.2.3,MacIntel,59.99880002,,,,,,,,,,,,0.708,1,,,,,,,,,,,,,,,,,,,,,,,,0.079201389,-0.410559896,0,0,0,,,,,,,CHALK,C,m,y,./images/CHALK.png,,,,,,,,m,1,0.708,,,,,,,,0,152,152,25,1
,,,,,,,,,,,,,,,,,198784,19,2022-01-28_16h07.42.129,lexical_decision_task_DD_L6,2021.2.3,MacIntel,59.99880002,,,,,,,,,,,,0.9409,1,,,,,,,,,,,,,,,,,,,,,,,,0.079201389,-0.410559896,0,0,0,,,,,,,PEBBLE,C,m,y,./images/PEBBLE.png,,,,,,,,m,1,0.9409,,,,,,,,0,153,153,82,1
,,,,,,,,,,,,,,,,,198784,19,2022-01-28_16h07.42.129,lexical_decision_task_DD_L6,2021.2.3,MacIntel,59.99880002,,,,,,,,,,,,0.7409,1,,,,,,,,,,,,,,,,,,,,,,,,0.079201389,-0.410559896,0,0,0,,,,,,,TWINS,LB,z,y,./images/TWINSLB.png,,,,,,,,z,1,0.7409,,,,,,,,0,154,154,144,1
,,,,,,,,,,,,,,,,,198784,19,2022-01-28_16h07.42.129,lexical_decision_task_DD_L6,2021.2.3,MacIntel,59.99880002,,,,,,,,,,,,0.7905,1,,,,,,,,,,,,,,,,,,,,,,,,0.079201389,-0.410559896,0,0,0,,,,,,,PICKLE,HB,z,y,./images/PICKLEHB.png,,,,,,,,z,1,0.7905,,,,,,,,0,155,155,98,1
,,,,,,,,,,,,,,,,,198784,19,2022-01-28_16h07.42.129,lexical_decision_task_DD_L6,2021.2.3,MacIntel,59.99880002,,,,,,,,,,,,1,1,,,,,,,,,,,,,,,,,,,,,,,,0.079201389,-0.410559896,0,0,0,,,,,,,FENCE,HB,m,y,./images/FENCEHB.png,,,,,,,,m,1,1,,,,,,,,0,156,156,14,1
,,,,,,,,,,,,,,,,,198784,19,2022-01-28_16h07.42.129,lexical_decision_task_DD_L6,2021.2.3,MacIntel,59.99880002,,,,,,,,,,,,1.4152,1,,,,,,,,,,,,,,,,,,,,,,,,0.079201389,-0.410559896,0,0,0,,,,,,,SQUARE,LB,z,y,./images/SQUARELB.png,,,,,,,,z,1,1.4152,,,,,,,,0,157,157,90,1
,,,,,,,,,,,,,,,,,198784,19,2022-01-28_16h07.42.129,lexical_decision_task_DD_L6,2021.2.3,MacIntel,59.99880002,,,,,,,,,,,,0.7064,1,,,,,,,,,,,,,,,,,,,,,,,,0.079201389,-0.410559896,0,0,0,,,,,,,KIDNEY,LB,z,y,./images/KIDNEYLB.png,,,,,,,,z,1,0.7064,,,,,,,,0,158,158,105,1
,,,,,,,,,,,,,,,,,198784,19,2022-01-28_16h07.42.129,lexical_decision_task_DD_L6,2021.2.3,MacIntel,59.99880002,,,,,,,,,,,,1.3992,0,,,,,,,,,,,,,,,,,,,,,,,,0.079201389,-0.410559896,0,0,0,,,,,,,BURIAL,HB,z,y,./images/BURIALHB.png,,,,,,,,m,0,1.3992,,,,,,,,0,159,159,143,1
,,,,,,,,,,,,,,,,,198784,19,2022-01-28_16h07.42.129,lexical_decision_task_DD_L6,2021.2.3,MacIntel,59.99880002,,,,,,,,,,,,2.3874,1,,,,,,,,,,,,,,,,,,,,,,,,0.079201389,-0.410559896,0,0,0,,,,,,,BUTTER,LB,m,y,./images/BUTTERLB.png,,,,,,,,m,1,2.3874,,,,,,,,0,160,160,27,1
,,,,,,,,,,,,,,,,,198784,19,2022-01-28_16h07.42.129,lexical_decision_task_DD_L6,2021.2.3,MacIntel,59.99880002,,,,,,,,,,,,1.0082,1,,,,,,,,,,,,,,,,,,,,,,,,0.079201389,-0.410559896,0,0,0,,,,,,,BONNET,HB,z,y,./images/BONNETHB.png,,,,,,,,z,1,1.0082,,,,,,,,0,161,161,95,1
,,,,,,,,,,,,,,,,,198784,19,2022-01-28_16h07.42.129,lexical_decision_task_DD_L6,2021.2.3,MacIntel,59.99880002,,,,,,,,,,,,0.7001,1,,,,,,,,,,,,,,,,,,,,,,,,0.079201389,-0.410559896,0,0,0,,,,,,,WAGON,C,m,y,./images/WAGON.png,,,,,,,,m,1,0.7001,,,,,,,,0,162,162,7,1
,,,,,,,,,,,,,,,,,198784,19,2022-01-28_16h07.42.129,lexical_decision_task_DD_L6,2021.2.3,MacIntel,59.99880002,,,,,,,,,,,,0.8986,1,,,,,,,,,,,,,,,,,,,,,,,,0.079201389,-0.410559896,0,0,0,,,,,,,BANNER,C,z,y,./images/BANNER.png,,,,,,,,z,1,0.8986,,,,,,,,0,163,163,136,1
,,,,,,,,,,,,,,,,,198784,19,2022-01-28_16h07.42.129,lexical_decision_task_DD_L6,2021.2.3,MacIntel,59.99880002,,,,,,,,,,,,0.7819,1,,,,,,,,,,,,,,,,,,,,,,,,0.079201389,-0.410559896,0,0,0,,,,,,,POSTER,HB,m,y,./images/POSTERHB.png,,,,,,,,m,1,0.7819,,,,,,,,0,164,164,53,1
,,,,,,,,,,,,,,,,,198784,19,2022-01-28_16h07.42.129,lexical_decision_task_DD_L6,2021.2.3,MacIntel,59.99880002,,,,,,,,,,,,0.9168,0,,,,,,,,,,,,,,,,,,,,,,,,0.079201389,-0.410559896,0,0,0,,,,,,,GRAIN,LB,z,y,./images/GRAINLB.png,,,,,,,,m,0,0.9168,,,,,,,,0,165,165,159,1
,,,,,,,,,,,,,,,,,198784,19,2022-01-28_16h07.42.129,lexical_decision_task_DD_L6,2021.2.3,MacIntel,59.99880002,,,,,,,,,,,,0.7487,1,,,,,,,,,,,,,,,,,,,,,,,,0.079201389,-0.410559896,0,0,0,,,,,,,GLOVE,C,m,y,./images/GLOVE.png,,,,,,,,m,1,0.7487,,,,,,,,0,166,166,73,1
,,,,,,,,,,,,,,,,,198784,19,2022-01-28_16h07.42.129,lexical_decision_task_DD_L6,2021.2.3,MacIntel,59.99880002,,,,,,,,,,,,0.7592,1,,,,,,,,,,,,,,,,,,,,,,,,0.079201389,-0.410559896,0,0,0,,,,,,,FOLDER,LB,z,y,./images/FOLDERLB.png,,,,,,,,z,1,0.7592,,,,,,,,0,167,167,126,1
