key_resp.keys,instr_done_touch.x,instr_done_touch.y,instr_done_touch.leftButton,instr_done_touch.midButton,instr_done_touch.rightButton,instr_done_touch.clicked_name,instruction_pages.thisRepN,instruction_pages.thisTrialN,instruction_pages.thisN,instruction_pages.thisIndex,instruction_pages.ran,pageN,phase,instruct_text,has_image,instruct_image,participant,age,date,expName,psychopyVersion,OS,frameRate,response.keys,response.corr,response.rt,touch_resp.x,touch_resp.y,touch_resp.leftButton,touch_resp.midButton,touch_resp.rightButton,touch_resp.time,touch_resp.clicked_name,rt,corr,practrials.thisRepN,practrials.thisTrialN,practrials.thisN,practrials.thisIndex,practrials.ran,TrialID,Target,corrAns,end_of_practice_trials_pages.thisRepN,end_of_practice_trials_pages.thisTrialN,end_of_practice_trials_pages.thisN,end_of_practice_trials_pages.thisIndex,end_of_practice_trials_pages.ran,key_resp_2.keys,key_resp_2.corr,key_resp_2.rt,targ_click.x,targ_click.y,targ_click.leftButton,targ_click.midButton,targ_click.rightButton,targ_click.time,targ_click.clicked_name,break_done_touch.x,break_done_touch.y,break_done_touch.leftButton,break_done_touch.midButton,break_done_touch.rightButton,break_done_keyboard.keys,maintrials.thisRepN,maintrials.thisTrialN,maintrials.thisN,maintrials.thisIndex,maintrials.ran,string,blur,study,lex,stim_path,break_done_touch.clicked_name,test_instructions.thisRepN,test_instructions.thisTrialN,test_instructions.thisN,test_instructions.thisIndex,test_instructions.ran,key_resp.rt,key_resp_3.keys,key_resp_3.corr,key_resp_3.rt,test_click.x,test_click.y,test_click.leftButton,test_click.midButton,test_click.rightButton,test_click.time,test_click.clicked_name,test_phase.thisRepN,test_phase.thisTrialN,test_phase.thisN,test_phase.thisIndex,test_phase.ran,break_done_keyboard.rt
,0.017592606,-0.376851921,1,0,0,instr_done_button,0,0,0,0,1,1,instructions,"INSTRUCTIONS
At the start of each trial, look at the plus sign  (+) in the center of the screen.  This tells you that a trial is about to begin and where to look. Second, the plus sign will disappear and a string of letters will appear. Your task is to determine if the string of letters is a word or not. If the item is a word press the M key (on keyboard)  or touch the word button (phone/tablet).  If the item is not a word,  press the  Z key (on keyboard)  or touch the nonword button (on phone/tablet). 
Press the space bar or touch  continue.",0,,198712,19,2022-01-28_22h23.39.141,lexical_decision_task_DD_L3,2021.2.3,Win32,119.4172439,,,,,,,,,,,,,,,,,,,,,,,,,,,,,,,,,,,,,,,,,,,,,,,,,,,,,,,,,,,,,,,,,,,,,,,,,,
,-0.040740728,-0.380555569,1,0,0,instr_done_button,0,1,1,1,1,2,instructions,"If your device has a keyboard, press the 'Z' key for nonwords and the 'M' key for words.





Press the space bar or touch the button below to continue.",0,keyboard-example.gif,198712,19,2022-01-28_22h23.39.141,lexical_decision_task_DD_L3,2021.2.3,Win32,119.4172439,,,,,,,,,,,,,,,,,,,,,,,,,,,,,,,,,,,,,,,,,,,,,,,,,,,,,,,,,,,,,,,,,,,,,,,,,,
,-0.040740728,-0.381481551,1,0,0,instr_done_button,0,2,2,2,1,3,instructions,"If you are using a touchscreen only device, use the buttons on the screen. Do not use the mouse.





Press the space bar or touch the button below to continue.",0,touchscreen-example.gif,198712,19,2022-01-28_22h23.39.141,lexical_decision_task_DD_L3,2021.2.3,Win32,119.4172439,,,,,,,,,,,,,,,,,,,,,,,,,,,,,,,,,,,,,,,,,,,,,,,,,,,,,,,,,,,,,,,,,,,,,,,,,,
,-0.007407338,-0.392592606,1,0,0,instr_done_button,0,3,3,3,1,4,instructions,"It is very important that you respond as quickly and accurately as possible, as each letter string will only be on the screen for two seconds. If you do not respond within this time, the message 'Too slow!' will be displayed and the experiment will progress to the next letter string. The first 20 trials will be practice trials and you will receive feedback on your answers. 

Press the space bar or touch the button below to start the practice trials.",0,,198712,19,2022-01-28_22h23.39.141,lexical_decision_task_DD_L3,2021.2.3,Win32,119.4172439,,,,,,,,,,,,,,,,,,,,,,,,,,,,,,,,,,,,,,,,,,,,,,,,,,,,,,,,,,,,,,,,,,,,,,,,,,
,,,,,,,,,,,,,,,,,198712,19,2022-01-28_22h23.39.141,lexical_decision_task_DD_L3,2021.2.3,Win32,119.4172439,m,0,2.5917,,,,,,,,2.5917,0,0,0,0,13,1,1001,ROUPET,z,,,,,,,,,,,,,,,,,,,,,,,,,,,,,,,,,,,,,,,,,,,,,,,,,,,,,,
,,,,,,,,,,,,,,,,,198712,19,2022-01-28_22h23.39.141,lexical_decision_task_DD_L3,2021.2.3,Win32,119.4172439,z,1,0.9012,,,,,,,,0.9012,1,0,1,1,14,1,1001,THRALE,z,,,,,,,,,,,,,,,,,,,,,,,,,,,,,,,,,,,,,,,,,,,,,,,,,,,,,,
,,,,,,,,,,,,,,,,,198712,19,2022-01-28_22h23.39.141,lexical_decision_task_DD_L3,2021.2.3,Win32,119.4172439,m,1,0.8985,,,,,,,,0.8985,1,0,2,2,0,1,1001,UTOPIA,m,,,,,,,,,,,,,,,,,,,,,,,,,,,,,,,,,,,,,,,,,,,,,,,,,,,,,,
,,,,,,,,,,,,,,,,,198712,19,2022-01-28_22h23.39.141,lexical_decision_task_DD_L3,2021.2.3,Win32,119.4172439,m,1,1.0232,,,,,,,,1.0232,1,0,3,3,5,1,1001,OBTAIN,m,,,,,,,,,,,,,,,,,,,,,,,,,,,,,,,,,,,,,,,,,,,,,,,,,,,,,,
,,,,,,,,,,,,,,,,,198712,19,2022-01-28_22h23.39.141,lexical_decision_task_DD_L3,2021.2.3,Win32,119.4172439,m,1,0.7495,,,,,,,,0.7495,1,0,4,4,3,1,1001,MATRIX,m,,,,,,,,,,,,,,,,,,,,,,,,,,,,,,,,,,,,,,,,,,,,,,,,,,,,,,
,,,,,,,,,,,,,,,,,198712,19,2022-01-28_22h23.39.141,lexical_decision_task_DD_L3,2021.2.3,Win32,119.4172439,m,1,0.8544,,,,,,,,0.8544,1,0,5,5,6,1,1001,ZOMBIE,m,,,,,,,,,,,,,,,,,,,,,,,,,,,,,,,,,,,,,,,,,,,,,,,,,,,,,,
,,,,,,,,,,,,,,,,,198712,19,2022-01-28_22h23.39.141,lexical_decision_task_DD_L3,2021.2.3,Win32,119.4172439,z,1,0.815,,,,,,,,0.815,1,0,6,6,11,1,1001,RASHET,z,,,,,,,,,,,,,,,,,,,,,,,,,,,,,,,,,,,,,,,,,,,,,,,,,,,,,,
,,,,,,,,,,,,,,,,,198712,19,2022-01-28_22h23.39.141,lexical_decision_task_DD_L3,2021.2.3,Win32,119.4172439,z,1,0.9134,,,,,,,,0.9134,1,0,7,7,15,1,1001,WHAISE,z,,,,,,,,,,,,,,,,,,,,,,,,,,,,,,,,,,,,,,,,,,,,,,,,,,,,,,
,,,,,,,,,,,,,,,,,198712,19,2022-01-28_22h23.39.141,lexical_decision_task_DD_L3,2021.2.3,Win32,119.4172439,z,1,0.8803,,,,,,,,0.8803,1,0,8,8,12,1,1001,SPRINY,z,,,,,,,,,,,,,,,,,,,,,,,,,,,,,,,,,,,,,,,,,,,,,,,,,,,,,,
,,,,,,,,,,,,,,,,,198712,19,2022-01-28_22h23.39.141,lexical_decision_task_DD_L3,2021.2.3,Win32,119.4172439,m,1,0.6405,,,,,,,,0.6405,1,0,9,9,7,1,1001,VOLUME,m,,,,,,,,,,,,,,,,,,,,,,,,,,,,,,,,,,,,,,,,,,,,,,,,,,,,,,
,,,,,,,,,,,,,,,,,198712,19,2022-01-28_22h23.39.141,lexical_decision_task_DD_L3,2021.2.3,Win32,119.4172439,m,1,0.5805,,,,,,,,0.5805,1,0,10,10,1,1,1001,ADJUST,m,,,,,,,,,,,,,,,,,,,,,,,,,,,,,,,,,,,,,,,,,,,,,,,,,,,,,,
,,,,,,,,,,,,,,,,,198712,19,2022-01-28_22h23.39.141,lexical_decision_task_DD_L3,2021.2.3,Win32,119.4172439,m,1,0.5139,,,,,,,,0.5139,1,0,11,11,4,1,1001,SQUEAK,m,,,,,,,,,,,,,,,,,,,,,,,,,,,,,,,,,,,,,,,,,,,,,,,,,,,,,,
,,,,,,,,,,,,,,,,,198712,19,2022-01-28_22h23.39.141,lexical_decision_task_DD_L3,2021.2.3,Win32,119.4172439,z,1,0.7565,,,,,,,,0.7565,1,0,12,12,10,1,1001,INLADE,z,,,,,,,,,,,,,,,,,,,,,,,,,,,,,,,,,,,,,,,,,,,,,,,,,,,,,,
,,,,,,,,,,,,,,,,,198712,19,2022-01-28_22h23.39.141,lexical_decision_task_DD_L3,2021.2.3,Win32,119.4172439,z,1,0.6328,,,,,,,,0.6328,1,0,13,13,8,1,1001,ASLERT,z,,,,,,,,,,,,,,,,,,,,,,,,,,,,,,,,,,,,,,,,,,,,,,,,,,,,,,
,,,,,,,,,,,,,,,,,198712,19,2022-01-28_22h23.39.141,lexical_decision_task_DD_L3,2021.2.3,Win32,119.4172439,z,1,0.7001,,,,,,,,0.7001,1,0,14,14,9,1,1001,FARINY,z,,,,,,,,,,,,,,,,,,,,,,,,,,,,,,,,,,,,,,,,,,,,,,,,,,,,,,
,,,,,,,,,,,,,,,,,198712,19,2022-01-28_22h23.39.141,lexical_decision_task_DD_L3,2021.2.3,Win32,119.4172439,m,1,0.7581,,,,,,,,0.7581,1,0,15,15,2,1,1001,ALMOND,m,,,,,,,,,,,,,,,,,,,,,,,,,,,,,,,,,,,,,,,,,,,,,,,,,,,,,,
,0.005555569,-0.38703705,1,0,0,instr_done_button,,,,,,1,end_of_practice,"You have completed the practice trials. During the experimental trials, you will not receive feedback. 
Before you begin, please ensure that you are in a comfortable and quiet location and will not be disturbed for about 15 minutes, as we cannot use your data if you do not complete all the trials. 
 When you are ready to start the experimental trials, please press space or touch the button below.",,,198712,19,2022-01-28_22h23.39.141,lexical_decision_task_DD_L3,2021.2.3,Win32,119.4172439,,,,,,,,,,,,,,,,,,,,,0,0,0,0,1,,,,,,,,,,,,,,,,,,,,,,,,,,,,,,,,,,,,,,,,,,,,,,,,,
,,,,,,,,,,,,,,,,,198712,19,2022-01-28_22h23.39.141,lexical_decision_task_DD_L3,2021.2.3,Win32,119.4172439,,,,,,,,,,,1.1547,1,,,,,,,,,,,,,,m,1,1.1547,,,,,,,,0.02592594,-0.321296365,0,0,0,,0,0,0,46,1,PEARL,C,old,m,./images/PEARL.png,,,,,,,,,,,,,,,,,,,,,,,
,,,,,,,,,,,,,,,,,198712,19,2022-01-28_22h23.39.141,lexical_decision_task_DD_L3,2021.2.3,Win32,119.4172439,,,,,,,,,,,0.8824,1,,,,,,,,,,,,,,m,1,0.8824,,,,,,,,0.02592594,-0.321296365,0,0,0,,0,1,1,62,1,PURSE,HB,old,m,./images/PURSEHB.png,,,,,,,,,,,,,,,,,,,,,,,
,,,,,,,,,,,,,,,,,198712,19,2022-01-28_22h23.39.141,lexical_decision_task_DD_L3,2021.2.3,Win32,119.4172439,,,,,,,,,,,1.3506,0,,,,,,,,,,,,,,z,0,1.3506,,,,,,,,0.02592594,-0.321296365,0,0,0,,0,2,2,83,1,JUNGLE,HB,old,m,./images/JUNGLEHB.png,,,,,,,,,,,,,,,,,,,,,,,
,,,,,,,,,,,,,,,,,198712,19,2022-01-28_22h23.39.141,lexical_decision_task_DD_L3,2021.2.3,Win32,119.4172439,,,,,,,,,,,0.9173,1,,,,,,,,,,,,,,z,1,0.9173,,,,,,,,0.02592594,-0.321296365,0,0,0,,0,3,3,144,1,NAIRY,C,old,z,./images/NAIRY.png,,,,,,,,,,,,,,,,,,,,,,,
,,,,,,,,,,,,,,,,,198712,19,2022-01-28_22h23.39.141,lexical_decision_task_DD_L3,2021.2.3,Win32,119.4172439,,,,,,,,,,,1.0825,1,,,,,,,,,,,,,,z,1,1.0825,,,,,,,,0.02592594,-0.321296365,0,0,0,,0,4,4,120,1,RINED,C,old,z,./images/RINED.png,,,,,,,,,,,,,,,,,,,,,,,
,,,,,,,,,,,,,,,,,198712,19,2022-01-28_22h23.39.141,lexical_decision_task_DD_L3,2021.2.3,Win32,119.4172439,,,,,,,,,,,0.959,1,,,,,,,,,,,,,,z,1,0.959,,,,,,,,0.02592594,-0.321296365,0,0,0,,0,5,5,92,1,PAIMS,LB,old,z,./images/PAIMSLB.png,,,,,,,,,,,,,,,,,,,,,,,
,,,,,,,,,,,,,,,,,198712,19,2022-01-28_22h23.39.141,lexical_decision_task_DD_L3,2021.2.3,Win32,119.4172439,,,,,,,,,,,1.4409,1,,,,,,,,,,,,,,z,1,1.4409,,,,,,,,0.02592594,-0.321296365,0,0,0,,0,6,6,157,1,INLER,HB,old,z,./images/INLERHB.png,,,,,,,,,,,,,,,,,,,,,,,
,,,,,,,,,,,,,,,,,198712,19,2022-01-28_22h23.39.141,lexical_decision_task_DD_L3,2021.2.3,Win32,119.4172439,,,,,,,,,,,0.7833,1,,,,,,,,,,,,,,z,1,0.7833,,,,,,,,0.02592594,-0.321296365,0,0,0,,0,7,7,167,1,ZONET,LB,old,z,./images/ZONETLB.png,,,,,,,,,,,,,,,,,,,,,,,
,,,,,,,,,,,,,,,,,198712,19,2022-01-28_22h23.39.141,lexical_decision_task_DD_L3,2021.2.3,Win32,119.4172439,,,,,,,,,,,1.8582,1,,,,,,,,,,,,,,z,1,1.8582,,,,,,,,0.02592594,-0.321296365,0,0,0,,0,8,8,145,1,LAMEL,HB,old,z,./images/LAMELHB.png,,,,,,,,,,,,,,,,,,,,,,,
,,,,,,,,,,,,,,,,,198712,19,2022-01-28_22h23.39.141,lexical_decision_task_DD_L3,2021.2.3,Win32,119.4172439,,,,,,,,,,,0.7032,1,,,,,,,,,,,,,,m,1,0.7032,,,,,,,,0.02592594,-0.321296365,0,0,0,,0,9,9,39,1,SHELF,LB,old,m,./images/SHELFLB.png,,,,,,,,,,,,,,,,,,,,,,,
,,,,,,,,,,,,,,,,,198712,19,2022-01-28_22h23.39.141,lexical_decision_task_DD_L3,2021.2.3,Win32,119.4172439,,,,,,,,,,,1.02,1,,,,,,,,,,,,,,m,1,1.02,,,,,,,,0.02592594,-0.321296365,0,0,0,,0,10,10,72,1,NOOSE,LB,old,m,./images/NOOSELB.png,,,,,,,,,,,,,,,,,,,,,,,
,,,,,,,,,,,,,,,,,198712,19,2022-01-28_22h23.39.141,lexical_decision_task_DD_L3,2021.2.3,Win32,119.4172439,,,,,,,,,,,0.6567,1,,,,,,,,,,,,,,m,1,0.6567,,,,,,,,0.02592594,-0.321296365,0,0,0,,0,11,11,19,1,DOUGH,C,old,m,./images/DOUGH.png,,,,,,,,,,,,,,,,,,,,,,,
,,,,,,,,,,,,,,,,,198712,19,2022-01-28_22h23.39.141,lexical_decision_task_DD_L3,2021.2.3,Win32,119.4172439,,,,,,,,,,,1.6554,1,,,,,,,,,,,,,,z,1,1.6554,,,,,,,,0.02592594,-0.321296365,0,0,0,,0,12,12,142,1,PLASK,HB,old,z,./images/PLASKHB.png,,,,,,,,,,,,,,,,,,,,,,,
,,,,,,,,,,,,,,,,,198712,19,2022-01-28_22h23.39.141,lexical_decision_task_DD_L3,2021.2.3,Win32,119.4172439,,,,,,,,,,,2.3196,1,,,,,,,,,,,,,,z,1,2.3196,,,,,,,,0.02592594,-0.321296365,0,0,0,,0,13,13,91,1,SHENS,HB,old,z,./images/SHENSHB.png,,,,,,,,,,,,,,,,,,,,,,,
,,,,,,,,,,,,,,,,,198712,19,2022-01-28_22h23.39.141,lexical_decision_task_DD_L3,2021.2.3,Win32,119.4172439,,,,,,,,,,,0.8757,1,,,,,,,,,,,,,,m,1,0.8757,,,,,,,,0.02592594,-0.321296365,0,0,0,,0,14,14,54,1,TRIPOD,LB,old,m,./images/TRIPODLB.png,,,,,,,,,,,,,,,,,,,,,,,
,,,,,,,,,,,,,,,,,198712,19,2022-01-28_22h23.39.141,lexical_decision_task_DD_L3,2021.2.3,Win32,119.4172439,,,,,,,,,,,0.8219,1,,,,,,,,,,,,,,m,1,0.8219,,,,,,,,0.02592594,-0.321296365,0,0,0,,0,15,15,44,1,LIZARD,HB,old,m,./images/LIZARDHB.png,,,,,,,,,,,,,,,,,,,,,,,
,,,,,,,,,,,,,,,,,198712,19,2022-01-28_22h23.39.141,lexical_decision_task_DD_L3,2021.2.3,Win32,119.4172439,,,,,,,,,,,0.5705,1,,,,,,,,,,,,,,m,1,0.5705,,,,,,,,0.02592594,-0.321296365,0,0,0,,0,16,16,40,1,SWING,C,old,m,./images/SWING.png,,,,,,,,,,,,,,,,,,,,,,,
,,,,,,,,,,,,,,,,,198712,19,2022-01-28_22h23.39.141,lexical_decision_task_DD_L3,2021.2.3,Win32,119.4172439,,,,,,,,,,,0.9052,1,,,,,,,,,,,,,,z,1,0.9052,,,,,,,,0.02592594,-0.321296365,0,0,0,,0,17,17,110,1,CRUNK,LB,old,z,./images/CRUNKLB.png,,,,,,,,,,,,,,,,,,,,,,,
,,,,,,,,,,,,,,,,,198712,19,2022-01-28_22h23.39.141,lexical_decision_task_DD_L3,2021.2.3,Win32,119.4172439,,,,,,,,,,,0.9735,1,,,,,,,,,,,,,,m,1,0.9735,,,,,,,,0.02592594,-0.321296365,0,0,0,,0,18,18,53,1,CARPET,HB,old,m,./images/CARPETHB.png,,,,,,,,,,,,,,,,,,,,,,,
,,,,,,,,,,,,,,,,,198712,19,2022-01-28_22h23.39.141,lexical_decision_task_DD_L3,2021.2.3,Win32,119.4172439,,,,,,,,,,,0.7989,1,,,,,,,,,,,,,,z,1,0.7989,,,,,,,,0.02592594,-0.321296365,0,0,0,,0,19,19,132,1,SCIFF,C,old,z,./images/SCIFF.png,,,,,,,,,,,,,,,,,,,,,,,
,,,,,,,,,,,,,,,,,198712,19,2022-01-28_22h23.39.141,lexical_decision_task_DD_L3,2021.2.3,Win32,119.4172439,,,,,,,,,,,1.5149,0,,,,,,,,,,,,,,m,0,1.5149,,,,,,,,0.02592594,-0.321296365,0,0,0,,0,20,20,100,1,DRIBS,HB,old,z,./images/DRIBSHB.png,,,,,,,,,,,,,,,,,,,,,,,
,,,,,,,,,,,,,,,,,198712,19,2022-01-28_22h23.39.141,lexical_decision_task_DD_L3,2021.2.3,Win32,119.4172439,,,,,,,,,,,1.393,1,,,,,,,,,,,,,,z,1,1.393,,,,,,,,0.02592594,-0.321296365,0,0,0,,0,21,21,136,1,WERVE,HB,old,z,./images/WERVEHB.png,,,,,,,,,,,,,,,,,,,,,,,
,,,,,,,,,,,,,,,,,198712,19,2022-01-28_22h23.39.141,lexical_decision_task_DD_L3,2021.2.3,Win32,119.4172439,,,,,,,,,,,0.9916,1,,,,,,,,,,,,,,z,1,0.9916,,,,,,,,0.02592594,-0.321296365,0,0,0,,0,22,22,160,1,VEETS,HB,old,z,./images/VEETSHB.png,,,,,,,,,,,,,,,,,,,,,,,
,,,,,,,,,,,,,,,,,198712,19,2022-01-28_22h23.39.141,lexical_decision_task_DD_L3,2021.2.3,Win32,119.4172439,,,,,,,,,,,0.8415,1,,,,,,,,,,,,,,m,1,0.8415,,,,,,,,0.02592594,-0.321296365,0,0,0,,0,23,23,11,1,BONNET,HB,old,m,./images/BONNETHB.png,,,,,,,,,,,,,,,,,,,,,,,
,,,,,,,,,,,,,,,,,198712,19,2022-01-28_22h23.39.141,lexical_decision_task_DD_L3,2021.2.3,Win32,119.4172439,,,,,,,,,,,0.7838,1,,,,,,,,,,,,,,m,1,0.7838,,,,,,,,0.02592594,-0.321296365,0,0,0,,0,24,24,33,1,MAGGOT,LB,old,m,./images/MAGGOTLB.png,,,,,,,,,,,,,,,,,,,,,,,
,,,,,,,,,,,,,,,,,198712,19,2022-01-28_22h23.39.141,lexical_decision_task_DD_L3,2021.2.3,Win32,119.4172439,,,,,,,,,,,0.9359,1,,,,,,,,,,,,,,m,1,0.9359,,,,,,,,0.02592594,-0.321296365,0,0,0,,0,25,25,51,1,ONION,LB,old,m,./images/ONIONLB.png,,,,,,,,,,,,,,,,,,,,,,,
,,,,,,,,,,,,,,,,,198712,19,2022-01-28_22h23.39.141,lexical_decision_task_DD_L3,2021.2.3,Win32,119.4172439,,,,,,,,,,,2.2522,0,,,,,,,,,,,,,,z,0,2.2522,,,,,,,,0.02592594,-0.321296365,0,0,0,,0,26,26,17,1,SKIING,HB,old,m,./images/SKIINGHB.png,,,,,,,,,,,,,,,,,,,,,,,
,,,,,,,,,,,,,,,,,198712,19,2022-01-28_22h23.39.141,lexical_decision_task_DD_L3,2021.2.3,Win32,119.4172439,,,,,,,,,,,0.8588,1,,,,,,,,,,,,,,z,1,0.8588,,,,,,,,0.02592594,-0.321296365,0,0,0,,0,27,27,158,1,EGECT,LB,old,z,./images/EGECTLB.png,,,,,,,,,,,,,,,,,,,,,,,
,,,,,,,,,,,,,,,,,198712,19,2022-01-28_22h23.39.141,lexical_decision_task_DD_L3,2021.2.3,Win32,119.4172439,,,,,,,,,,,0.6007,1,,,,,,,,,,,,,,m,1,0.6007,,,,,,,,0.02592594,-0.321296365,0,0,0,,0,28,28,37,1,BIRTH,C,old,m,./images/BIRTH.png,,,,,,,,,,,,,,,,,,,,,,,
,,,,,,,,,,,,,,,,,198712,19,2022-01-28_22h23.39.141,lexical_decision_task_DD_L3,2021.2.3,Win32,119.4172439,,,,,,,,,,,1.517,1,,,,,,,,,,,,,,z,1,1.517,,,,,,,,0.02592594,-0.321296365,0,0,0,,0,29,29,133,1,POWDY,HB,old,z,./images/POWDYHB.png,,,,,,,,,,,,,,,,,,,,,,,
,,,,,,,,,,,,,,,,,198712,19,2022-01-28_22h23.39.141,lexical_decision_task_DD_L3,2021.2.3,Win32,119.4172439,,,,,,,,,,,0.6253,1,,,,,,,,,,,,,,m,1,0.6253,,,,,,,,0.02592594,-0.321296365,0,0,0,,0,30,30,6,1,SQUARE,LB,old,m,./images/SQUARELB.png,,,,,,,,,,,,,,,,,,,,,,,
,,,,,,,,,,,,,,,,,198712,19,2022-01-28_22h23.39.141,lexical_decision_task_DD_L3,2021.2.3,Win32,119.4172439,,,,,,,,,,,0.7742,1,,,,,,,,,,,,,,z,1,0.7742,,,,,,,,0.02592594,-0.321296365,0,0,0,,0,31,31,116,1,BALGY,LB,old,z,./images/BALGYLB.png,,,,,,,,,,,,,,,,,,,,,,,
,,,,,,,,,,,,,,,,,198712,19,2022-01-28_22h23.39.141,lexical_decision_task_DD_L3,2021.2.3,Win32,119.4172439,,,,,,,,,,,1.3914,1,,,,,,,,,,,,,,z,1,1.3914,,,,,,,,0.02592594,-0.321296365,0,0,0,,0,32,32,109,1,BURGE,HB,old,z,./images/BURGEHB.png,,,,,,,,,,,,,,,,,,,,,,,
,,,,,,,,,,,,,,,,,198712,19,2022-01-28_22h23.39.141,lexical_decision_task_DD_L3,2021.2.3,Win32,119.4172439,,,,,,,,,,,0.5918,1,,,,,,,,,,,,,,m,1,0.5918,,,,,,,,0.02592594,-0.321296365,0,0,0,,0,33,33,81,1,POODLE,LB,old,m,./images/POODLELB.png,,,,,,,,,,,,,,,,,,,,,,,
,,,,,,,,,,,,,,,,,198712,19,2022-01-28_22h23.39.141,lexical_decision_task_DD_L3,2021.2.3,Win32,119.4172439,,,,,,,,,,,1.2092,1,,,,,,,,,,,,,,m,1,1.2092,,,,,,,,0.02592594,-0.321296365,0,0,0,,0,34,34,2,1,BEARD,HB,old,m,./images/BEARDHB.png,,,,,,,,,,,,,,,,,,,,,,,
,,,,,,,,,,,,,,,,,198712,19,2022-01-28_22h23.39.141,lexical_decision_task_DD_L3,2021.2.3,Win32,119.4172439,,,,,,,,,,,1.3751,1,,,,,,,,,,,,,,z,1,1.3751,,,,,,,,0.02592594,-0.321296365,0,0,0,,0,35,35,163,1,GAMBA,HB,old,z,./images/GAMBAHB.png,,,,,,,,,,,,,,,,,,,,,,,
,,,,,,,,,,,,,,,,,198712,19,2022-01-28_22h23.39.141,lexical_decision_task_DD_L3,2021.2.3,Win32,119.4172439,,,,,,,,,,,1.2507,1,,,,,,,,,,,,,,m,1,1.2507,,,,,,,,0.02592594,-0.321296365,0,0,0,,0,36,36,26,1,SMOKER,HB,old,m,./images/SMOKERHB.png,,,,,,,,,,,,,,,,,,,,,,,
,,,,,,,,,,,,,,,,,198712,19,2022-01-28_22h23.39.141,lexical_decision_task_DD_L3,2021.2.3,Win32,119.4172439,,,,,,,,,,,0.6019,1,,,,,,,,,,,,,,m,1,0.6019,,,,,,,,0.02592594,-0.321296365,0,0,0,,0,37,37,42,1,FOLDER,LB,old,m,./images/FOLDERLB.png,,,,,,,,,,,,,,,,,,,,,,,
,,,,,,,,,,,,,,,,,198712,19,2022-01-28_22h23.39.141,lexical_decision_task_DD_L3,2021.2.3,Win32,119.4172439,,,,,,,,,,,0.8661,1,,,,,,,,,,,,,,z,1,0.8661,,,,,,,,0.02592594,-0.321296365,0,0,0,,0,38,38,143,1,MONGS,LB,old,z,./images/MONGSLB.png,,,,,,,,,,,,,,,,,,,,,,,
,,,,,,,,,,,,,,,,,198712,19,2022-01-28_22h23.39.141,lexical_decision_task_DD_L3,2021.2.3,Win32,119.4172439,,,,,,,,,,,0.8773,1,,,,,,,,,,,,,,z,1,0.8773,,,,,,,,0.02592594,-0.321296365,0,0,0,,0,39,39,141,1,PLEET,C,old,z,./images/PLEET.png,,,,,,,,,,,,,,,,,,,,,,,
,,,,,,,,,,,,,,,,,198712,19,2022-01-28_22h23.39.141,lexical_decision_task_DD_L3,2021.2.3,Win32,119.4172439,,,,,,,,,,,0.8914,1,,,,,,,,,,,,,,m,1,0.8914,,,,,,,,0.02592594,-0.321296365,0,0,0,,0,40,40,50,1,MALLET,HB,old,m,./images/MALLETHB.png,,,,,,,,,,,,,,,,,,,,,,,
,,,,,,,,,,,,,,,,,198712,19,2022-01-28_22h23.39.141,lexical_decision_task_DD_L3,2021.2.3,Win32,119.4172439,,,,,,,,,,,1.1748,1,,,,,,,,,,,,,,z,1,1.1748,,,,,,,,0.04629631,-0.367592662,1,0,0,,0,41,41,95,1,HANTY,LB,old,z,./images/HANTYLB.png,break_done_button,,,,,,,,,,,,,,,,,,,,,,
,,,,,,,,,,,,,,,,,198712,19,2022-01-28_22h23.39.141,lexical_decision_task_DD_L3,2021.2.3,Win32,119.4172439,,,,,,,,,,,1.1241,1,,,,,,,,,,,,,,m,1,1.1241,,,,,,,,0.04629631,-0.367592662,0,0,0,,0,42,42,18,1,JAGUAR,LB,old,m,./images/JAGUARLB.png,,,,,,,,,,,,,,,,,,,,,,,
,,,,,,,,,,,,,,,,,198712,19,2022-01-28_22h23.39.141,lexical_decision_task_DD_L3,2021.2.3,Win32,119.4172439,,,,,,,,,,,0.7586,1,,,,,,,,,,,,,,z,1,0.7586,,,,,,,,0.04629631,-0.367592662,0,0,0,,0,43,43,105,1,MOKER,C,old,z,./images/MOKER.png,,,,,,,,,,,,,,,,,,,,,,,
,,,,,,,,,,,,,,,,,198712,19,2022-01-28_22h23.39.141,lexical_decision_task_DD_L3,2021.2.3,Win32,119.4172439,,,,,,,,,,,0.8166,1,,,,,,,,,,,,,,z,1,0.8166,,,,,,,,0.04629631,-0.367592662,0,0,0,,0,44,44,146,1,MOOST,LB,old,z,./images/MOOSTLB.png,,,,,,,,,,,,,,,,,,,,,,,
,,,,,,,,,,,,,,,,,198712,19,2022-01-28_22h23.39.141,lexical_decision_task_DD_L3,2021.2.3,Win32,119.4172439,,,,,,,,,,,1.341,0,,,,,,,,,,,,,,z,0,1.341,,,,,,,,0.04629631,-0.367592662,0,0,0,,0,45,45,20,1,CRADLE,HB,old,m,./images/CRADLEHB.png,,,,,,,,,,,,,,,,,,,,,,,
,,,,,,,,,,,,,,,,,198712,19,2022-01-28_22h23.39.141,lexical_decision_task_DD_L3,2021.2.3,Win32,119.4172439,,,,,,,,,,,0.651,1,,,,,,,,,,,,,,m,1,0.651,,,,,,,,0.04629631,-0.367592662,0,0,0,,0,46,46,66,1,SWEAT,LB,old,m,./images/SWEATLB.png,,,,,,,,,,,,,,,,,,,,,,,
,,,,,,,,,,,,,,,,,198712,19,2022-01-28_22h23.39.141,lexical_decision_task_DD_L3,2021.2.3,Win32,119.4172439,,,,,,,,,,,1.1923,1,,,,,,,,,,,,,,z,1,1.1923,,,,,,,,0.04629631,-0.367592662,0,0,0,,0,47,47,121,1,CEERS,HB,old,z,./images/CEERSHB.png,,,,,,,,,,,,,,,,,,,,,,,
,,,,,,,,,,,,,,,,,198712,19,2022-01-28_22h23.39.141,lexical_decision_task_DD_L3,2021.2.3,Win32,119.4172439,,,,,,,,,,,0.6251,1,,,,,,,,,,,,,,m,1,0.6251,,,,,,,,0.04629631,-0.367592662,0,0,0,,0,48,48,3,1,FINGER,LB,old,m,./images/FINGERLB.png,,,,,,,,,,,,,,,,,,,,,,,
,,,,,,,,,,,,,,,,,198712,19,2022-01-28_22h23.39.141,lexical_decision_task_DD_L3,2021.2.3,Win32,119.4172439,,,,,,,,,,,0.7331,1,,,,,,,,,,,,,,m,1,0.7331,,,,,,,,0.04629631,-0.367592662,0,0,0,,0,49,49,22,1,MELON,C,old,m,./images/MELON.png,,,,,,,,,,,,,,,,,,,,,,,
,,,,,,,,,,,,,,,,,198712,19,2022-01-28_22h23.39.141,lexical_decision_task_DD_L3,2021.2.3,Win32,119.4172439,,,,,,,,,,,0.6773,1,,,,,,,,,,,,,,z,1,0.6773,,,,,,,,0.04629631,-0.367592662,0,0,0,,0,50,50,96,1,KEAMS,C,old,z,./images/KEAMS.png,,,,,,,,,,,,,,,,,,,,,,,
,,,,,,,,,,,,,,,,,198712,19,2022-01-28_22h23.39.141,lexical_decision_task_DD_L3,2021.2.3,Win32,119.4172439,,,,,,,,,,,0.9359,1,,,,,,,,,,,,,,z,1,0.9359,,,,,,,,0.04629631,-0.367592662,0,0,0,,0,51,51,159,1,CUDDY,C,old,z,./images/CUDDY.png,,,,,,,,,,,,,,,,,,,,,,,
,,,,,,,,,,,,,,,,,198712,19,2022-01-28_22h23.39.141,lexical_decision_task_DD_L3,2021.2.3,Win32,119.4172439,,,,,,,,,,,0.7673,1,,,,,,,,,,,,,,m,1,0.7673,,,,,,,,0.04629631,-0.367592662,0,0,0,,0,52,52,56,1,PACKET,HB,old,m,./images/PACKETHB.png,,,,,,,,,,,,,,,,,,,,,,,
,,,,,,,,,,,,,,,,,198712,19,2022-01-28_22h23.39.141,lexical_decision_task_DD_L3,2021.2.3,Win32,119.4172439,,,,,,,,,,,0.7251,1,,,,,,,,,,,,,,z,1,0.7251,,,,,,,,0.04629631,-0.367592662,0,0,0,,0,53,53,137,1,JOOST,LB,old,z,./images/JOOSTLB.png,,,,,,,,,,,,,,,,,,,,,,,
,,,,,,,,,,,,,,,,,198712,19,2022-01-28_22h23.39.141,lexical_decision_task_DD_L3,2021.2.3,Win32,119.4172439,,,,,,,,,,,0.6505,1,,,,,,,,,,,,,,z,1,0.6505,,,,,,,,0.04629631,-0.367592662,0,0,0,,0,54,54,131,1,NACES,LB,old,z,./images/NACESLB.png,,,,,,,,,,,,,,,,,,,,,,,
,,,,,,,,,,,,,,,,,198712,19,2022-01-28_22h23.39.141,lexical_decision_task_DD_L3,2021.2.3,Win32,119.4172439,,,,,,,,,,,0.8273,1,,,,,,,,,,,,,,m,1,0.8273,,,,,,,,0.04629631,-0.367592662,0,0,0,,0,55,55,68,1,TORCH,HB,old,m,./images/TORCHHB.png,,,,,,,,,,,,,,,,,,,,,,,
,,,,,,,,,,,,,,,,,198712,19,2022-01-28_22h23.39.141,lexical_decision_task_DD_L3,2021.2.3,Win32,119.4172439,,,,,,,,,,,0.7173,1,,,,,,,,,,,,,,m,1,0.7173,,,,,,,,0.04629631,-0.367592662,0,0,0,,0,56,56,41,1,STRING,HB,old,m,./images/STRINGHB.png,,,,,,,,,,,,,,,,,,,,,,,
,,,,,,,,,,,,,,,,,198712,19,2022-01-28_22h23.39.141,lexical_decision_task_DD_L3,2021.2.3,Win32,119.4172439,,,,,,,,,,,0.5919,1,,,,,,,,,,,,,,z,1,0.5919,,,,,,,,0.04629631,-0.367592662,0,0,0,,0,57,57,102,1,DULLE,C,old,z,./images/DULLE.png,,,,,,,,,,,,,,,,,,,,,,,
,,,,,,,,,,,,,,,,,198712,19,2022-01-28_22h23.39.141,lexical_decision_task_DD_L3,2021.2.3,Win32,119.4172439,,,,,,,,,,,1.3253,1,,,,,,,,,,,,,,z,1,1.3253,,,,,,,,0.04629631,-0.367592662,0,0,0,,0,58,58,97,1,CHIDS,HB,old,z,./images/CHIDSHB.png,,,,,,,,,,,,,,,,,,,,,,,
,,,,,,,,,,,,,,,,,198712,19,2022-01-28_22h23.39.141,lexical_decision_task_DD_L3,2021.2.3,Win32,119.4172439,,,,,,,,,,,0.733,1,,,,,,,,,,,,,,z,1,0.733,,,,,,,,0.04629631,-0.367592662,0,0,0,,0,59,59,162,1,LEICH,C,old,z,./images/LEICH.png,,,,,,,,,,,,,,,,,,,,,,,
,,,,,,,,,,,,,,,,,198712,19,2022-01-28_22h23.39.141,lexical_decision_task_DD_L3,2021.2.3,Win32,119.4172439,,,,,,,,,,,0.5776,1,,,,,,,,,,,,,,z,1,0.5776,,,,,,,,0.04629631,-0.367592662,0,0,0,,0,60,60,126,1,GUELS,C,old,z,./images/GUELS.png,,,,,,,,,,,,,,,,,,,,,,,
,,,,,,,,,,,,,,,,,198712,19,2022-01-28_22h23.39.141,lexical_decision_task_DD_L3,2021.2.3,Win32,119.4172439,,,,,,,,,,,0.603,1,,,,,,,,,,,,,,m,1,0.603,,,,,,,,0.04629631,-0.367592662,0,0,0,,0,61,61,82,1,SUNSET,C,old,m,./images/SUNSET.png,,,,,,,,,,,,,,,,,,,,,,,
,,,,,,,,,,,,,,,,,198712,19,2022-01-28_22h23.39.141,lexical_decision_task_DD_L3,2021.2.3,Win32,119.4172439,,,,,,,,,,,0.6758,0,,,,,,,,,,,,,,m,0,0.6758,,,,,,,,0.04629631,-0.367592662,0,0,0,,0,62,62,99,1,BACKY,C,old,z,./images/BACKY.png,,,,,,,,,,,,,,,,,,,,,,,
,,,,,,,,,,,,,,,,,198712,19,2022-01-28_22h23.39.141,lexical_decision_task_DD_L3,2021.2.3,Win32,119.4172439,,,,,,,,,,,1.0189,1,,,,,,,,,,,,,,m,1,1.0189,,,,,,,,0.04629631,-0.367592662,0,0,0,,0,63,63,23,1,WALRUS,HB,old,m,./images/WALRUSHB.png,,,,,,,,,,,,,,,,,,,,,,,
,,,,,,,,,,,,,,,,,198712,19,2022-01-28_22h23.39.141,lexical_decision_task_DD_L3,2021.2.3,Win32,119.4172439,,,,,,,,,,,0.7528,1,,,,,,,,,,,,,,z,1,0.7528,,,,,,,,0.04629631,-0.367592662,0,0,0,,0,64,64,98,1,BAMPS,LB,old,z,./images/BAMPSLB.png,,,,,,,,,,,,,,,,,,,,,,,
,,,,,,,,,,,,,,,,,198712,19,2022-01-28_22h23.39.141,lexical_decision_task_DD_L3,2021.2.3,Win32,119.4172439,,,,,,,,,,,0.8335,1,,,,,,,,,,,,,,z,1,0.8335,,,,,,,,0.04629631,-0.367592662,0,0,0,,0,65,65,128,1,GRIFT,LB,old,z,./images/GRIFTLB.png,,,,,,,,,,,,,,,,,,,,,,,
,,,,,,,,,,,,,,,,,198712,19,2022-01-28_22h23.39.141,lexical_decision_task_DD_L3,2021.2.3,Win32,119.4172439,,,,,,,,,,,0.9241,1,,,,,,,,,,,,,,z,1,0.9241,,,,,,,,0.04629631,-0.367592662,0,0,0,,0,66,66,90,1,NEAST,C,old,z,./images/NEAST.png,,,,,,,,,,,,,,,,,,,,,,,
,,,,,,,,,,,,,,,,,198712,19,2022-01-28_22h23.39.141,lexical_decision_task_DD_L3,2021.2.3,Win32,119.4172439,,,,,,,,,,,0.9673,1,,,,,,,,,,,,,,z,1,0.9673,,,,,,,,0.04629631,-0.367592662,0,0,0,,0,67,67,164,1,SGREW,LB,old,z,./images/SGREWLB.png,,,,,,,,,,,,,,,,,,,,,,,
,,,,,,,,,,,,,,,,,198712,19,2022-01-28_22h23.39.141,lexical_decision_task_DD_L3,2021.2.3,Win32,119.4172439,,,,,,,,,,,0.6195,1,,,,,,,,,,,,,,m,1,0.6195,,,,,,,,0.04629631,-0.367592662,0,0,0,,0,68,68,61,1,CANDLE,C,old,m,./images/CANDLE.png,,,,,,,,,,,,,,,,,,,,,,,
,,,,,,,,,,,,,,,,,198712,19,2022-01-28_22h23.39.141,lexical_decision_task_DD_L3,2021.2.3,Win32,119.4172439,,,,,,,,,,,1.0608,1,,,,,,,,,,,,,,z,1,1.0608,,,,,,,,0.04629631,-0.367592662,0,0,0,,0,69,69,104,1,GITTY,LB,old,z,./images/GITTYLB.png,,,,,,,,,,,,,,,,,,,,,,,
,,,,,,,,,,,,,,,,,198712,19,2022-01-28_22h23.39.141,lexical_decision_task_DD_L3,2021.2.3,Win32,119.4172439,,,,,,,,,,,0.6505,1,,,,,,,,,,,,,,z,1,0.6505,,,,,,,,0.04629631,-0.367592662,0,0,0,,0,70,70,153,1,CLUPS,C,old,z,./images/CLUPS.png,,,,,,,,,,,,,,,,,,,,,,,
,,,,,,,,,,,,,,,,,198712,19,2022-01-28_22h23.39.141,lexical_decision_task_DD_L3,2021.2.3,Win32,119.4172439,,,,,,,,,,,0.642,1,,,,,,,,,,,,,,z,1,0.642,,,,,,,,0.04629631,-0.367592662,0,0,0,,0,71,71,150,1,NOOLS,C,old,z,./images/NOOLS.png,,,,,,,,,,,,,,,,,,,,,,,
,,,,,,,,,,,,,,,,,198712,19,2022-01-28_22h23.39.141,lexical_decision_task_DD_L3,2021.2.3,Win32,119.4172439,,,,,,,,,,,0.6956,1,,,,,,,,,,,,,,m,1,0.6956,,,,,,,,0.04629631,-0.367592662,0,0,0,,0,72,72,13,1,MOTOR,C,old,m,./images/MOTOR.png,,,,,,,,,,,,,,,,,,,,,,,
,,,,,,,,,,,,,,,,,198712,19,2022-01-28_22h23.39.141,lexical_decision_task_DD_L3,2021.2.3,Win32,119.4172439,,,,,,,,,,,1.0102,1,,,,,,,,,,,,,,m,1,1.0102,,,,,,,,0.04629631,-0.367592662,0,0,0,,0,73,73,59,1,BURIAL,HB,old,m,./images/BURIALHB.png,,,,,,,,,,,,,,,,,,,,,,,
,,,,,,,,,,,,,,,,,198712,19,2022-01-28_22h23.39.141,lexical_decision_task_DD_L3,2021.2.3,Win32,119.4172439,,,,,,,,,,,1.0823,0,,,,,,,,,,,,,,z,0,1.0823,,,,,,,,0.04629631,-0.367592662,0,0,0,,0,74,74,8,1,TULIP,HB,old,m,./images/TULIPHB.png,,,,,,,,,,,,,,,,,,,,,,,
,,,,,,,,,,,,,,,,,198712,19,2022-01-28_22h23.39.141,lexical_decision_task_DD_L3,2021.2.3,Win32,119.4172439,,,,,,,,,,,1.3004,1,,,,,,,,,,,,,,z,1,1.3004,,,,,,,,0.04629631,-0.367592662,0,0,0,,0,75,75,85,1,CHULK,HB,old,z,./images/CHULKHB.png,,,,,,,,,,,,,,,,,,,,,,,
,,,,,,,,,,,,,,,,,198712,19,2022-01-28_22h23.39.141,lexical_decision_task_DD_L3,2021.2.3,Win32,119.4172439,,,,,,,,,,,0.9828,1,,,,,,,,,,,,,,z,1,0.9828,,,,,,,,0.04629631,-0.367592662,0,0,0,,0,76,76,112,1,MYING,HB,old,z,./images/MYINGHB.png,,,,,,,,,,,,,,,,,,,,,,,
,,,,,,,,,,,,,,,,,198712,19,2022-01-28_22h23.39.141,lexical_decision_task_DD_L3,2021.2.3,Win32,119.4172439,,,,,,,,,,,0.7177,1,,,,,,,,,,,,,,z,1,0.7177,,,,,,,,0.04629631,-0.367592662,0,0,0,,0,77,77,113,1,LINEW,LB,old,z,./images/LINEWLB.png,,,,,,,,,,,,,,,,,,,,,,,
,,,,,,,,,,,,,,,,,198712,19,2022-01-28_22h23.39.141,lexical_decision_task_DD_L3,2021.2.3,Win32,119.4172439,,,,,,,,,,,1.0162,1,,,,,,,,,,,,,,m,1,1.0162,,,,,,,,0.04629631,-0.367592662,0,0,0,,0,78,78,43,1,MOSQUE,C,old,m,./images/MOSQUE.png,,,,,,,,,,,,,,,,,,,,,,,
,,,,,,,,,,,,,,,,,198712,19,2022-01-28_22h23.39.141,lexical_decision_task_DD_L3,2021.2.3,Win32,119.4172439,,,,,,,,,,,0.7091,1,,,,,,,,,,,,,,z,1,0.7091,,,,,,,,0.04629631,-0.367592662,0,0,0,,0,79,79,161,1,BLAPS,LB,old,z,./images/BLAPSLB.png,,,,,,,,,,,,,,,,,,,,,,,
,,,,,,,,,,,,,,,,,198712,19,2022-01-28_22h23.39.141,lexical_decision_task_DD_L3,2021.2.3,Win32,119.4172439,,,,,,,,,,,0.8229,1,,,,,,,,,,,,,,z,1,0.8229,,,,,,,,0.04629631,-0.367592662,0,0,0,,0,80,80,123,1,SEDGE,C,old,z,./images/SEDGE.png,,,,,,,,,,,,,,,,,,,,,,,
,,,,,,,,,,,,,,,,,198712,19,2022-01-28_22h23.39.141,lexical_decision_task_DD_L3,2021.2.3,Win32,119.4172439,,,,,,,,,,,0.6486,1,,,,,,,,,,,,,,z,1,0.6486,,,,,,,,0.04629631,-0.367592662,0,0,0,,0,81,81,108,1,GRUET,C,old,z,./images/GRUET.png,,,,,,,,,,,,,,,,,,,,,,,
,,,,,,,,,,,,,,,,,198712,19,2022-01-28_22h23.39.141,lexical_decision_task_DD_L3,2021.2.3,Win32,119.4172439,,,,,,,,,,,0.6252,1,,,,,,,,,,,,,,m,1,0.6252,,,,,,,,0.04629631,-0.367592662,0,0,0,,0,82,82,4,1,MUSCLE,C,old,m,./images/MUSCLE.png,,,,,,,,,,,,,,,,,,,,,,,
,,,,,,,,,,,,,,,,,198712,19,2022-01-28_22h23.39.141,lexical_decision_task_DD_L3,2021.2.3,Win32,119.4172439,,,,,,,,,,,1.1505,1,,,,,,,,,,,,,,z,1,1.1505,,,,,,,,0.04629631,-0.372222292,1,0,0,,0,83,83,118,1,BAVEL,HB,old,z,./images/BAVELHB.png,break_done_button,,,,,,,,,,,,,,,,,,,,,,
,,,,,,,,,,,,,,,,,198712,19,2022-01-28_22h23.39.141,lexical_decision_task_DD_L3,2021.2.3,Win32,119.4172439,,,,,,,,,,,0.6173,1,,,,,,,,,,,,,,m,1,0.6173,,,,,,,,0.04629631,-0.372222292,0,0,0,,0,84,84,25,1,WRIST,C,old,m,./images/WRIST.png,,,,,,,,,,,,,,,,,,,,,,,
,,,,,,,,,,,,,,,,,198712,19,2022-01-28_22h23.39.141,lexical_decision_task_DD_L3,2021.2.3,Win32,119.4172439,,,,,,,,,,,0.861,1,,,,,,,,,,,,,,z,1,0.861,,,,,,,,0.04629631,-0.372222292,0,0,0,,0,85,85,135,1,JOODY,C,old,z,./images/JOODY.png,,,,,,,,,,,,,,,,,,,,,,,
,,,,,,,,,,,,,,,,,198712,19,2022-01-28_22h23.39.141,lexical_decision_task_DD_L3,2021.2.3,Win32,119.4172439,,,,,,,,,,,0.736,1,,,,,,,,,,,,,,m,1,0.736,,,,,,,,0.04629631,-0.372222292,0,0,0,,0,86,86,35,1,PEACH,HB,old,m,./images/PEACHHB.png,,,,,,,,,,,,,,,,,,,,,,,
,,,,,,,,,,,,,,,,,198712,19,2022-01-28_22h23.39.141,lexical_decision_task_DD_L3,2021.2.3,Win32,119.4172439,,,,,,,,,,,0.6325,1,,,,,,,,,,,,,,z,1,0.6325,,,,,,,,0.04629631,-0.372222292,0,0,0,,0,87,87,129,1,PRANS,C,old,z,./images/PRANS.png,,,,,,,,,,,,,,,,,,,,,,,
,,,,,,,,,,,,,,,,,198712,19,2022-01-28_22h23.39.141,lexical_decision_task_DD_L3,2021.2.3,Win32,119.4172439,,,,,,,,,,,1.0171,1,,,,,,,,,,,,,,z,1,1.0171,,,,,,,,0.04629631,-0.372222292,0,0,0,,0,88,88,94,1,BLANS,HB,old,z,./images/BLANSHB.png,,,,,,,,,,,,,,,,,,,,,,,
,,,,,,,,,,,,,,,,,198712,19,2022-01-28_22h23.39.141,lexical_decision_task_DD_L3,2021.2.3,Win32,119.4172439,,,,,,,,,,,0.8496,1,,,,,,,,,,,,,,m,1,0.8496,,,,,,,,0.04629631,-0.372222292,0,0,0,,0,89,89,29,1,CRUMB,HB,old,m,./images/CRUMBHB.png,,,,,,,,,,,,,,,,,,,,,,,
,,,,,,,,,,,,,,,,,198712,19,2022-01-28_22h23.39.141,lexical_decision_task_DD_L3,2021.2.3,Win32,119.4172439,,,,,,,,,,,0.6689,1,,,,,,,,,,,,,,z,1,0.6689,,,,,,,,0.04629631,-0.372222292,0,0,0,,0,90,90,93,1,SMONE,C,old,z,./images/SMONE.png,,,,,,,,,,,,,,,,,,,,,,,
,,,,,,,,,,,,,,,,,198712,19,2022-01-28_22h23.39.141,lexical_decision_task_DD_L3,2021.2.3,Win32,119.4172439,,,,,,,,,,,0.6633,1,,,,,,,,,,,,,,m,1,0.6633,,,,,,,,0.04629631,-0.372222292,0,0,0,,0,91,91,12,1,SHORE,LB,old,m,./images/SHORELB.png,,,,,,,,,,,,,,,,,,,,,,,
,,,,,,,,,,,,,,,,,198712,19,2022-01-28_22h23.39.141,lexical_decision_task_DD_L3,2021.2.3,Win32,119.4172439,,,,,,,,,,,0.7088,1,,,,,,,,,,,,,,m,1,0.7088,,,,,,,,0.04629631,-0.372222292,0,0,0,,0,92,92,27,1,ATTIC,LB,old,m,./images/ATTICLB.png,,,,,,,,,,,,,,,,,,,,,,,
,,,,,,,,,,,,,,,,,198712,19,2022-01-28_22h23.39.141,lexical_decision_task_DD_L3,2021.2.3,Win32,119.4172439,,,,,,,,,,,0.5757,1,,,,,,,,,,,,,,z,1,0.5757,,,,,,,,0.04629631,-0.372222292,0,0,0,,0,93,93,147,1,ZOLES,C,old,z,./images/ZOLES.png,,,,,,,,,,,,,,,,,,,,,,,
,,,,,,,,,,,,,,,,,198712,19,2022-01-28_22h23.39.141,lexical_decision_task_DD_L3,2021.2.3,Win32,119.4172439,,,,,,,,,,,0.942,0,,,,,,,,,,,,,,z,0,0.942,,,,,,,,0.04629631,-0.372222292,0,0,0,,0,94,94,47,1,BERRY,HB,old,m,./images/BERRYHB.png,,,,,,,,,,,,,,,,,,,,,,,
,,,,,,,,,,,,,,,,,198712,19,2022-01-28_22h23.39.141,lexical_decision_task_DD_L3,2021.2.3,Win32,119.4172439,,,,,,,,,,,0.5582,1,,,,,,,,,,,,,,m,1,0.5582,,,,,,,,0.04629631,-0.372222292,0,0,0,,0,95,95,57,1,MOOSE,LB,old,m,./images/MOOSELB.png,,,,,,,,,,,,,,,,,,,,,,,
,,,,,,,,,,,,,,,,,198712,19,2022-01-28_22h23.39.141,lexical_decision_task_DD_L3,2021.2.3,Win32,119.4172439,,,,,,,,,,,0.9775,1,,,,,,,,,,,,,,m,1,0.9775,,,,,,,,0.04629631,-0.372222292,0,0,0,,0,96,96,31,1,QUILL,C,old,m,./images/QUILL.png,,,,,,,,,,,,,,,,,,,,,,,
,,,,,,,,,,,,,,,,,198712,19,2022-01-28_22h23.39.141,lexical_decision_task_DD_L3,2021.2.3,Win32,119.4172439,,,,,,,,,,,0.9268,0,,,,,,,,,,,,,,z,0,0.9268,,,,,,,,0.04629631,-0.372222292,0,0,0,,0,97,97,16,1,PENCE,C,old,m,./images/PENCE.png,,,,,,,,,,,,,,,,,,,,,,,
,,,,,,,,,,,,,,,,,198712,19,2022-01-28_22h23.39.141,lexical_decision_task_DD_L3,2021.2.3,Win32,119.4172439,,,,,,,,,,,0.6858,1,,,,,,,,,,,,,,m,1,0.6858,,,,,,,,0.04629631,-0.372222292,0,0,0,,0,98,98,38,1,LADDER,HB,old,m,./images/LADDERHB.png,,,,,,,,,,,,,,,,,,,,,,,
,,,,,,,,,,,,,,,,,198712,19,2022-01-28_22h23.39.141,lexical_decision_task_DD_L3,2021.2.3,Win32,119.4172439,,,,,,,,,,,0.742,1,,,,,,,,,,,,,,m,1,0.742,,,,,,,,0.04629631,-0.372222292,0,0,0,,0,99,99,70,1,URINE,C,old,m,./images/URINE.png,,,,,,,,,,,,,,,,,,,,,,,
,,,,,,,,,,,,,,,,,198712,19,2022-01-28_22h23.39.141,lexical_decision_task_DD_L3,2021.2.3,Win32,119.4172439,,,,,,,,,,,0.7256,1,,,,,,,,,,,,,,z,1,0.7256,,,,,,,,0.04629631,-0.372222292,0,0,0,,0,100,100,151,1,TINKY,HB,old,z,./images/TINKYHB.png,,,,,,,,,,,,,,,,,,,,,,,
,,,,,,,,,,,,,,,,,198712,19,2022-01-28_22h23.39.141,lexical_decision_task_DD_L3,2021.2.3,Win32,119.4172439,,,,,,,,,,,0.8264,1,,,,,,,,,,,,,,z,1,0.8264,,,,,,,,0.04629631,-0.372222292,0,0,0,,0,101,101,103,1,FLORT,HB,old,z,./images/FLORTHB.png,,,,,,,,,,,,,,,,,,,,,,,
,,,,,,,,,,,,,,,,,198712,19,2022-01-28_22h23.39.141,lexical_decision_task_DD_L3,2021.2.3,Win32,119.4172439,,,,,,,,,,,0.6446,1,,,,,,,,,,,,,,z,1,0.6446,,,,,,,,0.04629631,-0.372222292,0,0,0,,0,102,102,152,1,FRAIN,LB,old,z,./images/FRAINLB.png,,,,,,,,,,,,,,,,,,,,,,,
,,,,,,,,,,,,,,,,,198712,19,2022-01-28_22h23.39.141,lexical_decision_task_DD_L3,2021.2.3,Win32,119.4172439,,,,,,,,,,,0.6503,1,,,,,,,,,,,,,,m,1,0.6503,,,,,,,,0.04629631,-0.372222292,0,0,0,,0,103,103,34,1,CANYON,C,old,m,./images/CANYON.png,,,,,,,,,,,,,,,,,,,,,,,
,,,,,,,,,,,,,,,,,198712,19,2022-01-28_22h23.39.141,lexical_decision_task_DD_L3,2021.2.3,Win32,119.4172439,,,,,,,,,,,0.6616,1,,,,,,,,,,,,,,m,1,0.6616,,,,,,,,0.04629631,-0.372222292,0,0,0,,0,104,104,36,1,THROAT,LB,old,m,./images/THROATLB.png,,,,,,,,,,,,,,,,,,,,,,,
,,,,,,,,,,,,,,,,,198712,19,2022-01-28_22h23.39.141,lexical_decision_task_DD_L3,2021.2.3,Win32,119.4172439,,,,,,,,,,,0.6173,1,,,,,,,,,,,,,,m,1,0.6173,,,,,,,,0.04629631,-0.372222292,0,0,0,,0,105,105,77,1,COUCH,HB,old,m,./images/COUCHHB.png,,,,,,,,,,,,,,,,,,,,,,,
,,,,,,,,,,,,,,,,,198712,19,2022-01-28_22h23.39.141,lexical_decision_task_DD_L3,2021.2.3,Win32,119.4172439,,,,,,,,,,,0.7116,1,,,,,,,,,,,,,,z,1,0.7116,,,,,,,,0.04629631,-0.372222292,0,0,0,,0,106,106,87,1,TRING,C,old,z,./images/TRING.png,,,,,,,,,,,,,,,,,,,,,,,
,,,,,,,,,,,,,,,,,198712,19,2022-01-28_22h23.39.141,lexical_decision_task_DD_L3,2021.2.3,Win32,119.4172439,,,,,,,,,,,0.584,1,,,,,,,,,,,,,,z,1,0.584,,,,,,,,0.04629631,-0.372222292,0,0,0,,0,107,107,138,1,PLICE,C,old,z,./images/PLICE.png,,,,,,,,,,,,,,,,,,,,,,,
,,,,,,,,,,,,,,,,,198712,19,2022-01-28_22h23.39.141,lexical_decision_task_DD_L3,2021.2.3,Win32,119.4172439,,,,,,,,,,,1.1173,1,,,,,,,,,,,,,,m,1,1.1173,,,,,,,,0.04629631,-0.372222292,0,0,0,,0,108,108,74,1,CEMENT,HB,old,m,./images/CEMENTHB.png,,,,,,,,,,,,,,,,,,,,,,,
,,,,,,,,,,,,,,,,,198712,19,2022-01-28_22h23.39.141,lexical_decision_task_DD_L3,2021.2.3,Win32,119.4172439,,,,,,,,,,,0.8869,1,,,,,,,,,,,,,,z,1,0.8869,,,,,,,,0.04629631,-0.372222292,0,0,0,,0,109,109,154,1,THINT,HB,old,z,./images/THINTHB.png,,,,,,,,,,,,,,,,,,,,,,,
,,,,,,,,,,,,,,,,,198712,19,2022-01-28_22h23.39.141,lexical_decision_task_DD_L3,2021.2.3,Win32,119.4172439,,,,,,,,,,,0.866,1,,,,,,,,,,,,,,z,1,0.866,,,,,,,,0.04629631,-0.372222292,0,0,0,,0,110,110,119,1,PAFER,LB,old,z,./images/PAFERLB.png,,,,,,,,,,,,,,,,,,,,,,,
,,,,,,,,,,,,,,,,,198712,19,2022-01-28_22h23.39.141,lexical_decision_task_DD_L3,2021.2.3,Win32,119.4172439,,,,,,,,,,,0.6163,1,,,,,,,,,,,,,,m,1,0.6163,,,,,,,,0.04629631,-0.372222292,0,0,0,,0,111,111,67,1,SAILOR,C,old,m,./images/SAILOR.png,,,,,,,,,,,,,,,,,,,,,,,
,,,,,,,,,,,,,,,,,198712,19,2022-01-28_22h23.39.141,lexical_decision_task_DD_L3,2021.2.3,Win32,119.4172439,,,,,,,,,,,0.6783,1,,,,,,,,,,,,,,z,1,0.6783,,,,,,,,0.04629631,-0.372222292,0,0,0,,0,112,112,101,1,GLEET,LB,old,z,./images/GLEETLB.png,,,,,,,,,,,,,,,,,,,,,,,
,,,,,,,,,,,,,,,,,198712,19,2022-01-28_22h23.39.141,lexical_decision_task_DD_L3,2021.2.3,Win32,119.4172439,,,,,,,,,,,0.5662,1,,,,,,,,,,,,,,z,1,0.5662,,,,,,,,0.04629631,-0.372222292,0,0,0,,0,113,113,84,1,HAXES,C,old,z,./images/HAXES.png,,,,,,,,,,,,,,,,,,,,,,,
,,,,,,,,,,,,,,,,,198712,19,2022-01-28_22h23.39.141,lexical_decision_task_DD_L3,2021.2.3,Win32,119.4172439,,,,,,,,,,,0.5762,1,,,,,,,,,,,,,,m,1,0.5762,,,,,,,,0.04629631,-0.372222292,0,0,0,,0,114,114,64,1,JELLY,C,old,m,./images/JELLY.png,,,,,,,,,,,,,,,,,,,,,,,
,,,,,,,,,,,,,,,,,198712,19,2022-01-28_22h23.39.141,lexical_decision_task_DD_L3,2021.2.3,Win32,119.4172439,,,,,,,,,,,1.0087,1,,,,,,,,,,,,,,z,1,1.0087,,,,,,,,0.04629631,-0.372222292,0,0,0,,0,115,115,106,1,CLUMS,HB,old,z,./images/CLUMSHB.png,,,,,,,,,,,,,,,,,,,,,,,
,,,,,,,,,,,,,,,,,198712,19,2022-01-28_22h23.39.141,lexical_decision_task_DD_L3,2021.2.3,Win32,119.4172439,,,,,,,,,,,0.8754,1,,,,,,,,,,,,,,z,1,0.8754,,,,,,,,0.04629631,-0.372222292,0,0,0,,0,116,116,149,1,VEASE,LB,old,z,./images/VEASELB.png,,,,,,,,,,,,,,,,,,,,,,,
,,,,,,,,,,,,,,,,,198712,19,2022-01-28_22h23.39.141,lexical_decision_task_DD_L3,2021.2.3,Win32,119.4172439,,,,,,,,,,,0.6527,1,,,,,,,,,,,,,,m,1,0.6527,,,,,,,,0.04629631,-0.372222292,0,0,0,,0,117,117,63,1,MIRROR,LB,old,m,./images/MIRRORLB.png,,,,,,,,,,,,,,,,,,,,,,,
,,,,,,,,,,,,,,,,,198712,19,2022-01-28_22h23.39.141,lexical_decision_task_DD_L3,2021.2.3,Win32,119.4172439,,,,,,,,,,,0.7111,1,,,,,,,,,,,,,,z,1,0.7111,,,,,,,,0.04629631,-0.372222292,0,0,0,,0,118,118,134,1,TROSS,LB,old,z,./images/TROSSLB.png,,,,,,,,,,,,,,,,,,,,,,,
,,,,,,,,,,,,,,,,,198712,19,2022-01-28_22h23.39.141,lexical_decision_task_DD_L3,2021.2.3,Win32,119.4172439,,,,,,,,,,,0.575,1,,,,,,,,,,,,,,m,1,0.575,,,,,,,,0.04629631,-0.372222292,0,0,0,,0,119,119,45,1,KITTEN,LB,old,m,./images/KITTENLB.png,,,,,,,,,,,,,,,,,,,,,,,
,,,,,,,,,,,,,,,,,198712,19,2022-01-28_22h23.39.141,lexical_decision_task_DD_L3,2021.2.3,Win32,119.4172439,,,,,,,,,,,0.6279,1,,,,,,,,,,,,,,m,1,0.6279,,,,,,,,0.04629631,-0.372222292,0,0,0,,0,120,120,52,1,BANNER,C,old,m,./images/BANNER.png,,,,,,,,,,,,,,,,,,,,,,,
,,,,,,,,,,,,,,,,,198712,19,2022-01-28_22h23.39.141,lexical_decision_task_DD_L3,2021.2.3,Win32,119.4172439,,,,,,,,,,,0.6927,1,,,,,,,,,,,,,,z,1,0.6927,,,,,,,,0.04629631,-0.372222292,0,0,0,,0,121,121,111,1,HOSSE,C,old,z,./images/HOSSE.png,,,,,,,,,,,,,,,,,,,,,,,
,,,,,,,,,,,,,,,,,198712,19,2022-01-28_22h23.39.141,lexical_decision_task_DD_L3,2021.2.3,Win32,119.4172439,,,,,,,,,,,0.7086,1,,,,,,,,,,,,,,m,1,0.7086,,,,,,,,0.04629631,-0.372222292,0,0,0,,0,122,122,28,1,FALCON,C,old,m,./images/FALCON.png,,,,,,,,,,,,,,,,,,,,,,,
,,,,,,,,,,,,,,,,,198712,19,2022-01-28_22h23.39.141,lexical_decision_task_DD_L3,2021.2.3,Win32,119.4172439,,,,,,,,,,,0.7583,1,,,,,,,,,,,,,,m,1,0.7583,,,,,,,,0.04629631,-0.372222292,0,0,0,,0,123,123,15,1,GREASE,LB,old,m,./images/GREASELB.png,,,,,,,,,,,,,,,,,,,,,,,
,,,,,,,,,,,,,,,,,198712,19,2022-01-28_22h23.39.141,lexical_decision_task_DD_L3,2021.2.3,Win32,119.4172439,,,,,,,,,,,0.7668,1,,,,,,,,,,,,,,z,1,0.7668,,,,,,,,0.04629631,-0.372222292,0,0,0,,0,124,124,124,1,TUNCH,HB,old,z,./images/TUNCHHB.png,,,,,,,,,,,,,,,,,,,,,,,
,,,,,,,,,,,,,,,,,198712,19,2022-01-28_22h23.39.141,lexical_decision_task_DD_L3,2021.2.3,Win32,119.4172439,,,,,,,,,,,0.841,1,,,,,,,,,,,,,,z,1,0.841,,,,,,,,0.045370384,-0.372222292,1,0,0,,0,125,125,125,1,MOOKY,LB,old,z,./images/MOOKYLB.png,break_done_button,,,,,,,,,,,,,,,,,,,,,,
,,,,,,,,,,,,,,,,,198712,19,2022-01-28_22h23.39.141,lexical_decision_task_DD_L3,2021.2.3,Win32,119.4172439,,,,,,,,,,,0.5764,1,,,,,,,,,,,,,,m,1,0.5764,,,,,,,,0.045370384,-0.372222292,0,0,0,,0,126,126,55,1,MUFFIN,C,old,m,./images/MUFFIN.png,,,,,,,,,,,,,,,,,,,,,,,
,,,,,,,,,,,,,,,,,198712,19,2022-01-28_22h23.39.141,lexical_decision_task_DD_L3,2021.2.3,Win32,119.4172439,,,,,,,,,,,0.4748,1,,,,,,,,,,,,,,m,1,0.4748,,,,,,,,0.045370384,-0.372222292,0,0,0,,0,127,127,73,1,SNACK,C,old,m,./images/SNACK.png,,,,,,,,,,,,,,,,,,,,,,,
,,,,,,,,,,,,,,,,,198712,19,2022-01-28_22h23.39.141,lexical_decision_task_DD_L3,2021.2.3,Win32,119.4172439,,,,,,,,,,,0.6828,1,,,,,,,,,,,,,,m,1,0.6828,,,,,,,,0.045370384,-0.372222292,0,0,0,,0,128,128,9,1,RHINO,LB,old,m,./images/RHINOLB.png,,,,,,,,,,,,,,,,,,,,,,,
,,,,,,,,,,,,,,,,,198712,19,2022-01-28_22h23.39.141,lexical_decision_task_DD_L3,2021.2.3,Win32,119.4172439,,,,,,,,,,,0.6091,1,,,,,,,,,,,,,,z,1,0.6091,,,,,,,,0.045370384,-0.372222292,0,0,0,,0,129,129,107,1,FASKS,LB,old,z,./images/FASKSLB.png,,,,,,,,,,,,,,,,,,,,,,,
,,,,,,,,,,,,,,,,,198712,19,2022-01-28_22h23.39.141,lexical_decision_task_DD_L3,2021.2.3,Win32,119.4172439,,,,,,,,,,,0.576,1,,,,,,,,,,,,,,m,1,0.576,,,,,,,,0.045370384,-0.372222292,0,0,0,,0,130,130,30,1,STORM,LB,old,m,./images/STORMLB.png,,,,,,,,,,,,,,,,,,,,,,,
,,,,,,,,,,,,,,,,,198712,19,2022-01-28_22h23.39.141,lexical_decision_task_DD_L3,2021.2.3,Win32,119.4172439,,,,,,,,,,,0.7684,1,,,,,,,,,,,,,,z,1,0.7684,,,,,,,,0.045370384,-0.372222292,0,0,0,,0,131,131,127,1,NINDY,HB,old,z,./images/NINDYHB.png,,,,,,,,,,,,,,,,,,,,,,,
,,,,,,,,,,,,,,,,,198712,19,2022-01-28_22h23.39.141,lexical_decision_task_DD_L3,2021.2.3,Win32,119.4172439,,,,,,,,,,,0.6838,1,,,,,,,,,,,,,,m,1,0.6838,,,,,,,,0.045370384,-0.372222292,0,0,0,,0,132,132,58,1,BABOON,C,old,m,./images/BABOON.png,,,,,,,,,,,,,,,,,,,,,,,
,,,,,,,,,,,,,,,,,198712,19,2022-01-28_22h23.39.141,lexical_decision_task_DD_L3,2021.2.3,Win32,119.4172439,,,,,,,,,,,0.9671,1,,,,,,,,,,,,,,m,1,0.9671,,,,,,,,0.045370384,-0.372222292,0,0,0,,0,133,133,71,1,PIMPLE,HB,old,m,./images/PIMPLEHB.png,,,,,,,,,,,,,,,,,,,,,,,
,,,,,,,,,,,,,,,,,198712,19,2022-01-28_22h23.39.141,lexical_decision_task_DD_L3,2021.2.3,Win32,119.4172439,,,,,,,,,,,1.1499,1,,,,,,,,,,,,,,z,1,1.1499,,,,,,,,0.045370384,-0.372222292,0,0,0,,0,134,134,148,1,JOMS,HB,old,z,./images/JOMSHB.png,,,,,,,,,,,,,,,,,,,,,,,
,,,,,,,,,,,,,,,,,198712,19,2022-01-28_22h23.39.141,lexical_decision_task_DD_L3,2021.2.3,Win32,119.4172439,,,,,,,,,,,0.7251,1,,,,,,,,,,,,,,z,1,0.7251,,,,,,,,0.045370384,-0.372222292,0,0,0,,0,135,135,156,1,HIXES,C,old,z,./images/HIXES.png,,,,,,,,,,,,,,,,,,,,,,,
,,,,,,,,,,,,,,,,,198712,19,2022-01-28_22h23.39.141,lexical_decision_task_DD_L3,2021.2.3,Win32,119.4172439,,,,,,,,,,,0.6771,1,,,,,,,,,,,,,,m,1,0.6771,,,,,,,,0.045370384,-0.372222292,0,0,0,,0,136,136,60,1,TWINS,LB,old,m,./images/TWINSLB.png,,,,,,,,,,,,,,,,,,,,,,,
,,,,,,,,,,,,,,,,,198712,19,2022-01-28_22h23.39.141,lexical_decision_task_DD_L3,2021.2.3,Win32,119.4172439,,,,,,,,,,,0.7011,1,,,,,,,,,,,,,,m,1,0.7011,,,,,,,,0.045370384,-0.372222292,0,0,0,,0,137,137,49,1,DRUMS,C,old,m,./images/DRUMS.png,,,,,,,,,,,,,,,,,,,,,,,
,,,,,,,,,,,,,,,,,198712,19,2022-01-28_22h23.39.141,lexical_decision_task_DD_L3,2021.2.3,Win32,119.4172439,,,,,,,,,,,0.5482,1,,,,,,,,,,,,,,m,1,0.5482,,,,,,,,0.045370384,-0.372222292,0,0,0,,0,138,138,7,1,PAINT,C,old,m,./images/PAINT.png,,,,,,,,,,,,,,,,,,,,,,,
,,,,,,,,,,,,,,,,,198712,19,2022-01-28_22h23.39.141,lexical_decision_task_DD_L3,2021.2.3,Win32,119.4172439,,,,,,,,,,,1.0842,1,,,,,,,,,,,,,,z,1,1.0842,,,,,,,,0.045370384,-0.372222292,0,0,0,,0,139,139,139,1,BLEAR,HB,old,z,./images/BLEARHB.png,,,,,,,,,,,,,,,,,,,,,,,
,,,,,,,,,,,,,,,,,198712,19,2022-01-28_22h23.39.141,lexical_decision_task_DD_L3,2021.2.3,Win32,119.4172439,,,,,,,,,,,1.0087,1,,,,,,,,,,,,,,m,1,1.0087,,,,,,,,0.045370384,-0.372222292,0,0,0,,0,140,140,65,1,FARMER,HB,old,m,./images/FARMERHB.png,,,,,,,,,,,,,,,,,,,,,,,
,,,,,,,,,,,,,,,,,198712,19,2022-01-28_22h23.39.141,lexical_decision_task_DD_L3,2021.2.3,Win32,119.4172439,,,,,,,,,,,0.6091,1,,,,,,,,,,,,,,m,1,0.6091,,,,,,,,0.045370384,-0.372222292,0,0,0,,0,141,141,21,1,KIDNEY,LB,old,m,./images/KIDNEYLB.png,,,,,,,,,,,,,,,,,,,,,,,
,,,,,,,,,,,,,,,,,198712,19,2022-01-28_22h23.39.141,lexical_decision_task_DD_L3,2021.2.3,Win32,119.4172439,,,,,,,,,,,0.8659,1,,,,,,,,,,,,,,z,1,0.8659,,,,,,,,0.045370384,-0.372222292,0,0,0,,0,142,142,130,1,CRILL,HB,old,z,./images/CRILLHB.png,,,,,,,,,,,,,,,,,,,,,,,
,,,,,,,,,,,,,,,,,198712,19,2022-01-28_22h23.39.141,lexical_decision_task_DD_L3,2021.2.3,Win32,119.4172439,,,,,,,,,,,0.8934,1,,,,,,,,,,,,,,m,1,0.8934,,,,,,,,0.045370384,-0.372222292,0,0,0,,0,143,143,14,1,PICKLE,HB,old,m,./images/PICKLEHB.png,,,,,,,,,,,,,,,,,,,,,,,
,,,,,,,,,,,,,,,,,198712,19,2022-01-28_22h23.39.141,lexical_decision_task_DD_L3,2021.2.3,Win32,119.4172439,,,,,,,,,,,0.6003,1,,,,,,,,,,,,,,z,1,0.6003,,,,,,,,0.045370384,-0.372222292,0,0,0,,0,144,144,117,1,STEEG,C,old,z,./images/STEEG.png,,,,,,,,,,,,,,,,,,,,,,,
,,,,,,,,,,,,,,,,,198712,19,2022-01-28_22h23.39.141,lexical_decision_task_DD_L3,2021.2.3,Win32,119.4172439,,,,,,,,,,,0.6335,1,,,,,,,,,,,,,,z,1,0.6335,,,,,,,,0.045370384,-0.372222292,0,0,0,,0,145,145,86,1,AIFED,LB,old,z,./images/AIFEDLB.png,,,,,,,,,,,,,,,,,,,,,,,
,,,,,,,,,,,,,,,,,198712,19,2022-01-28_22h23.39.141,lexical_decision_task_DD_L3,2021.2.3,Win32,119.4172439,,,,,,,,,,,0.895,1,,,,,,,,,,,,,,m,1,0.895,,,,,,,,0.045370384,-0.372222292,0,0,0,,0,146,146,80,1,WEASEL,HB,old,m,./images/WEASELHB.png,,,,,,,,,,,,,,,,,,,,,,,
,,,,,,,,,,,,,,,,,198712,19,2022-01-28_22h23.39.141,lexical_decision_task_DD_L3,2021.2.3,Win32,119.4172439,,,,,,,,,,,1.0758,1,,,,,,,,,,,,,,z,1,1.0758,,,,,,,,0.045370384,-0.372222292,0,0,0,,0,147,147,88,1,GLUSH,HB,old,z,./images/GLUSHHB.png,,,,,,,,,,,,,,,,,,,,,,,
,,,,,,,,,,,,,,,,,198712,19,2022-01-28_22h23.39.141,lexical_decision_task_DD_L3,2021.2.3,Win32,119.4172439,,,,,,,,,,,0.8256,1,,,,,,,,,,,,,,z,1,0.8256,,,,,,,,0.045370384,-0.372222292,0,0,0,,0,148,148,165,1,TROWN,C,old,z,./images/TROWN.png,,,,,,,,,,,,,,,,,,,,,,,
,,,,,,,,,,,,,,,,,198712,19,2022-01-28_22h23.39.141,lexical_decision_task_DD_L3,2021.2.3,Win32,119.4172439,,,,,,,,,,,0.7751,1,,,,,,,,,,,,,,z,1,0.7751,,,,,,,,0.045370384,-0.372222292,0,0,0,,0,149,149,115,1,MAWNS,HB,old,z,./images/MAWNSHB.png,,,,,,,,,,,,,,,,,,,,,,,
,,,,,,,,,,,,,,,,,198712,19,2022-01-28_22h23.39.141,lexical_decision_task_DD_L3,2021.2.3,Win32,119.4172439,,,,,,,,,,,0.6761,1,,,,,,,,,,,,,,m,1,0.6761,,,,,,,,0.045370384,-0.372222292,0,0,0,,0,150,150,76,1,INFANT,C,old,m,./images/INFANT.png,,,,,,,,,,,,,,,,,,,,,,,
,,,,,,,,,,,,,,,,,198712,19,2022-01-28_22h23.39.141,lexical_decision_task_DD_L3,2021.2.3,Win32,119.4172439,,,,,,,,,,,0.5396,1,,,,,,,,,,,,,,m,1,0.5396,,,,,,,,0.045370384,-0.372222292,0,0,0,,0,151,151,10,1,BELLY,C,old,m,./images/BELLY.png,,,,,,,,,,,,,,,,,,,,,,,
,,,,,,,,,,,,,,,,,198712,19,2022-01-28_22h23.39.141,lexical_decision_task_DD_L3,2021.2.3,Win32,119.4172439,,,,,,,,,,,0.8311,1,,,,,,,,,,,,,,z,1,0.8311,,,,,,,,0.045370384,-0.372222292,0,0,0,,0,152,152,122,1,BLOOT,LB,old,z,./images/BLOOTLB.png,,,,,,,,,,,,,,,,,,,,,,,
,,,,,,,,,,,,,,,,,198712,19,2022-01-28_22h23.39.141,lexical_decision_task_DD_L3,2021.2.3,Win32,119.4172439,,,,,,,,,,,1.1793,1,,,,,,,,,,,,,,z,1,1.1793,,,,,,,,0.045370384,-0.372222292,0,0,0,,0,153,153,166,1,SHORY,HB,old,z,./images/SHORYHB.png,,,,,,,,,,,,,,,,,,,,,,,
,,,,,,,,,,,,,,,,,198712,19,2022-01-28_22h23.39.141,lexical_decision_task_DD_L3,2021.2.3,Win32,119.4172439,,,,,,,,,,,0.54,1,,,,,,,,,,,,,,m,1,0.54,,,,,,,,0.045370384,-0.372222292,0,0,0,,0,154,154,69,1,COOKER,LB,old,m,./images/COOKERLB.png,,,,,,,,,,,,,,,,,,,,,,,
,,,,,,,,,,,,,,,,,198712,19,2022-01-28_22h23.39.141,lexical_decision_task_DD_L3,2021.2.3,Win32,119.4172439,,,,,,,,,,,0.7719,1,,,,,,,,,,,,,,z,1,0.7719,,,,,,,,0.045370384,-0.372222292,0,0,0,,0,155,155,114,1,RIKES,C,old,z,./images/RIKES.png,,,,,,,,,,,,,,,,,,,,,,,
,,,,,,,,,,,,,,,,,198712,19,2022-01-28_22h23.39.141,lexical_decision_task_DD_L3,2021.2.3,Win32,119.4172439,,,,,,,,,,,0.7677,1,,,,,,,,,,,,,,m,1,0.7677,,,,,,,,0.045370384,-0.372222292,0,0,0,,0,156,156,79,1,CRUST,C,old,m,./images/CRUST.png,,,,,,,,,,,,,,,,,,,,,,,
,,,,,,,,,,,,,,,,,198712,19,2022-01-28_22h23.39.141,lexical_decision_task_DD_L3,2021.2.3,Win32,119.4172439,,,,,,,,,,,0.814,1,,,,,,,,,,,,,,m,1,0.814,,,,,,,,0.045370384,-0.372222292,0,0,0,,0,157,157,75,1,GRAIN,LB,old,m,./images/GRAINLB.png,,,,,,,,,,,,,,,,,,,,,,,
,,,,,,,,,,,,,,,,,198712,19,2022-01-28_22h23.39.141,lexical_decision_task_DD_L3,2021.2.3,Win32,119.4172439,,,,,,,,,,,0.7142,1,,,,,,,,,,,,,,m,1,0.7142,,,,,,,,0.045370384,-0.372222292,0,0,0,,0,158,158,1,1,PLANK,C,old,m,./images/PLANK.png,,,,,,,,,,,,,,,,,,,,,,,
,,,,,,,,,,,,,,,,,198712,19,2022-01-28_22h23.39.141,lexical_decision_task_DD_L3,2021.2.3,Win32,119.4172439,,,,,,,,,,,0.6557,1,,,,,,,,,,,,,,m,1,0.6557,,,,,,,,0.045370384,-0.372222292,0,0,0,,0,159,159,48,1,SPORT,LB,old,m,./images/SPORTLB.png,,,,,,,,,,,,,,,,,,,,,,,
,,,,,,,,,,,,,,,,,198712,19,2022-01-28_22h23.39.141,lexical_decision_task_DD_L3,2021.2.3,Win32,119.4172439,,,,,,,,,,,0.6577,1,,,,,,,,,,,,,,z,1,0.6577,,,,,,,,0.045370384,-0.372222292,0,0,0,,0,160,160,155,1,CANGY,LB,old,z,./images/CANGYLB.png,,,,,,,,,,,,,,,,,,,,,,,
,,,,,,,,,,,,,,,,,198712,19,2022-01-28_22h23.39.141,lexical_decision_task_DD_L3,2021.2.3,Win32,119.4172439,,,,,,,,,,,0.849,1,,,,,,,,,,,,,,m,1,0.849,,,,,,,,0.045370384,-0.372222292,0,0,0,,0,161,161,78,1,LITTER,LB,old,m,./images/LITTERLB.png,,,,,,,,,,,,,,,,,,,,,,,
,,,,,,,,,,,,,,,,,198712,19,2022-01-28_22h23.39.141,lexical_decision_task_DD_L3,2021.2.3,Win32,119.4172439,,,,,,,,,,,0.6749,1,,,,,,,,,,,,,,m,1,0.6749,,,,,,,,0.045370384,-0.372222292,0,0,0,,0,162,162,5,1,PASTA,HB,old,m,./images/PASTAHB.png,,,,,,,,,,,,,,,,,,,,,,,
,,,,,,,,,,,,,,,,,198712,19,2022-01-28_22h23.39.141,lexical_decision_task_DD_L3,2021.2.3,Win32,119.4172439,,,,,,,,,,,0.701,1,,,,,,,,,,,,,,z,1,0.701,,,,,,,,0.045370384,-0.372222292,0,0,0,,0,163,163,89,1,DRIEK,LB,old,z,./images/DRIEKLB.png,,,,,,,,,,,,,,,,,,,,,,,
,,,,,,,,,,,,,,,,,198712,19,2022-01-28_22h23.39.141,lexical_decision_task_DD_L3,2021.2.3,Win32,119.4172439,,,,,,,,,,,0.7002,1,,,,,,,,,,,,,,z,1,0.7002,,,,,,,,0.045370384,-0.372222292,0,0,0,,0,164,164,140,1,DOVET,LB,old,z,./images/DOVETLB.png,,,,,,,,,,,,,,,,,,,,,,,
,,,,,,,,,,,,,,,,,198712,19,2022-01-28_22h23.39.141,lexical_decision_task_DD_L3,2021.2.3,Win32,119.4172439,,,,,,,,,,,0.58,1,,,,,,,,,,,,,,m,1,0.58,,,,,,,,0.045370384,-0.372222292,0,0,0,,0,165,165,24,1,SCREW,LB,old,m,./images/SCREWLB.png,,,,,,,,,,,,,,,,,,,,,,,
,,,,,,,,,,,,,,,,,198712,19,2022-01-28_22h23.39.141,lexical_decision_task_DD_L3,2021.2.3,Win32,119.4172439,,,,,,,,,,,0.8064,1,,,,,,,,,,,,,,m,1,0.8064,,,,,,,,0.045370384,-0.372222292,0,0,0,,0,166,166,32,1,BARREL,HB,old,m,./images/BARRELHB.png,,,,,,,,,,,,,,,,,,,,,,,
,,,,,,,,,,,,,,,,,198712,19,2022-01-28_22h23.39.141,lexical_decision_task_DD_L3,2021.2.3,Win32,119.4172439,,,,,,,,,,,0.6883,1,,,,,,,,,,,,,,m,1,0.6883,,,,,,,,0.045370384,-0.372222292,0,0,0,,0,167,167,0,1,TOMATO,LB,old,m,./images/TOMATOLB.png,,,,,,,,,,,,,,,,,,,,,,,
,0.045370384,-0.372222292,1,0,0,instr_done_button,,,,,,1,test,"In the next phase you will be presented with the words from the the first phase. Your job is to decide whether you remember seeing the word or not. If you remember seeing the word press ""old"" or type ""m"". If you do not remember seeing the word press ""new"" or type ""z"". Please press the space bar or click on continue to begin. ",,,198712,19,2022-01-28_22h23.39.141,lexical_decision_task_DD_L3,2021.2.3,Win32,119.4172439,,,,,,,,,,,,,,,,,,,,,,,,,,,,,,,,,,,,,,,,,,,,,,,,,,,,,0,0,0,0,1,,,,,,,,,,,,,,,,,
,0.028703717,-0.412962977,1,0,0,instr_done_button,,,,,,1,test,"In the next phase you will be presented with the words from the the first phase. Your job is to decide whether you remember seeing the word or not. If you remember seeing the word press ""old"" or type ""m"". If you do not remember seeing the word press ""new"" or type ""z"". Please press the space bar or click on continue to begin. ",,,198712,19,2022-01-28_22h23.39.141,lexical_decision_task_DD_L3,2021.2.3,Win32,119.4172439,,,,,,,,,,,,,,,,,,,,,,,,,,,,,,,,,,,,,,,,,,,,,,,,,,,,,1,0,1,0,1,,,,,,,,,,,,,,,,,
space,-0.00833332,-0.245370381,0,0,0,,,,,,,1,test,"In the next phase you will be presented with the words from the the first phase. Your job is to decide whether you remember seeing the word or not. If you remember seeing the word press ""old"" or type ""m"". If you do not remember seeing the word press ""new"" or type ""z"". Please press the space bar or click on continue to begin. ",,,198712,19,2022-01-28_22h23.39.141,lexical_decision_task_DD_L3,2021.2.3,Win32,119.4172439,,,,,,,,,,,,,,,,,,,,,,,,,,,,,,,,,,,,,,,,,,,,,,,,,,,,,2,0,2,0,1,3.4153,,,,,,,,,,,,,,,,
,-0.030555486,-0.387962976,1,0,0,instr_done_button,,,,,,1,test,"In the next phase you will be presented with the words from the the first phase. Your job is to decide whether you remember seeing the word or not. If you remember seeing the word press ""old"" or type ""m"". If you do not remember seeing the word press ""new"" or type ""z"". Please press the space bar or click on continue to begin. ",,,198712,19,2022-01-28_22h23.39.141,lexical_decision_task_DD_L3,2021.2.3,Win32,119.4172439,,,,,,,,,,,,,,,,,,,,,,,,,,,,,,,,,,,,,,,,,,,,,,,,,,,,,3,0,3,0,1,,,,,,,,,,,,,,,,,
,-0.024999987,-0.42592594,1,0,0,instr_done_button,,,,,,1,test,"In the next phase you will be presented with the words from the the first phase. Your job is to decide whether you remember seeing the word or not. If you remember seeing the word press ""old"" or type ""m"". If you do not remember seeing the word press ""new"" or type ""z"". Please press the space bar or click on continue to begin. ",,,198712,19,2022-01-28_22h23.39.141,lexical_decision_task_DD_L3,2021.2.3,Win32,119.4172439,,,,,,,,,,,,,,,,,,,,,,,,,,,,,,,,,,,,,,,,,,,,,,,,,,,,,4,0,4,0,1,,,,,,,,,,,,,,,,,
,,,,,,,,,,,,,,,,,198712,19,2022-01-28_22h23.39.141,lexical_decision_task_DD_L3,2021.2.3,Win32,119.4172439,,,,,,,,,,,2.7861,1,,,,,,,,,,,,,,,,,,,,,,,,0.063888903,-0.198148159,0,0,0,,,,,,,MIRROR,LB,m,m,./images/MIRRORLB.png,,,,,,,,m,1,2.7861,,,,,,,,0,0,0,63,1,
,,,,,,,,,,,,,,,,,198712,19,2022-01-28_22h23.39.141,lexical_decision_task_DD_L3,2021.2.3,Win32,119.4172439,,,,,,,,,,,1.1446,0,,,,,,,,,,,,,,,,,,,,,,,,0.063888903,-0.198148159,0,0,0,,,,,,,MUSCLE,C,m,m,./images/MUSCLE.png,,,,,,,,z,0,1.1446,,,,,,,,0,1,1,4,1,
,,,,,,,,,,,,,,,,,198712,19,2022-01-28_22h23.39.141,lexical_decision_task_DD_L3,2021.2.3,Win32,119.4172439,,,,,,,,,,,1.4085,0,,,,,,,,,,,,,,,,,,,,,,,,0.063888903,-0.198148159,0,0,0,,,,,,,SWEAT,LB,m,m,./images/SWEATLB.png,,,,,,,,z,0,1.4085,,,,,,,,0,2,2,66,1,
,,,,,,,,,,,,,,,,,198712,19,2022-01-28_22h23.39.141,lexical_decision_task_DD_L3,2021.2.3,Win32,119.4172439,,,,,,,,,,,1.9012,1,,,,,,,,,,,,,,,,,,,,,,,,0.063888903,-0.198148159,0,0,0,,,,,,,GRAIN,LB,m,m,./images/GRAINLB.png,,,,,,,,m,1,1.9012,,,,,,,,0,3,3,75,1,
,,,,,,,,,,,,,,,,,198712,19,2022-01-28_22h23.39.141,lexical_decision_task_DD_L3,2021.2.3,Win32,119.4172439,,,,,,,,,,,1.6163,0,,,,,,,,,,,,,,,,,,,,,,,,0.063888903,-0.198148159,0,0,0,,,,,,,WAGON,C,z,m,./images/WAGON.png,,,,,,,,m,0,1.6163,,,,,,,,0,4,4,91,1,
,,,,,,,,,,,,,,,,,198712,19,2022-01-28_22h23.39.141,lexical_decision_task_DD_L3,2021.2.3,Win32,119.4172439,,,,,,,,,,,1.8834,0,,,,,,,,,,,,,,,,,,,,,,,,0.063888903,-0.198148159,0,0,0,,,,,,,GARDEN,C,z,m,./images/GARDEN.png,,,,,,,,m,0,1.8834,,,,,,,,0,5,5,94,1,
,,,,,,,,,,,,,,,,,198712,19,2022-01-28_22h23.39.141,lexical_decision_task_DD_L3,2021.2.3,Win32,119.4172439,,,,,,,,,,,1.1006,0,,,,,,,,,,,,,,,,,,,,,,,,0.063888903,-0.198148159,0,0,0,,,,,,,TOWEL,C,z,m,./images/TOWEL.png,,,,,,,,m,0,1.1006,,,,,,,,0,6,6,85,1,
,,,,,,,,,,,,,,,,,198712,19,2022-01-28_22h23.39.141,lexical_decision_task_DD_L3,2021.2.3,Win32,119.4172439,,,,,,,,,,,0.8751,0,,,,,,,,,,,,,,,,,,,,,,,,0.063888903,-0.198148159,0,0,0,,,,,,,DRUMS,C,m,m,./images/DRUMS.png,,,,,,,,z,0,0.8751,,,,,,,,0,7,7,49,1,
,,,,,,,,,,,,,,,,,198712,19,2022-01-28_22h23.39.141,lexical_decision_task_DD_L3,2021.2.3,Win32,119.4172439,,,,,,,,,,,0.6418,1,,,,,,,,,,,,,,,,,,,,,,,,0.063888903,-0.198148159,0,0,0,,,,,,,PASTA,HB,m,m,./images/PASTAHB.png,,,,,,,,m,1,0.6418,,,,,,,,0,8,8,5,1,
,,,,,,,,,,,,,,,,,198712,19,2022-01-28_22h23.39.141,lexical_decision_task_DD_L3,2021.2.3,Win32,119.4172439,,,,,,,,,,,2.1494,1,,,,,,,,,,,,,,,,,,,,,,,,0.063888903,-0.198148159,0,0,0,,,,,,,COOKER,LB,m,m,./images/COOKERLB.png,,,,,,,,m,1,2.1494,,,,,,,,0,9,9,69,1,
,,,,,,,,,,,,,,,,,198712,19,2022-01-28_22h23.39.141,lexical_decision_task_DD_L3,2021.2.3,Win32,119.4172439,,,,,,,,,,,1.2255,1,,,,,,,,,,,,,,,,,,,,,,,,0.063888903,-0.198148159,0,0,0,,,,,,,BRUSH,HB,z,m,./images/BRUSHHB.png,,,,,,,,z,1,1.2255,,,,,,,,0,10,10,143,1,
,,,,,,,,,,,,,,,,,198712,19,2022-01-28_22h23.39.141,lexical_decision_task_DD_L3,2021.2.3,Win32,119.4172439,,,,,,,,,,,0.8765,1,,,,,,,,,,,,,,,,,,,,,,,,0.063888903,-0.198148159,0,0,0,,,,,,,SPINE,HB,z,m,./images/SPINEHB.png,,,,,,,,z,1,0.8765,,,,,,,,0,11,11,149,1,
,,,,,,,,,,,,,,,,,198712,19,2022-01-28_22h23.39.141,lexical_decision_task_DD_L3,2021.2.3,Win32,119.4172439,,,,,,,,,,,1.1074,0,,,,,,,,,,,,,,,,,,,,,,,,0.063888903,-0.198148159,0,0,0,,,,,,,SHELF,LB,m,m,./images/SHELFLB.png,,,,,,,,z,0,1.1074,,,,,,,,0,12,12,39,1,
,,,,,,,,,,,,,,,,,198712,19,2022-01-28_22h23.39.141,lexical_decision_task_DD_L3,2021.2.3,Win32,119.4172439,,,,,,,,,,,2.1655,1,,,,,,,,,,,,,,,,,,,,,,,,0.063888903,-0.198148159,0,0,0,,,,,,,WHISKY,HB,z,m,./images/WHISKYHB.png,,,,,,,,z,1,2.1655,,,,,,,,0,13,13,167,1,
,,,,,,,,,,,,,,,,,198712,19,2022-01-28_22h23.39.141,lexical_decision_task_DD_L3,2021.2.3,Win32,119.4172439,,,,,,,,,,,1.0261,0,,,,,,,,,,,,,,,,,,,,,,,,0.063888903,-0.198148159,0,0,0,,,,,,,CANOE,C,z,m,./images/CANOE.png,,,,,,,,m,0,1.0261,,,,,,,,0,14,14,142,1,
,,,,,,,,,,,,,,,,,198712,19,2022-01-28_22h23.39.141,lexical_decision_task_DD_L3,2021.2.3,Win32,119.4172439,,,,,,,,,,,0.6417,1,,,,,,,,,,,,,,,,,,,,,,,,0.063888903,-0.198148159,0,0,0,,,,,,,BEARD,HB,m,m,./images/BEARDHB.png,,,,,,,,m,1,0.6417,,,,,,,,0,15,15,2,1,
,,,,,,,,,,,,,,,,,198712,19,2022-01-28_22h23.39.141,lexical_decision_task_DD_L3,2021.2.3,Win32,119.4172439,,,,,,,,,,,0.6919,0,,,,,,,,,,,,,,,,,,,,,,,,0.063888903,-0.198148159,0,0,0,,,,,,,CANDY,LB,z,m,./images/CANDYLB.png,,,,,,,,m,0,0.6919,,,,,,,,0,16,16,123,1,
,,,,,,,,,,,,,,,,,198712,19,2022-01-28_22h23.39.141,lexical_decision_task_DD_L3,2021.2.3,Win32,119.4172439,,,,,,,,,,,0.7849,1,,,,,,,,,,,,,,,,,,,,,,,,0.063888903,-0.198148159,0,0,0,,,,,,,BURIAL,HB,m,m,./images/BURIALHB.png,,,,,,,,m,1,0.7849,,,,,,,,0,17,17,59,1,
,,,,,,,,,,,,,,,,,198712,19,2022-01-28_22h23.39.141,lexical_decision_task_DD_L3,2021.2.3,Win32,119.4172439,,,,,,,,,,,1.2329,0,,,,,,,,,,,,,,,,,,,,,,,,0.063888903,-0.198148159,0,0,0,,,,,,,CHAIN,LB,z,m,./images/CHAINLB.png,,,,,,,,m,0,1.2329,,,,,,,,0,18,18,126,1,
,,,,,,,,,,,,,,,,,198712,19,2022-01-28_22h23.39.141,lexical_decision_task_DD_L3,2021.2.3,Win32,119.4172439,,,,,,,,,,,0.8089,1,,,,,,,,,,,,,,,,,,,,,,,,0.063888903,-0.198148159,0,0,0,,,,,,,BUNNY,C,z,m,./images/BUNNY.png,,,,,,,,z,1,0.8089,,,,,,,,0,19,19,97,1,
,,,,,,,,,,,,,,,,,198712,19,2022-01-28_22h23.39.141,lexical_decision_task_DD_L3,2021.2.3,Win32,119.4172439,,,,,,,,,,,0.9163,1,,,,,,,,,,,,,,,,,,,,,,,,0.063888903,-0.198148159,0,0,0,,,,,,,PAINT,C,m,m,./images/PAINT.png,,,,,,,,m,1,0.9163,,,,,,,,0,20,20,7,1,
,,,,,,,,,,,,,,,,,198712,19,2022-01-28_22h23.39.141,lexical_decision_task_DD_L3,2021.2.3,Win32,119.4172439,,,,,,,,,,,0.9433,1,,,,,,,,,,,,,,,,,,,,,,,,0.063888903,-0.198148159,0,0,0,,,,,,,ENGINE,HB,z,m,./images/ENGINEHB.png,,,,,,,,z,1,0.9433,,,,,,,,0,21,21,122,1,
,,,,,,,,,,,,,,,,,198712,19,2022-01-28_22h23.39.141,lexical_decision_task_DD_L3,2021.2.3,Win32,119.4172439,,,,,,,,,,,1.2749,0,,,,,,,,,,,,,,,,,,,,,,,,0.063888903,-0.198148159,0,0,0,,,,,,,CRUST,C,m,m,./images/CRUST.png,,,,,,,,z,0,1.2749,,,,,,,,0,22,22,79,1,
,,,,,,,,,,,,,,,,,198712,19,2022-01-28_22h23.39.141,lexical_decision_task_DD_L3,2021.2.3,Win32,119.4172439,,,,,,,,,,,0.8416,1,,,,,,,,,,,,,,,,,,,,,,,,0.063888903,-0.198148159,0,0,0,,,,,,,QUILL,C,m,m,./images/QUILL.png,,,,,,,,m,1,0.8416,,,,,,,,0,23,23,31,1,
,,,,,,,,,,,,,,,,,198712,19,2022-01-28_22h23.39.141,lexical_decision_task_DD_L3,2021.2.3,Win32,119.4172439,,,,,,,,,,,1.2001,1,,,,,,,,,,,,,,,,,,,,,,,,0.063888903,-0.198148159,0,0,0,,,,,,,JELLY,C,m,m,./images/JELLY.png,,,,,,,,m,1,1.2001,,,,,,,,0,24,24,64,1,
,,,,,,,,,,,,,,,,,198712,19,2022-01-28_22h23.39.141,lexical_decision_task_DD_L3,2021.2.3,Win32,119.4172439,,,,,,,,,,,1.372,0,,,,,,,,,,,,,,,,,,,,,,,,0.063888903,-0.198148159,0,0,0,,,,,,,VALLEY,HB,z,m,./images/VALLEYHB.png,,,,,,,,m,0,1.372,,,,,,,,0,25,25,152,1,
,,,,,,,,,,,,,,,,,198712,19,2022-01-28_22h23.39.141,lexical_decision_task_DD_L3,2021.2.3,Win32,119.4172439,,,,,,,,,,,1.0404,1,,,,,,,,,,,,,,,,,,,,,,,,0.063888903,-0.198148159,0,0,0,,,,,,,ATTIC,LB,m,m,./images/ATTICLB.png,,,,,,,,m,1,1.0404,,,,,,,,0,26,26,27,1,
,,,,,,,,,,,,,,,,,198712,19,2022-01-28_22h23.39.141,lexical_decision_task_DD_L3,2021.2.3,Win32,119.4172439,,,,,,,,,,,0.8624,1,,,,,,,,,,,,,,,,,,,,,,,,0.063888903,-0.198148159,0,0,0,,,,,,,RULER,C,z,m,./images/RULER.png,,,,,,,,z,1,0.8624,,,,,,,,0,27,27,163,1,
,,,,,,,,,,,,,,,,,198712,19,2022-01-28_22h23.39.141,lexical_decision_task_DD_L3,2021.2.3,Win32,119.4172439,,,,,,,,,,,0.6992,1,,,,,,,,,,,,,,,,,,,,,,,,0.063888903,-0.198148159,0,0,0,,,,,,,THROAT,LB,m,m,./images/THROATLB.png,,,,,,,,m,1,0.6992,,,,,,,,0,28,28,36,1,
,,,,,,,,,,,,,,,,,198712,19,2022-01-28_22h23.39.141,lexical_decision_task_DD_L3,2021.2.3,Win32,119.4172439,,,,,,,,,,,0.6829,1,,,,,,,,,,,,,,,,,,,,,,,,0.063888903,-0.198148159,0,0,0,,,,,,,BRIDE,C,z,m,./images/BRIDE.png,,,,,,,,z,1,0.6829,,,,,,,,0,29,29,148,1,
,,,,,,,,,,,,,,,,,198712,19,2022-01-28_22h23.39.141,lexical_decision_task_DD_L3,2021.2.3,Win32,119.4172439,,,,,,,,,,,0.9909,1,,,,,,,,,,,,,,,,,,,,,,,,0.063888903,-0.198148159,0,0,0,,,,,,,SQUARE,LB,m,m,./images/SQUARELB.png,,,,,,,,m,1,0.9909,,,,,,,,0,30,30,6,1,
,,,,,,,,,,,,,,,,,198712,19,2022-01-28_22h23.39.141,lexical_decision_task_DD_L3,2021.2.3,Win32,119.4172439,,,,,,,,,,,0.6592,0,,,,,,,,,,,,,,,,,,,,,,,,0.063888903,-0.198148159,0,0,0,,,,,,,RAZOR,C,z,m,./images/RAZOR.png,,,,,,,,m,0,0.6592,,,,,,,,0,31,31,118,1,
,,,,,,,,,,,,,,,,,198712,19,2022-01-28_22h23.39.141,lexical_decision_task_DD_L3,2021.2.3,Win32,119.4172439,,,,,,,,,,,0.5608,0,,,,,,,,,,,,,,,,,,,,,,,,0.063888903,-0.198148159,0,0,0,,,,,,,BROOM,LB,z,m,./images/BROOMLB.png,,,,,,,,m,0,0.5608,,,,,,,,0,32,32,162,1,
,,,,,,,,,,,,,,,,,198712,19,2022-01-28_22h23.39.141,lexical_decision_task_DD_L3,2021.2.3,Win32,119.4172439,,,,,,,,,,,0.8705,1,,,,,,,,,,,,,,,,,,,,,,,,0.063888903,-0.198148159,0,0,0,,,,,,,BUBBLE,HB,z,m,./images/BUBBLEHB.png,,,,,,,,z,1,0.8705,,,,,,,,0,33,33,155,1,
,,,,,,,,,,,,,,,,,198712,19,2022-01-28_22h23.39.141,lexical_decision_task_DD_L3,2021.2.3,Win32,119.4172439,,,,,,,,,,,0.6984,1,,,,,,,,,,,,,,,,,,,,,,,,0.063888903,-0.198148159,0,0,0,,,,,,,BLOKE,LB,z,m,./images/BLOKELB.png,,,,,,,,z,1,0.6984,,,,,,,,0,34,34,96,1,
,,,,,,,,,,,,,,,,,198712,19,2022-01-28_22h23.39.141,lexical_decision_task_DD_L3,2021.2.3,Win32,119.4172439,,,,,,,,,,,0.8157,1,,,,,,,,,,,,,,,,,,,,,,,,0.063888903,-0.198148159,0,0,0,,,,,,,NOOSE,LB,m,m,./images/NOOSELB.png,,,,,,,,m,1,0.8157,,,,,,,,0,35,35,72,1,
,,,,,,,,,,,,,,,,,198712,19,2022-01-28_22h23.39.141,lexical_decision_task_DD_L3,2021.2.3,Win32,119.4172439,,,,,,,,,,,0.7079,1,,,,,,,,,,,,,,,,,,,,,,,,0.063888903,-0.198148159,0,0,0,,,,,,,POODLE,LB,m,m,./images/POODLELB.png,,,,,,,,m,1,0.7079,,,,,,,,0,36,36,81,1,
,,,,,,,,,,,,,,,,,198712,19,2022-01-28_22h23.39.141,lexical_decision_task_DD_L3,2021.2.3,Win32,119.4172439,,,,,,,,,,,1.0331,0,,,,,,,,,,,,,,,,,,,,,,,,0.063888903,-0.198148159,0,0,0,,,,,,,FLASK,LB,z,m,./images/FLASKLB.png,,,,,,,,m,0,1.0331,,,,,,,,0,37,37,156,1,
,,,,,,,,,,,,,,,,,198712,19,2022-01-28_22h23.39.141,lexical_decision_task_DD_L3,2021.2.3,Win32,119.4172439,,,,,,,,,,,0.9749,1,,,,,,,,,,,,,,,,,,,,,,,,0.063888903,-0.198148159,0,0,0,,,,,,,COLLAR,LB,z,m,./images/COLLARLB.png,,,,,,,,z,1,0.9749,,,,,,,,0,38,38,99,1,
,,,,,,,,,,,,,,,,,198712,19,2022-01-28_22h23.39.141,lexical_decision_task_DD_L3,2021.2.3,Win32,119.4172439,,,,,,,,,,,0.741,0,,,,,,,,,,,,,,,,,,,,,,,,0.063888903,-0.198148159,0,0,0,,,,,,,BAMBOO,HB,z,m,./images/BAMBOOHB.png,,,,,,,,m,0,0.741,,,,,,,,0,39,39,89,1,
,,,,,,,,,,,,,,,,,198712,19,2022-01-28_22h23.39.141,lexical_decision_task_DD_L3,2021.2.3,Win32,119.4172439,,,,,,,,,,,0.8585,1,,,,,,,,,,,,,,,,,,,,,,,,0.063888903,-0.198148159,0,0,0,,,,,,,MUFFIN,C,m,m,./images/MUFFIN.png,,,,,,,,m,1,0.8585,,,,,,,,0,40,40,55,1,
,,,,,,,,,,,,,,,,,198712,19,2022-01-28_22h23.39.141,lexical_decision_task_DD_L3,2021.2.3,Win32,119.4172439,,,,,,,,,,,0.7669,1,,,,,,,,,,,,,,,,,,,,,,,,0.040740755,-0.38703705,1,0,0,,,,,,,WALNUT,LB,z,m,./images/WALNUTLB.png,break_done_button,,,,,,,z,1,0.7669,,,,,,,,0,41,41,84,1,
,,,,,,,,,,,,,,,,,198712,19,2022-01-28_22h23.39.141,lexical_decision_task_DD_L3,2021.2.3,Win32,119.4172439,,,,,,,,,,,1.6403,1,,,,,,,,,,,,,,,,,,,,,,,,0.109259274,-0.187037104,0,0,0,,,,,,,ARROW,LB,z,m,./images/ARROWLB.png,,,,,,,,z,1,1.6403,,,,,,,,0,42,42,153,1,
,,,,,,,,,,,,,,,,,198712,19,2022-01-28_22h23.39.141,lexical_decision_task_DD_L3,2021.2.3,Win32,119.4172439,,,,,,,,,,,1.3758,0,,,,,,,,,,,,,,,,,,,,,,,,0.109259274,-0.187037104,0,0,0,,,,,,,PIMPLE,HB,m,m,./images/PIMPLEHB.png,,,,,,,,z,0,1.3758,,,,,,,,0,43,43,71,1,
,,,,,,,,,,,,,,,,,198712,19,2022-01-28_22h23.39.141,lexical_decision_task_DD_L3,2021.2.3,Win32,119.4172439,,,,,,,,,,,1.1665,1,,,,,,,,,,,,,,,,,,,,,,,,0.109259274,-0.187037104,0,0,0,,,,,,,CLIFF,HB,z,m,./images/CLIFFHB.png,,,,,,,,z,1,1.1665,,,,,,,,0,44,44,92,1,
,,,,,,,,,,,,,,,,,198712,19,2022-01-28_22h23.39.141,lexical_decision_task_DD_L3,2021.2.3,Win32,119.4172439,,,,,,,,,,,1.0228,1,,,,,,,,,,,,,,,,,,,,,,,,0.109259274,-0.187037104,0,0,0,,,,,,,SLOPE,LB,z,m,./images/SLOPELB.png,,,,,,,,z,1,1.0228,,,,,,,,0,45,45,114,1,
,,,,,,,,,,,,,,,,,198712,19,2022-01-28_22h23.39.141,lexical_decision_task_DD_L3,2021.2.3,Win32,119.4172439,,,,,,,,,,,0.8075,0,,,,,,,,,,,,,,,,,,,,,,,,0.109259274,-0.187037104,0,0,0,,,,,,,FERRY,LB,z,m,./images/FERRYLB.png,,,,,,,,m,0,0.8075,,,,,,,,0,46,46,141,1,
,,,,,,,,,,,,,,,,,198712,19,2022-01-28_22h23.39.141,lexical_decision_task_DD_L3,2021.2.3,Win32,119.4172439,,,,,,,,,,,0.6578,1,,,,,,,,,,,,,,,,,,,,,,,,0.109259274,-0.187037104,0,0,0,,,,,,,MOSQUE,C,m,m,./images/MOSQUE.png,,,,,,,,m,1,0.6578,,,,,,,,0,47,47,43,1,
,,,,,,,,,,,,,,,,,198712,19,2022-01-28_22h23.39.141,lexical_decision_task_DD_L3,2021.2.3,Win32,119.4172439,,,,,,,,,,,1.35,1,,,,,,,,,,,,,,,,,,,,,,,,0.109259274,-0.187037104,0,0,0,,,,,,,WRIST,C,m,m,./images/WRIST.png,,,,,,,,m,1,1.35,,,,,,,,0,48,48,25,1,
,,,,,,,,,,,,,,,,,198712,19,2022-01-28_22h23.39.141,lexical_decision_task_DD_L3,2021.2.3,Win32,119.4172439,,,,,,,,,,,0.9413,1,,,,,,,,,,,,,,,,,,,,,,,,0.109259274,-0.187037104,0,0,0,,,,,,,DESERT,C,z,m,./images/DESERT.png,,,,,,,,z,1,0.9413,,,,,,,,0,49,49,136,1,
,,,,,,,,,,,,,,,,,198712,19,2022-01-28_22h23.39.141,lexical_decision_task_DD_L3,2021.2.3,Win32,119.4172439,,,,,,,,,,,0.7657,1,,,,,,,,,,,,,,,,,,,,,,,,0.109259274,-0.187037104,0,0,0,,,,,,,SAUCE,LB,z,m,./images/SAUCELB.png,,,,,,,,z,1,0.7657,,,,,,,,0,50,50,135,1,
,,,,,,,,,,,,,,,,,198712,19,2022-01-28_22h23.39.141,lexical_decision_task_DD_L3,2021.2.3,Win32,119.4172439,,,,,,,,,,,0.841,1,,,,,,,,,,,,,,,,,,,,,,,,0.109259274,-0.187037104,0,0,0,,,,,,,MAGGOT,LB,m,m,./images/MAGGOTLB.png,,,,,,,,m,1,0.841,,,,,,,,0,51,51,33,1,
,,,,,,,,,,,,,,,,,198712,19,2022-01-28_22h23.39.141,lexical_decision_task_DD_L3,2021.2.3,Win32,119.4172439,,,,,,,,,,,0.7367,1,,,,,,,,,,,,,,,,,,,,,,,,0.109259274,-0.187037104,0,0,0,,,,,,,SMOKER,HB,m,m,./images/SMOKERHB.png,,,,,,,,m,1,0.7367,,,,,,,,0,52,52,26,1,
,,,,,,,,,,,,,,,,,198712,19,2022-01-28_22h23.39.141,lexical_decision_task_DD_L3,2021.2.3,Win32,119.4172439,,,,,,,,,,,0.8657,1,,,,,,,,,,,,,,,,,,,,,,,,0.109259274,-0.187037104,0,0,0,,,,,,,BELLY,C,m,m,./images/BELLY.png,,,,,,,,m,1,0.8657,,,,,,,,0,53,53,10,1,
,,,,,,,,,,,,,,,,,198712,19,2022-01-28_22h23.39.141,lexical_decision_task_DD_L3,2021.2.3,Win32,119.4172439,,,,,,,,,,,0.8432,1,,,,,,,,,,,,,,,,,,,,,,,,0.109259274,-0.187037104,0,0,0,,,,,,,PACKET,HB,m,m,./images/PACKETHB.png,,,,,,,,m,1,0.8432,,,,,,,,0,54,54,56,1,
,,,,,,,,,,,,,,,,,198712,19,2022-01-28_22h23.39.141,lexical_decision_task_DD_L3,2021.2.3,Win32,119.4172439,,,,,,,,,,,0.7099,1,,,,,,,,,,,,,,,,,,,,,,,,0.109259274,-0.187037104,0,0,0,,,,,,,BABOON,C,m,m,./images/BABOON.png,,,,,,,,m,1,0.7099,,,,,,,,0,55,55,58,1,
,,,,,,,,,,,,,,,,,198712,19,2022-01-28_22h23.39.141,lexical_decision_task_DD_L3,2021.2.3,Win32,119.4172439,,,,,,,,,,,0.7723,1,,,,,,,,,,,,,,,,,,,,,,,,0.109259274,-0.187037104,0,0,0,,,,,,,BOILER,LB,z,m,./images/BOILERLB.png,,,,,,,,z,1,0.7723,,,,,,,,0,56,56,120,1,
,,,,,,,,,,,,,,,,,198712,19,2022-01-28_22h23.39.141,lexical_decision_task_DD_L3,2021.2.3,Win32,119.4172439,,,,,,,,,,,0.8572,1,,,,,,,,,,,,,,,,,,,,,,,,0.109259274,-0.187037104,0,0,0,,,,,,,STOOL,C,z,m,./images/STOOL.png,,,,,,,,z,1,0.8572,,,,,,,,0,57,57,127,1,
,,,,,,,,,,,,,,,,,198712,19,2022-01-28_22h23.39.141,lexical_decision_task_DD_L3,2021.2.3,Win32,119.4172439,,,,,,,,,,,1.0676,1,,,,,,,,,,,,,,,,,,,,,,,,0.109259274,-0.187037104,0,0,0,,,,,,,MELON,C,m,m,./images/MELON.png,,,,,,,,m,1,1.0676,,,,,,,,0,58,58,22,1,
,,,,,,,,,,,,,,,,,198712,19,2022-01-28_22h23.39.141,lexical_decision_task_DD_L3,2021.2.3,Win32,119.4172439,,,,,,,,,,,0.6998,1,,,,,,,,,,,,,,,,,,,,,,,,0.109259274,-0.187037104,0,0,0,,,,,,,JAGUAR,LB,m,m,./images/JAGUARLB.png,,,,,,,,m,1,0.6998,,,,,,,,0,59,59,18,1,
,,,,,,,,,,,,,,,,,198712,19,2022-01-28_22h23.39.141,lexical_decision_task_DD_L3,2021.2.3,Win32,119.4172439,,,,,,,,,,,0.7835,1,,,,,,,,,,,,,,,,,,,,,,,,0.109259274,-0.187037104,0,0,0,,,,,,,MEDAL,HB,z,m,./images/MEDALHB.png,,,,,,,,z,1,0.7835,,,,,,,,0,60,60,95,1,
,,,,,,,,,,,,,,,,,198712,19,2022-01-28_22h23.39.141,lexical_decision_task_DD_L3,2021.2.3,Win32,119.4172439,,,,,,,,,,,0.8414,0,,,,,,,,,,,,,,,,,,,,,,,,0.109259274,-0.187037104,0,0,0,,,,,,,MONKEY,LB,z,m,./images/MONKEYLB.png,,,,,,,,m,0,0.8414,,,,,,,,0,61,61,129,1,
,,,,,,,,,,,,,,,,,198712,19,2022-01-28_22h23.39.141,lexical_decision_task_DD_L3,2021.2.3,Win32,119.4172439,,,,,,,,,,,0.9583,1,,,,,,,,,,,,,,,,,,,,,,,,0.109259274,-0.187037104,0,0,0,,,,,,,ARTIST,C,z,m,./images/ARTIST.png,,,,,,,,z,1,0.9583,,,,,,,,0,62,62,145,1,
,,,,,,,,,,,,,,,,,198712,19,2022-01-28_22h23.39.141,lexical_decision_task_DD_L3,2021.2.3,Win32,119.4172439,,,,,,,,,,,1.0321,1,,,,,,,,,,,,,,,,,,,,,,,,0.109259274,-0.187037104,0,0,0,,,,,,,WHEEL,HB,z,m,./images/WHEELHB.png,,,,,,,,z,1,1.0321,,,,,,,,0,63,63,161,1,
,,,,,,,,,,,,,,,,,198712,19,2022-01-28_22h23.39.141,lexical_decision_task_DD_L3,2021.2.3,Win32,119.4172439,,,,,,,,,,,1.0437,1,,,,,,,,,,,,,,,,,,,,,,,,0.109259274,-0.187037104,0,0,0,,,,,,,INFANT,C,m,m,./images/INFANT.png,,,,,,,,m,1,1.0437,,,,,,,,0,64,64,76,1,
,,,,,,,,,,,,,,,,,198712,19,2022-01-28_22h23.39.141,lexical_decision_task_DD_L3,2021.2.3,Win32,119.4172439,,,,,,,,,,,1.141,1,,,,,,,,,,,,,,,,,,,,,,,,0.109259274,-0.187037104,0,0,0,,,,,,,SWING,C,m,m,./images/SWING.png,,,,,,,,m,1,1.141,,,,,,,,0,65,65,40,1,
,,,,,,,,,,,,,,,,,198712,19,2022-01-28_22h23.39.141,lexical_decision_task_DD_L3,2021.2.3,Win32,119.4172439,,,,,,,,,,,0.9587,1,,,,,,,,,,,,,,,,,,,,,,,,0.109259274,-0.187037104,0,0,0,,,,,,,CARPET,HB,m,m,./images/CARPETHB.png,,,,,,,,m,1,0.9587,,,,,,,,0,66,66,53,1,
,,,,,,,,,,,,,,,,,198712,19,2022-01-28_22h23.39.141,lexical_decision_task_DD_L3,2021.2.3,Win32,119.4172439,,,,,,,,,,,0.8254,0,,,,,,,,,,,,,,,,,,,,,,,,0.109259274,-0.187037104,0,0,0,,,,,,,STAIN,LB,z,m,./images/STAINLB.png,,,,,,,,m,0,0.8254,,,,,,,,0,67,67,90,1,
,,,,,,,,,,,,,,,,,198712,19,2022-01-28_22h23.39.141,lexical_decision_task_DD_L3,2021.2.3,Win32,119.4172439,,,,,,,,,,,0.7984,0,,,,,,,,,,,,,,,,,,,,,,,,0.109259274,-0.187037104,0,0,0,,,,,,,CHALK,C,z,m,./images/CHALK.png,,,,,,,,m,0,0.7984,,,,,,,,0,68,68,109,1,
,,,,,,,,,,,,,,,,,198712,19,2022-01-28_22h23.39.141,lexical_decision_task_DD_L3,2021.2.3,Win32,119.4172439,,,,,,,,,,,0.7935,1,,,,,,,,,,,,,,,,,,,,,,,,0.109259274,-0.187037104,0,0,0,,,,,,,TORCH,HB,m,m,./images/TORCHHB.png,,,,,,,,m,1,0.7935,,,,,,,,0,69,69,68,1,
,,,,,,,,,,,,,,,,,198712,19,2022-01-28_22h23.39.141,lexical_decision_task_DD_L3,2021.2.3,Win32,119.4172439,,,,,,,,,,,0.6748,1,,,,,,,,,,,,,,,,,,,,,,,,0.109259274,-0.187037104,0,0,0,,,,,,,GRAPE,C,z,m,./images/GRAPE.png,,,,,,,,z,1,0.6748,,,,,,,,0,70,70,100,1,
,,,,,,,,,,,,,,,,,198712,19,2022-01-28_22h23.39.141,lexical_decision_task_DD_L3,2021.2.3,Win32,119.4172439,,,,,,,,,,,0.9074,1,,,,,,,,,,,,,,,,,,,,,,,,0.109259274,-0.187037104,0,0,0,,,,,,,PARCEL,LB,z,m,./images/PARCELLB.png,,,,,,,,z,1,0.9074,,,,,,,,0,71,71,102,1,
,,,,,,,,,,,,,,,,,198712,19,2022-01-28_22h23.39.141,lexical_decision_task_DD_L3,2021.2.3,Win32,119.4172439,,,,,,,,,,,0.8346,1,,,,,,,,,,,,,,,,,,,,,,,,0.109259274,-0.187037104,0,0,0,,,,,,,MOTOR,C,m,m,./images/MOTOR.png,,,,,,,,m,1,0.8346,,,,,,,,0,72,72,13,1,
,,,,,,,,,,,,,,,,,198712,19,2022-01-28_22h23.39.141,lexical_decision_task_DD_L3,2021.2.3,Win32,119.4172439,,,,,,,,,,,0.8343,0,,,,,,,,,,,,,,,,,,,,,,,,0.109259274,-0.187037104,0,0,0,,,,,,,GRANNY,HB,z,m,./images/GRANNYHB.png,,,,,,,,m,0,0.8343,,,,,,,,0,73,73,104,1,
,,,,,,,,,,,,,,,,,198712,19,2022-01-28_22h23.39.141,lexical_decision_task_DD_L3,2021.2.3,Win32,119.4172439,,,,,,,,,,,0.7896,1,,,,,,,,,,,,,,,,,,,,,,,,0.109259274,-0.187037104,0,0,0,,,,,,,PLANK,C,m,m,./images/PLANK.png,,,,,,,,m,1,0.7896,,,,,,,,0,74,74,1,1,
,,,,,,,,,,,,,,,,,198712,19,2022-01-28_22h23.39.141,lexical_decision_task_DD_L3,2021.2.3,Win32,119.4172439,,,,,,,,,,,0.7473,0,,,,,,,,,,,,,,,,,,,,,,,,0.109259274,-0.187037104,0,0,0,,,,,,,TWINS,LB,m,m,./images/TWINSLB.png,,,,,,,,z,0,0.7473,,,,,,,,0,75,75,60,1,
,,,,,,,,,,,,,,,,,198712,19,2022-01-28_22h23.39.141,lexical_decision_task_DD_L3,2021.2.3,Win32,119.4172439,,,,,,,,,,,0.849,1,,,,,,,,,,,,,,,,,,,,,,,,0.109259274,-0.187037104,0,0,0,,,,,,,CURRY,LB,z,m,./images/CURRYLB.png,,,,,,,,z,1,0.849,,,,,,,,0,76,76,144,1,
,,,,,,,,,,,,,,,,,198712,19,2022-01-28_22h23.39.141,lexical_decision_task_DD_L3,2021.2.3,Win32,119.4172439,,,,,,,,,,,0.809,1,,,,,,,,,,,,,,,,,,,,,,,,0.109259274,-0.187037104,0,0,0,,,,,,,PICKLE,HB,m,m,./images/PICKLEHB.png,,,,,,,,m,1,0.809,,,,,,,,0,77,77,14,1,
,,,,,,,,,,,,,,,,,198712,19,2022-01-28_22h23.39.141,lexical_decision_task_DD_L3,2021.2.3,Win32,119.4172439,,,,,,,,,,,0.8584,1,,,,,,,,,,,,,,,,,,,,,,,,0.109259274,-0.187037104,0,0,0,,,,,,,DIVER,LB,z,m,./images/DIVERLB.png,,,,,,,,z,1,0.8584,,,,,,,,0,78,78,93,1,
,,,,,,,,,,,,,,,,,198712,19,2022-01-28_22h23.39.141,lexical_decision_task_DD_L3,2021.2.3,Win32,119.4172439,,,,,,,,,,,0.8485,0,,,,,,,,,,,,,,,,,,,,,,,,0.109259274,-0.187037104,0,0,0,,,,,,,HOCKEY,HB,z,m,./images/HOCKEYHB.png,,,,,,,,m,0,0.8485,,,,,,,,0,79,79,116,1,
,,,,,,,,,,,,,,,,,198712,19,2022-01-28_22h23.39.141,lexical_decision_task_DD_L3,2021.2.3,Win32,119.4172439,,,,,,,,,,,1.0514,1,,,,,,,,,,,,,,,,,,,,,,,,0.109259274,-0.187037104,0,0,0,,,,,,,BASKET,HB,z,m,./images/BASKETHB.png,,,,,,,,z,1,1.0514,,,,,,,,0,80,80,128,1,
,,,,,,,,,,,,,,,,,198712,19,2022-01-28_22h23.39.141,lexical_decision_task_DD_L3,2021.2.3,Win32,119.4172439,,,,,,,,,,,0.5635,0,,,,,,,,,,,,,,,,,,,,,,,,0.109259274,-0.187037104,0,0,0,,,,,,,LAGOON,HB,z,m,./images/LAGOONHB.png,,,,,,,,m,0,0.5635,,,,,,,,0,81,81,131,1,
,,,,,,,,,,,,,,,,,198712,19,2022-01-28_22h23.39.141,lexical_decision_task_DD_L3,2021.2.3,Win32,119.4172439,,,,,,,,,,,0.7646,1,,,,,,,,,,,,,,,,,,,,,,,,0.109259274,-0.187037104,0,0,0,,,,,,,CRUMB,HB,m,m,./images/CRUMBHB.png,,,,,,,,m,1,0.7646,,,,,,,,0,82,82,29,1,
,,,,,,,,,,,,,,,,,198712,19,2022-01-28_22h23.39.141,lexical_decision_task_DD_L3,2021.2.3,Win32,119.4172439,,,,,,,,,,,0.7572,1,,,,,,,,,,,,,,,,,,,,,,,,0.07592594,-0.381481551,1,0,0,,,,,,,DRILL,LB,z,m,./images/DRILLLB.png,break_done_button,,,,,,,z,1,0.7572,,,,,,,,0,83,83,165,1,
,,,,,,,,,,,,,,,,,198712,19,2022-01-28_22h23.39.141,lexical_decision_task_DD_L3,2021.2.3,Win32,119.4172439,,,,,,,,,,,1.017,1,,,,,,,,,,,,,,,,,,,,,,,,0.075000014,-0.381481551,0,0,0,,,,,,,PISTOL,HB,z,m,./images/PISTOLHB.png,,,,,,,,z,1,1.017,,,,,,,,0,84,84,113,1,
,,,,,,,,,,,,,,,,,198712,19,2022-01-28_22h23.39.141,lexical_decision_task_DD_L3,2021.2.3,Win32,119.4172439,,,,,,,,,,,0.6566,1,,,,,,,,,,,,,,,,,,,,,,,,0.075000014,-0.381481551,0,0,0,,,,,,,COUCH,HB,m,m,./images/COUCHHB.png,,,,,,,,m,1,0.6566,,,,,,,,0,85,85,77,1,
,,,,,,,,,,,,,,,,,198712,19,2022-01-28_22h23.39.141,lexical_decision_task_DD_L3,2021.2.3,Win32,119.4172439,,,,,,,,,,,0.8088,0,,,,,,,,,,,,,,,,,,,,,,,,0.075000014,-0.381481551,0,0,0,,,,,,,FENCE,HB,z,m,./images/FENCEHB.png,,,,,,,,m,0,0.8088,,,,,,,,0,86,86,98,1,
,,,,,,,,,,,,,,,,,198712,19,2022-01-28_22h23.39.141,lexical_decision_task_DD_L3,2021.2.3,Win32,119.4172439,,,,,,,,,,,0.7737,1,,,,,,,,,,,,,,,,,,,,,,,,0.075000014,-0.381481551,0,0,0,,,,,,,PEBBLE,C,z,m,./images/PEBBLE.png,,,,,,,,z,1,0.7737,,,,,,,,0,87,87,166,1,
,,,,,,,,,,,,,,,,,198712,19,2022-01-28_22h23.39.141,lexical_decision_task_DD_L3,2021.2.3,Win32,119.4172439,,,,,,,,,,,0.9669,0,,,,,,,,,,,,,,,,,,,,,,,,0.075000014,-0.381481551,0,0,0,,,,,,,BERRY,HB,m,m,./images/BERRYHB.png,,,,,,,,z,0,0.9669,,,,,,,,0,88,88,47,1,
,,,,,,,,,,,,,,,,,198712,19,2022-01-28_22h23.39.141,lexical_decision_task_DD_L3,2021.2.3,Win32,119.4172439,,,,,,,,,,,0.7155,1,,,,,,,,,,,,,,,,,,,,,,,,0.075000014,-0.381481551,0,0,0,,,,,,,LITTER,LB,m,m,./images/LITTERLB.png,,,,,,,,m,1,0.7155,,,,,,,,0,89,89,78,1,
,,,,,,,,,,,,,,,,,198712,19,2022-01-28_22h23.39.141,lexical_decision_task_DD_L3,2021.2.3,Win32,119.4172439,,,,,,,,,,,1.0595,1,,,,,,,,,,,,,,,,,,,,,,,,0.075000014,-0.381481551,0,0,0,,,,,,,BANANA,C,z,m,./images/BANANA.png,,,,,,,,z,1,1.0595,,,,,,,,0,90,90,154,1,
,,,,,,,,,,,,,,,,,198712,19,2022-01-28_22h23.39.141,lexical_decision_task_DD_L3,2021.2.3,Win32,119.4172439,,,,,,,,,,,0.8556,0,,,,,,,,,,,,,,,,,,,,,,,,0.075000014,-0.381481551,0,0,0,,,,,,,FOLDER,LB,m,m,./images/FOLDERLB.png,,,,,,,,z,0,0.8556,,,,,,,,0,91,91,42,1,
,,,,,,,,,,,,,,,,,198712,19,2022-01-28_22h23.39.141,lexical_decision_task_DD_L3,2021.2.3,Win32,119.4172439,,,,,,,,,,,1.4149,1,,,,,,,,,,,,,,,,,,,,,,,,0.075000014,-0.381481551,0,0,0,,,,,,,SUNSET,C,m,m,./images/SUNSET.png,,,,,,,,m,1,1.4149,,,,,,,,0,92,92,82,1,
,,,,,,,,,,,,,,,,,198712,19,2022-01-28_22h23.39.141,lexical_decision_task_DD_L3,2021.2.3,Win32,119.4172439,,,,,,,,,,,1.0197,0,,,,,,,,,,,,,,,,,,,,,,,,0.075000014,-0.381481551,0,0,0,,,,,,,BOXER,C,z,m,./images/BOXER.png,,,,,,,,m,0,1.0197,,,,,,,,0,93,93,88,1,
,,,,,,,,,,,,,,,,,198712,19,2022-01-28_22h23.39.141,lexical_decision_task_DD_L3,2021.2.3,Win32,119.4172439,,,,,,,,,,,1.1685,1,,,,,,,,,,,,,,,,,,,,,,,,0.075000014,-0.381481551,0,0,0,,,,,,,PARADE,HB,z,m,./images/PARADEHB.png,,,,,,,,z,1,1.1685,,,,,,,,0,94,94,101,1,
,,,,,,,,,,,,,,,,,198712,19,2022-01-28_22h23.39.141,lexical_decision_task_DD_L3,2021.2.3,Win32,119.4172439,,,,,,,,,,,0.6653,1,,,,,,,,,,,,,,,,,,,,,,,,0.075000014,-0.381481551,0,0,0,,,,,,,TRIPOD,LB,m,m,./images/TRIPODLB.png,,,,,,,,m,1,0.6653,,,,,,,,0,95,95,54,1,
,,,,,,,,,,,,,,,,,198712,19,2022-01-28_22h23.39.141,lexical_decision_task_DD_L3,2021.2.3,Win32,119.4172439,,,,,,,,,,,0.9044,1,,,,,,,,,,,,,,,,,,,,,,,,0.075000014,-0.381481551,0,0,0,,,,,,,SNAKE,C,z,m,./images/SNAKE.png,,,,,,,,z,1,0.9044,,,,,,,,0,96,96,124,1,
,,,,,,,,,,,,,,,,,198712,19,2022-01-28_22h23.39.141,lexical_decision_task_DD_L3,2021.2.3,Win32,119.4172439,,,,,,,,,,,1.183,1,,,,,,,,,,,,,,,,,,,,,,,,0.075000014,-0.381481551,0,0,0,,,,,,,SAILOR,C,m,m,./images/SAILOR.png,,,,,,,,m,1,1.183,,,,,,,,0,97,97,67,1,
,,,,,,,,,,,,,,,,,198712,19,2022-01-28_22h23.39.141,lexical_decision_task_DD_L3,2021.2.3,Win32,119.4172439,,,,,,,,,,,0.9169,0,,,,,,,,,,,,,,,,,,,,,,,,0.075000014,-0.381481551,0,0,0,,,,,,,KIDNEY,LB,m,m,./images/KIDNEYLB.png,,,,,,,,z,0,0.9169,,,,,,,,0,98,98,21,1,
,,,,,,,,,,,,,,,,,198712,19,2022-01-28_22h23.39.141,lexical_decision_task_DD_L3,2021.2.3,Win32,119.4172439,,,,,,,,,,,0.7582,1,,,,,,,,,,,,,,,,,,,,,,,,0.075000014,-0.381481551,0,0,0,,,,,,,CRADLE,HB,m,m,./images/CRADLEHB.png,,,,,,,,m,1,0.7582,,,,,,,,0,99,99,20,1,
,,,,,,,,,,,,,,,,,198712,19,2022-01-28_22h23.39.141,lexical_decision_task_DD_L3,2021.2.3,Win32,119.4172439,,,,,,,,,,,0.8072,1,,,,,,,,,,,,,,,,,,,,,,,,0.075000014,-0.381481551,0,0,0,,,,,,,DANCER,LB,z,m,./images/DANCERLB.png,,,,,,,,z,1,0.8072,,,,,,,,0,100,100,105,1,
,,,,,,,,,,,,,,,,,198712,19,2022-01-28_22h23.39.141,lexical_decision_task_DD_L3,2021.2.3,Win32,119.4172439,,,,,,,,,,,0.6666,1,,,,,,,,,,,,,,,,,,,,,,,,0.075000014,-0.381481551,0,0,0,,,,,,,LADDER,HB,m,m,./images/LADDERHB.png,,,,,,,,m,1,0.6666,,,,,,,,0,101,101,38,1,
,,,,,,,,,,,,,,,,,198712,19,2022-01-28_22h23.39.141,lexical_decision_task_DD_L3,2021.2.3,Win32,119.4172439,,,,,,,,,,,2.2088,0,,,,,,,,,,,,,,,,,,,,,,,,0.075000014,-0.381481551,0,0,0,,,,,,,PURSE,HB,m,m,./images/PURSEHB.png,,,,,,,,z,0,2.2088,,,,,,,,0,102,102,62,1,
,,,,,,,,,,,,,,,,,198712,19,2022-01-28_22h23.39.141,lexical_decision_task_DD_L3,2021.2.3,Win32,119.4172439,,,,,,,,,,,0.7172,0,,,,,,,,,,,,,,,,,,,,,,,,0.075000014,-0.381481551,0,0,0,,,,,,,SCREW,LB,m,m,./images/SCREWLB.png,,,,,,,,z,0,0.7172,,,,,,,,0,103,103,24,1,
,,,,,,,,,,,,,,,,,198712,19,2022-01-28_22h23.39.141,lexical_decision_task_DD_L3,2021.2.3,Win32,119.4172439,,,,,,,,,,,0.934,0,,,,,,,,,,,,,,,,,,,,,,,,0.075000014,-0.381481551,0,0,0,,,,,,,BIRTH,C,m,m,./images/BIRTH.png,,,,,,,,z,0,0.934,,,,,,,,0,104,104,37,1,
,,,,,,,,,,,,,,,,,198712,19,2022-01-28_22h23.39.141,lexical_decision_task_DD_L3,2021.2.3,Win32,119.4172439,,,,,,,,,,,1.057,1,,,,,,,,,,,,,,,,,,,,,,,,0.075000014,-0.381481551,0,0,0,,,,,,,FINGER,LB,m,m,./images/FINGERLB.png,,,,,,,,m,1,1.057,,,,,,,,0,105,105,3,1,
,,,,,,,,,,,,,,,,,198712,19,2022-01-28_22h23.39.141,lexical_decision_task_DD_L3,2021.2.3,Win32,119.4172439,,,,,,,,,,,0.8755,1,,,,,,,,,,,,,,,,,,,,,,,,0.075000014,-0.381481551,0,0,0,,,,,,,CLOTH,HB,z,m,./images/CLOTHHB.png,,,,,,,,z,1,0.8755,,,,,,,,0,106,106,107,1,
,,,,,,,,,,,,,,,,,198712,19,2022-01-28_22h23.39.141,lexical_decision_task_DD_L3,2021.2.3,Win32,119.4172439,,,,,,,,,,,1.0917,1,,,,,,,,,,,,,,,,,,,,,,,,0.075000014,-0.381481551,0,0,0,,,,,,,HEATER,HB,z,m,./images/HEATERHB.png,,,,,,,,z,1,1.0917,,,,,,,,0,107,107,140,1,
,,,,,,,,,,,,,,,,,198712,19,2022-01-28_22h23.39.141,lexical_decision_task_DD_L3,2021.2.3,Win32,119.4172439,,,,,,,,,,,0.6843,1,,,,,,,,,,,,,,,,,,,,,,,,0.075000014,-0.381481551,0,0,0,,,,,,,URINE,C,m,m,./images/URINE.png,,,,,,,,m,1,0.6843,,,,,,,,0,108,108,70,1,
,,,,,,,,,,,,,,,,,198712,19,2022-01-28_22h23.39.141,lexical_decision_task_DD_L3,2021.2.3,Win32,119.4172439,,,,,,,,,,,0.6746,1,,,,,,,,,,,,,,,,,,,,,,,,0.075000014,-0.381481551,0,0,0,,,,,,,MOOSE,LB,m,m,./images/MOOSELB.png,,,,,,,,m,1,0.6746,,,,,,,,0,109,109,57,1,
,,,,,,,,,,,,,,,,,198712,19,2022-01-28_22h23.39.141,lexical_decision_task_DD_L3,2021.2.3,Win32,119.4172439,,,,,,,,,,,0.9001,0,,,,,,,,,,,,,,,,,,,,,,,,0.075000014,-0.381481551,0,0,0,,,,,,,WALRUS,HB,m,m,./images/WALRUSHB.png,,,,,,,,z,0,0.9001,,,,,,,,0,110,110,23,1,
,,,,,,,,,,,,,,,,,198712,19,2022-01-28_22h23.39.141,lexical_decision_task_DD_L3,2021.2.3,Win32,119.4172439,,,,,,,,,,,0.7258,0,,,,,,,,,,,,,,,,,,,,,,,,0.075000014,-0.381481551,0,0,0,,,,,,,TULIP,HB,m,m,./images/TULIPHB.png,,,,,,,,z,0,0.7258,,,,,,,,0,111,111,8,1,
,,,,,,,,,,,,,,,,,198712,19,2022-01-28_22h23.39.141,lexical_decision_task_DD_L3,2021.2.3,Win32,119.4172439,,,,,,,,,,,0.6248,1,,,,,,,,,,,,,,,,,,,,,,,,0.075000014,-0.381481551,0,0,0,,,,,,,CLOUD,HB,z,m,./images/CLOUDHB.png,,,,,,,,z,1,0.6248,,,,,,,,0,112,112,110,1,
,,,,,,,,,,,,,,,,,198712,19,2022-01-28_22h23.39.141,lexical_decision_task_DD_L3,2021.2.3,Win32,119.4172439,,,,,,,,,,,0.791,0,,,,,,,,,,,,,,,,,,,,,,,,0.075000014,-0.381481551,0,0,0,,,,,,,STREAM,HB,z,m,./images/STREAMHB.png,,,,,,,,m,0,0.791,,,,,,,,0,113,113,125,1,
,,,,,,,,,,,,,,,,,198712,19,2022-01-28_22h23.39.141,lexical_decision_task_DD_L3,2021.2.3,Win32,119.4172439,,,,,,,,,,,0.6586,1,,,,,,,,,,,,,,,,,,,,,,,,0.075000014,-0.381481551,0,0,0,,,,,,,SAUNA,LB,z,m,./images/SAUNALB.png,,,,,,,,z,1,0.6586,,,,,,,,0,114,114,117,1,
,,,,,,,,,,,,,,,,,198712,19,2022-01-28_22h23.39.141,lexical_decision_task_DD_L3,2021.2.3,Win32,119.4172439,,,,,,,,,,,0.6756,1,,,,,,,,,,,,,,,,,,,,,,,,0.075000014,-0.381481551,0,0,0,,,,,,,PLANET,HB,z,m,./images/PLANETHB.png,,,,,,,,z,1,0.6756,,,,,,,,0,115,115,164,1,
,,,,,,,,,,,,,,,,,198712,19,2022-01-28_22h23.39.141,lexical_decision_task_DD_L3,2021.2.3,Win32,119.4172439,,,,,,,,,,,1.1502,0,,,,,,,,,,,,,,,,,,,,,,,,0.075000014,-0.381481551,0,0,0,,,,,,,PILOT,HB,z,m,./images/PILOTHB.png,,,,,,,,m,0,1.1502,,,,,,,,0,116,116,134,1,
,,,,,,,,,,,,,,,,,198712,19,2022-01-28_22h23.39.141,lexical_decision_task_DD_L3,2021.2.3,Win32,119.4172439,,,,,,,,,,,0.6421,1,,,,,,,,,,,,,,,,,,,,,,,,0.075000014,-0.381481551,0,0,0,,,,,,,STEAK,C,z,m,./images/STEAK.png,,,,,,,,z,1,0.6421,,,,,,,,0,117,117,115,1,
,,,,,,,,,,,,,,,,,198712,19,2022-01-28_22h23.39.141,lexical_decision_task_DD_L3,2021.2.3,Win32,119.4172439,,,,,,,,,,,0.8578,0,,,,,,,,,,,,,,,,,,,,,,,,0.075000014,-0.381481551,0,0,0,,,,,,,WEASEL,HB,m,m,./images/WEASELHB.png,,,,,,,,z,0,0.8578,,,,,,,,0,118,118,80,1,
,,,,,,,,,,,,,,,,,198712,19,2022-01-28_22h23.39.141,lexical_decision_task_DD_L3,2021.2.3,Win32,119.4172439,,,,,,,,,,,0.7832,1,,,,,,,,,,,,,,,,,,,,,,,,0.075000014,-0.381481551,0,0,0,,,,,,,LLAMA,HB,z,m,./images/LLAMAHB.png,,,,,,,,z,1,0.7832,,,,,,,,0,119,119,119,1,
,,,,,,,,,,,,,,,,,198712,19,2022-01-28_22h23.39.141,lexical_decision_task_DD_L3,2021.2.3,Win32,119.4172439,,,,,,,,,,,1.0034,0,,,,,,,,,,,,,,,,,,,,,,,,0.075000014,-0.381481551,0,0,0,,,,,,,STOVE,HB,z,m,./images/STOVEHB.png,,,,,,,,m,0,1.0034,,,,,,,,0,120,120,86,1,
,,,,,,,,,,,,,,,,,198712,19,2022-01-28_22h23.39.141,lexical_decision_task_DD_L3,2021.2.3,Win32,119.4172439,,,,,,,,,,,0.8174,1,,,,,,,,,,,,,,,,,,,,,,,,0.075000014,-0.381481551,0,0,0,,,,,,,LIZARD,HB,m,m,./images/LIZARDHB.png,,,,,,,,m,1,0.8174,,,,,,,,0,121,121,44,1,
,,,,,,,,,,,,,,,,,198712,19,2022-01-28_22h23.39.141,lexical_decision_task_DD_L3,2021.2.3,Win32,119.4172439,,,,,,,,,,,0.9085,1,,,,,,,,,,,,,,,,,,,,,,,,0.075000014,-0.381481551,0,0,0,,,,,,,CASINO,C,z,m,./images/CASINO.png,,,,,,,,z,1,0.9085,,,,,,,,0,122,122,112,1,
,,,,,,,,,,,,,,,,,198712,19,2022-01-28_22h23.39.141,lexical_decision_task_DD_L3,2021.2.3,Win32,119.4172439,,,,,,,,,,,0.7168,1,,,,,,,,,,,,,,,,,,,,,,,,0.075000014,-0.381481551,0,0,0,,,,,,,BONNET,HB,m,m,./images/BONNETHB.png,,,,,,,,m,1,0.7168,,,,,,,,0,123,123,11,1,
,,,,,,,,,,,,,,,,,198712,19,2022-01-28_22h23.39.141,lexical_decision_task_DD_L3,2021.2.3,Win32,119.4172439,,,,,,,,,,,0.6587,1,,,,,,,,,,,,,,,,,,,,,,,,0.075000014,-0.381481551,0,0,0,,,,,,,GLOVE,C,z,m,./images/GLOVE.png,,,,,,,,z,1,0.6587,,,,,,,,0,124,124,157,1,
,,,,,,,,,,,,,,,,,198712,19,2022-01-28_22h23.39.141,lexical_decision_task_DD_L3,2021.2.3,Win32,119.4172439,,,,,,,,,,,0.7925,1,,,,,,,,,,,,,,,,,,,,,,,,0.075000014,-0.381481551,0,0,0,space,,,,,,TIGER,C,z,m,./images/TIGER.png,,,,,,,,z,1,0.7925,,,,,,,,0,125,125,121,1,3.1732
,,,,,,,,,,,,,,,,,198712,19,2022-01-28_22h23.39.141,lexical_decision_task_DD_L3,2021.2.3,Win32,119.4172439,,,,,,,,,,,0.7919,1,,,,,,,,,,,,,,,,,,,,,,,,0.075000014,-0.381481551,0,0,0,,,,,,,BARREL,HB,m,m,./images/BARRELHB.png,,,,,,,,m,1,0.7919,,,,,,,,0,126,126,32,1,
,,,,,,,,,,,,,,,,,198712,19,2022-01-28_22h23.39.141,lexical_decision_task_DD_L3,2021.2.3,Win32,119.4172439,,,,,,,,,,,0.6913,1,,,,,,,,,,,,,,,,,,,,,,,,0.075000014,-0.381481551,0,0,0,,,,,,,MAMMAL,HB,z,m,./images/MAMMALHB.png,,,,,,,,z,1,0.6913,,,,,,,,0,127,127,146,1,
,,,,,,,,,,,,,,,,,198712,19,2022-01-28_22h23.39.141,lexical_decision_task_DD_L3,2021.2.3,Win32,119.4172439,,,,,,,,,,,0.6178,1,,,,,,,,,,,,,,,,,,,,,,,,0.075000014,-0.381481551,0,0,0,,,,,,,POSTER,HB,z,m,./images/POSTERHB.png,,,,,,,,z,1,0.6178,,,,,,,,0,128,128,137,1,
,,,,,,,,,,,,,,,,,198712,19,2022-01-28_22h23.39.141,lexical_decision_task_DD_L3,2021.2.3,Win32,119.4172439,,,,,,,,,,,0.7165,0,,,,,,,,,,,,,,,,,,,,,,,,0.075000014,-0.381481551,0,0,0,,,,,,,SPORT,LB,m,m,./images/SPORTLB.png,,,,,,,,z,0,0.7165,,,,,,,,0,129,129,48,1,
,,,,,,,,,,,,,,,,,198712,19,2022-01-28_22h23.39.141,lexical_decision_task_DD_L3,2021.2.3,Win32,119.4172439,,,,,,,,,,,0.6918,1,,,,,,,,,,,,,,,,,,,,,,,,0.075000014,-0.381481551,0,0,0,,,,,,,CRATER,LB,z,m,./images/CRATERLB.png,,,,,,,,z,1,0.6918,,,,,,,,0,130,130,87,1,
,,,,,,,,,,,,,,,,,198712,19,2022-01-28_22h23.39.141,lexical_decision_task_DD_L3,2021.2.3,Win32,119.4172439,,,,,,,,,,,0.7177,1,,,,,,,,,,,,,,,,,,,,,,,,0.075000014,-0.381481551,0,0,0,,,,,,,CEMENT,HB,m,m,./images/CEMENTHB.png,,,,,,,,m,1,0.7177,,,,,,,,0,131,131,74,1,
,,,,,,,,,,,,,,,,,198712,19,2022-01-28_22h23.39.141,lexical_decision_task_DD_L3,2021.2.3,Win32,119.4172439,,,,,,,,,,,0.6413,1,,,,,,,,,,,,,,,,,,,,,,,,0.075000014,-0.381481551,0,0,0,,,,,,,DOUGH,C,m,m,./images/DOUGH.png,,,,,,,,m,1,0.6413,,,,,,,,0,132,132,19,1,
,,,,,,,,,,,,,,,,,198712,19,2022-01-28_22h23.39.141,lexical_decision_task_DD_L3,2021.2.3,Win32,119.4172439,,,,,,,,,,,0.8343,1,,,,,,,,,,,,,,,,,,,,,,,,0.075000014,-0.381481551,0,0,0,,,,,,,POKER,C,z,m,./images/POKER.png,,,,,,,,z,1,0.8343,,,,,,,,0,133,133,151,1,
,,,,,,,,,,,,,,,,,198712,19,2022-01-28_22h23.39.141,lexical_decision_task_DD_L3,2021.2.3,Win32,119.4172439,,,,,,,,,,,0.9616,0,,,,,,,,,,,,,,,,,,,,,,,,0.075000014,-0.381481551,0,0,0,,,,,,,PEARL,C,m,m,./images/PEARL.png,,,,,,,,z,0,0.9616,,,,,,,,0,134,134,46,1,
,,,,,,,,,,,,,,,,,198712,19,2022-01-28_22h23.39.141,lexical_decision_task_DD_L3,2021.2.3,Win32,119.4172439,,,,,,,,,,,0.903,1,,,,,,,,,,,,,,,,,,,,,,,,0.075000014,-0.381481551,0,0,0,,,,,,,PENCE,C,m,m,./images/PENCE.png,,,,,,,,m,1,0.903,,,,,,,,0,135,135,16,1,
,,,,,,,,,,,,,,,,,198712,19,2022-01-28_22h23.39.141,lexical_decision_task_DD_L3,2021.2.3,Win32,119.4172439,,,,,,,,,,,0.826,1,,,,,,,,,,,,,,,,,,,,,,,,0.075000014,-0.381481551,0,0,0,,,,,,,BISHOP,C,z,m,./images/BISHOP.png,,,,,,,,z,1,0.826,,,,,,,,0,136,136,133,1,
,,,,,,,,,,,,,,,,,198712,19,2022-01-28_22h23.39.141,lexical_decision_task_DD_L3,2021.2.3,Win32,119.4172439,,,,,,,,,,,0.6832,0,,,,,,,,,,,,,,,,,,,,,,,,0.075000014,-0.381481551,0,0,0,,,,,,,MALLET,HB,m,m,./images/MALLETHB.png,,,,,,,,z,0,0.6832,,,,,,,,0,137,137,50,1,
,,,,,,,,,,,,,,,,,198712,19,2022-01-28_22h23.39.141,lexical_decision_task_DD_L3,2021.2.3,Win32,119.4172439,,,,,,,,,,,0.5916,0,,,,,,,,,,,,,,,,,,,,,,,,0.075000014,-0.381481551,0,0,0,,,,,,,SHORE,LB,m,m,./images/SHORELB.png,,,,,,,,z,0,0.5916,,,,,,,,0,138,138,12,1,
,,,,,,,,,,,,,,,,,198712,19,2022-01-28_22h23.39.141,lexical_decision_task_DD_L3,2021.2.3,Win32,119.4172439,,,,,,,,,,,0.6583,0,,,,,,,,,,,,,,,,,,,,,,,,0.075000014,-0.381481551,0,0,0,,,,,,,SKIING,HB,m,m,./images/SKIINGHB.png,,,,,,,,z,0,0.6583,,,,,,,,0,139,139,17,1,
,,,,,,,,,,,,,,,,,198712,19,2022-01-28_22h23.39.141,lexical_decision_task_DD_L3,2021.2.3,Win32,119.4172439,,,,,,,,,,,0.8837,1,,,,,,,,,,,,,,,,,,,,,,,,0.075000014,-0.381481551,0,0,0,,,,,,,PEACH,HB,m,m,./images/PEACHHB.png,,,,,,,,m,1,0.8837,,,,,,,,0,140,140,35,1,
,,,,,,,,,,,,,,,,,198712,19,2022-01-28_22h23.39.141,lexical_decision_task_DD_L3,2021.2.3,Win32,119.4172439,,,,,,,,,,,1.1512,1,,,,,,,,,,,,,,,,,,,,,,,,0.075000014,-0.381481551,0,0,0,,,,,,,CHERRY,LB,z,m,./images/CHERRYLB.png,,,,,,,,z,1,1.1512,,,,,,,,0,141,141,138,1,
,,,,,,,,,,,,,,,,,198712,19,2022-01-28_22h23.39.141,lexical_decision_task_DD_L3,2021.2.3,Win32,119.4172439,,,,,,,,,,,0.9868,1,,,,,,,,,,,,,,,,,,,,,,,,0.075000014,-0.381481551,0,0,0,,,,,,,RHINO,LB,m,m,./images/RHINOLB.png,,,,,,,,m,1,0.9868,,,,,,,,0,142,142,9,1,
,,,,,,,,,,,,,,,,,198712,19,2022-01-28_22h23.39.141,lexical_decision_task_DD_L3,2021.2.3,Win32,119.4172439,,,,,,,,,,,1.3004,1,,,,,,,,,,,,,,,,,,,,,,,,0.075000014,-0.381481551,0,0,0,,,,,,,GREASE,LB,m,m,./images/GREASELB.png,,,,,,,,m,1,1.3004,,,,,,,,0,143,143,15,1,
,,,,,,,,,,,,,,,,,198712,19,2022-01-28_22h23.39.141,lexical_decision_task_DD_L3,2021.2.3,Win32,119.4172439,,,,,,,,,,,0.7337,1,,,,,,,,,,,,,,,,,,,,,,,,0.075000014,-0.381481551,0,0,0,,,,,,,FLESH,LB,z,m,./images/FLESHLB.png,,,,,,,,z,1,0.7337,,,,,,,,0,144,144,108,1,
,,,,,,,,,,,,,,,,,198712,19,2022-01-28_22h23.39.141,lexical_decision_task_DD_L3,2021.2.3,Win32,119.4172439,,,,,,,,,,,0.8413,0,,,,,,,,,,,,,,,,,,,,,,,,0.075000014,-0.381481551,0,0,0,,,,,,,HAMMER,LB,z,m,./images/HAMMERLB.png,,,,,,,,m,0,0.8413,,,,,,,,0,145,145,159,1,
,,,,,,,,,,,,,,,,,198712,19,2022-01-28_22h23.39.141,lexical_decision_task_DD_L3,2021.2.3,Win32,119.4172439,,,,,,,,,,,0.759,0,,,,,,,,,,,,,,,,,,,,,,,,0.075000014,-0.381481551,0,0,0,,,,,,,BAKER,LB,z,m,./images/BAKERLB.png,,,,,,,,m,0,0.759,,,,,,,,0,146,146,147,1,
,,,,,,,,,,,,,,,,,198712,19,2022-01-28_22h23.39.141,lexical_decision_task_DD_L3,2021.2.3,Win32,119.4172439,,,,,,,,,,,1.0596,1,,,,,,,,,,,,,,,,,,,,,,,,0.075000014,-0.381481551,0,0,0,,,,,,,MUMMY,C,z,m,./images/MUMMY.png,,,,,,,,z,1,1.0596,,,,,,,,0,147,147,130,1,
,,,,,,,,,,,,,,,,,198712,19,2022-01-28_22h23.39.141,lexical_decision_task_DD_L3,2021.2.3,Win32,119.4172439,,,,,,,,,,,1.0358,1,,,,,,,,,,,,,,,,,,,,,,,,0.075000014,-0.381481551,0,0,0,,,,,,,ALLEY,C,z,m,./images/ALLEY.png,,,,,,,,z,1,1.0358,,,,,,,,0,148,148,139,1,
,,,,,,,,,,,,,,,,,198712,19,2022-01-28_22h23.39.141,lexical_decision_task_DD_L3,2021.2.3,Win32,119.4172439,,,,,,,,,,,1.2512,0,,,,,,,,,,,,,,,,,,,,,,,,0.075000014,-0.381481551,0,0,0,,,,,,,CLOWN,C,z,m,./images/CLOWN.png,,,,,,,,m,0,1.2512,,,,,,,,0,149,149,106,1,
,,,,,,,,,,,,,,,,,198712,19,2022-01-28_22h23.39.141,lexical_decision_task_DD_L3,2021.2.3,Win32,119.4172439,,,,,,,,,,,0.7835,1,,,,,,,,,,,,,,,,,,,,,,,,0.075000014,-0.381481551,0,0,0,,,,,,,JUMPER,HB,z,m,./images/JUMPERHB.png,,,,,,,,z,1,0.7835,,,,,,,,0,150,150,158,1,
,,,,,,,,,,,,,,,,,198712,19,2022-01-28_22h23.39.141,lexical_decision_task_DD_L3,2021.2.3,Win32,119.4172439,,,,,,,,,,,0.7668,1,,,,,,,,,,,,,,,,,,,,,,,,0.075000014,-0.381481551,0,0,0,,,,,,,JUNGLE,HB,m,m,./images/JUNGLEHB.png,,,,,,,,m,1,0.7668,,,,,,,,0,151,151,83,1,
,,,,,,,,,,,,,,,,,198712,19,2022-01-28_22h23.39.141,lexical_decision_task_DD_L3,2021.2.3,Win32,119.4172439,,,,,,,,,,,0.7349,1,,,,,,,,,,,,,,,,,,,,,,,,0.075000014,-0.381481551,0,0,0,,,,,,,KITTEN,LB,m,m,./images/KITTENLB.png,,,,,,,,m,1,0.7349,,,,,,,,0,152,152,45,1,
,,,,,,,,,,,,,,,,,198712,19,2022-01-28_22h23.39.141,lexical_decision_task_DD_L3,2021.2.3,Win32,119.4172439,,,,,,,,,,,0.6587,1,,,,,,,,,,,,,,,,,,,,,,,,0.075000014,-0.381481551,0,0,0,,,,,,,BANNER,C,m,m,./images/BANNER.png,,,,,,,,m,1,0.6587,,,,,,,,0,153,153,52,1,
,,,,,,,,,,,,,,,,,198712,19,2022-01-28_22h23.39.141,lexical_decision_task_DD_L3,2021.2.3,Win32,119.4172439,,,,,,,,,,,0.76,1,,,,,,,,,,,,,,,,,,,,,,,,0.075000014,-0.381481551,0,0,0,,,,,,,STATUE,LB,z,m,./images/STATUELB.png,,,,,,,,z,1,0.76,,,,,,,,0,154,154,150,1,
,,,,,,,,,,,,,,,,,198712,19,2022-01-28_22h23.39.141,lexical_decision_task_DD_L3,2021.2.3,Win32,119.4172439,,,,,,,,,,,1.1185,0,,,,,,,,,,,,,,,,,,,,,,,,0.075000014,-0.381481551,0,0,0,,,,,,,SNACK,C,m,m,./images/SNACK.png,,,,,,,,z,0,1.1185,,,,,,,,0,155,155,73,1,
,,,,,,,,,,,,,,,,,198712,19,2022-01-28_22h23.39.141,lexical_decision_task_DD_L3,2021.2.3,Win32,119.4172439,,,,,,,,,,,1.0251,1,,,,,,,,,,,,,,,,,,,,,,,,0.075000014,-0.381481551,0,0,0,,,,,,,BUTTER,LB,z,m,./images/BUTTERLB.png,,,,,,,,z,1,1.0251,,,,,,,,0,156,156,111,1,
,,,,,,,,,,,,,,,,,198712,19,2022-01-28_22h23.39.141,lexical_decision_task_DD_L3,2021.2.3,Win32,119.4172439,,,,,,,,,,,0.8582,1,,,,,,,,,,,,,,,,,,,,,,,,0.075000014,-0.381481551,0,0,0,,,,,,,DONKEY,C,z,m,./images/DONKEY.png,,,,,,,,z,1,0.8582,,,,,,,,0,157,157,103,1,
,,,,,,,,,,,,,,,,,198712,19,2022-01-28_22h23.39.141,lexical_decision_task_DD_L3,2021.2.3,Win32,119.4172439,,,,,,,,,,,0.8586,1,,,,,,,,,,,,,,,,,,,,,,,,0.075000014,-0.381481551,0,0,0,,,,,,,STRING,HB,m,m,./images/STRINGHB.png,,,,,,,,m,1,0.8586,,,,,,,,0,158,158,41,1,
,,,,,,,,,,,,,,,,,198712,19,2022-01-28_22h23.39.141,lexical_decision_task_DD_L3,2021.2.3,Win32,119.4172439,,,,,,,,,,,0.7934,1,,,,,,,,,,,,,,,,,,,,,,,,0.075000014,-0.381481551,0,0,0,,,,,,,SHIELD,LB,z,m,./images/SHIELDLB.png,,,,,,,,z,1,0.7934,,,,,,,,0,159,159,132,1,
,,,,,,,,,,,,,,,,,198712,19,2022-01-28_22h23.39.141,lexical_decision_task_DD_L3,2021.2.3,Win32,119.4172439,,,,,,,,,,,0.662,1,,,,,,,,,,,,,,,,,,,,,,,,0.075000014,-0.381481551,0,0,0,,,,,,,FARMER,HB,m,m,./images/FARMERHB.png,,,,,,,,m,1,0.662,,,,,,,,0,160,160,65,1,
,,,,,,,,,,,,,,,,,198712,19,2022-01-28_22h23.39.141,lexical_decision_task_DD_L3,2021.2.3,Win32,119.4172439,,,,,,,,,,,0.8082,0,,,,,,,,,,,,,,,,,,,,,,,,0.075000014,-0.381481551,0,0,0,,,,,,,ONION,LB,m,m,./images/ONIONLB.png,,,,,,,,z,0,0.8082,,,,,,,,0,161,161,51,1,
,,,,,,,,,,,,,,,,,198712,19,2022-01-28_22h23.39.141,lexical_decision_task_DD_L3,2021.2.3,Win32,119.4172439,,,,,,,,,,,0.7764,1,,,,,,,,,,,,,,,,,,,,,,,,0.075000014,-0.381481551,0,0,0,,,,,,,FALCON,C,m,m,./images/FALCON.png,,,,,,,,m,1,0.7764,,,,,,,,0,162,162,28,1,
,,,,,,,,,,,,,,,,,198712,19,2022-01-28_22h23.39.141,lexical_decision_task_DD_L3,2021.2.3,Win32,119.4172439,,,,,,,,,,,0.9585,0,,,,,,,,,,,,,,,,,,,,,,,,0.075000014,-0.381481551,0,0,0,,,,,,,STORM,LB,m,m,./images/STORMLB.png,,,,,,,,z,0,0.9585,,,,,,,,0,163,163,30,1,
,,,,,,,,,,,,,,,,,198712,19,2022-01-28_22h23.39.141,lexical_decision_task_DD_L3,2021.2.3,Win32,119.4172439,,,,,,,,,,,0.7083,1,,,,,,,,,,,,,,,,,,,,,,,,0.075000014,-0.381481551,0,0,0,,,,,,,CANDLE,C,m,m,./images/CANDLE.png,,,,,,,,m,1,0.7083,,,,,,,,0,164,164,61,1,
,,,,,,,,,,,,,,,,,198712,19,2022-01-28_22h23.39.141,lexical_decision_task_DD_L3,2021.2.3,Win32,119.4172439,,,,,,,,,,,0.6586,1,,,,,,,,,,,,,,,,,,,,,,,,0.075000014,-0.381481551,0,0,0,,,,,,,CANYON,C,m,m,./images/CANYON.png,,,,,,,,m,1,0.6586,,,,,,,,0,165,165,34,1,
,,,,,,,,,,,,,,,,,198712,19,2022-01-28_22h23.39.141,lexical_decision_task_DD_L3,2021.2.3,Win32,119.4172439,,,,,,,,,,,0.6242,1,,,,,,,,,,,,,,,,,,,,,,,,0.075000014,-0.381481551,0,0,0,,,,,,,TOMATO,LB,m,m,./images/TOMATOLB.png,,,,,,,,m,1,0.6242,,,,,,,,0,166,166,0,1,
,,,,,,,,,,,,,,,,,198712,19,2022-01-28_22h23.39.141,lexical_decision_task_DD_L3,2021.2.3,Win32,119.4172439,,,,,,,,,,,1.5571,1,,,,,,,,,,,,,,,,,,,,,,,,0.075000014,-0.381481551,0,0,0,,,,,,,MIDGET,C,z,m,./images/MIDGET.png,,,,,,,,z,1,1.5571,,,,,,,,0,167,167,160,1,
