key_resp.keys,instr_done_touch.x,instr_done_touch.y,instr_done_touch.leftButton,instr_done_touch.midButton,instr_done_touch.rightButton,instr_done_touch.clicked_name,instruction_pages.thisRepN,instruction_pages.thisTrialN,instruction_pages.thisN,instruction_pages.thisIndex,instruction_pages.ran,pageN,phase,instruct_text,has_image,instruct_image,participant,age,date,expName,psychopyVersion,OS,frameRate,key_resp.rt,response.keys,response.corr,response.rt,touch_resp.x,touch_resp.y,touch_resp.leftButton,touch_resp.midButton,touch_resp.rightButton,touch_resp.time,touch_resp.clicked_name,rt,corr,practrials.thisRepN,practrials.thisTrialN,practrials.thisN,practrials.thisIndex,practrials.ran,TrialID,Target,corrAns,end_of_practice_trials_pages.thisRepN,end_of_practice_trials_pages.thisTrialN,end_of_practice_trials_pages.thisN,end_of_practice_trials_pages.thisIndex,end_of_practice_trials_pages.ran,key_resp_2.keys,key_resp_2.corr,key_resp_2.rt,targ_click.x,targ_click.y,targ_click.leftButton,targ_click.midButton,targ_click.rightButton,targ_click.time,targ_click.clicked_name,break_done_touch.x,break_done_touch.y,break_done_touch.leftButton,break_done_touch.midButton,break_done_touch.rightButton,break_done_keyboard.keys,maintrials.thisRepN,maintrials.thisTrialN,maintrials.thisN,maintrials.thisIndex,maintrials.ran,string,blur,study,lex,stim_path,break_done_keyboard.rt,test_instructions.thisRepN,test_instructions.thisTrialN,test_instructions.thisN,test_instructions.thisIndex,test_instructions.ran,key_resp_3.keys,key_resp_3.corr,key_resp_3.rt,test_click.x,test_click.y,test_click.leftButton,test_click.midButton,test_click.rightButton,test_click.time,test_click.clicked_name,test_phase.thisRepN,test_phase.thisTrialN,test_phase.thisN,test_phase.thisIndex,test_phase.ran,break_done_touch.clicked_name
,0.126074354,-0.385397407,1,0,0,instr_done_button,0,0,0,0,1,1,instructions,"INSTRUCTIONS
At the start of each trial, look at the plus sign  (+) in the center of the screen.  This tells you that a trial is about to begin and where to look. Second, the plus sign will disappear and a string of letters will appear. Your task is to determine if the string of letters is a word or not. If the item is a word press the M key (on keyboard)  or touch the word button (phone/tablet).  If the item is not a word,  press the  Z key (on keyboard)  or touch the nonword button (on phone/tablet). 
Press the space bar or touch  continue.",0,,198766,18,2022-01-28_17h17.22.146,lexical_decision_task_DD_L5,2021.2.3,MacIntel,60.0024001,,,,,,,,,,,,,,,,,,,,,,,,,,,,,,,,,,,,,,,,,,,,,,,,,,,,,,,,,,,,,,,,,,,,,,,,,,
space,0.126074354,-0.385952962,0,0,0,,0,1,1,1,1,2,instructions,"If your device has a keyboard, press the 'Z' key for nonwords and the 'M' key for words.





Press the space bar or touch the button below to continue.",0,keyboard-example.gif,198766,18,2022-01-28_17h17.22.146,lexical_decision_task_DD_L5,2021.2.3,MacIntel,60.0024001,7.962,,,,,,,,,,,,,,,,,,,,,,,,,,,,,,,,,,,,,,,,,,,,,,,,,,,,,,,,,,,,,,,,,,,,,,,,,
space,0.126074354,-0.385952962,0,0,0,,0,2,2,2,1,3,instructions,"If you are using a touchscreen only device, use the buttons on the screen. Do not use the mouse.





Press the space bar or touch the button below to continue.",0,touchscreen-example.gif,198766,18,2022-01-28_17h17.22.146,lexical_decision_task_DD_L5,2021.2.3,MacIntel,60.0024001,7.1236,,,,,,,,,,,,,,,,,,,,,,,,,,,,,,,,,,,,,,,,,,,,,,,,,,,,,,,,,,,,,,,,,,,,,,,,,
space,0.126074354,-0.385952962,0,0,0,,0,3,3,3,1,4,instructions,"It is very important that you respond as quickly and accurately as possible, as each letter string will only be on the screen for two seconds. If you do not respond within this time, the message 'Too slow!' will be displayed and the experiment will progress to the next letter string. The first 20 trials will be practice trials and you will receive feedback on your answers. 

Press the space bar or touch the button below to start the practice trials.",0,,198766,18,2022-01-28_17h17.22.146,lexical_decision_task_DD_L5,2021.2.3,MacIntel,60.0024001,2.3209,,,,,,,,,,,,,,,,,,,,,,,,,,,,,,,,,,,,,,,,,,,,,,,,,,,,,,,,,,,,,,,,,,,,,,,,,
,,,,,,,,,,,,,,,,,198766,18,2022-01-28_17h17.22.146,lexical_decision_task_DD_L5,2021.2.3,MacIntel,60.0024001,,m,1,1.3358,,,,,,,,1.3358,1,0,0,0,3,1,1001,MATRIX,m,,,,,,,,,,,,,,,,,,,,,,,,,,,,,,,,,,,,,,,,,,,,,,,,,,,,,
,,,,,,,,,,,,,,,,,198766,18,2022-01-28_17h17.22.146,lexical_decision_task_DD_L5,2021.2.3,MacIntel,60.0024001,,m,1,1.4565,,,,,,,,1.4565,1,0,1,1,5,1,1001,OBTAIN,m,,,,,,,,,,,,,,,,,,,,,,,,,,,,,,,,,,,,,,,,,,,,,,,,,,,,,
,,,,,,,,,,,,,,,,,198766,18,2022-01-28_17h17.22.146,lexical_decision_task_DD_L5,2021.2.3,MacIntel,60.0024001,,m,1,1.281,,,,,,,,1.281,1,0,2,2,1,1,1001,ADJUST,m,,,,,,,,,,,,,,,,,,,,,,,,,,,,,,,,,,,,,,,,,,,,,,,,,,,,,
,,,,,,,,,,,,,,,,,198766,18,2022-01-28_17h17.22.146,lexical_decision_task_DD_L5,2021.2.3,MacIntel,60.0024001,,m,1,0.8356,,,,,,,,0.8356,1,0,3,3,6,1,1001,ZOMBIE,m,,,,,,,,,,,,,,,,,,,,,,,,,,,,,,,,,,,,,,,,,,,,,,,,,,,,,
,,,,,,,,,,,,,,,,,198766,18,2022-01-28_17h17.22.146,lexical_decision_task_DD_L5,2021.2.3,MacIntel,60.0024001,,m,1,0.8109,,,,,,,,0.8109,1,0,4,4,2,1,1001,ALMOND,m,,,,,,,,,,,,,,,,,,,,,,,,,,,,,,,,,,,,,,,,,,,,,,,,,,,,,
,,,,,,,,,,,,,,,,,198766,18,2022-01-28_17h17.22.146,lexical_decision_task_DD_L5,2021.2.3,MacIntel,60.0024001,,m,1,0.8439,,,,,,,,0.8439,1,0,5,5,0,1,1001,UTOPIA,m,,,,,,,,,,,,,,,,,,,,,,,,,,,,,,,,,,,,,,,,,,,,,,,,,,,,,
,,,,,,,,,,,,,,,,,198766,18,2022-01-28_17h17.22.146,lexical_decision_task_DD_L5,2021.2.3,MacIntel,60.0024001,,m,1,0.6212,,,,,,,,0.6212,1,0,6,6,4,1,1001,SQUEAK,m,,,,,,,,,,,,,,,,,,,,,,,,,,,,,,,,,,,,,,,,,,,,,,,,,,,,,
,,,,,,,,,,,,,,,,,198766,18,2022-01-28_17h17.22.146,lexical_decision_task_DD_L5,2021.2.3,MacIntel,60.0024001,,z,1,0.9537,,,,,,,,0.9537,1,0,7,7,15,1,1001,WHAISE,z,,,,,,,,,,,,,,,,,,,,,,,,,,,,,,,,,,,,,,,,,,,,,,,,,,,,,
,,,,,,,,,,,,,,,,,198766,18,2022-01-28_17h17.22.146,lexical_decision_task_DD_L5,2021.2.3,MacIntel,60.0024001,,z,1,0.8746,,,,,,,,0.8746,1,0,8,8,14,1,1001,THRALE,z,,,,,,,,,,,,,,,,,,,,,,,,,,,,,,,,,,,,,,,,,,,,,,,,,,,,,
,,,,,,,,,,,,,,,,,198766,18,2022-01-28_17h17.22.146,lexical_decision_task_DD_L5,2021.2.3,MacIntel,60.0024001,,m,0,1.41,,,,,,,,1.41,0,0,9,9,9,1,1001,FARINY,z,,,,,,,,,,,,,,,,,,,,,,,,,,,,,,,,,,,,,,,,,,,,,,,,,,,,,
,,,,,,,,,,,,,,,,,198766,18,2022-01-28_17h17.22.146,lexical_decision_task_DD_L5,2021.2.3,MacIntel,60.0024001,,m,1,0.8055,,,,,,,,0.8055,1,0,10,10,7,1,1001,VOLUME,m,,,,,,,,,,,,,,,,,,,,,,,,,,,,,,,,,,,,,,,,,,,,,,,,,,,,,
,,,,,,,,,,,,,,,,,198766,18,2022-01-28_17h17.22.146,lexical_decision_task_DD_L5,2021.2.3,MacIntel,60.0024001,,z,1,0.7636,,,,,,,,0.7636,1,0,11,11,12,1,1001,SPRINY,z,,,,,,,,,,,,,,,,,,,,,,,,,,,,,,,,,,,,,,,,,,,,,,,,,,,,,
,,,,,,,,,,,,,,,,,198766,18,2022-01-28_17h17.22.146,lexical_decision_task_DD_L5,2021.2.3,MacIntel,60.0024001,,z,1,1.3472,,,,,,,,1.3472,1,0,12,12,8,1,1001,ASLERT,z,,,,,,,,,,,,,,,,,,,,,,,,,,,,,,,,,,,,,,,,,,,,,,,,,,,,,
,,,,,,,,,,,,,,,,,198766,18,2022-01-28_17h17.22.146,lexical_decision_task_DD_L5,2021.2.3,MacIntel,60.0024001,,z,1,0.8476,,,,,,,,0.8476,1,0,13,13,13,1,1001,ROUPET,z,,,,,,,,,,,,,,,,,,,,,,,,,,,,,,,,,,,,,,,,,,,,,,,,,,,,,
,,,,,,,,,,,,,,,,,198766,18,2022-01-28_17h17.22.146,lexical_decision_task_DD_L5,2021.2.3,MacIntel,60.0024001,,z,1,0.8893,,,,,,,,0.8893,1,0,14,14,11,1,1001,RASHET,z,,,,,,,,,,,,,,,,,,,,,,,,,,,,,,,,,,,,,,,,,,,,,,,,,,,,,
,,,,,,,,,,,,,,,,,198766,18,2022-01-28_17h17.22.146,lexical_decision_task_DD_L5,2021.2.3,MacIntel,60.0024001,,z,1,0.8427,,,,,,,,0.8427,1,0,15,15,10,1,1001,INLADE,z,,,,,,,,,,,,,,,,,,,,,,,,,,,,,,,,,,,,,,,,,,,,,,,,,,,,,
,0.136370985,-0.391550429,1,0,0,instr_done_button,,,,,,1,end_of_practice,"You have completed the practice trials. During the experimental trials, you will not receive feedback. 
Before you begin, please ensure that you are in a comfortable and quiet location and will not be disturbed for about 15 minutes, as we cannot use your data if you do not complete all the trials. 
 When you are ready to start the experimental trials, please press space or touch the button below.",,,198766,18,2022-01-28_17h17.22.146,lexical_decision_task_DD_L5,2021.2.3,MacIntel,60.0024001,,,,,,,,,,,,,,,,,,,,,,0,0,0,0,1,,,,,,,,,,,,,,,,,,,,,,,,,,,,,,,,,,,,,,,,,,,,,,,,
,,,,,,,,,,,,,,,,,198766,18,2022-01-28_17h17.22.146,lexical_decision_task_DD_L5,2021.2.3,MacIntel,60.0024001,,,,,,,,,,,,6.1919,1,,,,,,,,,,,,,,m,1,6.1919,,,,,,,,0.136370985,-0.391550429,0,0,0,,0,0,0,3,1,CRATER,HB,old,m,./images/CRATERHB.png,,,,,,,,,,,,,,,,,,,,,,
,,,,,,,,,,,,,,,,,198766,18,2022-01-28_17h17.22.146,lexical_decision_task_DD_L5,2021.2.3,MacIntel,60.0024001,,,,,,,,,,,,1.1262,1,,,,,,,,,,,,,,z,1,1.1262,,,,,,,,0.136370985,-0.391550429,0,0,0,,0,1,1,167,1,ZONET,LB,old,z,./images/ZONETLB.png,,,,,,,,,,,,,,,,,,,,,,
,,,,,,,,,,,,,,,,,198766,18,2022-01-28_17h17.22.146,lexical_decision_task_DD_L5,2021.2.3,MacIntel,60.0024001,,,,,,,,,,,,0.967,1,,,,,,,,,,,,,,m,1,0.967,,,,,,,,0.136370985,-0.391550429,0,0,0,,0,2,2,50,1,PILOT,C,old,m,./images/PILOT.png,,,,,,,,,,,,,,,,,,,,,,
,,,,,,,,,,,,,,,,,198766,18,2022-01-28_17h17.22.146,lexical_decision_task_DD_L5,2021.2.3,MacIntel,60.0024001,,,,,,,,,,,,1.7538,1,,,,,,,,,,,,,,z,1,1.7538,,,,,,,,0.136370985,-0.391550429,0,0,0,,0,3,3,148,1,JOMS,HB,old,z,./images/JOMSHB.png,,,,,,,,,,,,,,,,,,,,,,
,,,,,,,,,,,,,,,,,198766,18,2022-01-28_17h17.22.146,lexical_decision_task_DD_L5,2021.2.3,MacIntel,60.0024001,,,,,,,,,,,,1.841,1,,,,,,,,,,,,,,z,1,1.841,,,,,,,,0.136370985,-0.391550429,0,0,0,,0,4,4,102,1,DULLE,C,old,z,./images/DULLE.png,,,,,,,,,,,,,,,,,,,,,,
,,,,,,,,,,,,,,,,,198766,18,2022-01-28_17h17.22.146,lexical_decision_task_DD_L5,2021.2.3,MacIntel,60.0024001,,,,,,,,,,,,2.9361,0,,,,,,,,,,,,,,m,0,2.9361,,,,,,,,0.136370985,-0.391550429,0,0,0,,0,5,5,163,1,GAMBA,HB,old,z,./images/GAMBAHB.png,,,,,,,,,,,,,,,,,,,,,,
,,,,,,,,,,,,,,,,,198766,18,2022-01-28_17h17.22.146,lexical_decision_task_DD_L5,2021.2.3,MacIntel,60.0024001,,,,,,,,,,,,0.7379,1,,,,,,,,,,,,,,z,1,0.7379,,,,,,,,0.136370985,-0.391550429,0,0,0,,0,6,6,126,1,GUELS,C,old,z,./images/GUELS.png,,,,,,,,,,,,,,,,,,,,,,
,,,,,,,,,,,,,,,,,198766,18,2022-01-28_17h17.22.146,lexical_decision_task_DD_L5,2021.2.3,MacIntel,60.0024001,,,,,,,,,,,,1.1773,1,,,,,,,,,,,,,,z,1,1.1773,,,,,,,,0.136370985,-0.391550429,0,0,0,,0,7,7,157,1,INLER,HB,old,z,./images/INLERHB.png,,,,,,,,,,,,,,,,,,,,,,
,,,,,,,,,,,,,,,,,198766,18,2022-01-28_17h17.22.146,lexical_decision_task_DD_L5,2021.2.3,MacIntel,60.0024001,,,,,,,,,,,,1.6266,1,,,,,,,,,,,,,,z,1,1.6266,,,,,,,,0.136370985,-0.391550429,0,0,0,,0,8,8,88,1,GLUSH,HB,old,z,./images/GLUSHHB.png,,,,,,,,,,,,,,,,,,,,,,
,,,,,,,,,,,,,,,,,198766,18,2022-01-28_17h17.22.146,lexical_decision_task_DD_L5,2021.2.3,MacIntel,60.0024001,,,,,,,,,,,,1.5379,1,,,,,,,,,,,,,,z,1,1.5379,,,,,,,,0.136370985,-0.391550429,0,0,0,,0,9,9,146,1,MOOST,LB,old,z,./images/MOOSTLB.png,,,,,,,,,,,,,,,,,,,,,,
,,,,,,,,,,,,,,,,,198766,18,2022-01-28_17h17.22.146,lexical_decision_task_DD_L5,2021.2.3,MacIntel,60.0024001,,,,,,,,,,,,2.4436,1,,,,,,,,,,,,,,z,1,2.4436,,,,,,,,0.136370985,-0.391550429,0,0,0,,0,10,10,154,1,THINT,HB,old,z,./images/THINTHB.png,,,,,,,,,,,,,,,,,,,,,,
,,,,,,,,,,,,,,,,,198766,18,2022-01-28_17h17.22.146,lexical_decision_task_DD_L5,2021.2.3,MacIntel,60.0024001,,,,,,,,,,,,0.8831,1,,,,,,,,,,,,,,m,1,0.8831,,,,,,,,0.136370985,-0.391550429,0,0,0,,0,11,11,78,1,BROOM,HB,old,m,./images/BROOMHB.png,,,,,,,,,,,,,,,,,,,,,,
,,,,,,,,,,,,,,,,,198766,18,2022-01-28_17h17.22.146,lexical_decision_task_DD_L5,2021.2.3,MacIntel,60.0024001,,,,,,,,,,,,0.8867,1,,,,,,,,,,,,,,m,1,0.8867,,,,,,,,0.136370985,-0.391550429,0,0,0,,0,12,12,6,1,STAIN,HB,old,m,./images/STAINHB.png,,,,,,,,,,,,,,,,,,,,,,
,,,,,,,,,,,,,,,,,198766,18,2022-01-28_17h17.22.146,lexical_decision_task_DD_L5,2021.2.3,MacIntel,60.0024001,,,,,,,,,,,,0.9847,1,,,,,,,,,,,,,,z,1,0.9847,,,,,,,,0.136370985,-0.391550429,0,0,0,,0,13,13,103,1,FLORT,HB,old,z,./images/FLORTHB.png,,,,,,,,,,,,,,,,,,,,,,
,,,,,,,,,,,,,,,,,198766,18,2022-01-28_17h17.22.146,lexical_decision_task_DD_L5,2021.2.3,MacIntel,60.0024001,,,,,,,,,,,,0.8529,1,,,,,,,,,,,,,,m,1,0.8529,,,,,,,,0.136370985,-0.391550429,0,0,0,,0,14,14,37,1,TIGER,LB,old,m,./images/TIGERLB.png,,,,,,,,,,,,,,,,,,,,,,
,,,,,,,,,,,,,,,,,198766,18,2022-01-28_17h17.22.146,lexical_decision_task_DD_L5,2021.2.3,MacIntel,60.0024001,,,,,,,,,,,,0.6692,1,,,,,,,,,,,,,,m,1,0.6692,,,,,,,,0.136370985,-0.391550429,0,0,0,,0,15,15,49,1,BISHOP,LB,old,m,./images/BISHOPLB.png,,,,,,,,,,,,,,,,,,,,,,
,,,,,,,,,,,,,,,,,198766,18,2022-01-28_17h17.22.146,lexical_decision_task_DD_L5,2021.2.3,MacIntel,60.0024001,,,,,,,,,,,,0.5691,1,,,,,,,,,,,,,,m,1,0.5691,,,,,,,,0.136370985,-0.391550429,0,0,0,,0,16,16,11,1,MEDAL,C,old,m,./images/MEDAL.png,,,,,,,,,,,,,,,,,,,,,,
,,,,,,,,,,,,,,,,,198766,18,2022-01-28_17h17.22.146,lexical_decision_task_DD_L5,2021.2.3,MacIntel,60.0024001,,,,,,,,,,,,0.8579,1,,,,,,,,,,,,,,z,1,0.8579,,,,,,,,0.136370985,-0.391550429,0,0,0,,0,17,17,123,1,SEDGE,C,old,z,./images/SEDGE.png,,,,,,,,,,,,,,,,,,,,,,
,,,,,,,,,,,,,,,,,198766,18,2022-01-28_17h17.22.146,lexical_decision_task_DD_L5,2021.2.3,MacIntel,60.0024001,,,,,,,,,,,,1.5511,1,,,,,,,,,,,,,,m,1,1.5511,,,,,,,,0.136370985,-0.391550429,0,0,0,,0,18,18,39,1,CANDY,HB,old,m,./images/CANDYHB.png,,,,,,,,,,,,,,,,,,,,,,
,,,,,,,,,,,,,,,,,198766,18,2022-01-28_17h17.22.146,lexical_decision_task_DD_L5,2021.2.3,MacIntel,60.0024001,,,,,,,,,,,,0.6142,1,,,,,,,,,,,,,,m,1,0.6142,,,,,,,,0.136370985,-0.391550429,0,0,0,,0,19,19,34,1,RAZOR,LB,old,m,./images/RAZORLB.png,,,,,,,,,,,,,,,,,,,,,,
,,,,,,,,,,,,,,,,,198766,18,2022-01-28_17h17.22.146,lexical_decision_task_DD_L5,2021.2.3,MacIntel,60.0024001,,,,,,,,,,,,0.6171,1,,,,,,,,,,,,,,z,1,0.6171,,,,,,,,0.136370985,-0.391550429,0,0,0,,0,20,20,108,1,GRUET,C,old,z,./images/GRUET.png,,,,,,,,,,,,,,,,,,,,,,
,,,,,,,,,,,,,,,,,198766,18,2022-01-28_17h17.22.146,lexical_decision_task_DD_L5,2021.2.3,MacIntel,60.0024001,,,,,,,,,,,,0.6411,1,,,,,,,,,,,,,,m,1,0.6411,,,,,,,,0.136370985,-0.391550429,0,0,0,,0,21,21,29,1,PISTOL,C,old,m,./images/PISTOL.png,,,,,,,,,,,,,,,,,,,,,,
,,,,,,,,,,,,,,,,,198766,18,2022-01-28_17h17.22.146,lexical_decision_task_DD_L5,2021.2.3,MacIntel,60.0024001,,,,,,,,,,,,0.8205,1,,,,,,,,,,,,,,z,1,0.8205,,,,,,,,0.136370985,-0.391550429,0,0,0,,0,22,22,90,1,NEAST,C,old,z,./images/NEAST.png,,,,,,,,,,,,,,,,,,,,,,
,,,,,,,,,,,,,,,,,198766,18,2022-01-28_17h17.22.146,lexical_decision_task_DD_L5,2021.2.3,MacIntel,60.0024001,,,,,,,,,,,,1.1836,1,,,,,,,,,,,,,,z,1,1.1836,,,,,,,,0.136370985,-0.391550429,0,0,0,,0,23,23,99,1,BACKY,C,old,z,./images/BACKY.png,,,,,,,,,,,,,,,,,,,,,,
,,,,,,,,,,,,,,,,,198766,18,2022-01-28_17h17.22.146,lexical_decision_task_DD_L5,2021.2.3,MacIntel,60.0024001,,,,,,,,,,,,0.894,1,,,,,,,,,,,,,,m,1,0.894,,,,,,,,0.136370985,-0.391550429,0,0,0,,0,24,24,40,1,SNAKE,LB,old,m,./images/SNAKELB.png,,,,,,,,,,,,,,,,,,,,,,
,,,,,,,,,,,,,,,,,198766,18,2022-01-28_17h17.22.146,lexical_decision_task_DD_L5,2021.2.3,MacIntel,60.0024001,,,,,,,,,,,,1.7266,1,,,,,,,,,,,,,,m,1,1.7266,,,,,,,,0.136370985,-0.391550429,0,0,0,,0,25,25,46,1,MUMMY,LB,old,m,./images/MUMMYLB.png,,,,,,,,,,,,,,,,,,,,,,
,,,,,,,,,,,,,,,,,198766,18,2022-01-28_17h17.22.146,lexical_decision_task_DD_L5,2021.2.3,MacIntel,60.0024001,,,,,,,,,,,,1.0964,1,,,,,,,,,,,,,,z,1,1.0964,,,,,,,,0.136370985,-0.391550429,0,0,0,,0,26,26,91,1,SHENS,HB,old,z,./images/SHENSHB.png,,,,,,,,,,,,,,,,,,,,,,
,,,,,,,,,,,,,,,,,198766,18,2022-01-28_17h17.22.146,lexical_decision_task_DD_L5,2021.2.3,MacIntel,60.0024001,,,,,,,,,,,,0.6272,1,,,,,,,,,,,,,,m,1,0.6272,,,,,,,,0.136370985,-0.391550429,0,0,0,,0,27,27,22,1,CLOWN,LB,old,m,./images/CLOWNLB.png,,,,,,,,,,,,,,,,,,,,,,
,,,,,,,,,,,,,,,,,198766,18,2022-01-28_17h17.22.146,lexical_decision_task_DD_L5,2021.2.3,MacIntel,60.0024001,,,,,,,,,,,,0.8592,1,,,,,,,,,,,,,,z,1,0.8592,,,,,,,,0.136370985,-0.391550429,0,0,0,,0,28,28,100,1,DRIBS,HB,old,z,./images/DRIBSHB.png,,,,,,,,,,,,,,,,,,,,,,
,,,,,,,,,,,,,,,,,198766,18,2022-01-28_17h17.22.146,lexical_decision_task_DD_L5,2021.2.3,MacIntel,60.0024001,,,,,,,,,,,,0.6343,1,,,,,,,,,,,,,,m,1,0.6343,,,,,,,,0.136370985,-0.391550429,0,0,0,,0,29,29,76,1,MIDGET,LB,old,m,./images/MIDGETLB.png,,,,,,,,,,,,,,,,,,,,,,
,,,,,,,,,,,,,,,,,198766,18,2022-01-28_17h17.22.146,lexical_decision_task_DD_L5,2021.2.3,MacIntel,60.0024001,,,,,,,,,,,,0.5983,1,,,,,,,,,,,,,,m,1,0.5983,,,,,,,,0.136370985,-0.391550429,0,0,0,,0,30,30,0,1,WALNUT,HB,old,m,./images/WALNUTHB.png,,,,,,,,,,,,,,,,,,,,,,
,,,,,,,,,,,,,,,,,198766,18,2022-01-28_17h17.22.146,lexical_decision_task_DD_L5,2021.2.3,MacIntel,60.0024001,,,,,,,,,,,,0.6415,1,,,,,,,,,,,,,,m,1,0.6415,,,,,,,,0.136370985,-0.391550429,0,0,0,,0,31,31,71,1,BUBBLE,C,old,m,./images/BUBBLE.png,,,,,,,,,,,,,,,,,,,,,,
,,,,,,,,,,,,,,,,,198766,18,2022-01-28_17h17.22.146,lexical_decision_task_DD_L5,2021.2.3,MacIntel,60.0024001,,,,,,,,,,,,1.3352,1,,,,,,,,,,,,,,m,1,1.3352,,,,,,,,0.136370985,-0.391550429,0,0,0,,0,32,32,60,1,CURRY,HB,old,m,./images/CURRYHB.png,,,,,,,,,,,,,,,,,,,,,,
,,,,,,,,,,,,,,,,,198766,18,2022-01-28_17h17.22.146,lexical_decision_task_DD_L5,2021.2.3,MacIntel,60.0024001,,,,,,,,,,,,0.7416,1,,,,,,,,,,,,,,m,1,0.7416,,,,,,,,0.136370985,-0.391550429,0,0,0,,0,33,33,75,1,HAMMER,HB,old,m,./images/HAMMERHB.png,,,,,,,,,,,,,,,,,,,,,,
,,,,,,,,,,,,,,,,,198766,18,2022-01-28_17h17.22.146,lexical_decision_task_DD_L5,2021.2.3,MacIntel,60.0024001,,,,,,,,,,,,0.6743,1,,,,,,,,,,,,,,z,1,0.6743,,,,,,,,0.136370985,-0.391550429,0,0,0,,0,34,34,117,1,STEEG,C,old,z,./images/STEEG.png,,,,,,,,,,,,,,,,,,,,,,
,,,,,,,,,,,,,,,,,198766,18,2022-01-28_17h17.22.146,lexical_decision_task_DD_L5,2021.2.3,MacIntel,60.0024001,,,,,,,,,,,,0.6726,1,,,,,,,,,,,,,,m,1,0.6726,,,,,,,,0.136370985,-0.391550429,0,0,0,,0,35,35,5,1,BAMBOO,C,old,m,./images/BAMBOO.png,,,,,,,,,,,,,,,,,,,,,,
,,,,,,,,,,,,,,,,,198766,18,2022-01-28_17h17.22.146,lexical_decision_task_DD_L5,2021.2.3,MacIntel,60.0024001,,,,,,,,,,,,0.6031,1,,,,,,,,,,,,,,m,1,0.6031,,,,,,,,0.136370985,-0.391550429,0,0,0,,0,36,36,68,1,VALLEY,C,old,m,./images/VALLEY.png,,,,,,,,,,,,,,,,,,,,,,
,,,,,,,,,,,,,,,,,198766,18,2022-01-28_17h17.22.146,lexical_decision_task_DD_L5,2021.2.3,MacIntel,60.0024001,,,,,,,,,,,,0.7747,1,,,,,,,,,,,,,,m,1,0.7747,,,,,,,,0.136370985,-0.391550429,0,0,0,,0,37,37,27,1,BUTTER,HB,old,m,./images/BUTTERHB.png,,,,,,,,,,,,,,,,,,,,,,
,,,,,,,,,,,,,,,,,198766,18,2022-01-28_17h17.22.146,lexical_decision_task_DD_L5,2021.2.3,MacIntel,60.0024001,,,,,,,,,,,,0.5574,1,,,,,,,,,,,,,,m,1,0.5574,,,,,,,,0.136370985,-0.391550429,0,0,0,,0,38,38,17,1,PARADE,C,old,m,./images/PARADE.png,,,,,,,,,,,,,,,,,,,,,,
,,,,,,,,,,,,,,,,,198766,18,2022-01-28_17h17.22.146,lexical_decision_task_DD_L5,2021.2.3,MacIntel,60.0024001,,,,,,,,,,,,0.7235,1,,,,,,,,,,,,,,z,1,0.7235,,,,,,,,0.136370985,-0.391550429,0,0,0,,0,39,39,93,1,SMONE,C,old,z,./images/SMONE.png,,,,,,,,,,,,,,,,,,,,,,
,,,,,,,,,,,,,,,,,198766,18,2022-01-28_17h17.22.146,lexical_decision_task_DD_L5,2021.2.3,MacIntel,60.0024001,,,,,,,,,,,,1.1172,1,,,,,,,,,,,,,,z,1,1.1172,,,,,,,,0.136370985,-0.391550429,0,0,0,,0,40,40,136,1,WERVE,HB,old,z,./images/WERVEHB.png,,,,,,,,,,,,,,,,,,,,,,
,,,,,,,,,,,,,,,,,198766,18,2022-01-28_17h17.22.146,lexical_decision_task_DD_L5,2021.2.3,MacIntel,60.0024001,,,,,,,,,,,,0.8254,1,,,,,,,,,,,,,,z,1,0.8254,,,,,,,,0.136370985,-0.391550429,0,0,0,space,0,41,41,155,1,CANGY,LB,old,z,./images/CANGYLB.png,10.389,,,,,,,,,,,,,,,,,,,,,
,,,,,,,,,,,,,,,,,198766,18,2022-01-28_17h17.22.146,lexical_decision_task_DD_L5,2021.2.3,MacIntel,60.0024001,,,,,,,,,,,,0.8295,1,,,,,,,,,,,,,,m,1,0.8295,,,,,,,,0.136370985,-0.391550429,0,0,0,,0,42,42,43,1,STOOL,LB,old,m,./images/STOOLLB.png,,,,,,,,,,,,,,,,,,,,,,
,,,,,,,,,,,,,,,,,198766,18,2022-01-28_17h17.22.146,lexical_decision_task_DD_L5,2021.2.3,MacIntel,60.0024001,,,,,,,,,,,,0.5325,1,,,,,,,,,,,,,,m,1,0.5325,,,,,,,,0.136370985,-0.391550429,0,0,0,,0,43,43,1,1,TOWEL,LB,old,m,./images/TOWELLB.png,,,,,,,,,,,,,,,,,,,,,,
,,,,,,,,,,,,,,,,,198766,18,2022-01-28_17h17.22.146,lexical_decision_task_DD_L5,2021.2.3,MacIntel,60.0024001,,,,,,,,,,,,0.902,1,,,,,,,,,,,,,,z,1,0.902,,,,,,,,0.136370985,-0.391550429,0,0,0,,0,44,44,85,1,CHULK,HB,old,z,./images/CHULKHB.png,,,,,,,,,,,,,,,,,,,,,,
,,,,,,,,,,,,,,,,,198766,18,2022-01-28_17h17.22.146,lexical_decision_task_DD_L5,2021.2.3,MacIntel,60.0024001,,,,,,,,,,,,0.6685,0,,,,,,,,,,,,,,z,0,0.6685,,,,,,,,0.136370985,-0.391550429,0,0,0,,0,45,45,36,1,BOILER,HB,old,m,./images/BOILERHB.png,,,,,,,,,,,,,,,,,,,,,,
,,,,,,,,,,,,,,,,,198766,18,2022-01-28_17h17.22.146,lexical_decision_task_DD_L5,2021.2.3,MacIntel,60.0024001,,,,,,,,,,,,0.7801,1,,,,,,,,,,,,,,z,1,0.7801,,,,,,,,0.136370985,-0.391550429,0,0,0,,0,46,46,101,1,GLEET,LB,old,z,./images/GLEETLB.png,,,,,,,,,,,,,,,,,,,,,,
,,,,,,,,,,,,,,,,,198766,18,2022-01-28_17h17.22.146,lexical_decision_task_DD_L5,2021.2.3,MacIntel,60.0024001,,,,,,,,,,,,0.7094,1,,,,,,,,,,,,,,z,1,0.7094,,,,,,,,0.136370985,-0.391550429,0,0,0,,0,47,47,140,1,DOVET,LB,old,z,./images/DOVETLB.png,,,,,,,,,,,,,,,,,,,,,,
,,,,,,,,,,,,,,,,,198766,18,2022-01-28_17h17.22.146,lexical_decision_task_DD_L5,2021.2.3,MacIntel,60.0024001,,,,,,,,,,,,1.3927,1,,,,,,,,,,,,,,z,1,1.3927,,,,,,,,0.136370985,-0.391550429,0,0,0,,0,48,48,145,1,LAMEL,HB,old,z,./images/LAMELHB.png,,,,,,,,,,,,,,,,,,,,,,
,,,,,,,,,,,,,,,,,198766,18,2022-01-28_17h17.22.146,lexical_decision_task_DD_L5,2021.2.3,MacIntel,60.0024001,,,,,,,,,,,,0.6092,1,,,,,,,,,,,,,,m,1,0.6092,,,,,,,,0.136370985,-0.391550429,0,0,0,,0,49,49,10,1,GARDEN,LB,old,m,./images/GARDENLB.png,,,,,,,,,,,,,,,,,,,,,,
,,,,,,,,,,,,,,,,,198766,18,2022-01-28_17h17.22.146,lexical_decision_task_DD_L5,2021.2.3,MacIntel,60.0024001,,,,,,,,,,,,0.6369,0,,,,,,,,,,,,,,m,0,0.6369,,,,,,,,0.136370985,-0.391550429,0,0,0,,0,50,50,127,1,NINDY,HB,old,z,./images/NINDYHB.png,,,,,,,,,,,,,,,,,,,,,,
,,,,,,,,,,,,,,,,,198766,18,2022-01-28_17h17.22.146,lexical_decision_task_DD_L5,2021.2.3,MacIntel,60.0024001,,,,,,,,,,,,0.7101,1,,,,,,,,,,,,,,m,1,0.7101,,,,,,,,0.136370985,-0.391550429,0,0,0,,0,51,51,45,1,MONKEY,HB,old,m,./images/MONKEYHB.png,,,,,,,,,,,,,,,,,,,,,,
,,,,,,,,,,,,,,,,,198766,18,2022-01-28_17h17.22.146,lexical_decision_task_DD_L5,2021.2.3,MacIntel,60.0024001,,,,,,,,,,,,0.8406,1,,,,,,,,,,,,,,m,1,0.8406,,,,,,,,0.136370985,-0.391550429,0,0,0,,0,52,52,47,1,LAGOON,C,old,m,./images/LAGOON.png,,,,,,,,,,,,,,,,,,,,,,
,,,,,,,,,,,,,,,,,198766,18,2022-01-28_17h17.22.146,lexical_decision_task_DD_L5,2021.2.3,MacIntel,60.0024001,,,,,,,,,,,,0.6732,1,,,,,,,,,,,,,,z,1,0.6732,,,,,,,,0.136370985,-0.391550429,0,0,0,,0,53,53,87,1,TRING,C,old,z,./images/TRING.png,,,,,,,,,,,,,,,,,,,,,,
,,,,,,,,,,,,,,,,,198766,18,2022-01-28_17h17.22.146,lexical_decision_task_DD_L5,2021.2.3,MacIntel,60.0024001,,,,,,,,,,,,0.5562,1,,,,,,,,,,,,,,m,1,0.5562,,,,,,,,0.136370985,-0.391550429,0,0,0,,0,54,54,62,1,MAMMAL,C,old,m,./images/MAMMAL.png,,,,,,,,,,,,,,,,,,,,,,
,,,,,,,,,,,,,,,,,198766,18,2022-01-28_17h17.22.146,lexical_decision_task_DD_L5,2021.2.3,MacIntel,60.0024001,,,,,,,,,,,,0.7662,1,,,,,,,,,,,,,,z,1,0.7662,,,,,,,,0.136370985,-0.391550429,0,0,0,,0,55,55,84,1,HAXES,C,old,z,./images/HAXES.png,,,,,,,,,,,,,,,,,,,,,,
,,,,,,,,,,,,,,,,,198766,18,2022-01-28_17h17.22.146,lexical_decision_task_DD_L5,2021.2.3,MacIntel,60.0024001,,,,,,,,,,,,0.4755,1,,,,,,,,,,,,,,m,1,0.4755,,,,,,,,0.136370985,-0.391550429,0,0,0,,0,56,56,26,1,CLOUD,C,old,m,./images/CLOUD.png,,,,,,,,,,,,,,,,,,,,,,
,,,,,,,,,,,,,,,,,198766,18,2022-01-28_17h17.22.146,lexical_decision_task_DD_L5,2021.2.3,MacIntel,60.0024001,,,,,,,,,,,,0.6419,1,,,,,,,,,,,,,,m,1,0.6419,,,,,,,,0.136370985,-0.391550429,0,0,0,,0,57,57,35,1,LLAMA,C,old,m,./images/LLAMA.png,,,,,,,,,,,,,,,,,,,,,,
,,,,,,,,,,,,,,,,,198766,18,2022-01-28_17h17.22.146,lexical_decision_task_DD_L5,2021.2.3,MacIntel,60.0024001,,,,,,,,,,,,0.9468,1,,,,,,,,,,,,,,m,1,0.9468,,,,,,,,0.136370985,-0.391550429,0,0,0,,0,58,58,15,1,COLLAR,HB,old,m,./images/COLLARHB.png,,,,,,,,,,,,,,,,,,,,,,
,,,,,,,,,,,,,,,,,198766,18,2022-01-28_17h17.22.146,lexical_decision_task_DD_L5,2021.2.3,MacIntel,60.0024001,,,,,,,,,,,,1.3257,0,,,,,,,,,,,,,,z,0,1.3257,,,,,,,,0.136370985,-0.391550429,0,0,0,,0,59,59,9,1,DIVER,HB,old,m,./images/DIVERHB.png,,,,,,,,,,,,,,,,,,,,,,
,,,,,,,,,,,,,,,,,198766,18,2022-01-28_17h17.22.146,lexical_decision_task_DD_L5,2021.2.3,MacIntel,60.0024001,,,,,,,,,,,,0.5276,1,,,,,,,,,,,,,,m,1,0.5276,,,,,,,,0.136370985,-0.391550429,0,0,0,,0,60,60,25,1,CHALK,LB,old,m,./images/CHALKLB.png,,,,,,,,,,,,,,,,,,,,,,
,,,,,,,,,,,,,,,,,198766,18,2022-01-28_17h17.22.146,lexical_decision_task_DD_L5,2021.2.3,MacIntel,60.0024001,,,,,,,,,,,,0.6436,0,,,,,,,,,,,,,,m,0,0.6436,,,,,,,,0.136370985,-0.391550429,0,0,0,,0,61,61,104,1,GITTY,LB,old,z,./images/GITTYLB.png,,,,,,,,,,,,,,,,,,,,,,
,,,,,,,,,,,,,,,,,198766,18,2022-01-28_17h17.22.146,lexical_decision_task_DD_L5,2021.2.3,MacIntel,60.0024001,,,,,,,,,,,,0.9621,0,,,,,,,,,,,,,,m,0,0.9621,,,,,,,,0.136370985,-0.391550429,0,0,0,,0,62,62,114,1,RIKES,C,old,z,./images/RIKES.png,,,,,,,,,,,,,,,,,,,,,,
,,,,,,,,,,,,,,,,,198766,18,2022-01-28_17h17.22.146,lexical_decision_task_DD_L5,2021.2.3,MacIntel,60.0024001,,,,,,,,,,,,0.6327,1,,,,,,,,,,,,,,m,1,0.6327,,,,,,,,0.136370985,-0.391550429,0,0,0,,0,63,63,65,1,SPINE,C,old,m,./images/SPINE.png,,,,,,,,,,,,,,,,,,,,,,
,,,,,,,,,,,,,,,,,198766,18,2022-01-28_17h17.22.146,lexical_decision_task_DD_L5,2021.2.3,MacIntel,60.0024001,,,,,,,,,,,,0.9664,1,,,,,,,,,,,,,,z,1,0.9664,,,,,,,,0.136370985,-0.391550429,0,0,0,,0,64,64,94,1,BLANS,HB,old,z,./images/BLANSHB.png,,,,,,,,,,,,,,,,,,,,,,
,,,,,,,,,,,,,,,,,198766,18,2022-01-28_17h17.22.146,lexical_decision_task_DD_L5,2021.2.3,MacIntel,60.0024001,,,,,,,,,,,,0.928,1,,,,,,,,,,,,,,z,1,0.928,,,,,,,,0.136370985,-0.391550429,0,0,0,,0,65,65,109,1,BURGE,HB,old,z,./images/BURGEHB.png,,,,,,,,,,,,,,,,,,,,,,
,,,,,,,,,,,,,,,,,198766,18,2022-01-28_17h17.22.146,lexical_decision_task_DD_L5,2021.2.3,MacIntel,60.0024001,,,,,,,,,,,,0.9598,1,,,,,,,,,,,,,,m,1,0.9598,,,,,,,,0.136370985,-0.391550429,0,0,0,,0,66,66,81,1,DRILL,HB,old,m,./images/DRILLHB.png,,,,,,,,,,,,,,,,,,,,,,
,,,,,,,,,,,,,,,,,198766,18,2022-01-28_17h17.22.146,lexical_decision_task_DD_L5,2021.2.3,MacIntel,60.0024001,,,,,,,,,,,,0.7644,1,,,,,,,,,,,,,,m,1,0.7644,,,,,,,,0.136370985,-0.391550429,0,0,0,,0,67,67,33,1,SAUNA,HB,old,m,./images/SAUNAHB.png,,,,,,,,,,,,,,,,,,,,,,
,,,,,,,,,,,,,,,,,198766,18,2022-01-28_17h17.22.146,lexical_decision_task_DD_L5,2021.2.3,MacIntel,60.0024001,,,,,,,,,,,,0.6918,1,,,,,,,,,,,,,,z,1,0.6918,,,,,,,,0.136370985,-0.391550429,0,0,0,,0,68,68,153,1,CLUPS,C,old,z,./images/CLUPS.png,,,,,,,,,,,,,,,,,,,,,,
,,,,,,,,,,,,,,,,,198766,18,2022-01-28_17h17.22.146,lexical_decision_task_DD_L5,2021.2.3,MacIntel,60.0024001,,,,,,,,,,,,0.9833,0,,,,,,,,,,,,,,m,0,0.9833,,,,,,,,0.136370985,-0.391550429,0,0,0,,0,69,69,159,1,CUDDY,C,old,z,./images/CUDDY.png,,,,,,,,,,,,,,,,,,,,,,
,,,,,,,,,,,,,,,,,198766,18,2022-01-28_17h17.22.146,lexical_decision_task_DD_L5,2021.2.3,MacIntel,60.0024001,,,,,,,,,,,,0.6206,1,,,,,,,,,,,,,,m,1,0.6206,,,,,,,,0.136370985,-0.391550429,0,0,0,,0,70,70,73,1,GLOVE,LB,old,m,./images/GLOVELB.png,,,,,,,,,,,,,,,,,,,,,,
,,,,,,,,,,,,,,,,,198766,18,2022-01-28_17h17.22.146,lexical_decision_task_DD_L5,2021.2.3,MacIntel,60.0024001,,,,,,,,,,,,1.2126,1,,,,,,,,,,,,,,z,1,1.2126,,,,,,,,0.136370985,-0.391550429,0,0,0,,0,71,71,133,1,POWDY,HB,old,z,./images/POWDYHB.png,,,,,,,,,,,,,,,,,,,,,,
,,,,,,,,,,,,,,,,,198766,18,2022-01-28_17h17.22.146,lexical_decision_task_DD_L5,2021.2.3,MacIntel,60.0024001,,,,,,,,,,,,0.7469,1,,,,,,,,,,,,,,m,1,0.7469,,,,,,,,0.136370985,-0.391550429,0,0,0,,0,72,72,66,1,STATUE,HB,old,m,./images/STATUEHB.png,,,,,,,,,,,,,,,,,,,,,,
,,,,,,,,,,,,,,,,,198766,18,2022-01-28_17h17.22.146,lexical_decision_task_DD_L5,2021.2.3,MacIntel,60.0024001,,,,,,,,,,,,0.7456,1,,,,,,,,,,,,,,z,1,0.7456,,,,,,,,0.136370985,-0.391550429,0,0,0,,0,73,73,97,1,CHIDS,HB,old,z,./images/CHIDSHB.png,,,,,,,,,,,,,,,,,,,,,,
,,,,,,,,,,,,,,,,,198766,18,2022-01-28_17h17.22.146,lexical_decision_task_DD_L5,2021.2.3,MacIntel,60.0024001,,,,,,,,,,,,0.575,1,,,,,,,,,,,,,,m,1,0.575,,,,,,,,0.136370985,-0.391550429,0,0,0,,0,74,74,64,1,BRIDE,LB,old,m,./images/BRIDELB.png,,,,,,,,,,,,,,,,,,,,,,
,,,,,,,,,,,,,,,,,198766,18,2022-01-28_17h17.22.146,lexical_decision_task_DD_L5,2021.2.3,MacIntel,60.0024001,,,,,,,,,,,,0.7222,1,,,,,,,,,,,,,,z,1,0.7222,,,,,,,,0.136370985,-0.391550429,0,0,0,,0,75,75,111,1,HOSSE,C,old,z,./images/HOSSE.png,,,,,,,,,,,,,,,,,,,,,,
,,,,,,,,,,,,,,,,,198766,18,2022-01-28_17h17.22.146,lexical_decision_task_DD_L5,2021.2.3,MacIntel,60.0024001,,,,,,,,,,,,0.5564,1,,,,,,,,,,,,,,m,1,0.5564,,,,,,,,0.136370985,-0.391550429,0,0,0,,0,76,76,53,1,POSTER,C,old,m,./images/POSTER.png,,,,,,,,,,,,,,,,,,,,,,
,,,,,,,,,,,,,,,,,198766,18,2022-01-28_17h17.22.146,lexical_decision_task_DD_L5,2021.2.3,MacIntel,60.0024001,,,,,,,,,,,,0.9937,1,,,,,,,,,,,,,,m,1,0.9937,,,,,,,,0.136370985,-0.391550429,0,0,0,,0,77,77,24,1,FLESH,HB,old,m,./images/FLESHHB.png,,,,,,,,,,,,,,,,,,,,,,
,,,,,,,,,,,,,,,,,198766,18,2022-01-28_17h17.22.146,lexical_decision_task_DD_L5,2021.2.3,MacIntel,60.0024001,,,,,,,,,,,,0.531,1,,,,,,,,,,,,,,m,1,0.531,,,,,,,,0.136370985,-0.391550429,0,0,0,,0,78,78,52,1,DESERT,LB,old,m,./images/DESERTLB.png,,,,,,,,,,,,,,,,,,,,,,
,,,,,,,,,,,,,,,,,198766,18,2022-01-28_17h17.22.146,lexical_decision_task_DD_L5,2021.2.3,MacIntel,60.0024001,,,,,,,,,,,,0.609,1,,,,,,,,,,,,,,z,1,0.609,,,,,,,,0.136370985,-0.391550429,0,0,0,,0,79,79,89,1,DRIEK,LB,old,z,./images/DRIEKLB.png,,,,,,,,,,,,,,,,,,,,,,
,,,,,,,,,,,,,,,,,198766,18,2022-01-28_17h17.22.146,lexical_decision_task_DD_L5,2021.2.3,MacIntel,60.0024001,,,,,,,,,,,,0.6935,1,,,,,,,,,,,,,,z,1,0.6935,,,,,,,,0.136370985,-0.391550429,0,0,0,,0,80,80,135,1,JOODY,C,old,z,./images/JOODY.png,,,,,,,,,,,,,,,,,,,,,,
,,,,,,,,,,,,,,,,,198766,18,2022-01-28_17h17.22.146,lexical_decision_task_DD_L5,2021.2.3,MacIntel,60.0024001,,,,,,,,,,,,0.9619,0,,,,,,,,,,,,,,m,0,0.9619,,,,,,,,0.136370985,-0.391550429,0,0,0,,0,81,81,142,1,PLASK,HB,old,z,./images/PLASKHB.png,,,,,,,,,,,,,,,,,,,,,,
,,,,,,,,,,,,,,,,,198766,18,2022-01-28_17h17.22.146,lexical_decision_task_DD_L5,2021.2.3,MacIntel,60.0024001,,,,,,,,,,,,0.5221,1,,,,,,,,,,,,,,m,1,0.5221,,,,,,,,0.136370985,-0.391550429,0,0,0,,0,82,82,80,1,PLANET,C,old,m,./images/PLANET.png,,,,,,,,,,,,,,,,,,,,,,
,,,,,,,,,,,,,,,,,198766,18,2022-01-28_17h17.22.146,lexical_decision_task_DD_L5,2021.2.3,MacIntel,60.0024001,,,,,,,,,,,,0.5754,1,,,,,,,,,,,,,,m,1,0.5754,,,,,,,,0.136370985,-0.391550429,0,0,0,space,0,83,83,79,1,RULER,LB,old,m,./images/RULERLB.png,6.1483,,,,,,,,,,,,,,,,,,,,,
,,,,,,,,,,,,,,,,,198766,18,2022-01-28_17h17.22.146,lexical_decision_task_DD_L5,2021.2.3,MacIntel,60.0024001,,,,,,,,,,,,1.1204,1,,,,,,,,,,,,,,z,1,1.1204,,,,,,,,0.136370985,-0.391550429,0,0,0,,0,84,84,106,1,CLUMS,HB,old,z,./images/CLUMSHB.png,,,,,,,,,,,,,,,,,,,,,,
,,,,,,,,,,,,,,,,,198766,18,2022-01-28_17h17.22.146,lexical_decision_task_DD_L5,2021.2.3,MacIntel,60.0024001,,,,,,,,,,,,0.6763,1,,,,,,,,,,,,,,z,1,0.6763,,,,,,,,0.136370985,-0.391550429,0,0,0,,0,85,85,138,1,PLICE,C,old,z,./images/PLICE.png,,,,,,,,,,,,,,,,,,,,,,
,,,,,,,,,,,,,,,,,198766,18,2022-01-28_17h17.22.146,lexical_decision_task_DD_L5,2021.2.3,MacIntel,60.0024001,,,,,,,,,,,,0.612,1,,,,,,,,,,,,,,z,1,0.612,,,,,,,,0.136370985,-0.391550429,0,0,0,,0,86,86,132,1,SCIFF,C,old,z,./images/SCIFF.png,,,,,,,,,,,,,,,,,,,,,,
,,,,,,,,,,,,,,,,,198766,18,2022-01-28_17h17.22.146,lexical_decision_task_DD_L5,2021.2.3,MacIntel,60.0024001,,,,,,,,,,,,0.6252,1,,,,,,,,,,,,,,z,1,0.6252,,,,,,,,0.136370985,-0.391550429,0,0,0,,0,87,87,150,1,NOOLS,C,old,z,./images/NOOLS.png,,,,,,,,,,,,,,,,,,,,,,
,,,,,,,,,,,,,,,,,198766,18,2022-01-28_17h17.22.146,lexical_decision_task_DD_L5,2021.2.3,MacIntel,60.0024001,,,,,,,,,,,,1.8129,0,,,,,,,,,,,,,,m,0,1.8129,,,,,,,,0.136370985,-0.391550429,0,0,0,,0,88,88,149,1,VEASE,LB,old,z,./images/VEASELB.png,,,,,,,,,,,,,,,,,,,,,,
,,,,,,,,,,,,,,,,,198766,18,2022-01-28_17h17.22.146,lexical_decision_task_DD_L5,2021.2.3,MacIntel,60.0024001,,,,,,,,,,,,0.7255,1,,,,,,,,,,,,,,z,1,0.7255,,,,,,,,0.136370985,-0.391550429,0,0,0,,0,89,89,143,1,MONGS,LB,old,z,./images/MONGSLB.png,,,,,,,,,,,,,,,,,,,,,,
,,,,,,,,,,,,,,,,,198766,18,2022-01-28_17h17.22.146,lexical_decision_task_DD_L5,2021.2.3,MacIntel,60.0024001,,,,,,,,,,,,1.0436,1,,,,,,,,,,,,,,z,1,1.0436,,,,,,,,0.136370985,-0.391550429,0,0,0,,0,90,90,156,1,HIXES,C,old,z,./images/HIXES.png,,,,,,,,,,,,,,,,,,,,,,
,,,,,,,,,,,,,,,,,198766,18,2022-01-28_17h17.22.146,lexical_decision_task_DD_L5,2021.2.3,MacIntel,60.0024001,,,,,,,,,,,,0.6202,1,,,,,,,,,,,,,,m,1,0.6202,,,,,,,,0.136370985,-0.391550429,0,0,0,,0,91,91,38,1,ENGINE,C,old,m,./images/ENGINE.png,,,,,,,,,,,,,,,,,,,,,,
,,,,,,,,,,,,,,,,,198766,18,2022-01-28_17h17.22.146,lexical_decision_task_DD_L5,2021.2.3,MacIntel,60.0024001,,,,,,,,,,,,0.5076,1,,,,,,,,,,,,,,m,1,0.5076,,,,,,,,0.136370985,-0.391550429,0,0,0,,0,92,92,8,1,CLIFF,C,old,m,./images/CLIFF.png,,,,,,,,,,,,,,,,,,,,,,
,,,,,,,,,,,,,,,,,198766,18,2022-01-28_17h17.22.146,lexical_decision_task_DD_L5,2021.2.3,MacIntel,60.0024001,,,,,,,,,,,,0.8478,1,,,,,,,,,,,,,,z,1,0.8478,,,,,,,,0.136370985,-0.391550429,0,0,0,,0,93,93,165,1,TROWN,C,old,z,./images/TROWN.png,,,,,,,,,,,,,,,,,,,,,,
,,,,,,,,,,,,,,,,,198766,18,2022-01-28_17h17.22.146,lexical_decision_task_DD_L5,2021.2.3,MacIntel,60.0024001,,,,,,,,,,,,0.5611,1,,,,,,,,,,,,,,m,1,0.5611,,,,,,,,0.136370985,-0.391550429,0,0,0,,0,94,94,31,1,STEAK,LB,old,m,./images/STEAKLB.png,,,,,,,,,,,,,,,,,,,,,,
,,,,,,,,,,,,,,,,,198766,18,2022-01-28_17h17.22.146,lexical_decision_task_DD_L5,2021.2.3,MacIntel,60.0024001,,,,,,,,,,,,0.6428,1,,,,,,,,,,,,,,z,1,0.6428,,,,,,,,0.136370985,-0.391550429,0,0,0,,0,95,95,122,1,BLOOT,LB,old,z,./images/BLOOTLB.png,,,,,,,,,,,,,,,,,,,,,,
,,,,,,,,,,,,,,,,,198766,18,2022-01-28_17h17.22.146,lexical_decision_task_DD_L5,2021.2.3,MacIntel,60.0024001,,,,,,,,,,,,1.4938,1,,,,,,,,,,,,,,m,1,1.4938,,,,,,,,0.136370985,-0.391550429,0,0,0,,0,96,96,42,1,CHAIN,HB,old,m,./images/CHAINHB.png,,,,,,,,,,,,,,,,,,,,,,
,,,,,,,,,,,,,,,,,198766,18,2022-01-28_17h17.22.146,lexical_decision_task_DD_L5,2021.2.3,MacIntel,60.0024001,,,,,,,,,,,,0.6267,1,,,,,,,,,,,,,,z,1,0.6267,,,,,,,,0.136370985,-0.391550429,0,0,0,,0,97,97,131,1,NACES,LB,old,z,./images/NACESLB.png,,,,,,,,,,,,,,,,,,,,,,
,,,,,,,,,,,,,,,,,198766,18,2022-01-28_17h17.22.146,lexical_decision_task_DD_L5,2021.2.3,MacIntel,60.0024001,,,,,,,,,,,,1.1791,1,,,,,,,,,,,,,,z,1,1.1791,,,,,,,,0.136370985,-0.391550429,0,0,0,,0,98,98,137,1,JOOST,LB,old,z,./images/JOOSTLB.png,,,,,,,,,,,,,,,,,,,,,,
,,,,,,,,,,,,,,,,,198766,18,2022-01-28_17h17.22.146,lexical_decision_task_DD_L5,2021.2.3,MacIntel,60.0024001,,,,,,,,,,,,0.6475,1,,,,,,,,,,,,,,z,1,0.6475,,,,,,,,0.136370985,-0.391550429,0,0,0,,0,99,99,119,1,PAFER,LB,old,z,./images/PAFERLB.png,,,,,,,,,,,,,,,,,,,,,,
,,,,,,,,,,,,,,,,,198766,18,2022-01-28_17h17.22.146,lexical_decision_task_DD_L5,2021.2.3,MacIntel,60.0024001,,,,,,,,,,,,0.8265,1,,,,,,,,,,,,,,z,1,0.8265,,,,,,,,0.136370985,-0.391550429,0,0,0,,0,100,100,152,1,FRAIN,LB,old,z,./images/FRAINLB.png,,,,,,,,,,,,,,,,,,,,,,
,,,,,,,,,,,,,,,,,198766,18,2022-01-28_17h17.22.146,lexical_decision_task_DD_L5,2021.2.3,MacIntel,60.0024001,,,,,,,,,,,,0.9801,1,,,,,,,,,,,,,,z,1,0.9801,,,,,,,,0.136370985,-0.391550429,0,0,0,,0,101,101,115,1,MAWNS,HB,old,z,./images/MAWNSHB.png,,,,,,,,,,,,,,,,,,,,,,
,,,,,,,,,,,,,,,,,198766,18,2022-01-28_17h17.22.146,lexical_decision_task_DD_L5,2021.2.3,MacIntel,60.0024001,,,,,,,,,,,,0.7531,1,,,,,,,,,,,,,,m,1,0.7531,,,,,,,,0.136370985,-0.391550429,0,0,0,,0,102,102,83,1,WHISKY,C,old,m,./images/WHISKY.png,,,,,,,,,,,,,,,,,,,,,,
,,,,,,,,,,,,,,,,,198766,18,2022-01-28_17h17.22.146,lexical_decision_task_DD_L5,2021.2.3,MacIntel,60.0024001,,,,,,,,,,,,0.9612,1,,,,,,,,,,,,,,m,1,0.9612,,,,,,,,0.136370985,-0.391550429,0,0,0,,0,103,103,61,1,ARTIST,LB,old,m,./images/ARTISTLB.png,,,,,,,,,,,,,,,,,,,,,,
,,,,,,,,,,,,,,,,,198766,18,2022-01-28_17h17.22.146,lexical_decision_task_DD_L5,2021.2.3,MacIntel,60.0024001,,,,,,,,,,,,0.6272,1,,,,,,,,,,,,,,m,1,0.6272,,,,,,,,0.136370985,-0.391550429,0,0,0,,0,104,104,4,1,BOXER,LB,old,m,./images/BOXERLB.png,,,,,,,,,,,,,,,,,,,,,,
,,,,,,,,,,,,,,,,,198766,18,2022-01-28_17h17.22.146,lexical_decision_task_DD_L5,2021.2.3,MacIntel,60.0024001,,,,,,,,,,,,0.8711,1,,,,,,,,,,,,,,m,1,0.8711,,,,,,,,0.136370985,-0.391550429,0,0,0,,0,105,105,82,1,PEBBLE,LB,old,m,./images/PEBBLELB.png,,,,,,,,,,,,,,,,,,,,,,
,,,,,,,,,,,,,,,,,198766,18,2022-01-28_17h17.22.146,lexical_decision_task_DD_L5,2021.2.3,MacIntel,60.0024001,,,,,,,,,,,,0.9304,1,,,,,,,,,,,,,,z,1,0.9304,,,,,,,,0.136370985,-0.391550429,0,0,0,,0,106,106,121,1,CEERS,HB,old,z,./images/CEERSHB.png,,,,,,,,,,,,,,,,,,,,,,
,,,,,,,,,,,,,,,,,198766,18,2022-01-28_17h17.22.146,lexical_decision_task_DD_L5,2021.2.3,MacIntel,60.0024001,,,,,,,,,,,,1.9023,1,,,,,,,,,,,,,,z,1,1.9023,,,,,,,,0.136370985,-0.391550429,0,0,0,,0,107,107,116,1,BALGY,LB,old,z,./images/BALGYLB.png,,,,,,,,,,,,,,,,,,,,,,
,,,,,,,,,,,,,,,,,198766,18,2022-01-28_17h17.22.146,lexical_decision_task_DD_L5,2021.2.3,MacIntel,60.0024001,,,,,,,,,,,,0.8269,1,,,,,,,,,,,,,,z,1,0.8269,,,,,,,,0.136370985,-0.391550429,0,0,0,,0,108,108,96,1,KEAMS,C,old,z,./images/KEAMS.png,,,,,,,,,,,,,,,,,,,,,,
,,,,,,,,,,,,,,,,,198766,18,2022-01-28_17h17.22.146,lexical_decision_task_DD_L5,2021.2.3,MacIntel,60.0024001,,,,,,,,,,,,1.6364,1,,,,,,,,,,,,,,z,1,1.6364,,,,,,,,0.136370985,-0.391550429,0,0,0,,0,109,109,147,1,ZOLES,C,old,z,./images/ZOLES.png,,,,,,,,,,,,,,,,,,,,,,
,,,,,,,,,,,,,,,,,198766,18,2022-01-28_17h17.22.146,lexical_decision_task_DD_L5,2021.2.3,MacIntel,60.0024001,,,,,,,,,,,,0.6618,1,,,,,,,,,,,,,,m,1,0.6618,,,,,,,,0.136370985,-0.391550429,0,0,0,,0,110,110,48,1,SHIELD,HB,old,m,./images/SHIELDHB.png,,,,,,,,,,,,,,,,,,,,,,
,,,,,,,,,,,,,,,,,198766,18,2022-01-28_17h17.22.146,lexical_decision_task_DD_L5,2021.2.3,MacIntel,60.0024001,,,,,,,,,,,,0.9157,1,,,,,,,,,,,,,,z,1,0.9157,,,,,,,,0.136370985,-0.391550429,0,0,0,,0,111,111,129,1,PRANS,C,old,z,./images/PRANS.png,,,,,,,,,,,,,,,,,,,,,,
,,,,,,,,,,,,,,,,,198766,18,2022-01-28_17h17.22.146,lexical_decision_task_DD_L5,2021.2.3,MacIntel,60.0024001,,,,,,,,,,,,1.1193,1,,,,,,,,,,,,,,m,1,1.1193,,,,,,,,0.136370985,-0.391550429,0,0,0,,0,112,112,18,1,PARCEL,HB,old,m,./images/PARCELHB.png,,,,,,,,,,,,,,,,,,,,,,
,,,,,,,,,,,,,,,,,198766,18,2022-01-28_17h17.22.146,lexical_decision_task_DD_L5,2021.2.3,MacIntel,60.0024001,,,,,,,,,,,,0.6661,1,,,,,,,,,,,,,,m,1,0.6661,,,,,,,,0.136370985,-0.391550429,0,0,0,,0,113,113,74,1,JUMPER,C,old,m,./images/JUMPER.png,,,,,,,,,,,,,,,,,,,,,,
,,,,,,,,,,,,,,,,,198766,18,2022-01-28_17h17.22.146,lexical_decision_task_DD_L5,2021.2.3,MacIntel,60.0024001,,,,,,,,,,,,0.6488,1,,,,,,,,,,,,,,z,1,0.6488,,,,,,,,0.136370985,-0.391550429,0,0,0,,0,114,114,105,1,MOKER,C,old,z,./images/MOKER.png,,,,,,,,,,,,,,,,,,,,,,
,,,,,,,,,,,,,,,,,198766,18,2022-01-28_17h17.22.146,lexical_decision_task_DD_L5,2021.2.3,MacIntel,60.0024001,,,,,,,,,,,,0.6629,1,,,,,,,,,,,,,,z,1,0.6629,,,,,,,,0.136370985,-0.391550429,0,0,0,,0,115,115,86,1,AIFED,LB,old,z,./images/AIFEDLB.png,,,,,,,,,,,,,,,,,,,,,,
,,,,,,,,,,,,,,,,,198766,18,2022-01-28_17h17.22.146,lexical_decision_task_DD_L5,2021.2.3,MacIntel,60.0024001,,,,,,,,,,,,0.6281,1,,,,,,,,,,,,,,z,1,0.6281,,,,,,,,0.136370985,-0.391550429,0,0,0,,0,116,116,92,1,PAIMS,LB,old,z,./images/PAIMSLB.png,,,,,,,,,,,,,,,,,,,,,,
,,,,,,,,,,,,,,,,,198766,18,2022-01-28_17h17.22.146,lexical_decision_task_DD_L5,2021.2.3,MacIntel,60.0024001,,,,,,,,,,,,0.6835,1,,,,,,,,,,,,,,m,1,0.6835,,,,,,,,0.136370985,-0.391550429,0,0,0,,0,117,117,63,1,BAKER,HB,old,m,./images/BAKERHB.png,,,,,,,,,,,,,,,,,,,,,,
,,,,,,,,,,,,,,,,,198766,18,2022-01-28_17h17.22.146,lexical_decision_task_DD_L5,2021.2.3,MacIntel,60.0024001,,,,,,,,,,,,0.5313,1,,,,,,,,,,,,,,m,1,0.5313,,,,,,,,0.136370985,-0.391550429,0,0,0,,0,118,118,44,1,BASKET,C,old,m,./images/BASKET.png,,,,,,,,,,,,,,,,,,,,,,
,,,,,,,,,,,,,,,,,198766,18,2022-01-28_17h17.22.146,lexical_decision_task_DD_L5,2021.2.3,MacIntel,60.0024001,,,,,,,,,,,,0.7615,1,,,,,,,,,,,,,,z,1,0.7615,,,,,,,,0.136370985,-0.391550429,0,0,0,,0,119,119,107,1,FASKS,LB,old,z,./images/FASKSLB.png,,,,,,,,,,,,,,,,,,,,,,
,,,,,,,,,,,,,,,,,198766,18,2022-01-28_17h17.22.146,lexical_decision_task_DD_L5,2021.2.3,MacIntel,60.0024001,,,,,,,,,,,,0.8886,1,,,,,,,,,,,,,,z,1,0.8886,,,,,,,,0.136370985,-0.391550429,0,0,0,,0,120,120,164,1,SGREW,LB,old,z,./images/SGREWLB.png,,,,,,,,,,,,,,,,,,,,,,
,,,,,,,,,,,,,,,,,198766,18,2022-01-28_17h17.22.146,lexical_decision_task_DD_L5,2021.2.3,MacIntel,60.0024001,,,,,,,,,,,,0.5793,1,,,,,,,,,,,,,,m,1,0.5793,,,,,,,,0.136370985,-0.391550429,0,0,0,,0,121,121,59,1,BRUSH,C,old,m,./images/BRUSH.png,,,,,,,,,,,,,,,,,,,,,,
,,,,,,,,,,,,,,,,,198766,18,2022-01-28_17h17.22.146,lexical_decision_task_DD_L5,2021.2.3,MacIntel,60.0024001,,,,,,,,,,,,0.9021,1,,,,,,,,,,,,,,m,1,0.9021,,,,,,,,0.136370985,-0.391550429,0,0,0,,0,122,122,56,1,HEATER,C,old,m,./images/HEATER.png,,,,,,,,,,,,,,,,,,,,,,
,,,,,,,,,,,,,,,,,198766,18,2022-01-28_17h17.22.146,lexical_decision_task_DD_L5,2021.2.3,MacIntel,60.0024001,,,,,,,,,,,,0.6446,1,,,,,,,,,,,,,,m,1,0.6446,,,,,,,,0.136370985,-0.391550429,0,0,0,,0,123,123,21,1,DANCER,HB,old,m,./images/DANCERHB.png,,,,,,,,,,,,,,,,,,,,,,
,,,,,,,,,,,,,,,,,198766,18,2022-01-28_17h17.22.146,lexical_decision_task_DD_L5,2021.2.3,MacIntel,60.0024001,,,,,,,,,,,,0.5777,1,,,,,,,,,,,,,,m,1,0.5777,,,,,,,,0.136370985,-0.391550429,0,0,0,,0,124,124,13,1,BUNNY,LB,old,m,./images/BUNNYLB.png,,,,,,,,,,,,,,,,,,,,,,
,,,,,,,,,,,,,,,,,198766,18,2022-01-28_17h17.22.146,lexical_decision_task_DD_L5,2021.2.3,MacIntel,60.0024001,,,,,,,,,,,,0.4801,1,,,,,,,,,,,,,,m,1,0.4801,,,,,,,,0.136370985,-0.391550429,0,0,0,space,0,125,125,7,1,WAGON,LB,old,m,./images/WAGONLB.png,6.3859,,,,,,,,,,,,,,,,,,,,,
,,,,,,,,,,,,,,,,,198766,18,2022-01-28_17h17.22.146,lexical_decision_task_DD_L5,2021.2.3,MacIntel,60.0024001,,,,,,,,,,,,1.4588,1,,,,,,,,,,,,,,m,1,1.4588,,,,,,,,0.136370985,-0.391550429,0,0,0,,0,126,126,12,1,BLOKE,HB,old,m,./images/BLOKEHB.png,,,,,,,,,,,,,,,,,,,,,,
,,,,,,,,,,,,,,,,,198766,18,2022-01-28_17h17.22.146,lexical_decision_task_DD_L5,2021.2.3,MacIntel,60.0024001,,,,,,,,,,,,0.8328,1,,,,,,,,,,,,,,z,1,0.8328,,,,,,,,0.136370985,-0.391550429,0,0,0,,0,127,127,161,1,BLAPS,LB,old,z,./images/BLAPSLB.png,,,,,,,,,,,,,,,,,,,,,,
,,,,,,,,,,,,,,,,,198766,18,2022-01-28_17h17.22.146,lexical_decision_task_DD_L5,2021.2.3,MacIntel,60.0024001,,,,,,,,,,,,0.8414,0,,,,,,,,,,,,,,m,0,0.8414,,,,,,,,0.136370985,-0.391550429,0,0,0,,0,128,128,166,1,SHORY,HB,old,z,./images/SHORYHB.png,,,,,,,,,,,,,,,,,,,,,,
,,,,,,,,,,,,,,,,,198766,18,2022-01-28_17h17.22.146,lexical_decision_task_DD_L5,2021.2.3,MacIntel,60.0024001,,,,,,,,,,,,0.7112,1,,,,,,,,,,,,,,m,1,0.7112,,,,,,,,0.136370985,-0.391550429,0,0,0,,0,129,129,58,1,CANOE,LB,old,m,./images/CANOELB.png,,,,,,,,,,,,,,,,,,,,,,
,,,,,,,,,,,,,,,,,198766,18,2022-01-28_17h17.22.146,lexical_decision_task_DD_L5,2021.2.3,MacIntel,60.0024001,,,,,,,,,,,,0.69,1,,,,,,,,,,,,,,m,1,0.69,,,,,,,,0.136370985,-0.391550429,0,0,0,,0,130,130,20,1,GRANNY,C,old,m,./images/GRANNY.png,,,,,,,,,,,,,,,,,,,,,,
,,,,,,,,,,,,,,,,,198766,18,2022-01-28_17h17.22.146,lexical_decision_task_DD_L5,2021.2.3,MacIntel,60.0024001,,,,,,,,,,,,0.5158,1,,,,,,,,,,,,,,m,1,0.5158,,,,,,,,0.136370985,-0.391550429,0,0,0,,0,131,131,16,1,GRAPE,LB,old,m,./images/GRAPELB.png,,,,,,,,,,,,,,,,,,,,,,
,,,,,,,,,,,,,,,,,198766,18,2022-01-28_17h17.22.146,lexical_decision_task_DD_L5,2021.2.3,MacIntel,60.0024001,,,,,,,,,,,,0.7198,1,,,,,,,,,,,,,,z,1,0.7198,,,,,,,,0.136370985,-0.391550429,0,0,0,,0,132,132,125,1,MOOKY,LB,old,z,./images/MOOKYLB.png,,,,,,,,,,,,,,,,,,,,,,
,,,,,,,,,,,,,,,,,198766,18,2022-01-28_17h17.22.146,lexical_decision_task_DD_L5,2021.2.3,MacIntel,60.0024001,,,,,,,,,,,,0.9341,1,,,,,,,,,,,,,,z,1,0.9341,,,,,,,,0.136370985,-0.391550429,0,0,0,,0,133,133,139,1,BLEAR,HB,old,z,./images/BLEARHB.png,,,,,,,,,,,,,,,,,,,,,,
,,,,,,,,,,,,,,,,,198766,18,2022-01-28_17h17.22.146,lexical_decision_task_DD_L5,2021.2.3,MacIntel,60.0024001,,,,,,,,,,,,0.8779,1,,,,,,,,,,,,,,m,1,0.8779,,,,,,,,0.136370985,-0.391550429,0,0,0,,0,134,134,67,1,POKER,LB,old,m,./images/POKERLB.png,,,,,,,,,,,,,,,,,,,,,,
,,,,,,,,,,,,,,,,,198766,18,2022-01-28_17h17.22.146,lexical_decision_task_DD_L5,2021.2.3,MacIntel,60.0024001,,,,,,,,,,,,0.9947,1,,,,,,,,,,,,,,z,1,0.9947,,,,,,,,0.136370985,-0.391550429,0,0,0,,0,135,135,120,1,RINED,C,old,z,./images/RINED.png,,,,,,,,,,,,,,,,,,,,,,
,,,,,,,,,,,,,,,,,198766,18,2022-01-28_17h17.22.146,lexical_decision_task_DD_L5,2021.2.3,MacIntel,60.0024001,,,,,,,,,,,,0.7301,1,,,,,,,,,,,,,,m,1,0.7301,,,,,,,,0.136370985,-0.391550429,0,0,0,,0,136,136,54,1,CHERRY,HB,old,m,./images/CHERRYHB.png,,,,,,,,,,,,,,,,,,,,,,
,,,,,,,,,,,,,,,,,198766,18,2022-01-28_17h17.22.146,lexical_decision_task_DD_L5,2021.2.3,MacIntel,60.0024001,,,,,,,,,,,,0.9757,0,,,,,,,,,,,,,,m,0,0.9757,,,,,,,,0.136370985,-0.391550429,0,0,0,,0,137,137,130,1,CRILL,HB,old,z,./images/CRILLHB.png,,,,,,,,,,,,,,,,,,,,,,
,,,,,,,,,,,,,,,,,198766,18,2022-01-28_17h17.22.146,lexical_decision_task_DD_L5,2021.2.3,MacIntel,60.0024001,,,,,,,,,,,,0.7616,1,,,,,,,,,,,,,,z,1,0.7616,,,,,,,,0.136370985,-0.391550429,0,0,0,,0,138,138,95,1,HANTY,LB,old,z,./images/HANTYLB.png,,,,,,,,,,,,,,,,,,,,,,
,,,,,,,,,,,,,,,,,198766,18,2022-01-28_17h17.22.146,lexical_decision_task_DD_L5,2021.2.3,MacIntel,60.0024001,,,,,,,,,,,,0.7515,1,,,,,,,,,,,,,,z,1,0.7515,,,,,,,,0.136370985,-0.391550429,0,0,0,,0,139,139,134,1,TROSS,LB,old,z,./images/TROSSLB.png,,,,,,,,,,,,,,,,,,,,,,
,,,,,,,,,,,,,,,,,198766,18,2022-01-28_17h17.22.146,lexical_decision_task_DD_L5,2021.2.3,MacIntel,60.0024001,,,,,,,,,,,,0.7764,1,,,,,,,,,,,,,,m,1,0.7764,,,,,,,,0.136370985,-0.391550429,0,0,0,,0,140,140,51,1,SAUCE,HB,old,m,./images/SAUCEHB.png,,,,,,,,,,,,,,,,,,,,,,
,,,,,,,,,,,,,,,,,198766,18,2022-01-28_17h17.22.146,lexical_decision_task_DD_L5,2021.2.3,MacIntel,60.0024001,,,,,,,,,,,,0.6952,1,,,,,,,,,,,,,,z,1,0.6952,,,,,,,,0.136370985,-0.391550429,0,0,0,,0,141,141,113,1,LINEW,LB,old,z,./images/LINEWLB.png,,,,,,,,,,,,,,,,,,,,,,
,,,,,,,,,,,,,,,,,198766,18,2022-01-28_17h17.22.146,lexical_decision_task_DD_L5,2021.2.3,MacIntel,60.0024001,,,,,,,,,,,,0.5642,1,,,,,,,,,,,,,,m,1,0.5642,,,,,,,,0.136370985,-0.391550429,0,0,0,,0,142,142,2,1,STOVE,C,old,m,./images/STOVE.png,,,,,,,,,,,,,,,,,,,,,,
,,,,,,,,,,,,,,,,,198766,18,2022-01-28_17h17.22.146,lexical_decision_task_DD_L5,2021.2.3,MacIntel,60.0024001,,,,,,,,,,,,0.7047,1,,,,,,,,,,,,,,m,1,0.7047,,,,,,,,0.136370985,-0.391550429,0,0,0,,0,143,143,14,1,FENCE,C,old,m,./images/FENCE.png,,,,,,,,,,,,,,,,,,,,,,
,,,,,,,,,,,,,,,,,198766,18,2022-01-28_17h17.22.146,lexical_decision_task_DD_L5,2021.2.3,MacIntel,60.0024001,,,,,,,,,,,,0.8951,1,,,,,,,,,,,,,,z,1,0.8951,,,,,,,,0.136370985,-0.391550429,0,0,0,,0,144,144,151,1,TINKY,HB,old,z,./images/TINKYHB.png,,,,,,,,,,,,,,,,,,,,,,
,,,,,,,,,,,,,,,,,198766,18,2022-01-28_17h17.22.146,lexical_decision_task_DD_L5,2021.2.3,MacIntel,60.0024001,,,,,,,,,,,,0.6075,1,,,,,,,,,,,,,,m,1,0.6075,,,,,,,,0.136370985,-0.391550429,0,0,0,,0,145,145,77,1,WHEEL,C,old,m,./images/WHEEL.png,,,,,,,,,,,,,,,,,,,,,,
,,,,,,,,,,,,,,,,,198766,18,2022-01-28_17h17.22.146,lexical_decision_task_DD_L5,2021.2.3,MacIntel,60.0024001,,,,,,,,,,,,1.0475,0,,,,,,,,,,,,,,z,0,1.0475,,,,,,,,0.136370985,-0.391550429,0,0,0,,0,146,146,72,1,FLASK,HB,old,m,./images/FLASKHB.png,,,,,,,,,,,,,,,,,,,,,,
,,,,,,,,,,,,,,,,,198766,18,2022-01-28_17h17.22.146,lexical_decision_task_DD_L5,2021.2.3,MacIntel,60.0024001,,,,,,,,,,,,0.9009,1,,,,,,,,,,,,,,z,1,0.9009,,,,,,,,0.136370985,-0.391550429,0,0,0,,0,147,147,124,1,TUNCH,HB,old,z,./images/TUNCHHB.png,,,,,,,,,,,,,,,,,,,,,,
,,,,,,,,,,,,,,,,,198766,18,2022-01-28_17h17.22.146,lexical_decision_task_DD_L5,2021.2.3,MacIntel,60.0024001,,,,,,,,,,,,1.1114,0,,,,,,,,,,,,,,m,0,1.1114,,,,,,,,0.136370985,-0.391550429,0,0,0,,0,148,148,110,1,CRUNK,LB,old,z,./images/CRUNKLB.png,,,,,,,,,,,,,,,,,,,,,,
,,,,,,,,,,,,,,,,,198766,18,2022-01-28_17h17.22.146,lexical_decision_task_DD_L5,2021.2.3,MacIntel,60.0024001,,,,,,,,,,,,0.4861,0,,,,,,,,,,,,,,m,0,0.4861,,,,,,,,0.136370985,-0.391550429,0,0,0,,0,149,149,98,1,BAMPS,LB,old,z,./images/BAMPSLB.png,,,,,,,,,,,,,,,,,,,,,,
,,,,,,,,,,,,,,,,,198766,18,2022-01-28_17h17.22.146,lexical_decision_task_DD_L5,2021.2.3,MacIntel,60.0024001,,,,,,,,,,,,0.6522,1,,,,,,,,,,,,,,m,1,0.6522,,,,,,,,0.136370985,-0.391550429,0,0,0,,0,150,150,70,1,BANANA,LB,old,m,./images/BANANALB.png,,,,,,,,,,,,,,,,,,,,,,
,,,,,,,,,,,,,,,,,198766,18,2022-01-28_17h17.22.146,lexical_decision_task_DD_L5,2021.2.3,MacIntel,60.0024001,,,,,,,,,,,,0.7579,1,,,,,,,,,,,,,,m,1,0.7579,,,,,,,,0.136370985,-0.391550429,0,0,0,,0,151,151,32,1,HOCKEY,C,old,m,./images/HOCKEY.png,,,,,,,,,,,,,,,,,,,,,,
,,,,,,,,,,,,,,,,,198766,18,2022-01-28_17h17.22.146,lexical_decision_task_DD_L5,2021.2.3,MacIntel,60.0024001,,,,,,,,,,,,0.726,1,,,,,,,,,,,,,,m,1,0.726,,,,,,,,0.136370985,-0.391550429,0,0,0,,0,152,152,41,1,STREAM,C,old,m,./images/STREAM.png,,,,,,,,,,,,,,,,,,,,,,
,,,,,,,,,,,,,,,,,198766,18,2022-01-28_17h17.22.146,lexical_decision_task_DD_L5,2021.2.3,MacIntel,60.0024001,,,,,,,,,,,,0.7432,1,,,,,,,,,,,,,,z,1,0.7432,,,,,,,,0.136370985,-0.391550429,0,0,0,,0,153,153,141,1,PLEET,C,old,z,./images/PLEET.png,,,,,,,,,,,,,,,,,,,,,,
,,,,,,,,,,,,,,,,,198766,18,2022-01-28_17h17.22.146,lexical_decision_task_DD_L5,2021.2.3,MacIntel,60.0024001,,,,,,,,,,,,0.8937,1,,,,,,,,,,,,,,z,1,0.8937,,,,,,,,0.136370985,-0.391550429,0,0,0,,0,154,154,158,1,EGECT,LB,old,z,./images/EGECTLB.png,,,,,,,,,,,,,,,,,,,,,,
,,,,,,,,,,,,,,,,,198766,18,2022-01-28_17h17.22.146,lexical_decision_task_DD_L5,2021.2.3,MacIntel,60.0024001,,,,,,,,,,,,1.1782,1,,,,,,,,,,,,,,z,1,1.1782,,,,,,,,0.136370985,-0.391550429,0,0,0,,0,155,155,160,1,VEETS,HB,old,z,./images/VEETSHB.png,,,,,,,,,,,,,,,,,,,,,,
,,,,,,,,,,,,,,,,,198766,18,2022-01-28_17h17.22.146,lexical_decision_task_DD_L5,2021.2.3,MacIntel,60.0024001,,,,,,,,,,,,0.7059,1,,,,,,,,,,,,,,m,1,0.7059,,,,,,,,0.136370985,-0.391550429,0,0,0,,0,156,156,23,1,CLOTH,C,old,m,./images/CLOTH.png,,,,,,,,,,,,,,,,,,,,,,
,,,,,,,,,,,,,,,,,198766,18,2022-01-28_17h17.22.146,lexical_decision_task_DD_L5,2021.2.3,MacIntel,60.0024001,,,,,,,,,,,,0.5956,1,,,,,,,,,,,,,,m,1,0.5956,,,,,,,,0.136370985,-0.391550429,0,0,0,,0,157,157,55,1,ALLEY,LB,old,m,./images/ALLEYLB.png,,,,,,,,,,,,,,,,,,,,,,
,,,,,,,,,,,,,,,,,198766,18,2022-01-28_17h17.22.146,lexical_decision_task_DD_L5,2021.2.3,MacIntel,60.0024001,,,,,,,,,,,,0.8747,0,,,,,,,,,,,,,,m,0,0.8747,,,,,,,,0.136370985,-0.391550429,0,0,0,,0,158,158,162,1,LEICH,C,old,z,./images/LEICH.png,,,,,,,,,,,,,,,,,,,,,,
,,,,,,,,,,,,,,,,,198766,18,2022-01-28_17h17.22.146,lexical_decision_task_DD_L5,2021.2.3,MacIntel,60.0024001,,,,,,,,,,,,1.5487,1,,,,,,,,,,,,,,z,1,1.5487,,,,,,,,0.136370985,-0.391550429,0,0,0,,0,159,159,144,1,NAIRY,C,old,z,./images/NAIRY.png,,,,,,,,,,,,,,,,,,,,,,
,,,,,,,,,,,,,,,,,198766,18,2022-01-28_17h17.22.146,lexical_decision_task_DD_L5,2021.2.3,MacIntel,60.0024001,,,,,,,,,,,,0.6371,1,,,,,,,,,,,,,,m,1,0.6371,,,,,,,,0.136370985,-0.391550429,0,0,0,,0,160,160,19,1,DONKEY,LB,old,m,./images/DONKEYLB.png,,,,,,,,,,,,,,,,,,,,,,
,,,,,,,,,,,,,,,,,198766,18,2022-01-28_17h17.22.146,lexical_decision_task_DD_L5,2021.2.3,MacIntel,60.0024001,,,,,,,,,,,,1.0128,1,,,,,,,,,,,,,,m,1,1.0128,,,,,,,,0.136370985,-0.391550429,0,0,0,,0,161,161,57,1,FERRY,HB,old,m,./images/FERRYHB.png,,,,,,,,,,,,,,,,,,,,,,
,,,,,,,,,,,,,,,,,198766,18,2022-01-28_17h17.22.146,lexical_decision_task_DD_L5,2021.2.3,MacIntel,60.0024001,,,,,,,,,,,,0.944,1,,,,,,,,,,,,,,m,1,0.944,,,,,,,,0.136370985,-0.391550429,0,0,0,,0,162,162,30,1,SLOPE,HB,old,m,./images/SLOPEHB.png,,,,,,,,,,,,,,,,,,,,,,
,,,,,,,,,,,,,,,,,198766,18,2022-01-28_17h17.22.146,lexical_decision_task_DD_L5,2021.2.3,MacIntel,60.0024001,,,,,,,,,,,,0.7354,1,,,,,,,,,,,,,,m,1,0.7354,,,,,,,,0.136370985,-0.391550429,0,0,0,,0,163,163,69,1,ARROW,HB,old,m,./images/ARROWHB.png,,,,,,,,,,,,,,,,,,,,,,
,,,,,,,,,,,,,,,,,198766,18,2022-01-28_17h17.22.146,lexical_decision_task_DD_L5,2021.2.3,MacIntel,60.0024001,,,,,,,,,,,,0.7129,1,,,,,,,,,,,,,,m,1,0.7129,,,,,,,,0.136370985,-0.391550429,0,0,0,,0,164,164,28,1,CASINO,LB,old,m,./images/CASINOLB.png,,,,,,,,,,,,,,,,,,,,,,
,,,,,,,,,,,,,,,,,198766,18,2022-01-28_17h17.22.146,lexical_decision_task_DD_L5,2021.2.3,MacIntel,60.0024001,,,,,,,,,,,,0.4764,0,,,,,,,,,,,,,,m,0,0.4764,,,,,,,,0.136370985,-0.391550429,0,0,0,,0,165,165,128,1,GRIFT,LB,old,z,./images/GRIFTLB.png,,,,,,,,,,,,,,,,,,,,,,
,,,,,,,,,,,,,,,,,198766,18,2022-01-28_17h17.22.146,lexical_decision_task_DD_L5,2021.2.3,MacIntel,60.0024001,,,,,,,,,,,,0.7779,1,,,,,,,,,,,,,,z,1,0.7779,,,,,,,,0.136370985,-0.391550429,0,0,0,,0,166,166,112,1,MYING,HB,old,z,./images/MYINGHB.png,,,,,,,,,,,,,,,,,,,,,,
,,,,,,,,,,,,,,,,,198766,18,2022-01-28_17h17.22.146,lexical_decision_task_DD_L5,2021.2.3,MacIntel,60.0024001,,,,,,,,,,,,10.5926,1,,,,,,,,,,,,,,z,1,10.5926,,,,,,,,0.136370985,-0.391550429,0,0,0,,0,167,167,118,1,BAVEL,HB,old,z,./images/BAVELHB.png,,,,,,,,,,,,,,,,,,,,,,
space,0.136370985,-0.391550429,0,0,0,,,,,,,1,test,"In the next phase you will be presented with the words from the the first phase. Your job is to decide whether you remember seeing the word or not. If you remember seeing the word press ""old"" or type ""m"". If you do not remember seeing the word press ""new"" or type ""z"". Please press the space bar or click on continue to begin. ",,,198766,18,2022-01-28_17h17.22.146,lexical_decision_task_DD_L5,2021.2.3,MacIntel,60.0024001,17.8882,,,,,,,,,,,,,,,,,,,,,,,,,,,,,,,,,,,,,,,,,,,,,,,,,,,,,0,0,0,0,1,,,,,,,,,,,,,,,,
space,0.136370985,-0.391550429,0,0,0,,,,,,,1,test,"In the next phase you will be presented with the words from the the first phase. Your job is to decide whether you remember seeing the word or not. If you remember seeing the word press ""old"" or type ""m"". If you do not remember seeing the word press ""new"" or type ""z"". Please press the space bar or click on continue to begin. ",,,198766,18,2022-01-28_17h17.22.146,lexical_decision_task_DD_L5,2021.2.3,MacIntel,60.0024001,1.886,,,,,,,,,,,,,,,,,,,,,,,,,,,,,,,,,,,,,,,,,,,,,,,,,,,,,1,0,1,0,1,,,,,,,,,,,,,,,,
space,0.136370985,-0.391550429,0,0,0,,,,,,,1,test,"In the next phase you will be presented with the words from the the first phase. Your job is to decide whether you remember seeing the word or not. If you remember seeing the word press ""old"" or type ""m"". If you do not remember seeing the word press ""new"" or type ""z"". Please press the space bar or click on continue to begin. ",,,198766,18,2022-01-28_17h17.22.146,lexical_decision_task_DD_L5,2021.2.3,MacIntel,60.0024001,1.3193,,,,,,,,,,,,,,,,,,,,,,,,,,,,,,,,,,,,,,,,,,,,,,,,,,,,,2,0,2,0,1,,,,,,,,,,,,,,,,
,0.141896498,-0.396414863,1,0,0,instr_done_button,,,,,,1,test,"In the next phase you will be presented with the words from the the first phase. Your job is to decide whether you remember seeing the word or not. If you remember seeing the word press ""old"" or type ""m"". If you do not remember seeing the word press ""new"" or type ""z"". Please press the space bar or click on continue to begin. ",,,198766,18,2022-01-28_17h17.22.146,lexical_decision_task_DD_L5,2021.2.3,MacIntel,60.0024001,,,,,,,,,,,,,,,,,,,,,,,,,,,,,,,,,,,,,,,,,,,,,,,,,,,,,,3,0,3,0,1,,,,,,,,,,,,,,,,
,0.077555881,-0.398162842,1,0,0,instr_done_button,,,,,,1,test,"In the next phase you will be presented with the words from the the first phase. Your job is to decide whether you remember seeing the word or not. If you remember seeing the word press ""old"" or type ""m"". If you do not remember seeing the word press ""new"" or type ""z"". Please press the space bar or click on continue to begin. ",,,198766,18,2022-01-28_17h17.22.146,lexical_decision_task_DD_L5,2021.2.3,MacIntel,60.0024001,,,,,,,,,,,,,,,,,,,,,,,,,,,,,,,,,,,,,,,,,,,,,,,,,,,,,,4,0,4,0,1,,,,,,,,,,,,,,,,
,,,,,,,,,,,,,,,,,198766,18,2022-01-28_17h17.22.146,lexical_decision_task_DD_L5,2021.2.3,MacIntel,60.0024001,,,,,,,,,,,,4.0687,1,,,,,,,,,,,,,,,,,,,,,,,,0.077555881,-0.398162842,0,0,0,,,,,,,GLOVE,LB,m,y,./images/GLOVELB.png,,,,,,,m,1,4.0687,,,,,,,,0,0,0,73,1,
,,,,,,,,,,,,,,,,,198766,18,2022-01-28_17h17.22.146,lexical_decision_task_DD_L5,2021.2.3,MacIntel,60.0024001,,,,,,,,,,,,1.7909,1,,,,,,,,,,,,,,,,,,,,,,,,0.077555881,-0.398162842,0,0,0,,,,,,,FLESH,HB,m,y,./images/FLESHHB.png,,,,,,,m,1,1.7909,,,,,,,,0,1,1,24,1,
,,,,,,,,,,,,,,,,,198766,18,2022-01-28_17h17.22.146,lexical_decision_task_DD_L5,2021.2.3,MacIntel,60.0024001,,,,,,,,,,,,2.3718,1,,,,,,,,,,,,,,,,,,,,,,,,0.077555881,-0.398162842,0,0,0,,,,,,,RHINO,HB,z,y,./images/RHINOHB.png,,,,,,,z,1,2.3718,,,,,,,,0,2,2,93,1,
,,,,,,,,,,,,,,,,,198766,18,2022-01-28_17h17.22.146,lexical_decision_task_DD_L5,2021.2.3,MacIntel,60.0024001,,,,,,,,,,,,0.8649,1,,,,,,,,,,,,,,,,,,,,,,,,0.077555881,-0.398162842,0,0,0,,,,,,,BASKET,C,m,y,./images/BASKET.png,,,,,,,m,1,0.8649,,,,,,,,0,3,3,44,1,
,,,,,,,,,,,,,,,,,198766,18,2022-01-28_17h17.22.146,lexical_decision_task_DD_L5,2021.2.3,MacIntel,60.0024001,,,,,,,,,,,,1.0191,1,,,,,,,,,,,,,,,,,,,,,,,,0.077555881,-0.398162842,0,0,0,,,,,,,TOMATO,HB,z,y,./images/TOMATOHB.png,,,,,,,z,1,1.0191,,,,,,,,0,4,4,84,1,
,,,,,,,,,,,,,,,,,198766,18,2022-01-28_17h17.22.146,lexical_decision_task_DD_L5,2021.2.3,MacIntel,60.0024001,,,,,,,,,,,,0.8434,1,,,,,,,,,,,,,,,,,,,,,,,,0.077555881,-0.398162842,0,0,0,,,,,,,CLOUD,C,m,y,./images/CLOUD.png,,,,,,,m,1,0.8434,,,,,,,,0,5,5,26,1,
,,,,,,,,,,,,,,,,,198766,18,2022-01-28_17h17.22.146,lexical_decision_task_DD_L5,2021.2.3,MacIntel,60.0024001,,,,,,,,,,,,0.8708,1,,,,,,,,,,,,,,,,,,,,,,,,0.077555881,-0.398162842,0,0,0,,,,,,,SKIING,C,z,y,./images/SKIING.png,,,,,,,z,1,0.8708,,,,,,,,0,6,6,101,1,
,,,,,,,,,,,,,,,,,198766,18,2022-01-28_17h17.22.146,lexical_decision_task_DD_L5,2021.2.3,MacIntel,60.0024001,,,,,,,,,,,,0.7805,1,,,,,,,,,,,,,,,,,,,,,,,,0.077555881,-0.398162842,0,0,0,,,,,,,CHERRY,HB,m,y,./images/CHERRYHB.png,,,,,,,m,1,0.7805,,,,,,,,0,7,7,54,1,
,,,,,,,,,,,,,,,,,198766,18,2022-01-28_17h17.22.146,lexical_decision_task_DD_L5,2021.2.3,MacIntel,60.0024001,,,,,,,,,,,,0.93,1,,,,,,,,,,,,,,,,,,,,,,,,0.077555881,-0.398162842,0,0,0,,,,,,,WEASEL,C,z,y,./images/WEASEL.png,,,,,,,z,1,0.93,,,,,,,,0,8,8,164,1,
,,,,,,,,,,,,,,,,,198766,18,2022-01-28_17h17.22.146,lexical_decision_task_DD_L5,2021.2.3,MacIntel,60.0024001,,,,,,,,,,,,0.7483,1,,,,,,,,,,,,,,,,,,,,,,,,0.077555881,-0.398162842,0,0,0,,,,,,,WALRUS,C,z,y,./images/WALRUS.png,,,,,,,z,1,0.7483,,,,,,,,0,9,9,107,1,
,,,,,,,,,,,,,,,,,198766,18,2022-01-28_17h17.22.146,lexical_decision_task_DD_L5,2021.2.3,MacIntel,60.0024001,,,,,,,,,,,,0.6818,1,,,,,,,,,,,,,,,,,,,,,,,,0.077555881,-0.398162842,0,0,0,,,,,,,TOWEL,LB,m,y,./images/TOWELLB.png,,,,,,,m,1,0.6818,,,,,,,,0,10,10,1,1,
,,,,,,,,,,,,,,,,,198766,18,2022-01-28_17h17.22.146,lexical_decision_task_DD_L5,2021.2.3,MacIntel,60.0024001,,,,,,,,,,,,3.3067,1,,,,,,,,,,,,,,,,,,,,,,,,0.077555881,-0.398162842,0,0,0,,,,,,,SAILOR,LB,z,y,./images/SAILORLB.png,,,,,,,z,1,3.3067,,,,,,,,0,11,11,151,1,
,,,,,,,,,,,,,,,,,198766,18,2022-01-28_17h17.22.146,lexical_decision_task_DD_L5,2021.2.3,MacIntel,60.0024001,,,,,,,,,,,,1.7495,1,,,,,,,,,,,,,,,,,,,,,,,,0.077555881,-0.398162842,0,0,0,,,,,,,FOLDER,HB,z,y,./images/FOLDERHB.png,,,,,,,z,1,1.7495,,,,,,,,0,12,12,126,1,
,,,,,,,,,,,,,,,,,198766,18,2022-01-28_17h17.22.146,lexical_decision_task_DD_L5,2021.2.3,MacIntel,60.0024001,,,,,,,,,,,,0.8808,1,,,,,,,,,,,,,,,,,,,,,,,,0.077555881,-0.398162842,0,0,0,,,,,,,VALLEY,C,m,y,./images/VALLEY.png,,,,,,,m,1,0.8808,,,,,,,,0,13,13,68,1,
,,,,,,,,,,,,,,,,,198766,18,2022-01-28_17h17.22.146,lexical_decision_task_DD_L5,2021.2.3,MacIntel,60.0024001,,,,,,,,,,,,0.7963,1,,,,,,,,,,,,,,,,,,,,,,,,0.077555881,-0.398162842,0,0,0,,,,,,,SLOPE,HB,m,y,./images/SLOPEHB.png,,,,,,,m,1,0.7963,,,,,,,,0,14,14,30,1,
,,,,,,,,,,,,,,,,,198766,18,2022-01-28_17h17.22.146,lexical_decision_task_DD_L5,2021.2.3,MacIntel,60.0024001,,,,,,,,,,,,1.0978,1,,,,,,,,,,,,,,,,,,,,,,,,0.077555881,-0.398162842,0,0,0,,,,,,,FARMER,C,z,y,./images/FARMER.png,,,,,,,z,1,1.0978,,,,,,,,0,15,15,149,1,
,,,,,,,,,,,,,,,,,198766,18,2022-01-28_17h17.22.146,lexical_decision_task_DD_L5,2021.2.3,MacIntel,60.0024001,,,,,,,,,,,,1.6647,0,,,,,,,,,,,,,,,,,,,,,,,,0.077555881,-0.398162842,0,0,0,,,,,,,BUNNY,LB,m,y,./images/BUNNYLB.png,,,,,,,z,0,1.6647,,,,,,,,0,16,16,13,1,
,,,,,,,,,,,,,,,,,198766,18,2022-01-28_17h17.22.146,lexical_decision_task_DD_L5,2021.2.3,MacIntel,60.0024001,,,,,,,,,,,,1.1642,1,,,,,,,,,,,,,,,,,,,,,,,,0.077555881,-0.398162842,0,0,0,,,,,,,WAGON,LB,m,y,./images/WAGONLB.png,,,,,,,m,1,1.1642,,,,,,,,0,17,17,7,1,
,,,,,,,,,,,,,,,,,198766,18,2022-01-28_17h17.22.146,lexical_decision_task_DD_L5,2021.2.3,MacIntel,60.0024001,,,,,,,,,,,,1.72,1,,,,,,,,,,,,,,,,,,,,,,,,0.077555881,-0.398162842,0,0,0,,,,,,,DESERT,LB,m,y,./images/DESERTLB.png,,,,,,,m,1,1.72,,,,,,,,0,18,18,52,1,
,,,,,,,,,,,,,,,,,198766,18,2022-01-28_17h17.22.146,lexical_decision_task_DD_L5,2021.2.3,MacIntel,60.0024001,,,,,,,,,,,,0.7135,1,,,,,,,,,,,,,,,,,,,,,,,,0.077555881,-0.398162842,0,0,0,,,,,,,BONNET,C,z,y,./images/BONNET.png,,,,,,,z,1,0.7135,,,,,,,,0,19,19,95,1,
,,,,,,,,,,,,,,,,,198766,18,2022-01-28_17h17.22.146,lexical_decision_task_DD_L5,2021.2.3,MacIntel,60.0024001,,,,,,,,,,,,0.8314,0,,,,,,,,,,,,,,,,,,,,,,,,0.077555881,-0.398162842,0,0,0,,,,,,,BOILER,HB,m,y,./images/BOILERHB.png,,,,,,,z,0,0.8314,,,,,,,,0,20,20,36,1,
,,,,,,,,,,,,,,,,,198766,18,2022-01-28_17h17.22.146,lexical_decision_task_DD_L5,2021.2.3,MacIntel,60.0024001,,,,,,,,,,,,0.8857,1,,,,,,,,,,,,,,,,,,,,,,,,0.077555881,-0.398162842,0,0,0,,,,,,,SNACK,LB,z,y,./images/SNACKLB.png,,,,,,,z,1,0.8857,,,,,,,,0,21,21,157,1,
,,,,,,,,,,,,,,,,,198766,18,2022-01-28_17h17.22.146,lexical_decision_task_DD_L5,2021.2.3,MacIntel,60.0024001,,,,,,,,,,,,1.2893,0,,,,,,,,,,,,,,,,,,,,,,,,0.077555881,-0.398162842,0,0,0,,,,,,,CHALK,LB,m,y,./images/CHALKLB.png,,,,,,,z,0,1.2893,,,,,,,,0,22,22,25,1,
,,,,,,,,,,,,,,,,,198766,18,2022-01-28_17h17.22.146,lexical_decision_task_DD_L5,2021.2.3,MacIntel,60.0024001,,,,,,,,,,,,0.9694,1,,,,,,,,,,,,,,,,,,,,,,,,0.077555881,-0.398162842,0,0,0,,,,,,,JELLY,LB,z,y,./images/JELLYLB.png,,,,,,,z,1,0.9694,,,,,,,,0,23,23,148,1,
,,,,,,,,,,,,,,,,,198766,18,2022-01-28_17h17.22.146,lexical_decision_task_DD_L5,2021.2.3,MacIntel,60.0024001,,,,,,,,,,,,0.8311,1,,,,,,,,,,,,,,,,,,,,,,,,0.077555881,-0.398162842,0,0,0,,,,,,,MOTOR,LB,z,y,./images/MOTORLB.png,,,,,,,z,1,0.8311,,,,,,,,0,24,24,97,1,
,,,,,,,,,,,,,,,,,198766,18,2022-01-28_17h17.22.146,lexical_decision_task_DD_L5,2021.2.3,MacIntel,60.0024001,,,,,,,,,,,,1.0306,1,,,,,,,,,,,,,,,,,,,,,,,,0.077555881,-0.398162842,0,0,0,,,,,,,TULIP,C,z,y,./images/TULIP.png,,,,,,,z,1,1.0306,,,,,,,,0,25,25,92,1,
,,,,,,,,,,,,,,,,,198766,18,2022-01-28_17h17.22.146,lexical_decision_task_DD_L5,2021.2.3,MacIntel,60.0024001,,,,,,,,,,,,0.6826,1,,,,,,,,,,,,,,,,,,,,,,,,0.077555881,-0.398162842,0,0,0,,,,,,,BAMBOO,C,m,y,./images/BAMBOO.png,,,,,,,m,1,0.6826,,,,,,,,0,26,26,5,1,
,,,,,,,,,,,,,,,,,198766,18,2022-01-28_17h17.22.146,lexical_decision_task_DD_L5,2021.2.3,MacIntel,60.0024001,,,,,,,,,,,,0.9583,1,,,,,,,,,,,,,,,,,,,,,,,,0.077555881,-0.398162842,0,0,0,,,,,,,BAKER,HB,m,y,./images/BAKERHB.png,,,,,,,m,1,0.9583,,,,,,,,0,27,27,63,1,
,,,,,,,,,,,,,,,,,198766,18,2022-01-28_17h17.22.146,lexical_decision_task_DD_L5,2021.2.3,MacIntel,60.0024001,,,,,,,,,,,,0.8821,1,,,,,,,,,,,,,,,,,,,,,,,,0.077555881,-0.398162842,0,0,0,,,,,,,PEACH,C,z,y,./images/PEACH.png,,,,,,,z,1,0.8821,,,,,,,,0,28,28,119,1,
,,,,,,,,,,,,,,,,,198766,18,2022-01-28_17h17.22.146,lexical_decision_task_DD_L5,2021.2.3,MacIntel,60.0024001,,,,,,,,,,,,0.7082,1,,,,,,,,,,,,,,,,,,,,,,,,0.077555881,-0.398162842,0,0,0,,,,,,,CANDLE,LB,z,y,./images/CANDLELB.png,,,,,,,z,1,0.7082,,,,,,,,0,29,29,145,1,
,,,,,,,,,,,,,,,,,198766,18,2022-01-28_17h17.22.146,lexical_decision_task_DD_L5,2021.2.3,MacIntel,60.0024001,,,,,,,,,,,,1.4308,1,,,,,,,,,,,,,,,,,,,,,,,,0.077555881,-0.398162842,0,0,0,,,,,,,BARREL,C,z,y,./images/BARREL.png,,,,,,,z,1,1.4308,,,,,,,,0,30,30,116,1,
,,,,,,,,,,,,,,,,,198766,18,2022-01-28_17h17.22.146,lexical_decision_task_DD_L5,2021.2.3,MacIntel,60.0024001,,,,,,,,,,,,0.7498,1,,,,,,,,,,,,,,,,,,,,,,,,0.077555881,-0.398162842,0,0,0,,,,,,,JAGUAR,HB,z,y,./images/JAGUARHB.png,,,,,,,z,1,0.7498,,,,,,,,0,31,31,102,1,
,,,,,,,,,,,,,,,,,198766,18,2022-01-28_17h17.22.146,lexical_decision_task_DD_L5,2021.2.3,MacIntel,60.0024001,,,,,,,,,,,,0.812,1,,,,,,,,,,,,,,,,,,,,,,,,0.077555881,-0.398162842,0,0,0,,,,,,,FERRY,HB,m,y,./images/FERRYHB.png,,,,,,,m,1,0.812,,,,,,,,0,32,32,57,1,
,,,,,,,,,,,,,,,,,198766,18,2022-01-28_17h17.22.146,lexical_decision_task_DD_L5,2021.2.3,MacIntel,60.0024001,,,,,,,,,,,,1.7159,0,,,,,,,,,,,,,,,,,,,,,,,,0.077555881,-0.398162842,0,0,0,,,,,,,QUILL,LB,z,y,./images/QUILLLB.png,,,,,,,m,0,1.7159,,,,,,,,0,33,33,115,1,
,,,,,,,,,,,,,,,,,198766,18,2022-01-28_17h17.22.146,lexical_decision_task_DD_L5,2021.2.3,MacIntel,60.0024001,,,,,,,,,,,,0.7484,1,,,,,,,,,,,,,,,,,,,,,,,,0.077555881,-0.398162842,0,0,0,,,,,,,PARCEL,HB,m,y,./images/PARCELHB.png,,,,,,,m,1,0.7484,,,,,,,,0,34,34,18,1,
,,,,,,,,,,,,,,,,,198766,18,2022-01-28_17h17.22.146,lexical_decision_task_DD_L5,2021.2.3,MacIntel,60.0024001,,,,,,,,,,,,0.7395,1,,,,,,,,,,,,,,,,,,,,,,,,0.077555881,-0.398162842,0,0,0,,,,,,,STAIN,HB,m,y,./images/STAINHB.png,,,,,,,m,1,0.7395,,,,,,,,0,35,35,6,1,
,,,,,,,,,,,,,,,,,198766,18,2022-01-28_17h17.22.146,lexical_decision_task_DD_L5,2021.2.3,MacIntel,60.0024001,,,,,,,,,,,,0.6129,1,,,,,,,,,,,,,,,,,,,,,,,,0.077555881,-0.398162842,0,0,0,,,,,,,RAZOR,LB,m,y,./images/RAZORLB.png,,,,,,,m,1,0.6129,,,,,,,,0,36,36,34,1,
,,,,,,,,,,,,,,,,,198766,18,2022-01-28_17h17.22.146,lexical_decision_task_DD_L5,2021.2.3,MacIntel,60.0024001,,,,,,,,,,,,0.9576,1,,,,,,,,,,,,,,,,,,,,,,,,0.077555881,-0.398162842,0,0,0,,,,,,,GREASE,HB,z,y,./images/GREASEHB.png,,,,,,,z,1,0.9576,,,,,,,,0,37,37,99,1,
,,,,,,,,,,,,,,,,,198766,18,2022-01-28_17h17.22.146,lexical_decision_task_DD_L5,2021.2.3,MacIntel,60.0024001,,,,,,,,,,,,0.6988,0,,,,,,,,,,,,,,,,,,,,,,,,0.077555881,-0.398162842,0,0,0,,,,,,,PLANET,C,m,y,./images/PLANET.png,,,,,,,z,0,0.6988,,,,,,,,0,38,38,80,1,
,,,,,,,,,,,,,,,,,198766,18,2022-01-28_17h17.22.146,lexical_decision_task_DD_L5,2021.2.3,MacIntel,60.0024001,,,,,,,,,,,,1.0501,1,,,,,,,,,,,,,,,,,,,,,,,,0.077555881,-0.398162842,0,0,0,,,,,,,GARDEN,LB,m,y,./images/GARDENLB.png,,,,,,,m,1,1.0501,,,,,,,,0,39,39,10,1,
,,,,,,,,,,,,,,,,,198766,18,2022-01-28_17h17.22.146,lexical_decision_task_DD_L5,2021.2.3,MacIntel,60.0024001,,,,,,,,,,,,3.2666,1,,,,,,,,,,,,,,,,,,,,,,,,0.077555881,-0.398162842,0,0,0,,,,,,,PENCE,LB,z,y,./images/PENCELB.png,,,,,,,z,1,3.2666,,,,,,,,0,40,40,100,1,
,,,,,,,,,,,,,,,,,198766,18,2022-01-28_17h17.22.146,lexical_decision_task_DD_L5,2021.2.3,MacIntel,60.0024001,,,,,,,,,,,,0.8154,1,,,,,,,,,,,,,,,,,,,,,,,,0.042874281,-0.42978163,1,0,0,,,,,,,PEBBLE,LB,m,y,./images/PEBBLELB.png,,,,,,,m,1,0.8154,,,,,,,,0,41,41,82,1,break_done_button
,,,,,,,,,,,,,,,,,198766,18,2022-01-28_17h17.22.146,lexical_decision_task_DD_L5,2021.2.3,MacIntel,60.0024001,,,,,,,,,,,,2.1475,0,,,,,,,,,,,,,,,,,,,,,,,,0.043572116,-0.42978163,0,0,0,,,,,,,BUBBLE,C,m,y,./images/BUBBLE.png,,,,,,,z,0,2.1475,,,,,,,,0,42,42,71,1,
,,,,,,,,,,,,,,,,,198766,18,2022-01-28_17h17.22.146,lexical_decision_task_DD_L5,2021.2.3,MacIntel,60.0024001,,,,,,,,,,,,0.8975,1,,,,,,,,,,,,,,,,,,,,,,,,0.043572116,-0.42978163,0,0,0,,,,,,,CANOE,LB,m,y,./images/CANOELB.png,,,,,,,m,1,0.8975,,,,,,,,0,43,43,58,1,
,,,,,,,,,,,,,,,,,198766,18,2022-01-28_17h17.22.146,lexical_decision_task_DD_L5,2021.2.3,MacIntel,60.0024001,,,,,,,,,,,,1.2814,1,,,,,,,,,,,,,,,,,,,,,,,,0.043572116,-0.42978163,0,0,0,,,,,,,SWEAT,HB,z,y,./images/SWEATHB.png,,,,,,,z,1,1.2814,,,,,,,,0,44,44,150,1,
,,,,,,,,,,,,,,,,,198766,18,2022-01-28_17h17.22.146,lexical_decision_task_DD_L5,2021.2.3,MacIntel,60.0024001,,,,,,,,,,,,0.9157,1,,,,,,,,,,,,,,,,,,,,,,,,0.043572116,-0.42978163,0,0,0,,,,,,,PURSE,C,z,y,./images/PURSE.png,,,,,,,z,1,0.9157,,,,,,,,0,45,45,146,1,
,,,,,,,,,,,,,,,,,198766,18,2022-01-28_17h17.22.146,lexical_decision_task_DD_L5,2021.2.3,MacIntel,60.0024001,,,,,,,,,,,,0.7311,1,,,,,,,,,,,,,,,,,,,,,,,,0.043572116,-0.42978163,0,0,0,,,,,,,TRIPOD,HB,z,y,./images/TRIPODHB.png,,,,,,,z,1,0.7311,,,,,,,,0,46,46,138,1,
,,,,,,,,,,,,,,,,,198766,18,2022-01-28_17h17.22.146,lexical_decision_task_DD_L5,2021.2.3,MacIntel,60.0024001,,,,,,,,,,,,0.7321,1,,,,,,,,,,,,,,,,,,,,,,,,0.043572116,-0.42978163,0,0,0,,,,,,,FLASK,HB,m,y,./images/FLASKHB.png,,,,,,,m,1,0.7321,,,,,,,,0,47,47,72,1,
,,,,,,,,,,,,,,,,,198766,18,2022-01-28_17h17.22.146,lexical_decision_task_DD_L5,2021.2.3,MacIntel,60.0024001,,,,,,,,,,,,0.6742,1,,,,,,,,,,,,,,,,,,,,,,,,0.043572116,-0.42978163,0,0,0,,,,,,,MUFFIN,LB,z,y,./images/MUFFINLB.png,,,,,,,z,1,0.6742,,,,,,,,0,48,48,139,1,
,,,,,,,,,,,,,,,,,198766,18,2022-01-28_17h17.22.146,lexical_decision_task_DD_L5,2021.2.3,MacIntel,60.0024001,,,,,,,,,,,,0.8586,0,,,,,,,,,,,,,,,,,,,,,,,,0.043572116,-0.42978163,0,0,0,,,,,,,BRUSH,C,m,y,./images/BRUSH.png,,,,,,,z,0,0.8586,,,,,,,,0,49,49,59,1,
,,,,,,,,,,,,,,,,,198766,18,2022-01-28_17h17.22.146,lexical_decision_task_DD_L5,2021.2.3,MacIntel,60.0024001,,,,,,,,,,,,0.5852,1,,,,,,,,,,,,,,,,,,,,,,,,0.043572116,-0.42978163,0,0,0,,,,,,,NOOSE,HB,z,y,./images/NOOSEHB.png,,,,,,,z,1,0.5852,,,,,,,,0,50,50,156,1,
,,,,,,,,,,,,,,,,,198766,18,2022-01-28_17h17.22.146,lexical_decision_task_DD_L5,2021.2.3,MacIntel,60.0024001,,,,,,,,,,,,0.9491,1,,,,,,,,,,,,,,,,,,,,,,,,0.043572116,-0.42978163,0,0,0,,,,,,,CANYON,LB,z,y,./images/CANYONLB.png,,,,,,,z,1,0.9491,,,,,,,,0,51,51,118,1,
,,,,,,,,,,,,,,,,,198766,18,2022-01-28_17h17.22.146,lexical_decision_task_DD_L5,2021.2.3,MacIntel,60.0024001,,,,,,,,,,,,0.6022,1,,,,,,,,,,,,,,,,,,,,,,,,0.043572116,-0.42978163,0,0,0,,,,,,,ENGINE,C,m,y,./images/ENGINE.png,,,,,,,m,1,0.6022,,,,,,,,0,52,52,38,1,
,,,,,,,,,,,,,,,,,198766,18,2022-01-28_17h17.22.146,lexical_decision_task_DD_L5,2021.2.3,MacIntel,60.0024001,,,,,,,,,,,,1.6342,0,,,,,,,,,,,,,,,,,,,,,,,,0.043572116,-0.42978163,0,0,0,,,,,,,GRAPE,LB,m,y,./images/GRAPELB.png,,,,,,,z,0,1.6342,,,,,,,,0,53,53,16,1,
,,,,,,,,,,,,,,,,,198766,18,2022-01-28_17h17.22.146,lexical_decision_task_DD_L5,2021.2.3,MacIntel,60.0024001,,,,,,,,,,,,0.7737,1,,,,,,,,,,,,,,,,,,,,,,,,0.043572116,-0.42978163,0,0,0,,,,,,,ONION,HB,z,y,./images/ONIONHB.png,,,,,,,z,1,0.7737,,,,,,,,0,54,54,135,1,
,,,,,,,,,,,,,,,,,198766,18,2022-01-28_17h17.22.146,lexical_decision_task_DD_L5,2021.2.3,MacIntel,60.0024001,,,,,,,,,,,,0.6333,1,,,,,,,,,,,,,,,,,,,,,,,,0.043572116,-0.42978163,0,0,0,,,,,,,BIRTH,LB,z,y,./images/BIRTHLB.png,,,,,,,z,1,0.6333,,,,,,,,0,55,55,121,1,
,,,,,,,,,,,,,,,,,198766,18,2022-01-28_17h17.22.146,lexical_decision_task_DD_L5,2021.2.3,MacIntel,60.0024001,,,,,,,,,,,,1.0163,0,,,,,,,,,,,,,,,,,,,,,,,,0.043572116,-0.42978163,0,0,0,,,,,,,WALNUT,HB,m,y,./images/WALNUTHB.png,,,,,,,z,0,1.0163,,,,,,,,0,56,56,0,1,
,,,,,,,,,,,,,,,,,198766,18,2022-01-28_17h17.22.146,lexical_decision_task_DD_L5,2021.2.3,MacIntel,60.0024001,,,,,,,,,,,,0.6465,1,,,,,,,,,,,,,,,,,,,,,,,,0.043572116,-0.42978163,0,0,0,,,,,,,COOKER,HB,z,y,./images/COOKERHB.png,,,,,,,z,1,0.6465,,,,,,,,0,57,57,153,1,
,,,,,,,,,,,,,,,,,198766,18,2022-01-28_17h17.22.146,lexical_decision_task_DD_L5,2021.2.3,MacIntel,60.0024001,,,,,,,,,,,,0.9173,1,,,,,,,,,,,,,,,,,,,,,,,,0.043572116,-0.42978163,0,0,0,,,,,,,TIGER,LB,m,y,./images/TIGERLB.png,,,,,,,m,1,0.9173,,,,,,,,0,58,58,37,1,
,,,,,,,,,,,,,,,,,198766,18,2022-01-28_17h17.22.146,lexical_decision_task_DD_L5,2021.2.3,MacIntel,60.0024001,,,,,,,,,,,,1.8316,1,,,,,,,,,,,,,,,,,,,,,,,,0.043572116,-0.42978163,0,0,0,,,,,,,CEMENT,C,z,y,./images/CEMENT.png,,,,,,,z,1,1.8316,,,,,,,,0,59,59,158,1,
,,,,,,,,,,,,,,,,,198766,18,2022-01-28_17h17.22.146,lexical_decision_task_DD_L5,2021.2.3,MacIntel,60.0024001,,,,,,,,,,,,0.7308,1,,,,,,,,,,,,,,,,,,,,,,,,0.043572116,-0.42978163,0,0,0,,,,,,,LIZARD,C,z,y,./images/LIZARD.png,,,,,,,z,1,0.7308,,,,,,,,0,60,60,128,1,
,,,,,,,,,,,,,,,,,198766,18,2022-01-28_17h17.22.146,lexical_decision_task_DD_L5,2021.2.3,MacIntel,60.0024001,,,,,,,,,,,,0.6915,1,,,,,,,,,,,,,,,,,,,,,,,,0.043572116,-0.42978163,0,0,0,,,,,,,STOOL,LB,m,y,./images/STOOLLB.png,,,,,,,m,1,0.6915,,,,,,,,0,61,61,43,1,
,,,,,,,,,,,,,,,,,198766,18,2022-01-28_17h17.22.146,lexical_decision_task_DD_L5,2021.2.3,MacIntel,60.0024001,,,,,,,,,,,,0.6987,1,,,,,,,,,,,,,,,,,,,,,,,,0.043572116,-0.42978163,0,0,0,,,,,,,WRIST,LB,z,y,./images/WRISTLB.png,,,,,,,z,1,0.6987,,,,,,,,0,62,62,109,1,
,,,,,,,,,,,,,,,,,198766,18,2022-01-28_17h17.22.146,lexical_decision_task_DD_L5,2021.2.3,MacIntel,60.0024001,,,,,,,,,,,,0.7142,0,,,,,,,,,,,,,,,,,,,,,,,,0.043572116,-0.42978163,0,0,0,,,,,,,ARTIST,LB,m,y,./images/ARTISTLB.png,,,,,,,z,0,0.7142,,,,,,,,0,63,63,61,1,
,,,,,,,,,,,,,,,,,198766,18,2022-01-28_17h17.22.146,lexical_decision_task_DD_L5,2021.2.3,MacIntel,60.0024001,,,,,,,,,,,,0.7407,0,,,,,,,,,,,,,,,,,,,,,,,,0.043572116,-0.42978163,0,0,0,,,,,,,RULER,LB,m,y,./images/RULERLB.png,,,,,,,z,0,0.7407,,,,,,,,0,64,64,79,1,
,,,,,,,,,,,,,,,,,198766,18,2022-01-28_17h17.22.146,lexical_decision_task_DD_L5,2021.2.3,MacIntel,60.0024001,,,,,,,,,,,,0.6815,1,,,,,,,,,,,,,,,,,,,,,,,,0.043572116,-0.42978163,0,0,0,,,,,,,SUNSET,LB,z,y,./images/SUNSETLB.png,,,,,,,z,1,0.6815,,,,,,,,0,65,65,166,1,
,,,,,,,,,,,,,,,,,198766,18,2022-01-28_17h17.22.146,lexical_decision_task_DD_L5,2021.2.3,MacIntel,60.0024001,,,,,,,,,,,,0.9975,1,,,,,,,,,,,,,,,,,,,,,,,,0.043572116,-0.42978163,0,0,0,,,,,,,MALLET,C,z,y,./images/MALLET.png,,,,,,,z,1,0.9975,,,,,,,,0,66,66,134,1,
,,,,,,,,,,,,,,,,,198766,18,2022-01-28_17h17.22.146,lexical_decision_task_DD_L5,2021.2.3,MacIntel,60.0024001,,,,,,,,,,,,1.5923,1,,,,,,,,,,,,,,,,,,,,,,,,0.043572116,-0.42978163,0,0,0,,,,,,,BERRY,C,z,y,./images/BERRY.png,,,,,,,z,1,1.5923,,,,,,,,0,67,67,131,1,
,,,,,,,,,,,,,,,,,198766,18,2022-01-28_17h17.22.146,lexical_decision_task_DD_L5,2021.2.3,MacIntel,60.0024001,,,,,,,,,,,,0.9729,1,,,,,,,,,,,,,,,,,,,,,,,,0.043572116,-0.42978163,0,0,0,,,,,,,URINE,LB,z,y,./images/URINELB.png,,,,,,,z,1,0.9729,,,,,,,,0,68,68,154,1,
,,,,,,,,,,,,,,,,,198766,18,2022-01-28_17h17.22.146,lexical_decision_task_DD_L5,2021.2.3,MacIntel,60.0024001,,,,,,,,,,,,0.8985,1,,,,,,,,,,,,,,,,,,,,,,,,0.043572116,-0.42978163,0,0,0,,,,,,,PASTA,C,z,y,./images/PASTA.png,,,,,,,z,1,0.8985,,,,,,,,0,69,69,89,1,
,,,,,,,,,,,,,,,,,198766,18,2022-01-28_17h17.22.146,lexical_decision_task_DD_L5,2021.2.3,MacIntel,60.0024001,,,,,,,,,,,,0.6213,1,,,,,,,,,,,,,,,,,,,,,,,,0.043572116,-0.42978163,0,0,0,,,,,,,MAMMAL,C,m,y,./images/MAMMAL.png,,,,,,,m,1,0.6213,,,,,,,,0,70,70,62,1,
,,,,,,,,,,,,,,,,,198766,18,2022-01-28_17h17.22.146,lexical_decision_task_DD_L5,2021.2.3,MacIntel,60.0024001,,,,,,,,,,,,0.8021,1,,,,,,,,,,,,,,,,,,,,,,,,0.043572116,-0.42978163,0,0,0,,,,,,,CLOTH,C,m,y,./images/CLOTH.png,,,,,,,m,1,0.8021,,,,,,,,0,71,71,23,1,
,,,,,,,,,,,,,,,,,198766,18,2022-01-28_17h17.22.146,lexical_decision_task_DD_L5,2021.2.3,MacIntel,60.0024001,,,,,,,,,,,,1.2498,1,,,,,,,,,,,,,,,,,,,,,,,,0.043572116,-0.42978163,0,0,0,,,,,,,SPORT,HB,z,y,./images/SPORTHB.png,,,,,,,z,1,1.2498,,,,,,,,0,72,72,132,1,
,,,,,,,,,,,,,,,,,198766,18,2022-01-28_17h17.22.146,lexical_decision_task_DD_L5,2021.2.3,MacIntel,60.0024001,,,,,,,,,,,,0.6833,1,,,,,,,,,,,,,,,,,,,,,,,,0.043572116,-0.42978163,0,0,0,,,,,,,SHIELD,HB,m,y,./images/SHIELDHB.png,,,,,,,m,1,0.6833,,,,,,,,0,73,73,48,1,
,,,,,,,,,,,,,,,,,198766,18,2022-01-28_17h17.22.146,lexical_decision_task_DD_L5,2021.2.3,MacIntel,60.0024001,,,,,,,,,,,,3.3646,1,,,,,,,,,,,,,,,,,,,,,,,,0.043572116,-0.42978163,0,0,0,,,,,,,JUNGLE,C,z,y,./images/JUNGLE.png,,,,,,,z,1,3.3646,,,,,,,,0,74,74,167,1,
,,,,,,,,,,,,,,,,,198766,18,2022-01-28_17h17.22.146,lexical_decision_task_DD_L5,2021.2.3,MacIntel,60.0024001,,,,,,,,,,,,0.6972,1,,,,,,,,,,,,,,,,,,,,,,,,0.043572116,-0.42978163,0,0,0,,,,,,,FENCE,C,m,y,./images/FENCE.png,,,,,,,m,1,0.6972,,,,,,,,0,75,75,14,1,
,,,,,,,,,,,,,,,,,198766,18,2022-01-28_17h17.22.146,lexical_decision_task_DD_L5,2021.2.3,MacIntel,60.0024001,,,,,,,,,,,,0.9486,1,,,,,,,,,,,,,,,,,,,,,,,,0.043572116,-0.42978163,0,0,0,,,,,,,BELLY,LB,z,y,./images/BELLYLB.png,,,,,,,z,1,0.9486,,,,,,,,0,76,76,94,1,
,,,,,,,,,,,,,,,,,198766,18,2022-01-28_17h17.22.146,lexical_decision_task_DD_L5,2021.2.3,MacIntel,60.0024001,,,,,,,,,,,,0.7645,1,,,,,,,,,,,,,,,,,,,,,,,,0.043572116,-0.42978163,0,0,0,,,,,,,CLOWN,LB,m,y,./images/CLOWNLB.png,,,,,,,m,1,0.7645,,,,,,,,0,77,77,22,1,
,,,,,,,,,,,,,,,,,198766,18,2022-01-28_17h17.22.146,lexical_decision_task_DD_L5,2021.2.3,MacIntel,60.0024001,,,,,,,,,,,,0.7042,1,,,,,,,,,,,,,,,,,,,,,,,,0.043572116,-0.42978163,0,0,0,,,,,,,SQUARE,HB,z,y,./images/SQUAREHB.png,,,,,,,z,1,0.7042,,,,,,,,0,78,78,90,1,
,,,,,,,,,,,,,,,,,198766,18,2022-01-28_17h17.22.146,lexical_decision_task_DD_L5,2021.2.3,MacIntel,60.0024001,,,,,,,,,,,,0.8644,1,,,,,,,,,,,,,,,,,,,,,,,,0.043572116,-0.42978163,0,0,0,,,,,,,PILOT,C,m,y,./images/PILOT.png,,,,,,,m,1,0.8644,,,,,,,,0,79,79,50,1,
,,,,,,,,,,,,,,,,,198766,18,2022-01-28_17h17.22.146,lexical_decision_task_DD_L5,2021.2.3,MacIntel,60.0024001,,,,,,,,,,,,0.9319,1,,,,,,,,,,,,,,,,,,,,,,,,0.043572116,-0.42978163,0,0,0,,,,,,,SHORE,HB,z,y,./images/SHOREHB.png,,,,,,,z,1,0.9319,,,,,,,,0,80,80,96,1,
,,,,,,,,,,,,,,,,,198766,18,2022-01-28_17h17.22.146,lexical_decision_task_DD_L5,2021.2.3,MacIntel,60.0024001,,,,,,,,,,,,0.7636,1,,,,,,,,,,,,,,,,,,,,,,,,0.043572116,-0.42978163,0,0,0,,,,,,,BANNER,LB,z,y,./images/BANNERLB.png,,,,,,,z,1,0.7636,,,,,,,,0,81,81,136,1,
,,,,,,,,,,,,,,,,,198766,18,2022-01-28_17h17.22.146,lexical_decision_task_DD_L5,2021.2.3,MacIntel,60.0024001,,,,,,,,,,,,0.7345,1,,,,,,,,,,,,,,,,,,,,,,,,0.043572116,-0.42978163,0,0,0,,,,,,,BROOM,HB,m,y,./images/BROOMHB.png,,,,,,,m,1,0.7345,,,,,,,,0,82,82,78,1,
,,,,,,,,,,,,,,,,,198766,18,2022-01-28_17h17.22.146,lexical_decision_task_DD_L5,2021.2.3,MacIntel,60.0024001,,,,,,,,,,,,0.8564,1,,,,,,,,,,,,,,,,,,,,,,,,0.043572116,-0.42978163,0,0,0,space,,,,,,MIDGET,LB,m,y,./images/MIDGETLB.png,147.3705,,,,,,m,1,0.8564,,,,,,,,0,83,83,76,1,
,,,,,,,,,,,,,,,,,198766,18,2022-01-28_17h17.22.146,lexical_decision_task_DD_L5,2021.2.3,MacIntel,60.0024001,,,,,,,,,,,,0.9491,1,,,,,,,,,,,,,,,,,,,,,,,,0.043572116,-0.42978163,0,0,0,,,,,,,BABOON,LB,z,y,./images/BABOONLB.png,,,,,,,z,1,0.9491,,,,,,,,0,84,84,142,1,
,,,,,,,,,,,,,,,,,198766,18,2022-01-28_17h17.22.146,lexical_decision_task_DD_L5,2021.2.3,MacIntel,60.0024001,,,,,,,,,,,,0.8553,0,,,,,,,,,,,,,,,,,,,,,,,,0.043572116,-0.42978163,0,0,0,,,,,,,POSTER,C,m,y,./images/POSTER.png,,,,,,,z,0,0.8553,,,,,,,,0,85,85,53,1,
,,,,,,,,,,,,,,,,,198766,18,2022-01-28_17h17.22.146,lexical_decision_task_DD_L5,2021.2.3,MacIntel,60.0024001,,,,,,,,,,,,1.1479,1,,,,,,,,,,,,,,,,,,,,,,,,0.043572116,-0.42978163,0,0,0,,,,,,,COUCH,C,z,y,./images/COUCH.png,,,,,,,z,1,1.1479,,,,,,,,0,86,86,161,1,
,,,,,,,,,,,,,,,,,198766,18,2022-01-28_17h17.22.146,lexical_decision_task_DD_L5,2021.2.3,MacIntel,60.0024001,,,,,,,,,,,,0.7982,0,,,,,,,,,,,,,,,,,,,,,,,,0.043572116,-0.42978163,0,0,0,,,,,,,CRATER,HB,m,y,./images/CRATERHB.png,,,,,,,z,0,0.7982,,,,,,,,0,87,87,3,1,
,,,,,,,,,,,,,,,,,198766,18,2022-01-28_17h17.22.146,lexical_decision_task_DD_L5,2021.2.3,MacIntel,60.0024001,,,,,,,,,,,,0.7309,1,,,,,,,,,,,,,,,,,,,,,,,,0.043572116,-0.42978163,0,0,0,,,,,,,TWINS,HB,z,y,./images/TWINSHB.png,,,,,,,z,1,0.7309,,,,,,,,0,88,88,144,1,
,,,,,,,,,,,,,,,,,198766,18,2022-01-28_17h17.22.146,lexical_decision_task_DD_L5,2021.2.3,MacIntel,60.0024001,,,,,,,,,,,,1.0678,1,,,,,,,,,,,,,,,,,,,,,,,,0.043572116,-0.42978163,0,0,0,,,,,,,MOSQUE,LB,z,y,./images/MOSQUELB.png,,,,,,,z,1,1.0678,,,,,,,,0,89,89,127,1,
,,,,,,,,,,,,,,,,,198766,18,2022-01-28_17h17.22.146,lexical_decision_task_DD_L5,2021.2.3,MacIntel,60.0024001,,,,,,,,,,,,0.8662,1,,,,,,,,,,,,,,,,,,,,,,,,0.043572116,-0.42978163,0,0,0,,,,,,,STORM,HB,z,y,./images/STORMHB.png,,,,,,,z,1,0.8662,,,,,,,,0,90,90,114,1,
,,,,,,,,,,,,,,,,,198766,18,2022-01-28_17h17.22.146,lexical_decision_task_DD_L5,2021.2.3,MacIntel,60.0024001,,,,,,,,,,,,0.6832,1,,,,,,,,,,,,,,,,,,,,,,,,0.043572116,-0.42978163,0,0,0,,,,,,,LLAMA,C,m,y,./images/LLAMA.png,,,,,,,m,1,0.6832,,,,,,,,0,91,91,35,1,
,,,,,,,,,,,,,,,,,198766,18,2022-01-28_17h17.22.146,lexical_decision_task_DD_L5,2021.2.3,MacIntel,60.0024001,,,,,,,,,,,,0.7391,1,,,,,,,,,,,,,,,,,,,,,,,,0.043572116,-0.42978163,0,0,0,,,,,,,CANDY,HB,m,y,./images/CANDYHB.png,,,,,,,m,1,0.7391,,,,,,,,0,92,92,39,1,
,,,,,,,,,,,,,,,,,198766,18,2022-01-28_17h17.22.146,lexical_decision_task_DD_L5,2021.2.3,MacIntel,60.0024001,,,,,,,,,,,,0.598,1,,,,,,,,,,,,,,,,,,,,,,,,0.043572116,-0.42978163,0,0,0,,,,,,,HAMMER,HB,m,y,./images/HAMMERHB.png,,,,,,,m,1,0.598,,,,,,,,0,93,93,75,1,
,,,,,,,,,,,,,,,,,198766,18,2022-01-28_17h17.22.146,lexical_decision_task_DD_L5,2021.2.3,MacIntel,60.0024001,,,,,,,,,,,,0.6975,1,,,,,,,,,,,,,,,,,,,,,,,,0.043572116,-0.42978163,0,0,0,,,,,,,DRUMS,LB,z,y,./images/DRUMSLB.png,,,,,,,z,1,0.6975,,,,,,,,0,94,94,133,1,
,,,,,,,,,,,,,,,,,198766,18,2022-01-28_17h17.22.146,lexical_decision_task_DD_L5,2021.2.3,MacIntel,60.0024001,,,,,,,,,,,,0.919,1,,,,,,,,,,,,,,,,,,,,,,,,0.043572116,-0.42978163,0,0,0,,,,,,,POKER,LB,m,y,./images/POKERLB.png,,,,,,,m,1,0.919,,,,,,,,0,95,95,67,1,
,,,,,,,,,,,,,,,,,198766,18,2022-01-28_17h17.22.146,lexical_decision_task_DD_L5,2021.2.3,MacIntel,60.0024001,,,,,,,,,,,,0.8999,0,,,,,,,,,,,,,,,,,,,,,,,,0.043572116,-0.42978163,0,0,0,,,,,,,WHEEL,C,m,y,./images/WHEEL.png,,,,,,,z,0,0.8999,,,,,,,,0,96,96,77,1,
,,,,,,,,,,,,,,,,,198766,18,2022-01-28_17h17.22.146,lexical_decision_task_DD_L5,2021.2.3,MacIntel,60.0024001,,,,,,,,,,,,0.932,1,,,,,,,,,,,,,,,,,,,,,,,,0.043572116,-0.42978163,0,0,0,,,,,,,MAGGOT,HB,z,y,./images/MAGGOTHB.png,,,,,,,z,1,0.932,,,,,,,,0,97,97,117,1,
,,,,,,,,,,,,,,,,,198766,18,2022-01-28_17h17.22.146,lexical_decision_task_DD_L5,2021.2.3,MacIntel,60.0024001,,,,,,,,,,,,0.6906,0,,,,,,,,,,,,,,,,,,,,,,,,0.043572116,-0.42978163,0,0,0,,,,,,,CASINO,LB,m,y,./images/CASINOLB.png,,,,,,,z,0,0.6906,,,,,,,,0,98,98,28,1,
,,,,,,,,,,,,,,,,,198766,18,2022-01-28_17h17.22.146,lexical_decision_task_DD_L5,2021.2.3,MacIntel,60.0024001,,,,,,,,,,,,0.9908,1,,,,,,,,,,,,,,,,,,,,,,,,0.043572116,-0.42978163,0,0,0,,,,,,,BURIAL,C,z,y,./images/BURIAL.png,,,,,,,z,1,0.9908,,,,,,,,0,99,99,143,1,
,,,,,,,,,,,,,,,,,198766,18,2022-01-28_17h17.22.146,lexical_decision_task_DD_L5,2021.2.3,MacIntel,60.0024001,,,,,,,,,,,,0.824,1,,,,,,,,,,,,,,,,,,,,,,,,0.043572116,-0.42978163,0,0,0,,,,,,,CARPET,C,z,y,./images/CARPET.png,,,,,,,z,1,0.824,,,,,,,,0,100,100,137,1,
,,,,,,,,,,,,,,,,,198766,18,2022-01-28_17h17.22.146,lexical_decision_task_DD_L5,2021.2.3,MacIntel,60.0024001,,,,,,,,,,,,0.8651,1,,,,,,,,,,,,,,,,,,,,,,,,0.043572116,-0.42978163,0,0,0,,,,,,,THROAT,HB,z,y,./images/THROATHB.png,,,,,,,z,1,0.8651,,,,,,,,0,101,101,120,1,
,,,,,,,,,,,,,,,,,198766,18,2022-01-28_17h17.22.146,lexical_decision_task_DD_L5,2021.2.3,MacIntel,60.0024001,,,,,,,,,,,,0.734,1,,,,,,,,,,,,,,,,,,,,,,,,0.043572116,-0.42978163,0,0,0,,,,,,,STRING,C,z,y,./images/STRING.png,,,,,,,z,1,0.734,,,,,,,,0,102,102,125,1,
,,,,,,,,,,,,,,,,,198766,18,2022-01-28_17h17.22.146,lexical_decision_task_DD_L5,2021.2.3,MacIntel,60.0024001,,,,,,,,,,,,0.915,1,,,,,,,,,,,,,,,,,,,,,,,,0.043572116,-0.42978163,0,0,0,,,,,,,BLOKE,HB,m,y,./images/BLOKEHB.png,,,,,,,m,1,0.915,,,,,,,,0,103,103,12,1,
,,,,,,,,,,,,,,,,,198766,18,2022-01-28_17h17.22.146,lexical_decision_task_DD_L5,2021.2.3,MacIntel,60.0024001,,,,,,,,,,,,1.3008,0,,,,,,,,,,,,,,,,,,,,,,,,0.043572116,-0.42978163,0,0,0,,,,,,,PAINT,LB,z,y,./images/PAINTLB.png,,,,,,,m,0,1.3008,,,,,,,,0,104,104,91,1,
,,,,,,,,,,,,,,,,,198766,18,2022-01-28_17h17.22.146,lexical_decision_task_DD_L5,2021.2.3,MacIntel,60.0024001,,,,,,,,,,,,0.6489,1,,,,,,,,,,,,,,,,,,,,,,,,0.043572116,-0.42978163,0,0,0,,,,,,,BEARD,C,z,y,./images/BEARD.png,,,,,,,z,1,0.6489,,,,,,,,0,105,105,86,1,
,,,,,,,,,,,,,,,,,198766,18,2022-01-28_17h17.22.146,lexical_decision_task_DD_L5,2021.2.3,MacIntel,60.0024001,,,,,,,,,,,,0.6895,0,,,,,,,,,,,,,,,,,,,,,,,,0.043572116,-0.42978163,0,0,0,,,,,,,PARADE,C,m,y,./images/PARADE.png,,,,,,,z,0,0.6895,,,,,,,,0,106,106,17,1,
,,,,,,,,,,,,,,,,,198766,18,2022-01-28_17h17.22.146,lexical_decision_task_DD_L5,2021.2.3,MacIntel,60.0024001,,,,,,,,,,,,0.7982,1,,,,,,,,,,,,,,,,,,,,,,,,0.043572116,-0.42978163,0,0,0,,,,,,,HOCKEY,C,m,y,./images/HOCKEY.png,,,,,,,m,1,0.7982,,,,,,,,0,107,107,32,1,
,,,,,,,,,,,,,,,,,198766,18,2022-01-28_17h17.22.146,lexical_decision_task_DD_L5,2021.2.3,MacIntel,60.0024001,,,,,,,,,,,,0.6535,0,,,,,,,,,,,,,,,,,,,,,,,,0.043572116,-0.42978163,0,0,0,,,,,,,STREAM,C,m,y,./images/STREAM.png,,,,,,,z,0,0.6535,,,,,,,,0,108,108,41,1,
,,,,,,,,,,,,,,,,,198766,18,2022-01-28_17h17.22.146,lexical_decision_task_DD_L5,2021.2.3,MacIntel,60.0024001,,,,,,,,,,,,0.7667,1,,,,,,,,,,,,,,,,,,,,,,,,0.043572116,-0.42978163,0,0,0,,,,,,,PIMPLE,C,z,y,./images/PIMPLE.png,,,,,,,z,1,0.7667,,,,,,,,0,109,109,155,1,
,,,,,,,,,,,,,,,,,198766,18,2022-01-28_17h17.22.146,lexical_decision_task_DD_L5,2021.2.3,MacIntel,60.0024001,,,,,,,,,,,,1.3682,1,,,,,,,,,,,,,,,,,,,,,,,,0.043572116,-0.42978163,0,0,0,,,,,,,FINGER,HB,z,y,./images/FINGERHB.png,,,,,,,z,1,1.3682,,,,,,,,0,110,110,87,1,
,,,,,,,,,,,,,,,,,198766,18,2022-01-28_17h17.22.146,lexical_decision_task_DD_L5,2021.2.3,MacIntel,60.0024001,,,,,,,,,,,,0.7068,1,,,,,,,,,,,,,,,,,,,,,,,,0.043572116,-0.42978163,0,0,0,,,,,,,CRUST,LB,z,y,./images/CRUSTLB.png,,,,,,,z,1,0.7068,,,,,,,,0,111,111,163,1,
,,,,,,,,,,,,,,,,,198766,18,2022-01-28_17h17.22.146,lexical_decision_task_DD_L5,2021.2.3,MacIntel,60.0024001,,,,,,,,,,,,0.6252,1,,,,,,,,,,,,,,,,,,,,,,,,0.043572116,-0.42978163,0,0,0,,,,,,,DANCER,HB,m,y,./images/DANCERHB.png,,,,,,,m,1,0.6252,,,,,,,,0,112,112,21,1,
,,,,,,,,,,,,,,,,,198766,18,2022-01-28_17h17.22.146,lexical_decision_task_DD_L5,2021.2.3,MacIntel,60.0024001,,,,,,,,,,,,0.767,1,,,,,,,,,,,,,,,,,,,,,,,,0.043316108,-0.430297309,0,0,0,,,,,,,CLIFF,C,m,y,./images/CLIFF.png,,,,,,,m,1,0.767,,,,,,,,0,113,113,8,1,
,,,,,,,,,,,,,,,,,198766,18,2022-01-28_17h17.22.146,lexical_decision_task_DD_L5,2021.2.3,MacIntel,60.0024001,,,,,,,,,,,,0.5875,1,,,,,,,,,,,,,,,,,,,,,,,,0.043059896,-0.429487779,0,0,0,,,,,,,COLLAR,HB,m,y,./images/COLLARHB.png,,,,,,,m,1,0.5875,,,,,,,,0,114,114,15,1,
,,,,,,,,,,,,,,,,,198766,18,2022-01-28_17h17.22.146,lexical_decision_task_DD_L5,2021.2.3,MacIntel,60.0024001,,,,,,,,,,,,0.7182,0,,,,,,,,,,,,,,,,,,,,,,,,0.044103529,-0.429670478,0,0,0,,,,,,,BOXER,LB,m,y,./images/BOXERLB.png,,,,,,,z,0,0.7182,,,,,,,,0,115,115,4,1,
,,,,,,,,,,,,,,,,,198766,18,2022-01-28_17h17.22.146,lexical_decision_task_DD_L5,2021.2.3,MacIntel,60.0024001,,,,,,,,,,,,0.8802,1,,,,,,,,,,,,,,,,,,,,,,,,0.043847182,-0.429157783,0,0,0,,,,,,,CRUMB,C,z,y,./images/CRUMB.png,,,,,,,z,1,0.8802,,,,,,,,0,116,116,113,1,
,,,,,,,,,,,,,,,,,198766,18,2022-01-28_17h17.22.146,lexical_decision_task_DD_L5,2021.2.3,MacIntel,60.0024001,,,,,,,,,,,,1.1463,1,,,,,,,,,,,,,,,,,,,,,,,,0.044380154,-0.429941678,0,0,0,,,,,,,PICKLE,C,z,y,./images/PICKLE.png,,,,,,,z,1,1.1463,,,,,,,,0,117,117,98,1,
,,,,,,,,,,,,,,,,,198766,18,2022-01-28_17h17.22.146,lexical_decision_task_DD_L5,2021.2.3,MacIntel,60.0024001,,,,,,,,,,,,1.188,1,,,,,,,,,,,,,,,,,,,,,,,,0.044907837,-0.430200806,0,0,0,,,,,,,ATTIC,HB,z,y,./images/ATTICHB.png,,,,,,,z,1,1.188,,,,,,,,0,118,118,111,1,
,,,,,,,,,,,,,,,,,198766,18,2022-01-28_17h17.22.146,lexical_decision_task_DD_L5,2021.2.3,MacIntel,60.0024001,,,,,,,,,,,,1.0165,1,,,,,,,,,,,,,,,,,,,,,,,,0.045163913,-0.430200806,0,0,0,,,,,,,SCREW,HB,z,y,./images/SCREWHB.png,,,,,,,z,1,1.0165,,,,,,,,0,119,119,108,1,
,,,,,,,,,,,,,,,,,198766,18,2022-01-28_17h17.22.146,lexical_decision_task_DD_L5,2021.2.3,MacIntel,60.0024001,,,,,,,,,,,,1.2847,1,,,,,,,,,,,,,,,,,,,,,,,,0.045949097,-0.430724555,0,0,0,,,,,,,CRADLE,C,z,y,./images/CRADLE.png,,,,,,,z,1,1.2847,,,,,,,,0,120,120,104,1,
,,,,,,,,,,,,,,,,,198766,18,2022-01-28_17h17.22.146,lexical_decision_task_DD_L5,2021.2.3,MacIntel,60.0024001,,,,,,,,,,,,0.6478,1,,,,,,,,,,,,,,,,,,,,,,,,0.046492038,-0.431240573,0,0,0,,,,,,,ARROW,HB,m,y,./images/ARROWHB.png,,,,,,,m,1,0.6478,,,,,,,,0,121,121,69,1,
,,,,,,,,,,,,,,,,,198766,18,2022-01-28_17h17.22.146,lexical_decision_task_DD_L5,2021.2.3,MacIntel,60.0024001,,,,,,,,,,,,0.6466,1,,,,,,,,,,,,,,,,,,,,,,,,0.047013821,-0.430462918,0,0,0,,,,,,,MUMMY,LB,m,y,./images/MUMMYLB.png,,,,,,,m,1,0.6466,,,,,,,,0,122,122,46,1,
,,,,,,,,,,,,,,,,,198766,18,2022-01-28_17h17.22.146,lexical_decision_task_DD_L5,2021.2.3,MacIntel,60.0024001,,,,,,,,,,,,0.7911,1,,,,,,,,,,,,,,,,,,,,,,,,0.04765686,-0.431483697,0,0,0,,,,,,,PLANK,LB,z,y,./images/PLANKLB.png,,,,,,,z,1,0.7911,,,,,,,,0,123,123,85,1,
,,,,,,,,,,,,,,,,,198766,18,2022-01-28_17h17.22.146,lexical_decision_task_DD_L5,2021.2.3,MacIntel,60.0024001,,,,,,,,,,,,0.7827,0,,,,,,,,,,,,,,,,,,,,,,,,0.046883002,-0.431226535,0,0,0,,,,,,,BISHOP,LB,m,y,./images/BISHOPLB.png,,,,,,,z,0,0.7827,,,,,,,,0,124,124,49,1,
,,,,,,,,,,,,,,,,,198766,18,2022-01-28_17h17.22.146,lexical_decision_task_DD_L5,2021.2.3,MacIntel,60.0024001,,,,,,,,,,,,0.7476,1,,,,,,,,,,,,,,,,,,,,,,,,0.047726983,-0.434113973,0,0,0,space,,,,,,GRAIN,HB,z,y,./images/GRAINHB.png,203.1817,,,,,,z,1,0.7476,,,,,,,,0,125,125,159,1,
,,,,,,,,,,,,,,,,,198766,18,2022-01-28_17h17.22.146,lexical_decision_task_DD_L5,2021.2.3,MacIntel,60.0024001,,,,,,,,,,,,1.2712,0,,,,,,,,,,,,,,,,,,,,,,,,0.047726983,-0.434113973,0,0,0,,,,,,,BUTTER,HB,m,y,./images/BUTTERHB.png,,,,,,,z,0,1.2712,,,,,,,,0,126,126,27,1,
,,,,,,,,,,,,,,,,,198766,18,2022-01-28_17h17.22.146,lexical_decision_task_DD_L5,2021.2.3,MacIntel,60.0024001,,,,,,,,,,,,0.8464,1,,,,,,,,,,,,,,,,,,,,,,,,0.047726983,-0.434113973,0,0,0,,,,,,,STATUE,HB,m,y,./images/STATUEHB.png,,,,,,,m,1,0.8464,,,,,,,,0,127,127,66,1,
,,,,,,,,,,,,,,,,,198766,18,2022-01-28_17h17.22.146,lexical_decision_task_DD_L5,2021.2.3,MacIntel,60.0024001,,,,,,,,,,,,0.6626,1,,,,,,,,,,,,,,,,,,,,,,,,0.047726983,-0.434113973,0,0,0,,,,,,,LITTER,HB,z,y,./images/LITTERHB.png,,,,,,,z,1,0.6626,,,,,,,,0,128,128,162,1,
,,,,,,,,,,,,,,,,,198766,18,2022-01-28_17h17.22.146,lexical_decision_task_DD_L5,2021.2.3,MacIntel,60.0024001,,,,,,,,,,,,0.9549,1,,,,,,,,,,,,,,,,,,,,,,,,0.047726983,-0.434113973,0,0,0,,,,,,,STOVE,C,m,y,./images/STOVE.png,,,,,,,m,1,0.9549,,,,,,,,0,129,129,2,1,
,,,,,,,,,,,,,,,,,198766,18,2022-01-28_17h17.22.146,lexical_decision_task_DD_L5,2021.2.3,MacIntel,60.0024001,,,,,,,,,,,,0.673,1,,,,,,,,,,,,,,,,,,,,,,,,0.047726983,-0.434113973,0,0,0,,,,,,,PEARL,LB,z,y,./images/PEARLLB.png,,,,,,,z,1,0.673,,,,,,,,0,130,130,130,1,
,,,,,,,,,,,,,,,,,198766,18,2022-01-28_17h17.22.146,lexical_decision_task_DD_L5,2021.2.3,MacIntel,60.0024001,,,,,,,,,,,,0.7628,1,,,,,,,,,,,,,,,,,,,,,,,,0.047726983,-0.434113973,0,0,0,,,,,,,MUSCLE,LB,z,y,./images/MUSCLELB.png,,,,,,,z,1,0.7628,,,,,,,,0,131,131,88,1,
,,,,,,,,,,,,,,,,,198766,18,2022-01-28_17h17.22.146,lexical_decision_task_DD_L5,2021.2.3,MacIntel,60.0024001,,,,,,,,,,,,0.6656,1,,,,,,,,,,,,,,,,,,,,,,,,0.047726983,-0.434113973,0,0,0,,,,,,,SHELF,HB,z,y,./images/SHELFHB.png,,,,,,,z,1,0.6656,,,,,,,,0,132,132,123,1,
,,,,,,,,,,,,,,,,,198766,18,2022-01-28_17h17.22.146,lexical_decision_task_DD_L5,2021.2.3,MacIntel,60.0024001,,,,,,,,,,,,0.7001,1,,,,,,,,,,,,,,,,,,,,,,,,0.047726983,-0.434113973,0,0,0,,,,,,,PACKET,C,z,y,./images/PACKET.png,,,,,,,z,1,0.7001,,,,,,,,0,133,133,140,1,
,,,,,,,,,,,,,,,,,198766,18,2022-01-28_17h17.22.146,lexical_decision_task_DD_L5,2021.2.3,MacIntel,60.0024001,,,,,,,,,,,,1.0444,0,,,,,,,,,,,,,,,,,,,,,,,,0.047726983,-0.434113973,0,0,0,,,,,,,MEDAL,C,m,y,./images/MEDAL.png,,,,,,,z,0,1.0444,,,,,,,,0,134,134,11,1,
,,,,,,,,,,,,,,,,,198766,18,2022-01-28_17h17.22.146,lexical_decision_task_DD_L5,2021.2.3,MacIntel,60.0024001,,,,,,,,,,,,0.5819,0,,,,,,,,,,,,,,,,,,,,,,,,0.047726983,-0.434113973,0,0,0,,,,,,,LADDER,C,z,y,./images/LADDER.png,,,,,,,m,0,0.5819,,,,,,,,0,135,135,122,1,
,,,,,,,,,,,,,,,,,198766,18,2022-01-28_17h17.22.146,lexical_decision_task_DD_L5,2021.2.3,MacIntel,60.0024001,,,,,,,,,,,,1.1838,0,,,,,,,,,,,,,,,,,,,,,,,,0.047726983,-0.434113973,0,0,0,,,,,,,CHAIN,HB,m,y,./images/CHAINHB.png,,,,,,,z,0,1.1838,,,,,,,,0,136,136,42,1,
,,,,,,,,,,,,,,,,,198766,18,2022-01-28_17h17.22.146,lexical_decision_task_DD_L5,2021.2.3,MacIntel,60.0024001,,,,,,,,,,,,0.6394,1,,,,,,,,,,,,,,,,,,,,,,,,0.047726983,-0.434113973,0,0,0,,,,,,,FALCON,LB,z,y,./images/FALCONLB.png,,,,,,,z,1,0.6394,,,,,,,,0,137,137,112,1,
,,,,,,,,,,,,,,,,,198766,18,2022-01-28_17h17.22.146,lexical_decision_task_DD_L5,2021.2.3,MacIntel,60.0024001,,,,,,,,,,,,0.6975,0,,,,,,,,,,,,,,,,,,,,,,,,0.047726983,-0.434113973,0,0,0,,,,,,,BANANA,LB,m,y,./images/BANANALB.png,,,,,,,z,0,0.6975,,,,,,,,0,138,138,70,1,
,,,,,,,,,,,,,,,,,198766,18,2022-01-28_17h17.22.146,lexical_decision_task_DD_L5,2021.2.3,MacIntel,60.0024001,,,,,,,,,,,,1.6984,0,,,,,,,,,,,,,,,,,,,,,,,,0.047726983,-0.434113973,0,0,0,,,,,,,SPINE,C,m,y,./images/SPINE.png,,,,,,,z,0,1.6984,,,,,,,,0,139,139,65,1,
,,,,,,,,,,,,,,,,,198766,18,2022-01-28_17h17.22.146,lexical_decision_task_DD_L5,2021.2.3,MacIntel,60.0024001,,,,,,,,,,,,0.768,1,,,,,,,,,,,,,,,,,,,,,,,,0.047726983,-0.434113973,0,0,0,,,,,,,CURRY,HB,m,y,./images/CURRYHB.png,,,,,,,m,1,0.768,,,,,,,,0,140,140,60,1,
,,,,,,,,,,,,,,,,,198766,18,2022-01-28_17h17.22.146,lexical_decision_task_DD_L5,2021.2.3,MacIntel,60.0024001,,,,,,,,,,,,0.723,1,,,,,,,,,,,,,,,,,,,,,,,,0.047726983,-0.434113973,0,0,0,,,,,,,SAUNA,HB,m,y,./images/SAUNAHB.png,,,,,,,m,1,0.723,,,,,,,,0,141,141,33,1,
,,,,,,,,,,,,,,,,,198766,18,2022-01-28_17h17.22.146,lexical_decision_task_DD_L5,2021.2.3,MacIntel,60.0024001,,,,,,,,,,,,0.782,1,,,,,,,,,,,,,,,,,,,,,,,,0.047726983,-0.434113973,0,0,0,,,,,,,KITTEN,HB,z,y,./images/KITTENHB.png,,,,,,,z,1,0.782,,,,,,,,0,142,142,129,1,
,,,,,,,,,,,,,,,,,198766,18,2022-01-28_17h17.22.146,lexical_decision_task_DD_L5,2021.2.3,MacIntel,60.0024001,,,,,,,,,,,,0.8014,1,,,,,,,,,,,,,,,,,,,,,,,,0.047726983,-0.434113973,0,0,0,,,,,,,SWING,LB,z,y,./images/SWINGLB.png,,,,,,,z,1,0.8014,,,,,,,,0,143,143,124,1,
,,,,,,,,,,,,,,,,,198766,18,2022-01-28_17h17.22.146,lexical_decision_task_DD_L5,2021.2.3,MacIntel,60.0024001,,,,,,,,,,,,1.4987,0,,,,,,,,,,,,,,,,,,,,,,,,0.047726983,-0.434113973,0,0,0,,,,,,,DIVER,HB,m,y,./images/DIVERHB.png,,,,,,,z,0,1.4987,,,,,,,,0,144,144,9,1,
,,,,,,,,,,,,,,,,,198766,18,2022-01-28_17h17.22.146,lexical_decision_task_DD_L5,2021.2.3,MacIntel,60.0024001,,,,,,,,,,,,0.7905,1,,,,,,,,,,,,,,,,,,,,,,,,0.047726983,-0.434113973,0,0,0,,,,,,,KIDNEY,HB,z,y,./images/KIDNEYHB.png,,,,,,,z,1,0.7905,,,,,,,,0,145,145,105,1,
,,,,,,,,,,,,,,,,,198766,18,2022-01-28_17h17.22.146,lexical_decision_task_DD_L5,2021.2.3,MacIntel,60.0024001,,,,,,,,,,,,0.6423,1,,,,,,,,,,,,,,,,,,,,,,,,0.047726983,-0.434113973,0,0,0,,,,,,,ALLEY,LB,m,y,./images/ALLEYLB.png,,,,,,,m,1,0.6423,,,,,,,,0,146,146,55,1,
,,,,,,,,,,,,,,,,,198766,18,2022-01-28_17h17.22.146,lexical_decision_task_DD_L5,2021.2.3,MacIntel,60.0024001,,,,,,,,,,,,0.6063,0,,,,,,,,,,,,,,,,,,,,,,,,0.047726983,-0.434113973,0,0,0,,,,,,,SMOKER,C,z,y,./images/SMOKER.png,,,,,,,m,0,0.6063,,,,,,,,0,147,147,110,1,
,,,,,,,,,,,,,,,,,198766,18,2022-01-28_17h17.22.146,lexical_decision_task_DD_L5,2021.2.3,MacIntel,60.0024001,,,,,,,,,,,,0.7329,0,,,,,,,,,,,,,,,,,,,,,,,,0.047726983,-0.434113973,0,0,0,,,,,,,GRANNY,C,m,y,./images/GRANNY.png,,,,,,,z,0,0.7329,,,,,,,,0,148,148,20,1,
,,,,,,,,,,,,,,,,,198766,18,2022-01-28_17h17.22.146,lexical_decision_task_DD_L5,2021.2.3,MacIntel,60.0024001,,,,,,,,,,,,0.7981,1,,,,,,,,,,,,,,,,,,,,,,,,0.047726983,-0.434113973,0,0,0,,,,,,,MONKEY,HB,m,y,./images/MONKEYHB.png,,,,,,,m,1,0.7981,,,,,,,,0,149,149,45,1,
,,,,,,,,,,,,,,,,,198766,18,2022-01-28_17h17.22.146,lexical_decision_task_DD_L5,2021.2.3,MacIntel,60.0024001,,,,,,,,,,,,0.7911,1,,,,,,,,,,,,,,,,,,,,,,,,0.047726983,-0.434113973,0,0,0,,,,,,,JUMPER,C,m,y,./images/JUMPER.png,,,,,,,m,1,0.7911,,,,,,,,0,150,150,74,1,
,,,,,,,,,,,,,,,,,198766,18,2022-01-28_17h17.22.146,lexical_decision_task_DD_L5,2021.2.3,MacIntel,60.0024001,,,,,,,,,,,,1.3485,1,,,,,,,,,,,,,,,,,,,,,,,,0.047726983,-0.434113973,0,0,0,,,,,,,SAUCE,HB,m,y,./images/SAUCEHB.png,,,,,,,m,1,1.3485,,,,,,,,0,151,151,51,1,
,,,,,,,,,,,,,,,,,198766,18,2022-01-28_17h17.22.146,lexical_decision_task_DD_L5,2021.2.3,MacIntel,60.0024001,,,,,,,,,,,,0.825,1,,,,,,,,,,,,,,,,,,,,,,,,0.047726983,-0.434113973,0,0,0,,,,,,,DRILL,HB,m,y,./images/DRILLHB.png,,,,,,,m,1,0.825,,,,,,,,0,152,152,81,1,
,,,,,,,,,,,,,,,,,198766,18,2022-01-28_17h17.22.146,lexical_decision_task_DD_L5,2021.2.3,MacIntel,60.0024001,,,,,,,,,,,,0.6169,1,,,,,,,,,,,,,,,,,,,,,,,,0.047726983,-0.434113973,0,0,0,,,,,,,MELON,LB,z,y,./images/MELONLB.png,,,,,,,z,1,0.6169,,,,,,,,0,153,153,106,1,
,,,,,,,,,,,,,,,,,198766,18,2022-01-28_17h17.22.146,lexical_decision_task_DD_L5,2021.2.3,MacIntel,60.0024001,,,,,,,,,,,,0.7687,1,,,,,,,,,,,,,,,,,,,,,,,,0.047726983,-0.434113973,0,0,0,,,,,,,MIRROR,HB,z,y,./images/MIRRORHB.png,,,,,,,z,1,0.7687,,,,,,,,0,154,154,147,1,
,,,,,,,,,,,,,,,,,198766,18,2022-01-28_17h17.22.146,lexical_decision_task_DD_L5,2021.2.3,MacIntel,60.0024001,,,,,,,,,,,,0.8001,0,,,,,,,,,,,,,,,,,,,,,,,,0.047726983,-0.434113973,0,0,0,,,,,,,SNAKE,LB,m,y,./images/SNAKELB.png,,,,,,,z,0,0.8001,,,,,,,,0,155,155,40,1,
,,,,,,,,,,,,,,,,,198766,18,2022-01-28_17h17.22.146,lexical_decision_task_DD_L5,2021.2.3,MacIntel,60.0024001,,,,,,,,,,,,0.7248,1,,,,,,,,,,,,,,,,,,,,,,,,0.047726983,-0.434113973,0,0,0,,,,,,,LAGOON,C,m,y,./images/LAGOON.png,,,,,,,m,1,0.7248,,,,,,,,0,156,156,47,1,
,,,,,,,,,,,,,,,,,198766,18,2022-01-28_17h17.22.146,lexical_decision_task_DD_L5,2021.2.3,MacIntel,60.0024001,,,,,,,,,,,,0.6823,1,,,,,,,,,,,,,,,,,,,,,,,,0.047726983,-0.434113973,0,0,0,,,,,,,INFANT,LB,z,y,./images/INFANTLB.png,,,,,,,z,1,0.6823,,,,,,,,0,157,157,160,1,
,,,,,,,,,,,,,,,,,198766,18,2022-01-28_17h17.22.146,lexical_decision_task_DD_L5,2021.2.3,MacIntel,60.0024001,,,,,,,,,,,,1.9161,1,,,,,,,,,,,,,,,,,,,,,,,,0.047726983,-0.434113973,0,0,0,,,,,,,MOOSE,HB,z,y,./images/MOOSEHB.png,,,,,,,z,1,1.9161,,,,,,,,0,158,158,141,1,
,,,,,,,,,,,,,,,,,198766,18,2022-01-28_17h17.22.146,lexical_decision_task_DD_L5,2021.2.3,MacIntel,60.0024001,,,,,,,,,,,,1.8318,1,,,,,,,,,,,,,,,,,,,,,,,,0.047726983,-0.434113973,0,0,0,,,,,,,PISTOL,C,m,y,./images/PISTOL.png,,,,,,,m,1,1.8318,,,,,,,,0,159,159,29,1,
,,,,,,,,,,,,,,,,,198766,18,2022-01-28_17h17.22.146,lexical_decision_task_DD_L5,2021.2.3,MacIntel,60.0024001,,,,,,,,,,,,1.0159,1,,,,,,,,,,,,,,,,,,,,,,,,0.047726983,-0.434113973,0,0,0,,,,,,,DOUGH,LB,z,y,./images/DOUGHLB.png,,,,,,,z,1,1.0159,,,,,,,,0,160,160,103,1,
,,,,,,,,,,,,,,,,,198766,18,2022-01-28_17h17.22.146,lexical_decision_task_DD_L5,2021.2.3,MacIntel,60.0024001,,,,,,,,,,,,1.1496,1,,,,,,,,,,,,,,,,,,,,,,,,0.047726983,-0.434113973,0,0,0,,,,,,,POODLE,HB,z,y,./images/POODLEHB.png,,,,,,,z,1,1.1496,,,,,,,,0,161,161,165,1,
,,,,,,,,,,,,,,,,,198766,18,2022-01-28_17h17.22.146,lexical_decision_task_DD_L5,2021.2.3,MacIntel,60.0024001,,,,,,,,,,,,0.753,1,,,,,,,,,,,,,,,,,,,,,,,,0.047726983,-0.434113973,0,0,0,,,,,,,DONKEY,LB,m,y,./images/DONKEYLB.png,,,,,,,m,1,0.753,,,,,,,,0,162,162,19,1,
,,,,,,,,,,,,,,,,,198766,18,2022-01-28_17h17.22.146,lexical_decision_task_DD_L5,2021.2.3,MacIntel,60.0024001,,,,,,,,,,,,1.2973,1,,,,,,,,,,,,,,,,,,,,,,,,0.047726983,-0.434113973,0,0,0,,,,,,,HEATER,C,m,y,./images/HEATER.png,,,,,,,m,1,1.2973,,,,,,,,0,163,163,56,1,
,,,,,,,,,,,,,,,,,198766,18,2022-01-28_17h17.22.146,lexical_decision_task_DD_L5,2021.2.3,MacIntel,60.0024001,,,,,,,,,,,,8.1,1,,,,,,,,,,,,,,,,,,,,,,,,0.047726983,-0.434113973,0,0,0,,,,,,,TORCH,C,z,y,./images/TORCH.png,,,,,,,z,1,8.1,,,,,,,,0,164,164,152,1,
,,,,,,,,,,,,,,,,,198766,18,2022-01-28_17h17.22.146,lexical_decision_task_DD_L5,2021.2.3,MacIntel,60.0024001,,,,,,,,,,,,1.3849,1,,,,,,,,,,,,,,,,,,,,,,,,0.047726983,-0.434113973,0,0,0,,,,,,,STEAK,LB,m,y,./images/STEAKLB.png,,,,,,,m,1,1.3849,,,,,,,,0,165,165,31,1,
,,,,,,,,,,,,,,,,,198766,18,2022-01-28_17h17.22.146,lexical_decision_task_DD_L5,2021.2.3,MacIntel,60.0024001,,,,,,,,,,,,0.689,0,,,,,,,,,,,,,,,,,,,,,,,,0.047726983,-0.434113973,0,0,0,,,,,,,BRIDE,LB,m,y,./images/BRIDELB.png,,,,,,,z,0,0.689,,,,,,,,0,166,166,64,1,
,,,,,,,,,,,,,,,,,198766,18,2022-01-28_17h17.22.146,lexical_decision_task_DD_L5,2021.2.3,MacIntel,60.0024001,,,,,,,,,,,,2.5664,1,,,,,,,,,,,,,,,,,,,,,,,,0.047726983,-0.434113973,0,0,0,,,,,,,WHISKY,C,m,y,./images/WHISKY.png,,,,,,,m,1,2.5664,,,,,,,,0,167,167,83,1,
