key_resp.keys,key_resp.rt,instr_done_touch.x,instr_done_touch.y,instr_done_touch.leftButton,instr_done_touch.midButton,instr_done_touch.rightButton,instruction_pages.thisRepN,instruction_pages.thisTrialN,instruction_pages.thisN,instruction_pages.thisIndex,instruction_pages.ran,pageN,phase,instruct_text,has_image,instruct_image,participant,age,date,expName,psychopyVersion,OS,frameRate,response.keys,response.corr,response.rt,touch_resp.x,touch_resp.y,touch_resp.leftButton,touch_resp.midButton,touch_resp.rightButton,touch_resp.time,touch_resp.clicked_name,rt,corr,practrials.thisRepN,practrials.thisTrialN,practrials.thisN,practrials.thisIndex,practrials.ran,TrialID,Target,corrAns,end_of_practice_trials_pages.thisRepN,end_of_practice_trials_pages.thisTrialN,end_of_practice_trials_pages.thisN,end_of_practice_trials_pages.thisIndex,end_of_practice_trials_pages.ran,key_resp_2.keys,key_resp_2.corr,key_resp_2.rt,targ_click.x,targ_click.y,targ_click.leftButton,targ_click.midButton,targ_click.rightButton,targ_click.time,targ_click.clicked_name,break_done_touch.x,break_done_touch.y,break_done_touch.leftButton,break_done_touch.midButton,break_done_touch.rightButton,break_done_keyboard.keys,maintrials.thisRepN,maintrials.thisTrialN,maintrials.thisN,maintrials.thisIndex,maintrials.ran,string,blur,study,lex,stim_path,break_done_keyboard.rt,test_instructions.thisRepN,test_instructions.thisTrialN,test_instructions.thisN,test_instructions.thisIndex,test_instructions.ran,instr_done_touch.clicked_name,key_resp_3.keys,key_resp_3.corr,key_resp_3.rt,test_click.x,test_click.y,test_click.leftButton,test_click.midButton,test_click.rightButton,test_click.time,test_click.clicked_name,test_phase.thisRepN,test_phase.thisTrialN,test_phase.thisN,test_phase.thisIndex,test_phase.ran
space,28.7286,0.011574157,-0.387963046,0,0,0,0,0,0,0,1,1,instructions,"INSTRUCTIONS
At the start of each trial, look at the plus sign  (+) in the center of the screen.  This tells you that a trial is about to begin and where to look. Second, the plus sign will disappear and a string of letters will appear. Your task is to determine if the string of letters is a word or not. If the item is a word press the M key (on keyboard)  or touch the word button (phone/tablet).  If the item is not a word,  press the  Z key (on keyboard)  or touch the nonword button (on phone/tablet). 
Press the space bar or touch  continue.",0,,198721,21,2022-01-28_21h20.35.156,lexical_decision_task_DD_L5,2021.2.3,Win32,60.90504903,,,,,,,,,,,,,,,,,,,,,,,,,,,,,,,,,,,,,,,,,,,,,,,,,,,,,,,,,,,,,,,,,,,,,,,,,
space,6.0236,0.011574157,-0.387963046,0,0,0,0,1,1,1,1,2,instructions,"If your device has a keyboard, press the 'Z' key for nonwords and the 'M' key for words.





Press the space bar or touch the button below to continue.",0,keyboard-example.gif,198721,21,2022-01-28_21h20.35.156,lexical_decision_task_DD_L5,2021.2.3,Win32,60.90504903,,,,,,,,,,,,,,,,,,,,,,,,,,,,,,,,,,,,,,,,,,,,,,,,,,,,,,,,,,,,,,,,,,,,,,,,,
space,2.9216,0.011574157,-0.387963046,0,0,0,0,2,2,2,1,3,instructions,"If you are using a touchscreen only device, use the buttons on the screen. Do not use the mouse.





Press the space bar or touch the button below to continue.",0,touchscreen-example.gif,198721,21,2022-01-28_21h20.35.156,lexical_decision_task_DD_L5,2021.2.3,Win32,60.90504903,,,,,,,,,,,,,,,,,,,,,,,,,,,,,,,,,,,,,,,,,,,,,,,,,,,,,,,,,,,,,,,,,,,,,,,,,
space,3.5145,0.011574157,-0.387963046,0,0,0,0,3,3,3,1,4,instructions,"It is very important that you respond as quickly and accurately as possible, as each letter string will only be on the screen for two seconds. If you do not respond within this time, the message 'Too slow!' will be displayed and the experiment will progress to the next letter string. The first 20 trials will be practice trials and you will receive feedback on your answers. 

Press the space bar or touch the button below to start the practice trials.",0,,198721,21,2022-01-28_21h20.35.156,lexical_decision_task_DD_L5,2021.2.3,Win32,60.90504903,,,,,,,,,,,,,,,,,,,,,,,,,,,,,,,,,,,,,,,,,,,,,,,,,,,,,,,,,,,,,,,,,,,,,,,,,
,,,,,,,,,,,,,,,,,198721,21,2022-01-28_21h20.35.156,lexical_decision_task_DD_L5,2021.2.3,Win32,60.90504903,m,1,0.6231,,,,,,,,0.6231,1,0,0,0,1,1,1001,ADJUST,m,,,,,,,,,,,,,,,,,,,,,,,,,,,,,,,,,,,,,,,,,,,,,,,,,,,,,
,,,,,,,,,,,,,,,,,198721,21,2022-01-28_21h20.35.156,lexical_decision_task_DD_L5,2021.2.3,Win32,60.90504903,z,1,0.6533,,,,,,,,0.6533,1,0,1,1,13,1,1001,ROUPET,z,,,,,,,,,,,,,,,,,,,,,,,,,,,,,,,,,,,,,,,,,,,,,,,,,,,,,
,,,,,,,,,,,,,,,,,198721,21,2022-01-28_21h20.35.156,lexical_decision_task_DD_L5,2021.2.3,Win32,60.90504903,m,1,0.4208,,,,,,,,0.4208,1,0,2,2,7,1,1001,VOLUME,m,,,,,,,,,,,,,,,,,,,,,,,,,,,,,,,,,,,,,,,,,,,,,,,,,,,,,
,,,,,,,,,,,,,,,,,198721,21,2022-01-28_21h20.35.156,lexical_decision_task_DD_L5,2021.2.3,Win32,60.90504903,z,1,0.6321,,,,,,,,0.6321,1,0,3,3,10,1,1001,INLADE,z,,,,,,,,,,,,,,,,,,,,,,,,,,,,,,,,,,,,,,,,,,,,,,,,,,,,,
,,,,,,,,,,,,,,,,,198721,21,2022-01-28_21h20.35.156,lexical_decision_task_DD_L5,2021.2.3,Win32,60.90504903,m,1,0.6667,,,,,,,,0.6667,1,0,4,4,0,1,1001,UTOPIA,m,,,,,,,,,,,,,,,,,,,,,,,,,,,,,,,,,,,,,,,,,,,,,,,,,,,,,
,,,,,,,,,,,,,,,,,198721,21,2022-01-28_21h20.35.156,lexical_decision_task_DD_L5,2021.2.3,Win32,60.90504903,m,0,0.7173,,,,,,,,0.7173,0,0,5,5,11,1,1001,RASHET,z,,,,,,,,,,,,,,,,,,,,,,,,,,,,,,,,,,,,,,,,,,,,,,,,,,,,,
,,,,,,,,,,,,,,,,,198721,21,2022-01-28_21h20.35.156,lexical_decision_task_DD_L5,2021.2.3,Win32,60.90504903,z,1,1.001,,,,,,,,1.001,1,0,6,6,14,1,1001,THRALE,z,,,,,,,,,,,,,,,,,,,,,,,,,,,,,,,,,,,,,,,,,,,,,,,,,,,,,
,,,,,,,,,,,,,,,,,198721,21,2022-01-28_21h20.35.156,lexical_decision_task_DD_L5,2021.2.3,Win32,60.90504903,m,1,0.722,,,,,,,,0.722,1,0,7,7,3,1,1001,MATRIX,m,,,,,,,,,,,,,,,,,,,,,,,,,,,,,,,,,,,,,,,,,,,,,,,,,,,,,
,,,,,,,,,,,,,,,,,198721,21,2022-01-28_21h20.35.156,lexical_decision_task_DD_L5,2021.2.3,Win32,60.90504903,m,1,0.5354,,,,,,,,0.5354,1,0,8,8,2,1,1001,ALMOND,m,,,,,,,,,,,,,,,,,,,,,,,,,,,,,,,,,,,,,,,,,,,,,,,,,,,,,
,,,,,,,,,,,,,,,,,198721,21,2022-01-28_21h20.35.156,lexical_decision_task_DD_L5,2021.2.3,Win32,60.90504903,z,1,0.6001,,,,,,,,0.6001,1,0,9,9,15,1,1001,WHAISE,z,,,,,,,,,,,,,,,,,,,,,,,,,,,,,,,,,,,,,,,,,,,,,,,,,,,,,
,,,,,,,,,,,,,,,,,198721,21,2022-01-28_21h20.35.156,lexical_decision_task_DD_L5,2021.2.3,Win32,60.90504903,z,1,0.5041,,,,,,,,0.5041,1,0,10,10,9,1,1001,FARINY,z,,,,,,,,,,,,,,,,,,,,,,,,,,,,,,,,,,,,,,,,,,,,,,,,,,,,,
,,,,,,,,,,,,,,,,,198721,21,2022-01-28_21h20.35.156,lexical_decision_task_DD_L5,2021.2.3,Win32,60.90504903,m,1,0.5366,,,,,,,,0.5366,1,0,11,11,5,1,1001,OBTAIN,m,,,,,,,,,,,,,,,,,,,,,,,,,,,,,,,,,,,,,,,,,,,,,,,,,,,,,
,,,,,,,,,,,,,,,,,198721,21,2022-01-28_21h20.35.156,lexical_decision_task_DD_L5,2021.2.3,Win32,60.90504903,m,0,0.6176,,,,,,,,0.6176,0,0,12,12,8,1,1001,ASLERT,z,,,,,,,,,,,,,,,,,,,,,,,,,,,,,,,,,,,,,,,,,,,,,,,,,,,,,
,,,,,,,,,,,,,,,,,198721,21,2022-01-28_21h20.35.156,lexical_decision_task_DD_L5,2021.2.3,Win32,60.90504903,m,1,0.634,,,,,,,,0.634,1,0,13,13,6,1,1001,ZOMBIE,m,,,,,,,,,,,,,,,,,,,,,,,,,,,,,,,,,,,,,,,,,,,,,,,,,,,,,
,,,,,,,,,,,,,,,,,198721,21,2022-01-28_21h20.35.156,lexical_decision_task_DD_L5,2021.2.3,Win32,60.90504903,m,1,0.5675,,,,,,,,0.5675,1,0,14,14,4,1,1001,SQUEAK,m,,,,,,,,,,,,,,,,,,,,,,,,,,,,,,,,,,,,,,,,,,,,,,,,,,,,,
,,,,,,,,,,,,,,,,,198721,21,2022-01-28_21h20.35.156,lexical_decision_task_DD_L5,2021.2.3,Win32,60.90504903,z,1,0.5829,,,,,,,,0.5829,1,0,15,15,12,1,1001,SPRINY,z,,,,,,,,,,,,,,,,,,,,,,,,,,,,,,,,,,,,,,,,,,,,,,,,,,,,,
space,1.3739,0.011574157,-0.387963046,0,0,0,,,,,,1,end_of_practice,"You have completed the practice trials. During the experimental trials, you will not receive feedback. 
Before you begin, please ensure that you are in a comfortable and quiet location and will not be disturbed for about 15 minutes, as we cannot use your data if you do not complete all the trials. 
 When you are ready to start the experimental trials, please press space or touch the button below.",,,198721,21,2022-01-28_21h20.35.156,lexical_decision_task_DD_L5,2021.2.3,Win32,60.90504903,,,,,,,,,,,,,,,,,,,,,0,0,0,0,1,,,,,,,,,,,,,,,,,,,,,,,,,,,,,,,,,,,,,,,,,,,,,,,,
,,,,,,,,,,,,,,,,,198721,21,2022-01-28_21h20.35.156,lexical_decision_task_DD_L5,2021.2.3,Win32,60.90504903,,,,,,,,,,,0.7358,1,,,,,,,,,,,,,,m,1,0.7358,,,,,,,,0.011574157,-0.387963046,0,0,0,,0,0,0,53,1,POSTER,C,old,m,./images/POSTER.png,,,,,,,,,,,,,,,,,,,,,,
,,,,,,,,,,,,,,,,,198721,21,2022-01-28_21h20.35.156,lexical_decision_task_DD_L5,2021.2.3,Win32,60.90504903,,,,,,,,,,,0.5355,1,,,,,,,,,,,,,,m,1,0.5355,,,,,,,,0.011574157,-0.387963046,0,0,0,,0,1,1,5,1,BAMBOO,C,old,m,./images/BAMBOO.png,,,,,,,,,,,,,,,,,,,,,,
,,,,,,,,,,,,,,,,,198721,21,2022-01-28_21h20.35.156,lexical_decision_task_DD_L5,2021.2.3,Win32,60.90504903,,,,,,,,,,,1.1002,1,,,,,,,,,,,,,,z,1,1.1002,,,,,,,,0.011574157,-0.387963046,0,0,0,,0,2,2,148,1,JOMS,HB,old,z,./images/JOMSHB.png,,,,,,,,,,,,,,,,,,,,,,
,,,,,,,,,,,,,,,,,198721,21,2022-01-28_21h20.35.156,lexical_decision_task_DD_L5,2021.2.3,Win32,60.90504903,,,,,,,,,,,0.6679,1,,,,,,,,,,,,,,z,1,0.6679,,,,,,,,0.011574157,-0.387963046,0,0,0,,0,3,3,135,1,JOODY,C,old,z,./images/JOODY.png,,,,,,,,,,,,,,,,,,,,,,
,,,,,,,,,,,,,,,,,198721,21,2022-01-28_21h20.35.156,lexical_decision_task_DD_L5,2021.2.3,Win32,60.90504903,,,,,,,,,,,0.5004,1,,,,,,,,,,,,,,z,1,0.5004,,,,,,,,0.011574157,-0.387963046,0,0,0,,0,4,4,102,1,DULLE,C,old,z,./images/DULLE.png,,,,,,,,,,,,,,,,,,,,,,
,,,,,,,,,,,,,,,,,198721,21,2022-01-28_21h20.35.156,lexical_decision_task_DD_L5,2021.2.3,Win32,60.90504903,,,,,,,,,,,0.6843,1,,,,,,,,,,,,,,z,1,0.6843,,,,,,,,0.011574157,-0.387963046,0,0,0,,0,5,5,163,1,GAMBA,HB,old,z,./images/GAMBAHB.png,,,,,,,,,,,,,,,,,,,,,,
,,,,,,,,,,,,,,,,,198721,21,2022-01-28_21h20.35.156,lexical_decision_task_DD_L5,2021.2.3,Win32,60.90504903,,,,,,,,,,,0.6179,1,,,,,,,,,,,,,,z,1,0.6179,,,,,,,,0.011574157,-0.387963046,0,0,0,,0,6,6,158,1,EGECT,LB,old,z,./images/EGECTLB.png,,,,,,,,,,,,,,,,,,,,,,
,,,,,,,,,,,,,,,,,198721,21,2022-01-28_21h20.35.156,lexical_decision_task_DD_L5,2021.2.3,Win32,60.90504903,,,,,,,,,,,0.6021,1,,,,,,,,,,,,,,z,1,0.6021,,,,,,,,0.011574157,-0.387963046,0,0,0,,0,7,7,139,1,BLEAR,HB,old,z,./images/BLEARHB.png,,,,,,,,,,,,,,,,,,,,,,
,,,,,,,,,,,,,,,,,198721,21,2022-01-28_21h20.35.156,lexical_decision_task_DD_L5,2021.2.3,Win32,60.90504903,,,,,,,,,,,0.8015,1,,,,,,,,,,,,,,z,1,0.8015,,,,,,,,0.011574157,-0.387963046,0,0,0,,0,8,8,100,1,DRIBS,HB,old,z,./images/DRIBSHB.png,,,,,,,,,,,,,,,,,,,,,,
,,,,,,,,,,,,,,,,,198721,21,2022-01-28_21h20.35.156,lexical_decision_task_DD_L5,2021.2.3,Win32,60.90504903,,,,,,,,,,,0.6669,1,,,,,,,,,,,,,,m,1,0.6669,,,,,,,,0.011574157,-0.387963046,0,0,0,,0,9,9,65,1,SPINE,C,old,m,./images/SPINE.png,,,,,,,,,,,,,,,,,,,,,,
,,,,,,,,,,,,,,,,,198721,21,2022-01-28_21h20.35.156,lexical_decision_task_DD_L5,2021.2.3,Win32,60.90504903,,,,,,,,,,,0.9207,1,,,,,,,,,,,,,,z,1,0.9207,,,,,,,,0.011574157,-0.387963046,0,0,0,,0,10,10,106,1,CLUMS,HB,old,z,./images/CLUMSHB.png,,,,,,,,,,,,,,,,,,,,,,
,,,,,,,,,,,,,,,,,198721,21,2022-01-28_21h20.35.156,lexical_decision_task_DD_L5,2021.2.3,Win32,60.90504903,,,,,,,,,,,0.5848,1,,,,,,,,,,,,,,m,1,0.5848,,,,,,,,0.011574157,-0.387963046,0,0,0,,0,11,11,37,1,TIGER,LB,old,m,./images/TIGERLB.png,,,,,,,,,,,,,,,,,,,,,,
,,,,,,,,,,,,,,,,,198721,21,2022-01-28_21h20.35.156,lexical_decision_task_DD_L5,2021.2.3,Win32,60.90504903,,,,,,,,,,,0.6511,1,,,,,,,,,,,,,,z,1,0.6511,,,,,,,,0.011574157,-0.387963046,0,0,0,,0,12,12,125,1,MOOKY,LB,old,z,./images/MOOKYLB.png,,,,,,,,,,,,,,,,,,,,,,
,,,,,,,,,,,,,,,,,198721,21,2022-01-28_21h20.35.156,lexical_decision_task_DD_L5,2021.2.3,Win32,60.90504903,,,,,,,,,,,0.617,1,,,,,,,,,,,,,,m,1,0.617,,,,,,,,0.011574157,-0.387963046,0,0,0,,0,13,13,66,1,STATUE,HB,old,m,./images/STATUEHB.png,,,,,,,,,,,,,,,,,,,,,,
,,,,,,,,,,,,,,,,,198721,21,2022-01-28_21h20.35.156,lexical_decision_task_DD_L5,2021.2.3,Win32,60.90504903,,,,,,,,,,,0.6184,1,,,,,,,,,,,,,,z,1,0.6184,,,,,,,,0.011574157,-0.387963046,0,0,0,,0,14,14,153,1,CLUPS,C,old,z,./images/CLUPS.png,,,,,,,,,,,,,,,,,,,,,,
,,,,,,,,,,,,,,,,,198721,21,2022-01-28_21h20.35.156,lexical_decision_task_DD_L5,2021.2.3,Win32,60.90504903,,,,,,,,,,,0.5171,1,,,,,,,,,,,,,,m,1,0.5171,,,,,,,,0.011574157,-0.387963046,0,0,0,,0,15,15,70,1,BANANA,LB,old,m,./images/BANANALB.png,,,,,,,,,,,,,,,,,,,,,,
,,,,,,,,,,,,,,,,,198721,21,2022-01-28_21h20.35.156,lexical_decision_task_DD_L5,2021.2.3,Win32,60.90504903,,,,,,,,,,,0.5339,1,,,,,,,,,,,,,,z,1,0.5339,,,,,,,,0.011574157,-0.387963046,0,0,0,,0,16,16,94,1,BLANS,HB,old,z,./images/BLANSHB.png,,,,,,,,,,,,,,,,,,,,,,
,,,,,,,,,,,,,,,,,198721,21,2022-01-28_21h20.35.156,lexical_decision_task_DD_L5,2021.2.3,Win32,60.90504903,,,,,,,,,,,0.7841,1,,,,,,,,,,,,,,z,1,0.7841,,,,,,,,0.011574157,-0.387963046,0,0,0,,0,17,17,154,1,THINT,HB,old,z,./images/THINTHB.png,,,,,,,,,,,,,,,,,,,,,,
,,,,,,,,,,,,,,,,,198721,21,2022-01-28_21h20.35.156,lexical_decision_task_DD_L5,2021.2.3,Win32,60.90504903,,,,,,,,,,,0.5842,1,,,,,,,,,,,,,,z,1,0.5842,,,,,,,,0.011574157,-0.387963046,0,0,0,,0,18,18,136,1,WERVE,HB,old,z,./images/WERVEHB.png,,,,,,,,,,,,,,,,,,,,,,
,,,,,,,,,,,,,,,,,198721,21,2022-01-28_21h20.35.156,lexical_decision_task_DD_L5,2021.2.3,Win32,60.90504903,,,,,,,,,,,0.5832,0,,,,,,,,,,,,,,m,0,0.5832,,,,,,,,0.011574157,-0.387963046,0,0,0,,0,19,19,107,1,FASKS,LB,old,z,./images/FASKSLB.png,,,,,,,,,,,,,,,,,,,,,,
,,,,,,,,,,,,,,,,,198721,21,2022-01-28_21h20.35.156,lexical_decision_task_DD_L5,2021.2.3,Win32,60.90504903,,,,,,,,,,,0.8043,1,,,,,,,,,,,,,,m,1,0.8043,,,,,,,,0.011574157,-0.387963046,0,0,0,,0,20,20,7,1,WAGON,LB,old,m,./images/WAGONLB.png,,,,,,,,,,,,,,,,,,,,,,
,,,,,,,,,,,,,,,,,198721,21,2022-01-28_21h20.35.156,lexical_decision_task_DD_L5,2021.2.3,Win32,60.90504903,,,,,,,,,,,0.6511,1,,,,,,,,,,,,,,m,1,0.6511,,,,,,,,0.011574157,-0.387963046,0,0,0,,0,21,21,60,1,CURRY,HB,old,m,./images/CURRYHB.png,,,,,,,,,,,,,,,,,,,,,,
,,,,,,,,,,,,,,,,,198721,21,2022-01-28_21h20.35.156,lexical_decision_task_DD_L5,2021.2.3,Win32,60.90504903,,,,,,,,,,,0.467,1,,,,,,,,,,,,,,m,1,0.467,,,,,,,,0.011574157,-0.387963046,0,0,0,,0,22,22,83,1,WHISKY,C,old,m,./images/WHISKY.png,,,,,,,,,,,,,,,,,,,,,,
,,,,,,,,,,,,,,,,,198721,21,2022-01-28_21h20.35.156,lexical_decision_task_DD_L5,2021.2.3,Win32,60.90504903,,,,,,,,,,,0.6667,1,,,,,,,,,,,,,,z,1,0.6667,,,,,,,,0.011574157,-0.387963046,0,0,0,,0,23,23,91,1,SHENS,HB,old,z,./images/SHENSHB.png,,,,,,,,,,,,,,,,,,,,,,
,,,,,,,,,,,,,,,,,198721,21,2022-01-28_21h20.35.156,lexical_decision_task_DD_L5,2021.2.3,Win32,60.90504903,,,,,,,,,,,0.7865,0,,,,,,,,,,,,,,z,0,0.7865,,,,,,,,0.011574157,-0.387963046,0,0,0,,0,24,24,24,1,FLESH,HB,old,m,./images/FLESHHB.png,,,,,,,,,,,,,,,,,,,,,,
,,,,,,,,,,,,,,,,,198721,21,2022-01-28_21h20.35.156,lexical_decision_task_DD_L5,2021.2.3,Win32,60.90504903,,,,,,,,,,,0.8875,1,,,,,,,,,,,,,,z,1,0.8875,,,,,,,,0.011574157,-0.387963046,0,0,0,,0,25,25,123,1,SEDGE,C,old,z,./images/SEDGE.png,,,,,,,,,,,,,,,,,,,,,,
,,,,,,,,,,,,,,,,,198721,21,2022-01-28_21h20.35.156,lexical_decision_task_DD_L5,2021.2.3,Win32,60.90504903,,,,,,,,,,,0.5686,1,,,,,,,,,,,,,,m,1,0.5686,,,,,,,,0.011574157,-0.387963046,0,0,0,,0,26,26,71,1,BUBBLE,C,old,m,./images/BUBBLE.png,,,,,,,,,,,,,,,,,,,,,,
,,,,,,,,,,,,,,,,,198721,21,2022-01-28_21h20.35.156,lexical_decision_task_DD_L5,2021.2.3,Win32,60.90504903,,,,,,,,,,,0.617,1,,,,,,,,,,,,,,m,1,0.617,,,,,,,,0.011574157,-0.387963046,0,0,0,,0,27,27,46,1,MUMMY,LB,old,m,./images/MUMMYLB.png,,,,,,,,,,,,,,,,,,,,,,
,,,,,,,,,,,,,,,,,198721,21,2022-01-28_21h20.35.156,lexical_decision_task_DD_L5,2021.2.3,Win32,60.90504903,,,,,,,,,,,0.6878,1,,,,,,,,,,,,,,m,1,0.6878,,,,,,,,0.011574157,-0.387963046,0,0,0,,0,28,28,2,1,STOVE,C,old,m,./images/STOVE.png,,,,,,,,,,,,,,,,,,,,,,
,,,,,,,,,,,,,,,,,198721,21,2022-01-28_21h20.35.156,lexical_decision_task_DD_L5,2021.2.3,Win32,60.90504903,,,,,,,,,,,0.6344,1,,,,,,,,,,,,,,m,1,0.6344,,,,,,,,0.011574157,-0.387963046,0,0,0,,0,29,29,30,1,SLOPE,HB,old,m,./images/SLOPEHB.png,,,,,,,,,,,,,,,,,,,,,,
,,,,,,,,,,,,,,,,,198721,21,2022-01-28_21h20.35.156,lexical_decision_task_DD_L5,2021.2.3,Win32,60.90504903,,,,,,,,,,,0.6686,1,,,,,,,,,,,,,,z,1,0.6686,,,,,,,,0.011574157,-0.387963046,0,0,0,,0,30,30,97,1,CHIDS,HB,old,z,./images/CHIDSHB.png,,,,,,,,,,,,,,,,,,,,,,
,,,,,,,,,,,,,,,,,198721,21,2022-01-28_21h20.35.156,lexical_decision_task_DD_L5,2021.2.3,Win32,60.90504903,,,,,,,,,,,0.7675,1,,,,,,,,,,,,,,z,1,0.7675,,,,,,,,0.011574157,-0.387963046,0,0,0,,0,31,31,167,1,ZONET,LB,old,z,./images/ZONETLB.png,,,,,,,,,,,,,,,,,,,,,,
,,,,,,,,,,,,,,,,,198721,21,2022-01-28_21h20.35.156,lexical_decision_task_DD_L5,2021.2.3,Win32,60.90504903,,,,,,,,,,,0.6191,1,,,,,,,,,,,,,,z,1,0.6191,,,,,,,,0.011574157,-0.387963046,0,0,0,,0,32,32,89,1,DRIEK,LB,old,z,./images/DRIEKLB.png,,,,,,,,,,,,,,,,,,,,,,
,,,,,,,,,,,,,,,,,198721,21,2022-01-28_21h20.35.156,lexical_decision_task_DD_L5,2021.2.3,Win32,60.90504903,,,,,,,,,,,0.5184,1,,,,,,,,,,,,,,m,1,0.5184,,,,,,,,0.011574157,-0.387963046,0,0,0,,0,33,33,40,1,SNAKE,LB,old,m,./images/SNAKELB.png,,,,,,,,,,,,,,,,,,,,,,
,,,,,,,,,,,,,,,,,198721,21,2022-01-28_21h20.35.156,lexical_decision_task_DD_L5,2021.2.3,Win32,60.90504903,,,,,,,,,,,0.5016,1,,,,,,,,,,,,,,z,1,0.5016,,,,,,,,0.011574157,-0.387963046,0,0,0,,0,34,34,132,1,SCIFF,C,old,z,./images/SCIFF.png,,,,,,,,,,,,,,,,,,,,,,
,,,,,,,,,,,,,,,,,198721,21,2022-01-28_21h20.35.156,lexical_decision_task_DD_L5,2021.2.3,Win32,60.90504903,,,,,,,,,,,0.5683,1,,,,,,,,,,,,,,m,1,0.5683,,,,,,,,0.011574157,-0.387963046,0,0,0,,0,35,35,15,1,COLLAR,HB,old,m,./images/COLLARHB.png,,,,,,,,,,,,,,,,,,,,,,
,,,,,,,,,,,,,,,,,198721,21,2022-01-28_21h20.35.156,lexical_decision_task_DD_L5,2021.2.3,Win32,60.90504903,,,,,,,,,,,0.5032,1,,,,,,,,,,,,,,z,1,0.5032,,,,,,,,0.011574157,-0.387963046,0,0,0,,0,36,36,96,1,KEAMS,C,old,z,./images/KEAMS.png,,,,,,,,,,,,,,,,,,,,,,
,,,,,,,,,,,,,,,,,198721,21,2022-01-28_21h20.35.156,lexical_decision_task_DD_L5,2021.2.3,Win32,60.90504903,,,,,,,,,,,0.5514,1,,,,,,,,,,,,,,z,1,0.5514,,,,,,,,0.011574157,-0.387963046,0,0,0,,0,37,37,118,1,BAVEL,HB,old,z,./images/BAVELHB.png,,,,,,,,,,,,,,,,,,,,,,
,,,,,,,,,,,,,,,,,198721,21,2022-01-28_21h20.35.156,lexical_decision_task_DD_L5,2021.2.3,Win32,60.90504903,,,,,,,,,,,0.5677,1,,,,,,,,,,,,,,z,1,0.5677,,,,,,,,0.011574157,-0.387963046,0,0,0,,0,38,38,127,1,NINDY,HB,old,z,./images/NINDYHB.png,,,,,,,,,,,,,,,,,,,,,,
,,,,,,,,,,,,,,,,,198721,21,2022-01-28_21h20.35.156,lexical_decision_task_DD_L5,2021.2.3,Win32,60.90504903,,,,,,,,,,,0.6185,1,,,,,,,,,,,,,,m,1,0.6185,,,,,,,,0.011574157,-0.387963046,0,0,0,,0,39,39,68,1,VALLEY,C,old,m,./images/VALLEY.png,,,,,,,,,,,,,,,,,,,,,,
,,,,,,,,,,,,,,,,,198721,21,2022-01-28_21h20.35.156,lexical_decision_task_DD_L5,2021.2.3,Win32,60.90504903,,,,,,,,,,,0.62,1,,,,,,,,,,,,,,m,1,0.62,,,,,,,,0.011574157,-0.387963046,0,0,0,,0,40,40,44,1,BASKET,C,old,m,./images/BASKET.png,,,,,,,,,,,,,,,,,,,,,,
,,,,,,,,,,,,,,,,,198721,21,2022-01-28_21h20.35.156,lexical_decision_task_DD_L5,2021.2.3,Win32,60.90504903,,,,,,,,,,,0.8535,1,,,,,,,,,,,,,,z,1,0.8535,,,,,,,,0.011574157,-0.387963046,0,0,0,space,0,41,41,151,1,TINKY,HB,old,z,./images/TINKYHB.png,9.3305,,,,,,,,,,,,,,,,,,,,,
,,,,,,,,,,,,,,,,,198721,21,2022-01-28_21h20.35.156,lexical_decision_task_DD_L5,2021.2.3,Win32,60.90504903,,,,,,,,,,,0.6007,1,,,,,,,,,,,,,,z,1,0.6007,,,,,,,,0.011574157,-0.387963046,0,0,0,,0,42,42,99,1,BACKY,C,old,z,./images/BACKY.png,,,,,,,,,,,,,,,,,,,,,,
,,,,,,,,,,,,,,,,,198721,21,2022-01-28_21h20.35.156,lexical_decision_task_DD_L5,2021.2.3,Win32,60.90504903,,,,,,,,,,,0.6181,1,,,,,,,,,,,,,,z,1,0.6181,,,,,,,,0.011574157,-0.387963046,0,0,0,,0,43,43,126,1,GUELS,C,old,z,./images/GUELS.png,,,,,,,,,,,,,,,,,,,,,,
,,,,,,,,,,,,,,,,,198721,21,2022-01-28_21h20.35.156,lexical_decision_task_DD_L5,2021.2.3,Win32,60.90504903,,,,,,,,,,,0.5033,1,,,,,,,,,,,,,,z,1,0.5033,,,,,,,,0.011574157,-0.387963046,0,0,0,,0,44,44,133,1,POWDY,HB,old,z,./images/POWDYHB.png,,,,,,,,,,,,,,,,,,,,,,
,,,,,,,,,,,,,,,,,198721,21,2022-01-28_21h20.35.156,lexical_decision_task_DD_L5,2021.2.3,Win32,60.90504903,,,,,,,,,,,0.5837,1,,,,,,,,,,,,,,z,1,0.5837,,,,,,,,0.011574157,-0.387963046,0,0,0,,0,45,45,120,1,RINED,C,old,z,./images/RINED.png,,,,,,,,,,,,,,,,,,,,,,
,,,,,,,,,,,,,,,,,198721,21,2022-01-28_21h20.35.156,lexical_decision_task_DD_L5,2021.2.3,Win32,60.90504903,,,,,,,,,,,0.4669,1,,,,,,,,,,,,,,z,1,0.4669,,,,,,,,0.011574157,-0.387963046,0,0,0,,0,46,46,137,1,JOOST,LB,old,z,./images/JOOSTLB.png,,,,,,,,,,,,,,,,,,,,,,
,,,,,,,,,,,,,,,,,198721,21,2022-01-28_21h20.35.156,lexical_decision_task_DD_L5,2021.2.3,Win32,60.90504903,,,,,,,,,,,0.4506,1,,,,,,,,,,,,,,z,1,0.4506,,,,,,,,0.011574157,-0.387963046,0,0,0,,0,47,47,108,1,GRUET,C,old,z,./images/GRUET.png,,,,,,,,,,,,,,,,,,,,,,
,,,,,,,,,,,,,,,,,198721,21,2022-01-28_21h20.35.156,lexical_decision_task_DD_L5,2021.2.3,Win32,60.90504903,,,,,,,,,,,0.5675,1,,,,,,,,,,,,,,m,1,0.5675,,,,,,,,0.011574157,-0.387963046,0,0,0,,0,48,48,67,1,POKER,LB,old,m,./images/POKERLB.png,,,,,,,,,,,,,,,,,,,,,,
,,,,,,,,,,,,,,,,,198721,21,2022-01-28_21h20.35.156,lexical_decision_task_DD_L5,2021.2.3,Win32,60.90504903,,,,,,,,,,,0.5841,1,,,,,,,,,,,,,,z,1,0.5841,,,,,,,,0.011574157,-0.387963046,0,0,0,,0,49,49,114,1,RIKES,C,old,z,./images/RIKES.png,,,,,,,,,,,,,,,,,,,,,,
,,,,,,,,,,,,,,,,,198721,21,2022-01-28_21h20.35.156,lexical_decision_task_DD_L5,2021.2.3,Win32,60.90504903,,,,,,,,,,,1.0008,1,,,,,,,,,,,,,,z,1,1.0008,,,,,,,,0.011574157,-0.387963046,0,0,0,,0,50,50,85,1,CHULK,HB,old,z,./images/CHULKHB.png,,,,,,,,,,,,,,,,,,,,,,
,,,,,,,,,,,,,,,,,198721,21,2022-01-28_21h20.35.156,lexical_decision_task_DD_L5,2021.2.3,Win32,60.90504903,,,,,,,,,,,0.5008,1,,,,,,,,,,,,,,m,1,0.5008,,,,,,,,0.011574157,-0.387963046,0,0,0,,0,51,51,34,1,RAZOR,LB,old,m,./images/RAZORLB.png,,,,,,,,,,,,,,,,,,,,,,
,,,,,,,,,,,,,,,,,198721,21,2022-01-28_21h20.35.156,lexical_decision_task_DD_L5,2021.2.3,Win32,60.90504903,,,,,,,,,,,0.6885,1,,,,,,,,,,,,,,z,1,0.6885,,,,,,,,0.011574157,-0.387963046,0,0,0,,0,52,52,131,1,NACES,LB,old,z,./images/NACESLB.png,,,,,,,,,,,,,,,,,,,,,,
,,,,,,,,,,,,,,,,,198721,21,2022-01-28_21h20.35.156,lexical_decision_task_DD_L5,2021.2.3,Win32,60.90504903,,,,,,,,,,,0.6045,1,,,,,,,,,,,,,,m,1,0.6045,,,,,,,,0.011574157,-0.387963046,0,0,0,,0,53,53,29,1,PISTOL,C,old,m,./images/PISTOL.png,,,,,,,,,,,,,,,,,,,,,,
,,,,,,,,,,,,,,,,,198721,21,2022-01-28_21h20.35.156,lexical_decision_task_DD_L5,2021.2.3,Win32,60.90504903,,,,,,,,,,,0.6175,1,,,,,,,,,,,,,,m,1,0.6175,,,,,,,,0.011574157,-0.387963046,0,0,0,,0,54,54,19,1,DONKEY,LB,old,m,./images/DONKEYLB.png,,,,,,,,,,,,,,,,,,,,,,
,,,,,,,,,,,,,,,,,198721,21,2022-01-28_21h20.35.156,lexical_decision_task_DD_L5,2021.2.3,Win32,60.90504903,,,,,,,,,,,0.5013,1,,,,,,,,,,,,,,m,1,0.5013,,,,,,,,0.011574157,-0.387963046,0,0,0,,0,55,55,14,1,FENCE,C,old,m,./images/FENCE.png,,,,,,,,,,,,,,,,,,,,,,
,,,,,,,,,,,,,,,,,198721,21,2022-01-28_21h20.35.156,lexical_decision_task_DD_L5,2021.2.3,Win32,60.90504903,,,,,,,,,,,0.5679,1,,,,,,,,,,,,,,m,1,0.5679,,,,,,,,0.011574157,-0.387963046,0,0,0,,0,56,56,69,1,ARROW,HB,old,m,./images/ARROWHB.png,,,,,,,,,,,,,,,,,,,,,,
,,,,,,,,,,,,,,,,,198721,21,2022-01-28_21h20.35.156,lexical_decision_task_DD_L5,2021.2.3,Win32,60.90504903,,,,,,,,,,,0.9008,0,,,,,,,,,,,,,,m,0,0.9008,,,,,,,,0.011574157,-0.387963046,0,0,0,,0,57,57,142,1,PLASK,HB,old,z,./images/PLASKHB.png,,,,,,,,,,,,,,,,,,,,,,
,,,,,,,,,,,,,,,,,198721,21,2022-01-28_21h20.35.156,lexical_decision_task_DD_L5,2021.2.3,Win32,60.90504903,,,,,,,,,,,1.0506,1,,,,,,,,,,,,,,z,1,1.0506,,,,,,,,0.011574157,-0.387963046,0,0,0,,0,58,58,166,1,SHORY,HB,old,z,./images/SHORYHB.png,,,,,,,,,,,,,,,,,,,,,,
,,,,,,,,,,,,,,,,,198721,21,2022-01-28_21h20.35.156,lexical_decision_task_DD_L5,2021.2.3,Win32,60.90504903,,,,,,,,,,,0.618,1,,,,,,,,,,,,,,m,1,0.618,,,,,,,,0.011574157,-0.387963046,0,0,0,,0,59,59,10,1,GARDEN,LB,old,m,./images/GARDENLB.png,,,,,,,,,,,,,,,,,,,,,,
,,,,,,,,,,,,,,,,,198721,21,2022-01-28_21h20.35.156,lexical_decision_task_DD_L5,2021.2.3,Win32,60.90504903,,,,,,,,,,,0.7683,1,,,,,,,,,,,,,,z,1,0.7683,,,,,,,,0.011574157,-0.387963046,0,0,0,,0,60,60,115,1,MAWNS,HB,old,z,./images/MAWNSHB.png,,,,,,,,,,,,,,,,,,,,,,
,,,,,,,,,,,,,,,,,198721,21,2022-01-28_21h20.35.156,lexical_decision_task_DD_L5,2021.2.3,Win32,60.90504903,,,,,,,,,,,1.0333,0,,,,,,,,,,,,,,z,0,1.0333,,,,,,,,0.011574157,-0.387963046,0,0,0,,0,61,61,36,1,BOILER,HB,old,m,./images/BOILERHB.png,,,,,,,,,,,,,,,,,,,,,,
,,,,,,,,,,,,,,,,,198721,21,2022-01-28_21h20.35.156,lexical_decision_task_DD_L5,2021.2.3,Win32,60.90504903,,,,,,,,,,,0.7005,1,,,,,,,,,,,,,,m,1,0.7005,,,,,,,,0.011574157,-0.387963046,0,0,0,,0,62,62,81,1,DRILL,HB,old,m,./images/DRILLHB.png,,,,,,,,,,,,,,,,,,,,,,
,,,,,,,,,,,,,,,,,198721,21,2022-01-28_21h20.35.156,lexical_decision_task_DD_L5,2021.2.3,Win32,60.90504903,,,,,,,,,,,1.1504,0,,,,,,,,,,,,,,z,0,1.1504,,,,,,,,0.011574157,-0.387963046,0,0,0,,0,63,63,35,1,LLAMA,C,old,m,./images/LLAMA.png,,,,,,,,,,,,,,,,,,,,,,
,,,,,,,,,,,,,,,,,198721,21,2022-01-28_21h20.35.156,lexical_decision_task_DD_L5,2021.2.3,Win32,60.90504903,,,,,,,,,,,0.8371,1,,,,,,,,,,,,,,m,1,0.8371,,,,,,,,0.011574157,-0.387963046,0,0,0,,0,64,64,51,1,SAUCE,HB,old,m,./images/SAUCEHB.png,,,,,,,,,,,,,,,,,,,,,,
,,,,,,,,,,,,,,,,,198721,21,2022-01-28_21h20.35.156,lexical_decision_task_DD_L5,2021.2.3,Win32,60.90504903,,,,,,,,,,,0.6198,1,,,,,,,,,,,,,,z,1,0.6198,,,,,,,,0.011574157,-0.387963046,0,0,0,,0,65,65,101,1,GLEET,LB,old,z,./images/GLEETLB.png,,,,,,,,,,,,,,,,,,,,,,
,,,,,,,,,,,,,,,,,198721,21,2022-01-28_21h20.35.156,lexical_decision_task_DD_L5,2021.2.3,Win32,60.90504903,,,,,,,,,,,0.6536,1,,,,,,,,,,,,,,z,1,0.6536,,,,,,,,0.011574157,-0.387963046,0,0,0,,0,66,66,149,1,VEASE,LB,old,z,./images/VEASELB.png,,,,,,,,,,,,,,,,,,,,,,
,,,,,,,,,,,,,,,,,198721,21,2022-01-28_21h20.35.156,lexical_decision_task_DD_L5,2021.2.3,Win32,60.90504903,,,,,,,,,,,0.5841,1,,,,,,,,,,,,,,z,1,0.5841,,,,,,,,0.011574157,-0.387963046,0,0,0,,0,67,67,141,1,PLEET,C,old,z,./images/PLEET.png,,,,,,,,,,,,,,,,,,,,,,
,,,,,,,,,,,,,,,,,198721,21,2022-01-28_21h20.35.156,lexical_decision_task_DD_L5,2021.2.3,Win32,60.90504903,,,,,,,,,,,0.6016,1,,,,,,,,,,,,,,m,1,0.6016,,,,,,,,0.011574157,-0.387963046,0,0,0,,0,68,68,80,1,PLANET,C,old,m,./images/PLANET.png,,,,,,,,,,,,,,,,,,,,,,
,,,,,,,,,,,,,,,,,198721,21,2022-01-28_21h20.35.156,lexical_decision_task_DD_L5,2021.2.3,Win32,60.90504903,,,,,,,,,,,0.571,1,,,,,,,,,,,,,,m,1,0.571,,,,,,,,0.011574157,-0.387963046,0,0,0,,0,69,69,56,1,HEATER,C,old,m,./images/HEATER.png,,,,,,,,,,,,,,,,,,,,,,
,,,,,,,,,,,,,,,,,198721,21,2022-01-28_21h20.35.156,lexical_decision_task_DD_L5,2021.2.3,Win32,60.90504903,,,,,,,,,,,0.5177,1,,,,,,,,,,,,,,m,1,0.5177,,,,,,,,0.011574157,-0.387963046,0,0,0,,0,70,70,39,1,CANDY,HB,old,m,./images/CANDYHB.png,,,,,,,,,,,,,,,,,,,,,,
,,,,,,,,,,,,,,,,,198721,21,2022-01-28_21h20.35.156,lexical_decision_task_DD_L5,2021.2.3,Win32,60.90504903,,,,,,,,,,,0.6,1,,,,,,,,,,,,,,z,1,0.6,,,,,,,,0.011574157,-0.387963046,0,0,0,,0,71,71,117,1,STEEG,C,old,z,./images/STEEG.png,,,,,,,,,,,,,,,,,,,,,,
,,,,,,,,,,,,,,,,,198721,21,2022-01-28_21h20.35.156,lexical_decision_task_DD_L5,2021.2.3,Win32,60.90504903,,,,,,,,,,,0.5342,1,,,,,,,,,,,,,,m,1,0.5342,,,,,,,,0.011574157,-0.387963046,0,0,0,,0,72,72,43,1,STOOL,LB,old,m,./images/STOOLLB.png,,,,,,,,,,,,,,,,,,,,,,
,,,,,,,,,,,,,,,,,198721,21,2022-01-28_21h20.35.156,lexical_decision_task_DD_L5,2021.2.3,Win32,60.90504903,,,,,,,,,,,0.5173,1,,,,,,,,,,,,,,m,1,0.5173,,,,,,,,0.011574157,-0.387963046,0,0,0,,0,73,73,59,1,BRUSH,C,old,m,./images/BRUSH.png,,,,,,,,,,,,,,,,,,,,,,
,,,,,,,,,,,,,,,,,198721,21,2022-01-28_21h20.35.156,lexical_decision_task_DD_L5,2021.2.3,Win32,60.90504903,,,,,,,,,,,0.668,1,,,,,,,,,,,,,,z,1,0.668,,,,,,,,0.011574157,-0.387963046,0,0,0,,0,74,74,93,1,SMONE,C,old,z,./images/SMONE.png,,,,,,,,,,,,,,,,,,,,,,
,,,,,,,,,,,,,,,,,198721,21,2022-01-28_21h20.35.156,lexical_decision_task_DD_L5,2021.2.3,Win32,60.90504903,,,,,,,,,,,1.3507,0,,,,,,,,,,,,,,z,0,1.3507,,,,,,,,0.011574157,-0.387963046,0,0,0,,0,75,75,57,1,FERRY,HB,old,m,./images/FERRYHB.png,,,,,,,,,,,,,,,,,,,,,,
,,,,,,,,,,,,,,,,,198721,21,2022-01-28_21h20.35.156,lexical_decision_task_DD_L5,2021.2.3,Win32,60.90504903,,,,,,,,,,,0.5874,1,,,,,,,,,,,,,,m,1,0.5874,,,,,,,,0.011574157,-0.387963046,0,0,0,,0,76,76,50,1,PILOT,C,old,m,./images/PILOT.png,,,,,,,,,,,,,,,,,,,,,,
,,,,,,,,,,,,,,,,,198721,21,2022-01-28_21h20.35.156,lexical_decision_task_DD_L5,2021.2.3,Win32,60.90504903,,,,,,,,,,,0.5841,1,,,,,,,,,,,,,,m,1,0.5841,,,,,,,,0.011574157,-0.387963046,0,0,0,,0,77,77,48,1,SHIELD,HB,old,m,./images/SHIELDHB.png,,,,,,,,,,,,,,,,,,,,,,
,,,,,,,,,,,,,,,,,198721,21,2022-01-28_21h20.35.156,lexical_decision_task_DD_L5,2021.2.3,Win32,60.90504903,,,,,,,,,,,0.5683,1,,,,,,,,,,,,,,z,1,0.5683,,,,,,,,0.011574157,-0.387963046,0,0,0,,0,78,78,162,1,LEICH,C,old,z,./images/LEICH.png,,,,,,,,,,,,,,,,,,,,,,
,,,,,,,,,,,,,,,,,198721,21,2022-01-28_21h20.35.156,lexical_decision_task_DD_L5,2021.2.3,Win32,60.90504903,,,,,,,,,,,0.4673,1,,,,,,,,,,,,,,m,1,0.4673,,,,,,,,0.011574157,-0.387963046,0,0,0,,0,79,79,8,1,CLIFF,C,old,m,./images/CLIFF.png,,,,,,,,,,,,,,,,,,,,,,
,,,,,,,,,,,,,,,,,198721,21,2022-01-28_21h20.35.156,lexical_decision_task_DD_L5,2021.2.3,Win32,60.90504903,,,,,,,,,,,0.5387,1,,,,,,,,,,,,,,m,1,0.5387,,,,,,,,0.011574157,-0.387963046,0,0,0,,0,80,80,0,1,WALNUT,HB,old,m,./images/WALNUTHB.png,,,,,,,,,,,,,,,,,,,,,,
,,,,,,,,,,,,,,,,,198721,21,2022-01-28_21h20.35.156,lexical_decision_task_DD_L5,2021.2.3,Win32,60.90504903,,,,,,,,,,,0.6017,1,,,,,,,,,,,,,,z,1,0.6017,,,,,,,,0.011574157,-0.387963046,0,0,0,,0,81,81,119,1,PAFER,LB,old,z,./images/PAFERLB.png,,,,,,,,,,,,,,,,,,,,,,
,,,,,,,,,,,,,,,,,198721,21,2022-01-28_21h20.35.156,lexical_decision_task_DD_L5,2021.2.3,Win32,60.90504903,,,,,,,,,,,0.7497,1,,,,,,,,,,,,,,z,1,0.7497,,,,,,,,0.011574157,-0.387963046,0,0,0,,0,82,82,140,1,DOVET,LB,old,z,./images/DOVETLB.png,,,,,,,,,,,,,,,,,,,,,,
,,,,,,,,,,,,,,,,,198721,21,2022-01-28_21h20.35.156,lexical_decision_task_DD_L5,2021.2.3,Win32,60.90504903,,,,,,,,,,,0.8511,1,,,,,,,,,,,,,,m,1,0.8511,,,,,,,,0.011574157,-0.387963046,0,0,0,space,0,83,83,28,1,CASINO,LB,old,m,./images/CASINOLB.png,2.7007,,,,,,,,,,,,,,,,,,,,,
,,,,,,,,,,,,,,,,,198721,21,2022-01-28_21h20.35.156,lexical_decision_task_DD_L5,2021.2.3,Win32,60.90504903,,,,,,,,,,,0.7516,1,,,,,,,,,,,,,,m,1,0.7516,,,,,,,,0.011574157,-0.387963046,0,0,0,,0,84,84,55,1,ALLEY,LB,old,m,./images/ALLEYLB.png,,,,,,,,,,,,,,,,,,,,,,
,,,,,,,,,,,,,,,,,198721,21,2022-01-28_21h20.35.156,lexical_decision_task_DD_L5,2021.2.3,Win32,60.90504903,,,,,,,,,,,0.4685,1,,,,,,,,,,,,,,m,1,0.4685,,,,,,,,0.011574157,-0.387963046,0,0,0,,0,85,85,11,1,MEDAL,C,old,m,./images/MEDAL.png,,,,,,,,,,,,,,,,,,,,,,
,,,,,,,,,,,,,,,,,198721,21,2022-01-28_21h20.35.156,lexical_decision_task_DD_L5,2021.2.3,Win32,60.90504903,,,,,,,,,,,0.5502,1,,,,,,,,,,,,,,m,1,0.5502,,,,,,,,0.011574157,-0.387963046,0,0,0,,0,86,86,33,1,SAUNA,HB,old,m,./images/SAUNAHB.png,,,,,,,,,,,,,,,,,,,,,,
,,,,,,,,,,,,,,,,,198721,21,2022-01-28_21h20.35.156,lexical_decision_task_DD_L5,2021.2.3,Win32,60.90504903,,,,,,,,,,,0.7504,1,,,,,,,,,,,,,,z,1,0.7504,,,,,,,,0.011574157,-0.387963046,0,0,0,,0,87,87,155,1,CANGY,LB,old,z,./images/CANGYLB.png,,,,,,,,,,,,,,,,,,,,,,
,,,,,,,,,,,,,,,,,198721,21,2022-01-28_21h20.35.156,lexical_decision_task_DD_L5,2021.2.3,Win32,60.90504903,,,,,,,,,,,0.6509,1,,,,,,,,,,,,,,z,1,0.6509,,,,,,,,0.011574157,-0.387963046,0,0,0,,0,88,88,105,1,MOKER,C,old,z,./images/MOKER.png,,,,,,,,,,,,,,,,,,,,,,
,,,,,,,,,,,,,,,,,198721,21,2022-01-28_21h20.35.156,lexical_decision_task_DD_L5,2021.2.3,Win32,60.90504903,,,,,,,,,,,0.7999,1,,,,,,,,,,,,,,m,1,0.7999,,,,,,,,0.011574157,-0.387963046,0,0,0,,0,89,89,82,1,PEBBLE,LB,old,m,./images/PEBBLELB.png,,,,,,,,,,,,,,,,,,,,,,
,,,,,,,,,,,,,,,,,198721,21,2022-01-28_21h20.35.156,lexical_decision_task_DD_L5,2021.2.3,Win32,60.90504903,,,,,,,,,,,0.5875,1,,,,,,,,,,,,,,z,1,0.5875,,,,,,,,0.011574157,-0.387963046,0,0,0,,0,90,90,156,1,HIXES,C,old,z,./images/HIXES.png,,,,,,,,,,,,,,,,,,,,,,
,,,,,,,,,,,,,,,,,198721,21,2022-01-28_21h20.35.156,lexical_decision_task_DD_L5,2021.2.3,Win32,60.90504903,,,,,,,,,,,0.7179,0,,,,,,,,,,,,,,m,0,0.7179,,,,,,,,0.011574157,-0.387963046,0,0,0,,0,91,91,159,1,CUDDY,C,old,z,./images/CUDDY.png,,,,,,,,,,,,,,,,,,,,,,
,,,,,,,,,,,,,,,,,198721,21,2022-01-28_21h20.35.156,lexical_decision_task_DD_L5,2021.2.3,Win32,60.90504903,,,,,,,,,,,0.7185,1,,,,,,,,,,,,,,z,1,0.7185,,,,,,,,0.011574157,-0.387963046,0,0,0,,0,92,92,150,1,NOOLS,C,old,z,./images/NOOLS.png,,,,,,,,,,,,,,,,,,,,,,
,,,,,,,,,,,,,,,,,198721,21,2022-01-28_21h20.35.156,lexical_decision_task_DD_L5,2021.2.3,Win32,60.90504903,,,,,,,,,,,0.6338,1,,,,,,,,,,,,,,z,1,0.6338,,,,,,,,0.011574157,-0.387963046,0,0,0,,0,93,93,124,1,TUNCH,HB,old,z,./images/TUNCHHB.png,,,,,,,,,,,,,,,,,,,,,,
,,,,,,,,,,,,,,,,,198721,21,2022-01-28_21h20.35.156,lexical_decision_task_DD_L5,2021.2.3,Win32,60.90504903,,,,,,,,,,,0.5389,1,,,,,,,,,,,,,,z,1,0.5389,,,,,,,,0.011574157,-0.387963046,0,0,0,,0,94,94,138,1,PLICE,C,old,z,./images/PLICE.png,,,,,,,,,,,,,,,,,,,,,,
,,,,,,,,,,,,,,,,,198721,21,2022-01-28_21h20.35.156,lexical_decision_task_DD_L5,2021.2.3,Win32,60.90504903,,,,,,,,,,,0.5841,1,,,,,,,,,,,,,,m,1,0.5841,,,,,,,,0.011574157,-0.387963046,0,0,0,,0,95,95,49,1,BISHOP,LB,old,m,./images/BISHOPLB.png,,,,,,,,,,,,,,,,,,,,,,
,,,,,,,,,,,,,,,,,198721,21,2022-01-28_21h20.35.156,lexical_decision_task_DD_L5,2021.2.3,Win32,60.90504903,,,,,,,,,,,0.6682,1,,,,,,,,,,,,,,m,1,0.6682,,,,,,,,0.011574157,-0.387963046,0,0,0,,0,96,96,13,1,BUNNY,LB,old,m,./images/BUNNYLB.png,,,,,,,,,,,,,,,,,,,,,,
,,,,,,,,,,,,,,,,,198721,21,2022-01-28_21h20.35.156,lexical_decision_task_DD_L5,2021.2.3,Win32,60.90504903,,,,,,,,,,,0.4706,1,,,,,,,,,,,,,,m,1,0.4706,,,,,,,,0.011574157,-0.387963046,0,0,0,,0,97,97,61,1,ARTIST,LB,old,m,./images/ARTISTLB.png,,,,,,,,,,,,,,,,,,,,,,
,,,,,,,,,,,,,,,,,198721,21,2022-01-28_21h20.35.156,lexical_decision_task_DD_L5,2021.2.3,Win32,60.90504903,,,,,,,,,,,0.5344,1,,,,,,,,,,,,,,m,1,0.5344,,,,,,,,0.011574157,-0.387963046,0,0,0,,0,98,98,4,1,BOXER,LB,old,m,./images/BOXERLB.png,,,,,,,,,,,,,,,,,,,,,,
,,,,,,,,,,,,,,,,,198721,21,2022-01-28_21h20.35.156,lexical_decision_task_DD_L5,2021.2.3,Win32,60.90504903,,,,,,,,,,,0.6675,1,,,,,,,,,,,,,,z,1,0.6675,,,,,,,,0.011574157,-0.387963046,0,0,0,,0,99,99,160,1,VEETS,HB,old,z,./images/VEETSHB.png,,,,,,,,,,,,,,,,,,,,,,
,,,,,,,,,,,,,,,,,198721,21,2022-01-28_21h20.35.156,lexical_decision_task_DD_L5,2021.2.3,Win32,60.90504903,,,,,,,,,,,1.1832,1,,,,,,,,,,,,,,m,1,1.1832,,,,,,,,0.011574157,-0.387963046,0,0,0,,0,100,100,52,1,DESERT,LB,old,m,./images/DESERTLB.png,,,,,,,,,,,,,,,,,,,,,,
,,,,,,,,,,,,,,,,,198721,21,2022-01-28_21h20.35.156,lexical_decision_task_DD_L5,2021.2.3,Win32,60.90504903,,,,,,,,,,,0.8009,1,,,,,,,,,,,,,,m,1,0.8009,,,,,,,,0.011574157,-0.387963046,0,0,0,,0,101,101,76,1,MIDGET,LB,old,m,./images/MIDGETLB.png,,,,,,,,,,,,,,,,,,,,,,
,,,,,,,,,,,,,,,,,198721,21,2022-01-28_21h20.35.156,lexical_decision_task_DD_L5,2021.2.3,Win32,60.90504903,,,,,,,,,,,0.6335,1,,,,,,,,,,,,,,z,1,0.6335,,,,,,,,0.011574157,-0.387963046,0,0,0,,0,102,102,111,1,HOSSE,C,old,z,./images/HOSSE.png,,,,,,,,,,,,,,,,,,,,,,
,,,,,,,,,,,,,,,,,198721,21,2022-01-28_21h20.35.156,lexical_decision_task_DD_L5,2021.2.3,Win32,60.90504903,,,,,,,,,,,0.6336,1,,,,,,,,,,,,,,z,1,0.6336,,,,,,,,0.011574157,-0.387963046,0,0,0,,0,103,103,122,1,BLOOT,LB,old,z,./images/BLOOTLB.png,,,,,,,,,,,,,,,,,,,,,,
,,,,,,,,,,,,,,,,,198721,21,2022-01-28_21h20.35.156,lexical_decision_task_DD_L5,2021.2.3,Win32,60.90504903,,,,,,,,,,,0.5334,1,,,,,,,,,,,,,,z,1,0.5334,,,,,,,,0.011574157,-0.387963046,0,0,0,,0,104,104,128,1,GRIFT,LB,old,z,./images/GRIFTLB.png,,,,,,,,,,,,,,,,,,,,,,
,,,,,,,,,,,,,,,,,198721,21,2022-01-28_21h20.35.156,lexical_decision_task_DD_L5,2021.2.3,Win32,60.90504903,,,,,,,,,,,0.5179,1,,,,,,,,,,,,,,m,1,0.5179,,,,,,,,0.011574157,-0.387963046,0,0,0,,0,105,105,16,1,GRAPE,LB,old,m,./images/GRAPELB.png,,,,,,,,,,,,,,,,,,,,,,
,,,,,,,,,,,,,,,,,198721,21,2022-01-28_21h20.35.156,lexical_decision_task_DD_L5,2021.2.3,Win32,60.90504903,,,,,,,,,,,0.6172,1,,,,,,,,,,,,,,z,1,0.6172,,,,,,,,0.011574157,-0.387963046,0,0,0,,0,106,106,130,1,CRILL,HB,old,z,./images/CRILLHB.png,,,,,,,,,,,,,,,,,,,,,,
,,,,,,,,,,,,,,,,,198721,21,2022-01-28_21h20.35.156,lexical_decision_task_DD_L5,2021.2.3,Win32,60.90504903,,,,,,,,,,,0.6344,1,,,,,,,,,,,,,,m,1,0.6344,,,,,,,,0.011574157,-0.387963046,0,0,0,,0,107,107,42,1,CHAIN,HB,old,m,./images/CHAINHB.png,,,,,,,,,,,,,,,,,,,,,,
,,,,,,,,,,,,,,,,,198721,21,2022-01-28_21h20.35.156,lexical_decision_task_DD_L5,2021.2.3,Win32,60.90504903,,,,,,,,,,,0.5337,1,,,,,,,,,,,,,,m,1,0.5337,,,,,,,,0.011574157,-0.387963046,0,0,0,,0,108,108,74,1,JUMPER,C,old,m,./images/JUMPER.png,,,,,,,,,,,,,,,,,,,,,,
,,,,,,,,,,,,,,,,,198721,21,2022-01-28_21h20.35.156,lexical_decision_task_DD_L5,2021.2.3,Win32,60.90504903,,,,,,,,,,,0.5181,1,,,,,,,,,,,,,,m,1,0.5181,,,,,,,,0.011574157,-0.387963046,0,0,0,,0,109,109,72,1,FLASK,HB,old,m,./images/FLASKHB.png,,,,,,,,,,,,,,,,,,,,,,
,,,,,,,,,,,,,,,,,198721,21,2022-01-28_21h20.35.156,lexical_decision_task_DD_L5,2021.2.3,Win32,60.90504903,,,,,,,,,,,0.5676,1,,,,,,,,,,,,,,z,1,0.5676,,,,,,,,0.011574157,-0.387963046,0,0,0,,0,110,110,129,1,PRANS,C,old,z,./images/PRANS.png,,,,,,,,,,,,,,,,,,,,,,
,,,,,,,,,,,,,,,,,198721,21,2022-01-28_21h20.35.156,lexical_decision_task_DD_L5,2021.2.3,Win32,60.90504903,,,,,,,,,,,0.7679,1,,,,,,,,,,,,,,z,1,0.7679,,,,,,,,0.011574157,-0.387963046,0,0,0,,0,111,111,86,1,AIFED,LB,old,z,./images/AIFEDLB.png,,,,,,,,,,,,,,,,,,,,,,
,,,,,,,,,,,,,,,,,198721,21,2022-01-28_21h20.35.156,lexical_decision_task_DD_L5,2021.2.3,Win32,60.90504903,,,,,,,,,,,0.5167,0,,,,,,,,,,,,,,m,0,0.5167,,,,,,,,0.011574157,-0.387963046,0,0,0,,0,112,112,110,1,CRUNK,LB,old,z,./images/CRUNKLB.png,,,,,,,,,,,,,,,,,,,,,,
,,,,,,,,,,,,,,,,,198721,21,2022-01-28_21h20.35.156,lexical_decision_task_DD_L5,2021.2.3,Win32,60.90504903,,,,,,,,,,,0.5705,1,,,,,,,,,,,,,,z,1,0.5705,,,,,,,,0.011574157,-0.387963046,0,0,0,,0,113,113,152,1,FRAIN,LB,old,z,./images/FRAINLB.png,,,,,,,,,,,,,,,,,,,,,,
,,,,,,,,,,,,,,,,,198721,21,2022-01-28_21h20.35.156,lexical_decision_task_DD_L5,2021.2.3,Win32,60.90504903,,,,,,,,,,,0.6563,1,,,,,,,,,,,,,,m,1,0.6563,,,,,,,,0.011574157,-0.387963046,0,0,0,,0,114,114,18,1,PARCEL,HB,old,m,./images/PARCELHB.png,,,,,,,,,,,,,,,,,,,,,,
,,,,,,,,,,,,,,,,,198721,21,2022-01-28_21h20.35.156,lexical_decision_task_DD_L5,2021.2.3,Win32,60.90504903,,,,,,,,,,,0.5213,1,,,,,,,,,,,,,,m,1,0.5213,,,,,,,,0.011574157,-0.387963046,0,0,0,,0,115,115,41,1,STREAM,C,old,m,./images/STREAM.png,,,,,,,,,,,,,,,,,,,,,,
,,,,,,,,,,,,,,,,,198721,21,2022-01-28_21h20.35.156,lexical_decision_task_DD_L5,2021.2.3,Win32,60.90504903,,,,,,,,,,,0.534,1,,,,,,,,,,,,,,z,1,0.534,,,,,,,,0.011574157,-0.387963046,0,0,0,,0,116,116,113,1,LINEW,LB,old,z,./images/LINEWLB.png,,,,,,,,,,,,,,,,,,,,,,
,,,,,,,,,,,,,,,,,198721,21,2022-01-28_21h20.35.156,lexical_decision_task_DD_L5,2021.2.3,Win32,60.90504903,,,,,,,,,,,0.6347,1,,,,,,,,,,,,,,m,1,0.6347,,,,,,,,0.011574157,-0.387963046,0,0,0,,0,117,117,63,1,BAKER,HB,old,m,./images/BAKERHB.png,,,,,,,,,,,,,,,,,,,,,,
,,,,,,,,,,,,,,,,,198721,21,2022-01-28_21h20.35.156,lexical_decision_task_DD_L5,2021.2.3,Win32,60.90504903,,,,,,,,,,,0.5013,1,,,,,,,,,,,,,,m,1,0.5013,,,,,,,,0.011574157,-0.387963046,0,0,0,,0,118,118,23,1,CLOTH,C,old,m,./images/CLOTH.png,,,,,,,,,,,,,,,,,,,,,,
,,,,,,,,,,,,,,,,,198721,21,2022-01-28_21h20.35.156,lexical_decision_task_DD_L5,2021.2.3,Win32,60.90504903,,,,,,,,,,,0.6165,1,,,,,,,,,,,,,,m,1,0.6165,,,,,,,,0.011574157,-0.387963046,0,0,0,,0,119,119,78,1,BROOM,HB,old,m,./images/BROOMHB.png,,,,,,,,,,,,,,,,,,,,,,
,,,,,,,,,,,,,,,,,198721,21,2022-01-28_21h20.35.156,lexical_decision_task_DD_L5,2021.2.3,Win32,60.90504903,,,,,,,,,,,0.5887,1,,,,,,,,,,,,,,z,1,0.5887,,,,,,,,0.011574157,-0.387963046,0,0,0,,0,120,120,164,1,SGREW,LB,old,z,./images/SGREWLB.png,,,,,,,,,,,,,,,,,,,,,,
,,,,,,,,,,,,,,,,,198721,21,2022-01-28_21h20.35.156,lexical_decision_task_DD_L5,2021.2.3,Win32,60.90504903,,,,,,,,,,,0.4499,1,,,,,,,,,,,,,,m,1,0.4499,,,,,,,,0.011574157,-0.387963046,0,0,0,,0,121,121,38,1,ENGINE,C,old,m,./images/ENGINE.png,,,,,,,,,,,,,,,,,,,,,,
,,,,,,,,,,,,,,,,,198721,21,2022-01-28_21h20.35.156,lexical_decision_task_DD_L5,2021.2.3,Win32,60.90504903,,,,,,,,,,,0.3836,1,,,,,,,,,,,,,,m,1,0.3836,,,,,,,,0.011574157,-0.387963046,0,0,0,,0,122,122,77,1,WHEEL,C,old,m,./images/WHEEL.png,,,,,,,,,,,,,,,,,,,,,,
,,,,,,,,,,,,,,,,,198721,21,2022-01-28_21h20.35.156,lexical_decision_task_DD_L5,2021.2.3,Win32,60.90504903,,,,,,,,,,,0.77,1,,,,,,,,,,,,,,m,1,0.77,,,,,,,,0.011574157,-0.387963046,0,0,0,,0,123,123,9,1,DIVER,HB,old,m,./images/DIVERHB.png,,,,,,,,,,,,,,,,,,,,,,
,,,,,,,,,,,,,,,,,198721,21,2022-01-28_21h20.35.156,lexical_decision_task_DD_L5,2021.2.3,Win32,60.90504903,,,,,,,,,,,0.4857,1,,,,,,,,,,,,,,m,1,0.4857,,,,,,,,0.011574157,-0.387963046,0,0,0,,0,124,124,17,1,PARADE,C,old,m,./images/PARADE.png,,,,,,,,,,,,,,,,,,,,,,
,,,,,,,,,,,,,,,,,198721,21,2022-01-28_21h20.35.156,lexical_decision_task_DD_L5,2021.2.3,Win32,60.90504903,,,,,,,,,,,0.4173,1,,,,,,,,,,,,,,m,1,0.4173,,,,,,,,0.011574157,-0.387963046,0,0,0,space,0,125,125,26,1,CLOUD,C,old,m,./images/CLOUD.png,3.1512,,,,,,,,,,,,,,,,,,,,,
,,,,,,,,,,,,,,,,,198721,21,2022-01-28_21h20.35.156,lexical_decision_task_DD_L5,2021.2.3,Win32,60.90504903,,,,,,,,,,,0.6349,1,,,,,,,,,,,,,,m,1,0.6349,,,,,,,,0.011574157,-0.387963046,0,0,0,,0,126,126,75,1,HAMMER,HB,old,m,./images/HAMMERHB.png,,,,,,,,,,,,,,,,,,,,,,
,,,,,,,,,,,,,,,,,198721,21,2022-01-28_21h20.35.156,lexical_decision_task_DD_L5,2021.2.3,Win32,60.90504903,,,,,,,,,,,0.4199,1,,,,,,,,,,,,,,m,1,0.4199,,,,,,,,0.011574157,-0.387963046,0,0,0,,0,127,127,79,1,RULER,LB,old,m,./images/RULERLB.png,,,,,,,,,,,,,,,,,,,,,,
,,,,,,,,,,,,,,,,,198721,21,2022-01-28_21h20.35.156,lexical_decision_task_DD_L5,2021.2.3,Win32,60.90504903,,,,,,,,,,,0.3877,0,,,,,,,,,,,,,,m,0,0.3877,,,,,,,,0.011574157,-0.387963046,0,0,0,,0,128,128,98,1,BAMPS,LB,old,z,./images/BAMPSLB.png,,,,,,,,,,,,,,,,,,,,,,
,,,,,,,,,,,,,,,,,198721,21,2022-01-28_21h20.35.156,lexical_decision_task_DD_L5,2021.2.3,Win32,60.90504903,,,,,,,,,,,0.4875,1,,,,,,,,,,,,,,m,1,0.4875,,,,,,,,0.011574157,-0.387963046,0,0,0,,0,129,129,1,1,TOWEL,LB,old,m,./images/TOWELLB.png,,,,,,,,,,,,,,,,,,,,,,
,,,,,,,,,,,,,,,,,198721,21,2022-01-28_21h20.35.156,lexical_decision_task_DD_L5,2021.2.3,Win32,60.90504903,,,,,,,,,,,0.5676,1,,,,,,,,,,,,,,m,1,0.5676,,,,,,,,0.011574157,-0.387963046,0,0,0,,0,130,130,62,1,MAMMAL,C,old,m,./images/MAMMAL.png,,,,,,,,,,,,,,,,,,,,,,
,,,,,,,,,,,,,,,,,198721,21,2022-01-28_21h20.35.156,lexical_decision_task_DD_L5,2021.2.3,Win32,60.90504903,,,,,,,,,,,0.6342,1,,,,,,,,,,,,,,z,1,0.6342,,,,,,,,0.011574157,-0.387963046,0,0,0,,0,131,131,84,1,HAXES,C,old,z,./images/HAXES.png,,,,,,,,,,,,,,,,,,,,,,
,,,,,,,,,,,,,,,,,198721,21,2022-01-28_21h20.35.156,lexical_decision_task_DD_L5,2021.2.3,Win32,60.90504903,,,,,,,,,,,0.6176,1,,,,,,,,,,,,,,m,1,0.6176,,,,,,,,0.011574157,-0.387963046,0,0,0,,0,132,132,3,1,CRATER,HB,old,m,./images/CRATERHB.png,,,,,,,,,,,,,,,,,,,,,,
,,,,,,,,,,,,,,,,,198721,21,2022-01-28_21h20.35.156,lexical_decision_task_DD_L5,2021.2.3,Win32,60.90504903,,,,,,,,,,,0.8002,1,,,,,,,,,,,,,,m,1,0.8002,,,,,,,,0.011574157,-0.387963046,0,0,0,,0,133,133,12,1,BLOKE,HB,old,m,./images/BLOKEHB.png,,,,,,,,,,,,,,,,,,,,,,
,,,,,,,,,,,,,,,,,198721,21,2022-01-28_21h20.35.156,lexical_decision_task_DD_L5,2021.2.3,Win32,60.90504903,,,,,,,,,,,0.8557,1,,,,,,,,,,,,,,z,1,0.8557,,,,,,,,0.011574157,-0.387963046,0,0,0,,0,134,134,157,1,INLER,HB,old,z,./images/INLERHB.png,,,,,,,,,,,,,,,,,,,,,,
,,,,,,,,,,,,,,,,,198721,21,2022-01-28_21h20.35.156,lexical_decision_task_DD_L5,2021.2.3,Win32,60.90504903,,,,,,,,,,,0.5845,1,,,,,,,,,,,,,,m,1,0.5845,,,,,,,,0.011574157,-0.387963046,0,0,0,,0,135,135,32,1,HOCKEY,C,old,m,./images/HOCKEY.png,,,,,,,,,,,,,,,,,,,,,,
,,,,,,,,,,,,,,,,,198721,21,2022-01-28_21h20.35.156,lexical_decision_task_DD_L5,2021.2.3,Win32,60.90504903,,,,,,,,,,,0.8221,1,,,,,,,,,,,,,,m,1,0.8221,,,,,,,,0.011574157,-0.387963046,0,0,0,,0,136,136,58,1,CANOE,LB,old,m,./images/CANOELB.png,,,,,,,,,,,,,,,,,,,,,,
,,,,,,,,,,,,,,,,,198721,21,2022-01-28_21h20.35.156,lexical_decision_task_DD_L5,2021.2.3,Win32,60.90504903,,,,,,,,,,,0.6378,0,,,,,,,,,,,,,,m,0,0.6378,,,,,,,,0.011574157,-0.387963046,0,0,0,,0,137,137,144,1,NAIRY,C,old,z,./images/NAIRY.png,,,,,,,,,,,,,,,,,,,,,,
,,,,,,,,,,,,,,,,,198721,21,2022-01-28_21h20.35.156,lexical_decision_task_DD_L5,2021.2.3,Win32,60.90504903,,,,,,,,,,,1.0176,1,,,,,,,,,,,,,,m,1,1.0176,,,,,,,,0.011574157,-0.387963046,0,0,0,,0,138,138,45,1,MONKEY,HB,old,m,./images/MONKEYHB.png,,,,,,,,,,,,,,,,,,,,,,
,,,,,,,,,,,,,,,,,198721,21,2022-01-28_21h20.35.156,lexical_decision_task_DD_L5,2021.2.3,Win32,60.90504903,,,,,,,,,,,0.8513,1,,,,,,,,,,,,,,z,1,0.8513,,,,,,,,0.011574157,-0.387963046,0,0,0,,0,139,139,88,1,GLUSH,HB,old,z,./images/GLUSHHB.png,,,,,,,,,,,,,,,,,,,,,,
,,,,,,,,,,,,,,,,,198721,21,2022-01-28_21h20.35.156,lexical_decision_task_DD_L5,2021.2.3,Win32,60.90504903,,,,,,,,,,,0.5852,1,,,,,,,,,,,,,,z,1,0.5852,,,,,,,,0.011574157,-0.387963046,0,0,0,,0,140,140,103,1,FLORT,HB,old,z,./images/FLORTHB.png,,,,,,,,,,,,,,,,,,,,,,
,,,,,,,,,,,,,,,,,198721,21,2022-01-28_21h20.35.156,lexical_decision_task_DD_L5,2021.2.3,Win32,60.90504903,,,,,,,,,,,0.8679,1,,,,,,,,,,,,,,m,1,0.8679,,,,,,,,0.011574157,-0.387963046,0,0,0,,0,141,141,6,1,STAIN,HB,old,m,./images/STAINHB.png,,,,,,,,,,,,,,,,,,,,,,
,,,,,,,,,,,,,,,,,198721,21,2022-01-28_21h20.35.156,lexical_decision_task_DD_L5,2021.2.3,Win32,60.90504903,,,,,,,,,,,0.5678,1,,,,,,,,,,,,,,m,1,0.5678,,,,,,,,0.011574157,-0.387963046,0,0,0,,0,142,142,21,1,DANCER,HB,old,m,./images/DANCERHB.png,,,,,,,,,,,,,,,,,,,,,,
,,,,,,,,,,,,,,,,,198721,21,2022-01-28_21h20.35.156,lexical_decision_task_DD_L5,2021.2.3,Win32,60.90504903,,,,,,,,,,,0.6514,1,,,,,,,,,,,,,,z,1,0.6514,,,,,,,,0.011574157,-0.387963046,0,0,0,,0,143,143,87,1,TRING,C,old,z,./images/TRING.png,,,,,,,,,,,,,,,,,,,,,,
,,,,,,,,,,,,,,,,,198721,21,2022-01-28_21h20.35.156,lexical_decision_task_DD_L5,2021.2.3,Win32,60.90504903,,,,,,,,,,,0.7666,1,,,,,,,,,,,,,,z,1,0.7666,,,,,,,,0.011574157,-0.387963046,0,0,0,,0,144,144,112,1,MYING,HB,old,z,./images/MYINGHB.png,,,,,,,,,,,,,,,,,,,,,,
,,,,,,,,,,,,,,,,,198721,21,2022-01-28_21h20.35.156,lexical_decision_task_DD_L5,2021.2.3,Win32,60.90504903,,,,,,,,,,,0.7829,1,,,,,,,,,,,,,,z,1,0.7829,,,,,,,,0.011574157,-0.387963046,0,0,0,,0,145,145,165,1,TROWN,C,old,z,./images/TROWN.png,,,,,,,,,,,,,,,,,,,,,,
,,,,,,,,,,,,,,,,,198721,21,2022-01-28_21h20.35.156,lexical_decision_task_DD_L5,2021.2.3,Win32,60.90504903,,,,,,,,,,,0.6014,1,,,,,,,,,,,,,,m,1,0.6014,,,,,,,,0.011574157,-0.387963046,0,0,0,,0,146,146,73,1,GLOVE,LB,old,m,./images/GLOVELB.png,,,,,,,,,,,,,,,,,,,,,,
,,,,,,,,,,,,,,,,,198721,21,2022-01-28_21h20.35.156,lexical_decision_task_DD_L5,2021.2.3,Win32,60.90504903,,,,,,,,,,,0.6498,1,,,,,,,,,,,,,,z,1,0.6498,,,,,,,,0.011574157,-0.387963046,0,0,0,,0,147,147,116,1,BALGY,LB,old,z,./images/BALGYLB.png,,,,,,,,,,,,,,,,,,,,,,
,,,,,,,,,,,,,,,,,198721,21,2022-01-28_21h20.35.156,lexical_decision_task_DD_L5,2021.2.3,Win32,60.90504903,,,,,,,,,,,0.6176,1,,,,,,,,,,,,,,z,1,0.6176,,,,,,,,0.011574157,-0.387963046,0,0,0,,0,148,148,147,1,ZOLES,C,old,z,./images/ZOLES.png,,,,,,,,,,,,,,,,,,,,,,
,,,,,,,,,,,,,,,,,198721,21,2022-01-28_21h20.35.156,lexical_decision_task_DD_L5,2021.2.3,Win32,60.90504903,,,,,,,,,,,0.6508,1,,,,,,,,,,,,,,m,1,0.6508,,,,,,,,0.011574157,-0.387963046,0,0,0,,0,149,149,54,1,CHERRY,HB,old,m,./images/CHERRYHB.png,,,,,,,,,,,,,,,,,,,,,,
,,,,,,,,,,,,,,,,,198721,21,2022-01-28_21h20.35.156,lexical_decision_task_DD_L5,2021.2.3,Win32,60.90504903,,,,,,,,,,,0.5505,1,,,,,,,,,,,,,,z,1,0.5505,,,,,,,,0.011574157,-0.387963046,0,0,0,,0,150,150,146,1,MOOST,LB,old,z,./images/MOOSTLB.png,,,,,,,,,,,,,,,,,,,,,,
,,,,,,,,,,,,,,,,,198721,21,2022-01-28_21h20.35.156,lexical_decision_task_DD_L5,2021.2.3,Win32,60.90504903,,,,,,,,,,,0.7519,1,,,,,,,,,,,,,,m,1,0.7519,,,,,,,,0.011574157,-0.387963046,0,0,0,,0,151,151,47,1,LAGOON,C,old,m,./images/LAGOON.png,,,,,,,,,,,,,,,,,,,,,,
,,,,,,,,,,,,,,,,,198721,21,2022-01-28_21h20.35.156,lexical_decision_task_DD_L5,2021.2.3,Win32,60.90504903,,,,,,,,,,,0.7358,1,,,,,,,,,,,,,,z,1,0.7358,,,,,,,,0.011574157,-0.387963046,0,0,0,,0,152,152,145,1,LAMEL,HB,old,z,./images/LAMELHB.png,,,,,,,,,,,,,,,,,,,,,,
,,,,,,,,,,,,,,,,,198721,21,2022-01-28_21h20.35.156,lexical_decision_task_DD_L5,2021.2.3,Win32,60.90504903,,,,,,,,,,,0.6007,1,,,,,,,,,,,,,,z,1,0.6007,,,,,,,,0.011574157,-0.387963046,0,0,0,,0,153,153,134,1,TROSS,LB,old,z,./images/TROSSLB.png,,,,,,,,,,,,,,,,,,,,,,
,,,,,,,,,,,,,,,,,198721,21,2022-01-28_21h20.35.156,lexical_decision_task_DD_L5,2021.2.3,Win32,60.90504903,,,,,,,,,,,0.5886,1,,,,,,,,,,,,,,z,1,0.5886,,,,,,,,0.011574157,-0.387963046,0,0,0,,0,154,154,109,1,BURGE,HB,old,z,./images/BURGEHB.png,,,,,,,,,,,,,,,,,,,,,,
,,,,,,,,,,,,,,,,,198721,21,2022-01-28_21h20.35.156,lexical_decision_task_DD_L5,2021.2.3,Win32,60.90504903,,,,,,,,,,,0.6671,1,,,,,,,,,,,,,,m,1,0.6671,,,,,,,,0.011574157,-0.387963046,0,0,0,,0,155,155,27,1,BUTTER,HB,old,m,./images/BUTTERHB.png,,,,,,,,,,,,,,,,,,,,,,
,,,,,,,,,,,,,,,,,198721,21,2022-01-28_21h20.35.156,lexical_decision_task_DD_L5,2021.2.3,Win32,60.90504903,,,,,,,,,,,0.5692,1,,,,,,,,,,,,,,m,1,0.5692,,,,,,,,0.011574157,-0.387963046,0,0,0,,0,156,156,20,1,GRANNY,C,old,m,./images/GRANNY.png,,,,,,,,,,,,,,,,,,,,,,
,,,,,,,,,,,,,,,,,198721,21,2022-01-28_21h20.35.156,lexical_decision_task_DD_L5,2021.2.3,Win32,60.90504903,,,,,,,,,,,0.5675,1,,,,,,,,,,,,,,z,1,0.5675,,,,,,,,0.011574157,-0.387963046,0,0,0,,0,157,157,104,1,GITTY,LB,old,z,./images/GITTYLB.png,,,,,,,,,,,,,,,,,,,,,,
,,,,,,,,,,,,,,,,,198721,21,2022-01-28_21h20.35.156,lexical_decision_task_DD_L5,2021.2.3,Win32,60.90504903,,,,,,,,,,,0.4837,1,,,,,,,,,,,,,,m,1,0.4837,,,,,,,,0.011574157,-0.387963046,0,0,0,,0,158,158,31,1,STEAK,LB,old,m,./images/STEAKLB.png,,,,,,,,,,,,,,,,,,,,,,
,,,,,,,,,,,,,,,,,198721,21,2022-01-28_21h20.35.156,lexical_decision_task_DD_L5,2021.2.3,Win32,60.90504903,,,,,,,,,,,0.689,1,,,,,,,,,,,,,,z,1,0.689,,,,,,,,0.011574157,-0.387963046,0,0,0,,0,159,159,121,1,CEERS,HB,old,z,./images/CEERSHB.png,,,,,,,,,,,,,,,,,,,,,,
,,,,,,,,,,,,,,,,,198721,21,2022-01-28_21h20.35.156,lexical_decision_task_DD_L5,2021.2.3,Win32,60.90504903,,,,,,,,,,,0.5364,1,,,,,,,,,,,,,,m,1,0.5364,,,,,,,,0.011574157,-0.387963046,0,0,0,,0,160,160,22,1,CLOWN,LB,old,m,./images/CLOWNLB.png,,,,,,,,,,,,,,,,,,,,,,
,,,,,,,,,,,,,,,,,198721,21,2022-01-28_21h20.35.156,lexical_decision_task_DD_L5,2021.2.3,Win32,60.90504903,,,,,,,,,,,0.6848,1,,,,,,,,,,,,,,z,1,0.6848,,,,,,,,0.011574157,-0.387963046,0,0,0,,0,161,161,95,1,HANTY,LB,old,z,./images/HANTYLB.png,,,,,,,,,,,,,,,,,,,,,,
,,,,,,,,,,,,,,,,,198721,21,2022-01-28_21h20.35.156,lexical_decision_task_DD_L5,2021.2.3,Win32,60.90504903,,,,,,,,,,,0.7345,1,,,,,,,,,,,,,,m,1,0.7345,,,,,,,,0.011574157,-0.387963046,0,0,0,,0,162,162,64,1,BRIDE,LB,old,m,./images/BRIDELB.png,,,,,,,,,,,,,,,,,,,,,,
,,,,,,,,,,,,,,,,,198721,21,2022-01-28_21h20.35.156,lexical_decision_task_DD_L5,2021.2.3,Win32,60.90504903,,,,,,,,,,,0.6179,1,,,,,,,,,,,,,,z,1,0.6179,,,,,,,,0.011574157,-0.387963046,0,0,0,,0,163,163,161,1,BLAPS,LB,old,z,./images/BLAPSLB.png,,,,,,,,,,,,,,,,,,,,,,
,,,,,,,,,,,,,,,,,198721,21,2022-01-28_21h20.35.156,lexical_decision_task_DD_L5,2021.2.3,Win32,60.90504903,,,,,,,,,,,0.621,1,,,,,,,,,,,,,,z,1,0.621,,,,,,,,0.011574157,-0.387963046,0,0,0,,0,164,164,143,1,MONGS,LB,old,z,./images/MONGSLB.png,,,,,,,,,,,,,,,,,,,,,,
,,,,,,,,,,,,,,,,,198721,21,2022-01-28_21h20.35.156,lexical_decision_task_DD_L5,2021.2.3,Win32,60.90504903,,,,,,,,,,,0.5199,1,,,,,,,,,,,,,,z,1,0.5199,,,,,,,,0.011574157,-0.387963046,0,0,0,,0,165,165,90,1,NEAST,C,old,z,./images/NEAST.png,,,,,,,,,,,,,,,,,,,,,,
,,,,,,,,,,,,,,,,,198721,21,2022-01-28_21h20.35.156,lexical_decision_task_DD_L5,2021.2.3,Win32,60.90504903,,,,,,,,,,,0.585,1,,,,,,,,,,,,,,z,1,0.585,,,,,,,,0.011574157,-0.387963046,0,0,0,,0,166,166,92,1,PAIMS,LB,old,z,./images/PAIMSLB.png,,,,,,,,,,,,,,,,,,,,,,
,,,,,,,,,,,,,,,,,198721,21,2022-01-28_21h20.35.156,lexical_decision_task_DD_L5,2021.2.3,Win32,60.90504903,,,,,,,,,,,0.7848,1,,,,,,,,,,,,,,m,1,0.7848,,,,,,,,0.011574157,-0.387963046,0,0,0,,0,167,167,25,1,CHALK,LB,old,m,./images/CHALKLB.png,,,,,,,,,,,,,,,,,,,,,,
space,7.6862,0.011574157,-0.387963046,0,0,0,,,,,,1,test,"In the next phase you will be presented with the words from the the first phase. Your job is to decide whether you remember seeing the word or not. If you remember seeing the word press ""old"" or type ""m"". If you do not remember seeing the word press ""new"" or type ""z"". Please press the space bar or click on continue to begin. ",,,198721,21,2022-01-28_21h20.35.156,lexical_decision_task_DD_L5,2021.2.3,Win32,60.90504903,,,,,,,,,,,,,,,,,,,,,,,,,,,,,,,,,,,,,,,,,,,,,,,,,,,,,0,0,0,0,1,,,,,,,,,,,,,,,,
space,7.8036,0.011574157,-0.387963046,0,0,0,,,,,,1,test,"In the next phase you will be presented with the words from the the first phase. Your job is to decide whether you remember seeing the word or not. If you remember seeing the word press ""old"" or type ""m"". If you do not remember seeing the word press ""new"" or type ""z"". Please press the space bar or click on continue to begin. ",,,198721,21,2022-01-28_21h20.35.156,lexical_decision_task_DD_L5,2021.2.3,Win32,60.90504903,,,,,,,,,,,,,,,,,,,,,,,,,,,,,,,,,,,,,,,,,,,,,,,,,,,,,1,0,1,0,1,,,,,,,,,,,,,,,,
,,0.011574157,-0.387963046,1,0,0,,,,,,1,test,"In the next phase you will be presented with the words from the the first phase. Your job is to decide whether you remember seeing the word or not. If you remember seeing the word press ""old"" or type ""m"". If you do not remember seeing the word press ""new"" or type ""z"". Please press the space bar or click on continue to begin. ",,,198721,21,2022-01-28_21h20.35.156,lexical_decision_task_DD_L5,2021.2.3,Win32,60.90504903,,,,,,,,,,,,,,,,,,,,,,,,,,,,,,,,,,,,,,,,,,,,,,,,,,,,,2,0,2,0,1,instr_done_button,,,,,,,,,,,,,,,
,,0.011574157,-0.387963046,1,0,0,,,,,,1,test,"In the next phase you will be presented with the words from the the first phase. Your job is to decide whether you remember seeing the word or not. If you remember seeing the word press ""old"" or type ""m"". If you do not remember seeing the word press ""new"" or type ""z"". Please press the space bar or click on continue to begin. ",,,198721,21,2022-01-28_21h20.35.156,lexical_decision_task_DD_L5,2021.2.3,Win32,60.90504903,,,,,,,,,,,,,,,,,,,,,,,,,,,,,,,,,,,,,,,,,,,,,,,,,,,,,3,0,3,0,1,instr_done_button,,,,,,,,,,,,,,,
space,1.9338,0.011574157,-0.387963046,0,0,0,,,,,,1,test,"In the next phase you will be presented with the words from the the first phase. Your job is to decide whether you remember seeing the word or not. If you remember seeing the word press ""old"" or type ""m"". If you do not remember seeing the word press ""new"" or type ""z"". Please press the space bar or click on continue to begin. ",,,198721,21,2022-01-28_21h20.35.156,lexical_decision_task_DD_L5,2021.2.3,Win32,60.90504903,,,,,,,,,,,,,,,,,,,,,,,,,,,,,,,,,,,,,,,,,,,,,,,,,,,,,4,0,4,0,1,,,,,,,,,,,,,,,,
,,,,,,,,,,,,,,,,,198721,21,2022-01-28_21h20.35.156,lexical_decision_task_DD_L5,2021.2.3,Win32,60.90504903,,,,,,,,,,,1.4048,1,,,,,,,,,,,,,,,,,,,,,,,,0.011574157,-0.387963046,0,0,0,,,,,,,WALRUS,C,z,y,./images/WALRUS.png,,,,,,,,z,1,1.4048,,,,,,,,0,0,0,107,1
,,,,,,,,,,,,,,,,,198721,21,2022-01-28_21h20.35.156,lexical_decision_task_DD_L5,2021.2.3,Win32,60.90504903,,,,,,,,,,,0.7853,1,,,,,,,,,,,,,,,,,,,,,,,,0.011574157,-0.387963046,0,0,0,,,,,,,WALNUT,HB,m,y,./images/WALNUTHB.png,,,,,,,,m,1,0.7853,,,,,,,,0,1,1,0,1
,,,,,,,,,,,,,,,,,198721,21,2022-01-28_21h20.35.156,lexical_decision_task_DD_L5,2021.2.3,Win32,60.90504903,,,,,,,,,,,0.9665,1,,,,,,,,,,,,,,,,,,,,,,,,0.011574157,-0.387963046,0,0,0,,,,,,,SHIELD,HB,m,y,./images/SHIELDHB.png,,,,,,,,m,1,0.9665,,,,,,,,0,2,2,48,1
,,,,,,,,,,,,,,,,,198721,21,2022-01-28_21h20.35.156,lexical_decision_task_DD_L5,2021.2.3,Win32,60.90504903,,,,,,,,,,,0.8642,1,,,,,,,,,,,,,,,,,,,,,,,,0.011574157,-0.387963046,0,0,0,,,,,,,JELLY,LB,z,y,./images/JELLYLB.png,,,,,,,,z,1,0.8642,,,,,,,,0,3,3,148,1
,,,,,,,,,,,,,,,,,198721,21,2022-01-28_21h20.35.156,lexical_decision_task_DD_L5,2021.2.3,Win32,60.90504903,,,,,,,,,,,0.6338,1,,,,,,,,,,,,,,,,,,,,,,,,0.011574157,-0.387963046,0,0,0,,,,,,,STOVE,C,m,y,./images/STOVE.png,,,,,,,,m,1,0.6338,,,,,,,,0,4,4,2,1
,,,,,,,,,,,,,,,,,198721,21,2022-01-28_21h20.35.156,lexical_decision_task_DD_L5,2021.2.3,Win32,60.90504903,,,,,,,,,,,0.5773,1,,,,,,,,,,,,,,,,,,,,,,,,0.011574157,-0.387963046,0,0,0,,,,,,,CHERRY,HB,m,y,./images/CHERRYHB.png,,,,,,,,m,1,0.5773,,,,,,,,0,5,5,54,1
,,,,,,,,,,,,,,,,,198721,21,2022-01-28_21h20.35.156,lexical_decision_task_DD_L5,2021.2.3,Win32,60.90504903,,,,,,,,,,,0.6494,1,,,,,,,,,,,,,,,,,,,,,,,,0.011574157,-0.387963046,0,0,0,,,,,,,BERRY,C,z,y,./images/BERRY.png,,,,,,,,z,1,0.6494,,,,,,,,0,6,6,131,1
,,,,,,,,,,,,,,,,,198721,21,2022-01-28_21h20.35.156,lexical_decision_task_DD_L5,2021.2.3,Win32,60.90504903,,,,,,,,,,,0.5827,1,,,,,,,,,,,,,,,,,,,,,,,,0.011574157,-0.387963046,0,0,0,,,,,,,COLLAR,HB,m,y,./images/COLLARHB.png,,,,,,,,m,1,0.5827,,,,,,,,0,7,7,15,1
,,,,,,,,,,,,,,,,,198721,21,2022-01-28_21h20.35.156,lexical_decision_task_DD_L5,2021.2.3,Win32,60.90504903,,,,,,,,,,,0.8493,1,,,,,,,,,,,,,,,,,,,,,,,,0.011574157,-0.387963046,0,0,0,,,,,,,COUCH,C,z,y,./images/COUCH.png,,,,,,,,z,1,0.8493,,,,,,,,0,8,8,161,1
,,,,,,,,,,,,,,,,,198721,21,2022-01-28_21h20.35.156,lexical_decision_task_DD_L5,2021.2.3,Win32,60.90504903,,,,,,,,,,,0.6848,1,,,,,,,,,,,,,,,,,,,,,,,,0.011574157,-0.387963046,0,0,0,,,,,,,SNAKE,LB,m,y,./images/SNAKELB.png,,,,,,,,m,1,0.6848,,,,,,,,0,9,9,40,1
,,,,,,,,,,,,,,,,,198721,21,2022-01-28_21h20.35.156,lexical_decision_task_DD_L5,2021.2.3,Win32,60.90504903,,,,,,,,,,,0.8671,1,,,,,,,,,,,,,,,,,,,,,,,,0.011574157,-0.387963046,0,0,0,,,,,,,SWEAT,HB,z,y,./images/SWEATHB.png,,,,,,,,z,1,0.8671,,,,,,,,0,10,10,150,1
,,,,,,,,,,,,,,,,,198721,21,2022-01-28_21h20.35.156,lexical_decision_task_DD_L5,2021.2.3,Win32,60.90504903,,,,,,,,,,,0.8333,1,,,,,,,,,,,,,,,,,,,,,,,,0.011574157,-0.387963046,0,0,0,,,,,,,DRUMS,LB,z,y,./images/DRUMSLB.png,,,,,,,,z,1,0.8333,,,,,,,,0,11,11,133,1
,,,,,,,,,,,,,,,,,198721,21,2022-01-28_21h20.35.156,lexical_decision_task_DD_L5,2021.2.3,Win32,60.90504903,,,,,,,,,,,0.6524,1,,,,,,,,,,,,,,,,,,,,,,,,0.011574157,-0.387963046,0,0,0,,,,,,,MIDGET,LB,m,y,./images/MIDGETLB.png,,,,,,,,m,1,0.6524,,,,,,,,0,12,12,76,1
,,,,,,,,,,,,,,,,,198721,21,2022-01-28_21h20.35.156,lexical_decision_task_DD_L5,2021.2.3,Win32,60.90504903,,,,,,,,,,,0.6657,1,,,,,,,,,,,,,,,,,,,,,,,,0.011574157,-0.387963046,0,0,0,,,,,,,FLASK,HB,m,y,./images/FLASKHB.png,,,,,,,,m,1,0.6657,,,,,,,,0,13,13,72,1
,,,,,,,,,,,,,,,,,198721,21,2022-01-28_21h20.35.156,lexical_decision_task_DD_L5,2021.2.3,Win32,60.90504903,,,,,,,,,,,0.5838,0,,,,,,,,,,,,,,,,,,,,,,,,0.011574157,-0.387963046,0,0,0,,,,,,,CRADLE,C,z,y,./images/CRADLE.png,,,,,,,,m,0,0.5838,,,,,,,,0,14,14,104,1
,,,,,,,,,,,,,,,,,198721,21,2022-01-28_21h20.35.156,lexical_decision_task_DD_L5,2021.2.3,Win32,60.90504903,,,,,,,,,,,0.6688,1,,,,,,,,,,,,,,,,,,,,,,,,0.011574157,-0.387963046,0,0,0,,,,,,,QUILL,LB,z,y,./images/QUILLLB.png,,,,,,,,z,1,0.6688,,,,,,,,0,15,15,115,1
,,,,,,,,,,,,,,,,,198721,21,2022-01-28_21h20.35.156,lexical_decision_task_DD_L5,2021.2.3,Win32,60.90504903,,,,,,,,,,,0.7354,1,,,,,,,,,,,,,,,,,,,,,,,,0.011574157,-0.387963046,0,0,0,,,,,,,BIRTH,LB,z,y,./images/BIRTHLB.png,,,,,,,,z,1,0.7354,,,,,,,,0,16,16,121,1
,,,,,,,,,,,,,,,,,198721,21,2022-01-28_21h20.35.156,lexical_decision_task_DD_L5,2021.2.3,Win32,60.90504903,,,,,,,,,,,0.7003,0,,,,,,,,,,,,,,,,,,,,,,,,0.011574157,-0.387963046,0,0,0,,,,,,,STORM,HB,z,y,./images/STORMHB.png,,,,,,,,m,0,0.7003,,,,,,,,0,17,17,114,1
,,,,,,,,,,,,,,,,,198721,21,2022-01-28_21h20.35.156,lexical_decision_task_DD_L5,2021.2.3,Win32,60.90504903,,,,,,,,,,,0.7526,1,,,,,,,,,,,,,,,,,,,,,,,,0.011574157,-0.387963046,0,0,0,,,,,,,MEDAL,C,m,y,./images/MEDAL.png,,,,,,,,m,1,0.7526,,,,,,,,0,18,18,11,1
,,,,,,,,,,,,,,,,,198721,21,2022-01-28_21h20.35.156,lexical_decision_task_DD_L5,2021.2.3,Win32,60.90504903,,,,,,,,,,,0.6708,0,,,,,,,,,,,,,,,,,,,,,,,,0.011574157,-0.387963046,0,0,0,,,,,,,NOOSE,HB,z,y,./images/NOOSEHB.png,,,,,,,,m,0,0.6708,,,,,,,,0,19,19,156,1
,,,,,,,,,,,,,,,,,198721,21,2022-01-28_21h20.35.156,lexical_decision_task_DD_L5,2021.2.3,Win32,60.90504903,,,,,,,,,,,0.7333,1,,,,,,,,,,,,,,,,,,,,,,,,0.011574157,-0.387963046,0,0,0,,,,,,,CLOTH,C,m,y,./images/CLOTH.png,,,,,,,,m,1,0.7333,,,,,,,,0,20,20,23,1
,,,,,,,,,,,,,,,,,198721,21,2022-01-28_21h20.35.156,lexical_decision_task_DD_L5,2021.2.3,Win32,60.90504903,,,,,,,,,,,0.8054,1,,,,,,,,,,,,,,,,,,,,,,,,0.011574157,-0.387963046,0,0,0,,,,,,,BELLY,LB,z,y,./images/BELLYLB.png,,,,,,,,z,1,0.8054,,,,,,,,0,21,21,94,1
,,,,,,,,,,,,,,,,,198721,21,2022-01-28_21h20.35.156,lexical_decision_task_DD_L5,2021.2.3,Win32,60.90504903,,,,,,,,,,,0.6669,1,,,,,,,,,,,,,,,,,,,,,,,,0.011574157,-0.387963046,0,0,0,,,,,,,DIVER,HB,m,y,./images/DIVERHB.png,,,,,,,,m,1,0.6669,,,,,,,,0,22,22,9,1
,,,,,,,,,,,,,,,,,198721,21,2022-01-28_21h20.35.156,lexical_decision_task_DD_L5,2021.2.3,Win32,60.90504903,,,,,,,,,,,0.7193,1,,,,,,,,,,,,,,,,,,,,,,,,0.011574157,-0.387963046,0,0,0,,,,,,,FOLDER,HB,z,y,./images/FOLDERHB.png,,,,,,,,z,1,0.7193,,,,,,,,0,23,23,126,1
,,,,,,,,,,,,,,,,,198721,21,2022-01-28_21h20.35.156,lexical_decision_task_DD_L5,2021.2.3,Win32,60.90504903,,,,,,,,,,,0.917,0,,,,,,,,,,,,,,,,,,,,,,,,0.011574157,-0.387963046,0,0,0,,,,,,,BONNET,C,z,y,./images/BONNET.png,,,,,,,,m,0,0.917,,,,,,,,0,24,24,95,1
,,,,,,,,,,,,,,,,,198721,21,2022-01-28_21h20.35.156,lexical_decision_task_DD_L5,2021.2.3,Win32,60.90504903,,,,,,,,,,,0.6172,1,,,,,,,,,,,,,,,,,,,,,,,,0.011574157,-0.387963046,0,0,0,,,,,,,BAKER,HB,m,y,./images/BAKERHB.png,,,,,,,,m,1,0.6172,,,,,,,,0,25,25,63,1
,,,,,,,,,,,,,,,,,198721,21,2022-01-28_21h20.35.156,lexical_decision_task_DD_L5,2021.2.3,Win32,60.90504903,,,,,,,,,,,0.7503,0,,,,,,,,,,,,,,,,,,,,,,,,0.011574157,-0.387963046,0,0,0,,,,,,,MIRROR,HB,z,y,./images/MIRRORHB.png,,,,,,,,m,0,0.7503,,,,,,,,0,26,26,147,1
,,,,,,,,,,,,,,,,,198721,21,2022-01-28_21h20.35.156,lexical_decision_task_DD_L5,2021.2.3,Win32,60.90504903,,,,,,,,,,,0.5667,1,,,,,,,,,,,,,,,,,,,,,,,,0.011574157,-0.387963046,0,0,0,,,,,,,CRATER,HB,m,y,./images/CRATERHB.png,,,,,,,,m,1,0.5667,,,,,,,,0,27,27,3,1
,,,,,,,,,,,,,,,,,198721,21,2022-01-28_21h20.35.156,lexical_decision_task_DD_L5,2021.2.3,Win32,60.90504903,,,,,,,,,,,0.5671,0,,,,,,,,,,,,,,,,,,,,,,,,0.011574157,-0.387963046,0,0,0,,,,,,,VALLEY,C,m,y,./images/VALLEY.png,,,,,,,,z,0,0.5671,,,,,,,,0,28,28,68,1
,,,,,,,,,,,,,,,,,198721,21,2022-01-28_21h20.35.156,lexical_decision_task_DD_L5,2021.2.3,Win32,60.90504903,,,,,,,,,,,0.5339,1,,,,,,,,,,,,,,,,,,,,,,,,0.011574157,-0.387963046,0,0,0,,,,,,,CHAIN,HB,m,y,./images/CHAINHB.png,,,,,,,,m,1,0.5339,,,,,,,,0,29,29,42,1
,,,,,,,,,,,,,,,,,198721,21,2022-01-28_21h20.35.156,lexical_decision_task_DD_L5,2021.2.3,Win32,60.90504903,,,,,,,,,,,0.5509,1,,,,,,,,,,,,,,,,,,,,,,,,0.011574157,-0.387963046,0,0,0,,,,,,,STOOL,LB,m,y,./images/STOOLLB.png,,,,,,,,m,1,0.5509,,,,,,,,0,30,30,43,1
,,,,,,,,,,,,,,,,,198721,21,2022-01-28_21h20.35.156,lexical_decision_task_DD_L5,2021.2.3,Win32,60.90504903,,,,,,,,,,,0.7679,1,,,,,,,,,,,,,,,,,,,,,,,,0.011574157,-0.387963046,0,0,0,,,,,,,WHISKY,C,m,y,./images/WHISKY.png,,,,,,,,m,1,0.7679,,,,,,,,0,31,31,83,1
,,,,,,,,,,,,,,,,,198721,21,2022-01-28_21h20.35.156,lexical_decision_task_DD_L5,2021.2.3,Win32,60.90504903,,,,,,,,,,,0.7352,1,,,,,,,,,,,,,,,,,,,,,,,,0.011574157,-0.387963046,0,0,0,,,,,,,MUSCLE,LB,z,y,./images/MUSCLELB.png,,,,,,,,z,1,0.7352,,,,,,,,0,32,32,88,1
,,,,,,,,,,,,,,,,,198721,21,2022-01-28_21h20.35.156,lexical_decision_task_DD_L5,2021.2.3,Win32,60.90504903,,,,,,,,,,,1.134,0,,,,,,,,,,,,,,,,,,,,,,,,0.011574157,-0.387963046,0,0,0,,,,,,,BUBBLE,C,m,y,./images/BUBBLE.png,,,,,,,,z,0,1.134,,,,,,,,0,33,33,71,1
,,,,,,,,,,,,,,,,,198721,21,2022-01-28_21h20.35.156,lexical_decision_task_DD_L5,2021.2.3,Win32,60.90504903,,,,,,,,,,,0.7671,1,,,,,,,,,,,,,,,,,,,,,,,,0.011574157,-0.387963046,0,0,0,,,,,,,MELON,LB,z,y,./images/MELONLB.png,,,,,,,,z,1,0.7671,,,,,,,,0,34,34,106,1
,,,,,,,,,,,,,,,,,198721,21,2022-01-28_21h20.35.156,lexical_decision_task_DD_L5,2021.2.3,Win32,60.90504903,,,,,,,,,,,0.7336,1,,,,,,,,,,,,,,,,,,,,,,,,0.011574157,-0.387963046,0,0,0,,,,,,,ENGINE,C,m,y,./images/ENGINE.png,,,,,,,,m,1,0.7336,,,,,,,,0,35,35,38,1
,,,,,,,,,,,,,,,,,198721,21,2022-01-28_21h20.35.156,lexical_decision_task_DD_L5,2021.2.3,Win32,60.90504903,,,,,,,,,,,0.818,0,,,,,,,,,,,,,,,,,,,,,,,,0.011574157,-0.387963046,0,0,0,,,,,,,DOUGH,LB,z,y,./images/DOUGHLB.png,,,,,,,,m,0,0.818,,,,,,,,0,36,36,103,1
,,,,,,,,,,,,,,,,,198721,21,2022-01-28_21h20.35.156,lexical_decision_task_DD_L5,2021.2.3,Win32,60.90504903,,,,,,,,,,,0.85,1,,,,,,,,,,,,,,,,,,,,,,,,0.011574157,-0.387963046,0,0,0,,,,,,,LLAMA,C,m,y,./images/LLAMA.png,,,,,,,,m,1,0.85,,,,,,,,0,37,37,35,1
,,,,,,,,,,,,,,,,,198721,21,2022-01-28_21h20.35.156,lexical_decision_task_DD_L5,2021.2.3,Win32,60.90504903,,,,,,,,,,,0.6342,1,,,,,,,,,,,,,,,,,,,,,,,,0.011574157,-0.387963046,0,0,0,,,,,,,GARDEN,LB,m,y,./images/GARDENLB.png,,,,,,,,m,1,0.6342,,,,,,,,0,38,38,10,1
,,,,,,,,,,,,,,,,,198721,21,2022-01-28_21h20.35.156,lexical_decision_task_DD_L5,2021.2.3,Win32,60.90504903,,,,,,,,,,,0.9009,0,,,,,,,,,,,,,,,,,,,,,,,,0.011574157,-0.387963046,0,0,0,,,,,,,LADDER,C,z,y,./images/LADDER.png,,,,,,,,m,0,0.9009,,,,,,,,0,39,39,122,1
,,,,,,,,,,,,,,,,,198721,21,2022-01-28_21h20.35.156,lexical_decision_task_DD_L5,2021.2.3,Win32,60.90504903,,,,,,,,,,,0.6167,1,,,,,,,,,,,,,,,,,,,,,,,,0.011574157,-0.387963046,0,0,0,,,,,,,BOILER,HB,m,y,./images/BOILERHB.png,,,,,,,,m,1,0.6167,,,,,,,,0,40,40,36,1
,,,,,,,,,,,,,,,,,198721,21,2022-01-28_21h20.35.156,lexical_decision_task_DD_L5,2021.2.3,Win32,60.90504903,,,,,,,,,,,0.6161,1,,,,,,,,,,,,,,,,,,,,,,,,0.011574157,-0.387963046,0,0,0,space,,,,,,TIGER,LB,m,y,./images/TIGERLB.png,1.6063,,,,,,,m,1,0.6161,,,,,,,,0,41,41,37,1
,,,,,,,,,,,,,,,,,198721,21,2022-01-28_21h20.35.156,lexical_decision_task_DD_L5,2021.2.3,Win32,60.90504903,,,,,,,,,,,1.0826,1,,,,,,,,,,,,,,,,,,,,,,,,0.011574157,-0.387963046,0,0,0,,,,,,,GREASE,HB,z,y,./images/GREASEHB.png,,,,,,,,z,1,1.0826,,,,,,,,0,42,42,99,1
,,,,,,,,,,,,,,,,,198721,21,2022-01-28_21h20.35.156,lexical_decision_task_DD_L5,2021.2.3,Win32,60.90504903,,,,,,,,,,,0.7174,0,,,,,,,,,,,,,,,,,,,,,,,,0.011574157,-0.387963046,0,0,0,,,,,,,BARREL,C,z,y,./images/BARREL.png,,,,,,,,m,0,0.7174,,,,,,,,0,43,43,116,1
,,,,,,,,,,,,,,,,,198721,21,2022-01-28_21h20.35.156,lexical_decision_task_DD_L5,2021.2.3,Win32,60.90504903,,,,,,,,,,,0.6487,1,,,,,,,,,,,,,,,,,,,,,,,,0.011574157,-0.387963046,0,0,0,,,,,,,TRIPOD,HB,z,y,./images/TRIPODHB.png,,,,,,,,z,1,0.6487,,,,,,,,0,44,44,138,1
,,,,,,,,,,,,,,,,,198721,21,2022-01-28_21h20.35.156,lexical_decision_task_DD_L5,2021.2.3,Win32,60.90504903,,,,,,,,,,,0.8015,1,,,,,,,,,,,,,,,,,,,,,,,,0.011574157,-0.387963046,0,0,0,,,,,,,STREAM,C,m,y,./images/STREAM.png,,,,,,,,m,1,0.8015,,,,,,,,0,45,45,41,1
,,,,,,,,,,,,,,,,,198721,21,2022-01-28_21h20.35.156,lexical_decision_task_DD_L5,2021.2.3,Win32,60.90504903,,,,,,,,,,,0.6831,0,,,,,,,,,,,,,,,,,,,,,,,,0.011574157,-0.387963046,0,0,0,,,,,,,CANDLE,LB,z,y,./images/CANDLELB.png,,,,,,,,m,0,0.6831,,,,,,,,0,46,46,145,1
,,,,,,,,,,,,,,,,,198721,21,2022-01-28_21h20.35.156,lexical_decision_task_DD_L5,2021.2.3,Win32,60.90504903,,,,,,,,,,,0.637,1,,,,,,,,,,,,,,,,,,,,,,,,0.011574157,-0.387963046,0,0,0,,,,,,,CURRY,HB,m,y,./images/CURRYHB.png,,,,,,,,m,1,0.637,,,,,,,,0,47,47,60,1
,,,,,,,,,,,,,,,,,198721,21,2022-01-28_21h20.35.156,lexical_decision_task_DD_L5,2021.2.3,Win32,60.90504903,,,,,,,,,,,0.9344,1,,,,,,,,,,,,,,,,,,,,,,,,0.011574157,-0.387963046,0,0,0,,,,,,,SUNSET,LB,z,y,./images/SUNSETLB.png,,,,,,,,z,1,0.9344,,,,,,,,0,48,48,166,1
,,,,,,,,,,,,,,,,,198721,21,2022-01-28_21h20.35.156,lexical_decision_task_DD_L5,2021.2.3,Win32,60.90504903,,,,,,,,,,,0.8509,1,,,,,,,,,,,,,,,,,,,,,,,,0.011574157,-0.387963046,0,0,0,,,,,,,GRAIN,HB,z,y,./images/GRAINHB.png,,,,,,,,z,1,0.8509,,,,,,,,0,49,49,159,1
,,,,,,,,,,,,,,,,,198721,21,2022-01-28_21h20.35.156,lexical_decision_task_DD_L5,2021.2.3,Win32,60.90504903,,,,,,,,,,,0.5341,1,,,,,,,,,,,,,,,,,,,,,,,,0.011574157,-0.387963046,0,0,0,,,,,,,BURIAL,C,z,y,./images/BURIAL.png,,,,,,,,z,1,0.5341,,,,,,,,0,50,50,143,1
,,,,,,,,,,,,,,,,,198721,21,2022-01-28_21h20.35.156,lexical_decision_task_DD_L5,2021.2.3,Win32,60.90504903,,,,,,,,,,,0.7174,1,,,,,,,,,,,,,,,,,,,,,,,,0.011574157,-0.387963046,0,0,0,,,,,,,SPORT,HB,z,y,./images/SPORTHB.png,,,,,,,,z,1,0.7174,,,,,,,,0,51,51,132,1
,,,,,,,,,,,,,,,,,198721,21,2022-01-28_21h20.35.156,lexical_decision_task_DD_L5,2021.2.3,Win32,60.90504903,,,,,,,,,,,0.8835,0,,,,,,,,,,,,,,,,,,,,,,,,0.011574157,-0.387963046,0,0,0,,,,,,,SNACK,LB,z,y,./images/SNACKLB.png,,,,,,,,m,0,0.8835,,,,,,,,0,52,52,157,1
,,,,,,,,,,,,,,,,,198721,21,2022-01-28_21h20.35.156,lexical_decision_task_DD_L5,2021.2.3,Win32,60.90504903,,,,,,,,,,,0.6668,1,,,,,,,,,,,,,,,,,,,,,,,,0.011574157,-0.387963046,0,0,0,,,,,,,BRUSH,C,m,y,./images/BRUSH.png,,,,,,,,m,1,0.6668,,,,,,,,0,53,53,59,1
,,,,,,,,,,,,,,,,,198721,21,2022-01-28_21h20.35.156,lexical_decision_task_DD_L5,2021.2.3,Win32,60.90504903,,,,,,,,,,,0.6672,0,,,,,,,,,,,,,,,,,,,,,,,,0.011574157,-0.387963046,0,0,0,,,,,,,WEASEL,C,z,y,./images/WEASEL.png,,,,,,,,m,0,0.6672,,,,,,,,0,54,54,164,1
,,,,,,,,,,,,,,,,,198721,21,2022-01-28_21h20.35.156,lexical_decision_task_DD_L5,2021.2.3,Win32,60.90504903,,,,,,,,,,,0.6701,1,,,,,,,,,,,,,,,,,,,,,,,,0.011574157,-0.387963046,0,0,0,,,,,,,STATUE,HB,m,y,./images/STATUEHB.png,,,,,,,,m,1,0.6701,,,,,,,,0,55,55,66,1
,,,,,,,,,,,,,,,,,198721,21,2022-01-28_21h20.35.156,lexical_decision_task_DD_L5,2021.2.3,Win32,60.90504903,,,,,,,,,,,0.6667,1,,,,,,,,,,,,,,,,,,,,,,,,0.011574157,-0.387963046,0,0,0,,,,,,,SAUNA,HB,m,y,./images/SAUNAHB.png,,,,,,,,m,1,0.6667,,,,,,,,0,56,56,33,1
,,,,,,,,,,,,,,,,,198721,21,2022-01-28_21h20.35.156,lexical_decision_task_DD_L5,2021.2.3,Win32,60.90504903,,,,,,,,,,,0.7668,1,,,,,,,,,,,,,,,,,,,,,,,,0.011574157,-0.387963046,0,0,0,,,,,,,POODLE,HB,z,y,./images/POODLEHB.png,,,,,,,,z,1,0.7668,,,,,,,,0,57,57,165,1
,,,,,,,,,,,,,,,,,198721,21,2022-01-28_21h20.35.156,lexical_decision_task_DD_L5,2021.2.3,Win32,60.90504903,,,,,,,,,,,0.7677,0,,,,,,,,,,,,,,,,,,,,,,,,0.011574157,-0.387963046,0,0,0,,,,,,,TORCH,C,z,y,./images/TORCH.png,,,,,,,,m,0,0.7677,,,,,,,,0,58,58,152,1
,,,,,,,,,,,,,,,,,198721,21,2022-01-28_21h20.35.156,lexical_decision_task_DD_L5,2021.2.3,Win32,60.90504903,,,,,,,,,,,0.8512,1,,,,,,,,,,,,,,,,,,,,,,,,0.011574157,-0.387963046,0,0,0,,,,,,,FLESH,HB,m,y,./images/FLESHHB.png,,,,,,,,m,1,0.8512,,,,,,,,0,59,59,24,1
,,,,,,,,,,,,,,,,,198721,21,2022-01-28_21h20.35.156,lexical_decision_task_DD_L5,2021.2.3,Win32,60.90504903,,,,,,,,,,,0.701,0,,,,,,,,,,,,,,,,,,,,,,,,0.011574157,-0.387963046,0,0,0,,,,,,,MALLET,C,z,y,./images/MALLET.png,,,,,,,,m,0,0.701,,,,,,,,0,60,60,134,1
,,,,,,,,,,,,,,,,,198721,21,2022-01-28_21h20.35.156,lexical_decision_task_DD_L5,2021.2.3,Win32,60.90504903,,,,,,,,,,,0.9684,0,,,,,,,,,,,,,,,,,,,,,,,,0.011574157,-0.387963046,0,0,0,,,,,,,BOXER,LB,m,y,./images/BOXERLB.png,,,,,,,,z,0,0.9684,,,,,,,,0,61,61,4,1
,,,,,,,,,,,,,,,,,198721,21,2022-01-28_21h20.35.156,lexical_decision_task_DD_L5,2021.2.3,Win32,60.90504903,,,,,,,,,,,0.6707,1,,,,,,,,,,,,,,,,,,,,,,,,0.011574157,-0.387963046,0,0,0,,,,,,,ONION,HB,z,y,./images/ONIONHB.png,,,,,,,,z,1,0.6707,,,,,,,,0,62,62,135,1
,,,,,,,,,,,,,,,,,198721,21,2022-01-28_21h20.35.156,lexical_decision_task_DD_L5,2021.2.3,Win32,60.90504903,,,,,,,,,,,0.6331,1,,,,,,,,,,,,,,,,,,,,,,,,0.011574157,-0.387963046,0,0,0,,,,,,,GRANNY,C,m,y,./images/GRANNY.png,,,,,,,,m,1,0.6331,,,,,,,,0,63,63,20,1
,,,,,,,,,,,,,,,,,198721,21,2022-01-28_21h20.35.156,lexical_decision_task_DD_L5,2021.2.3,Win32,60.90504903,,,,,,,,,,,0.7885,1,,,,,,,,,,,,,,,,,,,,,,,,0.011574157,-0.387963046,0,0,0,,,,,,,WHEEL,C,m,y,./images/WHEEL.png,,,,,,,,m,1,0.7885,,,,,,,,0,64,64,77,1
,,,,,,,,,,,,,,,,,198721,21,2022-01-28_21h20.35.156,lexical_decision_task_DD_L5,2021.2.3,Win32,60.90504903,,,,,,,,,,,0.7669,1,,,,,,,,,,,,,,,,,,,,,,,,0.011574157,-0.387963046,0,0,0,,,,,,,HEATER,C,m,y,./images/HEATER.png,,,,,,,,m,1,0.7669,,,,,,,,0,65,65,56,1
,,,,,,,,,,,,,,,,,198721,21,2022-01-28_21h20.35.156,lexical_decision_task_DD_L5,2021.2.3,Win32,60.90504903,,,,,,,,,,,0.685,1,,,,,,,,,,,,,,,,,,,,,,,,0.011574157,-0.387963046,0,0,0,,,,,,,TWINS,HB,z,y,./images/TWINSHB.png,,,,,,,,z,1,0.685,,,,,,,,0,66,66,144,1
,,,,,,,,,,,,,,,,,198721,21,2022-01-28_21h20.35.156,lexical_decision_task_DD_L5,2021.2.3,Win32,60.90504903,,,,,,,,,,,0.6172,1,,,,,,,,,,,,,,,,,,,,,,,,0.011574157,-0.387963046,0,0,0,,,,,,,STAIN,HB,m,y,./images/STAINHB.png,,,,,,,,m,1,0.6172,,,,,,,,0,67,67,6,1
,,,,,,,,,,,,,,,,,198721,21,2022-01-28_21h20.35.156,lexical_decision_task_DD_L5,2021.2.3,Win32,60.90504903,,,,,,,,,,,0.8155,1,,,,,,,,,,,,,,,,,,,,,,,,0.011574157,-0.387963046,0,0,0,,,,,,,DONKEY,LB,m,y,./images/DONKEYLB.png,,,,,,,,m,1,0.8155,,,,,,,,0,68,68,19,1
,,,,,,,,,,,,,,,,,198721,21,2022-01-28_21h20.35.156,lexical_decision_task_DD_L5,2021.2.3,Win32,60.90504903,,,,,,,,,,,0.7659,0,,,,,,,,,,,,,,,,,,,,,,,,0.011574157,-0.387963046,0,0,0,,,,,,,SAILOR,LB,z,y,./images/SAILORLB.png,,,,,,,,m,0,0.7659,,,,,,,,0,69,69,151,1
,,,,,,,,,,,,,,,,,198721,21,2022-01-28_21h20.35.156,lexical_decision_task_DD_L5,2021.2.3,Win32,60.90504903,,,,,,,,,,,0.7529,0,,,,,,,,,,,,,,,,,,,,,,,,0.011574157,-0.387963046,0,0,0,,,,,,,MUFFIN,LB,z,y,./images/MUFFINLB.png,,,,,,,,m,0,0.7529,,,,,,,,0,70,70,139,1
,,,,,,,,,,,,,,,,,198721,21,2022-01-28_21h20.35.156,lexical_decision_task_DD_L5,2021.2.3,Win32,60.90504903,,,,,,,,,,,0.7344,1,,,,,,,,,,,,,,,,,,,,,,,,0.011574157,-0.387963046,0,0,0,,,,,,,PARCEL,HB,m,y,./images/PARCELHB.png,,,,,,,,m,1,0.7344,,,,,,,,0,71,71,18,1
,,,,,,,,,,,,,,,,,198721,21,2022-01-28_21h20.35.156,lexical_decision_task_DD_L5,2021.2.3,Win32,60.90504903,,,,,,,,,,,0.5494,1,,,,,,,,,,,,,,,,,,,,,,,,0.011574157,-0.387963046,0,0,0,,,,,,,BRIDE,LB,m,y,./images/BRIDELB.png,,,,,,,,m,1,0.5494,,,,,,,,0,72,72,64,1
,,,,,,,,,,,,,,,,,198721,21,2022-01-28_21h20.35.156,lexical_decision_task_DD_L5,2021.2.3,Win32,60.90504903,,,,,,,,,,,0.5699,1,,,,,,,,,,,,,,,,,,,,,,,,0.011574157,-0.387963046,0,0,0,,,,,,,CANOE,LB,m,y,./images/CANOELB.png,,,,,,,,m,1,0.5699,,,,,,,,0,73,73,58,1
,,,,,,,,,,,,,,,,,198721,21,2022-01-28_21h20.35.156,lexical_decision_task_DD_L5,2021.2.3,Win32,60.90504903,,,,,,,,,,,0.6834,1,,,,,,,,,,,,,,,,,,,,,,,,0.011574157,-0.387963046,0,0,0,,,,,,,CRUMB,C,z,y,./images/CRUMB.png,,,,,,,,z,1,0.6834,,,,,,,,0,74,74,113,1
,,,,,,,,,,,,,,,,,198721,21,2022-01-28_21h20.35.156,lexical_decision_task_DD_L5,2021.2.3,Win32,60.90504903,,,,,,,,,,,0.6174,1,,,,,,,,,,,,,,,,,,,,,,,,0.011574157,-0.387963046,0,0,0,,,,,,,BUTTER,HB,m,y,./images/BUTTERHB.png,,,,,,,,m,1,0.6174,,,,,,,,0,75,75,27,1
,,,,,,,,,,,,,,,,,198721,21,2022-01-28_21h20.35.156,lexical_decision_task_DD_L5,2021.2.3,Win32,60.90504903,,,,,,,,,,,0.5838,1,,,,,,,,,,,,,,,,,,,,,,,,0.011574157,-0.387963046,0,0,0,,,,,,,BANANA,LB,m,y,./images/BANANALB.png,,,,,,,,m,1,0.5838,,,,,,,,0,76,76,70,1
,,,,,,,,,,,,,,,,,198721,21,2022-01-28_21h20.35.156,lexical_decision_task_DD_L5,2021.2.3,Win32,60.90504903,,,,,,,,,,,0.5671,1,,,,,,,,,,,,,,,,,,,,,,,,0.011574157,-0.387963046,0,0,0,,,,,,,BLOKE,HB,m,y,./images/BLOKEHB.png,,,,,,,,m,1,0.5671,,,,,,,,0,77,77,12,1
,,,,,,,,,,,,,,,,,198721,21,2022-01-28_21h20.35.156,lexical_decision_task_DD_L5,2021.2.3,Win32,60.90504903,,,,,,,,,,,0.5166,1,,,,,,,,,,,,,,,,,,,,,,,,0.011574157,-0.387963046,0,0,0,,,,,,,BAMBOO,C,m,y,./images/BAMBOO.png,,,,,,,,m,1,0.5166,,,,,,,,0,78,78,5,1
,,,,,,,,,,,,,,,,,198721,21,2022-01-28_21h20.35.156,lexical_decision_task_DD_L5,2021.2.3,Win32,60.90504903,,,,,,,,,,,0.7685,1,,,,,,,,,,,,,,,,,,,,,,,,0.011574157,-0.387963046,0,0,0,,,,,,,SKIING,C,z,y,./images/SKIING.png,,,,,,,,z,1,0.7685,,,,,,,,0,79,79,101,1
,,,,,,,,,,,,,,,,,198721,21,2022-01-28_21h20.35.156,lexical_decision_task_DD_L5,2021.2.3,Win32,60.90504903,,,,,,,,,,,0.7007,1,,,,,,,,,,,,,,,,,,,,,,,,0.011574157,-0.387963046,0,0,0,,,,,,,BEARD,C,z,y,./images/BEARD.png,,,,,,,,z,1,0.7007,,,,,,,,0,80,80,86,1
,,,,,,,,,,,,,,,,,198721,21,2022-01-28_21h20.35.156,lexical_decision_task_DD_L5,2021.2.3,Win32,60.90504903,,,,,,,,,,,0.8003,1,,,,,,,,,,,,,,,,,,,,,,,,0.011574157,-0.387963046,0,0,0,,,,,,,PURSE,C,z,y,./images/PURSE.png,,,,,,,,z,1,0.8003,,,,,,,,0,81,81,146,1
,,,,,,,,,,,,,,,,,198721,21,2022-01-28_21h20.35.156,lexical_decision_task_DD_L5,2021.2.3,Win32,60.90504903,,,,,,,,,,,0.9342,1,,,,,,,,,,,,,,,,,,,,,,,,0.011574157,-0.387963046,0,0,0,,,,,,,CARPET,C,z,y,./images/CARPET.png,,,,,,,,z,1,0.9342,,,,,,,,0,82,82,137,1
,,,,,,,,,,,,,,,,,198721,21,2022-01-28_21h20.35.156,lexical_decision_task_DD_L5,2021.2.3,Win32,60.90504903,,,,,,,,,,,0.6538,1,,,,,,,,,,,,,,,,,,,,,,,,0.011574157,-0.387963046,0,0,0,space,,,,,,GLOVE,LB,m,y,./images/GLOVELB.png,1.617,,,,,,,m,1,0.6538,,,,,,,,0,83,83,73,1
,,,,,,,,,,,,,,,,,198721,21,2022-01-28_21h20.35.156,lexical_decision_task_DD_L5,2021.2.3,Win32,60.90504903,,,,,,,,,,,0.7215,1,,,,,,,,,,,,,,,,,,,,,,,,0.011574157,-0.387963046,0,0,0,,,,,,,PASTA,C,z,y,./images/PASTA.png,,,,,,,,z,1,0.7215,,,,,,,,0,84,84,89,1
,,,,,,,,,,,,,,,,,198721,21,2022-01-28_21h20.35.156,lexical_decision_task_DD_L5,2021.2.3,Win32,60.90504903,,,,,,,,,,,0.55,0,,,,,,,,,,,,,,,,,,,,,,,,0.011574157,-0.387963046,0,0,0,,,,,,,SMOKER,C,z,y,./images/SMOKER.png,,,,,,,,m,0,0.55,,,,,,,,0,85,85,110,1
,,,,,,,,,,,,,,,,,198721,21,2022-01-28_21h20.35.156,lexical_decision_task_DD_L5,2021.2.3,Win32,60.90504903,,,,,,,,,,,0.8672,1,,,,,,,,,,,,,,,,,,,,,,,,0.011574157,-0.387963046,0,0,0,,,,,,,CEMENT,C,z,y,./images/CEMENT.png,,,,,,,,z,1,0.8672,,,,,,,,0,86,86,158,1
,,,,,,,,,,,,,,,,,198721,21,2022-01-28_21h20.35.156,lexical_decision_task_DD_L5,2021.2.3,Win32,60.90504903,,,,,,,,,,,0.6343,0,,,,,,,,,,,,,,,,,,,,,,,,0.011574157,-0.387963046,0,0,0,,,,,,,MAGGOT,HB,z,y,./images/MAGGOTHB.png,,,,,,,,m,0,0.6343,,,,,,,,0,87,87,117,1
,,,,,,,,,,,,,,,,,198721,21,2022-01-28_21h20.35.156,lexical_decision_task_DD_L5,2021.2.3,Win32,60.90504903,,,,,,,,,,,0.8006,1,,,,,,,,,,,,,,,,,,,,,,,,0.011574157,-0.387963046,0,0,0,,,,,,,PEARL,LB,z,y,./images/PEARLLB.png,,,,,,,,z,1,0.8006,,,,,,,,0,88,88,130,1
,,,,,,,,,,,,,,,,,198721,21,2022-01-28_21h20.35.156,lexical_decision_task_DD_L5,2021.2.3,Win32,60.90504903,,,,,,,,,,,0.7998,1,,,,,,,,,,,,,,,,,,,,,,,,0.011574157,-0.387963046,0,0,0,,,,,,,HOCKEY,C,m,y,./images/HOCKEY.png,,,,,,,,m,1,0.7998,,,,,,,,0,89,89,32,1
,,,,,,,,,,,,,,,,,198721,21,2022-01-28_21h20.35.156,lexical_decision_task_DD_L5,2021.2.3,Win32,60.90504903,,,,,,,,,,,0.6004,1,,,,,,,,,,,,,,,,,,,,,,,,0.011574157,-0.387963046,0,0,0,,,,,,,PILOT,C,m,y,./images/PILOT.png,,,,,,,,m,1,0.6004,,,,,,,,0,90,90,50,1
,,,,,,,,,,,,,,,,,198721,21,2022-01-28_21h20.35.156,lexical_decision_task_DD_L5,2021.2.3,Win32,60.90504903,,,,,,,,,,,1.0845,1,,,,,,,,,,,,,,,,,,,,,,,,0.011574157,-0.387963046,0,0,0,,,,,,,POKER,LB,m,y,./images/POKERLB.png,,,,,,,,m,1,1.0845,,,,,,,,0,91,91,67,1
,,,,,,,,,,,,,,,,,198721,21,2022-01-28_21h20.35.156,lexical_decision_task_DD_L5,2021.2.3,Win32,60.90504903,,,,,,,,,,,0.6177,1,,,,,,,,,,,,,,,,,,,,,,,,0.011574157,-0.387963046,0,0,0,,,,,,,KITTEN,HB,z,y,./images/KITTENHB.png,,,,,,,,z,1,0.6177,,,,,,,,0,92,92,129,1
,,,,,,,,,,,,,,,,,198721,21,2022-01-28_21h20.35.156,lexical_decision_task_DD_L5,2021.2.3,Win32,60.90504903,,,,,,,,,,,0.5672,1,,,,,,,,,,,,,,,,,,,,,,,,0.011574157,-0.387963046,0,0,0,,,,,,,SAUCE,HB,m,y,./images/SAUCEHB.png,,,,,,,,m,1,0.5672,,,,,,,,0,93,93,51,1
,,,,,,,,,,,,,,,,,198721,21,2022-01-28_21h20.35.156,lexical_decision_task_DD_L5,2021.2.3,Win32,60.90504903,,,,,,,,,,,0.8341,1,,,,,,,,,,,,,,,,,,,,,,,,0.011574157,-0.387963046,0,0,0,,,,,,,CANYON,LB,z,y,./images/CANYONLB.png,,,,,,,,z,1,0.8341,,,,,,,,0,94,94,118,1
,,,,,,,,,,,,,,,,,198721,21,2022-01-28_21h20.35.156,lexical_decision_task_DD_L5,2021.2.3,Win32,60.90504903,,,,,,,,,,,0.7501,1,,,,,,,,,,,,,,,,,,,,,,,,0.011574157,-0.387963046,0,0,0,,,,,,,FARMER,C,z,y,./images/FARMER.png,,,,,,,,z,1,0.7501,,,,,,,,0,95,95,149,1
,,,,,,,,,,,,,,,,,198721,21,2022-01-28_21h20.35.156,lexical_decision_task_DD_L5,2021.2.3,Win32,60.90504903,,,,,,,,,,,0.733,1,,,,,,,,,,,,,,,,,,,,,,,,0.011574157,-0.387963046,0,0,0,,,,,,,MOOSE,HB,z,y,./images/MOOSEHB.png,,,,,,,,z,1,0.733,,,,,,,,0,96,96,141,1
,,,,,,,,,,,,,,,,,198721,21,2022-01-28_21h20.35.156,lexical_decision_task_DD_L5,2021.2.3,Win32,60.90504903,,,,,,,,,,,0.8857,0,,,,,,,,,,,,,,,,,,,,,,,,0.011574157,-0.387963046,0,0,0,,,,,,,PAINT,LB,z,y,./images/PAINTLB.png,,,,,,,,m,0,0.8857,,,,,,,,0,97,97,91,1
,,,,,,,,,,,,,,,,,198721,21,2022-01-28_21h20.35.156,lexical_decision_task_DD_L5,2021.2.3,Win32,60.90504903,,,,,,,,,,,0.769,1,,,,,,,,,,,,,,,,,,,,,,,,0.011574157,-0.387963046,0,0,0,,,,,,,FALCON,LB,z,y,./images/FALCONLB.png,,,,,,,,z,1,0.769,,,,,,,,0,98,98,112,1
,,,,,,,,,,,,,,,,,198721,21,2022-01-28_21h20.35.156,lexical_decision_task_DD_L5,2021.2.3,Win32,60.90504903,,,,,,,,,,,0.5708,1,,,,,,,,,,,,,,,,,,,,,,,,0.011574157,-0.387963046,0,0,0,,,,,,,RHINO,HB,z,y,./images/RHINOHB.png,,,,,,,,z,1,0.5708,,,,,,,,0,99,99,93,1
,,,,,,,,,,,,,,,,,198721,21,2022-01-28_21h20.35.156,lexical_decision_task_DD_L5,2021.2.3,Win32,60.90504903,,,,,,,,,,,0.6328,1,,,,,,,,,,,,,,,,,,,,,,,,0.011574157,-0.387963046,0,0,0,,,,,,,SHELF,HB,z,y,./images/SHELFHB.png,,,,,,,,z,1,0.6328,,,,,,,,0,100,100,123,1
,,,,,,,,,,,,,,,,,198721,21,2022-01-28_21h20.35.156,lexical_decision_task_DD_L5,2021.2.3,Win32,60.90504903,,,,,,,,,,,0.552,1,,,,,,,,,,,,,,,,,,,,,,,,0.011574157,-0.387963046,0,0,0,,,,,,,LITTER,HB,z,y,./images/LITTERHB.png,,,,,,,,z,1,0.552,,,,,,,,0,101,101,162,1
,,,,,,,,,,,,,,,,,198721,21,2022-01-28_21h20.35.156,lexical_decision_task_DD_L5,2021.2.3,Win32,60.90504903,,,,,,,,,,,0.5187,1,,,,,,,,,,,,,,,,,,,,,,,,0.011574157,-0.387963046,0,0,0,,,,,,,MOSQUE,LB,z,y,./images/MOSQUELB.png,,,,,,,,z,1,0.5187,,,,,,,,0,102,102,127,1
,,,,,,,,,,,,,,,,,198721,21,2022-01-28_21h20.35.156,lexical_decision_task_DD_L5,2021.2.3,Win32,60.90504903,,,,,,,,,,,0.5333,0,,,,,,,,,,,,,,,,,,,,,,,,0.011574157,-0.387963046,0,0,0,,,,,,,CASINO,LB,m,y,./images/CASINOLB.png,,,,,,,,z,0,0.5333,,,,,,,,0,103,103,28,1
,,,,,,,,,,,,,,,,,198721,21,2022-01-28_21h20.35.156,lexical_decision_task_DD_L5,2021.2.3,Win32,60.90504903,,,,,,,,,,,0.6357,1,,,,,,,,,,,,,,,,,,,,,,,,0.011574157,-0.387963046,0,0,0,,,,,,,CLIFF,C,m,y,./images/CLIFF.png,,,,,,,,m,1,0.6357,,,,,,,,0,104,104,8,1
,,,,,,,,,,,,,,,,,198721,21,2022-01-28_21h20.35.156,lexical_decision_task_DD_L5,2021.2.3,Win32,60.90504903,,,,,,,,,,,0.6504,1,,,,,,,,,,,,,,,,,,,,,,,,0.011574157,-0.387963046,0,0,0,,,,,,,SLOPE,HB,m,y,./images/SLOPEHB.png,,,,,,,,m,1,0.6504,,,,,,,,0,105,105,30,1
,,,,,,,,,,,,,,,,,198721,21,2022-01-28_21h20.35.156,lexical_decision_task_DD_L5,2021.2.3,Win32,60.90504903,,,,,,,,,,,0.6053,0,,,,,,,,,,,,,,,,,,,,,,,,0.011574157,-0.387963046,0,0,0,,,,,,,PLANK,LB,z,y,./images/PLANKLB.png,,,,,,,,m,0,0.6053,,,,,,,,0,106,106,85,1
,,,,,,,,,,,,,,,,,198721,21,2022-01-28_21h20.35.156,lexical_decision_task_DD_L5,2021.2.3,Win32,60.90504903,,,,,,,,,,,1.0356,0,,,,,,,,,,,,,,,,,,,,,,,,0.011574157,-0.387963046,0,0,0,,,,,,,GRAPE,LB,m,y,./images/GRAPELB.png,,,,,,,,z,0,1.0356,,,,,,,,0,107,107,16,1
,,,,,,,,,,,,,,,,,198721,21,2022-01-28_21h20.35.156,lexical_decision_task_DD_L5,2021.2.3,Win32,60.90504903,,,,,,,,,,,0.8668,0,,,,,,,,,,,,,,,,,,,,,,,,0.011574157,-0.387963046,0,0,0,,,,,,,PLANET,C,m,y,./images/PLANET.png,,,,,,,,z,0,0.8668,,,,,,,,0,108,108,80,1
,,,,,,,,,,,,,,,,,198721,21,2022-01-28_21h20.35.156,lexical_decision_task_DD_L5,2021.2.3,Win32,60.90504903,,,,,,,,,,,0.7339,1,,,,,,,,,,,,,,,,,,,,,,,,0.011574157,-0.387963046,0,0,0,,,,,,,DANCER,HB,m,y,./images/DANCERHB.png,,,,,,,,m,1,0.7339,,,,,,,,0,109,109,21,1
,,,,,,,,,,,,,,,,,198721,21,2022-01-28_21h20.35.156,lexical_decision_task_DD_L5,2021.2.3,Win32,60.90504903,,,,,,,,,,,0.7517,1,,,,,,,,,,,,,,,,,,,,,,,,0.011574157,-0.387963046,0,0,0,,,,,,,INFANT,LB,z,y,./images/INFANTLB.png,,,,,,,,z,1,0.7517,,,,,,,,0,110,110,160,1
,,,,,,,,,,,,,,,,,198721,21,2022-01-28_21h20.35.156,lexical_decision_task_DD_L5,2021.2.3,Win32,60.90504903,,,,,,,,,,,0.6674,1,,,,,,,,,,,,,,,,,,,,,,,,0.011574157,-0.387963046,0,0,0,,,,,,,URINE,LB,z,y,./images/URINELB.png,,,,,,,,z,1,0.6674,,,,,,,,0,111,111,154,1
,,,,,,,,,,,,,,,,,198721,21,2022-01-28_21h20.35.156,lexical_decision_task_DD_L5,2021.2.3,Win32,60.90504903,,,,,,,,,,,0.6844,1,,,,,,,,,,,,,,,,,,,,,,,,0.011574157,-0.387963046,0,0,0,,,,,,,SQUARE,HB,z,y,./images/SQUAREHB.png,,,,,,,,z,1,0.6844,,,,,,,,0,112,112,90,1
,,,,,,,,,,,,,,,,,198721,21,2022-01-28_21h20.35.156,lexical_decision_task_DD_L5,2021.2.3,Win32,60.90504903,,,,,,,,,,,0.7189,1,,,,,,,,,,,,,,,,,,,,,,,,0.011574157,-0.387963046,0,0,0,,,,,,,BASKET,C,m,y,./images/BASKET.png,,,,,,,,m,1,0.7189,,,,,,,,0,113,113,44,1
,,,,,,,,,,,,,,,,,198721,21,2022-01-28_21h20.35.156,lexical_decision_task_DD_L5,2021.2.3,Win32,60.90504903,,,,,,,,,,,0.6674,1,,,,,,,,,,,,,,,,,,,,,,,,0.011574157,-0.387963046,0,0,0,,,,,,,MAMMAL,C,m,y,./images/MAMMAL.png,,,,,,,,m,1,0.6674,,,,,,,,0,114,114,62,1
,,,,,,,,,,,,,,,,,198721,21,2022-01-28_21h20.35.156,lexical_decision_task_DD_L5,2021.2.3,Win32,60.90504903,,,,,,,,,,,0.5845,1,,,,,,,,,,,,,,,,,,,,,,,,0.011574157,-0.387963046,0,0,0,,,,,,,FENCE,C,m,y,./images/FENCE.png,,,,,,,,m,1,0.5845,,,,,,,,0,115,115,14,1
,,,,,,,,,,,,,,,,,198721,21,2022-01-28_21h20.35.156,lexical_decision_task_DD_L5,2021.2.3,Win32,60.90504903,,,,,,,,,,,1.0826,1,,,,,,,,,,,,,,,,,,,,,,,,0.011574157,-0.387963046,0,0,0,,,,,,,FERRY,HB,m,y,./images/FERRYHB.png,,,,,,,,m,1,1.0826,,,,,,,,0,116,116,57,1
,,,,,,,,,,,,,,,,,198721,21,2022-01-28_21h20.35.156,lexical_decision_task_DD_L5,2021.2.3,Win32,60.90504903,,,,,,,,,,,0.6995,1,,,,,,,,,,,,,,,,,,,,,,,,0.011574157,-0.387963046,0,0,0,,,,,,,PEACH,C,z,y,./images/PEACH.png,,,,,,,,z,1,0.6995,,,,,,,,0,117,117,119,1
,,,,,,,,,,,,,,,,,198721,21,2022-01-28_21h20.35.156,lexical_decision_task_DD_L5,2021.2.3,Win32,60.90504903,,,,,,,,,,,0.569,1,,,,,,,,,,,,,,,,,,,,,,,,0.011574157,-0.387963046,0,0,0,,,,,,,LIZARD,C,z,y,./images/LIZARD.png,,,,,,,,z,1,0.569,,,,,,,,0,118,118,128,1
,,,,,,,,,,,,,,,,,198721,21,2022-01-28_21h20.35.156,lexical_decision_task_DD_L5,2021.2.3,Win32,60.90504903,,,,,,,,,,,0.9186,1,,,,,,,,,,,,,,,,,,,,,,,,0.011574157,-0.387963046,0,0,0,,,,,,,SPINE,C,m,y,./images/SPINE.png,,,,,,,,m,1,0.9186,,,,,,,,0,119,119,65,1
,,,,,,,,,,,,,,,,,198721,21,2022-01-28_21h20.35.156,lexical_decision_task_DD_L5,2021.2.3,Win32,60.90504903,,,,,,,,,,,0.6825,1,,,,,,,,,,,,,,,,,,,,,,,,0.011574157,-0.387963046,0,0,0,,,,,,,PENCE,LB,z,y,./images/PENCELB.png,,,,,,,,z,1,0.6825,,,,,,,,0,120,120,100,1
,,,,,,,,,,,,,,,,,198721,21,2022-01-28_21h20.35.156,lexical_decision_task_DD_L5,2021.2.3,Win32,60.90504903,,,,,,,,,,,0.5822,1,,,,,,,,,,,,,,,,,,,,,,,,0.011574157,-0.387963046,0,0,0,,,,,,,JUNGLE,C,z,y,./images/JUNGLE.png,,,,,,,,z,1,0.5822,,,,,,,,0,121,121,167,1
,,,,,,,,,,,,,,,,,198721,21,2022-01-28_21h20.35.156,lexical_decision_task_DD_L5,2021.2.3,Win32,60.90504903,,,,,,,,,,,0.6502,1,,,,,,,,,,,,,,,,,,,,,,,,0.011574157,-0.387963046,0,0,0,,,,,,,CHALK,LB,m,y,./images/CHALKLB.png,,,,,,,,m,1,0.6502,,,,,,,,0,122,122,25,1
,,,,,,,,,,,,,,,,,198721,21,2022-01-28_21h20.35.156,lexical_decision_task_DD_L5,2021.2.3,Win32,60.90504903,,,,,,,,,,,0.6995,1,,,,,,,,,,,,,,,,,,,,,,,,0.011574157,-0.387963046,0,0,0,,,,,,,ALLEY,LB,m,y,./images/ALLEYLB.png,,,,,,,,m,1,0.6995,,,,,,,,0,123,123,55,1
,,,,,,,,,,,,,,,,,198721,21,2022-01-28_21h20.35.156,lexical_decision_task_DD_L5,2021.2.3,Win32,60.90504903,,,,,,,,,,,0.618,1,,,,,,,,,,,,,,,,,,,,,,,,0.011574157,-0.387963046,0,0,0,,,,,,,TULIP,C,z,y,./images/TULIP.png,,,,,,,,z,1,0.618,,,,,,,,0,124,124,92,1
,,,,,,,,,,,,,,,,,198721,21,2022-01-28_21h20.35.156,lexical_decision_task_DD_L5,2021.2.3,Win32,60.90504903,,,,,,,,,,,0.7655,1,,,,,,,,,,,,,,,,,,,,,,,,0.011574157,-0.387963046,0,0,0,space,,,,,,FINGER,HB,z,y,./images/FINGERHB.png,3.9005,,,,,,,z,1,0.7655,,,,,,,,0,125,125,87,1
,,,,,,,,,,,,,,,,,198721,21,2022-01-28_21h20.35.156,lexical_decision_task_DD_L5,2021.2.3,Win32,60.90504903,,,,,,,,,,,0.6821,1,,,,,,,,,,,,,,,,,,,,,,,,0.011574157,-0.387963046,0,0,0,,,,,,,PACKET,C,z,y,./images/PACKET.png,,,,,,,,z,1,0.6821,,,,,,,,0,126,126,140,1
,,,,,,,,,,,,,,,,,198721,21,2022-01-28_21h20.35.156,lexical_decision_task_DD_L5,2021.2.3,Win32,60.90504903,,,,,,,,,,,0.6321,1,,,,,,,,,,,,,,,,,,,,,,,,0.011574157,-0.387963046,0,0,0,,,,,,,RAZOR,LB,m,y,./images/RAZORLB.png,,,,,,,,m,1,0.6321,,,,,,,,0,127,127,34,1
,,,,,,,,,,,,,,,,,198721,21,2022-01-28_21h20.35.156,lexical_decision_task_DD_L5,2021.2.3,Win32,60.90504903,,,,,,,,,,,0.635,1,,,,,,,,,,,,,,,,,,,,,,,,0.011574157,-0.387963046,0,0,0,,,,,,,TOWEL,LB,m,y,./images/TOWELLB.png,,,,,,,,m,1,0.635,,,,,,,,0,128,128,1,1
,,,,,,,,,,,,,,,,,198721,21,2022-01-28_21h20.35.156,lexical_decision_task_DD_L5,2021.2.3,Win32,60.90504903,,,,,,,,,,,0.7667,1,,,,,,,,,,,,,,,,,,,,,,,,0.011574157,-0.387963046,0,0,0,,,,,,,KIDNEY,HB,z,y,./images/KIDNEYHB.png,,,,,,,,z,1,0.7667,,,,,,,,0,129,129,105,1
,,,,,,,,,,,,,,,,,198721,21,2022-01-28_21h20.35.156,lexical_decision_task_DD_L5,2021.2.3,Win32,60.90504903,,,,,,,,,,,1.4338,1,,,,,,,,,,,,,,,,,,,,,,,,0.011574157,-0.387963046,0,0,0,,,,,,,MUMMY,LB,m,y,./images/MUMMYLB.png,,,,,,,,m,1,1.4338,,,,,,,,0,130,130,46,1
,,,,,,,,,,,,,,,,,198721,21,2022-01-28_21h20.35.156,lexical_decision_task_DD_L5,2021.2.3,Win32,60.90504903,,,,,,,,,,,0.6523,1,,,,,,,,,,,,,,,,,,,,,,,,0.011574157,-0.387963046,0,0,0,,,,,,,DRILL,HB,m,y,./images/DRILLHB.png,,,,,,,,m,1,0.6523,,,,,,,,0,131,131,81,1
,,,,,,,,,,,,,,,,,198721,21,2022-01-28_21h20.35.156,lexical_decision_task_DD_L5,2021.2.3,Win32,60.90504903,,,,,,,,,,,0.6494,0,,,,,,,,,,,,,,,,,,,,,,,,0.011574157,-0.387963046,0,0,0,,,,,,,MOTOR,LB,z,y,./images/MOTORLB.png,,,,,,,,m,0,0.6494,,,,,,,,0,132,132,97,1
,,,,,,,,,,,,,,,,,198721,21,2022-01-28_21h20.35.156,lexical_decision_task_DD_L5,2021.2.3,Win32,60.90504903,,,,,,,,,,,0.6838,0,,,,,,,,,,,,,,,,,,,,,,,,0.011574157,-0.387963046,0,0,0,,,,,,,LAGOON,C,m,y,./images/LAGOON.png,,,,,,,,z,0,0.6838,,,,,,,,0,133,133,47,1
,,,,,,,,,,,,,,,,,198721,21,2022-01-28_21h20.35.156,lexical_decision_task_DD_L5,2021.2.3,Win32,60.90504903,,,,,,,,,,,1.0361,1,,,,,,,,,,,,,,,,,,,,,,,,0.011574157,-0.387963046,0,0,0,,,,,,,CRUST,LB,z,y,./images/CRUSTLB.png,,,,,,,,z,1,1.0361,,,,,,,,0,134,134,163,1
,,,,,,,,,,,,,,,,,198721,21,2022-01-28_21h20.35.156,lexical_decision_task_DD_L5,2021.2.3,Win32,60.90504903,,,,,,,,,,,0.652,1,,,,,,,,,,,,,,,,,,,,,,,,0.011574157,-0.387963046,0,0,0,,,,,,,PIMPLE,C,z,y,./images/PIMPLE.png,,,,,,,,z,1,0.652,,,,,,,,0,135,135,155,1
,,,,,,,,,,,,,,,,,198721,21,2022-01-28_21h20.35.156,lexical_decision_task_DD_L5,2021.2.3,Win32,60.90504903,,,,,,,,,,,0.7159,0,,,,,,,,,,,,,,,,,,,,,,,,0.011574157,-0.387963046,0,0,0,,,,,,,STEAK,LB,m,y,./images/STEAKLB.png,,,,,,,,z,0,0.7159,,,,,,,,0,136,136,31,1
,,,,,,,,,,,,,,,,,198721,21,2022-01-28_21h20.35.156,lexical_decision_task_DD_L5,2021.2.3,Win32,60.90504903,,,,,,,,,,,0.567,1,,,,,,,,,,,,,,,,,,,,,,,,0.011574157,-0.387963046,0,0,0,,,,,,,WRIST,LB,z,y,./images/WRISTLB.png,,,,,,,,z,1,0.567,,,,,,,,0,137,137,109,1
,,,,,,,,,,,,,,,,,198721,21,2022-01-28_21h20.35.156,lexical_decision_task_DD_L5,2021.2.3,Win32,60.90504903,,,,,,,,,,,0.7999,1,,,,,,,,,,,,,,,,,,,,,,,,0.011574157,-0.387963046,0,0,0,,,,,,,JUMPER,C,m,y,./images/JUMPER.png,,,,,,,,m,1,0.7999,,,,,,,,0,138,138,74,1
,,,,,,,,,,,,,,,,,198721,21,2022-01-28_21h20.35.156,lexical_decision_task_DD_L5,2021.2.3,Win32,60.90504903,,,,,,,,,,,0.6015,1,,,,,,,,,,,,,,,,,,,,,,,,0.011574157,-0.387963046,0,0,0,,,,,,,WAGON,LB,m,y,./images/WAGONLB.png,,,,,,,,m,1,0.6015,,,,,,,,0,139,139,7,1
,,,,,,,,,,,,,,,,,198721,21,2022-01-28_21h20.35.156,lexical_decision_task_DD_L5,2021.2.3,Win32,60.90504903,,,,,,,,,,,0.6994,1,,,,,,,,,,,,,,,,,,,,,,,,0.011574157,-0.387963046,0,0,0,,,,,,,PEBBLE,LB,m,y,./images/PEBBLELB.png,,,,,,,,m,1,0.6994,,,,,,,,0,140,140,82,1
,,,,,,,,,,,,,,,,,198721,21,2022-01-28_21h20.35.156,lexical_decision_task_DD_L5,2021.2.3,Win32,60.90504903,,,,,,,,,,,0.8505,1,,,,,,,,,,,,,,,,,,,,,,,,0.011574157,-0.387963046,0,0,0,,,,,,,BANNER,LB,z,y,./images/BANNERLB.png,,,,,,,,z,1,0.8505,,,,,,,,0,141,141,136,1
,,,,,,,,,,,,,,,,,198721,21,2022-01-28_21h20.35.156,lexical_decision_task_DD_L5,2021.2.3,Win32,60.90504903,,,,,,,,,,,0.5662,1,,,,,,,,,,,,,,,,,,,,,,,,0.011574157,-0.387963046,0,0,0,,,,,,,COOKER,HB,z,y,./images/COOKERHB.png,,,,,,,,z,1,0.5662,,,,,,,,0,142,142,153,1
,,,,,,,,,,,,,,,,,198721,21,2022-01-28_21h20.35.156,lexical_decision_task_DD_L5,2021.2.3,Win32,60.90504903,,,,,,,,,,,0.7833,0,,,,,,,,,,,,,,,,,,,,,,,,0.011574157,-0.387963046,0,0,0,,,,,,,RULER,LB,m,y,./images/RULERLB.png,,,,,,,,z,0,0.7833,,,,,,,,0,143,143,79,1
,,,,,,,,,,,,,,,,,198721,21,2022-01-28_21h20.35.156,lexical_decision_task_DD_L5,2021.2.3,Win32,60.90504903,,,,,,,,,,,0.8018,1,,,,,,,,,,,,,,,,,,,,,,,,0.011574157,-0.387963046,0,0,0,,,,,,,PISTOL,C,m,y,./images/PISTOL.png,,,,,,,,m,1,0.8018,,,,,,,,0,144,144,29,1
,,,,,,,,,,,,,,,,,198721,21,2022-01-28_21h20.35.156,lexical_decision_task_DD_L5,2021.2.3,Win32,60.90504903,,,,,,,,,,,0.6163,1,,,,,,,,,,,,,,,,,,,,,,,,0.011574157,-0.387963046,0,0,0,,,,,,,PARADE,C,m,y,./images/PARADE.png,,,,,,,,m,1,0.6163,,,,,,,,0,145,145,17,1
,,,,,,,,,,,,,,,,,198721,21,2022-01-28_21h20.35.156,lexical_decision_task_DD_L5,2021.2.3,Win32,60.90504903,,,,,,,,,,,0.8822,1,,,,,,,,,,,,,,,,,,,,,,,,0.011574157,-0.387963046,0,0,0,,,,,,,BUNNY,LB,m,y,./images/BUNNYLB.png,,,,,,,,m,1,0.8822,,,,,,,,0,146,146,13,1
,,,,,,,,,,,,,,,,,198721,21,2022-01-28_21h20.35.156,lexical_decision_task_DD_L5,2021.2.3,Win32,60.90504903,,,,,,,,,,,0.784,1,,,,,,,,,,,,,,,,,,,,,,,,0.011574157,-0.387963046,0,0,0,,,,,,,ARTIST,LB,m,y,./images/ARTISTLB.png,,,,,,,,m,1,0.784,,,,,,,,0,147,147,61,1
,,,,,,,,,,,,,,,,,198721,21,2022-01-28_21h20.35.156,lexical_decision_task_DD_L5,2021.2.3,Win32,60.90504903,,,,,,,,,,,0.6341,1,,,,,,,,,,,,,,,,,,,,,,,,0.011574157,-0.387963046,0,0,0,,,,,,,THROAT,HB,z,y,./images/THROATHB.png,,,,,,,,z,1,0.6341,,,,,,,,0,148,148,120,1
,,,,,,,,,,,,,,,,,198721,21,2022-01-28_21h20.35.156,lexical_decision_task_DD_L5,2021.2.3,Win32,60.90504903,,,,,,,,,,,0.6496,1,,,,,,,,,,,,,,,,,,,,,,,,0.011574157,-0.387963046,0,0,0,,,,,,,ATTIC,HB,z,y,./images/ATTICHB.png,,,,,,,,z,1,0.6496,,,,,,,,0,149,149,111,1
,,,,,,,,,,,,,,,,,198721,21,2022-01-28_21h20.35.156,lexical_decision_task_DD_L5,2021.2.3,Win32,60.90504903,,,,,,,,,,,0.9841,1,,,,,,,,,,,,,,,,,,,,,,,,0.011574157,-0.387963046,0,0,0,,,,,,,POSTER,C,m,y,./images/POSTER.png,,,,,,,,m,1,0.9841,,,,,,,,0,150,150,53,1
,,,,,,,,,,,,,,,,,198721,21,2022-01-28_21h20.35.156,lexical_decision_task_DD_L5,2021.2.3,Win32,60.90504903,,,,,,,,,,,0.7679,1,,,,,,,,,,,,,,,,,,,,,,,,0.011574157,-0.387963046,0,0,0,,,,,,,BABOON,LB,z,y,./images/BABOONLB.png,,,,,,,,z,1,0.7679,,,,,,,,0,151,151,142,1
,,,,,,,,,,,,,,,,,198721,21,2022-01-28_21h20.35.156,lexical_decision_task_DD_L5,2021.2.3,Win32,60.90504903,,,,,,,,,,,0.6839,1,,,,,,,,,,,,,,,,,,,,,,,,0.011574157,-0.387963046,0,0,0,,,,,,,SCREW,HB,z,y,./images/SCREWHB.png,,,,,,,,z,1,0.6839,,,,,,,,0,152,152,108,1
,,,,,,,,,,,,,,,,,198721,21,2022-01-28_21h20.35.156,lexical_decision_task_DD_L5,2021.2.3,Win32,60.90504903,,,,,,,,,,,0.586,0,,,,,,,,,,,,,,,,,,,,,,,,0.011574157,-0.387963046,0,0,0,,,,,,,DESERT,LB,m,y,./images/DESERTLB.png,,,,,,,,z,0,0.586,,,,,,,,0,153,153,52,1
,,,,,,,,,,,,,,,,,198721,21,2022-01-28_21h20.35.156,lexical_decision_task_DD_L5,2021.2.3,Win32,60.90504903,,,,,,,,,,,1.2163,1,,,,,,,,,,,,,,,,,,,,,,,,0.011574157,-0.387963046,0,0,0,,,,,,,CANDY,HB,m,y,./images/CANDYHB.png,,,,,,,,m,1,1.2163,,,,,,,,0,154,154,39,1
,,,,,,,,,,,,,,,,,198721,21,2022-01-28_21h20.35.156,lexical_decision_task_DD_L5,2021.2.3,Win32,60.90504903,,,,,,,,,,,0.6381,1,,,,,,,,,,,,,,,,,,,,,,,,0.011574157,-0.387963046,0,0,0,,,,,,,MONKEY,HB,m,y,./images/MONKEYHB.png,,,,,,,,m,1,0.6381,,,,,,,,0,155,155,45,1
,,,,,,,,,,,,,,,,,198721,21,2022-01-28_21h20.35.156,lexical_decision_task_DD_L5,2021.2.3,Win32,60.90504903,,,,,,,,,,,0.5679,0,,,,,,,,,,,,,,,,,,,,,,,,0.011574157,-0.387963046,0,0,0,,,,,,,PICKLE,C,z,y,./images/PICKLE.png,,,,,,,,m,0,0.5679,,,,,,,,0,156,156,98,1
,,,,,,,,,,,,,,,,,198721,21,2022-01-28_21h20.35.156,lexical_decision_task_DD_L5,2021.2.3,Win32,60.90504903,,,,,,,,,,,0.7848,0,,,,,,,,,,,,,,,,,,,,,,,,0.011574157,-0.387963046,0,0,0,,,,,,,SHORE,HB,z,y,./images/SHOREHB.png,,,,,,,,m,0,0.7848,,,,,,,,0,157,157,96,1
,,,,,,,,,,,,,,,,,198721,21,2022-01-28_21h20.35.156,lexical_decision_task_DD_L5,2021.2.3,Win32,60.90504903,,,,,,,,,,,0.7367,0,,,,,,,,,,,,,,,,,,,,,,,,0.011574157,-0.387963046,0,0,0,,,,,,,CLOWN,LB,m,y,./images/CLOWNLB.png,,,,,,,,z,0,0.7367,,,,,,,,0,158,158,22,1
,,,,,,,,,,,,,,,,,198721,21,2022-01-28_21h20.35.156,lexical_decision_task_DD_L5,2021.2.3,Win32,60.90504903,,,,,,,,,,,0.7496,1,,,,,,,,,,,,,,,,,,,,,,,,0.011574157,-0.387963046,0,0,0,,,,,,,TOMATO,HB,z,y,./images/TOMATOHB.png,,,,,,,,z,1,0.7496,,,,,,,,0,159,159,84,1
,,,,,,,,,,,,,,,,,198721,21,2022-01-28_21h20.35.156,lexical_decision_task_DD_L5,2021.2.3,Win32,60.90504903,,,,,,,,,,,1.0817,0,,,,,,,,,,,,,,,,,,,,,,,,0.011574157,-0.387963046,0,0,0,,,,,,,HAMMER,HB,m,y,./images/HAMMERHB.png,,,,,,,,z,0,1.0817,,,,,,,,0,160,160,75,1
,,,,,,,,,,,,,,,,,198721,21,2022-01-28_21h20.35.156,lexical_decision_task_DD_L5,2021.2.3,Win32,60.90504903,,,,,,,,,,,0.6982,1,,,,,,,,,,,,,,,,,,,,,,,,0.011574157,-0.387963046,0,0,0,,,,,,,JAGUAR,HB,z,y,./images/JAGUARHB.png,,,,,,,,z,1,0.6982,,,,,,,,0,161,161,102,1
,,,,,,,,,,,,,,,,,198721,21,2022-01-28_21h20.35.156,lexical_decision_task_DD_L5,2021.2.3,Win32,60.90504903,,,,,,,,,,,0.6659,1,,,,,,,,,,,,,,,,,,,,,,,,0.011574157,-0.387963046,0,0,0,,,,,,,CLOUD,C,m,y,./images/CLOUD.png,,,,,,,,m,1,0.6659,,,,,,,,0,162,162,26,1
,,,,,,,,,,,,,,,,,198721,21,2022-01-28_21h20.35.156,lexical_decision_task_DD_L5,2021.2.3,Win32,60.90504903,,,,,,,,,,,0.8334,0,,,,,,,,,,,,,,,,,,,,,,,,0.011574157,-0.387963046,0,0,0,,,,,,,STRING,C,z,y,./images/STRING.png,,,,,,,,m,0,0.8334,,,,,,,,0,163,163,125,1
,,,,,,,,,,,,,,,,,198721,21,2022-01-28_21h20.35.156,lexical_decision_task_DD_L5,2021.2.3,Win32,60.90504903,,,,,,,,,,,0.6673,1,,,,,,,,,,,,,,,,,,,,,,,,0.011574157,-0.387963046,0,0,0,,,,,,,BROOM,HB,m,y,./images/BROOMHB.png,,,,,,,,m,1,0.6673,,,,,,,,0,164,164,78,1
,,,,,,,,,,,,,,,,,198721,21,2022-01-28_21h20.35.156,lexical_decision_task_DD_L5,2021.2.3,Win32,60.90504903,,,,,,,,,,,0.6652,1,,,,,,,,,,,,,,,,,,,,,,,,0.011574157,-0.387963046,0,0,0,,,,,,,ARROW,HB,m,y,./images/ARROWHB.png,,,,,,,,m,1,0.6652,,,,,,,,0,165,165,69,1
,,,,,,,,,,,,,,,,,198721,21,2022-01-28_21h20.35.156,lexical_decision_task_DD_L5,2021.2.3,Win32,60.90504903,,,,,,,,,,,0.767,1,,,,,,,,,,,,,,,,,,,,,,,,0.011574157,-0.387963046,0,0,0,,,,,,,SWING,LB,z,y,./images/SWINGLB.png,,,,,,,,z,1,0.767,,,,,,,,0,166,166,124,1
,,,,,,,,,,,,,,,,,198721,21,2022-01-28_21h20.35.156,lexical_decision_task_DD_L5,2021.2.3,Win32,60.90504903,,,,,,,,,,,1.4658,1,,,,,,,,,,,,,,,,,,,,,,,,0.011574157,-0.387963046,0,0,0,,,,,,,BISHOP,LB,m,y,./images/BISHOPLB.png,,,,,,,,m,1,1.4658,,,,,,,,0,167,167,49,1
