key_resp.keys,key_resp.rt,instr_done_touch.x,instr_done_touch.y,instr_done_touch.leftButton,instr_done_touch.midButton,instr_done_touch.rightButton,instruction_pages.thisRepN,instruction_pages.thisTrialN,instruction_pages.thisN,instruction_pages.thisIndex,instruction_pages.ran,pageN,phase,instruct_text,has_image,instruct_image,participant,age,date,expName,psychopyVersion,OS,frameRate,response.keys,response.corr,response.rt,touch_resp.x,touch_resp.y,touch_resp.leftButton,touch_resp.midButton,touch_resp.rightButton,touch_resp.time,touch_resp.clicked_name,rt,corr,practrials.thisRepN,practrials.thisTrialN,practrials.thisN,practrials.thisIndex,practrials.ran,TrialID,Target,corrAns,end_of_practice_trials_pages.thisRepN,end_of_practice_trials_pages.thisTrialN,end_of_practice_trials_pages.thisN,end_of_practice_trials_pages.thisIndex,end_of_practice_trials_pages.ran,key_resp_2.keys,key_resp_2.corr,key_resp_2.rt,targ_click.x,targ_click.y,targ_click.leftButton,targ_click.midButton,targ_click.rightButton,targ_click.time,targ_click.clicked_name,break_done_touch.x,break_done_touch.y,break_done_touch.leftButton,break_done_touch.midButton,break_done_touch.rightButton,break_done_keyboard.keys,maintrials.thisRepN,maintrials.thisTrialN,maintrials.thisN,maintrials.thisIndex,maintrials.ran,string,blur,study,lex,stim_path,break_done_keyboard.rt,test_instructions.thisRepN,test_instructions.thisTrialN,test_instructions.thisN,test_instructions.thisIndex,test_instructions.ran,instr_done_touch.clicked_name,key_resp_3.keys,key_resp_3.corr,key_resp_3.rt,test_click.x,test_click.y,test_click.leftButton,test_click.midButton,test_click.rightButton,test_click.time,test_click.clicked_name,test_phase.thisRepN,test_phase.thisTrialN,test_phase.thisN,test_phase.thisIndex,test_phase.ran
space,41.1977,-0.061111086,-0.133333352,0,0,0,0,0,0,0,1,1,instructions,"INSTRUCTIONS
At the start of each trial, look at the plus sign  (+) in the center of the screen.  This tells you that a trial is about to begin and where to look. Second, the plus sign will disappear and a string of letters will appear. Your task is to determine if the string of letters is a word or not. If the item is a word press the M key (on keyboard)  or touch the word button (phone/tablet).  If the item is not a word,  press the  Z key (on keyboard)  or touch the nonword button (on phone/tablet). 
Press the space bar or touch  continue.",0,,198796,18,2022-01-28_19h34.55.196,lexical_decision_task_DD,2021.2.3,Win32,59.89458553,,,,,,,,,,,,,,,,,,,,,,,,,,,,,,,,,,,,,,,,,,,,,,,,,,,,,,,,,,,,,,,,,,,,,,,,,
space,9.9098,-0.061111086,-0.133333352,0,0,0,0,1,1,1,1,2,instructions,"If your device has a keyboard, press the 'Z' key for nonwords and the 'M' key for words.





Press the space bar or touch the button below to continue.",0,keyboard-example.gif,198796,18,2022-01-28_19h34.55.196,lexical_decision_task_DD,2021.2.3,Win32,59.89458553,,,,,,,,,,,,,,,,,,,,,,,,,,,,,,,,,,,,,,,,,,,,,,,,,,,,,,,,,,,,,,,,,,,,,,,,,
space,1.9685,-0.061111086,-0.133333352,0,0,0,0,2,2,2,1,3,instructions,"If you are using a touchscreen only device, use the buttons on the screen. Do not use the mouse.





Press the space bar or touch the button below to continue.",0,touchscreen-example.gif,198796,18,2022-01-28_19h34.55.196,lexical_decision_task_DD,2021.2.3,Win32,59.89458553,,,,,,,,,,,,,,,,,,,,,,,,,,,,,,,,,,,,,,,,,,,,,,,,,,,,,,,,,,,,,,,,,,,,,,,,,
space,10.3131,-0.061111086,-0.133333352,0,0,0,0,3,3,3,1,4,instructions,"It is very important that you respond as quickly and accurately as possible, as each letter string will only be on the screen for two seconds. If you do not respond within this time, the message 'Too slow!' will be displayed and the experiment will progress to the next letter string. The first 20 trials will be practice trials and you will receive feedback on your answers. 

Press the space bar or touch the button below to start the practice trials.",0,,198796,18,2022-01-28_19h34.55.196,lexical_decision_task_DD,2021.2.3,Win32,59.89458553,,,,,,,,,,,,,,,,,,,,,,,,,,,,,,,,,,,,,,,,,,,,,,,,,,,,,,,,,,,,,,,,,,,,,,,,,
,,,,,,,,,,,,,,,,,198796,18,2022-01-28_19h34.55.196,lexical_decision_task_DD,2021.2.3,Win32,59.89458553,m,1,0.8415,,,,,,,,0.8415,1,0,0,0,5,1,1001,OBTAIN,m,,,,,,,,,,,,,,,,,,,,,,,,,,,,,,,,,,,,,,,,,,,,,,,,,,,,,
,,,,,,,,,,,,,,,,,198796,18,2022-01-28_19h34.55.196,lexical_decision_task_DD,2021.2.3,Win32,59.89458553,z,1,0.0773,,,,,,,,0.0773,1,0,1,1,8,1,1001,ASLERT,z,,,,,,,,,,,,,,,,,,,,,,,,,,,,,,,,,,,,,,,,,,,,,,,,,,,,,
,,,,,,,,,,,,,,,,,198796,18,2022-01-28_19h34.55.196,lexical_decision_task_DD,2021.2.3,Win32,59.89458553,z,1,0.8014,,,,,,,,0.8014,1,0,2,2,13,1,1001,ROUPET,z,,,,,,,,,,,,,,,,,,,,,,,,,,,,,,,,,,,,,,,,,,,,,,,,,,,,,
,,,,,,,,,,,,,,,,,198796,18,2022-01-28_19h34.55.196,lexical_decision_task_DD,2021.2.3,Win32,59.89458553,m,0,0.7165,,,,,,,,0.7165,0,0,3,3,14,1,1001,THRALE,z,,,,,,,,,,,,,,,,,,,,,,,,,,,,,,,,,,,,,,,,,,,,,,,,,,,,,
,,,,,,,,,,,,,,,,,198796,18,2022-01-28_19h34.55.196,lexical_decision_task_DD,2021.2.3,Win32,59.89458553,z,0,0.7708,,,,,,,,0.7708,0,0,4,4,2,1,1001,ALMOND,m,,,,,,,,,,,,,,,,,,,,,,,,,,,,,,,,,,,,,,,,,,,,,,,,,,,,,
,,,,,,,,,,,,,,,,,198796,18,2022-01-28_19h34.55.196,lexical_decision_task_DD,2021.2.3,Win32,59.89458553,m,1,0.5743,,,,,,,,0.5743,1,0,5,5,1,1,1001,ADJUST,m,,,,,,,,,,,,,,,,,,,,,,,,,,,,,,,,,,,,,,,,,,,,,,,,,,,,,
,,,,,,,,,,,,,,,,,198796,18,2022-01-28_19h34.55.196,lexical_decision_task_DD,2021.2.3,Win32,59.89458553,z,1,0.8334,,,,,,,,0.8334,1,0,6,6,11,1,1001,RASHET,z,,,,,,,,,,,,,,,,,,,,,,,,,,,,,,,,,,,,,,,,,,,,,,,,,,,,,
,,,,,,,,,,,,,,,,,198796,18,2022-01-28_19h34.55.196,lexical_decision_task_DD,2021.2.3,Win32,59.89458553,m,0,0.7622,,,,,,,,0.7622,0,0,7,7,15,1,1001,WHAISE,z,,,,,,,,,,,,,,,,,,,,,,,,,,,,,,,,,,,,,,,,,,,,,,,,,,,,,
,,,,,,,,,,,,,,,,,198796,18,2022-01-28_19h34.55.196,lexical_decision_task_DD,2021.2.3,Win32,59.89458553,z,0,0.992,,,,,,,,0.992,0,0,8,8,4,1,1001,SQUEAK,m,,,,,,,,,,,,,,,,,,,,,,,,,,,,,,,,,,,,,,,,,,,,,,,,,,,,,
,,,,,,,,,,,,,,,,,198796,18,2022-01-28_19h34.55.196,lexical_decision_task_DD,2021.2.3,Win32,59.89458553,m,1,0.5547,,,,,,,,0.5547,1,0,9,9,7,1,1001,VOLUME,m,,,,,,,,,,,,,,,,,,,,,,,,,,,,,,,,,,,,,,,,,,,,,,,,,,,,,
,,,,,,,,,,,,,,,,,198796,18,2022-01-28_19h34.55.196,lexical_decision_task_DD,2021.2.3,Win32,59.89458553,m,0,0.7612,,,,,,,,0.7612,0,0,10,10,12,1,1001,SPRINY,z,,,,,,,,,,,,,,,,,,,,,,,,,,,,,,,,,,,,,,,,,,,,,,,,,,,,,
,,,,,,,,,,,,,,,,,198796,18,2022-01-28_19h34.55.196,lexical_decision_task_DD,2021.2.3,Win32,59.89458553,z,0,0.6409,,,,,,,,0.6409,0,0,11,11,3,1,1001,MATRIX,m,,,,,,,,,,,,,,,,,,,,,,,,,,,,,,,,,,,,,,,,,,,,,,,,,,,,,
,,,,,,,,,,,,,,,,,198796,18,2022-01-28_19h34.55.196,lexical_decision_task_DD,2021.2.3,Win32,59.89458553,z,1,0.8162,,,,,,,,0.8162,1,0,12,12,10,1,1001,INLADE,z,,,,,,,,,,,,,,,,,,,,,,,,,,,,,,,,,,,,,,,,,,,,,,,,,,,,,
,,,,,,,,,,,,,,,,,198796,18,2022-01-28_19h34.55.196,lexical_decision_task_DD,2021.2.3,Win32,59.89458553,m,1,0.5671,,,,,,,,0.5671,1,0,13,13,6,1,1001,ZOMBIE,m,,,,,,,,,,,,,,,,,,,,,,,,,,,,,,,,,,,,,,,,,,,,,,,,,,,,,
,,,,,,,,,,,,,,,,,198796,18,2022-01-28_19h34.55.196,lexical_decision_task_DD,2021.2.3,Win32,59.89458553,z,0,0.5598,,,,,,,,0.5598,0,0,14,14,0,1,1001,UTOPIA,m,,,,,,,,,,,,,,,,,,,,,,,,,,,,,,,,,,,,,,,,,,,,,,,,,,,,,
,,,,,,,,,,,,,,,,,198796,18,2022-01-28_19h34.55.196,lexical_decision_task_DD,2021.2.3,Win32,59.89458553,m,0,0.7289,,,,,,,,0.7289,0,0,15,15,9,1,1001,FARINY,z,,,,,,,,,,,,,,,,,,,,,,,,,,,,,,,,,,,,,,,,,,,,,,,,,,,,,
space,38.8205,-0.061111086,-0.133333352,0,0,0,,,,,,1,end_of_practice,"You have completed the practice trials. During the experimental trials, you will not receive feedback. 
Before you begin, please ensure that you are in a comfortable and quiet location and will not be disturbed for about 15 minutes, as we cannot use your data if you do not complete all the trials. 
 When you are ready to start the experimental trials, please press space or touch the button below.",,,198796,18,2022-01-28_19h34.55.196,lexical_decision_task_DD,2021.2.3,Win32,59.89458553,,,,,,,,,,,,,,,,,,,,,0,0,0,0,1,,,,,,,,,,,,,,,,,,,,,,,,,,,,,,,,,,,,,,,,,,,,,,,,
,,,,,,,,,,,,,,,,,198796,18,2022-01-28_19h34.55.196,lexical_decision_task_DD,2021.2.3,Win32,59.89458553,,,,,,,,,,,1.4896,1,,,,,,,,,,,,,,z,1,1.4896,,,,,,,,-0.061111086,-0.133333352,0,0,0,,0,0,0,109,1,BURGE,HB,old,z,./images/BURGEHB.png,,,,,,,,,,,,,,,,,,,,,,
,,,,,,,,,,,,,,,,,198796,18,2022-01-28_19h34.55.196,lexical_decision_task_DD,2021.2.3,Win32,59.89458553,,,,,,,,,,,1.0052,1,,,,,,,,,,,,,,m,1,1.0052,,,,,,,,-0.061111086,-0.133333352,0,0,0,,0,1,1,45,1,KITTEN,C,old,m,./images/KITTEN.png,,,,,,,,,,,,,,,,,,,,,,
,,,,,,,,,,,,,,,,,198796,18,2022-01-28_19h34.55.196,lexical_decision_task_DD,2021.2.3,Win32,59.89458553,,,,,,,,,,,1.117,1,,,,,,,,,,,,,,z,1,1.117,,,,,,,,-0.061111086,-0.133333352,0,0,0,,0,2,2,134,1,TROSS,LB,old,z,./images/TROSSLB.png,,,,,,,,,,,,,,,,,,,,,,
,,,,,,,,,,,,,,,,,198796,18,2022-01-28_19h34.55.196,lexical_decision_task_DD,2021.2.3,Win32,59.89458553,,,,,,,,,,,1.2556,1,,,,,,,,,,,,,,m,1,1.2556,,,,,,,,-0.061111086,-0.133333352,0,0,0,,0,3,3,39,1,SHELF,C,old,m,./images/SHELF.png,,,,,,,,,,,,,,,,,,,,,,
,,,,,,,,,,,,,,,,,198796,18,2022-01-28_19h34.55.196,lexical_decision_task_DD,2021.2.3,Win32,59.89458553,,,,,,,,,,,0.9366,1,,,,,,,,,,,,,,z,1,0.9366,,,,,,,,-0.061111086,-0.133333352,0,0,0,,0,4,4,143,1,MONGS,LB,old,z,./images/MONGSLB.png,,,,,,,,,,,,,,,,,,,,,,
,,,,,,,,,,,,,,,,,198796,18,2022-01-28_19h34.55.196,lexical_decision_task_DD,2021.2.3,Win32,59.89458553,,,,,,,,,,,1.6515,0,,,,,,,,,,,,,,m,0,1.6515,,,,,,,,-0.061111086,-0.133333352,0,0,0,,0,5,5,85,1,CHULK,HB,old,z,./images/CHULKHB.png,,,,,,,,,,,,,,,,,,,,,,
,,,,,,,,,,,,,,,,,198796,18,2022-01-28_19h34.55.196,lexical_decision_task_DD,2021.2.3,Win32,59.89458553,,,,,,,,,,,1.4493,1,,,,,,,,,,,,,,m,1,1.4493,,,,,,,,-0.061111086,-0.133333352,0,0,0,,0,6,6,19,1,DOUGH,HB,old,m,./images/DOUGHHB.png,,,,,,,,,,,,,,,,,,,,,,
,,,,,,,,,,,,,,,,,198796,18,2022-01-28_19h34.55.196,lexical_decision_task_DD,2021.2.3,Win32,59.89458553,,,,,,,,,,,1.0339,1,,,,,,,,,,,,,,m,1,1.0339,,,,,,,,-0.061111086,-0.133333352,0,0,0,,0,7,7,79,1,CRUST,HB,old,m,./images/CRUSTHB.png,,,,,,,,,,,,,,,,,,,,,,
,,,,,,,,,,,,,,,,,198796,18,2022-01-28_19h34.55.196,lexical_decision_task_DD,2021.2.3,Win32,59.89458553,,,,,,,,,,,1.0668,1,,,,,,,,,,,,,,m,1,1.0668,,,,,,,,-0.061111086,-0.133333352,0,0,0,,0,8,8,46,1,PEARL,HB,old,m,./images/PEARLHB.png,,,,,,,,,,,,,,,,,,,,,,
,,,,,,,,,,,,,,,,,198796,18,2022-01-28_19h34.55.196,lexical_decision_task_DD,2021.2.3,Win32,59.89458553,,,,,,,,,,,1.0171,1,,,,,,,,,,,,,,z,1,1.0171,,,,,,,,-0.061111086,-0.133333352,0,0,0,,0,9,9,144,1,NAIRY,C,old,z,./images/NAIRY.png,,,,,,,,,,,,,,,,,,,,,,
,,,,,,,,,,,,,,,,,198796,18,2022-01-28_19h34.55.196,lexical_decision_task_DD,2021.2.3,Win32,59.89458553,,,,,,,,,,,2.6928,0,,,,,,,,,,,,,,m,0,2.6928,,,,,,,,-0.061111086,-0.133333352,0,0,0,,0,10,10,166,1,SHORY,HB,old,z,./images/SHORYHB.png,,,,,,,,,,,,,,,,,,,,,,
,,,,,,,,,,,,,,,,,198796,18,2022-01-28_19h34.55.196,lexical_decision_task_DD,2021.2.3,Win32,59.89458553,,,,,,,,,,,1.3022,0,,,,,,,,,,,,,,m,0,1.3022,,,,,,,,-0.061111086,-0.133333352,0,0,0,,0,11,11,118,1,BAVEL,HB,old,z,./images/BAVELHB.png,,,,,,,,,,,,,,,,,,,,,,
,,,,,,,,,,,,,,,,,198796,18,2022-01-28_19h34.55.196,lexical_decision_task_DD,2021.2.3,Win32,59.89458553,,,,,,,,,,,0.9104,1,,,,,,,,,,,,,,z,1,0.9104,,,,,,,,-0.061111086,-0.133333352,0,0,0,,0,12,12,131,1,NACES,LB,old,z,./images/NACESLB.png,,,,,,,,,,,,,,,,,,,,,,
,,,,,,,,,,,,,,,,,198796,18,2022-01-28_19h34.55.196,lexical_decision_task_DD,2021.2.3,Win32,59.89458553,,,,,,,,,,,0.9872,1,,,,,,,,,,,,,,m,1,0.9872,,,,,,,,-0.061111086,-0.133333352,0,0,0,,0,13,13,7,1,PAINT,HB,old,m,./images/PAINTHB.png,,,,,,,,,,,,,,,,,,,,,,
,,,,,,,,,,,,,,,,,198796,18,2022-01-28_19h34.55.196,lexical_decision_task_DD,2021.2.3,Win32,59.89458553,,,,,,,,,,,0.8749,1,,,,,,,,,,,,,,z,1,0.8749,,,,,,,,-0.061111086,-0.133333352,0,0,0,,0,14,14,117,1,STEEG,C,old,z,./images/STEEG.png,,,,,,,,,,,,,,,,,,,,,,
,,,,,,,,,,,,,,,,,198796,18,2022-01-28_19h34.55.196,lexical_decision_task_DD,2021.2.3,Win32,59.89458553,,,,,,,,,,,1.1673,1,,,,,,,,,,,,,,z,1,1.1673,,,,,,,,-0.061111086,-0.133333352,0,0,0,,0,15,15,139,1,BLEAR,HB,old,z,./images/BLEARHB.png,,,,,,,,,,,,,,,,,,,,,,
,,,,,,,,,,,,,,,,,198796,18,2022-01-28_19h34.55.196,lexical_decision_task_DD,2021.2.3,Win32,59.89458553,,,,,,,,,,,1.2788,1,,,,,,,,,,,,,,m,1,1.2788,,,,,,,,-0.061111086,-0.133333352,0,0,0,,0,16,16,37,1,BIRTH,HB,old,m,./images/BIRTHHB.png,,,,,,,,,,,,,,,,,,,,,,
,,,,,,,,,,,,,,,,,198796,18,2022-01-28_19h34.55.196,lexical_decision_task_DD,2021.2.3,Win32,59.89458553,,,,,,,,,,,0.9231,1,,,,,,,,,,,,,,m,1,0.9231,,,,,,,,-0.061111086,-0.133333352,0,0,0,,0,17,17,64,1,JELLY,HB,old,m,./images/JELLYHB.png,,,,,,,,,,,,,,,,,,,,,,
,,,,,,,,,,,,,,,,,198796,18,2022-01-28_19h34.55.196,lexical_decision_task_DD,2021.2.3,Win32,59.89458553,,,,,,,,,,,1.2167,0,,,,,,,,,,,,,,m,0,1.2167,,,,,,,,-0.061111086,-0.133333352,0,0,0,,0,18,18,90,1,NEAST,C,old,z,./images/NEAST.png,,,,,,,,,,,,,,,,,,,,,,
,,,,,,,,,,,,,,,,,198796,18,2022-01-28_19h34.55.196,lexical_decision_task_DD,2021.2.3,Win32,59.89458553,,,,,,,,,,,1.2401,1,,,,,,,,,,,,,,z,1,1.2401,,,,,,,,-0.061111086,-0.133333352,0,0,0,,0,19,19,119,1,PAFER,LB,old,z,./images/PAFERLB.png,,,,,,,,,,,,,,,,,,,,,,
,,,,,,,,,,,,,,,,,198796,18,2022-01-28_19h34.55.196,lexical_decision_task_DD,2021.2.3,Win32,59.89458553,,,,,,,,,,,0.7164,1,,,,,,,,,,,,,,m,1,0.7164,,,,,,,,-0.061111086,-0.133333352,0,0,0,,0,20,20,6,1,SQUARE,C,old,m,./images/SQUARE.png,,,,,,,,,,,,,,,,,,,,,,
,,,,,,,,,,,,,,,,,198796,18,2022-01-28_19h34.55.196,lexical_decision_task_DD,2021.2.3,Win32,59.89458553,,,,,,,,,,,0.7329,1,,,,,,,,,,,,,,m,1,0.7329,,,,,,,,-0.061111086,-0.133333352,0,0,0,,0,21,21,44,1,LIZARD,LB,old,m,./images/LIZARDLB.png,,,,,,,,,,,,,,,,,,,,,,
,,,,,,,,,,,,,,,,,198796,18,2022-01-28_19h34.55.196,lexical_decision_task_DD,2021.2.3,Win32,59.89458553,,,,,,,,,,,1.0545,1,,,,,,,,,,,,,,m,1,1.0545,,,,,,,,-0.061111086,-0.133333352,0,0,0,,0,22,22,72,1,NOOSE,C,old,m,./images/NOOSE.png,,,,,,,,,,,,,,,,,,,,,,
,,,,,,,,,,,,,,,,,198796,18,2022-01-28_19h34.55.196,lexical_decision_task_DD,2021.2.3,Win32,59.89458553,,,,,,,,,,,1.0326,0,,,,,,,,,,,,,,z,0,1.0326,,,,,,,,-0.061111086,-0.133333352,0,0,0,,0,23,23,31,1,QUILL,HB,old,m,./images/QUILLHB.png,,,,,,,,,,,,,,,,,,,,,,
,,,,,,,,,,,,,,,,,198796,18,2022-01-28_19h34.55.196,lexical_decision_task_DD,2021.2.3,Win32,59.89458553,,,,,,,,,,,1.5127,0,,,,,,,,,,,,,,m,0,1.5127,,,,,,,,-0.061111086,-0.133333352,0,0,0,,0,24,24,163,1,GAMBA,HB,old,z,./images/GAMBAHB.png,,,,,,,,,,,,,,,,,,,,,,
,,,,,,,,,,,,,,,,,198796,18,2022-01-28_19h34.55.196,lexical_decision_task_DD,2021.2.3,Win32,59.89458553,,,,,,,,,,,1.9702,1,,,,,,,,,,,,,,z,1,1.9702,,,,,,,,-0.061111086,-0.133333352,0,0,0,,0,25,25,157,1,INLER,HB,old,z,./images/INLERHB.png,,,,,,,,,,,,,,,,,,,,,,
,,,,,,,,,,,,,,,,,198796,18,2022-01-28_19h34.55.196,lexical_decision_task_DD,2021.2.3,Win32,59.89458553,,,,,,,,,,,0.9829,1,,,,,,,,,,,,,,m,1,0.9829,,,,,,,,-0.061111086,-0.133333352,0,0,0,,0,26,26,81,1,POODLE,C,old,m,./images/POODLE.png,,,,,,,,,,,,,,,,,,,,,,
,,,,,,,,,,,,,,,,,198796,18,2022-01-28_19h34.55.196,lexical_decision_task_DD,2021.2.3,Win32,59.89458553,,,,,,,,,,,1.1203,0,,,,,,,,,,,,,,m,0,1.1203,,,,,,,,-0.061111086,-0.133333352,0,0,0,,0,27,27,121,1,CEERS,HB,old,z,./images/CEERSHB.png,,,,,,,,,,,,,,,,,,,,,,
,,,,,,,,,,,,,,,,,198796,18,2022-01-28_19h34.55.196,lexical_decision_task_DD,2021.2.3,Win32,59.89458553,,,,,,,,,,,0.9636,0,,,,,,,,,,,,,,m,0,0.9636,,,,,,,,-0.061111086,-0.133333352,0,0,0,,0,28,28,159,1,CUDDY,C,old,z,./images/CUDDY.png,,,,,,,,,,,,,,,,,,,,,,
,,,,,,,,,,,,,,,,,198796,18,2022-01-28_19h34.55.196,lexical_decision_task_DD,2021.2.3,Win32,59.89458553,,,,,,,,,,,1.7256,1,,,,,,,,,,,,,,z,1,1.7256,,,,,,,,-0.061111086,-0.133333352,0,0,0,,0,29,29,158,1,EGECT,LB,old,z,./images/EGECTLB.png,,,,,,,,,,,,,,,,,,,,,,
,,,,,,,,,,,,,,,,,198796,18,2022-01-28_19h34.55.196,lexical_decision_task_DD,2021.2.3,Win32,59.89458553,,,,,,,,,,,0.8683,1,,,,,,,,,,,,,,z,1,0.8683,,,,,,,,-0.061111086,-0.133333352,0,0,0,,0,30,30,84,1,HAXES,C,old,z,./images/HAXES.png,,,,,,,,,,,,,,,,,,,,,,
,,,,,,,,,,,,,,,,,198796,18,2022-01-28_19h34.55.196,lexical_decision_task_DD,2021.2.3,Win32,59.89458553,,,,,,,,,,,2.0354,1,,,,,,,,,,,,,,z,1,2.0354,,,,,,,,-0.061111086,-0.133333352,0,0,0,,0,31,31,133,1,POWDY,HB,old,z,./images/POWDYHB.png,,,,,,,,,,,,,,,,,,,,,,
,,,,,,,,,,,,,,,,,198796,18,2022-01-28_19h34.55.196,lexical_decision_task_DD,2021.2.3,Win32,59.89458553,,,,,,,,,,,1.6514,0,,,,,,,,,,,,,,m,0,1.6514,,,,,,,,-0.061111086,-0.133333352,0,0,0,,0,32,32,95,1,HANTY,LB,old,z,./images/HANTYLB.png,,,,,,,,,,,,,,,,,,,,,,
,,,,,,,,,,,,,,,,,198796,18,2022-01-28_19h34.55.196,lexical_decision_task_DD,2021.2.3,Win32,59.89458553,,,,,,,,,,,0.7553,1,,,,,,,,,,,,,,z,1,0.7553,,,,,,,,-0.061111086,-0.133333352,0,0,0,,0,33,33,162,1,LEICH,C,old,z,./images/LEICH.png,,,,,,,,,,,,,,,,,,,,,,
,,,,,,,,,,,,,,,,,198796,18,2022-01-28_19h34.55.196,lexical_decision_task_DD,2021.2.3,Win32,59.89458553,,,,,,,,,,,1.0504,1,,,,,,,,,,,,,,z,1,1.0504,,,,,,,,-0.061111086,-0.133333352,0,0,0,,0,34,34,124,1,TUNCH,HB,old,z,./images/TUNCHHB.png,,,,,,,,,,,,,,,,,,,,,,
,,,,,,,,,,,,,,,,,198796,18,2022-01-28_19h34.55.196,lexical_decision_task_DD,2021.2.3,Win32,59.89458553,,,,,,,,,,,0.723,1,,,,,,,,,,,,,,m,1,0.723,,,,,,,,-0.061111086,-0.133333352,0,0,0,,0,35,35,57,1,MOOSE,C,old,m,./images/MOOSE.png,,,,,,,,,,,,,,,,,,,,,,
,,,,,,,,,,,,,,,,,198796,18,2022-01-28_19h34.55.196,lexical_decision_task_DD,2021.2.3,Win32,59.89458553,,,,,,,,,,,0.683,1,,,,,,,,,,,,,,m,1,0.683,,,,,,,,-0.061111086,-0.133333352,0,0,0,,0,36,36,56,1,PACKET,LB,old,m,./images/PACKETLB.png,,,,,,,,,,,,,,,,,,,,,,
,,,,,,,,,,,,,,,,,198796,18,2022-01-28_19h34.55.196,lexical_decision_task_DD,2021.2.3,Win32,59.89458553,,,,,,,,,,,0.934,1,,,,,,,,,,,,,,m,1,0.934,,,,,,,,-0.061111086,-0.133333352,0,0,0,,0,37,37,70,1,URINE,HB,old,m,./images/URINEHB.png,,,,,,,,,,,,,,,,,,,,,,
,,,,,,,,,,,,,,,,,198796,18,2022-01-28_19h34.55.196,lexical_decision_task_DD,2021.2.3,Win32,59.89458553,,,,,,,,,,,0.9404,1,,,,,,,,,,,,,,m,1,0.9404,,,,,,,,-0.061111086,-0.133333352,0,0,0,,0,38,38,15,1,GREASE,C,old,m,./images/GREASE.png,,,,,,,,,,,,,,,,,,,,,,
,,,,,,,,,,,,,,,,,198796,18,2022-01-28_19h34.55.196,lexical_decision_task_DD,2021.2.3,Win32,59.89458553,,,,,,,,,,,0.6069,1,,,,,,,,,,,,,,m,1,0.6069,,,,,,,,-0.061111086,-0.133333352,0,0,0,,0,39,39,77,1,COUCH,LB,old,m,./images/COUCHLB.png,,,,,,,,,,,,,,,,,,,,,,
,,,,,,,,,,,,,,,,,198796,18,2022-01-28_19h34.55.196,lexical_decision_task_DD,2021.2.3,Win32,59.89458553,,,,,,,,,,,0.8171,1,,,,,,,,,,,,,,m,1,0.8171,,,,,,,,-0.061111086,-0.133333352,0,0,0,,0,40,40,82,1,SUNSET,HB,old,m,./images/SUNSETHB.png,,,,,,,,,,,,,,,,,,,,,,
,,,,,,,,,,,,,,,,,198796,18,2022-01-28_19h34.55.196,lexical_decision_task_DD,2021.2.3,Win32,59.89458553,,,,,,,,,,,0.5967,1,,,,,,,,,,,,,,m,1,0.5967,,,,,,,,-0.061111086,-0.133333352,0,0,0,space,0,41,41,66,1,SWEAT,C,old,m,./images/SWEAT.png,14.8472,,,,,,,,,,,,,,,,,,,,,
,,,,,,,,,,,,,,,,,198796,18,2022-01-28_19h34.55.196,lexical_decision_task_DD,2021.2.3,Win32,59.89458553,,,,,,,,,,,1.2751,1,,,,,,,,,,,,,,m,1,1.2751,,,,,,,,-0.061111086,-0.133333352,0,0,0,,0,42,42,32,1,BARREL,LB,old,m,./images/BARRELLB.png,,,,,,,,,,,,,,,,,,,,,,
,,,,,,,,,,,,,,,,,198796,18,2022-01-28_19h34.55.196,lexical_decision_task_DD,2021.2.3,Win32,59.89458553,,,,,,,,,,,1.2418,1,,,,,,,,,,,,,,m,1,1.2418,,,,,,,,-0.061111086,-0.133333352,0,0,0,,0,43,43,13,1,MOTOR,HB,old,m,./images/MOTORHB.png,,,,,,,,,,,,,,,,,,,,,,
,,,,,,,,,,,,,,,,,198796,18,2022-01-28_19h34.55.196,lexical_decision_task_DD,2021.2.3,Win32,59.89458553,,,,,,,,,,,0.8837,1,,,,,,,,,,,,,,z,1,0.8837,,,,,,,,-0.061111086,-0.133333352,0,0,0,,0,44,44,138,1,PLICE,C,old,z,./images/PLICE.png,,,,,,,,,,,,,,,,,,,,,,
,,,,,,,,,,,,,,,,,198796,18,2022-01-28_19h34.55.196,lexical_decision_task_DD,2021.2.3,Win32,59.89458553,,,,,,,,,,,1.0165,0,,,,,,,,,,,,,,z,0,1.0165,,,,,,,,-0.061111086,-0.133333352,0,0,0,,0,45,45,59,1,BURIAL,LB,old,m,./images/BURIALLB.png,,,,,,,,,,,,,,,,,,,,,,
,,,,,,,,,,,,,,,,,198796,18,2022-01-28_19h34.55.196,lexical_decision_task_DD,2021.2.3,Win32,59.89458553,,,,,,,,,,,1.2577,1,,,,,,,,,,,,,,m,1,1.2577,,,,,,,,-0.061111086,-0.133333352,0,0,0,,0,46,46,49,1,DRUMS,HB,old,m,./images/DRUMSHB.png,,,,,,,,,,,,,,,,,,,,,,
,,,,,,,,,,,,,,,,,198796,18,2022-01-28_19h34.55.196,lexical_decision_task_DD,2021.2.3,Win32,59.89458553,,,,,,,,,,,1.3671,1,,,,,,,,,,,,,,z,1,1.3671,,,,,,,,-0.061111086,-0.133333352,0,0,0,,0,47,47,100,1,DRIBS,HB,old,z,./images/DRIBSHB.png,,,,,,,,,,,,,,,,,,,,,,
,,,,,,,,,,,,,,,,,198796,18,2022-01-28_19h34.55.196,lexical_decision_task_DD,2021.2.3,Win32,59.89458553,,,,,,,,,,,0.9344,1,,,,,,,,,,,,,,z,1,0.9344,,,,,,,,-0.061111086,-0.133333352,0,0,0,,0,48,48,93,1,SMONE,C,old,z,./images/SMONE.png,,,,,,,,,,,,,,,,,,,,,,
,,,,,,,,,,,,,,,,,198796,18,2022-01-28_19h34.55.196,lexical_decision_task_DD,2021.2.3,Win32,59.89458553,,,,,,,,,,,0.7881,1,,,,,,,,,,,,,,z,1,0.7881,,,,,,,,-0.061111086,-0.133333352,0,0,0,,0,49,49,167,1,ZONET,LB,old,z,./images/ZONETLB.png,,,,,,,,,,,,,,,,,,,,,,
,,,,,,,,,,,,,,,,,198796,18,2022-01-28_19h34.55.196,lexical_decision_task_DD,2021.2.3,Win32,59.89458553,,,,,,,,,,,1.7544,1,,,,,,,,,,,,,,z,1,1.7544,,,,,,,,-0.061111086,-0.133333352,0,0,0,,0,50,50,112,1,MYING,HB,old,z,./images/MYINGHB.png,,,,,,,,,,,,,,,,,,,,,,
,,,,,,,,,,,,,,,,,198796,18,2022-01-28_19h34.55.196,lexical_decision_task_DD,2021.2.3,Win32,59.89458553,,,,,,,,,,,0.9881,1,,,,,,,,,,,,,,m,1,0.9881,,,,,,,,-0.061111086,-0.133333352,0,0,0,,0,51,51,52,1,BANNER,HB,old,m,./images/BANNERHB.png,,,,,,,,,,,,,,,,,,,,,,
,,,,,,,,,,,,,,,,,198796,18,2022-01-28_19h34.55.196,lexical_decision_task_DD,2021.2.3,Win32,59.89458553,,,,,,,,,,,1.1248,1,,,,,,,,,,,,,,m,1,1.1248,,,,,,,,-0.061111086,-0.133333352,0,0,0,,0,52,52,27,1,ATTIC,C,old,m,./images/ATTIC.png,,,,,,,,,,,,,,,,,,,,,,
,,,,,,,,,,,,,,,,,198796,18,2022-01-28_19h34.55.196,lexical_decision_task_DD,2021.2.3,Win32,59.89458553,,,,,,,,,,,0.7847,1,,,,,,,,,,,,,,m,1,0.7847,,,,,,,,-0.061111086,-0.133333352,0,0,0,,0,53,53,9,1,RHINO,C,old,m,./images/RHINO.png,,,,,,,,,,,,,,,,,,,,,,
,,,,,,,,,,,,,,,,,198796,18,2022-01-28_19h34.55.196,lexical_decision_task_DD,2021.2.3,Win32,59.89458553,,,,,,,,,,,1.1178,1,,,,,,,,,,,,,,z,1,1.1178,,,,,,,,-0.061111086,-0.133333352,0,0,0,,0,54,54,125,1,MOOKY,LB,old,z,./images/MOOKYLB.png,,,,,,,,,,,,,,,,,,,,,,
,,,,,,,,,,,,,,,,,198796,18,2022-01-28_19h34.55.196,lexical_decision_task_DD,2021.2.3,Win32,59.89458553,,,,,,,,,,,1.043,0,,,,,,,,,,,,,,m,0,1.043,,,,,,,,-0.061111086,-0.133333352,0,0,0,,0,55,55,106,1,CLUMS,HB,old,z,./images/CLUMSHB.png,,,,,,,,,,,,,,,,,,,,,,
,,,,,,,,,,,,,,,,,198796,18,2022-01-28_19h34.55.196,lexical_decision_task_DD,2021.2.3,Win32,59.89458553,,,,,,,,,,,0.9745,1,,,,,,,,,,,,,,z,1,0.9745,,,,,,,,-0.061111086,-0.133333352,0,0,0,,0,56,56,87,1,TRING,C,old,z,./images/TRING.png,,,,,,,,,,,,,,,,,,,,,,
,,,,,,,,,,,,,,,,,198796,18,2022-01-28_19h34.55.196,lexical_decision_task_DD,2021.2.3,Win32,59.89458553,,,,,,,,,,,1.2015,0,,,,,,,,,,,,,,m,0,1.2015,,,,,,,,-0.061111086,-0.133333352,0,0,0,,0,57,57,122,1,BLOOT,LB,old,z,./images/BLOOTLB.png,,,,,,,,,,,,,,,,,,,,,,
,,,,,,,,,,,,,,,,,198796,18,2022-01-28_19h34.55.196,lexical_decision_task_DD,2021.2.3,Win32,59.89458553,,,,,,,,,,,0.6704,1,,,,,,,,,,,,,,m,1,0.6704,,,,,,,,-0.061111086,-0.133333352,0,0,0,,0,58,58,3,1,FINGER,C,old,m,./images/FINGER.png,,,,,,,,,,,,,,,,,,,,,,
,,,,,,,,,,,,,,,,,198796,18,2022-01-28_19h34.55.196,lexical_decision_task_DD,2021.2.3,Win32,59.89458553,,,,,,,,,,,1.1244,0,,,,,,,,,,,,,,z,0,1.1244,,,,,,,,-0.061111086,-0.133333352,0,0,0,,0,59,59,69,1,COOKER,C,old,m,./images/COOKER.png,,,,,,,,,,,,,,,,,,,,,,
,,,,,,,,,,,,,,,,,198796,18,2022-01-28_19h34.55.196,lexical_decision_task_DD,2021.2.3,Win32,59.89458553,,,,,,,,,,,1.1167,1,,,,,,,,,,,,,,z,1,1.1167,,,,,,,,-0.061111086,-0.133333352,0,0,0,,0,60,60,108,1,GRUET,C,old,z,./images/GRUET.png,,,,,,,,,,,,,,,,,,,,,,
,,,,,,,,,,,,,,,,,198796,18,2022-01-28_19h34.55.196,lexical_decision_task_DD,2021.2.3,Win32,59.89458553,,,,,,,,,,,0.9835,1,,,,,,,,,,,,,,z,1,0.9835,,,,,,,,-0.061111086,-0.133333352,0,0,0,,0,61,61,165,1,TROWN,C,old,z,./images/TROWN.png,,,,,,,,,,,,,,,,,,,,,,
,,,,,,,,,,,,,,,,,198796,18,2022-01-28_19h34.55.196,lexical_decision_task_DD,2021.2.3,Win32,59.89458553,,,,,,,,,,,1.0953,0,,,,,,,,,,,,,,z,0,1.0953,,,,,,,,-0.061111086,-0.133333352,0,0,0,,0,62,62,58,1,BABOON,HB,old,m,./images/BABOONHB.png,,,,,,,,,,,,,,,,,,,,,,
,,,,,,,,,,,,,,,,,198796,18,2022-01-28_19h34.55.196,lexical_decision_task_DD,2021.2.3,Win32,59.89458553,,,,,,,,,,,0.8467,1,,,,,,,,,,,,,,m,1,0.8467,,,,,,,,-0.061111086,-0.133333352,0,0,0,,0,63,63,78,1,LITTER,C,old,m,./images/LITTER.png,,,,,,,,,,,,,,,,,,,,,,
,,,,,,,,,,,,,,,,,198796,18,2022-01-28_19h34.55.196,lexical_decision_task_DD,2021.2.3,Win32,59.89458553,,,,,,,,,,,0.6666,1,,,,,,,,,,,,,,m,1,0.6666,,,,,,,,-0.061111086,-0.133333352,0,0,0,,0,64,64,83,1,JUNGLE,LB,old,m,./images/JUNGLELB.png,,,,,,,,,,,,,,,,,,,,,,
,,,,,,,,,,,,,,,,,198796,18,2022-01-28_19h34.55.196,lexical_decision_task_DD,2021.2.3,Win32,59.89458553,,,,,,,,,,,0.6629,1,,,,,,,,,,,,,,z,1,0.6629,,,,,,,,-0.061111086,-0.133333352,0,0,0,,0,65,65,114,1,RIKES,C,old,z,./images/RIKES.png,,,,,,,,,,,,,,,,,,,,,,
,,,,,,,,,,,,,,,,,198796,18,2022-01-28_19h34.55.196,lexical_decision_task_DD,2021.2.3,Win32,59.89458553,,,,,,,,,,,0.7738,1,,,,,,,,,,,,,,m,1,0.7738,,,,,,,,-0.061111086,-0.133333352,0,0,0,,0,66,66,71,1,PIMPLE,LB,old,m,./images/PIMPLELB.png,,,,,,,,,,,,,,,,,,,,,,
,,,,,,,,,,,,,,,,,198796,18,2022-01-28_19h34.55.196,lexical_decision_task_DD,2021.2.3,Win32,59.89458553,,,,,,,,,,,0.9904,1,,,,,,,,,,,,,,m,1,0.9904,,,,,,,,-0.061111086,-0.133333352,0,0,0,,0,67,67,67,1,SAILOR,HB,old,m,./images/SAILORHB.png,,,,,,,,,,,,,,,,,,,,,,
,,,,,,,,,,,,,,,,,198796,18,2022-01-28_19h34.55.196,lexical_decision_task_DD,2021.2.3,Win32,59.89458553,,,,,,,,,,,0.8096,1,,,,,,,,,,,,,,m,1,0.8096,,,,,,,,-0.061111086,-0.133333352,0,0,0,,0,68,68,29,1,CRUMB,LB,old,m,./images/CRUMBLB.png,,,,,,,,,,,,,,,,,,,,,,
,,,,,,,,,,,,,,,,,198796,18,2022-01-28_19h34.55.196,lexical_decision_task_DD,2021.2.3,Win32,59.89458553,,,,,,,,,,,0.654,1,,,,,,,,,,,,,,m,1,0.654,,,,,,,,-0.061111086,-0.133333352,0,0,0,,0,69,69,1,1,PLANK,HB,old,m,./images/PLANKHB.png,,,,,,,,,,,,,,,,,,,,,,
,,,,,,,,,,,,,,,,,198796,18,2022-01-28_19h34.55.196,lexical_decision_task_DD,2021.2.3,Win32,59.89458553,,,,,,,,,,,0.8641,1,,,,,,,,,,,,,,z,1,0.8641,,,,,,,,-0.061111086,-0.133333352,0,0,0,,0,70,70,127,1,NINDY,HB,old,z,./images/NINDYHB.png,,,,,,,,,,,,,,,,,,,,,,
,,,,,,,,,,,,,,,,,198796,18,2022-01-28_19h34.55.196,lexical_decision_task_DD,2021.2.3,Win32,59.89458553,,,,,,,,,,,1.1003,1,,,,,,,,,,,,,,z,1,1.1003,,,,,,,,-0.061111086,-0.133333352,0,0,0,,0,71,71,145,1,LAMEL,HB,old,z,./images/LAMELHB.png,,,,,,,,,,,,,,,,,,,,,,
,,,,,,,,,,,,,,,,,198796,18,2022-01-28_19h34.55.196,lexical_decision_task_DD,2021.2.3,Win32,59.89458553,,,,,,,,,,,0.839,0,,,,,,,,,,,,,,z,0,0.839,,,,,,,,-0.061111086,-0.133333352,0,0,0,,0,72,72,16,1,PENCE,HB,old,m,./images/PENCEHB.png,,,,,,,,,,,,,,,,,,,,,,
,,,,,,,,,,,,,,,,,198796,18,2022-01-28_19h34.55.196,lexical_decision_task_DD,2021.2.3,Win32,59.89458553,,,,,,,,,,,0.8896,1,,,,,,,,,,,,,,z,1,0.8896,,,,,,,,-0.061111086,-0.133333352,0,0,0,,0,73,73,126,1,GUELS,C,old,z,./images/GUELS.png,,,,,,,,,,,,,,,,,,,,,,
,,,,,,,,,,,,,,,,,198796,18,2022-01-28_19h34.55.196,lexical_decision_task_DD,2021.2.3,Win32,59.89458553,,,,,,,,,,,0.6296,1,,,,,,,,,,,,,,m,1,0.6296,,,,,,,,-0.061111086,-0.133333352,0,0,0,,0,74,74,26,1,SMOKER,LB,old,m,./images/SMOKERLB.png,,,,,,,,,,,,,,,,,,,,,,
,,,,,,,,,,,,,,,,,198796,18,2022-01-28_19h34.55.196,lexical_decision_task_DD,2021.2.3,Win32,59.89458553,,,,,,,,,,,0.5761,1,,,,,,,,,,,,,,m,1,0.5761,,,,,,,,-0.061111086,-0.133333352,0,0,0,,0,75,75,24,1,SCREW,C,old,m,./images/SCREW.png,,,,,,,,,,,,,,,,,,,,,,
,,,,,,,,,,,,,,,,,198796,18,2022-01-28_19h34.55.196,lexical_decision_task_DD,2021.2.3,Win32,59.89458553,,,,,,,,,,,0.902,1,,,,,,,,,,,,,,m,1,0.902,,,,,,,,-0.061111086,-0.133333352,0,0,0,,0,76,76,55,1,MUFFIN,HB,old,m,./images/MUFFINHB.png,,,,,,,,,,,,,,,,,,,,,,
,,,,,,,,,,,,,,,,,198796,18,2022-01-28_19h34.55.196,lexical_decision_task_DD,2021.2.3,Win32,59.89458553,,,,,,,,,,,0.7203,1,,,,,,,,,,,,,,z,1,0.7203,,,,,,,,-0.061111086,-0.133333352,0,0,0,,0,77,77,140,1,DOVET,LB,old,z,./images/DOVETLB.png,,,,,,,,,,,,,,,,,,,,,,
,,,,,,,,,,,,,,,,,198796,18,2022-01-28_19h34.55.196,lexical_decision_task_DD,2021.2.3,Win32,59.89458553,,,,,,,,,,,0.8409,1,,,,,,,,,,,,,,z,1,0.8409,,,,,,,,-0.061111086,-0.133333352,0,0,0,,0,78,78,130,1,CRILL,HB,old,z,./images/CRILLHB.png,,,,,,,,,,,,,,,,,,,,,,
,,,,,,,,,,,,,,,,,198796,18,2022-01-28_19h34.55.196,lexical_decision_task_DD,2021.2.3,Win32,59.89458553,,,,,,,,,,,0.7,1,,,,,,,,,,,,,,z,1,0.7,,,,,,,,-0.061111086,-0.133333352,0,0,0,,0,79,79,128,1,GRIFT,LB,old,z,./images/GRIFTLB.png,,,,,,,,,,,,,,,,,,,,,,
,,,,,,,,,,,,,,,,,198796,18,2022-01-28_19h34.55.196,lexical_decision_task_DD,2021.2.3,Win32,59.89458553,,,,,,,,,,,0.6959,1,,,,,,,,,,,,,,m,1,0.6959,,,,,,,,-0.061111086,-0.133333352,0,0,0,,0,80,80,4,1,MUSCLE,HB,old,m,./images/MUSCLEHB.png,,,,,,,,,,,,,,,,,,,,,,
,,,,,,,,,,,,,,,,,198796,18,2022-01-28_19h34.55.196,lexical_decision_task_DD,2021.2.3,Win32,59.89458553,,,,,,,,,,,0.8833,1,,,,,,,,,,,,,,z,1,0.8833,,,,,,,,-0.061111086,-0.133333352,0,0,0,,0,81,81,156,1,HIXES,C,old,z,./images/HIXES.png,,,,,,,,,,,,,,,,,,,,,,
,,,,,,,,,,,,,,,,,198796,18,2022-01-28_19h34.55.196,lexical_decision_task_DD,2021.2.3,Win32,59.89458553,,,,,,,,,,,0.7926,1,,,,,,,,,,,,,,z,1,0.7926,,,,,,,,-0.061111086,-0.133333352,0,0,0,,0,82,82,135,1,JOODY,C,old,z,./images/JOODY.png,,,,,,,,,,,,,,,,,,,,,,
,,,,,,,,,,,,,,,,,198796,18,2022-01-28_19h34.55.196,lexical_decision_task_DD,2021.2.3,Win32,59.89458553,,,,,,,,,,,0.8351,1,,,,,,,,,,,,,,m,1,0.8351,,,,,,,,-0.061111086,-0.133333352,0,0,0,space,0,83,83,65,1,FARMER,LB,old,m,./images/FARMERLB.png,2.2844,,,,,,,,,,,,,,,,,,,,,
,,,,,,,,,,,,,,,,,198796,18,2022-01-28_19h34.55.196,lexical_decision_task_DD,2021.2.3,Win32,59.89458553,,,,,,,,,,,0.7208,1,,,,,,,,,,,,,,m,1,0.7208,,,,,,,,-0.061111086,-0.133333352,0,0,0,,0,84,84,25,1,WRIST,HB,old,m,./images/WRISTHB.png,,,,,,,,,,,,,,,,,,,,,,
,,,,,,,,,,,,,,,,,198796,18,2022-01-28_19h34.55.196,lexical_decision_task_DD,2021.2.3,Win32,59.89458553,,,,,,,,,,,0.684,1,,,,,,,,,,,,,,z,1,0.684,,,,,,,,-0.061111086,-0.133333352,0,0,0,,0,85,85,132,1,SCIFF,C,old,z,./images/SCIFF.png,,,,,,,,,,,,,,,,,,,,,,
,,,,,,,,,,,,,,,,,198796,18,2022-01-28_19h34.55.196,lexical_decision_task_DD,2021.2.3,Win32,59.89458553,,,,,,,,,,,0.7434,1,,,,,,,,,,,,,,m,1,0.7434,,,,,,,,-0.061111086,-0.133333352,0,0,0,,0,86,86,51,1,ONION,C,old,m,./images/ONION.png,,,,,,,,,,,,,,,,,,,,,,
,,,,,,,,,,,,,,,,,198796,18,2022-01-28_19h34.55.196,lexical_decision_task_DD,2021.2.3,Win32,59.89458553,,,,,,,,,,,0.607,0,,,,,,,,,,,,,,m,0,0.607,,,,,,,,-0.061111086,-0.133333352,0,0,0,,0,87,87,164,1,SGREW,LB,old,z,./images/SGREWLB.png,,,,,,,,,,,,,,,,,,,,,,
,,,,,,,,,,,,,,,,,198796,18,2022-01-28_19h34.55.196,lexical_decision_task_DD,2021.2.3,Win32,59.89458553,,,,,,,,,,,0.7792,1,,,,,,,,,,,,,,m,1,0.7792,,,,,,,,-0.061111086,-0.133333352,0,0,0,,0,88,88,14,1,PICKLE,LB,old,m,./images/PICKLELB.png,,,,,,,,,,,,,,,,,,,,,,
,,,,,,,,,,,,,,,,,198796,18,2022-01-28_19h34.55.196,lexical_decision_task_DD,2021.2.3,Win32,59.89458553,,,,,,,,,,,0.6904,1,,,,,,,,,,,,,,m,1,0.6904,,,,,,,,-0.061111086,-0.133333352,0,0,0,,0,89,89,42,1,FOLDER,C,old,m,./images/FOLDER.png,,,,,,,,,,,,,,,,,,,,,,
,,,,,,,,,,,,,,,,,198796,18,2022-01-28_19h34.55.196,lexical_decision_task_DD,2021.2.3,Win32,59.89458553,,,,,,,,,,,0.876,1,,,,,,,,,,,,,,z,1,0.876,,,,,,,,-0.061111086,-0.133333352,0,0,0,,0,90,90,110,1,CRUNK,LB,old,z,./images/CRUNKLB.png,,,,,,,,,,,,,,,,,,,,,,
,,,,,,,,,,,,,,,,,198796,18,2022-01-28_19h34.55.196,lexical_decision_task_DD,2021.2.3,Win32,59.89458553,,,,,,,,,,,0.6133,1,,,,,,,,,,,,,,z,1,0.6133,,,,,,,,-0.061111086,-0.133333352,0,0,0,,0,91,91,137,1,JOOST,LB,old,z,./images/JOOSTLB.png,,,,,,,,,,,,,,,,,,,,,,
,,,,,,,,,,,,,,,,,198796,18,2022-01-28_19h34.55.196,lexical_decision_task_DD,2021.2.3,Win32,59.89458553,,,,,,,,,,,0.6259,1,,,,,,,,,,,,,,z,1,0.6259,,,,,,,,-0.061111086,-0.133333352,0,0,0,,0,92,92,102,1,DULLE,C,old,z,./images/DULLE.png,,,,,,,,,,,,,,,,,,,,,,
,,,,,,,,,,,,,,,,,198796,18,2022-01-28_19h34.55.196,lexical_decision_task_DD,2021.2.3,Win32,59.89458553,,,,,,,,,,,0.7341,1,,,,,,,,,,,,,,z,1,0.7341,,,,,,,,-0.061111086,-0.133333352,0,0,0,,0,93,93,92,1,PAIMS,LB,old,z,./images/PAIMSLB.png,,,,,,,,,,,,,,,,,,,,,,
,,,,,,,,,,,,,,,,,198796,18,2022-01-28_19h34.55.196,lexical_decision_task_DD,2021.2.3,Win32,59.89458553,,,,,,,,,,,0.6955,1,,,,,,,,,,,,,,m,1,0.6955,,,,,,,,-0.061111086,-0.133333352,0,0,0,,0,94,94,38,1,LADDER,LB,old,m,./images/LADDERLB.png,,,,,,,,,,,,,,,,,,,,,,
,,,,,,,,,,,,,,,,,198796,18,2022-01-28_19h34.55.196,lexical_decision_task_DD,2021.2.3,Win32,59.89458553,,,,,,,,,,,1.1341,1,,,,,,,,,,,,,,m,1,1.1341,,,,,,,,-0.061111086,-0.133333352,0,0,0,,0,95,95,54,1,TRIPOD,C,old,m,./images/TRIPOD.png,,,,,,,,,,,,,,,,,,,,,,
,,,,,,,,,,,,,,,,,198796,18,2022-01-28_19h34.55.196,lexical_decision_task_DD,2021.2.3,Win32,59.89458553,,,,,,,,,,,0.596,1,,,,,,,,,,,,,,m,1,0.596,,,,,,,,-0.061111086,-0.133333352,0,0,0,,0,96,96,63,1,MIRROR,C,old,m,./images/MIRROR.png,,,,,,,,,,,,,,,,,,,,,,
,,,,,,,,,,,,,,,,,198796,18,2022-01-28_19h34.55.196,lexical_decision_task_DD,2021.2.3,Win32,59.89458553,,,,,,,,,,,0.7006,0,,,,,,,,,,,,,,z,0,0.7006,,,,,,,,-0.061111086,-0.133333352,0,0,0,,0,97,97,53,1,CARPET,LB,old,m,./images/CARPETLB.png,,,,,,,,,,,,,,,,,,,,,,
,,,,,,,,,,,,,,,,,198796,18,2022-01-28_19h34.55.196,lexical_decision_task_DD,2021.2.3,Win32,59.89458553,,,,,,,,,,,1.5426,0,,,,,,,,,,,,,,z,0,1.5426,,,,,,,,-0.061111086,-0.133333352,0,0,0,,0,98,98,28,1,FALCON,HB,old,m,./images/FALCONHB.png,,,,,,,,,,,,,,,,,,,,,,
,,,,,,,,,,,,,,,,,198796,18,2022-01-28_19h34.55.196,lexical_decision_task_DD,2021.2.3,Win32,59.89458553,,,,,,,,,,,0.7015,1,,,,,,,,,,,,,,z,1,0.7015,,,,,,,,-0.061111086,-0.133333352,0,0,0,,0,99,99,161,1,BLAPS,LB,old,z,./images/BLAPSLB.png,,,,,,,,,,,,,,,,,,,,,,
,,,,,,,,,,,,,,,,,198796,18,2022-01-28_19h34.55.196,lexical_decision_task_DD,2021.2.3,Win32,59.89458553,,,,,,,,,,,0.6507,1,,,,,,,,,,,,,,m,1,0.6507,,,,,,,,-0.061111086,-0.133333352,0,0,0,,0,100,100,12,1,SHORE,C,old,m,./images/SHORE.png,,,,,,,,,,,,,,,,,,,,,,
,,,,,,,,,,,,,,,,,198796,18,2022-01-28_19h34.55.196,lexical_decision_task_DD,2021.2.3,Win32,59.89458553,,,,,,,,,,,0.6028,0,,,,,,,,,,,,,,z,0,0.6028,,,,,,,,-0.061111086,-0.133333352,0,0,0,,0,101,101,30,1,STORM,C,old,m,./images/STORM.png,,,,,,,,,,,,,,,,,,,,,,
,,,,,,,,,,,,,,,,,198796,18,2022-01-28_19h34.55.196,lexical_decision_task_DD,2021.2.3,Win32,59.89458553,,,,,,,,,,,1.1335,1,,,,,,,,,,,,,,m,1,1.1335,,,,,,,,-0.061111086,-0.133333352,0,0,0,,0,102,102,73,1,SNACK,HB,old,m,./images/SNACKHB.png,,,,,,,,,,,,,,,,,,,,,,
,,,,,,,,,,,,,,,,,198796,18,2022-01-28_19h34.55.196,lexical_decision_task_DD,2021.2.3,Win32,59.89458553,,,,,,,,,,,0.6876,1,,,,,,,,,,,,,,z,1,0.6876,,,,,,,,-0.061111086,-0.133333352,0,0,0,,0,103,103,111,1,HOSSE,C,old,z,./images/HOSSE.png,,,,,,,,,,,,,,,,,,,,,,
,,,,,,,,,,,,,,,,,198796,18,2022-01-28_19h34.55.196,lexical_decision_task_DD,2021.2.3,Win32,59.89458553,,,,,,,,,,,0.6837,1,,,,,,,,,,,,,,m,1,0.6837,,,,,,,,-0.061111086,-0.133333352,0,0,0,,0,104,104,41,1,STRING,LB,old,m,./images/STRINGLB.png,,,,,,,,,,,,,,,,,,,,,,
,,,,,,,,,,,,,,,,,198796,18,2022-01-28_19h34.55.196,lexical_decision_task_DD,2021.2.3,Win32,59.89458553,,,,,,,,,,,1.0398,1,,,,,,,,,,,,,,m,1,1.0398,,,,,,,,-0.061111086,-0.133333352,0,0,0,,0,105,105,76,1,INFANT,HB,old,m,./images/INFANTHB.png,,,,,,,,,,,,,,,,,,,,,,
,,,,,,,,,,,,,,,,,198796,18,2022-01-28_19h34.55.196,lexical_decision_task_DD,2021.2.3,Win32,59.89458553,,,,,,,,,,,0.6528,0,,,,,,,,,,,,,,z,0,0.6528,,,,,,,,-0.061111086,-0.133333352,0,0,0,,0,106,106,80,1,WEASEL,LB,old,m,./images/WEASELLB.png,,,,,,,,,,,,,,,,,,,,,,
,,,,,,,,,,,,,,,,,198796,18,2022-01-28_19h34.55.196,lexical_decision_task_DD,2021.2.3,Win32,59.89458553,,,,,,,,,,,0.9196,1,,,,,,,,,,,,,,m,1,0.9196,,,,,,,,-0.061111086,-0.133333352,0,0,0,,0,107,107,62,1,PURSE,LB,old,m,./images/PURSELB.png,,,,,,,,,,,,,,,,,,,,,,
,,,,,,,,,,,,,,,,,198796,18,2022-01-28_19h34.55.196,lexical_decision_task_DD,2021.2.3,Win32,59.89458553,,,,,,,,,,,0.8071,1,,,,,,,,,,,,,,z,1,0.8071,,,,,,,,-0.061111086,-0.133333352,0,0,0,,0,108,108,91,1,SHENS,HB,old,z,./images/SHENSHB.png,,,,,,,,,,,,,,,,,,,,,,
,,,,,,,,,,,,,,,,,198796,18,2022-01-28_19h34.55.196,lexical_decision_task_DD,2021.2.3,Win32,59.89458553,,,,,,,,,,,1.1221,0,,,,,,,,,,,,,,z,0,1.1221,,,,,,,,-0.061111086,-0.133333352,0,0,0,,0,109,109,23,1,WALRUS,LB,old,m,./images/WALRUSLB.png,,,,,,,,,,,,,,,,,,,,,,
,,,,,,,,,,,,,,,,,198796,18,2022-01-28_19h34.55.196,lexical_decision_task_DD,2021.2.3,Win32,59.89458553,,,,,,,,,,,0.8084,1,,,,,,,,,,,,,,z,1,0.8084,,,,,,,,-0.061111086,-0.133333352,0,0,0,,0,110,110,153,1,CLUPS,C,old,z,./images/CLUPS.png,,,,,,,,,,,,,,,,,,,,,,
,,,,,,,,,,,,,,,,,198796,18,2022-01-28_19h34.55.196,lexical_decision_task_DD,2021.2.3,Win32,59.89458553,,,,,,,,,,,1.2343,1,,,,,,,,,,,,,,m,1,1.2343,,,,,,,,-0.061111086,-0.133333352,0,0,0,,0,111,111,22,1,MELON,HB,old,m,./images/MELONHB.png,,,,,,,,,,,,,,,,,,,,,,
,,,,,,,,,,,,,,,,,198796,18,2022-01-28_19h34.55.196,lexical_decision_task_DD,2021.2.3,Win32,59.89458553,,,,,,,,,,,0.5671,1,,,,,,,,,,,,,,m,1,0.5671,,,,,,,,-0.061111086,-0.133333352,0,0,0,,0,112,112,35,1,PEACH,LB,old,m,./images/PEACHLB.png,,,,,,,,,,,,,,,,,,,,,,
,,,,,,,,,,,,,,,,,198796,18,2022-01-28_19h34.55.196,lexical_decision_task_DD,2021.2.3,Win32,59.89458553,,,,,,,,,,,1.3173,0,,,,,,,,,,,,,,m,0,1.3173,,,,,,,,-0.061111086,-0.133333352,0,0,0,,0,113,113,148,1,JOMS,HB,old,z,./images/JOMSHB.png,,,,,,,,,,,,,,,,,,,,,,
,,,,,,,,,,,,,,,,,198796,18,2022-01-28_19h34.55.196,lexical_decision_task_DD,2021.2.3,Win32,59.89458553,,,,,,,,,,,0.6146,1,,,,,,,,,,,,,,z,1,0.6146,,,,,,,,-0.061111086,-0.133333352,0,0,0,,0,114,114,136,1,WERVE,HB,old,z,./images/WERVEHB.png,,,,,,,,,,,,,,,,,,,,,,
,,,,,,,,,,,,,,,,,198796,18,2022-01-28_19h34.55.196,lexical_decision_task_DD,2021.2.3,Win32,59.89458553,,,,,,,,,,,0.584,1,,,,,,,,,,,,,,m,1,0.584,,,,,,,,-0.061111086,-0.133333352,0,0,0,,0,115,115,36,1,THROAT,C,old,m,./images/THROAT.png,,,,,,,,,,,,,,,,,,,,,,
,,,,,,,,,,,,,,,,,198796,18,2022-01-28_19h34.55.196,lexical_decision_task_DD,2021.2.3,Win32,59.89458553,,,,,,,,,,,0.606,1,,,,,,,,,,,,,,m,1,0.606,,,,,,,,-0.061111086,-0.133333352,0,0,0,,0,116,116,5,1,PASTA,LB,old,m,./images/PASTALB.png,,,,,,,,,,,,,,,,,,,,,,
,,,,,,,,,,,,,,,,,198796,18,2022-01-28_19h34.55.196,lexical_decision_task_DD,2021.2.3,Win32,59.89458553,,,,,,,,,,,0.7559,1,,,,,,,,,,,,,,z,1,0.7559,,,,,,,,-0.061111086,-0.133333352,0,0,0,,0,117,117,105,1,MOKER,C,old,z,./images/MOKER.png,,,,,,,,,,,,,,,,,,,,,,
,,,,,,,,,,,,,,,,,198796,18,2022-01-28_19h34.55.196,lexical_decision_task_DD,2021.2.3,Win32,59.89458553,,,,,,,,,,,0.5626,1,,,,,,,,,,,,,,m,1,0.5626,,,,,,,,-0.061111086,-0.133333352,0,0,0,,0,118,118,60,1,TWINS,C,old,m,./images/TWINS.png,,,,,,,,,,,,,,,,,,,,,,
,,,,,,,,,,,,,,,,,198796,18,2022-01-28_19h34.55.196,lexical_decision_task_DD,2021.2.3,Win32,59.89458553,,,,,,,,,,,0.795,1,,,,,,,,,,,,,,z,1,0.795,,,,,,,,-0.061111086,-0.133333352,0,0,0,,0,119,119,155,1,CANGY,LB,old,z,./images/CANGYLB.png,,,,,,,,,,,,,,,,,,,,,,
,,,,,,,,,,,,,,,,,198796,18,2022-01-28_19h34.55.196,lexical_decision_task_DD,2021.2.3,Win32,59.89458553,,,,,,,,,,,0.6335,1,,,,,,,,,,,,,,z,1,0.6335,,,,,,,,-0.061111086,-0.133333352,0,0,0,,0,120,120,123,1,SEDGE,C,old,z,./images/SEDGE.png,,,,,,,,,,,,,,,,,,,,,,
,,,,,,,,,,,,,,,,,198796,18,2022-01-28_19h34.55.196,lexical_decision_task_DD,2021.2.3,Win32,59.89458553,,,,,,,,,,,0.7892,1,,,,,,,,,,,,,,z,1,0.7892,,,,,,,,-0.061111086,-0.133333352,0,0,0,,0,121,121,120,1,RINED,C,old,z,./images/RINED.png,,,,,,,,,,,,,,,,,,,,,,
,,,,,,,,,,,,,,,,,198796,18,2022-01-28_19h34.55.196,lexical_decision_task_DD,2021.2.3,Win32,59.89458553,,,,,,,,,,,1.0278,0,,,,,,,,,,,,,,z,0,1.0278,,,,,,,,-0.061111086,-0.133333352,0,0,0,,0,122,122,11,1,BONNET,LB,old,m,./images/BONNETLB.png,,,,,,,,,,,,,,,,,,,,,,
,,,,,,,,,,,,,,,,,198796,18,2022-01-28_19h34.55.196,lexical_decision_task_DD,2021.2.3,Win32,59.89458553,,,,,,,,,,,1.3337,0,,,,,,,,,,,,,,m,0,1.3337,,,,,,,,-0.061111086,-0.133333352,0,0,0,,0,123,123,152,1,FRAIN,LB,old,z,./images/FRAINLB.png,,,,,,,,,,,,,,,,,,,,,,
,,,,,,,,,,,,,,,,,198796,18,2022-01-28_19h34.55.196,lexical_decision_task_DD,2021.2.3,Win32,59.89458553,,,,,,,,,,,1.2004,1,,,,,,,,,,,,,,z,1,1.2004,,,,,,,,-0.061111086,-0.133333352,0,0,0,,0,124,124,154,1,THINT,HB,old,z,./images/THINTHB.png,,,,,,,,,,,,,,,,,,,,,,
,,,,,,,,,,,,,,,,,198796,18,2022-01-28_19h34.55.196,lexical_decision_task_DD,2021.2.3,Win32,59.89458553,,,,,,,,,,,1.1726,1,,,,,,,,,,,,,,m,1,1.1726,,,,,,,,-0.061111086,-0.133333352,0,0,0,space,0,125,125,18,1,JAGUAR,C,old,m,./images/JAGUAR.png,1.0362,,,,,,,,,,,,,,,,,,,,,
,,,,,,,,,,,,,,,,,198796,18,2022-01-28_19h34.55.196,lexical_decision_task_DD,2021.2.3,Win32,59.89458553,,,,,,,,,,,2.0247,1,,,,,,,,,,,,,,m,1,2.0247,,,,,,,,-0.061111086,-0.133333352,0,0,0,,0,126,126,2,1,BEARD,LB,old,m,./images/BEARDLB.png,,,,,,,,,,,,,,,,,,,,,,
,,,,,,,,,,,,,,,,,198796,18,2022-01-28_19h34.55.196,lexical_decision_task_DD,2021.2.3,Win32,59.89458553,,,,,,,,,,,1.0342,0,,,,,,,,,,,,,,m,0,1.0342,,,,,,,,-0.061111086,-0.133333352,0,0,0,,0,127,127,149,1,VEASE,LB,old,z,./images/VEASELB.png,,,,,,,,,,,,,,,,,,,,,,
,,,,,,,,,,,,,,,,,198796,18,2022-01-28_19h34.55.196,lexical_decision_task_DD,2021.2.3,Win32,59.89458553,,,,,,,,,,,0.8347,1,,,,,,,,,,,,,,z,1,0.8347,,,,,,,,-0.061111086,-0.133333352,0,0,0,,0,128,128,141,1,PLEET,C,old,z,./images/PLEET.png,,,,,,,,,,,,,,,,,,,,,,
,,,,,,,,,,,,,,,,,198796,18,2022-01-28_19h34.55.196,lexical_decision_task_DD,2021.2.3,Win32,59.89458553,,,,,,,,,,,0.8415,1,,,,,,,,,,,,,,m,1,0.8415,,,,,,,,-0.061111086,-0.133333352,0,0,0,,0,129,129,21,1,KIDNEY,C,old,m,./images/KIDNEY.png,,,,,,,,,,,,,,,,,,,,,,
,,,,,,,,,,,,,,,,,198796,18,2022-01-28_19h34.55.196,lexical_decision_task_DD,2021.2.3,Win32,59.89458553,,,,,,,,,,,1.4702,1,,,,,,,,,,,,,,m,1,1.4702,,,,,,,,-0.061111086,-0.133333352,0,0,0,,0,130,130,34,1,CANYON,HB,old,m,./images/CANYONHB.png,,,,,,,,,,,,,,,,,,,,,,
,,,,,,,,,,,,,,,,,198796,18,2022-01-28_19h34.55.196,lexical_decision_task_DD,2021.2.3,Win32,59.89458553,,,,,,,,,,,0.6392,1,,,,,,,,,,,,,,m,1,0.6392,,,,,,,,-0.061111086,-0.133333352,0,0,0,,0,131,131,0,1,TOMATO,C,old,m,./images/TOMATO.png,,,,,,,,,,,,,,,,,,,,,,
,,,,,,,,,,,,,,,,,198796,18,2022-01-28_19h34.55.196,lexical_decision_task_DD,2021.2.3,Win32,59.89458553,,,,,,,,,,,0.687,1,,,,,,,,,,,,,,m,1,0.687,,,,,,,,-0.061111086,-0.133333352,0,0,0,,0,132,132,47,1,BERRY,LB,old,m,./images/BERRYLB.png,,,,,,,,,,,,,,,,,,,,,,
,,,,,,,,,,,,,,,,,198796,18,2022-01-28_19h34.55.196,lexical_decision_task_DD,2021.2.3,Win32,59.89458553,,,,,,,,,,,0.7038,1,,,,,,,,,,,,,,z,1,0.7038,,,,,,,,-0.061111086,-0.133333352,0,0,0,,0,133,133,147,1,ZOLES,C,old,z,./images/ZOLES.png,,,,,,,,,,,,,,,,,,,,,,
,,,,,,,,,,,,,,,,,198796,18,2022-01-28_19h34.55.196,lexical_decision_task_DD,2021.2.3,Win32,59.89458553,,,,,,,,,,,0.606,1,,,,,,,,,,,,,,z,1,0.606,,,,,,,,-0.061111086,-0.133333352,0,0,0,,0,134,134,104,1,GITTY,LB,old,z,./images/GITTYLB.png,,,,,,,,,,,,,,,,,,,,,,
,,,,,,,,,,,,,,,,,198796,18,2022-01-28_19h34.55.196,lexical_decision_task_DD,2021.2.3,Win32,59.89458553,,,,,,,,,,,0.8506,0,,,,,,,,,,,,,,z,0,0.8506,,,,,,,,-0.061111086,-0.133333352,0,0,0,,0,135,135,74,1,CEMENT,LB,old,m,./images/CEMENTLB.png,,,,,,,,,,,,,,,,,,,,,,
,,,,,,,,,,,,,,,,,198796,18,2022-01-28_19h34.55.196,lexical_decision_task_DD,2021.2.3,Win32,59.89458553,,,,,,,,,,,1.1463,1,,,,,,,,,,,,,,z,1,1.1463,,,,,,,,-0.061111086,-0.133333352,0,0,0,,0,136,136,103,1,FLORT,HB,old,z,./images/FLORTHB.png,,,,,,,,,,,,,,,,,,,,,,
,,,,,,,,,,,,,,,,,198796,18,2022-01-28_19h34.55.196,lexical_decision_task_DD,2021.2.3,Win32,59.89458553,,,,,,,,,,,0.7516,1,,,,,,,,,,,,,,m,1,0.7516,,,,,,,,-0.061111086,-0.133333352,0,0,0,,0,137,137,48,1,SPORT,C,old,m,./images/SPORT.png,,,,,,,,,,,,,,,,,,,,,,
,,,,,,,,,,,,,,,,,198796,18,2022-01-28_19h34.55.196,lexical_decision_task_DD,2021.2.3,Win32,59.89458553,,,,,,,,,,,0.6504,1,,,,,,,,,,,,,,m,1,0.6504,,,,,,,,-0.061111086,-0.133333352,0,0,0,,0,138,138,33,1,MAGGOT,C,old,m,./images/MAGGOT.png,,,,,,,,,,,,,,,,,,,,,,
,,,,,,,,,,,,,,,,,198796,18,2022-01-28_19h34.55.196,lexical_decision_task_DD,2021.2.3,Win32,59.89458553,,,,,,,,,,,0.6006,1,,,,,,,,,,,,,,z,1,0.6006,,,,,,,,-0.061111086,-0.133333352,0,0,0,,0,139,139,86,1,AIFED,LB,old,z,./images/AIFEDLB.png,,,,,,,,,,,,,,,,,,,,,,
,,,,,,,,,,,,,,,,,198796,18,2022-01-28_19h34.55.196,lexical_decision_task_DD,2021.2.3,Win32,59.89458553,,,,,,,,,,,0.953,0,,,,,,,,,,,,,,z,0,0.953,,,,,,,,-0.061111086,-0.133333352,0,0,0,,0,140,140,8,1,TULIP,LB,old,m,./images/TULIPLB.png,,,,,,,,,,,,,,,,,,,,,,
,,,,,,,,,,,,,,,,,198796,18,2022-01-28_19h34.55.196,lexical_decision_task_DD,2021.2.3,Win32,59.89458553,,,,,,,,,,,0.9997,1,,,,,,,,,,,,,,z,1,0.9997,,,,,,,,-0.061111086,-0.133333352,0,0,0,,0,141,141,142,1,PLASK,HB,old,z,./images/PLASKHB.png,,,,,,,,,,,,,,,,,,,,,,
,,,,,,,,,,,,,,,,,198796,18,2022-01-28_19h34.55.196,lexical_decision_task_DD,2021.2.3,Win32,59.89458553,,,,,,,,,,,1.1955,0,,,,,,,,,,,,,,m,0,1.1955,,,,,,,,-0.061111086,-0.133333352,0,0,0,,0,142,142,115,1,MAWNS,HB,old,z,./images/MAWNSHB.png,,,,,,,,,,,,,,,,,,,,,,
,,,,,,,,,,,,,,,,,198796,18,2022-01-28_19h34.55.196,lexical_decision_task_DD,2021.2.3,Win32,59.89458553,,,,,,,,,,,1.2992,0,,,,,,,,,,,,,,z,0,1.2992,,,,,,,,-0.061111086,-0.133333352,0,0,0,,0,143,143,20,1,CRADLE,LB,old,m,./images/CRADLELB.png,,,,,,,,,,,,,,,,,,,,,,
,,,,,,,,,,,,,,,,,198796,18,2022-01-28_19h34.55.196,lexical_decision_task_DD,2021.2.3,Win32,59.89458553,,,,,,,,,,,1.0563,1,,,,,,,,,,,,,,z,1,1.0563,,,,,,,,-0.061111086,-0.133333352,0,0,0,,0,144,144,116,1,BALGY,LB,old,z,./images/BALGYLB.png,,,,,,,,,,,,,,,,,,,,,,
,,,,,,,,,,,,,,,,,198796,18,2022-01-28_19h34.55.196,lexical_decision_task_DD,2021.2.3,Win32,59.89458553,,,,,,,,,,,1.4462,0,,,,,,,,,,,,,,m,0,1.4462,,,,,,,,-0.061111086,-0.133333352,0,0,0,,0,145,145,97,1,CHIDS,HB,old,z,./images/CHIDSHB.png,,,,,,,,,,,,,,,,,,,,,,
,,,,,,,,,,,,,,,,,198796,18,2022-01-28_19h34.55.196,lexical_decision_task_DD,2021.2.3,Win32,59.89458553,,,,,,,,,,,0.82,1,,,,,,,,,,,,,,z,1,0.82,,,,,,,,-0.061111086,-0.133333352,0,0,0,,0,146,146,129,1,PRANS,C,old,z,./images/PRANS.png,,,,,,,,,,,,,,,,,,,,,,
,,,,,,,,,,,,,,,,,198796,18,2022-01-28_19h34.55.196,lexical_decision_task_DD,2021.2.3,Win32,59.89458553,,,,,,,,,,,0.8964,1,,,,,,,,,,,,,,z,1,0.8964,,,,,,,,-0.061111086,-0.133333352,0,0,0,,0,147,147,150,1,NOOLS,C,old,z,./images/NOOLS.png,,,,,,,,,,,,,,,,,,,,,,
,,,,,,,,,,,,,,,,,198796,18,2022-01-28_19h34.55.196,lexical_decision_task_DD,2021.2.3,Win32,59.89458553,,,,,,,,,,,0.8427,1,,,,,,,,,,,,,,m,1,0.8427,,,,,,,,-0.061111086,-0.133333352,0,0,0,,0,148,148,10,1,BELLY,HB,old,m,./images/BELLYHB.png,,,,,,,,,,,,,,,,,,,,,,
,,,,,,,,,,,,,,,,,198796,18,2022-01-28_19h34.55.196,lexical_decision_task_DD,2021.2.3,Win32,59.89458553,,,,,,,,,,,1.6133,1,,,,,,,,,,,,,,m,1,1.6133,,,,,,,,-0.061111086,-0.133333352,0,0,0,,0,149,149,43,1,MOSQUE,HB,old,m,./images/MOSQUEHB.png,,,,,,,,,,,,,,,,,,,,,,
,,,,,,,,,,,,,,,,,198796,18,2022-01-28_19h34.55.196,lexical_decision_task_DD,2021.2.3,Win32,59.89458553,,,,,,,,,,,0.8472,0,,,,,,,,,,,,,,z,0,0.8472,,,,,,,,-0.061111086,-0.133333352,0,0,0,,0,150,150,50,1,MALLET,LB,old,m,./images/MALLETLB.png,,,,,,,,,,,,,,,,,,,,,,
,,,,,,,,,,,,,,,,,198796,18,2022-01-28_19h34.55.196,lexical_decision_task_DD,2021.2.3,Win32,59.89458553,,,,,,,,,,,0.6802,1,,,,,,,,,,,,,,z,1,0.6802,,,,,,,,-0.061111086,-0.133333352,0,0,0,,0,151,151,99,1,BACKY,C,old,z,./images/BACKY.png,,,,,,,,,,,,,,,,,,,,,,
,,,,,,,,,,,,,,,,,198796,18,2022-01-28_19h34.55.196,lexical_decision_task_DD,2021.2.3,Win32,59.89458553,,,,,,,,,,,0.8241,1,,,,,,,,,,,,,,z,1,0.8241,,,,,,,,-0.061111086,-0.133333352,0,0,0,,0,152,152,113,1,LINEW,LB,old,z,./images/LINEWLB.png,,,,,,,,,,,,,,,,,,,,,,
,,,,,,,,,,,,,,,,,198796,18,2022-01-28_19h34.55.196,lexical_decision_task_DD,2021.2.3,Win32,59.89458553,,,,,,,,,,,1.0752,1,,,,,,,,,,,,,,z,1,1.0752,,,,,,,,-0.061111086,-0.133333352,0,0,0,,0,153,153,94,1,BLANS,HB,old,z,./images/BLANSHB.png,,,,,,,,,,,,,,,,,,,,,,
,,,,,,,,,,,,,,,,,198796,18,2022-01-28_19h34.55.196,lexical_decision_task_DD,2021.2.3,Win32,59.89458553,,,,,,,,,,,0.5003,1,,,,,,,,,,,,,,z,1,0.5003,,,,,,,,-0.061111086,-0.133333352,0,0,0,,0,154,154,89,1,DRIEK,LB,old,z,./images/DRIEKLB.png,,,,,,,,,,,,,,,,,,,,,,
,,,,,,,,,,,,,,,,,198796,18,2022-01-28_19h34.55.196,lexical_decision_task_DD,2021.2.3,Win32,59.89458553,,,,,,,,,,,0.8844,0,,,,,,,,,,,,,,z,0,0.8844,,,,,,,,-0.061111086,-0.133333352,0,0,0,,0,155,155,17,1,SKIING,LB,old,m,./images/SKIINGLB.png,,,,,,,,,,,,,,,,,,,,,,
,,,,,,,,,,,,,,,,,198796,18,2022-01-28_19h34.55.196,lexical_decision_task_DD,2021.2.3,Win32,59.89458553,,,,,,,,,,,0.7555,1,,,,,,,,,,,,,,z,1,0.7555,,,,,,,,-0.061111086,-0.133333352,0,0,0,,0,156,156,146,1,MOOST,LB,old,z,./images/MOOSTLB.png,,,,,,,,,,,,,,,,,,,,,,
,,,,,,,,,,,,,,,,,198796,18,2022-01-28_19h34.55.196,lexical_decision_task_DD,2021.2.3,Win32,59.89458553,,,,,,,,,,,0.7497,1,,,,,,,,,,,,,,z,1,0.7497,,,,,,,,-0.061111086,-0.133333352,0,0,0,,0,157,157,107,1,FASKS,LB,old,z,./images/FASKSLB.png,,,,,,,,,,,,,,,,,,,,,,
,,,,,,,,,,,,,,,,,198796,18,2022-01-28_19h34.55.196,lexical_decision_task_DD,2021.2.3,Win32,59.89458553,,,,,,,,,,,0.7332,1,,,,,,,,,,,,,,m,1,0.7332,,,,,,,,-0.061111086,-0.133333352,0,0,0,,0,158,158,68,1,TORCH,LB,old,m,./images/TORCHLB.png,,,,,,,,,,,,,,,,,,,,,,
,,,,,,,,,,,,,,,,,198796,18,2022-01-28_19h34.55.196,lexical_decision_task_DD,2021.2.3,Win32,59.89458553,,,,,,,,,,,1.0685,1,,,,,,,,,,,,,,z,1,1.0685,,,,,,,,-0.061111086,-0.133333352,0,0,0,,0,159,159,96,1,KEAMS,C,old,z,./images/KEAMS.png,,,,,,,,,,,,,,,,,,,,,,
,,,,,,,,,,,,,,,,,198796,18,2022-01-28_19h34.55.196,lexical_decision_task_DD,2021.2.3,Win32,59.89458553,,,,,,,,,,,1.2334,1,,,,,,,,,,,,,,m,1,1.2334,,,,,,,,-0.061111086,-0.133333352,0,0,0,,0,160,160,61,1,CANDLE,HB,old,m,./images/CANDLEHB.png,,,,,,,,,,,,,,,,,,,,,,
,,,,,,,,,,,,,,,,,198796,18,2022-01-28_19h34.55.196,lexical_decision_task_DD,2021.2.3,Win32,59.89458553,,,,,,,,,,,0.9451,1,,,,,,,,,,,,,,z,1,0.9451,,,,,,,,-0.061111086,-0.133333352,0,0,0,,0,161,161,160,1,VEETS,HB,old,z,./images/VEETSHB.png,,,,,,,,,,,,,,,,,,,,,,
,,,,,,,,,,,,,,,,,198796,18,2022-01-28_19h34.55.196,lexical_decision_task_DD,2021.2.3,Win32,59.89458553,,,,,,,,,,,0.9473,1,,,,,,,,,,,,,,m,1,0.9473,,,,,,,,-0.061111086,-0.133333352,0,0,0,,0,162,162,75,1,GRAIN,C,old,m,./images/GRAIN.png,,,,,,,,,,,,,,,,,,,,,,
,,,,,,,,,,,,,,,,,198796,18,2022-01-28_19h34.55.196,lexical_decision_task_DD,2021.2.3,Win32,59.89458553,,,,,,,,,,,0.8922,1,,,,,,,,,,,,,,z,1,0.8922,,,,,,,,-0.061111086,-0.133333352,0,0,0,,0,163,163,101,1,GLEET,LB,old,z,./images/GLEETLB.png,,,,,,,,,,,,,,,,,,,,,,
,,,,,,,,,,,,,,,,,198796,18,2022-01-28_19h34.55.196,lexical_decision_task_DD,2021.2.3,Win32,59.89458553,,,,,,,,,,,0.9838,1,,,,,,,,,,,,,,m,1,0.9838,,,,,,,,-0.061111086,-0.133333352,0,0,0,,0,164,164,40,1,SWING,HB,old,m,./images/SWINGHB.png,,,,,,,,,,,,,,,,,,,,,,
,,,,,,,,,,,,,,,,,198796,18,2022-01-28_19h34.55.196,lexical_decision_task_DD,2021.2.3,Win32,59.89458553,,,,,,,,,,,0.7374,1,,,,,,,,,,,,,,z,1,0.7374,,,,,,,,-0.061111086,-0.133333352,0,0,0,,0,165,165,98,1,BAMPS,LB,old,z,./images/BAMPSLB.png,,,,,,,,,,,,,,,,,,,,,,
,,,,,,,,,,,,,,,,,198796,18,2022-01-28_19h34.55.196,lexical_decision_task_DD,2021.2.3,Win32,59.89458553,,,,,,,,,,,1.8615,0,,,,,,,,,,,,,,m,0,1.8615,,,,,,,,-0.061111086,-0.133333352,0,0,0,,0,166,166,88,1,GLUSH,HB,old,z,./images/GLUSHHB.png,,,,,,,,,,,,,,,,,,,,,,
,,,,,,,,,,,,,,,,,198796,18,2022-01-28_19h34.55.196,lexical_decision_task_DD,2021.2.3,Win32,59.89458553,,,,,,,,,,,1.3636,0,,,,,,,,,,,,,,m,0,1.3636,,,,,,,,-0.061111086,-0.133333352,0,0,0,,0,167,167,151,1,TINKY,HB,old,z,./images/TINKYHB.png,,,,,,,,,,,,,,,,,,,,,,
space,36.246,-0.061111086,-0.133333352,0,0,0,,,,,,1,test,"In the next phase you will be presented with the words from the the first phase. Your job is to decide whether you remember seeing the word or not. If you remember seeing the word press ""old"" or type ""m"". If you do not remember seeing the word press ""new"" or type ""z"". Please press the space bar or click on continue to begin. ",,,198796,18,2022-01-28_19h34.55.196,lexical_decision_task_DD,2021.2.3,Win32,59.89458553,,,,,,,,,,,,,,,,,,,,,,,,,,,,,,,,,,,,,,,,,,,,,,,,,,,,,0,0,0,0,1,,,,,,,,,,,,,,,,
space,0.8388,-0.061111086,-0.133333352,0,0,0,,,,,,1,test,"In the next phase you will be presented with the words from the the first phase. Your job is to decide whether you remember seeing the word or not. If you remember seeing the word press ""old"" or type ""m"". If you do not remember seeing the word press ""new"" or type ""z"". Please press the space bar or click on continue to begin. ",,,198796,18,2022-01-28_19h34.55.196,lexical_decision_task_DD,2021.2.3,Win32,59.89458553,,,,,,,,,,,,,,,,,,,,,,,,,,,,,,,,,,,,,,,,,,,,,,,,,,,,,1,0,1,0,1,,,,,,,,,,,,,,,,
,,-0.027777752,-0.400000027,1,0,0,,,,,,1,test,"In the next phase you will be presented with the words from the the first phase. Your job is to decide whether you remember seeing the word or not. If you remember seeing the word press ""old"" or type ""m"". If you do not remember seeing the word press ""new"" or type ""z"". Please press the space bar or click on continue to begin. ",,,198796,18,2022-01-28_19h34.55.196,lexical_decision_task_DD,2021.2.3,Win32,59.89458553,,,,,,,,,,,,,,,,,,,,,,,,,,,,,,,,,,,,,,,,,,,,,,,,,,,,,2,0,2,0,1,instr_done_button,,,,,,,,,,,,,,,
space,1.911,-0.027777752,-0.400000027,0,0,0,,,,,,1,test,"In the next phase you will be presented with the words from the the first phase. Your job is to decide whether you remember seeing the word or not. If you remember seeing the word press ""old"" or type ""m"". If you do not remember seeing the word press ""new"" or type ""z"". Please press the space bar or click on continue to begin. ",,,198796,18,2022-01-28_19h34.55.196,lexical_decision_task_DD,2021.2.3,Win32,59.89458553,,,,,,,,,,,,,,,,,,,,,,,,,,,,,,,,,,,,,,,,,,,,,,,,,,,,,3,0,3,0,1,,,,,,,,,,,,,,,,
space,0.305,-0.027777752,-0.400000027,0,0,0,,,,,,1,test,"In the next phase you will be presented with the words from the the first phase. Your job is to decide whether you remember seeing the word or not. If you remember seeing the word press ""old"" or type ""m"". If you do not remember seeing the word press ""new"" or type ""z"". Please press the space bar or click on continue to begin. ",,,198796,18,2022-01-28_19h34.55.196,lexical_decision_task_DD,2021.2.3,Win32,59.89458553,,,,,,,,,,,,,,,,,,,,,,,,,,,,,,,,,,,,,,,,,,,,,,,,,,,,,4,0,4,0,1,,,,,,,,,,,,,,,,
,,,,,,,,,,,,,,,,,198796,18,2022-01-28_19h34.55.196,lexical_decision_task_DD,2021.2.3,Win32,59.89458553,,,,,,,,,,,1.9129,0,,,,,,,,,,,,,,,,,,,,,,,,-0.027777752,-0.400000027,0,0,0,,,,,,,GLOVE,HB,z,m,./images/GLOVEHB.png,,,,,,,,m,0,1.9129,,,,,,,,0,0,0,157,1
,,,,,,,,,,,,,,,,,198796,18,2022-01-28_19h34.55.196,lexical_decision_task_DD,2021.2.3,Win32,59.89458553,,,,,,,,,,,2.7613,1,,,,,,,,,,,,,,,,,,,,,,,,-0.027777752,-0.400000027,0,0,0,,,,,,,SNACK,HB,m,m,./images/SNACKHB.png,,,,,,,,m,1,2.7613,,,,,,,,0,1,1,73,1
,,,,,,,,,,,,,,,,,198796,18,2022-01-28_19h34.55.196,lexical_decision_task_DD,2021.2.3,Win32,59.89458553,,,,,,,,,,,2.9708,0,,,,,,,,,,,,,,,,,,,,,,,,-0.027777752,-0.400000027,0,0,0,,,,,,,DANCER,C,z,m,./images/DANCER.png,,,,,,,,m,0,2.9708,,,,,,,,0,2,2,105,1
,,,,,,,,,,,,,,,,,198796,18,2022-01-28_19h34.55.196,lexical_decision_task_DD,2021.2.3,Win32,59.89458553,,,,,,,,,,,2.7492,0,,,,,,,,,,,,,,,,,,,,,,,,-0.027777752,-0.400000027,0,0,0,,,,,,,RULER,HB,z,m,./images/RULERHB.png,,,,,,,,m,0,2.7492,,,,,,,,0,3,3,163,1
,,,,,,,,,,,,,,,,,198796,18,2022-01-28_19h34.55.196,lexical_decision_task_DD,2021.2.3,Win32,59.89458553,,,,,,,,,,,1.0233,1,,,,,,,,,,,,,,,,,,,,,,,,-0.027777752,-0.400000027,0,0,0,,,,,,,SAUCE,C,z,m,./images/SAUCE.png,,,,,,,,z,1,1.0233,,,,,,,,0,4,4,135,1
,,,,,,,,,,,,,,,,,198796,18,2022-01-28_19h34.55.196,lexical_decision_task_DD,2021.2.3,Win32,59.89458553,,,,,,,,,,,3.3028,1,,,,,,,,,,,,,,,,,,,,,,,,-0.027777752,-0.400000027,0,0,0,,,,,,,MALLET,LB,m,m,./images/MALLETLB.png,,,,,,,,m,1,3.3028,,,,,,,,0,5,5,50,1
,,,,,,,,,,,,,,,,,198796,18,2022-01-28_19h34.55.196,lexical_decision_task_DD,2021.2.3,Win32,59.89458553,,,,,,,,,,,1.4665,1,,,,,,,,,,,,,,,,,,,,,,,,-0.027777752,-0.400000027,0,0,0,,,,,,,WHEEL,LB,z,m,./images/WHEELLB.png,,,,,,,,z,1,1.4665,,,,,,,,0,6,6,161,1
,,,,,,,,,,,,,,,,,198796,18,2022-01-28_19h34.55.196,lexical_decision_task_DD,2021.2.3,Win32,59.89458553,,,,,,,,,,,1.1236,1,,,,,,,,,,,,,,,,,,,,,,,,-0.027777752,-0.400000027,0,0,0,,,,,,,TOWEL,HB,z,m,./images/TOWELHB.png,,,,,,,,z,1,1.1236,,,,,,,,0,7,7,85,1
,,,,,,,,,,,,,,,,,198796,18,2022-01-28_19h34.55.196,lexical_decision_task_DD,2021.2.3,Win32,59.89458553,,,,,,,,,,,1.2861,1,,,,,,,,,,,,,,,,,,,,,,,,-0.027777752,-0.400000027,0,0,0,,,,,,,PISTOL,LB,z,m,./images/PISTOLLB.png,,,,,,,,z,1,1.2861,,,,,,,,0,8,8,113,1
,,,,,,,,,,,,,,,,,198796,18,2022-01-28_19h34.55.196,lexical_decision_task_DD,2021.2.3,Win32,59.89458553,,,,,,,,,,,1.0317,1,,,,,,,,,,,,,,,,,,,,,,,,-0.027777752,-0.400000027,0,0,0,,,,,,,MUMMY,HB,z,m,./images/MUMMYHB.png,,,,,,,,z,1,1.0317,,,,,,,,0,9,9,130,1
,,,,,,,,,,,,,,,,,198796,18,2022-01-28_19h34.55.196,lexical_decision_task_DD,2021.2.3,Win32,59.89458553,,,,,,,,,,,1.0407,0,,,,,,,,,,,,,,,,,,,,,,,,-0.027777752,-0.400000027,0,0,0,,,,,,,GARDEN,HB,z,m,./images/GARDENHB.png,,,,,,,,m,0,1.0407,,,,,,,,0,10,10,94,1
,,,,,,,,,,,,,,,,,198796,18,2022-01-28_19h34.55.196,lexical_decision_task_DD,2021.2.3,Win32,59.89458553,,,,,,,,,,,1.0864,0,,,,,,,,,,,,,,,,,,,,,,,,-0.027777752,-0.400000027,0,0,0,,,,,,,BRUSH,LB,z,m,./images/BRUSHLB.png,,,,,,,,m,0,1.0864,,,,,,,,0,11,11,143,1
,,,,,,,,,,,,,,,,,198796,18,2022-01-28_19h34.55.196,lexical_decision_task_DD,2021.2.3,Win32,59.89458553,,,,,,,,,,,1.7906,0,,,,,,,,,,,,,,,,,,,,,,,,-0.027777752,-0.400000027,0,0,0,,,,,,,FERRY,C,z,m,./images/FERRY.png,,,,,,,,m,0,1.7906,,,,,,,,0,12,12,141,1
,,,,,,,,,,,,,,,,,198796,18,2022-01-28_19h34.55.196,lexical_decision_task_DD,2021.2.3,Win32,59.89458553,,,,,,,,,,,1.1216,1,,,,,,,,,,,,,,,,,,,,,,,,-0.027777752,-0.400000027,0,0,0,,,,,,,CANYON,HB,m,m,./images/CANYONHB.png,,,,,,,,m,1,1.1216,,,,,,,,0,13,13,34,1
,,,,,,,,,,,,,,,,,198796,18,2022-01-28_19h34.55.196,lexical_decision_task_DD,2021.2.3,Win32,59.89458553,,,,,,,,,,,0.9756,1,,,,,,,,,,,,,,,,,,,,,,,,-0.027777752,-0.400000027,0,0,0,,,,,,,BABOON,HB,m,m,./images/BABOONHB.png,,,,,,,,m,1,0.9756,,,,,,,,0,14,14,58,1
,,,,,,,,,,,,,,,,,198796,18,2022-01-28_19h34.55.196,lexical_decision_task_DD,2021.2.3,Win32,59.89458553,,,,,,,,,,,0.9209,1,,,,,,,,,,,,,,,,,,,,,,,,-0.027777752,-0.400000027,0,0,0,,,,,,,DIVER,C,z,m,./images/DIVER.png,,,,,,,,z,1,0.9209,,,,,,,,0,15,15,93,1
,,,,,,,,,,,,,,,,,198796,18,2022-01-28_19h34.55.196,lexical_decision_task_DD,2021.2.3,Win32,59.89458553,,,,,,,,,,,0.964,1,,,,,,,,,,,,,,,,,,,,,,,,-0.027777752,-0.400000027,0,0,0,,,,,,,LLAMA,LB,z,m,./images/LLAMALB.png,,,,,,,,z,1,0.964,,,,,,,,0,16,16,119,1
,,,,,,,,,,,,,,,,,198796,18,2022-01-28_19h34.55.196,lexical_decision_task_DD,2021.2.3,Win32,59.89458553,,,,,,,,,,,1.4884,0,,,,,,,,,,,,,,,,,,,,,,,,-0.027777752,-0.400000027,0,0,0,,,,,,,CEMENT,LB,m,m,./images/CEMENTLB.png,,,,,,,,z,0,1.4884,,,,,,,,0,17,17,74,1
,,,,,,,,,,,,,,,,,198796,18,2022-01-28_19h34.55.196,lexical_decision_task_DD,2021.2.3,Win32,59.89458553,,,,,,,,,,,1.1449,1,,,,,,,,,,,,,,,,,,,,,,,,-0.027777752,-0.400000027,0,0,0,,,,,,,KIDNEY,C,m,m,./images/KIDNEY.png,,,,,,,,m,1,1.1449,,,,,,,,0,18,18,21,1
,,,,,,,,,,,,,,,,,198796,18,2022-01-28_19h34.55.196,lexical_decision_task_DD,2021.2.3,Win32,59.89458553,,,,,,,,,,,2.0659,0,,,,,,,,,,,,,,,,,,,,,,,,-0.027777752,-0.400000027,0,0,0,,,,,,,HEATER,LB,z,m,./images/HEATERLB.png,,,,,,,,m,0,2.0659,,,,,,,,0,19,19,140,1
,,,,,,,,,,,,,,,,,198796,18,2022-01-28_19h34.55.196,lexical_decision_task_DD,2021.2.3,Win32,59.89458553,,,,,,,,,,,1.0635,1,,,,,,,,,,,,,,,,,,,,,,,,-0.027777752,-0.400000027,0,0,0,,,,,,,PIMPLE,LB,m,m,./images/PIMPLELB.png,,,,,,,,m,1,1.0635,,,,,,,,0,20,20,71,1
,,,,,,,,,,,,,,,,,198796,18,2022-01-28_19h34.55.196,lexical_decision_task_DD,2021.2.3,Win32,59.89458553,,,,,,,,,,,0.7169,1,,,,,,,,,,,,,,,,,,,,,,,,-0.027777752,-0.400000027,0,0,0,,,,,,,SCREW,C,m,m,./images/SCREW.png,,,,,,,,m,1,0.7169,,,,,,,,0,21,21,24,1
,,,,,,,,,,,,,,,,,198796,18,2022-01-28_19h34.55.196,lexical_decision_task_DD,2021.2.3,Win32,59.89458553,,,,,,,,,,,1.1665,1,,,,,,,,,,,,,,,,,,,,,,,,-0.027777752,-0.400000027,0,0,0,,,,,,,CLIFF,LB,z,m,./images/CLIFFLB.png,,,,,,,,z,1,1.1665,,,,,,,,0,22,22,92,1
,,,,,,,,,,,,,,,,,198796,18,2022-01-28_19h34.55.196,lexical_decision_task_DD,2021.2.3,Win32,59.89458553,,,,,,,,,,,1.8124,1,,,,,,,,,,,,,,,,,,,,,,,,-0.027777752,-0.400000027,0,0,0,,,,,,,BASKET,LB,z,m,./images/BASKETLB.png,,,,,,,,z,1,1.8124,,,,,,,,0,23,23,128,1
,,,,,,,,,,,,,,,,,198796,18,2022-01-28_19h34.55.196,lexical_decision_task_DD,2021.2.3,Win32,59.89458553,,,,,,,,,,,0.8335,0,,,,,,,,,,,,,,,,,,,,,,,,-0.027777752,-0.400000027,0,0,0,,,,,,,MUSCLE,HB,m,m,./images/MUSCLEHB.png,,,,,,,,z,0,0.8335,,,,,,,,0,24,24,4,1
,,,,,,,,,,,,,,,,,198796,18,2022-01-28_19h34.55.196,lexical_decision_task_DD,2021.2.3,Win32,59.89458553,,,,,,,,,,,0.8437,1,,,,,,,,,,,,,,,,,,,,,,,,-0.027777752,-0.400000027,0,0,0,,,,,,,ARROW,C,z,m,./images/ARROW.png,,,,,,,,z,1,0.8437,,,,,,,,0,25,25,153,1
,,,,,,,,,,,,,,,,,198796,18,2022-01-28_19h34.55.196,lexical_decision_task_DD,2021.2.3,Win32,59.89458553,,,,,,,,,,,0.8948,1,,,,,,,,,,,,,,,,,,,,,,,,-0.027777752,-0.400000027,0,0,0,,,,,,,BUBBLE,LB,z,m,./images/BUBBLELB.png,,,,,,,,z,1,0.8948,,,,,,,,0,26,26,155,1
,,,,,,,,,,,,,,,,,198796,18,2022-01-28_19h34.55.196,lexical_decision_task_DD,2021.2.3,Win32,59.89458553,,,,,,,,,,,1.0803,0,,,,,,,,,,,,,,,,,,,,,,,,-0.027777752,-0.400000027,0,0,0,,,,,,,BEARD,LB,m,m,./images/BEARDLB.png,,,,,,,,z,0,1.0803,,,,,,,,0,27,27,2,1
,,,,,,,,,,,,,,,,,198796,18,2022-01-28_19h34.55.196,lexical_decision_task_DD,2021.2.3,Win32,59.89458553,,,,,,,,,,,1.11,1,,,,,,,,,,,,,,,,,,,,,,,,-0.027777752,-0.400000027,0,0,0,,,,,,,TULIP,LB,m,m,./images/TULIPLB.png,,,,,,,,m,1,1.11,,,,,,,,0,28,28,8,1
,,,,,,,,,,,,,,,,,198796,18,2022-01-28_19h34.55.196,lexical_decision_task_DD,2021.2.3,Win32,59.89458553,,,,,,,,,,,1.5775,1,,,,,,,,,,,,,,,,,,,,,,,,-0.027777752,-0.400000027,0,0,0,,,,,,,SHELF,C,m,m,./images/SHELF.png,,,,,,,,m,1,1.5775,,,,,,,,0,29,29,39,1
,,,,,,,,,,,,,,,,,198796,18,2022-01-28_19h34.55.196,lexical_decision_task_DD,2021.2.3,Win32,59.89458553,,,,,,,,,,,0.7953,1,,,,,,,,,,,,,,,,,,,,,,,,-0.027777752,-0.400000027,0,0,0,,,,,,,POODLE,C,m,m,./images/POODLE.png,,,,,,,,m,1,0.7953,,,,,,,,0,30,30,81,1
,,,,,,,,,,,,,,,,,198796,18,2022-01-28_19h34.55.196,lexical_decision_task_DD,2021.2.3,Win32,59.89458553,,,,,,,,,,,2.5666,0,,,,,,,,,,,,,,,,,,,,,,,,-0.027777752,-0.400000027,0,0,0,,,,,,,STATUE,C,z,m,./images/STATUE.png,,,,,,,,m,0,2.5666,,,,,,,,0,31,31,150,1
,,,,,,,,,,,,,,,,,198796,18,2022-01-28_19h34.55.196,lexical_decision_task_DD,2021.2.3,Win32,59.89458553,,,,,,,,,,,1.444,1,,,,,,,,,,,,,,,,,,,,,,,,-0.027777752,-0.400000027,0,0,0,,,,,,,LITTER,C,m,m,./images/LITTER.png,,,,,,,,m,1,1.444,,,,,,,,0,32,32,78,1
,,,,,,,,,,,,,,,,,198796,18,2022-01-28_19h34.55.196,lexical_decision_task_DD,2021.2.3,Win32,59.89458553,,,,,,,,,,,0.8572,1,,,,,,,,,,,,,,,,,,,,,,,,-0.027777752,-0.400000027,0,0,0,,,,,,,PACKET,LB,m,m,./images/PACKETLB.png,,,,,,,,m,1,0.8572,,,,,,,,0,33,33,56,1
,,,,,,,,,,,,,,,,,198796,18,2022-01-28_19h34.55.196,lexical_decision_task_DD,2021.2.3,Win32,59.89458553,,,,,,,,,,,1.7636,1,,,,,,,,,,,,,,,,,,,,,,,,-0.027777752,-0.400000027,0,0,0,,,,,,,TIGER,HB,z,m,./images/TIGERHB.png,,,,,,,,z,1,1.7636,,,,,,,,0,34,34,121,1
,,,,,,,,,,,,,,,,,198796,18,2022-01-28_19h34.55.196,lexical_decision_task_DD,2021.2.3,Win32,59.89458553,,,,,,,,,,,0.9065,1,,,,,,,,,,,,,,,,,,,,,,,,-0.027777752,-0.400000027,0,0,0,,,,,,,CASINO,HB,z,m,./images/CASINOHB.png,,,,,,,,z,1,0.9065,,,,,,,,0,35,35,112,1
,,,,,,,,,,,,,,,,,198796,18,2022-01-28_19h34.55.196,lexical_decision_task_DD,2021.2.3,Win32,59.89458553,,,,,,,,,,,1.4004,1,,,,,,,,,,,,,,,,,,,,,,,,-0.027777752,-0.400000027,0,0,0,,,,,,,SMOKER,LB,m,m,./images/SMOKERLB.png,,,,,,,,m,1,1.4004,,,,,,,,0,36,36,26,1
,,,,,,,,,,,,,,,,,198796,18,2022-01-28_19h34.55.196,lexical_decision_task_DD,2021.2.3,Win32,59.89458553,,,,,,,,,,,1.4152,0,,,,,,,,,,,,,,,,,,,,,,,,-0.027777752,-0.400000027,0,0,0,,,,,,,CLOTH,LB,z,m,./images/CLOTHLB.png,,,,,,,,m,0,1.4152,,,,,,,,0,37,37,107,1
,,,,,,,,,,,,,,,,,198796,18,2022-01-28_19h34.55.196,lexical_decision_task_DD,2021.2.3,Win32,59.89458553,,,,,,,,,,,1.0778,1,,,,,,,,,,,,,,,,,,,,,,,,-0.027777752,-0.400000027,0,0,0,,,,,,,BROOM,C,z,m,./images/BROOM.png,,,,,,,,z,1,1.0778,,,,,,,,0,38,38,162,1
,,,,,,,,,,,,,,,,,198796,18,2022-01-28_19h34.55.196,lexical_decision_task_DD,2021.2.3,Win32,59.89458553,,,,,,,,,,,1.3876,1,,,,,,,,,,,,,,,,,,,,,,,,-0.027777752,-0.400000027,0,0,0,,,,,,,COOKER,C,m,m,./images/COOKER.png,,,,,,,,m,1,1.3876,,,,,,,,0,39,39,69,1
,,,,,,,,,,,,,,,,,198796,18,2022-01-28_19h34.55.196,lexical_decision_task_DD,2021.2.3,Win32,59.89458553,,,,,,,,,,,0.8095,1,,,,,,,,,,,,,,,,,,,,,,,,-0.027777752,-0.400000027,0,0,0,,,,,,,BERRY,LB,m,m,./images/BERRYLB.png,,,,,,,,m,1,0.8095,,,,,,,,0,40,40,47,1
,,,,,,,,,,,,,,,,,198796,18,2022-01-28_19h34.55.196,lexical_decision_task_DD,2021.2.3,Win32,59.89458553,,,,,,,,,,,1.2504,1,,,,,,,,,,,,,,,,,,,,,,,,-0.027777752,-0.400000027,0,0,0,space,,,,,,BANANA,HB,z,m,./images/BANANAHB.png,1.1986,,,,,,,z,1,1.2504,,,,,,,,0,41,41,154,1
,,,,,,,,,,,,,,,,,198796,18,2022-01-28_19h34.55.196,lexical_decision_task_DD,2021.2.3,Win32,59.89458553,,,,,,,,,,,2.3618,1,,,,,,,,,,,,,,,,,,,,,,,,-0.027777752,-0.400000027,0,0,0,,,,,,,FENCE,LB,z,m,./images/FENCELB.png,,,,,,,,z,1,2.3618,,,,,,,,0,42,42,98,1
,,,,,,,,,,,,,,,,,198796,18,2022-01-28_19h34.55.196,lexical_decision_task_DD,2021.2.3,Win32,59.89458553,,,,,,,,,,,1.3496,1,,,,,,,,,,,,,,,,,,,,,,,,-0.027777752,-0.400000027,0,0,0,,,,,,,CRUST,HB,m,m,./images/CRUSTHB.png,,,,,,,,m,1,1.3496,,,,,,,,0,43,43,79,1
,,,,,,,,,,,,,,,,,198796,18,2022-01-28_19h34.55.196,lexical_decision_task_DD,2021.2.3,Win32,59.89458553,,,,,,,,,,,1.1308,1,,,,,,,,,,,,,,,,,,,,,,,,-0.027777752,-0.400000027,0,0,0,,,,,,,BONNET,LB,m,m,./images/BONNETLB.png,,,,,,,,m,1,1.1308,,,,,,,,0,44,44,11,1
,,,,,,,,,,,,,,,,,198796,18,2022-01-28_19h34.55.196,lexical_decision_task_DD,2021.2.3,Win32,59.89458553,,,,,,,,,,,1.1969,1,,,,,,,,,,,,,,,,,,,,,,,,-0.027777752,-0.400000027,0,0,0,,,,,,,SHORE,C,m,m,./images/SHORE.png,,,,,,,,m,1,1.1969,,,,,,,,0,45,45,12,1
,,,,,,,,,,,,,,,,,198796,18,2022-01-28_19h34.55.196,lexical_decision_task_DD,2021.2.3,Win32,59.89458553,,,,,,,,,,,1.5257,1,,,,,,,,,,,,,,,,,,,,,,,,-0.027777752,-0.400000027,0,0,0,,,,,,,CANDY,C,z,m,./images/CANDY.png,,,,,,,,z,1,1.5257,,,,,,,,0,46,46,123,1
,,,,,,,,,,,,,,,,,198796,18,2022-01-28_19h34.55.196,lexical_decision_task_DD,2021.2.3,Win32,59.89458553,,,,,,,,,,,0.9197,1,,,,,,,,,,,,,,,,,,,,,,,,-0.027777752,-0.400000027,0,0,0,,,,,,,SUNSET,HB,m,m,./images/SUNSETHB.png,,,,,,,,m,1,0.9197,,,,,,,,0,47,47,82,1
,,,,,,,,,,,,,,,,,198796,18,2022-01-28_19h34.55.196,lexical_decision_task_DD,2021.2.3,Win32,59.89458553,,,,,,,,,,,0.8009,1,,,,,,,,,,,,,,,,,,,,,,,,-0.027777752,-0.400000027,0,0,0,,,,,,,PASTA,LB,m,m,./images/PASTALB.png,,,,,,,,m,1,0.8009,,,,,,,,0,48,48,5,1
,,,,,,,,,,,,,,,,,198796,18,2022-01-28_19h34.55.196,lexical_decision_task_DD,2021.2.3,Win32,59.89458553,,,,,,,,,,,0.9134,0,,,,,,,,,,,,,,,,,,,,,,,,-0.027777752,-0.400000027,0,0,0,,,,,,,VALLEY,LB,z,m,./images/VALLEYLB.png,,,,,,,,m,0,0.9134,,,,,,,,0,49,49,152,1
,,,,,,,,,,,,,,,,,198796,18,2022-01-28_19h34.55.196,lexical_decision_task_DD,2021.2.3,Win32,59.89458553,,,,,,,,,,,1.2088,0,,,,,,,,,,,,,,,,,,,,,,,,-0.027777752,-0.400000027,0,0,0,,,,,,,PICKLE,LB,m,m,./images/PICKLELB.png,,,,,,,,z,0,1.2088,,,,,,,,0,50,50,14,1
,,,,,,,,,,,,,,,,,198796,18,2022-01-28_19h34.55.196,lexical_decision_task_DD,2021.2.3,Win32,59.89458553,,,,,,,,,,,1.1135,1,,,,,,,,,,,,,,,,,,,,,,,,-0.027777752,-0.400000027,0,0,0,,,,,,,ATTIC,C,m,m,./images/ATTIC.png,,,,,,,,m,1,1.1135,,,,,,,,0,51,51,27,1
,,,,,,,,,,,,,,,,,198796,18,2022-01-28_19h34.55.196,lexical_decision_task_DD,2021.2.3,Win32,59.89458553,,,,,,,,,,,1.0231,1,,,,,,,,,,,,,,,,,,,,,,,,-0.027777752,-0.400000027,0,0,0,,,,,,,BUTTER,C,z,m,./images/BUTTER.png,,,,,,,,z,1,1.0231,,,,,,,,0,52,52,111,1
,,,,,,,,,,,,,,,,,198796,18,2022-01-28_19h34.55.196,lexical_decision_task_DD,2021.2.3,Win32,59.89458553,,,,,,,,,,,1.0521,1,,,,,,,,,,,,,,,,,,,,,,,,-0.027777752,-0.400000027,0,0,0,,,,,,,ALLEY,HB,z,m,./images/ALLEYHB.png,,,,,,,,z,1,1.0521,,,,,,,,0,53,53,139,1
,,,,,,,,,,,,,,,,,198796,18,2022-01-28_19h34.55.196,lexical_decision_task_DD,2021.2.3,Win32,59.89458553,,,,,,,,,,,0.8105,1,,,,,,,,,,,,,,,,,,,,,,,,-0.027777752,-0.400000027,0,0,0,,,,,,,BRIDE,HB,z,m,./images/BRIDEHB.png,,,,,,,,z,1,0.8105,,,,,,,,0,54,54,148,1
,,,,,,,,,,,,,,,,,198796,18,2022-01-28_19h34.55.196,lexical_decision_task_DD,2021.2.3,Win32,59.89458553,,,,,,,,,,,2.6961,1,,,,,,,,,,,,,,,,,,,,,,,,-0.027777752,-0.400000027,0,0,0,,,,,,,MONKEY,C,z,m,./images/MONKEY.png,,,,,,,,z,1,2.6961,,,,,,,,0,55,55,129,1
,,,,,,,,,,,,,,,,,198796,18,2022-01-28_19h34.55.196,lexical_decision_task_DD,2021.2.3,Win32,59.89458553,,,,,,,,,,,0.853,1,,,,,,,,,,,,,,,,,,,,,,,,-0.027777752,-0.400000027,0,0,0,,,,,,,FLASK,C,z,m,./images/FLASK.png,,,,,,,,z,1,0.853,,,,,,,,0,56,56,156,1
,,,,,,,,,,,,,,,,,198796,18,2022-01-28_19h34.55.196,lexical_decision_task_DD,2021.2.3,Win32,59.89458553,,,,,,,,,,,1.1448,1,,,,,,,,,,,,,,,,,,,,,,,,-0.027777752,-0.400000027,0,0,0,,,,,,,GREASE,C,m,m,./images/GREASE.png,,,,,,,,m,1,1.1448,,,,,,,,0,57,57,15,1
,,,,,,,,,,,,,,,,,198796,18,2022-01-28_19h34.55.196,lexical_decision_task_DD,2021.2.3,Win32,59.89458553,,,,,,,,,,,1.4064,1,,,,,,,,,,,,,,,,,,,,,,,,-0.027777752,-0.400000027,0,0,0,,,,,,,BARREL,LB,m,m,./images/BARRELLB.png,,,,,,,,m,1,1.4064,,,,,,,,0,58,58,32,1
,,,,,,,,,,,,,,,,,198796,18,2022-01-28_19h34.55.196,lexical_decision_task_DD,2021.2.3,Win32,59.89458553,,,,,,,,,,,1.416,1,,,,,,,,,,,,,,,,,,,,,,,,-0.027777752,-0.400000027,0,0,0,,,,,,,CHERRY,C,z,m,./images/CHERRY.png,,,,,,,,z,1,1.416,,,,,,,,0,59,59,138,1
,,,,,,,,,,,,,,,,,198796,18,2022-01-28_19h34.55.196,lexical_decision_task_DD,2021.2.3,Win32,59.89458553,,,,,,,,,,,1.6855,1,,,,,,,,,,,,,,,,,,,,,,,,-0.027777752,-0.400000027,0,0,0,,,,,,,MOOSE,C,m,m,./images/MOOSE.png,,,,,,,,m,1,1.6855,,,,,,,,0,60,60,57,1
,,,,,,,,,,,,,,,,,198796,18,2022-01-28_19h34.55.196,lexical_decision_task_DD,2021.2.3,Win32,59.89458553,,,,,,,,,,,0.9672,1,,,,,,,,,,,,,,,,,,,,,,,,-0.027777752,-0.400000027,0,0,0,,,,,,,BUNNY,HB,z,m,./images/BUNNYHB.png,,,,,,,,z,1,0.9672,,,,,,,,0,61,61,97,1
,,,,,,,,,,,,,,,,,198796,18,2022-01-28_19h34.55.196,lexical_decision_task_DD,2021.2.3,Win32,59.89458553,,,,,,,,,,,0.9939,0,,,,,,,,,,,,,,,,,,,,,,,,-0.027777752,-0.400000027,0,0,0,,,,,,,BELLY,HB,m,m,./images/BELLYHB.png,,,,,,,,z,0,0.9939,,,,,,,,0,62,62,10,1
,,,,,,,,,,,,,,,,,198796,18,2022-01-28_19h34.55.196,lexical_decision_task_DD,2021.2.3,Win32,59.89458553,,,,,,,,,,,0.8529,1,,,,,,,,,,,,,,,,,,,,,,,,-0.027777752,-0.400000027,0,0,0,,,,,,,PURSE,LB,m,m,./images/PURSELB.png,,,,,,,,m,1,0.8529,,,,,,,,0,63,63,62,1
,,,,,,,,,,,,,,,,,198796,18,2022-01-28_19h34.55.196,lexical_decision_task_DD,2021.2.3,Win32,59.89458553,,,,,,,,,,,1.0862,0,,,,,,,,,,,,,,,,,,,,,,,,-0.027777752,-0.400000027,0,0,0,,,,,,,SQUARE,C,m,m,./images/SQUARE.png,,,,,,,,z,0,1.0862,,,,,,,,0,64,64,6,1
,,,,,,,,,,,,,,,,,198796,18,2022-01-28_19h34.55.196,lexical_decision_task_DD,2021.2.3,Win32,59.89458553,,,,,,,,,,,1.7075,1,,,,,,,,,,,,,,,,,,,,,,,,-0.027777752,-0.400000027,0,0,0,,,,,,,BAKER,C,z,m,./images/BAKER.png,,,,,,,,z,1,1.7075,,,,,,,,0,65,65,147,1
,,,,,,,,,,,,,,,,,198796,18,2022-01-28_19h34.55.196,lexical_decision_task_DD,2021.2.3,Win32,59.89458553,,,,,,,,,,,1.2063,0,,,,,,,,,,,,,,,,,,,,,,,,-0.027777752,-0.400000027,0,0,0,,,,,,,MUFFIN,HB,m,m,./images/MUFFINHB.png,,,,,,,,z,0,1.2063,,,,,,,,0,66,66,55,1
,,,,,,,,,,,,,,,,,198796,18,2022-01-28_19h34.55.196,lexical_decision_task_DD,2021.2.3,Win32,59.89458553,,,,,,,,,,,0.989,1,,,,,,,,,,,,,,,,,,,,,,,,-0.027777752,-0.400000027,0,0,0,,,,,,,PENCE,HB,m,m,./images/PENCEHB.png,,,,,,,,m,1,0.989,,,,,,,,0,67,67,16,1
,,,,,,,,,,,,,,,,,198796,18,2022-01-28_19h34.55.196,lexical_decision_task_DD,2021.2.3,Win32,59.89458553,,,,,,,,,,,0.9834,1,,,,,,,,,,,,,,,,,,,,,,,,-0.027777752,-0.400000027,0,0,0,,,,,,,PILOT,LB,z,m,./images/PILOTLB.png,,,,,,,,z,1,0.9834,,,,,,,,0,68,68,134,1
,,,,,,,,,,,,,,,,,198796,18,2022-01-28_19h34.55.196,lexical_decision_task_DD,2021.2.3,Win32,59.89458553,,,,,,,,,,,2.4787,1,,,,,,,,,,,,,,,,,,,,,,,,-0.027777752,-0.400000027,0,0,0,,,,,,,DESERT,HB,z,m,./images/DESERTHB.png,,,,,,,,z,1,2.4787,,,,,,,,0,69,69,136,1
,,,,,,,,,,,,,,,,,198796,18,2022-01-28_19h34.55.196,lexical_decision_task_DD,2021.2.3,Win32,59.89458553,,,,,,,,,,,1.3587,1,,,,,,,,,,,,,,,,,,,,,,,,-0.027777752,-0.400000027,0,0,0,,,,,,,JELLY,HB,m,m,./images/JELLYHB.png,,,,,,,,m,1,1.3587,,,,,,,,0,70,70,64,1
,,,,,,,,,,,,,,,,,198796,18,2022-01-28_19h34.55.196,lexical_decision_task_DD,2021.2.3,Win32,59.89458553,,,,,,,,,,,1.3379,1,,,,,,,,,,,,,,,,,,,,,,,,-0.027777752,-0.400000027,0,0,0,,,,,,,RHINO,C,m,m,./images/RHINO.png,,,,,,,,m,1,1.3379,,,,,,,,0,71,71,9,1
,,,,,,,,,,,,,,,,,198796,18,2022-01-28_19h34.55.196,lexical_decision_task_DD,2021.2.3,Win32,59.89458553,,,,,,,,,,,2.0637,0,,,,,,,,,,,,,,,,,,,,,,,,-0.027777752,-0.400000027,0,0,0,,,,,,,INFANT,HB,m,m,./images/INFANTHB.png,,,,,,,,z,0,2.0637,,,,,,,,0,72,72,76,1
,,,,,,,,,,,,,,,,,198796,18,2022-01-28_19h34.55.196,lexical_decision_task_DD,2021.2.3,Win32,59.89458553,,,,,,,,,,,1.4134,0,,,,,,,,,,,,,,,,,,,,,,,,-0.027777752,-0.400000027,0,0,0,,,,,,,SWEAT,C,m,m,./images/SWEAT.png,,,,,,,,z,0,1.4134,,,,,,,,0,73,73,66,1
,,,,,,,,,,,,,,,,,198796,18,2022-01-28_19h34.55.196,lexical_decision_task_DD,2021.2.3,Win32,59.89458553,,,,,,,,,,,1.2708,1,,,,,,,,,,,,,,,,,,,,,,,,-0.027777752,-0.400000027,0,0,0,,,,,,,DRILL,C,z,m,./images/DRILL.png,,,,,,,,z,1,1.2708,,,,,,,,0,74,74,165,1
,,,,,,,,,,,,,,,,,198796,18,2022-01-28_19h34.55.196,lexical_decision_task_DD,2021.2.3,Win32,59.89458553,,,,,,,,,,,1.5353,1,,,,,,,,,,,,,,,,,,,,,,,,-0.027777752,-0.400000027,0,0,0,,,,,,,MOSQUE,HB,m,m,./images/MOSQUEHB.png,,,,,,,,m,1,1.5353,,,,,,,,0,75,75,43,1
,,,,,,,,,,,,,,,,,198796,18,2022-01-28_19h34.55.196,lexical_decision_task_DD,2021.2.3,Win32,59.89458553,,,,,,,,,,,1.0447,1,,,,,,,,,,,,,,,,,,,,,,,,-0.027777752,-0.400000027,0,0,0,,,,,,,FARMER,LB,m,m,./images/FARMERLB.png,,,,,,,,m,1,1.0447,,,,,,,,0,76,76,65,1
,,,,,,,,,,,,,,,,,198796,18,2022-01-28_19h34.55.196,lexical_decision_task_DD,2021.2.3,Win32,59.89458553,,,,,,,,,,,0.9564,1,,,,,,,,,,,,,,,,,,,,,,,,-0.027777752,-0.400000027,0,0,0,,,,,,,SNAKE,HB,z,m,./images/SNAKEHB.png,,,,,,,,z,1,0.9564,,,,,,,,0,77,77,124,1
,,,,,,,,,,,,,,,,,198796,18,2022-01-28_19h34.55.196,lexical_decision_task_DD,2021.2.3,Win32,59.89458553,,,,,,,,,,,1.0592,1,,,,,,,,,,,,,,,,,,,,,,,,-0.027777752,-0.400000027,0,0,0,,,,,,,THROAT,C,m,m,./images/THROAT.png,,,,,,,,m,1,1.0592,,,,,,,,0,78,78,36,1
,,,,,,,,,,,,,,,,,198796,18,2022-01-28_19h34.55.196,lexical_decision_task_DD,2021.2.3,Win32,59.89458553,,,,,,,,,,,1.0946,0,,,,,,,,,,,,,,,,,,,,,,,,-0.027777752,-0.400000027,0,0,0,,,,,,,NOOSE,C,m,m,./images/NOOSE.png,,,,,,,,z,0,1.0946,,,,,,,,0,79,79,72,1
,,,,,,,,,,,,,,,,,198796,18,2022-01-28_19h34.55.196,lexical_decision_task_DD,2021.2.3,Win32,59.89458553,,,,,,,,,,,1.5004,0,,,,,,,,,,,,,,,,,,,,,,,,-0.027777752,-0.400000027,0,0,0,,,,,,,RAZOR,HB,z,m,./images/RAZORHB.png,,,,,,,,m,0,1.5004,,,,,,,,0,80,80,118,1
,,,,,,,,,,,,,,,,,198796,18,2022-01-28_19h34.55.196,lexical_decision_task_DD,2021.2.3,Win32,59.89458553,,,,,,,,,,,0.9364,0,,,,,,,,,,,,,,,,,,,,,,,,-0.027777752,-0.400000027,0,0,0,,,,,,,WALRUS,LB,m,m,./images/WALRUSLB.png,,,,,,,,z,0,0.9364,,,,,,,,0,81,81,23,1
,,,,,,,,,,,,,,,,,198796,18,2022-01-28_19h34.55.196,lexical_decision_task_DD,2021.2.3,Win32,59.89458553,,,,,,,,,,,0.9901,1,,,,,,,,,,,,,,,,,,,,,,,,-0.027777752,-0.400000027,0,0,0,,,,,,,TRIPOD,C,m,m,./images/TRIPOD.png,,,,,,,,m,1,0.9901,,,,,,,,0,82,82,54,1
,,,,,,,,,,,,,,,,,198796,18,2022-01-28_19h34.55.196,lexical_decision_task_DD,2021.2.3,Win32,59.89458553,,,,,,,,,,,0.9957,1,,,,,,,,,,,,,,,,,,,,,,,,-0.027777752,-0.400000027,0,0,0,space,,,,,,HOCKEY,LB,z,m,./images/HOCKEYLB.png,1.4873,,,,,,,z,1,0.9957,,,,,,,,0,83,83,116,1
,,,,,,,,,,,,,,,,,198796,18,2022-01-28_19h34.55.196,lexical_decision_task_DD,2021.2.3,Win32,59.89458553,,,,,,,,,,,1.0419,0,,,,,,,,,,,,,,,,,,,,,,,,-0.027777752,-0.400000027,0,0,0,,,,,,,LIZARD,LB,m,m,./images/LIZARDLB.png,,,,,,,,z,0,1.0419,,,,,,,,0,84,84,44,1
,,,,,,,,,,,,,,,,,198796,18,2022-01-28_19h34.55.196,lexical_decision_task_DD,2021.2.3,Win32,59.89458553,,,,,,,,,,,1.618,1,,,,,,,,,,,,,,,,,,,,,,,,-0.027777752,-0.400000027,0,0,0,,,,,,,GRAPE,HB,z,m,./images/GRAPEHB.png,,,,,,,,z,1,1.618,,,,,,,,0,85,85,100,1
,,,,,,,,,,,,,,,,,198796,18,2022-01-28_19h34.55.196,lexical_decision_task_DD,2021.2.3,Win32,59.89458553,,,,,,,,,,,0.992,0,,,,,,,,,,,,,,,,,,,,,,,,-0.027777752,-0.400000027,0,0,0,,,,,,,SAILOR,HB,m,m,./images/SAILORHB.png,,,,,,,,z,0,0.992,,,,,,,,0,86,86,67,1
,,,,,,,,,,,,,,,,,198796,18,2022-01-28_19h34.55.196,lexical_decision_task_DD,2021.2.3,Win32,59.89458553,,,,,,,,,,,1.5213,0,,,,,,,,,,,,,,,,,,,,,,,,-0.027777752,-0.400000027,0,0,0,,,,,,,BOILER,C,z,m,./images/BOILER.png,,,,,,,,m,0,1.5213,,,,,,,,0,87,87,120,1
,,,,,,,,,,,,,,,,,198796,18,2022-01-28_19h34.55.196,lexical_decision_task_DD,2021.2.3,Win32,59.89458553,,,,,,,,,,,0.8216,0,,,,,,,,,,,,,,,,,,,,,,,,-0.027777752,-0.400000027,0,0,0,,,,,,,CANDLE,HB,m,m,./images/CANDLEHB.png,,,,,,,,z,0,0.8216,,,,,,,,0,88,88,61,1
,,,,,,,,,,,,,,,,,198796,18,2022-01-28_19h34.55.196,lexical_decision_task_DD,2021.2.3,Win32,59.89458553,,,,,,,,,,,0.8927,1,,,,,,,,,,,,,,,,,,,,,,,,-0.027777752,-0.400000027,0,0,0,,,,,,,FINGER,C,m,m,./images/FINGER.png,,,,,,,,m,1,0.8927,,,,,,,,0,89,89,3,1
,,,,,,,,,,,,,,,,,198796,18,2022-01-28_19h34.55.196,lexical_decision_task_DD,2021.2.3,Win32,59.89458553,,,,,,,,,,,0.8664,1,,,,,,,,,,,,,,,,,,,,,,,,-0.027777752,-0.400000027,0,0,0,,,,,,,MELON,HB,m,m,./images/MELONHB.png,,,,,,,,m,1,0.8664,,,,,,,,0,90,90,22,1
,,,,,,,,,,,,,,,,,198796,18,2022-01-28_19h34.55.196,lexical_decision_task_DD,2021.2.3,Win32,59.89458553,,,,,,,,,,,0.8248,1,,,,,,,,,,,,,,,,,,,,,,,,-0.027777752,-0.400000027,0,0,0,,,,,,,PAINT,HB,m,m,./images/PAINTHB.png,,,,,,,,m,1,0.8248,,,,,,,,0,91,91,7,1
,,,,,,,,,,,,,,,,,198796,18,2022-01-28_19h34.55.196,lexical_decision_task_DD,2021.2.3,Win32,59.89458553,,,,,,,,,,,1.0004,1,,,,,,,,,,,,,,,,,,,,,,,,-0.027777752,-0.400000027,0,0,0,,,,,,,BOXER,HB,z,m,./images/BOXERHB.png,,,,,,,,z,1,1.0004,,,,,,,,0,92,92,88,1
,,,,,,,,,,,,,,,,,198796,18,2022-01-28_19h34.55.196,lexical_decision_task_DD,2021.2.3,Win32,59.89458553,,,,,,,,,,,1.2448,0,,,,,,,,,,,,,,,,,,,,,,,,-0.027777752,-0.400000027,0,0,0,,,,,,,CARPET,LB,m,m,./images/CARPETLB.png,,,,,,,,z,0,1.2448,,,,,,,,0,93,93,53,1
,,,,,,,,,,,,,,,,,198796,18,2022-01-28_19h34.55.196,lexical_decision_task_DD,2021.2.3,Win32,59.89458553,,,,,,,,,,,1.093,1,,,,,,,,,,,,,,,,,,,,,,,,-0.027777752,-0.400000027,0,0,0,,,,,,,JUMPER,LB,z,m,./images/JUMPERLB.png,,,,,,,,z,1,1.093,,,,,,,,0,94,94,158,1
,,,,,,,,,,,,,,,,,198796,18,2022-01-28_19h34.55.196,lexical_decision_task_DD,2021.2.3,Win32,59.89458553,,,,,,,,,,,1.1171,0,,,,,,,,,,,,,,,,,,,,,,,,-0.027777752,-0.400000027,0,0,0,,,,,,,WHISKY,LB,z,m,./images/WHISKYLB.png,,,,,,,,m,0,1.1171,,,,,,,,0,95,95,167,1
,,,,,,,,,,,,,,,,,198796,18,2022-01-28_19h34.55.196,lexical_decision_task_DD,2021.2.3,Win32,59.89458553,,,,,,,,,,,1.0424,0,,,,,,,,,,,,,,,,,,,,,,,,-0.027777752,-0.400000027,0,0,0,,,,,,,COLLAR,C,z,m,./images/COLLAR.png,,,,,,,,m,0,1.0424,,,,,,,,0,96,96,99,1
,,,,,,,,,,,,,,,,,198796,18,2022-01-28_19h34.55.196,lexical_decision_task_DD,2021.2.3,Win32,59.89458553,,,,,,,,,,,1.2516,0,,,,,,,,,,,,,,,,,,,,,,,,-0.027777752,-0.400000027,0,0,0,,,,,,,CLOWN,HB,z,m,./images/CLOWNHB.png,,,,,,,,m,0,1.2516,,,,,,,,0,97,97,106,1
,,,,,,,,,,,,,,,,,198796,18,2022-01-28_19h34.55.196,lexical_decision_task_DD,2021.2.3,Win32,59.89458553,,,,,,,,,,,1.83,1,,,,,,,,,,,,,,,,,,,,,,,,-0.027777752,-0.400000027,0,0,0,,,,,,,LAGOON,LB,z,m,./images/LAGOONLB.png,,,,,,,,z,1,1.83,,,,,,,,0,98,98,131,1
,,,,,,,,,,,,,,,,,198796,18,2022-01-28_19h34.55.196,lexical_decision_task_DD,2021.2.3,Win32,59.89458553,,,,,,,,,,,1.73,0,,,,,,,,,,,,,,,,,,,,,,,,-0.027777752,-0.400000027,0,0,0,,,,,,,CRADLE,LB,m,m,./images/CRADLELB.png,,,,,,,,z,0,1.73,,,,,,,,0,99,99,20,1
,,,,,,,,,,,,,,,,,198796,18,2022-01-28_19h34.55.196,lexical_decision_task_DD,2021.2.3,Win32,59.89458553,,,,,,,,,,,2.0221,1,,,,,,,,,,,,,,,,,,,,,,,,-0.027777752,-0.400000027,0,0,0,,,,,,,PLANET,LB,z,m,./images/PLANETLB.png,,,,,,,,z,1,2.0221,,,,,,,,0,100,100,164,1
,,,,,,,,,,,,,,,,,198796,18,2022-01-28_19h34.55.196,lexical_decision_task_DD,2021.2.3,Win32,59.89458553,,,,,,,,,,,0.6995,1,,,,,,,,,,,,,,,,,,,,,,,,-0.027777752,-0.400000027,0,0,0,,,,,,,PEBBLE,HB,z,m,./images/PEBBLEHB.png,,,,,,,,z,1,0.6995,,,,,,,,0,101,101,166,1
,,,,,,,,,,,,,,,,,198796,18,2022-01-28_19h34.55.196,lexical_decision_task_DD,2021.2.3,Win32,59.89458553,,,,,,,,,,,2.1043,0,,,,,,,,,,,,,,,,,,,,,,,,-0.027777752,-0.400000027,0,0,0,,,,,,,CHALK,HB,z,m,./images/CHALKHB.png,,,,,,,,m,0,2.1043,,,,,,,,0,102,102,109,1
,,,,,,,,,,,,,,,,,198796,18,2022-01-28_19h34.55.196,lexical_decision_task_DD,2021.2.3,Win32,59.89458553,,,,,,,,,,,1.1912,0,,,,,,,,,,,,,,,,,,,,,,,,-0.027777752,-0.400000027,0,0,0,,,,,,,URINE,HB,m,m,./images/URINEHB.png,,,,,,,,z,0,1.1912,,,,,,,,0,103,103,70,1
,,,,,,,,,,,,,,,,,198796,18,2022-01-28_19h34.55.196,lexical_decision_task_DD,2021.2.3,Win32,59.89458553,,,,,,,,,,,1.477,1,,,,,,,,,,,,,,,,,,,,,,,,-0.027777752,-0.400000027,0,0,0,,,,,,,MIRROR,C,m,m,./images/MIRROR.png,,,,,,,,m,1,1.477,,,,,,,,0,104,104,63,1
,,,,,,,,,,,,,,,,,198796,18,2022-01-28_19h34.55.196,lexical_decision_task_DD,2021.2.3,Win32,59.89458553,,,,,,,,,,,0.776,1,,,,,,,,,,,,,,,,,,,,,,,,-0.027777752,-0.400000027,0,0,0,,,,,,,PLANK,HB,m,m,./images/PLANKHB.png,,,,,,,,m,1,0.776,,,,,,,,0,105,105,1,1
,,,,,,,,,,,,,,,,,198796,18,2022-01-28_19h34.55.196,lexical_decision_task_DD,2021.2.3,Win32,59.89458553,,,,,,,,,,,1.1428,0,,,,,,,,,,,,,,,,,,,,,,,,-0.027777752,-0.400000027,0,0,0,,,,,,,ONION,C,m,m,./images/ONION.png,,,,,,,,z,0,1.1428,,,,,,,,0,106,106,51,1
,,,,,,,,,,,,,,,,,198796,18,2022-01-28_19h34.55.196,lexical_decision_task_DD,2021.2.3,Win32,59.89458553,,,,,,,,,,,0.9624,1,,,,,,,,,,,,,,,,,,,,,,,,-0.027777752,-0.400000027,0,0,0,,,,,,,MAMMAL,LB,z,m,./images/MAMMALLB.png,,,,,,,,z,1,0.9624,,,,,,,,0,107,107,146,1
,,,,,,,,,,,,,,,,,198796,18,2022-01-28_19h34.55.196,lexical_decision_task_DD,2021.2.3,Win32,59.89458553,,,,,,,,,,,0.8937,1,,,,,,,,,,,,,,,,,,,,,,,,-0.027777752,-0.400000027,0,0,0,,,,,,,CRATER,C,z,m,./images/CRATER.png,,,,,,,,z,1,0.8937,,,,,,,,0,108,108,87,1
,,,,,,,,,,,,,,,,,198796,18,2022-01-28_19h34.55.196,lexical_decision_task_DD,2021.2.3,Win32,59.89458553,,,,,,,,,,,2.6445,1,,,,,,,,,,,,,,,,,,,,,,,,-0.027777752,-0.400000027,0,0,0,,,,,,,HAMMER,C,z,m,./images/HAMMER.png,,,,,,,,z,1,2.6445,,,,,,,,0,109,109,159,1
,,,,,,,,,,,,,,,,,198796,18,2022-01-28_19h34.55.196,lexical_decision_task_DD,2021.2.3,Win32,59.89458553,,,,,,,,,,,1.1028,1,,,,,,,,,,,,,,,,,,,,,,,,-0.027777752,-0.400000027,0,0,0,,,,,,,WEASEL,LB,m,m,./images/WEASELLB.png,,,,,,,,m,1,1.1028,,,,,,,,0,110,110,80,1
,,,,,,,,,,,,,,,,,198796,18,2022-01-28_19h34.55.196,lexical_decision_task_DD,2021.2.3,Win32,59.89458553,,,,,,,,,,,0.9678,1,,,,,,,,,,,,,,,,,,,,,,,,-0.027777752,-0.400000027,0,0,0,,,,,,,PEARL,HB,m,m,./images/PEARLHB.png,,,,,,,,m,1,0.9678,,,,,,,,0,111,111,46,1
,,,,,,,,,,,,,,,,,198796,18,2022-01-28_19h34.55.196,lexical_decision_task_DD,2021.2.3,Win32,59.89458553,,,,,,,,,,,1.1508,1,,,,,,,,,,,,,,,,,,,,,,,,-0.027777752,-0.400000027,0,0,0,,,,,,,SPINE,LB,z,m,./images/SPINELB.png,,,,,,,,z,1,1.1508,,,,,,,,0,112,112,149,1
,,,,,,,,,,,,,,,,,198796,18,2022-01-28_19h34.55.196,lexical_decision_task_DD,2021.2.3,Win32,59.89458553,,,,,,,,,,,1.6368,1,,,,,,,,,,,,,,,,,,,,,,,,-0.027777752,-0.400000027,0,0,0,,,,,,,MOTOR,HB,m,m,./images/MOTORHB.png,,,,,,,,m,1,1.6368,,,,,,,,0,113,113,13,1
,,,,,,,,,,,,,,,,,198796,18,2022-01-28_19h34.55.196,lexical_decision_task_DD,2021.2.3,Win32,59.89458553,,,,,,,,,,,1.217,1,,,,,,,,,,,,,,,,,,,,,,,,-0.027777752,-0.400000027,0,0,0,,,,,,,SHIELD,C,z,m,./images/SHIELD.png,,,,,,,,z,1,1.217,,,,,,,,0,114,114,132,1
,,,,,,,,,,,,,,,,,198796,18,2022-01-28_19h34.55.196,lexical_decision_task_DD,2021.2.3,Win32,59.89458553,,,,,,,,,,,0.9891,1,,,,,,,,,,,,,,,,,,,,,,,,-0.027777752,-0.400000027,0,0,0,,,,,,,JAGUAR,C,m,m,./images/JAGUAR.png,,,,,,,,m,1,0.9891,,,,,,,,0,115,115,18,1
,,,,,,,,,,,,,,,,,198796,18,2022-01-28_19h34.55.196,lexical_decision_task_DD,2021.2.3,Win32,59.89458553,,,,,,,,,,,0.9161,1,,,,,,,,,,,,,,,,,,,,,,,,-0.027777752,-0.400000027,0,0,0,,,,,,,SAUNA,C,z,m,./images/SAUNA.png,,,,,,,,z,1,0.9161,,,,,,,,0,116,116,117,1
,,,,,,,,,,,,,,,,,198796,18,2022-01-28_19h34.55.196,lexical_decision_task_DD,2021.2.3,Win32,59.89458553,,,,,,,,,,,1.5916,1,,,,,,,,,,,,,,,,,,,,,,,,-0.027777752,-0.400000027,0,0,0,,,,,,,BAMBOO,LB,z,m,./images/BAMBOOLB.png,,,,,,,,z,1,1.5916,,,,,,,,0,117,117,89,1
,,,,,,,,,,,,,,,,,198796,18,2022-01-28_19h34.55.196,lexical_decision_task_DD,2021.2.3,Win32,59.89458553,,,,,,,,,,,0.793,0,,,,,,,,,,,,,,,,,,,,,,,,-0.027777752,-0.400000027,0,0,0,,,,,,,WALNUT,C,z,m,./images/WALNUT.png,,,,,,,,m,0,0.793,,,,,,,,0,118,118,84,1
,,,,,,,,,,,,,,,,,198796,18,2022-01-28_19h34.55.196,lexical_decision_task_DD,2021.2.3,Win32,59.89458553,,,,,,,,,,,1.005,1,,,,,,,,,,,,,,,,,,,,,,,,-0.027777752,-0.400000027,0,0,0,,,,,,,SPORT,C,m,m,./images/SPORT.png,,,,,,,,m,1,1.005,,,,,,,,0,119,119,48,1
,,,,,,,,,,,,,,,,,198796,18,2022-01-28_19h34.55.196,lexical_decision_task_DD,2021.2.3,Win32,59.89458553,,,,,,,,,,,1.3931,1,,,,,,,,,,,,,,,,,,,,,,,,-0.027777752,-0.400000027,0,0,0,,,,,,,FLESH,C,z,m,./images/FLESH.png,,,,,,,,z,1,1.3931,,,,,,,,0,120,120,108,1
,,,,,,,,,,,,,,,,,198796,18,2022-01-28_19h34.55.196,lexical_decision_task_DD,2021.2.3,Win32,59.89458553,,,,,,,,,,,1.837,1,,,,,,,,,,,,,,,,,,,,,,,,-0.027777752,-0.400000027,0,0,0,,,,,,,POSTER,LB,z,m,./images/POSTERLB.png,,,,,,,,z,1,1.837,,,,,,,,0,121,121,137,1
,,,,,,,,,,,,,,,,,198796,18,2022-01-28_19h34.55.196,lexical_decision_task_DD,2021.2.3,Win32,59.89458553,,,,,,,,,,,1.267,1,,,,,,,,,,,,,,,,,,,,,,,,-0.027777752,-0.400000027,0,0,0,,,,,,,CURRY,C,z,m,./images/CURRY.png,,,,,,,,z,1,1.267,,,,,,,,0,122,122,144,1
,,,,,,,,,,,,,,,,,198796,18,2022-01-28_19h34.55.196,lexical_decision_task_DD,2021.2.3,Win32,59.89458553,,,,,,,,,,,1.1671,0,,,,,,,,,,,,,,,,,,,,,,,,-0.027777752,-0.400000027,0,0,0,,,,,,,ARTIST,HB,z,m,./images/ARTISTHB.png,,,,,,,,m,0,1.1671,,,,,,,,0,123,123,145,1
,,,,,,,,,,,,,,,,,198796,18,2022-01-28_19h34.55.196,lexical_decision_task_DD,2021.2.3,Win32,59.89458553,,,,,,,,,,,1.0164,1,,,,,,,,,,,,,,,,,,,,,,,,-0.027777752,-0.400000027,0,0,0,,,,,,,STEAK,HB,z,m,./images/STEAKHB.png,,,,,,,,z,1,1.0164,,,,,,,,0,124,124,115,1
,,,,,,,,,,,,,,,,,198796,18,2022-01-28_19h34.55.196,lexical_decision_task_DD,2021.2.3,Win32,59.89458553,,,,,,,,,,,0.9661,1,,,,,,,,,,,,,,,,,,,,,,,,-0.027777752,-0.400000027,0,0,0,space,,,,,,GRAIN,C,m,m,./images/GRAIN.png,1.1245,,,,,,,m,1,0.9661,,,,,,,,0,125,125,75,1
,,,,,,,,,,,,,,,,,198796,18,2022-01-28_19h34.55.196,lexical_decision_task_DD,2021.2.3,Win32,59.89458553,,,,,,,,,,,0.8002,1,,,,,,,,,,,,,,,,,,,,,,,,-0.027777752,-0.400000027,0,0,0,,,,,,,STAIN,C,z,m,./images/STAIN.png,,,,,,,,z,1,0.8002,,,,,,,,0,126,126,90,1
,,,,,,,,,,,,,,,,,198796,18,2022-01-28_19h34.55.196,lexical_decision_task_DD,2021.2.3,Win32,59.89458553,,,,,,,,,,,1.0665,1,,,,,,,,,,,,,,,,,,,,,,,,-0.027777752,-0.400000027,0,0,0,,,,,,,SWING,HB,m,m,./images/SWINGHB.png,,,,,,,,m,1,1.0665,,,,,,,,0,127,127,40,1
,,,,,,,,,,,,,,,,,198796,18,2022-01-28_19h34.55.196,lexical_decision_task_DD,2021.2.3,Win32,59.89458553,,,,,,,,,,,0.9001,0,,,,,,,,,,,,,,,,,,,,,,,,-0.027777752,-0.400000027,0,0,0,,,,,,,DONKEY,HB,z,m,./images/DONKEYHB.png,,,,,,,,m,0,0.9001,,,,,,,,0,128,128,103,1
,,,,,,,,,,,,,,,,,198796,18,2022-01-28_19h34.55.196,lexical_decision_task_DD,2021.2.3,Win32,59.89458553,,,,,,,,,,,0.8493,0,,,,,,,,,,,,,,,,,,,,,,,,-0.027777752,-0.400000027,0,0,0,,,,,,,QUILL,HB,m,m,./images/QUILLHB.png,,,,,,,,z,0,0.8493,,,,,,,,0,129,129,31,1
,,,,,,,,,,,,,,,,,198796,18,2022-01-28_19h34.55.196,lexical_decision_task_DD,2021.2.3,Win32,59.89458553,,,,,,,,,,,1.3412,1,,,,,,,,,,,,,,,,,,,,,,,,-0.027777752,-0.400000027,0,0,0,,,,,,,COUCH,LB,m,m,./images/COUCHLB.png,,,,,,,,m,1,1.3412,,,,,,,,0,130,130,77,1
,,,,,,,,,,,,,,,,,198796,18,2022-01-28_19h34.55.196,lexical_decision_task_DD,2021.2.3,Win32,59.89458553,,,,,,,,,,,1.2596,1,,,,,,,,,,,,,,,,,,,,,,,,-0.027777752,-0.400000027,0,0,0,,,,,,,STRING,LB,m,m,./images/STRINGLB.png,,,,,,,,m,1,1.2596,,,,,,,,0,131,131,41,1
,,,,,,,,,,,,,,,,,198796,18,2022-01-28_19h34.55.196,lexical_decision_task_DD,2021.2.3,Win32,59.89458553,,,,,,,,,,,0.8213,1,,,,,,,,,,,,,,,,,,,,,,,,-0.027777752,-0.400000027,0,0,0,,,,,,,MAGGOT,C,m,m,./images/MAGGOT.png,,,,,,,,m,1,0.8213,,,,,,,,0,132,132,33,1
,,,,,,,,,,,,,,,,,198796,18,2022-01-28_19h34.55.196,lexical_decision_task_DD,2021.2.3,Win32,59.89458553,,,,,,,,,,,0.8888,0,,,,,,,,,,,,,,,,,,,,,,,,-0.027777752,-0.400000027,0,0,0,,,,,,,WAGON,HB,z,m,./images/WAGONHB.png,,,,,,,,m,0,0.8888,,,,,,,,0,133,133,91,1
,,,,,,,,,,,,,,,,,198796,18,2022-01-28_19h34.55.196,lexical_decision_task_DD,2021.2.3,Win32,59.89458553,,,,,,,,,,,0.8504,1,,,,,,,,,,,,,,,,,,,,,,,,-0.027777752,-0.400000027,0,0,0,,,,,,,DRUMS,HB,m,m,./images/DRUMSHB.png,,,,,,,,m,1,0.8504,,,,,,,,0,134,134,49,1
,,,,,,,,,,,,,,,,,198796,18,2022-01-28_19h34.55.196,lexical_decision_task_DD,2021.2.3,Win32,59.89458553,,,,,,,,,,,0.8501,1,,,,,,,,,,,,,,,,,,,,,,,,-0.027777752,-0.400000027,0,0,0,,,,,,,CLOUD,LB,z,m,./images/CLOUDLB.png,,,,,,,,z,1,0.8501,,,,,,,,0,135,135,110,1
,,,,,,,,,,,,,,,,,198796,18,2022-01-28_19h34.55.196,lexical_decision_task_DD,2021.2.3,Win32,59.89458553,,,,,,,,,,,0.8673,1,,,,,,,,,,,,,,,,,,,,,,,,-0.027777752,-0.400000027,0,0,0,,,,,,,CHAIN,C,z,m,./images/CHAIN.png,,,,,,,,z,1,0.8673,,,,,,,,0,136,136,126,1
,,,,,,,,,,,,,,,,,198796,18,2022-01-28_19h34.55.196,lexical_decision_task_DD,2021.2.3,Win32,59.89458553,,,,,,,,,,,1.1111,0,,,,,,,,,,,,,,,,,,,,,,,,-0.027777752,-0.400000027,0,0,0,,,,,,,BANNER,HB,m,m,./images/BANNERHB.png,,,,,,,,z,0,1.1111,,,,,,,,0,137,137,52,1
,,,,,,,,,,,,,,,,,198796,18,2022-01-28_19h34.55.196,lexical_decision_task_DD,2021.2.3,Win32,59.89458553,,,,,,,,,,,0.8633,1,,,,,,,,,,,,,,,,,,,,,,,,-0.027777752,-0.400000027,0,0,0,,,,,,,FOLDER,C,m,m,./images/FOLDER.png,,,,,,,,m,1,0.8633,,,,,,,,0,138,138,42,1
,,,,,,,,,,,,,,,,,198796,18,2022-01-28_19h34.55.196,lexical_decision_task_DD,2021.2.3,Win32,59.89458553,,,,,,,,,,,0.8782,1,,,,,,,,,,,,,,,,,,,,,,,,-0.027777752,-0.400000027,0,0,0,,,,,,,CRUMB,LB,m,m,./images/CRUMBLB.png,,,,,,,,m,1,0.8782,,,,,,,,0,139,139,29,1
,,,,,,,,,,,,,,,,,198796,18,2022-01-28_19h34.55.196,lexical_decision_task_DD,2021.2.3,Win32,59.89458553,,,,,,,,,,,0.8458,1,,,,,,,,,,,,,,,,,,,,,,,,-0.027777752,-0.400000027,0,0,0,,,,,,,WRIST,HB,m,m,./images/WRISTHB.png,,,,,,,,m,1,0.8458,,,,,,,,0,140,140,25,1
,,,,,,,,,,,,,,,,,198796,18,2022-01-28_19h34.55.196,lexical_decision_task_DD,2021.2.3,Win32,59.89458553,,,,,,,,,,,0.8843,1,,,,,,,,,,,,,,,,,,,,,,,,-0.027777752,-0.400000027,0,0,0,,,,,,,BISHOP,HB,z,m,./images/BISHOPHB.png,,,,,,,,z,1,0.8843,,,,,,,,0,141,141,133,1
,,,,,,,,,,,,,,,,,198796,18,2022-01-28_19h34.55.196,lexical_decision_task_DD,2021.2.3,Win32,59.89458553,,,,,,,,,,,1.1923,0,,,,,,,,,,,,,,,,,,,,,,,,-0.027777752,-0.400000027,0,0,0,,,,,,,STREAM,LB,z,m,./images/STREAMLB.png,,,,,,,,m,0,1.1923,,,,,,,,0,142,142,125,1
,,,,,,,,,,,,,,,,,198796,18,2022-01-28_19h34.55.196,lexical_decision_task_DD,2021.2.3,Win32,59.89458553,,,,,,,,,,,0.7132,1,,,,,,,,,,,,,,,,,,,,,,,,-0.027777752,-0.400000027,0,0,0,,,,,,,BLOKE,C,z,m,./images/BLOKE.png,,,,,,,,z,1,0.7132,,,,,,,,0,143,143,96,1
,,,,,,,,,,,,,,,,,198796,18,2022-01-28_19h34.55.196,lexical_decision_task_DD,2021.2.3,Win32,59.89458553,,,,,,,,,,,0.7942,1,,,,,,,,,,,,,,,,,,,,,,,,-0.027777752,-0.400000027,0,0,0,,,,,,,TWINS,C,m,m,./images/TWINS.png,,,,,,,,m,1,0.7942,,,,,,,,0,144,144,60,1
,,,,,,,,,,,,,,,,,198796,18,2022-01-28_19h34.55.196,lexical_decision_task_DD,2021.2.3,Win32,59.89458553,,,,,,,,,,,0.7057,1,,,,,,,,,,,,,,,,,,,,,,,,-0.027777752,-0.400000027,0,0,0,,,,,,,LADDER,LB,m,m,./images/LADDERLB.png,,,,,,,,m,1,0.7057,,,,,,,,0,145,145,38,1
,,,,,,,,,,,,,,,,,198796,18,2022-01-28_19h34.55.196,lexical_decision_task_DD,2021.2.3,Win32,59.89458553,,,,,,,,,,,0.6696,1,,,,,,,,,,,,,,,,,,,,,,,,-0.027777752,-0.400000027,0,0,0,,,,,,,PARADE,LB,z,m,./images/PARADELB.png,,,,,,,,z,1,0.6696,,,,,,,,0,146,146,101,1
,,,,,,,,,,,,,,,,,198796,18,2022-01-28_19h34.55.196,lexical_decision_task_DD,2021.2.3,Win32,59.89458553,,,,,,,,,,,0.8835,1,,,,,,,,,,,,,,,,,,,,,,,,-0.027777752,-0.400000027,0,0,0,,,,,,,SLOPE,C,z,m,./images/SLOPE.png,,,,,,,,z,1,0.8835,,,,,,,,0,147,147,114,1
,,,,,,,,,,,,,,,,,198796,18,2022-01-28_19h34.55.196,lexical_decision_task_DD,2021.2.3,Win32,59.89458553,,,,,,,,,,,0.6831,1,,,,,,,,,,,,,,,,,,,,,,,,-0.027777752,-0.400000027,0,0,0,,,,,,,GRANNY,LB,z,m,./images/GRANNYLB.png,,,,,,,,z,1,0.6831,,,,,,,,0,148,148,104,1
,,,,,,,,,,,,,,,,,198796,18,2022-01-28_19h34.55.196,lexical_decision_task_DD,2021.2.3,Win32,59.89458553,,,,,,,,,,,0.7964,1,,,,,,,,,,,,,,,,,,,,,,,,-0.027777752,-0.400000027,0,0,0,,,,,,,PEACH,LB,m,m,./images/PEACHLB.png,,,,,,,,m,1,0.7964,,,,,,,,0,149,149,35,1
,,,,,,,,,,,,,,,,,198796,18,2022-01-28_19h34.55.196,lexical_decision_task_DD,2021.2.3,Win32,59.89458553,,,,,,,,,,,0.9661,1,,,,,,,,,,,,,,,,,,,,,,,,-0.027777752,-0.400000027,0,0,0,,,,,,,ENGINE,LB,z,m,./images/ENGINELB.png,,,,,,,,z,1,0.9661,,,,,,,,0,150,150,122,1
,,,,,,,,,,,,,,,,,198796,18,2022-01-28_19h34.55.196,lexical_decision_task_DD,2021.2.3,Win32,59.89458553,,,,,,,,,,,0.8553,1,,,,,,,,,,,,,,,,,,,,,,,,-0.027777752,-0.400000027,0,0,0,,,,,,,STOOL,HB,z,m,./images/STOOLHB.png,,,,,,,,z,1,0.8553,,,,,,,,0,151,151,127,1
,,,,,,,,,,,,,,,,,198796,18,2022-01-28_19h34.55.196,lexical_decision_task_DD,2021.2.3,Win32,59.89458553,,,,,,,,,,,1.1529,0,,,,,,,,,,,,,,,,,,,,,,,,-0.027777752,-0.400000027,0,0,0,,,,,,,BIRTH,HB,m,m,./images/BIRTHHB.png,,,,,,,,z,0,1.1529,,,,,,,,0,152,152,37,1
,,,,,,,,,,,,,,,,,198796,18,2022-01-28_19h34.55.196,lexical_decision_task_DD,2021.2.3,Win32,59.89458553,,,,,,,,,,,1.0244,1,,,,,,,,,,,,,,,,,,,,,,,,-0.027777752,-0.400000027,0,0,0,,,,,,,JUNGLE,LB,m,m,./images/JUNGLELB.png,,,,,,,,m,1,1.0244,,,,,,,,0,153,153,83,1
,,,,,,,,,,,,,,,,,198796,18,2022-01-28_19h34.55.196,lexical_decision_task_DD,2021.2.3,Win32,59.89458553,,,,,,,,,,,0.6731,1,,,,,,,,,,,,,,,,,,,,,,,,-0.027777752,-0.400000027,0,0,0,,,,,,,CANOE,HB,z,m,./images/CANOEHB.png,,,,,,,,z,1,0.6731,,,,,,,,0,154,154,142,1
,,,,,,,,,,,,,,,,,198796,18,2022-01-28_19h34.55.196,lexical_decision_task_DD,2021.2.3,Win32,59.89458553,,,,,,,,,,,0.9938,0,,,,,,,,,,,,,,,,,,,,,,,,-0.027777752,-0.400000027,0,0,0,,,,,,,KITTEN,C,m,m,./images/KITTEN.png,,,,,,,,z,0,0.9938,,,,,,,,0,155,155,45,1
,,,,,,,,,,,,,,,,,198796,18,2022-01-28_19h34.55.196,lexical_decision_task_DD,2021.2.3,Win32,59.89458553,,,,,,,,,,,0.679,0,,,,,,,,,,,,,,,,,,,,,,,,-0.027777752,-0.400000027,0,0,0,,,,,,,BURIAL,LB,m,m,./images/BURIALLB.png,,,,,,,,z,0,0.679,,,,,,,,0,156,156,59,1
,,,,,,,,,,,,,,,,,198796,18,2022-01-28_19h34.55.196,lexical_decision_task_DD,2021.2.3,Win32,59.89458553,,,,,,,,,,,0.891,0,,,,,,,,,,,,,,,,,,,,,,,,-0.027777752,-0.400000027,0,0,0,,,,,,,POKER,HB,z,m,./images/POKERHB.png,,,,,,,,m,0,0.891,,,,,,,,0,157,157,151,1
,,,,,,,,,,,,,,,,,198796,18,2022-01-28_19h34.55.196,lexical_decision_task_DD,2021.2.3,Win32,59.89458553,,,,,,,,,,,0.9,1,,,,,,,,,,,,,,,,,,,,,,,,-0.027777752,-0.400000027,0,0,0,,,,,,,DOUGH,HB,m,m,./images/DOUGHHB.png,,,,,,,,m,1,0.9,,,,,,,,0,158,158,19,1
,,,,,,,,,,,,,,,,,198796,18,2022-01-28_19h34.55.196,lexical_decision_task_DD,2021.2.3,Win32,59.89458553,,,,,,,,,,,0.7139,1,,,,,,,,,,,,,,,,,,,,,,,,-0.027777752,-0.400000027,0,0,0,,,,,,,PARCEL,C,z,m,./images/PARCEL.png,,,,,,,,z,1,0.7139,,,,,,,,0,159,159,102,1
,,,,,,,,,,,,,,,,,198796,18,2022-01-28_19h34.55.196,lexical_decision_task_DD,2021.2.3,Win32,59.89458553,,,,,,,,,,,0.7231,1,,,,,,,,,,,,,,,,,,,,,,,,-0.027777752,-0.400000027,0,0,0,,,,,,,STOVE,LB,z,m,./images/STOVELB.png,,,,,,,,z,1,0.7231,,,,,,,,0,160,160,86,1
,,,,,,,,,,,,,,,,,198796,18,2022-01-28_19h34.55.196,lexical_decision_task_DD,2021.2.3,Win32,59.89458553,,,,,,,,,,,1.2622,1,,,,,,,,,,,,,,,,,,,,,,,,-0.027777752,-0.400000027,0,0,0,,,,,,,MIDGET,HB,z,m,./images/MIDGETHB.png,,,,,,,,z,1,1.2622,,,,,,,,0,161,161,160,1
,,,,,,,,,,,,,,,,,198796,18,2022-01-28_19h34.55.196,lexical_decision_task_DD,2021.2.3,Win32,59.89458553,,,,,,,,,,,2.5631,0,,,,,,,,,,,,,,,,,,,,,,,,-0.027777752,-0.400000027,0,0,0,,,,,,,FALCON,HB,m,m,./images/FALCONHB.png,,,,,,,,z,0,2.5631,,,,,,,,0,162,162,28,1
,,,,,,,,,,,,,,,,,198796,18,2022-01-28_19h34.55.196,lexical_decision_task_DD,2021.2.3,Win32,59.89458553,,,,,,,,,,,1.1339,0,,,,,,,,,,,,,,,,,,,,,,,,-0.027777752,-0.400000027,0,0,0,,,,,,,SKIING,LB,m,m,./images/SKIINGLB.png,,,,,,,,z,0,1.1339,,,,,,,,0,163,163,17,1
,,,,,,,,,,,,,,,,,198796,18,2022-01-28_19h34.55.196,lexical_decision_task_DD,2021.2.3,Win32,59.89458553,,,,,,,,,,,1.0745,1,,,,,,,,,,,,,,,,,,,,,,,,-0.027777752,-0.400000027,0,0,0,,,,,,,STORM,C,m,m,./images/STORM.png,,,,,,,,m,1,1.0745,,,,,,,,0,164,164,30,1
,,,,,,,,,,,,,,,,,198796,18,2022-01-28_19h34.55.196,lexical_decision_task_DD,2021.2.3,Win32,59.89458553,,,,,,,,,,,1.1851,1,,,,,,,,,,,,,,,,,,,,,,,,-0.027777752,-0.400000027,0,0,0,,,,,,,TOMATO,C,m,m,./images/TOMATO.png,,,,,,,,m,1,1.1851,,,,,,,,0,165,165,0,1
,,,,,,,,,,,,,,,,,198796,18,2022-01-28_19h34.55.196,lexical_decision_task_DD,2021.2.3,Win32,59.89458553,,,,,,,,,,,1.6686,1,,,,,,,,,,,,,,,,,,,,,,,,-0.027777752,-0.400000027,0,0,0,,,,,,,MEDAL,LB,z,m,./images/MEDALLB.png,,,,,,,,z,1,1.6686,,,,,,,,0,166,166,95,1
,,,,,,,,,,,,,,,,,198796,18,2022-01-28_19h34.55.196,lexical_decision_task_DD,2021.2.3,Win32,59.89458553,,,,,,,,,,,1.2839,1,,,,,,,,,,,,,,,,,,,,,,,,-0.027777752,-0.400000027,0,0,0,,,,,,,TORCH,LB,m,m,./images/TORCHLB.png,,,,,,,,m,1,1.2839,,,,,,,,0,167,167,68,1
