key_resp.keys,key_resp.rt,instr_done_touch.x,instr_done_touch.y,instr_done_touch.leftButton,instr_done_touch.midButton,instr_done_touch.rightButton,instruction_pages.thisRepN,instruction_pages.thisTrialN,instruction_pages.thisN,instruction_pages.thisIndex,instruction_pages.ran,pageN,phase,instruct_text,has_image,instruct_image,participant,age,date,expName,psychopyVersion,OS,frameRate,response.keys,response.corr,response.rt,touch_resp.x,touch_resp.y,touch_resp.leftButton,touch_resp.midButton,touch_resp.rightButton,touch_resp.time,touch_resp.clicked_name,rt,corr,practrials.thisRepN,practrials.thisTrialN,practrials.thisN,practrials.thisIndex,practrials.ran,TrialID,Target,corrAns,instr_done_touch.clicked_name,end_of_practice_trials_pages.thisRepN,end_of_practice_trials_pages.thisTrialN,end_of_practice_trials_pages.thisN,end_of_practice_trials_pages.thisIndex,end_of_practice_trials_pages.ran,key_resp_2.keys,key_resp_2.corr,key_resp_2.rt,targ_click.x,targ_click.y,targ_click.leftButton,targ_click.midButton,targ_click.rightButton,targ_click.time,targ_click.clicked_name,break_done_touch.x,break_done_touch.y,break_done_touch.leftButton,break_done_touch.midButton,break_done_touch.rightButton,break_done_keyboard.keys,maintrials.thisRepN,maintrials.thisTrialN,maintrials.thisN,maintrials.thisIndex,maintrials.ran,string,blur,study,lex,stim_path,break_done_keyboard.rt,test_instructions.thisRepN,test_instructions.thisTrialN,test_instructions.thisN,test_instructions.thisIndex,test_instructions.ran,key_resp_3.keys,key_resp_3.corr,key_resp_3.rt,test_click.x,test_click.y,test_click.leftButton,test_click.midButton,test_click.rightButton,test_click.time,test_click.clicked_name,test_phase.thisRepN,test_phase.thisTrialN,test_phase.thisN,test_phase.thisIndex,test_phase.ran,break_done_touch.clicked_name
space,13.3349,0.058294271,-0.386267361,0,0,0,0,0,0,0,1,1,instructions,"INSTRUCTIONS
At the start of each trial, look at the plus sign  (+) in the center of the screen.  This tells you that a trial is about to begin and where to look. Second, the plus sign will disappear and a string of letters will appear. Your task is to determine if the string of letters is a word or not. If the item is a word press the M key (on keyboard)  or touch the word button (phone/tablet).  If the item is not a word,  press the  Z key (on keyboard)  or touch the nonword button (on phone/tablet). 
Press the space bar or touch  continue.",0,,198706,,2022-01-28_16h03.40.734,lexical_decision_task_DD_L2,2021.2.3,MacIntel,59.99880002,,,,,,,,,,,,,,,,,,,,,,,,,,,,,,,,,,,,,,,,,,,,,,,,,,,,,,,,,,,,,,,,,,,,,,,,,,
space,3.3162,0.058294271,-0.386267361,0,0,0,0,1,1,1,1,2,instructions,"If your device has a keyboard, press the 'Z' key for nonwords and the 'M' key for words.





Press the space bar or touch the button below to continue.",0,keyboard-example.gif,198706,,2022-01-28_16h03.40.734,lexical_decision_task_DD_L2,2021.2.3,MacIntel,59.99880002,,,,,,,,,,,,,,,,,,,,,,,,,,,,,,,,,,,,,,,,,,,,,,,,,,,,,,,,,,,,,,,,,,,,,,,,,,
space,2.795,0.058294271,-0.386267361,0,0,0,0,2,2,2,1,3,instructions,"If you are using a touchscreen only device, use the buttons on the screen. Do not use the mouse.





Press the space bar or touch the button below to continue.",0,touchscreen-example.gif,198706,,2022-01-28_16h03.40.734,lexical_decision_task_DD_L2,2021.2.3,MacIntel,59.99880002,,,,,,,,,,,,,,,,,,,,,,,,,,,,,,,,,,,,,,,,,,,,,,,,,,,,,,,,,,,,,,,,,,,,,,,,,,
space,4.2697,0.058294271,-0.386267361,0,0,0,0,3,3,3,1,4,instructions,"It is very important that you respond as quickly and accurately as possible, as each letter string will only be on the screen for two seconds. If you do not respond within this time, the message 'Too slow!' will be displayed and the experiment will progress to the next letter string. The first 20 trials will be practice trials and you will receive feedback on your answers. 

Press the space bar or touch the button below to start the practice trials.",0,,198706,,2022-01-28_16h03.40.734,lexical_decision_task_DD_L2,2021.2.3,MacIntel,59.99880002,,,,,,,,,,,,,,,,,,,,,,,,,,,,,,,,,,,,,,,,,,,,,,,,,,,,,,,,,,,,,,,,,,,,,,,,,,
,,,,,,,,,,,,,,,,,198706,,2022-01-28_16h03.40.734,lexical_decision_task_DD_L2,2021.2.3,MacIntel,59.99880002,z,1,1.6799,,,,,,,,1.6799,1,0,0,0,13,1,1001,ROUPET,z,,,,,,,,,,,,,,,,,,,,,,,,,,,,,,,,,,,,,,,,,,,,,,,,,,,,,,
,,,,,,,,,,,,,,,,,198706,,2022-01-28_16h03.40.734,lexical_decision_task_DD_L2,2021.2.3,MacIntel,59.99880002,m,0,0.9672,,,,,,,,0.9672,0,0,1,1,11,1,1001,RASHET,z,,,,,,,,,,,,,,,,,,,,,,,,,,,,,,,,,,,,,,,,,,,,,,,,,,,,,,
,,,,,,,,,,,,,,,,,198706,,2022-01-28_16h03.40.734,lexical_decision_task_DD_L2,2021.2.3,MacIntel,59.99880002,m,0,1.0978,,,,,,,,1.0978,0,0,2,2,10,1,1001,INLADE,z,,,,,,,,,,,,,,,,,,,,,,,,,,,,,,,,,,,,,,,,,,,,,,,,,,,,,,
,,,,,,,,,,,,,,,,,198706,,2022-01-28_16h03.40.734,lexical_decision_task_DD_L2,2021.2.3,MacIntel,59.99880002,m,1,0.7618,,,,,,,,0.7618,1,0,3,3,7,1,1001,VOLUME,m,,,,,,,,,,,,,,,,,,,,,,,,,,,,,,,,,,,,,,,,,,,,,,,,,,,,,,
,,,,,,,,,,,,,,,,,198706,,2022-01-28_16h03.40.734,lexical_decision_task_DD_L2,2021.2.3,MacIntel,59.99880002,z,1,0.9209,,,,,,,,0.9209,1,0,4,4,8,1,1001,ASLERT,z,,,,,,,,,,,,,,,,,,,,,,,,,,,,,,,,,,,,,,,,,,,,,,,,,,,,,,
,,,,,,,,,,,,,,,,,198706,,2022-01-28_16h03.40.734,lexical_decision_task_DD_L2,2021.2.3,MacIntel,59.99880002,m,0,1.1351,,,,,,,,1.1351,0,0,5,5,9,1,1001,FARINY,z,,,,,,,,,,,,,,,,,,,,,,,,,,,,,,,,,,,,,,,,,,,,,,,,,,,,,,
,,,,,,,,,,,,,,,,,198706,,2022-01-28_16h03.40.734,lexical_decision_task_DD_L2,2021.2.3,MacIntel,59.99880002,m,1,0.8306,,,,,,,,0.8306,1,0,6,6,0,1,1001,UTOPIA,m,,,,,,,,,,,,,,,,,,,,,,,,,,,,,,,,,,,,,,,,,,,,,,,,,,,,,,
,,,,,,,,,,,,,,,,,198706,,2022-01-28_16h03.40.734,lexical_decision_task_DD_L2,2021.2.3,MacIntel,59.99880002,m,1,0.759,,,,,,,,0.759,1,0,7,7,4,1,1001,SQUEAK,m,,,,,,,,,,,,,,,,,,,,,,,,,,,,,,,,,,,,,,,,,,,,,,,,,,,,,,
,,,,,,,,,,,,,,,,,198706,,2022-01-28_16h03.40.734,lexical_decision_task_DD_L2,2021.2.3,MacIntel,59.99880002,m,0,1.1015,,,,,,,,1.1015,0,0,8,8,14,1,1001,THRALE,z,,,,,,,,,,,,,,,,,,,,,,,,,,,,,,,,,,,,,,,,,,,,,,,,,,,,,,
,,,,,,,,,,,,,,,,,198706,,2022-01-28_16h03.40.734,lexical_decision_task_DD_L2,2021.2.3,MacIntel,59.99880002,m,1,0.6454,,,,,,,,0.6454,1,0,9,9,3,1,1001,MATRIX,m,,,,,,,,,,,,,,,,,,,,,,,,,,,,,,,,,,,,,,,,,,,,,,,,,,,,,,
,,,,,,,,,,,,,,,,,198706,,2022-01-28_16h03.40.734,lexical_decision_task_DD_L2,2021.2.3,MacIntel,59.99880002,m,1,0.6802,,,,,,,,0.6802,1,0,10,10,2,1,1001,ALMOND,m,,,,,,,,,,,,,,,,,,,,,,,,,,,,,,,,,,,,,,,,,,,,,,,,,,,,,,
,,,,,,,,,,,,,,,,,198706,,2022-01-28_16h03.40.734,lexical_decision_task_DD_L2,2021.2.3,MacIntel,59.99880002,m,1,0.6287,,,,,,,,0.6287,1,0,11,11,1,1,1001,ADJUST,m,,,,,,,,,,,,,,,,,,,,,,,,,,,,,,,,,,,,,,,,,,,,,,,,,,,,,,
,,,,,,,,,,,,,,,,,198706,,2022-01-28_16h03.40.734,lexical_decision_task_DD_L2,2021.2.3,MacIntel,59.99880002,m,1,0.5952,,,,,,,,0.5952,1,0,12,12,5,1,1001,OBTAIN,m,,,,,,,,,,,,,,,,,,,,,,,,,,,,,,,,,,,,,,,,,,,,,,,,,,,,,,
,,,,,,,,,,,,,,,,,198706,,2022-01-28_16h03.40.734,lexical_decision_task_DD_L2,2021.2.3,MacIntel,59.99880002,m,1,0.7269,,,,,,,,0.7269,1,0,13,13,6,1,1001,ZOMBIE,m,,,,,,,,,,,,,,,,,,,,,,,,,,,,,,,,,,,,,,,,,,,,,,,,,,,,,,
,,,,,,,,,,,,,,,,,198706,,2022-01-28_16h03.40.734,lexical_decision_task_DD_L2,2021.2.3,MacIntel,59.99880002,z,1,0.8366,,,,,,,,0.8366,1,0,14,14,15,1,1001,WHAISE,z,,,,,,,,,,,,,,,,,,,,,,,,,,,,,,,,,,,,,,,,,,,,,,,,,,,,,,
,,,,,,,,,,,,,,,,,198706,,2022-01-28_16h03.40.734,lexical_decision_task_DD_L2,2021.2.3,MacIntel,59.99880002,z,1,1.0316,,,,,,,,1.0316,1,0,15,15,12,1,1001,SPRINY,z,,,,,,,,,,,,,,,,,,,,,,,,,,,,,,,,,,,,,,,,,,,,,,,,,,,,,,
,,0.059340278,-0.37843316,1,0,0,,,,,,1,end_of_practice,"You have completed the practice trials. During the experimental trials, you will not receive feedback. 
Before you begin, please ensure that you are in a comfortable and quiet location and will not be disturbed for about 15 minutes, as we cannot use your data if you do not complete all the trials. 
 When you are ready to start the experimental trials, please press space or touch the button below.",,,198706,,2022-01-28_16h03.40.734,lexical_decision_task_DD_L2,2021.2.3,MacIntel,59.99880002,,,,,,,,,,,,,,,,,,,,,instr_done_button,0,0,0,0,1,,,,,,,,,,,,,,,,,,,,,,,,,,,,,,,,,,,,,,,,,,,,,,,,
,,,,,,,,,,,,,,,,,198706,,2022-01-28_16h03.40.734,lexical_decision_task_DD_L2,2021.2.3,MacIntel,59.99880002,,,,,,,,,,,6.0492,1,,,,,,,,,,,,,,,z,1,6.0492,,,,,,,,0.059340278,-0.37843316,0,0,0,,0,0,0,112,1,MYING,HB,old,z,./images/MYINGHB.png,,,,,,,,,,,,,,,,,,,,,,
,,,,,,,,,,,,,,,,,198706,,2022-01-28_16h03.40.734,lexical_decision_task_DD_L2,2021.2.3,MacIntel,59.99880002,,,,,,,,,,,0.8357,1,,,,,,,,,,,,,,,m,1,0.8357,,,,,,,,0.059340278,-0.37843316,0,0,0,,0,1,1,80,1,WEASEL,C,old,m,./images/WEASEL.png,,,,,,,,,,,,,,,,,,,,,,
,,,,,,,,,,,,,,,,,198706,,2022-01-28_16h03.40.734,lexical_decision_task_DD_L2,2021.2.3,MacIntel,59.99880002,,,,,,,,,,,0.7886,1,,,,,,,,,,,,,,,m,1,0.7886,,,,,,,,0.059340278,-0.37843316,0,0,0,,0,2,2,57,1,MOOSE,HB,old,m,./images/MOOSEHB.png,,,,,,,,,,,,,,,,,,,,,,
,,,,,,,,,,,,,,,,,198706,,2022-01-28_16h03.40.734,lexical_decision_task_DD_L2,2021.2.3,MacIntel,59.99880002,,,,,,,,,,,0.6493,1,,,,,,,,,,,,,,,m,1,0.6493,,,,,,,,0.059340278,-0.37843316,0,0,0,,0,3,3,20,1,CRADLE,C,old,m,./images/CRADLE.png,,,,,,,,,,,,,,,,,,,,,,
,,,,,,,,,,,,,,,,,198706,,2022-01-28_16h03.40.734,lexical_decision_task_DD_L2,2021.2.3,MacIntel,59.99880002,,,,,,,,,,,0.6456,1,,,,,,,,,,,,,,,m,1,0.6456,,,,,,,,0.059340278,-0.37843316,0,0,0,,0,4,4,70,1,URINE,LB,old,m,./images/URINELB.png,,,,,,,,,,,,,,,,,,,,,,
,,,,,,,,,,,,,,,,,198706,,2022-01-28_16h03.40.734,lexical_decision_task_DD_L2,2021.2.3,MacIntel,59.99880002,,,,,,,,,,,0.7207,1,,,,,,,,,,,,,,,z,1,0.7207,,,,,,,,0.059340278,-0.37843316,0,0,0,,0,5,5,84,1,HAXES,C,old,z,./images/HAXES.png,,,,,,,,,,,,,,,,,,,,,,
,,,,,,,,,,,,,,,,,198706,,2022-01-28_16h03.40.734,lexical_decision_task_DD_L2,2021.2.3,MacIntel,59.99880002,,,,,,,,,,,0.6643,1,,,,,,,,,,,,,,,m,1,0.6643,,,,,,,,0.059340278,-0.37843316,0,0,0,,0,6,6,78,1,LITTER,HB,old,m,./images/LITTERHB.png,,,,,,,,,,,,,,,,,,,,,,
,,,,,,,,,,,,,,,,,198706,,2022-01-28_16h03.40.734,lexical_decision_task_DD_L2,2021.2.3,MacIntel,59.99880002,,,,,,,,,,,0.6304,1,,,,,,,,,,,,,,,m,1,0.6304,,,,,,,,0.059340278,-0.37843316,0,0,0,,0,7,7,27,1,ATTIC,HB,old,m,./images/ATTICHB.png,,,,,,,,,,,,,,,,,,,,,,
,,,,,,,,,,,,,,,,,198706,,2022-01-28_16h03.40.734,lexical_decision_task_DD_L2,2021.2.3,MacIntel,59.99880002,,,,,,,,,,,0.8307,1,,,,,,,,,,,,,,,z,1,0.8307,,,,,,,,0.059340278,-0.37843316,0,0,0,,0,8,8,124,1,TUNCH,HB,old,z,./images/TUNCHHB.png,,,,,,,,,,,,,,,,,,,,,,
,,,,,,,,,,,,,,,,,198706,,2022-01-28_16h03.40.734,lexical_decision_task_DD_L2,2021.2.3,MacIntel,59.99880002,,,,,,,,,,,0.7141,1,,,,,,,,,,,,,,,z,1,0.7141,,,,,,,,0.059340278,-0.37843316,0,0,0,,0,9,9,137,1,JOOST,LB,old,z,./images/JOOSTLB.png,,,,,,,,,,,,,,,,,,,,,,
,,,,,,,,,,,,,,,,,198706,,2022-01-28_16h03.40.734,lexical_decision_task_DD_L2,2021.2.3,MacIntel,59.99880002,,,,,,,,,,,0.6682,1,,,,,,,,,,,,,,,m,1,0.6682,,,,,,,,0.059340278,-0.37843316,0,0,0,,0,10,10,23,1,WALRUS,C,old,m,./images/WALRUS.png,,,,,,,,,,,,,,,,,,,,,,
,,,,,,,,,,,,,,,,,198706,,2022-01-28_16h03.40.734,lexical_decision_task_DD_L2,2021.2.3,MacIntel,59.99880002,,,,,,,,,,,0.6383,1,,,,,,,,,,,,,,,m,1,0.6383,,,,,,,,0.059340278,-0.37843316,0,0,0,,0,11,11,83,1,JUNGLE,C,old,m,./images/JUNGLE.png,,,,,,,,,,,,,,,,,,,,,,
,,,,,,,,,,,,,,,,,198706,,2022-01-28_16h03.40.734,lexical_decision_task_DD_L2,2021.2.3,MacIntel,59.99880002,,,,,,,,,,,1.3148,1,,,,,,,,,,,,,,,z,1,1.3148,,,,,,,,0.059340278,-0.37843316,0,0,0,,0,12,12,115,1,MAWNS,HB,old,z,./images/MAWNSHB.png,,,,,,,,,,,,,,,,,,,,,,
,,,,,,,,,,,,,,,,,198706,,2022-01-28_16h03.40.734,lexical_decision_task_DD_L2,2021.2.3,MacIntel,59.99880002,,,,,,,,,,,0.7481,1,,,,,,,,,,,,,,,z,1,0.7481,,,,,,,,0.059340278,-0.37843316,0,0,0,,0,13,13,89,1,DRIEK,LB,old,z,./images/DRIEKLB.png,,,,,,,,,,,,,,,,,,,,,,
,,,,,,,,,,,,,,,,,198706,,2022-01-28_16h03.40.734,lexical_decision_task_DD_L2,2021.2.3,MacIntel,59.99880002,,,,,,,,,,,0.7435,1,,,,,,,,,,,,,,,z,1,0.7435,,,,,,,,0.059340278,-0.37843316,0,0,0,,0,14,14,144,1,NAIRY,C,old,z,./images/NAIRY.png,,,,,,,,,,,,,,,,,,,,,,
,,,,,,,,,,,,,,,,,198706,,2022-01-28_16h03.40.734,lexical_decision_task_DD_L2,2021.2.3,MacIntel,59.99880002,,,,,,,,,,,0.582,1,,,,,,,,,,,,,,,m,1,0.582,,,,,,,,0.059340278,-0.37843316,0,0,0,,0,15,15,45,1,KITTEN,HB,old,m,./images/KITTENHB.png,,,,,,,,,,,,,,,,,,,,,,
,,,,,,,,,,,,,,,,,198706,,2022-01-28_16h03.40.734,lexical_decision_task_DD_L2,2021.2.3,MacIntel,59.99880002,,,,,,,,,,,0.6169,1,,,,,,,,,,,,,,,m,1,0.6169,,,,,,,,0.059340278,-0.37843316,0,0,0,,0,16,16,1,1,PLANK,LB,old,m,./images/PLANKLB.png,,,,,,,,,,,,,,,,,,,,,,
,,,,,,,,,,,,,,,,,198706,,2022-01-28_16h03.40.734,lexical_decision_task_DD_L2,2021.2.3,MacIntel,59.99880002,,,,,,,,,,,0.5592,1,,,,,,,,,,,,,,,m,1,0.5592,,,,,,,,0.059340278,-0.37843316,0,0,0,,0,17,17,49,1,DRUMS,LB,old,m,./images/DRUMSLB.png,,,,,,,,,,,,,,,,,,,,,,
,,,,,,,,,,,,,,,,,198706,,2022-01-28_16h03.40.734,lexical_decision_task_DD_L2,2021.2.3,MacIntel,59.99880002,,,,,,,,,,,0.6472,1,,,,,,,,,,,,,,,z,1,0.6472,,,,,,,,0.059340278,-0.37843316,0,0,0,,0,18,18,98,1,BAMPS,LB,old,z,./images/BAMPSLB.png,,,,,,,,,,,,,,,,,,,,,,
,,,,,,,,,,,,,,,,,198706,,2022-01-28_16h03.40.734,lexical_decision_task_DD_L2,2021.2.3,MacIntel,59.99880002,,,,,,,,,,,0.6308,1,,,,,,,,,,,,,,,m,1,0.6308,,,,,,,,0.059340278,-0.37843316,0,0,0,,0,19,19,7,1,PAINT,LB,old,m,./images/PAINTLB.png,,,,,,,,,,,,,,,,,,,,,,
,,,,,,,,,,,,,,,,,198706,,2022-01-28_16h03.40.734,lexical_decision_task_DD_L2,2021.2.3,MacIntel,59.99880002,,,,,,,,,,,0.6299,1,,,,,,,,,,,,,,,m,1,0.6299,,,,,,,,0.059340278,-0.37843316,0,0,0,,0,20,20,40,1,SWING,LB,old,m,./images/SWINGLB.png,,,,,,,,,,,,,,,,,,,,,,
,,,,,,,,,,,,,,,,,198706,,2022-01-28_16h03.40.734,lexical_decision_task_DD_L2,2021.2.3,MacIntel,59.99880002,,,,,,,,,,,0.6133,1,,,,,,,,,,,,,,,m,1,0.6133,,,,,,,,0.059340278,-0.37843316,0,0,0,,0,21,21,22,1,MELON,LB,old,m,./images/MELONLB.png,,,,,,,,,,,,,,,,,,,,,,
,,,,,,,,,,,,,,,,,198706,,2022-01-28_16h03.40.734,lexical_decision_task_DD_L2,2021.2.3,MacIntel,59.99880002,,,,,,,,,,,1.9302,1,,,,,,,,,,,,,,,z,1,1.9302,,,,,,,,0.059340278,-0.37843316,0,0,0,,0,22,22,139,1,BLEAR,HB,old,z,./images/BLEARHB.png,,,,,,,,,,,,,,,,,,,,,,
,,,,,,,,,,,,,,,,,198706,,2022-01-28_16h03.40.734,lexical_decision_task_DD_L2,2021.2.3,MacIntel,59.99880002,,,,,,,,,,,0.8915,1,,,,,,,,,,,,,,,z,1,0.8915,,,,,,,,0.059340278,-0.37843316,0,0,0,,0,23,23,159,1,CUDDY,C,old,z,./images/CUDDY.png,,,,,,,,,,,,,,,,,,,,,,
,,,,,,,,,,,,,,,,,198706,,2022-01-28_16h03.40.734,lexical_decision_task_DD_L2,2021.2.3,MacIntel,59.99880002,,,,,,,,,,,0.7471,1,,,,,,,,,,,,,,,m,1,0.7471,,,,,,,,0.059340278,-0.37843316,0,0,0,,0,24,24,48,1,SPORT,HB,old,m,./images/SPORTHB.png,,,,,,,,,,,,,,,,,,,,,,
,,,,,,,,,,,,,,,,,198706,,2022-01-28_16h03.40.734,lexical_decision_task_DD_L2,2021.2.3,MacIntel,59.99880002,,,,,,,,,,,1.5125,1,,,,,,,,,,,,,,,z,1,1.5125,,,,,,,,0.059340278,-0.37843316,0,0,0,,0,25,25,155,1,CANGY,LB,old,z,./images/CANGYLB.png,,,,,,,,,,,,,,,,,,,,,,
,,,,,,,,,,,,,,,,,198706,,2022-01-28_16h03.40.734,lexical_decision_task_DD_L2,2021.2.3,MacIntel,59.99880002,,,,,,,,,,,1.2193,1,,,,,,,,,,,,,,,z,1,1.2193,,,,,,,,0.059340278,-0.37843316,0,0,0,,0,26,26,163,1,GAMBA,HB,old,z,./images/GAMBAHB.png,,,,,,,,,,,,,,,,,,,,,,
,,,,,,,,,,,,,,,,,198706,,2022-01-28_16h03.40.734,lexical_decision_task_DD_L2,2021.2.3,MacIntel,59.99880002,,,,,,,,,,,0.6214,1,,,,,,,,,,,,,,,z,1,0.6214,,,,,,,,0.059340278,-0.37843316,0,0,0,,0,27,27,153,1,CLUPS,C,old,z,./images/CLUPS.png,,,,,,,,,,,,,,,,,,,,,,
,,,,,,,,,,,,,,,,,198706,,2022-01-28_16h03.40.734,lexical_decision_task_DD_L2,2021.2.3,MacIntel,59.99880002,,,,,,,,,,,0.6324,1,,,,,,,,,,,,,,,m,1,0.6324,,,,,,,,0.059340278,-0.37843316,0,0,0,,0,28,28,3,1,FINGER,HB,old,m,./images/FINGERHB.png,,,,,,,,,,,,,,,,,,,,,,
,,,,,,,,,,,,,,,,,198706,,2022-01-28_16h03.40.734,lexical_decision_task_DD_L2,2021.2.3,MacIntel,59.99880002,,,,,,,,,,,0.6815,1,,,,,,,,,,,,,,,m,1,0.6815,,,,,,,,0.059340278,-0.37843316,0,0,0,,0,29,29,82,1,SUNSET,LB,old,m,./images/SUNSETLB.png,,,,,,,,,,,,,,,,,,,,,,
,,,,,,,,,,,,,,,,,198706,,2022-01-28_16h03.40.734,lexical_decision_task_DD_L2,2021.2.3,MacIntel,59.99880002,,,,,,,,,,,0.5502,1,,,,,,,,,,,,,,,z,1,0.5502,,,,,,,,0.059340278,-0.37843316,0,0,0,,0,30,30,131,1,NACES,LB,old,z,./images/NACESLB.png,,,,,,,,,,,,,,,,,,,,,,
,,,,,,,,,,,,,,,,,198706,,2022-01-28_16h03.40.734,lexical_decision_task_DD_L2,2021.2.3,MacIntel,59.99880002,,,,,,,,,,,0.873,1,,,,,,,,,,,,,,,z,1,0.873,,,,,,,,0.059340278,-0.37843316,0,0,0,,0,31,31,85,1,CHULK,HB,old,z,./images/CHULKHB.png,,,,,,,,,,,,,,,,,,,,,,
,,,,,,,,,,,,,,,,,198706,,2022-01-28_16h03.40.734,lexical_decision_task_DD_L2,2021.2.3,MacIntel,59.99880002,,,,,,,,,,,0.6397,1,,,,,,,,,,,,,,,m,1,0.6397,,,,,,,,0.059340278,-0.37843316,0,0,0,,0,32,32,77,1,COUCH,C,old,m,./images/COUCH.png,,,,,,,,,,,,,,,,,,,,,,
,,,,,,,,,,,,,,,,,198706,,2022-01-28_16h03.40.734,lexical_decision_task_DD_L2,2021.2.3,MacIntel,59.99880002,,,,,,,,,,,0.7311,1,,,,,,,,,,,,,,,z,1,0.7311,,,,,,,,0.059340278,-0.37843316,0,0,0,,0,33,33,122,1,BLOOT,LB,old,z,./images/BLOOTLB.png,,,,,,,,,,,,,,,,,,,,,,
,,,,,,,,,,,,,,,,,198706,,2022-01-28_16h03.40.734,lexical_decision_task_DD_L2,2021.2.3,MacIntel,59.99880002,,,,,,,,,,,0.4758,1,,,,,,,,,,,,,,,m,1,0.4758,,,,,,,,0.059340278,-0.37843316,0,0,0,,0,34,34,14,1,PICKLE,C,old,m,./images/PICKLE.png,,,,,,,,,,,,,,,,,,,,,,
,,,,,,,,,,,,,,,,,198706,,2022-01-28_16h03.40.734,lexical_decision_task_DD_L2,2021.2.3,MacIntel,59.99880002,,,,,,,,,,,0.6148,1,,,,,,,,,,,,,,,m,1,0.6148,,,,,,,,0.059340278,-0.37843316,0,0,0,,0,35,35,15,1,GREASE,HB,old,m,./images/GREASEHB.png,,,,,,,,,,,,,,,,,,,,,,
,,,,,,,,,,,,,,,,,198706,,2022-01-28_16h03.40.734,lexical_decision_task_DD_L2,2021.2.3,MacIntel,59.99880002,,,,,,,,,,,0.7158,1,,,,,,,,,,,,,,,z,1,0.7158,,,,,,,,0.059340278,-0.37843316,0,0,0,,0,36,36,119,1,PAFER,LB,old,z,./images/PAFERLB.png,,,,,,,,,,,,,,,,,,,,,,
,,,,,,,,,,,,,,,,,198706,,2022-01-28_16h03.40.734,lexical_decision_task_DD_L2,2021.2.3,MacIntel,59.99880002,,,,,,,,,,,0.5822,1,,,,,,,,,,,,,,,m,1,0.5822,,,,,,,,0.059340278,-0.37843316,0,0,0,,0,37,37,4,1,MUSCLE,LB,old,m,./images/MUSCLELB.png,,,,,,,,,,,,,,,,,,,,,,
,,,,,,,,,,,,,,,,,198706,,2022-01-28_16h03.40.734,lexical_decision_task_DD_L2,2021.2.3,MacIntel,59.99880002,,,,,,,,,,,0.5599,1,,,,,,,,,,,,,,,z,1,0.5599,,,,,,,,0.059340278,-0.37843316,0,0,0,,0,38,38,117,1,STEEG,C,old,z,./images/STEEG.png,,,,,,,,,,,,,,,,,,,,,,
,,,,,,,,,,,,,,,,,198706,,2022-01-28_16h03.40.734,lexical_decision_task_DD_L2,2021.2.3,MacIntel,59.99880002,,,,,,,,,,,0.5188,1,,,,,,,,,,,,,,,m,1,0.5188,,,,,,,,0.059340278,-0.37843316,0,0,0,,0,39,39,75,1,GRAIN,HB,old,m,./images/GRAINHB.png,,,,,,,,,,,,,,,,,,,,,,
,,,,,,,,,,,,,,,,,198706,,2022-01-28_16h03.40.734,lexical_decision_task_DD_L2,2021.2.3,MacIntel,59.99880002,,,,,,,,,,,0.7315,1,,,,,,,,,,,,,,,m,1,0.7315,,,,,,,,0.059340278,-0.37843316,0,0,0,,0,40,40,10,1,BELLY,LB,old,m,./images/BELLYLB.png,,,,,,,,,,,,,,,,,,,,,,
,,,,,,,,,,,,,,,,,198706,,2022-01-28_16h03.40.734,lexical_decision_task_DD_L2,2021.2.3,MacIntel,59.99880002,,,,,,,,,,,0.8482,1,,,,,,,,,,,,,,,z,1,0.8482,,,,,,,,-0.002083333,-0.360416667,0,0,0,space,0,41,41,154,1,THINT,HB,old,z,./images/THINTHB.png,6.9521,,,,,,,,,,,,,,,,,,,,,
,,,,,,,,,,,,,,,,,198706,,2022-01-28_16h03.40.734,lexical_decision_task_DD_L2,2021.2.3,MacIntel,59.99880002,,,,,,,,,,,0.5981,1,,,,,,,,,,,,,,,m,1,0.5981,,,,,,,,-0.002083333,-0.360416667,0,0,0,,0,42,42,34,1,CANYON,LB,old,m,./images/CANYONLB.png,,,,,,,,,,,,,,,,,,,,,,
,,,,,,,,,,,,,,,,,198706,,2022-01-28_16h03.40.734,lexical_decision_task_DD_L2,2021.2.3,MacIntel,59.99880002,,,,,,,,,,,0.5334,1,,,,,,,,,,,,,,,m,1,0.5334,,,,,,,,-0.002083333,-0.360416667,0,0,0,,0,43,43,30,1,STORM,HB,old,m,./images/STORMHB.png,,,,,,,,,,,,,,,,,,,,,,
,,,,,,,,,,,,,,,,,198706,,2022-01-28_16h03.40.734,lexical_decision_task_DD_L2,2021.2.3,MacIntel,59.99880002,,,,,,,,,,,0.5529,1,,,,,,,,,,,,,,,z,1,0.5529,,,,,,,,-0.002083333,-0.360416667,0,0,0,,0,44,44,102,1,DULLE,C,old,z,./images/DULLE.png,,,,,,,,,,,,,,,,,,,,,,
,,,,,,,,,,,,,,,,,198706,,2022-01-28_16h03.40.734,lexical_decision_task_DD_L2,2021.2.3,MacIntel,59.99880002,,,,,,,,,,,0.7369,1,,,,,,,,,,,,,,,z,1,0.7369,,,,,,,,-0.002083333,-0.360416667,0,0,0,,0,45,45,99,1,BACKY,C,old,z,./images/BACKY.png,,,,,,,,,,,,,,,,,,,,,,
,,,,,,,,,,,,,,,,,198706,,2022-01-28_16h03.40.734,lexical_decision_task_DD_L2,2021.2.3,MacIntel,59.99880002,,,,,,,,,,,0.4546,0,,,,,,,,,,,,,,,z,0,0.4546,,,,,,,,-0.002083333,-0.360416667,0,0,0,,0,46,46,26,1,SMOKER,C,old,m,./images/SMOKER.png,,,,,,,,,,,,,,,,,,,,,,
,,,,,,,,,,,,,,,,,198706,,2022-01-28_16h03.40.734,lexical_decision_task_DD_L2,2021.2.3,MacIntel,59.99880002,,,,,,,,,,,0.6959,1,,,,,,,,,,,,,,,z,1,0.6959,,,,,,,,-0.002083333,-0.360416667,0,0,0,,0,47,47,156,1,HIXES,C,old,z,./images/HIXES.png,,,,,,,,,,,,,,,,,,,,,,
,,,,,,,,,,,,,,,,,198706,,2022-01-28_16h03.40.734,lexical_decision_task_DD_L2,2021.2.3,MacIntel,59.99880002,,,,,,,,,,,0.5527,1,,,,,,,,,,,,,,,z,1,0.5527,,,,,,,,-0.002083333,-0.360416667,0,0,0,,0,48,48,105,1,MOKER,C,old,z,./images/MOKER.png,,,,,,,,,,,,,,,,,,,,,,
,,,,,,,,,,,,,,,,,198706,,2022-01-28_16h03.40.734,lexical_decision_task_DD_L2,2021.2.3,MacIntel,59.99880002,,,,,,,,,,,0.5455,1,,,,,,,,,,,,,,,m,1,0.5455,,,,,,,,-0.002083333,-0.360416667,0,0,0,,0,49,49,24,1,SCREW,HB,old,m,./images/SCREWHB.png,,,,,,,,,,,,,,,,,,,,,,
,,,,,,,,,,,,,,,,,198706,,2022-01-28_16h03.40.734,lexical_decision_task_DD_L2,2021.2.3,MacIntel,59.99880002,,,,,,,,,,,0.5682,1,,,,,,,,,,,,,,,m,1,0.5682,,,,,,,,-0.002083333,-0.360416667,0,0,0,,0,50,50,41,1,STRING,C,old,m,./images/STRING.png,,,,,,,,,,,,,,,,,,,,,,
,,,,,,,,,,,,,,,,,198706,,2022-01-28_16h03.40.734,lexical_decision_task_DD_L2,2021.2.3,MacIntel,59.99880002,,,,,,,,,,,1.8815,1,,,,,,,,,,,,,,,m,1,1.8815,,,,,,,,-0.002083333,-0.360416667,0,0,0,,0,51,51,69,1,COOKER,HB,old,m,./images/COOKERHB.png,,,,,,,,,,,,,,,,,,,,,,
,,,,,,,,,,,,,,,,,198706,,2022-01-28_16h03.40.734,lexical_decision_task_DD_L2,2021.2.3,MacIntel,59.99880002,,,,,,,,,,,0.6815,1,,,,,,,,,,,,,,,z,1,0.6815,,,,,,,,-0.002083333,-0.360416667,0,0,0,,0,52,52,104,1,GITTY,LB,old,z,./images/GITTYLB.png,,,,,,,,,,,,,,,,,,,,,,
,,,,,,,,,,,,,,,,,198706,,2022-01-28_16h03.40.734,lexical_decision_task_DD_L2,2021.2.3,MacIntel,59.99880002,,,,,,,,,,,0.6166,1,,,,,,,,,,,,,,,m,1,0.6166,,,,,,,,-0.002083333,-0.360416667,0,0,0,,0,53,53,42,1,FOLDER,HB,old,m,./images/FOLDERHB.png,,,,,,,,,,,,,,,,,,,,,,
,,,,,,,,,,,,,,,,,198706,,2022-01-28_16h03.40.734,lexical_decision_task_DD_L2,2021.2.3,MacIntel,59.99880002,,,,,,,,,,,0.6585,1,,,,,,,,,,,,,,,z,1,0.6585,,,,,,,,-0.002083333,-0.360416667,0,0,0,,0,54,54,94,1,BLANS,HB,old,z,./images/BLANSHB.png,,,,,,,,,,,,,,,,,,,,,,
,,,,,,,,,,,,,,,,,198706,,2022-01-28_16h03.40.734,lexical_decision_task_DD_L2,2021.2.3,MacIntel,59.99880002,,,,,,,,,,,0.8203,0,,,,,,,,,,,,,,,z,0,0.8203,,,,,,,,-0.002083333,-0.360416667,0,0,0,,0,55,55,16,1,PENCE,LB,old,m,./images/PENCELB.png,,,,,,,,,,,,,,,,,,,,,,
,,,,,,,,,,,,,,,,,198706,,2022-01-28_16h03.40.734,lexical_decision_task_DD_L2,2021.2.3,MacIntel,59.99880002,,,,,,,,,,,0.8724,1,,,,,,,,,,,,,,,m,1,0.8724,,,,,,,,-0.002083333,-0.360416667,0,0,0,,0,56,56,47,1,BERRY,C,old,m,./images/BERRY.png,,,,,,,,,,,,,,,,,,,,,,
,,,,,,,,,,,,,,,,,198706,,2022-01-28_16h03.40.734,lexical_decision_task_DD_L2,2021.2.3,MacIntel,59.99880002,,,,,,,,,,,0.5548,1,,,,,,,,,,,,,,,z,1,0.5548,,,,,,,,-0.002083333,-0.360416667,0,0,0,,0,57,57,108,1,GRUET,C,old,z,./images/GRUET.png,,,,,,,,,,,,,,,,,,,,,,
,,,,,,,,,,,,,,,,,198706,,2022-01-28_16h03.40.734,lexical_decision_task_DD_L2,2021.2.3,MacIntel,59.99880002,,,,,,,,,,,0.741,1,,,,,,,,,,,,,,,z,1,0.741,,,,,,,,-0.002083333,-0.360416667,0,0,0,,0,58,58,107,1,FASKS,LB,old,z,./images/FASKSLB.png,,,,,,,,,,,,,,,,,,,,,,
,,,,,,,,,,,,,,,,,198706,,2022-01-28_16h03.40.734,lexical_decision_task_DD_L2,2021.2.3,MacIntel,59.99880002,,,,,,,,,,,0.5225,1,,,,,,,,,,,,,,,m,1,0.5225,,,,,,,,-0.002083333,-0.360416667,0,0,0,,0,59,59,73,1,SNACK,LB,old,m,./images/SNACKLB.png,,,,,,,,,,,,,,,,,,,,,,
,,,,,,,,,,,,,,,,,198706,,2022-01-28_16h03.40.734,lexical_decision_task_DD_L2,2021.2.3,MacIntel,59.99880002,,,,,,,,,,,0.5515,1,,,,,,,,,,,,,,,m,1,0.5515,,,,,,,,-0.002083333,-0.360416667,0,0,0,,0,60,60,66,1,SWEAT,HB,old,m,./images/SWEATHB.png,,,,,,,,,,,,,,,,,,,,,,
,,,,,,,,,,,,,,,,,198706,,2022-01-28_16h03.40.734,lexical_decision_task_DD_L2,2021.2.3,MacIntel,59.99880002,,,,,,,,,,,0.876,1,,,,,,,,,,,,,,,z,1,0.876,,,,,,,,-0.002083333,-0.360416667,0,0,0,,0,61,61,157,1,INLER,HB,old,z,./images/INLERHB.png,,,,,,,,,,,,,,,,,,,,,,
,,,,,,,,,,,,,,,,,198706,,2022-01-28_16h03.40.734,lexical_decision_task_DD_L2,2021.2.3,MacIntel,59.99880002,,,,,,,,,,,0.5658,1,,,,,,,,,,,,,,,z,1,0.5658,,,,,,,,-0.002083333,-0.360416667,0,0,0,,0,62,62,90,1,NEAST,C,old,z,./images/NEAST.png,,,,,,,,,,,,,,,,,,,,,,
,,,,,,,,,,,,,,,,,198706,,2022-01-28_16h03.40.734,lexical_decision_task_DD_L2,2021.2.3,MacIntel,59.99880002,,,,,,,,,,,1.4146,1,,,,,,,,,,,,,,,m,1,1.4146,,,,,,,,-0.002083333,-0.360416667,0,0,0,,0,63,63,33,1,MAGGOT,HB,old,m,./images/MAGGOTHB.png,,,,,,,,,,,,,,,,,,,,,,
,,,,,,,,,,,,,,,,,198706,,2022-01-28_16h03.40.734,lexical_decision_task_DD_L2,2021.2.3,MacIntel,59.99880002,,,,,,,,,,,0.6175,1,,,,,,,,,,,,,,,m,1,0.6175,,,,,,,,-0.002083333,-0.360416667,0,0,0,,0,64,64,11,1,BONNET,C,old,m,./images/BONNET.png,,,,,,,,,,,,,,,,,,,,,,
,,,,,,,,,,,,,,,,,198706,,2022-01-28_16h03.40.734,lexical_decision_task_DD_L2,2021.2.3,MacIntel,59.99880002,,,,,,,,,,,0.5639,1,,,,,,,,,,,,,,,z,1,0.5639,,,,,,,,-0.002083333,-0.360416667,0,0,0,,0,65,65,152,1,FRAIN,LB,old,z,./images/FRAINLB.png,,,,,,,,,,,,,,,,,,,,,,
,,,,,,,,,,,,,,,,,198706,,2022-01-28_16h03.40.734,lexical_decision_task_DD_L2,2021.2.3,MacIntel,59.99880002,,,,,,,,,,,0.6628,1,,,,,,,,,,,,,,,m,1,0.6628,,,,,,,,-0.002083333,-0.360416667,0,0,0,,0,66,66,31,1,QUILL,LB,old,m,./images/QUILLLB.png,,,,,,,,,,,,,,,,,,,,,,
,,,,,,,,,,,,,,,,,198706,,2022-01-28_16h03.40.734,lexical_decision_task_DD_L2,2021.2.3,MacIntel,59.99880002,,,,,,,,,,,0.5397,1,,,,,,,,,,,,,,,m,1,0.5397,,,,,,,,-0.002083333,-0.360416667,0,0,0,,0,67,67,39,1,SHELF,HB,old,m,./images/SHELFHB.png,,,,,,,,,,,,,,,,,,,,,,
,,,,,,,,,,,,,,,,,198706,,2022-01-28_16h03.40.734,lexical_decision_task_DD_L2,2021.2.3,MacIntel,59.99880002,,,,,,,,,,,0.98,1,,,,,,,,,,,,,,,z,1,0.98,,,,,,,,-0.002083333,-0.360416667,0,0,0,,0,68,68,166,1,SHORY,HB,old,z,./images/SHORYHB.png,,,,,,,,,,,,,,,,,,,,,,
,,,,,,,,,,,,,,,,,198706,,2022-01-28_16h03.40.734,lexical_decision_task_DD_L2,2021.2.3,MacIntel,59.99880002,,,,,,,,,,,0.5538,1,,,,,,,,,,,,,,,m,1,0.5538,,,,,,,,-0.002083333,-0.360416667,0,0,0,,0,69,69,62,1,PURSE,C,old,m,./images/PURSE.png,,,,,,,,,,,,,,,,,,,,,,
,,,,,,,,,,,,,,,,,198706,,2022-01-28_16h03.40.734,lexical_decision_task_DD_L2,2021.2.3,MacIntel,59.99880002,,,,,,,,,,,0.4849,1,,,,,,,,,,,,,,,m,1,0.4849,,,,,,,,-0.002083333,-0.360416667,0,0,0,,0,70,70,61,1,CANDLE,LB,old,m,./images/CANDLELB.png,,,,,,,,,,,,,,,,,,,,,,
,,,,,,,,,,,,,,,,,198706,,2022-01-28_16h03.40.734,lexical_decision_task_DD_L2,2021.2.3,MacIntel,59.99880002,,,,,,,,,,,0.5132,0,,,,,,,,,,,,,,,z,0,0.5132,,,,,,,,-0.002083333,-0.360416667,0,0,0,,0,71,71,19,1,DOUGH,LB,old,m,./images/DOUGHLB.png,,,,,,,,,,,,,,,,,,,,,,
,,,,,,,,,,,,,,,,,198706,,2022-01-28_16h03.40.734,lexical_decision_task_DD_L2,2021.2.3,MacIntel,59.99880002,,,,,,,,,,,0.4883,1,,,,,,,,,,,,,,,m,1,0.4883,,,,,,,,-0.002083333,-0.360416667,0,0,0,,0,72,72,68,1,TORCH,C,old,m,./images/TORCH.png,,,,,,,,,,,,,,,,,,,,,,
,,,,,,,,,,,,,,,,,198706,,2022-01-28_16h03.40.734,lexical_decision_task_DD_L2,2021.2.3,MacIntel,59.99880002,,,,,,,,,,,0.5642,1,,,,,,,,,,,,,,,z,1,0.5642,,,,,,,,-0.002083333,-0.360416667,0,0,0,,0,73,73,128,1,GRIFT,LB,old,z,./images/GRIFTLB.png,,,,,,,,,,,,,,,,,,,,,,
,,,,,,,,,,,,,,,,,198706,,2022-01-28_16h03.40.734,lexical_decision_task_DD_L2,2021.2.3,MacIntel,59.99880002,,,,,,,,,,,0.9491,1,,,,,,,,,,,,,,,z,1,0.9491,,,,,,,,-0.002083333,-0.360416667,0,0,0,,0,74,74,127,1,NINDY,HB,old,z,./images/NINDYHB.png,,,,,,,,,,,,,,,,,,,,,,
,,,,,,,,,,,,,,,,,198706,,2022-01-28_16h03.40.734,lexical_decision_task_DD_L2,2021.2.3,MacIntel,59.99880002,,,,,,,,,,,0.6883,1,,,,,,,,,,,,,,,z,1,0.6883,,,,,,,,-0.002083333,-0.360416667,0,0,0,,0,75,75,118,1,BAVEL,HB,old,z,./images/BAVELHB.png,,,,,,,,,,,,,,,,,,,,,,
,,,,,,,,,,,,,,,,,198706,,2022-01-28_16h03.40.734,lexical_decision_task_DD_L2,2021.2.3,MacIntel,59.99880002,,,,,,,,,,,0.7316,1,,,,,,,,,,,,,,,z,1,0.7316,,,,,,,,-0.002083333,-0.360416667,0,0,0,,0,76,76,109,1,BURGE,HB,old,z,./images/BURGEHB.png,,,,,,,,,,,,,,,,,,,,,,
,,,,,,,,,,,,,,,,,198706,,2022-01-28_16h03.40.734,lexical_decision_task_DD_L2,2021.2.3,MacIntel,59.99880002,,,,,,,,,,,0.5983,1,,,,,,,,,,,,,,,z,1,0.5983,,,,,,,,-0.002083333,-0.360416667,0,0,0,,0,77,77,116,1,BALGY,LB,old,z,./images/BALGYLB.png,,,,,,,,,,,,,,,,,,,,,,
,,,,,,,,,,,,,,,,,198706,,2022-01-28_16h03.40.734,lexical_decision_task_DD_L2,2021.2.3,MacIntel,59.99880002,,,,,,,,,,,0.6205,1,,,,,,,,,,,,,,,z,1,0.6205,,,,,,,,-0.002083333,-0.360416667,0,0,0,,0,78,78,135,1,JOODY,C,old,z,./images/JOODY.png,,,,,,,,,,,,,,,,,,,,,,
,,,,,,,,,,,,,,,,,198706,,2022-01-28_16h03.40.734,lexical_decision_task_DD_L2,2021.2.3,MacIntel,59.99880002,,,,,,,,,,,0.5098,1,,,,,,,,,,,,,,,z,1,0.5098,,,,,,,,-0.002083333,-0.360416667,0,0,0,,0,79,79,86,1,AIFED,LB,old,z,./images/AIFEDLB.png,,,,,,,,,,,,,,,,,,,,,,
,,,,,,,,,,,,,,,,,198706,,2022-01-28_16h03.40.734,lexical_decision_task_DD_L2,2021.2.3,MacIntel,59.99880002,,,,,,,,,,,0.5791,1,,,,,,,,,,,,,,,m,1,0.5791,,,,,,,,-0.002083333,-0.360416667,0,0,0,,0,80,80,60,1,TWINS,HB,old,m,./images/TWINSHB.png,,,,,,,,,,,,,,,,,,,,,,
,,,,,,,,,,,,,,,,,198706,,2022-01-28_16h03.40.734,lexical_decision_task_DD_L2,2021.2.3,MacIntel,59.99880002,,,,,,,,,,,0.5652,1,,,,,,,,,,,,,,,z,1,0.5652,,,,,,,,-0.002083333,-0.360416667,0,0,0,,0,81,81,165,1,TROWN,C,old,z,./images/TROWN.png,,,,,,,,,,,,,,,,,,,,,,
,,,,,,,,,,,,,,,,,198706,,2022-01-28_16h03.40.734,lexical_decision_task_DD_L2,2021.2.3,MacIntel,59.99880002,,,,,,,,,,,0.5601,1,,,,,,,,,,,,,,,m,1,0.5601,,,,,,,,-0.002083333,-0.360416667,0,0,0,,0,82,82,65,1,FARMER,C,old,m,./images/FARMER.png,,,,,,,,,,,,,,,,,,,,,,
,,,,,,,,,,,,,,,,,198706,,2022-01-28_16h03.40.734,lexical_decision_task_DD_L2,2021.2.3,MacIntel,59.99880002,,,,,,,,,,,0.5826,1,,,,,,,,,,,,,,,m,1,0.5826,,,,,,,,-0.111848958,-0.395894097,0,0,0,space,0,83,83,52,1,BANNER,LB,old,m,./images/BANNERLB.png,53.1697,,,,,,,,,,,,,,,,,,,,,
,,,,,,,,,,,,,,,,,198706,,2022-01-28_16h03.40.734,lexical_decision_task_DD_L2,2021.2.3,MacIntel,59.99880002,,,,,,,,,,,0.8022,1,,,,,,,,,,,,,,,z,1,0.8022,,,,,,,,-0.111848958,-0.395894097,0,0,0,,0,84,84,126,1,GUELS,C,old,z,./images/GUELS.png,,,,,,,,,,,,,,,,,,,,,,
,,,,,,,,,,,,,,,,,198706,,2022-01-28_16h03.40.734,lexical_decision_task_DD_L2,2021.2.3,MacIntel,59.99880002,,,,,,,,,,,0.6374,1,,,,,,,,,,,,,,,m,1,0.6374,,,,,,,,-0.111848958,-0.395894097,0,0,0,,0,85,85,2,1,BEARD,C,old,m,./images/BEARD.png,,,,,,,,,,,,,,,,,,,,,,
,,,,,,,,,,,,,,,,,198706,,2022-01-28_16h03.40.734,lexical_decision_task_DD_L2,2021.2.3,MacIntel,59.99880002,,,,,,,,,,,0.5552,1,,,,,,,,,,,,,,,m,1,0.5552,,,,,,,,-0.111848958,-0.395894097,0,0,0,,0,86,86,25,1,WRIST,LB,old,m,./images/WRISTLB.png,,,,,,,,,,,,,,,,,,,,,,
,,,,,,,,,,,,,,,,,198706,,2022-01-28_16h03.40.734,lexical_decision_task_DD_L2,2021.2.3,MacIntel,59.99880002,,,,,,,,,,,0.465,1,,,,,,,,,,,,,,,z,1,0.465,,,,,,,,-0.111848958,-0.395894097,0,0,0,,0,87,87,143,1,MONGS,LB,old,z,./images/MONGSLB.png,,,,,,,,,,,,,,,,,,,,,,
,,,,,,,,,,,,,,,,,198706,,2022-01-28_16h03.40.734,lexical_decision_task_DD_L2,2021.2.3,MacIntel,59.99880002,,,,,,,,,,,0.4891,1,,,,,,,,,,,,,,,z,1,0.4891,,,,,,,,-0.111848958,-0.395894097,0,0,0,,0,88,88,96,1,KEAMS,C,old,z,./images/KEAMS.png,,,,,,,,,,,,,,,,,,,,,,
,,,,,,,,,,,,,,,,,198706,,2022-01-28_16h03.40.734,lexical_decision_task_DD_L2,2021.2.3,MacIntel,59.99880002,,,,,,,,,,,0.5352,1,,,,,,,,,,,,,,,m,1,0.5352,,,,,,,,-0.111848958,-0.395894097,0,0,0,,0,89,89,46,1,PEARL,LB,old,m,./images/PEARLLB.png,,,,,,,,,,,,,,,,,,,,,,
,,,,,,,,,,,,,,,,,198706,,2022-01-28_16h03.40.734,lexical_decision_task_DD_L2,2021.2.3,MacIntel,59.99880002,,,,,,,,,,,0.6302,1,,,,,,,,,,,,,,,m,1,0.6302,,,,,,,,-0.111848958,-0.395894097,0,0,0,,0,90,90,9,1,RHINO,HB,old,m,./images/RHINOHB.png,,,,,,,,,,,,,,,,,,,,,,
,,,,,,,,,,,,,,,,,198706,,2022-01-28_16h03.40.734,lexical_decision_task_DD_L2,2021.2.3,MacIntel,59.99880002,,,,,,,,,,,0.4353,1,,,,,,,,,,,,,,,z,1,0.4353,,,,,,,,-0.111848958,-0.395894097,0,0,0,,0,91,91,123,1,SEDGE,C,old,z,./images/SEDGE.png,,,,,,,,,,,,,,,,,,,,,,
,,,,,,,,,,,,,,,,,198706,,2022-01-28_16h03.40.734,lexical_decision_task_DD_L2,2021.2.3,MacIntel,59.99880002,,,,,,,,,,,0.5727,1,,,,,,,,,,,,,,,z,1,0.5727,,,,,,,,-0.111848958,-0.395894097,0,0,0,,0,92,92,158,1,EGECT,LB,old,z,./images/EGECTLB.png,,,,,,,,,,,,,,,,,,,,,,
,,,,,,,,,,,,,,,,,198706,,2022-01-28_16h03.40.734,lexical_decision_task_DD_L2,2021.2.3,MacIntel,59.99880002,,,,,,,,,,,0.4884,1,,,,,,,,,,,,,,,z,1,0.4884,,,,,,,,-0.111848958,-0.395894097,0,0,0,,0,93,93,147,1,ZOLES,C,old,z,./images/ZOLES.png,,,,,,,,,,,,,,,,,,,,,,
,,,,,,,,,,,,,,,,,198706,,2022-01-28_16h03.40.734,lexical_decision_task_DD_L2,2021.2.3,MacIntel,59.99880002,,,,,,,,,,,0.4728,1,,,,,,,,,,,,,,,m,1,0.4728,,,,,,,,-0.111848958,-0.395894097,0,0,0,,0,94,94,37,1,BIRTH,LB,old,m,./images/BIRTHLB.png,,,,,,,,,,,,,,,,,,,,,,
,,,,,,,,,,,,,,,,,198706,,2022-01-28_16h03.40.734,lexical_decision_task_DD_L2,2021.2.3,MacIntel,59.99880002,,,,,,,,,,,0.5976,1,,,,,,,,,,,,,,,z,1,0.5976,,,,,,,,-0.111848958,-0.395894097,0,0,0,,0,95,95,151,1,TINKY,HB,old,z,./images/TINKYHB.png,,,,,,,,,,,,,,,,,,,,,,
,,,,,,,,,,,,,,,,,198706,,2022-01-28_16h03.40.734,lexical_decision_task_DD_L2,2021.2.3,MacIntel,59.99880002,,,,,,,,,,,0.6156,1,,,,,,,,,,,,,,,z,1,0.6156,,,,,,,,-0.111848958,-0.395894097,0,0,0,,0,96,96,110,1,CRUNK,LB,old,z,./images/CRUNKLB.png,,,,,,,,,,,,,,,,,,,,,,
,,,,,,,,,,,,,,,,,198706,,2022-01-28_16h03.40.734,lexical_decision_task_DD_L2,2021.2.3,MacIntel,59.99880002,,,,,,,,,,,0.4887,1,,,,,,,,,,,,,,,z,1,0.4887,,,,,,,,-0.111848958,-0.395894097,0,0,0,,0,97,97,111,1,HOSSE,C,old,z,./images/HOSSE.png,,,,,,,,,,,,,,,,,,,,,,
,,,,,,,,,,,,,,,,,198706,,2022-01-28_16h03.40.734,lexical_decision_task_DD_L2,2021.2.3,MacIntel,59.99880002,,,,,,,,,,,0.6638,1,,,,,,,,,,,,,,,m,1,0.6638,,,,,,,,-0.111848958,-0.395894097,0,0,0,,0,98,98,50,1,MALLET,C,old,m,./images/MALLET.png,,,,,,,,,,,,,,,,,,,,,,
,,,,,,,,,,,,,,,,,198706,,2022-01-28_16h03.40.734,lexical_decision_task_DD_L2,2021.2.3,MacIntel,59.99880002,,,,,,,,,,,0.7021,1,,,,,,,,,,,,,,,m,1,0.7021,,,,,,,,-0.111848958,-0.395894097,0,0,0,,0,99,99,36,1,THROAT,HB,old,m,./images/THROATHB.png,,,,,,,,,,,,,,,,,,,,,,
,,,,,,,,,,,,,,,,,198706,,2022-01-28_16h03.40.734,lexical_decision_task_DD_L2,2021.2.3,MacIntel,59.99880002,,,,,,,,,,,0.6366,1,,,,,,,,,,,,,,,m,1,0.6366,,,,,,,,-0.111848958,-0.395894097,0,0,0,,0,100,100,12,1,SHORE,HB,old,m,./images/SHOREHB.png,,,,,,,,,,,,,,,,,,,,,,
,,,,,,,,,,,,,,,,,198706,,2022-01-28_16h03.40.734,lexical_decision_task_DD_L2,2021.2.3,MacIntel,59.99880002,,,,,,,,,,,0.5999,1,,,,,,,,,,,,,,,m,1,0.5999,,,,,,,,-0.111848958,-0.395894097,0,0,0,,0,101,101,64,1,JELLY,LB,old,m,./images/JELLYLB.png,,,,,,,,,,,,,,,,,,,,,,
,,,,,,,,,,,,,,,,,198706,,2022-01-28_16h03.40.734,lexical_decision_task_DD_L2,2021.2.3,MacIntel,59.99880002,,,,,,,,,,,0.6153,1,,,,,,,,,,,,,,,m,1,0.6153,,,,,,,,-0.111848958,-0.395894097,0,0,0,,0,102,102,63,1,MIRROR,HB,old,m,./images/MIRRORHB.png,,,,,,,,,,,,,,,,,,,,,,
,,,,,,,,,,,,,,,,,198706,,2022-01-28_16h03.40.734,lexical_decision_task_DD_L2,2021.2.3,MacIntel,59.99880002,,,,,,,,,,,0.5477,1,,,,,,,,,,,,,,,z,1,0.5477,,,,,,,,-0.111848958,-0.395894097,0,0,0,,0,103,103,120,1,RINED,C,old,z,./images/RINED.png,,,,,,,,,,,,,,,,,,,,,,
,,,,,,,,,,,,,,,,,198706,,2022-01-28_16h03.40.734,lexical_decision_task_DD_L2,2021.2.3,MacIntel,59.99880002,,,,,,,,,,,0.5242,1,,,,,,,,,,,,,,,m,1,0.5242,,,,,,,,-0.111848958,-0.395894097,0,0,0,,0,104,104,0,1,TOMATO,HB,old,m,./images/TOMATOHB.png,,,,,,,,,,,,,,,,,,,,,,
,,,,,,,,,,,,,,,,,198706,,2022-01-28_16h03.40.734,lexical_decision_task_DD_L2,2021.2.3,MacIntel,59.99880002,,,,,,,,,,,0.7376,1,,,,,,,,,,,,,,,z,1,0.7376,,,,,,,,-0.111848958,-0.395894097,0,0,0,,0,105,105,148,1,JOMS,HB,old,z,./images/JOMSHB.png,,,,,,,,,,,,,,,,,,,,,,
,,,,,,,,,,,,,,,,,198706,,2022-01-28_16h03.40.734,lexical_decision_task_DD_L2,2021.2.3,MacIntel,59.99880002,,,,,,,,,,,0.7538,1,,,,,,,,,,,,,,,z,1,0.7538,,,,,,,,-0.111848958,-0.395894097,0,0,0,,0,106,106,106,1,CLUMS,HB,old,z,./images/CLUMSHB.png,,,,,,,,,,,,,,,,,,,,,,
,,,,,,,,,,,,,,,,,198706,,2022-01-28_16h03.40.734,lexical_decision_task_DD_L2,2021.2.3,MacIntel,59.99880002,,,,,,,,,,,0.5517,1,,,,,,,,,,,,,,,m,1,0.5517,,,,,,,,-0.111848958,-0.395894097,0,0,0,,0,107,107,5,1,PASTA,C,old,m,./images/PASTA.png,,,,,,,,,,,,,,,,,,,,,,
,,,,,,,,,,,,,,,,,198706,,2022-01-28_16h03.40.734,lexical_decision_task_DD_L2,2021.2.3,MacIntel,59.99880002,,,,,,,,,,,0.5422,1,,,,,,,,,,,,,,,m,1,0.5422,,,,,,,,-0.111848958,-0.395894097,0,0,0,,0,108,108,71,1,PIMPLE,C,old,m,./images/PIMPLE.png,,,,,,,,,,,,,,,,,,,,,,
,,,,,,,,,,,,,,,,,198706,,2022-01-28_16h03.40.734,lexical_decision_task_DD_L2,2021.2.3,MacIntel,59.99880002,,,,,,,,,,,0.5626,1,,,,,,,,,,,,,,,z,1,0.5626,,,,,,,,-0.111848958,-0.395894097,0,0,0,,0,109,109,132,1,SCIFF,C,old,z,./images/SCIFF.png,,,,,,,,,,,,,,,,,,,,,,
,,,,,,,,,,,,,,,,,198706,,2022-01-28_16h03.40.734,lexical_decision_task_DD_L2,2021.2.3,MacIntel,59.99880002,,,,,,,,,,,1.0165,1,,,,,,,,,,,,,,,m,1,1.0165,,,,,,,,-0.111848958,-0.395894097,0,0,0,,0,110,110,13,1,MOTOR,LB,old,m,./images/MOTORLB.png,,,,,,,,,,,,,,,,,,,,,,
,,,,,,,,,,,,,,,,,198706,,2022-01-28_16h03.40.734,lexical_decision_task_DD_L2,2021.2.3,MacIntel,59.99880002,,,,,,,,,,,0.669,1,,,,,,,,,,,,,,,m,1,0.669,,,,,,,,-0.111848958,-0.395894097,0,0,0,,0,111,111,56,1,PACKET,C,old,m,./images/PACKET.png,,,,,,,,,,,,,,,,,,,,,,
,,,,,,,,,,,,,,,,,198706,,2022-01-28_16h03.40.734,lexical_decision_task_DD_L2,2021.2.3,MacIntel,59.99880002,,,,,,,,,,,0.6546,1,,,,,,,,,,,,,,,z,1,0.6546,,,,,,,,-0.111848958,-0.395894097,0,0,0,,0,112,112,100,1,DRIBS,HB,old,z,./images/DRIBSHB.png,,,,,,,,,,,,,,,,,,,,,,
,,,,,,,,,,,,,,,,,198706,,2022-01-28_16h03.40.734,lexical_decision_task_DD_L2,2021.2.3,MacIntel,59.99880002,,,,,,,,,,,0.7289,1,,,,,,,,,,,,,,,z,1,0.7289,,,,,,,,-0.111848958,-0.395894097,0,0,0,,0,113,113,145,1,LAMEL,HB,old,z,./images/LAMELHB.png,,,,,,,,,,,,,,,,,,,,,,
,,,,,,,,,,,,,,,,,198706,,2022-01-28_16h03.40.734,lexical_decision_task_DD_L2,2021.2.3,MacIntel,59.99880002,,,,,,,,,,,0.6652,1,,,,,,,,,,,,,,,z,1,0.6652,,,,,,,,-0.111848958,-0.395894097,0,0,0,,0,114,114,167,1,ZONET,LB,old,z,./images/ZONETLB.png,,,,,,,,,,,,,,,,,,,,,,
,,,,,,,,,,,,,,,,,198706,,2022-01-28_16h03.40.734,lexical_decision_task_DD_L2,2021.2.3,MacIntel,59.99880002,,,,,,,,,,,0.6067,1,,,,,,,,,,,,,,,z,1,0.6067,,,,,,,,-0.111848958,-0.395894097,0,0,0,,0,115,115,138,1,PLICE,C,old,z,./images/PLICE.png,,,,,,,,,,,,,,,,,,,,,,
,,,,,,,,,,,,,,,,,198706,,2022-01-28_16h03.40.734,lexical_decision_task_DD_L2,2021.2.3,MacIntel,59.99880002,,,,,,,,,,,0.6131,1,,,,,,,,,,,,,,,z,1,0.6131,,,,,,,,-0.111848958,-0.395894097,0,0,0,,0,116,116,101,1,GLEET,LB,old,z,./images/GLEETLB.png,,,,,,,,,,,,,,,,,,,,,,
,,,,,,,,,,,,,,,,,198706,,2022-01-28_16h03.40.734,lexical_decision_task_DD_L2,2021.2.3,MacIntel,59.99880002,,,,,,,,,,,0.531,1,,,,,,,,,,,,,,,z,1,0.531,,,,,,,,-0.111848958,-0.395894097,0,0,0,,0,117,117,164,1,SGREW,LB,old,z,./images/SGREWLB.png,,,,,,,,,,,,,,,,,,,,,,
,,,,,,,,,,,,,,,,,198706,,2022-01-28_16h03.40.734,lexical_decision_task_DD_L2,2021.2.3,MacIntel,59.99880002,,,,,,,,,,,0.5663,1,,,,,,,,,,,,,,,m,1,0.5663,,,,,,,,-0.111848958,-0.395894097,0,0,0,,0,118,118,76,1,INFANT,LB,old,m,./images/INFANTLB.png,,,,,,,,,,,,,,,,,,,,,,
,,,,,,,,,,,,,,,,,198706,,2022-01-28_16h03.40.734,lexical_decision_task_DD_L2,2021.2.3,MacIntel,59.99880002,,,,,,,,,,,0.4233,1,,,,,,,,,,,,,,,m,1,0.4233,,,,,,,,-0.111848958,-0.395894097,0,0,0,,0,119,119,32,1,BARREL,C,old,m,./images/BARREL.png,,,,,,,,,,,,,,,,,,,,,,
,,,,,,,,,,,,,,,,,198706,,2022-01-28_16h03.40.734,lexical_decision_task_DD_L2,2021.2.3,MacIntel,59.99880002,,,,,,,,,,,0.5265,1,,,,,,,,,,,,,,,m,1,0.5265,,,,,,,,-0.111848958,-0.395894097,0,0,0,,0,120,120,29,1,CRUMB,C,old,m,./images/CRUMB.png,,,,,,,,,,,,,,,,,,,,,,
,,,,,,,,,,,,,,,,,198706,,2022-01-28_16h03.40.734,lexical_decision_task_DD_L2,2021.2.3,MacIntel,59.99880002,,,,,,,,,,,0.4541,1,,,,,,,,,,,,,,,m,1,0.4541,,,,,,,,-0.111848958,-0.395894097,0,0,0,,0,121,121,38,1,LADDER,C,old,m,./images/LADDER.png,,,,,,,,,,,,,,,,,,,,,,
,,,,,,,,,,,,,,,,,198706,,2022-01-28_16h03.40.734,lexical_decision_task_DD_L2,2021.2.3,MacIntel,59.99880002,,,,,,,,,,,0.4956,1,,,,,,,,,,,,,,,m,1,0.4956,,,,,,,,-0.111848958,-0.395894097,0,0,0,,0,122,122,6,1,SQUARE,HB,old,m,./images/SQUAREHB.png,,,,,,,,,,,,,,,,,,,,,,
,,,,,,,,,,,,,,,,,198706,,2022-01-28_16h03.40.734,lexical_decision_task_DD_L2,2021.2.3,MacIntel,59.99880002,,,,,,,,,,,0.4965,1,,,,,,,,,,,,,,,z,1,0.4965,,,,,,,,-0.111848958,-0.395894097,0,0,0,,0,123,123,95,1,HANTY,LB,old,z,./images/HANTYLB.png,,,,,,,,,,,,,,,,,,,,,,
,,,,,,,,,,,,,,,,,198706,,2022-01-28_16h03.40.734,lexical_decision_task_DD_L2,2021.2.3,MacIntel,59.99880002,,,,,,,,,,,0.4662,1,,,,,,,,,,,,,,,z,1,0.4662,,,,,,,,-0.111848958,-0.395894097,0,0,0,,0,124,124,114,1,RIKES,C,old,z,./images/RIKES.png,,,,,,,,,,,,,,,,,,,,,,
,,,,,,,,,,,,,,,,,198706,,2022-01-28_16h03.40.734,lexical_decision_task_DD_L2,2021.2.3,MacIntel,59.99880002,,,,,,,,,,,0.596,1,,,,,,,,,,,,,,,m,1,0.596,,,,,,,,-0.064652778,0.009010417,0,0,0,space,0,125,125,67,1,SAILOR,LB,old,m,./images/SAILORLB.png,18.2177,,,,,,,,,,,,,,,,,,,,,
,,,,,,,,,,,,,,,,,198706,,2022-01-28_16h03.40.734,lexical_decision_task_DD_L2,2021.2.3,MacIntel,59.99880002,,,,,,,,,,,0.53,1,,,,,,,,,,,,,,,m,1,0.53,,,,,,,,-0.064652778,0.009010417,0,0,0,,0,126,126,28,1,FALCON,LB,old,m,./images/FALCONLB.png,,,,,,,,,,,,,,,,,,,,,,
,,,,,,,,,,,,,,,,,198706,,2022-01-28_16h03.40.734,lexical_decision_task_DD_L2,2021.2.3,MacIntel,59.99880002,,,,,,,,,,,0.6661,1,,,,,,,,,,,,,,,z,1,0.6661,,,,,,,,-0.064652778,0.009010417,0,0,0,,0,127,127,88,1,GLUSH,HB,old,z,./images/GLUSHHB.png,,,,,,,,,,,,,,,,,,,,,,
,,,,,,,,,,,,,,,,,198706,,2022-01-28_16h03.40.734,lexical_decision_task_DD_L2,2021.2.3,MacIntel,59.99880002,,,,,,,,,,,0.5626,0,,,,,,,,,,,,,,,z,0,0.5626,,,,,,,,-0.064652778,0.009010417,0,0,0,,0,128,128,43,1,MOSQUE,LB,old,m,./images/MOSQUELB.png,,,,,,,,,,,,,,,,,,,,,,
,,,,,,,,,,,,,,,,,198706,,2022-01-28_16h03.40.734,lexical_decision_task_DD_L2,2021.2.3,MacIntel,59.99880002,,,,,,,,,,,0.848,1,,,,,,,,,,,,,,,z,1,0.848,,,,,,,,-0.064652778,0.009010417,0,0,0,,0,129,129,142,1,PLASK,HB,old,z,./images/PLASKHB.png,,,,,,,,,,,,,,,,,,,,,,
,,,,,,,,,,,,,,,,,198706,,2022-01-28_16h03.40.734,lexical_decision_task_DD_L2,2021.2.3,MacIntel,59.99880002,,,,,,,,,,,0.8883,1,,,,,,,,,,,,,,,z,1,0.8883,,,,,,,,-0.064652778,0.009010417,0,0,0,,0,130,130,130,1,CRILL,HB,old,z,./images/CRILLHB.png,,,,,,,,,,,,,,,,,,,,,,
,,,,,,,,,,,,,,,,,198706,,2022-01-28_16h03.40.734,lexical_decision_task_DD_L2,2021.2.3,MacIntel,59.99880002,,,,,,,,,,,0.7475,1,,,,,,,,,,,,,,,z,1,0.7475,,,,,,,,-0.064652778,0.009010417,0,0,0,,0,131,131,149,1,VEASE,LB,old,z,./images/VEASELB.png,,,,,,,,,,,,,,,,,,,,,,
,,,,,,,,,,,,,,,,,198706,,2022-01-28_16h03.40.734,lexical_decision_task_DD_L2,2021.2.3,MacIntel,59.99880002,,,,,,,,,,,0.7963,1,,,,,,,,,,,,,,,z,1,0.7963,,,,,,,,-0.064652778,0.009010417,0,0,0,,0,132,132,97,1,CHIDS,HB,old,z,./images/CHIDSHB.png,,,,,,,,,,,,,,,,,,,,,,
,,,,,,,,,,,,,,,,,198706,,2022-01-28_16h03.40.734,lexical_decision_task_DD_L2,2021.2.3,MacIntel,59.99880002,,,,,,,,,,,0.6867,1,,,,,,,,,,,,,,,z,1,0.6867,,,,,,,,-0.064652778,0.009010417,0,0,0,,0,133,133,103,1,FLORT,HB,old,z,./images/FLORTHB.png,,,,,,,,,,,,,,,,,,,,,,
,,,,,,,,,,,,,,,,,198706,,2022-01-28_16h03.40.734,lexical_decision_task_DD_L2,2021.2.3,MacIntel,59.99880002,,,,,,,,,,,0.6004,1,,,,,,,,,,,,,,,z,1,0.6004,,,,,,,,-0.064652778,0.009010417,0,0,0,,0,134,134,133,1,POWDY,HB,old,z,./images/POWDYHB.png,,,,,,,,,,,,,,,,,,,,,,
,,,,,,,,,,,,,,,,,198706,,2022-01-28_16h03.40.734,lexical_decision_task_DD_L2,2021.2.3,MacIntel,59.99880002,,,,,,,,,,,0.6393,1,,,,,,,,,,,,,,,z,1,0.6393,,,,,,,,-0.064652778,0.009010417,0,0,0,,0,135,135,93,1,SMONE,C,old,z,./images/SMONE.png,,,,,,,,,,,,,,,,,,,,,,
,,,,,,,,,,,,,,,,,198706,,2022-01-28_16h03.40.734,lexical_decision_task_DD_L2,2021.2.3,MacIntel,59.99880002,,,,,,,,,,,0.7138,1,,,,,,,,,,,,,,,z,1,0.7138,,,,,,,,-0.064652778,0.009010417,0,0,0,,0,136,136,146,1,MOOST,LB,old,z,./images/MOOSTLB.png,,,,,,,,,,,,,,,,,,,,,,
,,,,,,,,,,,,,,,,,198706,,2022-01-28_16h03.40.734,lexical_decision_task_DD_L2,2021.2.3,MacIntel,59.99880002,,,,,,,,,,,1.1924,1,,,,,,,,,,,,,,,z,1,1.1924,,,,,,,,-0.064652778,0.009010417,0,0,0,,0,137,137,91,1,SHENS,HB,old,z,./images/SHENSHB.png,,,,,,,,,,,,,,,,,,,,,,
,,,,,,,,,,,,,,,,,198706,,2022-01-28_16h03.40.734,lexical_decision_task_DD_L2,2021.2.3,MacIntel,59.99880002,,,,,,,,,,,0.6154,1,,,,,,,,,,,,,,,z,1,0.6154,,,,,,,,-0.064652778,0.009010417,0,0,0,,0,138,138,140,1,DOVET,LB,old,z,./images/DOVETLB.png,,,,,,,,,,,,,,,,,,,,,,
,,,,,,,,,,,,,,,,,198706,,2022-01-28_16h03.40.734,lexical_decision_task_DD_L2,2021.2.3,MacIntel,59.99880002,,,,,,,,,,,0.5519,1,,,,,,,,,,,,,,,m,1,0.5519,,,,,,,,-0.064652778,0.009010417,0,0,0,,0,139,139,53,1,CARPET,C,old,m,./images/CARPET.png,,,,,,,,,,,,,,,,,,,,,,
,,,,,,,,,,,,,,,,,198706,,2022-01-28_16h03.40.734,lexical_decision_task_DD_L2,2021.2.3,MacIntel,59.99880002,,,,,,,,,,,0.4622,1,,,,,,,,,,,,,,,m,1,0.4622,,,,,,,,-0.064652778,0.009010417,0,0,0,,0,140,140,55,1,MUFFIN,LB,old,m,./images/MUFFINLB.png,,,,,,,,,,,,,,,,,,,,,,
,,,,,,,,,,,,,,,,,198706,,2022-01-28_16h03.40.734,lexical_decision_task_DD_L2,2021.2.3,MacIntel,59.99880002,,,,,,,,,,,0.639,1,,,,,,,,,,,,,,,z,1,0.639,,,,,,,,-0.064652778,0.009010417,0,0,0,,0,141,141,160,1,VEETS,HB,old,z,./images/VEETSHB.png,,,,,,,,,,,,,,,,,,,,,,
,,,,,,,,,,,,,,,,,198706,,2022-01-28_16h03.40.734,lexical_decision_task_DD_L2,2021.2.3,MacIntel,59.99880002,,,,,,,,,,,0.5899,1,,,,,,,,,,,,,,,z,1,0.5899,,,,,,,,-0.064652778,0.009010417,0,0,0,,0,142,142,150,1,NOOLS,C,old,z,./images/NOOLS.png,,,,,,,,,,,,,,,,,,,,,,
,,,,,,,,,,,,,,,,,198706,,2022-01-28_16h03.40.734,lexical_decision_task_DD_L2,2021.2.3,MacIntel,59.99880002,,,,,,,,,,,0.5053,1,,,,,,,,,,,,,,,m,1,0.5053,,,,,,,,-0.064652778,0.009010417,0,0,0,,0,143,143,51,1,ONION,HB,old,m,./images/ONIONHB.png,,,,,,,,,,,,,,,,,,,,,,
,,,,,,,,,,,,,,,,,198706,,2022-01-28_16h03.40.734,lexical_decision_task_DD_L2,2021.2.3,MacIntel,59.99880002,,,,,,,,,,,0.5585,1,,,,,,,,,,,,,,,m,1,0.5585,,,,,,,,-0.064652778,0.009010417,0,0,0,,0,144,144,44,1,LIZARD,C,old,m,./images/LIZARD.png,,,,,,,,,,,,,,,,,,,,,,
,,,,,,,,,,,,,,,,,198706,,2022-01-28_16h03.40.734,lexical_decision_task_DD_L2,2021.2.3,MacIntel,59.99880002,,,,,,,,,,,0.6573,1,,,,,,,,,,,,,,,z,1,0.6573,,,,,,,,-0.064652778,0.009010417,0,0,0,,0,145,145,121,1,CEERS,HB,old,z,./images/CEERSHB.png,,,,,,,,,,,,,,,,,,,,,,
,,,,,,,,,,,,,,,,,198706,,2022-01-28_16h03.40.734,lexical_decision_task_DD_L2,2021.2.3,MacIntel,59.99880002,,,,,,,,,,,0.4809,0,,,,,,,,,,,,,,,m,0,0.4809,,,,,,,,-0.064652778,0.009010417,0,0,0,,0,146,146,92,1,PAIMS,LB,old,z,./images/PAIMSLB.png,,,,,,,,,,,,,,,,,,,,,,
,,,,,,,,,,,,,,,,,198706,,2022-01-28_16h03.40.734,lexical_decision_task_DD_L2,2021.2.3,MacIntel,59.99880002,,,,,,,,,,,0.6399,1,,,,,,,,,,,,,,,m,1,0.6399,,,,,,,,-0.064652778,0.009010417,0,0,0,,0,147,147,21,1,KIDNEY,HB,old,m,./images/KIDNEYHB.png,,,,,,,,,,,,,,,,,,,,,,
,,,,,,,,,,,,,,,,,198706,,2022-01-28_16h03.40.734,lexical_decision_task_DD_L2,2021.2.3,MacIntel,59.99880002,,,,,,,,,,,0.603,1,,,,,,,,,,,,,,,m,1,0.603,,,,,,,,-0.064652778,0.009010417,0,0,0,,0,148,148,35,1,PEACH,C,old,m,./images/PEACH.png,,,,,,,,,,,,,,,,,,,,,,
,,,,,,,,,,,,,,,,,198706,,2022-01-28_16h03.40.734,lexical_decision_task_DD_L2,2021.2.3,MacIntel,59.99880002,,,,,,,,,,,0.5487,0,,,,,,,,,,,,,,,z,0,0.5487,,,,,,,,-0.064652778,0.009010417,0,0,0,,0,149,149,79,1,CRUST,LB,old,m,./images/CRUSTLB.png,,,,,,,,,,,,,,,,,,,,,,
,,,,,,,,,,,,,,,,,198706,,2022-01-28_16h03.40.734,lexical_decision_task_DD_L2,2021.2.3,MacIntel,59.99880002,,,,,,,,,,,0.6198,1,,,,,,,,,,,,,,,m,1,0.6198,,,,,,,,-0.064652778,0.009010417,0,0,0,,0,150,150,74,1,CEMENT,C,old,m,./images/CEMENT.png,,,,,,,,,,,,,,,,,,,,,,
,,,,,,,,,,,,,,,,,198706,,2022-01-28_16h03.40.734,lexical_decision_task_DD_L2,2021.2.3,MacIntel,59.99880002,,,,,,,,,,,0.5552,1,,,,,,,,,,,,,,,m,1,0.5552,,,,,,,,-0.064652778,0.009010417,0,0,0,,0,151,151,17,1,SKIING,C,old,m,./images/SKIING.png,,,,,,,,,,,,,,,,,,,,,,
,,,,,,,,,,,,,,,,,198706,,2022-01-28_16h03.40.734,lexical_decision_task_DD_L2,2021.2.3,MacIntel,59.99880002,,,,,,,,,,,0.87,0,,,,,,,,,,,,,,,z,0,0.87,,,,,,,,-0.064652778,0.009010417,0,0,0,,0,152,152,8,1,TULIP,C,old,m,./images/TULIP.png,,,,,,,,,,,,,,,,,,,,,,
,,,,,,,,,,,,,,,,,198706,,2022-01-28_16h03.40.734,lexical_decision_task_DD_L2,2021.2.3,MacIntel,59.99880002,,,,,,,,,,,0.9485,1,,,,,,,,,,,,,,,z,1,0.9485,,,,,,,,-0.064652778,0.009010417,0,0,0,,0,153,153,161,1,BLAPS,LB,old,z,./images/BLAPSLB.png,,,,,,,,,,,,,,,,,,,,,,
,,,,,,,,,,,,,,,,,198706,,2022-01-28_16h03.40.734,lexical_decision_task_DD_L2,2021.2.3,MacIntel,59.99880002,,,,,,,,,,,0.6014,1,,,,,,,,,,,,,,,z,1,0.6014,,,,,,,,-0.064652778,0.009010417,0,0,0,,0,154,154,87,1,TRING,C,old,z,./images/TRING.png,,,,,,,,,,,,,,,,,,,,,,
,,,,,,,,,,,,,,,,,198706,,2022-01-28_16h03.40.734,lexical_decision_task_DD_L2,2021.2.3,MacIntel,59.99880002,,,,,,,,,,,0.7897,1,,,,,,,,,,,,,,,m,1,0.7897,,,,,,,,-0.064652778,0.009010417,0,0,0,,0,155,155,58,1,BABOON,LB,old,m,./images/BABOONLB.png,,,,,,,,,,,,,,,,,,,,,,
,,,,,,,,,,,,,,,,,198706,,2022-01-28_16h03.40.734,lexical_decision_task_DD_L2,2021.2.3,MacIntel,59.99880002,,,,,,,,,,,1.1051,1,,,,,,,,,,,,,,,z,1,1.1051,,,,,,,,-0.064652778,0.009010417,0,0,0,,0,156,156,113,1,LINEW,LB,old,z,./images/LINEWLB.png,,,,,,,,,,,,,,,,,,,,,,
,,,,,,,,,,,,,,,,,198706,,2022-01-28_16h03.40.734,lexical_decision_task_DD_L2,2021.2.3,MacIntel,59.99880002,,,,,,,,,,,1.464,1,,,,,,,,,,,,,,,m,1,1.464,,,,,,,,-0.064652778,0.009010417,0,0,0,,0,157,157,81,1,POODLE,HB,old,m,./images/POODLEHB.png,,,,,,,,,,,,,,,,,,,,,,
,,,,,,,,,,,,,,,,,198706,,2022-01-28_16h03.40.734,lexical_decision_task_DD_L2,2021.2.3,MacIntel,59.99880002,,,,,,,,,,,0.6374,1,,,,,,,,,,,,,,,m,1,0.6374,,,,,,,,-0.064652778,0.009010417,0,0,0,,0,158,158,59,1,BURIAL,C,old,m,./images/BURIAL.png,,,,,,,,,,,,,,,,,,,,,,
,,,,,,,,,,,,,,,,,198706,,2022-01-28_16h03.40.734,lexical_decision_task_DD_L2,2021.2.3,MacIntel,59.99880002,,,,,,,,,,,0.629,1,,,,,,,,,,,,,,,m,1,0.629,,,,,,,,-0.064652778,0.009010417,0,0,0,,0,159,159,54,1,TRIPOD,HB,old,m,./images/TRIPODHB.png,,,,,,,,,,,,,,,,,,,,,,
,,,,,,,,,,,,,,,,,198706,,2022-01-28_16h03.40.734,lexical_decision_task_DD_L2,2021.2.3,MacIntel,59.99880002,,,,,,,,,,,1.748,1,,,,,,,,,,,,,,,m,1,1.748,,,,,,,,-0.064652778,0.009010417,0,0,0,,0,160,160,18,1,JAGUAR,HB,old,m,./images/JAGUARHB.png,,,,,,,,,,,,,,,,,,,,,,
,,,,,,,,,,,,,,,,,198706,,2022-01-28_16h03.40.734,lexical_decision_task_DD_L2,2021.2.3,MacIntel,59.99880002,,,,,,,,,,,0.8239,1,,,,,,,,,,,,,,,m,1,0.8239,,,,,,,,-0.064652778,0.009010417,0,0,0,,0,161,161,72,1,NOOSE,HB,old,m,./images/NOOSEHB.png,,,,,,,,,,,,,,,,,,,,,,
,,,,,,,,,,,,,,,,,198706,,2022-01-28_16h03.40.734,lexical_decision_task_DD_L2,2021.2.3,MacIntel,59.99880002,,,,,,,,,,,0.8147,1,,,,,,,,,,,,,,,z,1,0.8147,,,,,,,,-0.064652778,0.009010417,0,0,0,,0,162,162,136,1,WERVE,HB,old,z,./images/WERVEHB.png,,,,,,,,,,,,,,,,,,,,,,
,,,,,,,,,,,,,,,,,198706,,2022-01-28_16h03.40.734,lexical_decision_task_DD_L2,2021.2.3,MacIntel,59.99880002,,,,,,,,,,,0.953,1,,,,,,,,,,,,,,,z,1,0.953,,,,,,,,-0.064652778,0.009010417,0,0,0,,0,163,163,162,1,LEICH,C,old,z,./images/LEICH.png,,,,,,,,,,,,,,,,,,,,,,
,,,,,,,,,,,,,,,,,198706,,2022-01-28_16h03.40.734,lexical_decision_task_DD_L2,2021.2.3,MacIntel,59.99880002,,,,,,,,,,,0.7338,1,,,,,,,,,,,,,,,z,1,0.7338,,,,,,,,-0.064652778,0.009010417,0,0,0,,0,164,164,134,1,TROSS,LB,old,z,./images/TROSSLB.png,,,,,,,,,,,,,,,,,,,,,,
,,,,,,,,,,,,,,,,,198706,,2022-01-28_16h03.40.734,lexical_decision_task_DD_L2,2021.2.3,MacIntel,59.99880002,,,,,,,,,,,0.9867,1,,,,,,,,,,,,,,,z,1,0.9867,,,,,,,,-0.064652778,0.009010417,0,0,0,,0,165,165,125,1,MOOKY,LB,old,z,./images/MOOKYLB.png,,,,,,,,,,,,,,,,,,,,,,
,,,,,,,,,,,,,,,,,198706,,2022-01-28_16h03.40.734,lexical_decision_task_DD_L2,2021.2.3,MacIntel,59.99880002,,,,,,,,,,,0.8047,1,,,,,,,,,,,,,,,z,1,0.8047,,,,,,,,-0.064652778,0.009010417,0,0,0,,0,166,166,141,1,PLEET,C,old,z,./images/PLEET.png,,,,,,,,,,,,,,,,,,,,,,
,,,,,,,,,,,,,,,,,198706,,2022-01-28_16h03.40.734,lexical_decision_task_DD_L2,2021.2.3,MacIntel,59.99880002,,,,,,,,,,,0.6954,1,,,,,,,,,,,,,,,z,1,0.6954,,,,,,,,-0.064652778,0.009010417,0,0,0,,0,167,167,129,1,PRANS,C,old,z,./images/PRANS.png,,,,,,,,,,,,,,,,,,,,,,
space,10.6743,-0.064652778,0.009010417,0,0,0,,,,,,1,test,"In the next phase you will be presented with the words from the the first phase. Your job is to decide whether you remember seeing the word or not. If you remember seeing the word press ""old"" or type ""m"". If you do not remember seeing the word press ""new"" or type ""z"". Please press the space bar or click on continue to begin. ",,,198706,,2022-01-28_16h03.40.734,lexical_decision_task_DD_L2,2021.2.3,MacIntel,59.99880002,,,,,,,,,,,,,,,,,,,,,,,,,,,,,,,,,,,,,,,,,,,,,,,,,,,,,,0,0,0,0,1,,,,,,,,,,,,,,,,
,,-0.049583333,-0.385703125,1,0,0,,,,,,1,test,"In the next phase you will be presented with the words from the the first phase. Your job is to decide whether you remember seeing the word or not. If you remember seeing the word press ""old"" or type ""m"". If you do not remember seeing the word press ""new"" or type ""z"". Please press the space bar or click on continue to begin. ",,,198706,,2022-01-28_16h03.40.734,lexical_decision_task_DD_L2,2021.2.3,MacIntel,59.99880002,,,,,,,,,,,,,,,,,,,,,instr_done_button,,,,,,,,,,,,,,,,,,,,,,,,,,,,,,,,,1,0,1,0,1,,,,,,,,,,,,,,,,
,,-0.022239583,-0.400603299,1,0,0,,,,,,1,test,"In the next phase you will be presented with the words from the the first phase. Your job is to decide whether you remember seeing the word or not. If you remember seeing the word press ""old"" or type ""m"". If you do not remember seeing the word press ""new"" or type ""z"". Please press the space bar or click on continue to begin. ",,,198706,,2022-01-28_16h03.40.734,lexical_decision_task_DD_L2,2021.2.3,MacIntel,59.99880002,,,,,,,,,,,,,,,,,,,,,instr_done_button,,,,,,,,,,,,,,,,,,,,,,,,,,,,,,,,,2,0,2,0,1,,,,,,,,,,,,,,,,
space,0.6913,-0.022239583,-0.400603299,0,0,0,,,,,,1,test,"In the next phase you will be presented with the words from the the first phase. Your job is to decide whether you remember seeing the word or not. If you remember seeing the word press ""old"" or type ""m"". If you do not remember seeing the word press ""new"" or type ""z"". Please press the space bar or click on continue to begin. ",,,198706,,2022-01-28_16h03.40.734,lexical_decision_task_DD_L2,2021.2.3,MacIntel,59.99880002,,,,,,,,,,,,,,,,,,,,,,,,,,,,,,,,,,,,,,,,,,,,,,,,,,,,,,3,0,3,0,1,,,,,,,,,,,,,,,,
space,1.0023,0.080299479,-0.131666667,0,0,0,,,,,,1,test,"In the next phase you will be presented with the words from the the first phase. Your job is to decide whether you remember seeing the word or not. If you remember seeing the word press ""old"" or type ""m"". If you do not remember seeing the word press ""new"" or type ""z"". Please press the space bar or click on continue to begin. ",,,198706,,2022-01-28_16h03.40.734,lexical_decision_task_DD_L2,2021.2.3,MacIntel,59.99880002,,,,,,,,,,,,,,,,,,,,,,,,,,,,,,,,,,,,,,,,,,,,,,,,,,,,,,4,0,4,0,1,,,,,,,,,,,,,,,,
,,,,,,,,,,,,,,,,,198706,,2022-01-28_16h03.40.734,lexical_decision_task_DD_L2,2021.2.3,MacIntel,59.99880002,,,,,,,,,,,2.4742,1,,,,,,,,,,,,,,,,,,,,,,,,,0.080299479,-0.131666667,0,0,0,,,,,,,CLOUD,C,z,y,./images/CLOUD.png,,,,,,,z,1,2.4742,,,,,,,,0,0,0,110,1,
,,,,,,,,,,,,,,,,,198706,,2022-01-28_16h03.40.734,lexical_decision_task_DD_L2,2021.2.3,MacIntel,59.99880002,,,,,,,,,,,1.3194,1,,,,,,,,,,,,,,,,,,,,,,,,,0.080299479,-0.131666667,0,0,0,,,,,,,SPORT,HB,m,y,./images/SPORTHB.png,,,,,,,m,1,1.3194,,,,,,,,0,1,1,48,1,
,,,,,,,,,,,,,,,,,198706,,2022-01-28_16h03.40.734,lexical_decision_task_DD_L2,2021.2.3,MacIntel,59.99880002,,,,,,,,,,,0.9994,1,,,,,,,,,,,,,,,,,,,,,,,,,0.080299479,-0.131666667,0,0,0,,,,,,,SPINE,C,z,y,./images/SPINE.png,,,,,,,z,1,0.9994,,,,,,,,0,2,2,149,1,
,,,,,,,,,,,,,,,,,198706,,2022-01-28_16h03.40.734,lexical_decision_task_DD_L2,2021.2.3,MacIntel,59.99880002,,,,,,,,,,,0.9354,1,,,,,,,,,,,,,,,,,,,,,,,,,0.080299479,-0.131666667,0,0,0,,,,,,,SHELF,HB,m,y,./images/SHELFHB.png,,,,,,,m,1,0.9354,,,,,,,,0,3,3,39,1,
,,,,,,,,,,,,,,,,,198706,,2022-01-28_16h03.40.734,lexical_decision_task_DD_L2,2021.2.3,MacIntel,59.99880002,,,,,,,,,,,1.1028,1,,,,,,,,,,,,,,,,,,,,,,,,,0.080299479,-0.131666667,0,0,0,,,,,,,LIZARD,C,m,y,./images/LIZARD.png,,,,,,,m,1,1.1028,,,,,,,,0,4,4,44,1,
,,,,,,,,,,,,,,,,,198706,,2022-01-28_16h03.40.734,lexical_decision_task_DD_L2,2021.2.3,MacIntel,59.99880002,,,,,,,,,,,1.0963,0,,,,,,,,,,,,,,,,,,,,,,,,,0.080299479,-0.131666667,0,0,0,,,,,,,WAGON,LB,z,y,./images/WAGONLB.png,,,,,,,m,0,1.0963,,,,,,,,0,5,5,91,1,
,,,,,,,,,,,,,,,,,198706,,2022-01-28_16h03.40.734,lexical_decision_task_DD_L2,2021.2.3,MacIntel,59.99880002,,,,,,,,,,,1.2006,1,,,,,,,,,,,,,,,,,,,,,,,,,0.080299479,-0.131666667,0,0,0,,,,,,,CANYON,LB,m,y,./images/CANYONLB.png,,,,,,,m,1,1.2006,,,,,,,,0,6,6,34,1,
,,,,,,,,,,,,,,,,,198706,,2022-01-28_16h03.40.734,lexical_decision_task_DD_L2,2021.2.3,MacIntel,59.99880002,,,,,,,,,,,0.7896,1,,,,,,,,,,,,,,,,,,,,,,,,,0.080299479,-0.131666667,0,0,0,,,,,,,FLESH,HB,z,y,./images/FLESHHB.png,,,,,,,z,1,0.7896,,,,,,,,0,7,7,108,1,
,,,,,,,,,,,,,,,,,198706,,2022-01-28_16h03.40.734,lexical_decision_task_DD_L2,2021.2.3,MacIntel,59.99880002,,,,,,,,,,,0.8132,1,,,,,,,,,,,,,,,,,,,,,,,,,0.080299479,-0.131666667,0,0,0,,,,,,,BUNNY,LB,z,y,./images/BUNNYLB.png,,,,,,,z,1,0.8132,,,,,,,,0,8,8,97,1,
,,,,,,,,,,,,,,,,,198706,,2022-01-28_16h03.40.734,lexical_decision_task_DD_L2,2021.2.3,MacIntel,59.99880002,,,,,,,,,,,0.7359,1,,,,,,,,,,,,,,,,,,,,,,,,,0.080299479,-0.131666667,0,0,0,,,,,,,DRUMS,LB,m,y,./images/DRUMSLB.png,,,,,,,m,1,0.7359,,,,,,,,0,9,9,49,1,
,,,,,,,,,,,,,,,,,198706,,2022-01-28_16h03.40.734,lexical_decision_task_DD_L2,2021.2.3,MacIntel,59.99880002,,,,,,,,,,,0.7662,1,,,,,,,,,,,,,,,,,,,,,,,,,0.080299479,-0.131666667,0,0,0,,,,,,,BUTTER,HB,z,y,./images/BUTTERHB.png,,,,,,,z,1,0.7662,,,,,,,,0,10,10,111,1,
,,,,,,,,,,,,,,,,,198706,,2022-01-28_16h03.40.734,lexical_decision_task_DD_L2,2021.2.3,MacIntel,59.99880002,,,,,,,,,,,0.6314,1,,,,,,,,,,,,,,,,,,,,,,,,,0.080299479,-0.131666667,0,0,0,,,,,,,SWING,LB,m,y,./images/SWINGLB.png,,,,,,,m,1,0.6314,,,,,,,,0,11,11,40,1,
,,,,,,,,,,,,,,,,,198706,,2022-01-28_16h03.40.734,lexical_decision_task_DD_L2,2021.2.3,MacIntel,59.99880002,,,,,,,,,,,0.7152,1,,,,,,,,,,,,,,,,,,,,,,,,,0.080299479,-0.131666667,0,0,0,,,,,,,BRIDE,LB,z,y,./images/BRIDELB.png,,,,,,,z,1,0.7152,,,,,,,,0,12,12,148,1,
,,,,,,,,,,,,,,,,,198706,,2022-01-28_16h03.40.734,lexical_decision_task_DD_L2,2021.2.3,MacIntel,59.99880002,,,,,,,,,,,0.974,1,,,,,,,,,,,,,,,,,,,,,,,,,0.080299479,-0.131666667,0,0,0,,,,,,,BANANA,LB,z,y,./images/BANANALB.png,,,,,,,z,1,0.974,,,,,,,,0,13,13,154,1,
,,,,,,,,,,,,,,,,,198706,,2022-01-28_16h03.40.734,lexical_decision_task_DD_L2,2021.2.3,MacIntel,59.99880002,,,,,,,,,,,0.7816,1,,,,,,,,,,,,,,,,,,,,,,,,,0.080299479,-0.131666667,0,0,0,,,,,,,QUILL,LB,m,y,./images/QUILLLB.png,,,,,,,m,1,0.7816,,,,,,,,0,14,14,31,1,
,,,,,,,,,,,,,,,,,198706,,2022-01-28_16h03.40.734,lexical_decision_task_DD_L2,2021.2.3,MacIntel,59.99880002,,,,,,,,,,,0.8475,1,,,,,,,,,,,,,,,,,,,,,,,,,0.080299479,-0.131666667,0,0,0,,,,,,,TRIPOD,HB,m,y,./images/TRIPODHB.png,,,,,,,m,1,0.8475,,,,,,,,0,15,15,54,1,
,,,,,,,,,,,,,,,,,198706,,2022-01-28_16h03.40.734,lexical_decision_task_DD_L2,2021.2.3,MacIntel,59.99880002,,,,,,,,,,,0.7133,1,,,,,,,,,,,,,,,,,,,,,,,,,0.080299479,-0.131666667,0,0,0,,,,,,,CURRY,HB,z,y,./images/CURRYHB.png,,,,,,,z,1,0.7133,,,,,,,,0,16,16,144,1,
,,,,,,,,,,,,,,,,,198706,,2022-01-28_16h03.40.734,lexical_decision_task_DD_L2,2021.2.3,MacIntel,59.99880002,,,,,,,,,,,1.4588,1,,,,,,,,,,,,,,,,,,,,,,,,,0.080299479,-0.131666667,0,0,0,,,,,,,TOWEL,LB,z,y,./images/TOWELLB.png,,,,,,,z,1,1.4588,,,,,,,,0,17,17,85,1,
,,,,,,,,,,,,,,,,,198706,,2022-01-28_16h03.40.734,lexical_decision_task_DD_L2,2021.2.3,MacIntel,59.99880002,,,,,,,,,,,0.7975,1,,,,,,,,,,,,,,,,,,,,,,,,,0.080299479,-0.131666667,0,0,0,,,,,,,BROOM,HB,z,y,./images/BROOMHB.png,,,,,,,z,1,0.7975,,,,,,,,0,18,18,162,1,
,,,,,,,,,,,,,,,,,198706,,2022-01-28_16h03.40.734,lexical_decision_task_DD_L2,2021.2.3,MacIntel,59.99880002,,,,,,,,,,,0.9167,1,,,,,,,,,,,,,,,,,,,,,,,,,0.080299479,-0.131666667,0,0,0,,,,,,,SAUCE,HB,z,y,./images/SAUCEHB.png,,,,,,,z,1,0.9167,,,,,,,,0,19,19,135,1,
,,,,,,,,,,,,,,,,,198706,,2022-01-28_16h03.40.734,lexical_decision_task_DD_L2,2021.2.3,MacIntel,59.99880002,,,,,,,,,,,1.731,1,,,,,,,,,,,,,,,,,,,,,,,,,0.080299479,-0.131666667,0,0,0,,,,,,,DANCER,HB,z,y,./images/DANCERHB.png,,,,,,,z,1,1.731,,,,,,,,0,20,20,105,1,
,,,,,,,,,,,,,,,,,198706,,2022-01-28_16h03.40.734,lexical_decision_task_DD_L2,2021.2.3,MacIntel,59.99880002,,,,,,,,,,,0.7324,1,,,,,,,,,,,,,,,,,,,,,,,,,0.080299479,-0.131666667,0,0,0,,,,,,,BABOON,LB,m,y,./images/BABOONLB.png,,,,,,,m,1,0.7324,,,,,,,,0,21,21,58,1,
,,,,,,,,,,,,,,,,,198706,,2022-01-28_16h03.40.734,lexical_decision_task_DD_L2,2021.2.3,MacIntel,59.99880002,,,,,,,,,,,0.7238,0,,,,,,,,,,,,,,,,,,,,,,,,,0.080299479,-0.131666667,0,0,0,,,,,,,BEARD,C,m,y,./images/BEARD.png,,,,,,,z,0,0.7238,,,,,,,,0,22,22,2,1,
,,,,,,,,,,,,,,,,,198706,,2022-01-28_16h03.40.734,lexical_decision_task_DD_L2,2021.2.3,MacIntel,59.99880002,,,,,,,,,,,0.5918,1,,,,,,,,,,,,,,,,,,,,,,,,,0.080299479,-0.131666667,0,0,0,,,,,,,FINGER,HB,m,y,./images/FINGERHB.png,,,,,,,m,1,0.5918,,,,,,,,0,23,23,3,1,
,,,,,,,,,,,,,,,,,198706,,2022-01-28_16h03.40.734,lexical_decision_task_DD_L2,2021.2.3,MacIntel,59.99880002,,,,,,,,,,,0.6995,1,,,,,,,,,,,,,,,,,,,,,,,,,0.080299479,-0.131666667,0,0,0,,,,,,,GRAPE,LB,z,y,./images/GRAPELB.png,,,,,,,z,1,0.6995,,,,,,,,0,24,24,100,1,
,,,,,,,,,,,,,,,,,198706,,2022-01-28_16h03.40.734,lexical_decision_task_DD_L2,2021.2.3,MacIntel,59.99880002,,,,,,,,,,,0.5511,1,,,,,,,,,,,,,,,,,,,,,,,,,0.080299479,-0.131666667,0,0,0,,,,,,,ONION,HB,m,y,./images/ONIONHB.png,,,,,,,m,1,0.5511,,,,,,,,0,25,25,51,1,
,,,,,,,,,,,,,,,,,198706,,2022-01-28_16h03.40.734,lexical_decision_task_DD_L2,2021.2.3,MacIntel,59.99880002,,,,,,,,,,,0.6895,1,,,,,,,,,,,,,,,,,,,,,,,,,0.080299479,-0.131666667,0,0,0,,,,,,,PENCE,LB,m,y,./images/PENCELB.png,,,,,,,m,1,0.6895,,,,,,,,0,26,26,16,1,
,,,,,,,,,,,,,,,,,198706,,2022-01-28_16h03.40.734,lexical_decision_task_DD_L2,2021.2.3,MacIntel,59.99880002,,,,,,,,,,,0.7511,1,,,,,,,,,,,,,,,,,,,,,,,,,0.080299479,-0.131666667,0,0,0,,,,,,,STOOL,LB,z,y,./images/STOOLLB.png,,,,,,,z,1,0.7511,,,,,,,,0,27,27,127,1,
,,,,,,,,,,,,,,,,,198706,,2022-01-28_16h03.40.734,lexical_decision_task_DD_L2,2021.2.3,MacIntel,59.99880002,,,,,,,,,,,0.5338,1,,,,,,,,,,,,,,,,,,,,,,,,,0.080299479,-0.131666667,0,0,0,,,,,,,MOOSE,HB,m,y,./images/MOOSEHB.png,,,,,,,m,1,0.5338,,,,,,,,0,28,28,57,1,
,,,,,,,,,,,,,,,,,198706,,2022-01-28_16h03.40.734,lexical_decision_task_DD_L2,2021.2.3,MacIntel,59.99880002,,,,,,,,,,,0.6741,0,,,,,,,,,,,,,,,,,,,,,,,,,0.080299479,-0.131666667,0,0,0,,,,,,,MAMMAL,C,z,y,./images/MAMMAL.png,,,,,,,m,0,0.6741,,,,,,,,0,29,29,146,1,
,,,,,,,,,,,,,,,,,198706,,2022-01-28_16h03.40.734,lexical_decision_task_DD_L2,2021.2.3,MacIntel,59.99880002,,,,,,,,,,,0.6812,1,,,,,,,,,,,,,,,,,,,,,,,,,0.080299479,-0.131666667,0,0,0,,,,,,,CARPET,C,m,y,./images/CARPET.png,,,,,,,m,1,0.6812,,,,,,,,0,30,30,53,1,
,,,,,,,,,,,,,,,,,198706,,2022-01-28_16h03.40.734,lexical_decision_task_DD_L2,2021.2.3,MacIntel,59.99880002,,,,,,,,,,,0.7201,1,,,,,,,,,,,,,,,,,,,,,,,,,0.080299479,-0.131666667,0,0,0,,,,,,,GRAIN,HB,m,y,./images/GRAINHB.png,,,,,,,m,1,0.7201,,,,,,,,0,31,31,75,1,
,,,,,,,,,,,,,,,,,198706,,2022-01-28_16h03.40.734,lexical_decision_task_DD_L2,2021.2.3,MacIntel,59.99880002,,,,,,,,,,,0.733,1,,,,,,,,,,,,,,,,,,,,,,,,,0.080299479,-0.131666667,0,0,0,,,,,,,BAMBOO,C,z,y,./images/BAMBOO.png,,,,,,,z,1,0.733,,,,,,,,0,32,32,89,1,
,,,,,,,,,,,,,,,,,198706,,2022-01-28_16h03.40.734,lexical_decision_task_DD_L2,2021.2.3,MacIntel,59.99880002,,,,,,,,,,,0.8516,0,,,,,,,,,,,,,,,,,,,,,,,,,0.080299479,-0.131666667,0,0,0,,,,,,,SHORE,HB,m,y,./images/SHOREHB.png,,,,,,,z,0,0.8516,,,,,,,,0,33,33,12,1,
,,,,,,,,,,,,,,,,,198706,,2022-01-28_16h03.40.734,lexical_decision_task_DD_L2,2021.2.3,MacIntel,59.99880002,,,,,,,,,,,0.5865,1,,,,,,,,,,,,,,,,,,,,,,,,,0.080299479,-0.131666667,0,0,0,,,,,,,FALCON,LB,m,y,./images/FALCONLB.png,,,,,,,m,1,0.5865,,,,,,,,0,34,34,28,1,
,,,,,,,,,,,,,,,,,198706,,2022-01-28_16h03.40.734,lexical_decision_task_DD_L2,2021.2.3,MacIntel,59.99880002,,,,,,,,,,,0.6724,1,,,,,,,,,,,,,,,,,,,,,,,,,0.080299479,-0.131666667,0,0,0,,,,,,,STATUE,HB,z,y,./images/STATUEHB.png,,,,,,,z,1,0.6724,,,,,,,,0,35,35,150,1,
,,,,,,,,,,,,,,,,,198706,,2022-01-28_16h03.40.734,lexical_decision_task_DD_L2,2021.2.3,MacIntel,59.99880002,,,,,,,,,,,0.7243,1,,,,,,,,,,,,,,,,,,,,,,,,,0.080299479,-0.131666667,0,0,0,,,,,,,BLOKE,HB,z,y,./images/BLOKEHB.png,,,,,,,z,1,0.7243,,,,,,,,0,36,36,96,1,
,,,,,,,,,,,,,,,,,198706,,2022-01-28_16h03.40.734,lexical_decision_task_DD_L2,2021.2.3,MacIntel,59.99880002,,,,,,,,,,,1.7674,0,,,,,,,,,,,,,,,,,,,,,,,,,0.080299479,-0.131666667,0,0,0,,,,,,,RAZOR,LB,z,y,./images/RAZORLB.png,,,,,,,m,0,1.7674,,,,,,,,0,37,37,118,1,
,,,,,,,,,,,,,,,,,198706,,2022-01-28_16h03.40.734,lexical_decision_task_DD_L2,2021.2.3,MacIntel,59.99880002,,,,,,,,,,,0.7153,1,,,,,,,,,,,,,,,,,,,,,,,,,0.080299479,-0.131666667,0,0,0,,,,,,,POSTER,C,z,y,./images/POSTER.png,,,,,,,z,1,0.7153,,,,,,,,0,38,38,137,1,
,,,,,,,,,,,,,,,,,198706,,2022-01-28_16h03.40.734,lexical_decision_task_DD_L2,2021.2.3,MacIntel,59.99880002,,,,,,,,,,,0.5542,0,,,,,,,,,,,,,,,,,,,,,,,,,0.080299479,-0.131666667,0,0,0,,,,,,,STAIN,HB,z,y,./images/STAINHB.png,,,,,,,m,0,0.5542,,,,,,,,0,39,39,90,1,
,,,,,,,,,,,,,,,,,198706,,2022-01-28_16h03.40.734,lexical_decision_task_DD_L2,2021.2.3,MacIntel,59.99880002,,,,,,,,,,,0.7803,1,,,,,,,,,,,,,,,,,,,,,,,,,0.080299479,-0.131666667,0,0,0,,,,,,,SAUNA,HB,z,y,./images/SAUNAHB.png,,,,,,,z,1,0.7803,,,,,,,,0,40,40,117,1,
,,,,,,,,,,,,,,,,,198706,,2022-01-28_16h03.40.734,lexical_decision_task_DD_L2,2021.2.3,MacIntel,59.99880002,,,,,,,,,,,0.6533,1,,,,,,,,,,,,,,,,,,,,,,,,,0.044331597,-0.406471354,1,0,0,,,,,,,MAGGOT,HB,m,y,./images/MAGGOTHB.png,,,,,,,m,1,0.6533,,,,,,,,0,41,41,33,1,break_done_button
,,,,,,,,,,,,,,,,,198706,,2022-01-28_16h03.40.734,lexical_decision_task_DD_L2,2021.2.3,MacIntel,59.99880002,,,,,,,,,,,0.7329,0,,,,,,,,,,,,,,,,,,,,,,,,,0.044331597,-0.406471354,0,0,0,,,,,,,BASKET,C,z,y,./images/BASKET.png,,,,,,,m,0,0.7329,,,,,,,,0,42,42,128,1,
,,,,,,,,,,,,,,,,,198706,,2022-01-28_16h03.40.734,lexical_decision_task_DD_L2,2021.2.3,MacIntel,59.99880002,,,,,,,,,,,0.6379,1,,,,,,,,,,,,,,,,,,,,,,,,,0.044331597,-0.406471354,0,0,0,,,,,,,INFANT,LB,m,y,./images/INFANTLB.png,,,,,,,m,1,0.6379,,,,,,,,0,43,43,76,1,
,,,,,,,,,,,,,,,,,198706,,2022-01-28_16h03.40.734,lexical_decision_task_DD_L2,2021.2.3,MacIntel,59.99880002,,,,,,,,,,,0.4993,0,,,,,,,,,,,,,,,,,,,,,,,,,0.044331597,-0.406471354,0,0,0,,,,,,,PLANET,C,z,y,./images/PLANET.png,,,,,,,m,0,0.4993,,,,,,,,0,44,44,164,1,
,,,,,,,,,,,,,,,,,198706,,2022-01-28_16h03.40.734,lexical_decision_task_DD_L2,2021.2.3,MacIntel,59.99880002,,,,,,,,,,,0.4364,0,,,,,,,,,,,,,,,,,,,,,,,,,0.044331597,-0.406471354,0,0,0,,,,,,,URINE,LB,m,y,./images/URINELB.png,,,,,,,z,0,0.4364,,,,,,,,0,45,45,70,1,
,,,,,,,,,,,,,,,,,198706,,2022-01-28_16h03.40.734,lexical_decision_task_DD_L2,2021.2.3,MacIntel,59.99880002,,,,,,,,,,,0.5744,0,,,,,,,,,,,,,,,,,,,,,,,,,0.044331597,-0.406471354,0,0,0,,,,,,,PILOT,C,z,y,./images/PILOT.png,,,,,,,m,0,0.5744,,,,,,,,0,46,46,134,1,
,,,,,,,,,,,,,,,,,198706,,2022-01-28_16h03.40.734,lexical_decision_task_DD_L2,2021.2.3,MacIntel,59.99880002,,,,,,,,,,,0.6537,1,,,,,,,,,,,,,,,,,,,,,,,,,0.044331597,-0.406471354,0,0,0,,,,,,,BELLY,LB,m,y,./images/BELLYLB.png,,,,,,,m,1,0.6537,,,,,,,,0,47,47,10,1,
,,,,,,,,,,,,,,,,,198706,,2022-01-28_16h03.40.734,lexical_decision_task_DD_L2,2021.2.3,MacIntel,59.99880002,,,,,,,,,,,0.4648,0,,,,,,,,,,,,,,,,,,,,,,,,,0.044331597,-0.406471354,0,0,0,,,,,,,JUNGLE,C,m,y,./images/JUNGLE.png,,,,,,,z,0,0.4648,,,,,,,,0,48,48,83,1,
,,,,,,,,,,,,,,,,,198706,,2022-01-28_16h03.40.734,lexical_decision_task_DD_L2,2021.2.3,MacIntel,59.99880002,,,,,,,,,,,0.5971,1,,,,,,,,,,,,,,,,,,,,,,,,,0.044331597,-0.406471354,0,0,0,,,,,,,MONKEY,HB,z,y,./images/MONKEYHB.png,,,,,,,z,1,0.5971,,,,,,,,0,49,49,129,1,
,,,,,,,,,,,,,,,,,198706,,2022-01-28_16h03.40.734,lexical_decision_task_DD_L2,2021.2.3,MacIntel,59.99880002,,,,,,,,,,,0.7469,1,,,,,,,,,,,,,,,,,,,,,,,,,0.044331597,-0.406471354,0,0,0,,,,,,,BARREL,C,m,y,./images/BARREL.png,,,,,,,m,1,0.7469,,,,,,,,0,50,50,32,1,
,,,,,,,,,,,,,,,,,198706,,2022-01-28_16h03.40.734,lexical_decision_task_DD_L2,2021.2.3,MacIntel,59.99880002,,,,,,,,,,,0.6855,1,,,,,,,,,,,,,,,,,,,,,,,,,0.044331597,-0.406471354,0,0,0,,,,,,,SUNSET,LB,m,y,./images/SUNSETLB.png,,,,,,,m,1,0.6855,,,,,,,,0,51,51,82,1,
,,,,,,,,,,,,,,,,,198706,,2022-01-28_16h03.40.734,lexical_decision_task_DD_L2,2021.2.3,MacIntel,59.99880002,,,,,,,,,,,0.5056,0,,,,,,,,,,,,,,,,,,,,,,,,,0.044331597,-0.406471354,0,0,0,,,,,,,BERRY,C,m,y,./images/BERRY.png,,,,,,,z,0,0.5056,,,,,,,,0,52,52,47,1,
,,,,,,,,,,,,,,,,,198706,,2022-01-28_16h03.40.734,lexical_decision_task_DD_L2,2021.2.3,MacIntel,59.99880002,,,,,,,,,,,0.6035,1,,,,,,,,,,,,,,,,,,,,,,,,,0.044331597,-0.406471354,0,0,0,,,,,,,PAINT,LB,m,y,./images/PAINTLB.png,,,,,,,m,1,0.6035,,,,,,,,0,53,53,7,1,
,,,,,,,,,,,,,,,,,198706,,2022-01-28_16h03.40.734,lexical_decision_task_DD_L2,2021.2.3,MacIntel,59.99880002,,,,,,,,,,,0.5367,1,,,,,,,,,,,,,,,,,,,,,,,,,0.044331597,-0.406471354,0,0,0,,,,,,,ALLEY,LB,z,y,./images/ALLEYLB.png,,,,,,,z,1,0.5367,,,,,,,,0,54,54,139,1,
,,,,,,,,,,,,,,,,,198706,,2022-01-28_16h03.40.734,lexical_decision_task_DD_L2,2021.2.3,MacIntel,59.99880002,,,,,,,,,,,0.4241,1,,,,,,,,,,,,,,,,,,,,,,,,,0.044331597,-0.406471354,0,0,0,,,,,,,GRANNY,C,z,y,./images/GRANNY.png,,,,,,,z,1,0.4241,,,,,,,,0,55,55,104,1,
,,,,,,,,,,,,,,,,,198706,,2022-01-28_16h03.40.734,lexical_decision_task_DD_L2,2021.2.3,MacIntel,59.99880002,,,,,,,,,,,0.8645,0,,,,,,,,,,,,,,,,,,,,,,,,,0.044331597,-0.406471354,0,0,0,,,,,,,FOLDER,HB,m,y,./images/FOLDERHB.png,,,,,,,z,0,0.8645,,,,,,,,0,56,56,42,1,
,,,,,,,,,,,,,,,,,198706,,2022-01-28_16h03.40.734,lexical_decision_task_DD_L2,2021.2.3,MacIntel,59.99880002,,,,,,,,,,,0.5203,1,,,,,,,,,,,,,,,,,,,,,,,,,0.044331597,-0.406471354,0,0,0,,,,,,,PICKLE,C,m,y,./images/PICKLE.png,,,,,,,m,1,0.5203,,,,,,,,0,57,57,14,1,
,,,,,,,,,,,,,,,,,198706,,2022-01-28_16h03.40.734,lexical_decision_task_DD_L2,2021.2.3,MacIntel,59.99880002,,,,,,,,,,,0.708,1,,,,,,,,,,,,,,,,,,,,,,,,,0.044331597,-0.406471354,0,0,0,,,,,,,PEARL,LB,m,y,./images/PEARLLB.png,,,,,,,m,1,0.708,,,,,,,,0,58,58,46,1,
,,,,,,,,,,,,,,,,,198706,,2022-01-28_16h03.40.734,lexical_decision_task_DD_L2,2021.2.3,MacIntel,59.99880002,,,,,,,,,,,0.8146,0,,,,,,,,,,,,,,,,,,,,,,,,,0.044331597,-0.406471354,0,0,0,,,,,,,WALNUT,HB,z,y,./images/WALNUTHB.png,,,,,,,m,0,0.8146,,,,,,,,0,59,59,84,1,
,,,,,,,,,,,,,,,,,198706,,2022-01-28_16h03.40.734,lexical_decision_task_DD_L2,2021.2.3,MacIntel,59.99880002,,,,,,,,,,,0.5866,1,,,,,,,,,,,,,,,,,,,,,,,,,0.044331597,-0.406471354,0,0,0,,,,,,,PACKET,C,m,y,./images/PACKET.png,,,,,,,m,1,0.5866,,,,,,,,0,60,60,56,1,
,,,,,,,,,,,,,,,,,198706,,2022-01-28_16h03.40.734,lexical_decision_task_DD_L2,2021.2.3,MacIntel,59.99880002,,,,,,,,,,,0.5503,1,,,,,,,,,,,,,,,,,,,,,,,,,0.044331597,-0.406471354,0,0,0,,,,,,,CLIFF,C,z,y,./images/CLIFF.png,,,,,,,z,1,0.5503,,,,,,,,0,61,61,92,1,
,,,,,,,,,,,,,,,,,198706,,2022-01-28_16h03.40.734,lexical_decision_task_DD_L2,2021.2.3,MacIntel,59.99880002,,,,,,,,,,,0.5234,1,,,,,,,,,,,,,,,,,,,,,,,,,0.044331597,-0.406471354,0,0,0,,,,,,,CRUST,LB,m,y,./images/CRUSTLB.png,,,,,,,m,1,0.5234,,,,,,,,0,62,62,79,1,
,,,,,,,,,,,,,,,,,198706,,2022-01-28_16h03.40.734,lexical_decision_task_DD_L2,2021.2.3,MacIntel,59.99880002,,,,,,,,,,,0.5989,0,,,,,,,,,,,,,,,,,,,,,,,,,0.044331597,-0.406471354,0,0,0,,,,,,,CANOE,LB,z,y,./images/CANOELB.png,,,,,,,m,0,0.5989,,,,,,,,0,63,63,142,1,
,,,,,,,,,,,,,,,,,198706,,2022-01-28_16h03.40.734,lexical_decision_task_DD_L2,2021.2.3,MacIntel,59.99880002,,,,,,,,,,,0.6062,1,,,,,,,,,,,,,,,,,,,,,,,,,0.044331597,-0.406471354,0,0,0,,,,,,,BANNER,LB,m,y,./images/BANNERLB.png,,,,,,,m,1,0.6062,,,,,,,,0,64,64,52,1,
,,,,,,,,,,,,,,,,,198706,,2022-01-28_16h03.40.734,lexical_decision_task_DD_L2,2021.2.3,MacIntel,59.99880002,,,,,,,,,,,0.609,0,,,,,,,,,,,,,,,,,,,,,,,,,0.044331597,-0.406471354,0,0,0,,,,,,,SHIELD,HB,z,y,./images/SHIELDHB.png,,,,,,,m,0,0.609,,,,,,,,0,65,65,132,1,
,,,,,,,,,,,,,,,,,198706,,2022-01-28_16h03.40.734,lexical_decision_task_DD_L2,2021.2.3,MacIntel,59.99880002,,,,,,,,,,,0.5002,1,,,,,,,,,,,,,,,,,,,,,,,,,0.044331597,-0.406471354,0,0,0,,,,,,,SNAKE,LB,z,y,./images/SNAKELB.png,,,,,,,z,1,0.5002,,,,,,,,0,66,66,124,1,
,,,,,,,,,,,,,,,,,198706,,2022-01-28_16h03.40.734,lexical_decision_task_DD_L2,2021.2.3,MacIntel,59.99880002,,,,,,,,,,,0.5981,1,,,,,,,,,,,,,,,,,,,,,,,,,0.044331597,-0.406471354,0,0,0,,,,,,,STRING,C,m,y,./images/STRING.png,,,,,,,m,1,0.5981,,,,,,,,0,67,67,41,1,
,,,,,,,,,,,,,,,,,198706,,2022-01-28_16h03.40.734,lexical_decision_task_DD_L2,2021.2.3,MacIntel,59.99880002,,,,,,,,,,,0.7293,1,,,,,,,,,,,,,,,,,,,,,,,,,0.044331597,-0.406471354,0,0,0,,,,,,,MELON,LB,m,y,./images/MELONLB.png,,,,,,,m,1,0.7293,,,,,,,,0,68,68,22,1,
,,,,,,,,,,,,,,,,,198706,,2022-01-28_16h03.40.734,lexical_decision_task_DD_L2,2021.2.3,MacIntel,59.99880002,,,,,,,,,,,0.7819,1,,,,,,,,,,,,,,,,,,,,,,,,,0.044331597,-0.406471354,0,0,0,,,,,,,LADDER,C,m,y,./images/LADDER.png,,,,,,,m,1,0.7819,,,,,,,,0,69,69,38,1,
,,,,,,,,,,,,,,,,,198706,,2022-01-28_16h03.40.734,lexical_decision_task_DD_L2,2021.2.3,MacIntel,59.99880002,,,,,,,,,,,0.532,0,,,,,,,,,,,,,,,,,,,,,,,,,0.044331597,-0.406471354,0,0,0,,,,,,,POKER,LB,z,y,./images/POKERLB.png,,,,,,,m,0,0.532,,,,,,,,0,70,70,151,1,
,,,,,,,,,,,,,,,,,198706,,2022-01-28_16h03.40.734,lexical_decision_task_DD_L2,2021.2.3,MacIntel,59.99880002,,,,,,,,,,,0.6157,1,,,,,,,,,,,,,,,,,,,,,,,,,0.044331597,-0.406471354,0,0,0,,,,,,,PEBBLE,LB,z,y,./images/PEBBLELB.png,,,,,,,z,1,0.6157,,,,,,,,0,71,71,166,1,
,,,,,,,,,,,,,,,,,198706,,2022-01-28_16h03.40.734,lexical_decision_task_DD_L2,2021.2.3,MacIntel,59.99880002,,,,,,,,,,,0.7509,1,,,,,,,,,,,,,,,,,,,,,,,,,0.044331597,-0.406471354,0,0,0,,,,,,,HOCKEY,C,z,y,./images/HOCKEY.png,,,,,,,z,1,0.7509,,,,,,,,0,72,72,116,1,
,,,,,,,,,,,,,,,,,198706,,2022-01-28_16h03.40.734,lexical_decision_task_DD_L2,2021.2.3,MacIntel,59.99880002,,,,,,,,,,,0.6826,0,,,,,,,,,,,,,,,,,,,,,,,,,0.044331597,-0.406471354,0,0,0,,,,,,,PASTA,C,m,y,./images/PASTA.png,,,,,,,z,0,0.6826,,,,,,,,0,73,73,5,1,
,,,,,,,,,,,,,,,,,198706,,2022-01-28_16h03.40.734,lexical_decision_task_DD_L2,2021.2.3,MacIntel,59.99880002,,,,,,,,,,,0.567,1,,,,,,,,,,,,,,,,,,,,,,,,,0.044331597,-0.406471354,0,0,0,,,,,,,FARMER,C,m,y,./images/FARMER.png,,,,,,,m,1,0.567,,,,,,,,0,74,74,65,1,
,,,,,,,,,,,,,,,,,198706,,2022-01-28_16h03.40.734,lexical_decision_task_DD_L2,2021.2.3,MacIntel,59.99880002,,,,,,,,,,,0.6315,1,,,,,,,,,,,,,,,,,,,,,,,,,0.044331597,-0.406471354,0,0,0,,,,,,,MOSQUE,LB,m,y,./images/MOSQUELB.png,,,,,,,m,1,0.6315,,,,,,,,0,75,75,43,1,
,,,,,,,,,,,,,,,,,198706,,2022-01-28_16h03.40.734,lexical_decision_task_DD_L2,2021.2.3,MacIntel,59.99880002,,,,,,,,,,,0.625,1,,,,,,,,,,,,,,,,,,,,,,,,,0.044331597,-0.406471354,0,0,0,,,,,,,TIGER,LB,z,y,./images/TIGERLB.png,,,,,,,z,1,0.625,,,,,,,,0,76,76,121,1,
,,,,,,,,,,,,,,,,,198706,,2022-01-28_16h03.40.734,lexical_decision_task_DD_L2,2021.2.3,MacIntel,59.99880002,,,,,,,,,,,0.6678,1,,,,,,,,,,,,,,,,,,,,,,,,,0.044331597,-0.406471354,0,0,0,,,,,,,PISTOL,C,z,y,./images/PISTOL.png,,,,,,,z,1,0.6678,,,,,,,,0,77,77,113,1,
,,,,,,,,,,,,,,,,,198706,,2022-01-28_16h03.40.734,lexical_decision_task_DD_L2,2021.2.3,MacIntel,59.99880002,,,,,,,,,,,0.7144,1,,,,,,,,,,,,,,,,,,,,,,,,,0.044331597,-0.406471354,0,0,0,,,,,,,MIDGET,LB,z,y,./images/MIDGETLB.png,,,,,,,z,1,0.7144,,,,,,,,0,78,78,160,1,
,,,,,,,,,,,,,,,,,198706,,2022-01-28_16h03.40.734,lexical_decision_task_DD_L2,2021.2.3,MacIntel,59.99880002,,,,,,,,,,,0.9632,0,,,,,,,,,,,,,,,,,,,,,,,,,0.044331597,-0.406471354,0,0,0,,,,,,,GLOVE,LB,z,y,./images/GLOVELB.png,,,,,,,m,0,0.9632,,,,,,,,0,79,79,157,1,
,,,,,,,,,,,,,,,,,198706,,2022-01-28_16h03.40.734,lexical_decision_task_DD_L2,2021.2.3,MacIntel,59.99880002,,,,,,,,,,,0.5158,0,,,,,,,,,,,,,,,,,,,,,,,,,0.044331597,-0.406471354,0,0,0,,,,,,,TWINS,HB,m,y,./images/TWINSHB.png,,,,,,,z,0,0.5158,,,,,,,,0,80,80,60,1,
,,,,,,,,,,,,,,,,,198706,,2022-01-28_16h03.40.734,lexical_decision_task_DD_L2,2021.2.3,MacIntel,59.99880002,,,,,,,,,,,0.6471,0,,,,,,,,,,,,,,,,,,,,,,,,,0.044331597,-0.406471354,0,0,0,,,,,,,STEAK,LB,z,y,./images/STEAKLB.png,,,,,,,m,0,0.6471,,,,,,,,0,81,81,115,1,
,,,,,,,,,,,,,,,,,198706,,2022-01-28_16h03.40.734,lexical_decision_task_DD_L2,2021.2.3,MacIntel,59.99880002,,,,,,,,,,,1.0031,1,,,,,,,,,,,,,,,,,,,,,,,,,0.044331597,-0.406471354,0,0,0,,,,,,,SCREW,HB,m,y,./images/SCREWHB.png,,,,,,,m,1,1.0031,,,,,,,,0,82,82,24,1,
,,,,,,,,,,,,,,,,,198706,,2022-01-28_16h03.40.734,lexical_decision_task_DD_L2,2021.2.3,MacIntel,59.99880002,,,,,,,,,,,0.7145,1,,,,,,,,,,,,,,,,,,,,,,,,,0.380815972,-0.321263021,0,0,0,space,,,,,,BRUSH,C,z,y,./images/BRUSH.png,37.9526,,,,,,z,1,0.7145,,,,,,,,0,83,83,143,1,
,,,,,,,,,,,,,,,,,198706,,2022-01-28_16h03.40.734,lexical_decision_task_DD_L2,2021.2.3,MacIntel,59.99880002,,,,,,,,,,,0.9974,0,,,,,,,,,,,,,,,,,,,,,,,,,0.380815972,-0.321263021,0,0,0,,,,,,,ARTIST,LB,z,y,./images/ARTISTLB.png,,,,,,,m,0,0.9974,,,,,,,,0,84,84,145,1,
,,,,,,,,,,,,,,,,,198706,,2022-01-28_16h03.40.734,lexical_decision_task_DD_L2,2021.2.3,MacIntel,59.99880002,,,,,,,,,,,0.5841,0,,,,,,,,,,,,,,,,,,,,,,,,,0.380815972,-0.321263021,0,0,0,,,,,,,CHALK,LB,z,y,./images/CHALKLB.png,,,,,,,m,0,0.5841,,,,,,,,0,85,85,109,1,
,,,,,,,,,,,,,,,,,198706,,2022-01-28_16h03.40.734,lexical_decision_task_DD_L2,2021.2.3,MacIntel,59.99880002,,,,,,,,,,,0.4802,0,,,,,,,,,,,,,,,,,,,,,,,,,0.380815972,-0.321263021,0,0,0,,,,,,,STREAM,C,z,y,./images/STREAM.png,,,,,,,m,0,0.4802,,,,,,,,0,86,86,125,1,
,,,,,,,,,,,,,,,,,198706,,2022-01-28_16h03.40.734,lexical_decision_task_DD_L2,2021.2.3,MacIntel,59.99880002,,,,,,,,,,,0.4849,1,,,,,,,,,,,,,,,,,,,,,,,,,0.380815972,-0.321263021,0,0,0,,,,,,,FERRY,HB,z,y,./images/FERRYHB.png,,,,,,,z,1,0.4849,,,,,,,,0,87,87,141,1,
,,,,,,,,,,,,,,,,,198706,,2022-01-28_16h03.40.734,lexical_decision_task_DD_L2,2021.2.3,MacIntel,59.99880002,,,,,,,,,,,0.2801,0,,,,,,,,,,,,,,,,,,,,,,,,,0.380815972,-0.321263021,0,0,0,,,,,,,MUMMY,LB,z,y,./images/MUMMYLB.png,,,,,,,m,0,0.2801,,,,,,,,0,88,88,130,1,
,,,,,,,,,,,,,,,,,198706,,2022-01-28_16h03.40.734,lexical_decision_task_DD_L2,2021.2.3,MacIntel,59.99880002,,,,,,,,,,,0.2553,0,,,,,,,,,,,,,,,,,,,,,,,,,0.380815972,-0.321263021,0,0,0,,,,,,,WRIST,LB,m,y,./images/WRISTLB.png,,,,,,,z,0,0.2553,,,,,,,,0,89,89,25,1,
,,,,,,,,,,,,,,,,,198706,,2022-01-28_16h03.40.734,lexical_decision_task_DD_L2,2021.2.3,MacIntel,59.99880002,,,,,,,,,,,0.4987,1,,,,,,,,,,,,,,,,,,,,,,,,,0.380815972,-0.321263021,0,0,0,,,,,,,WHISKY,C,z,y,./images/WHISKY.png,,,,,,,z,1,0.4987,,,,,,,,0,90,90,167,1,
,,,,,,,,,,,,,,,,,198706,,2022-01-28_16h03.40.734,lexical_decision_task_DD_L2,2021.2.3,MacIntel,59.99880002,,,,,,,,,,,0.5155,1,,,,,,,,,,,,,,,,,,,,,,,,,0.380815972,-0.321263021,0,0,0,,,,,,,CHERRY,HB,z,y,./images/CHERRYHB.png,,,,,,,z,1,0.5155,,,,,,,,0,91,91,138,1,
,,,,,,,,,,,,,,,,,198706,,2022-01-28_16h03.40.734,lexical_decision_task_DD_L2,2021.2.3,MacIntel,59.99880002,,,,,,,,,,,0.4804,1,,,,,,,,,,,,,,,,,,,,,,,,,0.380815972,-0.321263021,0,0,0,,,,,,,DESERT,LB,z,y,./images/DESERTLB.png,,,,,,,z,1,0.4804,,,,,,,,0,92,92,136,1,
,,,,,,,,,,,,,,,,,198706,,2022-01-28_16h03.40.734,lexical_decision_task_DD_L2,2021.2.3,MacIntel,59.99880002,,,,,,,,,,,0.2527,0,,,,,,,,,,,,,,,,,,,,,,,,,0.380815972,-0.321263021,0,0,0,,,,,,,CLOWN,LB,z,y,./images/CLOWNLB.png,,,,,,,m,0,0.2527,,,,,,,,0,93,93,106,1,
,,,,,,,,,,,,,,,,,198706,,2022-01-28_16h03.40.734,lexical_decision_task_DD_L2,2021.2.3,MacIntel,59.99880002,,,,,,,,,,,0.4099,0,,,,,,,,,,,,,,,,,,,,,,,,,0.380815972,-0.321263021,0,0,0,,,,,,,GARDEN,LB,z,y,./images/GARDENLB.png,,,,,,,m,0,0.4099,,,,,,,,0,94,94,94,1,
,,,,,,,,,,,,,,,,,198706,,2022-01-28_16h03.40.734,lexical_decision_task_DD_L2,2021.2.3,MacIntel,59.99880002,,,,,,,,,,,0.4648,1,,,,,,,,,,,,,,,,,,,,,,,,,0.380815972,-0.321263021,0,0,0,,,,,,,CRUMB,C,m,y,./images/CRUMB.png,,,,,,,m,1,0.4648,,,,,,,,0,95,95,29,1,
,,,,,,,,,,,,,,,,,198706,,2022-01-28_16h03.40.734,lexical_decision_task_DD_L2,2021.2.3,MacIntel,59.99880002,,,,,,,,,,,0.3645,0,,,,,,,,,,,,,,,,,,,,,,,,,0.380815972,-0.321263021,0,0,0,,,,,,,SMOKER,C,m,y,./images/SMOKER.png,,,,,,,z,0,0.3645,,,,,,,,0,96,96,26,1,
,,,,,,,,,,,,,,,,,198706,,2022-01-28_16h03.40.734,lexical_decision_task_DD_L2,2021.2.3,MacIntel,59.99880002,,,,,,,,,,,0.2222,1,,,,,,,,,,,,,,,,,,,,,,,,,0.380815972,-0.321263021,0,0,0,,,,,,,PIMPLE,C,m,y,./images/PIMPLE.png,,,,,,,m,1,0.2222,,,,,,,,0,97,97,71,1,
,,,,,,,,,,,,,,,,,198706,,2022-01-28_16h03.40.734,lexical_decision_task_DD_L2,2021.2.3,MacIntel,59.99880002,,,,,,,,,,,0.4718,1,,,,,,,,,,,,,,,,,,,,,,,,,0.380815972,-0.321263021,0,0,0,,,,,,,SKIING,C,m,y,./images/SKIING.png,,,,,,,m,1,0.4718,,,,,,,,0,98,98,17,1,
,,,,,,,,,,,,,,,,,198706,,2022-01-28_16h03.40.734,lexical_decision_task_DD_L2,2021.2.3,MacIntel,59.99880002,,,,,,,,,,,0.6304,1,,,,,,,,,,,,,,,,,,,,,,,,,0.380815972,-0.321263021,0,0,0,,,,,,,PEACH,C,m,y,./images/PEACH.png,,,,,,,m,1,0.6304,,,,,,,,0,99,99,35,1,
,,,,,,,,,,,,,,,,,198706,,2022-01-28_16h03.40.734,lexical_decision_task_DD_L2,2021.2.3,MacIntel,59.99880002,,,,,,,,,,,0.5825,0,,,,,,,,,,,,,,,,,,,,,,,,,0.380815972,-0.321263021,0,0,0,,,,,,,COUCH,C,m,y,./images/COUCH.png,,,,,,,z,0,0.5825,,,,,,,,0,100,100,77,1,
,,,,,,,,,,,,,,,,,198706,,2022-01-28_16h03.40.734,lexical_decision_task_DD_L2,2021.2.3,MacIntel,59.99880002,,,,,,,,,,,0.5173,0,,,,,,,,,,,,,,,,,,,,,,,,,0.380815972,-0.321263021,0,0,0,,,,,,,CRATER,HB,z,y,./images/CRATERHB.png,,,,,,,m,0,0.5173,,,,,,,,0,101,101,87,1,
,,,,,,,,,,,,,,,,,198706,,2022-01-28_16h03.40.734,lexical_decision_task_DD_L2,2021.2.3,MacIntel,59.99880002,,,,,,,,,,,0.7012,0,,,,,,,,,,,,,,,,,,,,,,,,,0.380815972,-0.321263021,0,0,0,,,,,,,BIRTH,LB,m,y,./images/BIRTHLB.png,,,,,,,z,0,0.7012,,,,,,,,0,102,102,37,1,
,,,,,,,,,,,,,,,,,198706,,2022-01-28_16h03.40.734,lexical_decision_task_DD_L2,2021.2.3,MacIntel,59.99880002,,,,,,,,,,,0.5734,1,,,,,,,,,,,,,,,,,,,,,,,,,0.380815972,-0.321263021,0,0,0,,,,,,,COOKER,HB,m,y,./images/COOKERHB.png,,,,,,,m,1,0.5734,,,,,,,,0,103,103,69,1,
,,,,,,,,,,,,,,,,,198706,,2022-01-28_16h03.40.734,lexical_decision_task_DD_L2,2021.2.3,MacIntel,59.99880002,,,,,,,,,,,0.4151,1,,,,,,,,,,,,,,,,,,,,,,,,,0.380815972,-0.321263021,0,0,0,,,,,,,VALLEY,C,z,y,./images/VALLEY.png,,,,,,,z,1,0.4151,,,,,,,,0,104,104,152,1,
,,,,,,,,,,,,,,,,,198706,,2022-01-28_16h03.40.734,lexical_decision_task_DD_L2,2021.2.3,MacIntel,59.99880002,,,,,,,,,,,0.4744,0,,,,,,,,,,,,,,,,,,,,,,,,,0.380815972,-0.321263021,0,0,0,,,,,,,FLASK,HB,z,y,./images/FLASKHB.png,,,,,,,m,0,0.4744,,,,,,,,0,105,105,156,1,
,,,,,,,,,,,,,,,,,198706,,2022-01-28_16h03.40.734,lexical_decision_task_DD_L2,2021.2.3,MacIntel,59.99880002,,,,,,,,,,,0.559,1,,,,,,,,,,,,,,,,,,,,,,,,,0.380815972,-0.321263021,0,0,0,,,,,,,BONNET,C,m,y,./images/BONNET.png,,,,,,,m,1,0.559,,,,,,,,0,106,106,11,1,
,,,,,,,,,,,,,,,,,198706,,2022-01-28_16h03.40.734,lexical_decision_task_DD_L2,2021.2.3,MacIntel,59.99880002,,,,,,,,,,,0.458,1,,,,,,,,,,,,,,,,,,,,,,,,,0.380815972,-0.321263021,0,0,0,,,,,,,DRILL,HB,z,y,./images/DRILLHB.png,,,,,,,z,1,0.458,,,,,,,,0,107,107,165,1,
,,,,,,,,,,,,,,,,,198706,,2022-01-28_16h03.40.734,lexical_decision_task_DD_L2,2021.2.3,MacIntel,59.99880002,,,,,,,,,,,0.4983,0,,,,,,,,,,,,,,,,,,,,,,,,,0.380815972,-0.321263021,0,0,0,,,,,,,LAGOON,C,z,y,./images/LAGOON.png,,,,,,,m,0,0.4983,,,,,,,,0,108,108,131,1,
,,,,,,,,,,,,,,,,,198706,,2022-01-28_16h03.40.734,lexical_decision_task_DD_L2,2021.2.3,MacIntel,59.99880002,,,,,,,,,,,0.0168,0,,,,,,,,,,,,,,,,,,,,,,,,,0.380815972,-0.321263021,0,0,0,,,,,,,GREASE,HB,m,y,./images/GREASEHB.png,,,,,,,z,0,0.0168,,,,,,,,0,109,109,15,1,
,,,,,,,,,,,,,,,,,198706,,2022-01-28_16h03.40.734,lexical_decision_task_DD_L2,2021.2.3,MacIntel,59.99880002,,,,,,,,,,,0.4969,0,,,,,,,,,,,,,,,,,,,,,,,,,0.380815972,-0.321263021,0,0,0,,,,,,,PARCEL,HB,z,y,./images/PARCELHB.png,,,,,,,m,0,0.4969,,,,,,,,0,110,110,102,1,
,,,,,,,,,,,,,,,,,198706,,2022-01-28_16h03.40.734,lexical_decision_task_DD_L2,2021.2.3,MacIntel,59.99880002,,,,,,,,,,,0.5583,0,,,,,,,,,,,,,,,,,,,,,,,,,0.380815972,-0.321263021,0,0,0,,,,,,,CEMENT,C,m,y,./images/CEMENT.png,,,,,,,z,0,0.5583,,,,,,,,0,111,111,74,1,
,,,,,,,,,,,,,,,,,198706,,2022-01-28_16h03.40.734,lexical_decision_task_DD_L2,2021.2.3,MacIntel,59.99880002,,,,,,,,,,,0.7968,1,,,,,,,,,,,,,,,,,,,,,,,,,0.380815972,-0.321263021,0,0,0,,,,,,,THROAT,HB,m,y,./images/THROATHB.png,,,,,,,m,1,0.7968,,,,,,,,0,112,112,36,1,
,,,,,,,,,,,,,,,,,198706,,2022-01-28_16h03.40.734,lexical_decision_task_DD_L2,2021.2.3,MacIntel,59.99880002,,,,,,,,,,,0.7495,1,,,,,,,,,,,,,,,,,,,,,,,,,0.380815972,-0.321263021,0,0,0,,,,,,,SAILOR,LB,m,y,./images/SAILORLB.png,,,,,,,m,1,0.7495,,,,,,,,0,113,113,67,1,
,,,,,,,,,,,,,,,,,198706,,2022-01-28_16h03.40.734,lexical_decision_task_DD_L2,2021.2.3,MacIntel,59.99880002,,,,,,,,,,,0.7128,1,,,,,,,,,,,,,,,,,,,,,,,,,0.380815972,-0.321263021,0,0,0,,,,,,,MUFFIN,LB,m,y,./images/MUFFINLB.png,,,,,,,m,1,0.7128,,,,,,,,0,114,114,55,1,
,,,,,,,,,,,,,,,,,198706,,2022-01-28_16h03.40.734,lexical_decision_task_DD_L2,2021.2.3,MacIntel,59.99880002,,,,,,,,,,,0.6326,1,,,,,,,,,,,,,,,,,,,,,,,,,0.380815972,-0.321263021,0,0,0,,,,,,,PLANK,LB,m,y,./images/PLANKLB.png,,,,,,,m,1,0.6326,,,,,,,,0,115,115,1,1,
,,,,,,,,,,,,,,,,,198706,,2022-01-28_16h03.40.734,lexical_decision_task_DD_L2,2021.2.3,MacIntel,59.99880002,,,,,,,,,,,0.8559,1,,,,,,,,,,,,,,,,,,,,,,,,,0.380815972,-0.321263021,0,0,0,,,,,,,KITTEN,HB,m,y,./images/KITTENHB.png,,,,,,,m,1,0.8559,,,,,,,,0,116,116,45,1,
,,,,,,,,,,,,,,,,,198706,,2022-01-28_16h03.40.734,lexical_decision_task_DD_L2,2021.2.3,MacIntel,59.99880002,,,,,,,,,,,0.4832,1,,,,,,,,,,,,,,,,,,,,,,,,,0.380815972,-0.321263021,0,0,0,,,,,,,PURSE,C,m,y,./images/PURSE.png,,,,,,,m,1,0.4832,,,,,,,,0,117,117,62,1,
,,,,,,,,,,,,,,,,,198706,,2022-01-28_16h03.40.734,lexical_decision_task_DD_L2,2021.2.3,MacIntel,59.99880002,,,,,,,,,,,0.5641,1,,,,,,,,,,,,,,,,,,,,,,,,,0.380815972,-0.321263021,0,0,0,,,,,,,MIRROR,HB,m,y,./images/MIRRORHB.png,,,,,,,m,1,0.5641,,,,,,,,0,118,118,63,1,
,,,,,,,,,,,,,,,,,198706,,2022-01-28_16h03.40.734,lexical_decision_task_DD_L2,2021.2.3,MacIntel,59.99880002,,,,,,,,,,,0.5238,0,,,,,,,,,,,,,,,,,,,,,,,,,0.380815972,-0.321263021,0,0,0,,,,,,,BURIAL,C,m,y,./images/BURIAL.png,,,,,,,z,0,0.5238,,,,,,,,0,119,119,59,1,
,,,,,,,,,,,,,,,,,198706,,2022-01-28_16h03.40.734,lexical_decision_task_DD_L2,2021.2.3,MacIntel,59.99880002,,,,,,,,,,,0.6983,1,,,,,,,,,,,,,,,,,,,,,,,,,0.380815972,-0.321263021,0,0,0,,,,,,,MALLET,C,m,y,./images/MALLET.png,,,,,,,m,1,0.6983,,,,,,,,0,120,120,50,1,
,,,,,,,,,,,,,,,,,198706,,2022-01-28_16h03.40.734,lexical_decision_task_DD_L2,2021.2.3,MacIntel,59.99880002,,,,,,,,,,,0.6046,1,,,,,,,,,,,,,,,,,,,,,,,,,0.380815972,-0.321263021,0,0,0,,,,,,,HEATER,C,z,y,./images/HEATER.png,,,,,,,z,1,0.6046,,,,,,,,0,121,121,140,1,
,,,,,,,,,,,,,,,,,198706,,2022-01-28_16h03.40.734,lexical_decision_task_DD_L2,2021.2.3,MacIntel,59.99880002,,,,,,,,,,,0.5053,1,,,,,,,,,,,,,,,,,,,,,,,,,0.380815972,-0.321263021,0,0,0,,,,,,,BAKER,HB,z,y,./images/BAKERHB.png,,,,,,,z,1,0.5053,,,,,,,,0,122,122,147,1,
,,,,,,,,,,,,,,,,,198706,,2022-01-28_16h03.40.734,lexical_decision_task_DD_L2,2021.2.3,MacIntel,59.99880002,,,,,,,,,,,0.5173,1,,,,,,,,,,,,,,,,,,,,,,,,,0.380815972,-0.321263021,0,0,0,,,,,,,LITTER,HB,m,y,./images/LITTERHB.png,,,,,,,m,1,0.5173,,,,,,,,0,123,123,78,1,
,,,,,,,,,,,,,,,,,198706,,2022-01-28_16h03.40.734,lexical_decision_task_DD_L2,2021.2.3,MacIntel,59.99880002,,,,,,,,,,,0.6559,0,,,,,,,,,,,,,,,,,,,,,,,,,0.380815972,-0.321263021,0,0,0,,,,,,,ATTIC,HB,m,y,./images/ATTICHB.png,,,,,,,z,0,0.6559,,,,,,,,0,124,124,27,1,
,,,,,,,,,,,,,,,,,198706,,2022-01-28_16h03.40.734,lexical_decision_task_DD_L2,2021.2.3,MacIntel,59.99880002,,,,,,,,,,,0.6162,1,,,,,,,,,,,,,,,,,,,,,,,,,0.380815972,-0.321263021,0,0,0,space,,,,,,DOUGH,LB,m,y,./images/DOUGHLB.png,1.8999,,,,,,m,1,0.6162,,,,,,,,0,125,125,19,1,
,,,,,,,,,,,,,,,,,198706,,2022-01-28_16h03.40.734,lexical_decision_task_DD_L2,2021.2.3,MacIntel,59.99880002,,,,,,,,,,,0.5569,0,,,,,,,,,,,,,,,,,,,,,,,,,0.380815972,-0.321263021,0,0,0,,,,,,,LLAMA,C,z,y,./images/LLAMA.png,,,,,,,m,0,0.5569,,,,,,,,0,126,126,119,1,
,,,,,,,,,,,,,,,,,198706,,2022-01-28_16h03.40.734,lexical_decision_task_DD_L2,2021.2.3,MacIntel,59.99880002,,,,,,,,,,,0.6664,0,,,,,,,,,,,,,,,,,,,,,,,,,0.380815972,-0.321263021,0,0,0,,,,,,,FENCE,C,z,y,./images/FENCE.png,,,,,,,m,0,0.6664,,,,,,,,0,127,127,98,1,
,,,,,,,,,,,,,,,,,198706,,2022-01-28_16h03.40.734,lexical_decision_task_DD_L2,2021.2.3,MacIntel,59.99880002,,,,,,,,,,,0.6912,0,,,,,,,,,,,,,,,,,,,,,,,,,0.380815972,-0.321263021,0,0,0,,,,,,,SQUARE,HB,m,y,./images/SQUAREHB.png,,,,,,,z,0,0.6912,,,,,,,,0,128,128,6,1,
,,,,,,,,,,,,,,,,,198706,,2022-01-28_16h03.40.734,lexical_decision_task_DD_L2,2021.2.3,MacIntel,59.99880002,,,,,,,,,,,0.5668,0,,,,,,,,,,,,,,,,,,,,,,,,,0.380815972,-0.321263021,0,0,0,,,,,,,SLOPE,HB,z,y,./images/SLOPEHB.png,,,,,,,m,0,0.5668,,,,,,,,0,129,129,114,1,
,,,,,,,,,,,,,,,,,198706,,2022-01-28_16h03.40.734,lexical_decision_task_DD_L2,2021.2.3,MacIntel,59.99880002,,,,,,,,,,,0.8814,1,,,,,,,,,,,,,,,,,,,,,,,,,0.380815972,-0.321263021,0,0,0,,,,,,,SNACK,LB,m,y,./images/SNACKLB.png,,,,,,,m,1,0.8814,,,,,,,,0,130,130,73,1,
,,,,,,,,,,,,,,,,,198706,,2022-01-28_16h03.40.734,lexical_decision_task_DD_L2,2021.2.3,MacIntel,59.99880002,,,,,,,,,,,0.6892,0,,,,,,,,,,,,,,,,,,,,,,,,,0.380815972,-0.321263021,0,0,0,,,,,,,STORM,HB,m,y,./images/STORMHB.png,,,,,,,z,0,0.6892,,,,,,,,0,131,131,30,1,
,,,,,,,,,,,,,,,,,198706,,2022-01-28_16h03.40.734,lexical_decision_task_DD_L2,2021.2.3,MacIntel,59.99880002,,,,,,,,,,,0.5822,1,,,,,,,,,,,,,,,,,,,,,,,,,0.380815972,-0.321263021,0,0,0,,,,,,,CANDY,HB,z,y,./images/CANDYHB.png,,,,,,,z,1,0.5822,,,,,,,,0,132,132,123,1,
,,,,,,,,,,,,,,,,,198706,,2022-01-28_16h03.40.734,lexical_decision_task_DD_L2,2021.2.3,MacIntel,59.99880002,,,,,,,,,,,0.5304,0,,,,,,,,,,,,,,,,,,,,,,,,,0.380815972,-0.321263021,0,0,0,,,,,,,TOMATO,HB,m,y,./images/TOMATOHB.png,,,,,,,z,0,0.5304,,,,,,,,0,133,133,0,1,
,,,,,,,,,,,,,,,,,198706,,2022-01-28_16h03.40.734,lexical_decision_task_DD_L2,2021.2.3,MacIntel,59.99880002,,,,,,,,,,,0.5486,1,,,,,,,,,,,,,,,,,,,,,,,,,0.380815972,-0.321263021,0,0,0,,,,,,,PARADE,C,z,y,./images/PARADE.png,,,,,,,z,1,0.5486,,,,,,,,0,134,134,101,1,
,,,,,,,,,,,,,,,,,198706,,2022-01-28_16h03.40.734,lexical_decision_task_DD_L2,2021.2.3,MacIntel,59.99880002,,,,,,,,,,,0.5646,0,,,,,,,,,,,,,,,,,,,,,,,,,0.380815972,-0.321263021,0,0,0,,,,,,,MEDAL,C,z,y,./images/MEDAL.png,,,,,,,m,0,0.5646,,,,,,,,0,135,135,95,1,
,,,,,,,,,,,,,,,,,198706,,2022-01-28_16h03.40.734,lexical_decision_task_DD_L2,2021.2.3,MacIntel,59.99880002,,,,,,,,,,,0.4868,0,,,,,,,,,,,,,,,,,,,,,,,,,0.380815972,-0.321263021,0,0,0,,,,,,,CRADLE,C,m,y,./images/CRADLE.png,,,,,,,z,0,0.4868,,,,,,,,0,136,136,20,1,
,,,,,,,,,,,,,,,,,198706,,2022-01-28_16h03.40.734,lexical_decision_task_DD_L2,2021.2.3,MacIntel,59.99880002,,,,,,,,,,,0.5764,1,,,,,,,,,,,,,,,,,,,,,,,,,0.380815972,-0.321263021,0,0,0,,,,,,,CASINO,LB,z,y,./images/CASINOLB.png,,,,,,,z,1,0.5764,,,,,,,,0,137,137,112,1,
,,,,,,,,,,,,,,,,,198706,,2022-01-28_16h03.40.734,lexical_decision_task_DD_L2,2021.2.3,MacIntel,59.99880002,,,,,,,,,,,0.5647,0,,,,,,,,,,,,,,,,,,,,,,,,,0.380815972,-0.321263021,0,0,0,,,,,,,RULER,LB,z,y,./images/RULERLB.png,,,,,,,m,0,0.5647,,,,,,,,0,138,138,163,1,
,,,,,,,,,,,,,,,,,198706,,2022-01-28_16h03.40.734,lexical_decision_task_DD_L2,2021.2.3,MacIntel,59.99880002,,,,,,,,,,,0.7416,1,,,,,,,,,,,,,,,,,,,,,,,,,0.380815972,-0.321263021,0,0,0,,,,,,,CHAIN,HB,z,y,./images/CHAINHB.png,,,,,,,z,1,0.7416,,,,,,,,0,139,139,126,1,
,,,,,,,,,,,,,,,,,198706,,2022-01-28_16h03.40.734,lexical_decision_task_DD_L2,2021.2.3,MacIntel,59.99880002,,,,,,,,,,,0.5404,1,,,,,,,,,,,,,,,,,,,,,,,,,0.380815972,-0.321263021,0,0,0,,,,,,,JAGUAR,HB,m,y,./images/JAGUARHB.png,,,,,,,m,1,0.5404,,,,,,,,0,140,140,18,1,
,,,,,,,,,,,,,,,,,198706,,2022-01-28_16h03.40.734,lexical_decision_task_DD_L2,2021.2.3,MacIntel,59.99880002,,,,,,,,,,,0.7051,1,,,,,,,,,,,,,,,,,,,,,,,,,0.380815972,-0.321263021,0,0,0,,,,,,,KIDNEY,HB,m,y,./images/KIDNEYHB.png,,,,,,,m,1,0.7051,,,,,,,,0,141,141,21,1,
,,,,,,,,,,,,,,,,,198706,,2022-01-28_16h03.40.734,lexical_decision_task_DD_L2,2021.2.3,MacIntel,59.99880002,,,,,,,,,,,0.6815,1,,,,,,,,,,,,,,,,,,,,,,,,,0.380815972,-0.321263021,0,0,0,,,,,,,DONKEY,LB,z,y,./images/DONKEYLB.png,,,,,,,z,1,0.6815,,,,,,,,0,142,142,103,1,
,,,,,,,,,,,,,,,,,198706,,2022-01-28_16h03.40.734,lexical_decision_task_DD_L2,2021.2.3,MacIntel,59.99880002,,,,,,,,,,,0.5645,0,,,,,,,,,,,,,,,,,,,,,,,,,0.380815972,-0.321263021,0,0,0,,,,,,,COLLAR,HB,z,y,./images/COLLARHB.png,,,,,,,m,0,0.5645,,,,,,,,0,143,143,99,1,
,,,,,,,,,,,,,,,,,198706,,2022-01-28_16h03.40.734,lexical_decision_task_DD_L2,2021.2.3,MacIntel,59.99880002,,,,,,,,,,,0.6144,0,,,,,,,,,,,,,,,,,,,,,,,,,0.380815972,-0.321263021,0,0,0,,,,,,,BOILER,HB,z,y,./images/BOILERHB.png,,,,,,,m,0,0.6144,,,,,,,,0,144,144,120,1,
,,,,,,,,,,,,,,,,,198706,,2022-01-28_16h03.40.734,lexical_decision_task_DD_L2,2021.2.3,MacIntel,59.99880002,,,,,,,,,,,0.5181,1,,,,,,,,,,,,,,,,,,,,,,,,,0.380815972,-0.321263021,0,0,0,,,,,,,STOVE,C,z,y,./images/STOVE.png,,,,,,,z,1,0.5181,,,,,,,,0,145,145,86,1,
,,,,,,,,,,,,,,,,,198706,,2022-01-28_16h03.40.734,lexical_decision_task_DD_L2,2021.2.3,MacIntel,59.99880002,,,,,,,,,,,0.7166,0,,,,,,,,,,,,,,,,,,,,,,,,,0.380815972,-0.321263021,0,0,0,,,,,,,HAMMER,HB,z,y,./images/HAMMERHB.png,,,,,,,m,0,0.7166,,,,,,,,0,146,146,159,1,
,,,,,,,,,,,,,,,,,198706,,2022-01-28_16h03.40.734,lexical_decision_task_DD_L2,2021.2.3,MacIntel,59.99880002,,,,,,,,,,,0.5478,1,,,,,,,,,,,,,,,,,,,,,,,,,0.380815972,-0.321263021,0,0,0,,,,,,,JUMPER,C,z,y,./images/JUMPER.png,,,,,,,z,1,0.5478,,,,,,,,0,147,147,158,1,
,,,,,,,,,,,,,,,,,198706,,2022-01-28_16h03.40.734,lexical_decision_task_DD_L2,2021.2.3,MacIntel,59.99880002,,,,,,,,,,,0.4809,1,,,,,,,,,,,,,,,,,,,,,,,,,0.380815972,-0.321263021,0,0,0,,,,,,,MOTOR,LB,m,y,./images/MOTORLB.png,,,,,,,m,1,0.4809,,,,,,,,0,148,148,13,1,
,,,,,,,,,,,,,,,,,198706,,2022-01-28_16h03.40.734,lexical_decision_task_DD_L2,2021.2.3,MacIntel,59.99880002,,,,,,,,,,,0.2733,1,,,,,,,,,,,,,,,,,,,,,,,,,0.380815972,-0.321263021,0,0,0,,,,,,,WHEEL,C,z,y,./images/WHEEL.png,,,,,,,z,1,0.2733,,,,,,,,0,149,149,161,1,
,,,,,,,,,,,,,,,,,198706,,2022-01-28_16h03.40.734,lexical_decision_task_DD_L2,2021.2.3,MacIntel,59.99880002,,,,,,,,,,,0.4145,1,,,,,,,,,,,,,,,,,,,,,,,,,0.380815972,-0.321263021,0,0,0,,,,,,,BISHOP,LB,z,y,./images/BISHOPLB.png,,,,,,,z,1,0.4145,,,,,,,,0,150,150,133,1,
,,,,,,,,,,,,,,,,,198706,,2022-01-28_16h03.40.734,lexical_decision_task_DD_L2,2021.2.3,MacIntel,59.99880002,,,,,,,,,,,0.6146,1,,,,,,,,,,,,,,,,,,,,,,,,,0.380815972,-0.321263021,0,0,0,,,,,,,WALRUS,C,m,y,./images/WALRUS.png,,,,,,,m,1,0.6146,,,,,,,,0,151,151,23,1,
,,,,,,,,,,,,,,,,,198706,,2022-01-28_16h03.40.734,lexical_decision_task_DD_L2,2021.2.3,MacIntel,59.99880002,,,,,,,,,,,0.747,1,,,,,,,,,,,,,,,,,,,,,,,,,0.380815972,-0.321263021,0,0,0,,,,,,,CANDLE,LB,m,y,./images/CANDLELB.png,,,,,,,m,1,0.747,,,,,,,,0,152,152,61,1,
,,,,,,,,,,,,,,,,,198706,,2022-01-28_16h03.40.734,lexical_decision_task_DD_L2,2021.2.3,MacIntel,59.99880002,,,,,,,,,,,0.5545,0,,,,,,,,,,,,,,,,,,,,,,,,,0.380815972,-0.321263021,0,0,0,,,,,,,BUBBLE,C,z,y,./images/BUBBLE.png,,,,,,,m,0,0.5545,,,,,,,,0,153,153,155,1,
,,,,,,,,,,,,,,,,,198706,,2022-01-28_16h03.40.734,lexical_decision_task_DD_L2,2021.2.3,MacIntel,59.99880002,,,,,,,,,,,0.5509,0,,,,,,,,,,,,,,,,,,,,,,,,,0.380815972,-0.321263021,0,0,0,,,,,,,DIVER,HB,z,y,./images/DIVERHB.png,,,,,,,m,0,0.5509,,,,,,,,0,154,154,93,1,
,,,,,,,,,,,,,,,,,198706,,2022-01-28_16h03.40.734,lexical_decision_task_DD_L2,2021.2.3,MacIntel,59.99880002,,,,,,,,,,,0.3009,1,,,,,,,,,,,,,,,,,,,,,,,,,0.380815972,-0.321263021,0,0,0,,,,,,,BOXER,LB,z,y,./images/BOXERLB.png,,,,,,,z,1,0.3009,,,,,,,,0,155,155,88,1,
,,,,,,,,,,,,,,,,,198706,,2022-01-28_16h03.40.734,lexical_decision_task_DD_L2,2021.2.3,MacIntel,59.99880002,,,,,,,,,,,0.6889,1,,,,,,,,,,,,,,,,,,,,,,,,,0.380815972,-0.321263021,0,0,0,,,,,,,TULIP,C,m,y,./images/TULIP.png,,,,,,,m,1,0.6889,,,,,,,,0,156,156,8,1,
,,,,,,,,,,,,,,,,,198706,,2022-01-28_16h03.40.734,lexical_decision_task_DD_L2,2021.2.3,MacIntel,59.99880002,,,,,,,,,,,0.6621,0,,,,,,,,,,,,,,,,,,,,,,,,,0.380815972,-0.321263021,0,0,0,,,,,,,SWEAT,HB,m,y,./images/SWEATHB.png,,,,,,,z,0,0.6621,,,,,,,,0,157,157,66,1,
,,,,,,,,,,,,,,,,,198706,,2022-01-28_16h03.40.734,lexical_decision_task_DD_L2,2021.2.3,MacIntel,59.99880002,,,,,,,,,,,0.4648,1,,,,,,,,,,,,,,,,,,,,,,,,,0.380815972,-0.321263021,0,0,0,,,,,,,JELLY,LB,m,y,./images/JELLYLB.png,,,,,,,m,1,0.4648,,,,,,,,0,158,158,64,1,
,,,,,,,,,,,,,,,,,198706,,2022-01-28_16h03.40.734,lexical_decision_task_DD_L2,2021.2.3,MacIntel,59.99880002,,,,,,,,,,,0.4315,0,,,,,,,,,,,,,,,,,,,,,,,,,0.380815972,-0.321263021,0,0,0,,,,,,,TORCH,C,m,y,./images/TORCH.png,,,,,,,z,0,0.4315,,,,,,,,0,159,159,68,1,
,,,,,,,,,,,,,,,,,198706,,2022-01-28_16h03.40.734,lexical_decision_task_DD_L2,2021.2.3,MacIntel,59.99880002,,,,,,,,,,,0.4911,1,,,,,,,,,,,,,,,,,,,,,,,,,0.380815972,-0.321263021,0,0,0,,,,,,,WEASEL,C,m,y,./images/WEASEL.png,,,,,,,m,1,0.4911,,,,,,,,0,160,160,80,1,
,,,,,,,,,,,,,,,,,198706,,2022-01-28_16h03.40.734,lexical_decision_task_DD_L2,2021.2.3,MacIntel,59.99880002,,,,,,,,,,,0.4585,0,,,,,,,,,,,,,,,,,,,,,,,,,0.380815972,-0.321263021,0,0,0,,,,,,,POODLE,HB,m,y,./images/POODLEHB.png,,,,,,,z,0,0.4585,,,,,,,,0,161,161,81,1,
,,,,,,,,,,,,,,,,,198706,,2022-01-28_16h03.40.734,lexical_decision_task_DD_L2,2021.2.3,MacIntel,59.99880002,,,,,,,,,,,0.4358,0,,,,,,,,,,,,,,,,,,,,,,,,,0.380815972,-0.321263021,0,0,0,,,,,,,CLOTH,C,z,y,./images/CLOTH.png,,,,,,,m,0,0.4358,,,,,,,,0,162,162,107,1,
,,,,,,,,,,,,,,,,,198706,,2022-01-28_16h03.40.734,lexical_decision_task_DD_L2,2021.2.3,MacIntel,59.99880002,,,,,,,,,,,0.5977,0,,,,,,,,,,,,,,,,,,,,,,,,,0.380815972,-0.321263021,0,0,0,,,,,,,RHINO,HB,m,y,./images/RHINOHB.png,,,,,,,z,0,0.5977,,,,,,,,0,163,163,9,1,
,,,,,,,,,,,,,,,,,198706,,2022-01-28_16h03.40.734,lexical_decision_task_DD_L2,2021.2.3,MacIntel,59.99880002,,,,,,,,,,,0.5733,1,,,,,,,,,,,,,,,,,,,,,,,,,0.380815972,-0.321263021,0,0,0,,,,,,,MUSCLE,LB,m,y,./images/MUSCLELB.png,,,,,,,m,1,0.5733,,,,,,,,0,164,164,4,1,
,,,,,,,,,,,,,,,,,198706,,2022-01-28_16h03.40.734,lexical_decision_task_DD_L2,2021.2.3,MacIntel,59.99880002,,,,,,,,,,,0.5037,1,,,,,,,,,,,,,,,,,,,,,,,,,0.380815972,-0.321263021,0,0,0,,,,,,,NOOSE,HB,m,y,./images/NOOSEHB.png,,,,,,,m,1,0.5037,,,,,,,,0,165,165,72,1,
,,,,,,,,,,,,,,,,,198706,,2022-01-28_16h03.40.734,lexical_decision_task_DD_L2,2021.2.3,MacIntel,59.99880002,,,,,,,,,,,0.5257,0,,,,,,,,,,,,,,,,,,,,,,,,,0.380815972,-0.321263021,0,0,0,,,,,,,ARROW,HB,z,y,./images/ARROWHB.png,,,,,,,m,0,0.5257,,,,,,,,0,166,166,153,1,
,,,,,,,,,,,,,,,,,198706,,2022-01-28_16h03.40.734,lexical_decision_task_DD_L2,2021.2.3,MacIntel,59.99880002,,,,,,,,,,,0.5474,1,,,,,,,,,,,,,,,,,,,,,,,,,0.380815972,-0.321263021,0,0,0,,,,,,,ENGINE,C,z,y,./images/ENGINE.png,,,,,,,z,1,0.5474,,,,,,,,0,167,167,122,1,
