key_resp.keys,instr_done_touch.x,instr_done_touch.y,instr_done_touch.leftButton,instr_done_touch.midButton,instr_done_touch.rightButton,instr_done_touch.clicked_name,instruction_pages.thisRepN,instruction_pages.thisTrialN,instruction_pages.thisN,instruction_pages.thisIndex,instruction_pages.ran,pageN,phase,instruct_text,has_image,instruct_image,participant,age,date,expName,psychopyVersion,OS,frameRate,response.keys,response.corr,response.rt,touch_resp.x,touch_resp.y,touch_resp.leftButton,touch_resp.midButton,touch_resp.rightButton,touch_resp.time,touch_resp.clicked_name,rt,corr,practrials.thisRepN,practrials.thisTrialN,practrials.thisN,practrials.thisIndex,practrials.ran,TrialID,Target,corrAns,end_of_practice_trials_pages.thisRepN,end_of_practice_trials_pages.thisTrialN,end_of_practice_trials_pages.thisN,end_of_practice_trials_pages.thisIndex,end_of_practice_trials_pages.ran,key_resp_2.keys,key_resp_2.corr,key_resp_2.rt,targ_click.x,targ_click.y,targ_click.leftButton,targ_click.midButton,targ_click.rightButton,targ_click.time,targ_click.clicked_name,break_done_touch.x,break_done_touch.y,break_done_touch.leftButton,break_done_touch.midButton,break_done_touch.rightButton,break_done_keyboard.keys,maintrials.thisRepN,maintrials.thisTrialN,maintrials.thisN,maintrials.thisIndex,maintrials.ran,string,blur,study,lex,stim_path,break_done_touch.clicked_name,break_done_keyboard.rt,test_instructions.thisRepN,test_instructions.thisTrialN,test_instructions.thisN,test_instructions.thisIndex,test_instructions.ran,key_resp_3.keys,key_resp_3.corr,key_resp_3.rt,test_click.x,test_click.y,test_click.leftButton,test_click.midButton,test_click.rightButton,test_click.time,test_click.clicked_name,test_phase.thisRepN,test_phase.thisTrialN,test_phase.thisN,test_phase.thisIndex,test_phase.ran
,0.115555556,-0.366666667,1,0,0,instr_done_button,0,0,0,0,1,1,instructions,"INSTRUCTIONS
At the start of each trial, look at the plus sign  (+) in the center of the screen.  This tells you that a trial is about to begin and where to look. Second, the plus sign will disappear and a string of letters will appear. Your task is to determine if the string of letters is a word or not. If the item is a word press the M key (on keyboard)  or touch the word button (phone/tablet).  If the item is not a word,  press the  Z key (on keyboard)  or touch the nonword button (on phone/tablet). 
Press the space bar or touch  continue.",0,,198781,18,2022-01-29_13h34.55.712,lexical_decision_task_DD_L2,2021.2.3,MacIntel,111.1111111,,,,,,,,,,,,,,,,,,,,,,,,,,,,,,,,,,,,,,,,,,,,,,,,,,,,,,,,,,,,,,,,,,,,,,,,,
,0.072222222,-0.371111111,1,0,0,instr_done_button,0,1,1,1,1,2,instructions,"If your device has a keyboard, press the 'Z' key for nonwords and the 'M' key for words.





Press the space bar or touch the button below to continue.",0,keyboard-example.gif,198781,18,2022-01-29_13h34.55.712,lexical_decision_task_DD_L2,2021.2.3,MacIntel,111.1111111,,,,,,,,,,,,,,,,,,,,,,,,,,,,,,,,,,,,,,,,,,,,,,,,,,,,,,,,,,,,,,,,,,,,,,,,,
,0.062222222,-0.397777778,1,0,0,instr_done_button,0,2,2,2,1,3,instructions,"If you are using a touchscreen only device, use the buttons on the screen. Do not use the mouse.





Press the space bar or touch the button below to continue.",0,touchscreen-example.gif,198781,18,2022-01-29_13h34.55.712,lexical_decision_task_DD_L2,2021.2.3,MacIntel,111.1111111,,,,,,,,,,,,,,,,,,,,,,,,,,,,,,,,,,,,,,,,,,,,,,,,,,,,,,,,,,,,,,,,,,,,,,,,,
,0.062222222,-0.397777778,1,0,0,instr_done_button,0,3,3,3,1,4,instructions,"It is very important that you respond as quickly and accurately as possible, as each letter string will only be on the screen for two seconds. If you do not respond within this time, the message 'Too slow!' will be displayed and the experiment will progress to the next letter string. The first 20 trials will be practice trials and you will receive feedback on your answers. 

Press the space bar or touch the button below to start the practice trials.",0,,198781,18,2022-01-29_13h34.55.712,lexical_decision_task_DD_L2,2021.2.3,MacIntel,111.1111111,,,,,,,,,,,,,,,,,,,,,,,,,,,,,,,,,,,,,,,,,,,,,,,,,,,,,,,,,,,,,,,,,,,,,,,,,
,,,,,,,,,,,,,,,,,198781,18,2022-01-29_13h34.55.712,lexical_decision_task_DD_L2,2021.2.3,MacIntel,111.1111111,m,1,1.769,,,,,,,,1.769,1,0,0,0,5,1,1001,OBTAIN,m,,,,,,,,,,,,,,,,,,,,,,,,,,,,,,,,,,,,,,,,,,,,,,,,,,,,,
,,,,,,,,,,,,,,,,,198781,18,2022-01-29_13h34.55.712,lexical_decision_task_DD_L2,2021.2.3,MacIntel,111.1111111,m,1,0.755,,,,,,,,0.755,1,0,1,1,7,1,1001,VOLUME,m,,,,,,,,,,,,,,,,,,,,,,,,,,,,,,,,,,,,,,,,,,,,,,,,,,,,,
,,,,,,,,,,,,,,,,,198781,18,2022-01-29_13h34.55.712,lexical_decision_task_DD_L2,2021.2.3,MacIntel,111.1111111,m,1,1.743,,,,,,,,1.743,1,0,2,2,2,1,1001,ALMOND,m,,,,,,,,,,,,,,,,,,,,,,,,,,,,,,,,,,,,,,,,,,,,,,,,,,,,,
,,,,,,,,,,,,,,,,,198781,18,2022-01-29_13h34.55.712,lexical_decision_task_DD_L2,2021.2.3,MacIntel,111.1111111,z,1,0.958,,,,,,,,0.958,1,0,3,3,12,1,1001,SPRINY,z,,,,,,,,,,,,,,,,,,,,,,,,,,,,,,,,,,,,,,,,,,,,,,,,,,,,,
,,,,,,,,,,,,,,,,,198781,18,2022-01-29_13h34.55.712,lexical_decision_task_DD_L2,2021.2.3,MacIntel,111.1111111,m,1,0.876,,,,,,,,0.876,1,0,4,4,4,1,1001,SQUEAK,m,,,,,,,,,,,,,,,,,,,,,,,,,,,,,,,,,,,,,,,,,,,,,,,,,,,,,
,,,,,,,,,,,,,,,,,198781,18,2022-01-29_13h34.55.712,lexical_decision_task_DD_L2,2021.2.3,MacIntel,111.1111111,z,1,0.942,,,,,,,,0.942,1,0,5,5,11,1,1001,RASHET,z,,,,,,,,,,,,,,,,,,,,,,,,,,,,,,,,,,,,,,,,,,,,,,,,,,,,,
,,,,,,,,,,,,,,,,,198781,18,2022-01-29_13h34.55.712,lexical_decision_task_DD_L2,2021.2.3,MacIntel,111.1111111,z,1,0.859,,,,,,,,0.859,1,0,6,6,9,1,1001,FARINY,z,,,,,,,,,,,,,,,,,,,,,,,,,,,,,,,,,,,,,,,,,,,,,,,,,,,,,
,,,,,,,,,,,,,,,,,198781,18,2022-01-29_13h34.55.712,lexical_decision_task_DD_L2,2021.2.3,MacIntel,111.1111111,z,1,1.078,,,,,,,,1.078,1,0,7,7,8,1,1001,ASLERT,z,,,,,,,,,,,,,,,,,,,,,,,,,,,,,,,,,,,,,,,,,,,,,,,,,,,,,
,,,,,,,,,,,,,,,,,198781,18,2022-01-29_13h34.55.712,lexical_decision_task_DD_L2,2021.2.3,MacIntel,111.1111111,m,1,0.643,,,,,,,,0.643,1,0,8,8,1,1,1001,ADJUST,m,,,,,,,,,,,,,,,,,,,,,,,,,,,,,,,,,,,,,,,,,,,,,,,,,,,,,
,,,,,,,,,,,,,,,,,198781,18,2022-01-29_13h34.55.712,lexical_decision_task_DD_L2,2021.2.3,MacIntel,111.1111111,z,1,0.799,,,,,,,,0.799,1,0,9,9,15,1,1001,WHAISE,z,,,,,,,,,,,,,,,,,,,,,,,,,,,,,,,,,,,,,,,,,,,,,,,,,,,,,
,,,,,,,,,,,,,,,,,198781,18,2022-01-29_13h34.55.712,lexical_decision_task_DD_L2,2021.2.3,MacIntel,111.1111111,m,1,0.679,,,,,,,,0.679,1,0,10,10,3,1,1001,MATRIX,m,,,,,,,,,,,,,,,,,,,,,,,,,,,,,,,,,,,,,,,,,,,,,,,,,,,,,
,,,,,,,,,,,,,,,,,198781,18,2022-01-29_13h34.55.712,lexical_decision_task_DD_L2,2021.2.3,MacIntel,111.1111111,m,1,0.625,,,,,,,,0.625,1,0,11,11,6,1,1001,ZOMBIE,m,,,,,,,,,,,,,,,,,,,,,,,,,,,,,,,,,,,,,,,,,,,,,,,,,,,,,
,,,,,,,,,,,,,,,,,198781,18,2022-01-29_13h34.55.712,lexical_decision_task_DD_L2,2021.2.3,MacIntel,111.1111111,z,1,0.82,,,,,,,,0.82,1,0,12,12,13,1,1001,ROUPET,z,,,,,,,,,,,,,,,,,,,,,,,,,,,,,,,,,,,,,,,,,,,,,,,,,,,,,
,,,,,,,,,,,,,,,,,198781,18,2022-01-29_13h34.55.712,lexical_decision_task_DD_L2,2021.2.3,MacIntel,111.1111111,m,1,0.732,,,,,,,,0.732,1,0,13,13,0,1,1001,UTOPIA,m,,,,,,,,,,,,,,,,,,,,,,,,,,,,,,,,,,,,,,,,,,,,,,,,,,,,,
,,,,,,,,,,,,,,,,,198781,18,2022-01-29_13h34.55.712,lexical_decision_task_DD_L2,2021.2.3,MacIntel,111.1111111,z,1,0.791,,,,,,,,0.791,1,0,14,14,14,1,1001,THRALE,z,,,,,,,,,,,,,,,,,,,,,,,,,,,,,,,,,,,,,,,,,,,,,,,,,,,,,
,,,,,,,,,,,,,,,,,198781,18,2022-01-29_13h34.55.712,lexical_decision_task_DD_L2,2021.2.3,MacIntel,111.1111111,z,1,0.993,,,,,,,,0.993,1,0,15,15,10,1,1001,INLADE,z,,,,,,,,,,,,,,,,,,,,,,,,,,,,,,,,,,,,,,,,,,,,,,,,,,,,,
,-0.021111111,-0.368888889,1,0,0,instr_done_button,,,,,,1,end_of_practice,"You have completed the practice trials. During the experimental trials, you will not receive feedback. 
Before you begin, please ensure that you are in a comfortable and quiet location and will not be disturbed for about 15 minutes, as we cannot use your data if you do not complete all the trials. 
 When you are ready to start the experimental trials, please press space or touch the button below.",,,198781,18,2022-01-29_13h34.55.712,lexical_decision_task_DD_L2,2021.2.3,MacIntel,111.1111111,,,,,,,,,,,,,,,,,,,,,0,0,0,0,1,,,,,,,,,,,,,,,,,,,,,,,,,,,,,,,,,,,,,,,,,,,,,,,,
,,,,,,,,,,,,,,,,,198781,18,2022-01-29_13h34.55.712,lexical_decision_task_DD_L2,2021.2.3,MacIntel,111.1111111,,,,,,,,,,,1.312,1,,,,,,,,,,,,,,m,1,1.312,,,,,,,,0.025555556,-0.168888889,0,0,0,,0,0,0,11,1,BONNET,C,old,m,./images/BONNET.png,,,,,,,,,,,,,,,,,,,,,,
,,,,,,,,,,,,,,,,,198781,18,2022-01-29_13h34.55.712,lexical_decision_task_DD_L2,2021.2.3,MacIntel,111.1111111,,,,,,,,,,,1.263,1,,,,,,,,,,,,,,z,1,1.263,,,,,,,,0.025555556,-0.168888889,0,0,0,,0,1,1,91,1,SHENS,HB,old,z,./images/SHENSHB.png,,,,,,,,,,,,,,,,,,,,,,
,,,,,,,,,,,,,,,,,198781,18,2022-01-29_13h34.55.712,lexical_decision_task_DD_L2,2021.2.3,MacIntel,111.1111111,,,,,,,,,,,1.132,1,,,,,,,,,,,,,,m,1,1.132,,,,,,,,0.025555556,-0.168888889,0,0,0,,0,2,2,12,1,SHORE,HB,old,m,./images/SHOREHB.png,,,,,,,,,,,,,,,,,,,,,,
,,,,,,,,,,,,,,,,,198781,18,2022-01-29_13h34.55.712,lexical_decision_task_DD_L2,2021.2.3,MacIntel,111.1111111,,,,,,,,,,,1.479,1,,,,,,,,,,,,,,z,1,1.479,,,,,,,,0.025555556,-0.168888889,0,0,0,,0,3,3,138,1,PLICE,C,old,z,./images/PLICE.png,,,,,,,,,,,,,,,,,,,,,,
,,,,,,,,,,,,,,,,,198781,18,2022-01-29_13h34.55.712,lexical_decision_task_DD_L2,2021.2.3,MacIntel,111.1111111,,,,,,,,,,,0.713,1,,,,,,,,,,,,,,m,1,0.713,,,,,,,,0.025555556,-0.168888889,0,0,0,,0,4,4,39,1,SHELF,HB,old,m,./images/SHELFHB.png,,,,,,,,,,,,,,,,,,,,,,
,,,,,,,,,,,,,,,,,198781,18,2022-01-29_13h34.55.712,lexical_decision_task_DD_L2,2021.2.3,MacIntel,111.1111111,,,,,,,,,,,0.565,1,,,,,,,,,,,,,,m,1,0.565,,,,,,,,0.025555556,-0.168888889,0,0,0,,0,5,5,83,1,JUNGLE,C,old,m,./images/JUNGLE.png,,,,,,,,,,,,,,,,,,,,,,
,,,,,,,,,,,,,,,,,198781,18,2022-01-29_13h34.55.712,lexical_decision_task_DD_L2,2021.2.3,MacIntel,111.1111111,,,,,,,,,,,0.715,1,,,,,,,,,,,,,,m,1,0.715,,,,,,,,0.025555556,-0.168888889,0,0,0,,0,6,6,51,1,ONION,HB,old,m,./images/ONIONHB.png,,,,,,,,,,,,,,,,,,,,,,
,,,,,,,,,,,,,,,,,198781,18,2022-01-29_13h34.55.712,lexical_decision_task_DD_L2,2021.2.3,MacIntel,111.1111111,,,,,,,,,,,0.848,1,,,,,,,,,,,,,,z,1,0.848,,,,,,,,0.025555556,-0.168888889,0,0,0,,0,7,7,135,1,JOODY,C,old,z,./images/JOODY.png,,,,,,,,,,,,,,,,,,,,,,
,,,,,,,,,,,,,,,,,198781,18,2022-01-29_13h34.55.712,lexical_decision_task_DD_L2,2021.2.3,MacIntel,111.1111111,,,,,,,,,,,0.729,1,,,,,,,,,,,,,,z,1,0.729,,,,,,,,0.025555556,-0.168888889,0,0,0,,0,8,8,122,1,BLOOT,LB,old,z,./images/BLOOTLB.png,,,,,,,,,,,,,,,,,,,,,,
,,,,,,,,,,,,,,,,,198781,18,2022-01-29_13h34.55.712,lexical_decision_task_DD_L2,2021.2.3,MacIntel,111.1111111,,,,,,,,,,,0.514,1,,,,,,,,,,,,,,m,1,0.514,,,,,,,,0.025555556,-0.168888889,0,0,0,,0,9,9,4,1,MUSCLE,LB,old,m,./images/MUSCLELB.png,,,,,,,,,,,,,,,,,,,,,,
,,,,,,,,,,,,,,,,,198781,18,2022-01-29_13h34.55.712,lexical_decision_task_DD_L2,2021.2.3,MacIntel,111.1111111,,,,,,,,,,,0.812,1,,,,,,,,,,,,,,z,1,0.812,,,,,,,,0.025555556,-0.168888889,0,0,0,,0,10,10,95,1,HANTY,LB,old,z,./images/HANTYLB.png,,,,,,,,,,,,,,,,,,,,,,
,,,,,,,,,,,,,,,,,198781,18,2022-01-29_13h34.55.712,lexical_decision_task_DD_L2,2021.2.3,MacIntel,111.1111111,,,,,,,,,,,0.614,1,,,,,,,,,,,,,,m,1,0.614,,,,,,,,0.025555556,-0.168888889,0,0,0,,0,11,11,59,1,BURIAL,C,old,m,./images/BURIAL.png,,,,,,,,,,,,,,,,,,,,,,
,,,,,,,,,,,,,,,,,198781,18,2022-01-29_13h34.55.712,lexical_decision_task_DD_L2,2021.2.3,MacIntel,111.1111111,,,,,,,,,,,0.715,1,,,,,,,,,,,,,,z,1,0.715,,,,,,,,0.025555556,-0.168888889,0,0,0,,0,12,12,128,1,GRIFT,LB,old,z,./images/GRIFTLB.png,,,,,,,,,,,,,,,,,,,,,,
,,,,,,,,,,,,,,,,,198781,18,2022-01-29_13h34.55.712,lexical_decision_task_DD_L2,2021.2.3,MacIntel,111.1111111,,,,,,,,,,,0.63,1,,,,,,,,,,,,,,m,1,0.63,,,,,,,,0.025555556,-0.168888889,0,0,0,,0,13,13,3,1,FINGER,HB,old,m,./images/FINGERHB.png,,,,,,,,,,,,,,,,,,,,,,
,,,,,,,,,,,,,,,,,198781,18,2022-01-29_13h34.55.712,lexical_decision_task_DD_L2,2021.2.3,MacIntel,111.1111111,,,,,,,,,,,1.193,1,,,,,,,,,,,,,,z,1,1.193,,,,,,,,0.025555556,-0.168888889,0,0,0,,0,14,14,158,1,EGECT,LB,old,z,./images/EGECTLB.png,,,,,,,,,,,,,,,,,,,,,,
,,,,,,,,,,,,,,,,,198781,18,2022-01-29_13h34.55.712,lexical_decision_task_DD_L2,2021.2.3,MacIntel,111.1111111,,,,,,,,,,,0.713,1,,,,,,,,,,,,,,m,1,0.713,,,,,,,,0.025555556,-0.168888889,0,0,0,,0,15,15,58,1,BABOON,LB,old,m,./images/BABOONLB.png,,,,,,,,,,,,,,,,,,,,,,
,,,,,,,,,,,,,,,,,198781,18,2022-01-29_13h34.55.712,lexical_decision_task_DD_L2,2021.2.3,MacIntel,111.1111111,,,,,,,,,,,0.696,1,,,,,,,,,,,,,,m,1,0.696,,,,,,,,0.025555556,-0.168888889,0,0,0,,0,16,16,1,1,PLANK,LB,old,m,./images/PLANKLB.png,,,,,,,,,,,,,,,,,,,,,,
,,,,,,,,,,,,,,,,,198781,18,2022-01-29_13h34.55.712,lexical_decision_task_DD_L2,2021.2.3,MacIntel,111.1111111,,,,,,,,,,,0.68,1,,,,,,,,,,,,,,m,1,0.68,,,,,,,,0.025555556,-0.168888889,0,0,0,,0,17,17,46,1,PEARL,LB,old,m,./images/PEARLLB.png,,,,,,,,,,,,,,,,,,,,,,
,,,,,,,,,,,,,,,,,198781,18,2022-01-29_13h34.55.712,lexical_decision_task_DD_L2,2021.2.3,MacIntel,111.1111111,,,,,,,,,,,0.714,1,,,,,,,,,,,,,,z,1,0.714,,,,,,,,0.025555556,-0.168888889,0,0,0,,0,18,18,161,1,BLAPS,LB,old,z,./images/BLAPSLB.png,,,,,,,,,,,,,,,,,,,,,,
,,,,,,,,,,,,,,,,,198781,18,2022-01-29_13h34.55.712,lexical_decision_task_DD_L2,2021.2.3,MacIntel,111.1111111,,,,,,,,,,,0.98,1,,,,,,,,,,,,,,m,1,0.98,,,,,,,,0.025555556,-0.168888889,0,0,0,,0,19,19,17,1,SKIING,C,old,m,./images/SKIING.png,,,,,,,,,,,,,,,,,,,,,,
,,,,,,,,,,,,,,,,,198781,18,2022-01-29_13h34.55.712,lexical_decision_task_DD_L2,2021.2.3,MacIntel,111.1111111,,,,,,,,,,,0.713,1,,,,,,,,,,,,,,z,1,0.713,,,,,,,,0.025555556,-0.168888889,0,0,0,,0,20,20,126,1,GUELS,C,old,z,./images/GUELS.png,,,,,,,,,,,,,,,,,,,,,,
,,,,,,,,,,,,,,,,,198781,18,2022-01-29_13h34.55.712,lexical_decision_task_DD_L2,2021.2.3,MacIntel,111.1111111,,,,,,,,,,,0.483,1,,,,,,,,,,,,,,m,1,0.483,,,,,,,,0.025555556,-0.168888889,0,0,0,,0,21,21,82,1,SUNSET,LB,old,m,./images/SUNSETLB.png,,,,,,,,,,,,,,,,,,,,,,
,,,,,,,,,,,,,,,,,198781,18,2022-01-29_13h34.55.712,lexical_decision_task_DD_L2,2021.2.3,MacIntel,111.1111111,,,,,,,,,,,0.618,1,,,,,,,,,,,,,,m,1,0.618,,,,,,,,0.025555556,-0.168888889,0,0,0,,0,22,22,71,1,PIMPLE,C,old,m,./images/PIMPLE.png,,,,,,,,,,,,,,,,,,,,,,
,,,,,,,,,,,,,,,,,198781,18,2022-01-29_13h34.55.712,lexical_decision_task_DD_L2,2021.2.3,MacIntel,111.1111111,,,,,,,,,,,0.529,1,,,,,,,,,,,,,,m,1,0.529,,,,,,,,0.025555556,-0.168888889,0,0,0,,0,23,23,24,1,SCREW,HB,old,m,./images/SCREWHB.png,,,,,,,,,,,,,,,,,,,,,,
,,,,,,,,,,,,,,,,,198781,18,2022-01-29_13h34.55.712,lexical_decision_task_DD_L2,2021.2.3,MacIntel,111.1111111,,,,,,,,,,,0.564,1,,,,,,,,,,,,,,m,1,0.564,,,,,,,,0.025555556,-0.168888889,0,0,0,,0,24,24,79,1,CRUST,LB,old,m,./images/CRUSTLB.png,,,,,,,,,,,,,,,,,,,,,,
,,,,,,,,,,,,,,,,,198781,18,2022-01-29_13h34.55.712,lexical_decision_task_DD_L2,2021.2.3,MacIntel,111.1111111,,,,,,,,,,,0.512,1,,,,,,,,,,,,,,m,1,0.512,,,,,,,,0.025555556,-0.168888889,0,0,0,,0,25,25,48,1,SPORT,HB,old,m,./images/SPORTHB.png,,,,,,,,,,,,,,,,,,,,,,
,,,,,,,,,,,,,,,,,198781,18,2022-01-29_13h34.55.712,lexical_decision_task_DD_L2,2021.2.3,MacIntel,111.1111111,,,,,,,,,,,0.512,1,,,,,,,,,,,,,,m,1,0.512,,,,,,,,0.025555556,-0.168888889,0,0,0,,0,26,26,6,1,SQUARE,HB,old,m,./images/SQUAREHB.png,,,,,,,,,,,,,,,,,,,,,,
,,,,,,,,,,,,,,,,,198781,18,2022-01-29_13h34.55.712,lexical_decision_task_DD_L2,2021.2.3,MacIntel,111.1111111,,,,,,,,,,,1.829,0,,,,,,,,,,,,,,m,0,1.829,,,,,,,,0.025555556,-0.168888889,0,0,0,,0,27,27,130,1,CRILL,HB,old,z,./images/CRILLHB.png,,,,,,,,,,,,,,,,,,,,,,
,,,,,,,,,,,,,,,,,198781,18,2022-01-29_13h34.55.712,lexical_decision_task_DD_L2,2021.2.3,MacIntel,111.1111111,,,,,,,,,,,0.514,1,,,,,,,,,,,,,,m,1,0.514,,,,,,,,0.025555556,-0.168888889,0,0,0,,0,28,28,52,1,BANNER,LB,old,m,./images/BANNERLB.png,,,,,,,,,,,,,,,,,,,,,,
,,,,,,,,,,,,,,,,,198781,18,2022-01-29_13h34.55.712,lexical_decision_task_DD_L2,2021.2.3,MacIntel,111.1111111,,,,,,,,,,,0.635,1,,,,,,,,,,,,,,m,1,0.635,,,,,,,,0.025555556,-0.168888889,0,0,0,,0,29,29,7,1,PAINT,LB,old,m,./images/PAINTLB.png,,,,,,,,,,,,,,,,,,,,,,
,,,,,,,,,,,,,,,,,198781,18,2022-01-29_13h34.55.712,lexical_decision_task_DD_L2,2021.2.3,MacIntel,111.1111111,,,,,,,,,,,0.778,1,,,,,,,,,,,,,,z,1,0.778,,,,,,,,0.025555556,-0.168888889,0,0,0,,0,30,30,102,1,DULLE,C,old,z,./images/DULLE.png,,,,,,,,,,,,,,,,,,,,,,
,,,,,,,,,,,,,,,,,198781,18,2022-01-29_13h34.55.712,lexical_decision_task_DD_L2,2021.2.3,MacIntel,111.1111111,,,,,,,,,,,0.596,0,,,,,,,,,,,,,,m,0,0.596,,,,,,,,0.025555556,-0.168888889,0,0,0,,0,31,31,166,1,SHORY,HB,old,z,./images/SHORYHB.png,,,,,,,,,,,,,,,,,,,,,,
,,,,,,,,,,,,,,,,,198781,18,2022-01-29_13h34.55.712,lexical_decision_task_DD_L2,2021.2.3,MacIntel,111.1111111,,,,,,,,,,,0.63,1,,,,,,,,,,,,,,m,1,0.63,,,,,,,,0.025555556,-0.168888889,0,0,0,,0,32,32,76,1,INFANT,LB,old,m,./images/INFANTLB.png,,,,,,,,,,,,,,,,,,,,,,
,,,,,,,,,,,,,,,,,198781,18,2022-01-29_13h34.55.712,lexical_decision_task_DD_L2,2021.2.3,MacIntel,111.1111111,,,,,,,,,,,1.03,1,,,,,,,,,,,,,,z,1,1.03,,,,,,,,0.025555556,-0.168888889,0,0,0,,0,33,33,142,1,PLASK,HB,old,z,./images/PLASKHB.png,,,,,,,,,,,,,,,,,,,,,,
,,,,,,,,,,,,,,,,,198781,18,2022-01-29_13h34.55.712,lexical_decision_task_DD_L2,2021.2.3,MacIntel,111.1111111,,,,,,,,,,,0.697,1,,,,,,,,,,,,,,m,1,0.697,,,,,,,,0.025555556,-0.168888889,0,0,0,,0,34,34,81,1,POODLE,HB,old,m,./images/POODLEHB.png,,,,,,,,,,,,,,,,,,,,,,
,,,,,,,,,,,,,,,,,198781,18,2022-01-29_13h34.55.712,lexical_decision_task_DD_L2,2021.2.3,MacIntel,111.1111111,,,,,,,,,,,0.447,1,,,,,,,,,,,,,,m,1,0.447,,,,,,,,0.025555556,-0.168888889,0,0,0,,0,35,35,53,1,CARPET,C,old,m,./images/CARPET.png,,,,,,,,,,,,,,,,,,,,,,
,,,,,,,,,,,,,,,,,198781,18,2022-01-29_13h34.55.712,lexical_decision_task_DD_L2,2021.2.3,MacIntel,111.1111111,,,,,,,,,,,0.899,1,,,,,,,,,,,,,,z,1,0.899,,,,,,,,0.025555556,-0.168888889,0,0,0,,0,36,36,106,1,CLUMS,HB,old,z,./images/CLUMSHB.png,,,,,,,,,,,,,,,,,,,,,,
,,,,,,,,,,,,,,,,,198781,18,2022-01-29_13h34.55.712,lexical_decision_task_DD_L2,2021.2.3,MacIntel,111.1111111,,,,,,,,,,,0.746,1,,,,,,,,,,,,,,z,1,0.746,,,,,,,,0.025555556,-0.168888889,0,0,0,,0,37,37,120,1,RINED,C,old,z,./images/RINED.png,,,,,,,,,,,,,,,,,,,,,,
,,,,,,,,,,,,,,,,,198781,18,2022-01-29_13h34.55.712,lexical_decision_task_DD_L2,2021.2.3,MacIntel,111.1111111,,,,,,,,,,,0.516,1,,,,,,,,,,,,,,m,1,0.516,,,,,,,,0.025555556,-0.168888889,0,0,0,,0,38,38,73,1,SNACK,LB,old,m,./images/SNACKLB.png,,,,,,,,,,,,,,,,,,,,,,
,,,,,,,,,,,,,,,,,198781,18,2022-01-29_13h34.55.712,lexical_decision_task_DD_L2,2021.2.3,MacIntel,111.1111111,,,,,,,,,,,0.6,1,,,,,,,,,,,,,,z,1,0.6,,,,,,,,0.025555556,-0.168888889,0,0,0,,0,39,39,149,1,VEASE,LB,old,z,./images/VEASELB.png,,,,,,,,,,,,,,,,,,,,,,
,,,,,,,,,,,,,,,,,198781,18,2022-01-29_13h34.55.712,lexical_decision_task_DD_L2,2021.2.3,MacIntel,111.1111111,,,,,,,,,,,0.531,1,,,,,,,,,,,,,,m,1,0.531,,,,,,,,0.025555556,-0.168888889,0,0,0,,0,40,40,10,1,BELLY,LB,old,m,./images/BELLYLB.png,,,,,,,,,,,,,,,,,,,,,,
,,,,,,,,,,,,,,,,,198781,18,2022-01-29_13h34.55.712,lexical_decision_task_DD_L2,2021.2.3,MacIntel,111.1111111,,,,,,,,,,,1.152,1,,,,,,,,,,,,,,z,1,1.152,,,,,,,,0.017777778,-0.417777778,1,0,0,,0,41,41,136,1,WERVE,HB,old,z,./images/WERVEHB.png,break_done_button,,,,,,,,,,,,,,,,,,,,,
,,,,,,,,,,,,,,,,,198781,18,2022-01-29_13h34.55.712,lexical_decision_task_DD_L2,2021.2.3,MacIntel,111.1111111,,,,,,,,,,,0.947,1,,,,,,,,,,,,,,z,1,0.947,,,,,,,,0.164444444,0.161111111,0,0,0,,0,42,42,159,1,CUDDY,C,old,z,./images/CUDDY.png,,,,,,,,,,,,,,,,,,,,,,
,,,,,,,,,,,,,,,,,198781,18,2022-01-29_13h34.55.712,lexical_decision_task_DD_L2,2021.2.3,MacIntel,111.1111111,,,,,,,,,,,0.664,1,,,,,,,,,,,,,,m,1,0.664,,,,,,,,0.164444444,0.161111111,0,0,0,,0,43,43,8,1,TULIP,C,old,m,./images/TULIP.png,,,,,,,,,,,,,,,,,,,,,,
,,,,,,,,,,,,,,,,,198781,18,2022-01-29_13h34.55.712,lexical_decision_task_DD_L2,2021.2.3,MacIntel,111.1111111,,,,,,,,,,,0.58,1,,,,,,,,,,,,,,m,1,0.58,,,,,,,,0.164444444,0.161111111,0,0,0,,0,44,44,68,1,TORCH,C,old,m,./images/TORCH.png,,,,,,,,,,,,,,,,,,,,,,
,,,,,,,,,,,,,,,,,198781,18,2022-01-29_13h34.55.712,lexical_decision_task_DD_L2,2021.2.3,MacIntel,111.1111111,,,,,,,,,,,0.746,1,,,,,,,,,,,,,,z,1,0.746,,,,,,,,0.164444444,0.161111111,0,0,0,,0,45,45,116,1,BALGY,LB,old,z,./images/BALGYLB.png,,,,,,,,,,,,,,,,,,,,,,
,,,,,,,,,,,,,,,,,198781,18,2022-01-29_13h34.55.712,lexical_decision_task_DD_L2,2021.2.3,MacIntel,111.1111111,,,,,,,,,,,0.696,1,,,,,,,,,,,,,,m,1,0.696,,,,,,,,0.164444444,0.161111111,0,0,0,,0,46,46,80,1,WEASEL,C,old,m,./images/WEASEL.png,,,,,,,,,,,,,,,,,,,,,,
,,,,,,,,,,,,,,,,,198781,18,2022-01-29_13h34.55.712,lexical_decision_task_DD_L2,2021.2.3,MacIntel,111.1111111,,,,,,,,,,,0.546,1,,,,,,,,,,,,,,m,1,0.546,,,,,,,,0.164444444,0.161111111,0,0,0,,0,47,47,5,1,PASTA,C,old,m,./images/PASTA.png,,,,,,,,,,,,,,,,,,,,,,
,,,,,,,,,,,,,,,,,198781,18,2022-01-29_13h34.55.712,lexical_decision_task_DD_L2,2021.2.3,MacIntel,111.1111111,,,,,,,,,,,0.995,1,,,,,,,,,,,,,,z,1,0.995,,,,,,,,0.164444444,0.161111111,0,0,0,,0,48,48,109,1,BURGE,HB,old,z,./images/BURGEHB.png,,,,,,,,,,,,,,,,,,,,,,
,,,,,,,,,,,,,,,,,198781,18,2022-01-29_13h34.55.712,lexical_decision_task_DD_L2,2021.2.3,MacIntel,111.1111111,,,,,,,,,,,1.58,1,,,,,,,,,,,,,,m,1,1.58,,,,,,,,0.164444444,0.161111111,0,0,0,,0,49,49,69,1,COOKER,HB,old,m,./images/COOKERHB.png,,,,,,,,,,,,,,,,,,,,,,
,,,,,,,,,,,,,,,,,198781,18,2022-01-29_13h34.55.712,lexical_decision_task_DD_L2,2021.2.3,MacIntel,111.1111111,,,,,,,,,,,0.73,1,,,,,,,,,,,,,,z,1,0.73,,,,,,,,0.164444444,0.161111111,0,0,0,,0,50,50,123,1,SEDGE,C,old,z,./images/SEDGE.png,,,,,,,,,,,,,,,,,,,,,,
,,,,,,,,,,,,,,,,,198781,18,2022-01-29_13h34.55.712,lexical_decision_task_DD_L2,2021.2.3,MacIntel,111.1111111,,,,,,,,,,,0.681,1,,,,,,,,,,,,,,z,1,0.681,,,,,,,,0.164444444,0.161111111,0,0,0,,0,51,51,108,1,GRUET,C,old,z,./images/GRUET.png,,,,,,,,,,,,,,,,,,,,,,
,,,,,,,,,,,,,,,,,198781,18,2022-01-29_13h34.55.712,lexical_decision_task_DD_L2,2021.2.3,MacIntel,111.1111111,,,,,,,,,,,0.563,1,,,,,,,,,,,,,,m,1,0.563,,,,,,,,0.164444444,0.161111111,0,0,0,,0,52,52,14,1,PICKLE,C,old,m,./images/PICKLE.png,,,,,,,,,,,,,,,,,,,,,,
,,,,,,,,,,,,,,,,,198781,18,2022-01-29_13h34.55.712,lexical_decision_task_DD_L2,2021.2.3,MacIntel,111.1111111,,,,,,,,,,,0.779,1,,,,,,,,,,,,,,z,1,0.779,,,,,,,,0.164444444,0.161111111,0,0,0,,0,53,53,146,1,MOOST,LB,old,z,./images/MOOSTLB.png,,,,,,,,,,,,,,,,,,,,,,
,,,,,,,,,,,,,,,,,198781,18,2022-01-29_13h34.55.712,lexical_decision_task_DD_L2,2021.2.3,MacIntel,111.1111111,,,,,,,,,,,0.647,1,,,,,,,,,,,,,,m,1,0.647,,,,,,,,0.164444444,0.161111111,0,0,0,,0,54,54,37,1,BIRTH,LB,old,m,./images/BIRTHLB.png,,,,,,,,,,,,,,,,,,,,,,
,,,,,,,,,,,,,,,,,198781,18,2022-01-29_13h34.55.712,lexical_decision_task_DD_L2,2021.2.3,MacIntel,111.1111111,,,,,,,,,,,1.012,1,,,,,,,,,,,,,,z,1,1.012,,,,,,,,0.164444444,0.161111111,0,0,0,,0,55,55,160,1,VEETS,HB,old,z,./images/VEETSHB.png,,,,,,,,,,,,,,,,,,,,,,
,,,,,,,,,,,,,,,,,198781,18,2022-01-29_13h34.55.712,lexical_decision_task_DD_L2,2021.2.3,MacIntel,111.1111111,,,,,,,,,,,0.716,1,,,,,,,,,,,,,,z,1,0.716,,,,,,,,0.164444444,0.161111111,0,0,0,,0,56,56,94,1,BLANS,HB,old,z,./images/BLANSHB.png,,,,,,,,,,,,,,,,,,,,,,
,,,,,,,,,,,,,,,,,198781,18,2022-01-29_13h34.55.712,lexical_decision_task_DD_L2,2021.2.3,MacIntel,111.1111111,,,,,,,,,,,0.831,1,,,,,,,,,,,,,,m,1,0.831,,,,,,,,0.164444444,0.161111111,0,0,0,,0,57,57,21,1,KIDNEY,HB,old,m,./images/KIDNEYHB.png,,,,,,,,,,,,,,,,,,,,,,
,,,,,,,,,,,,,,,,,198781,18,2022-01-29_13h34.55.712,lexical_decision_task_DD_L2,2021.2.3,MacIntel,111.1111111,,,,,,,,,,,0.679,1,,,,,,,,,,,,,,m,1,0.679,,,,,,,,0.164444444,0.161111111,0,0,0,,0,58,58,57,1,MOOSE,HB,old,m,./images/MOOSEHB.png,,,,,,,,,,,,,,,,,,,,,,
,,,,,,,,,,,,,,,,,198781,18,2022-01-29_13h34.55.712,lexical_decision_task_DD_L2,2021.2.3,MacIntel,111.1111111,,,,,,,,,,,0.763,1,,,,,,,,,,,,,,m,1,0.763,,,,,,,,0.164444444,0.161111111,0,0,0,,0,59,59,77,1,COUCH,C,old,m,./images/COUCH.png,,,,,,,,,,,,,,,,,,,,,,
,,,,,,,,,,,,,,,,,198781,18,2022-01-29_13h34.55.712,lexical_decision_task_DD_L2,2021.2.3,MacIntel,111.1111111,,,,,,,,,,,0.679,1,,,,,,,,,,,,,,z,1,0.679,,,,,,,,0.164444444,0.148888889,0,0,0,,0,60,60,156,1,HIXES,C,old,z,./images/HIXES.png,,,,,,,,,,,,,,,,,,,,,,
,,,,,,,,,,,,,,,,,198781,18,2022-01-29_13h34.55.712,lexical_decision_task_DD_L2,2021.2.3,MacIntel,111.1111111,,,,,,,,,,,0.566,1,,,,,,,,,,,,,,m,1,0.566,,,,,,,,0.164444444,0.148888889,0,0,0,,0,61,61,74,1,CEMENT,C,old,m,./images/CEMENT.png,,,,,,,,,,,,,,,,,,,,,,
,,,,,,,,,,,,,,,,,198781,18,2022-01-29_13h34.55.712,lexical_decision_task_DD_L2,2021.2.3,MacIntel,111.1111111,,,,,,,,,,,0.88,1,,,,,,,,,,,,,,z,1,0.88,,,,,,,,0.164444444,0.148888889,0,0,0,,0,62,62,100,1,DRIBS,HB,old,z,./images/DRIBSHB.png,,,,,,,,,,,,,,,,,,,,,,
,,,,,,,,,,,,,,,,,198781,18,2022-01-29_13h34.55.712,lexical_decision_task_DD_L2,2021.2.3,MacIntel,111.1111111,,,,,,,,,,,0.614,1,,,,,,,,,,,,,,m,1,0.614,,,,,,,,0.164444444,0.148888889,0,0,0,,0,63,63,27,1,ATTIC,HB,old,m,./images/ATTICHB.png,,,,,,,,,,,,,,,,,,,,,,
,,,,,,,,,,,,,,,,,198781,18,2022-01-29_13h34.55.712,lexical_decision_task_DD_L2,2021.2.3,MacIntel,111.1111111,,,,,,,,,,,0.827,0,,,,,,,,,,,,,,z,0,0.827,,,,,,,,0.164444444,0.148888889,0,0,0,,0,64,64,31,1,QUILL,LB,old,m,./images/QUILLLB.png,,,,,,,,,,,,,,,,,,,,,,
,,,,,,,,,,,,,,,,,198781,18,2022-01-29_13h34.55.712,lexical_decision_task_DD_L2,2021.2.3,MacIntel,111.1111111,,,,,,,,,,,0.729,1,,,,,,,,,,,,,,z,1,0.729,,,,,,,,0.164444444,0.148888889,0,0,0,,0,65,65,167,1,ZONET,LB,old,z,./images/ZONETLB.png,,,,,,,,,,,,,,,,,,,,,,
,,,,,,,,,,,,,,,,,198781,18,2022-01-29_13h34.55.712,lexical_decision_task_DD_L2,2021.2.3,MacIntel,111.1111111,,,,,,,,,,,0.566,1,,,,,,,,,,,,,,m,1,0.566,,,,,,,,0.164444444,0.148888889,0,0,0,,0,66,66,63,1,MIRROR,HB,old,m,./images/MIRRORHB.png,,,,,,,,,,,,,,,,,,,,,,
,,,,,,,,,,,,,,,,,198781,18,2022-01-29_13h34.55.712,lexical_decision_task_DD_L2,2021.2.3,MacIntel,111.1111111,,,,,,,,,,,0.401,1,,,,,,,,,,,,,,m,1,0.401,,,,,,,,0.164444444,0.148888889,0,0,0,,0,67,67,49,1,DRUMS,LB,old,m,./images/DRUMSLB.png,,,,,,,,,,,,,,,,,,,,,,
,,,,,,,,,,,,,,,,,198781,18,2022-01-29_13h34.55.712,lexical_decision_task_DD_L2,2021.2.3,MacIntel,111.1111111,,,,,,,,,,,0.501,1,,,,,,,,,,,,,,m,1,0.501,,,,,,,,0.164444444,0.148888889,0,0,0,,0,68,68,64,1,JELLY,LB,old,m,./images/JELLYLB.png,,,,,,,,,,,,,,,,,,,,,,
,,,,,,,,,,,,,,,,,198781,18,2022-01-29_13h34.55.712,lexical_decision_task_DD_L2,2021.2.3,MacIntel,111.1111111,,,,,,,,,,,1.596,1,,,,,,,,,,,,,,z,1,1.596,,,,,,,,0.165555556,0.147777778,0,0,0,,0,69,69,151,1,TINKY,HB,old,z,./images/TINKYHB.png,,,,,,,,,,,,,,,,,,,,,,
,,,,,,,,,,,,,,,,,198781,18,2022-01-29_13h34.55.712,lexical_decision_task_DD_L2,2021.2.3,MacIntel,111.1111111,,,,,,,,,,,0.747,1,,,,,,,,,,,,,,z,1,0.747,,,,,,,,0.167777778,0.123333333,0,0,0,,0,70,70,162,1,LEICH,C,old,z,./images/LEICH.png,,,,,,,,,,,,,,,,,,,,,,
,,,,,,,,,,,,,,,,,198781,18,2022-01-29_13h34.55.712,lexical_decision_task_DD_L2,2021.2.3,MacIntel,111.1111111,,,,,,,,,,,0.895,1,,,,,,,,,,,,,,z,1,0.895,,,,,,,,0.174444444,0.093333333,0,0,0,,0,71,71,127,1,NINDY,HB,old,z,./images/NINDYHB.png,,,,,,,,,,,,,,,,,,,,,,
,,,,,,,,,,,,,,,,,198781,18,2022-01-29_13h34.55.712,lexical_decision_task_DD_L2,2021.2.3,MacIntel,111.1111111,,,,,,,,,,,0.713,1,,,,,,,,,,,,,,z,1,0.713,,,,,,,,0.183333333,0.046666667,0,0,0,,0,72,72,115,1,MAWNS,HB,old,z,./images/MAWNSHB.png,,,,,,,,,,,,,,,,,,,,,,
,,,,,,,,,,,,,,,,,198781,18,2022-01-29_13h34.55.712,lexical_decision_task_DD_L2,2021.2.3,MacIntel,111.1111111,,,,,,,,,,,0.583,1,,,,,,,,,,,,,,m,1,0.583,,,,,,,,0.184444444,0.01,0,0,0,,0,73,73,42,1,FOLDER,HB,old,m,./images/FOLDERHB.png,,,,,,,,,,,,,,,,,,,,,,
,,,,,,,,,,,,,,,,,198781,18,2022-01-29_13h34.55.712,lexical_decision_task_DD_L2,2021.2.3,MacIntel,111.1111111,,,,,,,,,,,0.68,1,,,,,,,,,,,,,,z,1,0.68,,,,,,,,0.184444444,0.01,0,0,0,,0,74,74,132,1,SCIFF,C,old,z,./images/SCIFF.png,,,,,,,,,,,,,,,,,,,,,,
,,,,,,,,,,,,,,,,,198781,18,2022-01-29_13h34.55.712,lexical_decision_task_DD_L2,2021.2.3,MacIntel,111.1111111,,,,,,,,,,,0.631,1,,,,,,,,,,,,,,m,1,0.631,,,,,,,,0.184444444,-0.017777778,0,0,0,,0,75,75,36,1,THROAT,HB,old,m,./images/THROATHB.png,,,,,,,,,,,,,,,,,,,,,,
,,,,,,,,,,,,,,,,,198781,18,2022-01-29_13h34.55.712,lexical_decision_task_DD_L2,2021.2.3,MacIntel,111.1111111,,,,,,,,,,,0.549,1,,,,,,,,,,,,,,m,1,0.549,,,,,,,,0.184444444,-0.03,0,0,0,,0,76,76,34,1,CANYON,LB,old,m,./images/CANYONLB.png,,,,,,,,,,,,,,,,,,,,,,
,,,,,,,,,,,,,,,,,198781,18,2022-01-29_13h34.55.712,lexical_decision_task_DD_L2,2021.2.3,MacIntel,111.1111111,,,,,,,,,,,0.496,1,,,,,,,,,,,,,,m,1,0.496,,,,,,,,0.184444444,-0.03,0,0,0,,0,77,77,70,1,URINE,LB,old,m,./images/URINELB.png,,,,,,,,,,,,,,,,,,,,,,
,,,,,,,,,,,,,,,,,198781,18,2022-01-29_13h34.55.712,lexical_decision_task_DD_L2,2021.2.3,MacIntel,111.1111111,,,,,,,,,,,0.629,1,,,,,,,,,,,,,,z,1,0.629,,,,,,,,0.184444444,-0.03,0,0,0,,0,78,78,105,1,MOKER,C,old,z,./images/MOKER.png,,,,,,,,,,,,,,,,,,,,,,
,,,,,,,,,,,,,,,,,198781,18,2022-01-29_13h34.55.712,lexical_decision_task_DD_L2,2021.2.3,MacIntel,111.1111111,,,,,,,,,,,1.18,1,,,,,,,,,,,,,,z,1,1.18,,,,,,,,0.184444444,-0.03,0,0,0,,0,79,79,121,1,CEERS,HB,old,z,./images/CEERSHB.png,,,,,,,,,,,,,,,,,,,,,,
,,,,,,,,,,,,,,,,,198781,18,2022-01-29_13h34.55.712,lexical_decision_task_DD_L2,2021.2.3,MacIntel,111.1111111,,,,,,,,,,,0.565,1,,,,,,,,,,,,,,m,1,0.565,,,,,,,,0.184444444,-0.03,0,0,0,,0,80,80,0,1,TOMATO,HB,old,m,./images/TOMATOHB.png,,,,,,,,,,,,,,,,,,,,,,
,,,,,,,,,,,,,,,,,198781,18,2022-01-29_13h34.55.712,lexical_decision_task_DD_L2,2021.2.3,MacIntel,111.1111111,,,,,,,,,,,0.562,1,,,,,,,,,,,,,,z,1,0.562,,,,,,,,0.183333333,-0.04,0,0,0,,0,81,81,89,1,DRIEK,LB,old,z,./images/DRIEKLB.png,,,,,,,,,,,,,,,,,,,,,,
,,,,,,,,,,,,,,,,,198781,18,2022-01-29_13h34.55.712,lexical_decision_task_DD_L2,2021.2.3,MacIntel,111.1111111,,,,,,,,,,,0.696,1,,,,,,,,,,,,,,z,1,0.696,,,,,,,,0.183333333,-0.04,0,0,0,,0,82,82,93,1,SMONE,C,old,z,./images/SMONE.png,,,,,,,,,,,,,,,,,,,,,,
,,,,,,,,,,,,,,,,,198781,18,2022-01-29_13h34.55.712,lexical_decision_task_DD_L2,2021.2.3,MacIntel,111.1111111,,,,,,,,,,,0.562,1,,,,,,,,,,,,,,z,1,0.562,,,,,,,,-0.027777778,-0.437777778,1,0,0,,0,83,83,111,1,HOSSE,C,old,z,./images/HOSSE.png,break_done_button,,,,,,,,,,,,,,,,,,,,,
,,,,,,,,,,,,,,,,,198781,18,2022-01-29_13h34.55.712,lexical_decision_task_DD_L2,2021.2.3,MacIntel,111.1111111,,,,,,,,,,,0.931,1,,,,,,,,,,,,,,z,1,0.931,,,,,,,,0.248888889,0.011111111,0,0,0,,0,84,84,118,1,BAVEL,HB,old,z,./images/BAVELHB.png,,,,,,,,,,,,,,,,,,,,,,
,,,,,,,,,,,,,,,,,198781,18,2022-01-29_13h34.55.712,lexical_decision_task_DD_L2,2021.2.3,MacIntel,111.1111111,,,,,,,,,,,0.65,1,,,,,,,,,,,,,,z,1,0.65,,,,,,,,0.248888889,0.011111111,0,0,0,,0,85,85,117,1,STEEG,C,old,z,./images/STEEG.png,,,,,,,,,,,,,,,,,,,,,,
,,,,,,,,,,,,,,,,,198781,18,2022-01-29_13h34.55.712,lexical_decision_task_DD_L2,2021.2.3,MacIntel,111.1111111,,,,,,,,,,,0.712,1,,,,,,,,,,,,,,z,1,0.712,,,,,,,,0.248888889,0.011111111,0,0,0,,0,86,86,140,1,DOVET,LB,old,z,./images/DOVETLB.png,,,,,,,,,,,,,,,,,,,,,,
,,,,,,,,,,,,,,,,,198781,18,2022-01-29_13h34.55.712,lexical_decision_task_DD_L2,2021.2.3,MacIntel,111.1111111,,,,,,,,,,,0.563,1,,,,,,,,,,,,,,z,1,0.563,,,,,,,,0.248888889,0.011111111,0,0,0,,0,87,87,104,1,GITTY,LB,old,z,./images/GITTYLB.png,,,,,,,,,,,,,,,,,,,,,,
,,,,,,,,,,,,,,,,,198781,18,2022-01-29_13h34.55.712,lexical_decision_task_DD_L2,2021.2.3,MacIntel,111.1111111,,,,,,,,,,,0.812,1,,,,,,,,,,,,,,m,1,0.812,,,,,,,,0.248888889,0.011111111,0,0,0,,0,88,88,75,1,GRAIN,HB,old,m,./images/GRAINHB.png,,,,,,,,,,,,,,,,,,,,,,
,,,,,,,,,,,,,,,,,198781,18,2022-01-29_13h34.55.712,lexical_decision_task_DD_L2,2021.2.3,MacIntel,111.1111111,,,,,,,,,,,0.45,1,,,,,,,,,,,,,,m,1,0.45,,,,,,,,0.248888889,0.011111111,0,0,0,,0,89,89,35,1,PEACH,C,old,m,./images/PEACH.png,,,,,,,,,,,,,,,,,,,,,,
,,,,,,,,,,,,,,,,,198781,18,2022-01-29_13h34.55.712,lexical_decision_task_DD_L2,2021.2.3,MacIntel,111.1111111,,,,,,,,,,,0.83,1,,,,,,,,,,,,,,m,1,0.83,,,,,,,,0.248888889,0.011111111,0,0,0,,0,90,90,43,1,MOSQUE,LB,old,m,./images/MOSQUELB.png,,,,,,,,,,,,,,,,,,,,,,
,,,,,,,,,,,,,,,,,198781,18,2022-01-29_13h34.55.712,lexical_decision_task_DD_L2,2021.2.3,MacIntel,111.1111111,,,,,,,,,,,0.662,0,,,,,,,,,,,,,,z,0,0.662,,,,,,,,0.248888889,0.011111111,0,0,0,,0,91,91,72,1,NOOSE,HB,old,m,./images/NOOSEHB.png,,,,,,,,,,,,,,,,,,,,,,
,,,,,,,,,,,,,,,,,198781,18,2022-01-29_13h34.55.712,lexical_decision_task_DD_L2,2021.2.3,MacIntel,111.1111111,,,,,,,,,,,2.446,1,,,,,,,,,,,,,,z,1,2.446,,,,,,,,0.248888889,0.011111111,0,0,0,,0,92,92,150,1,NOOLS,C,old,z,./images/NOOLS.png,,,,,,,,,,,,,,,,,,,,,,
,,,,,,,,,,,,,,,,,198781,18,2022-01-29_13h34.55.712,lexical_decision_task_DD_L2,2021.2.3,MacIntel,111.1111111,,,,,,,,,,,0.498,1,,,,,,,,,,,,,,m,1,0.498,,,,,,,,0.248888889,0.011111111,0,0,0,,0,93,93,44,1,LIZARD,C,old,m,./images/LIZARD.png,,,,,,,,,,,,,,,,,,,,,,
,,,,,,,,,,,,,,,,,198781,18,2022-01-29_13h34.55.712,lexical_decision_task_DD_L2,2021.2.3,MacIntel,111.1111111,,,,,,,,,,,0.484,1,,,,,,,,,,,,,,m,1,0.484,,,,,,,,0.248888889,0.011111111,0,0,0,,0,94,94,13,1,MOTOR,LB,old,m,./images/MOTORLB.png,,,,,,,,,,,,,,,,,,,,,,
,,,,,,,,,,,,,,,,,198781,18,2022-01-29_13h34.55.712,lexical_decision_task_DD_L2,2021.2.3,MacIntel,111.1111111,,,,,,,,,,,0.598,1,,,,,,,,,,,,,,z,1,0.598,,,,,,,,0.248888889,0.011111111,0,0,0,,0,95,95,152,1,FRAIN,LB,old,z,./images/FRAINLB.png,,,,,,,,,,,,,,,,,,,,,,
,,,,,,,,,,,,,,,,,198781,18,2022-01-29_13h34.55.712,lexical_decision_task_DD_L2,2021.2.3,MacIntel,111.1111111,,,,,,,,,,,0.95,1,,,,,,,,,,,,,,z,1,0.95,,,,,,,,0.248888889,0.011111111,0,0,0,,0,96,96,97,1,CHIDS,HB,old,z,./images/CHIDSHB.png,,,,,,,,,,,,,,,,,,,,,,
,,,,,,,,,,,,,,,,,198781,18,2022-01-29_13h34.55.712,lexical_decision_task_DD_L2,2021.2.3,MacIntel,111.1111111,,,,,,,,,,,0.677,1,,,,,,,,,,,,,,m,1,0.677,,,,,,,,0.248888889,0.011111111,0,0,0,,0,97,97,15,1,GREASE,HB,old,m,./images/GREASEHB.png,,,,,,,,,,,,,,,,,,,,,,
,,,,,,,,,,,,,,,,,198781,18,2022-01-29_13h34.55.712,lexical_decision_task_DD_L2,2021.2.3,MacIntel,111.1111111,,,,,,,,,,,0.578,1,,,,,,,,,,,,,,m,1,0.578,,,,,,,,0.248888889,0.011111111,0,0,0,,0,98,98,38,1,LADDER,C,old,m,./images/LADDER.png,,,,,,,,,,,,,,,,,,,,,,
,,,,,,,,,,,,,,,,,198781,18,2022-01-29_13h34.55.712,lexical_decision_task_DD_L2,2021.2.3,MacIntel,111.1111111,,,,,,,,,,,0.63,1,,,,,,,,,,,,,,z,1,0.63,,,,,,,,0.248888889,0.011111111,0,0,0,,0,99,99,129,1,PRANS,C,old,z,./images/PRANS.png,,,,,,,,,,,,,,,,,,,,,,
,,,,,,,,,,,,,,,,,198781,18,2022-01-29_13h34.55.712,lexical_decision_task_DD_L2,2021.2.3,MacIntel,111.1111111,,,,,,,,,,,0.663,1,,,,,,,,,,,,,,z,1,0.663,,,,,,,,0.248888889,0.011111111,0,0,0,,0,100,100,86,1,AIFED,LB,old,z,./images/AIFEDLB.png,,,,,,,,,,,,,,,,,,,,,,
,,,,,,,,,,,,,,,,,198781,18,2022-01-29_13h34.55.712,lexical_decision_task_DD_L2,2021.2.3,MacIntel,111.1111111,,,,,,,,,,,0.595,1,,,,,,,,,,,,,,m,1,0.595,,,,,,,,0.248888889,0.011111111,0,0,0,,0,101,101,54,1,TRIPOD,HB,old,m,./images/TRIPODHB.png,,,,,,,,,,,,,,,,,,,,,,
,,,,,,,,,,,,,,,,,198781,18,2022-01-29_13h34.55.712,lexical_decision_task_DD_L2,2021.2.3,MacIntel,111.1111111,,,,,,,,,,,0.78,1,,,,,,,,,,,,,,z,1,0.78,,,,,,,,0.248888889,0.011111111,0,0,0,,0,102,102,112,1,MYING,HB,old,z,./images/MYINGHB.png,,,,,,,,,,,,,,,,,,,,,,
,,,,,,,,,,,,,,,,,198781,18,2022-01-29_13h34.55.712,lexical_decision_task_DD_L2,2021.2.3,MacIntel,111.1111111,,,,,,,,,,,1.163,1,,,,,,,,,,,,,,m,1,1.163,,,,,,,,0.248888889,0.011111111,0,0,0,,0,103,103,16,1,PENCE,LB,old,m,./images/PENCELB.png,,,,,,,,,,,,,,,,,,,,,,
,,,,,,,,,,,,,,,,,198781,18,2022-01-29_13h34.55.712,lexical_decision_task_DD_L2,2021.2.3,MacIntel,111.1111111,,,,,,,,,,,0.646,1,,,,,,,,,,,,,,z,1,0.646,,,,,,,,0.248888889,0.011111111,0,0,0,,0,104,104,165,1,TROWN,C,old,z,./images/TROWN.png,,,,,,,,,,,,,,,,,,,,,,
,,,,,,,,,,,,,,,,,198781,18,2022-01-29_13h34.55.712,lexical_decision_task_DD_L2,2021.2.3,MacIntel,111.1111111,,,,,,,,,,,0.546,1,,,,,,,,,,,,,,m,1,0.546,,,,,,,,0.248888889,0.011111111,0,0,0,,0,105,105,65,1,FARMER,C,old,m,./images/FARMER.png,,,,,,,,,,,,,,,,,,,,,,
,,,,,,,,,,,,,,,,,198781,18,2022-01-29_13h34.55.712,lexical_decision_task_DD_L2,2021.2.3,MacIntel,111.1111111,,,,,,,,,,,0.596,1,,,,,,,,,,,,,,z,1,0.596,,,,,,,,0.248888889,0.011111111,0,0,0,,0,106,106,113,1,LINEW,LB,old,z,./images/LINEWLB.png,,,,,,,,,,,,,,,,,,,,,,
,,,,,,,,,,,,,,,,,198781,18,2022-01-29_13h34.55.712,lexical_decision_task_DD_L2,2021.2.3,MacIntel,111.1111111,,,,,,,,,,,0.498,1,,,,,,,,,,,,,,m,1,0.498,,,,,,,,0.248888889,0.011111111,0,0,0,,0,107,107,67,1,SAILOR,LB,old,m,./images/SAILORLB.png,,,,,,,,,,,,,,,,,,,,,,
,,,,,,,,,,,,,,,,,198781,18,2022-01-29_13h34.55.712,lexical_decision_task_DD_L2,2021.2.3,MacIntel,111.1111111,,,,,,,,,,,0.596,1,,,,,,,,,,,,,,m,1,0.596,,,,,,,,0.248888889,0.011111111,0,0,0,,0,108,108,25,1,WRIST,LB,old,m,./images/WRISTLB.png,,,,,,,,,,,,,,,,,,,,,,
,,,,,,,,,,,,,,,,,198781,18,2022-01-29_13h34.55.712,lexical_decision_task_DD_L2,2021.2.3,MacIntel,111.1111111,,,,,,,,,,,0.665,1,,,,,,,,,,,,,,z,1,0.665,,,,,,,,0.248888889,0.011111111,0,0,0,,0,109,109,124,1,TUNCH,HB,old,z,./images/TUNCHHB.png,,,,,,,,,,,,,,,,,,,,,,
,,,,,,,,,,,,,,,,,198781,18,2022-01-29_13h34.55.712,lexical_decision_task_DD_L2,2021.2.3,MacIntel,111.1111111,,,,,,,,,,,0.631,1,,,,,,,,,,,,,,m,1,0.631,,,,,,,,0.248888889,0.011111111,0,0,0,,0,110,110,62,1,PURSE,C,old,m,./images/PURSE.png,,,,,,,,,,,,,,,,,,,,,,
,,,,,,,,,,,,,,,,,198781,18,2022-01-29_13h34.55.712,lexical_decision_task_DD_L2,2021.2.3,MacIntel,111.1111111,,,,,,,,,,,0.63,1,,,,,,,,,,,,,,z,1,0.63,,,,,,,,0.248888889,0.011111111,0,0,0,,0,111,111,137,1,JOOST,LB,old,z,./images/JOOSTLB.png,,,,,,,,,,,,,,,,,,,,,,
,,,,,,,,,,,,,,,,,198781,18,2022-01-29_13h34.55.712,lexical_decision_task_DD_L2,2021.2.3,MacIntel,111.1111111,,,,,,,,,,,0.796,1,,,,,,,,,,,,,,z,1,0.796,,,,,,,,0.248888889,0.011111111,0,0,0,,0,112,112,110,1,CRUNK,LB,old,z,./images/CRUNKLB.png,,,,,,,,,,,,,,,,,,,,,,
,,,,,,,,,,,,,,,,,198781,18,2022-01-29_13h34.55.712,lexical_decision_task_DD_L2,2021.2.3,MacIntel,111.1111111,,,,,,,,,,,0.728,1,,,,,,,,,,,,,,z,1,0.728,,,,,,,,0.248888889,0.011111111,0,0,0,,0,113,113,154,1,THINT,HB,old,z,./images/THINTHB.png,,,,,,,,,,,,,,,,,,,,,,
,,,,,,,,,,,,,,,,,198781,18,2022-01-29_13h34.55.712,lexical_decision_task_DD_L2,2021.2.3,MacIntel,111.1111111,,,,,,,,,,,0.646,1,,,,,,,,,,,,,,z,1,0.646,,,,,,,,0.248888889,0.011111111,0,0,0,,0,114,114,101,1,GLEET,LB,old,z,./images/GLEETLB.png,,,,,,,,,,,,,,,,,,,,,,
,,,,,,,,,,,,,,,,,198781,18,2022-01-29_13h34.55.712,lexical_decision_task_DD_L2,2021.2.3,MacIntel,111.1111111,,,,,,,,,,,0.664,1,,,,,,,,,,,,,,z,1,0.664,,,,,,,,0.248888889,0.011111111,0,0,0,,0,115,115,119,1,PAFER,LB,old,z,./images/PAFERLB.png,,,,,,,,,,,,,,,,,,,,,,
,,,,,,,,,,,,,,,,,198781,18,2022-01-29_13h34.55.712,lexical_decision_task_DD_L2,2021.2.3,MacIntel,111.1111111,,,,,,,,,,,0.697,1,,,,,,,,,,,,,,z,1,0.697,,,,,,,,0.248888889,0.011111111,0,0,0,,0,116,116,164,1,SGREW,LB,old,z,./images/SGREWLB.png,,,,,,,,,,,,,,,,,,,,,,
,,,,,,,,,,,,,,,,,198781,18,2022-01-29_13h34.55.712,lexical_decision_task_DD_L2,2021.2.3,MacIntel,111.1111111,,,,,,,,,,,0.963,1,,,,,,,,,,,,,,z,1,0.963,,,,,,,,0.248888889,0.011111111,0,0,0,,0,117,117,134,1,TROSS,LB,old,z,./images/TROSSLB.png,,,,,,,,,,,,,,,,,,,,,,
,,,,,,,,,,,,,,,,,198781,18,2022-01-29_13h34.55.712,lexical_decision_task_DD_L2,2021.2.3,MacIntel,111.1111111,,,,,,,,,,,0.596,1,,,,,,,,,,,,,,z,1,0.596,,,,,,,,0.248888889,0.011111111,0,0,0,,0,118,118,125,1,MOOKY,LB,old,z,./images/MOOKYLB.png,,,,,,,,,,,,,,,,,,,,,,
,,,,,,,,,,,,,,,,,198781,18,2022-01-29_13h34.55.712,lexical_decision_task_DD_L2,2021.2.3,MacIntel,111.1111111,,,,,,,,,,,0.585,1,,,,,,,,,,,,,,m,1,0.585,,,,,,,,0.248888889,0.011111111,0,0,0,,0,119,119,78,1,LITTER,HB,old,m,./images/LITTERHB.png,,,,,,,,,,,,,,,,,,,,,,
,,,,,,,,,,,,,,,,,198781,18,2022-01-29_13h34.55.712,lexical_decision_task_DD_L2,2021.2.3,MacIntel,111.1111111,,,,,,,,,,,0.562,1,,,,,,,,,,,,,,m,1,0.562,,,,,,,,0.248888889,0.011111111,0,0,0,,0,120,120,22,1,MELON,LB,old,m,./images/MELONLB.png,,,,,,,,,,,,,,,,,,,,,,
,,,,,,,,,,,,,,,,,198781,18,2022-01-29_13h34.55.712,lexical_decision_task_DD_L2,2021.2.3,MacIntel,111.1111111,,,,,,,,,,,0.496,1,,,,,,,,,,,,,,m,1,0.496,,,,,,,,0.248888889,0.011111111,0,0,0,,0,121,121,56,1,PACKET,C,old,m,./images/PACKET.png,,,,,,,,,,,,,,,,,,,,,,
,,,,,,,,,,,,,,,,,198781,18,2022-01-29_13h34.55.712,lexical_decision_task_DD_L2,2021.2.3,MacIntel,111.1111111,,,,,,,,,,,0.48,1,,,,,,,,,,,,,,m,1,0.48,,,,,,,,0.248888889,0.011111111,0,0,0,,0,122,122,32,1,BARREL,C,old,m,./images/BARREL.png,,,,,,,,,,,,,,,,,,,,,,
,,,,,,,,,,,,,,,,,198781,18,2022-01-29_13h34.55.712,lexical_decision_task_DD_L2,2021.2.3,MacIntel,111.1111111,,,,,,,,,,,0.484,1,,,,,,,,,,,,,,m,1,0.484,,,,,,,,0.248888889,0.011111111,0,0,0,,0,123,123,47,1,BERRY,C,old,m,./images/BERRY.png,,,,,,,,,,,,,,,,,,,,,,
,,,,,,,,,,,,,,,,,198781,18,2022-01-29_13h34.55.712,lexical_decision_task_DD_L2,2021.2.3,MacIntel,111.1111111,,,,,,,,,,,0.832,1,,,,,,,,,,,,,,m,1,0.832,,,,,,,,0.248888889,0.011111111,0,0,0,,0,124,124,50,1,MALLET,C,old,m,./images/MALLET.png,,,,,,,,,,,,,,,,,,,,,,
,,,,,,,,,,,,,,,,,198781,18,2022-01-29_13h34.55.712,lexical_decision_task_DD_L2,2021.2.3,MacIntel,111.1111111,,,,,,,,,,,0.562,1,,,,,,,,,,,,,,z,1,0.562,,,,,,,,0.248888889,0.011111111,0,0,0,space,0,125,125,107,1,FASKS,LB,old,z,./images/FASKSLB.png,,0.831,,,,,,,,,,,,,,,,,,,,
,,,,,,,,,,,,,,,,,198781,18,2022-01-29_13h34.55.712,lexical_decision_task_DD_L2,2021.2.3,MacIntel,111.1111111,,,,,,,,,,,0.764,1,,,,,,,,,,,,,,m,1,0.764,,,,,,,,0.248888889,0.011111111,0,0,0,,0,126,126,28,1,FALCON,LB,old,m,./images/FALCONLB.png,,,,,,,,,,,,,,,,,,,,,,
,,,,,,,,,,,,,,,,,198781,18,2022-01-29_13h34.55.712,lexical_decision_task_DD_L2,2021.2.3,MacIntel,111.1111111,,,,,,,,,,,0.763,1,,,,,,,,,,,,,,z,1,0.763,,,,,,,,0.248888889,0.011111111,0,0,0,,0,127,127,148,1,JOMS,HB,old,z,./images/JOMSHB.png,,,,,,,,,,,,,,,,,,,,,,
,,,,,,,,,,,,,,,,,198781,18,2022-01-29_13h34.55.712,lexical_decision_task_DD_L2,2021.2.3,MacIntel,111.1111111,,,,,,,,,,,0.696,1,,,,,,,,,,,,,,m,1,0.696,,,,,,,,0.248888889,0.011111111,0,0,0,,0,128,128,19,1,DOUGH,LB,old,m,./images/DOUGHLB.png,,,,,,,,,,,,,,,,,,,,,,
,,,,,,,,,,,,,,,,,198781,18,2022-01-29_13h34.55.712,lexical_decision_task_DD_L2,2021.2.3,MacIntel,111.1111111,,,,,,,,,,,0.631,1,,,,,,,,,,,,,,m,1,0.631,,,,,,,,0.248888889,0.011111111,0,0,0,,0,129,129,55,1,MUFFIN,LB,old,m,./images/MUFFINLB.png,,,,,,,,,,,,,,,,,,,,,,
,,,,,,,,,,,,,,,,,198781,18,2022-01-29_13h34.55.712,lexical_decision_task_DD_L2,2021.2.3,MacIntel,111.1111111,,,,,,,,,,,0.765,1,,,,,,,,,,,,,,z,1,0.765,,,,,,,,0.248888889,0.011111111,0,0,0,,0,130,130,139,1,BLEAR,HB,old,z,./images/BLEARHB.png,,,,,,,,,,,,,,,,,,,,,,
,,,,,,,,,,,,,,,,,198781,18,2022-01-29_13h34.55.712,lexical_decision_task_DD_L2,2021.2.3,MacIntel,111.1111111,,,,,,,,,,,0.497,1,,,,,,,,,,,,,,m,1,0.497,,,,,,,,0.248888889,0.011111111,0,0,0,,0,131,131,66,1,SWEAT,HB,old,m,./images/SWEATHB.png,,,,,,,,,,,,,,,,,,,,,,
,,,,,,,,,,,,,,,,,198781,18,2022-01-29_13h34.55.712,lexical_decision_task_DD_L2,2021.2.3,MacIntel,111.1111111,,,,,,,,,,,0.996,1,,,,,,,,,,,,,,m,1,0.996,,,,,,,,0.248888889,0.011111111,0,0,0,,0,132,132,9,1,RHINO,HB,old,m,./images/RHINOHB.png,,,,,,,,,,,,,,,,,,,,,,
,,,,,,,,,,,,,,,,,198781,18,2022-01-29_13h34.55.712,lexical_decision_task_DD_L2,2021.2.3,MacIntel,111.1111111,,,,,,,,,,,0.614,1,,,,,,,,,,,,,,m,1,0.614,,,,,,,,0.248888889,0.011111111,0,0,0,,0,133,133,20,1,CRADLE,C,old,m,./images/CRADLE.png,,,,,,,,,,,,,,,,,,,,,,
,,,,,,,,,,,,,,,,,198781,18,2022-01-29_13h34.55.712,lexical_decision_task_DD_L2,2021.2.3,MacIntel,111.1111111,,,,,,,,,,,0.813,1,,,,,,,,,,,,,,z,1,0.813,,,,,,,,0.248888889,0.011111111,0,0,0,,0,134,134,87,1,TRING,C,old,z,./images/TRING.png,,,,,,,,,,,,,,,,,,,,,,
,,,,,,,,,,,,,,,,,198781,18,2022-01-29_13h34.55.712,lexical_decision_task_DD_L2,2021.2.3,MacIntel,111.1111111,,,,,,,,,,,0.864,1,,,,,,,,,,,,,,z,1,0.864,,,,,,,,0.248888889,0.011111111,0,0,0,,0,135,135,88,1,GLUSH,HB,old,z,./images/GLUSHHB.png,,,,,,,,,,,,,,,,,,,,,,
,,,,,,,,,,,,,,,,,198781,18,2022-01-29_13h34.55.712,lexical_decision_task_DD_L2,2021.2.3,MacIntel,111.1111111,,,,,,,,,,,0.645,1,,,,,,,,,,,,,,m,1,0.645,,,,,,,,0.248888889,0.011111111,0,0,0,,0,136,136,61,1,CANDLE,LB,old,m,./images/CANDLELB.png,,,,,,,,,,,,,,,,,,,,,,
,,,,,,,,,,,,,,,,,198781,18,2022-01-29_13h34.55.712,lexical_decision_task_DD_L2,2021.2.3,MacIntel,111.1111111,,,,,,,,,,,1.101,1,,,,,,,,,,,,,,z,1,1.101,,,,,,,,0.248888889,0.011111111,0,0,0,,0,137,137,131,1,NACES,LB,old,z,./images/NACESLB.png,,,,,,,,,,,,,,,,,,,,,,
,,,,,,,,,,,,,,,,,198781,18,2022-01-29_13h34.55.712,lexical_decision_task_DD_L2,2021.2.3,MacIntel,111.1111111,,,,,,,,,,,1.014,1,,,,,,,,,,,,,,z,1,1.014,,,,,,,,0.248888889,0.011111111,0,0,0,,0,138,138,85,1,CHULK,HB,old,z,./images/CHULKHB.png,,,,,,,,,,,,,,,,,,,,,,
,,,,,,,,,,,,,,,,,198781,18,2022-01-29_13h34.55.712,lexical_decision_task_DD_L2,2021.2.3,MacIntel,111.1111111,,,,,,,,,,,0.528,1,,,,,,,,,,,,,,m,1,0.528,,,,,,,,0.248888889,0.011111111,0,0,0,,0,139,139,40,1,SWING,LB,old,m,./images/SWINGLB.png,,,,,,,,,,,,,,,,,,,,,,
,,,,,,,,,,,,,,,,,198781,18,2022-01-29_13h34.55.712,lexical_decision_task_DD_L2,2021.2.3,MacIntel,111.1111111,,,,,,,,,,,0.662,1,,,,,,,,,,,,,,z,1,0.662,,,,,,,,0.248888889,0.011111111,0,0,0,,0,140,140,147,1,ZOLES,C,old,z,./images/ZOLES.png,,,,,,,,,,,,,,,,,,,,,,
,,,,,,,,,,,,,,,,,198781,18,2022-01-29_13h34.55.712,lexical_decision_task_DD_L2,2021.2.3,MacIntel,111.1111111,,,,,,,,,,,0.847,1,,,,,,,,,,,,,,z,1,0.847,,,,,,,,0.248888889,0.011111111,0,0,0,,0,141,141,133,1,POWDY,HB,old,z,./images/POWDYHB.png,,,,,,,,,,,,,,,,,,,,,,
,,,,,,,,,,,,,,,,,198781,18,2022-01-29_13h34.55.712,lexical_decision_task_DD_L2,2021.2.3,MacIntel,111.1111111,,,,,,,,,,,0.576,1,,,,,,,,,,,,,,m,1,0.576,,,,,,,,0.248888889,0.011111111,0,0,0,,0,142,142,2,1,BEARD,C,old,m,./images/BEARD.png,,,,,,,,,,,,,,,,,,,,,,
,,,,,,,,,,,,,,,,,198781,18,2022-01-29_13h34.55.712,lexical_decision_task_DD_L2,2021.2.3,MacIntel,111.1111111,,,,,,,,,,,0.646,1,,,,,,,,,,,,,,z,1,0.646,,,,,,,,0.248888889,0.011111111,0,0,0,,0,143,143,153,1,CLUPS,C,old,z,./images/CLUPS.png,,,,,,,,,,,,,,,,,,,,,,
,,,,,,,,,,,,,,,,,198781,18,2022-01-29_13h34.55.712,lexical_decision_task_DD_L2,2021.2.3,MacIntel,111.1111111,,,,,,,,,,,0.963,1,,,,,,,,,,,,,,z,1,0.963,,,,,,,,0.248888889,0.011111111,0,0,0,,0,144,144,103,1,FLORT,HB,old,z,./images/FLORTHB.png,,,,,,,,,,,,,,,,,,,,,,
,,,,,,,,,,,,,,,,,198781,18,2022-01-29_13h34.55.712,lexical_decision_task_DD_L2,2021.2.3,MacIntel,111.1111111,,,,,,,,,,,0.946,1,,,,,,,,,,,,,,m,1,0.946,,,,,,,,0.248888889,0.011111111,0,0,0,,0,145,145,23,1,WALRUS,C,old,m,./images/WALRUS.png,,,,,,,,,,,,,,,,,,,,,,
,,,,,,,,,,,,,,,,,198781,18,2022-01-29_13h34.55.712,lexical_decision_task_DD_L2,2021.2.3,MacIntel,111.1111111,,,,,,,,,,,0.929,1,,,,,,,,,,,,,,z,1,0.929,,,,,,,,0.251111111,0.008888889,0,0,0,,0,146,146,84,1,HAXES,C,old,z,./images/HAXES.png,,,,,,,,,,,,,,,,,,,,,,
,,,,,,,,,,,,,,,,,198781,18,2022-01-29_13h34.55.712,lexical_decision_task_DD_L2,2021.2.3,MacIntel,111.1111111,,,,,,,,,,,0.796,1,,,,,,,,,,,,,,z,1,0.796,,,,,,,,0.255555556,0.006666667,0,0,0,,0,147,147,155,1,CANGY,LB,old,z,./images/CANGYLB.png,,,,,,,,,,,,,,,,,,,,,,
,,,,,,,,,,,,,,,,,198781,18,2022-01-29_13h34.55.712,lexical_decision_task_DD_L2,2021.2.3,MacIntel,111.1111111,,,,,,,,,,,0.597,1,,,,,,,,,,,,,,m,1,0.597,,,,,,,,0.255555556,0.006666667,0,0,0,,0,148,148,29,1,CRUMB,C,old,m,./images/CRUMB.png,,,,,,,,,,,,,,,,,,,,,,
,,,,,,,,,,,,,,,,,198781,18,2022-01-29_13h34.55.712,lexical_decision_task_DD_L2,2021.2.3,MacIntel,111.1111111,,,,,,,,,,,0.8,1,,,,,,,,,,,,,,z,1,0.8,,,,,,,,0.255555556,0.006666667,0,0,0,,0,149,149,99,1,BACKY,C,old,z,./images/BACKY.png,,,,,,,,,,,,,,,,,,,,,,
,,,,,,,,,,,,,,,,,198781,18,2022-01-29_13h34.55.712,lexical_decision_task_DD_L2,2021.2.3,MacIntel,111.1111111,,,,,,,,,,,0.532,1,,,,,,,,,,,,,,m,1,0.532,,,,,,,,0.255555556,0.006666667,0,0,0,,0,150,150,45,1,KITTEN,HB,old,m,./images/KITTENHB.png,,,,,,,,,,,,,,,,,,,,,,
,,,,,,,,,,,,,,,,,198781,18,2022-01-29_13h34.55.712,lexical_decision_task_DD_L2,2021.2.3,MacIntel,111.1111111,,,,,,,,,,,0.397,1,,,,,,,,,,,,,,m,1,0.397,,,,,,,,0.255555556,0.006666667,0,0,0,,0,151,151,33,1,MAGGOT,HB,old,m,./images/MAGGOTHB.png,,,,,,,,,,,,,,,,,,,,,,
,,,,,,,,,,,,,,,,,198781,18,2022-01-29_13h34.55.712,lexical_decision_task_DD_L2,2021.2.3,MacIntel,111.1111111,,,,,,,,,,,0.769,1,,,,,,,,,,,,,,z,1,0.769,,,,,,,,0.255555556,0.006666667,0,0,0,,0,152,152,145,1,LAMEL,HB,old,z,./images/LAMELHB.png,,,,,,,,,,,,,,,,,,,,,,
,,,,,,,,,,,,,,,,,198781,18,2022-01-29_13h34.55.712,lexical_decision_task_DD_L2,2021.2.3,MacIntel,111.1111111,,,,,,,,,,,0.746,1,,,,,,,,,,,,,,z,1,0.746,,,,,,,,0.255555556,0.006666667,0,0,0,,0,153,153,90,1,NEAST,C,old,z,./images/NEAST.png,,,,,,,,,,,,,,,,,,,,,,
,,,,,,,,,,,,,,,,,198781,18,2022-01-29_13h34.55.712,lexical_decision_task_DD_L2,2021.2.3,MacIntel,111.1111111,,,,,,,,,,,0.813,1,,,,,,,,,,,,,,m,1,0.813,,,,,,,,0.255555556,0.006666667,0,0,0,,0,154,154,30,1,STORM,HB,old,m,./images/STORMHB.png,,,,,,,,,,,,,,,,,,,,,,
,,,,,,,,,,,,,,,,,198781,18,2022-01-29_13h34.55.712,lexical_decision_task_DD_L2,2021.2.3,MacIntel,111.1111111,,,,,,,,,,,0.879,1,,,,,,,,,,,,,,m,1,0.879,,,,,,,,0.254444444,0.006666667,0,0,0,,0,155,155,18,1,JAGUAR,HB,old,m,./images/JAGUARHB.png,,,,,,,,,,,,,,,,,,,,,,
,,,,,,,,,,,,,,,,,198781,18,2022-01-29_13h34.55.712,lexical_decision_task_DD_L2,2021.2.3,MacIntel,111.1111111,,,,,,,,,,,1.43,1,,,,,,,,,,,,,,z,1,1.43,,,,,,,,0.254444444,0.006666667,0,0,0,,0,156,156,114,1,RIKES,C,old,z,./images/RIKES.png,,,,,,,,,,,,,,,,,,,,,,
,,,,,,,,,,,,,,,,,198781,18,2022-01-29_13h34.55.712,lexical_decision_task_DD_L2,2021.2.3,MacIntel,111.1111111,,,,,,,,,,,0.596,1,,,,,,,,,,,,,,m,1,0.596,,,,,,,,0.254444444,0.006666667,0,0,0,,0,157,157,41,1,STRING,C,old,m,./images/STRING.png,,,,,,,,,,,,,,,,,,,,,,
,,,,,,,,,,,,,,,,,198781,18,2022-01-29_13h34.55.712,lexical_decision_task_DD_L2,2021.2.3,MacIntel,111.1111111,,,,,,,,,,,0.483,1,,,,,,,,,,,,,,m,1,0.483,,,,,,,,0.254444444,0.006666667,0,0,0,,0,158,158,26,1,SMOKER,C,old,m,./images/SMOKER.png,,,,,,,,,,,,,,,,,,,,,,
,,,,,,,,,,,,,,,,,198781,18,2022-01-29_13h34.55.712,lexical_decision_task_DD_L2,2021.2.3,MacIntel,111.1111111,,,,,,,,,,,0.747,1,,,,,,,,,,,,,,z,1,0.747,,,,,,,,0.253333333,0.006666667,0,0,0,,0,159,159,92,1,PAIMS,LB,old,z,./images/PAIMSLB.png,,,,,,,,,,,,,,,,,,,,,,
,,,,,,,,,,,,,,,,,198781,18,2022-01-29_13h34.55.712,lexical_decision_task_DD_L2,2021.2.3,MacIntel,111.1111111,,,,,,,,,,,0.596,1,,,,,,,,,,,,,,z,1,0.596,,,,,,,,0.253333333,0.006666667,0,0,0,,0,160,160,143,1,MONGS,LB,old,z,./images/MONGSLB.png,,,,,,,,,,,,,,,,,,,,,,
,,,,,,,,,,,,,,,,,198781,18,2022-01-29_13h34.55.712,lexical_decision_task_DD_L2,2021.2.3,MacIntel,111.1111111,,,,,,,,,,,0.63,1,,,,,,,,,,,,,,z,1,0.63,,,,,,,,0.253333333,0.006666667,0,0,0,,0,161,161,163,1,GAMBA,HB,old,z,./images/GAMBAHB.png,,,,,,,,,,,,,,,,,,,,,,
,,,,,,,,,,,,,,,,,198781,18,2022-01-29_13h34.55.712,lexical_decision_task_DD_L2,2021.2.3,MacIntel,111.1111111,,,,,,,,,,,0.7,1,,,,,,,,,,,,,,z,1,0.7,,,,,,,,0.253333333,0.006666667,0,0,0,,0,162,162,98,1,BAMPS,LB,old,z,./images/BAMPSLB.png,,,,,,,,,,,,,,,,,,,,,,
,,,,,,,,,,,,,,,,,198781,18,2022-01-29_13h34.55.712,lexical_decision_task_DD_L2,2021.2.3,MacIntel,111.1111111,,,,,,,,,,,0.53,1,,,,,,,,,,,,,,m,1,0.53,,,,,,,,0.253333333,0.006666667,0,0,0,,0,163,163,60,1,TWINS,HB,old,m,./images/TWINSHB.png,,,,,,,,,,,,,,,,,,,,,,
,,,,,,,,,,,,,,,,,198781,18,2022-01-29_13h34.55.712,lexical_decision_task_DD_L2,2021.2.3,MacIntel,111.1111111,,,,,,,,,,,0.699,1,,,,,,,,,,,,,,z,1,0.699,,,,,,,,0.253333333,0.006666667,0,0,0,,0,164,164,157,1,INLER,HB,old,z,./images/INLERHB.png,,,,,,,,,,,,,,,,,,,,,,
,,,,,,,,,,,,,,,,,198781,18,2022-01-29_13h34.55.712,lexical_decision_task_DD_L2,2021.2.3,MacIntel,111.1111111,,,,,,,,,,,0.664,1,,,,,,,,,,,,,,z,1,0.664,,,,,,,,0.253333333,0.006666667,0,0,0,,0,165,165,96,1,KEAMS,C,old,z,./images/KEAMS.png,,,,,,,,,,,,,,,,,,,,,,
,,,,,,,,,,,,,,,,,198781,18,2022-01-29_13h34.55.712,lexical_decision_task_DD_L2,2021.2.3,MacIntel,111.1111111,,,,,,,,,,,1.029,1,,,,,,,,,,,,,,z,1,1.029,,,,,,,,0.253333333,0.006666667,0,0,0,,0,166,166,144,1,NAIRY,C,old,z,./images/NAIRY.png,,,,,,,,,,,,,,,,,,,,,,
,,,,,,,,,,,,,,,,,198781,18,2022-01-29_13h34.55.712,lexical_decision_task_DD_L2,2021.2.3,MacIntel,111.1111111,,,,,,,,,,,0.746,1,,,,,,,,,,,,,,z,1,0.746,,,,,,,,0.253333333,0.006666667,0,0,0,,0,167,167,141,1,PLEET,C,old,z,./images/PLEET.png,,,,,,,,,,,,,,,,,,,,,,
,0.088888889,-0.364444444,1,0,0,instr_done_button,,,,,,1,test,"In the next phase you will be presented with the words from the the first phase. Your job is to decide whether you remember seeing the word or not. If you remember seeing the word press ""old"" or type ""m"". If you do not remember seeing the word press ""new"" or type ""z"". Please press the space bar or click on continue to begin. ",,,198781,18,2022-01-29_13h34.55.712,lexical_decision_task_DD_L2,2021.2.3,MacIntel,111.1111111,,,,,,,,,,,,,,,,,,,,,,,,,,,,,,,,,,,,,,,,,,,,,,,,,,,,,,0,0,0,0,1,,,,,,,,,,,,,,,
,0.072222222,-0.386666667,1,0,0,instr_done_button,,,,,,1,test,"In the next phase you will be presented with the words from the the first phase. Your job is to decide whether you remember seeing the word or not. If you remember seeing the word press ""old"" or type ""m"". If you do not remember seeing the word press ""new"" or type ""z"". Please press the space bar or click on continue to begin. ",,,198781,18,2022-01-29_13h34.55.712,lexical_decision_task_DD_L2,2021.2.3,MacIntel,111.1111111,,,,,,,,,,,,,,,,,,,,,,,,,,,,,,,,,,,,,,,,,,,,,,,,,,,,,,1,0,1,0,1,,,,,,,,,,,,,,,
,0.051111111,-0.378888889,1,0,0,instr_done_button,,,,,,1,test,"In the next phase you will be presented with the words from the the first phase. Your job is to decide whether you remember seeing the word or not. If you remember seeing the word press ""old"" or type ""m"". If you do not remember seeing the word press ""new"" or type ""z"". Please press the space bar or click on continue to begin. ",,,198781,18,2022-01-29_13h34.55.712,lexical_decision_task_DD_L2,2021.2.3,MacIntel,111.1111111,,,,,,,,,,,,,,,,,,,,,,,,,,,,,,,,,,,,,,,,,,,,,,,,,,,,,,2,0,2,0,1,,,,,,,,,,,,,,,
,0.074444444,-0.408888889,1,0,0,instr_done_button,,,,,,1,test,"In the next phase you will be presented with the words from the the first phase. Your job is to decide whether you remember seeing the word or not. If you remember seeing the word press ""old"" or type ""m"". If you do not remember seeing the word press ""new"" or type ""z"". Please press the space bar or click on continue to begin. ",,,198781,18,2022-01-29_13h34.55.712,lexical_decision_task_DD_L2,2021.2.3,MacIntel,111.1111111,,,,,,,,,,,,,,,,,,,,,,,,,,,,,,,,,,,,,,,,,,,,,,,,,,,,,,3,0,3,0,1,,,,,,,,,,,,,,,
,0.01,-0.406666667,1,0,0,instr_done_button,,,,,,1,test,"In the next phase you will be presented with the words from the the first phase. Your job is to decide whether you remember seeing the word or not. If you remember seeing the word press ""old"" or type ""m"". If you do not remember seeing the word press ""new"" or type ""z"". Please press the space bar or click on continue to begin. ",,,198781,18,2022-01-29_13h34.55.712,lexical_decision_task_DD_L2,2021.2.3,MacIntel,111.1111111,,,,,,,,,,,,,,,,,,,,,,,,,,,,,,,,,,,,,,,,,,,,,,,,,,,,,,4,0,4,0,1,,,,,,,,,,,,,,,
,,,,,,,,,,,,,,,,,198781,18,2022-01-29_13h34.55.712,lexical_decision_task_DD_L2,2021.2.3,MacIntel,111.1111111,,,,,,,,,,,1.569,0,,,,,,,,,,,,,,,,,,,,,,,,0.022222222,-0.326666667,0,0,0,,,,,,,PASTA,C,m,y,./images/PASTA.png,,,,,,,,z,0,1.569,,,,,,,,0,0,0,5,1
,,,,,,,,,,,,,,,,,198781,18,2022-01-29_13h34.55.712,lexical_decision_task_DD_L2,2021.2.3,MacIntel,111.1111111,,,,,,,,,,,2.159,1,,,,,,,,,,,,,,,,,,,,,,,,0.024444444,-0.308888889,0,0,0,,,,,,,SNACK,LB,m,y,./images/SNACKLB.png,,,,,,,,m,1,2.159,,,,,,,,0,1,1,73,1
,,,,,,,,,,,,,,,,,198781,18,2022-01-29_13h34.55.712,lexical_decision_task_DD_L2,2021.2.3,MacIntel,111.1111111,,,,,,,,,,,0.608,0,,,,,,,,,,,,,,,,,,,,,,,,0.024444444,-0.308888889,0,0,0,,,,,,,ENGINE,C,z,y,./images/ENGINE.png,,,,,,,,m,0,0.608,,,,,,,,0,2,2,122,1
,,,,,,,,,,,,,,,,,198781,18,2022-01-29_13h34.55.712,lexical_decision_task_DD_L2,2021.2.3,MacIntel,111.1111111,,,,,,,,,,,0.378,0,,,,,,,,,,,,,,,,,,,,,,,,0.024444444,-0.308888889,0,0,0,,,,,,,BANANA,LB,z,y,./images/BANANALB.png,,,,,,,,m,0,0.378,,,,,,,,0,3,3,154,1
,,,,,,,,,,,,,,,,,198781,18,2022-01-29_13h34.55.712,lexical_decision_task_DD_L2,2021.2.3,MacIntel,111.1111111,,,,,,,,,,,0.493,1,,,,,,,,,,,,,,,,,,,,,,,,0.024444444,-0.308888889,0,0,0,,,,,,,PAINT,LB,m,y,./images/PAINTLB.png,,,,,,,,m,1,0.493,,,,,,,,0,4,4,7,1
,,,,,,,,,,,,,,,,,198781,18,2022-01-29_13h34.55.712,lexical_decision_task_DD_L2,2021.2.3,MacIntel,111.1111111,,,,,,,,,,,0.493,0,,,,,,,,,,,,,,,,,,,,,,,,0.024444444,-0.308888889,0,0,0,,,,,,,STOVE,C,z,y,./images/STOVE.png,,,,,,,,m,0,0.493,,,,,,,,0,5,5,86,1
,,,,,,,,,,,,,,,,,198781,18,2022-01-29_13h34.55.712,lexical_decision_task_DD_L2,2021.2.3,MacIntel,111.1111111,,,,,,,,,,,0.561,1,,,,,,,,,,,,,,,,,,,,,,,,0.023333333,-0.308888889,0,0,0,,,,,,,SMOKER,C,m,y,./images/SMOKER.png,,,,,,,,m,1,0.561,,,,,,,,0,6,6,26,1
,,,,,,,,,,,,,,,,,198781,18,2022-01-29_13h34.55.712,lexical_decision_task_DD_L2,2021.2.3,MacIntel,111.1111111,,,,,,,,,,,0.492,1,,,,,,,,,,,,,,,,,,,,,,,,0.023333333,-0.308888889,0,0,0,,,,,,,MUSCLE,LB,m,y,./images/MUSCLELB.png,,,,,,,,m,1,0.492,,,,,,,,0,7,7,4,1
,,,,,,,,,,,,,,,,,198781,18,2022-01-29_13h34.55.712,lexical_decision_task_DD_L2,2021.2.3,MacIntel,111.1111111,,,,,,,,,,,0.042,1,,,,,,,,,,,,,,,,,,,,,,,,0.023333333,-0.308888889,0,0,0,,,,,,,BONNET,C,m,y,./images/BONNET.png,,,,,,,,m,1,0.042,,,,,,,,0,8,8,11,1
,,,,,,,,,,,,,,,,,198781,18,2022-01-29_13h34.55.712,lexical_decision_task_DD_L2,2021.2.3,MacIntel,111.1111111,,,,,,,,,,,0.292,1,,,,,,,,,,,,,,,,,,,,,,,,0.023333333,-0.308888889,0,0,0,,,,,,,STRING,C,m,y,./images/STRING.png,,,,,,,,m,1,0.292,,,,,,,,0,9,9,41,1
,,,,,,,,,,,,,,,,,198781,18,2022-01-29_13h34.55.712,lexical_decision_task_DD_L2,2021.2.3,MacIntel,111.1111111,,,,,,,,,,,0.631,0,,,,,,,,,,,,,,,,,,,,,,,,0.023333333,-0.308888889,0,0,0,,,,,,,TIGER,LB,z,y,./images/TIGERLB.png,,,,,,,,m,0,0.631,,,,,,,,0,10,10,121,1
,,,,,,,,,,,,,,,,,198781,18,2022-01-29_13h34.55.712,lexical_decision_task_DD_L2,2021.2.3,MacIntel,111.1111111,,,,,,,,,,,0.694,1,,,,,,,,,,,,,,,,,,,,,,,,0.023333333,-0.308888889,0,0,0,,,,,,,PLANK,LB,m,y,./images/PLANKLB.png,,,,,,,,m,1,0.694,,,,,,,,0,11,11,1,1
,,,,,,,,,,,,,,,,,198781,18,2022-01-29_13h34.55.712,lexical_decision_task_DD_L2,2021.2.3,MacIntel,111.1111111,,,,,,,,,,,0.594,1,,,,,,,,,,,,,,,,,,,,,,,,0.023333333,-0.308888889,0,0,0,,,,,,,CRUST,LB,m,y,./images/CRUSTLB.png,,,,,,,,m,1,0.594,,,,,,,,0,12,12,79,1
,,,,,,,,,,,,,,,,,198781,18,2022-01-29_13h34.55.712,lexical_decision_task_DD_L2,2021.2.3,MacIntel,111.1111111,,,,,,,,,,,0.859,1,,,,,,,,,,,,,,,,,,,,,,,,0.023333333,-0.308888889,0,0,0,,,,,,,DANCER,HB,z,y,./images/DANCERHB.png,,,,,,,,z,1,0.859,,,,,,,,0,13,13,105,1
,,,,,,,,,,,,,,,,,198781,18,2022-01-29_13h34.55.712,lexical_decision_task_DD_L2,2021.2.3,MacIntel,111.1111111,,,,,,,,,,,0.776,1,,,,,,,,,,,,,,,,,,,,,,,,0.023333333,-0.308888889,0,0,0,,,,,,,POSTER,C,z,y,./images/POSTER.png,,,,,,,,z,1,0.776,,,,,,,,0,14,14,137,1
,,,,,,,,,,,,,,,,,198781,18,2022-01-29_13h34.55.712,lexical_decision_task_DD_L2,2021.2.3,MacIntel,111.1111111,,,,,,,,,,,0.746,0,,,,,,,,,,,,,,,,,,,,,,,,0.023333333,-0.308888889,0,0,0,,,,,,,JAGUAR,HB,m,y,./images/JAGUARHB.png,,,,,,,,z,0,0.746,,,,,,,,0,15,15,18,1
,,,,,,,,,,,,,,,,,198781,18,2022-01-29_13h34.55.712,lexical_decision_task_DD_L2,2021.2.3,MacIntel,111.1111111,,,,,,,,,,,0.109,0,,,,,,,,,,,,,,,,,,,,,,,,0.023333333,-0.308888889,0,0,0,,,,,,,BOILER,HB,z,y,./images/BOILERHB.png,,,,,,,,m,0,0.109,,,,,,,,0,16,16,120,1
,,,,,,,,,,,,,,,,,198781,18,2022-01-29_13h34.55.712,lexical_decision_task_DD_L2,2021.2.3,MacIntel,111.1111111,,,,,,,,,,,0.159,1,,,,,,,,,,,,,,,,,,,,,,,,0.023333333,-0.308888889,0,0,0,,,,,,,PENCE,LB,m,y,./images/PENCELB.png,,,,,,,,m,1,0.159,,,,,,,,0,17,17,16,1
,,,,,,,,,,,,,,,,,198781,18,2022-01-29_13h34.55.712,lexical_decision_task_DD_L2,2021.2.3,MacIntel,111.1111111,,,,,,,,,,,0.042,1,,,,,,,,,,,,,,,,,,,,,,,,0.023333333,-0.308888889,0,0,0,,,,,,,TORCH,C,m,y,./images/TORCH.png,,,,,,,,m,1,0.042,,,,,,,,0,18,18,68,1
,,,,,,,,,,,,,,,,,198781,18,2022-01-29_13h34.55.712,lexical_decision_task_DD_L2,2021.2.3,MacIntel,111.1111111,,,,,,,,,,,0.001,1,,,,,,,,,,,,,,,,,,,,,,,,0.023333333,-0.308888889,0,0,0,,,,,,,ALLEY,LB,z,y,./images/ALLEYLB.png,,,,,,,,z,1,0.001,,,,,,,,0,19,19,139,1
,,,,,,,,,,,,,,,,,198781,18,2022-01-29_13h34.55.712,lexical_decision_task_DD_L2,2021.2.3,MacIntel,111.1111111,,,,,,,,,,,0.147,0,,,,,,,,,,,,,,,,,,,,,,,,0.023333333,-0.308888889,0,0,0,,,,,,,FLESH,HB,z,y,./images/FLESHHB.png,,,,,,,,m,0,0.147,,,,,,,,0,20,20,108,1
,,,,,,,,,,,,,,,,,198781,18,2022-01-29_13h34.55.712,lexical_decision_task_DD_L2,2021.2.3,MacIntel,111.1111111,,,,,,,,,,,0.259,0,,,,,,,,,,,,,,,,,,,,,,,,0.023333333,-0.308888889,0,0,0,,,,,,,KITTEN,HB,m,y,./images/KITTENHB.png,,,,,,,,z,0,0.259,,,,,,,,0,21,21,45,1
,,,,,,,,,,,,,,,,,198781,18,2022-01-29_13h34.55.712,lexical_decision_task_DD_L2,2021.2.3,MacIntel,111.1111111,,,,,,,,,,,0.159,0,,,,,,,,,,,,,,,,,,,,,,,,0.023333333,-0.308888889,0,0,0,,,,,,,FARMER,C,m,y,./images/FARMER.png,,,,,,,,z,0,0.159,,,,,,,,0,22,22,65,1
,,,,,,,,,,,,,,,,,198781,18,2022-01-29_13h34.55.712,lexical_decision_task_DD_L2,2021.2.3,MacIntel,111.1111111,,,,,,,,,,,0.013,0,,,,,,,,,,,,,,,,,,,,,,,,0.023333333,-0.308888889,0,0,0,,,,,,,DIVER,HB,z,y,./images/DIVERHB.png,,,,,,,,m,0,0.013,,,,,,,,0,23,23,93,1
,,,,,,,,,,,,,,,,,198781,18,2022-01-29_13h34.55.712,lexical_decision_task_DD_L2,2021.2.3,MacIntel,111.1111111,,,,,,,,,,,0.042,0,,,,,,,,,,,,,,,,,,,,,,,,0.023333333,-0.308888889,0,0,0,,,,,,,HEATER,C,z,y,./images/HEATER.png,,,,,,,,m,0,0.042,,,,,,,,0,24,24,140,1
,,,,,,,,,,,,,,,,,198781,18,2022-01-29_13h34.55.712,lexical_decision_task_DD_L2,2021.2.3,MacIntel,111.1111111,,,,,,,,,,,0.676,1,,,,,,,,,,,,,,,,,,,,,,,,0.023333333,-0.308888889,0,0,0,,,,,,,BERRY,C,m,y,./images/BERRY.png,,,,,,,,m,1,0.676,,,,,,,,0,25,25,47,1
,,,,,,,,,,,,,,,,,198781,18,2022-01-29_13h34.55.712,lexical_decision_task_DD_L2,2021.2.3,MacIntel,111.1111111,,,,,,,,,,,0.193,1,,,,,,,,,,,,,,,,,,,,,,,,0.023333333,-0.308888889,0,0,0,,,,,,,PEARL,LB,m,y,./images/PEARLLB.png,,,,,,,,m,1,0.193,,,,,,,,0,26,26,46,1
,,,,,,,,,,,,,,,,,198781,18,2022-01-29_13h34.55.712,lexical_decision_task_DD_L2,2021.2.3,MacIntel,111.1111111,,,,,,,,,,,0.041,1,,,,,,,,,,,,,,,,,,,,,,,,0.023333333,-0.308888889,0,0,0,,,,,,,TOMATO,HB,m,y,./images/TOMATOHB.png,,,,,,,,m,1,0.041,,,,,,,,0,27,27,0,1
,,,,,,,,,,,,,,,,,198781,18,2022-01-29_13h34.55.712,lexical_decision_task_DD_L2,2021.2.3,MacIntel,111.1111111,,,,,,,,,,,0.125,0,,,,,,,,,,,,,,,,,,,,,,,,0.023333333,-0.308888889,0,0,0,,,,,,,BAMBOO,C,z,y,./images/BAMBOO.png,,,,,,,,m,0,0.125,,,,,,,,0,28,28,89,1
,,,,,,,,,,,,,,,,,198781,18,2022-01-29_13h34.55.712,lexical_decision_task_DD_L2,2021.2.3,MacIntel,111.1111111,,,,,,,,,,,2.075,1,,,,,,,,,,,,,,,,,,,,,,,,0.023333333,-0.308888889,0,0,0,,,,,,,CLIFF,C,z,y,./images/CLIFF.png,,,,,,,,z,1,2.075,,,,,,,,0,29,29,92,1
,,,,,,,,,,,,,,,,,198781,18,2022-01-29_13h34.55.712,lexical_decision_task_DD_L2,2021.2.3,MacIntel,111.1111111,,,,,,,,,,,0.208,0,,,,,,,,,,,,,,,,,,,,,,,,0.023333333,-0.308888889,0,0,0,,,,,,,MOSQUE,LB,m,y,./images/MOSQUELB.png,,,,,,,,z,0,0.208,,,,,,,,0,30,30,43,1
,,,,,,,,,,,,,,,,,198781,18,2022-01-29_13h34.55.712,lexical_decision_task_DD_L2,2021.2.3,MacIntel,111.1111111,,,,,,,,,,,0.029,0,,,,,,,,,,,,,,,,,,,,,,,,0.023333333,-0.308888889,0,0,0,,,,,,,STAIN,HB,z,y,./images/STAINHB.png,,,,,,,,m,0,0.029,,,,,,,,0,31,31,90,1
,,,,,,,,,,,,,,,,,198781,18,2022-01-29_13h34.55.712,lexical_decision_task_DD_L2,2021.2.3,MacIntel,111.1111111,,,,,,,,,,,0.046,0,,,,,,,,,,,,,,,,,,,,,,,,0.023333333,-0.308888889,0,0,0,,,,,,,KIDNEY,HB,m,y,./images/KIDNEYHB.png,,,,,,,,z,0,0.046,,,,,,,,0,32,32,21,1
,,,,,,,,,,,,,,,,,198781,18,2022-01-29_13h34.55.712,lexical_decision_task_DD_L2,2021.2.3,MacIntel,111.1111111,,,,,,,,,,,0.226,1,,,,,,,,,,,,,,,,,,,,,,,,0.023333333,-0.308888889,0,0,0,,,,,,,GARDEN,LB,z,y,./images/GARDENLB.png,,,,,,,,z,1,0.226,,,,,,,,0,33,33,94,1
,,,,,,,,,,,,,,,,,198781,18,2022-01-29_13h34.55.712,lexical_decision_task_DD_L2,2021.2.3,MacIntel,111.1111111,,,,,,,,,,,0.209,1,,,,,,,,,,,,,,,,,,,,,,,,0.023333333,-0.308888889,0,0,0,,,,,,,CANYON,LB,m,y,./images/CANYONLB.png,,,,,,,,m,1,0.209,,,,,,,,0,34,34,34,1
,,,,,,,,,,,,,,,,,198781,18,2022-01-29_13h34.55.712,lexical_decision_task_DD_L2,2021.2.3,MacIntel,111.1111111,,,,,,,,,,,0.109,1,,,,,,,,,,,,,,,,,,,,,,,,0.023333333,-0.308888889,0,0,0,,,,,,,SUNSET,LB,m,y,./images/SUNSETLB.png,,,,,,,,m,1,0.109,,,,,,,,0,35,35,82,1
,,,,,,,,,,,,,,,,,198781,18,2022-01-29_13h34.55.712,lexical_decision_task_DD_L2,2021.2.3,MacIntel,111.1111111,,,,,,,,,,,0.192,0,,,,,,,,,,,,,,,,,,,,,,,,0.023333333,-0.308888889,0,0,0,,,,,,,WALRUS,C,m,y,./images/WALRUS.png,,,,,,,,z,0,0.192,,,,,,,,0,36,36,23,1
,,,,,,,,,,,,,,,,,198781,18,2022-01-29_13h34.55.712,lexical_decision_task_DD_L2,2021.2.3,MacIntel,111.1111111,,,,,,,,,,,0.027,1,,,,,,,,,,,,,,,,,,,,,,,,0.023333333,-0.308888889,0,0,0,,,,,,,TULIP,C,m,y,./images/TULIP.png,,,,,,,,m,1,0.027,,,,,,,,0,37,37,8,1
,,,,,,,,,,,,,,,,,198781,18,2022-01-29_13h34.55.712,lexical_decision_task_DD_L2,2021.2.3,MacIntel,111.1111111,,,,,,,,,,,0.08,1,,,,,,,,,,,,,,,,,,,,,,,,0.023333333,-0.308888889,0,0,0,,,,,,,MUFFIN,LB,m,y,./images/MUFFINLB.png,,,,,,,,m,1,0.08,,,,,,,,0,38,38,55,1
,,,,,,,,,,,,,,,,,198781,18,2022-01-29_13h34.55.712,lexical_decision_task_DD_L2,2021.2.3,MacIntel,111.1111111,,,,,,,,,,,0.06,0,,,,,,,,,,,,,,,,,,,,,,,,0.023333333,-0.308888889,0,0,0,,,,,,,BUTTER,HB,z,y,./images/BUTTERHB.png,,,,,,,,m,0,0.06,,,,,,,,0,39,39,111,1
,,,,,,,,,,,,,,,,,198781,18,2022-01-29_13h34.55.712,lexical_decision_task_DD_L2,2021.2.3,MacIntel,111.1111111,,,,,,,,,,,0.111,0,,,,,,,,,,,,,,,,,,,,,,,,0.023333333,-0.308888889,0,0,0,,,,,,,FERRY,HB,z,y,./images/FERRYHB.png,,,,,,,,m,0,0.111,,,,,,,,0,40,40,141,1
,,,,,,,,,,,,,,,,,198781,18,2022-01-29_13h34.55.712,lexical_decision_task_DD_L2,2021.2.3,MacIntel,111.1111111,,,,,,,,,,,0.043,0,,,,,,,,,,,,,,,,,,,,,,,,0.023333333,-0.308888889,0,0,0,space,,,,,,MEDAL,C,z,y,./images/MEDAL.png,,1.014,,,,,,m,0,0.043,,,,,,,,0,41,41,95,1
,,,,,,,,,,,,,,,,,198781,18,2022-01-29_13h34.55.712,lexical_decision_task_DD_L2,2021.2.3,MacIntel,111.1111111,,,,,,,,,,,0.043,0,,,,,,,,,,,,,,,,,,,,,,,,0.023333333,-0.308888889,0,0,0,,,,,,,QUILL,LB,m,y,./images/QUILLLB.png,,,,,,,,z,0,0.043,,,,,,,,0,42,42,31,1
,,,,,,,,,,,,,,,,,198781,18,2022-01-29_13h34.55.712,lexical_decision_task_DD_L2,2021.2.3,MacIntel,111.1111111,,,,,,,,,,,0.13,0,,,,,,,,,,,,,,,,,,,,,,,,0.023333333,-0.308888889,0,0,0,,,,,,,BASKET,C,z,y,./images/BASKET.png,,,,,,,,m,0,0.13,,,,,,,,0,43,43,128,1
,,,,,,,,,,,,,,,,,198781,18,2022-01-29_13h34.55.712,lexical_decision_task_DD_L2,2021.2.3,MacIntel,111.1111111,,,,,,,,,,,0.125,1,,,,,,,,,,,,,,,,,,,,,,,,0.023333333,-0.308888889,0,0,0,,,,,,,PURSE,C,m,y,./images/PURSE.png,,,,,,,,m,1,0.125,,,,,,,,0,44,44,62,1
,,,,,,,,,,,,,,,,,198781,18,2022-01-29_13h34.55.712,lexical_decision_task_DD_L2,2021.2.3,MacIntel,111.1111111,,,,,,,,,,,0.043,0,,,,,,,,,,,,,,,,,,,,,,,,0.023333333,-0.308888889,0,0,0,,,,,,,COLLAR,HB,z,y,./images/COLLARHB.png,,,,,,,,m,0,0.043,,,,,,,,0,45,45,99,1
,,,,,,,,,,,,,,,,,198781,18,2022-01-29_13h34.55.712,lexical_decision_task_DD_L2,2021.2.3,MacIntel,111.1111111,,,,,,,,,,,0.008,0,,,,,,,,,,,,,,,,,,,,,,,,0.023333333,-0.308888889,0,0,0,,,,,,,MAGGOT,HB,m,y,./images/MAGGOTHB.png,,,,,,,,z,0,0.008,,,,,,,,0,46,46,33,1
,,,,,,,,,,,,,,,,,198781,18,2022-01-29_13h34.55.712,lexical_decision_task_DD_L2,2021.2.3,MacIntel,111.1111111,,,,,,,,,,,0.342,0,,,,,,,,,,,,,,,,,,,,,,,,0.023333333,-0.308888889,0,0,0,,,,,,,SHELF,HB,m,y,./images/SHELFHB.png,,,,,,,,z,0,0.342,,,,,,,,0,47,47,39,1
,,,,,,,,,,,,,,,,,198781,18,2022-01-29_13h34.55.712,lexical_decision_task_DD_L2,2021.2.3,MacIntel,111.1111111,,,,,,,,,,,0.326,0,,,,,,,,,,,,,,,,,,,,,,,,0.023333333,-0.308888889,0,0,0,,,,,,,CASINO,LB,z,y,./images/CASINOLB.png,,,,,,,,m,0,0.326,,,,,,,,0,48,48,112,1
,,,,,,,,,,,,,,,,,198781,18,2022-01-29_13h34.55.712,lexical_decision_task_DD_L2,2021.2.3,MacIntel,111.1111111,,,,,,,,,,,1.027,1,,,,,,,,,,,,,,,,,,,,,,,,0.023333333,-0.308888889,0,0,0,,,,,,,MONKEY,HB,z,y,./images/MONKEYHB.png,,,,,,,,z,1,1.027,,,,,,,,0,49,49,129,1
,,,,,,,,,,,,,,,,,198781,18,2022-01-29_13h34.55.712,lexical_decision_task_DD_L2,2021.2.3,MacIntel,111.1111111,,,,,,,,,,,0.027,1,,,,,,,,,,,,,,,,,,,,,,,,0.023333333,-0.308888889,0,0,0,,,,,,,CHALK,LB,z,y,./images/CHALKLB.png,,,,,,,,z,1,0.027,,,,,,,,0,50,50,109,1
,,,,,,,,,,,,,,,,,198781,18,2022-01-29_13h34.55.712,lexical_decision_task_DD_L2,2021.2.3,MacIntel,111.1111111,,,,,,,,,,,0.063,1,,,,,,,,,,,,,,,,,,,,,,,,0.023333333,-0.308888889,0,0,0,,,,,,,WRIST,LB,m,y,./images/WRISTLB.png,,,,,,,,m,1,0.063,,,,,,,,0,51,51,25,1
,,,,,,,,,,,,,,,,,198781,18,2022-01-29_13h34.55.712,lexical_decision_task_DD_L2,2021.2.3,MacIntel,111.1111111,,,,,,,,,,,0.047,1,,,,,,,,,,,,,,,,,,,,,,,,0.023333333,-0.308888889,0,0,0,,,,,,,GREASE,HB,m,y,./images/GREASEHB.png,,,,,,,,m,1,0.047,,,,,,,,0,52,52,15,1
,,,,,,,,,,,,,,,,,198781,18,2022-01-29_13h34.55.712,lexical_decision_task_DD_L2,2021.2.3,MacIntel,111.1111111,,,,,,,,,,,0.198,1,,,,,,,,,,,,,,,,,,,,,,,,0.023333333,-0.308888889,0,0,0,,,,,,,MELON,LB,m,y,./images/MELONLB.png,,,,,,,,m,1,0.198,,,,,,,,0,53,53,22,1
,,,,,,,,,,,,,,,,,198781,18,2022-01-29_13h34.55.712,lexical_decision_task_DD_L2,2021.2.3,MacIntel,111.1111111,,,,,,,,,,,0.076,1,,,,,,,,,,,,,,,,,,,,,,,,0.023333333,-0.308888889,0,0,0,,,,,,,BELLY,LB,m,y,./images/BELLYLB.png,,,,,,,,m,1,0.076,,,,,,,,0,54,54,10,1
,,,,,,,,,,,,,,,,,198781,18,2022-01-29_13h34.55.712,lexical_decision_task_DD_L2,2021.2.3,MacIntel,111.1111111,,,,,,,,,,,0.208,1,,,,,,,,,,,,,,,,,,,,,,,,0.023333333,-0.308888889,0,0,0,,,,,,,BUNNY,LB,z,y,./images/BUNNYLB.png,,,,,,,,z,1,0.208,,,,,,,,0,55,55,97,1
,,,,,,,,,,,,,,,,,198781,18,2022-01-29_13h34.55.712,lexical_decision_task_DD_L2,2021.2.3,MacIntel,111.1111111,,,,,,,,,,,0.042,0,,,,,,,,,,,,,,,,,,,,,,,,0.023333333,-0.308888889,0,0,0,,,,,,,PLANET,C,z,y,./images/PLANET.png,,,,,,,,m,0,0.042,,,,,,,,0,56,56,164,1
,,,,,,,,,,,,,,,,,198781,18,2022-01-29_13h34.55.712,lexical_decision_task_DD_L2,2021.2.3,MacIntel,111.1111111,,,,,,,,,,,1.559,1,,,,,,,,,,,,,,,,,,,,,,,,0.023333333,-0.308888889,0,0,0,,,,,,,BUBBLE,C,z,y,./images/BUBBLE.png,,,,,,,,z,1,1.559,,,,,,,,0,57,57,155,1
,,,,,,,,,,,,,,,,,198781,18,2022-01-29_13h34.55.712,lexical_decision_task_DD_L2,2021.2.3,MacIntel,111.1111111,,,,,,,,,,,0.809,1,,,,,,,,,,,,,,,,,,,,,,,,0.026666667,-0.313333333,0,0,0,,,,,,,PARADE,C,z,y,./images/PARADE.png,,,,,,,,z,1,0.809,,,,,,,,0,58,58,101,1
,,,,,,,,,,,,,,,,,198781,18,2022-01-29_13h34.55.712,lexical_decision_task_DD_L2,2021.2.3,MacIntel,111.1111111,,,,,,,,,,,0.337,1,,,,,,,,,,,,,,,,,,,,,,,,0.038888889,-0.283333333,0,0,0,,,,,,,PISTOL,C,z,y,./images/PISTOL.png,,,,,,,,z,1,0.337,,,,,,,,0,59,59,113,1
,,,,,,,,,,,,,,,,,198781,18,2022-01-29_13h34.55.712,lexical_decision_task_DD_L2,2021.2.3,MacIntel,111.1111111,,,,,,,,,,,1.008,0,,,,,,,,,,,,,,,,,,,,,,,,0.032222222,-0.282222222,0,0,0,,,,,,,WHEEL,C,z,y,./images/WHEEL.png,,,,,,,,m,0,1.008,,,,,,,,0,60,60,161,1
,,,,,,,,,,,,,,,,,198781,18,2022-01-29_13h34.55.712,lexical_decision_task_DD_L2,2021.2.3,MacIntel,111.1111111,,,,,,,,,,,0.075,0,,,,,,,,,,,,,,,,,,,,,,,,0.032222222,-0.282222222,0,0,0,,,,,,,WHISKY,C,z,y,./images/WHISKY.png,,,,,,,,m,0,0.075,,,,,,,,0,61,61,167,1
,,,,,,,,,,,,,,,,,198781,18,2022-01-29_13h34.55.712,lexical_decision_task_DD_L2,2021.2.3,MacIntel,111.1111111,,,,,,,,,,,0.008,1,,,,,,,,,,,,,,,,,,,,,,,,0.032222222,-0.282222222,0,0,0,,,,,,,BAKER,HB,z,y,./images/BAKERHB.png,,,,,,,,z,1,0.008,,,,,,,,0,62,62,147,1
,,,,,,,,,,,,,,,,,198781,18,2022-01-29_13h34.55.712,lexical_decision_task_DD_L2,2021.2.3,MacIntel,111.1111111,,,,,,,,,,,0.008,0,,,,,,,,,,,,,,,,,,,,,,,,0.032222222,-0.282222222,0,0,0,,,,,,,STATUE,HB,z,y,./images/STATUEHB.png,,,,,,,,m,0,0.008,,,,,,,,0,63,63,150,1
,,,,,,,,,,,,,,,,,198781,18,2022-01-29_13h34.55.712,lexical_decision_task_DD_L2,2021.2.3,MacIntel,111.1111111,,,,,,,,,,,0.614,1,,,,,,,,,,,,,,,,,,,,,,,,0.032222222,-0.282222222,0,0,0,,,,,,,CRADLE,C,m,y,./images/CRADLE.png,,,,,,,,m,1,0.614,,,,,,,,0,64,64,20,1
,,,,,,,,,,,,,,,,,198781,18,2022-01-29_13h34.55.712,lexical_decision_task_DD_L2,2021.2.3,MacIntel,111.1111111,,,,,,,,,,,0.077,0,,,,,,,,,,,,,,,,,,,,,,,,0.032222222,-0.282222222,0,0,0,,,,,,,BRUSH,C,z,y,./images/BRUSH.png,,,,,,,,m,0,0.077,,,,,,,,0,65,65,143,1
,,,,,,,,,,,,,,,,,198781,18,2022-01-29_13h34.55.712,lexical_decision_task_DD_L2,2021.2.3,MacIntel,111.1111111,,,,,,,,,,,0.511,1,,,,,,,,,,,,,,,,,,,,,,,,0.032222222,-0.282222222,0,0,0,,,,,,,PIMPLE,C,m,y,./images/PIMPLE.png,,,,,,,,m,1,0.511,,,,,,,,0,66,66,71,1
,,,,,,,,,,,,,,,,,198781,18,2022-01-29_13h34.55.712,lexical_decision_task_DD_L2,2021.2.3,MacIntel,111.1111111,,,,,,,,,,,0.244,0,,,,,,,,,,,,,,,,,,,,,,,,0.032222222,-0.282222222,0,0,0,,,,,,,SCREW,HB,m,y,./images/SCREWHB.png,,,,,,,,z,0,0.244,,,,,,,,0,67,67,24,1
,,,,,,,,,,,,,,,,,198781,18,2022-01-29_13h34.55.712,lexical_decision_task_DD_L2,2021.2.3,MacIntel,111.1111111,,,,,,,,,,,0.463,1,,,,,,,,,,,,,,,,,,,,,,,,0.032222222,-0.282222222,0,0,0,,,,,,,FENCE,C,z,y,./images/FENCE.png,,,,,,,,z,1,0.463,,,,,,,,0,68,68,98,1
,,,,,,,,,,,,,,,,,198781,18,2022-01-29_13h34.55.712,lexical_decision_task_DD_L2,2021.2.3,MacIntel,111.1111111,,,,,,,,,,,0.159,1,,,,,,,,,,,,,,,,,,,,,,,,0.031111111,-0.281111111,0,0,0,,,,,,,SKIING,C,m,y,./images/SKIING.png,,,,,,,,m,1,0.159,,,,,,,,0,69,69,17,1
,,,,,,,,,,,,,,,,,198781,18,2022-01-29_13h34.55.712,lexical_decision_task_DD_L2,2021.2.3,MacIntel,111.1111111,,,,,,,,,,,0.111,1,,,,,,,,,,,,,,,,,,,,,,,,0.023333333,-0.275555556,0,0,0,,,,,,,JELLY,LB,m,y,./images/JELLYLB.png,,,,,,,,m,1,0.111,,,,,,,,0,70,70,64,1
,,,,,,,,,,,,,,,,,198781,18,2022-01-29_13h34.55.712,lexical_decision_task_DD_L2,2021.2.3,MacIntel,111.1111111,,,,,,,,,,,0.226,1,,,,,,,,,,,,,,,,,,,,,,,,0.023333333,-0.275555556,0,0,0,,,,,,,WEASEL,C,m,y,./images/WEASEL.png,,,,,,,,m,1,0.226,,,,,,,,0,71,71,80,1
,,,,,,,,,,,,,,,,,198781,18,2022-01-29_13h34.55.712,lexical_decision_task_DD_L2,2021.2.3,MacIntel,111.1111111,,,,,,,,,,,0.001,0,,,,,,,,,,,,,,,,,,,,,,,,0.023333333,-0.275555556,0,0,0,,,,,,,CLOWN,LB,z,y,./images/CLOWNLB.png,,,,,,,,m,0,0.001,,,,,,,,0,72,72,106,1
,,,,,,,,,,,,,,,,,198781,18,2022-01-29_13h34.55.712,lexical_decision_task_DD_L2,2021.2.3,MacIntel,111.1111111,,,,,,,,,,,1.275,1,,,,,,,,,,,,,,,,,,,,,,,,0.023333333,-0.275555556,0,0,0,,,,,,,CRUMB,C,m,y,./images/CRUMB.png,,,,,,,,m,1,1.275,,,,,,,,0,73,73,29,1
,,,,,,,,,,,,,,,,,198781,18,2022-01-29_13h34.55.712,lexical_decision_task_DD_L2,2021.2.3,MacIntel,111.1111111,,,,,,,,,,,0.108,0,,,,,,,,,,,,,,,,,,,,,,,,0.023333333,-0.275555556,0,0,0,,,,,,,POKER,LB,z,y,./images/POKERLB.png,,,,,,,,m,0,0.108,,,,,,,,0,74,74,151,1
,,,,,,,,,,,,,,,,,198781,18,2022-01-29_13h34.55.712,lexical_decision_task_DD_L2,2021.2.3,MacIntel,111.1111111,,,,,,,,,,,0.295,0,,,,,,,,,,,,,,,,,,,,,,,,0.023333333,-0.275555556,0,0,0,,,,,,,CLOTH,C,z,y,./images/CLOTH.png,,,,,,,,m,0,0.295,,,,,,,,0,75,75,107,1
,,,,,,,,,,,,,,,,,198781,18,2022-01-29_13h34.55.712,lexical_decision_task_DD_L2,2021.2.3,MacIntel,111.1111111,,,,,,,,,,,0.176,0,,,,,,,,,,,,,,,,,,,,,,,,0.023333333,-0.275555556,0,0,0,,,,,,,BIRTH,LB,m,y,./images/BIRTHLB.png,,,,,,,,z,0,0.176,,,,,,,,0,76,76,37,1
,,,,,,,,,,,,,,,,,198781,18,2022-01-29_13h34.55.712,lexical_decision_task_DD_L2,2021.2.3,MacIntel,111.1111111,,,,,,,,,,,0.963,1,,,,,,,,,,,,,,,,,,,,,,,,0.023333333,-0.275555556,0,0,0,,,,,,,TRIPOD,HB,m,y,./images/TRIPODHB.png,,,,,,,,m,1,0.963,,,,,,,,0,77,77,54,1
,,,,,,,,,,,,,,,,,198781,18,2022-01-29_13h34.55.712,lexical_decision_task_DD_L2,2021.2.3,MacIntel,111.1111111,,,,,,,,,,,0.592,1,,,,,,,,,,,,,,,,,,,,,,,,0.023333333,-0.275555556,0,0,0,,,,,,,BARREL,C,m,y,./images/BARREL.png,,,,,,,,m,1,0.592,,,,,,,,0,78,78,32,1
,,,,,,,,,,,,,,,,,198781,18,2022-01-29_13h34.55.712,lexical_decision_task_DD_L2,2021.2.3,MacIntel,111.1111111,,,,,,,,,,,1.195,0,,,,,,,,,,,,,,,,,,,,,,,,0.023333333,-0.275555556,0,0,0,,,,,,,BOXER,LB,z,y,./images/BOXERLB.png,,,,,,,,m,0,1.195,,,,,,,,0,79,79,88,1
,,,,,,,,,,,,,,,,,198781,18,2022-01-29_13h34.55.712,lexical_decision_task_DD_L2,2021.2.3,MacIntel,111.1111111,,,,,,,,,,,0.458,0,,,,,,,,,,,,,,,,,,,,,,,,0.023333333,-0.275555556,0,0,0,,,,,,,BLOKE,HB,z,y,./images/BLOKEHB.png,,,,,,,,m,0,0.458,,,,,,,,0,80,80,96,1
,,,,,,,,,,,,,,,,,198781,18,2022-01-29_13h34.55.712,lexical_decision_task_DD_L2,2021.2.3,MacIntel,111.1111111,,,,,,,,,,,0.174,1,,,,,,,,,,,,,,,,,,,,,,,,0.023333333,-0.275555556,0,0,0,,,,,,,STREAM,C,z,y,./images/STREAM.png,,,,,,,,z,1,0.174,,,,,,,,0,81,81,125,1
,,,,,,,,,,,,,,,,,198781,18,2022-01-29_13h34.55.712,lexical_decision_task_DD_L2,2021.2.3,MacIntel,111.1111111,,,,,,,,,,,0.409,0,,,,,,,,,,,,,,,,,,,,,,,,0.023333333,-0.275555556,0,0,0,,,,,,,CLOUD,C,z,y,./images/CLOUD.png,,,,,,,,m,0,0.409,,,,,,,,0,82,82,110,1
,,,,,,,,,,,,,,,,,198781,18,2022-01-29_13h34.55.712,lexical_decision_task_DD_L2,2021.2.3,MacIntel,111.1111111,,,,,,,,,,,0.246,1,,,,,,,,,,,,,,,,,,,,,,,,-0.01,-0.402222222,1,0,0,,,,,,,POODLE,HB,m,y,./images/POODLEHB.png,break_done_button,,,,,,,m,1,0.246,,,,,,,,0,83,83,81,1
,,,,,,,,,,,,,,,,,198781,18,2022-01-29_13h34.55.712,lexical_decision_task_DD_L2,2021.2.3,MacIntel,111.1111111,,,,,,,,,,,0.126,1,,,,,,,,,,,,,,,,,,,,,,,,-0.012222222,-0.405555556,0,0,0,,,,,,,FINGER,HB,m,y,./images/FINGERHB.png,,,,,,,,m,1,0.126,,,,,,,,0,84,84,3,1
,,,,,,,,,,,,,,,,,198781,18,2022-01-29_13h34.55.712,lexical_decision_task_DD_L2,2021.2.3,MacIntel,111.1111111,,,,,,,,,,,0.126,0,,,,,,,,,,,,,,,,,,,,,,,,-0.012222222,-0.405555556,0,0,0,,,,,,,SHORE,HB,m,y,./images/SHOREHB.png,,,,,,,,z,0,0.126,,,,,,,,0,85,85,12,1
,,,,,,,,,,,,,,,,,198781,18,2022-01-29_13h34.55.712,lexical_decision_task_DD_L2,2021.2.3,MacIntel,111.1111111,,,,,,,,,,,0.328,0,,,,,,,,,,,,,,,,,,,,,,,,-0.012222222,-0.405555556,0,0,0,,,,,,,WALNUT,HB,z,y,./images/WALNUTHB.png,,,,,,,,m,0,0.328,,,,,,,,0,86,86,84,1
,,,,,,,,,,,,,,,,,198781,18,2022-01-29_13h34.55.712,lexical_decision_task_DD_L2,2021.2.3,MacIntel,111.1111111,,,,,,,,,,,0.56,0,,,,,,,,,,,,,,,,,,,,,,,,-0.012222222,-0.405555556,0,0,0,,,,,,,STOOL,LB,z,y,./images/STOOLLB.png,,,,,,,,m,0,0.56,,,,,,,,0,87,87,127,1
,,,,,,,,,,,,,,,,,198781,18,2022-01-29_13h34.55.712,lexical_decision_task_DD_L2,2021.2.3,MacIntel,111.1111111,,,,,,,,,,,0.16,1,,,,,,,,,,,,,,,,,,,,,,,,-0.012222222,-0.405555556,0,0,0,,,,,,,GRAIN,HB,m,y,./images/GRAINHB.png,,,,,,,,m,1,0.16,,,,,,,,0,88,88,75,1
,,,,,,,,,,,,,,,,,198781,18,2022-01-29_13h34.55.712,lexical_decision_task_DD_L2,2021.2.3,MacIntel,111.1111111,,,,,,,,,,,0.001,1,,,,,,,,,,,,,,,,,,,,,,,,-0.012222222,-0.405555556,0,0,0,,,,,,,BEARD,C,m,y,./images/BEARD.png,,,,,,,,m,1,0.001,,,,,,,,0,89,89,2,1
,,,,,,,,,,,,,,,,,198781,18,2022-01-29_13h34.55.712,lexical_decision_task_DD_L2,2021.2.3,MacIntel,111.1111111,,,,,,,,,,,0.031,1,,,,,,,,,,,,,,,,,,,,,,,,-0.012222222,-0.405555556,0,0,0,,,,,,,SHIELD,HB,z,y,./images/SHIELDHB.png,,,,,,,,z,1,0.031,,,,,,,,0,90,90,132,1
,,,,,,,,,,,,,,,,,198781,18,2022-01-29_13h34.55.712,lexical_decision_task_DD_L2,2021.2.3,MacIntel,111.1111111,,,,,,,,,,,0.001,1,,,,,,,,,,,,,,,,,,,,,,,,-0.012222222,-0.405555556,0,0,0,,,,,,,PEACH,C,m,y,./images/PEACH.png,,,,,,,,m,1,0.001,,,,,,,,0,91,91,35,1
,,,,,,,,,,,,,,,,,198781,18,2022-01-29_13h34.55.712,lexical_decision_task_DD_L2,2021.2.3,MacIntel,111.1111111,,,,,,,,,,,0.379,0,,,,,,,,,,,,,,,,,,,,,,,,-0.012222222,-0.405555556,0,0,0,,,,,,,BISHOP,LB,z,y,./images/BISHOPLB.png,,,,,,,,m,0,0.379,,,,,,,,0,92,92,133,1
,,,,,,,,,,,,,,,,,198781,18,2022-01-29_13h34.55.712,lexical_decision_task_DD_L2,2021.2.3,MacIntel,111.1111111,,,,,,,,,,,0.993,1,,,,,,,,,,,,,,,,,,,,,,,,-0.012222222,-0.405555556,0,0,0,,,,,,,GRANNY,C,z,y,./images/GRANNY.png,,,,,,,,z,1,0.993,,,,,,,,0,93,93,104,1
,,,,,,,,,,,,,,,,,198781,18,2022-01-29_13h34.55.712,lexical_decision_task_DD_L2,2021.2.3,MacIntel,111.1111111,,,,,,,,,,,0.776,1,,,,,,,,,,,,,,,,,,,,,,,,-0.012222222,-0.405555556,0,0,0,,,,,,,MIDGET,LB,z,y,./images/MIDGETLB.png,,,,,,,,z,1,0.776,,,,,,,,0,94,94,160,1
,,,,,,,,,,,,,,,,,198781,18,2022-01-29_13h34.55.712,lexical_decision_task_DD_L2,2021.2.3,MacIntel,111.1111111,,,,,,,,,,,0.974,1,,,,,,,,,,,,,,,,,,,,,,,,-0.012222222,-0.405555556,0,0,0,,,,,,,MAMMAL,C,z,y,./images/MAMMAL.png,,,,,,,,z,1,0.974,,,,,,,,0,95,95,146,1
,,,,,,,,,,,,,,,,,198781,18,2022-01-29_13h34.55.712,lexical_decision_task_DD_L2,2021.2.3,MacIntel,111.1111111,,,,,,,,,,,1.46,1,,,,,,,,,,,,,,,,,,,,,,,,-0.012222222,-0.405555556,0,0,0,,,,,,,DESERT,LB,z,y,./images/DESERTLB.png,,,,,,,,z,1,1.46,,,,,,,,0,96,96,136,1
,,,,,,,,,,,,,,,,,198781,18,2022-01-29_13h34.55.712,lexical_decision_task_DD_L2,2021.2.3,MacIntel,111.1111111,,,,,,,,,,,0.944,1,,,,,,,,,,,,,,,,,,,,,,,,-0.012222222,-0.405555556,0,0,0,,,,,,,ATTIC,HB,m,y,./images/ATTICHB.png,,,,,,,,m,1,0.944,,,,,,,,0,97,97,27,1
,,,,,,,,,,,,,,,,,198781,18,2022-01-29_13h34.55.712,lexical_decision_task_DD_L2,2021.2.3,MacIntel,111.1111111,,,,,,,,,,,0.693,1,,,,,,,,,,,,,,,,,,,,,,,,-0.012222222,-0.405555556,0,0,0,,,,,,,HAMMER,HB,z,y,./images/HAMMERHB.png,,,,,,,,z,1,0.693,,,,,,,,0,98,98,159,1
,,,,,,,,,,,,,,,,,198781,18,2022-01-29_13h34.55.712,lexical_decision_task_DD_L2,2021.2.3,MacIntel,111.1111111,,,,,,,,,,,0.207,0,,,,,,,,,,,,,,,,,,,,,,,,-0.012222222,-0.405555556,0,0,0,,,,,,,WAGON,LB,z,y,./images/WAGONLB.png,,,,,,,,m,0,0.207,,,,,,,,0,99,99,91,1
,,,,,,,,,,,,,,,,,198781,18,2022-01-29_13h34.55.712,lexical_decision_task_DD_L2,2021.2.3,MacIntel,111.1111111,,,,,,,,,,,0.041,1,,,,,,,,,,,,,,,,,,,,,,,,-0.012222222,-0.405555556,0,0,0,,,,,,,BABOON,LB,m,y,./images/BABOONLB.png,,,,,,,,m,1,0.041,,,,,,,,0,100,100,58,1
,,,,,,,,,,,,,,,,,198781,18,2022-01-29_13h34.55.712,lexical_decision_task_DD_L2,2021.2.3,MacIntel,111.1111111,,,,,,,,,,,0.04,1,,,,,,,,,,,,,,,,,,,,,,,,-0.012222222,-0.405555556,0,0,0,,,,,,,THROAT,HB,m,y,./images/THROATHB.png,,,,,,,,m,1,0.04,,,,,,,,0,101,101,36,1
,,,,,,,,,,,,,,,,,198781,18,2022-01-29_13h34.55.712,lexical_decision_task_DD_L2,2021.2.3,MacIntel,111.1111111,,,,,,,,,,,0.176,1,,,,,,,,,,,,,,,,,,,,,,,,-0.012222222,-0.405555556,0,0,0,,,,,,,SPORT,HB,m,y,./images/SPORTHB.png,,,,,,,,m,1,0.176,,,,,,,,0,102,102,48,1
,,,,,,,,,,,,,,,,,198781,18,2022-01-29_13h34.55.712,lexical_decision_task_DD_L2,2021.2.3,MacIntel,111.1111111,,,,,,,,,,,0.111,1,,,,,,,,,,,,,,,,,,,,,,,,-0.012222222,-0.405555556,0,0,0,,,,,,,PARCEL,HB,z,y,./images/PARCELHB.png,,,,,,,,z,1,0.111,,,,,,,,0,103,103,102,1
,,,,,,,,,,,,,,,,,198781,18,2022-01-29_13h34.55.712,lexical_decision_task_DD_L2,2021.2.3,MacIntel,111.1111111,,,,,,,,,,,0.363,0,,,,,,,,,,,,,,,,,,,,,,,,-0.012222222,-0.405555556,0,0,0,,,,,,,CHERRY,HB,z,y,./images/CHERRYHB.png,,,,,,,,m,0,0.363,,,,,,,,0,104,104,138,1
,,,,,,,,,,,,,,,,,198781,18,2022-01-29_13h34.55.712,lexical_decision_task_DD_L2,2021.2.3,MacIntel,111.1111111,,,,,,,,,,,0.11,1,,,,,,,,,,,,,,,,,,,,,,,,-0.012222222,-0.405555556,0,0,0,,,,,,,CANDY,HB,z,y,./images/CANDYHB.png,,,,,,,,z,1,0.11,,,,,,,,0,105,105,123,1
,,,,,,,,,,,,,,,,,198781,18,2022-01-29_13h34.55.712,lexical_decision_task_DD_L2,2021.2.3,MacIntel,111.1111111,,,,,,,,,,,0.093,0,,,,,,,,,,,,,,,,,,,,,,,,-0.012222222,-0.405555556,0,0,0,,,,,,,BURIAL,C,m,y,./images/BURIAL.png,,,,,,,,z,0,0.093,,,,,,,,0,106,106,59,1
,,,,,,,,,,,,,,,,,198781,18,2022-01-29_13h34.55.712,lexical_decision_task_DD_L2,2021.2.3,MacIntel,111.1111111,,,,,,,,,,,0.043,1,,,,,,,,,,,,,,,,,,,,,,,,-0.012222222,-0.405555556,0,0,0,,,,,,,CANOE,LB,z,y,./images/CANOELB.png,,,,,,,,z,1,0.043,,,,,,,,0,107,107,142,1
,,,,,,,,,,,,,,,,,198781,18,2022-01-29_13h34.55.712,lexical_decision_task_DD_L2,2021.2.3,MacIntel,111.1111111,,,,,,,,,,,0.002,1,,,,,,,,,,,,,,,,,,,,,,,,-0.012222222,-0.405555556,0,0,0,,,,,,,STEAK,LB,z,y,./images/STEAKLB.png,,,,,,,,z,1,0.002,,,,,,,,0,108,108,115,1
,,,,,,,,,,,,,,,,,198781,18,2022-01-29_13h34.55.712,lexical_decision_task_DD_L2,2021.2.3,MacIntel,111.1111111,,,,,,,,,,,0.074,0,,,,,,,,,,,,,,,,,,,,,,,,-0.012222222,-0.405555556,0,0,0,,,,,,,GRAPE,LB,z,y,./images/GRAPELB.png,,,,,,,,m,0,0.074,,,,,,,,0,109,109,100,1
,,,,,,,,,,,,,,,,,198781,18,2022-01-29_13h34.55.712,lexical_decision_task_DD_L2,2021.2.3,MacIntel,111.1111111,,,,,,,,,,,0.192,0,,,,,,,,,,,,,,,,,,,,,,,,-0.012222222,-0.405555556,0,0,0,,,,,,,LAGOON,C,z,y,./images/LAGOON.png,,,,,,,,m,0,0.192,,,,,,,,0,110,110,131,1
,,,,,,,,,,,,,,,,,198781,18,2022-01-29_13h34.55.712,lexical_decision_task_DD_L2,2021.2.3,MacIntel,111.1111111,,,,,,,,,,,0.042,1,,,,,,,,,,,,,,,,,,,,,,,,-0.012222222,-0.405555556,0,0,0,,,,,,,SAUNA,HB,z,y,./images/SAUNAHB.png,,,,,,,,z,1,0.042,,,,,,,,0,111,111,117,1
,,,,,,,,,,,,,,,,,198781,18,2022-01-29_13h34.55.712,lexical_decision_task_DD_L2,2021.2.3,MacIntel,111.1111111,,,,,,,,,,,0.01,1,,,,,,,,,,,,,,,,,,,,,,,,-0.012222222,-0.405555556,0,0,0,,,,,,,SNAKE,LB,z,y,./images/SNAKELB.png,,,,,,,,z,1,0.01,,,,,,,,0,112,112,124,1
,,,,,,,,,,,,,,,,,198781,18,2022-01-29_13h34.55.712,lexical_decision_task_DD_L2,2021.2.3,MacIntel,111.1111111,,,,,,,,,,,0.011,0,,,,,,,,,,,,,,,,,,,,,,,,-0.012222222,-0.405555556,0,0,0,,,,,,,JUNGLE,C,m,y,./images/JUNGLE.png,,,,,,,,z,0,0.011,,,,,,,,0,113,113,83,1
,,,,,,,,,,,,,,,,,198781,18,2022-01-29_13h34.55.712,lexical_decision_task_DD_L2,2021.2.3,MacIntel,111.1111111,,,,,,,,,,,0.112,1,,,,,,,,,,,,,,,,,,,,,,,,-0.012222222,-0.405555556,0,0,0,,,,,,,SWEAT,HB,m,y,./images/SWEATHB.png,,,,,,,,m,1,0.112,,,,,,,,0,114,114,66,1
,,,,,,,,,,,,,,,,,198781,18,2022-01-29_13h34.55.712,lexical_decision_task_DD_L2,2021.2.3,MacIntel,111.1111111,,,,,,,,,,,0.137,1,,,,,,,,,,,,,,,,,,,,,,,,-0.012222222,-0.405555556,0,0,0,,,,,,,HOCKEY,C,z,y,./images/HOCKEY.png,,,,,,,,z,1,0.137,,,,,,,,0,115,115,116,1
,,,,,,,,,,,,,,,,,198781,18,2022-01-29_13h34.55.712,lexical_decision_task_DD_L2,2021.2.3,MacIntel,111.1111111,,,,,,,,,,,0.042,0,,,,,,,,,,,,,,,,,,,,,,,,-0.012222222,-0.405555556,0,0,0,,,,,,,BRIDE,LB,z,y,./images/BRIDELB.png,,,,,,,,m,0,0.042,,,,,,,,0,116,116,148,1
,,,,,,,,,,,,,,,,,198781,18,2022-01-29_13h34.55.712,lexical_decision_task_DD_L2,2021.2.3,MacIntel,111.1111111,,,,,,,,,,,0.235,0,,,,,,,,,,,,,,,,,,,,,,,,-0.012222222,-0.405555556,0,0,0,,,,,,,TOWEL,LB,z,y,./images/TOWELLB.png,,,,,,,,m,0,0.235,,,,,,,,0,117,117,85,1
,,,,,,,,,,,,,,,,,198781,18,2022-01-29_13h34.55.712,lexical_decision_task_DD_L2,2021.2.3,MacIntel,111.1111111,,,,,,,,,,,0.091,0,,,,,,,,,,,,,,,,,,,,,,,,-0.012222222,-0.405555556,0,0,0,,,,,,,JUMPER,C,z,y,./images/JUMPER.png,,,,,,,,m,0,0.091,,,,,,,,0,118,118,158,1
,,,,,,,,,,,,,,,,,198781,18,2022-01-29_13h34.55.712,lexical_decision_task_DD_L2,2021.2.3,MacIntel,111.1111111,,,,,,,,,,,0.559,0,,,,,,,,,,,,,,,,,,,,,,,,-0.012222222,-0.405555556,0,0,0,,,,,,,ARROW,HB,z,y,./images/ARROWHB.png,,,,,,,,m,0,0.559,,,,,,,,0,119,119,153,1
,,,,,,,,,,,,,,,,,198781,18,2022-01-29_13h34.55.712,lexical_decision_task_DD_L2,2021.2.3,MacIntel,111.1111111,,,,,,,,,,,0.041,0,,,,,,,,,,,,,,,,,,,,,,,,-0.012222222,-0.405555556,0,0,0,,,,,,,SAUCE,HB,z,y,./images/SAUCEHB.png,,,,,,,,m,0,0.041,,,,,,,,0,120,120,135,1
,,,,,,,,,,,,,,,,,198781,18,2022-01-29_13h34.55.712,lexical_decision_task_DD_L2,2021.2.3,MacIntel,111.1111111,,,,,,,,,,,0.391,1,,,,,,,,,,,,,,,,,,,,,,,,-0.012222222,-0.405555556,0,0,0,,,,,,,CRATER,HB,z,y,./images/CRATERHB.png,,,,,,,,z,1,0.391,,,,,,,,0,121,121,87,1
,,,,,,,,,,,,,,,,,198781,18,2022-01-29_13h34.55.712,lexical_decision_task_DD_L2,2021.2.3,MacIntel,111.1111111,,,,,,,,,,,0.375,1,,,,,,,,,,,,,,,,,,,,,,,,-0.012222222,-0.405555556,0,0,0,,,,,,,CEMENT,C,m,y,./images/CEMENT.png,,,,,,,,m,1,0.375,,,,,,,,0,122,122,74,1
,,,,,,,,,,,,,,,,,198781,18,2022-01-29_13h34.55.712,lexical_decision_task_DD_L2,2021.2.3,MacIntel,111.1111111,,,,,,,,,,,0.276,0,,,,,,,,,,,,,,,,,,,,,,,,-0.012222222,-0.405555556,0,0,0,,,,,,,INFANT,LB,m,y,./images/INFANTLB.png,,,,,,,,z,0,0.276,,,,,,,,0,123,123,76,1
,,,,,,,,,,,,,,,,,198781,18,2022-01-29_13h34.55.712,lexical_decision_task_DD_L2,2021.2.3,MacIntel,111.1111111,,,,,,,,,,,0.294,1,,,,,,,,,,,,,,,,,,,,,,,,-0.012222222,-0.405555556,0,0,0,,,,,,,DOUGH,LB,m,y,./images/DOUGHLB.png,,,,,,,,m,1,0.294,,,,,,,,0,124,124,19,1
,,,,,,,,,,,,,,,,,198781,18,2022-01-29_13h34.55.712,lexical_decision_task_DD_L2,2021.2.3,MacIntel,111.1111111,,,,,,,,,,,0.076,1,,,,,,,,,,,,,,,,,,,,,,,,-0.012222222,-0.405555556,0,0,0,space,,,,,,BROOM,HB,z,y,./images/BROOMHB.png,,0.63,,,,,,z,1,0.076,,,,,,,,0,125,125,162,1
,,,,,,,,,,,,,,,,,198781,18,2022-01-29_13h34.55.712,lexical_decision_task_DD_L2,2021.2.3,MacIntel,111.1111111,,,,,,,,,,,0.086,1,,,,,,,,,,,,,,,,,,,,,,,,-0.012222222,-0.405555556,0,0,0,,,,,,,MOOSE,HB,m,y,./images/MOOSEHB.png,,,,,,,,m,1,0.086,,,,,,,,0,126,126,57,1
,,,,,,,,,,,,,,,,,198781,18,2022-01-29_13h34.55.712,lexical_decision_task_DD_L2,2021.2.3,MacIntel,111.1111111,,,,,,,,,,,0.67,1,,,,,,,,,,,,,,,,,,,,,,,,-0.012222222,-0.405555556,0,0,0,,,,,,,MUMMY,LB,z,y,./images/MUMMYLB.png,,,,,,,,z,1,0.67,,,,,,,,0,127,127,130,1
,,,,,,,,,,,,,,,,,198781,18,2022-01-29_13h34.55.712,lexical_decision_task_DD_L2,2021.2.3,MacIntel,111.1111111,,,,,,,,,,,0.308,0,,,,,,,,,,,,,,,,,,,,,,,,-0.012222222,-0.405555556,0,0,0,,,,,,,PACKET,C,m,y,./images/PACKET.png,,,,,,,,z,0,0.308,,,,,,,,0,128,128,56,1
,,,,,,,,,,,,,,,,,198781,18,2022-01-29_13h34.55.712,lexical_decision_task_DD_L2,2021.2.3,MacIntel,111.1111111,,,,,,,,,,,0.079,1,,,,,,,,,,,,,,,,,,,,,,,,-0.012222222,-0.405555556,0,0,0,,,,,,,FLASK,HB,z,y,./images/FLASKHB.png,,,,,,,,z,1,0.079,,,,,,,,0,129,129,156,1
,,,,,,,,,,,,,,,,,198781,18,2022-01-29_13h34.55.712,lexical_decision_task_DD_L2,2021.2.3,MacIntel,111.1111111,,,,,,,,,,,0.192,0,,,,,,,,,,,,,,,,,,,,,,,,-0.012222222,-0.405555556,0,0,0,,,,,,,CHAIN,HB,z,y,./images/CHAINHB.png,,,,,,,,m,0,0.192,,,,,,,,0,130,130,126,1
,,,,,,,,,,,,,,,,,198781,18,2022-01-29_13h34.55.712,lexical_decision_task_DD_L2,2021.2.3,MacIntel,111.1111111,,,,,,,,,,,0,0,,,,,,,,,,,,,,,,,,,,,,,,-0.012222222,-0.405555556,0,0,0,,,,,,,PICKLE,C,m,y,./images/PICKLE.png,,,,,,,,z,0,0,,,,,,,,0,131,131,14,1
,,,,,,,,,,,,,,,,,198781,18,2022-01-29_13h34.55.712,lexical_decision_task_DD_L2,2021.2.3,MacIntel,111.1111111,,,,,,,,,,,0.127,1,,,,,,,,,,,,,,,,,,,,,,,,-0.012222222,-0.405555556,0,0,0,,,,,,,SWING,LB,m,y,./images/SWINGLB.png,,,,,,,,m,1,0.127,,,,,,,,0,132,132,40,1
,,,,,,,,,,,,,,,,,198781,18,2022-01-29_13h34.55.712,lexical_decision_task_DD_L2,2021.2.3,MacIntel,111.1111111,,,,,,,,,,,0.062,1,,,,,,,,,,,,,,,,,,,,,,,,-0.012222222,-0.405555556,0,0,0,,,,,,,DRUMS,LB,m,y,./images/DRUMSLB.png,,,,,,,,m,1,0.062,,,,,,,,0,133,133,49,1
,,,,,,,,,,,,,,,,,198781,18,2022-01-29_13h34.55.712,lexical_decision_task_DD_L2,2021.2.3,MacIntel,111.1111111,,,,,,,,,,,0.127,0,,,,,,,,,,,,,,,,,,,,,,,,-0.012222222,-0.405555556,0,0,0,,,,,,,URINE,LB,m,y,./images/URINELB.png,,,,,,,,z,0,0.127,,,,,,,,0,134,134,70,1
,,,,,,,,,,,,,,,,,198781,18,2022-01-29_13h34.55.712,lexical_decision_task_DD_L2,2021.2.3,MacIntel,111.1111111,,,,,,,,,,,0.175,0,,,,,,,,,,,,,,,,,,,,,,,,-0.012222222,-0.405555556,0,0,0,,,,,,,VALLEY,C,z,y,./images/VALLEY.png,,,,,,,,m,0,0.175,,,,,,,,0,135,135,152,1
,,,,,,,,,,,,,,,,,198781,18,2022-01-29_13h34.55.712,lexical_decision_task_DD_L2,2021.2.3,MacIntel,111.1111111,,,,,,,,,,,0.108,0,,,,,,,,,,,,,,,,,,,,,,,,-0.012222222,-0.405555556,0,0,0,,,,,,,BANNER,LB,m,y,./images/BANNERLB.png,,,,,,,,z,0,0.108,,,,,,,,0,136,136,52,1
,,,,,,,,,,,,,,,,,198781,18,2022-01-29_13h34.55.712,lexical_decision_task_DD_L2,2021.2.3,MacIntel,111.1111111,,,,,,,,,,,0.391,0,,,,,,,,,,,,,,,,,,,,,,,,-0.012222222,-0.405555556,0,0,0,,,,,,,FOLDER,HB,m,y,./images/FOLDERHB.png,,,,,,,,z,0,0.391,,,,,,,,0,137,137,42,1
,,,,,,,,,,,,,,,,,198781,18,2022-01-29_13h34.55.712,lexical_decision_task_DD_L2,2021.2.3,MacIntel,111.1111111,,,,,,,,,,,0.142,1,,,,,,,,,,,,,,,,,,,,,,,,-0.012222222,-0.405555556,0,0,0,,,,,,,PEBBLE,LB,z,y,./images/PEBBLELB.png,,,,,,,,z,1,0.142,,,,,,,,0,138,138,166,1
,,,,,,,,,,,,,,,,,198781,18,2022-01-29_13h34.55.712,lexical_decision_task_DD_L2,2021.2.3,MacIntel,111.1111111,,,,,,,,,,,0.293,0,,,,,,,,,,,,,,,,,,,,,,,,-0.012222222,-0.405555556,0,0,0,,,,,,,STORM,HB,m,y,./images/STORMHB.png,,,,,,,,z,0,0.293,,,,,,,,0,139,139,30,1
,,,,,,,,,,,,,,,,,198781,18,2022-01-29_13h34.55.712,lexical_decision_task_DD_L2,2021.2.3,MacIntel,111.1111111,,,,,,,,,,,0.075,0,,,,,,,,,,,,,,,,,,,,,,,,-0.012222222,-0.405555556,0,0,0,,,,,,,COUCH,C,m,y,./images/COUCH.png,,,,,,,,z,0,0.075,,,,,,,,0,140,140,77,1
,,,,,,,,,,,,,,,,,198781,18,2022-01-29_13h34.55.712,lexical_decision_task_DD_L2,2021.2.3,MacIntel,111.1111111,,,,,,,,,,,0.26,0,,,,,,,,,,,,,,,,,,,,,,,,-0.012222222,-0.405555556,0,0,0,,,,,,,CURRY,HB,z,y,./images/CURRYHB.png,,,,,,,,m,0,0.26,,,,,,,,0,141,141,144,1
,,,,,,,,,,,,,,,,,198781,18,2022-01-29_13h34.55.712,lexical_decision_task_DD_L2,2021.2.3,MacIntel,111.1111111,,,,,,,,,,,0.109,0,,,,,,,,,,,,,,,,,,,,,,,,-0.012222222,-0.405555556,0,0,0,,,,,,,ONION,HB,m,y,./images/ONIONHB.png,,,,,,,,z,0,0.109,,,,,,,,0,142,142,51,1
,,,,,,,,,,,,,,,,,198781,18,2022-01-29_13h34.55.712,lexical_decision_task_DD_L2,2021.2.3,MacIntel,111.1111111,,,,,,,,,,,0.132,1,,,,,,,,,,,,,,,,,,,,,,,,-0.012222222,-0.405555556,0,0,0,,,,,,,LIZARD,C,m,y,./images/LIZARD.png,,,,,,,,m,1,0.132,,,,,,,,0,143,143,44,1
,,,,,,,,,,,,,,,,,198781,18,2022-01-29_13h34.55.712,lexical_decision_task_DD_L2,2021.2.3,MacIntel,111.1111111,,,,,,,,,,,0.196,1,,,,,,,,,,,,,,,,,,,,,,,,-0.012222222,-0.405555556,0,0,0,,,,,,,SAILOR,LB,m,y,./images/SAILORLB.png,,,,,,,,m,1,0.196,,,,,,,,0,144,144,67,1
,,,,,,,,,,,,,,,,,198781,18,2022-01-29_13h34.55.712,lexical_decision_task_DD_L2,2021.2.3,MacIntel,111.1111111,,,,,,,,,,,0.046,0,,,,,,,,,,,,,,,,,,,,,,,,-0.012222222,-0.405555556,0,0,0,,,,,,,DONKEY,LB,z,y,./images/DONKEYLB.png,,,,,,,,m,0,0.046,,,,,,,,0,145,145,103,1
,,,,,,,,,,,,,,,,,198781,18,2022-01-29_13h34.55.712,lexical_decision_task_DD_L2,2021.2.3,MacIntel,111.1111111,,,,,,,,,,,0.293,1,,,,,,,,,,,,,,,,,,,,,,,,-0.012222222,-0.405555556,0,0,0,,,,,,,CANDLE,LB,m,y,./images/CANDLELB.png,,,,,,,,m,1,0.293,,,,,,,,0,146,146,61,1
,,,,,,,,,,,,,,,,,198781,18,2022-01-29_13h34.55.712,lexical_decision_task_DD_L2,2021.2.3,MacIntel,111.1111111,,,,,,,,,,,0.097,0,,,,,,,,,,,,,,,,,,,,,,,,-0.012222222,-0.405555556,0,0,0,,,,,,,RHINO,HB,m,y,./images/RHINOHB.png,,,,,,,,z,0,0.097,,,,,,,,0,147,147,9,1
,,,,,,,,,,,,,,,,,198781,18,2022-01-29_13h34.55.712,lexical_decision_task_DD_L2,2021.2.3,MacIntel,111.1111111,,,,,,,,,,,0.142,1,,,,,,,,,,,,,,,,,,,,,,,,-0.012222222,-0.405555556,0,0,0,,,,,,,SPINE,C,z,y,./images/SPINE.png,,,,,,,,z,1,0.142,,,,,,,,0,148,148,149,1
,,,,,,,,,,,,,,,,,198781,18,2022-01-29_13h34.55.712,lexical_decision_task_DD_L2,2021.2.3,MacIntel,111.1111111,,,,,,,,,,,0.291,0,,,,,,,,,,,,,,,,,,,,,,,,-0.012222222,-0.405555556,0,0,0,,,,,,,COOKER,HB,m,y,./images/COOKERHB.png,,,,,,,,z,0,0.291,,,,,,,,0,149,149,69,1
,,,,,,,,,,,,,,,,,198781,18,2022-01-29_13h34.55.712,lexical_decision_task_DD_L2,2021.2.3,MacIntel,111.1111111,,,,,,,,,,,0.075,0,,,,,,,,,,,,,,,,,,,,,,,,-0.012222222,-0.405555556,0,0,0,,,,,,,RULER,LB,z,y,./images/RULERLB.png,,,,,,,,m,0,0.075,,,,,,,,0,150,150,163,1
,,,,,,,,,,,,,,,,,198781,18,2022-01-29_13h34.55.712,lexical_decision_task_DD_L2,2021.2.3,MacIntel,111.1111111,,,,,,,,,,,0.165,1,,,,,,,,,,,,,,,,,,,,,,,,-0.012222222,-0.405555556,0,0,0,,,,,,,PILOT,C,z,y,./images/PILOT.png,,,,,,,,z,1,0.165,,,,,,,,0,151,151,134,1
,,,,,,,,,,,,,,,,,198781,18,2022-01-29_13h34.55.712,lexical_decision_task_DD_L2,2021.2.3,MacIntel,111.1111111,,,,,,,,,,,0.142,1,,,,,,,,,,,,,,,,,,,,,,,,-0.012222222,-0.405555556,0,0,0,,,,,,,FALCON,LB,m,y,./images/FALCONLB.png,,,,,,,,m,1,0.142,,,,,,,,0,152,152,28,1
,,,,,,,,,,,,,,,,,198781,18,2022-01-29_13h34.55.712,lexical_decision_task_DD_L2,2021.2.3,MacIntel,111.1111111,,,,,,,,,,,0.01,0,,,,,,,,,,,,,,,,,,,,,,,,-0.012222222,-0.405555556,0,0,0,,,,,,,MOTOR,LB,m,y,./images/MOTORLB.png,,,,,,,,z,0,0.01,,,,,,,,0,153,153,13,1
,,,,,,,,,,,,,,,,,198781,18,2022-01-29_13h34.55.712,lexical_decision_task_DD_L2,2021.2.3,MacIntel,111.1111111,,,,,,,,,,,0.043,0,,,,,,,,,,,,,,,,,,,,,,,,-0.012222222,-0.405555556,0,0,0,,,,,,,GLOVE,LB,z,y,./images/GLOVELB.png,,,,,,,,m,0,0.043,,,,,,,,0,154,154,157,1
,,,,,,,,,,,,,,,,,198781,18,2022-01-29_13h34.55.712,lexical_decision_task_DD_L2,2021.2.3,MacIntel,111.1111111,,,,,,,,,,,0.075,0,,,,,,,,,,,,,,,,,,,,,,,,-0.012222222,-0.405555556,0,0,0,,,,,,,MALLET,C,m,y,./images/MALLET.png,,,,,,,,z,0,0.075,,,,,,,,0,155,155,50,1
,,,,,,,,,,,,,,,,,198781,18,2022-01-29_13h34.55.712,lexical_decision_task_DD_L2,2021.2.3,MacIntel,111.1111111,,,,,,,,,,,0.001,0,,,,,,,,,,,,,,,,,,,,,,,,-0.012222222,-0.405555556,0,0,0,,,,,,,DRILL,HB,z,y,./images/DRILLHB.png,,,,,,,,m,0,0.001,,,,,,,,0,156,156,165,1
,,,,,,,,,,,,,,,,,198781,18,2022-01-29_13h34.55.712,lexical_decision_task_DD_L2,2021.2.3,MacIntel,111.1111111,,,,,,,,,,,0.093,0,,,,,,,,,,,,,,,,,,,,,,,,-0.012222222,-0.405555556,0,0,0,,,,,,,CARPET,C,m,y,./images/CARPET.png,,,,,,,,z,0,0.093,,,,,,,,0,157,157,53,1
,,,,,,,,,,,,,,,,,198781,18,2022-01-29_13h34.55.712,lexical_decision_task_DD_L2,2021.2.3,MacIntel,111.1111111,,,,,,,,,,,0.063,1,,,,,,,,,,,,,,,,,,,,,,,,-0.012222222,-0.405555556,0,0,0,,,,,,,NOOSE,HB,m,y,./images/NOOSEHB.png,,,,,,,,m,1,0.063,,,,,,,,0,158,158,72,1
,,,,,,,,,,,,,,,,,198781,18,2022-01-29_13h34.55.712,lexical_decision_task_DD_L2,2021.2.3,MacIntel,111.1111111,,,,,,,,,,,0.109,0,,,,,,,,,,,,,,,,,,,,,,,,-0.012222222,-0.405555556,0,0,0,,,,,,,SQUARE,HB,m,y,./images/SQUAREHB.png,,,,,,,,z,0,0.109,,,,,,,,0,159,159,6,1
,,,,,,,,,,,,,,,,,198781,18,2022-01-29_13h34.55.712,lexical_decision_task_DD_L2,2021.2.3,MacIntel,111.1111111,,,,,,,,,,,0.142,1,,,,,,,,,,,,,,,,,,,,,,,,-0.012222222,-0.405555556,0,0,0,,,,,,,SLOPE,HB,z,y,./images/SLOPEHB.png,,,,,,,,z,1,0.142,,,,,,,,0,160,160,114,1
,,,,,,,,,,,,,,,,,198781,18,2022-01-29_13h34.55.712,lexical_decision_task_DD_L2,2021.2.3,MacIntel,111.1111111,,,,,,,,,,,0.176,0,,,,,,,,,,,,,,,,,,,,,,,,-0.012222222,-0.405555556,0,0,0,,,,,,,MIRROR,HB,m,y,./images/MIRRORHB.png,,,,,,,,z,0,0.176,,,,,,,,0,161,161,63,1
,,,,,,,,,,,,,,,,,198781,18,2022-01-29_13h34.55.712,lexical_decision_task_DD_L2,2021.2.3,MacIntel,111.1111111,,,,,,,,,,,0.043,1,,,,,,,,,,,,,,,,,,,,,,,,-0.012222222,-0.405555556,0,0,0,,,,,,,LADDER,C,m,y,./images/LADDER.png,,,,,,,,m,1,0.043,,,,,,,,0,162,162,38,1
,,,,,,,,,,,,,,,,,198781,18,2022-01-29_13h34.55.712,lexical_decision_task_DD_L2,2021.2.3,MacIntel,111.1111111,,,,,,,,,,,0.175,0,,,,,,,,,,,,,,,,,,,,,,,,-0.012222222,-0.405555556,0,0,0,,,,,,,LITTER,HB,m,y,./images/LITTERHB.png,,,,,,,,z,0,0.175,,,,,,,,0,163,163,78,1
,,,,,,,,,,,,,,,,,198781,18,2022-01-29_13h34.55.712,lexical_decision_task_DD_L2,2021.2.3,MacIntel,111.1111111,,,,,,,,,,,0.001,0,,,,,,,,,,,,,,,,,,,,,,,,-0.012222222,-0.405555556,0,0,0,,,,,,,ARTIST,LB,z,y,./images/ARTISTLB.png,,,,,,,,m,0,0.001,,,,,,,,0,164,164,145,1
,,,,,,,,,,,,,,,,,198781,18,2022-01-29_13h34.55.712,lexical_decision_task_DD_L2,2021.2.3,MacIntel,111.1111111,,,,,,,,,,,0.011,1,,,,,,,,,,,,,,,,,,,,,,,,-0.012222222,-0.405555556,0,0,0,,,,,,,LLAMA,C,z,y,./images/LLAMA.png,,,,,,,,z,1,0.011,,,,,,,,0,165,165,119,1
,,,,,,,,,,,,,,,,,198781,18,2022-01-29_13h34.55.712,lexical_decision_task_DD_L2,2021.2.3,MacIntel,111.1111111,,,,,,,,,,,0.678,1,,,,,,,,,,,,,,,,,,,,,,,,-0.012222222,-0.405555556,0,0,0,,,,,,,TWINS,HB,m,y,./images/TWINSHB.png,,,,,,,,m,1,0.678,,,,,,,,0,166,166,60,1
,,,,,,,,,,,,,,,,,198781,18,2022-01-29_13h34.55.712,lexical_decision_task_DD_L2,2021.2.3,MacIntel,111.1111111,,,,,,,,,,,1.009,1,,,,,,,,,,,,,,,,,,,,,,,,-0.012222222,-0.405555556,0,0,0,,,,,,,RAZOR,LB,z,y,./images/RAZORLB.png,,,,,,,,z,1,1.009,,,,,,,,0,167,167,118,1
