key_resp.keys,key_resp.rt,instr_done_touch.x,instr_done_touch.y,instr_done_touch.leftButton,instr_done_touch.midButton,instr_done_touch.rightButton,instruction_pages.thisRepN,instruction_pages.thisTrialN,instruction_pages.thisN,instruction_pages.thisIndex,instruction_pages.ran,pageN,phase,instruct_text,has_image,instruct_image,participant,age,date,expName,psychopyVersion,OS,frameRate,response.keys,response.corr,response.rt,touch_resp.x,touch_resp.y,touch_resp.leftButton,touch_resp.midButton,touch_resp.rightButton,touch_resp.time,touch_resp.clicked_name,rt,corr,practrials.thisRepN,practrials.thisTrialN,practrials.thisN,practrials.thisIndex,practrials.ran,TrialID,Target,corrAns,end_of_practice_trials_pages.thisRepN,end_of_practice_trials_pages.thisTrialN,end_of_practice_trials_pages.thisN,end_of_practice_trials_pages.thisIndex,end_of_practice_trials_pages.ran,key_resp_2.keys,key_resp_2.corr,key_resp_2.rt,targ_click.x,targ_click.y,targ_click.leftButton,targ_click.midButton,targ_click.rightButton,targ_click.time,targ_click.clicked_name,break_done_touch.x,break_done_touch.y,break_done_touch.leftButton,break_done_touch.midButton,break_done_touch.rightButton,break_done_keyboard.keys,maintrials.thisRepN,maintrials.thisTrialN,maintrials.thisN,maintrials.thisIndex,maintrials.ran,string,blur,study,lex,stim_path,break_done_keyboard.rt,test_instructions.thisRepN,test_instructions.thisTrialN,test_instructions.thisN,test_instructions.thisIndex,test_instructions.ran,instr_done_touch.clicked_name,key_resp_3.keys,key_resp_3.corr,key_resp_3.rt,test_click.x,test_click.y,test_click.leftButton,test_click.midButton,test_click.rightButton,test_click.time,test_click.clicked_name,test_phase.thisRepN,test_phase.thisTrialN,test_phase.thisN,test_phase.thisIndex,test_phase.ran
space,44.4054,0.259259276,-0.309259271,0,0,0,0,0,0,0,1,1,instructions,"INSTRUCTIONS
At the start of each trial, look at the plus sign  (+) in the center of the screen.  This tells you that a trial is about to begin and where to look. Second, the plus sign will disappear and a string of letters will appear. Your task is to determine if the string of letters is a word or not. If the item is a word press the M key (on keyboard)  or touch the word button (phone/tablet).  If the item is not a word,  press the  Z key (on keyboard)  or touch the nonword button (on phone/tablet). 
Press the space bar or touch  continue.",0,,198790,19,2022-01-28_16h42.47.029,lexical_decision_task_DD_L2,2021.2.3,Win32,59.73002031,,,,,,,,,,,,,,,,,,,,,,,,,,,,,,,,,,,,,,,,,,,,,,,,,,,,,,,,,,,,,,,,,,,,,,,,,
space,4.6401,0.259259276,-0.309259271,0,0,0,0,1,1,1,1,2,instructions,"If your device has a keyboard, press the 'Z' key for nonwords and the 'M' key for words.





Press the space bar or touch the button below to continue.",0,keyboard-example.gif,198790,19,2022-01-28_16h42.47.029,lexical_decision_task_DD_L2,2021.2.3,Win32,59.73002031,,,,,,,,,,,,,,,,,,,,,,,,,,,,,,,,,,,,,,,,,,,,,,,,,,,,,,,,,,,,,,,,,,,,,,,,,
space,4.3082,0.259259276,-0.309259271,0,0,0,0,2,2,2,1,3,instructions,"If you are using a touchscreen only device, use the buttons on the screen. Do not use the mouse.





Press the space bar or touch the button below to continue.",0,touchscreen-example.gif,198790,19,2022-01-28_16h42.47.029,lexical_decision_task_DD_L2,2021.2.3,Win32,59.73002031,,,,,,,,,,,,,,,,,,,,,,,,,,,,,,,,,,,,,,,,,,,,,,,,,,,,,,,,,,,,,,,,,,,,,,,,,
space,33.6049,0.259259276,-0.309259271,0,0,0,0,3,3,3,1,4,instructions,"It is very important that you respond as quickly and accurately as possible, as each letter string will only be on the screen for two seconds. If you do not respond within this time, the message 'Too slow!' will be displayed and the experiment will progress to the next letter string. The first 20 trials will be practice trials and you will receive feedback on your answers. 

Press the space bar or touch the button below to start the practice trials.",0,,198790,19,2022-01-28_16h42.47.029,lexical_decision_task_DD_L2,2021.2.3,Win32,59.73002031,,,,,,,,,,,,,,,,,,,,,,,,,,,,,,,,,,,,,,,,,,,,,,,,,,,,,,,,,,,,,,,,,,,,,,,,,
,,,,,,,,,,,,,,,,,198790,19,2022-01-28_16h42.47.029,lexical_decision_task_DD_L2,2021.2.3,Win32,59.73002031,z,1,1.595900001,,,,,,,,1.595900001,1,0,0,0,13,1,1001,ROUPET,z,,,,,,,,,,,,,,,,,,,,,,,,,,,,,,,,,,,,,,,,,,,,,,,,,,,,,
,,,,,,,,,,,,,,,,,198790,19,2022-01-28_16h42.47.029,lexical_decision_task_DD_L2,2021.2.3,Win32,59.73002031,m,1,0.9582,,,,,,,,0.9582,1,0,1,1,3,1,1001,MATRIX,m,,,,,,,,,,,,,,,,,,,,,,,,,,,,,,,,,,,,,,,,,,,,,,,,,,,,,
,,,,,,,,,,,,,,,,,198790,19,2022-01-28_16h42.47.029,lexical_decision_task_DD_L2,2021.2.3,Win32,59.73002031,z,1,0.779299999,,,,,,,,0.779299999,1,0,2,2,8,1,1001,ASLERT,z,,,,,,,,,,,,,,,,,,,,,,,,,,,,,,,,,,,,,,,,,,,,,,,,,,,,,
,,,,,,,,,,,,,,,,,198790,19,2022-01-28_16h42.47.029,lexical_decision_task_DD_L2,2021.2.3,Win32,59.73002031,m,1,0.6446,,,,,,,,0.6446,1,0,3,3,7,1,1001,VOLUME,m,,,,,,,,,,,,,,,,,,,,,,,,,,,,,,,,,,,,,,,,,,,,,,,,,,,,,
,,,,,,,,,,,,,,,,,198790,19,2022-01-28_16h42.47.029,lexical_decision_task_DD_L2,2021.2.3,Win32,59.73002031,z,1,0.6548,,,,,,,,0.6548,1,0,4,4,10,1,1001,INLADE,z,,,,,,,,,,,,,,,,,,,,,,,,,,,,,,,,,,,,,,,,,,,,,,,,,,,,,
,,,,,,,,,,,,,,,,,198790,19,2022-01-28_16h42.47.029,lexical_decision_task_DD_L2,2021.2.3,Win32,59.73002031,m,1,0.7079,,,,,,,,0.7079,1,0,5,5,6,1,1001,ZOMBIE,m,,,,,,,,,,,,,,,,,,,,,,,,,,,,,,,,,,,,,,,,,,,,,,,,,,,,,
,,,,,,,,,,,,,,,,,198790,19,2022-01-28_16h42.47.029,lexical_decision_task_DD_L2,2021.2.3,Win32,59.73002031,z,1,0.5818,,,,,,,,0.5818,1,0,6,6,12,1,1001,SPRINY,z,,,,,,,,,,,,,,,,,,,,,,,,,,,,,,,,,,,,,,,,,,,,,,,,,,,,,
,,,,,,,,,,,,,,,,,198790,19,2022-01-28_16h42.47.029,lexical_decision_task_DD_L2,2021.2.3,Win32,59.73002031,z,1,0.6116,,,,,,,,0.6116,1,0,7,7,9,1,1001,FARINY,z,,,,,,,,,,,,,,,,,,,,,,,,,,,,,,,,,,,,,,,,,,,,,,,,,,,,,
,,,,,,,,,,,,,,,,,198790,19,2022-01-28_16h42.47.029,lexical_decision_task_DD_L2,2021.2.3,Win32,59.73002031,z,1,0.7088,,,,,,,,0.7088,1,0,8,8,14,1,1001,THRALE,z,,,,,,,,,,,,,,,,,,,,,,,,,,,,,,,,,,,,,,,,,,,,,,,,,,,,,
,,,,,,,,,,,,,,,,,198790,19,2022-01-28_16h42.47.029,lexical_decision_task_DD_L2,2021.2.3,Win32,59.73002031,m,1,0.6159,,,,,,,,0.6159,1,0,9,9,2,1,1001,ALMOND,m,,,,,,,,,,,,,,,,,,,,,,,,,,,,,,,,,,,,,,,,,,,,,,,,,,,,,
,,,,,,,,,,,,,,,,,198790,19,2022-01-28_16h42.47.029,lexical_decision_task_DD_L2,2021.2.3,Win32,59.73002031,m,1,0.6359,,,,,,,,0.6359,1,0,10,10,0,1,1001,UTOPIA,m,,,,,,,,,,,,,,,,,,,,,,,,,,,,,,,,,,,,,,,,,,,,,,,,,,,,,
,,,,,,,,,,,,,,,,,198790,19,2022-01-28_16h42.47.029,lexical_decision_task_DD_L2,2021.2.3,Win32,59.73002031,m,1,0.6365,,,,,,,,0.6365,1,0,11,11,1,1,1001,ADJUST,m,,,,,,,,,,,,,,,,,,,,,,,,,,,,,,,,,,,,,,,,,,,,,,,,,,,,,
,,,,,,,,,,,,,,,,,198790,19,2022-01-28_16h42.47.029,lexical_decision_task_DD_L2,2021.2.3,Win32,59.73002031,z,0,0.5655,,,,,,,,0.5655,0,0,12,12,4,1,1001,SQUEAK,m,,,,,,,,,,,,,,,,,,,,,,,,,,,,,,,,,,,,,,,,,,,,,,,,,,,,,
,,,,,,,,,,,,,,,,,198790,19,2022-01-28_16h42.47.029,lexical_decision_task_DD_L2,2021.2.3,Win32,59.73002031,z,1,0.6782,,,,,,,,0.6782,1,0,13,13,11,1,1001,RASHET,z,,,,,,,,,,,,,,,,,,,,,,,,,,,,,,,,,,,,,,,,,,,,,,,,,,,,,
,,,,,,,,,,,,,,,,,198790,19,2022-01-28_16h42.47.029,lexical_decision_task_DD_L2,2021.2.3,Win32,59.73002031,m,1,0.726400001,,,,,,,,0.726400001,1,0,14,14,5,1,1001,OBTAIN,m,,,,,,,,,,,,,,,,,,,,,,,,,,,,,,,,,,,,,,,,,,,,,,,,,,,,,
,,,,,,,,,,,,,,,,,198790,19,2022-01-28_16h42.47.029,lexical_decision_task_DD_L2,2021.2.3,Win32,59.73002031,z,1,0.7073,,,,,,,,0.7073,1,0,15,15,15,1,1001,WHAISE,z,,,,,,,,,,,,,,,,,,,,,,,,,,,,,,,,,,,,,,,,,,,,,,,,,,,,,
space,25.4776,0.259259276,-0.309259271,0,0,0,,,,,,1,end_of_practice,"You have completed the practice trials. During the experimental trials, you will not receive feedback. 
Before you begin, please ensure that you are in a comfortable and quiet location and will not be disturbed for about 15 minutes, as we cannot use your data if you do not complete all the trials. 
 When you are ready to start the experimental trials, please press space or touch the button below.",,,198790,19,2022-01-28_16h42.47.029,lexical_decision_task_DD_L2,2021.2.3,Win32,59.73002031,,,,,,,,,,,,,,,,,,,,,0,0,0,0,1,,,,,,,,,,,,,,,,,,,,,,,,,,,,,,,,,,,,,,,,,,,,,,,,
,,,,,,,,,,,,,,,,,198790,19,2022-01-28_16h42.47.029,lexical_decision_task_DD_L2,2021.2.3,Win32,59.73002031,,,,,,,,,,,0.659099999,1,,,,,,,,,,,,,,m,1,0.659099999,,,,,,,,0.259259276,-0.309259271,0,0,0,,0,0,0,73,1,SNACK,LB,old,m,./images/SNACKLB.png,,,,,,,,,,,,,,,,,,,,,,
,,,,,,,,,,,,,,,,,198790,19,2022-01-28_16h42.47.029,lexical_decision_task_DD_L2,2021.2.3,Win32,59.73002031,,,,,,,,,,,0.581,1,,,,,,,,,,,,,,m,1,0.581,,,,,,,,0.259259276,-0.309259271,0,0,0,,0,1,1,44,1,LIZARD,C,old,m,./images/LIZARD.png,,,,,,,,,,,,,,,,,,,,,,
,,,,,,,,,,,,,,,,,198790,19,2022-01-28_16h42.47.029,lexical_decision_task_DD_L2,2021.2.3,Win32,59.73002031,,,,,,,,,,,0.6191,1,,,,,,,,,,,,,,m,1,0.6191,,,,,,,,0.259259276,-0.309259271,0,0,0,,0,2,2,51,1,ONION,HB,old,m,./images/ONIONHB.png,,,,,,,,,,,,,,,,,,,,,,
,,,,,,,,,,,,,,,,,198790,19,2022-01-28_16h42.47.029,lexical_decision_task_DD_L2,2021.2.3,Win32,59.73002031,,,,,,,,,,,0.5398,1,,,,,,,,,,,,,,m,1,0.5398,,,,,,,,0.259259276,-0.309259271,0,0,0,,0,3,3,76,1,INFANT,LB,old,m,./images/INFANTLB.png,,,,,,,,,,,,,,,,,,,,,,
,,,,,,,,,,,,,,,,,198790,19,2022-01-28_16h42.47.029,lexical_decision_task_DD_L2,2021.2.3,Win32,59.73002031,,,,,,,,,,,0.7982,0,,,,,,,,,,,,,,z,0,0.7982,,,,,,,,0.259259276,-0.309259271,0,0,0,,0,4,4,33,1,MAGGOT,HB,old,m,./images/MAGGOTHB.png,,,,,,,,,,,,,,,,,,,,,,
,,,,,,,,,,,,,,,,,198790,19,2022-01-28_16h42.47.029,lexical_decision_task_DD_L2,2021.2.3,Win32,59.73002031,,,,,,,,,,,0.693299999,1,,,,,,,,,,,,,,z,1,0.693299999,,,,,,,,0.259259276,-0.309259271,0,0,0,,0,5,5,147,1,ZOLES,C,old,z,./images/ZOLES.png,,,,,,,,,,,,,,,,,,,,,,
,,,,,,,,,,,,,,,,,198790,19,2022-01-28_16h42.47.029,lexical_decision_task_DD_L2,2021.2.3,Win32,59.73002031,,,,,,,,,,,0.681,1,,,,,,,,,,,,,,m,1,0.681,,,,,,,,0.259259276,-0.309259271,0,0,0,,0,6,6,54,1,TRIPOD,HB,old,m,./images/TRIPODHB.png,,,,,,,,,,,,,,,,,,,,,,
,,,,,,,,,,,,,,,,,198790,19,2022-01-28_16h42.47.029,lexical_decision_task_DD_L2,2021.2.3,Win32,59.73002031,,,,,,,,,,,0.739200001,1,,,,,,,,,,,,,,z,1,0.739200001,,,,,,,,0.259259276,-0.309259271,0,0,0,,0,7,7,87,1,TRING,C,old,z,./images/TRING.png,,,,,,,,,,,,,,,,,,,,,,
,,,,,,,,,,,,,,,,,198790,19,2022-01-28_16h42.47.029,lexical_decision_task_DD_L2,2021.2.3,Win32,59.73002031,,,,,,,,,,,0.6497,1,,,,,,,,,,,,,,m,1,0.6497,,,,,,,,0.259259276,-0.309259271,0,0,0,,0,8,8,52,1,BANNER,LB,old,m,./images/BANNERLB.png,,,,,,,,,,,,,,,,,,,,,,
,,,,,,,,,,,,,,,,,198790,19,2022-01-28_16h42.47.029,lexical_decision_task_DD_L2,2021.2.3,Win32,59.73002031,,,,,,,,,,,0.8615,1,,,,,,,,,,,,,,m,1,0.8615,,,,,,,,0.259259276,-0.309259271,0,0,0,,0,9,9,8,1,TULIP,C,old,m,./images/TULIP.png,,,,,,,,,,,,,,,,,,,,,,
,,,,,,,,,,,,,,,,,198790,19,2022-01-28_16h42.47.029,lexical_decision_task_DD_L2,2021.2.3,Win32,59.73002031,,,,,,,,,,,0.637,1,,,,,,,,,,,,,,m,1,0.637,,,,,,,,0.259259276,-0.309259271,0,0,0,,0,10,10,36,1,THROAT,HB,old,m,./images/THROATHB.png,,,,,,,,,,,,,,,,,,,,,,
,,,,,,,,,,,,,,,,,198790,19,2022-01-28_16h42.47.029,lexical_decision_task_DD_L2,2021.2.3,Win32,59.73002031,,,,,,,,,,,0.6105,1,,,,,,,,,,,,,,m,1,0.6105,,,,,,,,0.259259276,-0.309259271,0,0,0,,0,11,11,21,1,KIDNEY,HB,old,m,./images/KIDNEYHB.png,,,,,,,,,,,,,,,,,,,,,,
,,,,,,,,,,,,,,,,,198790,19,2022-01-28_16h42.47.029,lexical_decision_task_DD_L2,2021.2.3,Win32,59.73002031,,,,,,,,,,,0.6059,1,,,,,,,,,,,,,,m,1,0.6059,,,,,,,,0.259259276,-0.309259271,0,0,0,,0,12,12,39,1,SHELF,HB,old,m,./images/SHELFHB.png,,,,,,,,,,,,,,,,,,,,,,
,,,,,,,,,,,,,,,,,198790,19,2022-01-28_16h42.47.029,lexical_decision_task_DD_L2,2021.2.3,Win32,59.73002031,,,,,,,,,,,0.5527,1,,,,,,,,,,,,,,m,1,0.5527,,,,,,,,0.259259276,-0.309259271,0,0,0,,0,13,13,31,1,QUILL,LB,old,m,./images/QUILLLB.png,,,,,,,,,,,,,,,,,,,,,,
,,,,,,,,,,,,,,,,,198790,19,2022-01-28_16h42.47.029,lexical_decision_task_DD_L2,2021.2.3,Win32,59.73002031,,,,,,,,,,,0.4806,1,,,,,,,,,,,,,,m,1,0.4806,,,,,,,,0.259259276,-0.309259271,0,0,0,,0,14,14,5,1,PASTA,C,old,m,./images/PASTA.png,,,,,,,,,,,,,,,,,,,,,,
,,,,,,,,,,,,,,,,,198790,19,2022-01-28_16h42.47.029,lexical_decision_task_DD_L2,2021.2.3,Win32,59.73002031,,,,,,,,,,,0.815900001,1,,,,,,,,,,,,,,z,1,0.815900001,,,,,,,,0.259259276,-0.309259271,0,0,0,,0,15,15,118,1,BAVEL,HB,old,z,./images/BAVELHB.png,,,,,,,,,,,,,,,,,,,,,,
,,,,,,,,,,,,,,,,,198790,19,2022-01-28_16h42.47.029,lexical_decision_task_DD_L2,2021.2.3,Win32,59.73002031,,,,,,,,,,,0.706,1,,,,,,,,,,,,,,z,1,0.706,,,,,,,,0.259259276,-0.309259271,0,0,0,,0,16,16,146,1,MOOST,LB,old,z,./images/MOOSTLB.png,,,,,,,,,,,,,,,,,,,,,,
,,,,,,,,,,,,,,,,,198790,19,2022-01-28_16h42.47.029,lexical_decision_task_DD_L2,2021.2.3,Win32,59.73002031,,,,,,,,,,,0.8245,1,,,,,,,,,,,,,,z,1,0.8245,,,,,,,,0.259259276,-0.309259271,0,0,0,,0,17,17,112,1,MYING,HB,old,z,./images/MYINGHB.png,,,,,,,,,,,,,,,,,,,,,,
,,,,,,,,,,,,,,,,,198790,19,2022-01-28_16h42.47.029,lexical_decision_task_DD_L2,2021.2.3,Win32,59.73002031,,,,,,,,,,,0.9271,1,,,,,,,,,,,,,,z,1,0.9271,,,,,,,,0.259259276,-0.309259271,0,0,0,,0,18,18,94,1,BLANS,HB,old,z,./images/BLANSHB.png,,,,,,,,,,,,,,,,,,,,,,
,,,,,,,,,,,,,,,,,198790,19,2022-01-28_16h42.47.029,lexical_decision_task_DD_L2,2021.2.3,Win32,59.73002031,,,,,,,,,,,0.8377,1,,,,,,,,,,,,,,z,1,0.8377,,,,,,,,0.259259276,-0.309259271,0,0,0,,0,19,19,127,1,NINDY,HB,old,z,./images/NINDYHB.png,,,,,,,,,,,,,,,,,,,,,,
,,,,,,,,,,,,,,,,,198790,19,2022-01-28_16h42.47.029,lexical_decision_task_DD_L2,2021.2.3,Win32,59.73002031,,,,,,,,,,,0.9665,1,,,,,,,,,,,,,,m,1,0.9665,,,,,,,,0.259259276,-0.309259271,0,0,0,,0,20,20,17,1,SKIING,C,old,m,./images/SKIING.png,,,,,,,,,,,,,,,,,,,,,,
,,,,,,,,,,,,,,,,,198790,19,2022-01-28_16h42.47.029,lexical_decision_task_DD_L2,2021.2.3,Win32,59.73002031,,,,,,,,,,,0.6135,1,,,,,,,,,,,,,,z,1,0.6135,,,,,,,,0.259259276,-0.309259271,0,0,0,,0,21,21,123,1,SEDGE,C,old,z,./images/SEDGE.png,,,,,,,,,,,,,,,,,,,,,,
,,,,,,,,,,,,,,,,,198790,19,2022-01-28_16h42.47.029,lexical_decision_task_DD_L2,2021.2.3,Win32,59.73002031,,,,,,,,,,,0.7978,1,,,,,,,,,,,,,,z,1,0.7978,,,,,,,,0.259259276,-0.309259271,0,0,0,,0,22,22,116,1,BALGY,LB,old,z,./images/BALGYLB.png,,,,,,,,,,,,,,,,,,,,,,
,,,,,,,,,,,,,,,,,198790,19,2022-01-28_16h42.47.029,lexical_decision_task_DD_L2,2021.2.3,Win32,59.73002031,,,,,,,,,,,0.6525,1,,,,,,,,,,,,,,m,1,0.6525,,,,,,,,0.259259276,-0.309259271,0,0,0,,0,23,23,71,1,PIMPLE,C,old,m,./images/PIMPLE.png,,,,,,,,,,,,,,,,,,,,,,
,,,,,,,,,,,,,,,,,198790,19,2022-01-28_16h42.47.029,lexical_decision_task_DD_L2,2021.2.3,Win32,59.73002031,,,,,,,,,,,0.5459,1,,,,,,,,,,,,,,m,1,0.5459,,,,,,,,0.259259276,-0.309259271,0,0,0,,0,24,24,41,1,STRING,C,old,m,./images/STRING.png,,,,,,,,,,,,,,,,,,,,,,
,,,,,,,,,,,,,,,,,198790,19,2022-01-28_16h42.47.029,lexical_decision_task_DD_L2,2021.2.3,Win32,59.73002031,,,,,,,,,,,1.0027,1,,,,,,,,,,,,,,z,1,1.0027,,,,,,,,0.259259276,-0.309259271,0,0,0,,0,25,25,136,1,WERVE,HB,old,z,./images/WERVEHB.png,,,,,,,,,,,,,,,,,,,,,,
,,,,,,,,,,,,,,,,,198790,19,2022-01-28_16h42.47.029,lexical_decision_task_DD_L2,2021.2.3,Win32,59.73002031,,,,,,,,,,,0.6525,1,,,,,,,,,,,,,,z,1,0.6525,,,,,,,,0.259259276,-0.309259271,0,0,0,,0,26,26,90,1,NEAST,C,old,z,./images/NEAST.png,,,,,,,,,,,,,,,,,,,,,,
,,,,,,,,,,,,,,,,,198790,19,2022-01-28_16h42.47.029,lexical_decision_task_DD_L2,2021.2.3,Win32,59.73002031,,,,,,,,,,,0.6842,1,,,,,,,,,,,,,,z,1,0.6842,,,,,,,,0.259259276,-0.309259271,0,0,0,,0,27,27,101,1,GLEET,LB,old,z,./images/GLEETLB.png,,,,,,,,,,,,,,,,,,,,,,
,,,,,,,,,,,,,,,,,198790,19,2022-01-28_16h42.47.029,lexical_decision_task_DD_L2,2021.2.3,Win32,59.73002031,,,,,,,,,,,0.5868,1,,,,,,,,,,,,,,z,1,0.5868,,,,,,,,0.259259276,-0.309259271,0,0,0,,0,28,28,125,1,MOOKY,LB,old,z,./images/MOOKYLB.png,,,,,,,,,,,,,,,,,,,,,,
,,,,,,,,,,,,,,,,,198790,19,2022-01-28_16h42.47.029,lexical_decision_task_DD_L2,2021.2.3,Win32,59.73002031,,,,,,,,,,,0.563700001,1,,,,,,,,,,,,,,m,1,0.563700001,,,,,,,,0.259259276,-0.309259271,0,0,0,,0,29,29,48,1,SPORT,HB,old,m,./images/SPORTHB.png,,,,,,,,,,,,,,,,,,,,,,
,,,,,,,,,,,,,,,,,198790,19,2022-01-28_16h42.47.029,lexical_decision_task_DD_L2,2021.2.3,Win32,59.73002031,,,,,,,,,,,0.538200001,1,,,,,,,,,,,,,,m,1,0.538200001,,,,,,,,0.259259276,-0.309259271,0,0,0,,0,30,30,37,1,BIRTH,LB,old,m,./images/BIRTHLB.png,,,,,,,,,,,,,,,,,,,,,,
,,,,,,,,,,,,,,,,,198790,19,2022-01-28_16h42.47.029,lexical_decision_task_DD_L2,2021.2.3,Win32,59.73002031,,,,,,,,,,,0.5922,1,,,,,,,,,,,,,,m,1,0.5922,,,,,,,,0.259259276,-0.309259271,0,0,0,,0,31,31,49,1,DRUMS,LB,old,m,./images/DRUMSLB.png,,,,,,,,,,,,,,,,,,,,,,
,,,,,,,,,,,,,,,,,198790,19,2022-01-28_16h42.47.029,lexical_decision_task_DD_L2,2021.2.3,Win32,59.73002031,,,,,,,,,,,0.5402,1,,,,,,,,,,,,,,m,1,0.5402,,,,,,,,0.259259276,-0.309259271,0,0,0,,0,32,32,40,1,SWING,LB,old,m,./images/SWINGLB.png,,,,,,,,,,,,,,,,,,,,,,
,,,,,,,,,,,,,,,,,198790,19,2022-01-28_16h42.47.029,lexical_decision_task_DD_L2,2021.2.3,Win32,59.73002031,,,,,,,,,,,0.5603,1,,,,,,,,,,,,,,m,1,0.5603,,,,,,,,0.259259276,-0.309259271,0,0,0,,0,33,33,13,1,MOTOR,LB,old,m,./images/MOTORLB.png,,,,,,,,,,,,,,,,,,,,,,
,,,,,,,,,,,,,,,,,198790,19,2022-01-28_16h42.47.029,lexical_decision_task_DD_L2,2021.2.3,Win32,59.73002031,,,,,,,,,,,0.74,1,,,,,,,,,,,,,,z,1,0.74,,,,,,,,0.259259276,-0.309259271,0,0,0,,0,34,34,150,1,NOOLS,C,old,z,./images/NOOLS.png,,,,,,,,,,,,,,,,,,,,,,
,,,,,,,,,,,,,,,,,198790,19,2022-01-28_16h42.47.029,lexical_decision_task_DD_L2,2021.2.3,Win32,59.73002031,,,,,,,,,,,0.5794,1,,,,,,,,,,,,,,m,1,0.5794,,,,,,,,0.259259276,-0.309259271,0,0,0,,0,35,35,75,1,GRAIN,HB,old,m,./images/GRAINHB.png,,,,,,,,,,,,,,,,,,,,,,
,,,,,,,,,,,,,,,,,198790,19,2022-01-28_16h42.47.029,lexical_decision_task_DD_L2,2021.2.3,Win32,59.73002031,,,,,,,,,,,0.619700001,1,,,,,,,,,,,,,,m,1,0.619700001,,,,,,,,0.259259276,-0.309259271,0,0,0,,0,36,36,83,1,JUNGLE,C,old,m,./images/JUNGLE.png,,,,,,,,,,,,,,,,,,,,,,
,,,,,,,,,,,,,,,,,198790,19,2022-01-28_16h42.47.029,lexical_decision_task_DD_L2,2021.2.3,Win32,59.73002031,,,,,,,,,,,0.646,1,,,,,,,,,,,,,,z,1,0.646,,,,,,,,0.259259276,-0.309259271,0,0,0,,0,37,37,131,1,NACES,LB,old,z,./images/NACESLB.png,,,,,,,,,,,,,,,,,,,,,,
,,,,,,,,,,,,,,,,,198790,19,2022-01-28_16h42.47.029,lexical_decision_task_DD_L2,2021.2.3,Win32,59.73002031,,,,,,,,,,,0.6257,1,,,,,,,,,,,,,,z,1,0.6257,,,,,,,,0.259259276,-0.309259271,0,0,0,,0,38,38,89,1,DRIEK,LB,old,z,./images/DRIEKLB.png,,,,,,,,,,,,,,,,,,,,,,
,,,,,,,,,,,,,,,,,198790,19,2022-01-28_16h42.47.029,lexical_decision_task_DD_L2,2021.2.3,Win32,59.73002031,,,,,,,,,,,0.5799,1,,,,,,,,,,,,,,m,1,0.5799,,,,,,,,0.259259276,-0.309259271,0,0,0,,0,39,39,30,1,STORM,HB,old,m,./images/STORMHB.png,,,,,,,,,,,,,,,,,,,,,,
,,,,,,,,,,,,,,,,,198790,19,2022-01-28_16h42.47.029,lexical_decision_task_DD_L2,2021.2.3,Win32,59.73002031,,,,,,,,,,,0.7144,1,,,,,,,,,,,,,,m,1,0.7144,,,,,,,,0.259259276,-0.309259271,0,0,0,,0,40,40,6,1,SQUARE,HB,old,m,./images/SQUAREHB.png,,,,,,,,,,,,,,,,,,,,,,
,,,,,,,,,,,,,,,,,198790,19,2022-01-28_16h42.47.029,lexical_decision_task_DD_L2,2021.2.3,Win32,59.73002031,,,,,,,,,,,0.7376,1,,,,,,,,,,,,,,m,1,0.7376,,,,,,,,0.259259276,-0.309259271,0,0,0,space,0,41,41,43,1,MOSQUE,LB,old,m,./images/MOSQUELB.png,13.4595,,,,,,,,,,,,,,,,,,,,,
,,,,,,,,,,,,,,,,,198790,19,2022-01-28_16h42.47.029,lexical_decision_task_DD_L2,2021.2.3,Win32,59.73002031,,,,,,,,,,,0.6331,1,,,,,,,,,,,,,,z,1,0.6331,,,,,,,,0.259259276,-0.309259271,0,0,0,,0,42,42,114,1,RIKES,C,old,z,./images/RIKES.png,,,,,,,,,,,,,,,,,,,,,,
,,,,,,,,,,,,,,,,,198790,19,2022-01-28_16h42.47.029,lexical_decision_task_DD_L2,2021.2.3,Win32,59.73002031,,,,,,,,,,,0.5028,1,,,,,,,,,,,,,,m,1,0.5028,,,,,,,,0.259259276,-0.309259271,0,0,0,,0,43,43,62,1,PURSE,C,old,m,./images/PURSE.png,,,,,,,,,,,,,,,,,,,,,,
,,,,,,,,,,,,,,,,,198790,19,2022-01-28_16h42.47.029,lexical_decision_task_DD_L2,2021.2.3,Win32,59.73002031,,,,,,,,,,,0.5827,1,,,,,,,,,,,,,,z,1,0.5827,,,,,,,,0.259259276,-0.309259271,0,0,0,,0,44,44,149,1,VEASE,LB,old,z,./images/VEASELB.png,,,,,,,,,,,,,,,,,,,,,,
,,,,,,,,,,,,,,,,,198790,19,2022-01-28_16h42.47.029,lexical_decision_task_DD_L2,2021.2.3,Win32,59.73002031,,,,,,,,,,,0.5882,1,,,,,,,,,,,,,,z,1,0.5882,,,,,,,,0.259259276,-0.309259271,0,0,0,,0,45,45,105,1,MOKER,C,old,z,./images/MOKER.png,,,,,,,,,,,,,,,,,,,,,,
,,,,,,,,,,,,,,,,,198790,19,2022-01-28_16h42.47.029,lexical_decision_task_DD_L2,2021.2.3,Win32,59.73002031,,,,,,,,,,,0.6025,1,,,,,,,,,,,,,,m,1,0.6025,,,,,,,,0.259259276,-0.309259271,0,0,0,,0,46,46,10,1,BELLY,LB,old,m,./images/BELLYLB.png,,,,,,,,,,,,,,,,,,,,,,
,,,,,,,,,,,,,,,,,198790,19,2022-01-28_16h42.47.029,lexical_decision_task_DD_L2,2021.2.3,Win32,59.73002031,,,,,,,,,,,0.613700001,1,,,,,,,,,,,,,,m,1,0.613700001,,,,,,,,0.259259276,-0.309259271,0,0,0,,0,47,47,3,1,FINGER,HB,old,m,./images/FINGERHB.png,,,,,,,,,,,,,,,,,,,,,,
,,,,,,,,,,,,,,,,,198790,19,2022-01-28_16h42.47.029,lexical_decision_task_DD_L2,2021.2.3,Win32,59.73002031,,,,,,,,,,,0.6265,1,,,,,,,,,,,,,,z,1,0.6265,,,,,,,,0.259259276,-0.309259271,0,0,0,,0,48,48,160,1,VEETS,HB,old,z,./images/VEETSHB.png,,,,,,,,,,,,,,,,,,,,,,
,,,,,,,,,,,,,,,,,198790,19,2022-01-28_16h42.47.029,lexical_decision_task_DD_L2,2021.2.3,Win32,59.73002031,,,,,,,,,,,0.6319,1,,,,,,,,,,,,,,z,1,0.6319,,,,,,,,0.259259276,-0.309259271,0,0,0,,0,49,49,162,1,LEICH,C,old,z,./images/LEICH.png,,,,,,,,,,,,,,,,,,,,,,
,,,,,,,,,,,,,,,,,198790,19,2022-01-28_16h42.47.029,lexical_decision_task_DD_L2,2021.2.3,Win32,59.73002031,,,,,,,,,,,0.7122,1,,,,,,,,,,,,,,m,1,0.7122,,,,,,,,0.259259276,-0.309259271,0,0,0,,0,50,50,1,1,PLANK,LB,old,m,./images/PLANKLB.png,,,,,,,,,,,,,,,,,,,,,,
,,,,,,,,,,,,,,,,,198790,19,2022-01-28_16h42.47.029,lexical_decision_task_DD_L2,2021.2.3,Win32,59.73002031,,,,,,,,,,,0.585,1,,,,,,,,,,,,,,z,1,0.585,,,,,,,,0.259259276,-0.309259271,0,0,0,,0,51,51,113,1,LINEW,LB,old,z,./images/LINEWLB.png,,,,,,,,,,,,,,,,,,,,,,
,,,,,,,,,,,,,,,,,198790,19,2022-01-28_16h42.47.029,lexical_decision_task_DD_L2,2021.2.3,Win32,59.73002031,,,,,,,,,,,0.5862,1,,,,,,,,,,,,,,m,1,0.5862,,,,,,,,0.259259276,-0.309259271,0,0,0,,0,52,52,23,1,WALRUS,C,old,m,./images/WALRUS.png,,,,,,,,,,,,,,,,,,,,,,
,,,,,,,,,,,,,,,,,198790,19,2022-01-28_16h42.47.029,lexical_decision_task_DD_L2,2021.2.3,Win32,59.73002031,,,,,,,,,,,0.648400001,1,,,,,,,,,,,,,,m,1,0.648400001,,,,,,,,0.259259276,-0.309259271,0,0,0,,0,53,53,42,1,FOLDER,HB,old,m,./images/FOLDERHB.png,,,,,,,,,,,,,,,,,,,,,,
,,,,,,,,,,,,,,,,,198790,19,2022-01-28_16h42.47.029,lexical_decision_task_DD_L2,2021.2.3,Win32,59.73002031,,,,,,,,,,,0.8621,1,,,,,,,,,,,,,,z,1,0.8621,,,,,,,,0.259259276,-0.309259271,0,0,0,,0,54,54,88,1,GLUSH,HB,old,z,./images/GLUSHHB.png,,,,,,,,,,,,,,,,,,,,,,
,,,,,,,,,,,,,,,,,198790,19,2022-01-28_16h42.47.029,lexical_decision_task_DD_L2,2021.2.3,Win32,59.73002031,,,,,,,,,,,0.510599999,1,,,,,,,,,,,,,,m,1,0.510599999,,,,,,,,0.259259276,-0.309259271,0,0,0,,0,55,55,32,1,BARREL,C,old,m,./images/BARREL.png,,,,,,,,,,,,,,,,,,,,,,
,,,,,,,,,,,,,,,,,198790,19,2022-01-28_16h42.47.029,lexical_decision_task_DD_L2,2021.2.3,Win32,59.73002031,,,,,,,,,,,0.8118,1,,,,,,,,,,,,,,z,1,0.8118,,,,,,,,0.259259276,-0.309259271,0,0,0,,0,56,56,151,1,TINKY,HB,old,z,./images/TINKYHB.png,,,,,,,,,,,,,,,,,,,,,,
,,,,,,,,,,,,,,,,,198790,19,2022-01-28_16h42.47.029,lexical_decision_task_DD_L2,2021.2.3,Win32,59.73002031,,,,,,,,,,,0.6678,1,,,,,,,,,,,,,,z,1,0.6678,,,,,,,,0.259259276,-0.309259271,0,0,0,,0,57,57,133,1,POWDY,HB,old,z,./images/POWDYHB.png,,,,,,,,,,,,,,,,,,,,,,
,,,,,,,,,,,,,,,,,198790,19,2022-01-28_16h42.47.029,lexical_decision_task_DD_L2,2021.2.3,Win32,59.73002031,,,,,,,,,,,0.521900001,1,,,,,,,,,,,,,,m,1,0.521900001,,,,,,,,0.259259276,-0.309259271,0,0,0,,0,58,58,63,1,MIRROR,HB,old,m,./images/MIRRORHB.png,,,,,,,,,,,,,,,,,,,,,,
,,,,,,,,,,,,,,,,,198790,19,2022-01-28_16h42.47.029,lexical_decision_task_DD_L2,2021.2.3,Win32,59.73002031,,,,,,,,,,,0.6452,1,,,,,,,,,,,,,,z,1,0.6452,,,,,,,,0.259259276,-0.309259271,0,0,0,,0,59,59,102,1,DULLE,C,old,z,./images/DULLE.png,,,,,,,,,,,,,,,,,,,,,,
,,,,,,,,,,,,,,,,,198790,19,2022-01-28_16h42.47.029,lexical_decision_task_DD_L2,2021.2.3,Win32,59.73002031,,,,,,,,,,,0.5367,1,,,,,,,,,,,,,,m,1,0.5367,,,,,,,,0.259259276,-0.309259271,0,0,0,,0,60,60,34,1,CANYON,LB,old,m,./images/CANYONLB.png,,,,,,,,,,,,,,,,,,,,,,
,,,,,,,,,,,,,,,,,198790,19,2022-01-28_16h42.47.029,lexical_decision_task_DD_L2,2021.2.3,Win32,59.73002031,,,,,,,,,,,0.952099999,1,,,,,,,,,,,,,,m,1,0.952099999,,,,,,,,0.259259276,-0.309259271,0,0,0,,0,61,61,69,1,COOKER,HB,old,m,./images/COOKERHB.png,,,,,,,,,,,,,,,,,,,,,,
,,,,,,,,,,,,,,,,,198790,19,2022-01-28_16h42.47.029,lexical_decision_task_DD_L2,2021.2.3,Win32,59.73002031,,,,,,,,,,,0.7755,1,,,,,,,,,,,,,,z,1,0.7755,,,,,,,,0.259259276,-0.309259271,0,0,0,,0,62,62,122,1,BLOOT,LB,old,z,./images/BLOOTLB.png,,,,,,,,,,,,,,,,,,,,,,
,,,,,,,,,,,,,,,,,198790,19,2022-01-28_16h42.47.029,lexical_decision_task_DD_L2,2021.2.3,Win32,59.73002031,,,,,,,,,,,0.7524,1,,,,,,,,,,,,,,z,1,0.7524,,,,,,,,0.259259276,-0.309259271,0,0,0,,0,63,63,121,1,CEERS,HB,old,z,./images/CEERSHB.png,,,,,,,,,,,,,,,,,,,,,,
,,,,,,,,,,,,,,,,,198790,19,2022-01-28_16h42.47.029,lexical_decision_task_DD_L2,2021.2.3,Win32,59.73002031,,,,,,,,,,,0.5938,1,,,,,,,,,,,,,,m,1,0.5938,,,,,,,,0.259259276,-0.309259271,0,0,0,,0,64,64,12,1,SHORE,HB,old,m,./images/SHOREHB.png,,,,,,,,,,,,,,,,,,,,,,
,,,,,,,,,,,,,,,,,198790,19,2022-01-28_16h42.47.029,lexical_decision_task_DD_L2,2021.2.3,Win32,59.73002031,,,,,,,,,,,0.689599999,0,,,,,,,,,,,,,,m,0,0.689599999,,,,,,,,0.259259276,-0.309259271,0,0,0,,0,65,65,142,1,PLASK,HB,old,z,./images/PLASKHB.png,,,,,,,,,,,,,,,,,,,,,,
,,,,,,,,,,,,,,,,,198790,19,2022-01-28_16h42.47.029,lexical_decision_task_DD_L2,2021.2.3,Win32,59.73002031,,,,,,,,,,,0.604,1,,,,,,,,,,,,,,z,1,0.604,,,,,,,,0.259259276,-0.309259271,0,0,0,,0,66,66,126,1,GUELS,C,old,z,./images/GUELS.png,,,,,,,,,,,,,,,,,,,,,,
,,,,,,,,,,,,,,,,,198790,19,2022-01-28_16h42.47.029,lexical_decision_task_DD_L2,2021.2.3,Win32,59.73002031,,,,,,,,,,,0.5535,1,,,,,,,,,,,,,,z,1,0.5535,,,,,,,,0.259259276,-0.309259271,0,0,0,,0,67,67,141,1,PLEET,C,old,z,./images/PLEET.png,,,,,,,,,,,,,,,,,,,,,,
,,,,,,,,,,,,,,,,,198790,19,2022-01-28_16h42.47.029,lexical_decision_task_DD_L2,2021.2.3,Win32,59.73002031,,,,,,,,,,,0.541400001,1,,,,,,,,,,,,,,m,1,0.541400001,,,,,,,,0.259259276,-0.309259271,0,0,0,,0,68,68,53,1,CARPET,C,old,m,./images/CARPET.png,,,,,,,,,,,,,,,,,,,,,,
,,,,,,,,,,,,,,,,,198790,19,2022-01-28_16h42.47.029,lexical_decision_task_DD_L2,2021.2.3,Win32,59.73002031,,,,,,,,,,,0.4805,1,,,,,,,,,,,,,,m,1,0.4805,,,,,,,,0.259259276,-0.309259271,0,0,0,,0,69,69,38,1,LADDER,C,old,m,./images/LADDER.png,,,,,,,,,,,,,,,,,,,,,,
,,,,,,,,,,,,,,,,,198790,19,2022-01-28_16h42.47.029,lexical_decision_task_DD_L2,2021.2.3,Win32,59.73002031,,,,,,,,,,,0.6712,1,,,,,,,,,,,,,,m,1,0.6712,,,,,,,,0.259259276,-0.309259271,0,0,0,,0,70,70,58,1,BABOON,LB,old,m,./images/BABOONLB.png,,,,,,,,,,,,,,,,,,,,,,
,,,,,,,,,,,,,,,,,198790,19,2022-01-28_16h42.47.029,lexical_decision_task_DD_L2,2021.2.3,Win32,59.73002031,,,,,,,,,,,0.5199,1,,,,,,,,,,,,,,m,1,0.5199,,,,,,,,0.259259276,-0.309259271,0,0,0,,0,71,71,82,1,SUNSET,LB,old,m,./images/SUNSETLB.png,,,,,,,,,,,,,,,,,,,,,,
,,,,,,,,,,,,,,,,,198790,19,2022-01-28_16h42.47.029,lexical_decision_task_DD_L2,2021.2.3,Win32,59.73002031,,,,,,,,,,,0.7805,1,,,,,,,,,,,,,,m,1,0.7805,,,,,,,,0.259259276,-0.309259271,0,0,0,,0,72,72,14,1,PICKLE,C,old,m,./images/PICKLE.png,,,,,,,,,,,,,,,,,,,,,,
,,,,,,,,,,,,,,,,,198790,19,2022-01-28_16h42.47.029,lexical_decision_task_DD_L2,2021.2.3,Win32,59.73002031,,,,,,,,,,,0.496200001,1,,,,,,,,,,,,,,m,1,0.496200001,,,,,,,,0.259259276,-0.309259271,0,0,0,,0,73,73,50,1,MALLET,C,old,m,./images/MALLET.png,,,,,,,,,,,,,,,,,,,,,,
,,,,,,,,,,,,,,,,,198790,19,2022-01-28_16h42.47.029,lexical_decision_task_DD_L2,2021.2.3,Win32,59.73002031,,,,,,,,,,,0.7897,1,,,,,,,,,,,,,,z,1,0.7897,,,,,,,,0.259259276,-0.309259271,0,0,0,,0,74,74,154,1,THINT,HB,old,z,./images/THINTHB.png,,,,,,,,,,,,,,,,,,,,,,
,,,,,,,,,,,,,,,,,198790,19,2022-01-28_16h42.47.029,lexical_decision_task_DD_L2,2021.2.3,Win32,59.73002031,,,,,,,,,,,0.5007,1,,,,,,,,,,,,,,m,1,0.5007,,,,,,,,0.259259276,-0.309259271,0,0,0,,0,75,75,22,1,MELON,LB,old,m,./images/MELONLB.png,,,,,,,,,,,,,,,,,,,,,,
,,,,,,,,,,,,,,,,,198790,19,2022-01-28_16h42.47.029,lexical_decision_task_DD_L2,2021.2.3,Win32,59.73002031,,,,,,,,,,,0.4851,1,,,,,,,,,,,,,,m,1,0.4851,,,,,,,,0.259259276,-0.309259271,0,0,0,,0,76,76,18,1,JAGUAR,HB,old,m,./images/JAGUARHB.png,,,,,,,,,,,,,,,,,,,,,,
,,,,,,,,,,,,,,,,,198790,19,2022-01-28_16h42.47.029,lexical_decision_task_DD_L2,2021.2.3,Win32,59.73002031,,,,,,,,,,,0.517099999,1,,,,,,,,,,,,,,m,1,0.517099999,,,,,,,,0.259259276,-0.309259271,0,0,0,,0,77,77,29,1,CRUMB,C,old,m,./images/CRUMB.png,,,,,,,,,,,,,,,,,,,,,,
,,,,,,,,,,,,,,,,,198790,19,2022-01-28_16h42.47.029,lexical_decision_task_DD_L2,2021.2.3,Win32,59.73002031,,,,,,,,,,,1.534799999,1,,,,,,,,,,,,,,z,1,1.534799999,,,,,,,,0.259259276,-0.309259271,0,0,0,,0,78,78,104,1,GITTY,LB,old,z,./images/GITTYLB.png,,,,,,,,,,,,,,,,,,,,,,
,,,,,,,,,,,,,,,,,198790,19,2022-01-28_16h42.47.029,lexical_decision_task_DD_L2,2021.2.3,Win32,59.73002031,,,,,,,,,,,0.5667,0,,,,,,,,,,,,,,m,0,0.5667,,,,,,,,0.259259276,-0.309259271,0,0,0,,0,79,79,92,1,PAIMS,LB,old,z,./images/PAIMSLB.png,,,,,,,,,,,,,,,,,,,,,,
,,,,,,,,,,,,,,,,,198790,19,2022-01-28_16h42.47.029,lexical_decision_task_DD_L2,2021.2.3,Win32,59.73002031,,,,,,,,,,,0.7031,0,,,,,,,,,,,,,,m,0,0.7031,,,,,,,,0.259259276,-0.309259271,0,0,0,,0,80,80,166,1,SHORY,HB,old,z,./images/SHORYHB.png,,,,,,,,,,,,,,,,,,,,,,
,,,,,,,,,,,,,,,,,198790,19,2022-01-28_16h42.47.029,lexical_decision_task_DD_L2,2021.2.3,Win32,59.73002031,,,,,,,,,,,1.019099999,1,,,,,,,,,,,,,,m,1,1.019099999,,,,,,,,0.259259276,-0.309259271,0,0,0,,0,81,81,0,1,TOMATO,HB,old,m,./images/TOMATOHB.png,,,,,,,,,,,,,,,,,,,,,,
,,,,,,,,,,,,,,,,,198790,19,2022-01-28_16h42.47.029,lexical_decision_task_DD_L2,2021.2.3,Win32,59.73002031,,,,,,,,,,,0.673,1,,,,,,,,,,,,,,z,1,0.673,,,,,,,,0.259259276,-0.309259271,0,0,0,,0,82,82,148,1,JOMS,HB,old,z,./images/JOMSHB.png,,,,,,,,,,,,,,,,,,,,,,
,,,,,,,,,,,,,,,,,198790,19,2022-01-28_16h42.47.029,lexical_decision_task_DD_L2,2021.2.3,Win32,59.73002031,,,,,,,,,,,0.586,1,,,,,,,,,,,,,,z,1,0.586,,,,,,,,0.259259276,-0.309259271,0,0,0,space,0,83,83,161,1,BLAPS,LB,old,z,./images/BLAPSLB.png,2.353099999,,,,,,,,,,,,,,,,,,,,,
,,,,,,,,,,,,,,,,,198790,19,2022-01-28_16h42.47.029,lexical_decision_task_DD_L2,2021.2.3,Win32,59.73002031,,,,,,,,,,,0.6669,1,,,,,,,,,,,,,,z,1,0.6669,,,,,,,,0.259259276,-0.309259271,0,0,0,,0,84,84,95,1,HANTY,LB,old,z,./images/HANTYLB.png,,,,,,,,,,,,,,,,,,,,,,
,,,,,,,,,,,,,,,,,198790,19,2022-01-28_16h42.47.029,lexical_decision_task_DD_L2,2021.2.3,Win32,59.73002031,,,,,,,,,,,0.486,1,,,,,,,,,,,,,,z,1,0.486,,,,,,,,0.259259276,-0.309259271,0,0,0,,0,85,85,137,1,JOOST,LB,old,z,./images/JOOSTLB.png,,,,,,,,,,,,,,,,,,,,,,
,,,,,,,,,,,,,,,,,198790,19,2022-01-28_16h42.47.029,lexical_decision_task_DD_L2,2021.2.3,Win32,59.73002031,,,,,,,,,,,0.8842,1,,,,,,,,,,,,,,m,1,0.8842,,,,,,,,0.259259276,-0.309259271,0,0,0,,0,86,86,78,1,LITTER,HB,old,m,./images/LITTERHB.png,,,,,,,,,,,,,,,,,,,,,,
,,,,,,,,,,,,,,,,,198790,19,2022-01-28_16h42.47.029,lexical_decision_task_DD_L2,2021.2.3,Win32,59.73002031,,,,,,,,,,,1.056700001,1,,,,,,,,,,,,,,z,1,1.056700001,,,,,,,,0.259259276,-0.309259271,0,0,0,,0,87,87,100,1,DRIBS,HB,old,z,./images/DRIBSHB.png,,,,,,,,,,,,,,,,,,,,,,
,,,,,,,,,,,,,,,,,198790,19,2022-01-28_16h42.47.029,lexical_decision_task_DD_L2,2021.2.3,Win32,59.73002031,,,,,,,,,,,0.6376,1,,,,,,,,,,,,,,m,1,0.6376,,,,,,,,0.259259276,-0.309259271,0,0,0,,0,88,88,57,1,MOOSE,HB,old,m,./images/MOOSEHB.png,,,,,,,,,,,,,,,,,,,,,,
,,,,,,,,,,,,,,,,,198790,19,2022-01-28_16h42.47.029,lexical_decision_task_DD_L2,2021.2.3,Win32,59.73002031,,,,,,,,,,,0.651099999,1,,,,,,,,,,,,,,z,1,0.651099999,,,,,,,,0.259259276,-0.309259271,0,0,0,,0,89,89,111,1,HOSSE,C,old,z,./images/HOSSE.png,,,,,,,,,,,,,,,,,,,,,,
,,,,,,,,,,,,,,,,,198790,19,2022-01-28_16h42.47.029,lexical_decision_task_DD_L2,2021.2.3,Win32,59.73002031,,,,,,,,,,,0.543099999,1,,,,,,,,,,,,,,z,1,0.543099999,,,,,,,,0.259259276,-0.309259271,0,0,0,,0,90,90,143,1,MONGS,LB,old,z,./images/MONGSLB.png,,,,,,,,,,,,,,,,,,,,,,
,,,,,,,,,,,,,,,,,198790,19,2022-01-28_16h42.47.029,lexical_decision_task_DD_L2,2021.2.3,Win32,59.73002031,,,,,,,,,,,0.636,0,,,,,,,,,,,,,,m,0,0.636,,,,,,,,0.259259276,-0.309259271,0,0,0,,0,91,91,167,1,ZONET,LB,old,z,./images/ZONETLB.png,,,,,,,,,,,,,,,,,,,,,,
,,,,,,,,,,,,,,,,,198790,19,2022-01-28_16h42.47.029,lexical_decision_task_DD_L2,2021.2.3,Win32,59.73002031,,,,,,,,,,,0.679,1,,,,,,,,,,,,,,m,1,0.679,,,,,,,,0.259259276,-0.309259271,0,0,0,,0,92,92,81,1,POODLE,HB,old,m,./images/POODLEHB.png,,,,,,,,,,,,,,,,,,,,,,
,,,,,,,,,,,,,,,,,198790,19,2022-01-28_16h42.47.029,lexical_decision_task_DD_L2,2021.2.3,Win32,59.73002031,,,,,,,,,,,0.7403,1,,,,,,,,,,,,,,z,1,0.7403,,,,,,,,0.259259276,-0.309259271,0,0,0,,0,93,93,115,1,MAWNS,HB,old,z,./images/MAWNSHB.png,,,,,,,,,,,,,,,,,,,,,,
,,,,,,,,,,,,,,,,,198790,19,2022-01-28_16h42.47.029,lexical_decision_task_DD_L2,2021.2.3,Win32,59.73002031,,,,,,,,,,,0.6052,1,,,,,,,,,,,,,,m,1,0.6052,,,,,,,,0.259259276,-0.309259271,0,0,0,,0,94,94,80,1,WEASEL,C,old,m,./images/WEASEL.png,,,,,,,,,,,,,,,,,,,,,,
,,,,,,,,,,,,,,,,,198790,19,2022-01-28_16h42.47.029,lexical_decision_task_DD_L2,2021.2.3,Win32,59.73002031,,,,,,,,,,,0.573900001,1,,,,,,,,,,,,,,m,1,0.573900001,,,,,,,,0.259259276,-0.309259271,0,0,0,,0,95,95,74,1,CEMENT,C,old,m,./images/CEMENT.png,,,,,,,,,,,,,,,,,,,,,,
,,,,,,,,,,,,,,,,,198790,19,2022-01-28_16h42.47.029,lexical_decision_task_DD_L2,2021.2.3,Win32,59.73002031,,,,,,,,,,,0.656799999,1,,,,,,,,,,,,,,z,1,0.656799999,,,,,,,,0.259259276,-0.309259271,0,0,0,,0,96,96,165,1,TROWN,C,old,z,./images/TROWN.png,,,,,,,,,,,,,,,,,,,,,,
,,,,,,,,,,,,,,,,,198790,19,2022-01-28_16h42.47.029,lexical_decision_task_DD_L2,2021.2.3,Win32,59.73002031,,,,,,,,,,,0.6621,1,,,,,,,,,,,,,,z,1,0.6621,,,,,,,,0.259259276,-0.309259271,0,0,0,,0,97,97,117,1,STEEG,C,old,z,./images/STEEG.png,,,,,,,,,,,,,,,,,,,,,,
,,,,,,,,,,,,,,,,,198790,19,2022-01-28_16h42.47.029,lexical_decision_task_DD_L2,2021.2.3,Win32,59.73002031,,,,,,,,,,,0.6396,1,,,,,,,,,,,,,,z,1,0.6396,,,,,,,,0.259259276,-0.309259271,0,0,0,,0,98,98,163,1,GAMBA,HB,old,z,./images/GAMBAHB.png,,,,,,,,,,,,,,,,,,,,,,
,,,,,,,,,,,,,,,,,198790,19,2022-01-28_16h42.47.029,lexical_decision_task_DD_L2,2021.2.3,Win32,59.73002031,,,,,,,,,,,0.6843,1,,,,,,,,,,,,,,z,1,0.6843,,,,,,,,0.259259276,-0.309259271,0,0,0,,0,99,99,145,1,LAMEL,HB,old,z,./images/LAMELHB.png,,,,,,,,,,,,,,,,,,,,,,
,,,,,,,,,,,,,,,,,198790,19,2022-01-28_16h42.47.029,lexical_decision_task_DD_L2,2021.2.3,Win32,59.73002031,,,,,,,,,,,0.6458,1,,,,,,,,,,,,,,z,1,0.6458,,,,,,,,0.259259276,-0.309259271,0,0,0,,0,100,100,155,1,CANGY,LB,old,z,./images/CANGYLB.png,,,,,,,,,,,,,,,,,,,,,,
,,,,,,,,,,,,,,,,,198790,19,2022-01-28_16h42.47.029,lexical_decision_task_DD_L2,2021.2.3,Win32,59.73002031,,,,,,,,,,,0.5419,1,,,,,,,,,,,,,,z,1,0.5419,,,,,,,,0.259259276,-0.309259271,0,0,0,,0,101,101,156,1,HIXES,C,old,z,./images/HIXES.png,,,,,,,,,,,,,,,,,,,,,,
,,,,,,,,,,,,,,,,,198790,19,2022-01-28_16h42.47.029,lexical_decision_task_DD_L2,2021.2.3,Win32,59.73002031,,,,,,,,,,,0.6003,1,,,,,,,,,,,,,,m,1,0.6003,,,,,,,,0.259259276,-0.309259271,0,0,0,,0,102,102,47,1,BERRY,C,old,m,./images/BERRY.png,,,,,,,,,,,,,,,,,,,,,,
,,,,,,,,,,,,,,,,,198790,19,2022-01-28_16h42.47.029,lexical_decision_task_DD_L2,2021.2.3,Win32,59.73002031,,,,,,,,,,,0.6709,1,,,,,,,,,,,,,,m,1,0.6709,,,,,,,,0.259259276,-0.309259271,0,0,0,,0,103,103,67,1,SAILOR,LB,old,m,./images/SAILORLB.png,,,,,,,,,,,,,,,,,,,,,,
,,,,,,,,,,,,,,,,,198790,19,2022-01-28_16h42.47.029,lexical_decision_task_DD_L2,2021.2.3,Win32,59.73002031,,,,,,,,,,,0.6048,1,,,,,,,,,,,,,,z,1,0.6048,,,,,,,,0.259259276,-0.309259271,0,0,0,,0,104,104,120,1,RINED,C,old,z,./images/RINED.png,,,,,,,,,,,,,,,,,,,,,,
,,,,,,,,,,,,,,,,,198790,19,2022-01-28_16h42.47.029,lexical_decision_task_DD_L2,2021.2.3,Win32,59.73002031,,,,,,,,,,,0.5264,1,,,,,,,,,,,,,,z,1,0.5264,,,,,,,,0.259259276,-0.309259271,0,0,0,,0,105,105,84,1,HAXES,C,old,z,./images/HAXES.png,,,,,,,,,,,,,,,,,,,,,,
,,,,,,,,,,,,,,,,,198790,19,2022-01-28_16h42.47.029,lexical_decision_task_DD_L2,2021.2.3,Win32,59.73002031,,,,,,,,,,,0.5814,1,,,,,,,,,,,,,,m,1,0.5814,,,,,,,,0.259259276,-0.309259271,0,0,0,,0,106,106,11,1,BONNET,C,old,m,./images/BONNET.png,,,,,,,,,,,,,,,,,,,,,,
,,,,,,,,,,,,,,,,,198790,19,2022-01-28_16h42.47.029,lexical_decision_task_DD_L2,2021.2.3,Win32,59.73002031,,,,,,,,,,,0.5022,1,,,,,,,,,,,,,,m,1,0.5022,,,,,,,,0.259259276,-0.309259271,0,0,0,,0,107,107,20,1,CRADLE,C,old,m,./images/CRADLE.png,,,,,,,,,,,,,,,,,,,,,,
,,,,,,,,,,,,,,,,,198790,19,2022-01-28_16h42.47.029,lexical_decision_task_DD_L2,2021.2.3,Win32,59.73002031,,,,,,,,,,,0.6014,1,,,,,,,,,,,,,,m,1,0.6014,,,,,,,,0.259259276,-0.309259271,0,0,0,,0,108,108,45,1,KITTEN,HB,old,m,./images/KITTENHB.png,,,,,,,,,,,,,,,,,,,,,,
,,,,,,,,,,,,,,,,,198790,19,2022-01-28_16h42.47.029,lexical_decision_task_DD_L2,2021.2.3,Win32,59.73002031,,,,,,,,,,,0.5718,1,,,,,,,,,,,,,,z,1,0.5718,,,,,,,,0.259259276,-0.309259271,0,0,0,,0,109,109,157,1,INLER,HB,old,z,./images/INLERHB.png,,,,,,,,,,,,,,,,,,,,,,
,,,,,,,,,,,,,,,,,198790,19,2022-01-28_16h42.47.029,lexical_decision_task_DD_L2,2021.2.3,Win32,59.73002031,,,,,,,,,,,0.7331,1,,,,,,,,,,,,,,m,1,0.7331,,,,,,,,0.259259276,-0.309259271,0,0,0,,0,110,110,27,1,ATTIC,HB,old,m,./images/ATTICHB.png,,,,,,,,,,,,,,,,,,,,,,
,,,,,,,,,,,,,,,,,198790,19,2022-01-28_16h42.47.029,lexical_decision_task_DD_L2,2021.2.3,Win32,59.73002031,,,,,,,,,,,0.5346,1,,,,,,,,,,,,,,m,1,0.5346,,,,,,,,0.259259276,-0.309259271,0,0,0,,0,111,111,70,1,URINE,LB,old,m,./images/URINELB.png,,,,,,,,,,,,,,,,,,,,,,
,,,,,,,,,,,,,,,,,198790,19,2022-01-28_16h42.47.029,lexical_decision_task_DD_L2,2021.2.3,Win32,59.73002031,,,,,,,,,,,0.5396,1,,,,,,,,,,,,,,z,1,0.5396,,,,,,,,0.259259276,-0.309259271,0,0,0,,0,112,112,129,1,PRANS,C,old,z,./images/PRANS.png,,,,,,,,,,,,,,,,,,,,,,
,,,,,,,,,,,,,,,,,198790,19,2022-01-28_16h42.47.029,lexical_decision_task_DD_L2,2021.2.3,Win32,59.73002031,,,,,,,,,,,0.634099999,1,,,,,,,,,,,,,,m,1,0.634099999,,,,,,,,0.259259276,-0.309259271,0,0,0,,0,113,113,35,1,PEACH,C,old,m,./images/PEACH.png,,,,,,,,,,,,,,,,,,,,,,
,,,,,,,,,,,,,,,,,198790,19,2022-01-28_16h42.47.029,lexical_decision_task_DD_L2,2021.2.3,Win32,59.73002031,,,,,,,,,,,0.634,1,,,,,,,,,,,,,,z,1,0.634,,,,,,,,0.259259276,-0.309259271,0,0,0,,0,114,114,86,1,AIFED,LB,old,z,./images/AIFEDLB.png,,,,,,,,,,,,,,,,,,,,,,
,,,,,,,,,,,,,,,,,198790,19,2022-01-28_16h42.47.029,lexical_decision_task_DD_L2,2021.2.3,Win32,59.73002031,,,,,,,,,,,0.7095,1,,,,,,,,,,,,,,m,1,0.7095,,,,,,,,0.259259276,-0.309259271,0,0,0,,0,115,115,15,1,GREASE,HB,old,m,./images/GREASEHB.png,,,,,,,,,,,,,,,,,,,,,,
,,,,,,,,,,,,,,,,,198790,19,2022-01-28_16h42.47.029,lexical_decision_task_DD_L2,2021.2.3,Win32,59.73002031,,,,,,,,,,,0.6338,1,,,,,,,,,,,,,,z,1,0.6338,,,,,,,,0.259259276,-0.309259271,0,0,0,,0,116,116,97,1,CHIDS,HB,old,z,./images/CHIDSHB.png,,,,,,,,,,,,,,,,,,,,,,
,,,,,,,,,,,,,,,,,198790,19,2022-01-28_16h42.47.029,lexical_decision_task_DD_L2,2021.2.3,Win32,59.73002031,,,,,,,,,,,0.5213,1,,,,,,,,,,,,,,m,1,0.5213,,,,,,,,0.259259276,-0.309259271,0,0,0,,0,117,117,7,1,PAINT,LB,old,m,./images/PAINTLB.png,,,,,,,,,,,,,,,,,,,,,,
,,,,,,,,,,,,,,,,,198790,19,2022-01-28_16h42.47.029,lexical_decision_task_DD_L2,2021.2.3,Win32,59.73002031,,,,,,,,,,,0.718,1,,,,,,,,,,,,,,m,1,0.718,,,,,,,,0.259259276,-0.309259271,0,0,0,,0,118,118,65,1,FARMER,C,old,m,./images/FARMER.png,,,,,,,,,,,,,,,,,,,,,,
,,,,,,,,,,,,,,,,,198790,19,2022-01-28_16h42.47.029,lexical_decision_task_DD_L2,2021.2.3,Win32,59.73002031,,,,,,,,,,,0.5017,1,,,,,,,,,,,,,,m,1,0.5017,,,,,,,,0.259259276,-0.309259271,0,0,0,,0,119,119,59,1,BURIAL,C,old,m,./images/BURIAL.png,,,,,,,,,,,,,,,,,,,,,,
,,,,,,,,,,,,,,,,,198790,19,2022-01-28_16h42.47.029,lexical_decision_task_DD_L2,2021.2.3,Win32,59.73002031,,,,,,,,,,,0.4698,0,,,,,,,,,,,,,,m,0,0.4698,,,,,,,,0.259259276,-0.309259271,0,0,0,,0,120,120,128,1,GRIFT,LB,old,z,./images/GRIFTLB.png,,,,,,,,,,,,,,,,,,,,,,
,,,,,,,,,,,,,,,,,198790,19,2022-01-28_16h42.47.029,lexical_decision_task_DD_L2,2021.2.3,Win32,59.73002031,,,,,,,,,,,0.7105,1,,,,,,,,,,,,,,z,1,0.7105,,,,,,,,0.259259276,-0.309259271,0,0,0,,0,121,121,130,1,CRILL,HB,old,z,./images/CRILLHB.png,,,,,,,,,,,,,,,,,,,,,,
,,,,,,,,,,,,,,,,,198790,19,2022-01-28_16h42.47.029,lexical_decision_task_DD_L2,2021.2.3,Win32,59.73002031,,,,,,,,,,,0.5375,1,,,,,,,,,,,,,,m,1,0.5375,,,,,,,,0.259259276,-0.309259271,0,0,0,,0,122,122,64,1,JELLY,LB,old,m,./images/JELLYLB.png,,,,,,,,,,,,,,,,,,,,,,
,,,,,,,,,,,,,,,,,198790,19,2022-01-28_16h42.47.029,lexical_decision_task_DD_L2,2021.2.3,Win32,59.73002031,,,,,,,,,,,0.521599999,1,,,,,,,,,,,,,,m,1,0.521599999,,,,,,,,0.259259276,-0.309259271,0,0,0,,0,123,123,61,1,CANDLE,LB,old,m,./images/CANDLELB.png,,,,,,,,,,,,,,,,,,,,,,
,,,,,,,,,,,,,,,,,198790,19,2022-01-28_16h42.47.029,lexical_decision_task_DD_L2,2021.2.3,Win32,59.73002031,,,,,,,,,,,0.63,1,,,,,,,,,,,,,,z,1,0.63,,,,,,,,0.259259276,-0.309259271,0,0,0,,0,124,124,106,1,CLUMS,HB,old,z,./images/CLUMSHB.png,,,,,,,,,,,,,,,,,,,,,,
,,,,,,,,,,,,,,,,,198790,19,2022-01-28_16h42.47.029,lexical_decision_task_DD_L2,2021.2.3,Win32,59.73002031,,,,,,,,,,,0.640200001,1,,,,,,,,,,,,,,m,1,0.640200001,,,,,,,,0.259259276,-0.309259271,0,0,0,space,0,125,125,60,1,TWINS,HB,old,m,./images/TWINSHB.png,1.1527,,,,,,,,,,,,,,,,,,,,,
,,,,,,,,,,,,,,,,,198790,19,2022-01-28_16h42.47.029,lexical_decision_task_DD_L2,2021.2.3,Win32,59.73002031,,,,,,,,,,,0.650599999,1,,,,,,,,,,,,,,z,1,0.650599999,,,,,,,,0.259259276,-0.309259271,0,0,0,,0,126,126,164,1,SGREW,LB,old,z,./images/SGREWLB.png,,,,,,,,,,,,,,,,,,,,,,
,,,,,,,,,,,,,,,,,198790,19,2022-01-28_16h42.47.029,lexical_decision_task_DD_L2,2021.2.3,Win32,59.73002031,,,,,,,,,,,0.6342,0,,,,,,,,,,,,,,m,0,0.6342,,,,,,,,0.259259276,-0.309259271,0,0,0,,0,127,127,98,1,BAMPS,LB,old,z,./images/BAMPSLB.png,,,,,,,,,,,,,,,,,,,,,,
,,,,,,,,,,,,,,,,,198790,19,2022-01-28_16h42.47.029,lexical_decision_task_DD_L2,2021.2.3,Win32,59.73002031,,,,,,,,,,,0.7115,1,,,,,,,,,,,,,,m,1,0.7115,,,,,,,,0.259259276,-0.309259271,0,0,0,,0,128,128,25,1,WRIST,LB,old,m,./images/WRISTLB.png,,,,,,,,,,,,,,,,,,,,,,
,,,,,,,,,,,,,,,,,198790,19,2022-01-28_16h42.47.029,lexical_decision_task_DD_L2,2021.2.3,Win32,59.73002031,,,,,,,,,,,0.6865,1,,,,,,,,,,,,,,z,1,0.6865,,,,,,,,0.259259276,-0.309259271,0,0,0,,0,129,129,152,1,FRAIN,LB,old,z,./images/FRAINLB.png,,,,,,,,,,,,,,,,,,,,,,
,,,,,,,,,,,,,,,,,198790,19,2022-01-28_16h42.47.029,lexical_decision_task_DD_L2,2021.2.3,Win32,59.73002031,,,,,,,,,,,0.7677,1,,,,,,,,,,,,,,m,1,0.7677,,,,,,,,0.259259276,-0.309259271,0,0,0,,0,130,130,9,1,RHINO,HB,old,m,./images/RHINOHB.png,,,,,,,,,,,,,,,,,,,,,,
,,,,,,,,,,,,,,,,,198790,19,2022-01-28_16h42.47.029,lexical_decision_task_DD_L2,2021.2.3,Win32,59.73002031,,,,,,,,,,,0.5688,1,,,,,,,,,,,,,,m,1,0.5688,,,,,,,,0.259259276,-0.309259271,0,0,0,,0,131,131,4,1,MUSCLE,LB,old,m,./images/MUSCLELB.png,,,,,,,,,,,,,,,,,,,,,,
,,,,,,,,,,,,,,,,,198790,19,2022-01-28_16h42.47.029,lexical_decision_task_DD_L2,2021.2.3,Win32,59.73002031,,,,,,,,,,,0.6093,1,,,,,,,,,,,,,,m,1,0.6093,,,,,,,,0.259259276,-0.309259271,0,0,0,,0,132,132,56,1,PACKET,C,old,m,./images/PACKET.png,,,,,,,,,,,,,,,,,,,,,,
,,,,,,,,,,,,,,,,,198790,19,2022-01-28_16h42.47.029,lexical_decision_task_DD_L2,2021.2.3,Win32,59.73002031,,,,,,,,,,,0.6864,1,,,,,,,,,,,,,,z,1,0.6864,,,,,,,,0.259259276,-0.309259271,0,0,0,,0,133,133,134,1,TROSS,LB,old,z,./images/TROSSLB.png,,,,,,,,,,,,,,,,,,,,,,
,,,,,,,,,,,,,,,,,198790,19,2022-01-28_16h42.47.029,lexical_decision_task_DD_L2,2021.2.3,Win32,59.73002031,,,,,,,,,,,0.5679,1,,,,,,,,,,,,,,m,1,0.5679,,,,,,,,0.259259276,-0.309259271,0,0,0,,0,134,134,79,1,CRUST,LB,old,m,./images/CRUSTLB.png,,,,,,,,,,,,,,,,,,,,,,
,,,,,,,,,,,,,,,,,198790,19,2022-01-28_16h42.47.029,lexical_decision_task_DD_L2,2021.2.3,Win32,59.73002031,,,,,,,,,,,0.625,1,,,,,,,,,,,,,,m,1,0.625,,,,,,,,0.259259276,-0.309259271,0,0,0,,0,135,135,19,1,DOUGH,LB,old,m,./images/DOUGHLB.png,,,,,,,,,,,,,,,,,,,,,,
,,,,,,,,,,,,,,,,,198790,19,2022-01-28_16h42.47.029,lexical_decision_task_DD_L2,2021.2.3,Win32,59.73002031,,,,,,,,,,,0.567,1,,,,,,,,,,,,,,m,1,0.567,,,,,,,,0.259259276,-0.309259271,0,0,0,,0,136,136,72,1,NOOSE,HB,old,m,./images/NOOSEHB.png,,,,,,,,,,,,,,,,,,,,,,
,,,,,,,,,,,,,,,,,198790,19,2022-01-28_16h42.47.029,lexical_decision_task_DD_L2,2021.2.3,Win32,59.73002031,,,,,,,,,,,0.9045,1,,,,,,,,,,,,,,z,1,0.9045,,,,,,,,0.259259276,-0.309259271,0,0,0,,0,137,137,135,1,JOODY,C,old,z,./images/JOODY.png,,,,,,,,,,,,,,,,,,,,,,
,,,,,,,,,,,,,,,,,198790,19,2022-01-28_16h42.47.029,lexical_decision_task_DD_L2,2021.2.3,Win32,59.73002031,,,,,,,,,,,0.6302,1,,,,,,,,,,,,,,z,1,0.6302,,,,,,,,0.259259276,-0.309259271,0,0,0,,0,138,138,144,1,NAIRY,C,old,z,./images/NAIRY.png,,,,,,,,,,,,,,,,,,,,,,
,,,,,,,,,,,,,,,,,198790,19,2022-01-28_16h42.47.029,lexical_decision_task_DD_L2,2021.2.3,Win32,59.73002031,,,,,,,,,,,0.7153,1,,,,,,,,,,,,,,z,1,0.7153,,,,,,,,0.259259276,-0.309259271,0,0,0,,0,139,139,132,1,SCIFF,C,old,z,./images/SCIFF.png,,,,,,,,,,,,,,,,,,,,,,
,,,,,,,,,,,,,,,,,198790,19,2022-01-28_16h42.47.029,lexical_decision_task_DD_L2,2021.2.3,Win32,59.73002031,,,,,,,,,,,0.701,1,,,,,,,,,,,,,,z,1,0.701,,,,,,,,0.259259276,-0.309259271,0,0,0,,0,140,140,99,1,BACKY,C,old,z,./images/BACKY.png,,,,,,,,,,,,,,,,,,,,,,
,,,,,,,,,,,,,,,,,198790,19,2022-01-28_16h42.47.029,lexical_decision_task_DD_L2,2021.2.3,Win32,59.73002031,,,,,,,,,,,0.656400001,1,,,,,,,,,,,,,,m,1,0.656400001,,,,,,,,0.259259276,-0.309259271,0,0,0,,0,141,141,66,1,SWEAT,HB,old,m,./images/SWEATHB.png,,,,,,,,,,,,,,,,,,,,,,
,,,,,,,,,,,,,,,,,198790,19,2022-01-28_16h42.47.029,lexical_decision_task_DD_L2,2021.2.3,Win32,59.73002031,,,,,,,,,,,0.625400001,1,,,,,,,,,,,,,,m,1,0.625400001,,,,,,,,0.259259276,-0.309259271,0,0,0,,0,142,142,55,1,MUFFIN,LB,old,m,./images/MUFFINLB.png,,,,,,,,,,,,,,,,,,,,,,
,,,,,,,,,,,,,,,,,198790,19,2022-01-28_16h42.47.029,lexical_decision_task_DD_L2,2021.2.3,Win32,59.73002031,,,,,,,,,,,1.057700001,1,,,,,,,,,,,,,,z,1,1.057700001,,,,,,,,0.259259276,-0.309259271,0,0,0,,0,143,143,109,1,BURGE,HB,old,z,./images/BURGEHB.png,,,,,,,,,,,,,,,,,,,,,,
,,,,,,,,,,,,,,,,,198790,19,2022-01-28_16h42.47.029,lexical_decision_task_DD_L2,2021.2.3,Win32,59.73002031,,,,,,,,,,,0.553,1,,,,,,,,,,,,,,m,1,0.553,,,,,,,,0.259259276,-0.309259271,0,0,0,,0,144,144,26,1,SMOKER,C,old,m,./images/SMOKER.png,,,,,,,,,,,,,,,,,,,,,,
,,,,,,,,,,,,,,,,,198790,19,2022-01-28_16h42.47.029,lexical_decision_task_DD_L2,2021.2.3,Win32,59.73002031,,,,,,,,,,,0.6028,1,,,,,,,,,,,,,,z,1,0.6028,,,,,,,,0.259259276,-0.309259271,0,0,0,,0,145,145,158,1,EGECT,LB,old,z,./images/EGECTLB.png,,,,,,,,,,,,,,,,,,,,,,
,,,,,,,,,,,,,,,,,198790,19,2022-01-28_16h42.47.029,lexical_decision_task_DD_L2,2021.2.3,Win32,59.73002031,,,,,,,,,,,0.6533,1,,,,,,,,,,,,,,z,1,0.6533,,,,,,,,0.259259276,-0.309259271,0,0,0,,0,146,146,124,1,TUNCH,HB,old,z,./images/TUNCHHB.png,,,,,,,,,,,,,,,,,,,,,,
,,,,,,,,,,,,,,,,,198790,19,2022-01-28_16h42.47.029,lexical_decision_task_DD_L2,2021.2.3,Win32,59.73002031,,,,,,,,,,,0.8117,1,,,,,,,,,,,,,,z,1,0.8117,,,,,,,,0.259259276,-0.309259271,0,0,0,,0,147,147,91,1,SHENS,HB,old,z,./images/SHENSHB.png,,,,,,,,,,,,,,,,,,,,,,
,,,,,,,,,,,,,,,,,198790,19,2022-01-28_16h42.47.029,lexical_decision_task_DD_L2,2021.2.3,Win32,59.73002031,,,,,,,,,,,0.6015,1,,,,,,,,,,,,,,m,1,0.6015,,,,,,,,0.259259276,-0.309259271,0,0,0,,0,148,148,24,1,SCREW,HB,old,m,./images/SCREWHB.png,,,,,,,,,,,,,,,,,,,,,,
,,,,,,,,,,,,,,,,,198790,19,2022-01-28_16h42.47.029,lexical_decision_task_DD_L2,2021.2.3,Win32,59.73002031,,,,,,,,,,,0.7675,1,,,,,,,,,,,,,,z,1,0.7675,,,,,,,,0.259259276,-0.309259271,0,0,0,,0,149,149,107,1,FASKS,LB,old,z,./images/FASKSLB.png,,,,,,,,,,,,,,,,,,,,,,
,,,,,,,,,,,,,,,,,198790,19,2022-01-28_16h42.47.029,lexical_decision_task_DD_L2,2021.2.3,Win32,59.73002031,,,,,,,,,,,0.5991,1,,,,,,,,,,,,,,m,1,0.5991,,,,,,,,0.259259276,-0.309259271,0,0,0,,0,150,150,46,1,PEARL,LB,old,m,./images/PEARLLB.png,,,,,,,,,,,,,,,,,,,,,,
,,,,,,,,,,,,,,,,,198790,19,2022-01-28_16h42.47.029,lexical_decision_task_DD_L2,2021.2.3,Win32,59.73002031,,,,,,,,,,,0.5905,1,,,,,,,,,,,,,,z,1,0.5905,,,,,,,,0.259259276,-0.309259271,0,0,0,,0,151,151,119,1,PAFER,LB,old,z,./images/PAFERLB.png,,,,,,,,,,,,,,,,,,,,,,
,,,,,,,,,,,,,,,,,198790,19,2022-01-28_16h42.47.029,lexical_decision_task_DD_L2,2021.2.3,Win32,59.73002031,,,,,,,,,,,0.5608,1,,,,,,,,,,,,,,m,1,0.5608,,,,,,,,0.259259276,-0.309259271,0,0,0,,0,152,152,77,1,COUCH,C,old,m,./images/COUCH.png,,,,,,,,,,,,,,,,,,,,,,
,,,,,,,,,,,,,,,,,198790,19,2022-01-28_16h42.47.029,lexical_decision_task_DD_L2,2021.2.3,Win32,59.73002031,,,,,,,,,,,0.6198,1,,,,,,,,,,,,,,z,1,0.6198,,,,,,,,0.259259276,-0.309259271,0,0,0,,0,153,153,108,1,GRUET,C,old,z,./images/GRUET.png,,,,,,,,,,,,,,,,,,,,,,
,,,,,,,,,,,,,,,,,198790,19,2022-01-28_16h42.47.029,lexical_decision_task_DD_L2,2021.2.3,Win32,59.73002031,,,,,,,,,,,0.6608,1,,,,,,,,,,,,,,z,1,0.6608,,,,,,,,0.259259276,-0.309259271,0,0,0,,0,154,154,159,1,CUDDY,C,old,z,./images/CUDDY.png,,,,,,,,,,,,,,,,,,,,,,
,,,,,,,,,,,,,,,,,198790,19,2022-01-28_16h42.47.029,lexical_decision_task_DD_L2,2021.2.3,Win32,59.73002031,,,,,,,,,,,0.624400001,1,,,,,,,,,,,,,,m,1,0.624400001,,,,,,,,0.259259276,-0.309259271,0,0,0,,0,155,155,68,1,TORCH,C,old,m,./images/TORCH.png,,,,,,,,,,,,,,,,,,,,,,
,,,,,,,,,,,,,,,,,198790,19,2022-01-28_16h42.47.029,lexical_decision_task_DD_L2,2021.2.3,Win32,59.73002031,,,,,,,,,,,0.588900001,1,,,,,,,,,,,,,,z,1,0.588900001,,,,,,,,0.259259276,-0.309259271,0,0,0,,0,156,156,93,1,SMONE,C,old,z,./images/SMONE.png,,,,,,,,,,,,,,,,,,,,,,
,,,,,,,,,,,,,,,,,198790,19,2022-01-28_16h42.47.029,lexical_decision_task_DD_L2,2021.2.3,Win32,59.73002031,,,,,,,,,,,0.755,1,,,,,,,,,,,,,,z,1,0.755,,,,,,,,0.259259276,-0.309259271,0,0,0,,0,157,157,139,1,BLEAR,HB,old,z,./images/BLEARHB.png,,,,,,,,,,,,,,,,,,,,,,
,,,,,,,,,,,,,,,,,198790,19,2022-01-28_16h42.47.029,lexical_decision_task_DD_L2,2021.2.3,Win32,59.73002031,,,,,,,,,,,0.8832,1,,,,,,,,,,,,,,z,1,0.8832,,,,,,,,0.259259276,-0.309259271,0,0,0,,0,158,158,85,1,CHULK,HB,old,z,./images/CHULKHB.png,,,,,,,,,,,,,,,,,,,,,,
,,,,,,,,,,,,,,,,,198790,19,2022-01-28_16h42.47.029,lexical_decision_task_DD_L2,2021.2.3,Win32,59.73002031,,,,,,,,,,,0.5405,1,,,,,,,,,,,,,,z,1,0.5405,,,,,,,,0.259259276,-0.309259271,0,0,0,,0,159,159,140,1,DOVET,LB,old,z,./images/DOVETLB.png,,,,,,,,,,,,,,,,,,,,,,
,,,,,,,,,,,,,,,,,198790,19,2022-01-28_16h42.47.029,lexical_decision_task_DD_L2,2021.2.3,Win32,59.73002031,,,,,,,,,,,0.652299999,1,,,,,,,,,,,,,,z,1,0.652299999,,,,,,,,0.259259276,-0.309259271,0,0,0,,0,160,160,103,1,FLORT,HB,old,z,./images/FLORTHB.png,,,,,,,,,,,,,,,,,,,,,,
,,,,,,,,,,,,,,,,,198790,19,2022-01-28_16h42.47.029,lexical_decision_task_DD_L2,2021.2.3,Win32,59.73002031,,,,,,,,,,,0.595,1,,,,,,,,,,,,,,z,1,0.595,,,,,,,,0.259259276,-0.309259271,0,0,0,,0,161,161,138,1,PLICE,C,old,z,./images/PLICE.png,,,,,,,,,,,,,,,,,,,,,,
,,,,,,,,,,,,,,,,,198790,19,2022-01-28_16h42.47.029,lexical_decision_task_DD_L2,2021.2.3,Win32,59.73002031,,,,,,,,,,,0.7615,0,,,,,,,,,,,,,,z,0,0.7615,,,,,,,,0.259259276,-0.309259271,0,0,0,,0,162,162,16,1,PENCE,LB,old,m,./images/PENCELB.png,,,,,,,,,,,,,,,,,,,,,,
,,,,,,,,,,,,,,,,,198790,19,2022-01-28_16h42.47.029,lexical_decision_task_DD_L2,2021.2.3,Win32,59.73002031,,,,,,,,,,,0.6347,1,,,,,,,,,,,,,,m,1,0.6347,,,,,,,,0.259259276,-0.309259271,0,0,0,,0,163,163,28,1,FALCON,LB,old,m,./images/FALCONLB.png,,,,,,,,,,,,,,,,,,,,,,
,,,,,,,,,,,,,,,,,198790,19,2022-01-28_16h42.47.029,lexical_decision_task_DD_L2,2021.2.3,Win32,59.73002031,,,,,,,,,,,0.5534,1,,,,,,,,,,,,,,m,1,0.5534,,,,,,,,0.259259276,-0.309259271,0,0,0,,0,164,164,2,1,BEARD,C,old,m,./images/BEARD.png,,,,,,,,,,,,,,,,,,,,,,
,,,,,,,,,,,,,,,,,198790,19,2022-01-28_16h42.47.029,lexical_decision_task_DD_L2,2021.2.3,Win32,59.73002031,,,,,,,,,,,0.750299999,0,,,,,,,,,,,,,,m,0,0.750299999,,,,,,,,0.259259276,-0.309259271,0,0,0,,0,165,165,110,1,CRUNK,LB,old,z,./images/CRUNKLB.png,,,,,,,,,,,,,,,,,,,,,,
,,,,,,,,,,,,,,,,,198790,19,2022-01-28_16h42.47.029,lexical_decision_task_DD_L2,2021.2.3,Win32,59.73002031,,,,,,,,,,,0.6753,1,,,,,,,,,,,,,,z,1,0.6753,,,,,,,,0.259259276,-0.309259271,0,0,0,,0,166,166,96,1,KEAMS,C,old,z,./images/KEAMS.png,,,,,,,,,,,,,,,,,,,,,,
,,,,,,,,,,,,,,,,,198790,19,2022-01-28_16h42.47.029,lexical_decision_task_DD_L2,2021.2.3,Win32,59.73002031,,,,,,,,,,,0.7322,1,,,,,,,,,,,,,,z,1,0.7322,,,,,,,,0.259259276,-0.309259271,0,0,0,,0,167,167,153,1,CLUPS,C,old,z,./images/CLUPS.png,,,,,,,,,,,,,,,,,,,,,,
space,24.1387,0.259259276,-0.309259271,0,0,0,,,,,,1,test,"In the next phase you will be presented with the words from the the first phase. Your job is to decide whether you remember seeing the word or not. If you remember seeing the word press ""old"" or type ""m"". If you do not remember seeing the word press ""new"" or type ""z"". Please press the space bar or click on continue to begin. ",,,198790,19,2022-01-28_16h42.47.029,lexical_decision_task_DD_L2,2021.2.3,Win32,59.73002031,,,,,,,,,,,,,,,,,,,,,,,,,,,,,,,,,,,,,,,,,,,,,,,,,,,,,0,0,0,0,1,,,,,,,,,,,,,,,,
space,1.523,0.259259276,-0.309259271,0,0,0,,,,,,1,test,"In the next phase you will be presented with the words from the the first phase. Your job is to decide whether you remember seeing the word or not. If you remember seeing the word press ""old"" or type ""m"". If you do not remember seeing the word press ""new"" or type ""z"". Please press the space bar or click on continue to begin. ",,,198790,19,2022-01-28_16h42.47.029,lexical_decision_task_DD_L2,2021.2.3,Win32,59.73002031,,,,,,,,,,,,,,,,,,,,,,,,,,,,,,,,,,,,,,,,,,,,,,,,,,,,,1,0,1,0,1,,,,,,,,,,,,,,,,
,,0.092592607,-0.394444458,1,0,0,,,,,,1,test,"In the next phase you will be presented with the words from the the first phase. Your job is to decide whether you remember seeing the word or not. If you remember seeing the word press ""old"" or type ""m"". If you do not remember seeing the word press ""new"" or type ""z"". Please press the space bar or click on continue to begin. ",,,198790,19,2022-01-28_16h42.47.029,lexical_decision_task_DD_L2,2021.2.3,Win32,59.73002031,,,,,,,,,,,,,,,,,,,,,,,,,,,,,,,,,,,,,,,,,,,,,,,,,,,,,2,0,2,0,1,instr_done_button,,,,,,,,,,,,,,,
space,7.348,0.104629644,-0.23425927,0,0,0,,,,,,1,test,"In the next phase you will be presented with the words from the the first phase. Your job is to decide whether you remember seeing the word or not. If you remember seeing the word press ""old"" or type ""m"". If you do not remember seeing the word press ""new"" or type ""z"". Please press the space bar or click on continue to begin. ",,,198790,19,2022-01-28_16h42.47.029,lexical_decision_task_DD_L2,2021.2.3,Win32,59.73002031,,,,,,,,,,,,,,,,,,,,,,,,,,,,,,,,,,,,,,,,,,,,,,,,,,,,,3,0,3,0,1,,,,,,,,,,,,,,,,
,,-0.001851824,-0.388888889,1,0,0,,,,,,1,test,"In the next phase you will be presented with the words from the the first phase. Your job is to decide whether you remember seeing the word or not. If you remember seeing the word press ""old"" or type ""m"". If you do not remember seeing the word press ""new"" or type ""z"". Please press the space bar or click on continue to begin. ",,,198790,19,2022-01-28_16h42.47.029,lexical_decision_task_DD_L2,2021.2.3,Win32,59.73002031,,,,,,,,,,,,,,,,,,,,,,,,,,,,,,,,,,,,,,,,,,,,,,,,,,,,,4,0,4,0,1,instr_done_button,,,,,,,,,,,,,,,
,,,,,,,,,,,,,,,,,198790,19,2022-01-28_16h42.47.029,lexical_decision_task_DD_L2,2021.2.3,Win32,59.73002031,,,,,,,,,,,6.835,1,,,,,,,,,,,,,,,,,,,,,,,,-0.001851824,-0.388888889,0,0,0,,,,,,,PICKLE,C,m,y,./images/PICKLE.png,,,,,,,,m,1,6.835,,,,,,,,0,0,0,14,1
,,,,,,,,,,,,,,,,,198790,19,2022-01-28_16h42.47.029,lexical_decision_task_DD_L2,2021.2.3,Win32,59.73002031,,,,,,,,,,,3.336099999,1,,,,,,,,,,,,,,,,,,,,,,,,-0.001851824,-0.388888889,0,0,0,,,,,,,GRAPE,LB,z,y,./images/GRAPELB.png,,,,,,,,z,1,3.336099999,,,,,,,,0,1,1,100,1
,,,,,,,,,,,,,,,,,198790,19,2022-01-28_16h42.47.029,lexical_decision_task_DD_L2,2021.2.3,Win32,59.73002031,,,,,,,,,,,0.930400001,1,,,,,,,,,,,,,,,,,,,,,,,,-0.001851824,-0.388888889,0,0,0,,,,,,,THROAT,HB,m,y,./images/THROATHB.png,,,,,,,,m,1,0.930400001,,,,,,,,0,2,2,36,1
,,,,,,,,,,,,,,,,,198790,19,2022-01-28_16h42.47.029,lexical_decision_task_DD_L2,2021.2.3,Win32,59.73002031,,,,,,,,,,,0.7481,1,,,,,,,,,,,,,,,,,,,,,,,,-0.001851824,-0.388888889,0,0,0,,,,,,,CARPET,C,m,y,./images/CARPET.png,,,,,,,,m,1,0.7481,,,,,,,,0,3,3,53,1
,,,,,,,,,,,,,,,,,198790,19,2022-01-28_16h42.47.029,lexical_decision_task_DD_L2,2021.2.3,Win32,59.73002031,,,,,,,,,,,0.6047,1,,,,,,,,,,,,,,,,,,,,,,,,-0.001851824,-0.388888889,0,0,0,,,,,,,BABOON,LB,m,y,./images/BABOONLB.png,,,,,,,,m,1,0.6047,,,,,,,,0,4,4,58,1
,,,,,,,,,,,,,,,,,198790,19,2022-01-28_16h42.47.029,lexical_decision_task_DD_L2,2021.2.3,Win32,59.73002031,,,,,,,,,,,1.010599999,0,,,,,,,,,,,,,,,,,,,,,,,,-0.001851824,-0.388888889,0,0,0,,,,,,,INFANT,LB,m,y,./images/INFANTLB.png,,,,,,,,z,0,1.010599999,,,,,,,,0,5,5,76,1
,,,,,,,,,,,,,,,,,198790,19,2022-01-28_16h42.47.029,lexical_decision_task_DD_L2,2021.2.3,Win32,59.73002031,,,,,,,,,,,1.0127,0,,,,,,,,,,,,,,,,,,,,,,,,-0.001851824,-0.388888889,0,0,0,,,,,,,MOTOR,LB,m,y,./images/MOTORLB.png,,,,,,,,z,0,1.0127,,,,,,,,0,6,6,13,1
,,,,,,,,,,,,,,,,,198790,19,2022-01-28_16h42.47.029,lexical_decision_task_DD_L2,2021.2.3,Win32,59.73002031,,,,,,,,,,,0.632200001,1,,,,,,,,,,,,,,,,,,,,,,,,-0.001851824,-0.388888889,0,0,0,,,,,,,SAUCE,HB,z,y,./images/SAUCEHB.png,,,,,,,,z,1,0.632200001,,,,,,,,0,7,7,135,1
,,,,,,,,,,,,,,,,,198790,19,2022-01-28_16h42.47.029,lexical_decision_task_DD_L2,2021.2.3,Win32,59.73002031,,,,,,,,,,,0.6519,1,,,,,,,,,,,,,,,,,,,,,,,,-0.001851824,-0.388888889,0,0,0,,,,,,,WHISKY,C,z,y,./images/WHISKY.png,,,,,,,,z,1,0.6519,,,,,,,,0,8,8,167,1
,,,,,,,,,,,,,,,,,198790,19,2022-01-28_16h42.47.029,lexical_decision_task_DD_L2,2021.2.3,Win32,59.73002031,,,,,,,,,,,0.6767,1,,,,,,,,,,,,,,,,,,,,,,,,-0.001851824,-0.388888889,0,0,0,,,,,,,KITTEN,HB,m,y,./images/KITTENHB.png,,,,,,,,m,1,0.6767,,,,,,,,0,9,9,45,1
,,,,,,,,,,,,,,,,,198790,19,2022-01-28_16h42.47.029,lexical_decision_task_DD_L2,2021.2.3,Win32,59.73002031,,,,,,,,,,,0.6855,1,,,,,,,,,,,,,,,,,,,,,,,,-0.001851824,-0.388888889,0,0,0,,,,,,,DONKEY,LB,z,y,./images/DONKEYLB.png,,,,,,,,z,1,0.6855,,,,,,,,0,10,10,103,1
,,,,,,,,,,,,,,,,,198790,19,2022-01-28_16h42.47.029,lexical_decision_task_DD_L2,2021.2.3,Win32,59.73002031,,,,,,,,,,,0.7708,1,,,,,,,,,,,,,,,,,,,,,,,,-0.001851824,-0.388888889,0,0,0,,,,,,,PARCEL,HB,z,y,./images/PARCELHB.png,,,,,,,,z,1,0.7708,,,,,,,,0,11,11,102,1
,,,,,,,,,,,,,,,,,198790,19,2022-01-28_16h42.47.029,lexical_decision_task_DD_L2,2021.2.3,Win32,59.73002031,,,,,,,,,,,0.837700001,1,,,,,,,,,,,,,,,,,,,,,,,,-0.001851824,-0.388888889,0,0,0,,,,,,,PISTOL,C,z,y,./images/PISTOL.png,,,,,,,,z,1,0.837700001,,,,,,,,0,12,12,113,1
,,,,,,,,,,,,,,,,,198790,19,2022-01-28_16h42.47.029,lexical_decision_task_DD_L2,2021.2.3,Win32,59.73002031,,,,,,,,,,,1.0288,1,,,,,,,,,,,,,,,,,,,,,,,,-0.001851824,-0.388888889,0,0,0,,,,,,,ATTIC,HB,m,y,./images/ATTICHB.png,,,,,,,,m,1,1.0288,,,,,,,,0,13,13,27,1
,,,,,,,,,,,,,,,,,198790,19,2022-01-28_16h42.47.029,lexical_decision_task_DD_L2,2021.2.3,Win32,59.73002031,,,,,,,,,,,0.834099999,1,,,,,,,,,,,,,,,,,,,,,,,,-0.001851824,-0.388888889,0,0,0,,,,,,,LIZARD,C,m,y,./images/LIZARD.png,,,,,,,,m,1,0.834099999,,,,,,,,0,14,14,44,1
,,,,,,,,,,,,,,,,,198790,19,2022-01-28_16h42.47.029,lexical_decision_task_DD_L2,2021.2.3,Win32,59.73002031,,,,,,,,,,,0.7807,1,,,,,,,,,,,,,,,,,,,,,,,,-0.001851824,-0.388888889,0,0,0,,,,,,,SWEAT,HB,m,y,./images/SWEATHB.png,,,,,,,,m,1,0.7807,,,,,,,,0,15,15,66,1
,,,,,,,,,,,,,,,,,198790,19,2022-01-28_16h42.47.029,lexical_decision_task_DD_L2,2021.2.3,Win32,59.73002031,,,,,,,,,,,0.9141,1,,,,,,,,,,,,,,,,,,,,,,,,-0.001851824,-0.388888889,0,0,0,,,,,,,BANANA,LB,z,y,./images/BANANALB.png,,,,,,,,z,1,0.9141,,,,,,,,0,16,16,154,1
,,,,,,,,,,,,,,,,,198790,19,2022-01-28_16h42.47.029,lexical_decision_task_DD_L2,2021.2.3,Win32,59.73002031,,,,,,,,,,,0.7116,1,,,,,,,,,,,,,,,,,,,,,,,,-0.001851824,-0.388888889,0,0,0,,,,,,,BOXER,LB,z,y,./images/BOXERLB.png,,,,,,,,z,1,0.7116,,,,,,,,0,17,17,88,1
,,,,,,,,,,,,,,,,,198790,19,2022-01-28_16h42.47.029,lexical_decision_task_DD_L2,2021.2.3,Win32,59.73002031,,,,,,,,,,,0.684,1,,,,,,,,,,,,,,,,,,,,,,,,-0.001851824,-0.388888889,0,0,0,,,,,,,CHERRY,HB,z,y,./images/CHERRYHB.png,,,,,,,,z,1,0.684,,,,,,,,0,18,18,138,1
,,,,,,,,,,,,,,,,,198790,19,2022-01-28_16h42.47.029,lexical_decision_task_DD_L2,2021.2.3,Win32,59.73002031,,,,,,,,,,,0.6492,1,,,,,,,,,,,,,,,,,,,,,,,,-0.001851824,-0.388888889,0,0,0,,,,,,,MUFFIN,LB,m,y,./images/MUFFINLB.png,,,,,,,,m,1,0.6492,,,,,,,,0,19,19,55,1
,,,,,,,,,,,,,,,,,198790,19,2022-01-28_16h42.47.029,lexical_decision_task_DD_L2,2021.2.3,Win32,59.73002031,,,,,,,,,,,0.7612,1,,,,,,,,,,,,,,,,,,,,,,,,-0.001851824,-0.388888889,0,0,0,,,,,,,PARADE,C,z,y,./images/PARADE.png,,,,,,,,z,1,0.7612,,,,,,,,0,20,20,101,1
,,,,,,,,,,,,,,,,,198790,19,2022-01-28_16h42.47.029,lexical_decision_task_DD_L2,2021.2.3,Win32,59.73002031,,,,,,,,,,,0.6972,1,,,,,,,,,,,,,,,,,,,,,,,,-0.001851824,-0.388888889,0,0,0,,,,,,,FINGER,HB,m,y,./images/FINGERHB.png,,,,,,,,m,1,0.6972,,,,,,,,0,21,21,3,1
,,,,,,,,,,,,,,,,,198790,19,2022-01-28_16h42.47.029,lexical_decision_task_DD_L2,2021.2.3,Win32,59.73002031,,,,,,,,,,,0.775,0,,,,,,,,,,,,,,,,,,,,,,,,-0.001851824,-0.388888889,0,0,0,,,,,,,SWING,LB,m,y,./images/SWINGLB.png,,,,,,,,z,0,0.775,,,,,,,,0,22,22,40,1
,,,,,,,,,,,,,,,,,198790,19,2022-01-28_16h42.47.029,lexical_decision_task_DD_L2,2021.2.3,Win32,59.73002031,,,,,,,,,,,0.7612,1,,,,,,,,,,,,,,,,,,,,,,,,-0.001851824,-0.388888889,0,0,0,,,,,,,SNAKE,LB,z,y,./images/SNAKELB.png,,,,,,,,z,1,0.7612,,,,,,,,0,23,23,124,1
,,,,,,,,,,,,,,,,,198790,19,2022-01-28_16h42.47.029,lexical_decision_task_DD_L2,2021.2.3,Win32,59.73002031,,,,,,,,,,,0.824,1,,,,,,,,,,,,,,,,,,,,,,,,-0.001851824,-0.388888889,0,0,0,,,,,,,CLIFF,C,z,y,./images/CLIFF.png,,,,,,,,z,1,0.824,,,,,,,,0,24,24,92,1
,,,,,,,,,,,,,,,,,198790,19,2022-01-28_16h42.47.029,lexical_decision_task_DD_L2,2021.2.3,Win32,59.73002031,,,,,,,,,,,0.61,0,,,,,,,,,,,,,,,,,,,,,,,,-0.001851824,-0.388888889,0,0,0,,,,,,,SUNSET,LB,m,y,./images/SUNSETLB.png,,,,,,,,z,0,0.61,,,,,,,,0,25,25,82,1
,,,,,,,,,,,,,,,,,198790,19,2022-01-28_16h42.47.029,lexical_decision_task_DD_L2,2021.2.3,Win32,59.73002031,,,,,,,,,,,0.836599999,1,,,,,,,,,,,,,,,,,,,,,,,,-0.001851824,-0.388888889,0,0,0,,,,,,,DESERT,LB,z,y,./images/DESERTLB.png,,,,,,,,z,1,0.836599999,,,,,,,,0,26,26,136,1
,,,,,,,,,,,,,,,,,198790,19,2022-01-28_16h42.47.029,lexical_decision_task_DD_L2,2021.2.3,Win32,59.73002031,,,,,,,,,,,0.8933,1,,,,,,,,,,,,,,,,,,,,,,,,-0.001851824,-0.388888889,0,0,0,,,,,,,BUBBLE,C,z,y,./images/BUBBLE.png,,,,,,,,z,1,0.8933,,,,,,,,0,27,27,155,1
,,,,,,,,,,,,,,,,,198790,19,2022-01-28_16h42.47.029,lexical_decision_task_DD_L2,2021.2.3,Win32,59.73002031,,,,,,,,,,,0.7377,1,,,,,,,,,,,,,,,,,,,,,,,,-0.001851824,-0.388888889,0,0,0,,,,,,,CASINO,LB,z,y,./images/CASINOLB.png,,,,,,,,z,1,0.7377,,,,,,,,0,28,28,112,1
,,,,,,,,,,,,,,,,,198790,19,2022-01-28_16h42.47.029,lexical_decision_task_DD_L2,2021.2.3,Win32,59.73002031,,,,,,,,,,,0.6699,1,,,,,,,,,,,,,,,,,,,,,,,,-0.001851824,-0.388888889,0,0,0,,,,,,,STOVE,C,z,y,./images/STOVE.png,,,,,,,,z,1,0.6699,,,,,,,,0,29,29,86,1
,,,,,,,,,,,,,,,,,198790,19,2022-01-28_16h42.47.029,lexical_decision_task_DD_L2,2021.2.3,Win32,59.73002031,,,,,,,,,,,0.7217,1,,,,,,,,,,,,,,,,,,,,,,,,-0.001851824,-0.388888889,0,0,0,,,,,,,PLANET,C,z,y,./images/PLANET.png,,,,,,,,z,1,0.7217,,,,,,,,0,30,30,164,1
,,,,,,,,,,,,,,,,,198790,19,2022-01-28_16h42.47.029,lexical_decision_task_DD_L2,2021.2.3,Win32,59.73002031,,,,,,,,,,,0.8943,1,,,,,,,,,,,,,,,,,,,,,,,,-0.001851824,-0.388888889,0,0,0,,,,,,,KIDNEY,HB,m,y,./images/KIDNEYHB.png,,,,,,,,m,1,0.8943,,,,,,,,0,31,31,21,1
,,,,,,,,,,,,,,,,,198790,19,2022-01-28_16h42.47.029,lexical_decision_task_DD_L2,2021.2.3,Win32,59.73002031,,,,,,,,,,,0.5595,1,,,,,,,,,,,,,,,,,,,,,,,,-0.001851824,-0.388888889,0,0,0,,,,,,,TOMATO,HB,m,y,./images/TOMATOHB.png,,,,,,,,m,1,0.5595,,,,,,,,0,32,32,0,1
,,,,,,,,,,,,,,,,,198790,19,2022-01-28_16h42.47.029,lexical_decision_task_DD_L2,2021.2.3,Win32,59.73002031,,,,,,,,,,,0.6111,0,,,,,,,,,,,,,,,,,,,,,,,,-0.001851824,-0.388888889,0,0,0,,,,,,,BASKET,C,z,y,./images/BASKET.png,,,,,,,,m,0,0.6111,,,,,,,,0,33,33,128,1
,,,,,,,,,,,,,,,,,198790,19,2022-01-28_16h42.47.029,lexical_decision_task_DD_L2,2021.2.3,Win32,59.73002031,,,,,,,,,,,0.6023,1,,,,,,,,,,,,,,,,,,,,,,,,-0.001851824,-0.388888889,0,0,0,,,,,,,TWINS,HB,m,y,./images/TWINSHB.png,,,,,,,,m,1,0.6023,,,,,,,,0,34,34,60,1
,,,,,,,,,,,,,,,,,198790,19,2022-01-28_16h42.47.029,lexical_decision_task_DD_L2,2021.2.3,Win32,59.73002031,,,,,,,,,,,0.6374,1,,,,,,,,,,,,,,,,,,,,,,,,-0.001851824,-0.388888889,0,0,0,,,,,,,RHINO,HB,m,y,./images/RHINOHB.png,,,,,,,,m,1,0.6374,,,,,,,,0,35,35,9,1
,,,,,,,,,,,,,,,,,198790,19,2022-01-28_16h42.47.029,lexical_decision_task_DD_L2,2021.2.3,Win32,59.73002031,,,,,,,,,,,0.6203,1,,,,,,,,,,,,,,,,,,,,,,,,-0.001851824,-0.388888889,0,0,0,,,,,,,MUMMY,LB,z,y,./images/MUMMYLB.png,,,,,,,,z,1,0.6203,,,,,,,,0,36,36,130,1
,,,,,,,,,,,,,,,,,198790,19,2022-01-28_16h42.47.029,lexical_decision_task_DD_L2,2021.2.3,Win32,59.73002031,,,,,,,,,,,0.6609,1,,,,,,,,,,,,,,,,,,,,,,,,-0.001851824,-0.388888889,0,0,0,,,,,,,PLANK,LB,m,y,./images/PLANKLB.png,,,,,,,,m,1,0.6609,,,,,,,,0,37,37,1,1
,,,,,,,,,,,,,,,,,198790,19,2022-01-28_16h42.47.029,lexical_decision_task_DD_L2,2021.2.3,Win32,59.73002031,,,,,,,,,,,0.9307,1,,,,,,,,,,,,,,,,,,,,,,,,-0.001851824,-0.388888889,0,0,0,,,,,,,TULIP,C,m,y,./images/TULIP.png,,,,,,,,m,1,0.9307,,,,,,,,0,38,38,8,1
,,,,,,,,,,,,,,,,,198790,19,2022-01-28_16h42.47.029,lexical_decision_task_DD_L2,2021.2.3,Win32,59.73002031,,,,,,,,,,,0.8394,0,,,,,,,,,,,,,,,,,,,,,,,,-0.001851824,-0.388888889,0,0,0,,,,,,,SLOPE,HB,z,y,./images/SLOPEHB.png,,,,,,,,m,0,0.8394,,,,,,,,0,39,39,114,1
,,,,,,,,,,,,,,,,,198790,19,2022-01-28_16h42.47.029,lexical_decision_task_DD_L2,2021.2.3,Win32,59.73002031,,,,,,,,,,,0.647099999,0,,,,,,,,,,,,,,,,,,,,,,,,-0.001851824,-0.388888889,0,0,0,,,,,,,BAMBOO,C,z,y,./images/BAMBOO.png,,,,,,,,m,0,0.647099999,,,,,,,,0,40,40,89,1
,,,,,,,,,,,,,,,,,198790,19,2022-01-28_16h42.47.029,lexical_decision_task_DD_L2,2021.2.3,Win32,59.73002031,,,,,,,,,,,0.8899,1,,,,,,,,,,,,,,,,,,,,,,,,-0.001851824,-0.388888889,0,0,0,space,,,,,,CRUST,LB,m,y,./images/CRUSTLB.png,2.2998,,,,,,,m,1,0.8899,,,,,,,,0,41,41,79,1
,,,,,,,,,,,,,,,,,198790,19,2022-01-28_16h42.47.029,lexical_decision_task_DD_L2,2021.2.3,Win32,59.73002031,,,,,,,,,,,0.6845,1,,,,,,,,,,,,,,,,,,,,,,,,-0.001851824,-0.388888889,0,0,0,,,,,,,STOOL,LB,z,y,./images/STOOLLB.png,,,,,,,,z,1,0.6845,,,,,,,,0,42,42,127,1
,,,,,,,,,,,,,,,,,198790,19,2022-01-28_16h42.47.029,lexical_decision_task_DD_L2,2021.2.3,Win32,59.73002031,,,,,,,,,,,0.606,1,,,,,,,,,,,,,,,,,,,,,,,,-0.001851824,-0.388888889,0,0,0,,,,,,,STAIN,HB,z,y,./images/STAINHB.png,,,,,,,,z,1,0.606,,,,,,,,0,43,43,90,1
,,,,,,,,,,,,,,,,,198790,19,2022-01-28_16h42.47.029,lexical_decision_task_DD_L2,2021.2.3,Win32,59.73002031,,,,,,,,,,,0.572400001,1,,,,,,,,,,,,,,,,,,,,,,,,-0.001851824,-0.388888889,0,0,0,,,,,,,CANOE,LB,z,y,./images/CANOELB.png,,,,,,,,z,1,0.572400001,,,,,,,,0,44,44,142,1
,,,,,,,,,,,,,,,,,198790,19,2022-01-28_16h42.47.029,lexical_decision_task_DD_L2,2021.2.3,Win32,59.73002031,,,,,,,,,,,0.680099999,1,,,,,,,,,,,,,,,,,,,,,,,,-0.001851824,-0.388888889,0,0,0,,,,,,,WEASEL,C,m,y,./images/WEASEL.png,,,,,,,,m,1,0.680099999,,,,,,,,0,45,45,80,1
,,,,,,,,,,,,,,,,,198790,19,2022-01-28_16h42.47.029,lexical_decision_task_DD_L2,2021.2.3,Win32,59.73002031,,,,,,,,,,,0.6772,1,,,,,,,,,,,,,,,,,,,,,,,,-0.001851824,-0.388888889,0,0,0,,,,,,,DOUGH,LB,m,y,./images/DOUGHLB.png,,,,,,,,m,1,0.6772,,,,,,,,0,46,46,19,1
,,,,,,,,,,,,,,,,,198790,19,2022-01-28_16h42.47.029,lexical_decision_task_DD_L2,2021.2.3,Win32,59.73002031,,,,,,,,,,,0.744,1,,,,,,,,,,,,,,,,,,,,,,,,-0.001851824,-0.388888889,0,0,0,,,,,,,LAGOON,C,z,y,./images/LAGOON.png,,,,,,,,z,1,0.744,,,,,,,,0,47,47,131,1
,,,,,,,,,,,,,,,,,198790,19,2022-01-28_16h42.47.029,lexical_decision_task_DD_L2,2021.2.3,Win32,59.73002031,,,,,,,,,,,0.5766,0,,,,,,,,,,,,,,,,,,,,,,,,-0.001851824,-0.388888889,0,0,0,,,,,,,FLASK,HB,z,y,./images/FLASKHB.png,,,,,,,,m,0,0.5766,,,,,,,,0,48,48,156,1
,,,,,,,,,,,,,,,,,198790,19,2022-01-28_16h42.47.029,lexical_decision_task_DD_L2,2021.2.3,Win32,59.73002031,,,,,,,,,,,0.7212,1,,,,,,,,,,,,,,,,,,,,,,,,-0.001851824,-0.388888889,0,0,0,,,,,,,MONKEY,HB,z,y,./images/MONKEYHB.png,,,,,,,,z,1,0.7212,,,,,,,,0,49,49,129,1
,,,,,,,,,,,,,,,,,198790,19,2022-01-28_16h42.47.029,lexical_decision_task_DD_L2,2021.2.3,Win32,59.73002031,,,,,,,,,,,0.9311,0,,,,,,,,,,,,,,,,,,,,,,,,-0.001851824,-0.388888889,0,0,0,,,,,,,STORM,HB,m,y,./images/STORMHB.png,,,,,,,,z,0,0.9311,,,,,,,,0,50,50,30,1
,,,,,,,,,,,,,,,,,198790,19,2022-01-28_16h42.47.029,lexical_decision_task_DD_L2,2021.2.3,Win32,59.73002031,,,,,,,,,,,0.6829,1,,,,,,,,,,,,,,,,,,,,,,,,-0.001851824,-0.388888889,0,0,0,,,,,,,JELLY,LB,m,y,./images/JELLYLB.png,,,,,,,,m,1,0.6829,,,,,,,,0,51,51,64,1
,,,,,,,,,,,,,,,,,198790,19,2022-01-28_16h42.47.029,lexical_decision_task_DD_L2,2021.2.3,Win32,59.73002031,,,,,,,,,,,0.5446,1,,,,,,,,,,,,,,,,,,,,,,,,-0.001851824,-0.388888889,0,0,0,,,,,,,FALCON,LB,m,y,./images/FALCONLB.png,,,,,,,,m,1,0.5446,,,,,,,,0,52,52,28,1
,,,,,,,,,,,,,,,,,198790,19,2022-01-28_16h42.47.029,lexical_decision_task_DD_L2,2021.2.3,Win32,59.73002031,,,,,,,,,,,0.681200001,1,,,,,,,,,,,,,,,,,,,,,,,,-0.001851824,-0.388888889,0,0,0,,,,,,,BARREL,C,m,y,./images/BARREL.png,,,,,,,,m,1,0.681200001,,,,,,,,0,53,53,32,1
,,,,,,,,,,,,,,,,,198790,19,2022-01-28_16h42.47.029,lexical_decision_task_DD_L2,2021.2.3,Win32,59.73002031,,,,,,,,,,,0.955,0,,,,,,,,,,,,,,,,,,,,,,,,-0.001851824,-0.388888889,0,0,0,,,,,,,GRAIN,HB,m,y,./images/GRAINHB.png,,,,,,,,z,0,0.955,,,,,,,,0,54,54,75,1
,,,,,,,,,,,,,,,,,198790,19,2022-01-28_16h42.47.029,lexical_decision_task_DD_L2,2021.2.3,Win32,59.73002031,,,,,,,,,,,0.6635,1,,,,,,,,,,,,,,,,,,,,,,,,-0.001851824,-0.388888889,0,0,0,,,,,,,SHIELD,HB,z,y,./images/SHIELDHB.png,,,,,,,,z,1,0.6635,,,,,,,,0,55,55,132,1
,,,,,,,,,,,,,,,,,198790,19,2022-01-28_16h42.47.029,lexical_decision_task_DD_L2,2021.2.3,Win32,59.73002031,,,,,,,,,,,0.8004,1,,,,,,,,,,,,,,,,,,,,,,,,-0.001851824,-0.388888889,0,0,0,,,,,,,VALLEY,C,z,y,./images/VALLEY.png,,,,,,,,z,1,0.8004,,,,,,,,0,56,56,152,1
,,,,,,,,,,,,,,,,,198790,19,2022-01-28_16h42.47.029,lexical_decision_task_DD_L2,2021.2.3,Win32,59.73002031,,,,,,,,,,,0.7114,1,,,,,,,,,,,,,,,,,,,,,,,,-0.001851824,-0.388888889,0,0,0,,,,,,,CRATER,HB,z,y,./images/CRATERHB.png,,,,,,,,z,1,0.7114,,,,,,,,0,57,57,87,1
,,,,,,,,,,,,,,,,,198790,19,2022-01-28_16h42.47.029,lexical_decision_task_DD_L2,2021.2.3,Win32,59.73002031,,,,,,,,,,,0.616400001,1,,,,,,,,,,,,,,,,,,,,,,,,-0.001851824,-0.388888889,0,0,0,,,,,,,WAGON,LB,z,y,./images/WAGONLB.png,,,,,,,,z,1,0.616400001,,,,,,,,0,58,58,91,1
,,,,,,,,,,,,,,,,,198790,19,2022-01-28_16h42.47.029,lexical_decision_task_DD_L2,2021.2.3,Win32,59.73002031,,,,,,,,,,,0.5148,1,,,,,,,,,,,,,,,,,,,,,,,,-0.001851824,-0.388888889,0,0,0,,,,,,,LLAMA,C,z,y,./images/LLAMA.png,,,,,,,,z,1,0.5148,,,,,,,,0,59,59,119,1
,,,,,,,,,,,,,,,,,198790,19,2022-01-28_16h42.47.029,lexical_decision_task_DD_L2,2021.2.3,Win32,59.73002031,,,,,,,,,,,0.682799999,1,,,,,,,,,,,,,,,,,,,,,,,,-0.001851824,-0.388888889,0,0,0,,,,,,,PEARL,LB,m,y,./images/PEARLLB.png,,,,,,,,m,1,0.682799999,,,,,,,,0,60,60,46,1
,,,,,,,,,,,,,,,,,198790,19,2022-01-28_16h42.47.029,lexical_decision_task_DD_L2,2021.2.3,Win32,59.73002031,,,,,,,,,,,0.715,1,,,,,,,,,,,,,,,,,,,,,,,,-0.001851824,-0.388888889,0,0,0,,,,,,,WHEEL,C,z,y,./images/WHEEL.png,,,,,,,,z,1,0.715,,,,,,,,0,61,61,161,1
,,,,,,,,,,,,,,,,,198790,19,2022-01-28_16h42.47.029,lexical_decision_task_DD_L2,2021.2.3,Win32,59.73002031,,,,,,,,,,,0.7232,1,,,,,,,,,,,,,,,,,,,,,,,,-0.001851824,-0.388888889,0,0,0,,,,,,,COOKER,HB,m,y,./images/COOKERHB.png,,,,,,,,m,1,0.7232,,,,,,,,0,62,62,69,1
,,,,,,,,,,,,,,,,,198790,19,2022-01-28_16h42.47.029,lexical_decision_task_DD_L2,2021.2.3,Win32,59.73002031,,,,,,,,,,,0.760900001,1,,,,,,,,,,,,,,,,,,,,,,,,-0.001851824,-0.388888889,0,0,0,,,,,,,CHAIN,HB,z,y,./images/CHAINHB.png,,,,,,,,z,1,0.760900001,,,,,,,,0,63,63,126,1
,,,,,,,,,,,,,,,,,198790,19,2022-01-28_16h42.47.029,lexical_decision_task_DD_L2,2021.2.3,Win32,59.73002031,,,,,,,,,,,0.5701,1,,,,,,,,,,,,,,,,,,,,,,,,-0.001851824,-0.388888889,0,0,0,,,,,,,PEACH,C,m,y,./images/PEACH.png,,,,,,,,m,1,0.5701,,,,,,,,0,64,64,35,1
,,,,,,,,,,,,,,,,,198790,19,2022-01-28_16h42.47.029,lexical_decision_task_DD_L2,2021.2.3,Win32,59.73002031,,,,,,,,,,,0.842400001,1,,,,,,,,,,,,,,,,,,,,,,,,-0.001851824,-0.388888889,0,0,0,,,,,,,SPORT,HB,m,y,./images/SPORTHB.png,,,,,,,,m,1,0.842400001,,,,,,,,0,65,65,48,1
,,,,,,,,,,,,,,,,,198790,19,2022-01-28_16h42.47.029,lexical_decision_task_DD_L2,2021.2.3,Win32,59.73002031,,,,,,,,,,,0.615,1,,,,,,,,,,,,,,,,,,,,,,,,-0.001851824,-0.388888889,0,0,0,,,,,,,MIDGET,LB,z,y,./images/MIDGETLB.png,,,,,,,,z,1,0.615,,,,,,,,0,66,66,160,1
,,,,,,,,,,,,,,,,,198790,19,2022-01-28_16h42.47.029,lexical_decision_task_DD_L2,2021.2.3,Win32,59.73002031,,,,,,,,,,,0.9671,1,,,,,,,,,,,,,,,,,,,,,,,,-0.001851824,-0.388888889,0,0,0,,,,,,,RAZOR,LB,z,y,./images/RAZORLB.png,,,,,,,,z,1,0.9671,,,,,,,,0,67,67,118,1
,,,,,,,,,,,,,,,,,198790,19,2022-01-28_16h42.47.029,lexical_decision_task_DD_L2,2021.2.3,Win32,59.73002031,,,,,,,,,,,1.1986,1,,,,,,,,,,,,,,,,,,,,,,,,-0.001851824,-0.388888889,0,0,0,,,,,,,FOLDER,HB,m,y,./images/FOLDERHB.png,,,,,,,,m,1,1.1986,,,,,,,,0,68,68,42,1
,,,,,,,,,,,,,,,,,198790,19,2022-01-28_16h42.47.029,lexical_decision_task_DD_L2,2021.2.3,Win32,59.73002031,,,,,,,,,,,0.829400001,0,,,,,,,,,,,,,,,,,,,,,,,,-0.001851824,-0.388888889,0,0,0,,,,,,,CRUMB,C,m,y,./images/CRUMB.png,,,,,,,,z,0,0.829400001,,,,,,,,0,69,69,29,1
,,,,,,,,,,,,,,,,,198790,19,2022-01-28_16h42.47.029,lexical_decision_task_DD_L2,2021.2.3,Win32,59.73002031,,,,,,,,,,,0.6449,1,,,,,,,,,,,,,,,,,,,,,,,,-0.001851824,-0.388888889,0,0,0,,,,,,,SAUNA,HB,z,y,./images/SAUNAHB.png,,,,,,,,z,1,0.6449,,,,,,,,0,70,70,117,1
,,,,,,,,,,,,,,,,,198790,19,2022-01-28_16h42.47.029,lexical_decision_task_DD_L2,2021.2.3,Win32,59.73002031,,,,,,,,,,,0.5168,1,,,,,,,,,,,,,,,,,,,,,,,,-0.001851824,-0.388888889,0,0,0,,,,,,,BOILER,HB,z,y,./images/BOILERHB.png,,,,,,,,z,1,0.5168,,,,,,,,0,71,71,120,1
,,,,,,,,,,,,,,,,,198790,19,2022-01-28_16h42.47.029,lexical_decision_task_DD_L2,2021.2.3,Win32,59.73002031,,,,,,,,,,,0.637599999,1,,,,,,,,,,,,,,,,,,,,,,,,-0.001851824,-0.388888889,0,0,0,,,,,,,TOWEL,LB,z,y,./images/TOWELLB.png,,,,,,,,z,1,0.637599999,,,,,,,,0,72,72,85,1
,,,,,,,,,,,,,,,,,198790,19,2022-01-28_16h42.47.029,lexical_decision_task_DD_L2,2021.2.3,Win32,59.73002031,,,,,,,,,,,0.891400001,1,,,,,,,,,,,,,,,,,,,,,,,,-0.001851824,-0.388888889,0,0,0,,,,,,,MUSCLE,LB,m,y,./images/MUSCLELB.png,,,,,,,,m,1,0.891400001,,,,,,,,0,73,73,4,1
,,,,,,,,,,,,,,,,,198790,19,2022-01-28_16h42.47.029,lexical_decision_task_DD_L2,2021.2.3,Win32,59.73002031,,,,,,,,,,,0.7286,1,,,,,,,,,,,,,,,,,,,,,,,,-0.001851824,-0.388888889,0,0,0,,,,,,,CLOUD,C,z,y,./images/CLOUD.png,,,,,,,,z,1,0.7286,,,,,,,,0,74,74,110,1
,,,,,,,,,,,,,,,,,198790,19,2022-01-28_16h42.47.029,lexical_decision_task_DD_L2,2021.2.3,Win32,59.73002031,,,,,,,,,,,0.7144,0,,,,,,,,,,,,,,,,,,,,,,,,-0.001851824,-0.388888889,0,0,0,,,,,,,SQUARE,HB,m,y,./images/SQUAREHB.png,,,,,,,,z,0,0.7144,,,,,,,,0,75,75,6,1
,,,,,,,,,,,,,,,,,198790,19,2022-01-28_16h42.47.029,lexical_decision_task_DD_L2,2021.2.3,Win32,59.73002031,,,,,,,,,,,0.784700001,1,,,,,,,,,,,,,,,,,,,,,,,,-0.001851824,-0.388888889,0,0,0,,,,,,,GLOVE,LB,z,y,./images/GLOVELB.png,,,,,,,,z,1,0.784700001,,,,,,,,0,76,76,157,1
,,,,,,,,,,,,,,,,,198790,19,2022-01-28_16h42.47.029,lexical_decision_task_DD_L2,2021.2.3,Win32,59.73002031,,,,,,,,,,,0.7634,1,,,,,,,,,,,,,,,,,,,,,,,,-0.001851824,-0.388888889,0,0,0,,,,,,,NOOSE,HB,m,y,./images/NOOSEHB.png,,,,,,,,m,1,0.7634,,,,,,,,0,77,77,72,1
,,,,,,,,,,,,,,,,,198790,19,2022-01-28_16h42.47.029,lexical_decision_task_DD_L2,2021.2.3,Win32,59.73002031,,,,,,,,,,,1.1264,1,,,,,,,,,,,,,,,,,,,,,,,,-0.001851824,-0.388888889,0,0,0,,,,,,,COUCH,C,m,y,./images/COUCH.png,,,,,,,,m,1,1.1264,,,,,,,,0,78,78,77,1
,,,,,,,,,,,,,,,,,198790,19,2022-01-28_16h42.47.029,lexical_decision_task_DD_L2,2021.2.3,Win32,59.73002031,,,,,,,,,,,0.697,1,,,,,,,,,,,,,,,,,,,,,,,,-0.001851824,-0.388888889,0,0,0,,,,,,,POODLE,HB,m,y,./images/POODLEHB.png,,,,,,,,m,1,0.697,,,,,,,,0,79,79,81,1
,,,,,,,,,,,,,,,,,198790,19,2022-01-28_16h42.47.029,lexical_decision_task_DD_L2,2021.2.3,Win32,59.73002031,,,,,,,,,,,0.635,1,,,,,,,,,,,,,,,,,,,,,,,,-0.001851824,-0.388888889,0,0,0,,,,,,,CANDY,HB,z,y,./images/CANDYHB.png,,,,,,,,z,1,0.635,,,,,,,,0,80,80,123,1
,,,,,,,,,,,,,,,,,198790,19,2022-01-28_16h42.47.029,lexical_decision_task_DD_L2,2021.2.3,Win32,59.73002031,,,,,,,,,,,0.7576,1,,,,,,,,,,,,,,,,,,,,,,,,-0.001851824,-0.388888889,0,0,0,,,,,,,CANDLE,LB,m,y,./images/CANDLELB.png,,,,,,,,m,1,0.7576,,,,,,,,0,81,81,61,1
,,,,,,,,,,,,,,,,,198790,19,2022-01-28_16h42.47.029,lexical_decision_task_DD_L2,2021.2.3,Win32,59.73002031,,,,,,,,,,,0.6273,1,,,,,,,,,,,,,,,,,,,,,,,,-0.001851824,-0.388888889,0,0,0,,,,,,,BISHOP,LB,z,y,./images/BISHOPLB.png,,,,,,,,z,1,0.6273,,,,,,,,0,82,82,133,1
,,,,,,,,,,,,,,,,,198790,19,2022-01-28_16h42.47.029,lexical_decision_task_DD_L2,2021.2.3,Win32,59.73002031,,,,,,,,,,,0.6355,1,,,,,,,,,,,,,,,,,,,,,,,,-0.001851824,-0.388888889,0,0,0,space,,,,,,HAMMER,HB,z,y,./images/HAMMERHB.png,1.4068,,,,,,,z,1,0.6355,,,,,,,,0,83,83,159,1
,,,,,,,,,,,,,,,,,198790,19,2022-01-28_16h42.47.029,lexical_decision_task_DD_L2,2021.2.3,Win32,59.73002031,,,,,,,,,,,0.6754,1,,,,,,,,,,,,,,,,,,,,,,,,-0.001851824,-0.388888889,0,0,0,,,,,,,TIGER,LB,z,y,./images/TIGERLB.png,,,,,,,,z,1,0.6754,,,,,,,,0,84,84,121,1
,,,,,,,,,,,,,,,,,198790,19,2022-01-28_16h42.47.029,lexical_decision_task_DD_L2,2021.2.3,Win32,59.73002031,,,,,,,,,,,0.556,0,,,,,,,,,,,,,,,,,,,,,,,,-0.001851824,-0.388888889,0,0,0,,,,,,,QUILL,LB,m,y,./images/QUILLLB.png,,,,,,,,z,0,0.556,,,,,,,,0,85,85,31,1
,,,,,,,,,,,,,,,,,198790,19,2022-01-28_16h42.47.029,lexical_decision_task_DD_L2,2021.2.3,Win32,59.73002031,,,,,,,,,,,0.8046,1,,,,,,,,,,,,,,,,,,,,,,,,-0.001851824,-0.388888889,0,0,0,,,,,,,BANNER,LB,m,y,./images/BANNERLB.png,,,,,,,,m,1,0.8046,,,,,,,,0,86,86,52,1
,,,,,,,,,,,,,,,,,198790,19,2022-01-28_16h42.47.029,lexical_decision_task_DD_L2,2021.2.3,Win32,59.73002031,,,,,,,,,,,0.713700001,1,,,,,,,,,,,,,,,,,,,,,,,,-0.001851824,-0.388888889,0,0,0,,,,,,,SCREW,HB,m,y,./images/SCREWHB.png,,,,,,,,m,1,0.713700001,,,,,,,,0,87,87,24,1
,,,,,,,,,,,,,,,,,198790,19,2022-01-28_16h42.47.029,lexical_decision_task_DD_L2,2021.2.3,Win32,59.73002031,,,,,,,,,,,0.525,1,,,,,,,,,,,,,,,,,,,,,,,,-0.001851824,-0.388888889,0,0,0,,,,,,,SMOKER,C,m,y,./images/SMOKER.png,,,,,,,,m,1,0.525,,,,,,,,0,88,88,26,1
,,,,,,,,,,,,,,,,,198790,19,2022-01-28_16h42.47.029,lexical_decision_task_DD_L2,2021.2.3,Win32,59.73002031,,,,,,,,,,,0.5474,1,,,,,,,,,,,,,,,,,,,,,,,,-0.001851824,-0.388888889,0,0,0,,,,,,,CANYON,LB,m,y,./images/CANYONLB.png,,,,,,,,m,1,0.5474,,,,,,,,0,89,89,34,1
,,,,,,,,,,,,,,,,,198790,19,2022-01-28_16h42.47.029,lexical_decision_task_DD_L2,2021.2.3,Win32,59.73002031,,,,,,,,,,,0.6,0,,,,,,,,,,,,,,,,,,,,,,,,-0.001851824,-0.388888889,0,0,0,,,,,,,ARROW,HB,z,y,./images/ARROWHB.png,,,,,,,,m,0,0.6,,,,,,,,0,90,90,153,1
,,,,,,,,,,,,,,,,,198790,19,2022-01-28_16h42.47.029,lexical_decision_task_DD_L2,2021.2.3,Win32,59.73002031,,,,,,,,,,,0.6302,0,,,,,,,,,,,,,,,,,,,,,,,,-0.001851824,-0.388888889,0,0,0,,,,,,,MOOSE,HB,m,y,./images/MOOSEHB.png,,,,,,,,z,0,0.6302,,,,,,,,0,91,91,57,1
,,,,,,,,,,,,,,,,,198790,19,2022-01-28_16h42.47.029,lexical_decision_task_DD_L2,2021.2.3,Win32,59.73002031,,,,,,,,,,,1.243099999,1,,,,,,,,,,,,,,,,,,,,,,,,-0.001851824,-0.388888889,0,0,0,,,,,,,MAMMAL,C,z,y,./images/MAMMAL.png,,,,,,,,z,1,1.243099999,,,,,,,,0,92,92,146,1
,,,,,,,,,,,,,,,,,198790,19,2022-01-28_16h42.47.029,lexical_decision_task_DD_L2,2021.2.3,Win32,59.73002031,,,,,,,,,,,0.6197,1,,,,,,,,,,,,,,,,,,,,,,,,-0.001851824,-0.388888889,0,0,0,,,,,,,PIMPLE,C,m,y,./images/PIMPLE.png,,,,,,,,m,1,0.6197,,,,,,,,0,93,93,71,1
,,,,,,,,,,,,,,,,,198790,19,2022-01-28_16h42.47.029,lexical_decision_task_DD_L2,2021.2.3,Win32,59.73002031,,,,,,,,,,,0.627599999,1,,,,,,,,,,,,,,,,,,,,,,,,-0.001851824,-0.388888889,0,0,0,,,,,,,BONNET,C,m,y,./images/BONNET.png,,,,,,,,m,1,0.627599999,,,,,,,,0,94,94,11,1
,,,,,,,,,,,,,,,,,198790,19,2022-01-28_16h42.47.029,lexical_decision_task_DD_L2,2021.2.3,Win32,59.73002031,,,,,,,,,,,0.723299999,0,,,,,,,,,,,,,,,,,,,,,,,,-0.001851824,-0.388888889,0,0,0,,,,,,,PENCE,LB,m,y,./images/PENCELB.png,,,,,,,,z,0,0.723299999,,,,,,,,0,95,95,16,1
,,,,,,,,,,,,,,,,,198790,19,2022-01-28_16h42.47.029,lexical_decision_task_DD_L2,2021.2.3,Win32,59.73002031,,,,,,,,,,,2.2849,1,,,,,,,,,,,,,,,,,,,,,,,,-0.001851824,-0.388888889,0,0,0,,,,,,,STATUE,HB,z,y,./images/STATUEHB.png,,,,,,,,z,1,2.2849,,,,,,,,0,96,96,150,1
,,,,,,,,,,,,,,,,,198790,19,2022-01-28_16h42.47.029,lexical_decision_task_DD_L2,2021.2.3,Win32,59.73002031,,,,,,,,,,,1.26,1,,,,,,,,,,,,,,,,,,,,,,,,-0.001851824,-0.388888889,0,0,0,,,,,,,CRADLE,C,m,y,./images/CRADLE.png,,,,,,,,m,1,1.26,,,,,,,,0,97,97,20,1
,,,,,,,,,,,,,,,,,198790,19,2022-01-28_16h42.47.029,lexical_decision_task_DD_L2,2021.2.3,Win32,59.73002031,,,,,,,,,,,0.748099999,1,,,,,,,,,,,,,,,,,,,,,,,,-0.001851824,-0.388888889,0,0,0,,,,,,,BELLY,LB,m,y,./images/BELLYLB.png,,,,,,,,m,1,0.748099999,,,,,,,,0,98,98,10,1
,,,,,,,,,,,,,,,,,198790,19,2022-01-28_16h42.47.029,lexical_decision_task_DD_L2,2021.2.3,Win32,59.73002031,,,,,,,,,,,1.410099999,1,,,,,,,,,,,,,,,,,,,,,,,,-0.001851824,-0.388888889,0,0,0,,,,,,,HOCKEY,C,z,y,./images/HOCKEY.png,,,,,,,,z,1,1.410099999,,,,,,,,0,99,99,116,1
,,,,,,,,,,,,,,,,,198790,19,2022-01-28_16h42.47.029,lexical_decision_task_DD_L2,2021.2.3,Win32,59.73002031,,,,,,,,,,,1.1976,1,,,,,,,,,,,,,,,,,,,,,,,,-0.001851824,-0.388888889,0,0,0,,,,,,,DIVER,HB,z,y,./images/DIVERHB.png,,,,,,,,z,1,1.1976,,,,,,,,0,100,100,93,1
,,,,,,,,,,,,,,,,,198790,19,2022-01-28_16h42.47.029,lexical_decision_task_DD_L2,2021.2.3,Win32,59.73002031,,,,,,,,,,,1.0273,1,,,,,,,,,,,,,,,,,,,,,,,,-0.001851824,-0.388888889,0,0,0,,,,,,,LITTER,HB,m,y,./images/LITTERHB.png,,,,,,,,m,1,1.0273,,,,,,,,0,101,101,78,1
,,,,,,,,,,,,,,,,,198790,19,2022-01-28_16h42.47.029,lexical_decision_task_DD_L2,2021.2.3,Win32,59.73002031,,,,,,,,,,,0.831,1,,,,,,,,,,,,,,,,,,,,,,,,-0.001851824,-0.388888889,0,0,0,,,,,,,TRIPOD,HB,m,y,./images/TRIPODHB.png,,,,,,,,m,1,0.831,,,,,,,,0,102,102,54,1
,,,,,,,,,,,,,,,,,198790,19,2022-01-28_16h42.47.029,lexical_decision_task_DD_L2,2021.2.3,Win32,59.73002031,,,,,,,,,,,0.6729,1,,,,,,,,,,,,,,,,,,,,,,,,-0.001851824,-0.388888889,0,0,0,,,,,,,GRANNY,C,z,y,./images/GRANNY.png,,,,,,,,z,1,0.6729,,,,,,,,0,103,103,104,1
,,,,,,,,,,,,,,,,,198790,19,2022-01-28_16h42.47.029,lexical_decision_task_DD_L2,2021.2.3,Win32,59.73002031,,,,,,,,,,,0.663900001,1,,,,,,,,,,,,,,,,,,,,,,,,-0.001851824,-0.388888889,0,0,0,,,,,,,BROOM,HB,z,y,./images/BROOMHB.png,,,,,,,,z,1,0.663900001,,,,,,,,0,104,104,162,1
,,,,,,,,,,,,,,,,,198790,19,2022-01-28_16h42.47.029,lexical_decision_task_DD_L2,2021.2.3,Win32,59.73002031,,,,,,,,,,,0.9147,1,,,,,,,,,,,,,,,,,,,,,,,,-0.001851824,-0.388888889,0,0,0,,,,,,,HEATER,C,z,y,./images/HEATER.png,,,,,,,,z,1,0.9147,,,,,,,,0,105,105,140,1
,,,,,,,,,,,,,,,,,198790,19,2022-01-28_16h42.47.029,lexical_decision_task_DD_L2,2021.2.3,Win32,59.73002031,,,,,,,,,,,1.0963,1,,,,,,,,,,,,,,,,,,,,,,,,-0.001851824,-0.388888889,0,0,0,,,,,,,ENGINE,C,z,y,./images/ENGINE.png,,,,,,,,z,1,1.0963,,,,,,,,0,106,106,122,1
,,,,,,,,,,,,,,,,,198790,19,2022-01-28_16h42.47.029,lexical_decision_task_DD_L2,2021.2.3,Win32,59.73002031,,,,,,,,,,,0.7022,1,,,,,,,,,,,,,,,,,,,,,,,,-0.001851824,-0.388888889,0,0,0,,,,,,,SAILOR,LB,m,y,./images/SAILORLB.png,,,,,,,,m,1,0.7022,,,,,,,,0,107,107,67,1
,,,,,,,,,,,,,,,,,198790,19,2022-01-28_16h42.47.029,lexical_decision_task_DD_L2,2021.2.3,Win32,59.73002031,,,,,,,,,,,0.6108,1,,,,,,,,,,,,,,,,,,,,,,,,-0.001851824,-0.388888889,0,0,0,,,,,,,MOSQUE,LB,m,y,./images/MOSQUELB.png,,,,,,,,m,1,0.6108,,,,,,,,0,108,108,43,1
,,,,,,,,,,,,,,,,,198790,19,2022-01-28_16h42.47.029,lexical_decision_task_DD_L2,2021.2.3,Win32,59.73002031,,,,,,,,,,,0.533599999,1,,,,,,,,,,,,,,,,,,,,,,,,-0.001851824,-0.388888889,0,0,0,,,,,,,PACKET,C,m,y,./images/PACKET.png,,,,,,,,m,1,0.533599999,,,,,,,,0,109,109,56,1
,,,,,,,,,,,,,,,,,198790,19,2022-01-28_16h42.47.029,lexical_decision_task_DD_L2,2021.2.3,Win32,59.73002031,,,,,,,,,,,0.7425,1,,,,,,,,,,,,,,,,,,,,,,,,-0.001851824,-0.388888889,0,0,0,,,,,,,BAKER,HB,z,y,./images/BAKERHB.png,,,,,,,,z,1,0.7425,,,,,,,,0,110,110,147,1
,,,,,,,,,,,,,,,,,198790,19,2022-01-28_16h42.47.029,lexical_decision_task_DD_L2,2021.2.3,Win32,59.73002031,,,,,,,,,,,0.6771,1,,,,,,,,,,,,,,,,,,,,,,,,-0.001851824,-0.388888889,0,0,0,,,,,,,BRIDE,LB,z,y,./images/BRIDELB.png,,,,,,,,z,1,0.6771,,,,,,,,0,111,111,148,1
,,,,,,,,,,,,,,,,,198790,19,2022-01-28_16h42.47.029,lexical_decision_task_DD_L2,2021.2.3,Win32,59.73002031,,,,,,,,,,,0.8979,1,,,,,,,,,,,,,,,,,,,,,,,,-0.001851824,-0.388888889,0,0,0,,,,,,,MEDAL,C,z,y,./images/MEDAL.png,,,,,,,,z,1,0.8979,,,,,,,,0,112,112,95,1
,,,,,,,,,,,,,,,,,198790,19,2022-01-28_16h42.47.029,lexical_decision_task_DD_L2,2021.2.3,Win32,59.73002031,,,,,,,,,,,2.376,0,,,,,,,,,,,,,,,,,,,,,,,,-0.001851824,-0.388888889,0,0,0,,,,,,,CEMENT,C,m,y,./images/CEMENT.png,,,,,,,,z,0,2.376,,,,,,,,0,113,113,74,1
,,,,,,,,,,,,,,,,,198790,19,2022-01-28_16h42.47.029,lexical_decision_task_DD_L2,2021.2.3,Win32,59.73002031,,,,,,,,,,,0.972,1,,,,,,,,,,,,,,,,,,,,,,,,-0.001851824,-0.388888889,0,0,0,,,,,,,BLOKE,HB,z,y,./images/BLOKEHB.png,,,,,,,,z,1,0.972,,,,,,,,0,114,114,96,1
,,,,,,,,,,,,,,,,,198790,19,2022-01-28_16h42.47.029,lexical_decision_task_DD_L2,2021.2.3,Win32,59.73002031,,,,,,,,,,,0.672400001,1,,,,,,,,,,,,,,,,,,,,,,,,-0.001851824,-0.388888889,0,0,0,,,,,,,MELON,LB,m,y,./images/MELONLB.png,,,,,,,,m,1,0.672400001,,,,,,,,0,115,115,22,1
,,,,,,,,,,,,,,,,,198790,19,2022-01-28_16h42.47.029,lexical_decision_task_DD_L2,2021.2.3,Win32,59.73002031,,,,,,,,,,,3.067,0,,,,,,,,,,,,,,,,,,,,,,,,-0.001851824,-0.388888889,0,0,0,,,,,,,STRING,C,m,y,./images/STRING.png,,,,,,,,z,0,3.067,,,,,,,,0,116,116,41,1
,,,,,,,,,,,,,,,,,198790,19,2022-01-28_16h42.47.029,lexical_decision_task_DD_L2,2021.2.3,Win32,59.73002031,,,,,,,,,,,1.033099999,0,,,,,,,,,,,,,,,,,,,,,,,,-0.001851824,-0.388888889,0,0,0,,,,,,,POKER,LB,z,y,./images/POKERLB.png,,,,,,,,m,0,1.033099999,,,,,,,,0,117,117,151,1
,,,,,,,,,,,,,,,,,198790,19,2022-01-28_16h42.47.029,lexical_decision_task_DD_L2,2021.2.3,Win32,59.73002031,,,,,,,,,,,0.767,0,,,,,,,,,,,,,,,,,,,,,,,,-0.001851824,-0.388888889,0,0,0,,,,,,,DRUMS,LB,m,y,./images/DRUMSLB.png,,,,,,,,z,0,0.767,,,,,,,,0,118,118,49,1
,,,,,,,,,,,,,,,,,198790,19,2022-01-28_16h42.47.029,lexical_decision_task_DD_L2,2021.2.3,Win32,59.73002031,,,,,,,,,,,0.700400001,0,,,,,,,,,,,,,,,,,,,,,,,,-0.001851824,-0.388888889,0,0,0,,,,,,,JUNGLE,C,m,y,./images/JUNGLE.png,,,,,,,,z,0,0.700400001,,,,,,,,0,119,119,83,1
,,,,,,,,,,,,,,,,,198790,19,2022-01-28_16h42.47.029,lexical_decision_task_DD_L2,2021.2.3,Win32,59.73002031,,,,,,,,,,,0.819299999,1,,,,,,,,,,,,,,,,,,,,,,,,-0.001851824,-0.388888889,0,0,0,,,,,,,URINE,LB,m,y,./images/URINELB.png,,,,,,,,m,1,0.819299999,,,,,,,,0,120,120,70,1
,,,,,,,,,,,,,,,,,198790,19,2022-01-28_16h42.47.029,lexical_decision_task_DD_L2,2021.2.3,Win32,59.73002031,,,,,,,,,,,0.9223,1,,,,,,,,,,,,,,,,,,,,,,,,-0.001851824,-0.388888889,0,0,0,,,,,,,BURIAL,C,m,y,./images/BURIAL.png,,,,,,,,m,1,0.9223,,,,,,,,0,121,121,59,1
,,,,,,,,,,,,,,,,,198790,19,2022-01-28_16h42.47.029,lexical_decision_task_DD_L2,2021.2.3,Win32,59.73002031,,,,,,,,,,,0.826400001,1,,,,,,,,,,,,,,,,,,,,,,,,-0.001851824,-0.388888889,0,0,0,,,,,,,BRUSH,C,z,y,./images/BRUSH.png,,,,,,,,z,1,0.826400001,,,,,,,,0,122,122,143,1
,,,,,,,,,,,,,,,,,198790,19,2022-01-28_16h42.47.029,lexical_decision_task_DD_L2,2021.2.3,Win32,59.73002031,,,,,,,,,,,0.7278,1,,,,,,,,,,,,,,,,,,,,,,,,-0.001851824,-0.388888889,0,0,0,,,,,,,COLLAR,HB,z,y,./images/COLLARHB.png,,,,,,,,z,1,0.7278,,,,,,,,0,123,123,99,1
,,,,,,,,,,,,,,,,,198790,19,2022-01-28_16h42.47.029,lexical_decision_task_DD_L2,2021.2.3,Win32,59.73002031,,,,,,,,,,,0.973400001,1,,,,,,,,,,,,,,,,,,,,,,,,-0.001851824,-0.388888889,0,0,0,,,,,,,FARMER,C,m,y,./images/FARMER.png,,,,,,,,m,1,0.973400001,,,,,,,,0,124,124,65,1
,,,,,,,,,,,,,,,,,198790,19,2022-01-28_16h42.47.029,lexical_decision_task_DD_L2,2021.2.3,Win32,59.73002031,,,,,,,,,,,0.6361,1,,,,,,,,,,,,,,,,,,,,,,,,-0.001851824,-0.388888889,0,0,0,space,,,,,,FLESH,HB,z,y,./images/FLESHHB.png,7.6573,,,,,,,z,1,0.6361,,,,,,,,0,125,125,108,1
,,,,,,,,,,,,,,,,,198790,19,2022-01-28_16h42.47.029,lexical_decision_task_DD_L2,2021.2.3,Win32,59.73002031,,,,,,,,,,,0.7227,1,,,,,,,,,,,,,,,,,,,,,,,,-0.001851824,-0.388888889,0,0,0,,,,,,,SKIING,C,m,y,./images/SKIING.png,,,,,,,,m,1,0.7227,,,,,,,,0,126,126,17,1
,,,,,,,,,,,,,,,,,198790,19,2022-01-28_16h42.47.029,lexical_decision_task_DD_L2,2021.2.3,Win32,59.73002031,,,,,,,,,,,0.783,0,,,,,,,,,,,,,,,,,,,,,,,,-0.001851824,-0.388888889,0,0,0,,,,,,,CURRY,HB,z,y,./images/CURRYHB.png,,,,,,,,m,0,0.783,,,,,,,,0,127,127,144,1
,,,,,,,,,,,,,,,,,198790,19,2022-01-28_16h42.47.029,lexical_decision_task_DD_L2,2021.2.3,Win32,59.73002031,,,,,,,,,,,0.9002,1,,,,,,,,,,,,,,,,,,,,,,,,-0.001851824,-0.388888889,0,0,0,,,,,,,SPINE,C,z,y,./images/SPINE.png,,,,,,,,z,1,0.9002,,,,,,,,0,128,128,149,1
,,,,,,,,,,,,,,,,,198790,19,2022-01-28_16h42.47.029,lexical_decision_task_DD_L2,2021.2.3,Win32,59.73002031,,,,,,,,,,,0.9438,1,,,,,,,,,,,,,,,,,,,,,,,,-0.001851824,-0.388888889,0,0,0,,,,,,,DANCER,HB,z,y,./images/DANCERHB.png,,,,,,,,z,1,0.9438,,,,,,,,0,129,129,105,1
,,,,,,,,,,,,,,,,,198790,19,2022-01-28_16h42.47.029,lexical_decision_task_DD_L2,2021.2.3,Win32,59.73002031,,,,,,,,,,,0.7805,1,,,,,,,,,,,,,,,,,,,,,,,,-0.001851824,-0.388888889,0,0,0,,,,,,,PILOT,C,z,y,./images/PILOT.png,,,,,,,,z,1,0.7805,,,,,,,,0,130,130,134,1
,,,,,,,,,,,,,,,,,198790,19,2022-01-28_16h42.47.029,lexical_decision_task_DD_L2,2021.2.3,Win32,59.73002031,,,,,,,,,,,1.0064,1,,,,,,,,,,,,,,,,,,,,,,,,-0.001851824,-0.388888889,0,0,0,,,,,,,POSTER,C,z,y,./images/POSTER.png,,,,,,,,z,1,1.0064,,,,,,,,0,131,131,137,1
,,,,,,,,,,,,,,,,,198790,19,2022-01-28_16h42.47.029,lexical_decision_task_DD_L2,2021.2.3,Win32,59.73002031,,,,,,,,,,,0.8544,1,,,,,,,,,,,,,,,,,,,,,,,,-0.001851824,-0.388888889,0,0,0,,,,,,,RULER,LB,z,y,./images/RULERLB.png,,,,,,,,z,1,0.8544,,,,,,,,0,132,132,163,1
,,,,,,,,,,,,,,,,,198790,19,2022-01-28_16h42.47.029,lexical_decision_task_DD_L2,2021.2.3,Win32,59.73002031,,,,,,,,,,,0.695799999,1,,,,,,,,,,,,,,,,,,,,,,,,-0.001851824,-0.388888889,0,0,0,,,,,,,LADDER,C,m,y,./images/LADDER.png,,,,,,,,m,1,0.695799999,,,,,,,,0,133,133,38,1
,,,,,,,,,,,,,,,,,198790,19,2022-01-28_16h42.47.029,lexical_decision_task_DD_L2,2021.2.3,Win32,59.73002031,,,,,,,,,,,0.6646,1,,,,,,,,,,,,,,,,,,,,,,,,-0.001851824,-0.388888889,0,0,0,,,,,,,BUTTER,HB,z,y,./images/BUTTERHB.png,,,,,,,,z,1,0.6646,,,,,,,,0,134,134,111,1
,,,,,,,,,,,,,,,,,198790,19,2022-01-28_16h42.47.029,lexical_decision_task_DD_L2,2021.2.3,Win32,59.73002031,,,,,,,,,,,0.7012,1,,,,,,,,,,,,,,,,,,,,,,,,-0.001851824,-0.388888889,0,0,0,,,,,,,MALLET,C,m,y,./images/MALLET.png,,,,,,,,m,1,0.7012,,,,,,,,0,135,135,50,1
,,,,,,,,,,,,,,,,,198790,19,2022-01-28_16h42.47.029,lexical_decision_task_DD_L2,2021.2.3,Win32,59.73002031,,,,,,,,,,,0.8142,1,,,,,,,,,,,,,,,,,,,,,,,,-0.001851824,-0.388888889,0,0,0,,,,,,,DRILL,HB,z,y,./images/DRILLHB.png,,,,,,,,z,1,0.8142,,,,,,,,0,136,136,165,1
,,,,,,,,,,,,,,,,,198790,19,2022-01-28_16h42.47.029,lexical_decision_task_DD_L2,2021.2.3,Win32,59.73002031,,,,,,,,,,,0.6111,1,,,,,,,,,,,,,,,,,,,,,,,,-0.001851824,-0.388888889,0,0,0,,,,,,,SHELF,HB,m,y,./images/SHELFHB.png,,,,,,,,m,1,0.6111,,,,,,,,0,137,137,39,1
,,,,,,,,,,,,,,,,,198790,19,2022-01-28_16h42.47.029,lexical_decision_task_DD_L2,2021.2.3,Win32,59.73002031,,,,,,,,,,,1.4708,1,,,,,,,,,,,,,,,,,,,,,,,,-0.001851824,-0.388888889,0,0,0,,,,,,,FERRY,HB,z,y,./images/FERRYHB.png,,,,,,,,z,1,1.4708,,,,,,,,0,138,138,141,1
,,,,,,,,,,,,,,,,,198790,19,2022-01-28_16h42.47.029,lexical_decision_task_DD_L2,2021.2.3,Win32,59.73002031,,,,,,,,,,,0.5835,1,,,,,,,,,,,,,,,,,,,,,,,,-0.001851824,-0.388888889,0,0,0,,,,,,,SHORE,HB,m,y,./images/SHOREHB.png,,,,,,,,m,1,0.5835,,,,,,,,0,139,139,12,1
,,,,,,,,,,,,,,,,,198790,19,2022-01-28_16h42.47.029,lexical_decision_task_DD_L2,2021.2.3,Win32,59.73002031,,,,,,,,,,,0.6475,1,,,,,,,,,,,,,,,,,,,,,,,,-0.001851824,-0.388888889,0,0,0,,,,,,,BUNNY,LB,z,y,./images/BUNNYLB.png,,,,,,,,z,1,0.6475,,,,,,,,0,140,140,97,1
,,,,,,,,,,,,,,,,,198790,19,2022-01-28_16h42.47.029,lexical_decision_task_DD_L2,2021.2.3,Win32,59.73002031,,,,,,,,,,,0.6467,1,,,,,,,,,,,,,,,,,,,,,,,,-0.001851824,-0.388888889,0,0,0,,,,,,,BERRY,C,m,y,./images/BERRY.png,,,,,,,,m,1,0.6467,,,,,,,,0,141,141,47,1
,,,,,,,,,,,,,,,,,198790,19,2022-01-28_16h42.47.029,lexical_decision_task_DD_L2,2021.2.3,Win32,59.73002031,,,,,,,,,,,1.4764,1,,,,,,,,,,,,,,,,,,,,,,,,-0.001851824,-0.388888889,0,0,0,,,,,,,JAGUAR,HB,m,y,./images/JAGUARHB.png,,,,,,,,m,1,1.4764,,,,,,,,0,142,142,18,1
,,,,,,,,,,,,,,,,,198790,19,2022-01-28_16h42.47.029,lexical_decision_task_DD_L2,2021.2.3,Win32,59.73002031,,,,,,,,,,,1.1932,1,,,,,,,,,,,,,,,,,,,,,,,,-0.001851824,-0.388888889,0,0,0,,,,,,,PURSE,C,m,y,./images/PURSE.png,,,,,,,,m,1,1.1932,,,,,,,,0,143,143,62,1
,,,,,,,,,,,,,,,,,198790,19,2022-01-28_16h42.47.029,lexical_decision_task_DD_L2,2021.2.3,Win32,59.73002031,,,,,,,,,,,0.725,1,,,,,,,,,,,,,,,,,,,,,,,,-0.001851824,-0.388888889,0,0,0,,,,,,,WALRUS,C,m,y,./images/WALRUS.png,,,,,,,,m,1,0.725,,,,,,,,0,144,144,23,1
,,,,,,,,,,,,,,,,,198790,19,2022-01-28_16h42.47.029,lexical_decision_task_DD_L2,2021.2.3,Win32,59.73002031,,,,,,,,,,,0.827799999,0,,,,,,,,,,,,,,,,,,,,,,,,-0.001851824,-0.388888889,0,0,0,,,,,,,WRIST,LB,m,y,./images/WRISTLB.png,,,,,,,,z,0,0.827799999,,,,,,,,0,145,145,25,1
,,,,,,,,,,,,,,,,,198790,19,2022-01-28_16h42.47.029,lexical_decision_task_DD_L2,2021.2.3,Win32,59.73002031,,,,,,,,,,,0.6991,1,,,,,,,,,,,,,,,,,,,,,,,,-0.001851824,-0.388888889,0,0,0,,,,,,,GARDEN,LB,z,y,./images/GARDENLB.png,,,,,,,,z,1,0.6991,,,,,,,,0,146,146,94,1
,,,,,,,,,,,,,,,,,198790,19,2022-01-28_16h42.47.029,lexical_decision_task_DD_L2,2021.2.3,Win32,59.73002031,,,,,,,,,,,0.8853,1,,,,,,,,,,,,,,,,,,,,,,,,-0.001851824,-0.388888889,0,0,0,,,,,,,ARTIST,LB,z,y,./images/ARTISTLB.png,,,,,,,,z,1,0.8853,,,,,,,,0,147,147,145,1
,,,,,,,,,,,,,,,,,198790,19,2022-01-28_16h42.47.029,lexical_decision_task_DD_L2,2021.2.3,Win32,59.73002031,,,,,,,,,,,0.63,1,,,,,,,,,,,,,,,,,,,,,,,,-0.001851824,-0.388888889,0,0,0,,,,,,,MIRROR,HB,m,y,./images/MIRRORHB.png,,,,,,,,m,1,0.63,,,,,,,,0,148,148,63,1
,,,,,,,,,,,,,,,,,198790,19,2022-01-28_16h42.47.029,lexical_decision_task_DD_L2,2021.2.3,Win32,59.73002031,,,,,,,,,,,0.8866,0,,,,,,,,,,,,,,,,,,,,,,,,-0.001851824,-0.388888889,0,0,0,,,,,,,PAINT,LB,m,y,./images/PAINTLB.png,,,,,,,,z,0,0.8866,,,,,,,,0,149,149,7,1
,,,,,,,,,,,,,,,,,198790,19,2022-01-28_16h42.47.029,lexical_decision_task_DD_L2,2021.2.3,Win32,59.73002031,,,,,,,,,,,0.8489,0,,,,,,,,,,,,,,,,,,,,,,,,-0.001851824,-0.388888889,0,0,0,,,,,,,MAGGOT,HB,m,y,./images/MAGGOTHB.png,,,,,,,,z,0,0.8489,,,,,,,,0,150,150,33,1
,,,,,,,,,,,,,,,,,198790,19,2022-01-28_16h42.47.029,lexical_decision_task_DD_L2,2021.2.3,Win32,59.73002031,,,,,,,,,,,1.453400001,1,,,,,,,,,,,,,,,,,,,,,,,,-0.001851824,-0.388888889,0,0,0,,,,,,,FENCE,C,z,y,./images/FENCE.png,,,,,,,,z,1,1.453400001,,,,,,,,0,151,151,98,1
,,,,,,,,,,,,,,,,,198790,19,2022-01-28_16h42.47.029,lexical_decision_task_DD_L2,2021.2.3,Win32,59.73002031,,,,,,,,,,,0.8964,1,,,,,,,,,,,,,,,,,,,,,,,,-0.001851824,-0.388888889,0,0,0,,,,,,,WALNUT,HB,z,y,./images/WALNUTHB.png,,,,,,,,z,1,0.8964,,,,,,,,0,152,152,84,1
,,,,,,,,,,,,,,,,,198790,19,2022-01-28_16h42.47.029,lexical_decision_task_DD_L2,2021.2.3,Win32,59.73002031,,,,,,,,,,,0.7857,1,,,,,,,,,,,,,,,,,,,,,,,,-0.001851824,-0.388888889,0,0,0,,,,,,,TORCH,C,m,y,./images/TORCH.png,,,,,,,,m,1,0.7857,,,,,,,,0,153,153,68,1
,,,,,,,,,,,,,,,,,198790,19,2022-01-28_16h42.47.029,lexical_decision_task_DD_L2,2021.2.3,Win32,59.73002031,,,,,,,,,,,0.6108,1,,,,,,,,,,,,,,,,,,,,,,,,-0.001851824,-0.388888889,0,0,0,,,,,,,BEARD,C,m,y,./images/BEARD.png,,,,,,,,m,1,0.6108,,,,,,,,0,154,154,2,1
,,,,,,,,,,,,,,,,,198790,19,2022-01-28_16h42.47.029,lexical_decision_task_DD_L2,2021.2.3,Win32,59.73002031,,,,,,,,,,,0.8309,1,,,,,,,,,,,,,,,,,,,,,,,,-0.001851824,-0.388888889,0,0,0,,,,,,,CHALK,LB,z,y,./images/CHALKLB.png,,,,,,,,z,1,0.8309,,,,,,,,0,155,155,109,1
,,,,,,,,,,,,,,,,,198790,19,2022-01-28_16h42.47.029,lexical_decision_task_DD_L2,2021.2.3,Win32,59.73002031,,,,,,,,,,,0.6773,1,,,,,,,,,,,,,,,,,,,,,,,,-0.001851824,-0.388888889,0,0,0,,,,,,,JUMPER,C,z,y,./images/JUMPER.png,,,,,,,,z,1,0.6773,,,,,,,,0,156,156,158,1
,,,,,,,,,,,,,,,,,198790,19,2022-01-28_16h42.47.029,lexical_decision_task_DD_L2,2021.2.3,Win32,59.73002031,,,,,,,,,,,0.8145,1,,,,,,,,,,,,,,,,,,,,,,,,-0.001851824,-0.388888889,0,0,0,,,,,,,CLOTH,C,z,y,./images/CLOTH.png,,,,,,,,z,1,0.8145,,,,,,,,0,157,157,107,1
,,,,,,,,,,,,,,,,,198790,19,2022-01-28_16h42.47.029,lexical_decision_task_DD_L2,2021.2.3,Win32,59.73002031,,,,,,,,,,,0.6213,1,,,,,,,,,,,,,,,,,,,,,,,,-0.001851824,-0.388888889,0,0,0,,,,,,,CLOWN,LB,z,y,./images/CLOWNLB.png,,,,,,,,z,1,0.6213,,,,,,,,0,158,158,106,1
,,,,,,,,,,,,,,,,,198790,19,2022-01-28_16h42.47.029,lexical_decision_task_DD_L2,2021.2.3,Win32,59.73002031,,,,,,,,,,,0.819099999,1,,,,,,,,,,,,,,,,,,,,,,,,-0.001851824,-0.388888889,0,0,0,,,,,,,BIRTH,LB,m,y,./images/BIRTHLB.png,,,,,,,,m,1,0.819099999,,,,,,,,0,159,159,37,1
,,,,,,,,,,,,,,,,,198790,19,2022-01-28_16h42.47.029,lexical_decision_task_DD_L2,2021.2.3,Win32,59.73002031,,,,,,,,,,,0.7032,1,,,,,,,,,,,,,,,,,,,,,,,,-0.001851824,-0.388888889,0,0,0,,,,,,,STREAM,C,z,y,./images/STREAM.png,,,,,,,,z,1,0.7032,,,,,,,,0,160,160,125,1
,,,,,,,,,,,,,,,,,198790,19,2022-01-28_16h42.47.029,lexical_decision_task_DD_L2,2021.2.3,Win32,59.73002031,,,,,,,,,,,1.1658,0,,,,,,,,,,,,,,,,,,,,,,,,-0.001851824,-0.388888889,0,0,0,,,,,,,PASTA,C,m,y,./images/PASTA.png,,,,,,,,z,0,1.1658,,,,,,,,0,161,161,5,1
,,,,,,,,,,,,,,,,,198790,19,2022-01-28_16h42.47.029,lexical_decision_task_DD_L2,2021.2.3,Win32,59.73002031,,,,,,,,,,,0.6666,1,,,,,,,,,,,,,,,,,,,,,,,,-0.001851824,-0.388888889,0,0,0,,,,,,,ALLEY,LB,z,y,./images/ALLEYLB.png,,,,,,,,z,1,0.6666,,,,,,,,0,162,162,139,1
,,,,,,,,,,,,,,,,,198790,19,2022-01-28_16h42.47.029,lexical_decision_task_DD_L2,2021.2.3,Win32,59.73002031,,,,,,,,,,,0.9332,0,,,,,,,,,,,,,,,,,,,,,,,,-0.001851824,-0.388888889,0,0,0,,,,,,,SNACK,LB,m,y,./images/SNACKLB.png,,,,,,,,z,0,0.9332,,,,,,,,0,163,163,73,1
,,,,,,,,,,,,,,,,,198790,19,2022-01-28_16h42.47.029,lexical_decision_task_DD_L2,2021.2.3,Win32,59.73002031,,,,,,,,,,,0.6452,1,,,,,,,,,,,,,,,,,,,,,,,,-0.001851824,-0.388888889,0,0,0,,,,,,,GREASE,HB,m,y,./images/GREASEHB.png,,,,,,,,m,1,0.6452,,,,,,,,0,164,164,15,1
,,,,,,,,,,,,,,,,,198790,19,2022-01-28_16h42.47.029,lexical_decision_task_DD_L2,2021.2.3,Win32,59.73002031,,,,,,,,,,,0.866599999,1,,,,,,,,,,,,,,,,,,,,,,,,-0.001851824,-0.388888889,0,0,0,,,,,,,ONION,HB,m,y,./images/ONIONHB.png,,,,,,,,m,1,0.866599999,,,,,,,,0,165,165,51,1
,,,,,,,,,,,,,,,,,198790,19,2022-01-28_16h42.47.029,lexical_decision_task_DD_L2,2021.2.3,Win32,59.73002031,,,,,,,,,,,1.1405,1,,,,,,,,,,,,,,,,,,,,,,,,-0.001851824,-0.388888889,0,0,0,,,,,,,PEBBLE,LB,z,y,./images/PEBBLELB.png,,,,,,,,z,1,1.1405,,,,,,,,0,166,166,166,1
,,,,,,,,,,,,,,,,,198790,19,2022-01-28_16h42.47.029,lexical_decision_task_DD_L2,2021.2.3,Win32,59.73002031,,,,,,,,,,,0.969599999,1,,,,,,,,,,,,,,,,,,,,,,,,-0.001851824,-0.388888889,0,0,0,,,,,,,STEAK,LB,z,y,./images/STEAKLB.png,,,,,,,,z,1,0.969599999,,,,,,,,0,167,167,115,1
