key_resp.keys,key_resp.rt,instr_done_touch.x,instr_done_touch.y,instr_done_touch.leftButton,instr_done_touch.midButton,instr_done_touch.rightButton,instruction_pages.thisRepN,instruction_pages.thisTrialN,instruction_pages.thisN,instruction_pages.thisIndex,instruction_pages.ran,pageN,phase,instruct_text,has_image,instruct_image,participant,age,date,expName,psychopyVersion,OS,frameRate,response.keys,response.corr,response.rt,touch_resp.x,touch_resp.y,touch_resp.leftButton,touch_resp.midButton,touch_resp.rightButton,touch_resp.time,touch_resp.clicked_name,rt,corr,practrials.thisRepN,practrials.thisTrialN,practrials.thisN,practrials.thisIndex,practrials.ran,TrialID,Target,corrAns,end_of_practice_trials_pages.thisRepN,end_of_practice_trials_pages.thisTrialN,end_of_practice_trials_pages.thisN,end_of_practice_trials_pages.thisIndex,end_of_practice_trials_pages.ran,key_resp_2.keys,key_resp_2.corr,key_resp_2.rt,targ_click.x,targ_click.y,targ_click.leftButton,targ_click.midButton,targ_click.rightButton,targ_click.time,targ_click.clicked_name,break_done_touch.x,break_done_touch.y,break_done_touch.leftButton,break_done_touch.midButton,break_done_touch.rightButton,break_done_keyboard.keys,maintrials.thisRepN,maintrials.thisTrialN,maintrials.thisN,maintrials.thisIndex,maintrials.ran,string,blur,study,lex,stim_path,break_done_keyboard.rt,test_instructions.thisRepN,test_instructions.thisTrialN,test_instructions.thisN,test_instructions.thisIndex,test_instructions.ran,instr_done_touch.clicked_name,key_resp_3.keys,key_resp_3.corr,key_resp_3.rt,test_click.x,test_click.y,test_click.leftButton,test_click.midButton,test_click.rightButton,test_click.time,test_click.clicked_name,test_phase.thisRepN,test_phase.thisTrialN,test_phase.thisN,test_phase.thisIndex,test_phase.ran
space,25.703,-0.221375868,-0.145760995,0,0,0,0,0,0,0,1,1,instructions,"INSTRUCTIONS
At the start of each trial, look at the plus sign  (+) in the center of the screen.  This tells you that a trial is about to begin and where to look. Second, the plus sign will disappear and a string of letters will appear. Your task is to determine if the string of letters is a word or not. If the item is a word press the M key (on keyboard)  or touch the word button (phone/tablet).  If the item is not a word,  press the  Z key (on keyboard)  or touch the nonword button (on phone/tablet). 
Press the space bar or touch  continue.",0,,198874,18,2022-01-29_16h13.52.411,lexical_decision_task_DD_L5,2021.2.3,MacIntel,120.0048002,,,,,,,,,,,,,,,,,,,,,,,,,,,,,,,,,,,,,,,,,,,,,,,,,,,,,,,,,,,,,,,,,,,,,,,,,
space,7.4337,-0.221375868,-0.145760995,0,0,0,0,1,1,1,1,2,instructions,"If your device has a keyboard, press the 'Z' key for nonwords and the 'M' key for words.





Press the space bar or touch the button below to continue.",0,keyboard-example.gif,198874,18,2022-01-29_16h13.52.411,lexical_decision_task_DD_L5,2021.2.3,MacIntel,120.0048002,,,,,,,,,,,,,,,,,,,,,,,,,,,,,,,,,,,,,,,,,,,,,,,,,,,,,,,,,,,,,,,,,,,,,,,,,
space,25.3634,-0.015060764,-0.25183015,0,0,0,0,2,2,2,1,3,instructions,"If you are using a touchscreen only device, use the buttons on the screen. Do not use the mouse.





Press the space bar or touch the button below to continue.",0,touchscreen-example.gif,198874,18,2022-01-29_16h13.52.411,lexical_decision_task_DD_L5,2021.2.3,MacIntel,120.0048002,,,,,,,,,,,,,,,,,,,,,,,,,,,,,,,,,,,,,,,,,,,,,,,,,,,,,,,,,,,,,,,,,,,,,,,,,
space,14.9928,0.003197338,-0.39286386,0,0,0,0,3,3,3,1,4,instructions,"It is very important that you respond as quickly and accurately as possible, as each letter string will only be on the screen for two seconds. If you do not respond within this time, the message 'Too slow!' will be displayed and the experiment will progress to the next letter string. The first 20 trials will be practice trials and you will receive feedback on your answers. 

Press the space bar or touch the button below to start the practice trials.",0,,198874,18,2022-01-29_16h13.52.411,lexical_decision_task_DD_L5,2021.2.3,MacIntel,120.0048002,,,,,,,,,,,,,,,,,,,,,,,,,,,,,,,,,,,,,,,,,,,,,,,,,,,,,,,,,,,,,,,,,,,,,,,,,
,,,,,,,,,,,,,,,,,198874,18,2022-01-29_16h13.52.411,lexical_decision_task_DD_L5,2021.2.3,MacIntel,120.0048002,m,1,1.5695,,,,,,,,1.5695,1,0,0,0,2,1,1001,ALMOND,m,,,,,,,,,,,,,,,,,,,,,,,,,,,,,,,,,,,,,,,,,,,,,,,,,,,,,
,,,,,,,,,,,,,,,,,198874,18,2022-01-29_16h13.52.411,lexical_decision_task_DD_L5,2021.2.3,MacIntel,120.0048002,z,1,1.982,,,,,,,,1.982,1,0,1,1,11,1,1001,RASHET,z,,,,,,,,,,,,,,,,,,,,,,,,,,,,,,,,,,,,,,,,,,,,,,,,,,,,,
,,,,,,,,,,,,,,,,,198874,18,2022-01-29_16h13.52.411,lexical_decision_task_DD_L5,2021.2.3,MacIntel,120.0048002,m,1,0.7959,,,,,,,,0.7959,1,0,2,2,7,1,1001,VOLUME,m,,,,,,,,,,,,,,,,,,,,,,,,,,,,,,,,,,,,,,,,,,,,,,,,,,,,,
,,,,,,,,,,,,,,,,,198874,18,2022-01-29_16h13.52.411,lexical_decision_task_DD_L5,2021.2.3,MacIntel,120.0048002,m,1,0.7251,,,,,,,,0.7251,1,0,3,3,0,1,1001,UTOPIA,m,,,,,,,,,,,,,,,,,,,,,,,,,,,,,,,,,,,,,,,,,,,,,,,,,,,,,
,,,,,,,,,,,,,,,,,198874,18,2022-01-29_16h13.52.411,lexical_decision_task_DD_L5,2021.2.3,MacIntel,120.0048002,z,1,0.7677,,,,,,,,0.7677,1,0,4,4,9,1,1001,FARINY,z,,,,,,,,,,,,,,,,,,,,,,,,,,,,,,,,,,,,,,,,,,,,,,,,,,,,,
,,,,,,,,,,,,,,,,,198874,18,2022-01-29_16h13.52.411,lexical_decision_task_DD_L5,2021.2.3,MacIntel,120.0048002,z,1,0.9288,,,,,,,,0.9288,1,0,5,5,13,1,1001,ROUPET,z,,,,,,,,,,,,,,,,,,,,,,,,,,,,,,,,,,,,,,,,,,,,,,,,,,,,,
,,,,,,,,,,,,,,,,,198874,18,2022-01-29_16h13.52.411,lexical_decision_task_DD_L5,2021.2.3,MacIntel,120.0048002,m,1,0.5604,,,,,,,,0.5604,1,0,6,6,5,1,1001,OBTAIN,m,,,,,,,,,,,,,,,,,,,,,,,,,,,,,,,,,,,,,,,,,,,,,,,,,,,,,
,,,,,,,,,,,,,,,,,198874,18,2022-01-29_16h13.52.411,lexical_decision_task_DD_L5,2021.2.3,MacIntel,120.0048002,m,1,0.6842,,,,,,,,0.6842,1,0,7,7,3,1,1001,MATRIX,m,,,,,,,,,,,,,,,,,,,,,,,,,,,,,,,,,,,,,,,,,,,,,,,,,,,,,
,,,,,,,,,,,,,,,,,198874,18,2022-01-29_16h13.52.411,lexical_decision_task_DD_L5,2021.2.3,MacIntel,120.0048002,m,1,0.6115,,,,,,,,0.6115,1,0,8,8,4,1,1001,SQUEAK,m,,,,,,,,,,,,,,,,,,,,,,,,,,,,,,,,,,,,,,,,,,,,,,,,,,,,,
,,,,,,,,,,,,,,,,,198874,18,2022-01-29_16h13.52.411,lexical_decision_task_DD_L5,2021.2.3,MacIntel,120.0048002,z,1,0.7541,,,,,,,,0.7541,1,0,9,9,12,1,1001,SPRINY,z,,,,,,,,,,,,,,,,,,,,,,,,,,,,,,,,,,,,,,,,,,,,,,,,,,,,,
,,,,,,,,,,,,,,,,,198874,18,2022-01-29_16h13.52.411,lexical_decision_task_DD_L5,2021.2.3,MacIntel,120.0048002,m,1,0.5519,,,,,,,,0.5519,1,0,10,10,1,1,1001,ADJUST,m,,,,,,,,,,,,,,,,,,,,,,,,,,,,,,,,,,,,,,,,,,,,,,,,,,,,,
,,,,,,,,,,,,,,,,,198874,18,2022-01-29_16h13.52.411,lexical_decision_task_DD_L5,2021.2.3,MacIntel,120.0048002,m,1,0.5599,,,,,,,,0.5599,1,0,11,11,6,1,1001,ZOMBIE,m,,,,,,,,,,,,,,,,,,,,,,,,,,,,,,,,,,,,,,,,,,,,,,,,,,,,,
,,,,,,,,,,,,,,,,,198874,18,2022-01-29_16h13.52.411,lexical_decision_task_DD_L5,2021.2.3,MacIntel,120.0048002,z,1,0.7109,,,,,,,,0.7109,1,0,12,12,14,1,1001,THRALE,z,,,,,,,,,,,,,,,,,,,,,,,,,,,,,,,,,,,,,,,,,,,,,,,,,,,,,
,,,,,,,,,,,,,,,,,198874,18,2022-01-29_16h13.52.411,lexical_decision_task_DD_L5,2021.2.3,MacIntel,120.0048002,z,1,0.8494,,,,,,,,0.8494,1,0,13,13,15,1,1001,WHAISE,z,,,,,,,,,,,,,,,,,,,,,,,,,,,,,,,,,,,,,,,,,,,,,,,,,,,,,
,,,,,,,,,,,,,,,,,198874,18,2022-01-29_16h13.52.411,lexical_decision_task_DD_L5,2021.2.3,MacIntel,120.0048002,z,1,0.8894,,,,,,,,0.8894,1,0,14,14,10,1,1001,INLADE,z,,,,,,,,,,,,,,,,,,,,,,,,,,,,,,,,,,,,,,,,,,,,,,,,,,,,,
,,,,,,,,,,,,,,,,,198874,18,2022-01-29_16h13.52.411,lexical_decision_task_DD_L5,2021.2.3,MacIntel,120.0048002,z,1,0.7914,,,,,,,,0.7914,1,0,15,15,8,1,1001,ASLERT,z,,,,,,,,,,,,,,,,,,,,,,,,,,,,,,,,,,,,,,,,,,,,,,,,,,,,,
space,41.8108,-0.41891276,-0.048401331,0,0,0,,,,,,1,end_of_practice,"You have completed the practice trials. During the experimental trials, you will not receive feedback. 
Before you begin, please ensure that you are in a comfortable and quiet location and will not be disturbed for about 15 minutes, as we cannot use your data if you do not complete all the trials. 
 When you are ready to start the experimental trials, please press space or touch the button below.",,,198874,18,2022-01-29_16h13.52.411,lexical_decision_task_DD_L5,2021.2.3,MacIntel,120.0048002,,,,,,,,,,,,,,,,,,,,,0,0,0,0,1,,,,,,,,,,,,,,,,,,,,,,,,,,,,,,,,,,,,,,,,,,,,,,,,
,,,,,,,,,,,,,,,,,198874,18,2022-01-29_16h13.52.411,lexical_decision_task_DD_L5,2021.2.3,MacIntel,120.0048002,,,,,,,,,,,0.694,1,,,,,,,,,,,,,,m,1,0.694,,,,,,,,-0.41891276,-0.048401331,0,0,0,,0,0,0,20,1,GRANNY,C,old,m,./images/GRANNY.png,,,,,,,,,,,,,,,,,,,,,,
,,,,,,,,,,,,,,,,,198874,18,2022-01-29_16h13.52.411,lexical_decision_task_DD_L5,2021.2.3,MacIntel,120.0048002,,,,,,,,,,,0.8323,1,,,,,,,,,,,,,,z,1,0.8323,,,,,,,,-0.41891276,-0.048401331,0,0,0,,0,1,1,92,1,PAIMS,LB,old,z,./images/PAIMSLB.png,,,,,,,,,,,,,,,,,,,,,,
,,,,,,,,,,,,,,,,,198874,18,2022-01-29_16h13.52.411,lexical_decision_task_DD_L5,2021.2.3,MacIntel,120.0048002,,,,,,,,,,,0.6028,1,,,,,,,,,,,,,,m,1,0.6028,,,,,,,,-0.41891276,-0.048401331,0,0,0,,0,2,2,67,1,POKER,LB,old,m,./images/POKERLB.png,,,,,,,,,,,,,,,,,,,,,,
,,,,,,,,,,,,,,,,,198874,18,2022-01-29_16h13.52.411,lexical_decision_task_DD_L5,2021.2.3,MacIntel,120.0048002,,,,,,,,,,,0.5575,1,,,,,,,,,,,,,,m,1,0.5575,,,,,,,,-0.41891276,-0.048401331,0,0,0,,0,3,3,14,1,FENCE,C,old,m,./images/FENCE.png,,,,,,,,,,,,,,,,,,,,,,
,,,,,,,,,,,,,,,,,198874,18,2022-01-29_16h13.52.411,lexical_decision_task_DD_L5,2021.2.3,MacIntel,120.0048002,,,,,,,,,,,0.6122,1,,,,,,,,,,,,,,m,1,0.6122,,,,,,,,-0.41891276,-0.048401331,0,0,0,,0,4,4,49,1,BISHOP,LB,old,m,./images/BISHOPLB.png,,,,,,,,,,,,,,,,,,,,,,
,,,,,,,,,,,,,,,,,198874,18,2022-01-29_16h13.52.411,lexical_decision_task_DD_L5,2021.2.3,MacIntel,120.0048002,,,,,,,,,,,0.6321,1,,,,,,,,,,,,,,m,1,0.6321,,,,,,,,-0.41891276,-0.048401331,0,0,0,,0,5,5,54,1,CHERRY,HB,old,m,./images/CHERRYHB.png,,,,,,,,,,,,,,,,,,,,,,
,,,,,,,,,,,,,,,,,198874,18,2022-01-29_16h13.52.411,lexical_decision_task_DD_L5,2021.2.3,MacIntel,120.0048002,,,,,,,,,,,0.6018,1,,,,,,,,,,,,,,z,1,0.6018,,,,,,,,-0.41891276,-0.048401331,0,0,0,,0,6,6,140,1,DOVET,LB,old,z,./images/DOVETLB.png,,,,,,,,,,,,,,,,,,,,,,
,,,,,,,,,,,,,,,,,198874,18,2022-01-29_16h13.52.411,lexical_decision_task_DD_L5,2021.2.3,MacIntel,120.0048002,,,,,,,,,,,0.5684,1,,,,,,,,,,,,,,m,1,0.5684,,,,,,,,-0.41891276,-0.048401331,0,0,0,,0,7,7,63,1,BAKER,HB,old,m,./images/BAKERHB.png,,,,,,,,,,,,,,,,,,,,,,
,,,,,,,,,,,,,,,,,198874,18,2022-01-29_16h13.52.411,lexical_decision_task_DD_L5,2021.2.3,MacIntel,120.0048002,,,,,,,,,,,0.6377,1,,,,,,,,,,,,,,z,1,0.6377,,,,,,,,-0.41891276,-0.048401331,0,0,0,,0,8,8,84,1,HAXES,C,old,z,./images/HAXES.png,,,,,,,,,,,,,,,,,,,,,,
,,,,,,,,,,,,,,,,,198874,18,2022-01-29_16h13.52.411,lexical_decision_task_DD_L5,2021.2.3,MacIntel,120.0048002,,,,,,,,,,,0.6799,1,,,,,,,,,,,,,,m,1,0.6799,,,,,,,,-0.41891276,-0.048401331,0,0,0,,0,9,9,81,1,DRILL,HB,old,m,./images/DRILLHB.png,,,,,,,,,,,,,,,,,,,,,,
,,,,,,,,,,,,,,,,,198874,18,2022-01-29_16h13.52.411,lexical_decision_task_DD_L5,2021.2.3,MacIntel,120.0048002,,,,,,,,,,,0.5538,1,,,,,,,,,,,,,,m,1,0.5538,,,,,,,,-0.41891276,-0.048401331,0,0,0,,0,10,10,32,1,HOCKEY,C,old,m,./images/HOCKEY.png,,,,,,,,,,,,,,,,,,,,,,
,,,,,,,,,,,,,,,,,198874,18,2022-01-29_16h13.52.411,lexical_decision_task_DD_L5,2021.2.3,MacIntel,120.0048002,,,,,,,,,,,0.5124,1,,,,,,,,,,,,,,m,1,0.5124,,,,,,,,-0.41891276,-0.048401331,0,0,0,,0,11,11,25,1,CHALK,LB,old,m,./images/CHALKLB.png,,,,,,,,,,,,,,,,,,,,,,
,,,,,,,,,,,,,,,,,198874,18,2022-01-29_16h13.52.411,lexical_decision_task_DD_L5,2021.2.3,MacIntel,120.0048002,,,,,,,,,,,0.4725,1,,,,,,,,,,,,,,m,1,0.4725,,,,,,,,-0.41891276,-0.048401331,0,0,0,,0,12,12,74,1,JUMPER,C,old,m,./images/JUMPER.png,,,,,,,,,,,,,,,,,,,,,,
,,,,,,,,,,,,,,,,,198874,18,2022-01-29_16h13.52.411,lexical_decision_task_DD_L5,2021.2.3,MacIntel,120.0048002,,,,,,,,,,,0.7233,1,,,,,,,,,,,,,,z,1,0.7233,,,,,,,,-0.41891276,-0.048401331,0,0,0,,0,13,13,129,1,PRANS,C,old,z,./images/PRANS.png,,,,,,,,,,,,,,,,,,,,,,
,,,,,,,,,,,,,,,,,198874,18,2022-01-29_16h13.52.411,lexical_decision_task_DD_L5,2021.2.3,MacIntel,120.0048002,,,,,,,,,,,0.6695,1,,,,,,,,,,,,,,m,1,0.6695,,,,,,,,-0.41891276,-0.048401331,0,0,0,,0,14,14,0,1,WALNUT,HB,old,m,./images/WALNUTHB.png,,,,,,,,,,,,,,,,,,,,,,
,,,,,,,,,,,,,,,,,198874,18,2022-01-29_16h13.52.411,lexical_decision_task_DD_L5,2021.2.3,MacIntel,120.0048002,,,,,,,,,,,0.6094,1,,,,,,,,,,,,,,m,1,0.6094,,,,,,,,-0.41891276,-0.048401331,0,0,0,,0,15,15,55,1,ALLEY,LB,old,m,./images/ALLEYLB.png,,,,,,,,,,,,,,,,,,,,,,
,,,,,,,,,,,,,,,,,198874,18,2022-01-29_16h13.52.411,lexical_decision_task_DD_L5,2021.2.3,MacIntel,120.0048002,,,,,,,,,,,1.9556,1,,,,,,,,,,,,,,z,1,1.9556,,,,,,,,-0.41891276,-0.048401331,0,0,0,,0,16,16,114,1,RIKES,C,old,z,./images/RIKES.png,,,,,,,,,,,,,,,,,,,,,,
,,,,,,,,,,,,,,,,,198874,18,2022-01-29_16h13.52.411,lexical_decision_task_DD_L5,2021.2.3,MacIntel,120.0048002,,,,,,,,,,,0.821,1,,,,,,,,,,,,,,z,1,0.821,,,,,,,,-0.41891276,-0.048401331,0,0,0,,0,17,17,89,1,DRIEK,LB,old,z,./images/DRIEKLB.png,,,,,,,,,,,,,,,,,,,,,,
,,,,,,,,,,,,,,,,,198874,18,2022-01-29_16h13.52.411,lexical_decision_task_DD_L5,2021.2.3,MacIntel,120.0048002,,,,,,,,,,,0.6887,1,,,,,,,,,,,,,,z,1,0.6887,,,,,,,,-0.41891276,-0.048401331,0,0,0,,0,18,18,153,1,CLUPS,C,old,z,./images/CLUPS.png,,,,,,,,,,,,,,,,,,,,,,
,,,,,,,,,,,,,,,,,198874,18,2022-01-29_16h13.52.411,lexical_decision_task_DD_L5,2021.2.3,MacIntel,120.0048002,,,,,,,,,,,0.5376,1,,,,,,,,,,,,,,m,1,0.5376,,,,,,,,-0.41891276,-0.048401331,0,0,0,,0,19,19,73,1,GLOVE,LB,old,m,./images/GLOVELB.png,,,,,,,,,,,,,,,,,,,,,,
,,,,,,,,,,,,,,,,,198874,18,2022-01-29_16h13.52.411,lexical_decision_task_DD_L5,2021.2.3,MacIntel,120.0048002,,,,,,,,,,,0.7189,1,,,,,,,,,,,,,,z,1,0.7189,,,,,,,,-0.41891276,-0.048401331,0,0,0,,0,20,20,97,1,CHIDS,HB,old,z,./images/CHIDSHB.png,,,,,,,,,,,,,,,,,,,,,,
,,,,,,,,,,,,,,,,,198874,18,2022-01-29_16h13.52.411,lexical_decision_task_DD_L5,2021.2.3,MacIntel,120.0048002,,,,,,,,,,,0.6813,1,,,,,,,,,,,,,,z,1,0.6813,,,,,,,,-0.41891276,-0.048401331,0,0,0,,0,21,21,161,1,BLAPS,LB,old,z,./images/BLAPSLB.png,,,,,,,,,,,,,,,,,,,,,,
,,,,,,,,,,,,,,,,,198874,18,2022-01-29_16h13.52.411,lexical_decision_task_DD_L5,2021.2.3,MacIntel,120.0048002,,,,,,,,,,,0.6054,1,,,,,,,,,,,,,,m,1,0.6054,,,,,,,,-0.41891276,-0.048401331,0,0,0,,0,22,22,58,1,CANOE,LB,old,m,./images/CANOELB.png,,,,,,,,,,,,,,,,,,,,,,
,,,,,,,,,,,,,,,,,198874,18,2022-01-29_16h13.52.411,lexical_decision_task_DD_L5,2021.2.3,MacIntel,120.0048002,,,,,,,,,,,0.8049,1,,,,,,,,,,,,,,m,1,0.8049,,,,,,,,-0.41891276,-0.048401331,0,0,0,,0,23,23,36,1,BOILER,HB,old,m,./images/BOILERHB.png,,,,,,,,,,,,,,,,,,,,,,
,,,,,,,,,,,,,,,,,198874,18,2022-01-29_16h13.52.411,lexical_decision_task_DD_L5,2021.2.3,MacIntel,120.0048002,,,,,,,,,,,0.5998,0,,,,,,,,,,,,,,m,0,0.5998,,,,,,,,-0.41891276,-0.048401331,0,0,0,,0,24,24,88,1,GLUSH,HB,old,z,./images/GLUSHHB.png,,,,,,,,,,,,,,,,,,,,,,
,,,,,,,,,,,,,,,,,198874,18,2022-01-29_16h13.52.411,lexical_decision_task_DD_L5,2021.2.3,MacIntel,120.0048002,,,,,,,,,,,0.7541,1,,,,,,,,,,,,,,z,1,0.7541,,,,,,,,-0.41891276,-0.048401331,0,0,0,,0,25,25,112,1,MYING,HB,old,z,./images/MYINGHB.png,,,,,,,,,,,,,,,,,,,,,,
,,,,,,,,,,,,,,,,,198874,18,2022-01-29_16h13.52.411,lexical_decision_task_DD_L5,2021.2.3,MacIntel,120.0048002,,,,,,,,,,,0.6307,1,,,,,,,,,,,,,,z,1,0.6307,,,,,,,,-0.41891276,-0.048401331,0,0,0,,0,26,26,108,1,GRUET,C,old,z,./images/GRUET.png,,,,,,,,,,,,,,,,,,,,,,
,,,,,,,,,,,,,,,,,198874,18,2022-01-29_16h13.52.411,lexical_decision_task_DD_L5,2021.2.3,MacIntel,120.0048002,,,,,,,,,,,0.5944,1,,,,,,,,,,,,,,m,1,0.5944,,,,,,,,-0.41891276,-0.048401331,0,0,0,,0,27,27,19,1,DONKEY,LB,old,m,./images/DONKEYLB.png,,,,,,,,,,,,,,,,,,,,,,
,,,,,,,,,,,,,,,,,198874,18,2022-01-29_16h13.52.411,lexical_decision_task_DD_L5,2021.2.3,MacIntel,120.0048002,,,,,,,,,,,0.5303,1,,,,,,,,,,,,,,z,1,0.5303,,,,,,,,-0.41891276,-0.048401331,0,0,0,,0,28,28,137,1,JOOST,LB,old,z,./images/JOOSTLB.png,,,,,,,,,,,,,,,,,,,,,,
,,,,,,,,,,,,,,,,,198874,18,2022-01-29_16h13.52.411,lexical_decision_task_DD_L5,2021.2.3,MacIntel,120.0048002,,,,,,,,,,,1.0328,1,,,,,,,,,,,,,,z,1,1.0328,,,,,,,,-0.41891276,-0.048401331,0,0,0,,0,29,29,163,1,GAMBA,HB,old,z,./images/GAMBAHB.png,,,,,,,,,,,,,,,,,,,,,,
,,,,,,,,,,,,,,,,,198874,18,2022-01-29_16h13.52.411,lexical_decision_task_DD_L5,2021.2.3,MacIntel,120.0048002,,,,,,,,,,,0.6285,1,,,,,,,,,,,,,,z,1,0.6285,,,,,,,,-0.41891276,-0.048401331,0,0,0,,0,30,30,162,1,LEICH,C,old,z,./images/LEICH.png,,,,,,,,,,,,,,,,,,,,,,
,,,,,,,,,,,,,,,,,198874,18,2022-01-29_16h13.52.411,lexical_decision_task_DD_L5,2021.2.3,MacIntel,120.0048002,,,,,,,,,,,0.5522,1,,,,,,,,,,,,,,z,1,0.5522,,,,,,,,-0.41891276,-0.048401331,0,0,0,,0,31,31,159,1,CUDDY,C,old,z,./images/CUDDY.png,,,,,,,,,,,,,,,,,,,,,,
,,,,,,,,,,,,,,,,,198874,18,2022-01-29_16h13.52.411,lexical_decision_task_DD_L5,2021.2.3,MacIntel,120.0048002,,,,,,,,,,,0.5466,1,,,,,,,,,,,,,,z,1,0.5466,,,,,,,,-0.41891276,-0.048401331,0,0,0,,0,32,32,134,1,TROSS,LB,old,z,./images/TROSSLB.png,,,,,,,,,,,,,,,,,,,,,,
,,,,,,,,,,,,,,,,,198874,18,2022-01-29_16h13.52.411,lexical_decision_task_DD_L5,2021.2.3,MacIntel,120.0048002,,,,,,,,,,,0.5239,1,,,,,,,,,,,,,,z,1,0.5239,,,,,,,,-0.41891276,-0.048401331,0,0,0,,0,33,33,167,1,ZONET,LB,old,z,./images/ZONETLB.png,,,,,,,,,,,,,,,,,,,,,,
,,,,,,,,,,,,,,,,,198874,18,2022-01-29_16h13.52.411,lexical_decision_task_DD_L5,2021.2.3,MacIntel,120.0048002,,,,,,,,,,,0.4722,1,,,,,,,,,,,,,,m,1,0.4722,,,,,,,,-0.41891276,-0.048401331,0,0,0,,0,34,34,4,1,BOXER,LB,old,m,./images/BOXERLB.png,,,,,,,,,,,,,,,,,,,,,,
,,,,,,,,,,,,,,,,,198874,18,2022-01-29_16h13.52.411,lexical_decision_task_DD_L5,2021.2.3,MacIntel,120.0048002,,,,,,,,,,,0.5131,1,,,,,,,,,,,,,,m,1,0.5131,,,,,,,,-0.41891276,-0.048401331,0,0,0,,0,35,35,71,1,BUBBLE,C,old,m,./images/BUBBLE.png,,,,,,,,,,,,,,,,,,,,,,
,,,,,,,,,,,,,,,,,198874,18,2022-01-29_16h13.52.411,lexical_decision_task_DD_L5,2021.2.3,MacIntel,120.0048002,,,,,,,,,,,0.5089,1,,,,,,,,,,,,,,z,1,0.5089,,,,,,,,-0.41891276,-0.048401331,0,0,0,,0,36,36,86,1,AIFED,LB,old,z,./images/AIFEDLB.png,,,,,,,,,,,,,,,,,,,,,,
,,,,,,,,,,,,,,,,,198874,18,2022-01-29_16h13.52.411,lexical_decision_task_DD_L5,2021.2.3,MacIntel,120.0048002,,,,,,,,,,,0.5949,1,,,,,,,,,,,,,,z,1,0.5949,,,,,,,,-0.41891276,-0.048401331,0,0,0,,0,37,37,117,1,STEEG,C,old,z,./images/STEEG.png,,,,,,,,,,,,,,,,,,,,,,
,,,,,,,,,,,,,,,,,198874,18,2022-01-29_16h13.52.411,lexical_decision_task_DD_L5,2021.2.3,MacIntel,120.0048002,,,,,,,,,,,0.5646,1,,,,,,,,,,,,,,m,1,0.5646,,,,,,,,-0.41891276,-0.048401331,0,0,0,,0,38,38,26,1,CLOUD,C,old,m,./images/CLOUD.png,,,,,,,,,,,,,,,,,,,,,,
,,,,,,,,,,,,,,,,,198874,18,2022-01-29_16h13.52.411,lexical_decision_task_DD_L5,2021.2.3,MacIntel,120.0048002,,,,,,,,,,,0.5999,1,,,,,,,,,,,,,,m,1,0.5999,,,,,,,,-0.41891276,-0.048401331,0,0,0,,0,39,39,34,1,RAZOR,LB,old,m,./images/RAZORLB.png,,,,,,,,,,,,,,,,,,,,,,
,,,,,,,,,,,,,,,,,198874,18,2022-01-29_16h13.52.411,lexical_decision_task_DD_L5,2021.2.3,MacIntel,120.0048002,,,,,,,,,,,0.5049,1,,,,,,,,,,,,,,z,1,0.5049,,,,,,,,-0.41891276,-0.048401331,0,0,0,,0,40,40,138,1,PLICE,C,old,z,./images/PLICE.png,,,,,,,,,,,,,,,,,,,,,,
,,,,,,,,,,,,,,,,,198874,18,2022-01-29_16h13.52.411,lexical_decision_task_DD_L5,2021.2.3,MacIntel,120.0048002,,,,,,,,,,,0.4859,1,,,,,,,,,,,,,,m,1,0.4859,,,,,,,,-0.41891276,-0.048401331,0,0,0,space,0,41,41,59,1,BRUSH,C,old,m,./images/BRUSH.png,9.7942,,,,,,,,,,,,,,,,,,,,,
,,,,,,,,,,,,,,,,,198874,18,2022-01-29_16h13.52.411,lexical_decision_task_DD_L5,2021.2.3,MacIntel,120.0048002,,,,,,,,,,,0.8158,1,,,,,,,,,,,,,,z,1,0.8158,,,,,,,,-0.41891276,-0.048401331,0,0,0,,0,42,42,109,1,BURGE,HB,old,z,./images/BURGEHB.png,,,,,,,,,,,,,,,,,,,,,,
,,,,,,,,,,,,,,,,,198874,18,2022-01-29_16h13.52.411,lexical_decision_task_DD_L5,2021.2.3,MacIntel,120.0048002,,,,,,,,,,,0.6953,1,,,,,,,,,,,,,,m,1,0.6953,,,,,,,,-0.41891276,-0.048401331,0,0,0,,0,43,43,30,1,SLOPE,HB,old,m,./images/SLOPEHB.png,,,,,,,,,,,,,,,,,,,,,,
,,,,,,,,,,,,,,,,,198874,18,2022-01-29_16h13.52.411,lexical_decision_task_DD_L5,2021.2.3,MacIntel,120.0048002,,,,,,,,,,,0.5535,1,,,,,,,,,,,,,,m,1,0.5535,,,,,,,,-0.41891276,-0.048401331,0,0,0,,0,44,44,76,1,MIDGET,LB,old,m,./images/MIDGETLB.png,,,,,,,,,,,,,,,,,,,,,,
,,,,,,,,,,,,,,,,,198874,18,2022-01-29_16h13.52.411,lexical_decision_task_DD_L5,2021.2.3,MacIntel,120.0048002,,,,,,,,,,,0.4949,1,,,,,,,,,,,,,,m,1,0.4949,,,,,,,,-0.41891276,-0.048401331,0,0,0,,0,45,45,31,1,STEAK,LB,old,m,./images/STEAKLB.png,,,,,,,,,,,,,,,,,,,,,,
,,,,,,,,,,,,,,,,,198874,18,2022-01-29_16h13.52.411,lexical_decision_task_DD_L5,2021.2.3,MacIntel,120.0048002,,,,,,,,,,,0.7445,1,,,,,,,,,,,,,,z,1,0.7445,,,,,,,,-0.41891276,-0.048401331,0,0,0,,0,46,46,166,1,SHORY,HB,old,z,./images/SHORYHB.png,,,,,,,,,,,,,,,,,,,,,,
,,,,,,,,,,,,,,,,,198874,18,2022-01-29_16h13.52.411,lexical_decision_task_DD_L5,2021.2.3,MacIntel,120.0048002,,,,,,,,,,,0.6084,1,,,,,,,,,,,,,,z,1,0.6084,,,,,,,,-0.41891276,-0.048401331,0,0,0,,0,47,47,127,1,NINDY,HB,old,z,./images/NINDYHB.png,,,,,,,,,,,,,,,,,,,,,,
,,,,,,,,,,,,,,,,,198874,18,2022-01-29_16h13.52.411,lexical_decision_task_DD_L5,2021.2.3,MacIntel,120.0048002,,,,,,,,,,,0.5134,1,,,,,,,,,,,,,,m,1,0.5134,,,,,,,,-0.41891276,-0.048401331,0,0,0,,0,48,48,77,1,WHEEL,C,old,m,./images/WHEEL.png,,,,,,,,,,,,,,,,,,,,,,
,,,,,,,,,,,,,,,,,198874,18,2022-01-29_16h13.52.411,lexical_decision_task_DD_L5,2021.2.3,MacIntel,120.0048002,,,,,,,,,,,0.6027,1,,,,,,,,,,,,,,m,1,0.6027,,,,,,,,-0.41891276,-0.048401331,0,0,0,,0,49,49,48,1,SHIELD,HB,old,m,./images/SHIELDHB.png,,,,,,,,,,,,,,,,,,,,,,
,,,,,,,,,,,,,,,,,198874,18,2022-01-29_16h13.52.411,lexical_decision_task_DD_L5,2021.2.3,MacIntel,120.0048002,,,,,,,,,,,0.5065,1,,,,,,,,,,,,,,m,1,0.5065,,,,,,,,-0.41891276,-0.048401331,0,0,0,,0,50,50,38,1,ENGINE,C,old,m,./images/ENGINE.png,,,,,,,,,,,,,,,,,,,,,,
,,,,,,,,,,,,,,,,,198874,18,2022-01-29_16h13.52.411,lexical_decision_task_DD_L5,2021.2.3,MacIntel,120.0048002,,,,,,,,,,,0.4982,1,,,,,,,,,,,,,,z,1,0.4982,,,,,,,,-0.41891276,-0.048401331,0,0,0,,0,51,51,96,1,KEAMS,C,old,z,./images/KEAMS.png,,,,,,,,,,,,,,,,,,,,,,
,,,,,,,,,,,,,,,,,198874,18,2022-01-29_16h13.52.411,lexical_decision_task_DD_L5,2021.2.3,MacIntel,120.0048002,,,,,,,,,,,0.6469,1,,,,,,,,,,,,,,z,1,0.6469,,,,,,,,-0.41891276,-0.048401331,0,0,0,,0,52,52,100,1,DRIBS,HB,old,z,./images/DRIBSHB.png,,,,,,,,,,,,,,,,,,,,,,
,,,,,,,,,,,,,,,,,198874,18,2022-01-29_16h13.52.411,lexical_decision_task_DD_L5,2021.2.3,MacIntel,120.0048002,,,,,,,,,,,0.4585,1,,,,,,,,,,,,,,m,1,0.4585,,,,,,,,-0.41891276,-0.048401331,0,0,0,,0,53,53,11,1,MEDAL,C,old,m,./images/MEDAL.png,,,,,,,,,,,,,,,,,,,,,,
,,,,,,,,,,,,,,,,,198874,18,2022-01-29_16h13.52.411,lexical_decision_task_DD_L5,2021.2.3,MacIntel,120.0048002,,,,,,,,,,,0.7911,1,,,,,,,,,,,,,,m,1,0.7911,,,,,,,,-0.41891276,-0.048401331,0,0,0,,0,54,54,22,1,CLOWN,LB,old,m,./images/CLOWNLB.png,,,,,,,,,,,,,,,,,,,,,,
,,,,,,,,,,,,,,,,,198874,18,2022-01-29_16h13.52.411,lexical_decision_task_DD_L5,2021.2.3,MacIntel,120.0048002,,,,,,,,,,,0.641,1,,,,,,,,,,,,,,z,1,0.641,,,,,,,,-0.41891276,-0.048401331,0,0,0,,0,55,55,148,1,JOMS,HB,old,z,./images/JOMSHB.png,,,,,,,,,,,,,,,,,,,,,,
,,,,,,,,,,,,,,,,,198874,18,2022-01-29_16h13.52.411,lexical_decision_task_DD_L5,2021.2.3,MacIntel,120.0048002,,,,,,,,,,,0.5805,1,,,,,,,,,,,,,,z,1,0.5805,,,,,,,,-0.41891276,-0.048401331,0,0,0,,0,56,56,119,1,PAFER,LB,old,z,./images/PAFERLB.png,,,,,,,,,,,,,,,,,,,,,,
,,,,,,,,,,,,,,,,,198874,18,2022-01-29_16h13.52.411,lexical_decision_task_DD_L5,2021.2.3,MacIntel,120.0048002,,,,,,,,,,,0.583,1,,,,,,,,,,,,,,z,1,0.583,,,,,,,,-0.41891276,-0.048401331,0,0,0,,0,57,57,132,1,SCIFF,C,old,z,./images/SCIFF.png,,,,,,,,,,,,,,,,,,,,,,
,,,,,,,,,,,,,,,,,198874,18,2022-01-29_16h13.52.411,lexical_decision_task_DD_L5,2021.2.3,MacIntel,120.0048002,,,,,,,,,,,0.6577,1,,,,,,,,,,,,,,z,1,0.6577,,,,,,,,-0.41891276,-0.048401331,0,0,0,,0,58,58,94,1,BLANS,HB,old,z,./images/BLANSHB.png,,,,,,,,,,,,,,,,,,,,,,
,,,,,,,,,,,,,,,,,198874,18,2022-01-29_16h13.52.411,lexical_decision_task_DD_L5,2021.2.3,MacIntel,120.0048002,,,,,,,,,,,0.5288,1,,,,,,,,,,,,,,m,1,0.5288,,,,,,,,-0.41891276,-0.048401331,0,0,0,,0,59,59,13,1,BUNNY,LB,old,m,./images/BUNNYLB.png,,,,,,,,,,,,,,,,,,,,,,
,,,,,,,,,,,,,,,,,198874,18,2022-01-29_16h13.52.411,lexical_decision_task_DD_L5,2021.2.3,MacIntel,120.0048002,,,,,,,,,,,0.5923,1,,,,,,,,,,,,,,z,1,0.5923,,,,,,,,-0.41891276,-0.048401331,0,0,0,,0,60,60,99,1,BACKY,C,old,z,./images/BACKY.png,,,,,,,,,,,,,,,,,,,,,,
,,,,,,,,,,,,,,,,,198874,18,2022-01-29_16h13.52.411,lexical_decision_task_DD_L5,2021.2.3,MacIntel,120.0048002,,,,,,,,,,,0.8411,1,,,,,,,,,,,,,,z,1,0.8411,,,,,,,,-0.41891276,-0.048401331,0,0,0,,0,61,61,126,1,GUELS,C,old,z,./images/GUELS.png,,,,,,,,,,,,,,,,,,,,,,
,,,,,,,,,,,,,,,,,198874,18,2022-01-29_16h13.52.411,lexical_decision_task_DD_L5,2021.2.3,MacIntel,120.0048002,,,,,,,,,,,0.5413,1,,,,,,,,,,,,,,m,1,0.5413,,,,,,,,-0.41891276,-0.048401331,0,0,0,,0,62,62,53,1,POSTER,C,old,m,./images/POSTER.png,,,,,,,,,,,,,,,,,,,,,,
,,,,,,,,,,,,,,,,,198874,18,2022-01-29_16h13.52.411,lexical_decision_task_DD_L5,2021.2.3,MacIntel,120.0048002,,,,,,,,,,,0.5657,0,,,,,,,,,,,,,,z,0,0.5657,,,,,,,,-0.41891276,-0.048401331,0,0,0,,0,63,63,50,1,PILOT,C,old,m,./images/PILOT.png,,,,,,,,,,,,,,,,,,,,,,
,,,,,,,,,,,,,,,,,198874,18,2022-01-29_16h13.52.411,lexical_decision_task_DD_L5,2021.2.3,MacIntel,120.0048002,,,,,,,,,,,0.6124,1,,,,,,,,,,,,,,m,1,0.6124,,,,,,,,-0.440028212,-0.104918981,0,0,0,,0,64,64,66,1,STATUE,HB,old,m,./images/STATUEHB.png,,,,,,,,,,,,,,,,,,,,,,
,,,,,,,,,,,,,,,,,198874,18,2022-01-29_16h13.52.411,lexical_decision_task_DD_L5,2021.2.3,MacIntel,120.0048002,,,,,,,,,,,0.7129,1,,,,,,,,,,,,,,m,1,0.7129,,,,,,,,-0.440028212,-0.104918981,0,0,0,,0,65,65,79,1,RULER,LB,old,m,./images/RULERLB.png,,,,,,,,,,,,,,,,,,,,,,
,,,,,,,,,,,,,,,,,198874,18,2022-01-29_16h13.52.411,lexical_decision_task_DD_L5,2021.2.3,MacIntel,120.0048002,,,,,,,,,,,0.664,1,,,,,,,,,,,,,,z,1,0.664,,,,,,,,-0.440028212,-0.104918981,0,0,0,,0,66,66,87,1,TRING,C,old,z,./images/TRING.png,,,,,,,,,,,,,,,,,,,,,,
,,,,,,,,,,,,,,,,,198874,18,2022-01-29_16h13.52.411,lexical_decision_task_DD_L5,2021.2.3,MacIntel,120.0048002,,,,,,,,,,,0.6112,1,,,,,,,,,,,,,,m,1,0.6112,,,,,,,,-0.440028212,-0.104918981,0,0,0,,0,67,67,9,1,DIVER,HB,old,m,./images/DIVERHB.png,,,,,,,,,,,,,,,,,,,,,,
,,,,,,,,,,,,,,,,,198874,18,2022-01-29_16h13.52.411,lexical_decision_task_DD_L5,2021.2.3,MacIntel,120.0048002,,,,,,,,,,,0.5663,1,,,,,,,,,,,,,,m,1,0.5663,,,,,,,,-0.440028212,-0.104918981,0,0,0,,0,68,68,29,1,PISTOL,C,old,m,./images/PISTOL.png,,,,,,,,,,,,,,,,,,,,,,
,,,,,,,,,,,,,,,,,198874,18,2022-01-29_16h13.52.411,lexical_decision_task_DD_L5,2021.2.3,MacIntel,120.0048002,,,,,,,,,,,0.5755,1,,,,,,,,,,,,,,z,1,0.5755,,,,,,,,-0.440028212,-0.104918981,0,0,0,,0,69,69,93,1,SMONE,C,old,z,./images/SMONE.png,,,,,,,,,,,,,,,,,,,,,,
,,,,,,,,,,,,,,,,,198874,18,2022-01-29_16h13.52.411,lexical_decision_task_DD_L5,2021.2.3,MacIntel,120.0048002,,,,,,,,,,,0.5629,1,,,,,,,,,,,,,,m,1,0.5629,,,,,,,,-0.440028212,-0.104918981,0,0,0,,0,70,70,69,1,ARROW,HB,old,m,./images/ARROWHB.png,,,,,,,,,,,,,,,,,,,,,,
,,,,,,,,,,,,,,,,,198874,18,2022-01-29_16h13.52.411,lexical_decision_task_DD_L5,2021.2.3,MacIntel,120.0048002,,,,,,,,,,,0.4672,1,,,,,,,,,,,,,,z,1,0.4672,,,,,,,,-0.440028212,-0.104918981,0,0,0,,0,71,71,144,1,NAIRY,C,old,z,./images/NAIRY.png,,,,,,,,,,,,,,,,,,,,,,
,,,,,,,,,,,,,,,,,198874,18,2022-01-29_16h13.52.411,lexical_decision_task_DD_L5,2021.2.3,MacIntel,120.0048002,,,,,,,,,,,0.6,1,,,,,,,,,,,,,,z,1,0.6,,,,,,,,-0.440028212,-0.104918981,0,0,0,,0,72,72,128,1,GRIFT,LB,old,z,./images/GRIFTLB.png,,,,,,,,,,,,,,,,,,,,,,
,,,,,,,,,,,,,,,,,198874,18,2022-01-29_16h13.52.411,lexical_decision_task_DD_L5,2021.2.3,MacIntel,120.0048002,,,,,,,,,,,0.6296,1,,,,,,,,,,,,,,m,1,0.6296,,,,,,,,-0.440028212,-0.104918981,0,0,0,,0,73,73,82,1,PEBBLE,LB,old,m,./images/PEBBLELB.png,,,,,,,,,,,,,,,,,,,,,,
,,,,,,,,,,,,,,,,,198874,18,2022-01-29_16h13.52.411,lexical_decision_task_DD_L5,2021.2.3,MacIntel,120.0048002,,,,,,,,,,,0.4983,1,,,,,,,,,,,,,,m,1,0.4983,,,,,,,,-0.440028212,-0.104918981,0,0,0,,0,74,74,2,1,STOVE,C,old,m,./images/STOVE.png,,,,,,,,,,,,,,,,,,,,,,
,,,,,,,,,,,,,,,,,198874,18,2022-01-29_16h13.52.411,lexical_decision_task_DD_L5,2021.2.3,MacIntel,120.0048002,,,,,,,,,,,0.8541,1,,,,,,,,,,,,,,m,1,0.8541,,,,,,,,-0.440028212,-0.104918981,0,0,0,,0,75,75,75,1,HAMMER,HB,old,m,./images/HAMMERHB.png,,,,,,,,,,,,,,,,,,,,,,
,,,,,,,,,,,,,,,,,198874,18,2022-01-29_16h13.52.411,lexical_decision_task_DD_L5,2021.2.3,MacIntel,120.0048002,,,,,,,,,,,0.5183,1,,,,,,,,,,,,,,m,1,0.5183,,,,,,,,-0.440028212,-0.104918981,0,0,0,,0,76,76,40,1,SNAKE,LB,old,m,./images/SNAKELB.png,,,,,,,,,,,,,,,,,,,,,,
,,,,,,,,,,,,,,,,,198874,18,2022-01-29_16h13.52.411,lexical_decision_task_DD_L5,2021.2.3,MacIntel,120.0048002,,,,,,,,,,,0.6158,1,,,,,,,,,,,,,,z,1,0.6158,,,,,,,,-0.440028212,-0.104918981,0,0,0,,0,77,77,150,1,NOOLS,C,old,z,./images/NOOLS.png,,,,,,,,,,,,,,,,,,,,,,
,,,,,,,,,,,,,,,,,198874,18,2022-01-29_16h13.52.411,lexical_decision_task_DD_L5,2021.2.3,MacIntel,120.0048002,,,,,,,,,,,0.6947,1,,,,,,,,,,,,,,z,1,0.6947,,,,,,,,-0.440028212,-0.104918981,0,0,0,,0,78,78,165,1,TROWN,C,old,z,./images/TROWN.png,,,,,,,,,,,,,,,,,,,,,,
,,,,,,,,,,,,,,,,,198874,18,2022-01-29_16h13.52.411,lexical_decision_task_DD_L5,2021.2.3,MacIntel,120.0048002,,,,,,,,,,,0.8699,0,,,,,,,,,,,,,,z,0,0.8699,,,,,,,,-0.440028212,-0.104918981,0,0,0,,0,79,79,6,1,STAIN,HB,old,m,./images/STAINHB.png,,,,,,,,,,,,,,,,,,,,,,
,,,,,,,,,,,,,,,,,198874,18,2022-01-29_16h13.52.411,lexical_decision_task_DD_L5,2021.2.3,MacIntel,120.0048002,,,,,,,,,,,0.6836,1,,,,,,,,,,,,,,m,1,0.6836,,,,,,,,-0.440028212,-0.104918981,0,0,0,,0,80,80,23,1,CLOTH,C,old,m,./images/CLOTH.png,,,,,,,,,,,,,,,,,,,,,,
,,,,,,,,,,,,,,,,,198874,18,2022-01-29_16h13.52.411,lexical_decision_task_DD_L5,2021.2.3,MacIntel,120.0048002,,,,,,,,,,,0.7043,1,,,,,,,,,,,,,,z,1,0.7043,,,,,,,,-0.440028212,-0.104918981,0,0,0,,0,81,81,145,1,LAMEL,HB,old,z,./images/LAMELHB.png,,,,,,,,,,,,,,,,,,,,,,
,,,,,,,,,,,,,,,,,198874,18,2022-01-29_16h13.52.411,lexical_decision_task_DD_L5,2021.2.3,MacIntel,120.0048002,,,,,,,,,,,0.7286,1,,,,,,,,,,,,,,z,1,0.7286,,,,,,,,-0.440028212,-0.104918981,0,0,0,,0,82,82,118,1,BAVEL,HB,old,z,./images/BAVELHB.png,,,,,,,,,,,,,,,,,,,,,,
,,,,,,,,,,,,,,,,,198874,18,2022-01-29_16h13.52.411,lexical_decision_task_DD_L5,2021.2.3,MacIntel,120.0048002,,,,,,,,,,,0.5472,1,,,,,,,,,,,,,,m,1,0.5472,,,,,,,,-0.440028212,-0.104918981,0,0,0,space,0,83,83,68,1,VALLEY,C,old,m,./images/VALLEY.png,7.993,,,,,,,,,,,,,,,,,,,,,
,,,,,,,,,,,,,,,,,198874,18,2022-01-29_16h13.52.411,lexical_decision_task_DD_L5,2021.2.3,MacIntel,120.0048002,,,,,,,,,,,0.8181,1,,,,,,,,,,,,,,m,1,0.8181,,,,,,,,-0.440028212,-0.104918981,0,0,0,,0,84,84,57,1,FERRY,HB,old,m,./images/FERRYHB.png,,,,,,,,,,,,,,,,,,,,,,
,,,,,,,,,,,,,,,,,198874,18,2022-01-29_16h13.52.411,lexical_decision_task_DD_L5,2021.2.3,MacIntel,120.0048002,,,,,,,,,,,1.3579,1,,,,,,,,,,,,,,z,1,1.3579,,,,,,,,-0.440028212,-0.104918981,0,0,0,,0,85,85,85,1,CHULK,HB,old,z,./images/CHULKHB.png,,,,,,,,,,,,,,,,,,,,,,
,,,,,,,,,,,,,,,,,198874,18,2022-01-29_16h13.52.411,lexical_decision_task_DD_L5,2021.2.3,MacIntel,120.0048002,,,,,,,,,,,0.6198,1,,,,,,,,,,,,,,z,1,0.6198,,,,,,,,-0.440028212,-0.104918981,0,0,0,,0,86,86,155,1,CANGY,LB,old,z,./images/CANGYLB.png,,,,,,,,,,,,,,,,,,,,,,
,,,,,,,,,,,,,,,,,198874,18,2022-01-29_16h13.52.411,lexical_decision_task_DD_L5,2021.2.3,MacIntel,120.0048002,,,,,,,,,,,0.56,1,,,,,,,,,,,,,,m,1,0.56,,,,,,,,-0.440028212,-0.104918981,0,0,0,,0,87,87,70,1,BANANA,LB,old,m,./images/BANANALB.png,,,,,,,,,,,,,,,,,,,,,,
,,,,,,,,,,,,,,,,,198874,18,2022-01-29_16h13.52.411,lexical_decision_task_DD_L5,2021.2.3,MacIntel,120.0048002,,,,,,,,,,,0.6762,1,,,,,,,,,,,,,,z,1,0.6762,,,,,,,,-0.440028212,-0.104918981,0,0,0,,0,88,88,152,1,FRAIN,LB,old,z,./images/FRAINLB.png,,,,,,,,,,,,,,,,,,,,,,
,,,,,,,,,,,,,,,,,198874,18,2022-01-29_16h13.52.411,lexical_decision_task_DD_L5,2021.2.3,MacIntel,120.0048002,,,,,,,,,,,0.7046,1,,,,,,,,,,,,,,z,1,0.7046,,,,,,,,-0.440028212,-0.104918981,0,0,0,,0,89,89,104,1,GITTY,LB,old,z,./images/GITTYLB.png,,,,,,,,,,,,,,,,,,,,,,
,,,,,,,,,,,,,,,,,198874,18,2022-01-29_16h13.52.411,lexical_decision_task_DD_L5,2021.2.3,MacIntel,120.0048002,,,,,,,,,,,1.0453,1,,,,,,,,,,,,,,m,1,1.0453,,,,,,,,-0.440028212,-0.104918981,0,0,0,,0,90,90,72,1,FLASK,HB,old,m,./images/FLASKHB.png,,,,,,,,,,,,,,,,,,,,,,
,,,,,,,,,,,,,,,,,198874,18,2022-01-29_16h13.52.411,lexical_decision_task_DD_L5,2021.2.3,MacIntel,120.0048002,,,,,,,,,,,0.5301,1,,,,,,,,,,,,,,m,1,0.5301,,,,,,,,-0.440028212,-0.104918981,0,0,0,,0,91,91,37,1,TIGER,LB,old,m,./images/TIGERLB.png,,,,,,,,,,,,,,,,,,,,,,
,,,,,,,,,,,,,,,,,198874,18,2022-01-29_16h13.52.411,lexical_decision_task_DD_L5,2021.2.3,MacIntel,120.0048002,,,,,,,,,,,0.7311,1,,,,,,,,,,,,,,z,1,0.7311,,,,,,,,-0.440028212,-0.104918981,0,0,0,,0,92,92,146,1,MOOST,LB,old,z,./images/MOOSTLB.png,,,,,,,,,,,,,,,,,,,,,,
,,,,,,,,,,,,,,,,,198874,18,2022-01-29_16h13.52.411,lexical_decision_task_DD_L5,2021.2.3,MacIntel,120.0048002,,,,,,,,,,,0.5096,1,,,,,,,,,,,,,,m,1,0.5096,,,,,,,,-0.440028212,-0.104918981,0,0,0,,0,93,93,27,1,BUTTER,HB,old,m,./images/BUTTERHB.png,,,,,,,,,,,,,,,,,,,,,,
,,,,,,,,,,,,,,,,,198874,18,2022-01-29_16h13.52.411,lexical_decision_task_DD_L5,2021.2.3,MacIntel,120.0048002,,,,,,,,,,,0.6368,1,,,,,,,,,,,,,,z,1,0.6368,,,,,,,,-0.440028212,-0.104918981,0,0,0,,0,94,94,136,1,WERVE,HB,old,z,./images/WERVEHB.png,,,,,,,,,,,,,,,,,,,,,,
,,,,,,,,,,,,,,,,,198874,18,2022-01-29_16h13.52.411,lexical_decision_task_DD_L5,2021.2.3,MacIntel,120.0048002,,,,,,,,,,,0.491,1,,,,,,,,,,,,,,m,1,0.491,,,,,,,,-0.440028212,-0.104918981,0,0,0,,0,95,95,17,1,PARADE,C,old,m,./images/PARADE.png,,,,,,,,,,,,,,,,,,,,,,
,,,,,,,,,,,,,,,,,198874,18,2022-01-29_16h13.52.411,lexical_decision_task_DD_L5,2021.2.3,MacIntel,120.0048002,,,,,,,,,,,0.6881,1,,,,,,,,,,,,,,m,1,0.6881,,,,,,,,-0.440028212,-0.104918981,0,0,0,,0,96,96,83,1,WHISKY,C,old,m,./images/WHISKY.png,,,,,,,,,,,,,,,,,,,,,,
,,,,,,,,,,,,,,,,,198874,18,2022-01-29_16h13.52.411,lexical_decision_task_DD_L5,2021.2.3,MacIntel,120.0048002,,,,,,,,,,,0.5739,1,,,,,,,,,,,,,,m,1,0.5739,,,,,,,,-0.440028212,-0.104918981,0,0,0,,0,97,97,21,1,DANCER,HB,old,m,./images/DANCERHB.png,,,,,,,,,,,,,,,,,,,,,,
,,,,,,,,,,,,,,,,,198874,18,2022-01-29_16h13.52.411,lexical_decision_task_DD_L5,2021.2.3,MacIntel,120.0048002,,,,,,,,,,,0.8268,1,,,,,,,,,,,,,,m,1,0.8268,,,,,,,,-0.440028212,-0.104918981,0,0,0,,0,98,98,60,1,CURRY,HB,old,m,./images/CURRYHB.png,,,,,,,,,,,,,,,,,,,,,,
,,,,,,,,,,,,,,,,,198874,18,2022-01-29_16h13.52.411,lexical_decision_task_DD_L5,2021.2.3,MacIntel,120.0048002,,,,,,,,,,,0.6006,1,,,,,,,,,,,,,,m,1,0.6006,,,,,,,,-0.440028212,-0.104918981,0,0,0,,0,99,99,15,1,COLLAR,HB,old,m,./images/COLLARHB.png,,,,,,,,,,,,,,,,,,,,,,
,,,,,,,,,,,,,,,,,198874,18,2022-01-29_16h13.52.411,lexical_decision_task_DD_L5,2021.2.3,MacIntel,120.0048002,,,,,,,,,,,0.7281,1,,,,,,,,,,,,,,m,1,0.7281,,,,,,,,-0.440028212,-0.104918981,0,0,0,,0,100,100,3,1,CRATER,HB,old,m,./images/CRATERHB.png,,,,,,,,,,,,,,,,,,,,,,
,,,,,,,,,,,,,,,,,198874,18,2022-01-29_16h13.52.411,lexical_decision_task_DD_L5,2021.2.3,MacIntel,120.0048002,,,,,,,,,,,0.5428,1,,,,,,,,,,,,,,m,1,0.5428,,,,,,,,-0.440028212,-0.104918981,0,0,0,,0,101,101,16,1,GRAPE,LB,old,m,./images/GRAPELB.png,,,,,,,,,,,,,,,,,,,,,,
,,,,,,,,,,,,,,,,,198874,18,2022-01-29_16h13.52.411,lexical_decision_task_DD_L5,2021.2.3,MacIntel,120.0048002,,,,,,,,,,,0.5902,1,,,,,,,,,,,,,,z,1,0.5902,,,,,,,,-0.440028212,-0.104918981,0,0,0,,0,102,102,141,1,PLEET,C,old,z,./images/PLEET.png,,,,,,,,,,,,,,,,,,,,,,
,,,,,,,,,,,,,,,,,198874,18,2022-01-29_16h13.52.411,lexical_decision_task_DD_L5,2021.2.3,MacIntel,120.0048002,,,,,,,,,,,0.8019,1,,,,,,,,,,,,,,m,1,0.8019,,,,,,,,-0.440028212,-0.104918981,0,0,0,,0,103,103,18,1,PARCEL,HB,old,m,./images/PARCELHB.png,,,,,,,,,,,,,,,,,,,,,,
,,,,,,,,,,,,,,,,,198874,18,2022-01-29_16h13.52.411,lexical_decision_task_DD_L5,2021.2.3,MacIntel,120.0048002,,,,,,,,,,,0.6725,1,,,,,,,,,,,,,,z,1,0.6725,,,,,,,,-0.440028212,-0.104918981,0,0,0,,0,104,104,151,1,TINKY,HB,old,z,./images/TINKYHB.png,,,,,,,,,,,,,,,,,,,,,,
,,,,,,,,,,,,,,,,,198874,18,2022-01-29_16h13.52.411,lexical_decision_task_DD_L5,2021.2.3,MacIntel,120.0048002,,,,,,,,,,,0.6731,1,,,,,,,,,,,,,,m,1,0.6731,,,,,,,,-0.440028212,-0.104918981,0,0,0,,0,105,105,46,1,MUMMY,LB,old,m,./images/MUMMYLB.png,,,,,,,,,,,,,,,,,,,,,,
,,,,,,,,,,,,,,,,,198874,18,2022-01-29_16h13.52.411,lexical_decision_task_DD_L5,2021.2.3,MacIntel,120.0048002,,,,,,,,,,,0.5445,1,,,,,,,,,,,,,,m,1,0.5445,,,,,,,,-0.440028212,-0.104918981,0,0,0,,0,106,106,61,1,ARTIST,LB,old,m,./images/ARTISTLB.png,,,,,,,,,,,,,,,,,,,,,,
,,,,,,,,,,,,,,,,,198874,18,2022-01-29_16h13.52.411,lexical_decision_task_DD_L5,2021.2.3,MacIntel,120.0048002,,,,,,,,,,,0.996,1,,,,,,,,,,,,,,z,1,0.996,,,,,,,,-0.440028212,-0.104918981,0,0,0,,0,107,107,121,1,CEERS,HB,old,z,./images/CEERSHB.png,,,,,,,,,,,,,,,,,,,,,,
,,,,,,,,,,,,,,,,,198874,18,2022-01-29_16h13.52.411,lexical_decision_task_DD_L5,2021.2.3,MacIntel,120.0048002,,,,,,,,,,,0.6986,1,,,,,,,,,,,,,,z,1,0.6986,,,,,,,,-0.440028212,-0.104918981,0,0,0,,0,108,108,115,1,MAWNS,HB,old,z,./images/MAWNSHB.png,,,,,,,,,,,,,,,,,,,,,,
,,,,,,,,,,,,,,,,,198874,18,2022-01-29_16h13.52.411,lexical_decision_task_DD_L5,2021.2.3,MacIntel,120.0048002,,,,,,,,,,,0.5384,1,,,,,,,,,,,,,,m,1,0.5384,,,,,,,,-0.440028212,-0.104918981,0,0,0,,0,109,109,7,1,WAGON,LB,old,m,./images/WAGONLB.png,,,,,,,,,,,,,,,,,,,,,,
,,,,,,,,,,,,,,,,,198874,18,2022-01-29_16h13.52.411,lexical_decision_task_DD_L5,2021.2.3,MacIntel,120.0048002,,,,,,,,,,,0.5707,1,,,,,,,,,,,,,,m,1,0.5707,,,,,,,,-0.440028212,-0.104918981,0,0,0,,0,110,110,35,1,LLAMA,C,old,m,./images/LLAMA.png,,,,,,,,,,,,,,,,,,,,,,
,,,,,,,,,,,,,,,,,198874,18,2022-01-29_16h13.52.411,lexical_decision_task_DD_L5,2021.2.3,MacIntel,120.0048002,,,,,,,,,,,0.5283,1,,,,,,,,,,,,,,z,1,0.5283,,,,,,,,-0.440028212,-0.104918981,0,0,0,,0,111,111,116,1,BALGY,LB,old,z,./images/BALGYLB.png,,,,,,,,,,,,,,,,,,,,,,
,,,,,,,,,,,,,,,,,198874,18,2022-01-29_16h13.52.411,lexical_decision_task_DD_L5,2021.2.3,MacIntel,120.0048002,,,,,,,,,,,0.5505,1,,,,,,,,,,,,,,m,1,0.5505,,,,,,,,-0.440028212,-0.104918981,0,0,0,,0,112,112,62,1,MAMMAL,C,old,m,./images/MAMMAL.png,,,,,,,,,,,,,,,,,,,,,,
,,,,,,,,,,,,,,,,,198874,18,2022-01-29_16h13.52.411,lexical_decision_task_DD_L5,2021.2.3,MacIntel,120.0048002,,,,,,,,,,,0.5983,1,,,,,,,,,,,,,,z,1,0.5983,,,,,,,,-0.440028212,-0.104918981,0,0,0,,0,113,113,110,1,CRUNK,LB,old,z,./images/CRUNKLB.png,,,,,,,,,,,,,,,,,,,,,,
,,,,,,,,,,,,,,,,,198874,18,2022-01-29_16h13.52.411,lexical_decision_task_DD_L5,2021.2.3,MacIntel,120.0048002,,,,,,,,,,,0.6162,1,,,,,,,,,,,,,,z,1,0.6162,,,,,,,,-0.440028212,-0.104918981,0,0,0,,0,114,114,122,1,BLOOT,LB,old,z,./images/BLOOTLB.png,,,,,,,,,,,,,,,,,,,,,,
,,,,,,,,,,,,,,,,,198874,18,2022-01-29_16h13.52.411,lexical_decision_task_DD_L5,2021.2.3,MacIntel,120.0048002,,,,,,,,,,,0.7325,1,,,,,,,,,,,,,,z,1,0.7325,,,,,,,,-0.440028212,-0.104918981,0,0,0,,0,115,115,139,1,BLEAR,HB,old,z,./images/BLEARHB.png,,,,,,,,,,,,,,,,,,,,,,
,,,,,,,,,,,,,,,,,198874,18,2022-01-29_16h13.52.411,lexical_decision_task_DD_L5,2021.2.3,MacIntel,120.0048002,,,,,,,,,,,0.8871,1,,,,,,,,,,,,,,z,1,0.8871,,,,,,,,-0.440028212,-0.104918981,0,0,0,,0,116,116,149,1,VEASE,LB,old,z,./images/VEASELB.png,,,,,,,,,,,,,,,,,,,,,,
,,,,,,,,,,,,,,,,,198874,18,2022-01-29_16h13.52.411,lexical_decision_task_DD_L5,2021.2.3,MacIntel,120.0048002,,,,,,,,,,,0.7368,1,,,,,,,,,,,,,,m,1,0.7368,,,,,,,,-0.440028212,-0.104918981,0,0,0,,0,117,117,47,1,LAGOON,C,old,m,./images/LAGOON.png,,,,,,,,,,,,,,,,,,,,,,
,,,,,,,,,,,,,,,,,198874,18,2022-01-29_16h13.52.411,lexical_decision_task_DD_L5,2021.2.3,MacIntel,120.0048002,,,,,,,,,,,0.5119,1,,,,,,,,,,,,,,m,1,0.5119,,,,,,,,-0.440028212,-0.104918981,0,0,0,,0,118,118,65,1,SPINE,C,old,m,./images/SPINE.png,,,,,,,,,,,,,,,,,,,,,,
,,,,,,,,,,,,,,,,,198874,18,2022-01-29_16h13.52.411,lexical_decision_task_DD_L5,2021.2.3,MacIntel,120.0048002,,,,,,,,,,,0.5026,1,,,,,,,,,,,,,,m,1,0.5026,,,,,,,,-0.440028212,-0.104918981,0,0,0,,0,119,119,41,1,STREAM,C,old,m,./images/STREAM.png,,,,,,,,,,,,,,,,,,,,,,
,,,,,,,,,,,,,,,,,198874,18,2022-01-29_16h13.52.411,lexical_decision_task_DD_L5,2021.2.3,MacIntel,120.0048002,,,,,,,,,,,0.4945,1,,,,,,,,,,,,,,z,1,0.4945,,,,,,,,-0.440028212,-0.104918981,0,0,0,,0,120,120,95,1,HANTY,LB,old,z,./images/HANTYLB.png,,,,,,,,,,,,,,,,,,,,,,
,,,,,,,,,,,,,,,,,198874,18,2022-01-29_16h13.52.411,lexical_decision_task_DD_L5,2021.2.3,MacIntel,120.0048002,,,,,,,,,,,0.6505,1,,,,,,,,,,,,,,z,1,0.6505,,,,,,,,-0.440028212,-0.104918981,0,0,0,,0,121,121,158,1,EGECT,LB,old,z,./images/EGECTLB.png,,,,,,,,,,,,,,,,,,,,,,
,,,,,,,,,,,,,,,,,198874,18,2022-01-29_16h13.52.411,lexical_decision_task_DD_L5,2021.2.3,MacIntel,120.0048002,,,,,,,,,,,0.5667,1,,,,,,,,,,,,,,m,1,0.5667,,,,,,,,-0.440028212,-0.104918981,0,0,0,,0,122,122,42,1,CHAIN,HB,old,m,./images/CHAINHB.png,,,,,,,,,,,,,,,,,,,,,,
,,,,,,,,,,,,,,,,,198874,18,2022-01-29_16h13.52.411,lexical_decision_task_DD_L5,2021.2.3,MacIntel,120.0048002,,,,,,,,,,,0.5368,1,,,,,,,,,,,,,,m,1,0.5368,,,,,,,,-0.440028212,-0.104918981,0,0,0,,0,123,123,5,1,BAMBOO,C,old,m,./images/BAMBOO.png,,,,,,,,,,,,,,,,,,,,,,
,,,,,,,,,,,,,,,,,198874,18,2022-01-29_16h13.52.411,lexical_decision_task_DD_L5,2021.2.3,MacIntel,120.0048002,,,,,,,,,,,0.9638,1,,,,,,,,,,,,,,m,1,0.9638,,,,,,,,-0.440028212,-0.104918981,0,0,0,,0,124,124,33,1,SAUNA,HB,old,m,./images/SAUNAHB.png,,,,,,,,,,,,,,,,,,,,,,
,,,,,,,,,,,,,,,,,198874,18,2022-01-29_16h13.52.411,lexical_decision_task_DD_L5,2021.2.3,MacIntel,120.0048002,,,,,,,,,,,0.5035,1,,,,,,,,,,,,,,z,1,0.5035,,,,,,,,-0.440028212,-0.104918981,0,0,0,space,0,125,125,135,1,JOODY,C,old,z,./images/JOODY.png,10.7103,,,,,,,,,,,,,,,,,,,,,
,,,,,,,,,,,,,,,,,198874,18,2022-01-29_16h13.52.411,lexical_decision_task_DD_L5,2021.2.3,MacIntel,120.0048002,,,,,,,,,,,0.8412,1,,,,,,,,,,,,,,z,1,0.8412,,,,,,,,-0.440028212,-0.104918981,0,0,0,,0,126,126,124,1,TUNCH,HB,old,z,./images/TUNCHHB.png,,,,,,,,,,,,,,,,,,,,,,
,,,,,,,,,,,,,,,,,198874,18,2022-01-29_16h13.52.411,lexical_decision_task_DD_L5,2021.2.3,MacIntel,120.0048002,,,,,,,,,,,0.5944,1,,,,,,,,,,,,,,z,1,0.5944,,,,,,,,-0.440028212,-0.104918981,0,0,0,,0,127,127,143,1,MONGS,LB,old,z,./images/MONGSLB.png,,,,,,,,,,,,,,,,,,,,,,
,,,,,,,,,,,,,,,,,198874,18,2022-01-29_16h13.52.411,lexical_decision_task_DD_L5,2021.2.3,MacIntel,120.0048002,,,,,,,,,,,0.5521,1,,,,,,,,,,,,,,z,1,0.5521,,,,,,,,-0.440028212,-0.104918981,0,0,0,,0,128,128,156,1,HIXES,C,old,z,./images/HIXES.png,,,,,,,,,,,,,,,,,,,,,,
,,,,,,,,,,,,,,,,,198874,18,2022-01-29_16h13.52.411,lexical_decision_task_DD_L5,2021.2.3,MacIntel,120.0048002,,,,,,,,,,,0.69,1,,,,,,,,,,,,,,z,1,0.69,,,,,,,,-0.440028212,-0.104918981,0,0,0,,0,129,129,113,1,LINEW,LB,old,z,./images/LINEWLB.png,,,,,,,,,,,,,,,,,,,,,,
,,,,,,,,,,,,,,,,,198874,18,2022-01-29_16h13.52.411,lexical_decision_task_DD_L5,2021.2.3,MacIntel,120.0048002,,,,,,,,,,,0.5224,1,,,,,,,,,,,,,,m,1,0.5224,,,,,,,,-0.440028212,-0.104918981,0,0,0,,0,130,130,43,1,STOOL,LB,old,m,./images/STOOLLB.png,,,,,,,,,,,,,,,,,,,,,,
,,,,,,,,,,,,,,,,,198874,18,2022-01-29_16h13.52.411,lexical_decision_task_DD_L5,2021.2.3,MacIntel,120.0048002,,,,,,,,,,,0.4797,1,,,,,,,,,,,,,,m,1,0.4797,,,,,,,,-0.440028212,-0.104918981,0,0,0,,0,131,131,64,1,BRIDE,LB,old,m,./images/BRIDELB.png,,,,,,,,,,,,,,,,,,,,,,
,,,,,,,,,,,,,,,,,198874,18,2022-01-29_16h13.52.411,lexical_decision_task_DD_L5,2021.2.3,MacIntel,120.0048002,,,,,,,,,,,1.1137,1,,,,,,,,,,,,,,z,1,1.1137,,,,,,,,-0.440028212,-0.104918981,0,0,0,,0,132,132,154,1,THINT,HB,old,z,./images/THINTHB.png,,,,,,,,,,,,,,,,,,,,,,
,,,,,,,,,,,,,,,,,198874,18,2022-01-29_16h13.52.411,lexical_decision_task_DD_L5,2021.2.3,MacIntel,120.0048002,,,,,,,,,,,0.4791,1,,,,,,,,,,,,,,m,1,0.4791,,,,,,,,-0.440028212,-0.104918981,0,0,0,,0,133,133,10,1,GARDEN,LB,old,m,./images/GARDENLB.png,,,,,,,,,,,,,,,,,,,,,,
,,,,,,,,,,,,,,,,,198874,18,2022-01-29_16h13.52.411,lexical_decision_task_DD_L5,2021.2.3,MacIntel,120.0048002,,,,,,,,,,,0.655,1,,,,,,,,,,,,,,z,1,0.655,,,,,,,,-0.440028212,-0.104918981,0,0,0,,0,134,134,125,1,MOOKY,LB,old,z,./images/MOOKYLB.png,,,,,,,,,,,,,,,,,,,,,,
,,,,,,,,,,,,,,,,,198874,18,2022-01-29_16h13.52.411,lexical_decision_task_DD_L5,2021.2.3,MacIntel,120.0048002,,,,,,,,,,,0.7281,1,,,,,,,,,,,,,,z,1,0.7281,,,,,,,,-0.440028212,-0.104918981,0,0,0,,0,135,135,103,1,FLORT,HB,old,z,./images/FLORTHB.png,,,,,,,,,,,,,,,,,,,,,,
,,,,,,,,,,,,,,,,,198874,18,2022-01-29_16h13.52.411,lexical_decision_task_DD_L5,2021.2.3,MacIntel,120.0048002,,,,,,,,,,,0.5346,1,,,,,,,,,,,,,,m,1,0.5346,,,,,,,,-0.440028212,-0.104918981,0,0,0,,0,136,136,39,1,CANDY,HB,old,m,./images/CANDYHB.png,,,,,,,,,,,,,,,,,,,,,,
,,,,,,,,,,,,,,,,,198874,18,2022-01-29_16h13.52.411,lexical_decision_task_DD_L5,2021.2.3,MacIntel,120.0048002,,,,,,,,,,,0.6212,1,,,,,,,,,,,,,,m,1,0.6212,,,,,,,,-0.440028212,-0.104918981,0,0,0,,0,137,137,51,1,SAUCE,HB,old,m,./images/SAUCEHB.png,,,,,,,,,,,,,,,,,,,,,,
,,,,,,,,,,,,,,,,,198874,18,2022-01-29_16h13.52.411,lexical_decision_task_DD_L5,2021.2.3,MacIntel,120.0048002,,,,,,,,,,,0.5209,1,,,,,,,,,,,,,,m,1,0.5209,,,,,,,,-0.440028212,-0.104918981,0,0,0,,0,138,138,56,1,HEATER,C,old,m,./images/HEATER.png,,,,,,,,,,,,,,,,,,,,,,
,,,,,,,,,,,,,,,,,198874,18,2022-01-29_16h13.52.411,lexical_decision_task_DD_L5,2021.2.3,MacIntel,120.0048002,,,,,,,,,,,0.5914,1,,,,,,,,,,,,,,z,1,0.5914,,,,,,,,-0.440028212,-0.104918981,0,0,0,,0,139,139,123,1,SEDGE,C,old,z,./images/SEDGE.png,,,,,,,,,,,,,,,,,,,,,,
,,,,,,,,,,,,,,,,,198874,18,2022-01-29_16h13.52.411,lexical_decision_task_DD_L5,2021.2.3,MacIntel,120.0048002,,,,,,,,,,,0.5382,1,,,,,,,,,,,,,,z,1,0.5382,,,,,,,,-0.440028212,-0.104918981,0,0,0,,0,140,140,90,1,NEAST,C,old,z,./images/NEAST.png,,,,,,,,,,,,,,,,,,,,,,
,,,,,,,,,,,,,,,,,198874,18,2022-01-29_16h13.52.411,lexical_decision_task_DD_L5,2021.2.3,MacIntel,120.0048002,,,,,,,,,,,0.5278,1,,,,,,,,,,,,,,m,1,0.5278,,,,,,,,-0.440028212,-0.104918981,0,0,0,,0,141,141,8,1,CLIFF,C,old,m,./images/CLIFF.png,,,,,,,,,,,,,,,,,,,,,,
,,,,,,,,,,,,,,,,,198874,18,2022-01-29_16h13.52.411,lexical_decision_task_DD_L5,2021.2.3,MacIntel,120.0048002,,,,,,,,,,,0.7713,1,,,,,,,,,,,,,,z,1,0.7713,,,,,,,,-0.440028212,-0.104918981,0,0,0,,0,142,142,111,1,HOSSE,C,old,z,./images/HOSSE.png,,,,,,,,,,,,,,,,,,,,,,
,,,,,,,,,,,,,,,,,198874,18,2022-01-29_16h13.52.411,lexical_decision_task_DD_L5,2021.2.3,MacIntel,120.0048002,,,,,,,,,,,0.6417,1,,,,,,,,,,,,,,z,1,0.6417,,,,,,,,-0.440028212,-0.104918981,0,0,0,,0,143,143,160,1,VEETS,HB,old,z,./images/VEETSHB.png,,,,,,,,,,,,,,,,,,,,,,
,,,,,,,,,,,,,,,,,198874,18,2022-01-29_16h13.52.411,lexical_decision_task_DD_L5,2021.2.3,MacIntel,120.0048002,,,,,,,,,,,1.2064,1,,,,,,,,,,,,,,z,1,1.2064,,,,,,,,-0.440028212,-0.104918981,0,0,0,,0,144,144,91,1,SHENS,HB,old,z,./images/SHENSHB.png,,,,,,,,,,,,,,,,,,,,,,
,,,,,,,,,,,,,,,,,198874,18,2022-01-29_16h13.52.411,lexical_decision_task_DD_L5,2021.2.3,MacIntel,120.0048002,,,,,,,,,,,0.638,1,,,,,,,,,,,,,,z,1,0.638,,,,,,,,-0.440028212,-0.104918981,0,0,0,,0,145,145,107,1,FASKS,LB,old,z,./images/FASKSLB.png,,,,,,,,,,,,,,,,,,,,,,
,,,,,,,,,,,,,,,,,198874,18,2022-01-29_16h13.52.411,lexical_decision_task_DD_L5,2021.2.3,MacIntel,120.0048002,,,,,,,,,,,0.678,1,,,,,,,,,,,,,,z,1,0.678,,,,,,,,-0.440028212,-0.104918981,0,0,0,,0,146,146,98,1,BAMPS,LB,old,z,./images/BAMPSLB.png,,,,,,,,,,,,,,,,,,,,,,
,,,,,,,,,,,,,,,,,198874,18,2022-01-29_16h13.52.411,lexical_decision_task_DD_L5,2021.2.3,MacIntel,120.0048002,,,,,,,,,,,0.524,1,,,,,,,,,,,,,,m,1,0.524,,,,,,,,-0.440028212,-0.104918981,0,0,0,,0,147,147,44,1,BASKET,C,old,m,./images/BASKET.png,,,,,,,,,,,,,,,,,,,,,,
,,,,,,,,,,,,,,,,,198874,18,2022-01-29_16h13.52.411,lexical_decision_task_DD_L5,2021.2.3,MacIntel,120.0048002,,,,,,,,,,,1.1689,1,,,,,,,,,,,,,,z,1,1.1689,,,,,,,,-0.440028212,-0.104918981,0,0,0,,0,148,148,157,1,INLER,HB,old,z,./images/INLERHB.png,,,,,,,,,,,,,,,,,,,,,,
,,,,,,,,,,,,,,,,,198874,18,2022-01-29_16h13.52.411,lexical_decision_task_DD_L5,2021.2.3,MacIntel,120.0048002,,,,,,,,,,,0.7321,1,,,,,,,,,,,,,,z,1,0.7321,,,,,,,,-0.440028212,-0.104918981,0,0,0,,0,149,149,105,1,MOKER,C,old,z,./images/MOKER.png,,,,,,,,,,,,,,,,,,,,,,
,,,,,,,,,,,,,,,,,198874,18,2022-01-29_16h13.52.411,lexical_decision_task_DD_L5,2021.2.3,MacIntel,120.0048002,,,,,,,,,,,0.6161,1,,,,,,,,,,,,,,m,1,0.6161,,,,,,,,-0.440028212,-0.104918981,0,0,0,,0,150,150,45,1,MONKEY,HB,old,m,./images/MONKEYHB.png,,,,,,,,,,,,,,,,,,,,,,
,,,,,,,,,,,,,,,,,198874,18,2022-01-29_16h13.52.411,lexical_decision_task_DD_L5,2021.2.3,MacIntel,120.0048002,,,,,,,,,,,0.9169,1,,,,,,,,,,,,,,z,1,0.9169,,,,,,,,-0.440028212,-0.104918981,0,0,0,,0,151,151,102,1,DULLE,C,old,z,./images/DULLE.png,,,,,,,,,,,,,,,,,,,,,,
,,,,,,,,,,,,,,,,,198874,18,2022-01-29_16h13.52.411,lexical_decision_task_DD_L5,2021.2.3,MacIntel,120.0048002,,,,,,,,,,,0.5632,1,,,,,,,,,,,,,,m,1,0.5632,,,,,,,,-0.440028212,-0.104918981,0,0,0,,0,152,152,80,1,PLANET,C,old,m,./images/PLANET.png,,,,,,,,,,,,,,,,,,,,,,
,,,,,,,,,,,,,,,,,198874,18,2022-01-29_16h13.52.411,lexical_decision_task_DD_L5,2021.2.3,MacIntel,120.0048002,,,,,,,,,,,1.1965,1,,,,,,,,,,,,,,z,1,1.1965,,,,,,,,-0.440028212,-0.104918981,0,0,0,,0,153,153,142,1,PLASK,HB,old,z,./images/PLASKHB.png,,,,,,,,,,,,,,,,,,,,,,
,,,,,,,,,,,,,,,,,198874,18,2022-01-29_16h13.52.411,lexical_decision_task_DD_L5,2021.2.3,MacIntel,120.0048002,,,,,,,,,,,0.804,1,,,,,,,,,,,,,,m,1,0.804,,,,,,,,-0.440028212,-0.104918981,0,0,0,,0,154,154,24,1,FLESH,HB,old,m,./images/FLESHHB.png,,,,,,,,,,,,,,,,,,,,,,
,,,,,,,,,,,,,,,,,198874,18,2022-01-29_16h13.52.411,lexical_decision_task_DD_L5,2021.2.3,MacIntel,120.0048002,,,,,,,,,,,0.6222,1,,,,,,,,,,,,,,z,1,0.6222,,,,,,,,-0.440028212,-0.104918981,0,0,0,,0,155,155,164,1,SGREW,LB,old,z,./images/SGREWLB.png,,,,,,,,,,,,,,,,,,,,,,
,,,,,,,,,,,,,,,,,198874,18,2022-01-29_16h13.52.411,lexical_decision_task_DD_L5,2021.2.3,MacIntel,120.0048002,,,,,,,,,,,0.6669,1,,,,,,,,,,,,,,z,1,0.6669,,,,,,,,-0.440028212,-0.104918981,0,0,0,,0,156,156,131,1,NACES,LB,old,z,./images/NACESLB.png,,,,,,,,,,,,,,,,,,,,,,
,,,,,,,,,,,,,,,,,198874,18,2022-01-29_16h13.52.411,lexical_decision_task_DD_L5,2021.2.3,MacIntel,120.0048002,,,,,,,,,,,0.5008,1,,,,,,,,,,,,,,m,1,0.5008,,,,,,,,-0.440028212,-0.104918981,0,0,0,,0,157,157,28,1,CASINO,LB,old,m,./images/CASINOLB.png,,,,,,,,,,,,,,,,,,,,,,
,,,,,,,,,,,,,,,,,198874,18,2022-01-29_16h13.52.411,lexical_decision_task_DD_L5,2021.2.3,MacIntel,120.0048002,,,,,,,,,,,0.4985,1,,,,,,,,,,,,,,z,1,0.4985,,,,,,,,-0.440028212,-0.104918981,0,0,0,,0,158,158,147,1,ZOLES,C,old,z,./images/ZOLES.png,,,,,,,,,,,,,,,,,,,,,,
,,,,,,,,,,,,,,,,,198874,18,2022-01-29_16h13.52.411,lexical_decision_task_DD_L5,2021.2.3,MacIntel,120.0048002,,,,,,,,,,,1.0038,1,,,,,,,,,,,,,,z,1,1.0038,,,,,,,,-0.440028212,-0.104918981,0,0,0,,0,159,159,106,1,CLUMS,HB,old,z,./images/CLUMSHB.png,,,,,,,,,,,,,,,,,,,,,,
,,,,,,,,,,,,,,,,,198874,18,2022-01-29_16h13.52.411,lexical_decision_task_DD_L5,2021.2.3,MacIntel,120.0048002,,,,,,,,,,,0.6805,1,,,,,,,,,,,,,,m,1,0.6805,,,,,,,,-0.440028212,-0.104918981,0,0,0,,0,160,160,78,1,BROOM,HB,old,m,./images/BROOMHB.png,,,,,,,,,,,,,,,,,,,,,,
,,,,,,,,,,,,,,,,,198874,18,2022-01-29_16h13.52.411,lexical_decision_task_DD_L5,2021.2.3,MacIntel,120.0048002,,,,,,,,,,,0.6077,1,,,,,,,,,,,,,,z,1,0.6077,,,,,,,,-0.440028212,-0.104918981,0,0,0,,0,161,161,101,1,GLEET,LB,old,z,./images/GLEETLB.png,,,,,,,,,,,,,,,,,,,,,,
,,,,,,,,,,,,,,,,,198874,18,2022-01-29_16h13.52.411,lexical_decision_task_DD_L5,2021.2.3,MacIntel,120.0048002,,,,,,,,,,,0.8665,1,,,,,,,,,,,,,,m,1,0.8665,,,,,,,,-0.440028212,-0.104918981,0,0,0,,0,162,162,12,1,BLOKE,HB,old,m,./images/BLOKEHB.png,,,,,,,,,,,,,,,,,,,,,,
,,,,,,,,,,,,,,,,,198874,18,2022-01-29_16h13.52.411,lexical_decision_task_DD_L5,2021.2.3,MacIntel,120.0048002,,,,,,,,,,,0.9743,1,,,,,,,,,,,,,,z,1,0.9743,,,,,,,,-0.440028212,-0.104918981,0,0,0,,0,163,163,133,1,POWDY,HB,old,z,./images/POWDYHB.png,,,,,,,,,,,,,,,,,,,,,,
,,,,,,,,,,,,,,,,,198874,18,2022-01-29_16h13.52.411,lexical_decision_task_DD_L5,2021.2.3,MacIntel,120.0048002,,,,,,,,,,,0.5405,1,,,,,,,,,,,,,,m,1,0.5405,,,,,,,,-0.440028212,-0.104918981,0,0,0,,0,164,164,1,1,TOWEL,LB,old,m,./images/TOWELLB.png,,,,,,,,,,,,,,,,,,,,,,
,,,,,,,,,,,,,,,,,198874,18,2022-01-29_16h13.52.411,lexical_decision_task_DD_L5,2021.2.3,MacIntel,120.0048002,,,,,,,,,,,0.6085,1,,,,,,,,,,,,,,z,1,0.6085,,,,,,,,-0.440028212,-0.104918981,0,0,0,,0,165,165,120,1,RINED,C,old,z,./images/RINED.png,,,,,,,,,,,,,,,,,,,,,,
,,,,,,,,,,,,,,,,,198874,18,2022-01-29_16h13.52.411,lexical_decision_task_DD_L5,2021.2.3,MacIntel,120.0048002,,,,,,,,,,,0.5893,1,,,,,,,,,,,,,,m,1,0.5893,,,,,,,,-0.440028212,-0.104918981,0,0,0,,0,166,166,52,1,DESERT,LB,old,m,./images/DESERTLB.png,,,,,,,,,,,,,,,,,,,,,,
,,,,,,,,,,,,,,,,,198874,18,2022-01-29_16h13.52.411,lexical_decision_task_DD_L5,2021.2.3,MacIntel,120.0048002,,,,,,,,,,,0.697,1,,,,,,,,,,,,,,z,1,0.697,,,,,,,,-0.440028212,-0.104918981,0,0,0,,0,167,167,130,1,CRILL,HB,old,z,./images/CRILLHB.png,,,,,,,,,,,,,,,,,,,,,,
space,22.15,-0.440028212,-0.104918981,0,0,0,,,,,,1,test,"In the next phase you will be presented with the words from the the first phase. Your job is to decide whether you remember seeing the word or not. If you remember seeing the word press ""old"" or type ""m"". If you do not remember seeing the word press ""new"" or type ""z"". Please press the space bar or click on continue to begin. ",,,198874,18,2022-01-29_16h13.52.411,lexical_decision_task_DD_L5,2021.2.3,MacIntel,120.0048002,,,,,,,,,,,,,,,,,,,,,,,,,,,,,,,,,,,,,,,,,,,,,,,,,,,,,0,0,0,0,1,,,,,,,,,,,,,,,,
space,1.519,-0.440028212,-0.104918981,0,0,0,,,,,,1,test,"In the next phase you will be presented with the words from the the first phase. Your job is to decide whether you remember seeing the word or not. If you remember seeing the word press ""old"" or type ""m"". If you do not remember seeing the word press ""new"" or type ""z"". Please press the space bar or click on continue to begin. ",,,198874,18,2022-01-29_16h13.52.411,lexical_decision_task_DD_L5,2021.2.3,MacIntel,120.0048002,,,,,,,,,,,,,,,,,,,,,,,,,,,,,,,,,,,,,,,,,,,,,,,,,,,,,1,0,1,0,1,,,,,,,,,,,,,,,,
space,3.0859,-0.248734086,-0.139590567,0,0,0,,,,,,1,test,"In the next phase you will be presented with the words from the the first phase. Your job is to decide whether you remember seeing the word or not. If you remember seeing the word press ""old"" or type ""m"". If you do not remember seeing the word press ""new"" or type ""z"". Please press the space bar or click on continue to begin. ",,,198874,18,2022-01-29_16h13.52.411,lexical_decision_task_DD_L5,2021.2.3,MacIntel,120.0048002,,,,,,,,,,,,,,,,,,,,,,,,,,,,,,,,,,,,,,,,,,,,,,,,,,,,,2,0,2,0,1,,,,,,,,,,,,,,,,
,,-0.038422309,-0.403895399,1,0,0,,,,,,1,test,"In the next phase you will be presented with the words from the the first phase. Your job is to decide whether you remember seeing the word or not. If you remember seeing the word press ""old"" or type ""m"". If you do not remember seeing the word press ""new"" or type ""z"". Please press the space bar or click on continue to begin. ",,,198874,18,2022-01-29_16h13.52.411,lexical_decision_task_DD_L5,2021.2.3,MacIntel,120.0048002,,,,,,,,,,,,,,,,,,,,,,,,,,,,,,,,,,,,,,,,,,,,,,,,,,,,,3,0,3,0,1,instr_done_button,,,,,,,,,,,,,,,
,,0.011834491,-0.356731047,1,0,0,,,,,,1,test,"In the next phase you will be presented with the words from the the first phase. Your job is to decide whether you remember seeing the word or not. If you remember seeing the word press ""old"" or type ""m"". If you do not remember seeing the word press ""new"" or type ""z"". Please press the space bar or click on continue to begin. ",,,198874,18,2022-01-29_16h13.52.411,lexical_decision_task_DD_L5,2021.2.3,MacIntel,120.0048002,,,,,,,,,,,,,,,,,,,,,,,,,,,,,,,,,,,,,,,,,,,,,,,,,,,,,4,0,4,0,1,instr_done_button,,,,,,,,,,,,,,,
,,,,,,,,,,,,,,,,,198874,18,2022-01-29_16h13.52.411,lexical_decision_task_DD_L5,2021.2.3,MacIntel,120.0048002,,,,,,,,,,,4.8305,1,,,,,,,,,,,,,,,,,,,,,,,,0.022453704,-0.268420862,0,0,0,,,,,,,LITTER,HB,z,y,./images/LITTERHB.png,,,,,,,,z,1,4.8305,,,,,,,,0,0,0,162,1
,,,,,,,,,,,,,,,,,198874,18,2022-01-29_16h13.52.411,lexical_decision_task_DD_L5,2021.2.3,MacIntel,120.0048002,,,,,,,,,,,1.9599,0,,,,,,,,,,,,,,,,,,,,,,,,0.022453704,-0.268420862,0,0,0,,,,,,,BRUSH,C,m,y,./images/BRUSH.png,,,,,,,,z,0,1.9599,,,,,,,,0,1,1,59,1
,,,,,,,,,,,,,,,,,198874,18,2022-01-29_16h13.52.411,lexical_decision_task_DD_L5,2021.2.3,MacIntel,120.0048002,,,,,,,,,,,0.7871,1,,,,,,,,,,,,,,,,,,,,,,,,0.022453704,-0.268420862,0,0,0,,,,,,,CRATER,HB,m,y,./images/CRATERHB.png,,,,,,,,m,1,0.7871,,,,,,,,0,2,2,3,1
,,,,,,,,,,,,,,,,,198874,18,2022-01-29_16h13.52.411,lexical_decision_task_DD_L5,2021.2.3,MacIntel,120.0048002,,,,,,,,,,,0.9725,1,,,,,,,,,,,,,,,,,,,,,,,,0.022453704,-0.268420862,0,0,0,,,,,,,TRIPOD,HB,z,y,./images/TRIPODHB.png,,,,,,,,z,1,0.9725,,,,,,,,0,3,3,138,1
,,,,,,,,,,,,,,,,,198874,18,2022-01-29_16h13.52.411,lexical_decision_task_DD_L5,2021.2.3,MacIntel,120.0048002,,,,,,,,,,,0.6431,1,,,,,,,,,,,,,,,,,,,,,,,,0.022453704,-0.268420862,0,0,0,,,,,,,MAMMAL,C,m,y,./images/MAMMAL.png,,,,,,,,m,1,0.6431,,,,,,,,0,4,4,62,1
,,,,,,,,,,,,,,,,,198874,18,2022-01-29_16h13.52.411,lexical_decision_task_DD_L5,2021.2.3,MacIntel,120.0048002,,,,,,,,,,,1.135,1,,,,,,,,,,,,,,,,,,,,,,,,0.022453704,-0.268420862,0,0,0,,,,,,,PAINT,LB,z,y,./images/PAINTLB.png,,,,,,,,z,1,1.135,,,,,,,,0,5,5,91,1
,,,,,,,,,,,,,,,,,198874,18,2022-01-29_16h13.52.411,lexical_decision_task_DD_L5,2021.2.3,MacIntel,120.0048002,,,,,,,,,,,0.5825,1,,,,,,,,,,,,,,,,,,,,,,,,0.022453704,-0.268420862,0,0,0,,,,,,,WHEEL,C,m,y,./images/WHEEL.png,,,,,,,,m,1,0.5825,,,,,,,,0,6,6,77,1
,,,,,,,,,,,,,,,,,198874,18,2022-01-29_16h13.52.411,lexical_decision_task_DD_L5,2021.2.3,MacIntel,120.0048002,,,,,,,,,,,1.5665,0,,,,,,,,,,,,,,,,,,,,,,,,0.022453704,-0.268420862,0,0,0,,,,,,,WEASEL,C,z,y,./images/WEASEL.png,,,,,,,,m,0,1.5665,,,,,,,,0,7,7,164,1
,,,,,,,,,,,,,,,,,198874,18,2022-01-29_16h13.52.411,lexical_decision_task_DD_L5,2021.2.3,MacIntel,120.0048002,,,,,,,,,,,0.6495,1,,,,,,,,,,,,,,,,,,,,,,,,0.022453704,-0.268420862,0,0,0,,,,,,,SHIELD,HB,m,y,./images/SHIELDHB.png,,,,,,,,m,1,0.6495,,,,,,,,0,8,8,48,1
,,,,,,,,,,,,,,,,,198874,18,2022-01-29_16h13.52.411,lexical_decision_task_DD_L5,2021.2.3,MacIntel,120.0048002,,,,,,,,,,,0.8365,1,,,,,,,,,,,,,,,,,,,,,,,,0.022453704,-0.268420862,0,0,0,,,,,,,ATTIC,HB,z,y,./images/ATTICHB.png,,,,,,,,z,1,0.8365,,,,,,,,0,9,9,111,1
,,,,,,,,,,,,,,,,,198874,18,2022-01-29_16h13.52.411,lexical_decision_task_DD_L5,2021.2.3,MacIntel,120.0048002,,,,,,,,,,,2.6176,0,,,,,,,,,,,,,,,,,,,,,,,,0.022453704,-0.268420862,0,0,0,,,,,,,GRAPE,LB,m,y,./images/GRAPELB.png,,,,,,,,z,0,2.6176,,,,,,,,0,10,10,16,1
,,,,,,,,,,,,,,,,,198874,18,2022-01-29_16h13.52.411,lexical_decision_task_DD_L5,2021.2.3,MacIntel,120.0048002,,,,,,,,,,,0.9013,1,,,,,,,,,,,,,,,,,,,,,,,,0.022453704,-0.268420862,0,0,0,,,,,,,PASTA,C,z,y,./images/PASTA.png,,,,,,,,z,1,0.9013,,,,,,,,0,11,11,89,1
,,,,,,,,,,,,,,,,,198874,18,2022-01-29_16h13.52.411,lexical_decision_task_DD_L5,2021.2.3,MacIntel,120.0048002,,,,,,,,,,,2.6065,1,,,,,,,,,,,,,,,,,,,,,,,,0.022453704,-0.268420862,0,0,0,,,,,,,STAIN,HB,m,y,./images/STAINHB.png,,,,,,,,m,1,2.6065,,,,,,,,0,12,12,6,1
,,,,,,,,,,,,,,,,,198874,18,2022-01-29_16h13.52.411,lexical_decision_task_DD_L5,2021.2.3,MacIntel,120.0048002,,,,,,,,,,,0.8539,1,,,,,,,,,,,,,,,,,,,,,,,,0.022453704,-0.268420862,0,0,0,,,,,,,JUMPER,C,m,y,./images/JUMPER.png,,,,,,,,m,1,0.8539,,,,,,,,0,13,13,74,1
,,,,,,,,,,,,,,,,,198874,18,2022-01-29_16h13.52.411,lexical_decision_task_DD_L5,2021.2.3,MacIntel,120.0048002,,,,,,,,,,,0.6324,1,,,,,,,,,,,,,,,,,,,,,,,,0.022453704,-0.268420862,0,0,0,,,,,,,COLLAR,HB,m,y,./images/COLLARHB.png,,,,,,,,m,1,0.6324,,,,,,,,0,14,14,15,1
,,,,,,,,,,,,,,,,,198874,18,2022-01-29_16h13.52.411,lexical_decision_task_DD_L5,2021.2.3,MacIntel,120.0048002,,,,,,,,,,,1.7437,1,,,,,,,,,,,,,,,,,,,,,,,,0.022453704,-0.268420862,0,0,0,,,,,,,VALLEY,C,m,y,./images/VALLEY.png,,,,,,,,m,1,1.7437,,,,,,,,0,15,15,68,1
,,,,,,,,,,,,,,,,,198874,18,2022-01-29_16h13.52.411,lexical_decision_task_DD_L5,2021.2.3,MacIntel,120.0048002,,,,,,,,,,,0.6692,1,,,,,,,,,,,,,,,,,,,,,,,,0.022453704,-0.268420862,0,0,0,,,,,,,PENCE,LB,z,y,./images/PENCELB.png,,,,,,,,z,1,0.6692,,,,,,,,0,16,16,100,1
,,,,,,,,,,,,,,,,,198874,18,2022-01-29_16h13.52.411,lexical_decision_task_DD_L5,2021.2.3,MacIntel,120.0048002,,,,,,,,,,,1.0499,1,,,,,,,,,,,,,,,,,,,,,,,,0.022453704,-0.268420862,0,0,0,,,,,,,SKIING,C,z,y,./images/SKIING.png,,,,,,,,z,1,1.0499,,,,,,,,0,17,17,101,1
,,,,,,,,,,,,,,,,,198874,18,2022-01-29_16h13.52.411,lexical_decision_task_DD_L5,2021.2.3,MacIntel,120.0048002,,,,,,,,,,,0.6474,1,,,,,,,,,,,,,,,,,,,,,,,,0.022453704,-0.268420862,0,0,0,,,,,,,CLOWN,LB,m,y,./images/CLOWNLB.png,,,,,,,,m,1,0.6474,,,,,,,,0,18,18,22,1
,,,,,,,,,,,,,,,,,198874,18,2022-01-29_16h13.52.411,lexical_decision_task_DD_L5,2021.2.3,MacIntel,120.0048002,,,,,,,,,,,0.7047,1,,,,,,,,,,,,,,,,,,,,,,,,0.022453704,-0.268420862,0,0,0,,,,,,,ARROW,HB,m,y,./images/ARROWHB.png,,,,,,,,m,1,0.7047,,,,,,,,0,19,19,69,1
,,,,,,,,,,,,,,,,,198874,18,2022-01-29_16h13.52.411,lexical_decision_task_DD_L5,2021.2.3,MacIntel,120.0048002,,,,,,,,,,,0.734,1,,,,,,,,,,,,,,,,,,,,,,,,0.022453704,-0.268420862,0,0,0,,,,,,,MOSQUE,LB,z,y,./images/MOSQUELB.png,,,,,,,,z,1,0.734,,,,,,,,0,20,20,127,1
,,,,,,,,,,,,,,,,,198874,18,2022-01-29_16h13.52.411,lexical_decision_task_DD_L5,2021.2.3,MacIntel,120.0048002,,,,,,,,,,,2.2569,1,,,,,,,,,,,,,,,,,,,,,,,,0.022453704,-0.268420862,0,0,0,,,,,,,SHELF,HB,z,y,./images/SHELFHB.png,,,,,,,,z,1,2.2569,,,,,,,,0,21,21,123,1
,,,,,,,,,,,,,,,,,198874,18,2022-01-29_16h13.52.411,lexical_decision_task_DD_L5,2021.2.3,MacIntel,120.0048002,,,,,,,,,,,0.7393,1,,,,,,,,,,,,,,,,,,,,,,,,0.022453704,-0.268420862,0,0,0,,,,,,,BRIDE,LB,m,y,./images/BRIDELB.png,,,,,,,,m,1,0.7393,,,,,,,,0,22,22,64,1
,,,,,,,,,,,,,,,,,198874,18,2022-01-29_16h13.52.411,lexical_decision_task_DD_L5,2021.2.3,MacIntel,120.0048002,,,,,,,,,,,1.4093,0,,,,,,,,,,,,,,,,,,,,,,,,0.022453704,-0.268420862,0,0,0,,,,,,,COUCH,C,z,y,./images/COUCH.png,,,,,,,,m,0,1.4093,,,,,,,,0,23,23,161,1
,,,,,,,,,,,,,,,,,198874,18,2022-01-29_16h13.52.411,lexical_decision_task_DD_L5,2021.2.3,MacIntel,120.0048002,,,,,,,,,,,0.9886,1,,,,,,,,,,,,,,,,,,,,,,,,0.022453704,-0.268420862,0,0,0,,,,,,,INFANT,LB,z,y,./images/INFANTLB.png,,,,,,,,z,1,0.9886,,,,,,,,0,24,24,160,1
,,,,,,,,,,,,,,,,,198874,18,2022-01-29_16h13.52.411,lexical_decision_task_DD_L5,2021.2.3,MacIntel,120.0048002,,,,,,,,,,,0.892,0,,,,,,,,,,,,,,,,,,,,,,,,0.022453704,-0.268420862,0,0,0,,,,,,,GRAIN,HB,z,y,./images/GRAINHB.png,,,,,,,,m,0,0.892,,,,,,,,0,25,25,159,1
,,,,,,,,,,,,,,,,,198874,18,2022-01-29_16h13.52.411,lexical_decision_task_DD_L5,2021.2.3,MacIntel,120.0048002,,,,,,,,,,,0.7812,1,,,,,,,,,,,,,,,,,,,,,,,,0.022453704,-0.268420862,0,0,0,,,,,,,CHALK,LB,m,y,./images/CHALKLB.png,,,,,,,,m,1,0.7812,,,,,,,,0,26,26,25,1
,,,,,,,,,,,,,,,,,198874,18,2022-01-29_16h13.52.411,lexical_decision_task_DD_L5,2021.2.3,MacIntel,120.0048002,,,,,,,,,,,3.0899,0,,,,,,,,,,,,,,,,,,,,,,,,0.022453704,-0.268420862,0,0,0,,,,,,,STRING,C,z,y,./images/STRING.png,,,,,,,,m,0,3.0899,,,,,,,,0,27,27,125,1
,,,,,,,,,,,,,,,,,198874,18,2022-01-29_16h13.52.411,lexical_decision_task_DD_L5,2021.2.3,MacIntel,120.0048002,,,,,,,,,,,0.7442,1,,,,,,,,,,,,,,,,,,,,,,,,0.022453704,-0.268420862,0,0,0,,,,,,,TORCH,C,z,y,./images/TORCH.png,,,,,,,,z,1,0.7442,,,,,,,,0,28,28,152,1
,,,,,,,,,,,,,,,,,198874,18,2022-01-29_16h13.52.411,lexical_decision_task_DD_L5,2021.2.3,MacIntel,120.0048002,,,,,,,,,,,0.6866,0,,,,,,,,,,,,,,,,,,,,,,,,0.022453704,-0.268420862,0,0,0,,,,,,,SMOKER,C,z,y,./images/SMOKER.png,,,,,,,,m,0,0.6866,,,,,,,,0,29,29,110,1
,,,,,,,,,,,,,,,,,198874,18,2022-01-29_16h13.52.411,lexical_decision_task_DD_L5,2021.2.3,MacIntel,120.0048002,,,,,,,,,,,0.7558,0,,,,,,,,,,,,,,,,,,,,,,,,0.022453704,-0.268420862,0,0,0,,,,,,,DRUMS,LB,z,y,./images/DRUMSLB.png,,,,,,,,m,0,0.7558,,,,,,,,0,30,30,133,1
,,,,,,,,,,,,,,,,,198874,18,2022-01-29_16h13.52.411,lexical_decision_task_DD_L5,2021.2.3,MacIntel,120.0048002,,,,,,,,,,,0.9321,1,,,,,,,,,,,,,,,,,,,,,,,,0.022453704,-0.268420862,0,0,0,,,,,,,RULER,LB,m,y,./images/RULERLB.png,,,,,,,,m,1,0.9321,,,,,,,,0,31,31,79,1
,,,,,,,,,,,,,,,,,198874,18,2022-01-29_16h13.52.411,lexical_decision_task_DD_L5,2021.2.3,MacIntel,120.0048002,,,,,,,,,,,2.1066,0,,,,,,,,,,,,,,,,,,,,,,,,0.022453704,-0.268420862,0,0,0,,,,,,,PLANK,LB,z,y,./images/PLANKLB.png,,,,,,,,m,0,2.1066,,,,,,,,0,32,32,85,1
,,,,,,,,,,,,,,,,,198874,18,2022-01-29_16h13.52.411,lexical_decision_task_DD_L5,2021.2.3,MacIntel,120.0048002,,,,,,,,,,,0.7311,1,,,,,,,,,,,,,,,,,,,,,,,,0.022453704,-0.268420862,0,0,0,,,,,,,DRILL,HB,m,y,./images/DRILLHB.png,,,,,,,,m,1,0.7311,,,,,,,,0,33,33,81,1
,,,,,,,,,,,,,,,,,198874,18,2022-01-29_16h13.52.411,lexical_decision_task_DD_L5,2021.2.3,MacIntel,120.0048002,,,,,,,,,,,0.925,1,,,,,,,,,,,,,,,,,,,,,,,,0.022453704,-0.268420862,0,0,0,,,,,,,MUSCLE,LB,z,y,./images/MUSCLELB.png,,,,,,,,z,1,0.925,,,,,,,,0,34,34,88,1
,,,,,,,,,,,,,,,,,198874,18,2022-01-29_16h13.52.411,lexical_decision_task_DD_L5,2021.2.3,MacIntel,120.0048002,,,,,,,,,,,0.8657,0,,,,,,,,,,,,,,,,,,,,,,,,0.022453704,-0.268420862,0,0,0,,,,,,,GRANNY,C,m,y,./images/GRANNY.png,,,,,,,,z,0,0.8657,,,,,,,,0,35,35,20,1
,,,,,,,,,,,,,,,,,198874,18,2022-01-29_16h13.52.411,lexical_decision_task_DD_L5,2021.2.3,MacIntel,120.0048002,,,,,,,,,,,0.6773,1,,,,,,,,,,,,,,,,,,,,,,,,0.022453704,-0.268420862,0,0,0,,,,,,,GARDEN,LB,m,y,./images/GARDENLB.png,,,,,,,,m,1,0.6773,,,,,,,,0,36,36,10,1
,,,,,,,,,,,,,,,,,198874,18,2022-01-29_16h13.52.411,lexical_decision_task_DD_L5,2021.2.3,MacIntel,120.0048002,,,,,,,,,,,2.8637,0,,,,,,,,,,,,,,,,,,,,,,,,0.022453704,-0.268420862,0,0,0,,,,,,,CANDLE,LB,z,y,./images/CANDLELB.png,,,,,,,,m,0,2.8637,,,,,,,,0,37,37,145,1
,,,,,,,,,,,,,,,,,198874,18,2022-01-29_16h13.52.411,lexical_decision_task_DD_L5,2021.2.3,MacIntel,120.0048002,,,,,,,,,,,0.7124,1,,,,,,,,,,,,,,,,,,,,,,,,0.022453704,-0.268420862,0,0,0,,,,,,,LAGOON,C,m,y,./images/LAGOON.png,,,,,,,,m,1,0.7124,,,,,,,,0,38,38,47,1
,,,,,,,,,,,,,,,,,198874,18,2022-01-29_16h13.52.411,lexical_decision_task_DD_L5,2021.2.3,MacIntel,120.0048002,,,,,,,,,,,0.679,1,,,,,,,,,,,,,,,,,,,,,,,,0.022453704,-0.268420862,0,0,0,,,,,,,CANOE,LB,m,y,./images/CANOELB.png,,,,,,,,m,1,0.679,,,,,,,,0,39,39,58,1
,,,,,,,,,,,,,,,,,198874,18,2022-01-29_16h13.52.411,lexical_decision_task_DD_L5,2021.2.3,MacIntel,120.0048002,,,,,,,,,,,0.7235,1,,,,,,,,,,,,,,,,,,,,,,,,0.022453704,-0.268420862,0,0,0,,,,,,,STEAK,LB,m,y,./images/STEAKLB.png,,,,,,,,m,1,0.7235,,,,,,,,0,40,40,31,1
,,,,,,,,,,,,,,,,,198874,18,2022-01-29_16h13.52.411,lexical_decision_task_DD_L5,2021.2.3,MacIntel,120.0048002,,,,,,,,,,,0.5914,1,,,,,,,,,,,,,,,,,,,,,,,,0.022453704,-0.268420862,0,0,0,space,,,,,,BUTTER,HB,m,y,./images/BUTTERHB.png,1.4751,,,,,,,m,1,0.5914,,,,,,,,0,41,41,27,1
,,,,,,,,,,,,,,,,,198874,18,2022-01-29_16h13.52.411,lexical_decision_task_DD_L5,2021.2.3,MacIntel,120.0048002,,,,,,,,,,,0.651,1,,,,,,,,,,,,,,,,,,,,,,,,0.022453704,-0.268420862,0,0,0,,,,,,,CHERRY,HB,m,y,./images/CHERRYHB.png,,,,,,,,m,1,0.651,,,,,,,,0,42,42,54,1
,,,,,,,,,,,,,,,,,198874,18,2022-01-29_16h13.52.411,lexical_decision_task_DD_L5,2021.2.3,MacIntel,120.0048002,,,,,,,,,,,1.0701,1,,,,,,,,,,,,,,,,,,,,,,,,0.022453704,-0.268420862,0,0,0,,,,,,,CHAIN,HB,m,y,./images/CHAINHB.png,,,,,,,,m,1,1.0701,,,,,,,,0,43,43,42,1
,,,,,,,,,,,,,,,,,198874,18,2022-01-29_16h13.52.411,lexical_decision_task_DD_L5,2021.2.3,MacIntel,120.0048002,,,,,,,,,,,0.6516,1,,,,,,,,,,,,,,,,,,,,,,,,0.022453704,-0.268420862,0,0,0,,,,,,,FLESH,HB,m,y,./images/FLESHHB.png,,,,,,,,m,1,0.6516,,,,,,,,0,44,44,24,1
,,,,,,,,,,,,,,,,,198874,18,2022-01-29_16h13.52.411,lexical_decision_task_DD_L5,2021.2.3,MacIntel,120.0048002,,,,,,,,,,,0.7184,1,,,,,,,,,,,,,,,,,,,,,,,,0.022453704,-0.268420862,0,0,0,,,,,,,PISTOL,C,m,y,./images/PISTOL.png,,,,,,,,m,1,0.7184,,,,,,,,0,45,45,29,1
,,,,,,,,,,,,,,,,,198874,18,2022-01-29_16h13.52.411,lexical_decision_task_DD_L5,2021.2.3,MacIntel,120.0048002,,,,,,,,,,,0.6328,1,,,,,,,,,,,,,,,,,,,,,,,,0.022453704,-0.268420862,0,0,0,,,,,,,BASKET,C,m,y,./images/BASKET.png,,,,,,,,m,1,0.6328,,,,,,,,0,46,46,44,1
,,,,,,,,,,,,,,,,,198874,18,2022-01-29_16h13.52.411,lexical_decision_task_DD_L5,2021.2.3,MacIntel,120.0048002,,,,,,,,,,,0.6404,1,,,,,,,,,,,,,,,,,,,,,,,,0.022453704,-0.268420862,0,0,0,,,,,,,STOVE,C,m,y,./images/STOVE.png,,,,,,,,m,1,0.6404,,,,,,,,0,47,47,2,1
,,,,,,,,,,,,,,,,,198874,18,2022-01-29_16h13.52.411,lexical_decision_task_DD_L5,2021.2.3,MacIntel,120.0048002,,,,,,,,,,,1.1042,1,,,,,,,,,,,,,,,,,,,,,,,,0.022453704,-0.268420862,0,0,0,,,,,,,CARPET,C,z,y,./images/CARPET.png,,,,,,,,z,1,1.1042,,,,,,,,0,48,48,137,1
,,,,,,,,,,,,,,,,,198874,18,2022-01-29_16h13.52.411,lexical_decision_task_DD_L5,2021.2.3,MacIntel,120.0048002,,,,,,,,,,,0.5822,1,,,,,,,,,,,,,,,,,,,,,,,,0.022453704,-0.268420862,0,0,0,,,,,,,PILOT,C,m,y,./images/PILOT.png,,,,,,,,m,1,0.5822,,,,,,,,0,49,49,50,1
,,,,,,,,,,,,,,,,,198874,18,2022-01-29_16h13.52.411,lexical_decision_task_DD_L5,2021.2.3,MacIntel,120.0048002,,,,,,,,,,,1.3492,1,,,,,,,,,,,,,,,,,,,,,,,,0.022453704,-0.268420862,0,0,0,,,,,,,FARMER,C,z,y,./images/FARMER.png,,,,,,,,z,1,1.3492,,,,,,,,0,50,50,149,1
,,,,,,,,,,,,,,,,,198874,18,2022-01-29_16h13.52.411,lexical_decision_task_DD_L5,2021.2.3,MacIntel,120.0048002,,,,,,,,,,,1.2146,1,,,,,,,,,,,,,,,,,,,,,,,,0.022453704,-0.268420862,0,0,0,,,,,,,NOOSE,HB,z,y,./images/NOOSEHB.png,,,,,,,,z,1,1.2146,,,,,,,,0,51,51,156,1
,,,,,,,,,,,,,,,,,198874,18,2022-01-29_16h13.52.411,lexical_decision_task_DD_L5,2021.2.3,MacIntel,120.0048002,,,,,,,,,,,0.903,1,,,,,,,,,,,,,,,,,,,,,,,,0.022453704,-0.268420862,0,0,0,,,,,,,MAGGOT,HB,z,y,./images/MAGGOTHB.png,,,,,,,,z,1,0.903,,,,,,,,0,52,52,117,1
,,,,,,,,,,,,,,,,,198874,18,2022-01-29_16h13.52.411,lexical_decision_task_DD_L5,2021.2.3,MacIntel,120.0048002,,,,,,,,,,,0.8315,1,,,,,,,,,,,,,,,,,,,,,,,,0.022453704,-0.268420862,0,0,0,,,,,,,HAMMER,HB,m,y,./images/HAMMERHB.png,,,,,,,,m,1,0.8315,,,,,,,,0,53,53,75,1
,,,,,,,,,,,,,,,,,198874,18,2022-01-29_16h13.52.411,lexical_decision_task_DD_L5,2021.2.3,MacIntel,120.0048002,,,,,,,,,,,1.0251,0,,,,,,,,,,,,,,,,,,,,,,,,0.022453704,-0.268420862,0,0,0,,,,,,,PARADE,C,m,y,./images/PARADE.png,,,,,,,,z,0,1.0251,,,,,,,,0,54,54,17,1
,,,,,,,,,,,,,,,,,198874,18,2022-01-29_16h13.52.411,lexical_decision_task_DD_L5,2021.2.3,MacIntel,120.0048002,,,,,,,,,,,2.2312,1,,,,,,,,,,,,,,,,,,,,,,,,0.022453704,-0.268420862,0,0,0,,,,,,,WALRUS,C,z,y,./images/WALRUS.png,,,,,,,,z,1,2.2312,,,,,,,,0,55,55,107,1
,,,,,,,,,,,,,,,,,198874,18,2022-01-29_16h13.52.411,lexical_decision_task_DD_L5,2021.2.3,MacIntel,120.0048002,,,,,,,,,,,1.676,1,,,,,,,,,,,,,,,,,,,,,,,,0.022453704,-0.268420862,0,0,0,,,,,,,MOTOR,LB,z,y,./images/MOTORLB.png,,,,,,,,z,1,1.676,,,,,,,,0,56,56,97,1
,,,,,,,,,,,,,,,,,198874,18,2022-01-29_16h13.52.411,lexical_decision_task_DD_L5,2021.2.3,MacIntel,120.0048002,,,,,,,,,,,1.187,1,,,,,,,,,,,,,,,,,,,,,,,,0.022453704,-0.268420862,0,0,0,,,,,,,DOUGH,LB,z,y,./images/DOUGHLB.png,,,,,,,,z,1,1.187,,,,,,,,0,57,57,103,1
,,,,,,,,,,,,,,,,,198874,18,2022-01-29_16h13.52.411,lexical_decision_task_DD_L5,2021.2.3,MacIntel,120.0048002,,,,,,,,,,,0.93,1,,,,,,,,,,,,,,,,,,,,,,,,0.022453704,-0.268420862,0,0,0,,,,,,,THROAT,HB,z,y,./images/THROATHB.png,,,,,,,,z,1,0.93,,,,,,,,0,58,58,120,1
,,,,,,,,,,,,,,,,,198874,18,2022-01-29_16h13.52.411,lexical_decision_task_DD_L5,2021.2.3,MacIntel,120.0048002,,,,,,,,,,,2.3885,1,,,,,,,,,,,,,,,,,,,,,,,,0.022453704,-0.268420862,0,0,0,,,,,,,FOLDER,HB,z,y,./images/FOLDERHB.png,,,,,,,,z,1,2.3885,,,,,,,,0,59,59,126,1
,,,,,,,,,,,,,,,,,198874,18,2022-01-29_16h13.52.411,lexical_decision_task_DD_L5,2021.2.3,MacIntel,120.0048002,,,,,,,,,,,0.9064,1,,,,,,,,,,,,,,,,,,,,,,,,0.022453704,-0.268420862,0,0,0,,,,,,,MUFFIN,LB,z,y,./images/MUFFINLB.png,,,,,,,,z,1,0.9064,,,,,,,,0,60,60,139,1
,,,,,,,,,,,,,,,,,198874,18,2022-01-29_16h13.52.411,lexical_decision_task_DD_L5,2021.2.3,MacIntel,120.0048002,,,,,,,,,,,0.7634,1,,,,,,,,,,,,,,,,,,,,,,,,0.022453704,-0.268420862,0,0,0,,,,,,,JELLY,LB,z,y,./images/JELLYLB.png,,,,,,,,z,1,0.7634,,,,,,,,0,61,61,148,1
,,,,,,,,,,,,,,,,,198874,18,2022-01-29_16h13.52.411,lexical_decision_task_DD_L5,2021.2.3,MacIntel,120.0048002,,,,,,,,,,,0.8191,1,,,,,,,,,,,,,,,,,,,,,,,,0.022453704,-0.268420862,0,0,0,,,,,,,BAKER,HB,m,y,./images/BAKERHB.png,,,,,,,,m,1,0.8191,,,,,,,,0,62,62,63,1
,,,,,,,,,,,,,,,,,198874,18,2022-01-29_16h13.52.411,lexical_decision_task_DD_L5,2021.2.3,MacIntel,120.0048002,,,,,,,,,,,0.5883,1,,,,,,,,,,,,,,,,,,,,,,,,0.022453704,-0.268420862,0,0,0,,,,,,,BUNNY,LB,m,y,./images/BUNNYLB.png,,,,,,,,m,1,0.5883,,,,,,,,0,63,63,13,1
,,,,,,,,,,,,,,,,,198874,18,2022-01-29_16h13.52.411,lexical_decision_task_DD_L5,2021.2.3,MacIntel,120.0048002,,,,,,,,,,,0.6345,0,,,,,,,,,,,,,,,,,,,,,,,,0.022453704,-0.268420862,0,0,0,,,,,,,LADDER,C,z,y,./images/LADDER.png,,,,,,,,m,0,0.6345,,,,,,,,0,64,64,122,1
,,,,,,,,,,,,,,,,,198874,18,2022-01-29_16h13.52.411,lexical_decision_task_DD_L5,2021.2.3,MacIntel,120.0048002,,,,,,,,,,,0.7477,1,,,,,,,,,,,,,,,,,,,,,,,,0.022453704,-0.268420862,0,0,0,,,,,,,ONION,HB,z,y,./images/ONIONHB.png,,,,,,,,z,1,0.7477,,,,,,,,0,65,65,135,1
,,,,,,,,,,,,,,,,,198874,18,2022-01-29_16h13.52.411,lexical_decision_task_DD_L5,2021.2.3,MacIntel,120.0048002,,,,,,,,,,,0.9432,1,,,,,,,,,,,,,,,,,,,,,,,,0.022453704,-0.268420862,0,0,0,,,,,,,SAUNA,HB,m,y,./images/SAUNAHB.png,,,,,,,,m,1,0.9432,,,,,,,,0,66,66,33,1
,,,,,,,,,,,,,,,,,198874,18,2022-01-29_16h13.52.411,lexical_decision_task_DD_L5,2021.2.3,MacIntel,120.0048002,,,,,,,,,,,0.6175,1,,,,,,,,,,,,,,,,,,,,,,,,0.022453704,-0.268420862,0,0,0,,,,,,,BROOM,HB,m,y,./images/BROOMHB.png,,,,,,,,m,1,0.6175,,,,,,,,0,67,67,78,1
,,,,,,,,,,,,,,,,,198874,18,2022-01-29_16h13.52.411,lexical_decision_task_DD_L5,2021.2.3,MacIntel,120.0048002,,,,,,,,,,,0.7822,1,,,,,,,,,,,,,,,,,,,,,,,,0.022453704,-0.268420862,0,0,0,,,,,,,WAGON,LB,m,y,./images/WAGONLB.png,,,,,,,,m,1,0.7822,,,,,,,,0,68,68,7,1
,,,,,,,,,,,,,,,,,198874,18,2022-01-29_16h13.52.411,lexical_decision_task_DD_L5,2021.2.3,MacIntel,120.0048002,,,,,,,,,,,0.685,1,,,,,,,,,,,,,,,,,,,,,,,,0.022453704,-0.268420862,0,0,0,,,,,,,SAUCE,HB,m,y,./images/SAUCEHB.png,,,,,,,,m,1,0.685,,,,,,,,0,69,69,51,1
,,,,,,,,,,,,,,,,,198874,18,2022-01-29_16h13.52.411,lexical_decision_task_DD_L5,2021.2.3,MacIntel,120.0048002,,,,,,,,,,,0.8151,1,,,,,,,,,,,,,,,,,,,,,,,,0.022453704,-0.268420862,0,0,0,,,,,,,QUILL,LB,z,y,./images/QUILLLB.png,,,,,,,,z,1,0.8151,,,,,,,,0,70,70,115,1
,,,,,,,,,,,,,,,,,198874,18,2022-01-29_16h13.52.411,lexical_decision_task_DD_L5,2021.2.3,MacIntel,120.0048002,,,,,,,,,,,0.6562,1,,,,,,,,,,,,,,,,,,,,,,,,0.022453704,-0.268420862,0,0,0,,,,,,,BISHOP,LB,m,y,./images/BISHOPLB.png,,,,,,,,m,1,0.6562,,,,,,,,0,71,71,49,1
,,,,,,,,,,,,,,,,,198874,18,2022-01-29_16h13.52.411,lexical_decision_task_DD_L5,2021.2.3,MacIntel,120.0048002,,,,,,,,,,,2.7056,1,,,,,,,,,,,,,,,,,,,,,,,,0.022453704,-0.268420862,0,0,0,,,,,,,SNAKE,LB,m,y,./images/SNAKELB.png,,,,,,,,m,1,2.7056,,,,,,,,0,72,72,40,1
,,,,,,,,,,,,,,,,,198874,18,2022-01-29_16h13.52.411,lexical_decision_task_DD_L5,2021.2.3,MacIntel,120.0048002,,,,,,,,,,,0.914,1,,,,,,,,,,,,,,,,,,,,,,,,0.022453704,-0.268420862,0,0,0,,,,,,,GREASE,HB,z,y,./images/GREASEHB.png,,,,,,,,z,1,0.914,,,,,,,,0,73,73,99,1
,,,,,,,,,,,,,,,,,198874,18,2022-01-29_16h13.52.411,lexical_decision_task_DD_L5,2021.2.3,MacIntel,120.0048002,,,,,,,,,,,0.6913,1,,,,,,,,,,,,,,,,,,,,,,,,0.022453704,-0.268420862,0,0,0,,,,,,,RHINO,HB,z,y,./images/RHINOHB.png,,,,,,,,z,1,0.6913,,,,,,,,0,74,74,93,1
,,,,,,,,,,,,,,,,,198874,18,2022-01-29_16h13.52.411,lexical_decision_task_DD_L5,2021.2.3,MacIntel,120.0048002,,,,,,,,,,,1.7097,0,,,,,,,,,,,,,,,,,,,,,,,,0.022453704,-0.268420862,0,0,0,,,,,,,SAILOR,LB,z,y,./images/SAILORLB.png,,,,,,,,m,0,1.7097,,,,,,,,0,75,75,151,1
,,,,,,,,,,,,,,,,,198874,18,2022-01-29_16h13.52.411,lexical_decision_task_DD_L5,2021.2.3,MacIntel,120.0048002,,,,,,,,,,,0.5693,1,,,,,,,,,,,,,,,,,,,,,,,,0.022453704,-0.268420862,0,0,0,,,,,,,CURRY,HB,m,y,./images/CURRYHB.png,,,,,,,,m,1,0.5693,,,,,,,,0,76,76,60,1
,,,,,,,,,,,,,,,,,198874,18,2022-01-29_16h13.52.411,lexical_decision_task_DD_L5,2021.2.3,MacIntel,120.0048002,,,,,,,,,,,0.6237,1,,,,,,,,,,,,,,,,,,,,,,,,0.022453704,-0.268420862,0,0,0,,,,,,,CLOTH,C,m,y,./images/CLOTH.png,,,,,,,,m,1,0.6237,,,,,,,,0,77,77,23,1
,,,,,,,,,,,,,,,,,198874,18,2022-01-29_16h13.52.411,lexical_decision_task_DD_L5,2021.2.3,MacIntel,120.0048002,,,,,,,,,,,0.6331,1,,,,,,,,,,,,,,,,,,,,,,,,0.022453704,-0.268420862,0,0,0,,,,,,,RAZOR,LB,m,y,./images/RAZORLB.png,,,,,,,,m,1,0.6331,,,,,,,,0,78,78,34,1
,,,,,,,,,,,,,,,,,198874,18,2022-01-29_16h13.52.411,lexical_decision_task_DD_L5,2021.2.3,MacIntel,120.0048002,,,,,,,,,,,0.8924,1,,,,,,,,,,,,,,,,,,,,,,,,0.022453704,-0.268420862,0,0,0,,,,,,,DANCER,HB,m,y,./images/DANCERHB.png,,,,,,,,m,1,0.8924,,,,,,,,0,79,79,21,1
,,,,,,,,,,,,,,,,,198874,18,2022-01-29_16h13.52.411,lexical_decision_task_DD_L5,2021.2.3,MacIntel,120.0048002,,,,,,,,,,,6.364,0,,,,,,,,,,,,,,,,,,,,,,,,0.022453704,-0.268420862,0,0,0,,,,,,,SNACK,LB,z,y,./images/SNACKLB.png,,,,,,,,m,0,6.364,,,,,,,,0,80,80,157,1
,,,,,,,,,,,,,,,,,198874,18,2022-01-29_16h13.52.411,lexical_decision_task_DD_L5,2021.2.3,MacIntel,120.0048002,,,,,,,,,,,2.3559,1,,,,,,,,,,,,,,,,,,,,,,,,0.022453704,-0.268420862,0,0,0,,,,,,,FERRY,HB,m,y,./images/FERRYHB.png,,,,,,,,m,1,2.3559,,,,,,,,0,81,81,57,1
,,,,,,,,,,,,,,,,,198874,18,2022-01-29_16h13.52.411,lexical_decision_task_DD_L5,2021.2.3,MacIntel,120.0048002,,,,,,,,,,,1.559,1,,,,,,,,,,,,,,,,,,,,,,,,0.022453704,-0.268420862,0,0,0,,,,,,,BARREL,C,z,y,./images/BARREL.png,,,,,,,,z,1,1.559,,,,,,,,0,82,82,116,1
,,,,,,,,,,,,,,,,,198874,18,2022-01-29_16h13.52.411,lexical_decision_task_DD_L5,2021.2.3,MacIntel,120.0048002,,,,,,,,,,,0.7703,1,,,,,,,,,,,,,,,,,,,,,,,,0.022453704,-0.268420862,0,0,0,space,,,,,,WRIST,LB,z,y,./images/WRISTLB.png,1.7818,,,,,,,z,1,0.7703,,,,,,,,0,83,83,109,1
,,,,,,,,,,,,,,,,,198874,18,2022-01-29_16h13.52.411,lexical_decision_task_DD_L5,2021.2.3,MacIntel,120.0048002,,,,,,,,,,,0.8485,1,,,,,,,,,,,,,,,,,,,,,,,,0.022453704,-0.268420862,0,0,0,,,,,,,DESERT,LB,m,y,./images/DESERTLB.png,,,,,,,,m,1,0.8485,,,,,,,,0,84,84,52,1
,,,,,,,,,,,,,,,,,198874,18,2022-01-29_16h13.52.411,lexical_decision_task_DD_L5,2021.2.3,MacIntel,120.0048002,,,,,,,,,,,1.0278,1,,,,,,,,,,,,,,,,,,,,,,,,0.022453704,-0.268420862,0,0,0,,,,,,,CLIFF,C,m,y,./images/CLIFF.png,,,,,,,,m,1,1.0278,,,,,,,,0,85,85,8,1
,,,,,,,,,,,,,,,,,198874,18,2022-01-29_16h13.52.411,lexical_decision_task_DD_L5,2021.2.3,MacIntel,120.0048002,,,,,,,,,,,1.1347,1,,,,,,,,,,,,,,,,,,,,,,,,0.022453704,-0.268420862,0,0,0,,,,,,,SWING,LB,z,y,./images/SWINGLB.png,,,,,,,,z,1,1.1347,,,,,,,,0,86,86,124,1
,,,,,,,,,,,,,,,,,198874,18,2022-01-29_16h13.52.411,lexical_decision_task_DD_L5,2021.2.3,MacIntel,120.0048002,,,,,,,,,,,3.268,0,,,,,,,,,,,,,,,,,,,,,,,,0.022453704,-0.268420862,0,0,0,,,,,,,SHORE,HB,z,y,./images/SHOREHB.png,,,,,,,,m,0,3.268,,,,,,,,0,87,87,96,1
,,,,,,,,,,,,,,,,,198874,18,2022-01-29_16h13.52.411,lexical_decision_task_DD_L5,2021.2.3,MacIntel,120.0048002,,,,,,,,,,,0.6446,1,,,,,,,,,,,,,,,,,,,,,,,,0.022453704,-0.268420862,0,0,0,,,,,,,BLOKE,HB,m,y,./images/BLOKEHB.png,,,,,,,,m,1,0.6446,,,,,,,,0,88,88,12,1
,,,,,,,,,,,,,,,,,198874,18,2022-01-29_16h13.52.411,lexical_decision_task_DD_L5,2021.2.3,MacIntel,120.0048002,,,,,,,,,,,0.599,0,,,,,,,,,,,,,,,,,,,,,,,,0.022453704,-0.268420862,0,0,0,,,,,,,PURSE,C,z,y,./images/PURSE.png,,,,,,,,m,0,0.599,,,,,,,,0,89,89,146,1
,,,,,,,,,,,,,,,,,198874,18,2022-01-29_16h13.52.411,lexical_decision_task_DD_L5,2021.2.3,MacIntel,120.0048002,,,,,,,,,,,0.8685,1,,,,,,,,,,,,,,,,,,,,,,,,0.022453704,-0.268420862,0,0,0,,,,,,,TULIP,C,z,y,./images/TULIP.png,,,,,,,,z,1,0.8685,,,,,,,,0,90,90,92,1
,,,,,,,,,,,,,,,,,198874,18,2022-01-29_16h13.52.411,lexical_decision_task_DD_L5,2021.2.3,MacIntel,120.0048002,,,,,,,,,,,0.711,1,,,,,,,,,,,,,,,,,,,,,,,,0.022453704,-0.268420862,0,0,0,,,,,,,BANANA,LB,m,y,./images/BANANALB.png,,,,,,,,m,1,0.711,,,,,,,,0,91,91,70,1
,,,,,,,,,,,,,,,,,198874,18,2022-01-29_16h13.52.411,lexical_decision_task_DD_L5,2021.2.3,MacIntel,120.0048002,,,,,,,,,,,0.6989,1,,,,,,,,,,,,,,,,,,,,,,,,0.022453704,-0.268420862,0,0,0,,,,,,,FLASK,HB,m,y,./images/FLASKHB.png,,,,,,,,m,1,0.6989,,,,,,,,0,92,92,72,1
,,,,,,,,,,,,,,,,,198874,18,2022-01-29_16h13.52.411,lexical_decision_task_DD_L5,2021.2.3,MacIntel,120.0048002,,,,,,,,,,,0.7724,1,,,,,,,,,,,,,,,,,,,,,,,,0.022453704,-0.268420862,0,0,0,,,,,,,MONKEY,HB,m,y,./images/MONKEYHB.png,,,,,,,,m,1,0.7724,,,,,,,,0,93,93,45,1
,,,,,,,,,,,,,,,,,198874,18,2022-01-29_16h13.52.411,lexical_decision_task_DD_L5,2021.2.3,MacIntel,120.0048002,,,,,,,,,,,0.6751,0,,,,,,,,,,,,,,,,,,,,,,,,0.022453704,-0.268420862,0,0,0,,,,,,,MOOSE,HB,z,y,./images/MOOSEHB.png,,,,,,,,m,0,0.6751,,,,,,,,0,94,94,141,1
,,,,,,,,,,,,,,,,,198874,18,2022-01-29_16h13.52.411,lexical_decision_task_DD_L5,2021.2.3,MacIntel,120.0048002,,,,,,,,,,,0.7298,1,,,,,,,,,,,,,,,,,,,,,,,,0.022453704,-0.268420862,0,0,0,,,,,,,TWINS,HB,z,y,./images/TWINSHB.png,,,,,,,,z,1,0.7298,,,,,,,,0,95,95,144,1
,,,,,,,,,,,,,,,,,198874,18,2022-01-29_16h13.52.411,lexical_decision_task_DD_L5,2021.2.3,MacIntel,120.0048002,,,,,,,,,,,1.1423,1,,,,,,,,,,,,,,,,,,,,,,,,0.022453704,-0.268420862,0,0,0,,,,,,,CANYON,LB,z,y,./images/CANYONLB.png,,,,,,,,z,1,1.1423,,,,,,,,0,96,96,118,1
,,,,,,,,,,,,,,,,,198874,18,2022-01-29_16h13.52.411,lexical_decision_task_DD_L5,2021.2.3,MacIntel,120.0048002,,,,,,,,,,,0.9963,1,,,,,,,,,,,,,,,,,,,,,,,,0.022453704,-0.268420862,0,0,0,,,,,,,MALLET,C,z,y,./images/MALLET.png,,,,,,,,z,1,0.9963,,,,,,,,0,97,97,134,1
,,,,,,,,,,,,,,,,,198874,18,2022-01-29_16h13.52.411,lexical_decision_task_DD_L5,2021.2.3,MacIntel,120.0048002,,,,,,,,,,,0.7887,1,,,,,,,,,,,,,,,,,,,,,,,,0.022453704,-0.268420862,0,0,0,,,,,,,WHISKY,C,m,y,./images/WHISKY.png,,,,,,,,m,1,0.7887,,,,,,,,0,98,98,83,1
,,,,,,,,,,,,,,,,,198874,18,2022-01-29_16h13.52.411,lexical_decision_task_DD_L5,2021.2.3,MacIntel,120.0048002,,,,,,,,,,,1.1161,1,,,,,,,,,,,,,,,,,,,,,,,,0.022453704,-0.268420862,0,0,0,,,,,,,FALCON,LB,z,y,./images/FALCONLB.png,,,,,,,,z,1,1.1161,,,,,,,,0,99,99,112,1
,,,,,,,,,,,,,,,,,198874,18,2022-01-29_16h13.52.411,lexical_decision_task_DD_L5,2021.2.3,MacIntel,120.0048002,,,,,,,,,,,1.848,1,,,,,,,,,,,,,,,,,,,,,,,,0.022453704,-0.268420862,0,0,0,,,,,,,FINGER,HB,z,y,./images/FINGERHB.png,,,,,,,,z,1,1.848,,,,,,,,0,100,100,87,1
,,,,,,,,,,,,,,,,,198874,18,2022-01-29_16h13.52.411,lexical_decision_task_DD_L5,2021.2.3,MacIntel,120.0048002,,,,,,,,,,,0.7529,1,,,,,,,,,,,,,,,,,,,,,,,,0.022453704,-0.268420862,0,0,0,,,,,,,POODLE,HB,z,y,./images/POODLEHB.png,,,,,,,,z,1,0.7529,,,,,,,,0,101,101,165,1
,,,,,,,,,,,,,,,,,198874,18,2022-01-29_16h13.52.411,lexical_decision_task_DD_L5,2021.2.3,MacIntel,120.0048002,,,,,,,,,,,0.9899,1,,,,,,,,,,,,,,,,,,,,,,,,0.022453704,-0.268420862,0,0,0,,,,,,,GLOVE,LB,m,y,./images/GLOVELB.png,,,,,,,,m,1,0.9899,,,,,,,,0,102,102,73,1
,,,,,,,,,,,,,,,,,198874,18,2022-01-29_16h13.52.411,lexical_decision_task_DD_L5,2021.2.3,MacIntel,120.0048002,,,,,,,,,,,2.9691,1,,,,,,,,,,,,,,,,,,,,,,,,0.022453704,-0.268420862,0,0,0,,,,,,,CRUST,LB,z,y,./images/CRUSTLB.png,,,,,,,,z,1,2.9691,,,,,,,,0,103,103,163,1
,,,,,,,,,,,,,,,,,198874,18,2022-01-29_16h13.52.411,lexical_decision_task_DD_L5,2021.2.3,MacIntel,120.0048002,,,,,,,,,,,0.8304,1,,,,,,,,,,,,,,,,,,,,,,,,0.022453704,-0.268420862,0,0,0,,,,,,,BERRY,C,z,y,./images/BERRY.png,,,,,,,,z,1,0.8304,,,,,,,,0,104,104,131,1
,,,,,,,,,,,,,,,,,198874,18,2022-01-29_16h13.52.411,lexical_decision_task_DD_L5,2021.2.3,MacIntel,120.0048002,,,,,,,,,,,1.1245,1,,,,,,,,,,,,,,,,,,,,,,,,0.022453704,-0.268420862,0,0,0,,,,,,,KITTEN,HB,z,y,./images/KITTENHB.png,,,,,,,,z,1,1.1245,,,,,,,,0,105,105,129,1
,,,,,,,,,,,,,,,,,198874,18,2022-01-29_16h13.52.411,lexical_decision_task_DD_L5,2021.2.3,MacIntel,120.0048002,,,,,,,,,,,1.772,1,,,,,,,,,,,,,,,,,,,,,,,,0.022453704,-0.268420862,0,0,0,,,,,,,BANNER,LB,z,y,./images/BANNERLB.png,,,,,,,,z,1,1.772,,,,,,,,0,106,106,136,1
,,,,,,,,,,,,,,,,,198874,18,2022-01-29_16h13.52.411,lexical_decision_task_DD_L5,2021.2.3,MacIntel,120.0048002,,,,,,,,,,,1.804,0,,,,,,,,,,,,,,,,,,,,,,,,0.022453704,-0.268420862,0,0,0,,,,,,,CANDY,HB,m,y,./images/CANDYHB.png,,,,,,,,z,0,1.804,,,,,,,,0,107,107,39,1
,,,,,,,,,,,,,,,,,198874,18,2022-01-29_16h13.52.411,lexical_decision_task_DD_L5,2021.2.3,MacIntel,120.0048002,,,,,,,,,,,0.9144,1,,,,,,,,,,,,,,,,,,,,,,,,0.022453704,-0.268420862,0,0,0,,,,,,,CEMENT,C,z,y,./images/CEMENT.png,,,,,,,,z,1,0.9144,,,,,,,,0,108,108,158,1
,,,,,,,,,,,,,,,,,198874,18,2022-01-29_16h13.52.411,lexical_decision_task_DD_L5,2021.2.3,MacIntel,120.0048002,,,,,,,,,,,1.5618,1,,,,,,,,,,,,,,,,,,,,,,,,0.022453704,-0.268420862,0,0,0,,,,,,,COOKER,HB,z,y,./images/COOKERHB.png,,,,,,,,z,1,1.5618,,,,,,,,0,109,109,153,1
,,,,,,,,,,,,,,,,,198874,18,2022-01-29_16h13.52.411,lexical_decision_task_DD_L5,2021.2.3,MacIntel,120.0048002,,,,,,,,,,,0.7968,1,,,,,,,,,,,,,,,,,,,,,,,,0.022453704,-0.268420862,0,0,0,,,,,,,KIDNEY,HB,z,y,./images/KIDNEYHB.png,,,,,,,,z,1,0.7968,,,,,,,,0,110,110,105,1
,,,,,,,,,,,,,,,,,198874,18,2022-01-29_16h13.52.411,lexical_decision_task_DD_L5,2021.2.3,MacIntel,120.0048002,,,,,,,,,,,1.5087,1,,,,,,,,,,,,,,,,,,,,,,,,0.022453704,-0.268420862,0,0,0,,,,,,,MUMMY,LB,m,y,./images/MUMMYLB.png,,,,,,,,m,1,1.5087,,,,,,,,0,111,111,46,1
,,,,,,,,,,,,,,,,,198874,18,2022-01-29_16h13.52.411,lexical_decision_task_DD_L5,2021.2.3,MacIntel,120.0048002,,,,,,,,,,,0.7367,1,,,,,,,,,,,,,,,,,,,,,,,,0.022453704,-0.268420862,0,0,0,,,,,,,BIRTH,LB,z,y,./images/BIRTHLB.png,,,,,,,,z,1,0.7367,,,,,,,,0,112,112,121,1
,,,,,,,,,,,,,,,,,198874,18,2022-01-29_16h13.52.411,lexical_decision_task_DD_L5,2021.2.3,MacIntel,120.0048002,,,,,,,,,,,3.6677,1,,,,,,,,,,,,,,,,,,,,,,,,0.022453704,-0.268420862,0,0,0,,,,,,,MIRROR,HB,z,y,./images/MIRRORHB.png,,,,,,,,z,1,3.6677,,,,,,,,0,113,113,147,1
,,,,,,,,,,,,,,,,,198874,18,2022-01-29_16h13.52.411,lexical_decision_task_DD_L5,2021.2.3,MacIntel,120.0048002,,,,,,,,,,,0.6354,1,,,,,,,,,,,,,,,,,,,,,,,,0.022453704,-0.268420862,0,0,0,,,,,,,JUNGLE,C,z,y,./images/JUNGLE.png,,,,,,,,z,1,0.6354,,,,,,,,0,114,114,167,1
,,,,,,,,,,,,,,,,,198874,18,2022-01-29_16h13.52.411,lexical_decision_task_DD_L5,2021.2.3,MacIntel,120.0048002,,,,,,,,,,,0.7057,1,,,,,,,,,,,,,,,,,,,,,,,,0.022453704,-0.268420862,0,0,0,,,,,,,PEBBLE,LB,m,y,./images/PEBBLELB.png,,,,,,,,m,1,0.7057,,,,,,,,0,115,115,82,1
,,,,,,,,,,,,,,,,,198874,18,2022-01-29_16h13.52.411,lexical_decision_task_DD_L5,2021.2.3,MacIntel,120.0048002,,,,,,,,,,,1.2613,1,,,,,,,,,,,,,,,,,,,,,,,,0.022453704,-0.268420862,0,0,0,,,,,,,BABOON,LB,z,y,./images/BABOONLB.png,,,,,,,,z,1,1.2613,,,,,,,,0,116,116,142,1
,,,,,,,,,,,,,,,,,198874,18,2022-01-29_16h13.52.411,lexical_decision_task_DD_L5,2021.2.3,MacIntel,120.0048002,,,,,,,,,,,0.9164,1,,,,,,,,,,,,,,,,,,,,,,,,0.022453704,-0.268420862,0,0,0,,,,,,,FENCE,C,m,y,./images/FENCE.png,,,,,,,,m,1,0.9164,,,,,,,,0,117,117,14,1
,,,,,,,,,,,,,,,,,198874,18,2022-01-29_16h13.52.411,lexical_decision_task_DD_L5,2021.2.3,MacIntel,120.0048002,,,,,,,,,,,0.636,1,,,,,,,,,,,,,,,,,,,,,,,,0.022453704,-0.268420862,0,0,0,,,,,,,STOOL,LB,m,y,./images/STOOLLB.png,,,,,,,,m,1,0.636,,,,,,,,0,118,118,43,1
,,,,,,,,,,,,,,,,,198874,18,2022-01-29_16h13.52.411,lexical_decision_task_DD_L5,2021.2.3,MacIntel,120.0048002,,,,,,,,,,,0.6273,1,,,,,,,,,,,,,,,,,,,,,,,,0.022453704,-0.268420862,0,0,0,,,,,,,SLOPE,HB,m,y,./images/SLOPEHB.png,,,,,,,,m,1,0.6273,,,,,,,,0,119,119,30,1
,,,,,,,,,,,,,,,,,198874,18,2022-01-29_16h13.52.411,lexical_decision_task_DD_L5,2021.2.3,MacIntel,120.0048002,,,,,,,,,,,0.9694,1,,,,,,,,,,,,,,,,,,,,,,,,0.022453704,-0.268420862,0,0,0,,,,,,,BOILER,HB,m,y,./images/BOILERHB.png,,,,,,,,m,1,0.9694,,,,,,,,0,120,120,36,1
,,,,,,,,,,,,,,,,,198874,18,2022-01-29_16h13.52.411,lexical_decision_task_DD_L5,2021.2.3,MacIntel,120.0048002,,,,,,,,,,,1.627,0,,,,,,,,,,,,,,,,,,,,,,,,0.022453704,-0.268420862,0,0,0,,,,,,,HEATER,C,m,y,./images/HEATER.png,,,,,,,,z,0,1.627,,,,,,,,0,121,121,56,1
,,,,,,,,,,,,,,,,,198874,18,2022-01-29_16h13.52.411,lexical_decision_task_DD_L5,2021.2.3,MacIntel,120.0048002,,,,,,,,,,,0.8998,1,,,,,,,,,,,,,,,,,,,,,,,,0.022453704,-0.268420862,0,0,0,,,,,,,MELON,LB,z,y,./images/MELONLB.png,,,,,,,,z,1,0.8998,,,,,,,,0,122,122,106,1
,,,,,,,,,,,,,,,,,198874,18,2022-01-29_16h13.52.411,lexical_decision_task_DD_L5,2021.2.3,MacIntel,120.0048002,,,,,,,,,,,0.9807,1,,,,,,,,,,,,,,,,,,,,,,,,0.022453704,-0.268420862,0,0,0,,,,,,,BURIAL,C,z,y,./images/BURIAL.png,,,,,,,,z,1,0.9807,,,,,,,,0,123,123,143,1
,,,,,,,,,,,,,,,,,198874,18,2022-01-29_16h13.52.411,lexical_decision_task_DD_L5,2021.2.3,MacIntel,120.0048002,,,,,,,,,,,4.0248,0,,,,,,,,,,,,,,,,,,,,,,,,0.022453704,-0.268420862,0,0,0,,,,,,,BONNET,C,z,y,./images/BONNET.png,,,,,,,,m,0,4.0248,,,,,,,,0,124,124,95,1
,,,,,,,,,,,,,,,,,198874,18,2022-01-29_16h13.52.411,lexical_decision_task_DD_L5,2021.2.3,MacIntel,120.0048002,,,,,,,,,,,0.8374,0,,,,,,,,,,,,,,,,,,,,,,,,0.022453704,-0.268420862,0,0,0,space,,,,,,ALLEY,LB,m,y,./images/ALLEYLB.png,1.3001,,,,,,,z,0,0.8374,,,,,,,,0,125,125,55,1
,,,,,,,,,,,,,,,,,198874,18,2022-01-29_16h13.52.411,lexical_decision_task_DD_L5,2021.2.3,MacIntel,120.0048002,,,,,,,,,,,0.8558,1,,,,,,,,,,,,,,,,,,,,,,,,0.022453704,-0.268420862,0,0,0,,,,,,,URINE,LB,z,y,./images/URINELB.png,,,,,,,,z,1,0.8558,,,,,,,,0,126,126,154,1
,,,,,,,,,,,,,,,,,198874,18,2022-01-29_16h13.52.411,lexical_decision_task_DD_L5,2021.2.3,MacIntel,120.0048002,,,,,,,,,,,1.703,0,,,,,,,,,,,,,,,,,,,,,,,,0.022453704,-0.268420862,0,0,0,,,,,,,ARTIST,LB,m,y,./images/ARTISTLB.png,,,,,,,,z,0,1.703,,,,,,,,0,127,127,61,1
,,,,,,,,,,,,,,,,,198874,18,2022-01-29_16h13.52.411,lexical_decision_task_DD_L5,2021.2.3,MacIntel,120.0048002,,,,,,,,,,,0.7365,1,,,,,,,,,,,,,,,,,,,,,,,,0.022453704,-0.268420862,0,0,0,,,,,,,MIDGET,LB,m,y,./images/MIDGETLB.png,,,,,,,,m,1,0.7365,,,,,,,,0,128,128,76,1
,,,,,,,,,,,,,,,,,198874,18,2022-01-29_16h13.52.411,lexical_decision_task_DD_L5,2021.2.3,MacIntel,120.0048002,,,,,,,,,,,0.702,1,,,,,,,,,,,,,,,,,,,,,,,,0.022453704,-0.268420862,0,0,0,,,,,,,PIMPLE,C,z,y,./images/PIMPLE.png,,,,,,,,z,1,0.702,,,,,,,,0,129,129,155,1
,,,,,,,,,,,,,,,,,198874,18,2022-01-29_16h13.52.411,lexical_decision_task_DD_L5,2021.2.3,MacIntel,120.0048002,,,,,,,,,,,0.8068,0,,,,,,,,,,,,,,,,,,,,,,,,0.022453704,-0.268420862,0,0,0,,,,,,,WALNUT,HB,m,y,./images/WALNUTHB.png,,,,,,,,z,0,0.8068,,,,,,,,0,130,130,0,1
,,,,,,,,,,,,,,,,,198874,18,2022-01-29_16h13.52.411,lexical_decision_task_DD_L5,2021.2.3,MacIntel,120.0048002,,,,,,,,,,,0.6851,1,,,,,,,,,,,,,,,,,,,,,,,,0.022453704,-0.268420862,0,0,0,,,,,,,CRADLE,C,z,y,./images/CRADLE.png,,,,,,,,z,1,0.6851,,,,,,,,0,131,131,104,1
,,,,,,,,,,,,,,,,,198874,18,2022-01-29_16h13.52.411,lexical_decision_task_DD_L5,2021.2.3,MacIntel,120.0048002,,,,,,,,,,,1.5342,0,,,,,,,,,,,,,,,,,,,,,,,,0.022453704,-0.268420862,0,0,0,,,,,,,BOXER,LB,m,y,./images/BOXERLB.png,,,,,,,,z,0,1.5342,,,,,,,,0,132,132,4,1
,,,,,,,,,,,,,,,,,198874,18,2022-01-29_16h13.52.411,lexical_decision_task_DD_L5,2021.2.3,MacIntel,120.0048002,,,,,,,,,,,0.7712,1,,,,,,,,,,,,,,,,,,,,,,,,0.022453704,-0.268420862,0,0,0,,,,,,,BUBBLE,C,m,y,./images/BUBBLE.png,,,,,,,,m,1,0.7712,,,,,,,,0,133,133,71,1
,,,,,,,,,,,,,,,,,198874,18,2022-01-29_16h13.52.411,lexical_decision_task_DD_L5,2021.2.3,MacIntel,120.0048002,,,,,,,,,,,1.455,1,,,,,,,,,,,,,,,,,,,,,,,,0.022453704,-0.268420862,0,0,0,,,,,,,POSTER,C,m,y,./images/POSTER.png,,,,,,,,m,1,1.455,,,,,,,,0,134,134,53,1
,,,,,,,,,,,,,,,,,198874,18,2022-01-29_16h13.52.411,lexical_decision_task_DD_L5,2021.2.3,MacIntel,120.0048002,,,,,,,,,,,0.8873,0,,,,,,,,,,,,,,,,,,,,,,,,0.022453704,-0.268420862,0,0,0,,,,,,,SPINE,C,m,y,./images/SPINE.png,,,,,,,,z,0,0.8873,,,,,,,,0,135,135,65,1
,,,,,,,,,,,,,,,,,198874,18,2022-01-29_16h13.52.411,lexical_decision_task_DD_L5,2021.2.3,MacIntel,120.0048002,,,,,,,,,,,1.9332,1,,,,,,,,,,,,,,,,,,,,,,,,0.022453704,-0.268420862,0,0,0,,,,,,,STREAM,C,m,y,./images/STREAM.png,,,,,,,,m,1,1.9332,,,,,,,,0,136,136,41,1
,,,,,,,,,,,,,,,,,198874,18,2022-01-29_16h13.52.411,lexical_decision_task_DD_L5,2021.2.3,MacIntel,120.0048002,,,,,,,,,,,0.8114,1,,,,,,,,,,,,,,,,,,,,,,,,0.022453704,-0.268420862,0,0,0,,,,,,,POKER,LB,m,y,./images/POKERLB.png,,,,,,,,m,1,0.8114,,,,,,,,0,137,137,67,1
,,,,,,,,,,,,,,,,,198874,18,2022-01-29_16h13.52.411,lexical_decision_task_DD_L5,2021.2.3,MacIntel,120.0048002,,,,,,,,,,,0.6973,1,,,,,,,,,,,,,,,,,,,,,,,,0.022453704,-0.268420862,0,0,0,,,,,,,SCREW,HB,z,y,./images/SCREWHB.png,,,,,,,,z,1,0.6973,,,,,,,,0,138,138,108,1
,,,,,,,,,,,,,,,,,198874,18,2022-01-29_16h13.52.411,lexical_decision_task_DD_L5,2021.2.3,MacIntel,120.0048002,,,,,,,,,,,1.4153,0,,,,,,,,,,,,,,,,,,,,,,,,0.022453704,-0.268420862,0,0,0,,,,,,,BEARD,C,z,y,./images/BEARD.png,,,,,,,,m,0,1.4153,,,,,,,,0,139,139,86,1
,,,,,,,,,,,,,,,,,198874,18,2022-01-29_16h13.52.411,lexical_decision_task_DD_L5,2021.2.3,MacIntel,120.0048002,,,,,,,,,,,0.9254,0,,,,,,,,,,,,,,,,,,,,,,,,0.022453704,-0.268420862,0,0,0,,,,,,,STORM,HB,z,y,./images/STORMHB.png,,,,,,,,m,0,0.9254,,,,,,,,0,140,140,114,1
,,,,,,,,,,,,,,,,,198874,18,2022-01-29_16h13.52.411,lexical_decision_task_DD_L5,2021.2.3,MacIntel,120.0048002,,,,,,,,,,,1.2314,1,,,,,,,,,,,,,,,,,,,,,,,,0.022453704,-0.268420862,0,0,0,,,,,,,SUNSET,LB,z,y,./images/SUNSETLB.png,,,,,,,,z,1,1.2314,,,,,,,,0,141,141,166,1
,,,,,,,,,,,,,,,,,198874,18,2022-01-29_16h13.52.411,lexical_decision_task_DD_L5,2021.2.3,MacIntel,120.0048002,,,,,,,,,,,0.7249,1,,,,,,,,,,,,,,,,,,,,,,,,0.022453704,-0.268420862,0,0,0,,,,,,,TIGER,LB,m,y,./images/TIGERLB.png,,,,,,,,m,1,0.7249,,,,,,,,0,142,142,37,1
,,,,,,,,,,,,,,,,,198874,18,2022-01-29_16h13.52.411,lexical_decision_task_DD_L5,2021.2.3,MacIntel,120.0048002,,,,,,,,,,,0.7191,1,,,,,,,,,,,,,,,,,,,,,,,,0.022453704,-0.268420862,0,0,0,,,,,,,PARCEL,HB,m,y,./images/PARCELHB.png,,,,,,,,m,1,0.7191,,,,,,,,0,143,143,18,1
,,,,,,,,,,,,,,,,,198874,18,2022-01-29_16h13.52.411,lexical_decision_task_DD_L5,2021.2.3,MacIntel,120.0048002,,,,,,,,,,,0.7768,1,,,,,,,,,,,,,,,,,,,,,,,,0.022453704,-0.268420862,0,0,0,,,,,,,PLANET,C,m,y,./images/PLANET.png,,,,,,,,m,1,0.7768,,,,,,,,0,144,144,80,1
,,,,,,,,,,,,,,,,,198874,18,2022-01-29_16h13.52.411,lexical_decision_task_DD_L5,2021.2.3,MacIntel,120.0048002,,,,,,,,,,,0.7554,0,,,,,,,,,,,,,,,,,,,,,,,,0.022453704,-0.268420862,0,0,0,,,,,,,SPORT,HB,z,y,./images/SPORTHB.png,,,,,,,,m,0,0.7554,,,,,,,,0,145,145,132,1
,,,,,,,,,,,,,,,,,198874,18,2022-01-29_16h13.52.411,lexical_decision_task_DD_L5,2021.2.3,MacIntel,120.0048002,,,,,,,,,,,1.5638,1,,,,,,,,,,,,,,,,,,,,,,,,0.022453704,-0.268420862,0,0,0,,,,,,,TOMATO,HB,z,y,./images/TOMATOHB.png,,,,,,,,z,1,1.5638,,,,,,,,0,146,146,84,1
,,,,,,,,,,,,,,,,,198874,18,2022-01-29_16h13.52.411,lexical_decision_task_DD_L5,2021.2.3,MacIntel,120.0048002,,,,,,,,,,,1.4124,1,,,,,,,,,,,,,,,,,,,,,,,,0.022453704,-0.268420862,0,0,0,,,,,,,PEARL,LB,z,y,./images/PEARLLB.png,,,,,,,,z,1,1.4124,,,,,,,,0,147,147,130,1
,,,,,,,,,,,,,,,,,198874,18,2022-01-29_16h13.52.411,lexical_decision_task_DD_L5,2021.2.3,MacIntel,120.0048002,,,,,,,,,,,0.8303,1,,,,,,,,,,,,,,,,,,,,,,,,0.022453704,-0.268420862,0,0,0,,,,,,,CASINO,LB,m,y,./images/CASINOLB.png,,,,,,,,m,1,0.8303,,,,,,,,0,148,148,28,1
,,,,,,,,,,,,,,,,,198874,18,2022-01-29_16h13.52.411,lexical_decision_task_DD_L5,2021.2.3,MacIntel,120.0048002,,,,,,,,,,,1.2751,0,,,,,,,,,,,,,,,,,,,,,,,,0.022453704,-0.268420862,0,0,0,,,,,,,CLOUD,C,m,y,./images/CLOUD.png,,,,,,,,z,0,1.2751,,,,,,,,0,149,149,26,1
,,,,,,,,,,,,,,,,,198874,18,2022-01-29_16h13.52.411,lexical_decision_task_DD_L5,2021.2.3,MacIntel,120.0048002,,,,,,,,,,,4.8624,0,,,,,,,,,,,,,,,,,,,,,,,,0.022453704,-0.268420862,0,0,0,,,,,,,STATUE,HB,m,y,./images/STATUEHB.png,,,,,,,,z,0,4.8624,,,,,,,,0,150,150,66,1
,,,,,,,,,,,,,,,,,198874,18,2022-01-29_16h13.52.411,lexical_decision_task_DD_L5,2021.2.3,MacIntel,120.0048002,,,,,,,,,,,1.0453,1,,,,,,,,,,,,,,,,,,,,,,,,0.022453704,-0.268420862,0,0,0,,,,,,,PACKET,C,z,y,./images/PACKET.png,,,,,,,,z,1,1.0453,,,,,,,,0,151,151,140,1
,,,,,,,,,,,,,,,,,198874,18,2022-01-29_16h13.52.411,lexical_decision_task_DD_L5,2021.2.3,MacIntel,120.0048002,,,,,,,,,,,1.1097,1,,,,,,,,,,,,,,,,,,,,,,,,0.022453704,-0.268420862,0,0,0,,,,,,,DONKEY,LB,m,y,./images/DONKEYLB.png,,,,,,,,m,1,1.1097,,,,,,,,0,152,152,19,1
,,,,,,,,,,,,,,,,,198874,18,2022-01-29_16h13.52.411,lexical_decision_task_DD_L5,2021.2.3,MacIntel,120.0048002,,,,,,,,,,,0.7767,1,,,,,,,,,,,,,,,,,,,,,,,,0.022453704,-0.268420862,0,0,0,,,,,,,CRUMB,C,z,y,./images/CRUMB.png,,,,,,,,z,1,0.7767,,,,,,,,0,153,153,113,1
,,,,,,,,,,,,,,,,,198874,18,2022-01-29_16h13.52.411,lexical_decision_task_DD_L5,2021.2.3,MacIntel,120.0048002,,,,,,,,,,,0.6292,1,,,,,,,,,,,,,,,,,,,,,,,,0.022453704,-0.268420862,0,0,0,,,,,,,JAGUAR,HB,z,y,./images/JAGUARHB.png,,,,,,,,z,1,0.6292,,,,,,,,0,154,154,102,1
,,,,,,,,,,,,,,,,,198874,18,2022-01-29_16h13.52.411,lexical_decision_task_DD_L5,2021.2.3,MacIntel,120.0048002,,,,,,,,,,,0.8117,1,,,,,,,,,,,,,,,,,,,,,,,,0.022453704,-0.268420862,0,0,0,,,,,,,MEDAL,C,m,y,./images/MEDAL.png,,,,,,,,m,1,0.8117,,,,,,,,0,155,155,11,1
,,,,,,,,,,,,,,,,,198874,18,2022-01-29_16h13.52.411,lexical_decision_task_DD_L5,2021.2.3,MacIntel,120.0048002,,,,,,,,,,,0.813,1,,,,,,,,,,,,,,,,,,,,,,,,0.022453704,-0.268420862,0,0,0,,,,,,,PICKLE,C,z,y,./images/PICKLE.png,,,,,,,,z,1,0.813,,,,,,,,0,156,156,98,1
,,,,,,,,,,,,,,,,,198874,18,2022-01-29_16h13.52.411,lexical_decision_task_DD_L5,2021.2.3,MacIntel,120.0048002,,,,,,,,,,,0.8628,1,,,,,,,,,,,,,,,,,,,,,,,,0.022453704,-0.268420862,0,0,0,,,,,,,SQUARE,HB,z,y,./images/SQUAREHB.png,,,,,,,,z,1,0.8628,,,,,,,,0,157,157,90,1
,,,,,,,,,,,,,,,,,198874,18,2022-01-29_16h13.52.411,lexical_decision_task_DD_L5,2021.2.3,MacIntel,120.0048002,,,,,,,,,,,0.8883,1,,,,,,,,,,,,,,,,,,,,,,,,0.022453704,-0.268420862,0,0,0,,,,,,,LLAMA,C,m,y,./images/LLAMA.png,,,,,,,,m,1,0.8883,,,,,,,,0,158,158,35,1
,,,,,,,,,,,,,,,,,198874,18,2022-01-29_16h13.52.411,lexical_decision_task_DD_L5,2021.2.3,MacIntel,120.0048002,,,,,,,,,,,0.8112,1,,,,,,,,,,,,,,,,,,,,,,,,0.022453704,-0.268420862,0,0,0,,,,,,,PEACH,C,z,y,./images/PEACH.png,,,,,,,,z,1,0.8112,,,,,,,,0,159,159,119,1
,,,,,,,,,,,,,,,,,198874,18,2022-01-29_16h13.52.411,lexical_decision_task_DD_L5,2021.2.3,MacIntel,120.0048002,,,,,,,,,,,1.2901,0,,,,,,,,,,,,,,,,,,,,,,,,0.022453704,-0.268420862,0,0,0,,,,,,,BAMBOO,C,m,y,./images/BAMBOO.png,,,,,,,,z,0,1.2901,,,,,,,,0,160,160,5,1
,,,,,,,,,,,,,,,,,198874,18,2022-01-29_16h13.52.411,lexical_decision_task_DD_L5,2021.2.3,MacIntel,120.0048002,,,,,,,,,,,1.0472,1,,,,,,,,,,,,,,,,,,,,,,,,0.022453704,-0.268420862,0,0,0,,,,,,,LIZARD,C,z,y,./images/LIZARD.png,,,,,,,,z,1,1.0472,,,,,,,,0,161,161,128,1
,,,,,,,,,,,,,,,,,198874,18,2022-01-29_16h13.52.411,lexical_decision_task_DD_L5,2021.2.3,MacIntel,120.0048002,,,,,,,,,,,0.7161,0,,,,,,,,,,,,,,,,,,,,,,,,0.022453704,-0.268420862,0,0,0,,,,,,,ENGINE,C,m,y,./images/ENGINE.png,,,,,,,,z,0,0.7161,,,,,,,,0,162,162,38,1
,,,,,,,,,,,,,,,,,198874,18,2022-01-29_16h13.52.411,lexical_decision_task_DD_L5,2021.2.3,MacIntel,120.0048002,,,,,,,,,,,0.7718,1,,,,,,,,,,,,,,,,,,,,,,,,0.022453704,-0.268420862,0,0,0,,,,,,,TOWEL,LB,m,y,./images/TOWELLB.png,,,,,,,,m,1,0.7718,,,,,,,,0,163,163,1,1
,,,,,,,,,,,,,,,,,198874,18,2022-01-29_16h13.52.411,lexical_decision_task_DD_L5,2021.2.3,MacIntel,120.0048002,,,,,,,,,,,1.0808,0,,,,,,,,,,,,,,,,,,,,,,,,0.022453704,-0.268420862,0,0,0,,,,,,,DIVER,HB,m,y,./images/DIVERHB.png,,,,,,,,z,0,1.0808,,,,,,,,0,164,164,9,1
,,,,,,,,,,,,,,,,,198874,18,2022-01-29_16h13.52.411,lexical_decision_task_DD_L5,2021.2.3,MacIntel,120.0048002,,,,,,,,,,,2.7767,1,,,,,,,,,,,,,,,,,,,,,,,,0.022453704,-0.268420862,0,0,0,,,,,,,SWEAT,HB,z,y,./images/SWEATHB.png,,,,,,,,z,1,2.7767,,,,,,,,0,165,165,150,1
,,,,,,,,,,,,,,,,,198874,18,2022-01-29_16h13.52.411,lexical_decision_task_DD_L5,2021.2.3,MacIntel,120.0048002,,,,,,,,,,,0.9133,1,,,,,,,,,,,,,,,,,,,,,,,,0.022453704,-0.268420862,0,0,0,,,,,,,HOCKEY,C,m,y,./images/HOCKEY.png,,,,,,,,m,1,0.9133,,,,,,,,0,166,166,32,1
,,,,,,,,,,,,,,,,,198874,18,2022-01-29_16h13.52.411,lexical_decision_task_DD_L5,2021.2.3,MacIntel,120.0048002,,,,,,,,,,,1.8995,1,,,,,,,,,,,,,,,,,,,,,,,,0.022453704,-0.268420862,0,0,0,,,,,,,BELLY,LB,z,y,./images/BELLYLB.png,,,,,,,,z,1,1.8995,,,,,,,,0,167,167,94,1
