key_resp.keys,key_resp.rt,instr_done_touch.x,instr_done_touch.y,instr_done_touch.leftButton,instr_done_touch.midButton,instr_done_touch.rightButton,instruction_pages.thisRepN,instruction_pages.thisTrialN,instruction_pages.thisN,instruction_pages.thisIndex,instruction_pages.ran,pageN,phase,instruct_text,has_image,instruct_image,participant,age,date,expName,psychopyVersion,OS,frameRate,response.keys,response.corr,response.rt,touch_resp.x,touch_resp.y,touch_resp.leftButton,touch_resp.midButton,touch_resp.rightButton,touch_resp.time,touch_resp.clicked_name,rt,corr,practrials.thisRepN,practrials.thisTrialN,practrials.thisN,practrials.thisIndex,practrials.ran,TrialID,Target,corrAns,end_of_practice_trials_pages.thisRepN,end_of_practice_trials_pages.thisTrialN,end_of_practice_trials_pages.thisN,end_of_practice_trials_pages.thisIndex,end_of_practice_trials_pages.ran,key_resp_2.keys,key_resp_2.corr,key_resp_2.rt,targ_click.x,targ_click.y,targ_click.leftButton,targ_click.midButton,targ_click.rightButton,targ_click.time,targ_click.clicked_name,break_done_touch.x,break_done_touch.y,break_done_touch.leftButton,break_done_touch.midButton,break_done_touch.rightButton,break_done_keyboard.keys,maintrials.thisRepN,maintrials.thisTrialN,maintrials.thisN,maintrials.thisIndex,maintrials.ran,string,blur,study,lex,stim_path,break_done_keyboard.rt,test_instructions.thisRepN,test_instructions.thisTrialN,test_instructions.thisN,test_instructions.thisIndex,test_instructions.ran,instr_done_touch.clicked_name,key_resp_3.keys,key_resp_3.corr,key_resp_3.rt,test_click.x,test_click.y,test_click.leftButton,test_click.midButton,test_click.rightButton,test_click.time,test_click.clicked_name,test_phase.thisRepN,test_phase.thisTrialN,test_phase.thisN,test_phase.thisIndex,test_phase.ran
space,31.5657,0.00833336,-0.392592619,0,0,0,0,0,0,0,1,1,instructions,"INSTRUCTIONS
At the start of each trial, look at the plus sign  (+) in the center of the screen.  This tells you that a trial is about to begin and where to look. Second, the plus sign will disappear and a string of letters will appear. Your task is to determine if the string of letters is a word or not. If the item is a word press the M key (on keyboard)  or touch the word button (phone/tablet).  If the item is not a word,  press the  Z key (on keyboard)  or touch the nonword button (on phone/tablet). 
Press the space bar or touch  continue.",0,,198832,19,2022-02-02_17h19.56.196,lexical_decision_task_DD_L5,2021.2.3,Win32,60.06006006,,,,,,,,,,,,,,,,,,,,,,,,,,,,,,,,,,,,,,,,,,,,,,,,,,,,,,,,,,,,,,,,,,,,,,,,,
space,6.1495,0.00833336,-0.392592619,0,0,0,0,1,1,1,1,2,instructions,"If your device has a keyboard, press the 'Z' key for nonwords and the 'M' key for words.





Press the space bar or touch the button below to continue.",0,keyboard-example.gif,198832,19,2022-02-02_17h19.56.196,lexical_decision_task_DD_L5,2021.2.3,Win32,60.06006006,,,,,,,,,,,,,,,,,,,,,,,,,,,,,,,,,,,,,,,,,,,,,,,,,,,,,,,,,,,,,,,,,,,,,,,,,
space,1.7567,0.00833336,-0.392592619,0,0,0,0,2,2,2,1,3,instructions,"If you are using a touchscreen only device, use the buttons on the screen. Do not use the mouse.





Press the space bar or touch the button below to continue.",0,touchscreen-example.gif,198832,19,2022-02-02_17h19.56.196,lexical_decision_task_DD_L5,2021.2.3,Win32,60.06006006,,,,,,,,,,,,,,,,,,,,,,,,,,,,,,,,,,,,,,,,,,,,,,,,,,,,,,,,,,,,,,,,,,,,,,,,,
space,25.9654,0.00833336,-0.392592619,0,0,0,0,3,3,3,1,4,instructions,"It is very important that you respond as quickly and accurately as possible, as each letter string will only be on the screen for two seconds. If you do not respond within this time, the message 'Too slow!' will be displayed and the experiment will progress to the next letter string. The first 20 trials will be practice trials and you will receive feedback on your answers. 

Press the space bar or touch the button below to start the practice trials.",0,,198832,19,2022-02-02_17h19.56.196,lexical_decision_task_DD_L5,2021.2.3,Win32,60.06006006,,,,,,,,,,,,,,,,,,,,,,,,,,,,,,,,,,,,,,,,,,,,,,,,,,,,,,,,,,,,,,,,,,,,,,,,,
,,,,,,,,,,,,,,,,,198832,19,2022-02-02_17h19.56.196,lexical_decision_task_DD_L5,2021.2.3,Win32,60.06006006,m,1,0.7556,,,,,,,,0.7556,1,0,0,0,2,1,1001,ALMOND,m,,,,,,,,,,,,,,,,,,,,,,,,,,,,,,,,,,,,,,,,,,,,,,,,,,,,,
,,,,,,,,,,,,,,,,,198832,19,2022-02-02_17h19.56.196,lexical_decision_task_DD_L5,2021.2.3,Win32,60.06006006,m,1,0.6442,,,,,,,,0.6442,1,0,1,1,3,1,1001,MATRIX,m,,,,,,,,,,,,,,,,,,,,,,,,,,,,,,,,,,,,,,,,,,,,,,,,,,,,,
,,,,,,,,,,,,,,,,,198832,19,2022-02-02_17h19.56.196,lexical_decision_task_DD_L5,2021.2.3,Win32,60.06006006,z,1,0.8333,,,,,,,,0.8333,1,0,2,2,15,1,1001,WHAISE,z,,,,,,,,,,,,,,,,,,,,,,,,,,,,,,,,,,,,,,,,,,,,,,,,,,,,,
,,,,,,,,,,,,,,,,,198832,19,2022-02-02_17h19.56.196,lexical_decision_task_DD_L5,2021.2.3,Win32,60.06006006,m,1,0.6382,,,,,,,,0.6382,1,0,3,3,6,1,1001,ZOMBIE,m,,,,,,,,,,,,,,,,,,,,,,,,,,,,,,,,,,,,,,,,,,,,,,,,,,,,,
,,,,,,,,,,,,,,,,,198832,19,2022-02-02_17h19.56.196,lexical_decision_task_DD_L5,2021.2.3,Win32,60.06006006,m,1,0.7013,,,,,,,,0.7013,1,0,4,4,7,1,1001,VOLUME,m,,,,,,,,,,,,,,,,,,,,,,,,,,,,,,,,,,,,,,,,,,,,,,,,,,,,,
,,,,,,,,,,,,,,,,,198832,19,2022-02-02_17h19.56.196,lexical_decision_task_DD_L5,2021.2.3,Win32,60.06006006,z,1,0.9512,,,,,,,,0.9512,1,0,5,5,12,1,1001,SPRINY,z,,,,,,,,,,,,,,,,,,,,,,,,,,,,,,,,,,,,,,,,,,,,,,,,,,,,,
,,,,,,,,,,,,,,,,,198832,19,2022-02-02_17h19.56.196,lexical_decision_task_DD_L5,2021.2.3,Win32,60.06006006,z,1,0.9129,,,,,,,,0.9129,1,0,6,6,8,1,1001,ASLERT,z,,,,,,,,,,,,,,,,,,,,,,,,,,,,,,,,,,,,,,,,,,,,,,,,,,,,,
,,,,,,,,,,,,,,,,,198832,19,2022-02-02_17h19.56.196,lexical_decision_task_DD_L5,2021.2.3,Win32,60.06006006,m,1,0.6951,,,,,,,,0.6951,1,0,7,7,0,1,1001,UTOPIA,m,,,,,,,,,,,,,,,,,,,,,,,,,,,,,,,,,,,,,,,,,,,,,,,,,,,,,
,,,,,,,,,,,,,,,,,198832,19,2022-02-02_17h19.56.196,lexical_decision_task_DD_L5,2021.2.3,Win32,60.06006006,z,1,0.8863,,,,,,,,0.8863,1,0,8,8,13,1,1001,ROUPET,z,,,,,,,,,,,,,,,,,,,,,,,,,,,,,,,,,,,,,,,,,,,,,,,,,,,,,
,,,,,,,,,,,,,,,,,198832,19,2022-02-02_17h19.56.196,lexical_decision_task_DD_L5,2021.2.3,Win32,60.06006006,m,0,1.0151,,,,,,,,1.0151,0,0,9,9,10,1,1001,INLADE,z,,,,,,,,,,,,,,,,,,,,,,,,,,,,,,,,,,,,,,,,,,,,,,,,,,,,,
,,,,,,,,,,,,,,,,,198832,19,2022-02-02_17h19.56.196,lexical_decision_task_DD_L5,2021.2.3,Win32,60.06006006,z,1,0.8384,,,,,,,,0.8384,1,0,10,10,14,1,1001,THRALE,z,,,,,,,,,,,,,,,,,,,,,,,,,,,,,,,,,,,,,,,,,,,,,,,,,,,,,
,,,,,,,,,,,,,,,,,198832,19,2022-02-02_17h19.56.196,lexical_decision_task_DD_L5,2021.2.3,Win32,60.06006006,z,1,0.8473,,,,,,,,0.8473,1,0,11,11,9,1,1001,FARINY,z,,,,,,,,,,,,,,,,,,,,,,,,,,,,,,,,,,,,,,,,,,,,,,,,,,,,,
,,,,,,,,,,,,,,,,,198832,19,2022-02-02_17h19.56.196,lexical_decision_task_DD_L5,2021.2.3,Win32,60.06006006,m,1,0.6507,,,,,,,,0.6507,1,0,12,12,5,1,1001,OBTAIN,m,,,,,,,,,,,,,,,,,,,,,,,,,,,,,,,,,,,,,,,,,,,,,,,,,,,,,
,,,,,,,,,,,,,,,,,198832,19,2022-02-02_17h19.56.196,lexical_decision_task_DD_L5,2021.2.3,Win32,60.06006006,m,1,0.5794,,,,,,,,0.5794,1,0,13,13,1,1,1001,ADJUST,m,,,,,,,,,,,,,,,,,,,,,,,,,,,,,,,,,,,,,,,,,,,,,,,,,,,,,
,,,,,,,,,,,,,,,,,198832,19,2022-02-02_17h19.56.196,lexical_decision_task_DD_L5,2021.2.3,Win32,60.06006006,z,1,0.686,,,,,,,,0.686,1,0,14,14,11,1,1001,RASHET,z,,,,,,,,,,,,,,,,,,,,,,,,,,,,,,,,,,,,,,,,,,,,,,,,,,,,,
,,,,,,,,,,,,,,,,,198832,19,2022-02-02_17h19.56.196,lexical_decision_task_DD_L5,2021.2.3,Win32,60.06006006,m,1,0.8132,,,,,,,,0.8132,1,0,15,15,4,1,1001,SQUEAK,m,,,,,,,,,,,,,,,,,,,,,,,,,,,,,,,,,,,,,,,,,,,,,,,,,,,,,
space,767.9115,0.391666705,-0.168518538,0,0,0,,,,,,1,end_of_practice,"You have completed the practice trials. During the experimental trials, you will not receive feedback. 
Before you begin, please ensure that you are in a comfortable and quiet location and will not be disturbed for about 15 minutes, as we cannot use your data if you do not complete all the trials. 
 When you are ready to start the experimental trials, please press space or touch the button below.",,,198832,19,2022-02-02_17h19.56.196,lexical_decision_task_DD_L5,2021.2.3,Win32,60.06006006,,,,,,,,,,,,,,,,,,,,,0,0,0,0,1,,,,,,,,,,,,,,,,,,,,,,,,,,,,,,,,,,,,,,,,,,,,,,,,
,,,,,,,,,,,,,,,,,198832,19,2022-02-02_17h19.56.196,lexical_decision_task_DD_L5,2021.2.3,Win32,60.06006006,,,,,,,,,,,0.7644,1,,,,,,,,,,,,,,m,1,0.7644,,,,,,,,0.391666705,-0.168518538,0,0,0,,0,0,0,55,1,ALLEY,LB,old,m,./images/ALLEYLB.png,,,,,,,,,,,,,,,,,,,,,,
,,,,,,,,,,,,,,,,,198832,19,2022-02-02_17h19.56.196,lexical_decision_task_DD_L5,2021.2.3,Win32,60.06006006,,,,,,,,,,,0.6556,1,,,,,,,,,,,,,,m,1,0.6556,,,,,,,,0.391666705,-0.168518538,0,0,0,,0,1,1,21,1,DANCER,HB,old,m,./images/DANCERHB.png,,,,,,,,,,,,,,,,,,,,,,
,,,,,,,,,,,,,,,,,198832,19,2022-02-02_17h19.56.196,lexical_decision_task_DD_L5,2021.2.3,Win32,60.06006006,,,,,,,,,,,0.9391,0,,,,,,,,,,,,,,m,0,0.9391,,,,,,,,0.391666705,-0.168518538,0,0,0,,0,2,2,103,1,FLORT,HB,old,z,./images/FLORTHB.png,,,,,,,,,,,,,,,,,,,,,,
,,,,,,,,,,,,,,,,,198832,19,2022-02-02_17h19.56.196,lexical_decision_task_DD_L5,2021.2.3,Win32,60.06006006,,,,,,,,,,,1.7517,1,,,,,,,,,,,,,,z,1,1.7517,,,,,,,,0.391666705,-0.168518538,0,0,0,,0,3,3,160,1,VEETS,HB,old,z,./images/VEETSHB.png,,,,,,,,,,,,,,,,,,,,,,
,,,,,,,,,,,,,,,,,198832,19,2022-02-02_17h19.56.196,lexical_decision_task_DD_L5,2021.2.3,Win32,60.06006006,,,,,,,,,,,0.7998,1,,,,,,,,,,,,,,m,1,0.7998,,,,,,,,0.391666705,-0.168518538,0,0,0,,0,4,4,54,1,CHERRY,HB,old,m,./images/CHERRYHB.png,,,,,,,,,,,,,,,,,,,,,,
,,,,,,,,,,,,,,,,,198832,19,2022-02-02_17h19.56.196,lexical_decision_task_DD_L5,2021.2.3,Win32,60.06006006,,,,,,,,,,,0.8844,1,,,,,,,,,,,,,,z,1,0.8844,,,,,,,,0.391666705,-0.168518538,0,0,0,,0,5,5,113,1,LINEW,LB,old,z,./images/LINEWLB.png,,,,,,,,,,,,,,,,,,,,,,
,,,,,,,,,,,,,,,,,198832,19,2022-02-02_17h19.56.196,lexical_decision_task_DD_L5,2021.2.3,Win32,60.06006006,,,,,,,,,,,0.7174,1,,,,,,,,,,,,,,z,1,0.7174,,,,,,,,0.391666705,-0.168518538,0,0,0,,0,6,6,155,1,CANGY,LB,old,z,./images/CANGYLB.png,,,,,,,,,,,,,,,,,,,,,,
,,,,,,,,,,,,,,,,,198832,19,2022-02-02_17h19.56.196,lexical_decision_task_DD_L5,2021.2.3,Win32,60.06006006,,,,,,,,,,,1.1847,1,,,,,,,,,,,,,,z,1,1.1847,,,,,,,,0.391666705,-0.168518538,0,0,0,,0,7,7,120,1,RINED,C,old,z,./images/RINED.png,,,,,,,,,,,,,,,,,,,,,,
,,,,,,,,,,,,,,,,,198832,19,2022-02-02_17h19.56.196,lexical_decision_task_DD_L5,2021.2.3,Win32,60.06006006,,,,,,,,,,,1.0145,1,,,,,,,,,,,,,,z,1,1.0145,,,,,,,,0.391666705,-0.168518538,0,0,0,,0,8,8,138,1,PLICE,C,old,z,./images/PLICE.png,,,,,,,,,,,,,,,,,,,,,,
,,,,,,,,,,,,,,,,,198832,19,2022-02-02_17h19.56.196,lexical_decision_task_DD_L5,2021.2.3,Win32,60.06006006,,,,,,,,,,,0.7669,1,,,,,,,,,,,,,,m,1,0.7669,,,,,,,,0.391666705,-0.168518538,0,0,0,,0,9,9,42,1,CHAIN,HB,old,m,./images/CHAINHB.png,,,,,,,,,,,,,,,,,,,,,,
,,,,,,,,,,,,,,,,,198832,19,2022-02-02_17h19.56.196,lexical_decision_task_DD_L5,2021.2.3,Win32,60.06006006,,,,,,,,,,,0.6671,1,,,,,,,,,,,,,,m,1,0.6671,,,,,,,,0.391666705,-0.168518538,0,0,0,,0,10,10,49,1,BISHOP,LB,old,m,./images/BISHOPLB.png,,,,,,,,,,,,,,,,,,,,,,
,,,,,,,,,,,,,,,,,198832,19,2022-02-02_17h19.56.196,lexical_decision_task_DD_L5,2021.2.3,Win32,60.06006006,,,,,,,,,,,0.568,1,,,,,,,,,,,,,,m,1,0.568,,,,,,,,0.391666705,-0.168518538,0,0,0,,0,11,11,53,1,POSTER,C,old,m,./images/POSTER.png,,,,,,,,,,,,,,,,,,,,,,
,,,,,,,,,,,,,,,,,198832,19,2022-02-02_17h19.56.196,lexical_decision_task_DD_L5,2021.2.3,Win32,60.06006006,,,,,,,,,,,1.0005,1,,,,,,,,,,,,,,z,1,1.0005,,,,,,,,0.391666705,-0.168518538,0,0,0,,0,12,12,88,1,GLUSH,HB,old,z,./images/GLUSHHB.png,,,,,,,,,,,,,,,,,,,,,,
,,,,,,,,,,,,,,,,,198832,19,2022-02-02_17h19.56.196,lexical_decision_task_DD_L5,2021.2.3,Win32,60.06006006,,,,,,,,,,,0.8006,1,,,,,,,,,,,,,,z,1,0.8006,,,,,,,,0.391666705,-0.168518538,0,0,0,,0,13,13,117,1,STEEG,C,old,z,./images/STEEG.png,,,,,,,,,,,,,,,,,,,,,,
,,,,,,,,,,,,,,,,,198832,19,2022-02-02_17h19.56.196,lexical_decision_task_DD_L5,2021.2.3,Win32,60.06006006,,,,,,,,,,,0.583,1,,,,,,,,,,,,,,m,1,0.583,,,,,,,,0.391666705,-0.168518538,0,0,0,,0,14,14,44,1,BASKET,C,old,m,./images/BASKET.png,,,,,,,,,,,,,,,,,,,,,,
,,,,,,,,,,,,,,,,,198832,19,2022-02-02_17h19.56.196,lexical_decision_task_DD_L5,2021.2.3,Win32,60.06006006,,,,,,,,,,,0.717,1,,,,,,,,,,,,,,m,1,0.717,,,,,,,,0.391666705,-0.168518538,0,0,0,,0,15,15,82,1,PEBBLE,LB,old,m,./images/PEBBLELB.png,,,,,,,,,,,,,,,,,,,,,,
,,,,,,,,,,,,,,,,,198832,19,2022-02-02_17h19.56.196,lexical_decision_task_DD_L5,2021.2.3,Win32,60.06006006,,,,,,,,,,,0.8673,1,,,,,,,,,,,,,,m,1,0.8673,,,,,,,,0.391666705,-0.168518538,0,0,0,,0,16,16,63,1,BAKER,HB,old,m,./images/BAKERHB.png,,,,,,,,,,,,,,,,,,,,,,
,,,,,,,,,,,,,,,,,198832,19,2022-02-02_17h19.56.196,lexical_decision_task_DD_L5,2021.2.3,Win32,60.06006006,,,,,,,,,,,0.5515,0,,,,,,,,,,,,,,m,0,0.5515,,,,,,,,0.391666705,-0.168518538,0,0,0,,0,17,17,159,1,CUDDY,C,old,z,./images/CUDDY.png,,,,,,,,,,,,,,,,,,,,,,
,,,,,,,,,,,,,,,,,198832,19,2022-02-02_17h19.56.196,lexical_decision_task_DD_L5,2021.2.3,Win32,60.06006006,,,,,,,,,,,0.7509,1,,,,,,,,,,,,,,m,1,0.7509,,,,,,,,0.391666705,-0.168518538,0,0,0,,0,18,18,45,1,MONKEY,HB,old,m,./images/MONKEYHB.png,,,,,,,,,,,,,,,,,,,,,,
,,,,,,,,,,,,,,,,,198832,19,2022-02-02_17h19.56.196,lexical_decision_task_DD_L5,2021.2.3,Win32,60.06006006,,,,,,,,,,,1.2944,0,,,,,,,,,,,,,,m,0,1.2944,,,,,,,,0.391666705,-0.168518538,0,0,0,,0,19,19,106,1,CLUMS,HB,old,z,./images/CLUMSHB.png,,,,,,,,,,,,,,,,,,,,,,
,,,,,,,,,,,,,,,,,198832,19,2022-02-02_17h19.56.196,lexical_decision_task_DD_L5,2021.2.3,Win32,60.06006006,,,,,,,,,,,0.7011,1,,,,,,,,,,,,,,m,1,0.7011,,,,,,,,0.391666705,-0.168518538,0,0,0,,0,20,20,16,1,GRAPE,LB,old,m,./images/GRAPELB.png,,,,,,,,,,,,,,,,,,,,,,
,,,,,,,,,,,,,,,,,198832,19,2022-02-02_17h19.56.196,lexical_decision_task_DD_L5,2021.2.3,Win32,60.06006006,,,,,,,,,,,1.2837,1,,,,,,,,,,,,,,z,1,1.2837,,,,,,,,0.391666705,-0.168518538,0,0,0,,0,21,21,148,1,JOMS,HB,old,z,./images/JOMSHB.png,,,,,,,,,,,,,,,,,,,,,,
,,,,,,,,,,,,,,,,,198832,19,2022-02-02_17h19.56.196,lexical_decision_task_DD_L5,2021.2.3,Win32,60.06006006,,,,,,,,,,,0.5917,1,,,,,,,,,,,,,,m,1,0.5917,,,,,,,,0.391666705,-0.168518538,0,0,0,,0,22,22,22,1,CLOWN,LB,old,m,./images/CLOWNLB.png,,,,,,,,,,,,,,,,,,,,,,
,,,,,,,,,,,,,,,,,198832,19,2022-02-02_17h19.56.196,lexical_decision_task_DD_L5,2021.2.3,Win32,60.06006006,,,,,,,,,,,1.1664,1,,,,,,,,,,,,,,z,1,1.1664,,,,,,,,0.391666705,-0.168518538,0,0,0,,0,23,23,118,1,BAVEL,HB,old,z,./images/BAVELHB.png,,,,,,,,,,,,,,,,,,,,,,
,,,,,,,,,,,,,,,,,198832,19,2022-02-02_17h19.56.196,lexical_decision_task_DD_L5,2021.2.3,Win32,60.06006006,,,,,,,,,,,0.6671,1,,,,,,,,,,,,,,m,1,0.6671,,,,,,,,0.391666705,-0.168518538,0,0,0,,0,24,24,67,1,POKER,LB,old,m,./images/POKERLB.png,,,,,,,,,,,,,,,,,,,,,,
,,,,,,,,,,,,,,,,,198832,19,2022-02-02_17h19.56.196,lexical_decision_task_DD_L5,2021.2.3,Win32,60.06006006,,,,,,,,,,,0.7716,1,,,,,,,,,,,,,,m,1,0.7716,,,,,,,,0.391666705,-0.168518538,0,0,0,,0,25,25,37,1,TIGER,LB,old,m,./images/TIGERLB.png,,,,,,,,,,,,,,,,,,,,,,
,,,,,,,,,,,,,,,,,198832,19,2022-02-02_17h19.56.196,lexical_decision_task_DD_L5,2021.2.3,Win32,60.06006006,,,,,,,,,,,0.9501,1,,,,,,,,,,,,,,m,1,0.9501,,,,,,,,0.391666705,-0.168518538,0,0,0,,0,26,26,66,1,STATUE,HB,old,m,./images/STATUEHB.png,,,,,,,,,,,,,,,,,,,,,,
,,,,,,,,,,,,,,,,,198832,19,2022-02-02_17h19.56.196,lexical_decision_task_DD_L5,2021.2.3,Win32,60.06006006,,,,,,,,,,,0.7092,1,,,,,,,,,,,,,,z,1,0.7092,,,,,,,,0.391666705,-0.168518538,0,0,0,,0,27,27,126,1,GUELS,C,old,z,./images/GUELS.png,,,,,,,,,,,,,,,,,,,,,,
,,,,,,,,,,,,,,,,,198832,19,2022-02-02_17h19.56.196,lexical_decision_task_DD_L5,2021.2.3,Win32,60.06006006,,,,,,,,,,,0.7528,1,,,,,,,,,,,,,,z,1,0.7528,,,,,,,,0.391666705,-0.168518538,0,0,0,,0,28,28,158,1,EGECT,LB,old,z,./images/EGECTLB.png,,,,,,,,,,,,,,,,,,,,,,
,,,,,,,,,,,,,,,,,198832,19,2022-02-02_17h19.56.196,lexical_decision_task_DD_L5,2021.2.3,Win32,60.06006006,,,,,,,,,,,1.0089,1,,,,,,,,,,,,,,z,1,1.0089,,,,,,,,0.391666705,-0.168518538,0,0,0,,0,29,29,94,1,BLANS,HB,old,z,./images/BLANSHB.png,,,,,,,,,,,,,,,,,,,,,,
,,,,,,,,,,,,,,,,,198832,19,2022-02-02_17h19.56.196,lexical_decision_task_DD_L5,2021.2.3,Win32,60.06006006,,,,,,,,,,,1.0588,1,,,,,,,,,,,,,,m,1,1.0588,,,,,,,,0.391666705,-0.168518538,0,0,0,,0,30,30,24,1,FLESH,HB,old,m,./images/FLESHHB.png,,,,,,,,,,,,,,,,,,,,,,
,,,,,,,,,,,,,,,,,198832,19,2022-02-02_17h19.56.196,lexical_decision_task_DD_L5,2021.2.3,Win32,60.06006006,,,,,,,,,,,0.9,1,,,,,,,,,,,,,,m,1,0.9,,,,,,,,0.391666705,-0.168518538,0,0,0,,0,31,31,75,1,HAMMER,HB,old,m,./images/HAMMERHB.png,,,,,,,,,,,,,,,,,,,,,,
,,,,,,,,,,,,,,,,,198832,19,2022-02-02_17h19.56.196,lexical_decision_task_DD_L5,2021.2.3,Win32,60.06006006,,,,,,,,,,,0.7999,1,,,,,,,,,,,,,,z,1,0.7999,,,,,,,,0.391666705,-0.168518538,0,0,0,,0,32,32,161,1,BLAPS,LB,old,z,./images/BLAPSLB.png,,,,,,,,,,,,,,,,,,,,,,
,,,,,,,,,,,,,,,,,198832,19,2022-02-02_17h19.56.196,lexical_decision_task_DD_L5,2021.2.3,Win32,60.06006006,,,,,,,,,,,0.8673,1,,,,,,,,,,,,,,z,1,0.8673,,,,,,,,0.391666705,-0.168518538,0,0,0,,0,33,33,143,1,MONGS,LB,old,z,./images/MONGSLB.png,,,,,,,,,,,,,,,,,,,,,,
,,,,,,,,,,,,,,,,,198832,19,2022-02-02_17h19.56.196,lexical_decision_task_DD_L5,2021.2.3,Win32,60.06006006,,,,,,,,,,,0.8339,1,,,,,,,,,,,,,,m,1,0.8339,,,,,,,,0.391666705,-0.168518538,0,0,0,,0,34,34,7,1,WAGON,LB,old,m,./images/WAGONLB.png,,,,,,,,,,,,,,,,,,,,,,
,,,,,,,,,,,,,,,,,198832,19,2022-02-02_17h19.56.196,lexical_decision_task_DD_L5,2021.2.3,Win32,60.06006006,,,,,,,,,,,0.8422,1,,,,,,,,,,,,,,m,1,0.8422,,,,,,,,0.391666705,-0.168518538,0,0,0,,0,35,35,6,1,STAIN,HB,old,m,./images/STAINHB.png,,,,,,,,,,,,,,,,,,,,,,
,,,,,,,,,,,,,,,,,198832,19,2022-02-02_17h19.56.196,lexical_decision_task_DD_L5,2021.2.3,Win32,60.06006006,,,,,,,,,,,0.6999,1,,,,,,,,,,,,,,z,1,0.6999,,,,,,,,0.391666705,-0.168518538,0,0,0,,0,36,36,162,1,LEICH,C,old,z,./images/LEICH.png,,,,,,,,,,,,,,,,,,,,,,
,,,,,,,,,,,,,,,,,198832,19,2022-02-02_17h19.56.196,lexical_decision_task_DD_L5,2021.2.3,Win32,60.06006006,,,,,,,,,,,0.8565,1,,,,,,,,,,,,,,z,1,0.8565,,,,,,,,0.391666705,-0.168518538,0,0,0,,0,37,37,147,1,ZOLES,C,old,z,./images/ZOLES.png,,,,,,,,,,,,,,,,,,,,,,
,,,,,,,,,,,,,,,,,198832,19,2022-02-02_17h19.56.196,lexical_decision_task_DD_L5,2021.2.3,Win32,60.06006006,,,,,,,,,,,1.0879,1,,,,,,,,,,,,,,z,1,1.0879,,,,,,,,0.391666705,-0.168518538,0,0,0,,0,38,38,85,1,CHULK,HB,old,z,./images/CHULKHB.png,,,,,,,,,,,,,,,,,,,,,,
,,,,,,,,,,,,,,,,,198832,19,2022-02-02_17h19.56.196,lexical_decision_task_DD_L5,2021.2.3,Win32,60.06006006,,,,,,,,,,,0.8279,1,,,,,,,,,,,,,,z,1,0.8279,,,,,,,,0.391666705,-0.168518538,0,0,0,,0,39,39,140,1,DOVET,LB,old,z,./images/DOVETLB.png,,,,,,,,,,,,,,,,,,,,,,
,,,,,,,,,,,,,,,,,198832,19,2022-02-02_17h19.56.196,lexical_decision_task_DD_L5,2021.2.3,Win32,60.06006006,,,,,,,,,,,0.635,1,,,,,,,,,,,,,,m,1,0.635,,,,,,,,0.391666705,-0.168518538,0,0,0,,0,40,40,23,1,CLOTH,C,old,m,./images/CLOTH.png,,,,,,,,,,,,,,,,,,,,,,
,,,,,,,,,,,,,,,,,198832,19,2022-02-02_17h19.56.196,lexical_decision_task_DD_L5,2021.2.3,Win32,60.06006006,,,,,,,,,,,0.7692,1,,,,,,,,,,,,,,m,1,0.7692,,,,,,,,0.391666705,-0.168518538,0,0,0,space,0,41,41,69,1,ARROW,HB,old,m,./images/ARROWHB.png,37.3135,,,,,,,,,,,,,,,,,,,,,
,,,,,,,,,,,,,,,,,198832,19,2022-02-02_17h19.56.196,lexical_decision_task_DD_L5,2021.2.3,Win32,60.06006006,,,,,,,,,,,1.0526,1,,,,,,,,,,,,,,z,1,1.0526,,,,,,,,0.391666705,-0.168518538,0,0,0,,0,42,42,151,1,TINKY,HB,old,z,./images/TINKYHB.png,,,,,,,,,,,,,,,,,,,,,,
,,,,,,,,,,,,,,,,,198832,19,2022-02-02_17h19.56.196,lexical_decision_task_DD_L5,2021.2.3,Win32,60.06006006,,,,,,,,,,,0.6908,1,,,,,,,,,,,,,,z,1,0.6908,,,,,,,,0.391666705,-0.168518538,0,0,0,,0,43,43,86,1,AIFED,LB,old,z,./images/AIFEDLB.png,,,,,,,,,,,,,,,,,,,,,,
,,,,,,,,,,,,,,,,,198832,19,2022-02-02_17h19.56.196,lexical_decision_task_DD_L5,2021.2.3,Win32,60.06006006,,,,,,,,,,,0.9775,1,,,,,,,,,,,,,,m,1,0.9775,,,,,,,,0.391666705,-0.168518538,0,0,0,,0,44,44,35,1,LLAMA,C,old,m,./images/LLAMA.png,,,,,,,,,,,,,,,,,,,,,,
,,,,,,,,,,,,,,,,,198832,19,2022-02-02_17h19.56.196,lexical_decision_task_DD_L5,2021.2.3,Win32,60.06006006,,,,,,,,,,,0.9996,1,,,,,,,,,,,,,,m,1,0.9996,,,,,,,,0.391666705,-0.168518538,0,0,0,,0,45,45,50,1,PILOT,C,old,m,./images/PILOT.png,,,,,,,,,,,,,,,,,,,,,,
,,,,,,,,,,,,,,,,,198832,19,2022-02-02_17h19.56.196,lexical_decision_task_DD_L5,2021.2.3,Win32,60.06006006,,,,,,,,,,,1.1008,1,,,,,,,,,,,,,,z,1,1.1008,,,,,,,,0.391666705,-0.168518538,0,0,0,,0,46,46,114,1,RIKES,C,old,z,./images/RIKES.png,,,,,,,,,,,,,,,,,,,,,,
,,,,,,,,,,,,,,,,,198832,19,2022-02-02_17h19.56.196,lexical_decision_task_DD_L5,2021.2.3,Win32,60.06006006,,,,,,,,,,,0.6665,1,,,,,,,,,,,,,,m,1,0.6665,,,,,,,,0.391666705,-0.168518538,0,0,0,,0,47,47,11,1,MEDAL,C,old,m,./images/MEDAL.png,,,,,,,,,,,,,,,,,,,,,,
,,,,,,,,,,,,,,,,,198832,19,2022-02-02_17h19.56.196,lexical_decision_task_DD_L5,2021.2.3,Win32,60.06006006,,,,,,,,,,,0.8675,1,,,,,,,,,,,,,,z,1,0.8675,,,,,,,,0.391666705,-0.168518538,0,0,0,,0,48,48,139,1,BLEAR,HB,old,z,./images/BLEARHB.png,,,,,,,,,,,,,,,,,,,,,,
,,,,,,,,,,,,,,,,,198832,19,2022-02-02_17h19.56.196,lexical_decision_task_DD_L5,2021.2.3,Win32,60.06006006,,,,,,,,,,,0.654,1,,,,,,,,,,,,,,m,1,0.654,,,,,,,,0.391666705,-0.168518538,0,0,0,,0,49,49,79,1,RULER,LB,old,m,./images/RULERLB.png,,,,,,,,,,,,,,,,,,,,,,
,,,,,,,,,,,,,,,,,198832,19,2022-02-02_17h19.56.196,lexical_decision_task_DD_L5,2021.2.3,Win32,60.06006006,,,,,,,,,,,1.0506,1,,,,,,,,,,,,,,m,1,1.0506,,,,,,,,0.391666705,-0.168518538,0,0,0,,0,50,50,3,1,CRATER,HB,old,m,./images/CRATERHB.png,,,,,,,,,,,,,,,,,,,,,,
,,,,,,,,,,,,,,,,,198832,19,2022-02-02_17h19.56.196,lexical_decision_task_DD_L5,2021.2.3,Win32,60.06006006,,,,,,,,,,,0.7044,1,,,,,,,,,,,,,,z,1,0.7044,,,,,,,,0.391666705,-0.168518538,0,0,0,,0,51,51,146,1,MOOST,LB,old,z,./images/MOOSTLB.png,,,,,,,,,,,,,,,,,,,,,,
,,,,,,,,,,,,,,,,,198832,19,2022-02-02_17h19.56.196,lexical_decision_task_DD_L5,2021.2.3,Win32,60.06006006,,,,,,,,,,,0.7672,1,,,,,,,,,,,,,,m,1,0.7672,,,,,,,,0.391666705,-0.168518538,0,0,0,,0,52,52,51,1,SAUCE,HB,old,m,./images/SAUCEHB.png,,,,,,,,,,,,,,,,,,,,,,
,,,,,,,,,,,,,,,,,198832,19,2022-02-02_17h19.56.196,lexical_decision_task_DD_L5,2021.2.3,Win32,60.06006006,,,,,,,,,,,0.8937,1,,,,,,,,,,,,,,m,1,0.8937,,,,,,,,0.391666705,-0.168518538,0,0,0,,0,53,53,78,1,BROOM,HB,old,m,./images/BROOMHB.png,,,,,,,,,,,,,,,,,,,,,,
,,,,,,,,,,,,,,,,,198832,19,2022-02-02_17h19.56.196,lexical_decision_task_DD_L5,2021.2.3,Win32,60.06006006,,,,,,,,,,,0.8697,1,,,,,,,,,,,,,,m,1,0.8697,,,,,,,,0.391666705,-0.168518538,0,0,0,,0,54,54,39,1,CANDY,HB,old,m,./images/CANDYHB.png,,,,,,,,,,,,,,,,,,,,,,
,,,,,,,,,,,,,,,,,198832,19,2022-02-02_17h19.56.196,lexical_decision_task_DD_L5,2021.2.3,Win32,60.06006006,,,,,,,,,,,0.7717,1,,,,,,,,,,,,,,z,1,0.7717,,,,,,,,0.391666705,-0.168518538,0,0,0,,0,55,55,119,1,PAFER,LB,old,z,./images/PAFERLB.png,,,,,,,,,,,,,,,,,,,,,,
,,,,,,,,,,,,,,,,,198832,19,2022-02-02_17h19.56.196,lexical_decision_task_DD_L5,2021.2.3,Win32,60.06006006,,,,,,,,,,,0.6849,1,,,,,,,,,,,,,,m,1,0.6849,,,,,,,,0.391666705,-0.168518538,0,0,0,,0,56,56,47,1,LAGOON,C,old,m,./images/LAGOON.png,,,,,,,,,,,,,,,,,,,,,,
,,,,,,,,,,,,,,,,,198832,19,2022-02-02_17h19.56.196,lexical_decision_task_DD_L5,2021.2.3,Win32,60.06006006,,,,,,,,,,,0.6885,1,,,,,,,,,,,,,,m,1,0.6885,,,,,,,,0.391666705,-0.168518538,0,0,0,,0,57,57,10,1,GARDEN,LB,old,m,./images/GARDENLB.png,,,,,,,,,,,,,,,,,,,,,,
,,,,,,,,,,,,,,,,,198832,19,2022-02-02_17h19.56.196,lexical_decision_task_DD_L5,2021.2.3,Win32,60.06006006,,,,,,,,,,,0.7724,1,,,,,,,,,,,,,,z,1,0.7724,,,,,,,,0.391666705,-0.168518538,0,0,0,,0,58,58,124,1,TUNCH,HB,old,z,./images/TUNCHHB.png,,,,,,,,,,,,,,,,,,,,,,
,,,,,,,,,,,,,,,,,198832,19,2022-02-02_17h19.56.196,lexical_decision_task_DD_L5,2021.2.3,Win32,60.06006006,,,,,,,,,,,0.8175,1,,,,,,,,,,,,,,z,1,0.8175,,,,,,,,0.391666705,-0.168518538,0,0,0,,0,59,59,102,1,DULLE,C,old,z,./images/DULLE.png,,,,,,,,,,,,,,,,,,,,,,
,,,,,,,,,,,,,,,,,198832,19,2022-02-02_17h19.56.196,lexical_decision_task_DD_L5,2021.2.3,Win32,60.06006006,,,,,,,,,,,0.8347,1,,,,,,,,,,,,,,z,1,0.8347,,,,,,,,0.391666705,-0.168518538,0,0,0,,0,60,60,136,1,WERVE,HB,old,z,./images/WERVEHB.png,,,,,,,,,,,,,,,,,,,,,,
,,,,,,,,,,,,,,,,,198832,19,2022-02-02_17h19.56.196,lexical_decision_task_DD_L5,2021.2.3,Win32,60.06006006,,,,,,,,,,,0.8697,1,,,,,,,,,,,,,,m,1,0.8697,,,,,,,,0.391666705,-0.168518538,0,0,0,,0,61,61,57,1,FERRY,HB,old,m,./images/FERRYHB.png,,,,,,,,,,,,,,,,,,,,,,
,,,,,,,,,,,,,,,,,198832,19,2022-02-02_17h19.56.196,lexical_decision_task_DD_L5,2021.2.3,Win32,60.06006006,,,,,,,,,,,0.7342,1,,,,,,,,,,,,,,z,1,0.7342,,,,,,,,0.391666705,-0.168518538,0,0,0,,0,62,62,111,1,HOSSE,C,old,z,./images/HOSSE.png,,,,,,,,,,,,,,,,,,,,,,
,,,,,,,,,,,,,,,,,198832,19,2022-02-02_17h19.56.196,lexical_decision_task_DD_L5,2021.2.3,Win32,60.06006006,,,,,,,,,,,0.7501,1,,,,,,,,,,,,,,m,1,0.7501,,,,,,,,0.391666705,-0.168518538,0,0,0,,0,63,63,29,1,PISTOL,C,old,m,./images/PISTOL.png,,,,,,,,,,,,,,,,,,,,,,
,,,,,,,,,,,,,,,,,198832,19,2022-02-02_17h19.56.196,lexical_decision_task_DD_L5,2021.2.3,Win32,60.06006006,,,,,,,,,,,0.8333,1,,,,,,,,,,,,,,z,1,0.8333,,,,,,,,0.391666705,-0.168518538,0,0,0,,0,64,64,142,1,PLASK,HB,old,z,./images/PLASKHB.png,,,,,,,,,,,,,,,,,,,,,,
,,,,,,,,,,,,,,,,,198832,19,2022-02-02_17h19.56.196,lexical_decision_task_DD_L5,2021.2.3,Win32,60.06006006,,,,,,,,,,,0.6669,1,,,,,,,,,,,,,,m,1,0.6669,,,,,,,,0.391666705,-0.168518538,0,0,0,,0,65,65,65,1,SPINE,C,old,m,./images/SPINE.png,,,,,,,,,,,,,,,,,,,,,,
,,,,,,,,,,,,,,,,,198832,19,2022-02-02_17h19.56.196,lexical_decision_task_DD_L5,2021.2.3,Win32,60.06006006,,,,,,,,,,,0.9194,1,,,,,,,,,,,,,,z,1,0.9194,,,,,,,,0.391666705,-0.168518538,0,0,0,,0,66,66,154,1,THINT,HB,old,z,./images/THINTHB.png,,,,,,,,,,,,,,,,,,,,,,
,,,,,,,,,,,,,,,,,198832,19,2022-02-02_17h19.56.196,lexical_decision_task_DD_L5,2021.2.3,Win32,60.06006006,,,,,,,,,,,0.9006,1,,,,,,,,,,,,,,z,1,0.9006,,,,,,,,0.391666705,-0.168518538,0,0,0,,0,67,67,121,1,CEERS,HB,old,z,./images/CEERSHB.png,,,,,,,,,,,,,,,,,,,,,,
,,,,,,,,,,,,,,,,,198832,19,2022-02-02_17h19.56.196,lexical_decision_task_DD_L5,2021.2.3,Win32,60.06006006,,,,,,,,,,,1.0519,1,,,,,,,,,,,,,,z,1,1.0519,,,,,,,,0.391666705,-0.168518538,0,0,0,,0,68,68,97,1,CHIDS,HB,old,z,./images/CHIDSHB.png,,,,,,,,,,,,,,,,,,,,,,
,,,,,,,,,,,,,,,,,198832,19,2022-02-02_17h19.56.196,lexical_decision_task_DD_L5,2021.2.3,Win32,60.06006006,,,,,,,,,,,0.8114,1,,,,,,,,,,,,,,z,1,0.8114,,,,,,,,0.391666705,-0.168518538,0,0,0,,0,69,69,116,1,BALGY,LB,old,z,./images/BALGYLB.png,,,,,,,,,,,,,,,,,,,,,,
,,,,,,,,,,,,,,,,,198832,19,2022-02-02_17h19.56.196,lexical_decision_task_DD_L5,2021.2.3,Win32,60.06006006,,,,,,,,,,,0.9452,1,,,,,,,,,,,,,,z,1,0.9452,,,,,,,,0.391666705,-0.168518538,0,0,0,,0,70,70,165,1,TROWN,C,old,z,./images/TROWN.png,,,,,,,,,,,,,,,,,,,,,,
,,,,,,,,,,,,,,,,,198832,19,2022-02-02_17h19.56.196,lexical_decision_task_DD_L5,2021.2.3,Win32,60.06006006,,,,,,,,,,,0.8008,1,,,,,,,,,,,,,,z,1,0.8008,,,,,,,,0.391666705,-0.168518538,0,0,0,,0,71,71,104,1,GITTY,LB,old,z,./images/GITTYLB.png,,,,,,,,,,,,,,,,,,,,,,
,,,,,,,,,,,,,,,,,198832,19,2022-02-02_17h19.56.196,lexical_decision_task_DD_L5,2021.2.3,Win32,60.06006006,,,,,,,,,,,0.7501,1,,,,,,,,,,,,,,m,1,0.7501,,,,,,,,0.391666705,-0.168518538,0,0,0,,0,72,72,8,1,CLIFF,C,old,m,./images/CLIFF.png,,,,,,,,,,,,,,,,,,,,,,
,,,,,,,,,,,,,,,,,198832,19,2022-02-02_17h19.56.196,lexical_decision_task_DD_L5,2021.2.3,Win32,60.06006006,,,,,,,,,,,0.684,1,,,,,,,,,,,,,,m,1,0.684,,,,,,,,0.391666705,-0.168518538,0,0,0,,0,73,73,20,1,GRANNY,C,old,m,./images/GRANNY.png,,,,,,,,,,,,,,,,,,,,,,
,,,,,,,,,,,,,,,,,198832,19,2022-02-02_17h19.56.196,lexical_decision_task_DD_L5,2021.2.3,Win32,60.06006006,,,,,,,,,,,1.003,1,,,,,,,,,,,,,,z,1,1.003,,,,,,,,0.391666705,-0.168518538,0,0,0,,0,74,74,133,1,POWDY,HB,old,z,./images/POWDYHB.png,,,,,,,,,,,,,,,,,,,,,,
,,,,,,,,,,,,,,,,,198832,19,2022-02-02_17h19.56.196,lexical_decision_task_DD_L5,2021.2.3,Win32,60.06006006,,,,,,,,,,,1.0005,0,,,,,,,,,,,,,,m,0,1.0005,,,,,,,,0.391666705,-0.168518538,0,0,0,,0,75,75,163,1,GAMBA,HB,old,z,./images/GAMBAHB.png,,,,,,,,,,,,,,,,,,,,,,
,,,,,,,,,,,,,,,,,198832,19,2022-02-02_17h19.56.196,lexical_decision_task_DD_L5,2021.2.3,Win32,60.06006006,,,,,,,,,,,0.805,1,,,,,,,,,,,,,,m,1,0.805,,,,,,,,0.391666705,-0.168518538,0,0,0,,0,76,76,13,1,BUNNY,LB,old,m,./images/BUNNYLB.png,,,,,,,,,,,,,,,,,,,,,,
,,,,,,,,,,,,,,,,,198832,19,2022-02-02_17h19.56.196,lexical_decision_task_DD_L5,2021.2.3,Win32,60.06006006,,,,,,,,,,,1.062,1,,,,,,,,,,,,,,z,1,1.062,,,,,,,,0.391666705,-0.168518538,0,0,0,,0,77,77,134,1,TROSS,LB,old,z,./images/TROSSLB.png,,,,,,,,,,,,,,,,,,,,,,
,,,,,,,,,,,,,,,,,198832,19,2022-02-02_17h19.56.196,lexical_decision_task_DD_L5,2021.2.3,Win32,60.06006006,,,,,,,,,,,0.7842,1,,,,,,,,,,,,,,m,1,0.7842,,,,,,,,0.391666705,-0.168518538,0,0,0,,0,78,78,83,1,WHISKY,C,old,m,./images/WHISKY.png,,,,,,,,,,,,,,,,,,,,,,
,,,,,,,,,,,,,,,,,198832,19,2022-02-02_17h19.56.196,lexical_decision_task_DD_L5,2021.2.3,Win32,60.06006006,,,,,,,,,,,0.7064,1,,,,,,,,,,,,,,m,1,0.7064,,,,,,,,0.391666705,-0.168518538,0,0,0,,0,79,79,70,1,BANANA,LB,old,m,./images/BANANALB.png,,,,,,,,,,,,,,,,,,,,,,
,,,,,,,,,,,,,,,,,198832,19,2022-02-02_17h19.56.196,lexical_decision_task_DD_L5,2021.2.3,Win32,60.06006006,,,,,,,,,,,0.6228,1,,,,,,,,,,,,,,m,1,0.6228,,,,,,,,0.391666705,-0.168518538,0,0,0,,0,80,80,73,1,GLOVE,LB,old,m,./images/GLOVELB.png,,,,,,,,,,,,,,,,,,,,,,
,,,,,,,,,,,,,,,,,198832,19,2022-02-02_17h19.56.196,lexical_decision_task_DD_L5,2021.2.3,Win32,60.06006006,,,,,,,,,,,0.6923,1,,,,,,,,,,,,,,m,1,0.6923,,,,,,,,0.391666705,-0.168518538,0,0,0,,0,81,81,30,1,SLOPE,HB,old,m,./images/SLOPEHB.png,,,,,,,,,,,,,,,,,,,,,,
,,,,,,,,,,,,,,,,,198832,19,2022-02-02_17h19.56.196,lexical_decision_task_DD_L5,2021.2.3,Win32,60.06006006,,,,,,,,,,,0.7063,1,,,,,,,,,,,,,,z,1,0.7063,,,,,,,,0.391666705,-0.168518538,0,0,0,,0,82,82,156,1,HIXES,C,old,z,./images/HIXES.png,,,,,,,,,,,,,,,,,,,,,,
,,,,,,,,,,,,,,,,,198832,19,2022-02-02_17h19.56.196,lexical_decision_task_DD_L5,2021.2.3,Win32,60.06006006,,,,,,,,,,,0.6841,1,,,,,,,,,,,,,,m,1,0.6841,,,,,,,,0.391666705,-0.168518538,0,0,0,space,0,83,83,32,1,HOCKEY,C,old,m,./images/HOCKEY.png,23.634,,,,,,,,,,,,,,,,,,,,,
,,,,,,,,,,,,,,,,,198832,19,2022-02-02_17h19.56.196,lexical_decision_task_DD_L5,2021.2.3,Win32,60.06006006,,,,,,,,,,,0.6701,1,,,,,,,,,,,,,,m,1,0.6701,,,,,,,,0.391666705,-0.168518538,0,0,0,,0,84,84,59,1,BRUSH,C,old,m,./images/BRUSH.png,,,,,,,,,,,,,,,,,,,,,,
,,,,,,,,,,,,,,,,,198832,19,2022-02-02_17h19.56.196,lexical_decision_task_DD_L5,2021.2.3,Win32,60.06006006,,,,,,,,,,,0.6219,1,,,,,,,,,,,,,,m,1,0.6219,,,,,,,,0.391666705,-0.168518538,0,0,0,,0,85,85,19,1,DONKEY,LB,old,m,./images/DONKEYLB.png,,,,,,,,,,,,,,,,,,,,,,
,,,,,,,,,,,,,,,,,198832,19,2022-02-02_17h19.56.196,lexical_decision_task_DD_L5,2021.2.3,Win32,60.06006006,,,,,,,,,,,1.0692,1,,,,,,,,,,,,,,m,1,1.0692,,,,,,,,0.391666705,-0.168518538,0,0,0,,0,86,86,36,1,BOILER,HB,old,m,./images/BOILERHB.png,,,,,,,,,,,,,,,,,,,,,,
,,,,,,,,,,,,,,,,,198832,19,2022-02-02_17h19.56.196,lexical_decision_task_DD_L5,2021.2.3,Win32,60.06006006,,,,,,,,,,,0.8927,1,,,,,,,,,,,,,,m,1,0.8927,,,,,,,,0.391666705,-0.168518538,0,0,0,,0,87,87,48,1,SHIELD,HB,old,m,./images/SHIELDHB.png,,,,,,,,,,,,,,,,,,,,,,
,,,,,,,,,,,,,,,,,198832,19,2022-02-02_17h19.56.196,lexical_decision_task_DD_L5,2021.2.3,Win32,60.06006006,,,,,,,,,,,0.8168,1,,,,,,,,,,,,,,z,1,0.8168,,,,,,,,0.391666705,-0.168518538,0,0,0,,0,88,88,95,1,HANTY,LB,old,z,./images/HANTYLB.png,,,,,,,,,,,,,,,,,,,,,,
,,,,,,,,,,,,,,,,,198832,19,2022-02-02_17h19.56.196,lexical_decision_task_DD_L5,2021.2.3,Win32,60.06006006,,,,,,,,,,,0.878,1,,,,,,,,,,,,,,z,1,0.878,,,,,,,,0.391666705,-0.168518538,0,0,0,,0,89,89,130,1,CRILL,HB,old,z,./images/CRILLHB.png,,,,,,,,,,,,,,,,,,,,,,
,,,,,,,,,,,,,,,,,198832,19,2022-02-02_17h19.56.196,lexical_decision_task_DD_L5,2021.2.3,Win32,60.06006006,,,,,,,,,,,0.8841,1,,,,,,,,,,,,,,z,1,0.8841,,,,,,,,0.391666705,-0.168518538,0,0,0,,0,90,90,132,1,SCIFF,C,old,z,./images/SCIFF.png,,,,,,,,,,,,,,,,,,,,,,
,,,,,,,,,,,,,,,,,198832,19,2022-02-02_17h19.56.196,lexical_decision_task_DD_L5,2021.2.3,Win32,60.06006006,,,,,,,,,,,0.7894,1,,,,,,,,,,,,,,z,1,0.7894,,,,,,,,0.391666705,-0.168518538,0,0,0,,0,91,91,131,1,NACES,LB,old,z,./images/NACESLB.png,,,,,,,,,,,,,,,,,,,,,,
,,,,,,,,,,,,,,,,,198832,19,2022-02-02_17h19.56.196,lexical_decision_task_DD_L5,2021.2.3,Win32,60.06006006,,,,,,,,,,,1.0507,1,,,,,,,,,,,,,,z,1,1.0507,,,,,,,,0.391666705,-0.168518538,0,0,0,,0,92,92,107,1,FASKS,LB,old,z,./images/FASKSLB.png,,,,,,,,,,,,,,,,,,,,,,
,,,,,,,,,,,,,,,,,198832,19,2022-02-02_17h19.56.196,lexical_decision_task_DD_L5,2021.2.3,Win32,60.06006006,,,,,,,,,,,0.9671,1,,,,,,,,,,,,,,z,1,0.9671,,,,,,,,0.391666705,-0.168518538,0,0,0,,0,93,93,145,1,LAMEL,HB,old,z,./images/LAMELHB.png,,,,,,,,,,,,,,,,,,,,,,
,,,,,,,,,,,,,,,,,198832,19,2022-02-02_17h19.56.196,lexical_decision_task_DD_L5,2021.2.3,Win32,60.06006006,,,,,,,,,,,0.9779,1,,,,,,,,,,,,,,z,1,0.9779,,,,,,,,0.391666705,-0.168518538,0,0,0,,0,94,94,84,1,HAXES,C,old,z,./images/HAXES.png,,,,,,,,,,,,,,,,,,,,,,
,,,,,,,,,,,,,,,,,198832,19,2022-02-02_17h19.56.196,lexical_decision_task_DD_L5,2021.2.3,Win32,60.06006006,,,,,,,,,,,1.1429,1,,,,,,,,,,,,,,z,1,1.1429,,,,,,,,0.391666705,-0.168518538,0,0,0,,0,95,95,98,1,BAMPS,LB,old,z,./images/BAMPSLB.png,,,,,,,,,,,,,,,,,,,,,,
,,,,,,,,,,,,,,,,,198832,19,2022-02-02_17h19.56.196,lexical_decision_task_DD_L5,2021.2.3,Win32,60.06006006,,,,,,,,,,,0.6838,1,,,,,,,,,,,,,,m,1,0.6838,,,,,,,,0.391666705,-0.168518538,0,0,0,,0,96,96,71,1,BUBBLE,C,old,m,./images/BUBBLE.png,,,,,,,,,,,,,,,,,,,,,,
,,,,,,,,,,,,,,,,,198832,19,2022-02-02_17h19.56.196,lexical_decision_task_DD_L5,2021.2.3,Win32,60.06006006,,,,,,,,,,,0.7026,1,,,,,,,,,,,,,,m,1,0.7026,,,,,,,,0.391666705,-0.168518538,0,0,0,,0,97,97,76,1,MIDGET,LB,old,m,./images/MIDGETLB.png,,,,,,,,,,,,,,,,,,,,,,
,,,,,,,,,,,,,,,,,198832,19,2022-02-02_17h19.56.196,lexical_decision_task_DD_L5,2021.2.3,Win32,60.06006006,,,,,,,,,,,1.4001,0,,,,,,,,,,,,,,z,0,1.4001,,,,,,,,0.391666705,-0.168518538,0,0,0,,0,98,98,33,1,SAUNA,HB,old,m,./images/SAUNAHB.png,,,,,,,,,,,,,,,,,,,,,,
,,,,,,,,,,,,,,,,,198832,19,2022-02-02_17h19.56.196,lexical_decision_task_DD_L5,2021.2.3,Win32,60.06006006,,,,,,,,,,,1.161,1,,,,,,,,,,,,,,z,1,1.161,,,,,,,,0.391666705,-0.168518538,0,0,0,,0,99,99,108,1,GRUET,C,old,z,./images/GRUET.png,,,,,,,,,,,,,,,,,,,,,,
,,,,,,,,,,,,,,,,,198832,19,2022-02-02_17h19.56.196,lexical_decision_task_DD_L5,2021.2.3,Win32,60.06006006,,,,,,,,,,,1.4498,1,,,,,,,,,,,,,,z,1,1.4498,,,,,,,,0.391666705,-0.168518538,0,0,0,,0,100,100,127,1,NINDY,HB,old,z,./images/NINDYHB.png,,,,,,,,,,,,,,,,,,,,,,
,,,,,,,,,,,,,,,,,198832,19,2022-02-02_17h19.56.196,lexical_decision_task_DD_L5,2021.2.3,Win32,60.06006006,,,,,,,,,,,0.6838,1,,,,,,,,,,,,,,m,1,0.6838,,,,,,,,0.391666705,-0.168518538,0,0,0,,0,101,101,5,1,BAMBOO,C,old,m,./images/BAMBOO.png,,,,,,,,,,,,,,,,,,,,,,
,,,,,,,,,,,,,,,,,198832,19,2022-02-02_17h19.56.196,lexical_decision_task_DD_L5,2021.2.3,Win32,60.06006006,,,,,,,,,,,0.8855,1,,,,,,,,,,,,,,z,1,0.8855,,,,,,,,0.391666705,-0.168518538,0,0,0,,0,102,102,149,1,VEASE,LB,old,z,./images/VEASELB.png,,,,,,,,,,,,,,,,,,,,,,
,,,,,,,,,,,,,,,,,198832,19,2022-02-02_17h19.56.196,lexical_decision_task_DD_L5,2021.2.3,Win32,60.06006006,,,,,,,,,,,1.0217,1,,,,,,,,,,,,,,z,1,1.0217,,,,,,,,0.391666705,-0.168518538,0,0,0,,0,103,103,152,1,FRAIN,LB,old,z,./images/FRAINLB.png,,,,,,,,,,,,,,,,,,,,,,
,,,,,,,,,,,,,,,,,198832,19,2022-02-02_17h19.56.196,lexical_decision_task_DD_L5,2021.2.3,Win32,60.06006006,,,,,,,,,,,0.9673,1,,,,,,,,,,,,,,m,1,0.9673,,,,,,,,0.391666705,-0.168518538,0,0,0,,0,104,104,18,1,PARCEL,HB,old,m,./images/PARCELHB.png,,,,,,,,,,,,,,,,,,,,,,
,,,,,,,,,,,,,,,,,198832,19,2022-02-02_17h19.56.196,lexical_decision_task_DD_L5,2021.2.3,Win32,60.06006006,,,,,,,,,,,0.8497,1,,,,,,,,,,,,,,z,1,0.8497,,,,,,,,0.391666705,-0.168518538,0,0,0,,0,105,105,125,1,MOOKY,LB,old,z,./images/MOOKYLB.png,,,,,,,,,,,,,,,,,,,,,,
,,,,,,,,,,,,,,,,,198832,19,2022-02-02_17h19.56.196,lexical_decision_task_DD_L5,2021.2.3,Win32,60.06006006,,,,,,,,,,,0.75,1,,,,,,,,,,,,,,m,1,0.75,,,,,,,,0.391666705,-0.168518538,0,0,0,,0,106,106,61,1,ARTIST,LB,old,m,./images/ARTISTLB.png,,,,,,,,,,,,,,,,,,,,,,
,,,,,,,,,,,,,,,,,198832,19,2022-02-02_17h19.56.196,lexical_decision_task_DD_L5,2021.2.3,Win32,60.06006006,,,,,,,,,,,0.8686,1,,,,,,,,,,,,,,z,1,0.8686,,,,,,,,0.391666705,-0.168518538,0,0,0,,0,107,107,89,1,DRIEK,LB,old,z,./images/DRIEKLB.png,,,,,,,,,,,,,,,,,,,,,,
,,,,,,,,,,,,,,,,,198832,19,2022-02-02_17h19.56.196,lexical_decision_task_DD_L5,2021.2.3,Win32,60.06006006,,,,,,,,,,,0.684,1,,,,,,,,,,,,,,z,1,0.684,,,,,,,,0.391666705,-0.168518538,0,0,0,,0,108,108,137,1,JOOST,LB,old,z,./images/JOOSTLB.png,,,,,,,,,,,,,,,,,,,,,,
,,,,,,,,,,,,,,,,,198832,19,2022-02-02_17h19.56.196,lexical_decision_task_DD_L5,2021.2.3,Win32,60.06006006,,,,,,,,,,,0.6505,1,,,,,,,,,,,,,,m,1,0.6505,,,,,,,,0.391666705,-0.168518538,0,0,0,,0,109,109,38,1,ENGINE,C,old,m,./images/ENGINE.png,,,,,,,,,,,,,,,,,,,,,,
,,,,,,,,,,,,,,,,,198832,19,2022-02-02_17h19.56.196,lexical_decision_task_DD_L5,2021.2.3,Win32,60.06006006,,,,,,,,,,,1.0422,1,,,,,,,,,,,,,,m,1,1.0422,,,,,,,,0.391666705,-0.168518538,0,0,0,,0,110,110,52,1,DESERT,LB,old,m,./images/DESERTLB.png,,,,,,,,,,,,,,,,,,,,,,
,,,,,,,,,,,,,,,,,198832,19,2022-02-02_17h19.56.196,lexical_decision_task_DD_L5,2021.2.3,Win32,60.06006006,,,,,,,,,,,0.6862,1,,,,,,,,,,,,,,m,1,0.6862,,,,,,,,0.391666705,-0.168518538,0,0,0,,0,111,111,58,1,CANOE,LB,old,m,./images/CANOELB.png,,,,,,,,,,,,,,,,,,,,,,
,,,,,,,,,,,,,,,,,198832,19,2022-02-02_17h19.56.196,lexical_decision_task_DD_L5,2021.2.3,Win32,60.06006006,,,,,,,,,,,0.8738,0,,,,,,,,,,,,,,m,0,0.8738,,,,,,,,0.391666705,-0.168518538,0,0,0,,0,112,112,109,1,BURGE,HB,old,z,./images/BURGEHB.png,,,,,,,,,,,,,,,,,,,,,,
,,,,,,,,,,,,,,,,,198832,19,2022-02-02_17h19.56.196,lexical_decision_task_DD_L5,2021.2.3,Win32,60.06006006,,,,,,,,,,,0.6692,1,,,,,,,,,,,,,,m,1,0.6692,,,,,,,,0.391666705,-0.168518538,0,0,0,,0,113,113,25,1,CHALK,LB,old,m,./images/CHALKLB.png,,,,,,,,,,,,,,,,,,,,,,
,,,,,,,,,,,,,,,,,198832,19,2022-02-02_17h19.56.196,lexical_decision_task_DD_L5,2021.2.3,Win32,60.06006006,,,,,,,,,,,1.0083,0,,,,,,,,,,,,,,z,0,1.0083,,,,,,,,0.391666705,-0.168518538,0,0,0,,0,114,114,12,1,BLOKE,HB,old,m,./images/BLOKEHB.png,,,,,,,,,,,,,,,,,,,,,,
,,,,,,,,,,,,,,,,,198832,19,2022-02-02_17h19.56.196,lexical_decision_task_DD_L5,2021.2.3,Win32,60.06006006,,,,,,,,,,,1.029,1,,,,,,,,,,,,,,z,1,1.029,,,,,,,,0.391666705,-0.168518538,0,0,0,,0,115,115,128,1,GRIFT,LB,old,z,./images/GRIFTLB.png,,,,,,,,,,,,,,,,,,,,,,
,,,,,,,,,,,,,,,,,198832,19,2022-02-02_17h19.56.196,lexical_decision_task_DD_L5,2021.2.3,Win32,60.06006006,,,,,,,,,,,0.9504,0,,,,,,,,,,,,,,m,0,0.9504,,,,,,,,0.391666705,-0.168518538,0,0,0,,0,116,116,101,1,GLEET,LB,old,z,./images/GLEETLB.png,,,,,,,,,,,,,,,,,,,,,,
,,,,,,,,,,,,,,,,,198832,19,2022-02-02_17h19.56.196,lexical_decision_task_DD_L5,2021.2.3,Win32,60.06006006,,,,,,,,,,,0.6903,1,,,,,,,,,,,,,,m,1,0.6903,,,,,,,,0.391666705,-0.168518538,0,0,0,,0,117,117,31,1,STEAK,LB,old,m,./images/STEAKLB.png,,,,,,,,,,,,,,,,,,,,,,
,,,,,,,,,,,,,,,,,198832,19,2022-02-02_17h19.56.196,lexical_decision_task_DD_L5,2021.2.3,Win32,60.06006006,,,,,,,,,,,0.6546,1,,,,,,,,,,,,,,m,1,0.6546,,,,,,,,0.391666705,-0.168518538,0,0,0,,0,118,118,62,1,MAMMAL,C,old,m,./images/MAMMAL.png,,,,,,,,,,,,,,,,,,,,,,
,,,,,,,,,,,,,,,,,198832,19,2022-02-02_17h19.56.196,lexical_decision_task_DD_L5,2021.2.3,Win32,60.06006006,,,,,,,,,,,1.1009,1,,,,,,,,,,,,,,z,1,1.1009,,,,,,,,0.391666705,-0.168518538,0,0,0,,0,119,119,144,1,NAIRY,C,old,z,./images/NAIRY.png,,,,,,,,,,,,,,,,,,,,,,
,,,,,,,,,,,,,,,,,198832,19,2022-02-02_17h19.56.196,lexical_decision_task_DD_L5,2021.2.3,Win32,60.06006006,,,,,,,,,,,0.5701,1,,,,,,,,,,,,,,m,1,0.5701,,,,,,,,0.391666705,-0.168518538,0,0,0,,0,120,120,80,1,PLANET,C,old,m,./images/PLANET.png,,,,,,,,,,,,,,,,,,,,,,
,,,,,,,,,,,,,,,,,198832,19,2022-02-02_17h19.56.196,lexical_decision_task_DD_L5,2021.2.3,Win32,60.06006006,,,,,,,,,,,1.0447,1,,,,,,,,,,,,,,z,1,1.0447,,,,,,,,0.391666705,-0.168518538,0,0,0,,0,121,121,123,1,SEDGE,C,old,z,./images/SEDGE.png,,,,,,,,,,,,,,,,,,,,,,
,,,,,,,,,,,,,,,,,198832,19,2022-02-02_17h19.56.196,lexical_decision_task_DD_L5,2021.2.3,Win32,60.06006006,,,,,,,,,,,0.7672,1,,,,,,,,,,,,,,m,1,0.7672,,,,,,,,0.391666705,-0.168518538,0,0,0,,0,122,122,46,1,MUMMY,LB,old,m,./images/MUMMYLB.png,,,,,,,,,,,,,,,,,,,,,,
,,,,,,,,,,,,,,,,,198832,19,2022-02-02_17h19.56.196,lexical_decision_task_DD_L5,2021.2.3,Win32,60.06006006,,,,,,,,,,,0.5497,1,,,,,,,,,,,,,,m,1,0.5497,,,,,,,,0.391666705,-0.168518538,0,0,0,,0,123,123,77,1,WHEEL,C,old,m,./images/WHEEL.png,,,,,,,,,,,,,,,,,,,,,,
,,,,,,,,,,,,,,,,,198832,19,2022-02-02_17h19.56.196,lexical_decision_task_DD_L5,2021.2.3,Win32,60.06006006,,,,,,,,,,,0.8176,1,,,,,,,,,,,,,,z,1,0.8176,,,,,,,,0.391666705,-0.168518538,0,0,0,,0,124,124,153,1,CLUPS,C,old,z,./images/CLUPS.png,,,,,,,,,,,,,,,,,,,,,,
,,,,,,,,,,,,,,,,,198832,19,2022-02-02_17h19.56.196,lexical_decision_task_DD_L5,2021.2.3,Win32,60.06006006,,,,,,,,,,,0.9211,1,,,,,,,,,,,,,,z,1,0.9211,,,,,,,,0.391666705,-0.168518538,0,0,0,space,0,125,125,92,1,PAIMS,LB,old,z,./images/PAIMSLB.png,6.6172,,,,,,,,,,,,,,,,,,,,,
,,,,,,,,,,,,,,,,,198832,19,2022-02-02_17h19.56.196,lexical_decision_task_DD_L5,2021.2.3,Win32,60.06006006,,,,,,,,,,,1.0527,0,,,,,,,,,,,,,,z,0,1.0527,,,,,,,,0.391666705,-0.168518538,0,0,0,,0,126,126,56,1,HEATER,C,old,m,./images/HEATER.png,,,,,,,,,,,,,,,,,,,,,,
,,,,,,,,,,,,,,,,,198832,19,2022-02-02_17h19.56.196,lexical_decision_task_DD_L5,2021.2.3,Win32,60.06006006,,,,,,,,,,,0.9588,1,,,,,,,,,,,,,,z,1,0.9588,,,,,,,,0.391666705,-0.168518538,0,0,0,,0,127,127,167,1,ZONET,LB,old,z,./images/ZONETLB.png,,,,,,,,,,,,,,,,,,,,,,
,,,,,,,,,,,,,,,,,198832,19,2022-02-02_17h19.56.196,lexical_decision_task_DD_L5,2021.2.3,Win32,60.06006006,,,,,,,,,,,0.7451,1,,,,,,,,,,,,,,m,1,0.7451,,,,,,,,0.391666705,-0.168518538,0,0,0,,0,128,128,15,1,COLLAR,HB,old,m,./images/COLLARHB.png,,,,,,,,,,,,,,,,,,,,,,
,,,,,,,,,,,,,,,,,198832,19,2022-02-02_17h19.56.196,lexical_decision_task_DD_L5,2021.2.3,Win32,60.06006006,,,,,,,,,,,1.1026,1,,,,,,,,,,,,,,z,1,1.1026,,,,,,,,0.391666705,-0.168518538,0,0,0,,0,129,129,157,1,INLER,HB,old,z,./images/INLERHB.png,,,,,,,,,,,,,,,,,,,,,,
,,,,,,,,,,,,,,,,,198832,19,2022-02-02_17h19.56.196,lexical_decision_task_DD_L5,2021.2.3,Win32,60.06006006,,,,,,,,,,,1.1005,0,,,,,,,,,,,,,,m,0,1.1005,,,,,,,,0.391666705,-0.168518538,0,0,0,,0,130,130,141,1,PLEET,C,old,z,./images/PLEET.png,,,,,,,,,,,,,,,,,,,,,,
,,,,,,,,,,,,,,,,,198832,19,2022-02-02_17h19.56.196,lexical_decision_task_DD_L5,2021.2.3,Win32,60.06006006,,,,,,,,,,,0.7835,1,,,,,,,,,,,,,,m,1,0.7835,,,,,,,,0.391666705,-0.168518538,0,0,0,,0,131,131,34,1,RAZOR,LB,old,m,./images/RAZORLB.png,,,,,,,,,,,,,,,,,,,,,,
,,,,,,,,,,,,,,,,,198832,19,2022-02-02_17h19.56.196,lexical_decision_task_DD_L5,2021.2.3,Win32,60.06006006,,,,,,,,,,,0.6664,1,,,,,,,,,,,,,,m,1,0.6664,,,,,,,,0.391666705,-0.168518538,0,0,0,,0,132,132,43,1,STOOL,LB,old,m,./images/STOOLLB.png,,,,,,,,,,,,,,,,,,,,,,
,,,,,,,,,,,,,,,,,198832,19,2022-02-02_17h19.56.196,lexical_decision_task_DD_L5,2021.2.3,Win32,60.06006006,,,,,,,,,,,0.9025,1,,,,,,,,,,,,,,z,1,0.9025,,,,,,,,0.391666705,-0.168518538,0,0,0,,0,133,133,105,1,MOKER,C,old,z,./images/MOKER.png,,,,,,,,,,,,,,,,,,,,,,
,,,,,,,,,,,,,,,,,198832,19,2022-02-02_17h19.56.196,lexical_decision_task_DD_L5,2021.2.3,Win32,60.06006006,,,,,,,,,,,0.7946,1,,,,,,,,,,,,,,z,1,0.7946,,,,,,,,0.391666705,-0.168518538,0,0,0,,0,134,134,99,1,BACKY,C,old,z,./images/BACKY.png,,,,,,,,,,,,,,,,,,,,,,
,,,,,,,,,,,,,,,,,198832,19,2022-02-02_17h19.56.196,lexical_decision_task_DD_L5,2021.2.3,Win32,60.06006006,,,,,,,,,,,0.6546,1,,,,,,,,,,,,,,m,1,0.6546,,,,,,,,0.391666705,-0.168518538,0,0,0,,0,135,135,17,1,PARADE,C,old,m,./images/PARADE.png,,,,,,,,,,,,,,,,,,,,,,
,,,,,,,,,,,,,,,,,198832,19,2022-02-02_17h19.56.196,lexical_decision_task_DD_L5,2021.2.3,Win32,60.06006006,,,,,,,,,,,0.6499,1,,,,,,,,,,,,,,m,1,0.6499,,,,,,,,0.391666705,-0.168518538,0,0,0,,0,136,136,40,1,SNAKE,LB,old,m,./images/SNAKELB.png,,,,,,,,,,,,,,,,,,,,,,
,,,,,,,,,,,,,,,,,198832,19,2022-02-02_17h19.56.196,lexical_decision_task_DD_L5,2021.2.3,Win32,60.06006006,,,,,,,,,,,0.7836,1,,,,,,,,,,,,,,m,1,0.7836,,,,,,,,0.391666705,-0.168518538,0,0,0,,0,137,137,72,1,FLASK,HB,old,m,./images/FLASKHB.png,,,,,,,,,,,,,,,,,,,,,,
,,,,,,,,,,,,,,,,,198832,19,2022-02-02_17h19.56.196,lexical_decision_task_DD_L5,2021.2.3,Win32,60.06006006,,,,,,,,,,,0.7392,1,,,,,,,,,,,,,,z,1,0.7392,,,,,,,,0.391666705,-0.168518538,0,0,0,,0,138,138,93,1,SMONE,C,old,z,./images/SMONE.png,,,,,,,,,,,,,,,,,,,,,,
,,,,,,,,,,,,,,,,,198832,19,2022-02-02_17h19.56.196,lexical_decision_task_DD_L5,2021.2.3,Win32,60.06006006,,,,,,,,,,,0.7181,1,,,,,,,,,,,,,,m,1,0.7181,,,,,,,,0.391666705,-0.168518538,0,0,0,,0,139,139,4,1,BOXER,LB,old,m,./images/BOXERLB.png,,,,,,,,,,,,,,,,,,,,,,
,,,,,,,,,,,,,,,,,198832,19,2022-02-02_17h19.56.196,lexical_decision_task_DD_L5,2021.2.3,Win32,60.06006006,,,,,,,,,,,0.7995,1,,,,,,,,,,,,,,z,1,0.7995,,,,,,,,0.391666705,-0.168518538,0,0,0,,0,140,140,122,1,BLOOT,LB,old,z,./images/BLOOTLB.png,,,,,,,,,,,,,,,,,,,,,,
,,,,,,,,,,,,,,,,,198832,19,2022-02-02_17h19.56.196,lexical_decision_task_DD_L5,2021.2.3,Win32,60.06006006,,,,,,,,,,,0.9646,1,,,,,,,,,,,,,,z,1,0.9646,,,,,,,,0.391666705,-0.168518538,0,0,0,,0,141,141,129,1,PRANS,C,old,z,./images/PRANS.png,,,,,,,,,,,,,,,,,,,,,,
,,,,,,,,,,,,,,,,,198832,19,2022-02-02_17h19.56.196,lexical_decision_task_DD_L5,2021.2.3,Win32,60.06006006,,,,,,,,,,,1.0204,1,,,,,,,,,,,,,,m,1,1.0204,,,,,,,,0.391666705,-0.168518538,0,0,0,,0,142,142,9,1,DIVER,HB,old,m,./images/DIVERHB.png,,,,,,,,,,,,,,,,,,,,,,
,,,,,,,,,,,,,,,,,198832,19,2022-02-02_17h19.56.196,lexical_decision_task_DD_L5,2021.2.3,Win32,60.06006006,,,,,,,,,,,0.7001,1,,,,,,,,,,,,,,m,1,0.7001,,,,,,,,0.391666705,-0.168518538,0,0,0,,0,143,143,27,1,BUTTER,HB,old,m,./images/BUTTERHB.png,,,,,,,,,,,,,,,,,,,,,,
,,,,,,,,,,,,,,,,,198832,19,2022-02-02_17h19.56.196,lexical_decision_task_DD_L5,2021.2.3,Win32,60.06006006,,,,,,,,,,,1.2611,1,,,,,,,,,,,,,,z,1,1.2611,,,,,,,,0.391666705,-0.168518538,0,0,0,,0,144,144,100,1,DRIBS,HB,old,z,./images/DRIBSHB.png,,,,,,,,,,,,,,,,,,,,,,
,,,,,,,,,,,,,,,,,198832,19,2022-02-02_17h19.56.196,lexical_decision_task_DD_L5,2021.2.3,Win32,60.06006006,,,,,,,,,,,0.7844,1,,,,,,,,,,,,,,m,1,0.7844,,,,,,,,0.391666705,-0.168518538,0,0,0,,0,145,145,1,1,TOWEL,LB,old,m,./images/TOWELLB.png,,,,,,,,,,,,,,,,,,,,,,
,,,,,,,,,,,,,,,,,198832,19,2022-02-02_17h19.56.196,lexical_decision_task_DD_L5,2021.2.3,Win32,60.06006006,,,,,,,,,,,0.838,1,,,,,,,,,,,,,,m,1,0.838,,,,,,,,0.391666705,-0.168518538,0,0,0,,0,146,146,60,1,CURRY,HB,old,m,./images/CURRYHB.png,,,,,,,,,,,,,,,,,,,,,,
,,,,,,,,,,,,,,,,,198832,19,2022-02-02_17h19.56.196,lexical_decision_task_DD_L5,2021.2.3,Win32,60.06006006,,,,,,,,,,,0.6383,1,,,,,,,,,,,,,,m,1,0.6383,,,,,,,,0.391666705,-0.168518538,0,0,0,,0,147,147,74,1,JUMPER,C,old,m,./images/JUMPER.png,,,,,,,,,,,,,,,,,,,,,,
,,,,,,,,,,,,,,,,,198832,19,2022-02-02_17h19.56.196,lexical_decision_task_DD_L5,2021.2.3,Win32,60.06006006,,,,,,,,,,,0.6173,1,,,,,,,,,,,,,,m,1,0.6173,,,,,,,,0.391666705,-0.168518538,0,0,0,,0,148,148,64,1,BRIDE,LB,old,m,./images/BRIDELB.png,,,,,,,,,,,,,,,,,,,,,,
,,,,,,,,,,,,,,,,,198832,19,2022-02-02_17h19.56.196,lexical_decision_task_DD_L5,2021.2.3,Win32,60.06006006,,,,,,,,,,,0.6378,1,,,,,,,,,,,,,,m,1,0.6378,,,,,,,,0.391666705,-0.168518538,0,0,0,,0,149,149,0,1,WALNUT,HB,old,m,./images/WALNUTHB.png,,,,,,,,,,,,,,,,,,,,,,
,,,,,,,,,,,,,,,,,198832,19,2022-02-02_17h19.56.196,lexical_decision_task_DD_L5,2021.2.3,Win32,60.06006006,,,,,,,,,,,0.8049,1,,,,,,,,,,,,,,z,1,0.8049,,,,,,,,0.391666705,-0.168518538,0,0,0,,0,150,150,150,1,NOOLS,C,old,z,./images/NOOLS.png,,,,,,,,,,,,,,,,,,,,,,
,,,,,,,,,,,,,,,,,198832,19,2022-02-02_17h19.56.196,lexical_decision_task_DD_L5,2021.2.3,Win32,60.06006006,,,,,,,,,,,0.6855,1,,,,,,,,,,,,,,m,1,0.6855,,,,,,,,0.391666705,-0.168518538,0,0,0,,0,151,151,28,1,CASINO,LB,old,m,./images/CASINOLB.png,,,,,,,,,,,,,,,,,,,,,,
,,,,,,,,,,,,,,,,,198832,19,2022-02-02_17h19.56.196,lexical_decision_task_DD_L5,2021.2.3,Win32,60.06006006,,,,,,,,,,,0.7521,1,,,,,,,,,,,,,,z,1,0.7521,,,,,,,,0.391666705,-0.168518538,0,0,0,,0,152,152,96,1,KEAMS,C,old,z,./images/KEAMS.png,,,,,,,,,,,,,,,,,,,,,,
,,,,,,,,,,,,,,,,,198832,19,2022-02-02_17h19.56.196,lexical_decision_task_DD_L5,2021.2.3,Win32,60.06006006,,,,,,,,,,,1.0553,1,,,,,,,,,,,,,,z,1,1.0553,,,,,,,,0.391666705,-0.168518538,0,0,0,,0,153,153,112,1,MYING,HB,old,z,./images/MYINGHB.png,,,,,,,,,,,,,,,,,,,,,,
,,,,,,,,,,,,,,,,,198832,19,2022-02-02_17h19.56.196,lexical_decision_task_DD_L5,2021.2.3,Win32,60.06006006,,,,,,,,,,,0.8672,1,,,,,,,,,,,,,,z,1,0.8672,,,,,,,,0.391666705,-0.168518538,0,0,0,,0,154,154,164,1,SGREW,LB,old,z,./images/SGREWLB.png,,,,,,,,,,,,,,,,,,,,,,
,,,,,,,,,,,,,,,,,198832,19,2022-02-02_17h19.56.196,lexical_decision_task_DD_L5,2021.2.3,Win32,60.06006006,,,,,,,,,,,0.8174,1,,,,,,,,,,,,,,m,1,0.8174,,,,,,,,0.391666705,-0.168518538,0,0,0,,0,155,155,68,1,VALLEY,C,old,m,./images/VALLEY.png,,,,,,,,,,,,,,,,,,,,,,
,,,,,,,,,,,,,,,,,198832,19,2022-02-02_17h19.56.196,lexical_decision_task_DD_L5,2021.2.3,Win32,60.06006006,,,,,,,,,,,0.6916,1,,,,,,,,,,,,,,m,1,0.6916,,,,,,,,0.391666705,-0.168518538,0,0,0,,0,156,156,2,1,STOVE,C,old,m,./images/STOVE.png,,,,,,,,,,,,,,,,,,,,,,
,,,,,,,,,,,,,,,,,198832,19,2022-02-02_17h19.56.196,lexical_decision_task_DD_L5,2021.2.3,Win32,60.06006006,,,,,,,,,,,1.0854,1,,,,,,,,,,,,,,z,1,1.0854,,,,,,,,0.391666705,-0.168518538,0,0,0,,0,157,157,115,1,MAWNS,HB,old,z,./images/MAWNSHB.png,,,,,,,,,,,,,,,,,,,,,,
,,,,,,,,,,,,,,,,,198832,19,2022-02-02_17h19.56.196,lexical_decision_task_DD_L5,2021.2.3,Win32,60.06006006,,,,,,,,,,,1.0906,0,,,,,,,,,,,,,,m,0,1.0906,,,,,,,,0.391666705,-0.168518538,0,0,0,,0,158,158,110,1,CRUNK,LB,old,z,./images/CRUNKLB.png,,,,,,,,,,,,,,,,,,,,,,
,,,,,,,,,,,,,,,,,198832,19,2022-02-02_17h19.56.196,lexical_decision_task_DD_L5,2021.2.3,Win32,60.06006006,,,,,,,,,,,0.7625,1,,,,,,,,,,,,,,m,1,0.7625,,,,,,,,0.391666705,-0.168518538,0,0,0,,0,159,159,14,1,FENCE,C,old,m,./images/FENCE.png,,,,,,,,,,,,,,,,,,,,,,
,,,,,,,,,,,,,,,,,198832,19,2022-02-02_17h19.56.196,lexical_decision_task_DD_L5,2021.2.3,Win32,60.06006006,,,,,,,,,,,0.9507,1,,,,,,,,,,,,,,z,1,0.9507,,,,,,,,0.391666705,-0.168518538,0,0,0,,0,160,160,91,1,SHENS,HB,old,z,./images/SHENSHB.png,,,,,,,,,,,,,,,,,,,,,,
,,,,,,,,,,,,,,,,,198832,19,2022-02-02_17h19.56.196,lexical_decision_task_DD_L5,2021.2.3,Win32,60.06006006,,,,,,,,,,,1.1225,1,,,,,,,,,,,,,,z,1,1.1225,,,,,,,,0.391666705,-0.168518538,0,0,0,,0,161,161,166,1,SHORY,HB,old,z,./images/SHORYHB.png,,,,,,,,,,,,,,,,,,,,,,
,,,,,,,,,,,,,,,,,198832,19,2022-02-02_17h19.56.196,lexical_decision_task_DD_L5,2021.2.3,Win32,60.06006006,,,,,,,,,,,0.8394,1,,,,,,,,,,,,,,z,1,0.8394,,,,,,,,0.391666705,-0.168518538,0,0,0,,0,162,162,135,1,JOODY,C,old,z,./images/JOODY.png,,,,,,,,,,,,,,,,,,,,,,
,,,,,,,,,,,,,,,,,198832,19,2022-02-02_17h19.56.196,lexical_decision_task_DD_L5,2021.2.3,Win32,60.06006006,,,,,,,,,,,0.9836,1,,,,,,,,,,,,,,z,1,0.9836,,,,,,,,0.391666705,-0.168518538,0,0,0,,0,163,163,90,1,NEAST,C,old,z,./images/NEAST.png,,,,,,,,,,,,,,,,,,,,,,
,,,,,,,,,,,,,,,,,198832,19,2022-02-02_17h19.56.196,lexical_decision_task_DD_L5,2021.2.3,Win32,60.06006006,,,,,,,,,,,0.7029,1,,,,,,,,,,,,,,m,1,0.7029,,,,,,,,0.391666705,-0.168518538,0,0,0,,0,164,164,41,1,STREAM,C,old,m,./images/STREAM.png,,,,,,,,,,,,,,,,,,,,,,
,,,,,,,,,,,,,,,,,198832,19,2022-02-02_17h19.56.196,lexical_decision_task_DD_L5,2021.2.3,Win32,60.06006006,,,,,,,,,,,0.6887,1,,,,,,,,,,,,,,m,1,0.6887,,,,,,,,0.391666705,-0.168518538,0,0,0,,0,165,165,26,1,CLOUD,C,old,m,./images/CLOUD.png,,,,,,,,,,,,,,,,,,,,,,
,,,,,,,,,,,,,,,,,198832,19,2022-02-02_17h19.56.196,lexical_decision_task_DD_L5,2021.2.3,Win32,60.06006006,,,,,,,,,,,1.2677,1,,,,,,,,,,,,,,z,1,1.2677,,,,,,,,0.391666705,-0.168518538,0,0,0,,0,166,166,87,1,TRING,C,old,z,./images/TRING.png,,,,,,,,,,,,,,,,,,,,,,
,,,,,,,,,,,,,,,,,198832,19,2022-02-02_17h19.56.196,lexical_decision_task_DD_L5,2021.2.3,Win32,60.06006006,,,,,,,,,,,0.8784,1,,,,,,,,,,,,,,m,1,0.8784,,,,,,,,0.391666705,-0.168518538,0,0,0,,0,167,167,81,1,DRILL,HB,old,m,./images/DRILLHB.png,,,,,,,,,,,,,,,,,,,,,,
space,13.9595,0.391666705,-0.168518538,0,0,0,,,,,,1,test,"In the next phase you will be presented with the words from the the first phase. Your job is to decide whether you remember seeing the word or not. If you remember seeing the word press ""old"" or type ""m"". If you do not remember seeing the word press ""new"" or type ""z"". Please press the space bar or click on continue to begin. ",,,198832,19,2022-02-02_17h19.56.196,lexical_decision_task_DD_L5,2021.2.3,Win32,60.06006006,,,,,,,,,,,,,,,,,,,,,,,,,,,,,,,,,,,,,,,,,,,,,,,,,,,,,0,0,0,0,1,,,,,,,,,,,,,,,,
space,2.9762,0.391666705,-0.168518538,0,0,0,,,,,,1,test,"In the next phase you will be presented with the words from the the first phase. Your job is to decide whether you remember seeing the word or not. If you remember seeing the word press ""old"" or type ""m"". If you do not remember seeing the word press ""new"" or type ""z"". Please press the space bar or click on continue to begin. ",,,198832,19,2022-02-02_17h19.56.196,lexical_decision_task_DD_L5,2021.2.3,Win32,60.06006006,,,,,,,,,,,,,,,,,,,,,,,,,,,,,,,,,,,,,,,,,,,,,,,,,,,,,1,0,1,0,1,,,,,,,,,,,,,,,,
space,2.2337,0.022222249,-0.135185204,0,0,0,,,,,,1,test,"In the next phase you will be presented with the words from the the first phase. Your job is to decide whether you remember seeing the word or not. If you remember seeing the word press ""old"" or type ""m"". If you do not remember seeing the word press ""new"" or type ""z"". Please press the space bar or click on continue to begin. ",,,198832,19,2022-02-02_17h19.56.196,lexical_decision_task_DD_L5,2021.2.3,Win32,60.06006006,,,,,,,,,,,,,,,,,,,,,,,,,,,,,,,,,,,,,,,,,,,,,,,,,,,,,2,0,2,0,1,,,,,,,,,,,,,,,,
space,1.7007,0.022222249,-0.135185204,0,0,0,,,,,,1,test,"In the next phase you will be presented with the words from the the first phase. Your job is to decide whether you remember seeing the word or not. If you remember seeing the word press ""old"" or type ""m"". If you do not remember seeing the word press ""new"" or type ""z"". Please press the space bar or click on continue to begin. ",,,198832,19,2022-02-02_17h19.56.196,lexical_decision_task_DD_L5,2021.2.3,Win32,60.06006006,,,,,,,,,,,,,,,,,,,,,,,,,,,,,,,,,,,,,,,,,,,,,,,,,,,,,3,0,3,0,1,,,,,,,,,,,,,,,,
,,-0.088888865,-0.377777804,1,0,0,,,,,,1,test,"In the next phase you will be presented with the words from the the first phase. Your job is to decide whether you remember seeing the word or not. If you remember seeing the word press ""old"" or type ""m"". If you do not remember seeing the word press ""new"" or type ""z"". Please press the space bar or click on continue to begin. ",,,198832,19,2022-02-02_17h19.56.196,lexical_decision_task_DD_L5,2021.2.3,Win32,60.06006006,,,,,,,,,,,,,,,,,,,,,,,,,,,,,,,,,,,,,,,,,,,,,,,,,,,,,4,0,4,0,1,instr_done_button,,,,,,,,,,,,,,,
,,,,,,,,,,,,,,,,,198832,19,2022-02-02_17h19.56.196,lexical_decision_task_DD_L5,2021.2.3,Win32,60.06006006,,,,,,,,,,,1.0766,1,,,,,,,,,,,,,,,,,,,,,,,,-0.088888865,-0.377777804,0,0,0,,,,,,,PARCEL,HB,m,y,./images/PARCELHB.png,,,,,,,,m,1,1.0766,,,,,,,,0,0,0,18,1
,,,,,,,,,,,,,,,,,198832,19,2022-02-02_17h19.56.196,lexical_decision_task_DD_L5,2021.2.3,Win32,60.06006006,,,,,,,,,,,0.7812,1,,,,,,,,,,,,,,,,,,,,,,,,-0.088888865,-0.377777804,0,0,0,,,,,,,CHERRY,HB,m,y,./images/CHERRYHB.png,,,,,,,,m,1,0.7812,,,,,,,,0,1,1,54,1
,,,,,,,,,,,,,,,,,198832,19,2022-02-02_17h19.56.196,lexical_decision_task_DD_L5,2021.2.3,Win32,60.06006006,,,,,,,,,,,0.8478,1,,,,,,,,,,,,,,,,,,,,,,,,-0.088888865,-0.377777804,0,0,0,,,,,,,PEACH,C,z,y,./images/PEACH.png,,,,,,,,z,1,0.8478,,,,,,,,0,2,2,119,1
,,,,,,,,,,,,,,,,,198832,19,2022-02-02_17h19.56.196,lexical_decision_task_DD_L5,2021.2.3,Win32,60.06006006,,,,,,,,,,,1.0283,1,,,,,,,,,,,,,,,,,,,,,,,,-0.088888865,-0.377777804,0,0,0,,,,,,,TULIP,C,z,y,./images/TULIP.png,,,,,,,,z,1,1.0283,,,,,,,,0,3,3,92,1
,,,,,,,,,,,,,,,,,198832,19,2022-02-02_17h19.56.196,lexical_decision_task_DD_L5,2021.2.3,Win32,60.06006006,,,,,,,,,,,0.816,1,,,,,,,,,,,,,,,,,,,,,,,,-0.088888865,-0.377777804,0,0,0,,,,,,,ATTIC,HB,z,y,./images/ATTICHB.png,,,,,,,,z,1,0.816,,,,,,,,0,4,4,111,1
,,,,,,,,,,,,,,,,,198832,19,2022-02-02_17h19.56.196,lexical_decision_task_DD_L5,2021.2.3,Win32,60.06006006,,,,,,,,,,,0.8643,1,,,,,,,,,,,,,,,,,,,,,,,,-0.088888865,-0.377777804,0,0,0,,,,,,,WRIST,LB,z,y,./images/WRISTLB.png,,,,,,,,z,1,0.8643,,,,,,,,0,5,5,109,1
,,,,,,,,,,,,,,,,,198832,19,2022-02-02_17h19.56.196,lexical_decision_task_DD_L5,2021.2.3,Win32,60.06006006,,,,,,,,,,,0.6888,1,,,,,,,,,,,,,,,,,,,,,,,,-0.088888865,-0.377777804,0,0,0,,,,,,,ENGINE,C,m,y,./images/ENGINE.png,,,,,,,,m,1,0.6888,,,,,,,,0,6,6,38,1
,,,,,,,,,,,,,,,,,198832,19,2022-02-02_17h19.56.196,lexical_decision_task_DD_L5,2021.2.3,Win32,60.06006006,,,,,,,,,,,0.687,0,,,,,,,,,,,,,,,,,,,,,,,,-0.088888865,-0.377777804,0,0,0,,,,,,,LADDER,C,z,y,./images/LADDER.png,,,,,,,,m,0,0.687,,,,,,,,0,7,7,122,1
,,,,,,,,,,,,,,,,,198832,19,2022-02-02_17h19.56.196,lexical_decision_task_DD_L5,2021.2.3,Win32,60.06006006,,,,,,,,,,,0.6063,1,,,,,,,,,,,,,,,,,,,,,,,,-0.088888865,-0.377777804,0,0,0,,,,,,,PEBBLE,LB,m,y,./images/PEBBLELB.png,,,,,,,,m,1,0.6063,,,,,,,,0,8,8,82,1
,,,,,,,,,,,,,,,,,198832,19,2022-02-02_17h19.56.196,lexical_decision_task_DD_L5,2021.2.3,Win32,60.06006006,,,,,,,,,,,1.9669,0,,,,,,,,,,,,,,,,,,,,,,,,-0.088888865,-0.377777804,0,0,0,,,,,,,SKIING,C,z,y,./images/SKIING.png,,,,,,,,m,0,1.9669,,,,,,,,0,9,9,101,1
,,,,,,,,,,,,,,,,,198832,19,2022-02-02_17h19.56.196,lexical_decision_task_DD_L5,2021.2.3,Win32,60.06006006,,,,,,,,,,,0.8209,0,,,,,,,,,,,,,,,,,,,,,,,,-0.088888865,-0.377777804,0,0,0,,,,,,,CARPET,C,z,y,./images/CARPET.png,,,,,,,,m,0,0.8209,,,,,,,,0,10,10,137,1
,,,,,,,,,,,,,,,,,198832,19,2022-02-02_17h19.56.196,lexical_decision_task_DD_L5,2021.2.3,Win32,60.06006006,,,,,,,,,,,0.7544,1,,,,,,,,,,,,,,,,,,,,,,,,-0.088888865,-0.377777804,0,0,0,,,,,,,STATUE,HB,m,y,./images/STATUEHB.png,,,,,,,,m,1,0.7544,,,,,,,,0,11,11,66,1
,,,,,,,,,,,,,,,,,198832,19,2022-02-02_17h19.56.196,lexical_decision_task_DD_L5,2021.2.3,Win32,60.06006006,,,,,,,,,,,0.6031,1,,,,,,,,,,,,,,,,,,,,,,,,-0.088888865,-0.377777804,0,0,0,,,,,,,PLANET,C,m,y,./images/PLANET.png,,,,,,,,m,1,0.6031,,,,,,,,0,12,12,80,1
,,,,,,,,,,,,,,,,,198832,19,2022-02-02_17h19.56.196,lexical_decision_task_DD_L5,2021.2.3,Win32,60.06006006,,,,,,,,,,,0.8363,1,,,,,,,,,,,,,,,,,,,,,,,,-0.088888865,-0.377777804,0,0,0,,,,,,,PACKET,C,z,y,./images/PACKET.png,,,,,,,,z,1,0.8363,,,,,,,,0,13,13,140,1
,,,,,,,,,,,,,,,,,198832,19,2022-02-02_17h19.56.196,lexical_decision_task_DD_L5,2021.2.3,Win32,60.06006006,,,,,,,,,,,0.692,1,,,,,,,,,,,,,,,,,,,,,,,,-0.088888865,-0.377777804,0,0,0,,,,,,,SLOPE,HB,m,y,./images/SLOPEHB.png,,,,,,,,m,1,0.692,,,,,,,,0,14,14,30,1
,,,,,,,,,,,,,,,,,198832,19,2022-02-02_17h19.56.196,lexical_decision_task_DD_L5,2021.2.3,Win32,60.06006006,,,,,,,,,,,0.9291,0,,,,,,,,,,,,,,,,,,,,,,,,-0.088888865,-0.377777804,0,0,0,,,,,,,BOXER,LB,m,y,./images/BOXERLB.png,,,,,,,,z,0,0.9291,,,,,,,,0,15,15,4,1
,,,,,,,,,,,,,,,,,198832,19,2022-02-02_17h19.56.196,lexical_decision_task_DD_L5,2021.2.3,Win32,60.06006006,,,,,,,,,,,1.6221,0,,,,,,,,,,,,,,,,,,,,,,,,-0.088888865,-0.377777804,0,0,0,,,,,,,SHORE,HB,z,y,./images/SHOREHB.png,,,,,,,,m,0,1.6221,,,,,,,,0,16,16,96,1
,,,,,,,,,,,,,,,,,198832,19,2022-02-02_17h19.56.196,lexical_decision_task_DD_L5,2021.2.3,Win32,60.06006006,,,,,,,,,,,0.8406,1,,,,,,,,,,,,,,,,,,,,,,,,-0.088888865,-0.377777804,0,0,0,,,,,,,SAUCE,HB,m,y,./images/SAUCEHB.png,,,,,,,,m,1,0.8406,,,,,,,,0,17,17,51,1
,,,,,,,,,,,,,,,,,198832,19,2022-02-02_17h19.56.196,lexical_decision_task_DD_L5,2021.2.3,Win32,60.06006006,,,,,,,,,,,1.5882,1,,,,,,,,,,,,,,,,,,,,,,,,-0.088888865,-0.377777804,0,0,0,,,,,,,RHINO,HB,z,y,./images/RHINOHB.png,,,,,,,,z,1,1.5882,,,,,,,,0,18,18,93,1
,,,,,,,,,,,,,,,,,198832,19,2022-02-02_17h19.56.196,lexical_decision_task_DD_L5,2021.2.3,Win32,60.06006006,,,,,,,,,,,0.8977,1,,,,,,,,,,,,,,,,,,,,,,,,-0.088888865,-0.377777804,0,0,0,,,,,,,TOMATO,HB,z,y,./images/TOMATOHB.png,,,,,,,,z,1,0.8977,,,,,,,,0,19,19,84,1
,,,,,,,,,,,,,,,,,198832,19,2022-02-02_17h19.56.196,lexical_decision_task_DD_L5,2021.2.3,Win32,60.06006006,,,,,,,,,,,0.7816,1,,,,,,,,,,,,,,,,,,,,,,,,-0.088888865,-0.377777804,0,0,0,,,,,,,RULER,LB,m,y,./images/RULERLB.png,,,,,,,,m,1,0.7816,,,,,,,,0,20,20,79,1
,,,,,,,,,,,,,,,,,198832,19,2022-02-02_17h19.56.196,lexical_decision_task_DD_L5,2021.2.3,Win32,60.06006006,,,,,,,,,,,0.8021,1,,,,,,,,,,,,,,,,,,,,,,,,-0.088888865,-0.377777804,0,0,0,,,,,,,DRUMS,LB,z,y,./images/DRUMSLB.png,,,,,,,,z,1,0.8021,,,,,,,,0,21,21,133,1
,,,,,,,,,,,,,,,,,198832,19,2022-02-02_17h19.56.196,lexical_decision_task_DD_L5,2021.2.3,Win32,60.06006006,,,,,,,,,,,1.4374,0,,,,,,,,,,,,,,,,,,,,,,,,-0.088888865,-0.377777804,0,0,0,,,,,,,MAGGOT,HB,z,y,./images/MAGGOTHB.png,,,,,,,,m,0,1.4374,,,,,,,,0,22,22,117,1
,,,,,,,,,,,,,,,,,198832,19,2022-02-02_17h19.56.196,lexical_decision_task_DD_L5,2021.2.3,Win32,60.06006006,,,,,,,,,,,1.1033,0,,,,,,,,,,,,,,,,,,,,,,,,-0.088888865,-0.377777804,0,0,0,,,,,,,BUBBLE,C,m,y,./images/BUBBLE.png,,,,,,,,z,0,1.1033,,,,,,,,0,23,23,71,1
,,,,,,,,,,,,,,,,,198832,19,2022-02-02_17h19.56.196,lexical_decision_task_DD_L5,2021.2.3,Win32,60.06006006,,,,,,,,,,,0.8316,1,,,,,,,,,,,,,,,,,,,,,,,,-0.088888865,-0.377777804,0,0,0,,,,,,,CHAIN,HB,m,y,./images/CHAINHB.png,,,,,,,,m,1,0.8316,,,,,,,,0,24,24,42,1
,,,,,,,,,,,,,,,,,198832,19,2022-02-02_17h19.56.196,lexical_decision_task_DD_L5,2021.2.3,Win32,60.06006006,,,,,,,,,,,0.6568,1,,,,,,,,,,,,,,,,,,,,,,,,-0.088888865,-0.377777804,0,0,0,,,,,,,CLOUD,C,m,y,./images/CLOUD.png,,,,,,,,m,1,0.6568,,,,,,,,0,25,25,26,1
,,,,,,,,,,,,,,,,,198832,19,2022-02-02_17h19.56.196,lexical_decision_task_DD_L5,2021.2.3,Win32,60.06006006,,,,,,,,,,,0.7424,1,,,,,,,,,,,,,,,,,,,,,,,,-0.088888865,-0.377777804,0,0,0,,,,,,,BUTTER,HB,m,y,./images/BUTTERHB.png,,,,,,,,m,1,0.7424,,,,,,,,0,26,26,27,1
,,,,,,,,,,,,,,,,,198832,19,2022-02-02_17h19.56.196,lexical_decision_task_DD_L5,2021.2.3,Win32,60.06006006,,,,,,,,,,,0.5799,1,,,,,,,,,,,,,,,,,,,,,,,,-0.088888865,-0.377777804,0,0,0,,,,,,,ARTIST,LB,m,y,./images/ARTISTLB.png,,,,,,,,m,1,0.5799,,,,,,,,0,27,27,61,1
,,,,,,,,,,,,,,,,,198832,19,2022-02-02_17h19.56.196,lexical_decision_task_DD_L5,2021.2.3,Win32,60.06006006,,,,,,,,,,,1.1798,0,,,,,,,,,,,,,,,,,,,,,,,,-0.088888865,-0.377777804,0,0,0,,,,,,,CRADLE,C,z,y,./images/CRADLE.png,,,,,,,,m,0,1.1798,,,,,,,,0,28,28,104,1
,,,,,,,,,,,,,,,,,198832,19,2022-02-02_17h19.56.196,lexical_decision_task_DD_L5,2021.2.3,Win32,60.06006006,,,,,,,,,,,2.3053,0,,,,,,,,,,,,,,,,,,,,,,,,-0.088888865,-0.377777804,0,0,0,,,,,,,JUNGLE,C,z,y,./images/JUNGLE.png,,,,,,,,m,0,2.3053,,,,,,,,0,29,29,167,1
,,,,,,,,,,,,,,,,,198832,19,2022-02-02_17h19.56.196,lexical_decision_task_DD_L5,2021.2.3,Win32,60.06006006,,,,,,,,,,,0.7219,1,,,,,,,,,,,,,,,,,,,,,,,,-0.088888865,-0.377777804,0,0,0,,,,,,,LAGOON,C,m,y,./images/LAGOON.png,,,,,,,,m,1,0.7219,,,,,,,,0,30,30,47,1
,,,,,,,,,,,,,,,,,198832,19,2022-02-02_17h19.56.196,lexical_decision_task_DD_L5,2021.2.3,Win32,60.06006006,,,,,,,,,,,0.8476,1,,,,,,,,,,,,,,,,,,,,,,,,-0.088888865,-0.377777804,0,0,0,,,,,,,THROAT,HB,z,y,./images/THROATHB.png,,,,,,,,z,1,0.8476,,,,,,,,0,31,31,120,1
,,,,,,,,,,,,,,,,,198832,19,2022-02-02_17h19.56.196,lexical_decision_task_DD_L5,2021.2.3,Win32,60.06006006,,,,,,,,,,,0.9493,1,,,,,,,,,,,,,,,,,,,,,,,,-0.088888865,-0.377777804,0,0,0,,,,,,,SUNSET,LB,z,y,./images/SUNSETLB.png,,,,,,,,z,1,0.9493,,,,,,,,0,32,32,166,1
,,,,,,,,,,,,,,,,,198832,19,2022-02-02_17h19.56.196,lexical_decision_task_DD_L5,2021.2.3,Win32,60.06006006,,,,,,,,,,,0.7882,1,,,,,,,,,,,,,,,,,,,,,,,,-0.088888865,-0.377777804,0,0,0,,,,,,,TWINS,HB,z,y,./images/TWINSHB.png,,,,,,,,z,1,0.7882,,,,,,,,0,33,33,144,1
,,,,,,,,,,,,,,,,,198832,19,2022-02-02_17h19.56.196,lexical_decision_task_DD_L5,2021.2.3,Win32,60.06006006,,,,,,,,,,,0.7407,1,,,,,,,,,,,,,,,,,,,,,,,,-0.088888865,-0.377777804,0,0,0,,,,,,,WALNUT,HB,m,y,./images/WALNUTHB.png,,,,,,,,m,1,0.7407,,,,,,,,0,34,34,0,1
,,,,,,,,,,,,,,,,,198832,19,2022-02-02_17h19.56.196,lexical_decision_task_DD_L5,2021.2.3,Win32,60.06006006,,,,,,,,,,,0.7503,1,,,,,,,,,,,,,,,,,,,,,,,,-0.088888865,-0.377777804,0,0,0,,,,,,,HAMMER,HB,m,y,./images/HAMMERHB.png,,,,,,,,m,1,0.7503,,,,,,,,0,35,35,75,1
,,,,,,,,,,,,,,,,,198832,19,2022-02-02_17h19.56.196,lexical_decision_task_DD_L5,2021.2.3,Win32,60.06006006,,,,,,,,,,,0.7172,1,,,,,,,,,,,,,,,,,,,,,,,,-0.088888865,-0.377777804,0,0,0,,,,,,,BAKER,HB,m,y,./images/BAKERHB.png,,,,,,,,m,1,0.7172,,,,,,,,0,36,36,63,1
,,,,,,,,,,,,,,,,,198832,19,2022-02-02_17h19.56.196,lexical_decision_task_DD_L5,2021.2.3,Win32,60.06006006,,,,,,,,,,,0.9743,1,,,,,,,,,,,,,,,,,,,,,,,,-0.088888865,-0.377777804,0,0,0,,,,,,,PIMPLE,C,z,y,./images/PIMPLE.png,,,,,,,,z,1,0.9743,,,,,,,,0,37,37,155,1
,,,,,,,,,,,,,,,,,198832,19,2022-02-02_17h19.56.196,lexical_decision_task_DD_L5,2021.2.3,Win32,60.06006006,,,,,,,,,,,0.7006,1,,,,,,,,,,,,,,,,,,,,,,,,-0.088888865,-0.377777804,0,0,0,,,,,,,FENCE,C,m,y,./images/FENCE.png,,,,,,,,m,1,0.7006,,,,,,,,0,38,38,14,1
,,,,,,,,,,,,,,,,,198832,19,2022-02-02_17h19.56.196,lexical_decision_task_DD_L5,2021.2.3,Win32,60.06006006,,,,,,,,,,,0.669,1,,,,,,,,,,,,,,,,,,,,,,,,-0.088888865,-0.377777804,0,0,0,,,,,,,GRANNY,C,m,y,./images/GRANNY.png,,,,,,,,m,1,0.669,,,,,,,,0,39,39,20,1
,,,,,,,,,,,,,,,,,198832,19,2022-02-02_17h19.56.196,lexical_decision_task_DD_L5,2021.2.3,Win32,60.06006006,,,,,,,,,,,0.9439,0,,,,,,,,,,,,,,,,,,,,,,,,-0.088888865,-0.377777804,0,0,0,,,,,,,BONNET,C,z,y,./images/BONNET.png,,,,,,,,m,0,0.9439,,,,,,,,0,40,40,95,1
,,,,,,,,,,,,,,,,,198832,19,2022-02-02_17h19.56.196,lexical_decision_task_DD_L5,2021.2.3,Win32,60.06006006,,,,,,,,,,,0.8546,0,,,,,,,,,,,,,,,,,,,,,,,,-0.088888865,-0.377777804,0,0,0,space,,,,,,CRUMB,C,z,y,./images/CRUMB.png,78.843,,,,,,,m,0,0.8546,,,,,,,,0,41,41,113,1
,,,,,,,,,,,,,,,,,198832,19,2022-02-02_17h19.56.196,lexical_decision_task_DD_L5,2021.2.3,Win32,60.06006006,,,,,,,,,,,0.9076,1,,,,,,,,,,,,,,,,,,,,,,,,-0.088888865,-0.377777804,0,0,0,,,,,,,BISHOP,LB,m,y,./images/BISHOPLB.png,,,,,,,,m,1,0.9076,,,,,,,,0,42,42,49,1
,,,,,,,,,,,,,,,,,198832,19,2022-02-02_17h19.56.196,lexical_decision_task_DD_L5,2021.2.3,Win32,60.06006006,,,,,,,,,,,0.934,1,,,,,,,,,,,,,,,,,,,,,,,,-0.088888865,-0.377777804,0,0,0,,,,,,,MELON,LB,z,y,./images/MELONLB.png,,,,,,,,z,1,0.934,,,,,,,,0,43,43,106,1
,,,,,,,,,,,,,,,,,198832,19,2022-02-02_17h19.56.196,lexical_decision_task_DD_L5,2021.2.3,Win32,60.06006006,,,,,,,,,,,0.8193,1,,,,,,,,,,,,,,,,,,,,,,,,-0.088888865,-0.377777804,0,0,0,,,,,,,DOUGH,LB,z,y,./images/DOUGHLB.png,,,,,,,,z,1,0.8193,,,,,,,,0,44,44,103,1
,,,,,,,,,,,,,,,,,198832,19,2022-02-02_17h19.56.196,lexical_decision_task_DD_L5,2021.2.3,Win32,60.06006006,,,,,,,,,,,1.1493,1,,,,,,,,,,,,,,,,,,,,,,,,-0.088888865,-0.377777804,0,0,0,,,,,,,PEARL,LB,z,y,./images/PEARLLB.png,,,,,,,,z,1,1.1493,,,,,,,,0,45,45,130,1
,,,,,,,,,,,,,,,,,198832,19,2022-02-02_17h19.56.196,lexical_decision_task_DD_L5,2021.2.3,Win32,60.06006006,,,,,,,,,,,0.7167,1,,,,,,,,,,,,,,,,,,,,,,,,-0.088888865,-0.377777804,0,0,0,,,,,,,POSTER,C,m,y,./images/POSTER.png,,,,,,,,m,1,0.7167,,,,,,,,0,46,46,53,1
,,,,,,,,,,,,,,,,,198832,19,2022-02-02_17h19.56.196,lexical_decision_task_DD_L5,2021.2.3,Win32,60.06006006,,,,,,,,,,,0.6383,1,,,,,,,,,,,,,,,,,,,,,,,,-0.088888865,-0.377777804,0,0,0,,,,,,,CHALK,LB,m,y,./images/CHALKLB.png,,,,,,,,m,1,0.6383,,,,,,,,0,47,47,25,1
,,,,,,,,,,,,,,,,,198832,19,2022-02-02_17h19.56.196,lexical_decision_task_DD_L5,2021.2.3,Win32,60.06006006,,,,,,,,,,,0.7175,1,,,,,,,,,,,,,,,,,,,,,,,,-0.088888865,-0.377777804,0,0,0,,,,,,,JELLY,LB,z,y,./images/JELLYLB.png,,,,,,,,z,1,0.7175,,,,,,,,0,48,48,148,1
,,,,,,,,,,,,,,,,,198832,19,2022-02-02_17h19.56.196,lexical_decision_task_DD_L5,2021.2.3,Win32,60.06006006,,,,,,,,,,,0.7252,1,,,,,,,,,,,,,,,,,,,,,,,,-0.088888865,-0.377777804,0,0,0,,,,,,,BERRY,C,z,y,./images/BERRY.png,,,,,,,,z,1,0.7252,,,,,,,,0,49,49,131,1
,,,,,,,,,,,,,,,,,198832,19,2022-02-02_17h19.56.196,lexical_decision_task_DD_L5,2021.2.3,Win32,60.06006006,,,,,,,,,,,0.7877,1,,,,,,,,,,,,,,,,,,,,,,,,-0.088888865,-0.377777804,0,0,0,,,,,,,DIVER,HB,m,y,./images/DIVERHB.png,,,,,,,,m,1,0.7877,,,,,,,,0,50,50,9,1
,,,,,,,,,,,,,,,,,198832,19,2022-02-02_17h19.56.196,lexical_decision_task_DD_L5,2021.2.3,Win32,60.06006006,,,,,,,,,,,0.7006,1,,,,,,,,,,,,,,,,,,,,,,,,-0.088888865,-0.377777804,0,0,0,,,,,,,PARADE,C,m,y,./images/PARADE.png,,,,,,,,m,1,0.7006,,,,,,,,0,51,51,17,1
,,,,,,,,,,,,,,,,,198832,19,2022-02-02_17h19.56.196,lexical_decision_task_DD_L5,2021.2.3,Win32,60.06006006,,,,,,,,,,,0.8338,0,,,,,,,,,,,,,,,,,,,,,,,,-0.088888865,-0.377777804,0,0,0,,,,,,,SHELF,HB,z,y,./images/SHELFHB.png,,,,,,,,m,0,0.8338,,,,,,,,0,52,52,123,1
,,,,,,,,,,,,,,,,,198832,19,2022-02-02_17h19.56.196,lexical_decision_task_DD_L5,2021.2.3,Win32,60.06006006,,,,,,,,,,,1.1522,1,,,,,,,,,,,,,,,,,,,,,,,,-0.088888865,-0.377777804,0,0,0,,,,,,,COOKER,HB,z,y,./images/COOKERHB.png,,,,,,,,z,1,1.1522,,,,,,,,0,53,53,153,1
,,,,,,,,,,,,,,,,,198832,19,2022-02-02_17h19.56.196,lexical_decision_task_DD_L5,2021.2.3,Win32,60.06006006,,,,,,,,,,,0.8276,0,,,,,,,,,,,,,,,,,,,,,,,,-0.088888865,-0.377777804,0,0,0,,,,,,,PAINT,LB,z,y,./images/PAINTLB.png,,,,,,,,m,0,0.8276,,,,,,,,0,54,54,91,1
,,,,,,,,,,,,,,,,,198832,19,2022-02-02_17h19.56.196,lexical_decision_task_DD_L5,2021.2.3,Win32,60.06006006,,,,,,,,,,,1.093,1,,,,,,,,,,,,,,,,,,,,,,,,-0.088888865,-0.377777804,0,0,0,,,,,,,STAIN,HB,m,y,./images/STAINHB.png,,,,,,,,m,1,1.093,,,,,,,,0,55,55,6,1
,,,,,,,,,,,,,,,,,198832,19,2022-02-02_17h19.56.196,lexical_decision_task_DD_L5,2021.2.3,Win32,60.06006006,,,,,,,,,,,0.7678,1,,,,,,,,,,,,,,,,,,,,,,,,-0.088888865,-0.377777804,0,0,0,,,,,,,BROOM,HB,m,y,./images/BROOMHB.png,,,,,,,,m,1,0.7678,,,,,,,,0,56,56,78,1
,,,,,,,,,,,,,,,,,198832,19,2022-02-02_17h19.56.196,lexical_decision_task_DD_L5,2021.2.3,Win32,60.06006006,,,,,,,,,,,0.6174,1,,,,,,,,,,,,,,,,,,,,,,,,-0.088888865,-0.377777804,0,0,0,,,,,,,LLAMA,C,m,y,./images/LLAMA.png,,,,,,,,m,1,0.6174,,,,,,,,0,57,57,35,1
,,,,,,,,,,,,,,,,,198832,19,2022-02-02_17h19.56.196,lexical_decision_task_DD_L5,2021.2.3,Win32,60.06006006,,,,,,,,,,,0.7518,1,,,,,,,,,,,,,,,,,,,,,,,,-0.088888865,-0.377777804,0,0,0,,,,,,,LIZARD,C,z,y,./images/LIZARD.png,,,,,,,,z,1,0.7518,,,,,,,,0,58,58,128,1
,,,,,,,,,,,,,,,,,198832,19,2022-02-02_17h19.56.196,lexical_decision_task_DD_L5,2021.2.3,Win32,60.06006006,,,,,,,,,,,0.7797,1,,,,,,,,,,,,,,,,,,,,,,,,-0.088888865,-0.377777804,0,0,0,,,,,,,COUCH,C,z,y,./images/COUCH.png,,,,,,,,z,1,0.7797,,,,,,,,0,59,59,161,1
,,,,,,,,,,,,,,,,,198832,19,2022-02-02_17h19.56.196,lexical_decision_task_DD_L5,2021.2.3,Win32,60.06006006,,,,,,,,,,,0.8845,1,,,,,,,,,,,,,,,,,,,,,,,,-0.088888865,-0.377777804,0,0,0,,,,,,,BEARD,C,z,y,./images/BEARD.png,,,,,,,,z,1,0.8845,,,,,,,,0,60,60,86,1
,,,,,,,,,,,,,,,,,198832,19,2022-02-02_17h19.56.196,lexical_decision_task_DD_L5,2021.2.3,Win32,60.06006006,,,,,,,,,,,0.6842,1,,,,,,,,,,,,,,,,,,,,,,,,-0.088888865,-0.377777804,0,0,0,,,,,,,PISTOL,C,m,y,./images/PISTOL.png,,,,,,,,m,1,0.6842,,,,,,,,0,61,61,29,1
,,,,,,,,,,,,,,,,,198832,19,2022-02-02_17h19.56.196,lexical_decision_task_DD_L5,2021.2.3,Win32,60.06006006,,,,,,,,,,,2.0171,0,,,,,,,,,,,,,,,,,,,,,,,,-0.088888865,-0.377777804,0,0,0,,,,,,,NOOSE,HB,z,y,./images/NOOSEHB.png,,,,,,,,m,0,2.0171,,,,,,,,0,62,62,156,1
,,,,,,,,,,,,,,,,,198832,19,2022-02-02_17h19.56.196,lexical_decision_task_DD_L5,2021.2.3,Win32,60.06006006,,,,,,,,,,,1.1038,1,,,,,,,,,,,,,,,,,,,,,,,,-0.088888865,-0.377777804,0,0,0,,,,,,,SPORT,HB,z,y,./images/SPORTHB.png,,,,,,,,z,1,1.1038,,,,,,,,0,63,63,132,1
,,,,,,,,,,,,,,,,,198832,19,2022-02-02_17h19.56.196,lexical_decision_task_DD_L5,2021.2.3,Win32,60.06006006,,,,,,,,,,,0.8388,1,,,,,,,,,,,,,,,,,,,,,,,,-0.088888865,-0.377777804,0,0,0,,,,,,,JAGUAR,HB,z,y,./images/JAGUARHB.png,,,,,,,,z,1,0.8388,,,,,,,,0,64,64,102,1
,,,,,,,,,,,,,,,,,198832,19,2022-02-02_17h19.56.196,lexical_decision_task_DD_L5,2021.2.3,Win32,60.06006006,,,,,,,,,,,0.8176,1,,,,,,,,,,,,,,,,,,,,,,,,-0.088888865,-0.377777804,0,0,0,,,,,,,FLASK,HB,m,y,./images/FLASKHB.png,,,,,,,,m,1,0.8176,,,,,,,,0,65,65,72,1
,,,,,,,,,,,,,,,,,198832,19,2022-02-02_17h19.56.196,lexical_decision_task_DD_L5,2021.2.3,Win32,60.06006006,,,,,,,,,,,0.7054,1,,,,,,,,,,,,,,,,,,,,,,,,-0.088888865,-0.377777804,0,0,0,,,,,,,STREAM,C,m,y,./images/STREAM.png,,,,,,,,m,1,0.7054,,,,,,,,0,66,66,41,1
,,,,,,,,,,,,,,,,,198832,19,2022-02-02_17h19.56.196,lexical_decision_task_DD_L5,2021.2.3,Win32,60.06006006,,,,,,,,,,,0.6505,1,,,,,,,,,,,,,,,,,,,,,,,,-0.088888865,-0.377777804,0,0,0,,,,,,,COLLAR,HB,m,y,./images/COLLARHB.png,,,,,,,,m,1,0.6505,,,,,,,,0,67,67,15,1
,,,,,,,,,,,,,,,,,198832,19,2022-02-02_17h19.56.196,lexical_decision_task_DD_L5,2021.2.3,Win32,60.06006006,,,,,,,,,,,0.7902,1,,,,,,,,,,,,,,,,,,,,,,,,-0.088888865,-0.377777804,0,0,0,,,,,,,LITTER,HB,z,y,./images/LITTERHB.png,,,,,,,,z,1,0.7902,,,,,,,,0,68,68,162,1
,,,,,,,,,,,,,,,,,198832,19,2022-02-02_17h19.56.196,lexical_decision_task_DD_L5,2021.2.3,Win32,60.06006006,,,,,,,,,,,1.1768,1,,,,,,,,,,,,,,,,,,,,,,,,-0.088888865,-0.377777804,0,0,0,,,,,,,GLOVE,LB,m,y,./images/GLOVELB.png,,,,,,,,m,1,1.1768,,,,,,,,0,69,69,73,1
,,,,,,,,,,,,,,,,,198832,19,2022-02-02_17h19.56.196,lexical_decision_task_DD_L5,2021.2.3,Win32,60.06006006,,,,,,,,,,,0.5883,1,,,,,,,,,,,,,,,,,,,,,,,,-0.088888865,-0.377777804,0,0,0,,,,,,,GARDEN,LB,m,y,./images/GARDENLB.png,,,,,,,,m,1,0.5883,,,,,,,,0,70,70,10,1
,,,,,,,,,,,,,,,,,198832,19,2022-02-02_17h19.56.196,lexical_decision_task_DD_L5,2021.2.3,Win32,60.06006006,,,,,,,,,,,1.6173,1,,,,,,,,,,,,,,,,,,,,,,,,-0.088888865,-0.377777804,0,0,0,,,,,,,SCREW,HB,z,y,./images/SCREWHB.png,,,,,,,,z,1,1.6173,,,,,,,,0,71,71,108,1
,,,,,,,,,,,,,,,,,198832,19,2022-02-02_17h19.56.196,lexical_decision_task_DD_L5,2021.2.3,Win32,60.06006006,,,,,,,,,,,0.6504,1,,,,,,,,,,,,,,,,,,,,,,,,-0.088888865,-0.377777804,0,0,0,,,,,,,CLOWN,LB,m,y,./images/CLOWNLB.png,,,,,,,,m,1,0.6504,,,,,,,,0,72,72,22,1
,,,,,,,,,,,,,,,,,198832,19,2022-02-02_17h19.56.196,lexical_decision_task_DD_L5,2021.2.3,Win32,60.06006006,,,,,,,,,,,1.7504,1,,,,,,,,,,,,,,,,,,,,,,,,-0.088888865,-0.377777804,0,0,0,,,,,,,GREASE,HB,z,y,./images/GREASEHB.png,,,,,,,,z,1,1.7504,,,,,,,,0,73,73,99,1
,,,,,,,,,,,,,,,,,198832,19,2022-02-02_17h19.56.196,lexical_decision_task_DD_L5,2021.2.3,Win32,60.06006006,,,,,,,,,,,0.6839,1,,,,,,,,,,,,,,,,,,,,,,,,-0.088888865,-0.377777804,0,0,0,,,,,,,WHISKY,C,m,y,./images/WHISKY.png,,,,,,,,m,1,0.6839,,,,,,,,0,74,74,83,1
,,,,,,,,,,,,,,,,,198832,19,2022-02-02_17h19.56.196,lexical_decision_task_DD_L5,2021.2.3,Win32,60.06006006,,,,,,,,,,,1.0675,0,,,,,,,,,,,,,,,,,,,,,,,,-0.088888865,-0.377777804,0,0,0,,,,,,,SAUNA,HB,m,y,./images/SAUNAHB.png,,,,,,,,z,0,1.0675,,,,,,,,0,75,75,33,1
,,,,,,,,,,,,,,,,,198832,19,2022-02-02_17h19.56.196,lexical_decision_task_DD_L5,2021.2.3,Win32,60.06006006,,,,,,,,,,,1.2836,1,,,,,,,,,,,,,,,,,,,,,,,,-0.088888865,-0.377777804,0,0,0,,,,,,,WEASEL,C,z,y,./images/WEASEL.png,,,,,,,,z,1,1.2836,,,,,,,,0,76,76,164,1
,,,,,,,,,,,,,,,,,198832,19,2022-02-02_17h19.56.196,lexical_decision_task_DD_L5,2021.2.3,Win32,60.06006006,,,,,,,,,,,1.167,1,,,,,,,,,,,,,,,,,,,,,,,,-0.088888865,-0.377777804,0,0,0,,,,,,,SPINE,C,m,y,./images/SPINE.png,,,,,,,,m,1,1.167,,,,,,,,0,77,77,65,1
,,,,,,,,,,,,,,,,,198832,19,2022-02-02_17h19.56.196,lexical_decision_task_DD_L5,2021.2.3,Win32,60.06006006,,,,,,,,,,,0.8175,0,,,,,,,,,,,,,,,,,,,,,,,,-0.088888865,-0.377777804,0,0,0,,,,,,,BARREL,C,z,y,./images/BARREL.png,,,,,,,,m,0,0.8175,,,,,,,,0,78,78,116,1
,,,,,,,,,,,,,,,,,198832,19,2022-02-02_17h19.56.196,lexical_decision_task_DD_L5,2021.2.3,Win32,60.06006006,,,,,,,,,,,1.2177,1,,,,,,,,,,,,,,,,,,,,,,,,-0.088888865,-0.377777804,0,0,0,,,,,,,SNACK,LB,z,y,./images/SNACKLB.png,,,,,,,,z,1,1.2177,,,,,,,,0,79,79,157,1
,,,,,,,,,,,,,,,,,198832,19,2022-02-02_17h19.56.196,lexical_decision_task_DD_L5,2021.2.3,Win32,60.06006006,,,,,,,,,,,0.7507,1,,,,,,,,,,,,,,,,,,,,,,,,-0.088888865,-0.377777804,0,0,0,,,,,,,CLIFF,C,m,y,./images/CLIFF.png,,,,,,,,m,1,0.7507,,,,,,,,0,80,80,8,1
,,,,,,,,,,,,,,,,,198832,19,2022-02-02_17h19.56.196,lexical_decision_task_DD_L5,2021.2.3,Win32,60.06006006,,,,,,,,,,,1.8194,1,,,,,,,,,,,,,,,,,,,,,,,,-0.088888865,-0.377777804,0,0,0,,,,,,,FOLDER,HB,z,y,./images/FOLDERHB.png,,,,,,,,z,1,1.8194,,,,,,,,0,81,81,126,1
,,,,,,,,,,,,,,,,,198832,19,2022-02-02_17h19.56.196,lexical_decision_task_DD_L5,2021.2.3,Win32,60.06006006,,,,,,,,,,,0.7943,1,,,,,,,,,,,,,,,,,,,,,,,,-0.088888865,-0.377777804,0,0,0,,,,,,,HOCKEY,C,m,y,./images/HOCKEY.png,,,,,,,,m,1,0.7943,,,,,,,,0,82,82,32,1
,,,,,,,,,,,,,,,,,198832,19,2022-02-02_17h19.56.196,lexical_decision_task_DD_L5,2021.2.3,Win32,60.06006006,,,,,,,,,,,1.3332,1,,,,,,,,,,,,,,,,,,,,,,,,-0.088888865,-0.377777804,0,0,0,space,,,,,,BURIAL,C,z,y,./images/BURIAL.png,26.1808,,,,,,,z,1,1.3332,,,,,,,,0,83,83,143,1
,,,,,,,,,,,,,,,,,198832,19,2022-02-02_17h19.56.196,lexical_decision_task_DD_L5,2021.2.3,Win32,60.06006006,,,,,,,,,,,0.8834,1,,,,,,,,,,,,,,,,,,,,,,,,-0.088888865,-0.377777804,0,0,0,,,,,,,WHEEL,C,m,y,./images/WHEEL.png,,,,,,,,m,1,0.8834,,,,,,,,0,84,84,77,1
,,,,,,,,,,,,,,,,,198832,19,2022-02-02_17h19.56.196,lexical_decision_task_DD_L5,2021.2.3,Win32,60.06006006,,,,,,,,,,,0.8676,1,,,,,,,,,,,,,,,,,,,,,,,,-0.088888865,-0.377777804,0,0,0,,,,,,,MUFFIN,LB,z,y,./images/MUFFINLB.png,,,,,,,,z,1,0.8676,,,,,,,,0,85,85,139,1
,,,,,,,,,,,,,,,,,198832,19,2022-02-02_17h19.56.196,lexical_decision_task_DD_L5,2021.2.3,Win32,60.06006006,,,,,,,,,,,0.6176,1,,,,,,,,,,,,,,,,,,,,,,,,-0.088888865,-0.377777804,0,0,0,,,,,,,MIDGET,LB,m,y,./images/MIDGETLB.png,,,,,,,,m,1,0.6176,,,,,,,,0,86,86,76,1
,,,,,,,,,,,,,,,,,198832,19,2022-02-02_17h19.56.196,lexical_decision_task_DD_L5,2021.2.3,Win32,60.06006006,,,,,,,,,,,0.788,1,,,,,,,,,,,,,,,,,,,,,,,,-0.088888865,-0.377777804,0,0,0,,,,,,,BIRTH,LB,z,y,./images/BIRTHLB.png,,,,,,,,z,1,0.788,,,,,,,,0,87,87,121,1
,,,,,,,,,,,,,,,,,198832,19,2022-02-02_17h19.56.196,lexical_decision_task_DD_L5,2021.2.3,Win32,60.06006006,,,,,,,,,,,0.6561,1,,,,,,,,,,,,,,,,,,,,,,,,-0.088888865,-0.377777804,0,0,0,,,,,,,CANDY,HB,m,y,./images/CANDYHB.png,,,,,,,,m,1,0.6561,,,,,,,,0,88,88,39,1
,,,,,,,,,,,,,,,,,198832,19,2022-02-02_17h19.56.196,lexical_decision_task_DD_L5,2021.2.3,Win32,60.06006006,,,,,,,,,,,1.1912,0,,,,,,,,,,,,,,,,,,,,,,,,-0.088888865,-0.377777804,0,0,0,,,,,,,FARMER,C,z,y,./images/FARMER.png,,,,,,,,m,0,1.1912,,,,,,,,0,89,89,149,1
,,,,,,,,,,,,,,,,,198832,19,2022-02-02_17h19.56.196,lexical_decision_task_DD_L5,2021.2.3,Win32,60.06006006,,,,,,,,,,,0.7508,1,,,,,,,,,,,,,,,,,,,,,,,,-0.088888865,-0.377777804,0,0,0,,,,,,,MEDAL,C,m,y,./images/MEDAL.png,,,,,,,,m,1,0.7508,,,,,,,,0,90,90,11,1
,,,,,,,,,,,,,,,,,198832,19,2022-02-02_17h19.56.196,lexical_decision_task_DD_L5,2021.2.3,Win32,60.06006006,,,,,,,,,,,0.8175,1,,,,,,,,,,,,,,,,,,,,,,,,-0.088888865,-0.377777804,0,0,0,,,,,,,PURSE,C,z,y,./images/PURSE.png,,,,,,,,z,1,0.8175,,,,,,,,0,91,91,146,1
,,,,,,,,,,,,,,,,,198832,19,2022-02-02_17h19.56.196,lexical_decision_task_DD_L5,2021.2.3,Win32,60.06006006,,,,,,,,,,,0.6503,1,,,,,,,,,,,,,,,,,,,,,,,,-0.088888865,-0.377777804,0,0,0,,,,,,,SNAKE,LB,m,y,./images/SNAKELB.png,,,,,,,,m,1,0.6503,,,,,,,,0,92,92,40,1
,,,,,,,,,,,,,,,,,198832,19,2022-02-02_17h19.56.196,lexical_decision_task_DD_L5,2021.2.3,Win32,60.06006006,,,,,,,,,,,0.7841,1,,,,,,,,,,,,,,,,,,,,,,,,-0.088888865,-0.377777804,0,0,0,,,,,,,HEATER,C,m,y,./images/HEATER.png,,,,,,,,m,1,0.7841,,,,,,,,0,93,93,56,1
,,,,,,,,,,,,,,,,,198832,19,2022-02-02_17h19.56.196,lexical_decision_task_DD_L5,2021.2.3,Win32,60.06006006,,,,,,,,,,,1.0012,1,,,,,,,,,,,,,,,,,,,,,,,,-0.088888865,-0.377777804,0,0,0,,,,,,,PICKLE,C,z,y,./images/PICKLE.png,,,,,,,,z,1,1.0012,,,,,,,,0,94,94,98,1
,,,,,,,,,,,,,,,,,198832,19,2022-02-02_17h19.56.196,lexical_decision_task_DD_L5,2021.2.3,Win32,60.06006006,,,,,,,,,,,0.9176,1,,,,,,,,,,,,,,,,,,,,,,,,-0.088888865,-0.377777804,0,0,0,,,,,,,MUSCLE,LB,z,y,./images/MUSCLELB.png,,,,,,,,z,1,0.9176,,,,,,,,0,95,95,88,1
,,,,,,,,,,,,,,,,,198832,19,2022-02-02_17h19.56.196,lexical_decision_task_DD_L5,2021.2.3,Win32,60.06006006,,,,,,,,,,,1.1792,0,,,,,,,,,,,,,,,,,,,,,,,,-0.088888865,-0.377777804,0,0,0,,,,,,,STRING,C,z,y,./images/STRING.png,,,,,,,,m,0,1.1792,,,,,,,,0,96,96,125,1
,,,,,,,,,,,,,,,,,198832,19,2022-02-02_17h19.56.196,lexical_decision_task_DD_L5,2021.2.3,Win32,60.06006006,,,,,,,,,,,0.625,1,,,,,,,,,,,,,,,,,,,,,,,,-0.088888865,-0.377777804,0,0,0,,,,,,,PILOT,C,m,y,./images/PILOT.png,,,,,,,,m,1,0.625,,,,,,,,0,97,97,50,1
,,,,,,,,,,,,,,,,,198832,19,2022-02-02_17h19.56.196,lexical_decision_task_DD_L5,2021.2.3,Win32,60.06006006,,,,,,,,,,,0.8339,1,,,,,,,,,,,,,,,,,,,,,,,,-0.088888865,-0.377777804,0,0,0,,,,,,,POODLE,HB,z,y,./images/POODLEHB.png,,,,,,,,z,1,0.8339,,,,,,,,0,98,98,165,1
,,,,,,,,,,,,,,,,,198832,19,2022-02-02_17h19.56.196,lexical_decision_task_DD_L5,2021.2.3,Win32,60.06006006,,,,,,,,,,,2.0905,1,,,,,,,,,,,,,,,,,,,,,,,,-0.088888865,-0.377777804,0,0,0,,,,,,,CANYON,LB,z,y,./images/CANYONLB.png,,,,,,,,z,1,2.0905,,,,,,,,0,99,99,118,1
,,,,,,,,,,,,,,,,,198832,19,2022-02-02_17h19.56.196,lexical_decision_task_DD_L5,2021.2.3,Win32,60.06006006,,,,,,,,,,,0.6354,1,,,,,,,,,,,,,,,,,,,,,,,,-0.088888865,-0.377777804,0,0,0,,,,,,,CANOE,LB,m,y,./images/CANOELB.png,,,,,,,,m,1,0.6354,,,,,,,,0,100,100,58,1
,,,,,,,,,,,,,,,,,198832,19,2022-02-02_17h19.56.196,lexical_decision_task_DD_L5,2021.2.3,Win32,60.06006006,,,,,,,,,,,0.9337,1,,,,,,,,,,,,,,,,,,,,,,,,-0.088888865,-0.377777804,0,0,0,,,,,,,STORM,HB,z,y,./images/STORMHB.png,,,,,,,,z,1,0.9337,,,,,,,,0,101,101,114,1
,,,,,,,,,,,,,,,,,198832,19,2022-02-02_17h19.56.196,lexical_decision_task_DD_L5,2021.2.3,Win32,60.06006006,,,,,,,,,,,0.7171,1,,,,,,,,,,,,,,,,,,,,,,,,-0.088888865,-0.377777804,0,0,0,,,,,,,MUMMY,LB,m,y,./images/MUMMYLB.png,,,,,,,,m,1,0.7171,,,,,,,,0,102,102,46,1
,,,,,,,,,,,,,,,,,198832,19,2022-02-02_17h19.56.196,lexical_decision_task_DD_L5,2021.2.3,Win32,60.06006006,,,,,,,,,,,1.7421,1,,,,,,,,,,,,,,,,,,,,,,,,-0.088888865,-0.377777804,0,0,0,,,,,,,BELLY,LB,z,y,./images/BELLYLB.png,,,,,,,,z,1,1.7421,,,,,,,,0,103,103,94,1
,,,,,,,,,,,,,,,,,198832,19,2022-02-02_17h19.56.196,lexical_decision_task_DD_L5,2021.2.3,Win32,60.06006006,,,,,,,,,,,0.7567,1,,,,,,,,,,,,,,,,,,,,,,,,-0.088888865,-0.377777804,0,0,0,,,,,,,FLESH,HB,m,y,./images/FLESHHB.png,,,,,,,,m,1,0.7567,,,,,,,,0,104,104,24,1
,,,,,,,,,,,,,,,,,198832,19,2022-02-02_17h19.56.196,lexical_decision_task_DD_L5,2021.2.3,Win32,60.06006006,,,,,,,,,,,1.0565,1,,,,,,,,,,,,,,,,,,,,,,,,-0.088888865,-0.377777804,0,0,0,,,,,,,SMOKER,C,z,y,./images/SMOKER.png,,,,,,,,z,1,1.0565,,,,,,,,0,105,105,110,1
,,,,,,,,,,,,,,,,,198832,19,2022-02-02_17h19.56.196,lexical_decision_task_DD_L5,2021.2.3,Win32,60.06006006,,,,,,,,,,,0.8546,1,,,,,,,,,,,,,,,,,,,,,,,,-0.088888865,-0.377777804,0,0,0,,,,,,,FALCON,LB,z,y,./images/FALCONLB.png,,,,,,,,z,1,0.8546,,,,,,,,0,106,106,112,1
,,,,,,,,,,,,,,,,,198832,19,2022-02-02_17h19.56.196,lexical_decision_task_DD_L5,2021.2.3,Win32,60.06006006,,,,,,,,,,,0.8172,1,,,,,,,,,,,,,,,,,,,,,,,,-0.088888865,-0.377777804,0,0,0,,,,,,,CEMENT,C,z,y,./images/CEMENT.png,,,,,,,,z,1,0.8172,,,,,,,,0,107,107,158,1
,,,,,,,,,,,,,,,,,198832,19,2022-02-02_17h19.56.196,lexical_decision_task_DD_L5,2021.2.3,Win32,60.06006006,,,,,,,,,,,1.9839,0,,,,,,,,,,,,,,,,,,,,,,,,-0.088888865,-0.377777804,0,0,0,,,,,,,TRIPOD,HB,z,y,./images/TRIPODHB.png,,,,,,,,m,0,1.9839,,,,,,,,0,108,108,138,1
,,,,,,,,,,,,,,,,,198832,19,2022-02-02_17h19.56.196,lexical_decision_task_DD_L5,2021.2.3,Win32,60.06006006,,,,,,,,,,,1.9595,1,,,,,,,,,,,,,,,,,,,,,,,,-0.088888865,-0.377777804,0,0,0,,,,,,,MIRROR,HB,z,y,./images/MIRRORHB.png,,,,,,,,z,1,1.9595,,,,,,,,0,109,109,147,1
,,,,,,,,,,,,,,,,,198832,19,2022-02-02_17h19.56.196,lexical_decision_task_DD_L5,2021.2.3,Win32,60.06006006,,,,,,,,,,,1.6333,1,,,,,,,,,,,,,,,,,,,,,,,,-0.088888865,-0.377777804,0,0,0,,,,,,,CRUST,LB,z,y,./images/CRUSTLB.png,,,,,,,,z,1,1.6333,,,,,,,,0,110,110,163,1
,,,,,,,,,,,,,,,,,198832,19,2022-02-02_17h19.56.196,lexical_decision_task_DD_L5,2021.2.3,Win32,60.06006006,,,,,,,,,,,1.066,1,,,,,,,,,,,,,,,,,,,,,,,,-0.088888865,-0.377777804,0,0,0,,,,,,,SQUARE,HB,z,y,./images/SQUAREHB.png,,,,,,,,z,1,1.066,,,,,,,,0,111,111,90,1
,,,,,,,,,,,,,,,,,198832,19,2022-02-02_17h19.56.196,lexical_decision_task_DD_L5,2021.2.3,Win32,60.06006006,,,,,,,,,,,0.7681,1,,,,,,,,,,,,,,,,,,,,,,,,-0.088888865,-0.377777804,0,0,0,,,,,,,SHIELD,HB,m,y,./images/SHIELDHB.png,,,,,,,,m,1,0.7681,,,,,,,,0,112,112,48,1
,,,,,,,,,,,,,,,,,198832,19,2022-02-02_17h19.56.196,lexical_decision_task_DD_L5,2021.2.3,Win32,60.06006006,,,,,,,,,,,0.6843,1,,,,,,,,,,,,,,,,,,,,,,,,-0.088888865,-0.377777804,0,0,0,,,,,,,DANCER,HB,m,y,./images/DANCERHB.png,,,,,,,,m,1,0.6843,,,,,,,,0,113,113,21,1
,,,,,,,,,,,,,,,,,198832,19,2022-02-02_17h19.56.196,lexical_decision_task_DD_L5,2021.2.3,Win32,60.06006006,,,,,,,,,,,0.7746,1,,,,,,,,,,,,,,,,,,,,,,,,-0.088888865,-0.377777804,0,0,0,,,,,,,KITTEN,HB,z,y,./images/KITTENHB.png,,,,,,,,z,1,0.7746,,,,,,,,0,114,114,129,1
,,,,,,,,,,,,,,,,,198832,19,2022-02-02_17h19.56.196,lexical_decision_task_DD_L5,2021.2.3,Win32,60.06006006,,,,,,,,,,,0.7343,1,,,,,,,,,,,,,,,,,,,,,,,,-0.088888865,-0.377777804,0,0,0,,,,,,,BRIDE,LB,m,y,./images/BRIDELB.png,,,,,,,,m,1,0.7343,,,,,,,,0,115,115,64,1
,,,,,,,,,,,,,,,,,198832,19,2022-02-02_17h19.56.196,lexical_decision_task_DD_L5,2021.2.3,Win32,60.06006006,,,,,,,,,,,0.8341,0,,,,,,,,,,,,,,,,,,,,,,,,-0.088888865,-0.377777804,0,0,0,,,,,,,BANNER,LB,z,y,./images/BANNERLB.png,,,,,,,,m,0,0.8341,,,,,,,,0,116,116,136,1
,,,,,,,,,,,,,,,,,198832,19,2022-02-02_17h19.56.196,lexical_decision_task_DD_L5,2021.2.3,Win32,60.06006006,,,,,,,,,,,1.0685,0,,,,,,,,,,,,,,,,,,,,,,,,-0.088888865,-0.377777804,0,0,0,,,,,,,CANDLE,LB,z,y,./images/CANDLELB.png,,,,,,,,m,0,1.0685,,,,,,,,0,117,117,145,1
,,,,,,,,,,,,,,,,,198832,19,2022-02-02_17h19.56.196,lexical_decision_task_DD_L5,2021.2.3,Win32,60.06006006,,,,,,,,,,,0.874,1,,,,,,,,,,,,,,,,,,,,,,,,-0.088888865,-0.377777804,0,0,0,,,,,,,MOTOR,LB,z,y,./images/MOTORLB.png,,,,,,,,z,1,0.874,,,,,,,,0,118,118,97,1
,,,,,,,,,,,,,,,,,198832,19,2022-02-02_17h19.56.196,lexical_decision_task_DD_L5,2021.2.3,Win32,60.06006006,,,,,,,,,,,1.086,1,,,,,,,,,,,,,,,,,,,,,,,,-0.088888865,-0.377777804,0,0,0,,,,,,,CRATER,HB,m,y,./images/CRATERHB.png,,,,,,,,m,1,1.086,,,,,,,,0,119,119,3,1
,,,,,,,,,,,,,,,,,198832,19,2022-02-02_17h19.56.196,lexical_decision_task_DD_L5,2021.2.3,Win32,60.06006006,,,,,,,,,,,0.7844,1,,,,,,,,,,,,,,,,,,,,,,,,-0.088888865,-0.377777804,0,0,0,,,,,,,TIGER,LB,m,y,./images/TIGERLB.png,,,,,,,,m,1,0.7844,,,,,,,,0,120,120,37,1
,,,,,,,,,,,,,,,,,198832,19,2022-02-02_17h19.56.196,lexical_decision_task_DD_L5,2021.2.3,Win32,60.06006006,,,,,,,,,,,1.4773,1,,,,,,,,,,,,,,,,,,,,,,,,-0.088888865,-0.377777804,0,0,0,,,,,,,BRUSH,C,m,y,./images/BRUSH.png,,,,,,,,m,1,1.4773,,,,,,,,0,121,121,59,1
,,,,,,,,,,,,,,,,,198832,19,2022-02-02_17h19.56.196,lexical_decision_task_DD_L5,2021.2.3,Win32,60.06006006,,,,,,,,,,,0.6364,1,,,,,,,,,,,,,,,,,,,,,,,,-0.088888865,-0.377777804,0,0,0,,,,,,,GRAPE,LB,m,y,./images/GRAPELB.png,,,,,,,,m,1,0.6364,,,,,,,,0,122,122,16,1
,,,,,,,,,,,,,,,,,198832,19,2022-02-02_17h19.56.196,lexical_decision_task_DD_L5,2021.2.3,Win32,60.06006006,,,,,,,,,,,1.0007,1,,,,,,,,,,,,,,,,,,,,,,,,-0.088888865,-0.377777804,0,0,0,,,,,,,DRILL,HB,m,y,./images/DRILLHB.png,,,,,,,,m,1,1.0007,,,,,,,,0,123,123,81,1
,,,,,,,,,,,,,,,,,198832,19,2022-02-02_17h19.56.196,lexical_decision_task_DD_L5,2021.2.3,Win32,60.06006006,,,,,,,,,,,0.6516,1,,,,,,,,,,,,,,,,,,,,,,,,-0.088888865,-0.377777804,0,0,0,,,,,,,ALLEY,LB,m,y,./images/ALLEYLB.png,,,,,,,,m,1,0.6516,,,,,,,,0,124,124,55,1
,,,,,,,,,,,,,,,,,198832,19,2022-02-02_17h19.56.196,lexical_decision_task_DD_L5,2021.2.3,Win32,60.06006006,,,,,,,,,,,0.6786,1,,,,,,,,,,,,,,,,,,,,,,,,-0.088888865,-0.377777804,0,0,0,space,,,,,,CURRY,HB,m,y,./images/CURRYHB.png,2.9837,,,,,,,m,1,0.6786,,,,,,,,0,125,125,60,1
,,,,,,,,,,,,,,,,,198832,19,2022-02-02_17h19.56.196,lexical_decision_task_DD_L5,2021.2.3,Win32,60.06006006,,,,,,,,,,,0.8674,1,,,,,,,,,,,,,,,,,,,,,,,,-0.088888865,-0.377777804,0,0,0,,,,,,,TORCH,C,z,y,./images/TORCH.png,,,,,,,,z,1,0.8674,,,,,,,,0,126,126,152,1
,,,,,,,,,,,,,,,,,198832,19,2022-02-02_17h19.56.196,lexical_decision_task_DD_L5,2021.2.3,Win32,60.06006006,,,,,,,,,,,0.6671,1,,,,,,,,,,,,,,,,,,,,,,,,-0.088888865,-0.377777804,0,0,0,,,,,,,TOWEL,LB,m,y,./images/TOWELLB.png,,,,,,,,m,1,0.6671,,,,,,,,0,127,127,1,1
,,,,,,,,,,,,,,,,,198832,19,2022-02-02_17h19.56.196,lexical_decision_task_DD_L5,2021.2.3,Win32,60.06006006,,,,,,,,,,,0.6962,1,,,,,,,,,,,,,,,,,,,,,,,,-0.088888865,-0.377777804,0,0,0,,,,,,,DESERT,LB,m,y,./images/DESERTLB.png,,,,,,,,m,1,0.6962,,,,,,,,0,128,128,52,1
,,,,,,,,,,,,,,,,,198832,19,2022-02-02_17h19.56.196,lexical_decision_task_DD_L5,2021.2.3,Win32,60.06006006,,,,,,,,,,,0.9381,1,,,,,,,,,,,,,,,,,,,,,,,,-0.088888865,-0.377777804,0,0,0,,,,,,,MAMMAL,C,m,y,./images/MAMMAL.png,,,,,,,,m,1,0.9381,,,,,,,,0,129,129,62,1
,,,,,,,,,,,,,,,,,198832,19,2022-02-02_17h19.56.196,lexical_decision_task_DD_L5,2021.2.3,Win32,60.06006006,,,,,,,,,,,0.972,0,,,,,,,,,,,,,,,,,,,,,,,,-0.088888865,-0.377777804,0,0,0,,,,,,,BLOKE,HB,m,y,./images/BLOKEHB.png,,,,,,,,z,0,0.972,,,,,,,,0,130,130,12,1
,,,,,,,,,,,,,,,,,198832,19,2022-02-02_17h19.56.196,lexical_decision_task_DD_L5,2021.2.3,Win32,60.06006006,,,,,,,,,,,1.8005,1,,,,,,,,,,,,,,,,,,,,,,,,-0.088888865,-0.377777804,0,0,0,,,,,,,SWING,LB,z,y,./images/SWINGLB.png,,,,,,,,z,1,1.8005,,,,,,,,0,131,131,124,1
,,,,,,,,,,,,,,,,,198832,19,2022-02-02_17h19.56.196,lexical_decision_task_DD_L5,2021.2.3,Win32,60.06006006,,,,,,,,,,,0.6337,1,,,,,,,,,,,,,,,,,,,,,,,,-0.088888865,-0.377777804,0,0,0,,,,,,,BASKET,C,m,y,./images/BASKET.png,,,,,,,,m,1,0.6337,,,,,,,,0,132,132,44,1
,,,,,,,,,,,,,,,,,198832,19,2022-02-02_17h19.56.196,lexical_decision_task_DD_L5,2021.2.3,Win32,60.06006006,,,,,,,,,,,0.9339,1,,,,,,,,,,,,,,,,,,,,,,,,-0.088888865,-0.377777804,0,0,0,,,,,,,SAILOR,LB,z,y,./images/SAILORLB.png,,,,,,,,z,1,0.9339,,,,,,,,0,133,133,151,1
,,,,,,,,,,,,,,,,,198832,19,2022-02-02_17h19.56.196,lexical_decision_task_DD_L5,2021.2.3,Win32,60.06006006,,,,,,,,,,,0.9171,1,,,,,,,,,,,,,,,,,,,,,,,,-0.088888865,-0.377777804,0,0,0,,,,,,,MOSQUE,LB,z,y,./images/MOSQUELB.png,,,,,,,,z,1,0.9171,,,,,,,,0,134,134,127,1
,,,,,,,,,,,,,,,,,198832,19,2022-02-02_17h19.56.196,lexical_decision_task_DD_L5,2021.2.3,Win32,60.06006006,,,,,,,,,,,0.9844,1,,,,,,,,,,,,,,,,,,,,,,,,-0.088888865,-0.377777804,0,0,0,,,,,,,GRAIN,HB,z,y,./images/GRAINHB.png,,,,,,,,z,1,0.9844,,,,,,,,0,135,135,159,1
,,,,,,,,,,,,,,,,,198832,19,2022-02-02_17h19.56.196,lexical_decision_task_DD_L5,2021.2.3,Win32,60.06006006,,,,,,,,,,,0.7726,1,,,,,,,,,,,,,,,,,,,,,,,,-0.088888865,-0.377777804,0,0,0,,,,,,,WAGON,LB,m,y,./images/WAGONLB.png,,,,,,,,m,1,0.7726,,,,,,,,0,136,136,7,1
,,,,,,,,,,,,,,,,,198832,19,2022-02-02_17h19.56.196,lexical_decision_task_DD_L5,2021.2.3,Win32,60.06006006,,,,,,,,,,,0.9063,1,,,,,,,,,,,,,,,,,,,,,,,,-0.088888865,-0.377777804,0,0,0,,,,,,,KIDNEY,HB,z,y,./images/KIDNEYHB.png,,,,,,,,z,1,0.9063,,,,,,,,0,137,137,105,1
,,,,,,,,,,,,,,,,,198832,19,2022-02-02_17h19.56.196,lexical_decision_task_DD_L5,2021.2.3,Win32,60.06006006,,,,,,,,,,,0.6338,1,,,,,,,,,,,,,,,,,,,,,,,,-0.088888865,-0.377777804,0,0,0,,,,,,,BAMBOO,C,m,y,./images/BAMBOO.png,,,,,,,,m,1,0.6338,,,,,,,,0,138,138,5,1
,,,,,,,,,,,,,,,,,198832,19,2022-02-02_17h19.56.196,lexical_decision_task_DD_L5,2021.2.3,Win32,60.06006006,,,,,,,,,,,1.1024,0,,,,,,,,,,,,,,,,,,,,,,,,-0.088888865,-0.377777804,0,0,0,,,,,,,PLANK,LB,z,y,./images/PLANKLB.png,,,,,,,,m,0,1.1024,,,,,,,,0,139,139,85,1
,,,,,,,,,,,,,,,,,198832,19,2022-02-02_17h19.56.196,lexical_decision_task_DD_L5,2021.2.3,Win32,60.06006006,,,,,,,,,,,1.0758,1,,,,,,,,,,,,,,,,,,,,,,,,-0.088888865,-0.377777804,0,0,0,,,,,,,DONKEY,LB,m,y,./images/DONKEYLB.png,,,,,,,,m,1,1.0758,,,,,,,,0,140,140,19,1
,,,,,,,,,,,,,,,,,198832,19,2022-02-02_17h19.56.196,lexical_decision_task_DD_L5,2021.2.3,Win32,60.06006006,,,,,,,,,,,0.7506,1,,,,,,,,,,,,,,,,,,,,,,,,-0.088888865,-0.377777804,0,0,0,,,,,,,STEAK,LB,m,y,./images/STEAKLB.png,,,,,,,,m,1,0.7506,,,,,,,,0,141,141,31,1
,,,,,,,,,,,,,,,,,198832,19,2022-02-02_17h19.56.196,lexical_decision_task_DD_L5,2021.2.3,Win32,60.06006006,,,,,,,,,,,0.9767,1,,,,,,,,,,,,,,,,,,,,,,,,-0.088888865,-0.377777804,0,0,0,,,,,,,URINE,LB,z,y,./images/URINELB.png,,,,,,,,z,1,0.9767,,,,,,,,0,142,142,154,1
,,,,,,,,,,,,,,,,,198832,19,2022-02-02_17h19.56.196,lexical_decision_task_DD_L5,2021.2.3,Win32,60.06006006,,,,,,,,,,,1.7058,1,,,,,,,,,,,,,,,,,,,,,,,,-0.088888865,-0.377777804,0,0,0,,,,,,,FINGER,HB,z,y,./images/FINGERHB.png,,,,,,,,z,1,1.7058,,,,,,,,0,143,143,87,1
,,,,,,,,,,,,,,,,,198832,19,2022-02-02_17h19.56.196,lexical_decision_task_DD_L5,2021.2.3,Win32,60.06006006,,,,,,,,,,,0.7608,1,,,,,,,,,,,,,,,,,,,,,,,,-0.088888865,-0.377777804,0,0,0,,,,,,,STOOL,LB,m,y,./images/STOOLLB.png,,,,,,,,m,1,0.7608,,,,,,,,0,144,144,43,1
,,,,,,,,,,,,,,,,,198832,19,2022-02-02_17h19.56.196,lexical_decision_task_DD_L5,2021.2.3,Win32,60.06006006,,,,,,,,,,,0.8668,1,,,,,,,,,,,,,,,,,,,,,,,,-0.088888865,-0.377777804,0,0,0,,,,,,,POKER,LB,m,y,./images/POKERLB.png,,,,,,,,m,1,0.8668,,,,,,,,0,145,145,67,1
,,,,,,,,,,,,,,,,,198832,19,2022-02-02_17h19.56.196,lexical_decision_task_DD_L5,2021.2.3,Win32,60.06006006,,,,,,,,,,,0.6779,1,,,,,,,,,,,,,,,,,,,,,,,,-0.088888865,-0.377777804,0,0,0,,,,,,,CASINO,LB,m,y,./images/CASINOLB.png,,,,,,,,m,1,0.6779,,,,,,,,0,146,146,28,1
,,,,,,,,,,,,,,,,,198832,19,2022-02-02_17h19.56.196,lexical_decision_task_DD_L5,2021.2.3,Win32,60.06006006,,,,,,,,,,,1.9332,0,,,,,,,,,,,,,,,,,,,,,,,,-0.088888865,-0.377777804,0,0,0,,,,,,,MOOSE,HB,z,y,./images/MOOSEHB.png,,,,,,,,m,0,1.9332,,,,,,,,0,147,147,141,1
,,,,,,,,,,,,,,,,,198832,19,2022-02-02_17h19.56.196,lexical_decision_task_DD_L5,2021.2.3,Win32,60.06006006,,,,,,,,,,,1.3909,1,,,,,,,,,,,,,,,,,,,,,,,,-0.088888865,-0.377777804,0,0,0,,,,,,,ARROW,HB,m,y,./images/ARROWHB.png,,,,,,,,m,1,1.3909,,,,,,,,0,148,148,69,1
,,,,,,,,,,,,,,,,,198832,19,2022-02-02_17h19.56.196,lexical_decision_task_DD_L5,2021.2.3,Win32,60.06006006,,,,,,,,,,,0.6344,0,,,,,,,,,,,,,,,,,,,,,,,,-0.088888865,-0.377777804,0,0,0,,,,,,,BABOON,LB,z,y,./images/BABOONLB.png,,,,,,,,m,0,0.6344,,,,,,,,0,149,149,142,1
,,,,,,,,,,,,,,,,,198832,19,2022-02-02_17h19.56.196,lexical_decision_task_DD_L5,2021.2.3,Win32,60.06006006,,,,,,,,,,,1.4493,1,,,,,,,,,,,,,,,,,,,,,,,,-0.088888865,-0.377777804,0,0,0,,,,,,,ONION,HB,z,y,./images/ONIONHB.png,,,,,,,,z,1,1.4493,,,,,,,,0,150,150,135,1
,,,,,,,,,,,,,,,,,198832,19,2022-02-02_17h19.56.196,lexical_decision_task_DD_L5,2021.2.3,Win32,60.06006006,,,,,,,,,,,0.7399,1,,,,,,,,,,,,,,,,,,,,,,,,-0.088888865,-0.377777804,0,0,0,,,,,,,BOILER,HB,m,y,./images/BOILERHB.png,,,,,,,,m,1,0.7399,,,,,,,,0,151,151,36,1
,,,,,,,,,,,,,,,,,198832,19,2022-02-02_17h19.56.196,lexical_decision_task_DD_L5,2021.2.3,Win32,60.06006006,,,,,,,,,,,0.6505,1,,,,,,,,,,,,,,,,,,,,,,,,-0.088888865,-0.377777804,0,0,0,,,,,,,FERRY,HB,m,y,./images/FERRYHB.png,,,,,,,,m,1,0.6505,,,,,,,,0,152,152,57,1
,,,,,,,,,,,,,,,,,198832,19,2022-02-02_17h19.56.196,lexical_decision_task_DD_L5,2021.2.3,Win32,60.06006006,,,,,,,,,,,1.2919,0,,,,,,,,,,,,,,,,,,,,,,,,-0.088888865,-0.377777804,0,0,0,,,,,,,QUILL,LB,z,y,./images/QUILLLB.png,,,,,,,,m,0,1.2919,,,,,,,,0,153,153,115,1
,,,,,,,,,,,,,,,,,198832,19,2022-02-02_17h19.56.196,lexical_decision_task_DD_L5,2021.2.3,Win32,60.06006006,,,,,,,,,,,0.6087,1,,,,,,,,,,,,,,,,,,,,,,,,-0.088888865,-0.377777804,0,0,0,,,,,,,MONKEY,HB,m,y,./images/MONKEYHB.png,,,,,,,,m,1,0.6087,,,,,,,,0,154,154,45,1
,,,,,,,,,,,,,,,,,198832,19,2022-02-02_17h19.56.196,lexical_decision_task_DD_L5,2021.2.3,Win32,60.06006006,,,,,,,,,,,0.6174,0,,,,,,,,,,,,,,,,,,,,,,,,-0.088888865,-0.377777804,0,0,0,,,,,,,PENCE,LB,z,y,./images/PENCELB.png,,,,,,,,m,0,0.6174,,,,,,,,0,155,155,100,1
,,,,,,,,,,,,,,,,,198832,19,2022-02-02_17h19.56.196,lexical_decision_task_DD_L5,2021.2.3,Win32,60.06006006,,,,,,,,,,,0.8192,1,,,,,,,,,,,,,,,,,,,,,,,,-0.088888865,-0.377777804,0,0,0,,,,,,,BUNNY,LB,m,y,./images/BUNNYLB.png,,,,,,,,m,1,0.8192,,,,,,,,0,156,156,13,1
,,,,,,,,,,,,,,,,,198832,19,2022-02-02_17h19.56.196,lexical_decision_task_DD_L5,2021.2.3,Win32,60.06006006,,,,,,,,,,,1.0507,1,,,,,,,,,,,,,,,,,,,,,,,,-0.088888865,-0.377777804,0,0,0,,,,,,,VALLEY,C,m,y,./images/VALLEY.png,,,,,,,,m,1,1.0507,,,,,,,,0,157,157,68,1
,,,,,,,,,,,,,,,,,198832,19,2022-02-02_17h19.56.196,lexical_decision_task_DD_L5,2021.2.3,Win32,60.06006006,,,,,,,,,,,0.852,0,,,,,,,,,,,,,,,,,,,,,,,,-0.088888865,-0.377777804,0,0,0,,,,,,,JUMPER,C,m,y,./images/JUMPER.png,,,,,,,,z,0,0.852,,,,,,,,0,158,158,74,1
,,,,,,,,,,,,,,,,,198832,19,2022-02-02_17h19.56.196,lexical_decision_task_DD_L5,2021.2.3,Win32,60.06006006,,,,,,,,,,,0.7841,1,,,,,,,,,,,,,,,,,,,,,,,,-0.088888865,-0.377777804,0,0,0,,,,,,,STOVE,C,m,y,./images/STOVE.png,,,,,,,,m,1,0.7841,,,,,,,,0,159,159,2,1
,,,,,,,,,,,,,,,,,198832,19,2022-02-02_17h19.56.196,lexical_decision_task_DD_L5,2021.2.3,Win32,60.06006006,,,,,,,,,,,1.0566,1,,,,,,,,,,,,,,,,,,,,,,,,-0.088888865,-0.377777804,0,0,0,,,,,,,RAZOR,LB,m,y,./images/RAZORLB.png,,,,,,,,m,1,1.0566,,,,,,,,0,160,160,34,1
,,,,,,,,,,,,,,,,,198832,19,2022-02-02_17h19.56.196,lexical_decision_task_DD_L5,2021.2.3,Win32,60.06006006,,,,,,,,,,,0.6625,1,,,,,,,,,,,,,,,,,,,,,,,,-0.088888865,-0.377777804,0,0,0,,,,,,,BANANA,LB,m,y,./images/BANANALB.png,,,,,,,,m,1,0.6625,,,,,,,,0,161,161,70,1
,,,,,,,,,,,,,,,,,198832,19,2022-02-02_17h19.56.196,lexical_decision_task_DD_L5,2021.2.3,Win32,60.06006006,,,,,,,,,,,0.909,1,,,,,,,,,,,,,,,,,,,,,,,,-0.088888865,-0.377777804,0,0,0,,,,,,,WALRUS,C,z,y,./images/WALRUS.png,,,,,,,,z,1,0.909,,,,,,,,0,162,162,107,1
,,,,,,,,,,,,,,,,,198832,19,2022-02-02_17h19.56.196,lexical_decision_task_DD_L5,2021.2.3,Win32,60.06006006,,,,,,,,,,,0.6496,1,,,,,,,,,,,,,,,,,,,,,,,,-0.088888865,-0.377777804,0,0,0,,,,,,,CLOTH,C,m,y,./images/CLOTH.png,,,,,,,,m,1,0.6496,,,,,,,,0,163,163,23,1
,,,,,,,,,,,,,,,,,198832,19,2022-02-02_17h19.56.196,lexical_decision_task_DD_L5,2021.2.3,Win32,60.06006006,,,,,,,,,,,1.043,1,,,,,,,,,,,,,,,,,,,,,,,,-0.088888865,-0.377777804,0,0,0,,,,,,,PASTA,C,z,y,./images/PASTA.png,,,,,,,,z,1,1.043,,,,,,,,0,164,164,89,1
,,,,,,,,,,,,,,,,,198832,19,2022-02-02_17h19.56.196,lexical_decision_task_DD_L5,2021.2.3,Win32,60.06006006,,,,,,,,,,,1.3853,0,,,,,,,,,,,,,,,,,,,,,,,,-0.088888865,-0.377777804,0,0,0,,,,,,,MALLET,C,z,y,./images/MALLET.png,,,,,,,,m,0,1.3853,,,,,,,,0,165,165,134,1
,,,,,,,,,,,,,,,,,198832,19,2022-02-02_17h19.56.196,lexical_decision_task_DD_L5,2021.2.3,Win32,60.06006006,,,,,,,,,,,1.0334,1,,,,,,,,,,,,,,,,,,,,,,,,-0.088888865,-0.377777804,0,0,0,,,,,,,SWEAT,HB,z,y,./images/SWEATHB.png,,,,,,,,z,1,1.0334,,,,,,,,0,166,166,150,1
,,,,,,,,,,,,,,,,,198832,19,2022-02-02_17h19.56.196,lexical_decision_task_DD_L5,2021.2.3,Win32,60.06006006,,,,,,,,,,,1.6873,1,,,,,,,,,,,,,,,,,,,,,,,,-0.088888865,-0.377777804,0,0,0,,,,,,,INFANT,LB,z,y,./images/INFANTLB.png,,,,,,,,z,1,1.6873,,,,,,,,0,167,167,160,1
