key_resp.keys,instr_done_touch.x,instr_done_touch.y,instr_done_touch.leftButton,instr_done_touch.midButton,instr_done_touch.rightButton,instr_done_touch.clicked_name,instruction_pages.thisRepN,instruction_pages.thisTrialN,instruction_pages.thisN,instruction_pages.thisIndex,instruction_pages.ran,pageN,phase,instruct_text,has_image,instruct_image,participant,age,date,expName,psychopyVersion,OS,frameRate,key_resp.rt,response.keys,response.corr,response.rt,touch_resp.x,touch_resp.y,touch_resp.leftButton,touch_resp.midButton,touch_resp.rightButton,touch_resp.time,touch_resp.clicked_name,rt,corr,practrials.thisRepN,practrials.thisTrialN,practrials.thisN,practrials.thisIndex,practrials.ran,TrialID,Target,corrAns,end_of_practice_trials_pages.thisRepN,end_of_practice_trials_pages.thisTrialN,end_of_practice_trials_pages.thisN,end_of_practice_trials_pages.thisIndex,end_of_practice_trials_pages.ran,key_resp_2.keys,key_resp_2.corr,key_resp_2.rt,targ_click.x,targ_click.y,targ_click.leftButton,targ_click.midButton,targ_click.rightButton,targ_click.time,targ_click.clicked_name,break_done_touch.x,break_done_touch.y,break_done_touch.leftButton,break_done_touch.midButton,break_done_touch.rightButton,break_done_keyboard.keys,maintrials.thisRepN,maintrials.thisTrialN,maintrials.thisN,maintrials.thisIndex,maintrials.ran,string,blur,study,lex,stim_path,break_done_keyboard.rt,test_instructions.thisRepN,test_instructions.thisTrialN,test_instructions.thisN,test_instructions.thisIndex,test_instructions.ran,key_resp_3.keys,key_resp_3.corr,key_resp_3.rt,test_click.x,test_click.y,test_click.leftButton,test_click.midButton,test_click.rightButton,test_click.time,test_click.clicked_name,test_phase.thisRepN,test_phase.thisTrialN,test_phase.thisN,test_phase.thisIndex,test_phase.ran
,0.063333333,-0.398888889,1,0,0,instr_done_button,0,0,0,0,1,1,instructions,"INSTRUCTIONS
At the start of each trial, look at the plus sign  (+) in the center of the screen.  This tells you that a trial is about to begin and where to look. Second, the plus sign will disappear and a string of letters will appear. Your task is to determine if the string of letters is a word or not. If the item is a word press the M key (on keyboard)  or touch the word button (phone/tablet).  If the item is not a word,  press the  Z key (on keyboard)  or touch the nonword button (on phone/tablet). 
Press the space bar or touch  continue.",0,,198835,19,2022-01-28_22h20.19.791,lexical_decision_task_DD,2021.2.3,MacIntel,62.5,,,,,,,,,,,,,,,,,,,,,,,,,,,,,,,,,,,,,,,,,,,,,,,,,,,,,,,,,,,,,,,,,,,,,,,,,
space,0.303333333,-0.216666667,0,0,0,,0,1,1,1,1,2,instructions,"If your device has a keyboard, press the 'Z' key for nonwords and the 'M' key for words.





Press the space bar or touch the button below to continue.",0,keyboard-example.gif,198835,19,2022-01-28_22h20.19.791,lexical_decision_task_DD,2021.2.3,MacIntel,62.5,7.069,,,,,,,,,,,,,,,,,,,,,,,,,,,,,,,,,,,,,,,,,,,,,,,,,,,,,,,,,,,,,,,,,,,,,,,,
space,0.303333333,-0.216666667,0,0,0,,0,2,2,2,1,3,instructions,"If you are using a touchscreen only device, use the buttons on the screen. Do not use the mouse.





Press the space bar or touch the button below to continue.",0,touchscreen-example.gif,198835,19,2022-01-28_22h20.19.791,lexical_decision_task_DD,2021.2.3,MacIntel,62.5,3.204,,,,,,,,,,,,,,,,,,,,,,,,,,,,,,,,,,,,,,,,,,,,,,,,,,,,,,,,,,,,,,,,,,,,,,,,
space,0.303333333,-0.216666667,0,0,0,,0,3,3,3,1,4,instructions,"It is very important that you respond as quickly and accurately as possible, as each letter string will only be on the screen for two seconds. If you do not respond within this time, the message 'Too slow!' will be displayed and the experiment will progress to the next letter string. The first 20 trials will be practice trials and you will receive feedback on your answers. 

Press the space bar or touch the button below to start the practice trials.",0,,198835,19,2022-01-28_22h20.19.791,lexical_decision_task_DD,2021.2.3,MacIntel,62.5,8.284,,,,,,,,,,,,,,,,,,,,,,,,,,,,,,,,,,,,,,,,,,,,,,,,,,,,,,,,,,,,,,,,,,,,,,,,
,,,,,,,,,,,,,,,,,198835,19,2022-01-28_22h20.19.791,lexical_decision_task_DD,2021.2.3,MacIntel,62.5,,m,1,0.685,,,,,,,,0.685,1,0,0,0,7,1,1001,VOLUME,m,,,,,,,,,,,,,,,,,,,,,,,,,,,,,,,,,,,,,,,,,,,,,,,,,,,,
,,,,,,,,,,,,,,,,,198835,19,2022-01-28_22h20.19.791,lexical_decision_task_DD,2021.2.3,MacIntel,62.5,,z,1,1.022,,,,,,,,1.022,1,0,1,1,13,1,1001,ROUPET,z,,,,,,,,,,,,,,,,,,,,,,,,,,,,,,,,,,,,,,,,,,,,,,,,,,,,
,,,,,,,,,,,,,,,,,198835,19,2022-01-28_22h20.19.791,lexical_decision_task_DD,2021.2.3,MacIntel,62.5,,m,1,0.572,,,,,,,,0.572,1,0,2,2,2,1,1001,ALMOND,m,,,,,,,,,,,,,,,,,,,,,,,,,,,,,,,,,,,,,,,,,,,,,,,,,,,,
,,,,,,,,,,,,,,,,,198835,19,2022-01-28_22h20.19.791,lexical_decision_task_DD,2021.2.3,MacIntel,62.5,,m,1,0.703,,,,,,,,0.703,1,0,3,3,4,1,1001,SQUEAK,m,,,,,,,,,,,,,,,,,,,,,,,,,,,,,,,,,,,,,,,,,,,,,,,,,,,,
,,,,,,,,,,,,,,,,,198835,19,2022-01-28_22h20.19.791,lexical_decision_task_DD,2021.2.3,MacIntel,62.5,,m,1,0.742,,,,,,,,0.742,1,0,4,4,3,1,1001,MATRIX,m,,,,,,,,,,,,,,,,,,,,,,,,,,,,,,,,,,,,,,,,,,,,,,,,,,,,
,,,,,,,,,,,,,,,,,198835,19,2022-01-28_22h20.19.791,lexical_decision_task_DD,2021.2.3,MacIntel,62.5,,z,1,0.66,,,,,,,,0.66,1,0,5,5,10,1,1001,INLADE,z,,,,,,,,,,,,,,,,,,,,,,,,,,,,,,,,,,,,,,,,,,,,,,,,,,,,
,,,,,,,,,,,,,,,,,198835,19,2022-01-28_22h20.19.791,lexical_decision_task_DD,2021.2.3,MacIntel,62.5,,z,1,0.86,,,,,,,,0.86,1,0,6,6,12,1,1001,SPRINY,z,,,,,,,,,,,,,,,,,,,,,,,,,,,,,,,,,,,,,,,,,,,,,,,,,,,,
,,,,,,,,,,,,,,,,,198835,19,2022-01-28_22h20.19.791,lexical_decision_task_DD,2021.2.3,MacIntel,62.5,,m,0,0.861,,,,,,,,0.861,0,0,7,7,9,1,1001,FARINY,z,,,,,,,,,,,,,,,,,,,,,,,,,,,,,,,,,,,,,,,,,,,,,,,,,,,,
,,,,,,,,,,,,,,,,,198835,19,2022-01-28_22h20.19.791,lexical_decision_task_DD,2021.2.3,MacIntel,62.5,,m,1,0.62,,,,,,,,0.62,1,0,8,8,5,1,1001,OBTAIN,m,,,,,,,,,,,,,,,,,,,,,,,,,,,,,,,,,,,,,,,,,,,,,,,,,,,,
,,,,,,,,,,,,,,,,,198835,19,2022-01-28_22h20.19.791,lexical_decision_task_DD,2021.2.3,MacIntel,62.5,,z,1,0.752,,,,,,,,0.752,1,0,9,9,14,1,1001,THRALE,z,,,,,,,,,,,,,,,,,,,,,,,,,,,,,,,,,,,,,,,,,,,,,,,,,,,,
,,,,,,,,,,,,,,,,,198835,19,2022-01-28_22h20.19.791,lexical_decision_task_DD,2021.2.3,MacIntel,62.5,,m,1,0.569,,,,,,,,0.569,1,0,10,10,6,1,1001,ZOMBIE,m,,,,,,,,,,,,,,,,,,,,,,,,,,,,,,,,,,,,,,,,,,,,,,,,,,,,
,,,,,,,,,,,,,,,,,198835,19,2022-01-28_22h20.19.791,lexical_decision_task_DD,2021.2.3,MacIntel,62.5,,z,1,0.671,,,,,,,,0.671,1,0,11,11,15,1,1001,WHAISE,z,,,,,,,,,,,,,,,,,,,,,,,,,,,,,,,,,,,,,,,,,,,,,,,,,,,,
,,,,,,,,,,,,,,,,,198835,19,2022-01-28_22h20.19.791,lexical_decision_task_DD,2021.2.3,MacIntel,62.5,,m,1,0.564,,,,,,,,0.564,1,0,12,12,1,1,1001,ADJUST,m,,,,,,,,,,,,,,,,,,,,,,,,,,,,,,,,,,,,,,,,,,,,,,,,,,,,
,,,,,,,,,,,,,,,,,198835,19,2022-01-28_22h20.19.791,lexical_decision_task_DD,2021.2.3,MacIntel,62.5,,z,1,0.638,,,,,,,,0.638,1,0,13,13,11,1,1001,RASHET,z,,,,,,,,,,,,,,,,,,,,,,,,,,,,,,,,,,,,,,,,,,,,,,,,,,,,
,,,,,,,,,,,,,,,,,198835,19,2022-01-28_22h20.19.791,lexical_decision_task_DD,2021.2.3,MacIntel,62.5,,m,1,0.652,,,,,,,,0.652,1,0,14,14,0,1,1001,UTOPIA,m,,,,,,,,,,,,,,,,,,,,,,,,,,,,,,,,,,,,,,,,,,,,,,,,,,,,
,,,,,,,,,,,,,,,,,198835,19,2022-01-28_22h20.19.791,lexical_decision_task_DD,2021.2.3,MacIntel,62.5,,z,1,0.812,,,,,,,,0.812,1,0,15,15,8,1,1001,ASLERT,z,,,,,,,,,,,,,,,,,,,,,,,,,,,,,,,,,,,,,,,,,,,,,,,,,,,,
space,0.104444444,-0.374444444,0,0,0,,,,,,,1,end_of_practice,"You have completed the practice trials. During the experimental trials, you will not receive feedback. 
Before you begin, please ensure that you are in a comfortable and quiet location and will not be disturbed for about 15 minutes, as we cannot use your data if you do not complete all the trials. 
 When you are ready to start the experimental trials, please press space or touch the button below.",,,198835,19,2022-01-28_22h20.19.791,lexical_decision_task_DD,2021.2.3,MacIntel,62.5,10.494,,,,,,,,,,,,,,,,,,,,,0,0,0,0,1,,,,,,,,,,,,,,,,,,,,,,,,,,,,,,,,,,,,,,,,,,,,,,,
,,,,,,,,,,,,,,,,,198835,19,2022-01-28_22h20.19.791,lexical_decision_task_DD,2021.2.3,MacIntel,62.5,,,,,,,,,,,,1.71,1,,,,,,,,,,,,,,z,1,1.71,,,,,,,,0.302222222,-0.446666667,0,0,0,,0,0,0,95,1,HANTY,LB,old,z,./images/HANTYLB.png,,,,,,,,,,,,,,,,,,,,,
,,,,,,,,,,,,,,,,,198835,19,2022-01-28_22h20.19.791,lexical_decision_task_DD,2021.2.3,MacIntel,62.5,,,,,,,,,,,,0.696,1,,,,,,,,,,,,,,m,1,0.696,,,,,,,,0.302222222,-0.446666667,0,0,0,,0,1,1,8,1,TULIP,LB,old,m,./images/TULIPLB.png,,,,,,,,,,,,,,,,,,,,,
,,,,,,,,,,,,,,,,,198835,19,2022-01-28_22h20.19.791,lexical_decision_task_DD,2021.2.3,MacIntel,62.5,,,,,,,,,,,,0.622,1,,,,,,,,,,,,,,z,1,0.622,,,,,,,,0.302222222,-0.446666667,0,0,0,,0,2,2,135,1,JOODY,C,old,z,./images/JOODY.png,,,,,,,,,,,,,,,,,,,,,
,,,,,,,,,,,,,,,,,198835,19,2022-01-28_22h20.19.791,lexical_decision_task_DD,2021.2.3,MacIntel,62.5,,,,,,,,,,,,1.011,1,,,,,,,,,,,,,,m,1,1.011,,,,,,,,0.302222222,-0.446666667,0,0,0,,0,3,3,58,1,BABOON,HB,old,m,./images/BABOONHB.png,,,,,,,,,,,,,,,,,,,,,
,,,,,,,,,,,,,,,,,198835,19,2022-01-28_22h20.19.791,lexical_decision_task_DD,2021.2.3,MacIntel,62.5,,,,,,,,,,,,0.692,1,,,,,,,,,,,,,,z,1,0.692,,,,,,,,0.302222222,-0.446666667,0,0,0,,0,4,4,147,1,ZOLES,C,old,z,./images/ZOLES.png,,,,,,,,,,,,,,,,,,,,,
,,,,,,,,,,,,,,,,,198835,19,2022-01-28_22h20.19.791,lexical_decision_task_DD,2021.2.3,MacIntel,62.5,,,,,,,,,,,,1.075,0,,,,,,,,,,,,,,m,0,1.075,,,,,,,,0.302222222,-0.446666667,0,0,0,,0,5,5,165,1,TROWN,C,old,z,./images/TROWN.png,,,,,,,,,,,,,,,,,,,,,
,,,,,,,,,,,,,,,,,198835,19,2022-01-28_22h20.19.791,lexical_decision_task_DD,2021.2.3,MacIntel,62.5,,,,,,,,,,,,0.759,1,,,,,,,,,,,,,,m,1,0.759,,,,,,,,0.302222222,-0.446666667,0,0,0,,0,6,6,70,1,URINE,HB,old,m,./images/URINEHB.png,,,,,,,,,,,,,,,,,,,,,
,,,,,,,,,,,,,,,,,198835,19,2022-01-28_22h20.19.791,lexical_decision_task_DD,2021.2.3,MacIntel,62.5,,,,,,,,,,,,0.578,1,,,,,,,,,,,,,,m,1,0.578,,,,,,,,0.302222222,-0.446666667,0,0,0,,0,7,7,1,1,PLANK,HB,old,m,./images/PLANKHB.png,,,,,,,,,,,,,,,,,,,,,
,,,,,,,,,,,,,,,,,198835,19,2022-01-28_22h20.19.791,lexical_decision_task_DD,2021.2.3,MacIntel,62.5,,,,,,,,,,,,0.793,1,,,,,,,,,,,,,,m,1,0.793,,,,,,,,0.302222222,-0.446666667,0,0,0,,0,8,8,61,1,CANDLE,HB,old,m,./images/CANDLEHB.png,,,,,,,,,,,,,,,,,,,,,
,,,,,,,,,,,,,,,,,198835,19,2022-01-28_22h20.19.791,lexical_decision_task_DD,2021.2.3,MacIntel,62.5,,,,,,,,,,,,0.642,1,,,,,,,,,,,,,,z,1,0.642,,,,,,,,0.302222222,-0.446666667,0,0,0,,0,9,9,87,1,TRING,C,old,z,./images/TRING.png,,,,,,,,,,,,,,,,,,,,,
,,,,,,,,,,,,,,,,,198835,19,2022-01-28_22h20.19.791,lexical_decision_task_DD,2021.2.3,MacIntel,62.5,,,,,,,,,,,,0.527,1,,,,,,,,,,,,,,m,1,0.527,,,,,,,,0.302222222,-0.446666667,0,0,0,,0,10,10,2,1,BEARD,LB,old,m,./images/BEARDLB.png,,,,,,,,,,,,,,,,,,,,,
,,,,,,,,,,,,,,,,,198835,19,2022-01-28_22h20.19.791,lexical_decision_task_DD,2021.2.3,MacIntel,62.5,,,,,,,,,,,,0.644,1,,,,,,,,,,,,,,m,1,0.644,,,,,,,,0.302222222,-0.446666667,0,0,0,,0,11,11,52,1,BANNER,HB,old,m,./images/BANNERHB.png,,,,,,,,,,,,,,,,,,,,,
,,,,,,,,,,,,,,,,,198835,19,2022-01-28_22h20.19.791,lexical_decision_task_DD,2021.2.3,MacIntel,62.5,,,,,,,,,,,,0.512,1,,,,,,,,,,,,,,m,1,0.512,,,,,,,,0.302222222,-0.446666667,0,0,0,,0,12,12,77,1,COUCH,LB,old,m,./images/COUCHLB.png,,,,,,,,,,,,,,,,,,,,,
,,,,,,,,,,,,,,,,,198835,19,2022-01-28_22h20.19.791,lexical_decision_task_DD,2021.2.3,MacIntel,62.5,,,,,,,,,,,,0.861,1,,,,,,,,,,,,,,m,1,0.861,,,,,,,,0.302222222,-0.446666667,0,0,0,,0,13,13,43,1,MOSQUE,HB,old,m,./images/MOSQUEHB.png,,,,,,,,,,,,,,,,,,,,,
,,,,,,,,,,,,,,,,,198835,19,2022-01-28_22h20.19.791,lexical_decision_task_DD,2021.2.3,MacIntel,62.5,,,,,,,,,,,,0.577,1,,,,,,,,,,,,,,m,1,0.577,,,,,,,,0.302222222,-0.446666667,0,0,0,,0,14,14,37,1,BIRTH,HB,old,m,./images/BIRTHHB.png,,,,,,,,,,,,,,,,,,,,,
,,,,,,,,,,,,,,,,,198835,19,2022-01-28_22h20.19.791,lexical_decision_task_DD,2021.2.3,MacIntel,62.5,,,,,,,,,,,,0.537,1,,,,,,,,,,,,,,m,1,0.537,,,,,,,,0.302222222,-0.446666667,0,0,0,,0,15,15,56,1,PACKET,LB,old,m,./images/PACKETLB.png,,,,,,,,,,,,,,,,,,,,,
,,,,,,,,,,,,,,,,,198835,19,2022-01-28_22h20.19.791,lexical_decision_task_DD,2021.2.3,MacIntel,62.5,,,,,,,,,,,,0.618,1,,,,,,,,,,,,,,m,1,0.618,,,,,,,,0.302222222,-0.446666667,0,0,0,,0,16,16,69,1,COOKER,C,old,m,./images/COOKER.png,,,,,,,,,,,,,,,,,,,,,
,,,,,,,,,,,,,,,,,198835,19,2022-01-28_22h20.19.791,lexical_decision_task_DD,2021.2.3,MacIntel,62.5,,,,,,,,,,,,0.747,0,,,,,,,,,,,,,,m,0,0.747,,,,,,,,0.302222222,-0.446666667,0,0,0,,0,17,17,166,1,SHORY,HB,old,z,./images/SHORYHB.png,,,,,,,,,,,,,,,,,,,,,
,,,,,,,,,,,,,,,,,198835,19,2022-01-28_22h20.19.791,lexical_decision_task_DD,2021.2.3,MacIntel,62.5,,,,,,,,,,,,0.802,1,,,,,,,,,,,,,,m,1,0.802,,,,,,,,0.302222222,-0.446666667,0,0,0,,0,18,18,36,1,THROAT,C,old,m,./images/THROAT.png,,,,,,,,,,,,,,,,,,,,,
,,,,,,,,,,,,,,,,,198835,19,2022-01-28_22h20.19.791,lexical_decision_task_DD,2021.2.3,MacIntel,62.5,,,,,,,,,,,,0.776,0,,,,,,,,,,,,,,m,0,0.776,,,,,,,,0.302222222,-0.446666667,0,0,0,,0,19,19,140,1,DOVET,LB,old,z,./images/DOVETLB.png,,,,,,,,,,,,,,,,,,,,,
,,,,,,,,,,,,,,,,,198835,19,2022-01-28_22h20.19.791,lexical_decision_task_DD,2021.2.3,MacIntel,62.5,,,,,,,,,,,,0.74,1,,,,,,,,,,,,,,z,1,0.74,,,,,,,,0.302222222,-0.446666667,0,0,0,,0,20,20,157,1,INLER,HB,old,z,./images/INLERHB.png,,,,,,,,,,,,,,,,,,,,,
,,,,,,,,,,,,,,,,,198835,19,2022-01-28_22h20.19.791,lexical_decision_task_DD,2021.2.3,MacIntel,62.5,,,,,,,,,,,,0.963,0,,,,,,,,,,,,,,m,0,0.963,,,,,,,,0.302222222,-0.446666667,0,0,0,,0,21,21,141,1,PLEET,C,old,z,./images/PLEET.png,,,,,,,,,,,,,,,,,,,,,
,,,,,,,,,,,,,,,,,198835,19,2022-01-28_22h20.19.791,lexical_decision_task_DD,2021.2.3,MacIntel,62.5,,,,,,,,,,,,0.562,1,,,,,,,,,,,,,,m,1,0.562,,,,,,,,0.302222222,-0.446666667,0,0,0,,0,22,22,63,1,MIRROR,C,old,m,./images/MIRROR.png,,,,,,,,,,,,,,,,,,,,,
,,,,,,,,,,,,,,,,,198835,19,2022-01-28_22h20.19.791,lexical_decision_task_DD,2021.2.3,MacIntel,62.5,,,,,,,,,,,,0.644,1,,,,,,,,,,,,,,m,1,0.644,,,,,,,,0.302222222,-0.446666667,0,0,0,,0,23,23,68,1,TORCH,LB,old,m,./images/TORCHLB.png,,,,,,,,,,,,,,,,,,,,,
,,,,,,,,,,,,,,,,,198835,19,2022-01-28_22h20.19.791,lexical_decision_task_DD,2021.2.3,MacIntel,62.5,,,,,,,,,,,,0.693,1,,,,,,,,,,,,,,z,1,0.693,,,,,,,,0.302222222,-0.446666667,0,0,0,,0,24,24,112,1,MYING,HB,old,z,./images/MYINGHB.png,,,,,,,,,,,,,,,,,,,,,
,,,,,,,,,,,,,,,,,198835,19,2022-01-28_22h20.19.791,lexical_decision_task_DD,2021.2.3,MacIntel,62.5,,,,,,,,,,,,0.528,1,,,,,,,,,,,,,,m,1,0.528,,,,,,,,0.302222222,-0.446666667,0,0,0,,0,25,25,83,1,JUNGLE,LB,old,m,./images/JUNGLELB.png,,,,,,,,,,,,,,,,,,,,,
,,,,,,,,,,,,,,,,,198835,19,2022-01-28_22h20.19.791,lexical_decision_task_DD,2021.2.3,MacIntel,62.5,,,,,,,,,,,,0.627,0,,,,,,,,,,,,,,m,0,0.627,,,,,,,,0.302222222,-0.446666667,0,0,0,,0,26,26,159,1,CUDDY,C,old,z,./images/CUDDY.png,,,,,,,,,,,,,,,,,,,,,
,,,,,,,,,,,,,,,,,198835,19,2022-01-28_22h20.19.791,lexical_decision_task_DD,2021.2.3,MacIntel,62.5,,,,,,,,,,,,0.61,1,,,,,,,,,,,,,,m,1,0.61,,,,,,,,0.302222222,-0.446666667,0,0,0,,0,27,27,39,1,SHELF,C,old,m,./images/SHELF.png,,,,,,,,,,,,,,,,,,,,,
,,,,,,,,,,,,,,,,,198835,19,2022-01-28_22h20.19.791,lexical_decision_task_DD,2021.2.3,MacIntel,62.5,,,,,,,,,,,,0.869,1,,,,,,,,,,,,,,z,1,0.869,,,,,,,,0.302222222,-0.446666667,0,0,0,,0,28,28,138,1,PLICE,C,old,z,./images/PLICE.png,,,,,,,,,,,,,,,,,,,,,
,,,,,,,,,,,,,,,,,198835,19,2022-01-28_22h20.19.791,lexical_decision_task_DD,2021.2.3,MacIntel,62.5,,,,,,,,,,,,1.103,1,,,,,,,,,,,,,,z,1,1.103,,,,,,,,0.302222222,-0.446666667,0,0,0,,0,29,29,126,1,GUELS,C,old,z,./images/GUELS.png,,,,,,,,,,,,,,,,,,,,,
,,,,,,,,,,,,,,,,,198835,19,2022-01-28_22h20.19.791,lexical_decision_task_DD,2021.2.3,MacIntel,62.5,,,,,,,,,,,,0.597,1,,,,,,,,,,,,,,m,1,0.597,,,,,,,,0.302222222,-0.446666667,0,0,0,,0,30,30,25,1,WRIST,HB,old,m,./images/WRISTHB.png,,,,,,,,,,,,,,,,,,,,,
,,,,,,,,,,,,,,,,,198835,19,2022-01-28_22h20.19.791,lexical_decision_task_DD,2021.2.3,MacIntel,62.5,,,,,,,,,,,,0.603,0,,,,,,,,,,,,,,m,0,0.603,,,,,,,,0.302222222,-0.446666667,0,0,0,,0,31,31,105,1,MOKER,C,old,z,./images/MOKER.png,,,,,,,,,,,,,,,,,,,,,
,,,,,,,,,,,,,,,,,198835,19,2022-01-28_22h20.19.791,lexical_decision_task_DD,2021.2.3,MacIntel,62.5,,,,,,,,,,,,0.694,1,,,,,,,,,,,,,,z,1,0.694,,,,,,,,0.302222222,-0.446666667,0,0,0,,0,32,32,129,1,PRANS,C,old,z,./images/PRANS.png,,,,,,,,,,,,,,,,,,,,,
,,,,,,,,,,,,,,,,,198835,19,2022-01-28_22h20.19.791,lexical_decision_task_DD,2021.2.3,MacIntel,62.5,,,,,,,,,,,,0.576,1,,,,,,,,,,,,,,m,1,0.576,,,,,,,,0.302222222,-0.446666667,0,0,0,,0,33,33,0,1,TOMATO,C,old,m,./images/TOMATO.png,,,,,,,,,,,,,,,,,,,,,
,,,,,,,,,,,,,,,,,198835,19,2022-01-28_22h20.19.791,lexical_decision_task_DD,2021.2.3,MacIntel,62.5,,,,,,,,,,,,0.922,1,,,,,,,,,,,,,,z,1,0.922,,,,,,,,0.302222222,-0.446666667,0,0,0,,0,34,34,142,1,PLASK,HB,old,z,./images/PLASKHB.png,,,,,,,,,,,,,,,,,,,,,
,,,,,,,,,,,,,,,,,198835,19,2022-01-28_22h20.19.791,lexical_decision_task_DD,2021.2.3,MacIntel,62.5,,,,,,,,,,,,0.689,1,,,,,,,,,,,,,,z,1,0.689,,,,,,,,0.302222222,-0.446666667,0,0,0,,0,35,35,120,1,RINED,C,old,z,./images/RINED.png,,,,,,,,,,,,,,,,,,,,,
,,,,,,,,,,,,,,,,,198835,19,2022-01-28_22h20.19.791,lexical_decision_task_DD,2021.2.3,MacIntel,62.5,,,,,,,,,,,,0.87,1,,,,,,,,,,,,,,m,1,0.87,,,,,,,,0.302222222,-0.446666667,0,0,0,,0,36,36,34,1,CANYON,HB,old,m,./images/CANYONHB.png,,,,,,,,,,,,,,,,,,,,,
,,,,,,,,,,,,,,,,,198835,19,2022-01-28_22h20.19.791,lexical_decision_task_DD,2021.2.3,MacIntel,62.5,,,,,,,,,,,,0.629,0,,,,,,,,,,,,,,z,0,0.629,,,,,,,,0.302222222,-0.446666667,0,0,0,,0,37,37,78,1,LITTER,C,old,m,./images/LITTER.png,,,,,,,,,,,,,,,,,,,,,
,,,,,,,,,,,,,,,,,198835,19,2022-01-28_22h20.19.791,lexical_decision_task_DD,2021.2.3,MacIntel,62.5,,,,,,,,,,,,0.925,1,,,,,,,,,,,,,,z,1,0.925,,,,,,,,0.302222222,-0.446666667,0,0,0,,0,38,38,114,1,RIKES,C,old,z,./images/RIKES.png,,,,,,,,,,,,,,,,,,,,,
,,,,,,,,,,,,,,,,,198835,19,2022-01-28_22h20.19.791,lexical_decision_task_DD,2021.2.3,MacIntel,62.5,,,,,,,,,,,,0.676,1,,,,,,,,,,,,,,z,1,0.676,,,,,,,,0.302222222,-0.446666667,0,0,0,,0,39,39,156,1,HIXES,C,old,z,./images/HIXES.png,,,,,,,,,,,,,,,,,,,,,
,,,,,,,,,,,,,,,,,198835,19,2022-01-28_22h20.19.791,lexical_decision_task_DD,2021.2.3,MacIntel,62.5,,,,,,,,,,,,0.896,0,,,,,,,,,,,,,,m,0,0.896,,,,,,,,0.302222222,-0.446666667,0,0,0,,0,40,40,94,1,BLANS,HB,old,z,./images/BLANSHB.png,,,,,,,,,,,,,,,,,,,,,
,,,,,,,,,,,,,,,,,198835,19,2022-01-28_22h20.19.791,lexical_decision_task_DD,2021.2.3,MacIntel,62.5,,,,,,,,,,,,0.881,1,,,,,,,,,,,,,,z,1,0.881,,,,,,,,0.302222222,-0.446666667,0,0,0,space,0,41,41,125,1,MOOKY,LB,old,z,./images/MOOKYLB.png,6.667,,,,,,,,,,,,,,,,,,,,
,,,,,,,,,,,,,,,,,198835,19,2022-01-28_22h20.19.791,lexical_decision_task_DD,2021.2.3,MacIntel,62.5,,,,,,,,,,,,0.528,1,,,,,,,,,,,,,,m,1,0.528,,,,,,,,0.302222222,-0.446666667,0,0,0,,0,42,42,30,1,STORM,C,old,m,./images/STORM.png,,,,,,,,,,,,,,,,,,,,,
,,,,,,,,,,,,,,,,,198835,19,2022-01-28_22h20.19.791,lexical_decision_task_DD,2021.2.3,MacIntel,62.5,,,,,,,,,,,,0.611,1,,,,,,,,,,,,,,z,1,0.611,,,,,,,,0.302222222,-0.446666667,0,0,0,,0,43,43,146,1,MOOST,LB,old,z,./images/MOOSTLB.png,,,,,,,,,,,,,,,,,,,,,
,,,,,,,,,,,,,,,,,198835,19,2022-01-28_22h20.19.791,lexical_decision_task_DD,2021.2.3,MacIntel,62.5,,,,,,,,,,,,0.635,1,,,,,,,,,,,,,,m,1,0.635,,,,,,,,0.302222222,-0.446666667,0,0,0,,0,44,44,50,1,MALLET,LB,old,m,./images/MALLETLB.png,,,,,,,,,,,,,,,,,,,,,
,,,,,,,,,,,,,,,,,198835,19,2022-01-28_22h20.19.791,lexical_decision_task_DD,2021.2.3,MacIntel,62.5,,,,,,,,,,,,0.676,1,,,,,,,,,,,,,,m,1,0.676,,,,,,,,0.302222222,-0.446666667,0,0,0,,0,45,45,64,1,JELLY,HB,old,m,./images/JELLYHB.png,,,,,,,,,,,,,,,,,,,,,
,,,,,,,,,,,,,,,,,198835,19,2022-01-28_22h20.19.791,lexical_decision_task_DD,2021.2.3,MacIntel,62.5,,,,,,,,,,,,0.825,1,,,,,,,,,,,,,,m,1,0.825,,,,,,,,0.302222222,-0.446666667,0,0,0,,0,46,46,82,1,SUNSET,HB,old,m,./images/SUNSETHB.png,,,,,,,,,,,,,,,,,,,,,
,,,,,,,,,,,,,,,,,198835,19,2022-01-28_22h20.19.791,lexical_decision_task_DD,2021.2.3,MacIntel,62.5,,,,,,,,,,,,0.494,1,,,,,,,,,,,,,,m,1,0.494,,,,,,,,0.302222222,-0.446666667,0,0,0,,0,47,47,62,1,PURSE,LB,old,m,./images/PURSELB.png,,,,,,,,,,,,,,,,,,,,,
,,,,,,,,,,,,,,,,,198835,19,2022-01-28_22h20.19.791,lexical_decision_task_DD,2021.2.3,MacIntel,62.5,,,,,,,,,,,,0.424,0,,,,,,,,,,,,,,m,0,0.424,,,,,,,,0.302222222,-0.446666667,0,0,0,,0,48,48,111,1,HOSSE,C,old,z,./images/HOSSE.png,,,,,,,,,,,,,,,,,,,,,
,,,,,,,,,,,,,,,,,198835,19,2022-01-28_22h20.19.791,lexical_decision_task_DD,2021.2.3,MacIntel,62.5,,,,,,,,,,,,0.705,1,,,,,,,,,,,,,,z,1,0.705,,,,,,,,0.302222222,-0.446666667,0,0,0,,0,49,49,167,1,ZONET,LB,old,z,./images/ZONETLB.png,,,,,,,,,,,,,,,,,,,,,
,,,,,,,,,,,,,,,,,198835,19,2022-01-28_22h20.19.791,lexical_decision_task_DD,2021.2.3,MacIntel,62.5,,,,,,,,,,,,0.74,0,,,,,,,,,,,,,,m,0,0.74,,,,,,,,0.302222222,-0.446666667,0,0,0,,0,50,50,104,1,GITTY,LB,old,z,./images/GITTYLB.png,,,,,,,,,,,,,,,,,,,,,
,,,,,,,,,,,,,,,,,198835,19,2022-01-28_22h20.19.791,lexical_decision_task_DD,2021.2.3,MacIntel,62.5,,,,,,,,,,,,0.573,1,,,,,,,,,,,,,,m,1,0.573,,,,,,,,0.302222222,-0.446666667,0,0,0,,0,51,51,3,1,FINGER,C,old,m,./images/FINGER.png,,,,,,,,,,,,,,,,,,,,,
,,,,,,,,,,,,,,,,,198835,19,2022-01-28_22h20.19.791,lexical_decision_task_DD,2021.2.3,MacIntel,62.5,,,,,,,,,,,,0.714,1,,,,,,,,,,,,,,z,1,0.714,,,,,,,,0.302222222,-0.446666667,0,0,0,,0,52,52,149,1,VEASE,LB,old,z,./images/VEASELB.png,,,,,,,,,,,,,,,,,,,,,
,,,,,,,,,,,,,,,,,198835,19,2022-01-28_22h20.19.791,lexical_decision_task_DD,2021.2.3,MacIntel,62.5,,,,,,,,,,,,1.061,1,,,,,,,,,,,,,,z,1,1.061,,,,,,,,0.302222222,-0.446666667,0,0,0,,0,53,53,85,1,CHULK,HB,old,z,./images/CHULKHB.png,,,,,,,,,,,,,,,,,,,,,
,,,,,,,,,,,,,,,,,198835,19,2022-01-28_22h20.19.791,lexical_decision_task_DD,2021.2.3,MacIntel,62.5,,,,,,,,,,,,0.549,1,,,,,,,,,,,,,,m,1,0.549,,,,,,,,0.302222222,-0.446666667,0,0,0,,0,54,54,57,1,MOOSE,C,old,m,./images/MOOSE.png,,,,,,,,,,,,,,,,,,,,,
,,,,,,,,,,,,,,,,,198835,19,2022-01-28_22h20.19.791,lexical_decision_task_DD,2021.2.3,MacIntel,62.5,,,,,,,,,,,,0.706,1,,,,,,,,,,,,,,m,1,0.706,,,,,,,,0.302222222,-0.446666667,0,0,0,,0,55,55,49,1,DRUMS,HB,old,m,./images/DRUMSHB.png,,,,,,,,,,,,,,,,,,,,,
,,,,,,,,,,,,,,,,,198835,19,2022-01-28_22h20.19.791,lexical_decision_task_DD,2021.2.3,MacIntel,62.5,,,,,,,,,,,,0.702,1,,,,,,,,,,,,,,m,1,0.702,,,,,,,,0.302222222,-0.446666667,0,0,0,,0,56,56,81,1,POODLE,C,old,m,./images/POODLE.png,,,,,,,,,,,,,,,,,,,,,
,,,,,,,,,,,,,,,,,198835,19,2022-01-28_22h20.19.791,lexical_decision_task_DD,2021.2.3,MacIntel,62.5,,,,,,,,,,,,0.581,1,,,,,,,,,,,,,,z,1,0.581,,,,,,,,0.302222222,-0.446666667,0,0,0,,0,57,57,113,1,LINEW,LB,old,z,./images/LINEWLB.png,,,,,,,,,,,,,,,,,,,,,
,,,,,,,,,,,,,,,,,198835,19,2022-01-28_22h20.19.791,lexical_decision_task_DD,2021.2.3,MacIntel,62.5,,,,,,,,,,,,0.824,1,,,,,,,,,,,,,,m,1,0.824,,,,,,,,0.302222222,-0.446666667,0,0,0,,0,58,58,22,1,MELON,HB,old,m,./images/MELONHB.png,,,,,,,,,,,,,,,,,,,,,
,,,,,,,,,,,,,,,,,198835,19,2022-01-28_22h20.19.791,lexical_decision_task_DD,2021.2.3,MacIntel,62.5,,,,,,,,,,,,0.55,1,,,,,,,,,,,,,,m,1,0.55,,,,,,,,0.302222222,-0.446666667,0,0,0,,0,59,59,29,1,CRUMB,LB,old,m,./images/CRUMBLB.png,,,,,,,,,,,,,,,,,,,,,
,,,,,,,,,,,,,,,,,198835,19,2022-01-28_22h20.19.791,lexical_decision_task_DD,2021.2.3,MacIntel,62.5,,,,,,,,,,,,0.888,1,,,,,,,,,,,,,,z,1,0.888,,,,,,,,0.302222222,-0.446666667,0,0,0,,0,60,60,91,1,SHENS,HB,old,z,./images/SHENSHB.png,,,,,,,,,,,,,,,,,,,,,
,,,,,,,,,,,,,,,,,198835,19,2022-01-28_22h20.19.791,lexical_decision_task_DD,2021.2.3,MacIntel,62.5,,,,,,,,,,,,0.681,1,,,,,,,,,,,,,,z,1,0.681,,,,,,,,0.302222222,-0.446666667,0,0,0,,0,61,61,131,1,NACES,LB,old,z,./images/NACESLB.png,,,,,,,,,,,,,,,,,,,,,
,,,,,,,,,,,,,,,,,198835,19,2022-01-28_22h20.19.791,lexical_decision_task_DD,2021.2.3,MacIntel,62.5,,,,,,,,,,,,0.609,1,,,,,,,,,,,,,,m,1,0.609,,,,,,,,0.302222222,-0.446666667,0,0,0,,0,62,62,55,1,MUFFIN,HB,old,m,./images/MUFFINHB.png,,,,,,,,,,,,,,,,,,,,,
,,,,,,,,,,,,,,,,,198835,19,2022-01-28_22h20.19.791,lexical_decision_task_DD,2021.2.3,MacIntel,62.5,,,,,,,,,,,,0.675,1,,,,,,,,,,,,,,z,1,0.675,,,,,,,,0.302222222,-0.446666667,0,0,0,,0,63,63,107,1,FASKS,LB,old,z,./images/FASKSLB.png,,,,,,,,,,,,,,,,,,,,,
,,,,,,,,,,,,,,,,,198835,19,2022-01-28_22h20.19.791,lexical_decision_task_DD,2021.2.3,MacIntel,62.5,,,,,,,,,,,,0.884,1,,,,,,,,,,,,,,z,1,0.884,,,,,,,,0.302222222,-0.446666667,0,0,0,,0,64,64,106,1,CLUMS,HB,old,z,./images/CLUMSHB.png,,,,,,,,,,,,,,,,,,,,,
,,,,,,,,,,,,,,,,,198835,19,2022-01-28_22h20.19.791,lexical_decision_task_DD,2021.2.3,MacIntel,62.5,,,,,,,,,,,,0.753,1,,,,,,,,,,,,,,z,1,0.753,,,,,,,,0.302222222,-0.446666667,0,0,0,,0,65,65,143,1,MONGS,LB,old,z,./images/MONGSLB.png,,,,,,,,,,,,,,,,,,,,,
,,,,,,,,,,,,,,,,,198835,19,2022-01-28_22h20.19.791,lexical_decision_task_DD,2021.2.3,MacIntel,62.5,,,,,,,,,,,,0.715,1,,,,,,,,,,,,,,z,1,0.715,,,,,,,,0.302222222,-0.446666667,0,0,0,,0,66,66,116,1,BALGY,LB,old,z,./images/BALGYLB.png,,,,,,,,,,,,,,,,,,,,,
,,,,,,,,,,,,,,,,,198835,19,2022-01-28_22h20.19.791,lexical_decision_task_DD,2021.2.3,MacIntel,62.5,,,,,,,,,,,,1.001,1,,,,,,,,,,,,,,m,1,1.001,,,,,,,,0.302222222,-0.446666667,0,0,0,,0,67,67,20,1,CRADLE,LB,old,m,./images/CRADLELB.png,,,,,,,,,,,,,,,,,,,,,
,,,,,,,,,,,,,,,,,198835,19,2022-01-28_22h20.19.791,lexical_decision_task_DD,2021.2.3,MacIntel,62.5,,,,,,,,,,,,0.555,1,,,,,,,,,,,,,,z,1,0.555,,,,,,,,0.302222222,-0.446666667,0,0,0,,0,68,68,162,1,LEICH,C,old,z,./images/LEICH.png,,,,,,,,,,,,,,,,,,,,,
,,,,,,,,,,,,,,,,,198835,19,2022-01-28_22h20.19.791,lexical_decision_task_DD,2021.2.3,MacIntel,62.5,,,,,,,,,,,,0.645,1,,,,,,,,,,,,,,m,1,0.645,,,,,,,,0.302222222,-0.446666667,0,0,0,,0,69,69,9,1,RHINO,C,old,m,./images/RHINO.png,,,,,,,,,,,,,,,,,,,,,
,,,,,,,,,,,,,,,,,198835,19,2022-01-28_22h20.19.791,lexical_decision_task_DD,2021.2.3,MacIntel,62.5,,,,,,,,,,,,0.781,0,,,,,,,,,,,,,,m,0,0.781,,,,,,,,0.302222222,-0.446666667,0,0,0,,0,70,70,99,1,BACKY,C,old,z,./images/BACKY.png,,,,,,,,,,,,,,,,,,,,,
,,,,,,,,,,,,,,,,,198835,19,2022-01-28_22h20.19.791,lexical_decision_task_DD,2021.2.3,MacIntel,62.5,,,,,,,,,,,,0.625,0,,,,,,,,,,,,,,z,0,0.625,,,,,,,,0.302222222,-0.446666667,0,0,0,,0,71,71,31,1,QUILL,HB,old,m,./images/QUILLHB.png,,,,,,,,,,,,,,,,,,,,,
,,,,,,,,,,,,,,,,,198835,19,2022-01-28_22h20.19.791,lexical_decision_task_DD,2021.2.3,MacIntel,62.5,,,,,,,,,,,,0.641,1,,,,,,,,,,,,,,z,1,0.641,,,,,,,,0.302222222,-0.446666667,0,0,0,,0,72,72,123,1,SEDGE,C,old,z,./images/SEDGE.png,,,,,,,,,,,,,,,,,,,,,
,,,,,,,,,,,,,,,,,198835,19,2022-01-28_22h20.19.791,lexical_decision_task_DD,2021.2.3,MacIntel,62.5,,,,,,,,,,,,0.804,0,,,,,,,,,,,,,,z,0,0.804,,,,,,,,0.302222222,-0.446666667,0,0,0,,0,73,73,76,1,INFANT,HB,old,m,./images/INFANTHB.png,,,,,,,,,,,,,,,,,,,,,
,,,,,,,,,,,,,,,,,198835,19,2022-01-28_22h20.19.791,lexical_decision_task_DD,2021.2.3,MacIntel,62.5,,,,,,,,,,,,0.743,1,,,,,,,,,,,,,,m,1,0.743,,,,,,,,0.302222222,-0.446666667,0,0,0,,0,74,74,4,1,MUSCLE,HB,old,m,./images/MUSCLEHB.png,,,,,,,,,,,,,,,,,,,,,
,,,,,,,,,,,,,,,,,198835,19,2022-01-28_22h20.19.791,lexical_decision_task_DD,2021.2.3,MacIntel,62.5,,,,,,,,,,,,0.976,1,,,,,,,,,,,,,,z,1,0.976,,,,,,,,0.302222222,-0.446666667,0,0,0,,0,75,75,151,1,TINKY,HB,old,z,./images/TINKYHB.png,,,,,,,,,,,,,,,,,,,,,
,,,,,,,,,,,,,,,,,198835,19,2022-01-28_22h20.19.791,lexical_decision_task_DD,2021.2.3,MacIntel,62.5,,,,,,,,,,,,0.726,1,,,,,,,,,,,,,,z,1,0.726,,,,,,,,0.302222222,-0.446666667,0,0,0,,0,76,76,84,1,HAXES,C,old,z,./images/HAXES.png,,,,,,,,,,,,,,,,,,,,,
,,,,,,,,,,,,,,,,,198835,19,2022-01-28_22h20.19.791,lexical_decision_task_DD,2021.2.3,MacIntel,62.5,,,,,,,,,,,,1.042,1,,,,,,,,,,,,,,z,1,1.042,,,,,,,,0.302222222,-0.446666667,0,0,0,,0,77,77,128,1,GRIFT,LB,old,z,./images/GRIFTLB.png,,,,,,,,,,,,,,,,,,,,,
,,,,,,,,,,,,,,,,,198835,19,2022-01-28_22h20.19.791,lexical_decision_task_DD,2021.2.3,MacIntel,62.5,,,,,,,,,,,,0.538,1,,,,,,,,,,,,,,m,1,0.538,,,,,,,,0.302222222,-0.446666667,0,0,0,,0,78,78,45,1,KITTEN,C,old,m,./images/KITTEN.png,,,,,,,,,,,,,,,,,,,,,
,,,,,,,,,,,,,,,,,198835,19,2022-01-28_22h20.19.791,lexical_decision_task_DD,2021.2.3,MacIntel,62.5,,,,,,,,,,,,0.83,1,,,,,,,,,,,,,,z,1,0.83,,,,,,,,0.302222222,-0.446666667,0,0,0,,0,79,79,154,1,THINT,HB,old,z,./images/THINTHB.png,,,,,,,,,,,,,,,,,,,,,
,,,,,,,,,,,,,,,,,198835,19,2022-01-28_22h20.19.791,lexical_decision_task_DD,2021.2.3,MacIntel,62.5,,,,,,,,,,,,0.86,1,,,,,,,,,,,,,,z,1,0.86,,,,,,,,0.302222222,-0.446666667,0,0,0,,0,80,80,108,1,GRUET,C,old,z,./images/GRUET.png,,,,,,,,,,,,,,,,,,,,,
,,,,,,,,,,,,,,,,,198835,19,2022-01-28_22h20.19.791,lexical_decision_task_DD,2021.2.3,MacIntel,62.5,,,,,,,,,,,,0.974,1,,,,,,,,,,,,,,z,1,0.974,,,,,,,,0.302222222,-0.446666667,0,0,0,,0,81,81,139,1,BLEAR,HB,old,z,./images/BLEARHB.png,,,,,,,,,,,,,,,,,,,,,
,,,,,,,,,,,,,,,,,198835,19,2022-01-28_22h20.19.791,lexical_decision_task_DD,2021.2.3,MacIntel,62.5,,,,,,,,,,,,0.593,1,,,,,,,,,,,,,,m,1,0.593,,,,,,,,0.302222222,-0.446666667,0,0,0,,0,82,82,6,1,SQUARE,C,old,m,./images/SQUARE.png,,,,,,,,,,,,,,,,,,,,,
,,,,,,,,,,,,,,,,,198835,19,2022-01-28_22h20.19.791,lexical_decision_task_DD,2021.2.3,MacIntel,62.5,,,,,,,,,,,,0.532,1,,,,,,,,,,,,,,m,1,0.532,,,,,,,,0.302222222,-0.446666667,0,0,0,space,0,83,83,38,1,LADDER,LB,old,m,./images/LADDERLB.png,1.471,,,,,,,,,,,,,,,,,,,,
,,,,,,,,,,,,,,,,,198835,19,2022-01-28_22h20.19.791,lexical_decision_task_DD,2021.2.3,MacIntel,62.5,,,,,,,,,,,,0.734,0,,,,,,,,,,,,,,z,0,0.734,,,,,,,,0.302222222,-0.446666667,0,0,0,,0,84,84,40,1,SWING,HB,old,m,./images/SWINGHB.png,,,,,,,,,,,,,,,,,,,,,
,,,,,,,,,,,,,,,,,198835,19,2022-01-28_22h20.19.791,lexical_decision_task_DD,2021.2.3,MacIntel,62.5,,,,,,,,,,,,0.71,1,,,,,,,,,,,,,,m,1,0.71,,,,,,,,0.302222222,-0.446666667,0,0,0,,0,85,85,67,1,SAILOR,HB,old,m,./images/SAILORHB.png,,,,,,,,,,,,,,,,,,,,,
,,,,,,,,,,,,,,,,,198835,19,2022-01-28_22h20.19.791,lexical_decision_task_DD,2021.2.3,MacIntel,62.5,,,,,,,,,,,,0.491,1,,,,,,,,,,,,,,m,1,0.491,,,,,,,,0.302222222,-0.446666667,0,0,0,,0,86,86,26,1,SMOKER,LB,old,m,./images/SMOKERLB.png,,,,,,,,,,,,,,,,,,,,,
,,,,,,,,,,,,,,,,,198835,19,2022-01-28_22h20.19.791,lexical_decision_task_DD,2021.2.3,MacIntel,62.5,,,,,,,,,,,,0.672,1,,,,,,,,,,,,,,z,1,0.672,,,,,,,,0.302222222,-0.446666667,0,0,0,,0,87,87,89,1,DRIEK,LB,old,z,./images/DRIEKLB.png,,,,,,,,,,,,,,,,,,,,,
,,,,,,,,,,,,,,,,,198835,19,2022-01-28_22h20.19.791,lexical_decision_task_DD,2021.2.3,MacIntel,62.5,,,,,,,,,,,,0.689,1,,,,,,,,,,,,,,z,1,0.689,,,,,,,,0.302222222,-0.446666667,0,0,0,,0,88,88,127,1,NINDY,HB,old,z,./images/NINDYHB.png,,,,,,,,,,,,,,,,,,,,,
,,,,,,,,,,,,,,,,,198835,19,2022-01-28_22h20.19.791,lexical_decision_task_DD,2021.2.3,MacIntel,62.5,,,,,,,,,,,,0.628,0,,,,,,,,,,,,,,m,0,0.628,,,,,,,,0.302222222,-0.446666667,0,0,0,,0,89,89,153,1,CLUPS,C,old,z,./images/CLUPS.png,,,,,,,,,,,,,,,,,,,,,
,,,,,,,,,,,,,,,,,198835,19,2022-01-28_22h20.19.791,lexical_decision_task_DD,2021.2.3,MacIntel,62.5,,,,,,,,,,,,0.744,1,,,,,,,,,,,,,,m,1,0.744,,,,,,,,0.302222222,-0.446666667,0,0,0,,0,90,90,59,1,BURIAL,LB,old,m,./images/BURIALLB.png,,,,,,,,,,,,,,,,,,,,,
,,,,,,,,,,,,,,,,,198835,19,2022-01-28_22h20.19.791,lexical_decision_task_DD,2021.2.3,MacIntel,62.5,,,,,,,,,,,,0.511,1,,,,,,,,,,,,,,m,1,0.511,,,,,,,,0.302222222,-0.446666667,0,0,0,,0,91,91,74,1,CEMENT,LB,old,m,./images/CEMENTLB.png,,,,,,,,,,,,,,,,,,,,,
,,,,,,,,,,,,,,,,,198835,19,2022-01-28_22h20.19.791,lexical_decision_task_DD,2021.2.3,MacIntel,62.5,,,,,,,,,,,,0.843,1,,,,,,,,,,,,,,z,1,0.843,,,,,,,,0.302222222,-0.446666667,0,0,0,,0,92,92,118,1,BAVEL,HB,old,z,./images/BAVELHB.png,,,,,,,,,,,,,,,,,,,,,
,,,,,,,,,,,,,,,,,198835,19,2022-01-28_22h20.19.791,lexical_decision_task_DD,2021.2.3,MacIntel,62.5,,,,,,,,,,,,0.789,1,,,,,,,,,,,,,,z,1,0.789,,,,,,,,0.302222222,-0.446666667,0,0,0,,0,93,93,88,1,GLUSH,HB,old,z,./images/GLUSHHB.png,,,,,,,,,,,,,,,,,,,,,
,,,,,,,,,,,,,,,,,198835,19,2022-01-28_22h20.19.791,lexical_decision_task_DD,2021.2.3,MacIntel,62.5,,,,,,,,,,,,0.538,1,,,,,,,,,,,,,,m,1,0.538,,,,,,,,0.302222222,-0.446666667,0,0,0,,0,94,94,66,1,SWEAT,C,old,m,./images/SWEAT.png,,,,,,,,,,,,,,,,,,,,,
,,,,,,,,,,,,,,,,,198835,19,2022-01-28_22h20.19.791,lexical_decision_task_DD,2021.2.3,MacIntel,62.5,,,,,,,,,,,,0.67,1,,,,,,,,,,,,,,z,1,0.67,,,,,,,,0.302222222,-0.446666667,0,0,0,,0,95,95,136,1,WERVE,HB,old,z,./images/WERVEHB.png,,,,,,,,,,,,,,,,,,,,,
,,,,,,,,,,,,,,,,,198835,19,2022-01-28_22h20.19.791,lexical_decision_task_DD,2021.2.3,MacIntel,62.5,,,,,,,,,,,,0.682,1,,,,,,,,,,,,,,m,1,0.682,,,,,,,,0.302222222,-0.446666667,0,0,0,,0,96,96,7,1,PAINT,HB,old,m,./images/PAINTHB.png,,,,,,,,,,,,,,,,,,,,,
,,,,,,,,,,,,,,,,,198835,19,2022-01-28_22h20.19.791,lexical_decision_task_DD,2021.2.3,MacIntel,62.5,,,,,,,,,,,,0.763,1,,,,,,,,,,,,,,z,1,0.763,,,,,,,,0.302222222,-0.446666667,0,0,0,,0,97,97,109,1,BURGE,HB,old,z,./images/BURGEHB.png,,,,,,,,,,,,,,,,,,,,,
,,,,,,,,,,,,,,,,,198835,19,2022-01-28_22h20.19.791,lexical_decision_task_DD,2021.2.3,MacIntel,62.5,,,,,,,,,,,,0.51,0,,,,,,,,,,,,,,m,0,0.51,,,,,,,,0.302222222,-0.446666667,0,0,0,,0,98,98,93,1,SMONE,C,old,z,./images/SMONE.png,,,,,,,,,,,,,,,,,,,,,
,,,,,,,,,,,,,,,,,198835,19,2022-01-28_22h20.19.791,lexical_decision_task_DD,2021.2.3,MacIntel,62.5,,,,,,,,,,,,0.778,1,,,,,,,,,,,,,,z,1,0.778,,,,,,,,0.302222222,-0.446666667,0,0,0,,0,99,99,97,1,CHIDS,HB,old,z,./images/CHIDSHB.png,,,,,,,,,,,,,,,,,,,,,
,,,,,,,,,,,,,,,,,198835,19,2022-01-28_22h20.19.791,lexical_decision_task_DD,2021.2.3,MacIntel,62.5,,,,,,,,,,,,0.577,1,,,,,,,,,,,,,,z,1,0.577,,,,,,,,0.302222222,-0.446666667,0,0,0,,0,100,100,148,1,JOMS,HB,old,z,./images/JOMSHB.png,,,,,,,,,,,,,,,,,,,,,
,,,,,,,,,,,,,,,,,198835,19,2022-01-28_22h20.19.791,lexical_decision_task_DD,2021.2.3,MacIntel,62.5,,,,,,,,,,,,0.724,1,,,,,,,,,,,,,,z,1,0.724,,,,,,,,0.302222222,-0.446666667,0,0,0,,0,101,101,122,1,BLOOT,LB,old,z,./images/BLOOTLB.png,,,,,,,,,,,,,,,,,,,,,
,,,,,,,,,,,,,,,,,198835,19,2022-01-28_22h20.19.791,lexical_decision_task_DD,2021.2.3,MacIntel,62.5,,,,,,,,,,,,0.663,1,,,,,,,,,,,,,,z,1,0.663,,,,,,,,0.302222222,-0.446666667,0,0,0,,0,102,102,102,1,DULLE,C,old,z,./images/DULLE.png,,,,,,,,,,,,,,,,,,,,,
,,,,,,,,,,,,,,,,,198835,19,2022-01-28_22h20.19.791,lexical_decision_task_DD,2021.2.3,MacIntel,62.5,,,,,,,,,,,,0.621,1,,,,,,,,,,,,,,m,1,0.621,,,,,,,,0.302222222,-0.446666667,0,0,0,,0,103,103,79,1,CRUST,HB,old,m,./images/CRUSTHB.png,,,,,,,,,,,,,,,,,,,,,
,,,,,,,,,,,,,,,,,198835,19,2022-01-28_22h20.19.791,lexical_decision_task_DD,2021.2.3,MacIntel,62.5,,,,,,,,,,,,0.554,1,,,,,,,,,,,,,,m,1,0.554,,,,,,,,0.302222222,-0.446666667,0,0,0,,0,104,104,5,1,PASTA,LB,old,m,./images/PASTALB.png,,,,,,,,,,,,,,,,,,,,,
,,,,,,,,,,,,,,,,,198835,19,2022-01-28_22h20.19.791,lexical_decision_task_DD,2021.2.3,MacIntel,62.5,,,,,,,,,,,,0.671,1,,,,,,,,,,,,,,m,1,0.671,,,,,,,,0.302222222,-0.446666667,0,0,0,,0,105,105,23,1,WALRUS,LB,old,m,./images/WALRUSLB.png,,,,,,,,,,,,,,,,,,,,,
,,,,,,,,,,,,,,,,,198835,19,2022-01-28_22h20.19.791,lexical_decision_task_DD,2021.2.3,MacIntel,62.5,,,,,,,,,,,,0.676,1,,,,,,,,,,,,,,m,1,0.676,,,,,,,,0.302222222,-0.446666667,0,0,0,,0,106,106,18,1,JAGUAR,C,old,m,./images/JAGUAR.png,,,,,,,,,,,,,,,,,,,,,
,,,,,,,,,,,,,,,,,198835,19,2022-01-28_22h20.19.791,lexical_decision_task_DD,2021.2.3,MacIntel,62.5,,,,,,,,,,,,0.704,1,,,,,,,,,,,,,,z,1,0.704,,,,,,,,0.302222222,-0.446666667,0,0,0,,0,107,107,100,1,DRIBS,HB,old,z,./images/DRIBSHB.png,,,,,,,,,,,,,,,,,,,,,
,,,,,,,,,,,,,,,,,198835,19,2022-01-28_22h20.19.791,lexical_decision_task_DD,2021.2.3,MacIntel,62.5,,,,,,,,,,,,0.543,1,,,,,,,,,,,,,,m,1,0.543,,,,,,,,0.302222222,-0.446666667,0,0,0,,0,108,108,24,1,SCREW,C,old,m,./images/SCREW.png,,,,,,,,,,,,,,,,,,,,,
,,,,,,,,,,,,,,,,,198835,19,2022-01-28_22h20.19.791,lexical_decision_task_DD,2021.2.3,MacIntel,62.5,,,,,,,,,,,,0.637,1,,,,,,,,,,,,,,z,1,0.637,,,,,,,,0.302222222,-0.446666667,0,0,0,,0,109,109,90,1,NEAST,C,old,z,./images/NEAST.png,,,,,,,,,,,,,,,,,,,,,
,,,,,,,,,,,,,,,,,198835,19,2022-01-28_22h20.19.791,lexical_decision_task_DD,2021.2.3,MacIntel,62.5,,,,,,,,,,,,0.707,1,,,,,,,,,,,,,,z,1,0.707,,,,,,,,0.302222222,-0.446666667,0,0,0,,0,110,110,119,1,PAFER,LB,old,z,./images/PAFERLB.png,,,,,,,,,,,,,,,,,,,,,
,,,,,,,,,,,,,,,,,198835,19,2022-01-28_22h20.19.791,lexical_decision_task_DD,2021.2.3,MacIntel,62.5,,,,,,,,,,,,0.698,1,,,,,,,,,,,,,,z,1,0.698,,,,,,,,0.302222222,-0.446666667,0,0,0,,0,111,111,96,1,KEAMS,C,old,z,./images/KEAMS.png,,,,,,,,,,,,,,,,,,,,,
,,,,,,,,,,,,,,,,,198835,19,2022-01-28_22h20.19.791,lexical_decision_task_DD,2021.2.3,MacIntel,62.5,,,,,,,,,,,,0.583,1,,,,,,,,,,,,,,m,1,0.583,,,,,,,,0.302222222,-0.446666667,0,0,0,,0,112,112,73,1,SNACK,HB,old,m,./images/SNACKHB.png,,,,,,,,,,,,,,,,,,,,,
,,,,,,,,,,,,,,,,,198835,19,2022-01-28_22h20.19.791,lexical_decision_task_DD,2021.2.3,MacIntel,62.5,,,,,,,,,,,,0.545,1,,,,,,,,,,,,,,m,1,0.545,,,,,,,,0.302222222,-0.446666667,0,0,0,,0,113,113,48,1,SPORT,C,old,m,./images/SPORT.png,,,,,,,,,,,,,,,,,,,,,
,,,,,,,,,,,,,,,,,198835,19,2022-01-28_22h20.19.791,lexical_decision_task_DD,2021.2.3,MacIntel,62.5,,,,,,,,,,,,0.54,1,,,,,,,,,,,,,,m,1,0.54,,,,,,,,0.302222222,-0.446666667,0,0,0,,0,114,114,15,1,GREASE,C,old,m,./images/GREASE.png,,,,,,,,,,,,,,,,,,,,,
,,,,,,,,,,,,,,,,,198835,19,2022-01-28_22h20.19.791,lexical_decision_task_DD,2021.2.3,MacIntel,62.5,,,,,,,,,,,,0.573,1,,,,,,,,,,,,,,z,1,0.573,,,,,,,,0.302222222,-0.446666667,0,0,0,,0,115,115,134,1,TROSS,LB,old,z,./images/TROSSLB.png,,,,,,,,,,,,,,,,,,,,,
,,,,,,,,,,,,,,,,,198835,19,2022-01-28_22h20.19.791,lexical_decision_task_DD,2021.2.3,MacIntel,62.5,,,,,,,,,,,,0.677,1,,,,,,,,,,,,,,z,1,0.677,,,,,,,,0.302222222,-0.446666667,0,0,0,,0,116,116,161,1,BLAPS,LB,old,z,./images/BLAPSLB.png,,,,,,,,,,,,,,,,,,,,,
,,,,,,,,,,,,,,,,,198835,19,2022-01-28_22h20.19.791,lexical_decision_task_DD,2021.2.3,MacIntel,62.5,,,,,,,,,,,,0.777,1,,,,,,,,,,,,,,z,1,0.777,,,,,,,,0.302222222,-0.446666667,0,0,0,,0,117,117,155,1,CANGY,LB,old,z,./images/CANGYLB.png,,,,,,,,,,,,,,,,,,,,,
,,,,,,,,,,,,,,,,,198835,19,2022-01-28_22h20.19.791,lexical_decision_task_DD,2021.2.3,MacIntel,62.5,,,,,,,,,,,,0.668,1,,,,,,,,,,,,,,m,1,0.668,,,,,,,,0.302222222,-0.446666667,0,0,0,,0,118,118,10,1,BELLY,HB,old,m,./images/BELLYHB.png,,,,,,,,,,,,,,,,,,,,,
,,,,,,,,,,,,,,,,,198835,19,2022-01-28_22h20.19.791,lexical_decision_task_DD,2021.2.3,MacIntel,62.5,,,,,,,,,,,,0.728,1,,,,,,,,,,,,,,z,1,0.728,,,,,,,,0.302222222,-0.446666667,0,0,0,,0,119,119,103,1,FLORT,HB,old,z,./images/FLORTHB.png,,,,,,,,,,,,,,,,,,,,,
,,,,,,,,,,,,,,,,,198835,19,2022-01-28_22h20.19.791,lexical_decision_task_DD,2021.2.3,MacIntel,62.5,,,,,,,,,,,,0.822,0,,,,,,,,,,,,,,z,0,0.822,,,,,,,,0.302222222,-0.446666667,0,0,0,,0,120,120,28,1,FALCON,HB,old,m,./images/FALCONHB.png,,,,,,,,,,,,,,,,,,,,,
,,,,,,,,,,,,,,,,,198835,19,2022-01-28_22h20.19.791,lexical_decision_task_DD,2021.2.3,MacIntel,62.5,,,,,,,,,,,,0.693,1,,,,,,,,,,,,,,z,1,0.693,,,,,,,,0.302222222,-0.446666667,0,0,0,,0,121,121,121,1,CEERS,HB,old,z,./images/CEERSHB.png,,,,,,,,,,,,,,,,,,,,,
,,,,,,,,,,,,,,,,,198835,19,2022-01-28_22h20.19.791,lexical_decision_task_DD,2021.2.3,MacIntel,62.5,,,,,,,,,,,,0.671,1,,,,,,,,,,,,,,m,1,0.671,,,,,,,,0.302222222,-0.446666667,0,0,0,,0,122,122,47,1,BERRY,LB,old,m,./images/BERRYLB.png,,,,,,,,,,,,,,,,,,,,,
,,,,,,,,,,,,,,,,,198835,19,2022-01-28_22h20.19.791,lexical_decision_task_DD,2021.2.3,MacIntel,62.5,,,,,,,,,,,,0.578,1,,,,,,,,,,,,,,z,1,0.578,,,,,,,,0.302222222,-0.446666667,0,0,0,,0,123,123,163,1,GAMBA,HB,old,z,./images/GAMBAHB.png,,,,,,,,,,,,,,,,,,,,,
,,,,,,,,,,,,,,,,,198835,19,2022-01-28_22h20.19.791,lexical_decision_task_DD,2021.2.3,MacIntel,62.5,,,,,,,,,,,,0.651,1,,,,,,,,,,,,,,z,1,0.651,,,,,,,,0.302222222,-0.446666667,0,0,0,,0,124,124,130,1,CRILL,HB,old,z,./images/CRILLHB.png,,,,,,,,,,,,,,,,,,,,,
,,,,,,,,,,,,,,,,,198835,19,2022-01-28_22h20.19.791,lexical_decision_task_DD,2021.2.3,MacIntel,62.5,,,,,,,,,,,,0.727,1,,,,,,,,,,,,,,m,1,0.727,,,,,,,,0.302222222,-0.446666667,0,0,0,space,0,125,125,65,1,FARMER,LB,old,m,./images/FARMERLB.png,17.113,,,,,,,,,,,,,,,,,,,,
,,,,,,,,,,,,,,,,,198835,19,2022-01-28_22h20.19.791,lexical_decision_task_DD,2021.2.3,MacIntel,62.5,,,,,,,,,,,,0.789,1,,,,,,,,,,,,,,z,1,0.789,,,,,,,,0.302222222,-0.446666667,0,0,0,,0,126,126,145,1,LAMEL,HB,old,z,./images/LAMELHB.png,,,,,,,,,,,,,,,,,,,,,
,,,,,,,,,,,,,,,,,198835,19,2022-01-28_22h20.19.791,lexical_decision_task_DD,2021.2.3,MacIntel,62.5,,,,,,,,,,,,0.529,1,,,,,,,,,,,,,,m,1,0.529,,,,,,,,0.302222222,-0.446666667,0,0,0,,0,127,127,21,1,KIDNEY,C,old,m,./images/KIDNEY.png,,,,,,,,,,,,,,,,,,,,,
,,,,,,,,,,,,,,,,,198835,19,2022-01-28_22h20.19.791,lexical_decision_task_DD,2021.2.3,MacIntel,62.5,,,,,,,,,,,,0.553,1,,,,,,,,,,,,,,z,1,0.553,,,,,,,,0.302222222,-0.446666667,0,0,0,,0,128,128,117,1,STEEG,C,old,z,./images/STEEG.png,,,,,,,,,,,,,,,,,,,,,
,,,,,,,,,,,,,,,,,198835,19,2022-01-28_22h20.19.791,lexical_decision_task_DD,2021.2.3,MacIntel,62.5,,,,,,,,,,,,0.661,1,,,,,,,,,,,,,,z,1,0.661,,,,,,,,0.302222222,-0.446666667,0,0,0,,0,129,129,92,1,PAIMS,LB,old,z,./images/PAIMSLB.png,,,,,,,,,,,,,,,,,,,,,
,,,,,,,,,,,,,,,,,198835,19,2022-01-28_22h20.19.791,lexical_decision_task_DD,2021.2.3,MacIntel,62.5,,,,,,,,,,,,0.621,1,,,,,,,,,,,,,,m,1,0.621,,,,,,,,0.302222222,-0.446666667,0,0,0,,0,130,130,42,1,FOLDER,C,old,m,./images/FOLDER.png,,,,,,,,,,,,,,,,,,,,,
,,,,,,,,,,,,,,,,,198835,19,2022-01-28_22h20.19.791,lexical_decision_task_DD,2021.2.3,MacIntel,62.5,,,,,,,,,,,,0.605,1,,,,,,,,,,,,,,z,1,0.605,,,,,,,,0.302222222,-0.446666667,0,0,0,,0,131,131,137,1,JOOST,LB,old,z,./images/JOOSTLB.png,,,,,,,,,,,,,,,,,,,,,
,,,,,,,,,,,,,,,,,198835,19,2022-01-28_22h20.19.791,lexical_decision_task_DD,2021.2.3,MacIntel,62.5,,,,,,,,,,,,0.622,1,,,,,,,,,,,,,,m,1,0.622,,,,,,,,0.302222222,-0.446666667,0,0,0,,0,132,132,27,1,ATTIC,C,old,m,./images/ATTIC.png,,,,,,,,,,,,,,,,,,,,,
,,,,,,,,,,,,,,,,,198835,19,2022-01-28_22h20.19.791,lexical_decision_task_DD,2021.2.3,MacIntel,62.5,,,,,,,,,,,,0.994,0,,,,,,,,,,,,,,z,0,0.994,,,,,,,,0.302222222,-0.446666667,0,0,0,,0,133,133,16,1,PENCE,HB,old,m,./images/PENCEHB.png,,,,,,,,,,,,,,,,,,,,,
,,,,,,,,,,,,,,,,,198835,19,2022-01-28_22h20.19.791,lexical_decision_task_DD,2021.2.3,MacIntel,62.5,,,,,,,,,,,,0.971,1,,,,,,,,,,,,,,z,1,0.971,,,,,,,,0.302222222,-0.446666667,0,0,0,,0,134,134,133,1,POWDY,HB,old,z,./images/POWDYHB.png,,,,,,,,,,,,,,,,,,,,,
,,,,,,,,,,,,,,,,,198835,19,2022-01-28_22h20.19.791,lexical_decision_task_DD,2021.2.3,MacIntel,62.5,,,,,,,,,,,,0.595,1,,,,,,,,,,,,,,m,1,0.595,,,,,,,,0.302222222,-0.446666667,0,0,0,,0,135,135,32,1,BARREL,LB,old,m,./images/BARRELLB.png,,,,,,,,,,,,,,,,,,,,,
,,,,,,,,,,,,,,,,,198835,19,2022-01-28_22h20.19.791,lexical_decision_task_DD,2021.2.3,MacIntel,62.5,,,,,,,,,,,,0.574,1,,,,,,,,,,,,,,m,1,0.574,,,,,,,,0.302222222,-0.446666667,0,0,0,,0,136,136,11,1,BONNET,LB,old,m,./images/BONNETLB.png,,,,,,,,,,,,,,,,,,,,,
,,,,,,,,,,,,,,,,,198835,19,2022-01-28_22h20.19.791,lexical_decision_task_DD,2021.2.3,MacIntel,62.5,,,,,,,,,,,,0.67,1,,,,,,,,,,,,,,z,1,0.67,,,,,,,,0.302222222,-0.446666667,0,0,0,,0,137,137,115,1,MAWNS,HB,old,z,./images/MAWNSHB.png,,,,,,,,,,,,,,,,,,,,,
,,,,,,,,,,,,,,,,,198835,19,2022-01-28_22h20.19.791,lexical_decision_task_DD,2021.2.3,MacIntel,62.5,,,,,,,,,,,,0.694,1,,,,,,,,,,,,,,z,1,0.694,,,,,,,,0.302222222,-0.446666667,0,0,0,,0,138,138,160,1,VEETS,HB,old,z,./images/VEETSHB.png,,,,,,,,,,,,,,,,,,,,,
,,,,,,,,,,,,,,,,,198835,19,2022-01-28_22h20.19.791,lexical_decision_task_DD,2021.2.3,MacIntel,62.5,,,,,,,,,,,,0.543,1,,,,,,,,,,,,,,m,1,0.543,,,,,,,,0.302222222,-0.446666667,0,0,0,,0,139,139,60,1,TWINS,C,old,m,./images/TWINS.png,,,,,,,,,,,,,,,,,,,,,
,,,,,,,,,,,,,,,,,198835,19,2022-01-28_22h20.19.791,lexical_decision_task_DD,2021.2.3,MacIntel,62.5,,,,,,,,,,,,0.554,1,,,,,,,,,,,,,,m,1,0.554,,,,,,,,0.302222222,-0.446666667,0,0,0,,0,140,140,41,1,STRING,LB,old,m,./images/STRINGLB.png,,,,,,,,,,,,,,,,,,,,,
,,,,,,,,,,,,,,,,,198835,19,2022-01-28_22h20.19.791,lexical_decision_task_DD,2021.2.3,MacIntel,62.5,,,,,,,,,,,,0.843,1,,,,,,,,,,,,,,m,1,0.843,,,,,,,,0.302222222,-0.446666667,0,0,0,,0,141,141,33,1,MAGGOT,C,old,m,./images/MAGGOT.png,,,,,,,,,,,,,,,,,,,,,
,,,,,,,,,,,,,,,,,198835,19,2022-01-28_22h20.19.791,lexical_decision_task_DD,2021.2.3,MacIntel,62.5,,,,,,,,,,,,0.677,1,,,,,,,,,,,,,,m,1,0.677,,,,,,,,0.302222222,-0.446666667,0,0,0,,0,142,142,51,1,ONION,C,old,m,./images/ONION.png,,,,,,,,,,,,,,,,,,,,,
,,,,,,,,,,,,,,,,,198835,19,2022-01-28_22h20.19.791,lexical_decision_task_DD,2021.2.3,MacIntel,62.5,,,,,,,,,,,,0.677,1,,,,,,,,,,,,,,m,1,0.677,,,,,,,,0.302222222,-0.446666667,0,0,0,,0,143,143,19,1,DOUGH,HB,old,m,./images/DOUGHHB.png,,,,,,,,,,,,,,,,,,,,,
,,,,,,,,,,,,,,,,,198835,19,2022-01-28_22h20.19.791,lexical_decision_task_DD,2021.2.3,MacIntel,62.5,,,,,,,,,,,,0.53,1,,,,,,,,,,,,,,m,1,0.53,,,,,,,,0.302222222,-0.446666667,0,0,0,,0,144,144,75,1,GRAIN,C,old,m,./images/GRAIN.png,,,,,,,,,,,,,,,,,,,,,
,,,,,,,,,,,,,,,,,198835,19,2022-01-28_22h20.19.791,lexical_decision_task_DD,2021.2.3,MacIntel,62.5,,,,,,,,,,,,0.742,1,,,,,,,,,,,,,,z,1,0.742,,,,,,,,0.302222222,-0.446666667,0,0,0,,0,145,145,150,1,NOOLS,C,old,z,./images/NOOLS.png,,,,,,,,,,,,,,,,,,,,,
,,,,,,,,,,,,,,,,,198835,19,2022-01-28_22h20.19.791,lexical_decision_task_DD,2021.2.3,MacIntel,62.5,,,,,,,,,,,,0.905,0,,,,,,,,,,,,,,m,0,0.905,,,,,,,,0.302222222,-0.446666667,0,0,0,,0,146,146,110,1,CRUNK,LB,old,z,./images/CRUNKLB.png,,,,,,,,,,,,,,,,,,,,,
,,,,,,,,,,,,,,,,,198835,19,2022-01-28_22h20.19.791,lexical_decision_task_DD,2021.2.3,MacIntel,62.5,,,,,,,,,,,,0.743,1,,,,,,,,,,,,,,z,1,0.743,,,,,,,,0.302222222,-0.446666667,0,0,0,,0,147,147,86,1,AIFED,LB,old,z,./images/AIFEDLB.png,,,,,,,,,,,,,,,,,,,,,
,,,,,,,,,,,,,,,,,198835,19,2022-01-28_22h20.19.791,lexical_decision_task_DD,2021.2.3,MacIntel,62.5,,,,,,,,,,,,0.642,1,,,,,,,,,,,,,,m,1,0.642,,,,,,,,0.302222222,-0.446666667,0,0,0,,0,148,148,71,1,PIMPLE,LB,old,m,./images/PIMPLELB.png,,,,,,,,,,,,,,,,,,,,,
,,,,,,,,,,,,,,,,,198835,19,2022-01-28_22h20.19.791,lexical_decision_task_DD,2021.2.3,MacIntel,62.5,,,,,,,,,,,,0.661,1,,,,,,,,,,,,,,m,1,0.661,,,,,,,,0.302222222,-0.446666667,0,0,0,,0,149,149,46,1,PEARL,HB,old,m,./images/PEARLHB.png,,,,,,,,,,,,,,,,,,,,,
,,,,,,,,,,,,,,,,,198835,19,2022-01-28_22h20.19.791,lexical_decision_task_DD,2021.2.3,MacIntel,62.5,,,,,,,,,,,,0.493,1,,,,,,,,,,,,,,m,1,0.493,,,,,,,,0.302222222,-0.446666667,0,0,0,,0,150,150,14,1,PICKLE,LB,old,m,./images/PICKLELB.png,,,,,,,,,,,,,,,,,,,,,
,,,,,,,,,,,,,,,,,198835,19,2022-01-28_22h20.19.791,lexical_decision_task_DD,2021.2.3,MacIntel,62.5,,,,,,,,,,,,0.742,1,,,,,,,,,,,,,,z,1,0.742,,,,,,,,0.302222222,-0.446666667,0,0,0,,0,151,151,144,1,NAIRY,C,old,z,./images/NAIRY.png,,,,,,,,,,,,,,,,,,,,,
,,,,,,,,,,,,,,,,,198835,19,2022-01-28_22h20.19.791,lexical_decision_task_DD,2021.2.3,MacIntel,62.5,,,,,,,,,,,,1.022,1,,,,,,,,,,,,,,m,1,1.022,,,,,,,,0.302222222,-0.446666667,0,0,0,,0,152,152,72,1,NOOSE,C,old,m,./images/NOOSE.png,,,,,,,,,,,,,,,,,,,,,
,,,,,,,,,,,,,,,,,198835,19,2022-01-28_22h20.19.791,lexical_decision_task_DD,2021.2.3,MacIntel,62.5,,,,,,,,,,,,0.554,1,,,,,,,,,,,,,,m,1,0.554,,,,,,,,0.302222222,-0.446666667,0,0,0,,0,153,153,80,1,WEASEL,LB,old,m,./images/WEASELLB.png,,,,,,,,,,,,,,,,,,,,,
,,,,,,,,,,,,,,,,,198835,19,2022-01-28_22h20.19.791,lexical_decision_task_DD,2021.2.3,MacIntel,62.5,,,,,,,,,,,,0.712,1,,,,,,,,,,,,,,m,1,0.712,,,,,,,,0.302222222,-0.446666667,0,0,0,,0,154,154,13,1,MOTOR,HB,old,m,./images/MOTORHB.png,,,,,,,,,,,,,,,,,,,,,
,,,,,,,,,,,,,,,,,198835,19,2022-01-28_22h20.19.791,lexical_decision_task_DD,2021.2.3,MacIntel,62.5,,,,,,,,,,,,0.519,1,,,,,,,,,,,,,,m,1,0.519,,,,,,,,0.302222222,-0.446666667,0,0,0,,0,155,155,17,1,SKIING,LB,old,m,./images/SKIINGLB.png,,,,,,,,,,,,,,,,,,,,,
,,,,,,,,,,,,,,,,,198835,19,2022-01-28_22h20.19.791,lexical_decision_task_DD,2021.2.3,MacIntel,62.5,,,,,,,,,,,,0.583,1,,,,,,,,,,,,,,m,1,0.583,,,,,,,,0.302222222,-0.446666667,0,0,0,,0,156,156,54,1,TRIPOD,C,old,m,./images/TRIPOD.png,,,,,,,,,,,,,,,,,,,,,
,,,,,,,,,,,,,,,,,198835,19,2022-01-28_22h20.19.791,lexical_decision_task_DD,2021.2.3,MacIntel,62.5,,,,,,,,,,,,0.696,1,,,,,,,,,,,,,,z,1,0.696,,,,,,,,0.302222222,-0.446666667,0,0,0,,0,157,157,101,1,GLEET,LB,old,z,./images/GLEETLB.png,,,,,,,,,,,,,,,,,,,,,
,,,,,,,,,,,,,,,,,198835,19,2022-01-28_22h20.19.791,lexical_decision_task_DD,2021.2.3,MacIntel,62.5,,,,,,,,,,,,0.861,1,,,,,,,,,,,,,,z,1,0.861,,,,,,,,0.302222222,-0.446666667,0,0,0,,0,158,158,164,1,SGREW,LB,old,z,./images/SGREWLB.png,,,,,,,,,,,,,,,,,,,,,
,,,,,,,,,,,,,,,,,198835,19,2022-01-28_22h20.19.791,lexical_decision_task_DD,2021.2.3,MacIntel,62.5,,,,,,,,,,,,1.14,1,,,,,,,,,,,,,,z,1,1.14,,,,,,,,0.302222222,-0.446666667,0,0,0,,0,159,159,152,1,FRAIN,LB,old,z,./images/FRAINLB.png,,,,,,,,,,,,,,,,,,,,,
,,,,,,,,,,,,,,,,,198835,19,2022-01-28_22h20.19.791,lexical_decision_task_DD,2021.2.3,MacIntel,62.5,,,,,,,,,,,,0.941,1,,,,,,,,,,,,,,z,1,0.941,,,,,,,,0.302222222,-0.446666667,0,0,0,,0,160,160,158,1,EGECT,LB,old,z,./images/EGECTLB.png,,,,,,,,,,,,,,,,,,,,,
,,,,,,,,,,,,,,,,,198835,19,2022-01-28_22h20.19.791,lexical_decision_task_DD,2021.2.3,MacIntel,62.5,,,,,,,,,,,,0.57,1,,,,,,,,,,,,,,m,1,0.57,,,,,,,,0.302222222,-0.446666667,0,0,0,,0,161,161,12,1,SHORE,C,old,m,./images/SHORE.png,,,,,,,,,,,,,,,,,,,,,
,,,,,,,,,,,,,,,,,198835,19,2022-01-28_22h20.19.791,lexical_decision_task_DD,2021.2.3,MacIntel,62.5,,,,,,,,,,,,0.611,1,,,,,,,,,,,,,,z,1,0.611,,,,,,,,0.302222222,-0.446666667,0,0,0,,0,162,162,132,1,SCIFF,C,old,z,./images/SCIFF.png,,,,,,,,,,,,,,,,,,,,,
,,,,,,,,,,,,,,,,,198835,19,2022-01-28_22h20.19.791,lexical_decision_task_DD,2021.2.3,MacIntel,62.5,,,,,,,,,,,,0.495,1,,,,,,,,,,,,,,m,1,0.495,,,,,,,,0.302222222,-0.446666667,0,0,0,,0,163,163,35,1,PEACH,LB,old,m,./images/PEACHLB.png,,,,,,,,,,,,,,,,,,,,,
,,,,,,,,,,,,,,,,,198835,19,2022-01-28_22h20.19.791,lexical_decision_task_DD,2021.2.3,MacIntel,62.5,,,,,,,,,,,,0.843,1,,,,,,,,,,,,,,z,1,0.843,,,,,,,,0.302222222,-0.446666667,0,0,0,,0,164,164,124,1,TUNCH,HB,old,z,./images/TUNCHHB.png,,,,,,,,,,,,,,,,,,,,,
,,,,,,,,,,,,,,,,,198835,19,2022-01-28_22h20.19.791,lexical_decision_task_DD,2021.2.3,MacIntel,62.5,,,,,,,,,,,,0.655,1,,,,,,,,,,,,,,z,1,0.655,,,,,,,,0.302222222,-0.446666667,0,0,0,,0,165,165,98,1,BAMPS,LB,old,z,./images/BAMPSLB.png,,,,,,,,,,,,,,,,,,,,,
,,,,,,,,,,,,,,,,,198835,19,2022-01-28_22h20.19.791,lexical_decision_task_DD,2021.2.3,MacIntel,62.5,,,,,,,,,,,,0.503,1,,,,,,,,,,,,,,m,1,0.503,,,,,,,,0.302222222,-0.446666667,0,0,0,,0,166,166,53,1,CARPET,LB,old,m,./images/CARPETLB.png,,,,,,,,,,,,,,,,,,,,,
,,,,,,,,,,,,,,,,,198835,19,2022-01-28_22h20.19.791,lexical_decision_task_DD,2021.2.3,MacIntel,62.5,,,,,,,,,,,,0.486,0,,,,,,,,,,,,,,z,0,0.486,,,,,,,,0.302222222,-0.446666667,0,0,0,,0,167,167,44,1,LIZARD,LB,old,m,./images/LIZARDLB.png,,,,,,,,,,,,,,,,,,,,,
,0.167777778,-0.402222222,1,0,0,instr_done_button,,,,,,1,test,"In the next phase you will be presented with the words from the the first phase. Your job is to decide whether you remember seeing the word or not. If you remember seeing the word press ""old"" or type ""m"". If you do not remember seeing the word press ""new"" or type ""z"". Please press the space bar or click on continue to begin. ",,,198835,19,2022-01-28_22h20.19.791,lexical_decision_task_DD,2021.2.3,MacIntel,62.5,,,,,,,,,,,,,,,,,,,,,,,,,,,,,,,,,,,,,,,,,,,,,,,,,,,,,,0,0,0,0,1,,,,,,,,,,,,,,,
space,0.167777778,-0.402222222,0,0,0,,,,,,,1,test,"In the next phase you will be presented with the words from the the first phase. Your job is to decide whether you remember seeing the word or not. If you remember seeing the word press ""old"" or type ""m"". If you do not remember seeing the word press ""new"" or type ""z"". Please press the space bar or click on continue to begin. ",,,198835,19,2022-01-28_22h20.19.791,lexical_decision_task_DD,2021.2.3,MacIntel,62.5,2.411,,,,,,,,,,,,,,,,,,,,,,,,,,,,,,,,,,,,,,,,,,,,,,,,,,,,,1,0,1,0,1,,,,,,,,,,,,,,,
space,0.411111111,-0.33,0,0,0,,,,,,,1,test,"In the next phase you will be presented with the words from the the first phase. Your job is to decide whether you remember seeing the word or not. If you remember seeing the word press ""old"" or type ""m"". If you do not remember seeing the word press ""new"" or type ""z"". Please press the space bar or click on continue to begin. ",,,198835,19,2022-01-28_22h20.19.791,lexical_decision_task_DD,2021.2.3,MacIntel,62.5,2.915,,,,,,,,,,,,,,,,,,,,,,,,,,,,,,,,,,,,,,,,,,,,,,,,,,,,,2,0,2,0,1,,,,,,,,,,,,,,,
,0.176666667,-0.38,1,0,0,instr_done_button,,,,,,1,test,"In the next phase you will be presented with the words from the the first phase. Your job is to decide whether you remember seeing the word or not. If you remember seeing the word press ""old"" or type ""m"". If you do not remember seeing the word press ""new"" or type ""z"". Please press the space bar or click on continue to begin. ",,,198835,19,2022-01-28_22h20.19.791,lexical_decision_task_DD,2021.2.3,MacIntel,62.5,,,,,,,,,,,,,,,,,,,,,,,,,,,,,,,,,,,,,,,,,,,,,,,,,,,,,,3,0,3,0,1,,,,,,,,,,,,,,,
space,0.376666667,-0.274444444,0,0,0,,,,,,,1,test,"In the next phase you will be presented with the words from the the first phase. Your job is to decide whether you remember seeing the word or not. If you remember seeing the word press ""old"" or type ""m"". If you do not remember seeing the word press ""new"" or type ""z"". Please press the space bar or click on continue to begin. ",,,198835,19,2022-01-28_22h20.19.791,lexical_decision_task_DD,2021.2.3,MacIntel,62.5,4.595,,,,,,,,,,,,,,,,,,,,,,,,,,,,,,,,,,,,,,,,,,,,,,,,,,,,,4,0,4,0,1,,,,,,,,,,,,,,,
,,,,,,,,,,,,,,,,,198835,19,2022-01-28_22h20.19.791,lexical_decision_task_DD,2021.2.3,MacIntel,62.5,,,,,,,,,,,,1.395,1,,,,,,,,,,,,,,,,,,,,,,,,0.376666667,-0.274444444,0,0,0,,,,,,,LITTER,C,m,m,./images/LITTER.png,,,,,,,m,1,1.395,,,,,,,,0,0,0,78,1
,,,,,,,,,,,,,,,,,198835,19,2022-01-28_22h20.19.791,lexical_decision_task_DD,2021.2.3,MacIntel,62.5,,,,,,,,,,,,0.83,1,,,,,,,,,,,,,,,,,,,,,,,,0.376666667,-0.274444444,0,0,0,,,,,,,CLOUD,LB,z,m,./images/CLOUDLB.png,,,,,,,z,1,0.83,,,,,,,,0,1,1,110,1
,,,,,,,,,,,,,,,,,198835,19,2022-01-28_22h20.19.791,lexical_decision_task_DD,2021.2.3,MacIntel,62.5,,,,,,,,,,,,0.687,1,,,,,,,,,,,,,,,,,,,,,,,,0.376666667,-0.274444444,0,0,0,,,,,,,BISHOP,HB,z,m,./images/BISHOPHB.png,,,,,,,z,1,0.687,,,,,,,,0,2,2,133,1
,,,,,,,,,,,,,,,,,198835,19,2022-01-28_22h20.19.791,lexical_decision_task_DD,2021.2.3,MacIntel,62.5,,,,,,,,,,,,0.776,1,,,,,,,,,,,,,,,,,,,,,,,,0.376666667,-0.274444444,0,0,0,,,,,,,LLAMA,LB,z,m,./images/LLAMALB.png,,,,,,,z,1,0.776,,,,,,,,0,3,3,119,1
,,,,,,,,,,,,,,,,,198835,19,2022-01-28_22h20.19.791,lexical_decision_task_DD,2021.2.3,MacIntel,62.5,,,,,,,,,,,,0.959,1,,,,,,,,,,,,,,,,,,,,,,,,0.376666667,-0.274444444,0,0,0,,,,,,,BOILER,C,z,m,./images/BOILER.png,,,,,,,z,1,0.959,,,,,,,,0,4,4,120,1
,,,,,,,,,,,,,,,,,198835,19,2022-01-28_22h20.19.791,lexical_decision_task_DD,2021.2.3,MacIntel,62.5,,,,,,,,,,,,0.723,1,,,,,,,,,,,,,,,,,,,,,,,,0.376666667,-0.274444444,0,0,0,,,,,,,KITTEN,C,m,m,./images/KITTEN.png,,,,,,,m,1,0.723,,,,,,,,0,5,5,45,1
,,,,,,,,,,,,,,,,,198835,19,2022-01-28_22h20.19.791,lexical_decision_task_DD,2021.2.3,MacIntel,62.5,,,,,,,,,,,,0.677,1,,,,,,,,,,,,,,,,,,,,,,,,0.376666667,-0.274444444,0,0,0,,,,,,,SWING,HB,m,m,./images/SWINGHB.png,,,,,,,m,1,0.677,,,,,,,,0,6,6,40,1
,,,,,,,,,,,,,,,,,198835,19,2022-01-28_22h20.19.791,lexical_decision_task_DD,2021.2.3,MacIntel,62.5,,,,,,,,,,,,0.778,0,,,,,,,,,,,,,,,,,,,,,,,,0.376666667,-0.274444444,0,0,0,,,,,,,DONKEY,HB,z,m,./images/DONKEYHB.png,,,,,,,m,0,0.778,,,,,,,,0,7,7,103,1
,,,,,,,,,,,,,,,,,198835,19,2022-01-28_22h20.19.791,lexical_decision_task_DD,2021.2.3,MacIntel,62.5,,,,,,,,,,,,0.838,0,,,,,,,,,,,,,,,,,,,,,,,,0.376666667,-0.274444444,0,0,0,,,,,,,SPORT,C,m,m,./images/SPORT.png,,,,,,,z,0,0.838,,,,,,,,0,8,8,48,1
,,,,,,,,,,,,,,,,,198835,19,2022-01-28_22h20.19.791,lexical_decision_task_DD,2021.2.3,MacIntel,62.5,,,,,,,,,,,,0.786,1,,,,,,,,,,,,,,,,,,,,,,,,0.376666667,-0.274444444,0,0,0,,,,,,,GRAPE,HB,z,m,./images/GRAPEHB.png,,,,,,,z,1,0.786,,,,,,,,0,9,9,100,1
,,,,,,,,,,,,,,,,,198835,19,2022-01-28_22h20.19.791,lexical_decision_task_DD,2021.2.3,MacIntel,62.5,,,,,,,,,,,,0.971,1,,,,,,,,,,,,,,,,,,,,,,,,0.376666667,-0.274444444,0,0,0,,,,,,,PARCEL,C,z,m,./images/PARCEL.png,,,,,,,z,1,0.971,,,,,,,,0,10,10,102,1
,,,,,,,,,,,,,,,,,198835,19,2022-01-28_22h20.19.791,lexical_decision_task_DD,2021.2.3,MacIntel,62.5,,,,,,,,,,,,0.594,1,,,,,,,,,,,,,,,,,,,,,,,,0.376666667,-0.274444444,0,0,0,,,,,,,PIMPLE,LB,m,m,./images/PIMPLELB.png,,,,,,,m,1,0.594,,,,,,,,0,11,11,71,1
,,,,,,,,,,,,,,,,,198835,19,2022-01-28_22h20.19.791,lexical_decision_task_DD,2021.2.3,MacIntel,62.5,,,,,,,,,,,,0.786,1,,,,,,,,,,,,,,,,,,,,,,,,0.376666667,-0.274444444,0,0,0,,,,,,,COLLAR,C,z,m,./images/COLLAR.png,,,,,,,z,1,0.786,,,,,,,,0,12,12,99,1
,,,,,,,,,,,,,,,,,198835,19,2022-01-28_22h20.19.791,lexical_decision_task_DD,2021.2.3,MacIntel,62.5,,,,,,,,,,,,0.613,1,,,,,,,,,,,,,,,,,,,,,,,,0.376666667,-0.274444444,0,0,0,,,,,,,SHELF,C,m,m,./images/SHELF.png,,,,,,,m,1,0.613,,,,,,,,0,13,13,39,1
,,,,,,,,,,,,,,,,,198835,19,2022-01-28_22h20.19.791,lexical_decision_task_DD,2021.2.3,MacIntel,62.5,,,,,,,,,,,,0.659,1,,,,,,,,,,,,,,,,,,,,,,,,0.376666667,-0.274444444,0,0,0,,,,,,,DRUMS,HB,m,m,./images/DRUMSHB.png,,,,,,,m,1,0.659,,,,,,,,0,14,14,49,1
,,,,,,,,,,,,,,,,,198835,19,2022-01-28_22h20.19.791,lexical_decision_task_DD,2021.2.3,MacIntel,62.5,,,,,,,,,,,,0.676,0,,,,,,,,,,,,,,,,,,,,,,,,0.376666667,-0.274444444,0,0,0,,,,,,,CHERRY,C,z,m,./images/CHERRY.png,,,,,,,m,0,0.676,,,,,,,,0,15,15,138,1
,,,,,,,,,,,,,,,,,198835,19,2022-01-28_22h20.19.791,lexical_decision_task_DD,2021.2.3,MacIntel,62.5,,,,,,,,,,,,1.345,0,,,,,,,,,,,,,,,,,,,,,,,,0.376666667,-0.274444444,0,0,0,,,,,,,STREAM,LB,z,m,./images/STREAMLB.png,,,,,,,m,0,1.345,,,,,,,,0,16,16,125,1
,,,,,,,,,,,,,,,,,198835,19,2022-01-28_22h20.19.791,lexical_decision_task_DD,2021.2.3,MacIntel,62.5,,,,,,,,,,,,0.691,1,,,,,,,,,,,,,,,,,,,,,,,,0.376666667,-0.274444444,0,0,0,,,,,,,RHINO,C,m,m,./images/RHINO.png,,,,,,,m,1,0.691,,,,,,,,0,17,17,9,1
,,,,,,,,,,,,,,,,,198835,19,2022-01-28_22h20.19.791,lexical_decision_task_DD,2021.2.3,MacIntel,62.5,,,,,,,,,,,,0.894,0,,,,,,,,,,,,,,,,,,,,,,,,0.376666667,-0.274444444,0,0,0,,,,,,,DRILL,C,z,m,./images/DRILL.png,,,,,,,m,0,0.894,,,,,,,,0,18,18,165,1
,,,,,,,,,,,,,,,,,198835,19,2022-01-28_22h20.19.791,lexical_decision_task_DD,2021.2.3,MacIntel,62.5,,,,,,,,,,,,0.687,1,,,,,,,,,,,,,,,,,,,,,,,,0.376666667,-0.274444444,0,0,0,,,,,,,ONION,C,m,m,./images/ONION.png,,,,,,,m,1,0.687,,,,,,,,0,19,19,51,1
,,,,,,,,,,,,,,,,,198835,19,2022-01-28_22h20.19.791,lexical_decision_task_DD,2021.2.3,MacIntel,62.5,,,,,,,,,,,,0.929,1,,,,,,,,,,,,,,,,,,,,,,,,0.376666667,-0.274444444,0,0,0,,,,,,,STEAK,HB,z,m,./images/STEAKHB.png,,,,,,,z,1,0.929,,,,,,,,0,20,20,115,1
,,,,,,,,,,,,,,,,,198835,19,2022-01-28_22h20.19.791,lexical_decision_task_DD,2021.2.3,MacIntel,62.5,,,,,,,,,,,,0.859,1,,,,,,,,,,,,,,,,,,,,,,,,0.376666667,-0.274444444,0,0,0,,,,,,,FENCE,LB,z,m,./images/FENCELB.png,,,,,,,z,1,0.859,,,,,,,,0,21,21,98,1
,,,,,,,,,,,,,,,,,198835,19,2022-01-28_22h20.19.791,lexical_decision_task_DD,2021.2.3,MacIntel,62.5,,,,,,,,,,,,1.031,1,,,,,,,,,,,,,,,,,,,,,,,,0.376666667,-0.274444444,0,0,0,,,,,,,PLANK,HB,m,m,./images/PLANKHB.png,,,,,,,m,1,1.031,,,,,,,,0,22,22,1,1
,,,,,,,,,,,,,,,,,198835,19,2022-01-28_22h20.19.791,lexical_decision_task_DD,2021.2.3,MacIntel,62.5,,,,,,,,,,,,1.05,1,,,,,,,,,,,,,,,,,,,,,,,,0.376666667,-0.274444444,0,0,0,,,,,,,PEARL,HB,m,m,./images/PEARLHB.png,,,,,,,m,1,1.05,,,,,,,,0,23,23,46,1
,,,,,,,,,,,,,,,,,198835,19,2022-01-28_22h20.19.791,lexical_decision_task_DD,2021.2.3,MacIntel,62.5,,,,,,,,,,,,1.037,1,,,,,,,,,,,,,,,,,,,,,,,,0.376666667,-0.274444444,0,0,0,,,,,,,STORM,C,m,m,./images/STORM.png,,,,,,,m,1,1.037,,,,,,,,0,24,24,30,1
,,,,,,,,,,,,,,,,,198835,19,2022-01-28_22h20.19.791,lexical_decision_task_DD,2021.2.3,MacIntel,62.5,,,,,,,,,,,,0.727,1,,,,,,,,,,,,,,,,,,,,,,,,0.376666667,-0.274444444,0,0,0,,,,,,,SMOKER,LB,m,m,./images/SMOKERLB.png,,,,,,,m,1,0.727,,,,,,,,0,25,25,26,1
,,,,,,,,,,,,,,,,,198835,19,2022-01-28_22h20.19.791,lexical_decision_task_DD,2021.2.3,MacIntel,62.5,,,,,,,,,,,,0.788,0,,,,,,,,,,,,,,,,,,,,,,,,0.376666667,-0.274444444,0,0,0,,,,,,,ARROW,C,z,m,./images/ARROW.png,,,,,,,m,0,0.788,,,,,,,,0,26,26,153,1
,,,,,,,,,,,,,,,,,198835,19,2022-01-28_22h20.19.791,lexical_decision_task_DD,2021.2.3,MacIntel,62.5,,,,,,,,,,,,0.69,1,,,,,,,,,,,,,,,,,,,,,,,,0.376666667,-0.274444444,0,0,0,,,,,,,CARPET,LB,m,m,./images/CARPETLB.png,,,,,,,m,1,0.69,,,,,,,,0,27,27,53,1
,,,,,,,,,,,,,,,,,198835,19,2022-01-28_22h20.19.791,lexical_decision_task_DD,2021.2.3,MacIntel,62.5,,,,,,,,,,,,0.717,1,,,,,,,,,,,,,,,,,,,,,,,,0.376666667,-0.274444444,0,0,0,,,,,,,NOOSE,C,m,m,./images/NOOSE.png,,,,,,,m,1,0.717,,,,,,,,0,28,28,72,1
,,,,,,,,,,,,,,,,,198835,19,2022-01-28_22h20.19.791,lexical_decision_task_DD,2021.2.3,MacIntel,62.5,,,,,,,,,,,,0.769,1,,,,,,,,,,,,,,,,,,,,,,,,0.376666667,-0.274444444,0,0,0,,,,,,,WALRUS,LB,m,m,./images/WALRUSLB.png,,,,,,,m,1,0.769,,,,,,,,0,29,29,23,1
,,,,,,,,,,,,,,,,,198835,19,2022-01-28_22h20.19.791,lexical_decision_task_DD,2021.2.3,MacIntel,62.5,,,,,,,,,,,,0.563,1,,,,,,,,,,,,,,,,,,,,,,,,0.376666667,-0.274444444,0,0,0,,,,,,,PEACH,LB,m,m,./images/PEACHLB.png,,,,,,,m,1,0.563,,,,,,,,0,30,30,35,1
,,,,,,,,,,,,,,,,,198835,19,2022-01-28_22h20.19.791,lexical_decision_task_DD,2021.2.3,MacIntel,62.5,,,,,,,,,,,,0.66,1,,,,,,,,,,,,,,,,,,,,,,,,0.376666667,-0.274444444,0,0,0,,,,,,,BARREL,LB,m,m,./images/BARRELLB.png,,,,,,,m,1,0.66,,,,,,,,0,31,31,32,1
,,,,,,,,,,,,,,,,,198835,19,2022-01-28_22h20.19.791,lexical_decision_task_DD,2021.2.3,MacIntel,62.5,,,,,,,,,,,,0.686,1,,,,,,,,,,,,,,,,,,,,,,,,0.376666667,-0.274444444,0,0,0,,,,,,,HOCKEY,LB,z,m,./images/HOCKEYLB.png,,,,,,,z,1,0.686,,,,,,,,0,32,32,116,1
,,,,,,,,,,,,,,,,,198835,19,2022-01-28_22h20.19.791,lexical_decision_task_DD,2021.2.3,MacIntel,62.5,,,,,,,,,,,,0.762,1,,,,,,,,,,,,,,,,,,,,,,,,0.376666667,-0.274444444,0,0,0,,,,,,,TOMATO,C,m,m,./images/TOMATO.png,,,,,,,m,1,0.762,,,,,,,,0,33,33,0,1
,,,,,,,,,,,,,,,,,198835,19,2022-01-28_22h20.19.791,lexical_decision_task_DD,2021.2.3,MacIntel,62.5,,,,,,,,,,,,1.011,1,,,,,,,,,,,,,,,,,,,,,,,,0.376666667,-0.274444444,0,0,0,,,,,,,CURRY,C,z,m,./images/CURRY.png,,,,,,,z,1,1.011,,,,,,,,0,34,34,144,1
,,,,,,,,,,,,,,,,,198835,19,2022-01-28_22h20.19.791,lexical_decision_task_DD,2021.2.3,MacIntel,62.5,,,,,,,,,,,,0.638,1,,,,,,,,,,,,,,,,,,,,,,,,0.376666667,-0.274444444,0,0,0,,,,,,,ATTIC,C,m,m,./images/ATTIC.png,,,,,,,m,1,0.638,,,,,,,,0,35,35,27,1
,,,,,,,,,,,,,,,,,198835,19,2022-01-28_22h20.19.791,lexical_decision_task_DD,2021.2.3,MacIntel,62.5,,,,,,,,,,,,0.837,0,,,,,,,,,,,,,,,,,,,,,,,,0.376666667,-0.274444444,0,0,0,,,,,,,BAMBOO,LB,z,m,./images/BAMBOOLB.png,,,,,,,m,0,0.837,,,,,,,,0,36,36,89,1
,,,,,,,,,,,,,,,,,198835,19,2022-01-28_22h20.19.791,lexical_decision_task_DD,2021.2.3,MacIntel,62.5,,,,,,,,,,,,0.604,1,,,,,,,,,,,,,,,,,,,,,,,,0.376666667,-0.274444444,0,0,0,,,,,,,SKIING,LB,m,m,./images/SKIINGLB.png,,,,,,,m,1,0.604,,,,,,,,0,37,37,17,1
,,,,,,,,,,,,,,,,,198835,19,2022-01-28_22h20.19.791,lexical_decision_task_DD,2021.2.3,MacIntel,62.5,,,,,,,,,,,,0.712,1,,,,,,,,,,,,,,,,,,,,,,,,0.376666667,-0.274444444,0,0,0,,,,,,,PEBBLE,HB,z,m,./images/PEBBLEHB.png,,,,,,,z,1,0.712,,,,,,,,0,38,38,166,1
,,,,,,,,,,,,,,,,,198835,19,2022-01-28_22h20.19.791,lexical_decision_task_DD,2021.2.3,MacIntel,62.5,,,,,,,,,,,,0.744,0,,,,,,,,,,,,,,,,,,,,,,,,0.376666667,-0.274444444,0,0,0,,,,,,,WAGON,HB,z,m,./images/WAGONHB.png,,,,,,,m,0,0.744,,,,,,,,0,39,39,91,1
,,,,,,,,,,,,,,,,,198835,19,2022-01-28_22h20.19.791,lexical_decision_task_DD,2021.2.3,MacIntel,62.5,,,,,,,,,,,,0.738,1,,,,,,,,,,,,,,,,,,,,,,,,0.376666667,-0.274444444,0,0,0,,,,,,,HAMMER,C,z,m,./images/HAMMER.png,,,,,,,z,1,0.738,,,,,,,,0,40,40,159,1
,,,,,,,,,,,,,,,,,198835,19,2022-01-28_22h20.19.791,lexical_decision_task_DD,2021.2.3,MacIntel,62.5,,,,,,,,,,,,0.562,1,,,,,,,,,,,,,,,,,,,,,,,,0.376666667,-0.274444444,0,0,0,space,,,,,,MIRROR,C,m,m,./images/MIRROR.png,1.091,,,,,,m,1,0.562,,,,,,,,0,41,41,63,1
,,,,,,,,,,,,,,,,,198835,19,2022-01-28_22h20.19.791,lexical_decision_task_DD,2021.2.3,MacIntel,62.5,,,,,,,,,,,,0.594,1,,,,,,,,,,,,,,,,,,,,,,,,0.376666667,-0.274444444,0,0,0,,,,,,,COUCH,LB,m,m,./images/COUCHLB.png,,,,,,,m,1,0.594,,,,,,,,0,42,42,77,1
,,,,,,,,,,,,,,,,,198835,19,2022-01-28_22h20.19.791,lexical_decision_task_DD,2021.2.3,MacIntel,62.5,,,,,,,,,,,,0.672,1,,,,,,,,,,,,,,,,,,,,,,,,0.376666667,-0.274444444,0,0,0,,,,,,,BERRY,LB,m,m,./images/BERRYLB.png,,,,,,,m,1,0.672,,,,,,,,0,43,43,47,1
,,,,,,,,,,,,,,,,,198835,19,2022-01-28_22h20.19.791,lexical_decision_task_DD,2021.2.3,MacIntel,62.5,,,,,,,,,,,,0.788,1,,,,,,,,,,,,,,,,,,,,,,,,0.376666667,-0.274444444,0,0,0,,,,,,,CRATER,C,z,m,./images/CRATER.png,,,,,,,z,1,0.788,,,,,,,,0,44,44,87,1
,,,,,,,,,,,,,,,,,198835,19,2022-01-28_22h20.19.791,lexical_decision_task_DD,2021.2.3,MacIntel,62.5,,,,,,,,,,,,0.658,1,,,,,,,,,,,,,,,,,,,,,,,,0.376666667,-0.274444444,0,0,0,,,,,,,CANDLE,HB,m,m,./images/CANDLEHB.png,,,,,,,m,1,0.658,,,,,,,,0,45,45,61,1
,,,,,,,,,,,,,,,,,198835,19,2022-01-28_22h20.19.791,lexical_decision_task_DD,2021.2.3,MacIntel,62.5,,,,,,,,,,,,1.011,1,,,,,,,,,,,,,,,,,,,,,,,,0.376666667,-0.274444444,0,0,0,,,,,,,PLANET,LB,z,m,./images/PLANETLB.png,,,,,,,z,1,1.011,,,,,,,,0,46,46,164,1
,,,,,,,,,,,,,,,,,198835,19,2022-01-28_22h20.19.791,lexical_decision_task_DD,2021.2.3,MacIntel,62.5,,,,,,,,,,,,1.568,0,,,,,,,,,,,,,,,,,,,,,,,,0.376666667,-0.274444444,0,0,0,,,,,,,GRAIN,C,m,m,./images/GRAIN.png,,,,,,,z,0,1.568,,,,,,,,0,47,47,75,1
,,,,,,,,,,,,,,,,,198835,19,2022-01-28_22h20.19.791,lexical_decision_task_DD,2021.2.3,MacIntel,62.5,,,,,,,,,,,,0.944,1,,,,,,,,,,,,,,,,,,,,,,,,0.376666667,-0.274444444,0,0,0,,,,,,,GRANNY,LB,z,m,./images/GRANNYLB.png,,,,,,,z,1,0.944,,,,,,,,0,48,48,104,1
,,,,,,,,,,,,,,,,,198835,19,2022-01-28_22h20.19.791,lexical_decision_task_DD,2021.2.3,MacIntel,62.5,,,,,,,,,,,,1.13,1,,,,,,,,,,,,,,,,,,,,,,,,0.376666667,-0.274444444,0,0,0,,,,,,,STAIN,C,z,m,./images/STAIN.png,,,,,,,z,1,1.13,,,,,,,,0,49,49,90,1
,,,,,,,,,,,,,,,,,198835,19,2022-01-28_22h20.19.791,lexical_decision_task_DD,2021.2.3,MacIntel,62.5,,,,,,,,,,,,0.786,1,,,,,,,,,,,,,,,,,,,,,,,,0.376666667,-0.274444444,0,0,0,,,,,,,BANANA,HB,z,m,./images/BANANAHB.png,,,,,,,z,1,0.786,,,,,,,,0,50,50,154,1
,,,,,,,,,,,,,,,,,198835,19,2022-01-28_22h20.19.791,lexical_decision_task_DD,2021.2.3,MacIntel,62.5,,,,,,,,,,,,0.708,1,,,,,,,,,,,,,,,,,,,,,,,,0.376666667,-0.274444444,0,0,0,,,,,,,FOLDER,C,m,m,./images/FOLDER.png,,,,,,,m,1,0.708,,,,,,,,0,51,51,42,1
,,,,,,,,,,,,,,,,,198835,19,2022-01-28_22h20.19.791,lexical_decision_task_DD,2021.2.3,MacIntel,62.5,,,,,,,,,,,,0.593,1,,,,,,,,,,,,,,,,,,,,,,,,0.376666667,-0.274444444,0,0,0,,,,,,,KIDNEY,C,m,m,./images/KIDNEY.png,,,,,,,m,1,0.593,,,,,,,,0,52,52,21,1
,,,,,,,,,,,,,,,,,198835,19,2022-01-28_22h20.19.791,lexical_decision_task_DD,2021.2.3,MacIntel,62.5,,,,,,,,,,,,0.595,1,,,,,,,,,,,,,,,,,,,,,,,,0.376666667,-0.274444444,0,0,0,,,,,,,BONNET,LB,m,m,./images/BONNETLB.png,,,,,,,m,1,0.595,,,,,,,,0,53,53,11,1
,,,,,,,,,,,,,,,,,198835,19,2022-01-28_22h20.19.791,lexical_decision_task_DD,2021.2.3,MacIntel,62.5,,,,,,,,,,,,1.055,0,,,,,,,,,,,,,,,,,,,,,,,,0.376666667,-0.274444444,0,0,0,,,,,,,QUILL,HB,m,m,./images/QUILLHB.png,,,,,,,z,0,1.055,,,,,,,,0,54,54,31,1
,,,,,,,,,,,,,,,,,198835,19,2022-01-28_22h20.19.791,lexical_decision_task_DD,2021.2.3,MacIntel,62.5,,,,,,,,,,,,0.747,0,,,,,,,,,,,,,,,,,,,,,,,,0.376666667,-0.274444444,0,0,0,,,,,,,CANDY,C,z,m,./images/CANDY.png,,,,,,,m,0,0.747,,,,,,,,0,55,55,123,1
,,,,,,,,,,,,,,,,,198835,19,2022-01-28_22h20.19.791,lexical_decision_task_DD,2021.2.3,MacIntel,62.5,,,,,,,,,,,,0.779,1,,,,,,,,,,,,,,,,,,,,,,,,0.376666667,-0.274444444,0,0,0,,,,,,,ALLEY,HB,z,m,./images/ALLEYHB.png,,,,,,,z,1,0.779,,,,,,,,0,56,56,139,1
,,,,,,,,,,,,,,,,,198835,19,2022-01-28_22h20.19.791,lexical_decision_task_DD,2021.2.3,MacIntel,62.5,,,,,,,,,,,,0.618,1,,,,,,,,,,,,,,,,,,,,,,,,0.376666667,-0.274444444,0,0,0,,,,,,,STRING,LB,m,m,./images/STRINGLB.png,,,,,,,m,1,0.618,,,,,,,,0,57,57,41,1
,,,,,,,,,,,,,,,,,198835,19,2022-01-28_22h20.19.791,lexical_decision_task_DD,2021.2.3,MacIntel,62.5,,,,,,,,,,,,0.71,1,,,,,,,,,,,,,,,,,,,,,,,,0.376666667,-0.274444444,0,0,0,,,,,,,GREASE,C,m,m,./images/GREASE.png,,,,,,,m,1,0.71,,,,,,,,0,58,58,15,1
,,,,,,,,,,,,,,,,,198835,19,2022-01-28_22h20.19.791,lexical_decision_task_DD,2021.2.3,MacIntel,62.5,,,,,,,,,,,,1.027,1,,,,,,,,,,,,,,,,,,,,,,,,0.376666667,-0.274444444,0,0,0,,,,,,,SAILOR,HB,m,m,./images/SAILORHB.png,,,,,,,m,1,1.027,,,,,,,,0,59,59,67,1
,,,,,,,,,,,,,,,,,198835,19,2022-01-28_22h20.19.791,lexical_decision_task_DD,2021.2.3,MacIntel,62.5,,,,,,,,,,,,0.557,1,,,,,,,,,,,,,,,,,,,,,,,,0.376666667,-0.274444444,0,0,0,,,,,,,CRADLE,LB,m,m,./images/CRADLELB.png,,,,,,,m,1,0.557,,,,,,,,0,60,60,20,1
,,,,,,,,,,,,,,,,,198835,19,2022-01-28_22h20.19.791,lexical_decision_task_DD,2021.2.3,MacIntel,62.5,,,,,,,,,,,,0.536,1,,,,,,,,,,,,,,,,,,,,,,,,0.376666667,-0.274444444,0,0,0,,,,,,,MOOSE,C,m,m,./images/MOOSE.png,,,,,,,m,1,0.536,,,,,,,,0,61,61,57,1
,,,,,,,,,,,,,,,,,198835,19,2022-01-28_22h20.19.791,lexical_decision_task_DD,2021.2.3,MacIntel,62.5,,,,,,,,,,,,0.564,1,,,,,,,,,,,,,,,,,,,,,,,,0.376666667,-0.274444444,0,0,0,,,,,,,MOTOR,HB,m,m,./images/MOTORHB.png,,,,,,,m,1,0.564,,,,,,,,0,62,62,13,1
,,,,,,,,,,,,,,,,,198835,19,2022-01-28_22h20.19.791,lexical_decision_task_DD,2021.2.3,MacIntel,62.5,,,,,,,,,,,,0.611,1,,,,,,,,,,,,,,,,,,,,,,,,0.376666667,-0.274444444,0,0,0,,,,,,,BEARD,LB,m,m,./images/BEARDLB.png,,,,,,,m,1,0.611,,,,,,,,0,63,63,2,1
,,,,,,,,,,,,,,,,,198835,19,2022-01-28_22h20.19.791,lexical_decision_task_DD,2021.2.3,MacIntel,62.5,,,,,,,,,,,,0.576,1,,,,,,,,,,,,,,,,,,,,,,,,0.376666667,-0.274444444,0,0,0,,,,,,,DOUGH,HB,m,m,./images/DOUGHHB.png,,,,,,,m,1,0.576,,,,,,,,0,64,64,19,1
,,,,,,,,,,,,,,,,,198835,19,2022-01-28_22h20.19.791,lexical_decision_task_DD,2021.2.3,MacIntel,62.5,,,,,,,,,,,,0.765,1,,,,,,,,,,,,,,,,,,,,,,,,0.376666667,-0.274444444,0,0,0,,,,,,,BIRTH,HB,m,m,./images/BIRTHHB.png,,,,,,,m,1,0.765,,,,,,,,0,65,65,37,1
,,,,,,,,,,,,,,,,,198835,19,2022-01-28_22h20.19.791,lexical_decision_task_DD,2021.2.3,MacIntel,62.5,,,,,,,,,,,,0.945,0,,,,,,,,,,,,,,,,,,,,,,,,0.376666667,-0.274444444,0,0,0,,,,,,,POKER,HB,z,m,./images/POKERHB.png,,,,,,,m,0,0.945,,,,,,,,0,66,66,151,1
,,,,,,,,,,,,,,,,,198835,19,2022-01-28_22h20.19.791,lexical_decision_task_DD,2021.2.3,MacIntel,62.5,,,,,,,,,,,,0.73,1,,,,,,,,,,,,,,,,,,,,,,,,0.376666667,-0.274444444,0,0,0,,,,,,,MIDGET,HB,z,m,./images/MIDGETHB.png,,,,,,,z,1,0.73,,,,,,,,0,67,67,160,1
,,,,,,,,,,,,,,,,,198835,19,2022-01-28_22h20.19.791,lexical_decision_task_DD,2021.2.3,MacIntel,62.5,,,,,,,,,,,,0.622,1,,,,,,,,,,,,,,,,,,,,,,,,0.376666667,-0.274444444,0,0,0,,,,,,,TRIPOD,C,m,m,./images/TRIPOD.png,,,,,,,m,1,0.622,,,,,,,,0,68,68,54,1
,,,,,,,,,,,,,,,,,198835,19,2022-01-28_22h20.19.791,lexical_decision_task_DD,2021.2.3,MacIntel,62.5,,,,,,,,,,,,0.739,1,,,,,,,,,,,,,,,,,,,,,,,,0.376666667,-0.274444444,0,0,0,,,,,,,TORCH,LB,m,m,./images/TORCHLB.png,,,,,,,m,1,0.739,,,,,,,,0,69,69,68,1
,,,,,,,,,,,,,,,,,198835,19,2022-01-28_22h20.19.791,lexical_decision_task_DD,2021.2.3,MacIntel,62.5,,,,,,,,,,,,0.938,0,,,,,,,,,,,,,,,,,,,,,,,,0.376666667,-0.274444444,0,0,0,,,,,,,RAZOR,HB,z,m,./images/RAZORHB.png,,,,,,,m,0,0.938,,,,,,,,0,70,70,118,1
,,,,,,,,,,,,,,,,,198835,19,2022-01-28_22h20.19.791,lexical_decision_task_DD,2021.2.3,MacIntel,62.5,,,,,,,,,,,,1.396,0,,,,,,,,,,,,,,,,,,,,,,,,0.376666667,-0.274444444,0,0,0,,,,,,,CLIFF,LB,z,m,./images/CLIFFLB.png,,,,,,,m,0,1.396,,,,,,,,0,71,71,92,1
,,,,,,,,,,,,,,,,,198835,19,2022-01-28_22h20.19.791,lexical_decision_task_DD,2021.2.3,MacIntel,62.5,,,,,,,,,,,,1.023,1,,,,,,,,,,,,,,,,,,,,,,,,0.376666667,-0.274444444,0,0,0,,,,,,,SCREW,C,m,m,./images/SCREW.png,,,,,,,m,1,1.023,,,,,,,,0,72,72,24,1
,,,,,,,,,,,,,,,,,198835,19,2022-01-28_22h20.19.791,lexical_decision_task_DD,2021.2.3,MacIntel,62.5,,,,,,,,,,,,0.653,0,,,,,,,,,,,,,,,,,,,,,,,,0.376666667,-0.274444444,0,0,0,,,,,,,PASTA,LB,m,m,./images/PASTALB.png,,,,,,,z,0,0.653,,,,,,,,0,73,73,5,1
,,,,,,,,,,,,,,,,,198835,19,2022-01-28_22h20.19.791,lexical_decision_task_DD,2021.2.3,MacIntel,62.5,,,,,,,,,,,,1.003,0,,,,,,,,,,,,,,,,,,,,,,,,0.376666667,-0.274444444,0,0,0,,,,,,,BANNER,HB,m,m,./images/BANNERHB.png,,,,,,,z,0,1.003,,,,,,,,0,74,74,52,1
,,,,,,,,,,,,,,,,,198835,19,2022-01-28_22h20.19.791,lexical_decision_task_DD,2021.2.3,MacIntel,62.5,,,,,,,,,,,,0.817,1,,,,,,,,,,,,,,,,,,,,,,,,0.376666667,-0.274444444,0,0,0,,,,,,,RULER,HB,z,m,./images/RULERHB.png,,,,,,,z,1,0.817,,,,,,,,0,75,75,163,1
,,,,,,,,,,,,,,,,,198835,19,2022-01-28_22h20.19.791,lexical_decision_task_DD,2021.2.3,MacIntel,62.5,,,,,,,,,,,,0.871,0,,,,,,,,,,,,,,,,,,,,,,,,0.376666667,-0.274444444,0,0,0,,,,,,,PACKET,LB,m,m,./images/PACKETLB.png,,,,,,,z,0,0.871,,,,,,,,0,76,76,56,1
,,,,,,,,,,,,,,,,,198835,19,2022-01-28_22h20.19.791,lexical_decision_task_DD,2021.2.3,MacIntel,62.5,,,,,,,,,,,,0.637,1,,,,,,,,,,,,,,,,,,,,,,,,0.376666667,-0.274444444,0,0,0,,,,,,,URINE,HB,m,m,./images/URINEHB.png,,,,,,,m,1,0.637,,,,,,,,0,77,77,70,1
,,,,,,,,,,,,,,,,,198835,19,2022-01-28_22h20.19.791,lexical_decision_task_DD,2021.2.3,MacIntel,62.5,,,,,,,,,,,,0.77,1,,,,,,,,,,,,,,,,,,,,,,,,0.376666667,-0.274444444,0,0,0,,,,,,,BRIDE,HB,z,m,./images/BRIDEHB.png,,,,,,,z,1,0.77,,,,,,,,0,78,78,148,1
,,,,,,,,,,,,,,,,,198835,19,2022-01-28_22h20.19.791,lexical_decision_task_DD,2021.2.3,MacIntel,62.5,,,,,,,,,,,,1.745,0,,,,,,,,,,,,,,,,,,,,,,,,0.376666667,-0.274444444,0,0,0,,,,,,,CHALK,HB,z,m,./images/CHALKHB.png,,,,,,,m,0,1.745,,,,,,,,0,79,79,109,1
,,,,,,,,,,,,,,,,,198835,19,2022-01-28_22h20.19.791,lexical_decision_task_DD,2021.2.3,MacIntel,62.5,,,,,,,,,,,,0.737,1,,,,,,,,,,,,,,,,,,,,,,,,0.376666667,-0.274444444,0,0,0,,,,,,,CLOWN,HB,z,m,./images/CLOWNHB.png,,,,,,,z,1,0.737,,,,,,,,0,80,80,106,1
,,,,,,,,,,,,,,,,,198835,19,2022-01-28_22h20.19.791,lexical_decision_task_DD,2021.2.3,MacIntel,62.5,,,,,,,,,,,,0.789,1,,,,,,,,,,,,,,,,,,,,,,,,0.376666667,-0.274444444,0,0,0,,,,,,,BASKET,LB,z,m,./images/BASKETLB.png,,,,,,,z,1,0.789,,,,,,,,0,81,81,128,1
,,,,,,,,,,,,,,,,,198835,19,2022-01-28_22h20.19.791,lexical_decision_task_DD,2021.2.3,MacIntel,62.5,,,,,,,,,,,,1.29,0,,,,,,,,,,,,,,,,,,,,,,,,0.376666667,-0.274444444,0,0,0,,,,,,,WEASEL,LB,m,m,./images/WEASELLB.png,,,,,,,z,0,1.29,,,,,,,,0,82,82,80,1
,,,,,,,,,,,,,,,,,198835,19,2022-01-28_22h20.19.791,lexical_decision_task_DD,2021.2.3,MacIntel,62.5,,,,,,,,,,,,0.76,1,,,,,,,,,,,,,,,,,,,,,,,,0.144444444,-0.395555556,0,0,0,space,,,,,,MOSQUE,HB,m,m,./images/MOSQUEHB.png,31.531,,,,,,m,1,0.76,,,,,,,,0,83,83,43,1
,,,,,,,,,,,,,,,,,198835,19,2022-01-28_22h20.19.791,lexical_decision_task_DD,2021.2.3,MacIntel,62.5,,,,,,,,,,,,1.111,1,,,,,,,,,,,,,,,,,,,,,,,,0.144444444,-0.395555556,0,0,0,,,,,,,TIGER,HB,z,m,./images/TIGERHB.png,,,,,,,z,1,1.111,,,,,,,,0,84,84,121,1
,,,,,,,,,,,,,,,,,198835,19,2022-01-28_22h20.19.791,lexical_decision_task_DD,2021.2.3,MacIntel,62.5,,,,,,,,,,,,0.628,0,,,,,,,,,,,,,,,,,,,,,,,,0.144444444,-0.395555556,0,0,0,,,,,,,CLOTH,LB,z,m,./images/CLOTHLB.png,,,,,,,m,0,0.628,,,,,,,,0,85,85,107,1
,,,,,,,,,,,,,,,,,198835,19,2022-01-28_22h20.19.791,lexical_decision_task_DD,2021.2.3,MacIntel,62.5,,,,,,,,,,,,0.663,1,,,,,,,,,,,,,,,,,,,,,,,,0.144444444,-0.395555556,0,0,0,,,,,,,BLOKE,C,z,m,./images/BLOKE.png,,,,,,,z,1,0.663,,,,,,,,0,86,86,96,1
,,,,,,,,,,,,,,,,,198835,19,2022-01-28_22h20.19.791,lexical_decision_task_DD,2021.2.3,MacIntel,62.5,,,,,,,,,,,,0.596,1,,,,,,,,,,,,,,,,,,,,,,,,0.144444444,-0.395555556,0,0,0,,,,,,,JELLY,HB,m,m,./images/JELLYHB.png,,,,,,,m,1,0.596,,,,,,,,0,87,87,64,1
,,,,,,,,,,,,,,,,,198835,19,2022-01-28_22h20.19.791,lexical_decision_task_DD,2021.2.3,MacIntel,62.5,,,,,,,,,,,,0.746,1,,,,,,,,,,,,,,,,,,,,,,,,0.144444444,-0.395555556,0,0,0,,,,,,,FINGER,C,m,m,./images/FINGER.png,,,,,,,m,1,0.746,,,,,,,,0,88,88,3,1
,,,,,,,,,,,,,,,,,198835,19,2022-01-28_22h20.19.791,lexical_decision_task_DD,2021.2.3,MacIntel,62.5,,,,,,,,,,,,0.713,1,,,,,,,,,,,,,,,,,,,,,,,,0.144444444,-0.395555556,0,0,0,,,,,,,BELLY,HB,m,m,./images/BELLYHB.png,,,,,,,m,1,0.713,,,,,,,,0,89,89,10,1
,,,,,,,,,,,,,,,,,198835,19,2022-01-28_22h20.19.791,lexical_decision_task_DD,2021.2.3,MacIntel,62.5,,,,,,,,,,,,0.627,1,,,,,,,,,,,,,,,,,,,,,,,,0.144444444,-0.395555556,0,0,0,,,,,,,THROAT,C,m,m,./images/THROAT.png,,,,,,,m,1,0.627,,,,,,,,0,90,90,36,1
,,,,,,,,,,,,,,,,,198835,19,2022-01-28_22h20.19.791,lexical_decision_task_DD,2021.2.3,MacIntel,62.5,,,,,,,,,,,,0.653,0,,,,,,,,,,,,,,,,,,,,,,,,0.144444444,-0.395555556,0,0,0,,,,,,,GLOVE,HB,z,m,./images/GLOVEHB.png,,,,,,,m,0,0.653,,,,,,,,0,91,91,157,1
,,,,,,,,,,,,,,,,,198835,19,2022-01-28_22h20.19.791,lexical_decision_task_DD,2021.2.3,MacIntel,62.5,,,,,,,,,,,,1.416,1,,,,,,,,,,,,,,,,,,,,,,,,0.144444444,-0.395555556,0,0,0,,,,,,,BUTTER,C,z,m,./images/BUTTER.png,,,,,,,z,1,1.416,,,,,,,,0,92,92,111,1
,,,,,,,,,,,,,,,,,198835,19,2022-01-28_22h20.19.791,lexical_decision_task_DD,2021.2.3,MacIntel,62.5,,,,,,,,,,,,0.83,0,,,,,,,,,,,,,,,,,,,,,,,,0.144444444,-0.395555556,0,0,0,,,,,,,LADDER,LB,m,m,./images/LADDERLB.png,,,,,,,z,0,0.83,,,,,,,,0,93,93,38,1
,,,,,,,,,,,,,,,,,198835,19,2022-01-28_22h20.19.791,lexical_decision_task_DD,2021.2.3,MacIntel,62.5,,,,,,,,,,,,0.878,1,,,,,,,,,,,,,,,,,,,,,,,,0.144444444,-0.395555556,0,0,0,,,,,,,PURSE,LB,m,m,./images/PURSELB.png,,,,,,,m,1,0.878,,,,,,,,0,94,94,62,1
,,,,,,,,,,,,,,,,,198835,19,2022-01-28_22h20.19.791,lexical_decision_task_DD,2021.2.3,MacIntel,62.5,,,,,,,,,,,,0.675,1,,,,,,,,,,,,,,,,,,,,,,,,0.144444444,-0.395555556,0,0,0,,,,,,,BABOON,HB,m,m,./images/BABOONHB.png,,,,,,,m,1,0.675,,,,,,,,0,95,95,58,1
,,,,,,,,,,,,,,,,,198835,19,2022-01-28_22h20.19.791,lexical_decision_task_DD,2021.2.3,MacIntel,62.5,,,,,,,,,,,,0.787,1,,,,,,,,,,,,,,,,,,,,,,,,0.144444444,-0.395555556,0,0,0,,,,,,,DIVER,C,z,m,./images/DIVER.png,,,,,,,z,1,0.787,,,,,,,,0,96,96,93,1
,,,,,,,,,,,,,,,,,198835,19,2022-01-28_22h20.19.791,lexical_decision_task_DD,2021.2.3,MacIntel,62.5,,,,,,,,,,,,0.82,1,,,,,,,,,,,,,,,,,,,,,,,,0.144444444,-0.395555556,0,0,0,,,,,,,CRUST,HB,m,m,./images/CRUSTHB.png,,,,,,,m,1,0.82,,,,,,,,0,97,97,79,1
,,,,,,,,,,,,,,,,,198835,19,2022-01-28_22h20.19.791,lexical_decision_task_DD,2021.2.3,MacIntel,62.5,,,,,,,,,,,,0.907,1,,,,,,,,,,,,,,,,,,,,,,,,0.144444444,-0.395555556,0,0,0,,,,,,,POSTER,LB,z,m,./images/POSTERLB.png,,,,,,,z,1,0.907,,,,,,,,0,98,98,137,1
,,,,,,,,,,,,,,,,,198835,19,2022-01-28_22h20.19.791,lexical_decision_task_DD,2021.2.3,MacIntel,62.5,,,,,,,,,,,,0.701,0,,,,,,,,,,,,,,,,,,,,,,,,0.144444444,-0.395555556,0,0,0,,,,,,,FALCON,HB,m,m,./images/FALCONHB.png,,,,,,,z,0,0.701,,,,,,,,0,99,99,28,1
,,,,,,,,,,,,,,,,,198835,19,2022-01-28_22h20.19.791,lexical_decision_task_DD,2021.2.3,MacIntel,62.5,,,,,,,,,,,,0.645,0,,,,,,,,,,,,,,,,,,,,,,,,0.144444444,-0.395555556,0,0,0,,,,,,,LAGOON,LB,z,m,./images/LAGOONLB.png,,,,,,,m,0,0.645,,,,,,,,0,100,100,131,1
,,,,,,,,,,,,,,,,,198835,19,2022-01-28_22h20.19.791,lexical_decision_task_DD,2021.2.3,MacIntel,62.5,,,,,,,,,,,,0.913,1,,,,,,,,,,,,,,,,,,,,,,,,0.144444444,-0.395555556,0,0,0,,,,,,,DESERT,HB,z,m,./images/DESERTHB.png,,,,,,,z,1,0.913,,,,,,,,0,101,101,136,1
,,,,,,,,,,,,,,,,,198835,19,2022-01-28_22h20.19.791,lexical_decision_task_DD,2021.2.3,MacIntel,62.5,,,,,,,,,,,,0.956,0,,,,,,,,,,,,,,,,,,,,,,,,0.144444444,-0.395555556,0,0,0,,,,,,,WRIST,HB,m,m,./images/WRISTHB.png,,,,,,,z,0,0.956,,,,,,,,0,102,102,25,1
,,,,,,,,,,,,,,,,,198835,19,2022-01-28_22h20.19.791,lexical_decision_task_DD,2021.2.3,MacIntel,62.5,,,,,,,,,,,,0.978,1,,,,,,,,,,,,,,,,,,,,,,,,0.144444444,-0.395555556,0,0,0,,,,,,,SNACK,HB,m,m,./images/SNACKHB.png,,,,,,,m,1,0.978,,,,,,,,0,103,103,73,1
,,,,,,,,,,,,,,,,,198835,19,2022-01-28_22h20.19.791,lexical_decision_task_DD,2021.2.3,MacIntel,62.5,,,,,,,,,,,,0.928,0,,,,,,,,,,,,,,,,,,,,,,,,0.144444444,-0.395555556,0,0,0,,,,,,,MONKEY,C,z,m,./images/MONKEY.png,,,,,,,m,0,0.928,,,,,,,,0,104,104,129,1
,,,,,,,,,,,,,,,,,198835,19,2022-01-28_22h20.19.791,lexical_decision_task_DD,2021.2.3,MacIntel,62.5,,,,,,,,,,,,1.06,1,,,,,,,,,,,,,,,,,,,,,,,,0.144444444,-0.395555556,0,0,0,,,,,,,SHIELD,C,z,m,./images/SHIELD.png,,,,,,,z,1,1.06,,,,,,,,0,105,105,132,1
,,,,,,,,,,,,,,,,,198835,19,2022-01-28_22h20.19.791,lexical_decision_task_DD,2021.2.3,MacIntel,62.5,,,,,,,,,,,,0.956,1,,,,,,,,,,,,,,,,,,,,,,,,0.144444444,-0.395555556,0,0,0,,,,,,,PAINT,HB,m,m,./images/PAINTHB.png,,,,,,,m,1,0.956,,,,,,,,0,106,106,7,1
,,,,,,,,,,,,,,,,,198835,19,2022-01-28_22h20.19.791,lexical_decision_task_DD,2021.2.3,MacIntel,62.5,,,,,,,,,,,,1.526,1,,,,,,,,,,,,,,,,,,,,,,,,0.144444444,-0.395555556,0,0,0,,,,,,,ENGINE,LB,z,m,./images/ENGINELB.png,,,,,,,z,1,1.526,,,,,,,,0,107,107,122,1
,,,,,,,,,,,,,,,,,198835,19,2022-01-28_22h20.19.791,lexical_decision_task_DD,2021.2.3,MacIntel,62.5,,,,,,,,,,,,0.741,1,,,,,,,,,,,,,,,,,,,,,,,,0.144444444,-0.395555556,0,0,0,,,,,,,POODLE,C,m,m,./images/POODLE.png,,,,,,,m,1,0.741,,,,,,,,0,108,108,81,1
,,,,,,,,,,,,,,,,,198835,19,2022-01-28_22h20.19.791,lexical_decision_task_DD,2021.2.3,MacIntel,62.5,,,,,,,,,,,,0.778,1,,,,,,,,,,,,,,,,,,,,,,,,0.144444444,-0.395555556,0,0,0,,,,,,,PISTOL,LB,z,m,./images/PISTOLLB.png,,,,,,,z,1,0.778,,,,,,,,0,109,109,113,1
,,,,,,,,,,,,,,,,,198835,19,2022-01-28_22h20.19.791,lexical_decision_task_DD,2021.2.3,MacIntel,62.5,,,,,,,,,,,,0.581,1,,,,,,,,,,,,,,,,,,,,,,,,0.144444444,-0.395555556,0,0,0,,,,,,,PICKLE,LB,m,m,./images/PICKLELB.png,,,,,,,m,1,0.581,,,,,,,,0,110,110,14,1
,,,,,,,,,,,,,,,,,198835,19,2022-01-28_22h20.19.791,lexical_decision_task_DD,2021.2.3,MacIntel,62.5,,,,,,,,,,,,1.003,1,,,,,,,,,,,,,,,,,,,,,,,,0.144444444,-0.395555556,0,0,0,,,,,,,SWEAT,C,m,m,./images/SWEAT.png,,,,,,,m,1,1.003,,,,,,,,0,111,111,66,1
,,,,,,,,,,,,,,,,,198835,19,2022-01-28_22h20.19.791,lexical_decision_task_DD,2021.2.3,MacIntel,62.5,,,,,,,,,,,,0.78,1,,,,,,,,,,,,,,,,,,,,,,,,0.144444444,-0.395555556,0,0,0,,,,,,,SLOPE,C,z,m,./images/SLOPE.png,,,,,,,z,1,0.78,,,,,,,,0,112,112,114,1
,,,,,,,,,,,,,,,,,198835,19,2022-01-28_22h20.19.791,lexical_decision_task_DD,2021.2.3,MacIntel,62.5,,,,,,,,,,,,0.958,1,,,,,,,,,,,,,,,,,,,,,,,,0.144444444,-0.395555556,0,0,0,,,,,,,JUMPER,LB,z,m,./images/JUMPERLB.png,,,,,,,z,1,0.958,,,,,,,,0,113,113,158,1
,,,,,,,,,,,,,,,,,198835,19,2022-01-28_22h20.19.791,lexical_decision_task_DD,2021.2.3,MacIntel,62.5,,,,,,,,,,,,0.71,1,,,,,,,,,,,,,,,,,,,,,,,,0.144444444,-0.395555556,0,0,0,,,,,,,JAGUAR,C,m,m,./images/JAGUAR.png,,,,,,,m,1,0.71,,,,,,,,0,114,114,18,1
,,,,,,,,,,,,,,,,,198835,19,2022-01-28_22h20.19.791,lexical_decision_task_DD,2021.2.3,MacIntel,62.5,,,,,,,,,,,,0.636,1,,,,,,,,,,,,,,,,,,,,,,,,0.144444444,-0.395555556,0,0,0,,,,,,,TOWEL,HB,z,m,./images/TOWELHB.png,,,,,,,z,1,0.636,,,,,,,,0,115,115,85,1
,,,,,,,,,,,,,,,,,198835,19,2022-01-28_22h20.19.791,lexical_decision_task_DD,2021.2.3,MacIntel,62.5,,,,,,,,,,,,0.845,0,,,,,,,,,,,,,,,,,,,,,,,,0.144444444,-0.395555556,0,0,0,,,,,,,MALLET,LB,m,m,./images/MALLETLB.png,,,,,,,z,0,0.845,,,,,,,,0,116,116,50,1
,,,,,,,,,,,,,,,,,198835,19,2022-01-28_22h20.19.791,lexical_decision_task_DD,2021.2.3,MacIntel,62.5,,,,,,,,,,,,1.244,1,,,,,,,,,,,,,,,,,,,,,,,,0.144444444,-0.395555556,0,0,0,,,,,,,CHAIN,C,z,m,./images/CHAIN.png,,,,,,,z,1,1.244,,,,,,,,0,117,117,126,1
,,,,,,,,,,,,,,,,,198835,19,2022-01-28_22h20.19.791,lexical_decision_task_DD,2021.2.3,MacIntel,62.5,,,,,,,,,,,,0.748,1,,,,,,,,,,,,,,,,,,,,,,,,0.144444444,-0.395555556,0,0,0,,,,,,,BRUSH,LB,z,m,./images/BRUSHLB.png,,,,,,,z,1,0.748,,,,,,,,0,118,118,143,1
,,,,,,,,,,,,,,,,,198835,19,2022-01-28_22h20.19.791,lexical_decision_task_DD,2021.2.3,MacIntel,62.5,,,,,,,,,,,,0.869,0,,,,,,,,,,,,,,,,,,,,,,,,0.144444444,-0.395555556,0,0,0,,,,,,,FLASK,C,z,m,./images/FLASK.png,,,,,,,m,0,0.869,,,,,,,,0,119,119,156,1
,,,,,,,,,,,,,,,,,198835,19,2022-01-28_22h20.19.791,lexical_decision_task_DD,2021.2.3,MacIntel,62.5,,,,,,,,,,,,1.073,1,,,,,,,,,,,,,,,,,,,,,,,,0.144444444,-0.395555556,0,0,0,,,,,,,MAGGOT,C,m,m,./images/MAGGOT.png,,,,,,,m,1,1.073,,,,,,,,0,120,120,33,1
,,,,,,,,,,,,,,,,,198835,19,2022-01-28_22h20.19.791,lexical_decision_task_DD,2021.2.3,MacIntel,62.5,,,,,,,,,,,,1.012,1,,,,,,,,,,,,,,,,,,,,,,,,0.144444444,-0.395555556,0,0,0,,,,,,,FARMER,LB,m,m,./images/FARMERLB.png,,,,,,,m,1,1.012,,,,,,,,0,121,121,65,1
,,,,,,,,,,,,,,,,,198835,19,2022-01-28_22h20.19.791,lexical_decision_task_DD,2021.2.3,MacIntel,62.5,,,,,,,,,,,,0.651,1,,,,,,,,,,,,,,,,,,,,,,,,0.144444444,-0.395555556,0,0,0,,,,,,,MUSCLE,HB,m,m,./images/MUSCLEHB.png,,,,,,,m,1,0.651,,,,,,,,0,122,122,4,1
,,,,,,,,,,,,,,,,,198835,19,2022-01-28_22h20.19.791,lexical_decision_task_DD,2021.2.3,MacIntel,62.5,,,,,,,,,,,,0.713,0,,,,,,,,,,,,,,,,,,,,,,,,0.144444444,-0.395555556,0,0,0,,,,,,,WALNUT,C,z,m,./images/WALNUT.png,,,,,,,m,0,0.713,,,,,,,,0,123,123,84,1
,,,,,,,,,,,,,,,,,198835,19,2022-01-28_22h20.19.791,lexical_decision_task_DD,2021.2.3,MacIntel,62.5,,,,,,,,,,,,0.67,1,,,,,,,,,,,,,,,,,,,,,,,,0.144444444,-0.395555556,0,0,0,,,,,,,BROOM,C,z,m,./images/BROOM.png,,,,,,,z,1,0.67,,,,,,,,0,124,124,162,1
,,,,,,,,,,,,,,,,,198835,19,2022-01-28_22h20.19.791,lexical_decision_task_DD,2021.2.3,MacIntel,62.5,,,,,,,,,,,,0.579,1,,,,,,,,,,,,,,,,,,,,,,,,0.144444444,-0.395555556,0,0,0,space,,,,,,SAUNA,C,z,m,./images/SAUNA.png,5.899,,,,,,z,1,0.579,,,,,,,,0,125,125,117,1
,,,,,,,,,,,,,,,,,198835,19,2022-01-28_22h20.19.791,lexical_decision_task_DD,2021.2.3,MacIntel,62.5,,,,,,,,,,,,0.812,1,,,,,,,,,,,,,,,,,,,,,,,,0.144444444,-0.395555556,0,0,0,,,,,,,FERRY,C,z,m,./images/FERRY.png,,,,,,,z,1,0.812,,,,,,,,0,126,126,141,1
,,,,,,,,,,,,,,,,,198835,19,2022-01-28_22h20.19.791,lexical_decision_task_DD,2021.2.3,MacIntel,62.5,,,,,,,,,,,,0.894,0,,,,,,,,,,,,,,,,,,,,,,,,0.144444444,-0.395555556,0,0,0,,,,,,,MUMMY,HB,z,m,./images/MUMMYHB.png,,,,,,,m,0,0.894,,,,,,,,0,127,127,130,1
,,,,,,,,,,,,,,,,,198835,19,2022-01-28_22h20.19.791,lexical_decision_task_DD,2021.2.3,MacIntel,62.5,,,,,,,,,,,,0.663,1,,,,,,,,,,,,,,,,,,,,,,,,0.144444444,-0.395555556,0,0,0,,,,,,,STATUE,C,z,m,./images/STATUE.png,,,,,,,z,1,0.663,,,,,,,,0,128,128,150,1
,,,,,,,,,,,,,,,,,198835,19,2022-01-28_22h20.19.791,lexical_decision_task_DD,2021.2.3,MacIntel,62.5,,,,,,,,,,,,0.631,1,,,,,,,,,,,,,,,,,,,,,,,,0.144444444,-0.395555556,0,0,0,,,,,,,JUNGLE,LB,m,m,./images/JUNGLELB.png,,,,,,,m,1,0.631,,,,,,,,0,129,129,83,1
,,,,,,,,,,,,,,,,,198835,19,2022-01-28_22h20.19.791,lexical_decision_task_DD,2021.2.3,MacIntel,62.5,,,,,,,,,,,,0.673,1,,,,,,,,,,,,,,,,,,,,,,,,0.144444444,-0.395555556,0,0,0,,,,,,,COOKER,C,m,m,./images/COOKER.png,,,,,,,m,1,0.673,,,,,,,,0,130,130,69,1
,,,,,,,,,,,,,,,,,198835,19,2022-01-28_22h20.19.791,lexical_decision_task_DD,2021.2.3,MacIntel,62.5,,,,,,,,,,,,0.682,1,,,,,,,,,,,,,,,,,,,,,,,,0.144444444,-0.395555556,0,0,0,,,,,,,DANCER,C,z,m,./images/DANCER.png,,,,,,,z,1,0.682,,,,,,,,0,131,131,105,1
,,,,,,,,,,,,,,,,,198835,19,2022-01-28_22h20.19.791,lexical_decision_task_DD,2021.2.3,MacIntel,62.5,,,,,,,,,,,,1.036,1,,,,,,,,,,,,,,,,,,,,,,,,0.144444444,-0.395555556,0,0,0,,,,,,,STOVE,LB,z,m,./images/STOVELB.png,,,,,,,z,1,1.036,,,,,,,,0,132,132,86,1
,,,,,,,,,,,,,,,,,198835,19,2022-01-28_22h20.19.791,lexical_decision_task_DD,2021.2.3,MacIntel,62.5,,,,,,,,,,,,0.676,1,,,,,,,,,,,,,,,,,,,,,,,,0.144444444,-0.395555556,0,0,0,,,,,,,SHORE,C,m,m,./images/SHORE.png,,,,,,,m,1,0.676,,,,,,,,0,133,133,12,1
,,,,,,,,,,,,,,,,,198835,19,2022-01-28_22h20.19.791,lexical_decision_task_DD,2021.2.3,MacIntel,62.5,,,,,,,,,,,,1.051,1,,,,,,,,,,,,,,,,,,,,,,,,0.144444444,-0.395555556,0,0,0,,,,,,,ARTIST,HB,z,m,./images/ARTISTHB.png,,,,,,,z,1,1.051,,,,,,,,0,134,134,145,1
,,,,,,,,,,,,,,,,,198835,19,2022-01-28_22h20.19.791,lexical_decision_task_DD,2021.2.3,MacIntel,62.5,,,,,,,,,,,,0.84,1,,,,,,,,,,,,,,,,,,,,,,,,0.144444444,-0.395555556,0,0,0,,,,,,,CEMENT,LB,m,m,./images/CEMENTLB.png,,,,,,,m,1,0.84,,,,,,,,0,135,135,74,1
,,,,,,,,,,,,,,,,,198835,19,2022-01-28_22h20.19.791,lexical_decision_task_DD,2021.2.3,MacIntel,62.5,,,,,,,,,,,,0.616,1,,,,,,,,,,,,,,,,,,,,,,,,0.144444444,-0.395555556,0,0,0,,,,,,,SQUARE,C,m,m,./images/SQUARE.png,,,,,,,m,1,0.616,,,,,,,,0,136,136,6,1
,,,,,,,,,,,,,,,,,198835,19,2022-01-28_22h20.19.791,lexical_decision_task_DD,2021.2.3,MacIntel,62.5,,,,,,,,,,,,0.644,1,,,,,,,,,,,,,,,,,,,,,,,,0.144444444,-0.395555556,0,0,0,,,,,,,PILOT,LB,z,m,./images/PILOTLB.png,,,,,,,z,1,0.644,,,,,,,,0,137,137,134,1
,,,,,,,,,,,,,,,,,198835,19,2022-01-28_22h20.19.791,lexical_decision_task_DD,2021.2.3,MacIntel,62.5,,,,,,,,,,,,0.777,1,,,,,,,,,,,,,,,,,,,,,,,,0.144444444,-0.395555556,0,0,0,,,,,,,INFANT,HB,m,m,./images/INFANTHB.png,,,,,,,m,1,0.777,,,,,,,,0,138,138,76,1
,,,,,,,,,,,,,,,,,198835,19,2022-01-28_22h20.19.791,lexical_decision_task_DD,2021.2.3,MacIntel,62.5,,,,,,,,,,,,1.294,1,,,,,,,,,,,,,,,,,,,,,,,,0.144444444,-0.395555556,0,0,0,,,,,,,CASINO,HB,z,m,./images/CASINOHB.png,,,,,,,z,1,1.294,,,,,,,,0,139,139,112,1
,,,,,,,,,,,,,,,,,198835,19,2022-01-28_22h20.19.791,lexical_decision_task_DD,2021.2.3,MacIntel,62.5,,,,,,,,,,,,0.778,1,,,,,,,,,,,,,,,,,,,,,,,,0.144444444,-0.395555556,0,0,0,,,,,,,SNAKE,HB,z,m,./images/SNAKEHB.png,,,,,,,z,1,0.778,,,,,,,,0,140,140,124,1
,,,,,,,,,,,,,,,,,198835,19,2022-01-28_22h20.19.791,lexical_decision_task_DD,2021.2.3,MacIntel,62.5,,,,,,,,,,,,0.886,1,,,,,,,,,,,,,,,,,,,,,,,,0.144444444,-0.395555556,0,0,0,,,,,,,BUNNY,HB,z,m,./images/BUNNYHB.png,,,,,,,z,1,0.886,,,,,,,,0,141,141,97,1
,,,,,,,,,,,,,,,,,198835,19,2022-01-28_22h20.19.791,lexical_decision_task_DD,2021.2.3,MacIntel,62.5,,,,,,,,,,,,0.882,1,,,,,,,,,,,,,,,,,,,,,,,,0.144444444,-0.395555556,0,0,0,,,,,,,MAMMAL,LB,z,m,./images/MAMMALLB.png,,,,,,,z,1,0.882,,,,,,,,0,142,142,146,1
,,,,,,,,,,,,,,,,,198835,19,2022-01-28_22h20.19.791,lexical_decision_task_DD,2021.2.3,MacIntel,62.5,,,,,,,,,,,,1.626,1,,,,,,,,,,,,,,,,,,,,,,,,0.144444444,-0.395555556,0,0,0,,,,,,,HEATER,LB,z,m,./images/HEATERLB.png,,,,,,,z,1,1.626,,,,,,,,0,143,143,140,1
,,,,,,,,,,,,,,,,,198835,19,2022-01-28_22h20.19.791,lexical_decision_task_DD,2021.2.3,MacIntel,62.5,,,,,,,,,,,,0.896,1,,,,,,,,,,,,,,,,,,,,,,,,0.144444444,-0.395555556,0,0,0,,,,,,,FLESH,C,z,m,./images/FLESH.png,,,,,,,z,1,0.896,,,,,,,,0,144,144,108,1
,,,,,,,,,,,,,,,,,198835,19,2022-01-28_22h20.19.791,lexical_decision_task_DD,2021.2.3,MacIntel,62.5,,,,,,,,,,,,0.887,1,,,,,,,,,,,,,,,,,,,,,,,,0.144444444,-0.395555556,0,0,0,,,,,,,WHEEL,LB,z,m,./images/WHEELLB.png,,,,,,,z,1,0.887,,,,,,,,0,145,145,161,1
,,,,,,,,,,,,,,,,,198835,19,2022-01-28_22h20.19.791,lexical_decision_task_DD,2021.2.3,MacIntel,62.5,,,,,,,,,,,,0.913,1,,,,,,,,,,,,,,,,,,,,,,,,0.144444444,-0.395555556,0,0,0,,,,,,,VALLEY,LB,z,m,./images/VALLEYLB.png,,,,,,,z,1,0.913,,,,,,,,0,146,146,152,1
,,,,,,,,,,,,,,,,,198835,19,2022-01-28_22h20.19.791,lexical_decision_task_DD,2021.2.3,MacIntel,62.5,,,,,,,,,,,,1.673,0,,,,,,,,,,,,,,,,,,,,,,,,0.144444444,-0.395555556,0,0,0,,,,,,,SAUCE,C,z,m,./images/SAUCE.png,,,,,,,m,0,1.673,,,,,,,,0,147,147,135,1
,,,,,,,,,,,,,,,,,198835,19,2022-01-28_22h20.19.791,lexical_decision_task_DD,2021.2.3,MacIntel,62.5,,,,,,,,,,,,0.793,1,,,,,,,,,,,,,,,,,,,,,,,,0.144444444,-0.395555556,0,0,0,,,,,,,WHISKY,LB,z,m,./images/WHISKYLB.png,,,,,,,z,1,0.793,,,,,,,,0,148,148,167,1
,,,,,,,,,,,,,,,,,198835,19,2022-01-28_22h20.19.791,lexical_decision_task_DD,2021.2.3,MacIntel,62.5,,,,,,,,,,,,0.934,1,,,,,,,,,,,,,,,,,,,,,,,,0.144444444,-0.395555556,0,0,0,,,,,,,BURIAL,LB,m,m,./images/BURIALLB.png,,,,,,,m,1,0.934,,,,,,,,0,149,149,59,1
,,,,,,,,,,,,,,,,,198835,19,2022-01-28_22h20.19.791,lexical_decision_task_DD,2021.2.3,MacIntel,62.5,,,,,,,,,,,,1.021,1,,,,,,,,,,,,,,,,,,,,,,,,0.144444444,-0.395555556,0,0,0,,,,,,,STOOL,HB,z,m,./images/STOOLHB.png,,,,,,,z,1,1.021,,,,,,,,0,150,150,127,1
,,,,,,,,,,,,,,,,,198835,19,2022-01-28_22h20.19.791,lexical_decision_task_DD,2021.2.3,MacIntel,62.5,,,,,,,,,,,,1.496,1,,,,,,,,,,,,,,,,,,,,,,,,0.144444444,-0.395555556,0,0,0,,,,,,,TULIP,LB,m,m,./images/TULIPLB.png,,,,,,,m,1,1.496,,,,,,,,0,151,151,8,1
,,,,,,,,,,,,,,,,,198835,19,2022-01-28_22h20.19.791,lexical_decision_task_DD,2021.2.3,MacIntel,62.5,,,,,,,,,,,,0.897,1,,,,,,,,,,,,,,,,,,,,,,,,0.144444444,-0.395555556,0,0,0,,,,,,,MELON,HB,m,m,./images/MELONHB.png,,,,,,,m,1,0.897,,,,,,,,0,152,152,22,1
,,,,,,,,,,,,,,,,,198835,19,2022-01-28_22h20.19.791,lexical_decision_task_DD,2021.2.3,MacIntel,62.5,,,,,,,,,,,,0.838,1,,,,,,,,,,,,,,,,,,,,,,,,0.144444444,-0.395555556,0,0,0,,,,,,,GARDEN,HB,z,m,./images/GARDENHB.png,,,,,,,z,1,0.838,,,,,,,,0,153,153,94,1
,,,,,,,,,,,,,,,,,198835,19,2022-01-28_22h20.19.791,lexical_decision_task_DD,2021.2.3,MacIntel,62.5,,,,,,,,,,,,0.827,1,,,,,,,,,,,,,,,,,,,,,,,,0.144444444,-0.395555556,0,0,0,,,,,,,CANOE,HB,z,m,./images/CANOEHB.png,,,,,,,z,1,0.827,,,,,,,,0,154,154,142,1
,,,,,,,,,,,,,,,,,198835,19,2022-01-28_22h20.19.791,lexical_decision_task_DD,2021.2.3,MacIntel,62.5,,,,,,,,,,,,0.902,1,,,,,,,,,,,,,,,,,,,,,,,,0.144444444,-0.395555556,0,0,0,,,,,,,CANYON,HB,m,m,./images/CANYONHB.png,,,,,,,m,1,0.902,,,,,,,,0,155,155,34,1
,,,,,,,,,,,,,,,,,198835,19,2022-01-28_22h20.19.791,lexical_decision_task_DD,2021.2.3,MacIntel,62.5,,,,,,,,,,,,0.812,1,,,,,,,,,,,,,,,,,,,,,,,,0.144444444,-0.395555556,0,0,0,,,,,,,BAKER,C,z,m,./images/BAKER.png,,,,,,,z,1,0.812,,,,,,,,0,156,156,147,1
,,,,,,,,,,,,,,,,,198835,19,2022-01-28_22h20.19.791,lexical_decision_task_DD,2021.2.3,MacIntel,62.5,,,,,,,,,,,,0.863,1,,,,,,,,,,,,,,,,,,,,,,,,0.144444444,-0.395555556,0,0,0,,,,,,,BOXER,HB,z,m,./images/BOXERHB.png,,,,,,,z,1,0.863,,,,,,,,0,157,157,88,1
,,,,,,,,,,,,,,,,,198835,19,2022-01-28_22h20.19.791,lexical_decision_task_DD,2021.2.3,MacIntel,62.5,,,,,,,,,,,,0.695,1,,,,,,,,,,,,,,,,,,,,,,,,0.144444444,-0.395555556,0,0,0,,,,,,,MEDAL,LB,z,m,./images/MEDALLB.png,,,,,,,z,1,0.695,,,,,,,,0,158,158,95,1
,,,,,,,,,,,,,,,,,198835,19,2022-01-28_22h20.19.791,lexical_decision_task_DD,2021.2.3,MacIntel,62.5,,,,,,,,,,,,0.639,1,,,,,,,,,,,,,,,,,,,,,,,,0.144444444,-0.395555556,0,0,0,,,,,,,TWINS,C,m,m,./images/TWINS.png,,,,,,,m,1,0.639,,,,,,,,0,159,159,60,1
,,,,,,,,,,,,,,,,,198835,19,2022-01-28_22h20.19.791,lexical_decision_task_DD,2021.2.3,MacIntel,62.5,,,,,,,,,,,,0.806,1,,,,,,,,,,,,,,,,,,,,,,,,0.144444444,-0.395555556,0,0,0,,,,,,,PARADE,LB,z,m,./images/PARADELB.png,,,,,,,z,1,0.806,,,,,,,,0,160,160,101,1
,,,,,,,,,,,,,,,,,198835,19,2022-01-28_22h20.19.791,lexical_decision_task_DD,2021.2.3,MacIntel,62.5,,,,,,,,,,,,1.009,0,,,,,,,,,,,,,,,,,,,,,,,,0.144444444,-0.395555556,0,0,0,,,,,,,BUBBLE,LB,z,m,./images/BUBBLELB.png,,,,,,,m,0,1.009,,,,,,,,0,161,161,155,1
,,,,,,,,,,,,,,,,,198835,19,2022-01-28_22h20.19.791,lexical_decision_task_DD,2021.2.3,MacIntel,62.5,,,,,,,,,,,,0.628,1,,,,,,,,,,,,,,,,,,,,,,,,0.144444444,-0.395555556,0,0,0,,,,,,,MUFFIN,HB,m,m,./images/MUFFINHB.png,,,,,,,m,1,0.628,,,,,,,,0,162,162,55,1
,,,,,,,,,,,,,,,,,198835,19,2022-01-28_22h20.19.791,lexical_decision_task_DD,2021.2.3,MacIntel,62.5,,,,,,,,,,,,0.622,1,,,,,,,,,,,,,,,,,,,,,,,,0.144444444,-0.395555556,0,0,0,,,,,,,LIZARD,LB,m,m,./images/LIZARDLB.png,,,,,,,m,1,0.622,,,,,,,,0,163,163,44,1
,,,,,,,,,,,,,,,,,198835,19,2022-01-28_22h20.19.791,lexical_decision_task_DD,2021.2.3,MacIntel,62.5,,,,,,,,,,,,0.702,1,,,,,,,,,,,,,,,,,,,,,,,,0.144444444,-0.395555556,0,0,0,,,,,,,SPINE,LB,z,m,./images/SPINELB.png,,,,,,,z,1,0.702,,,,,,,,0,164,164,149,1
,,,,,,,,,,,,,,,,,198835,19,2022-01-28_22h20.19.791,lexical_decision_task_DD,2021.2.3,MacIntel,62.5,,,,,,,,,,,,0.67,1,,,,,,,,,,,,,,,,,,,,,,,,0.144444444,-0.395555556,0,0,0,,,,,,,SUNSET,HB,m,m,./images/SUNSETHB.png,,,,,,,m,1,0.67,,,,,,,,0,165,165,82,1
,,,,,,,,,,,,,,,,,198835,19,2022-01-28_22h20.19.791,lexical_decision_task_DD,2021.2.3,MacIntel,62.5,,,,,,,,,,,,0.726,1,,,,,,,,,,,,,,,,,,,,,,,,0.144444444,-0.395555556,0,0,0,,,,,,,CRUMB,LB,m,m,./images/CRUMBLB.png,,,,,,,m,1,0.726,,,,,,,,0,166,166,29,1
,,,,,,,,,,,,,,,,,198835,19,2022-01-28_22h20.19.791,lexical_decision_task_DD,2021.2.3,MacIntel,62.5,,,,,,,,,,,,0.622,0,,,,,,,,,,,,,,,,,,,,,,,,0.144444444,-0.395555556,0,0,0,,,,,,,PENCE,HB,m,m,./images/PENCEHB.png,,,,,,,z,0,0.622,,,,,,,,0,167,167,16,1
