key_resp.keys,instr_done_touch.x,instr_done_touch.y,instr_done_touch.leftButton,instr_done_touch.midButton,instr_done_touch.rightButton,instr_done_touch.clicked_name,instruction_pages.thisRepN,instruction_pages.thisTrialN,instruction_pages.thisN,instruction_pages.thisIndex,instruction_pages.ran,pageN,phase,instruct_text,has_image,instruct_image,participant,age,date,expName,psychopyVersion,OS,frameRate,key_resp.rt,response.keys,response.corr,response.rt,touch_resp.x,touch_resp.y,touch_resp.leftButton,touch_resp.midButton,touch_resp.rightButton,touch_resp.time,touch_resp.clicked_name,rt,corr,practrials.thisRepN,practrials.thisTrialN,practrials.thisN,practrials.thisIndex,practrials.ran,TrialID,Target,corrAns,end_of_practice_trials_pages.thisRepN,end_of_practice_trials_pages.thisTrialN,end_of_practice_trials_pages.thisN,end_of_practice_trials_pages.thisIndex,end_of_practice_trials_pages.ran,key_resp_2.keys,key_resp_2.corr,key_resp_2.rt,targ_click.x,targ_click.y,targ_click.leftButton,targ_click.midButton,targ_click.rightButton,targ_click.time,targ_click.clicked_name,break_done_touch.x,break_done_touch.y,break_done_touch.leftButton,break_done_touch.midButton,break_done_touch.rightButton,break_done_keyboard.keys,maintrials.thisRepN,maintrials.thisTrialN,maintrials.thisN,maintrials.thisIndex,maintrials.ran,string,blur,study,lex,stim_path,break_done_keyboard.rt,test_instructions.thisRepN,test_instructions.thisTrialN,test_instructions.thisN,test_instructions.thisIndex,test_instructions.ran,key_resp_3.keys,key_resp_3.corr,key_resp_3.rt,test_click.x,test_click.y,test_click.leftButton,test_click.midButton,test_click.rightButton,test_click.time,test_click.clicked_name,test_phase.thisRepN,test_phase.thisTrialN,test_phase.thisN,test_phase.thisIndex,test_phase.ran
,0.106276042,-0.392747396,1,0,0,instr_done_button,0,0,0,0,1,1,instructions,"INSTRUCTIONS
At the start of each trial, look at the plus sign  (+) in the center of the screen.  This tells you that a trial is about to begin and where to look. Second, the plus sign will disappear and a string of letters will appear. Your task is to determine if the string of letters is a word or not. If the item is a word press the M key (on keyboard)  or touch the word button (phone/tablet).  If the item is not a word,  press the  Z key (on keyboard)  or touch the nonword button (on phone/tablet). 
Press the space bar or touch  continue.",0,,198850,19,2022-01-28_16h22.06.820,lexical_decision_task_DD,2021.2.3,MacIntel,59.99880002,,,,,,,,,,,,,,,,,,,,,,,,,,,,,,,,,,,,,,,,,,,,,,,,,,,,,,,,,,,,,,,,,,,,,,,,,
space,0.105928819,0.040625,0,0,0,,0,1,1,1,1,2,instructions,"If your device has a keyboard, press the 'Z' key for nonwords and the 'M' key for words.





Press the space bar or touch the button below to continue.",0,keyboard-example.gif,198850,19,2022-01-28_16h22.06.820,lexical_decision_task_DD,2021.2.3,MacIntel,59.99880002,6.649,,,,,,,,,,,,,,,,,,,,,,,,,,,,,,,,,,,,,,,,,,,,,,,,,,,,,,,,,,,,,,,,,,,,,,,,
space,0.105928819,0.040625,0,0,0,,0,2,2,2,1,3,instructions,"If you are using a touchscreen only device, use the buttons on the screen. Do not use the mouse.





Press the space bar or touch the button below to continue.",0,touchscreen-example.gif,198850,19,2022-01-28_16h22.06.820,lexical_decision_task_DD,2021.2.3,MacIntel,59.99880002,1.5297,,,,,,,,,,,,,,,,,,,,,,,,,,,,,,,,,,,,,,,,,,,,,,,,,,,,,,,,,,,,,,,,,,,,,,,,
space,0.105928819,0.040625,0,0,0,,0,3,3,3,1,4,instructions,"It is very important that you respond as quickly and accurately as possible, as each letter string will only be on the screen for two seconds. If you do not respond within this time, the message 'Too slow!' will be displayed and the experiment will progress to the next letter string. The first 20 trials will be practice trials and you will receive feedback on your answers. 

Press the space bar or touch the button below to start the practice trials.",0,,198850,19,2022-01-28_16h22.06.820,lexical_decision_task_DD,2021.2.3,MacIntel,59.99880002,15.8893,,,,,,,,,,,,,,,,,,,,,,,,,,,,,,,,,,,,,,,,,,,,,,,,,,,,,,,,,,,,,,,,,,,,,,,,
,,,,,,,,,,,,,,,,,198850,19,2022-01-28_16h22.06.820,lexical_decision_task_DD,2021.2.3,MacIntel,59.99880002,,m,1,1.8274,,,,,,,,1.8274,1,0,0,0,5,1,1001,OBTAIN,m,,,,,,,,,,,,,,,,,,,,,,,,,,,,,,,,,,,,,,,,,,,,,,,,,,,,
,,,,,,,,,,,,,,,,,198850,19,2022-01-28_16h22.06.820,lexical_decision_task_DD,2021.2.3,MacIntel,59.99880002,,z,1,1.1199,,,,,,,,1.1199,1,0,1,1,8,1,1001,ASLERT,z,,,,,,,,,,,,,,,,,,,,,,,,,,,,,,,,,,,,,,,,,,,,,,,,,,,,
,,,,,,,,,,,,,,,,,198850,19,2022-01-28_16h22.06.820,lexical_decision_task_DD,2021.2.3,MacIntel,59.99880002,,z,1,1.16,,,,,,,,1.16,1,0,2,2,15,1,1001,WHAISE,z,,,,,,,,,,,,,,,,,,,,,,,,,,,,,,,,,,,,,,,,,,,,,,,,,,,,
,,,,,,,,,,,,,,,,,198850,19,2022-01-28_16h22.06.820,lexical_decision_task_DD,2021.2.3,MacIntel,59.99880002,,m,0,0.9616,,,,,,,,0.9616,0,0,3,3,12,1,1001,SPRINY,z,,,,,,,,,,,,,,,,,,,,,,,,,,,,,,,,,,,,,,,,,,,,,,,,,,,,
,,,,,,,,,,,,,,,,,198850,19,2022-01-28_16h22.06.820,lexical_decision_task_DD,2021.2.3,MacIntel,59.99880002,,z,1,0.8354,,,,,,,,0.8354,1,0,4,4,10,1,1001,INLADE,z,,,,,,,,,,,,,,,,,,,,,,,,,,,,,,,,,,,,,,,,,,,,,,,,,,,,
,,,,,,,,,,,,,,,,,198850,19,2022-01-28_16h22.06.820,lexical_decision_task_DD,2021.2.3,MacIntel,59.99880002,,z,1,0.8663,,,,,,,,0.8663,1,0,5,5,14,1,1001,THRALE,z,,,,,,,,,,,,,,,,,,,,,,,,,,,,,,,,,,,,,,,,,,,,,,,,,,,,
,,,,,,,,,,,,,,,,,198850,19,2022-01-28_16h22.06.820,lexical_decision_task_DD,2021.2.3,MacIntel,59.99880002,,m,1,0.6701,,,,,,,,0.6701,1,0,6,6,3,1,1001,MATRIX,m,,,,,,,,,,,,,,,,,,,,,,,,,,,,,,,,,,,,,,,,,,,,,,,,,,,,
,,,,,,,,,,,,,,,,,198850,19,2022-01-28_16h22.06.820,lexical_decision_task_DD,2021.2.3,MacIntel,59.99880002,,m,1,1.2855,,,,,,,,1.2855,1,0,7,7,1,1,1001,ADJUST,m,,,,,,,,,,,,,,,,,,,,,,,,,,,,,,,,,,,,,,,,,,,,,,,,,,,,
,,,,,,,,,,,,,,,,,198850,19,2022-01-28_16h22.06.820,lexical_decision_task_DD,2021.2.3,MacIntel,59.99880002,,m,1,0.6676,,,,,,,,0.6676,1,0,8,8,7,1,1001,VOLUME,m,,,,,,,,,,,,,,,,,,,,,,,,,,,,,,,,,,,,,,,,,,,,,,,,,,,,
,,,,,,,,,,,,,,,,,198850,19,2022-01-28_16h22.06.820,lexical_decision_task_DD,2021.2.3,MacIntel,59.99880002,,z,1,0.6534,,,,,,,,0.6534,1,0,9,9,13,1,1001,ROUPET,z,,,,,,,,,,,,,,,,,,,,,,,,,,,,,,,,,,,,,,,,,,,,,,,,,,,,
,,,,,,,,,,,,,,,,,198850,19,2022-01-28_16h22.06.820,lexical_decision_task_DD,2021.2.3,MacIntel,59.99880002,,m,1,0.6304,,,,,,,,0.6304,1,0,10,10,6,1,1001,ZOMBIE,m,,,,,,,,,,,,,,,,,,,,,,,,,,,,,,,,,,,,,,,,,,,,,,,,,,,,
,,,,,,,,,,,,,,,,,198850,19,2022-01-28_16h22.06.820,lexical_decision_task_DD,2021.2.3,MacIntel,59.99880002,,z,1,0.7098,,,,,,,,0.7098,1,0,11,11,9,1,1001,FARINY,z,,,,,,,,,,,,,,,,,,,,,,,,,,,,,,,,,,,,,,,,,,,,,,,,,,,,
,,,,,,,,,,,,,,,,,198850,19,2022-01-28_16h22.06.820,lexical_decision_task_DD,2021.2.3,MacIntel,59.99880002,,z,1,0.859,,,,,,,,0.859,1,0,12,12,11,1,1001,RASHET,z,,,,,,,,,,,,,,,,,,,,,,,,,,,,,,,,,,,,,,,,,,,,,,,,,,,,
,,,,,,,,,,,,,,,,,198850,19,2022-01-28_16h22.06.820,lexical_decision_task_DD,2021.2.3,MacIntel,59.99880002,,m,1,0.7667,,,,,,,,0.7667,1,0,13,13,4,1,1001,SQUEAK,m,,,,,,,,,,,,,,,,,,,,,,,,,,,,,,,,,,,,,,,,,,,,,,,,,,,,
,,,,,,,,,,,,,,,,,198850,19,2022-01-28_16h22.06.820,lexical_decision_task_DD,2021.2.3,MacIntel,59.99880002,,m,1,0.6716,,,,,,,,0.6716,1,0,14,14,2,1,1001,ALMOND,m,,,,,,,,,,,,,,,,,,,,,,,,,,,,,,,,,,,,,,,,,,,,,,,,,,,,
,,,,,,,,,,,,,,,,,198850,19,2022-01-28_16h22.06.820,lexical_decision_task_DD,2021.2.3,MacIntel,59.99880002,,m,1,0.8809,,,,,,,,0.8809,1,0,15,15,0,1,1001,UTOPIA,m,,,,,,,,,,,,,,,,,,,,,,,,,,,,,,,,,,,,,,,,,,,,,,,,,,,,
space,0.105928819,0.040625,0,0,0,,,,,,,1,end_of_practice,"You have completed the practice trials. During the experimental trials, you will not receive feedback. 
Before you begin, please ensure that you are in a comfortable and quiet location and will not be disturbed for about 15 minutes, as we cannot use your data if you do not complete all the trials. 
 When you are ready to start the experimental trials, please press space or touch the button below.",,,198850,19,2022-01-28_16h22.06.820,lexical_decision_task_DD,2021.2.3,MacIntel,59.99880002,11.3948,,,,,,,,,,,,,,,,,,,,,0,0,0,0,1,,,,,,,,,,,,,,,,,,,,,,,,,,,,,,,,,,,,,,,,,,,,,,,
,,,,,,,,,,,,,,,,,198850,19,2022-01-28_16h22.06.820,lexical_decision_task_DD,2021.2.3,MacIntel,59.99880002,,,,,,,,,,,,1.5847,1,,,,,,,,,,,,,,z,1,1.5847,,,,,,,,0.105928819,0.040625,0,0,0,,0,0,0,95,1,HANTY,LB,old,z,./images/HANTYLB.png,,,,,,,,,,,,,,,,,,,,,
,,,,,,,,,,,,,,,,,198850,19,2022-01-28_16h22.06.820,lexical_decision_task_DD,2021.2.3,MacIntel,59.99880002,,,,,,,,,,,,1.472,1,,,,,,,,,,,,,,m,1,1.472,,,,,,,,0.105928819,0.040625,0,0,0,,0,1,1,62,1,PURSE,LB,old,m,./images/PURSELB.png,,,,,,,,,,,,,,,,,,,,,
,,,,,,,,,,,,,,,,,198850,19,2022-01-28_16h22.06.820,lexical_decision_task_DD,2021.2.3,MacIntel,59.99880002,,,,,,,,,,,,2.4213,1,,,,,,,,,,,,,,z,1,2.4213,,,,,,,,0.105928819,0.040625,0,0,0,,0,2,2,154,1,THINT,HB,old,z,./images/THINTHB.png,,,,,,,,,,,,,,,,,,,,,
,,,,,,,,,,,,,,,,,198850,19,2022-01-28_16h22.06.820,lexical_decision_task_DD,2021.2.3,MacIntel,59.99880002,,,,,,,,,,,,0.8302,1,,,,,,,,,,,,,,m,1,0.8302,,,,,,,,0.105928819,0.040625,0,0,0,,0,3,3,34,1,CANYON,HB,old,m,./images/CANYONHB.png,,,,,,,,,,,,,,,,,,,,,
,,,,,,,,,,,,,,,,,198850,19,2022-01-28_16h22.06.820,lexical_decision_task_DD,2021.2.3,MacIntel,59.99880002,,,,,,,,,,,,0.7474,1,,,,,,,,,,,,,,z,1,0.7474,,,,,,,,0.105928819,0.040625,0,0,0,,0,4,4,123,1,SEDGE,C,old,z,./images/SEDGE.png,,,,,,,,,,,,,,,,,,,,,
,,,,,,,,,,,,,,,,,198850,19,2022-01-28_16h22.06.820,lexical_decision_task_DD,2021.2.3,MacIntel,59.99880002,,,,,,,,,,,,0.5851,1,,,,,,,,,,,,,,m,1,0.5851,,,,,,,,0.105928819,0.040625,0,0,0,,0,5,5,42,1,FOLDER,C,old,m,./images/FOLDER.png,,,,,,,,,,,,,,,,,,,,,
,,,,,,,,,,,,,,,,,198850,19,2022-01-28_16h22.06.820,lexical_decision_task_DD,2021.2.3,MacIntel,59.99880002,,,,,,,,,,,,0.6033,1,,,,,,,,,,,,,,m,1,0.6033,,,,,,,,0.105928819,0.040625,0,0,0,,0,6,6,36,1,THROAT,C,old,m,./images/THROAT.png,,,,,,,,,,,,,,,,,,,,,
,,,,,,,,,,,,,,,,,198850,19,2022-01-28_16h22.06.820,lexical_decision_task_DD,2021.2.3,MacIntel,59.99880002,,,,,,,,,,,,0.8674,1,,,,,,,,,,,,,,m,1,0.8674,,,,,,,,0.105928819,0.040625,0,0,0,,0,7,7,13,1,MOTOR,HB,old,m,./images/MOTORHB.png,,,,,,,,,,,,,,,,,,,,,
,,,,,,,,,,,,,,,,,198850,19,2022-01-28_16h22.06.820,lexical_decision_task_DD,2021.2.3,MacIntel,59.99880002,,,,,,,,,,,,0.8289,1,,,,,,,,,,,,,,z,1,0.8289,,,,,,,,0.105928819,0.040625,0,0,0,,0,8,8,122,1,BLOOT,LB,old,z,./images/BLOOTLB.png,,,,,,,,,,,,,,,,,,,,,
,,,,,,,,,,,,,,,,,198850,19,2022-01-28_16h22.06.820,lexical_decision_task_DD,2021.2.3,MacIntel,59.99880002,,,,,,,,,,,,0.7143,1,,,,,,,,,,,,,,m,1,0.7143,,,,,,,,0.105928819,0.040625,0,0,0,,0,9,9,80,1,WEASEL,LB,old,m,./images/WEASELLB.png,,,,,,,,,,,,,,,,,,,,,
,,,,,,,,,,,,,,,,,198850,19,2022-01-28_16h22.06.820,lexical_decision_task_DD,2021.2.3,MacIntel,59.99880002,,,,,,,,,,,,1.3997,1,,,,,,,,,,,,,,z,1,1.3997,,,,,,,,0.105928819,0.040625,0,0,0,,0,10,10,112,1,MYING,HB,old,z,./images/MYINGHB.png,,,,,,,,,,,,,,,,,,,,,
,,,,,,,,,,,,,,,,,198850,19,2022-01-28_16h22.06.820,lexical_decision_task_DD,2021.2.3,MacIntel,59.99880002,,,,,,,,,,,,1.172,1,,,,,,,,,,,,,,z,1,1.172,,,,,,,,0.105928819,0.040625,0,0,0,,0,11,11,139,1,BLEAR,HB,old,z,./images/BLEARHB.png,,,,,,,,,,,,,,,,,,,,,
,,,,,,,,,,,,,,,,,198850,19,2022-01-28_16h22.06.820,lexical_decision_task_DD,2021.2.3,MacIntel,59.99880002,,,,,,,,,,,,0.8527,1,,,,,,,,,,,,,,z,1,0.8527,,,,,,,,0.105928819,0.040625,0,0,0,,0,12,12,107,1,FASKS,LB,old,z,./images/FASKSLB.png,,,,,,,,,,,,,,,,,,,,,
,,,,,,,,,,,,,,,,,198850,19,2022-01-28_16h22.06.820,lexical_decision_task_DD,2021.2.3,MacIntel,59.99880002,,,,,,,,,,,,2.2688,1,,,,,,,,,,,,,,z,1,2.2688,,,,,,,,0.105928819,0.040625,0,0,0,,0,13,13,91,1,SHENS,HB,old,z,./images/SHENSHB.png,,,,,,,,,,,,,,,,,,,,,
,,,,,,,,,,,,,,,,,198850,19,2022-01-28_16h22.06.820,lexical_decision_task_DD,2021.2.3,MacIntel,59.99880002,,,,,,,,,,,,0.8023,1,,,,,,,,,,,,,,z,1,0.8023,,,,,,,,0.105928819,0.040625,0,0,0,,0,14,14,143,1,MONGS,LB,old,z,./images/MONGSLB.png,,,,,,,,,,,,,,,,,,,,,
,,,,,,,,,,,,,,,,,198850,19,2022-01-28_16h22.06.820,lexical_decision_task_DD,2021.2.3,MacIntel,59.99880002,,,,,,,,,,,,0.5241,1,,,,,,,,,,,,,,m,1,0.5241,,,,,,,,0.105928819,0.040625,0,0,0,,0,15,15,30,1,STORM,C,old,m,./images/STORM.png,,,,,,,,,,,,,,,,,,,,,
,,,,,,,,,,,,,,,,,198850,19,2022-01-28_16h22.06.820,lexical_decision_task_DD,2021.2.3,MacIntel,59.99880002,,,,,,,,,,,,0.7512,1,,,,,,,,,,,,,,m,1,0.7512,,,,,,,,0.105928819,0.040625,0,0,0,,0,16,16,37,1,BIRTH,HB,old,m,./images/BIRTHHB.png,,,,,,,,,,,,,,,,,,,,,
,,,,,,,,,,,,,,,,,198850,19,2022-01-28_16h22.06.820,lexical_decision_task_DD,2021.2.3,MacIntel,59.99880002,,,,,,,,,,,,0.6211,1,,,,,,,,,,,,,,m,1,0.6211,,,,,,,,0.105928819,0.040625,0,0,0,,0,17,17,39,1,SHELF,C,old,m,./images/SHELF.png,,,,,,,,,,,,,,,,,,,,,
,,,,,,,,,,,,,,,,,198850,19,2022-01-28_16h22.06.820,lexical_decision_task_DD,2021.2.3,MacIntel,59.99880002,,,,,,,,,,,,0.8322,1,,,,,,,,,,,,,,m,1,0.8322,,,,,,,,0.105928819,0.040625,0,0,0,,0,18,18,15,1,GREASE,C,old,m,./images/GREASE.png,,,,,,,,,,,,,,,,,,,,,
,,,,,,,,,,,,,,,,,198850,19,2022-01-28_16h22.06.820,lexical_decision_task_DD,2021.2.3,MacIntel,59.99880002,,,,,,,,,,,,0.7013,1,,,,,,,,,,,,,,z,1,0.7013,,,,,,,,0.105928819,0.040625,0,0,0,,0,19,19,150,1,NOOLS,C,old,z,./images/NOOLS.png,,,,,,,,,,,,,,,,,,,,,
,,,,,,,,,,,,,,,,,198850,19,2022-01-28_16h22.06.820,lexical_decision_task_DD,2021.2.3,MacIntel,59.99880002,,,,,,,,,,,,0.6069,1,,,,,,,,,,,,,,m,1,0.6069,,,,,,,,0.105928819,0.040625,0,0,0,,0,20,20,53,1,CARPET,LB,old,m,./images/CARPETLB.png,,,,,,,,,,,,,,,,,,,,,
,,,,,,,,,,,,,,,,,198850,19,2022-01-28_16h22.06.820,lexical_decision_task_DD,2021.2.3,MacIntel,59.99880002,,,,,,,,,,,,0.5524,1,,,,,,,,,,,,,,m,1,0.5524,,,,,,,,0.105928819,0.040625,0,0,0,,0,21,21,68,1,TORCH,LB,old,m,./images/TORCHLB.png,,,,,,,,,,,,,,,,,,,,,
,,,,,,,,,,,,,,,,,198850,19,2022-01-28_16h22.06.820,lexical_decision_task_DD,2021.2.3,MacIntel,59.99880002,,,,,,,,,,,,1.6854,0,,,,,,,,,,,,,,m,0,1.6854,,,,,,,,0.105928819,0.040625,0,0,0,,0,22,22,130,1,CRILL,HB,old,z,./images/CRILLHB.png,,,,,,,,,,,,,,,,,,,,,
,,,,,,,,,,,,,,,,,198850,19,2022-01-28_16h22.06.820,lexical_decision_task_DD,2021.2.3,MacIntel,59.99880002,,,,,,,,,,,,0.5254,0,,,,,,,,,,,,,,z,0,0.5254,,,,,,,,0.105928819,0.040625,0,0,0,,0,23,23,63,1,MIRROR,C,old,m,./images/MIRROR.png,,,,,,,,,,,,,,,,,,,,,
,,,,,,,,,,,,,,,,,198850,19,2022-01-28_16h22.06.820,lexical_decision_task_DD,2021.2.3,MacIntel,59.99880002,,,,,,,,,,,,0.7528,1,,,,,,,,,,,,,,m,1,0.7528,,,,,,,,0.105928819,0.040625,0,0,0,,0,24,24,38,1,LADDER,LB,old,m,./images/LADDERLB.png,,,,,,,,,,,,,,,,,,,,,
,,,,,,,,,,,,,,,,,198850,19,2022-01-28_16h22.06.820,lexical_decision_task_DD,2021.2.3,MacIntel,59.99880002,,,,,,,,,,,,0.7629,0,,,,,,,,,,,,,,m,0,0.7629,,,,,,,,0.105928819,0.040625,0,0,0,,0,25,25,165,1,TROWN,C,old,z,./images/TROWN.png,,,,,,,,,,,,,,,,,,,,,
,,,,,,,,,,,,,,,,,198850,19,2022-01-28_16h22.06.820,lexical_decision_task_DD,2021.2.3,MacIntel,59.99880002,,,,,,,,,,,,0.8685,1,,,,,,,,,,,,,,m,1,0.8685,,,,,,,,0.105928819,0.040625,0,0,0,,0,26,26,52,1,BANNER,HB,old,m,./images/BANNERHB.png,,,,,,,,,,,,,,,,,,,,,
,,,,,,,,,,,,,,,,,198850,19,2022-01-28_16h22.06.820,lexical_decision_task_DD,2021.2.3,MacIntel,59.99880002,,,,,,,,,,,,0.8039,1,,,,,,,,,,,,,,m,1,0.8039,,,,,,,,0.105928819,0.040625,0,0,0,,0,27,27,33,1,MAGGOT,C,old,m,./images/MAGGOT.png,,,,,,,,,,,,,,,,,,,,,
,,,,,,,,,,,,,,,,,198850,19,2022-01-28_16h22.06.820,lexical_decision_task_DD,2021.2.3,MacIntel,59.99880002,,,,,,,,,,,,1.7024,1,,,,,,,,,,,,,,z,1,1.7024,,,,,,,,0.105928819,0.040625,0,0,0,,0,28,28,124,1,TUNCH,HB,old,z,./images/TUNCHHB.png,,,,,,,,,,,,,,,,,,,,,
,,,,,,,,,,,,,,,,,198850,19,2022-01-28_16h22.06.820,lexical_decision_task_DD,2021.2.3,MacIntel,59.99880002,,,,,,,,,,,,0.751,1,,,,,,,,,,,,,,m,1,0.751,,,,,,,,0.105928819,0.040625,0,0,0,,0,29,29,64,1,JELLY,HB,old,m,./images/JELLYHB.png,,,,,,,,,,,,,,,,,,,,,
,,,,,,,,,,,,,,,,,198850,19,2022-01-28_16h22.06.820,lexical_decision_task_DD,2021.2.3,MacIntel,59.99880002,,,,,,,,,,,,0.7471,1,,,,,,,,,,,,,,m,1,0.7471,,,,,,,,0.105928819,0.040625,0,0,0,,0,30,30,10,1,BELLY,HB,old,m,./images/BELLYHB.png,,,,,,,,,,,,,,,,,,,,,
,,,,,,,,,,,,,,,,,198850,19,2022-01-28_16h22.06.820,lexical_decision_task_DD,2021.2.3,MacIntel,59.99880002,,,,,,,,,,,,0.6548,1,,,,,,,,,,,,,,m,1,0.6548,,,,,,,,0.105928819,0.040625,0,0,0,,0,31,31,3,1,FINGER,C,old,m,./images/FINGER.png,,,,,,,,,,,,,,,,,,,,,
,,,,,,,,,,,,,,,,,198850,19,2022-01-28_16h22.06.820,lexical_decision_task_DD,2021.2.3,MacIntel,59.99880002,,,,,,,,,,,,1.9011,1,,,,,,,,,,,,,,z,1,1.9011,,,,,,,,0.105928819,0.040625,0,0,0,,0,32,32,166,1,SHORY,HB,old,z,./images/SHORYHB.png,,,,,,,,,,,,,,,,,,,,,
,,,,,,,,,,,,,,,,,198850,19,2022-01-28_16h22.06.820,lexical_decision_task_DD,2021.2.3,MacIntel,59.99880002,,,,,,,,,,,,0.7859,1,,,,,,,,,,,,,,z,1,0.7859,,,,,,,,0.105928819,0.040625,0,0,0,,0,33,33,134,1,TROSS,LB,old,z,./images/TROSSLB.png,,,,,,,,,,,,,,,,,,,,,
,,,,,,,,,,,,,,,,,198850,19,2022-01-28_16h22.06.820,lexical_decision_task_DD,2021.2.3,MacIntel,59.99880002,,,,,,,,,,,,1.5325,1,,,,,,,,,,,,,,z,1,1.5325,,,,,,,,0.105928819,0.040625,0,0,0,,0,34,34,110,1,CRUNK,LB,old,z,./images/CRUNKLB.png,,,,,,,,,,,,,,,,,,,,,
,,,,,,,,,,,,,,,,,198850,19,2022-01-28_16h22.06.820,lexical_decision_task_DD,2021.2.3,MacIntel,59.99880002,,,,,,,,,,,,0.7304,1,,,,,,,,,,,,,,m,1,0.7304,,,,,,,,0.105928819,0.040625,0,0,0,,0,35,35,27,1,ATTIC,C,old,m,./images/ATTIC.png,,,,,,,,,,,,,,,,,,,,,
,,,,,,,,,,,,,,,,,198850,19,2022-01-28_16h22.06.820,lexical_decision_task_DD,2021.2.3,MacIntel,59.99880002,,,,,,,,,,,,1.3848,0,,,,,,,,,,,,,,z,0,1.3848,,,,,,,,0.105928819,0.040625,0,0,0,,0,36,36,79,1,CRUST,HB,old,m,./images/CRUSTHB.png,,,,,,,,,,,,,,,,,,,,,
,,,,,,,,,,,,,,,,,198850,19,2022-01-28_16h22.06.820,lexical_decision_task_DD,2021.2.3,MacIntel,59.99880002,,,,,,,,,,,,2.2883,1,,,,,,,,,,,,,,m,1,2.2883,,,,,,,,0.105928819,0.040625,0,0,0,,0,37,37,16,1,PENCE,HB,old,m,./images/PENCEHB.png,,,,,,,,,,,,,,,,,,,,,
,,,,,,,,,,,,,,,,,198850,19,2022-01-28_16h22.06.820,lexical_decision_task_DD,2021.2.3,MacIntel,59.99880002,,,,,,,,,,,,0.6686,1,,,,,,,,,,,,,,m,1,0.6686,,,,,,,,0.105928819,0.040625,0,0,0,,0,38,38,41,1,STRING,LB,old,m,./images/STRINGLB.png,,,,,,,,,,,,,,,,,,,,,
,,,,,,,,,,,,,,,,,198850,19,2022-01-28_16h22.06.820,lexical_decision_task_DD,2021.2.3,MacIntel,59.99880002,,,,,,,,,,,,0.7789,1,,,,,,,,,,,,,,z,1,0.7789,,,,,,,,0.105928819,0.040625,0,0,0,,0,39,39,86,1,AIFED,LB,old,z,./images/AIFEDLB.png,,,,,,,,,,,,,,,,,,,,,
,,,,,,,,,,,,,,,,,198850,19,2022-01-28_16h22.06.820,lexical_decision_task_DD,2021.2.3,MacIntel,59.99880002,,,,,,,,,,,,1.568,1,,,,,,,,,,,,,,z,1,1.568,,,,,,,,0.105928819,0.040625,0,0,0,,0,40,40,88,1,GLUSH,HB,old,z,./images/GLUSHHB.png,,,,,,,,,,,,,,,,,,,,,
,,,,,,,,,,,,,,,,,198850,19,2022-01-28_16h22.06.820,lexical_decision_task_DD,2021.2.3,MacIntel,59.99880002,,,,,,,,,,,,0.6071,1,,,,,,,,,,,,,,z,1,0.6071,,,,,,,,0.105928819,0.040625,0,0,0,space,0,41,41,89,1,DRIEK,LB,old,z,./images/DRIEKLB.png,3.055,,,,,,,,,,,,,,,,,,,,
,,,,,,,,,,,,,,,,,198850,19,2022-01-28_16h22.06.820,lexical_decision_task_DD,2021.2.3,MacIntel,59.99880002,,,,,,,,,,,,1.2711,1,,,,,,,,,,,,,,m,1,1.2711,,,,,,,,0.105928819,0.040625,0,0,0,,0,42,42,4,1,MUSCLE,HB,old,m,./images/MUSCLEHB.png,,,,,,,,,,,,,,,,,,,,,
,,,,,,,,,,,,,,,,,198850,19,2022-01-28_16h22.06.820,lexical_decision_task_DD,2021.2.3,MacIntel,59.99880002,,,,,,,,,,,,1.0732,1,,,,,,,,,,,,,,m,1,1.0732,,,,,,,,0.105928819,0.040625,0,0,0,,0,43,43,17,1,SKIING,LB,old,m,./images/SKIINGLB.png,,,,,,,,,,,,,,,,,,,,,
,,,,,,,,,,,,,,,,,198850,19,2022-01-28_16h22.06.820,lexical_decision_task_DD,2021.2.3,MacIntel,59.99880002,,,,,,,,,,,,0.883,1,,,,,,,,,,,,,,z,1,0.883,,,,,,,,0.105928819,0.040625,0,0,0,,0,44,44,155,1,CANGY,LB,old,z,./images/CANGYLB.png,,,,,,,,,,,,,,,,,,,,,
,,,,,,,,,,,,,,,,,198850,19,2022-01-28_16h22.06.820,lexical_decision_task_DD,2021.2.3,MacIntel,59.99880002,,,,,,,,,,,,2.5408,1,,,,,,,,,,,,,,z,1,2.5408,,,,,,,,0.105928819,0.040625,0,0,0,,0,45,45,118,1,BAVEL,HB,old,z,./images/BAVELHB.png,,,,,,,,,,,,,,,,,,,,,
,,,,,,,,,,,,,,,,,198850,19,2022-01-28_16h22.06.820,lexical_decision_task_DD,2021.2.3,MacIntel,59.99880002,,,,,,,,,,,,0.7756,1,,,,,,,,,,,,,,z,1,0.7756,,,,,,,,0.105928819,0.040625,0,0,0,,0,46,46,93,1,SMONE,C,old,z,./images/SMONE.png,,,,,,,,,,,,,,,,,,,,,
,,,,,,,,,,,,,,,,,198850,19,2022-01-28_16h22.06.820,lexical_decision_task_DD,2021.2.3,MacIntel,59.99880002,,,,,,,,,,,,0.663,1,,,,,,,,,,,,,,m,1,0.663,,,,,,,,0.105928819,0.040625,0,0,0,,0,47,47,48,1,SPORT,C,old,m,./images/SPORT.png,,,,,,,,,,,,,,,,,,,,,
,,,,,,,,,,,,,,,,,198850,19,2022-01-28_16h22.06.820,lexical_decision_task_DD,2021.2.3,MacIntel,59.99880002,,,,,,,,,,,,0.7918,1,,,,,,,,,,,,,,m,1,0.7918,,,,,,,,0.105928819,0.040625,0,0,0,,0,48,48,8,1,TULIP,LB,old,m,./images/TULIPLB.png,,,,,,,,,,,,,,,,,,,,,
,,,,,,,,,,,,,,,,,198850,19,2022-01-28_16h22.06.820,lexical_decision_task_DD,2021.2.3,MacIntel,59.99880002,,,,,,,,,,,,0.6612,1,,,,,,,,,,,,,,m,1,0.6612,,,,,,,,0.105928819,0.040625,0,0,0,,0,49,49,78,1,LITTER,C,old,m,./images/LITTER.png,,,,,,,,,,,,,,,,,,,,,
,,,,,,,,,,,,,,,,,198850,19,2022-01-28_16h22.06.820,lexical_decision_task_DD,2021.2.3,MacIntel,59.99880002,,,,,,,,,,,,0.7422,1,,,,,,,,,,,,,,z,1,0.7422,,,,,,,,0.105928819,0.040625,0,0,0,,0,50,50,108,1,GRUET,C,old,z,./images/GRUET.png,,,,,,,,,,,,,,,,,,,,,
,,,,,,,,,,,,,,,,,198850,19,2022-01-28_16h22.06.820,lexical_decision_task_DD,2021.2.3,MacIntel,59.99880002,,,,,,,,,,,,0.5405,1,,,,,,,,,,,,,,m,1,0.5405,,,,,,,,0.105928819,0.040625,0,0,0,,0,51,51,51,1,ONION,C,old,m,./images/ONION.png,,,,,,,,,,,,,,,,,,,,,
,,,,,,,,,,,,,,,,,198850,19,2022-01-28_16h22.06.820,lexical_decision_task_DD,2021.2.3,MacIntel,59.99880002,,,,,,,,,,,,3.0676,1,,,,,,,,,,,,,,z,1,3.0676,,,,,,,,0.105928819,0.040625,0,0,0,,0,52,52,164,1,SGREW,LB,old,z,./images/SGREWLB.png,,,,,,,,,,,,,,,,,,,,,
,,,,,,,,,,,,,,,,,198850,19,2022-01-28_16h22.06.820,lexical_decision_task_DD,2021.2.3,MacIntel,59.99880002,,,,,,,,,,,,1.841,1,,,,,,,,,,,,,,z,1,1.841,,,,,,,,0.105928819,0.040625,0,0,0,,0,53,53,97,1,CHIDS,HB,old,z,./images/CHIDSHB.png,,,,,,,,,,,,,,,,,,,,,
,,,,,,,,,,,,,,,,,198850,19,2022-01-28_16h22.06.820,lexical_decision_task_DD,2021.2.3,MacIntel,59.99880002,,,,,,,,,,,,0.6091,1,,,,,,,,,,,,,,m,1,0.6091,,,,,,,,0.105928819,0.040625,0,0,0,,0,54,54,81,1,POODLE,C,old,m,./images/POODLE.png,,,,,,,,,,,,,,,,,,,,,
,,,,,,,,,,,,,,,,,198850,19,2022-01-28_16h22.06.820,lexical_decision_task_DD,2021.2.3,MacIntel,59.99880002,,,,,,,,,,,,0.9004,1,,,,,,,,,,,,,,m,1,0.9004,,,,,,,,0.105928819,0.040625,0,0,0,,0,55,55,19,1,DOUGH,HB,old,m,./images/DOUGHHB.png,,,,,,,,,,,,,,,,,,,,,
,,,,,,,,,,,,,,,,,198850,19,2022-01-28_16h22.06.820,lexical_decision_task_DD,2021.2.3,MacIntel,59.99880002,,,,,,,,,,,,0.7313,1,,,,,,,,,,,,,,z,1,0.7313,,,,,,,,0.105928819,0.040625,0,0,0,,0,56,56,84,1,HAXES,C,old,z,./images/HAXES.png,,,,,,,,,,,,,,,,,,,,,
,,,,,,,,,,,,,,,,,198850,19,2022-01-28_16h22.06.820,lexical_decision_task_DD,2021.2.3,MacIntel,59.99880002,,,,,,,,,,,,0.6452,1,,,,,,,,,,,,,,z,1,0.6452,,,,,,,,0.105928819,0.040625,0,0,0,,0,57,57,162,1,LEICH,C,old,z,./images/LEICH.png,,,,,,,,,,,,,,,,,,,,,
,,,,,,,,,,,,,,,,,198850,19,2022-01-28_16h22.06.820,lexical_decision_task_DD,2021.2.3,MacIntel,59.99880002,,,,,,,,,,,,0.6007,1,,,,,,,,,,,,,,z,1,0.6007,,,,,,,,0.105928819,0.040625,0,0,0,,0,58,58,131,1,NACES,LB,old,z,./images/NACESLB.png,,,,,,,,,,,,,,,,,,,,,
,,,,,,,,,,,,,,,,,198850,19,2022-01-28_16h22.06.820,lexical_decision_task_DD,2021.2.3,MacIntel,59.99880002,,,,,,,,,,,,1.2662,1,,,,,,,,,,,,,,m,1,1.2662,,,,,,,,0.105928819,0.040625,0,0,0,,0,59,59,49,1,DRUMS,HB,old,m,./images/DRUMSHB.png,,,,,,,,,,,,,,,,,,,,,
,,,,,,,,,,,,,,,,,198850,19,2022-01-28_16h22.06.820,lexical_decision_task_DD,2021.2.3,MacIntel,59.99880002,,,,,,,,,,,,1.1834,1,,,,,,,,,,,,,,z,1,1.1834,,,,,,,,0.105928819,0.040625,0,0,0,,0,60,60,127,1,NINDY,HB,old,z,./images/NINDYHB.png,,,,,,,,,,,,,,,,,,,,,
,,,,,,,,,,,,,,,,,198850,19,2022-01-28_16h22.06.820,lexical_decision_task_DD,2021.2.3,MacIntel,59.99880002,,,,,,,,,,,,0.7579,1,,,,,,,,,,,,,,z,1,0.7579,,,,,,,,0.105928819,0.040625,0,0,0,,0,61,61,105,1,MOKER,C,old,z,./images/MOKER.png,,,,,,,,,,,,,,,,,,,,,
,,,,,,,,,,,,,,,,,198850,19,2022-01-28_16h22.06.820,lexical_decision_task_DD,2021.2.3,MacIntel,59.99880002,,,,,,,,,,,,0.6761,1,,,,,,,,,,,,,,z,1,0.6761,,,,,,,,0.105928819,0.040625,0,0,0,,0,62,62,117,1,STEEG,C,old,z,./images/STEEG.png,,,,,,,,,,,,,,,,,,,,,
,,,,,,,,,,,,,,,,,198850,19,2022-01-28_16h22.06.820,lexical_decision_task_DD,2021.2.3,MacIntel,59.99880002,,,,,,,,,,,,0.7608,1,,,,,,,,,,,,,,m,1,0.7608,,,,,,,,0.105928819,0.040625,0,0,0,,0,63,63,23,1,WALRUS,LB,old,m,./images/WALRUSLB.png,,,,,,,,,,,,,,,,,,,,,
,,,,,,,,,,,,,,,,,198850,19,2022-01-28_16h22.06.820,lexical_decision_task_DD,2021.2.3,MacIntel,59.99880002,,,,,,,,,,,,0.6764,1,,,,,,,,,,,,,,z,1,0.6764,,,,,,,,0.105928819,0.040625,0,0,0,,0,64,64,138,1,PLICE,C,old,z,./images/PLICE.png,,,,,,,,,,,,,,,,,,,,,
,,,,,,,,,,,,,,,,,198850,19,2022-01-28_16h22.06.820,lexical_decision_task_DD,2021.2.3,MacIntel,59.99880002,,,,,,,,,,,,1.6185,1,,,,,,,,,,,,,,m,1,1.6185,,,,,,,,0.105928819,0.040625,0,0,0,,0,65,65,31,1,QUILL,HB,old,m,./images/QUILLHB.png,,,,,,,,,,,,,,,,,,,,,
,,,,,,,,,,,,,,,,,198850,19,2022-01-28_16h22.06.820,lexical_decision_task_DD,2021.2.3,MacIntel,59.99880002,,,,,,,,,,,,0.8779,1,,,,,,,,,,,,,,z,1,0.8779,,,,,,,,0.105928819,0.040625,0,0,0,,0,66,66,126,1,GUELS,C,old,z,./images/GUELS.png,,,,,,,,,,,,,,,,,,,,,
,,,,,,,,,,,,,,,,,198850,19,2022-01-28_16h22.06.820,lexical_decision_task_DD,2021.2.3,MacIntel,59.99880002,,,,,,,,,,,,1.2672,1,,,,,,,,,,,,,,m,1,1.2672,,,,,,,,0.105928819,0.040625,0,0,0,,0,67,67,73,1,SNACK,HB,old,m,./images/SNACKHB.png,,,,,,,,,,,,,,,,,,,,,
,,,,,,,,,,,,,,,,,198850,19,2022-01-28_16h22.06.820,lexical_decision_task_DD,2021.2.3,MacIntel,59.99880002,,,,,,,,,,,,0.9328,1,,,,,,,,,,,,,,z,1,0.9328,,,,,,,,0.105928819,0.040625,0,0,0,,0,68,68,85,1,CHULK,HB,old,z,./images/CHULKHB.png,,,,,,,,,,,,,,,,,,,,,
,,,,,,,,,,,,,,,,,198850,19,2022-01-28_16h22.06.820,lexical_decision_task_DD,2021.2.3,MacIntel,59.99880002,,,,,,,,,,,,0.7566,1,,,,,,,,,,,,,,m,1,0.7566,,,,,,,,0.105928819,0.040625,0,0,0,,0,69,69,24,1,SCREW,C,old,m,./images/SCREW.png,,,,,,,,,,,,,,,,,,,,,
,,,,,,,,,,,,,,,,,198850,19,2022-01-28_16h22.06.820,lexical_decision_task_DD,2021.2.3,MacIntel,59.99880002,,,,,,,,,,,,2.1519,1,,,,,,,,,,,,,,m,1,2.1519,,,,,,,,0.105928819,0.040625,0,0,0,,0,70,70,43,1,MOSQUE,HB,old,m,./images/MOSQUEHB.png,,,,,,,,,,,,,,,,,,,,,
,,,,,,,,,,,,,,,,,198850,19,2022-01-28_16h22.06.820,lexical_decision_task_DD,2021.2.3,MacIntel,59.99880002,,,,,,,,,,,,0.7463,1,,,,,,,,,,,,,,m,1,0.7463,,,,,,,,0.105928819,0.040625,0,0,0,,0,71,71,77,1,COUCH,LB,old,m,./images/COUCHLB.png,,,,,,,,,,,,,,,,,,,,,
,,,,,,,,,,,,,,,,,198850,19,2022-01-28_16h22.06.820,lexical_decision_task_DD,2021.2.3,MacIntel,59.99880002,,,,,,,,,,,,0.8139,1,,,,,,,,,,,,,,z,1,0.8139,,,,,,,,0.105928819,0.040625,0,0,0,,0,72,72,159,1,CUDDY,C,old,z,./images/CUDDY.png,,,,,,,,,,,,,,,,,,,,,
,,,,,,,,,,,,,,,,,198850,19,2022-01-28_16h22.06.820,lexical_decision_task_DD,2021.2.3,MacIntel,59.99880002,,,,,,,,,,,,0.6513,1,,,,,,,,,,,,,,m,1,0.6513,,,,,,,,0.105928819,0.040625,0,0,0,,0,73,73,28,1,FALCON,HB,old,m,./images/FALCONHB.png,,,,,,,,,,,,,,,,,,,,,
,,,,,,,,,,,,,,,,,198850,19,2022-01-28_16h22.06.820,lexical_decision_task_DD,2021.2.3,MacIntel,59.99880002,,,,,,,,,,,,0.6515,1,,,,,,,,,,,,,,z,1,0.6515,,,,,,,,0.105928819,0.040625,0,0,0,,0,74,74,146,1,MOOST,LB,old,z,./images/MOOSTLB.png,,,,,,,,,,,,,,,,,,,,,
,,,,,,,,,,,,,,,,,198850,19,2022-01-28_16h22.06.820,lexical_decision_task_DD,2021.2.3,MacIntel,59.99880002,,,,,,,,,,,,1.8017,1,,,,,,,,,,,,,,z,1,1.8017,,,,,,,,0.105928819,0.040625,0,0,0,,0,75,75,136,1,WERVE,HB,old,z,./images/WERVEHB.png,,,,,,,,,,,,,,,,,,,,,
,,,,,,,,,,,,,,,,,198850,19,2022-01-28_16h22.06.820,lexical_decision_task_DD,2021.2.3,MacIntel,59.99880002,,,,,,,,,,,,0.633,1,,,,,,,,,,,,,,z,1,0.633,,,,,,,,0.105928819,0.040625,0,0,0,,0,76,76,158,1,EGECT,LB,old,z,./images/EGECTLB.png,,,,,,,,,,,,,,,,,,,,,
,,,,,,,,,,,,,,,,,198850,19,2022-01-28_16h22.06.820,lexical_decision_task_DD,2021.2.3,MacIntel,59.99880002,,,,,,,,,,,,0.9965,1,,,,,,,,,,,,,,z,1,0.9965,,,,,,,,0.105928819,0.040625,0,0,0,,0,77,77,135,1,JOODY,C,old,z,./images/JOODY.png,,,,,,,,,,,,,,,,,,,,,
,,,,,,,,,,,,,,,,,198850,19,2022-01-28_16h22.06.820,lexical_decision_task_DD,2021.2.3,MacIntel,59.99880002,,,,,,,,,,,,0.6886,1,,,,,,,,,,,,,,m,1,0.6886,,,,,,,,0.105928819,0.040625,0,0,0,,0,78,78,35,1,PEACH,LB,old,m,./images/PEACHLB.png,,,,,,,,,,,,,,,,,,,,,
,,,,,,,,,,,,,,,,,198850,19,2022-01-28_16h22.06.820,lexical_decision_task_DD,2021.2.3,MacIntel,59.99880002,,,,,,,,,,,,0.8392,1,,,,,,,,,,,,,,z,1,0.8392,,,,,,,,0.105928819,0.040625,0,0,0,,0,79,79,151,1,TINKY,HB,old,z,./images/TINKYHB.png,,,,,,,,,,,,,,,,,,,,,
,,,,,,,,,,,,,,,,,198850,19,2022-01-28_16h22.06.820,lexical_decision_task_DD,2021.2.3,MacIntel,59.99880002,,,,,,,,,,,,0.5902,1,,,,,,,,,,,,,,m,1,0.5902,,,,,,,,0.105928819,0.040625,0,0,0,,0,80,80,66,1,SWEAT,C,old,m,./images/SWEAT.png,,,,,,,,,,,,,,,,,,,,,
,,,,,,,,,,,,,,,,,198850,19,2022-01-28_16h22.06.820,lexical_decision_task_DD,2021.2.3,MacIntel,59.99880002,,,,,,,,,,,,0.7466,1,,,,,,,,,,,,,,z,1,0.7466,,,,,,,,0.105928819,0.040625,0,0,0,,0,81,81,149,1,VEASE,LB,old,z,./images/VEASELB.png,,,,,,,,,,,,,,,,,,,,,
,,,,,,,,,,,,,,,,,198850,19,2022-01-28_16h22.06.820,lexical_decision_task_DD,2021.2.3,MacIntel,59.99880002,,,,,,,,,,,,1.1197,1,,,,,,,,,,,,,,m,1,1.1197,,,,,,,,0.105928819,0.040625,0,0,0,,0,82,82,76,1,INFANT,HB,old,m,./images/INFANTHB.png,,,,,,,,,,,,,,,,,,,,,
,,,,,,,,,,,,,,,,,198850,19,2022-01-28_16h22.06.820,lexical_decision_task_DD,2021.2.3,MacIntel,59.99880002,,,,,,,,,,,,0.5831,1,,,,,,,,,,,,,,z,1,0.5831,,,,,,,,0.105928819,0.040625,0,0,0,space,0,83,83,101,1,GLEET,LB,old,z,./images/GLEETLB.png,44.6998,,,,,,,,,,,,,,,,,,,,
,,,,,,,,,,,,,,,,,198850,19,2022-01-28_16h22.06.820,lexical_decision_task_DD,2021.2.3,MacIntel,59.99880002,,,,,,,,,,,,2.7456,1,,,,,,,,,,,,,,z,1,2.7456,,,,,,,,0.105928819,0.040625,0,0,0,,0,84,84,115,1,MAWNS,HB,old,z,./images/MAWNSHB.png,,,,,,,,,,,,,,,,,,,,,
,,,,,,,,,,,,,,,,,198850,19,2022-01-28_16h22.06.820,lexical_decision_task_DD,2021.2.3,MacIntel,59.99880002,,,,,,,,,,,,1.1626,1,,,,,,,,,,,,,,z,1,1.1626,,,,,,,,0.105928819,0.040625,0,0,0,,0,85,85,106,1,CLUMS,HB,old,z,./images/CLUMSHB.png,,,,,,,,,,,,,,,,,,,,,
,,,,,,,,,,,,,,,,,198850,19,2022-01-28_16h22.06.820,lexical_decision_task_DD,2021.2.3,MacIntel,59.99880002,,,,,,,,,,,,0.8847,1,,,,,,,,,,,,,,m,1,0.8847,,,,,,,,0.105928819,0.040625,0,0,0,,0,86,86,44,1,LIZARD,LB,old,m,./images/LIZARDLB.png,,,,,,,,,,,,,,,,,,,,,
,,,,,,,,,,,,,,,,,198850,19,2022-01-28_16h22.06.820,lexical_decision_task_DD,2021.2.3,MacIntel,59.99880002,,,,,,,,,,,,1.4561,1,,,,,,,,,,,,,,z,1,1.4561,,,,,,,,0.105928819,0.040625,0,0,0,,0,87,87,121,1,CEERS,HB,old,z,./images/CEERSHB.png,,,,,,,,,,,,,,,,,,,,,
,,,,,,,,,,,,,,,,,198850,19,2022-01-28_16h22.06.820,lexical_decision_task_DD,2021.2.3,MacIntel,59.99880002,,,,,,,,,,,,0.749,1,,,,,,,,,,,,,,z,1,0.749,,,,,,,,0.105928819,0.040625,0,0,0,,0,88,88,116,1,BALGY,LB,old,z,./images/BALGYLB.png,,,,,,,,,,,,,,,,,,,,,
,,,,,,,,,,,,,,,,,198850,19,2022-01-28_16h22.06.820,lexical_decision_task_DD,2021.2.3,MacIntel,59.99880002,,,,,,,,,,,,0.6243,1,,,,,,,,,,,,,,z,1,0.6243,,,,,,,,0.105928819,0.040625,0,0,0,,0,89,89,120,1,RINED,C,old,z,./images/RINED.png,,,,,,,,,,,,,,,,,,,,,
,,,,,,,,,,,,,,,,,198850,19,2022-01-28_16h22.06.820,lexical_decision_task_DD,2021.2.3,MacIntel,59.99880002,,,,,,,,,,,,1.8514,1,,,,,,,,,,,,,,z,1,1.8514,,,,,,,,0.105928819,0.040625,0,0,0,,0,90,90,109,1,BURGE,HB,old,z,./images/BURGEHB.png,,,,,,,,,,,,,,,,,,,,,
,,,,,,,,,,,,,,,,,198850,19,2022-01-28_16h22.06.820,lexical_decision_task_DD,2021.2.3,MacIntel,59.99880002,,,,,,,,,,,,0.6121,1,,,,,,,,,,,,,,m,1,0.6121,,,,,,,,0.105928819,0.040625,0,0,0,,0,91,91,21,1,KIDNEY,C,old,m,./images/KIDNEY.png,,,,,,,,,,,,,,,,,,,,,
,,,,,,,,,,,,,,,,,198850,19,2022-01-28_16h22.06.820,lexical_decision_task_DD,2021.2.3,MacIntel,59.99880002,,,,,,,,,,,,1.2705,1,,,,,,,,,,,,,,m,1,1.2705,,,,,,,,0.105928819,0.040625,0,0,0,,0,92,92,29,1,CRUMB,LB,old,m,./images/CRUMBLB.png,,,,,,,,,,,,,,,,,,,,,
,,,,,,,,,,,,,,,,,198850,19,2022-01-28_16h22.06.820,lexical_decision_task_DD,2021.2.3,MacIntel,59.99880002,,,,,,,,,,,,2.2176,1,,,,,,,,,,,,,,z,1,2.2176,,,,,,,,0.105928819,0.040625,0,0,0,,0,93,93,142,1,PLASK,HB,old,z,./images/PLASKHB.png,,,,,,,,,,,,,,,,,,,,,
,,,,,,,,,,,,,,,,,198850,19,2022-01-28_16h22.06.820,lexical_decision_task_DD,2021.2.3,MacIntel,59.99880002,,,,,,,,,,,,1.148,1,,,,,,,,,,,,,,z,1,1.148,,,,,,,,0.105928819,0.040625,0,0,0,,0,94,94,94,1,BLANS,HB,old,z,./images/BLANSHB.png,,,,,,,,,,,,,,,,,,,,,
,,,,,,,,,,,,,,,,,198850,19,2022-01-28_16h22.06.820,lexical_decision_task_DD,2021.2.3,MacIntel,59.99880002,,,,,,,,,,,,0.6675,1,,,,,,,,,,,,,,z,1,0.6675,,,,,,,,0.105928819,0.040625,0,0,0,,0,95,95,87,1,TRING,C,old,z,./images/TRING.png,,,,,,,,,,,,,,,,,,,,,
,,,,,,,,,,,,,,,,,198850,19,2022-01-28_16h22.06.820,lexical_decision_task_DD,2021.2.3,MacIntel,59.99880002,,,,,,,,,,,,1.0485,1,,,,,,,,,,,,,,m,1,1.0485,,,,,,,,0.105928819,0.040625,0,0,0,,0,96,96,11,1,BONNET,LB,old,m,./images/BONNETLB.png,,,,,,,,,,,,,,,,,,,,,
,,,,,,,,,,,,,,,,,198850,19,2022-01-28_16h22.06.820,lexical_decision_task_DD,2021.2.3,MacIntel,59.99880002,,,,,,,,,,,,1.0219,0,,,,,,,,,,,,,,m,0,1.0219,,,,,,,,0.105928819,0.040625,0,0,0,,0,97,97,140,1,DOVET,LB,old,z,./images/DOVETLB.png,,,,,,,,,,,,,,,,,,,,,
,,,,,,,,,,,,,,,,,198850,19,2022-01-28_16h22.06.820,lexical_decision_task_DD,2021.2.3,MacIntel,59.99880002,,,,,,,,,,,,0.8149,1,,,,,,,,,,,,,,m,1,0.8149,,,,,,,,0.105928819,0.040625,0,0,0,,0,98,98,20,1,CRADLE,LB,old,m,./images/CRADLELB.png,,,,,,,,,,,,,,,,,,,,,
,,,,,,,,,,,,,,,,,198850,19,2022-01-28_16h22.06.820,lexical_decision_task_DD,2021.2.3,MacIntel,59.99880002,,,,,,,,,,,,0.6568,1,,,,,,,,,,,,,,z,1,0.6568,,,,,,,,0.105928819,0.040625,0,0,0,,0,99,99,156,1,HIXES,C,old,z,./images/HIXES.png,,,,,,,,,,,,,,,,,,,,,
,,,,,,,,,,,,,,,,,198850,19,2022-01-28_16h22.06.820,lexical_decision_task_DD,2021.2.3,MacIntel,59.99880002,,,,,,,,,,,,0.5708,1,,,,,,,,,,,,,,m,1,0.5708,,,,,,,,0.105928819,0.040625,0,0,0,,0,100,100,45,1,KITTEN,C,old,m,./images/KITTEN.png,,,,,,,,,,,,,,,,,,,,,
,,,,,,,,,,,,,,,,,198850,19,2022-01-28_16h22.06.820,lexical_decision_task_DD,2021.2.3,MacIntel,59.99880002,,,,,,,,,,,,0.7659,1,,,,,,,,,,,,,,z,1,0.7659,,,,,,,,0.105928819,0.040625,0,0,0,,0,101,101,160,1,VEETS,HB,old,z,./images/VEETSHB.png,,,,,,,,,,,,,,,,,,,,,
,,,,,,,,,,,,,,,,,198850,19,2022-01-28_16h22.06.820,lexical_decision_task_DD,2021.2.3,MacIntel,59.99880002,,,,,,,,,,,,0.715,1,,,,,,,,,,,,,,z,1,0.715,,,,,,,,0.105928819,0.040625,0,0,0,,0,102,102,113,1,LINEW,LB,old,z,./images/LINEWLB.png,,,,,,,,,,,,,,,,,,,,,
,,,,,,,,,,,,,,,,,198850,19,2022-01-28_16h22.06.820,lexical_decision_task_DD,2021.2.3,MacIntel,59.99880002,,,,,,,,,,,,0.5602,1,,,,,,,,,,,,,,z,1,0.5602,,,,,,,,0.105928819,0.040625,0,0,0,,0,103,103,90,1,NEAST,C,old,z,./images/NEAST.png,,,,,,,,,,,,,,,,,,,,,
,,,,,,,,,,,,,,,,,198850,19,2022-01-28_16h22.06.820,lexical_decision_task_DD,2021.2.3,MacIntel,59.99880002,,,,,,,,,,,,0.5837,1,,,,,,,,,,,,,,m,1,0.5837,,,,,,,,0.105928819,0.040625,0,0,0,,0,104,104,2,1,BEARD,LB,old,m,./images/BEARDLB.png,,,,,,,,,,,,,,,,,,,,,
,,,,,,,,,,,,,,,,,198850,19,2022-01-28_16h22.06.820,lexical_decision_task_DD,2021.2.3,MacIntel,59.99880002,,,,,,,,,,,,0.6448,1,,,,,,,,,,,,,,z,1,0.6448,,,,,,,,0.105928819,0.040625,0,0,0,,0,105,105,141,1,PLEET,C,old,z,./images/PLEET.png,,,,,,,,,,,,,,,,,,,,,
,,,,,,,,,,,,,,,,,198850,19,2022-01-28_16h22.06.820,lexical_decision_task_DD,2021.2.3,MacIntel,59.99880002,,,,,,,,,,,,0.5653,1,,,,,,,,,,,,,,m,1,0.5653,,,,,,,,0.105928819,0.040625,0,0,0,,0,106,106,56,1,PACKET,LB,old,m,./images/PACKETLB.png,,,,,,,,,,,,,,,,,,,,,
,,,,,,,,,,,,,,,,,198850,19,2022-01-28_16h22.06.820,lexical_decision_task_DD,2021.2.3,MacIntel,59.99880002,,,,,,,,,,,,1.118,0,,,,,,,,,,,,,,z,0,1.118,,,,,,,,0.105928819,0.040625,0,0,0,,0,107,107,61,1,CANDLE,HB,old,m,./images/CANDLEHB.png,,,,,,,,,,,,,,,,,,,,,
,,,,,,,,,,,,,,,,,198850,19,2022-01-28_16h22.06.820,lexical_decision_task_DD,2021.2.3,MacIntel,59.99880002,,,,,,,,,,,,0.7526,1,,,,,,,,,,,,,,m,1,0.7526,,,,,,,,0.105928819,0.040625,0,0,0,,0,108,108,83,1,JUNGLE,LB,old,m,./images/JUNGLELB.png,,,,,,,,,,,,,,,,,,,,,
,,,,,,,,,,,,,,,,,198850,19,2022-01-28_16h22.06.820,lexical_decision_task_DD,2021.2.3,MacIntel,59.99880002,,,,,,,,,,,,0.9887,0,,,,,,,,,,,,,,z,0,0.9887,,,,,,,,0.191215278,0.182634549,0,0,0,,0,109,109,72,1,NOOSE,C,old,m,./images/NOOSE.png,,,,,,,,,,,,,,,,,,,,,
,,,,,,,,,,,,,,,,,198850,19,2022-01-28_16h22.06.820,lexical_decision_task_DD,2021.2.3,MacIntel,59.99880002,,,,,,,,,,,,0.7033,1,,,,,,,,,,,,,,m,1,0.7033,,,,,,,,0.191215278,0.182634549,0,0,0,,0,110,110,55,1,MUFFIN,HB,old,m,./images/MUFFINHB.png,,,,,,,,,,,,,,,,,,,,,
,,,,,,,,,,,,,,,,,198850,19,2022-01-28_16h22.06.820,lexical_decision_task_DD,2021.2.3,MacIntel,59.99880002,,,,,,,,,,,,0.9981,1,,,,,,,,,,,,,,z,1,0.9981,,,,,,,,0.191215278,0.182634549,0,0,0,,0,111,111,145,1,LAMEL,HB,old,z,./images/LAMELHB.png,,,,,,,,,,,,,,,,,,,,,
,,,,,,,,,,,,,,,,,198850,19,2022-01-28_16h22.06.820,lexical_decision_task_DD,2021.2.3,MacIntel,59.99880002,,,,,,,,,,,,0.5696,1,,,,,,,,,,,,,,m,1,0.5696,,,,,,,,0.191215278,0.182634549,0,0,0,,0,112,112,50,1,MALLET,LB,old,m,./images/MALLETLB.png,,,,,,,,,,,,,,,,,,,,,
,,,,,,,,,,,,,,,,,198850,19,2022-01-28_16h22.06.820,lexical_decision_task_DD,2021.2.3,MacIntel,59.99880002,,,,,,,,,,,,0.5966,1,,,,,,,,,,,,,,m,1,0.5966,,,,,,,,0.191215278,0.182634549,0,0,0,,0,113,113,74,1,CEMENT,LB,old,m,./images/CEMENTLB.png,,,,,,,,,,,,,,,,,,,,,
,,,,,,,,,,,,,,,,,198850,19,2022-01-28_16h22.06.820,lexical_decision_task_DD,2021.2.3,MacIntel,59.99880002,,,,,,,,,,,,0.5652,1,,,,,,,,,,,,,,m,1,0.5652,,,,,,,,0.191215278,0.182634549,0,0,0,,0,114,114,32,1,BARREL,LB,old,m,./images/BARRELLB.png,,,,,,,,,,,,,,,,,,,,,
,,,,,,,,,,,,,,,,,198850,19,2022-01-28_16h22.06.820,lexical_decision_task_DD,2021.2.3,MacIntel,59.99880002,,,,,,,,,,,,0.694,1,,,,,,,,,,,,,,z,1,0.694,,,,,,,,0.191215278,0.182634549,0,0,0,,0,115,115,104,1,GITTY,LB,old,z,./images/GITTYLB.png,,,,,,,,,,,,,,,,,,,,,
,,,,,,,,,,,,,,,,,198850,19,2022-01-28_16h22.06.820,lexical_decision_task_DD,2021.2.3,MacIntel,59.99880002,,,,,,,,,,,,0.8835,1,,,,,,,,,,,,,,z,1,0.8835,,,,,,,,0.191215278,0.182634549,0,0,0,,0,116,116,125,1,MOOKY,LB,old,z,./images/MOOKYLB.png,,,,,,,,,,,,,,,,,,,,,
,,,,,,,,,,,,,,,,,198850,19,2022-01-28_16h22.06.820,lexical_decision_task_DD,2021.2.3,MacIntel,59.99880002,,,,,,,,,,,,0.6338,1,,,,,,,,,,,,,,z,1,0.6338,,,,,,,,0.191215278,0.182634549,0,0,0,,0,117,117,148,1,JOMS,HB,old,z,./images/JOMSHB.png,,,,,,,,,,,,,,,,,,,,,
,,,,,,,,,,,,,,,,,198850,19,2022-01-28_16h22.06.820,lexical_decision_task_DD,2021.2.3,MacIntel,59.99880002,,,,,,,,,,,,0.6369,1,,,,,,,,,,,,,,z,1,0.6369,,,,,,,,0.191215278,0.182634549,0,0,0,,0,118,118,129,1,PRANS,C,old,z,./images/PRANS.png,,,,,,,,,,,,,,,,,,,,,
,,,,,,,,,,,,,,,,,198850,19,2022-01-28_16h22.06.820,lexical_decision_task_DD,2021.2.3,MacIntel,59.99880002,,,,,,,,,,,,1.0547,1,,,,,,,,,,,,,,m,1,1.0547,,,,,,,,0.191215278,0.182634549,0,0,0,,0,119,119,1,1,PLANK,HB,old,m,./images/PLANKHB.png,,,,,,,,,,,,,,,,,,,,,
,,,,,,,,,,,,,,,,,198850,19,2022-01-28_16h22.06.820,lexical_decision_task_DD,2021.2.3,MacIntel,59.99880002,,,,,,,,,,,,0.5838,1,,,,,,,,,,,,,,m,1,0.5838,,,,,,,,0.191215278,0.182634549,0,0,0,,0,120,120,14,1,PICKLE,LB,old,m,./images/PICKLELB.png,,,,,,,,,,,,,,,,,,,,,
,,,,,,,,,,,,,,,,,198850,19,2022-01-28_16h22.06.820,lexical_decision_task_DD,2021.2.3,MacIntel,59.99880002,,,,,,,,,,,,0.9542,1,,,,,,,,,,,,,,m,1,0.9542,,,,,,,,0.191215278,0.182634549,0,0,0,,0,121,121,7,1,PAINT,HB,old,m,./images/PAINTHB.png,,,,,,,,,,,,,,,,,,,,,
,,,,,,,,,,,,,,,,,198850,19,2022-01-28_16h22.06.820,lexical_decision_task_DD,2021.2.3,MacIntel,59.99880002,,,,,,,,,,,,1.0835,1,,,,,,,,,,,,,,m,1,1.0835,,,,,,,,0.191215278,0.182634549,0,0,0,,0,122,122,67,1,SAILOR,HB,old,m,./images/SAILORHB.png,,,,,,,,,,,,,,,,,,,,,
,,,,,,,,,,,,,,,,,198850,19,2022-01-28_16h22.06.820,lexical_decision_task_DD,2021.2.3,MacIntel,59.99880002,,,,,,,,,,,,0.5834,1,,,,,,,,,,,,,,m,1,0.5834,,,,,,,,0.191215278,0.182634549,0,0,0,,0,123,123,65,1,FARMER,LB,old,m,./images/FARMERLB.png,,,,,,,,,,,,,,,,,,,,,
,,,,,,,,,,,,,,,,,198850,19,2022-01-28_16h22.06.820,lexical_decision_task_DD,2021.2.3,MacIntel,59.99880002,,,,,,,,,,,,0.5076,1,,,,,,,,,,,,,,m,1,0.5076,,,,,,,,0.191215278,0.182634549,0,0,0,,0,124,124,60,1,TWINS,C,old,m,./images/TWINS.png,,,,,,,,,,,,,,,,,,,,,
,,,,,,,,,,,,,,,,,198850,19,2022-01-28_16h22.06.820,lexical_decision_task_DD,2021.2.3,MacIntel,59.99880002,,,,,,,,,,,,0.6368,1,,,,,,,,,,,,,,z,1,0.6368,,,,,,,,0.191215278,0.182634549,0,0,0,space,0,125,125,132,1,SCIFF,C,old,z,./images/SCIFF.png,17.8877,,,,,,,,,,,,,,,,,,,,
,,,,,,,,,,,,,,,,,198850,19,2022-01-28_16h22.06.820,lexical_decision_task_DD,2021.2.3,MacIntel,59.99880002,,,,,,,,,,,,4.0347,1,,,,,,,,,,,,,,m,1,4.0347,,,,,,,,0.191215278,0.182634549,0,0,0,,0,126,126,5,1,PASTA,LB,old,m,./images/PASTALB.png,,,,,,,,,,,,,,,,,,,,,
,,,,,,,,,,,,,,,,,198850,19,2022-01-28_16h22.06.820,lexical_decision_task_DD,2021.2.3,MacIntel,59.99880002,,,,,,,,,,,,1.1862,1,,,,,,,,,,,,,,z,1,1.1862,,,,,,,,0.191215278,0.182634549,0,0,0,,0,127,127,103,1,FLORT,HB,old,z,./images/FLORTHB.png,,,,,,,,,,,,,,,,,,,,,
,,,,,,,,,,,,,,,,,198850,19,2022-01-28_16h22.06.820,lexical_decision_task_DD,2021.2.3,MacIntel,59.99880002,,,,,,,,,,,,2.2375,1,,,,,,,,,,,,,,m,1,2.2375,,,,,,,,0.191215278,0.182634549,0,0,0,,0,128,128,82,1,SUNSET,HB,old,m,./images/SUNSETHB.png,,,,,,,,,,,,,,,,,,,,,
,,,,,,,,,,,,,,,,,198850,19,2022-01-28_16h22.06.820,lexical_decision_task_DD,2021.2.3,MacIntel,59.99880002,,,,,,,,,,,,0.7765,1,,,,,,,,,,,,,,m,1,0.7765,,,,,,,,0.191215278,0.182634549,0,0,0,,0,129,129,75,1,GRAIN,C,old,m,./images/GRAIN.png,,,,,,,,,,,,,,,,,,,,,
,,,,,,,,,,,,,,,,,198850,19,2022-01-28_16h22.06.820,lexical_decision_task_DD,2021.2.3,MacIntel,59.99880002,,,,,,,,,,,,0.9677,1,,,,,,,,,,,,,,m,1,0.9677,,,,,,,,0.191215278,0.182634549,0,0,0,,0,130,130,70,1,URINE,HB,old,m,./images/URINEHB.png,,,,,,,,,,,,,,,,,,,,,
,,,,,,,,,,,,,,,,,198850,19,2022-01-28_16h22.06.820,lexical_decision_task_DD,2021.2.3,MacIntel,59.99880002,,,,,,,,,,,,0.6789,1,,,,,,,,,,,,,,m,1,0.6789,,,,,,,,0.191215278,0.182634549,0,0,0,,0,131,131,26,1,SMOKER,LB,old,m,./images/SMOKERLB.png,,,,,,,,,,,,,,,,,,,,,
,,,,,,,,,,,,,,,,,198850,19,2022-01-28_16h22.06.820,lexical_decision_task_DD,2021.2.3,MacIntel,59.99880002,,,,,,,,,,,,0.657,1,,,,,,,,,,,,,,z,1,0.657,,,,,,,,0.191215278,0.182634549,0,0,0,,0,132,132,147,1,ZOLES,C,old,z,./images/ZOLES.png,,,,,,,,,,,,,,,,,,,,,
,,,,,,,,,,,,,,,,,198850,19,2022-01-28_16h22.06.820,lexical_decision_task_DD,2021.2.3,MacIntel,59.99880002,,,,,,,,,,,,0.6545,1,,,,,,,,,,,,,,m,1,0.6545,,,,,,,,0.191215278,0.182634549,0,0,0,,0,133,133,9,1,RHINO,C,old,m,./images/RHINO.png,,,,,,,,,,,,,,,,,,,,,
,,,,,,,,,,,,,,,,,198850,19,2022-01-28_16h22.06.820,lexical_decision_task_DD,2021.2.3,MacIntel,59.99880002,,,,,,,,,,,,1.219,1,,,,,,,,,,,,,,m,1,1.219,,,,,,,,0.191215278,0.182634549,0,0,0,,0,134,134,71,1,PIMPLE,LB,old,m,./images/PIMPLELB.png,,,,,,,,,,,,,,,,,,,,,
,,,,,,,,,,,,,,,,,198850,19,2022-01-28_16h22.06.820,lexical_decision_task_DD,2021.2.3,MacIntel,59.99880002,,,,,,,,,,,,0.9177,1,,,,,,,,,,,,,,z,1,0.9177,,,,,,,,0.191215278,0.182634549,0,0,0,,0,135,135,111,1,HOSSE,C,old,z,./images/HOSSE.png,,,,,,,,,,,,,,,,,,,,,
,,,,,,,,,,,,,,,,,198850,19,2022-01-28_16h22.06.820,lexical_decision_task_DD,2021.2.3,MacIntel,59.99880002,,,,,,,,,,,,1.9146,1,,,,,,,,,,,,,,z,1,1.9146,,,,,,,,0.191215278,0.182634549,0,0,0,,0,136,136,157,1,INLER,HB,old,z,./images/INLERHB.png,,,,,,,,,,,,,,,,,,,,,
,,,,,,,,,,,,,,,,,198850,19,2022-01-28_16h22.06.820,lexical_decision_task_DD,2021.2.3,MacIntel,59.99880002,,,,,,,,,,,,0.8673,1,,,,,,,,,,,,,,z,1,0.8673,,,,,,,,0.191215278,0.182634549,0,0,0,,0,137,137,161,1,BLAPS,LB,old,z,./images/BLAPSLB.png,,,,,,,,,,,,,,,,,,,,,
,,,,,,,,,,,,,,,,,198850,19,2022-01-28_16h22.06.820,lexical_decision_task_DD,2021.2.3,MacIntel,59.99880002,,,,,,,,,,,,0.6082,1,,,,,,,,,,,,,,z,1,0.6082,,,,,,,,0.191215278,0.182634549,0,0,0,,0,138,138,153,1,CLUPS,C,old,z,./images/CLUPS.png,,,,,,,,,,,,,,,,,,,,,
,,,,,,,,,,,,,,,,,198850,19,2022-01-28_16h22.06.820,lexical_decision_task_DD,2021.2.3,MacIntel,59.99880002,,,,,,,,,,,,1.0543,1,,,,,,,,,,,,,,z,1,1.0543,,,,,,,,0.191215278,0.182634549,0,0,0,,0,139,139,133,1,POWDY,HB,old,z,./images/POWDYHB.png,,,,,,,,,,,,,,,,,,,,,
,,,,,,,,,,,,,,,,,198850,19,2022-01-28_16h22.06.820,lexical_decision_task_DD,2021.2.3,MacIntel,59.99880002,,,,,,,,,,,,1.5968,1,,,,,,,,,,,,,,z,1,1.5968,,,,,,,,0.191215278,0.182634549,0,0,0,,0,140,140,100,1,DRIBS,HB,old,z,./images/DRIBSHB.png,,,,,,,,,,,,,,,,,,,,,
,,,,,,,,,,,,,,,,,198850,19,2022-01-28_16h22.06.820,lexical_decision_task_DD,2021.2.3,MacIntel,59.99880002,,,,,,,,,,,,0.6743,1,,,,,,,,,,,,,,m,1,0.6743,,,,,,,,0.191215278,0.182634549,0,0,0,,0,141,141,18,1,JAGUAR,C,old,m,./images/JAGUAR.png,,,,,,,,,,,,,,,,,,,,,
,,,,,,,,,,,,,,,,,198850,19,2022-01-28_16h22.06.820,lexical_decision_task_DD,2021.2.3,MacIntel,59.99880002,,,,,,,,,,,,0.6129,1,,,,,,,,,,,,,,z,1,0.6129,,,,,,,,0.191215278,0.182634549,0,0,0,,0,142,142,144,1,NAIRY,C,old,z,./images/NAIRY.png,,,,,,,,,,,,,,,,,,,,,
,,,,,,,,,,,,,,,,,198850,19,2022-01-28_16h22.06.820,lexical_decision_task_DD,2021.2.3,MacIntel,59.99880002,,,,,,,,,,,,0.4756,1,,,,,,,,,,,,,,m,1,0.4756,,,,,,,,0.191215278,0.182634549,0,0,0,,0,143,143,12,1,SHORE,C,old,m,./images/SHORE.png,,,,,,,,,,,,,,,,,,,,,
,,,,,,,,,,,,,,,,,198850,19,2022-01-28_16h22.06.820,lexical_decision_task_DD,2021.2.3,MacIntel,59.99880002,,,,,,,,,,,,0.8251,1,,,,,,,,,,,,,,z,1,0.8251,,,,,,,,0.191215278,0.182634549,0,0,0,,0,144,144,99,1,BACKY,C,old,z,./images/BACKY.png,,,,,,,,,,,,,,,,,,,,,
,,,,,,,,,,,,,,,,,198850,19,2022-01-28_16h22.06.820,lexical_decision_task_DD,2021.2.3,MacIntel,59.99880002,,,,,,,,,,,,0.6992,1,,,,,,,,,,,,,,z,1,0.6992,,,,,,,,0.191215278,0.182634549,0,0,0,,0,145,145,119,1,PAFER,LB,old,z,./images/PAFERLB.png,,,,,,,,,,,,,,,,,,,,,
,,,,,,,,,,,,,,,,,198850,19,2022-01-28_16h22.06.820,lexical_decision_task_DD,2021.2.3,MacIntel,59.99880002,,,,,,,,,,,,0.5555,1,,,,,,,,,,,,,,z,1,0.5555,,,,,,,,0.191215278,0.182634549,0,0,0,,0,146,146,137,1,JOOST,LB,old,z,./images/JOOSTLB.png,,,,,,,,,,,,,,,,,,,,,
,,,,,,,,,,,,,,,,,198850,19,2022-01-28_16h22.06.820,lexical_decision_task_DD,2021.2.3,MacIntel,59.99880002,,,,,,,,,,,,0.5085,1,,,,,,,,,,,,,,m,1,0.5085,,,,,,,,0.191215278,0.182634549,0,0,0,,0,147,147,57,1,MOOSE,C,old,m,./images/MOOSE.png,,,,,,,,,,,,,,,,,,,,,
,,,,,,,,,,,,,,,,,198850,19,2022-01-28_16h22.06.820,lexical_decision_task_DD,2021.2.3,MacIntel,59.99880002,,,,,,,,,,,,1.3503,1,,,,,,,,,,,,,,z,1,1.3503,,,,,,,,0.191215278,0.182634549,0,0,0,,0,148,148,163,1,GAMBA,HB,old,z,./images/GAMBAHB.png,,,,,,,,,,,,,,,,,,,,,
,,,,,,,,,,,,,,,,,198850,19,2022-01-28_16h22.06.820,lexical_decision_task_DD,2021.2.3,MacIntel,59.99880002,,,,,,,,,,,,1.1892,1,,,,,,,,,,,,,,m,1,1.1892,,,,,,,,0.191215278,0.182634549,0,0,0,,0,149,149,40,1,SWING,HB,old,m,./images/SWINGHB.png,,,,,,,,,,,,,,,,,,,,,
,,,,,,,,,,,,,,,,,198850,19,2022-01-28_16h22.06.820,lexical_decision_task_DD,2021.2.3,MacIntel,59.99880002,,,,,,,,,,,,0.6648,1,,,,,,,,,,,,,,m,1,0.6648,,,,,,,,0.191215278,0.182634549,0,0,0,,0,150,150,54,1,TRIPOD,C,old,m,./images/TRIPOD.png,,,,,,,,,,,,,,,,,,,,,
,,,,,,,,,,,,,,,,,198850,19,2022-01-28_16h22.06.820,lexical_decision_task_DD,2021.2.3,MacIntel,59.99880002,,,,,,,,,,,,0.6165,1,,,,,,,,,,,,,,z,1,0.6165,,,,,,,,0.191215278,0.182634549,0,0,0,,0,151,151,167,1,ZONET,LB,old,z,./images/ZONETLB.png,,,,,,,,,,,,,,,,,,,,,
,,,,,,,,,,,,,,,,,198850,19,2022-01-28_16h22.06.820,lexical_decision_task_DD,2021.2.3,MacIntel,59.99880002,,,,,,,,,,,,0.5918,1,,,,,,,,,,,,,,z,1,0.5918,,,,,,,,0.191215278,0.182634549,0,0,0,,0,152,152,96,1,KEAMS,C,old,z,./images/KEAMS.png,,,,,,,,,,,,,,,,,,,,,
,,,,,,,,,,,,,,,,,198850,19,2022-01-28_16h22.06.820,lexical_decision_task_DD,2021.2.3,MacIntel,59.99880002,,,,,,,,,,,,0.7098,1,,,,,,,,,,,,,,z,1,0.7098,,,,,,,,0.191215278,0.182634549,0,0,0,,0,153,153,114,1,RIKES,C,old,z,./images/RIKES.png,,,,,,,,,,,,,,,,,,,,,
,,,,,,,,,,,,,,,,,198850,19,2022-01-28_16h22.06.820,lexical_decision_task_DD,2021.2.3,MacIntel,59.99880002,,,,,,,,,,,,0.5226,1,,,,,,,,,,,,,,m,1,0.5226,,,,,,,,0.191215278,0.182634549,0,0,0,,0,154,154,6,1,SQUARE,C,old,m,./images/SQUARE.png,,,,,,,,,,,,,,,,,,,,,
,,,,,,,,,,,,,,,,,198850,19,2022-01-28_16h22.06.820,lexical_decision_task_DD,2021.2.3,MacIntel,59.99880002,,,,,,,,,,,,0.7823,1,,,,,,,,,,,,,,m,1,0.7823,,,,,,,,0.191215278,0.182634549,0,0,0,,0,155,155,22,1,MELON,HB,old,m,./images/MELONHB.png,,,,,,,,,,,,,,,,,,,,,
,,,,,,,,,,,,,,,,,198850,19,2022-01-28_16h22.06.820,lexical_decision_task_DD,2021.2.3,MacIntel,59.99880002,,,,,,,,,,,,0.5401,1,,,,,,,,,,,,,,z,1,0.5401,,,,,,,,0.191215278,0.182634549,0,0,0,,0,156,156,102,1,DULLE,C,old,z,./images/DULLE.png,,,,,,,,,,,,,,,,,,,,,
,,,,,,,,,,,,,,,,,198850,19,2022-01-28_16h22.06.820,lexical_decision_task_DD,2021.2.3,MacIntel,59.99880002,,,,,,,,,,,,0.6361,1,,,,,,,,,,,,,,z,1,0.6361,,,,,,,,0.191215278,0.182634549,0,0,0,,0,157,157,98,1,BAMPS,LB,old,z,./images/BAMPSLB.png,,,,,,,,,,,,,,,,,,,,,
,,,,,,,,,,,,,,,,,198850,19,2022-01-28_16h22.06.820,lexical_decision_task_DD,2021.2.3,MacIntel,59.99880002,,,,,,,,,,,,0.8337,1,,,,,,,,,,,,,,z,1,0.8337,,,,,,,,0.191215278,0.182634549,0,0,0,,0,158,158,92,1,PAIMS,LB,old,z,./images/PAIMSLB.png,,,,,,,,,,,,,,,,,,,,,
,,,,,,,,,,,,,,,,,198850,19,2022-01-28_16h22.06.820,lexical_decision_task_DD,2021.2.3,MacIntel,59.99880002,,,,,,,,,,,,0.7192,1,,,,,,,,,,,,,,m,1,0.7192,,,,,,,,0.191215278,0.182634549,0,0,0,,0,159,159,46,1,PEARL,HB,old,m,./images/PEARLHB.png,,,,,,,,,,,,,,,,,,,,,
,,,,,,,,,,,,,,,,,198850,19,2022-01-28_16h22.06.820,lexical_decision_task_DD,2021.2.3,MacIntel,59.99880002,,,,,,,,,,,,0.8165,1,,,,,,,,,,,,,,m,1,0.8165,,,,,,,,0.191215278,0.182634549,0,0,0,,0,160,160,58,1,BABOON,HB,old,m,./images/BABOONHB.png,,,,,,,,,,,,,,,,,,,,,
,,,,,,,,,,,,,,,,,198850,19,2022-01-28_16h22.06.820,lexical_decision_task_DD,2021.2.3,MacIntel,59.99880002,,,,,,,,,,,,0.7345,1,,,,,,,,,,,,,,z,1,0.7345,,,,,,,,0.191215278,0.182634549,0,0,0,,0,161,161,128,1,GRIFT,LB,old,z,./images/GRIFTLB.png,,,,,,,,,,,,,,,,,,,,,
,,,,,,,,,,,,,,,,,198850,19,2022-01-28_16h22.06.820,lexical_decision_task_DD,2021.2.3,MacIntel,59.99880002,,,,,,,,,,,,0.5687,1,,,,,,,,,,,,,,m,1,0.5687,,,,,,,,0.191215278,0.182634549,0,0,0,,0,162,162,47,1,BERRY,LB,old,m,./images/BERRYLB.png,,,,,,,,,,,,,,,,,,,,,
,,,,,,,,,,,,,,,,,198850,19,2022-01-28_16h22.06.820,lexical_decision_task_DD,2021.2.3,MacIntel,59.99880002,,,,,,,,,,,,0.651,1,,,,,,,,,,,,,,z,1,0.651,,,,,,,,0.191215278,0.182634549,0,0,0,,0,163,163,152,1,FRAIN,LB,old,z,./images/FRAINLB.png,,,,,,,,,,,,,,,,,,,,,
,,,,,,,,,,,,,,,,,198850,19,2022-01-28_16h22.06.820,lexical_decision_task_DD,2021.2.3,MacIntel,59.99880002,,,,,,,,,,,,0.6808,1,,,,,,,,,,,,,,m,1,0.6808,,,,,,,,0.191215278,0.182634549,0,0,0,,0,164,164,59,1,BURIAL,LB,old,m,./images/BURIALLB.png,,,,,,,,,,,,,,,,,,,,,
,,,,,,,,,,,,,,,,,198850,19,2022-01-28_16h22.06.820,lexical_decision_task_DD,2021.2.3,MacIntel,59.99880002,,,,,,,,,,,,0.6502,1,,,,,,,,,,,,,,m,1,0.6502,,,,,,,,0.191215278,0.182634549,0,0,0,,0,165,165,25,1,WRIST,HB,old,m,./images/WRISTHB.png,,,,,,,,,,,,,,,,,,,,,
,,,,,,,,,,,,,,,,,198850,19,2022-01-28_16h22.06.820,lexical_decision_task_DD,2021.2.3,MacIntel,59.99880002,,,,,,,,,,,,0.5104,1,,,,,,,,,,,,,,m,1,0.5104,,,,,,,,0.191215278,0.182634549,0,0,0,,0,166,166,0,1,TOMATO,C,old,m,./images/TOMATO.png,,,,,,,,,,,,,,,,,,,,,
,,,,,,,,,,,,,,,,,198850,19,2022-01-28_16h22.06.820,lexical_decision_task_DD,2021.2.3,MacIntel,59.99880002,,,,,,,,,,,,0.6557,1,,,,,,,,,,,,,,m,1,0.6557,,,,,,,,0.191215278,0.182634549,0,0,0,,0,167,167,69,1,COOKER,C,old,m,./images/COOKER.png,,,,,,,,,,,,,,,,,,,,,
space,0.161805556,0.019735243,0,0,0,,,,,,,1,test,"In the next phase you will be presented with the words from the the first phase. Your job is to decide whether you remember seeing the word or not. If you remember seeing the word press ""old"" or type ""m"". If you do not remember seeing the word press ""new"" or type ""z"". Please press the space bar or click on continue to begin. ",,,198850,19,2022-01-28_16h22.06.820,lexical_decision_task_DD,2021.2.3,MacIntel,59.99880002,10.1401,,,,,,,,,,,,,,,,,,,,,,,,,,,,,,,,,,,,,,,,,,,,,,,,,,,,,0,0,0,0,1,,,,,,,,,,,,,,,
,0.117296007,-0.388467882,1,0,0,instr_done_button,,,,,,1,test,"In the next phase you will be presented with the words from the the first phase. Your job is to decide whether you remember seeing the word or not. If you remember seeing the word press ""old"" or type ""m"". If you do not remember seeing the word press ""new"" or type ""z"". Please press the space bar or click on continue to begin. ",,,198850,19,2022-01-28_16h22.06.820,lexical_decision_task_DD,2021.2.3,MacIntel,59.99880002,,,,,,,,,,,,,,,,,,,,,,,,,,,,,,,,,,,,,,,,,,,,,,,,,,,,,,1,0,1,0,1,,,,,,,,,,,,,,,
space,0.117296007,-0.388467882,0,0,0,,,,,,,1,test,"In the next phase you will be presented with the words from the the first phase. Your job is to decide whether you remember seeing the word or not. If you remember seeing the word press ""old"" or type ""m"". If you do not remember seeing the word press ""new"" or type ""z"". Please press the space bar or click on continue to begin. ",,,198850,19,2022-01-28_16h22.06.820,lexical_decision_task_DD,2021.2.3,MacIntel,59.99880002,0.5213,,,,,,,,,,,,,,,,,,,,,,,,,,,,,,,,,,,,,,,,,,,,,,,,,,,,,2,0,2,0,1,,,,,,,,,,,,,,,
space,-0.002573785,-0.143741319,0,0,0,,,,,,,1,test,"In the next phase you will be presented with the words from the the first phase. Your job is to decide whether you remember seeing the word or not. If you remember seeing the word press ""old"" or type ""m"". If you do not remember seeing the word press ""new"" or type ""z"". Please press the space bar or click on continue to begin. ",,,198850,19,2022-01-28_16h22.06.820,lexical_decision_task_DD,2021.2.3,MacIntel,59.99880002,1.255,,,,,,,,,,,,,,,,,,,,,,,,,,,,,,,,,,,,,,,,,,,,,,,,,,,,,3,0,3,0,1,,,,,,,,,,,,,,,
space,-0.002573785,-0.143741319,0,0,0,,,,,,,1,test,"In the next phase you will be presented with the words from the the first phase. Your job is to decide whether you remember seeing the word or not. If you remember seeing the word press ""old"" or type ""m"". If you do not remember seeing the word press ""new"" or type ""z"". Please press the space bar or click on continue to begin. ",,,198850,19,2022-01-28_16h22.06.820,lexical_decision_task_DD,2021.2.3,MacIntel,59.99880002,0.3207,,,,,,,,,,,,,,,,,,,,,,,,,,,,,,,,,,,,,,,,,,,,,,,,,,,,,4,0,4,0,1,,,,,,,,,,,,,,,
,,,,,,,,,,,,,,,,,198850,19,2022-01-28_16h22.06.820,lexical_decision_task_DD,2021.2.3,MacIntel,59.99880002,,,,,,,,,,,,3.0181,1,,,,,,,,,,,,,,,,,,,,,,,,-0.002573785,-0.143741319,0,0,0,,,,,,,MOOSE,C,m,m,./images/MOOSE.png,,,,,,,m,1,3.0181,,,,,,,,0,0,0,57,1
,,,,,,,,,,,,,,,,,198850,19,2022-01-28_16h22.06.820,lexical_decision_task_DD,2021.2.3,MacIntel,59.99880002,,,,,,,,,,,,1.0808,0,,,,,,,,,,,,,,,,,,,,,,,,-0.002573785,-0.143741319,0,0,0,,,,,,,HOCKEY,LB,z,m,./images/HOCKEYLB.png,,,,,,,m,0,1.0808,,,,,,,,0,1,1,116,1
,,,,,,,,,,,,,,,,,198850,19,2022-01-28_16h22.06.820,lexical_decision_task_DD,2021.2.3,MacIntel,59.99880002,,,,,,,,,,,,0.6599,0,,,,,,,,,,,,,,,,,,,,,,,,-0.002573785,-0.143741319,0,0,0,,,,,,,DONKEY,HB,z,m,./images/DONKEYHB.png,,,,,,,m,0,0.6599,,,,,,,,0,2,2,103,1
,,,,,,,,,,,,,,,,,198850,19,2022-01-28_16h22.06.820,lexical_decision_task_DD,2021.2.3,MacIntel,59.99880002,,,,,,,,,,,,1.4366,1,,,,,,,,,,,,,,,,,,,,,,,,-0.002573785,-0.143741319,0,0,0,,,,,,,CHALK,HB,z,m,./images/CHALKHB.png,,,,,,,z,1,1.4366,,,,,,,,0,3,3,109,1
,,,,,,,,,,,,,,,,,198850,19,2022-01-28_16h22.06.820,lexical_decision_task_DD,2021.2.3,MacIntel,59.99880002,,,,,,,,,,,,0.7339,1,,,,,,,,,,,,,,,,,,,,,,,,-0.002573785,-0.143741319,0,0,0,,,,,,,URINE,HB,m,m,./images/URINEHB.png,,,,,,,m,1,0.7339,,,,,,,,0,4,4,70,1
,,,,,,,,,,,,,,,,,198850,19,2022-01-28_16h22.06.820,lexical_decision_task_DD,2021.2.3,MacIntel,59.99880002,,,,,,,,,,,,0.8233,1,,,,,,,,,,,,,,,,,,,,,,,,-0.002573785,-0.143741319,0,0,0,,,,,,,WEASEL,LB,m,m,./images/WEASELLB.png,,,,,,,m,1,0.8233,,,,,,,,0,5,5,80,1
,,,,,,,,,,,,,,,,,198850,19,2022-01-28_16h22.06.820,lexical_decision_task_DD,2021.2.3,MacIntel,59.99880002,,,,,,,,,,,,1.8552,1,,,,,,,,,,,,,,,,,,,,,,,,-0.002573785,-0.143741319,0,0,0,,,,,,,LAGOON,LB,z,m,./images/LAGOONLB.png,,,,,,,z,1,1.8552,,,,,,,,0,6,6,131,1
,,,,,,,,,,,,,,,,,198850,19,2022-01-28_16h22.06.820,lexical_decision_task_DD,2021.2.3,MacIntel,59.99880002,,,,,,,,,,,,0.6187,1,,,,,,,,,,,,,,,,,,,,,,,,-0.002573785,-0.143741319,0,0,0,,,,,,,PARCEL,C,z,m,./images/PARCEL.png,,,,,,,z,1,0.6187,,,,,,,,0,7,7,102,1
,,,,,,,,,,,,,,,,,198850,19,2022-01-28_16h22.06.820,lexical_decision_task_DD,2021.2.3,MacIntel,59.99880002,,,,,,,,,,,,0.6842,0,,,,,,,,,,,,,,,,,,,,,,,,-0.002573785,-0.143741319,0,0,0,,,,,,,SUNSET,HB,m,m,./images/SUNSETHB.png,,,,,,,z,0,0.6842,,,,,,,,0,8,8,82,1
,,,,,,,,,,,,,,,,,198850,19,2022-01-28_16h22.06.820,lexical_decision_task_DD,2021.2.3,MacIntel,59.99880002,,,,,,,,,,,,0.7264,1,,,,,,,,,,,,,,,,,,,,,,,,-0.002573785,-0.143741319,0,0,0,,,,,,,BELLY,HB,m,m,./images/BELLYHB.png,,,,,,,m,1,0.7264,,,,,,,,0,9,9,10,1
,,,,,,,,,,,,,,,,,198850,19,2022-01-28_16h22.06.820,lexical_decision_task_DD,2021.2.3,MacIntel,59.99880002,,,,,,,,,,,,0.6353,1,,,,,,,,,,,,,,,,,,,,,,,,-0.002573785,-0.143741319,0,0,0,,,,,,,BARREL,LB,m,m,./images/BARRELLB.png,,,,,,,m,1,0.6353,,,,,,,,0,10,10,32,1
,,,,,,,,,,,,,,,,,198850,19,2022-01-28_16h22.06.820,lexical_decision_task_DD,2021.2.3,MacIntel,59.99880002,,,,,,,,,,,,0.8053,1,,,,,,,,,,,,,,,,,,,,,,,,-0.002573785,-0.143741319,0,0,0,,,,,,,GRANNY,LB,z,m,./images/GRANNYLB.png,,,,,,,z,1,0.8053,,,,,,,,0,11,11,104,1
,,,,,,,,,,,,,,,,,198850,19,2022-01-28_16h22.06.820,lexical_decision_task_DD,2021.2.3,MacIntel,59.99880002,,,,,,,,,,,,0.8841,1,,,,,,,,,,,,,,,,,,,,,,,,-0.002573785,-0.143741319,0,0,0,,,,,,,SCREW,C,m,m,./images/SCREW.png,,,,,,,m,1,0.8841,,,,,,,,0,12,12,24,1
,,,,,,,,,,,,,,,,,198850,19,2022-01-28_16h22.06.820,lexical_decision_task_DD,2021.2.3,MacIntel,59.99880002,,,,,,,,,,,,0.866,0,,,,,,,,,,,,,,,,,,,,,,,,-0.002573785,-0.143741319,0,0,0,,,,,,,CANDLE,HB,m,m,./images/CANDLEHB.png,,,,,,,z,0,0.866,,,,,,,,0,13,13,61,1
,,,,,,,,,,,,,,,,,198850,19,2022-01-28_16h22.06.820,lexical_decision_task_DD,2021.2.3,MacIntel,59.99880002,,,,,,,,,,,,0.6189,1,,,,,,,,,,,,,,,,,,,,,,,,-0.002573785,-0.143741319,0,0,0,,,,,,,MELON,HB,m,m,./images/MELONHB.png,,,,,,,m,1,0.6189,,,,,,,,0,14,14,22,1
,,,,,,,,,,,,,,,,,198850,19,2022-01-28_16h22.06.820,lexical_decision_task_DD,2021.2.3,MacIntel,59.99880002,,,,,,,,,,,,0.7112,1,,,,,,,,,,,,,,,,,,,,,,,,-0.002573785,-0.143741319,0,0,0,,,,,,,CRUMB,LB,m,m,./images/CRUMBLB.png,,,,,,,m,1,0.7112,,,,,,,,0,15,15,29,1
,,,,,,,,,,,,,,,,,198850,19,2022-01-28_16h22.06.820,lexical_decision_task_DD,2021.2.3,MacIntel,59.99880002,,,,,,,,,,,,1.0075,1,,,,,,,,,,,,,,,,,,,,,,,,-0.002573785,-0.143741319,0,0,0,,,,,,,BANANA,HB,z,m,./images/BANANAHB.png,,,,,,,z,1,1.0075,,,,,,,,0,16,16,154,1
,,,,,,,,,,,,,,,,,198850,19,2022-01-28_16h22.06.820,lexical_decision_task_DD,2021.2.3,MacIntel,59.99880002,,,,,,,,,,,,0.6504,1,,,,,,,,,,,,,,,,,,,,,,,,-0.002573785,-0.143741319,0,0,0,,,,,,,FALCON,HB,m,m,./images/FALCONHB.png,,,,,,,m,1,0.6504,,,,,,,,0,17,17,28,1
,,,,,,,,,,,,,,,,,198850,19,2022-01-28_16h22.06.820,lexical_decision_task_DD,2021.2.3,MacIntel,59.99880002,,,,,,,,,,,,1.0691,0,,,,,,,,,,,,,,,,,,,,,,,,-0.002573785,-0.143741319,0,0,0,,,,,,,CHAIN,C,z,m,./images/CHAIN.png,,,,,,,m,0,1.0691,,,,,,,,0,18,18,126,1
,,,,,,,,,,,,,,,,,198850,19,2022-01-28_16h22.06.820,lexical_decision_task_DD,2021.2.3,MacIntel,59.99880002,,,,,,,,,,,,0.6093,1,,,,,,,,,,,,,,,,,,,,,,,,-0.002573785,-0.143741319,0,0,0,,,,,,,MALLET,LB,m,m,./images/MALLETLB.png,,,,,,,m,1,0.6093,,,,,,,,0,19,19,50,1
,,,,,,,,,,,,,,,,,198850,19,2022-01-28_16h22.06.820,lexical_decision_task_DD,2021.2.3,MacIntel,59.99880002,,,,,,,,,,,,0.9165,1,,,,,,,,,,,,,,,,,,,,,,,,-0.002573785,-0.143741319,0,0,0,,,,,,,MOSQUE,HB,m,m,./images/MOSQUEHB.png,,,,,,,m,1,0.9165,,,,,,,,0,20,20,43,1
,,,,,,,,,,,,,,,,,198850,19,2022-01-28_16h22.06.820,lexical_decision_task_DD,2021.2.3,MacIntel,59.99880002,,,,,,,,,,,,0.8681,1,,,,,,,,,,,,,,,,,,,,,,,,-0.002573785,-0.143741319,0,0,0,,,,,,,ENGINE,LB,z,m,./images/ENGINELB.png,,,,,,,z,1,0.8681,,,,,,,,0,21,21,122,1
,,,,,,,,,,,,,,,,,198850,19,2022-01-28_16h22.06.820,lexical_decision_task_DD,2021.2.3,MacIntel,59.99880002,,,,,,,,,,,,0.9031,0,,,,,,,,,,,,,,,,,,,,,,,,-0.002573785,-0.143741319,0,0,0,,,,,,,CRADLE,LB,m,m,./images/CRADLELB.png,,,,,,,z,0,0.9031,,,,,,,,0,22,22,20,1
,,,,,,,,,,,,,,,,,198850,19,2022-01-28_16h22.06.820,lexical_decision_task_DD,2021.2.3,MacIntel,59.99880002,,,,,,,,,,,,1.8032,0,,,,,,,,,,,,,,,,,,,,,,,,-0.002573785,-0.143741319,0,0,0,,,,,,,INFANT,HB,m,m,./images/INFANTHB.png,,,,,,,z,0,1.8032,,,,,,,,0,23,23,76,1
,,,,,,,,,,,,,,,,,198850,19,2022-01-28_16h22.06.820,lexical_decision_task_DD,2021.2.3,MacIntel,59.99880002,,,,,,,,,,,,0.6708,1,,,,,,,,,,,,,,,,,,,,,,,,-0.002573785,-0.143741319,0,0,0,,,,,,,SAILOR,HB,m,m,./images/SAILORHB.png,,,,,,,m,1,0.6708,,,,,,,,0,24,24,67,1
,,,,,,,,,,,,,,,,,198850,19,2022-01-28_16h22.06.820,lexical_decision_task_DD,2021.2.3,MacIntel,59.99880002,,,,,,,,,,,,0.9007,1,,,,,,,,,,,,,,,,,,,,,,,,-0.002573785,-0.143741319,0,0,0,,,,,,,RULER,HB,z,m,./images/RULERHB.png,,,,,,,z,1,0.9007,,,,,,,,0,25,25,163,1
,,,,,,,,,,,,,,,,,198850,19,2022-01-28_16h22.06.820,lexical_decision_task_DD,2021.2.3,MacIntel,59.99880002,,,,,,,,,,,,0.8643,1,,,,,,,,,,,,,,,,,,,,,,,,-0.002573785,-0.143741319,0,0,0,,,,,,,WHISKY,LB,z,m,./images/WHISKYLB.png,,,,,,,z,1,0.8643,,,,,,,,0,26,26,167,1
,,,,,,,,,,,,,,,,,198850,19,2022-01-28_16h22.06.820,lexical_decision_task_DD,2021.2.3,MacIntel,59.99880002,,,,,,,,,,,,0.6039,1,,,,,,,,,,,,,,,,,,,,,,,,-0.002573785,-0.143741319,0,0,0,,,,,,,FLESH,C,z,m,./images/FLESH.png,,,,,,,z,1,0.6039,,,,,,,,0,27,27,108,1
,,,,,,,,,,,,,,,,,198850,19,2022-01-28_16h22.06.820,lexical_decision_task_DD,2021.2.3,MacIntel,59.99880002,,,,,,,,,,,,0.618,1,,,,,,,,,,,,,,,,,,,,,,,,-0.002573785,-0.143741319,0,0,0,,,,,,,NOOSE,C,m,m,./images/NOOSE.png,,,,,,,m,1,0.618,,,,,,,,0,28,28,72,1
,,,,,,,,,,,,,,,,,198850,19,2022-01-28_16h22.06.820,lexical_decision_task_DD,2021.2.3,MacIntel,59.99880002,,,,,,,,,,,,0.8696,1,,,,,,,,,,,,,,,,,,,,,,,,-0.002573785,-0.143741319,0,0,0,,,,,,,SWEAT,C,m,m,./images/SWEAT.png,,,,,,,m,1,0.8696,,,,,,,,0,29,29,66,1
,,,,,,,,,,,,,,,,,198850,19,2022-01-28_16h22.06.820,lexical_decision_task_DD,2021.2.3,MacIntel,59.99880002,,,,,,,,,,,,0.6709,0,,,,,,,,,,,,,,,,,,,,,,,,-0.002573785,-0.143741319,0,0,0,,,,,,,DANCER,C,z,m,./images/DANCER.png,,,,,,,m,0,0.6709,,,,,,,,0,30,30,105,1
,,,,,,,,,,,,,,,,,198850,19,2022-01-28_16h22.06.820,lexical_decision_task_DD,2021.2.3,MacIntel,59.99880002,,,,,,,,,,,,0.6135,1,,,,,,,,,,,,,,,,,,,,,,,,-0.002573785,-0.143741319,0,0,0,,,,,,,KITTEN,C,m,m,./images/KITTEN.png,,,,,,,m,1,0.6135,,,,,,,,0,31,31,45,1
,,,,,,,,,,,,,,,,,198850,19,2022-01-28_16h22.06.820,lexical_decision_task_DD,2021.2.3,MacIntel,59.99880002,,,,,,,,,,,,1.0071,1,,,,,,,,,,,,,,,,,,,,,,,,-0.002573785,-0.143741319,0,0,0,,,,,,,TOWEL,HB,z,m,./images/TOWELHB.png,,,,,,,z,1,1.0071,,,,,,,,0,32,32,85,1
,,,,,,,,,,,,,,,,,198850,19,2022-01-28_16h22.06.820,lexical_decision_task_DD,2021.2.3,MacIntel,59.99880002,,,,,,,,,,,,0.5824,1,,,,,,,,,,,,,,,,,,,,,,,,-0.002573785,-0.143741319,0,0,0,,,,,,,SWING,HB,m,m,./images/SWINGHB.png,,,,,,,m,1,0.5824,,,,,,,,0,33,33,40,1
,,,,,,,,,,,,,,,,,198850,19,2022-01-28_16h22.06.820,lexical_decision_task_DD,2021.2.3,MacIntel,59.99880002,,,,,,,,,,,,0.6141,1,,,,,,,,,,,,,,,,,,,,,,,,-0.002573785,-0.143741319,0,0,0,,,,,,,DOUGH,HB,m,m,./images/DOUGHHB.png,,,,,,,m,1,0.6141,,,,,,,,0,34,34,19,1
,,,,,,,,,,,,,,,,,198850,19,2022-01-28_16h22.06.820,lexical_decision_task_DD,2021.2.3,MacIntel,59.99880002,,,,,,,,,,,,0.8421,1,,,,,,,,,,,,,,,,,,,,,,,,-0.002573785,-0.143741319,0,0,0,,,,,,,STEAK,HB,z,m,./images/STEAKHB.png,,,,,,,z,1,0.8421,,,,,,,,0,35,35,115,1
,,,,,,,,,,,,,,,,,198850,19,2022-01-28_16h22.06.820,lexical_decision_task_DD,2021.2.3,MacIntel,59.99880002,,,,,,,,,,,,0.7698,1,,,,,,,,,,,,,,,,,,,,,,,,-0.002573785,-0.143741319,0,0,0,,,,,,,CANOE,HB,z,m,./images/CANOEHB.png,,,,,,,z,1,0.7698,,,,,,,,0,36,36,142,1
,,,,,,,,,,,,,,,,,198850,19,2022-01-28_16h22.06.820,lexical_decision_task_DD,2021.2.3,MacIntel,59.99880002,,,,,,,,,,,,1.954,1,,,,,,,,,,,,,,,,,,,,,,,,-0.002573785,-0.143741319,0,0,0,,,,,,,STOVE,LB,z,m,./images/STOVELB.png,,,,,,,z,1,1.954,,,,,,,,0,37,37,86,1
,,,,,,,,,,,,,,,,,198850,19,2022-01-28_16h22.06.820,lexical_decision_task_DD,2021.2.3,MacIntel,59.99880002,,,,,,,,,,,,1.0515,1,,,,,,,,,,,,,,,,,,,,,,,,-0.002573785,-0.143741319,0,0,0,,,,,,,CHERRY,C,z,m,./images/CHERRY.png,,,,,,,z,1,1.0515,,,,,,,,0,38,38,138,1
,,,,,,,,,,,,,,,,,198850,19,2022-01-28_16h22.06.820,lexical_decision_task_DD,2021.2.3,MacIntel,59.99880002,,,,,,,,,,,,0.6697,1,,,,,,,,,,,,,,,,,,,,,,,,-0.002573785,-0.143741319,0,0,0,,,,,,,ATTIC,C,m,m,./images/ATTIC.png,,,,,,,m,1,0.6697,,,,,,,,0,39,39,27,1
,,,,,,,,,,,,,,,,,198850,19,2022-01-28_16h22.06.820,lexical_decision_task_DD,2021.2.3,MacIntel,59.99880002,,,,,,,,,,,,1.2534,1,,,,,,,,,,,,,,,,,,,,,,,,-0.002573785,-0.143741319,0,0,0,,,,,,,BAMBOO,LB,z,m,./images/BAMBOOLB.png,,,,,,,z,1,1.2534,,,,,,,,0,40,40,89,1
,,,,,,,,,,,,,,,,,198850,19,2022-01-28_16h22.06.820,lexical_decision_task_DD,2021.2.3,MacIntel,59.99880002,,,,,,,,,,,,0.8071,1,,,,,,,,,,,,,,,,,,,,,,,,-0.002573785,-0.143741319,0,0,0,space,,,,,,TULIP,LB,m,m,./images/TULIPLB.png,86.8726,,,,,,m,1,0.8071,,,,,,,,0,41,41,8,1
,,,,,,,,,,,,,,,,,198850,19,2022-01-28_16h22.06.820,lexical_decision_task_DD,2021.2.3,MacIntel,59.99880002,,,,,,,,,,,,0.8401,1,,,,,,,,,,,,,,,,,,,,,,,,-0.002573785,-0.143741319,0,0,0,,,,,,,FERRY,C,z,m,./images/FERRY.png,,,,,,,z,1,0.8401,,,,,,,,0,42,42,141,1
,,,,,,,,,,,,,,,,,198850,19,2022-01-28_16h22.06.820,lexical_decision_task_DD,2021.2.3,MacIntel,59.99880002,,,,,,,,,,,,0.7332,0,,,,,,,,,,,,,,,,,,,,,,,,-0.002573785,-0.143741319,0,0,0,,,,,,,STATUE,C,z,m,./images/STATUE.png,,,,,,,m,0,0.7332,,,,,,,,0,43,43,150,1
,,,,,,,,,,,,,,,,,198850,19,2022-01-28_16h22.06.820,lexical_decision_task_DD,2021.2.3,MacIntel,59.99880002,,,,,,,,,,,,1.12,1,,,,,,,,,,,,,,,,,,,,,,,,-0.002573785,-0.143741319,0,0,0,,,,,,,COUCH,LB,m,m,./images/COUCHLB.png,,,,,,,m,1,1.12,,,,,,,,0,44,44,77,1
,,,,,,,,,,,,,,,,,198850,19,2022-01-28_16h22.06.820,lexical_decision_task_DD,2021.2.3,MacIntel,59.99880002,,,,,,,,,,,,0.6923,1,,,,,,,,,,,,,,,,,,,,,,,,-0.002573785,-0.143741319,0,0,0,,,,,,,BRUSH,LB,z,m,./images/BRUSHLB.png,,,,,,,z,1,0.6923,,,,,,,,0,45,45,143,1
,,,,,,,,,,,,,,,,,198850,19,2022-01-28_16h22.06.820,lexical_decision_task_DD,2021.2.3,MacIntel,59.99880002,,,,,,,,,,,,0.7194,0,,,,,,,,,,,,,,,,,,,,,,,,-0.002573785,-0.143741319,0,0,0,,,,,,,GLOVE,HB,z,m,./images/GLOVEHB.png,,,,,,,m,0,0.7194,,,,,,,,0,46,46,157,1
,,,,,,,,,,,,,,,,,198850,19,2022-01-28_16h22.06.820,lexical_decision_task_DD,2021.2.3,MacIntel,59.99880002,,,,,,,,,,,,0.7541,1,,,,,,,,,,,,,,,,,,,,,,,,-0.002573785,-0.143741319,0,0,0,,,,,,,PURSE,LB,m,m,./images/PURSELB.png,,,,,,,m,1,0.7541,,,,,,,,0,47,47,62,1
,,,,,,,,,,,,,,,,,198850,19,2022-01-28_16h22.06.820,lexical_decision_task_DD,2021.2.3,MacIntel,59.99880002,,,,,,,,,,,,0.7064,0,,,,,,,,,,,,,,,,,,,,,,,,-0.002573785,-0.143741319,0,0,0,,,,,,,DESERT,HB,z,m,./images/DESERTHB.png,,,,,,,m,0,0.7064,,,,,,,,0,48,48,136,1
,,,,,,,,,,,,,,,,,198850,19,2022-01-28_16h22.06.820,lexical_decision_task_DD,2021.2.3,MacIntel,59.99880002,,,,,,,,,,,,1.0866,0,,,,,,,,,,,,,,,,,,,,,,,,-0.002573785,-0.143741319,0,0,0,,,,,,,CRUST,HB,m,m,./images/CRUSTHB.png,,,,,,,z,0,1.0866,,,,,,,,0,49,49,79,1
,,,,,,,,,,,,,,,,,198850,19,2022-01-28_16h22.06.820,lexical_decision_task_DD,2021.2.3,MacIntel,59.99880002,,,,,,,,,,,,0.7152,1,,,,,,,,,,,,,,,,,,,,,,,,-0.002573785,-0.143741319,0,0,0,,,,,,,KIDNEY,C,m,m,./images/KIDNEY.png,,,,,,,m,1,0.7152,,,,,,,,0,50,50,21,1
,,,,,,,,,,,,,,,,,198850,19,2022-01-28_16h22.06.820,lexical_decision_task_DD,2021.2.3,MacIntel,59.99880002,,,,,,,,,,,,0.8685,0,,,,,,,,,,,,,,,,,,,,,,,,-0.002573785,-0.143741319,0,0,0,,,,,,,STORM,C,m,m,./images/STORM.png,,,,,,,z,0,0.8685,,,,,,,,0,51,51,30,1
,,,,,,,,,,,,,,,,,198850,19,2022-01-28_16h22.06.820,lexical_decision_task_DD,2021.2.3,MacIntel,59.99880002,,,,,,,,,,,,0.7974,1,,,,,,,,,,,,,,,,,,,,,,,,-0.002573785,-0.143741319,0,0,0,,,,,,,SPINE,LB,z,m,./images/SPINELB.png,,,,,,,z,1,0.7974,,,,,,,,0,52,52,149,1
,,,,,,,,,,,,,,,,,198850,19,2022-01-28_16h22.06.820,lexical_decision_task_DD,2021.2.3,MacIntel,59.99880002,,,,,,,,,,,,1.3134,1,,,,,,,,,,,,,,,,,,,,,,,,-0.002573785,-0.143741319,0,0,0,,,,,,,COOKER,C,m,m,./images/COOKER.png,,,,,,,m,1,1.3134,,,,,,,,0,53,53,69,1
,,,,,,,,,,,,,,,,,198850,19,2022-01-28_16h22.06.820,lexical_decision_task_DD,2021.2.3,MacIntel,59.99880002,,,,,,,,,,,,0.7706,1,,,,,,,,,,,,,,,,,,,,,,,,-0.002573785,-0.143741319,0,0,0,,,,,,,ONION,C,m,m,./images/ONION.png,,,,,,,m,1,0.7706,,,,,,,,0,54,54,51,1
,,,,,,,,,,,,,,,,,198850,19,2022-01-28_16h22.06.820,lexical_decision_task_DD,2021.2.3,MacIntel,59.99880002,,,,,,,,,,,,2.6853,0,,,,,,,,,,,,,,,,,,,,,,,,-0.002573785,-0.143741319,0,0,0,,,,,,,PASTA,LB,m,m,./images/PASTALB.png,,,,,,,z,0,2.6853,,,,,,,,0,55,55,5,1
,,,,,,,,,,,,,,,,,198850,19,2022-01-28_16h22.06.820,lexical_decision_task_DD,2021.2.3,MacIntel,59.99880002,,,,,,,,,,,,1.6188,0,,,,,,,,,,,,,,,,,,,,,,,,-0.002573785,-0.143741319,0,0,0,,,,,,,PENCE,HB,m,m,./images/PENCEHB.png,,,,,,,z,0,1.6188,,,,,,,,0,56,56,16,1
,,,,,,,,,,,,,,,,,198850,19,2022-01-28_16h22.06.820,lexical_decision_task_DD,2021.2.3,MacIntel,59.99880002,,,,,,,,,,,,0.8733,1,,,,,,,,,,,,,,,,,,,,,,,,-0.002573785,-0.143741319,0,0,0,,,,,,,MAGGOT,C,m,m,./images/MAGGOT.png,,,,,,,m,1,0.8733,,,,,,,,0,57,57,33,1
,,,,,,,,,,,,,,,,,198850,19,2022-01-28_16h22.06.820,lexical_decision_task_DD,2021.2.3,MacIntel,59.99880002,,,,,,,,,,,,1.2555,1,,,,,,,,,,,,,,,,,,,,,,,,-0.002573785,-0.143741319,0,0,0,,,,,,,BOILER,C,z,m,./images/BOILER.png,,,,,,,z,1,1.2555,,,,,,,,0,58,58,120,1
,,,,,,,,,,,,,,,,,198850,19,2022-01-28_16h22.06.820,lexical_decision_task_DD,2021.2.3,MacIntel,59.99880002,,,,,,,,,,,,0.6863,1,,,,,,,,,,,,,,,,,,,,,,,,-0.002573785,-0.143741319,0,0,0,,,,,,,LLAMA,LB,z,m,./images/LLAMALB.png,,,,,,,z,1,0.6863,,,,,,,,0,59,59,119,1
,,,,,,,,,,,,,,,,,198850,19,2022-01-28_16h22.06.820,lexical_decision_task_DD,2021.2.3,MacIntel,59.99880002,,,,,,,,,,,,0.7381,1,,,,,,,,,,,,,,,,,,,,,,,,-0.002573785,-0.143741319,0,0,0,,,,,,,WRIST,HB,m,m,./images/WRISTHB.png,,,,,,,m,1,0.7381,,,,,,,,0,60,60,25,1
,,,,,,,,,,,,,,,,,198850,19,2022-01-28_16h22.06.820,lexical_decision_task_DD,2021.2.3,MacIntel,59.99880002,,,,,,,,,,,,0.9025,1,,,,,,,,,,,,,,,,,,,,,,,,-0.002573785,-0.143741319,0,0,0,,,,,,,PACKET,LB,m,m,./images/PACKETLB.png,,,,,,,m,1,0.9025,,,,,,,,0,61,61,56,1
,,,,,,,,,,,,,,,,,198850,19,2022-01-28_16h22.06.820,lexical_decision_task_DD,2021.2.3,MacIntel,59.99880002,,,,,,,,,,,,0.6379,1,,,,,,,,,,,,,,,,,,,,,,,,-0.002573785,-0.143741319,0,0,0,,,,,,,MIRROR,C,m,m,./images/MIRROR.png,,,,,,,m,1,0.6379,,,,,,,,0,62,62,63,1
,,,,,,,,,,,,,,,,,198850,19,2022-01-28_16h22.06.820,lexical_decision_task_DD,2021.2.3,MacIntel,59.99880002,,,,,,,,,,,,0.892,1,,,,,,,,,,,,,,,,,,,,,,,,-0.002573785,-0.143741319,0,0,0,,,,,,,SKIING,LB,m,m,./images/SKIINGLB.png,,,,,,,m,1,0.892,,,,,,,,0,63,63,17,1
,,,,,,,,,,,,,,,,,198850,19,2022-01-28_16h22.06.820,lexical_decision_task_DD,2021.2.3,MacIntel,59.99880002,,,,,,,,,,,,1.4513,1,,,,,,,,,,,,,,,,,,,,,,,,-0.002573785,-0.143741319,0,0,0,,,,,,,THROAT,C,m,m,./images/THROAT.png,,,,,,,m,1,1.4513,,,,,,,,0,64,64,36,1
,,,,,,,,,,,,,,,,,198850,19,2022-01-28_16h22.06.820,lexical_decision_task_DD,2021.2.3,MacIntel,59.99880002,,,,,,,,,,,,2.9134,0,,,,,,,,,,,,,,,,,,,,,,,,-0.002573785,-0.143741319,0,0,0,,,,,,,SHELF,C,m,m,./images/SHELF.png,,,,,,,z,0,2.9134,,,,,,,,0,65,65,39,1
,,,,,,,,,,,,,,,,,198850,19,2022-01-28_16h22.06.820,lexical_decision_task_DD,2021.2.3,MacIntel,59.99880002,,,,,,,,,,,,0.6187,1,,,,,,,,,,,,,,,,,,,,,,,,-0.002573785,-0.143741319,0,0,0,,,,,,,PAINT,HB,m,m,./images/PAINTHB.png,,,,,,,m,1,0.6187,,,,,,,,0,66,66,7,1
,,,,,,,,,,,,,,,,,198850,19,2022-01-28_16h22.06.820,lexical_decision_task_DD,2021.2.3,MacIntel,59.99880002,,,,,,,,,,,,0.6379,1,,,,,,,,,,,,,,,,,,,,,,,,-0.002573785,-0.143741319,0,0,0,,,,,,,JUNGLE,LB,m,m,./images/JUNGLELB.png,,,,,,,m,1,0.6379,,,,,,,,0,67,67,83,1
,,,,,,,,,,,,,,,,,198850,19,2022-01-28_16h22.06.820,lexical_decision_task_DD,2021.2.3,MacIntel,59.99880002,,,,,,,,,,,,0.6846,0,,,,,,,,,,,,,,,,,,,,,,,,-0.002573785,-0.143741319,0,0,0,,,,,,,COLLAR,C,z,m,./images/COLLAR.png,,,,,,,m,0,0.6846,,,,,,,,0,68,68,99,1
,,,,,,,,,,,,,,,,,198850,19,2022-01-28_16h22.06.820,lexical_decision_task_DD,2021.2.3,MacIntel,59.99880002,,,,,,,,,,,,0.8349,1,,,,,,,,,,,,,,,,,,,,,,,,-0.002573785,-0.143741319,0,0,0,,,,,,,CANYON,HB,m,m,./images/CANYONHB.png,,,,,,,m,1,0.8349,,,,,,,,0,69,69,34,1
,,,,,,,,,,,,,,,,,198850,19,2022-01-28_16h22.06.820,lexical_decision_task_DD,2021.2.3,MacIntel,59.99880002,,,,,,,,,,,,1.038,0,,,,,,,,,,,,,,,,,,,,,,,,-0.002573785,-0.143741319,0,0,0,,,,,,,DRILL,C,z,m,./images/DRILL.png,,,,,,,m,0,1.038,,,,,,,,0,70,70,165,1
,,,,,,,,,,,,,,,,,198850,19,2022-01-28_16h22.06.820,lexical_decision_task_DD,2021.2.3,MacIntel,59.99880002,,,,,,,,,,,,2.6702,1,,,,,,,,,,,,,,,,,,,,,,,,-0.002573785,-0.143741319,0,0,0,,,,,,,CRATER,C,z,m,./images/CRATER.png,,,,,,,z,1,2.6702,,,,,,,,0,71,71,87,1
,,,,,,,,,,,,,,,,,198850,19,2022-01-28_16h22.06.820,lexical_decision_task_DD,2021.2.3,MacIntel,59.99880002,,,,,,,,,,,,1.2009,1,,,,,,,,,,,,,,,,,,,,,,,,-0.002573785,-0.143741319,0,0,0,,,,,,,STOOL,HB,z,m,./images/STOOLHB.png,,,,,,,z,1,1.2009,,,,,,,,0,72,72,127,1
,,,,,,,,,,,,,,,,,198850,19,2022-01-28_16h22.06.820,lexical_decision_task_DD,2021.2.3,MacIntel,59.99880002,,,,,,,,,,,,0.9661,0,,,,,,,,,,,,,,,,,,,,,,,,-0.002573785,-0.143741319,0,0,0,,,,,,,PLANK,HB,m,m,./images/PLANKHB.png,,,,,,,z,0,0.9661,,,,,,,,0,73,73,1,1
,,,,,,,,,,,,,,,,,198850,19,2022-01-28_16h22.06.820,lexical_decision_task_DD,2021.2.3,MacIntel,59.99880002,,,,,,,,,,,,3.6147,1,,,,,,,,,,,,,,,,,,,,,,,,-0.002573785,-0.143741319,0,0,0,,,,,,,SLOPE,C,z,m,./images/SLOPE.png,,,,,,,z,1,3.6147,,,,,,,,0,74,74,114,1
,,,,,,,,,,,,,,,,,198850,19,2022-01-28_16h22.06.820,lexical_decision_task_DD,2021.2.3,MacIntel,59.99880002,,,,,,,,,,,,1.2055,1,,,,,,,,,,,,,,,,,,,,,,,,-0.002573785,-0.143741319,0,0,0,,,,,,,ARTIST,HB,z,m,./images/ARTISTHB.png,,,,,,,z,1,1.2055,,,,,,,,0,75,75,145,1
,,,,,,,,,,,,,,,,,198850,19,2022-01-28_16h22.06.820,lexical_decision_task_DD,2021.2.3,MacIntel,59.99880002,,,,,,,,,,,,0.7506,1,,,,,,,,,,,,,,,,,,,,,,,,-0.002573785,-0.143741319,0,0,0,,,,,,,POSTER,LB,z,m,./images/POSTERLB.png,,,,,,,z,1,0.7506,,,,,,,,0,76,76,137,1
,,,,,,,,,,,,,,,,,198850,19,2022-01-28_16h22.06.820,lexical_decision_task_DD,2021.2.3,MacIntel,59.99880002,,,,,,,,,,,,0.9541,1,,,,,,,,,,,,,,,,,,,,,,,,-0.002573785,-0.143741319,0,0,0,,,,,,,MUSCLE,HB,m,m,./images/MUSCLEHB.png,,,,,,,m,1,0.9541,,,,,,,,0,77,77,4,1
,,,,,,,,,,,,,,,,,198850,19,2022-01-28_16h22.06.820,lexical_decision_task_DD,2021.2.3,MacIntel,59.99880002,,,,,,,,,,,,4.0741,1,,,,,,,,,,,,,,,,,,,,,,,,-0.002573785,-0.143741319,0,0,0,,,,,,,BUBBLE,LB,z,m,./images/BUBBLELB.png,,,,,,,z,1,4.0741,,,,,,,,0,78,78,155,1
,,,,,,,,,,,,,,,,,198850,19,2022-01-28_16h22.06.820,lexical_decision_task_DD,2021.2.3,MacIntel,59.99880002,,,,,,,,,,,,7.6199,1,,,,,,,,,,,,,,,,,,,,,,,,-0.002573785,-0.143741319,0,0,0,,,,,,,WALNUT,C,z,m,./images/WALNUT.png,,,,,,,z,1,7.6199,,,,,,,,0,79,79,84,1
,,,,,,,,,,,,,,,,,198850,19,2022-01-28_16h22.06.820,lexical_decision_task_DD,2021.2.3,MacIntel,59.99880002,,,,,,,,,,,,0.6022,1,,,,,,,,,,,,,,,,,,,,,,,,-0.002573785,-0.143741319,0,0,0,,,,,,,BROOM,C,z,m,./images/BROOM.png,,,,,,,z,1,0.6022,,,,,,,,0,80,80,162,1
,,,,,,,,,,,,,,,,,198850,19,2022-01-28_16h22.06.820,lexical_decision_task_DD,2021.2.3,MacIntel,59.99880002,,,,,,,,,,,,0.7184,1,,,,,,,,,,,,,,,,,,,,,,,,-0.002573785,-0.143741319,0,0,0,,,,,,,BLOKE,C,z,m,./images/BLOKE.png,,,,,,,z,1,0.7184,,,,,,,,0,81,81,96,1
,,,,,,,,,,,,,,,,,198850,19,2022-01-28_16h22.06.820,lexical_decision_task_DD,2021.2.3,MacIntel,59.99880002,,,,,,,,,,,,4.1241,1,,,,,,,,,,,,,,,,,,,,,,,,-0.002573785,-0.143741319,0,0,0,,,,,,,CLOWN,HB,z,m,./images/CLOWNHB.png,,,,,,,z,1,4.1241,,,,,,,,0,82,82,106,1
,,,,,,,,,,,,,,,,,198850,19,2022-01-28_16h22.06.820,lexical_decision_task_DD,2021.2.3,MacIntel,59.99880002,,,,,,,,,,,,2.3448,0,,,,,,,,,,,,,,,,,,,,,,,,-0.002573785,-0.143741319,0,0,0,space,,,,,,FOLDER,C,m,m,./images/FOLDER.png,171.402,,,,,,z,0,2.3448,,,,,,,,0,83,83,42,1
,,,,,,,,,,,,,,,,,198850,19,2022-01-28_16h22.06.820,lexical_decision_task_DD,2021.2.3,MacIntel,59.99880002,,,,,,,,,,,,2.0155,0,,,,,,,,,,,,,,,,,,,,,,,,-0.002573785,-0.143741319,0,0,0,,,,,,,GARDEN,HB,z,m,./images/GARDENHB.png,,,,,,,m,0,2.0155,,,,,,,,0,84,84,94,1
,,,,,,,,,,,,,,,,,198850,19,2022-01-28_16h22.06.820,lexical_decision_task_DD,2021.2.3,MacIntel,59.99880002,,,,,,,,,,,,0.6036,1,,,,,,,,,,,,,,,,,,,,,,,,-0.002573785,-0.143741319,0,0,0,,,,,,,VALLEY,LB,z,m,./images/VALLEYLB.png,,,,,,,z,1,0.6036,,,,,,,,0,85,85,152,1
,,,,,,,,,,,,,,,,,198850,19,2022-01-28_16h22.06.820,lexical_decision_task_DD,2021.2.3,MacIntel,59.99880002,,,,,,,,,,,,0.8032,1,,,,,,,,,,,,,,,,,,,,,,,,-0.002573785,-0.143741319,0,0,0,,,,,,,RHINO,C,m,m,./images/RHINO.png,,,,,,,m,1,0.8032,,,,,,,,0,86,86,9,1
,,,,,,,,,,,,,,,,,198850,19,2022-01-28_16h22.06.820,lexical_decision_task_DD,2021.2.3,MacIntel,59.99880002,,,,,,,,,,,,0.6673,0,,,,,,,,,,,,,,,,,,,,,,,,-0.002573785,-0.143741319,0,0,0,,,,,,,MUFFIN,HB,m,m,./images/MUFFINHB.png,,,,,,,z,0,0.6673,,,,,,,,0,87,87,55,1
,,,,,,,,,,,,,,,,,198850,19,2022-01-28_16h22.06.820,lexical_decision_task_DD,2021.2.3,MacIntel,59.99880002,,,,,,,,,,,,0.682,1,,,,,,,,,,,,,,,,,,,,,,,,-0.002573785,-0.143741319,0,0,0,,,,,,,MAMMAL,LB,z,m,./images/MAMMALLB.png,,,,,,,z,1,0.682,,,,,,,,0,88,88,146,1
,,,,,,,,,,,,,,,,,198850,19,2022-01-28_16h22.06.820,lexical_decision_task_DD,2021.2.3,MacIntel,59.99880002,,,,,,,,,,,,0.8505,1,,,,,,,,,,,,,,,,,,,,,,,,-0.002573785,-0.143741319,0,0,0,,,,,,,PEARL,HB,m,m,./images/PEARLHB.png,,,,,,,m,1,0.8505,,,,,,,,0,89,89,46,1
,,,,,,,,,,,,,,,,,198850,19,2022-01-28_16h22.06.820,lexical_decision_task_DD,2021.2.3,MacIntel,59.99880002,,,,,,,,,,,,0.7157,0,,,,,,,,,,,,,,,,,,,,,,,,-0.002573785,-0.143741319,0,0,0,,,,,,,GRAIN,C,m,m,./images/GRAIN.png,,,,,,,z,0,0.7157,,,,,,,,0,90,90,75,1
,,,,,,,,,,,,,,,,,198850,19,2022-01-28_16h22.06.820,lexical_decision_task_DD,2021.2.3,MacIntel,59.99880002,,,,,,,,,,,,0.6517,1,,,,,,,,,,,,,,,,,,,,,,,,-0.002573785,-0.143741319,0,0,0,,,,,,,STRING,LB,m,m,./images/STRINGLB.png,,,,,,,m,1,0.6517,,,,,,,,0,91,91,41,1
,,,,,,,,,,,,,,,,,198850,19,2022-01-28_16h22.06.820,lexical_decision_task_DD,2021.2.3,MacIntel,59.99880002,,,,,,,,,,,,0.586,0,,,,,,,,,,,,,,,,,,,,,,,,-0.002573785,-0.143741319,0,0,0,,,,,,,BUTTER,C,z,m,./images/BUTTER.png,,,,,,,m,0,0.586,,,,,,,,0,92,92,111,1
,,,,,,,,,,,,,,,,,198850,19,2022-01-28_16h22.06.820,lexical_decision_task_DD,2021.2.3,MacIntel,59.99880002,,,,,,,,,,,,2.2188,1,,,,,,,,,,,,,,,,,,,,,,,,-0.002573785,-0.143741319,0,0,0,,,,,,,BIRTH,HB,m,m,./images/BIRTHHB.png,,,,,,,m,1,2.2188,,,,,,,,0,93,93,37,1
,,,,,,,,,,,,,,,,,198850,19,2022-01-28_16h22.06.820,lexical_decision_task_DD,2021.2.3,MacIntel,59.99880002,,,,,,,,,,,,0.8674,1,,,,,,,,,,,,,,,,,,,,,,,,-0.002573785,-0.143741319,0,0,0,,,,,,,STAIN,C,z,m,./images/STAIN.png,,,,,,,z,1,0.8674,,,,,,,,0,94,94,90,1
,,,,,,,,,,,,,,,,,198850,19,2022-01-28_16h22.06.820,lexical_decision_task_DD,2021.2.3,MacIntel,59.99880002,,,,,,,,,,,,0.6812,1,,,,,,,,,,,,,,,,,,,,,,,,-0.002573785,-0.143741319,0,0,0,,,,,,,TWINS,C,m,m,./images/TWINS.png,,,,,,,m,1,0.6812,,,,,,,,0,95,95,60,1
,,,,,,,,,,,,,,,,,198850,19,2022-01-28_16h22.06.820,lexical_decision_task_DD,2021.2.3,MacIntel,59.99880002,,,,,,,,,,,,0.6231,1,,,,,,,,,,,,,,,,,,,,,,,,-0.002573785,-0.143741319,0,0,0,,,,,,,PARADE,LB,z,m,./images/PARADELB.png,,,,,,,z,1,0.6231,,,,,,,,0,96,96,101,1
,,,,,,,,,,,,,,,,,198850,19,2022-01-28_16h22.06.820,lexical_decision_task_DD,2021.2.3,MacIntel,59.99880002,,,,,,,,,,,,1.6846,1,,,,,,,,,,,,,,,,,,,,,,,,-0.002573785,-0.143741319,0,0,0,,,,,,,SNAKE,HB,z,m,./images/SNAKEHB.png,,,,,,,z,1,1.6846,,,,,,,,0,97,97,124,1
,,,,,,,,,,,,,,,,,198850,19,2022-01-28_16h22.06.820,lexical_decision_task_DD,2021.2.3,MacIntel,59.99880002,,,,,,,,,,,,0.6363,0,,,,,,,,,,,,,,,,,,,,,,,,-0.002573785,-0.143741319,0,0,0,,,,,,,WHEEL,LB,z,m,./images/WHEELLB.png,,,,,,,m,0,0.6363,,,,,,,,0,98,98,161,1
,,,,,,,,,,,,,,,,,198850,19,2022-01-28_16h22.06.820,lexical_decision_task_DD,2021.2.3,MacIntel,59.99880002,,,,,,,,,,,,0.6678,1,,,,,,,,,,,,,,,,,,,,,,,,-0.002573785,-0.143741319,0,0,0,,,,,,,POKER,HB,z,m,./images/POKERHB.png,,,,,,,z,1,0.6678,,,,,,,,0,99,99,151,1
,,,,,,,,,,,,,,,,,198850,19,2022-01-28_16h22.06.820,lexical_decision_task_DD,2021.2.3,MacIntel,59.99880002,,,,,,,,,,,,0.6333,1,,,,,,,,,,,,,,,,,,,,,,,,-0.002573785,-0.143741319,0,0,0,,,,,,,LITTER,C,m,m,./images/LITTER.png,,,,,,,m,1,0.6333,,,,,,,,0,100,100,78,1
,,,,,,,,,,,,,,,,,198850,19,2022-01-28_16h22.06.820,lexical_decision_task_DD,2021.2.3,MacIntel,59.99880002,,,,,,,,,,,,0.773,1,,,,,,,,,,,,,,,,,,,,,,,,-0.002573785,-0.143741319,0,0,0,,,,,,,JAGUAR,C,m,m,./images/JAGUAR.png,,,,,,,m,1,0.773,,,,,,,,0,101,101,18,1
,,,,,,,,,,,,,,,,,198850,19,2022-01-28_16h22.06.820,lexical_decision_task_DD,2021.2.3,MacIntel,59.99880002,,,,,,,,,,,,1.118,1,,,,,,,,,,,,,,,,,,,,,,,,-0.002573785,-0.143741319,0,0,0,,,,,,,FARMER,LB,m,m,./images/FARMERLB.png,,,,,,,m,1,1.118,,,,,,,,0,102,102,65,1
,,,,,,,,,,,,,,,,,198850,19,2022-01-28_16h22.06.820,lexical_decision_task_DD,2021.2.3,MacIntel,59.99880002,,,,,,,,,,,,0.7541,0,,,,,,,,,,,,,,,,,,,,,,,,-0.002573785,-0.143741319,0,0,0,,,,,,,PEACH,LB,m,m,./images/PEACHLB.png,,,,,,,z,0,0.7541,,,,,,,,0,103,103,35,1
,,,,,,,,,,,,,,,,,198850,19,2022-01-28_16h22.06.820,lexical_decision_task_DD,2021.2.3,MacIntel,59.99880002,,,,,,,,,,,,0.734,1,,,,,,,,,,,,,,,,,,,,,,,,-0.002573785,-0.143741319,0,0,0,,,,,,,CEMENT,LB,m,m,./images/CEMENTLB.png,,,,,,,m,1,0.734,,,,,,,,0,104,104,74,1
,,,,,,,,,,,,,,,,,198850,19,2022-01-28_16h22.06.820,lexical_decision_task_DD,2021.2.3,MacIntel,59.99880002,,,,,,,,,,,,4.1507,1,,,,,,,,,,,,,,,,,,,,,,,,-0.002573785,-0.143741319,0,0,0,,,,,,,WALRUS,LB,m,m,./images/WALRUSLB.png,,,,,,,m,1,4.1507,,,,,,,,0,105,105,23,1
,,,,,,,,,,,,,,,,,198850,19,2022-01-28_16h22.06.820,lexical_decision_task_DD,2021.2.3,MacIntel,59.99880002,,,,,,,,,,,,1.1511,1,,,,,,,,,,,,,,,,,,,,,,,,-0.002573785,-0.143741319,0,0,0,,,,,,,BONNET,LB,m,m,./images/BONNETLB.png,,,,,,,m,1,1.1511,,,,,,,,0,106,106,11,1
,,,,,,,,,,,,,,,,,198850,19,2022-01-28_16h22.06.820,lexical_decision_task_DD,2021.2.3,MacIntel,59.99880002,,,,,,,,,,,,0.767,1,,,,,,,,,,,,,,,,,,,,,,,,-0.002573785,-0.143741319,0,0,0,,,,,,,LIZARD,LB,m,m,./images/LIZARDLB.png,,,,,,,m,1,0.767,,,,,,,,0,107,107,44,1
,,,,,,,,,,,,,,,,,198850,19,2022-01-28_16h22.06.820,lexical_decision_task_DD,2021.2.3,MacIntel,59.99880002,,,,,,,,,,,,0.853,1,,,,,,,,,,,,,,,,,,,,,,,,-0.002573785,-0.143741319,0,0,0,,,,,,,JUMPER,LB,z,m,./images/JUMPERLB.png,,,,,,,z,1,0.853,,,,,,,,0,108,108,158,1
,,,,,,,,,,,,,,,,,198850,19,2022-01-28_16h22.06.820,lexical_decision_task_DD,2021.2.3,MacIntel,59.99880002,,,,,,,,,,,,0.8448,1,,,,,,,,,,,,,,,,,,,,,,,,-0.002573785,-0.143741319,0,0,0,,,,,,,TIGER,HB,z,m,./images/TIGERHB.png,,,,,,,z,1,0.8448,,,,,,,,0,109,109,121,1
,,,,,,,,,,,,,,,,,198850,19,2022-01-28_16h22.06.820,lexical_decision_task_DD,2021.2.3,MacIntel,59.99880002,,,,,,,,,,,,0.7381,1,,,,,,,,,,,,,,,,,,,,,,,,-0.002573785,-0.143741319,0,0,0,,,,,,,JELLY,HB,m,m,./images/JELLYHB.png,,,,,,,m,1,0.7381,,,,,,,,0,110,110,64,1
,,,,,,,,,,,,,,,,,198850,19,2022-01-28_16h22.06.820,lexical_decision_task_DD,2021.2.3,MacIntel,59.99880002,,,,,,,,,,,,0.7174,1,,,,,,,,,,,,,,,,,,,,,,,,-0.002573785,-0.143741319,0,0,0,,,,,,,CURRY,C,z,m,./images/CURRY.png,,,,,,,z,1,0.7174,,,,,,,,0,111,111,144,1
,,,,,,,,,,,,,,,,,198850,19,2022-01-28_16h22.06.820,lexical_decision_task_DD,2021.2.3,MacIntel,59.99880002,,,,,,,,,,,,0.906,0,,,,,,,,,,,,,,,,,,,,,,,,-0.002573785,-0.143741319,0,0,0,,,,,,,DRUMS,HB,m,m,./images/DRUMSHB.png,,,,,,,z,0,0.906,,,,,,,,0,112,112,49,1
,,,,,,,,,,,,,,,,,198850,19,2022-01-28_16h22.06.820,lexical_decision_task_DD,2021.2.3,MacIntel,59.99880002,,,,,,,,,,,,0.8363,1,,,,,,,,,,,,,,,,,,,,,,,,-0.002573785,-0.143741319,0,0,0,,,,,,,MIDGET,HB,z,m,./images/MIDGETHB.png,,,,,,,z,1,0.8363,,,,,,,,0,113,113,160,1
,,,,,,,,,,,,,,,,,198850,19,2022-01-28_16h22.06.820,lexical_decision_task_DD,2021.2.3,MacIntel,59.99880002,,,,,,,,,,,,0.7431,1,,,,,,,,,,,,,,,,,,,,,,,,-0.002573785,-0.143741319,0,0,0,,,,,,,CARPET,LB,m,m,./images/CARPETLB.png,,,,,,,m,1,0.7431,,,,,,,,0,114,114,53,1
,,,,,,,,,,,,,,,,,198850,19,2022-01-28_16h22.06.820,lexical_decision_task_DD,2021.2.3,MacIntel,59.99880002,,,,,,,,,,,,0.5505,1,,,,,,,,,,,,,,,,,,,,,,,,-0.002573785,-0.143741319,0,0,0,,,,,,,SAUNA,C,z,m,./images/SAUNA.png,,,,,,,z,1,0.5505,,,,,,,,0,115,115,117,1
,,,,,,,,,,,,,,,,,198850,19,2022-01-28_16h22.06.820,lexical_decision_task_DD,2021.2.3,MacIntel,59.99880002,,,,,,,,,,,,0.6426,1,,,,,,,,,,,,,,,,,,,,,,,,-0.002573785,-0.143741319,0,0,0,,,,,,,SHIELD,C,z,m,./images/SHIELD.png,,,,,,,z,1,0.6426,,,,,,,,0,116,116,132,1
,,,,,,,,,,,,,,,,,198850,19,2022-01-28_16h22.06.820,lexical_decision_task_DD,2021.2.3,MacIntel,59.99880002,,,,,,,,,,,,0.6526,0,,,,,,,,,,,,,,,,,,,,,,,,-0.002573785,-0.143741319,0,0,0,,,,,,,BAKER,C,z,m,./images/BAKER.png,,,,,,,m,0,0.6526,,,,,,,,0,117,117,147,1
,,,,,,,,,,,,,,,,,198850,19,2022-01-28_16h22.06.820,lexical_decision_task_DD,2021.2.3,MacIntel,59.99880002,,,,,,,,,,,,0.6692,1,,,,,,,,,,,,,,,,,,,,,,,,-0.002573785,-0.143741319,0,0,0,,,,,,,BABOON,HB,m,m,./images/BABOONHB.png,,,,,,,m,1,0.6692,,,,,,,,0,118,118,58,1
,,,,,,,,,,,,,,,,,198850,19,2022-01-28_16h22.06.820,lexical_decision_task_DD,2021.2.3,MacIntel,59.99880002,,,,,,,,,,,,0.6508,1,,,,,,,,,,,,,,,,,,,,,,,,-0.002573785,-0.143741319,0,0,0,,,,,,,MUMMY,HB,z,m,./images/MUMMYHB.png,,,,,,,z,1,0.6508,,,,,,,,0,119,119,130,1
,,,,,,,,,,,,,,,,,198850,19,2022-01-28_16h22.06.820,lexical_decision_task_DD,2021.2.3,MacIntel,59.99880002,,,,,,,,,,,,0.8535,0,,,,,,,,,,,,,,,,,,,,,,,,-0.002573785,-0.143741319,0,0,0,,,,,,,SQUARE,C,m,m,./images/SQUARE.png,,,,,,,z,0,0.8535,,,,,,,,0,120,120,6,1
,,,,,,,,,,,,,,,,,198850,19,2022-01-28_16h22.06.820,lexical_decision_task_DD,2021.2.3,MacIntel,59.99880002,,,,,,,,,,,,0.5984,0,,,,,,,,,,,,,,,,,,,,,,,,-0.002573785,-0.143741319,0,0,0,,,,,,,MONKEY,C,z,m,./images/MONKEY.png,,,,,,,m,0,0.5984,,,,,,,,0,121,121,129,1
,,,,,,,,,,,,,,,,,198850,19,2022-01-28_16h22.06.820,lexical_decision_task_DD,2021.2.3,MacIntel,59.99880002,,,,,,,,,,,,0.699,0,,,,,,,,,,,,,,,,,,,,,,,,-0.002573785,-0.143741319,0,0,0,,,,,,,SHORE,C,m,m,./images/SHORE.png,,,,,,,z,0,0.699,,,,,,,,0,122,122,12,1
,,,,,,,,,,,,,,,,,198850,19,2022-01-28_16h22.06.820,lexical_decision_task_DD,2021.2.3,MacIntel,59.99880002,,,,,,,,,,,,0.5419,0,,,,,,,,,,,,,,,,,,,,,,,,-0.002573785,-0.143741319,0,0,0,,,,,,,MOTOR,HB,m,m,./images/MOTORHB.png,,,,,,,z,0,0.5419,,,,,,,,0,123,123,13,1
,,,,,,,,,,,,,,,,,198850,19,2022-01-28_16h22.06.820,lexical_decision_task_DD,2021.2.3,MacIntel,59.99880002,,,,,,,,,,,,0.7036,0,,,,,,,,,,,,,,,,,,,,,,,,-0.002573785,-0.143741319,0,0,0,,,,,,,POODLE,C,m,m,./images/POODLE.png,,,,,,,z,0,0.7036,,,,,,,,0,124,124,81,1
,,,,,,,,,,,,,,,,,198850,19,2022-01-28_16h22.06.820,lexical_decision_task_DD,2021.2.3,MacIntel,59.99880002,,,,,,,,,,,,0.621,1,,,,,,,,,,,,,,,,,,,,,,,,-0.002573785,-0.143741319,0,0,0,space,,,,,,FENCE,LB,z,m,./images/FENCELB.png,35.2555,,,,,,z,1,0.621,,,,,,,,0,125,125,98,1
,,,,,,,,,,,,,,,,,198850,19,2022-01-28_16h22.06.820,lexical_decision_task_DD,2021.2.3,MacIntel,59.99880002,,,,,,,,,,,,1.3372,1,,,,,,,,,,,,,,,,,,,,,,,,-0.002573785,-0.143741319,0,0,0,,,,,,,STREAM,LB,z,m,./images/STREAMLB.png,,,,,,,z,1,1.3372,,,,,,,,0,126,126,125,1
,,,,,,,,,,,,,,,,,198850,19,2022-01-28_16h22.06.820,lexical_decision_task_DD,2021.2.3,MacIntel,59.99880002,,,,,,,,,,,,0.6075,1,,,,,,,,,,,,,,,,,,,,,,,,-0.002573785,-0.143741319,0,0,0,,,,,,,BUNNY,HB,z,m,./images/BUNNYHB.png,,,,,,,z,1,0.6075,,,,,,,,0,127,127,97,1
,,,,,,,,,,,,,,,,,198850,19,2022-01-28_16h22.06.820,lexical_decision_task_DD,2021.2.3,MacIntel,59.99880002,,,,,,,,,,,,0.637,1,,,,,,,,,,,,,,,,,,,,,,,,-0.002573785,-0.143741319,0,0,0,,,,,,,LADDER,LB,m,m,./images/LADDERLB.png,,,,,,,m,1,0.637,,,,,,,,0,128,128,38,1
,,,,,,,,,,,,,,,,,198850,19,2022-01-28_16h22.06.820,lexical_decision_task_DD,2021.2.3,MacIntel,59.99880002,,,,,,,,,,,,0.6349,1,,,,,,,,,,,,,,,,,,,,,,,,-0.002573785,-0.143741319,0,0,0,,,,,,,HEATER,LB,z,m,./images/HEATERLB.png,,,,,,,z,1,0.6349,,,,,,,,0,129,129,140,1
,,,,,,,,,,,,,,,,,198850,19,2022-01-28_16h22.06.820,lexical_decision_task_DD,2021.2.3,MacIntel,59.99880002,,,,,,,,,,,,0.6694,1,,,,,,,,,,,,,,,,,,,,,,,,-0.002573785,-0.143741319,0,0,0,,,,,,,TOMATO,C,m,m,./images/TOMATO.png,,,,,,,m,1,0.6694,,,,,,,,0,130,130,0,1
,,,,,,,,,,,,,,,,,198850,19,2022-01-28_16h22.06.820,lexical_decision_task_DD,2021.2.3,MacIntel,59.99880002,,,,,,,,,,,,0.6018,0,,,,,,,,,,,,,,,,,,,,,,,,-0.002573785,-0.143741319,0,0,0,,,,,,,SMOKER,LB,m,m,./images/SMOKERLB.png,,,,,,,z,0,0.6018,,,,,,,,0,131,131,26,1
,,,,,,,,,,,,,,,,,198850,19,2022-01-28_16h22.06.820,lexical_decision_task_DD,2021.2.3,MacIntel,59.99880002,,,,,,,,,,,,0.8844,1,,,,,,,,,,,,,,,,,,,,,,,,-0.002573785,-0.143741319,0,0,0,,,,,,,BRIDE,HB,z,m,./images/BRIDEHB.png,,,,,,,z,1,0.8844,,,,,,,,0,132,132,148,1
,,,,,,,,,,,,,,,,,198850,19,2022-01-28_16h22.06.820,lexical_decision_task_DD,2021.2.3,MacIntel,59.99880002,,,,,,,,,,,,0.685,0,,,,,,,,,,,,,,,,,,,,,,,,-0.002573785,-0.143741319,0,0,0,,,,,,,SPORT,C,m,m,./images/SPORT.png,,,,,,,z,0,0.685,,,,,,,,0,133,133,48,1
,,,,,,,,,,,,,,,,,198850,19,2022-01-28_16h22.06.820,lexical_decision_task_DD,2021.2.3,MacIntel,59.99880002,,,,,,,,,,,,0.8181,1,,,,,,,,,,,,,,,,,,,,,,,,-0.002573785,-0.143741319,0,0,0,,,,,,,FINGER,C,m,m,./images/FINGER.png,,,,,,,m,1,0.8181,,,,,,,,0,134,134,3,1
,,,,,,,,,,,,,,,,,198850,19,2022-01-28_16h22.06.820,lexical_decision_task_DD,2021.2.3,MacIntel,59.99880002,,,,,,,,,,,,0.6052,1,,,,,,,,,,,,,,,,,,,,,,,,-0.002573785,-0.143741319,0,0,0,,,,,,,BERRY,LB,m,m,./images/BERRYLB.png,,,,,,,m,1,0.6052,,,,,,,,0,135,135,47,1
,,,,,,,,,,,,,,,,,198850,19,2022-01-28_16h22.06.820,lexical_decision_task_DD,2021.2.3,MacIntel,59.99880002,,,,,,,,,,,,0.902,1,,,,,,,,,,,,,,,,,,,,,,,,-0.002573785,-0.143741319,0,0,0,,,,,,,ALLEY,HB,z,m,./images/ALLEYHB.png,,,,,,,z,1,0.902,,,,,,,,0,136,136,139,1
,,,,,,,,,,,,,,,,,198850,19,2022-01-28_16h22.06.820,lexical_decision_task_DD,2021.2.3,MacIntel,59.99880002,,,,,,,,,,,,0.6529,1,,,,,,,,,,,,,,,,,,,,,,,,-0.002573785,-0.143741319,0,0,0,,,,,,,PEBBLE,HB,z,m,./images/PEBBLEHB.png,,,,,,,z,1,0.6529,,,,,,,,0,137,137,166,1
,,,,,,,,,,,,,,,,,198850,19,2022-01-28_16h22.06.820,lexical_decision_task_DD,2021.2.3,MacIntel,59.99880002,,,,,,,,,,,,1.0487,1,,,,,,,,,,,,,,,,,,,,,,,,-0.002573785,-0.143741319,0,0,0,,,,,,,TRIPOD,C,m,m,./images/TRIPOD.png,,,,,,,m,1,1.0487,,,,,,,,0,138,138,54,1
,,,,,,,,,,,,,,,,,198850,19,2022-01-28_16h22.06.820,lexical_decision_task_DD,2021.2.3,MacIntel,59.99880002,,,,,,,,,,,,0.6414,0,,,,,,,,,,,,,,,,,,,,,,,,-0.002573785,-0.143741319,0,0,0,,,,,,,WAGON,HB,z,m,./images/WAGONHB.png,,,,,,,m,0,0.6414,,,,,,,,0,139,139,91,1
,,,,,,,,,,,,,,,,,198850,19,2022-01-28_16h22.06.820,lexical_decision_task_DD,2021.2.3,MacIntel,59.99880002,,,,,,,,,,,,0.99,1,,,,,,,,,,,,,,,,,,,,,,,,-0.002573785,-0.143741319,0,0,0,,,,,,,BURIAL,LB,m,m,./images/BURIALLB.png,,,,,,,m,1,0.99,,,,,,,,0,140,140,59,1
,,,,,,,,,,,,,,,,,198850,19,2022-01-28_16h22.06.820,lexical_decision_task_DD,2021.2.3,MacIntel,59.99880002,,,,,,,,,,,,1.0909,0,,,,,,,,,,,,,,,,,,,,,,,,-0.002573785,-0.143741319,0,0,0,,,,,,,ARROW,C,z,m,./images/ARROW.png,,,,,,,m,0,1.0909,,,,,,,,0,141,141,153,1
,,,,,,,,,,,,,,,,,198850,19,2022-01-28_16h22.06.820,lexical_decision_task_DD,2021.2.3,MacIntel,59.99880002,,,,,,,,,,,,0.8524,0,,,,,,,,,,,,,,,,,,,,,,,,-0.002573785,-0.143741319,0,0,0,,,,,,,CANDY,C,z,m,./images/CANDY.png,,,,,,,m,0,0.8524,,,,,,,,0,142,142,123,1
,,,,,,,,,,,,,,,,,198850,19,2022-01-28_16h22.06.820,lexical_decision_task_DD,2021.2.3,MacIntel,59.99880002,,,,,,,,,,,,0.7854,0,,,,,,,,,,,,,,,,,,,,,,,,-0.002573785,-0.143741319,0,0,0,,,,,,,BISHOP,HB,z,m,./images/BISHOPHB.png,,,,,,,m,0,0.7854,,,,,,,,0,143,143,133,1
,,,,,,,,,,,,,,,,,198850,19,2022-01-28_16h22.06.820,lexical_decision_task_DD,2021.2.3,MacIntel,59.99880002,,,,,,,,,,,,0.6515,0,,,,,,,,,,,,,,,,,,,,,,,,-0.002573785,-0.143741319,0,0,0,,,,,,,TORCH,LB,m,m,./images/TORCHLB.png,,,,,,,z,0,0.6515,,,,,,,,0,144,144,68,1
,,,,,,,,,,,,,,,,,198850,19,2022-01-28_16h22.06.820,lexical_decision_task_DD,2021.2.3,MacIntel,59.99880002,,,,,,,,,,,,0.9187,1,,,,,,,,,,,,,,,,,,,,,,,,-0.002573785,-0.143741319,0,0,0,,,,,,,GREASE,C,m,m,./images/GREASE.png,,,,,,,m,1,0.9187,,,,,,,,0,145,145,15,1
,,,,,,,,,,,,,,,,,198850,19,2022-01-28_16h22.06.820,lexical_decision_task_DD,2021.2.3,MacIntel,59.99880002,,,,,,,,,,,,1.2862,1,,,,,,,,,,,,,,,,,,,,,,,,-0.002573785,-0.143741319,0,0,0,,,,,,,HAMMER,C,z,m,./images/HAMMER.png,,,,,,,z,1,1.2862,,,,,,,,0,146,146,159,1
,,,,,,,,,,,,,,,,,198850,19,2022-01-28_16h22.06.820,lexical_decision_task_DD,2021.2.3,MacIntel,59.99880002,,,,,,,,,,,,3.2221,1,,,,,,,,,,,,,,,,,,,,,,,,-0.002573785,-0.143741319,0,0,0,,,,,,,PISTOL,LB,z,m,./images/PISTOLLB.png,,,,,,,z,1,3.2221,,,,,,,,0,147,147,113,1
,,,,,,,,,,,,,,,,,198850,19,2022-01-28_16h22.06.820,lexical_decision_task_DD,2021.2.3,MacIntel,59.99880002,,,,,,,,,,,,0.6511,1,,,,,,,,,,,,,,,,,,,,,,,,-0.002573785,-0.143741319,0,0,0,,,,,,,CLOTH,LB,z,m,./images/CLOTHLB.png,,,,,,,z,1,0.6511,,,,,,,,0,148,148,107,1
,,,,,,,,,,,,,,,,,198850,19,2022-01-28_16h22.06.820,lexical_decision_task_DD,2021.2.3,MacIntel,59.99880002,,,,,,,,,,,,2.851,1,,,,,,,,,,,,,,,,,,,,,,,,-0.002573785,-0.143741319,0,0,0,,,,,,,RAZOR,HB,z,m,./images/RAZORHB.png,,,,,,,z,1,2.851,,,,,,,,0,149,149,118,1
,,,,,,,,,,,,,,,,,198850,19,2022-01-28_16h22.06.820,lexical_decision_task_DD,2021.2.3,MacIntel,59.99880002,,,,,,,,,,,,0.7647,1,,,,,,,,,,,,,,,,,,,,,,,,-0.002573785,-0.143741319,0,0,0,,,,,,,BEARD,LB,m,m,./images/BEARDLB.png,,,,,,,m,1,0.7647,,,,,,,,0,150,150,2,1
,,,,,,,,,,,,,,,,,198850,19,2022-01-28_16h22.06.820,lexical_decision_task_DD,2021.2.3,MacIntel,59.99880002,,,,,,,,,,,,1.559,1,,,,,,,,,,,,,,,,,,,,,,,,-0.002573785,-0.143741319,0,0,0,,,,,,,BANNER,HB,m,m,./images/BANNERHB.png,,,,,,,m,1,1.559,,,,,,,,0,151,151,52,1
,,,,,,,,,,,,,,,,,198850,19,2022-01-28_16h22.06.820,lexical_decision_task_DD,2021.2.3,MacIntel,59.99880002,,,,,,,,,,,,0.569,1,,,,,,,,,,,,,,,,,,,,,,,,-0.002573785,-0.143741319,0,0,0,,,,,,,CLIFF,LB,z,m,./images/CLIFFLB.png,,,,,,,z,1,0.569,,,,,,,,0,152,152,92,1
,,,,,,,,,,,,,,,,,198850,19,2022-01-28_16h22.06.820,lexical_decision_task_DD,2021.2.3,MacIntel,59.99880002,,,,,,,,,,,,0.7612,1,,,,,,,,,,,,,,,,,,,,,,,,-0.002573785,-0.143741319,0,0,0,,,,,,,MEDAL,LB,z,m,./images/MEDALLB.png,,,,,,,z,1,0.7612,,,,,,,,0,153,153,95,1
,,,,,,,,,,,,,,,,,198850,19,2022-01-28_16h22.06.820,lexical_decision_task_DD,2021.2.3,MacIntel,59.99880002,,,,,,,,,,,,0.6699,1,,,,,,,,,,,,,,,,,,,,,,,,-0.002573785,-0.143741319,0,0,0,,,,,,,CLOUD,LB,z,m,./images/CLOUDLB.png,,,,,,,z,1,0.6699,,,,,,,,0,154,154,110,1
,,,,,,,,,,,,,,,,,198850,19,2022-01-28_16h22.06.820,lexical_decision_task_DD,2021.2.3,MacIntel,59.99880002,,,,,,,,,,,,0.7693,1,,,,,,,,,,,,,,,,,,,,,,,,-0.002573785,-0.143741319,0,0,0,,,,,,,PICKLE,LB,m,m,./images/PICKLELB.png,,,,,,,m,1,0.7693,,,,,,,,0,155,155,14,1
,,,,,,,,,,,,,,,,,198850,19,2022-01-28_16h22.06.820,lexical_decision_task_DD,2021.2.3,MacIntel,59.99880002,,,,,,,,,,,,0.8166,1,,,,,,,,,,,,,,,,,,,,,,,,-0.002573785,-0.143741319,0,0,0,,,,,,,PLANET,LB,z,m,./images/PLANETLB.png,,,,,,,z,1,0.8166,,,,,,,,0,156,156,164,1
,,,,,,,,,,,,,,,,,198850,19,2022-01-28_16h22.06.820,lexical_decision_task_DD,2021.2.3,MacIntel,59.99880002,,,,,,,,,,,,1.1863,0,,,,,,,,,,,,,,,,,,,,,,,,-0.002573785,-0.143741319,0,0,0,,,,,,,QUILL,HB,m,m,./images/QUILLHB.png,,,,,,,z,0,1.1863,,,,,,,,0,157,157,31,1
,,,,,,,,,,,,,,,,,198850,19,2022-01-28_16h22.06.820,lexical_decision_task_DD,2021.2.3,MacIntel,59.99880002,,,,,,,,,,,,0.6019,1,,,,,,,,,,,,,,,,,,,,,,,,-0.002573785,-0.143741319,0,0,0,,,,,,,CASINO,HB,z,m,./images/CASINOHB.png,,,,,,,z,1,0.6019,,,,,,,,0,158,158,112,1
,,,,,,,,,,,,,,,,,198850,19,2022-01-28_16h22.06.820,lexical_decision_task_DD,2021.2.3,MacIntel,59.99880002,,,,,,,,,,,,0.7368,1,,,,,,,,,,,,,,,,,,,,,,,,-0.002573785,-0.143741319,0,0,0,,,,,,,GRAPE,HB,z,m,./images/GRAPEHB.png,,,,,,,z,1,0.7368,,,,,,,,0,159,159,100,1
,,,,,,,,,,,,,,,,,198850,19,2022-01-28_16h22.06.820,lexical_decision_task_DD,2021.2.3,MacIntel,59.99880002,,,,,,,,,,,,4.9853,1,,,,,,,,,,,,,,,,,,,,,,,,-0.002573785,-0.143741319,0,0,0,,,,,,,SNACK,HB,m,m,./images/SNACKHB.png,,,,,,,m,1,4.9853,,,,,,,,0,160,160,73,1
,,,,,,,,,,,,,,,,,198850,19,2022-01-28_16h22.06.820,lexical_decision_task_DD,2021.2.3,MacIntel,59.99880002,,,,,,,,,,,,1.0179,0,,,,,,,,,,,,,,,,,,,,,,,,-0.002573785,-0.143741319,0,0,0,,,,,,,PIMPLE,LB,m,m,./images/PIMPLELB.png,,,,,,,z,0,1.0179,,,,,,,,0,161,161,71,1
,,,,,,,,,,,,,,,,,198850,19,2022-01-28_16h22.06.820,lexical_decision_task_DD,2021.2.3,MacIntel,59.99880002,,,,,,,,,,,,0.7668,1,,,,,,,,,,,,,,,,,,,,,,,,-0.002573785,-0.143741319,0,0,0,,,,,,,PILOT,LB,z,m,./images/PILOTLB.png,,,,,,,z,1,0.7668,,,,,,,,0,162,162,134,1
,,,,,,,,,,,,,,,,,198850,19,2022-01-28_16h22.06.820,lexical_decision_task_DD,2021.2.3,MacIntel,59.99880002,,,,,,,,,,,,0.9686,1,,,,,,,,,,,,,,,,,,,,,,,,-0.002573785,-0.143741319,0,0,0,,,,,,,BASKET,LB,z,m,./images/BASKETLB.png,,,,,,,z,1,0.9686,,,,,,,,0,163,163,128,1
,,,,,,,,,,,,,,,,,198850,19,2022-01-28_16h22.06.820,lexical_decision_task_DD,2021.2.3,MacIntel,59.99880002,,,,,,,,,,,,0.8674,1,,,,,,,,,,,,,,,,,,,,,,,,-0.002573785,-0.143741319,0,0,0,,,,,,,DIVER,C,z,m,./images/DIVER.png,,,,,,,z,1,0.8674,,,,,,,,0,164,164,93,1
,,,,,,,,,,,,,,,,,198850,19,2022-01-28_16h22.06.820,lexical_decision_task_DD,2021.2.3,MacIntel,59.99880002,,,,,,,,,,,,0.9346,1,,,,,,,,,,,,,,,,,,,,,,,,-0.002573785,-0.143741319,0,0,0,,,,,,,FLASK,C,z,m,./images/FLASK.png,,,,,,,z,1,0.9346,,,,,,,,0,165,165,156,1
,,,,,,,,,,,,,,,,,198850,19,2022-01-28_16h22.06.820,lexical_decision_task_DD,2021.2.3,MacIntel,59.99880002,,,,,,,,,,,,0.8351,1,,,,,,,,,,,,,,,,,,,,,,,,-0.002573785,-0.143741319,0,0,0,,,,,,,BOXER,HB,z,m,./images/BOXERHB.png,,,,,,,z,1,0.8351,,,,,,,,0,166,166,88,1
,,,,,,,,,,,,,,,,,198850,19,2022-01-28_16h22.06.820,lexical_decision_task_DD,2021.2.3,MacIntel,59.99880002,,,,,,,,,,,,0.9197,1,,,,,,,,,,,,,,,,,,,,,,,,-0.002573785,-0.143741319,0,0,0,,,,,,,SAUCE,C,z,m,./images/SAUCE.png,,,,,,,z,1,0.9197,,,,,,,,0,167,167,135,1
