key_resp.keys,key_resp.rt,instr_done_touch.x,instr_done_touch.y,instr_done_touch.leftButton,instr_done_touch.midButton,instr_done_touch.rightButton,instruction_pages.thisRepN,instruction_pages.thisTrialN,instruction_pages.thisN,instruction_pages.thisIndex,instruction_pages.ran,pageN,phase,instruct_text,has_image,instruct_image,participant,age,date,expName,psychopyVersion,OS,frameRate,response.keys,response.corr,response.rt,touch_resp.x,touch_resp.y,touch_resp.leftButton,touch_resp.midButton,touch_resp.rightButton,touch_resp.time,touch_resp.clicked_name,rt,corr,practrials.thisRepN,practrials.thisTrialN,practrials.thisN,practrials.thisIndex,practrials.ran,TrialID,Target,corrAns,instr_done_touch.clicked_name,end_of_practice_trials_pages.thisRepN,end_of_practice_trials_pages.thisTrialN,end_of_practice_trials_pages.thisN,end_of_practice_trials_pages.thisIndex,end_of_practice_trials_pages.ran,key_resp_2.keys,key_resp_2.corr,key_resp_2.rt,targ_click.x,targ_click.y,targ_click.leftButton,targ_click.midButton,targ_click.rightButton,targ_click.time,targ_click.clicked_name,break_done_touch.x,break_done_touch.y,break_done_touch.leftButton,break_done_touch.midButton,break_done_touch.rightButton,break_done_keyboard.keys,maintrials.thisRepN,maintrials.thisTrialN,maintrials.thisN,maintrials.thisIndex,maintrials.ran,string,blur,study,lex,stim_path,break_done_keyboard.rt,test_instructions.thisRepN,test_instructions.thisTrialN,test_instructions.thisN,test_instructions.thisIndex,test_instructions.ran,key_resp_3.keys,key_resp_3.corr,key_resp_3.rt,test_click.x,test_click.y,test_click.leftButton,test_click.midButton,test_click.rightButton,test_click.time,test_click.clicked_name,test_phase.thisRepN,test_phase.thisTrialN,test_phase.thisN,test_phase.thisIndex,test_phase.ran
space,125.3781,-0.139814804,-0.40000007,0,0,0,0,0,0,0,1,1,instructions,"INSTRUCTIONS
At the start of each trial, look at the plus sign  (+) in the center of the screen.  This tells you that a trial is about to begin and where to look. Second, the plus sign will disappear and a string of letters will appear. Your task is to determine if the string of letters is a word or not. If the item is a word press the M key (on keyboard)  or touch the word button (phone/tablet).  If the item is not a word,  press the  Z key (on keyboard)  or touch the nonword button (on phone/tablet). 
Press the space bar or touch  continue.",0,,198865,18,2022-01-29_09h06.33.420,lexical_decision_task_DD_L6,2021.2.3,Win32,143.9884809,,,,,,,,,,,,,,,,,,,,,,,,,,,,,,,,,,,,,,,,,,,,,,,,,,,,,,,,,,,,,,,,,,,,,,,,,
space,2.9885,-0.082407395,0.107407402,0,0,0,0,1,1,1,1,2,instructions,"If your device has a keyboard, press the 'Z' key for nonwords and the 'M' key for words.





Press the space bar or touch the button below to continue.",0,keyboard-example.gif,198865,18,2022-01-29_09h06.33.420,lexical_decision_task_DD_L6,2021.2.3,Win32,143.9884809,,,,,,,,,,,,,,,,,,,,,,,,,,,,,,,,,,,,,,,,,,,,,,,,,,,,,,,,,,,,,,,,,,,,,,,,,
space,2.7802,-0.082407395,0.107407402,0,0,0,0,2,2,2,1,3,instructions,"If you are using a touchscreen only device, use the buttons on the screen. Do not use the mouse.





Press the space bar or touch the button below to continue.",0,touchscreen-example.gif,198865,18,2022-01-29_09h06.33.420,lexical_decision_task_DD_L6,2021.2.3,Win32,143.9884809,,,,,,,,,,,,,,,,,,,,,,,,,,,,,,,,,,,,,,,,,,,,,,,,,,,,,,,,,,,,,,,,,,,,,,,,,
space,7.834,0.107407422,-0.08148149,0,0,0,0,3,3,3,1,4,instructions,"It is very important that you respond as quickly and accurately as possible, as each letter string will only be on the screen for two seconds. If you do not respond within this time, the message 'Too slow!' will be displayed and the experiment will progress to the next letter string. The first 20 trials will be practice trials and you will receive feedback on your answers. 

Press the space bar or touch the button below to start the practice trials.",0,,198865,18,2022-01-29_09h06.33.420,lexical_decision_task_DD_L6,2021.2.3,Win32,143.9884809,,,,,,,,,,,,,,,,,,,,,,,,,,,,,,,,,,,,,,,,,,,,,,,,,,,,,,,,,,,,,,,,,,,,,,,,,
,,,,,,,,,,,,,,,,,198865,18,2022-01-29_09h06.33.420,lexical_decision_task_DD_L6,2021.2.3,Win32,143.9884809,m,1,1.3957,,,,,,,,1.3957,1,0,0,0,3,1,1001,MATRIX,m,,,,,,,,,,,,,,,,,,,,,,,,,,,,,,,,,,,,,,,,,,,,,,,,,,,,,
,,,,,,,,,,,,,,,,,198865,18,2022-01-29_09h06.33.420,lexical_decision_task_DD_L6,2021.2.3,Win32,143.9884809,m,0,2.5521,,,,,,,,2.5521,0,0,1,1,13,1,1001,ROUPET,z,,,,,,,,,,,,,,,,,,,,,,,,,,,,,,,,,,,,,,,,,,,,,,,,,,,,,
,,,,,,,,,,,,,,,,,198865,18,2022-01-29_09h06.33.420,lexical_decision_task_DD_L6,2021.2.3,Win32,143.9884809,m,1,0.9424,,,,,,,,0.9424,1,0,2,2,4,1,1001,SQUEAK,m,,,,,,,,,,,,,,,,,,,,,,,,,,,,,,,,,,,,,,,,,,,,,,,,,,,,,
,,,,,,,,,,,,,,,,,198865,18,2022-01-29_09h06.33.420,lexical_decision_task_DD_L6,2021.2.3,Win32,143.9884809,z,1,0.7551,,,,,,,,0.7551,1,0,3,3,15,1,1001,WHAISE,z,,,,,,,,,,,,,,,,,,,,,,,,,,,,,,,,,,,,,,,,,,,,,,,,,,,,,
,,,,,,,,,,,,,,,,,198865,18,2022-01-29_09h06.33.420,lexical_decision_task_DD_L6,2021.2.3,Win32,143.9884809,m,1,0.6892,,,,,,,,0.6892,1,0,4,4,7,1,1001,VOLUME,m,,,,,,,,,,,,,,,,,,,,,,,,,,,,,,,,,,,,,,,,,,,,,,,,,,,,,
,,,,,,,,,,,,,,,,,198865,18,2022-01-29_09h06.33.420,lexical_decision_task_DD_L6,2021.2.3,Win32,143.9884809,m,1,0.6005,,,,,,,,0.6005,1,0,5,5,1,1,1001,ADJUST,m,,,,,,,,,,,,,,,,,,,,,,,,,,,,,,,,,,,,,,,,,,,,,,,,,,,,,
,,,,,,,,,,,,,,,,,198865,18,2022-01-29_09h06.33.420,lexical_decision_task_DD_L6,2021.2.3,Win32,143.9884809,m,1,0.6376,,,,,,,,0.6376,1,0,6,6,0,1,1001,UTOPIA,m,,,,,,,,,,,,,,,,,,,,,,,,,,,,,,,,,,,,,,,,,,,,,,,,,,,,,
,,,,,,,,,,,,,,,,,198865,18,2022-01-29_09h06.33.420,lexical_decision_task_DD_L6,2021.2.3,Win32,143.9884809,z,1,0.7682,,,,,,,,0.7682,1,0,7,7,8,1,1001,ASLERT,z,,,,,,,,,,,,,,,,,,,,,,,,,,,,,,,,,,,,,,,,,,,,,,,,,,,,,
,,,,,,,,,,,,,,,,,198865,18,2022-01-29_09h06.33.420,lexical_decision_task_DD_L6,2021.2.3,Win32,143.9884809,z,1,0.7503,,,,,,,,0.7503,1,0,8,8,10,1,1001,INLADE,z,,,,,,,,,,,,,,,,,,,,,,,,,,,,,,,,,,,,,,,,,,,,,,,,,,,,,
,,,,,,,,,,,,,,,,,198865,18,2022-01-29_09h06.33.420,lexical_decision_task_DD_L6,2021.2.3,Win32,143.9884809,m,1,0.6462,,,,,,,,0.6462,1,0,9,9,2,1,1001,ALMOND,m,,,,,,,,,,,,,,,,,,,,,,,,,,,,,,,,,,,,,,,,,,,,,,,,,,,,,
,,,,,,,,,,,,,,,,,198865,18,2022-01-29_09h06.33.420,lexical_decision_task_DD_L6,2021.2.3,Win32,143.9884809,z,1,0.6516,,,,,,,,0.6516,1,0,10,10,11,1,1001,RASHET,z,,,,,,,,,,,,,,,,,,,,,,,,,,,,,,,,,,,,,,,,,,,,,,,,,,,,,
,,,,,,,,,,,,,,,,,198865,18,2022-01-29_09h06.33.420,lexical_decision_task_DD_L6,2021.2.3,Win32,143.9884809,z,1,0.7048,,,,,,,,0.7048,1,0,11,11,9,1,1001,FARINY,z,,,,,,,,,,,,,,,,,,,,,,,,,,,,,,,,,,,,,,,,,,,,,,,,,,,,,
,,,,,,,,,,,,,,,,,198865,18,2022-01-29_09h06.33.420,lexical_decision_task_DD_L6,2021.2.3,Win32,143.9884809,m,1,0.5438,,,,,,,,0.5438,1,0,12,12,5,1,1001,OBTAIN,m,,,,,,,,,,,,,,,,,,,,,,,,,,,,,,,,,,,,,,,,,,,,,,,,,,,,,
,,,,,,,,,,,,,,,,,198865,18,2022-01-29_09h06.33.420,lexical_decision_task_DD_L6,2021.2.3,Win32,143.9884809,z,1,0.5474,,,,,,,,0.5474,1,0,13,13,14,1,1001,THRALE,z,,,,,,,,,,,,,,,,,,,,,,,,,,,,,,,,,,,,,,,,,,,,,,,,,,,,,
,,,,,,,,,,,,,,,,,198865,18,2022-01-29_09h06.33.420,lexical_decision_task_DD_L6,2021.2.3,Win32,143.9884809,m,1,0.4645,,,,,,,,0.4645,1,0,14,14,6,1,1001,ZOMBIE,m,,,,,,,,,,,,,,,,,,,,,,,,,,,,,,,,,,,,,,,,,,,,,,,,,,,,,
,,,,,,,,,,,,,,,,,198865,18,2022-01-29_09h06.33.420,lexical_decision_task_DD_L6,2021.2.3,Win32,143.9884809,m,0,0.4982,,,,,,,,0.4982,0,0,15,15,12,1,1001,SPRINY,z,,,,,,,,,,,,,,,,,,,,,,,,,,,,,,,,,,,,,,,,,,,,,,,,,,,,,
,,0.053703718,-0.39537044,1,0,0,,,,,,1,end_of_practice,"You have completed the practice trials. During the experimental trials, you will not receive feedback. 
Before you begin, please ensure that you are in a comfortable and quiet location and will not be disturbed for about 15 minutes, as we cannot use your data if you do not complete all the trials. 
 When you are ready to start the experimental trials, please press space or touch the button below.",,,198865,18,2022-01-29_09h06.33.420,lexical_decision_task_DD_L6,2021.2.3,Win32,143.9884809,,,,,,,,,,,,,,,,,,,,,instr_done_button,0,0,0,0,1,,,,,,,,,,,,,,,,,,,,,,,,,,,,,,,,,,,,,,,,,,,,,,,
,,,,,,,,,,,,,,,,,198865,18,2022-01-29_09h06.33.420,lexical_decision_task_DD_L6,2021.2.3,Win32,143.9884809,,,,,,,,,,,2.3693,0,,,,,,,,,,,,,,,z,0,2.3693,,,,,,,,-0.031481469,-0.181481492,0,0,0,,0,0,0,74,1,JUMPER,HB,old,m,./images/JUMPERHB.png,,,,,,,,,,,,,,,,,,,,,
,,,,,,,,,,,,,,,,,198865,18,2022-01-29_09h06.33.420,lexical_decision_task_DD_L6,2021.2.3,Win32,143.9884809,,,,,,,,,,,1.0138,1,,,,,,,,,,,,,,,z,1,1.0138,,,,,,,,-0.031481469,-0.181481492,0,0,0,,0,1,1,140,1,DOVET,LB,old,z,./images/DOVETLB.png,,,,,,,,,,,,,,,,,,,,,
,,,,,,,,,,,,,,,,,198865,18,2022-01-29_09h06.33.420,lexical_decision_task_DD_L6,2021.2.3,Win32,143.9884809,,,,,,,,,,,0.7015,1,,,,,,,,,,,,,,,m,1,0.7015,,,,,,,,-0.031481469,-0.181481492,0,0,0,,0,2,2,0,1,WALNUT,LB,old,m,./images/WALNUTLB.png,,,,,,,,,,,,,,,,,,,,,
,,,,,,,,,,,,,,,,,198865,18,2022-01-29_09h06.33.420,lexical_decision_task_DD_L6,2021.2.3,Win32,143.9884809,,,,,,,,,,,0.7065,1,,,,,,,,,,,,,,,z,1,0.7065,,,,,,,,-0.031481469,-0.181481492,0,0,0,,0,3,3,165,1,TROWN,C,old,z,./images/TROWN.png,,,,,,,,,,,,,,,,,,,,,
,,,,,,,,,,,,,,,,,198865,18,2022-01-29_09h06.33.420,lexical_decision_task_DD_L6,2021.2.3,Win32,143.9884809,,,,,,,,,,,0.8977,1,,,,,,,,,,,,,,,z,1,0.8977,,,,,,,,-0.031481469,-0.181481492,0,0,0,,0,4,4,99,1,BACKY,C,old,z,./images/BACKY.png,,,,,,,,,,,,,,,,,,,,,
,,,,,,,,,,,,,,,,,198865,18,2022-01-29_09h06.33.420,lexical_decision_task_DD_L6,2021.2.3,Win32,143.9884809,,,,,,,,,,,1.2723,1,,,,,,,,,,,,,,,z,1,1.2723,,,,,,,,-0.031481469,-0.181481492,0,0,0,,0,5,5,146,1,MOOST,LB,old,z,./images/MOOSTLB.png,,,,,,,,,,,,,,,,,,,,,
,,,,,,,,,,,,,,,,,198865,18,2022-01-29_09h06.33.420,lexical_decision_task_DD_L6,2021.2.3,Win32,143.9884809,,,,,,,,,,,2.2014,0,,,,,,,,,,,,,,,z,0,2.2014,,,,,,,,-0.031481469,-0.181481492,0,0,0,,0,6,6,78,1,BROOM,LB,old,m,./images/BROOMLB.png,,,,,,,,,,,,,,,,,,,,,
,,,,,,,,,,,,,,,,,198865,18,2022-01-29_09h06.33.420,lexical_decision_task_DD_L6,2021.2.3,Win32,143.9884809,,,,,,,,,,,0.6728,1,,,,,,,,,,,,,,,m,1,0.6728,,,,,,,,-0.031481469,-0.181481492,0,0,0,,0,7,7,39,1,CANDY,LB,old,m,./images/CANDYLB.png,,,,,,,,,,,,,,,,,,,,,
,,,,,,,,,,,,,,,,,198865,18,2022-01-29_09h06.33.420,lexical_decision_task_DD_L6,2021.2.3,Win32,143.9884809,,,,,,,,,,,0.8397,1,,,,,,,,,,,,,,,z,1,0.8397,,,,,,,,-0.031481469,-0.181481492,0,0,0,,0,8,8,126,1,GUELS,C,old,z,./images/GUELS.png,,,,,,,,,,,,,,,,,,,,,
,,,,,,,,,,,,,,,,,198865,18,2022-01-29_09h06.33.420,lexical_decision_task_DD_L6,2021.2.3,Win32,143.9884809,,,,,,,,,,,0.9203,1,,,,,,,,,,,,,,,m,1,0.9203,,,,,,,,-0.031481469,-0.181481492,0,0,0,,0,9,9,14,1,FENCE,HB,old,m,./images/FENCEHB.png,,,,,,,,,,,,,,,,,,,,,
,,,,,,,,,,,,,,,,,198865,18,2022-01-29_09h06.33.420,lexical_decision_task_DD_L6,2021.2.3,Win32,143.9884809,,,,,,,,,,,0.7337,1,,,,,,,,,,,,,,,m,1,0.7337,,,,,,,,-0.031481469,-0.181481492,0,0,0,,0,10,10,82,1,PEBBLE,C,old,m,./images/PEBBLE.png,,,,,,,,,,,,,,,,,,,,,
,,,,,,,,,,,,,,,,,198865,18,2022-01-29_09h06.33.420,lexical_decision_task_DD_L6,2021.2.3,Win32,143.9884809,,,,,,,,,,,1.8125,1,,,,,,,,,,,,,,,z,1,1.8125,,,,,,,,-0.031481469,-0.181481492,0,0,0,,0,11,11,97,1,CHIDS,HB,old,z,./images/CHIDSHB.png,,,,,,,,,,,,,,,,,,,,,
,,,,,,,,,,,,,,,,,198865,18,2022-01-29_09h06.33.420,lexical_decision_task_DD_L6,2021.2.3,Win32,143.9884809,,,,,,,,,,,0.5843,1,,,,,,,,,,,,,,,m,1,0.5843,,,,,,,,-0.031481469,-0.181481492,0,0,0,,0,12,12,13,1,BUNNY,C,old,m,./images/BUNNY.png,,,,,,,,,,,,,,,,,,,,,
,,,,,,,,,,,,,,,,,198865,18,2022-01-29_09h06.33.420,lexical_decision_task_DD_L6,2021.2.3,Win32,143.9884809,,,,,,,,,,,0.7154,1,,,,,,,,,,,,,,,z,1,0.7154,,,,,,,,-0.031481469,-0.181481492,0,0,0,,0,13,13,102,1,DULLE,C,old,z,./images/DULLE.png,,,,,,,,,,,,,,,,,,,,,
,,,,,,,,,,,,,,,,,198865,18,2022-01-29_09h06.33.420,lexical_decision_task_DD_L6,2021.2.3,Win32,143.9884809,,,,,,,,,,,1.7094,1,,,,,,,,,,,,,,,z,1,1.7094,,,,,,,,-0.031481469,-0.181481492,0,0,0,,0,14,14,106,1,CLUMS,HB,old,z,./images/CLUMSHB.png,,,,,,,,,,,,,,,,,,,,,
,,,,,,,,,,,,,,,,,198865,18,2022-01-29_09h06.33.420,lexical_decision_task_DD_L6,2021.2.3,Win32,143.9884809,,,,,,,,,,,0.5908,1,,,,,,,,,,,,,,,m,1,0.5908,,,,,,,,-0.031481469,-0.181481492,0,0,0,,0,15,15,79,1,RULER,C,old,m,./images/RULER.png,,,,,,,,,,,,,,,,,,,,,
,,,,,,,,,,,,,,,,,198865,18,2022-01-29_09h06.33.420,lexical_decision_task_DD_L6,2021.2.3,Win32,143.9884809,,,,,,,,,,,0.7445,1,,,,,,,,,,,,,,,m,1,0.7445,,,,,,,,-0.031481469,-0.181481492,0,0,0,,0,16,16,2,1,STOVE,HB,old,m,./images/STOVEHB.png,,,,,,,,,,,,,,,,,,,,,
,,,,,,,,,,,,,,,,,198865,18,2022-01-29_09h06.33.420,lexical_decision_task_DD_L6,2021.2.3,Win32,143.9884809,,,,,,,,,,,0.7195,1,,,,,,,,,,,,,,,m,1,0.7195,,,,,,,,-0.031481469,-0.181481492,0,0,0,,0,17,17,23,1,CLOTH,HB,old,m,./images/CLOTHHB.png,,,,,,,,,,,,,,,,,,,,,
,,,,,,,,,,,,,,,,,198865,18,2022-01-29_09h06.33.420,lexical_decision_task_DD_L6,2021.2.3,Win32,143.9884809,,,,,,,,,,,0.8207,1,,,,,,,,,,,,,,,z,1,0.8207,,,,,,,,-0.031481469,-0.181481492,0,0,0,,0,18,18,122,1,BLOOT,LB,old,z,./images/BLOOTLB.png,,,,,,,,,,,,,,,,,,,,,
,,,,,,,,,,,,,,,,,198865,18,2022-01-29_09h06.33.420,lexical_decision_task_DD_L6,2021.2.3,Win32,143.9884809,,,,,,,,,,,2.0964,1,,,,,,,,,,,,,,,z,1,2.0964,,,,,,,,-0.031481469,-0.181481492,0,0,0,,0,19,19,94,1,BLANS,HB,old,z,./images/BLANSHB.png,,,,,,,,,,,,,,,,,,,,,
,,,,,,,,,,,,,,,,,198865,18,2022-01-29_09h06.33.420,lexical_decision_task_DD_L6,2021.2.3,Win32,143.9884809,,,,,,,,,,,1.096,1,,,,,,,,,,,,,,,z,1,1.096,,,,,,,,-0.031481469,-0.181481492,0,0,0,,0,20,20,112,1,MYING,HB,old,z,./images/MYINGHB.png,,,,,,,,,,,,,,,,,,,,,
,,,,,,,,,,,,,,,,,198865,18,2022-01-29_09h06.33.420,lexical_decision_task_DD_L6,2021.2.3,Win32,143.9884809,,,,,,,,,,,0.8813,1,,,,,,,,,,,,,,,m,1,0.8813,,,,,,,,-0.031481469,-0.181481492,0,0,0,,0,21,21,56,1,HEATER,HB,old,m,./images/HEATERHB.png,,,,,,,,,,,,,,,,,,,,,
,,,,,,,,,,,,,,,,,198865,18,2022-01-29_09h06.33.420,lexical_decision_task_DD_L6,2021.2.3,Win32,143.9884809,,,,,,,,,,,0.8523,1,,,,,,,,,,,,,,,m,1,0.8523,,,,,,,,-0.031481469,-0.181481492,0,0,0,,0,22,22,11,1,MEDAL,HB,old,m,./images/MEDALHB.png,,,,,,,,,,,,,,,,,,,,,
,,,,,,,,,,,,,,,,,198865,18,2022-01-29_09h06.33.420,lexical_decision_task_DD_L6,2021.2.3,Win32,143.9884809,,,,,,,,,,,0.807,1,,,,,,,,,,,,,,,z,1,0.807,,,,,,,,-0.031481469,-0.181481492,0,0,0,,0,23,23,98,1,BAMPS,LB,old,z,./images/BAMPSLB.png,,,,,,,,,,,,,,,,,,,,,
,,,,,,,,,,,,,,,,,198865,18,2022-01-29_09h06.33.420,lexical_decision_task_DD_L6,2021.2.3,Win32,143.9884809,,,,,,,,,,,0.6955,1,,,,,,,,,,,,,,,m,1,0.6955,,,,,,,,-0.031481469,-0.181481492,0,0,0,,0,24,24,81,1,DRILL,LB,old,m,./images/DRILLLB.png,,,,,,,,,,,,,,,,,,,,,
,,,,,,,,,,,,,,,,,198865,18,2022-01-29_09h06.33.420,lexical_decision_task_DD_L6,2021.2.3,Win32,143.9884809,,,,,,,,,,,0.6679,1,,,,,,,,,,,,,,,m,1,0.6679,,,,,,,,-0.031481469,-0.181481492,0,0,0,,0,25,25,42,1,CHAIN,LB,old,m,./images/CHAINLB.png,,,,,,,,,,,,,,,,,,,,,
,,,,,,,,,,,,,,,,,198865,18,2022-01-29_09h06.33.420,lexical_decision_task_DD_L6,2021.2.3,Win32,143.9884809,,,,,,,,,,,1.6524,0,,,,,,,,,,,,,,,z,0,1.6524,,,,,,,,-0.031481469,-0.181481492,0,0,0,,0,26,26,5,1,BAMBOO,HB,old,m,./images/BAMBOOHB.png,,,,,,,,,,,,,,,,,,,,,
,,,,,,,,,,,,,,,,,198865,18,2022-01-29_09h06.33.420,lexical_decision_task_DD_L6,2021.2.3,Win32,143.9884809,,,,,,,,,,,0.8054,1,,,,,,,,,,,,,,,z,1,0.8054,,,,,,,,-0.031481469,-0.181481492,0,0,0,,0,27,27,105,1,MOKER,C,old,z,./images/MOKER.png,,,,,,,,,,,,,,,,,,,,,
,,,,,,,,,,,,,,,,,198865,18,2022-01-29_09h06.33.420,lexical_decision_task_DD_L6,2021.2.3,Win32,143.9884809,,,,,,,,,,,1.0488,1,,,,,,,,,,,,,,,m,1,1.0488,,,,,,,,-0.031481469,-0.181481492,0,0,0,,0,28,28,59,1,BRUSH,HB,old,m,./images/BRUSHHB.png,,,,,,,,,,,,,,,,,,,,,
,,,,,,,,,,,,,,,,,198865,18,2022-01-29_09h06.33.420,lexical_decision_task_DD_L6,2021.2.3,Win32,143.9884809,,,,,,,,,,,1.2975,1,,,,,,,,,,,,,,,z,1,1.2975,,,,,,,,-0.031481469,-0.181481492,0,0,0,,0,29,29,127,1,NINDY,HB,old,z,./images/NINDYHB.png,,,,,,,,,,,,,,,,,,,,,
,,,,,,,,,,,,,,,,,198865,18,2022-01-29_09h06.33.420,lexical_decision_task_DD_L6,2021.2.3,Win32,143.9884809,,,,,,,,,,,0.8177,1,,,,,,,,,,,,,,,z,1,0.8177,,,,,,,,-0.031481469,-0.181481492,0,0,0,,0,30,30,155,1,CANGY,LB,old,z,./images/CANGYLB.png,,,,,,,,,,,,,,,,,,,,,
,,,,,,,,,,,,,,,,,198865,18,2022-01-29_09h06.33.420,lexical_decision_task_DD_L6,2021.2.3,Win32,143.9884809,,,,,,,,,,,0.8598,1,,,,,,,,,,,,,,,m,1,0.8598,,,,,,,,-0.031481469,-0.181481492,0,0,0,,0,31,31,65,1,SPINE,HB,old,m,./images/SPINEHB.png,,,,,,,,,,,,,,,,,,,,,
,,,,,,,,,,,,,,,,,198865,18,2022-01-29_09h06.33.420,lexical_decision_task_DD_L6,2021.2.3,Win32,143.9884809,,,,,,,,,,,0.9357,1,,,,,,,,,,,,,,,z,1,0.9357,,,,,,,,-0.031481469,-0.181481492,0,0,0,,0,32,32,130,1,CRILL,HB,old,z,./images/CRILLHB.png,,,,,,,,,,,,,,,,,,,,,
,,,,,,,,,,,,,,,,,198865,18,2022-01-29_09h06.33.420,lexical_decision_task_DD_L6,2021.2.3,Win32,143.9884809,,,,,,,,,,,0.8273,1,,,,,,,,,,,,,,,z,1,0.8273,,,,,,,,-0.031481469,-0.181481492,0,0,0,,0,33,33,162,1,LEICH,C,old,z,./images/LEICH.png,,,,,,,,,,,,,,,,,,,,,
,,,,,,,,,,,,,,,,,198865,18,2022-01-29_09h06.33.420,lexical_decision_task_DD_L6,2021.2.3,Win32,143.9884809,,,,,,,,,,,0.6292,1,,,,,,,,,,,,,,,m,1,0.6292,,,,,,,,-0.031481469,-0.181481492,0,0,0,,0,34,34,28,1,CASINO,C,old,m,./images/CASINO.png,,,,,,,,,,,,,,,,,,,,,
,,,,,,,,,,,,,,,,,198865,18,2022-01-29_09h06.33.420,lexical_decision_task_DD_L6,2021.2.3,Win32,143.9884809,,,,,,,,,,,2.3624,1,,,,,,,,,,,,,,,m,1,2.3624,,,,,,,,-0.031481469,-0.181481492,0,0,0,,0,35,35,20,1,GRANNY,HB,old,m,./images/GRANNYHB.png,,,,,,,,,,,,,,,,,,,,,
,,,,,,,,,,,,,,,,,198865,18,2022-01-29_09h06.33.420,lexical_decision_task_DD_L6,2021.2.3,Win32,143.9884809,,,,,,,,,,,1.0648,1,,,,,,,,,,,,,,,m,1,1.0648,,,,,,,,-0.031481469,-0.181481492,0,0,0,,0,36,36,58,1,CANOE,C,old,m,./images/CANOE.png,,,,,,,,,,,,,,,,,,,,,
,,,,,,,,,,,,,,,,,198865,18,2022-01-29_09h06.33.420,lexical_decision_task_DD_L6,2021.2.3,Win32,143.9884809,,,,,,,,,,,0.7716,1,,,,,,,,,,,,,,,z,1,0.7716,,,,,,,,-0.031481469,-0.181481492,0,0,0,,0,37,37,143,1,MONGS,LB,old,z,./images/MONGSLB.png,,,,,,,,,,,,,,,,,,,,,
,,,,,,,,,,,,,,,,,198865,18,2022-01-29_09h06.33.420,lexical_decision_task_DD_L6,2021.2.3,Win32,143.9884809,,,,,,,,,,,1.4516,1,,,,,,,,,,,,,,,z,1,1.4516,,,,,,,,-0.031481469,-0.181481492,0,0,0,,0,38,38,88,1,GLUSH,HB,old,z,./images/GLUSHHB.png,,,,,,,,,,,,,,,,,,,,,
,,,,,,,,,,,,,,,,,198865,18,2022-01-29_09h06.33.420,lexical_decision_task_DD_L6,2021.2.3,Win32,143.9884809,,,,,,,,,,,1.7597,1,,,,,,,,,,,,,,,z,1,1.7597,,,,,,,,-0.031481469,-0.181481492,0,0,0,,0,39,39,154,1,THINT,HB,old,z,./images/THINTHB.png,,,,,,,,,,,,,,,,,,,,,
,,,,,,,,,,,,,,,,,198865,18,2022-01-29_09h06.33.420,lexical_decision_task_DD_L6,2021.2.3,Win32,143.9884809,,,,,,,,,,,1.8059,1,,,,,,,,,,,,,,,z,1,1.8059,,,,,,,,-0.031481469,-0.181481492,0,0,0,,0,40,40,115,1,MAWNS,HB,old,z,./images/MAWNSHB.png,,,,,,,,,,,,,,,,,,,,,
,,,,,,,,,,,,,,,,,198865,18,2022-01-29_09h06.33.420,lexical_decision_task_DD_L6,2021.2.3,Win32,143.9884809,,,,,,,,,,,0.6375,1,,,,,,,,,,,,,,,m,1,0.6375,,,,,,,,-0.016666597,-0.39166668,0,0,0,space,0,41,41,63,1,BAKER,LB,old,m,./images/BAKERLB.png,6.0522,,,,,,,,,,,,,,,,,,,,
,,,,,,,,,,,,,,,,,198865,18,2022-01-29_09h06.33.420,lexical_decision_task_DD_L6,2021.2.3,Win32,143.9884809,,,,,,,,,,,1.3749,1,,,,,,,,,,,,,,,z,1,1.3749,,,,,,,,-0.016666597,-0.39166668,0,0,0,,0,42,42,139,1,BLEAR,HB,old,z,./images/BLEARHB.png,,,,,,,,,,,,,,,,,,,,,
,,,,,,,,,,,,,,,,,198865,18,2022-01-29_09h06.33.420,lexical_decision_task_DD_L6,2021.2.3,Win32,143.9884809,,,,,,,,,,,1.7317,1,,,,,,,,,,,,,,,z,1,1.7317,,,,,,,,-0.016666597,-0.39166668,0,0,0,,0,43,43,157,1,INLER,HB,old,z,./images/INLERHB.png,,,,,,,,,,,,,,,,,,,,,
,,,,,,,,,,,,,,,,,198865,18,2022-01-29_09h06.33.420,lexical_decision_task_DD_L6,2021.2.3,Win32,143.9884809,,,,,,,,,,,0.8313,1,,,,,,,,,,,,,,,m,1,0.8313,,,,,,,,-0.016666597,-0.39166668,0,0,0,,0,44,44,7,1,WAGON,C,old,m,./images/WAGON.png,,,,,,,,,,,,,,,,,,,,,
,,,,,,,,,,,,,,,,,198865,18,2022-01-29_09h06.33.420,lexical_decision_task_DD_L6,2021.2.3,Win32,143.9884809,,,,,,,,,,,0.7992,1,,,,,,,,,,,,,,,z,1,0.7992,,,,,,,,-0.016666597,-0.39166668,0,0,0,,0,45,45,135,1,JOODY,C,old,z,./images/JOODY.png,,,,,,,,,,,,,,,,,,,,,
,,,,,,,,,,,,,,,,,198865,18,2022-01-29_09h06.33.420,lexical_decision_task_DD_L6,2021.2.3,Win32,143.9884809,,,,,,,,,,,0.8967,1,,,,,,,,,,,,,,,z,1,0.8967,,,,,,,,-0.016666597,-0.39166668,0,0,0,,0,46,46,123,1,SEDGE,C,old,z,./images/SEDGE.png,,,,,,,,,,,,,,,,,,,,,
,,,,,,,,,,,,,,,,,198865,18,2022-01-29_09h06.33.420,lexical_decision_task_DD_L6,2021.2.3,Win32,143.9884809,,,,,,,,,,,0.8112,1,,,,,,,,,,,,,,,z,1,0.8112,,,,,,,,-0.016666597,-0.39166668,0,0,0,,0,47,47,149,1,VEASE,LB,old,z,./images/VEASELB.png,,,,,,,,,,,,,,,,,,,,,
,,,,,,,,,,,,,,,,,198865,18,2022-01-29_09h06.33.420,lexical_decision_task_DD_L6,2021.2.3,Win32,143.9884809,,,,,,,,,,,0.8757,1,,,,,,,,,,,,,,,z,1,0.8757,,,,,,,,-0.016666597,-0.39166668,0,0,0,,0,48,48,167,1,ZONET,LB,old,z,./images/ZONETLB.png,,,,,,,,,,,,,,,,,,,,,
,,,,,,,,,,,,,,,,,198865,18,2022-01-29_09h06.33.420,lexical_decision_task_DD_L6,2021.2.3,Win32,143.9884809,,,,,,,,,,,1.8156,1,,,,,,,,,,,,,,,z,1,1.8156,,,,,,,,-0.016666597,-0.39166668,0,0,0,,0,49,49,166,1,SHORY,HB,old,z,./images/SHORYHB.png,,,,,,,,,,,,,,,,,,,,,
,,,,,,,,,,,,,,,,,198865,18,2022-01-29_09h06.33.420,lexical_decision_task_DD_L6,2021.2.3,Win32,143.9884809,,,,,,,,,,,0.7498,1,,,,,,,,,,,,,,,m,1,0.7498,,,,,,,,-0.016666597,-0.39166668,0,0,0,,0,50,50,60,1,CURRY,LB,old,m,./images/CURRYLB.png,,,,,,,,,,,,,,,,,,,,,
,,,,,,,,,,,,,,,,,198865,18,2022-01-29_09h06.33.420,lexical_decision_task_DD_L6,2021.2.3,Win32,143.9884809,,,,,,,,,,,0.9149,1,,,,,,,,,,,,,,,m,1,0.9149,,,,,,,,-0.016666597,-0.39166668,0,0,0,,0,51,51,35,1,LLAMA,HB,old,m,./images/LLAMAHB.png,,,,,,,,,,,,,,,,,,,,,
,,,,,,,,,,,,,,,,,198865,18,2022-01-29_09h06.33.420,lexical_decision_task_DD_L6,2021.2.3,Win32,143.9884809,,,,,,,,,,,1.2348,1,,,,,,,,,,,,,,,z,1,1.2348,,,,,,,,-0.016666597,-0.39166668,0,0,0,,0,52,52,153,1,CLUPS,C,old,z,./images/CLUPS.png,,,,,,,,,,,,,,,,,,,,,
,,,,,,,,,,,,,,,,,198865,18,2022-01-29_09h06.33.420,lexical_decision_task_DD_L6,2021.2.3,Win32,143.9884809,,,,,,,,,,,0.567,1,,,,,,,,,,,,,,,m,1,0.567,,,,,,,,-0.016666597,-0.39166668,0,0,0,,0,53,53,73,1,GLOVE,C,old,m,./images/GLOVE.png,,,,,,,,,,,,,,,,,,,,,
,,,,,,,,,,,,,,,,,198865,18,2022-01-29_09h06.33.420,lexical_decision_task_DD_L6,2021.2.3,Win32,143.9884809,,,,,,,,,,,2.4921,1,,,,,,,,,,,,,,,z,1,2.4921,,,,,,,,-0.016666597,-0.39166668,0,0,0,,0,54,54,104,1,GITTY,LB,old,z,./images/GITTYLB.png,,,,,,,,,,,,,,,,,,,,,
,,,,,,,,,,,,,,,,,198865,18,2022-01-29_09h06.33.420,lexical_decision_task_DD_L6,2021.2.3,Win32,143.9884809,,,,,,,,,,,1.0029,1,,,,,,,,,,,,,,,z,1,1.0029,,,,,,,,-0.016666597,-0.39166668,0,0,0,,0,55,55,103,1,FLORT,HB,old,z,./images/FLORTHB.png,,,,,,,,,,,,,,,,,,,,,
,,,,,,,,,,,,,,,,,198865,18,2022-01-29_09h06.33.420,lexical_decision_task_DD_L6,2021.2.3,Win32,143.9884809,,,,,,,,,,,2.3242,1,,,,,,,,,,,,,,,z,1,2.3242,,,,,,,,-0.016666597,-0.39166668,0,0,0,,0,56,56,145,1,LAMEL,HB,old,z,./images/LAMELHB.png,,,,,,,,,,,,,,,,,,,,,
,,,,,,,,,,,,,,,,,198865,18,2022-01-29_09h06.33.420,lexical_decision_task_DD_L6,2021.2.3,Win32,143.9884809,,,,,,,,,,,1.3797,1,,,,,,,,,,,,,,,z,1,1.3797,,,,,,,,-0.016666597,-0.39166668,0,0,0,,0,57,57,142,1,PLASK,HB,old,z,./images/PLASKHB.png,,,,,,,,,,,,,,,,,,,,,
,,,,,,,,,,,,,,,,,198865,18,2022-01-29_09h06.33.420,lexical_decision_task_DD_L6,2021.2.3,Win32,143.9884809,,,,,,,,,,,0.8218,1,,,,,,,,,,,,,,,z,1,0.8218,,,,,,,,-0.016666597,-0.39166668,0,0,0,,0,58,58,92,1,PAIMS,LB,old,z,./images/PAIMSLB.png,,,,,,,,,,,,,,,,,,,,,
,,,,,,,,,,,,,,,,,198865,18,2022-01-29_09h06.33.420,lexical_decision_task_DD_L6,2021.2.3,Win32,143.9884809,,,,,,,,,,,0.6834,1,,,,,,,,,,,,,,,m,1,0.6834,,,,,,,,-0.016666597,-0.39166668,0,0,0,,0,59,59,25,1,CHALK,C,old,m,./images/CHALK.png,,,,,,,,,,,,,,,,,,,,,
,,,,,,,,,,,,,,,,,198865,18,2022-01-29_09h06.33.420,lexical_decision_task_DD_L6,2021.2.3,Win32,143.9884809,,,,,,,,,,,0.8037,1,,,,,,,,,,,,,,,m,1,0.8037,,,,,,,,-0.016666597,-0.39166668,0,0,0,,0,60,60,43,1,STOOL,C,old,m,./images/STOOL.png,,,,,,,,,,,,,,,,,,,,,
,,,,,,,,,,,,,,,,,198865,18,2022-01-29_09h06.33.420,lexical_decision_task_DD_L6,2021.2.3,Win32,143.9884809,,,,,,,,,,,1.9259,0,,,,,,,,,,,,,,,m,0,1.9259,,,,,,,,-0.016666597,-0.39166668,0,0,0,,0,61,61,114,1,RIKES,C,old,z,./images/RIKES.png,,,,,,,,,,,,,,,,,,,,,
,,,,,,,,,,,,,,,,,198865,18,2022-01-29_09h06.33.420,lexical_decision_task_DD_L6,2021.2.3,Win32,143.9884809,,,,,,,,,,,0.7256,1,,,,,,,,,,,,,,,z,1,0.7256,,,,,,,,-0.016666597,-0.39166668,0,0,0,,0,62,62,134,1,TROSS,LB,old,z,./images/TROSSLB.png,,,,,,,,,,,,,,,,,,,,,
,,,,,,,,,,,,,,,,,198865,18,2022-01-29_09h06.33.420,lexical_decision_task_DD_L6,2021.2.3,Win32,143.9884809,,,,,,,,,,,0.753,1,,,,,,,,,,,,,,,z,1,0.753,,,,,,,,-0.016666597,-0.39166668,0,0,0,,0,63,63,101,1,GLEET,LB,old,z,./images/GLEETLB.png,,,,,,,,,,,,,,,,,,,,,
,,,,,,,,,,,,,,,,,198865,18,2022-01-29_09h06.33.420,lexical_decision_task_DD_L6,2021.2.3,Win32,143.9884809,,,,,,,,,,,0.6707,1,,,,,,,,,,,,,,,m,1,0.6707,,,,,,,,-0.016666597,-0.39166668,0,0,0,,0,64,64,16,1,GRAPE,C,old,m,./images/GRAPE.png,,,,,,,,,,,,,,,,,,,,,
,,,,,,,,,,,,,,,,,198865,18,2022-01-29_09h06.33.420,lexical_decision_task_DD_L6,2021.2.3,Win32,143.9884809,,,,,,,,,,,0.6531,1,,,,,,,,,,,,,,,m,1,0.6531,,,,,,,,-0.016666597,-0.39166668,0,0,0,,0,65,65,75,1,HAMMER,LB,old,m,./images/HAMMERLB.png,,,,,,,,,,,,,,,,,,,,,
,,,,,,,,,,,,,,,,,198865,18,2022-01-29_09h06.33.420,lexical_decision_task_DD_L6,2021.2.3,Win32,143.9884809,,,,,,,,,,,1.8723,1,,,,,,,,,,,,,,,z,1,1.8723,,,,,,,,-0.016666597,-0.39166668,0,0,0,,0,66,66,136,1,WERVE,HB,old,z,./images/WERVEHB.png,,,,,,,,,,,,,,,,,,,,,
,,,,,,,,,,,,,,,,,198865,18,2022-01-29_09h06.33.420,lexical_decision_task_DD_L6,2021.2.3,Win32,143.9884809,,,,,,,,,,,1.4818,1,,,,,,,,,,,,,,,m,1,1.4818,,,,,,,,-0.016666597,-0.39166668,0,0,0,,0,67,67,47,1,LAGOON,HB,old,m,./images/LAGOONHB.png,,,,,,,,,,,,,,,,,,,,,
,,,,,,,,,,,,,,,,,198865,18,2022-01-29_09h06.33.420,lexical_decision_task_DD_L6,2021.2.3,Win32,143.9884809,,,,,,,,,,,0.7237,1,,,,,,,,,,,,,,,m,1,0.7237,,,,,,,,-0.016666597,-0.39166668,0,0,0,,0,68,68,15,1,COLLAR,LB,old,m,./images/COLLARLB.png,,,,,,,,,,,,,,,,,,,,,
,,,,,,,,,,,,,,,,,198865,18,2022-01-29_09h06.33.420,lexical_decision_task_DD_L6,2021.2.3,Win32,143.9884809,,,,,,,,,,,0.8447,1,,,,,,,,,,,,,,,m,1,0.8447,,,,,,,,-0.016666597,-0.39166668,0,0,0,,0,69,69,38,1,ENGINE,HB,old,m,./images/ENGINEHB.png,,,,,,,,,,,,,,,,,,,,,
,,,,,,,,,,,,,,,,,198865,18,2022-01-29_09h06.33.420,lexical_decision_task_DD_L6,2021.2.3,Win32,143.9884809,,,,,,,,,,,1.4902,1,,,,,,,,,,,,,,,z,1,1.4902,,,,,,,,-0.016666597,-0.39166668,0,0,0,,0,70,70,164,1,SGREW,LB,old,z,./images/SGREWLB.png,,,,,,,,,,,,,,,,,,,,,
,,,,,,,,,,,,,,,,,198865,18,2022-01-29_09h06.33.420,lexical_decision_task_DD_L6,2021.2.3,Win32,143.9884809,,,,,,,,,,,0.6418,1,,,,,,,,,,,,,,,m,1,0.6418,,,,,,,,-0.016666597,-0.39166668,0,0,0,,0,71,71,21,1,DANCER,LB,old,m,./images/DANCERLB.png,,,,,,,,,,,,,,,,,,,,,
,,,,,,,,,,,,,,,,,198865,18,2022-01-29_09h06.33.420,lexical_decision_task_DD_L6,2021.2.3,Win32,143.9884809,,,,,,,,,,,1.1995,1,,,,,,,,,,,,,,,z,1,1.1995,,,,,,,,-0.016666597,-0.39166668,0,0,0,,0,72,72,128,1,GRIFT,LB,old,z,./images/GRIFTLB.png,,,,,,,,,,,,,,,,,,,,,
,,,,,,,,,,,,,,,,,198865,18,2022-01-29_09h06.33.420,lexical_decision_task_DD_L6,2021.2.3,Win32,143.9884809,,,,,,,,,,,0.5602,1,,,,,,,,,,,,,,,m,1,0.5602,,,,,,,,-0.016666597,-0.39166668,0,0,0,,0,73,73,24,1,FLESH,LB,old,m,./images/FLESHLB.png,,,,,,,,,,,,,,,,,,,,,
,,,,,,,,,,,,,,,,,198865,18,2022-01-29_09h06.33.420,lexical_decision_task_DD_L6,2021.2.3,Win32,143.9884809,,,,,,,,,,,0.7176,1,,,,,,,,,,,,,,,m,1,0.7176,,,,,,,,-0.016666597,-0.39166668,0,0,0,,0,74,74,46,1,MUMMY,C,old,m,./images/MUMMY.png,,,,,,,,,,,,,,,,,,,,,
,,,,,,,,,,,,,,,,,198865,18,2022-01-29_09h06.33.420,lexical_decision_task_DD_L6,2021.2.3,Win32,143.9884809,,,,,,,,,,,0.6439,1,,,,,,,,,,,,,,,m,1,0.6439,,,,,,,,-0.016666597,-0.39166668,0,0,0,,0,75,75,22,1,CLOWN,C,old,m,./images/CLOWN.png,,,,,,,,,,,,,,,,,,,,,
,,,,,,,,,,,,,,,,,198865,18,2022-01-29_09h06.33.420,lexical_decision_task_DD_L6,2021.2.3,Win32,143.9884809,,,,,,,,,,,1.0601,1,,,,,,,,,,,,,,,z,1,1.0601,,,,,,,,-0.016666597,-0.39166668,0,0,0,,0,76,76,148,1,JOMS,HB,old,z,./images/JOMSHB.png,,,,,,,,,,,,,,,,,,,,,
,,,,,,,,,,,,,,,,,198865,18,2022-01-29_09h06.33.420,lexical_decision_task_DD_L6,2021.2.3,Win32,143.9884809,,,,,,,,,,,0.7271,1,,,,,,,,,,,,,,,z,1,0.7271,,,,,,,,-0.016666597,-0.39166668,0,0,0,,0,77,77,111,1,HOSSE,C,old,z,./images/HOSSE.png,,,,,,,,,,,,,,,,,,,,,
,,,,,,,,,,,,,,,,,198865,18,2022-01-29_09h06.33.420,lexical_decision_task_DD_L6,2021.2.3,Win32,143.9884809,,,,,,,,,,,0.5345,1,,,,,,,,,,,,,,,m,1,0.5345,,,,,,,,-0.016666597,-0.39166668,0,0,0,,0,78,78,1,1,TOWEL,C,old,m,./images/TOWEL.png,,,,,,,,,,,,,,,,,,,,,
,,,,,,,,,,,,,,,,,198865,18,2022-01-29_09h06.33.420,lexical_decision_task_DD_L6,2021.2.3,Win32,143.9884809,,,,,,,,,,,0.6801,1,,,,,,,,,,,,,,,z,1,0.6801,,,,,,,,-0.016666597,-0.39166668,0,0,0,,0,79,79,95,1,HANTY,LB,old,z,./images/HANTYLB.png,,,,,,,,,,,,,,,,,,,,,
,,,,,,,,,,,,,,,,,198865,18,2022-01-29_09h06.33.420,lexical_decision_task_DD_L6,2021.2.3,Win32,143.9884809,,,,,,,,,,,0.6806,1,,,,,,,,,,,,,,,m,1,0.6806,,,,,,,,-0.016666597,-0.39166668,0,0,0,,0,80,80,26,1,CLOUD,HB,old,m,./images/CLOUDHB.png,,,,,,,,,,,,,,,,,,,,,
,,,,,,,,,,,,,,,,,198865,18,2022-01-29_09h06.33.420,lexical_decision_task_DD_L6,2021.2.3,Win32,143.9884809,,,,,,,,,,,0.6662,1,,,,,,,,,,,,,,,z,1,0.6662,,,,,,,,-0.016666597,-0.39166668,0,0,0,,0,81,81,131,1,NACES,LB,old,z,./images/NACESLB.png,,,,,,,,,,,,,,,,,,,,,
,,,,,,,,,,,,,,,,,198865,18,2022-01-29_09h06.33.420,lexical_decision_task_DD_L6,2021.2.3,Win32,143.9884809,,,,,,,,,,,1.8209,1,,,,,,,,,,,,,,,z,1,1.8209,,,,,,,,-0.016666597,-0.39166668,0,0,0,,0,82,82,100,1,DRIBS,HB,old,z,./images/DRIBSHB.png,,,,,,,,,,,,,,,,,,,,,
,,,,,,,,,,,,,,,,,198865,18,2022-01-29_09h06.33.420,lexical_decision_task_DD_L6,2021.2.3,Win32,143.9884809,,,,,,,,,,,1.2113,1,,,,,,,,,,,,,,,z,1,1.2113,,,,,,,,-0.027777765,-0.499074089,0,0,0,space,0,83,83,110,1,CRUNK,LB,old,z,./images/CRUNKLB.png,1.7802,,,,,,,,,,,,,,,,,,,,
,,,,,,,,,,,,,,,,,198865,18,2022-01-29_09h06.33.420,lexical_decision_task_DD_L6,2021.2.3,Win32,143.9884809,,,,,,,,,,,1.0539,1,,,,,,,,,,,,,,,m,1,1.0539,,,,,,,,-0.027777765,-0.499074089,0,0,0,,0,84,84,53,1,POSTER,HB,old,m,./images/POSTERHB.png,,,,,,,,,,,,,,,,,,,,,
,,,,,,,,,,,,,,,,,198865,18,2022-01-29_09h06.33.420,lexical_decision_task_DD_L6,2021.2.3,Win32,143.9884809,,,,,,,,,,,1.5987,1,,,,,,,,,,,,,,,m,1,1.5987,,,,,,,,-0.027777765,-0.499074089,0,0,0,,0,85,85,32,1,HOCKEY,HB,old,m,./images/HOCKEYHB.png,,,,,,,,,,,,,,,,,,,,,
,,,,,,,,,,,,,,,,,198865,18,2022-01-29_09h06.33.420,lexical_decision_task_DD_L6,2021.2.3,Win32,143.9884809,,,,,,,,,,,0.6791,1,,,,,,,,,,,,,,,z,1,0.6791,,,,,,,,-0.027777765,-0.499074089,0,0,0,,0,86,86,161,1,BLAPS,LB,old,z,./images/BLAPSLB.png,,,,,,,,,,,,,,,,,,,,,
,,,,,,,,,,,,,,,,,198865,18,2022-01-29_09h06.33.420,lexical_decision_task_DD_L6,2021.2.3,Win32,143.9884809,,,,,,,,,,,3.8402,1,,,,,,,,,,,,,,,z,1,3.8402,,,,,,,,-0.027777765,-0.499074089,0,0,0,,0,87,87,113,1,LINEW,LB,old,z,./images/LINEWLB.png,,,,,,,,,,,,,,,,,,,,,
,,,,,,,,,,,,,,,,,198865,18,2022-01-29_09h06.33.420,lexical_decision_task_DD_L6,2021.2.3,Win32,143.9884809,,,,,,,,,,,1.9016,1,,,,,,,,,,,,,,,z,1,1.9016,,,,,,,,-0.027777765,-0.499074089,0,0,0,,0,88,88,124,1,TUNCH,HB,old,z,./images/TUNCHHB.png,,,,,,,,,,,,,,,,,,,,,
,,,,,,,,,,,,,,,,,198865,18,2022-01-29_09h06.33.420,lexical_decision_task_DD_L6,2021.2.3,Win32,143.9884809,,,,,,,,,,,0.5186,1,,,,,,,,,,,,,,,m,1,0.5186,,,,,,,,-0.027777765,-0.499074089,0,0,0,,0,89,89,10,1,GARDEN,C,old,m,./images/GARDEN.png,,,,,,,,,,,,,,,,,,,,,
,,,,,,,,,,,,,,,,,198865,18,2022-01-29_09h06.33.420,lexical_decision_task_DD_L6,2021.2.3,Win32,143.9884809,,,,,,,,,,,0.5136,1,,,,,,,,,,,,,,,m,1,0.5136,,,,,,,,-0.027777765,-0.499074089,0,0,0,,0,90,90,52,1,DESERT,C,old,m,./images/DESERT.png,,,,,,,,,,,,,,,,,,,,,
,,,,,,,,,,,,,,,,,198865,18,2022-01-29_09h06.33.420,lexical_decision_task_DD_L6,2021.2.3,Win32,143.9884809,,,,,,,,,,,0.7411,1,,,,,,,,,,,,,,,z,1,0.7411,,,,,,,,-0.027777765,-0.499074089,0,0,0,,0,91,91,150,1,NOOLS,C,old,z,./images/NOOLS.png,,,,,,,,,,,,,,,,,,,,,
,,,,,,,,,,,,,,,,,198865,18,2022-01-29_09h06.33.420,lexical_decision_task_DD_L6,2021.2.3,Win32,143.9884809,,,,,,,,,,,1.7994,1,,,,,,,,,,,,,,,m,1,1.7994,,,,,,,,-0.027777765,-0.499074089,0,0,0,,0,92,92,17,1,PARADE,HB,old,m,./images/PARADEHB.png,,,,,,,,,,,,,,,,,,,,,
,,,,,,,,,,,,,,,,,198865,18,2022-01-29_09h06.33.420,lexical_decision_task_DD_L6,2021.2.3,Win32,143.9884809,,,,,,,,,,,2.1824,1,,,,,,,,,,,,,,,z,1,2.1824,,,,,,,,-0.027777765,-0.499074089,0,0,0,,0,93,93,163,1,GAMBA,HB,old,z,./images/GAMBAHB.png,,,,,,,,,,,,,,,,,,,,,
,,,,,,,,,,,,,,,,,198865,18,2022-01-29_09h06.33.420,lexical_decision_task_DD_L6,2021.2.3,Win32,143.9884809,,,,,,,,,,,1.5158,1,,,,,,,,,,,,,,,z,1,1.5158,,,,,,,,-0.027777765,-0.499074089,0,0,0,,0,94,94,151,1,TINKY,HB,old,z,./images/TINKYHB.png,,,,,,,,,,,,,,,,,,,,,
,,,,,,,,,,,,,,,,,198865,18,2022-01-29_09h06.33.420,lexical_decision_task_DD_L6,2021.2.3,Win32,143.9884809,,,,,,,,,,,0.6616,1,,,,,,,,,,,,,,,m,1,0.6616,,,,,,,,-0.027777765,-0.499074089,0,0,0,,0,95,95,3,1,CRATER,LB,old,m,./images/CRATERLB.png,,,,,,,,,,,,,,,,,,,,,
,,,,,,,,,,,,,,,,,198865,18,2022-01-29_09h06.33.420,lexical_decision_task_DD_L6,2021.2.3,Win32,143.9884809,,,,,,,,,,,2.2625,1,,,,,,,,,,,,,,,m,1,2.2625,,,,,,,,-0.027777765,-0.499074089,0,0,0,,0,96,96,44,1,BASKET,HB,old,m,./images/BASKETHB.png,,,,,,,,,,,,,,,,,,,,,
,,,,,,,,,,,,,,,,,198865,18,2022-01-29_09h06.33.420,lexical_decision_task_DD_L6,2021.2.3,Win32,143.9884809,,,,,,,,,,,0.6104,1,,,,,,,,,,,,,,,m,1,0.6104,,,,,,,,-0.027777765,-0.499074089,0,0,0,,0,97,97,27,1,BUTTER,LB,old,m,./images/BUTTERLB.png,,,,,,,,,,,,,,,,,,,,,
,,,,,,,,,,,,,,,,,198865,18,2022-01-29_09h06.33.420,lexical_decision_task_DD_L6,2021.2.3,Win32,143.9884809,,,,,,,,,,,1.015,1,,,,,,,,,,,,,,,z,1,1.015,,,,,,,,-0.027777765,-0.499074089,0,0,0,,0,98,98,156,1,HIXES,C,old,z,./images/HIXES.png,,,,,,,,,,,,,,,,,,,,,
,,,,,,,,,,,,,,,,,198865,18,2022-01-29_09h06.33.420,lexical_decision_task_DD_L6,2021.2.3,Win32,143.9884809,,,,,,,,,,,0.9515,1,,,,,,,,,,,,,,,z,1,0.9515,,,,,,,,-0.027777765,-0.499074089,0,0,0,,0,99,99,160,1,VEETS,HB,old,z,./images/VEETSHB.png,,,,,,,,,,,,,,,,,,,,,
,,,,,,,,,,,,,,,,,198865,18,2022-01-29_09h06.33.420,lexical_decision_task_DD_L6,2021.2.3,Win32,143.9884809,,,,,,,,,,,0.7066,1,,,,,,,,,,,,,,,z,1,0.7066,,,,,,,,-0.027777765,-0.499074089,0,0,0,,0,100,100,132,1,SCIFF,C,old,z,./images/SCIFF.png,,,,,,,,,,,,,,,,,,,,,
,,,,,,,,,,,,,,,,,198865,18,2022-01-29_09h06.33.420,lexical_decision_task_DD_L6,2021.2.3,Win32,143.9884809,,,,,,,,,,,0.7699,1,,,,,,,,,,,,,,,m,1,0.7699,,,,,,,,-0.027777765,-0.499074089,0,0,0,,0,101,101,8,1,CLIFF,HB,old,m,./images/CLIFFHB.png,,,,,,,,,,,,,,,,,,,,,
,,,,,,,,,,,,,,,,,198865,18,2022-01-29_09h06.33.420,lexical_decision_task_DD_L6,2021.2.3,Win32,143.9884809,,,,,,,,,,,0.8886,1,,,,,,,,,,,,,,,z,1,0.8886,,,,,,,,-0.027777765,-0.499074089,0,0,0,,0,102,102,144,1,NAIRY,C,old,z,./images/NAIRY.png,,,,,,,,,,,,,,,,,,,,,
,,,,,,,,,,,,,,,,,198865,18,2022-01-29_09h06.33.420,lexical_decision_task_DD_L6,2021.2.3,Win32,143.9884809,,,,,,,,,,,0.8671,1,,,,,,,,,,,,,,,z,1,0.8671,,,,,,,,-0.027777765,-0.499074089,0,0,0,,0,103,103,158,1,EGECT,LB,old,z,./images/EGECTLB.png,,,,,,,,,,,,,,,,,,,,,
,,,,,,,,,,,,,,,,,198865,18,2022-01-29_09h06.33.420,lexical_decision_task_DD_L6,2021.2.3,Win32,143.9884809,,,,,,,,,,,0.5891,1,,,,,,,,,,,,,,,m,1,0.5891,,,,,,,,-0.027777765,-0.499074089,0,0,0,,0,104,104,9,1,DIVER,LB,old,m,./images/DIVERLB.png,,,,,,,,,,,,,,,,,,,,,
,,,,,,,,,,,,,,,,,198865,18,2022-01-29_09h06.33.420,lexical_decision_task_DD_L6,2021.2.3,Win32,143.9884809,,,,,,,,,,,0.5544,1,,,,,,,,,,,,,,,m,1,0.5544,,,,,,,,-0.027777765,-0.499074089,0,0,0,,0,105,105,51,1,SAUCE,LB,old,m,./images/SAUCELB.png,,,,,,,,,,,,,,,,,,,,,
,,,,,,,,,,,,,,,,,198865,18,2022-01-29_09h06.33.420,lexical_decision_task_DD_L6,2021.2.3,Win32,143.9884809,,,,,,,,,,,0.7289,1,,,,,,,,,,,,,,,z,1,0.7289,,,,,,,,-0.027777765,-0.499074089,0,0,0,,0,106,106,93,1,SMONE,C,old,z,./images/SMONE.png,,,,,,,,,,,,,,,,,,,,,
,,,,,,,,,,,,,,,,,198865,18,2022-01-29_09h06.33.420,lexical_decision_task_DD_L6,2021.2.3,Win32,143.9884809,,,,,,,,,,,0.6599,1,,,,,,,,,,,,,,,z,1,0.6599,,,,,,,,-0.027777765,-0.499074089,0,0,0,,0,107,107,147,1,ZOLES,C,old,z,./images/ZOLES.png,,,,,,,,,,,,,,,,,,,,,
,,,,,,,,,,,,,,,,,198865,18,2022-01-29_09h06.33.420,lexical_decision_task_DD_L6,2021.2.3,Win32,143.9884809,,,,,,,,,,,1.0313,1,,,,,,,,,,,,,,,z,1,1.0313,,,,,,,,-0.027777765,-0.499074089,0,0,0,,0,108,108,85,1,CHULK,HB,old,z,./images/CHULKHB.png,,,,,,,,,,,,,,,,,,,,,
,,,,,,,,,,,,,,,,,198865,18,2022-01-29_09h06.33.420,lexical_decision_task_DD_L6,2021.2.3,Win32,143.9884809,,,,,,,,,,,0.6407,1,,,,,,,,,,,,,,,z,1,0.6407,,,,,,,,-0.027777765,-0.499074089,0,0,0,,0,109,109,87,1,TRING,C,old,z,./images/TRING.png,,,,,,,,,,,,,,,,,,,,,
,,,,,,,,,,,,,,,,,198865,18,2022-01-29_09h06.33.420,lexical_decision_task_DD_L6,2021.2.3,Win32,143.9884809,,,,,,,,,,,0.6478,1,,,,,,,,,,,,,,,m,1,0.6478,,,,,,,,-0.027777765,-0.499074089,0,0,0,,0,110,110,64,1,BRIDE,C,old,m,./images/BRIDE.png,,,,,,,,,,,,,,,,,,,,,
,,,,,,,,,,,,,,,,,198865,18,2022-01-29_09h06.33.420,lexical_decision_task_DD_L6,2021.2.3,Win32,143.9884809,,,,,,,,,,,0.8554,1,,,,,,,,,,,,,,,z,1,0.8554,,,,,,,,-0.027777765,-0.499074089,0,0,0,,0,111,111,118,1,BAVEL,HB,old,z,./images/BAVELHB.png,,,,,,,,,,,,,,,,,,,,,
,,,,,,,,,,,,,,,,,198865,18,2022-01-29_09h06.33.420,lexical_decision_task_DD_L6,2021.2.3,Win32,143.9884809,,,,,,,,,,,0.6509,1,,,,,,,,,,,,,,,z,1,0.6509,,,,,,,,-0.025925857,-0.47592594,0,0,0,,0,112,112,96,1,KEAMS,C,old,z,./images/KEAMS.png,,,,,,,,,,,,,,,,,,,,,
,,,,,,,,,,,,,,,,,198865,18,2022-01-29_09h06.33.420,lexical_decision_task_DD_L6,2021.2.3,Win32,143.9884809,,,,,,,,,,,0.9793,1,,,,,,,,,,,,,,,m,1,0.9793,,,,,,,,-0.025925857,-0.47592594,0,0,0,,0,113,113,29,1,PISTOL,HB,old,m,./images/PISTOLHB.png,,,,,,,,,,,,,,,,,,,,,
,,,,,,,,,,,,,,,,,198865,18,2022-01-29_09h06.33.420,lexical_decision_task_DD_L6,2021.2.3,Win32,143.9884809,,,,,,,,,,,0.6045,1,,,,,,,,,,,,,,,m,1,0.6045,,,,,,,,-0.025925857,-0.47592594,0,0,0,,0,114,114,69,1,ARROW,LB,old,m,./images/ARROWLB.png,,,,,,,,,,,,,,,,,,,,,
,,,,,,,,,,,,,,,,,198865,18,2022-01-29_09h06.33.420,lexical_decision_task_DD_L6,2021.2.3,Win32,143.9884809,,,,,,,,,,,0.7096,1,,,,,,,,,,,,,,,z,1,0.7096,,,,,,,,-0.025925857,-0.47592594,0,0,0,,0,115,115,119,1,PAFER,LB,old,z,./images/PAFERLB.png,,,,,,,,,,,,,,,,,,,,,
,,,,,,,,,,,,,,,,,198865,18,2022-01-29_09h06.33.420,lexical_decision_task_DD_L6,2021.2.3,Win32,143.9884809,,,,,,,,,,,0.7694,1,,,,,,,,,,,,,,,z,1,0.7694,,,,,,,,-0.025925857,-0.47592594,0,0,0,,0,116,116,152,1,FRAIN,LB,old,z,./images/FRAINLB.png,,,,,,,,,,,,,,,,,,,,,
,,,,,,,,,,,,,,,,,198865,18,2022-01-29_09h06.33.420,lexical_decision_task_DD_L6,2021.2.3,Win32,143.9884809,,,,,,,,,,,0.7362,1,,,,,,,,,,,,,,,z,1,0.7362,,,,,,,,-0.025925857,-0.47592594,0,0,0,,0,117,117,86,1,AIFED,LB,old,z,./images/AIFEDLB.png,,,,,,,,,,,,,,,,,,,,,
,,,,,,,,,,,,,,,,,198865,18,2022-01-29_09h06.33.420,lexical_decision_task_DD_L6,2021.2.3,Win32,143.9884809,,,,,,,,,,,0.5738,1,,,,,,,,,,,,,,,m,1,0.5738,,,,,,,,-0.025925857,-0.47592594,0,0,0,,0,118,118,70,1,BANANA,C,old,m,./images/BANANA.png,,,,,,,,,,,,,,,,,,,,,
,,,,,,,,,,,,,,,,,198865,18,2022-01-29_09h06.33.420,lexical_decision_task_DD_L6,2021.2.3,Win32,143.9884809,,,,,,,,,,,0.6116,1,,,,,,,,,,,,,,,z,1,0.6116,,,,,,,,-0.025925857,-0.47592594,0,0,0,,0,119,119,107,1,FASKS,LB,old,z,./images/FASKSLB.png,,,,,,,,,,,,,,,,,,,,,
,,,,,,,,,,,,,,,,,198865,18,2022-01-29_09h06.33.420,lexical_decision_task_DD_L6,2021.2.3,Win32,143.9884809,,,,,,,,,,,0.5924,1,,,,,,,,,,,,,,,m,1,0.5924,,,,,,,,-0.025925857,-0.47592594,0,0,0,,0,120,120,30,1,SLOPE,LB,old,m,./images/SLOPELB.png,,,,,,,,,,,,,,,,,,,,,
,,,,,,,,,,,,,,,,,198865,18,2022-01-29_09h06.33.420,lexical_decision_task_DD_L6,2021.2.3,Win32,143.9884809,,,,,,,,,,,0.5427,1,,,,,,,,,,,,,,,z,1,0.5427,,,,,,,,-0.025925857,-0.47592594,0,0,0,,0,121,121,137,1,JOOST,LB,old,z,./images/JOOSTLB.png,,,,,,,,,,,,,,,,,,,,,
,,,,,,,,,,,,,,,,,198865,18,2022-01-29_09h06.33.420,lexical_decision_task_DD_L6,2021.2.3,Win32,143.9884809,,,,,,,,,,,0.5188,1,,,,,,,,,,,,,,,m,1,0.5188,,,,,,,,-0.025925857,-0.47592594,0,0,0,,0,122,122,34,1,RAZOR,C,old,m,./images/RAZOR.png,,,,,,,,,,,,,,,,,,,,,
,,,,,,,,,,,,,,,,,198865,18,2022-01-29_09h06.33.420,lexical_decision_task_DD_L6,2021.2.3,Win32,143.9884809,,,,,,,,,,,1.6182,1,,,,,,,,,,,,,,,z,1,1.6182,,,,,,,,-0.025925857,-0.47592594,0,0,0,,0,123,123,109,1,BURGE,HB,old,z,./images/BURGEHB.png,,,,,,,,,,,,,,,,,,,,,
,,,,,,,,,,,,,,,,,198865,18,2022-01-29_09h06.33.420,lexical_decision_task_DD_L6,2021.2.3,Win32,143.9884809,,,,,,,,,,,0.6907,1,,,,,,,,,,,,,,,z,1,0.6907,,,,,,,,-0.025925857,-0.47592594,0,0,0,,0,124,124,138,1,PLICE,C,old,z,./images/PLICE.png,,,,,,,,,,,,,,,,,,,,,
,,,,,,,,,,,,,,,,,198865,18,2022-01-29_09h06.33.420,lexical_decision_task_DD_L6,2021.2.3,Win32,143.9884809,,,,,,,,,,,0.5043,1,,,,,,,,,,,,,,,m,1,0.5043,,,,,,,,-0.025925857,-0.47592594,0,0,0,space,0,125,125,40,1,SNAKE,C,old,m,./images/SNAKE.png,1.4053,,,,,,,,,,,,,,,,,,,,
,,,,,,,,,,,,,,,,,198865,18,2022-01-29_09h06.33.420,lexical_decision_task_DD_L6,2021.2.3,Win32,143.9884809,,,,,,,,,,,0.6458,1,,,,,,,,,,,,,,,m,1,0.6458,,,,,,,,-0.025925857,-0.47592594,0,0,0,,0,126,126,50,1,PILOT,HB,old,m,./images/PILOTHB.png,,,,,,,,,,,,,,,,,,,,,
,,,,,,,,,,,,,,,,,198865,18,2022-01-29_09h06.33.420,lexical_decision_task_DD_L6,2021.2.3,Win32,143.9884809,,,,,,,,,,,0.9786,1,,,,,,,,,,,,,,,m,1,0.9786,,,,,,,,-0.025925857,-0.47592594,0,0,0,,0,127,127,83,1,WHISKY,HB,old,m,./images/WHISKYHB.png,,,,,,,,,,,,,,,,,,,,,
,,,,,,,,,,,,,,,,,198865,18,2022-01-29_09h06.33.420,lexical_decision_task_DD_L6,2021.2.3,Win32,143.9884809,,,,,,,,,,,0.5336,1,,,,,,,,,,,,,,,m,1,0.5336,,,,,,,,-0.025925857,-0.47592594,0,0,0,,0,128,128,45,1,MONKEY,LB,old,m,./images/MONKEYLB.png,,,,,,,,,,,,,,,,,,,,,
,,,,,,,,,,,,,,,,,198865,18,2022-01-29_09h06.33.420,lexical_decision_task_DD_L6,2021.2.3,Win32,143.9884809,,,,,,,,,,,1.5937,1,,,,,,,,,,,,,,,z,1,1.5937,,,,,,,,-0.025925857,-0.47592594,0,0,0,,0,129,129,121,1,CEERS,HB,old,z,./images/CEERSHB.png,,,,,,,,,,,,,,,,,,,,,
,,,,,,,,,,,,,,,,,198865,18,2022-01-29_09h06.33.420,lexical_decision_task_DD_L6,2021.2.3,Win32,143.9884809,,,,,,,,,,,0.6518,1,,,,,,,,,,,,,,,m,1,0.6518,,,,,,,,-0.025925857,-0.47592594,0,0,0,,0,130,130,66,1,STATUE,LB,old,m,./images/STATUELB.png,,,,,,,,,,,,,,,,,,,,,
,,,,,,,,,,,,,,,,,198865,18,2022-01-29_09h06.33.420,lexical_decision_task_DD_L6,2021.2.3,Win32,143.9884809,,,,,,,,,,,1.7456,1,,,,,,,,,,,,,,,m,1,1.7456,,,,,,,,-0.025925857,-0.47592594,0,0,0,,0,131,131,68,1,VALLEY,HB,old,m,./images/VALLEYHB.png,,,,,,,,,,,,,,,,,,,,,
,,,,,,,,,,,,,,,,,198865,18,2022-01-29_09h06.33.420,lexical_decision_task_DD_L6,2021.2.3,Win32,143.9884809,,,,,,,,,,,0.7239,1,,,,,,,,,,,,,,,m,1,0.7239,,,,,,,,-0.025925857,-0.47592594,0,0,0,,0,132,132,72,1,FLASK,LB,old,m,./images/FLASKLB.png,,,,,,,,,,,,,,,,,,,,,
,,,,,,,,,,,,,,,,,198865,18,2022-01-29_09h06.33.420,lexical_decision_task_DD_L6,2021.2.3,Win32,143.9884809,,,,,,,,,,,13.6679,1,,,,,,,,,,,,,,,m,1,13.6679,,,,,,,,-0.025925857,-0.47592594,0,0,0,,0,133,133,12,1,BLOKE,LB,old,m,./images/BLOKELB.png,,,,,,,,,,,,,,,,,,,,,
,,,,,,,,,,,,,,,,,198865,18,2022-01-29_09h06.33.420,lexical_decision_task_DD_L6,2021.2.3,Win32,143.9884809,,,,,,,,,,,1.0079,1,,,,,,,,,,,,,,,m,1,1.0079,,,,,,,,-0.025925857,-0.47592594,0,0,0,,0,134,134,18,1,PARCEL,LB,old,m,./images/PARCELLB.png,,,,,,,,,,,,,,,,,,,,,
,,,,,,,,,,,,,,,,,198865,18,2022-01-29_09h06.33.420,lexical_decision_task_DD_L6,2021.2.3,Win32,143.9884809,,,,,,,,,,,1.1467,0,,,,,,,,,,,,,,,m,0,1.1467,,,,,,,,-0.025925857,-0.47592594,0,0,0,,0,135,135,116,1,BALGY,LB,old,z,./images/BALGYLB.png,,,,,,,,,,,,,,,,,,,,,
,,,,,,,,,,,,,,,,,198865,18,2022-01-29_09h06.33.420,lexical_decision_task_DD_L6,2021.2.3,Win32,143.9884809,,,,,,,,,,,11.987,1,,,,,,,,,,,,,,,z,1,11.987,,,,,,,,-0.025925857,-0.47592594,0,0,0,,0,136,136,84,1,HAXES,C,old,z,./images/HAXES.png,,,,,,,,,,,,,,,,,,,,,
,,,,,,,,,,,,,,,,,198865,18,2022-01-29_09h06.33.420,lexical_decision_task_DD_L6,2021.2.3,Win32,143.9884809,,,,,,,,,,,1.0627,1,,,,,,,,,,,,,,,m,1,1.0627,,,,,,,,-0.025925857,-0.47592594,0,0,0,,0,137,137,76,1,MIDGET,C,old,m,./images/MIDGET.png,,,,,,,,,,,,,,,,,,,,,
,,,,,,,,,,,,,,,,,198865,18,2022-01-29_09h06.33.420,lexical_decision_task_DD_L6,2021.2.3,Win32,143.9884809,,,,,,,,,,,13.3952,1,,,,,,,,,,,,,,,z,1,13.3952,,,,,,,,-0.025925857,-0.47592594,0,0,0,,0,138,138,90,1,NEAST,C,old,z,./images/NEAST.png,,,,,,,,,,,,,,,,,,,,,
,,,,,,,,,,,,,,,,,198865,18,2022-01-29_09h06.33.420,lexical_decision_task_DD_L6,2021.2.3,Win32,143.9884809,,,,,,,,,,,10.9445,1,,,,,,,,,,,,,,,z,1,10.9445,,,,,,,,-0.025925857,-0.47592594,0,0,0,,0,139,139,141,1,PLEET,C,old,z,./images/PLEET.png,,,,,,,,,,,,,,,,,,,,,
,,,,,,,,,,,,,,,,,198865,18,2022-01-29_09h06.33.420,lexical_decision_task_DD_L6,2021.2.3,Win32,143.9884809,,,,,,,,,,,1.6036,1,,,,,,,,,,,,,,,m,1,1.6036,,,,,,,,-0.025925857,-0.47592594,0,0,0,,0,140,140,62,1,MAMMAL,HB,old,m,./images/MAMMALHB.png,,,,,,,,,,,,,,,,,,,,,
,,,,,,,,,,,,,,,,,198865,18,2022-01-29_09h06.33.420,lexical_decision_task_DD_L6,2021.2.3,Win32,143.9884809,,,,,,,,,,,0.7118,1,,,,,,,,,,,,,,,m,1,0.7118,,,,,,,,-0.025925857,-0.47592594,0,0,0,,0,141,141,33,1,SAUNA,LB,old,m,./images/SAUNALB.png,,,,,,,,,,,,,,,,,,,,,
,,,,,,,,,,,,,,,,,198865,18,2022-01-29_09h06.33.420,lexical_decision_task_DD_L6,2021.2.3,Win32,143.9884809,,,,,,,,,,,0.5776,1,,,,,,,,,,,,,,,m,1,0.5776,,,,,,,,-0.025925857,-0.47592594,0,0,0,,0,142,142,37,1,TIGER,C,old,m,./images/TIGER.png,,,,,,,,,,,,,,,,,,,,,
,,,,,,,,,,,,,,,,,198865,18,2022-01-29_09h06.33.420,lexical_decision_task_DD_L6,2021.2.3,Win32,143.9884809,,,,,,,,,,,12.17,1,,,,,,,,,,,,,,,z,1,12.17,,,,,,,,-0.025925857,-0.47592594,0,0,0,,0,143,143,125,1,MOOKY,LB,old,z,./images/MOOKYLB.png,,,,,,,,,,,,,,,,,,,,,
,,,,,,,,,,,,,,,,,198865,18,2022-01-29_09h06.33.420,lexical_decision_task_DD_L6,2021.2.3,Win32,143.9884809,,,,,,,,,,,1.5802,1,,,,,,,,,,,,,,,m,1,1.5802,,,,,,,,-0.025925857,-0.47592594,0,0,0,,0,144,144,36,1,BOILER,LB,old,m,./images/BOILERLB.png,,,,,,,,,,,,,,,,,,,,,
,,,,,,,,,,,,,,,,,198865,18,2022-01-29_09h06.33.420,lexical_decision_task_DD_L6,2021.2.3,Win32,143.9884809,,,,,,,,,,,10.2099,1,,,,,,,,,,,,,,,z,1,10.2099,,,,,,,,-0.025925857,-0.47592594,0,0,0,,0,145,145,91,1,SHENS,HB,old,z,./images/SHENSHB.png,,,,,,,,,,,,,,,,,,,,,
,,,,,,,,,,,,,,,,,198865,18,2022-01-29_09h06.33.420,lexical_decision_task_DD_L6,2021.2.3,Win32,143.9884809,,,,,,,,,,,1.0601,1,,,,,,,,,,,,,,,m,1,1.0601,,,,,,,,-0.025925857,-0.47592594,0,0,0,,0,146,146,55,1,ALLEY,C,old,m,./images/ALLEY.png,,,,,,,,,,,,,,,,,,,,,
,,,,,,,,,,,,,,,,,198865,18,2022-01-29_09h06.33.420,lexical_decision_task_DD_L6,2021.2.3,Win32,143.9884809,,,,,,,,,,,0.7371,1,,,,,,,,,,,,,,,m,1,0.7371,,,,,,,,-0.025925857,-0.47592594,0,0,0,,0,147,147,61,1,ARTIST,C,old,m,./images/ARTIST.png,,,,,,,,,,,,,,,,,,,,,
,,,,,,,,,,,,,,,,,198865,18,2022-01-29_09h06.33.420,lexical_decision_task_DD_L6,2021.2.3,Win32,143.9884809,,,,,,,,,,,0.9103,1,,,,,,,,,,,,,,,m,1,0.9103,,,,,,,,-0.025925857,-0.47592594,0,0,0,,0,148,148,19,1,DONKEY,C,old,m,./images/DONKEY.png,,,,,,,,,,,,,,,,,,,,,
,,,,,,,,,,,,,,,,,198865,18,2022-01-29_09h06.33.420,lexical_decision_task_DD_L6,2021.2.3,Win32,143.9884809,,,,,,,,,,,1.6013,1,,,,,,,,,,,,,,,m,1,1.6013,,,,,,,,-0.025925857,-0.47592594,0,0,0,,0,149,149,71,1,BUBBLE,HB,old,m,./images/BUBBLEHB.png,,,,,,,,,,,,,,,,,,,,,
,,,,,,,,,,,,,,,,,198865,18,2022-01-29_09h06.33.420,lexical_decision_task_DD_L6,2021.2.3,Win32,143.9884809,,,,,,,,,,,0.7223,1,,,,,,,,,,,,,,,m,1,0.7223,,,,,,,,-0.025925857,-0.47592594,0,0,0,,0,150,150,4,1,BOXER,C,old,m,./images/BOXER.png,,,,,,,,,,,,,,,,,,,,,
,,,,,,,,,,,,,,,,,198865,18,2022-01-29_09h06.33.420,lexical_decision_task_DD_L6,2021.2.3,Win32,143.9884809,,,,,,,,,,,0.7063,1,,,,,,,,,,,,,,,z,1,0.7063,,,,,,,,-0.025925857,-0.47592594,0,0,0,,0,151,151,117,1,STEEG,C,old,z,./images/STEEG.png,,,,,,,,,,,,,,,,,,,,,
,,,,,,,,,,,,,,,,,198865,18,2022-01-29_09h06.33.420,lexical_decision_task_DD_L6,2021.2.3,Win32,143.9884809,,,,,,,,,,,0.6591,1,,,,,,,,,,,,,,,z,1,0.6591,,,,,,,,-0.025925857,-0.47592594,0,0,0,,0,152,152,108,1,GRUET,C,old,z,./images/GRUET.png,,,,,,,,,,,,,,,,,,,,,
,,,,,,,,,,,,,,,,,198865,18,2022-01-29_09h06.33.420,lexical_decision_task_DD_L6,2021.2.3,Win32,143.9884809,,,,,,,,,,,0.7834,1,,,,,,,,,,,,,,,z,1,0.7834,,,,,,,,-0.025925857,-0.47592594,0,0,0,,0,153,153,129,1,PRANS,C,old,z,./images/PRANS.png,,,,,,,,,,,,,,,,,,,,,
,,,,,,,,,,,,,,,,,198865,18,2022-01-29_09h06.33.420,lexical_decision_task_DD_L6,2021.2.3,Win32,143.9884809,,,,,,,,,,,0.6177,1,,,,,,,,,,,,,,,z,1,0.6177,,,,,,,,-0.025925857,-0.47592594,0,0,0,,0,154,154,89,1,DRIEK,LB,old,z,./images/DRIEKLB.png,,,,,,,,,,,,,,,,,,,,,
,,,,,,,,,,,,,,,,,198865,18,2022-01-29_09h06.33.420,lexical_decision_task_DD_L6,2021.2.3,Win32,143.9884809,,,,,,,,,,,2.5596,1,,,,,,,,,,,,,,,z,1,2.5596,,,,,,,,-0.025925857,-0.47592594,0,0,0,,0,155,155,133,1,POWDY,HB,old,z,./images/POWDYHB.png,,,,,,,,,,,,,,,,,,,,,
,,,,,,,,,,,,,,,,,198865,18,2022-01-29_09h06.33.420,lexical_decision_task_DD_L6,2021.2.3,Win32,143.9884809,,,,,,,,,,,0.6089,1,,,,,,,,,,,,,,,m,1,0.6089,,,,,,,,-0.025925857,-0.47592594,0,0,0,,0,156,156,57,1,FERRY,LB,old,m,./images/FERRYLB.png,,,,,,,,,,,,,,,,,,,,,
,,,,,,,,,,,,,,,,,198865,18,2022-01-29_09h06.33.420,lexical_decision_task_DD_L6,2021.2.3,Win32,143.9884809,,,,,,,,,,,2.8888,1,,,,,,,,,,,,,,,m,1,2.8888,,,,,,,,-0.025925857,-0.47592594,0,0,0,,0,157,157,6,1,STAIN,LB,old,m,./images/STAINLB.png,,,,,,,,,,,,,,,,,,,,,
,,,,,,,,,,,,,,,,,198865,18,2022-01-29_09h06.33.420,lexical_decision_task_DD_L6,2021.2.3,Win32,143.9884809,,,,,,,,,,,0.6548,1,,,,,,,,,,,,,,,m,1,0.6548,,,,,,,,-0.025925857,-0.47592594,0,0,0,,0,158,158,48,1,SHIELD,LB,old,m,./images/SHIELDLB.png,,,,,,,,,,,,,,,,,,,,,
,,,,,,,,,,,,,,,,,198865,18,2022-01-29_09h06.33.420,lexical_decision_task_DD_L6,2021.2.3,Win32,143.9884809,,,,,,,,,,,0.7345,1,,,,,,,,,,,,,,,z,1,0.7345,,,,,,,,-0.025925857,-0.47592594,0,0,0,,0,159,159,120,1,RINED,C,old,z,./images/RINED.png,,,,,,,,,,,,,,,,,,,,,
,,,,,,,,,,,,,,,,,198865,18,2022-01-29_09h06.33.420,lexical_decision_task_DD_L6,2021.2.3,Win32,143.9884809,,,,,,,,,,,0.8205,1,,,,,,,,,,,,,,,m,1,0.8205,,,,,,,,-0.025925857,-0.47592594,0,0,0,,0,160,160,77,1,WHEEL,HB,old,m,./images/WHEELHB.png,,,,,,,,,,,,,,,,,,,,,
,,,,,,,,,,,,,,,,,198865,18,2022-01-29_09h06.33.420,lexical_decision_task_DD_L6,2021.2.3,Win32,143.9884809,,,,,,,,,,,0.6125,1,,,,,,,,,,,,,,,m,1,0.6125,,,,,,,,-0.025925857,-0.47592594,0,0,0,,0,161,161,31,1,STEAK,C,old,m,./images/STEAK.png,,,,,,,,,,,,,,,,,,,,,
,,,,,,,,,,,,,,,,,198865,18,2022-01-29_09h06.33.420,lexical_decision_task_DD_L6,2021.2.3,Win32,143.9884809,,,,,,,,,,,0.5554,1,,,,,,,,,,,,,,,m,1,0.5554,,,,,,,,-0.025925857,-0.47592594,0,0,0,,0,162,162,67,1,POKER,C,old,m,./images/POKER.png,,,,,,,,,,,,,,,,,,,,,
,,,,,,,,,,,,,,,,,198865,18,2022-01-29_09h06.33.420,lexical_decision_task_DD_L6,2021.2.3,Win32,143.9884809,,,,,,,,,,,0.5876,1,,,,,,,,,,,,,,,m,1,0.5876,,,,,,,,-0.025925857,-0.47592594,0,0,0,,0,163,163,80,1,PLANET,HB,old,m,./images/PLANETHB.png,,,,,,,,,,,,,,,,,,,,,
,,,,,,,,,,,,,,,,,198865,18,2022-01-29_09h06.33.420,lexical_decision_task_DD_L6,2021.2.3,Win32,143.9884809,,,,,,,,,,,1.1942,1,,,,,,,,,,,,,,,m,1,1.1942,,,,,,,,-0.025925857,-0.47592594,0,0,0,,0,164,164,41,1,STREAM,HB,old,m,./images/STREAMHB.png,,,,,,,,,,,,,,,,,,,,,
,,,,,,,,,,,,,,,,,198865,18,2022-01-29_09h06.33.420,lexical_decision_task_DD_L6,2021.2.3,Win32,143.9884809,,,,,,,,,,,0.5307,1,,,,,,,,,,,,,,,m,1,0.5307,,,,,,,,-0.025925857,-0.47592594,0,0,0,,0,165,165,54,1,CHERRY,LB,old,m,./images/CHERRYLB.png,,,,,,,,,,,,,,,,,,,,,
,,,,,,,,,,,,,,,,,198865,18,2022-01-29_09h06.33.420,lexical_decision_task_DD_L6,2021.2.3,Win32,143.9884809,,,,,,,,,,,1.3421,1,,,,,,,,,,,,,,,z,1,1.3421,,,,,,,,-0.025925857,-0.47592594,0,0,0,,0,166,166,159,1,CUDDY,C,old,z,./images/CUDDY.png,,,,,,,,,,,,,,,,,,,,,
,,,,,,,,,,,,,,,,,198865,18,2022-01-29_09h06.33.420,lexical_decision_task_DD_L6,2021.2.3,Win32,143.9884809,,,,,,,,,,,1.8604,1,,,,,,,,,,,,,,,m,1,1.8604,,,,,,,,-0.025925857,-0.47592594,0,0,0,,0,167,167,49,1,BISHOP,C,old,m,./images/BISHOP.png,,,,,,,,,,,,,,,,,,,,,
,,-0.055555543,-0.399074087,1,0,0,,,,,,1,test,"In the next phase you will be presented with the words from the the first phase. Your job is to decide whether you remember seeing the word or not. If you remember seeing the word press ""old"" or type ""m"". If you do not remember seeing the word press ""new"" or type ""z"". Please press the space bar or click on continue to begin. ",,,198865,18,2022-01-29_09h06.33.420,lexical_decision_task_DD_L6,2021.2.3,Win32,143.9884809,,,,,,,,,,,,,,,,,,,,,instr_done_button,,,,,,,,,,,,,,,,,,,,,,,,,,,,,,,,,0,0,0,0,1,,,,,,,,,,,,,,,
,,-0.055555543,-0.399074087,1,0,0,,,,,,1,test,"In the next phase you will be presented with the words from the the first phase. Your job is to decide whether you remember seeing the word or not. If you remember seeing the word press ""old"" or type ""m"". If you do not remember seeing the word press ""new"" or type ""z"". Please press the space bar or click on continue to begin. ",,,198865,18,2022-01-29_09h06.33.420,lexical_decision_task_DD_L6,2021.2.3,Win32,143.9884809,,,,,,,,,,,,,,,,,,,,,instr_done_button,,,,,,,,,,,,,,,,,,,,,,,,,,,,,,,,,1,0,1,0,1,,,,,,,,,,,,,,,
space,0.2705,-0.055555543,-0.399074087,0,0,0,,,,,,1,test,"In the next phase you will be presented with the words from the the first phase. Your job is to decide whether you remember seeing the word or not. If you remember seeing the word press ""old"" or type ""m"". If you do not remember seeing the word press ""new"" or type ""z"". Please press the space bar or click on continue to begin. ",,,198865,18,2022-01-29_09h06.33.420,lexical_decision_task_DD_L6,2021.2.3,Win32,143.9884809,,,,,,,,,,,,,,,,,,,,,,,,,,,,,,,,,,,,,,,,,,,,,,,,,,,,,,2,0,2,0,1,,,,,,,,,,,,,,,
,,-0.000925913,-0.401851865,1,0,0,,,,,,1,test,"In the next phase you will be presented with the words from the the first phase. Your job is to decide whether you remember seeing the word or not. If you remember seeing the word press ""old"" or type ""m"". If you do not remember seeing the word press ""new"" or type ""z"". Please press the space bar or click on continue to begin. ",,,198865,18,2022-01-29_09h06.33.420,lexical_decision_task_DD_L6,2021.2.3,Win32,143.9884809,,,,,,,,,,,,,,,,,,,,,instr_done_button,,,,,,,,,,,,,,,,,,,,,,,,,,,,,,,,,3,0,3,0,1,,,,,,,,,,,,,,,
space,2.2022,-0.001851839,-0.401851865,0,0,0,,,,,,1,test,"In the next phase you will be presented with the words from the the first phase. Your job is to decide whether you remember seeing the word or not. If you remember seeing the word press ""old"" or type ""m"". If you do not remember seeing the word press ""new"" or type ""z"". Please press the space bar or click on continue to begin. ",,,198865,18,2022-01-29_09h06.33.420,lexical_decision_task_DD_L6,2021.2.3,Win32,143.9884809,,,,,,,,,,,,,,,,,,,,,,,,,,,,,,,,,,,,,,,,,,,,,,,,,,,,,,4,0,4,0,1,,,,,,,,,,,,,,,
,,,,,,,,,,,,,,,,,198865,18,2022-01-29_09h06.33.420,lexical_decision_task_DD_L6,2021.2.3,Win32,143.9884809,,,,,,,,,,,2.2791,0,,,,,,,,,,,,,,,,,,,,,,,,,-0.001851839,-0.401851865,0,0,0,,,,,,,BANNER,C,z,y,./images/BANNER.png,,,,,,,m,0,2.2791,,,,,,,,0,0,0,136,1
,,,,,,,,,,,,,,,,,198865,18,2022-01-29_09h06.33.420,lexical_decision_task_DD_L6,2021.2.3,Win32,143.9884809,,,,,,,,,,,2.1885,1,,,,,,,,,,,,,,,,,,,,,,,,,-0.001851839,-0.401851865,0,0,0,,,,,,,GREASE,LB,z,y,./images/GREASELB.png,,,,,,,z,1,2.1885,,,,,,,,0,1,1,99,1
,,,,,,,,,,,,,,,,,198865,18,2022-01-29_09h06.33.420,lexical_decision_task_DD_L6,2021.2.3,Win32,143.9884809,,,,,,,,,,,0.8568,1,,,,,,,,,,,,,,,,,,,,,,,,,-0.001851839,-0.401851865,0,0,0,,,,,,,RULER,C,m,y,./images/RULER.png,,,,,,,m,1,0.8568,,,,,,,,0,2,2,79,1
,,,,,,,,,,,,,,,,,198865,18,2022-01-29_09h06.33.420,lexical_decision_task_DD_L6,2021.2.3,Win32,143.9884809,,,,,,,,,,,1.5067,1,,,,,,,,,,,,,,,,,,,,,,,,,-0.001851839,-0.401851865,0,0,0,,,,,,,WALRUS,HB,z,y,./images/WALRUSHB.png,,,,,,,z,1,1.5067,,,,,,,,0,3,3,107,1
,,,,,,,,,,,,,,,,,198865,18,2022-01-29_09h06.33.420,lexical_decision_task_DD_L6,2021.2.3,Win32,143.9884809,,,,,,,,,,,0.6635,1,,,,,,,,,,,,,,,,,,,,,,,,,-0.001851839,-0.401851865,0,0,0,,,,,,,TIGER,C,m,y,./images/TIGER.png,,,,,,,m,1,0.6635,,,,,,,,0,4,4,37,1
,,,,,,,,,,,,,,,,,198865,18,2022-01-29_09h06.33.420,lexical_decision_task_DD_L6,2021.2.3,Win32,143.9884809,,,,,,,,,,,0.8298,1,,,,,,,,,,,,,,,,,,,,,,,,,-0.001851839,-0.401851865,0,0,0,,,,,,,INFANT,C,z,y,./images/INFANT.png,,,,,,,z,1,0.8298,,,,,,,,0,5,5,160,1
,,,,,,,,,,,,,,,,,198865,18,2022-01-29_09h06.33.420,lexical_decision_task_DD_L6,2021.2.3,Win32,143.9884809,,,,,,,,,,,0.8527,1,,,,,,,,,,,,,,,,,,,,,,,,,-0.001851839,-0.401851865,0,0,0,,,,,,,SWEAT,LB,z,y,./images/SWEATLB.png,,,,,,,z,1,0.8527,,,,,,,,0,6,6,150,1
,,,,,,,,,,,,,,,,,198865,18,2022-01-29_09h06.33.420,lexical_decision_task_DD_L6,2021.2.3,Win32,143.9884809,,,,,,,,,,,0.7885,1,,,,,,,,,,,,,,,,,,,,,,,,,-0.001851839,-0.401851865,0,0,0,,,,,,,DOUGH,C,z,y,./images/DOUGH.png,,,,,,,z,1,0.7885,,,,,,,,0,7,7,103,1
,,,,,,,,,,,,,,,,,198865,18,2022-01-29_09h06.33.420,lexical_decision_task_DD_L6,2021.2.3,Win32,143.9884809,,,,,,,,,,,1.8538,0,,,,,,,,,,,,,,,,,,,,,,,,,-0.001851839,-0.401851865,0,0,0,,,,,,,MUFFIN,C,z,y,./images/MUFFIN.png,,,,,,,m,0,1.8538,,,,,,,,0,8,8,139,1
,,,,,,,,,,,,,,,,,198865,18,2022-01-29_09h06.33.420,lexical_decision_task_DD_L6,2021.2.3,Win32,143.9884809,,,,,,,,,,,0.9524,1,,,,,,,,,,,,,,,,,,,,,,,,,-0.001851839,-0.401851865,0,0,0,,,,,,,BARREL,HB,z,y,./images/BARRELHB.png,,,,,,,z,1,0.9524,,,,,,,,0,9,9,116,1
,,,,,,,,,,,,,,,,,198865,18,2022-01-29_09h06.33.420,lexical_decision_task_DD_L6,2021.2.3,Win32,143.9884809,,,,,,,,,,,0.7877,1,,,,,,,,,,,,,,,,,,,,,,,,,-0.001851839,-0.401851865,0,0,0,,,,,,,STORM,LB,z,y,./images/STORMLB.png,,,,,,,z,1,0.7877,,,,,,,,0,10,10,114,1
,,,,,,,,,,,,,,,,,198865,18,2022-01-29_09h06.33.420,lexical_decision_task_DD_L6,2021.2.3,Win32,143.9884809,,,,,,,,,,,0.8115,1,,,,,,,,,,,,,,,,,,,,,,,,,-0.001851839,-0.401851865,0,0,0,,,,,,,KITTEN,LB,z,y,./images/KITTENLB.png,,,,,,,z,1,0.8115,,,,,,,,0,11,11,129,1
,,,,,,,,,,,,,,,,,198865,18,2022-01-29_09h06.33.420,lexical_decision_task_DD_L6,2021.2.3,Win32,143.9884809,,,,,,,,,,,0.8818,1,,,,,,,,,,,,,,,,,,,,,,,,,-0.001851839,-0.401851865,0,0,0,,,,,,,MONKEY,LB,m,y,./images/MONKEYLB.png,,,,,,,m,1,0.8818,,,,,,,,0,12,12,45,1
,,,,,,,,,,,,,,,,,198865,18,2022-01-29_09h06.33.420,lexical_decision_task_DD_L6,2021.2.3,Win32,143.9884809,,,,,,,,,,,0.9987,1,,,,,,,,,,,,,,,,,,,,,,,,,-0.001851839,-0.401851865,0,0,0,,,,,,,CHAIN,LB,m,y,./images/CHAINLB.png,,,,,,,m,1,0.9987,,,,,,,,0,13,13,42,1
,,,,,,,,,,,,,,,,,198865,18,2022-01-29_09h06.33.420,lexical_decision_task_DD_L6,2021.2.3,Win32,143.9884809,,,,,,,,,,,0.6538,1,,,,,,,,,,,,,,,,,,,,,,,,,-0.001851839,-0.401851865,0,0,0,,,,,,,FERRY,LB,m,y,./images/FERRYLB.png,,,,,,,m,1,0.6538,,,,,,,,0,14,14,57,1
,,,,,,,,,,,,,,,,,198865,18,2022-01-29_09h06.33.420,lexical_decision_task_DD_L6,2021.2.3,Win32,143.9884809,,,,,,,,,,,0.6679,1,,,,,,,,,,,,,,,,,,,,,,,,,-0.001851839,-0.401851865,0,0,0,,,,,,,THROAT,LB,z,y,./images/THROATLB.png,,,,,,,z,1,0.6679,,,,,,,,0,15,15,120,1
,,,,,,,,,,,,,,,,,198865,18,2022-01-29_09h06.33.420,lexical_decision_task_DD_L6,2021.2.3,Win32,143.9884809,,,,,,,,,,,0.6861,1,,,,,,,,,,,,,,,,,,,,,,,,,-0.001851839,-0.401851865,0,0,0,,,,,,,MELON,C,z,y,./images/MELON.png,,,,,,,z,1,0.6861,,,,,,,,0,16,16,106,1
,,,,,,,,,,,,,,,,,198865,18,2022-01-29_09h06.33.420,lexical_decision_task_DD_L6,2021.2.3,Win32,143.9884809,,,,,,,,,,,0.6503,1,,,,,,,,,,,,,,,,,,,,,,,,,-0.001851839,-0.401851865,0,0,0,,,,,,,DRILL,LB,m,y,./images/DRILLLB.png,,,,,,,m,1,0.6503,,,,,,,,0,17,17,81,1
,,,,,,,,,,,,,,,,,198865,18,2022-01-29_09h06.33.420,lexical_decision_task_DD_L6,2021.2.3,Win32,143.9884809,,,,,,,,,,,0.7044,1,,,,,,,,,,,,,,,,,,,,,,,,,-0.001851839,-0.401851865,0,0,0,,,,,,,TOMATO,LB,z,y,./images/TOMATOLB.png,,,,,,,z,1,0.7044,,,,,,,,0,18,18,84,1
,,,,,,,,,,,,,,,,,198865,18,2022-01-29_09h06.33.420,lexical_decision_task_DD_L6,2021.2.3,Win32,143.9884809,,,,,,,,,,,0.6521,1,,,,,,,,,,,,,,,,,,,,,,,,,-0.001851839,-0.401851865,0,0,0,,,,,,,FLESH,LB,m,y,./images/FLESHLB.png,,,,,,,m,1,0.6521,,,,,,,,0,19,19,24,1
,,,,,,,,,,,,,,,,,198865,18,2022-01-29_09h06.33.420,lexical_decision_task_DD_L6,2021.2.3,Win32,143.9884809,,,,,,,,,,,0.7334,1,,,,,,,,,,,,,,,,,,,,,,,,,-0.001851839,-0.401851865,0,0,0,,,,,,,KIDNEY,LB,z,y,./images/KIDNEYLB.png,,,,,,,z,1,0.7334,,,,,,,,0,20,20,105,1
,,,,,,,,,,,,,,,,,198865,18,2022-01-29_09h06.33.420,lexical_decision_task_DD_L6,2021.2.3,Win32,143.9884809,,,,,,,,,,,1.4305,0,,,,,,,,,,,,,,,,,,,,,,,,,-0.001851839,-0.401851865,0,0,0,,,,,,,CLOUD,HB,m,y,./images/CLOUDHB.png,,,,,,,z,0,1.4305,,,,,,,,0,21,21,26,1
,,,,,,,,,,,,,,,,,198865,18,2022-01-29_09h06.33.420,lexical_decision_task_DD_L6,2021.2.3,Win32,143.9884809,,,,,,,,,,,0.7075,1,,,,,,,,,,,,,,,,,,,,,,,,,-0.001851839,-0.401851865,0,0,0,,,,,,,STOOL,C,m,y,./images/STOOL.png,,,,,,,m,1,0.7075,,,,,,,,0,22,22,43,1
,,,,,,,,,,,,,,,,,198865,18,2022-01-29_09h06.33.420,lexical_decision_task_DD_L6,2021.2.3,Win32,143.9884809,,,,,,,,,,,0.7542,1,,,,,,,,,,,,,,,,,,,,,,,,,-0.001851839,-0.401851865,0,0,0,,,,,,,PIMPLE,HB,z,y,./images/PIMPLEHB.png,,,,,,,z,1,0.7542,,,,,,,,0,23,23,155,1
,,,,,,,,,,,,,,,,,198865,18,2022-01-29_09h06.33.420,lexical_decision_task_DD_L6,2021.2.3,Win32,143.9884809,,,,,,,,,,,7.5086,1,,,,,,,,,,,,,,,,,,,,,,,,,-0.001851839,-0.401851865,0,0,0,,,,,,,DRUMS,C,z,y,./images/DRUMS.png,,,,,,,z,1,7.5086,,,,,,,,0,24,24,133,1
,,,,,,,,,,,,,,,,,198865,18,2022-01-29_09h06.33.420,lexical_decision_task_DD_L6,2021.2.3,Win32,143.9884809,,,,,,,,,,,0.978,1,,,,,,,,,,,,,,,,,,,,,,,,,-0.001851839,-0.401851865,0,0,0,,,,,,,TWINS,LB,z,y,./images/TWINSLB.png,,,,,,,z,1,0.978,,,,,,,,0,25,25,144,1
,,,,,,,,,,,,,,,,,198865,18,2022-01-29_09h06.33.420,lexical_decision_task_DD_L6,2021.2.3,Win32,143.9884809,,,,,,,,,,,0.6939,1,,,,,,,,,,,,,,,,,,,,,,,,,-0.001851839,-0.401851865,0,0,0,,,,,,,FLASK,LB,m,y,./images/FLASKLB.png,,,,,,,m,1,0.6939,,,,,,,,0,26,26,72,1
,,,,,,,,,,,,,,,,,198865,18,2022-01-29_09h06.33.420,lexical_decision_task_DD_L6,2021.2.3,Win32,143.9884809,,,,,,,,,,,0.7898,1,,,,,,,,,,,,,,,,,,,,,,,,,-0.001851839,-0.401851865,0,0,0,,,,,,,JAGUAR,LB,z,y,./images/JAGUARLB.png,,,,,,,z,1,0.7898,,,,,,,,0,27,27,102,1
,,,,,,,,,,,,,,,,,198865,18,2022-01-29_09h06.33.420,lexical_decision_task_DD_L6,2021.2.3,Win32,143.9884809,,,,,,,,,,,0.6446,1,,,,,,,,,,,,,,,,,,,,,,,,,-0.001851839,-0.401851865,0,0,0,,,,,,,SLOPE,LB,m,y,./images/SLOPELB.png,,,,,,,m,1,0.6446,,,,,,,,0,28,28,30,1
,,,,,,,,,,,,,,,,,198865,18,2022-01-29_09h06.33.420,lexical_decision_task_DD_L6,2021.2.3,Win32,143.9884809,,,,,,,,,,,0.6617,1,,,,,,,,,,,,,,,,,,,,,,,,,-0.001851839,-0.401851865,0,0,0,,,,,,,LITTER,LB,z,y,./images/LITTERLB.png,,,,,,,z,1,0.6617,,,,,,,,0,29,29,162,1
,,,,,,,,,,,,,,,,,198865,18,2022-01-29_09h06.33.420,lexical_decision_task_DD_L6,2021.2.3,Win32,143.9884809,,,,,,,,,,,0.6373,1,,,,,,,,,,,,,,,,,,,,,,,,,-0.001851839,-0.401851865,0,0,0,,,,,,,TOWEL,C,m,y,./images/TOWEL.png,,,,,,,m,1,0.6373,,,,,,,,0,30,30,1,1
,,,,,,,,,,,,,,,,,198865,18,2022-01-29_09h06.33.420,lexical_decision_task_DD_L6,2021.2.3,Win32,143.9884809,,,,,,,,,,,1.8465,1,,,,,,,,,,,,,,,,,,,,,,,,,-0.001851839,-0.401851865,0,0,0,,,,,,,BRIDE,C,m,y,./images/BRIDE.png,,,,,,,m,1,1.8465,,,,,,,,0,31,31,64,1
,,,,,,,,,,,,,,,,,198865,18,2022-01-29_09h06.33.420,lexical_decision_task_DD_L6,2021.2.3,Win32,143.9884809,,,,,,,,,,,0.6392,1,,,,,,,,,,,,,,,,,,,,,,,,,-0.001851839,-0.401851865,0,0,0,,,,,,,WHISKY,HB,m,y,./images/WHISKYHB.png,,,,,,,m,1,0.6392,,,,,,,,0,32,32,83,1
,,,,,,,,,,,,,,,,,198865,18,2022-01-29_09h06.33.420,lexical_decision_task_DD_L6,2021.2.3,Win32,143.9884809,,,,,,,,,,,0.7076,1,,,,,,,,,,,,,,,,,,,,,,,,,-0.001851839,-0.401851865,0,0,0,,,,,,,BURIAL,HB,z,y,./images/BURIALHB.png,,,,,,,z,1,0.7076,,,,,,,,0,33,33,143,1
,,,,,,,,,,,,,,,,,198865,18,2022-01-29_09h06.33.420,lexical_decision_task_DD_L6,2021.2.3,Win32,143.9884809,,,,,,,,,,,0.6717,1,,,,,,,,,,,,,,,,,,,,,,,,,-0.001851839,-0.401851865,0,0,0,,,,,,,SUNSET,C,z,y,./images/SUNSET.png,,,,,,,z,1,0.6717,,,,,,,,0,34,34,166,1
,,,,,,,,,,,,,,,,,198865,18,2022-01-29_09h06.33.420,lexical_decision_task_DD_L6,2021.2.3,Win32,143.9884809,,,,,,,,,,,1.0662,1,,,,,,,,,,,,,,,,,,,,,,,,,-0.001851839,-0.401851865,0,0,0,,,,,,,SQUARE,LB,z,y,./images/SQUARELB.png,,,,,,,z,1,1.0662,,,,,,,,0,35,35,90,1
,,,,,,,,,,,,,,,,,198865,18,2022-01-29_09h06.33.420,lexical_decision_task_DD_L6,2021.2.3,Win32,143.9884809,,,,,,,,,,,0.7226,1,,,,,,,,,,,,,,,,,,,,,,,,,-0.001851839,-0.401851865,0,0,0,,,,,,,LAGOON,HB,m,y,./images/LAGOONHB.png,,,,,,,m,1,0.7226,,,,,,,,0,36,36,47,1
,,,,,,,,,,,,,,,,,198865,18,2022-01-29_09h06.33.420,lexical_decision_task_DD_L6,2021.2.3,Win32,143.9884809,,,,,,,,,,,0.8234,1,,,,,,,,,,,,,,,,,,,,,,,,,-0.001851839,-0.401851865,0,0,0,,,,,,,ENGINE,HB,m,y,./images/ENGINEHB.png,,,,,,,m,1,0.8234,,,,,,,,0,37,37,38,1
,,,,,,,,,,,,,,,,,198865,18,2022-01-29_09h06.33.420,lexical_decision_task_DD_L6,2021.2.3,Win32,143.9884809,,,,,,,,,,,0.9572,1,,,,,,,,,,,,,,,,,,,,,,,,,-0.001851839,-0.401851865,0,0,0,,,,,,,POODLE,LB,z,y,./images/POODLELB.png,,,,,,,z,1,0.9572,,,,,,,,0,38,38,165,1
,,,,,,,,,,,,,,,,,198865,18,2022-01-29_09h06.33.420,lexical_decision_task_DD_L6,2021.2.3,Win32,143.9884809,,,,,,,,,,,0.6256,1,,,,,,,,,,,,,,,,,,,,,,,,,-0.001851839,-0.401851865,0,0,0,,,,,,,STATUE,LB,m,y,./images/STATUELB.png,,,,,,,m,1,0.6256,,,,,,,,0,39,39,66,1
,,,,,,,,,,,,,,,,,198865,18,2022-01-29_09h06.33.420,lexical_decision_task_DD_L6,2021.2.3,Win32,143.9884809,,,,,,,,,,,1.0937,1,,,,,,,,,,,,,,,,,,,,,,,,,-0.001851839,-0.401851865,0,0,0,,,,,,,PILOT,HB,m,y,./images/PILOTHB.png,,,,,,,m,1,1.0937,,,,,,,,0,40,40,50,1
,,,,,,,,,,,,,,,,,198865,18,2022-01-29_09h06.33.420,lexical_decision_task_DD_L6,2021.2.3,Win32,143.9884809,,,,,,,,,,,0.8455,1,,,,,,,,,,,,,,,,,,,,,,,,,-0.001851839,-0.401851865,0,0,0,space,,,,,,MUSCLE,C,z,y,./images/MUSCLE.png,1.0131,,,,,,z,1,0.8455,,,,,,,,0,41,41,88,1
,,,,,,,,,,,,,,,,,198865,18,2022-01-29_09h06.33.420,lexical_decision_task_DD_L6,2021.2.3,Win32,143.9884809,,,,,,,,,,,1.0843,1,,,,,,,,,,,,,,,,,,,,,,,,,-0.001851839,-0.401851865,0,0,0,,,,,,,BRUSH,HB,m,y,./images/BRUSHHB.png,,,,,,,m,1,1.0843,,,,,,,,0,42,42,59,1
,,,,,,,,,,,,,,,,,198865,18,2022-01-29_09h06.33.420,lexical_decision_task_DD_L6,2021.2.3,Win32,143.9884809,,,,,,,,,,,0.8607,1,,,,,,,,,,,,,,,,,,,,,,,,,-0.001851839,-0.401851865,0,0,0,,,,,,,ONION,LB,z,y,./images/ONIONLB.png,,,,,,,z,1,0.8607,,,,,,,,0,43,43,135,1
,,,,,,,,,,,,,,,,,198865,18,2022-01-29_09h06.33.420,lexical_decision_task_DD_L6,2021.2.3,Win32,143.9884809,,,,,,,,,,,0.7881,1,,,,,,,,,,,,,,,,,,,,,,,,,-0.001851839,-0.401851865,0,0,0,,,,,,,BIRTH,C,z,y,./images/BIRTH.png,,,,,,,z,1,0.7881,,,,,,,,0,44,44,121,1
,,,,,,,,,,,,,,,,,198865,18,2022-01-29_09h06.33.420,lexical_decision_task_DD_L6,2021.2.3,Win32,143.9884809,,,,,,,,,,,0.7096,1,,,,,,,,,,,,,,,,,,,,,,,,,-0.001851839,-0.401851865,0,0,0,,,,,,,PLANET,HB,m,y,./images/PLANETHB.png,,,,,,,m,1,0.7096,,,,,,,,0,45,45,80,1
,,,,,,,,,,,,,,,,,198865,18,2022-01-29_09h06.33.420,lexical_decision_task_DD_L6,2021.2.3,Win32,143.9884809,,,,,,,,,,,0.8447,1,,,,,,,,,,,,,,,,,,,,,,,,,-0.001851839,-0.401851865,0,0,0,,,,,,,PEBBLE,C,m,y,./images/PEBBLE.png,,,,,,,m,1,0.8447,,,,,,,,0,46,46,82,1
,,,,,,,,,,,,,,,,,198865,18,2022-01-29_09h06.33.420,lexical_decision_task_DD_L6,2021.2.3,Win32,143.9884809,,,,,,,,,,,0.6451,1,,,,,,,,,,,,,,,,,,,,,,,,,-0.001851839,-0.401851865,0,0,0,,,,,,,LLAMA,HB,m,y,./images/LLAMAHB.png,,,,,,,m,1,0.6451,,,,,,,,0,47,47,35,1
,,,,,,,,,,,,,,,,,198865,18,2022-01-29_09h06.33.420,lexical_decision_task_DD_L6,2021.2.3,Win32,143.9884809,,,,,,,,,,,0.7289,1,,,,,,,,,,,,,,,,,,,,,,,,,-0.001851839,-0.401851865,0,0,0,,,,,,,BELLY,C,z,y,./images/BELLY.png,,,,,,,z,1,0.7289,,,,,,,,0,48,48,94,1
,,,,,,,,,,,,,,,,,198865,18,2022-01-29_09h06.33.420,lexical_decision_task_DD_L6,2021.2.3,Win32,143.9884809,,,,,,,,,,,1.0343,1,,,,,,,,,,,,,,,,,,,,,,,,,-0.001851839,-0.401851865,0,0,0,,,,,,,JUMPER,HB,m,y,./images/JUMPERHB.png,,,,,,,m,1,1.0343,,,,,,,,0,49,49,74,1
,,,,,,,,,,,,,,,,,198865,18,2022-01-29_09h06.33.420,lexical_decision_task_DD_L6,2021.2.3,Win32,143.9884809,,,,,,,,,,,0.8815,1,,,,,,,,,,,,,,,,,,,,,,,,,-0.001851839,-0.401851865,0,0,0,,,,,,,BROOM,LB,m,y,./images/BROOMLB.png,,,,,,,m,1,0.8815,,,,,,,,0,50,50,78,1
,,,,,,,,,,,,,,,,,198865,18,2022-01-29_09h06.33.420,lexical_decision_task_DD_L6,2021.2.3,Win32,143.9884809,,,,,,,,,,,0.6654,1,,,,,,,,,,,,,,,,,,,,,,,,,-0.001851839,-0.401851865,0,0,0,,,,,,,CLOTH,HB,m,y,./images/CLOTHHB.png,,,,,,,m,1,0.6654,,,,,,,,0,51,51,23,1
,,,,,,,,,,,,,,,,,198865,18,2022-01-29_09h06.33.420,lexical_decision_task_DD_L6,2021.2.3,Win32,143.9884809,,,,,,,,,,,0.7784,1,,,,,,,,,,,,,,,,,,,,,,,,,-0.001851839,-0.401851865,0,0,0,,,,,,,RHINO,LB,z,y,./images/RHINOLB.png,,,,,,,z,1,0.7784,,,,,,,,0,52,52,93,1
,,,,,,,,,,,,,,,,,198865,18,2022-01-29_09h06.33.420,lexical_decision_task_DD_L6,2021.2.3,Win32,143.9884809,,,,,,,,,,,0.6662,1,,,,,,,,,,,,,,,,,,,,,,,,,-0.001851839,-0.401851865,0,0,0,,,,,,,BOILER,LB,m,y,./images/BOILERLB.png,,,,,,,m,1,0.6662,,,,,,,,0,53,53,36,1
,,,,,,,,,,,,,,,,,198865,18,2022-01-29_09h06.33.420,lexical_decision_task_DD_L6,2021.2.3,Win32,143.9884809,,,,,,,,,,,0.5683,1,,,,,,,,,,,,,,,,,,,,,,,,,-0.001851839,-0.401851865,0,0,0,,,,,,,STEAK,C,m,y,./images/STEAK.png,,,,,,,m,1,0.5683,,,,,,,,0,54,54,31,1
,,,,,,,,,,,,,,,,,198865,18,2022-01-29_09h06.33.420,lexical_decision_task_DD_L6,2021.2.3,Win32,143.9884809,,,,,,,,,,,0.876,0,,,,,,,,,,,,,,,,,,,,,,,,,-0.001851839,-0.401851865,0,0,0,,,,,,,MALLET,HB,z,y,./images/MALLETHB.png,,,,,,,m,0,0.876,,,,,,,,0,55,55,134,1
,,,,,,,,,,,,,,,,,198865,18,2022-01-29_09h06.33.420,lexical_decision_task_DD_L6,2021.2.3,Win32,143.9884809,,,,,,,,,,,0.8369,1,,,,,,,,,,,,,,,,,,,,,,,,,-0.001851839,-0.401851865,0,0,0,,,,,,,COUCH,HB,z,y,./images/COUCHHB.png,,,,,,,z,1,0.8369,,,,,,,,0,56,56,161,1
,,,,,,,,,,,,,,,,,198865,18,2022-01-29_09h06.33.420,lexical_decision_task_DD_L6,2021.2.3,Win32,143.9884809,,,,,,,,,,,2.7165,0,,,,,,,,,,,,,,,,,,,,,,,,,-0.001851839,-0.401851865,0,0,0,,,,,,,COOKER,LB,z,y,./images/COOKERLB.png,,,,,,,m,0,2.7165,,,,,,,,0,57,57,153,1
,,,,,,,,,,,,,,,,,198865,18,2022-01-29_09h06.33.420,lexical_decision_task_DD_L6,2021.2.3,Win32,143.9884809,,,,,,,,,,,2.2282,1,,,,,,,,,,,,,,,,,,,,,,,,,-0.001851839,-0.401851865,0,0,0,,,,,,,WALNUT,LB,m,y,./images/WALNUTLB.png,,,,,,,m,1,2.2282,,,,,,,,0,58,58,0,1
,,,,,,,,,,,,,,,,,198865,18,2022-01-29_09h06.33.420,lexical_decision_task_DD_L6,2021.2.3,Win32,143.9884809,,,,,,,,,,,0.8862,1,,,,,,,,,,,,,,,,,,,,,,,,,-0.001851839,-0.401851865,0,0,0,,,,,,,SWING,C,z,y,./images/SWING.png,,,,,,,z,1,0.8862,,,,,,,,0,59,59,124,1
,,,,,,,,,,,,,,,,,198865,18,2022-01-29_09h06.33.420,lexical_decision_task_DD_L6,2021.2.3,Win32,143.9884809,,,,,,,,,,,0.9117,0,,,,,,,,,,,,,,,,,,,,,,,,,-0.001851839,-0.401851865,0,0,0,,,,,,,HEATER,HB,m,y,./images/HEATERHB.png,,,,,,,z,0,0.9117,,,,,,,,0,60,60,56,1
,,,,,,,,,,,,,,,,,198865,18,2022-01-29_09h06.33.420,lexical_decision_task_DD_L6,2021.2.3,Win32,143.9884809,,,,,,,,,,,0.6912,1,,,,,,,,,,,,,,,,,,,,,,,,,-0.001851839,-0.401851865,0,0,0,,,,,,,SHELF,LB,z,y,./images/SHELFLB.png,,,,,,,z,1,0.6912,,,,,,,,0,61,61,123,1
,,,,,,,,,,,,,,,,,198865,18,2022-01-29_09h06.33.420,lexical_decision_task_DD_L6,2021.2.3,Win32,143.9884809,,,,,,,,,,,0.649,1,,,,,,,,,,,,,,,,,,,,,,,,,-0.001851839,-0.401851865,0,0,0,,,,,,,MUMMY,C,m,y,./images/MUMMY.png,,,,,,,m,1,0.649,,,,,,,,0,62,62,46,1
,,,,,,,,,,,,,,,,,198865,18,2022-01-29_09h06.33.420,lexical_decision_task_DD_L6,2021.2.3,Win32,143.9884809,,,,,,,,,,,0.7211,1,,,,,,,,,,,,,,,,,,,,,,,,,-0.001851839,-0.401851865,0,0,0,,,,,,,SAILOR,C,z,y,./images/SAILOR.png,,,,,,,z,1,0.7211,,,,,,,,0,63,63,151,1
,,,,,,,,,,,,,,,,,198865,18,2022-01-29_09h06.33.420,lexical_decision_task_DD_L6,2021.2.3,Win32,143.9884809,,,,,,,,,,,0.7341,1,,,,,,,,,,,,,,,,,,,,,,,,,-0.001851839,-0.401851865,0,0,0,,,,,,,CASINO,C,m,y,./images/CASINO.png,,,,,,,m,1,0.7341,,,,,,,,0,64,64,28,1
,,,,,,,,,,,,,,,,,198865,18,2022-01-29_09h06.33.420,lexical_decision_task_DD_L6,2021.2.3,Win32,143.9884809,,,,,,,,,,,0.7121,1,,,,,,,,,,,,,,,,,,,,,,,,,-0.001851839,-0.401851865,0,0,0,,,,,,,BANANA,C,m,y,./images/BANANA.png,,,,,,,m,1,0.7121,,,,,,,,0,65,65,70,1
,,,,,,,,,,,,,,,,,198865,18,2022-01-29_09h06.33.420,lexical_decision_task_DD_L6,2021.2.3,Win32,143.9884809,,,,,,,,,,,0.748,1,,,,,,,,,,,,,,,,,,,,,,,,,-0.001851839,-0.401851865,0,0,0,,,,,,,MEDAL,HB,m,y,./images/MEDALHB.png,,,,,,,m,1,0.748,,,,,,,,0,66,66,11,1
,,,,,,,,,,,,,,,,,198865,18,2022-01-29_09h06.33.420,lexical_decision_task_DD_L6,2021.2.3,Win32,143.9884809,,,,,,,,,,,0.7669,1,,,,,,,,,,,,,,,,,,,,,,,,,-0.001851839,-0.401851865,0,0,0,,,,,,,BISHOP,C,m,y,./images/BISHOP.png,,,,,,,m,1,0.7669,,,,,,,,0,67,67,49,1
,,,,,,,,,,,,,,,,,198865,18,2022-01-29_09h06.33.420,lexical_decision_task_DD_L6,2021.2.3,Win32,143.9884809,,,,,,,,,,,1.7745,1,,,,,,,,,,,,,,,,,,,,,,,,,-0.001851839,-0.401851865,0,0,0,,,,,,,BERRY,HB,z,y,./images/BERRYHB.png,,,,,,,z,1,1.7745,,,,,,,,0,68,68,131,1
,,,,,,,,,,,,,,,,,198865,18,2022-01-29_09h06.33.420,lexical_decision_task_DD_L6,2021.2.3,Win32,143.9884809,,,,,,,,,,,0.7591,1,,,,,,,,,,,,,,,,,,,,,,,,,-0.001851839,-0.401851865,0,0,0,,,,,,,STRING,HB,z,y,./images/STRINGHB.png,,,,,,,z,1,0.7591,,,,,,,,0,69,69,125,1
,,,,,,,,,,,,,,,,,198865,18,2022-01-29_09h06.33.420,lexical_decision_task_DD_L6,2021.2.3,Win32,143.9884809,,,,,,,,,,,0.656,1,,,,,,,,,,,,,,,,,,,,,,,,,-0.001851839,-0.401851865,0,0,0,,,,,,,CANOE,C,m,y,./images/CANOE.png,,,,,,,m,1,0.656,,,,,,,,0,70,70,58,1
,,,,,,,,,,,,,,,,,198865,18,2022-01-29_09h06.33.420,lexical_decision_task_DD_L6,2021.2.3,Win32,143.9884809,,,,,,,,,,,0.7901,1,,,,,,,,,,,,,,,,,,,,,,,,,-0.001851839,-0.401851865,0,0,0,,,,,,,CEMENT,HB,z,y,./images/CEMENTHB.png,,,,,,,z,1,0.7901,,,,,,,,0,71,71,158,1
,,,,,,,,,,,,,,,,,198865,18,2022-01-29_09h06.33.420,lexical_decision_task_DD_L6,2021.2.3,Win32,143.9884809,,,,,,,,,,,0.5533,1,,,,,,,,,,,,,,,,,,,,,,,,,-0.001851839,-0.401851865,0,0,0,,,,,,,STAIN,LB,m,y,./images/STAINLB.png,,,,,,,m,1,0.5533,,,,,,,,0,72,72,6,1
,,,,,,,,,,,,,,,,,198865,18,2022-01-29_09h06.33.420,lexical_decision_task_DD_L6,2021.2.3,Win32,143.9884809,,,,,,,,,,,0.7351,1,,,,,,,,,,,,,,,,,,,,,,,,,-0.001851839,-0.401851865,0,0,0,,,,,,,CANYON,C,z,y,./images/CANYON.png,,,,,,,z,1,0.7351,,,,,,,,0,73,73,118,1
,,,,,,,,,,,,,,,,,198865,18,2022-01-29_09h06.33.420,lexical_decision_task_DD_L6,2021.2.3,Win32,143.9884809,,,,,,,,,,,0.623,1,,,,,,,,,,,,,,,,,,,,,,,,,-0.001851839,-0.401851865,0,0,0,,,,,,,GRAPE,C,m,y,./images/GRAPE.png,,,,,,,m,1,0.623,,,,,,,,0,74,74,16,1
,,,,,,,,,,,,,,,,,198865,18,2022-01-29_09h06.33.420,lexical_decision_task_DD_L6,2021.2.3,Win32,143.9884809,,,,,,,,,,,0.6347,1,,,,,,,,,,,,,,,,,,,,,,,,,-0.001851839,-0.401851865,0,0,0,,,,,,,FINGER,LB,z,y,./images/FINGERLB.png,,,,,,,z,1,0.6347,,,,,,,,0,75,75,87,1
,,,,,,,,,,,,,,,,,198865,18,2022-01-29_09h06.33.420,lexical_decision_task_DD_L6,2021.2.3,Win32,143.9884809,,,,,,,,,,,0.8215,0,,,,,,,,,,,,,,,,,,,,,,,,,-0.001851839,-0.401851865,0,0,0,,,,,,,MOTOR,C,z,y,./images/MOTOR.png,,,,,,,m,0,0.8215,,,,,,,,0,76,76,97,1
,,,,,,,,,,,,,,,,,198865,18,2022-01-29_09h06.33.420,lexical_decision_task_DD_L6,2021.2.3,Win32,143.9884809,,,,,,,,,,,0.8799,1,,,,,,,,,,,,,,,,,,,,,,,,,-0.001851839,-0.401851865,0,0,0,,,,,,,WRIST,C,z,y,./images/WRIST.png,,,,,,,z,1,0.8799,,,,,,,,0,77,77,109,1
,,,,,,,,,,,,,,,,,198865,18,2022-01-29_09h06.33.420,lexical_decision_task_DD_L6,2021.2.3,Win32,143.9884809,,,,,,,,,,,0.8185,1,,,,,,,,,,,,,,,,,,,,,,,,,-0.001851839,-0.401851865,0,0,0,,,,,,,HOCKEY,HB,m,y,./images/HOCKEYHB.png,,,,,,,m,1,0.8185,,,,,,,,0,78,78,32,1
,,,,,,,,,,,,,,,,,198865,18,2022-01-29_09h06.33.420,lexical_decision_task_DD_L6,2021.2.3,Win32,143.9884809,,,,,,,,,,,1.3729,1,,,,,,,,,,,,,,,,,,,,,,,,,-0.001851839,-0.401851865,0,0,0,,,,,,,PASTA,HB,z,y,./images/PASTAHB.png,,,,,,,z,1,1.3729,,,,,,,,0,79,79,89,1
,,,,,,,,,,,,,,,,,198865,18,2022-01-29_09h06.33.420,lexical_decision_task_DD_L6,2021.2.3,Win32,143.9884809,,,,,,,,,,,0.7254,1,,,,,,,,,,,,,,,,,,,,,,,,,-0.001851839,-0.401851865,0,0,0,,,,,,,PEARL,C,z,y,./images/PEARL.png,,,,,,,z,1,0.7254,,,,,,,,0,80,80,130,1
,,,,,,,,,,,,,,,,,198865,18,2022-01-29_09h06.33.420,lexical_decision_task_DD_L6,2021.2.3,Win32,143.9884809,,,,,,,,,,,0.7115,1,,,,,,,,,,,,,,,,,,,,,,,,,-0.001851839,-0.401851865,0,0,0,,,,,,,NOOSE,LB,z,y,./images/NOOSELB.png,,,,,,,z,1,0.7115,,,,,,,,0,81,81,156,1
,,,,,,,,,,,,,,,,,198865,18,2022-01-29_09h06.33.420,lexical_decision_task_DD_L6,2021.2.3,Win32,143.9884809,,,,,,,,,,,0.6556,1,,,,,,,,,,,,,,,,,,,,,,,,,-0.001851839,-0.401851865,0,0,0,,,,,,,PEACH,HB,z,y,./images/PEACHHB.png,,,,,,,z,1,0.6556,,,,,,,,0,82,82,119,1
,,,,,,,,,,,,,,,,,198865,18,2022-01-29_09h06.33.420,lexical_decision_task_DD_L6,2021.2.3,Win32,143.9884809,,,,,,,,,,,1.0571,0,,,,,,,,,,,,,,,,,,,,,,,,,-0.001851839,-0.401851865,0,0,0,space,,,,,,SHORE,LB,z,y,./images/SHORELB.png,0.9,,,,,,m,0,1.0571,,,,,,,,0,83,83,96,1
,,,,,,,,,,,,,,,,,198865,18,2022-01-29_09h06.33.420,lexical_decision_task_DD_L6,2021.2.3,Win32,143.9884809,,,,,,,,,,,0.8543,1,,,,,,,,,,,,,,,,,,,,,,,,,-0.001851839,-0.401851865,0,0,0,,,,,,,RAZOR,C,m,y,./images/RAZOR.png,,,,,,,m,1,0.8543,,,,,,,,0,84,84,34,1
,,,,,,,,,,,,,,,,,198865,18,2022-01-29_09h06.33.420,lexical_decision_task_DD_L6,2021.2.3,Win32,143.9884809,,,,,,,,,,,0.6673,1,,,,,,,,,,,,,,,,,,,,,,,,,-0.001851839,-0.401851865,0,0,0,,,,,,,POSTER,HB,m,y,./images/POSTERHB.png,,,,,,,m,1,0.6673,,,,,,,,0,85,85,53,1
,,,,,,,,,,,,,,,,,198865,18,2022-01-29_09h06.33.420,lexical_decision_task_DD_L6,2021.2.3,Win32,143.9884809,,,,,,,,,,,1.18,0,,,,,,,,,,,,,,,,,,,,,,,,,-0.001851839,-0.401851865,0,0,0,,,,,,,GARDEN,C,m,y,./images/GARDEN.png,,,,,,,z,0,1.18,,,,,,,,0,86,86,10,1
,,,,,,,,,,,,,,,,,198865,18,2022-01-29_09h06.33.420,lexical_decision_task_DD_L6,2021.2.3,Win32,143.9884809,,,,,,,,,,,0.9211,1,,,,,,,,,,,,,,,,,,,,,,,,,-0.001851839,-0.401851865,0,0,0,,,,,,,JUNGLE,HB,z,y,./images/JUNGLEHB.png,,,,,,,z,1,0.9211,,,,,,,,0,87,87,167,1
,,,,,,,,,,,,,,,,,198865,18,2022-01-29_09h06.33.420,lexical_decision_task_DD_L6,2021.2.3,Win32,143.9884809,,,,,,,,,,,1.3191,1,,,,,,,,,,,,,,,,,,,,,,,,,-0.001851839,-0.401851865,0,0,0,,,,,,,PENCE,C,z,y,./images/PENCE.png,,,,,,,z,1,1.3191,,,,,,,,0,88,88,100,1
,,,,,,,,,,,,,,,,,198865,18,2022-01-29_09h06.33.420,lexical_decision_task_DD_L6,2021.2.3,Win32,143.9884809,,,,,,,,,,,1.0888,1,,,,,,,,,,,,,,,,,,,,,,,,,-0.001851839,-0.401851865,0,0,0,,,,,,,PLANK,C,z,y,./images/PLANK.png,,,,,,,z,1,1.0888,,,,,,,,0,89,89,85,1
,,,,,,,,,,,,,,,,,198865,18,2022-01-29_09h06.33.420,lexical_decision_task_DD_L6,2021.2.3,Win32,143.9884809,,,,,,,,,,,0.629,1,,,,,,,,,,,,,,,,,,,,,,,,,-0.001851839,-0.401851865,0,0,0,,,,,,,URINE,C,z,y,./images/URINE.png,,,,,,,z,1,0.629,,,,,,,,0,90,90,154,1
,,,,,,,,,,,,,,,,,198865,18,2022-01-29_09h06.33.420,lexical_decision_task_DD_L6,2021.2.3,Win32,143.9884809,,,,,,,,,,,0.6307,1,,,,,,,,,,,,,,,,,,,,,,,,,-0.001851839,-0.401851865,0,0,0,,,,,,,STREAM,HB,m,y,./images/STREAMHB.png,,,,,,,m,1,0.6307,,,,,,,,0,91,91,41,1
,,,,,,,,,,,,,,,,,198865,18,2022-01-29_09h06.33.420,lexical_decision_task_DD_L6,2021.2.3,Win32,143.9884809,,,,,,,,,,,0.6256,1,,,,,,,,,,,,,,,,,,,,,,,,,-0.001851839,-0.401851865,0,0,0,,,,,,,WHEEL,HB,m,y,./images/WHEELHB.png,,,,,,,m,1,0.6256,,,,,,,,0,92,92,77,1
,,,,,,,,,,,,,,,,,198865,18,2022-01-29_09h06.33.420,lexical_decision_task_DD_L6,2021.2.3,Win32,143.9884809,,,,,,,,,,,0.7582,1,,,,,,,,,,,,,,,,,,,,,,,,,-0.001851839,-0.401851865,0,0,0,,,,,,,DIVER,LB,m,y,./images/DIVERLB.png,,,,,,,m,1,0.7582,,,,,,,,0,93,93,9,1
,,,,,,,,,,,,,,,,,198865,18,2022-01-29_09h06.33.420,lexical_decision_task_DD_L6,2021.2.3,Win32,143.9884809,,,,,,,,,,,1.1692,1,,,,,,,,,,,,,,,,,,,,,,,,,-0.001851839,-0.401851865,0,0,0,,,,,,,MOOSE,LB,z,y,./images/MOOSELB.png,,,,,,,z,1,1.1692,,,,,,,,0,94,94,141,1
,,,,,,,,,,,,,,,,,198865,18,2022-01-29_09h06.33.420,lexical_decision_task_DD_L6,2021.2.3,Win32,143.9884809,,,,,,,,,,,0.7765,1,,,,,,,,,,,,,,,,,,,,,,,,,-0.001851839,-0.401851865,0,0,0,,,,,,,CANDY,LB,m,y,./images/CANDYLB.png,,,,,,,m,1,0.7765,,,,,,,,0,95,95,39,1
,,,,,,,,,,,,,,,,,198865,18,2022-01-29_09h06.33.420,lexical_decision_task_DD_L6,2021.2.3,Win32,143.9884809,,,,,,,,,,,0.8789,1,,,,,,,,,,,,,,,,,,,,,,,,,-0.001851839,-0.401851865,0,0,0,,,,,,,SNACK,C,z,y,./images/SNACK.png,,,,,,,z,1,0.8789,,,,,,,,0,96,96,157,1
,,,,,,,,,,,,,,,,,198865,18,2022-01-29_09h06.33.420,lexical_decision_task_DD_L6,2021.2.3,Win32,143.9884809,,,,,,,,,,,0.7004,1,,,,,,,,,,,,,,,,,,,,,,,,,-0.001851839,-0.401851865,0,0,0,,,,,,,BASKET,HB,m,y,./images/BASKETHB.png,,,,,,,m,1,0.7004,,,,,,,,0,97,97,44,1
,,,,,,,,,,,,,,,,,198865,18,2022-01-29_09h06.33.420,lexical_decision_task_DD_L6,2021.2.3,Win32,143.9884809,,,,,,,,,,,0.6025,1,,,,,,,,,,,,,,,,,,,,,,,,,-0.001851839,-0.401851865,0,0,0,,,,,,,MAMMAL,HB,m,y,./images/MAMMALHB.png,,,,,,,m,1,0.6025,,,,,,,,0,98,98,62,1
,,,,,,,,,,,,,,,,,198865,18,2022-01-29_09h06.33.420,lexical_decision_task_DD_L6,2021.2.3,Win32,143.9884809,,,,,,,,,,,0.6467,1,,,,,,,,,,,,,,,,,,,,,,,,,-0.001851839,-0.401851865,0,0,0,,,,,,,MIDGET,C,m,y,./images/MIDGET.png,,,,,,,m,1,0.6467,,,,,,,,0,99,99,76,1
,,,,,,,,,,,,,,,,,198865,18,2022-01-29_09h06.33.420,lexical_decision_task_DD_L6,2021.2.3,Win32,143.9884809,,,,,,,,,,,0.9564,1,,,,,,,,,,,,,,,,,,,,,,,,,-0.001851839,-0.401851865,0,0,0,,,,,,,BAMBOO,HB,m,y,./images/BAMBOOHB.png,,,,,,,m,1,0.9564,,,,,,,,0,100,100,5,1
,,,,,,,,,,,,,,,,,198865,18,2022-01-29_09h06.33.420,lexical_decision_task_DD_L6,2021.2.3,Win32,143.9884809,,,,,,,,,,,0.79,1,,,,,,,,,,,,,,,,,,,,,,,,,-0.001851839,-0.401851865,0,0,0,,,,,,,CRUMB,HB,z,y,./images/CRUMBHB.png,,,,,,,z,1,0.79,,,,,,,,0,101,101,113,1
,,,,,,,,,,,,,,,,,198865,18,2022-01-29_09h06.33.420,lexical_decision_task_DD_L6,2021.2.3,Win32,143.9884809,,,,,,,,,,,0.604,1,,,,,,,,,,,,,,,,,,,,,,,,,-0.001851839,-0.401851865,0,0,0,,,,,,,ALLEY,C,m,y,./images/ALLEY.png,,,,,,,m,1,0.604,,,,,,,,0,102,102,55,1
,,,,,,,,,,,,,,,,,198865,18,2022-01-29_09h06.33.420,lexical_decision_task_DD_L6,2021.2.3,Win32,143.9884809,,,,,,,,,,,1.0613,1,,,,,,,,,,,,,,,,,,,,,,,,,-0.001851839,-0.401851865,0,0,0,,,,,,,FARMER,HB,z,y,./images/FARMERHB.png,,,,,,,z,1,1.0613,,,,,,,,0,103,103,149,1
,,,,,,,,,,,,,,,,,198865,18,2022-01-29_09h06.33.420,lexical_decision_task_DD_L6,2021.2.3,Win32,143.9884809,,,,,,,,,,,0.895,1,,,,,,,,,,,,,,,,,,,,,,,,,-0.001851839,-0.401851865,0,0,0,,,,,,,CRADLE,HB,z,y,./images/CRADLEHB.png,,,,,,,z,1,0.895,,,,,,,,0,104,104,104,1
,,,,,,,,,,,,,,,,,198865,18,2022-01-29_09h06.33.420,lexical_decision_task_DD_L6,2021.2.3,Win32,143.9884809,,,,,,,,,,,0.7057,1,,,,,,,,,,,,,,,,,,,,,,,,,-0.001851839,-0.401851865,0,0,0,,,,,,,WAGON,C,m,y,./images/WAGON.png,,,,,,,m,1,0.7057,,,,,,,,0,105,105,7,1
,,,,,,,,,,,,,,,,,198865,18,2022-01-29_09h06.33.420,lexical_decision_task_DD_L6,2021.2.3,Win32,143.9884809,,,,,,,,,,,0.757,1,,,,,,,,,,,,,,,,,,,,,,,,,-0.001851839,-0.401851865,0,0,0,,,,,,,POKER,C,m,y,./images/POKER.png,,,,,,,m,1,0.757,,,,,,,,0,106,106,67,1
,,,,,,,,,,,,,,,,,198865,18,2022-01-29_09h06.33.420,lexical_decision_task_DD_L6,2021.2.3,Win32,143.9884809,,,,,,,,,,,1.7309,1,,,,,,,,,,,,,,,,,,,,,,,,,-0.001851839,-0.401851865,0,0,0,,,,,,,SMOKER,HB,z,y,./images/SMOKERHB.png,,,,,,,z,1,1.7309,,,,,,,,0,107,107,110,1
,,,,,,,,,,,,,,,,,198865,18,2022-01-29_09h06.33.420,lexical_decision_task_DD_L6,2021.2.3,Win32,143.9884809,,,,,,,,,,,0.7834,1,,,,,,,,,,,,,,,,,,,,,,,,,-0.001851839,-0.401851865,0,0,0,,,,,,,FENCE,HB,m,y,./images/FENCEHB.png,,,,,,,m,1,0.7834,,,,,,,,0,108,108,14,1
,,,,,,,,,,,,,,,,,198865,18,2022-01-29_09h06.33.420,lexical_decision_task_DD_L6,2021.2.3,Win32,143.9884809,,,,,,,,,,,1.148,1,,,,,,,,,,,,,,,,,,,,,,,,,-0.001851839,-0.401851865,0,0,0,,,,,,,PAINT,C,z,y,./images/PAINT.png,,,,,,,z,1,1.148,,,,,,,,0,109,109,91,1
,,,,,,,,,,,,,,,,,198865,18,2022-01-29_09h06.33.420,lexical_decision_task_DD_L6,2021.2.3,Win32,143.9884809,,,,,,,,,,,0.7849,1,,,,,,,,,,,,,,,,,,,,,,,,,-0.001851839,-0.401851865,0,0,0,,,,,,,GRANNY,HB,m,y,./images/GRANNYHB.png,,,,,,,m,1,0.7849,,,,,,,,0,110,110,20,1
,,,,,,,,,,,,,,,,,198865,18,2022-01-29_09h06.33.420,lexical_decision_task_DD_L6,2021.2.3,Win32,143.9884809,,,,,,,,,,,0.6246,1,,,,,,,,,,,,,,,,,,,,,,,,,-0.001851839,-0.401851865,0,0,0,,,,,,,BUNNY,C,m,y,./images/BUNNY.png,,,,,,,m,1,0.6246,,,,,,,,0,111,111,13,1
,,,,,,,,,,,,,,,,,198865,18,2022-01-29_09h06.33.420,lexical_decision_task_DD_L6,2021.2.3,Win32,143.9884809,,,,,,,,,,,0.7273,1,,,,,,,,,,,,,,,,,,,,,,,,,-0.001851839,-0.401851865,0,0,0,,,,,,,TRIPOD,LB,z,y,./images/TRIPODLB.png,,,,,,,z,1,0.7273,,,,,,,,0,112,112,138,1
,,,,,,,,,,,,,,,,,198865,18,2022-01-29_09h06.33.420,lexical_decision_task_DD_L6,2021.2.3,Win32,143.9884809,,,,,,,,,,,1.6883,1,,,,,,,,,,,,,,,,,,,,,,,,,-0.001851839,-0.401851865,0,0,0,,,,,,,BABOON,C,z,y,./images/BABOON.png,,,,,,,z,1,1.6883,,,,,,,,0,113,113,142,1
,,,,,,,,,,,,,,,,,198865,18,2022-01-29_09h06.33.420,lexical_decision_task_DD_L6,2021.2.3,Win32,143.9884809,,,,,,,,,,,0.675,0,,,,,,,,,,,,,,,,,,,,,,,,,-0.001851839,-0.401851865,0,0,0,,,,,,,SCREW,LB,z,y,./images/SCREWLB.png,,,,,,,m,0,0.675,,,,,,,,0,114,114,108,1
,,,,,,,,,,,,,,,,,198865,18,2022-01-29_09h06.33.420,lexical_decision_task_DD_L6,2021.2.3,Win32,143.9884809,,,,,,,,,,,0.6042,1,,,,,,,,,,,,,,,,,,,,,,,,,-0.001851839,-0.401851865,0,0,0,,,,,,,DANCER,LB,m,y,./images/DANCERLB.png,,,,,,,m,1,0.6042,,,,,,,,0,115,115,21,1
,,,,,,,,,,,,,,,,,198865,18,2022-01-29_09h06.33.420,lexical_decision_task_DD_L6,2021.2.3,Win32,143.9884809,,,,,,,,,,,0.6023,1,,,,,,,,,,,,,,,,,,,,,,,,,-0.001851839,-0.401851865,0,0,0,,,,,,,CLOWN,C,m,y,./images/CLOWN.png,,,,,,,m,1,0.6023,,,,,,,,0,116,116,22,1
,,,,,,,,,,,,,,,,,198865,18,2022-01-29_09h06.33.420,lexical_decision_task_DD_L6,2021.2.3,Win32,143.9884809,,,,,,,,,,,0.6802,1,,,,,,,,,,,,,,,,,,,,,,,,,-0.001851839,-0.401851865,0,0,0,,,,,,,BONNET,HB,z,y,./images/BONNETHB.png,,,,,,,z,1,0.6802,,,,,,,,0,117,117,95,1
,,,,,,,,,,,,,,,,,198865,18,2022-01-29_09h06.33.420,lexical_decision_task_DD_L6,2021.2.3,Win32,143.9884809,,,,,,,,,,,0.7973,1,,,,,,,,,,,,,,,,,,,,,,,,,-0.001851839,-0.401851865,0,0,0,,,,,,,SKIING,HB,z,y,./images/SKIINGHB.png,,,,,,,z,1,0.7973,,,,,,,,0,118,118,101,1
,,,,,,,,,,,,,,,,,198865,18,2022-01-29_09h06.33.420,lexical_decision_task_DD_L6,2021.2.3,Win32,143.9884809,,,,,,,,,,,0.6791,1,,,,,,,,,,,,,,,,,,,,,,,,,-0.001851839,-0.401851865,0,0,0,,,,,,,MOSQUE,C,z,y,./images/MOSQUE.png,,,,,,,z,1,0.6791,,,,,,,,0,119,119,127,1
,,,,,,,,,,,,,,,,,198865,18,2022-01-29_09h06.33.420,lexical_decision_task_DD_L6,2021.2.3,Win32,143.9884809,,,,,,,,,,,0.984,1,,,,,,,,,,,,,,,,,,,,,,,,,-0.001851839,-0.401851865,0,0,0,,,,,,,MAGGOT,LB,z,y,./images/MAGGOTLB.png,,,,,,,z,1,0.984,,,,,,,,0,120,120,117,1
,,,,,,,,,,,,,,,,,198865,18,2022-01-29_09h06.33.420,lexical_decision_task_DD_L6,2021.2.3,Win32,143.9884809,,,,,,,,,,,0.687,1,,,,,,,,,,,,,,,,,,,,,,,,,-0.001851839,-0.401851865,0,0,0,,,,,,,ARTIST,C,m,y,./images/ARTIST.png,,,,,,,m,1,0.687,,,,,,,,0,121,121,61,1
,,,,,,,,,,,,,,,,,198865,18,2022-01-29_09h06.33.420,lexical_decision_task_DD_L6,2021.2.3,Win32,143.9884809,,,,,,,,,,,0.6028,1,,,,,,,,,,,,,,,,,,,,,,,,,-0.001851839,-0.401851865,0,0,0,,,,,,,SHIELD,LB,m,y,./images/SHIELDLB.png,,,,,,,m,1,0.6028,,,,,,,,0,122,122,48,1
,,,,,,,,,,,,,,,,,198865,18,2022-01-29_09h06.33.420,lexical_decision_task_DD_L6,2021.2.3,Win32,143.9884809,,,,,,,,,,,0.7194,1,,,,,,,,,,,,,,,,,,,,,,,,,-0.001851839,-0.401851865,0,0,0,,,,,,,PARCEL,LB,m,y,./images/PARCELLB.png,,,,,,,m,1,0.7194,,,,,,,,0,123,123,18,1
,,,,,,,,,,,,,,,,,198865,18,2022-01-29_09h06.33.420,lexical_decision_task_DD_L6,2021.2.3,Win32,143.9884809,,,,,,,,,,,0.6242,1,,,,,,,,,,,,,,,,,,,,,,,,,-0.001851839,-0.401851865,0,0,0,,,,,,,PARADE,HB,m,y,./images/PARADEHB.png,,,,,,,m,1,0.6242,,,,,,,,0,124,124,17,1
,,,,,,,,,,,,,,,,,198865,18,2022-01-29_09h06.33.420,lexical_decision_task_DD_L6,2021.2.3,Win32,143.9884809,,,,,,,,,,,0.7675,1,,,,,,,,,,,,,,,,,,,,,,,,,-0.001851839,-0.401851865,0,0,0,space,,,,,,FALCON,C,z,y,./images/FALCON.png,0.9249,,,,,,z,1,0.7675,,,,,,,,0,125,125,112,1
,,,,,,,,,,,,,,,,,198865,18,2022-01-29_09h06.33.420,lexical_decision_task_DD_L6,2021.2.3,Win32,143.9884809,,,,,,,,,,,0.7016,1,,,,,,,,,,,,,,,,,,,,,,,,,-0.001851839,-0.401851865,0,0,0,,,,,,,CRATER,LB,m,y,./images/CRATERLB.png,,,,,,,m,1,0.7016,,,,,,,,0,126,126,3,1
,,,,,,,,,,,,,,,,,198865,18,2022-01-29_09h06.33.420,lexical_decision_task_DD_L6,2021.2.3,Win32,143.9884809,,,,,,,,,,,0.7923,1,,,,,,,,,,,,,,,,,,,,,,,,,-0.001851839,-0.401851865,0,0,0,,,,,,,ATTIC,LB,z,y,./images/ATTICLB.png,,,,,,,z,1,0.7923,,,,,,,,0,127,127,111,1
,,,,,,,,,,,,,,,,,198865,18,2022-01-29_09h06.33.420,lexical_decision_task_DD_L6,2021.2.3,Win32,143.9884809,,,,,,,,,,,0.5983,1,,,,,,,,,,,,,,,,,,,,,,,,,-0.001851839,-0.401851865,0,0,0,,,,,,,ARROW,LB,m,y,./images/ARROWLB.png,,,,,,,m,1,0.5983,,,,,,,,0,128,128,69,1
,,,,,,,,,,,,,,,,,198865,18,2022-01-29_09h06.33.420,lexical_decision_task_DD_L6,2021.2.3,Win32,143.9884809,,,,,,,,,,,2.5082,0,,,,,,,,,,,,,,,,,,,,,,,,,-0.001851839,-0.401851865,0,0,0,,,,,,,CANDLE,C,z,y,./images/CANDLE.png,,,,,,,m,0,2.5082,,,,,,,,0,129,129,145,1
,,,,,,,,,,,,,,,,,198865,18,2022-01-29_09h06.33.420,lexical_decision_task_DD_L6,2021.2.3,Win32,143.9884809,,,,,,,,,,,0.7221,1,,,,,,,,,,,,,,,,,,,,,,,,,-0.001851839,-0.401851865,0,0,0,,,,,,,CLIFF,HB,m,y,./images/CLIFFHB.png,,,,,,,m,1,0.7221,,,,,,,,0,130,130,8,1
,,,,,,,,,,,,,,,,,198865,18,2022-01-29_09h06.33.420,lexical_decision_task_DD_L6,2021.2.3,Win32,143.9884809,,,,,,,,,,,0.7603,1,,,,,,,,,,,,,,,,,,,,,,,,,-0.001851839,-0.401851865,0,0,0,,,,,,,HAMMER,LB,m,y,./images/HAMMERLB.png,,,,,,,m,1,0.7603,,,,,,,,0,131,131,75,1
,,,,,,,,,,,,,,,,,198865,18,2022-01-29_09h06.33.420,lexical_decision_task_DD_L6,2021.2.3,Win32,143.9884809,,,,,,,,,,,0.705,1,,,,,,,,,,,,,,,,,,,,,,,,,-0.001851839,-0.401851865,0,0,0,,,,,,,GRAIN,LB,z,y,./images/GRAINLB.png,,,,,,,z,1,0.705,,,,,,,,0,132,132,159,1
,,,,,,,,,,,,,,,,,198865,18,2022-01-29_09h06.33.420,lexical_decision_task_DD_L6,2021.2.3,Win32,143.9884809,,,,,,,,,,,0.4917,1,,,,,,,,,,,,,,,,,,,,,,,,,-0.001851839,-0.401851865,0,0,0,,,,,,,PICKLE,HB,z,y,./images/PICKLEHB.png,,,,,,,z,1,0.4917,,,,,,,,0,133,133,98,1
,,,,,,,,,,,,,,,,,198865,18,2022-01-29_09h06.33.420,lexical_decision_task_DD_L6,2021.2.3,Win32,143.9884809,,,,,,,,,,,0.535,1,,,,,,,,,,,,,,,,,,,,,,,,,-0.001851839,-0.401851865,0,0,0,,,,,,,LIZARD,HB,z,y,./images/LIZARDHB.png,,,,,,,z,1,0.535,,,,,,,,0,134,134,128,1
,,,,,,,,,,,,,,,,,198865,18,2022-01-29_09h06.33.420,lexical_decision_task_DD_L6,2021.2.3,Win32,143.9884809,,,,,,,,,,,0.6682,1,,,,,,,,,,,,,,,,,,,,,,,,,-0.001851839,-0.401851865,0,0,0,,,,,,,PURSE,HB,z,y,./images/PURSEHB.png,,,,,,,z,1,0.6682,,,,,,,,0,135,135,146,1
,,,,,,,,,,,,,,,,,198865,18,2022-01-29_09h06.33.420,lexical_decision_task_DD_L6,2021.2.3,Win32,143.9884809,,,,,,,,,,,0.8272,0,,,,,,,,,,,,,,,,,,,,,,,,,-0.001851839,-0.401851865,0,0,0,,,,,,,SNAKE,C,m,y,./images/SNAKE.png,,,,,,,z,0,0.8272,,,,,,,,0,136,136,40,1
,,,,,,,,,,,,,,,,,198865,18,2022-01-29_09h06.33.420,lexical_decision_task_DD_L6,2021.2.3,Win32,143.9884809,,,,,,,,,,,0.7191,1,,,,,,,,,,,,,,,,,,,,,,,,,-0.001851839,-0.401851865,0,0,0,,,,,,,DONKEY,C,m,y,./images/DONKEY.png,,,,,,,m,1,0.7191,,,,,,,,0,137,137,19,1
,,,,,,,,,,,,,,,,,198865,18,2022-01-29_09h06.33.420,lexical_decision_task_DD_L6,2021.2.3,Win32,143.9884809,,,,,,,,,,,0.8168,1,,,,,,,,,,,,,,,,,,,,,,,,,-0.001851839,-0.401851865,0,0,0,,,,,,,PACKET,HB,z,y,./images/PACKETHB.png,,,,,,,z,1,0.8168,,,,,,,,0,138,138,140,1
,,,,,,,,,,,,,,,,,198865,18,2022-01-29_09h06.33.420,lexical_decision_task_DD_L6,2021.2.3,Win32,143.9884809,,,,,,,,,,,0.7332,1,,,,,,,,,,,,,,,,,,,,,,,,,-0.001851839,-0.401851865,0,0,0,,,,,,,CHALK,C,m,y,./images/CHALK.png,,,,,,,m,1,0.7332,,,,,,,,0,139,139,25,1
,,,,,,,,,,,,,,,,,198865,18,2022-01-29_09h06.33.420,lexical_decision_task_DD_L6,2021.2.3,Win32,143.9884809,,,,,,,,,,,0.7261,1,,,,,,,,,,,,,,,,,,,,,,,,,-0.001851839,-0.401851865,0,0,0,,,,,,,TORCH,HB,z,y,./images/TORCHHB.png,,,,,,,z,1,0.7261,,,,,,,,0,140,140,152,1
,,,,,,,,,,,,,,,,,198865,18,2022-01-29_09h06.33.420,lexical_decision_task_DD_L6,2021.2.3,Win32,143.9884809,,,,,,,,,,,0.7932,1,,,,,,,,,,,,,,,,,,,,,,,,,-0.001851839,-0.401851865,0,0,0,,,,,,,QUILL,C,z,y,./images/QUILL.png,,,,,,,z,1,0.7932,,,,,,,,0,141,141,115,1
,,,,,,,,,,,,,,,,,198865,18,2022-01-29_09h06.33.420,lexical_decision_task_DD_L6,2021.2.3,Win32,143.9884809,,,,,,,,,,,0.5983,1,,,,,,,,,,,,,,,,,,,,,,,,,-0.001851839,-0.401851865,0,0,0,,,,,,,WEASEL,HB,z,y,./images/WEASELHB.png,,,,,,,z,1,0.5983,,,,,,,,0,142,142,164,1
,,,,,,,,,,,,,,,,,198865,18,2022-01-29_09h06.33.420,lexical_decision_task_DD_L6,2021.2.3,Win32,143.9884809,,,,,,,,,,,0.6672,1,,,,,,,,,,,,,,,,,,,,,,,,,0.01203705,-0.448148162,0,0,0,,,,,,,TULIP,HB,z,y,./images/TULIPHB.png,,,,,,,z,1,0.6672,,,,,,,,0,143,143,92,1
,,,,,,,,,,,,,,,,,198865,18,2022-01-29_09h06.33.420,lexical_decision_task_DD_L6,2021.2.3,Win32,143.9884809,,,,,,,,,,,0.8959,1,,,,,,,,,,,,,,,,,,,,,,,,,0.01203705,-0.448148162,0,0,0,,,,,,,BUTTER,LB,m,y,./images/BUTTERLB.png,,,,,,,m,1,0.8959,,,,,,,,0,144,144,27,1
,,,,,,,,,,,,,,,,,198865,18,2022-01-29_09h06.33.420,lexical_decision_task_DD_L6,2021.2.3,Win32,143.9884809,,,,,,,,,,,0.7473,1,,,,,,,,,,,,,,,,,,,,,,,,,0.01203705,-0.448148162,0,0,0,,,,,,,PISTOL,HB,m,y,./images/PISTOLHB.png,,,,,,,m,1,0.7473,,,,,,,,0,145,145,29,1
,,,,,,,,,,,,,,,,,198865,18,2022-01-29_09h06.33.420,lexical_decision_task_DD_L6,2021.2.3,Win32,143.9884809,,,,,,,,,,,0.6869,1,,,,,,,,,,,,,,,,,,,,,,,,,0.01203705,-0.448148162,0,0,0,,,,,,,SAUNA,LB,m,y,./images/SAUNALB.png,,,,,,,m,1,0.6869,,,,,,,,0,146,146,33,1
,,,,,,,,,,,,,,,,,198865,18,2022-01-29_09h06.33.420,lexical_decision_task_DD_L6,2021.2.3,Win32,143.9884809,,,,,,,,,,,0.6425,1,,,,,,,,,,,,,,,,,,,,,,,,,0.01203705,-0.448148162,0,0,0,,,,,,,STOVE,HB,m,y,./images/STOVEHB.png,,,,,,,m,1,0.6425,,,,,,,,0,147,147,2,1
,,,,,,,,,,,,,,,,,198865,18,2022-01-29_09h06.33.420,lexical_decision_task_DD_L6,2021.2.3,Win32,143.9884809,,,,,,,,,,,0.7253,1,,,,,,,,,,,,,,,,,,,,,,,,,0.01203705,-0.448148162,0,0,0,,,,,,,CHERRY,LB,m,y,./images/CHERRYLB.png,,,,,,,m,1,0.7253,,,,,,,,0,148,148,54,1
,,,,,,,,,,,,,,,,,198865,18,2022-01-29_09h06.33.420,lexical_decision_task_DD_L6,2021.2.3,Win32,143.9884809,,,,,,,,,,,0.6627,1,,,,,,,,,,,,,,,,,,,,,,,,,0.01203705,-0.448148162,0,0,0,,,,,,,SAUCE,LB,m,y,./images/SAUCELB.png,,,,,,,m,1,0.6627,,,,,,,,0,149,149,51,1
,,,,,,,,,,,,,,,,,198865,18,2022-01-29_09h06.33.420,lexical_decision_task_DD_L6,2021.2.3,Win32,143.9884809,,,,,,,,,,,0.612,1,,,,,,,,,,,,,,,,,,,,,,,,,0.01203705,-0.448148162,0,0,0,,,,,,,BAKER,LB,m,y,./images/BAKERLB.png,,,,,,,m,1,0.612,,,,,,,,0,150,150,63,1
,,,,,,,,,,,,,,,,,198865,18,2022-01-29_09h06.33.420,lexical_decision_task_DD_L6,2021.2.3,Win32,143.9884809,,,,,,,,,,,0.8646,1,,,,,,,,,,,,,,,,,,,,,,,,,0.01203705,-0.448148162,0,0,0,,,,,,,FOLDER,LB,z,y,./images/FOLDERLB.png,,,,,,,z,1,0.8646,,,,,,,,0,151,151,126,1
,,,,,,,,,,,,,,,,,198865,18,2022-01-29_09h06.33.420,lexical_decision_task_DD_L6,2021.2.3,Win32,143.9884809,,,,,,,,,,,0.8095,1,,,,,,,,,,,,,,,,,,,,,,,,,0.01203705,-0.448148162,0,0,0,,,,,,,JELLY,C,z,y,./images/JELLY.png,,,,,,,z,1,0.8095,,,,,,,,0,152,152,148,1
,,,,,,,,,,,,,,,,,198865,18,2022-01-29_09h06.33.420,lexical_decision_task_DD_L6,2021.2.3,Win32,143.9884809,,,,,,,,,,,0.7138,1,,,,,,,,,,,,,,,,,,,,,,,,,0.01203705,-0.448148162,0,0,0,,,,,,,CRUST,C,z,y,./images/CRUST.png,,,,,,,z,1,0.7138,,,,,,,,0,153,153,163,1
,,,,,,,,,,,,,,,,,198865,18,2022-01-29_09h06.33.420,lexical_decision_task_DD_L6,2021.2.3,Win32,143.9884809,,,,,,,,,,,0.6284,1,,,,,,,,,,,,,,,,,,,,,,,,,0.01203705,-0.448148162,0,0,0,,,,,,,BOXER,C,m,y,./images/BOXER.png,,,,,,,m,1,0.6284,,,,,,,,0,154,154,4,1
,,,,,,,,,,,,,,,,,198865,18,2022-01-29_09h06.33.420,lexical_decision_task_DD_L6,2021.2.3,Win32,143.9884809,,,,,,,,,,,0.7533,1,,,,,,,,,,,,,,,,,,,,,,,,,0.01203705,-0.448148162,0,0,0,,,,,,,MIRROR,LB,z,y,./images/MIRRORLB.png,,,,,,,z,1,0.7533,,,,,,,,0,155,155,147,1
,,,,,,,,,,,,,,,,,198865,18,2022-01-29_09h06.33.420,lexical_decision_task_DD_L6,2021.2.3,Win32,143.9884809,,,,,,,,,,,0.7933,1,,,,,,,,,,,,,,,,,,,,,,,,,0.01203705,-0.448148162,0,0,0,,,,,,,BEARD,HB,z,y,./images/BEARDHB.png,,,,,,,z,1,0.7933,,,,,,,,0,156,156,86,1
,,,,,,,,,,,,,,,,,198865,18,2022-01-29_09h06.33.420,lexical_decision_task_DD_L6,2021.2.3,Win32,143.9884809,,,,,,,,,,,0.7617,1,,,,,,,,,,,,,,,,,,,,,,,,,0.01203705,-0.448148162,0,0,0,,,,,,,BLOKE,LB,m,y,./images/BLOKELB.png,,,,,,,m,1,0.7617,,,,,,,,0,157,157,12,1
,,,,,,,,,,,,,,,,,198865,18,2022-01-29_09h06.33.420,lexical_decision_task_DD_L6,2021.2.3,Win32,143.9884809,,,,,,,,,,,0.799,1,,,,,,,,,,,,,,,,,,,,,,,,,0.01203705,-0.448148162,0,0,0,,,,,,,SPORT,LB,z,y,./images/SPORTLB.png,,,,,,,z,1,0.799,,,,,,,,0,158,158,132,1
,,,,,,,,,,,,,,,,,198865,18,2022-01-29_09h06.33.420,lexical_decision_task_DD_L6,2021.2.3,Win32,143.9884809,,,,,,,,,,,0.6352,1,,,,,,,,,,,,,,,,,,,,,,,,,0.01203705,-0.448148162,0,0,0,,,,,,,SPINE,HB,m,y,./images/SPINEHB.png,,,,,,,m,1,0.6352,,,,,,,,0,159,159,65,1
,,,,,,,,,,,,,,,,,198865,18,2022-01-29_09h06.33.420,lexical_decision_task_DD_L6,2021.2.3,Win32,143.9884809,,,,,,,,,,,0.6678,1,,,,,,,,,,,,,,,,,,,,,,,,,0.01203705,-0.448148162,0,0,0,,,,,,,CARPET,HB,z,y,./images/CARPETHB.png,,,,,,,z,1,0.6678,,,,,,,,0,160,160,137,1
,,,,,,,,,,,,,,,,,198865,18,2022-01-29_09h06.33.420,lexical_decision_task_DD_L6,2021.2.3,Win32,143.9884809,,,,,,,,,,,0.8366,1,,,,,,,,,,,,,,,,,,,,,,,,,0.01203705,-0.448148162,0,0,0,,,,,,,BUBBLE,HB,m,y,./images/BUBBLEHB.png,,,,,,,m,1,0.8366,,,,,,,,0,161,161,71,1
,,,,,,,,,,,,,,,,,198865,18,2022-01-29_09h06.33.420,lexical_decision_task_DD_L6,2021.2.3,Win32,143.9884809,,,,,,,,,,,0.6153,1,,,,,,,,,,,,,,,,,,,,,,,,,0.01203705,-0.448148162,0,0,0,,,,,,,VALLEY,HB,m,y,./images/VALLEYHB.png,,,,,,,m,1,0.6153,,,,,,,,0,162,162,68,1
,,,,,,,,,,,,,,,,,198865,18,2022-01-29_09h06.33.420,lexical_decision_task_DD_L6,2021.2.3,Win32,143.9884809,,,,,,,,,,,0.7457,1,,,,,,,,,,,,,,,,,,,,,,,,,0.01203705,-0.448148162,0,0,0,,,,,,,DESERT,C,m,y,./images/DESERT.png,,,,,,,m,1,0.7457,,,,,,,,0,163,163,52,1
,,,,,,,,,,,,,,,,,198865,18,2022-01-29_09h06.33.420,lexical_decision_task_DD_L6,2021.2.3,Win32,143.9884809,,,,,,,,,,,0.6429,1,,,,,,,,,,,,,,,,,,,,,,,,,0.01203705,-0.448148162,0,0,0,,,,,,,GLOVE,C,m,y,./images/GLOVE.png,,,,,,,m,1,0.6429,,,,,,,,0,164,164,73,1
,,,,,,,,,,,,,,,,,198865,18,2022-01-29_09h06.33.420,lexical_decision_task_DD_L6,2021.2.3,Win32,143.9884809,,,,,,,,,,,0.5816,1,,,,,,,,,,,,,,,,,,,,,,,,,0.01203705,-0.448148162,0,0,0,,,,,,,COLLAR,LB,m,y,./images/COLLARLB.png,,,,,,,m,1,0.5816,,,,,,,,0,165,165,15,1
,,,,,,,,,,,,,,,,,198865,18,2022-01-29_09h06.33.420,lexical_decision_task_DD_L6,2021.2.3,Win32,143.9884809,,,,,,,,,,,0.8854,1,,,,,,,,,,,,,,,,,,,,,,,,,0.01203705,-0.448148162,0,0,0,,,,,,,LADDER,HB,z,y,./images/LADDERHB.png,,,,,,,z,1,0.8854,,,,,,,,0,166,166,122,1
,,,,,,,,,,,,,,,,,198865,18,2022-01-29_09h06.33.420,lexical_decision_task_DD_L6,2021.2.3,Win32,143.9884809,,,,,,,,,,,1.5917,1,,,,,,,,,,,,,,,,,,,,,,,,,0.01203705,-0.448148162,0,0,0,,,,,,,CURRY,LB,m,y,./images/CURRYLB.png,,,,,,,m,1,1.5917,,,,,,,,0,167,167,60,1
