key_resp.keys,key_resp.rt,instr_done_touch.x,instr_done_touch.y,instr_done_touch.leftButton,instr_done_touch.midButton,instr_done_touch.rightButton,instruction_pages.thisRepN,instruction_pages.thisTrialN,instruction_pages.thisN,instruction_pages.thisIndex,instruction_pages.ran,pageN,phase,instruct_text,has_image,instruct_image,participant,age,date,expName,psychopyVersion,OS,frameRate,response.keys,response.corr,response.rt,touch_resp.x,touch_resp.y,touch_resp.leftButton,touch_resp.midButton,touch_resp.rightButton,touch_resp.time,touch_resp.clicked_name,rt,corr,practrials.thisRepN,practrials.thisTrialN,practrials.thisN,practrials.thisIndex,practrials.ran,TrialID,Target,corrAns,end_of_practice_trials_pages.thisRepN,end_of_practice_trials_pages.thisTrialN,end_of_practice_trials_pages.thisN,end_of_practice_trials_pages.thisIndex,end_of_practice_trials_pages.ran,key_resp_2.keys,key_resp_2.corr,key_resp_2.rt,targ_click.x,targ_click.y,targ_click.leftButton,targ_click.midButton,targ_click.rightButton,targ_click.time,targ_click.clicked_name,break_done_touch.x,break_done_touch.y,break_done_touch.leftButton,break_done_touch.midButton,break_done_touch.rightButton,break_done_keyboard.keys,maintrials.thisRepN,maintrials.thisTrialN,maintrials.thisN,maintrials.thisIndex,maintrials.ran,string,blur,study,lex,stim_path,break_done_keyboard.rt,test_instructions.thisRepN,test_instructions.thisTrialN,test_instructions.thisN,test_instructions.thisIndex,test_instructions.ran,instr_done_touch.clicked_name,key_resp_3.keys,key_resp_3.corr,key_resp_3.rt,test_click.x,test_click.y,test_click.leftButton,test_click.midButton,test_click.rightButton,test_click.time,test_click.clicked_name,test_phase.thisRepN,test_phase.thisTrialN,test_phase.thisN,test_phase.thisIndex,test_phase.ran
space,51.195,0.105555556,-0.296666667,0,0,0,0,0,0,0,1,1,instructions,"INSTRUCTIONS
At the start of each trial, look at the plus sign  (+) in the center of the screen.  This tells you that a trial is about to begin and where to look. Second, the plus sign will disappear and a string of letters will appear. Your task is to determine if the string of letters is a word or not. If the item is a word press the M key (on keyboard)  or touch the word button (phone/tablet).  If the item is not a word,  press the  Z key (on keyboard)  or touch the nonword button (on phone/tablet). 
Press the space bar or touch  continue.",0,,198805,18,2022-01-28_20h53.20.524,lexical_decision_task_DD_L5,2021.2.3,MacIntel,58.82352941,,,,,,,,,,,,,,,,,,,,,,,,,,,,,,,,,,,,,,,,,,,,,,,,,,,,,,,,,,,,,,,,,,,,,,,,,
space,5.446,0.105555556,-0.296666667,0,0,0,0,1,1,1,1,2,instructions,"If your device has a keyboard, press the 'Z' key for nonwords and the 'M' key for words.





Press the space bar or touch the button below to continue.",0,keyboard-example.gif,198805,18,2022-01-28_20h53.20.524,lexical_decision_task_DD_L5,2021.2.3,MacIntel,58.82352941,,,,,,,,,,,,,,,,,,,,,,,,,,,,,,,,,,,,,,,,,,,,,,,,,,,,,,,,,,,,,,,,,,,,,,,,,
space,1.408,0.105555556,-0.296666667,0,0,0,0,2,2,2,1,3,instructions,"If you are using a touchscreen only device, use the buttons on the screen. Do not use the mouse.





Press the space bar or touch the button below to continue.",0,touchscreen-example.gif,198805,18,2022-01-28_20h53.20.524,lexical_decision_task_DD_L5,2021.2.3,MacIntel,58.82352941,,,,,,,,,,,,,,,,,,,,,,,,,,,,,,,,,,,,,,,,,,,,,,,,,,,,,,,,,,,,,,,,,,,,,,,,,
space,15.673,0.105555556,-0.296666667,0,0,0,0,3,3,3,1,4,instructions,"It is very important that you respond as quickly and accurately as possible, as each letter string will only be on the screen for two seconds. If you do not respond within this time, the message 'Too slow!' will be displayed and the experiment will progress to the next letter string. The first 20 trials will be practice trials and you will receive feedback on your answers. 

Press the space bar or touch the button below to start the practice trials.",0,,198805,18,2022-01-28_20h53.20.524,lexical_decision_task_DD_L5,2021.2.3,MacIntel,58.82352941,,,,,,,,,,,,,,,,,,,,,,,,,,,,,,,,,,,,,,,,,,,,,,,,,,,,,,,,,,,,,,,,,,,,,,,,,
,,,,,,,,,,,,,,,,,198805,18,2022-01-28_20h53.20.524,lexical_decision_task_DD_L5,2021.2.3,MacIntel,58.82352941,m,1,2.516,,,,,,,,2.516,1,0,0,0,1,1,1001,ADJUST,m,,,,,,,,,,,,,,,,,,,,,,,,,,,,,,,,,,,,,,,,,,,,,,,,,,,,,
,,,,,,,,,,,,,,,,,198805,18,2022-01-28_20h53.20.524,lexical_decision_task_DD_L5,2021.2.3,MacIntel,58.82352941,z,1,2.293,,,,,,,,2.293,1,0,1,1,12,1,1001,SPRINY,z,,,,,,,,,,,,,,,,,,,,,,,,,,,,,,,,,,,,,,,,,,,,,,,,,,,,,
,,,,,,,,,,,,,,,,,198805,18,2022-01-28_20h53.20.524,lexical_decision_task_DD_L5,2021.2.3,MacIntel,58.82352941,m,1,1.317,,,,,,,,1.317,1,0,2,2,3,1,1001,MATRIX,m,,,,,,,,,,,,,,,,,,,,,,,,,,,,,,,,,,,,,,,,,,,,,,,,,,,,,
,,,,,,,,,,,,,,,,,198805,18,2022-01-28_20h53.20.524,lexical_decision_task_DD_L5,2021.2.3,MacIntel,58.82352941,m,1,0.911,,,,,,,,0.911,1,0,3,3,6,1,1001,ZOMBIE,m,,,,,,,,,,,,,,,,,,,,,,,,,,,,,,,,,,,,,,,,,,,,,,,,,,,,,
,,,,,,,,,,,,,,,,,198805,18,2022-01-28_20h53.20.524,lexical_decision_task_DD_L5,2021.2.3,MacIntel,58.82352941,z,1,1.279,,,,,,,,1.279,1,0,4,4,8,1,1001,ASLERT,z,,,,,,,,,,,,,,,,,,,,,,,,,,,,,,,,,,,,,,,,,,,,,,,,,,,,,
,,,,,,,,,,,,,,,,,198805,18,2022-01-28_20h53.20.524,lexical_decision_task_DD_L5,2021.2.3,MacIntel,58.82352941,z,1,1.562,,,,,,,,1.562,1,0,5,5,10,1,1001,INLADE,z,,,,,,,,,,,,,,,,,,,,,,,,,,,,,,,,,,,,,,,,,,,,,,,,,,,,,
,,,,,,,,,,,,,,,,,198805,18,2022-01-28_20h53.20.524,lexical_decision_task_DD_L5,2021.2.3,MacIntel,58.82352941,z,1,1.393,,,,,,,,1.393,1,0,6,6,13,1,1001,ROUPET,z,,,,,,,,,,,,,,,,,,,,,,,,,,,,,,,,,,,,,,,,,,,,,,,,,,,,,
,,,,,,,,,,,,,,,,,198805,18,2022-01-28_20h53.20.524,lexical_decision_task_DD_L5,2021.2.3,MacIntel,58.82352941,z,1,1.261,,,,,,,,1.261,1,0,7,7,15,1,1001,WHAISE,z,,,,,,,,,,,,,,,,,,,,,,,,,,,,,,,,,,,,,,,,,,,,,,,,,,,,,
,,,,,,,,,,,,,,,,,198805,18,2022-01-28_20h53.20.524,lexical_decision_task_DD_L5,2021.2.3,MacIntel,58.82352941,z,1,0.845,,,,,,,,0.845,1,0,8,8,14,1,1001,THRALE,z,,,,,,,,,,,,,,,,,,,,,,,,,,,,,,,,,,,,,,,,,,,,,,,,,,,,,
,,,,,,,,,,,,,,,,,198805,18,2022-01-28_20h53.20.524,lexical_decision_task_DD_L5,2021.2.3,MacIntel,58.82352941,m,1,0.928,,,,,,,,0.928,1,0,9,9,2,1,1001,ALMOND,m,,,,,,,,,,,,,,,,,,,,,,,,,,,,,,,,,,,,,,,,,,,,,,,,,,,,,
,,,,,,,,,,,,,,,,,198805,18,2022-01-28_20h53.20.524,lexical_decision_task_DD_L5,2021.2.3,MacIntel,58.82352941,m,1,0.828,,,,,,,,0.828,1,0,10,10,4,1,1001,SQUEAK,m,,,,,,,,,,,,,,,,,,,,,,,,,,,,,,,,,,,,,,,,,,,,,,,,,,,,,
,,,,,,,,,,,,,,,,,198805,18,2022-01-28_20h53.20.524,lexical_decision_task_DD_L5,2021.2.3,MacIntel,58.82352941,z,1,1.101,,,,,,,,1.101,1,0,11,11,9,1,1001,FARINY,z,,,,,,,,,,,,,,,,,,,,,,,,,,,,,,,,,,,,,,,,,,,,,,,,,,,,,
,,,,,,,,,,,,,,,,,198805,18,2022-01-28_20h53.20.524,lexical_decision_task_DD_L5,2021.2.3,MacIntel,58.82352941,m,1,1.421,,,,,,,,1.421,1,0,12,12,5,1,1001,OBTAIN,m,,,,,,,,,,,,,,,,,,,,,,,,,,,,,,,,,,,,,,,,,,,,,,,,,,,,,
,,,,,,,,,,,,,,,,,198805,18,2022-01-28_20h53.20.524,lexical_decision_task_DD_L5,2021.2.3,MacIntel,58.82352941,z,0,3.519,,,,,,,,3.519,0,0,13,13,0,1,1001,UTOPIA,m,,,,,,,,,,,,,,,,,,,,,,,,,,,,,,,,,,,,,,,,,,,,,,,,,,,,,
,,,,,,,,,,,,,,,,,198805,18,2022-01-28_20h53.20.524,lexical_decision_task_DD_L5,2021.2.3,MacIntel,58.82352941,m,1,0.821,,,,,,,,0.821,1,0,14,14,7,1,1001,VOLUME,m,,,,,,,,,,,,,,,,,,,,,,,,,,,,,,,,,,,,,,,,,,,,,,,,,,,,,
,,,,,,,,,,,,,,,,,198805,18,2022-01-28_20h53.20.524,lexical_decision_task_DD_L5,2021.2.3,MacIntel,58.82352941,z,1,1.346,,,,,,,,1.346,1,0,15,15,11,1,1001,RASHET,z,,,,,,,,,,,,,,,,,,,,,,,,,,,,,,,,,,,,,,,,,,,,,,,,,,,,,
space,15.74,0.036666667,-0.351111111,0,0,0,,,,,,1,end_of_practice,"You have completed the practice trials. During the experimental trials, you will not receive feedback. 
Before you begin, please ensure that you are in a comfortable and quiet location and will not be disturbed for about 15 minutes, as we cannot use your data if you do not complete all the trials. 
 When you are ready to start the experimental trials, please press space or touch the button below.",,,198805,18,2022-01-28_20h53.20.524,lexical_decision_task_DD_L5,2021.2.3,MacIntel,58.82352941,,,,,,,,,,,,,,,,,,,,,0,0,0,0,1,,,,,,,,,,,,,,,,,,,,,,,,,,,,,,,,,,,,,,,,,,,,,,,,
,,,,,,,,,,,,,,,,,198805,18,2022-01-28_20h53.20.524,lexical_decision_task_DD_L5,2021.2.3,MacIntel,58.82352941,,,,,,,,,,,1.397,1,,,,,,,,,,,,,,z,1,1.397,,,,,,,,0.036666667,-0.351111111,0,0,0,,0,0,0,117,1,STEEG,C,old,z,./images/STEEG.png,,,,,,,,,,,,,,,,,,,,,,
,,,,,,,,,,,,,,,,,198805,18,2022-01-28_20h53.20.524,lexical_decision_task_DD_L5,2021.2.3,MacIntel,58.82352941,,,,,,,,,,,0.904,1,,,,,,,,,,,,,,m,1,0.904,,,,,,,,0.036666667,-0.351111111,0,0,0,,0,1,1,56,1,HEATER,C,old,m,./images/HEATER.png,,,,,,,,,,,,,,,,,,,,,,
,,,,,,,,,,,,,,,,,198805,18,2022-01-28_20h53.20.524,lexical_decision_task_DD_L5,2021.2.3,MacIntel,58.82352941,,,,,,,,,,,0.886,1,,,,,,,,,,,,,,m,1,0.886,,,,,,,,0.036666667,-0.351111111,0,0,0,,0,2,2,41,1,STREAM,C,old,m,./images/STREAM.png,,,,,,,,,,,,,,,,,,,,,,
,,,,,,,,,,,,,,,,,198805,18,2022-01-28_20h53.20.524,lexical_decision_task_DD_L5,2021.2.3,MacIntel,58.82352941,,,,,,,,,,,1.048,1,,,,,,,,,,,,,,m,1,1.048,,,,,,,,0.036666667,-0.351111111,0,0,0,,0,3,3,67,1,POKER,LB,old,m,./images/POKERLB.png,,,,,,,,,,,,,,,,,,,,,,
,,,,,,,,,,,,,,,,,198805,18,2022-01-28_20h53.20.524,lexical_decision_task_DD_L5,2021.2.3,MacIntel,58.82352941,,,,,,,,,,,0.645,1,,,,,,,,,,,,,,m,1,0.645,,,,,,,,0.036666667,-0.351111111,0,0,0,,0,4,4,5,1,BAMBOO,C,old,m,./images/BAMBOO.png,,,,,,,,,,,,,,,,,,,,,,
,,,,,,,,,,,,,,,,,198805,18,2022-01-28_20h53.20.524,lexical_decision_task_DD_L5,2021.2.3,MacIntel,58.82352941,,,,,,,,,,,1.146,1,,,,,,,,,,,,,,m,1,1.146,,,,,,,,0.036666667,-0.351111111,0,0,0,,0,5,5,27,1,BUTTER,HB,old,m,./images/BUTTERHB.png,,,,,,,,,,,,,,,,,,,,,,
,,,,,,,,,,,,,,,,,198805,18,2022-01-28_20h53.20.524,lexical_decision_task_DD_L5,2021.2.3,MacIntel,58.82352941,,,,,,,,,,,1.377,1,,,,,,,,,,,,,,z,1,1.377,,,,,,,,0.036666667,-0.351111111,0,0,0,,0,6,6,163,1,GAMBA,HB,old,z,./images/GAMBAHB.png,,,,,,,,,,,,,,,,,,,,,,
,,,,,,,,,,,,,,,,,198805,18,2022-01-28_20h53.20.524,lexical_decision_task_DD_L5,2021.2.3,MacIntel,58.82352941,,,,,,,,,,,0.889,1,,,,,,,,,,,,,,m,1,0.889,,,,,,,,0.036666667,-0.351111111,0,0,0,,0,7,7,69,1,ARROW,HB,old,m,./images/ARROWHB.png,,,,,,,,,,,,,,,,,,,,,,
,,,,,,,,,,,,,,,,,198805,18,2022-01-28_20h53.20.524,lexical_decision_task_DD_L5,2021.2.3,MacIntel,58.82352941,,,,,,,,,,,0.752,1,,,,,,,,,,,,,,m,1,0.752,,,,,,,,0.036666667,-0.351111111,0,0,0,,0,8,8,79,1,RULER,LB,old,m,./images/RULERLB.png,,,,,,,,,,,,,,,,,,,,,,
,,,,,,,,,,,,,,,,,198805,18,2022-01-28_20h53.20.524,lexical_decision_task_DD_L5,2021.2.3,MacIntel,58.82352941,,,,,,,,,,,1.096,1,,,,,,,,,,,,,,z,1,1.096,,,,,,,,0.036666667,-0.351111111,0,0,0,,0,9,9,88,1,GLUSH,HB,old,z,./images/GLUSHHB.png,,,,,,,,,,,,,,,,,,,,,,
,,,,,,,,,,,,,,,,,198805,18,2022-01-28_20h53.20.524,lexical_decision_task_DD_L5,2021.2.3,MacIntel,58.82352941,,,,,,,,,,,2.695,1,,,,,,,,,,,,,,z,1,2.695,,,,,,,,0.036666667,-0.351111111,0,0,0,,0,10,10,127,1,NINDY,HB,old,z,./images/NINDYHB.png,,,,,,,,,,,,,,,,,,,,,,
,,,,,,,,,,,,,,,,,198805,18,2022-01-28_20h53.20.524,lexical_decision_task_DD_L5,2021.2.3,MacIntel,58.82352941,,,,,,,,,,,2.795,1,,,,,,,,,,,,,,z,1,2.795,,,,,,,,0.036666667,-0.351111111,0,0,0,,0,11,11,85,1,CHULK,HB,old,z,./images/CHULKHB.png,,,,,,,,,,,,,,,,,,,,,,
,,,,,,,,,,,,,,,,,198805,18,2022-01-28_20h53.20.524,lexical_decision_task_DD_L5,2021.2.3,MacIntel,58.82352941,,,,,,,,,,,1.531,1,,,,,,,,,,,,,,z,1,1.531,,,,,,,,0.036666667,-0.351111111,0,0,0,,0,12,12,164,1,SGREW,LB,old,z,./images/SGREWLB.png,,,,,,,,,,,,,,,,,,,,,,
,,,,,,,,,,,,,,,,,198805,18,2022-01-28_20h53.20.524,lexical_decision_task_DD_L5,2021.2.3,MacIntel,58.82352941,,,,,,,,,,,1.304,1,,,,,,,,,,,,,,z,1,1.304,,,,,,,,0.036666667,-0.351111111,0,0,0,,0,13,13,102,1,DULLE,C,old,z,./images/DULLE.png,,,,,,,,,,,,,,,,,,,,,,
,,,,,,,,,,,,,,,,,198805,18,2022-01-28_20h53.20.524,lexical_decision_task_DD_L5,2021.2.3,MacIntel,58.82352941,,,,,,,,,,,1.565,1,,,,,,,,,,,,,,z,1,1.565,,,,,,,,0.036666667,-0.351111111,0,0,0,,0,14,14,139,1,BLEAR,HB,old,z,./images/BLEARHB.png,,,,,,,,,,,,,,,,,,,,,,
,,,,,,,,,,,,,,,,,198805,18,2022-01-28_20h53.20.524,lexical_decision_task_DD_L5,2021.2.3,MacIntel,58.82352941,,,,,,,,,,,2.162,1,,,,,,,,,,,,,,z,1,2.162,,,,,,,,0.036666667,-0.351111111,0,0,0,,0,15,15,92,1,PAIMS,LB,old,z,./images/PAIMSLB.png,,,,,,,,,,,,,,,,,,,,,,
,,,,,,,,,,,,,,,,,198805,18,2022-01-28_20h53.20.524,lexical_decision_task_DD_L5,2021.2.3,MacIntel,58.82352941,,,,,,,,,,,1.203,1,,,,,,,,,,,,,,m,1,1.203,,,,,,,,0.036666667,-0.351111111,0,0,0,,0,16,16,48,1,SHIELD,HB,old,m,./images/SHIELDHB.png,,,,,,,,,,,,,,,,,,,,,,
,,,,,,,,,,,,,,,,,198805,18,2022-01-28_20h53.20.524,lexical_decision_task_DD_L5,2021.2.3,MacIntel,58.82352941,,,,,,,,,,,0.75,1,,,,,,,,,,,,,,m,1,0.75,,,,,,,,0.036666667,-0.351111111,0,0,0,,0,17,17,44,1,BASKET,C,old,m,./images/BASKET.png,,,,,,,,,,,,,,,,,,,,,,
,,,,,,,,,,,,,,,,,198805,18,2022-01-28_20h53.20.524,lexical_decision_task_DD_L5,2021.2.3,MacIntel,58.82352941,,,,,,,,,,,1.384,1,,,,,,,,,,,,,,z,1,1.384,,,,,,,,0.036666667,-0.351111111,0,0,0,,0,18,18,128,1,GRIFT,LB,old,z,./images/GRIFTLB.png,,,,,,,,,,,,,,,,,,,,,,
,,,,,,,,,,,,,,,,,198805,18,2022-01-28_20h53.20.524,lexical_decision_task_DD_L5,2021.2.3,MacIntel,58.82352941,,,,,,,,,,,0.854,1,,,,,,,,,,,,,,m,1,0.854,,,,,,,,0.036666667,-0.351111111,0,0,0,,0,19,19,76,1,MIDGET,LB,old,m,./images/MIDGETLB.png,,,,,,,,,,,,,,,,,,,,,,
,,,,,,,,,,,,,,,,,198805,18,2022-01-28_20h53.20.524,lexical_decision_task_DD_L5,2021.2.3,MacIntel,58.82352941,,,,,,,,,,,1.031,1,,,,,,,,,,,,,,z,1,1.031,,,,,,,,0.036666667,-0.351111111,0,0,0,,0,20,20,94,1,BLANS,HB,old,z,./images/BLANSHB.png,,,,,,,,,,,,,,,,,,,,,,
,,,,,,,,,,,,,,,,,198805,18,2022-01-28_20h53.20.524,lexical_decision_task_DD_L5,2021.2.3,MacIntel,58.82352941,,,,,,,,,,,1.846,1,,,,,,,,,,,,,,m,1,1.846,,,,,,,,0.036666667,-0.351111111,0,0,0,,0,21,21,33,1,SAUNA,HB,old,m,./images/SAUNAHB.png,,,,,,,,,,,,,,,,,,,,,,
,,,,,,,,,,,,,,,,,198805,18,2022-01-28_20h53.20.524,lexical_decision_task_DD_L5,2021.2.3,MacIntel,58.82352941,,,,,,,,,,,0.745,1,,,,,,,,,,,,,,m,1,0.745,,,,,,,,0.036666667,-0.351111111,0,0,0,,0,22,22,8,1,CLIFF,C,old,m,./images/CLIFF.png,,,,,,,,,,,,,,,,,,,,,,
,,,,,,,,,,,,,,,,,198805,18,2022-01-28_20h53.20.524,lexical_decision_task_DD_L5,2021.2.3,MacIntel,58.82352941,,,,,,,,,,,2.662,1,,,,,,,,,,,,,,z,1,2.662,,,,,,,,0.036666667,-0.351111111,0,0,0,,0,23,23,154,1,THINT,HB,old,z,./images/THINTHB.png,,,,,,,,,,,,,,,,,,,,,,
,,,,,,,,,,,,,,,,,198805,18,2022-01-28_20h53.20.524,lexical_decision_task_DD_L5,2021.2.3,MacIntel,58.82352941,,,,,,,,,,,0.705,1,,,,,,,,,,,,,,m,1,0.705,,,,,,,,0.036666667,-0.351111111,0,0,0,,0,24,24,19,1,DONKEY,LB,old,m,./images/DONKEYLB.png,,,,,,,,,,,,,,,,,,,,,,
,,,,,,,,,,,,,,,,,198805,18,2022-01-28_20h53.20.524,lexical_decision_task_DD_L5,2021.2.3,MacIntel,58.82352941,,,,,,,,,,,0.904,1,,,,,,,,,,,,,,z,1,0.904,,,,,,,,0.036666667,-0.351111111,0,0,0,,0,25,25,153,1,CLUPS,C,old,z,./images/CLUPS.png,,,,,,,,,,,,,,,,,,,,,,
,,,,,,,,,,,,,,,,,198805,18,2022-01-28_20h53.20.524,lexical_decision_task_DD_L5,2021.2.3,MacIntel,58.82352941,,,,,,,,,,,1.245,1,,,,,,,,,,,,,,z,1,1.245,,,,,,,,0.036666667,-0.351111111,0,0,0,,0,26,26,145,1,LAMEL,HB,old,z,./images/LAMELHB.png,,,,,,,,,,,,,,,,,,,,,,
,,,,,,,,,,,,,,,,,198805,18,2022-01-28_20h53.20.524,lexical_decision_task_DD_L5,2021.2.3,MacIntel,58.82352941,,,,,,,,,,,3.818,1,,,,,,,,,,,,,,z,1,3.818,,,,,,,,0.036666667,-0.351111111,0,0,0,,0,27,27,159,1,CUDDY,C,old,z,./images/CUDDY.png,,,,,,,,,,,,,,,,,,,,,,
,,,,,,,,,,,,,,,,,198805,18,2022-01-28_20h53.20.524,lexical_decision_task_DD_L5,2021.2.3,MacIntel,58.82352941,,,,,,,,,,,0.826,1,,,,,,,,,,,,,,m,1,0.826,,,,,,,,0.036666667,-0.351111111,0,0,0,,0,28,28,75,1,HAMMER,HB,old,m,./images/HAMMERHB.png,,,,,,,,,,,,,,,,,,,,,,
,,,,,,,,,,,,,,,,,198805,18,2022-01-28_20h53.20.524,lexical_decision_task_DD_L5,2021.2.3,MacIntel,58.82352941,,,,,,,,,,,0.927,1,,,,,,,,,,,,,,m,1,0.927,,,,,,,,0.036666667,-0.351111111,0,0,0,,0,29,29,49,1,BISHOP,LB,old,m,./images/BISHOPLB.png,,,,,,,,,,,,,,,,,,,,,,
,,,,,,,,,,,,,,,,,198805,18,2022-01-28_20h53.20.524,lexical_decision_task_DD_L5,2021.2.3,MacIntel,58.82352941,,,,,,,,,,,0.728,1,,,,,,,,,,,,,,m,1,0.728,,,,,,,,0.036666667,-0.351111111,0,0,0,,0,30,30,50,1,PILOT,C,old,m,./images/PILOT.png,,,,,,,,,,,,,,,,,,,,,,
,,,,,,,,,,,,,,,,,198805,18,2022-01-28_20h53.20.524,lexical_decision_task_DD_L5,2021.2.3,MacIntel,58.82352941,,,,,,,,,,,0.729,1,,,,,,,,,,,,,,m,1,0.729,,,,,,,,0.036666667,-0.351111111,0,0,0,,0,31,31,37,1,TIGER,LB,old,m,./images/TIGERLB.png,,,,,,,,,,,,,,,,,,,,,,
,,,,,,,,,,,,,,,,,198805,18,2022-01-28_20h53.20.524,lexical_decision_task_DD_L5,2021.2.3,MacIntel,58.82352941,,,,,,,,,,,0.845,1,,,,,,,,,,,,,,z,1,0.845,,,,,,,,0.036666667,-0.351111111,0,0,0,,0,32,32,140,1,DOVET,LB,old,z,./images/DOVETLB.png,,,,,,,,,,,,,,,,,,,,,,
,,,,,,,,,,,,,,,,,198805,18,2022-01-28_20h53.20.524,lexical_decision_task_DD_L5,2021.2.3,MacIntel,58.82352941,,,,,,,,,,,0.787,1,,,,,,,,,,,,,,z,1,0.787,,,,,,,,0.036666667,-0.351111111,0,0,0,,0,33,33,161,1,BLAPS,LB,old,z,./images/BLAPSLB.png,,,,,,,,,,,,,,,,,,,,,,
,,,,,,,,,,,,,,,,,198805,18,2022-01-28_20h53.20.524,lexical_decision_task_DD_L5,2021.2.3,MacIntel,58.82352941,,,,,,,,,,,1.329,1,,,,,,,,,,,,,,z,1,1.329,,,,,,,,0.036666667,-0.351111111,0,0,0,,0,34,34,166,1,SHORY,HB,old,z,./images/SHORYHB.png,,,,,,,,,,,,,,,,,,,,,,
,,,,,,,,,,,,,,,,,198805,18,2022-01-28_20h53.20.524,lexical_decision_task_DD_L5,2021.2.3,MacIntel,58.82352941,,,,,,,,,,,1.767,1,,,,,,,,,,,,,,z,1,1.767,,,,,,,,0.036666667,-0.351111111,0,0,0,,0,35,35,99,1,BACKY,C,old,z,./images/BACKY.png,,,,,,,,,,,,,,,,,,,,,,
,,,,,,,,,,,,,,,,,198805,18,2022-01-28_20h53.20.524,lexical_decision_task_DD_L5,2021.2.3,MacIntel,58.82352941,,,,,,,,,,,0.846,1,,,,,,,,,,,,,,z,1,0.846,,,,,,,,0.036666667,-0.351111111,0,0,0,,0,36,36,137,1,JOOST,LB,old,z,./images/JOOSTLB.png,,,,,,,,,,,,,,,,,,,,,,
,,,,,,,,,,,,,,,,,198805,18,2022-01-28_20h53.20.524,lexical_decision_task_DD_L5,2021.2.3,MacIntel,58.82352941,,,,,,,,,,,1.164,1,,,,,,,,,,,,,,m,1,1.164,,,,,,,,0.036666667,-0.351111111,0,0,0,,0,37,37,54,1,CHERRY,HB,old,m,./images/CHERRYHB.png,,,,,,,,,,,,,,,,,,,,,,
,,,,,,,,,,,,,,,,,198805,18,2022-01-28_20h53.20.524,lexical_decision_task_DD_L5,2021.2.3,MacIntel,58.82352941,,,,,,,,,,,0.718,1,,,,,,,,,,,,,,m,1,0.718,,,,,,,,0.036666667,-0.351111111,0,0,0,,0,38,38,38,1,ENGINE,C,old,m,./images/ENGINE.png,,,,,,,,,,,,,,,,,,,,,,
,,,,,,,,,,,,,,,,,198805,18,2022-01-28_20h53.20.524,lexical_decision_task_DD_L5,2021.2.3,MacIntel,58.82352941,,,,,,,,,,,0.705,1,,,,,,,,,,,,,,m,1,0.705,,,,,,,,0.036666667,-0.351111111,0,0,0,,0,39,39,80,1,PLANET,C,old,m,./images/PLANET.png,,,,,,,,,,,,,,,,,,,,,,
,,,,,,,,,,,,,,,,,198805,18,2022-01-28_20h53.20.524,lexical_decision_task_DD_L5,2021.2.3,MacIntel,58.82352941,,,,,,,,,,,1.686,1,,,,,,,,,,,,,,m,1,1.686,,,,,,,,0.036666667,-0.351111111,0,0,0,,0,40,40,65,1,SPINE,C,old,m,./images/SPINE.png,,,,,,,,,,,,,,,,,,,,,,
,,,,,,,,,,,,,,,,,198805,18,2022-01-28_20h53.20.524,lexical_decision_task_DD_L5,2021.2.3,MacIntel,58.82352941,,,,,,,,,,,1.462,1,,,,,,,,,,,,,,z,1,1.462,,,,,,,,0.036666667,-0.351111111,0,0,0,space,0,41,41,107,1,FASKS,LB,old,z,./images/FASKSLB.png,8.54,,,,,,,,,,,,,,,,,,,,,
,,,,,,,,,,,,,,,,,198805,18,2022-01-28_20h53.20.524,lexical_decision_task_DD_L5,2021.2.3,MacIntel,58.82352941,,,,,,,,,,,0.744,1,,,,,,,,,,,,,,m,1,0.744,,,,,,,,0.036666667,-0.351111111,0,0,0,,0,42,42,10,1,GARDEN,LB,old,m,./images/GARDENLB.png,,,,,,,,,,,,,,,,,,,,,,
,,,,,,,,,,,,,,,,,198805,18,2022-01-28_20h53.20.524,lexical_decision_task_DD_L5,2021.2.3,MacIntel,58.82352941,,,,,,,,,,,1.432,1,,,,,,,,,,,,,,z,1,1.432,,,,,,,,0.036666667,-0.351111111,0,0,0,,0,43,43,151,1,TINKY,HB,old,z,./images/TINKYHB.png,,,,,,,,,,,,,,,,,,,,,,
,,,,,,,,,,,,,,,,,198805,18,2022-01-28_20h53.20.524,lexical_decision_task_DD_L5,2021.2.3,MacIntel,58.82352941,,,,,,,,,,,1.194,1,,,,,,,,,,,,,,m,1,1.194,,,,,,,,0.036666667,-0.351111111,0,0,0,,0,44,44,36,1,BOILER,HB,old,m,./images/BOILERHB.png,,,,,,,,,,,,,,,,,,,,,,
,,,,,,,,,,,,,,,,,198805,18,2022-01-28_20h53.20.524,lexical_decision_task_DD_L5,2021.2.3,MacIntel,58.82352941,,,,,,,,,,,0.912,1,,,,,,,,,,,,,,z,1,0.912,,,,,,,,0.036666667,-0.351111111,0,0,0,,0,45,45,101,1,GLEET,LB,old,z,./images/GLEETLB.png,,,,,,,,,,,,,,,,,,,,,,
,,,,,,,,,,,,,,,,,198805,18,2022-01-28_20h53.20.524,lexical_decision_task_DD_L5,2021.2.3,MacIntel,58.82352941,,,,,,,,,,,1.781,1,,,,,,,,,,,,,,z,1,1.781,,,,,,,,0.036666667,-0.351111111,0,0,0,,0,46,46,100,1,DRIBS,HB,old,z,./images/DRIBSHB.png,,,,,,,,,,,,,,,,,,,,,,
,,,,,,,,,,,,,,,,,198805,18,2022-01-28_20h53.20.524,lexical_decision_task_DD_L5,2021.2.3,MacIntel,58.82352941,,,,,,,,,,,0.668,1,,,,,,,,,,,,,,m,1,0.668,,,,,,,,0.036666667,-0.351111111,0,0,0,,0,47,47,25,1,CHALK,LB,old,m,./images/CHALKLB.png,,,,,,,,,,,,,,,,,,,,,,
,,,,,,,,,,,,,,,,,198805,18,2022-01-28_20h53.20.524,lexical_decision_task_DD_L5,2021.2.3,MacIntel,58.82352941,,,,,,,,,,,2.761,1,,,,,,,,,,,,,,z,1,2.761,,,,,,,,0.036666667,-0.351111111,0,0,0,,0,48,48,157,1,INLER,HB,old,z,./images/INLERHB.png,,,,,,,,,,,,,,,,,,,,,,
,,,,,,,,,,,,,,,,,198805,18,2022-01-28_20h53.20.524,lexical_decision_task_DD_L5,2021.2.3,MacIntel,58.82352941,,,,,,,,,,,0.877,1,,,,,,,,,,,,,,z,1,0.877,,,,,,,,0.036666667,-0.351111111,0,0,0,,0,49,49,98,1,BAMPS,LB,old,z,./images/BAMPSLB.png,,,,,,,,,,,,,,,,,,,,,,
,,,,,,,,,,,,,,,,,198805,18,2022-01-28_20h53.20.524,lexical_decision_task_DD_L5,2021.2.3,MacIntel,58.82352941,,,,,,,,,,,0.812,1,,,,,,,,,,,,,,m,1,0.812,,,,,,,,0.036666667,-0.351111111,0,0,0,,0,50,50,45,1,MONKEY,HB,old,m,./images/MONKEYHB.png,,,,,,,,,,,,,,,,,,,,,,
,,,,,,,,,,,,,,,,,198805,18,2022-01-28_20h53.20.524,lexical_decision_task_DD_L5,2021.2.3,MacIntel,58.82352941,,,,,,,,,,,1.888,1,,,,,,,,,,,,,,z,1,1.888,,,,,,,,0.036666667,-0.351111111,0,0,0,,0,51,51,130,1,CRILL,HB,old,z,./images/CRILLHB.png,,,,,,,,,,,,,,,,,,,,,,
,,,,,,,,,,,,,,,,,198805,18,2022-01-28_20h53.20.524,lexical_decision_task_DD_L5,2021.2.3,MacIntel,58.82352941,,,,,,,,,,,0.879,1,,,,,,,,,,,,,,z,1,0.879,,,,,,,,0.036666667,-0.351111111,0,0,0,,0,52,52,144,1,NAIRY,C,old,z,./images/NAIRY.png,,,,,,,,,,,,,,,,,,,,,,
,,,,,,,,,,,,,,,,,198805,18,2022-01-28_20h53.20.524,lexical_decision_task_DD_L5,2021.2.3,MacIntel,58.82352941,,,,,,,,,,,1.12,1,,,,,,,,,,,,,,z,1,1.12,,,,,,,,0.036666667,-0.351111111,0,0,0,,0,53,53,122,1,BLOOT,LB,old,z,./images/BLOOTLB.png,,,,,,,,,,,,,,,,,,,,,,
,,,,,,,,,,,,,,,,,198805,18,2022-01-28_20h53.20.524,lexical_decision_task_DD_L5,2021.2.3,MacIntel,58.82352941,,,,,,,,,,,2.969,1,,,,,,,,,,,,,,m,1,2.969,,,,,,,,0.036666667,-0.351111111,0,0,0,,0,54,54,66,1,STATUE,HB,old,m,./images/STATUEHB.png,,,,,,,,,,,,,,,,,,,,,,
,,,,,,,,,,,,,,,,,198805,18,2022-01-28_20h53.20.524,lexical_decision_task_DD_L5,2021.2.3,MacIntel,58.82352941,,,,,,,,,,,1.246,1,,,,,,,,,,,,,,m,1,1.246,,,,,,,,0.036666667,-0.351111111,0,0,0,,0,55,55,6,1,STAIN,HB,old,m,./images/STAINHB.png,,,,,,,,,,,,,,,,,,,,,,
,,,,,,,,,,,,,,,,,198805,18,2022-01-28_20h53.20.524,lexical_decision_task_DD_L5,2021.2.3,MacIntel,58.82352941,,,,,,,,,,,0.821,1,,,,,,,,,,,,,,z,1,0.821,,,,,,,,0.036666667,-0.351111111,0,0,0,,0,56,56,167,1,ZONET,LB,old,z,./images/ZONETLB.png,,,,,,,,,,,,,,,,,,,,,,
,,,,,,,,,,,,,,,,,198805,18,2022-01-28_20h53.20.524,lexical_decision_task_DD_L5,2021.2.3,MacIntel,58.82352941,,,,,,,,,,,1.77,1,,,,,,,,,,,,,,m,1,1.77,,,,,,,,0.036666667,-0.351111111,0,0,0,,0,57,57,32,1,HOCKEY,C,old,m,./images/HOCKEY.png,,,,,,,,,,,,,,,,,,,,,,
,,,,,,,,,,,,,,,,,198805,18,2022-01-28_20h53.20.524,lexical_decision_task_DD_L5,2021.2.3,MacIntel,58.82352941,,,,,,,,,,,1.462,1,,,,,,,,,,,,,,m,1,1.462,,,,,,,,0.036666667,-0.351111111,0,0,0,,0,58,58,30,1,SLOPE,HB,old,m,./images/SLOPEHB.png,,,,,,,,,,,,,,,,,,,,,,
,,,,,,,,,,,,,,,,,198805,18,2022-01-28_20h53.20.524,lexical_decision_task_DD_L5,2021.2.3,MacIntel,58.82352941,,,,,,,,,,,1.063,1,,,,,,,,,,,,,,z,1,1.063,,,,,,,,0.036666667,-0.351111111,0,0,0,,0,59,59,146,1,MOOST,LB,old,z,./images/MOOSTLB.png,,,,,,,,,,,,,,,,,,,,,,
,,,,,,,,,,,,,,,,,198805,18,2022-01-28_20h53.20.524,lexical_decision_task_DD_L5,2021.2.3,MacIntel,58.82352941,,,,,,,,,,,1.428,1,,,,,,,,,,,,,,m,1,1.428,,,,,,,,0.036666667,-0.351111111,0,0,0,,0,60,60,24,1,FLESH,HB,old,m,./images/FLESHHB.png,,,,,,,,,,,,,,,,,,,,,,
,,,,,,,,,,,,,,,,,198805,18,2022-01-28_20h53.20.524,lexical_decision_task_DD_L5,2021.2.3,MacIntel,58.82352941,,,,,,,,,,,1.45,1,,,,,,,,,,,,,,m,1,1.45,,,,,,,,0.036666667,-0.351111111,0,0,0,,0,61,61,9,1,DIVER,HB,old,m,./images/DIVERHB.png,,,,,,,,,,,,,,,,,,,,,,
,,,,,,,,,,,,,,,,,198805,18,2022-01-28_20h53.20.524,lexical_decision_task_DD_L5,2021.2.3,MacIntel,58.82352941,,,,,,,,,,,2.152,1,,,,,,,,,,,,,,z,1,2.152,,,,,,,,0.036666667,-0.351111111,0,0,0,,0,62,62,142,1,PLASK,HB,old,z,./images/PLASKHB.png,,,,,,,,,,,,,,,,,,,,,,
,,,,,,,,,,,,,,,,,198805,18,2022-01-28_20h53.20.524,lexical_decision_task_DD_L5,2021.2.3,MacIntel,58.82352941,,,,,,,,,,,1.27,1,,,,,,,,,,,,,,m,1,1.27,,,,,,,,0.036666667,-0.351111111,0,0,0,,0,63,63,81,1,DRILL,HB,old,m,./images/DRILLHB.png,,,,,,,,,,,,,,,,,,,,,,
,,,,,,,,,,,,,,,,,198805,18,2022-01-28_20h53.20.524,lexical_decision_task_DD_L5,2021.2.3,MacIntel,58.82352941,,,,,,,,,,,0.794,1,,,,,,,,,,,,,,z,1,0.794,,,,,,,,0.036666667,-0.351111111,0,0,0,,0,64,64,126,1,GUELS,C,old,z,./images/GUELS.png,,,,,,,,,,,,,,,,,,,,,,
,,,,,,,,,,,,,,,,,198805,18,2022-01-28_20h53.20.524,lexical_decision_task_DD_L5,2021.2.3,MacIntel,58.82352941,,,,,,,,,,,0.78,1,,,,,,,,,,,,,,m,1,0.78,,,,,,,,0.036666667,-0.351111111,0,0,0,,0,65,65,23,1,CLOTH,C,old,m,./images/CLOTH.png,,,,,,,,,,,,,,,,,,,,,,
,,,,,,,,,,,,,,,,,198805,18,2022-01-28_20h53.20.524,lexical_decision_task_DD_L5,2021.2.3,MacIntel,58.82352941,,,,,,,,,,,2.463,1,,,,,,,,,,,,,,m,1,2.463,,,,,,,,0.036666667,-0.351111111,0,0,0,,0,66,66,18,1,PARCEL,HB,old,m,./images/PARCELHB.png,,,,,,,,,,,,,,,,,,,,,,
,,,,,,,,,,,,,,,,,198805,18,2022-01-28_20h53.20.524,lexical_decision_task_DD_L5,2021.2.3,MacIntel,58.82352941,,,,,,,,,,,1.984,1,,,,,,,,,,,,,,z,1,1.984,,,,,,,,0.036666667,-0.351111111,0,0,0,,0,67,67,110,1,CRUNK,LB,old,z,./images/CRUNKLB.png,,,,,,,,,,,,,,,,,,,,,,
,,,,,,,,,,,,,,,,,198805,18,2022-01-28_20h53.20.524,lexical_decision_task_DD_L5,2021.2.3,MacIntel,58.82352941,,,,,,,,,,,3.328,1,,,,,,,,,,,,,,m,1,3.328,,,,,,,,0.036666667,-0.351111111,0,0,0,,0,68,68,60,1,CURRY,HB,old,m,./images/CURRYHB.png,,,,,,,,,,,,,,,,,,,,,,
,,,,,,,,,,,,,,,,,198805,18,2022-01-28_20h53.20.524,lexical_decision_task_DD_L5,2021.2.3,MacIntel,58.82352941,,,,,,,,,,,0.854,1,,,,,,,,,,,,,,m,1,0.854,,,,,,,,0.036666667,-0.351111111,0,0,0,,0,69,69,20,1,GRANNY,C,old,m,./images/GRANNY.png,,,,,,,,,,,,,,,,,,,,,,
,,,,,,,,,,,,,,,,,198805,18,2022-01-28_20h53.20.524,lexical_decision_task_DD_L5,2021.2.3,MacIntel,58.82352941,,,,,,,,,,,0.729,1,,,,,,,,,,,,,,z,1,0.729,,,,,,,,0.036666667,-0.351111111,0,0,0,,0,70,70,116,1,BALGY,LB,old,z,./images/BALGYLB.png,,,,,,,,,,,,,,,,,,,,,,
,,,,,,,,,,,,,,,,,198805,18,2022-01-28_20h53.20.524,lexical_decision_task_DD_L5,2021.2.3,MacIntel,58.82352941,,,,,,,,,,,0.752,1,,,,,,,,,,,,,,m,1,0.752,,,,,,,,0.036666667,-0.351111111,0,0,0,,0,71,71,11,1,MEDAL,C,old,m,./images/MEDAL.png,,,,,,,,,,,,,,,,,,,,,,
,,,,,,,,,,,,,,,,,198805,18,2022-01-28_20h53.20.524,lexical_decision_task_DD_L5,2021.2.3,MacIntel,58.82352941,,,,,,,,,,,0.871,0,,,,,,,,,,,,,,z,0,0.871,,,,,,,,0.036666667,-0.351111111,0,0,0,,0,72,72,12,1,BLOKE,HB,old,m,./images/BLOKEHB.png,,,,,,,,,,,,,,,,,,,,,,
,,,,,,,,,,,,,,,,,198805,18,2022-01-28_20h53.20.524,lexical_decision_task_DD_L5,2021.2.3,MacIntel,58.82352941,,,,,,,,,,,1.92,1,,,,,,,,,,,,,,z,1,1.92,,,,,,,,0.036666667,-0.351111111,0,0,0,,0,73,73,136,1,WERVE,HB,old,z,./images/WERVEHB.png,,,,,,,,,,,,,,,,,,,,,,
,,,,,,,,,,,,,,,,,198805,18,2022-01-28_20h53.20.524,lexical_decision_task_DD_L5,2021.2.3,MacIntel,58.82352941,,,,,,,,,,,1.015,1,,,,,,,,,,,,,,m,1,1.015,,,,,,,,0.036666667,-0.351111111,0,0,0,,0,74,74,83,1,WHISKY,C,old,m,./images/WHISKY.png,,,,,,,,,,,,,,,,,,,,,,
,,,,,,,,,,,,,,,,,198805,18,2022-01-28_20h53.20.524,lexical_decision_task_DD_L5,2021.2.3,MacIntel,58.82352941,,,,,,,,,,,0.878,1,,,,,,,,,,,,,,z,1,0.878,,,,,,,,0.036666667,-0.351111111,0,0,0,,0,75,75,155,1,CANGY,LB,old,z,./images/CANGYLB.png,,,,,,,,,,,,,,,,,,,,,,
,,,,,,,,,,,,,,,,,198805,18,2022-01-28_20h53.20.524,lexical_decision_task_DD_L5,2021.2.3,MacIntel,58.82352941,,,,,,,,,,,0.907,1,,,,,,,,,,,,,,z,1,0.907,,,,,,,,0.036666667,-0.351111111,0,0,0,,0,76,76,105,1,MOKER,C,old,z,./images/MOKER.png,,,,,,,,,,,,,,,,,,,,,,
,,,,,,,,,,,,,,,,,198805,18,2022-01-28_20h53.20.524,lexical_decision_task_DD_L5,2021.2.3,MacIntel,58.82352941,,,,,,,,,,,0.978,1,,,,,,,,,,,,,,m,1,0.978,,,,,,,,0.036666667,-0.351111111,0,0,0,,0,77,77,17,1,PARADE,C,old,m,./images/PARADE.png,,,,,,,,,,,,,,,,,,,,,,
,,,,,,,,,,,,,,,,,198805,18,2022-01-28_20h53.20.524,lexical_decision_task_DD_L5,2021.2.3,MacIntel,58.82352941,,,,,,,,,,,2.244,1,,,,,,,,,,,,,,z,1,2.244,,,,,,,,0.036666667,-0.351111111,0,0,0,,0,78,78,106,1,CLUMS,HB,old,z,./images/CLUMSHB.png,,,,,,,,,,,,,,,,,,,,,,
,,,,,,,,,,,,,,,,,198805,18,2022-01-28_20h53.20.524,lexical_decision_task_DD_L5,2021.2.3,MacIntel,58.82352941,,,,,,,,,,,1.072,1,,,,,,,,,,,,,,z,1,1.072,,,,,,,,0.036666667,-0.351111111,0,0,0,,0,79,79,135,1,JOODY,C,old,z,./images/JOODY.png,,,,,,,,,,,,,,,,,,,,,,
,,,,,,,,,,,,,,,,,198805,18,2022-01-28_20h53.20.524,lexical_decision_task_DD_L5,2021.2.3,MacIntel,58.82352941,,,,,,,,,,,0.995,1,,,,,,,,,,,,,,m,1,0.995,,,,,,,,0.036666667,-0.351111111,0,0,0,,0,80,80,46,1,MUMMY,LB,old,m,./images/MUMMYLB.png,,,,,,,,,,,,,,,,,,,,,,
,,,,,,,,,,,,,,,,,198805,18,2022-01-28_20h53.20.524,lexical_decision_task_DD_L5,2021.2.3,MacIntel,58.82352941,,,,,,,,,,,0.947,1,,,,,,,,,,,,,,z,1,0.947,,,,,,,,0.036666667,-0.351111111,0,0,0,,0,81,81,86,1,AIFED,LB,old,z,./images/AIFEDLB.png,,,,,,,,,,,,,,,,,,,,,,
,,,,,,,,,,,,,,,,,198805,18,2022-01-28_20h53.20.524,lexical_decision_task_DD_L5,2021.2.3,MacIntel,58.82352941,,,,,,,,,,,4.487,1,,,,,,,,,,,,,,z,1,4.487,,,,,,,,0.036666667,-0.351111111,0,0,0,,0,82,82,165,1,TROWN,C,old,z,./images/TROWN.png,,,,,,,,,,,,,,,,,,,,,,
,,,,,,,,,,,,,,,,,198805,18,2022-01-28_20h53.20.524,lexical_decision_task_DD_L5,2021.2.3,MacIntel,58.82352941,,,,,,,,,,,2.837,1,,,,,,,,,,,,,,z,1,2.837,,,,,,,,0.036666667,-0.351111111,0,0,0,space,0,83,83,95,1,HANTY,LB,old,z,./images/HANTYLB.png,69.713,,,,,,,,,,,,,,,,,,,,,
,,,,,,,,,,,,,,,,,198805,18,2022-01-28_20h53.20.524,lexical_decision_task_DD_L5,2021.2.3,MacIntel,58.82352941,,,,,,,,,,,3.58,1,,,,,,,,,,,,,,m,1,3.58,,,,,,,,0.036666667,-0.351111111,0,0,0,,0,84,84,55,1,ALLEY,LB,old,m,./images/ALLEYLB.png,,,,,,,,,,,,,,,,,,,,,,
,,,,,,,,,,,,,,,,,198805,18,2022-01-28_20h53.20.524,lexical_decision_task_DD_L5,2021.2.3,MacIntel,58.82352941,,,,,,,,,,,0.645,1,,,,,,,,,,,,,,m,1,0.645,,,,,,,,0.036666667,-0.351111111,0,0,0,,0,85,85,22,1,CLOWN,LB,old,m,./images/CLOWNLB.png,,,,,,,,,,,,,,,,,,,,,,
,,,,,,,,,,,,,,,,,198805,18,2022-01-28_20h53.20.524,lexical_decision_task_DD_L5,2021.2.3,MacIntel,58.82352941,,,,,,,,,,,1.669,1,,,,,,,,,,,,,,m,1,1.669,,,,,,,,0.036666667,-0.351111111,0,0,0,,0,86,86,42,1,CHAIN,HB,old,m,./images/CHAINHB.png,,,,,,,,,,,,,,,,,,,,,,
,,,,,,,,,,,,,,,,,198805,18,2022-01-28_20h53.20.524,lexical_decision_task_DD_L5,2021.2.3,MacIntel,58.82352941,,,,,,,,,,,0.878,1,,,,,,,,,,,,,,z,1,0.878,,,,,,,,0.036666667,-0.351111111,0,0,0,,0,87,87,149,1,VEASE,LB,old,z,./images/VEASELB.png,,,,,,,,,,,,,,,,,,,,,,
,,,,,,,,,,,,,,,,,198805,18,2022-01-28_20h53.20.524,lexical_decision_task_DD_L5,2021.2.3,MacIntel,58.82352941,,,,,,,,,,,0.762,1,,,,,,,,,,,,,,z,1,0.762,,,,,,,,0.036666667,-0.351111111,0,0,0,,0,88,88,147,1,ZOLES,C,old,z,./images/ZOLES.png,,,,,,,,,,,,,,,,,,,,,,
,,,,,,,,,,,,,,,,,198805,18,2022-01-28_20h53.20.524,lexical_decision_task_DD_L5,2021.2.3,MacIntel,58.82352941,,,,,,,,,,,1.367,1,,,,,,,,,,,,,,z,1,1.367,,,,,,,,0.036666667,-0.351111111,0,0,0,,0,89,89,103,1,FLORT,HB,old,z,./images/FLORTHB.png,,,,,,,,,,,,,,,,,,,,,,
,,,,,,,,,,,,,,,,,198805,18,2022-01-28_20h53.20.524,lexical_decision_task_DD_L5,2021.2.3,MacIntel,58.82352941,,,,,,,,,,,1.48,1,,,,,,,,,,,,,,z,1,1.48,,,,,,,,0.036666667,-0.351111111,0,0,0,,0,90,90,91,1,SHENS,HB,old,z,./images/SHENSHB.png,,,,,,,,,,,,,,,,,,,,,,
,,,,,,,,,,,,,,,,,198805,18,2022-01-28_20h53.20.524,lexical_decision_task_DD_L5,2021.2.3,MacIntel,58.82352941,,,,,,,,,,,0.884,1,,,,,,,,,,,,,,z,1,0.884,,,,,,,,0.036666667,-0.351111111,0,0,0,,0,91,91,124,1,TUNCH,HB,old,z,./images/TUNCHHB.png,,,,,,,,,,,,,,,,,,,,,,
,,,,,,,,,,,,,,,,,198805,18,2022-01-28_20h53.20.524,lexical_decision_task_DD_L5,2021.2.3,MacIntel,58.82352941,,,,,,,,,,,0.713,1,,,,,,,,,,,,,,z,1,0.713,,,,,,,,0.036666667,-0.351111111,0,0,0,,0,92,92,131,1,NACES,LB,old,z,./images/NACESLB.png,,,,,,,,,,,,,,,,,,,,,,
,,,,,,,,,,,,,,,,,198805,18,2022-01-28_20h53.20.524,lexical_decision_task_DD_L5,2021.2.3,MacIntel,58.82352941,,,,,,,,,,,1.369,1,,,,,,,,,,,,,,z,1,1.369,,,,,,,,0.036666667,-0.351111111,0,0,0,,0,93,93,115,1,MAWNS,HB,old,z,./images/MAWNSHB.png,,,,,,,,,,,,,,,,,,,,,,
,,,,,,,,,,,,,,,,,198805,18,2022-01-28_20h53.20.524,lexical_decision_task_DD_L5,2021.2.3,MacIntel,58.82352941,,,,,,,,,,,1.235,1,,,,,,,,,,,,,,z,1,1.235,,,,,,,,0.036666667,-0.351111111,0,0,0,,0,94,94,162,1,LEICH,C,old,z,./images/LEICH.png,,,,,,,,,,,,,,,,,,,,,,
,,,,,,,,,,,,,,,,,198805,18,2022-01-28_20h53.20.524,lexical_decision_task_DD_L5,2021.2.3,MacIntel,58.82352941,,,,,,,,,,,0.702,1,,,,,,,,,,,,,,z,1,0.702,,,,,,,,0.036666667,-0.351111111,0,0,0,,0,95,95,143,1,MONGS,LB,old,z,./images/MONGSLB.png,,,,,,,,,,,,,,,,,,,,,,
,,,,,,,,,,,,,,,,,198805,18,2022-01-28_20h53.20.524,lexical_decision_task_DD_L5,2021.2.3,MacIntel,58.82352941,,,,,,,,,,,0.745,1,,,,,,,,,,,,,,z,1,0.745,,,,,,,,0.036666667,-0.351111111,0,0,0,,0,96,96,96,1,KEAMS,C,old,z,./images/KEAMS.png,,,,,,,,,,,,,,,,,,,,,,
,,,,,,,,,,,,,,,,,198805,18,2022-01-28_20h53.20.524,lexical_decision_task_DD_L5,2021.2.3,MacIntel,58.82352941,,,,,,,,,,,0.695,1,,,,,,,,,,,,,,m,1,0.695,,,,,,,,0.036666667,-0.351111111,0,0,0,,0,97,97,26,1,CLOUD,C,old,m,./images/CLOUD.png,,,,,,,,,,,,,,,,,,,,,,
,,,,,,,,,,,,,,,,,198805,18,2022-01-28_20h53.20.524,lexical_decision_task_DD_L5,2021.2.3,MacIntel,58.82352941,,,,,,,,,,,0.794,1,,,,,,,,,,,,,,m,1,0.794,,,,,,,,0.036666667,-0.351111111,0,0,0,,0,98,98,63,1,BAKER,HB,old,m,./images/BAKERHB.png,,,,,,,,,,,,,,,,,,,,,,
,,,,,,,,,,,,,,,,,198805,18,2022-01-28_20h53.20.524,lexical_decision_task_DD_L5,2021.2.3,MacIntel,58.82352941,,,,,,,,,,,11.594,1,,,,,,,,,,,,,,z,1,11.594,,,,,,,,0.036666667,-0.351111111,0,0,0,,0,99,99,123,1,SEDGE,C,old,z,./images/SEDGE.png,,,,,,,,,,,,,,,,,,,,,,
,,,,,,,,,,,,,,,,,198805,18,2022-01-28_20h53.20.524,lexical_decision_task_DD_L5,2021.2.3,MacIntel,58.82352941,,,,,,,,,,,4.396,0,,,,,,,,,,,,,,m,0,4.396,,,,,,,,0.036666667,-0.351111111,0,0,0,,0,100,100,104,1,GITTY,LB,old,z,./images/GITTYLB.png,,,,,,,,,,,,,,,,,,,,,,
,,,,,,,,,,,,,,,,,198805,18,2022-01-28_20h53.20.524,lexical_decision_task_DD_L5,2021.2.3,MacIntel,58.82352941,,,,,,,,,,,0.896,1,,,,,,,,,,,,,,z,1,0.896,,,,,,,,0.036666667,-0.351111111,0,0,0,,0,101,101,114,1,RIKES,C,old,z,./images/RIKES.png,,,,,,,,,,,,,,,,,,,,,,
,,,,,,,,,,,,,,,,,198805,18,2022-01-28_20h53.20.524,lexical_decision_task_DD_L5,2021.2.3,MacIntel,58.82352941,,,,,,,,,,,0.645,1,,,,,,,,,,,,,,m,1,0.645,,,,,,,,0.036666667,-0.351111111,0,0,0,,0,102,102,16,1,GRAPE,LB,old,m,./images/GRAPELB.png,,,,,,,,,,,,,,,,,,,,,,
,,,,,,,,,,,,,,,,,198805,18,2022-01-28_20h53.20.524,lexical_decision_task_DD_L5,2021.2.3,MacIntel,58.82352941,,,,,,,,,,,0.609,1,,,,,,,,,,,,,,m,1,0.609,,,,,,,,0.036666667,-0.351111111,0,0,0,,0,103,103,61,1,ARTIST,LB,old,m,./images/ARTISTLB.png,,,,,,,,,,,,,,,,,,,,,,
,,,,,,,,,,,,,,,,,198805,18,2022-01-28_20h53.20.524,lexical_decision_task_DD_L5,2021.2.3,MacIntel,58.82352941,,,,,,,,,,,0.83,1,,,,,,,,,,,,,,z,1,0.83,,,,,,,,0.036666667,-0.351111111,0,0,0,,0,104,104,120,1,RINED,C,old,z,./images/RINED.png,,,,,,,,,,,,,,,,,,,,,,
,,,,,,,,,,,,,,,,,198805,18,2022-01-28_20h53.20.524,lexical_decision_task_DD_L5,2021.2.3,MacIntel,58.82352941,,,,,,,,,,,0.877,1,,,,,,,,,,,,,,m,1,0.877,,,,,,,,0.036666667,-0.351111111,0,0,0,,0,105,105,72,1,FLASK,HB,old,m,./images/FLASKHB.png,,,,,,,,,,,,,,,,,,,,,,
,,,,,,,,,,,,,,,,,198805,18,2022-01-28_20h53.20.524,lexical_decision_task_DD_L5,2021.2.3,MacIntel,58.82352941,,,,,,,,,,,0.763,1,,,,,,,,,,,,,,z,1,0.763,,,,,,,,0.036666667,-0.351111111,0,0,0,,0,106,106,158,1,EGECT,LB,old,z,./images/EGECTLB.png,,,,,,,,,,,,,,,,,,,,,,
,,,,,,,,,,,,,,,,,198805,18,2022-01-28_20h53.20.524,lexical_decision_task_DD_L5,2021.2.3,MacIntel,58.82352941,,,,,,,,,,,0.817,1,,,,,,,,,,,,,,z,1,0.817,,,,,,,,0.036666667,-0.351111111,0,0,0,,0,107,107,113,1,LINEW,LB,old,z,./images/LINEWLB.png,,,,,,,,,,,,,,,,,,,,,,
,,,,,,,,,,,,,,,,,198805,18,2022-01-28_20h53.20.524,lexical_decision_task_DD_L5,2021.2.3,MacIntel,58.82352941,,,,,,,,,,,0.795,1,,,,,,,,,,,,,,z,1,0.795,,,,,,,,0.036666667,-0.351111111,0,0,0,,0,108,108,156,1,HIXES,C,old,z,./images/HIXES.png,,,,,,,,,,,,,,,,,,,,,,
,,,,,,,,,,,,,,,,,198805,18,2022-01-28_20h53.20.524,lexical_decision_task_DD_L5,2021.2.3,MacIntel,58.82352941,,,,,,,,,,,1.128,1,,,,,,,,,,,,,,z,1,1.128,,,,,,,,0.036666667,-0.351111111,0,0,0,,0,109,109,97,1,CHIDS,HB,old,z,./images/CHIDSHB.png,,,,,,,,,,,,,,,,,,,,,,
,,,,,,,,,,,,,,,,,198805,18,2022-01-28_20h53.20.524,lexical_decision_task_DD_L5,2021.2.3,MacIntel,58.82352941,,,,,,,,,,,0.746,1,,,,,,,,,,,,,,z,1,0.746,,,,,,,,0.036666667,-0.351111111,0,0,0,,0,110,110,87,1,TRING,C,old,z,./images/TRING.png,,,,,,,,,,,,,,,,,,,,,,
,,,,,,,,,,,,,,,,,198805,18,2022-01-28_20h53.20.524,lexical_decision_task_DD_L5,2021.2.3,MacIntel,58.82352941,,,,,,,,,,,0.883,1,,,,,,,,,,,,,,m,1,0.883,,,,,,,,0.036666667,-0.351111111,0,0,0,,0,111,111,15,1,COLLAR,HB,old,m,./images/COLLARHB.png,,,,,,,,,,,,,,,,,,,,,,
,,,,,,,,,,,,,,,,,198805,18,2022-01-28_20h53.20.524,lexical_decision_task_DD_L5,2021.2.3,MacIntel,58.82352941,,,,,,,,,,,0.946,1,,,,,,,,,,,,,,z,1,0.946,,,,,,,,0.036666667,-0.351111111,0,0,0,,0,112,112,141,1,PLEET,C,old,z,./images/PLEET.png,,,,,,,,,,,,,,,,,,,,,,
,,,,,,,,,,,,,,,,,198805,18,2022-01-28_20h53.20.524,lexical_decision_task_DD_L5,2021.2.3,MacIntel,58.82352941,,,,,,,,,,,0.722,1,,,,,,,,,,,,,,z,1,0.722,,,,,,,,0.036666667,-0.351111111,0,0,0,,0,113,113,108,1,GRUET,C,old,z,./images/GRUET.png,,,,,,,,,,,,,,,,,,,,,,
,,,,,,,,,,,,,,,,,198805,18,2022-01-28_20h53.20.524,lexical_decision_task_DD_L5,2021.2.3,MacIntel,58.82352941,,,,,,,,,,,1.303,1,,,,,,,,,,,,,,m,1,1.303,,,,,,,,0.036666667,-0.351111111,0,0,0,,0,114,114,52,1,DESERT,LB,old,m,./images/DESERTLB.png,,,,,,,,,,,,,,,,,,,,,,
,,,,,,,,,,,,,,,,,198805,18,2022-01-28_20h53.20.524,lexical_decision_task_DD_L5,2021.2.3,MacIntel,58.82352941,,,,,,,,,,,1.695,1,,,,,,,,,,,,,,m,1,1.695,,,,,,,,0.036666667,-0.351111111,0,0,0,,0,115,115,35,1,LLAMA,C,old,m,./images/LLAMA.png,,,,,,,,,,,,,,,,,,,,,,
,,,,,,,,,,,,,,,,,198805,18,2022-01-28_20h53.20.524,lexical_decision_task_DD_L5,2021.2.3,MacIntel,58.82352941,,,,,,,,,,,0.928,1,,,,,,,,,,,,,,z,1,0.928,,,,,,,,0.036666667,-0.351111111,0,0,0,,0,116,116,138,1,PLICE,C,old,z,./images/PLICE.png,,,,,,,,,,,,,,,,,,,,,,
,,,,,,,,,,,,,,,,,198805,18,2022-01-28_20h53.20.524,lexical_decision_task_DD_L5,2021.2.3,MacIntel,58.82352941,,,,,,,,,,,1.517,1,,,,,,,,,,,,,,z,1,1.517,,,,,,,,0.036666667,-0.351111111,0,0,0,,0,117,117,112,1,MYING,HB,old,z,./images/MYINGHB.png,,,,,,,,,,,,,,,,,,,,,,
,,,,,,,,,,,,,,,,,198805,18,2022-01-28_20h53.20.524,lexical_decision_task_DD_L5,2021.2.3,MacIntel,58.82352941,,,,,,,,,,,0.747,1,,,,,,,,,,,,,,m,1,0.747,,,,,,,,0.036666667,-0.351111111,0,0,0,,0,118,118,14,1,FENCE,C,old,m,./images/FENCE.png,,,,,,,,,,,,,,,,,,,,,,
,,,,,,,,,,,,,,,,,198805,18,2022-01-28_20h53.20.524,lexical_decision_task_DD_L5,2021.2.3,MacIntel,58.82352941,,,,,,,,,,,1.147,1,,,,,,,,,,,,,,z,1,1.147,,,,,,,,0.036666667,-0.351111111,0,0,0,,0,119,119,93,1,SMONE,C,old,z,./images/SMONE.png,,,,,,,,,,,,,,,,,,,,,,
,,,,,,,,,,,,,,,,,198805,18,2022-01-28_20h53.20.524,lexical_decision_task_DD_L5,2021.2.3,MacIntel,58.82352941,,,,,,,,,,,0.795,1,,,,,,,,,,,,,,m,1,0.795,,,,,,,,0.036666667,-0.351111111,0,0,0,,0,120,120,28,1,CASINO,LB,old,m,./images/CASINOLB.png,,,,,,,,,,,,,,,,,,,,,,
,,,,,,,,,,,,,,,,,198805,18,2022-01-28_20h53.20.524,lexical_decision_task_DD_L5,2021.2.3,MacIntel,58.82352941,,,,,,,,,,,0.686,1,,,,,,,,,,,,,,z,1,0.686,,,,,,,,0.036666667,-0.351111111,0,0,0,,0,121,121,129,1,PRANS,C,old,z,./images/PRANS.png,,,,,,,,,,,,,,,,,,,,,,
,,,,,,,,,,,,,,,,,198805,18,2022-01-28_20h53.20.524,lexical_decision_task_DD_L5,2021.2.3,MacIntel,58.82352941,,,,,,,,,,,0.745,1,,,,,,,,,,,,,,m,1,0.745,,,,,,,,0.036666667,-0.351111111,0,0,0,,0,122,122,1,1,TOWEL,LB,old,m,./images/TOWELLB.png,,,,,,,,,,,,,,,,,,,,,,
,,,,,,,,,,,,,,,,,198805,18,2022-01-28_20h53.20.524,lexical_decision_task_DD_L5,2021.2.3,MacIntel,58.82352941,,,,,,,,,,,3.104,1,,,,,,,,,,,,,,m,1,3.104,,,,,,,,0.036666667,-0.351111111,0,0,0,,0,123,123,3,1,CRATER,HB,old,m,./images/CRATERHB.png,,,,,,,,,,,,,,,,,,,,,,
,,,,,,,,,,,,,,,,,198805,18,2022-01-28_20h53.20.524,lexical_decision_task_DD_L5,2021.2.3,MacIntel,58.82352941,,,,,,,,,,,0.578,1,,,,,,,,,,,,,,m,1,0.578,,,,,,,,0.036666667,-0.351111111,0,0,0,,0,124,124,53,1,POSTER,C,old,m,./images/POSTER.png,,,,,,,,,,,,,,,,,,,,,,
,,,,,,,,,,,,,,,,,198805,18,2022-01-28_20h53.20.524,lexical_decision_task_DD_L5,2021.2.3,MacIntel,58.82352941,,,,,,,,,,,0.961,1,,,,,,,,,,,,,,m,1,0.961,,,,,,,,0.036666667,-0.351111111,0,0,0,space,0,125,125,21,1,DANCER,HB,old,m,./images/DANCERHB.png,1.169,,,,,,,,,,,,,,,,,,,,,
,,,,,,,,,,,,,,,,,198805,18,2022-01-28_20h53.20.524,lexical_decision_task_DD_L5,2021.2.3,MacIntel,58.82352941,,,,,,,,,,,0.92,1,,,,,,,,,,,,,,m,1,0.92,,,,,,,,0.036666667,-0.351111111,0,0,0,,0,126,126,82,1,PEBBLE,LB,old,m,./images/PEBBLELB.png,,,,,,,,,,,,,,,,,,,,,,
,,,,,,,,,,,,,,,,,198805,18,2022-01-28_20h53.20.524,lexical_decision_task_DD_L5,2021.2.3,MacIntel,58.82352941,,,,,,,,,,,1.463,1,,,,,,,,,,,,,,z,1,1.463,,,,,,,,0.036666667,-0.351111111,0,0,0,,0,127,127,134,1,TROSS,LB,old,z,./images/TROSSLB.png,,,,,,,,,,,,,,,,,,,,,,
,,,,,,,,,,,,,,,,,198805,18,2022-01-28_20h53.20.524,lexical_decision_task_DD_L5,2021.2.3,MacIntel,58.82352941,,,,,,,,,,,0.812,1,,,,,,,,,,,,,,z,1,0.812,,,,,,,,0.036666667,-0.351111111,0,0,0,,0,128,128,150,1,NOOLS,C,old,z,./images/NOOLS.png,,,,,,,,,,,,,,,,,,,,,,
,,,,,,,,,,,,,,,,,198805,18,2022-01-28_20h53.20.524,lexical_decision_task_DD_L5,2021.2.3,MacIntel,58.82352941,,,,,,,,,,,0.768,1,,,,,,,,,,,,,,m,1,0.768,,,,,,,,0.036666667,-0.351111111,0,0,0,,0,129,129,43,1,STOOL,LB,old,m,./images/STOOLLB.png,,,,,,,,,,,,,,,,,,,,,,
,,,,,,,,,,,,,,,,,198805,18,2022-01-28_20h53.20.524,lexical_decision_task_DD_L5,2021.2.3,MacIntel,58.82352941,,,,,,,,,,,3.962,1,,,,,,,,,,,,,,m,1,3.962,,,,,,,,0.036666667,-0.351111111,0,0,0,,0,130,130,62,1,MAMMAL,C,old,m,./images/MAMMAL.png,,,,,,,,,,,,,,,,,,,,,,
,,,,,,,,,,,,,,,,,198805,18,2022-01-28_20h53.20.524,lexical_decision_task_DD_L5,2021.2.3,MacIntel,58.82352941,,,,,,,,,,,0.933,1,,,,,,,,,,,,,,m,1,0.933,,,,,,,,0.036666667,-0.351111111,0,0,0,,0,131,131,47,1,LAGOON,C,old,m,./images/LAGOON.png,,,,,,,,,,,,,,,,,,,,,,
,,,,,,,,,,,,,,,,,198805,18,2022-01-28_20h53.20.524,lexical_decision_task_DD_L5,2021.2.3,MacIntel,58.82352941,,,,,,,,,,,0.811,1,,,,,,,,,,,,,,m,1,0.811,,,,,,,,0.036666667,-0.351111111,0,0,0,,0,132,132,51,1,SAUCE,HB,old,m,./images/SAUCEHB.png,,,,,,,,,,,,,,,,,,,,,,
,,,,,,,,,,,,,,,,,198805,18,2022-01-28_20h53.20.524,lexical_decision_task_DD_L5,2021.2.3,MacIntel,58.82352941,,,,,,,,,,,0.747,1,,,,,,,,,,,,,,m,1,0.747,,,,,,,,0.036666667,-0.351111111,0,0,0,,0,133,133,39,1,CANDY,HB,old,m,./images/CANDYHB.png,,,,,,,,,,,,,,,,,,,,,,
,,,,,,,,,,,,,,,,,198805,18,2022-01-28_20h53.20.524,lexical_decision_task_DD_L5,2021.2.3,MacIntel,58.82352941,,,,,,,,,,,0.878,1,,,,,,,,,,,,,,m,1,0.878,,,,,,,,0.036666667,-0.351111111,0,0,0,,0,134,134,73,1,GLOVE,LB,old,m,./images/GLOVELB.png,,,,,,,,,,,,,,,,,,,,,,
,,,,,,,,,,,,,,,,,198805,18,2022-01-28_20h53.20.524,lexical_decision_task_DD_L5,2021.2.3,MacIntel,58.82352941,,,,,,,,,,,0.631,1,,,,,,,,,,,,,,m,1,0.631,,,,,,,,0.036666667,-0.351111111,0,0,0,,0,135,135,31,1,STEAK,LB,old,m,./images/STEAKLB.png,,,,,,,,,,,,,,,,,,,,,,
,,,,,,,,,,,,,,,,,198805,18,2022-01-28_20h53.20.524,lexical_decision_task_DD_L5,2021.2.3,MacIntel,58.82352941,,,,,,,,,,,0.667,1,,,,,,,,,,,,,,m,1,0.667,,,,,,,,0.036666667,-0.351111111,0,0,0,,0,136,136,7,1,WAGON,LB,old,m,./images/WAGONLB.png,,,,,,,,,,,,,,,,,,,,,,
,,,,,,,,,,,,,,,,,198805,18,2022-01-28_20h53.20.524,lexical_decision_task_DD_L5,2021.2.3,MacIntel,58.82352941,,,,,,,,,,,1.103,1,,,,,,,,,,,,,,m,1,1.103,,,,,,,,0.036666667,-0.351111111,0,0,0,,0,137,137,0,1,WALNUT,HB,old,m,./images/WALNUTHB.png,,,,,,,,,,,,,,,,,,,,,,
,,,,,,,,,,,,,,,,,198805,18,2022-01-28_20h53.20.524,lexical_decision_task_DD_L5,2021.2.3,MacIntel,58.82352941,,,,,,,,,,,0.731,1,,,,,,,,,,,,,,z,1,0.731,,,,,,,,0.036666667,-0.351111111,0,0,0,,0,138,138,89,1,DRIEK,LB,old,z,./images/DRIEKLB.png,,,,,,,,,,,,,,,,,,,,,,
,,,,,,,,,,,,,,,,,198805,18,2022-01-28_20h53.20.524,lexical_decision_task_DD_L5,2021.2.3,MacIntel,58.82352941,,,,,,,,,,,1.062,1,,,,,,,,,,,,,,z,1,1.062,,,,,,,,0.036666667,-0.351111111,0,0,0,,0,139,139,125,1,MOOKY,LB,old,z,./images/MOOKYLB.png,,,,,,,,,,,,,,,,,,,,,,
,,,,,,,,,,,,,,,,,198805,18,2022-01-28_20h53.20.524,lexical_decision_task_DD_L5,2021.2.3,MacIntel,58.82352941,,,,,,,,,,,0.661,1,,,,,,,,,,,,,,m,1,0.661,,,,,,,,0.036666667,-0.351111111,0,0,0,,0,140,140,70,1,BANANA,LB,old,m,./images/BANANALB.png,,,,,,,,,,,,,,,,,,,,,,
,,,,,,,,,,,,,,,,,198805,18,2022-01-28_20h53.20.524,lexical_decision_task_DD_L5,2021.2.3,MacIntel,58.82352941,,,,,,,,,,,1.252,1,,,,,,,,,,,,,,m,1,1.252,,,,,,,,0.036666667,-0.351111111,0,0,0,,0,141,141,58,1,CANOE,LB,old,m,./images/CANOELB.png,,,,,,,,,,,,,,,,,,,,,,
,,,,,,,,,,,,,,,,,198805,18,2022-01-28_20h53.20.524,lexical_decision_task_DD_L5,2021.2.3,MacIntel,58.82352941,,,,,,,,,,,1.778,1,,,,,,,,,,,,,,z,1,1.778,,,,,,,,0.036666667,-0.351111111,0,0,0,,0,142,142,109,1,BURGE,HB,old,z,./images/BURGEHB.png,,,,,,,,,,,,,,,,,,,,,,
,,,,,,,,,,,,,,,,,198805,18,2022-01-28_20h53.20.524,lexical_decision_task_DD_L5,2021.2.3,MacIntel,58.82352941,,,,,,,,,,,0.911,1,,,,,,,,,,,,,,z,1,0.911,,,,,,,,0.036666667,-0.351111111,0,0,0,,0,143,143,119,1,PAFER,LB,old,z,./images/PAFERLB.png,,,,,,,,,,,,,,,,,,,,,,
,,,,,,,,,,,,,,,,,198805,18,2022-01-28_20h53.20.524,lexical_decision_task_DD_L5,2021.2.3,MacIntel,58.82352941,,,,,,,,,,,0.946,1,,,,,,,,,,,,,,m,1,0.946,,,,,,,,0.036666667,-0.351111111,0,0,0,,0,144,144,68,1,VALLEY,C,old,m,./images/VALLEY.png,,,,,,,,,,,,,,,,,,,,,,
,,,,,,,,,,,,,,,,,198805,18,2022-01-28_20h53.20.524,lexical_decision_task_DD_L5,2021.2.3,MacIntel,58.82352941,,,,,,,,,,,0.612,1,,,,,,,,,,,,,,m,1,0.612,,,,,,,,0.036666667,-0.351111111,0,0,0,,0,145,145,77,1,WHEEL,C,old,m,./images/WHEEL.png,,,,,,,,,,,,,,,,,,,,,,
,,,,,,,,,,,,,,,,,198805,18,2022-01-28_20h53.20.524,lexical_decision_task_DD_L5,2021.2.3,MacIntel,58.82352941,,,,,,,,,,,0.712,1,,,,,,,,,,,,,,m,1,0.712,,,,,,,,0.036666667,-0.351111111,0,0,0,,0,146,146,74,1,JUMPER,C,old,m,./images/JUMPER.png,,,,,,,,,,,,,,,,,,,,,,
,,,,,,,,,,,,,,,,,198805,18,2022-01-28_20h53.20.524,lexical_decision_task_DD_L5,2021.2.3,MacIntel,58.82352941,,,,,,,,,,,1.12,1,,,,,,,,,,,,,,z,1,1.12,,,,,,,,0.036666667,-0.351111111,0,0,0,,0,147,147,121,1,CEERS,HB,old,z,./images/CEERSHB.png,,,,,,,,,,,,,,,,,,,,,,
,,,,,,,,,,,,,,,,,198805,18,2022-01-28_20h53.20.524,lexical_decision_task_DD_L5,2021.2.3,MacIntel,58.82352941,,,,,,,,,,,0.771,1,,,,,,,,,,,,,,z,1,0.771,,,,,,,,0.036666667,-0.351111111,0,0,0,,0,148,148,152,1,FRAIN,LB,old,z,./images/FRAINLB.png,,,,,,,,,,,,,,,,,,,,,,
,,,,,,,,,,,,,,,,,198805,18,2022-01-28_20h53.20.524,lexical_decision_task_DD_L5,2021.2.3,MacIntel,58.82352941,,,,,,,,,,,0.762,1,,,,,,,,,,,,,,m,1,0.762,,,,,,,,0.036666667,-0.351111111,0,0,0,,0,149,149,2,1,STOVE,C,old,m,./images/STOVE.png,,,,,,,,,,,,,,,,,,,,,,
,,,,,,,,,,,,,,,,,198805,18,2022-01-28_20h53.20.524,lexical_decision_task_DD_L5,2021.2.3,MacIntel,58.82352941,,,,,,,,,,,0.712,1,,,,,,,,,,,,,,m,1,0.712,,,,,,,,0.036666667,-0.351111111,0,0,0,,0,150,150,40,1,SNAKE,LB,old,m,./images/SNAKELB.png,,,,,,,,,,,,,,,,,,,,,,
,,,,,,,,,,,,,,,,,198805,18,2022-01-28_20h53.20.524,lexical_decision_task_DD_L5,2021.2.3,MacIntel,58.82352941,,,,,,,,,,,0.58,1,,,,,,,,,,,,,,m,1,0.58,,,,,,,,0.036666667,-0.351111111,0,0,0,,0,151,151,64,1,BRIDE,LB,old,m,./images/BRIDELB.png,,,,,,,,,,,,,,,,,,,,,,
,,,,,,,,,,,,,,,,,198805,18,2022-01-28_20h53.20.524,lexical_decision_task_DD_L5,2021.2.3,MacIntel,58.82352941,,,,,,,,,,,0.902,1,,,,,,,,,,,,,,z,1,0.902,,,,,,,,0.036666667,-0.351111111,0,0,0,,0,152,152,133,1,POWDY,HB,old,z,./images/POWDYHB.png,,,,,,,,,,,,,,,,,,,,,,
,,,,,,,,,,,,,,,,,198805,18,2022-01-28_20h53.20.524,lexical_decision_task_DD_L5,2021.2.3,MacIntel,58.82352941,,,,,,,,,,,0.664,1,,,,,,,,,,,,,,z,1,0.664,,,,,,,,0.036666667,-0.351111111,0,0,0,,0,153,153,132,1,SCIFF,C,old,z,./images/SCIFF.png,,,,,,,,,,,,,,,,,,,,,,
,,,,,,,,,,,,,,,,,198805,18,2022-01-28_20h53.20.524,lexical_decision_task_DD_L5,2021.2.3,MacIntel,58.82352941,,,,,,,,,,,0.669,1,,,,,,,,,,,,,,z,1,0.669,,,,,,,,0.036666667,-0.351111111,0,0,0,,0,154,154,84,1,HAXES,C,old,z,./images/HAXES.png,,,,,,,,,,,,,,,,,,,,,,
,,,,,,,,,,,,,,,,,198805,18,2022-01-28_20h53.20.524,lexical_decision_task_DD_L5,2021.2.3,MacIntel,58.82352941,,,,,,,,,,,0.8,1,,,,,,,,,,,,,,m,1,0.8,,,,,,,,0.036666667,-0.351111111,0,0,0,,0,155,155,57,1,FERRY,HB,old,m,./images/FERRYHB.png,,,,,,,,,,,,,,,,,,,,,,
,,,,,,,,,,,,,,,,,198805,18,2022-01-28_20h53.20.524,lexical_decision_task_DD_L5,2021.2.3,MacIntel,58.82352941,,,,,,,,,,,0.62,1,,,,,,,,,,,,,,m,1,0.62,,,,,,,,0.036666667,-0.351111111,0,0,0,,0,156,156,4,1,BOXER,LB,old,m,./images/BOXERLB.png,,,,,,,,,,,,,,,,,,,,,,
,,,,,,,,,,,,,,,,,198805,18,2022-01-28_20h53.20.524,lexical_decision_task_DD_L5,2021.2.3,MacIntel,58.82352941,,,,,,,,,,,0.679,1,,,,,,,,,,,,,,m,1,0.679,,,,,,,,0.036666667,-0.351111111,0,0,0,,0,157,157,29,1,PISTOL,C,old,m,./images/PISTOL.png,,,,,,,,,,,,,,,,,,,,,,
,,,,,,,,,,,,,,,,,198805,18,2022-01-28_20h53.20.524,lexical_decision_task_DD_L5,2021.2.3,MacIntel,58.82352941,,,,,,,,,,,0.595,1,,,,,,,,,,,,,,m,1,0.595,,,,,,,,0.036666667,-0.351111111,0,0,0,,0,158,158,13,1,BUNNY,LB,old,m,./images/BUNNYLB.png,,,,,,,,,,,,,,,,,,,,,,
,,,,,,,,,,,,,,,,,198805,18,2022-01-28_20h53.20.524,lexical_decision_task_DD_L5,2021.2.3,MacIntel,58.82352941,,,,,,,,,,,0.704,1,,,,,,,,,,,,,,z,1,0.704,,,,,,,,0.036666667,-0.351111111,0,0,0,,0,159,159,160,1,VEETS,HB,old,z,./images/VEETSHB.png,,,,,,,,,,,,,,,,,,,,,,
,,,,,,,,,,,,,,,,,198805,18,2022-01-28_20h53.20.524,lexical_decision_task_DD_L5,2021.2.3,MacIntel,58.82352941,,,,,,,,,,,0.728,1,,,,,,,,,,,,,,z,1,0.728,,,,,,,,0.036666667,-0.351111111,0,0,0,,0,160,160,111,1,HOSSE,C,old,z,./images/HOSSE.png,,,,,,,,,,,,,,,,,,,,,,
,,,,,,,,,,,,,,,,,198805,18,2022-01-28_20h53.20.524,lexical_decision_task_DD_L5,2021.2.3,MacIntel,58.82352941,,,,,,,,,,,0.596,1,,,,,,,,,,,,,,m,1,0.596,,,,,,,,0.036666667,-0.351111111,0,0,0,,0,161,161,71,1,BUBBLE,C,old,m,./images/BUBBLE.png,,,,,,,,,,,,,,,,,,,,,,
,,,,,,,,,,,,,,,,,198805,18,2022-01-28_20h53.20.524,lexical_decision_task_DD_L5,2021.2.3,MacIntel,58.82352941,,,,,,,,,,,0.649,1,,,,,,,,,,,,,,m,1,0.649,,,,,,,,0.036666667,-0.351111111,0,0,0,,0,162,162,34,1,RAZOR,LB,old,m,./images/RAZORLB.png,,,,,,,,,,,,,,,,,,,,,,
,,,,,,,,,,,,,,,,,198805,18,2022-01-28_20h53.20.524,lexical_decision_task_DD_L5,2021.2.3,MacIntel,58.82352941,,,,,,,,,,,1.022,1,,,,,,,,,,,,,,z,1,1.022,,,,,,,,0.036666667,-0.351111111,0,0,0,,0,163,163,148,1,JOMS,HB,old,z,./images/JOMSHB.png,,,,,,,,,,,,,,,,,,,,,,
,,,,,,,,,,,,,,,,,198805,18,2022-01-28_20h53.20.524,lexical_decision_task_DD_L5,2021.2.3,MacIntel,58.82352941,,,,,,,,,,,0.768,1,,,,,,,,,,,,,,z,1,0.768,,,,,,,,0.036666667,-0.351111111,0,0,0,,0,164,164,90,1,NEAST,C,old,z,./images/NEAST.png,,,,,,,,,,,,,,,,,,,,,,
,,,,,,,,,,,,,,,,,198805,18,2022-01-28_20h53.20.524,lexical_decision_task_DD_L5,2021.2.3,MacIntel,58.82352941,,,,,,,,,,,0.847,1,,,,,,,,,,,,,,z,1,0.847,,,,,,,,0.036666667,-0.351111111,0,0,0,,0,165,165,118,1,BAVEL,HB,old,z,./images/BAVELHB.png,,,,,,,,,,,,,,,,,,,,,,
,,,,,,,,,,,,,,,,,198805,18,2022-01-28_20h53.20.524,lexical_decision_task_DD_L5,2021.2.3,MacIntel,58.82352941,,,,,,,,,,,0.735,1,,,,,,,,,,,,,,m,1,0.735,,,,,,,,0.036666667,-0.351111111,0,0,0,,0,166,166,59,1,BRUSH,C,old,m,./images/BRUSH.png,,,,,,,,,,,,,,,,,,,,,,
,,,,,,,,,,,,,,,,,198805,18,2022-01-28_20h53.20.524,lexical_decision_task_DD_L5,2021.2.3,MacIntel,58.82352941,,,,,,,,,,,1.062,1,,,,,,,,,,,,,,m,1,1.062,,,,,,,,0.036666667,-0.351111111,0,0,0,,0,167,167,78,1,BROOM,HB,old,m,./images/BROOMHB.png,,,,,,,,,,,,,,,,,,,,,,
space,57.002,0.036666667,-0.351111111,0,0,0,,,,,,1,test,"In the next phase you will be presented with the words from the the first phase. Your job is to decide whether you remember seeing the word or not. If you remember seeing the word press ""old"" or type ""m"". If you do not remember seeing the word press ""new"" or type ""z"". Please press the space bar or click on continue to begin. ",,,198805,18,2022-01-28_20h53.20.524,lexical_decision_task_DD_L5,2021.2.3,MacIntel,58.82352941,,,,,,,,,,,,,,,,,,,,,,,,,,,,,,,,,,,,,,,,,,,,,,,,,,,,,0,0,0,0,1,,,,,,,,,,,,,,,,
space,1.436,0.036666667,-0.351111111,0,0,0,,,,,,1,test,"In the next phase you will be presented with the words from the the first phase. Your job is to decide whether you remember seeing the word or not. If you remember seeing the word press ""old"" or type ""m"". If you do not remember seeing the word press ""new"" or type ""z"". Please press the space bar or click on continue to begin. ",,,198805,18,2022-01-28_20h53.20.524,lexical_decision_task_DD_L5,2021.2.3,MacIntel,58.82352941,,,,,,,,,,,,,,,,,,,,,,,,,,,,,,,,,,,,,,,,,,,,,,,,,,,,,1,0,1,0,1,,,,,,,,,,,,,,,,
,,0.022222222,-0.387777778,1,0,0,,,,,,1,test,"In the next phase you will be presented with the words from the the first phase. Your job is to decide whether you remember seeing the word or not. If you remember seeing the word press ""old"" or type ""m"". If you do not remember seeing the word press ""new"" or type ""z"". Please press the space bar or click on continue to begin. ",,,198805,18,2022-01-28_20h53.20.524,lexical_decision_task_DD_L5,2021.2.3,MacIntel,58.82352941,,,,,,,,,,,,,,,,,,,,,,,,,,,,,,,,,,,,,,,,,,,,,,,,,,,,,2,0,2,0,1,instr_done_button,,,,,,,,,,,,,,,
,,0.02,-0.402222222,1,0,0,,,,,,1,test,"In the next phase you will be presented with the words from the the first phase. Your job is to decide whether you remember seeing the word or not. If you remember seeing the word press ""old"" or type ""m"". If you do not remember seeing the word press ""new"" or type ""z"". Please press the space bar or click on continue to begin. ",,,198805,18,2022-01-28_20h53.20.524,lexical_decision_task_DD_L5,2021.2.3,MacIntel,58.82352941,,,,,,,,,,,,,,,,,,,,,,,,,,,,,,,,,,,,,,,,,,,,,,,,,,,,,3,0,3,0,1,instr_done_button,,,,,,,,,,,,,,,
space,0.873,0.018888889,-0.397777778,0,0,0,,,,,,1,test,"In the next phase you will be presented with the words from the the first phase. Your job is to decide whether you remember seeing the word or not. If you remember seeing the word press ""old"" or type ""m"". If you do not remember seeing the word press ""new"" or type ""z"". Please press the space bar or click on continue to begin. ",,,198805,18,2022-01-28_20h53.20.524,lexical_decision_task_DD_L5,2021.2.3,MacIntel,58.82352941,,,,,,,,,,,,,,,,,,,,,,,,,,,,,,,,,,,,,,,,,,,,,,,,,,,,,4,0,4,0,1,,,,,,,,,,,,,,,,
,,,,,,,,,,,,,,,,,198805,18,2022-01-28_20h53.20.524,lexical_decision_task_DD_L5,2021.2.3,MacIntel,58.82352941,,,,,,,,,,,2.84,1,,,,,,,,,,,,,,,,,,,,,,,,0.018888889,-0.397777778,0,0,0,,,,,,,DONKEY,LB,m,y,./images/DONKEYLB.png,,,,,,,,m,1,2.84,,,,,,,,0,0,0,19,1
,,,,,,,,,,,,,,,,,198805,18,2022-01-28_20h53.20.524,lexical_decision_task_DD_L5,2021.2.3,MacIntel,58.82352941,,,,,,,,,,,1.46,1,,,,,,,,,,,,,,,,,,,,,,,,0.018888889,-0.397777778,0,0,0,,,,,,,LITTER,HB,z,y,./images/LITTERHB.png,,,,,,,,z,1,1.46,,,,,,,,0,1,1,162,1
,,,,,,,,,,,,,,,,,198805,18,2022-01-28_20h53.20.524,lexical_decision_task_DD_L5,2021.2.3,MacIntel,58.82352941,,,,,,,,,,,3.495,1,,,,,,,,,,,,,,,,,,,,,,,,0.018888889,-0.397777778,0,0,0,,,,,,,MEDAL,C,m,y,./images/MEDAL.png,,,,,,,,m,1,3.495,,,,,,,,0,2,2,11,1
,,,,,,,,,,,,,,,,,198805,18,2022-01-28_20h53.20.524,lexical_decision_task_DD_L5,2021.2.3,MacIntel,58.82352941,,,,,,,,,,,1.268,1,,,,,,,,,,,,,,,,,,,,,,,,0.018888889,-0.397777778,0,0,0,,,,,,,BRIDE,LB,m,y,./images/BRIDELB.png,,,,,,,,m,1,1.268,,,,,,,,0,3,3,64,1
,,,,,,,,,,,,,,,,,198805,18,2022-01-28_20h53.20.524,lexical_decision_task_DD_L5,2021.2.3,MacIntel,58.82352941,,,,,,,,,,,0.863,1,,,,,,,,,,,,,,,,,,,,,,,,0.018888889,-0.397777778,0,0,0,,,,,,,BAKER,HB,m,y,./images/BAKERHB.png,,,,,,,,m,1,0.863,,,,,,,,0,4,4,63,1
,,,,,,,,,,,,,,,,,198805,18,2022-01-28_20h53.20.524,lexical_decision_task_DD_L5,2021.2.3,MacIntel,58.82352941,,,,,,,,,,,2.305,1,,,,,,,,,,,,,,,,,,,,,,,,0.018888889,-0.397777778,0,0,0,,,,,,,PENCE,LB,z,y,./images/PENCELB.png,,,,,,,,z,1,2.305,,,,,,,,0,5,5,100,1
,,,,,,,,,,,,,,,,,198805,18,2022-01-28_20h53.20.524,lexical_decision_task_DD_L5,2021.2.3,MacIntel,58.82352941,,,,,,,,,,,1.228,1,,,,,,,,,,,,,,,,,,,,,,,,0.018888889,-0.397777778,0,0,0,,,,,,,SHELF,HB,z,y,./images/SHELFHB.png,,,,,,,,z,1,1.228,,,,,,,,0,6,6,123,1
,,,,,,,,,,,,,,,,,198805,18,2022-01-28_20h53.20.524,lexical_decision_task_DD_L5,2021.2.3,MacIntel,58.82352941,,,,,,,,,,,0.795,0,,,,,,,,,,,,,,,,,,,,,,,,0.018888889,-0.397777778,0,0,0,,,,,,,BURIAL,C,z,y,./images/BURIAL.png,,,,,,,,m,0,0.795,,,,,,,,0,7,7,143,1
,,,,,,,,,,,,,,,,,198805,18,2022-01-28_20h53.20.524,lexical_decision_task_DD_L5,2021.2.3,MacIntel,58.82352941,,,,,,,,,,,0.894,1,,,,,,,,,,,,,,,,,,,,,,,,0.018888889,-0.397777778,0,0,0,,,,,,,MIDGET,LB,m,y,./images/MIDGETLB.png,,,,,,,,m,1,0.894,,,,,,,,0,8,8,76,1
,,,,,,,,,,,,,,,,,198805,18,2022-01-28_20h53.20.524,lexical_decision_task_DD_L5,2021.2.3,MacIntel,58.82352941,,,,,,,,,,,0.786,1,,,,,,,,,,,,,,,,,,,,,,,,0.018888889,-0.397777778,0,0,0,,,,,,,LLAMA,C,m,y,./images/LLAMA.png,,,,,,,,m,1,0.786,,,,,,,,0,9,9,35,1
,,,,,,,,,,,,,,,,,198805,18,2022-01-28_20h53.20.524,lexical_decision_task_DD_L5,2021.2.3,MacIntel,58.82352941,,,,,,,,,,,2.678,1,,,,,,,,,,,,,,,,,,,,,,,,0.018888889,-0.397777778,0,0,0,,,,,,,BLOKE,HB,m,y,./images/BLOKEHB.png,,,,,,,,m,1,2.678,,,,,,,,0,10,10,12,1
,,,,,,,,,,,,,,,,,198805,18,2022-01-28_20h53.20.524,lexical_decision_task_DD_L5,2021.2.3,MacIntel,58.82352941,,,,,,,,,,,4.212,1,,,,,,,,,,,,,,,,,,,,,,,,0.018888889,-0.397777778,0,0,0,,,,,,,JUNGLE,C,z,y,./images/JUNGLE.png,,,,,,,,z,1,4.212,,,,,,,,0,11,11,167,1
,,,,,,,,,,,,,,,,,198805,18,2022-01-28_20h53.20.524,lexical_decision_task_DD_L5,2021.2.3,MacIntel,58.82352941,,,,,,,,,,,1.279,1,,,,,,,,,,,,,,,,,,,,,,,,0.018888889,-0.397777778,0,0,0,,,,,,,MUFFIN,LB,z,y,./images/MUFFINLB.png,,,,,,,,z,1,1.279,,,,,,,,0,12,12,139,1
,,,,,,,,,,,,,,,,,198805,18,2022-01-28_20h53.20.524,lexical_decision_task_DD_L5,2021.2.3,MacIntel,58.82352941,,,,,,,,,,,1.418,0,,,,,,,,,,,,,,,,,,,,,,,,0.018888889,-0.397777778,0,0,0,,,,,,,BEARD,C,z,y,./images/BEARD.png,,,,,,,,m,0,1.418,,,,,,,,0,13,13,86,1
,,,,,,,,,,,,,,,,,198805,18,2022-01-28_20h53.20.524,lexical_decision_task_DD_L5,2021.2.3,MacIntel,58.82352941,,,,,,,,,,,0.855,1,,,,,,,,,,,,,,,,,,,,,,,,0.018888889,-0.397777778,0,0,0,,,,,,,SLOPE,HB,m,y,./images/SLOPEHB.png,,,,,,,,m,1,0.855,,,,,,,,0,14,14,30,1
,,,,,,,,,,,,,,,,,198805,18,2022-01-28_20h53.20.524,lexical_decision_task_DD_L5,2021.2.3,MacIntel,58.82352941,,,,,,,,,,,0.963,1,,,,,,,,,,,,,,,,,,,,,,,,0.018888889,-0.397777778,0,0,0,,,,,,,PILOT,C,m,y,./images/PILOT.png,,,,,,,,m,1,0.963,,,,,,,,0,15,15,50,1
,,,,,,,,,,,,,,,,,198805,18,2022-01-28_20h53.20.524,lexical_decision_task_DD_L5,2021.2.3,MacIntel,58.82352941,,,,,,,,,,,0.961,1,,,,,,,,,,,,,,,,,,,,,,,,0.018888889,-0.397777778,0,0,0,,,,,,,FALCON,LB,z,y,./images/FALCONLB.png,,,,,,,,z,1,0.961,,,,,,,,0,16,16,112,1
,,,,,,,,,,,,,,,,,198805,18,2022-01-28_20h53.20.524,lexical_decision_task_DD_L5,2021.2.3,MacIntel,58.82352941,,,,,,,,,,,1.126,1,,,,,,,,,,,,,,,,,,,,,,,,0.018888889,-0.397777778,0,0,0,,,,,,,WAGON,LB,m,y,./images/WAGONLB.png,,,,,,,,m,1,1.126,,,,,,,,0,17,17,7,1
,,,,,,,,,,,,,,,,,198805,18,2022-01-28_20h53.20.524,lexical_decision_task_DD_L5,2021.2.3,MacIntel,58.82352941,,,,,,,,,,,2.544,0,,,,,,,,,,,,,,,,,,,,,,,,0.018888889,-0.397777778,0,0,0,,,,,,,TOWEL,LB,m,y,./images/TOWELLB.png,,,,,,,,z,0,2.544,,,,,,,,0,18,18,1,1
,,,,,,,,,,,,,,,,,198805,18,2022-01-28_20h53.20.524,lexical_decision_task_DD_L5,2021.2.3,MacIntel,58.82352941,,,,,,,,,,,0.855,1,,,,,,,,,,,,,,,,,,,,,,,,0.018888889,-0.397777778,0,0,0,,,,,,,FENCE,C,m,y,./images/FENCE.png,,,,,,,,m,1,0.855,,,,,,,,0,19,19,14,1
,,,,,,,,,,,,,,,,,198805,18,2022-01-28_20h53.20.524,lexical_decision_task_DD_L5,2021.2.3,MacIntel,58.82352941,,,,,,,,,,,0.887,1,,,,,,,,,,,,,,,,,,,,,,,,0.018888889,-0.397777778,0,0,0,,,,,,,RULER,LB,m,y,./images/RULERLB.png,,,,,,,,m,1,0.887,,,,,,,,0,20,20,79,1
,,,,,,,,,,,,,,,,,198805,18,2022-01-28_20h53.20.524,lexical_decision_task_DD_L5,2021.2.3,MacIntel,58.82352941,,,,,,,,,,,1.055,1,,,,,,,,,,,,,,,,,,,,,,,,0.018888889,-0.397777778,0,0,0,,,,,,,GRAIN,HB,z,y,./images/GRAINHB.png,,,,,,,,z,1,1.055,,,,,,,,0,21,21,159,1
,,,,,,,,,,,,,,,,,198805,18,2022-01-28_20h53.20.524,lexical_decision_task_DD_L5,2021.2.3,MacIntel,58.82352941,,,,,,,,,,,1.679,1,,,,,,,,,,,,,,,,,,,,,,,,0.018888889,-0.397777778,0,0,0,,,,,,,HOCKEY,C,m,y,./images/HOCKEY.png,,,,,,,,m,1,1.679,,,,,,,,0,22,22,32,1
,,,,,,,,,,,,,,,,,198805,18,2022-01-28_20h53.20.524,lexical_decision_task_DD_L5,2021.2.3,MacIntel,58.82352941,,,,,,,,,,,1.004,1,,,,,,,,,,,,,,,,,,,,,,,,0.018888889,-0.397777778,0,0,0,,,,,,,PACKET,C,z,y,./images/PACKET.png,,,,,,,,z,1,1.004,,,,,,,,0,23,23,140,1
,,,,,,,,,,,,,,,,,198805,18,2022-01-28_20h53.20.524,lexical_decision_task_DD_L5,2021.2.3,MacIntel,58.82352941,,,,,,,,,,,1.178,1,,,,,,,,,,,,,,,,,,,,,,,,0.018888889,-0.397777778,0,0,0,,,,,,,BELLY,LB,z,y,./images/BELLYLB.png,,,,,,,,z,1,1.178,,,,,,,,0,24,24,94,1
,,,,,,,,,,,,,,,,,198805,18,2022-01-28_20h53.20.524,lexical_decision_task_DD_L5,2021.2.3,MacIntel,58.82352941,,,,,,,,,,,2.168,0,,,,,,,,,,,,,,,,,,,,,,,,0.018888889,-0.397777778,0,0,0,,,,,,,ARTIST,LB,m,y,./images/ARTISTLB.png,,,,,,,,z,0,2.168,,,,,,,,0,25,25,61,1
,,,,,,,,,,,,,,,,,198805,18,2022-01-28_20h53.20.524,lexical_decision_task_DD_L5,2021.2.3,MacIntel,58.82352941,,,,,,,,,,,3.762,1,,,,,,,,,,,,,,,,,,,,,,,,0.018888889,-0.397777778,0,0,0,,,,,,,CHALK,LB,m,y,./images/CHALKLB.png,,,,,,,,m,1,3.762,,,,,,,,0,26,26,25,1
,,,,,,,,,,,,,,,,,198805,18,2022-01-28_20h53.20.524,lexical_decision_task_DD_L5,2021.2.3,MacIntel,58.82352941,,,,,,,,,,,0.872,1,,,,,,,,,,,,,,,,,,,,,,,,0.018888889,-0.397777778,0,0,0,,,,,,,STEAK,LB,m,y,./images/STEAKLB.png,,,,,,,,m,1,0.872,,,,,,,,0,27,27,31,1
,,,,,,,,,,,,,,,,,198805,18,2022-01-28_20h53.20.524,lexical_decision_task_DD_L5,2021.2.3,MacIntel,58.82352941,,,,,,,,,,,0.847,0,,,,,,,,,,,,,,,,,,,,,,,,0.018888889,-0.397777778,0,0,0,,,,,,,PAINT,LB,z,y,./images/PAINTLB.png,,,,,,,,m,0,0.847,,,,,,,,0,28,28,91,1
,,,,,,,,,,,,,,,,,198805,18,2022-01-28_20h53.20.524,lexical_decision_task_DD_L5,2021.2.3,MacIntel,58.82352941,,,,,,,,,,,0.812,1,,,,,,,,,,,,,,,,,,,,,,,,0.018888889,-0.397777778,0,0,0,,,,,,,CANOE,LB,m,y,./images/CANOELB.png,,,,,,,,m,1,0.812,,,,,,,,0,29,29,58,1
,,,,,,,,,,,,,,,,,198805,18,2022-01-28_20h53.20.524,lexical_decision_task_DD_L5,2021.2.3,MacIntel,58.82352941,,,,,,,,,,,0.815,1,,,,,,,,,,,,,,,,,,,,,,,,0.018888889,-0.397777778,0,0,0,,,,,,,FINGER,HB,z,y,./images/FINGERHB.png,,,,,,,,z,1,0.815,,,,,,,,0,30,30,87,1
,,,,,,,,,,,,,,,,,198805,18,2022-01-28_20h53.20.524,lexical_decision_task_DD_L5,2021.2.3,MacIntel,58.82352941,,,,,,,,,,,1.154,1,,,,,,,,,,,,,,,,,,,,,,,,0.018888889,-0.397777778,0,0,0,,,,,,,CHERRY,HB,m,y,./images/CHERRYHB.png,,,,,,,,m,1,1.154,,,,,,,,0,31,31,54,1
,,,,,,,,,,,,,,,,,198805,18,2022-01-28_20h53.20.524,lexical_decision_task_DD_L5,2021.2.3,MacIntel,58.82352941,,,,,,,,,,,1.278,0,,,,,,,,,,,,,,,,,,,,,,,,0.018888889,-0.397777778,0,0,0,,,,,,,SMOKER,C,z,y,./images/SMOKER.png,,,,,,,,m,0,1.278,,,,,,,,0,32,32,110,1
,,,,,,,,,,,,,,,,,198805,18,2022-01-28_20h53.20.524,lexical_decision_task_DD_L5,2021.2.3,MacIntel,58.82352941,,,,,,,,,,,0.913,1,,,,,,,,,,,,,,,,,,,,,,,,0.018888889,-0.397777778,0,0,0,,,,,,,BIRTH,LB,z,y,./images/BIRTHLB.png,,,,,,,,z,1,0.913,,,,,,,,0,33,33,121,1
,,,,,,,,,,,,,,,,,198805,18,2022-01-28_20h53.20.524,lexical_decision_task_DD_L5,2021.2.3,MacIntel,58.82352941,,,,,,,,,,,3.078,1,,,,,,,,,,,,,,,,,,,,,,,,0.018888889,-0.397777778,0,0,0,,,,,,,SWING,LB,z,y,./images/SWINGLB.png,,,,,,,,z,1,3.078,,,,,,,,0,34,34,124,1
,,,,,,,,,,,,,,,,,198805,18,2022-01-28_20h53.20.524,lexical_decision_task_DD_L5,2021.2.3,MacIntel,58.82352941,,,,,,,,,,,1.586,1,,,,,,,,,,,,,,,,,,,,,,,,0.018888889,-0.397777778,0,0,0,,,,,,,ALLEY,LB,m,y,./images/ALLEYLB.png,,,,,,,,m,1,1.586,,,,,,,,0,35,35,55,1
,,,,,,,,,,,,,,,,,198805,18,2022-01-28_20h53.20.524,lexical_decision_task_DD_L5,2021.2.3,MacIntel,58.82352941,,,,,,,,,,,1.346,1,,,,,,,,,,,,,,,,,,,,,,,,0.018888889,-0.397777778,0,0,0,,,,,,,JAGUAR,HB,z,y,./images/JAGUARHB.png,,,,,,,,z,1,1.346,,,,,,,,0,36,36,102,1
,,,,,,,,,,,,,,,,,198805,18,2022-01-28_20h53.20.524,lexical_decision_task_DD_L5,2021.2.3,MacIntel,58.82352941,,,,,,,,,,,0.927,1,,,,,,,,,,,,,,,,,,,,,,,,0.018888889,-0.397777778,0,0,0,,,,,,,BUBBLE,C,m,y,./images/BUBBLE.png,,,,,,,,m,1,0.927,,,,,,,,0,37,37,71,1
,,,,,,,,,,,,,,,,,198805,18,2022-01-28_20h53.20.524,lexical_decision_task_DD_L5,2021.2.3,MacIntel,58.82352941,,,,,,,,,,,0.895,1,,,,,,,,,,,,,,,,,,,,,,,,0.018888889,-0.397777778,0,0,0,,,,,,,KIDNEY,HB,z,y,./images/KIDNEYHB.png,,,,,,,,z,1,0.895,,,,,,,,0,38,38,105,1
,,,,,,,,,,,,,,,,,198805,18,2022-01-28_20h53.20.524,lexical_decision_task_DD_L5,2021.2.3,MacIntel,58.82352941,,,,,,,,,,,1.181,1,,,,,,,,,,,,,,,,,,,,,,,,0.018888889,-0.397777778,0,0,0,,,,,,,FOLDER,HB,z,y,./images/FOLDERHB.png,,,,,,,,z,1,1.181,,,,,,,,0,39,39,126,1
,,,,,,,,,,,,,,,,,198805,18,2022-01-28_20h53.20.524,lexical_decision_task_DD_L5,2021.2.3,MacIntel,58.82352941,,,,,,,,,,,1.434,0,,,,,,,,,,,,,,,,,,,,,,,,0.018888889,-0.397777778,0,0,0,,,,,,,FARMER,C,z,y,./images/FARMER.png,,,,,,,,m,0,1.434,,,,,,,,0,40,40,149,1
,,,,,,,,,,,,,,,,,198805,18,2022-01-28_20h53.20.524,lexical_decision_task_DD_L5,2021.2.3,MacIntel,58.82352941,,,,,,,,,,,0.911,0,,,,,,,,,,,,,,,,,,,,,,,,0.018888889,-0.397777778,0,0,0,space,,,,,,CANDLE,LB,z,y,./images/CANDLELB.png,1.406,,,,,,,m,0,0.911,,,,,,,,0,41,41,145,1
,,,,,,,,,,,,,,,,,198805,18,2022-01-28_20h53.20.524,lexical_decision_task_DD_L5,2021.2.3,MacIntel,58.82352941,,,,,,,,,,,0.861,1,,,,,,,,,,,,,,,,,,,,,,,,0.018888889,-0.397777778,0,0,0,,,,,,,ONION,HB,z,y,./images/ONIONHB.png,,,,,,,,z,1,0.861,,,,,,,,0,42,42,135,1
,,,,,,,,,,,,,,,,,198805,18,2022-01-28_20h53.20.524,lexical_decision_task_DD_L5,2021.2.3,MacIntel,58.82352941,,,,,,,,,,,1.653,0,,,,,,,,,,,,,,,,,,,,,,,,0.018888889,-0.397777778,0,0,0,,,,,,,SHORE,HB,z,y,./images/SHOREHB.png,,,,,,,,m,0,1.653,,,,,,,,0,43,43,96,1
,,,,,,,,,,,,,,,,,198805,18,2022-01-28_20h53.20.524,lexical_decision_task_DD_L5,2021.2.3,MacIntel,58.82352941,,,,,,,,,,,0.864,0,,,,,,,,,,,,,,,,,,,,,,,,0.018888889,-0.397777778,0,0,0,,,,,,,KITTEN,HB,z,y,./images/KITTENHB.png,,,,,,,,m,0,0.864,,,,,,,,0,44,44,129,1
,,,,,,,,,,,,,,,,,198805,18,2022-01-28_20h53.20.524,lexical_decision_task_DD_L5,2021.2.3,MacIntel,58.82352941,,,,,,,,,,,1.245,1,,,,,,,,,,,,,,,,,,,,,,,,0.018888889,-0.397777778,0,0,0,,,,,,,PARCEL,HB,m,y,./images/PARCELHB.png,,,,,,,,m,1,1.245,,,,,,,,0,45,45,18,1
,,,,,,,,,,,,,,,,,198805,18,2022-01-28_20h53.20.524,lexical_decision_task_DD_L5,2021.2.3,MacIntel,58.82352941,,,,,,,,,,,0.944,1,,,,,,,,,,,,,,,,,,,,,,,,0.018888889,-0.397777778,0,0,0,,,,,,,GRANNY,C,m,y,./images/GRANNY.png,,,,,,,,m,1,0.944,,,,,,,,0,46,46,20,1
,,,,,,,,,,,,,,,,,198805,18,2022-01-28_20h53.20.524,lexical_decision_task_DD_L5,2021.2.3,MacIntel,58.82352941,,,,,,,,,,,0.886,1,,,,,,,,,,,,,,,,,,,,,,,,0.018888889,-0.397777778,0,0,0,,,,,,,BASKET,C,m,y,./images/BASKET.png,,,,,,,,m,1,0.886,,,,,,,,0,47,47,44,1
,,,,,,,,,,,,,,,,,198805,18,2022-01-28_20h53.20.524,lexical_decision_task_DD_L5,2021.2.3,MacIntel,58.82352941,,,,,,,,,,,1.278,1,,,,,,,,,,,,,,,,,,,,,,,,0.018888889,-0.397777778,0,0,0,,,,,,,CLIFF,C,m,y,./images/CLIFF.png,,,,,,,,m,1,1.278,,,,,,,,0,48,48,8,1
,,,,,,,,,,,,,,,,,198805,18,2022-01-28_20h53.20.524,lexical_decision_task_DD_L5,2021.2.3,MacIntel,58.82352941,,,,,,,,,,,2.368,0,,,,,,,,,,,,,,,,,,,,,,,,0.018888889,-0.397777778,0,0,0,,,,,,,COUCH,C,z,y,./images/COUCH.png,,,,,,,,m,0,2.368,,,,,,,,0,49,49,161,1
,,,,,,,,,,,,,,,,,198805,18,2022-01-28_20h53.20.524,lexical_decision_task_DD_L5,2021.2.3,MacIntel,58.82352941,,,,,,,,,,,1.213,1,,,,,,,,,,,,,,,,,,,,,,,,0.018888889,-0.397777778,0,0,0,,,,,,,INFANT,LB,z,y,./images/INFANTLB.png,,,,,,,,z,1,1.213,,,,,,,,0,50,50,160,1
,,,,,,,,,,,,,,,,,198805,18,2022-01-28_20h53.20.524,lexical_decision_task_DD_L5,2021.2.3,MacIntel,58.82352941,,,,,,,,,,,0.986,1,,,,,,,,,,,,,,,,,,,,,,,,0.018888889,-0.397777778,0,0,0,,,,,,,DRILL,HB,m,y,./images/DRILLHB.png,,,,,,,,m,1,0.986,,,,,,,,0,51,51,81,1
,,,,,,,,,,,,,,,,,198805,18,2022-01-28_20h53.20.524,lexical_decision_task_DD_L5,2021.2.3,MacIntel,58.82352941,,,,,,,,,,,1.096,1,,,,,,,,,,,,,,,,,,,,,,,,0.018888889,-0.397777778,0,0,0,,,,,,,GRAPE,LB,m,y,./images/GRAPELB.png,,,,,,,,m,1,1.096,,,,,,,,0,52,52,16,1
,,,,,,,,,,,,,,,,,198805,18,2022-01-28_20h53.20.524,lexical_decision_task_DD_L5,2021.2.3,MacIntel,58.82352941,,,,,,,,,,,0.877,1,,,,,,,,,,,,,,,,,,,,,,,,0.018888889,-0.397777778,0,0,0,,,,,,,MAMMAL,C,m,y,./images/MAMMAL.png,,,,,,,,m,1,0.877,,,,,,,,0,53,53,62,1
,,,,,,,,,,,,,,,,,198805,18,2022-01-28_20h53.20.524,lexical_decision_task_DD_L5,2021.2.3,MacIntel,58.82352941,,,,,,,,,,,0.98,1,,,,,,,,,,,,,,,,,,,,,,,,0.018888889,-0.397777778,0,0,0,,,,,,,BOILER,HB,m,y,./images/BOILERHB.png,,,,,,,,m,1,0.98,,,,,,,,0,54,54,36,1
,,,,,,,,,,,,,,,,,198805,18,2022-01-28_20h53.20.524,lexical_decision_task_DD_L5,2021.2.3,MacIntel,58.82352941,,,,,,,,,,,1.055,0,,,,,,,,,,,,,,,,,,,,,,,,0.018888889,-0.397777778,0,0,0,,,,,,,MALLET,C,z,y,./images/MALLET.png,,,,,,,,m,0,1.055,,,,,,,,0,55,55,134,1
,,,,,,,,,,,,,,,,,198805,18,2022-01-28_20h53.20.524,lexical_decision_task_DD_L5,2021.2.3,MacIntel,58.82352941,,,,,,,,,,,2.031,1,,,,,,,,,,,,,,,,,,,,,,,,0.018888889,-0.397777778,0,0,0,,,,,,,MAGGOT,HB,z,y,./images/MAGGOTHB.png,,,,,,,,z,1,2.031,,,,,,,,0,56,56,117,1
,,,,,,,,,,,,,,,,,198805,18,2022-01-28_20h53.20.524,lexical_decision_task_DD_L5,2021.2.3,MacIntel,58.82352941,,,,,,,,,,,0.868,1,,,,,,,,,,,,,,,,,,,,,,,,0.018888889,-0.397777778,0,0,0,,,,,,,WRIST,LB,z,y,./images/WRISTLB.png,,,,,,,,z,1,0.868,,,,,,,,0,57,57,109,1
,,,,,,,,,,,,,,,,,198805,18,2022-01-28_20h53.20.524,lexical_decision_task_DD_L5,2021.2.3,MacIntel,58.82352941,,,,,,,,,,,1.051,1,,,,,,,,,,,,,,,,,,,,,,,,0.018888889,-0.397777778,0,0,0,,,,,,,GREASE,HB,z,y,./images/GREASEHB.png,,,,,,,,z,1,1.051,,,,,,,,0,58,58,99,1
,,,,,,,,,,,,,,,,,198805,18,2022-01-28_20h53.20.524,lexical_decision_task_DD_L5,2021.2.3,MacIntel,58.82352941,,,,,,,,,,,0.987,1,,,,,,,,,,,,,,,,,,,,,,,,0.018888889,-0.397777778,0,0,0,,,,,,,DIVER,HB,m,y,./images/DIVERHB.png,,,,,,,,m,1,0.987,,,,,,,,0,59,59,9,1
,,,,,,,,,,,,,,,,,198805,18,2022-01-28_20h53.20.524,lexical_decision_task_DD_L5,2021.2.3,MacIntel,58.82352941,,,,,,,,,,,0.721,1,,,,,,,,,,,,,,,,,,,,,,,,0.018888889,-0.397777778,0,0,0,,,,,,,STOVE,C,m,y,./images/STOVE.png,,,,,,,,m,1,0.721,,,,,,,,0,60,60,2,1
,,,,,,,,,,,,,,,,,198805,18,2022-01-28_20h53.20.524,lexical_decision_task_DD_L5,2021.2.3,MacIntel,58.82352941,,,,,,,,,,,1.156,1,,,,,,,,,,,,,,,,,,,,,,,,0.018888889,-0.397777778,0,0,0,,,,,,,TIGER,LB,m,y,./images/TIGERLB.png,,,,,,,,m,1,1.156,,,,,,,,0,61,61,37,1
,,,,,,,,,,,,,,,,,198805,18,2022-01-28_20h53.20.524,lexical_decision_task_DD_L5,2021.2.3,MacIntel,58.82352941,,,,,,,,,,,1.235,0,,,,,,,,,,,,,,,,,,,,,,,,0.018888889,-0.397777778,0,0,0,,,,,,,SAILOR,LB,z,y,./images/SAILORLB.png,,,,,,,,m,0,1.235,,,,,,,,0,62,62,151,1
,,,,,,,,,,,,,,,,,198805,18,2022-01-28_20h53.20.524,lexical_decision_task_DD_L5,2021.2.3,MacIntel,58.82352941,,,,,,,,,,,1.561,1,,,,,,,,,,,,,,,,,,,,,,,,0.018888889,-0.397777778,0,0,0,,,,,,,PEACH,C,z,y,./images/PEACH.png,,,,,,,,z,1,1.561,,,,,,,,0,63,63,119,1
,,,,,,,,,,,,,,,,,198805,18,2022-01-28_20h53.20.524,lexical_decision_task_DD_L5,2021.2.3,MacIntel,58.82352941,,,,,,,,,,,1.98,1,,,,,,,,,,,,,,,,,,,,,,,,0.018888889,-0.397777778,0,0,0,,,,,,,WALRUS,C,z,y,./images/WALRUS.png,,,,,,,,z,1,1.98,,,,,,,,0,64,64,107,1
,,,,,,,,,,,,,,,,,198805,18,2022-01-28_20h53.20.524,lexical_decision_task_DD_L5,2021.2.3,MacIntel,58.82352941,,,,,,,,,,,0.794,1,,,,,,,,,,,,,,,,,,,,,,,,0.018888889,-0.397777778,0,0,0,,,,,,,DANCER,HB,m,y,./images/DANCERHB.png,,,,,,,,m,1,0.794,,,,,,,,0,65,65,21,1
,,,,,,,,,,,,,,,,,198805,18,2022-01-28_20h53.20.524,lexical_decision_task_DD_L5,2021.2.3,MacIntel,58.82352941,,,,,,,,,,,1.232,0,,,,,,,,,,,,,,,,,,,,,,,,0.018888889,-0.397777778,0,0,0,,,,,,,LADDER,C,z,y,./images/LADDER.png,,,,,,,,m,0,1.232,,,,,,,,0,66,66,122,1
,,,,,,,,,,,,,,,,,198805,18,2022-01-28_20h53.20.524,lexical_decision_task_DD_L5,2021.2.3,MacIntel,58.82352941,,,,,,,,,,,1.457,1,,,,,,,,,,,,,,,,,,,,,,,,0.018888889,-0.397777778,0,0,0,,,,,,,HEATER,C,m,y,./images/HEATER.png,,,,,,,,m,1,1.457,,,,,,,,0,67,67,56,1
,,,,,,,,,,,,,,,,,198805,18,2022-01-28_20h53.20.524,lexical_decision_task_DD_L5,2021.2.3,MacIntel,58.82352941,,,,,,,,,,,1.697,1,,,,,,,,,,,,,,,,,,,,,,,,0.018888889,-0.397777778,0,0,0,,,,,,,STATUE,HB,m,y,./images/STATUEHB.png,,,,,,,,m,1,1.697,,,,,,,,0,68,68,66,1
,,,,,,,,,,,,,,,,,198805,18,2022-01-28_20h53.20.524,lexical_decision_task_DD_L5,2021.2.3,MacIntel,58.82352941,,,,,,,,,,,2.464,0,,,,,,,,,,,,,,,,,,,,,,,,0.018888889,-0.397777778,0,0,0,,,,,,,PEARL,LB,z,y,./images/PEARLLB.png,,,,,,,,m,0,2.464,,,,,,,,0,69,69,130,1
,,,,,,,,,,,,,,,,,198805,18,2022-01-28_20h53.20.524,lexical_decision_task_DD_L5,2021.2.3,MacIntel,58.82352941,,,,,,,,,,,0.667,1,,,,,,,,,,,,,,,,,,,,,,,,0.018888889,-0.397777778,0,0,0,,,,,,,CLOUD,C,m,y,./images/CLOUD.png,,,,,,,,m,1,0.667,,,,,,,,0,70,70,26,1
,,,,,,,,,,,,,,,,,198805,18,2022-01-28_20h53.20.524,lexical_decision_task_DD_L5,2021.2.3,MacIntel,58.82352941,,,,,,,,,,,4.363,1,,,,,,,,,,,,,,,,,,,,,,,,0.018888889,-0.397777778,0,0,0,,,,,,,TOMATO,HB,z,y,./images/TOMATOHB.png,,,,,,,,z,1,4.363,,,,,,,,0,71,71,84,1
,,,,,,,,,,,,,,,,,198805,18,2022-01-28_20h53.20.524,lexical_decision_task_DD_L5,2021.2.3,MacIntel,58.82352941,,,,,,,,,,,1.087,1,,,,,,,,,,,,,,,,,,,,,,,,0.018888889,-0.397777778,0,0,0,,,,,,,CRATER,HB,m,y,./images/CRATERHB.png,,,,,,,,m,1,1.087,,,,,,,,0,72,72,3,1
,,,,,,,,,,,,,,,,,198805,18,2022-01-28_20h53.20.524,lexical_decision_task_DD_L5,2021.2.3,MacIntel,58.82352941,,,,,,,,,,,1.027,1,,,,,,,,,,,,,,,,,,,,,,,,0.018888889,-0.397777778,0,0,0,,,,,,,FLASK,HB,m,y,./images/FLASKHB.png,,,,,,,,m,1,1.027,,,,,,,,0,73,73,72,1
,,,,,,,,,,,,,,,,,198805,18,2022-01-28_20h53.20.524,lexical_decision_task_DD_L5,2021.2.3,MacIntel,58.82352941,,,,,,,,,,,2.285,1,,,,,,,,,,,,,,,,,,,,,,,,0.018888889,-0.397777778,0,0,0,,,,,,,BRUSH,C,m,y,./images/BRUSH.png,,,,,,,,m,1,2.285,,,,,,,,0,74,74,59,1
,,,,,,,,,,,,,,,,,198805,18,2022-01-28_20h53.20.524,lexical_decision_task_DD_L5,2021.2.3,MacIntel,58.82352941,,,,,,,,,,,3.402,0,,,,,,,,,,,,,,,,,,,,,,,,0.018888889,-0.397777778,0,0,0,,,,,,,FERRY,HB,m,y,./images/FERRYHB.png,,,,,,,,z,0,3.402,,,,,,,,0,75,75,57,1
,,,,,,,,,,,,,,,,,198805,18,2022-01-28_20h53.20.524,lexical_decision_task_DD_L5,2021.2.3,MacIntel,58.82352941,,,,,,,,,,,1.896,0,,,,,,,,,,,,,,,,,,,,,,,,0.018888889,-0.397777778,0,0,0,,,,,,,DRUMS,LB,z,y,./images/DRUMSLB.png,,,,,,,,m,0,1.896,,,,,,,,0,76,76,133,1
,,,,,,,,,,,,,,,,,198805,18,2022-01-28_20h53.20.524,lexical_decision_task_DD_L5,2021.2.3,MacIntel,58.82352941,,,,,,,,,,,2.595,1,,,,,,,,,,,,,,,,,,,,,,,,0.018888889,-0.397777778,0,0,0,,,,,,,CRUMB,C,z,y,./images/CRUMB.png,,,,,,,,z,1,2.595,,,,,,,,0,77,77,113,1
,,,,,,,,,,,,,,,,,198805,18,2022-01-28_20h53.20.524,lexical_decision_task_DD_L5,2021.2.3,MacIntel,58.82352941,,,,,,,,,,,1.115,1,,,,,,,,,,,,,,,,,,,,,,,,0.018888889,-0.397777778,0,0,0,,,,,,,BANNER,LB,z,y,./images/BANNERLB.png,,,,,,,,z,1,1.115,,,,,,,,0,78,78,136,1
,,,,,,,,,,,,,,,,,198805,18,2022-01-28_20h53.20.524,lexical_decision_task_DD_L5,2021.2.3,MacIntel,58.82352941,,,,,,,,,,,2.517,0,,,,,,,,,,,,,,,,,,,,,,,,0.018888889,-0.397777778,0,0,0,,,,,,,POODLE,HB,z,y,./images/POODLEHB.png,,,,,,,,m,0,2.517,,,,,,,,0,79,79,165,1
,,,,,,,,,,,,,,,,,198805,18,2022-01-28_20h53.20.524,lexical_decision_task_DD_L5,2021.2.3,MacIntel,58.82352941,,,,,,,,,,,0.88,1,,,,,,,,,,,,,,,,,,,,,,,,0.018888889,-0.397777778,0,0,0,,,,,,,RHINO,HB,z,y,./images/RHINOHB.png,,,,,,,,z,1,0.88,,,,,,,,0,80,80,93,1
,,,,,,,,,,,,,,,,,198805,18,2022-01-28_20h53.20.524,lexical_decision_task_DD_L5,2021.2.3,MacIntel,58.82352941,,,,,,,,,,,1.362,1,,,,,,,,,,,,,,,,,,,,,,,,0.018888889,-0.397777778,0,0,0,,,,,,,NOOSE,HB,z,y,./images/NOOSEHB.png,,,,,,,,z,1,1.362,,,,,,,,0,81,81,156,1
,,,,,,,,,,,,,,,,,198805,18,2022-01-28_20h53.20.524,lexical_decision_task_DD_L5,2021.2.3,MacIntel,58.82352941,,,,,,,,,,,1.178,1,,,,,,,,,,,,,,,,,,,,,,,,0.018888889,-0.397777778,0,0,0,,,,,,,SKIING,C,z,y,./images/SKIING.png,,,,,,,,z,1,1.178,,,,,,,,0,82,82,101,1
,,,,,,,,,,,,,,,,,198805,18,2022-01-28_20h53.20.524,lexical_decision_task_DD_L5,2021.2.3,MacIntel,58.82352941,,,,,,,,,,,1.412,0,,,,,,,,,,,,,,,,,,,,,,,,0.018888889,-0.397777778,0,0,0,space,,,,,,SAUCE,HB,m,y,./images/SAUCEHB.png,1.146,,,,,,,z,0,1.412,,,,,,,,0,83,83,51,1
,,,,,,,,,,,,,,,,,198805,18,2022-01-28_20h53.20.524,lexical_decision_task_DD_L5,2021.2.3,MacIntel,58.82352941,,,,,,,,,,,1.198,1,,,,,,,,,,,,,,,,,,,,,,,,0.018888889,-0.397777778,0,0,0,,,,,,,SAUNA,HB,m,y,./images/SAUNAHB.png,,,,,,,,m,1,1.198,,,,,,,,0,84,84,33,1
,,,,,,,,,,,,,,,,,198805,18,2022-01-28_20h53.20.524,lexical_decision_task_DD_L5,2021.2.3,MacIntel,58.82352941,,,,,,,,,,,1.645,1,,,,,,,,,,,,,,,,,,,,,,,,0.018888889,-0.397777778,0,0,0,,,,,,,MOSQUE,LB,z,y,./images/MOSQUELB.png,,,,,,,,z,1,1.645,,,,,,,,0,85,85,127,1
,,,,,,,,,,,,,,,,,198805,18,2022-01-28_20h53.20.524,lexical_decision_task_DD_L5,2021.2.3,MacIntel,58.82352941,,,,,,,,,,,1.632,1,,,,,,,,,,,,,,,,,,,,,,,,0.018888889,-0.397777778,0,0,0,,,,,,,BABOON,LB,z,y,./images/BABOONLB.png,,,,,,,,z,1,1.632,,,,,,,,0,86,86,142,1
,,,,,,,,,,,,,,,,,198805,18,2022-01-28_20h53.20.524,lexical_decision_task_DD_L5,2021.2.3,MacIntel,58.82352941,,,,,,,,,,,3.045,0,,,,,,,,,,,,,,,,,,,,,,,,0.018888889,-0.397777778,0,0,0,,,,,,,QUILL,LB,z,y,./images/QUILLLB.png,,,,,,,,m,0,3.045,,,,,,,,0,87,87,115,1
,,,,,,,,,,,,,,,,,198805,18,2022-01-28_20h53.20.524,lexical_decision_task_DD_L5,2021.2.3,MacIntel,58.82352941,,,,,,,,,,,1.112,0,,,,,,,,,,,,,,,,,,,,,,,,0.018888889,-0.397777778,0,0,0,,,,,,,MIRROR,HB,z,y,./images/MIRRORHB.png,,,,,,,,m,0,1.112,,,,,,,,0,88,88,147,1
,,,,,,,,,,,,,,,,,198805,18,2022-01-28_20h53.20.524,lexical_decision_task_DD_L5,2021.2.3,MacIntel,58.82352941,,,,,,,,,,,0.781,1,,,,,,,,,,,,,,,,,,,,,,,,0.018888889,-0.397777778,0,0,0,,,,,,,BISHOP,LB,m,y,./images/BISHOPLB.png,,,,,,,,m,1,0.781,,,,,,,,0,89,89,49,1
,,,,,,,,,,,,,,,,,198805,18,2022-01-28_20h53.20.524,lexical_decision_task_DD_L5,2021.2.3,MacIntel,58.82352941,,,,,,,,,,,1.129,1,,,,,,,,,,,,,,,,,,,,,,,,0.018888889,-0.397777778,0,0,0,,,,,,,BARREL,C,z,y,./images/BARREL.png,,,,,,,,z,1,1.129,,,,,,,,0,90,90,116,1
,,,,,,,,,,,,,,,,,198805,18,2022-01-28_20h53.20.524,lexical_decision_task_DD_L5,2021.2.3,MacIntel,58.82352941,,,,,,,,,,,0.679,1,,,,,,,,,,,,,,,,,,,,,,,,0.018888889,-0.397777778,0,0,0,,,,,,,CLOTH,C,m,y,./images/CLOTH.png,,,,,,,,m,1,0.679,,,,,,,,0,91,91,23,1
,,,,,,,,,,,,,,,,,198805,18,2022-01-28_20h53.20.524,lexical_decision_task_DD_L5,2021.2.3,MacIntel,58.82352941,,,,,,,,,,,0.829,1,,,,,,,,,,,,,,,,,,,,,,,,0.018888889,-0.397777778,0,0,0,,,,,,,WALNUT,HB,m,y,./images/WALNUTHB.png,,,,,,,,m,1,0.829,,,,,,,,0,92,92,0,1
,,,,,,,,,,,,,,,,,198805,18,2022-01-28_20h53.20.524,lexical_decision_task_DD_L5,2021.2.3,MacIntel,58.82352941,,,,,,,,,,,0.996,1,,,,,,,,,,,,,,,,,,,,,,,,0.018888889,-0.397777778,0,0,0,,,,,,,MUSCLE,LB,z,y,./images/MUSCLELB.png,,,,,,,,z,1,0.996,,,,,,,,0,93,93,88,1
,,,,,,,,,,,,,,,,,198805,18,2022-01-28_20h53.20.524,lexical_decision_task_DD_L5,2021.2.3,MacIntel,58.82352941,,,,,,,,,,,0.8,1,,,,,,,,,,,,,,,,,,,,,,,,0.018888889,-0.397777778,0,0,0,,,,,,,POSTER,C,m,y,./images/POSTER.png,,,,,,,,m,1,0.8,,,,,,,,0,94,94,53,1
,,,,,,,,,,,,,,,,,198805,18,2022-01-28_20h53.20.524,lexical_decision_task_DD_L5,2021.2.3,MacIntel,58.82352941,,,,,,,,,,,1.629,1,,,,,,,,,,,,,,,,,,,,,,,,0.018888889,-0.397777778,0,0,0,,,,,,,POKER,LB,m,y,./images/POKERLB.png,,,,,,,,m,1,1.629,,,,,,,,0,95,95,67,1
,,,,,,,,,,,,,,,,,198805,18,2022-01-28_20h53.20.524,lexical_decision_task_DD_L5,2021.2.3,MacIntel,58.82352941,,,,,,,,,,,2.163,1,,,,,,,,,,,,,,,,,,,,,,,,0.018888889,-0.397777778,0,0,0,,,,,,,JUMPER,C,m,y,./images/JUMPER.png,,,,,,,,m,1,2.163,,,,,,,,0,96,96,74,1
,,,,,,,,,,,,,,,,,198805,18,2022-01-28_20h53.20.524,lexical_decision_task_DD_L5,2021.2.3,MacIntel,58.82352941,,,,,,,,,,,0.678,1,,,,,,,,,,,,,,,,,,,,,,,,0.018888889,-0.397777778,0,0,0,,,,,,,CANDY,HB,m,y,./images/CANDYHB.png,,,,,,,,m,1,0.678,,,,,,,,0,97,97,39,1
,,,,,,,,,,,,,,,,,198805,18,2022-01-28_20h53.20.524,lexical_decision_task_DD_L5,2021.2.3,MacIntel,58.82352941,,,,,,,,,,,0.728,1,,,,,,,,,,,,,,,,,,,,,,,,0.018888889,-0.397777778,0,0,0,,,,,,,CLOWN,LB,m,y,./images/CLOWNLB.png,,,,,,,,m,1,0.728,,,,,,,,0,98,98,22,1
,,,,,,,,,,,,,,,,,198805,18,2022-01-28_20h53.20.524,lexical_decision_task_DD_L5,2021.2.3,MacIntel,58.82352941,,,,,,,,,,,0.64,1,,,,,,,,,,,,,,,,,,,,,,,,0.018888889,-0.397777778,0,0,0,,,,,,,MUMMY,LB,m,y,./images/MUMMYLB.png,,,,,,,,m,1,0.64,,,,,,,,0,99,99,46,1
,,,,,,,,,,,,,,,,,198805,18,2022-01-28_20h53.20.524,lexical_decision_task_DD_L5,2021.2.3,MacIntel,58.82352941,,,,,,,,,,,1.245,1,,,,,,,,,,,,,,,,,,,,,,,,0.018888889,-0.397777778,0,0,0,,,,,,,PLANK,LB,z,y,./images/PLANKLB.png,,,,,,,,z,1,1.245,,,,,,,,0,100,100,85,1
,,,,,,,,,,,,,,,,,198805,18,2022-01-28_20h53.20.524,lexical_decision_task_DD_L5,2021.2.3,MacIntel,58.82352941,,,,,,,,,,,0.896,1,,,,,,,,,,,,,,,,,,,,,,,,0.018888889,-0.397777778,0,0,0,,,,,,,CANYON,LB,z,y,./images/CANYONLB.png,,,,,,,,z,1,0.896,,,,,,,,0,101,101,118,1
,,,,,,,,,,,,,,,,,198805,18,2022-01-28_20h53.20.524,lexical_decision_task_DD_L5,2021.2.3,MacIntel,58.82352941,,,,,,,,,,,0.782,1,,,,,,,,,,,,,,,,,,,,,,,,0.018888889,-0.397777778,0,0,0,,,,,,,WHEEL,C,m,y,./images/WHEEL.png,,,,,,,,m,1,0.782,,,,,,,,0,102,102,77,1
,,,,,,,,,,,,,,,,,198805,18,2022-01-28_20h53.20.524,lexical_decision_task_DD_L5,2021.2.3,MacIntel,58.82352941,,,,,,,,,,,0.811,1,,,,,,,,,,,,,,,,,,,,,,,,0.018888889,-0.397777778,0,0,0,,,,,,,BUNNY,LB,m,y,./images/BUNNYLB.png,,,,,,,,m,1,0.811,,,,,,,,0,103,103,13,1
,,,,,,,,,,,,,,,,,198805,18,2022-01-28_20h53.20.524,lexical_decision_task_DD_L5,2021.2.3,MacIntel,58.82352941,,,,,,,,,,,4.761,0,,,,,,,,,,,,,,,,,,,,,,,,0.018888889,-0.397777778,0,0,0,,,,,,,STRING,C,z,y,./images/STRING.png,,,,,,,,m,0,4.761,,,,,,,,0,104,104,125,1
,,,,,,,,,,,,,,,,,198805,18,2022-01-28_20h53.20.524,lexical_decision_task_DD_L5,2021.2.3,MacIntel,58.82352941,,,,,,,,,,,0.88,1,,,,,,,,,,,,,,,,,,,,,,,,0.018888889,-0.397777778,0,0,0,,,,,,,MELON,LB,z,y,./images/MELONLB.png,,,,,,,,z,1,0.88,,,,,,,,0,105,105,106,1
,,,,,,,,,,,,,,,,,198805,18,2022-01-28_20h53.20.524,lexical_decision_task_DD_L5,2021.2.3,MacIntel,58.82352941,,,,,,,,,,,0.943,1,,,,,,,,,,,,,,,,,,,,,,,,0.018888889,-0.397777778,0,0,0,,,,,,,DOUGH,LB,z,y,./images/DOUGHLB.png,,,,,,,,z,1,0.943,,,,,,,,0,106,106,103,1
,,,,,,,,,,,,,,,,,198805,18,2022-01-28_20h53.20.524,lexical_decision_task_DD_L5,2021.2.3,MacIntel,58.82352941,,,,,,,,,,,1.17,1,,,,,,,,,,,,,,,,,,,,,,,,0.018888889,-0.397777778,0,0,0,,,,,,,WEASEL,C,z,y,./images/WEASEL.png,,,,,,,,z,1,1.17,,,,,,,,0,107,107,164,1
,,,,,,,,,,,,,,,,,198805,18,2022-01-28_20h53.20.524,lexical_decision_task_DD_L5,2021.2.3,MacIntel,58.82352941,,,,,,,,,,,0.783,1,,,,,,,,,,,,,,,,,,,,,,,,0.018888889,-0.397777778,0,0,0,,,,,,,HAMMER,HB,m,y,./images/HAMMERHB.png,,,,,,,,m,1,0.783,,,,,,,,0,108,108,75,1
,,,,,,,,,,,,,,,,,198805,18,2022-01-28_20h53.20.524,lexical_decision_task_DD_L5,2021.2.3,MacIntel,58.82352941,,,,,,,,,,,0.826,1,,,,,,,,,,,,,,,,,,,,,,,,0.018888889,-0.397777778,0,0,0,,,,,,,SHIELD,HB,m,y,./images/SHIELDHB.png,,,,,,,,m,1,0.826,,,,,,,,0,109,109,48,1
,,,,,,,,,,,,,,,,,198805,18,2022-01-28_20h53.20.524,lexical_decision_task_DD_L5,2021.2.3,MacIntel,58.82352941,,,,,,,,,,,1.189,1,,,,,,,,,,,,,,,,,,,,,,,,0.018888889,-0.397777778,0,0,0,,,,,,,BOXER,LB,m,y,./images/BOXERLB.png,,,,,,,,m,1,1.189,,,,,,,,0,110,110,4,1
,,,,,,,,,,,,,,,,,198805,18,2022-01-28_20h53.20.524,lexical_decision_task_DD_L5,2021.2.3,MacIntel,58.82352941,,,,,,,,,,,2.168,0,,,,,,,,,,,,,,,,,,,,,,,,0.018888889,-0.397777778,0,0,0,,,,,,,PEBBLE,LB,m,y,./images/PEBBLELB.png,,,,,,,,z,0,2.168,,,,,,,,0,111,111,82,1
,,,,,,,,,,,,,,,,,198805,18,2022-01-28_20h53.20.524,lexical_decision_task_DD_L5,2021.2.3,MacIntel,58.82352941,,,,,,,,,,,1.085,1,,,,,,,,,,,,,,,,,,,,,,,,0.018888889,-0.397777778,0,0,0,,,,,,,PURSE,C,z,y,./images/PURSE.png,,,,,,,,z,1,1.085,,,,,,,,0,112,112,146,1
,,,,,,,,,,,,,,,,,198805,18,2022-01-28_20h53.20.524,lexical_decision_task_DD_L5,2021.2.3,MacIntel,58.82352941,,,,,,,,,,,2.878,1,,,,,,,,,,,,,,,,,,,,,,,,0.018888889,-0.397777778,0,0,0,,,,,,,SPORT,HB,z,y,./images/SPORTHB.png,,,,,,,,z,1,2.878,,,,,,,,0,113,113,132,1
,,,,,,,,,,,,,,,,,198805,18,2022-01-28_20h53.20.524,lexical_decision_task_DD_L5,2021.2.3,MacIntel,58.82352941,,,,,,,,,,,1.02,1,,,,,,,,,,,,,,,,,,,,,,,,0.018888889,-0.397777778,0,0,0,,,,,,,STOOL,LB,m,y,./images/STOOLLB.png,,,,,,,,m,1,1.02,,,,,,,,0,114,114,43,1
,,,,,,,,,,,,,,,,,198805,18,2022-01-28_20h53.20.524,lexical_decision_task_DD_L5,2021.2.3,MacIntel,58.82352941,,,,,,,,,,,0.85,1,,,,,,,,,,,,,,,,,,,,,,,,0.018888889,-0.397777778,0,0,0,,,,,,,TRIPOD,HB,z,y,./images/TRIPODHB.png,,,,,,,,z,1,0.85,,,,,,,,0,115,115,138,1
,,,,,,,,,,,,,,,,,198805,18,2022-01-28_20h53.20.524,lexical_decision_task_DD_L5,2021.2.3,MacIntel,58.82352941,,,,,,,,,,,0.779,1,,,,,,,,,,,,,,,,,,,,,,,,0.018888889,-0.397777778,0,0,0,,,,,,,BAMBOO,C,m,y,./images/BAMBOO.png,,,,,,,,m,1,0.779,,,,,,,,0,116,116,5,1
,,,,,,,,,,,,,,,,,198805,18,2022-01-28_20h53.20.524,lexical_decision_task_DD_L5,2021.2.3,MacIntel,58.82352941,,,,,,,,,,,0.828,1,,,,,,,,,,,,,,,,,,,,,,,,0.018888889,-0.397777778,0,0,0,,,,,,,TULIP,C,z,y,./images/TULIP.png,,,,,,,,z,1,0.828,,,,,,,,0,117,117,92,1
,,,,,,,,,,,,,,,,,198805,18,2022-01-28_20h53.20.524,lexical_decision_task_DD_L5,2021.2.3,MacIntel,58.82352941,,,,,,,,,,,1.554,1,,,,,,,,,,,,,,,,,,,,,,,,0.018888889,-0.397777778,0,0,0,,,,,,,CARPET,C,z,y,./images/CARPET.png,,,,,,,,z,1,1.554,,,,,,,,0,118,118,137,1
,,,,,,,,,,,,,,,,,198805,18,2022-01-28_20h53.20.524,lexical_decision_task_DD_L5,2021.2.3,MacIntel,58.82352941,,,,,,,,,,,4.465,1,,,,,,,,,,,,,,,,,,,,,,,,0.018888889,-0.397777778,0,0,0,,,,,,,SUNSET,LB,z,y,./images/SUNSETLB.png,,,,,,,,z,1,4.465,,,,,,,,0,119,119,166,1
,,,,,,,,,,,,,,,,,198805,18,2022-01-28_20h53.20.524,lexical_decision_task_DD_L5,2021.2.3,MacIntel,58.82352941,,,,,,,,,,,1.437,1,,,,,,,,,,,,,,,,,,,,,,,,0.018888889,-0.397777778,0,0,0,,,,,,,RAZOR,LB,m,y,./images/RAZORLB.png,,,,,,,,m,1,1.437,,,,,,,,0,120,120,34,1
,,,,,,,,,,,,,,,,,198805,18,2022-01-28_20h53.20.524,lexical_decision_task_DD_L5,2021.2.3,MacIntel,58.82352941,,,,,,,,,,,1.187,1,,,,,,,,,,,,,,,,,,,,,,,,0.018888889,-0.397777778,0,0,0,,,,,,,PICKLE,C,z,y,./images/PICKLE.png,,,,,,,,z,1,1.187,,,,,,,,0,121,121,98,1
,,,,,,,,,,,,,,,,,198805,18,2022-01-28_20h53.20.524,lexical_decision_task_DD_L5,2021.2.3,MacIntel,58.82352941,,,,,,,,,,,0.866,1,,,,,,,,,,,,,,,,,,,,,,,,0.018888889,-0.397777778,0,0,0,,,,,,,ATTIC,HB,z,y,./images/ATTICHB.png,,,,,,,,z,1,0.866,,,,,,,,0,122,122,111,1
,,,,,,,,,,,,,,,,,198805,18,2022-01-28_20h53.20.524,lexical_decision_task_DD_L5,2021.2.3,MacIntel,58.82352941,,,,,,,,,,,1.529,0,,,,,,,,,,,,,,,,,,,,,,,,0.018888889,-0.397777778,0,0,0,,,,,,,SCREW,HB,z,y,./images/SCREWHB.png,,,,,,,,m,0,1.529,,,,,,,,0,123,123,108,1
,,,,,,,,,,,,,,,,,198805,18,2022-01-28_20h53.20.524,lexical_decision_task_DD_L5,2021.2.3,MacIntel,58.82352941,,,,,,,,,,,0.687,1,,,,,,,,,,,,,,,,,,,,,,,,0.018888889,-0.397777778,0,0,0,,,,,,,SNAKE,LB,m,y,./images/SNAKELB.png,,,,,,,,m,1,0.687,,,,,,,,0,124,124,40,1
,,,,,,,,,,,,,,,,,198805,18,2022-01-28_20h53.20.524,lexical_decision_task_DD_L5,2021.2.3,MacIntel,58.82352941,,,,,,,,,,,1.395,0,,,,,,,,,,,,,,,,,,,,,,,,0.018888889,-0.397777778,0,0,0,space,,,,,,VALLEY,C,m,y,./images/VALLEY.png,1.165,,,,,,,z,0,1.395,,,,,,,,0,125,125,68,1
,,,,,,,,,,,,,,,,,198805,18,2022-01-28_20h53.20.524,lexical_decision_task_DD_L5,2021.2.3,MacIntel,58.82352941,,,,,,,,,,,1.538,0,,,,,,,,,,,,,,,,,,,,,,,,0.018888889,-0.397777778,0,0,0,,,,,,,LIZARD,C,z,y,./images/LIZARD.png,,,,,,,,m,0,1.538,,,,,,,,0,126,126,128,1
,,,,,,,,,,,,,,,,,198805,18,2022-01-28_20h53.20.524,lexical_decision_task_DD_L5,2021.2.3,MacIntel,58.82352941,,,,,,,,,,,0.966,1,,,,,,,,,,,,,,,,,,,,,,,,0.018888889,-0.397777778,0,0,0,,,,,,,BERRY,C,z,y,./images/BERRY.png,,,,,,,,z,1,0.966,,,,,,,,0,127,127,131,1
,,,,,,,,,,,,,,,,,198805,18,2022-01-28_20h53.20.524,lexical_decision_task_DD_L5,2021.2.3,MacIntel,58.82352941,,,,,,,,,,,0.645,1,,,,,,,,,,,,,,,,,,,,,,,,0.018888889,-0.397777778,0,0,0,,,,,,,COLLAR,HB,m,y,./images/COLLARHB.png,,,,,,,,m,1,0.645,,,,,,,,0,128,128,15,1
,,,,,,,,,,,,,,,,,198805,18,2022-01-28_20h53.20.524,lexical_decision_task_DD_L5,2021.2.3,MacIntel,58.82352941,,,,,,,,,,,0.845,0,,,,,,,,,,,,,,,,,,,,,,,,0.018888889,-0.397777778,0,0,0,,,,,,,CRADLE,C,z,y,./images/CRADLE.png,,,,,,,,m,0,0.845,,,,,,,,0,129,129,104,1
,,,,,,,,,,,,,,,,,198805,18,2022-01-28_20h53.20.524,lexical_decision_task_DD_L5,2021.2.3,MacIntel,58.82352941,,,,,,,,,,,0.695,1,,,,,,,,,,,,,,,,,,,,,,,,0.018888889,-0.397777778,0,0,0,,,,,,,BANANA,LB,m,y,./images/BANANALB.png,,,,,,,,m,1,0.695,,,,,,,,0,130,130,70,1
,,,,,,,,,,,,,,,,,198805,18,2022-01-28_20h53.20.524,lexical_decision_task_DD_L5,2021.2.3,MacIntel,58.82352941,,,,,,,,,,,0.962,1,,,,,,,,,,,,,,,,,,,,,,,,0.018888889,-0.397777778,0,0,0,,,,,,,CRUST,LB,z,y,./images/CRUSTLB.png,,,,,,,,z,1,0.962,,,,,,,,0,131,131,163,1
,,,,,,,,,,,,,,,,,198805,18,2022-01-28_20h53.20.524,lexical_decision_task_DD_L5,2021.2.3,MacIntel,58.82352941,,,,,,,,,,,0.697,0,,,,,,,,,,,,,,,,,,,,,,,,0.018888889,-0.397777778,0,0,0,,,,,,,SNACK,LB,z,y,./images/SNACKLB.png,,,,,,,,m,0,0.697,,,,,,,,0,132,132,157,1
,,,,,,,,,,,,,,,,,198805,18,2022-01-28_20h53.20.524,lexical_decision_task_DD_L5,2021.2.3,MacIntel,58.82352941,,,,,,,,,,,0.945,1,,,,,,,,,,,,,,,,,,,,,,,,0.018888889,-0.397777778,0,0,0,,,,,,,CURRY,HB,m,y,./images/CURRYHB.png,,,,,,,,m,1,0.945,,,,,,,,0,133,133,60,1
,,,,,,,,,,,,,,,,,198805,18,2022-01-28_20h53.20.524,lexical_decision_task_DD_L5,2021.2.3,MacIntel,58.82352941,,,,,,,,,,,0.946,1,,,,,,,,,,,,,,,,,,,,,,,,0.018888889,-0.397777778,0,0,0,,,,,,,PASTA,C,z,y,./images/PASTA.png,,,,,,,,z,1,0.946,,,,,,,,0,134,134,89,1
,,,,,,,,,,,,,,,,,198805,18,2022-01-28_20h53.20.524,lexical_decision_task_DD_L5,2021.2.3,MacIntel,58.82352941,,,,,,,,,,,1.028,0,,,,,,,,,,,,,,,,,,,,,,,,0.018888889,-0.397777778,0,0,0,,,,,,,MOOSE,HB,z,y,./images/MOOSEHB.png,,,,,,,,m,0,1.028,,,,,,,,0,135,135,141,1
,,,,,,,,,,,,,,,,,198805,18,2022-01-28_20h53.20.524,lexical_decision_task_DD_L5,2021.2.3,MacIntel,58.82352941,,,,,,,,,,,1.134,1,,,,,,,,,,,,,,,,,,,,,,,,0.018888889,-0.397777778,0,0,0,,,,,,,GLOVE,LB,m,y,./images/GLOVELB.png,,,,,,,,m,1,1.134,,,,,,,,0,136,136,73,1
,,,,,,,,,,,,,,,,,198805,18,2022-01-28_20h53.20.524,lexical_decision_task_DD_L5,2021.2.3,MacIntel,58.82352941,,,,,,,,,,,1.028,1,,,,,,,,,,,,,,,,,,,,,,,,0.018888889,-0.397777778,0,0,0,,,,,,,PIMPLE,C,z,y,./images/PIMPLE.png,,,,,,,,z,1,1.028,,,,,,,,0,137,137,155,1
,,,,,,,,,,,,,,,,,198805,18,2022-01-28_20h53.20.524,lexical_decision_task_DD_L5,2021.2.3,MacIntel,58.82352941,,,,,,,,,,,0.878,1,,,,,,,,,,,,,,,,,,,,,,,,0.018888889,-0.397777778,0,0,0,,,,,,,SQUARE,HB,z,y,./images/SQUAREHB.png,,,,,,,,z,1,0.878,,,,,,,,0,138,138,90,1
,,,,,,,,,,,,,,,,,198805,18,2022-01-28_20h53.20.524,lexical_decision_task_DD_L5,2021.2.3,MacIntel,58.82352941,,,,,,,,,,,1.221,0,,,,,,,,,,,,,,,,,,,,,,,,0.018888889,-0.397777778,0,0,0,,,,,,,STORM,HB,z,y,./images/STORMHB.png,,,,,,,,m,0,1.221,,,,,,,,0,139,139,114,1
,,,,,,,,,,,,,,,,,198805,18,2022-01-28_20h53.20.524,lexical_decision_task_DD_L5,2021.2.3,MacIntel,58.82352941,,,,,,,,,,,2.145,1,,,,,,,,,,,,,,,,,,,,,,,,0.018888889,-0.397777778,0,0,0,,,,,,,SWEAT,HB,z,y,./images/SWEATHB.png,,,,,,,,z,1,2.145,,,,,,,,0,140,140,150,1
,,,,,,,,,,,,,,,,,198805,18,2022-01-28_20h53.20.524,lexical_decision_task_DD_L5,2021.2.3,MacIntel,58.82352941,,,,,,,,,,,0.696,1,,,,,,,,,,,,,,,,,,,,,,,,0.018888889,-0.397777778,0,0,0,,,,,,,CHAIN,HB,m,y,./images/CHAINHB.png,,,,,,,,m,1,0.696,,,,,,,,0,141,141,42,1
,,,,,,,,,,,,,,,,,198805,18,2022-01-28_20h53.20.524,lexical_decision_task_DD_L5,2021.2.3,MacIntel,58.82352941,,,,,,,,,,,0.812,1,,,,,,,,,,,,,,,,,,,,,,,,0.018888889,-0.397777778,0,0,0,,,,,,,CASINO,LB,m,y,./images/CASINOLB.png,,,,,,,,m,1,0.812,,,,,,,,0,142,142,28,1
,,,,,,,,,,,,,,,,,198805,18,2022-01-28_20h53.20.524,lexical_decision_task_DD_L5,2021.2.3,MacIntel,58.82352941,,,,,,,,,,,1.312,1,,,,,,,,,,,,,,,,,,,,,,,,0.018888889,-0.397777778,0,0,0,,,,,,,THROAT,HB,z,y,./images/THROATHB.png,,,,,,,,z,1,1.312,,,,,,,,0,143,143,120,1
,,,,,,,,,,,,,,,,,198805,18,2022-01-28_20h53.20.524,lexical_decision_task_DD_L5,2021.2.3,MacIntel,58.82352941,,,,,,,,,,,0.944,1,,,,,,,,,,,,,,,,,,,,,,,,0.018888889,-0.397777778,0,0,0,,,,,,,TWINS,HB,z,y,./images/TWINSHB.png,,,,,,,,z,1,0.944,,,,,,,,0,144,144,144,1
,,,,,,,,,,,,,,,,,198805,18,2022-01-28_20h53.20.524,lexical_decision_task_DD_L5,2021.2.3,MacIntel,58.82352941,,,,,,,,,,,1.217,1,,,,,,,,,,,,,,,,,,,,,,,,0.018888889,-0.397777778,0,0,0,,,,,,,PLANET,C,m,y,./images/PLANET.png,,,,,,,,m,1,1.217,,,,,,,,0,145,145,80,1
,,,,,,,,,,,,,,,,,198805,18,2022-01-28_20h53.20.524,lexical_decision_task_DD_L5,2021.2.3,MacIntel,58.82352941,,,,,,,,,,,1.13,1,,,,,,,,,,,,,,,,,,,,,,,,0.018888889,-0.397777778,0,0,0,,,,,,,STREAM,C,m,y,./images/STREAM.png,,,,,,,,m,1,1.13,,,,,,,,0,146,146,41,1
,,,,,,,,,,,,,,,,,198805,18,2022-01-28_20h53.20.524,lexical_decision_task_DD_L5,2021.2.3,MacIntel,58.82352941,,,,,,,,,,,1.016,0,,,,,,,,,,,,,,,,,,,,,,,,0.018888889,-0.397777778,0,0,0,,,,,,,STAIN,HB,m,y,./images/STAINHB.png,,,,,,,,z,0,1.016,,,,,,,,0,147,147,6,1
,,,,,,,,,,,,,,,,,198805,18,2022-01-28_20h53.20.524,lexical_decision_task_DD_L5,2021.2.3,MacIntel,58.82352941,,,,,,,,,,,1.462,1,,,,,,,,,,,,,,,,,,,,,,,,0.018888889,-0.397777778,0,0,0,,,,,,,DESERT,LB,m,y,./images/DESERTLB.png,,,,,,,,m,1,1.462,,,,,,,,0,148,148,52,1
,,,,,,,,,,,,,,,,,198805,18,2022-01-28_20h53.20.524,lexical_decision_task_DD_L5,2021.2.3,MacIntel,58.82352941,,,,,,,,,,,0.913,1,,,,,,,,,,,,,,,,,,,,,,,,0.018888889,-0.397777778,0,0,0,,,,,,,PISTOL,C,m,y,./images/PISTOL.png,,,,,,,,m,1,0.913,,,,,,,,0,149,149,29,1
,,,,,,,,,,,,,,,,,198805,18,2022-01-28_20h53.20.524,lexical_decision_task_DD_L5,2021.2.3,MacIntel,58.82352941,,,,,,,,,,,3.863,0,,,,,,,,,,,,,,,,,,,,,,,,0.018888889,-0.397777778,0,0,0,,,,,,,GARDEN,LB,m,y,./images/GARDENLB.png,,,,,,,,z,0,3.863,,,,,,,,0,150,150,10,1
,,,,,,,,,,,,,,,,,198805,18,2022-01-28_20h53.20.524,lexical_decision_task_DD_L5,2021.2.3,MacIntel,58.82352941,,,,,,,,,,,0.777,1,,,,,,,,,,,,,,,,,,,,,,,,0.018888889,-0.397777778,0,0,0,,,,,,,BUTTER,HB,m,y,./images/BUTTERHB.png,,,,,,,,m,1,0.777,,,,,,,,0,151,151,27,1
,,,,,,,,,,,,,,,,,198805,18,2022-01-28_20h53.20.524,lexical_decision_task_DD_L5,2021.2.3,MacIntel,58.82352941,,,,,,,,,,,1.094,1,,,,,,,,,,,,,,,,,,,,,,,,0.018888889,-0.397777778,0,0,0,,,,,,,TORCH,C,z,y,./images/TORCH.png,,,,,,,,z,1,1.094,,,,,,,,0,152,152,152,1
,,,,,,,,,,,,,,,,,198805,18,2022-01-28_20h53.20.524,lexical_decision_task_DD_L5,2021.2.3,MacIntel,58.82352941,,,,,,,,,,,2.312,1,,,,,,,,,,,,,,,,,,,,,,,,0.018888889,-0.397777778,0,0,0,,,,,,,ARROW,HB,m,y,./images/ARROWHB.png,,,,,,,,m,1,2.312,,,,,,,,0,153,153,69,1
,,,,,,,,,,,,,,,,,198805,18,2022-01-28_20h53.20.524,lexical_decision_task_DD_L5,2021.2.3,MacIntel,58.82352941,,,,,,,,,,,0.714,1,,,,,,,,,,,,,,,,,,,,,,,,0.018888889,-0.397777778,0,0,0,,,,,,,MONKEY,HB,m,y,./images/MONKEYHB.png,,,,,,,,m,1,0.714,,,,,,,,0,154,154,45,1
,,,,,,,,,,,,,,,,,198805,18,2022-01-28_20h53.20.524,lexical_decision_task_DD_L5,2021.2.3,MacIntel,58.82352941,,,,,,,,,,,0.929,1,,,,,,,,,,,,,,,,,,,,,,,,0.018888889,-0.397777778,0,0,0,,,,,,,PARADE,C,m,y,./images/PARADE.png,,,,,,,,m,1,0.929,,,,,,,,0,155,155,17,1
,,,,,,,,,,,,,,,,,198805,18,2022-01-28_20h53.20.524,lexical_decision_task_DD_L5,2021.2.3,MacIntel,58.82352941,,,,,,,,,,,0.661,1,,,,,,,,,,,,,,,,,,,,,,,,0.018888889,-0.397777778,0,0,0,,,,,,,BROOM,HB,m,y,./images/BROOMHB.png,,,,,,,,m,1,0.661,,,,,,,,0,156,156,78,1
,,,,,,,,,,,,,,,,,198805,18,2022-01-28_20h53.20.524,lexical_decision_task_DD_L5,2021.2.3,MacIntel,58.82352941,,,,,,,,,,,1.639,1,,,,,,,,,,,,,,,,,,,,,,,,0.018888889,-0.397777778,0,0,0,,,,,,,COOKER,HB,z,y,./images/COOKERHB.png,,,,,,,,z,1,1.639,,,,,,,,0,157,157,153,1
,,,,,,,,,,,,,,,,,198805,18,2022-01-28_20h53.20.524,lexical_decision_task_DD_L5,2021.2.3,MacIntel,58.82352941,,,,,,,,,,,0.963,1,,,,,,,,,,,,,,,,,,,,,,,,0.018888889,-0.397777778,0,0,0,,,,,,,MOTOR,LB,z,y,./images/MOTORLB.png,,,,,,,,z,1,0.963,,,,,,,,0,158,158,97,1
,,,,,,,,,,,,,,,,,198805,18,2022-01-28_20h53.20.524,lexical_decision_task_DD_L5,2021.2.3,MacIntel,58.82352941,,,,,,,,,,,1.071,1,,,,,,,,,,,,,,,,,,,,,,,,0.018888889,-0.397777778,0,0,0,,,,,,,WHISKY,C,m,y,./images/WHISKY.png,,,,,,,,m,1,1.071,,,,,,,,0,159,159,83,1
,,,,,,,,,,,,,,,,,198805,18,2022-01-28_20h53.20.524,lexical_decision_task_DD_L5,2021.2.3,MacIntel,58.82352941,,,,,,,,,,,1.163,0,,,,,,,,,,,,,,,,,,,,,,,,0.018888889,-0.397777778,0,0,0,,,,,,,CEMENT,C,z,y,./images/CEMENT.png,,,,,,,,m,0,1.163,,,,,,,,0,160,160,158,1
,,,,,,,,,,,,,,,,,198805,18,2022-01-28_20h53.20.524,lexical_decision_task_DD_L5,2021.2.3,MacIntel,58.82352941,,,,,,,,,,,0.828,1,,,,,,,,,,,,,,,,,,,,,,,,0.018888889,-0.397777778,0,0,0,,,,,,,URINE,LB,z,y,./images/URINELB.png,,,,,,,,z,1,0.828,,,,,,,,0,161,161,154,1
,,,,,,,,,,,,,,,,,198805,18,2022-01-28_20h53.20.524,lexical_decision_task_DD_L5,2021.2.3,MacIntel,58.82352941,,,,,,,,,,,0.796,1,,,,,,,,,,,,,,,,,,,,,,,,0.018888889,-0.397777778,0,0,0,,,,,,,LAGOON,C,m,y,./images/LAGOON.png,,,,,,,,m,1,0.796,,,,,,,,0,162,162,47,1
,,,,,,,,,,,,,,,,,198805,18,2022-01-28_20h53.20.524,lexical_decision_task_DD_L5,2021.2.3,MacIntel,58.82352941,,,,,,,,,,,1.381,1,,,,,,,,,,,,,,,,,,,,,,,,0.018888889,-0.397777778,0,0,0,,,,,,,FLESH,HB,m,y,./images/FLESHHB.png,,,,,,,,m,1,1.381,,,,,,,,0,163,163,24,1
,,,,,,,,,,,,,,,,,198805,18,2022-01-28_20h53.20.524,lexical_decision_task_DD_L5,2021.2.3,MacIntel,58.82352941,,,,,,,,,,,1.061,1,,,,,,,,,,,,,,,,,,,,,,,,0.018888889,-0.397777778,0,0,0,,,,,,,BONNET,C,z,y,./images/BONNET.png,,,,,,,,z,1,1.061,,,,,,,,0,164,164,95,1
,,,,,,,,,,,,,,,,,198805,18,2022-01-28_20h53.20.524,lexical_decision_task_DD_L5,2021.2.3,MacIntel,58.82352941,,,,,,,,,,,2.064,1,,,,,,,,,,,,,,,,,,,,,,,,0.018888889,-0.397777778,0,0,0,,,,,,,ENGINE,C,m,y,./images/ENGINE.png,,,,,,,,m,1,2.064,,,,,,,,0,165,165,38,1
,,,,,,,,,,,,,,,,,198805,18,2022-01-28_20h53.20.524,lexical_decision_task_DD_L5,2021.2.3,MacIntel,58.82352941,,,,,,,,,,,0.901,1,,,,,,,,,,,,,,,,,,,,,,,,0.018888889,-0.397777778,0,0,0,,,,,,,SPINE,C,m,y,./images/SPINE.png,,,,,,,,m,1,0.901,,,,,,,,0,166,166,65,1
,,,,,,,,,,,,,,,,,198805,18,2022-01-28_20h53.20.524,lexical_decision_task_DD_L5,2021.2.3,MacIntel,58.82352941,,,,,,,,,,,1.862,1,,,,,,,,,,,,,,,,,,,,,,,,0.018888889,-0.397777778,0,0,0,,,,,,,JELLY,LB,z,y,./images/JELLYLB.png,,,,,,,,z,1,1.862,,,,,,,,0,167,167,148,1
