key_resp.keys,key_resp.rt,instr_done_touch.x,instr_done_touch.y,instr_done_touch.leftButton,instr_done_touch.midButton,instr_done_touch.rightButton,instruction_pages.thisRepN,instruction_pages.thisTrialN,instruction_pages.thisN,instruction_pages.thisIndex,instruction_pages.ran,pageN,phase,instruct_text,has_image,instruct_image,participant,age,date,expName,psychopyVersion,OS,frameRate,response.keys,response.corr,response.rt,touch_resp.x,touch_resp.y,touch_resp.leftButton,touch_resp.midButton,touch_resp.rightButton,touch_resp.time,touch_resp.clicked_name,rt,corr,practrials.thisRepN,practrials.thisTrialN,practrials.thisN,practrials.thisIndex,practrials.ran,TrialID,Target,corrAns,end_of_practice_trials_pages.thisRepN,end_of_practice_trials_pages.thisTrialN,end_of_practice_trials_pages.thisN,end_of_practice_trials_pages.thisIndex,end_of_practice_trials_pages.ran,key_resp_2.keys,key_resp_2.corr,key_resp_2.rt,targ_click.x,targ_click.y,targ_click.leftButton,targ_click.midButton,targ_click.rightButton,targ_click.time,targ_click.clicked_name,break_done_touch.x,break_done_touch.y,break_done_touch.leftButton,break_done_touch.midButton,break_done_touch.rightButton,break_done_keyboard.keys,maintrials.thisRepN,maintrials.thisTrialN,maintrials.thisN,maintrials.thisIndex,maintrials.ran,string,blur,study,lex,stim_path,break_done_keyboard.rt,test_instructions.thisRepN,test_instructions.thisTrialN,test_instructions.thisN,test_instructions.thisIndex,test_instructions.ran,instr_done_touch.clicked_name,key_resp_3.keys,key_resp_3.corr,key_resp_3.rt,test_click.x,test_click.y,test_click.leftButton,test_click.midButton,test_click.rightButton,test_click.time,test_click.clicked_name,test_phase.thisRepN,test_phase.thisTrialN,test_phase.thisN,test_phase.thisIndex,test_phase.ran
space,27.0373,0.014814842,-0.257407486,0,0,0,0,0,0,0,1,1,instructions,"INSTRUCTIONS
At the start of each trial, look at the plus sign  (+) in the center of the screen.  This tells you that a trial is about to begin and where to look. Second, the plus sign will disappear and a string of letters will appear. Your task is to determine if the string of letters is a word or not. If the item is a word press the M key (on keyboard)  or touch the word button (phone/tablet).  If the item is not a word,  press the  Z key (on keyboard)  or touch the nonword button (on phone/tablet). 
Press the space bar or touch  continue.",0,,198844,19,2022-01-28_23h05.41.196,lexical_decision_task_DD_L5,2021.2.3,Win32,59.98440405,,,,,,,,,,,,,,,,,,,,,,,,,,,,,,,,,,,,,,,,,,,,,,,,,,,,,,,,,,,,,,,,,,,,,,,,,
space,4.9818,0.014814842,-0.257407486,0,0,0,0,1,1,1,1,2,instructions,"If your device has a keyboard, press the 'Z' key for nonwords and the 'M' key for words.





Press the space bar or touch the button below to continue.",0,keyboard-example.gif,198844,19,2022-01-28_23h05.41.196,lexical_decision_task_DD_L5,2021.2.3,Win32,59.98440405,,,,,,,,,,,,,,,,,,,,,,,,,,,,,,,,,,,,,,,,,,,,,,,,,,,,,,,,,,,,,,,,,,,,,,,,,
space,7.503,0.002777804,-0.283333357,0,0,0,0,2,2,2,1,3,instructions,"If you are using a touchscreen only device, use the buttons on the screen. Do not use the mouse.





Press the space bar or touch the button below to continue.",0,touchscreen-example.gif,198844,19,2022-01-28_23h05.41.196,lexical_decision_task_DD_L5,2021.2.3,Win32,59.98440405,,,,,,,,,,,,,,,,,,,,,,,,,,,,,,,,,,,,,,,,,,,,,,,,,,,,,,,,,,,,,,,,,,,,,,,,,
space,8.0668,0.002777804,-0.283333357,0,0,0,0,3,3,3,1,4,instructions,"It is very important that you respond as quickly and accurately as possible, as each letter string will only be on the screen for two seconds. If you do not respond within this time, the message 'Too slow!' will be displayed and the experiment will progress to the next letter string. The first 20 trials will be practice trials and you will receive feedback on your answers. 

Press the space bar or touch the button below to start the practice trials.",0,,198844,19,2022-01-28_23h05.41.196,lexical_decision_task_DD_L5,2021.2.3,Win32,59.98440405,,,,,,,,,,,,,,,,,,,,,,,,,,,,,,,,,,,,,,,,,,,,,,,,,,,,,,,,,,,,,,,,,,,,,,,,,
,,,,,,,,,,,,,,,,,198844,19,2022-01-28_23h05.41.196,lexical_decision_task_DD_L5,2021.2.3,Win32,59.98440405,m,1,0.9498,,,,,,,,0.9498,1,0,0,0,4,1,1001,SQUEAK,m,,,,,,,,,,,,,,,,,,,,,,,,,,,,,,,,,,,,,,,,,,,,,,,,,,,,,
,,,,,,,,,,,,,,,,,198844,19,2022-01-28_23h05.41.196,lexical_decision_task_DD_L5,2021.2.3,Win32,59.98440405,z,1,1.0186,,,,,,,,1.0186,1,0,1,1,15,1,1001,WHAISE,z,,,,,,,,,,,,,,,,,,,,,,,,,,,,,,,,,,,,,,,,,,,,,,,,,,,,,
,,,,,,,,,,,,,,,,,198844,19,2022-01-28_23h05.41.196,lexical_decision_task_DD_L5,2021.2.3,Win32,59.98440405,m,1,0.7806,,,,,,,,0.7806,1,0,2,2,5,1,1001,OBTAIN,m,,,,,,,,,,,,,,,,,,,,,,,,,,,,,,,,,,,,,,,,,,,,,,,,,,,,,
,,,,,,,,,,,,,,,,,198844,19,2022-01-28_23h05.41.196,lexical_decision_task_DD_L5,2021.2.3,Win32,59.98440405,m,1,0.6367,,,,,,,,0.6367,1,0,3,3,2,1,1001,ALMOND,m,,,,,,,,,,,,,,,,,,,,,,,,,,,,,,,,,,,,,,,,,,,,,,,,,,,,,
,,,,,,,,,,,,,,,,,198844,19,2022-01-28_23h05.41.196,lexical_decision_task_DD_L5,2021.2.3,Win32,59.98440405,m,1,0.5837,,,,,,,,0.5837,1,0,4,4,1,1,1001,ADJUST,m,,,,,,,,,,,,,,,,,,,,,,,,,,,,,,,,,,,,,,,,,,,,,,,,,,,,,
,,,,,,,,,,,,,,,,,198844,19,2022-01-28_23h05.41.196,lexical_decision_task_DD_L5,2021.2.3,Win32,59.98440405,m,1,0.6501,,,,,,,,0.6501,1,0,5,5,0,1,1001,UTOPIA,m,,,,,,,,,,,,,,,,,,,,,,,,,,,,,,,,,,,,,,,,,,,,,,,,,,,,,
,,,,,,,,,,,,,,,,,198844,19,2022-01-28_23h05.41.196,lexical_decision_task_DD_L5,2021.2.3,Win32,59.98440405,m,1,0.5682,,,,,,,,0.5682,1,0,6,6,6,1,1001,ZOMBIE,m,,,,,,,,,,,,,,,,,,,,,,,,,,,,,,,,,,,,,,,,,,,,,,,,,,,,,
,,,,,,,,,,,,,,,,,198844,19,2022-01-28_23h05.41.196,lexical_decision_task_DD_L5,2021.2.3,Win32,59.98440405,z,1,0.7411,,,,,,,,0.7411,1,0,7,7,13,1,1001,ROUPET,z,,,,,,,,,,,,,,,,,,,,,,,,,,,,,,,,,,,,,,,,,,,,,,,,,,,,,
,,,,,,,,,,,,,,,,,198844,19,2022-01-28_23h05.41.196,lexical_decision_task_DD_L5,2021.2.3,Win32,59.98440405,m,1,0.5006,,,,,,,,0.5006,1,0,8,8,7,1,1001,VOLUME,m,,,,,,,,,,,,,,,,,,,,,,,,,,,,,,,,,,,,,,,,,,,,,,,,,,,,,
,,,,,,,,,,,,,,,,,198844,19,2022-01-28_23h05.41.196,lexical_decision_task_DD_L5,2021.2.3,Win32,59.98440405,z,1,0.717,,,,,,,,0.717,1,0,9,9,14,1,1001,THRALE,z,,,,,,,,,,,,,,,,,,,,,,,,,,,,,,,,,,,,,,,,,,,,,,,,,,,,,
,,,,,,,,,,,,,,,,,198844,19,2022-01-28_23h05.41.196,lexical_decision_task_DD_L5,2021.2.3,Win32,59.98440405,z,1,0.6688,,,,,,,,0.6688,1,0,10,10,10,1,1001,INLADE,z,,,,,,,,,,,,,,,,,,,,,,,,,,,,,,,,,,,,,,,,,,,,,,,,,,,,,
,,,,,,,,,,,,,,,,,198844,19,2022-01-28_23h05.41.196,lexical_decision_task_DD_L5,2021.2.3,Win32,59.98440405,z,1,0.8168,,,,,,,,0.8168,1,0,11,11,9,1,1001,FARINY,z,,,,,,,,,,,,,,,,,,,,,,,,,,,,,,,,,,,,,,,,,,,,,,,,,,,,,
,,,,,,,,,,,,,,,,,198844,19,2022-01-28_23h05.41.196,lexical_decision_task_DD_L5,2021.2.3,Win32,59.98440405,z,1,0.7169,,,,,,,,0.7169,1,0,12,12,8,1,1001,ASLERT,z,,,,,,,,,,,,,,,,,,,,,,,,,,,,,,,,,,,,,,,,,,,,,,,,,,,,,
,,,,,,,,,,,,,,,,,198844,19,2022-01-28_23h05.41.196,lexical_decision_task_DD_L5,2021.2.3,Win32,59.98440405,z,1,0.6827,,,,,,,,0.6827,1,0,13,13,12,1,1001,SPRINY,z,,,,,,,,,,,,,,,,,,,,,,,,,,,,,,,,,,,,,,,,,,,,,,,,,,,,,
,,,,,,,,,,,,,,,,,198844,19,2022-01-28_23h05.41.196,lexical_decision_task_DD_L5,2021.2.3,Win32,59.98440405,z,1,0.6506,,,,,,,,0.6506,1,0,14,14,11,1,1001,RASHET,z,,,,,,,,,,,,,,,,,,,,,,,,,,,,,,,,,,,,,,,,,,,,,,,,,,,,,
,,,,,,,,,,,,,,,,,198844,19,2022-01-28_23h05.41.196,lexical_decision_task_DD_L5,2021.2.3,Win32,59.98440405,m,1,0.8171,,,,,,,,0.8171,1,0,15,15,3,1,1001,MATRIX,m,,,,,,,,,,,,,,,,,,,,,,,,,,,,,,,,,,,,,,,,,,,,,,,,,,,,,
space,2.9929,0.002777804,-0.283333357,0,0,0,,,,,,1,end_of_practice,"You have completed the practice trials. During the experimental trials, you will not receive feedback. 
Before you begin, please ensure that you are in a comfortable and quiet location and will not be disturbed for about 15 minutes, as we cannot use your data if you do not complete all the trials. 
 When you are ready to start the experimental trials, please press space or touch the button below.",,,198844,19,2022-01-28_23h05.41.196,lexical_decision_task_DD_L5,2021.2.3,Win32,59.98440405,,,,,,,,,,,,,,,,,,,,,0,0,0,0,1,,,,,,,,,,,,,,,,,,,,,,,,,,,,,,,,,,,,,,,,,,,,,,,,
,,,,,,,,,,,,,,,,,198844,19,2022-01-28_23h05.41.196,lexical_decision_task_DD_L5,2021.2.3,Win32,59.98440405,,,,,,,,,,,0.7348,1,,,,,,,,,,,,,,z,1,0.7348,,,,,,,,0.002777804,-0.283333357,0,0,0,,0,0,0,102,1,DULLE,C,old,z,./images/DULLE.png,,,,,,,,,,,,,,,,,,,,,,
,,,,,,,,,,,,,,,,,198844,19,2022-01-28_23h05.41.196,lexical_decision_task_DD_L5,2021.2.3,Win32,59.98440405,,,,,,,,,,,0.6732,1,,,,,,,,,,,,,,m,1,0.6732,,,,,,,,0.002777804,-0.283333357,0,0,0,,0,1,1,47,1,LAGOON,C,old,m,./images/LAGOON.png,,,,,,,,,,,,,,,,,,,,,,
,,,,,,,,,,,,,,,,,198844,19,2022-01-28_23h05.41.196,lexical_decision_task_DD_L5,2021.2.3,Win32,59.98440405,,,,,,,,,,,1.0407,1,,,,,,,,,,,,,,m,1,1.0407,,,,,,,,0.002777804,-0.283333357,0,0,0,,0,2,2,31,1,STEAK,LB,old,m,./images/STEAKLB.png,,,,,,,,,,,,,,,,,,,,,,
,,,,,,,,,,,,,,,,,198844,19,2022-01-28_23h05.41.196,lexical_decision_task_DD_L5,2021.2.3,Win32,59.98440405,,,,,,,,,,,0.861,1,,,,,,,,,,,,,,m,1,0.861,,,,,,,,0.002777804,-0.283333357,0,0,0,,0,3,3,39,1,CANDY,HB,old,m,./images/CANDYHB.png,,,,,,,,,,,,,,,,,,,,,,
,,,,,,,,,,,,,,,,,198844,19,2022-01-28_23h05.41.196,lexical_decision_task_DD_L5,2021.2.3,Win32,59.98440405,,,,,,,,,,,1.7406,1,,,,,,,,,,,,,,z,1,1.7406,,,,,,,,0.002777804,-0.283333357,0,0,0,,0,4,4,109,1,BURGE,HB,old,z,./images/BURGEHB.png,,,,,,,,,,,,,,,,,,,,,,
,,,,,,,,,,,,,,,,,198844,19,2022-01-28_23h05.41.196,lexical_decision_task_DD_L5,2021.2.3,Win32,59.98440405,,,,,,,,,,,0.9741,1,,,,,,,,,,,,,,z,1,0.9741,,,,,,,,0.002777804,-0.283333357,0,0,0,,0,5,5,154,1,THINT,HB,old,z,./images/THINTHB.png,,,,,,,,,,,,,,,,,,,,,,
,,,,,,,,,,,,,,,,,198844,19,2022-01-28_23h05.41.196,lexical_decision_task_DD_L5,2021.2.3,Win32,59.98440405,,,,,,,,,,,0.9285,1,,,,,,,,,,,,,,z,1,0.9285,,,,,,,,0.002777804,-0.283333357,0,0,0,,0,6,6,125,1,MOOKY,LB,old,z,./images/MOOKYLB.png,,,,,,,,,,,,,,,,,,,,,,
,,,,,,,,,,,,,,,,,198844,19,2022-01-28_23h05.41.196,lexical_decision_task_DD_L5,2021.2.3,Win32,59.98440405,,,,,,,,,,,0.8754,1,,,,,,,,,,,,,,m,1,0.8754,,,,,,,,0.002777804,-0.283333357,0,0,0,,0,7,7,26,1,CLOUD,C,old,m,./images/CLOUD.png,,,,,,,,,,,,,,,,,,,,,,
,,,,,,,,,,,,,,,,,198844,19,2022-01-28_23h05.41.196,lexical_decision_task_DD_L5,2021.2.3,Win32,59.98440405,,,,,,,,,,,0.6574,1,,,,,,,,,,,,,,m,1,0.6574,,,,,,,,0.002777804,-0.283333357,0,0,0,,0,8,8,38,1,ENGINE,C,old,m,./images/ENGINE.png,,,,,,,,,,,,,,,,,,,,,,
,,,,,,,,,,,,,,,,,198844,19,2022-01-28_23h05.41.196,lexical_decision_task_DD_L5,2021.2.3,Win32,59.98440405,,,,,,,,,,,0.802,1,,,,,,,,,,,,,,m,1,0.802,,,,,,,,0.002777804,-0.283333357,0,0,0,,0,9,9,49,1,BISHOP,LB,old,m,./images/BISHOPLB.png,,,,,,,,,,,,,,,,,,,,,,
,,,,,,,,,,,,,,,,,198844,19,2022-01-28_23h05.41.196,lexical_decision_task_DD_L5,2021.2.3,Win32,59.98440405,,,,,,,,,,,0.8848,1,,,,,,,,,,,,,,z,1,0.8848,,,,,,,,0.002777804,-0.283333357,0,0,0,,0,10,10,133,1,POWDY,HB,old,z,./images/POWDYHB.png,,,,,,,,,,,,,,,,,,,,,,
,,,,,,,,,,,,,,,,,198844,19,2022-01-28_23h05.41.196,lexical_decision_task_DD_L5,2021.2.3,Win32,59.98440405,,,,,,,,,,,1.098,1,,,,,,,,,,,,,,z,1,1.098,,,,,,,,0.002777804,-0.283333357,0,0,0,,0,11,11,129,1,PRANS,C,old,z,./images/PRANS.png,,,,,,,,,,,,,,,,,,,,,,
,,,,,,,,,,,,,,,,,198844,19,2022-01-28_23h05.41.196,lexical_decision_task_DD_L5,2021.2.3,Win32,59.98440405,,,,,,,,,,,0.6983,1,,,,,,,,,,,,,,m,1,0.6983,,,,,,,,0.002777804,-0.283333357,0,0,0,,0,12,12,0,1,WALNUT,HB,old,m,./images/WALNUTHB.png,,,,,,,,,,,,,,,,,,,,,,
,,,,,,,,,,,,,,,,,198844,19,2022-01-28_23h05.41.196,lexical_decision_task_DD_L5,2021.2.3,Win32,59.98440405,,,,,,,,,,,0.8901,1,,,,,,,,,,,,,,z,1,0.8901,,,,,,,,0.002777804,-0.283333357,0,0,0,,0,13,13,163,1,GAMBA,HB,old,z,./images/GAMBAHB.png,,,,,,,,,,,,,,,,,,,,,,
,,,,,,,,,,,,,,,,,198844,19,2022-01-28_23h05.41.196,lexical_decision_task_DD_L5,2021.2.3,Win32,59.98440405,,,,,,,,,,,0.7143,1,,,,,,,,,,,,,,z,1,0.7143,,,,,,,,0.002777804,-0.283333357,0,0,0,,0,14,14,165,1,TROWN,C,old,z,./images/TROWN.png,,,,,,,,,,,,,,,,,,,,,,
,,,,,,,,,,,,,,,,,198844,19,2022-01-28_23h05.41.196,lexical_decision_task_DD_L5,2021.2.3,Win32,59.98440405,,,,,,,,,,,0.9953,1,,,,,,,,,,,,,,z,1,0.9953,,,,,,,,0.002777804,-0.283333357,0,0,0,,0,15,15,118,1,BAVEL,HB,old,z,./images/BAVELHB.png,,,,,,,,,,,,,,,,,,,,,,
,,,,,,,,,,,,,,,,,198844,19,2022-01-28_23h05.41.196,lexical_decision_task_DD_L5,2021.2.3,Win32,59.98440405,,,,,,,,,,,1.1656,1,,,,,,,,,,,,,,m,1,1.1656,,,,,,,,0.002777804,-0.283333357,0,0,0,,0,16,16,72,1,FLASK,HB,old,m,./images/FLASKHB.png,,,,,,,,,,,,,,,,,,,,,,
,,,,,,,,,,,,,,,,,198844,19,2022-01-28_23h05.41.196,lexical_decision_task_DD_L5,2021.2.3,Win32,59.98440405,,,,,,,,,,,0.6318,1,,,,,,,,,,,,,,m,1,0.6318,,,,,,,,0.002777804,-0.283333357,0,0,0,,0,17,17,50,1,PILOT,C,old,m,./images/PILOT.png,,,,,,,,,,,,,,,,,,,,,,
,,,,,,,,,,,,,,,,,198844,19,2022-01-28_23h05.41.196,lexical_decision_task_DD_L5,2021.2.3,Win32,59.98440405,,,,,,,,,,,0.5809,1,,,,,,,,,,,,,,m,1,0.5809,,,,,,,,0.002777804,-0.283333357,0,0,0,,0,18,18,40,1,SNAKE,LB,old,m,./images/SNAKELB.png,,,,,,,,,,,,,,,,,,,,,,
,,,,,,,,,,,,,,,,,198844,19,2022-01-28_23h05.41.196,lexical_decision_task_DD_L5,2021.2.3,Win32,59.98440405,,,,,,,,,,,0.4705,1,,,,,,,,,,,,,,m,1,0.4705,,,,,,,,0.002777804,-0.283333357,0,0,0,,0,19,19,10,1,GARDEN,LB,old,m,./images/GARDENLB.png,,,,,,,,,,,,,,,,,,,,,,
,,,,,,,,,,,,,,,,,198844,19,2022-01-28_23h05.41.196,lexical_decision_task_DD_L5,2021.2.3,Win32,59.98440405,,,,,,,,,,,0.9068,1,,,,,,,,,,,,,,m,1,0.9068,,,,,,,,0.002777804,-0.283333357,0,0,0,,0,20,20,78,1,BROOM,HB,old,m,./images/BROOMHB.png,,,,,,,,,,,,,,,,,,,,,,
,,,,,,,,,,,,,,,,,198844,19,2022-01-28_23h05.41.196,lexical_decision_task_DD_L5,2021.2.3,Win32,59.98440405,,,,,,,,,,,0.6154,1,,,,,,,,,,,,,,m,1,0.6154,,,,,,,,0.002777804,-0.283333357,0,0,0,,0,21,21,53,1,POSTER,C,old,m,./images/POSTER.png,,,,,,,,,,,,,,,,,,,,,,
,,,,,,,,,,,,,,,,,198844,19,2022-01-28_23h05.41.196,lexical_decision_task_DD_L5,2021.2.3,Win32,59.98440405,,,,,,,,,,,0.9117,1,,,,,,,,,,,,,,z,1,0.9117,,,,,,,,0.002777804,-0.283333357,0,0,0,,0,22,22,140,1,DOVET,LB,old,z,./images/DOVETLB.png,,,,,,,,,,,,,,,,,,,,,,
,,,,,,,,,,,,,,,,,198844,19,2022-01-28_23h05.41.196,lexical_decision_task_DD_L5,2021.2.3,Win32,59.98440405,,,,,,,,,,,0.7766,1,,,,,,,,,,,,,,m,1,0.7766,,,,,,,,0.002777804,-0.283333357,0,0,0,,0,23,23,30,1,SLOPE,HB,old,m,./images/SLOPEHB.png,,,,,,,,,,,,,,,,,,,,,,
,,,,,,,,,,,,,,,,,198844,19,2022-01-28_23h05.41.196,lexical_decision_task_DD_L5,2021.2.3,Win32,59.98440405,,,,,,,,,,,3.2678,1,,,,,,,,,,,,,,m,1,3.2678,,,,,,,,0.002777804,-0.283333357,0,0,0,,0,24,24,25,1,CHALK,LB,old,m,./images/CHALKLB.png,,,,,,,,,,,,,,,,,,,,,,
,,,,,,,,,,,,,,,,,198844,19,2022-01-28_23h05.41.196,lexical_decision_task_DD_L5,2021.2.3,Win32,59.98440405,,,,,,,,,,,0.7502,1,,,,,,,,,,,,,,z,1,0.7502,,,,,,,,0.002777804,-0.283333357,0,0,0,,0,25,25,134,1,TROSS,LB,old,z,./images/TROSSLB.png,,,,,,,,,,,,,,,,,,,,,,
,,,,,,,,,,,,,,,,,198844,19,2022-01-28_23h05.41.196,lexical_decision_task_DD_L5,2021.2.3,Win32,59.98440405,,,,,,,,,,,1.3427,1,,,,,,,,,,,,,,z,1,1.3427,,,,,,,,0.002777804,-0.283333357,0,0,0,,0,26,26,153,1,CLUPS,C,old,z,./images/CLUPS.png,,,,,,,,,,,,,,,,,,,,,,
,,,,,,,,,,,,,,,,,198844,19,2022-01-28_23h05.41.196,lexical_decision_task_DD_L5,2021.2.3,Win32,59.98440405,,,,,,,,,,,0.7344,1,,,,,,,,,,,,,,z,1,0.7344,,,,,,,,0.002777804,-0.283333357,0,0,0,,0,27,27,123,1,SEDGE,C,old,z,./images/SEDGE.png,,,,,,,,,,,,,,,,,,,,,,
,,,,,,,,,,,,,,,,,198844,19,2022-01-28_23h05.41.196,lexical_decision_task_DD_L5,2021.2.3,Win32,59.98440405,,,,,,,,,,,0.6084,1,,,,,,,,,,,,,,z,1,0.6084,,,,,,,,0.002777804,-0.283333357,0,0,0,,0,28,28,104,1,GITTY,LB,old,z,./images/GITTYLB.png,,,,,,,,,,,,,,,,,,,,,,
,,,,,,,,,,,,,,,,,198844,19,2022-01-28_23h05.41.196,lexical_decision_task_DD_L5,2021.2.3,Win32,59.98440405,,,,,,,,,,,1.7566,1,,,,,,,,,,,,,,z,1,1.7566,,,,,,,,0.002777804,-0.283333357,0,0,0,,0,29,29,97,1,CHIDS,HB,old,z,./images/CHIDSHB.png,,,,,,,,,,,,,,,,,,,,,,
,,,,,,,,,,,,,,,,,198844,19,2022-01-28_23h05.41.196,lexical_decision_task_DD_L5,2021.2.3,Win32,59.98440405,,,,,,,,,,,0.9033,1,,,,,,,,,,,,,,z,1,0.9033,,,,,,,,0.002777804,-0.283333357,0,0,0,,0,30,30,160,1,VEETS,HB,old,z,./images/VEETSHB.png,,,,,,,,,,,,,,,,,,,,,,
,,,,,,,,,,,,,,,,,198844,19,2022-01-28_23h05.41.196,lexical_decision_task_DD_L5,2021.2.3,Win32,59.98440405,,,,,,,,,,,0.7012,1,,,,,,,,,,,,,,z,1,0.7012,,,,,,,,0.002777804,-0.283333357,0,0,0,,0,31,31,149,1,VEASE,LB,old,z,./images/VEASELB.png,,,,,,,,,,,,,,,,,,,,,,
,,,,,,,,,,,,,,,,,198844,19,2022-01-28_23h05.41.196,lexical_decision_task_DD_L5,2021.2.3,Win32,59.98440405,,,,,,,,,,,1.6,1,,,,,,,,,,,,,,z,1,1.6,,,,,,,,0.002777804,-0.283333357,0,0,0,,0,32,32,143,1,MONGS,LB,old,z,./images/MONGSLB.png,,,,,,,,,,,,,,,,,,,,,,
,,,,,,,,,,,,,,,,,198844,19,2022-01-28_23h05.41.196,lexical_decision_task_DD_L5,2021.2.3,Win32,59.98440405,,,,,,,,,,,0.885,1,,,,,,,,,,,,,,z,1,0.885,,,,,,,,0.002777804,-0.283333357,0,0,0,,0,33,33,138,1,PLICE,C,old,z,./images/PLICE.png,,,,,,,,,,,,,,,,,,,,,,
,,,,,,,,,,,,,,,,,198844,19,2022-01-28_23h05.41.196,lexical_decision_task_DD_L5,2021.2.3,Win32,59.98440405,,,,,,,,,,,0.7019,1,,,,,,,,,,,,,,m,1,0.7019,,,,,,,,0.002777804,-0.283333357,0,0,0,,0,34,34,29,1,PISTOL,C,old,m,./images/PISTOL.png,,,,,,,,,,,,,,,,,,,,,,
,,,,,,,,,,,,,,,,,198844,19,2022-01-28_23h05.41.196,lexical_decision_task_DD_L5,2021.2.3,Win32,59.98440405,,,,,,,,,,,0.9682,1,,,,,,,,,,,,,,m,1,0.9682,,,,,,,,0.002777804,-0.283333357,0,0,0,,0,35,35,75,1,HAMMER,HB,old,m,./images/HAMMERHB.png,,,,,,,,,,,,,,,,,,,,,,
,,,,,,,,,,,,,,,,,198844,19,2022-01-28_23h05.41.196,lexical_decision_task_DD_L5,2021.2.3,Win32,59.98440405,,,,,,,,,,,0.8844,1,,,,,,,,,,,,,,z,1,0.8844,,,,,,,,0.002777804,-0.283333357,0,0,0,,0,36,36,161,1,BLAPS,LB,old,z,./images/BLAPSLB.png,,,,,,,,,,,,,,,,,,,,,,
,,,,,,,,,,,,,,,,,198844,19,2022-01-28_23h05.41.196,lexical_decision_task_DD_L5,2021.2.3,Win32,59.98440405,,,,,,,,,,,0.7669,1,,,,,,,,,,,,,,z,1,0.7669,,,,,,,,0.002777804,-0.283333357,0,0,0,,0,37,37,117,1,STEEG,C,old,z,./images/STEEG.png,,,,,,,,,,,,,,,,,,,,,,
,,,,,,,,,,,,,,,,,198844,19,2022-01-28_23h05.41.196,lexical_decision_task_DD_L5,2021.2.3,Win32,59.98440405,,,,,,,,,,,0.688,1,,,,,,,,,,,,,,z,1,0.688,,,,,,,,0.002777804,-0.283333357,0,0,0,,0,38,38,96,1,KEAMS,C,old,z,./images/KEAMS.png,,,,,,,,,,,,,,,,,,,,,,
,,,,,,,,,,,,,,,,,198844,19,2022-01-28_23h05.41.196,lexical_decision_task_DD_L5,2021.2.3,Win32,59.98440405,,,,,,,,,,,1.0861,1,,,,,,,,,,,,,,m,1,1.0861,,,,,,,,0.002777804,-0.283333357,0,0,0,,0,39,39,56,1,HEATER,C,old,m,./images/HEATER.png,,,,,,,,,,,,,,,,,,,,,,
,,,,,,,,,,,,,,,,,198844,19,2022-01-28_23h05.41.196,lexical_decision_task_DD_L5,2021.2.3,Win32,59.98440405,,,,,,,,,,,1.2251,1,,,,,,,,,,,,,,z,1,1.2251,,,,,,,,0.002777804,-0.283333357,0,0,0,,0,40,40,130,1,CRILL,HB,old,z,./images/CRILLHB.png,,,,,,,,,,,,,,,,,,,,,,
,,,,,,,,,,,,,,,,,198844,19,2022-01-28_23h05.41.196,lexical_decision_task_DD_L5,2021.2.3,Win32,59.98440405,,,,,,,,,,,0.6836,1,,,,,,,,,,,,,,m,1,0.6836,,,,,,,,0.002777804,-0.283333357,0,0,0,space,0,41,41,46,1,MUMMY,LB,old,m,./images/MUMMYLB.png,29.032,,,,,,,,,,,,,,,,,,,,,
,,,,,,,,,,,,,,,,,198844,19,2022-01-28_23h05.41.196,lexical_decision_task_DD_L5,2021.2.3,Win32,59.98440405,,,,,,,,,,,0.7993,1,,,,,,,,,,,,,,m,1,0.7993,,,,,,,,0.002777804,-0.283333357,0,0,0,,0,42,42,54,1,CHERRY,HB,old,m,./images/CHERRYHB.png,,,,,,,,,,,,,,,,,,,,,,
,,,,,,,,,,,,,,,,,198844,19,2022-01-28_23h05.41.196,lexical_decision_task_DD_L5,2021.2.3,Win32,59.98440405,,,,,,,,,,,1.0502,1,,,,,,,,,,,,,,z,1,1.0502,,,,,,,,0.002777804,-0.283333357,0,0,0,,0,43,43,148,1,JOMS,HB,old,z,./images/JOMSHB.png,,,,,,,,,,,,,,,,,,,,,,
,,,,,,,,,,,,,,,,,198844,19,2022-01-28_23h05.41.196,lexical_decision_task_DD_L5,2021.2.3,Win32,59.98440405,,,,,,,,,,,0.7334,1,,,,,,,,,,,,,,m,1,0.7334,,,,,,,,0.002777804,-0.283333357,0,0,0,,0,44,44,60,1,CURRY,HB,old,m,./images/CURRYHB.png,,,,,,,,,,,,,,,,,,,,,,
,,,,,,,,,,,,,,,,,198844,19,2022-01-28_23h05.41.196,lexical_decision_task_DD_L5,2021.2.3,Win32,59.98440405,,,,,,,,,,,0.6815,1,,,,,,,,,,,,,,m,1,0.6815,,,,,,,,0.002777804,-0.283333357,0,0,0,,0,45,45,8,1,CLIFF,C,old,m,./images/CLIFF.png,,,,,,,,,,,,,,,,,,,,,,
,,,,,,,,,,,,,,,,,198844,19,2022-01-28_23h05.41.196,lexical_decision_task_DD_L5,2021.2.3,Win32,59.98440405,,,,,,,,,,,0.5768,1,,,,,,,,,,,,,,z,1,0.5768,,,,,,,,0.002777804,-0.283333357,0,0,0,,0,46,46,147,1,ZOLES,C,old,z,./images/ZOLES.png,,,,,,,,,,,,,,,,,,,,,,
,,,,,,,,,,,,,,,,,198844,19,2022-01-28_23h05.41.196,lexical_decision_task_DD_L5,2021.2.3,Win32,59.98440405,,,,,,,,,,,0.7177,1,,,,,,,,,,,,,,z,1,0.7177,,,,,,,,0.002777804,-0.283333357,0,0,0,,0,47,47,137,1,JOOST,LB,old,z,./images/JOOSTLB.png,,,,,,,,,,,,,,,,,,,,,,
,,,,,,,,,,,,,,,,,198844,19,2022-01-28_23h05.41.196,lexical_decision_task_DD_L5,2021.2.3,Win32,59.98440405,,,,,,,,,,,0.5752,1,,,,,,,,,,,,,,m,1,0.5752,,,,,,,,0.002777804,-0.283333357,0,0,0,,0,48,48,44,1,BASKET,C,old,m,./images/BASKET.png,,,,,,,,,,,,,,,,,,,,,,
,,,,,,,,,,,,,,,,,198844,19,2022-01-28_23h05.41.196,lexical_decision_task_DD_L5,2021.2.3,Win32,59.98440405,,,,,,,,,,,0.9617,1,,,,,,,,,,,,,,m,1,0.9617,,,,,,,,0.002777804,-0.283333357,0,0,0,,0,49,49,27,1,BUTTER,HB,old,m,./images/BUTTERHB.png,,,,,,,,,,,,,,,,,,,,,,
,,,,,,,,,,,,,,,,,198844,19,2022-01-28_23h05.41.196,lexical_decision_task_DD_L5,2021.2.3,Win32,59.98440405,,,,,,,,,,,0.6819,1,,,,,,,,,,,,,,z,1,0.6819,,,,,,,,0.002777804,-0.283333357,0,0,0,,0,50,50,105,1,MOKER,C,old,z,./images/MOKER.png,,,,,,,,,,,,,,,,,,,,,,
,,,,,,,,,,,,,,,,,198844,19,2022-01-28_23h05.41.196,lexical_decision_task_DD_L5,2021.2.3,Win32,59.98440405,,,,,,,,,,,0.679,1,,,,,,,,,,,,,,m,1,0.679,,,,,,,,0.002777804,-0.283333357,0,0,0,,0,51,51,77,1,WHEEL,C,old,m,./images/WHEEL.png,,,,,,,,,,,,,,,,,,,,,,
,,,,,,,,,,,,,,,,,198844,19,2022-01-28_23h05.41.196,lexical_decision_task_DD_L5,2021.2.3,Win32,59.98440405,,,,,,,,,,,0.5999,1,,,,,,,,,,,,,,z,1,0.5999,,,,,,,,0.002777804,-0.283333357,0,0,0,,0,52,52,119,1,PAFER,LB,old,z,./images/PAFERLB.png,,,,,,,,,,,,,,,,,,,,,,
,,,,,,,,,,,,,,,,,198844,19,2022-01-28_23h05.41.196,lexical_decision_task_DD_L5,2021.2.3,Win32,59.98440405,,,,,,,,,,,2.0012,1,,,,,,,,,,,,,,z,1,2.0012,,,,,,,,0.002777804,-0.283333357,0,0,0,,0,53,53,101,1,GLEET,LB,old,z,./images/GLEETLB.png,,,,,,,,,,,,,,,,,,,,,,
,,,,,,,,,,,,,,,,,198844,19,2022-01-28_23h05.41.196,lexical_decision_task_DD_L5,2021.2.3,Win32,59.98440405,,,,,,,,,,,2.7232,1,,,,,,,,,,,,,,m,1,2.7232,,,,,,,,0.002777804,-0.283333357,0,0,0,,0,54,54,33,1,SAUNA,HB,old,m,./images/SAUNAHB.png,,,,,,,,,,,,,,,,,,,,,,
,,,,,,,,,,,,,,,,,198844,19,2022-01-28_23h05.41.196,lexical_decision_task_DD_L5,2021.2.3,Win32,59.98440405,,,,,,,,,,,0.5972,1,,,,,,,,,,,,,,z,1,0.5972,,,,,,,,0.002777804,-0.283333357,0,0,0,,0,55,55,156,1,HIXES,C,old,z,./images/HIXES.png,,,,,,,,,,,,,,,,,,,,,,
,,,,,,,,,,,,,,,,,198844,19,2022-01-28_23h05.41.196,lexical_decision_task_DD_L5,2021.2.3,Win32,59.98440405,,,,,,,,,,,0.583,1,,,,,,,,,,,,,,z,1,0.583,,,,,,,,0.002777804,-0.283333357,0,0,0,,0,56,56,99,1,BACKY,C,old,z,./images/BACKY.png,,,,,,,,,,,,,,,,,,,,,,
,,,,,,,,,,,,,,,,,198844,19,2022-01-28_23h05.41.196,lexical_decision_task_DD_L5,2021.2.3,Win32,59.98440405,,,,,,,,,,,0.579,1,,,,,,,,,,,,,,m,1,0.579,,,,,,,,0.002777804,-0.283333357,0,0,0,,0,57,57,66,1,STATUE,HB,old,m,./images/STATUEHB.png,,,,,,,,,,,,,,,,,,,,,,
,,,,,,,,,,,,,,,,,198844,19,2022-01-28_23h05.41.196,lexical_decision_task_DD_L5,2021.2.3,Win32,59.98440405,,,,,,,,,,,0.9709,1,,,,,,,,,,,,,,m,1,0.9709,,,,,,,,0.002777804,-0.283333357,0,0,0,,0,58,58,63,1,BAKER,HB,old,m,./images/BAKERHB.png,,,,,,,,,,,,,,,,,,,,,,
,,,,,,,,,,,,,,,,,198844,19,2022-01-28_23h05.41.196,lexical_decision_task_DD_L5,2021.2.3,Win32,59.98440405,,,,,,,,,,,1.1475,1,,,,,,,,,,,,,,m,1,1.1475,,,,,,,,0.002777804,-0.283333357,0,0,0,,0,59,59,12,1,BLOKE,HB,old,m,./images/BLOKEHB.png,,,,,,,,,,,,,,,,,,,,,,
,,,,,,,,,,,,,,,,,198844,19,2022-01-28_23h05.41.196,lexical_decision_task_DD_L5,2021.2.3,Win32,59.98440405,,,,,,,,,,,1.1162,1,,,,,,,,,,,,,,m,1,1.1162,,,,,,,,0.002777804,-0.283333357,0,0,0,,0,60,60,65,1,SPINE,C,old,m,./images/SPINE.png,,,,,,,,,,,,,,,,,,,,,,
,,,,,,,,,,,,,,,,,198844,19,2022-01-28_23h05.41.196,lexical_decision_task_DD_L5,2021.2.3,Win32,59.98440405,,,,,,,,,,,0.696,1,,,,,,,,,,,,,,z,1,0.696,,,,,,,,0.002777804,-0.283333357,0,0,0,,0,61,61,135,1,JOODY,C,old,z,./images/JOODY.png,,,,,,,,,,,,,,,,,,,,,,
,,,,,,,,,,,,,,,,,198844,19,2022-01-28_23h05.41.196,lexical_decision_task_DD_L5,2021.2.3,Win32,59.98440405,,,,,,,,,,,0.6277,1,,,,,,,,,,,,,,z,1,0.6277,,,,,,,,0.002777804,-0.283333357,0,0,0,,0,62,62,89,1,DRIEK,LB,old,z,./images/DRIEKLB.png,,,,,,,,,,,,,,,,,,,,,,
,,,,,,,,,,,,,,,,,198844,19,2022-01-28_23h05.41.196,lexical_decision_task_DD_L5,2021.2.3,Win32,59.98440405,,,,,,,,,,,0.9015,1,,,,,,,,,,,,,,m,1,0.9015,,,,,,,,0.002777804,-0.283333357,0,0,0,,0,63,63,3,1,CRATER,HB,old,m,./images/CRATERHB.png,,,,,,,,,,,,,,,,,,,,,,
,,,,,,,,,,,,,,,,,198844,19,2022-01-28_23h05.41.196,lexical_decision_task_DD_L5,2021.2.3,Win32,59.98440405,,,,,,,,,,,0.538,1,,,,,,,,,,,,,,m,1,0.538,,,,,,,,0.002777804,-0.283333357,0,0,0,,0,64,64,58,1,CANOE,LB,old,m,./images/CANOELB.png,,,,,,,,,,,,,,,,,,,,,,
,,,,,,,,,,,,,,,,,198844,19,2022-01-28_23h05.41.196,lexical_decision_task_DD_L5,2021.2.3,Win32,59.98440405,,,,,,,,,,,0.5156,1,,,,,,,,,,,,,,m,1,0.5156,,,,,,,,0.002777804,-0.283333357,0,0,0,,0,65,65,82,1,PEBBLE,LB,old,m,./images/PEBBLELB.png,,,,,,,,,,,,,,,,,,,,,,
,,,,,,,,,,,,,,,,,198844,19,2022-01-28_23h05.41.196,lexical_decision_task_DD_L5,2021.2.3,Win32,59.98440405,,,,,,,,,,,0.497,1,,,,,,,,,,,,,,m,1,0.497,,,,,,,,0.002777804,-0.283333357,0,0,0,,0,66,66,5,1,BAMBOO,C,old,m,./images/BAMBOO.png,,,,,,,,,,,,,,,,,,,,,,
,,,,,,,,,,,,,,,,,198844,19,2022-01-28_23h05.41.196,lexical_decision_task_DD_L5,2021.2.3,Win32,59.98440405,,,,,,,,,,,0.8816,1,,,,,,,,,,,,,,m,1,0.8816,,,,,,,,0.002777804,-0.283333357,0,0,0,,0,67,67,9,1,DIVER,HB,old,m,./images/DIVERHB.png,,,,,,,,,,,,,,,,,,,,,,
,,,,,,,,,,,,,,,,,198844,19,2022-01-28_23h05.41.196,lexical_decision_task_DD_L5,2021.2.3,Win32,59.98440405,,,,,,,,,,,0.4677,1,,,,,,,,,,,,,,m,1,0.4677,,,,,,,,0.002777804,-0.283333357,0,0,0,,0,68,68,71,1,BUBBLE,C,old,m,./images/BUBBLE.png,,,,,,,,,,,,,,,,,,,,,,
,,,,,,,,,,,,,,,,,198844,19,2022-01-28_23h05.41.196,lexical_decision_task_DD_L5,2021.2.3,Win32,59.98440405,,,,,,,,,,,0.8391,1,,,,,,,,,,,,,,z,1,0.8391,,,,,,,,0.002777804,-0.283333357,0,0,0,,0,69,69,92,1,PAIMS,LB,old,z,./images/PAIMSLB.png,,,,,,,,,,,,,,,,,,,,,,
,,,,,,,,,,,,,,,,,198844,19,2022-01-28_23h05.41.196,lexical_decision_task_DD_L5,2021.2.3,Win32,59.98440405,,,,,,,,,,,1.3541,1,,,,,,,,,,,,,,z,1,1.3541,,,,,,,,0.002777804,-0.283333357,0,0,0,,0,70,70,139,1,BLEAR,HB,old,z,./images/BLEARHB.png,,,,,,,,,,,,,,,,,,,,,,
,,,,,,,,,,,,,,,,,198844,19,2022-01-28_23h05.41.196,lexical_decision_task_DD_L5,2021.2.3,Win32,59.98440405,,,,,,,,,,,0.7549,1,,,,,,,,,,,,,,z,1,0.7549,,,,,,,,0.002777804,-0.283333357,0,0,0,,0,71,71,113,1,LINEW,LB,old,z,./images/LINEWLB.png,,,,,,,,,,,,,,,,,,,,,,
,,,,,,,,,,,,,,,,,198844,19,2022-01-28_23h05.41.196,lexical_decision_task_DD_L5,2021.2.3,Win32,59.98440405,,,,,,,,,,,0.498,1,,,,,,,,,,,,,,m,1,0.498,,,,,,,,0.002777804,-0.283333357,0,0,0,,0,72,72,68,1,VALLEY,C,old,m,./images/VALLEY.png,,,,,,,,,,,,,,,,,,,,,,
,,,,,,,,,,,,,,,,,198844,19,2022-01-28_23h05.41.196,lexical_decision_task_DD_L5,2021.2.3,Win32,59.98440405,,,,,,,,,,,0.731,1,,,,,,,,,,,,,,z,1,0.731,,,,,,,,0.002777804,-0.283333357,0,0,0,,0,73,73,141,1,PLEET,C,old,z,./images/PLEET.png,,,,,,,,,,,,,,,,,,,,,,
,,,,,,,,,,,,,,,,,198844,19,2022-01-28_23h05.41.196,lexical_decision_task_DD_L5,2021.2.3,Win32,59.98440405,,,,,,,,,,,1.6018,1,,,,,,,,,,,,,,m,1,1.6018,,,,,,,,0.002777804,-0.283333357,0,0,0,,0,74,74,24,1,FLESH,HB,old,m,./images/FLESHHB.png,,,,,,,,,,,,,,,,,,,,,,
,,,,,,,,,,,,,,,,,198844,19,2022-01-28_23h05.41.196,lexical_decision_task_DD_L5,2021.2.3,Win32,59.98440405,,,,,,,,,,,0.5983,1,,,,,,,,,,,,,,m,1,0.5983,,,,,,,,0.002777804,-0.283333357,0,0,0,,0,75,75,59,1,BRUSH,C,old,m,./images/BRUSH.png,,,,,,,,,,,,,,,,,,,,,,
,,,,,,,,,,,,,,,,,198844,19,2022-01-28_23h05.41.196,lexical_decision_task_DD_L5,2021.2.3,Win32,59.98440405,,,,,,,,,,,0.597,1,,,,,,,,,,,,,,m,1,0.597,,,,,,,,0.002777804,-0.283333357,0,0,0,,0,76,76,15,1,COLLAR,HB,old,m,./images/COLLARHB.png,,,,,,,,,,,,,,,,,,,,,,
,,,,,,,,,,,,,,,,,198844,19,2022-01-28_23h05.41.196,lexical_decision_task_DD_L5,2021.2.3,Win32,59.98440405,,,,,,,,,,,1.0673,1,,,,,,,,,,,,,,z,1,1.0673,,,,,,,,0.002777804,-0.283333357,0,0,0,,0,77,77,128,1,GRIFT,LB,old,z,./images/GRIFTLB.png,,,,,,,,,,,,,,,,,,,,,,
,,,,,,,,,,,,,,,,,198844,19,2022-01-28_23h05.41.196,lexical_decision_task_DD_L5,2021.2.3,Win32,59.98440405,,,,,,,,,,,0.8472,1,,,,,,,,,,,,,,z,1,0.8472,,,,,,,,0.002777804,-0.283333357,0,0,0,,0,78,78,145,1,LAMEL,HB,old,z,./images/LAMELHB.png,,,,,,,,,,,,,,,,,,,,,,
,,,,,,,,,,,,,,,,,198844,19,2022-01-28_23h05.41.196,lexical_decision_task_DD_L5,2021.2.3,Win32,59.98440405,,,,,,,,,,,0.7533,1,,,,,,,,,,,,,,z,1,0.7533,,,,,,,,0.002777804,-0.283333357,0,0,0,,0,79,79,95,1,HANTY,LB,old,z,./images/HANTYLB.png,,,,,,,,,,,,,,,,,,,,,,
,,,,,,,,,,,,,,,,,198844,19,2022-01-28_23h05.41.196,lexical_decision_task_DD_L5,2021.2.3,Win32,59.98440405,,,,,,,,,,,0.6801,1,,,,,,,,,,,,,,m,1,0.6801,,,,,,,,0.002777804,-0.283333357,0,0,0,,0,80,80,37,1,TIGER,LB,old,m,./images/TIGERLB.png,,,,,,,,,,,,,,,,,,,,,,
,,,,,,,,,,,,,,,,,198844,19,2022-01-28_23h05.41.196,lexical_decision_task_DD_L5,2021.2.3,Win32,59.98440405,,,,,,,,,,,0.9473,1,,,,,,,,,,,,,,z,1,0.9473,,,,,,,,0.002777804,-0.283333357,0,0,0,,0,81,81,124,1,TUNCH,HB,old,z,./images/TUNCHHB.png,,,,,,,,,,,,,,,,,,,,,,
,,,,,,,,,,,,,,,,,198844,19,2022-01-28_23h05.41.196,lexical_decision_task_DD_L5,2021.2.3,Win32,59.98440405,,,,,,,,,,,1.0486,1,,,,,,,,,,,,,,z,1,1.0486,,,,,,,,0.002777804,-0.283333357,0,0,0,,0,82,82,164,1,SGREW,LB,old,z,./images/SGREWLB.png,,,,,,,,,,,,,,,,,,,,,,
,,,,,,,,,,,,,,,,,198844,19,2022-01-28_23h05.41.196,lexical_decision_task_DD_L5,2021.2.3,Win32,59.98440405,,,,,,,,,,,1.8781,1,,,,,,,,,,,,,,z,1,1.8781,,,,,,,,0.002777804,-0.283333357,0,0,0,space,0,83,83,166,1,SHORY,HB,old,z,./images/SHORYHB.png,38.5323,,,,,,,,,,,,,,,,,,,,,
,,,,,,,,,,,,,,,,,198844,19,2022-01-28_23h05.41.196,lexical_decision_task_DD_L5,2021.2.3,Win32,59.98440405,,,,,,,,,,,0.6404,1,,,,,,,,,,,,,,m,1,0.6404,,,,,,,,0.002777804,-0.283333357,0,0,0,,0,84,84,7,1,WAGON,LB,old,m,./images/WAGONLB.png,,,,,,,,,,,,,,,,,,,,,,
,,,,,,,,,,,,,,,,,198844,19,2022-01-28_23h05.41.196,lexical_decision_task_DD_L5,2021.2.3,Win32,59.98440405,,,,,,,,,,,0.7995,1,,,,,,,,,,,,,,m,1,0.7995,,,,,,,,0.002777804,-0.283333357,0,0,0,,0,85,85,11,1,MEDAL,C,old,m,./images/MEDAL.png,,,,,,,,,,,,,,,,,,,,,,
,,,,,,,,,,,,,,,,,198844,19,2022-01-28_23h05.41.196,lexical_decision_task_DD_L5,2021.2.3,Win32,59.98440405,,,,,,,,,,,1.3866,1,,,,,,,,,,,,,,z,1,1.3866,,,,,,,,0.002777804,-0.283333357,0,0,0,,0,86,86,91,1,SHENS,HB,old,z,./images/SHENSHB.png,,,,,,,,,,,,,,,,,,,,,,
,,,,,,,,,,,,,,,,,198844,19,2022-01-28_23h05.41.196,lexical_decision_task_DD_L5,2021.2.3,Win32,59.98440405,,,,,,,,,,,0.6088,1,,,,,,,,,,,,,,z,1,0.6088,,,,,,,,0.002777804,-0.283333357,0,0,0,,0,87,87,162,1,LEICH,C,old,z,./images/LEICH.png,,,,,,,,,,,,,,,,,,,,,,
,,,,,,,,,,,,,,,,,198844,19,2022-01-28_23h05.41.196,lexical_decision_task_DD_L5,2021.2.3,Win32,59.98440405,,,,,,,,,,,0.5666,1,,,,,,,,,,,,,,z,1,0.5666,,,,,,,,0.002777804,-0.283333357,0,0,0,,0,88,88,84,1,HAXES,C,old,z,./images/HAXES.png,,,,,,,,,,,,,,,,,,,,,,
,,,,,,,,,,,,,,,,,198844,19,2022-01-28_23h05.41.196,lexical_decision_task_DD_L5,2021.2.3,Win32,59.98440405,,,,,,,,,,,0.8034,1,,,,,,,,,,,,,,m,1,0.8034,,,,,,,,0.002777804,-0.283333357,0,0,0,,0,89,89,57,1,FERRY,HB,old,m,./images/FERRYHB.png,,,,,,,,,,,,,,,,,,,,,,
,,,,,,,,,,,,,,,,,198844,19,2022-01-28_23h05.41.196,lexical_decision_task_DD_L5,2021.2.3,Win32,59.98440405,,,,,,,,,,,0.5668,1,,,,,,,,,,,,,,z,1,0.5668,,,,,,,,0.002777804,-0.283333357,0,0,0,,0,90,90,111,1,HOSSE,C,old,z,./images/HOSSE.png,,,,,,,,,,,,,,,,,,,,,,
,,,,,,,,,,,,,,,,,198844,19,2022-01-28_23h05.41.196,lexical_decision_task_DD_L5,2021.2.3,Win32,59.98440405,,,,,,,,,,,0.5179,1,,,,,,,,,,,,,,m,1,0.5179,,,,,,,,0.002777804,-0.283333357,0,0,0,,0,91,91,41,1,STREAM,C,old,m,./images/STREAM.png,,,,,,,,,,,,,,,,,,,,,,
,,,,,,,,,,,,,,,,,198844,19,2022-01-28_23h05.41.196,lexical_decision_task_DD_L5,2021.2.3,Win32,59.98440405,,,,,,,,,,,2.7729,1,,,,,,,,,,,,,,z,1,2.7729,,,,,,,,0.002777804,-0.283333357,0,0,0,,0,92,92,131,1,NACES,LB,old,z,./images/NACESLB.png,,,,,,,,,,,,,,,,,,,,,,
,,,,,,,,,,,,,,,,,198844,19,2022-01-28_23h05.41.196,lexical_decision_task_DD_L5,2021.2.3,Win32,59.98440405,,,,,,,,,,,2.4004,1,,,,,,,,,,,,,,z,1,2.4004,,,,,,,,0.002777804,-0.283333357,0,0,0,,0,93,93,121,1,CEERS,HB,old,z,./images/CEERSHB.png,,,,,,,,,,,,,,,,,,,,,,
,,,,,,,,,,,,,,,,,198844,19,2022-01-28_23h05.41.196,lexical_decision_task_DD_L5,2021.2.3,Win32,59.98440405,,,,,,,,,,,0.9004,1,,,,,,,,,,,,,,m,1,0.9004,,,,,,,,0.002777804,-0.283333357,0,0,0,,0,94,94,52,1,DESERT,LB,old,m,./images/DESERTLB.png,,,,,,,,,,,,,,,,,,,,,,
,,,,,,,,,,,,,,,,,198844,19,2022-01-28_23h05.41.196,lexical_decision_task_DD_L5,2021.2.3,Win32,59.98440405,,,,,,,,,,,0.6508,1,,,,,,,,,,,,,,z,1,0.6508,,,,,,,,0.002777804,-0.283333357,0,0,0,,0,95,95,158,1,EGECT,LB,old,z,./images/EGECTLB.png,,,,,,,,,,,,,,,,,,,,,,
,,,,,,,,,,,,,,,,,198844,19,2022-01-28_23h05.41.196,lexical_decision_task_DD_L5,2021.2.3,Win32,59.98440405,,,,,,,,,,,0.8271,1,,,,,,,,,,,,,,m,1,0.8271,,,,,,,,0.002777804,-0.283333357,0,0,0,,0,96,96,21,1,DANCER,HB,old,m,./images/DANCERHB.png,,,,,,,,,,,,,,,,,,,,,,
,,,,,,,,,,,,,,,,,198844,19,2022-01-28_23h05.41.196,lexical_decision_task_DD_L5,2021.2.3,Win32,59.98440405,,,,,,,,,,,0.5501,1,,,,,,,,,,,,,,m,1,0.5501,,,,,,,,0.002777804,-0.283333357,0,0,0,,0,97,97,2,1,STOVE,C,old,m,./images/STOVE.png,,,,,,,,,,,,,,,,,,,,,,
,,,,,,,,,,,,,,,,,198844,19,2022-01-28_23h05.41.196,lexical_decision_task_DD_L5,2021.2.3,Win32,59.98440405,,,,,,,,,,,1.6549,0,,,,,,,,,,,,,,z,0,1.6549,,,,,,,,0.002777804,-0.283333357,0,0,0,,0,98,98,18,1,PARCEL,HB,old,m,./images/PARCELHB.png,,,,,,,,,,,,,,,,,,,,,,
,,,,,,,,,,,,,,,,,198844,19,2022-01-28_23h05.41.196,lexical_decision_task_DD_L5,2021.2.3,Win32,59.98440405,,,,,,,,,,,1.6502,1,,,,,,,,,,,,,,m,1,1.6502,,,,,,,,0.002777804,-0.283333357,0,0,0,,0,99,99,70,1,BANANA,LB,old,m,./images/BANANALB.png,,,,,,,,,,,,,,,,,,,,,,
,,,,,,,,,,,,,,,,,198844,19,2022-01-28_23h05.41.196,lexical_decision_task_DD_L5,2021.2.3,Win32,59.98440405,,,,,,,,,,,0.6838,1,,,,,,,,,,,,,,z,1,0.6838,,,,,,,,0.002777804,-0.283333357,0,0,0,,0,100,100,116,1,BALGY,LB,old,z,./images/BALGYLB.png,,,,,,,,,,,,,,,,,,,,,,
,,,,,,,,,,,,,,,,,198844,19,2022-01-28_23h05.41.196,lexical_decision_task_DD_L5,2021.2.3,Win32,59.98440405,,,,,,,,,,,1.0168,0,,,,,,,,,,,,,,m,0,1.0168,,,,,,,,0.002777804,-0.283333357,0,0,0,,0,101,101,151,1,TINKY,HB,old,z,./images/TINKYHB.png,,,,,,,,,,,,,,,,,,,,,,
,,,,,,,,,,,,,,,,,198844,19,2022-01-28_23h05.41.196,lexical_decision_task_DD_L5,2021.2.3,Win32,59.98440405,,,,,,,,,,,0.8672,1,,,,,,,,,,,,,,z,1,0.8672,,,,,,,,0.002777804,-0.283333357,0,0,0,,0,102,102,103,1,FLORT,HB,old,z,./images/FLORTHB.png,,,,,,,,,,,,,,,,,,,,,,
,,,,,,,,,,,,,,,,,198844,19,2022-01-28_23h05.41.196,lexical_decision_task_DD_L5,2021.2.3,Win32,59.98440405,,,,,,,,,,,0.8547,1,,,,,,,,,,,,,,z,1,0.8547,,,,,,,,0.002777804,-0.283333357,0,0,0,,0,103,103,86,1,AIFED,LB,old,z,./images/AIFEDLB.png,,,,,,,,,,,,,,,,,,,,,,
,,,,,,,,,,,,,,,,,198844,19,2022-01-28_23h05.41.196,lexical_decision_task_DD_L5,2021.2.3,Win32,59.98440405,,,,,,,,,,,1.3252,1,,,,,,,,,,,,,,m,1,1.3252,,,,,,,,0.002777804,-0.283333357,0,0,0,,0,104,104,19,1,DONKEY,LB,old,m,./images/DONKEYLB.png,,,,,,,,,,,,,,,,,,,,,,
,,,,,,,,,,,,,,,,,198844,19,2022-01-28_23h05.41.196,lexical_decision_task_DD_L5,2021.2.3,Win32,59.98440405,,,,,,,,,,,0.5694,1,,,,,,,,,,,,,,z,1,0.5694,,,,,,,,0.002777804,-0.283333357,0,0,0,,0,105,105,152,1,FRAIN,LB,old,z,./images/FRAINLB.png,,,,,,,,,,,,,,,,,,,,,,
,,,,,,,,,,,,,,,,,198844,19,2022-01-28_23h05.41.196,lexical_decision_task_DD_L5,2021.2.3,Win32,59.98440405,,,,,,,,,,,1.7669,1,,,,,,,,,,,,,,z,1,1.7669,,,,,,,,0.002777804,-0.283333357,0,0,0,,0,106,106,146,1,MOOST,LB,old,z,./images/MOOSTLB.png,,,,,,,,,,,,,,,,,,,,,,
,,,,,,,,,,,,,,,,,198844,19,2022-01-28_23h05.41.196,lexical_decision_task_DD_L5,2021.2.3,Win32,59.98440405,,,,,,,,,,,2.867,1,,,,,,,,,,,,,,z,1,2.867,,,,,,,,0.002777804,-0.283333357,0,0,0,,0,107,107,107,1,FASKS,LB,old,z,./images/FASKSLB.png,,,,,,,,,,,,,,,,,,,,,,
,,,,,,,,,,,,,,,,,198844,19,2022-01-28_23h05.41.196,lexical_decision_task_DD_L5,2021.2.3,Win32,59.98440405,,,,,,,,,,,0.4845,1,,,,,,,,,,,,,,m,1,0.4845,,,,,,,,0.002777804,-0.283333357,0,0,0,,0,108,108,17,1,PARADE,C,old,m,./images/PARADE.png,,,,,,,,,,,,,,,,,,,,,,
,,,,,,,,,,,,,,,,,198844,19,2022-01-28_23h05.41.196,lexical_decision_task_DD_L5,2021.2.3,Win32,59.98440405,,,,,,,,,,,0.8362,1,,,,,,,,,,,,,,m,1,0.8362,,,,,,,,0.002777804,-0.283333357,0,0,0,,0,109,109,51,1,SAUCE,HB,old,m,./images/SAUCEHB.png,,,,,,,,,,,,,,,,,,,,,,
,,,,,,,,,,,,,,,,,198844,19,2022-01-28_23h05.41.196,lexical_decision_task_DD_L5,2021.2.3,Win32,59.98440405,,,,,,,,,,,1.3901,1,,,,,,,,,,,,,,z,1,1.3901,,,,,,,,0.002777804,-0.283333357,0,0,0,,0,110,110,144,1,NAIRY,C,old,z,./images/NAIRY.png,,,,,,,,,,,,,,,,,,,,,,
,,,,,,,,,,,,,,,,,198844,19,2022-01-28_23h05.41.196,lexical_decision_task_DD_L5,2021.2.3,Win32,59.98440405,,,,,,,,,,,3.4344,1,,,,,,,,,,,,,,z,1,3.4344,,,,,,,,0.002777804,-0.283333357,0,0,0,,0,111,111,94,1,BLANS,HB,old,z,./images/BLANSHB.png,,,,,,,,,,,,,,,,,,,,,,
,,,,,,,,,,,,,,,,,198844,19,2022-01-28_23h05.41.196,lexical_decision_task_DD_L5,2021.2.3,Win32,59.98440405,,,,,,,,,,,0.894,1,,,,,,,,,,,,,,m,1,0.894,,,,,,,,0.002777804,-0.283333357,0,0,0,,0,112,112,64,1,BRIDE,LB,old,m,./images/BRIDELB.png,,,,,,,,,,,,,,,,,,,,,,
,,,,,,,,,,,,,,,,,198844,19,2022-01-28_23h05.41.196,lexical_decision_task_DD_L5,2021.2.3,Win32,59.98440405,,,,,,,,,,,1.15,1,,,,,,,,,,,,,,z,1,1.15,,,,,,,,0.002777804,-0.283333357,0,0,0,,0,113,113,126,1,GUELS,C,old,z,./images/GUELS.png,,,,,,,,,,,,,,,,,,,,,,
,,,,,,,,,,,,,,,,,198844,19,2022-01-28_23h05.41.196,lexical_decision_task_DD_L5,2021.2.3,Win32,59.98440405,,,,,,,,,,,0.9191,1,,,,,,,,,,,,,,m,1,0.9191,,,,,,,,0.002777804,-0.283333357,0,0,0,,0,114,114,45,1,MONKEY,HB,old,m,./images/MONKEYHB.png,,,,,,,,,,,,,,,,,,,,,,
,,,,,,,,,,,,,,,,,198844,19,2022-01-28_23h05.41.196,lexical_decision_task_DD_L5,2021.2.3,Win32,59.98440405,,,,,,,,,,,2.6701,1,,,,,,,,,,,,,,z,1,2.6701,,,,,,,,0.002777804,-0.283333357,0,0,0,,0,115,115,155,1,CANGY,LB,old,z,./images/CANGYLB.png,,,,,,,,,,,,,,,,,,,,,,
,,,,,,,,,,,,,,,,,198844,19,2022-01-28_23h05.41.196,lexical_decision_task_DD_L5,2021.2.3,Win32,59.98440405,,,,,,,,,,,1.7592,1,,,,,,,,,,,,,,m,1,1.7592,,,,,,,,0.002777804,-0.283333357,0,0,0,,0,116,116,14,1,FENCE,C,old,m,./images/FENCE.png,,,,,,,,,,,,,,,,,,,,,,
,,,,,,,,,,,,,,,,,198844,19,2022-01-28_23h05.41.196,lexical_decision_task_DD_L5,2021.2.3,Win32,59.98440405,,,,,,,,,,,0.6023,1,,,,,,,,,,,,,,m,1,0.6023,,,,,,,,0.002777804,-0.283333357,0,0,0,,0,117,117,32,1,HOCKEY,C,old,m,./images/HOCKEY.png,,,,,,,,,,,,,,,,,,,,,,
,,,,,,,,,,,,,,,,,198844,19,2022-01-28_23h05.41.196,lexical_decision_task_DD_L5,2021.2.3,Win32,59.98440405,,,,,,,,,,,1.3669,1,,,,,,,,,,,,,,m,1,1.3669,,,,,,,,0.002777804,-0.283333357,0,0,0,,0,118,118,48,1,SHIELD,HB,old,m,./images/SHIELDHB.png,,,,,,,,,,,,,,,,,,,,,,
,,,,,,,,,,,,,,,,,198844,19,2022-01-28_23h05.41.196,lexical_decision_task_DD_L5,2021.2.3,Win32,59.98440405,,,,,,,,,,,1.884,1,,,,,,,,,,,,,,m,1,1.884,,,,,,,,0.002777804,-0.283333357,0,0,0,,0,119,119,4,1,BOXER,LB,old,m,./images/BOXERLB.png,,,,,,,,,,,,,,,,,,,,,,
,,,,,,,,,,,,,,,,,198844,19,2022-01-28_23h05.41.196,lexical_decision_task_DD_L5,2021.2.3,Win32,59.98440405,,,,,,,,,,,1.6835,1,,,,,,,,,,,,,,m,1,1.6835,,,,,,,,0.002777804,-0.283333357,0,0,0,,0,120,120,35,1,LLAMA,C,old,m,./images/LLAMA.png,,,,,,,,,,,,,,,,,,,,,,
,,,,,,,,,,,,,,,,,198844,19,2022-01-28_23h05.41.196,lexical_decision_task_DD_L5,2021.2.3,Win32,59.98440405,,,,,,,,,,,2.9507,1,,,,,,,,,,,,,,m,1,2.9507,,,,,,,,0.002777804,-0.283333357,0,0,0,,0,121,121,81,1,DRILL,HB,old,m,./images/DRILLHB.png,,,,,,,,,,,,,,,,,,,,,,
,,,,,,,,,,,,,,,,,198844,19,2022-01-28_23h05.41.196,lexical_decision_task_DD_L5,2021.2.3,Win32,59.98440405,,,,,,,,,,,1.094,1,,,,,,,,,,,,,,z,1,1.094,,,,,,,,0.002777804,-0.283333357,0,0,0,,0,122,122,90,1,NEAST,C,old,z,./images/NEAST.png,,,,,,,,,,,,,,,,,,,,,,
,,,,,,,,,,,,,,,,,198844,19,2022-01-28_23h05.41.196,lexical_decision_task_DD_L5,2021.2.3,Win32,59.98440405,,,,,,,,,,,2.5551,1,,,,,,,,,,,,,,m,1,2.5551,,,,,,,,0.002777804,-0.283333357,0,0,0,,0,123,123,74,1,JUMPER,C,old,m,./images/JUMPER.png,,,,,,,,,,,,,,,,,,,,,,
,,,,,,,,,,,,,,,,,198844,19,2022-01-28_23h05.41.196,lexical_decision_task_DD_L5,2021.2.3,Win32,59.98440405,,,,,,,,,,,5.7842,1,,,,,,,,,,,,,,z,1,5.7842,,,,,,,,0.002777804,-0.283333357,0,0,0,,0,124,124,112,1,MYING,HB,old,z,./images/MYINGHB.png,,,,,,,,,,,,,,,,,,,,,,
,,,,,,,,,,,,,,,,,198844,19,2022-01-28_23h05.41.196,lexical_decision_task_DD_L5,2021.2.3,Win32,59.98440405,,,,,,,,,,,1.4118,1,,,,,,,,,,,,,,z,1,1.4118,,,,,,,,0.002777804,-0.283333357,0,0,0,space,0,125,125,157,1,INLER,HB,old,z,./images/INLERHB.png,25.0351,,,,,,,,,,,,,,,,,,,,,
,,,,,,,,,,,,,,,,,198844,19,2022-01-28_23h05.41.196,lexical_decision_task_DD_L5,2021.2.3,Win32,59.98440405,,,,,,,,,,,0.7376,1,,,,,,,,,,,,,,m,1,0.7376,,,,,,,,0.002777804,-0.283333357,0,0,0,,0,126,126,13,1,BUNNY,LB,old,m,./images/BUNNYLB.png,,,,,,,,,,,,,,,,,,,,,,
,,,,,,,,,,,,,,,,,198844,19,2022-01-28_23h05.41.196,lexical_decision_task_DD_L5,2021.2.3,Win32,59.98440405,,,,,,,,,,,1.4336,1,,,,,,,,,,,,,,z,1,1.4336,,,,,,,,0.002777804,-0.283333357,0,0,0,,0,127,127,85,1,CHULK,HB,old,z,./images/CHULKHB.png,,,,,,,,,,,,,,,,,,,,,,
,,,,,,,,,,,,,,,,,198844,19,2022-01-28_23h05.41.196,lexical_decision_task_DD_L5,2021.2.3,Win32,59.98440405,,,,,,,,,,,1.6674,1,,,,,,,,,,,,,,z,1,1.6674,,,,,,,,0.002777804,-0.283333357,0,0,0,,0,128,128,88,1,GLUSH,HB,old,z,./images/GLUSHHB.png,,,,,,,,,,,,,,,,,,,,,,
,,,,,,,,,,,,,,,,,198844,19,2022-01-28_23h05.41.196,lexical_decision_task_DD_L5,2021.2.3,Win32,59.98440405,,,,,,,,,,,0.6347,1,,,,,,,,,,,,,,z,1,0.6347,,,,,,,,0.002777804,-0.283333357,0,0,0,,0,129,129,98,1,BAMPS,LB,old,z,./images/BAMPSLB.png,,,,,,,,,,,,,,,,,,,,,,
,,,,,,,,,,,,,,,,,198844,19,2022-01-28_23h05.41.196,lexical_decision_task_DD_L5,2021.2.3,Win32,59.98440405,,,,,,,,,,,0.8788,1,,,,,,,,,,,,,,m,1,0.8788,,,,,,,,0.002777804,-0.283333357,0,0,0,,0,130,130,36,1,BOILER,HB,old,m,./images/BOILERHB.png,,,,,,,,,,,,,,,,,,,,,,
,,,,,,,,,,,,,,,,,198844,19,2022-01-28_23h05.41.196,lexical_decision_task_DD_L5,2021.2.3,Win32,59.98440405,,,,,,,,,,,3.252,1,,,,,,,,,,,,,,z,1,3.252,,,,,,,,0.002777804,-0.283333357,0,0,0,,0,131,131,120,1,RINED,C,old,z,./images/RINED.png,,,,,,,,,,,,,,,,,,,,,,
,,,,,,,,,,,,,,,,,198844,19,2022-01-28_23h05.41.196,lexical_decision_task_DD_L5,2021.2.3,Win32,59.98440405,,,,,,,,,,,1.6895,1,,,,,,,,,,,,,,z,1,1.6895,,,,,,,,0.002777804,-0.283333357,0,0,0,,0,132,132,106,1,CLUMS,HB,old,z,./images/CLUMSHB.png,,,,,,,,,,,,,,,,,,,,,,
,,,,,,,,,,,,,,,,,198844,19,2022-01-28_23h05.41.196,lexical_decision_task_DD_L5,2021.2.3,Win32,59.98440405,,,,,,,,,,,0.921,1,,,,,,,,,,,,,,m,1,0.921,,,,,,,,0.002777804,-0.283333357,0,0,0,,0,133,133,79,1,RULER,LB,old,m,./images/RULERLB.png,,,,,,,,,,,,,,,,,,,,,,
,,,,,,,,,,,,,,,,,198844,19,2022-01-28_23h05.41.196,lexical_decision_task_DD_L5,2021.2.3,Win32,59.98440405,,,,,,,,,,,0.5649,0,,,,,,,,,,,,,,m,0,0.5649,,,,,,,,0.002777804,-0.283333357,0,0,0,,0,134,134,87,1,TRING,C,old,z,./images/TRING.png,,,,,,,,,,,,,,,,,,,,,,
,,,,,,,,,,,,,,,,,198844,19,2022-01-28_23h05.41.196,lexical_decision_task_DD_L5,2021.2.3,Win32,59.98440405,,,,,,,,,,,0.5158,1,,,,,,,,,,,,,,m,1,0.5158,,,,,,,,0.002777804,-0.283333357,0,0,0,,0,135,135,34,1,RAZOR,LB,old,m,./images/RAZORLB.png,,,,,,,,,,,,,,,,,,,,,,
,,,,,,,,,,,,,,,,,198844,19,2022-01-28_23h05.41.196,lexical_decision_task_DD_L5,2021.2.3,Win32,59.98440405,,,,,,,,,,,0.6542,1,,,,,,,,,,,,,,m,1,0.6542,,,,,,,,0.002777804,-0.283333357,0,0,0,,0,136,136,20,1,GRANNY,C,old,m,./images/GRANNY.png,,,,,,,,,,,,,,,,,,,,,,
,,,,,,,,,,,,,,,,,198844,19,2022-01-28_23h05.41.196,lexical_decision_task_DD_L5,2021.2.3,Win32,59.98440405,,,,,,,,,,,0.6038,1,,,,,,,,,,,,,,m,1,0.6038,,,,,,,,0.002777804,-0.283333357,0,0,0,,0,137,137,73,1,GLOVE,LB,old,m,./images/GLOVELB.png,,,,,,,,,,,,,,,,,,,,,,
,,,,,,,,,,,,,,,,,198844,19,2022-01-28_23h05.41.196,lexical_decision_task_DD_L5,2021.2.3,Win32,59.98440405,,,,,,,,,,,0.5488,1,,,,,,,,,,,,,,m,1,0.5488,,,,,,,,0.002777804,-0.283333357,0,0,0,,0,138,138,67,1,POKER,LB,old,m,./images/POKERLB.png,,,,,,,,,,,,,,,,,,,,,,
,,,,,,,,,,,,,,,,,198844,19,2022-01-28_23h05.41.196,lexical_decision_task_DD_L5,2021.2.3,Win32,59.98440405,,,,,,,,,,,0.5959,1,,,,,,,,,,,,,,m,1,0.5959,,,,,,,,0.002777804,-0.283333357,0,0,0,,0,139,139,28,1,CASINO,LB,old,m,./images/CASINOLB.png,,,,,,,,,,,,,,,,,,,,,,
,,,,,,,,,,,,,,,,,198844,19,2022-01-28_23h05.41.196,lexical_decision_task_DD_L5,2021.2.3,Win32,59.98440405,,,,,,,,,,,0.7816,1,,,,,,,,,,,,,,m,1,0.7816,,,,,,,,0.002777804,-0.283333357,0,0,0,,0,140,140,42,1,CHAIN,HB,old,m,./images/CHAINHB.png,,,,,,,,,,,,,,,,,,,,,,
,,,,,,,,,,,,,,,,,198844,19,2022-01-28_23h05.41.196,lexical_decision_task_DD_L5,2021.2.3,Win32,59.98440405,,,,,,,,,,,0.5719,1,,,,,,,,,,,,,,m,1,0.5719,,,,,,,,0.002777804,-0.283333357,0,0,0,,0,141,141,23,1,CLOTH,C,old,m,./images/CLOTH.png,,,,,,,,,,,,,,,,,,,,,,
,,,,,,,,,,,,,,,,,198844,19,2022-01-28_23h05.41.196,lexical_decision_task_DD_L5,2021.2.3,Win32,59.98440405,,,,,,,,,,,0.5787,1,,,,,,,,,,,,,,m,1,0.5787,,,,,,,,0.002777804,-0.283333357,0,0,0,,0,142,142,62,1,MAMMAL,C,old,m,./images/MAMMAL.png,,,,,,,,,,,,,,,,,,,,,,
,,,,,,,,,,,,,,,,,198844,19,2022-01-28_23h05.41.196,lexical_decision_task_DD_L5,2021.2.3,Win32,59.98440405,,,,,,,,,,,1.5274,1,,,,,,,,,,,,,,z,1,1.5274,,,,,,,,0.002777804,-0.283333357,0,0,0,,0,143,143,127,1,NINDY,HB,old,z,./images/NINDYHB.png,,,,,,,,,,,,,,,,,,,,,,
,,,,,,,,,,,,,,,,,198844,19,2022-01-28_23h05.41.196,lexical_decision_task_DD_L5,2021.2.3,Win32,59.98440405,,,,,,,,,,,1.4894,1,,,,,,,,,,,,,,z,1,1.4894,,,,,,,,0.002777804,-0.283333357,0,0,0,,0,144,144,93,1,SMONE,C,old,z,./images/SMONE.png,,,,,,,,,,,,,,,,,,,,,,
,,,,,,,,,,,,,,,,,198844,19,2022-01-28_23h05.41.196,lexical_decision_task_DD_L5,2021.2.3,Win32,59.98440405,,,,,,,,,,,0.6715,1,,,,,,,,,,,,,,z,1,0.6715,,,,,,,,0.002777804,-0.283333357,0,0,0,,0,145,145,114,1,RIKES,C,old,z,./images/RIKES.png,,,,,,,,,,,,,,,,,,,,,,
,,,,,,,,,,,,,,,,,198844,19,2022-01-28_23h05.41.196,lexical_decision_task_DD_L5,2021.2.3,Win32,59.98440405,,,,,,,,,,,0.6322,1,,,,,,,,,,,,,,z,1,0.6322,,,,,,,,0.002777804,-0.283333357,0,0,0,,0,146,146,167,1,ZONET,LB,old,z,./images/ZONETLB.png,,,,,,,,,,,,,,,,,,,,,,
,,,,,,,,,,,,,,,,,198844,19,2022-01-28_23h05.41.196,lexical_decision_task_DD_L5,2021.2.3,Win32,59.98440405,,,,,,,,,,,0.6482,1,,,,,,,,,,,,,,z,1,0.6482,,,,,,,,0.002777804,-0.283333357,0,0,0,,0,147,147,110,1,CRUNK,LB,old,z,./images/CRUNKLB.png,,,,,,,,,,,,,,,,,,,,,,
,,,,,,,,,,,,,,,,,198844,19,2022-01-28_23h05.41.196,lexical_decision_task_DD_L5,2021.2.3,Win32,59.98440405,,,,,,,,,,,0.5374,0,,,,,,,,,,,,,,z,0,0.5374,,,,,,,,0.002777804,-0.283333357,0,0,0,,0,148,148,69,1,ARROW,HB,old,m,./images/ARROWHB.png,,,,,,,,,,,,,,,,,,,,,,
,,,,,,,,,,,,,,,,,198844,19,2022-01-28_23h05.41.196,lexical_decision_task_DD_L5,2021.2.3,Win32,59.98440405,,,,,,,,,,,1.072,0,,,,,,,,,,,,,,m,0,1.072,,,,,,,,0.002777804,-0.283333357,0,0,0,,0,149,149,142,1,PLASK,HB,old,z,./images/PLASKHB.png,,,,,,,,,,,,,,,,,,,,,,
,,,,,,,,,,,,,,,,,198844,19,2022-01-28_23h05.41.196,lexical_decision_task_DD_L5,2021.2.3,Win32,59.98440405,,,,,,,,,,,0.5023,1,,,,,,,,,,,,,,m,1,0.5023,,,,,,,,0.002777804,-0.283333357,0,0,0,,0,150,150,22,1,CLOWN,LB,old,m,./images/CLOWNLB.png,,,,,,,,,,,,,,,,,,,,,,
,,,,,,,,,,,,,,,,,198844,19,2022-01-28_23h05.41.196,lexical_decision_task_DD_L5,2021.2.3,Win32,59.98440405,,,,,,,,,,,0.8487,1,,,,,,,,,,,,,,z,1,0.8487,,,,,,,,0.002777804,-0.283333357,0,0,0,,0,151,151,150,1,NOOLS,C,old,z,./images/NOOLS.png,,,,,,,,,,,,,,,,,,,,,,
,,,,,,,,,,,,,,,,,198844,19,2022-01-28_23h05.41.196,lexical_decision_task_DD_L5,2021.2.3,Win32,59.98440405,,,,,,,,,,,0.6324,1,,,,,,,,,,,,,,z,1,0.6324,,,,,,,,0.002777804,-0.283333357,0,0,0,,0,152,152,108,1,GRUET,C,old,z,./images/GRUET.png,,,,,,,,,,,,,,,,,,,,,,
,,,,,,,,,,,,,,,,,198844,19,2022-01-28_23h05.41.196,lexical_decision_task_DD_L5,2021.2.3,Win32,59.98440405,,,,,,,,,,,0.544,1,,,,,,,,,,,,,,m,1,0.544,,,,,,,,0.002777804,-0.283333357,0,0,0,,0,153,153,80,1,PLANET,C,old,m,./images/PLANET.png,,,,,,,,,,,,,,,,,,,,,,
,,,,,,,,,,,,,,,,,198844,19,2022-01-28_23h05.41.196,lexical_decision_task_DD_L5,2021.2.3,Win32,59.98440405,,,,,,,,,,,0.5583,1,,,,,,,,,,,,,,m,1,0.5583,,,,,,,,0.002777804,-0.283333357,0,0,0,,0,154,154,43,1,STOOL,LB,old,m,./images/STOOLLB.png,,,,,,,,,,,,,,,,,,,,,,
,,,,,,,,,,,,,,,,,198844,19,2022-01-28_23h05.41.196,lexical_decision_task_DD_L5,2021.2.3,Win32,59.98440405,,,,,,,,,,,0.8329,1,,,,,,,,,,,,,,m,1,0.8329,,,,,,,,0.002777804,-0.283333357,0,0,0,,0,155,155,6,1,STAIN,HB,old,m,./images/STAINHB.png,,,,,,,,,,,,,,,,,,,,,,
,,,,,,,,,,,,,,,,,198844,19,2022-01-28_23h05.41.196,lexical_decision_task_DD_L5,2021.2.3,Win32,59.98440405,,,,,,,,,,,0.501,1,,,,,,,,,,,,,,m,1,0.501,,,,,,,,0.002777804,-0.283333357,0,0,0,,0,156,156,61,1,ARTIST,LB,old,m,./images/ARTISTLB.png,,,,,,,,,,,,,,,,,,,,,,
,,,,,,,,,,,,,,,,,198844,19,2022-01-28_23h05.41.196,lexical_decision_task_DD_L5,2021.2.3,Win32,59.98440405,,,,,,,,,,,1.3172,1,,,,,,,,,,,,,,z,1,1.3172,,,,,,,,0.002777804,-0.283333357,0,0,0,,0,157,157,100,1,DRIBS,HB,old,z,./images/DRIBSHB.png,,,,,,,,,,,,,,,,,,,,,,
,,,,,,,,,,,,,,,,,198844,19,2022-01-28_23h05.41.196,lexical_decision_task_DD_L5,2021.2.3,Win32,59.98440405,,,,,,,,,,,0.6954,1,,,,,,,,,,,,,,m,1,0.6954,,,,,,,,0.002777804,-0.283333357,0,0,0,,0,158,158,76,1,MIDGET,LB,old,m,./images/MIDGETLB.png,,,,,,,,,,,,,,,,,,,,,,
,,,,,,,,,,,,,,,,,198844,19,2022-01-28_23h05.41.196,lexical_decision_task_DD_L5,2021.2.3,Win32,59.98440405,,,,,,,,,,,3.0163,1,,,,,,,,,,,,,,m,1,3.0163,,,,,,,,0.002777804,-0.283333357,0,0,0,,0,159,159,1,1,TOWEL,LB,old,m,./images/TOWELLB.png,,,,,,,,,,,,,,,,,,,,,,
,,,,,,,,,,,,,,,,,198844,19,2022-01-28_23h05.41.196,lexical_decision_task_DD_L5,2021.2.3,Win32,59.98440405,,,,,,,,,,,1.196,1,,,,,,,,,,,,,,z,1,1.196,,,,,,,,0.002777804,-0.283333357,0,0,0,,0,160,160,115,1,MAWNS,HB,old,z,./images/MAWNSHB.png,,,,,,,,,,,,,,,,,,,,,,
,,,,,,,,,,,,,,,,,198844,19,2022-01-28_23h05.41.196,lexical_decision_task_DD_L5,2021.2.3,Win32,59.98440405,,,,,,,,,,,1.1147,1,,,,,,,,,,,,,,m,1,1.1147,,,,,,,,0.002777804,-0.283333357,0,0,0,,0,161,161,16,1,GRAPE,LB,old,m,./images/GRAPELB.png,,,,,,,,,,,,,,,,,,,,,,
,,,,,,,,,,,,,,,,,198844,19,2022-01-28_23h05.41.196,lexical_decision_task_DD_L5,2021.2.3,Win32,59.98440405,,,,,,,,,,,0.5921,1,,,,,,,,,,,,,,z,1,0.5921,,,,,,,,0.002777804,-0.283333357,0,0,0,,0,162,162,132,1,SCIFF,C,old,z,./images/SCIFF.png,,,,,,,,,,,,,,,,,,,,,,
,,,,,,,,,,,,,,,,,198844,19,2022-01-28_23h05.41.196,lexical_decision_task_DD_L5,2021.2.3,Win32,59.98440405,,,,,,,,,,,0.482,1,,,,,,,,,,,,,,m,1,0.482,,,,,,,,0.002777804,-0.283333357,0,0,0,,0,163,163,55,1,ALLEY,LB,old,m,./images/ALLEYLB.png,,,,,,,,,,,,,,,,,,,,,,
,,,,,,,,,,,,,,,,,198844,19,2022-01-28_23h05.41.196,lexical_decision_task_DD_L5,2021.2.3,Win32,59.98440405,,,,,,,,,,,0.5353,1,,,,,,,,,,,,,,z,1,0.5353,,,,,,,,0.002777804,-0.283333357,0,0,0,,0,164,164,122,1,BLOOT,LB,old,z,./images/BLOOTLB.png,,,,,,,,,,,,,,,,,,,,,,
,,,,,,,,,,,,,,,,,198844,19,2022-01-28_23h05.41.196,lexical_decision_task_DD_L5,2021.2.3,Win32,59.98440405,,,,,,,,,,,0.7978,1,,,,,,,,,,,,,,m,1,0.7978,,,,,,,,0.002777804,-0.283333357,0,0,0,,0,165,165,83,1,WHISKY,C,old,m,./images/WHISKY.png,,,,,,,,,,,,,,,,,,,,,,
,,,,,,,,,,,,,,,,,198844,19,2022-01-28_23h05.41.196,lexical_decision_task_DD_L5,2021.2.3,Win32,59.98440405,,,,,,,,,,,2.0186,1,,,,,,,,,,,,,,z,1,2.0186,,,,,,,,0.002777804,-0.283333357,0,0,0,,0,166,166,159,1,CUDDY,C,old,z,./images/CUDDY.png,,,,,,,,,,,,,,,,,,,,,,
,,,,,,,,,,,,,,,,,198844,19,2022-01-28_23h05.41.196,lexical_decision_task_DD_L5,2021.2.3,Win32,59.98440405,,,,,,,,,,,0.8482,1,,,,,,,,,,,,,,z,1,0.8482,,,,,,,,0.002777804,-0.283333357,0,0,0,,0,167,167,136,1,WERVE,HB,old,z,./images/WERVEHB.png,,,,,,,,,,,,,,,,,,,,,,
space,40.1696,0.002777804,-0.283333357,0,0,0,,,,,,1,test,"In the next phase you will be presented with the words from the the first phase. Your job is to decide whether you remember seeing the word or not. If you remember seeing the word press ""old"" or type ""m"". If you do not remember seeing the word press ""new"" or type ""z"". Please press the space bar or click on continue to begin. ",,,198844,19,2022-01-28_23h05.41.196,lexical_decision_task_DD_L5,2021.2.3,Win32,59.98440405,,,,,,,,,,,,,,,,,,,,,,,,,,,,,,,,,,,,,,,,,,,,,,,,,,,,,0,0,0,0,1,,,,,,,,,,,,,,,,
space,1.4283,0.002777804,-0.283333357,0,0,0,,,,,,1,test,"In the next phase you will be presented with the words from the the first phase. Your job is to decide whether you remember seeing the word or not. If you remember seeing the word press ""old"" or type ""m"". If you do not remember seeing the word press ""new"" or type ""z"". Please press the space bar or click on continue to begin. ",,,198844,19,2022-01-28_23h05.41.196,lexical_decision_task_DD_L5,2021.2.3,Win32,59.98440405,,,,,,,,,,,,,,,,,,,,,,,,,,,,,,,,,,,,,,,,,,,,,,,,,,,,,1,0,1,0,1,,,,,,,,,,,,,,,,
,,-0.031481399,-0.390740824,1,0,0,,,,,,1,test,"In the next phase you will be presented with the words from the the first phase. Your job is to decide whether you remember seeing the word or not. If you remember seeing the word press ""old"" or type ""m"". If you do not remember seeing the word press ""new"" or type ""z"". Please press the space bar or click on continue to begin. ",,,198844,19,2022-01-28_23h05.41.196,lexical_decision_task_DD_L5,2021.2.3,Win32,59.98440405,,,,,,,,,,,,,,,,,,,,,,,,,,,,,,,,,,,,,,,,,,,,,,,,,,,,,2,0,2,0,1,instr_done_button,,,,,,,,,,,,,,,
space,2.051,0.160185216,-0.24814817,0,0,0,,,,,,1,test,"In the next phase you will be presented with the words from the the first phase. Your job is to decide whether you remember seeing the word or not. If you remember seeing the word press ""old"" or type ""m"". If you do not remember seeing the word press ""new"" or type ""z"". Please press the space bar or click on continue to begin. ",,,198844,19,2022-01-28_23h05.41.196,lexical_decision_task_DD_L5,2021.2.3,Win32,59.98440405,,,,,,,,,,,,,,,,,,,,,,,,,,,,,,,,,,,,,,,,,,,,,,,,,,,,,3,0,3,0,1,,,,,,,,,,,,,,,,
space,0.1677,0.160185216,-0.24814817,0,0,0,,,,,,1,test,"In the next phase you will be presented with the words from the the first phase. Your job is to decide whether you remember seeing the word or not. If you remember seeing the word press ""old"" or type ""m"". If you do not remember seeing the word press ""new"" or type ""z"". Please press the space bar or click on continue to begin. ",,,198844,19,2022-01-28_23h05.41.196,lexical_decision_task_DD_L5,2021.2.3,Win32,59.98440405,,,,,,,,,,,,,,,,,,,,,,,,,,,,,,,,,,,,,,,,,,,,,,,,,,,,,4,0,4,0,1,,,,,,,,,,,,,,,,
,,,,,,,,,,,,,,,,,198844,19,2022-01-28_23h05.41.196,lexical_decision_task_DD_L5,2021.2.3,Win32,59.98440405,,,,,,,,,,,3.7246,1,,,,,,,,,,,,,,,,,,,,,,,,0.160185216,-0.24814817,0,0,0,,,,,,,MOSQUE,LB,z,y,./images/MOSQUELB.png,,,,,,,,z,1,3.7246,,,,,,,,0,0,0,127,1
,,,,,,,,,,,,,,,,,198844,19,2022-01-28_23h05.41.196,lexical_decision_task_DD_L5,2021.2.3,Win32,59.98440405,,,,,,,,,,,1.735,1,,,,,,,,,,,,,,,,,,,,,,,,0.160185216,-0.24814817,0,0,0,,,,,,,STOOL,LB,m,y,./images/STOOLLB.png,,,,,,,,m,1,1.735,,,,,,,,0,1,1,43,1
,,,,,,,,,,,,,,,,,198844,19,2022-01-28_23h05.41.196,lexical_decision_task_DD_L5,2021.2.3,Win32,59.98440405,,,,,,,,,,,0.8289,0,,,,,,,,,,,,,,,,,,,,,,,,0.160185216,-0.24814817,0,0,0,,,,,,,HEATER,C,m,y,./images/HEATER.png,,,,,,,,z,0,0.8289,,,,,,,,0,2,2,56,1
,,,,,,,,,,,,,,,,,198844,19,2022-01-28_23h05.41.196,lexical_decision_task_DD_L5,2021.2.3,Win32,59.98440405,,,,,,,,,,,0.7195,1,,,,,,,,,,,,,,,,,,,,,,,,0.160185216,-0.24814817,0,0,0,,,,,,,SNAKE,LB,m,y,./images/SNAKELB.png,,,,,,,,m,1,0.7195,,,,,,,,0,3,3,40,1
,,,,,,,,,,,,,,,,,198844,19,2022-01-28_23h05.41.196,lexical_decision_task_DD_L5,2021.2.3,Win32,59.98440405,,,,,,,,,,,1.0297,1,,,,,,,,,,,,,,,,,,,,,,,,0.160185216,-0.24814817,0,0,0,,,,,,,TWINS,HB,z,y,./images/TWINSHB.png,,,,,,,,z,1,1.0297,,,,,,,,0,4,4,144,1
,,,,,,,,,,,,,,,,,198844,19,2022-01-28_23h05.41.196,lexical_decision_task_DD_L5,2021.2.3,Win32,59.98440405,,,,,,,,,,,0.6482,1,,,,,,,,,,,,,,,,,,,,,,,,0.160185216,-0.24814817,0,0,0,,,,,,,VALLEY,C,m,y,./images/VALLEY.png,,,,,,,,m,1,0.6482,,,,,,,,0,5,5,68,1
,,,,,,,,,,,,,,,,,198844,19,2022-01-28_23h05.41.196,lexical_decision_task_DD_L5,2021.2.3,Win32,59.98440405,,,,,,,,,,,0.918,1,,,,,,,,,,,,,,,,,,,,,,,,0.160185216,-0.24814817,0,0,0,,,,,,,BARREL,C,z,y,./images/BARREL.png,,,,,,,,z,1,0.918,,,,,,,,0,6,6,116,1
,,,,,,,,,,,,,,,,,198844,19,2022-01-28_23h05.41.196,lexical_decision_task_DD_L5,2021.2.3,Win32,59.98440405,,,,,,,,,,,0.9149,1,,,,,,,,,,,,,,,,,,,,,,,,0.160185216,-0.24814817,0,0,0,,,,,,,STREAM,C,m,y,./images/STREAM.png,,,,,,,,m,1,0.9149,,,,,,,,0,7,7,41,1
,,,,,,,,,,,,,,,,,198844,19,2022-01-28_23h05.41.196,lexical_decision_task_DD_L5,2021.2.3,Win32,59.98440405,,,,,,,,,,,1.072,1,,,,,,,,,,,,,,,,,,,,,,,,0.160185216,-0.24814817,0,0,0,,,,,,,BEARD,C,z,y,./images/BEARD.png,,,,,,,,z,1,1.072,,,,,,,,0,8,8,86,1
,,,,,,,,,,,,,,,,,198844,19,2022-01-28_23h05.41.196,lexical_decision_task_DD_L5,2021.2.3,Win32,59.98440405,,,,,,,,,,,0.6344,1,,,,,,,,,,,,,,,,,,,,,,,,0.160185216,-0.24814817,0,0,0,,,,,,,SAUNA,HB,m,y,./images/SAUNAHB.png,,,,,,,,m,1,0.6344,,,,,,,,0,9,9,33,1
,,,,,,,,,,,,,,,,,198844,19,2022-01-28_23h05.41.196,lexical_decision_task_DD_L5,2021.2.3,Win32,59.98440405,,,,,,,,,,,0.7021,1,,,,,,,,,,,,,,,,,,,,,,,,0.160185216,-0.24814817,0,0,0,,,,,,,FLESH,HB,m,y,./images/FLESHHB.png,,,,,,,,m,1,0.7021,,,,,,,,0,10,10,24,1
,,,,,,,,,,,,,,,,,198844,19,2022-01-28_23h05.41.196,lexical_decision_task_DD_L5,2021.2.3,Win32,59.98440405,,,,,,,,,,,0.837,1,,,,,,,,,,,,,,,,,,,,,,,,0.160185216,-0.24814817,0,0,0,,,,,,,BLOKE,HB,m,y,./images/BLOKEHB.png,,,,,,,,m,1,0.837,,,,,,,,0,11,11,12,1
,,,,,,,,,,,,,,,,,198844,19,2022-01-28_23h05.41.196,lexical_decision_task_DD_L5,2021.2.3,Win32,59.98440405,,,,,,,,,,,0.9883,1,,,,,,,,,,,,,,,,,,,,,,,,0.160185216,-0.24814817,0,0,0,,,,,,,STRING,C,z,y,./images/STRING.png,,,,,,,,z,1,0.9883,,,,,,,,0,12,12,125,1
,,,,,,,,,,,,,,,,,198844,19,2022-01-28_23h05.41.196,lexical_decision_task_DD_L5,2021.2.3,Win32,59.98440405,,,,,,,,,,,1.215,1,,,,,,,,,,,,,,,,,,,,,,,,0.160185216,-0.24814817,0,0,0,,,,,,,MIDGET,LB,m,y,./images/MIDGETLB.png,,,,,,,,m,1,1.215,,,,,,,,0,13,13,76,1
,,,,,,,,,,,,,,,,,198844,19,2022-01-28_23h05.41.196,lexical_decision_task_DD_L5,2021.2.3,Win32,59.98440405,,,,,,,,,,,1.399,1,,,,,,,,,,,,,,,,,,,,,,,,0.160185216,-0.24814817,0,0,0,,,,,,,BUNNY,LB,m,y,./images/BUNNYLB.png,,,,,,,,m,1,1.399,,,,,,,,0,14,14,13,1
,,,,,,,,,,,,,,,,,198844,19,2022-01-28_23h05.41.196,lexical_decision_task_DD_L5,2021.2.3,Win32,59.98440405,,,,,,,,,,,0.8907,0,,,,,,,,,,,,,,,,,,,,,,,,0.160185216,-0.24814817,0,0,0,,,,,,,PARCEL,HB,m,y,./images/PARCELHB.png,,,,,,,,z,0,0.8907,,,,,,,,0,15,15,18,1
,,,,,,,,,,,,,,,,,198844,19,2022-01-28_23h05.41.196,lexical_decision_task_DD_L5,2021.2.3,Win32,59.98440405,,,,,,,,,,,0.7878,1,,,,,,,,,,,,,,,,,,,,,,,,0.160185216,-0.24814817,0,0,0,,,,,,,BELLY,LB,z,y,./images/BELLYLB.png,,,,,,,,z,1,0.7878,,,,,,,,0,16,16,94,1
,,,,,,,,,,,,,,,,,198844,19,2022-01-28_23h05.41.196,lexical_decision_task_DD_L5,2021.2.3,Win32,59.98440405,,,,,,,,,,,0.774,1,,,,,,,,,,,,,,,,,,,,,,,,0.160185216,-0.24814817,0,0,0,,,,,,,RHINO,HB,z,y,./images/RHINOHB.png,,,,,,,,z,1,0.774,,,,,,,,0,17,17,93,1
,,,,,,,,,,,,,,,,,198844,19,2022-01-28_23h05.41.196,lexical_decision_task_DD_L5,2021.2.3,Win32,59.98440405,,,,,,,,,,,7.6988,1,,,,,,,,,,,,,,,,,,,,,,,,0.160185216,-0.24814817,0,0,0,,,,,,,STOVE,C,m,y,./images/STOVE.png,,,,,,,,m,1,7.6988,,,,,,,,0,18,18,2,1
,,,,,,,,,,,,,,,,,198844,19,2022-01-28_23h05.41.196,lexical_decision_task_DD_L5,2021.2.3,Win32,59.98440405,,,,,,,,,,,0.8216,1,,,,,,,,,,,,,,,,,,,,,,,,0.160185216,-0.24814817,0,0,0,,,,,,,GRAIN,HB,z,y,./images/GRAINHB.png,,,,,,,,z,1,0.8216,,,,,,,,0,19,19,159,1
,,,,,,,,,,,,,,,,,198844,19,2022-01-28_23h05.41.196,lexical_decision_task_DD_L5,2021.2.3,Win32,59.98440405,,,,,,,,,,,0.8178,0,,,,,,,,,,,,,,,,,,,,,,,,0.160185216,-0.24814817,0,0,0,,,,,,,MOOSE,HB,z,y,./images/MOOSEHB.png,,,,,,,,m,0,0.8178,,,,,,,,0,20,20,141,1
,,,,,,,,,,,,,,,,,198844,19,2022-01-28_23h05.41.196,lexical_decision_task_DD_L5,2021.2.3,Win32,59.98440405,,,,,,,,,,,0.7833,1,,,,,,,,,,,,,,,,,,,,,,,,0.160185216,-0.24814817,0,0,0,,,,,,,BUBBLE,C,m,y,./images/BUBBLE.png,,,,,,,,m,1,0.7833,,,,,,,,0,21,21,71,1
,,,,,,,,,,,,,,,,,198844,19,2022-01-28_23h05.41.196,lexical_decision_task_DD_L5,2021.2.3,Win32,59.98440405,,,,,,,,,,,2.4823,1,,,,,,,,,,,,,,,,,,,,,,,,0.160185216,-0.24814817,0,0,0,,,,,,,CURRY,HB,m,y,./images/CURRYHB.png,,,,,,,,m,1,2.4823,,,,,,,,0,22,22,60,1
,,,,,,,,,,,,,,,,,198844,19,2022-01-28_23h05.41.196,lexical_decision_task_DD_L5,2021.2.3,Win32,59.98440405,,,,,,,,,,,0.9847,1,,,,,,,,,,,,,,,,,,,,,,,,0.160185216,-0.24814817,0,0,0,,,,,,,CANDY,HB,m,y,./images/CANDYHB.png,,,,,,,,m,1,0.9847,,,,,,,,0,23,23,39,1
,,,,,,,,,,,,,,,,,198844,19,2022-01-28_23h05.41.196,lexical_decision_task_DD_L5,2021.2.3,Win32,59.98440405,,,,,,,,,,,1.883,1,,,,,,,,,,,,,,,,,,,,,,,,0.160185216,-0.24814817,0,0,0,,,,,,,ARROW,HB,m,y,./images/ARROWHB.png,,,,,,,,m,1,1.883,,,,,,,,0,24,24,69,1
,,,,,,,,,,,,,,,,,198844,19,2022-01-28_23h05.41.196,lexical_decision_task_DD_L5,2021.2.3,Win32,59.98440405,,,,,,,,,,,1.5589,0,,,,,,,,,,,,,,,,,,,,,,,,0.160185216,-0.24814817,0,0,0,,,,,,,BUTTER,HB,m,y,./images/BUTTERHB.png,,,,,,,,z,0,1.5589,,,,,,,,0,25,25,27,1
,,,,,,,,,,,,,,,,,198844,19,2022-01-28_23h05.41.196,lexical_decision_task_DD_L5,2021.2.3,Win32,59.98440405,,,,,,,,,,,0.8325,0,,,,,,,,,,,,,,,,,,,,,,,,0.160185216,-0.24814817,0,0,0,,,,,,,CANYON,LB,z,y,./images/CANYONLB.png,,,,,,,,m,0,0.8325,,,,,,,,0,26,26,118,1
,,,,,,,,,,,,,,,,,198844,19,2022-01-28_23h05.41.196,lexical_decision_task_DD_L5,2021.2.3,Win32,59.98440405,,,,,,,,,,,0.7021,1,,,,,,,,,,,,,,,,,,,,,,,,0.160185216,-0.24814817,0,0,0,,,,,,,GRANNY,C,m,y,./images/GRANNY.png,,,,,,,,m,1,0.7021,,,,,,,,0,27,27,20,1
,,,,,,,,,,,,,,,,,198844,19,2022-01-28_23h05.41.196,lexical_decision_task_DD_L5,2021.2.3,Win32,59.98440405,,,,,,,,,,,0.7717,1,,,,,,,,,,,,,,,,,,,,,,,,0.160185216,-0.24814817,0,0,0,,,,,,,TULIP,C,z,y,./images/TULIP.png,,,,,,,,z,1,0.7717,,,,,,,,0,28,28,92,1
,,,,,,,,,,,,,,,,,198844,19,2022-01-28_23h05.41.196,lexical_decision_task_DD_L5,2021.2.3,Win32,59.98440405,,,,,,,,,,,0.9662,1,,,,,,,,,,,,,,,,,,,,,,,,0.160185216,-0.24814817,0,0,0,,,,,,,SAILOR,LB,z,y,./images/SAILORLB.png,,,,,,,,z,1,0.9662,,,,,,,,0,29,29,151,1
,,,,,,,,,,,,,,,,,198844,19,2022-01-28_23h05.41.196,lexical_decision_task_DD_L5,2021.2.3,Win32,59.98440405,,,,,,,,,,,1.0549,1,,,,,,,,,,,,,,,,,,,,,,,,0.160185216,-0.24814817,0,0,0,,,,,,,TOWEL,LB,m,y,./images/TOWELLB.png,,,,,,,,m,1,1.0549,,,,,,,,0,30,30,1,1
,,,,,,,,,,,,,,,,,198844,19,2022-01-28_23h05.41.196,lexical_decision_task_DD_L5,2021.2.3,Win32,59.98440405,,,,,,,,,,,1.6729,1,,,,,,,,,,,,,,,,,,,,,,,,0.160185216,-0.24814817,0,0,0,,,,,,,PAINT,LB,z,y,./images/PAINTLB.png,,,,,,,,z,1,1.6729,,,,,,,,0,31,31,91,1
,,,,,,,,,,,,,,,,,198844,19,2022-01-28_23h05.41.196,lexical_decision_task_DD_L5,2021.2.3,Win32,59.98440405,,,,,,,,,,,1.3047,0,,,,,,,,,,,,,,,,,,,,,,,,0.160185216,-0.24814817,0,0,0,,,,,,,STORM,HB,z,y,./images/STORMHB.png,,,,,,,,m,0,1.3047,,,,,,,,0,32,32,114,1
,,,,,,,,,,,,,,,,,198844,19,2022-01-28_23h05.41.196,lexical_decision_task_DD_L5,2021.2.3,Win32,59.98440405,,,,,,,,,,,1.6996,1,,,,,,,,,,,,,,,,,,,,,,,,0.160185216,-0.24814817,0,0,0,,,,,,,BOILER,HB,m,y,./images/BOILERHB.png,,,,,,,,m,1,1.6996,,,,,,,,0,33,33,36,1
,,,,,,,,,,,,,,,,,198844,19,2022-01-28_23h05.41.196,lexical_decision_task_DD_L5,2021.2.3,Win32,59.98440405,,,,,,,,,,,2.0246,0,,,,,,,,,,,,,,,,,,,,,,,,0.160185216,-0.24814817,0,0,0,,,,,,,WALRUS,C,z,y,./images/WALRUS.png,,,,,,,,m,0,2.0246,,,,,,,,0,34,34,107,1
,,,,,,,,,,,,,,,,,198844,19,2022-01-28_23h05.41.196,lexical_decision_task_DD_L5,2021.2.3,Win32,59.98440405,,,,,,,,,,,1.0184,1,,,,,,,,,,,,,,,,,,,,,,,,0.160185216,-0.24814817,0,0,0,,,,,,,PLANET,C,m,y,./images/PLANET.png,,,,,,,,m,1,1.0184,,,,,,,,0,35,35,80,1
,,,,,,,,,,,,,,,,,198844,19,2022-01-28_23h05.41.196,lexical_decision_task_DD_L5,2021.2.3,Win32,59.98440405,,,,,,,,,,,1.734,1,,,,,,,,,,,,,,,,,,,,,,,,0.160185216,-0.24814817,0,0,0,,,,,,,RULER,LB,m,y,./images/RULERLB.png,,,,,,,,m,1,1.734,,,,,,,,0,36,36,79,1
,,,,,,,,,,,,,,,,,198844,19,2022-01-28_23h05.41.196,lexical_decision_task_DD_L5,2021.2.3,Win32,59.98440405,,,,,,,,,,,1.7427,1,,,,,,,,,,,,,,,,,,,,,,,,0.160185216,-0.24814817,0,0,0,,,,,,,WAGON,LB,m,y,./images/WAGONLB.png,,,,,,,,m,1,1.7427,,,,,,,,0,37,37,7,1
,,,,,,,,,,,,,,,,,198844,19,2022-01-28_23h05.41.196,lexical_decision_task_DD_L5,2021.2.3,Win32,59.98440405,,,,,,,,,,,3.4739,0,,,,,,,,,,,,,,,,,,,,,,,,0.160185216,-0.24814817,0,0,0,,,,,,,ATTIC,HB,z,y,./images/ATTICHB.png,,,,,,,,m,0,3.4739,,,,,,,,0,38,38,111,1
,,,,,,,,,,,,,,,,,198844,19,2022-01-28_23h05.41.196,lexical_decision_task_DD_L5,2021.2.3,Win32,59.98440405,,,,,,,,,,,0.7,1,,,,,,,,,,,,,,,,,,,,,,,,0.160185216,-0.24814817,0,0,0,,,,,,,BROOM,HB,m,y,./images/BROOMHB.png,,,,,,,,m,1,0.7,,,,,,,,0,39,39,78,1
,,,,,,,,,,,,,,,,,198844,19,2022-01-28_23h05.41.196,lexical_decision_task_DD_L5,2021.2.3,Win32,59.98440405,,,,,,,,,,,3.7037,1,,,,,,,,,,,,,,,,,,,,,,,,0.160185216,-0.24814817,0,0,0,,,,,,,FINGER,HB,z,y,./images/FINGERHB.png,,,,,,,,z,1,3.7037,,,,,,,,0,40,40,87,1
,,,,,,,,,,,,,,,,,198844,19,2022-01-28_23h05.41.196,lexical_decision_task_DD_L5,2021.2.3,Win32,59.98440405,,,,,,,,,,,0.8467,0,,,,,,,,,,,,,,,,,,,,,,,,0.160185216,-0.24814817,0,0,0,space,,,,,,MIRROR,HB,z,y,./images/MIRRORHB.png,101.9825,,,,,,,m,0,0.8467,,,,,,,,0,41,41,147,1
,,,,,,,,,,,,,,,,,198844,19,2022-01-28_23h05.41.196,lexical_decision_task_DD_L5,2021.2.3,Win32,59.98440405,,,,,,,,,,,1.217,0,,,,,,,,,,,,,,,,,,,,,,,,0.160185216,-0.24814817,0,0,0,,,,,,,BRUSH,C,m,y,./images/BRUSH.png,,,,,,,,z,0,1.217,,,,,,,,0,42,42,59,1
,,,,,,,,,,,,,,,,,198844,19,2022-01-28_23h05.41.196,lexical_decision_task_DD_L5,2021.2.3,Win32,59.98440405,,,,,,,,,,,1.2537,1,,,,,,,,,,,,,,,,,,,,,,,,0.160185216,-0.24814817,0,0,0,,,,,,,ALLEY,LB,m,y,./images/ALLEYLB.png,,,,,,,,m,1,1.2537,,,,,,,,0,43,43,55,1
,,,,,,,,,,,,,,,,,198844,19,2022-01-28_23h05.41.196,lexical_decision_task_DD_L5,2021.2.3,Win32,59.98440405,,,,,,,,,,,0.8247,1,,,,,,,,,,,,,,,,,,,,,,,,0.160185216,-0.24814817,0,0,0,,,,,,,FOLDER,HB,z,y,./images/FOLDERHB.png,,,,,,,,z,1,0.8247,,,,,,,,0,44,44,126,1
,,,,,,,,,,,,,,,,,198844,19,2022-01-28_23h05.41.196,lexical_decision_task_DD_L5,2021.2.3,Win32,59.98440405,,,,,,,,,,,1.3997,1,,,,,,,,,,,,,,,,,,,,,,,,0.160185216,-0.24814817,0,0,0,,,,,,,CHAIN,HB,m,y,./images/CHAINHB.png,,,,,,,,m,1,1.3997,,,,,,,,0,45,45,42,1
,,,,,,,,,,,,,,,,,198844,19,2022-01-28_23h05.41.196,lexical_decision_task_DD_L5,2021.2.3,Win32,59.98440405,,,,,,,,,,,1.2398,1,,,,,,,,,,,,,,,,,,,,,,,,0.160185216,-0.24814817,0,0,0,,,,,,,GLOVE,LB,m,y,./images/GLOVELB.png,,,,,,,,m,1,1.2398,,,,,,,,0,46,46,73,1
,,,,,,,,,,,,,,,,,198844,19,2022-01-28_23h05.41.196,lexical_decision_task_DD_L5,2021.2.3,Win32,59.98440405,,,,,,,,,,,4.1539,0,,,,,,,,,,,,,,,,,,,,,,,,0.160185216,-0.24814817,0,0,0,,,,,,,LADDER,C,z,y,./images/LADDER.png,,,,,,,,m,0,4.1539,,,,,,,,0,47,47,122,1
,,,,,,,,,,,,,,,,,198844,19,2022-01-28_23h05.41.196,lexical_decision_task_DD_L5,2021.2.3,Win32,59.98440405,,,,,,,,,,,1.2052,1,,,,,,,,,,,,,,,,,,,,,,,,0.160185216,-0.24814817,0,0,0,,,,,,,PICKLE,C,z,y,./images/PICKLE.png,,,,,,,,z,1,1.2052,,,,,,,,0,48,48,98,1
,,,,,,,,,,,,,,,,,198844,19,2022-01-28_23h05.41.196,lexical_decision_task_DD_L5,2021.2.3,Win32,59.98440405,,,,,,,,,,,1.9597,1,,,,,,,,,,,,,,,,,,,,,,,,0.160185216,-0.24814817,0,0,0,,,,,,,LITTER,HB,z,y,./images/LITTERHB.png,,,,,,,,z,1,1.9597,,,,,,,,0,49,49,162,1
,,,,,,,,,,,,,,,,,198844,19,2022-01-28_23h05.41.196,lexical_decision_task_DD_L5,2021.2.3,Win32,59.98440405,,,,,,,,,,,3.2867,1,,,,,,,,,,,,,,,,,,,,,,,,0.160185216,-0.24814817,0,0,0,,,,,,,BANNER,LB,z,y,./images/BANNERLB.png,,,,,,,,z,1,3.2867,,,,,,,,0,50,50,136,1
,,,,,,,,,,,,,,,,,198844,19,2022-01-28_23h05.41.196,lexical_decision_task_DD_L5,2021.2.3,Win32,59.98440405,,,,,,,,,,,5.5174,1,,,,,,,,,,,,,,,,,,,,,,,,0.160185216,-0.24814817,0,0,0,,,,,,,FLASK,HB,m,y,./images/FLASKHB.png,,,,,,,,m,1,5.5174,,,,,,,,0,51,51,72,1
,,,,,,,,,,,,,,,,,198844,19,2022-01-28_23h05.41.196,lexical_decision_task_DD_L5,2021.2.3,Win32,59.98440405,,,,,,,,,,,0.902,0,,,,,,,,,,,,,,,,,,,,,,,,0.160185216,-0.24814817,0,0,0,,,,,,,SCREW,HB,z,y,./images/SCREWHB.png,,,,,,,,m,0,0.902,,,,,,,,0,52,52,108,1
,,,,,,,,,,,,,,,,,198844,19,2022-01-28_23h05.41.196,lexical_decision_task_DD_L5,2021.2.3,Win32,59.98440405,,,,,,,,,,,0.9668,0,,,,,,,,,,,,,,,,,,,,,,,,0.160185216,-0.24814817,0,0,0,,,,,,,SWING,LB,z,y,./images/SWINGLB.png,,,,,,,,m,0,0.9668,,,,,,,,0,53,53,124,1
,,,,,,,,,,,,,,,,,198844,19,2022-01-28_23h05.41.196,lexical_decision_task_DD_L5,2021.2.3,Win32,59.98440405,,,,,,,,,,,1.0782,0,,,,,,,,,,,,,,,,,,,,,,,,0.160185216,-0.24814817,0,0,0,,,,,,,PLANK,LB,z,y,./images/PLANKLB.png,,,,,,,,m,0,1.0782,,,,,,,,0,54,54,85,1
,,,,,,,,,,,,,,,,,198844,19,2022-01-28_23h05.41.196,lexical_decision_task_DD_L5,2021.2.3,Win32,59.98440405,,,,,,,,,,,0.7673,1,,,,,,,,,,,,,,,,,,,,,,,,0.160185216,-0.24814817,0,0,0,,,,,,,DESERT,LB,m,y,./images/DESERTLB.png,,,,,,,,m,1,0.7673,,,,,,,,0,55,55,52,1
,,,,,,,,,,,,,,,,,198844,19,2022-01-28_23h05.41.196,lexical_decision_task_DD_L5,2021.2.3,Win32,59.98440405,,,,,,,,,,,0.6218,1,,,,,,,,,,,,,,,,,,,,,,,,0.160185216,-0.24814817,0,0,0,,,,,,,POKER,LB,m,y,./images/POKERLB.png,,,,,,,,m,1,0.6218,,,,,,,,0,56,56,67,1
,,,,,,,,,,,,,,,,,198844,19,2022-01-28_23h05.41.196,lexical_decision_task_DD_L5,2021.2.3,Win32,59.98440405,,,,,,,,,,,1.0352,1,,,,,,,,,,,,,,,,,,,,,,,,0.160185216,-0.24814817,0,0,0,,,,,,,CANOE,LB,m,y,./images/CANOELB.png,,,,,,,,m,1,1.0352,,,,,,,,0,57,57,58,1
,,,,,,,,,,,,,,,,,198844,19,2022-01-28_23h05.41.196,lexical_decision_task_DD_L5,2021.2.3,Win32,59.98440405,,,,,,,,,,,0.7487,1,,,,,,,,,,,,,,,,,,,,,,,,0.160185216,-0.24814817,0,0,0,,,,,,,STATUE,HB,m,y,./images/STATUEHB.png,,,,,,,,m,1,0.7487,,,,,,,,0,58,58,66,1
,,,,,,,,,,,,,,,,,198844,19,2022-01-28_23h05.41.196,lexical_decision_task_DD_L5,2021.2.3,Win32,59.98440405,,,,,,,,,,,0.9,1,,,,,,,,,,,,,,,,,,,,,,,,0.160185216,-0.24814817,0,0,0,,,,,,,JUNGLE,C,z,y,./images/JUNGLE.png,,,,,,,,z,1,0.9,,,,,,,,0,59,59,167,1
,,,,,,,,,,,,,,,,,198844,19,2022-01-28_23h05.41.196,lexical_decision_task_DD_L5,2021.2.3,Win32,59.98440405,,,,,,,,,,,0.6662,1,,,,,,,,,,,,,,,,,,,,,,,,0.160185216,-0.24814817,0,0,0,,,,,,,MUMMY,LB,m,y,./images/MUMMYLB.png,,,,,,,,m,1,0.6662,,,,,,,,0,60,60,46,1
,,,,,,,,,,,,,,,,,198844,19,2022-01-28_23h05.41.196,lexical_decision_task_DD_L5,2021.2.3,Win32,59.98440405,,,,,,,,,,,1.6,1,,,,,,,,,,,,,,,,,,,,,,,,0.160185216,-0.24814817,0,0,0,,,,,,,MUFFIN,LB,z,y,./images/MUFFINLB.png,,,,,,,,z,1,1.6,,,,,,,,0,61,61,139,1
,,,,,,,,,,,,,,,,,198844,19,2022-01-28_23h05.41.196,lexical_decision_task_DD_L5,2021.2.3,Win32,59.98440405,,,,,,,,,,,1.3482,1,,,,,,,,,,,,,,,,,,,,,,,,0.160185216,-0.24814817,0,0,0,,,,,,,COOKER,HB,z,y,./images/COOKERHB.png,,,,,,,,z,1,1.3482,,,,,,,,0,62,62,153,1
,,,,,,,,,,,,,,,,,198844,19,2022-01-28_23h05.41.196,lexical_decision_task_DD_L5,2021.2.3,Win32,59.98440405,,,,,,,,,,,1.0019,1,,,,,,,,,,,,,,,,,,,,,,,,0.160185216,-0.24814817,0,0,0,,,,,,,POSTER,C,m,y,./images/POSTER.png,,,,,,,,m,1,1.0019,,,,,,,,0,63,63,53,1
,,,,,,,,,,,,,,,,,198844,19,2022-01-28_23h05.41.196,lexical_decision_task_DD_L5,2021.2.3,Win32,59.98440405,,,,,,,,,,,0.7752,1,,,,,,,,,,,,,,,,,,,,,,,,0.160185216,-0.24814817,0,0,0,,,,,,,ONION,HB,z,y,./images/ONIONHB.png,,,,,,,,z,1,0.7752,,,,,,,,0,64,64,135,1
,,,,,,,,,,,,,,,,,198844,19,2022-01-28_23h05.41.196,lexical_decision_task_DD_L5,2021.2.3,Win32,59.98440405,,,,,,,,,,,1.8664,1,,,,,,,,,,,,,,,,,,,,,,,,0.160185216,-0.24814817,0,0,0,,,,,,,SLOPE,HB,m,y,./images/SLOPEHB.png,,,,,,,,m,1,1.8664,,,,,,,,0,65,65,30,1
,,,,,,,,,,,,,,,,,198844,19,2022-01-28_23h05.41.196,lexical_decision_task_DD_L5,2021.2.3,Win32,59.98440405,,,,,,,,,,,3.0899,0,,,,,,,,,,,,,,,,,,,,,,,,0.160185216,-0.24814817,0,0,0,,,,,,,BRIDE,LB,m,y,./images/BRIDELB.png,,,,,,,,z,0,3.0899,,,,,,,,0,66,66,64,1
,,,,,,,,,,,,,,,,,198844,19,2022-01-28_23h05.41.196,lexical_decision_task_DD_L5,2021.2.3,Win32,59.98440405,,,,,,,,,,,1.6364,1,,,,,,,,,,,,,,,,,,,,,,,,0.160185216,-0.24814817,0,0,0,,,,,,,MAGGOT,HB,z,y,./images/MAGGOTHB.png,,,,,,,,z,1,1.6364,,,,,,,,0,67,67,117,1
,,,,,,,,,,,,,,,,,198844,19,2022-01-28_23h05.41.196,lexical_decision_task_DD_L5,2021.2.3,Win32,59.98440405,,,,,,,,,,,1.4037,1,,,,,,,,,,,,,,,,,,,,,,,,0.160185216,-0.24814817,0,0,0,,,,,,,CLOTH,C,m,y,./images/CLOTH.png,,,,,,,,m,1,1.4037,,,,,,,,0,68,68,23,1
,,,,,,,,,,,,,,,,,198844,19,2022-01-28_23h05.41.196,lexical_decision_task_DD_L5,2021.2.3,Win32,59.98440405,,,,,,,,,,,6.2334,1,,,,,,,,,,,,,,,,,,,,,,,,0.160185216,-0.24814817,0,0,0,,,,,,,FALCON,LB,z,y,./images/FALCONLB.png,,,,,,,,z,1,6.2334,,,,,,,,0,69,69,112,1
,,,,,,,,,,,,,,,,,198844,19,2022-01-28_23h05.41.196,lexical_decision_task_DD_L5,2021.2.3,Win32,59.98440405,,,,,,,,,,,0.8779,1,,,,,,,,,,,,,,,,,,,,,,,,0.160185216,-0.24814817,0,0,0,,,,,,,BISHOP,LB,m,y,./images/BISHOPLB.png,,,,,,,,m,1,0.8779,,,,,,,,0,70,70,49,1
,,,,,,,,,,,,,,,,,198844,19,2022-01-28_23h05.41.196,lexical_decision_task_DD_L5,2021.2.3,Win32,59.98440405,,,,,,,,,,,7.0081,0,,,,,,,,,,,,,,,,,,,,,,,,0.160185216,-0.24814817,0,0,0,,,,,,,MELON,LB,z,y,./images/MELONLB.png,,,,,,,,m,0,7.0081,,,,,,,,0,71,71,106,1
,,,,,,,,,,,,,,,,,198844,19,2022-01-28_23h05.41.196,lexical_decision_task_DD_L5,2021.2.3,Win32,59.98440405,,,,,,,,,,,2.7432,1,,,,,,,,,,,,,,,,,,,,,,,,0.160185216,-0.24814817,0,0,0,,,,,,,WHISKY,C,m,y,./images/WHISKY.png,,,,,,,,m,1,2.7432,,,,,,,,0,72,72,83,1
,,,,,,,,,,,,,,,,,198844,19,2022-01-28_23h05.41.196,lexical_decision_task_DD_L5,2021.2.3,Win32,59.98440405,,,,,,,,,,,7.4004,1,,,,,,,,,,,,,,,,,,,,,,,,0.160185216,-0.24814817,0,0,0,,,,,,,PENCE,LB,z,y,./images/PENCELB.png,,,,,,,,z,1,7.4004,,,,,,,,0,73,73,100,1
,,,,,,,,,,,,,,,,,198844,19,2022-01-28_23h05.41.196,lexical_decision_task_DD_L5,2021.2.3,Win32,59.98440405,,,,,,,,,,,1.8333,1,,,,,,,,,,,,,,,,,,,,,,,,0.160185216,-0.24814817,0,0,0,,,,,,,ENGINE,C,m,y,./images/ENGINE.png,,,,,,,,m,1,1.8333,,,,,,,,0,74,74,38,1
,,,,,,,,,,,,,,,,,198844,19,2022-01-28_23h05.41.196,lexical_decision_task_DD_L5,2021.2.3,Win32,59.98440405,,,,,,,,,,,0.783,1,,,,,,,,,,,,,,,,,,,,,,,,0.160185216,-0.24814817,0,0,0,,,,,,,URINE,LB,z,y,./images/URINELB.png,,,,,,,,z,1,0.783,,,,,,,,0,75,75,154,1
,,,,,,,,,,,,,,,,,198844,19,2022-01-28_23h05.41.196,lexical_decision_task_DD_L5,2021.2.3,Win32,59.98440405,,,,,,,,,,,0.7446,1,,,,,,,,,,,,,,,,,,,,,,,,0.160185216,-0.24814817,0,0,0,,,,,,,STEAK,LB,m,y,./images/STEAKLB.png,,,,,,,,m,1,0.7446,,,,,,,,0,76,76,31,1
,,,,,,,,,,,,,,,,,198844,19,2022-01-28_23h05.41.196,lexical_decision_task_DD_L5,2021.2.3,Win32,59.98440405,,,,,,,,,,,0.6337,1,,,,,,,,,,,,,,,,,,,,,,,,0.160185216,-0.24814817,0,0,0,,,,,,,CHALK,LB,m,y,./images/CHALKLB.png,,,,,,,,m,1,0.6337,,,,,,,,0,77,77,25,1
,,,,,,,,,,,,,,,,,198844,19,2022-01-28_23h05.41.196,lexical_decision_task_DD_L5,2021.2.3,Win32,59.98440405,,,,,,,,,,,0.9,1,,,,,,,,,,,,,,,,,,,,,,,,0.160185216,-0.24814817,0,0,0,,,,,,,BAKER,HB,m,y,./images/BAKERHB.png,,,,,,,,m,1,0.9,,,,,,,,0,78,78,63,1
,,,,,,,,,,,,,,,,,198844,19,2022-01-28_23h05.41.196,lexical_decision_task_DD_L5,2021.2.3,Win32,59.98440405,,,,,,,,,,,2.1527,1,,,,,,,,,,,,,,,,,,,,,,,,0.160185216,-0.24814817,0,0,0,,,,,,,QUILL,LB,z,y,./images/QUILLLB.png,,,,,,,,z,1,2.1527,,,,,,,,0,79,79,115,1
,,,,,,,,,,,,,,,,,198844,19,2022-01-28_23h05.41.196,lexical_decision_task_DD_L5,2021.2.3,Win32,59.98440405,,,,,,,,,,,1.693,1,,,,,,,,,,,,,,,,,,,,,,,,0.160185216,-0.24814817,0,0,0,,,,,,,JUMPER,C,m,y,./images/JUMPER.png,,,,,,,,m,1,1.693,,,,,,,,0,80,80,74,1
,,,,,,,,,,,,,,,,,198844,19,2022-01-28_23h05.41.196,lexical_decision_task_DD_L5,2021.2.3,Win32,59.98440405,,,,,,,,,,,0.8845,1,,,,,,,,,,,,,,,,,,,,,,,,0.160185216,-0.24814817,0,0,0,,,,,,,SPORT,HB,z,y,./images/SPORTHB.png,,,,,,,,z,1,0.8845,,,,,,,,0,81,81,132,1
,,,,,,,,,,,,,,,,,198844,19,2022-01-28_23h05.41.196,lexical_decision_task_DD_L5,2021.2.3,Win32,59.98440405,,,,,,,,,,,0.7672,0,,,,,,,,,,,,,,,,,,,,,,,,0.160185216,-0.24814817,0,0,0,,,,,,,BIRTH,LB,z,y,./images/BIRTHLB.png,,,,,,,,m,0,0.7672,,,,,,,,0,82,82,121,1
,,,,,,,,,,,,,,,,,198844,19,2022-01-28_23h05.41.196,lexical_decision_task_DD_L5,2021.2.3,Win32,59.98440405,,,,,,,,,,,0.8041,1,,,,,,,,,,,,,,,,,,,,,,,,0.160185216,-0.24814817,0,0,0,space,,,,,,BOXER,LB,m,y,./images/BOXERLB.png,0.7238,,,,,,,m,1,0.8041,,,,,,,,0,83,83,4,1
,,,,,,,,,,,,,,,,,198844,19,2022-01-28_23h05.41.196,lexical_decision_task_DD_L5,2021.2.3,Win32,59.98440405,,,,,,,,,,,0.7503,0,,,,,,,,,,,,,,,,,,,,,,,,0.160185216,-0.24814817,0,0,0,,,,,,,ARTIST,LB,m,y,./images/ARTISTLB.png,,,,,,,,z,0,0.7503,,,,,,,,0,84,84,61,1
,,,,,,,,,,,,,,,,,198844,19,2022-01-28_23h05.41.196,lexical_decision_task_DD_L5,2021.2.3,Win32,59.98440405,,,,,,,,,,,0.6332,1,,,,,,,,,,,,,,,,,,,,,,,,0.160185216,-0.24814817,0,0,0,,,,,,,FERRY,HB,m,y,./images/FERRYHB.png,,,,,,,,m,1,0.6332,,,,,,,,0,85,85,57,1
,,,,,,,,,,,,,,,,,198844,19,2022-01-28_23h05.41.196,lexical_decision_task_DD_L5,2021.2.3,Win32,59.98440405,,,,,,,,,,,0.5888,1,,,,,,,,,,,,,,,,,,,,,,,,0.160185216,-0.24814817,0,0,0,,,,,,,POODLE,HB,z,y,./images/POODLEHB.png,,,,,,,,z,1,0.5888,,,,,,,,0,86,86,165,1
,,,,,,,,,,,,,,,,,198844,19,2022-01-28_23h05.41.196,lexical_decision_task_DD_L5,2021.2.3,Win32,59.98440405,,,,,,,,,,,0.8665,0,,,,,,,,,,,,,,,,,,,,,,,,0.160185216,-0.24814817,0,0,0,,,,,,,TORCH,C,z,y,./images/TORCH.png,,,,,,,,m,0,0.8665,,,,,,,,0,87,87,152,1
,,,,,,,,,,,,,,,,,198844,19,2022-01-28_23h05.41.196,lexical_decision_task_DD_L5,2021.2.3,Win32,59.98440405,,,,,,,,,,,0.7026,1,,,,,,,,,,,,,,,,,,,,,,,,0.160185216,-0.24814817,0,0,0,,,,,,,LIZARD,C,z,y,./images/LIZARD.png,,,,,,,,z,1,0.7026,,,,,,,,0,88,88,128,1
,,,,,,,,,,,,,,,,,198844,19,2022-01-28_23h05.41.196,lexical_decision_task_DD_L5,2021.2.3,Win32,59.98440405,,,,,,,,,,,0.7341,0,,,,,,,,,,,,,,,,,,,,,,,,0.160185216,-0.24814817,0,0,0,,,,,,,TIGER,LB,m,y,./images/TIGERLB.png,,,,,,,,z,0,0.7341,,,,,,,,0,89,89,37,1
,,,,,,,,,,,,,,,,,198844,19,2022-01-28_23h05.41.196,lexical_decision_task_DD_L5,2021.2.3,Win32,59.98440405,,,,,,,,,,,0.7522,0,,,,,,,,,,,,,,,,,,,,,,,,0.160185216,-0.24814817,0,0,0,,,,,,,SWEAT,HB,z,y,./images/SWEATHB.png,,,,,,,,m,0,0.7522,,,,,,,,0,90,90,150,1
,,,,,,,,,,,,,,,,,198844,19,2022-01-28_23h05.41.196,lexical_decision_task_DD_L5,2021.2.3,Win32,59.98440405,,,,,,,,,,,0.5998,1,,,,,,,,,,,,,,,,,,,,,,,,0.160185216,-0.24814817,0,0,0,,,,,,,PILOT,C,m,y,./images/PILOT.png,,,,,,,,m,1,0.5998,,,,,,,,0,91,91,50,1
,,,,,,,,,,,,,,,,,198844,19,2022-01-28_23h05.41.196,lexical_decision_task_DD_L5,2021.2.3,Win32,59.98440405,,,,,,,,,,,2.0486,1,,,,,,,,,,,,,,,,,,,,,,,,0.160185216,-0.24814817,0,0,0,,,,,,,CLOWN,LB,m,y,./images/CLOWNLB.png,,,,,,,,m,1,2.0486,,,,,,,,0,92,92,22,1
,,,,,,,,,,,,,,,,,198844,19,2022-01-28_23h05.41.196,lexical_decision_task_DD_L5,2021.2.3,Win32,59.98440405,,,,,,,,,,,1.4028,1,,,,,,,,,,,,,,,,,,,,,,,,0.160185216,-0.24814817,0,0,0,,,,,,,FENCE,C,m,y,./images/FENCE.png,,,,,,,,m,1,1.4028,,,,,,,,0,93,93,14,1
,,,,,,,,,,,,,,,,,198844,19,2022-01-28_23h05.41.196,lexical_decision_task_DD_L5,2021.2.3,Win32,59.98440405,,,,,,,,,,,0.6665,1,,,,,,,,,,,,,,,,,,,,,,,,0.160185216,-0.24814817,0,0,0,,,,,,,SQUARE,HB,z,y,./images/SQUAREHB.png,,,,,,,,z,1,0.6665,,,,,,,,0,94,94,90,1
,,,,,,,,,,,,,,,,,198844,19,2022-01-28_23h05.41.196,lexical_decision_task_DD_L5,2021.2.3,Win32,59.98440405,,,,,,,,,,,3.257,0,,,,,,,,,,,,,,,,,,,,,,,,0.160185216,-0.24814817,0,0,0,,,,,,,CHERRY,HB,m,y,./images/CHERRYHB.png,,,,,,,,z,0,3.257,,,,,,,,0,95,95,54,1
,,,,,,,,,,,,,,,,,198844,19,2022-01-28_23h05.41.196,lexical_decision_task_DD_L5,2021.2.3,Win32,59.98440405,,,,,,,,,,,2.7221,0,,,,,,,,,,,,,,,,,,,,,,,,0.160185216,-0.24814817,0,0,0,,,,,,,SHELF,HB,z,y,./images/SHELFHB.png,,,,,,,,m,0,2.7221,,,,,,,,0,96,96,123,1
,,,,,,,,,,,,,,,,,198844,19,2022-01-28_23h05.41.196,lexical_decision_task_DD_L5,2021.2.3,Win32,59.98440405,,,,,,,,,,,16.5723,1,,,,,,,,,,,,,,,,,,,,,,,,0.160185216,-0.24814817,0,0,0,,,,,,,WHEEL,C,m,y,./images/WHEEL.png,,,,,,,,m,1,16.5723,,,,,,,,0,97,97,77,1
,,,,,,,,,,,,,,,,,198844,19,2022-01-28_23h05.41.196,lexical_decision_task_DD_L5,2021.2.3,Win32,59.98440405,,,,,,,,,,,0.7655,1,,,,,,,,,,,,,,,,,,,,,,,,0.160185216,-0.24814817,0,0,0,,,,,,,LLAMA,C,m,y,./images/LLAMA.png,,,,,,,,m,1,0.7655,,,,,,,,0,98,98,35,1
,,,,,,,,,,,,,,,,,198844,19,2022-01-28_23h05.41.196,lexical_decision_task_DD_L5,2021.2.3,Win32,59.98440405,,,,,,,,,,,0.7403,1,,,,,,,,,,,,,,,,,,,,,,,,0.160185216,-0.24814817,0,0,0,,,,,,,KITTEN,HB,z,y,./images/KITTENHB.png,,,,,,,,z,1,0.7403,,,,,,,,0,99,99,129,1
,,,,,,,,,,,,,,,,,198844,19,2022-01-28_23h05.41.196,lexical_decision_task_DD_L5,2021.2.3,Win32,59.98440405,,,,,,,,,,,0.6979,1,,,,,,,,,,,,,,,,,,,,,,,,0.160185216,-0.24814817,0,0,0,,,,,,,SAUCE,HB,m,y,./images/SAUCEHB.png,,,,,,,,m,1,0.6979,,,,,,,,0,100,100,51,1
,,,,,,,,,,,,,,,,,198844,19,2022-01-28_23h05.41.196,lexical_decision_task_DD_L5,2021.2.3,Win32,59.98440405,,,,,,,,,,,1.7836,1,,,,,,,,,,,,,,,,,,,,,,,,0.160185216,-0.24814817,0,0,0,,,,,,,CRADLE,C,z,y,./images/CRADLE.png,,,,,,,,z,1,1.7836,,,,,,,,0,101,101,104,1
,,,,,,,,,,,,,,,,,198844,19,2022-01-28_23h05.41.196,lexical_decision_task_DD_L5,2021.2.3,Win32,59.98440405,,,,,,,,,,,2.6961,0,,,,,,,,,,,,,,,,,,,,,,,,0.160185216,-0.24814817,0,0,0,,,,,,,SHIELD,HB,m,y,./images/SHIELDHB.png,,,,,,,,z,0,2.6961,,,,,,,,0,102,102,48,1
,,,,,,,,,,,,,,,,,198844,19,2022-01-28_23h05.41.196,lexical_decision_task_DD_L5,2021.2.3,Win32,59.98440405,,,,,,,,,,,0.9499,0,,,,,,,,,,,,,,,,,,,,,,,,0.160185216,-0.24814817,0,0,0,,,,,,,MEDAL,C,m,y,./images/MEDAL.png,,,,,,,,z,0,0.9499,,,,,,,,0,103,103,11,1
,,,,,,,,,,,,,,,,,198844,19,2022-01-28_23h05.41.196,lexical_decision_task_DD_L5,2021.2.3,Win32,59.98440405,,,,,,,,,,,1.0857,1,,,,,,,,,,,,,,,,,,,,,,,,0.160185216,-0.24814817,0,0,0,,,,,,,BURIAL,C,z,y,./images/BURIAL.png,,,,,,,,z,1,1.0857,,,,,,,,0,104,104,143,1
,,,,,,,,,,,,,,,,,198844,19,2022-01-28_23h05.41.196,lexical_decision_task_DD_L5,2021.2.3,Win32,59.98440405,,,,,,,,,,,0.6728,1,,,,,,,,,,,,,,,,,,,,,,,,0.160185216,-0.24814817,0,0,0,,,,,,,GRAPE,LB,m,y,./images/GRAPELB.png,,,,,,,,m,1,0.6728,,,,,,,,0,105,105,16,1
,,,,,,,,,,,,,,,,,198844,19,2022-01-28_23h05.41.196,lexical_decision_task_DD_L5,2021.2.3,Win32,59.98440405,,,,,,,,,,,0.6578,1,,,,,,,,,,,,,,,,,,,,,,,,0.160185216,-0.24814817,0,0,0,,,,,,,INFANT,LB,z,y,./images/INFANTLB.png,,,,,,,,z,1,0.6578,,,,,,,,0,106,106,160,1
,,,,,,,,,,,,,,,,,198844,19,2022-01-28_23h05.41.196,lexical_decision_task_DD_L5,2021.2.3,Win32,59.98440405,,,,,,,,,,,0.7258,1,,,,,,,,,,,,,,,,,,,,,,,,0.160185216,-0.24814817,0,0,0,,,,,,,BASKET,C,m,y,./images/BASKET.png,,,,,,,,m,1,0.7258,,,,,,,,0,107,107,44,1
,,,,,,,,,,,,,,,,,198844,19,2022-01-28_23h05.41.196,lexical_decision_task_DD_L5,2021.2.3,Win32,59.98440405,,,,,,,,,,,0.8331,1,,,,,,,,,,,,,,,,,,,,,,,,0.160185216,-0.24814817,0,0,0,,,,,,,GARDEN,LB,m,y,./images/GARDENLB.png,,,,,,,,m,1,0.8331,,,,,,,,0,108,108,10,1
,,,,,,,,,,,,,,,,,198844,19,2022-01-28_23h05.41.196,lexical_decision_task_DD_L5,2021.2.3,Win32,59.98440405,,,,,,,,,,,0.6481,1,,,,,,,,,,,,,,,,,,,,,,,,0.160185216,-0.24814817,0,0,0,,,,,,,HOCKEY,C,m,y,./images/HOCKEY.png,,,,,,,,m,1,0.6481,,,,,,,,0,109,109,32,1
,,,,,,,,,,,,,,,,,198844,19,2022-01-28_23h05.41.196,lexical_decision_task_DD_L5,2021.2.3,Win32,59.98440405,,,,,,,,,,,0.6056,0,,,,,,,,,,,,,,,,,,,,,,,,0.160185216,-0.24814817,0,0,0,,,,,,,PEBBLE,LB,m,y,./images/PEBBLELB.png,,,,,,,,z,0,0.6056,,,,,,,,0,110,110,82,1
,,,,,,,,,,,,,,,,,198844,19,2022-01-28_23h05.41.196,lexical_decision_task_DD_L5,2021.2.3,Win32,59.98440405,,,,,,,,,,,0.6178,1,,,,,,,,,,,,,,,,,,,,,,,,0.160185216,-0.24814817,0,0,0,,,,,,,TRIPOD,HB,z,y,./images/TRIPODHB.png,,,,,,,,z,1,0.6178,,,,,,,,0,111,111,138,1
,,,,,,,,,,,,,,,,,198844,19,2022-01-28_23h05.41.196,lexical_decision_task_DD_L5,2021.2.3,Win32,59.98440405,,,,,,,,,,,0.5475,1,,,,,,,,,,,,,,,,,,,,,,,,0.160185216,-0.24814817,0,0,0,,,,,,,DOUGH,LB,z,y,./images/DOUGHLB.png,,,,,,,,z,1,0.5475,,,,,,,,0,112,112,103,1
,,,,,,,,,,,,,,,,,198844,19,2022-01-28_23h05.41.196,lexical_decision_task_DD_L5,2021.2.3,Win32,59.98440405,,,,,,,,,,,0.6331,1,,,,,,,,,,,,,,,,,,,,,,,,0.160185216,-0.24814817,0,0,0,,,,,,,PEARL,LB,z,y,./images/PEARLLB.png,,,,,,,,z,1,0.6331,,,,,,,,0,113,113,130,1
,,,,,,,,,,,,,,,,,198844,19,2022-01-28_23h05.41.196,lexical_decision_task_DD_L5,2021.2.3,Win32,59.98440405,,,,,,,,,,,0.7072,1,,,,,,,,,,,,,,,,,,,,,,,,0.160185216,-0.24814817,0,0,0,,,,,,,BONNET,C,z,y,./images/BONNET.png,,,,,,,,z,1,0.7072,,,,,,,,0,114,114,95,1
,,,,,,,,,,,,,,,,,198844,19,2022-01-28_23h05.41.196,lexical_decision_task_DD_L5,2021.2.3,Win32,59.98440405,,,,,,,,,,,1.406,1,,,,,,,,,,,,,,,,,,,,,,,,0.160185216,-0.24814817,0,0,0,,,,,,,CRUMB,C,z,y,./images/CRUMB.png,,,,,,,,z,1,1.406,,,,,,,,0,115,115,113,1
,,,,,,,,,,,,,,,,,198844,19,2022-01-28_23h05.41.196,lexical_decision_task_DD_L5,2021.2.3,Win32,59.98440405,,,,,,,,,,,0.6006,0,,,,,,,,,,,,,,,,,,,,,,,,0.160185216,-0.24814817,0,0,0,,,,,,,RAZOR,LB,m,y,./images/RAZORLB.png,,,,,,,,z,0,0.6006,,,,,,,,0,116,116,34,1
,,,,,,,,,,,,,,,,,198844,19,2022-01-28_23h05.41.196,lexical_decision_task_DD_L5,2021.2.3,Win32,59.98440405,,,,,,,,,,,0.6744,1,,,,,,,,,,,,,,,,,,,,,,,,0.160185216,-0.24814817,0,0,0,,,,,,,SUNSET,LB,z,y,./images/SUNSETLB.png,,,,,,,,z,1,0.6744,,,,,,,,0,117,117,166,1
,,,,,,,,,,,,,,,,,198844,19,2022-01-28_23h05.41.196,lexical_decision_task_DD_L5,2021.2.3,Win32,59.98440405,,,,,,,,,,,0.7188,0,,,,,,,,,,,,,,,,,,,,,,,,0.160185216,-0.24814817,0,0,0,,,,,,,SNACK,LB,z,y,./images/SNACKLB.png,,,,,,,,m,0,0.7188,,,,,,,,0,118,118,157,1
,,,,,,,,,,,,,,,,,198844,19,2022-01-28_23h05.41.196,lexical_decision_task_DD_L5,2021.2.3,Win32,59.98440405,,,,,,,,,,,0.9339,0,,,,,,,,,,,,,,,,,,,,,,,,0.160185216,-0.24814817,0,0,0,,,,,,,CRATER,HB,m,y,./images/CRATERHB.png,,,,,,,,z,0,0.9339,,,,,,,,0,119,119,3,1
,,,,,,,,,,,,,,,,,198844,19,2022-01-28_23h05.41.196,lexical_decision_task_DD_L5,2021.2.3,Win32,59.98440405,,,,,,,,,,,0.7673,1,,,,,,,,,,,,,,,,,,,,,,,,0.160185216,-0.24814817,0,0,0,,,,,,,TOMATO,HB,z,y,./images/TOMATOHB.png,,,,,,,,z,1,0.7673,,,,,,,,0,120,120,84,1
,,,,,,,,,,,,,,,,,198844,19,2022-01-28_23h05.41.196,lexical_decision_task_DD_L5,2021.2.3,Win32,59.98440405,,,,,,,,,,,1.6549,1,,,,,,,,,,,,,,,,,,,,,,,,0.160185216,-0.24814817,0,0,0,,,,,,,FARMER,C,z,y,./images/FARMER.png,,,,,,,,z,1,1.6549,,,,,,,,0,121,121,149,1
,,,,,,,,,,,,,,,,,198844,19,2022-01-28_23h05.41.196,lexical_decision_task_DD_L5,2021.2.3,Win32,59.98440405,,,,,,,,,,,1.0692,1,,,,,,,,,,,,,,,,,,,,,,,,0.160185216,-0.24814817,0,0,0,,,,,,,CANDLE,LB,z,y,./images/CANDLELB.png,,,,,,,,z,1,1.0692,,,,,,,,0,122,122,145,1
,,,,,,,,,,,,,,,,,198844,19,2022-01-28_23h05.41.196,lexical_decision_task_DD_L5,2021.2.3,Win32,59.98440405,,,,,,,,,,,0.5941,0,,,,,,,,,,,,,,,,,,,,,,,,0.160185216,-0.24814817,0,0,0,,,,,,,STAIN,HB,m,y,./images/STAINHB.png,,,,,,,,z,0,0.5941,,,,,,,,0,123,123,6,1
,,,,,,,,,,,,,,,,,198844,19,2022-01-28_23h05.41.196,lexical_decision_task_DD_L5,2021.2.3,Win32,59.98440405,,,,,,,,,,,0.648,0,,,,,,,,,,,,,,,,,,,,,,,,0.160185216,-0.24814817,0,0,0,,,,,,,COLLAR,HB,m,y,./images/COLLARHB.png,,,,,,,,z,0,0.648,,,,,,,,0,124,124,15,1
,,,,,,,,,,,,,,,,,198844,19,2022-01-28_23h05.41.196,lexical_decision_task_DD_L5,2021.2.3,Win32,59.98440405,,,,,,,,,,,1.7262,1,,,,,,,,,,,,,,,,,,,,,,,,0.160185216,-0.24814817,0,0,0,space,,,,,,BANANA,LB,m,y,./images/BANANALB.png,69.2832,,,,,,,m,1,1.7262,,,,,,,,0,125,125,70,1
,,,,,,,,,,,,,,,,,198844,19,2022-01-28_23h05.41.196,lexical_decision_task_DD_L5,2021.2.3,Win32,59.98440405,,,,,,,,,,,0.8358,1,,,,,,,,,,,,,,,,,,,,,,,,0.160185216,-0.24814817,0,0,0,,,,,,,BABOON,LB,z,y,./images/BABOONLB.png,,,,,,,,z,1,0.8358,,,,,,,,0,126,126,142,1
,,,,,,,,,,,,,,,,,198844,19,2022-01-28_23h05.41.196,lexical_decision_task_DD_L5,2021.2.3,Win32,59.98440405,,,,,,,,,,,0.6849,1,,,,,,,,,,,,,,,,,,,,,,,,0.160185216,-0.24814817,0,0,0,,,,,,,CLIFF,C,m,y,./images/CLIFF.png,,,,,,,,m,1,0.6849,,,,,,,,0,127,127,8,1
,,,,,,,,,,,,,,,,,198844,19,2022-01-28_23h05.41.196,lexical_decision_task_DD_L5,2021.2.3,Win32,59.98440405,,,,,,,,,,,0.6561,1,,,,,,,,,,,,,,,,,,,,,,,,0.160185216,-0.24814817,0,0,0,,,,,,,THROAT,HB,z,y,./images/THROATHB.png,,,,,,,,z,1,0.6561,,,,,,,,0,128,128,120,1
,,,,,,,,,,,,,,,,,198844,19,2022-01-28_23h05.41.196,lexical_decision_task_DD_L5,2021.2.3,Win32,59.98440405,,,,,,,,,,,3.6454,1,,,,,,,,,,,,,,,,,,,,,,,,0.160185216,-0.24814817,0,0,0,,,,,,,CLOUD,C,m,y,./images/CLOUD.png,,,,,,,,m,1,3.6454,,,,,,,,0,129,129,26,1
,,,,,,,,,,,,,,,,,198844,19,2022-01-28_23h05.41.196,lexical_decision_task_DD_L5,2021.2.3,Win32,59.98440405,,,,,,,,,,,1.4293,1,,,,,,,,,,,,,,,,,,,,,,,,0.160185216,-0.24814817,0,0,0,,,,,,,PACKET,C,z,y,./images/PACKET.png,,,,,,,,z,1,1.4293,,,,,,,,0,130,130,140,1
,,,,,,,,,,,,,,,,,198844,19,2022-01-28_23h05.41.196,lexical_decision_task_DD_L5,2021.2.3,Win32,59.98440405,,,,,,,,,,,3.4991,1,,,,,,,,,,,,,,,,,,,,,,,,0.160185216,-0.24814817,0,0,0,,,,,,,HAMMER,HB,m,y,./images/HAMMERHB.png,,,,,,,,m,1,3.4991,,,,,,,,0,131,131,75,1
,,,,,,,,,,,,,,,,,198844,19,2022-01-28_23h05.41.196,lexical_decision_task_DD_L5,2021.2.3,Win32,59.98440405,,,,,,,,,,,1.7464,1,,,,,,,,,,,,,,,,,,,,,,,,0.160185216,-0.24814817,0,0,0,,,,,,,PASTA,C,z,y,./images/PASTA.png,,,,,,,,z,1,1.7464,,,,,,,,0,132,132,89,1
,,,,,,,,,,,,,,,,,198844,19,2022-01-28_23h05.41.196,lexical_decision_task_DD_L5,2021.2.3,Win32,59.98440405,,,,,,,,,,,2.2548,1,,,,,,,,,,,,,,,,,,,,,,,,0.160185216,-0.24814817,0,0,0,,,,,,,LAGOON,C,m,y,./images/LAGOON.png,,,,,,,,m,1,2.2548,,,,,,,,0,133,133,47,1
,,,,,,,,,,,,,,,,,198844,19,2022-01-28_23h05.41.196,lexical_decision_task_DD_L5,2021.2.3,Win32,59.98440405,,,,,,,,,,,6.7998,0,,,,,,,,,,,,,,,,,,,,,,,,0.125925956,-0.250000022,0,0,0,,,,,,,GREASE,HB,z,y,./images/GREASEHB.png,,,,,,,,m,0,6.7998,,,,,,,,0,134,134,99,1
,,,,,,,,,,,,,,,,,198844,19,2022-01-28_23h05.41.196,lexical_decision_task_DD_L5,2021.2.3,Win32,59.98440405,,,,,,,,,,,2.1889,0,,,,,,,,,,,,,,,,,,,,,,,,0.125925956,-0.250000022,0,0,0,,,,,,,CARPET,C,z,y,./images/CARPET.png,,,,,,,,m,0,2.1889,,,,,,,,0,135,135,137,1
,,,,,,,,,,,,,,,,,198844,19,2022-01-28_23h05.41.196,lexical_decision_task_DD_L5,2021.2.3,Win32,59.98440405,,,,,,,,,,,3.05,1,,,,,,,,,,,,,,,,,,,,,,,,0.125925956,-0.250000022,0,0,0,,,,,,,PISTOL,C,m,y,./images/PISTOL.png,,,,,,,,m,1,3.05,,,,,,,,0,136,136,29,1
,,,,,,,,,,,,,,,,,198844,19,2022-01-28_23h05.41.196,lexical_decision_task_DD_L5,2021.2.3,Win32,59.98440405,,,,,,,,,,,0.9998,0,,,,,,,,,,,,,,,,,,,,,,,,0.125925956,-0.250000022,0,0,0,,,,,,,COUCH,C,z,y,./images/COUCH.png,,,,,,,,m,0,0.9998,,,,,,,,0,137,137,161,1
,,,,,,,,,,,,,,,,,198844,19,2022-01-28_23h05.41.196,lexical_decision_task_DD_L5,2021.2.3,Win32,59.98440405,,,,,,,,,,,0.7459,1,,,,,,,,,,,,,,,,,,,,,,,,0.125925956,-0.250000022,0,0,0,,,,,,,MONKEY,HB,m,y,./images/MONKEYHB.png,,,,,,,,m,1,0.7459,,,,,,,,0,138,138,45,1
,,,,,,,,,,,,,,,,,198844,19,2022-01-28_23h05.41.196,lexical_decision_task_DD_L5,2021.2.3,Win32,59.98440405,,,,,,,,,,,0.5812,1,,,,,,,,,,,,,,,,,,,,,,,,0.125925956,-0.250000022,0,0,0,,,,,,,WALNUT,HB,m,y,./images/WALNUTHB.png,,,,,,,,m,1,0.5812,,,,,,,,0,139,139,0,1
,,,,,,,,,,,,,,,,,198844,19,2022-01-28_23h05.41.196,lexical_decision_task_DD_L5,2021.2.3,Win32,59.98440405,,,,,,,,,,,0.544,0,,,,,,,,,,,,,,,,,,,,,,,,0.125925956,-0.250000022,0,0,0,,,,,,,CASINO,LB,m,y,./images/CASINOLB.png,,,,,,,,z,0,0.544,,,,,,,,0,140,140,28,1
,,,,,,,,,,,,,,,,,198844,19,2022-01-28_23h05.41.196,lexical_decision_task_DD_L5,2021.2.3,Win32,59.98440405,,,,,,,,,,,0.6167,1,,,,,,,,,,,,,,,,,,,,,,,,0.125925956,-0.250000022,0,0,0,,,,,,,DRUMS,LB,z,y,./images/DRUMSLB.png,,,,,,,,z,1,0.6167,,,,,,,,0,141,141,133,1
,,,,,,,,,,,,,,,,,198844,19,2022-01-28_23h05.41.196,lexical_decision_task_DD_L5,2021.2.3,Win32,59.98440405,,,,,,,,,,,0.6259,1,,,,,,,,,,,,,,,,,,,,,,,,0.125925956,-0.250000022,0,0,0,,,,,,,WRIST,LB,z,y,./images/WRISTLB.png,,,,,,,,z,1,0.6259,,,,,,,,0,142,142,109,1
,,,,,,,,,,,,,,,,,198844,19,2022-01-28_23h05.41.196,lexical_decision_task_DD_L5,2021.2.3,Win32,59.98440405,,,,,,,,,,,0.597,1,,,,,,,,,,,,,,,,,,,,,,,,0.125925956,-0.250000022,0,0,0,,,,,,,MOTOR,LB,z,y,./images/MOTORLB.png,,,,,,,,z,1,0.597,,,,,,,,0,143,143,97,1
,,,,,,,,,,,,,,,,,198844,19,2022-01-28_23h05.41.196,lexical_decision_task_DD_L5,2021.2.3,Win32,59.98440405,,,,,,,,,,,0.8337,1,,,,,,,,,,,,,,,,,,,,,,,,0.125925956,-0.250000022,0,0,0,,,,,,,MALLET,C,z,y,./images/MALLET.png,,,,,,,,z,1,0.8337,,,,,,,,0,144,144,134,1
,,,,,,,,,,,,,,,,,198844,19,2022-01-28_23h05.41.196,lexical_decision_task_DD_L5,2021.2.3,Win32,59.98440405,,,,,,,,,,,0.7906,1,,,,,,,,,,,,,,,,,,,,,,,,0.125925956,-0.250000022,0,0,0,,,,,,,WEASEL,C,z,y,./images/WEASEL.png,,,,,,,,z,1,0.7906,,,,,,,,0,145,145,164,1
,,,,,,,,,,,,,,,,,198844,19,2022-01-28_23h05.41.196,lexical_decision_task_DD_L5,2021.2.3,Win32,59.98440405,,,,,,,,,,,1.184,1,,,,,,,,,,,,,,,,,,,,,,,,0.125925956,-0.250000022,0,0,0,,,,,,,DRILL,HB,m,y,./images/DRILLHB.png,,,,,,,,m,1,1.184,,,,,,,,0,146,146,81,1
,,,,,,,,,,,,,,,,,198844,19,2022-01-28_23h05.41.196,lexical_decision_task_DD_L5,2021.2.3,Win32,59.98440405,,,,,,,,,,,0.9307,0,,,,,,,,,,,,,,,,,,,,,,,,0.125925956,-0.250000022,0,0,0,,,,,,,PURSE,C,z,y,./images/PURSE.png,,,,,,,,m,0,0.9307,,,,,,,,0,147,147,146,1
,,,,,,,,,,,,,,,,,198844,19,2022-01-28_23h05.41.196,lexical_decision_task_DD_L5,2021.2.3,Win32,59.98440405,,,,,,,,,,,0.6518,1,,,,,,,,,,,,,,,,,,,,,,,,0.125925956,-0.250000022,0,0,0,,,,,,,MAMMAL,C,m,y,./images/MAMMAL.png,,,,,,,,m,1,0.6518,,,,,,,,0,148,148,62,1
,,,,,,,,,,,,,,,,,198844,19,2022-01-28_23h05.41.196,lexical_decision_task_DD_L5,2021.2.3,Win32,59.98440405,,,,,,,,,,,0.6325,0,,,,,,,,,,,,,,,,,,,,,,,,0.125925956,-0.250000022,0,0,0,,,,,,,JELLY,LB,z,y,./images/JELLYLB.png,,,,,,,,m,0,0.6325,,,,,,,,0,149,149,148,1
,,,,,,,,,,,,,,,,,198844,19,2022-01-28_23h05.41.196,lexical_decision_task_DD_L5,2021.2.3,Win32,59.98440405,,,,,,,,,,,0.7397,0,,,,,,,,,,,,,,,,,,,,,,,,0.125925956,-0.250000022,0,0,0,,,,,,,CRUST,LB,z,y,./images/CRUSTLB.png,,,,,,,,m,0,0.7397,,,,,,,,0,150,150,163,1
,,,,,,,,,,,,,,,,,198844,19,2022-01-28_23h05.41.196,lexical_decision_task_DD_L5,2021.2.3,Win32,59.98440405,,,,,,,,,,,0.837,0,,,,,,,,,,,,,,,,,,,,,,,,0.125925956,-0.250000022,0,0,0,,,,,,,KIDNEY,HB,z,y,./images/KIDNEYHB.png,,,,,,,,m,0,0.837,,,,,,,,0,151,151,105,1
,,,,,,,,,,,,,,,,,198844,19,2022-01-28_23h05.41.196,lexical_decision_task_DD_L5,2021.2.3,Win32,59.98440405,,,,,,,,,,,1.15,1,,,,,,,,,,,,,,,,,,,,,,,,0.125925956,-0.250000022,0,0,0,,,,,,,JAGUAR,HB,z,y,./images/JAGUARHB.png,,,,,,,,z,1,1.15,,,,,,,,0,152,152,102,1
,,,,,,,,,,,,,,,,,198844,19,2022-01-28_23h05.41.196,lexical_decision_task_DD_L5,2021.2.3,Win32,59.98440405,,,,,,,,,,,0.5737,1,,,,,,,,,,,,,,,,,,,,,,,,0.125925956,-0.250000022,0,0,0,,,,,,,PARADE,C,m,y,./images/PARADE.png,,,,,,,,m,1,0.5737,,,,,,,,0,153,153,17,1
,,,,,,,,,,,,,,,,,198844,19,2022-01-28_23h05.41.196,lexical_decision_task_DD_L5,2021.2.3,Win32,59.98440405,,,,,,,,,,,1.5749,0,,,,,,,,,,,,,,,,,,,,,,,,0.125925956,-0.250000022,0,0,0,,,,,,,NOOSE,HB,z,y,./images/NOOSEHB.png,,,,,,,,m,0,1.5749,,,,,,,,0,154,154,156,1
,,,,,,,,,,,,,,,,,198844,19,2022-01-28_23h05.41.196,lexical_decision_task_DD_L5,2021.2.3,Win32,59.98440405,,,,,,,,,,,0.9205,0,,,,,,,,,,,,,,,,,,,,,,,,0.125925956,-0.250000022,0,0,0,,,,,,,MUSCLE,LB,z,y,./images/MUSCLELB.png,,,,,,,,m,0,0.9205,,,,,,,,0,155,155,88,1
,,,,,,,,,,,,,,,,,198844,19,2022-01-28_23h05.41.196,lexical_decision_task_DD_L5,2021.2.3,Win32,59.98440405,,,,,,,,,,,0.5494,0,,,,,,,,,,,,,,,,,,,,,,,,0.125925956,-0.250000022,0,0,0,,,,,,,SKIING,C,z,y,./images/SKIING.png,,,,,,,,m,0,0.5494,,,,,,,,0,156,156,101,1
,,,,,,,,,,,,,,,,,198844,19,2022-01-28_23h05.41.196,lexical_decision_task_DD_L5,2021.2.3,Win32,59.98440405,,,,,,,,,,,1.1905,1,,,,,,,,,,,,,,,,,,,,,,,,0.125925956,-0.250000022,0,0,0,,,,,,,DIVER,HB,m,y,./images/DIVERHB.png,,,,,,,,m,1,1.1905,,,,,,,,0,157,157,9,1
,,,,,,,,,,,,,,,,,198844,19,2022-01-28_23h05.41.196,lexical_decision_task_DD_L5,2021.2.3,Win32,59.98440405,,,,,,,,,,,1.6252,1,,,,,,,,,,,,,,,,,,,,,,,,0.125925956,-0.250000022,0,0,0,,,,,,,DONKEY,LB,m,y,./images/DONKEYLB.png,,,,,,,,m,1,1.6252,,,,,,,,0,158,158,19,1
,,,,,,,,,,,,,,,,,198844,19,2022-01-28_23h05.41.196,lexical_decision_task_DD_L5,2021.2.3,Win32,59.98440405,,,,,,,,,,,0.6019,0,,,,,,,,,,,,,,,,,,,,,,,,0.125925956,-0.250000022,0,0,0,,,,,,,SPINE,C,m,y,./images/SPINE.png,,,,,,,,z,0,0.6019,,,,,,,,0,159,159,65,1
,,,,,,,,,,,,,,,,,198844,19,2022-01-28_23h05.41.196,lexical_decision_task_DD_L5,2021.2.3,Win32,59.98440405,,,,,,,,,,,0.7375,1,,,,,,,,,,,,,,,,,,,,,,,,0.125925956,-0.250000022,0,0,0,,,,,,,PIMPLE,C,z,y,./images/PIMPLE.png,,,,,,,,z,1,0.7375,,,,,,,,0,160,160,155,1
,,,,,,,,,,,,,,,,,198844,19,2022-01-28_23h05.41.196,lexical_decision_task_DD_L5,2021.2.3,Win32,59.98440405,,,,,,,,,,,0.8763,0,,,,,,,,,,,,,,,,,,,,,,,,0.125925956,-0.250000022,0,0,0,,,,,,,SMOKER,C,z,y,./images/SMOKER.png,,,,,,,,m,0,0.8763,,,,,,,,0,161,161,110,1
,,,,,,,,,,,,,,,,,198844,19,2022-01-28_23h05.41.196,lexical_decision_task_DD_L5,2021.2.3,Win32,59.98440405,,,,,,,,,,,2.0323,0,,,,,,,,,,,,,,,,,,,,,,,,0.125925956,-0.250000022,0,0,0,,,,,,,DANCER,HB,m,y,./images/DANCERHB.png,,,,,,,,z,0,2.0323,,,,,,,,0,162,162,21,1
,,,,,,,,,,,,,,,,,198844,19,2022-01-28_23h05.41.196,lexical_decision_task_DD_L5,2021.2.3,Win32,59.98440405,,,,,,,,,,,0.8664,0,,,,,,,,,,,,,,,,,,,,,,,,0.125925956,-0.250000022,0,0,0,,,,,,,SHORE,HB,z,y,./images/SHOREHB.png,,,,,,,,m,0,0.8664,,,,,,,,0,163,163,96,1
,,,,,,,,,,,,,,,,,198844,19,2022-01-28_23h05.41.196,lexical_decision_task_DD_L5,2021.2.3,Win32,59.98440405,,,,,,,,,,,0.6697,1,,,,,,,,,,,,,,,,,,,,,,,,0.125925956,-0.250000022,0,0,0,,,,,,,BERRY,C,z,y,./images/BERRY.png,,,,,,,,z,1,0.6697,,,,,,,,0,164,164,131,1
,,,,,,,,,,,,,,,,,198844,19,2022-01-28_23h05.41.196,lexical_decision_task_DD_L5,2021.2.3,Win32,59.98440405,,,,,,,,,,,0.8081,1,,,,,,,,,,,,,,,,,,,,,,,,0.125925956,-0.250000022,0,0,0,,,,,,,CEMENT,C,z,y,./images/CEMENT.png,,,,,,,,z,1,0.8081,,,,,,,,0,165,165,158,1
,,,,,,,,,,,,,,,,,198844,19,2022-01-28_23h05.41.196,lexical_decision_task_DD_L5,2021.2.3,Win32,59.98440405,,,,,,,,,,,0.8831,1,,,,,,,,,,,,,,,,,,,,,,,,0.125925956,-0.250000022,0,0,0,,,,,,,BAMBOO,C,m,y,./images/BAMBOO.png,,,,,,,,m,1,0.8831,,,,,,,,0,166,166,5,1
,,,,,,,,,,,,,,,,,198844,19,2022-01-28_23h05.41.196,lexical_decision_task_DD_L5,2021.2.3,Win32,59.98440405,,,,,,,,,,,1.3838,1,,,,,,,,,,,,,,,,,,,,,,,,0.125925956,-0.250000022,0,0,0,,,,,,,PEACH,C,z,y,./images/PEACH.png,,,,,,,,z,1,1.3838,,,,,,,,0,167,167,119,1
