key_resp.keys,key_resp.rt,instr_done_touch.x,instr_done_touch.y,instr_done_touch.leftButton,instr_done_touch.midButton,instr_done_touch.rightButton,instruction_pages.thisRepN,instruction_pages.thisTrialN,instruction_pages.thisN,instruction_pages.thisIndex,instruction_pages.ran,pageN,phase,instruct_text,has_image,instruct_image,participant,age,date,expName,psychopyVersion,OS,frameRate,response.keys,response.corr,response.rt,touch_resp.x,touch_resp.y,touch_resp.leftButton,touch_resp.midButton,touch_resp.rightButton,touch_resp.time,touch_resp.clicked_name,rt,corr,practrials.thisRepN,practrials.thisTrialN,practrials.thisN,practrials.thisIndex,practrials.ran,TrialID,Target,corrAns,instr_done_touch.clicked_name,end_of_practice_trials_pages.thisRepN,end_of_practice_trials_pages.thisTrialN,end_of_practice_trials_pages.thisN,end_of_practice_trials_pages.thisIndex,end_of_practice_trials_pages.ran,key_resp_2.keys,key_resp_2.corr,key_resp_2.rt,targ_click.x,targ_click.y,targ_click.leftButton,targ_click.midButton,targ_click.rightButton,targ_click.time,targ_click.clicked_name,break_done_touch.x,break_done_touch.y,break_done_touch.leftButton,break_done_touch.midButton,break_done_touch.rightButton,break_done_keyboard.keys,maintrials.thisRepN,maintrials.thisTrialN,maintrials.thisN,maintrials.thisIndex,maintrials.ran,string,blur,study,lex,stim_path,break_done_touch.clicked_name,break_done_keyboard.rt,test_instructions.thisRepN,test_instructions.thisTrialN,test_instructions.thisN,test_instructions.thisIndex,test_instructions.ran,key_resp_3.keys,key_resp_3.corr,key_resp_3.rt,test_click.x,test_click.y,test_click.leftButton,test_click.midButton,test_click.rightButton,test_click.time,test_click.clicked_name,test_phase.thisRepN,test_phase.thisTrialN,test_phase.thisN,test_phase.thisIndex,test_phase.ran
space,18.8377,0.104513889,-0.271480035,0,0,0,0,0,0,0,1,1,instructions,"INSTRUCTIONS
At the start of each trial, look at the plus sign  (+) in the center of the screen.  This tells you that a trial is about to begin and where to look. Second, the plus sign will disappear and a string of letters will appear. Your task is to determine if the string of letters is a word or not. If the item is a word press the M key (on keyboard)  or touch the word button (phone/tablet).  If the item is not a word,  press the  Z key (on keyboard)  or touch the nonword button (on phone/tablet). 
Press the space bar or touch  continue.",0,,198802,18,2022-01-28_18h05.14.327,lexical_decision_task_DD_L6,2021.2.3,MacIntel,60.0024001,,,,,,,,,,,,,,,,,,,,,,,,,,,,,,,,,,,,,,,,,,,,,,,,,,,,,,,,,,,,,,,,,,,,,,,,,,
space,4.8969,0.104513889,-0.271480035,0,0,0,0,1,1,1,1,2,instructions,"If your device has a keyboard, press the 'Z' key for nonwords and the 'M' key for words.





Press the space bar or touch the button below to continue.",0,keyboard-example.gif,198802,18,2022-01-28_18h05.14.327,lexical_decision_task_DD_L6,2021.2.3,MacIntel,60.0024001,,,,,,,,,,,,,,,,,,,,,,,,,,,,,,,,,,,,,,,,,,,,,,,,,,,,,,,,,,,,,,,,,,,,,,,,,,
space,1.96,0.104513889,-0.271480035,0,0,0,0,2,2,2,1,3,instructions,"If you are using a touchscreen only device, use the buttons on the screen. Do not use the mouse.





Press the space bar or touch the button below to continue.",0,touchscreen-example.gif,198802,18,2022-01-28_18h05.14.327,lexical_decision_task_DD_L6,2021.2.3,MacIntel,60.0024001,,,,,,,,,,,,,,,,,,,,,,,,,,,,,,,,,,,,,,,,,,,,,,,,,,,,,,,,,,,,,,,,,,,,,,,,,,
space,2.8658,0.104513889,-0.271480035,0,0,0,0,3,3,3,1,4,instructions,"It is very important that you respond as quickly and accurately as possible, as each letter string will only be on the screen for two seconds. If you do not respond within this time, the message 'Too slow!' will be displayed and the experiment will progress to the next letter string. The first 20 trials will be practice trials and you will receive feedback on your answers. 

Press the space bar or touch the button below to start the practice trials.",0,,198802,18,2022-01-28_18h05.14.327,lexical_decision_task_DD_L6,2021.2.3,MacIntel,60.0024001,,,,,,,,,,,,,,,,,,,,,,,,,,,,,,,,,,,,,,,,,,,,,,,,,,,,,,,,,,,,,,,,,,,,,,,,,,
,,,,,,,,,,,,,,,,,198802,18,2022-01-28_18h05.14.327,lexical_decision_task_DD_L6,2021.2.3,MacIntel,60.0024001,m,1,2.0984,,,,,,,,2.0984,1,0,0,0,3,1,1001,MATRIX,m,,,,,,,,,,,,,,,,,,,,,,,,,,,,,,,,,,,,,,,,,,,,,,,,,,,,,,
,,,,,,,,,,,,,,,,,198802,18,2022-01-28_18h05.14.327,lexical_decision_task_DD_L6,2021.2.3,MacIntel,60.0024001,m,1,1.2881,,,,,,,,1.2881,1,0,1,1,1,1,1001,ADJUST,m,,,,,,,,,,,,,,,,,,,,,,,,,,,,,,,,,,,,,,,,,,,,,,,,,,,,,,
,,,,,,,,,,,,,,,,,198802,18,2022-01-28_18h05.14.327,lexical_decision_task_DD_L6,2021.2.3,MacIntel,60.0024001,z,1,0.7078,,,,,,,,0.7078,1,0,2,2,15,1,1001,WHAISE,z,,,,,,,,,,,,,,,,,,,,,,,,,,,,,,,,,,,,,,,,,,,,,,,,,,,,,,
,,,,,,,,,,,,,,,,,198802,18,2022-01-28_18h05.14.327,lexical_decision_task_DD_L6,2021.2.3,MacIntel,60.0024001,z,1,0.7449,,,,,,,,0.7449,1,0,3,3,10,1,1001,INLADE,z,,,,,,,,,,,,,,,,,,,,,,,,,,,,,,,,,,,,,,,,,,,,,,,,,,,,,,
,,,,,,,,,,,,,,,,,198802,18,2022-01-28_18h05.14.327,lexical_decision_task_DD_L6,2021.2.3,MacIntel,60.0024001,m,1,0.4944,,,,,,,,0.4944,1,0,4,4,2,1,1001,ALMOND,m,,,,,,,,,,,,,,,,,,,,,,,,,,,,,,,,,,,,,,,,,,,,,,,,,,,,,,
,,,,,,,,,,,,,,,,,198802,18,2022-01-28_18h05.14.327,lexical_decision_task_DD_L6,2021.2.3,MacIntel,60.0024001,z,1,0.7662,,,,,,,,0.7662,1,0,5,5,13,1,1001,ROUPET,z,,,,,,,,,,,,,,,,,,,,,,,,,,,,,,,,,,,,,,,,,,,,,,,,,,,,,,
,,,,,,,,,,,,,,,,,198802,18,2022-01-28_18h05.14.327,lexical_decision_task_DD_L6,2021.2.3,MacIntel,60.0024001,m,1,0.4943,,,,,,,,0.4943,1,0,6,6,6,1,1001,ZOMBIE,m,,,,,,,,,,,,,,,,,,,,,,,,,,,,,,,,,,,,,,,,,,,,,,,,,,,,,,
,,,,,,,,,,,,,,,,,198802,18,2022-01-28_18h05.14.327,lexical_decision_task_DD_L6,2021.2.3,MacIntel,60.0024001,m,1,0.6919,,,,,,,,0.6919,1,0,7,7,5,1,1001,OBTAIN,m,,,,,,,,,,,,,,,,,,,,,,,,,,,,,,,,,,,,,,,,,,,,,,,,,,,,,,
,,,,,,,,,,,,,,,,,198802,18,2022-01-28_18h05.14.327,lexical_decision_task_DD_L6,2021.2.3,MacIntel,60.0024001,z,1,0.8387,,,,,,,,0.8387,1,0,8,8,11,1,1001,RASHET,z,,,,,,,,,,,,,,,,,,,,,,,,,,,,,,,,,,,,,,,,,,,,,,,,,,,,,,
,,,,,,,,,,,,,,,,,198802,18,2022-01-28_18h05.14.327,lexical_decision_task_DD_L6,2021.2.3,MacIntel,60.0024001,m,1,0.5141,,,,,,,,0.5141,1,0,9,9,4,1,1001,SQUEAK,m,,,,,,,,,,,,,,,,,,,,,,,,,,,,,,,,,,,,,,,,,,,,,,,,,,,,,,
,,,,,,,,,,,,,,,,,198802,18,2022-01-28_18h05.14.327,lexical_decision_task_DD_L6,2021.2.3,MacIntel,60.0024001,z,1,0.6355,,,,,,,,0.6355,1,0,10,10,14,1,1001,THRALE,z,,,,,,,,,,,,,,,,,,,,,,,,,,,,,,,,,,,,,,,,,,,,,,,,,,,,,,
,,,,,,,,,,,,,,,,,198802,18,2022-01-28_18h05.14.327,lexical_decision_task_DD_L6,2021.2.3,MacIntel,60.0024001,z,1,0.7825,,,,,,,,0.7825,1,0,11,11,12,1,1001,SPRINY,z,,,,,,,,,,,,,,,,,,,,,,,,,,,,,,,,,,,,,,,,,,,,,,,,,,,,,,
,,,,,,,,,,,,,,,,,198802,18,2022-01-28_18h05.14.327,lexical_decision_task_DD_L6,2021.2.3,MacIntel,60.0024001,z,1,0.6978,,,,,,,,0.6978,1,0,12,12,9,1,1001,FARINY,z,,,,,,,,,,,,,,,,,,,,,,,,,,,,,,,,,,,,,,,,,,,,,,,,,,,,,,
,,,,,,,,,,,,,,,,,198802,18,2022-01-28_18h05.14.327,lexical_decision_task_DD_L6,2021.2.3,MacIntel,60.0024001,m,1,0.5645,,,,,,,,0.5645,1,0,13,13,0,1,1001,UTOPIA,m,,,,,,,,,,,,,,,,,,,,,,,,,,,,,,,,,,,,,,,,,,,,,,,,,,,,,,
,,,,,,,,,,,,,,,,,198802,18,2022-01-28_18h05.14.327,lexical_decision_task_DD_L6,2021.2.3,MacIntel,60.0024001,m,1,0.5058,,,,,,,,0.5058,1,0,14,14,7,1,1001,VOLUME,m,,,,,,,,,,,,,,,,,,,,,,,,,,,,,,,,,,,,,,,,,,,,,,,,,,,,,,
,,,,,,,,,,,,,,,,,198802,18,2022-01-28_18h05.14.327,lexical_decision_task_DD_L6,2021.2.3,MacIntel,60.0024001,z,1,0.7511,,,,,,,,0.7511,1,0,15,15,8,1,1001,ASLERT,z,,,,,,,,,,,,,,,,,,,,,,,,,,,,,,,,,,,,,,,,,,,,,,,,,,,,,,
,,0.125125868,-0.392456597,1,0,0,,,,,,1,end_of_practice,"You have completed the practice trials. During the experimental trials, you will not receive feedback. 
Before you begin, please ensure that you are in a comfortable and quiet location and will not be disturbed for about 15 minutes, as we cannot use your data if you do not complete all the trials. 
 When you are ready to start the experimental trials, please press space or touch the button below.",,,198802,18,2022-01-28_18h05.14.327,lexical_decision_task_DD_L6,2021.2.3,MacIntel,60.0024001,,,,,,,,,,,,,,,,,,,,,instr_done_button,0,0,0,0,1,,,,,,,,,,,,,,,,,,,,,,,,,,,,,,,,,,,,,,,,,,,,,,,,
,,,,,,,,,,,,,,,,,198802,18,2022-01-28_18h05.14.327,lexical_decision_task_DD_L6,2021.2.3,MacIntel,60.0024001,,,,,,,,,,,1.0314,1,,,,,,,,,,,,,,,m,1,1.0314,,,,,,,,0.125125868,-0.392456597,0,0,0,,0,0,0,9,1,DIVER,LB,old,m,./images/DIVERLB.png,,,,,,,,,,,,,,,,,,,,,,
,,,,,,,,,,,,,,,,,198802,18,2022-01-28_18h05.14.327,lexical_decision_task_DD_L6,2021.2.3,MacIntel,60.0024001,,,,,,,,,,,0.9222,1,,,,,,,,,,,,,,,z,1,0.9222,,,,,,,,0.125125868,-0.392456597,0,0,0,,0,1,1,156,1,HIXES,C,old,z,./images/HIXES.png,,,,,,,,,,,,,,,,,,,,,,
,,,,,,,,,,,,,,,,,198802,18,2022-01-28_18h05.14.327,lexical_decision_task_DD_L6,2021.2.3,MacIntel,60.0024001,,,,,,,,,,,0.7147,1,,,,,,,,,,,,,,,z,1,0.7147,,,,,,,,0.125125868,-0.392456597,0,0,0,,0,2,2,162,1,LEICH,C,old,z,./images/LEICH.png,,,,,,,,,,,,,,,,,,,,,,
,,,,,,,,,,,,,,,,,198802,18,2022-01-28_18h05.14.327,lexical_decision_task_DD_L6,2021.2.3,MacIntel,60.0024001,,,,,,,,,,,0.666,1,,,,,,,,,,,,,,,z,1,0.666,,,,,,,,0.125125868,-0.392456597,0,0,0,,0,3,3,137,1,JOOST,LB,old,z,./images/JOOSTLB.png,,,,,,,,,,,,,,,,,,,,,,
,,,,,,,,,,,,,,,,,198802,18,2022-01-28_18h05.14.327,lexical_decision_task_DD_L6,2021.2.3,MacIntel,60.0024001,,,,,,,,,,,0.8153,1,,,,,,,,,,,,,,,z,1,0.8153,,,,,,,,0.125125868,-0.392456597,0,0,0,,0,4,4,146,1,MOOST,LB,old,z,./images/MOOSTLB.png,,,,,,,,,,,,,,,,,,,,,,
,,,,,,,,,,,,,,,,,198802,18,2022-01-28_18h05.14.327,lexical_decision_task_DD_L6,2021.2.3,MacIntel,60.0024001,,,,,,,,,,,0.4029,1,,,,,,,,,,,,,,,m,1,0.4029,,,,,,,,0.125125868,-0.392456597,0,0,0,,0,5,5,64,1,BRIDE,C,old,m,./images/BRIDE.png,,,,,,,,,,,,,,,,,,,,,,
,,,,,,,,,,,,,,,,,198802,18,2022-01-28_18h05.14.327,lexical_decision_task_DD_L6,2021.2.3,MacIntel,60.0024001,,,,,,,,,,,0.4704,1,,,,,,,,,,,,,,,z,1,0.4704,,,,,,,,0.125125868,-0.392456597,0,0,0,,0,6,6,163,1,GAMBA,HB,old,z,./images/GAMBAHB.png,,,,,,,,,,,,,,,,,,,,,,
,,,,,,,,,,,,,,,,,198802,18,2022-01-28_18h05.14.327,lexical_decision_task_DD_L6,2021.2.3,MacIntel,60.0024001,,,,,,,,,,,0.7716,1,,,,,,,,,,,,,,,m,1,0.7716,,,,,,,,0.125125868,-0.392456597,0,0,0,,0,7,7,49,1,BISHOP,C,old,m,./images/BISHOP.png,,,,,,,,,,,,,,,,,,,,,,
,,,,,,,,,,,,,,,,,198802,18,2022-01-28_18h05.14.327,lexical_decision_task_DD_L6,2021.2.3,MacIntel,60.0024001,,,,,,,,,,,0.6736,1,,,,,,,,,,,,,,,m,1,0.6736,,,,,,,,0.125125868,-0.392456597,0,0,0,,0,8,8,40,1,SNAKE,C,old,m,./images/SNAKE.png,,,,,,,,,,,,,,,,,,,,,,
,,,,,,,,,,,,,,,,,198802,18,2022-01-28_18h05.14.327,lexical_decision_task_DD_L6,2021.2.3,MacIntel,60.0024001,,,,,,,,,,,1.2794,1,,,,,,,,,,,,,,,m,1,1.2794,,,,,,,,0.125125868,-0.392456597,0,0,0,,0,9,9,17,1,PARADE,HB,old,m,./images/PARADEHB.png,,,,,,,,,,,,,,,,,,,,,,
,,,,,,,,,,,,,,,,,198802,18,2022-01-28_18h05.14.327,lexical_decision_task_DD_L6,2021.2.3,MacIntel,60.0024001,,,,,,,,,,,0.699,1,,,,,,,,,,,,,,,z,1,0.699,,,,,,,,0.125125868,-0.392456597,0,0,0,,0,10,10,141,1,PLEET,C,old,z,./images/PLEET.png,,,,,,,,,,,,,,,,,,,,,,
,,,,,,,,,,,,,,,,,198802,18,2022-01-28_18h05.14.327,lexical_decision_task_DD_L6,2021.2.3,MacIntel,60.0024001,,,,,,,,,,,0.5389,1,,,,,,,,,,,,,,,z,1,0.5389,,,,,,,,0.125125868,-0.392456597,0,0,0,,0,11,11,126,1,GUELS,C,old,z,./images/GUELS.png,,,,,,,,,,,,,,,,,,,,,,
,,,,,,,,,,,,,,,,,198802,18,2022-01-28_18h05.14.327,lexical_decision_task_DD_L6,2021.2.3,MacIntel,60.0024001,,,,,,,,,,,0.4861,1,,,,,,,,,,,,,,,z,1,0.4861,,,,,,,,0.125125868,-0.392456597,0,0,0,,0,12,12,108,1,GRUET,C,old,z,./images/GRUET.png,,,,,,,,,,,,,,,,,,,,,,
,,,,,,,,,,,,,,,,,198802,18,2022-01-28_18h05.14.327,lexical_decision_task_DD_L6,2021.2.3,MacIntel,60.0024001,,,,,,,,,,,1.4483,1,,,,,,,,,,,,,,,m,1,1.4483,,,,,,,,0.125125868,-0.392456597,0,0,0,,0,13,13,59,1,BRUSH,HB,old,m,./images/BRUSHHB.png,,,,,,,,,,,,,,,,,,,,,,
,,,,,,,,,,,,,,,,,198802,18,2022-01-28_18h05.14.327,lexical_decision_task_DD_L6,2021.2.3,MacIntel,60.0024001,,,,,,,,,,,0.7662,1,,,,,,,,,,,,,,,z,1,0.7662,,,,,,,,0.125125868,-0.392456597,0,0,0,,0,14,14,119,1,PAFER,LB,old,z,./images/PAFERLB.png,,,,,,,,,,,,,,,,,,,,,,
,,,,,,,,,,,,,,,,,198802,18,2022-01-28_18h05.14.327,lexical_decision_task_DD_L6,2021.2.3,MacIntel,60.0024001,,,,,,,,,,,1.3354,1,,,,,,,,,,,,,,,z,1,1.3354,,,,,,,,0.125125868,-0.392456597,0,0,0,,0,15,15,160,1,VEETS,HB,old,z,./images/VEETSHB.png,,,,,,,,,,,,,,,,,,,,,,
,,,,,,,,,,,,,,,,,198802,18,2022-01-28_18h05.14.327,lexical_decision_task_DD_L6,2021.2.3,MacIntel,60.0024001,,,,,,,,,,,0.7473,1,,,,,,,,,,,,,,,z,1,0.7473,,,,,,,,0.125125868,-0.392456597,0,0,0,,0,16,16,98,1,BAMPS,LB,old,z,./images/BAMPSLB.png,,,,,,,,,,,,,,,,,,,,,,
,,,,,,,,,,,,,,,,,198802,18,2022-01-28_18h05.14.327,lexical_decision_task_DD_L6,2021.2.3,MacIntel,60.0024001,,,,,,,,,,,1.6524,1,,,,,,,,,,,,,,,z,1,1.6524,,,,,,,,0.125125868,-0.392456597,0,0,0,,0,17,17,136,1,WERVE,HB,old,z,./images/WERVEHB.png,,,,,,,,,,,,,,,,,,,,,,
,,,,,,,,,,,,,,,,,198802,18,2022-01-28_18h05.14.327,lexical_decision_task_DD_L6,2021.2.3,MacIntel,60.0024001,,,,,,,,,,,0.5455,1,,,,,,,,,,,,,,,m,1,0.5455,,,,,,,,0.125125868,-0.392456597,0,0,0,,0,18,18,63,1,BAKER,LB,old,m,./images/BAKERLB.png,,,,,,,,,,,,,,,,,,,,,,
,,,,,,,,,,,,,,,,,198802,18,2022-01-28_18h05.14.327,lexical_decision_task_DD_L6,2021.2.3,MacIntel,60.0024001,,,,,,,,,,,0.6059,1,,,,,,,,,,,,,,,m,1,0.6059,,,,,,,,0.125125868,-0.392456597,0,0,0,,0,19,19,1,1,TOWEL,C,old,m,./images/TOWEL.png,,,,,,,,,,,,,,,,,,,,,,
,,,,,,,,,,,,,,,,,198802,18,2022-01-28_18h05.14.327,lexical_decision_task_DD_L6,2021.2.3,MacIntel,60.0024001,,,,,,,,,,,0.6686,1,,,,,,,,,,,,,,,z,1,0.6686,,,,,,,,0.125125868,-0.392456597,0,0,0,,0,20,20,158,1,EGECT,LB,old,z,./images/EGECTLB.png,,,,,,,,,,,,,,,,,,,,,,
,,,,,,,,,,,,,,,,,198802,18,2022-01-28_18h05.14.327,lexical_decision_task_DD_L6,2021.2.3,MacIntel,60.0024001,,,,,,,,,,,0.6085,1,,,,,,,,,,,,,,,m,1,0.6085,,,,,,,,0.125125868,-0.392456597,0,0,0,,0,21,21,61,1,ARTIST,C,old,m,./images/ARTIST.png,,,,,,,,,,,,,,,,,,,,,,
,,,,,,,,,,,,,,,,,198802,18,2022-01-28_18h05.14.327,lexical_decision_task_DD_L6,2021.2.3,MacIntel,60.0024001,,,,,,,,,,,0.5325,1,,,,,,,,,,,,,,,z,1,0.5325,,,,,,,,0.125125868,-0.392456597,0,0,0,,0,22,22,147,1,ZOLES,C,old,z,./images/ZOLES.png,,,,,,,,,,,,,,,,,,,,,,
,,,,,,,,,,,,,,,,,198802,18,2022-01-28_18h05.14.327,lexical_decision_task_DD_L6,2021.2.3,MacIntel,60.0024001,,,,,,,,,,,0.9056,1,,,,,,,,,,,,,,,m,1,0.9056,,,,,,,,0.125125868,-0.392456597,0,0,0,,0,23,23,38,1,ENGINE,HB,old,m,./images/ENGINEHB.png,,,,,,,,,,,,,,,,,,,,,,
,,,,,,,,,,,,,,,,,198802,18,2022-01-28_18h05.14.327,lexical_decision_task_DD_L6,2021.2.3,MacIntel,60.0024001,,,,,,,,,,,0.8486,0,,,,,,,,,,,,,,,m,0,0.8486,,,,,,,,0.125125868,-0.392456597,0,0,0,,0,24,24,142,1,PLASK,HB,old,z,./images/PLASKHB.png,,,,,,,,,,,,,,,,,,,,,,
,,,,,,,,,,,,,,,,,198802,18,2022-01-28_18h05.14.327,lexical_decision_task_DD_L6,2021.2.3,MacIntel,60.0024001,,,,,,,,,,,0.505,1,,,,,,,,,,,,,,,m,1,0.505,,,,,,,,0.125125868,-0.392456597,0,0,0,,0,25,25,16,1,GRAPE,C,old,m,./images/GRAPE.png,,,,,,,,,,,,,,,,,,,,,,
,,,,,,,,,,,,,,,,,198802,18,2022-01-28_18h05.14.327,lexical_decision_task_DD_L6,2021.2.3,MacIntel,60.0024001,,,,,,,,,,,0.5374,1,,,,,,,,,,,,,,,z,1,0.5374,,,,,,,,0.125125868,-0.392456597,0,0,0,,0,26,26,114,1,RIKES,C,old,z,./images/RIKES.png,,,,,,,,,,,,,,,,,,,,,,
,,,,,,,,,,,,,,,,,198802,18,2022-01-28_18h05.14.327,lexical_decision_task_DD_L6,2021.2.3,MacIntel,60.0024001,,,,,,,,,,,0.8493,1,,,,,,,,,,,,,,,z,1,0.8493,,,,,,,,0.125125868,-0.392456597,0,0,0,,0,27,27,133,1,POWDY,HB,old,z,./images/POWDYHB.png,,,,,,,,,,,,,,,,,,,,,,
,,,,,,,,,,,,,,,,,198802,18,2022-01-28_18h05.14.327,lexical_decision_task_DD_L6,2021.2.3,MacIntel,60.0024001,,,,,,,,,,,0.7841,1,,,,,,,,,,,,,,,z,1,0.7841,,,,,,,,0.125125868,-0.392456597,0,0,0,,0,28,28,88,1,GLUSH,HB,old,z,./images/GLUSHHB.png,,,,,,,,,,,,,,,,,,,,,,
,,,,,,,,,,,,,,,,,198802,18,2022-01-28_18h05.14.327,lexical_decision_task_DD_L6,2021.2.3,MacIntel,60.0024001,,,,,,,,,,,0.7556,0,,,,,,,,,,,,,,,z,0,0.7556,,,,,,,,0.125125868,-0.392456597,0,0,0,,0,29,29,56,1,HEATER,HB,old,m,./images/HEATERHB.png,,,,,,,,,,,,,,,,,,,,,,
,,,,,,,,,,,,,,,,,198802,18,2022-01-28_18h05.14.327,lexical_decision_task_DD_L6,2021.2.3,MacIntel,60.0024001,,,,,,,,,,,0.4864,1,,,,,,,,,,,,,,,m,1,0.4864,,,,,,,,0.125125868,-0.392456597,0,0,0,,0,30,30,10,1,GARDEN,C,old,m,./images/GARDEN.png,,,,,,,,,,,,,,,,,,,,,,
,,,,,,,,,,,,,,,,,198802,18,2022-01-28_18h05.14.327,lexical_decision_task_DD_L6,2021.2.3,MacIntel,60.0024001,,,,,,,,,,,0.6284,1,,,,,,,,,,,,,,,z,1,0.6284,,,,,,,,0.125125868,-0.392456597,0,0,0,,0,31,31,129,1,PRANS,C,old,z,./images/PRANS.png,,,,,,,,,,,,,,,,,,,,,,
,,,,,,,,,,,,,,,,,198802,18,2022-01-28_18h05.14.327,lexical_decision_task_DD_L6,2021.2.3,MacIntel,60.0024001,,,,,,,,,,,0.5334,1,,,,,,,,,,,,,,,m,1,0.5334,,,,,,,,0.125125868,-0.392456597,0,0,0,,0,32,32,66,1,STATUE,LB,old,m,./images/STATUELB.png,,,,,,,,,,,,,,,,,,,,,,
,,,,,,,,,,,,,,,,,198802,18,2022-01-28_18h05.14.327,lexical_decision_task_DD_L6,2021.2.3,MacIntel,60.0024001,,,,,,,,,,,0.7041,1,,,,,,,,,,,,,,,m,1,0.7041,,,,,,,,0.125125868,-0.392456597,0,0,0,,0,33,33,48,1,SHIELD,LB,old,m,./images/SHIELDLB.png,,,,,,,,,,,,,,,,,,,,,,
,,,,,,,,,,,,,,,,,198802,18,2022-01-28_18h05.14.327,lexical_decision_task_DD_L6,2021.2.3,MacIntel,60.0024001,,,,,,,,,,,0.9942,1,,,,,,,,,,,,,,,z,1,0.9942,,,,,,,,0.125125868,-0.392456597,0,0,0,,0,34,34,134,1,TROSS,LB,old,z,./images/TROSSLB.png,,,,,,,,,,,,,,,,,,,,,,
,,,,,,,,,,,,,,,,,198802,18,2022-01-28_18h05.14.327,lexical_decision_task_DD_L6,2021.2.3,MacIntel,60.0024001,,,,,,,,,,,0.5858,1,,,,,,,,,,,,,,,m,1,0.5858,,,,,,,,0.125125868,-0.392456597,0,0,0,,0,35,35,32,1,HOCKEY,HB,old,m,./images/HOCKEYHB.png,,,,,,,,,,,,,,,,,,,,,,
,,,,,,,,,,,,,,,,,198802,18,2022-01-28_18h05.14.327,lexical_decision_task_DD_L6,2021.2.3,MacIntel,60.0024001,,,,,,,,,,,0.6572,1,,,,,,,,,,,,,,,m,1,0.6572,,,,,,,,0.125125868,-0.392456597,0,0,0,,0,36,36,83,1,WHISKY,HB,old,m,./images/WHISKYHB.png,,,,,,,,,,,,,,,,,,,,,,
,,,,,,,,,,,,,,,,,198802,18,2022-01-28_18h05.14.327,lexical_decision_task_DD_L6,2021.2.3,MacIntel,60.0024001,,,,,,,,,,,0.579,1,,,,,,,,,,,,,,,z,1,0.579,,,,,,,,0.125125868,-0.392456597,0,0,0,,0,37,37,96,1,KEAMS,C,old,z,./images/KEAMS.png,,,,,,,,,,,,,,,,,,,,,,
,,,,,,,,,,,,,,,,,198802,18,2022-01-28_18h05.14.327,lexical_decision_task_DD_L6,2021.2.3,MacIntel,60.0024001,,,,,,,,,,,0.7234,1,,,,,,,,,,,,,,,z,1,0.7234,,,,,,,,0.125125868,-0.392456597,0,0,0,,0,38,38,155,1,CANGY,LB,old,z,./images/CANGYLB.png,,,,,,,,,,,,,,,,,,,,,,
,,,,,,,,,,,,,,,,,198802,18,2022-01-28_18h05.14.327,lexical_decision_task_DD_L6,2021.2.3,MacIntel,60.0024001,,,,,,,,,,,0.5388,1,,,,,,,,,,,,,,,m,1,0.5388,,,,,,,,0.125125868,-0.392456597,0,0,0,,0,39,39,26,1,CLOUD,HB,old,m,./images/CLOUDHB.png,,,,,,,,,,,,,,,,,,,,,,
,,,,,,,,,,,,,,,,,198802,18,2022-01-28_18h05.14.327,lexical_decision_task_DD_L6,2021.2.3,MacIntel,60.0024001,,,,,,,,,,,0.4573,1,,,,,,,,,,,,,,,z,1,0.4573,,,,,,,,0.125125868,-0.392456597,0,0,0,,0,40,40,117,1,STEEG,C,old,z,./images/STEEG.png,,,,,,,,,,,,,,,,,,,,,,
,,,,,,,,,,,,,,,,,198802,18,2022-01-28_18h05.14.327,lexical_decision_task_DD_L6,2021.2.3,MacIntel,60.0024001,,,,,,,,,,,1.1206,1,,,,,,,,,,,,,,,m,1,1.1206,,,,,,,,0.12358941,-0.368789062,1,0,0,,0,41,41,65,1,SPINE,HB,old,m,./images/SPINEHB.png,break_done_button,,,,,,,,,,,,,,,,,,,,,
,,,,,,,,,,,,,,,,,198802,18,2022-01-28_18h05.14.327,lexical_decision_task_DD_L6,2021.2.3,MacIntel,60.0024001,,,,,,,,,,,0.6654,1,,,,,,,,,,,,,,,z,1,0.6654,,,,,,,,0.12358941,-0.368789062,0,0,0,,0,42,42,131,1,NACES,LB,old,z,./images/NACESLB.png,,,,,,,,,,,,,,,,,,,,,,
,,,,,,,,,,,,,,,,,198802,18,2022-01-28_18h05.14.327,lexical_decision_task_DD_L6,2021.2.3,MacIntel,60.0024001,,,,,,,,,,,0.6474,1,,,,,,,,,,,,,,,z,1,0.6474,,,,,,,,0.12358941,-0.368789062,0,0,0,,0,43,43,164,1,SGREW,LB,old,z,./images/SGREWLB.png,,,,,,,,,,,,,,,,,,,,,,
,,,,,,,,,,,,,,,,,198802,18,2022-01-28_18h05.14.327,lexical_decision_task_DD_L6,2021.2.3,MacIntel,60.0024001,,,,,,,,,,,0.6326,1,,,,,,,,,,,,,,,z,1,0.6326,,,,,,,,0.12358941,-0.368789062,0,0,0,,0,44,44,95,1,HANTY,LB,old,z,./images/HANTYLB.png,,,,,,,,,,,,,,,,,,,,,,
,,,,,,,,,,,,,,,,,198802,18,2022-01-28_18h05.14.327,lexical_decision_task_DD_L6,2021.2.3,MacIntel,60.0024001,,,,,,,,,,,0.4141,1,,,,,,,,,,,,,,,m,1,0.4141,,,,,,,,0.12358941,-0.368789062,0,0,0,,0,45,45,67,1,POKER,C,old,m,./images/POKER.png,,,,,,,,,,,,,,,,,,,,,,
,,,,,,,,,,,,,,,,,198802,18,2022-01-28_18h05.14.327,lexical_decision_task_DD_L6,2021.2.3,MacIntel,60.0024001,,,,,,,,,,,1.1981,1,,,,,,,,,,,,,,,z,1,1.1981,,,,,,,,0.12358941,-0.368789062,0,0,0,,0,46,46,112,1,MYING,HB,old,z,./images/MYINGHB.png,,,,,,,,,,,,,,,,,,,,,,
,,,,,,,,,,,,,,,,,198802,18,2022-01-28_18h05.14.327,lexical_decision_task_DD_L6,2021.2.3,MacIntel,60.0024001,,,,,,,,,,,0.571,1,,,,,,,,,,,,,,,m,1,0.571,,,,,,,,0.12358941,-0.368789062,0,0,0,,0,47,47,34,1,RAZOR,C,old,m,./images/RAZOR.png,,,,,,,,,,,,,,,,,,,,,,
,,,,,,,,,,,,,,,,,198802,18,2022-01-28_18h05.14.327,lexical_decision_task_DD_L6,2021.2.3,MacIntel,60.0024001,,,,,,,,,,,0.6567,1,,,,,,,,,,,,,,,z,1,0.6567,,,,,,,,0.12358941,-0.368789062,0,0,0,,0,48,48,106,1,CLUMS,HB,old,z,./images/CLUMSHB.png,,,,,,,,,,,,,,,,,,,,,,
,,,,,,,,,,,,,,,,,198802,18,2022-01-28_18h05.14.327,lexical_decision_task_DD_L6,2021.2.3,MacIntel,60.0024001,,,,,,,,,,,0.9156,1,,,,,,,,,,,,,,,z,1,0.9156,,,,,,,,0.12358941,-0.368789062,0,0,0,,0,49,49,94,1,BLANS,HB,old,z,./images/BLANSHB.png,,,,,,,,,,,,,,,,,,,,,,
,,,,,,,,,,,,,,,,,198802,18,2022-01-28_18h05.14.327,lexical_decision_task_DD_L6,2021.2.3,MacIntel,60.0024001,,,,,,,,,,,0.6931,1,,,,,,,,,,,,,,,z,1,0.6931,,,,,,,,0.12358941,-0.368789062,0,0,0,,0,50,50,93,1,SMONE,C,old,z,./images/SMONE.png,,,,,,,,,,,,,,,,,,,,,,
,,,,,,,,,,,,,,,,,198802,18,2022-01-28_18h05.14.327,lexical_decision_task_DD_L6,2021.2.3,MacIntel,60.0024001,,,,,,,,,,,0.7377,1,,,,,,,,,,,,,,,z,1,0.7377,,,,,,,,0.12358941,-0.368789062,0,0,0,,0,51,51,99,1,BACKY,C,old,z,./images/BACKY.png,,,,,,,,,,,,,,,,,,,,,,
,,,,,,,,,,,,,,,,,198802,18,2022-01-28_18h05.14.327,lexical_decision_task_DD_L6,2021.2.3,MacIntel,60.0024001,,,,,,,,,,,0.7149,1,,,,,,,,,,,,,,,z,1,0.7149,,,,,,,,0.12358941,-0.368789062,0,0,0,,0,52,52,124,1,TUNCH,HB,old,z,./images/TUNCHHB.png,,,,,,,,,,,,,,,,,,,,,,
,,,,,,,,,,,,,,,,,198802,18,2022-01-28_18h05.14.327,lexical_decision_task_DD_L6,2021.2.3,MacIntel,60.0024001,,,,,,,,,,,0.6515,1,,,,,,,,,,,,,,,m,1,0.6515,,,,,,,,0.12358941,-0.368789062,0,0,0,,0,53,53,5,1,BAMBOO,HB,old,m,./images/BAMBOOHB.png,,,,,,,,,,,,,,,,,,,,,,
,,,,,,,,,,,,,,,,,198802,18,2022-01-28_18h05.14.327,lexical_decision_task_DD_L6,2021.2.3,MacIntel,60.0024001,,,,,,,,,,,0.6745,1,,,,,,,,,,,,,,,m,1,0.6745,,,,,,,,0.12358941,-0.368789062,0,0,0,,0,54,54,2,1,STOVE,HB,old,m,./images/STOVEHB.png,,,,,,,,,,,,,,,,,,,,,,
,,,,,,,,,,,,,,,,,198802,18,2022-01-28_18h05.14.327,lexical_decision_task_DD_L6,2021.2.3,MacIntel,60.0024001,,,,,,,,,,,0.585,1,,,,,,,,,,,,,,,m,1,0.585,,,,,,,,0.12358941,-0.368789062,0,0,0,,0,55,55,0,1,WALNUT,LB,old,m,./images/WALNUTLB.png,,,,,,,,,,,,,,,,,,,,,,
,,,,,,,,,,,,,,,,,198802,18,2022-01-28_18h05.14.327,lexical_decision_task_DD_L6,2021.2.3,MacIntel,60.0024001,,,,,,,,,,,1.0832,1,,,,,,,,,,,,,,,z,1,1.0832,,,,,,,,0.12358941,-0.368789062,0,0,0,,0,56,56,166,1,SHORY,HB,old,z,./images/SHORYHB.png,,,,,,,,,,,,,,,,,,,,,,
,,,,,,,,,,,,,,,,,198802,18,2022-01-28_18h05.14.327,lexical_decision_task_DD_L6,2021.2.3,MacIntel,60.0024001,,,,,,,,,,,0.667,1,,,,,,,,,,,,,,,m,1,0.667,,,,,,,,0.12358941,-0.368789062,0,0,0,,0,57,57,80,1,PLANET,HB,old,m,./images/PLANETHB.png,,,,,,,,,,,,,,,,,,,,,,
,,,,,,,,,,,,,,,,,198802,18,2022-01-28_18h05.14.327,lexical_decision_task_DD_L6,2021.2.3,MacIntel,60.0024001,,,,,,,,,,,0.6746,1,,,,,,,,,,,,,,,z,1,0.6746,,,,,,,,0.12358941,-0.368789062,0,0,0,,0,58,58,138,1,PLICE,C,old,z,./images/PLICE.png,,,,,,,,,,,,,,,,,,,,,,
,,,,,,,,,,,,,,,,,198802,18,2022-01-28_18h05.14.327,lexical_decision_task_DD_L6,2021.2.3,MacIntel,60.0024001,,,,,,,,,,,0.6053,1,,,,,,,,,,,,,,,z,1,0.6053,,,,,,,,0.12358941,-0.368789062,0,0,0,,0,59,59,132,1,SCIFF,C,old,z,./images/SCIFF.png,,,,,,,,,,,,,,,,,,,,,,
,,,,,,,,,,,,,,,,,198802,18,2022-01-28_18h05.14.327,lexical_decision_task_DD_L6,2021.2.3,MacIntel,60.0024001,,,,,,,,,,,0.5482,1,,,,,,,,,,,,,,,m,1,0.5482,,,,,,,,0.12358941,-0.368789062,0,0,0,,0,60,60,15,1,COLLAR,LB,old,m,./images/COLLARLB.png,,,,,,,,,,,,,,,,,,,,,,
,,,,,,,,,,,,,,,,,198802,18,2022-01-28_18h05.14.327,lexical_decision_task_DD_L6,2021.2.3,MacIntel,60.0024001,,,,,,,,,,,0.6337,1,,,,,,,,,,,,,,,z,1,0.6337,,,,,,,,0.12358941,-0.368789062,0,0,0,,0,61,61,113,1,LINEW,LB,old,z,./images/LINEWLB.png,,,,,,,,,,,,,,,,,,,,,,
,,,,,,,,,,,,,,,,,198802,18,2022-01-28_18h05.14.327,lexical_decision_task_DD_L6,2021.2.3,MacIntel,60.0024001,,,,,,,,,,,0.5523,1,,,,,,,,,,,,,,,z,1,0.5523,,,,,,,,0.12358941,-0.368789062,0,0,0,,0,62,62,89,1,DRIEK,LB,old,z,./images/DRIEKLB.png,,,,,,,,,,,,,,,,,,,,,,
,,,,,,,,,,,,,,,,,198802,18,2022-01-28_18h05.14.327,lexical_decision_task_DD_L6,2021.2.3,MacIntel,60.0024001,,,,,,,,,,,0.6232,1,,,,,,,,,,,,,,,z,1,0.6232,,,,,,,,0.12358941,-0.368789062,0,0,0,,0,63,63,153,1,CLUPS,C,old,z,./images/CLUPS.png,,,,,,,,,,,,,,,,,,,,,,
,,,,,,,,,,,,,,,,,198802,18,2022-01-28_18h05.14.327,lexical_decision_task_DD_L6,2021.2.3,MacIntel,60.0024001,,,,,,,,,,,0.4054,0,,,,,,,,,,,,,,,z,0,0.4054,,,,,,,,0.12358941,-0.368789062,0,0,0,,0,64,64,36,1,BOILER,LB,old,m,./images/BOILERLB.png,,,,,,,,,,,,,,,,,,,,,,
,,,,,,,,,,,,,,,,,198802,18,2022-01-28_18h05.14.327,lexical_decision_task_DD_L6,2021.2.3,MacIntel,60.0024001,,,,,,,,,,,0.6856,1,,,,,,,,,,,,,,,z,1,0.6856,,,,,,,,0.12358941,-0.368789062,0,0,0,,0,65,65,152,1,FRAIN,LB,old,z,./images/FRAINLB.png,,,,,,,,,,,,,,,,,,,,,,
,,,,,,,,,,,,,,,,,198802,18,2022-01-28_18h05.14.327,lexical_decision_task_DD_L6,2021.2.3,MacIntel,60.0024001,,,,,,,,,,,0.9681,1,,,,,,,,,,,,,,,z,1,0.9681,,,,,,,,0.12358941,-0.368789062,0,0,0,,0,66,66,109,1,BURGE,HB,old,z,./images/BURGEHB.png,,,,,,,,,,,,,,,,,,,,,,
,,,,,,,,,,,,,,,,,198802,18,2022-01-28_18h05.14.327,lexical_decision_task_DD_L6,2021.2.3,MacIntel,60.0024001,,,,,,,,,,,0.5419,1,,,,,,,,,,,,,,,z,1,0.5419,,,,,,,,0.12358941,-0.368789062,0,0,0,,0,67,67,90,1,NEAST,C,old,z,./images/NEAST.png,,,,,,,,,,,,,,,,,,,,,,
,,,,,,,,,,,,,,,,,198802,18,2022-01-28_18h05.14.327,lexical_decision_task_DD_L6,2021.2.3,MacIntel,60.0024001,,,,,,,,,,,0.5704,1,,,,,,,,,,,,,,,z,1,0.5704,,,,,,,,0.12358941,-0.368789062,0,0,0,,0,68,68,140,1,DOVET,LB,old,z,./images/DOVETLB.png,,,,,,,,,,,,,,,,,,,,,,
,,,,,,,,,,,,,,,,,198802,18,2022-01-28_18h05.14.327,lexical_decision_task_DD_L6,2021.2.3,MacIntel,60.0024001,,,,,,,,,,,0.5968,1,,,,,,,,,,,,,,,z,1,0.5968,,,,,,,,0.12358941,-0.368789062,0,0,0,,0,69,69,128,1,GRIFT,LB,old,z,./images/GRIFTLB.png,,,,,,,,,,,,,,,,,,,,,,
,,,,,,,,,,,,,,,,,198802,18,2022-01-28_18h05.14.327,lexical_decision_task_DD_L6,2021.2.3,MacIntel,60.0024001,,,,,,,,,,,0.4049,0,,,,,,,,,,,,,,,z,0,0.4049,,,,,,,,0.12358941,-0.368789062,0,0,0,,0,70,70,3,1,CRATER,LB,old,m,./images/CRATERLB.png,,,,,,,,,,,,,,,,,,,,,,
,,,,,,,,,,,,,,,,,198802,18,2022-01-28_18h05.14.327,lexical_decision_task_DD_L6,2021.2.3,MacIntel,60.0024001,,,,,,,,,,,0.6157,1,,,,,,,,,,,,,,,m,1,0.6157,,,,,,,,0.12358941,-0.368789062,0,0,0,,0,71,71,30,1,SLOPE,LB,old,m,./images/SLOPELB.png,,,,,,,,,,,,,,,,,,,,,,
,,,,,,,,,,,,,,,,,198802,18,2022-01-28_18h05.14.327,lexical_decision_task_DD_L6,2021.2.3,MacIntel,60.0024001,,,,,,,,,,,0.6624,1,,,,,,,,,,,,,,,z,1,0.6624,,,,,,,,0.12358941,-0.368789062,0,0,0,,0,72,72,116,1,BALGY,LB,old,z,./images/BALGYLB.png,,,,,,,,,,,,,,,,,,,,,,
,,,,,,,,,,,,,,,,,198802,18,2022-01-28_18h05.14.327,lexical_decision_task_DD_L6,2021.2.3,MacIntel,60.0024001,,,,,,,,,,,0.7969,1,,,,,,,,,,,,,,,z,1,0.7969,,,,,,,,0.12358941,-0.368789062,0,0,0,,0,73,73,91,1,SHENS,HB,old,z,./images/SHENSHB.png,,,,,,,,,,,,,,,,,,,,,,
,,,,,,,,,,,,,,,,,198802,18,2022-01-28_18h05.14.327,lexical_decision_task_DD_L6,2021.2.3,MacIntel,60.0024001,,,,,,,,,,,0.6553,0,,,,,,,,,,,,,,,z,0,0.6553,,,,,,,,0.12358941,-0.368789062,0,0,0,,0,74,74,12,1,BLOKE,LB,old,m,./images/BLOKELB.png,,,,,,,,,,,,,,,,,,,,,,
,,,,,,,,,,,,,,,,,198802,18,2022-01-28_18h05.14.327,lexical_decision_task_DD_L6,2021.2.3,MacIntel,60.0024001,,,,,,,,,,,0.5825,1,,,,,,,,,,,,,,,m,1,0.5825,,,,,,,,0.12358941,-0.368789062,0,0,0,,0,75,75,54,1,CHERRY,LB,old,m,./images/CHERRYLB.png,,,,,,,,,,,,,,,,,,,,,,
,,,,,,,,,,,,,,,,,198802,18,2022-01-28_18h05.14.327,lexical_decision_task_DD_L6,2021.2.3,MacIntel,60.0024001,,,,,,,,,,,0.57,1,,,,,,,,,,,,,,,z,1,0.57,,,,,,,,0.12358941,-0.368789062,0,0,0,,0,76,76,123,1,SEDGE,C,old,z,./images/SEDGE.png,,,,,,,,,,,,,,,,,,,,,,
,,,,,,,,,,,,,,,,,198802,18,2022-01-28_18h05.14.327,lexical_decision_task_DD_L6,2021.2.3,MacIntel,60.0024001,,,,,,,,,,,0.7663,1,,,,,,,,,,,,,,,z,1,0.7663,,,,,,,,0.12358941,-0.368789062,0,0,0,,0,77,77,157,1,INLER,HB,old,z,./images/INLERHB.png,,,,,,,,,,,,,,,,,,,,,,
,,,,,,,,,,,,,,,,,198802,18,2022-01-28_18h05.14.327,lexical_decision_task_DD_L6,2021.2.3,MacIntel,60.0024001,,,,,,,,,,,1.1383,1,,,,,,,,,,,,,,,z,1,1.1383,,,,,,,,0.12358941,-0.368789062,0,0,0,,0,78,78,139,1,BLEAR,HB,old,z,./images/BLEARHB.png,,,,,,,,,,,,,,,,,,,,,,
,,,,,,,,,,,,,,,,,198802,18,2022-01-28_18h05.14.327,lexical_decision_task_DD_L6,2021.2.3,MacIntel,60.0024001,,,,,,,,,,,0.9664,1,,,,,,,,,,,,,,,z,1,0.9664,,,,,,,,0.12358941,-0.368789062,0,0,0,,0,79,79,154,1,THINT,HB,old,z,./images/THINTHB.png,,,,,,,,,,,,,,,,,,,,,,
,,,,,,,,,,,,,,,,,198802,18,2022-01-28_18h05.14.327,lexical_decision_task_DD_L6,2021.2.3,MacIntel,60.0024001,,,,,,,,,,,1.053,1,,,,,,,,,,,,,,,z,1,1.053,,,,,,,,0.12358941,-0.368789062,0,0,0,,0,80,80,115,1,MAWNS,HB,old,z,./images/MAWNSHB.png,,,,,,,,,,,,,,,,,,,,,,
,,,,,,,,,,,,,,,,,198802,18,2022-01-28_18h05.14.327,lexical_decision_task_DD_L6,2021.2.3,MacIntel,60.0024001,,,,,,,,,,,1.0492,1,,,,,,,,,,,,,,,m,1,1.0492,,,,,,,,0.12358941,-0.368789062,0,0,0,,0,81,81,23,1,CLOTH,HB,old,m,./images/CLOTHHB.png,,,,,,,,,,,,,,,,,,,,,,
,,,,,,,,,,,,,,,,,198802,18,2022-01-28_18h05.14.327,lexical_decision_task_DD_L6,2021.2.3,MacIntel,60.0024001,,,,,,,,,,,0.5906,1,,,,,,,,,,,,,,,m,1,0.5906,,,,,,,,0.12358941,-0.368789062,0,0,0,,0,82,82,43,1,STOOL,C,old,m,./images/STOOL.png,,,,,,,,,,,,,,,,,,,,,,
,,,,,,,,,,,,,,,,,198802,18,2022-01-28_18h05.14.327,lexical_decision_task_DD_L6,2021.2.3,MacIntel,60.0024001,,,,,,,,,,,0.5982,1,,,,,,,,,,,,,,,m,1,0.5982,,,,,,,,0.12358941,-0.368789062,0,0,0,space,0,83,83,8,1,CLIFF,HB,old,m,./images/CLIFFHB.png,,1.9502,,,,,,,,,,,,,,,,,,,,
,,,,,,,,,,,,,,,,,198802,18,2022-01-28_18h05.14.327,lexical_decision_task_DD_L6,2021.2.3,MacIntel,60.0024001,,,,,,,,,,,0.5889,1,,,,,,,,,,,,,,,m,1,0.5889,,,,,,,,0.12358941,-0.368789062,0,0,0,,0,84,84,76,1,MIDGET,C,old,m,./images/MIDGET.png,,,,,,,,,,,,,,,,,,,,,,
,,,,,,,,,,,,,,,,,198802,18,2022-01-28_18h05.14.327,lexical_decision_task_DD_L6,2021.2.3,MacIntel,60.0024001,,,,,,,,,,,0.8841,1,,,,,,,,,,,,,,,m,1,0.8841,,,,,,,,0.12358941,-0.368789062,0,0,0,,0,85,85,41,1,STREAM,HB,old,m,./images/STREAMHB.png,,,,,,,,,,,,,,,,,,,,,,
,,,,,,,,,,,,,,,,,198802,18,2022-01-28_18h05.14.327,lexical_decision_task_DD_L6,2021.2.3,MacIntel,60.0024001,,,,,,,,,,,1.2003,1,,,,,,,,,,,,,,,z,1,1.2003,,,,,,,,0.12358941,-0.368789062,0,0,0,,0,86,86,130,1,CRILL,HB,old,z,./images/CRILLHB.png,,,,,,,,,,,,,,,,,,,,,,
,,,,,,,,,,,,,,,,,198802,18,2022-01-28_18h05.14.327,lexical_decision_task_DD_L6,2021.2.3,MacIntel,60.0024001,,,,,,,,,,,0.7045,1,,,,,,,,,,,,,,,z,1,0.7045,,,,,,,,0.12358941,-0.368789062,0,0,0,,0,87,87,87,1,TRING,C,old,z,./images/TRING.png,,,,,,,,,,,,,,,,,,,,,,
,,,,,,,,,,,,,,,,,198802,18,2022-01-28_18h05.14.327,lexical_decision_task_DD_L6,2021.2.3,MacIntel,60.0024001,,,,,,,,,,,0.6253,1,,,,,,,,,,,,,,,z,1,0.6253,,,,,,,,0.12358941,-0.368789062,0,0,0,,0,88,88,104,1,GITTY,LB,old,z,./images/GITTYLB.png,,,,,,,,,,,,,,,,,,,,,,
,,,,,,,,,,,,,,,,,198802,18,2022-01-28_18h05.14.327,lexical_decision_task_DD_L6,2021.2.3,MacIntel,60.0024001,,,,,,,,,,,0.411,1,,,,,,,,,,,,,,,m,1,0.411,,,,,,,,0.12358941,-0.368789062,0,0,0,,0,89,89,46,1,MUMMY,C,old,m,./images/MUMMY.png,,,,,,,,,,,,,,,,,,,,,,
,,,,,,,,,,,,,,,,,198802,18,2022-01-28_18h05.14.327,lexical_decision_task_DD_L6,2021.2.3,MacIntel,60.0024001,,,,,,,,,,,0.6066,1,,,,,,,,,,,,,,,z,1,0.6066,,,,,,,,0.12358941,-0.368789062,0,0,0,,0,90,90,150,1,NOOLS,C,old,z,./images/NOOLS.png,,,,,,,,,,,,,,,,,,,,,,
,,,,,,,,,,,,,,,,,198802,18,2022-01-28_18h05.14.327,lexical_decision_task_DD_L6,2021.2.3,MacIntel,60.0024001,,,,,,,,,,,1.0163,1,,,,,,,,,,,,,,,m,1,1.0163,,,,,,,,0.12358941,-0.368789062,0,0,0,,0,91,91,53,1,POSTER,HB,old,m,./images/POSTERHB.png,,,,,,,,,,,,,,,,,,,,,,
,,,,,,,,,,,,,,,,,198802,18,2022-01-28_18h05.14.327,lexical_decision_task_DD_L6,2021.2.3,MacIntel,60.0024001,,,,,,,,,,,0.6078,1,,,,,,,,,,,,,,,m,1,0.6078,,,,,,,,0.12358941,-0.368789062,0,0,0,,0,92,92,28,1,CASINO,C,old,m,./images/CASINO.png,,,,,,,,,,,,,,,,,,,,,,
,,,,,,,,,,,,,,,,,198802,18,2022-01-28_18h05.14.327,lexical_decision_task_DD_L6,2021.2.3,MacIntel,60.0024001,,,,,,,,,,,0.5159,1,,,,,,,,,,,,,,,z,1,0.5159,,,,,,,,0.12358941,-0.368789062,0,0,0,,0,93,93,167,1,ZONET,LB,old,z,./images/ZONETLB.png,,,,,,,,,,,,,,,,,,,,,,
,,,,,,,,,,,,,,,,,198802,18,2022-01-28_18h05.14.327,lexical_decision_task_DD_L6,2021.2.3,MacIntel,60.0024001,,,,,,,,,,,0.6741,1,,,,,,,,,,,,,,,z,1,0.6741,,,,,,,,0.12358941,-0.368789062,0,0,0,,0,94,94,145,1,LAMEL,HB,old,z,./images/LAMELHB.png,,,,,,,,,,,,,,,,,,,,,,
,,,,,,,,,,,,,,,,,198802,18,2022-01-28_18h05.14.327,lexical_decision_task_DD_L6,2021.2.3,MacIntel,60.0024001,,,,,,,,,,,0.4404,1,,,,,,,,,,,,,,,m,1,0.4404,,,,,,,,0.12358941,-0.368789062,0,0,0,,0,95,95,72,1,FLASK,LB,old,m,./images/FLASKLB.png,,,,,,,,,,,,,,,,,,,,,,
,,,,,,,,,,,,,,,,,198802,18,2022-01-28_18h05.14.327,lexical_decision_task_DD_L6,2021.2.3,MacIntel,60.0024001,,,,,,,,,,,0.5314,1,,,,,,,,,,,,,,,m,1,0.5314,,,,,,,,0.12358941,-0.368789062,0,0,0,,0,96,96,68,1,VALLEY,HB,old,m,./images/VALLEYHB.png,,,,,,,,,,,,,,,,,,,,,,
,,,,,,,,,,,,,,,,,198802,18,2022-01-28_18h05.14.327,lexical_decision_task_DD_L6,2021.2.3,MacIntel,60.0024001,,,,,,,,,,,0.8161,1,,,,,,,,,,,,,,,z,1,0.8161,,,,,,,,0.12358941,-0.368789062,0,0,0,,0,97,97,107,1,FASKS,LB,old,z,./images/FASKSLB.png,,,,,,,,,,,,,,,,,,,,,,
,,,,,,,,,,,,,,,,,198802,18,2022-01-28_18h05.14.327,lexical_decision_task_DD_L6,2021.2.3,MacIntel,60.0024001,,,,,,,,,,,0.5049,1,,,,,,,,,,,,,,,m,1,0.5049,,,,,,,,0.12358941,-0.368789062,0,0,0,,0,98,98,70,1,BANANA,C,old,m,./images/BANANA.png,,,,,,,,,,,,,,,,,,,,,,
,,,,,,,,,,,,,,,,,198802,18,2022-01-28_18h05.14.327,lexical_decision_task_DD_L6,2021.2.3,MacIntel,60.0024001,,,,,,,,,,,1.0247,1,,,,,,,,,,,,,,,z,1,1.0247,,,,,,,,0.12358941,-0.368789062,0,0,0,,0,99,99,161,1,BLAPS,LB,old,z,./images/BLAPSLB.png,,,,,,,,,,,,,,,,,,,,,,
,,,,,,,,,,,,,,,,,198802,18,2022-01-28_18h05.14.327,lexical_decision_task_DD_L6,2021.2.3,MacIntel,60.0024001,,,,,,,,,,,0.3909,0,,,,,,,,,,,,,,,z,0,0.3909,,,,,,,,0.12358941,-0.368789062,0,0,0,,0,100,100,55,1,ALLEY,C,old,m,./images/ALLEY.png,,,,,,,,,,,,,,,,,,,,,,
,,,,,,,,,,,,,,,,,198802,18,2022-01-28_18h05.14.327,lexical_decision_task_DD_L6,2021.2.3,MacIntel,60.0024001,,,,,,,,,,,0.8165,1,,,,,,,,,,,,,,,z,1,0.8165,,,,,,,,0.12358941,-0.368789062,0,0,0,,0,101,101,127,1,NINDY,HB,old,z,./images/NINDYHB.png,,,,,,,,,,,,,,,,,,,,,,
,,,,,,,,,,,,,,,,,198802,18,2022-01-28_18h05.14.327,lexical_decision_task_DD_L6,2021.2.3,MacIntel,60.0024001,,,,,,,,,,,0.5377,1,,,,,,,,,,,,,,,m,1,0.5377,,,,,,,,0.12358941,-0.368789062,0,0,0,,0,102,102,74,1,JUMPER,HB,old,m,./images/JUMPERHB.png,,,,,,,,,,,,,,,,,,,,,,
,,,,,,,,,,,,,,,,,198802,18,2022-01-28_18h05.14.327,lexical_decision_task_DD_L6,2021.2.3,MacIntel,60.0024001,,,,,,,,,,,0.5394,1,,,,,,,,,,,,,,,m,1,0.5394,,,,,,,,0.12358941,-0.368789062,0,0,0,,0,103,103,7,1,WAGON,C,old,m,./images/WAGON.png,,,,,,,,,,,,,,,,,,,,,,
,,,,,,,,,,,,,,,,,198802,18,2022-01-28_18h05.14.327,lexical_decision_task_DD_L6,2021.2.3,MacIntel,60.0024001,,,,,,,,,,,0.6159,1,,,,,,,,,,,,,,,m,1,0.6159,,,,,,,,0.12358941,-0.368789062,0,0,0,,0,104,104,18,1,PARCEL,LB,old,m,./images/PARCELLB.png,,,,,,,,,,,,,,,,,,,,,,
,,,,,,,,,,,,,,,,,198802,18,2022-01-28_18h05.14.327,lexical_decision_task_DD_L6,2021.2.3,MacIntel,60.0024001,,,,,,,,,,,0.4661,1,,,,,,,,,,,,,,,m,1,0.4661,,,,,,,,0.12358941,-0.368789062,0,0,0,,0,105,105,57,1,FERRY,LB,old,m,./images/FERRYLB.png,,,,,,,,,,,,,,,,,,,,,,
,,,,,,,,,,,,,,,,,198802,18,2022-01-28_18h05.14.327,lexical_decision_task_DD_L6,2021.2.3,MacIntel,60.0024001,,,,,,,,,,,0.5506,1,,,,,,,,,,,,,,,m,1,0.5506,,,,,,,,0.12358941,-0.368789062,0,0,0,,0,106,106,81,1,DRILL,LB,old,m,./images/DRILLLB.png,,,,,,,,,,,,,,,,,,,,,,
,,,,,,,,,,,,,,,,,198802,18,2022-01-28_18h05.14.327,lexical_decision_task_DD_L6,2021.2.3,MacIntel,60.0024001,,,,,,,,,,,0.6846,1,,,,,,,,,,,,,,,z,1,0.6846,,,,,,,,0.12358941,-0.368789062,0,0,0,,0,107,107,151,1,TINKY,HB,old,z,./images/TINKYHB.png,,,,,,,,,,,,,,,,,,,,,,
,,,,,,,,,,,,,,,,,198802,18,2022-01-28_18h05.14.327,lexical_decision_task_DD_L6,2021.2.3,MacIntel,60.0024001,,,,,,,,,,,0.7344,1,,,,,,,,,,,,,,,z,1,0.7344,,,,,,,,0.12358941,-0.368789062,0,0,0,,0,108,108,118,1,BAVEL,HB,old,z,./images/BAVELHB.png,,,,,,,,,,,,,,,,,,,,,,
,,,,,,,,,,,,,,,,,198802,18,2022-01-28_18h05.14.327,lexical_decision_task_DD_L6,2021.2.3,MacIntel,60.0024001,,,,,,,,,,,0.5899,1,,,,,,,,,,,,,,,m,1,0.5899,,,,,,,,0.12358941,-0.368789062,0,0,0,,0,109,109,69,1,ARROW,LB,old,m,./images/ARROWLB.png,,,,,,,,,,,,,,,,,,,,,,
,,,,,,,,,,,,,,,,,198802,18,2022-01-28_18h05.14.327,lexical_decision_task_DD_L6,2021.2.3,MacIntel,60.0024001,,,,,,,,,,,0.6329,1,,,,,,,,,,,,,,,m,1,0.6329,,,,,,,,0.12358941,-0.368789062,0,0,0,,0,110,110,47,1,LAGOON,HB,old,m,./images/LAGOONHB.png,,,,,,,,,,,,,,,,,,,,,,
,,,,,,,,,,,,,,,,,198802,18,2022-01-28_18h05.14.327,lexical_decision_task_DD_L6,2021.2.3,MacIntel,60.0024001,,,,,,,,,,,0.4201,1,,,,,,,,,,,,,,,m,1,0.4201,,,,,,,,0.12358941,-0.368789062,0,0,0,,0,111,111,27,1,BUTTER,LB,old,m,./images/BUTTERLB.png,,,,,,,,,,,,,,,,,,,,,,
,,,,,,,,,,,,,,,,,198802,18,2022-01-28_18h05.14.327,lexical_decision_task_DD_L6,2021.2.3,MacIntel,60.0024001,,,,,,,,,,,0.6645,1,,,,,,,,,,,,,,,z,1,0.6645,,,,,,,,0.12358941,-0.368789062,0,0,0,,0,112,112,144,1,NAIRY,C,old,z,./images/NAIRY.png,,,,,,,,,,,,,,,,,,,,,,
,,,,,,,,,,,,,,,,,198802,18,2022-01-28_18h05.14.327,lexical_decision_task_DD_L6,2021.2.3,MacIntel,60.0024001,,,,,,,,,,,0.6703,1,,,,,,,,,,,,,,,z,1,0.6703,,,,,,,,0.12358941,-0.368789062,0,0,0,,0,113,113,143,1,MONGS,LB,old,z,./images/MONGSLB.png,,,,,,,,,,,,,,,,,,,,,,
,,,,,,,,,,,,,,,,,198802,18,2022-01-28_18h05.14.327,lexical_decision_task_DD_L6,2021.2.3,MacIntel,60.0024001,,,,,,,,,,,0.7383,1,,,,,,,,,,,,,,,z,1,0.7383,,,,,,,,0.12358941,-0.368789062,0,0,0,,0,114,114,102,1,DULLE,C,old,z,./images/DULLE.png,,,,,,,,,,,,,,,,,,,,,,
,,,,,,,,,,,,,,,,,198802,18,2022-01-28_18h05.14.327,lexical_decision_task_DD_L6,2021.2.3,MacIntel,60.0024001,,,,,,,,,,,0.7843,1,,,,,,,,,,,,,,,m,1,0.7843,,,,,,,,0.12358941,-0.368789062,0,0,0,,0,115,115,44,1,BASKET,HB,old,m,./images/BASKETHB.png,,,,,,,,,,,,,,,,,,,,,,
,,,,,,,,,,,,,,,,,198802,18,2022-01-28_18h05.14.327,lexical_decision_task_DD_L6,2021.2.3,MacIntel,60.0024001,,,,,,,,,,,1.5386,1,,,,,,,,,,,,,,,z,1,1.5386,,,,,,,,0.12358941,-0.368789062,0,0,0,,0,116,116,85,1,CHULK,HB,old,z,./images/CHULKHB.png,,,,,,,,,,,,,,,,,,,,,,
,,,,,,,,,,,,,,,,,198802,18,2022-01-28_18h05.14.327,lexical_decision_task_DD_L6,2021.2.3,MacIntel,60.0024001,,,,,,,,,,,0.5191,0,,,,,,,,,,,,,,,z,0,0.5191,,,,,,,,0.12358941,-0.368789062,0,0,0,,0,117,117,75,1,HAMMER,LB,old,m,./images/HAMMERLB.png,,,,,,,,,,,,,,,,,,,,,,
,,,,,,,,,,,,,,,,,198802,18,2022-01-28_18h05.14.327,lexical_decision_task_DD_L6,2021.2.3,MacIntel,60.0024001,,,,,,,,,,,0.5325,1,,,,,,,,,,,,,,,m,1,0.5325,,,,,,,,0.12358941,-0.368789062,0,0,0,,0,118,118,45,1,MONKEY,LB,old,m,./images/MONKEYLB.png,,,,,,,,,,,,,,,,,,,,,,
,,,,,,,,,,,,,,,,,198802,18,2022-01-28_18h05.14.327,lexical_decision_task_DD_L6,2021.2.3,MacIntel,60.0024001,,,,,,,,,,,0.5024,1,,,,,,,,,,,,,,,m,1,0.5024,,,,,,,,0.12358941,-0.368789062,0,0,0,,0,119,119,39,1,CANDY,LB,old,m,./images/CANDYLB.png,,,,,,,,,,,,,,,,,,,,,,
,,,,,,,,,,,,,,,,,198802,18,2022-01-28_18h05.14.327,lexical_decision_task_DD_L6,2021.2.3,MacIntel,60.0024001,,,,,,,,,,,0.995,1,,,,,,,,,,,,,,,z,1,0.995,,,,,,,,0.12358941,-0.368789062,0,0,0,,0,120,120,148,1,JOMS,HB,old,z,./images/JOMSHB.png,,,,,,,,,,,,,,,,,,,,,,
,,,,,,,,,,,,,,,,,198802,18,2022-01-28_18h05.14.327,lexical_decision_task_DD_L6,2021.2.3,MacIntel,60.0024001,,,,,,,,,,,0.6321,1,,,,,,,,,,,,,,,m,1,0.6321,,,,,,,,0.12358941,-0.368789062,0,0,0,,0,121,121,71,1,BUBBLE,HB,old,m,./images/BUBBLEHB.png,,,,,,,,,,,,,,,,,,,,,,
,,,,,,,,,,,,,,,,,198802,18,2022-01-28_18h05.14.327,lexical_decision_task_DD_L6,2021.2.3,MacIntel,60.0024001,,,,,,,,,,,0.4905,1,,,,,,,,,,,,,,,m,1,0.4905,,,,,,,,0.12358941,-0.368789062,0,0,0,,0,122,122,37,1,TIGER,C,old,m,./images/TIGER.png,,,,,,,,,,,,,,,,,,,,,,
,,,,,,,,,,,,,,,,,198802,18,2022-01-28_18h05.14.327,lexical_decision_task_DD_L6,2021.2.3,MacIntel,60.0024001,,,,,,,,,,,0.502,1,,,,,,,,,,,,,,,m,1,0.502,,,,,,,,0.12358941,-0.368789062,0,0,0,,0,123,123,6,1,STAIN,LB,old,m,./images/STAINLB.png,,,,,,,,,,,,,,,,,,,,,,
,,,,,,,,,,,,,,,,,198802,18,2022-01-28_18h05.14.327,lexical_decision_task_DD_L6,2021.2.3,MacIntel,60.0024001,,,,,,,,,,,0.4495,1,,,,,,,,,,,,,,,m,1,0.4495,,,,,,,,0.12358941,-0.368789062,0,0,0,,0,124,124,4,1,BOXER,C,old,m,./images/BOXER.png,,,,,,,,,,,,,,,,,,,,,,
,,,,,,,,,,,,,,,,,198802,18,2022-01-28_18h05.14.327,lexical_decision_task_DD_L6,2021.2.3,MacIntel,60.0024001,,,,,,,,,,,0.3576,0,,,,,,,,,,,,,,,m,0,0.3576,,,,,,,,0.12358941,-0.368789062,0,0,0,space,0,125,125,105,1,MOKER,C,old,z,./images/MOKER.png,,1.7375,,,,,,,,,,,,,,,,,,,,
,,,,,,,,,,,,,,,,,198802,18,2022-01-28_18h05.14.327,lexical_decision_task_DD_L6,2021.2.3,MacIntel,60.0024001,,,,,,,,,,,0.6706,1,,,,,,,,,,,,,,,z,1,0.6706,,,,,,,,0.12358941,-0.368789062,0,0,0,,0,126,126,101,1,GLEET,LB,old,z,./images/GLEETLB.png,,,,,,,,,,,,,,,,,,,,,,
,,,,,,,,,,,,,,,,,198802,18,2022-01-28_18h05.14.327,lexical_decision_task_DD_L6,2021.2.3,MacIntel,60.0024001,,,,,,,,,,,0.7574,1,,,,,,,,,,,,,,,m,1,0.7574,,,,,,,,0.12358941,-0.368789062,0,0,0,,0,127,127,82,1,PEBBLE,C,old,m,./images/PEBBLE.png,,,,,,,,,,,,,,,,,,,,,,
,,,,,,,,,,,,,,,,,198802,18,2022-01-28_18h05.14.327,lexical_decision_task_DD_L6,2021.2.3,MacIntel,60.0024001,,,,,,,,,,,1.2552,1,,,,,,,,,,,,,,,m,1,1.2552,,,,,,,,0.12358941,-0.368789062,0,0,0,,0,128,128,62,1,MAMMAL,HB,old,m,./images/MAMMALHB.png,,,,,,,,,,,,,,,,,,,,,,
,,,,,,,,,,,,,,,,,198802,18,2022-01-28_18h05.14.327,lexical_decision_task_DD_L6,2021.2.3,MacIntel,60.0024001,,,,,,,,,,,0.4782,1,,,,,,,,,,,,,,,m,1,0.4782,,,,,,,,0.12358941,-0.368789062,0,0,0,,0,129,129,25,1,CHALK,C,old,m,./images/CHALK.png,,,,,,,,,,,,,,,,,,,,,,
,,,,,,,,,,,,,,,,,198802,18,2022-01-28_18h05.14.327,lexical_decision_task_DD_L6,2021.2.3,MacIntel,60.0024001,,,,,,,,,,,0.6374,1,,,,,,,,,,,,,,,z,1,0.6374,,,,,,,,0.12358941,-0.368789062,0,0,0,,0,130,130,165,1,TROWN,C,old,z,./images/TROWN.png,,,,,,,,,,,,,,,,,,,,,,
,,,,,,,,,,,,,,,,,198802,18,2022-01-28_18h05.14.327,lexical_decision_task_DD_L6,2021.2.3,MacIntel,60.0024001,,,,,,,,,,,0.6061,1,,,,,,,,,,,,,,,z,1,0.6061,,,,,,,,0.12358941,-0.368789062,0,0,0,,0,131,131,135,1,JOODY,C,old,z,./images/JOODY.png,,,,,,,,,,,,,,,,,,,,,,
,,,,,,,,,,,,,,,,,198802,18,2022-01-28_18h05.14.327,lexical_decision_task_DD_L6,2021.2.3,MacIntel,60.0024001,,,,,,,,,,,0.5493,1,,,,,,,,,,,,,,,m,1,0.5493,,,,,,,,0.12358941,-0.368789062,0,0,0,,0,132,132,42,1,CHAIN,LB,old,m,./images/CHAINLB.png,,,,,,,,,,,,,,,,,,,,,,
,,,,,,,,,,,,,,,,,198802,18,2022-01-28_18h05.14.327,lexical_decision_task_DD_L6,2021.2.3,MacIntel,60.0024001,,,,,,,,,,,0.6853,1,,,,,,,,,,,,,,,z,1,0.6853,,,,,,,,0.12358941,-0.368789062,0,0,0,,0,133,133,110,1,CRUNK,LB,old,z,./images/CRUNKLB.png,,,,,,,,,,,,,,,,,,,,,,
,,,,,,,,,,,,,,,,,198802,18,2022-01-28_18h05.14.327,lexical_decision_task_DD_L6,2021.2.3,MacIntel,60.0024001,,,,,,,,,,,0.5487,1,,,,,,,,,,,,,,,z,1,0.5487,,,,,,,,0.12358941,-0.368789062,0,0,0,,0,134,134,122,1,BLOOT,LB,old,z,./images/BLOOTLB.png,,,,,,,,,,,,,,,,,,,,,,
,,,,,,,,,,,,,,,,,198802,18,2022-01-28_18h05.14.327,lexical_decision_task_DD_L6,2021.2.3,MacIntel,60.0024001,,,,,,,,,,,0.5945,1,,,,,,,,,,,,,,,m,1,0.5945,,,,,,,,0.12358941,-0.368789062,0,0,0,,0,135,135,31,1,STEAK,C,old,m,./images/STEAK.png,,,,,,,,,,,,,,,,,,,,,,
,,,,,,,,,,,,,,,,,198802,18,2022-01-28_18h05.14.327,lexical_decision_task_DD_L6,2021.2.3,MacIntel,60.0024001,,,,,,,,,,,0.6008,1,,,,,,,,,,,,,,,m,1,0.6008,,,,,,,,0.12358941,-0.368789062,0,0,0,,0,136,136,51,1,SAUCE,LB,old,m,./images/SAUCELB.png,,,,,,,,,,,,,,,,,,,,,,
,,,,,,,,,,,,,,,,,198802,18,2022-01-28_18h05.14.327,lexical_decision_task_DD_L6,2021.2.3,MacIntel,60.0024001,,,,,,,,,,,0.6652,1,,,,,,,,,,,,,,,m,1,0.6652,,,,,,,,0.12358941,-0.368789062,0,0,0,,0,137,137,20,1,GRANNY,HB,old,m,./images/GRANNYHB.png,,,,,,,,,,,,,,,,,,,,,,
,,,,,,,,,,,,,,,,,198802,18,2022-01-28_18h05.14.327,lexical_decision_task_DD_L6,2021.2.3,MacIntel,60.0024001,,,,,,,,,,,0.6177,1,,,,,,,,,,,,,,,z,1,0.6177,,,,,,,,0.12358941,-0.368789062,0,0,0,,0,138,138,103,1,FLORT,HB,old,z,./images/FLORTHB.png,,,,,,,,,,,,,,,,,,,,,,
,,,,,,,,,,,,,,,,,198802,18,2022-01-28_18h05.14.327,lexical_decision_task_DD_L6,2021.2.3,MacIntel,60.0024001,,,,,,,,,,,0.475,1,,,,,,,,,,,,,,,m,1,0.475,,,,,,,,0.12358941,-0.368789062,0,0,0,,0,139,139,73,1,GLOVE,C,old,m,./images/GLOVE.png,,,,,,,,,,,,,,,,,,,,,,
,,,,,,,,,,,,,,,,,198802,18,2022-01-28_18h05.14.327,lexical_decision_task_DD_L6,2021.2.3,MacIntel,60.0024001,,,,,,,,,,,0.6356,1,,,,,,,,,,,,,,,m,1,0.6356,,,,,,,,0.12358941,-0.368789062,0,0,0,,0,140,140,33,1,SAUNA,LB,old,m,./images/SAUNALB.png,,,,,,,,,,,,,,,,,,,,,,
,,,,,,,,,,,,,,,,,198802,18,2022-01-28_18h05.14.327,lexical_decision_task_DD_L6,2021.2.3,MacIntel,60.0024001,,,,,,,,,,,1.068,1,,,,,,,,,,,,,,,z,1,1.068,,,,,,,,0.12358941,-0.368789062,0,0,0,,0,141,141,121,1,CEERS,HB,old,z,./images/CEERSHB.png,,,,,,,,,,,,,,,,,,,,,,
,,,,,,,,,,,,,,,,,198802,18,2022-01-28_18h05.14.327,lexical_decision_task_DD_L6,2021.2.3,MacIntel,60.0024001,,,,,,,,,,,0.433,1,,,,,,,,,,,,,,,m,1,0.433,,,,,,,,0.12358941,-0.368789062,0,0,0,,0,142,142,22,1,CLOWN,C,old,m,./images/CLOWN.png,,,,,,,,,,,,,,,,,,,,,,
,,,,,,,,,,,,,,,,,198802,18,2022-01-28_18h05.14.327,lexical_decision_task_DD_L6,2021.2.3,MacIntel,60.0024001,,,,,,,,,,,0.6167,0,,,,,,,,,,,,,,,z,0,0.6167,,,,,,,,0.12358941,-0.368789062,0,0,0,,0,143,143,50,1,PILOT,HB,old,m,./images/PILOTHB.png,,,,,,,,,,,,,,,,,,,,,,
,,,,,,,,,,,,,,,,,198802,18,2022-01-28_18h05.14.327,lexical_decision_task_DD_L6,2021.2.3,MacIntel,60.0024001,,,,,,,,,,,0.4061,0,,,,,,,,,,,,,,,m,0,0.4061,,,,,,,,0.12358941,-0.368789062,0,0,0,,0,144,144,125,1,MOOKY,LB,old,z,./images/MOOKYLB.png,,,,,,,,,,,,,,,,,,,,,,
,,,,,,,,,,,,,,,,,198802,18,2022-01-28_18h05.14.327,lexical_decision_task_DD_L6,2021.2.3,MacIntel,60.0024001,,,,,,,,,,,0.7617,1,,,,,,,,,,,,,,,m,1,0.7617,,,,,,,,0.12358941,-0.368789062,0,0,0,,0,145,145,29,1,PISTOL,HB,old,m,./images/PISTOLHB.png,,,,,,,,,,,,,,,,,,,,,,
,,,,,,,,,,,,,,,,,198802,18,2022-01-28_18h05.14.327,lexical_decision_task_DD_L6,2021.2.3,MacIntel,60.0024001,,,,,,,,,,,2.3114,1,,,,,,,,,,,,,,,z,1,2.3114,,,,,,,,0.12358941,-0.368789062,0,0,0,,0,146,146,84,1,HAXES,C,old,z,./images/HAXES.png,,,,,,,,,,,,,,,,,,,,,,
,,,,,,,,,,,,,,,,,198802,18,2022-01-28_18h05.14.327,lexical_decision_task_DD_L6,2021.2.3,MacIntel,60.0024001,,,,,,,,,,,1.2428,1,,,,,,,,,,,,,,,z,1,1.2428,,,,,,,,0.12358941,-0.368789062,0,0,0,,0,147,147,86,1,AIFED,LB,old,z,./images/AIFEDLB.png,,,,,,,,,,,,,,,,,,,,,,
,,,,,,,,,,,,,,,,,198802,18,2022-01-28_18h05.14.327,lexical_decision_task_DD_L6,2021.2.3,MacIntel,60.0024001,,,,,,,,,,,0.4765,1,,,,,,,,,,,,,,,m,1,0.4765,,,,,,,,0.12358941,-0.368789062,0,0,0,,0,148,148,13,1,BUNNY,C,old,m,./images/BUNNY.png,,,,,,,,,,,,,,,,,,,,,,
,,,,,,,,,,,,,,,,,198802,18,2022-01-28_18h05.14.327,lexical_decision_task_DD_L6,2021.2.3,MacIntel,60.0024001,,,,,,,,,,,0.5356,1,,,,,,,,,,,,,,,m,1,0.5356,,,,,,,,0.12358941,-0.368789062,0,0,0,,0,149,149,60,1,CURRY,LB,old,m,./images/CURRYLB.png,,,,,,,,,,,,,,,,,,,,,,
,,,,,,,,,,,,,,,,,198802,18,2022-01-28_18h05.14.327,lexical_decision_task_DD_L6,2021.2.3,MacIntel,60.0024001,,,,,,,,,,,1.4524,1,,,,,,,,,,,,,,,z,1,1.4524,,,,,,,,0.12358941,-0.368789062,0,0,0,,0,150,150,149,1,VEASE,LB,old,z,./images/VEASELB.png,,,,,,,,,,,,,,,,,,,,,,
,,,,,,,,,,,,,,,,,198802,18,2022-01-28_18h05.14.327,lexical_decision_task_DD_L6,2021.2.3,MacIntel,60.0024001,,,,,,,,,,,0.6573,0,,,,,,,,,,,,,,,z,0,0.6573,,,,,,,,0.12358941,-0.368789062,0,0,0,,0,151,151,11,1,MEDAL,HB,old,m,./images/MEDALHB.png,,,,,,,,,,,,,,,,,,,,,,
,,,,,,,,,,,,,,,,,198802,18,2022-01-28_18h05.14.327,lexical_decision_task_DD_L6,2021.2.3,MacIntel,60.0024001,,,,,,,,,,,0.6562,1,,,,,,,,,,,,,,,z,1,0.6562,,,,,,,,0.12358941,-0.368789062,0,0,0,,0,152,152,159,1,CUDDY,C,old,z,./images/CUDDY.png,,,,,,,,,,,,,,,,,,,,,,
,,,,,,,,,,,,,,,,,198802,18,2022-01-28_18h05.14.327,lexical_decision_task_DD_L6,2021.2.3,MacIntel,60.0024001,,,,,,,,,,,0.7869,1,,,,,,,,,,,,,,,m,1,0.7869,,,,,,,,0.12358941,-0.368789062,0,0,0,,0,153,153,58,1,CANOE,C,old,m,./images/CANOE.png,,,,,,,,,,,,,,,,,,,,,,
,,,,,,,,,,,,,,,,,198802,18,2022-01-28_18h05.14.327,lexical_decision_task_DD_L6,2021.2.3,MacIntel,60.0024001,,,,,,,,,,,0.5224,1,,,,,,,,,,,,,,,m,1,0.5224,,,,,,,,0.12358941,-0.368789062,0,0,0,,0,154,154,79,1,RULER,C,old,m,./images/RULER.png,,,,,,,,,,,,,,,,,,,,,,
,,,,,,,,,,,,,,,,,198802,18,2022-01-28_18h05.14.327,lexical_decision_task_DD_L6,2021.2.3,MacIntel,60.0024001,,,,,,,,,,,0.6643,1,,,,,,,,,,,,,,,m,1,0.6643,,,,,,,,0.12358941,-0.368789062,0,0,0,,0,155,155,24,1,FLESH,LB,old,m,./images/FLESHLB.png,,,,,,,,,,,,,,,,,,,,,,
,,,,,,,,,,,,,,,,,198802,18,2022-01-28_18h05.14.327,lexical_decision_task_DD_L6,2021.2.3,MacIntel,60.0024001,,,,,,,,,,,0.8199,1,,,,,,,,,,,,,,,z,1,0.8199,,,,,,,,0.12358941,-0.368789062,0,0,0,,0,156,156,111,1,HOSSE,C,old,z,./images/HOSSE.png,,,,,,,,,,,,,,,,,,,,,,
,,,,,,,,,,,,,,,,,198802,18,2022-01-28_18h05.14.327,lexical_decision_task_DD_L6,2021.2.3,MacIntel,60.0024001,,,,,,,,,,,0.8042,1,,,,,,,,,,,,,,,z,1,0.8042,,,,,,,,0.12358941,-0.368789062,0,0,0,,0,157,157,92,1,PAIMS,LB,old,z,./images/PAIMSLB.png,,,,,,,,,,,,,,,,,,,,,,
,,,,,,,,,,,,,,,,,198802,18,2022-01-28_18h05.14.327,lexical_decision_task_DD_L6,2021.2.3,MacIntel,60.0024001,,,,,,,,,,,0.6629,1,,,,,,,,,,,,,,,m,1,0.6629,,,,,,,,0.12358941,-0.368789062,0,0,0,,0,158,158,35,1,LLAMA,HB,old,m,./images/LLAMAHB.png,,,,,,,,,,,,,,,,,,,,,,
,,,,,,,,,,,,,,,,,198802,18,2022-01-28_18h05.14.327,lexical_decision_task_DD_L6,2021.2.3,MacIntel,60.0024001,,,,,,,,,,,0.4421,1,,,,,,,,,,,,,,,m,1,0.4421,,,,,,,,0.12358941,-0.368789062,0,0,0,,0,159,159,52,1,DESERT,C,old,m,./images/DESERT.png,,,,,,,,,,,,,,,,,,,,,,
,,,,,,,,,,,,,,,,,198802,18,2022-01-28_18h05.14.327,lexical_decision_task_DD_L6,2021.2.3,MacIntel,60.0024001,,,,,,,,,,,0.7656,1,,,,,,,,,,,,,,,m,1,0.7656,,,,,,,,0.12358941,-0.368789062,0,0,0,,0,160,160,14,1,FENCE,HB,old,m,./images/FENCEHB.png,,,,,,,,,,,,,,,,,,,,,,
,,,,,,,,,,,,,,,,,198802,18,2022-01-28_18h05.14.327,lexical_decision_task_DD_L6,2021.2.3,MacIntel,60.0024001,,,,,,,,,,,0.5631,1,,,,,,,,,,,,,,,z,1,0.5631,,,,,,,,0.12358941,-0.368789062,0,0,0,,0,161,161,120,1,RINED,C,old,z,./images/RINED.png,,,,,,,,,,,,,,,,,,,,,,
,,,,,,,,,,,,,,,,,198802,18,2022-01-28_18h05.14.327,lexical_decision_task_DD_L6,2021.2.3,MacIntel,60.0024001,,,,,,,,,,,0.5227,1,,,,,,,,,,,,,,,m,1,0.5227,,,,,,,,0.12358941,-0.368789062,0,0,0,,0,162,162,19,1,DONKEY,C,old,m,./images/DONKEY.png,,,,,,,,,,,,,,,,,,,,,,
,,,,,,,,,,,,,,,,,198802,18,2022-01-28_18h05.14.327,lexical_decision_task_DD_L6,2021.2.3,MacIntel,60.0024001,,,,,,,,,,,0.4978,1,,,,,,,,,,,,,,,m,1,0.4978,,,,,,,,0.12358941,-0.368789062,0,0,0,,0,163,163,78,1,BROOM,LB,old,m,./images/BROOMLB.png,,,,,,,,,,,,,,,,,,,,,,
,,,,,,,,,,,,,,,,,198802,18,2022-01-28_18h05.14.327,lexical_decision_task_DD_L6,2021.2.3,MacIntel,60.0024001,,,,,,,,,,,1.4026,1,,,,,,,,,,,,,,,z,1,1.4026,,,,,,,,0.12358941,-0.368789062,0,0,0,,0,164,164,100,1,DRIBS,HB,old,z,./images/DRIBSHB.png,,,,,,,,,,,,,,,,,,,,,,
,,,,,,,,,,,,,,,,,198802,18,2022-01-28_18h05.14.327,lexical_decision_task_DD_L6,2021.2.3,MacIntel,60.0024001,,,,,,,,,,,1.4007,1,,,,,,,,,,,,,,,z,1,1.4007,,,,,,,,0.12358941,-0.368789062,0,0,0,,0,165,165,97,1,CHIDS,HB,old,z,./images/CHIDSHB.png,,,,,,,,,,,,,,,,,,,,,,
,,,,,,,,,,,,,,,,,198802,18,2022-01-28_18h05.14.327,lexical_decision_task_DD_L6,2021.2.3,MacIntel,60.0024001,,,,,,,,,,,0.6186,1,,,,,,,,,,,,,,,m,1,0.6186,,,,,,,,0.12358941,-0.368789062,0,0,0,,0,166,166,77,1,WHEEL,HB,old,m,./images/WHEELHB.png,,,,,,,,,,,,,,,,,,,,,,
,,,,,,,,,,,,,,,,,198802,18,2022-01-28_18h05.14.327,lexical_decision_task_DD_L6,2021.2.3,MacIntel,60.0024001,,,,,,,,,,,1.5156,1,,,,,,,,,,,,,,,m,1,1.5156,,,,,,,,0.203003472,-0.26531684,0,0,0,,0,167,167,21,1,DANCER,LB,old,m,./images/DANCERLB.png,,,,,,,,,,,,,,,,,,,,,,
,,0.079817708,-0.405915799,1,0,0,,,,,,1,test,"In the next phase you will be presented with the words from the the first phase. Your job is to decide whether you remember seeing the word or not. If you remember seeing the word press ""old"" or type ""m"". If you do not remember seeing the word press ""new"" or type ""z"". Please press the space bar or click on continue to begin. ",,,198802,18,2022-01-28_18h05.14.327,lexical_decision_task_DD_L6,2021.2.3,MacIntel,60.0024001,,,,,,,,,,,,,,,,,,,,,instr_done_button,,,,,,,,,,,,,,,,,,,,,,,,,,,,,,,,,,0,0,0,0,1,,,,,,,,,,,,,,,
,,0.04656684,-0.392313368,1,0,0,,,,,,1,test,"In the next phase you will be presented with the words from the the first phase. Your job is to decide whether you remember seeing the word or not. If you remember seeing the word press ""old"" or type ""m"". If you do not remember seeing the word press ""new"" or type ""z"". Please press the space bar or click on continue to begin. ",,,198802,18,2022-01-28_18h05.14.327,lexical_decision_task_DD_L6,2021.2.3,MacIntel,60.0024001,,,,,,,,,,,,,,,,,,,,,instr_done_button,,,,,,,,,,,,,,,,,,,,,,,,,,,,,,,,,,1,0,1,0,1,,,,,,,,,,,,,,,
space,0.8379,0.04656684,-0.38641059,0,0,0,,,,,,1,test,"In the next phase you will be presented with the words from the the first phase. Your job is to decide whether you remember seeing the word or not. If you remember seeing the word press ""old"" or type ""m"". If you do not remember seeing the word press ""new"" or type ""z"". Please press the space bar or click on continue to begin. ",,,198802,18,2022-01-28_18h05.14.327,lexical_decision_task_DD_L6,2021.2.3,MacIntel,60.0024001,,,,,,,,,,,,,,,,,,,,,,,,,,,,,,,,,,,,,,,,,,,,,,,,,,,,,,,2,0,2,0,1,,,,,,,,,,,,,,,
,,0.04656684,-0.38641059,1,0,0,,,,,,1,test,"In the next phase you will be presented with the words from the the first phase. Your job is to decide whether you remember seeing the word or not. If you remember seeing the word press ""old"" or type ""m"". If you do not remember seeing the word press ""new"" or type ""z"". Please press the space bar or click on continue to begin. ",,,198802,18,2022-01-28_18h05.14.327,lexical_decision_task_DD_L6,2021.2.3,MacIntel,60.0024001,,,,,,,,,,,,,,,,,,,,,instr_done_button,,,,,,,,,,,,,,,,,,,,,,,,,,,,,,,,,,3,0,3,0,1,,,,,,,,,,,,,,,
,,0.079969618,-0.435881076,1,0,0,,,,,,1,test,"In the next phase you will be presented with the words from the the first phase. Your job is to decide whether you remember seeing the word or not. If you remember seeing the word press ""old"" or type ""m"". If you do not remember seeing the word press ""new"" or type ""z"". Please press the space bar or click on continue to begin. ",,,198802,18,2022-01-28_18h05.14.327,lexical_decision_task_DD_L6,2021.2.3,MacIntel,60.0024001,,,,,,,,,,,,,,,,,,,,,instr_done_button,,,,,,,,,,,,,,,,,,,,,,,,,,,,,,,,,,4,0,4,0,1,,,,,,,,,,,,,,,
,,,,,,,,,,,,,,,,,198802,18,2022-01-28_18h05.14.327,lexical_decision_task_DD_L6,2021.2.3,MacIntel,60.0024001,,,,,,,,,,,2.6466,1,,,,,,,,,,,,,,,,,,,,,,,,,0.079969618,-0.435881076,0,0,0,,,,,,,PISTOL,HB,m,y,./images/PISTOLHB.png,,,,,,,,m,1,2.6466,,,,,,,,0,0,0,29,1
,,,,,,,,,,,,,,,,,198802,18,2022-01-28_18h05.14.327,lexical_decision_task_DD_L6,2021.2.3,MacIntel,60.0024001,,,,,,,,,,,0.8308,1,,,,,,,,,,,,,,,,,,,,,,,,,0.079969618,-0.435881076,0,0,0,,,,,,,VALLEY,HB,m,y,./images/VALLEYHB.png,,,,,,,,m,1,0.8308,,,,,,,,0,1,1,68,1
,,,,,,,,,,,,,,,,,198802,18,2022-01-28_18h05.14.327,lexical_decision_task_DD_L6,2021.2.3,MacIntel,60.0024001,,,,,,,,,,,0.6632,1,,,,,,,,,,,,,,,,,,,,,,,,,0.079969618,-0.435881076,0,0,0,,,,,,,HOCKEY,HB,m,y,./images/HOCKEYHB.png,,,,,,,,m,1,0.6632,,,,,,,,0,2,2,32,1
,,,,,,,,,,,,,,,,,198802,18,2022-01-28_18h05.14.327,lexical_decision_task_DD_L6,2021.2.3,MacIntel,60.0024001,,,,,,,,,,,0.7192,1,,,,,,,,,,,,,,,,,,,,,,,,,0.079969618,-0.435881076,0,0,0,,,,,,,FALCON,C,z,y,./images/FALCON.png,,,,,,,,z,1,0.7192,,,,,,,,0,3,3,112,1
,,,,,,,,,,,,,,,,,198802,18,2022-01-28_18h05.14.327,lexical_decision_task_DD_L6,2021.2.3,MacIntel,60.0024001,,,,,,,,,,,0.9941,1,,,,,,,,,,,,,,,,,,,,,,,,,0.079969618,-0.435881076,0,0,0,,,,,,,MIDGET,C,m,y,./images/MIDGET.png,,,,,,,,m,1,0.9941,,,,,,,,0,4,4,76,1
,,,,,,,,,,,,,,,,,198802,18,2022-01-28_18h05.14.327,lexical_decision_task_DD_L6,2021.2.3,MacIntel,60.0024001,,,,,,,,,,,0.8221,1,,,,,,,,,,,,,,,,,,,,,,,,,0.079969618,-0.435881076,0,0,0,,,,,,,CRUMB,HB,z,y,./images/CRUMBHB.png,,,,,,,,z,1,0.8221,,,,,,,,0,5,5,113,1
,,,,,,,,,,,,,,,,,198802,18,2022-01-28_18h05.14.327,lexical_decision_task_DD_L6,2021.2.3,MacIntel,60.0024001,,,,,,,,,,,0.8012,1,,,,,,,,,,,,,,,,,,,,,,,,,0.079969618,-0.435881076,0,0,0,,,,,,,PLANK,C,z,y,./images/PLANK.png,,,,,,,,z,1,0.8012,,,,,,,,0,6,6,85,1
,,,,,,,,,,,,,,,,,198802,18,2022-01-28_18h05.14.327,lexical_decision_task_DD_L6,2021.2.3,MacIntel,60.0024001,,,,,,,,,,,0.826,1,,,,,,,,,,,,,,,,,,,,,,,,,0.079969618,-0.435881076,0,0,0,,,,,,,SWEAT,LB,z,y,./images/SWEATLB.png,,,,,,,,z,1,0.826,,,,,,,,0,7,7,150,1
,,,,,,,,,,,,,,,,,198802,18,2022-01-28_18h05.14.327,lexical_decision_task_DD_L6,2021.2.3,MacIntel,60.0024001,,,,,,,,,,,0.6597,1,,,,,,,,,,,,,,,,,,,,,,,,,0.079969618,-0.435881076,0,0,0,,,,,,,BEARD,HB,z,y,./images/BEARDHB.png,,,,,,,,z,1,0.6597,,,,,,,,0,8,8,86,1
,,,,,,,,,,,,,,,,,198802,18,2022-01-28_18h05.14.327,lexical_decision_task_DD_L6,2021.2.3,MacIntel,60.0024001,,,,,,,,,,,1.1847,1,,,,,,,,,,,,,,,,,,,,,,,,,0.079969618,-0.435881076,0,0,0,,,,,,,CLOUD,HB,m,y,./images/CLOUDHB.png,,,,,,,,m,1,1.1847,,,,,,,,0,9,9,26,1
,,,,,,,,,,,,,,,,,198802,18,2022-01-28_18h05.14.327,lexical_decision_task_DD_L6,2021.2.3,MacIntel,60.0024001,,,,,,,,,,,0.8222,1,,,,,,,,,,,,,,,,,,,,,,,,,0.079969618,-0.435881076,0,0,0,,,,,,,CRATER,LB,m,y,./images/CRATERLB.png,,,,,,,,m,1,0.8222,,,,,,,,0,10,10,3,1
,,,,,,,,,,,,,,,,,198802,18,2022-01-28_18h05.14.327,lexical_decision_task_DD_L6,2021.2.3,MacIntel,60.0024001,,,,,,,,,,,0.5858,1,,,,,,,,,,,,,,,,,,,,,,,,,0.079969618,-0.435881076,0,0,0,,,,,,,SAUNA,LB,m,y,./images/SAUNALB.png,,,,,,,,m,1,0.5858,,,,,,,,0,11,11,33,1
,,,,,,,,,,,,,,,,,198802,18,2022-01-28_18h05.14.327,lexical_decision_task_DD_L6,2021.2.3,MacIntel,60.0024001,,,,,,,,,,,0.7314,1,,,,,,,,,,,,,,,,,,,,,,,,,0.079969618,-0.435881076,0,0,0,,,,,,,BANANA,C,m,y,./images/BANANA.png,,,,,,,,m,1,0.7314,,,,,,,,0,12,12,70,1
,,,,,,,,,,,,,,,,,198802,18,2022-01-28_18h05.14.327,lexical_decision_task_DD_L6,2021.2.3,MacIntel,60.0024001,,,,,,,,,,,0.6197,1,,,,,,,,,,,,,,,,,,,,,,,,,0.079969618,-0.435881076,0,0,0,,,,,,,BUBBLE,HB,m,y,./images/BUBBLEHB.png,,,,,,,,m,1,0.6197,,,,,,,,0,13,13,71,1
,,,,,,,,,,,,,,,,,198802,18,2022-01-28_18h05.14.327,lexical_decision_task_DD_L6,2021.2.3,MacIntel,60.0024001,,,,,,,,,,,0.7385,1,,,,,,,,,,,,,,,,,,,,,,,,,0.079969618,-0.435881076,0,0,0,,,,,,,WEASEL,HB,z,y,./images/WEASELHB.png,,,,,,,,z,1,0.7385,,,,,,,,0,14,14,164,1
,,,,,,,,,,,,,,,,,198802,18,2022-01-28_18h05.14.327,lexical_decision_task_DD_L6,2021.2.3,MacIntel,60.0024001,,,,,,,,,,,0.6316,0,,,,,,,,,,,,,,,,,,,,,,,,,0.079969618,-0.435881076,0,0,0,,,,,,,CEMENT,HB,z,y,./images/CEMENTHB.png,,,,,,,,m,0,0.6316,,,,,,,,0,15,15,158,1
,,,,,,,,,,,,,,,,,198802,18,2022-01-28_18h05.14.327,lexical_decision_task_DD_L6,2021.2.3,MacIntel,60.0024001,,,,,,,,,,,2.4883,1,,,,,,,,,,,,,,,,,,,,,,,,,-0.075910909,-0.079427083,0,0,0,,,,,,,BUTTER,LB,m,y,./images/BUTTERLB.png,,,,,,,,m,1,2.4883,,,,,,,,0,16,16,27,1
,,,,,,,,,,,,,,,,,198802,18,2022-01-28_18h05.14.327,lexical_decision_task_DD_L6,2021.2.3,MacIntel,60.0024001,,,,,,,,,,,0.6364,0,,,,,,,,,,,,,,,,,,,,,,,,,-0.075910909,-0.079427083,0,0,0,,,,,,,DOUGH,C,z,y,./images/DOUGH.png,,,,,,,,m,0,0.6364,,,,,,,,0,17,17,103,1
,,,,,,,,,,,,,,,,,198802,18,2022-01-28_18h05.14.327,lexical_decision_task_DD_L6,2021.2.3,MacIntel,60.0024001,,,,,,,,,,,0.7314,0,,,,,,,,,,,,,,,,,,,,,,,,,-0.075910909,-0.079427083,0,0,0,,,,,,,SHELF,LB,z,y,./images/SHELFLB.png,,,,,,,,m,0,0.7314,,,,,,,,0,18,18,123,1
,,,,,,,,,,,,,,,,,198802,18,2022-01-28_18h05.14.327,lexical_decision_task_DD_L6,2021.2.3,MacIntel,60.0024001,,,,,,,,,,,0.6362,1,,,,,,,,,,,,,,,,,,,,,,,,,-0.075910909,-0.079427083,0,0,0,,,,,,,BISHOP,C,m,y,./images/BISHOP.png,,,,,,,,m,1,0.6362,,,,,,,,0,19,19,49,1
,,,,,,,,,,,,,,,,,198802,18,2022-01-28_18h05.14.327,lexical_decision_task_DD_L6,2021.2.3,MacIntel,60.0024001,,,,,,,,,,,0.6143,0,,,,,,,,,,,,,,,,,,,,,,,,,-0.075910909,-0.079427083,0,0,0,,,,,,,MOOSE,LB,z,y,./images/MOOSELB.png,,,,,,,,m,0,0.6143,,,,,,,,0,20,20,141,1
,,,,,,,,,,,,,,,,,198802,18,2022-01-28_18h05.14.327,lexical_decision_task_DD_L6,2021.2.3,MacIntel,60.0024001,,,,,,,,,,,1.0215,1,,,,,,,,,,,,,,,,,,,,,,,,,-0.075910909,-0.079427083,0,0,0,,,,,,,ARTIST,C,m,y,./images/ARTIST.png,,,,,,,,m,1,1.0215,,,,,,,,0,21,21,61,1
,,,,,,,,,,,,,,,,,198802,18,2022-01-28_18h05.14.327,lexical_decision_task_DD_L6,2021.2.3,MacIntel,60.0024001,,,,,,,,,,,0.5326,1,,,,,,,,,,,,,,,,,,,,,,,,,-0.075910909,-0.079427083,0,0,0,,,,,,,FOLDER,LB,z,y,./images/FOLDERLB.png,,,,,,,,z,1,0.5326,,,,,,,,0,22,22,126,1
,,,,,,,,,,,,,,,,,198802,18,2022-01-28_18h05.14.327,lexical_decision_task_DD_L6,2021.2.3,MacIntel,60.0024001,,,,,,,,,,,0.5855,1,,,,,,,,,,,,,,,,,,,,,,,,,-0.075910909,-0.079427083,0,0,0,,,,,,,TRIPOD,LB,z,y,./images/TRIPODLB.png,,,,,,,,z,1,0.5855,,,,,,,,0,23,23,138,1
,,,,,,,,,,,,,,,,,198802,18,2022-01-28_18h05.14.327,lexical_decision_task_DD_L6,2021.2.3,MacIntel,60.0024001,,,,,,,,,,,1.1186,0,,,,,,,,,,,,,,,,,,,,,,,,,-0.075910909,-0.079427083,0,0,0,,,,,,,COLLAR,LB,m,y,./images/COLLARLB.png,,,,,,,,z,0,1.1186,,,,,,,,0,24,24,15,1
,,,,,,,,,,,,,,,,,198802,18,2022-01-28_18h05.14.327,lexical_decision_task_DD_L6,2021.2.3,MacIntel,60.0024001,,,,,,,,,,,0.6007,1,,,,,,,,,,,,,,,,,,,,,,,,,-0.075910909,-0.079427083,0,0,0,,,,,,,BOILER,LB,m,y,./images/BOILERLB.png,,,,,,,,m,1,0.6007,,,,,,,,0,25,25,36,1
,,,,,,,,,,,,,,,,,198802,18,2022-01-28_18h05.14.327,lexical_decision_task_DD_L6,2021.2.3,MacIntel,60.0024001,,,,,,,,,,,0.7162,1,,,,,,,,,,,,,,,,,,,,,,,,,-0.075910909,-0.079427083,0,0,0,,,,,,,PICKLE,HB,z,y,./images/PICKLEHB.png,,,,,,,,z,1,0.7162,,,,,,,,0,26,26,98,1
,,,,,,,,,,,,,,,,,198802,18,2022-01-28_18h05.14.327,lexical_decision_task_DD_L6,2021.2.3,MacIntel,60.0024001,,,,,,,,,,,0.6505,1,,,,,,,,,,,,,,,,,,,,,,,,,-0.075910909,-0.079427083,0,0,0,,,,,,,CANDLE,C,z,y,./images/CANDLE.png,,,,,,,,z,1,0.6505,,,,,,,,0,27,27,145,1
,,,,,,,,,,,,,,,,,198802,18,2022-01-28_18h05.14.327,lexical_decision_task_DD_L6,2021.2.3,MacIntel,60.0024001,,,,,,,,,,,0.5199,1,,,,,,,,,,,,,,,,,,,,,,,,,-0.075910909,-0.079427083,0,0,0,,,,,,,DONKEY,C,m,y,./images/DONKEY.png,,,,,,,,m,1,0.5199,,,,,,,,0,28,28,19,1
,,,,,,,,,,,,,,,,,198802,18,2022-01-28_18h05.14.327,lexical_decision_task_DD_L6,2021.2.3,MacIntel,60.0024001,,,,,,,,,,,0.4857,0,,,,,,,,,,,,,,,,,,,,,,,,,-0.075910909,-0.079427083,0,0,0,,,,,,,COOKER,LB,z,y,./images/COOKERLB.png,,,,,,,,m,0,0.4857,,,,,,,,0,29,29,153,1
,,,,,,,,,,,,,,,,,198802,18,2022-01-28_18h05.14.327,lexical_decision_task_DD_L6,2021.2.3,MacIntel,60.0024001,,,,,,,,,,,0.5695,1,,,,,,,,,,,,,,,,,,,,,,,,,-0.075910909,-0.079427083,0,0,0,,,,,,,FINGER,LB,z,y,./images/FINGERLB.png,,,,,,,,z,1,0.5695,,,,,,,,0,30,30,87,1
,,,,,,,,,,,,,,,,,198802,18,2022-01-28_18h05.14.327,lexical_decision_task_DD_L6,2021.2.3,MacIntel,60.0024001,,,,,,,,,,,0.5842,1,,,,,,,,,,,,,,,,,,,,,,,,,-0.075910909,-0.079427083,0,0,0,,,,,,,WHISKY,HB,m,y,./images/WHISKYHB.png,,,,,,,,m,1,0.5842,,,,,,,,0,31,31,83,1
,,,,,,,,,,,,,,,,,198802,18,2022-01-28_18h05.14.327,lexical_decision_task_DD_L6,2021.2.3,MacIntel,60.0024001,,,,,,,,,,,0.4549,1,,,,,,,,,,,,,,,,,,,,,,,,,-0.075910909,-0.079427083,0,0,0,,,,,,,FENCE,HB,m,y,./images/FENCEHB.png,,,,,,,,m,1,0.4549,,,,,,,,0,32,32,14,1
,,,,,,,,,,,,,,,,,198802,18,2022-01-28_18h05.14.327,lexical_decision_task_DD_L6,2021.2.3,MacIntel,60.0024001,,,,,,,,,,,0.2878,1,,,,,,,,,,,,,,,,,,,,,,,,,-0.075910909,-0.079427083,0,0,0,,,,,,,PENCE,C,z,y,./images/PENCE.png,,,,,,,,z,1,0.2878,,,,,,,,0,33,33,100,1
,,,,,,,,,,,,,,,,,198802,18,2022-01-28_18h05.14.327,lexical_decision_task_DD_L6,2021.2.3,MacIntel,60.0024001,,,,,,,,,,,0.1306,0,,,,,,,,,,,,,,,,,,,,,,,,,-0.075910909,-0.079427083,0,0,0,,,,,,,GREASE,LB,z,y,./images/GREASELB.png,,,,,,,,m,0,0.1306,,,,,,,,0,34,34,99,1
,,,,,,,,,,,,,,,,,198802,18,2022-01-28_18h05.14.327,lexical_decision_task_DD_L6,2021.2.3,MacIntel,60.0024001,,,,,,,,,,,0.7345,1,,,,,,,,,,,,,,,,,,,,,,,,,-0.075910909,-0.079427083,0,0,0,,,,,,,PEARL,C,z,y,./images/PEARL.png,,,,,,,,z,1,0.7345,,,,,,,,0,35,35,130,1
,,,,,,,,,,,,,,,,,198802,18,2022-01-28_18h05.14.327,lexical_decision_task_DD_L6,2021.2.3,MacIntel,60.0024001,,,,,,,,,,,0.6541,1,,,,,,,,,,,,,,,,,,,,,,,,,-0.075910909,-0.079427083,0,0,0,,,,,,,MAMMAL,HB,m,y,./images/MAMMALHB.png,,,,,,,,m,1,0.6541,,,,,,,,0,36,36,62,1
,,,,,,,,,,,,,,,,,198802,18,2022-01-28_18h05.14.327,lexical_decision_task_DD_L6,2021.2.3,MacIntel,60.0024001,,,,,,,,,,,0.6642,0,,,,,,,,,,,,,,,,,,,,,,,,,-0.075910909,-0.079427083,0,0,0,,,,,,,ALLEY,C,m,y,./images/ALLEY.png,,,,,,,,z,0,0.6642,,,,,,,,0,37,37,55,1
,,,,,,,,,,,,,,,,,198802,18,2022-01-28_18h05.14.327,lexical_decision_task_DD_L6,2021.2.3,MacIntel,60.0024001,,,,,,,,,,,0.7505,1,,,,,,,,,,,,,,,,,,,,,,,,,-0.075910909,-0.079427083,0,0,0,,,,,,,BUNNY,C,m,y,./images/BUNNY.png,,,,,,,,m,1,0.7505,,,,,,,,0,38,38,13,1
,,,,,,,,,,,,,,,,,198802,18,2022-01-28_18h05.14.327,lexical_decision_task_DD_L6,2021.2.3,MacIntel,60.0024001,,,,,,,,,,,0.6328,1,,,,,,,,,,,,,,,,,,,,,,,,,-0.075910909,-0.079427083,0,0,0,,,,,,,CHALK,C,m,y,./images/CHALK.png,,,,,,,,m,1,0.6328,,,,,,,,0,39,39,25,1
,,,,,,,,,,,,,,,,,198802,18,2022-01-28_18h05.14.327,lexical_decision_task_DD_L6,2021.2.3,MacIntel,60.0024001,,,,,,,,,,,0.607,1,,,,,,,,,,,,,,,,,,,,,,,,,-0.075910909,-0.079427083,0,0,0,,,,,,,ONION,LB,z,y,./images/ONIONLB.png,,,,,,,,z,1,0.607,,,,,,,,0,40,40,135,1
,,,,,,,,,,,,,,,,,198802,18,2022-01-28_18h05.14.327,lexical_decision_task_DD_L6,2021.2.3,MacIntel,60.0024001,,,,,,,,,,,0.6666,1,,,,,,,,,,,,,,,,,,,,,,,,,0.069691675,-0.339695411,0,0,0,space,,,,,,BOXER,C,m,y,./images/BOXER.png,,721.0621,,,,,,m,1,0.6666,,,,,,,,0,41,41,4,1
,,,,,,,,,,,,,,,,,198802,18,2022-01-28_18h05.14.327,lexical_decision_task_DD_L6,2021.2.3,MacIntel,60.0024001,,,,,,,,,,,1.7362,0,,,,,,,,,,,,,,,,,,,,,,,,,0.069691675,-0.339695411,0,0,0,,,,,,,FLESH,LB,m,y,./images/FLESHLB.png,,,,,,,,z,0,1.7362,,,,,,,,0,42,42,24,1
,,,,,,,,,,,,,,,,,198802,18,2022-01-28_18h05.14.327,lexical_decision_task_DD_L6,2021.2.3,MacIntel,60.0024001,,,,,,,,,,,1.2487,0,,,,,,,,,,,,,,,,,,,,,,,,,0.069691675,-0.339695411,0,0,0,,,,,,,CHAIN,LB,m,y,./images/CHAINLB.png,,,,,,,,z,0,1.2487,,,,,,,,0,43,43,42,1
,,,,,,,,,,,,,,,,,198802,18,2022-01-28_18h05.14.327,lexical_decision_task_DD_L6,2021.2.3,MacIntel,60.0024001,,,,,,,,,,,0.7891,1,,,,,,,,,,,,,,,,,,,,,,,,,0.069691675,-0.339695411,0,0,0,,,,,,,PACKET,HB,z,y,./images/PACKETHB.png,,,,,,,,z,1,0.7891,,,,,,,,0,44,44,140,1
,,,,,,,,,,,,,,,,,198802,18,2022-01-28_18h05.14.327,lexical_decision_task_DD_L6,2021.2.3,MacIntel,60.0024001,,,,,,,,,,,0.5825,0,,,,,,,,,,,,,,,,,,,,,,,,,0.069691675,-0.339695411,0,0,0,,,,,,,TIGER,C,m,y,./images/TIGER.png,,,,,,,,z,0,0.5825,,,,,,,,0,45,45,37,1
,,,,,,,,,,,,,,,,,198802,18,2022-01-28_18h05.14.327,lexical_decision_task_DD_L6,2021.2.3,MacIntel,60.0024001,,,,,,,,,,,0.7306,1,,,,,,,,,,,,,,,,,,,,,,,,,0.069691675,-0.339695411,0,0,0,,,,,,,DESERT,C,m,y,./images/DESERT.png,,,,,,,,m,1,0.7306,,,,,,,,0,46,46,52,1
,,,,,,,,,,,,,,,,,198802,18,2022-01-28_18h05.14.327,lexical_decision_task_DD_L6,2021.2.3,MacIntel,60.0024001,,,,,,,,,,,0.6014,0,,,,,,,,,,,,,,,,,,,,,,,,,0.069691675,-0.339695411,0,0,0,,,,,,,MIRROR,LB,z,y,./images/MIRRORLB.png,,,,,,,,m,0,0.6014,,,,,,,,0,47,47,147,1
,,,,,,,,,,,,,,,,,198802,18,2022-01-28_18h05.14.327,lexical_decision_task_DD_L6,2021.2.3,MacIntel,60.0024001,,,,,,,,,,,0.5821,1,,,,,,,,,,,,,,,,,,,,,,,,,0.069691675,-0.339695411,0,0,0,,,,,,,SNAKE,C,m,y,./images/SNAKE.png,,,,,,,,m,1,0.5821,,,,,,,,0,48,48,40,1
,,,,,,,,,,,,,,,,,198802,18,2022-01-28_18h05.14.327,lexical_decision_task_DD_L6,2021.2.3,MacIntel,60.0024001,,,,,,,,,,,0.4181,0,,,,,,,,,,,,,,,,,,,,,,,,,0.069691675,-0.339695411,0,0,0,,,,,,,BERRY,HB,z,y,./images/BERRYHB.png,,,,,,,,m,0,0.4181,,,,,,,,0,49,49,131,1
,,,,,,,,,,,,,,,,,198802,18,2022-01-28_18h05.14.327,lexical_decision_task_DD_L6,2021.2.3,MacIntel,60.0024001,,,,,,,,,,,0.1756,1,,,,,,,,,,,,,,,,,,,,,,,,,0.069691675,-0.339695411,0,0,0,,,,,,,PAINT,C,z,y,./images/PAINT.png,,,,,,,,z,1,0.1756,,,,,,,,0,50,50,91,1
,,,,,,,,,,,,,,,,,198802,18,2022-01-28_18h05.14.327,lexical_decision_task_DD_L6,2021.2.3,MacIntel,60.0024001,,,,,,,,,,,0.3995,1,,,,,,,,,,,,,,,,,,,,,,,,,0.069691675,-0.339695411,0,0,0,,,,,,,JAGUAR,LB,z,y,./images/JAGUARLB.png,,,,,,,,z,1,0.3995,,,,,,,,0,51,51,102,1
,,,,,,,,,,,,,,,,,198802,18,2022-01-28_18h05.14.327,lexical_decision_task_DD_L6,2021.2.3,MacIntel,60.0024001,,,,,,,,,,,0.3013,1,,,,,,,,,,,,,,,,,,,,,,,,,0.069691675,-0.339695411,0,0,0,,,,,,,CLOWN,C,m,y,./images/CLOWN.png,,,,,,,,m,1,0.3013,,,,,,,,0,52,52,22,1
,,,,,,,,,,,,,,,,,198802,18,2022-01-28_18h05.14.327,lexical_decision_task_DD_L6,2021.2.3,MacIntel,60.0024001,,,,,,,,,,,0.4235,1,,,,,,,,,,,,,,,,,,,,,,,,,0.069691675,-0.339695411,0,0,0,,,,,,,BELLY,C,z,y,./images/BELLY.png,,,,,,,,z,1,0.4235,,,,,,,,0,53,53,94,1
,,,,,,,,,,,,,,,,,198802,18,2022-01-28_18h05.14.327,lexical_decision_task_DD_L6,2021.2.3,MacIntel,60.0024001,,,,,,,,,,,0.1038,0,,,,,,,,,,,,,,,,,,,,,,,,,0.069691675,-0.339695411,0,0,0,,,,,,,RHINO,LB,z,y,./images/RHINOLB.png,,,,,,,,m,0,0.1038,,,,,,,,0,54,54,93,1
,,,,,,,,,,,,,,,,,198802,18,2022-01-28_18h05.14.327,lexical_decision_task_DD_L6,2021.2.3,MacIntel,60.0024001,,,,,,,,,,,0.3493,0,,,,,,,,,,,,,,,,,,,,,,,,,0.069691675,-0.339695411,0,0,0,,,,,,,RAZOR,C,m,y,./images/RAZOR.png,,,,,,,,z,0,0.3493,,,,,,,,0,55,55,34,1
,,,,,,,,,,,,,,,,,198802,18,2022-01-28_18h05.14.327,lexical_decision_task_DD_L6,2021.2.3,MacIntel,60.0024001,,,,,,,,,,,0.5341,1,,,,,,,,,,,,,,,,,,,,,,,,,0.069691675,-0.339695411,0,0,0,,,,,,,FERRY,LB,m,y,./images/FERRYLB.png,,,,,,,,m,1,0.5341,,,,,,,,0,56,56,57,1
,,,,,,,,,,,,,,,,,198802,18,2022-01-28_18h05.14.327,lexical_decision_task_DD_L6,2021.2.3,MacIntel,60.0024001,,,,,,,,,,,0.5996,0,,,,,,,,,,,,,,,,,,,,,,,,,0.069691675,-0.339695411,0,0,0,,,,,,,NOOSE,LB,z,y,./images/NOOSELB.png,,,,,,,,m,0,0.5996,,,,,,,,0,57,57,156,1
,,,,,,,,,,,,,,,,,198802,18,2022-01-28_18h05.14.327,lexical_decision_task_DD_L6,2021.2.3,MacIntel,60.0024001,,,,,,,,,,,0.4187,0,,,,,,,,,,,,,,,,,,,,,,,,,0.069691675,-0.339695411,0,0,0,,,,,,,BAKER,LB,m,y,./images/BAKERLB.png,,,,,,,,z,0,0.4187,,,,,,,,0,58,58,63,1
,,,,,,,,,,,,,,,,,198802,18,2022-01-28_18h05.14.327,lexical_decision_task_DD_L6,2021.2.3,MacIntel,60.0024001,,,,,,,,,,,0.652,0,,,,,,,,,,,,,,,,,,,,,,,,,0.069691675,-0.339695411,0,0,0,,,,,,,INFANT,C,z,y,./images/INFANT.png,,,,,,,,m,0,0.652,,,,,,,,0,59,59,160,1
,,,,,,,,,,,,,,,,,198802,18,2022-01-28_18h05.14.327,lexical_decision_task_DD_L6,2021.2.3,MacIntel,60.0024001,,,,,,,,,,,0.4875,1,,,,,,,,,,,,,,,,,,,,,,,,,0.069691675,-0.339695411,0,0,0,,,,,,,STAIN,LB,m,y,./images/STAINLB.png,,,,,,,,m,1,0.4875,,,,,,,,0,60,60,6,1
,,,,,,,,,,,,,,,,,198802,18,2022-01-28_18h05.14.327,lexical_decision_task_DD_L6,2021.2.3,MacIntel,60.0024001,,,,,,,,,,,0.1348,1,,,,,,,,,,,,,,,,,,,,,,,,,0.069691675,-0.339695411,0,0,0,,,,,,,SWING,C,z,y,./images/SWING.png,,,,,,,,z,1,0.1348,,,,,,,,0,61,61,124,1
,,,,,,,,,,,,,,,,,198802,18,2022-01-28_18h05.14.327,lexical_decision_task_DD_L6,2021.2.3,MacIntel,60.0024001,,,,,,,,,,,0.0718,0,,,,,,,,,,,,,,,,,,,,,,,,,0.069691675,-0.339695411,0,0,0,,,,,,,SAUCE,LB,m,y,./images/SAUCELB.png,,,,,,,,z,0,0.0718,,,,,,,,0,62,62,51,1
,,,,,,,,,,,,,,,,,198802,18,2022-01-28_18h05.14.327,lexical_decision_task_DD_L6,2021.2.3,MacIntel,60.0024001,,,,,,,,,,,0.2534,0,,,,,,,,,,,,,,,,,,,,,,,,,0.069691675,-0.339695411,0,0,0,,,,,,,BARREL,HB,z,y,./images/BARRELHB.png,,,,,,,,m,0,0.2534,,,,,,,,0,63,63,116,1
,,,,,,,,,,,,,,,,,198802,18,2022-01-28_18h05.14.327,lexical_decision_task_DD_L6,2021.2.3,MacIntel,60.0024001,,,,,,,,,,,0.0749,0,,,,,,,,,,,,,,,,,,,,,,,,,0.069691675,-0.339695411,0,0,0,,,,,,,POKER,C,m,y,./images/POKER.png,,,,,,,,z,0,0.0749,,,,,,,,0,64,64,67,1
,,,,,,,,,,,,,,,,,198802,18,2022-01-28_18h05.14.327,lexical_decision_task_DD_L6,2021.2.3,MacIntel,60.0024001,,,,,,,,,,,0.2343,0,,,,,,,,,,,,,,,,,,,,,,,,,0.069691675,-0.339695411,0,0,0,,,,,,,GLOVE,C,m,y,./images/GLOVE.png,,,,,,,,z,0,0.2343,,,,,,,,0,65,65,73,1
,,,,,,,,,,,,,,,,,198802,18,2022-01-28_18h05.14.327,lexical_decision_task_DD_L6,2021.2.3,MacIntel,60.0024001,,,,,,,,,,,1.2345,1,,,,,,,,,,,,,,,,,,,,,,,,,0.069691675,-0.339695411,0,0,0,,,,,,,BRUSH,HB,m,y,./images/BRUSHHB.png,,,,,,,,m,1,1.2345,,,,,,,,0,66,66,59,1
,,,,,,,,,,,,,,,,,198802,18,2022-01-28_18h05.14.327,lexical_decision_task_DD_L6,2021.2.3,MacIntel,60.0024001,,,,,,,,,,,0.466,0,,,,,,,,,,,,,,,,,,,,,,,,,0.069691675,-0.339695411,0,0,0,,,,,,,MUSCLE,C,z,y,./images/MUSCLE.png,,,,,,,,m,0,0.466,,,,,,,,0,67,67,88,1
,,,,,,,,,,,,,,,,,198802,18,2022-01-28_18h05.14.327,lexical_decision_task_DD_L6,2021.2.3,MacIntel,60.0024001,,,,,,,,,,,0.2388,1,,,,,,,,,,,,,,,,,,,,,,,,,0.069691675,-0.339695411,0,0,0,,,,,,,SCREW,LB,z,y,./images/SCREWLB.png,,,,,,,,z,1,0.2388,,,,,,,,0,68,68,108,1
,,,,,,,,,,,,,,,,,198802,18,2022-01-28_18h05.14.327,lexical_decision_task_DD_L6,2021.2.3,MacIntel,60.0024001,,,,,,,,,,,0.4376,1,,,,,,,,,,,,,,,,,,,,,,,,,0.069691675,-0.339695411,0,0,0,,,,,,,ARROW,LB,m,y,./images/ARROWLB.png,,,,,,,,m,1,0.4376,,,,,,,,0,69,69,69,1
,,,,,,,,,,,,,,,,,198802,18,2022-01-28_18h05.14.327,lexical_decision_task_DD_L6,2021.2.3,MacIntel,60.0024001,,,,,,,,,,,0.2846,0,,,,,,,,,,,,,,,,,,,,,,,,,0.069691675,-0.339695411,0,0,0,,,,,,,BIRTH,C,z,y,./images/BIRTH.png,,,,,,,,m,0,0.2846,,,,,,,,0,70,70,121,1
,,,,,,,,,,,,,,,,,198802,18,2022-01-28_18h05.14.327,lexical_decision_task_DD_L6,2021.2.3,MacIntel,60.0024001,,,,,,,,,,,0.3895,1,,,,,,,,,,,,,,,,,,,,,,,,,0.069691675,-0.339695411,0,0,0,,,,,,,LIZARD,HB,z,y,./images/LIZARDHB.png,,,,,,,,z,1,0.3895,,,,,,,,0,71,71,128,1
,,,,,,,,,,,,,,,,,198802,18,2022-01-28_18h05.14.327,lexical_decision_task_DD_L6,2021.2.3,MacIntel,60.0024001,,,,,,,,,,,0.4346,1,,,,,,,,,,,,,,,,,,,,,,,,,0.069691675,-0.339695411,0,0,0,,,,,,,URINE,C,z,y,./images/URINE.png,,,,,,,,z,1,0.4346,,,,,,,,0,72,72,154,1
,,,,,,,,,,,,,,,,,198802,18,2022-01-28_18h05.14.327,lexical_decision_task_DD_L6,2021.2.3,MacIntel,60.0024001,,,,,,,,,,,0.3187,0,,,,,,,,,,,,,,,,,,,,,,,,,0.069691675,-0.339695411,0,0,0,,,,,,,CANDY,LB,m,y,./images/CANDYLB.png,,,,,,,,z,0,0.3187,,,,,,,,0,73,73,39,1
,,,,,,,,,,,,,,,,,198802,18,2022-01-28_18h05.14.327,lexical_decision_task_DD_L6,2021.2.3,MacIntel,60.0024001,,,,,,,,,,,0.2806,0,,,,,,,,,,,,,,,,,,,,,,,,,0.069691675,-0.339695411,0,0,0,,,,,,,MUMMY,C,m,y,./images/MUMMY.png,,,,,,,,z,0,0.2806,,,,,,,,0,74,74,46,1
,,,,,,,,,,,,,,,,,198802,18,2022-01-28_18h05.14.327,lexical_decision_task_DD_L6,2021.2.3,MacIntel,60.0024001,,,,,,,,,,,0.7083,0,,,,,,,,,,,,,,,,,,,,,,,,,0.069691675,-0.339695411,0,0,0,,,,,,,PIMPLE,HB,z,y,./images/PIMPLEHB.png,,,,,,,,m,0,0.7083,,,,,,,,0,75,75,155,1
,,,,,,,,,,,,,,,,,198802,18,2022-01-28_18h05.14.327,lexical_decision_task_DD_L6,2021.2.3,MacIntel,60.0024001,,,,,,,,,,,0.8012,0,,,,,,,,,,,,,,,,,,,,,,,,,0.069691675,-0.339695411,0,0,0,,,,,,,STEAK,C,m,y,./images/STEAK.png,,,,,,,,z,0,0.8012,,,,,,,,0,76,76,31,1
,,,,,,,,,,,,,,,,,198802,18,2022-01-28_18h05.14.327,lexical_decision_task_DD_L6,2021.2.3,MacIntel,60.0024001,,,,,,,,,,,0.584,1,,,,,,,,,,,,,,,,,,,,,,,,,0.069691675,-0.339695411,0,0,0,,,,,,,LITTER,LB,z,y,./images/LITTERLB.png,,,,,,,,z,1,0.584,,,,,,,,0,77,77,162,1
,,,,,,,,,,,,,,,,,198802,18,2022-01-28_18h05.14.327,lexical_decision_task_DD_L6,2021.2.3,MacIntel,60.0024001,,,,,,,,,,,0.2851,0,,,,,,,,,,,,,,,,,,,,,,,,,0.069691675,-0.339695411,0,0,0,,,,,,,STORM,LB,z,y,./images/STORMLB.png,,,,,,,,m,0,0.2851,,,,,,,,0,78,78,114,1
,,,,,,,,,,,,,,,,,198802,18,2022-01-28_18h05.14.327,lexical_decision_task_DD_L6,2021.2.3,MacIntel,60.0024001,,,,,,,,,,,0.7165,1,,,,,,,,,,,,,,,,,,,,,,,,,0.069691675,-0.339695411,0,0,0,,,,,,,BROOM,LB,m,y,./images/BROOMLB.png,,,,,,,,m,1,0.7165,,,,,,,,0,79,79,78,1
,,,,,,,,,,,,,,,,,198802,18,2022-01-28_18h05.14.327,lexical_decision_task_DD_L6,2021.2.3,MacIntel,60.0024001,,,,,,,,,,,0.4341,0,,,,,,,,,,,,,,,,,,,,,,,,,0.069691675,-0.339695411,0,0,0,,,,,,,SPINE,HB,m,y,./images/SPINEHB.png,,,,,,,,z,0,0.4341,,,,,,,,0,80,80,65,1
,,,,,,,,,,,,,,,,,198802,18,2022-01-28_18h05.14.327,lexical_decision_task_DD_L6,2021.2.3,MacIntel,60.0024001,,,,,,,,,,,0.5941,0,,,,,,,,,,,,,,,,,,,,,,,,,0.069691675,-0.339695411,0,0,0,,,,,,,ENGINE,HB,m,y,./images/ENGINEHB.png,,,,,,,,z,0,0.5941,,,,,,,,0,81,81,38,1
,,,,,,,,,,,,,,,,,198802,18,2022-01-28_18h05.14.327,lexical_decision_task_DD_L6,2021.2.3,MacIntel,60.0024001,,,,,,,,,,,0.5243,0,,,,,,,,,,,,,,,,,,,,,,,,,0.069691675,-0.339695411,0,0,0,,,,,,,PURSE,HB,z,y,./images/PURSEHB.png,,,,,,,,m,0,0.5243,,,,,,,,0,82,82,146,1
,,,,,,,,,,,,,,,,,198802,18,2022-01-28_18h05.14.327,lexical_decision_task_DD_L6,2021.2.3,MacIntel,60.0024001,,,,,,,,,,,0.2167,1,,,,,,,,,,,,,,,,,,,,,,,,,-0.045934199,-0.073415493,0,0,0,space,,,,,,DRILL,LB,m,y,./images/DRILLLB.png,,1396.8931,,,,,,m,1,0.2167,,,,,,,,0,83,83,81,1
,,,,,,,,,,,,,,,,,198802,18,2022-01-28_18h05.14.327,lexical_decision_task_DD_L6,2021.2.3,MacIntel,60.0024001,,,,,,,,,,,1.7544,0,,,,,,,,,,,,,,,,,,,,,,,,,-0.033863336,-0.22481294,0,0,0,,,,,,,BRIDE,C,m,y,./images/BRIDE.png,,,,,,,,z,0,1.7544,,,,,,,,0,84,84,64,1
,,,,,,,,,,,,,,,,,198802,18,2022-01-28_18h05.14.327,lexical_decision_task_DD_L6,2021.2.3,MacIntel,60.0024001,,,,,,,,,,,0.5928,1,,,,,,,,,,,,,,,,,,,,,,,,,-0.033863336,-0.22481294,0,0,0,,,,,,,TWINS,LB,z,y,./images/TWINSLB.png,,,,,,,,z,1,0.5928,,,,,,,,0,85,85,144,1
,,,,,,,,,,,,,,,,,198802,18,2022-01-28_18h05.14.327,lexical_decision_task_DD_L6,2021.2.3,MacIntel,60.0024001,,,,,,,,,,,0.4594,1,,,,,,,,,,,,,,,,,,,,,,,,,-0.033863336,-0.22481294,0,0,0,,,,,,,WHEEL,HB,m,y,./images/WHEELHB.png,,,,,,,,m,1,0.4594,,,,,,,,0,86,86,77,1
,,,,,,,,,,,,,,,,,198802,18,2022-01-28_18h05.14.327,lexical_decision_task_DD_L6,2021.2.3,MacIntel,60.0024001,,,,,,,,,,,3.2334,1,,,,,,,,,,,,,,,,,,,,,,,,,-0.033863336,-0.22481294,0,0,0,,,,,,,BANNER,C,z,y,./images/BANNER.png,,,,,,,,z,1,3.2334,,,,,,,,0,87,87,136,1
,,,,,,,,,,,,,,,,,198802,18,2022-01-28_18h05.14.327,lexical_decision_task_DD_L6,2021.2.3,MacIntel,60.0024001,,,,,,,,,,,0.1326,0,,,,,,,,,,,,,,,,,,,,,,,,,-0.033863336,-0.22481294,0,0,0,,,,,,,POSTER,HB,m,y,./images/POSTERHB.png,,,,,,,,z,0,0.1326,,,,,,,,0,88,88,53,1
,,,,,,,,,,,,,,,,,198802,18,2022-01-28_18h05.14.327,lexical_decision_task_DD_L6,2021.2.3,MacIntel,60.0024001,,,,,,,,,,,0.5999,1,,,,,,,,,,,,,,,,,,,,,,,,,-0.033863336,-0.22481294,0,0,0,,,,,,,BLOKE,LB,m,y,./images/BLOKELB.png,,,,,,,,m,1,0.5999,,,,,,,,0,89,89,12,1
,,,,,,,,,,,,,,,,,198802,18,2022-01-28_18h05.14.327,lexical_decision_task_DD_L6,2021.2.3,MacIntel,60.0024001,,,,,,,,,,,0.4696,0,,,,,,,,,,,,,,,,,,,,,,,,,-0.033863336,-0.22481294,0,0,0,,,,,,,WRIST,C,z,y,./images/WRIST.png,,,,,,,,m,0,0.4696,,,,,,,,0,90,90,109,1
,,,,,,,,,,,,,,,,,198802,18,2022-01-28_18h05.14.327,lexical_decision_task_DD_L6,2021.2.3,MacIntel,60.0024001,,,,,,,,,,,0.8684,1,,,,,,,,,,,,,,,,,,,,,,,,,-0.033863336,-0.22481294,0,0,0,,,,,,,HEATER,HB,m,y,./images/HEATERHB.png,,,,,,,,m,1,0.8684,,,,,,,,0,91,91,56,1
,,,,,,,,,,,,,,,,,198802,18,2022-01-28_18h05.14.327,lexical_decision_task_DD_L6,2021.2.3,MacIntel,60.0024001,,,,,,,,,,,0.3159,0,,,,,,,,,,,,,,,,,,,,,,,,,-0.033863336,-0.22481294,0,0,0,,,,,,,STOVE,HB,m,y,./images/STOVEHB.png,,,,,,,,z,0,0.3159,,,,,,,,0,92,92,2,1
,,,,,,,,,,,,,,,,,198802,18,2022-01-28_18h05.14.327,lexical_decision_task_DD_L6,2021.2.3,MacIntel,60.0024001,,,,,,,,,,,0.3276,1,,,,,,,,,,,,,,,,,,,,,,,,,-0.033863336,-0.22481294,0,0,0,,,,,,,SKIING,HB,z,y,./images/SKIINGHB.png,,,,,,,,z,1,0.3276,,,,,,,,0,93,93,101,1
,,,,,,,,,,,,,,,,,198802,18,2022-01-28_18h05.14.327,lexical_decision_task_DD_L6,2021.2.3,MacIntel,60.0024001,,,,,,,,,,,0.1498,0,,,,,,,,,,,,,,,,,,,,,,,,,-0.033863336,-0.22481294,0,0,0,,,,,,,TOMATO,LB,z,y,./images/TOMATOLB.png,,,,,,,,m,0,0.1498,,,,,,,,0,94,94,84,1
,,,,,,,,,,,,,,,,,198802,18,2022-01-28_18h05.14.327,lexical_decision_task_DD_L6,2021.2.3,MacIntel,60.0024001,,,,,,,,,,,0.2396,0,,,,,,,,,,,,,,,,,,,,,,,,,-0.033863336,-0.22481294,0,0,0,,,,,,,PARADE,HB,m,y,./images/PARADEHB.png,,,,,,,,z,0,0.2396,,,,,,,,0,95,95,17,1
,,,,,,,,,,,,,,,,,198802,18,2022-01-28_18h05.14.327,lexical_decision_task_DD_L6,2021.2.3,MacIntel,60.0024001,,,,,,,,,,,0.5813,1,,,,,,,,,,,,,,,,,,,,,,,,,-0.033863336,-0.22481294,0,0,0,,,,,,,WAGON,C,m,y,./images/WAGON.png,,,,,,,,m,1,0.5813,,,,,,,,0,96,96,7,1
,,,,,,,,,,,,,,,,,198802,18,2022-01-28_18h05.14.327,lexical_decision_task_DD_L6,2021.2.3,MacIntel,60.0024001,,,,,,,,,,,0.7852,0,,,,,,,,,,,,,,,,,,,,,,,,,-0.033863336,-0.22481294,0,0,0,,,,,,,MEDAL,HB,m,y,./images/MEDALHB.png,,,,,,,,z,0,0.7852,,,,,,,,0,97,97,11,1
,,,,,,,,,,,,,,,,,198802,18,2022-01-28_18h05.14.327,lexical_decision_task_DD_L6,2021.2.3,MacIntel,60.0024001,,,,,,,,,,,0.3388,0,,,,,,,,,,,,,,,,,,,,,,,,,-0.033863336,-0.22481294,0,0,0,,,,,,,CRADLE,HB,z,y,./images/CRADLEHB.png,,,,,,,,m,0,0.3388,,,,,,,,0,98,98,104,1
,,,,,,,,,,,,,,,,,198802,18,2022-01-28_18h05.14.327,lexical_decision_task_DD_L6,2021.2.3,MacIntel,60.0024001,,,,,,,,,,,0.2992,1,,,,,,,,,,,,,,,,,,,,,,,,,-0.033863336,-0.22481294,0,0,0,,,,,,,TULIP,HB,z,y,./images/TULIPHB.png,,,,,,,,z,1,0.2992,,,,,,,,0,99,99,92,1
,,,,,,,,,,,,,,,,,198802,18,2022-01-28_18h05.14.327,lexical_decision_task_DD_L6,2021.2.3,MacIntel,60.0024001,,,,,,,,,,,0.3141,1,,,,,,,,,,,,,,,,,,,,,,,,,-0.033863336,-0.22481294,0,0,0,,,,,,,STREAM,HB,m,y,./images/STREAMHB.png,,,,,,,,m,1,0.3141,,,,,,,,0,100,100,41,1
,,,,,,,,,,,,,,,,,198802,18,2022-01-28_18h05.14.327,lexical_decision_task_DD_L6,2021.2.3,MacIntel,60.0024001,,,,,,,,,,,0.255,1,,,,,,,,,,,,,,,,,,,,,,,,,-0.033863336,-0.22481294,0,0,0,,,,,,,MUFFIN,C,z,y,./images/MUFFIN.png,,,,,,,,z,1,0.255,,,,,,,,0,101,101,139,1
,,,,,,,,,,,,,,,,,198802,18,2022-01-28_18h05.14.327,lexical_decision_task_DD_L6,2021.2.3,MacIntel,60.0024001,,,,,,,,,,,0.5336,1,,,,,,,,,,,,,,,,,,,,,,,,,-0.033863336,-0.22481294,0,0,0,,,,,,,MELON,C,z,y,./images/MELON.png,,,,,,,,z,1,0.5336,,,,,,,,0,102,102,106,1
,,,,,,,,,,,,,,,,,198802,18,2022-01-28_18h05.14.327,lexical_decision_task_DD_L6,2021.2.3,MacIntel,60.0024001,,,,,,,,,,,0.3169,1,,,,,,,,,,,,,,,,,,,,,,,,,-0.197315141,0.432262324,0,0,0,,,,,,,CARPET,HB,z,y,./images/CARPETHB.png,,,,,,,,z,1,0.3169,,,,,,,,0,103,103,137,1
,,,,,,,,,,,,,,,,,198802,18,2022-01-28_18h05.14.327,lexical_decision_task_DD_L6,2021.2.3,MacIntel,60.0024001,,,,,,,,,,,0.3995,0,,,,,,,,,,,,,,,,,,,,,,,,,-0.197315141,0.432262324,0,0,0,,,,,,,GRANNY,HB,m,y,./images/GRANNYHB.png,,,,,,,,z,0,0.3995,,,,,,,,0,104,104,20,1
,,,,,,,,,,,,,,,,,198802,18,2022-01-28_18h05.14.327,lexical_decision_task_DD_L6,2021.2.3,MacIntel,60.0024001,,,,,,,,,,,0.4806,0,,,,,,,,,,,,,,,,,,,,,,,,,-0.197315141,0.432262324,0,0,0,,,,,,,MOSQUE,C,z,y,./images/MOSQUE.png,,,,,,,,m,0,0.4806,,,,,,,,0,105,105,127,1
,,,,,,,,,,,,,,,,,198802,18,2022-01-28_18h05.14.327,lexical_decision_task_DD_L6,2021.2.3,MacIntel,60.0024001,,,,,,,,,,,0.4428,0,,,,,,,,,,,,,,,,,,,,,,,,,-0.197315141,0.432262324,0,0,0,,,,,,,CASINO,C,m,y,./images/CASINO.png,,,,,,,,z,0,0.4428,,,,,,,,0,106,106,28,1
,,,,,,,,,,,,,,,,,198802,18,2022-01-28_18h05.14.327,lexical_decision_task_DD_L6,2021.2.3,MacIntel,60.0024001,,,,,,,,,,,0.2919,1,,,,,,,,,,,,,,,,,,,,,,,,,-0.197315141,0.432262324,0,0,0,,,,,,,POODLE,LB,z,y,./images/POODLELB.png,,,,,,,,z,1,0.2919,,,,,,,,0,107,107,165,1
,,,,,,,,,,,,,,,,,198802,18,2022-01-28_18h05.14.327,lexical_decision_task_DD_L6,2021.2.3,MacIntel,60.0024001,,,,,,,,,,,0.256,1,,,,,,,,,,,,,,,,,,,,,,,,,-0.197315141,0.432262324,0,0,0,,,,,,,BONNET,HB,z,y,./images/BONNETHB.png,,,,,,,,z,1,0.256,,,,,,,,0,108,108,95,1
,,,,,,,,,,,,,,,,,198802,18,2022-01-28_18h05.14.327,lexical_decision_task_DD_L6,2021.2.3,MacIntel,60.0024001,,,,,,,,,,,0.2843,1,,,,,,,,,,,,,,,,,,,,,,,,,-0.197315141,0.432262324,0,0,0,,,,,,,MALLET,HB,z,y,./images/MALLETHB.png,,,,,,,,z,1,0.2843,,,,,,,,0,109,109,134,1
,,,,,,,,,,,,,,,,,198802,18,2022-01-28_18h05.14.327,lexical_decision_task_DD_L6,2021.2.3,MacIntel,60.0024001,,,,,,,,,,,0.0752,1,,,,,,,,,,,,,,,,,,,,,,,,,-0.197315141,0.432262324,0,0,0,,,,,,,GARDEN,C,m,y,./images/GARDEN.png,,,,,,,,m,1,0.0752,,,,,,,,0,110,110,10,1
,,,,,,,,,,,,,,,,,198802,18,2022-01-28_18h05.14.327,lexical_decision_task_DD_L6,2021.2.3,MacIntel,60.0024001,,,,,,,,,,,0.479,0,,,,,,,,,,,,,,,,,,,,,,,,,-0.197315141,0.432262324,0,0,0,,,,,,,DIVER,LB,m,y,./images/DIVERLB.png,,,,,,,,z,0,0.479,,,,,,,,0,111,111,9,1
,,,,,,,,,,,,,,,,,198802,18,2022-01-28_18h05.14.327,lexical_decision_task_DD_L6,2021.2.3,MacIntel,60.0024001,,,,,,,,,,,0.2921,1,,,,,,,,,,,,,,,,,,,,,,,,,-0.197315141,0.432262324,0,0,0,,,,,,,DRUMS,C,z,y,./images/DRUMS.png,,,,,,,,z,1,0.2921,,,,,,,,0,112,112,133,1
,,,,,,,,,,,,,,,,,198802,18,2022-01-28_18h05.14.327,lexical_decision_task_DD_L6,2021.2.3,MacIntel,60.0024001,,,,,,,,,,,0.1417,1,,,,,,,,,,,,,,,,,,,,,,,,,-0.197315141,0.432262324,0,0,0,,,,,,,JUNGLE,HB,z,y,./images/JUNGLEHB.png,,,,,,,,z,1,0.1417,,,,,,,,0,113,113,167,1
,,,,,,,,,,,,,,,,,198802,18,2022-01-28_18h05.14.327,lexical_decision_task_DD_L6,2021.2.3,MacIntel,60.0024001,,,,,,,,,,,0.3992,0,,,,,,,,,,,,,,,,,,,,,,,,,-0.197315141,0.432262324,0,0,0,,,,,,,TORCH,HB,z,y,./images/TORCHHB.png,,,,,,,,m,0,0.3992,,,,,,,,0,114,114,152,1
,,,,,,,,,,,,,,,,,198802,18,2022-01-28_18h05.14.327,lexical_decision_task_DD_L6,2021.2.3,MacIntel,60.0024001,,,,,,,,,,,0.291,0,,,,,,,,,,,,,,,,,,,,,,,,,-0.197315141,0.432262324,0,0,0,,,,,,,STATUE,LB,m,y,./images/STATUELB.png,,,,,,,,z,0,0.291,,,,,,,,0,115,115,66,1
,,,,,,,,,,,,,,,,,198802,18,2022-01-28_18h05.14.327,lexical_decision_task_DD_L6,2021.2.3,MacIntel,60.0024001,,,,,,,,,,,0.1178,0,,,,,,,,,,,,,,,,,,,,,,,,,-0.197315141,0.432262324,0,0,0,,,,,,,PARCEL,LB,m,y,./images/PARCELLB.png,,,,,,,,z,0,0.1178,,,,,,,,0,116,116,18,1
,,,,,,,,,,,,,,,,,198802,18,2022-01-28_18h05.14.327,lexical_decision_task_DD_L6,2021.2.3,MacIntel,60.0024001,,,,,,,,,,,0.4507,0,,,,,,,,,,,,,,,,,,,,,,,,,-0.197315141,0.432262324,0,0,0,,,,,,,MONKEY,LB,m,y,./images/MONKEYLB.png,,,,,,,,z,0,0.4507,,,,,,,,0,117,117,45,1
,,,,,,,,,,,,,,,,,198802,18,2022-01-28_18h05.14.327,lexical_decision_task_DD_L6,2021.2.3,MacIntel,60.0024001,,,,,,,,,,,0.2731,0,,,,,,,,,,,,,,,,,,,,,,,,,-0.197315141,0.432262324,0,0,0,,,,,,,CANYON,C,z,y,./images/CANYON.png,,,,,,,,m,0,0.2731,,,,,,,,0,118,118,118,1
,,,,,,,,,,,,,,,,,198802,18,2022-01-28_18h05.14.327,lexical_decision_task_DD_L6,2021.2.3,MacIntel,60.0024001,,,,,,,,,,,0.2696,0,,,,,,,,,,,,,,,,,,,,,,,,,-0.197315141,0.432262324,0,0,0,,,,,,,GRAIN,LB,z,y,./images/GRAINLB.png,,,,,,,,m,0,0.2696,,,,,,,,0,119,119,159,1
,,,,,,,,,,,,,,,,,198802,18,2022-01-28_18h05.14.327,lexical_decision_task_DD_L6,2021.2.3,MacIntel,60.0024001,,,,,,,,,,,0.5878,0,,,,,,,,,,,,,,,,,,,,,,,,,-0.115591989,0.496148768,0,0,0,,,,,,,SLOPE,LB,m,y,./images/SLOPELB.png,,,,,,,,z,0,0.5878,,,,,,,,0,120,120,30,1
,,,,,,,,,,,,,,,,,198802,18,2022-01-28_18h05.14.327,lexical_decision_task_DD_L6,2021.2.3,MacIntel,60.0024001,,,,,,,,,,,0.5063,0,,,,,,,,,,,,,,,,,,,,,,,,,-0.115591989,0.496148768,0,0,0,,,,,,,DANCER,LB,m,y,./images/DANCERLB.png,,,,,,,,z,0,0.5063,,,,,,,,0,121,121,21,1
,,,,,,,,,,,,,,,,,198802,18,2022-01-28_18h05.14.327,lexical_decision_task_DD_L6,2021.2.3,MacIntel,60.0024001,,,,,,,,,,,0.3511,0,,,,,,,,,,,,,,,,,,,,,,,,,-0.115591989,0.496148768,0,0,0,,,,,,,PILOT,HB,m,y,./images/PILOTHB.png,,,,,,,,z,0,0.3511,,,,,,,,0,122,122,50,1
,,,,,,,,,,,,,,,,,198802,18,2022-01-28_18h05.14.327,lexical_decision_task_DD_L6,2021.2.3,MacIntel,60.0024001,,,,,,,,,,,0.0002,0,,,,,,,,,,,,,,,,,,,,,,,,,-0.115591989,0.496148768,0,0,0,,,,,,,STOOL,C,m,y,./images/STOOL.png,,,,,,,,z,0,0.0002,,,,,,,,0,123,123,43,1
,,,,,,,,,,,,,,,,,198802,18,2022-01-28_18h05.14.327,lexical_decision_task_DD_L6,2021.2.3,MacIntel,60.0024001,,,,,,,,,,,0.2639,1,,,,,,,,,,,,,,,,,,,,,,,,,-0.115591989,0.496148768,0,0,0,,,,,,,SPORT,LB,z,y,./images/SPORTLB.png,,,,,,,,z,1,0.2639,,,,,,,,0,124,124,132,1
,,,,,,,,,,,,,,,,,198802,18,2022-01-28_18h05.14.327,lexical_decision_task_DD_L6,2021.2.3,MacIntel,60.0024001,,,,,,,,,,,0.3003,1,,,,,,,,,,,,,,,,,,,,,,,,,-0.0125,-0.207025748,0,0,0,space,,,,,,BAMBOO,HB,m,y,./images/BAMBOOHB.png,,13.2915,,,,,,m,1,0.3003,,,,,,,,0,125,125,5,1
,,,,,,,,,,,,,,,,,198802,18,2022-01-28_18h05.14.327,lexical_decision_task_DD_L6,2021.2.3,MacIntel,60.0024001,,,,,,,,,,,1.0448,1,,,,,,,,,,,,,,,,,,,,,,,,,-0.0125,-0.207025748,0,0,0,,,,,,,GRAPE,C,m,y,./images/GRAPE.png,,,,,,,,m,1,1.0448,,,,,,,,0,126,126,16,1
,,,,,,,,,,,,,,,,,198802,18,2022-01-28_18h05.14.327,lexical_decision_task_DD_L6,2021.2.3,MacIntel,60.0024001,,,,,,,,,,,0.075,1,,,,,,,,,,,,,,,,,,,,,,,,,-0.0125,-0.207025748,0,0,0,,,,,,,SQUARE,LB,z,y,./images/SQUARELB.png,,,,,,,,z,1,0.075,,,,,,,,0,127,127,90,1
,,,,,,,,,,,,,,,,,198802,18,2022-01-28_18h05.14.327,lexical_decision_task_DD_L6,2021.2.3,MacIntel,60.0024001,,,,,,,,,,,0.0837,0,,,,,,,,,,,,,,,,,,,,,,,,,-0.0125,-0.207025748,0,0,0,,,,,,,JUMPER,HB,m,y,./images/JUMPERHB.png,,,,,,,,z,0,0.0837,,,,,,,,0,128,128,74,1
,,,,,,,,,,,,,,,,,198802,18,2022-01-28_18h05.14.327,lexical_decision_task_DD_L6,2021.2.3,MacIntel,60.0024001,,,,,,,,,,,0.442,0,,,,,,,,,,,,,,,,,,,,,,,,,-0.0125,-0.207025748,0,0,0,,,,,,,WALNUT,LB,m,y,./images/WALNUTLB.png,,,,,,,,z,0,0.442,,,,,,,,0,129,129,0,1
,,,,,,,,,,,,,,,,,198802,18,2022-01-28_18h05.14.327,lexical_decision_task_DD_L6,2021.2.3,MacIntel,60.0024001,,,,,,,,,,,0.2352,1,,,,,,,,,,,,,,,,,,,,,,,,,-0.0125,-0.207025748,0,0,0,,,,,,,STRING,HB,z,y,./images/STRINGHB.png,,,,,,,,z,1,0.2352,,,,,,,,0,130,130,125,1
,,,,,,,,,,,,,,,,,198802,18,2022-01-28_18h05.14.327,lexical_decision_task_DD_L6,2021.2.3,MacIntel,60.0024001,,,,,,,,,,,0.2008,1,,,,,,,,,,,,,,,,,,,,,,,,,-0.0125,-0.207025748,0,0,0,,,,,,,BASKET,HB,m,y,./images/BASKETHB.png,,,,,,,,m,1,0.2008,,,,,,,,0,131,131,44,1
,,,,,,,,,,,,,,,,,198802,18,2022-01-28_18h05.14.327,lexical_decision_task_DD_L6,2021.2.3,MacIntel,60.0024001,,,,,,,,,,,0.0656,1,,,,,,,,,,,,,,,,,,,,,,,,,-0.0125,-0.207025748,0,0,0,,,,,,,PASTA,HB,z,y,./images/PASTAHB.png,,,,,,,,z,1,0.0656,,,,,,,,0,132,132,89,1
,,,,,,,,,,,,,,,,,198802,18,2022-01-28_18h05.14.327,lexical_decision_task_DD_L6,2021.2.3,MacIntel,60.0024001,,,,,,,,,,,0.0684,1,,,,,,,,,,,,,,,,,,,,,,,,,-0.0125,-0.207025748,0,0,0,,,,,,,SMOKER,HB,z,y,./images/SMOKERHB.png,,,,,,,,z,1,0.0684,,,,,,,,0,133,133,110,1
,,,,,,,,,,,,,,,,,198802,18,2022-01-28_18h05.14.327,lexical_decision_task_DD_L6,2021.2.3,MacIntel,60.0024001,,,,,,,,,,,0.1149,1,,,,,,,,,,,,,,,,,,,,,,,,,-0.0125,-0.207025748,0,0,0,,,,,,,CANOE,C,m,y,./images/CANOE.png,,,,,,,,m,1,0.1149,,,,,,,,0,134,134,58,1
,,,,,,,,,,,,,,,,,198802,18,2022-01-28_18h05.14.327,lexical_decision_task_DD_L6,2021.2.3,MacIntel,60.0024001,,,,,,,,,,,0.5309,0,,,,,,,,,,,,,,,,,,,,,,,,,-0.0125,-0.207025748,0,0,0,,,,,,,KIDNEY,LB,z,y,./images/KIDNEYLB.png,,,,,,,,m,0,0.5309,,,,,,,,0,135,135,105,1
,,,,,,,,,,,,,,,,,198802,18,2022-01-28_18h05.14.327,lexical_decision_task_DD_L6,2021.2.3,MacIntel,60.0024001,,,,,,,,,,,0.4148,0,,,,,,,,,,,,,,,,,,,,,,,,,-0.0125,-0.207025748,0,0,0,,,,,,,SUNSET,C,z,y,./images/SUNSET.png,,,,,,,,m,0,0.4148,,,,,,,,0,136,136,166,1
,,,,,,,,,,,,,,,,,198802,18,2022-01-28_18h05.14.327,lexical_decision_task_DD_L6,2021.2.3,MacIntel,60.0024001,,,,,,,,,,,0.1829,1,,,,,,,,,,,,,,,,,,,,,,,,,-0.0125,-0.207025748,0,0,0,,,,,,,SAILOR,C,z,y,./images/SAILOR.png,,,,,,,,z,1,0.1829,,,,,,,,0,137,137,151,1
,,,,,,,,,,,,,,,,,198802,18,2022-01-28_18h05.14.327,lexical_decision_task_DD_L6,2021.2.3,MacIntel,60.0024001,,,,,,,,,,,0.2083,1,,,,,,,,,,,,,,,,,,,,,,,,,-0.0125,-0.207025748,0,0,0,,,,,,,MOTOR,C,z,y,./images/MOTOR.png,,,,,,,,z,1,0.2083,,,,,,,,0,138,138,97,1
,,,,,,,,,,,,,,,,,198802,18,2022-01-28_18h05.14.327,lexical_decision_task_DD_L6,2021.2.3,MacIntel,60.0024001,,,,,,,,,,,0.2545,1,,,,,,,,,,,,,,,,,,,,,,,,,-0.0125,-0.207025748,0,0,0,,,,,,,FARMER,HB,z,y,./images/FARMERHB.png,,,,,,,,z,1,0.2545,,,,,,,,0,139,139,149,1
,,,,,,,,,,,,,,,,,198802,18,2022-01-28_18h05.14.327,lexical_decision_task_DD_L6,2021.2.3,MacIntel,60.0024001,,,,,,,,,,,0.3164,1,,,,,,,,,,,,,,,,,,,,,,,,,-0.0125,-0.207025748,0,0,0,,,,,,,SNACK,C,z,y,./images/SNACK.png,,,,,,,,z,1,0.3164,,,,,,,,0,140,140,157,1
,,,,,,,,,,,,,,,,,198802,18,2022-01-28_18h05.14.327,lexical_decision_task_DD_L6,2021.2.3,MacIntel,60.0024001,,,,,,,,,,,0.1516,0,,,,,,,,,,,,,,,,,,,,,,,,,-0.0125,-0.207025748,0,0,0,,,,,,,CURRY,LB,m,y,./images/CURRYLB.png,,,,,,,,z,0,0.1516,,,,,,,,0,141,141,60,1
,,,,,,,,,,,,,,,,,198802,18,2022-01-28_18h05.14.327,lexical_decision_task_DD_L6,2021.2.3,MacIntel,60.0024001,,,,,,,,,,,0.2996,0,,,,,,,,,,,,,,,,,,,,,,,,,-0.0125,-0.207025748,0,0,0,,,,,,,CLIFF,HB,m,y,./images/CLIFFHB.png,,,,,,,,z,0,0.2996,,,,,,,,0,142,142,8,1
,,,,,,,,,,,,,,,,,198802,18,2022-01-28_18h05.14.327,lexical_decision_task_DD_L6,2021.2.3,MacIntel,60.0024001,,,,,,,,,,,0.3165,0,,,,,,,,,,,,,,,,,,,,,,,,,-0.0125,-0.207025748,0,0,0,,,,,,,KITTEN,LB,z,y,./images/KITTENLB.png,,,,,,,,m,0,0.3165,,,,,,,,0,143,143,129,1
,,,,,,,,,,,,,,,,,198802,18,2022-01-28_18h05.14.327,lexical_decision_task_DD_L6,2021.2.3,MacIntel,60.0024001,,,,,,,,,,,0.0219,0,,,,,,,,,,,,,,,,,,,,,,,,,-0.0125,-0.207025748,0,0,0,,,,,,,CHERRY,LB,m,y,./images/CHERRYLB.png,,,,,,,,z,0,0.0219,,,,,,,,0,144,144,54,1
,,,,,,,,,,,,,,,,,198802,18,2022-01-28_18h05.14.327,lexical_decision_task_DD_L6,2021.2.3,MacIntel,60.0024001,,,,,,,,,,,0.2175,0,,,,,,,,,,,,,,,,,,,,,,,,,-0.0125,-0.207025748,0,0,0,,,,,,,TOWEL,C,m,y,./images/TOWEL.png,,,,,,,,z,0,0.2175,,,,,,,,0,145,145,1,1
,,,,,,,,,,,,,,,,,198802,18,2022-01-28_18h05.14.327,lexical_decision_task_DD_L6,2021.2.3,MacIntel,60.0024001,,,,,,,,,,,0.1977,1,,,,,,,,,,,,,,,,,,,,,,,,,-0.0125,-0.207025748,0,0,0,,,,,,,QUILL,C,z,y,./images/QUILL.png,,,,,,,,z,1,0.1977,,,,,,,,0,146,146,115,1
,,,,,,,,,,,,,,,,,198802,18,2022-01-28_18h05.14.327,lexical_decision_task_DD_L6,2021.2.3,MacIntel,60.0024001,,,,,,,,,,,0.3843,0,,,,,,,,,,,,,,,,,,,,,,,,,-0.0125,-0.207025748,0,0,0,,,,,,,RULER,C,m,y,./images/RULER.png,,,,,,,,z,0,0.3843,,,,,,,,0,147,147,79,1
,,,,,,,,,,,,,,,,,198802,18,2022-01-28_18h05.14.327,lexical_decision_task_DD_L6,2021.2.3,MacIntel,60.0024001,,,,,,,,,,,0.3177,1,,,,,,,,,,,,,,,,,,,,,,,,,-0.0125,-0.207025748,0,0,0,,,,,,,BURIAL,HB,z,y,./images/BURIALHB.png,,,,,,,,z,1,0.3177,,,,,,,,0,148,148,143,1
,,,,,,,,,,,,,,,,,198802,18,2022-01-28_18h05.14.327,lexical_decision_task_DD_L6,2021.2.3,MacIntel,60.0024001,,,,,,,,,,,0.2425,0,,,,,,,,,,,,,,,,,,,,,,,,,-0.0125,-0.207025748,0,0,0,,,,,,,PLANET,HB,m,y,./images/PLANETHB.png,,,,,,,,z,0,0.2425,,,,,,,,0,149,149,80,1
,,,,,,,,,,,,,,,,,198802,18,2022-01-28_18h05.14.327,lexical_decision_task_DD_L6,2021.2.3,MacIntel,60.0024001,,,,,,,,,,,0.0498,0,,,,,,,,,,,,,,,,,,,,,,,,,-0.0125,-0.207025748,0,0,0,,,,,,,LLAMA,HB,m,y,./images/LLAMAHB.png,,,,,,,,z,0,0.0498,,,,,,,,0,150,150,35,1
,,,,,,,,,,,,,,,,,198802,18,2022-01-28_18h05.14.327,lexical_decision_task_DD_L6,2021.2.3,MacIntel,60.0024001,,,,,,,,,,,0.4815,1,,,,,,,,,,,,,,,,,,,,,,,,,-0.0125,-0.207025748,0,0,0,,,,,,,FLASK,LB,m,y,./images/FLASKLB.png,,,,,,,,m,1,0.4815,,,,,,,,0,151,151,72,1
,,,,,,,,,,,,,,,,,198802,18,2022-01-28_18h05.14.327,lexical_decision_task_DD_L6,2021.2.3,MacIntel,60.0024001,,,,,,,,,,,0.4637,0,,,,,,,,,,,,,,,,,,,,,,,,,-0.0125,-0.207025748,0,0,0,,,,,,,PEBBLE,C,m,y,./images/PEBBLE.png,,,,,,,,z,0,0.4637,,,,,,,,0,152,152,82,1
,,,,,,,,,,,,,,,,,198802,18,2022-01-28_18h05.14.327,lexical_decision_task_DD_L6,2021.2.3,MacIntel,60.0024001,,,,,,,,,,,0.2658,1,,,,,,,,,,,,,,,,,,,,,,,,,-0.0125,-0.207025748,0,0,0,,,,,,,ATTIC,LB,z,y,./images/ATTICLB.png,,,,,,,,z,1,0.2658,,,,,,,,0,153,153,111,1
,,,,,,,,,,,,,,,,,198802,18,2022-01-28_18h05.14.327,lexical_decision_task_DD_L6,2021.2.3,MacIntel,60.0024001,,,,,,,,,,,0.4742,1,,,,,,,,,,,,,,,,,,,,,,,,,-0.0125,-0.207025748,0,0,0,,,,,,,LADDER,HB,z,y,./images/LADDERHB.png,,,,,,,,z,1,0.4742,,,,,,,,0,154,154,122,1
,,,,,,,,,,,,,,,,,198802,18,2022-01-28_18h05.14.327,lexical_decision_task_DD_L6,2021.2.3,MacIntel,60.0024001,,,,,,,,,,,0.6144,1,,,,,,,,,,,,,,,,,,,,,,,,,-0.0125,-0.207025748,0,0,0,,,,,,,WALRUS,HB,z,y,./images/WALRUSHB.png,,,,,,,,z,1,0.6144,,,,,,,,0,155,155,107,1
,,,,,,,,,,,,,,,,,198802,18,2022-01-28_18h05.14.327,lexical_decision_task_DD_L6,2021.2.3,MacIntel,60.0024001,,,,,,,,,,,1.3195,0,,,,,,,,,,,,,,,,,,,,,,,,,-0.0125,-0.207025748,0,0,0,,,,,,,COUCH,HB,z,y,./images/COUCHHB.png,,,,,,,,m,0,1.3195,,,,,,,,0,156,156,161,1
,,,,,,,,,,,,,,,,,198802,18,2022-01-28_18h05.14.327,lexical_decision_task_DD_L6,2021.2.3,MacIntel,60.0024001,,,,,,,,,,,0.0161,1,,,,,,,,,,,,,,,,,,,,,,,,,-0.0125,-0.207025748,0,0,0,,,,,,,SHORE,LB,z,y,./images/SHORELB.png,,,,,,,,z,1,0.0161,,,,,,,,0,157,157,96,1
,,,,,,,,,,,,,,,,,198802,18,2022-01-28_18h05.14.327,lexical_decision_task_DD_L6,2021.2.3,MacIntel,60.0024001,,,,,,,,,,,1.5332,1,,,,,,,,,,,,,,,,,,,,,,,,,-0.0125,-0.207025748,0,0,0,,,,,,,BABOON,C,z,y,./images/BABOON.png,,,,,,,,z,1,1.5332,,,,,,,,0,158,158,142,1
,,,,,,,,,,,,,,,,,198802,18,2022-01-28_18h05.14.327,lexical_decision_task_DD_L6,2021.2.3,MacIntel,60.0024001,,,,,,,,,,,1.0914,1,,,,,,,,,,,,,,,,,,,,,,,,,-0.0125,-0.207025748,0,0,0,,,,,,,JELLY,C,z,y,./images/JELLY.png,,,,,,,,z,1,1.0914,,,,,,,,0,159,159,148,1
,,,,,,,,,,,,,,,,,198802,18,2022-01-28_18h05.14.327,lexical_decision_task_DD_L6,2021.2.3,MacIntel,60.0024001,,,,,,,,,,,0.0754,0,,,,,,,,,,,,,,,,,,,,,,,,,-0.0125,-0.207025748,0,0,0,,,,,,,HAMMER,LB,m,y,./images/HAMMERLB.png,,,,,,,,z,0,0.0754,,,,,,,,0,160,160,75,1
,,,,,,,,,,,,,,,,,198802,18,2022-01-28_18h05.14.327,lexical_decision_task_DD_L6,2021.2.3,MacIntel,60.0024001,,,,,,,,,,,0.8896,0,,,,,,,,,,,,,,,,,,,,,,,,,-0.0125,-0.207025748,0,0,0,,,,,,,LAGOON,HB,m,y,./images/LAGOONHB.png,,,,,,,,z,0,0.8896,,,,,,,,0,161,161,47,1
,,,,,,,,,,,,,,,,,198802,18,2022-01-28_18h05.14.327,lexical_decision_task_DD_L6,2021.2.3,MacIntel,60.0024001,,,,,,,,,,,0.2428,1,,,,,,,,,,,,,,,,,,,,,,,,,-0.0125,-0.207025748,0,0,0,,,,,,,MAGGOT,LB,z,y,./images/MAGGOTLB.png,,,,,,,,z,1,0.2428,,,,,,,,0,162,162,117,1
,,,,,,,,,,,,,,,,,198802,18,2022-01-28_18h05.14.327,lexical_decision_task_DD_L6,2021.2.3,MacIntel,60.0024001,,,,,,,,,,,0.3854,0,,,,,,,,,,,,,,,,,,,,,,,,,-0.0125,-0.207025748,0,0,0,,,,,,,CRUST,C,z,y,./images/CRUST.png,,,,,,,,m,0,0.3854,,,,,,,,0,163,163,163,1
,,,,,,,,,,,,,,,,,198802,18,2022-01-28_18h05.14.327,lexical_decision_task_DD_L6,2021.2.3,MacIntel,60.0024001,,,,,,,,,,,0.3488,1,,,,,,,,,,,,,,,,,,,,,,,,,-0.0125,-0.207025748,0,0,0,,,,,,,CLOTH,HB,m,y,./images/CLOTHHB.png,,,,,,,,m,1,0.3488,,,,,,,,0,164,164,23,1
,,,,,,,,,,,,,,,,,198802,18,2022-01-28_18h05.14.327,lexical_decision_task_DD_L6,2021.2.3,MacIntel,60.0024001,,,,,,,,,,,1.2432,0,,,,,,,,,,,,,,,,,,,,,,,,,-0.0125,-0.207025748,0,0,0,,,,,,,SHIELD,LB,m,y,./images/SHIELDLB.png,,,,,,,,z,0,1.2432,,,,,,,,0,165,165,48,1
,,,,,,,,,,,,,,,,,198802,18,2022-01-28_18h05.14.327,lexical_decision_task_DD_L6,2021.2.3,MacIntel,60.0024001,,,,,,,,,,,0.8025,0,,,,,,,,,,,,,,,,,,,,,,,,,-0.0125,-0.207025748,0,0,0,,,,,,,THROAT,LB,z,y,./images/THROATLB.png,,,,,,,,m,0,0.8025,,,,,,,,0,166,166,120,1
,,,,,,,,,,,,,,,,,198802,18,2022-01-28_18h05.14.327,lexical_decision_task_DD_L6,2021.2.3,MacIntel,60.0024001,,,,,,,,,,,1.1857,1,,,,,,,,,,,,,,,,,,,,,,,,,-0.0125,-0.207025748,0,0,0,,,,,,,PEACH,HB,z,y,./images/PEACHHB.png,,,,,,,,z,1,1.1857,,,,,,,,0,167,167,119,1
