key_resp.keys,instr_done_touch.x,instr_done_touch.y,instr_done_touch.leftButton,instr_done_touch.midButton,instr_done_touch.rightButton,instr_done_touch.clicked_name,instruction_pages.thisRepN,instruction_pages.thisTrialN,instruction_pages.thisN,instruction_pages.thisIndex,instruction_pages.ran,pageN,phase,instruct_text,has_image,instruct_image,participant,age,date,expName,psychopyVersion,OS,frameRate,response.keys,response.corr,touch_resp.x,touch_resp.y,touch_resp.leftButton,touch_resp.midButton,touch_resp.rightButton,touch_resp.time,touch_resp.clicked_name,rt,corr,practrials.thisRepN,practrials.thisTrialN,practrials.thisN,practrials.thisIndex,practrials.ran,TrialID,Target,corrAns,end_of_practice_trials_pages.thisRepN,end_of_practice_trials_pages.thisTrialN,end_of_practice_trials_pages.thisN,end_of_practice_trials_pages.thisIndex,end_of_practice_trials_pages.ran,key_resp_2.keys,key_resp_2.corr,targ_click.x,targ_click.y,targ_click.leftButton,targ_click.midButton,targ_click.rightButton,targ_click.time,targ_click.clicked_name,break_done_touch.x,break_done_touch.y,break_done_touch.leftButton,break_done_touch.midButton,break_done_touch.rightButton,break_done_keyboard.keys,maintrials.thisRepN,maintrials.thisTrialN,maintrials.thisN,maintrials.thisIndex,maintrials.ran,string,blur,study,lex,stim_path,break_done_touch.clicked_name,test_instructions.thisRepN,test_instructions.thisTrialN,test_instructions.thisN,test_instructions.thisIndex,test_instructions.ran,key_resp_3.keys,key_resp_3.corr,test_click.x,test_click.y,test_click.leftButton,test_click.midButton,test_click.rightButton,test_click.time,test_click.clicked_name,test_phase.thisRepN,test_phase.thisTrialN,test_phase.thisN,test_phase.thisIndex,test_phase.ran
,0.148681055,-0.413669065,1,0,0,instr_done_button,0,0,0,0,1,1,instructions,"INSTRUCTIONS
At the start of each trial, look at the plus sign  (+) in the center of the screen.  This tells you that a trial is about to begin and where to look. Second, the plus sign will disappear and a string of letters will appear. Your task is to determine if the string of letters is a word or not. If the item is a word press the M key (on keyboard)  or touch the word button (phone/tablet).  If the item is not a word,  press the  Z key (on keyboard)  or touch the nonword button (on phone/tablet). 
Press the space bar or touch  continue.",0,,198895,19,2022-01-30_23h48.10.530,lexical_decision_task_DD_L2,2021.2.3,MacIntel,50,,,,,,,,,,,,,,,,,,,,,,,,,,,,,,,,,,,,,,,,,,,,,,,,,,,,,,,,,,,,,,,,,,,,,
,0.14028777,-0.436450839,1,0,0,instr_done_button,0,1,1,1,1,2,instructions,"If your device has a keyboard, press the 'Z' key for nonwords and the 'M' key for words.





Press the space bar or touch the button below to continue.",0,keyboard-example.gif,198895,19,2022-01-30_23h48.10.530,lexical_decision_task_DD_L2,2021.2.3,MacIntel,50,,,,,,,,,,,,,,,,,,,,,,,,,,,,,,,,,,,,,,,,,,,,,,,,,,,,,,,,,,,,,,,,,,,,,
,0.127098321,-0.440047962,1,0,0,instr_done_button,0,2,2,2,1,3,instructions,"If you are using a touchscreen only device, use the buttons on the screen. Do not use the mouse.





Press the space bar or touch the button below to continue.",0,touchscreen-example.gif,198895,19,2022-01-30_23h48.10.530,lexical_decision_task_DD_L2,2021.2.3,MacIntel,50,,,,,,,,,,,,,,,,,,,,,,,,,,,,,,,,,,,,,,,,,,,,,,,,,,,,,,,,,,,,,,,,,,,,,
,0.110311751,-0.383693046,1,0,0,instr_done_button,0,3,3,3,1,4,instructions,"It is very important that you respond as quickly and accurately as possible, as each letter string will only be on the screen for two seconds. If you do not respond within this time, the message 'Too slow!' will be displayed and the experiment will progress to the next letter string. The first 20 trials will be practice trials and you will receive feedback on your answers. 

Press the space bar or touch the button below to start the practice trials.",0,,198895,19,2022-01-30_23h48.10.530,lexical_decision_task_DD_L2,2021.2.3,MacIntel,50,,,,,,,,,,,,,,,,,,,,,,,,,,,,,,,,,,,,,,,,,,,,,,,,,,,,,,,,,,,,,,,,,,,,,
,,,,,,,,,,,,,,,,,198895,19,2022-01-30_23h48.10.530,lexical_decision_task_DD_L2,2021.2.3,MacIntel,50,,0,0.418465228,-0.261390887,1,0,0,1.963,button_right,1.963,1,0,0,0,5,1,1001,OBTAIN,m,,,,,,,,,,,,,,,,,,,,,,,,,,,,,,,,,,,,,,,,,,,,,,,,,,
,,,,,,,,,,,,,,,,,198895,19,2022-01-30_23h48.10.530,lexical_decision_task_DD_L2,2021.2.3,MacIntel,50,,0,0.404076739,-0.294964029,1,0,0,0.925,button_right,0.925,1,0,1,1,2,1,1001,ALMOND,m,,,,,,,,,,,,,,,,,,,,,,,,,,,,,,,,,,,,,,,,,,,,,,,,,,
,,,,,,,,,,,,,,,,,198895,19,2022-01-30_23h48.10.530,lexical_decision_task_DD_L2,2021.2.3,MacIntel,50,,0,0.398081535,-0.275779376,1,0,0,1.226,button_right,1.226,1,0,2,2,0,1,1001,UTOPIA,m,,,,,,,,,,,,,,,,,,,,,,,,,,,,,,,,,,,,,,,,,,,,,,,,,,
,,,,,,,,,,,,,,,,,198895,19,2022-01-30_23h48.10.530,lexical_decision_task_DD_L2,2021.2.3,MacIntel,50,,0,-0.395683453,-0.304556355,1,0,0,1.101,button_left,1.101,1,0,3,3,12,1,1001,SPRINY,z,,,,,,,,,,,,,,,,,,,,,,,,,,,,,,,,,,,,,,,,,,,,,,,,,,
,,,,,,,,,,,,,,,,,198895,19,2022-01-30_23h48.10.530,lexical_decision_task_DD_L2,2021.2.3,MacIntel,50,,0,-0.405275779,-0.314148681,1,0,0,1.295,button_left,1.295,1,0,4,4,8,1,1001,ASLERT,z,,,,,,,,,,,,,,,,,,,,,,,,,,,,,,,,,,,,,,,,,,,,,,,,,,
,,,,,,,,,,,,,,,,,198895,19,2022-01-30_23h48.10.530,lexical_decision_task_DD_L2,2021.2.3,MacIntel,50,,0,0.398081535,-0.298561151,1,0,0,0.751,button_right,0.751,1,0,5,5,3,1,1001,MATRIX,m,,,,,,,,,,,,,,,,,,,,,,,,,,,,,,,,,,,,,,,,,,,,,,,,,,
,,,,,,,,,,,,,,,,,198895,19,2022-01-30_23h48.10.530,lexical_decision_task_DD_L2,2021.2.3,MacIntel,50,,0,-0.40647482,-0.300959233,1,0,0,0.973,button_left,0.973,1,0,6,6,14,1,1001,THRALE,z,,,,,,,,,,,,,,,,,,,,,,,,,,,,,,,,,,,,,,,,,,,,,,,,,,
,,,,,,,,,,,,,,,,,198895,19,2022-01-30_23h48.10.530,lexical_decision_task_DD_L2,2021.2.3,MacIntel,50,,0,-0.405275779,-0.305755396,1,0,0,1.219,button_left,1.219,1,0,7,7,9,1,1001,FARINY,z,,,,,,,,,,,,,,,,,,,,,,,,,,,,,,,,,,,,,,,,,,,,,,,,,,
,,,,,,,,,,,,,,,,,198895,19,2022-01-30_23h48.10.530,lexical_decision_task_DD_L2,2021.2.3,MacIntel,50,,0,0.413669065,-0.29616307,1,0,0,0.745,button_right,0.745,1,0,8,8,7,1,1001,VOLUME,m,,,,,,,,,,,,,,,,,,,,,,,,,,,,,,,,,,,,,,,,,,,,,,,,,,
,,,,,,,,,,,,,,,,,198895,19,2022-01-30_23h48.10.530,lexical_decision_task_DD_L2,2021.2.3,MacIntel,50,,0,0.419664269,-0.292565947,1,0,0,0.785,button_right,0.785,1,0,9,9,4,1,1001,SQUEAK,m,,,,,,,,,,,,,,,,,,,,,,,,,,,,,,,,,,,,,,,,,,,,,,,,,,
,,,,,,,,,,,,,,,,,198895,19,2022-01-30_23h48.10.530,lexical_decision_task_DD_L2,2021.2.3,MacIntel,50,,0,-0.392086331,-0.316546763,1,0,0,0.909,button_left,0.909,1,0,10,10,15,1,1001,WHAISE,z,,,,,,,,,,,,,,,,,,,,,,,,,,,,,,,,,,,,,,,,,,,,,,,,,,
,,,,,,,,,,,,,,,,,198895,19,2022-01-30_23h48.10.530,lexical_decision_task_DD_L2,2021.2.3,MacIntel,50,,0,-0.40647482,-0.315347722,1,0,0,0.889,button_left,0.889,1,0,11,11,11,1,1001,RASHET,z,,,,,,,,,,,,,,,,,,,,,,,,,,,,,,,,,,,,,,,,,,,,,,,,,,
,,,,,,,,,,,,,,,,,198895,19,2022-01-30_23h48.10.530,lexical_decision_task_DD_L2,2021.2.3,MacIntel,50,,0,0.413669065,-0.286570743,1,0,0,0.669,button_right,0.669,1,0,12,12,1,1,1001,ADJUST,m,,,,,,,,,,,,,,,,,,,,,,,,,,,,,,,,,,,,,,,,,,,,,,,,,,
,,,,,,,,,,,,,,,,,198895,19,2022-01-30_23h48.10.530,lexical_decision_task_DD_L2,2021.2.3,MacIntel,50,,0,-0.413669065,-0.29736211,1,0,0,0.878,button_left,0.878,1,0,13,13,10,1,1001,INLADE,z,,,,,,,,,,,,,,,,,,,,,,,,,,,,,,,,,,,,,,,,,,,,,,,,,,
,,,,,,,,,,,,,,,,,198895,19,2022-01-30_23h48.10.530,lexical_decision_task_DD_L2,2021.2.3,MacIntel,50,,0,0.399280576,-0.326139089,1,0,0,0.625,button_right,0.625,1,0,14,14,6,1,1001,ZOMBIE,m,,,,,,,,,,,,,,,,,,,,,,,,,,,,,,,,,,,,,,,,,,,,,,,,,,
,,,,,,,,,,,,,,,,,198895,19,2022-01-30_23h48.10.530,lexical_decision_task_DD_L2,2021.2.3,MacIntel,50,,0,-0.414868106,-0.316546763,1,0,0,0.818,button_left,0.818,1,0,15,15,13,1,1001,ROUPET,z,,,,,,,,,,,,,,,,,,,,,,,,,,,,,,,,,,,,,,,,,,,,,,,,,,
,0.151079137,-0.374100719,1,0,0,instr_done_button,,,,,,1,end_of_practice,"You have completed the practice trials. During the experimental trials, you will not receive feedback. 
Before you begin, please ensure that you are in a comfortable and quiet location and will not be disturbed for about 15 minutes, as we cannot use your data if you do not complete all the trials. 
 When you are ready to start the experimental trials, please press space or touch the button below.",,,198895,19,2022-01-30_23h48.10.530,lexical_decision_task_DD_L2,2021.2.3,MacIntel,50,,,,,,,,,,,,,,,,,,,,0,0,0,0,1,,,,,,,,,,,,,,,,,,,,,,,,,,,,,,,,,,,,,,,,,,,,,
,,,,,,,,,,,,,,,,,198895,19,2022-01-30_23h48.10.530,lexical_decision_task_DD_L2,2021.2.3,MacIntel,50,,,,,,,,,,0.712,1,,,,,,,,,,,,,,,0,0.42206235,-0.294964029,1,0,0,0.712,button_right_main,0.42206235,-0.294964029,1,0,0,,0,0,0,65,1,FARMER,C,old,m,./images/FARMER.png,,,,,,,,,,,,,,,,,,,,
,,,,,,,,,,,,,,,,,198895,19,2022-01-30_23h48.10.530,lexical_decision_task_DD_L2,2021.2.3,MacIntel,50,,,,,,,,,,2.262,1,,,,,,,,,,,,,,,0,-0.402877698,-0.26498801,1,0,0,2.262,button_left_main,-0.402877698,-0.26498801,1,0,0,,0,1,1,166,1,SHORY,HB,old,z,./images/SHORYHB.png,,,,,,,,,,,,,,,,,,,,
,,,,,,,,,,,,,,,,,198895,19,2022-01-30_23h48.10.530,lexical_decision_task_DD_L2,2021.2.3,MacIntel,50,,,,,,,,,,0.743,1,,,,,,,,,,,,,,,0,0.401678657,-0.29616307,1,0,0,0.743,button_right_main,0.401678657,-0.29616307,1,0,0,,0,2,2,77,1,COUCH,C,old,m,./images/COUCH.png,,,,,,,,,,,,,,,,,,,,
,,,,,,,,,,,,,,,,,198895,19,2022-01-30_23h48.10.530,lexical_decision_task_DD_L2,2021.2.3,MacIntel,50,,,,,,,,,,1.028,1,,,,,,,,,,,,,,,0,-0.402877698,-0.272182254,1,0,0,1.028,button_left_main,-0.402877698,-0.272182254,1,0,0,,0,3,3,102,1,DULLE,C,old,z,./images/DULLE.png,,,,,,,,,,,,,,,,,,,,
,,,,,,,,,,,,,,,,,198895,19,2022-01-30_23h48.10.530,lexical_decision_task_DD_L2,2021.2.3,MacIntel,50,,,,,,,,,,0.81,1,,,,,,,,,,,,,,,0,0.401678657,-0.261390887,1,0,0,0.81,button_right_main,0.401678657,-0.261390887,1,0,0,,0,4,4,24,1,SCREW,HB,old,m,./images/SCREWHB.png,,,,,,,,,,,,,,,,,,,,
,,,,,,,,,,,,,,,,,198895,19,2022-01-30_23h48.10.530,lexical_decision_task_DD_L2,2021.2.3,MacIntel,50,,,,,,,,,,0.693,1,,,,,,,,,,,,,,,0,0.398081535,-0.284172662,1,0,0,0.693,button_right_main,0.398081535,-0.284172662,1,0,0,,0,5,5,68,1,TORCH,C,old,m,./images/TORCH.png,,,,,,,,,,,,,,,,,,,,
,,,,,,,,,,,,,,,,,198895,19,2022-01-30_23h48.10.530,lexical_decision_task_DD_L2,2021.2.3,MacIntel,50,,,,,,,,,,0.737,1,,,,,,,,,,,,,,,0,0.405275779,-0.28177458,1,0,0,0.737,button_right_main,0.405275779,-0.28177458,1,0,0,,0,6,6,61,1,CANDLE,LB,old,m,./images/CANDLELB.png,,,,,,,,,,,,,,,,,,,,
,,,,,,,,,,,,,,,,,198895,19,2022-01-30_23h48.10.530,lexical_decision_task_DD_L2,2021.2.3,MacIntel,50,,,,,,,,,,0.871,1,,,,,,,,,,,,,,,0,0.389688249,-0.298561151,1,0,0,0.871,button_right_main,0.389688249,-0.298561151,1,0,0,,0,7,7,78,1,LITTER,HB,old,m,./images/LITTERHB.png,,,,,,,,,,,,,,,,,,,,
,,,,,,,,,,,,,,,,,198895,19,2022-01-30_23h48.10.530,lexical_decision_task_DD_L2,2021.2.3,MacIntel,50,,,,,,,,,,1.13,1,,,,,,,,,,,,,,,0,-0.306954436,-0.272182254,1,0,0,1.13,button_left_main,-0.306954436,-0.272182254,1,0,0,,0,8,8,103,1,FLORT,HB,old,z,./images/FLORTHB.png,,,,,,,,,,,,,,,,,,,,
,,,,,,,,,,,,,,,,,198895,19,2022-01-30_23h48.10.530,lexical_decision_task_DD_L2,2021.2.3,MacIntel,50,,,,,,,,,,1.571,1,,,,,,,,,,,,,,,0,-0.387290168,-0.31294964,1,0,0,1.571,button_left_main,-0.387290168,-0.31294964,1,0,0,,0,9,9,84,1,HAXES,C,old,z,./images/HAXES.png,,,,,,,,,,,,,,,,,,,,
,,,,,,,,,,,,,,,,,198895,19,2022-01-30_23h48.10.530,lexical_decision_task_DD_L2,2021.2.3,MacIntel,50,,,,,,,,,,2.227,0,,,,,,,,,,,,,,,0,0.370503597,-0.31294964,1,0,0,2.227,button_right_main,0.370503597,-0.31294964,1,0,0,,0,10,10,124,1,TUNCH,HB,old,z,./images/TUNCHHB.png,,,,,,,,,,,,,,,,,,,,
,,,,,,,,,,,,,,,,,198895,19,2022-01-30_23h48.10.530,lexical_decision_task_DD_L2,2021.2.3,MacIntel,50,,,,,,,,,,0.704,1,,,,,,,,,,,,,,,0,0.400479616,-0.270983213,1,0,0,0.704,button_right_main,0.400479616,-0.270983213,1,0,0,,0,11,11,70,1,URINE,LB,old,m,./images/URINELB.png,,,,,,,,,,,,,,,,,,,,
,,,,,,,,,,,,,,,,,198895,19,2022-01-30_23h48.10.530,lexical_decision_task_DD_L2,2021.2.3,MacIntel,50,,,,,,,,,,0.629,1,,,,,,,,,,,,,,,0,0.394484412,-0.269784173,1,0,0,0.629,button_right_main,0.394484412,-0.269784173,1,0,0,,0,12,12,56,1,PACKET,C,old,m,./images/PACKET.png,,,,,,,,,,,,,,,,,,,,
,,,,,,,,,,,,,,,,,198895,19,2022-01-30_23h48.10.530,lexical_decision_task_DD_L2,2021.2.3,MacIntel,50,,,,,,,,,,0.955,1,,,,,,,,,,,,,,,0,-0.368105516,-0.29616307,1,0,0,0.955,button_left_main,-0.368105516,-0.29616307,1,0,0,,0,13,13,141,1,PLEET,C,old,z,./images/PLEET.png,,,,,,,,,,,,,,,,,,,,
,,,,,,,,,,,,,,,,,198895,19,2022-01-30_23h48.10.530,lexical_decision_task_DD_L2,2021.2.3,MacIntel,50,,,,,,,,,,0.695,1,,,,,,,,,,,,,,,0,0.392086331,-0.286570743,1,0,0,0.695,button_right_main,0.392086331,-0.286570743,1,0,0,,0,14,14,57,1,MOOSE,HB,old,m,./images/MOOSEHB.png,,,,,,,,,,,,,,,,,,,,
,,,,,,,,,,,,,,,,,198895,19,2022-01-30_23h48.10.530,lexical_decision_task_DD_L2,2021.2.3,MacIntel,50,,,,,,,,,,1.854,1,,,,,,,,,,,,,,,0,-0.366906475,-0.279376499,1,0,0,1.854,button_left_main,-0.366906475,-0.279376499,1,0,0,,0,15,15,136,1,WERVE,HB,old,z,./images/WERVEHB.png,,,,,,,,,,,,,,,,,,,,
,,,,,,,,,,,,,,,,,198895,19,2022-01-30_23h48.10.530,lexical_decision_task_DD_L2,2021.2.3,MacIntel,50,,,,,,,,,,0.612,1,,,,,,,,,,,,,,,0,0.405275779,-0.282973621,1,0,0,0.612,button_right_main,0.405275779,-0.282973621,1,0,0,,0,16,16,46,1,PEARL,LB,old,m,./images/PEARLLB.png,,,,,,,,,,,,,,,,,,,,
,,,,,,,,,,,,,,,,,198895,19,2022-01-30_23h48.10.530,lexical_decision_task_DD_L2,2021.2.3,MacIntel,50,,,,,,,,,,0.628,1,,,,,,,,,,,,,,,0,0.408872902,-0.272182254,1,0,0,0.628,button_right_main,0.408872902,-0.272182254,1,0,0,,0,17,17,73,1,SNACK,LB,old,m,./images/SNACKLB.png,,,,,,,,,,,,,,,,,,,,
,,,,,,,,,,,,,,,,,198895,19,2022-01-30_23h48.10.530,lexical_decision_task_DD_L2,2021.2.3,MacIntel,50,,,,,,,,,,0.845,1,,,,,,,,,,,,,,,0,-0.378896882,-0.260191847,1,0,0,0.845,button_left_main,-0.378896882,-0.260191847,1,0,0,,0,18,18,125,1,MOOKY,LB,old,z,./images/MOOKYLB.png,,,,,,,,,,,,,,,,,,,,
,,,,,,,,,,,,,,,,,198895,19,2022-01-30_23h48.10.530,lexical_decision_task_DD_L2,2021.2.3,MacIntel,50,,,,,,,,,,0.68,1,,,,,,,,,,,,,,,0,0.398081535,-0.293764988,1,0,0,0.68,button_right_main,0.398081535,-0.293764988,1,0,0,,0,19,19,76,1,INFANT,LB,old,m,./images/INFANTLB.png,,,,,,,,,,,,,,,,,,,,
,,,,,,,,,,,,,,,,,198895,19,2022-01-30_23h48.10.530,lexical_decision_task_DD_L2,2021.2.3,MacIntel,50,,,,,,,,,,0.619,1,,,,,,,,,,,,,,,0,0.404076739,-0.294964029,1,0,0,0.619,button_right_main,0.404076739,-0.294964029,1,0,0,,0,20,20,30,1,STORM,HB,old,m,./images/STORMHB.png,,,,,,,,,,,,,,,,,,,,
,,,,,,,,,,,,,,,,,198895,19,2022-01-30_23h48.10.530,lexical_decision_task_DD_L2,2021.2.3,MacIntel,50,,,,,,,,,,1.34,1,,,,,,,,,,,,,,,0,-0.387290168,-0.272182254,1,0,0,1.34,button_left_main,-0.387290168,-0.272182254,1,0,0,,0,21,21,142,1,PLASK,HB,old,z,./images/PLASKHB.png,,,,,,,,,,,,,,,,,,,,
,,,,,,,,,,,,,,,,,198895,19,2022-01-30_23h48.10.530,lexical_decision_task_DD_L2,2021.2.3,MacIntel,50,,,,,,,,,,0.865,1,,,,,,,,,,,,,,,0,-0.382494005,-0.273381295,1,0,0,0.865,button_left_main,-0.382494005,-0.273381295,1,0,0,,0,22,22,167,1,ZONET,LB,old,z,./images/ZONETLB.png,,,,,,,,,,,,,,,,,,,,
,,,,,,,,,,,,,,,,,198895,19,2022-01-30_23h48.10.530,lexical_decision_task_DD_L2,2021.2.3,MacIntel,50,,,,,,,,,,0.637,1,,,,,,,,,,,,,,,0,0.394484412,-0.293764988,1,0,0,0.637,button_right_main,0.394484412,-0.293764988,1,0,0,,0,23,23,38,1,LADDER,C,old,m,./images/LADDER.png,,,,,,,,,,,,,,,,,,,,
,,,,,,,,,,,,,,,,,198895,19,2022-01-30_23h48.10.530,lexical_decision_task_DD_L2,2021.2.3,MacIntel,50,,,,,,,,,,0.944,1,,,,,,,,,,,,,,,0,-0.381294964,-0.270983213,1,0,0,0.944,button_left_main,-0.381294964,-0.270983213,1,0,0,,0,24,24,154,1,THINT,HB,old,z,./images/THINTHB.png,,,,,,,,,,,,,,,,,,,,
,,,,,,,,,,,,,,,,,198895,19,2022-01-30_23h48.10.530,lexical_decision_task_DD_L2,2021.2.3,MacIntel,50,,,,,,,,,,1.752,1,,,,,,,,,,,,,,,0,-0.389688249,-0.262589928,1,0,0,1.752,button_left_main,-0.389688249,-0.262589928,1,0,0,,0,25,25,151,1,TINKY,HB,old,z,./images/TINKYHB.png,,,,,,,,,,,,,,,,,,,,
,,,,,,,,,,,,,,,,,198895,19,2022-01-30_23h48.10.530,lexical_decision_task_DD_L2,2021.2.3,MacIntel,50,,,,,,,,,,0.937,1,,,,,,,,,,,,,,,0,-0.395683453,-0.261390887,1,0,0,0.937,button_left_main,-0.395683453,-0.261390887,1,0,0,,0,26,26,164,1,SGREW,LB,old,z,./images/SGREWLB.png,,,,,,,,,,,,,,,,,,,,
,,,,,,,,,,,,,,,,,198895,19,2022-01-30_23h48.10.530,lexical_decision_task_DD_L2,2021.2.3,MacIntel,50,,,,,,,,,,0.653,1,,,,,,,,,,,,,,,0,0.401678657,-0.293764988,1,0,0,0.653,button_right_main,0.401678657,-0.293764988,1,0,0,,0,27,27,22,1,MELON,LB,old,m,./images/MELONLB.png,,,,,,,,,,,,,,,,,,,,
,,,,,,,,,,,,,,,,,198895,19,2022-01-30_23h48.10.530,lexical_decision_task_DD_L2,2021.2.3,MacIntel,50,,,,,,,,,,0.887,1,,,,,,,,,,,,,,,0,0.407673861,-0.287769784,1,0,0,0.887,button_right_main,0.407673861,-0.287769784,1,0,0,,0,28,28,28,1,FALCON,LB,old,m,./images/FALCONLB.png,,,,,,,,,,,,,,,,,,,,
,,,,,,,,,,,,,,,,,198895,19,2022-01-30_23h48.10.530,lexical_decision_task_DD_L2,2021.2.3,MacIntel,50,,,,,,,,,,0.769,1,,,,,,,,,,,,,,,0,0.396882494,-0.308153477,1,0,0,0.769,button_right_main,0.396882494,-0.308153477,1,0,0,,0,29,29,20,1,CRADLE,C,old,m,./images/CRADLE.png,,,,,,,,,,,,,,,,,,,,
,,,,,,,,,,,,,,,,,198895,19,2022-01-30_23h48.10.530,lexical_decision_task_DD_L2,2021.2.3,MacIntel,50,,,,,,,,,,0.746,1,,,,,,,,,,,,,,,0,0.405275779,-0.327338129,1,0,0,0.746,button_right_main,0.405275779,-0.327338129,1,0,0,,0,30,30,47,1,BERRY,C,old,m,./images/BERRY.png,,,,,,,,,,,,,,,,,,,,
,,,,,,,,,,,,,,,,,198895,19,2022-01-30_23h48.10.530,lexical_decision_task_DD_L2,2021.2.3,MacIntel,50,,,,,,,,,,1.812,0,,,,,,,,,,,,,,,0,0.420863309,-0.300959233,1,0,0,1.812,button_right_main,0.420863309,-0.300959233,1,0,0,,0,31,31,152,1,FRAIN,LB,old,z,./images/FRAINLB.png,,,,,,,,,,,,,,,,,,,,
,,,,,,,,,,,,,,,,,198895,19,2022-01-30_23h48.10.530,lexical_decision_task_DD_L2,2021.2.3,MacIntel,50,,,,,,,,,,0.936,1,,,,,,,,,,,,,,,0,-0.369304556,-0.322541966,1,0,0,0.936,button_left_main,-0.369304556,-0.322541966,1,0,0,,0,32,32,111,1,HOSSE,C,old,z,./images/HOSSE.png,,,,,,,,,,,,,,,,,,,,
,,,,,,,,,,,,,,,,,198895,19,2022-01-30_23h48.10.530,lexical_decision_task_DD_L2,2021.2.3,MacIntel,50,,,,,,,,,,0.645,1,,,,,,,,,,,,,,,0,0.394484412,-0.324940048,1,0,0,0.645,button_right_main,0.394484412,-0.324940048,1,0,0,,0,33,33,51,1,ONION,HB,old,m,./images/ONIONHB.png,,,,,,,,,,,,,,,,,,,,
,,,,,,,,,,,,,,,,,198895,19,2022-01-30_23h48.10.530,lexical_decision_task_DD_L2,2021.2.3,MacIntel,50,,,,,,,,,,1.368,1,,,,,,,,,,,,,,,0,0.405275779,-0.282973621,1,0,0,1.368,button_right_main,0.405275779,-0.282973621,1,0,0,,0,34,34,50,1,MALLET,C,old,m,./images/MALLET.png,,,,,,,,,,,,,,,,,,,,
,,,,,,,,,,,,,,,,,198895,19,2022-01-30_23h48.10.530,lexical_decision_task_DD_L2,2021.2.3,MacIntel,50,,,,,,,,,,0.892,1,,,,,,,,,,,,,,,0,0.419664269,-0.302158273,1,0,0,0.892,button_right_main,0.419664269,-0.302158273,1,0,0,,0,35,35,75,1,GRAIN,HB,old,m,./images/GRAINHB.png,,,,,,,,,,,,,,,,,,,,
,,,,,,,,,,,,,,,,,198895,19,2022-01-30_23h48.10.530,lexical_decision_task_DD_L2,2021.2.3,MacIntel,50,,,,,,,,,,1.421,0,,,,,,,,,,,,,,,0,0.395683453,-0.286570743,1,0,0,1.421,button_right_main,0.395683453,-0.286570743,1,0,0,,0,36,36,107,1,FASKS,LB,old,z,./images/FASKSLB.png,,,,,,,,,,,,,,,,,,,,
,,,,,,,,,,,,,,,,,198895,19,2022-01-30_23h48.10.530,lexical_decision_task_DD_L2,2021.2.3,MacIntel,50,,,,,,,,,,4.973,1,,,,,,,,,,,,,,,0,-0.360911271,-0.275779376,1,0,0,4.973,button_left_main,-0.360911271,-0.275779376,1,0,0,,0,37,37,130,1,CRILL,HB,old,z,./images/CRILLHB.png,,,,,,,,,,,,,,,,,,,,
,,,,,,,,,,,,,,,,,198895,19,2022-01-30_23h48.10.530,lexical_decision_task_DD_L2,2021.2.3,MacIntel,50,,,,,,,,,,0.877,1,,,,,,,,,,,,,,,0,0.357314149,-0.254196643,1,0,0,0.877,button_right_main,0.357314149,-0.254196643,1,0,0,,0,38,38,36,1,THROAT,HB,old,m,./images/THROATHB.png,,,,,,,,,,,,,,,,,,,,
,,,,,,,,,,,,,,,,,198895,19,2022-01-30_23h48.10.530,lexical_decision_task_DD_L2,2021.2.3,MacIntel,50,,,,,,,,,,1.146,1,,,,,,,,,,,,,,,0,0.369304556,-0.263788969,1,0,0,1.146,button_right_main,0.369304556,-0.263788969,1,0,0,,0,39,39,60,1,TWINS,HB,old,m,./images/TWINSHB.png,,,,,,,,,,,,,,,,,,,,
,,,,,,,,,,,,,,,,,198895,19,2022-01-30_23h48.10.530,lexical_decision_task_DD_L2,2021.2.3,MacIntel,50,,,,,,,,,,0.786,1,,,,,,,,,,,,,,,0,-0.369304556,-0.290167866,1,0,0,0.786,button_left_main,-0.369304556,-0.290167866,1,0,0,,0,40,40,150,1,NOOLS,C,old,z,./images/NOOLS.png,,,,,,,,,,,,,,,,,,,,
,,,,,,,,,,,,,,,,,198895,19,2022-01-30_23h48.10.530,lexical_decision_task_DD_L2,2021.2.3,MacIntel,50,,,,,,,,,,1.654,1,,,,,,,,,,,,,,,0,-0.365707434,-0.292565947,1,0,0,1.654,button_left_main,0.003597122,-0.401678657,1,0,0,,0,41,41,161,1,BLAPS,LB,old,z,./images/BLAPSLB.png,break_done_button,,,,,,,,,,,,,,,,,,,
,,,,,,,,,,,,,,,,,198895,19,2022-01-30_23h48.10.530,lexical_decision_task_DD_L2,2021.2.3,MacIntel,50,,,,,,,,,,1.947,1,,,,,,,,,,,,,,,0,-0.322541966,-0.305755396,1,0,0,1.947,button_left_main,-0.322541966,-0.305755396,1,0,0,,0,42,42,139,1,BLEAR,HB,old,z,./images/BLEARHB.png,,,,,,,,,,,,,,,,,,,,
,,,,,,,,,,,,,,,,,198895,19,2022-01-30_23h48.10.530,lexical_decision_task_DD_L2,2021.2.3,MacIntel,50,,,,,,,,,,0.761,1,,,,,,,,,,,,,,,0,-0.354916067,-0.282973621,1,0,0,0.761,button_left_main,-0.354916067,-0.282973621,1,0,0,,0,43,43,96,1,KEAMS,C,old,z,./images/KEAMS.png,,,,,,,,,,,,,,,,,,,,
,,,,,,,,,,,,,,,,,198895,19,2022-01-30_23h48.10.530,lexical_decision_task_DD_L2,2021.2.3,MacIntel,50,,,,,,,,,,0.662,1,,,,,,,,,,,,,,,0,0.382494005,-0.308153477,1,0,0,0.662,button_right_main,0.382494005,-0.308153477,1,0,0,,0,44,44,45,1,KITTEN,HB,old,m,./images/KITTENHB.png,,,,,,,,,,,,,,,,,,,,
,,,,,,,,,,,,,,,,,198895,19,2022-01-30_23h48.10.530,lexical_decision_task_DD_L2,2021.2.3,MacIntel,50,,,,,,,,,,0.601,1,,,,,,,,,,,,,,,0,0.386091127,-0.315347722,1,0,0,0.601,button_right_main,0.386091127,-0.315347722,1,0,0,,0,45,45,19,1,DOUGH,LB,old,m,./images/DOUGHLB.png,,,,,,,,,,,,,,,,,,,,
,,,,,,,,,,,,,,,,,198895,19,2022-01-30_23h48.10.530,lexical_decision_task_DD_L2,2021.2.3,MacIntel,50,,,,,,,,,,0.554,1,,,,,,,,,,,,,,,0,0.400479616,-0.278177458,1,0,0,0.554,button_right_main,0.400479616,-0.278177458,1,0,0,,0,46,46,14,1,PICKLE,C,old,m,./images/PICKLE.png,,,,,,,,,,,,,,,,,,,,
,,,,,,,,,,,,,,,,,198895,19,2022-01-30_23h48.10.530,lexical_decision_task_DD_L2,2021.2.3,MacIntel,50,,,,,,,,,,0.837,1,,,,,,,,,,,,,,,0,-0.381294964,-0.28057554,1,0,0,0.837,button_left_main,-0.381294964,-0.28057554,1,0,0,,0,47,47,146,1,MOOST,LB,old,z,./images/MOOSTLB.png,,,,,,,,,,,,,,,,,,,,
,,,,,,,,,,,,,,,,,198895,19,2022-01-30_23h48.10.530,lexical_decision_task_DD_L2,2021.2.3,MacIntel,50,,,,,,,,,,1.045,1,,,,,,,,,,,,,,,0,0.39088729,-0.308153477,1,0,0,1.045,button_right_main,0.39088729,-0.308153477,1,0,0,,0,48,48,27,1,ATTIC,HB,old,m,./images/ATTICHB.png,,,,,,,,,,,,,,,,,,,,
,,,,,,,,,,,,,,,,,198895,19,2022-01-30_23h48.10.530,lexical_decision_task_DD_L2,2021.2.3,MacIntel,50,,,,,,,,,,0.745,1,,,,,,,,,,,,,,,0,0.400479616,-0.287769784,1,0,0,0.745,button_right_main,0.400479616,-0.287769784,1,0,0,,0,49,49,6,1,SQUARE,HB,old,m,./images/SQUAREHB.png,,,,,,,,,,,,,,,,,,,,
,,,,,,,,,,,,,,,,,198895,19,2022-01-30_23h48.10.530,lexical_decision_task_DD_L2,2021.2.3,MacIntel,50,,,,,,,,,,0.619,1,,,,,,,,,,,,,,,0,0.389688249,-0.318944844,1,0,0,0.619,button_right_main,0.389688249,-0.318944844,1,0,0,,0,50,50,15,1,GREASE,HB,old,m,./images/GREASEHB.png,,,,,,,,,,,,,,,,,,,,
,,,,,,,,,,,,,,,,,198895,19,2022-01-30_23h48.10.530,lexical_decision_task_DD_L2,2021.2.3,MacIntel,50,,,,,,,,,,0.637,1,,,,,,,,,,,,,,,0,0.402877698,-0.293764988,1,0,0,0.637,button_right_main,0.402877698,-0.293764988,1,0,0,,0,51,51,4,1,MUSCLE,LB,old,m,./images/MUSCLELB.png,,,,,,,,,,,,,,,,,,,,
,,,,,,,,,,,,,,,,,198895,19,2022-01-30_23h48.10.530,lexical_decision_task_DD_L2,2021.2.3,MacIntel,50,,,,,,,,,,0.612,1,,,,,,,,,,,,,,,0,0.404076739,-0.302158273,1,0,0,0.612,button_right_main,0.404076739,-0.302158273,1,0,0,,0,52,52,1,1,PLANK,LB,old,m,./images/PLANKLB.png,,,,,,,,,,,,,,,,,,,,
,,,,,,,,,,,,,,,,,198895,19,2022-01-30_23h48.10.530,lexical_decision_task_DD_L2,2021.2.3,MacIntel,50,,,,,,,,,,1.254,1,,,,,,,,,,,,,,,0,-0.378896882,-0.28177458,1,0,0,1.254,button_left_main,-0.378896882,-0.28177458,1,0,0,,0,53,53,88,1,GLUSH,HB,old,z,./images/GLUSHHB.png,,,,,,,,,,,,,,,,,,,,
,,,,,,,,,,,,,,,,,198895,19,2022-01-30_23h48.10.530,lexical_decision_task_DD_L2,2021.2.3,MacIntel,50,,,,,,,,,,0.629,1,,,,,,,,,,,,,,,0,0.40647482,-0.284172662,1,0,0,0.629,button_right_main,0.40647482,-0.284172662,1,0,0,,0,54,54,41,1,STRING,C,old,m,./images/STRING.png,,,,,,,,,,,,,,,,,,,,
,,,,,,,,,,,,,,,,,198895,19,2022-01-30_23h48.10.530,lexical_decision_task_DD_L2,2021.2.3,MacIntel,50,,,,,,,,,,0.705,1,,,,,,,,,,,,,,,0,0.401678657,-0.306954436,1,0,0,0.705,button_right_main,0.401678657,-0.306954436,1,0,0,,0,55,55,5,1,PASTA,C,old,m,./images/PASTA.png,,,,,,,,,,,,,,,,,,,,
,,,,,,,,,,,,,,,,,198895,19,2022-01-30_23h48.10.530,lexical_decision_task_DD_L2,2021.2.3,MacIntel,50,,,,,,,,,,1.662,1,,,,,,,,,,,,,,,0,-0.389688249,-0.286570743,1,0,0,1.662,button_left_main,-0.389688249,-0.286570743,1,0,0,,0,56,56,158,1,EGECT,LB,old,z,./images/EGECTLB.png,,,,,,,,,,,,,,,,,,,,
,,,,,,,,,,,,,,,,,198895,19,2022-01-30_23h48.10.530,lexical_decision_task_DD_L2,2021.2.3,MacIntel,50,,,,,,,,,,1.287,1,,,,,,,,,,,,,,,0,-0.388489209,-0.28057554,1,0,0,1.287,button_left_main,-0.388489209,-0.28057554,1,0,0,,0,57,57,129,1,PRANS,C,old,z,./images/PRANS.png,,,,,,,,,,,,,,,,,,,,
,,,,,,,,,,,,,,,,,198895,19,2022-01-30_23h48.10.530,lexical_decision_task_DD_L2,2021.2.3,MacIntel,50,,,,,,,,,,0.795,1,,,,,,,,,,,,,,,0,-0.387290168,-0.294964029,1,0,0,0.795,button_left_main,-0.387290168,-0.294964029,1,0,0,,0,58,58,132,1,SCIFF,C,old,z,./images/SCIFF.png,,,,,,,,,,,,,,,,,,,,
,,,,,,,,,,,,,,,,,198895,19,2022-01-30_23h48.10.530,lexical_decision_task_DD_L2,2021.2.3,MacIntel,50,,,,,,,,,,1.413,1,,,,,,,,,,,,,,,0,-0.384892086,-0.284172662,1,0,0,1.413,button_left_main,-0.384892086,-0.284172662,1,0,0,,0,59,59,163,1,GAMBA,HB,old,z,./images/GAMBAHB.png,,,,,,,,,,,,,,,,,,,,
,,,,,,,,,,,,,,,,,198895,19,2022-01-30_23h48.10.530,lexical_decision_task_DD_L2,2021.2.3,MacIntel,50,,,,,,,,,,0.821,1,,,,,,,,,,,,,,,0,-0.411270983,-0.28057554,1,0,0,0.821,button_left_main,-0.411270983,-0.28057554,1,0,0,,0,60,60,155,1,CANGY,LB,old,z,./images/CANGYLB.png,,,,,,,,,,,,,,,,,,,,
,,,,,,,,,,,,,,,,,198895,19,2022-01-30_23h48.10.530,lexical_decision_task_DD_L2,2021.2.3,MacIntel,50,,,,,,,,,,1.704,0,,,,,,,,,,,,,,,0,0.404076739,-0.314148681,1,0,0,1.704,button_right_main,0.404076739,-0.314148681,1,0,0,,0,61,61,156,1,HIXES,C,old,z,./images/HIXES.png,,,,,,,,,,,,,,,,,,,,
,,,,,,,,,,,,,,,,,198895,19,2022-01-30_23h48.10.530,lexical_decision_task_DD_L2,2021.2.3,MacIntel,50,,,,,,,,,,1.019,1,,,,,,,,,,,,,,,0,0.414868106,-0.28177458,1,0,0,1.019,button_right_main,0.414868106,-0.28177458,1,0,0,,0,62,62,10,1,BELLY,LB,old,m,./images/BELLYLB.png,,,,,,,,,,,,,,,,,,,,
,,,,,,,,,,,,,,,,,198895,19,2022-01-30_23h48.10.530,lexical_decision_task_DD_L2,2021.2.3,MacIntel,50,,,,,,,,,,0.63,1,,,,,,,,,,,,,,,0,0.411270983,-0.28177458,1,0,0,0.63,button_right_main,0.411270983,-0.28177458,1,0,0,,0,63,63,63,1,MIRROR,HB,old,m,./images/MIRRORHB.png,,,,,,,,,,,,,,,,,,,,
,,,,,,,,,,,,,,,,,198895,19,2022-01-30_23h48.10.530,lexical_decision_task_DD_L2,2021.2.3,MacIntel,50,,,,,,,,,,0.841,1,,,,,,,,,,,,,,,0,-0.402877698,-0.279376499,1,0,0,0.841,button_left_main,-0.402877698,-0.279376499,1,0,0,,0,64,64,147,1,ZOLES,C,old,z,./images/ZOLES.png,,,,,,,,,,,,,,,,,,,,
,,,,,,,,,,,,,,,,,198895,19,2022-01-30_23h48.10.530,lexical_decision_task_DD_L2,2021.2.3,MacIntel,50,,,,,,,,,,1.271,1,,,,,,,,,,,,,,,0,-0.412470024,-0.26498801,1,0,0,1.271,button_left_main,-0.412470024,-0.26498801,1,0,0,,0,65,65,106,1,CLUMS,HB,old,z,./images/CLUMSHB.png,,,,,,,,,,,,,,,,,,,,
,,,,,,,,,,,,,,,,,198895,19,2022-01-30_23h48.10.530,lexical_decision_task_DD_L2,2021.2.3,MacIntel,50,,,,,,,,,,0.611,1,,,,,,,,,,,,,,,0,0.401678657,-0.29616307,1,0,0,0.611,button_right_main,0.401678657,-0.29616307,1,0,0,,0,66,66,26,1,SMOKER,C,old,m,./images/SMOKER.png,,,,,,,,,,,,,,,,,,,,
,,,,,,,,,,,,,,,,,198895,19,2022-01-30_23h48.10.530,lexical_decision_task_DD_L2,2021.2.3,MacIntel,50,,,,,,,,,,1.18,1,,,,,,,,,,,,,,,0,-0.393285372,-0.267386091,1,0,0,1.18,button_left_main,-0.393285372,-0.267386091,1,0,0,,0,67,67,127,1,NINDY,HB,old,z,./images/NINDYHB.png,,,,,,,,,,,,,,,,,,,,
,,,,,,,,,,,,,,,,,198895,19,2022-01-30_23h48.10.530,lexical_decision_task_DD_L2,2021.2.3,MacIntel,50,,,,,,,,,,0.821,1,,,,,,,,,,,,,,,0,-0.399280576,-0.26618705,1,0,0,0.821,button_left_main,-0.399280576,-0.26618705,1,0,0,,0,68,68,122,1,BLOOT,LB,old,z,./images/BLOOTLB.png,,,,,,,,,,,,,,,,,,,,
,,,,,,,,,,,,,,,,,198895,19,2022-01-30_23h48.10.530,lexical_decision_task_DD_L2,2021.2.3,MacIntel,50,,,,,,,,,,0.86,1,,,,,,,,,,,,,,,0,-0.389688249,-0.272182254,1,0,0,0.86,button_left_main,-0.389688249,-0.272182254,1,0,0,,0,69,69,128,1,GRIFT,LB,old,z,./images/GRIFTLB.png,,,,,,,,,,,,,,,,,,,,
,,,,,,,,,,,,,,,,,198895,19,2022-01-30_23h48.10.530,lexical_decision_task_DD_L2,2021.2.3,MacIntel,50,,,,,,,,,,0.778,1,,,,,,,,,,,,,,,0,0.414868106,-0.293764988,1,0,0,0.778,button_right_main,0.414868106,-0.293764988,1,0,0,,0,70,70,49,1,DRUMS,LB,old,m,./images/DRUMSLB.png,,,,,,,,,,,,,,,,,,,,
,,,,,,,,,,,,,,,,,198895,19,2022-01-30_23h48.10.530,lexical_decision_task_DD_L2,2021.2.3,MacIntel,50,,,,,,,,,,0.92,1,,,,,,,,,,,,,,,0,-0.396882494,-0.298561151,1,0,0,0.92,button_left_main,-0.396882494,-0.298561151,1,0,0,,0,71,71,87,1,TRING,C,old,z,./images/TRING.png,,,,,,,,,,,,,,,,,,,,
,,,,,,,,,,,,,,,,,198895,19,2022-01-30_23h48.10.530,lexical_decision_task_DD_L2,2021.2.3,MacIntel,50,,,,,,,,,,2.613,0,,,,,,,,,,,,,,,0,-0.381294964,-0.251798561,1,0,0,2.613,button_left_main,-0.381294964,-0.251798561,1,0,0,,0,72,72,33,1,MAGGOT,HB,old,m,./images/MAGGOTHB.png,,,,,,,,,,,,,,,,,,,,
,,,,,,,,,,,,,,,,,198895,19,2022-01-30_23h48.10.530,lexical_decision_task_DD_L2,2021.2.3,MacIntel,50,,,,,,,,,,1.596,1,,,,,,,,,,,,,,,0,-0.364508393,-0.291366906,1,0,0,1.596,button_left_main,-0.364508393,-0.291366906,1,0,0,,0,73,73,91,1,SHENS,HB,old,z,./images/SHENSHB.png,,,,,,,,,,,,,,,,,,,,
,,,,,,,,,,,,,,,,,198895,19,2022-01-30_23h48.10.530,lexical_decision_task_DD_L2,2021.2.3,MacIntel,50,,,,,,,,,,0.846,1,,,,,,,,,,,,,,,0,-0.395683453,-0.26498801,1,0,0,0.846,button_left_main,-0.395683453,-0.26498801,1,0,0,,0,74,74,98,1,BAMPS,LB,old,z,./images/BAMPSLB.png,,,,,,,,,,,,,,,,,,,,
,,,,,,,,,,,,,,,,,198895,19,2022-01-30_23h48.10.530,lexical_decision_task_DD_L2,2021.2.3,MacIntel,50,,,,,,,,,,0.821,1,,,,,,,,,,,,,,,0,-0.393285372,-0.267386091,1,0,0,0.821,button_left_main,-0.393285372,-0.267386091,1,0,0,,0,75,75,105,1,MOKER,C,old,z,./images/MOKER.png,,,,,,,,,,,,,,,,,,,,
,,,,,,,,,,,,,,,,,198895,19,2022-01-30_23h48.10.530,lexical_decision_task_DD_L2,2021.2.3,MacIntel,50,,,,,,,,,,0.828,1,,,,,,,,,,,,,,,0,-0.396882494,-0.279376499,1,0,0,0.828,button_left_main,-0.396882494,-0.279376499,1,0,0,,0,76,76,85,1,CHULK,HB,old,z,./images/CHULKHB.png,,,,,,,,,,,,,,,,,,,,
,,,,,,,,,,,,,,,,,198895,19,2022-01-30_23h48.10.530,lexical_decision_task_DD_L2,2021.2.3,MacIntel,50,,,,,,,,,,0.937,1,,,,,,,,,,,,,,,0,0.392086331,-0.306954436,1,0,0,0.937,button_right_main,0.392086331,-0.306954436,1,0,0,,0,77,77,58,1,BABOON,LB,old,m,./images/BABOONLB.png,,,,,,,,,,,,,,,,,,,,
,,,,,,,,,,,,,,,,,198895,19,2022-01-30_23h48.10.530,lexical_decision_task_DD_L2,2021.2.3,MacIntel,50,,,,,,,,,,0.662,1,,,,,,,,,,,,,,,0,0.393285372,-0.28057554,1,0,0,0.662,button_right_main,0.393285372,-0.28057554,1,0,0,,0,78,78,83,1,JUNGLE,C,old,m,./images/JUNGLE.png,,,,,,,,,,,,,,,,,,,,
,,,,,,,,,,,,,,,,,198895,19,2022-01-30_23h48.10.530,lexical_decision_task_DD_L2,2021.2.3,MacIntel,50,,,,,,,,,,0.721,1,,,,,,,,,,,,,,,0,-0.398081535,-0.28057554,1,0,0,0.721,button_left_main,-0.398081535,-0.28057554,1,0,0,,0,79,79,101,1,GLEET,LB,old,z,./images/GLEETLB.png,,,,,,,,,,,,,,,,,,,,
,,,,,,,,,,,,,,,,,198895,19,2022-01-30_23h48.10.530,lexical_decision_task_DD_L2,2021.2.3,MacIntel,50,,,,,,,,,,0.831,1,,,,,,,,,,,,,,,0,0.380095923,-0.310551559,1,0,0,0.831,button_right_main,0.380095923,-0.310551559,1,0,0,,0,80,80,71,1,PIMPLE,C,old,m,./images/PIMPLE.png,,,,,,,,,,,,,,,,,,,,
,,,,,,,,,,,,,,,,,198895,19,2022-01-30_23h48.10.530,lexical_decision_task_DD_L2,2021.2.3,MacIntel,50,,,,,,,,,,1.021,1,,,,,,,,,,,,,,,0,0.387290168,-0.29736211,1,0,0,1.021,button_right_main,0.387290168,-0.29736211,1,0,0,,0,81,81,55,1,MUFFIN,LB,old,m,./images/MUFFINLB.png,,,,,,,,,,,,,,,,,,,,
,,,,,,,,,,,,,,,,,198895,19,2022-01-30_23h48.10.530,lexical_decision_task_DD_L2,2021.2.3,MacIntel,50,,,,,,,,,,0.737,1,,,,,,,,,,,,,,,0,-0.39088729,-0.287769784,1,0,0,0.737,button_left_main,-0.39088729,-0.287769784,1,0,0,,0,82,82,113,1,LINEW,LB,old,z,./images/LINEWLB.png,,,,,,,,,,,,,,,,,,,,
,,,,,,,,,,,,,,,,,198895,19,2022-01-30_23h48.10.530,lexical_decision_task_DD_L2,2021.2.3,MacIntel,50,,,,,,,,,,0.729,1,,,,,,,,,,,,,,,0,-0.393285372,-0.287769784,1,0,0,0.729,button_left_main,0.151079137,-0.438848921,1,0,0,,0,83,83,126,1,GUELS,C,old,z,./images/GUELS.png,break_done_button,,,,,,,,,,,,,,,,,,,
,,,,,,,,,,,,,,,,,198895,19,2022-01-30_23h48.10.530,lexical_decision_task_DD_L2,2021.2.3,MacIntel,50,,,,,,,,,,1.003,1,,,,,,,,,,,,,,,0,-0.396882494,-0.290167866,1,0,0,1.003,button_left_main,-0.396882494,-0.290167866,1,0,0,,0,84,84,94,1,BLANS,HB,old,z,./images/BLANSHB.png,,,,,,,,,,,,,,,,,,,,
,,,,,,,,,,,,,,,,,198895,19,2022-01-30_23h48.10.530,lexical_decision_task_DD_L2,2021.2.3,MacIntel,50,,,,,,,,,,0.779,1,,,,,,,,,,,,,,,0,0.376498801,-0.300959233,1,0,0,0.779,button_right_main,0.376498801,-0.300959233,1,0,0,,0,85,85,74,1,CEMENT,C,old,m,./images/CEMENT.png,,,,,,,,,,,,,,,,,,,,
,,,,,,,,,,,,,,,,,198895,19,2022-01-30_23h48.10.530,lexical_decision_task_DD_L2,2021.2.3,MacIntel,50,,,,,,,,,,0.561,1,,,,,,,,,,,,,,,0,0.377697842,-0.303357314,1,0,0,0.561,button_right_main,0.377697842,-0.303357314,1,0,0,,0,86,86,7,1,PAINT,LB,old,m,./images/PAINTLB.png,,,,,,,,,,,,,,,,,,,,
,,,,,,,,,,,,,,,,,198895,19,2022-01-30_23h48.10.530,lexical_decision_task_DD_L2,2021.2.3,MacIntel,50,,,,,,,,,,0.606,1,,,,,,,,,,,,,,,0,0.383693046,-0.299760192,1,0,0,0.606,button_right_main,0.383693046,-0.299760192,1,0,0,,0,87,87,29,1,CRUMB,C,old,m,./images/CRUMB.png,,,,,,,,,,,,,,,,,,,,
,,,,,,,,,,,,,,,,,198895,19,2022-01-30_23h48.10.530,lexical_decision_task_DD_L2,2021.2.3,MacIntel,50,,,,,,,,,,0.896,1,,,,,,,,,,,,,,,0,-0.389688249,-0.29616307,1,0,0,0.896,button_left_main,-0.389688249,-0.29616307,1,0,0,,0,88,88,148,1,JOMS,HB,old,z,./images/JOMSHB.png,,,,,,,,,,,,,,,,,,,,
,,,,,,,,,,,,,,,,,198895,19,2022-01-30_23h48.10.530,lexical_decision_task_DD_L2,2021.2.3,MacIntel,50,,,,,,,,,,0.636,1,,,,,,,,,,,,,,,0,0.381294964,-0.29736211,1,0,0,0.636,button_right_main,0.381294964,-0.29736211,1,0,0,,0,89,89,12,1,SHORE,HB,old,m,./images/SHOREHB.png,,,,,,,,,,,,,,,,,,,,
,,,,,,,,,,,,,,,,,198895,19,2022-01-30_23h48.10.530,lexical_decision_task_DD_L2,2021.2.3,MacIntel,50,,,,,,,,,,0.707,1,,,,,,,,,,,,,,,0,-0.394484412,-0.292565947,1,0,0,0.707,button_left_main,-0.394484412,-0.292565947,1,0,0,,0,90,90,153,1,CLUPS,C,old,z,./images/CLUPS.png,,,,,,,,,,,,,,,,,,,,
,,,,,,,,,,,,,,,,,198895,19,2022-01-30_23h48.10.530,lexical_decision_task_DD_L2,2021.2.3,MacIntel,50,,,,,,,,,,0.578,1,,,,,,,,,,,,,,,0,0.382494005,-0.293764988,1,0,0,0.578,button_right_main,0.382494005,-0.293764988,1,0,0,,0,91,91,62,1,PURSE,C,old,m,./images/PURSE.png,,,,,,,,,,,,,,,,,,,,
,,,,,,,,,,,,,,,,,198895,19,2022-01-30_23h48.10.530,lexical_decision_task_DD_L2,2021.2.3,MacIntel,50,,,,,,,,,,0.736,1,,,,,,,,,,,,,,,0,-0.388489209,-0.29736211,1,0,0,0.736,button_left_main,-0.388489209,-0.29736211,1,0,0,,0,92,92,93,1,SMONE,C,old,z,./images/SMONE.png,,,,,,,,,,,,,,,,,,,,
,,,,,,,,,,,,,,,,,198895,19,2022-01-30_23h48.10.530,lexical_decision_task_DD_L2,2021.2.3,MacIntel,50,,,,,,,,,,0.645,1,,,,,,,,,,,,,,,0,0.384892086,-0.293764988,1,0,0,0.645,button_right_main,0.384892086,-0.293764988,1,0,0,,0,93,93,18,1,JAGUAR,HB,old,m,./images/JAGUARHB.png,,,,,,,,,,,,,,,,,,,,
,,,,,,,,,,,,,,,,,198895,19,2022-01-30_23h48.10.530,lexical_decision_task_DD_L2,2021.2.3,MacIntel,50,,,,,,,,,,0.47,1,,,,,,,,,,,,,,,0,0.395683453,-0.291366906,1,0,0,0.47,button_right_main,0.395683453,-0.291366906,1,0,0,,0,94,94,25,1,WRIST,LB,old,m,./images/WRISTLB.png,,,,,,,,,,,,,,,,,,,,
,,,,,,,,,,,,,,,,,198895,19,2022-01-30_23h48.10.530,lexical_decision_task_DD_L2,2021.2.3,MacIntel,50,,,,,,,,,,0.57,1,,,,,,,,,,,,,,,0,0.377697842,-0.29736211,1,0,0,0.57,button_right_main,0.377697842,-0.29736211,1,0,0,,0,95,95,11,1,BONNET,C,old,m,./images/BONNET.png,,,,,,,,,,,,,,,,,,,,
,,,,,,,,,,,,,,,,,198895,19,2022-01-30_23h48.10.530,lexical_decision_task_DD_L2,2021.2.3,MacIntel,50,,,,,,,,,,0.646,1,,,,,,,,,,,,,,,0,0.388489209,-0.293764988,1,0,0,0.646,button_right_main,0.388489209,-0.293764988,1,0,0,,0,96,96,8,1,TULIP,C,old,m,./images/TULIP.png,,,,,,,,,,,,,,,,,,,,
,,,,,,,,,,,,,,,,,198895,19,2022-01-30_23h48.10.530,lexical_decision_task_DD_L2,2021.2.3,MacIntel,50,,,,,,,,,,0.837,0,,,,,,,,,,,,,,,0,0.386091127,-0.294964029,1,0,0,0.837,button_right_main,0.386091127,-0.294964029,1,0,0,,0,97,97,140,1,DOVET,LB,old,z,./images/DOVETLB.png,,,,,,,,,,,,,,,,,,,,
,,,,,,,,,,,,,,,,,198895,19,2022-01-30_23h48.10.530,lexical_decision_task_DD_L2,2021.2.3,MacIntel,50,,,,,,,,,,0.637,0,,,,,,,,,,,,,,,0,0.387290168,-0.29616307,1,0,0,0.637,button_right_main,0.387290168,-0.29616307,1,0,0,,0,98,98,137,1,JOOST,LB,old,z,./images/JOOSTLB.png,,,,,,,,,,,,,,,,,,,,
,,,,,,,,,,,,,,,,,198895,19,2022-01-30_23h48.10.530,lexical_decision_task_DD_L2,2021.2.3,MacIntel,50,,,,,,,,,,0.986,1,,,,,,,,,,,,,,,0,-0.399280576,-0.290167866,1,0,0,0.986,button_left_main,-0.399280576,-0.290167866,1,0,0,,0,99,99,95,1,HANTY,LB,old,z,./images/HANTYLB.png,,,,,,,,,,,,,,,,,,,,
,,,,,,,,,,,,,,,,,198895,19,2022-01-30_23h48.10.530,lexical_decision_task_DD_L2,2021.2.3,MacIntel,50,,,,,,,,,,1.429,1,,,,,,,,,,,,,,,0,-0.425659472,-0.26498801,1,0,0,1.429,button_left_main,-0.425659472,-0.26498801,1,0,0,,0,100,100,157,1,INLER,HB,old,z,./images/INLERHB.png,,,,,,,,,,,,,,,,,,,,
,,,,,,,,,,,,,,,,,198895,19,2022-01-30_23h48.10.530,lexical_decision_task_DD_L2,2021.2.3,MacIntel,50,,,,,,,,,,0.789,1,,,,,,,,,,,,,,,0,-0.407673861,-0.28057554,1,0,0,0.789,button_left_main,-0.407673861,-0.28057554,1,0,0,,0,101,101,117,1,STEEG,C,old,z,./images/STEEG.png,,,,,,,,,,,,,,,,,,,,
,,,,,,,,,,,,,,,,,198895,19,2022-01-30_23h48.10.530,lexical_decision_task_DD_L2,2021.2.3,MacIntel,50,,,,,,,,,,0.745,1,,,,,,,,,,,,,,,0,0.380095923,-0.300959233,1,0,0,0.745,button_right_main,0.380095923,-0.300959233,1,0,0,,0,102,102,39,1,SHELF,HB,old,m,./images/SHELFHB.png,,,,,,,,,,,,,,,,,,,,
,,,,,,,,,,,,,,,,,198895,19,2022-01-30_23h48.10.530,lexical_decision_task_DD_L2,2021.2.3,MacIntel,50,,,,,,,,,,2.388,1,,,,,,,,,,,,,,,0,-0.396882494,-0.282973621,1,0,0,2.388,button_left_main,-0.396882494,-0.282973621,1,0,0,,0,103,103,145,1,LAMEL,HB,old,z,./images/LAMELHB.png,,,,,,,,,,,,,,,,,,,,
,,,,,,,,,,,,,,,,,198895,19,2022-01-30_23h48.10.530,lexical_decision_task_DD_L2,2021.2.3,MacIntel,50,,,,,,,,,,0.638,1,,,,,,,,,,,,,,,0,0.393285372,-0.308153477,1,0,0,0.638,button_right_main,0.393285372,-0.308153477,1,0,0,,0,104,104,32,1,BARREL,C,old,m,./images/BARREL.png,,,,,,,,,,,,,,,,,,,,
,,,,,,,,,,,,,,,,,198895,19,2022-01-30_23h48.10.530,lexical_decision_task_DD_L2,2021.2.3,MacIntel,50,,,,,,,,,,1.436,1,,,,,,,,,,,,,,,0,0.395683453,-0.303357314,1,0,0,1.436,button_right_main,0.395683453,-0.303357314,1,0,0,,0,105,105,72,1,NOOSE,HB,old,m,./images/NOOSEHB.png,,,,,,,,,,,,,,,,,,,,
,,,,,,,,,,,,,,,,,198895,19,2022-01-30_23h48.10.530,lexical_decision_task_DD_L2,2021.2.3,MacIntel,50,,,,,,,,,,0.568,1,,,,,,,,,,,,,,,0,0.39088729,-0.305755396,1,0,0,0.568,button_right_main,0.39088729,-0.305755396,1,0,0,,0,106,106,13,1,MOTOR,LB,old,m,./images/MOTORLB.png,,,,,,,,,,,,,,,,,,,,
,,,,,,,,,,,,,,,,,198895,19,2022-01-30_23h48.10.530,lexical_decision_task_DD_L2,2021.2.3,MacIntel,50,,,,,,,,,,0.599,1,,,,,,,,,,,,,,,0,0.392086331,-0.300959233,1,0,0,0.599,button_right_main,0.392086331,-0.300959233,1,0,0,,0,107,107,53,1,CARPET,C,old,m,./images/CARPET.png,,,,,,,,,,,,,,,,,,,,
,,,,,,,,,,,,,,,,,198895,19,2022-01-30_23h48.10.530,lexical_decision_task_DD_L2,2021.2.3,MacIntel,50,,,,,,,,,,0.97,1,,,,,,,,,,,,,,,0,-0.401678657,-0.273381295,1,0,0,0.97,button_left_main,-0.401678657,-0.273381295,1,0,0,,0,108,108,134,1,TROSS,LB,old,z,./images/TROSSLB.png,,,,,,,,,,,,,,,,,,,,
,,,,,,,,,,,,,,,,,198895,19,2022-01-30_23h48.10.530,lexical_decision_task_DD_L2,2021.2.3,MacIntel,50,,,,,,,,,,1.105,1,,,,,,,,,,,,,,,0,0.398081535,-0.294964029,1,0,0,1.105,button_right_main,0.398081535,-0.294964029,1,0,0,,0,109,109,67,1,SAILOR,LB,old,m,./images/SAILORLB.png,,,,,,,,,,,,,,,,,,,,
,,,,,,,,,,,,,,,,,198895,19,2022-01-30_23h48.10.530,lexical_decision_task_DD_L2,2021.2.3,MacIntel,50,,,,,,,,,,0.71,1,,,,,,,,,,,,,,,0,-0.372901679,-0.299760192,1,0,0,0.71,button_left_main,-0.372901679,-0.299760192,1,0,0,,0,110,110,97,1,CHIDS,HB,old,z,./images/CHIDSHB.png,,,,,,,,,,,,,,,,,,,,
,,,,,,,,,,,,,,,,,198895,19,2022-01-30_23h48.10.530,lexical_decision_task_DD_L2,2021.2.3,MacIntel,50,,,,,,,,,,0.636,1,,,,,,,,,,,,,,,0,0.399280576,-0.29616307,1,0,0,0.636,button_right_main,0.399280576,-0.29616307,1,0,0,,0,111,111,59,1,BURIAL,C,old,m,./images/BURIAL.png,,,,,,,,,,,,,,,,,,,,
,,,,,,,,,,,,,,,,,198895,19,2022-01-30_23h48.10.530,lexical_decision_task_DD_L2,2021.2.3,MacIntel,50,,,,,,,,,,0.596,1,,,,,,,,,,,,,,,0,0.399280576,-0.304556355,1,0,0,0.596,button_right_main,0.399280576,-0.304556355,1,0,0,,0,112,112,42,1,FOLDER,HB,old,m,./images/FOLDERHB.png,,,,,,,,,,,,,,,,,,,,
,,,,,,,,,,,,,,,,,198895,19,2022-01-30_23h48.10.530,lexical_decision_task_DD_L2,2021.2.3,MacIntel,50,,,,,,,,,,0.656,1,,,,,,,,,,,,,,,0,0.395683453,-0.309352518,1,0,0,0.656,button_right_main,0.395683453,-0.309352518,1,0,0,,0,113,113,48,1,SPORT,HB,old,m,./images/SPORTHB.png,,,,,,,,,,,,,,,,,,,,
,,,,,,,,,,,,,,,,,198895,19,2022-01-30_23h48.10.530,lexical_decision_task_DD_L2,2021.2.3,MacIntel,50,,,,,,,,,,0.601,1,,,,,,,,,,,,,,,0,0.412470024,-0.282973621,1,0,0,0.601,button_right_main,0.412470024,-0.282973621,1,0,0,,0,114,114,64,1,JELLY,LB,old,m,./images/JELLYLB.png,,,,,,,,,,,,,,,,,,,,
,,,,,,,,,,,,,,,,,198895,19,2022-01-30_23h48.10.530,lexical_decision_task_DD_L2,2021.2.3,MacIntel,50,,,,,,,,,,0.593,0,,,,,,,,,,,,,,,0,0.392086331,-0.310551559,1,0,0,0.593,button_right_main,0.392086331,-0.310551559,1,0,0,,0,115,115,114,1,RIKES,C,old,z,./images/RIKES.png,,,,,,,,,,,,,,,,,,,,
,,,,,,,,,,,,,,,,,198895,19,2022-01-30_23h48.10.530,lexical_decision_task_DD_L2,2021.2.3,MacIntel,50,,,,,,,,,,0.713,1,,,,,,,,,,,,,,,0,0.392086331,-0.302158273,1,0,0,0.713,button_right_main,0.392086331,-0.302158273,1,0,0,,0,116,116,81,1,POODLE,HB,old,m,./images/POODLEHB.png,,,,,,,,,,,,,,,,,,,,
,,,,,,,,,,,,,,,,,198895,19,2022-01-30_23h48.10.530,lexical_decision_task_DD_L2,2021.2.3,MacIntel,50,,,,,,,,,,0.577,1,,,,,,,,,,,,,,,0,0.386091127,-0.317745803,1,0,0,0.577,button_right_main,0.386091127,-0.317745803,1,0,0,,0,117,117,16,1,PENCE,LB,old,m,./images/PENCELB.png,,,,,,,,,,,,,,,,,,,,
,,,,,,,,,,,,,,,,,198895,19,2022-01-30_23h48.10.530,lexical_decision_task_DD_L2,2021.2.3,MacIntel,50,,,,,,,,,,0.572,1,,,,,,,,,,,,,,,0,0.386091127,-0.304556355,1,0,0,0.572,button_right_main,0.386091127,-0.304556355,1,0,0,,0,118,118,23,1,WALRUS,C,old,m,./images/WALRUS.png,,,,,,,,,,,,,,,,,,,,
,,,,,,,,,,,,,,,,,198895,19,2022-01-30_23h48.10.530,lexical_decision_task_DD_L2,2021.2.3,MacIntel,50,,,,,,,,,,0.539,1,,,,,,,,,,,,,,,0,0.393285372,-0.308153477,1,0,0,0.539,button_right_main,0.393285372,-0.308153477,1,0,0,,0,119,119,37,1,BIRTH,LB,old,m,./images/BIRTHLB.png,,,,,,,,,,,,,,,,,,,,
,,,,,,,,,,,,,,,,,198895,19,2022-01-30_23h48.10.530,lexical_decision_task_DD_L2,2021.2.3,MacIntel,50,,,,,,,,,,0.929,1,,,,,,,,,,,,,,,0,-0.372901679,-0.300959233,1,0,0,0.929,button_left_main,-0.372901679,-0.300959233,1,0,0,,0,120,120,90,1,NEAST,C,old,z,./images/NEAST.png,,,,,,,,,,,,,,,,,,,,
,,,,,,,,,,,,,,,,,198895,19,2022-01-30_23h48.10.530,lexical_decision_task_DD_L2,2021.2.3,MacIntel,50,,,,,,,,,,0.547,1,,,,,,,,,,,,,,,0,0.39088729,-0.302158273,1,0,0,0.547,button_right_main,0.39088729,-0.302158273,1,0,0,,0,121,121,79,1,CRUST,LB,old,m,./images/CRUSTLB.png,,,,,,,,,,,,,,,,,,,,
,,,,,,,,,,,,,,,,,198895,19,2022-01-30_23h48.10.530,lexical_decision_task_DD_L2,2021.2.3,MacIntel,50,,,,,,,,,,0.838,1,,,,,,,,,,,,,,,0,0.386091127,-0.31294964,1,0,0,0.838,button_right_main,0.386091127,-0.31294964,1,0,0,,0,122,122,54,1,TRIPOD,HB,old,m,./images/TRIPODHB.png,,,,,,,,,,,,,,,,,,,,
,,,,,,,,,,,,,,,,,198895,19,2022-01-30_23h48.10.530,lexical_decision_task_DD_L2,2021.2.3,MacIntel,50,,,,,,,,,,0.718,0,,,,,,,,,,,,,,,0,0.388489209,-0.299760192,1,0,0,0.718,button_right_main,0.388489209,-0.299760192,1,0,0,,0,123,123,99,1,BACKY,C,old,z,./images/BACKY.png,,,,,,,,,,,,,,,,,,,,
,,,,,,,,,,,,,,,,,198895,19,2022-01-30_23h48.10.530,lexical_decision_task_DD_L2,2021.2.3,MacIntel,50,,,,,,,,,,1.641,1,,,,,,,,,,,,,,,0,-0.380095923,-0.29616307,1,0,0,1.641,button_left_main,-0.380095923,-0.29616307,1,0,0,,0,124,124,165,1,TROWN,C,old,z,./images/TROWN.png,,,,,,,,,,,,,,,,,,,,
,,,,,,,,,,,,,,,,,198895,19,2022-01-30_23h48.10.530,lexical_decision_task_DD_L2,2021.2.3,MacIntel,50,,,,,,,,,,0.581,1,,,,,,,,,,,,,,,0,0.402877698,-0.303357314,1,0,0,0.581,button_right_main,0.139088729,-0.408872902,1,0,0,,0,125,125,44,1,LIZARD,C,old,m,./images/LIZARD.png,break_done_button,,,,,,,,,,,,,,,,,,,
,,,,,,,,,,,,,,,,,198895,19,2022-01-30_23h48.10.530,lexical_decision_task_DD_L2,2021.2.3,MacIntel,50,,,,,,,,,,1.506,1,,,,,,,,,,,,,,,0,0.380095923,-0.320143885,1,0,0,1.506,button_right_main,0.380095923,-0.320143885,1,0,0,,0,126,126,0,1,TOMATO,HB,old,m,./images/TOMATOHB.png,,,,,,,,,,,,,,,,,,,,
,,,,,,,,,,,,,,,,,198895,19,2022-01-30_23h48.10.530,lexical_decision_task_DD_L2,2021.2.3,MacIntel,50,,,,,,,,,,1.037,0,,,,,,,,,,,,,,,0,0.365707434,-0.310551559,1,0,0,1.037,button_right_main,0.365707434,-0.310551559,1,0,0,,0,127,127,162,1,LEICH,C,old,z,./images/LEICH.png,,,,,,,,,,,,,,,,,,,,
,,,,,,,,,,,,,,,,,198895,19,2022-01-30_23h48.10.530,lexical_decision_task_DD_L2,2021.2.3,MacIntel,50,,,,,,,,,,0.726,1,,,,,,,,,,,,,,,0,0.371702638,-0.293764988,1,0,0,0.726,button_right_main,0.371702638,-0.293764988,1,0,0,,0,128,128,69,1,COOKER,HB,old,m,./images/COOKERHB.png,,,,,,,,,,,,,,,,,,,,
,,,,,,,,,,,,,,,,,198895,19,2022-01-30_23h48.10.530,lexical_decision_task_DD_L2,2021.2.3,MacIntel,50,,,,,,,,,,2.379,0,,,,,,,,,,,,,,,0,0.365707434,-0.314148681,1,0,0,2.379,button_right_main,0.365707434,-0.314148681,1,0,0,,0,129,129,110,1,CRUNK,LB,old,z,./images/CRUNKLB.png,,,,,,,,,,,,,,,,,,,,
,,,,,,,,,,,,,,,,,198895,19,2022-01-30_23h48.10.530,lexical_decision_task_DD_L2,2021.2.3,MacIntel,50,,,,,,,,,,0.927,0,,,,,,,,,,,,,,,0,0.354916067,-0.351318945,1,0,0,0.927,button_right_main,0.354916067,-0.351318945,1,0,0,,0,130,130,109,1,BURGE,HB,old,z,./images/BURGEHB.png,,,,,,,,,,,,,,,,,,,,
,,,,,,,,,,,,,,,,,198895,19,2022-01-30_23h48.10.530,lexical_decision_task_DD_L2,2021.2.3,MacIntel,50,,,,,,,,,,0.888,1,,,,,,,,,,,,,,,0,0.371702638,-0.300959233,1,0,0,0.888,button_right_main,0.371702638,-0.300959233,1,0,0,,0,131,131,21,1,KIDNEY,HB,old,m,./images/KIDNEYHB.png,,,,,,,,,,,,,,,,,,,,
,,,,,,,,,,,,,,,,,198895,19,2022-01-30_23h48.10.530,lexical_decision_task_DD_L2,2021.2.3,MacIntel,50,,,,,,,,,,2.131,1,,,,,,,,,,,,,,,0,0.366906475,-0.310551559,1,0,0,2.131,button_right_main,0.366906475,-0.310551559,1,0,0,,0,132,132,3,1,FINGER,HB,old,m,./images/FINGERHB.png,,,,,,,,,,,,,,,,,,,,
,,,,,,,,,,,,,,,,,198895,19,2022-01-30_23h48.10.530,lexical_decision_task_DD_L2,2021.2.3,MacIntel,50,,,,,,,,,,0.863,1,,,,,,,,,,,,,,,0,-0.335731415,-0.284172662,1,0,0,0.863,button_left_main,-0.335731415,-0.284172662,1,0,0,,0,133,133,86,1,AIFED,LB,old,z,./images/AIFEDLB.png,,,,,,,,,,,,,,,,,,,,
,,,,,,,,,,,,,,,,,198895,19,2022-01-30_23h48.10.530,lexical_decision_task_DD_L2,2021.2.3,MacIntel,50,,,,,,,,,,0.811,1,,,,,,,,,,,,,,,0,-0.348920863,-0.267386091,1,0,0,0.811,button_left_main,-0.348920863,-0.267386091,1,0,0,,0,134,134,121,1,CEERS,HB,old,z,./images/CEERSHB.png,,,,,,,,,,,,,,,,,,,,
,,,,,,,,,,,,,,,,,198895,19,2022-01-30_23h48.10.530,lexical_decision_task_DD_L2,2021.2.3,MacIntel,50,,,,,,,,,,0.905,1,,,,,,,,,,,,,,,0,0.372901679,-0.320143885,1,0,0,0.905,button_right_main,0.372901679,-0.320143885,1,0,0,,0,135,135,9,1,RHINO,HB,old,m,./images/RHINOHB.png,,,,,,,,,,,,,,,,,,,,
,,,,,,,,,,,,,,,,,198895,19,2022-01-30_23h48.10.530,lexical_decision_task_DD_L2,2021.2.3,MacIntel,50,,,,,,,,,,0.853,1,,,,,,,,,,,,,,,0,-0.334532374,-0.304556355,1,0,0,0.853,button_left_main,-0.334532374,-0.304556355,1,0,0,,0,136,136,160,1,VEETS,HB,old,z,./images/VEETSHB.png,,,,,,,,,,,,,,,,,,,,
,,,,,,,,,,,,,,,,,198895,19,2022-01-30_23h48.10.530,lexical_decision_task_DD_L2,2021.2.3,MacIntel,50,,,,,,,,,,2.32,1,,,,,,,,,,,,,,,0,-0.340527578,-0.29736211,1,0,0,2.32,button_left_main,-0.340527578,-0.29736211,1,0,0,,0,137,137,149,1,VEASE,LB,old,z,./images/VEASELB.png,,,,,,,,,,,,,,,,,,,,
,,,,,,,,,,,,,,,,,198895,19,2022-01-30_23h48.10.530,lexical_decision_task_DD_L2,2021.2.3,MacIntel,50,,,,,,,,,,0.637,1,,,,,,,,,,,,,,,0,0.352517986,-0.309352518,1,0,0,0.637,button_right_main,0.352517986,-0.309352518,1,0,0,,0,138,138,17,1,SKIING,C,old,m,./images/SKIING.png,,,,,,,,,,,,,,,,,,,,
,,,,,,,,,,,,,,,,,198895,19,2022-01-30_23h48.10.530,lexical_decision_task_DD_L2,2021.2.3,MacIntel,50,,,,,,,,,,0.73,1,,,,,,,,,,,,,,,0,-0.347721823,-0.304556355,1,0,0,0.73,button_left_main,-0.347721823,-0.304556355,1,0,0,,0,139,139,119,1,PAFER,LB,old,z,./images/PAFERLB.png,,,,,,,,,,,,,,,,,,,,
,,,,,,,,,,,,,,,,,198895,19,2022-01-30_23h48.10.530,lexical_decision_task_DD_L2,2021.2.3,MacIntel,50,,,,,,,,,,0.844,1,,,,,,,,,,,,,,,0,-0.321342926,-0.336930456,1,0,0,0.844,button_left_main,-0.321342926,-0.336930456,1,0,0,,0,140,140,116,1,BALGY,LB,old,z,./images/BALGYLB.png,,,,,,,,,,,,,,,,,,,,
,,,,,,,,,,,,,,,,,198895,19,2022-01-30_23h48.10.530,lexical_decision_task_DD_L2,2021.2.3,MacIntel,50,,,,,,,,,,1.105,1,,,,,,,,,,,,,,,0,-0.333333333,-0.324940048,1,0,0,1.105,button_left_main,-0.333333333,-0.324940048,1,0,0,,0,141,141,118,1,BAVEL,HB,old,z,./images/BAVELHB.png,,,,,,,,,,,,,,,,,,,,
,,,,,,,,,,,,,,,,,198895,19,2022-01-30_23h48.10.530,lexical_decision_task_DD_L2,2021.2.3,MacIntel,50,,,,,,,,,,1.003,1,,,,,,,,,,,,,,,0,0.35971223,-0.32853717,1,0,0,1.003,button_right_main,0.35971223,-0.32853717,1,0,0,,0,142,142,2,1,BEARD,C,old,m,./images/BEARD.png,,,,,,,,,,,,,,,,,,,,
,,,,,,,,,,,,,,,,,198895,19,2022-01-30_23h48.10.530,lexical_decision_task_DD_L2,2021.2.3,MacIntel,50,,,,,,,,,,1.124,1,,,,,,,,,,,,,,,0,-0.362110312,-0.275779376,1,0,0,1.124,button_left_main,-0.362110312,-0.275779376,1,0,0,,0,143,143,143,1,MONGS,LB,old,z,./images/MONGSLB.png,,,,,,,,,,,,,,,,,,,,
,,,,,,,,,,,,,,,,,198895,19,2022-01-30_23h48.10.530,lexical_decision_task_DD_L2,2021.2.3,MacIntel,50,,,,,,,,,,0.595,1,,,,,,,,,,,,,,,0,0.366906475,-0.298561151,1,0,0,0.595,button_right_main,0.366906475,-0.298561151,1,0,0,,0,144,144,40,1,SWING,LB,old,m,./images/SWINGLB.png,,,,,,,,,,,,,,,,,,,,
,,,,,,,,,,,,,,,,,198895,19,2022-01-30_23h48.10.530,lexical_decision_task_DD_L2,2021.2.3,MacIntel,50,,,,,,,,,,2.493,1,,,,,,,,,,,,,,,0,0.370503597,-0.316546763,1,0,0,2.493,button_right_main,0.370503597,-0.316546763,1,0,0,,0,145,145,43,1,MOSQUE,LB,old,m,./images/MOSQUELB.png,,,,,,,,,,,,,,,,,,,,
,,,,,,,,,,,,,,,,,198895,19,2022-01-30_23h48.10.530,lexical_decision_task_DD_L2,2021.2.3,MacIntel,50,,,,,,,,,,1.095,1,,,,,,,,,,,,,,,0,0.352517986,-0.327338129,1,0,0,1.095,button_right_main,0.352517986,-0.327338129,1,0,0,,0,146,146,34,1,CANYON,LB,old,m,./images/CANYONLB.png,,,,,,,,,,,,,,,,,,,,
,,,,,,,,,,,,,,,,,198895,19,2022-01-30_23h48.10.530,lexical_decision_task_DD_L2,2021.2.3,MacIntel,50,,,,,,,,,,2.672,1,,,,,,,,,,,,,,,0,0.358513189,-0.314148681,1,0,0,2.672,button_right_main,0.358513189,-0.314148681,1,0,0,,0,147,147,66,1,SWEAT,HB,old,m,./images/SWEATHB.png,,,,,,,,,,,,,,,,,,,,
,,,,,,,,,,,,,,,,,198895,19,2022-01-30_23h48.10.530,lexical_decision_task_DD_L2,2021.2.3,MacIntel,50,,,,,,,,,,1.136,1,,,,,,,,,,,,,,,0,-0.327338129,-0.354916067,1,0,0,1.136,button_left_main,-0.327338129,-0.354916067,1,0,0,,0,148,148,123,1,SEDGE,C,old,z,./images/SEDGE.png,,,,,,,,,,,,,,,,,,,,
,,,,,,,,,,,,,,,,,198895,19,2022-01-30_23h48.10.530,lexical_decision_task_DD_L2,2021.2.3,MacIntel,50,,,,,,,,,,0.843,1,,,,,,,,,,,,,,,0,-0.334532374,-0.310551559,1,0,0,0.843,button_left_main,-0.334532374,-0.310551559,1,0,0,,0,149,149,112,1,MYING,HB,old,z,./images/MYINGHB.png,,,,,,,,,,,,,,,,,,,,
,,,,,,,,,,,,,,,,,198895,19,2022-01-30_23h48.10.530,lexical_decision_task_DD_L2,2021.2.3,MacIntel,50,,,,,,,,,,1.263,1,,,,,,,,,,,,,,,0,-0.351318945,-0.28177458,1,0,0,1.263,button_left_main,-0.351318945,-0.28177458,1,0,0,,0,150,150,133,1,POWDY,HB,old,z,./images/POWDYHB.png,,,,,,,,,,,,,,,,,,,,
,,,,,,,,,,,,,,,,,198895,19,2022-01-30_23h48.10.530,lexical_decision_task_DD_L2,2021.2.3,MacIntel,50,,,,,,,,,,1.137,1,,,,,,,,,,,,,,,0,-0.365707434,-0.323741007,1,0,0,1.137,button_left_main,-0.365707434,-0.323741007,1,0,0,,0,151,151,100,1,DRIBS,HB,old,z,./images/DRIBSHB.png,,,,,,,,,,,,,,,,,,,,
,,,,,,,,,,,,,,,,,198895,19,2022-01-30_23h48.10.530,lexical_decision_task_DD_L2,2021.2.3,MacIntel,50,,,,,,,,,,2.227,1,,,,,,,,,,,,,,,0,-0.368105516,-0.270983213,1,0,0,2.227,button_left_main,-0.368105516,-0.270983213,1,0,0,,0,152,152,89,1,DRIEK,LB,old,z,./images/DRIEKLB.png,,,,,,,,,,,,,,,,,,,,
,,,,,,,,,,,,,,,,,198895,19,2022-01-30_23h48.10.530,lexical_decision_task_DD_L2,2021.2.3,MacIntel,50,,,,,,,,,,0.759,1,,,,,,,,,,,,,,,0,-0.3441247,-0.32853717,1,0,0,0.759,button_left_main,-0.3441247,-0.32853717,1,0,0,,0,153,153,131,1,NACES,LB,old,z,./images/NACESLB.png,,,,,,,,,,,,,,,,,,,,
,,,,,,,,,,,,,,,,,198895,19,2022-01-30_23h48.10.530,lexical_decision_task_DD_L2,2021.2.3,MacIntel,50,,,,,,,,,,0.839,1,,,,,,,,,,,,,,,0,-0.371702638,-0.293764988,1,0,0,0.839,button_left_main,-0.371702638,-0.293764988,1,0,0,,0,154,154,108,1,GRUET,C,old,z,./images/GRUET.png,,,,,,,,,,,,,,,,,,,,
,,,,,,,,,,,,,,,,,198895,19,2022-01-30_23h48.10.530,lexical_decision_task_DD_L2,2021.2.3,MacIntel,50,,,,,,,,,,0.938,1,,,,,,,,,,,,,,,0,-0.338129496,-0.356115108,1,0,0,0.938,button_left_main,-0.338129496,-0.356115108,1,0,0,,0,155,155,92,1,PAIMS,LB,old,z,./images/PAIMSLB.png,,,,,,,,,,,,,,,,,,,,
,,,,,,,,,,,,,,,,,198895,19,2022-01-30_23h48.10.530,lexical_decision_task_DD_L2,2021.2.3,MacIntel,50,,,,,,,,,,1.362,1,,,,,,,,,,,,,,,0,0.340527578,-0.291366906,1,0,0,1.362,button_right_main,0.340527578,-0.291366906,1,0,0,,0,156,156,31,1,QUILL,LB,old,m,./images/QUILLLB.png,,,,,,,,,,,,,,,,,,,,
,,,,,,,,,,,,,,,,,198895,19,2022-01-30_23h48.10.530,lexical_decision_task_DD_L2,2021.2.3,MacIntel,50,,,,,,,,,,0.822,1,,,,,,,,,,,,,,,0,-0.348920863,-0.288968825,1,0,0,0.822,button_left_main,-0.348920863,-0.288968825,1,0,0,,0,157,157,135,1,JOODY,C,old,z,./images/JOODY.png,,,,,,,,,,,,,,,,,,,,
,,,,,,,,,,,,,,,,,198895,19,2022-01-30_23h48.10.530,lexical_decision_task_DD_L2,2021.2.3,MacIntel,50,,,,,,,,,,0.803,0,,,,,,,,,,,,,,,0,0.342925659,-0.308153477,1,0,0,0.803,button_right_main,0.342925659,-0.308153477,1,0,0,,0,158,158,104,1,GITTY,LB,old,z,./images/GITTYLB.png,,,,,,,,,,,,,,,,,,,,
,,,,,,,,,,,,,,,,,198895,19,2022-01-30_23h48.10.530,lexical_decision_task_DD_L2,2021.2.3,MacIntel,50,,,,,,,,,,0.738,1,,,,,,,,,,,,,,,0,-0.32853717,-0.327338129,1,0,0,0.738,button_left_main,-0.32853717,-0.327338129,1,0,0,,0,159,159,115,1,MAWNS,HB,old,z,./images/MAWNSHB.png,,,,,,,,,,,,,,,,,,,,
,,,,,,,,,,,,,,,,,198895,19,2022-01-30_23h48.10.530,lexical_decision_task_DD_L2,2021.2.3,MacIntel,50,,,,,,,,,,0.965,1,,,,,,,,,,,,,,,0,-0.330935252,-0.324940048,1,0,0,0.965,button_left_main,-0.330935252,-0.324940048,1,0,0,,0,160,160,138,1,PLICE,C,old,z,./images/PLICE.png,,,,,,,,,,,,,,,,,,,,
,,,,,,,,,,,,,,,,,198895,19,2022-01-30_23h48.10.530,lexical_decision_task_DD_L2,2021.2.3,MacIntel,50,,,,,,,,,,1.169,1,,,,,,,,,,,,,,,0,-0.330935252,-0.318944844,1,0,0,1.169,button_left_main,-0.330935252,-0.318944844,1,0,0,,0,161,161,144,1,NAIRY,C,old,z,./images/NAIRY.png,,,,,,,,,,,,,,,,,,,,
,,,,,,,,,,,,,,,,,198895,19,2022-01-30_23h48.10.530,lexical_decision_task_DD_L2,2021.2.3,MacIntel,50,,,,,,,,,,0.994,0,,,,,,,,,,,,,,,0,0.338129496,-0.3117506,1,0,0,0.994,button_right_main,0.338129496,-0.3117506,1,0,0,,0,162,162,159,1,CUDDY,C,old,z,./images/CUDDY.png,,,,,,,,,,,,,,,,,,,,
,,,,,,,,,,,,,,,,,198895,19,2022-01-30_23h48.10.530,lexical_decision_task_DD_L2,2021.2.3,MacIntel,50,,,,,,,,,,0.735,1,,,,,,,,,,,,,,,0,0.330935252,-0.300959233,1,0,0,0.735,button_right_main,0.330935252,-0.300959233,1,0,0,,0,163,163,82,1,SUNSET,LB,old,m,./images/SUNSETLB.png,,,,,,,,,,,,,,,,,,,,
,,,,,,,,,,,,,,,,,198895,19,2022-01-30_23h48.10.530,lexical_decision_task_DD_L2,2021.2.3,MacIntel,50,,,,,,,,,,0.53,1,,,,,,,,,,,,,,,0,0.339328537,-0.306954436,1,0,0,0.53,button_right_main,0.339328537,-0.306954436,1,0,0,,0,164,164,35,1,PEACH,C,old,m,./images/PEACH.png,,,,,,,,,,,,,,,,,,,,
,,,,,,,,,,,,,,,,,198895,19,2022-01-30_23h48.10.530,lexical_decision_task_DD_L2,2021.2.3,MacIntel,50,,,,,,,,,,0.671,1,,,,,,,,,,,,,,,0,0.357314149,-0.305755396,1,0,0,0.671,button_right_main,0.357314149,-0.305755396,1,0,0,,0,165,165,80,1,WEASEL,C,old,m,./images/WEASEL.png,,,,,,,,,,,,,,,,,,,,
,,,,,,,,,,,,,,,,,198895,19,2022-01-30_23h48.10.530,lexical_decision_task_DD_L2,2021.2.3,MacIntel,50,,,,,,,,,,2.471,1,,,,,,,,,,,,,,,0,0.340527578,-0.330935252,1,0,0,2.471,button_right_main,0.340527578,-0.330935252,1,0,0,,0,166,166,52,1,BANNER,LB,old,m,./images/BANNERLB.png,,,,,,,,,,,,,,,,,,,,
,,,,,,,,,,,,,,,,,198895,19,2022-01-30_23h48.10.530,lexical_decision_task_DD_L2,2021.2.3,MacIntel,50,,,,,,,,,,2.263,0,,,,,,,,,,,,,,,0,0.354916067,-0.294964029,1,0,0,2.263,button_right_main,0.354916067,-0.294964029,1,0,0,,0,167,167,120,1,RINED,C,old,z,./images/RINED.png,,,,,,,,,,,,,,,,,,,,
,0.136690647,-0.420863309,1,0,0,instr_done_button,,,,,,1,test,"In the next phase you will be presented with the words from the the first phase. Your job is to decide whether you remember seeing the word or not. If you remember seeing the word press ""old"" or type ""m"". If you do not remember seeing the word press ""new"" or type ""z"". Please press the space bar or click on continue to begin. ",,,198895,19,2022-01-30_23h48.10.530,lexical_decision_task_DD_L2,2021.2.3,MacIntel,50,,,,,,,,,,,,,,,,,,,,,,,,,,,,,,,,,,,,,,,,,,,,,,,,,,,0,0,0,0,1,,,,,,,,,,,,,,
,0.113908873,-0.407673861,1,0,0,instr_done_button,,,,,,1,test,"In the next phase you will be presented with the words from the the first phase. Your job is to decide whether you remember seeing the word or not. If you remember seeing the word press ""old"" or type ""m"". If you do not remember seeing the word press ""new"" or type ""z"". Please press the space bar or click on continue to begin. ",,,198895,19,2022-01-30_23h48.10.530,lexical_decision_task_DD_L2,2021.2.3,MacIntel,50,,,,,,,,,,,,,,,,,,,,,,,,,,,,,,,,,,,,,,,,,,,,,,,,,,,1,0,1,0,1,,,,,,,,,,,,,,
,0.118705036,-0.399280576,1,0,0,instr_done_button,,,,,,1,test,"In the next phase you will be presented with the words from the the first phase. Your job is to decide whether you remember seeing the word or not. If you remember seeing the word press ""old"" or type ""m"". If you do not remember seeing the word press ""new"" or type ""z"". Please press the space bar or click on continue to begin. ",,,198895,19,2022-01-30_23h48.10.530,lexical_decision_task_DD_L2,2021.2.3,MacIntel,50,,,,,,,,,,,,,,,,,,,,,,,,,,,,,,,,,,,,,,,,,,,,,,,,,,,2,0,2,0,1,,,,,,,,,,,,,,
,0.137889688,-0.377697842,1,0,0,instr_done_button,,,,,,1,test,"In the next phase you will be presented with the words from the the first phase. Your job is to decide whether you remember seeing the word or not. If you remember seeing the word press ""old"" or type ""m"". If you do not remember seeing the word press ""new"" or type ""z"". Please press the space bar or click on continue to begin. ",,,198895,19,2022-01-30_23h48.10.530,lexical_decision_task_DD_L2,2021.2.3,MacIntel,50,,,,,,,,,,,,,,,,,,,,,,,,,,,,,,,,,,,,,,,,,,,,,,,,,,,3,0,3,0,1,,,,,,,,,,,,,,
,0.058752998,-0.416067146,1,0,0,instr_done_button,,,,,,1,test,"In the next phase you will be presented with the words from the the first phase. Your job is to decide whether you remember seeing the word or not. If you remember seeing the word press ""old"" or type ""m"". If you do not remember seeing the word press ""new"" or type ""z"". Please press the space bar or click on continue to begin. ",,,198895,19,2022-01-30_23h48.10.530,lexical_decision_task_DD_L2,2021.2.3,MacIntel,50,,,,,,,,,,,,,,,,,,,,,,,,,,,,,,,,,,,,,,,,,,,,,,,,,,,4,0,4,0,1,,,,,,,,,,,,,,
,,,,,,,,,,,,,,,,,198895,19,2022-01-30_23h48.10.530,lexical_decision_task_DD_L2,2021.2.3,MacIntel,50,,,,,,,,,,0.647,1,,,,,,,,,,,,,,,,,,,,,,,0.424460432,-0.386091127,1,0,0,,,,,,,GREASE,HB,m,y,./images/GREASEHB.png,,,,,,,,0,0.424460432,-0.386091127,1,0,0,0.647,button_right_test,0,0,0,15,1
,,,,,,,,,,,,,,,,,198895,19,2022-01-30_23h48.10.530,lexical_decision_task_DD_L2,2021.2.3,MacIntel,50,,,,,,,,,,0.636,0,,,,,,,,,,,,,,,,,,,,,,,0.426858513,-0.341726619,1,0,0,,,,,,,TOWEL,LB,z,y,./images/TOWELLB.png,,,,,,,,0,0.426858513,-0.341726619,1,0,0,0.636,button_right_test,0,1,1,85,1
,,,,,,,,,,,,,,,,,198895,19,2022-01-30_23h48.10.530,lexical_decision_task_DD_L2,2021.2.3,MacIntel,50,,,,,,,,,,1.089,0,,,,,,,,,,,,,,,,,,,,,,,0.398081535,-0.332134293,1,0,0,,,,,,,VALLEY,C,z,y,./images/VALLEY.png,,,,,,,,0,0.398081535,-0.332134293,1,0,0,1.089,button_right_test,0,2,2,152,1
,,,,,,,,,,,,,,,,,198895,19,2022-01-30_23h48.10.530,lexical_decision_task_DD_L2,2021.2.3,MacIntel,50,,,,,,,,,,0.734,0,,,,,,,,,,,,,,,,,,,,,,,0.401678657,-0.329736211,1,0,0,,,,,,,CHAIN,HB,z,y,./images/CHAINHB.png,,,,,,,,0,0.401678657,-0.329736211,1,0,0,0.734,button_right_test,0,3,3,126,1
,,,,,,,,,,,,,,,,,198895,19,2022-01-30_23h48.10.530,lexical_decision_task_DD_L2,2021.2.3,MacIntel,50,,,,,,,,,,0.677,0,,,,,,,,,,,,,,,,,,,,,,,0.392086331,-0.342925659,1,0,0,,,,,,,CLOWN,LB,z,y,./images/CLOWNLB.png,,,,,,,,0,0.392086331,-0.342925659,1,0,0,0.677,button_right_test,0,4,4,106,1
,,,,,,,,,,,,,,,,,198895,19,2022-01-30_23h48.10.530,lexical_decision_task_DD_L2,2021.2.3,MacIntel,50,,,,,,,,,,0.685,0,,,,,,,,,,,,,,,,,,,,,,,0.378896882,-0.336930456,1,0,0,,,,,,,CASINO,LB,z,y,./images/CASINOLB.png,,,,,,,,0,0.378896882,-0.336930456,1,0,0,0.685,button_right_test,0,5,5,112,1
,,,,,,,,,,,,,,,,,198895,19,2022-01-30_23h48.10.530,lexical_decision_task_DD_L2,2021.2.3,MacIntel,50,,,,,,,,,,0.703,1,,,,,,,,,,,,,,,,,,,,,,,0.363309353,-0.354916067,1,0,0,,,,,,,FARMER,C,m,y,./images/FARMER.png,,,,,,,,0,0.363309353,-0.354916067,1,0,0,0.703,button_right_test,0,6,6,65,1
,,,,,,,,,,,,,,,,,198895,19,2022-01-30_23h48.10.530,lexical_decision_task_DD_L2,2021.2.3,MacIntel,50,,,,,,,,,,0.601,1,,,,,,,,,,,,,,,,,,,,,,,0.392086331,-0.353717026,1,0,0,,,,,,,LIZARD,C,m,y,./images/LIZARD.png,,,,,,,,0,0.392086331,-0.353717026,1,0,0,0.601,button_right_test,0,7,7,44,1
,,,,,,,,,,,,,,,,,198895,19,2022-01-30_23h48.10.530,lexical_decision_task_DD_L2,2021.2.3,MacIntel,50,,,,,,,,,,0.662,0,,,,,,,,,,,,,,,,,,,,,,,0.387290168,-0.356115108,1,0,0,,,,,,,GRANNY,C,z,y,./images/GRANNY.png,,,,,,,,0,0.387290168,-0.356115108,1,0,0,0.662,button_right_test,0,8,8,104,1
,,,,,,,,,,,,,,,,,198895,19,2022-01-30_23h48.10.530,lexical_decision_task_DD_L2,2021.2.3,MacIntel,50,,,,,,,,,,0.821,1,,,,,,,,,,,,,,,,,,,,,,,0.441247002,-0.28177458,1,0,0,,,,,,,KIDNEY,HB,m,y,./images/KIDNEYHB.png,,,,,,,,0,0.441247002,-0.28177458,1,0,0,0.821,button_right_test,0,9,9,21,1
,,,,,,,,,,,,,,,,,198895,19,2022-01-30_23h48.10.530,lexical_decision_task_DD_L2,2021.2.3,MacIntel,50,,,,,,,,,,0.939,0,,,,,,,,,,,,,,,,,,,,,,,0.326139089,-0.342925659,1,0,0,,,,,,,WHEEL,C,z,y,./images/WHEEL.png,,,,,,,,0,0.326139089,-0.342925659,1,0,0,0.939,button_right_test,0,10,10,161,1
,,,,,,,,,,,,,,,,,198895,19,2022-01-30_23h48.10.530,lexical_decision_task_DD_L2,2021.2.3,MacIntel,50,,,,,,,,,,0.602,0,,,,,,,,,,,,,,,,,,,,,,,0.318944844,-0.383693046,1,0,0,,,,,,,STOOL,LB,z,y,./images/STOOLLB.png,,,,,,,,0,0.318944844,-0.383693046,1,0,0,0.602,button_right_test,0,11,11,127,1
,,,,,,,,,,,,,,,,,198895,19,2022-01-30_23h48.10.530,lexical_decision_task_DD_L2,2021.2.3,MacIntel,50,,,,,,,,,,0.511,1,,,,,,,,,,,,,,,,,,,,,,,0.333333333,-0.372901679,1,0,0,,,,,,,STORM,HB,m,y,./images/STORMHB.png,,,,,,,,0,0.333333333,-0.372901679,1,0,0,0.511,button_right_test,0,12,12,30,1
,,,,,,,,,,,,,,,,,198895,19,2022-01-30_23h48.10.530,lexical_decision_task_DD_L2,2021.2.3,MacIntel,50,,,,,,,,,,0.593,1,,,,,,,,,,,,,,,,,,,,,,,0.320143885,-0.362110312,1,0,0,,,,,,,SWEAT,HB,m,y,./images/SWEATHB.png,,,,,,,,0,0.320143885,-0.362110312,1,0,0,0.593,button_right_test,0,13,13,66,1
,,,,,,,,,,,,,,,,,198895,19,2022-01-30_23h48.10.530,lexical_decision_task_DD_L2,2021.2.3,MacIntel,50,,,,,,,,,,0.711,1,,,,,,,,,,,,,,,,,,,,,,,0.354916067,-0.358513189,1,0,0,,,,,,,TORCH,C,m,y,./images/TORCH.png,,,,,,,,0,0.354916067,-0.358513189,1,0,0,0.711,button_right_test,0,14,14,68,1
,,,,,,,,,,,,,,,,,198895,19,2022-01-30_23h48.10.530,lexical_decision_task_DD_L2,2021.2.3,MacIntel,50,,,,,,,,,,0.636,0,,,,,,,,,,,,,,,,,,,,,,,0.371702638,-0.362110312,1,0,0,,,,,,,BAMBOO,C,z,y,./images/BAMBOO.png,,,,,,,,0,0.371702638,-0.362110312,1,0,0,0.636,button_right_test,0,15,15,89,1
,,,,,,,,,,,,,,,,,198895,19,2022-01-30_23h48.10.530,lexical_decision_task_DD_L2,2021.2.3,MacIntel,50,,,,,,,,,,0.735,1,,,,,,,,,,,,,,,,,,,,,,,0.376498801,-0.371702638,1,0,0,,,,,,,MOTOR,LB,m,y,./images/MOTORLB.png,,,,,,,,0,0.376498801,-0.371702638,1,0,0,0.735,button_right_test,0,16,16,13,1
,,,,,,,,,,,,,,,,,198895,19,2022-01-30_23h48.10.530,lexical_decision_task_DD_L2,2021.2.3,MacIntel,50,,,,,,,,,,1.104,0,,,,,,,,,,,,,,,,,,,,,,,0.404076739,-0.347721823,1,0,0,,,,,,,FLASK,HB,z,y,./images/FLASKHB.png,,,,,,,,0,0.404076739,-0.347721823,1,0,0,1.104,button_right_test,0,17,17,156,1
,,,,,,,,,,,,,,,,,198895,19,2022-01-30_23h48.10.530,lexical_decision_task_DD_L2,2021.2.3,MacIntel,50,,,,,,,,,,0.669,0,,,,,,,,,,,,,,,,,,,,,,,0.332134293,-0.352517986,1,0,0,,,,,,,PEBBLE,LB,z,y,./images/PEBBLELB.png,,,,,,,,0,0.332134293,-0.352517986,1,0,0,0.669,button_right_test,0,18,18,166,1
,,,,,,,,,,,,,,,,,198895,19,2022-01-30_23h48.10.530,lexical_decision_task_DD_L2,2021.2.3,MacIntel,50,,,,,,,,,,0.811,1,,,,,,,,,,,,,,,,,,,,,,,0.382494005,-0.364508393,1,0,0,,,,,,,QUILL,LB,m,y,./images/QUILLLB.png,,,,,,,,0,0.382494005,-0.364508393,1,0,0,0.811,button_right_test,0,19,19,31,1
,,,,,,,,,,,,,,,,,198895,19,2022-01-30_23h48.10.530,lexical_decision_task_DD_L2,2021.2.3,MacIntel,50,,,,,,,,,,0.518,1,,,,,,,,,,,,,,,,,,,,,,,0.395683453,-0.324940048,1,0,0,,,,,,,SHORE,HB,m,y,./images/SHOREHB.png,,,,,,,,0,0.395683453,-0.324940048,1,0,0,0.518,button_right_test,0,20,20,12,1
,,,,,,,,,,,,,,,,,198895,19,2022-01-30_23h48.10.530,lexical_decision_task_DD_L2,2021.2.3,MacIntel,50,,,,,,,,,,0.568,1,,,,,,,,,,,,,,,,,,,,,,,0.389688249,-0.309352518,1,0,0,,,,,,,WEASEL,C,m,y,./images/WEASEL.png,,,,,,,,0,0.389688249,-0.309352518,1,0,0,0.568,button_right_test,0,21,21,80,1
,,,,,,,,,,,,,,,,,198895,19,2022-01-30_23h48.10.530,lexical_decision_task_DD_L2,2021.2.3,MacIntel,50,,,,,,,,,,0.62,1,,,,,,,,,,,,,,,,,,,,,,,0.346522782,-0.29616307,1,0,0,,,,,,,PURSE,C,m,y,./images/PURSE.png,,,,,,,,0,0.346522782,-0.29616307,1,0,0,0.62,button_right_test,0,22,22,62,1
,,,,,,,,,,,,,,,,,198895,19,2022-01-30_23h48.10.530,lexical_decision_task_DD_L2,2021.2.3,MacIntel,50,,,,,,,,,,0.553,1,,,,,,,,,,,,,,,,,,,,,,,0.346522782,-0.345323741,1,0,0,,,,,,,JELLY,LB,m,y,./images/JELLYLB.png,,,,,,,,0,0.346522782,-0.345323741,1,0,0,0.553,button_right_test,0,23,23,64,1
,,,,,,,,,,,,,,,,,198895,19,2022-01-30_23h48.10.530,lexical_decision_task_DD_L2,2021.2.3,MacIntel,50,,,,,,,,,,0.562,0,,,,,,,,,,,,,,,,,,,,,,,0.322541966,-0.380095923,1,0,0,,,,,,,BOXER,LB,z,y,./images/BOXERLB.png,,,,,,,,0,0.322541966,-0.380095923,1,0,0,0.562,button_right_test,0,24,24,88,1
,,,,,,,,,,,,,,,,,198895,19,2022-01-30_23h48.10.530,lexical_decision_task_DD_L2,2021.2.3,MacIntel,50,,,,,,,,,,0.62,0,,,,,,,,,,,,,,,,,,,,,,,0.372901679,-0.345323741,1,0,0,,,,,,,PARCEL,HB,z,y,./images/PARCELHB.png,,,,,,,,0,0.372901679,-0.345323741,1,0,0,0.62,button_right_test,0,25,25,102,1
,,,,,,,,,,,,,,,,,198895,19,2022-01-30_23h48.10.530,lexical_decision_task_DD_L2,2021.2.3,MacIntel,50,,,,,,,,,,0.603,0,,,,,,,,,,,,,,,,,,,,,,,0.32853717,-0.381294964,1,0,0,,,,,,,BROOM,HB,z,y,./images/BROOMHB.png,,,,,,,,0,0.32853717,-0.381294964,1,0,0,0.603,button_right_test,0,26,26,162,1
,,,,,,,,,,,,,,,,,198895,19,2022-01-30_23h48.10.530,lexical_decision_task_DD_L2,2021.2.3,MacIntel,50,,,,,,,,,,0.586,0,,,,,,,,,,,,,,,,,,,,,,,0.360911271,-0.321342926,1,0,0,,,,,,,HAMMER,HB,z,y,./images/HAMMERHB.png,,,,,,,,0,0.360911271,-0.321342926,1,0,0,0.586,button_right_test,0,27,27,159,1
,,,,,,,,,,,,,,,,,198895,19,2022-01-30_23h48.10.530,lexical_decision_task_DD_L2,2021.2.3,MacIntel,50,,,,,,,,,,0.436,1,,,,,,,,,,,,,,,,,,,,,,,0.401678657,-0.323741007,1,0,0,,,,,,,SCREW,HB,m,y,./images/SCREWHB.png,,,,,,,,0,0.401678657,-0.323741007,1,0,0,0.436,button_right_test,0,28,28,24,1
,,,,,,,,,,,,,,,,,198895,19,2022-01-30_23h48.10.530,lexical_decision_task_DD_L2,2021.2.3,MacIntel,50,,,,,,,,,,3.829,0,,,,,,,,,,,,,,,,,,,,,,,0.404076739,-0.322541966,1,0,0,,,,,,,SAUCE,HB,z,y,./images/SAUCEHB.png,,,,,,,,0,0.404076739,-0.322541966,1,0,0,3.829,button_right_test,0,29,29,135,1
,,,,,,,,,,,,,,,,,198895,19,2022-01-30_23h48.10.530,lexical_decision_task_DD_L2,2021.2.3,MacIntel,50,,,,,,,,,,1.194,1,,,,,,,,,,,,,,,,,,,,,,,-0.394484412,-0.305755396,1,0,0,,,,,,,ALLEY,LB,z,y,./images/ALLEYLB.png,,,,,,,,0,-0.394484412,-0.305755396,1,0,0,1.194,button_left_test,0,30,30,139,1
,,,,,,,,,,,,,,,,,198895,19,2022-01-30_23h48.10.530,lexical_decision_task_DD_L2,2021.2.3,MacIntel,50,,,,,,,,,,0.704,0,,,,,,,,,,,,,,,,,,,,,,,0.418465228,-0.32853717,1,0,0,,,,,,,SPINE,C,z,y,./images/SPINE.png,,,,,,,,0,0.418465228,-0.32853717,1,0,0,0.704,button_right_test,0,31,31,149,1
,,,,,,,,,,,,,,,,,198895,19,2022-01-30_23h48.10.530,lexical_decision_task_DD_L2,2021.2.3,MacIntel,50,,,,,,,,,,0.89,1,,,,,,,,,,,,,,,,,,,,,,,-0.404076739,-0.323741007,1,0,0,,,,,,,WALNUT,HB,z,y,./images/WALNUTHB.png,,,,,,,,0,-0.404076739,-0.323741007,1,0,0,0.89,button_left_test,0,32,32,84,1
,,,,,,,,,,,,,,,,,198895,19,2022-01-30_23h48.10.530,lexical_decision_task_DD_L2,2021.2.3,MacIntel,50,,,,,,,,,,0.048,1,,,,,,,,,,,,,,,,,,,,,,,0.396882494,-0.348920863,1,0,0,,,,,,,SAILOR,LB,m,y,./images/SAILORLB.png,,,,,,,,0,0.396882494,-0.348920863,1,0,0,0.048,button_right_test,0,33,33,67,1
,,,,,,,,,,,,,,,,,198895,19,2022-01-30_23h48.10.530,lexical_decision_task_DD_L2,2021.2.3,MacIntel,50,,,,,,,,,,0.032,1,,,,,,,,,,,,,,,,,,,,,,,-0.358513189,-0.306954436,1,0,0,,,,,,,BASKET,C,z,y,./images/BASKET.png,,,,,,,,0,-0.358513189,-0.306954436,1,0,0,0.032,button_left_test,0,34,34,128,1
,,,,,,,,,,,,,,,,,198895,19,2022-01-30_23h48.10.530,lexical_decision_task_DD_L2,2021.2.3,MacIntel,50,,,,,,,,,,0.013,1,,,,,,,,,,,,,,,,,,,,,,,0.351318945,-0.3441247,1,0,0,,,,,,,FALCON,LB,m,y,./images/FALCONLB.png,,,,,,,,0,0.351318945,-0.3441247,1,0,0,0.013,button_right_test,0,35,35,28,1
,,,,,,,,,,,,,,,,,198895,19,2022-01-30_23h48.10.530,lexical_decision_task_DD_L2,2021.2.3,MacIntel,50,,,,,,,,,,0.052,1,,,,,,,,,,,,,,,,,,,,,,,-0.37529976,-0.310551559,1,0,0,,,,,,,CANDY,HB,z,y,./images/CANDYHB.png,,,,,,,,0,-0.37529976,-0.310551559,1,0,0,0.052,button_left_test,0,36,36,123,1
,,,,,,,,,,,,,,,,,198895,19,2022-01-30_23h48.10.530,lexical_decision_task_DD_L2,2021.2.3,MacIntel,50,,,,,,,,,,0.176,0,,,,,,,,,,,,,,,,,,,,,,,-0.320143885,-0.341726619,1,0,0,,,,,,,STRING,C,m,y,./images/STRING.png,,,,,,,,0,-0.320143885,-0.341726619,1,0,0,0.176,button_left_test,0,37,37,41,1
,,,,,,,,,,,,,,,,,198895,19,2022-01-30_23h48.10.530,lexical_decision_task_DD_L2,2021.2.3,MacIntel,50,,,,,,,,,,0.104,0,,,,,,,,,,,,,,,,,,,,,,,-0.298561151,-0.31294964,1,0,0,,,,,,,CRADLE,C,m,y,./images/CRADLE.png,,,,,,,,0,-0.298561151,-0.31294964,1,0,0,0.104,button_left_test,0,38,38,20,1
,,,,,,,,,,,,,,,,,198895,19,2022-01-30_23h48.10.530,lexical_decision_task_DD_L2,2021.2.3,MacIntel,50,,,,,,,,,,0.162,1,,,,,,,,,,,,,,,,,,,,,,,-0.309352518,-0.310551559,1,0,0,,,,,,,TIGER,LB,z,y,./images/TIGERLB.png,,,,,,,,0,-0.309352518,-0.310551559,1,0,0,0.162,button_left_test,0,39,39,121,1
,,,,,,,,,,,,,,,,,198895,19,2022-01-30_23h48.10.530,lexical_decision_task_DD_L2,2021.2.3,MacIntel,50,,,,,,,,,,0.099,0,,,,,,,,,,,,,,,,,,,,,,,0.357314149,-0.287769784,1,0,0,,,,,,,BAKER,HB,z,y,./images/BAKERHB.png,,,,,,,,0,0.357314149,-0.287769784,1,0,0,0.099,button_right_test,0,40,40,147,1
,,,,,,,,,,,,,,,,,198895,19,2022-01-30_23h48.10.530,lexical_decision_task_DD_L2,2021.2.3,MacIntel,50,,,,,,,,,,0.188,0,,,,,,,,,,,,,,,,,,,,,,,0.143884892,-0.395683453,1,0,0,,,,,,,SPORT,HB,m,y,./images/SPORTHB.png,break_done_button,,,,,,,0,-0.372901679,-0.26498801,1,0,0,0.188,button_left_test,0,41,41,48,1
,,,,,,,,,,,,,,,,,198895,19,2022-01-30_23h48.10.530,lexical_decision_task_DD_L2,2021.2.3,MacIntel,50,,,,,,,,,,0.669,1,,,,,,,,,,,,,,,,,,,,,,,0.364508393,-0.346522782,1,0,0,,,,,,,PIMPLE,C,m,y,./images/PIMPLE.png,,,,,,,,0,0.364508393,-0.346522782,1,0,0,0.669,button_right_test,0,42,42,71,1
,,,,,,,,,,,,,,,,,198895,19,2022-01-30_23h48.10.530,lexical_decision_task_DD_L2,2021.2.3,MacIntel,50,,,,,,,,,,0.115,1,,,,,,,,,,,,,,,,,,,,,,,-0.380095923,-0.278177458,1,0,0,,,,,,,STREAM,C,z,y,./images/STREAM.png,,,,,,,,0,-0.380095923,-0.278177458,1,0,0,0.115,button_left_test,0,43,43,125,1
,,,,,,,,,,,,,,,,,198895,19,2022-01-30_23h48.10.530,lexical_decision_task_DD_L2,2021.2.3,MacIntel,50,,,,,,,,,,0.117,1,,,,,,,,,,,,,,,,,,,,,,,-0.40647482,-0.293764988,1,0,0,,,,,,,ENGINE,C,z,y,./images/ENGINE.png,,,,,,,,0,-0.40647482,-0.293764988,1,0,0,0.117,button_left_test,0,44,44,122,1
,,,,,,,,,,,,,,,,,198895,19,2022-01-30_23h48.10.530,lexical_decision_task_DD_L2,2021.2.3,MacIntel,50,,,,,,,,,,0.057,1,,,,,,,,,,,,,,,,,,,,,,,0.356115108,-0.314148681,1,0,0,,,,,,,POODLE,HB,m,y,./images/POODLEHB.png,,,,,,,,0,0.356115108,-0.314148681,1,0,0,0.057,button_right_test,0,45,45,81,1
,,,,,,,,,,,,,,,,,198895,19,2022-01-30_23h48.10.530,lexical_decision_task_DD_L2,2021.2.3,MacIntel,50,,,,,,,,,,0.125,0,,,,,,,,,,,,,,,,,,,,,,,-0.374100719,-0.273381295,1,0,0,,,,,,,PEACH,C,m,y,./images/PEACH.png,,,,,,,,0,-0.374100719,-0.273381295,1,0,0,0.125,button_left_test,0,46,46,35,1
,,,,,,,,,,,,,,,,,198895,19,2022-01-30_23h48.10.530,lexical_decision_task_DD_L2,2021.2.3,MacIntel,50,,,,,,,,,,0.128,1,,,,,,,,,,,,,,,,,,,,,,,0.374100719,-0.298561151,1,0,0,,,,,,,ONION,HB,m,y,./images/ONIONHB.png,,,,,,,,0,0.374100719,-0.298561151,1,0,0,0.128,button_right_test,0,47,47,51,1
,,,,,,,,,,,,,,,,,198895,19,2022-01-30_23h48.10.530,lexical_decision_task_DD_L2,2021.2.3,MacIntel,50,,,,,,,,,,0.029,1,,,,,,,,,,,,,,,,,,,,,,,-0.332134293,-0.260191847,1,0,0,,,,,,,HOCKEY,C,z,y,./images/HOCKEY.png,,,,,,,,0,-0.332134293,-0.260191847,1,0,0,0.029,button_left_test,0,48,48,116,1
,,,,,,,,,,,,,,,,,198895,19,2022-01-30_23h48.10.530,lexical_decision_task_DD_L2,2021.2.3,MacIntel,50,,,,,,,,,,0.091,1,,,,,,,,,,,,,,,,,,,,,,,-0.346522782,-0.288968825,1,0,0,,,,,,,SAUNA,HB,z,y,./images/SAUNAHB.png,,,,,,,,0,-0.346522782,-0.288968825,1,0,0,0.091,button_left_test,0,49,49,117,1
,,,,,,,,,,,,,,,,,198895,19,2022-01-30_23h48.10.530,lexical_decision_task_DD_L2,2021.2.3,MacIntel,50,,,,,,,,,,0.044,1,,,,,,,,,,,,,,,,,,,,,,,-0.348920863,-0.293764988,1,0,0,,,,,,,DANCER,HB,z,y,./images/DANCERHB.png,,,,,,,,0,-0.348920863,-0.293764988,1,0,0,0.044,button_left_test,0,50,50,105,1
,,,,,,,,,,,,,,,,,198895,19,2022-01-30_23h48.10.530,lexical_decision_task_DD_L2,2021.2.3,MacIntel,50,,,,,,,,,,0.028,0,,,,,,,,,,,,,,,,,,,,,,,-0.352517986,-0.287769784,1,0,0,,,,,,,TRIPOD,HB,m,y,./images/TRIPODHB.png,,,,,,,,0,-0.352517986,-0.287769784,1,0,0,0.028,button_left_test,0,51,51,54,1
,,,,,,,,,,,,,,,,,198895,19,2022-01-30_23h48.10.530,lexical_decision_task_DD_L2,2021.2.3,MacIntel,50,,,,,,,,,,0.011,0,,,,,,,,,,,,,,,,,,,,,,,-0.366906475,-0.275779376,1,0,0,,,,,,,PASTA,C,m,y,./images/PASTA.png,,,,,,,,0,-0.366906475,-0.275779376,1,0,0,0.011,button_left_test,0,52,52,5,1
,,,,,,,,,,,,,,,,,198895,19,2022-01-30_23h48.10.530,lexical_decision_task_DD_L2,2021.2.3,MacIntel,50,,,,,,,,,,0.093,0,,,,,,,,,,,,,,,,,,,,,,,0.330935252,-0.318944844,1,0,0,,,,,,,CLOTH,C,z,y,./images/CLOTH.png,,,,,,,,0,0.330935252,-0.318944844,1,0,0,0.093,button_right_test,0,53,53,107,1
,,,,,,,,,,,,,,,,,198895,19,2022-01-30_23h48.10.530,lexical_decision_task_DD_L2,2021.2.3,MacIntel,50,,,,,,,,,,0.032,0,,,,,,,,,,,,,,,,,,,,,,,-0.360911271,-0.275779376,1,0,0,,,,,,,TULIP,C,m,y,./images/TULIP.png,,,,,,,,0,-0.360911271,-0.275779376,1,0,0,0.032,button_left_test,0,54,54,8,1
,,,,,,,,,,,,,,,,,198895,19,2022-01-30_23h48.10.530,lexical_decision_task_DD_L2,2021.2.3,MacIntel,50,,,,,,,,,,0.08,0,,,,,,,,,,,,,,,,,,,,,,,-0.333333333,-0.290167866,1,0,0,,,,,,,URINE,LB,m,y,./images/URINELB.png,,,,,,,,0,-0.333333333,-0.290167866,1,0,0,0.08,button_left_test,0,55,55,70,1
,,,,,,,,,,,,,,,,,198895,19,2022-01-30_23h48.10.530,lexical_decision_task_DD_L2,2021.2.3,MacIntel,50,,,,,,,,,,0.103,0,,,,,,,,,,,,,,,,,,,,,,,0.392086331,-0.286570743,1,0,0,,,,,,,BUNNY,LB,z,y,./images/BUNNYLB.png,,,,,,,,0,0.392086331,-0.286570743,1,0,0,0.103,button_right_test,0,56,56,97,1
,,,,,,,,,,,,,,,,,198895,19,2022-01-30_23h48.10.530,lexical_decision_task_DD_L2,2021.2.3,MacIntel,50,,,,,,,,,,0.082,1,,,,,,,,,,,,,,,,,,,,,,,-0.315347722,-0.276978417,1,0,0,,,,,,,MAMMAL,C,z,y,./images/MAMMAL.png,,,,,,,,0,-0.315347722,-0.276978417,1,0,0,0.082,button_left_test,0,57,57,146,1
,,,,,,,,,,,,,,,,,198895,19,2022-01-30_23h48.10.530,lexical_decision_task_DD_L2,2021.2.3,MacIntel,50,,,,,,,,,,0.038,1,,,,,,,,,,,,,,,,,,,,,,,-0.32853717,-0.298561151,1,0,0,,,,,,,BOILER,HB,z,y,./images/BOILERHB.png,,,,,,,,0,-0.32853717,-0.298561151,1,0,0,0.038,button_left_test,0,58,58,120,1
,,,,,,,,,,,,,,,,,198895,19,2022-01-30_23h48.10.530,lexical_decision_task_DD_L2,2021.2.3,MacIntel,50,,,,,,,,,,0.118,1,,,,,,,,,,,,,,,,,,,,,,,-0.327338129,-0.29616307,1,0,0,,,,,,,MONKEY,HB,z,y,./images/MONKEYHB.png,,,,,,,,0,-0.327338129,-0.29616307,1,0,0,0.118,button_left_test,0,59,59,129,1
,,,,,,,,,,,,,,,,,198895,19,2022-01-30_23h48.10.530,lexical_decision_task_DD_L2,2021.2.3,MacIntel,50,,,,,,,,,,0.133,0,,,,,,,,,,,,,,,,,,,,,,,-0.310551559,-0.298561151,1,0,0,,,,,,,PEARL,LB,m,y,./images/PEARLLB.png,,,,,,,,0,-0.310551559,-0.298561151,1,0,0,0.133,button_left_test,0,60,60,46,1
,,,,,,,,,,,,,,,,,198895,19,2022-01-30_23h48.10.530,lexical_decision_task_DD_L2,2021.2.3,MacIntel,50,,,,,,,,,,0.038,0,,,,,,,,,,,,,,,,,,,,,,,0.369304556,-0.314148681,1,0,0,,,,,,,FLESH,HB,z,y,./images/FLESHHB.png,,,,,,,,0,0.369304556,-0.314148681,1,0,0,0.038,button_right_test,0,61,61,108,1
,,,,,,,,,,,,,,,,,198895,19,2022-01-30_23h48.10.530,lexical_decision_task_DD_L2,2021.2.3,MacIntel,50,,,,,,,,,,0.1,0,,,,,,,,,,,,,,,,,,,,,,,0.376498801,-0.324940048,1,0,0,,,,,,,DONKEY,LB,z,y,./images/DONKEYLB.png,,,,,,,,0,0.376498801,-0.324940048,1,0,0,0.1,button_right_test,0,62,62,103,1
,,,,,,,,,,,,,,,,,198895,19,2022-01-30_23h48.10.530,lexical_decision_task_DD_L2,2021.2.3,MacIntel,50,,,,,,,,,,0.046,1,,,,,,,,,,,,,,,,,,,,,,,-0.29616307,-0.276978417,1,0,0,,,,,,,STATUE,HB,z,y,./images/STATUEHB.png,,,,,,,,0,-0.29616307,-0.276978417,1,0,0,0.046,button_left_test,0,63,63,150,1
,,,,,,,,,,,,,,,,,198895,19,2022-01-30_23h48.10.530,lexical_decision_task_DD_L2,2021.2.3,MacIntel,50,,,,,,,,,,0.031,1,,,,,,,,,,,,,,,,,,,,,,,0.321342926,-0.306954436,1,0,0,,,,,,,PICKLE,C,m,y,./images/PICKLE.png,,,,,,,,0,0.321342926,-0.306954436,1,0,0,0.031,button_right_test,0,64,64,14,1
,,,,,,,,,,,,,,,,,198895,19,2022-01-30_23h48.10.530,lexical_decision_task_DD_L2,2021.2.3,MacIntel,50,,,,,,,,,,0.167,0,,,,,,,,,,,,,,,,,,,,,,,0.352517986,-0.356115108,1,0,0,,,,,,,PILOT,C,z,y,./images/PILOT.png,,,,,,,,0,0.352517986,-0.356115108,1,0,0,0.167,button_right_test,0,65,65,134,1
,,,,,,,,,,,,,,,,,198895,19,2022-01-30_23h48.10.530,lexical_decision_task_DD_L2,2021.2.3,MacIntel,50,,,,,,,,,,0.228,0,,,,,,,,,,,,,,,,,,,,,,,-0.346522782,-0.320143885,1,0,0,,,,,,,MOOSE,HB,m,y,./images/MOOSEHB.png,,,,,,,,0,-0.346522782,-0.320143885,1,0,0,0.228,button_left_test,0,66,66,57,1
,,,,,,,,,,,,,,,,,198895,19,2022-01-30_23h48.10.530,lexical_decision_task_DD_L2,2021.2.3,MacIntel,50,,,,,,,,,,0.029,0,,,,,,,,,,,,,,,,,,,,,,,0.380095923,-0.290167866,1,0,0,,,,,,,CRATER,HB,z,y,./images/CRATERHB.png,,,,,,,,0,0.380095923,-0.290167866,1,0,0,0.029,button_right_test,0,67,67,87,1
,,,,,,,,,,,,,,,,,198895,19,2022-01-30_23h48.10.530,lexical_decision_task_DD_L2,2021.2.3,MacIntel,50,,,,,,,,,,0.116,1,,,,,,,,,,,,,,,,,,,,,,,-0.314148681,-0.293764988,1,0,0,,,,,,,POSTER,C,z,y,./images/POSTER.png,,,,,,,,0,-0.314148681,-0.293764988,1,0,0,0.116,button_left_test,0,68,68,137,1
,,,,,,,,,,,,,,,,,198895,19,2022-01-30_23h48.10.530,lexical_decision_task_DD_L2,2021.2.3,MacIntel,50,,,,,,,,,,0.17,0,,,,,,,,,,,,,,,,,,,,,,,-0.29616307,-0.324940048,1,0,0,,,,,,,TWINS,HB,m,y,./images/TWINSHB.png,,,,,,,,0,-0.29616307,-0.324940048,1,0,0,0.17,button_left_test,0,69,69,60,1
,,,,,,,,,,,,,,,,,198895,19,2022-01-30_23h48.10.530,lexical_decision_task_DD_L2,2021.2.3,MacIntel,50,,,,,,,,,,0.093,1,,,,,,,,,,,,,,,,,,,,,,,-0.334532374,-0.267386091,1,0,0,,,,,,,RULER,LB,z,y,./images/RULERLB.png,,,,,,,,0,-0.334532374,-0.267386091,1,0,0,0.093,button_left_test,0,70,70,163,1
,,,,,,,,,,,,,,,,,198895,19,2022-01-30_23h48.10.530,lexical_decision_task_DD_L2,2021.2.3,MacIntel,50,,,,,,,,,,0.15,0,,,,,,,,,,,,,,,,,,,,,,,-0.304556355,-0.260191847,1,0,0,,,,,,,MIRROR,HB,m,y,./images/MIRRORHB.png,,,,,,,,0,-0.304556355,-0.260191847,1,0,0,0.15,button_left_test,0,71,71,63,1
,,,,,,,,,,,,,,,,,198895,19,2022-01-30_23h48.10.530,lexical_decision_task_DD_L2,2021.2.3,MacIntel,50,,,,,,,,,,0.097,1,,,,,,,,,,,,,,,,,,,,,,,-0.310551559,-0.268585132,1,0,0,,,,,,,POKER,LB,z,y,./images/POKERLB.png,,,,,,,,0,-0.310551559,-0.268585132,1,0,0,0.097,button_left_test,0,72,72,151,1
,,,,,,,,,,,,,,,,,198895,19,2022-01-30_23h48.10.530,lexical_decision_task_DD_L2,2021.2.3,MacIntel,50,,,,,,,,,,0.169,1,,,,,,,,,,,,,,,,,,,,,,,-0.323741007,-0.254196643,1,0,0,,,,,,,STAIN,HB,z,y,./images/STAINHB.png,,,,,,,,0,-0.323741007,-0.254196643,1,0,0,0.169,button_left_test,0,73,73,90,1
,,,,,,,,,,,,,,,,,198895,19,2022-01-30_23h48.10.530,lexical_decision_task_DD_L2,2021.2.3,MacIntel,50,,,,,,,,,,0.131,0,,,,,,,,,,,,,,,,,,,,,,,-0.370503597,-0.229016787,1,0,0,,,,,,,BURIAL,C,m,y,./images/BURIAL.png,,,,,,,,0,-0.370503597,-0.229016787,1,0,0,0.131,button_left_test,0,74,74,59,1
,,,,,,,,,,,,,,,,,198895,19,2022-01-30_23h48.10.530,lexical_decision_task_DD_L2,2021.2.3,MacIntel,50,,,,,,,,,,0.061,0,,,,,,,,,,,,,,,,,,,,,,,-0.398081535,-0.232613909,1,0,0,,,,,,,SKIING,C,m,y,./images/SKIING.png,,,,,,,,0,-0.398081535,-0.232613909,1,0,0,0.061,button_left_test,0,75,75,17,1
,,,,,,,,,,,,,,,,,198895,19,2022-01-30_23h48.10.530,lexical_decision_task_DD_L2,2021.2.3,MacIntel,50,,,,,,,,,,0.081,0,,,,,,,,,,,,,,,,,,,,,,,0.3441247,-0.298561151,1,0,0,,,,,,,WHISKY,C,z,y,./images/WHISKY.png,,,,,,,,0,0.3441247,-0.298561151,1,0,0,0.081,button_right_test,0,76,76,167,1
,,,,,,,,,,,,,,,,,198895,19,2022-01-30_23h48.10.530,lexical_decision_task_DD_L2,2021.2.3,MacIntel,50,,,,,,,,,,0.086,1,,,,,,,,,,,,,,,,,,,,,,,0.350119904,-0.29616307,1,0,0,,,,,,,DOUGH,LB,m,y,./images/DOUGHLB.png,,,,,,,,0,0.350119904,-0.29616307,1,0,0,0.086,button_right_test,0,77,77,19,1
,,,,,,,,,,,,,,,,,198895,19,2022-01-30_23h48.10.530,lexical_decision_task_DD_L2,2021.2.3,MacIntel,50,,,,,,,,,,0.029,0,,,,,,,,,,,,,,,,,,,,,,,-0.340527578,-0.303357314,1,0,0,,,,,,,CANYON,LB,m,y,./images/CANYONLB.png,,,,,,,,0,-0.340527578,-0.303357314,1,0,0,0.029,button_left_test,0,78,78,34,1
,,,,,,,,,,,,,,,,,198895,19,2022-01-30_23h48.10.530,lexical_decision_task_DD_L2,2021.2.3,MacIntel,50,,,,,,,,,,0.117,0,,,,,,,,,,,,,,,,,,,,,,,-0.330935252,-0.279376499,1,0,0,,,,,,,NOOSE,HB,m,y,./images/NOOSEHB.png,,,,,,,,0,-0.330935252,-0.279376499,1,0,0,0.117,button_left_test,0,79,79,72,1
,,,,,,,,,,,,,,,,,198895,19,2022-01-30_23h48.10.530,lexical_decision_task_DD_L2,2021.2.3,MacIntel,50,,,,,,,,,,0.095,1,,,,,,,,,,,,,,,,,,,,,,,-0.330935252,-0.290167866,1,0,0,,,,,,,STEAK,LB,z,y,./images/STEAKLB.png,,,,,,,,0,-0.330935252,-0.290167866,1,0,0,0.095,button_left_test,0,80,80,115,1
,,,,,,,,,,,,,,,,,198895,19,2022-01-30_23h48.10.530,lexical_decision_task_DD_L2,2021.2.3,MacIntel,50,,,,,,,,,,0.013,0,,,,,,,,,,,,,,,,,,,,,,,0.354916067,-0.284172662,1,0,0,,,,,,,CURRY,HB,z,y,./images/CURRYHB.png,,,,,,,,0,0.354916067,-0.284172662,1,0,0,0.013,button_right_test,0,81,81,144,1
,,,,,,,,,,,,,,,,,198895,19,2022-01-30_23h48.10.530,lexical_decision_task_DD_L2,2021.2.3,MacIntel,50,,,,,,,,,,0.111,0,,,,,,,,,,,,,,,,,,,,,,,0.364508393,-0.287769784,1,0,0,,,,,,,PLANET,C,z,y,./images/PLANET.png,,,,,,,,0,0.364508393,-0.287769784,1,0,0,0.111,button_right_test,0,82,82,164,1
,,,,,,,,,,,,,,,,,198895,19,2022-01-30_23h48.10.530,lexical_decision_task_DD_L2,2021.2.3,MacIntel,50,,,,,,,,,,0.079,1,,,,,,,,,,,,,,,,,,,,,,,0.134292566,-0.407673861,1,0,0,,,,,,,JUNGLE,C,m,y,./images/JUNGLE.png,break_done_button,,,,,,,0,0.398081535,-0.302158273,1,0,0,0.079,button_right_test,0,83,83,83,1
,,,,,,,,,,,,,,,,,198895,19,2022-01-30_23h48.10.530,lexical_decision_task_DD_L2,2021.2.3,MacIntel,50,,,,,,,,,,0.087,0,,,,,,,,,,,,,,,,,,,,,,,-0.32853717,-0.254196643,1,0,0,,,,,,,MELON,LB,m,y,./images/MELONLB.png,,,,,,,,0,-0.32853717,-0.254196643,1,0,0,0.087,button_left_test,0,84,84,22,1
,,,,,,,,,,,,,,,,,198895,19,2022-01-30_23h48.10.530,lexical_decision_task_DD_L2,2021.2.3,MacIntel,50,,,,,,,,,,0.029,0,,,,,,,,,,,,,,,,,,,,,,,-0.362110312,-0.25059952,1,0,0,,,,,,,SUNSET,LB,m,y,./images/SUNSETLB.png,,,,,,,,0,-0.362110312,-0.25059952,1,0,0,0.029,button_left_test,0,85,85,82,1
,,,,,,,,,,,,,,,,,198895,19,2022-01-30_23h48.10.530,lexical_decision_task_DD_L2,2021.2.3,MacIntel,50,,,,,,,,,,0.183,1,,,,,,,,,,,,,,,,,,,,,,,0.37529976,-0.26618705,1,0,0,,,,,,,MUFFIN,LB,m,y,./images/MUFFINLB.png,,,,,,,,0,0.37529976,-0.26618705,1,0,0,0.183,button_right_test,0,86,86,55,1
,,,,,,,,,,,,,,,,,198895,19,2022-01-30_23h48.10.530,lexical_decision_task_DD_L2,2021.2.3,MacIntel,50,,,,,,,,,,0.147,0,,,,,,,,,,,,,,,,,,,,,,,0.368105516,-0.29736211,1,0,0,,,,,,,WAGON,LB,z,y,./images/WAGONLB.png,,,,,,,,0,0.368105516,-0.29736211,1,0,0,0.147,button_right_test,0,87,87,91,1
,,,,,,,,,,,,,,,,,198895,19,2022-01-30_23h48.10.530,lexical_decision_task_DD_L2,2021.2.3,MacIntel,50,,,,,,,,,,0.106,0,,,,,,,,,,,,,,,,,,,,,,,-0.332134293,-0.278177458,1,0,0,,,,,,,MOSQUE,LB,m,y,./images/MOSQUELB.png,,,,,,,,0,-0.332134293,-0.278177458,1,0,0,0.106,button_left_test,0,88,88,43,1
,,,,,,,,,,,,,,,,,198895,19,2022-01-30_23h48.10.530,lexical_decision_task_DD_L2,2021.2.3,MacIntel,50,,,,,,,,,,0.037,1,,,,,,,,,,,,,,,,,,,,,,,-0.348920863,-0.231414868,1,0,0,,,,,,,MIDGET,LB,z,y,./images/MIDGETLB.png,,,,,,,,0,-0.348920863,-0.231414868,1,0,0,0.037,button_left_test,0,89,89,160,1
,,,,,,,,,,,,,,,,,198895,19,2022-01-30_23h48.10.530,lexical_decision_task_DD_L2,2021.2.3,MacIntel,50,,,,,,,,,,0.121,0,,,,,,,,,,,,,,,,,,,,,,,0.330935252,-0.320143885,1,0,0,,,,,,,BRUSH,C,z,y,./images/BRUSH.png,,,,,,,,0,0.330935252,-0.320143885,1,0,0,0.121,button_right_test,0,90,90,143,1
,,,,,,,,,,,,,,,,,198895,19,2022-01-30_23h48.10.530,lexical_decision_task_DD_L2,2021.2.3,MacIntel,50,,,,,,,,,,0.083,1,,,,,,,,,,,,,,,,,,,,,,,0.358513189,-0.26618705,1,0,0,,,,,,,PLANK,LB,m,y,./images/PLANKLB.png,,,,,,,,0,0.358513189,-0.26618705,1,0,0,0.083,button_right_test,0,91,91,1,1
,,,,,,,,,,,,,,,,,198895,19,2022-01-30_23h48.10.530,lexical_decision_task_DD_L2,2021.2.3,MacIntel,50,,,,,,,,,,0.125,1,,,,,,,,,,,,,,,,,,,,,,,-0.310551559,-0.293764988,1,0,0,,,,,,,BUTTER,HB,z,y,./images/BUTTERHB.png,,,,,,,,0,-0.310551559,-0.293764988,1,0,0,0.125,button_left_test,0,92,92,111,1
,,,,,,,,,,,,,,,,,198895,19,2022-01-30_23h48.10.530,lexical_decision_task_DD_L2,2021.2.3,MacIntel,50,,,,,,,,,,0.097,0,,,,,,,,,,,,,,,,,,,,,,,0.357314149,-0.267386091,1,0,0,,,,,,,PISTOL,C,z,y,./images/PISTOL.png,,,,,,,,0,0.357314149,-0.267386091,1,0,0,0.097,button_right_test,0,93,93,113,1
,,,,,,,,,,,,,,,,,198895,19,2022-01-30_23h48.10.530,lexical_decision_task_DD_L2,2021.2.3,MacIntel,50,,,,,,,,,,0.018,1,,,,,,,,,,,,,,,,,,,,,,,-0.334532374,-0.272182254,1,0,0,,,,,,,BUBBLE,C,z,y,./images/BUBBLE.png,,,,,,,,0,-0.334532374,-0.272182254,1,0,0,0.018,button_left_test,0,94,94,155,1
,,,,,,,,,,,,,,,,,198895,19,2022-01-30_23h48.10.530,lexical_decision_task_DD_L2,2021.2.3,MacIntel,50,,,,,,,,,,0.066,1,,,,,,,,,,,,,,,,,,,,,,,0.354916067,-0.268585132,1,0,0,,,,,,,BANNER,LB,m,y,./images/BANNERLB.png,,,,,,,,0,0.354916067,-0.268585132,1,0,0,0.066,button_right_test,0,95,95,52,1
,,,,,,,,,,,,,,,,,198895,19,2022-01-30_23h48.10.530,lexical_decision_task_DD_L2,2021.2.3,MacIntel,50,,,,,,,,,,0.17,1,,,,,,,,,,,,,,,,,,,,,,,0.363309353,-0.329736211,1,0,0,,,,,,,BELLY,LB,m,y,./images/BELLYLB.png,,,,,,,,0,0.363309353,-0.329736211,1,0,0,0.17,button_right_test,0,96,96,10,1
,,,,,,,,,,,,,,,,,198895,19,2022-01-30_23h48.10.530,lexical_decision_task_DD_L2,2021.2.3,MacIntel,50,,,,,,,,,,0.271,0,,,,,,,,,,,,,,,,,,,,,,,0.3515625,-0.286621094,1,0,0,,,,,,,CLIFF,C,z,y,./images/CLIFF.png,,,,,,,,0,-0.333984375,-0.193847656,1,0,0,0.271,button_right_test,0,97,97,92,1
,,,,,,,,,,,,,,,,,198895,19,2022-01-30_23h48.10.530,lexical_decision_task_DD_L2,2021.2.3,MacIntel,50,,,,,,,,,,0.015,0,,,,,,,,,,,,,,,,,,,,,,,-0.34375,-0.292480469,1,0,0,,,,,,,MUSCLE,LB,m,y,./images/MUSCLELB.png,,,,,,,,0,-0.34375,-0.292480469,1,0,0,0.015,button_left_test,0,98,98,4,1
,,,,,,,,,,,,,,,,,198895,19,2022-01-30_23h48.10.530,lexical_decision_task_DD_L2,2021.2.3,MacIntel,50,,,,,,,,,,0.616,1,,,,,,,,,,,,,,,,,,,,,,,0.345703125,-0.398925781,1,0,0,,,,,,,SWING,LB,m,y,./images/SWINGLB.png,,,,,,,,0,0.345703125,-0.398925781,1,0,0,0.616,button_right_test,0,99,99,40,1
,,,,,,,,,,,,,,,,,198895,19,2022-01-30_23h48.10.530,lexical_decision_task_DD_L2,2021.2.3,MacIntel,50,,,,,,,,,,0.076,1,,,,,,,,,,,,,,,,,,,,,,,0.383789063,-0.326660156,1,0,0,,,,,,,CRUST,LB,m,y,./images/CRUSTLB.png,,,,,,,,0,0.383789063,-0.326660156,1,0,0,0.076,button_right_test,0,100,100,79,1
,,,,,,,,,,,,,,,,,198895,19,2022-01-30_23h48.10.530,lexical_decision_task_DD_L2,2021.2.3,MacIntel,50,,,,,,,,,,0.016,1,,,,,,,,,,,,,,,,,,,,,,,0.360351563,-0.311035156,1,0,0,,,,,,,KITTEN,HB,m,y,./images/KITTENHB.png,,,,,,,,0,0.360351563,-0.311035156,1,0,0,0.016,button_right_test,0,101,101,45,1
,,,,,,,,,,,,,,,,,198895,19,2022-01-30_23h48.10.530,lexical_decision_task_DD_L2,2021.2.3,MacIntel,50,,,,,,,,,,0.042,0,,,,,,,,,,,,,,,,,,,,,,,-0.34375,-0.263183594,1,0,0,,,,,,,PENCE,LB,m,y,./images/PENCELB.png,,,,,,,,0,-0.34375,-0.263183594,1,0,0,0.042,button_left_test,0,102,102,16,1
,,,,,,,,,,,,,,,,,198895,19,2022-01-30_23h48.10.530,lexical_decision_task_DD_L2,2021.2.3,MacIntel,50,,,,,,,,,,0.133,1,,,,,,,,,,,,,,,,,,,,,,,0.276367188,-0.397949219,1,0,0,,,,,,,BONNET,C,m,y,./images/BONNET.png,,,,,,,,0,0.321289063,-0.402832031,1,0,0,0.133,button_right_test,0,103,103,11,1
,,,,,,,,,,,,,,,,,198895,19,2022-01-30_23h48.10.530,lexical_decision_task_DD_L2,2021.2.3,MacIntel,50,,,,,,,,,,0.165,1,,,,,,,,,,,,,,,,,,,,,,,-0.358398438,-0.319824219,1,0,0,,,,,,,SHIELD,HB,z,y,./images/SHIELDHB.png,,,,,,,,0,-0.358398438,-0.319824219,1,0,0,0.165,button_left_test,0,104,104,132,1
,,,,,,,,,,,,,,,,,198895,19,2022-01-30_23h48.10.530,lexical_decision_task_DD_L2,2021.2.3,MacIntel,50,,,,,,,,,,0.028,1,,,,,,,,,,,,,,,,,,,,,,,-0.37109375,-0.257324219,1,0,0,,,,,,,SLOPE,HB,z,y,./images/SLOPEHB.png,,,,,,,,0,-0.37109375,-0.257324219,1,0,0,0.028,button_left_test,0,105,105,114,1
,,,,,,,,,,,,,,,,,198895,19,2022-01-30_23h48.10.530,lexical_decision_task_DD_L2,2021.2.3,MacIntel,50,,,,,,,,,,0.104,1,,,,,,,,,,,,,,,,,,,,,,,-0.364257813,-0.263183594,1,0,0,,,,,,,STOVE,C,z,y,./images/STOVE.png,,,,,,,,0,-0.364257813,-0.263183594,1,0,0,0.104,button_left_test,0,106,106,86,1
,,,,,,,,,,,,,,,,,198895,19,2022-01-30_23h48.10.530,lexical_decision_task_DD_L2,2021.2.3,MacIntel,50,,,,,,,,,,0.161,0,,,,,,,,,,,,,,,,,,,,,,,-0.385742188,-0.234863281,1,0,0,,,,,,,COUCH,C,m,y,./images/COUCH.png,,,,,,,,0,-0.385742188,-0.234863281,1,0,0,0.161,button_left_test,0,107,107,77,1
,,,,,,,,,,,,,,,,,198895,19,2022-01-30_23h48.10.530,lexical_decision_task_DD_L2,2021.2.3,MacIntel,50,,,,,,,,,,0.146,1,,,,,,,,,,,,,,,,,,,,,,,-0.362304688,-0.304199219,1,0,0,,,,,,,DIVER,HB,z,y,./images/DIVERHB.png,,,,,,,,0,-0.362304688,-0.304199219,1,0,0,0.146,button_left_test,0,108,108,93,1
,,,,,,,,,,,,,,,,,198895,19,2022-01-30_23h48.10.530,lexical_decision_task_DD_L2,2021.2.3,MacIntel,50,,,,,,,,,,0.031,0,,,,,,,,,,,,,,,,,,,,,,,-0.380859375,-0.303222656,1,0,0,,,,,,,PAINT,LB,m,y,./images/PAINTLB.png,,,,,,,,0,-0.380859375,-0.303222656,1,0,0,0.031,button_left_test,0,109,109,7,1
,,,,,,,,,,,,,,,,,198895,19,2022-01-30_23h48.10.530,lexical_decision_task_DD_L2,2021.2.3,MacIntel,50,,,,,,,,,,0.016,1,,,,,,,,,,,,,,,,,,,,,,,0.354492188,-0.303222656,1,0,0,,,,,,,SNACK,LB,m,y,./images/SNACKLB.png,,,,,,,,0,0.354492188,-0.303222656,1,0,0,0.016,button_right_test,0,110,110,73,1
,,,,,,,,,,,,,,,,,198895,19,2022-01-30_23h48.10.530,lexical_decision_task_DD_L2,2021.2.3,MacIntel,50,,,,,,,,,,0.085,1,,,,,,,,,,,,,,,,,,,,,,,0.336914063,-0.286621094,1,0,0,,,,,,,WALRUS,C,m,y,./images/WALRUS.png,,,,,,,,0,0.336914063,-0.286621094,1,0,0,0.085,button_right_test,0,111,111,23,1
,,,,,,,,,,,,,,,,,198895,19,2022-01-30_23h48.10.530,lexical_decision_task_DD_L2,2021.2.3,MacIntel,50,,,,,,,,,,0.078,1,,,,,,,,,,,,,,,,,,,,,,,0.348632813,-0.293457031,1,0,0,,,,,,,PACKET,C,m,y,./images/PACKET.png,,,,,,,,0,0.348632813,-0.293457031,1,0,0,0.078,button_right_test,0,112,112,56,1
,,,,,,,,,,,,,,,,,198895,19,2022-01-30_23h48.10.530,lexical_decision_task_DD_L2,2021.2.3,MacIntel,50,,,,,,,,,,0.079,0,,,,,,,,,,,,,,,,,,,,,,,-0.3203125,-0.311035156,1,0,0,,,,,,,MAGGOT,HB,m,y,./images/MAGGOTHB.png,,,,,,,,0,-0.3203125,-0.311035156,1,0,0,0.079,button_left_test,0,113,113,33,1
,,,,,,,,,,,,,,,,,198895,19,2022-01-30_23h48.10.530,lexical_decision_task_DD_L2,2021.2.3,MacIntel,50,,,,,,,,,,0.105,1,,,,,,,,,,,,,,,,,,,,,,,0.329101563,-0.304199219,1,0,0,,,,,,,JAGUAR,HB,m,y,./images/JAGUARHB.png,,,,,,,,0,0.329101563,-0.304199219,1,0,0,0.105,button_right_test,0,114,114,18,1
,,,,,,,,,,,,,,,,,198895,19,2022-01-30_23h48.10.530,lexical_decision_task_DD_L2,2021.2.3,MacIntel,50,,,,,,,,,,0.096,0,,,,,,,,,,,,,,,,,,,,,,,-0.350585938,-0.298339844,1,0,0,,,,,,,CARPET,C,m,y,./images/CARPET.png,,,,,,,,0,-0.350585938,-0.298339844,1,0,0,0.096,button_left_test,0,115,115,53,1
,,,,,,,,,,,,,,,,,198895,19,2022-01-30_23h48.10.530,lexical_decision_task_DD_L2,2021.2.3,MacIntel,50,,,,,,,,,,0.028,1,,,,,,,,,,,,,,,,,,,,,,,0.294921875,-0.271972656,1,0,0,,,,,,,GRAIN,HB,m,y,./images/GRAINHB.png,,,,,,,,0,0.294921875,-0.271972656,1,0,0,0.028,button_right_test,0,116,116,75,1
,,,,,,,,,,,,,,,,,198895,19,2022-01-30_23h48.10.530,lexical_decision_task_DD_L2,2021.2.3,MacIntel,50,,,,,,,,,,0.2,1,,,,,,,,,,,,,,,,,,,,,,,-0.340820313,-0.306152344,1,0,0,,,,,,,HEATER,C,z,y,./images/HEATER.png,,,,,,,,0,-0.340820313,-0.306152344,1,0,0,0.2,button_left_test,0,117,117,140,1
,,,,,,,,,,,,,,,,,198895,19,2022-01-30_23h48.10.530,lexical_decision_task_DD_L2,2021.2.3,MacIntel,50,,,,,,,,,,0.036,1,,,,,,,,,,,,,,,,,,,,,,,0.3203125,-0.253417969,1,0,0,,,,,,,BIRTH,LB,m,y,./images/BIRTHLB.png,,,,,,,,0,0.3203125,-0.253417969,1,0,0,0.036,button_right_test,0,118,118,37,1
,,,,,,,,,,,,,,,,,198895,19,2022-01-30_23h48.10.530,lexical_decision_task_DD_L2,2021.2.3,MacIntel,50,,,,,,,,,,0.163,0,,,,,,,,,,,,,,,,,,,,,,,-0.331054688,-0.309082031,1,0,0,,,,,,,CEMENT,C,m,y,./images/CEMENT.png,,,,,,,,0,-0.331054688,-0.309082031,1,0,0,0.163,button_left_test,0,119,119,74,1
,,,,,,,,,,,,,,,,,198895,19,2022-01-30_23h48.10.530,lexical_decision_task_DD_L2,2021.2.3,MacIntel,50,,,,,,,,,,0.03,0,,,,,,,,,,,,,,,,,,,,,,,-0.323242188,-0.276855469,1,0,0,,,,,,,RHINO,HB,m,y,./images/RHINOHB.png,,,,,,,,0,-0.323242188,-0.276855469,1,0,0,0.03,button_left_test,0,120,120,9,1
,,,,,,,,,,,,,,,,,198895,19,2022-01-30_23h48.10.530,lexical_decision_task_DD_L2,2021.2.3,MacIntel,50,,,,,,,,,,0.116,1,,,,,,,,,,,,,,,,,,,,,,,-0.344726563,-0.272949219,1,0,0,,,,,,,PARADE,C,z,y,./images/PARADE.png,,,,,,,,0,-0.344726563,-0.272949219,1,0,0,0.116,button_left_test,0,121,121,101,1
,,,,,,,,,,,,,,,,,198895,19,2022-01-30_23h48.10.530,lexical_decision_task_DD_L2,2021.2.3,MacIntel,50,,,,,,,,,,0.023,0,,,,,,,,,,,,,,,,,,,,,,,0.299804688,-0.290527344,1,0,0,,,,,,,ARTIST,LB,z,y,./images/ARTISTLB.png,,,,,,,,0,0.299804688,-0.290527344,1,0,0,0.023,button_right_test,0,122,122,145,1
,,,,,,,,,,,,,,,,,198895,19,2022-01-30_23h48.10.530,lexical_decision_task_DD_L2,2021.2.3,MacIntel,50,,,,,,,,,,0.785,0,,,,,,,,,,,,,,,,,,,,,,,0.336914063,-0.361816406,1,0,0,,,,,,,CHALK,LB,z,y,./images/CHALKLB.png,,,,,,,,0,0.336914063,-0.361816406,1,0,0,0.785,button_right_test,0,123,123,109,1
,,,,,,,,,,,,,,,,,198895,19,2022-01-30_23h48.10.530,lexical_decision_task_DD_L2,2021.2.3,MacIntel,50,,,,,,,,,,0.096,1,,,,,,,,,,,,,,,,,,,,,,,0.330078125,-0.302246094,1,0,0,,,,,,,BABOON,LB,m,y,./images/BABOONLB.png,,,,,,,,0,0.330078125,-0.302246094,1,0,0,0.096,button_right_test,0,124,124,58,1
,,,,,,,,,,,,,,,,,198895,19,2022-01-30_23h48.10.530,lexical_decision_task_DD_L2,2021.2.3,MacIntel,50,,,,,,,,,,0.024,1,,,,,,,,,,,,,,,,,,,,,,,0.021484375,-0.353027344,1,0,0,,,,,,,CHERRY,HB,z,y,./images/CHERRYHB.png,break_done_button,,,,,,,0,-0.3671875,-0.259277344,1,0,0,0.024,button_left_test,0,125,125,138,1
,,,,,,,,,,,,,,,,,198895,19,2022-01-30_23h48.10.530,lexical_decision_task_DD_L2,2021.2.3,MacIntel,50,,,,,,,,,,0.037,0,,,,,,,,,,,,,,,,,,,,,,,-0.307617188,-0.225097656,1,0,0,,,,,,,SHELF,HB,m,y,./images/SHELFHB.png,,,,,,,,0,-0.307617188,-0.225097656,1,0,0,0.037,button_left_test,0,126,126,39,1
,,,,,,,,,,,,,,,,,198895,19,2022-01-30_23h48.10.530,lexical_decision_task_DD_L2,2021.2.3,MacIntel,50,,,,,,,,,,0.166,0,,,,,,,,,,,,,,,,,,,,,,,-0.317382813,-0.270019531,1,0,0,,,,,,,WRIST,LB,m,y,./images/WRISTLB.png,,,,,,,,0,-0.317382813,-0.270019531,1,0,0,0.166,button_left_test,0,127,127,25,1
,,,,,,,,,,,,,,,,,198895,19,2022-01-30_23h48.10.530,lexical_decision_task_DD_L2,2021.2.3,MacIntel,50,,,,,,,,,,0.266,1,,,,,,,,,,,,,,,,,,,,,,,0.3671875,-0.271972656,1,0,0,,,,,,,CRUMB,C,m,y,./images/CRUMB.png,,,,,,,,0,0.3671875,-0.271972656,1,0,0,0.266,button_right_test,0,128,128,29,1
,,,,,,,,,,,,,,,,,198895,19,2022-01-30_23h48.10.530,lexical_decision_task_DD_L2,2021.2.3,MacIntel,50,,,,,,,,,,0.108,0,,,,,,,,,,,,,,,,,,,,,,,-0.333984375,-0.254394531,1,0,0,,,,,,,THROAT,HB,m,y,./images/THROATHB.png,,,,,,,,0,-0.333984375,-0.254394531,1,0,0,0.108,button_left_test,0,129,129,36,1
,,,,,,,,,,,,,,,,,198895,19,2022-01-30_23h48.10.530,lexical_decision_task_DD_L2,2021.2.3,MacIntel,50,,,,,,,,,,0.129,1,,,,,,,,,,,,,,,,,,,,,,,0.379882813,-0.293457031,1,0,0,,,,,,,FOLDER,HB,m,y,./images/FOLDERHB.png,,,,,,,,0,0.379882813,-0.293457031,1,0,0,0.129,button_right_test,0,130,130,42,1
,,,,,,,,,,,,,,,,,198895,19,2022-01-30_23h48.10.530,lexical_decision_task_DD_L2,2021.2.3,MacIntel,50,,,,,,,,,,0.139,0,,,,,,,,,,,,,,,,,,,,,,,0.3984375,-0.282714844,1,0,0,,,,,,,JUMPER,C,z,y,./images/JUMPER.png,,,,,,,,0,0.3984375,-0.282714844,1,0,0,0.139,button_right_test,0,131,131,158,1
,,,,,,,,,,,,,,,,,198895,19,2022-01-30_23h48.10.530,lexical_decision_task_DD_L2,2021.2.3,MacIntel,50,,,,,,,,,,0.241,1,,,,,,,,,,,,,,,,,,,,,,,-0.333984375,-0.286621094,1,0,0,,,,,,,SNAKE,LB,z,y,./images/SNAKELB.png,,,,,,,,0,-0.333984375,-0.286621094,1,0,0,0.241,button_left_test,0,132,132,124,1
,,,,,,,,,,,,,,,,,198895,19,2022-01-30_23h48.10.530,lexical_decision_task_DD_L2,2021.2.3,MacIntel,50,,,,,,,,,,0.085,0,,,,,,,,,,,,,,,,,,,,,,,-0.346679688,-0.242675781,1,0,0,,,,,,,BEARD,C,m,y,./images/BEARD.png,,,,,,,,0,-0.346679688,-0.242675781,1,0,0,0.085,button_left_test,0,133,133,2,1
,,,,,,,,,,,,,,,,,198895,19,2022-01-30_23h48.10.530,lexical_decision_task_DD_L2,2021.2.3,MacIntel,50,,,,,,,,,,0.131,1,,,,,,,,,,,,,,,,,,,,,,,-0.26171875,-0.301269531,1,0,0,,,,,,,GARDEN,LB,z,y,./images/GARDENLB.png,,,,,,,,0,-0.26171875,-0.301269531,1,0,0,0.131,button_left_test,0,134,134,94,1
,,,,,,,,,,,,,,,,,198895,19,2022-01-30_23h48.10.530,lexical_decision_task_DD_L2,2021.2.3,MacIntel,50,,,,,,,,,,0.033,0,,,,,,,,,,,,,,,,,,,,,,,0.348632813,-0.267089844,1,0,0,,,,,,,BRIDE,LB,z,y,./images/BRIDELB.png,,,,,,,,0,0.348632813,-0.267089844,1,0,0,0.033,button_right_test,0,135,135,148,1
,,,,,,,,,,,,,,,,,198895,19,2022-01-30_23h48.10.530,lexical_decision_task_DD_L2,2021.2.3,MacIntel,50,,,,,,,,,,0.108,1,,,,,,,,,,,,,,,,,,,,,,,-0.33984375,-0.274902344,1,0,0,,,,,,,BANANA,LB,z,y,./images/BANANALB.png,,,,,,,,0,-0.33984375,-0.274902344,1,0,0,0.108,button_left_test,0,136,136,154,1
,,,,,,,,,,,,,,,,,198895,19,2022-01-30_23h48.10.530,lexical_decision_task_DD_L2,2021.2.3,MacIntel,50,,,,,,,,,,0.48,1,,,,,,,,,,,,,,,,,,,,,,,0.233398438,-0.361816406,1,0,0,,,,,,,DRUMS,LB,m,y,./images/DRUMSLB.png,,,,,,,,0,0.233398438,-0.361816406,1,0,0,0.48,button_right_test,0,137,137,49,1
,,,,,,,,,,,,,,,,,198895,19,2022-01-30_23h48.10.530,lexical_decision_task_DD_L2,2021.2.3,MacIntel,50,,,,,,,,,,0.02,0,,,,,,,,,,,,,,,,,,,,,,,-0.331054688,-0.288574219,1,0,0,,,,,,,SQUARE,HB,m,y,./images/SQUAREHB.png,,,,,,,,0,-0.331054688,-0.288574219,1,0,0,0.02,button_left_test,0,138,138,6,1
