key_resp.keys,instr_done_touch.x,instr_done_touch.y,instr_done_touch.leftButton,instr_done_touch.midButton,instr_done_touch.rightButton,instr_done_touch.clicked_name,instruction_pages.thisRepN,instruction_pages.thisTrialN,instruction_pages.thisN,instruction_pages.thisIndex,instruction_pages.ran,pageN,phase,instruct_text,has_image,instruct_image,participant,age,date,expName,psychopyVersion,OS,frameRate,key_resp.rt,response.keys,response.corr,response.rt,touch_resp.x,touch_resp.y,touch_resp.leftButton,touch_resp.midButton,touch_resp.rightButton,touch_resp.time,touch_resp.clicked_name,rt,corr,practrials.thisRepN,practrials.thisTrialN,practrials.thisN,practrials.thisIndex,practrials.ran,TrialID,Target,corrAns,end_of_practice_trials_pages.thisRepN,end_of_practice_trials_pages.thisTrialN,end_of_practice_trials_pages.thisN,end_of_practice_trials_pages.thisIndex,end_of_practice_trials_pages.ran,key_resp_2.keys,key_resp_2.corr,key_resp_2.rt,targ_click.x,targ_click.y,targ_click.leftButton,targ_click.midButton,targ_click.rightButton,targ_click.time,targ_click.clicked_name,break_done_touch.x,break_done_touch.y,break_done_touch.leftButton,break_done_touch.midButton,break_done_touch.rightButton,break_done_keyboard.keys,maintrials.thisRepN,maintrials.thisTrialN,maintrials.thisN,maintrials.thisIndex,maintrials.ran,string,blur,study,lex,stim_path,break_done_keyboard.rt,test_instructions.thisRepN,test_instructions.thisTrialN,test_instructions.thisN,test_instructions.thisIndex,test_instructions.ran,key_resp_3.keys,key_resp_3.corr,key_resp_3.rt,test_click.x,test_click.y,test_click.leftButton,test_click.midButton,test_click.rightButton,test_click.time,test_click.clicked_name,test_phase.thisRepN,test_phase.thisTrialN,test_phase.thisN,test_phase.thisIndex,test_phase.ran,break_done_touch.clicked_name
,-0.008572049,-0.384644097,1,0,0,instr_done_button,0,0,0,0,1,1,instructions,"INSTRUCTIONS
At the start of each trial, look at the plus sign  (+) in the center of the screen.  This tells you that a trial is about to begin and where to look. Second, the plus sign will disappear and a string of letters will appear. Your task is to determine if the string of letters is a word or not. If the item is a word press the M key (on keyboard)  or touch the word button (phone/tablet).  If the item is not a word,  press the  Z key (on keyboard)  or touch the nonword button (on phone/tablet). 
Press the space bar or touch  continue.",0,,198820,18,2022-01-30_01h45.22.523,lexical_decision_task_DD_L5,2021.2.3,MacIntel,60.0024001,,,,,,,,,,,,,,,,,,,,,,,,,,,,,,,,,,,,,,,,,,,,,,,,,,,,,,,,,,,,,,,,,,,,,,,,,,
space,-0.008572049,-0.384644097,0,0,0,,0,1,1,1,1,2,instructions,"If your device has a keyboard, press the 'Z' key for nonwords and the 'M' key for words.





Press the space bar or touch the button below to continue.",0,keyboard-example.gif,198820,18,2022-01-30_01h45.22.523,lexical_decision_task_DD_L5,2021.2.3,MacIntel,60.0024001,45.7943,,,,,,,,,,,,,,,,,,,,,,,,,,,,,,,,,,,,,,,,,,,,,,,,,,,,,,,,,,,,,,,,,,,,,,,,,
space,-0.008572049,-0.384644097,0,0,0,,0,2,2,2,1,3,instructions,"If you are using a touchscreen only device, use the buttons on the screen. Do not use the mouse.





Press the space bar or touch the button below to continue.",0,touchscreen-example.gif,198820,18,2022-01-30_01h45.22.523,lexical_decision_task_DD_L5,2021.2.3,MacIntel,60.0024001,3.6645,,,,,,,,,,,,,,,,,,,,,,,,,,,,,,,,,,,,,,,,,,,,,,,,,,,,,,,,,,,,,,,,,,,,,,,,,
space,-0.008572049,-0.384644097,0,0,0,,0,3,3,3,1,4,instructions,"It is very important that you respond as quickly and accurately as possible, as each letter string will only be on the screen for two seconds. If you do not respond within this time, the message 'Too slow!' will be displayed and the experiment will progress to the next letter string. The first 20 trials will be practice trials and you will receive feedback on your answers. 

Press the space bar or touch the button below to start the practice trials.",0,,198820,18,2022-01-30_01h45.22.523,lexical_decision_task_DD_L5,2021.2.3,MacIntel,60.0024001,65.2317,,,,,,,,,,,,,,,,,,,,,,,,,,,,,,,,,,,,,,,,,,,,,,,,,,,,,,,,,,,,,,,,,,,,,,,,,
,,,,,,,,,,,,,,,,,198820,18,2022-01-30_01h45.22.523,lexical_decision_task_DD_L5,2021.2.3,MacIntel,60.0024001,,m,1,1.8246,,,,,,,,1.8246,1,0,0,0,7,1,1001,VOLUME,m,,,,,,,,,,,,,,,,,,,,,,,,,,,,,,,,,,,,,,,,,,,,,,,,,,,,,
,,,,,,,,,,,,,,,,,198820,18,2022-01-30_01h45.22.523,lexical_decision_task_DD_L5,2021.2.3,MacIntel,60.0024001,,z,1,1.1215,,,,,,,,1.1215,1,0,1,1,10,1,1001,INLADE,z,,,,,,,,,,,,,,,,,,,,,,,,,,,,,,,,,,,,,,,,,,,,,,,,,,,,,
,,,,,,,,,,,,,,,,,198820,18,2022-01-30_01h45.22.523,lexical_decision_task_DD_L5,2021.2.3,MacIntel,60.0024001,,z,1,1.0508,,,,,,,,1.0508,1,0,2,2,9,1,1001,FARINY,z,,,,,,,,,,,,,,,,,,,,,,,,,,,,,,,,,,,,,,,,,,,,,,,,,,,,,
,,,,,,,,,,,,,,,,,198820,18,2022-01-30_01h45.22.523,lexical_decision_task_DD_L5,2021.2.3,MacIntel,60.0024001,,m,1,0.7597,,,,,,,,0.7597,1,0,3,3,1,1,1001,ADJUST,m,,,,,,,,,,,,,,,,,,,,,,,,,,,,,,,,,,,,,,,,,,,,,,,,,,,,,
,,,,,,,,,,,,,,,,,198820,18,2022-01-30_01h45.22.523,lexical_decision_task_DD_L5,2021.2.3,MacIntel,60.0024001,,z,1,0.8528,,,,,,,,0.8528,1,0,4,4,11,1,1001,RASHET,z,,,,,,,,,,,,,,,,,,,,,,,,,,,,,,,,,,,,,,,,,,,,,,,,,,,,,
,,,,,,,,,,,,,,,,,198820,18,2022-01-30_01h45.22.523,lexical_decision_task_DD_L5,2021.2.3,MacIntel,60.0024001,,z,1,0.8432,,,,,,,,0.8432,1,0,5,5,15,1,1001,WHAISE,z,,,,,,,,,,,,,,,,,,,,,,,,,,,,,,,,,,,,,,,,,,,,,,,,,,,,,
,,,,,,,,,,,,,,,,,198820,18,2022-01-30_01h45.22.523,lexical_decision_task_DD_L5,2021.2.3,MacIntel,60.0024001,,z,0,0.7222,,,,,,,,0.7222,0,0,6,6,0,1,1001,UTOPIA,m,,,,,,,,,,,,,,,,,,,,,,,,,,,,,,,,,,,,,,,,,,,,,,,,,,,,,
,,,,,,,,,,,,,,,,,198820,18,2022-01-30_01h45.22.523,lexical_decision_task_DD_L5,2021.2.3,MacIntel,60.0024001,,m,1,0.5641,,,,,,,,0.5641,1,0,7,7,5,1,1001,OBTAIN,m,,,,,,,,,,,,,,,,,,,,,,,,,,,,,,,,,,,,,,,,,,,,,,,,,,,,,
,,,,,,,,,,,,,,,,,198820,18,2022-01-30_01h45.22.523,lexical_decision_task_DD_L5,2021.2.3,MacIntel,60.0024001,,z,1,0.7797,,,,,,,,0.7797,1,0,8,8,14,1,1001,THRALE,z,,,,,,,,,,,,,,,,,,,,,,,,,,,,,,,,,,,,,,,,,,,,,,,,,,,,,
,,,,,,,,,,,,,,,,,198820,18,2022-01-30_01h45.22.523,lexical_decision_task_DD_L5,2021.2.3,MacIntel,60.0024001,,m,1,0.7165,,,,,,,,0.7165,1,0,9,9,3,1,1001,MATRIX,m,,,,,,,,,,,,,,,,,,,,,,,,,,,,,,,,,,,,,,,,,,,,,,,,,,,,,
,,,,,,,,,,,,,,,,,198820,18,2022-01-30_01h45.22.523,lexical_decision_task_DD_L5,2021.2.3,MacIntel,60.0024001,,m,1,0.9879,,,,,,,,0.9879,1,0,10,10,2,1,1001,ALMOND,m,,,,,,,,,,,,,,,,,,,,,,,,,,,,,,,,,,,,,,,,,,,,,,,,,,,,,
,,,,,,,,,,,,,,,,,198820,18,2022-01-30_01h45.22.523,lexical_decision_task_DD_L5,2021.2.3,MacIntel,60.0024001,,m,1,0.6368,,,,,,,,0.6368,1,0,11,11,4,1,1001,SQUEAK,m,,,,,,,,,,,,,,,,,,,,,,,,,,,,,,,,,,,,,,,,,,,,,,,,,,,,,
,,,,,,,,,,,,,,,,,198820,18,2022-01-30_01h45.22.523,lexical_decision_task_DD_L5,2021.2.3,MacIntel,60.0024001,,z,1,0.9417,,,,,,,,0.9417,1,0,12,12,12,1,1001,SPRINY,z,,,,,,,,,,,,,,,,,,,,,,,,,,,,,,,,,,,,,,,,,,,,,,,,,,,,,
,,,,,,,,,,,,,,,,,198820,18,2022-01-30_01h45.22.523,lexical_decision_task_DD_L5,2021.2.3,MacIntel,60.0024001,,z,1,0.7732,,,,,,,,0.7732,1,0,13,13,8,1,1001,ASLERT,z,,,,,,,,,,,,,,,,,,,,,,,,,,,,,,,,,,,,,,,,,,,,,,,,,,,,,
,,,,,,,,,,,,,,,,,198820,18,2022-01-30_01h45.22.523,lexical_decision_task_DD_L5,2021.2.3,MacIntel,60.0024001,,z,1,0.805,,,,,,,,0.805,1,0,14,14,13,1,1001,ROUPET,z,,,,,,,,,,,,,,,,,,,,,,,,,,,,,,,,,,,,,,,,,,,,,,,,,,,,,
,,,,,,,,,,,,,,,,,198820,18,2022-01-30_01h45.22.523,lexical_decision_task_DD_L5,2021.2.3,MacIntel,60.0024001,,m,1,0.652,,,,,,,,0.652,1,0,15,15,6,1,1001,ZOMBIE,m,,,,,,,,,,,,,,,,,,,,,,,,,,,,,,,,,,,,,,,,,,,,,,,,,,,,,
space,-0.064249132,-0.075564236,0,0,0,,,,,,,1,end_of_practice,"You have completed the practice trials. During the experimental trials, you will not receive feedback. 
Before you begin, please ensure that you are in a comfortable and quiet location and will not be disturbed for about 15 minutes, as we cannot use your data if you do not complete all the trials. 
 When you are ready to start the experimental trials, please press space or touch the button below.",,,198820,18,2022-01-30_01h45.22.523,lexical_decision_task_DD_L5,2021.2.3,MacIntel,60.0024001,11.9548,,,,,,,,,,,,,,,,,,,,,0,0,0,0,1,,,,,,,,,,,,,,,,,,,,,,,,,,,,,,,,,,,,,,,,,,,,,,,,
,,,,,,,,,,,,,,,,,198820,18,2022-01-30_01h45.22.523,lexical_decision_task_DD_L5,2021.2.3,MacIntel,60.0024001,,,,,,,,,,,,1.083,1,,,,,,,,,,,,,,m,1,1.083,,,,,,,,-0.064249132,-0.075564236,0,0,0,,0,0,0,28,1,CASINO,LB,old,m,./images/CASINOLB.png,,,,,,,,,,,,,,,,,,,,,,
,,,,,,,,,,,,,,,,,198820,18,2022-01-30_01h45.22.523,lexical_decision_task_DD_L5,2021.2.3,MacIntel,60.0024001,,,,,,,,,,,,0.8975,1,,,,,,,,,,,,,,z,1,0.8975,,,,,,,,-0.064249132,-0.075564236,0,0,0,,0,1,1,149,1,VEASE,LB,old,z,./images/VEASELB.png,,,,,,,,,,,,,,,,,,,,,,
,,,,,,,,,,,,,,,,,198820,18,2022-01-30_01h45.22.523,lexical_decision_task_DD_L5,2021.2.3,MacIntel,60.0024001,,,,,,,,,,,,0.8549,1,,,,,,,,,,,,,,z,1,0.8549,,,,,,,,-0.064249132,-0.075564236,0,0,0,,0,2,2,105,1,MOKER,C,old,z,./images/MOKER.png,,,,,,,,,,,,,,,,,,,,,,
,,,,,,,,,,,,,,,,,198820,18,2022-01-30_01h45.22.523,lexical_decision_task_DD_L5,2021.2.3,MacIntel,60.0024001,,,,,,,,,,,,1.3665,1,,,,,,,,,,,,,,z,1,1.3665,,,,,,,,-0.064249132,-0.075564236,0,0,0,,0,3,3,148,1,JOMS,HB,old,z,./images/JOMSHB.png,,,,,,,,,,,,,,,,,,,,,,
,,,,,,,,,,,,,,,,,198820,18,2022-01-30_01h45.22.523,lexical_decision_task_DD_L5,2021.2.3,MacIntel,60.0024001,,,,,,,,,,,,0.7656,1,,,,,,,,,,,,,,m,1,0.7656,,,,,,,,-0.064249132,-0.075564236,0,0,0,,0,4,4,69,1,ARROW,HB,old,m,./images/ARROWHB.png,,,,,,,,,,,,,,,,,,,,,,
,,,,,,,,,,,,,,,,,198820,18,2022-01-30_01h45.22.523,lexical_decision_task_DD_L5,2021.2.3,MacIntel,60.0024001,,,,,,,,,,,,0.9658,1,,,,,,,,,,,,,,z,1,0.9658,,,,,,,,-0.064249132,-0.075564236,0,0,0,,0,5,5,101,1,GLEET,LB,old,z,./images/GLEETLB.png,,,,,,,,,,,,,,,,,,,,,,
,,,,,,,,,,,,,,,,,198820,18,2022-01-30_01h45.22.523,lexical_decision_task_DD_L5,2021.2.3,MacIntel,60.0024001,,,,,,,,,,,,0.7484,1,,,,,,,,,,,,,,m,1,0.7484,,,,,,,,-0.064249132,-0.075564236,0,0,0,,0,6,6,38,1,ENGINE,C,old,m,./images/ENGINE.png,,,,,,,,,,,,,,,,,,,,,,
,,,,,,,,,,,,,,,,,198820,18,2022-01-30_01h45.22.523,lexical_decision_task_DD_L5,2021.2.3,MacIntel,60.0024001,,,,,,,,,,,,0.81,1,,,,,,,,,,,,,,m,1,0.81,,,,,,,,-0.064249132,-0.075564236,0,0,0,,0,7,7,83,1,WHISKY,C,old,m,./images/WHISKY.png,,,,,,,,,,,,,,,,,,,,,,
,,,,,,,,,,,,,,,,,198820,18,2022-01-30_01h45.22.523,lexical_decision_task_DD_L5,2021.2.3,MacIntel,60.0024001,,,,,,,,,,,,0.639,1,,,,,,,,,,,,,,z,1,0.639,,,,,,,,-0.064249132,-0.075564236,0,0,0,,0,8,8,86,1,AIFED,LB,old,z,./images/AIFEDLB.png,,,,,,,,,,,,,,,,,,,,,,
,,,,,,,,,,,,,,,,,198820,18,2022-01-30_01h45.22.523,lexical_decision_task_DD_L5,2021.2.3,MacIntel,60.0024001,,,,,,,,,,,,0.7483,1,,,,,,,,,,,,,,z,1,0.7483,,,,,,,,-0.064249132,-0.075564236,0,0,0,,0,9,9,122,1,BLOOT,LB,old,z,./images/BLOOTLB.png,,,,,,,,,,,,,,,,,,,,,,
,,,,,,,,,,,,,,,,,198820,18,2022-01-30_01h45.22.523,lexical_decision_task_DD_L5,2021.2.3,MacIntel,60.0024001,,,,,,,,,,,,0.8131,1,,,,,,,,,,,,,,m,1,0.8131,,,,,,,,-0.064249132,-0.075564236,0,0,0,,0,10,10,55,1,ALLEY,LB,old,m,./images/ALLEYLB.png,,,,,,,,,,,,,,,,,,,,,,
,,,,,,,,,,,,,,,,,198820,18,2022-01-30_01h45.22.523,lexical_decision_task_DD_L5,2021.2.3,MacIntel,60.0024001,,,,,,,,,,,,0.7459,1,,,,,,,,,,,,,,z,1,0.7459,,,,,,,,-0.064249132,-0.075564236,0,0,0,,0,11,11,129,1,PRANS,C,old,z,./images/PRANS.png,,,,,,,,,,,,,,,,,,,,,,
,,,,,,,,,,,,,,,,,198820,18,2022-01-30_01h45.22.523,lexical_decision_task_DD_L5,2021.2.3,MacIntel,60.0024001,,,,,,,,,,,,0.8605,1,,,,,,,,,,,,,,z,1,0.8605,,,,,,,,-0.064249132,-0.075564236,0,0,0,,0,12,12,157,1,INLER,HB,old,z,./images/INLERHB.png,,,,,,,,,,,,,,,,,,,,,,
,,,,,,,,,,,,,,,,,198820,18,2022-01-30_01h45.22.523,lexical_decision_task_DD_L5,2021.2.3,MacIntel,60.0024001,,,,,,,,,,,,0.8494,1,,,,,,,,,,,,,,m,1,0.8494,,,,,,,,-0.064249132,-0.075564236,0,0,0,,0,13,13,51,1,SAUCE,HB,old,m,./images/SAUCEHB.png,,,,,,,,,,,,,,,,,,,,,,
,,,,,,,,,,,,,,,,,198820,18,2022-01-30_01h45.22.523,lexical_decision_task_DD_L5,2021.2.3,MacIntel,60.0024001,,,,,,,,,,,,0.7274,1,,,,,,,,,,,,,,m,1,0.7274,,,,,,,,-0.064249132,-0.075564236,0,0,0,,0,14,14,29,1,PISTOL,C,old,m,./images/PISTOL.png,,,,,,,,,,,,,,,,,,,,,,
,,,,,,,,,,,,,,,,,198820,18,2022-01-30_01h45.22.523,lexical_decision_task_DD_L5,2021.2.3,MacIntel,60.0024001,,,,,,,,,,,,0.5818,1,,,,,,,,,,,,,,z,1,0.5818,,,,,,,,-0.064249132,-0.075564236,0,0,0,,0,15,15,167,1,ZONET,LB,old,z,./images/ZONETLB.png,,,,,,,,,,,,,,,,,,,,,,
,,,,,,,,,,,,,,,,,198820,18,2022-01-30_01h45.22.523,lexical_decision_task_DD_L5,2021.2.3,MacIntel,60.0024001,,,,,,,,,,,,0.6478,1,,,,,,,,,,,,,,m,1,0.6478,,,,,,,,-0.064249132,-0.075564236,0,0,0,,0,16,16,73,1,GLOVE,LB,old,m,./images/GLOVELB.png,,,,,,,,,,,,,,,,,,,,,,
,,,,,,,,,,,,,,,,,198820,18,2022-01-30_01h45.22.523,lexical_decision_task_DD_L5,2021.2.3,MacIntel,60.0024001,,,,,,,,,,,,0.6809,1,,,,,,,,,,,,,,z,1,0.6809,,,,,,,,-0.064249132,-0.075564236,0,0,0,,0,17,17,89,1,DRIEK,LB,old,z,./images/DRIEKLB.png,,,,,,,,,,,,,,,,,,,,,,
,,,,,,,,,,,,,,,,,198820,18,2022-01-30_01h45.22.523,lexical_decision_task_DD_L5,2021.2.3,MacIntel,60.0024001,,,,,,,,,,,,0.7825,1,,,,,,,,,,,,,,z,1,0.7825,,,,,,,,-0.064249132,-0.075564236,0,0,0,,0,18,18,154,1,THINT,HB,old,z,./images/THINTHB.png,,,,,,,,,,,,,,,,,,,,,,
,,,,,,,,,,,,,,,,,198820,18,2022-01-30_01h45.22.523,lexical_decision_task_DD_L5,2021.2.3,MacIntel,60.0024001,,,,,,,,,,,,0.6554,1,,,,,,,,,,,,,,m,1,0.6554,,,,,,,,-0.064249132,-0.075564236,0,0,0,,0,19,19,34,1,RAZOR,LB,old,m,./images/RAZORLB.png,,,,,,,,,,,,,,,,,,,,,,
,,,,,,,,,,,,,,,,,198820,18,2022-01-30_01h45.22.523,lexical_decision_task_DD_L5,2021.2.3,MacIntel,60.0024001,,,,,,,,,,,,0.7499,1,,,,,,,,,,,,,,z,1,0.7499,,,,,,,,-0.064249132,-0.075564236,0,0,0,,0,20,20,133,1,POWDY,HB,old,z,./images/POWDYHB.png,,,,,,,,,,,,,,,,,,,,,,
,,,,,,,,,,,,,,,,,198820,18,2022-01-30_01h45.22.523,lexical_decision_task_DD_L5,2021.2.3,MacIntel,60.0024001,,,,,,,,,,,,0.7162,1,,,,,,,,,,,,,,m,1,0.7162,,,,,,,,-0.064249132,-0.075564236,0,0,0,,0,21,21,81,1,DRILL,HB,old,m,./images/DRILLHB.png,,,,,,,,,,,,,,,,,,,,,,
,,,,,,,,,,,,,,,,,198820,18,2022-01-30_01h45.22.523,lexical_decision_task_DD_L5,2021.2.3,MacIntel,60.0024001,,,,,,,,,,,,0.6768,1,,,,,,,,,,,,,,m,1,0.6768,,,,,,,,-0.064249132,-0.075564236,0,0,0,,0,22,22,44,1,BASKET,C,old,m,./images/BASKET.png,,,,,,,,,,,,,,,,,,,,,,
,,,,,,,,,,,,,,,,,198820,18,2022-01-30_01h45.22.523,lexical_decision_task_DD_L5,2021.2.3,MacIntel,60.0024001,,,,,,,,,,,,0.7247,1,,,,,,,,,,,,,,z,1,0.7247,,,,,,,,-0.064249132,-0.075564236,0,0,0,,0,23,23,165,1,TROWN,C,old,z,./images/TROWN.png,,,,,,,,,,,,,,,,,,,,,,
,,,,,,,,,,,,,,,,,198820,18,2022-01-30_01h45.22.523,lexical_decision_task_DD_L5,2021.2.3,MacIntel,60.0024001,,,,,,,,,,,,0.5889,1,,,,,,,,,,,,,,m,1,0.5889,,,,,,,,-0.064249132,-0.075564236,0,0,0,,0,24,24,23,1,CLOTH,C,old,m,./images/CLOTH.png,,,,,,,,,,,,,,,,,,,,,,
,,,,,,,,,,,,,,,,,198820,18,2022-01-30_01h45.22.523,lexical_decision_task_DD_L5,2021.2.3,MacIntel,60.0024001,,,,,,,,,,,,0.6976,1,,,,,,,,,,,,,,m,1,0.6976,,,,,,,,-0.064249132,-0.075564236,0,0,0,,0,25,25,7,1,WAGON,LB,old,m,./images/WAGONLB.png,,,,,,,,,,,,,,,,,,,,,,
,,,,,,,,,,,,,,,,,198820,18,2022-01-30_01h45.22.523,lexical_decision_task_DD_L5,2021.2.3,MacIntel,60.0024001,,,,,,,,,,,,0.6982,1,,,,,,,,,,,,,,m,1,0.6982,,,,,,,,-0.064249132,-0.075564236,0,0,0,,0,26,26,43,1,STOOL,LB,old,m,./images/STOOLLB.png,,,,,,,,,,,,,,,,,,,,,,
,,,,,,,,,,,,,,,,,198820,18,2022-01-30_01h45.22.523,lexical_decision_task_DD_L5,2021.2.3,MacIntel,60.0024001,,,,,,,,,,,,0.5927,1,,,,,,,,,,,,,,z,1,0.5927,,,,,,,,-0.064249132,-0.075564236,0,0,0,,0,27,27,87,1,TRING,C,old,z,./images/TRING.png,,,,,,,,,,,,,,,,,,,,,,
,,,,,,,,,,,,,,,,,198820,18,2022-01-30_01h45.22.523,lexical_decision_task_DD_L5,2021.2.3,MacIntel,60.0024001,,,,,,,,,,,,0.5922,1,,,,,,,,,,,,,,z,1,0.5922,,,,,,,,-0.064249132,-0.075564236,0,0,0,,0,28,28,162,1,LEICH,C,old,z,./images/LEICH.png,,,,,,,,,,,,,,,,,,,,,,
,,,,,,,,,,,,,,,,,198820,18,2022-01-30_01h45.22.523,lexical_decision_task_DD_L5,2021.2.3,MacIntel,60.0024001,,,,,,,,,,,,0.6412,1,,,,,,,,,,,,,,m,1,0.6412,,,,,,,,-0.064249132,-0.075564236,0,0,0,,0,29,29,20,1,GRANNY,C,old,m,./images/GRANNY.png,,,,,,,,,,,,,,,,,,,,,,
,,,,,,,,,,,,,,,,,198820,18,2022-01-30_01h45.22.523,lexical_decision_task_DD_L5,2021.2.3,MacIntel,60.0024001,,,,,,,,,,,,0.7461,1,,,,,,,,,,,,,,m,1,0.7461,,,,,,,,-0.064249132,-0.075564236,0,0,0,,0,30,30,76,1,MIDGET,LB,old,m,./images/MIDGETLB.png,,,,,,,,,,,,,,,,,,,,,,
,,,,,,,,,,,,,,,,,198820,18,2022-01-30_01h45.22.523,lexical_decision_task_DD_L5,2021.2.3,MacIntel,60.0024001,,,,,,,,,,,,0.5927,1,,,,,,,,,,,,,,m,1,0.5927,,,,,,,,-0.064249132,-0.075564236,0,0,0,,0,31,31,32,1,HOCKEY,C,old,m,./images/HOCKEY.png,,,,,,,,,,,,,,,,,,,,,,
,,,,,,,,,,,,,,,,,198820,18,2022-01-30_01h45.22.523,lexical_decision_task_DD_L5,2021.2.3,MacIntel,60.0024001,,,,,,,,,,,,0.6495,1,,,,,,,,,,,,,,m,1,0.6495,,,,,,,,-0.064249132,-0.075564236,0,0,0,,0,32,32,22,1,CLOWN,LB,old,m,./images/CLOWNLB.png,,,,,,,,,,,,,,,,,,,,,,
,,,,,,,,,,,,,,,,,198820,18,2022-01-30_01h45.22.523,lexical_decision_task_DD_L5,2021.2.3,MacIntel,60.0024001,,,,,,,,,,,,0.6321,1,,,,,,,,,,,,,,z,1,0.6321,,,,,,,,-0.064249132,-0.075564236,0,0,0,,0,33,33,164,1,SGREW,LB,old,z,./images/SGREWLB.png,,,,,,,,,,,,,,,,,,,,,,
,,,,,,,,,,,,,,,,,198820,18,2022-01-30_01h45.22.523,lexical_decision_task_DD_L5,2021.2.3,MacIntel,60.0024001,,,,,,,,,,,,0.6038,1,,,,,,,,,,,,,,z,1,0.6038,,,,,,,,-0.064249132,-0.075564236,0,0,0,,0,34,34,138,1,PLICE,C,old,z,./images/PLICE.png,,,,,,,,,,,,,,,,,,,,,,
,,,,,,,,,,,,,,,,,198820,18,2022-01-30_01h45.22.523,lexical_decision_task_DD_L5,2021.2.3,MacIntel,60.0024001,,,,,,,,,,,,0.5749,1,,,,,,,,,,,,,,z,1,0.5749,,,,,,,,-0.064249132,-0.075564236,0,0,0,,0,35,35,104,1,GITTY,LB,old,z,./images/GITTYLB.png,,,,,,,,,,,,,,,,,,,,,,
,,,,,,,,,,,,,,,,,198820,18,2022-01-30_01h45.22.523,lexical_decision_task_DD_L5,2021.2.3,MacIntel,60.0024001,,,,,,,,,,,,0.9178,1,,,,,,,,,,,,,,z,1,0.9178,,,,,,,,-0.064249132,-0.075564236,0,0,0,,0,36,36,121,1,CEERS,HB,old,z,./images/CEERSHB.png,,,,,,,,,,,,,,,,,,,,,,
,,,,,,,,,,,,,,,,,198820,18,2022-01-30_01h45.22.523,lexical_decision_task_DD_L5,2021.2.3,MacIntel,60.0024001,,,,,,,,,,,,0.7231,1,,,,,,,,,,,,,,z,1,0.7231,,,,,,,,-0.064249132,-0.075564236,0,0,0,,0,37,37,114,1,RIKES,C,old,z,./images/RIKES.png,,,,,,,,,,,,,,,,,,,,,,
,,,,,,,,,,,,,,,,,198820,18,2022-01-30_01h45.22.523,lexical_decision_task_DD_L5,2021.2.3,MacIntel,60.0024001,,,,,,,,,,,,0.6479,1,,,,,,,,,,,,,,z,1,0.6479,,,,,,,,-0.064249132,-0.075564236,0,0,0,,0,38,38,116,1,BALGY,LB,old,z,./images/BALGYLB.png,,,,,,,,,,,,,,,,,,,,,,
,,,,,,,,,,,,,,,,,198820,18,2022-01-30_01h45.22.523,lexical_decision_task_DD_L5,2021.2.3,MacIntel,60.0024001,,,,,,,,,,,,1.0798,1,,,,,,,,,,,,,,z,1,1.0798,,,,,,,,-0.064249132,-0.075564236,0,0,0,,0,39,39,106,1,CLUMS,HB,old,z,./images/CLUMSHB.png,,,,,,,,,,,,,,,,,,,,,,
,,,,,,,,,,,,,,,,,198820,18,2022-01-30_01h45.22.523,lexical_decision_task_DD_L5,2021.2.3,MacIntel,60.0024001,,,,,,,,,,,,1.6218,1,,,,,,,,,,,,,,z,1,1.6218,,,,,,,,-0.064249132,-0.075564236,0,0,0,,0,40,40,84,1,HAXES,C,old,z,./images/HAXES.png,,,,,,,,,,,,,,,,,,,,,,
,,,,,,,,,,,,,,,,,198820,18,2022-01-30_01h45.22.523,lexical_decision_task_DD_L5,2021.2.3,MacIntel,60.0024001,,,,,,,,,,,,0.7373,0,,,,,,,,,,,,,,z,0,0.7373,,,,,,,,-0.146610243,-0.117261285,0,0,0,space,0,41,41,75,1,HAMMER,HB,old,m,./images/HAMMERHB.png,233.8073,,,,,,,,,,,,,,,,,,,,,
,,,,,,,,,,,,,,,,,198820,18,2022-01-30_01h45.22.523,lexical_decision_task_DD_L5,2021.2.3,MacIntel,60.0024001,,,,,,,,,,,,1.6039,1,,,,,,,,,,,,,,m,1,1.6039,,,,,,,,-0.146610243,-0.117261285,0,0,0,,0,42,42,63,1,BAKER,HB,old,m,./images/BAKERHB.png,,,,,,,,,,,,,,,,,,,,,,
,,,,,,,,,,,,,,,,,198820,18,2022-01-30_01h45.22.523,lexical_decision_task_DD_L5,2021.2.3,MacIntel,60.0024001,,,,,,,,,,,,0.6251,1,,,,,,,,,,,,,,z,1,0.6251,,,,,,,,-0.146610243,-0.117261285,0,0,0,,0,43,43,125,1,MOOKY,LB,old,z,./images/MOOKYLB.png,,,,,,,,,,,,,,,,,,,,,,
,,,,,,,,,,,,,,,,,198820,18,2022-01-30_01h45.22.523,lexical_decision_task_DD_L5,2021.2.3,MacIntel,60.0024001,,,,,,,,,,,,0.5993,1,,,,,,,,,,,,,,m,1,0.5993,,,,,,,,-0.146610243,-0.117261285,0,0,0,,0,44,44,19,1,DONKEY,LB,old,m,./images/DONKEYLB.png,,,,,,,,,,,,,,,,,,,,,,
,,,,,,,,,,,,,,,,,198820,18,2022-01-30_01h45.22.523,lexical_decision_task_DD_L5,2021.2.3,MacIntel,60.0024001,,,,,,,,,,,,0.8049,1,,,,,,,,,,,,,,m,1,0.8049,,,,,,,,-0.146610243,-0.117261285,0,0,0,,0,45,45,35,1,LLAMA,C,old,m,./images/LLAMA.png,,,,,,,,,,,,,,,,,,,,,,
,,,,,,,,,,,,,,,,,198820,18,2022-01-30_01h45.22.523,lexical_decision_task_DD_L5,2021.2.3,MacIntel,60.0024001,,,,,,,,,,,,0.596,1,,,,,,,,,,,,,,m,1,0.596,,,,,,,,-0.146610243,-0.117261285,0,0,0,,0,46,46,41,1,STREAM,C,old,m,./images/STREAM.png,,,,,,,,,,,,,,,,,,,,,,
,,,,,,,,,,,,,,,,,198820,18,2022-01-30_01h45.22.523,lexical_decision_task_DD_L5,2021.2.3,MacIntel,60.0024001,,,,,,,,,,,,0.617,1,,,,,,,,,,,,,,m,1,0.617,,,,,,,,-0.146610243,-0.117261285,0,0,0,,0,47,47,67,1,POKER,LB,old,m,./images/POKERLB.png,,,,,,,,,,,,,,,,,,,,,,
,,,,,,,,,,,,,,,,,198820,18,2022-01-30_01h45.22.523,lexical_decision_task_DD_L5,2021.2.3,MacIntel,60.0024001,,,,,,,,,,,,0.7161,1,,,,,,,,,,,,,,z,1,0.7161,,,,,,,,-0.146610243,-0.117261285,0,0,0,,0,48,48,118,1,BAVEL,HB,old,z,./images/BAVELHB.png,,,,,,,,,,,,,,,,,,,,,,
,,,,,,,,,,,,,,,,,198820,18,2022-01-30_01h45.22.523,lexical_decision_task_DD_L5,2021.2.3,MacIntel,60.0024001,,,,,,,,,,,,0.7318,1,,,,,,,,,,,,,,m,1,0.7318,,,,,,,,-0.146610243,-0.117261285,0,0,0,,0,49,49,25,1,CHALK,LB,old,m,./images/CHALKLB.png,,,,,,,,,,,,,,,,,,,,,,
,,,,,,,,,,,,,,,,,198820,18,2022-01-30_01h45.22.523,lexical_decision_task_DD_L5,2021.2.3,MacIntel,60.0024001,,,,,,,,,,,,0.6351,1,,,,,,,,,,,,,,m,1,0.6351,,,,,,,,-0.146610243,-0.117261285,0,0,0,,0,50,50,74,1,JUMPER,C,old,m,./images/JUMPER.png,,,,,,,,,,,,,,,,,,,,,,
,,,,,,,,,,,,,,,,,198820,18,2022-01-30_01h45.22.523,lexical_decision_task_DD_L5,2021.2.3,MacIntel,60.0024001,,,,,,,,,,,,0.6746,1,,,,,,,,,,,,,,m,1,0.6746,,,,,,,,-0.146610243,-0.117261285,0,0,0,,0,51,51,82,1,PEBBLE,LB,old,m,./images/PEBBLELB.png,,,,,,,,,,,,,,,,,,,,,,
,,,,,,,,,,,,,,,,,198820,18,2022-01-30_01h45.22.523,lexical_decision_task_DD_L5,2021.2.3,MacIntel,60.0024001,,,,,,,,,,,,1.298,1,,,,,,,,,,,,,,m,1,1.298,,,,,,,,-0.146610243,-0.117261285,0,0,0,,0,52,52,52,1,DESERT,LB,old,m,./images/DESERTLB.png,,,,,,,,,,,,,,,,,,,,,,
,,,,,,,,,,,,,,,,,198820,18,2022-01-30_01h45.22.523,lexical_decision_task_DD_L5,2021.2.3,MacIntel,60.0024001,,,,,,,,,,,,0.5813,1,,,,,,,,,,,,,,m,1,0.5813,,,,,,,,-0.146610243,-0.117261285,0,0,0,,0,53,53,31,1,STEAK,LB,old,m,./images/STEAKLB.png,,,,,,,,,,,,,,,,,,,,,,
,,,,,,,,,,,,,,,,,198820,18,2022-01-30_01h45.22.523,lexical_decision_task_DD_L5,2021.2.3,MacIntel,60.0024001,,,,,,,,,,,,0.7213,1,,,,,,,,,,,,,,z,1,0.7213,,,,,,,,-0.146610243,-0.117261285,0,0,0,,0,54,54,150,1,NOOLS,C,old,z,./images/NOOLS.png,,,,,,,,,,,,,,,,,,,,,,
,,,,,,,,,,,,,,,,,198820,18,2022-01-30_01h45.22.523,lexical_decision_task_DD_L5,2021.2.3,MacIntel,60.0024001,,,,,,,,,,,,0.7396,1,,,,,,,,,,,,,,m,1,0.7396,,,,,,,,-0.146610243,-0.117261285,0,0,0,,0,55,55,70,1,BANANA,LB,old,m,./images/BANANALB.png,,,,,,,,,,,,,,,,,,,,,,
,,,,,,,,,,,,,,,,,198820,18,2022-01-30_01h45.22.523,lexical_decision_task_DD_L5,2021.2.3,MacIntel,60.0024001,,,,,,,,,,,,0.5554,1,,,,,,,,,,,,,,m,1,0.5554,,,,,,,,-0.146610243,-0.117261285,0,0,0,,0,56,56,77,1,WHEEL,C,old,m,./images/WHEEL.png,,,,,,,,,,,,,,,,,,,,,,
,,,,,,,,,,,,,,,,,198820,18,2022-01-30_01h45.22.523,lexical_decision_task_DD_L5,2021.2.3,MacIntel,60.0024001,,,,,,,,,,,,0.7171,1,,,,,,,,,,,,,,z,1,0.7171,,,,,,,,-0.146610243,-0.117261285,0,0,0,,0,57,57,131,1,NACES,LB,old,z,./images/NACESLB.png,,,,,,,,,,,,,,,,,,,,,,
,,,,,,,,,,,,,,,,,198820,18,2022-01-30_01h45.22.523,lexical_decision_task_DD_L5,2021.2.3,MacIntel,60.0024001,,,,,,,,,,,,0.6345,1,,,,,,,,,,,,,,m,1,0.6345,,,,,,,,-0.146610243,-0.117261285,0,0,0,,0,58,58,64,1,BRIDE,LB,old,m,./images/BRIDELB.png,,,,,,,,,,,,,,,,,,,,,,
,,,,,,,,,,,,,,,,,198820,18,2022-01-30_01h45.22.523,lexical_decision_task_DD_L5,2021.2.3,MacIntel,60.0024001,,,,,,,,,,,,0.771,1,,,,,,,,,,,,,,m,1,0.771,,,,,,,,-0.146610243,-0.117261285,0,0,0,,0,59,59,47,1,LAGOON,C,old,m,./images/LAGOON.png,,,,,,,,,,,,,,,,,,,,,,
,,,,,,,,,,,,,,,,,198820,18,2022-01-30_01h45.22.523,lexical_decision_task_DD_L5,2021.2.3,MacIntel,60.0024001,,,,,,,,,,,,0.6211,1,,,,,,,,,,,,,,m,1,0.6211,,,,,,,,-0.146610243,-0.117261285,0,0,0,,0,60,60,80,1,PLANET,C,old,m,./images/PLANET.png,,,,,,,,,,,,,,,,,,,,,,
,,,,,,,,,,,,,,,,,198820,18,2022-01-30_01h45.22.523,lexical_decision_task_DD_L5,2021.2.3,MacIntel,60.0024001,,,,,,,,,,,,0.5819,1,,,,,,,,,,,,,,m,1,0.5819,,,,,,,,-0.146610243,-0.117261285,0,0,0,,0,61,61,79,1,RULER,LB,old,m,./images/RULERLB.png,,,,,,,,,,,,,,,,,,,,,,
,,,,,,,,,,,,,,,,,198820,18,2022-01-30_01h45.22.523,lexical_decision_task_DD_L5,2021.2.3,MacIntel,60.0024001,,,,,,,,,,,,0.5355,1,,,,,,,,,,,,,,m,1,0.5355,,,,,,,,-0.146610243,-0.117261285,0,0,0,,0,62,62,2,1,STOVE,C,old,m,./images/STOVE.png,,,,,,,,,,,,,,,,,,,,,,
,,,,,,,,,,,,,,,,,198820,18,2022-01-30_01h45.22.523,lexical_decision_task_DD_L5,2021.2.3,MacIntel,60.0024001,,,,,,,,,,,,1.032,1,,,,,,,,,,,,,,m,1,1.032,,,,,,,,-0.146610243,-0.117261285,0,0,0,,0,63,63,53,1,POSTER,C,old,m,./images/POSTER.png,,,,,,,,,,,,,,,,,,,,,,
,,,,,,,,,,,,,,,,,198820,18,2022-01-30_01h45.22.523,lexical_decision_task_DD_L5,2021.2.3,MacIntel,60.0024001,,,,,,,,,,,,0.8535,1,,,,,,,,,,,,,,m,1,0.8535,,,,,,,,-0.146610243,-0.117261285,0,0,0,,0,64,64,49,1,BISHOP,LB,old,m,./images/BISHOPLB.png,,,,,,,,,,,,,,,,,,,,,,
,,,,,,,,,,,,,,,,,198820,18,2022-01-30_01h45.22.523,lexical_decision_task_DD_L5,2021.2.3,MacIntel,60.0024001,,,,,,,,,,,,0.8849,1,,,,,,,,,,,,,,z,1,0.8849,,,,,,,,-0.146610243,-0.117261285,0,0,0,,0,65,65,140,1,DOVET,LB,old,z,./images/DOVETLB.png,,,,,,,,,,,,,,,,,,,,,,
,,,,,,,,,,,,,,,,,198820,18,2022-01-30_01h45.22.523,lexical_decision_task_DD_L5,2021.2.3,MacIntel,60.0024001,,,,,,,,,,,,0.7864,1,,,,,,,,,,,,,,z,1,0.7864,,,,,,,,-0.146610243,-0.117261285,0,0,0,,0,66,66,153,1,CLUPS,C,old,z,./images/CLUPS.png,,,,,,,,,,,,,,,,,,,,,,
,,,,,,,,,,,,,,,,,198820,18,2022-01-30_01h45.22.523,lexical_decision_task_DD_L5,2021.2.3,MacIntel,60.0024001,,,,,,,,,,,,0.6704,1,,,,,,,,,,,,,,m,1,0.6704,,,,,,,,-0.146610243,-0.117261285,0,0,0,,0,67,67,4,1,BOXER,LB,old,m,./images/BOXERLB.png,,,,,,,,,,,,,,,,,,,,,,
,,,,,,,,,,,,,,,,,198820,18,2022-01-30_01h45.22.523,lexical_decision_task_DD_L5,2021.2.3,MacIntel,60.0024001,,,,,,,,,,,,0.5467,1,,,,,,,,,,,,,,m,1,0.5467,,,,,,,,-0.146610243,-0.117261285,0,0,0,,0,68,68,72,1,FLASK,HB,old,m,./images/FLASKHB.png,,,,,,,,,,,,,,,,,,,,,,
,,,,,,,,,,,,,,,,,198820,18,2022-01-30_01h45.22.523,lexical_decision_task_DD_L5,2021.2.3,MacIntel,60.0024001,,,,,,,,,,,,0.9164,0,,,,,,,,,,,,,,m,0,0.9164,,,,,,,,-0.146610243,-0.117261285,0,0,0,,0,69,69,142,1,PLASK,HB,old,z,./images/PLASKHB.png,,,,,,,,,,,,,,,,,,,,,,
,,,,,,,,,,,,,,,,,198820,18,2022-01-30_01h45.22.523,lexical_decision_task_DD_L5,2021.2.3,MacIntel,60.0024001,,,,,,,,,,,,0.7383,1,,,,,,,,,,,,,,z,1,0.7383,,,,,,,,-0.146610243,-0.117261285,0,0,0,,0,70,70,130,1,CRILL,HB,old,z,./images/CRILLHB.png,,,,,,,,,,,,,,,,,,,,,,
,,,,,,,,,,,,,,,,,198820,18,2022-01-30_01h45.22.523,lexical_decision_task_DD_L5,2021.2.3,MacIntel,60.0024001,,,,,,,,,,,,0.591,1,,,,,,,,,,,,,,m,1,0.591,,,,,,,,-0.146610243,-0.117261285,0,0,0,,0,71,71,68,1,VALLEY,C,old,m,./images/VALLEY.png,,,,,,,,,,,,,,,,,,,,,,
,,,,,,,,,,,,,,,,,198820,18,2022-01-30_01h45.22.523,lexical_decision_task_DD_L5,2021.2.3,MacIntel,60.0024001,,,,,,,,,,,,0.6197,1,,,,,,,,,,,,,,m,1,0.6197,,,,,,,,-0.146610243,-0.117261285,0,0,0,,0,72,72,8,1,CLIFF,C,old,m,./images/CLIFF.png,,,,,,,,,,,,,,,,,,,,,,
,,,,,,,,,,,,,,,,,198820,18,2022-01-30_01h45.22.523,lexical_decision_task_DD_L5,2021.2.3,MacIntel,60.0024001,,,,,,,,,,,,0.7048,1,,,,,,,,,,,,,,z,1,0.7048,,,,,,,,-0.146610243,-0.117261285,0,0,0,,0,73,73,132,1,SCIFF,C,old,z,./images/SCIFF.png,,,,,,,,,,,,,,,,,,,,,,
,,,,,,,,,,,,,,,,,198820,18,2022-01-30_01h45.22.523,lexical_decision_task_DD_L5,2021.2.3,MacIntel,60.0024001,,,,,,,,,,,,0.587,1,,,,,,,,,,,,,,m,1,0.587,,,,,,,,-0.146610243,-0.117261285,0,0,0,,0,74,74,26,1,CLOUD,C,old,m,./images/CLOUD.png,,,,,,,,,,,,,,,,,,,,,,
,,,,,,,,,,,,,,,,,198820,18,2022-01-30_01h45.22.523,lexical_decision_task_DD_L5,2021.2.3,MacIntel,60.0024001,,,,,,,,,,,,0.8674,1,,,,,,,,,,,,,,z,1,0.8674,,,,,,,,-0.146610243,-0.117261285,0,0,0,,0,75,75,115,1,MAWNS,HB,old,z,./images/MAWNSHB.png,,,,,,,,,,,,,,,,,,,,,,
,,,,,,,,,,,,,,,,,198820,18,2022-01-30_01h45.22.523,lexical_decision_task_DD_L5,2021.2.3,MacIntel,60.0024001,,,,,,,,,,,,0.695,1,,,,,,,,,,,,,,z,1,0.695,,,,,,,,-0.146610243,-0.117261285,0,0,0,,0,76,76,137,1,JOOST,LB,old,z,./images/JOOSTLB.png,,,,,,,,,,,,,,,,,,,,,,
,,,,,,,,,,,,,,,,,198820,18,2022-01-30_01h45.22.523,lexical_decision_task_DD_L5,2021.2.3,MacIntel,60.0024001,,,,,,,,,,,,0.6934,1,,,,,,,,,,,,,,m,1,0.6934,,,,,,,,-0.146610243,-0.117261285,0,0,0,,0,77,77,17,1,PARADE,C,old,m,./images/PARADE.png,,,,,,,,,,,,,,,,,,,,,,
,,,,,,,,,,,,,,,,,198820,18,2022-01-30_01h45.22.523,lexical_decision_task_DD_L5,2021.2.3,MacIntel,60.0024001,,,,,,,,,,,,0.7409,1,,,,,,,,,,,,,,z,1,0.7409,,,,,,,,-0.146610243,-0.117261285,0,0,0,,0,78,78,161,1,BLAPS,LB,old,z,./images/BLAPSLB.png,,,,,,,,,,,,,,,,,,,,,,
,,,,,,,,,,,,,,,,,198820,18,2022-01-30_01h45.22.523,lexical_decision_task_DD_L5,2021.2.3,MacIntel,60.0024001,,,,,,,,,,,,0.6661,0,,,,,,,,,,,,,,z,0,0.6661,,,,,,,,-0.146610243,-0.117261285,0,0,0,,0,79,79,12,1,BLOKE,HB,old,m,./images/BLOKEHB.png,,,,,,,,,,,,,,,,,,,,,,
,,,,,,,,,,,,,,,,,198820,18,2022-01-30_01h45.22.523,lexical_decision_task_DD_L5,2021.2.3,MacIntel,60.0024001,,,,,,,,,,,,0.5905,1,,,,,,,,,,,,,,m,1,0.5905,,,,,,,,-0.146610243,-0.117261285,0,0,0,,0,80,80,59,1,BRUSH,C,old,m,./images/BRUSH.png,,,,,,,,,,,,,,,,,,,,,,
,,,,,,,,,,,,,,,,,198820,18,2022-01-30_01h45.22.523,lexical_decision_task_DD_L5,2021.2.3,MacIntel,60.0024001,,,,,,,,,,,,0.7111,1,,,,,,,,,,,,,,z,1,0.7111,,,,,,,,-0.146610243,-0.117261285,0,0,0,,0,81,81,103,1,FLORT,HB,old,z,./images/FLORTHB.png,,,,,,,,,,,,,,,,,,,,,,
,,,,,,,,,,,,,,,,,198820,18,2022-01-30_01h45.22.523,lexical_decision_task_DD_L5,2021.2.3,MacIntel,60.0024001,,,,,,,,,,,,1.2385,1,,,,,,,,,,,,,,m,1,1.2385,,,,,,,,-0.146610243,-0.117261285,0,0,0,,0,82,82,9,1,DIVER,HB,old,m,./images/DIVERHB.png,,,,,,,,,,,,,,,,,,,,,,
,,,,,,,,,,,,,,,,,198820,18,2022-01-30_01h45.22.523,lexical_decision_task_DD_L5,2021.2.3,MacIntel,60.0024001,,,,,,,,,,,,1.1676,1,,,,,,,,,,,,,,z,1,1.1676,,,,,,,,-0.146610243,-0.117261285,0,0,0,space,0,83,83,91,1,SHENS,HB,old,z,./images/SHENSHB.png,224.53,,,,,,,,,,,,,,,,,,,,,
,,,,,,,,,,,,,,,,,198820,18,2022-01-30_01h45.22.523,lexical_decision_task_DD_L5,2021.2.3,MacIntel,60.0024001,,,,,,,,,,,,0.6486,1,,,,,,,,,,,,,,m,1,0.6486,,,,,,,,-0.146610243,-0.117261285,0,0,0,,0,84,84,45,1,MONKEY,HB,old,m,./images/MONKEYHB.png,,,,,,,,,,,,,,,,,,,,,,
,,,,,,,,,,,,,,,,,198820,18,2022-01-30_01h45.22.523,lexical_decision_task_DD_L5,2021.2.3,MacIntel,60.0024001,,,,,,,,,,,,0.9667,1,,,,,,,,,,,,,,z,1,0.9667,,,,,,,,-0.146610243,-0.117261285,0,0,0,,0,85,85,128,1,GRIFT,LB,old,z,./images/GRIFTLB.png,,,,,,,,,,,,,,,,,,,,,,
,,,,,,,,,,,,,,,,,198820,18,2022-01-30_01h45.22.523,lexical_decision_task_DD_L5,2021.2.3,MacIntel,60.0024001,,,,,,,,,,,,0.5653,1,,,,,,,,,,,,,,m,1,0.5653,,,,,,,,-0.146610243,-0.117261285,0,0,0,,0,86,86,40,1,SNAKE,LB,old,m,./images/SNAKELB.png,,,,,,,,,,,,,,,,,,,,,,
,,,,,,,,,,,,,,,,,198820,18,2022-01-30_01h45.22.523,lexical_decision_task_DD_L5,2021.2.3,MacIntel,60.0024001,,,,,,,,,,,,0.7998,0,,,,,,,,,,,,,,z,0,0.7998,,,,,,,,-0.146610243,-0.117261285,0,0,0,,0,87,87,18,1,PARCEL,HB,old,m,./images/PARCELHB.png,,,,,,,,,,,,,,,,,,,,,,
,,,,,,,,,,,,,,,,,198820,18,2022-01-30_01h45.22.523,lexical_decision_task_DD_L5,2021.2.3,MacIntel,60.0024001,,,,,,,,,,,,0.589,1,,,,,,,,,,,,,,m,1,0.589,,,,,,,,-0.146610243,-0.117261285,0,0,0,,0,88,88,71,1,BUBBLE,C,old,m,./images/BUBBLE.png,,,,,,,,,,,,,,,,,,,,,,
,,,,,,,,,,,,,,,,,198820,18,2022-01-30_01h45.22.523,lexical_decision_task_DD_L5,2021.2.3,MacIntel,60.0024001,,,,,,,,,,,,0.7542,1,,,,,,,,,,,,,,z,1,0.7542,,,,,,,,-0.146610243,-0.117261285,0,0,0,,0,89,89,123,1,SEDGE,C,old,z,./images/SEDGE.png,,,,,,,,,,,,,,,,,,,,,,
,,,,,,,,,,,,,,,,,198820,18,2022-01-30_01h45.22.523,lexical_decision_task_DD_L5,2021.2.3,MacIntel,60.0024001,,,,,,,,,,,,0.5785,1,,,,,,,,,,,,,,m,1,0.5785,,,,,,,,-0.146610243,-0.117261285,0,0,0,,0,90,90,46,1,MUMMY,LB,old,m,./images/MUMMYLB.png,,,,,,,,,,,,,,,,,,,,,,
,,,,,,,,,,,,,,,,,198820,18,2022-01-30_01h45.22.523,lexical_decision_task_DD_L5,2021.2.3,MacIntel,60.0024001,,,,,,,,,,,,0.6607,1,,,,,,,,,,,,,,z,1,0.6607,,,,,,,,-0.146610243,-0.117261285,0,0,0,,0,91,91,141,1,PLEET,C,old,z,./images/PLEET.png,,,,,,,,,,,,,,,,,,,,,,
,,,,,,,,,,,,,,,,,198820,18,2022-01-30_01h45.22.523,lexical_decision_task_DD_L5,2021.2.3,MacIntel,60.0024001,,,,,,,,,,,,0.9586,1,,,,,,,,,,,,,,m,1,0.9586,,,,,,,,-0.146610243,-0.117261285,0,0,0,,0,92,92,33,1,SAUNA,HB,old,m,./images/SAUNAHB.png,,,,,,,,,,,,,,,,,,,,,,
,,,,,,,,,,,,,,,,,198820,18,2022-01-30_01h45.22.523,lexical_decision_task_DD_L5,2021.2.3,MacIntel,60.0024001,,,,,,,,,,,,1.8309,1,,,,,,,,,,,,,,m,1,1.8309,,,,,,,,-0.146610243,-0.117261285,0,0,0,,0,93,93,48,1,SHIELD,HB,old,m,./images/SHIELDHB.png,,,,,,,,,,,,,,,,,,,,,,
,,,,,,,,,,,,,,,,,198820,18,2022-01-30_01h45.22.523,lexical_decision_task_DD_L5,2021.2.3,MacIntel,60.0024001,,,,,,,,,,,,0.8455,1,,,,,,,,,,,,,,z,1,0.8455,,,,,,,,-0.146610243,-0.117261285,0,0,0,,0,94,94,139,1,BLEAR,HB,old,z,./images/BLEARHB.png,,,,,,,,,,,,,,,,,,,,,,
,,,,,,,,,,,,,,,,,198820,18,2022-01-30_01h45.22.523,lexical_decision_task_DD_L5,2021.2.3,MacIntel,60.0024001,,,,,,,,,,,,0.7221,1,,,,,,,,,,,,,,m,1,0.7221,,,,,,,,-0.146610243,-0.117261285,0,0,0,,0,95,95,54,1,CHERRY,HB,old,m,./images/CHERRYHB.png,,,,,,,,,,,,,,,,,,,,,,
,,,,,,,,,,,,,,,,,198820,18,2022-01-30_01h45.22.523,lexical_decision_task_DD_L5,2021.2.3,MacIntel,60.0024001,,,,,,,,,,,,0.8972,1,,,,,,,,,,,,,,z,1,0.8972,,,,,,,,-0.146610243,-0.117261285,0,0,0,,0,96,96,151,1,TINKY,HB,old,z,./images/TINKYHB.png,,,,,,,,,,,,,,,,,,,,,,
,,,,,,,,,,,,,,,,,198820,18,2022-01-30_01h45.22.523,lexical_decision_task_DD_L5,2021.2.3,MacIntel,60.0024001,,,,,,,,,,,,0.697,1,,,,,,,,,,,,,,z,1,0.697,,,,,,,,-0.146610243,-0.117261285,0,0,0,,0,97,97,108,1,GRUET,C,old,z,./images/GRUET.png,,,,,,,,,,,,,,,,,,,,,,
,,,,,,,,,,,,,,,,,198820,18,2022-01-30_01h45.22.523,lexical_decision_task_DD_L5,2021.2.3,MacIntel,60.0024001,,,,,,,,,,,,0.5411,1,,,,,,,,,,,,,,z,1,0.5411,,,,,,,,-0.146610243,-0.117261285,0,0,0,,0,98,98,90,1,NEAST,C,old,z,./images/NEAST.png,,,,,,,,,,,,,,,,,,,,,,
,,,,,,,,,,,,,,,,,198820,18,2022-01-30_01h45.22.523,lexical_decision_task_DD_L5,2021.2.3,MacIntel,60.0024001,,,,,,,,,,,,0.7698,1,,,,,,,,,,,,,,z,1,0.7698,,,,,,,,-0.146610243,-0.117261285,0,0,0,,0,99,99,110,1,CRUNK,LB,old,z,./images/CRUNKLB.png,,,,,,,,,,,,,,,,,,,,,,
,,,,,,,,,,,,,,,,,198820,18,2022-01-30_01h45.22.523,lexical_decision_task_DD_L5,2021.2.3,MacIntel,60.0024001,,,,,,,,,,,,0.8732,1,,,,,,,,,,,,,,z,1,0.8732,,,,,,,,-0.146610243,-0.117261285,0,0,0,,0,100,100,94,1,BLANS,HB,old,z,./images/BLANSHB.png,,,,,,,,,,,,,,,,,,,,,,
,,,,,,,,,,,,,,,,,198820,18,2022-01-30_01h45.22.523,lexical_decision_task_DD_L5,2021.2.3,MacIntel,60.0024001,,,,,,,,,,,,0.5652,1,,,,,,,,,,,,,,z,1,0.5652,,,,,,,,-0.146610243,-0.117261285,0,0,0,,0,101,101,155,1,CANGY,LB,old,z,./images/CANGYLB.png,,,,,,,,,,,,,,,,,,,,,,
,,,,,,,,,,,,,,,,,198820,18,2022-01-30_01h45.22.523,lexical_decision_task_DD_L5,2021.2.3,MacIntel,60.0024001,,,,,,,,,,,,1.2408,1,,,,,,,,,,,,,,m,1,1.2408,,,,,,,,-0.146610243,-0.117261285,0,0,0,,0,102,102,42,1,CHAIN,HB,old,m,./images/CHAINHB.png,,,,,,,,,,,,,,,,,,,,,,
,,,,,,,,,,,,,,,,,198820,18,2022-01-30_01h45.22.523,lexical_decision_task_DD_L5,2021.2.3,MacIntel,60.0024001,,,,,,,,,,,,0.5558,1,,,,,,,,,,,,,,m,1,0.5558,,,,,,,,-0.146610243,-0.117261285,0,0,0,,0,103,103,10,1,GARDEN,LB,old,m,./images/GARDENLB.png,,,,,,,,,,,,,,,,,,,,,,
,,,,,,,,,,,,,,,,,198820,18,2022-01-30_01h45.22.523,lexical_decision_task_DD_L5,2021.2.3,MacIntel,60.0024001,,,,,,,,,,,,0.6822,0,,,,,,,,,,,,,,z,0,0.6822,,,,,,,,-0.146610243,-0.117261285,0,0,0,,0,104,104,24,1,FLESH,HB,old,m,./images/FLESHHB.png,,,,,,,,,,,,,,,,,,,,,,
,,,,,,,,,,,,,,,,,198820,18,2022-01-30_01h45.22.523,lexical_decision_task_DD_L5,2021.2.3,MacIntel,60.0024001,,,,,,,,,,,,0.8573,0,,,,,,,,,,,,,,z,0,0.8573,,,,,,,,-0.146610243,-0.117261285,0,0,0,,0,105,105,62,1,MAMMAL,C,old,m,./images/MAMMAL.png,,,,,,,,,,,,,,,,,,,,,,
,,,,,,,,,,,,,,,,,198820,18,2022-01-30_01h45.22.523,lexical_decision_task_DD_L5,2021.2.3,MacIntel,60.0024001,,,,,,,,,,,,0.6545,1,,,,,,,,,,,,,,m,1,0.6545,,,,,,,,-0.146610243,-0.117261285,0,0,0,,0,106,106,14,1,FENCE,C,old,m,./images/FENCE.png,,,,,,,,,,,,,,,,,,,,,,
,,,,,,,,,,,,,,,,,198820,18,2022-01-30_01h45.22.523,lexical_decision_task_DD_L5,2021.2.3,MacIntel,60.0024001,,,,,,,,,,,,0.6819,1,,,,,,,,,,,,,,z,1,0.6819,,,,,,,,-0.146610243,-0.117261285,0,0,0,,0,107,107,126,1,GUELS,C,old,z,./images/GUELS.png,,,,,,,,,,,,,,,,,,,,,,
,,,,,,,,,,,,,,,,,198820,18,2022-01-30_01h45.22.523,lexical_decision_task_DD_L5,2021.2.3,MacIntel,60.0024001,,,,,,,,,,,,1.0481,1,,,,,,,,,,,,,,z,1,1.0481,,,,,,,,-0.146610243,-0.117261285,0,0,0,,0,108,108,99,1,BACKY,C,old,z,./images/BACKY.png,,,,,,,,,,,,,,,,,,,,,,
,,,,,,,,,,,,,,,,,198820,18,2022-01-30_01h45.22.523,lexical_decision_task_DD_L5,2021.2.3,MacIntel,60.0024001,,,,,,,,,,,,0.664,1,,,,,,,,,,,,,,m,1,0.664,,,,,,,,-0.146610243,-0.117261285,0,0,0,,0,109,109,11,1,MEDAL,C,old,m,./images/MEDAL.png,,,,,,,,,,,,,,,,,,,,,,
,,,,,,,,,,,,,,,,,198820,18,2022-01-30_01h45.22.523,lexical_decision_task_DD_L5,2021.2.3,MacIntel,60.0024001,,,,,,,,,,,,0.9913,1,,,,,,,,,,,,,,m,1,0.9913,,,,,,,,-0.146610243,-0.117261285,0,0,0,,0,110,110,66,1,STATUE,HB,old,m,./images/STATUEHB.png,,,,,,,,,,,,,,,,,,,,,,
,,,,,,,,,,,,,,,,,198820,18,2022-01-30_01h45.22.523,lexical_decision_task_DD_L5,2021.2.3,MacIntel,60.0024001,,,,,,,,,,,,0.6648,1,,,,,,,,,,,,,,z,1,0.6648,,,,,,,,-0.146610243,-0.117261285,0,0,0,,0,111,111,158,1,EGECT,LB,old,z,./images/EGECTLB.png,,,,,,,,,,,,,,,,,,,,,,
,,,,,,,,,,,,,,,,,198820,18,2022-01-30_01h45.22.523,lexical_decision_task_DD_L5,2021.2.3,MacIntel,60.0024001,,,,,,,,,,,,0.6662,1,,,,,,,,,,,,,,m,1,0.6662,,,,,,,,-0.146610243,-0.117261285,0,0,0,,0,112,112,16,1,GRAPE,LB,old,m,./images/GRAPELB.png,,,,,,,,,,,,,,,,,,,,,,
,,,,,,,,,,,,,,,,,198820,18,2022-01-30_01h45.22.523,lexical_decision_task_DD_L5,2021.2.3,MacIntel,60.0024001,,,,,,,,,,,,0.6993,1,,,,,,,,,,,,,,z,1,0.6993,,,,,,,,-0.146610243,-0.117261285,0,0,0,,0,113,113,119,1,PAFER,LB,old,z,./images/PAFERLB.png,,,,,,,,,,,,,,,,,,,,,,
,,,,,,,,,,,,,,,,,198820,18,2022-01-30_01h45.22.523,lexical_decision_task_DD_L5,2021.2.3,MacIntel,60.0024001,,,,,,,,,,,,0.6839,1,,,,,,,,,,,,,,z,1,0.6839,,,,,,,,-0.146610243,-0.117261285,0,0,0,,0,114,114,152,1,FRAIN,LB,old,z,./images/FRAINLB.png,,,,,,,,,,,,,,,,,,,,,,
,,,,,,,,,,,,,,,,,198820,18,2022-01-30_01h45.22.523,lexical_decision_task_DD_L5,2021.2.3,MacIntel,60.0024001,,,,,,,,,,,,0.6798,1,,,,,,,,,,,,,,z,1,0.6798,,,,,,,,-0.146610243,-0.117261285,0,0,0,,0,115,115,156,1,HIXES,C,old,z,./images/HIXES.png,,,,,,,,,,,,,,,,,,,,,,
,,,,,,,,,,,,,,,,,198820,18,2022-01-30_01h45.22.523,lexical_decision_task_DD_L5,2021.2.3,MacIntel,60.0024001,,,,,,,,,,,,0.6647,1,,,,,,,,,,,,,,z,1,0.6647,,,,,,,,-0.146610243,-0.117261285,0,0,0,,0,116,116,109,1,BURGE,HB,old,z,./images/BURGEHB.png,,,,,,,,,,,,,,,,,,,,,,
,,,,,,,,,,,,,,,,,198820,18,2022-01-30_01h45.22.523,lexical_decision_task_DD_L5,2021.2.3,MacIntel,60.0024001,,,,,,,,,,,,0.7514,1,,,,,,,,,,,,,,z,1,0.7514,,,,,,,,-0.146610243,-0.117261285,0,0,0,,0,117,117,160,1,VEETS,HB,old,z,./images/VEETSHB.png,,,,,,,,,,,,,,,,,,,,,,
,,,,,,,,,,,,,,,,,198820,18,2022-01-30_01h45.22.523,lexical_decision_task_DD_L5,2021.2.3,MacIntel,60.0024001,,,,,,,,,,,,1.0963,1,,,,,,,,,,,,,,z,1,1.0963,,,,,,,,-0.146610243,-0.117261285,0,0,0,,0,118,118,97,1,CHIDS,HB,old,z,./images/CHIDSHB.png,,,,,,,,,,,,,,,,,,,,,,
,,,,,,,,,,,,,,,,,198820,18,2022-01-30_01h45.22.523,lexical_decision_task_DD_L5,2021.2.3,MacIntel,60.0024001,,,,,,,,,,,,0.8507,1,,,,,,,,,,,,,,m,1,0.8507,,,,,,,,-0.146610243,-0.117261285,0,0,0,,0,119,119,0,1,WALNUT,HB,old,m,./images/WALNUTHB.png,,,,,,,,,,,,,,,,,,,,,,
,,,,,,,,,,,,,,,,,198820,18,2022-01-30_01h45.22.523,lexical_decision_task_DD_L5,2021.2.3,MacIntel,60.0024001,,,,,,,,,,,,0.802,1,,,,,,,,,,,,,,z,1,0.802,,,,,,,,-0.146610243,-0.117261285,0,0,0,,0,120,120,145,1,LAMEL,HB,old,z,./images/LAMELHB.png,,,,,,,,,,,,,,,,,,,,,,
,,,,,,,,,,,,,,,,,198820,18,2022-01-30_01h45.22.523,lexical_decision_task_DD_L5,2021.2.3,MacIntel,60.0024001,,,,,,,,,,,,0.657,1,,,,,,,,,,,,,,z,1,0.657,,,,,,,,-0.146610243,-0.117261285,0,0,0,,0,121,121,120,1,RINED,C,old,z,./images/RINED.png,,,,,,,,,,,,,,,,,,,,,,
,,,,,,,,,,,,,,,,,198820,18,2022-01-30_01h45.22.523,lexical_decision_task_DD_L5,2021.2.3,MacIntel,60.0024001,,,,,,,,,,,,0.8564,1,,,,,,,,,,,,,,z,1,0.8564,,,,,,,,-0.146610243,-0.117261285,0,0,0,,0,122,122,88,1,GLUSH,HB,old,z,./images/GLUSHHB.png,,,,,,,,,,,,,,,,,,,,,,
,,,,,,,,,,,,,,,,,198820,18,2022-01-30_01h45.22.523,lexical_decision_task_DD_L5,2021.2.3,MacIntel,60.0024001,,,,,,,,,,,,0.8818,1,,,,,,,,,,,,,,m,1,0.8818,,,,,,,,-0.146610243,-0.117261285,0,0,0,,0,123,123,6,1,STAIN,HB,old,m,./images/STAINHB.png,,,,,,,,,,,,,,,,,,,,,,
,,,,,,,,,,,,,,,,,198820,18,2022-01-30_01h45.22.523,lexical_decision_task_DD_L5,2021.2.3,MacIntel,60.0024001,,,,,,,,,,,,0.6031,1,,,,,,,,,,,,,,z,1,0.6031,,,,,,,,-0.146610243,-0.117261285,0,0,0,,0,124,124,135,1,JOODY,C,old,z,./images/JOODY.png,,,,,,,,,,,,,,,,,,,,,,
,,,,,,,,,,,,,,,,,198820,18,2022-01-30_01h45.22.523,lexical_decision_task_DD_L5,2021.2.3,MacIntel,60.0024001,,,,,,,,,,,,0.7229,1,,,,,,,,,,,,,,m,1,0.7229,,,,,,,,-0.146610243,-0.117261285,0,0,0,space,0,125,125,56,1,HEATER,C,old,m,./images/HEATER.png,102.6575,,,,,,,,,,,,,,,,,,,,,
,,,,,,,,,,,,,,,,,198820,18,2022-01-30_01h45.22.523,lexical_decision_task_DD_L5,2021.2.3,MacIntel,60.0024001,,,,,,,,,,,,0.7652,1,,,,,,,,,,,,,,z,1,0.7652,,,,,,,,-0.146610243,-0.117261285,0,0,0,,0,126,126,98,1,BAMPS,LB,old,z,./images/BAMPSLB.png,,,,,,,,,,,,,,,,,,,,,,
,,,,,,,,,,,,,,,,,198820,18,2022-01-30_01h45.22.523,lexical_decision_task_DD_L5,2021.2.3,MacIntel,60.0024001,,,,,,,,,,,,0.9841,1,,,,,,,,,,,,,,m,1,0.9841,,,,,,,,-0.146610243,-0.117261285,0,0,0,,0,127,127,3,1,CRATER,HB,old,m,./images/CRATERHB.png,,,,,,,,,,,,,,,,,,,,,,
,,,,,,,,,,,,,,,,,198820,18,2022-01-30_01h45.22.523,lexical_decision_task_DD_L5,2021.2.3,MacIntel,60.0024001,,,,,,,,,,,,0.5955,1,,,,,,,,,,,,,,z,1,0.5955,,,,,,,,-0.146610243,-0.117261285,0,0,0,,0,128,128,113,1,LINEW,LB,old,z,./images/LINEWLB.png,,,,,,,,,,,,,,,,,,,,,,
,,,,,,,,,,,,,,,,,198820,18,2022-01-30_01h45.22.523,lexical_decision_task_DD_L5,2021.2.3,MacIntel,60.0024001,,,,,,,,,,,,0.6828,1,,,,,,,,,,,,,,z,1,0.6828,,,,,,,,-0.146610243,-0.117261285,0,0,0,,0,129,129,112,1,MYING,HB,old,z,./images/MYINGHB.png,,,,,,,,,,,,,,,,,,,,,,
,,,,,,,,,,,,,,,,,198820,18,2022-01-30_01h45.22.523,lexical_decision_task_DD_L5,2021.2.3,MacIntel,60.0024001,,,,,,,,,,,,0.6497,1,,,,,,,,,,,,,,z,1,0.6497,,,,,,,,-0.146610243,-0.117261285,0,0,0,,0,130,130,136,1,WERVE,HB,old,z,./images/WERVEHB.png,,,,,,,,,,,,,,,,,,,,,,
,,,,,,,,,,,,,,,,,198820,18,2022-01-30_01h45.22.523,lexical_decision_task_DD_L5,2021.2.3,MacIntel,60.0024001,,,,,,,,,,,,0.6557,1,,,,,,,,,,,,,,z,1,0.6557,,,,,,,,-0.146610243,-0.117261285,0,0,0,,0,131,131,134,1,TROSS,LB,old,z,./images/TROSSLB.png,,,,,,,,,,,,,,,,,,,,,,
,,,,,,,,,,,,,,,,,198820,18,2022-01-30_01h45.22.523,lexical_decision_task_DD_L5,2021.2.3,MacIntel,60.0024001,,,,,,,,,,,,0.6564,1,,,,,,,,,,,,,,z,1,0.6564,,,,,,,,-0.146610243,-0.117261285,0,0,0,,0,132,132,85,1,CHULK,HB,old,z,./images/CHULKHB.png,,,,,,,,,,,,,,,,,,,,,,
,,,,,,,,,,,,,,,,,198820,18,2022-01-30_01h45.22.523,lexical_decision_task_DD_L5,2021.2.3,MacIntel,60.0024001,,,,,,,,,,,,0.7882,1,,,,,,,,,,,,,,m,1,0.7882,,,,,,,,-0.146610243,-0.117261285,0,0,0,,0,133,133,27,1,BUTTER,HB,old,m,./images/BUTTERHB.png,,,,,,,,,,,,,,,,,,,,,,
,,,,,,,,,,,,,,,,,198820,18,2022-01-30_01h45.22.523,lexical_decision_task_DD_L5,2021.2.3,MacIntel,60.0024001,,,,,,,,,,,,0.9771,1,,,,,,,,,,,,,,z,1,0.9771,,,,,,,,-0.146610243,-0.117261285,0,0,0,,0,134,134,166,1,SHORY,HB,old,z,./images/SHORYHB.png,,,,,,,,,,,,,,,,,,,,,,
,,,,,,,,,,,,,,,,,198820,18,2022-01-30_01h45.22.523,lexical_decision_task_DD_L5,2021.2.3,MacIntel,60.0024001,,,,,,,,,,,,1.0143,1,,,,,,,,,,,,,,m,1,1.0143,,,,,,,,-0.146610243,-0.117261285,0,0,0,,0,135,135,78,1,BROOM,HB,old,m,./images/BROOMHB.png,,,,,,,,,,,,,,,,,,,,,,
,,,,,,,,,,,,,,,,,198820,18,2022-01-30_01h45.22.523,lexical_decision_task_DD_L5,2021.2.3,MacIntel,60.0024001,,,,,,,,,,,,0.585,1,,,,,,,,,,,,,,z,1,0.585,,,,,,,,-0.146610243,-0.117261285,0,0,0,,0,136,136,117,1,STEEG,C,old,z,./images/STEEG.png,,,,,,,,,,,,,,,,,,,,,,
,,,,,,,,,,,,,,,,,198820,18,2022-01-30_01h45.22.523,lexical_decision_task_DD_L5,2021.2.3,MacIntel,60.0024001,,,,,,,,,,,,0.823,1,,,,,,,,,,,,,,m,1,0.823,,,,,,,,-0.146610243,-0.117261285,0,0,0,,0,137,137,50,1,PILOT,C,old,m,./images/PILOT.png,,,,,,,,,,,,,,,,,,,,,,
,,,,,,,,,,,,,,,,,198820,18,2022-01-30_01h45.22.523,lexical_decision_task_DD_L5,2021.2.3,MacIntel,60.0024001,,,,,,,,,,,,0.6546,1,,,,,,,,,,,,,,z,1,0.6546,,,,,,,,-0.146610243,-0.117261285,0,0,0,,0,138,138,111,1,HOSSE,C,old,z,./images/HOSSE.png,,,,,,,,,,,,,,,,,,,,,,
,,,,,,,,,,,,,,,,,198820,18,2022-01-30_01h45.22.523,lexical_decision_task_DD_L5,2021.2.3,MacIntel,60.0024001,,,,,,,,,,,,0.6554,1,,,,,,,,,,,,,,z,1,0.6554,,,,,,,,-0.146610243,-0.117261285,0,0,0,,0,139,139,147,1,ZOLES,C,old,z,./images/ZOLES.png,,,,,,,,,,,,,,,,,,,,,,
,,,,,,,,,,,,,,,,,198820,18,2022-01-30_01h45.22.523,lexical_decision_task_DD_L5,2021.2.3,MacIntel,60.0024001,,,,,,,,,,,,0.7338,0,,,,,,,,,,,,,,z,0,0.7338,,,,,,,,-0.146610243,-0.117261285,0,0,0,,0,140,140,30,1,SLOPE,HB,old,m,./images/SLOPEHB.png,,,,,,,,,,,,,,,,,,,,,,
,,,,,,,,,,,,,,,,,198820,18,2022-01-30_01h45.22.523,lexical_decision_task_DD_L5,2021.2.3,MacIntel,60.0024001,,,,,,,,,,,,0.571,1,,,,,,,,,,,,,,m,1,0.571,,,,,,,,-0.146610243,-0.117261285,0,0,0,,0,141,141,13,1,BUNNY,LB,old,m,./images/BUNNYLB.png,,,,,,,,,,,,,,,,,,,,,,
,,,,,,,,,,,,,,,,,198820,18,2022-01-30_01h45.22.523,lexical_decision_task_DD_L5,2021.2.3,MacIntel,60.0024001,,,,,,,,,,,,0.8657,1,,,,,,,,,,,,,,m,1,0.8657,,,,,,,,-0.146610243,-0.117261285,0,0,0,,0,142,142,60,1,CURRY,HB,old,m,./images/CURRYHB.png,,,,,,,,,,,,,,,,,,,,,,
,,,,,,,,,,,,,,,,,198820,18,2022-01-30_01h45.22.523,lexical_decision_task_DD_L5,2021.2.3,MacIntel,60.0024001,,,,,,,,,,,,0.6976,1,,,,,,,,,,,,,,m,1,0.6976,,,,,,,,-0.146610243,-0.117261285,0,0,0,,0,143,143,15,1,COLLAR,HB,old,m,./images/COLLARHB.png,,,,,,,,,,,,,,,,,,,,,,
,,,,,,,,,,,,,,,,,198820,18,2022-01-30_01h45.22.523,lexical_decision_task_DD_L5,2021.2.3,MacIntel,60.0024001,,,,,,,,,,,,0.7838,1,,,,,,,,,,,,,,m,1,0.7838,,,,,,,,-0.146610243,-0.117261285,0,0,0,,0,144,144,36,1,BOILER,HB,old,m,./images/BOILERHB.png,,,,,,,,,,,,,,,,,,,,,,
,,,,,,,,,,,,,,,,,198820,18,2022-01-30_01h45.22.523,lexical_decision_task_DD_L5,2021.2.3,MacIntel,60.0024001,,,,,,,,,,,,0.7738,1,,,,,,,,,,,,,,z,1,0.7738,,,,,,,,-0.146610243,-0.117261285,0,0,0,,0,145,145,96,1,KEAMS,C,old,z,./images/KEAMS.png,,,,,,,,,,,,,,,,,,,,,,
,,,,,,,,,,,,,,,,,198820,18,2022-01-30_01h45.22.523,lexical_decision_task_DD_L5,2021.2.3,MacIntel,60.0024001,,,,,,,,,,,,1.0157,1,,,,,,,,,,,,,,z,1,1.0157,,,,,,,,-0.146610243,-0.117261285,0,0,0,,0,146,146,127,1,NINDY,HB,old,z,./images/NINDYHB.png,,,,,,,,,,,,,,,,,,,,,,
,,,,,,,,,,,,,,,,,198820,18,2022-01-30_01h45.22.523,lexical_decision_task_DD_L5,2021.2.3,MacIntel,60.0024001,,,,,,,,,,,,0.7719,1,,,,,,,,,,,,,,z,1,0.7719,,,,,,,,-0.146610243,-0.117261285,0,0,0,,0,147,147,144,1,NAIRY,C,old,z,./images/NAIRY.png,,,,,,,,,,,,,,,,,,,,,,
,,,,,,,,,,,,,,,,,198820,18,2022-01-30_01h45.22.523,lexical_decision_task_DD_L5,2021.2.3,MacIntel,60.0024001,,,,,,,,,,,,0.8131,1,,,,,,,,,,,,,,m,1,0.8131,,,,,,,,-0.146610243,-0.117261285,0,0,0,,0,148,148,39,1,CANDY,HB,old,m,./images/CANDYHB.png,,,,,,,,,,,,,,,,,,,,,,
,,,,,,,,,,,,,,,,,198820,18,2022-01-30_01h45.22.523,lexical_decision_task_DD_L5,2021.2.3,MacIntel,60.0024001,,,,,,,,,,,,0.699,1,,,,,,,,,,,,,,z,1,0.699,,,,,,,,-0.146610243,-0.117261285,0,0,0,,0,149,149,107,1,FASKS,LB,old,z,./images/FASKSLB.png,,,,,,,,,,,,,,,,,,,,,,
,,,,,,,,,,,,,,,,,198820,18,2022-01-30_01h45.22.523,lexical_decision_task_DD_L5,2021.2.3,MacIntel,60.0024001,,,,,,,,,,,,0.7869,1,,,,,,,,,,,,,,m,1,0.7869,,,,,,,,-0.146610243,-0.117261285,0,0,0,,0,150,150,5,1,BAMBOO,C,old,m,./images/BAMBOO.png,,,,,,,,,,,,,,,,,,,,,,
,,,,,,,,,,,,,,,,,198820,18,2022-01-30_01h45.22.523,lexical_decision_task_DD_L5,2021.2.3,MacIntel,60.0024001,,,,,,,,,,,,0.8521,1,,,,,,,,,,,,,,z,1,0.8521,,,,,,,,-0.146610243,-0.117261285,0,0,0,,0,151,151,124,1,TUNCH,HB,old,z,./images/TUNCHHB.png,,,,,,,,,,,,,,,,,,,,,,
,,,,,,,,,,,,,,,,,198820,18,2022-01-30_01h45.22.523,lexical_decision_task_DD_L5,2021.2.3,MacIntel,60.0024001,,,,,,,,,,,,1.2471,1,,,,,,,,,,,,,,m,1,1.2471,,,,,,,,-0.146610243,-0.117261285,0,0,0,,0,152,152,58,1,CANOE,LB,old,m,./images/CANOELB.png,,,,,,,,,,,,,,,,,,,,,,
,,,,,,,,,,,,,,,,,198820,18,2022-01-30_01h45.22.523,lexical_decision_task_DD_L5,2021.2.3,MacIntel,60.0024001,,,,,,,,,,,,1.1473,1,,,,,,,,,,,,,,m,1,1.1473,,,,,,,,-0.146610243,-0.117261285,0,0,0,,0,153,153,37,1,TIGER,LB,old,m,./images/TIGERLB.png,,,,,,,,,,,,,,,,,,,,,,
,,,,,,,,,,,,,,,,,198820,18,2022-01-30_01h45.22.523,lexical_decision_task_DD_L5,2021.2.3,MacIntel,60.0024001,,,,,,,,,,,,0.6373,1,,,,,,,,,,,,,,z,1,0.6373,,,,,,,,-0.146610243,-0.117261285,0,0,0,,0,154,154,102,1,DULLE,C,old,z,./images/DULLE.png,,,,,,,,,,,,,,,,,,,,,,
,,,,,,,,,,,,,,,,,198820,18,2022-01-30_01h45.22.523,lexical_decision_task_DD_L5,2021.2.3,MacIntel,60.0024001,,,,,,,,,,,,0.7371,1,,,,,,,,,,,,,,z,1,0.7371,,,,,,,,-0.146610243,-0.117261285,0,0,0,,0,155,155,95,1,HANTY,LB,old,z,./images/HANTYLB.png,,,,,,,,,,,,,,,,,,,,,,
,,,,,,,,,,,,,,,,,198820,18,2022-01-30_01h45.22.523,lexical_decision_task_DD_L5,2021.2.3,MacIntel,60.0024001,,,,,,,,,,,,0.7769,1,,,,,,,,,,,,,,z,1,0.7769,,,,,,,,-0.146610243,-0.117261285,0,0,0,,0,156,156,92,1,PAIMS,LB,old,z,./images/PAIMSLB.png,,,,,,,,,,,,,,,,,,,,,,
,,,,,,,,,,,,,,,,,198820,18,2022-01-30_01h45.22.523,lexical_decision_task_DD_L5,2021.2.3,MacIntel,60.0024001,,,,,,,,,,,,0.9562,1,,,,,,,,,,,,,,m,1,0.9562,,,,,,,,-0.146610243,-0.117261285,0,0,0,,0,157,157,65,1,SPINE,C,old,m,./images/SPINE.png,,,,,,,,,,,,,,,,,,,,,,
,,,,,,,,,,,,,,,,,198820,18,2022-01-30_01h45.22.523,lexical_decision_task_DD_L5,2021.2.3,MacIntel,60.0024001,,,,,,,,,,,,0.7862,1,,,,,,,,,,,,,,m,1,0.7862,,,,,,,,-0.146610243,-0.117261285,0,0,0,,0,158,158,57,1,FERRY,HB,old,m,./images/FERRYHB.png,,,,,,,,,,,,,,,,,,,,,,
,,,,,,,,,,,,,,,,,198820,18,2022-01-30_01h45.22.523,lexical_decision_task_DD_L5,2021.2.3,MacIntel,60.0024001,,,,,,,,,,,,1.4478,0,,,,,,,,,,,,,,m,0,1.4478,,,,,,,,-0.146610243,-0.117261285,0,0,0,,0,159,159,163,1,GAMBA,HB,old,z,./images/GAMBAHB.png,,,,,,,,,,,,,,,,,,,,,,
,,,,,,,,,,,,,,,,,198820,18,2022-01-30_01h45.22.523,lexical_decision_task_DD_L5,2021.2.3,MacIntel,60.0024001,,,,,,,,,,,,0.8141,1,,,,,,,,,,,,,,z,1,0.8141,,,,,,,,-0.146610243,-0.117261285,0,0,0,,0,160,160,146,1,MOOST,LB,old,z,./images/MOOSTLB.png,,,,,,,,,,,,,,,,,,,,,,
,,,,,,,,,,,,,,,,,198820,18,2022-01-30_01h45.22.523,lexical_decision_task_DD_L5,2021.2.3,MacIntel,60.0024001,,,,,,,,,,,,0.6951,1,,,,,,,,,,,,,,m,1,0.6951,,,,,,,,-0.146610243,-0.117261285,0,0,0,,0,161,161,1,1,TOWEL,LB,old,m,./images/TOWELLB.png,,,,,,,,,,,,,,,,,,,,,,
,,,,,,,,,,,,,,,,,198820,18,2022-01-30_01h45.22.523,lexical_decision_task_DD_L5,2021.2.3,MacIntel,60.0024001,,,,,,,,,,,,0.8569,1,,,,,,,,,,,,,,z,1,0.8569,,,,,,,,-0.146610243,-0.117261285,0,0,0,,0,162,162,100,1,DRIBS,HB,old,z,./images/DRIBSHB.png,,,,,,,,,,,,,,,,,,,,,,
,,,,,,,,,,,,,,,,,198820,18,2022-01-30_01h45.22.523,lexical_decision_task_DD_L5,2021.2.3,MacIntel,60.0024001,,,,,,,,,,,,0.6537,1,,,,,,,,,,,,,,m,1,0.6537,,,,,,,,-0.146610243,-0.117261285,0,0,0,,0,163,163,61,1,ARTIST,LB,old,m,./images/ARTISTLB.png,,,,,,,,,,,,,,,,,,,,,,
,,,,,,,,,,,,,,,,,198820,18,2022-01-30_01h45.22.523,lexical_decision_task_DD_L5,2021.2.3,MacIntel,60.0024001,,,,,,,,,,,,0.7503,1,,,,,,,,,,,,,,z,1,0.7503,,,,,,,,-0.146610243,-0.117261285,0,0,0,,0,164,164,143,1,MONGS,LB,old,z,./images/MONGSLB.png,,,,,,,,,,,,,,,,,,,,,,
,,,,,,,,,,,,,,,,,198820,18,2022-01-30_01h45.22.523,lexical_decision_task_DD_L5,2021.2.3,MacIntel,60.0024001,,,,,,,,,,,,0.8519,1,,,,,,,,,,,,,,z,1,0.8519,,,,,,,,-0.146610243,-0.117261285,0,0,0,,0,165,165,159,1,CUDDY,C,old,z,./images/CUDDY.png,,,,,,,,,,,,,,,,,,,,,,
,,,,,,,,,,,,,,,,,198820,18,2022-01-30_01h45.22.523,lexical_decision_task_DD_L5,2021.2.3,MacIntel,60.0024001,,,,,,,,,,,,0.9709,1,,,,,,,,,,,,,,m,1,0.9709,,,,,,,,-0.146610243,-0.117261285,0,0,0,,0,166,166,21,1,DANCER,HB,old,m,./images/DANCERHB.png,,,,,,,,,,,,,,,,,,,,,,
,,,,,,,,,,,,,,,,,198820,18,2022-01-30_01h45.22.523,lexical_decision_task_DD_L5,2021.2.3,MacIntel,60.0024001,,,,,,,,,,,,0.6946,1,,,,,,,,,,,,,,z,1,0.6946,,,,,,,,-0.146610243,-0.117261285,0,0,0,,0,167,167,93,1,SMONE,C,old,z,./images/SMONE.png,,,,,,,,,,,,,,,,,,,,,,
space,-0.033289931,-0.36000434,0,0,0,,,,,,,1,test,"In the next phase you will be presented with the words from the the first phase. Your job is to decide whether you remember seeing the word or not. If you remember seeing the word press ""old"" or type ""m"". If you do not remember seeing the word press ""new"" or type ""z"". Please press the space bar or click on continue to begin. ",,,198820,18,2022-01-30_01h45.22.523,lexical_decision_task_DD_L5,2021.2.3,MacIntel,60.0024001,292.3758,,,,,,,,,,,,,,,,,,,,,,,,,,,,,,,,,,,,,,,,,,,,,,,,,,,,,0,0,0,0,1,,,,,,,,,,,,,,,,
space,-0.027599826,-0.394921875,0,0,0,,,,,,,1,test,"In the next phase you will be presented with the words from the the first phase. Your job is to decide whether you remember seeing the word or not. If you remember seeing the word press ""old"" or type ""m"". If you do not remember seeing the word press ""new"" or type ""z"". Please press the space bar or click on continue to begin. ",,,198820,18,2022-01-30_01h45.22.523,lexical_decision_task_DD_L5,2021.2.3,MacIntel,60.0024001,1.1556,,,,,,,,,,,,,,,,,,,,,,,,,,,,,,,,,,,,,,,,,,,,,,,,,,,,,1,0,1,0,1,,,,,,,,,,,,,,,,
,-0.016232639,-0.411519097,1,0,0,instr_done_button,,,,,,1,test,"In the next phase you will be presented with the words from the the first phase. Your job is to decide whether you remember seeing the word or not. If you remember seeing the word press ""old"" or type ""m"". If you do not remember seeing the word press ""new"" or type ""z"". Please press the space bar or click on continue to begin. ",,,198820,18,2022-01-30_01h45.22.523,lexical_decision_task_DD_L5,2021.2.3,MacIntel,60.0024001,,,,,,,,,,,,,,,,,,,,,,,,,,,,,,,,,,,,,,,,,,,,,,,,,,,,,,2,0,2,0,1,,,,,,,,,,,,,,,,
,-0.041805556,-0.387578125,1,0,0,instr_done_button,,,,,,1,test,"In the next phase you will be presented with the words from the the first phase. Your job is to decide whether you remember seeing the word or not. If you remember seeing the word press ""old"" or type ""m"". If you do not remember seeing the word press ""new"" or type ""z"". Please press the space bar or click on continue to begin. ",,,198820,18,2022-01-30_01h45.22.523,lexical_decision_task_DD_L5,2021.2.3,MacIntel,60.0024001,,,,,,,,,,,,,,,,,,,,,,,,,,,,,,,,,,,,,,,,,,,,,,,,,,,,,,3,0,3,0,1,,,,,,,,,,,,,,,,
,-0.00749566,-0.354084201,1,0,0,instr_done_button,,,,,,1,test,"In the next phase you will be presented with the words from the the first phase. Your job is to decide whether you remember seeing the word or not. If you remember seeing the word press ""old"" or type ""m"". If you do not remember seeing the word press ""new"" or type ""z"". Please press the space bar or click on continue to begin. ",,,198820,18,2022-01-30_01h45.22.523,lexical_decision_task_DD_L5,2021.2.3,MacIntel,60.0024001,,,,,,,,,,,,,,,,,,,,,,,,,,,,,,,,,,,,,,,,,,,,,,,,,,,,,,4,0,4,0,1,,,,,,,,,,,,,,,,
,,,,,,,,,,,,,,,,,198820,18,2022-01-30_01h45.22.523,lexical_decision_task_DD_L5,2021.2.3,MacIntel,60.0024001,,,,,,,,,,,,2.1946,0,,,,,,,,,,,,,,,,,,,,,,,,-0.001979167,-0.305594618,0,0,0,,,,,,,BAKER,HB,m,y,./images/BAKERHB.png,,,,,,,z,0,2.1946,,,,,,,,0,0,0,63,1,
,,,,,,,,,,,,,,,,,198820,18,2022-01-30_01h45.22.523,lexical_decision_task_DD_L5,2021.2.3,MacIntel,60.0024001,,,,,,,,,,,,1.025,1,,,,,,,,,,,,,,,,,,,,,,,,-0.001979167,-0.305594618,0,0,0,,,,,,,RAZOR,LB,m,y,./images/RAZORLB.png,,,,,,,m,1,1.025,,,,,,,,0,1,1,34,1,
,,,,,,,,,,,,,,,,,198820,18,2022-01-30_01h45.22.523,lexical_decision_task_DD_L5,2021.2.3,MacIntel,60.0024001,,,,,,,,,,,,1.9519,0,,,,,,,,,,,,,,,,,,,,,,,,-0.001979167,-0.305594618,0,0,0,,,,,,,BURIAL,C,z,y,./images/BURIAL.png,,,,,,,m,0,1.9519,,,,,,,,0,2,2,143,1,
,,,,,,,,,,,,,,,,,198820,18,2022-01-30_01h45.22.523,lexical_decision_task_DD_L5,2021.2.3,MacIntel,60.0024001,,,,,,,,,,,,1.6753,0,,,,,,,,,,,,,,,,,,,,,,,,-0.001979167,-0.305594618,0,0,0,,,,,,,FERRY,HB,m,y,./images/FERRYHB.png,,,,,,,z,0,1.6753,,,,,,,,0,3,3,57,1,
,,,,,,,,,,,,,,,,,198820,18,2022-01-30_01h45.22.523,lexical_decision_task_DD_L5,2021.2.3,MacIntel,60.0024001,,,,,,,,,,,,0.8754,1,,,,,,,,,,,,,,,,,,,,,,,,-0.001979167,-0.305594618,0,0,0,,,,,,,BELLY,LB,z,y,./images/BELLYLB.png,,,,,,,z,1,0.8754,,,,,,,,0,4,4,94,1,
,,,,,,,,,,,,,,,,,198820,18,2022-01-30_01h45.22.523,lexical_decision_task_DD_L5,2021.2.3,MacIntel,60.0024001,,,,,,,,,,,,0.7515,1,,,,,,,,,,,,,,,,,,,,,,,,-0.001979167,-0.305594618,0,0,0,,,,,,,DESERT,LB,m,y,./images/DESERTLB.png,,,,,,,m,1,0.7515,,,,,,,,0,5,5,52,1,
,,,,,,,,,,,,,,,,,198820,18,2022-01-30_01h45.22.523,lexical_decision_task_DD_L5,2021.2.3,MacIntel,60.0024001,,,,,,,,,,,,1.0484,1,,,,,,,,,,,,,,,,,,,,,,,,-0.001979167,-0.305594618,0,0,0,,,,,,,JELLY,LB,z,y,./images/JELLYLB.png,,,,,,,z,1,1.0484,,,,,,,,0,6,6,148,1,
,,,,,,,,,,,,,,,,,198820,18,2022-01-30_01h45.22.523,lexical_decision_task_DD_L5,2021.2.3,MacIntel,60.0024001,,,,,,,,,,,,0.8859,1,,,,,,,,,,,,,,,,,,,,,,,,-0.001979167,-0.305594618,0,0,0,,,,,,,PLANET,C,m,y,./images/PLANET.png,,,,,,,m,1,0.8859,,,,,,,,0,7,7,80,1,
,,,,,,,,,,,,,,,,,198820,18,2022-01-30_01h45.22.523,lexical_decision_task_DD_L5,2021.2.3,MacIntel,60.0024001,,,,,,,,,,,,0.9158,0,,,,,,,,,,,,,,,,,,,,,,,,-0.001979167,-0.305594618,0,0,0,,,,,,,PAINT,LB,z,y,./images/PAINTLB.png,,,,,,,m,0,0.9158,,,,,,,,0,8,8,91,1,
,,,,,,,,,,,,,,,,,198820,18,2022-01-30_01h45.22.523,lexical_decision_task_DD_L5,2021.2.3,MacIntel,60.0024001,,,,,,,,,,,,1.1136,1,,,,,,,,,,,,,,,,,,,,,,,,-0.001979167,-0.305594618,0,0,0,,,,,,,GRAPE,LB,m,y,./images/GRAPELB.png,,,,,,,m,1,1.1136,,,,,,,,0,9,9,16,1,
,,,,,,,,,,,,,,,,,198820,18,2022-01-30_01h45.22.523,lexical_decision_task_DD_L5,2021.2.3,MacIntel,60.0024001,,,,,,,,,,,,0.7495,1,,,,,,,,,,,,,,,,,,,,,,,,-0.001979167,-0.305594618,0,0,0,,,,,,,ALLEY,LB,m,y,./images/ALLEYLB.png,,,,,,,m,1,0.7495,,,,,,,,0,10,10,55,1,
,,,,,,,,,,,,,,,,,198820,18,2022-01-30_01h45.22.523,lexical_decision_task_DD_L5,2021.2.3,MacIntel,60.0024001,,,,,,,,,,,,0.7534,1,,,,,,,,,,,,,,,,,,,,,,,,-0.001979167,-0.305594618,0,0,0,,,,,,,TIGER,LB,m,y,./images/TIGERLB.png,,,,,,,m,1,0.7534,,,,,,,,0,11,11,37,1,
,,,,,,,,,,,,,,,,,198820,18,2022-01-30_01h45.22.523,lexical_decision_task_DD_L5,2021.2.3,MacIntel,60.0024001,,,,,,,,,,,,0.7161,1,,,,,,,,,,,,,,,,,,,,,,,,-0.001979167,-0.305594618,0,0,0,,,,,,,PARCEL,HB,m,y,./images/PARCELHB.png,,,,,,,m,1,0.7161,,,,,,,,0,12,12,18,1,
,,,,,,,,,,,,,,,,,198820,18,2022-01-30_01h45.22.523,lexical_decision_task_DD_L5,2021.2.3,MacIntel,60.0024001,,,,,,,,,,,,0.8161,0,,,,,,,,,,,,,,,,,,,,,,,,-0.001979167,-0.305594618,0,0,0,,,,,,,STORM,HB,z,y,./images/STORMHB.png,,,,,,,m,0,0.8161,,,,,,,,0,13,13,114,1,
,,,,,,,,,,,,,,,,,198820,18,2022-01-30_01h45.22.523,lexical_decision_task_DD_L5,2021.2.3,MacIntel,60.0024001,,,,,,,,,,,,1.3197,0,,,,,,,,,,,,,,,,,,,,,,,,-0.001979167,-0.305594618,0,0,0,,,,,,,FALCON,LB,z,y,./images/FALCONLB.png,,,,,,,m,0,1.3197,,,,,,,,0,14,14,112,1,
,,,,,,,,,,,,,,,,,198820,18,2022-01-30_01h45.22.523,lexical_decision_task_DD_L5,2021.2.3,MacIntel,60.0024001,,,,,,,,,,,,0.607,0,,,,,,,,,,,,,,,,,,,,,,,,-0.001979167,-0.305594618,0,0,0,,,,,,,BABOON,LB,z,y,./images/BABOONLB.png,,,,,,,m,0,0.607,,,,,,,,0,15,15,142,1,
,,,,,,,,,,,,,,,,,198820,18,2022-01-30_01h45.22.523,lexical_decision_task_DD_L5,2021.2.3,MacIntel,60.0024001,,,,,,,,,,,,0.7836,0,,,,,,,,,,,,,,,,,,,,,,,,-0.001979167,-0.305594618,0,0,0,,,,,,,WAGON,LB,m,y,./images/WAGONLB.png,,,,,,,z,0,0.7836,,,,,,,,0,16,16,7,1,
,,,,,,,,,,,,,,,,,198820,18,2022-01-30_01h45.22.523,lexical_decision_task_DD_L5,2021.2.3,MacIntel,60.0024001,,,,,,,,,,,,0.9842,1,,,,,,,,,,,,,,,,,,,,,,,,-0.001979167,-0.305594618,0,0,0,,,,,,,MELON,LB,z,y,./images/MELONLB.png,,,,,,,z,1,0.9842,,,,,,,,0,17,17,106,1,
,,,,,,,,,,,,,,,,,198820,18,2022-01-30_01h45.22.523,lexical_decision_task_DD_L5,2021.2.3,MacIntel,60.0024001,,,,,,,,,,,,1.0851,0,,,,,,,,,,,,,,,,,,,,,,,,-0.001979167,-0.305594618,0,0,0,,,,,,,SNAKE,LB,m,y,./images/SNAKELB.png,,,,,,,z,0,1.0851,,,,,,,,0,18,18,40,1,
,,,,,,,,,,,,,,,,,198820,18,2022-01-30_01h45.22.523,lexical_decision_task_DD_L5,2021.2.3,MacIntel,60.0024001,,,,,,,,,,,,1.432,0,,,,,,,,,,,,,,,,,,,,,,,,-0.001979167,-0.305594618,0,0,0,,,,,,,BANNER,LB,z,y,./images/BANNERLB.png,,,,,,,m,0,1.432,,,,,,,,0,19,19,136,1,
,,,,,,,,,,,,,,,,,198820,18,2022-01-30_01h45.22.523,lexical_decision_task_DD_L5,2021.2.3,MacIntel,60.0024001,,,,,,,,,,,,1.1505,0,,,,,,,,,,,,,,,,,,,,,,,,-0.001979167,-0.305594618,0,0,0,,,,,,,SHORE,HB,z,y,./images/SHOREHB.png,,,,,,,m,0,1.1505,,,,,,,,0,20,20,96,1,
,,,,,,,,,,,,,,,,,198820,18,2022-01-30_01h45.22.523,lexical_decision_task_DD_L5,2021.2.3,MacIntel,60.0024001,,,,,,,,,,,,0.289,0,,,,,,,,,,,,,,,,,,,,,,,,-0.001979167,-0.305594618,0,0,0,,,,,,,COOKER,HB,z,y,./images/COOKERHB.png,,,,,,,m,0,0.289,,,,,,,,0,21,21,153,1,
,,,,,,,,,,,,,,,,,198820,18,2022-01-30_01h45.22.523,lexical_decision_task_DD_L5,2021.2.3,MacIntel,60.0024001,,,,,,,,,,,,0.151,0,,,,,,,,,,,,,,,,,,,,,,,,-0.001979167,-0.305594618,0,0,0,,,,,,,POSTER,C,m,y,./images/POSTER.png,,,,,,,z,0,0.151,,,,,,,,0,22,22,53,1,
,,,,,,,,,,,,,,,,,198820,18,2022-01-30_01h45.22.523,lexical_decision_task_DD_L5,2021.2.3,MacIntel,60.0024001,,,,,,,,,,,,0.4376,0,,,,,,,,,,,,,,,,,,,,,,,,-0.001979167,-0.305594618,0,0,0,,,,,,,TWINS,HB,z,y,./images/TWINSHB.png,,,,,,,m,0,0.4376,,,,,,,,0,23,23,144,1,
,,,,,,,,,,,,,,,,,198820,18,2022-01-30_01h45.22.523,lexical_decision_task_DD_L5,2021.2.3,MacIntel,60.0024001,,,,,,,,,,,,0.0986,0,,,,,,,,,,,,,,,,,,,,,,,,-0.001979167,-0.305594618,0,0,0,,,,,,,ARROW,HB,m,y,./images/ARROWHB.png,,,,,,,z,0,0.0986,,,,,,,,0,24,24,69,1,
,,,,,,,,,,,,,,,,,198820,18,2022-01-30_01h45.22.523,lexical_decision_task_DD_L5,2021.2.3,MacIntel,60.0024001,,,,,,,,,,,,0.1153,0,,,,,,,,,,,,,,,,,,,,,,,,-0.001979167,-0.305594618,0,0,0,,,,,,,BERRY,C,z,y,./images/BERRY.png,,,,,,,m,0,0.1153,,,,,,,,0,25,25,131,1,
,,,,,,,,,,,,,,,,,198820,18,2022-01-30_01h45.22.523,lexical_decision_task_DD_L5,2021.2.3,MacIntel,60.0024001,,,,,,,,,,,,0.0487,1,,,,,,,,,,,,,,,,,,,,,,,,-0.001979167,-0.305594618,0,0,0,,,,,,,GRAIN,HB,z,y,./images/GRAINHB.png,,,,,,,z,1,0.0487,,,,,,,,0,26,26,159,1,
,,,,,,,,,,,,,,,,,198820,18,2022-01-30_01h45.22.523,lexical_decision_task_DD_L5,2021.2.3,MacIntel,60.0024001,,,,,,,,,,,,0.2852,0,,,,,,,,,,,,,,,,,,,,,,,,-0.001979167,-0.305594618,0,0,0,,,,,,,JAGUAR,HB,z,y,./images/JAGUARHB.png,,,,,,,m,0,0.2852,,,,,,,,0,27,27,102,1,
,,,,,,,,,,,,,,,,,198820,18,2022-01-30_01h45.22.523,lexical_decision_task_DD_L5,2021.2.3,MacIntel,60.0024001,,,,,,,,,,,,0.0152,1,,,,,,,,,,,,,,,,,,,,,,,,-0.001979167,-0.305594618,0,0,0,,,,,,,NOOSE,HB,z,y,./images/NOOSEHB.png,,,,,,,z,1,0.0152,,,,,,,,0,28,28,156,1,
,,,,,,,,,,,,,,,,,198820,18,2022-01-30_01h45.22.523,lexical_decision_task_DD_L5,2021.2.3,MacIntel,60.0024001,,,,,,,,,,,,0.1162,1,,,,,,,,,,,,,,,,,,,,,,,,-0.001979167,-0.305594618,0,0,0,,,,,,,WHEEL,C,m,y,./images/WHEEL.png,,,,,,,m,1,0.1162,,,,,,,,0,29,29,77,1,
,,,,,,,,,,,,,,,,,198820,18,2022-01-30_01h45.22.523,lexical_decision_task_DD_L5,2021.2.3,MacIntel,60.0024001,,,,,,,,,,,,0.3673,0,,,,,,,,,,,,,,,,,,,,,,,,-0.001979167,-0.305594618,0,0,0,,,,,,,CURRY,HB,m,y,./images/CURRYHB.png,,,,,,,z,0,0.3673,,,,,,,,0,30,30,60,1,
,,,,,,,,,,,,,,,,,198820,18,2022-01-30_01h45.22.523,lexical_decision_task_DD_L5,2021.2.3,MacIntel,60.0024001,,,,,,,,,,,,0.4902,0,,,,,,,,,,,,,,,,,,,,,,,,-0.001979167,-0.305594618,0,0,0,,,,,,,PEACH,C,z,y,./images/PEACH.png,,,,,,,m,0,0.4902,,,,,,,,0,31,31,119,1,
,,,,,,,,,,,,,,,,,198820,18,2022-01-30_01h45.22.523,lexical_decision_task_DD_L5,2021.2.3,MacIntel,60.0024001,,,,,,,,,,,,0.9436,1,,,,,,,,,,,,,,,,,,,,,,,,-0.001979167,-0.305594618,0,0,0,,,,,,,MOTOR,LB,z,y,./images/MOTORLB.png,,,,,,,z,1,0.9436,,,,,,,,0,32,32,97,1,
,,,,,,,,,,,,,,,,,198820,18,2022-01-30_01h45.22.523,lexical_decision_task_DD_L5,2021.2.3,MacIntel,60.0024001,,,,,,,,,,,,0.9509,1,,,,,,,,,,,,,,,,,,,,,,,,-0.001979167,-0.305594618,0,0,0,,,,,,,DRUMS,LB,z,y,./images/DRUMSLB.png,,,,,,,z,1,0.9509,,,,,,,,0,33,33,133,1,
,,,,,,,,,,,,,,,,,198820,18,2022-01-30_01h45.22.523,lexical_decision_task_DD_L5,2021.2.3,MacIntel,60.0024001,,,,,,,,,,,,0.6493,0,,,,,,,,,,,,,,,,,,,,,,,,-0.001979167,-0.305594618,0,0,0,,,,,,,DRILL,HB,m,y,./images/DRILLHB.png,,,,,,,z,0,0.6493,,,,,,,,0,34,34,81,1,
,,,,,,,,,,,,,,,,,198820,18,2022-01-30_01h45.22.523,lexical_decision_task_DD_L5,2021.2.3,MacIntel,60.0024001,,,,,,,,,,,,0.5455,1,,,,,,,,,,,,,,,,,,,,,,,,-0.001979167,-0.305594618,0,0,0,,,,,,,BRUSH,C,m,y,./images/BRUSH.png,,,,,,,m,1,0.5455,,,,,,,,0,35,35,59,1,
,,,,,,,,,,,,,,,,,198820,18,2022-01-30_01h45.22.523,lexical_decision_task_DD_L5,2021.2.3,MacIntel,60.0024001,,,,,,,,,,,,0.3752,1,,,,,,,,,,,,,,,,,,,,,,,,-0.001979167,-0.305594618,0,0,0,,,,,,,PICKLE,C,z,y,./images/PICKLE.png,,,,,,,z,1,0.3752,,,,,,,,0,36,36,98,1,
,,,,,,,,,,,,,,,,,198820,18,2022-01-30_01h45.22.523,lexical_decision_task_DD_L5,2021.2.3,MacIntel,60.0024001,,,,,,,,,,,,0.266,1,,,,,,,,,,,,,,,,,,,,,,,,-0.001979167,-0.305594618,0,0,0,,,,,,,MIDGET,LB,m,y,./images/MIDGETLB.png,,,,,,,m,1,0.266,,,,,,,,0,37,37,76,1,
,,,,,,,,,,,,,,,,,198820,18,2022-01-30_01h45.22.523,lexical_decision_task_DD_L5,2021.2.3,MacIntel,60.0024001,,,,,,,,,,,,0.2172,1,,,,,,,,,,,,,,,,,,,,,,,,-0.001979167,-0.305594618,0,0,0,,,,,,,SCREW,HB,z,y,./images/SCREWHB.png,,,,,,,z,1,0.2172,,,,,,,,0,38,38,108,1,
,,,,,,,,,,,,,,,,,198820,18,2022-01-30_01h45.22.523,lexical_decision_task_DD_L5,2021.2.3,MacIntel,60.0024001,,,,,,,,,,,,0.5108,1,,,,,,,,,,,,,,,,,,,,,,,,-0.001979167,-0.305594618,0,0,0,,,,,,,CLIFF,C,m,y,./images/CLIFF.png,,,,,,,m,1,0.5108,,,,,,,,0,39,39,8,1,
,,,,,,,,,,,,,,,,,198820,18,2022-01-30_01h45.22.523,lexical_decision_task_DD_L5,2021.2.3,MacIntel,60.0024001,,,,,,,,,,,,0.3676,0,,,,,,,,,,,,,,,,,,,,,,,,-0.001979167,-0.305594618,0,0,0,,,,,,,BOXER,LB,m,y,./images/BOXERLB.png,,,,,,,z,0,0.3676,,,,,,,,0,40,40,4,1,
,,,,,,,,,,,,,,,,,198820,18,2022-01-30_01h45.22.523,lexical_decision_task_DD_L5,2021.2.3,MacIntel,60.0024001,,,,,,,,,,,,0.4888,0,,,,,,,,,,,,,,,,,,,,,,,,0.026996528,-0.383884549,1,0,0,,,,,,,SHELF,HB,z,y,./images/SHELFHB.png,,,,,,,m,0,0.4888,,,,,,,,0,41,41,123,1,break_done_button
,,,,,,,,,,,,,,,,,198820,18,2022-01-30_01h45.22.523,lexical_decision_task_DD_L5,2021.2.3,MacIntel,60.0024001,,,,,,,,,,,,0.9329,1,,,,,,,,,,,,,,,,,,,,,,,,0.026996528,-0.383884549,0,0,0,,,,,,,BLOKE,HB,m,y,./images/BLOKEHB.png,,,,,,,m,1,0.9329,,,,,,,,0,42,42,12,1,
,,,,,,,,,,,,,,,,,198820,18,2022-01-30_01h45.22.523,lexical_decision_task_DD_L5,2021.2.3,MacIntel,60.0024001,,,,,,,,,,,,0.3354,0,,,,,,,,,,,,,,,,,,,,,,,,0.026996528,-0.383884549,0,0,0,,,,,,,BANANA,LB,m,y,./images/BANANALB.png,,,,,,,z,0,0.3354,,,,,,,,0,43,43,70,1,
,,,,,,,,,,,,,,,,,198820,18,2022-01-30_01h45.22.523,lexical_decision_task_DD_L5,2021.2.3,MacIntel,60.0024001,,,,,,,,,,,,0.1565,0,,,,,,,,,,,,,,,,,,,,,,,,0.026996528,-0.383884549,0,0,0,,,,,,,ATTIC,HB,z,y,./images/ATTICHB.png,,,,,,,m,0,0.1565,,,,,,,,0,44,44,111,1,
,,,,,,,,,,,,,,,,,198820,18,2022-01-30_01h45.22.523,lexical_decision_task_DD_L5,2021.2.3,MacIntel,60.0024001,,,,,,,,,,,,0.2502,1,,,,,,,,,,,,,,,,,,,,,,,,0.026996528,-0.383884549,0,0,0,,,,,,,FOLDER,HB,z,y,./images/FOLDERHB.png,,,,,,,z,1,0.2502,,,,,,,,0,45,45,126,1,
,,,,,,,,,,,,,,,,,198820,18,2022-01-30_01h45.22.523,lexical_decision_task_DD_L5,2021.2.3,MacIntel,60.0024001,,,,,,,,,,,,0.0397,0,,,,,,,,,,,,,,,,,,,,,,,,0.026996528,-0.383884549,0,0,0,,,,,,,TORCH,C,z,y,./images/TORCH.png,,,,,,,m,0,0.0397,,,,,,,,0,46,46,152,1,
,,,,,,,,,,,,,,,,,198820,18,2022-01-30_01h45.22.523,lexical_decision_task_DD_L5,2021.2.3,MacIntel,60.0024001,,,,,,,,,,,,0.069,1,,,,,,,,,,,,,,,,,,,,,,,,0.026996528,-0.383884549,0,0,0,,,,,,,BOILER,HB,m,y,./images/BOILERHB.png,,,,,,,m,1,0.069,,,,,,,,0,47,47,36,1,
,,,,,,,,,,,,,,,,,198820,18,2022-01-30_01h45.22.523,lexical_decision_task_DD_L5,2021.2.3,MacIntel,60.0024001,,,,,,,,,,,,0.2017,0,,,,,,,,,,,,,,,,,,,,,,,,0.026996528,-0.383884549,0,0,0,,,,,,,JUMPER,C,m,y,./images/JUMPER.png,,,,,,,z,0,0.2017,,,,,,,,0,48,48,74,1,
,,,,,,,,,,,,,,,,,198820,18,2022-01-30_01h45.22.523,lexical_decision_task_DD_L5,2021.2.3,MacIntel,60.0024001,,,,,,,,,,,,0.4848,1,,,,,,,,,,,,,,,,,,,,,,,,0.026996528,-0.383884549,0,0,0,,,,,,,CLOWN,LB,m,y,./images/CLOWNLB.png,,,,,,,m,1,0.4848,,,,,,,,0,49,49,22,1,
,,,,,,,,,,,,,,,,,198820,18,2022-01-30_01h45.22.523,lexical_decision_task_DD_L5,2021.2.3,MacIntel,60.0024001,,,,,,,,,,,,0.2753,1,,,,,,,,,,,,,,,,,,,,,,,,0.026996528,-0.383884549,0,0,0,,,,,,,BRIDE,LB,m,y,./images/BRIDELB.png,,,,,,,m,1,0.2753,,,,,,,,0,50,50,64,1,
,,,,,,,,,,,,,,,,,198820,18,2022-01-30_01h45.22.523,lexical_decision_task_DD_L5,2021.2.3,MacIntel,60.0024001,,,,,,,,,,,,0.2211,1,,,,,,,,,,,,,,,,,,,,,,,,0.026996528,-0.383884549,0,0,0,,,,,,,PARADE,C,m,y,./images/PARADE.png,,,,,,,m,1,0.2211,,,,,,,,0,51,51,17,1,
,,,,,,,,,,,,,,,,,198820,18,2022-01-30_01h45.22.523,lexical_decision_task_DD_L5,2021.2.3,MacIntel,60.0024001,,,,,,,,,,,,0.7678,0,,,,,,,,,,,,,,,,,,,,,,,,0.026996528,-0.383884549,0,0,0,,,,,,,STEAK,LB,m,y,./images/STEAKLB.png,,,,,,,z,0,0.7678,,,,,,,,0,52,52,31,1,
,,,,,,,,,,,,,,,,,198820,18,2022-01-30_01h45.22.523,lexical_decision_task_DD_L5,2021.2.3,MacIntel,60.0024001,,,,,,,,,,,,0.3654,0,,,,,,,,,,,,,,,,,,,,,,,,0.026996528,-0.383884549,0,0,0,,,,,,,MAGGOT,HB,z,y,./images/MAGGOTHB.png,,,,,,,m,0,0.3654,,,,,,,,0,53,53,117,1,
,,,,,,,,,,,,,,,,,198820,18,2022-01-30_01h45.22.523,lexical_decision_task_DD_L5,2021.2.3,MacIntel,60.0024001,,,,,,,,,,,,0.2832,0,,,,,,,,,,,,,,,,,,,,,,,,0.026996528,-0.383884549,0,0,0,,,,,,,WEASEL,C,z,y,./images/WEASEL.png,,,,,,,m,0,0.2832,,,,,,,,0,54,54,164,1,
,,,,,,,,,,,,,,,,,198820,18,2022-01-30_01h45.22.523,lexical_decision_task_DD_L5,2021.2.3,MacIntel,60.0024001,,,,,,,,,,,,0.4902,1,,,,,,,,,,,,,,,,,,,,,,,,0.026996528,-0.383884549,0,0,0,,,,,,,SLOPE,HB,m,y,./images/SLOPEHB.png,,,,,,,m,1,0.4902,,,,,,,,0,55,55,30,1,
,,,,,,,,,,,,,,,,,198820,18,2022-01-30_01h45.22.523,lexical_decision_task_DD_L5,2021.2.3,MacIntel,60.0024001,,,,,,,,,,,,0.4338,1,,,,,,,,,,,,,,,,,,,,,,,,0.026996528,-0.383884549,0,0,0,,,,,,,STRING,C,z,y,./images/STRING.png,,,,,,,z,1,0.4338,,,,,,,,0,56,56,125,1,
,,,,,,,,,,,,,,,,,198820,18,2022-01-30_01h45.22.523,lexical_decision_task_DD_L5,2021.2.3,MacIntel,60.0024001,,,,,,,,,,,,0.3898,1,,,,,,,,,,,,,,,,,,,,,,,,0.026996528,-0.383884549,0,0,0,,,,,,,DONKEY,LB,m,y,./images/DONKEYLB.png,,,,,,,m,1,0.3898,,,,,,,,0,57,57,19,1,
,,,,,,,,,,,,,,,,,198820,18,2022-01-30_01h45.22.523,lexical_decision_task_DD_L5,2021.2.3,MacIntel,60.0024001,,,,,,,,,,,,0.4219,0,,,,,,,,,,,,,,,,,,,,,,,,0.026996528,-0.383884549,0,0,0,,,,,,,INFANT,LB,z,y,./images/INFANTLB.png,,,,,,,m,0,0.4219,,,,,,,,0,58,58,160,1,
,,,,,,,,,,,,,,,,,198820,18,2022-01-30_01h45.22.523,lexical_decision_task_DD_L5,2021.2.3,MacIntel,60.0024001,,,,,,,,,,,,0.2007,1,,,,,,,,,,,,,,,,,,,,,,,,0.026996528,-0.383884549,0,0,0,,,,,,,SWING,LB,z,y,./images/SWINGLB.png,,,,,,,z,1,0.2007,,,,,,,,0,59,59,124,1,
,,,,,,,,,,,,,,,,,198820,18,2022-01-30_01h45.22.523,lexical_decision_task_DD_L5,2021.2.3,MacIntel,60.0024001,,,,,,,,,,,,0.3665,0,,,,,,,,,,,,,,,,,,,,,,,,0.026996528,-0.383884549,0,0,0,,,,,,,SMOKER,C,z,y,./images/SMOKER.png,,,,,,,m,0,0.3665,,,,,,,,0,60,60,110,1,
,,,,,,,,,,,,,,,,,198820,18,2022-01-30_01h45.22.523,lexical_decision_task_DD_L5,2021.2.3,MacIntel,60.0024001,,,,,,,,,,,,0.4326,0,,,,,,,,,,,,,,,,,,,,,,,,0.026996528,-0.383884549,0,0,0,,,,,,,PURSE,C,z,y,./images/PURSE.png,,,,,,,m,0,0.4326,,,,,,,,0,61,61,146,1,
,,,,,,,,,,,,,,,,,198820,18,2022-01-30_01h45.22.523,lexical_decision_task_DD_L5,2021.2.3,MacIntel,60.0024001,,,,,,,,,,,,0.3936,0,,,,,,,,,,,,,,,,,,,,,,,,0.026996528,-0.383884549,0,0,0,,,,,,,RULER,LB,m,y,./images/RULERLB.png,,,,,,,z,0,0.3936,,,,,,,,0,62,62,79,1,
,,,,,,,,,,,,,,,,,198820,18,2022-01-30_01h45.22.523,lexical_decision_task_DD_L5,2021.2.3,MacIntel,60.0024001,,,,,,,,,,,,0.2848,1,,,,,,,,,,,,,,,,,,,,,,,,0.026996528,-0.383884549,0,0,0,,,,,,,MEDAL,C,m,y,./images/MEDAL.png,,,,,,,m,1,0.2848,,,,,,,,0,63,63,11,1,
,,,,,,,,,,,,,,,,,198820,18,2022-01-30_01h45.22.523,lexical_decision_task_DD_L5,2021.2.3,MacIntel,60.0024001,,,,,,,,,,,,0.0156,1,,,,,,,,,,,,,,,,,,,,,,,,0.026996528,-0.383884549,0,0,0,,,,,,,POKER,LB,m,y,./images/POKERLB.png,,,,,,,m,1,0.0156,,,,,,,,0,64,64,67,1,
,,,,,,,,,,,,,,,,,198820,18,2022-01-30_01h45.22.523,lexical_decision_task_DD_L5,2021.2.3,MacIntel,60.0024001,,,,,,,,,,,,0.2984,1,,,,,,,,,,,,,,,,,,,,,,,,0.026996528,-0.383884549,0,0,0,,,,,,,RHINO,HB,z,y,./images/RHINOHB.png,,,,,,,z,1,0.2984,,,,,,,,0,65,65,93,1,
,,,,,,,,,,,,,,,,,198820,18,2022-01-30_01h45.22.523,lexical_decision_task_DD_L5,2021.2.3,MacIntel,60.0024001,,,,,,,,,,,,0.3021,0,,,,,,,,,,,,,,,,,,,,,,,,0.026996528,-0.383884549,0,0,0,,,,,,,SNACK,LB,z,y,./images/SNACKLB.png,,,,,,,m,0,0.3021,,,,,,,,0,66,66,157,1,
,,,,,,,,,,,,,,,,,198820,18,2022-01-30_01h45.22.523,lexical_decision_task_DD_L5,2021.2.3,MacIntel,60.0024001,,,,,,,,,,,,0.3827,0,,,,,,,,,,,,,,,,,,,,,,,,0.026996528,-0.383884549,0,0,0,,,,,,,LIZARD,C,z,y,./images/LIZARD.png,,,,,,,m,0,0.3827,,,,,,,,0,67,67,128,1,
,,,,,,,,,,,,,,,,,198820,18,2022-01-30_01h45.22.523,lexical_decision_task_DD_L5,2021.2.3,MacIntel,60.0024001,,,,,,,,,,,,0.0757,1,,,,,,,,,,,,,,,,,,,,,,,,0.026996528,-0.383884549,0,0,0,,,,,,,CRADLE,C,z,y,./images/CRADLE.png,,,,,,,z,1,0.0757,,,,,,,,0,68,68,104,1,
,,,,,,,,,,,,,,,,,198820,18,2022-01-30_01h45.22.523,lexical_decision_task_DD_L5,2021.2.3,MacIntel,60.0024001,,,,,,,,,,,,0.0007,1,,,,,,,,,,,,,,,,,,,,,,,,0.026996528,-0.383884549,0,0,0,,,,,,,LITTER,HB,z,y,./images/LITTERHB.png,,,,,,,z,1,0.0007,,,,,,,,0,69,69,162,1,
,,,,,,,,,,,,,,,,,198820,18,2022-01-30_01h45.22.523,lexical_decision_task_DD_L5,2021.2.3,MacIntel,60.0024001,,,,,,,,,,,,0.0028,0,,,,,,,,,,,,,,,,,,,,,,,,0.026996528,-0.383884549,0,0,0,,,,,,,BONNET,C,z,y,./images/BONNET.png,,,,,,,m,0,0.0028,,,,,,,,0,70,70,95,1,
,,,,,,,,,,,,,,,,,198820,18,2022-01-30_01h45.22.523,lexical_decision_task_DD_L5,2021.2.3,MacIntel,60.0024001,,,,,,,,,,,,0.2518,0,,,,,,,,,,,,,,,,,,,,,,,,0.026996528,-0.383884549,0,0,0,,,,,,,WALNUT,HB,m,y,./images/WALNUTHB.png,,,,,,,z,0,0.2518,,,,,,,,0,71,71,0,1,
,,,,,,,,,,,,,,,,,198820,18,2022-01-30_01h45.22.523,lexical_decision_task_DD_L5,2021.2.3,MacIntel,60.0024001,,,,,,,,,,,,0.539,0,,,,,,,,,,,,,,,,,,,,,,,,0.026996528,-0.383884549,0,0,0,,,,,,,POODLE,HB,z,y,./images/POODLEHB.png,,,,,,,m,0,0.539,,,,,,,,0,72,72,165,1,
,,,,,,,,,,,,,,,,,198820,18,2022-01-30_01h45.22.523,lexical_decision_task_DD_L5,2021.2.3,MacIntel,60.0024001,,,,,,,,,,,,0.1846,1,,,,,,,,,,,,,,,,,,,,,,,,0.026996528,-0.383884549,0,0,0,,,,,,,DANCER,HB,m,y,./images/DANCERHB.png,,,,,,,m,1,0.1846,,,,,,,,0,73,73,21,1,
,,,,,,,,,,,,,,,,,198820,18,2022-01-30_01h45.22.523,lexical_decision_task_DD_L5,2021.2.3,MacIntel,60.0024001,,,,,,,,,,,,0.202,0,,,,,,,,,,,,,,,,,,,,,,,,0.026996528,-0.383884549,0,0,0,,,,,,,VALLEY,C,m,y,./images/VALLEY.png,,,,,,,z,0,0.202,,,,,,,,0,74,74,68,1,
,,,,,,,,,,,,,,,,,198820,18,2022-01-30_01h45.22.523,lexical_decision_task_DD_L5,2021.2.3,MacIntel,60.0024001,,,,,,,,,,,,0.352,1,,,,,,,,,,,,,,,,,,,,,,,,0.026996528,-0.383884549,0,0,0,,,,,,,HOCKEY,C,m,y,./images/HOCKEY.png,,,,,,,m,1,0.352,,,,,,,,0,75,75,32,1,
,,,,,,,,,,,,,,,,,198820,18,2022-01-30_01h45.22.523,lexical_decision_task_DD_L5,2021.2.3,MacIntel,60.0024001,,,,,,,,,,,,0.7036,1,,,,,,,,,,,,,,,,,,,,,,,,0.026996528,-0.383884549,0,0,0,,,,,,,CEMENT,C,z,y,./images/CEMENT.png,,,,,,,z,1,0.7036,,,,,,,,0,76,76,158,1,
,,,,,,,,,,,,,,,,,198820,18,2022-01-30_01h45.22.523,lexical_decision_task_DD_L5,2021.2.3,MacIntel,60.0024001,,,,,,,,,,,,0.3574,0,,,,,,,,,,,,,,,,,,,,,,,,0.026996528,-0.383884549,0,0,0,,,,,,,GLOVE,LB,m,y,./images/GLOVELB.png,,,,,,,z,0,0.3574,,,,,,,,0,77,77,73,1,
,,,,,,,,,,,,,,,,,198820,18,2022-01-30_01h45.22.523,lexical_decision_task_DD_L5,2021.2.3,MacIntel,60.0024001,,,,,,,,,,,,0.3171,1,,,,,,,,,,,,,,,,,,,,,,,,0.026996528,-0.383884549,0,0,0,,,,,,,SPORT,HB,z,y,./images/SPORTHB.png,,,,,,,z,1,0.3171,,,,,,,,0,78,78,132,1,
,,,,,,,,,,,,,,,,,198820,18,2022-01-30_01h45.22.523,lexical_decision_task_DD_L5,2021.2.3,MacIntel,60.0024001,,,,,,,,,,,,0.6009,1,,,,,,,,,,,,,,,,,,,,,,,,0.026996528,-0.383884549,0,0,0,,,,,,,SAUCE,HB,m,y,./images/SAUCEHB.png,,,,,,,m,1,0.6009,,,,,,,,0,79,79,51,1,
,,,,,,,,,,,,,,,,,198820,18,2022-01-30_01h45.22.523,lexical_decision_task_DD_L5,2021.2.3,MacIntel,60.0024001,,,,,,,,,,,,0.29,1,,,,,,,,,,,,,,,,,,,,,,,,0.026996528,-0.383884549,0,0,0,,,,,,,SWEAT,HB,z,y,./images/SWEATHB.png,,,,,,,z,1,0.29,,,,,,,,0,80,80,150,1,
,,,,,,,,,,,,,,,,,198820,18,2022-01-30_01h45.22.523,lexical_decision_task_DD_L5,2021.2.3,MacIntel,60.0024001,,,,,,,,,,,,0.4495,0,,,,,,,,,,,,,,,,,,,,,,,,0.026996528,-0.383884549,0,0,0,,,,,,,BIRTH,LB,z,y,./images/BIRTHLB.png,,,,,,,m,0,0.4495,,,,,,,,0,81,81,121,1,
,,,,,,,,,,,,,,,,,198820,18,2022-01-30_01h45.22.523,lexical_decision_task_DD_L5,2021.2.3,MacIntel,60.0024001,,,,,,,,,,,,0.2678,0,,,,,,,,,,,,,,,,,,,,,,,,0.026996528,-0.383884549,0,0,0,,,,,,,CANDY,HB,m,y,./images/CANDYHB.png,,,,,,,z,0,0.2678,,,,,,,,0,82,82,39,1,
,,,,,,,,,,,,,,,,,198820,18,2022-01-30_01h45.22.523,lexical_decision_task_DD_L5,2021.2.3,MacIntel,60.0024001,,,,,,,,,,,,0.2927,0,,,,,,,,,,,,,,,,,,,,,,,,0.026996528,-0.383884549,0,0,0,space,,,,,,COLLAR,HB,m,y,./images/COLLARHB.png,1.069,,,,,,z,0,0.2927,,,,,,,,0,83,83,15,1,
,,,,,,,,,,,,,,,,,198820,18,2022-01-30_01h45.22.523,lexical_decision_task_DD_L5,2021.2.3,MacIntel,60.0024001,,,,,,,,,,,,0.2381,1,,,,,,,,,,,,,,,,,,,,,,,,0.026996528,-0.383884549,0,0,0,,,,,,,PEBBLE,LB,m,y,./images/PEBBLELB.png,,,,,,,m,1,0.2381,,,,,,,,0,84,84,82,1,
,,,,,,,,,,,,,,,,,198820,18,2022-01-30_01h45.22.523,lexical_decision_task_DD_L5,2021.2.3,MacIntel,60.0024001,,,,,,,,,,,,0.1573,0,,,,,,,,,,,,,,,,,,,,,,,,0.026996528,-0.383884549,0,0,0,,,,,,,HAMMER,HB,m,y,./images/HAMMERHB.png,,,,,,,z,0,0.1573,,,,,,,,0,85,85,75,1,
,,,,,,,,,,,,,,,,,198820,18,2022-01-30_01h45.22.523,lexical_decision_task_DD_L5,2021.2.3,MacIntel,60.0024001,,,,,,,,,,,,0.4521,0,,,,,,,,,,,,,,,,,,,,,,,,0.026996528,-0.383884549,0,0,0,,,,,,,CHALK,LB,m,y,./images/CHALKLB.png,,,,,,,z,0,0.4521,,,,,,,,0,86,86,25,1,
,,,,,,,,,,,,,,,,,198820,18,2022-01-30_01h45.22.523,lexical_decision_task_DD_L5,2021.2.3,MacIntel,60.0024001,,,,,,,,,,,,0.1518,1,,,,,,,,,,,,,,,,,,,,,,,,0.026996528,-0.383884549,0,0,0,,,,,,,BUNNY,LB,m,y,./images/BUNNYLB.png,,,,,,,m,1,0.1518,,,,,,,,0,87,87,13,1,
,,,,,,,,,,,,,,,,,198820,18,2022-01-30_01h45.22.523,lexical_decision_task_DD_L5,2021.2.3,MacIntel,60.0024001,,,,,,,,,,,,0.0154,1,,,,,,,,,,,,,,,,,,,,,,,,0.026996528,-0.383884549,0,0,0,,,,,,,BISHOP,LB,m,y,./images/BISHOPLB.png,,,,,,,m,1,0.0154,,,,,,,,0,88,88,49,1,
,,,,,,,,,,,,,,,,,198820,18,2022-01-30_01h45.22.523,lexical_decision_task_DD_L5,2021.2.3,MacIntel,60.0024001,,,,,,,,,,,,0.1674,1,,,,,,,,,,,,,,,,,,,,,,,,0.026996528,-0.383884549,0,0,0,,,,,,,MUSCLE,LB,z,y,./images/MUSCLELB.png,,,,,,,z,1,0.1674,,,,,,,,0,89,89,88,1,
,,,,,,,,,,,,,,,,,198820,18,2022-01-30_01h45.22.523,lexical_decision_task_DD_L5,2021.2.3,MacIntel,60.0024001,,,,,,,,,,,,0.0323,1,,,,,,,,,,,,,,,,,,,,,,,,0.026996528,-0.383884549,0,0,0,,,,,,,MOOSE,HB,z,y,./images/MOOSEHB.png,,,,,,,z,1,0.0323,,,,,,,,0,90,90,141,1,
,,,,,,,,,,,,,,,,,198820,18,2022-01-30_01h45.22.523,lexical_decision_task_DD_L5,2021.2.3,MacIntel,60.0024001,,,,,,,,,,,,0.1,0,,,,,,,,,,,,,,,,,,,,,,,,0.026996528,-0.383884549,0,0,0,,,,,,,DOUGH,LB,z,y,./images/DOUGHLB.png,,,,,,,m,0,0.1,,,,,,,,0,91,91,103,1,
,,,,,,,,,,,,,,,,,198820,18,2022-01-30_01h45.22.523,lexical_decision_task_DD_L5,2021.2.3,MacIntel,60.0024001,,,,,,,,,,,,0.0726,0,,,,,,,,,,,,,,,,,,,,,,,,0.026996528,-0.383884549,0,0,0,,,,,,,SAILOR,LB,z,y,./images/SAILORLB.png,,,,,,,m,0,0.0726,,,,,,,,0,92,92,151,1,
,,,,,,,,,,,,,,,,,198820,18,2022-01-30_01h45.22.523,lexical_decision_task_DD_L5,2021.2.3,MacIntel,60.0024001,,,,,,,,,,,,0.1276,1,,,,,,,,,,,,,,,,,,,,,,,,0.026996528,-0.383884549,0,0,0,,,,,,,BROOM,HB,m,y,./images/BROOMHB.png,,,,,,,m,1,0.1276,,,,,,,,0,93,93,78,1,
,,,,,,,,,,,,,,,,,198820,18,2022-01-30_01h45.22.523,lexical_decision_task_DD_L5,2021.2.3,MacIntel,60.0024001,,,,,,,,,,,,0.085,0,,,,,,,,,,,,,,,,,,,,,,,,0.026996528,-0.383884549,0,0,0,,,,,,,MUFFIN,LB,z,y,./images/MUFFINLB.png,,,,,,,m,0,0.085,,,,,,,,0,94,94,139,1,
,,,,,,,,,,,,,,,,,198820,18,2022-01-30_01h45.22.523,lexical_decision_task_DD_L5,2021.2.3,MacIntel,60.0024001,,,,,,,,,,,,0.0054,1,,,,,,,,,,,,,,,,,,,,,,,,0.026996528,-0.383884549,0,0,0,,,,,,,CHAIN,HB,m,y,./images/CHAINHB.png,,,,,,,m,1,0.0054,,,,,,,,0,95,95,42,1,
,,,,,,,,,,,,,,,,,198820,18,2022-01-30_01h45.22.523,lexical_decision_task_DD_L5,2021.2.3,MacIntel,60.0024001,,,,,,,,,,,,0.2379,0,,,,,,,,,,,,,,,,,,,,,,,,0.026996528,-0.383884549,0,0,0,,,,,,,PACKET,C,z,y,./images/PACKET.png,,,,,,,m,0,0.2379,,,,,,,,0,96,96,140,1,
,,,,,,,,,,,,,,,,,198820,18,2022-01-30_01h45.22.523,lexical_decision_task_DD_L5,2021.2.3,MacIntel,60.0024001,,,,,,,,,,,,0.2156,1,,,,,,,,,,,,,,,,,,,,,,,,0.026996528,-0.383884549,0,0,0,,,,,,,WRIST,LB,z,y,./images/WRISTLB.png,,,,,,,z,1,0.2156,,,,,,,,0,97,97,109,1,
,,,,,,,,,,,,,,,,,198820,18,2022-01-30_01h45.22.523,lexical_decision_task_DD_L5,2021.2.3,MacIntel,60.0024001,,,,,,,,,,,,0.0176,0,,,,,,,,,,,,,,,,,,,,,,,,0.026996528,-0.383884549,0,0,0,,,,,,,MALLET,C,z,y,./images/MALLET.png,,,,,,,m,0,0.0176,,,,,,,,0,98,98,134,1,
,,,,,,,,,,,,,,,,,198820,18,2022-01-30_01h45.22.523,lexical_decision_task_DD_L5,2021.2.3,MacIntel,60.0024001,,,,,,,,,,,,0.0583,1,,,,,,,,,,,,,,,,,,,,,,,,0.026996528,-0.383884549,0,0,0,,,,,,,FLESH,HB,m,y,./images/FLESHHB.png,,,,,,,m,1,0.0583,,,,,,,,0,99,99,24,1,
,,,,,,,,,,,,,,,,,198820,18,2022-01-30_01h45.22.523,lexical_decision_task_DD_L5,2021.2.3,MacIntel,60.0024001,,,,,,,,,,,,0.0304,0,,,,,,,,,,,,,,,,,,,,,,,,0.026996528,-0.383884549,0,0,0,,,,,,,WALRUS,C,z,y,./images/WALRUS.png,,,,,,,m,0,0.0304,,,,,,,,0,100,100,107,1,
,,,,,,,,,,,,,,,,,198820,18,2022-01-30_01h45.22.523,lexical_decision_task_DD_L5,2021.2.3,MacIntel,60.0024001,,,,,,,,,,,,0.1004,1,,,,,,,,,,,,,,,,,,,,,,,,0.026996528,-0.383884549,0,0,0,,,,,,,MAMMAL,C,m,y,./images/MAMMAL.png,,,,,,,m,1,0.1004,,,,,,,,0,101,101,62,1,
,,,,,,,,,,,,,,,,,198820,18,2022-01-30_01h45.22.523,lexical_decision_task_DD_L5,2021.2.3,MacIntel,60.0024001,,,,,,,,,,,,0.0632,1,,,,,,,,,,,,,,,,,,,,,,,,0.026996528,-0.383884549,0,0,0,,,,,,,PENCE,LB,z,y,./images/PENCELB.png,,,,,,,z,1,0.0632,,,,,,,,0,102,102,100,1,
,,,,,,,,,,,,,,,,,198820,18,2022-01-30_01h45.22.523,lexical_decision_task_DD_L5,2021.2.3,MacIntel,60.0024001,,,,,,,,,,,,0.0148,0,,,,,,,,,,,,,,,,,,,,,,,,0.026996528,-0.383884549,0,0,0,,,,,,,CLOTH,C,m,y,./images/CLOTH.png,,,,,,,z,0,0.0148,,,,,,,,0,103,103,23,1,
,,,,,,,,,,,,,,,,,198820,18,2022-01-30_01h45.22.523,lexical_decision_task_DD_L5,2021.2.3,MacIntel,60.0024001,,,,,,,,,,,,0.1001,0,,,,,,,,,,,,,,,,,,,,,,,,0.026996528,-0.383884549,0,0,0,,,,,,,LADDER,C,z,y,./images/LADDER.png,,,,,,,m,0,0.1001,,,,,,,,0,104,104,122,1,
,,,,,,,,,,,,,,,,,198820,18,2022-01-30_01h45.22.523,lexical_decision_task_DD_L5,2021.2.3,MacIntel,60.0024001,,,,,,,,,,,,0.1413,1,,,,,,,,,,,,,,,,,,,,,,,,0.026996528,-0.383884549,0,0,0,,,,,,,CRATER,HB,m,y,./images/CRATERHB.png,,,,,,,m,1,0.1413,,,,,,,,0,105,105,3,1,
,,,,,,,,,,,,,,,,,198820,18,2022-01-30_01h45.22.523,lexical_decision_task_DD_L5,2021.2.3,MacIntel,60.0024001,,,,,,,,,,,,0.0702,0,,,,,,,,,,,,,,,,,,,,,,,,0.026996528,-0.383884549,0,0,0,,,,,,,PIMPLE,C,z,y,./images/PIMPLE.png,,,,,,,m,0,0.0702,,,,,,,,0,106,106,155,1,
,,,,,,,,,,,,,,,,,198820,18,2022-01-30_01h45.22.523,lexical_decision_task_DD_L5,2021.2.3,MacIntel,60.0024001,,,,,,,,,,,,0.1039,0,,,,,,,,,,,,,,,,,,,,,,,,0.026996528,-0.383884549,0,0,0,,,,,,,SHIELD,HB,m,y,./images/SHIELDHB.png,,,,,,,z,0,0.1039,,,,,,,,0,107,107,48,1,
,,,,,,,,,,,,,,,,,198820,18,2022-01-30_01h45.22.523,lexical_decision_task_DD_L5,2021.2.3,MacIntel,60.0024001,,,,,,,,,,,,0.0986,0,,,,,,,,,,,,,,,,,,,,,,,,0.026996528,-0.383884549,0,0,0,,,,,,,LAGOON,C,m,y,./images/LAGOON.png,,,,,,,z,0,0.0986,,,,,,,,0,108,108,47,1,
,,,,,,,,,,,,,,,,,198820,18,2022-01-30_01h45.22.523,lexical_decision_task_DD_L5,2021.2.3,MacIntel,60.0024001,,,,,,,,,,,,0.0338,0,,,,,,,,,,,,,,,,,,,,,,,,0.026996528,-0.383884549,0,0,0,,,,,,,CASINO,LB,m,y,./images/CASINOLB.png,,,,,,,z,0,0.0338,,,,,,,,0,109,109,28,1,
,,,,,,,,,,,,,,,,,198820,18,2022-01-30_01h45.22.523,lexical_decision_task_DD_L5,2021.2.3,MacIntel,60.0024001,,,,,,,,,,,,0.134,1,,,,,,,,,,,,,,,,,,,,,,,,0.026996528,-0.383884549,0,0,0,,,,,,,PISTOL,C,m,y,./images/PISTOL.png,,,,,,,m,1,0.134,,,,,,,,0,110,110,29,1,
,,,,,,,,,,,,,,,,,198820,18,2022-01-30_01h45.22.523,lexical_decision_task_DD_L5,2021.2.3,MacIntel,60.0024001,,,,,,,,,,,,0.2132,1,,,,,,,,,,,,,,,,,,,,,,,,0.026996528,-0.383884549,0,0,0,,,,,,,TOWEL,LB,m,y,./images/TOWELLB.png,,,,,,,m,1,0.2132,,,,,,,,0,111,111,1,1,
,,,,,,,,,,,,,,,,,198820,18,2022-01-30_01h45.22.523,lexical_decision_task_DD_L5,2021.2.3,MacIntel,60.0024001,,,,,,,,,,,,0.0077,0,,,,,,,,,,,,,,,,,,,,,,,,0.026996528,-0.383884549,0,0,0,,,,,,,DIVER,HB,m,y,./images/DIVERHB.png,,,,,,,z,0,0.0077,,,,,,,,0,112,112,9,1,
,,,,,,,,,,,,,,,,,198820,18,2022-01-30_01h45.22.523,lexical_decision_task_DD_L5,2021.2.3,MacIntel,60.0024001,,,,,,,,,,,,0.2665,1,,,,,,,,,,,,,,,,,,,,,,,,0.026996528,-0.383884549,0,0,0,,,,,,,SAUNA,HB,m,y,./images/SAUNAHB.png,,,,,,,m,1,0.2665,,,,,,,,0,113,113,33,1,
,,,,,,,,,,,,,,,,,198820,18,2022-01-30_01h45.22.523,lexical_decision_task_DD_L5,2021.2.3,MacIntel,60.0024001,,,,,,,,,,,,0.0349,0,,,,,,,,,,,,,,,,,,,,,,,,0.026996528,-0.383884549,0,0,0,,,,,,,BASKET,C,m,y,./images/BASKET.png,,,,,,,z,0,0.0349,,,,,,,,0,114,114,44,1,
,,,,,,,,,,,,,,,,,198820,18,2022-01-30_01h45.22.523,lexical_decision_task_DD_L5,2021.2.3,MacIntel,60.0024001,,,,,,,,,,,,0.0885,1,,,,,,,,,,,,,,,,,,,,,,,,0.026996528,-0.383884549,0,0,0,,,,,,,BARREL,C,z,y,./images/BARREL.png,,,,,,,z,1,0.0885,,,,,,,,0,115,115,116,1,
,,,,,,,,,,,,,,,,,198820,18,2022-01-30_01h45.22.523,lexical_decision_task_DD_L5,2021.2.3,MacIntel,60.0024001,,,,,,,,,,,,0.0702,1,,,,,,,,,,,,,,,,,,,,,,,,0.026996528,-0.383884549,0,0,0,,,,,,,JUNGLE,C,z,y,./images/JUNGLE.png,,,,,,,z,1,0.0702,,,,,,,,0,116,116,167,1,
,,,,,,,,,,,,,,,,,198820,18,2022-01-30_01h45.22.523,lexical_decision_task_DD_L5,2021.2.3,MacIntel,60.0024001,,,,,,,,,,,,0.1682,0,,,,,,,,,,,,,,,,,,,,,,,,0.026996528,-0.383884549,0,0,0,,,,,,,MUMMY,LB,m,y,./images/MUMMYLB.png,,,,,,,z,0,0.1682,,,,,,,,0,117,117,46,1,
,,,,,,,,,,,,,,,,,198820,18,2022-01-30_01h45.22.523,lexical_decision_task_DD_L5,2021.2.3,MacIntel,60.0024001,,,,,,,,,,,,0.1362,0,,,,,,,,,,,,,,,,,,,,,,,,0.026996528,-0.383884549,0,0,0,,,,,,,LLAMA,C,m,y,./images/LLAMA.png,,,,,,,z,0,0.1362,,,,,,,,0,118,118,35,1,
,,,,,,,,,,,,,,,,,198820,18,2022-01-30_01h45.22.523,lexical_decision_task_DD_L5,2021.2.3,MacIntel,60.0024001,,,,,,,,,,,,0.1643,1,,,,,,,,,,,,,,,,,,,,,,,,0.026996528,-0.383884549,0,0,0,,,,,,,HEATER,C,m,y,./images/HEATER.png,,,,,,,m,1,0.1643,,,,,,,,0,119,119,56,1,
,,,,,,,,,,,,,,,,,198820,18,2022-01-30_01h45.22.523,lexical_decision_task_DD_L5,2021.2.3,MacIntel,60.0024001,,,,,,,,,,,,0.0548,1,,,,,,,,,,,,,,,,,,,,,,,,0.026996528,-0.383884549,0,0,0,,,,,,,FLASK,HB,m,y,./images/FLASKHB.png,,,,,,,m,1,0.0548,,,,,,,,0,120,120,72,1,
,,,,,,,,,,,,,,,,,198820,18,2022-01-30_01h45.22.523,lexical_decision_task_DD_L5,2021.2.3,MacIntel,60.0024001,,,,,,,,,,,,0.1512,1,,,,,,,,,,,,,,,,,,,,,,,,0.026996528,-0.383884549,0,0,0,,,,,,,GREASE,HB,z,y,./images/GREASEHB.png,,,,,,,z,1,0.1512,,,,,,,,0,121,121,99,1,
,,,,,,,,,,,,,,,,,198820,18,2022-01-30_01h45.22.523,lexical_decision_task_DD_L5,2021.2.3,MacIntel,60.0024001,,,,,,,,,,,,0.1335,0,,,,,,,,,,,,,,,,,,,,,,,,0.026996528,-0.383884549,0,0,0,,,,,,,STOOL,LB,m,y,./images/STOOLLB.png,,,,,,,z,0,0.1335,,,,,,,,0,122,122,43,1,
,,,,,,,,,,,,,,,,,198820,18,2022-01-30_01h45.22.523,lexical_decision_task_DD_L5,2021.2.3,MacIntel,60.0024001,,,,,,,,,,,,0.0148,0,,,,,,,,,,,,,,,,,,,,,,,,0.026996528,-0.383884549,0,0,0,,,,,,,BUBBLE,C,m,y,./images/BUBBLE.png,,,,,,,z,0,0.0148,,,,,,,,0,123,123,71,1,
,,,,,,,,,,,,,,,,,198820,18,2022-01-30_01h45.22.523,lexical_decision_task_DD_L5,2021.2.3,MacIntel,60.0024001,,,,,,,,,,,,0.0247,1,,,,,,,,,,,,,,,,,,,,,,,,0.026996528,-0.383884549,0,0,0,,,,,,,WHISKY,C,m,y,./images/WHISKY.png,,,,,,,m,1,0.0247,,,,,,,,0,124,124,83,1,
,,,,,,,,,,,,,,,,,198820,18,2022-01-30_01h45.22.523,lexical_decision_task_DD_L5,2021.2.3,MacIntel,60.0024001,,,,,,,,,,,,0.1699,1,,,,,,,,,,,,,,,,,,,,,,,,0.026996528,-0.383884549,0,0,0,space,,,,,,ENGINE,C,m,y,./images/ENGINE.png,1.4694,,,,,,m,1,0.1699,,,,,,,,0,125,125,38,1,
,,,,,,,,,,,,,,,,,198820,18,2022-01-30_01h45.22.523,lexical_decision_task_DD_L5,2021.2.3,MacIntel,60.0024001,,,,,,,,,,,,0.0003,0,,,,,,,,,,,,,,,,,,,,,,,,0.026996528,-0.383884549,0,0,0,,,,,,,GRANNY,C,m,y,./images/GRANNY.png,,,,,,,z,0,0.0003,,,,,,,,0,126,126,20,1,
,,,,,,,,,,,,,,,,,198820,18,2022-01-30_01h45.22.523,lexical_decision_task_DD_L5,2021.2.3,MacIntel,60.0024001,,,,,,,,,,,,0.0173,1,,,,,,,,,,,,,,,,,,,,,,,,0.026996528,-0.383884549,0,0,0,,,,,,,TRIPOD,HB,z,y,./images/TRIPODHB.png,,,,,,,z,1,0.0173,,,,,,,,0,127,127,138,1,
,,,,,,,,,,,,,,,,,198820,18,2022-01-30_01h45.22.523,lexical_decision_task_DD_L5,2021.2.3,MacIntel,60.0024001,,,,,,,,,,,,0.0862,0,,,,,,,,,,,,,,,,,,,,,,,,0.026996528,-0.383884549,0,0,0,,,,,,,THROAT,HB,z,y,./images/THROATHB.png,,,,,,,m,0,0.0862,,,,,,,,0,128,128,120,1,
,,,,,,,,,,,,,,,,,198820,18,2022-01-30_01h45.22.523,lexical_decision_task_DD_L5,2021.2.3,MacIntel,60.0024001,,,,,,,,,,,,0.0472,1,,,,,,,,,,,,,,,,,,,,,,,,0.026996528,-0.383884549,0,0,0,,,,,,,STAIN,HB,m,y,./images/STAINHB.png,,,,,,,m,1,0.0472,,,,,,,,0,129,129,6,1,
,,,,,,,,,,,,,,,,,198820,18,2022-01-30_01h45.22.523,lexical_decision_task_DD_L5,2021.2.3,MacIntel,60.0024001,,,,,,,,,,,,0.1371,0,,,,,,,,,,,,,,,,,,,,,,,,0.026996528,-0.383884549,0,0,0,,,,,,,SUNSET,LB,z,y,./images/SUNSETLB.png,,,,,,,m,0,0.1371,,,,,,,,0,130,130,166,1,
,,,,,,,,,,,,,,,,,198820,18,2022-01-30_01h45.22.523,lexical_decision_task_DD_L5,2021.2.3,MacIntel,60.0024001,,,,,,,,,,,,0.1672,0,,,,,,,,,,,,,,,,,,,,,,,,0.026996528,-0.383884549,0,0,0,,,,,,,KITTEN,HB,z,y,./images/KITTENHB.png,,,,,,,m,0,0.1672,,,,,,,,0,131,131,129,1,
,,,,,,,,,,,,,,,,,198820,18,2022-01-30_01h45.22.523,lexical_decision_task_DD_L5,2021.2.3,MacIntel,60.0024001,,,,,,,,,,,,0.1069,1,,,,,,,,,,,,,,,,,,,,,,,,0.026996528,-0.383884549,0,0,0,,,,,,,PLANK,LB,z,y,./images/PLANKLB.png,,,,,,,z,1,0.1069,,,,,,,,0,132,132,85,1,
,,,,,,,,,,,,,,,,,198820,18,2022-01-30_01h45.22.523,lexical_decision_task_DD_L5,2021.2.3,MacIntel,60.0024001,,,,,,,,,,,,0.0721,0,,,,,,,,,,,,,,,,,,,,,,,,0.026996528,-0.383884549,0,0,0,,,,,,,ONION,HB,z,y,./images/ONIONHB.png,,,,,,,m,0,0.0721,,,,,,,,0,133,133,135,1,
,,,,,,,,,,,,,,,,,198820,18,2022-01-30_01h45.22.523,lexical_decision_task_DD_L5,2021.2.3,MacIntel,60.0024001,,,,,,,,,,,,0.0004,0,,,,,,,,,,,,,,,,,,,,,,,,0.026996528,-0.383884549,0,0,0,,,,,,,MONKEY,HB,m,y,./images/MONKEYHB.png,,,,,,,z,0,0.0004,,,,,,,,0,134,134,45,1,
,,,,,,,,,,,,,,,,,198820,18,2022-01-30_01h45.22.523,lexical_decision_task_DD_L5,2021.2.3,MacIntel,60.0024001,,,,,,,,,,,,0.0657,0,,,,,,,,,,,,,,,,,,,,,,,,0.026996528,-0.383884549,0,0,0,,,,,,,TOMATO,HB,z,y,./images/TOMATOHB.png,,,,,,,m,0,0.0657,,,,,,,,0,135,135,84,1,
,,,,,,,,,,,,,,,,,198820,18,2022-01-30_01h45.22.523,lexical_decision_task_DD_L5,2021.2.3,MacIntel,60.0024001,,,,,,,,,,,,17.9511,1,,,,,,,,,,,,,,,,,,,,,,,,0.026996528,-0.383884549,0,0,0,,,,,,,FARMER,C,z,y,./images/FARMER.png,,,,,,,z,1,17.9511,,,,,,,,0,136,136,149,1,
,,,,,,,,,,,,,,,,,198820,18,2022-01-30_01h45.22.523,lexical_decision_task_DD_L5,2021.2.3,MacIntel,60.0024001,,,,,,,,,,,,0.6204,1,,,,,,,,,,,,,,,,,,,,,,,,0.026996528,-0.383884549,0,0,0,,,,,,,CANOE,LB,m,y,./images/CANOELB.png,,,,,,,m,1,0.6204,,,,,,,,0,137,137,58,1,
,,,,,,,,,,,,,,,,,198820,18,2022-01-30_01h45.22.523,lexical_decision_task_DD_L5,2021.2.3,MacIntel,60.0024001,,,,,,,,,,,,0.2007,1,,,,,,,,,,,,,,,,,,,,,,,,0.026996528,-0.383884549,0,0,0,,,,,,,PASTA,C,z,y,./images/PASTA.png,,,,,,,z,1,0.2007,,,,,,,,0,138,138,89,1,
,,,,,,,,,,,,,,,,,198820,18,2022-01-30_01h45.22.523,lexical_decision_task_DD_L5,2021.2.3,MacIntel,60.0024001,,,,,,,,,,,,0.0002,0,,,,,,,,,,,,,,,,,,,,,,,,0.026996528,-0.383884549,0,0,0,,,,,,,SPINE,C,m,y,./images/SPINE.png,,,,,,,z,0,0.0002,,,,,,,,0,139,139,65,1,
,,,,,,,,,,,,,,,,,198820,18,2022-01-30_01h45.22.523,lexical_decision_task_DD_L5,2021.2.3,MacIntel,60.0024001,,,,,,,,,,,,0.0519,0,,,,,,,,,,,,,,,,,,,,,,,,0.026996528,-0.383884549,0,0,0,,,,,,,CRUST,LB,z,y,./images/CRUSTLB.png,,,,,,,m,0,0.0519,,,,,,,,0,140,140,163,1,
,,,,,,,,,,,,,,,,,198820,18,2022-01-30_01h45.22.523,lexical_decision_task_DD_L5,2021.2.3,MacIntel,60.0024001,,,,,,,,,,,,0.1904,1,,,,,,,,,,,,,,,,,,,,,,,,0.026996528,-0.383884549,0,0,0,,,,,,,SKIING,C,z,y,./images/SKIING.png,,,,,,,z,1,0.1904,,,,,,,,0,141,141,101,1,
,,,,,,,,,,,,,,,,,198820,18,2022-01-30_01h45.22.523,lexical_decision_task_DD_L5,2021.2.3,MacIntel,60.0024001,,,,,,,,,,,,0.1171,1,,,,,,,,,,,,,,,,,,,,,,,,0.026996528,-0.383884549,0,0,0,,,,,,,GARDEN,LB,m,y,./images/GARDENLB.png,,,,,,,m,1,0.1171,,,,,,,,0,142,142,10,1,
,,,,,,,,,,,,,,,,,198820,18,2022-01-30_01h45.22.523,lexical_decision_task_DD_L5,2021.2.3,MacIntel,60.0024001,,,,,,,,,,,,0.052,1,,,,,,,,,,,,,,,,,,,,,,,,0.026996528,-0.383884549,0,0,0,,,,,,,STOVE,C,m,y,./images/STOVE.png,,,,,,,m,1,0.052,,,,,,,,0,143,143,2,1,
,,,,,,,,,,,,,,,,,198820,18,2022-01-30_01h45.22.523,lexical_decision_task_DD_L5,2021.2.3,MacIntel,60.0024001,,,,,,,,,,,,0.089,0,,,,,,,,,,,,,,,,,,,,,,,,0.026996528,-0.383884549,0,0,0,,,,,,,URINE,LB,z,y,./images/URINELB.png,,,,,,,m,0,0.089,,,,,,,,0,144,144,154,1,
,,,,,,,,,,,,,,,,,198820,18,2022-01-30_01h45.22.523,lexical_decision_task_DD_L5,2021.2.3,MacIntel,60.0024001,,,,,,,,,,,,0.0056,1,,,,,,,,,,,,,,,,,,,,,,,,0.026996528,-0.383884549,0,0,0,,,,,,,CRUMB,C,z,y,./images/CRUMB.png,,,,,,,z,1,0.0056,,,,,,,,0,145,145,113,1,
,,,,,,,,,,,,,,,,,198820,18,2022-01-30_01h45.22.523,lexical_decision_task_DD_L5,2021.2.3,MacIntel,60.0024001,,,,,,,,,,,,0.0643,0,,,,,,,,,,,,,,,,,,,,,,,,0.026996528,-0.383884549,0,0,0,,,,,,,CHERRY,HB,m,y,./images/CHERRYHB.png,,,,,,,z,0,0.0643,,,,,,,,0,146,146,54,1,
,,,,,,,,,,,,,,,,,198820,18,2022-01-30_01h45.22.523,lexical_decision_task_DD_L5,2021.2.3,MacIntel,60.0024001,,,,,,,,,,,,0.2332,0,,,,,,,,,,,,,,,,,,,,,,,,0.026996528,-0.383884549,0,0,0,,,,,,,BAMBOO,C,m,y,./images/BAMBOO.png,,,,,,,z,0,0.2332,,,,,,,,0,147,147,5,1,
,,,,,,,,,,,,,,,,,198820,18,2022-01-30_01h45.22.523,lexical_decision_task_DD_L5,2021.2.3,MacIntel,60.0024001,,,,,,,,,,,,0.1929,0,,,,,,,,,,,,,,,,,,,,,,,,0.026996528,-0.383884549,0,0,0,,,,,,,CANDLE,LB,z,y,./images/CANDLELB.png,,,,,,,m,0,0.1929,,,,,,,,0,148,148,145,1,
,,,,,,,,,,,,,,,,,198820,18,2022-01-30_01h45.22.523,lexical_decision_task_DD_L5,2021.2.3,MacIntel,60.0024001,,,,,,,,,,,,0.0053,0,,,,,,,,,,,,,,,,,,,,,,,,0.026996528,-0.383884549,0,0,0,,,,,,,FINGER,HB,z,y,./images/FINGERHB.png,,,,,,,m,0,0.0053,,,,,,,,0,149,149,87,1,
,,,,,,,,,,,,,,,,,198820,18,2022-01-30_01h45.22.523,lexical_decision_task_DD_L5,2021.2.3,MacIntel,60.0024001,,,,,,,,,,,,0.2317,0,,,,,,,,,,,,,,,,,,,,,,,,0.026996528,-0.383884549,0,0,0,,,,,,,QUILL,LB,z,y,./images/QUILLLB.png,,,,,,,m,0,0.2317,,,,,,,,0,150,150,115,1,
,,,,,,,,,,,,,,,,,198820,18,2022-01-30_01h45.22.523,lexical_decision_task_DD_L5,2021.2.3,MacIntel,60.0024001,,,,,,,,,,,,0.7315,1,,,,,,,,,,,,,,,,,,,,,,,,0.026996528,-0.383884549,0,0,0,,,,,,,STREAM,C,m,y,./images/STREAM.png,,,,,,,m,1,0.7315,,,,,,,,0,151,151,41,1,
,,,,,,,,,,,,,,,,,198820,18,2022-01-30_01h45.22.523,lexical_decision_task_DD_L5,2021.2.3,MacIntel,60.0024001,,,,,,,,,,,,0.1848,1,,,,,,,,,,,,,,,,,,,,,,,,0.026996528,-0.383884549,0,0,0,,,,,,,CARPET,C,z,y,./images/CARPET.png,,,,,,,z,1,0.1848,,,,,,,,0,152,152,137,1,
,,,,,,,,,,,,,,,,,198820,18,2022-01-30_01h45.22.523,lexical_decision_task_DD_L5,2021.2.3,MacIntel,60.0024001,,,,,,,,,,,,0.141,1,,,,,,,,,,,,,,,,,,,,,,,,0.026996528,-0.383884549,0,0,0,,,,,,,TULIP,C,z,y,./images/TULIP.png,,,,,,,z,1,0.141,,,,,,,,0,153,153,92,1,
,,,,,,,,,,,,,,,,,198820,18,2022-01-30_01h45.22.523,lexical_decision_task_DD_L5,2021.2.3,MacIntel,60.0024001,,,,,,,,,,,,0.0386,0,,,,,,,,,,,,,,,,,,,,,,,,0.026996528,-0.383884549,0,0,0,,,,,,,SQUARE,HB,z,y,./images/SQUAREHB.png,,,,,,,m,0,0.0386,,,,,,,,0,154,154,90,1,
,,,,,,,,,,,,,,,,,198820,18,2022-01-30_01h45.22.523,lexical_decision_task_DD_L5,2021.2.3,MacIntel,60.0024001,,,,,,,,,,,,0.1174,0,,,,,,,,,,,,,,,,,,,,,,,,0.026996528,-0.383884549,0,0,0,,,,,,,CANYON,LB,z,y,./images/CANYONLB.png,,,,,,,m,0,0.1174,,,,,,,,0,155,155,118,1,
,,,,,,,,,,,,,,,,,198820,18,2022-01-30_01h45.22.523,lexical_decision_task_DD_L5,2021.2.3,MacIntel,60.0024001,,,,,,,,,,,,0.0312,1,,,,,,,,,,,,,,,,,,,,,,,,0.026996528,-0.383884549,0,0,0,,,,,,,BUTTER,HB,m,y,./images/BUTTERHB.png,,,,,,,m,1,0.0312,,,,,,,,0,156,156,27,1,
,,,,,,,,,,,,,,,,,198820,18,2022-01-30_01h45.22.523,lexical_decision_task_DD_L5,2021.2.3,MacIntel,60.0024001,,,,,,,,,,,,0.2526,0,,,,,,,,,,,,,,,,,,,,,,,,0.026996528,-0.383884549,0,0,0,,,,,,,ARTIST,LB,m,y,./images/ARTISTLB.png,,,,,,,z,0,0.2526,,,,,,,,0,157,157,61,1,
,,,,,,,,,,,,,,,,,198820,18,2022-01-30_01h45.22.523,lexical_decision_task_DD_L5,2021.2.3,MacIntel,60.0024001,,,,,,,,,,,,0.0501,1,,,,,,,,,,,,,,,,,,,,,,,,0.026996528,-0.383884549,0,0,0,,,,,,,MIRROR,HB,z,y,./images/MIRRORHB.png,,,,,,,z,1,0.0501,,,,,,,,0,158,158,147,1,
,,,,,,,,,,,,,,,,,198820,18,2022-01-30_01h45.22.523,lexical_decision_task_DD_L5,2021.2.3,MacIntel,60.0024001,,,,,,,,,,,,0.0268,1,,,,,,,,,,,,,,,,,,,,,,,,0.026996528,-0.383884549,0,0,0,,,,,,,COUCH,C,z,y,./images/COUCH.png,,,,,,,z,1,0.0268,,,,,,,,0,159,159,161,1,
,,,,,,,,,,,,,,,,,198820,18,2022-01-30_01h45.22.523,lexical_decision_task_DD_L5,2021.2.3,MacIntel,60.0024001,,,,,,,,,,,,0.0192,0,,,,,,,,,,,,,,,,,,,,,,,,0.026996528,-0.383884549,0,0,0,,,,,,,KIDNEY,HB,z,y,./images/KIDNEYHB.png,,,,,,,m,0,0.0192,,,,,,,,0,160,160,105,1,
,,,,,,,,,,,,,,,,,198820,18,2022-01-30_01h45.22.523,lexical_decision_task_DD_L5,2021.2.3,MacIntel,60.0024001,,,,,,,,,,,,0.0584,0,,,,,,,,,,,,,,,,,,,,,,,,0.026996528,-0.383884549,0,0,0,,,,,,,STATUE,HB,m,y,./images/STATUEHB.png,,,,,,,z,0,0.0584,,,,,,,,0,161,161,66,1,
,,,,,,,,,,,,,,,,,198820,18,2022-01-30_01h45.22.523,lexical_decision_task_DD_L5,2021.2.3,MacIntel,60.0024001,,,,,,,,,,,,0.1753,0,,,,,,,,,,,,,,,,,,,,,,,,0.026996528,-0.383884549,0,0,0,,,,,,,PEARL,LB,z,y,./images/PEARLLB.png,,,,,,,m,0,0.1753,,,,,,,,0,162,162,130,1,
,,,,,,,,,,,,,,,,,198820,18,2022-01-30_01h45.22.523,lexical_decision_task_DD_L5,2021.2.3,MacIntel,60.0024001,,,,,,,,,,,,0.0139,0,,,,,,,,,,,,,,,,,,,,,,,,0.026996528,-0.383884549,0,0,0,,,,,,,BEARD,C,z,y,./images/BEARD.png,,,,,,,m,0,0.0139,,,,,,,,0,163,163,86,1,
,,,,,,,,,,,,,,,,,198820,18,2022-01-30_01h45.22.523,lexical_decision_task_DD_L5,2021.2.3,MacIntel,60.0024001,,,,,,,,,,,,0.0302,1,,,,,,,,,,,,,,,,,,,,,,,,0.026996528,-0.383884549,0,0,0,,,,,,,CLOUD,C,m,y,./images/CLOUD.png,,,,,,,m,1,0.0302,,,,,,,,0,164,164,26,1,
,,,,,,,,,,,,,,,,,198820,18,2022-01-30_01h45.22.523,lexical_decision_task_DD_L5,2021.2.3,MacIntel,60.0024001,,,,,,,,,,,,0.1147,0,,,,,,,,,,,,,,,,,,,,,,,,0.026996528,-0.383884549,0,0,0,,,,,,,PILOT,C,m,y,./images/PILOT.png,,,,,,,z,0,0.1147,,,,,,,,0,165,165,50,1,
,,,,,,,,,,,,,,,,,198820,18,2022-01-30_01h45.22.523,lexical_decision_task_DD_L5,2021.2.3,MacIntel,60.0024001,,,,,,,,,,,,0.2183,0,,,,,,,,,,,,,,,,,,,,,,,,0.026996528,-0.383884549,0,0,0,,,,,,,MOSQUE,LB,z,y,./images/MOSQUELB.png,,,,,,,m,0,0.2183,,,,,,,,0,166,166,127,1,
,,,,,,,,,,,,,,,,,198820,18,2022-01-30_01h45.22.523,lexical_decision_task_DD_L5,2021.2.3,MacIntel,60.0024001,,,,,,,,,,,,0.1352,0,,,,,,,,,,,,,,,,,,,,,,,,0.026996528,-0.383884549,0,0,0,,,,,,,FENCE,C,m,y,./images/FENCE.png,,,,,,,z,0,0.1352,,,,,,,,0,167,167,14,1,
