key_resp.keys,instr_done_touch.x,instr_done_touch.y,instr_done_touch.leftButton,instr_done_touch.midButton,instr_done_touch.rightButton,instr_done_touch.clicked_name,instruction_pages.thisRepN,instruction_pages.thisTrialN,instruction_pages.thisN,instruction_pages.thisIndex,instruction_pages.ran,pageN,phase,instruct_text,has_image,instruct_image,participant,age,date,expName,psychopyVersion,OS,frameRate,response.keys,response.corr,response.rt,touch_resp.x,touch_resp.y,touch_resp.leftButton,touch_resp.midButton,touch_resp.rightButton,touch_resp.time,touch_resp.clicked_name,rt,corr,practrials.thisRepN,practrials.thisTrialN,practrials.thisN,practrials.thisIndex,practrials.ran,TrialID,Target,corrAns,end_of_practice_trials_pages.thisRepN,end_of_practice_trials_pages.thisTrialN,end_of_practice_trials_pages.thisN,end_of_practice_trials_pages.thisIndex,end_of_practice_trials_pages.ran,key_resp_2.keys,key_resp_2.corr,key_resp_2.rt,targ_click.x,targ_click.y,targ_click.leftButton,targ_click.midButton,targ_click.rightButton,targ_click.time,targ_click.clicked_name,break_done_touch.x,break_done_touch.y,break_done_touch.leftButton,break_done_touch.midButton,break_done_touch.rightButton,break_done_keyboard.keys,maintrials.thisRepN,maintrials.thisTrialN,maintrials.thisN,maintrials.thisIndex,maintrials.ran,string,blur,study,lex,stim_path,break_done_touch.clicked_name,break_done_keyboard.rt,key_resp.rt,test_instructions.thisRepN,test_instructions.thisTrialN,test_instructions.thisN,test_instructions.thisIndex,test_instructions.ran,key_resp_3.keys,key_resp_3.corr,key_resp_3.rt,test_click.x,test_click.y,test_click.leftButton,test_click.midButton,test_click.rightButton,test_click.time,test_click.clicked_name,test_phase.thisRepN,test_phase.thisTrialN,test_phase.thisN,test_phase.thisIndex,test_phase.ran
,0.041536458,-0.435347222,1,0,0,instr_done_button,0,0,0,0,1,1,instructions,"INSTRUCTIONS
At the start of each trial, look at the plus sign  (+) in the center of the screen.  This tells you that a trial is about to begin and where to look. Second, the plus sign will disappear and a string of letters will appear. Your task is to determine if the string of letters is a word or not. If the item is a word press the M key (on keyboard)  or touch the word button (phone/tablet).  If the item is not a word,  press the  Z key (on keyboard)  or touch the nonword button (on phone/tablet). 
Press the space bar or touch  continue.",0,,198967,18,2022-01-28_19h31.46.631,lexical_decision_task_DD_L5,2021.2.3,MacIntel,59.99880002,,,,,,,,,,,,,,,,,,,,,,,,,,,,,,,,,,,,,,,,,,,,,,,,,,,,,,,,,,,,,,,,,,,,,,,,,,
,0.017721354,-0.4065625,1,0,0,instr_done_button,0,1,1,1,1,2,instructions,"If your device has a keyboard, press the 'Z' key for nonwords and the 'M' key for words.





Press the space bar or touch the button below to continue.",0,keyboard-example.gif,198967,18,2022-01-28_19h31.46.631,lexical_decision_task_DD_L5,2021.2.3,MacIntel,59.99880002,,,,,,,,,,,,,,,,,,,,,,,,,,,,,,,,,,,,,,,,,,,,,,,,,,,,,,,,,,,,,,,,,,,,,,,,,,
,0.014309896,-0.399483507,1,0,0,instr_done_button,0,2,2,2,1,3,instructions,"If you are using a touchscreen only device, use the buttons on the screen. Do not use the mouse.





Press the space bar or touch the button below to continue.",0,touchscreen-example.gif,198967,18,2022-01-28_19h31.46.631,lexical_decision_task_DD_L5,2021.2.3,MacIntel,59.99880002,,,,,,,,,,,,,,,,,,,,,,,,,,,,,,,,,,,,,,,,,,,,,,,,,,,,,,,,,,,,,,,,,,,,,,,,,,
,0.015377604,-0.399483507,1,0,0,instr_done_button,0,3,3,3,1,4,instructions,"It is very important that you respond as quickly and accurately as possible, as each letter string will only be on the screen for two seconds. If you do not respond within this time, the message 'Too slow!' will be displayed and the experiment will progress to the next letter string. The first 20 trials will be practice trials and you will receive feedback on your answers. 

Press the space bar or touch the button below to start the practice trials.",0,,198967,18,2022-01-28_19h31.46.631,lexical_decision_task_DD_L5,2021.2.3,MacIntel,59.99880002,,,,,,,,,,,,,,,,,,,,,,,,,,,,,,,,,,,,,,,,,,,,,,,,,,,,,,,,,,,,,,,,,,,,,,,,,,
,,,,,,,,,,,,,,,,,198967,18,2022-01-28_19h31.46.631,lexical_decision_task_DD_L5,2021.2.3,MacIntel,59.99880002,m,1,1.6061,,,,,,,,1.6061,1,0,0,0,7,1,1001,VOLUME,m,,,,,,,,,,,,,,,,,,,,,,,,,,,,,,,,,,,,,,,,,,,,,,,,,,,,,,
,,,,,,,,,,,,,,,,,198967,18,2022-01-28_19h31.46.631,lexical_decision_task_DD_L5,2021.2.3,MacIntel,59.99880002,z,1,1.3328,,,,,,,,1.3328,1,0,1,1,12,1,1001,SPRINY,z,,,,,,,,,,,,,,,,,,,,,,,,,,,,,,,,,,,,,,,,,,,,,,,,,,,,,,
,,,,,,,,,,,,,,,,,198967,18,2022-01-28_19h31.46.631,lexical_decision_task_DD_L5,2021.2.3,MacIntel,59.99880002,m,1,0.5773,,,,,,,,0.5773,1,0,2,2,6,1,1001,ZOMBIE,m,,,,,,,,,,,,,,,,,,,,,,,,,,,,,,,,,,,,,,,,,,,,,,,,,,,,,,
,,,,,,,,,,,,,,,,,198967,18,2022-01-28_19h31.46.631,lexical_decision_task_DD_L5,2021.2.3,MacIntel,59.99880002,z,1,0.8971,,,,,,,,0.8971,1,0,3,3,13,1,1001,ROUPET,z,,,,,,,,,,,,,,,,,,,,,,,,,,,,,,,,,,,,,,,,,,,,,,,,,,,,,,
,,,,,,,,,,,,,,,,,198967,18,2022-01-28_19h31.46.631,lexical_decision_task_DD_L5,2021.2.3,MacIntel,59.99880002,m,1,0.6142,,,,,,,,0.6142,1,0,4,4,4,1,1001,SQUEAK,m,,,,,,,,,,,,,,,,,,,,,,,,,,,,,,,,,,,,,,,,,,,,,,,,,,,,,,
,,,,,,,,,,,,,,,,,198967,18,2022-01-28_19h31.46.631,lexical_decision_task_DD_L5,2021.2.3,MacIntel,59.99880002,z,1,0.9049,,,,,,,,0.9049,1,0,5,5,11,1,1001,RASHET,z,,,,,,,,,,,,,,,,,,,,,,,,,,,,,,,,,,,,,,,,,,,,,,,,,,,,,,
,,,,,,,,,,,,,,,,,198967,18,2022-01-28_19h31.46.631,lexical_decision_task_DD_L5,2021.2.3,MacIntel,59.99880002,m,0,0.9236,,,,,,,,0.9236,0,0,6,6,10,1,1001,INLADE,z,,,,,,,,,,,,,,,,,,,,,,,,,,,,,,,,,,,,,,,,,,,,,,,,,,,,,,
,,,,,,,,,,,,,,,,,198967,18,2022-01-28_19h31.46.631,lexical_decision_task_DD_L5,2021.2.3,MacIntel,59.99880002,m,1,0.6147,,,,,,,,0.6147,1,0,7,7,1,1,1001,ADJUST,m,,,,,,,,,,,,,,,,,,,,,,,,,,,,,,,,,,,,,,,,,,,,,,,,,,,,,,
,,,,,,,,,,,,,,,,,198967,18,2022-01-28_19h31.46.631,lexical_decision_task_DD_L5,2021.2.3,MacIntel,59.99880002,m,1,0.5025,,,,,,,,0.5025,1,0,8,8,2,1,1001,ALMOND,m,,,,,,,,,,,,,,,,,,,,,,,,,,,,,,,,,,,,,,,,,,,,,,,,,,,,,,
,,,,,,,,,,,,,,,,,198967,18,2022-01-28_19h31.46.631,lexical_decision_task_DD_L5,2021.2.3,MacIntel,59.99880002,z,1,0.6951,,,,,,,,0.6951,1,0,9,9,15,1,1001,WHAISE,z,,,,,,,,,,,,,,,,,,,,,,,,,,,,,,,,,,,,,,,,,,,,,,,,,,,,,,
,,,,,,,,,,,,,,,,,198967,18,2022-01-28_19h31.46.631,lexical_decision_task_DD_L5,2021.2.3,MacIntel,59.99880002,z,1,0.8355,,,,,,,,0.8355,1,0,10,10,9,1,1001,FARINY,z,,,,,,,,,,,,,,,,,,,,,,,,,,,,,,,,,,,,,,,,,,,,,,,,,,,,,,
,,,,,,,,,,,,,,,,,198967,18,2022-01-28_19h31.46.631,lexical_decision_task_DD_L5,2021.2.3,MacIntel,59.99880002,m,1,1.3496,,,,,,,,1.3496,1,0,11,11,0,1,1001,UTOPIA,m,,,,,,,,,,,,,,,,,,,,,,,,,,,,,,,,,,,,,,,,,,,,,,,,,,,,,,
,,,,,,,,,,,,,,,,,198967,18,2022-01-28_19h31.46.631,lexical_decision_task_DD_L5,2021.2.3,MacIntel,59.99880002,m,1,0.6629,,,,,,,,0.6629,1,0,12,12,3,1,1001,MATRIX,m,,,,,,,,,,,,,,,,,,,,,,,,,,,,,,,,,,,,,,,,,,,,,,,,,,,,,,
,,,,,,,,,,,,,,,,,198967,18,2022-01-28_19h31.46.631,lexical_decision_task_DD_L5,2021.2.3,MacIntel,59.99880002,m,1,0.4754,,,,,,,,0.4754,1,0,13,13,5,1,1001,OBTAIN,m,,,,,,,,,,,,,,,,,,,,,,,,,,,,,,,,,,,,,,,,,,,,,,,,,,,,,,
,,,,,,,,,,,,,,,,,198967,18,2022-01-28_19h31.46.631,lexical_decision_task_DD_L5,2021.2.3,MacIntel,59.99880002,z,1,0.6547,,,,,,,,0.6547,1,0,14,14,14,1,1001,THRALE,z,,,,,,,,,,,,,,,,,,,,,,,,,,,,,,,,,,,,,,,,,,,,,,,,,,,,,,
,,,,,,,,,,,,,,,,,198967,18,2022-01-28_19h31.46.631,lexical_decision_task_DD_L5,2021.2.3,MacIntel,59.99880002,z,1,0.9015,,,,,,,,0.9015,1,0,15,15,8,1,1001,ASLERT,z,,,,,,,,,,,,,,,,,,,,,,,,,,,,,,,,,,,,,,,,,,,,,,,,,,,,,,
,-0.079765625,-0.381449653,1,0,0,instr_done_button,,,,,,1,end_of_practice,"You have completed the practice trials. During the experimental trials, you will not receive feedback. 
Before you begin, please ensure that you are in a comfortable and quiet location and will not be disturbed for about 15 minutes, as we cannot use your data if you do not complete all the trials. 
 When you are ready to start the experimental trials, please press space or touch the button below.",,,198967,18,2022-01-28_19h31.46.631,lexical_decision_task_DD_L5,2021.2.3,MacIntel,59.99880002,,,,,,,,,,,,,,,,,,,,,0,0,0,0,1,,,,,,,,,,,,,,,,,,,,,,,,,,,,,,,,,,,,,,,,,,,,,,,,,
,,,,,,,,,,,,,,,,,198967,18,2022-01-28_19h31.46.631,lexical_decision_task_DD_L5,2021.2.3,MacIntel,59.99880002,,,,,,,,,,,1.4227,1,,,,,,,,,,,,,,z,1,1.4227,,,,,,,,-0.079765625,-0.381449653,0,0,0,,0,0,0,156,1,HIXES,C,old,z,./images/HIXES.png,,,,,,,,,,,,,,,,,,,,,,,
,,,,,,,,,,,,,,,,,198967,18,2022-01-28_19h31.46.631,lexical_decision_task_DD_L5,2021.2.3,MacIntel,59.99880002,,,,,,,,,,,0.8063,1,,,,,,,,,,,,,,m,1,0.8063,,,,,,,,-0.079765625,-0.381449653,0,0,0,,0,1,1,19,1,DONKEY,LB,old,m,./images/DONKEYLB.png,,,,,,,,,,,,,,,,,,,,,,,
,,,,,,,,,,,,,,,,,198967,18,2022-01-28_19h31.46.631,lexical_decision_task_DD_L5,2021.2.3,MacIntel,59.99880002,,,,,,,,,,,0.6249,1,,,,,,,,,,,,,,z,1,0.6249,,,,,,,,-0.079765625,-0.381449653,0,0,0,,0,2,2,114,1,RIKES,C,old,z,./images/RIKES.png,,,,,,,,,,,,,,,,,,,,,,,
,,,,,,,,,,,,,,,,,198967,18,2022-01-28_19h31.46.631,lexical_decision_task_DD_L5,2021.2.3,MacIntel,59.99880002,,,,,,,,,,,0.8855,1,,,,,,,,,,,,,,z,1,0.8855,,,,,,,,-0.079765625,-0.381449653,0,0,0,,0,3,3,167,1,ZONET,LB,old,z,./images/ZONETLB.png,,,,,,,,,,,,,,,,,,,,,,,
,,,,,,,,,,,,,,,,,198967,18,2022-01-28_19h31.46.631,lexical_decision_task_DD_L5,2021.2.3,MacIntel,59.99880002,,,,,,,,,,,0.6811,1,,,,,,,,,,,,,,z,1,0.6811,,,,,,,,-0.079765625,-0.381449653,0,0,0,,0,4,4,117,1,STEEG,C,old,z,./images/STEEG.png,,,,,,,,,,,,,,,,,,,,,,,
,,,,,,,,,,,,,,,,,198967,18,2022-01-28_19h31.46.631,lexical_decision_task_DD_L5,2021.2.3,MacIntel,59.99880002,,,,,,,,,,,0.6356,1,,,,,,,,,,,,,,z,1,0.6356,,,,,,,,-0.079765625,-0.381449653,0,0,0,,0,5,5,147,1,ZOLES,C,old,z,./images/ZOLES.png,,,,,,,,,,,,,,,,,,,,,,,
,,,,,,,,,,,,,,,,,198967,18,2022-01-28_19h31.46.631,lexical_decision_task_DD_L5,2021.2.3,MacIntel,59.99880002,,,,,,,,,,,0.503,0,,,,,,,,,,,,,,m,0,0.503,,,,,,,,-0.079765625,-0.381449653,0,0,0,,0,6,6,165,1,TROWN,C,old,z,./images/TROWN.png,,,,,,,,,,,,,,,,,,,,,,,
,,,,,,,,,,,,,,,,,198967,18,2022-01-28_19h31.46.631,lexical_decision_task_DD_L5,2021.2.3,MacIntel,59.99880002,,,,,,,,,,,0.7043,1,,,,,,,,,,,,,,m,1,0.7043,,,,,,,,-0.079765625,-0.381449653,0,0,0,,0,7,7,76,1,MIDGET,LB,old,m,./images/MIDGETLB.png,,,,,,,,,,,,,,,,,,,,,,,
,,,,,,,,,,,,,,,,,198967,18,2022-01-28_19h31.46.631,lexical_decision_task_DD_L5,2021.2.3,MacIntel,59.99880002,,,,,,,,,,,0.6415,1,,,,,,,,,,,,,,m,1,0.6415,,,,,,,,-0.079765625,-0.381449653,0,0,0,,0,8,8,23,1,CLOTH,C,old,m,./images/CLOTH.png,,,,,,,,,,,,,,,,,,,,,,,
,,,,,,,,,,,,,,,,,198967,18,2022-01-28_19h31.46.631,lexical_decision_task_DD_L5,2021.2.3,MacIntel,59.99880002,,,,,,,,,,,1.8293,1,,,,,,,,,,,,,,z,1,1.8293,,,,,,,,-0.079765625,-0.381449653,0,0,0,,0,9,9,115,1,MAWNS,HB,old,z,./images/MAWNSHB.png,,,,,,,,,,,,,,,,,,,,,,,
,,,,,,,,,,,,,,,,,198967,18,2022-01-28_19h31.46.631,lexical_decision_task_DD_L5,2021.2.3,MacIntel,59.99880002,,,,,,,,,,,0.7555,1,,,,,,,,,,,,,,m,1,0.7555,,,,,,,,-0.079765625,-0.381449653,0,0,0,,0,10,10,30,1,SLOPE,HB,old,m,./images/SLOPEHB.png,,,,,,,,,,,,,,,,,,,,,,,
,,,,,,,,,,,,,,,,,198967,18,2022-01-28_19h31.46.631,lexical_decision_task_DD_L5,2021.2.3,MacIntel,59.99880002,,,,,,,,,,,0.5637,1,,,,,,,,,,,,,,m,1,0.5637,,,,,,,,-0.079765625,-0.381449653,0,0,0,,0,11,11,79,1,RULER,LB,old,m,./images/RULERLB.png,,,,,,,,,,,,,,,,,,,,,,,
,,,,,,,,,,,,,,,,,198967,18,2022-01-28_19h31.46.631,lexical_decision_task_DD_L5,2021.2.3,MacIntel,59.99880002,,,,,,,,,,,1.1377,1,,,,,,,,,,,,,,z,1,1.1377,,,,,,,,-0.079765625,-0.381449653,0,0,0,,0,12,12,142,1,PLASK,HB,old,z,./images/PLASKHB.png,,,,,,,,,,,,,,,,,,,,,,,
,,,,,,,,,,,,,,,,,198967,18,2022-01-28_19h31.46.631,lexical_decision_task_DD_L5,2021.2.3,MacIntel,59.99880002,,,,,,,,,,,0.6626,1,,,,,,,,,,,,,,m,1,0.6626,,,,,,,,-0.079765625,-0.381449653,0,0,0,,0,13,13,69,1,ARROW,HB,old,m,./images/ARROWHB.png,,,,,,,,,,,,,,,,,,,,,,,
,,,,,,,,,,,,,,,,,198967,18,2022-01-28_19h31.46.631,lexical_decision_task_DD_L5,2021.2.3,MacIntel,59.99880002,,,,,,,,,,,1.1384,1,,,,,,,,,,,,,,m,1,1.1384,,,,,,,,-0.079765625,-0.381449653,0,0,0,,0,14,14,75,1,HAMMER,HB,old,m,./images/HAMMERHB.png,,,,,,,,,,,,,,,,,,,,,,,
,,,,,,,,,,,,,,,,,198967,18,2022-01-28_19h31.46.631,lexical_decision_task_DD_L5,2021.2.3,MacIntel,59.99880002,,,,,,,,,,,0.6303,1,,,,,,,,,,,,,,z,1,0.6303,,,,,,,,-0.079765625,-0.381449653,0,0,0,,0,15,15,98,1,BAMPS,LB,old,z,./images/BAMPSLB.png,,,,,,,,,,,,,,,,,,,,,,,
,,,,,,,,,,,,,,,,,198967,18,2022-01-28_19h31.46.631,lexical_decision_task_DD_L5,2021.2.3,MacIntel,59.99880002,,,,,,,,,,,0.5109,1,,,,,,,,,,,,,,m,1,0.5109,,,,,,,,-0.079765625,-0.381449653,0,0,0,,0,16,16,38,1,ENGINE,C,old,m,./images/ENGINE.png,,,,,,,,,,,,,,,,,,,,,,,
,,,,,,,,,,,,,,,,,198967,18,2022-01-28_19h31.46.631,lexical_decision_task_DD_L5,2021.2.3,MacIntel,59.99880002,,,,,,,,,,,0.7233,1,,,,,,,,,,,,,,m,1,0.7233,,,,,,,,-0.079765625,-0.381449653,0,0,0,,0,17,17,70,1,BANANA,LB,old,m,./images/BANANALB.png,,,,,,,,,,,,,,,,,,,,,,,
,,,,,,,,,,,,,,,,,198967,18,2022-01-28_19h31.46.631,lexical_decision_task_DD_L5,2021.2.3,MacIntel,59.99880002,,,,,,,,,,,0.9296,1,,,,,,,,,,,,,,z,1,0.9296,,,,,,,,-0.079765625,-0.381449653,0,0,0,,0,18,18,136,1,WERVE,HB,old,z,./images/WERVEHB.png,,,,,,,,,,,,,,,,,,,,,,,
,,,,,,,,,,,,,,,,,198967,18,2022-01-28_19h31.46.631,lexical_decision_task_DD_L5,2021.2.3,MacIntel,59.99880002,,,,,,,,,,,0.7685,1,,,,,,,,,,,,,,z,1,0.7685,,,,,,,,-0.079765625,-0.381449653,0,0,0,,0,19,19,100,1,DRIBS,HB,old,z,./images/DRIBSHB.png,,,,,,,,,,,,,,,,,,,,,,,
,,,,,,,,,,,,,,,,,198967,18,2022-01-28_19h31.46.631,lexical_decision_task_DD_L5,2021.2.3,MacIntel,59.99880002,,,,,,,,,,,1.1327,1,,,,,,,,,,,,,,m,1,1.1327,,,,,,,,-0.079765625,-0.381449653,0,0,0,,0,20,20,63,1,BAKER,HB,old,m,./images/BAKERHB.png,,,,,,,,,,,,,,,,,,,,,,,
,,,,,,,,,,,,,,,,,198967,18,2022-01-28_19h31.46.631,lexical_decision_task_DD_L5,2021.2.3,MacIntel,59.99880002,,,,,,,,,,,2.7352,1,,,,,,,,,,,,,,z,1,2.7352,,,,,,,,-0.079765625,-0.381449653,0,0,0,,0,21,21,127,1,NINDY,HB,old,z,./images/NINDYHB.png,,,,,,,,,,,,,,,,,,,,,,,
,,,,,,,,,,,,,,,,,198967,18,2022-01-28_19h31.46.631,lexical_decision_task_DD_L5,2021.2.3,MacIntel,59.99880002,,,,,,,,,,,0.684,1,,,,,,,,,,,,,,m,1,0.684,,,,,,,,-0.079765625,-0.381449653,0,0,0,,0,22,22,67,1,POKER,LB,old,m,./images/POKERLB.png,,,,,,,,,,,,,,,,,,,,,,,
,,,,,,,,,,,,,,,,,198967,18,2022-01-28_19h31.46.631,lexical_decision_task_DD_L5,2021.2.3,MacIntel,59.99880002,,,,,,,,,,,0.6654,1,,,,,,,,,,,,,,z,1,0.6654,,,,,,,,-0.079765625,-0.381449653,0,0,0,,0,23,23,89,1,DRIEK,LB,old,z,./images/DRIEKLB.png,,,,,,,,,,,,,,,,,,,,,,,
,,,,,,,,,,,,,,,,,198967,18,2022-01-28_19h31.46.631,lexical_decision_task_DD_L5,2021.2.3,MacIntel,59.99880002,,,,,,,,,,,0.6486,1,,,,,,,,,,,,,,m,1,0.6486,,,,,,,,-0.079765625,-0.381449653,0,0,0,,0,24,24,1,1,TOWEL,LB,old,m,./images/TOWELLB.png,,,,,,,,,,,,,,,,,,,,,,,
,,,,,,,,,,,,,,,,,198967,18,2022-01-28_19h31.46.631,lexical_decision_task_DD_L5,2021.2.3,MacIntel,59.99880002,,,,,,,,,,,0.69,1,,,,,,,,,,,,,,z,1,0.69,,,,,,,,-0.079765625,-0.381449653,0,0,0,,0,25,25,84,1,HAXES,C,old,z,./images/HAXES.png,,,,,,,,,,,,,,,,,,,,,,,
,,,,,,,,,,,,,,,,,198967,18,2022-01-28_19h31.46.631,lexical_decision_task_DD_L5,2021.2.3,MacIntel,59.99880002,,,,,,,,,,,0.6005,1,,,,,,,,,,,,,,m,1,0.6005,,,,,,,,-0.079765625,-0.381449653,0,0,0,,0,26,26,47,1,LAGOON,C,old,m,./images/LAGOON.png,,,,,,,,,,,,,,,,,,,,,,,
,,,,,,,,,,,,,,,,,198967,18,2022-01-28_19h31.46.631,lexical_decision_task_DD_L5,2021.2.3,MacIntel,59.99880002,,,,,,,,,,,1.2728,1,,,,,,,,,,,,,,z,1,1.2728,,,,,,,,-0.079765625,-0.381449653,0,0,0,,0,27,27,112,1,MYING,HB,old,z,./images/MYINGHB.png,,,,,,,,,,,,,,,,,,,,,,,
,,,,,,,,,,,,,,,,,198967,18,2022-01-28_19h31.46.631,lexical_decision_task_DD_L5,2021.2.3,MacIntel,59.99880002,,,,,,,,,,,1.2737,1,,,,,,,,,,,,,,m,1,1.2737,,,,,,,,-0.079765625,-0.381449653,0,0,0,,0,28,28,35,1,LLAMA,C,old,m,./images/LLAMA.png,,,,,,,,,,,,,,,,,,,,,,,
,,,,,,,,,,,,,,,,,198967,18,2022-01-28_19h31.46.631,lexical_decision_task_DD_L5,2021.2.3,MacIntel,59.99880002,,,,,,,,,,,0.6403,1,,,,,,,,,,,,,,m,1,0.6403,,,,,,,,-0.079765625,-0.381449653,0,0,0,,0,29,29,68,1,VALLEY,C,old,m,./images/VALLEY.png,,,,,,,,,,,,,,,,,,,,,,,
,,,,,,,,,,,,,,,,,198967,18,2022-01-28_19h31.46.631,lexical_decision_task_DD_L5,2021.2.3,MacIntel,59.99880002,,,,,,,,,,,0.6024,1,,,,,,,,,,,,,,z,1,0.6024,,,,,,,,-0.079765625,-0.381449653,0,0,0,,0,30,30,111,1,HOSSE,C,old,z,./images/HOSSE.png,,,,,,,,,,,,,,,,,,,,,,,
,,,,,,,,,,,,,,,,,198967,18,2022-01-28_19h31.46.631,lexical_decision_task_DD_L5,2021.2.3,MacIntel,59.99880002,,,,,,,,,,,0.626,1,,,,,,,,,,,,,,m,1,0.626,,,,,,,,-0.079765625,-0.381449653,0,0,0,,0,31,31,82,1,PEBBLE,LB,old,m,./images/PEBBLELB.png,,,,,,,,,,,,,,,,,,,,,,,
,,,,,,,,,,,,,,,,,198967,18,2022-01-28_19h31.46.631,lexical_decision_task_DD_L5,2021.2.3,MacIntel,59.99880002,,,,,,,,,,,1.3844,1,,,,,,,,,,,,,,m,1,1.3844,,,,,,,,-0.079765625,-0.381449653,0,0,0,,0,32,32,36,1,BOILER,HB,old,m,./images/BOILERHB.png,,,,,,,,,,,,,,,,,,,,,,,
,,,,,,,,,,,,,,,,,198967,18,2022-01-28_19h31.46.631,lexical_decision_task_DD_L5,2021.2.3,MacIntel,59.99880002,,,,,,,,,,,1.0499,1,,,,,,,,,,,,,,z,1,1.0499,,,,,,,,-0.079765625,-0.381449653,0,0,0,,0,33,33,88,1,GLUSH,HB,old,z,./images/GLUSHHB.png,,,,,,,,,,,,,,,,,,,,,,,
,,,,,,,,,,,,,,,,,198967,18,2022-01-28_19h31.46.631,lexical_decision_task_DD_L5,2021.2.3,MacIntel,59.99880002,,,,,,,,,,,1.0644,1,,,,,,,,,,,,,,z,1,1.0644,,,,,,,,-0.079765625,-0.381449653,0,0,0,,0,34,34,85,1,CHULK,HB,old,z,./images/CHULKHB.png,,,,,,,,,,,,,,,,,,,,,,,
,,,,,,,,,,,,,,,,,198967,18,2022-01-28_19h31.46.631,lexical_decision_task_DD_L5,2021.2.3,MacIntel,59.99880002,,,,,,,,,,,0.5917,1,,,,,,,,,,,,,,m,1,0.5917,,,,,,,,-0.079765625,-0.381449653,0,0,0,,0,35,35,28,1,CASINO,LB,old,m,./images/CASINOLB.png,,,,,,,,,,,,,,,,,,,,,,,
,,,,,,,,,,,,,,,,,198967,18,2022-01-28_19h31.46.631,lexical_decision_task_DD_L5,2021.2.3,MacIntel,59.99880002,,,,,,,,,,,0.9022,1,,,,,,,,,,,,,,z,1,0.9022,,,,,,,,-0.079765625,-0.381449653,0,0,0,,0,36,36,93,1,SMONE,C,old,z,./images/SMONE.png,,,,,,,,,,,,,,,,,,,,,,,
,,,,,,,,,,,,,,,,,198967,18,2022-01-28_19h31.46.631,lexical_decision_task_DD_L5,2021.2.3,MacIntel,59.99880002,,,,,,,,,,,1.6625,1,,,,,,,,,,,,,,z,1,1.6625,,,,,,,,-0.079765625,-0.381449653,0,0,0,,0,37,37,110,1,CRUNK,LB,old,z,./images/CRUNKLB.png,,,,,,,,,,,,,,,,,,,,,,,
,,,,,,,,,,,,,,,,,198967,18,2022-01-28_19h31.46.631,lexical_decision_task_DD_L5,2021.2.3,MacIntel,59.99880002,,,,,,,,,,,4.1477,1,,,,,,,,,,,,,,z,1,4.1477,,,,,,,,-0.079765625,-0.381449653,0,0,0,,0,38,38,102,1,DULLE,C,old,z,./images/DULLE.png,,,,,,,,,,,,,,,,,,,,,,,
,,,,,,,,,,,,,,,,,198967,18,2022-01-28_19h31.46.631,lexical_decision_task_DD_L5,2021.2.3,MacIntel,59.99880002,,,,,,,,,,,0.6962,1,,,,,,,,,,,,,,z,1,0.6962,,,,,,,,-0.079765625,-0.381449653,0,0,0,,0,39,39,125,1,MOOKY,LB,old,z,./images/MOOKYLB.png,,,,,,,,,,,,,,,,,,,,,,,
,,,,,,,,,,,,,,,,,198967,18,2022-01-28_19h31.46.631,lexical_decision_task_DD_L5,2021.2.3,MacIntel,59.99880002,,,,,,,,,,,0.6696,0,,,,,,,,,,,,,,z,0,0.6696,,,,,,,,-0.079765625,-0.381449653,0,0,0,,0,40,40,60,1,CURRY,HB,old,m,./images/CURRYHB.png,,,,,,,,,,,,,,,,,,,,,,,
,,,,,,,,,,,,,,,,,198967,18,2022-01-28_19h31.46.631,lexical_decision_task_DD_L5,2021.2.3,MacIntel,59.99880002,,,,,,,,,,,0.9387,1,,,,,,,,,,,,,,z,1,0.9387,,,,,,,,-0.079765625,-0.381449653,1,0,0,,0,41,41,154,1,THINT,HB,old,z,./images/THINTHB.png,break_done_button,,,,,,,,,,,,,,,,,,,,,,
,,,,,,,,,,,,,,,,,198967,18,2022-01-28_19h31.46.631,lexical_decision_task_DD_L5,2021.2.3,MacIntel,59.99880002,,,,,,,,,,,1.519,1,,,,,,,,,,,,,,z,1,1.519,,,,,,,,-0.079765625,-0.381449653,0,0,0,,0,42,42,121,1,CEERS,HB,old,z,./images/CEERSHB.png,,,,,,,,,,,,,,,,,,,,,,,
,,,,,,,,,,,,,,,,,198967,18,2022-01-28_19h31.46.631,lexical_decision_task_DD_L5,2021.2.3,MacIntel,59.99880002,,,,,,,,,,,0.7483,1,,,,,,,,,,,,,,z,1,0.7483,,,,,,,,-0.079765625,-0.381449653,0,0,0,,0,43,43,155,1,CANGY,LB,old,z,./images/CANGYLB.png,,,,,,,,,,,,,,,,,,,,,,,
,,,,,,,,,,,,,,,,,198967,18,2022-01-28_19h31.46.631,lexical_decision_task_DD_L5,2021.2.3,MacIntel,59.99880002,,,,,,,,,,,0.7465,1,,,,,,,,,,,,,,m,1,0.7465,,,,,,,,-0.079765625,-0.381449653,0,0,0,,0,44,44,72,1,FLASK,HB,old,m,./images/FLASKHB.png,,,,,,,,,,,,,,,,,,,,,,,
,,,,,,,,,,,,,,,,,198967,18,2022-01-28_19h31.46.631,lexical_decision_task_DD_L5,2021.2.3,MacIntel,59.99880002,,,,,,,,,,,0.8565,0,,,,,,,,,,,,,,z,0,0.8565,,,,,,,,-0.079765625,-0.381449653,0,0,0,,0,45,45,24,1,FLESH,HB,old,m,./images/FLESHHB.png,,,,,,,,,,,,,,,,,,,,,,,
,,,,,,,,,,,,,,,,,198967,18,2022-01-28_19h31.46.631,lexical_decision_task_DD_L5,2021.2.3,MacIntel,59.99880002,,,,,,,,,,,0.5628,1,,,,,,,,,,,,,,m,1,0.5628,,,,,,,,-0.079765625,-0.381449653,0,0,0,,0,46,46,4,1,BOXER,LB,old,m,./images/BOXERLB.png,,,,,,,,,,,,,,,,,,,,,,,
,,,,,,,,,,,,,,,,,198967,18,2022-01-28_19h31.46.631,lexical_decision_task_DD_L5,2021.2.3,MacIntel,59.99880002,,,,,,,,,,,0.6236,1,,,,,,,,,,,,,,m,1,0.6236,,,,,,,,-0.079765625,-0.381449653,0,0,0,,0,47,47,65,1,SPINE,C,old,m,./images/SPINE.png,,,,,,,,,,,,,,,,,,,,,,,
,,,,,,,,,,,,,,,,,198967,18,2022-01-28_19h31.46.631,lexical_decision_task_DD_L5,2021.2.3,MacIntel,59.99880002,,,,,,,,,,,0.8966,1,,,,,,,,,,,,,,z,1,0.8966,,,,,,,,-0.079765625,-0.381449653,0,0,0,,0,48,48,118,1,BAVEL,HB,old,z,./images/BAVELHB.png,,,,,,,,,,,,,,,,,,,,,,,
,,,,,,,,,,,,,,,,,198967,18,2022-01-28_19h31.46.631,lexical_decision_task_DD_L5,2021.2.3,MacIntel,59.99880002,,,,,,,,,,,0.8151,1,,,,,,,,,,,,,,z,1,0.8151,,,,,,,,-0.079765625,-0.381449653,0,0,0,,0,49,49,109,1,BURGE,HB,old,z,./images/BURGEHB.png,,,,,,,,,,,,,,,,,,,,,,,
,,,,,,,,,,,,,,,,,198967,18,2022-01-28_19h31.46.631,lexical_decision_task_DD_L5,2021.2.3,MacIntel,59.99880002,,,,,,,,,,,1.3578,1,,,,,,,,,,,,,,z,1,1.3578,,,,,,,,-0.079765625,-0.381449653,0,0,0,,0,50,50,108,1,GRUET,C,old,z,./images/GRUET.png,,,,,,,,,,,,,,,,,,,,,,,
,,,,,,,,,,,,,,,,,198967,18,2022-01-28_19h31.46.631,lexical_decision_task_DD_L5,2021.2.3,MacIntel,59.99880002,,,,,,,,,,,0.8357,1,,,,,,,,,,,,,,z,1,0.8357,,,,,,,,-0.079765625,-0.381449653,0,0,0,,0,51,51,103,1,FLORT,HB,old,z,./images/FLORTHB.png,,,,,,,,,,,,,,,,,,,,,,,
,,,,,,,,,,,,,,,,,198967,18,2022-01-28_19h31.46.631,lexical_decision_task_DD_L5,2021.2.3,MacIntel,59.99880002,,,,,,,,,,,2.447,1,,,,,,,,,,,,,,m,1,2.447,,,,,,,,-0.079765625,-0.381449653,0,0,0,,0,52,52,9,1,DIVER,HB,old,m,./images/DIVERHB.png,,,,,,,,,,,,,,,,,,,,,,,
,,,,,,,,,,,,,,,,,198967,18,2022-01-28_19h31.46.631,lexical_decision_task_DD_L5,2021.2.3,MacIntel,59.99880002,,,,,,,,,,,0.8194,1,,,,,,,,,,,,,,z,1,0.8194,,,,,,,,-0.079765625,-0.381449653,0,0,0,,0,53,53,86,1,AIFED,LB,old,z,./images/AIFEDLB.png,,,,,,,,,,,,,,,,,,,,,,,
,,,,,,,,,,,,,,,,,198967,18,2022-01-28_19h31.46.631,lexical_decision_task_DD_L5,2021.2.3,MacIntel,59.99880002,,,,,,,,,,,0.5966,1,,,,,,,,,,,,,,z,1,0.5966,,,,,,,,-0.079765625,-0.381449653,0,0,0,,0,54,54,146,1,MOOST,LB,old,z,./images/MOOSTLB.png,,,,,,,,,,,,,,,,,,,,,,,
,,,,,,,,,,,,,,,,,198967,18,2022-01-28_19h31.46.631,lexical_decision_task_DD_L5,2021.2.3,MacIntel,59.99880002,,,,,,,,,,,1.9882,1,,,,,,,,,,,,,,z,1,1.9882,,,,,,,,-0.079765625,-0.381449653,0,0,0,,0,55,55,166,1,SHORY,HB,old,z,./images/SHORYHB.png,,,,,,,,,,,,,,,,,,,,,,,
,,,,,,,,,,,,,,,,,198967,18,2022-01-28_19h31.46.631,lexical_decision_task_DD_L5,2021.2.3,MacIntel,59.99880002,,,,,,,,,,,0.6201,1,,,,,,,,,,,,,,m,1,0.6201,,,,,,,,-0.079765625,-0.381449653,0,0,0,,0,56,56,58,1,CANOE,LB,old,m,./images/CANOELB.png,,,,,,,,,,,,,,,,,,,,,,,
,,,,,,,,,,,,,,,,,198967,18,2022-01-28_19h31.46.631,lexical_decision_task_DD_L5,2021.2.3,MacIntel,59.99880002,,,,,,,,,,,0.578,1,,,,,,,,,,,,,,m,1,0.578,,,,,,,,-0.079765625,-0.381449653,0,0,0,,0,57,57,50,1,PILOT,C,old,m,./images/PILOT.png,,,,,,,,,,,,,,,,,,,,,,,
,,,,,,,,,,,,,,,,,198967,18,2022-01-28_19h31.46.631,lexical_decision_task_DD_L5,2021.2.3,MacIntel,59.99880002,,,,,,,,,,,0.9561,1,,,,,,,,,,,,,,m,1,0.9561,,,,,,,,-0.079765625,-0.381449653,0,0,0,,0,58,58,56,1,HEATER,C,old,m,./images/HEATER.png,,,,,,,,,,,,,,,,,,,,,,,
,,,,,,,,,,,,,,,,,198967,18,2022-01-28_19h31.46.631,lexical_decision_task_DD_L5,2021.2.3,MacIntel,59.99880002,,,,,,,,,,,0.7798,1,,,,,,,,,,,,,,z,1,0.7798,,,,,,,,-0.079765625,-0.381449653,0,0,0,,0,59,59,113,1,LINEW,LB,old,z,./images/LINEWLB.png,,,,,,,,,,,,,,,,,,,,,,,
,,,,,,,,,,,,,,,,,198967,18,2022-01-28_19h31.46.631,lexical_decision_task_DD_L5,2021.2.3,MacIntel,59.99880002,,,,,,,,,,,0.6632,1,,,,,,,,,,,,,,m,1,0.6632,,,,,,,,-0.079765625,-0.381449653,0,0,0,,0,60,60,15,1,COLLAR,HB,old,m,./images/COLLARHB.png,,,,,,,,,,,,,,,,,,,,,,,
,,,,,,,,,,,,,,,,,198967,18,2022-01-28_19h31.46.631,lexical_decision_task_DD_L5,2021.2.3,MacIntel,59.99880002,,,,,,,,,,,0.585,1,,,,,,,,,,,,,,m,1,0.585,,,,,,,,-0.079765625,-0.381449653,0,0,0,,0,61,61,8,1,CLIFF,C,old,m,./images/CLIFF.png,,,,,,,,,,,,,,,,,,,,,,,
,,,,,,,,,,,,,,,,,198967,18,2022-01-28_19h31.46.631,lexical_decision_task_DD_L5,2021.2.3,MacIntel,59.99880002,,,,,,,,,,,0.7378,1,,,,,,,,,,,,,,m,1,0.7378,,,,,,,,-0.079765625,-0.381449653,0,0,0,,0,62,62,44,1,BASKET,C,old,m,./images/BASKET.png,,,,,,,,,,,,,,,,,,,,,,,
,,,,,,,,,,,,,,,,,198967,18,2022-01-28_19h31.46.631,lexical_decision_task_DD_L5,2021.2.3,MacIntel,59.99880002,,,,,,,,,,,0.5978,1,,,,,,,,,,,,,,z,1,0.5978,,,,,,,,-0.079765625,-0.381449653,0,0,0,,0,63,63,116,1,BALGY,LB,old,z,./images/BALGYLB.png,,,,,,,,,,,,,,,,,,,,,,,
,,,,,,,,,,,,,,,,,198967,18,2022-01-28_19h31.46.631,lexical_decision_task_DD_L5,2021.2.3,MacIntel,59.99880002,,,,,,,,,,,0.579,1,,,,,,,,,,,,,,z,1,0.579,,,,,,,,-0.079765625,-0.381449653,0,0,0,,0,64,64,131,1,NACES,LB,old,z,./images/NACESLB.png,,,,,,,,,,,,,,,,,,,,,,,
,,,,,,,,,,,,,,,,,198967,18,2022-01-28_19h31.46.631,lexical_decision_task_DD_L5,2021.2.3,MacIntel,59.99880002,,,,,,,,,,,0.6563,1,,,,,,,,,,,,,,z,1,0.6563,,,,,,,,-0.079765625,-0.381449653,0,0,0,,0,65,65,161,1,BLAPS,LB,old,z,./images/BLAPSLB.png,,,,,,,,,,,,,,,,,,,,,,,
,,,,,,,,,,,,,,,,,198967,18,2022-01-28_19h31.46.631,lexical_decision_task_DD_L5,2021.2.3,MacIntel,59.99880002,,,,,,,,,,,0.771,1,,,,,,,,,,,,,,m,1,0.771,,,,,,,,-0.079765625,-0.381449653,0,0,0,,0,66,66,41,1,STREAM,C,old,m,./images/STREAM.png,,,,,,,,,,,,,,,,,,,,,,,
,,,,,,,,,,,,,,,,,198967,18,2022-01-28_19h31.46.631,lexical_decision_task_DD_L5,2021.2.3,MacIntel,59.99880002,,,,,,,,,,,1.2142,1,,,,,,,,,,,,,,z,1,1.2142,,,,,,,,-0.079765625,-0.381449653,0,0,0,,0,67,67,145,1,LAMEL,HB,old,z,./images/LAMELHB.png,,,,,,,,,,,,,,,,,,,,,,,
,,,,,,,,,,,,,,,,,198967,18,2022-01-28_19h31.46.631,lexical_decision_task_DD_L5,2021.2.3,MacIntel,59.99880002,,,,,,,,,,,0.9922,1,,,,,,,,,,,,,,m,1,0.9922,,,,,,,,-0.079765625,-0.381449653,0,0,0,,0,68,68,45,1,MONKEY,HB,old,m,./images/MONKEYHB.png,,,,,,,,,,,,,,,,,,,,,,,
,,,,,,,,,,,,,,,,,198967,18,2022-01-28_19h31.46.631,lexical_decision_task_DD_L5,2021.2.3,MacIntel,59.99880002,,,,,,,,,,,1.6807,0,,,,,,,,,,,,,,z,0,1.6807,,,,,,,,-0.079765625,-0.381449653,0,0,0,,0,69,69,27,1,BUTTER,HB,old,m,./images/BUTTERHB.png,,,,,,,,,,,,,,,,,,,,,,,
,,,,,,,,,,,,,,,,,198967,18,2022-01-28_19h31.46.631,lexical_decision_task_DD_L5,2021.2.3,MacIntel,59.99880002,,,,,,,,,,,0.6733,1,,,,,,,,,,,,,,m,1,0.6733,,,,,,,,-0.079765625,-0.381449653,0,0,0,,0,70,70,66,1,STATUE,HB,old,m,./images/STATUEHB.png,,,,,,,,,,,,,,,,,,,,,,,
,,,,,,,,,,,,,,,,,198967,18,2022-01-28_19h31.46.631,lexical_decision_task_DD_L5,2021.2.3,MacIntel,59.99880002,,,,,,,,,,,0.8393,1,,,,,,,,,,,,,,m,1,0.8393,,,,,,,,-0.079765625,-0.381449653,0,0,0,,0,71,71,6,1,STAIN,HB,old,m,./images/STAINHB.png,,,,,,,,,,,,,,,,,,,,,,,
,,,,,,,,,,,,,,,,,198967,18,2022-01-28_19h31.46.631,lexical_decision_task_DD_L5,2021.2.3,MacIntel,59.99880002,,,,,,,,,,,1.0638,1,,,,,,,,,,,,,,z,1,1.0638,,,,,,,,-0.079765625,-0.381449653,0,0,0,,0,72,72,148,1,JOMS,HB,old,z,./images/JOMSHB.png,,,,,,,,,,,,,,,,,,,,,,,
,,,,,,,,,,,,,,,,,198967,18,2022-01-28_19h31.46.631,lexical_decision_task_DD_L5,2021.2.3,MacIntel,59.99880002,,,,,,,,,,,1.1801,1,,,,,,,,,,,,,,z,1,1.1801,,,,,,,,-0.079765625,-0.381449653,0,0,0,,0,73,73,133,1,POWDY,HB,old,z,./images/POWDYHB.png,,,,,,,,,,,,,,,,,,,,,,,
,,,,,,,,,,,,,,,,,198967,18,2022-01-28_19h31.46.631,lexical_decision_task_DD_L5,2021.2.3,MacIntel,59.99880002,,,,,,,,,,,0.537,1,,,,,,,,,,,,,,m,1,0.537,,,,,,,,-0.079765625,-0.381449653,0,0,0,,0,74,74,14,1,FENCE,C,old,m,./images/FENCE.png,,,,,,,,,,,,,,,,,,,,,,,
,,,,,,,,,,,,,,,,,198967,18,2022-01-28_19h31.46.631,lexical_decision_task_DD_L5,2021.2.3,MacIntel,59.99880002,,,,,,,,,,,0.7277,1,,,,,,,,,,,,,,z,1,0.7277,,,,,,,,-0.079765625,-0.381449653,0,0,0,,0,75,75,90,1,NEAST,C,old,z,./images/NEAST.png,,,,,,,,,,,,,,,,,,,,,,,
,,,,,,,,,,,,,,,,,198967,18,2022-01-28_19h31.46.631,lexical_decision_task_DD_L5,2021.2.3,MacIntel,59.99880002,,,,,,,,,,,0.611,1,,,,,,,,,,,,,,z,1,0.611,,,,,,,,-0.079765625,-0.381449653,0,0,0,,0,76,76,122,1,BLOOT,LB,old,z,./images/BLOOTLB.png,,,,,,,,,,,,,,,,,,,,,,,
,,,,,,,,,,,,,,,,,198967,18,2022-01-28_19h31.46.631,lexical_decision_task_DD_L5,2021.2.3,MacIntel,59.99880002,,,,,,,,,,,0.819,1,,,,,,,,,,,,,,z,1,0.819,,,,,,,,-0.079765625,-0.381449653,0,0,0,,0,77,77,159,1,CUDDY,C,old,z,./images/CUDDY.png,,,,,,,,,,,,,,,,,,,,,,,
,,,,,,,,,,,,,,,,,198967,18,2022-01-28_19h31.46.631,lexical_decision_task_DD_L5,2021.2.3,MacIntel,59.99880002,,,,,,,,,,,0.7014,1,,,,,,,,,,,,,,z,1,0.7014,,,,,,,,-0.079765625,-0.381449653,0,0,0,,0,78,78,153,1,CLUPS,C,old,z,./images/CLUPS.png,,,,,,,,,,,,,,,,,,,,,,,
,,,,,,,,,,,,,,,,,198967,18,2022-01-28_19h31.46.631,lexical_decision_task_DD_L5,2021.2.3,MacIntel,59.99880002,,,,,,,,,,,0.6096,1,,,,,,,,,,,,,,m,1,0.6096,,,,,,,,-0.079765625,-0.381449653,0,0,0,,0,79,79,11,1,MEDAL,C,old,m,./images/MEDAL.png,,,,,,,,,,,,,,,,,,,,,,,
,,,,,,,,,,,,,,,,,198967,18,2022-01-28_19h31.46.631,lexical_decision_task_DD_L5,2021.2.3,MacIntel,59.99880002,,,,,,,,,,,0.5974,1,,,,,,,,,,,,,,z,1,0.5974,,,,,,,,-0.079765625,-0.381449653,0,0,0,,0,80,80,119,1,PAFER,LB,old,z,./images/PAFERLB.png,,,,,,,,,,,,,,,,,,,,,,,
,,,,,,,,,,,,,,,,,198967,18,2022-01-28_19h31.46.631,lexical_decision_task_DD_L5,2021.2.3,MacIntel,59.99880002,,,,,,,,,,,0.6213,1,,,,,,,,,,,,,,m,1,0.6213,,,,,,,,-0.079765625,-0.381449653,0,0,0,,0,81,81,31,1,STEAK,LB,old,m,./images/STEAKLB.png,,,,,,,,,,,,,,,,,,,,,,,
,,,,,,,,,,,,,,,,,198967,18,2022-01-28_19h31.46.631,lexical_decision_task_DD_L5,2021.2.3,MacIntel,59.99880002,,,,,,,,,,,0.5964,1,,,,,,,,,,,,,,m,1,0.5964,,,,,,,,-0.079765625,-0.381449653,0,0,0,,0,82,82,40,1,SNAKE,LB,old,m,./images/SNAKELB.png,,,,,,,,,,,,,,,,,,,,,,,
,,,,,,,,,,,,,,,,,198967,18,2022-01-28_19h31.46.631,lexical_decision_task_DD_L5,2021.2.3,MacIntel,59.99880002,,,,,,,,,,,0.5733,1,,,,,,,,,,,,,,m,1,0.5733,,,,,,,,0.08484809,-0.424626736,1,0,0,,0,83,83,5,1,BAMBOO,C,old,m,./images/BAMBOO.png,break_done_button,,,,,,,,,,,,,,,,,,,,,,
,,,,,,,,,,,,,,,,,198967,18,2022-01-28_19h31.46.631,lexical_decision_task_DD_L5,2021.2.3,MacIntel,59.99880002,,,,,,,,,,,0.603,1,,,,,,,,,,,,,,m,1,0.603,,,,,,,,0.08484809,-0.424626736,0,0,0,,0,84,84,83,1,WHISKY,C,old,m,./images/WHISKY.png,,,,,,,,,,,,,,,,,,,,,,,
,,,,,,,,,,,,,,,,,198967,18,2022-01-28_19h31.46.631,lexical_decision_task_DD_L5,2021.2.3,MacIntel,59.99880002,,,,,,,,,,,0.9767,1,,,,,,,,,,,,,,z,1,0.9767,,,,,,,,0.08484809,-0.424626736,0,0,0,,0,85,85,94,1,BLANS,HB,old,z,./images/BLANSHB.png,,,,,,,,,,,,,,,,,,,,,,,
,,,,,,,,,,,,,,,,,198967,18,2022-01-28_19h31.46.631,lexical_decision_task_DD_L5,2021.2.3,MacIntel,59.99880002,,,,,,,,,,,0.6141,1,,,,,,,,,,,,,,m,1,0.6141,,,,,,,,0.08484809,-0.424626736,0,0,0,,0,86,86,34,1,RAZOR,LB,old,m,./images/RAZORLB.png,,,,,,,,,,,,,,,,,,,,,,,
,,,,,,,,,,,,,,,,,198967,18,2022-01-28_19h31.46.631,lexical_decision_task_DD_L5,2021.2.3,MacIntel,59.99880002,,,,,,,,,,,0.5052,1,,,,,,,,,,,,,,m,1,0.5052,,,,,,,,0.08484809,-0.424626736,0,0,0,,0,87,87,26,1,CLOUD,C,old,m,./images/CLOUD.png,,,,,,,,,,,,,,,,,,,,,,,
,,,,,,,,,,,,,,,,,198967,18,2022-01-28_19h31.46.631,lexical_decision_task_DD_L5,2021.2.3,MacIntel,59.99880002,,,,,,,,,,,0.6398,1,,,,,,,,,,,,,,z,1,0.6398,,,,,,,,0.08484809,-0.424626736,0,0,0,,0,88,88,132,1,SCIFF,C,old,z,./images/SCIFF.png,,,,,,,,,,,,,,,,,,,,,,,
,,,,,,,,,,,,,,,,,198967,18,2022-01-28_19h31.46.631,lexical_decision_task_DD_L5,2021.2.3,MacIntel,59.99880002,,,,,,,,,,,0.6324,1,,,,,,,,,,,,,,m,1,0.6324,,,,,,,,0.08484809,-0.424626736,0,0,0,,0,89,89,16,1,GRAPE,LB,old,m,./images/GRAPELB.png,,,,,,,,,,,,,,,,,,,,,,,
,,,,,,,,,,,,,,,,,198967,18,2022-01-28_19h31.46.631,lexical_decision_task_DD_L5,2021.2.3,MacIntel,59.99880002,,,,,,,,,,,0.6365,1,,,,,,,,,,,,,,m,1,0.6365,,,,,,,,0.08484809,-0.424626736,0,0,0,,0,90,90,59,1,BRUSH,C,old,m,./images/BRUSH.png,,,,,,,,,,,,,,,,,,,,,,,
,,,,,,,,,,,,,,,,,198967,18,2022-01-28_19h31.46.631,lexical_decision_task_DD_L5,2021.2.3,MacIntel,59.99880002,,,,,,,,,,,0.6594,1,,,,,,,,,,,,,,m,1,0.6594,,,,,,,,0.08484809,-0.424626736,0,0,0,,0,91,91,0,1,WALNUT,HB,old,m,./images/WALNUTHB.png,,,,,,,,,,,,,,,,,,,,,,,
,,,,,,,,,,,,,,,,,198967,18,2022-01-28_19h31.46.631,lexical_decision_task_DD_L5,2021.2.3,MacIntel,59.99880002,,,,,,,,,,,0.8869,1,,,,,,,,,,,,,,m,1,0.8869,,,,,,,,0.08484809,-0.424626736,0,0,0,,0,92,92,29,1,PISTOL,C,old,m,./images/PISTOL.png,,,,,,,,,,,,,,,,,,,,,,,
,,,,,,,,,,,,,,,,,198967,18,2022-01-28_19h31.46.631,lexical_decision_task_DD_L5,2021.2.3,MacIntel,59.99880002,,,,,,,,,,,0.5569,1,,,,,,,,,,,,,,m,1,0.5569,,,,,,,,0.08484809,-0.424626736,0,0,0,,0,93,93,17,1,PARADE,C,old,m,./images/PARADE.png,,,,,,,,,,,,,,,,,,,,,,,
,,,,,,,,,,,,,,,,,198967,18,2022-01-28_19h31.46.631,lexical_decision_task_DD_L5,2021.2.3,MacIntel,59.99880002,,,,,,,,,,,1.4251,1,,,,,,,,,,,,,,z,1,1.4251,,,,,,,,0.08484809,-0.424626736,0,0,0,,0,94,94,151,1,TINKY,HB,old,z,./images/TINKYHB.png,,,,,,,,,,,,,,,,,,,,,,,
,,,,,,,,,,,,,,,,,198967,18,2022-01-28_19h31.46.631,lexical_decision_task_DD_L5,2021.2.3,MacIntel,59.99880002,,,,,,,,,,,0.5147,1,,,,,,,,,,,,,,m,1,0.5147,,,,,,,,0.08484809,-0.424626736,0,0,0,,0,95,95,2,1,STOVE,C,old,m,./images/STOVE.png,,,,,,,,,,,,,,,,,,,,,,,
,,,,,,,,,,,,,,,,,198967,18,2022-01-28_19h31.46.631,lexical_decision_task_DD_L5,2021.2.3,MacIntel,59.99880002,,,,,,,,,,,0.5845,1,,,,,,,,,,,,,,z,1,0.5845,,,,,,,,0.08484809,-0.424626736,0,0,0,,0,96,96,135,1,JOODY,C,old,z,./images/JOODY.png,,,,,,,,,,,,,,,,,,,,,,,
,,,,,,,,,,,,,,,,,198967,18,2022-01-28_19h31.46.631,lexical_decision_task_DD_L5,2021.2.3,MacIntel,59.99880002,,,,,,,,,,,0.5314,1,,,,,,,,,,,,,,m,1,0.5314,,,,,,,,0.08484809,-0.424626736,0,0,0,,0,97,97,43,1,STOOL,LB,old,m,./images/STOOLLB.png,,,,,,,,,,,,,,,,,,,,,,,
,,,,,,,,,,,,,,,,,198967,18,2022-01-28_19h31.46.631,lexical_decision_task_DD_L5,2021.2.3,MacIntel,59.99880002,,,,,,,,,,,0.6447,1,,,,,,,,,,,,,,z,1,0.6447,,,,,,,,0.08484809,-0.424626736,0,0,0,,0,98,98,128,1,GRIFT,LB,old,z,./images/GRIFTLB.png,,,,,,,,,,,,,,,,,,,,,,,
,,,,,,,,,,,,,,,,,198967,18,2022-01-28_19h31.46.631,lexical_decision_task_DD_L5,2021.2.3,MacIntel,59.99880002,,,,,,,,,,,0.8581,1,,,,,,,,,,,,,,z,1,0.8581,,,,,,,,0.08484809,-0.424626736,0,0,0,,0,99,99,126,1,GUELS,C,old,z,./images/GUELS.png,,,,,,,,,,,,,,,,,,,,,,,
,,,,,,,,,,,,,,,,,198967,18,2022-01-28_19h31.46.631,lexical_decision_task_DD_L5,2021.2.3,MacIntel,59.99880002,,,,,,,,,,,0.7139,1,,,,,,,,,,,,,,m,1,0.7139,,,,,,,,0.08484809,-0.424626736,0,0,0,,0,100,100,10,1,GARDEN,LB,old,m,./images/GARDENLB.png,,,,,,,,,,,,,,,,,,,,,,,
,,,,,,,,,,,,,,,,,198967,18,2022-01-28_19h31.46.631,lexical_decision_task_DD_L5,2021.2.3,MacIntel,59.99880002,,,,,,,,,,,0.6693,1,,,,,,,,,,,,,,m,1,0.6693,,,,,,,,0.08484809,-0.424626736,0,0,0,,0,101,101,32,1,HOCKEY,C,old,m,./images/HOCKEY.png,,,,,,,,,,,,,,,,,,,,,,,
,,,,,,,,,,,,,,,,,198967,18,2022-01-28_19h31.46.631,lexical_decision_task_DD_L5,2021.2.3,MacIntel,59.99880002,,,,,,,,,,,0.684,1,,,,,,,,,,,,,,z,1,0.684,,,,,,,,0.08484809,-0.424626736,0,0,0,,0,102,102,160,1,VEETS,HB,old,z,./images/VEETSHB.png,,,,,,,,,,,,,,,,,,,,,,,
,,,,,,,,,,,,,,,,,198967,18,2022-01-28_19h31.46.631,lexical_decision_task_DD_L5,2021.2.3,MacIntel,59.99880002,,,,,,,,,,,0.6455,1,,,,,,,,,,,,,,z,1,0.6455,,,,,,,,0.08484809,-0.424626736,0,0,0,,0,103,103,99,1,BACKY,C,old,z,./images/BACKY.png,,,,,,,,,,,,,,,,,,,,,,,
,,,,,,,,,,,,,,,,,198967,18,2022-01-28_19h31.46.631,lexical_decision_task_DD_L5,2021.2.3,MacIntel,59.99880002,,,,,,,,,,,0.7143,1,,,,,,,,,,,,,,z,1,0.7143,,,,,,,,0.08484809,-0.424626736,0,0,0,,0,104,104,134,1,TROSS,LB,old,z,./images/TROSSLB.png,,,,,,,,,,,,,,,,,,,,,,,
,,,,,,,,,,,,,,,,,198967,18,2022-01-28_19h31.46.631,lexical_decision_task_DD_L5,2021.2.3,MacIntel,59.99880002,,,,,,,,,,,0.7979,1,,,,,,,,,,,,,,m,1,0.7979,,,,,,,,0.08484809,-0.424626736,0,0,0,,0,105,105,42,1,CHAIN,HB,old,m,./images/CHAINHB.png,,,,,,,,,,,,,,,,,,,,,,,
,,,,,,,,,,,,,,,,,198967,18,2022-01-28_19h31.46.631,lexical_decision_task_DD_L5,2021.2.3,MacIntel,59.99880002,,,,,,,,,,,0.9146,1,,,,,,,,,,,,,,z,1,0.9146,,,,,,,,0.08484809,-0.424626736,0,0,0,,0,106,106,91,1,SHENS,HB,old,z,./images/SHENSHB.png,,,,,,,,,,,,,,,,,,,,,,,
,,,,,,,,,,,,,,,,,198967,18,2022-01-28_19h31.46.631,lexical_decision_task_DD_L5,2021.2.3,MacIntel,59.99880002,,,,,,,,,,,0.6454,1,,,,,,,,,,,,,,m,1,0.6454,,,,,,,,0.08484809,-0.424626736,0,0,0,,0,107,107,25,1,CHALK,LB,old,m,./images/CHALKLB.png,,,,,,,,,,,,,,,,,,,,,,,
,,,,,,,,,,,,,,,,,198967,18,2022-01-28_19h31.46.631,lexical_decision_task_DD_L5,2021.2.3,MacIntel,59.99880002,,,,,,,,,,,0.7328,1,,,,,,,,,,,,,,z,1,0.7328,,,,,,,,0.08484809,-0.424626736,0,0,0,,0,108,108,124,1,TUNCH,HB,old,z,./images/TUNCHHB.png,,,,,,,,,,,,,,,,,,,,,,,
,,,,,,,,,,,,,,,,,198967,18,2022-01-28_19h31.46.631,lexical_decision_task_DD_L5,2021.2.3,MacIntel,59.99880002,,,,,,,,,,,0.6027,1,,,,,,,,,,,,,,m,1,0.6027,,,,,,,,0.08484809,-0.424626736,0,0,0,,0,109,109,62,1,MAMMAL,C,old,m,./images/MAMMAL.png,,,,,,,,,,,,,,,,,,,,,,,
,,,,,,,,,,,,,,,,,198967,18,2022-01-28_19h31.46.631,lexical_decision_task_DD_L5,2021.2.3,MacIntel,59.99880002,,,,,,,,,,,0.6243,1,,,,,,,,,,,,,,m,1,0.6243,,,,,,,,0.08484809,-0.424626736,0,0,0,,0,110,110,37,1,TIGER,LB,old,m,./images/TIGERLB.png,,,,,,,,,,,,,,,,,,,,,,,
,,,,,,,,,,,,,,,,,198967,18,2022-01-28_19h31.46.631,lexical_decision_task_DD_L5,2021.2.3,MacIntel,59.99880002,,,,,,,,,,,0.9926,1,,,,,,,,,,,,,,z,1,0.9926,,,,,,,,0.08484809,-0.424626736,0,0,0,,0,111,111,150,1,NOOLS,C,old,z,./images/NOOLS.png,,,,,,,,,,,,,,,,,,,,,,,
,,,,,,,,,,,,,,,,,198967,18,2022-01-28_19h31.46.631,lexical_decision_task_DD_L5,2021.2.3,MacIntel,59.99880002,,,,,,,,,,,2.9323,1,,,,,,,,,,,,,,z,1,2.9323,,,,,,,,0.08484809,-0.424626736,0,0,0,,0,112,112,157,1,INLER,HB,old,z,./images/INLERHB.png,,,,,,,,,,,,,,,,,,,,,,,
,,,,,,,,,,,,,,,,,198967,18,2022-01-28_19h31.46.631,lexical_decision_task_DD_L5,2021.2.3,MacIntel,59.99880002,,,,,,,,,,,0.5845,1,,,,,,,,,,,,,,m,1,0.5845,,,,,,,,0.08484809,-0.424626736,0,0,0,,0,113,113,74,1,JUMPER,C,old,m,./images/JUMPER.png,,,,,,,,,,,,,,,,,,,,,,,
,,,,,,,,,,,,,,,,,198967,18,2022-01-28_19h31.46.631,lexical_decision_task_DD_L5,2021.2.3,MacIntel,59.99880002,,,,,,,,,,,0.8489,0,,,,,,,,,,,,,,z,0,0.8489,,,,,,,,0.08484809,-0.424626736,0,0,0,,0,114,114,12,1,BLOKE,HB,old,m,./images/BLOKEHB.png,,,,,,,,,,,,,,,,,,,,,,,
,,,,,,,,,,,,,,,,,198967,18,2022-01-28_19h31.46.631,lexical_decision_task_DD_L5,2021.2.3,MacIntel,59.99880002,,,,,,,,,,,1.0735,1,,,,,,,,,,,,,,z,1,1.0735,,,,,,,,0.08484809,-0.424626736,0,0,0,,0,115,115,120,1,RINED,C,old,z,./images/RINED.png,,,,,,,,,,,,,,,,,,,,,,,
,,,,,,,,,,,,,,,,,198967,18,2022-01-28_19h31.46.631,lexical_decision_task_DD_L5,2021.2.3,MacIntel,59.99880002,,,,,,,,,,,0.7749,1,,,,,,,,,,,,,,z,1,0.7749,,,,,,,,0.08484809,-0.424626736,0,0,0,,0,116,116,105,1,MOKER,C,old,z,./images/MOKER.png,,,,,,,,,,,,,,,,,,,,,,,
,,,,,,,,,,,,,,,,,198967,18,2022-01-28_19h31.46.631,lexical_decision_task_DD_L5,2021.2.3,MacIntel,59.99880002,,,,,,,,,,,1.3081,0,,,,,,,,,,,,,,z,0,1.3081,,,,,,,,0.08484809,-0.424626736,0,0,0,,0,117,117,3,1,CRATER,HB,old,m,./images/CRATERHB.png,,,,,,,,,,,,,,,,,,,,,,,
,,,,,,,,,,,,,,,,,198967,18,2022-01-28_19h31.46.631,lexical_decision_task_DD_L5,2021.2.3,MacIntel,59.99880002,,,,,,,,,,,0.7642,1,,,,,,,,,,,,,,m,1,0.7642,,,,,,,,0.08484809,-0.424626736,0,0,0,,0,118,118,54,1,CHERRY,HB,old,m,./images/CHERRYHB.png,,,,,,,,,,,,,,,,,,,,,,,
,,,,,,,,,,,,,,,,,198967,18,2022-01-28_19h31.46.631,lexical_decision_task_DD_L5,2021.2.3,MacIntel,59.99880002,,,,,,,,,,,0.7814,1,,,,,,,,,,,,,,m,1,0.7814,,,,,,,,0.08484809,-0.424626736,0,0,0,,0,119,119,51,1,SAUCE,HB,old,m,./images/SAUCEHB.png,,,,,,,,,,,,,,,,,,,,,,,
,,,,,,,,,,,,,,,,,198967,18,2022-01-28_19h31.46.631,lexical_decision_task_DD_L5,2021.2.3,MacIntel,59.99880002,,,,,,,,,,,0.5156,1,,,,,,,,,,,,,,m,1,0.5156,,,,,,,,0.08484809,-0.424626736,0,0,0,,0,120,120,73,1,GLOVE,LB,old,m,./images/GLOVELB.png,,,,,,,,,,,,,,,,,,,,,,,
,,,,,,,,,,,,,,,,,198967,18,2022-01-28_19h31.46.631,lexical_decision_task_DD_L5,2021.2.3,MacIntel,59.99880002,,,,,,,,,,,0.599,1,,,,,,,,,,,,,,z,1,0.599,,,,,,,,0.08484809,-0.424626736,0,0,0,,0,121,121,95,1,HANTY,LB,old,z,./images/HANTYLB.png,,,,,,,,,,,,,,,,,,,,,,,
,,,,,,,,,,,,,,,,,198967,18,2022-01-28_19h31.46.631,lexical_decision_task_DD_L5,2021.2.3,MacIntel,59.99880002,,,,,,,,,,,0.7854,1,,,,,,,,,,,,,,m,1,0.7854,,,,,,,,0.08484809,-0.424626736,0,0,0,,0,122,122,71,1,BUBBLE,C,old,m,./images/BUBBLE.png,,,,,,,,,,,,,,,,,,,,,,,
,,,,,,,,,,,,,,,,,198967,18,2022-01-28_19h31.46.631,lexical_decision_task_DD_L5,2021.2.3,MacIntel,59.99880002,,,,,,,,,,,0.5533,1,,,,,,,,,,,,,,z,1,0.5533,,,,,,,,0.08484809,-0.424626736,0,0,0,,0,123,123,158,1,EGECT,LB,old,z,./images/EGECTLB.png,,,,,,,,,,,,,,,,,,,,,,,
,,,,,,,,,,,,,,,,,198967,18,2022-01-28_19h31.46.631,lexical_decision_task_DD_L5,2021.2.3,MacIntel,59.99880002,,,,,,,,,,,0.5379,0,,,,,,,,,,,,,,m,0,0.5379,,,,,,,,0.08484809,-0.424626736,0,0,0,,0,124,124,141,1,PLEET,C,old,z,./images/PLEET.png,,,,,,,,,,,,,,,,,,,,,,,
,,,,,,,,,,,,,,,,,198967,18,2022-01-28_19h31.46.631,lexical_decision_task_DD_L5,2021.2.3,MacIntel,59.99880002,,,,,,,,,,,1.2405,0,,,,,,,,,,,,,,m,0,1.2405,,,,,,,,0.068272569,-0.390238715,0,0,0,space,0,125,125,140,1,DOVET,LB,old,z,./images/DOVETLB.png,,12.0953,,,,,,,,,,,,,,,,,,,,,
,,,,,,,,,,,,,,,,,198967,18,2022-01-28_19h31.46.631,lexical_decision_task_DD_L5,2021.2.3,MacIntel,59.99880002,,,,,,,,,,,0.7887,1,,,,,,,,,,,,,,z,1,0.7887,,,,,,,,0.068272569,-0.390238715,0,0,0,,0,126,126,87,1,TRING,C,old,z,./images/TRING.png,,,,,,,,,,,,,,,,,,,,,,,
,,,,,,,,,,,,,,,,,198967,18,2022-01-28_19h31.46.631,lexical_decision_task_DD_L5,2021.2.3,MacIntel,59.99880002,,,,,,,,,,,0.4862,1,,,,,,,,,,,,,,m,1,0.4862,,,,,,,,0.068272569,-0.390238715,0,0,0,,0,127,127,80,1,PLANET,C,old,m,./images/PLANET.png,,,,,,,,,,,,,,,,,,,,,,,
,,,,,,,,,,,,,,,,,198967,18,2022-01-28_19h31.46.631,lexical_decision_task_DD_L5,2021.2.3,MacIntel,59.99880002,,,,,,,,,,,0.6039,1,,,,,,,,,,,,,,z,1,0.6039,,,,,,,,0.068272569,-0.390238715,0,0,0,,0,128,128,144,1,NAIRY,C,old,z,./images/NAIRY.png,,,,,,,,,,,,,,,,,,,,,,,
,,,,,,,,,,,,,,,,,198967,18,2022-01-28_19h31.46.631,lexical_decision_task_DD_L5,2021.2.3,MacIntel,59.99880002,,,,,,,,,,,0.654,1,,,,,,,,,,,,,,m,1,0.654,,,,,,,,0.068272569,-0.390238715,0,0,0,,0,129,129,7,1,WAGON,LB,old,m,./images/WAGONLB.png,,,,,,,,,,,,,,,,,,,,,,,
,,,,,,,,,,,,,,,,,198967,18,2022-01-28_19h31.46.631,lexical_decision_task_DD_L5,2021.2.3,MacIntel,59.99880002,,,,,,,,,,,0.6124,1,,,,,,,,,,,,,,z,1,0.6124,,,,,,,,0.068272569,-0.390238715,0,0,0,,0,130,130,129,1,PRANS,C,old,z,./images/PRANS.png,,,,,,,,,,,,,,,,,,,,,,,
,,,,,,,,,,,,,,,,,198967,18,2022-01-28_19h31.46.631,lexical_decision_task_DD_L5,2021.2.3,MacIntel,59.99880002,,,,,,,,,,,0.6141,1,,,,,,,,,,,,,,m,1,0.6141,,,,,,,,0.068272569,-0.390238715,0,0,0,,0,131,131,49,1,BISHOP,LB,old,m,./images/BISHOPLB.png,,,,,,,,,,,,,,,,,,,,,,,
,,,,,,,,,,,,,,,,,198967,18,2022-01-28_19h31.46.631,lexical_decision_task_DD_L5,2021.2.3,MacIntel,59.99880002,,,,,,,,,,,0.8685,1,,,,,,,,,,,,,,z,1,0.8685,,,,,,,,0.068272569,-0.390238715,0,0,0,,0,132,132,96,1,KEAMS,C,old,z,./images/KEAMS.png,,,,,,,,,,,,,,,,,,,,,,,
,,,,,,,,,,,,,,,,,198967,18,2022-01-28_19h31.46.631,lexical_decision_task_DD_L5,2021.2.3,MacIntel,59.99880002,,,,,,,,,,,0.6323,1,,,,,,,,,,,,,,m,1,0.6323,,,,,,,,0.068272569,-0.390238715,0,0,0,,0,133,133,55,1,ALLEY,LB,old,m,./images/ALLEYLB.png,,,,,,,,,,,,,,,,,,,,,,,
,,,,,,,,,,,,,,,,,198967,18,2022-01-28_19h31.46.631,lexical_decision_task_DD_L5,2021.2.3,MacIntel,59.99880002,,,,,,,,,,,0.7299,1,,,,,,,,,,,,,,m,1,0.7299,,,,,,,,0.068272569,-0.390238715,0,0,0,,0,134,134,48,1,SHIELD,HB,old,m,./images/SHIELDHB.png,,,,,,,,,,,,,,,,,,,,,,,
,,,,,,,,,,,,,,,,,198967,18,2022-01-28_19h31.46.631,lexical_decision_task_DD_L5,2021.2.3,MacIntel,59.99880002,,,,,,,,,,,1.0045,1,,,,,,,,,,,,,,z,1,1.0045,,,,,,,,0.068272569,-0.390238715,0,0,0,,0,135,135,143,1,MONGS,LB,old,z,./images/MONGSLB.png,,,,,,,,,,,,,,,,,,,,,,,
,,,,,,,,,,,,,,,,,198967,18,2022-01-28_19h31.46.631,lexical_decision_task_DD_L5,2021.2.3,MacIntel,59.99880002,,,,,,,,,,,0.6242,1,,,,,,,,,,,,,,m,1,0.6242,,,,,,,,0.068272569,-0.390238715,0,0,0,,0,136,136,61,1,ARTIST,LB,old,m,./images/ARTISTLB.png,,,,,,,,,,,,,,,,,,,,,,,
,,,,,,,,,,,,,,,,,198967,18,2022-01-28_19h31.46.631,lexical_decision_task_DD_L5,2021.2.3,MacIntel,59.99880002,,,,,,,,,,,0.6279,1,,,,,,,,,,,,,,m,1,0.6279,,,,,,,,0.068272569,-0.390238715,0,0,0,,0,137,137,64,1,BRIDE,LB,old,m,./images/BRIDELB.png,,,,,,,,,,,,,,,,,,,,,,,
,,,,,,,,,,,,,,,,,198967,18,2022-01-28_19h31.46.631,lexical_decision_task_DD_L5,2021.2.3,MacIntel,59.99880002,,,,,,,,,,,1.4159,1,,,,,,,,,,,,,,z,1,1.4159,,,,,,,,0.068272569,-0.390238715,0,0,0,,0,138,138,130,1,CRILL,HB,old,z,./images/CRILLHB.png,,,,,,,,,,,,,,,,,,,,,,,
,,,,,,,,,,,,,,,,,198967,18,2022-01-28_19h31.46.631,lexical_decision_task_DD_L5,2021.2.3,MacIntel,59.99880002,,,,,,,,,,,0.6739,1,,,,,,,,,,,,,,z,1,0.6739,,,,,,,,0.068272569,-0.390238715,0,0,0,,0,139,139,137,1,JOOST,LB,old,z,./images/JOOSTLB.png,,,,,,,,,,,,,,,,,,,,,,,
,,,,,,,,,,,,,,,,,198967,18,2022-01-28_19h31.46.631,lexical_decision_task_DD_L5,2021.2.3,MacIntel,59.99880002,,,,,,,,,,,0.721,1,,,,,,,,,,,,,,z,1,0.721,,,,,,,,0.068272569,-0.390238715,0,0,0,,0,140,140,138,1,PLICE,C,old,z,./images/PLICE.png,,,,,,,,,,,,,,,,,,,,,,,
,,,,,,,,,,,,,,,,,198967,18,2022-01-28_19h31.46.631,lexical_decision_task_DD_L5,2021.2.3,MacIntel,59.99880002,,,,,,,,,,,0.7792,1,,,,,,,,,,,,,,m,1,0.7792,,,,,,,,0.068272569,-0.390238715,0,0,0,,0,141,141,39,1,CANDY,HB,old,m,./images/CANDYHB.png,,,,,,,,,,,,,,,,,,,,,,,
,,,,,,,,,,,,,,,,,198967,18,2022-01-28_19h31.46.631,lexical_decision_task_DD_L5,2021.2.3,MacIntel,59.99880002,,,,,,,,,,,0.6898,1,,,,,,,,,,,,,,m,1,0.6898,,,,,,,,0.068272569,-0.390238715,0,0,0,,0,142,142,20,1,GRANNY,C,old,m,./images/GRANNY.png,,,,,,,,,,,,,,,,,,,,,,,
,,,,,,,,,,,,,,,,,198967,18,2022-01-28_19h31.46.631,lexical_decision_task_DD_L5,2021.2.3,MacIntel,59.99880002,,,,,,,,,,,0.796,1,,,,,,,,,,,,,,m,1,0.796,,,,,,,,0.068272569,-0.390238715,0,0,0,,0,143,143,18,1,PARCEL,HB,old,m,./images/PARCELHB.png,,,,,,,,,,,,,,,,,,,,,,,
,,,,,,,,,,,,,,,,,198967,18,2022-01-28_19h31.46.631,lexical_decision_task_DD_L5,2021.2.3,MacIntel,59.99880002,,,,,,,,,,,0.6042,1,,,,,,,,,,,,,,m,1,0.6042,,,,,,,,0.068272569,-0.390238715,0,0,0,,0,144,144,77,1,WHEEL,C,old,m,./images/WHEEL.png,,,,,,,,,,,,,,,,,,,,,,,
,,,,,,,,,,,,,,,,,198967,18,2022-01-28_19h31.46.631,lexical_decision_task_DD_L5,2021.2.3,MacIntel,59.99880002,,,,,,,,,,,1.0702,1,,,,,,,,,,,,,,z,1,1.0702,,,,,,,,0.068272569,-0.390238715,0,0,0,,0,145,145,162,1,LEICH,C,old,z,./images/LEICH.png,,,,,,,,,,,,,,,,,,,,,,,
,,,,,,,,,,,,,,,,,198967,18,2022-01-28_19h31.46.631,lexical_decision_task_DD_L5,2021.2.3,MacIntel,59.99880002,,,,,,,,,,,1.1708,1,,,,,,,,,,,,,,z,1,1.1708,,,,,,,,0.068272569,-0.390238715,0,0,0,,0,146,146,106,1,CLUMS,HB,old,z,./images/CLUMSHB.png,,,,,,,,,,,,,,,,,,,,,,,
,,,,,,,,,,,,,,,,,198967,18,2022-01-28_19h31.46.631,lexical_decision_task_DD_L5,2021.2.3,MacIntel,59.99880002,,,,,,,,,,,0.974,1,,,,,,,,,,,,,,m,1,0.974,,,,,,,,0.068272569,-0.390238715,0,0,0,,0,147,147,21,1,DANCER,HB,old,m,./images/DANCERHB.png,,,,,,,,,,,,,,,,,,,,,,,
,,,,,,,,,,,,,,,,,198967,18,2022-01-28_19h31.46.631,lexical_decision_task_DD_L5,2021.2.3,MacIntel,59.99880002,,,,,,,,,,,0.7032,1,,,,,,,,,,,,,,z,1,0.7032,,,,,,,,0.068272569,-0.390238715,0,0,0,,0,148,148,123,1,SEDGE,C,old,z,./images/SEDGE.png,,,,,,,,,,,,,,,,,,,,,,,
,,,,,,,,,,,,,,,,,198967,18,2022-01-28_19h31.46.631,lexical_decision_task_DD_L5,2021.2.3,MacIntel,59.99880002,,,,,,,,,,,0.9793,1,,,,,,,,,,,,,,m,1,0.9793,,,,,,,,0.068272569,-0.390238715,0,0,0,,0,149,149,57,1,FERRY,HB,old,m,./images/FERRYHB.png,,,,,,,,,,,,,,,,,,,,,,,
,,,,,,,,,,,,,,,,,198967,18,2022-01-28_19h31.46.631,lexical_decision_task_DD_L5,2021.2.3,MacIntel,59.99880002,,,,,,,,,,,0.8234,1,,,,,,,,,,,,,,m,1,0.8234,,,,,,,,0.068272569,-0.390238715,0,0,0,,0,150,150,78,1,BROOM,HB,old,m,./images/BROOMHB.png,,,,,,,,,,,,,,,,,,,,,,,
,,,,,,,,,,,,,,,,,198967,18,2022-01-28_19h31.46.631,lexical_decision_task_DD_L5,2021.2.3,MacIntel,59.99880002,,,,,,,,,,,0.547,0,,,,,,,,,,,,,,m,0,0.547,,,,,,,,0.068272569,-0.390238715,0,0,0,,0,151,151,107,1,FASKS,LB,old,z,./images/FASKSLB.png,,,,,,,,,,,,,,,,,,,,,,,
,,,,,,,,,,,,,,,,,198967,18,2022-01-28_19h31.46.631,lexical_decision_task_DD_L5,2021.2.3,MacIntel,59.99880002,,,,,,,,,,,0.5962,1,,,,,,,,,,,,,,m,1,0.5962,,,,,,,,0.068272569,-0.390238715,0,0,0,,0,152,152,46,1,MUMMY,LB,old,m,./images/MUMMYLB.png,,,,,,,,,,,,,,,,,,,,,,,
,,,,,,,,,,,,,,,,,198967,18,2022-01-28_19h31.46.631,lexical_decision_task_DD_L5,2021.2.3,MacIntel,59.99880002,,,,,,,,,,,0.6741,1,,,,,,,,,,,,,,m,1,0.6741,,,,,,,,0.068272569,-0.390238715,0,0,0,,0,153,153,81,1,DRILL,HB,old,m,./images/DRILLHB.png,,,,,,,,,,,,,,,,,,,,,,,
,,,,,,,,,,,,,,,,,198967,18,2022-01-28_19h31.46.631,lexical_decision_task_DD_L5,2021.2.3,MacIntel,59.99880002,,,,,,,,,,,0.4989,1,,,,,,,,,,,,,,m,1,0.4989,,,,,,,,0.068272569,-0.390238715,0,0,0,,0,154,154,22,1,CLOWN,LB,old,m,./images/CLOWNLB.png,,,,,,,,,,,,,,,,,,,,,,,
,,,,,,,,,,,,,,,,,198967,18,2022-01-28_19h31.46.631,lexical_decision_task_DD_L5,2021.2.3,MacIntel,59.99880002,,,,,,,,,,,1.0132,1,,,,,,,,,,,,,,z,1,1.0132,,,,,,,,0.068272569,-0.390238715,0,0,0,,0,155,155,139,1,BLEAR,HB,old,z,./images/BLEARHB.png,,,,,,,,,,,,,,,,,,,,,,,
,,,,,,,,,,,,,,,,,198967,18,2022-01-28_19h31.46.631,lexical_decision_task_DD_L5,2021.2.3,MacIntel,59.99880002,,,,,,,,,,,0.5964,1,,,,,,,,,,,,,,z,1,0.5964,,,,,,,,0.068272569,-0.390238715,0,0,0,,0,156,156,152,1,FRAIN,LB,old,z,./images/FRAINLB.png,,,,,,,,,,,,,,,,,,,,,,,
,,,,,,,,,,,,,,,,,198967,18,2022-01-28_19h31.46.631,lexical_decision_task_DD_L5,2021.2.3,MacIntel,59.99880002,,,,,,,,,,,0.9496,1,,,,,,,,,,,,,,z,1,0.9496,,,,,,,,0.068272569,-0.390238715,0,0,0,,0,157,157,149,1,VEASE,LB,old,z,./images/VEASELB.png,,,,,,,,,,,,,,,,,,,,,,,
,,,,,,,,,,,,,,,,,198967,18,2022-01-28_19h31.46.631,lexical_decision_task_DD_L5,2021.2.3,MacIntel,59.99880002,,,,,,,,,,,0.7804,1,,,,,,,,,,,,,,z,1,0.7804,,,,,,,,0.068272569,-0.390238715,0,0,0,,0,158,158,97,1,CHIDS,HB,old,z,./images/CHIDSHB.png,,,,,,,,,,,,,,,,,,,,,,,
,,,,,,,,,,,,,,,,,198967,18,2022-01-28_19h31.46.631,lexical_decision_task_DD_L5,2021.2.3,MacIntel,59.99880002,,,,,,,,,,,0.6185,1,,,,,,,,,,,,,,m,1,0.6185,,,,,,,,0.068272569,-0.390238715,0,0,0,,0,159,159,13,1,BUNNY,LB,old,m,./images/BUNNYLB.png,,,,,,,,,,,,,,,,,,,,,,,
,,,,,,,,,,,,,,,,,198967,18,2022-01-28_19h31.46.631,lexical_decision_task_DD_L5,2021.2.3,MacIntel,59.99880002,,,,,,,,,,,1.0517,1,,,,,,,,,,,,,,m,1,1.0517,,,,,,,,0.068272569,-0.390238715,0,0,0,,0,160,160,33,1,SAUNA,HB,old,m,./images/SAUNAHB.png,,,,,,,,,,,,,,,,,,,,,,,
,,,,,,,,,,,,,,,,,198967,18,2022-01-28_19h31.46.631,lexical_decision_task_DD_L5,2021.2.3,MacIntel,59.99880002,,,,,,,,,,,1.2308,1,,,,,,,,,,,,,,z,1,1.2308,,,,,,,,0.068272569,-0.390238715,0,0,0,,0,161,161,163,1,GAMBA,HB,old,z,./images/GAMBAHB.png,,,,,,,,,,,,,,,,,,,,,,,
,,,,,,,,,,,,,,,,,198967,18,2022-01-28_19h31.46.631,lexical_decision_task_DD_L5,2021.2.3,MacIntel,59.99880002,,,,,,,,,,,0.7318,1,,,,,,,,,,,,,,z,1,0.7318,,,,,,,,0.068272569,-0.390238715,0,0,0,,0,162,162,104,1,GITTY,LB,old,z,./images/GITTYLB.png,,,,,,,,,,,,,,,,,,,,,,,
,,,,,,,,,,,,,,,,,198967,18,2022-01-28_19h31.46.631,lexical_decision_task_DD_L5,2021.2.3,MacIntel,59.99880002,,,,,,,,,,,0.588,1,,,,,,,,,,,,,,m,1,0.588,,,,,,,,0.068272569,-0.390238715,0,0,0,,0,163,163,53,1,POSTER,C,old,m,./images/POSTER.png,,,,,,,,,,,,,,,,,,,,,,,
,,,,,,,,,,,,,,,,,198967,18,2022-01-28_19h31.46.631,lexical_decision_task_DD_L5,2021.2.3,MacIntel,59.99880002,,,,,,,,,,,0.7629,1,,,,,,,,,,,,,,z,1,0.7629,,,,,,,,0.068272569,-0.390238715,0,0,0,,0,164,164,92,1,PAIMS,LB,old,z,./images/PAIMSLB.png,,,,,,,,,,,,,,,,,,,,,,,
,,,,,,,,,,,,,,,,,198967,18,2022-01-28_19h31.46.631,lexical_decision_task_DD_L5,2021.2.3,MacIntel,59.99880002,,,,,,,,,,,0.8679,1,,,,,,,,,,,,,,z,1,0.8679,,,,,,,,0.068272569,-0.390238715,0,0,0,,0,165,165,101,1,GLEET,LB,old,z,./images/GLEETLB.png,,,,,,,,,,,,,,,,,,,,,,,
,,,,,,,,,,,,,,,,,198967,18,2022-01-28_19h31.46.631,lexical_decision_task_DD_L5,2021.2.3,MacIntel,59.99880002,,,,,,,,,,,1.2535,1,,,,,,,,,,,,,,m,1,1.2535,,,,,,,,0.068272569,-0.390238715,0,0,0,,0,166,166,52,1,DESERT,LB,old,m,./images/DESERTLB.png,,,,,,,,,,,,,,,,,,,,,,,
,,,,,,,,,,,,,,,,,198967,18,2022-01-28_19h31.46.631,lexical_decision_task_DD_L5,2021.2.3,MacIntel,59.99880002,,,,,,,,,,,0.7577,1,,,,,,,,,,,,,,z,1,0.7577,,,,,,,,0.068272569,-0.390238715,0,0,0,,0,167,167,164,1,SGREW,LB,old,z,./images/SGREWLB.png,,,,,,,,,,,,,,,,,,,,,,,
space,0.068272569,-0.390238715,0,0,0,,,,,,,1,test,"In the next phase you will be presented with the words from the the first phase. Your job is to decide whether you remember seeing the word or not. If you remember seeing the word press ""old"" or type ""m"". If you do not remember seeing the word press ""new"" or type ""z"". Please press the space bar or click on continue to begin. ",,,198967,18,2022-01-28_19h31.46.631,lexical_decision_task_DD_L5,2021.2.3,MacIntel,59.99880002,,,,,,,,,,,,,,,,,,,,,,,,,,,,,,,,,,,,,,,,,,,,,,,,,,,,,,29.524,0,0,0,0,1,,,,,,,,,,,,,,,
,0.051280382,-0.41437066,1,0,0,instr_done_button,,,,,,1,test,"In the next phase you will be presented with the words from the the first phase. Your job is to decide whether you remember seeing the word or not. If you remember seeing the word press ""old"" or type ""m"". If you do not remember seeing the word press ""new"" or type ""z"". Please press the space bar or click on continue to begin. ",,,198967,18,2022-01-28_19h31.46.631,lexical_decision_task_DD_L5,2021.2.3,MacIntel,59.99880002,,,,,,,,,,,,,,,,,,,,,,,,,,,,,,,,,,,,,,,,,,,,,,,,,,,,,,,1,0,1,0,1,,,,,,,,,,,,,,,
,0.051280382,-0.41437066,1,0,0,instr_done_button,,,,,,1,test,"In the next phase you will be presented with the words from the the first phase. Your job is to decide whether you remember seeing the word or not. If you remember seeing the word press ""old"" or type ""m"". If you do not remember seeing the word press ""new"" or type ""z"". Please press the space bar or click on continue to begin. ",,,198967,18,2022-01-28_19h31.46.631,lexical_decision_task_DD_L5,2021.2.3,MacIntel,59.99880002,,,,,,,,,,,,,,,,,,,,,,,,,,,,,,,,,,,,,,,,,,,,,,,,,,,,,,,2,0,2,0,1,,,,,,,,,,,,,,,
,-0.054427083,-0.394123264,1,0,0,instr_done_button,,,,,,1,test,"In the next phase you will be presented with the words from the the first phase. Your job is to decide whether you remember seeing the word or not. If you remember seeing the word press ""old"" or type ""m"". If you do not remember seeing the word press ""new"" or type ""z"". Please press the space bar or click on continue to begin. ",,,198967,18,2022-01-28_19h31.46.631,lexical_decision_task_DD_L5,2021.2.3,MacIntel,59.99880002,,,,,,,,,,,,,,,,,,,,,,,,,,,,,,,,,,,,,,,,,,,,,,,,,,,,,,,3,0,3,0,1,,,,,,,,,,,,,,,
space,-0.016219618,-0.311909722,0,0,0,,,,,,,1,test,"In the next phase you will be presented with the words from the the first phase. Your job is to decide whether you remember seeing the word or not. If you remember seeing the word press ""old"" or type ""m"". If you do not remember seeing the word press ""new"" or type ""z"". Please press the space bar or click on continue to begin. ",,,198967,18,2022-01-28_19h31.46.631,lexical_decision_task_DD_L5,2021.2.3,MacIntel,59.99880002,,,,,,,,,,,,,,,,,,,,,,,,,,,,,,,,,,,,,,,,,,,,,,,,,,,,,,1.3534,4,0,4,0,1,,,,,,,,,,,,,,,
,,,,,,,,,,,,,,,,,198967,18,2022-01-28_19h31.46.631,lexical_decision_task_DD_L5,2021.2.3,MacIntel,59.99880002,,,,,,,,,,,2.6807,0,,,,,,,,,,,,,,,,,,,,,,,,-0.016219618,-0.311909722,0,0,0,,,,,,,BONNET,C,z,y,./images/BONNET.png,,,,,,,,,m,0,2.6807,,,,,,,,0,0,0,95,1
,,,,,,,,,,,,,,,,,198967,18,2022-01-28_19h31.46.631,lexical_decision_task_DD_L5,2021.2.3,MacIntel,59.99880002,,,,,,,,,,,0.8265,1,,,,,,,,,,,,,,,,,,,,,,,,-0.016219618,-0.311909722,0,0,0,,,,,,,MIDGET,LB,m,y,./images/MIDGETLB.png,,,,,,,,,m,1,0.8265,,,,,,,,0,1,1,76,1
,,,,,,,,,,,,,,,,,198967,18,2022-01-28_19h31.46.631,lexical_decision_task_DD_L5,2021.2.3,MacIntel,59.99880002,,,,,,,,,,,0.6132,1,,,,,,,,,,,,,,,,,,,,,,,,-0.016219618,-0.311909722,0,0,0,,,,,,,CLOWN,LB,m,y,./images/CLOWNLB.png,,,,,,,,,m,1,0.6132,,,,,,,,0,2,2,22,1
,,,,,,,,,,,,,,,,,198967,18,2022-01-28_19h31.46.631,lexical_decision_task_DD_L5,2021.2.3,MacIntel,59.99880002,,,,,,,,,,,0.7273,1,,,,,,,,,,,,,,,,,,,,,,,,-0.016219618,-0.311909722,0,0,0,,,,,,,DESERT,LB,m,y,./images/DESERTLB.png,,,,,,,,,m,1,0.7273,,,,,,,,0,3,3,52,1
,,,,,,,,,,,,,,,,,198967,18,2022-01-28_19h31.46.631,lexical_decision_task_DD_L5,2021.2.3,MacIntel,59.99880002,,,,,,,,,,,1.1386,1,,,,,,,,,,,,,,,,,,,,,,,,-0.016219618,-0.311909722,0,0,0,,,,,,,SPORT,HB,z,y,./images/SPORTHB.png,,,,,,,,,z,1,1.1386,,,,,,,,0,4,4,132,1
,,,,,,,,,,,,,,,,,198967,18,2022-01-28_19h31.46.631,lexical_decision_task_DD_L5,2021.2.3,MacIntel,59.99880002,,,,,,,,,,,0.7215,1,,,,,,,,,,,,,,,,,,,,,,,,-0.016219618,-0.311909722,0,0,0,,,,,,,FLASK,HB,m,y,./images/FLASKHB.png,,,,,,,,,m,1,0.7215,,,,,,,,0,5,5,72,1
,,,,,,,,,,,,,,,,,198967,18,2022-01-28_19h31.46.631,lexical_decision_task_DD_L5,2021.2.3,MacIntel,59.99880002,,,,,,,,,,,1.483,1,,,,,,,,,,,,,,,,,,,,,,,,-0.016219618,-0.311909722,0,0,0,,,,,,,HEATER,C,m,y,./images/HEATER.png,,,,,,,,,m,1,1.483,,,,,,,,0,6,6,56,1
,,,,,,,,,,,,,,,,,198967,18,2022-01-28_19h31.46.631,lexical_decision_task_DD_L5,2021.2.3,MacIntel,59.99880002,,,,,,,,,,,1.1142,0,,,,,,,,,,,,,,,,,,,,,,,,-0.016219618,-0.311909722,0,0,0,,,,,,,ENGINE,C,m,y,./images/ENGINE.png,,,,,,,,,z,0,1.1142,,,,,,,,0,7,7,38,1
,,,,,,,,,,,,,,,,,198967,18,2022-01-28_19h31.46.631,lexical_decision_task_DD_L5,2021.2.3,MacIntel,59.99880002,,,,,,,,,,,1.0679,0,,,,,,,,,,,,,,,,,,,,,,,,-0.016219618,-0.311909722,0,0,0,,,,,,,CLIFF,C,m,y,./images/CLIFF.png,,,,,,,,,z,0,1.0679,,,,,,,,0,8,8,8,1
,,,,,,,,,,,,,,,,,198967,18,2022-01-28_19h31.46.631,lexical_decision_task_DD_L5,2021.2.3,MacIntel,59.99880002,,,,,,,,,,,0.7683,1,,,,,,,,,,,,,,,,,,,,,,,,-0.016219618,-0.311909722,0,0,0,,,,,,,KITTEN,HB,z,y,./images/KITTENHB.png,,,,,,,,,z,1,0.7683,,,,,,,,0,9,9,129,1
,,,,,,,,,,,,,,,,,198967,18,2022-01-28_19h31.46.631,lexical_decision_task_DD_L5,2021.2.3,MacIntel,59.99880002,,,,,,,,,,,0.7687,1,,,,,,,,,,,,,,,,,,,,,,,,-0.016219618,-0.311909722,0,0,0,,,,,,,PURSE,C,z,y,./images/PURSE.png,,,,,,,,,z,1,0.7687,,,,,,,,0,10,10,146,1
,,,,,,,,,,,,,,,,,198967,18,2022-01-28_19h31.46.631,lexical_decision_task_DD_L5,2021.2.3,MacIntel,59.99880002,,,,,,,,,,,0.6485,1,,,,,,,,,,,,,,,,,,,,,,,,-0.016219618,-0.311909722,0,0,0,,,,,,,ONION,HB,z,y,./images/ONIONHB.png,,,,,,,,,z,1,0.6485,,,,,,,,0,11,11,135,1
,,,,,,,,,,,,,,,,,198967,18,2022-01-28_19h31.46.631,lexical_decision_task_DD_L5,2021.2.3,MacIntel,59.99880002,,,,,,,,,,,0.6591,1,,,,,,,,,,,,,,,,,,,,,,,,-0.016219618,-0.311909722,0,0,0,,,,,,,ARTIST,LB,m,y,./images/ARTISTLB.png,,,,,,,,,m,1,0.6591,,,,,,,,0,12,12,61,1
,,,,,,,,,,,,,,,,,198967,18,2022-01-28_19h31.46.631,lexical_decision_task_DD_L5,2021.2.3,MacIntel,59.99880002,,,,,,,,,,,1.1001,0,,,,,,,,,,,,,,,,,,,,,,,,-0.016219618,-0.311909722,0,0,0,,,,,,,GRAIN,HB,z,y,./images/GRAINHB.png,,,,,,,,,m,0,1.1001,,,,,,,,0,13,13,159,1
,,,,,,,,,,,,,,,,,198967,18,2022-01-28_19h31.46.631,lexical_decision_task_DD_L5,2021.2.3,MacIntel,59.99880002,,,,,,,,,,,0.6348,1,,,,,,,,,,,,,,,,,,,,,,,,-0.016219618,-0.311909722,0,0,0,,,,,,,FERRY,HB,m,y,./images/FERRYHB.png,,,,,,,,,m,1,0.6348,,,,,,,,0,14,14,57,1
,,,,,,,,,,,,,,,,,198967,18,2022-01-28_19h31.46.631,lexical_decision_task_DD_L5,2021.2.3,MacIntel,59.99880002,,,,,,,,,,,0.7498,1,,,,,,,,,,,,,,,,,,,,,,,,-0.016219618,-0.311909722,0,0,0,,,,,,,PASTA,C,z,y,./images/PASTA.png,,,,,,,,,z,1,0.7498,,,,,,,,0,15,15,89,1
,,,,,,,,,,,,,,,,,198967,18,2022-01-28_19h31.46.631,lexical_decision_task_DD_L5,2021.2.3,MacIntel,59.99880002,,,,,,,,,,,0.7959,0,,,,,,,,,,,,,,,,,,,,,,,,-0.016219618,-0.311909722,0,0,0,,,,,,,FLESH,HB,m,y,./images/FLESHHB.png,,,,,,,,,z,0,0.7959,,,,,,,,0,16,16,24,1
,,,,,,,,,,,,,,,,,198967,18,2022-01-28_19h31.46.631,lexical_decision_task_DD_L5,2021.2.3,MacIntel,59.99880002,,,,,,,,,,,1.1817,0,,,,,,,,,,,,,,,,,,,,,,,,-0.016219618,-0.311909722,0,0,0,,,,,,,BRIDE,LB,m,y,./images/BRIDELB.png,,,,,,,,,z,0,1.1817,,,,,,,,0,17,17,64,1
,,,,,,,,,,,,,,,,,198967,18,2022-01-28_19h31.46.631,lexical_decision_task_DD_L5,2021.2.3,MacIntel,59.99880002,,,,,,,,,,,1.1497,1,,,,,,,,,,,,,,,,,,,,,,,,-0.016219618,-0.311909722,0,0,0,,,,,,,VALLEY,C,m,y,./images/VALLEY.png,,,,,,,,,m,1,1.1497,,,,,,,,0,18,18,68,1
,,,,,,,,,,,,,,,,,198967,18,2022-01-28_19h31.46.631,lexical_decision_task_DD_L5,2021.2.3,MacIntel,59.99880002,,,,,,,,,,,1.0497,0,,,,,,,,,,,,,,,,,,,,,,,,-0.016219618,-0.311909722,0,0,0,,,,,,,BABOON,LB,z,y,./images/BABOONLB.png,,,,,,,,,m,0,1.0497,,,,,,,,0,19,19,142,1
,,,,,,,,,,,,,,,,,198967,18,2022-01-28_19h31.46.631,lexical_decision_task_DD_L5,2021.2.3,MacIntel,59.99880002,,,,,,,,,,,0.9054,1,,,,,,,,,,,,,,,,,,,,,,,,-0.016219618,-0.311909722,0,0,0,,,,,,,CARPET,C,z,y,./images/CARPET.png,,,,,,,,,z,1,0.9054,,,,,,,,0,20,20,137,1
,,,,,,,,,,,,,,,,,198967,18,2022-01-28_19h31.46.631,lexical_decision_task_DD_L5,2021.2.3,MacIntel,59.99880002,,,,,,,,,,,0.6574,1,,,,,,,,,,,,,,,,,,,,,,,,-0.016219618,-0.311909722,0,0,0,,,,,,,STEAK,LB,m,y,./images/STEAKLB.png,,,,,,,,,m,1,0.6574,,,,,,,,0,21,21,31,1
,,,,,,,,,,,,,,,,,198967,18,2022-01-28_19h31.46.631,lexical_decision_task_DD_L5,2021.2.3,MacIntel,59.99880002,,,,,,,,,,,0.7191,1,,,,,,,,,,,,,,,,,,,,,,,,-0.016219618,-0.311909722,0,0,0,,,,,,,PIMPLE,C,z,y,./images/PIMPLE.png,,,,,,,,,z,1,0.7191,,,,,,,,0,22,22,155,1
,,,,,,,,,,,,,,,,,198967,18,2022-01-28_19h31.46.631,lexical_decision_task_DD_L5,2021.2.3,MacIntel,59.99880002,,,,,,,,,,,0.6672,1,,,,,,,,,,,,,,,,,,,,,,,,-0.016219618,-0.311909722,0,0,0,,,,,,,BUBBLE,C,m,y,./images/BUBBLE.png,,,,,,,,,m,1,0.6672,,,,,,,,0,23,23,71,1
,,,,,,,,,,,,,,,,,198967,18,2022-01-28_19h31.46.631,lexical_decision_task_DD_L5,2021.2.3,MacIntel,59.99880002,,,,,,,,,,,0.8683,1,,,,,,,,,,,,,,,,,,,,,,,,-0.016219618,-0.311909722,0,0,0,,,,,,,SWEAT,HB,z,y,./images/SWEATHB.png,,,,,,,,,z,1,0.8683,,,,,,,,0,24,24,150,1
,,,,,,,,,,,,,,,,,198967,18,2022-01-28_19h31.46.631,lexical_decision_task_DD_L5,2021.2.3,MacIntel,59.99880002,,,,,,,,,,,0.9091,1,,,,,,,,,,,,,,,,,,,,,,,,-0.016219618,-0.311909722,0,0,0,,,,,,,SAILOR,LB,z,y,./images/SAILORLB.png,,,,,,,,,z,1,0.9091,,,,,,,,0,25,25,151,1
,,,,,,,,,,,,,,,,,198967,18,2022-01-28_19h31.46.631,lexical_decision_task_DD_L5,2021.2.3,MacIntel,59.99880002,,,,,,,,,,,0.9628,0,,,,,,,,,,,,,,,,,,,,,,,,-0.016219618,-0.311909722,0,0,0,,,,,,,CRADLE,C,z,y,./images/CRADLE.png,,,,,,,,,m,0,0.9628,,,,,,,,0,26,26,104,1
,,,,,,,,,,,,,,,,,198967,18,2022-01-28_19h31.46.631,lexical_decision_task_DD_L5,2021.2.3,MacIntel,59.99880002,,,,,,,,,,,0.6406,1,,,,,,,,,,,,,,,,,,,,,,,,-0.016219618,-0.311909722,0,0,0,,,,,,,BUNNY,LB,m,y,./images/BUNNYLB.png,,,,,,,,,m,1,0.6406,,,,,,,,0,27,27,13,1
,,,,,,,,,,,,,,,,,198967,18,2022-01-28_19h31.46.631,lexical_decision_task_DD_L5,2021.2.3,MacIntel,59.99880002,,,,,,,,,,,1.1549,1,,,,,,,,,,,,,,,,,,,,,,,,-0.016219618,-0.311909722,0,0,0,,,,,,,NOOSE,HB,z,y,./images/NOOSEHB.png,,,,,,,,,z,1,1.1549,,,,,,,,0,28,28,156,1
,,,,,,,,,,,,,,,,,198967,18,2022-01-28_19h31.46.631,lexical_decision_task_DD_L5,2021.2.3,MacIntel,59.99880002,,,,,,,,,,,0.6126,1,,,,,,,,,,,,,,,,,,,,,,,,-0.016219618,-0.311909722,0,0,0,,,,,,,CHERRY,HB,m,y,./images/CHERRYHB.png,,,,,,,,,m,1,0.6126,,,,,,,,0,29,29,54,1
,,,,,,,,,,,,,,,,,198967,18,2022-01-28_19h31.46.631,lexical_decision_task_DD_L5,2021.2.3,MacIntel,59.99880002,,,,,,,,,,,1.6322,1,,,,,,,,,,,,,,,,,,,,,,,,-0.016219618,-0.311909722,0,0,0,,,,,,,WHEEL,C,m,y,./images/WHEEL.png,,,,,,,,,m,1,1.6322,,,,,,,,0,30,30,77,1
,,,,,,,,,,,,,,,,,198967,18,2022-01-28_19h31.46.631,lexical_decision_task_DD_L5,2021.2.3,MacIntel,59.99880002,,,,,,,,,,,1.4498,1,,,,,,,,,,,,,,,,,,,,,,,,-0.016219618,-0.311909722,0,0,0,,,,,,,STAIN,HB,m,y,./images/STAINHB.png,,,,,,,,,m,1,1.4498,,,,,,,,0,31,31,6,1
,,,,,,,,,,,,,,,,,198967,18,2022-01-28_19h31.46.631,lexical_decision_task_DD_L5,2021.2.3,MacIntel,59.99880002,,,,,,,,,,,0.6394,1,,,,,,,,,,,,,,,,,,,,,,,,-0.016219618,-0.311909722,0,0,0,,,,,,,POKER,LB,m,y,./images/POKERLB.png,,,,,,,,,m,1,0.6394,,,,,,,,0,32,32,67,1
,,,,,,,,,,,,,,,,,198967,18,2022-01-28_19h31.46.631,lexical_decision_task_DD_L5,2021.2.3,MacIntel,59.99880002,,,,,,,,,,,0.7876,1,,,,,,,,,,,,,,,,,,,,,,,,-0.016219618,-0.311909722,0,0,0,,,,,,,LIZARD,C,z,y,./images/LIZARD.png,,,,,,,,,z,1,0.7876,,,,,,,,0,33,33,128,1
,,,,,,,,,,,,,,,,,198967,18,2022-01-28_19h31.46.631,lexical_decision_task_DD_L5,2021.2.3,MacIntel,59.99880002,,,,,,,,,,,0.8202,1,,,,,,,,,,,,,,,,,,,,,,,,-0.016219618,-0.311909722,0,0,0,,,,,,,SQUARE,HB,z,y,./images/SQUAREHB.png,,,,,,,,,z,1,0.8202,,,,,,,,0,34,34,90,1
,,,,,,,,,,,,,,,,,198967,18,2022-01-28_19h31.46.631,lexical_decision_task_DD_L5,2021.2.3,MacIntel,59.99880002,,,,,,,,,,,0.75,1,,,,,,,,,,,,,,,,,,,,,,,,-0.016219618,-0.311909722,0,0,0,,,,,,,WRIST,LB,z,y,./images/WRISTLB.png,,,,,,,,,z,1,0.75,,,,,,,,0,35,35,109,1
,,,,,,,,,,,,,,,,,198967,18,2022-01-28_19h31.46.631,lexical_decision_task_DD_L5,2021.2.3,MacIntel,59.99880002,,,,,,,,,,,0.8876,1,,,,,,,,,,,,,,,,,,,,,,,,-0.016219618,-0.311909722,0,0,0,,,,,,,CRUST,LB,z,y,./images/CRUSTLB.png,,,,,,,,,z,1,0.8876,,,,,,,,0,36,36,163,1
,,,,,,,,,,,,,,,,,198967,18,2022-01-28_19h31.46.631,lexical_decision_task_DD_L5,2021.2.3,MacIntel,59.99880002,,,,,,,,,,,0.9171,0,,,,,,,,,,,,,,,,,,,,,,,,-0.016219618,-0.311909722,0,0,0,,,,,,,LADDER,C,z,y,./images/LADDER.png,,,,,,,,,m,0,0.9171,,,,,,,,0,37,37,122,1
,,,,,,,,,,,,,,,,,198967,18,2022-01-28_19h31.46.631,lexical_decision_task_DD_L5,2021.2.3,MacIntel,59.99880002,,,,,,,,,,,0.617,1,,,,,,,,,,,,,,,,,,,,,,,,-0.016219618,-0.311909722,0,0,0,,,,,,,ARROW,HB,m,y,./images/ARROWHB.png,,,,,,,,,m,1,0.617,,,,,,,,0,38,38,69,1
,,,,,,,,,,,,,,,,,198967,18,2022-01-28_19h31.46.631,lexical_decision_task_DD_L5,2021.2.3,MacIntel,59.99880002,,,,,,,,,,,0.6504,1,,,,,,,,,,,,,,,,,,,,,,,,-0.016219618,-0.311909722,0,0,0,,,,,,,WAGON,LB,m,y,./images/WAGONLB.png,,,,,,,,,m,1,0.6504,,,,,,,,0,39,39,7,1
,,,,,,,,,,,,,,,,,198967,18,2022-01-28_19h31.46.631,lexical_decision_task_DD_L5,2021.2.3,MacIntel,59.99880002,,,,,,,,,,,0.5949,1,,,,,,,,,,,,,,,,,,,,,,,,-0.016219618,-0.311909722,0,0,0,,,,,,,LAGOON,C,m,y,./images/LAGOON.png,,,,,,,,,m,1,0.5949,,,,,,,,0,40,40,47,1
,,,,,,,,,,,,,,,,,198967,18,2022-01-28_19h31.46.631,lexical_decision_task_DD_L5,2021.2.3,MacIntel,59.99880002,,,,,,,,,,,0.7058,1,,,,,,,,,,,,,,,,,,,,,,,,0.019275174,-0.387634549,1,0,0,,,,,,,JUMPER,C,m,y,./images/JUMPER.png,break_done_button,,,,,,,,m,1,0.7058,,,,,,,,0,41,41,74,1
,,,,,,,,,,,,,,,,,198967,18,2022-01-28_19h31.46.631,lexical_decision_task_DD_L5,2021.2.3,MacIntel,59.99880002,,,,,,,,,,,1.7325,1,,,,,,,,,,,,,,,,,,,,,,,,0.019275174,-0.387634549,0,0,0,,,,,,,MALLET,C,z,y,./images/MALLET.png,,,,,,,,,z,1,1.7325,,,,,,,,0,42,42,134,1
,,,,,,,,,,,,,,,,,198967,18,2022-01-28_19h31.46.631,lexical_decision_task_DD_L5,2021.2.3,MacIntel,59.99880002,,,,,,,,,,,0.7072,1,,,,,,,,,,,,,,,,,,,,,,,,0.019275174,-0.387634549,0,0,0,,,,,,,DRILL,HB,m,y,./images/DRILLHB.png,,,,,,,,,m,1,0.7072,,,,,,,,0,43,43,81,1
,,,,,,,,,,,,,,,,,198967,18,2022-01-28_19h31.46.631,lexical_decision_task_DD_L5,2021.2.3,MacIntel,59.99880002,,,,,,,,,,,0.8275,1,,,,,,,,,,,,,,,,,,,,,,,,0.019275174,-0.387634549,0,0,0,,,,,,,MUSCLE,LB,z,y,./images/MUSCLELB.png,,,,,,,,,z,1,0.8275,,,,,,,,0,44,44,88,1
,,,,,,,,,,,,,,,,,198967,18,2022-01-28_19h31.46.631,lexical_decision_task_DD_L5,2021.2.3,MacIntel,59.99880002,,,,,,,,,,,1.3529,0,,,,,,,,,,,,,,,,,,,,,,,,0.019275174,-0.387634549,0,0,0,,,,,,,PAINT,LB,z,y,./images/PAINTLB.png,,,,,,,,,m,0,1.3529,,,,,,,,0,45,45,91,1
,,,,,,,,,,,,,,,,,198967,18,2022-01-28_19h31.46.631,lexical_decision_task_DD_L5,2021.2.3,MacIntel,59.99880002,,,,,,,,,,,1.0549,0,,,,,,,,,,,,,,,,,,,,,,,,0.019275174,-0.387634549,0,0,0,,,,,,,WEASEL,C,z,y,./images/WEASEL.png,,,,,,,,,m,0,1.0549,,,,,,,,0,46,46,164,1
,,,,,,,,,,,,,,,,,198967,18,2022-01-28_19h31.46.631,lexical_decision_task_DD_L5,2021.2.3,MacIntel,59.99880002,,,,,,,,,,,0.6,1,,,,,,,,,,,,,,,,,,,,,,,,0.019275174,-0.387634549,0,0,0,,,,,,,SHIELD,HB,m,y,./images/SHIELDHB.png,,,,,,,,,m,1,0.6,,,,,,,,0,47,47,48,1
,,,,,,,,,,,,,,,,,198967,18,2022-01-28_19h31.46.631,lexical_decision_task_DD_L5,2021.2.3,MacIntel,59.99880002,,,,,,,,,,,0.6865,0,,,,,,,,,,,,,,,,,,,,,,,,0.019275174,-0.387634549,0,0,0,,,,,,,TIGER,LB,m,y,./images/TIGERLB.png,,,,,,,,,z,0,0.6865,,,,,,,,0,48,48,37,1
,,,,,,,,,,,,,,,,,198967,18,2022-01-28_19h31.46.631,lexical_decision_task_DD_L5,2021.2.3,MacIntel,59.99880002,,,,,,,,,,,1.4666,0,,,,,,,,,,,,,,,,,,,,,,,,0.019275174,-0.387634549,0,0,0,,,,,,,TOWEL,LB,m,y,./images/TOWELLB.png,,,,,,,,,z,0,1.4666,,,,,,,,0,49,49,1,1
,,,,,,,,,,,,,,,,,198967,18,2022-01-28_19h31.46.631,lexical_decision_task_DD_L5,2021.2.3,MacIntel,59.99880002,,,,,,,,,,,0.634,1,,,,,,,,,,,,,,,,,,,,,,,,0.019275174,-0.387634549,0,0,0,,,,,,,GRANNY,C,m,y,./images/GRANNY.png,,,,,,,,,m,1,0.634,,,,,,,,0,50,50,20,1
,,,,,,,,,,,,,,,,,198967,18,2022-01-28_19h31.46.631,lexical_decision_task_DD_L5,2021.2.3,MacIntel,59.99880002,,,,,,,,,,,0.9551,1,,,,,,,,,,,,,,,,,,,,,,,,0.019275174,-0.387634549,0,0,0,,,,,,,CHAIN,HB,m,y,./images/CHAINHB.png,,,,,,,,,m,1,0.9551,,,,,,,,0,51,51,42,1
,,,,,,,,,,,,,,,,,198967,18,2022-01-28_19h31.46.631,lexical_decision_task_DD_L5,2021.2.3,MacIntel,59.99880002,,,,,,,,,,,0.6933,1,,,,,,,,,,,,,,,,,,,,,,,,0.019275174,-0.387634549,0,0,0,,,,,,,SUNSET,LB,z,y,./images/SUNSETLB.png,,,,,,,,,z,1,0.6933,,,,,,,,0,52,52,166,1
,,,,,,,,,,,,,,,,,198967,18,2022-01-28_19h31.46.631,lexical_decision_task_DD_L5,2021.2.3,MacIntel,59.99880002,,,,,,,,,,,0.6848,1,,,,,,,,,,,,,,,,,,,,,,,,0.019275174,-0.387634549,0,0,0,,,,,,,MEDAL,C,m,y,./images/MEDAL.png,,,,,,,,,m,1,0.6848,,,,,,,,0,53,53,11,1
,,,,,,,,,,,,,,,,,198967,18,2022-01-28_19h31.46.631,lexical_decision_task_DD_L5,2021.2.3,MacIntel,59.99880002,,,,,,,,,,,0.8486,1,,,,,,,,,,,,,,,,,,,,,,,,0.019275174,-0.387634549,0,0,0,,,,,,,BURIAL,C,z,y,./images/BURIAL.png,,,,,,,,,z,1,0.8486,,,,,,,,0,54,54,143,1
,,,,,,,,,,,,,,,,,198967,18,2022-01-28_19h31.46.631,lexical_decision_task_DD_L5,2021.2.3,MacIntel,59.99880002,,,,,,,,,,,1.1484,1,,,,,,,,,,,,,,,,,,,,,,,,0.019275174,-0.387634549,0,0,0,,,,,,,SNAKE,LB,m,y,./images/SNAKELB.png,,,,,,,,,m,1,1.1484,,,,,,,,0,55,55,40,1
,,,,,,,,,,,,,,,,,198967,18,2022-01-28_19h31.46.631,lexical_decision_task_DD_L5,2021.2.3,MacIntel,59.99880002,,,,,,,,,,,0.6637,1,,,,,,,,,,,,,,,,,,,,,,,,0.019275174,-0.387634549,0,0,0,,,,,,,BROOM,HB,m,y,./images/BROOMHB.png,,,,,,,,,m,1,0.6637,,,,,,,,0,56,56,78,1
,,,,,,,,,,,,,,,,,198967,18,2022-01-28_19h31.46.631,lexical_decision_task_DD_L5,2021.2.3,MacIntel,59.99880002,,,,,,,,,,,0.8195,1,,,,,,,,,,,,,,,,,,,,,,,,0.019275174,-0.387634549,0,0,0,,,,,,,MOTOR,LB,z,y,./images/MOTORLB.png,,,,,,,,,z,1,0.8195,,,,,,,,0,57,57,97,1
,,,,,,,,,,,,,,,,,198967,18,2022-01-28_19h31.46.631,lexical_decision_task_DD_L5,2021.2.3,MacIntel,59.99880002,,,,,,,,,,,0.8441,1,,,,,,,,,,,,,,,,,,,,,,,,0.019275174,-0.387634549,0,0,0,,,,,,,RAZOR,LB,m,y,./images/RAZORLB.png,,,,,,,,,m,1,0.8441,,,,,,,,0,58,58,34,1
,,,,,,,,,,,,,,,,,198967,18,2022-01-28_19h31.46.631,lexical_decision_task_DD_L5,2021.2.3,MacIntel,59.99880002,,,,,,,,,,,1.7488,0,,,,,,,,,,,,,,,,,,,,,,,,0.019275174,-0.387634549,0,0,0,,,,,,,SCREW,HB,z,y,./images/SCREWHB.png,,,,,,,,,m,0,1.7488,,,,,,,,0,59,59,108,1
,,,,,,,,,,,,,,,,,198967,18,2022-01-28_19h31.46.631,lexical_decision_task_DD_L5,2021.2.3,MacIntel,59.99880002,,,,,,,,,,,0.5953,1,,,,,,,,,,,,,,,,,,,,,,,,0.019275174,-0.387634549,0,0,0,,,,,,,MONKEY,HB,m,y,./images/MONKEYHB.png,,,,,,,,,m,1,0.5953,,,,,,,,0,60,60,45,1
,,,,,,,,,,,,,,,,,198967,18,2022-01-28_19h31.46.631,lexical_decision_task_DD_L5,2021.2.3,MacIntel,59.99880002,,,,,,,,,,,0.8981,0,,,,,,,,,,,,,,,,,,,,,,,,0.019275174,-0.387634549,0,0,0,,,,,,,PISTOL,C,m,y,./images/PISTOL.png,,,,,,,,,z,0,0.8981,,,,,,,,0,61,61,29,1
,,,,,,,,,,,,,,,,,198967,18,2022-01-28_19h31.46.631,lexical_decision_task_DD_L5,2021.2.3,MacIntel,59.99880002,,,,,,,,,,,0.6338,1,,,,,,,,,,,,,,,,,,,,,,,,0.019275174,-0.387634549,0,0,0,,,,,,,WALNUT,HB,m,y,./images/WALNUTHB.png,,,,,,,,,m,1,0.6338,,,,,,,,0,62,62,0,1
,,,,,,,,,,,,,,,,,198967,18,2022-01-28_19h31.46.631,lexical_decision_task_DD_L5,2021.2.3,MacIntel,59.99880002,,,,,,,,,,,0.6525,1,,,,,,,,,,,,,,,,,,,,,,,,0.019275174,-0.387634549,0,0,0,,,,,,,HAMMER,HB,m,y,./images/HAMMERHB.png,,,,,,,,,m,1,0.6525,,,,,,,,0,63,63,75,1
,,,,,,,,,,,,,,,,,198967,18,2022-01-28_19h31.46.631,lexical_decision_task_DD_L5,2021.2.3,MacIntel,59.99880002,,,,,,,,,,,0.6699,1,,,,,,,,,,,,,,,,,,,,,,,,0.019275174,-0.387634549,0,0,0,,,,,,,MUMMY,LB,m,y,./images/MUMMYLB.png,,,,,,,,,m,1,0.6699,,,,,,,,0,64,64,46,1
,,,,,,,,,,,,,,,,,198967,18,2022-01-28_19h31.46.631,lexical_decision_task_DD_L5,2021.2.3,MacIntel,59.99880002,,,,,,,,,,,1.274,0,,,,,,,,,,,,,,,,,,,,,,,,0.019275174,-0.387634549,0,0,0,,,,,,,CEMENT,C,z,y,./images/CEMENT.png,,,,,,,,,m,0,1.274,,,,,,,,0,65,65,158,1
,,,,,,,,,,,,,,,,,198967,18,2022-01-28_19h31.46.631,lexical_decision_task_DD_L5,2021.2.3,MacIntel,59.99880002,,,,,,,,,,,0.7346,1,,,,,,,,,,,,,,,,,,,,,,,,0.019275174,-0.387634549,0,0,0,,,,,,,TORCH,C,z,y,./images/TORCH.png,,,,,,,,,z,1,0.7346,,,,,,,,0,66,66,152,1
,,,,,,,,,,,,,,,,,198967,18,2022-01-28_19h31.46.631,lexical_decision_task_DD_L5,2021.2.3,MacIntel,59.99880002,,,,,,,,,,,0.8174,1,,,,,,,,,,,,,,,,,,,,,,,,0.019275174,-0.387634549,0,0,0,,,,,,,FOLDER,HB,z,y,./images/FOLDERHB.png,,,,,,,,,z,1,0.8174,,,,,,,,0,67,67,126,1
,,,,,,,,,,,,,,,,,198967,18,2022-01-28_19h31.46.631,lexical_decision_task_DD_L5,2021.2.3,MacIntel,59.99880002,,,,,,,,,,,1.6163,0,,,,,,,,,,,,,,,,,,,,,,,,0.019275174,-0.387634549,0,0,0,,,,,,,BANNER,LB,z,y,./images/BANNERLB.png,,,,,,,,,m,0,1.6163,,,,,,,,0,68,68,136,1
,,,,,,,,,,,,,,,,,198967,18,2022-01-28_19h31.46.631,lexical_decision_task_DD_L5,2021.2.3,MacIntel,59.99880002,,,,,,,,,,,1.0503,1,,,,,,,,,,,,,,,,,,,,,,,,0.019275174,-0.387634549,0,0,0,,,,,,,PEARL,LB,z,y,./images/PEARLLB.png,,,,,,,,,z,1,1.0503,,,,,,,,0,69,69,130,1
,,,,,,,,,,,,,,,,,198967,18,2022-01-28_19h31.46.631,lexical_decision_task_DD_L5,2021.2.3,MacIntel,59.99880002,,,,,,,,,,,0.6662,1,,,,,,,,,,,,,,,,,,,,,,,,0.019275174,-0.387634549,0,0,0,,,,,,,TWINS,HB,z,y,./images/TWINSHB.png,,,,,,,,,z,1,0.6662,,,,,,,,0,70,70,144,1
,,,,,,,,,,,,,,,,,198967,18,2022-01-28_19h31.46.631,lexical_decision_task_DD_L5,2021.2.3,MacIntel,59.99880002,,,,,,,,,,,1.5309,1,,,,,,,,,,,,,,,,,,,,,,,,0.019275174,-0.387634549,0,0,0,,,,,,,GRAPE,LB,m,y,./images/GRAPELB.png,,,,,,,,,m,1,1.5309,,,,,,,,0,71,71,16,1
,,,,,,,,,,,,,,,,,198967,18,2022-01-28_19h31.46.631,lexical_decision_task_DD_L5,2021.2.3,MacIntel,59.99880002,,,,,,,,,,,0.7041,1,,,,,,,,,,,,,,,,,,,,,,,,0.019275174,-0.387634549,0,0,0,,,,,,,PEACH,C,z,y,./images/PEACH.png,,,,,,,,,z,1,0.7041,,,,,,,,0,72,72,119,1
,,,,,,,,,,,,,,,,,198967,18,2022-01-28_19h31.46.631,lexical_decision_task_DD_L5,2021.2.3,MacIntel,59.99880002,,,,,,,,,,,0.7341,1,,,,,,,,,,,,,,,,,,,,,,,,0.019275174,-0.387634549,0,0,0,,,,,,,SAUNA,HB,m,y,./images/SAUNAHB.png,,,,,,,,,m,1,0.7341,,,,,,,,0,73,73,33,1
,,,,,,,,,,,,,,,,,198967,18,2022-01-28_19h31.46.631,lexical_decision_task_DD_L5,2021.2.3,MacIntel,59.99880002,,,,,,,,,,,0.732,1,,,,,,,,,,,,,,,,,,,,,,,,0.019275174,-0.387634549,0,0,0,,,,,,,BANANA,LB,m,y,./images/BANANALB.png,,,,,,,,,m,1,0.732,,,,,,,,0,74,74,70,1
,,,,,,,,,,,,,,,,,198967,18,2022-01-28_19h31.46.631,lexical_decision_task_DD_L5,2021.2.3,MacIntel,59.99880002,,,,,,,,,,,0.9334,1,,,,,,,,,,,,,,,,,,,,,,,,0.019275174,-0.387634549,0,0,0,,,,,,,SLOPE,HB,m,y,./images/SLOPEHB.png,,,,,,,,,m,1,0.9334,,,,,,,,0,75,75,30,1
,,,,,,,,,,,,,,,,,198967,18,2022-01-28_19h31.46.631,lexical_decision_task_DD_L5,2021.2.3,MacIntel,59.99880002,,,,,,,,,,,0.9803,0,,,,,,,,,,,,,,,,,,,,,,,,0.019275174,-0.387634549,0,0,0,,,,,,,SWING,LB,z,y,./images/SWINGLB.png,,,,,,,,,m,0,0.9803,,,,,,,,0,76,76,124,1
,,,,,,,,,,,,,,,,,198967,18,2022-01-28_19h31.46.631,lexical_decision_task_DD_L5,2021.2.3,MacIntel,59.99880002,,,,,,,,,,,1.4866,1,,,,,,,,,,,,,,,,,,,,,,,,0.019275174,-0.387634549,0,0,0,,,,,,,CASINO,LB,m,y,./images/CASINOLB.png,,,,,,,,,m,1,1.4866,,,,,,,,0,77,77,28,1
,,,,,,,,,,,,,,,,,198967,18,2022-01-28_19h31.46.631,lexical_decision_task_DD_L5,2021.2.3,MacIntel,59.99880002,,,,,,,,,,,0.6996,1,,,,,,,,,,,,,,,,,,,,,,,,0.019275174,-0.387634549,0,0,0,,,,,,,CANDY,HB,m,y,./images/CANDYHB.png,,,,,,,,,m,1,0.6996,,,,,,,,0,78,78,39,1
,,,,,,,,,,,,,,,,,198967,18,2022-01-28_19h31.46.631,lexical_decision_task_DD_L5,2021.2.3,MacIntel,59.99880002,,,,,,,,,,,0.6871,1,,,,,,,,,,,,,,,,,,,,,,,,0.019275174,-0.387634549,0,0,0,,,,,,,ALLEY,LB,m,y,./images/ALLEYLB.png,,,,,,,,,m,1,0.6871,,,,,,,,0,79,79,55,1
,,,,,,,,,,,,,,,,,198967,18,2022-01-28_19h31.46.631,lexical_decision_task_DD_L5,2021.2.3,MacIntel,59.99880002,,,,,,,,,,,0.5909,1,,,,,,,,,,,,,,,,,,,,,,,,0.019275174,-0.387634549,0,0,0,,,,,,,PILOT,C,m,y,./images/PILOT.png,,,,,,,,,m,1,0.5909,,,,,,,,0,80,80,50,1
,,,,,,,,,,,,,,,,,198967,18,2022-01-28_19h31.46.631,lexical_decision_task_DD_L5,2021.2.3,MacIntel,59.99880002,,,,,,,,,,,0.6853,1,,,,,,,,,,,,,,,,,,,,,,,,0.019275174,-0.387634549,0,0,0,,,,,,,TULIP,C,z,y,./images/TULIP.png,,,,,,,,,z,1,0.6853,,,,,,,,0,81,81,92,1
,,,,,,,,,,,,,,,,,198967,18,2022-01-28_19h31.46.631,lexical_decision_task_DD_L5,2021.2.3,MacIntel,59.99880002,,,,,,,,,,,0.8228,0,,,,,,,,,,,,,,,,,,,,,,,,0.019275174,-0.387634549,0,0,0,,,,,,,BARREL,C,z,y,./images/BARREL.png,,,,,,,,,m,0,0.8228,,,,,,,,0,82,82,116,1
,,,,,,,,,,,,,,,,,198967,18,2022-01-28_19h31.46.631,lexical_decision_task_DD_L5,2021.2.3,MacIntel,59.99880002,,,,,,,,,,,1.2515,1,,,,,,,,,,,,,,,,,,,,,,,,0.022465278,-0.417269965,1,0,0,,,,,,,POSTER,C,m,y,./images/POSTER.png,break_done_button,,,,,,,,m,1,1.2515,,,,,,,,0,83,83,53,1
,,,,,,,,,,,,,,,,,198967,18,2022-01-28_19h31.46.631,lexical_decision_task_DD_L5,2021.2.3,MacIntel,59.99880002,,,,,,,,,,,1.0175,1,,,,,,,,,,,,,,,,,,,,,,,,0.022465278,-0.417269965,0,0,0,,,,,,,LITTER,HB,z,y,./images/LITTERHB.png,,,,,,,,,z,1,1.0175,,,,,,,,0,84,84,162,1
,,,,,,,,,,,,,,,,,198967,18,2022-01-28_19h31.46.631,lexical_decision_task_DD_L5,2021.2.3,MacIntel,59.99880002,,,,,,,,,,,1.2574,1,,,,,,,,,,,,,,,,,,,,,,,,0.022465278,-0.417269965,0,0,0,,,,,,,RULER,LB,m,y,./images/RULERLB.png,,,,,,,,,m,1,1.2574,,,,,,,,0,85,85,79,1
,,,,,,,,,,,,,,,,,198967,18,2022-01-28_19h31.46.631,lexical_decision_task_DD_L5,2021.2.3,MacIntel,59.99880002,,,,,,,,,,,0.6841,1,,,,,,,,,,,,,,,,,,,,,,,,0.022465278,-0.417269965,0,0,0,,,,,,,BASKET,C,m,y,./images/BASKET.png,,,,,,,,,m,1,0.6841,,,,,,,,0,86,86,44,1
,,,,,,,,,,,,,,,,,198967,18,2022-01-28_19h31.46.631,lexical_decision_task_DD_L5,2021.2.3,MacIntel,59.99880002,,,,,,,,,,,0.7267,0,,,,,,,,,,,,,,,,,,,,,,,,0.022465278,-0.417269965,0,0,0,,,,,,,STRING,C,z,y,./images/STRING.png,,,,,,,,,m,0,0.7267,,,,,,,,0,87,87,125,1
,,,,,,,,,,,,,,,,,198967,18,2022-01-28_19h31.46.631,lexical_decision_task_DD_L5,2021.2.3,MacIntel,59.99880002,,,,,,,,,,,0.8,1,,,,,,,,,,,,,,,,,,,,,,,,0.022465278,-0.417269965,0,0,0,,,,,,,SHELF,HB,z,y,./images/SHELFHB.png,,,,,,,,,z,1,0.8,,,,,,,,0,88,88,123,1
,,,,,,,,,,,,,,,,,198967,18,2022-01-28_19h31.46.631,lexical_decision_task_DD_L5,2021.2.3,MacIntel,59.99880002,,,,,,,,,,,1.2844,1,,,,,,,,,,,,,,,,,,,,,,,,0.022465278,-0.417269965,0,0,0,,,,,,,BERRY,C,z,y,./images/BERRY.png,,,,,,,,,z,1,1.2844,,,,,,,,0,89,89,131,1
,,,,,,,,,,,,,,,,,198967,18,2022-01-28_19h31.46.631,lexical_decision_task_DD_L5,2021.2.3,MacIntel,59.99880002,,,,,,,,,,,0.7424,1,,,,,,,,,,,,,,,,,,,,,,,,0.022465278,-0.417269965,0,0,0,,,,,,,SKIING,C,z,y,./images/SKIING.png,,,,,,,,,z,1,0.7424,,,,,,,,0,90,90,101,1
,,,,,,,,,,,,,,,,,198967,18,2022-01-28_19h31.46.631,lexical_decision_task_DD_L5,2021.2.3,MacIntel,59.99880002,,,,,,,,,,,2.0889,0,,,,,,,,,,,,,,,,,,,,,,,,0.022465278,-0.417269965,0,0,0,,,,,,,JUNGLE,C,z,y,./images/JUNGLE.png,,,,,,,,,m,0,2.0889,,,,,,,,0,91,91,167,1
,,,,,,,,,,,,,,,,,198967,18,2022-01-28_19h31.46.631,lexical_decision_task_DD_L5,2021.2.3,MacIntel,59.99880002,,,,,,,,,,,0.7542,1,,,,,,,,,,,,,,,,,,,,,,,,0.022465278,-0.417269965,0,0,0,,,,,,,PICKLE,C,z,y,./images/PICKLE.png,,,,,,,,,z,1,0.7542,,,,,,,,0,92,92,98,1
,,,,,,,,,,,,,,,,,198967,18,2022-01-28_19h31.46.631,lexical_decision_task_DD_L5,2021.2.3,MacIntel,59.99880002,,,,,,,,,,,0.7554,1,,,,,,,,,,,,,,,,,,,,,,,,0.022465278,-0.417269965,0,0,0,,,,,,,CURRY,HB,m,y,./images/CURRYHB.png,,,,,,,,,m,1,0.7554,,,,,,,,0,93,93,60,1
,,,,,,,,,,,,,,,,,198967,18,2022-01-28_19h31.46.631,lexical_decision_task_DD_L5,2021.2.3,MacIntel,59.99880002,,,,,,,,,,,1.3914,0,,,,,,,,,,,,,,,,,,,,,,,,0.022465278,-0.417269965,0,0,0,,,,,,,HOCKEY,C,m,y,./images/HOCKEY.png,,,,,,,,,z,0,1.3914,,,,,,,,0,94,94,32,1
,,,,,,,,,,,,,,,,,198967,18,2022-01-28_19h31.46.631,lexical_decision_task_DD_L5,2021.2.3,MacIntel,59.99880002,,,,,,,,,,,1.0183,1,,,,,,,,,,,,,,,,,,,,,,,,0.022465278,-0.417269965,0,0,0,,,,,,,PLANET,C,m,y,./images/PLANET.png,,,,,,,,,m,1,1.0183,,,,,,,,0,95,95,80,1
,,,,,,,,,,,,,,,,,198967,18,2022-01-28_19h31.46.631,lexical_decision_task_DD_L5,2021.2.3,MacIntel,59.99880002,,,,,,,,,,,0.8669,0,,,,,,,,,,,,,,,,,,,,,,,,0.022465278,-0.417269965,0,0,0,,,,,,,DIVER,HB,m,y,./images/DIVERHB.png,,,,,,,,,z,0,0.8669,,,,,,,,0,96,96,9,1
,,,,,,,,,,,,,,,,,198967,18,2022-01-28_19h31.46.631,lexical_decision_task_DD_L5,2021.2.3,MacIntel,59.99880002,,,,,,,,,,,0.6694,1,,,,,,,,,,,,,,,,,,,,,,,,0.022465278,-0.417269965,0,0,0,,,,,,,BAKER,HB,m,y,./images/BAKERHB.png,,,,,,,,,m,1,0.6694,,,,,,,,0,97,97,63,1
,,,,,,,,,,,,,,,,,198967,18,2022-01-28_19h31.46.631,lexical_decision_task_DD_L5,2021.2.3,MacIntel,59.99880002,,,,,,,,,,,0.7544,1,,,,,,,,,,,,,,,,,,,,,,,,0.022465278,-0.417269965,0,0,0,,,,,,,BOILER,HB,m,y,./images/BOILERHB.png,,,,,,,,,m,1,0.7544,,,,,,,,0,98,98,36,1
,,,,,,,,,,,,,,,,,198967,18,2022-01-28_19h31.46.631,lexical_decision_task_DD_L5,2021.2.3,MacIntel,59.99880002,,,,,,,,,,,0.8621,0,,,,,,,,,,,,,,,,,,,,,,,,0.022465278,-0.417269965,0,0,0,,,,,,,STOVE,C,m,y,./images/STOVE.png,,,,,,,,,z,0,0.8621,,,,,,,,0,99,99,2,1
,,,,,,,,,,,,,,,,,198967,18,2022-01-28_19h31.46.631,lexical_decision_task_DD_L5,2021.2.3,MacIntel,59.99880002,,,,,,,,,,,0.7162,1,,,,,,,,,,,,,,,,,,,,,,,,0.022465278,-0.417269965,0,0,0,,,,,,,SNACK,LB,z,y,./images/SNACKLB.png,,,,,,,,,z,1,0.7162,,,,,,,,0,100,100,157,1
,,,,,,,,,,,,,,,,,198967,18,2022-01-28_19h31.46.631,lexical_decision_task_DD_L5,2021.2.3,MacIntel,59.99880002,,,,,,,,,,,1.277,1,,,,,,,,,,,,,,,,,,,,,,,,0.022465278,-0.417269965,0,0,0,,,,,,,TOMATO,HB,z,y,./images/TOMATOHB.png,,,,,,,,,z,1,1.277,,,,,,,,0,101,101,84,1
,,,,,,,,,,,,,,,,,198967,18,2022-01-28_19h31.46.631,lexical_decision_task_DD_L5,2021.2.3,MacIntel,59.99880002,,,,,,,,,,,1.2852,1,,,,,,,,,,,,,,,,,,,,,,,,0.022465278,-0.417269965,0,0,0,,,,,,,PLANK,LB,z,y,./images/PLANKLB.png,,,,,,,,,z,1,1.2852,,,,,,,,0,102,102,85,1
,,,,,,,,,,,,,,,,,198967,18,2022-01-28_19h31.46.631,lexical_decision_task_DD_L5,2021.2.3,MacIntel,59.99880002,,,,,,,,,,,1.1661,0,,,,,,,,,,,,,,,,,,,,,,,,0.022465278,-0.417269965,0,0,0,,,,,,,MAGGOT,HB,z,y,./images/MAGGOTHB.png,,,,,,,,,m,0,1.1661,,,,,,,,0,103,103,117,1
,,,,,,,,,,,,,,,,,198967,18,2022-01-28_19h31.46.631,lexical_decision_task_DD_L5,2021.2.3,MacIntel,59.99880002,,,,,,,,,,,0.9481,1,,,,,,,,,,,,,,,,,,,,,,,,0.022465278,-0.417269965,0,0,0,,,,,,,COUCH,C,z,y,./images/COUCH.png,,,,,,,,,z,1,0.9481,,,,,,,,0,104,104,161,1
,,,,,,,,,,,,,,,,,198967,18,2022-01-28_19h31.46.631,lexical_decision_task_DD_L5,2021.2.3,MacIntel,59.99880002,,,,,,,,,,,0.7383,1,,,,,,,,,,,,,,,,,,,,,,,,0.022465278,-0.417269965,0,0,0,,,,,,,SAUCE,HB,m,y,./images/SAUCEHB.png,,,,,,,,,m,1,0.7383,,,,,,,,0,105,105,51,1
,,,,,,,,,,,,,,,,,198967,18,2022-01-28_19h31.46.631,lexical_decision_task_DD_L5,2021.2.3,MacIntel,59.99880002,,,,,,,,,,,1.1005,1,,,,,,,,,,,,,,,,,,,,,,,,0.022465278,-0.417269965,0,0,0,,,,,,,DONKEY,LB,m,y,./images/DONKEYLB.png,,,,,,,,,m,1,1.1005,,,,,,,,0,106,106,19,1
,,,,,,,,,,,,,,,,,198967,18,2022-01-28_19h31.46.631,lexical_decision_task_DD_L5,2021.2.3,MacIntel,59.99880002,,,,,,,,,,,0.6643,1,,,,,,,,,,,,,,,,,,,,,,,,0.022465278,-0.417269965,0,0,0,,,,,,,CANOE,LB,m,y,./images/CANOELB.png,,,,,,,,,m,1,0.6643,,,,,,,,0,107,107,58,1
,,,,,,,,,,,,,,,,,198967,18,2022-01-28_19h31.46.631,lexical_decision_task_DD_L5,2021.2.3,MacIntel,59.99880002,,,,,,,,,,,0.7083,1,,,,,,,,,,,,,,,,,,,,,,,,0.022465278,-0.417269965,0,0,0,,,,,,,BELLY,LB,z,y,./images/BELLYLB.png,,,,,,,,,z,1,0.7083,,,,,,,,0,108,108,94,1
,,,,,,,,,,,,,,,,,198967,18,2022-01-28_19h31.46.631,lexical_decision_task_DD_L5,2021.2.3,MacIntel,59.99880002,,,,,,,,,,,0.6726,0,,,,,,,,,,,,,,,,,,,,,,,,0.022465278,-0.417269965,0,0,0,,,,,,,CRUMB,C,z,y,./images/CRUMB.png,,,,,,,,,m,0,0.6726,,,,,,,,0,109,109,113,1
,,,,,,,,,,,,,,,,,198967,18,2022-01-28_19h31.46.631,lexical_decision_task_DD_L5,2021.2.3,MacIntel,59.99880002,,,,,,,,,,,0.691,1,,,,,,,,,,,,,,,,,,,,,,,,0.022465278,-0.417269965,0,0,0,,,,,,,BIRTH,LB,z,y,./images/BIRTHLB.png,,,,,,,,,z,1,0.691,,,,,,,,0,110,110,121,1
,,,,,,,,,,,,,,,,,198967,18,2022-01-28_19h31.46.631,lexical_decision_task_DD_L5,2021.2.3,MacIntel,59.99880002,,,,,,,,,,,0.854,1,,,,,,,,,,,,,,,,,,,,,,,,0.022465278,-0.417269965,0,0,0,,,,,,,CANYON,LB,z,y,./images/CANYONLB.png,,,,,,,,,z,1,0.854,,,,,,,,0,111,111,118,1
,,,,,,,,,,,,,,,,,198967,18,2022-01-28_19h31.46.631,lexical_decision_task_DD_L5,2021.2.3,MacIntel,59.99880002,,,,,,,,,,,0.6467,1,,,,,,,,,,,,,,,,,,,,,,,,0.022465278,-0.417269965,0,0,0,,,,,,,QUILL,LB,z,y,./images/QUILLLB.png,,,,,,,,,z,1,0.6467,,,,,,,,0,112,112,115,1
,,,,,,,,,,,,,,,,,198967,18,2022-01-28_19h31.46.631,lexical_decision_task_DD_L5,2021.2.3,MacIntel,59.99880002,,,,,,,,,,,0.7166,0,,,,,,,,,,,,,,,,,,,,,,,,0.022465278,-0.417269965,0,0,0,,,,,,,SMOKER,C,z,y,./images/SMOKER.png,,,,,,,,,m,0,0.7166,,,,,,,,0,113,113,110,1
,,,,,,,,,,,,,,,,,198967,18,2022-01-28_19h31.46.631,lexical_decision_task_DD_L5,2021.2.3,MacIntel,59.99880002,,,,,,,,,,,0.7818,0,,,,,,,,,,,,,,,,,,,,,,,,0.022465278,-0.417269965,0,0,0,,,,,,,BRUSH,C,m,y,./images/BRUSH.png,,,,,,,,,z,0,0.7818,,,,,,,,0,114,114,59,1
,,,,,,,,,,,,,,,,,198967,18,2022-01-28_19h31.46.631,lexical_decision_task_DD_L5,2021.2.3,MacIntel,59.99880002,,,,,,,,,,,0.6825,1,,,,,,,,,,,,,,,,,,,,,,,,0.022465278,-0.417269965,0,0,0,,,,,,,FENCE,C,m,y,./images/FENCE.png,,,,,,,,,m,1,0.6825,,,,,,,,0,115,115,14,1
,,,,,,,,,,,,,,,,,198967,18,2022-01-28_19h31.46.631,lexical_decision_task_DD_L5,2021.2.3,MacIntel,59.99880002,,,,,,,,,,,0.7366,1,,,,,,,,,,,,,,,,,,,,,,,,0.022465278,-0.417269965,0,0,0,,,,,,,PACKET,C,z,y,./images/PACKET.png,,,,,,,,,z,1,0.7366,,,,,,,,0,116,116,140,1
,,,,,,,,,,,,,,,,,198967,18,2022-01-28_19h31.46.631,lexical_decision_task_DD_L5,2021.2.3,MacIntel,59.99880002,,,,,,,,,,,1.0006,0,,,,,,,,,,,,,,,,,,,,,,,,0.022465278,-0.417269965,0,0,0,,,,,,,PEBBLE,LB,m,y,./images/PEBBLELB.png,,,,,,,,,z,0,1.0006,,,,,,,,0,117,117,82,1
,,,,,,,,,,,,,,,,,198967,18,2022-01-28_19h31.46.631,lexical_decision_task_DD_L5,2021.2.3,MacIntel,59.99880002,,,,,,,,,,,1.2346,1,,,,,,,,,,,,,,,,,,,,,,,,0.022465278,-0.417269965,0,0,0,,,,,,,MELON,LB,z,y,./images/MELONLB.png,,,,,,,,,z,1,1.2346,,,,,,,,0,118,118,106,1
,,,,,,,,,,,,,,,,,198967,18,2022-01-28_19h31.46.631,lexical_decision_task_DD_L5,2021.2.3,MacIntel,59.99880002,,,,,,,,,,,0.7827,1,,,,,,,,,,,,,,,,,,,,,,,,0.022465278,-0.417269965,0,0,0,,,,,,,COOKER,HB,z,y,./images/COOKERHB.png,,,,,,,,,z,1,0.7827,,,,,,,,0,119,119,153,1
,,,,,,,,,,,,,,,,,198967,18,2022-01-28_19h31.46.631,lexical_decision_task_DD_L5,2021.2.3,MacIntel,59.99880002,,,,,,,,,,,0.6913,1,,,,,,,,,,,,,,,,,,,,,,,,0.022465278,-0.417269965,0,0,0,,,,,,,MAMMAL,C,m,y,./images/MAMMAL.png,,,,,,,,,m,1,0.6913,,,,,,,,0,120,120,62,1
,,,,,,,,,,,,,,,,,198967,18,2022-01-28_19h31.46.631,lexical_decision_task_DD_L5,2021.2.3,MacIntel,59.99880002,,,,,,,,,,,0.7435,0,,,,,,,,,,,,,,,,,,,,,,,,0.022465278,-0.417269965,0,0,0,,,,,,,BUTTER,HB,m,y,./images/BUTTERHB.png,,,,,,,,,z,0,0.7435,,,,,,,,0,121,121,27,1
,,,,,,,,,,,,,,,,,198967,18,2022-01-28_19h31.46.631,lexical_decision_task_DD_L5,2021.2.3,MacIntel,59.99880002,,,,,,,,,,,0.9164,1,,,,,,,,,,,,,,,,,,,,,,,,0.022465278,-0.417269965,0,0,0,,,,,,,BEARD,C,z,y,./images/BEARD.png,,,,,,,,,z,1,0.9164,,,,,,,,0,122,122,86,1
,,,,,,,,,,,,,,,,,198967,18,2022-01-28_19h31.46.631,lexical_decision_task_DD_L5,2021.2.3,MacIntel,59.99880002,,,,,,,,,,,0.6387,1,,,,,,,,,,,,,,,,,,,,,,,,0.022465278,-0.417269965,0,0,0,,,,,,,RHINO,HB,z,y,./images/RHINOHB.png,,,,,,,,,z,1,0.6387,,,,,,,,0,123,123,93,1
,,,,,,,,,,,,,,,,,198967,18,2022-01-28_19h31.46.631,lexical_decision_task_DD_L5,2021.2.3,MacIntel,59.99880002,,,,,,,,,,,0.875,0,,,,,,,,,,,,,,,,,,,,,,,,0.022465278,-0.417269965,0,0,0,,,,,,,CRATER,HB,m,y,./images/CRATERHB.png,,,,,,,,,z,0,0.875,,,,,,,,0,124,124,3,1
,,,,,,,,,,,,,,,,,198967,18,2022-01-28_19h31.46.631,lexical_decision_task_DD_L5,2021.2.3,MacIntel,59.99880002,,,,,,,,,,,0.8379,1,,,,,,,,,,,,,,,,,,,,,,,,0.021905382,-0.394887153,1,0,0,,,,,,,FINGER,HB,z,y,./images/FINGERHB.png,break_done_button,,,,,,,,z,1,0.8379,,,,,,,,0,125,125,87,1
,,,,,,,,,,,,,,,,,198967,18,2022-01-28_19h31.46.631,lexical_decision_task_DD_L5,2021.2.3,MacIntel,59.99880002,,,,,,,,,,,0.8884,1,,,,,,,,,,,,,,,,,,,,,,,,0.021905382,-0.394887153,0,0,0,,,,,,,DRUMS,LB,z,y,./images/DRUMSLB.png,,,,,,,,,z,1,0.8884,,,,,,,,0,126,126,133,1
,,,,,,,,,,,,,,,,,198967,18,2022-01-28_19h31.46.631,lexical_decision_task_DD_L5,2021.2.3,MacIntel,59.99880002,,,,,,,,,,,1.284,1,,,,,,,,,,,,,,,,,,,,,,,,0.021905382,-0.394887153,0,0,0,,,,,,,WALRUS,C,z,y,./images/WALRUS.png,,,,,,,,,z,1,1.284,,,,,,,,0,127,127,107,1
,,,,,,,,,,,,,,,,,198967,18,2022-01-28_19h31.46.631,lexical_decision_task_DD_L5,2021.2.3,MacIntel,59.99880002,,,,,,,,,,,0.6171,1,,,,,,,,,,,,,,,,,,,,,,,,0.021905382,-0.394887153,0,0,0,,,,,,,GREASE,HB,z,y,./images/GREASEHB.png,,,,,,,,,z,1,0.6171,,,,,,,,0,128,128,99,1
,,,,,,,,,,,,,,,,,198967,18,2022-01-28_19h31.46.631,lexical_decision_task_DD_L5,2021.2.3,MacIntel,59.99880002,,,,,,,,,,,0.8147,0,,,,,,,,,,,,,,,,,,,,,,,,0.021905382,-0.394887153,0,0,0,,,,,,,JAGUAR,HB,z,y,./images/JAGUARHB.png,,,,,,,,,m,0,0.8147,,,,,,,,0,129,129,102,1
,,,,,,,,,,,,,,,,,198967,18,2022-01-28_19h31.46.631,lexical_decision_task_DD_L5,2021.2.3,MacIntel,59.99880002,,,,,,,,,,,0.6473,1,,,,,,,,,,,,,,,,,,,,,,,,0.021905382,-0.394887153,0,0,0,,,,,,,STOOL,LB,m,y,./images/STOOLLB.png,,,,,,,,,m,1,0.6473,,,,,,,,0,130,130,43,1
,,,,,,,,,,,,,,,,,198967,18,2022-01-28_19h31.46.631,lexical_decision_task_DD_L5,2021.2.3,MacIntel,59.99880002,,,,,,,,,,,0.6679,1,,,,,,,,,,,,,,,,,,,,,,,,0.021905382,-0.394887153,0,0,0,,,,,,,JELLY,LB,z,y,./images/JELLYLB.png,,,,,,,,,z,1,0.6679,,,,,,,,0,131,131,148,1
,,,,,,,,,,,,,,,,,198967,18,2022-01-28_19h31.46.631,lexical_decision_task_DD_L5,2021.2.3,MacIntel,59.99880002,,,,,,,,,,,0.6403,1,,,,,,,,,,,,,,,,,,,,,,,,0.021905382,-0.394887153,0,0,0,,,,,,,DOUGH,LB,z,y,./images/DOUGHLB.png,,,,,,,,,z,1,0.6403,,,,,,,,0,132,132,103,1
,,,,,,,,,,,,,,,,,198967,18,2022-01-28_19h31.46.631,lexical_decision_task_DD_L5,2021.2.3,MacIntel,59.99880002,,,,,,,,,,,0.7841,1,,,,,,,,,,,,,,,,,,,,,,,,0.021905382,-0.394887153,0,0,0,,,,,,,DANCER,HB,m,y,./images/DANCERHB.png,,,,,,,,,m,1,0.7841,,,,,,,,0,133,133,21,1
,,,,,,,,,,,,,,,,,198967,18,2022-01-28_19h31.46.631,lexical_decision_task_DD_L5,2021.2.3,MacIntel,59.99880002,,,,,,,,,,,0.7027,1,,,,,,,,,,,,,,,,,,,,,,,,0.021905382,-0.394887153,0,0,0,,,,,,,POODLE,HB,z,y,./images/POODLEHB.png,,,,,,,,,z,1,0.7027,,,,,,,,0,134,134,165,1
,,,,,,,,,,,,,,,,,198967,18,2022-01-28_19h31.46.631,lexical_decision_task_DD_L5,2021.2.3,MacIntel,59.99880002,,,,,,,,,,,1.3347,1,,,,,,,,,,,,,,,,,,,,,,,,0.021905382,-0.394887153,0,0,0,,,,,,,PENCE,LB,z,y,./images/PENCELB.png,,,,,,,,,z,1,1.3347,,,,,,,,0,135,135,100,1
,,,,,,,,,,,,,,,,,198967,18,2022-01-28_19h31.46.631,lexical_decision_task_DD_L5,2021.2.3,MacIntel,59.99880002,,,,,,,,,,,0.7655,1,,,,,,,,,,,,,,,,,,,,,,,,0.021905382,-0.394887153,0,0,0,,,,,,,COLLAR,HB,m,y,./images/COLLARHB.png,,,,,,,,,m,1,0.7655,,,,,,,,0,136,136,15,1
,,,,,,,,,,,,,,,,,198967,18,2022-01-28_19h31.46.631,lexical_decision_task_DD_L5,2021.2.3,MacIntel,59.99880002,,,,,,,,,,,0.7179,1,,,,,,,,,,,,,,,,,,,,,,,,0.021905382,-0.394887153,0,0,0,,,,,,,MIRROR,HB,z,y,./images/MIRRORHB.png,,,,,,,,,z,1,0.7179,,,,,,,,0,137,137,147,1
,,,,,,,,,,,,,,,,,198967,18,2022-01-28_19h31.46.631,lexical_decision_task_DD_L5,2021.2.3,MacIntel,59.99880002,,,,,,,,,,,0.8177,1,,,,,,,,,,,,,,,,,,,,,,,,0.021905382,-0.394887153,0,0,0,,,,,,,STORM,HB,z,y,./images/STORMHB.png,,,,,,,,,z,1,0.8177,,,,,,,,0,138,138,114,1
,,,,,,,,,,,,,,,,,198967,18,2022-01-28_19h31.46.631,lexical_decision_task_DD_L5,2021.2.3,MacIntel,59.99880002,,,,,,,,,,,0.6074,0,,,,,,,,,,,,,,,,,,,,,,,,0.021905382,-0.394887153,0,0,0,,,,,,,BISHOP,LB,m,y,./images/BISHOPLB.png,,,,,,,,,z,0,0.6074,,,,,,,,0,139,139,49,1
,,,,,,,,,,,,,,,,,198967,18,2022-01-28_19h31.46.631,lexical_decision_task_DD_L5,2021.2.3,MacIntel,59.99880002,,,,,,,,,,,0.6986,0,,,,,,,,,,,,,,,,,,,,,,,,0.021905382,-0.394887153,0,0,0,,,,,,,MOOSE,HB,z,y,./images/MOOSEHB.png,,,,,,,,,m,0,0.6986,,,,,,,,0,140,140,141,1
,,,,,,,,,,,,,,,,,198967,18,2022-01-28_19h31.46.631,lexical_decision_task_DD_L5,2021.2.3,MacIntel,59.99880002,,,,,,,,,,,0.7236,1,,,,,,,,,,,,,,,,,,,,,,,,0.021905382,-0.394887153,0,0,0,,,,,,,CLOUD,C,m,y,./images/CLOUD.png,,,,,,,,,m,1,0.7236,,,,,,,,0,141,141,26,1
,,,,,,,,,,,,,,,,,198967,18,2022-01-28_19h31.46.631,lexical_decision_task_DD_L5,2021.2.3,MacIntel,59.99880002,,,,,,,,,,,1.0834,1,,,,,,,,,,,,,,,,,,,,,,,,0.021905382,-0.394887153,0,0,0,,,,,,,CLOTH,C,m,y,./images/CLOTH.png,,,,,,,,,m,1,1.0834,,,,,,,,0,142,142,23,1
,,,,,,,,,,,,,,,,,198967,18,2022-01-28_19h31.46.631,lexical_decision_task_DD_L5,2021.2.3,MacIntel,59.99880002,,,,,,,,,,,0.5676,1,,,,,,,,,,,,,,,,,,,,,,,,0.021905382,-0.394887153,0,0,0,,,,,,,ATTIC,HB,z,y,./images/ATTICHB.png,,,,,,,,,z,1,0.5676,,,,,,,,0,143,143,111,1
,,,,,,,,,,,,,,,,,198967,18,2022-01-28_19h31.46.631,lexical_decision_task_DD_L5,2021.2.3,MacIntel,59.99880002,,,,,,,,,,,0.6338,1,,,,,,,,,,,,,,,,,,,,,,,,0.021905382,-0.394887153,0,0,0,,,,,,,MUFFIN,LB,z,y,./images/MUFFINLB.png,,,,,,,,,z,1,0.6338,,,,,,,,0,144,144,139,1
,,,,,,,,,,,,,,,,,198967,18,2022-01-28_19h31.46.631,lexical_decision_task_DD_L5,2021.2.3,MacIntel,59.99880002,,,,,,,,,,,0.9703,0,,,,,,,,,,,,,,,,,,,,,,,,0.021905382,-0.394887153,0,0,0,,,,,,,FARMER,C,z,y,./images/FARMER.png,,,,,,,,,m,0,0.9703,,,,,,,,0,145,145,149,1
,,,,,,,,,,,,,,,,,198967,18,2022-01-28_19h31.46.631,lexical_decision_task_DD_L5,2021.2.3,MacIntel,59.99880002,,,,,,,,,,,1.569,0,,,,,,,,,,,,,,,,,,,,,,,,0.021905382,-0.394887153,0,0,0,,,,,,,WHISKY,C,m,y,./images/WHISKY.png,,,,,,,,,z,0,1.569,,,,,,,,0,146,146,83,1
,,,,,,,,,,,,,,,,,198967,18,2022-01-28_19h31.46.631,lexical_decision_task_DD_L5,2021.2.3,MacIntel,59.99880002,,,,,,,,,,,0.8496,1,,,,,,,,,,,,,,,,,,,,,,,,0.021905382,-0.394887153,0,0,0,,,,,,,TRIPOD,HB,z,y,./images/TRIPODHB.png,,,,,,,,,z,1,0.8496,,,,,,,,0,147,147,138,1
,,,,,,,,,,,,,,,,,198967,18,2022-01-28_19h31.46.631,lexical_decision_task_DD_L5,2021.2.3,MacIntel,59.99880002,,,,,,,,,,,1.3192,1,,,,,,,,,,,,,,,,,,,,,,,,0.021905382,-0.394887153,0,0,0,,,,,,,SHORE,HB,z,y,./images/SHOREHB.png,,,,,,,,,z,1,1.3192,,,,,,,,0,148,148,96,1
,,,,,,,,,,,,,,,,,198967,18,2022-01-28_19h31.46.631,lexical_decision_task_DD_L5,2021.2.3,MacIntel,59.99880002,,,,,,,,,,,1.2009,1,,,,,,,,,,,,,,,,,,,,,,,,0.021905382,-0.394887153,0,0,0,,,,,,,PARCEL,HB,m,y,./images/PARCELHB.png,,,,,,,,,m,1,1.2009,,,,,,,,0,149,149,18,1
,,,,,,,,,,,,,,,,,198967,18,2022-01-28_19h31.46.631,lexical_decision_task_DD_L5,2021.2.3,MacIntel,59.99880002,,,,,,,,,,,0.7496,0,,,,,,,,,,,,,,,,,,,,,,,,0.021905382,-0.394887153,0,0,0,,,,,,,CHALK,LB,m,y,./images/CHALKLB.png,,,,,,,,,z,0,0.7496,,,,,,,,0,150,150,25,1
,,,,,,,,,,,,,,,,,198967,18,2022-01-28_19h31.46.631,lexical_decision_task_DD_L5,2021.2.3,MacIntel,59.99880002,,,,,,,,,,,0.8006,1,,,,,,,,,,,,,,,,,,,,,,,,0.021905382,-0.394887153,0,0,0,,,,,,,GARDEN,LB,m,y,./images/GARDENLB.png,,,,,,,,,m,1,0.8006,,,,,,,,0,151,151,10,1
,,,,,,,,,,,,,,,,,198967,18,2022-01-28_19h31.46.631,lexical_decision_task_DD_L5,2021.2.3,MacIntel,59.99880002,,,,,,,,,,,0.641,0,,,,,,,,,,,,,,,,,,,,,,,,0.021905382,-0.394887153,0,0,0,,,,,,,BLOKE,HB,m,y,./images/BLOKEHB.png,,,,,,,,,z,0,0.641,,,,,,,,0,152,152,12,1
,,,,,,,,,,,,,,,,,198967,18,2022-01-28_19h31.46.631,lexical_decision_task_DD_L5,2021.2.3,MacIntel,59.99880002,,,,,,,,,,,0.9839,0,,,,,,,,,,,,,,,,,,,,,,,,0.021905382,-0.394887153,0,0,0,,,,,,,SPINE,C,m,y,./images/SPINE.png,,,,,,,,,z,0,0.9839,,,,,,,,0,153,153,65,1
,,,,,,,,,,,,,,,,,198967,18,2022-01-28_19h31.46.631,lexical_decision_task_DD_L5,2021.2.3,MacIntel,59.99880002,,,,,,,,,,,0.784,1,,,,,,,,,,,,,,,,,,,,,,,,0.021905382,-0.394887153,0,0,0,,,,,,,URINE,LB,z,y,./images/URINELB.png,,,,,,,,,z,1,0.784,,,,,,,,0,154,154,154,1
,,,,,,,,,,,,,,,,,198967,18,2022-01-28_19h31.46.631,lexical_decision_task_DD_L5,2021.2.3,MacIntel,59.99880002,,,,,,,,,,,0.9542,1,,,,,,,,,,,,,,,,,,,,,,,,0.021905382,-0.394887153,0,0,0,,,,,,,CANDLE,LB,z,y,./images/CANDLELB.png,,,,,,,,,z,1,0.9542,,,,,,,,0,155,155,145,1
,,,,,,,,,,,,,,,,,198967,18,2022-01-28_19h31.46.631,lexical_decision_task_DD_L5,2021.2.3,MacIntel,59.99880002,,,,,,,,,,,0.9155,1,,,,,,,,,,,,,,,,,,,,,,,,0.021905382,-0.394887153,0,0,0,,,,,,,MOSQUE,LB,z,y,./images/MOSQUELB.png,,,,,,,,,z,1,0.9155,,,,,,,,0,156,156,127,1
,,,,,,,,,,,,,,,,,198967,18,2022-01-28_19h31.46.631,lexical_decision_task_DD_L5,2021.2.3,MacIntel,59.99880002,,,,,,,,,,,0.9509,1,,,,,,,,,,,,,,,,,,,,,,,,0.021905382,-0.394887153,0,0,0,,,,,,,STATUE,HB,m,y,./images/STATUEHB.png,,,,,,,,,m,1,0.9509,,,,,,,,0,157,157,66,1
,,,,,,,,,,,,,,,,,198967,18,2022-01-28_19h31.46.631,lexical_decision_task_DD_L5,2021.2.3,MacIntel,59.99880002,,,,,,,,,,,0.7243,1,,,,,,,,,,,,,,,,,,,,,,,,0.021905382,-0.394887153,0,0,0,,,,,,,KIDNEY,HB,z,y,./images/KIDNEYHB.png,,,,,,,,,z,1,0.7243,,,,,,,,0,158,158,105,1
,,,,,,,,,,,,,,,,,198967,18,2022-01-28_19h31.46.631,lexical_decision_task_DD_L5,2021.2.3,MacIntel,59.99880002,,,,,,,,,,,0.7041,0,,,,,,,,,,,,,,,,,,,,,,,,0.021905382,-0.394887153,0,0,0,,,,,,,GLOVE,LB,m,y,./images/GLOVELB.png,,,,,,,,,z,0,0.7041,,,,,,,,0,159,159,73,1
,,,,,,,,,,,,,,,,,198967,18,2022-01-28_19h31.46.631,lexical_decision_task_DD_L5,2021.2.3,MacIntel,59.99880002,,,,,,,,,,,0.9726,0,,,,,,,,,,,,,,,,,,,,,,,,0.021905382,-0.394887153,0,0,0,,,,,,,THROAT,HB,z,y,./images/THROATHB.png,,,,,,,,,m,0,0.9726,,,,,,,,0,160,160,120,1
,,,,,,,,,,,,,,,,,198967,18,2022-01-28_19h31.46.631,lexical_decision_task_DD_L5,2021.2.3,MacIntel,59.99880002,,,,,,,,,,,0.7055,1,,,,,,,,,,,,,,,,,,,,,,,,0.021905382,-0.394887153,0,0,0,,,,,,,INFANT,LB,z,y,./images/INFANTLB.png,,,,,,,,,z,1,0.7055,,,,,,,,0,161,161,160,1
,,,,,,,,,,,,,,,,,198967,18,2022-01-28_19h31.46.631,lexical_decision_task_DD_L5,2021.2.3,MacIntel,59.99880002,,,,,,,,,,,0.6139,1,,,,,,,,,,,,,,,,,,,,,,,,0.021905382,-0.394887153,0,0,0,,,,,,,BAMBOO,C,m,y,./images/BAMBOO.png,,,,,,,,,m,1,0.6139,,,,,,,,0,162,162,5,1
,,,,,,,,,,,,,,,,,198967,18,2022-01-28_19h31.46.631,lexical_decision_task_DD_L5,2021.2.3,MacIntel,59.99880002,,,,,,,,,,,1.1493,1,,,,,,,,,,,,,,,,,,,,,,,,0.021905382,-0.394887153,0,0,0,,,,,,,BOXER,LB,m,y,./images/BOXERLB.png,,,,,,,,,m,1,1.1493,,,,,,,,0,163,163,4,1
,,,,,,,,,,,,,,,,,198967,18,2022-01-28_19h31.46.631,lexical_decision_task_DD_L5,2021.2.3,MacIntel,59.99880002,,,,,,,,,,,0.8326,1,,,,,,,,,,,,,,,,,,,,,,,,0.021905382,-0.394887153,0,0,0,,,,,,,FALCON,LB,z,y,./images/FALCONLB.png,,,,,,,,,z,1,0.8326,,,,,,,,0,164,164,112,1
,,,,,,,,,,,,,,,,,198967,18,2022-01-28_19h31.46.631,lexical_decision_task_DD_L5,2021.2.3,MacIntel,59.99880002,,,,,,,,,,,0.7317,1,,,,,,,,,,,,,,,,,,,,,,,,0.021905382,-0.394887153,0,0,0,,,,,,,LLAMA,C,m,y,./images/LLAMA.png,,,,,,,,,m,1,0.7317,,,,,,,,0,165,165,35,1
,,,,,,,,,,,,,,,,,198967,18,2022-01-28_19h31.46.631,lexical_decision_task_DD_L5,2021.2.3,MacIntel,59.99880002,,,,,,,,,,,1.5283,0,,,,,,,,,,,,,,,,,,,,,,,,0.021905382,-0.394887153,0,0,0,,,,,,,PARADE,C,m,y,./images/PARADE.png,,,,,,,,,z,0,1.5283,,,,,,,,0,166,166,17,1
,,,,,,,,,,,,,,,,,198967,18,2022-01-28_19h31.46.631,lexical_decision_task_DD_L5,2021.2.3,MacIntel,59.99880002,,,,,,,,,,,1.8759,1,,,,,,,,,,,,,,,,,,,,,,,,0.021905382,-0.394887153,0,0,0,,,,,,,STREAM,C,m,y,./images/STREAM.png,,,,,,,,,m,1,1.8759,,,,,,,,0,167,167,41,1
