key_resp.keys,key_resp.rt,instr_done_touch.x,instr_done_touch.y,instr_done_touch.leftButton,instr_done_touch.midButton,instr_done_touch.rightButton,instruction_pages.thisRepN,instruction_pages.thisTrialN,instruction_pages.thisN,instruction_pages.thisIndex,instruction_pages.ran,pageN,phase,instruct_text,has_image,instruct_image,participant,age,date,expName,psychopyVersion,OS,frameRate,response.keys,response.corr,response.rt,touch_resp.x,touch_resp.y,touch_resp.leftButton,touch_resp.midButton,touch_resp.rightButton,touch_resp.time,touch_resp.clicked_name,rt,corr,practrials.thisRepN,practrials.thisTrialN,practrials.thisN,practrials.thisIndex,practrials.ran,TrialID,Target,corrAns,instr_done_touch.clicked_name,end_of_practice_trials_pages.thisRepN,end_of_practice_trials_pages.thisTrialN,end_of_practice_trials_pages.thisN,end_of_practice_trials_pages.thisIndex,end_of_practice_trials_pages.ran,key_resp_2.keys,key_resp_2.corr,key_resp_2.rt,targ_click.x,targ_click.y,targ_click.leftButton,targ_click.midButton,targ_click.rightButton,targ_click.time,targ_click.clicked_name,break_done_touch.x,break_done_touch.y,break_done_touch.leftButton,break_done_touch.midButton,break_done_touch.rightButton,break_done_keyboard.keys,maintrials.thisRepN,maintrials.thisTrialN,maintrials.thisN,maintrials.thisIndex,maintrials.ran,string,blur,study,lex,stim_path,break_done_keyboard.rt,test_instructions.thisRepN,test_instructions.thisTrialN,test_instructions.thisN,test_instructions.thisIndex,test_instructions.ran,key_resp_3.keys,key_resp_3.corr,key_resp_3.rt,test_click.x,test_click.y,test_click.leftButton,test_click.midButton,test_click.rightButton,test_click.time,test_click.clicked_name,test_phase.thisRepN,test_phase.thisTrialN,test_phase.thisN,test_phase.thisIndex,test_phase.ran
space,32.467,0.005555556,-0.375555556,0,0,0,0,0,0,0,1,1,instructions,"INSTRUCTIONS
At the start of each trial, look at the plus sign  (+) in the center of the screen.  This tells you that a trial is about to begin and where to look. Second, the plus sign will disappear and a string of letters will appear. Your task is to determine if the string of letters is a word or not. If the item is a word press the M key (on keyboard)  or touch the word button (phone/tablet).  If the item is not a word,  press the  Z key (on keyboard)  or touch the nonword button (on phone/tablet). 
Press the space bar or touch  continue.",0,,198913,18,2022-01-28_17h54.52.765,lexical_decision_task_DD_L2,2021.2.3,MacIntel,58.82352941,,,,,,,,,,,,,,,,,,,,,,,,,,,,,,,,,,,,,,,,,,,,,,,,,,,,,,,,,,,,,,,,,,,,,,,,,
space,30.78,0.005555556,-0.375555556,0,0,0,0,1,1,1,1,2,instructions,"If your device has a keyboard, press the 'Z' key for nonwords and the 'M' key for words.





Press the space bar or touch the button below to continue.",0,keyboard-example.gif,198913,18,2022-01-28_17h54.52.765,lexical_decision_task_DD_L2,2021.2.3,MacIntel,58.82352941,,,,,,,,,,,,,,,,,,,,,,,,,,,,,,,,,,,,,,,,,,,,,,,,,,,,,,,,,,,,,,,,,,,,,,,,,
space,2.755,0.005555556,-0.375555556,0,0,0,0,2,2,2,1,3,instructions,"If you are using a touchscreen only device, use the buttons on the screen. Do not use the mouse.





Press the space bar or touch the button below to continue.",0,touchscreen-example.gif,198913,18,2022-01-28_17h54.52.765,lexical_decision_task_DD_L2,2021.2.3,MacIntel,58.82352941,,,,,,,,,,,,,,,,,,,,,,,,,,,,,,,,,,,,,,,,,,,,,,,,,,,,,,,,,,,,,,,,,,,,,,,,,
space,15.705,-0.062222222,-0.408888889,0,0,0,0,3,3,3,1,4,instructions,"It is very important that you respond as quickly and accurately as possible, as each letter string will only be on the screen for two seconds. If you do not respond within this time, the message 'Too slow!' will be displayed and the experiment will progress to the next letter string. The first 20 trials will be practice trials and you will receive feedback on your answers. 

Press the space bar or touch the button below to start the practice trials.",0,,198913,18,2022-01-28_17h54.52.765,lexical_decision_task_DD_L2,2021.2.3,MacIntel,58.82352941,,,,,,,,,,,,,,,,,,,,,,,,,,,,,,,,,,,,,,,,,,,,,,,,,,,,,,,,,,,,,,,,,,,,,,,,,
,,,,,,,,,,,,,,,,,198913,18,2022-01-28_17h54.52.765,lexical_decision_task_DD_L2,2021.2.3,MacIntel,58.82352941,m,0,1.473,,,,,,,,1.473,0,0,0,0,11,1,1001,RASHET,z,,,,,,,,,,,,,,,,,,,,,,,,,,,,,,,,,,,,,,,,,,,,,,,,,,,,,
,,,,,,,,,,,,,,,,,198913,18,2022-01-28_17h54.52.765,lexical_decision_task_DD_L2,2021.2.3,MacIntel,58.82352941,z,1,1.314,,,,,,,,1.314,1,0,1,1,10,1,1001,INLADE,z,,,,,,,,,,,,,,,,,,,,,,,,,,,,,,,,,,,,,,,,,,,,,,,,,,,,,
,,,,,,,,,,,,,,,,,198913,18,2022-01-28_17h54.52.765,lexical_decision_task_DD_L2,2021.2.3,MacIntel,58.82352941,m,1,0.615,,,,,,,,0.615,1,0,2,2,2,1,1001,ALMOND,m,,,,,,,,,,,,,,,,,,,,,,,,,,,,,,,,,,,,,,,,,,,,,,,,,,,,,
,,,,,,,,,,,,,,,,,198913,18,2022-01-28_17h54.52.765,lexical_decision_task_DD_L2,2021.2.3,MacIntel,58.82352941,m,1,0.594,,,,,,,,0.594,1,0,3,3,7,1,1001,VOLUME,m,,,,,,,,,,,,,,,,,,,,,,,,,,,,,,,,,,,,,,,,,,,,,,,,,,,,,
,,,,,,,,,,,,,,,,,198913,18,2022-01-28_17h54.52.765,lexical_decision_task_DD_L2,2021.2.3,MacIntel,58.82352941,z,1,0.426,,,,,,,,0.426,1,0,4,4,8,1,1001,ASLERT,z,,,,,,,,,,,,,,,,,,,,,,,,,,,,,,,,,,,,,,,,,,,,,,,,,,,,,
,,,,,,,,,,,,,,,,,198913,18,2022-01-28_17h54.52.765,lexical_decision_task_DD_L2,2021.2.3,MacIntel,58.82352941,m,1,0.46,,,,,,,,0.46,1,0,5,5,0,1,1001,UTOPIA,m,,,,,,,,,,,,,,,,,,,,,,,,,,,,,,,,,,,,,,,,,,,,,,,,,,,,,
,,,,,,,,,,,,,,,,,198913,18,2022-01-28_17h54.52.765,lexical_decision_task_DD_L2,2021.2.3,MacIntel,58.82352941,z,1,0.798,,,,,,,,0.798,1,0,6,6,15,1,1001,WHAISE,z,,,,,,,,,,,,,,,,,,,,,,,,,,,,,,,,,,,,,,,,,,,,,,,,,,,,,
,,,,,,,,,,,,,,,,,198913,18,2022-01-28_17h54.52.765,lexical_decision_task_DD_L2,2021.2.3,MacIntel,58.82352941,z,1,0.826,,,,,,,,0.826,1,0,7,7,12,1,1001,SPRINY,z,,,,,,,,,,,,,,,,,,,,,,,,,,,,,,,,,,,,,,,,,,,,,,,,,,,,,
,,,,,,,,,,,,,,,,,198913,18,2022-01-28_17h54.52.765,lexical_decision_task_DD_L2,2021.2.3,MacIntel,58.82352941,z,1,0.599,,,,,,,,0.599,1,0,8,8,13,1,1001,ROUPET,z,,,,,,,,,,,,,,,,,,,,,,,,,,,,,,,,,,,,,,,,,,,,,,,,,,,,,
,,,,,,,,,,,,,,,,,198913,18,2022-01-28_17h54.52.765,lexical_decision_task_DD_L2,2021.2.3,MacIntel,58.82352941,m,1,0.747,,,,,,,,0.747,1,0,9,9,3,1,1001,MATRIX,m,,,,,,,,,,,,,,,,,,,,,,,,,,,,,,,,,,,,,,,,,,,,,,,,,,,,,
,,,,,,,,,,,,,,,,,198913,18,2022-01-28_17h54.52.765,lexical_decision_task_DD_L2,2021.2.3,MacIntel,58.82352941,m,1,0.463,,,,,,,,0.463,1,0,10,10,6,1,1001,ZOMBIE,m,,,,,,,,,,,,,,,,,,,,,,,,,,,,,,,,,,,,,,,,,,,,,,,,,,,,,
,,,,,,,,,,,,,,,,,198913,18,2022-01-28_17h54.52.765,lexical_decision_task_DD_L2,2021.2.3,MacIntel,58.82352941,z,1,0.779,,,,,,,,0.779,1,0,11,11,9,1,1001,FARINY,z,,,,,,,,,,,,,,,,,,,,,,,,,,,,,,,,,,,,,,,,,,,,,,,,,,,,,
,,,,,,,,,,,,,,,,,198913,18,2022-01-28_17h54.52.765,lexical_decision_task_DD_L2,2021.2.3,MacIntel,58.82352941,m,1,0.694,,,,,,,,0.694,1,0,12,12,5,1,1001,OBTAIN,m,,,,,,,,,,,,,,,,,,,,,,,,,,,,,,,,,,,,,,,,,,,,,,,,,,,,,
,,,,,,,,,,,,,,,,,198913,18,2022-01-28_17h54.52.765,lexical_decision_task_DD_L2,2021.2.3,MacIntel,58.82352941,m,1,0.507,,,,,,,,0.507,1,0,13,13,1,1,1001,ADJUST,m,,,,,,,,,,,,,,,,,,,,,,,,,,,,,,,,,,,,,,,,,,,,,,,,,,,,,
,,,,,,,,,,,,,,,,,198913,18,2022-01-28_17h54.52.765,lexical_decision_task_DD_L2,2021.2.3,MacIntel,58.82352941,m,1,0.49,,,,,,,,0.49,1,0,14,14,4,1,1001,SQUEAK,m,,,,,,,,,,,,,,,,,,,,,,,,,,,,,,,,,,,,,,,,,,,,,,,,,,,,,
,,,,,,,,,,,,,,,,,198913,18,2022-01-28_17h54.52.765,lexical_decision_task_DD_L2,2021.2.3,MacIntel,58.82352941,z,1,0.562,,,,,,,,0.562,1,0,15,15,14,1,1001,THRALE,z,,,,,,,,,,,,,,,,,,,,,,,,,,,,,,,,,,,,,,,,,,,,,,,,,,,,,
,,-0.034444444,-0.401111111,1,0,0,,,,,,1,end_of_practice,"You have completed the practice trials. During the experimental trials, you will not receive feedback. 
Before you begin, please ensure that you are in a comfortable and quiet location and will not be disturbed for about 15 minutes, as we cannot use your data if you do not complete all the trials. 
 When you are ready to start the experimental trials, please press space or touch the button below.",,,198913,18,2022-01-28_17h54.52.765,lexical_decision_task_DD_L2,2021.2.3,MacIntel,58.82352941,,,,,,,,,,,,,,,,,,,,,instr_done_button,0,0,0,0,1,,,,,,,,,,,,,,,,,,,,,,,,,,,,,,,,,,,,,,,,,,,,,,,
,,,,,,,,,,,,,,,,,198913,18,2022-01-28_17h54.52.765,lexical_decision_task_DD_L2,2021.2.3,MacIntel,58.82352941,,,,,,,,,,,1.235,1,,,,,,,,,,,,,,,z,1,1.235,,,,,,,,-0.034444444,-0.401111111,0,0,0,,0,0,0,105,1,MOKER,C,old,z,./images/MOKER.png,,,,,,,,,,,,,,,,,,,,,
,,,,,,,,,,,,,,,,,198913,18,2022-01-28_17h54.52.765,lexical_decision_task_DD_L2,2021.2.3,MacIntel,58.82352941,,,,,,,,,,,1.248,0,,,,,,,,,,,,,,,z,0,1.248,,,,,,,,-0.034444444,-0.401111111,0,0,0,,0,1,1,19,1,DOUGH,LB,old,m,./images/DOUGHLB.png,,,,,,,,,,,,,,,,,,,,,
,,,,,,,,,,,,,,,,,198913,18,2022-01-28_17h54.52.765,lexical_decision_task_DD_L2,2021.2.3,MacIntel,58.82352941,,,,,,,,,,,0.835,1,,,,,,,,,,,,,,,z,1,0.835,,,,,,,,-0.034444444,-0.401111111,0,0,0,,0,2,2,99,1,BACKY,C,old,z,./images/BACKY.png,,,,,,,,,,,,,,,,,,,,,
,,,,,,,,,,,,,,,,,198913,18,2022-01-28_17h54.52.765,lexical_decision_task_DD_L2,2021.2.3,MacIntel,58.82352941,,,,,,,,,,,1.463,1,,,,,,,,,,,,,,,z,1,1.463,,,,,,,,-0.034444444,-0.401111111,0,0,0,,0,3,3,113,1,LINEW,LB,old,z,./images/LINEWLB.png,,,,,,,,,,,,,,,,,,,,,
,,,,,,,,,,,,,,,,,198913,18,2022-01-28_17h54.52.765,lexical_decision_task_DD_L2,2021.2.3,MacIntel,58.82352941,,,,,,,,,,,0.809,1,,,,,,,,,,,,,,,m,1,0.809,,,,,,,,-0.034444444,-0.401111111,0,0,0,,0,4,4,83,1,JUNGLE,C,old,m,./images/JUNGLE.png,,,,,,,,,,,,,,,,,,,,,
,,,,,,,,,,,,,,,,,198913,18,2022-01-28_17h54.52.765,lexical_decision_task_DD_L2,2021.2.3,MacIntel,58.82352941,,,,,,,,,,,0.762,1,,,,,,,,,,,,,,,m,1,0.762,,,,,,,,-0.034444444,-0.401111111,0,0,0,,0,5,5,38,1,LADDER,C,old,m,./images/LADDER.png,,,,,,,,,,,,,,,,,,,,,
,,,,,,,,,,,,,,,,,198913,18,2022-01-28_17h54.52.765,lexical_decision_task_DD_L2,2021.2.3,MacIntel,58.82352941,,,,,,,,,,,1.048,0,,,,,,,,,,,,,,,m,0,1.048,,,,,,,,-0.034444444,-0.401111111,0,0,0,,0,6,6,140,1,DOVET,LB,old,z,./images/DOVETLB.png,,,,,,,,,,,,,,,,,,,,,
,,,,,,,,,,,,,,,,,198913,18,2022-01-28_17h54.52.765,lexical_decision_task_DD_L2,2021.2.3,MacIntel,58.82352941,,,,,,,,,,,1.068,1,,,,,,,,,,,,,,,m,1,1.068,,,,,,,,-0.034444444,-0.401111111,0,0,0,,0,7,7,13,1,MOTOR,LB,old,m,./images/MOTORLB.png,,,,,,,,,,,,,,,,,,,,,
,,,,,,,,,,,,,,,,,198913,18,2022-01-28_17h54.52.765,lexical_decision_task_DD_L2,2021.2.3,MacIntel,58.82352941,,,,,,,,,,,0.946,1,,,,,,,,,,,,,,,z,1,0.946,,,,,,,,-0.034444444,-0.401111111,0,0,0,,0,8,8,138,1,PLICE,C,old,z,./images/PLICE.png,,,,,,,,,,,,,,,,,,,,,
,,,,,,,,,,,,,,,,,198913,18,2022-01-28_17h54.52.765,lexical_decision_task_DD_L2,2021.2.3,MacIntel,58.82352941,,,,,,,,,,,0.732,1,,,,,,,,,,,,,,,m,1,0.732,,,,,,,,-0.034444444,-0.401111111,0,0,0,,0,9,9,54,1,TRIPOD,HB,old,m,./images/TRIPODHB.png,,,,,,,,,,,,,,,,,,,,,
,,,,,,,,,,,,,,,,,198913,18,2022-01-28_17h54.52.765,lexical_decision_task_DD_L2,2021.2.3,MacIntel,58.82352941,,,,,,,,,,,0.578,1,,,,,,,,,,,,,,,m,1,0.578,,,,,,,,-0.034444444,-0.401111111,0,0,0,,0,10,10,3,1,FINGER,HB,old,m,./images/FINGERHB.png,,,,,,,,,,,,,,,,,,,,,
,,,,,,,,,,,,,,,,,198913,18,2022-01-28_17h54.52.765,lexical_decision_task_DD_L2,2021.2.3,MacIntel,58.82352941,,,,,,,,,,,0.547,1,,,,,,,,,,,,,,,m,1,0.547,,,,,,,,-0.034444444,-0.401111111,0,0,0,,0,11,11,11,1,BONNET,C,old,m,./images/BONNET.png,,,,,,,,,,,,,,,,,,,,,
,,,,,,,,,,,,,,,,,198913,18,2022-01-28_17h54.52.765,lexical_decision_task_DD_L2,2021.2.3,MacIntel,58.82352941,,,,,,,,,,,0.59,1,,,,,,,,,,,,,,,m,1,0.59,,,,,,,,-0.034444444,-0.401111111,0,0,0,,0,12,12,4,1,MUSCLE,LB,old,m,./images/MUSCLELB.png,,,,,,,,,,,,,,,,,,,,,
,,,,,,,,,,,,,,,,,198913,18,2022-01-28_17h54.52.765,lexical_decision_task_DD_L2,2021.2.3,MacIntel,58.82352941,,,,,,,,,,,1.285,1,,,,,,,,,,,,,,,z,1,1.285,,,,,,,,-0.034444444,-0.401111111,0,0,0,,0,13,13,98,1,BAMPS,LB,old,z,./images/BAMPSLB.png,,,,,,,,,,,,,,,,,,,,,
,,,,,,,,,,,,,,,,,198913,18,2022-01-28_17h54.52.765,lexical_decision_task_DD_L2,2021.2.3,MacIntel,58.82352941,,,,,,,,,,,0.753,1,,,,,,,,,,,,,,,m,1,0.753,,,,,,,,-0.034444444,-0.401111111,0,0,0,,0,14,14,79,1,CRUST,LB,old,m,./images/CRUSTLB.png,,,,,,,,,,,,,,,,,,,,,
,,,,,,,,,,,,,,,,,198913,18,2022-01-28_17h54.52.765,lexical_decision_task_DD_L2,2021.2.3,MacIntel,58.82352941,,,,,,,,,,,2.145,1,,,,,,,,,,,,,,,z,1,2.145,,,,,,,,-0.034444444,-0.401111111,0,0,0,,0,15,15,85,1,CHULK,HB,old,z,./images/CHULKHB.png,,,,,,,,,,,,,,,,,,,,,
,,,,,,,,,,,,,,,,,198913,18,2022-01-28_17h54.52.765,lexical_decision_task_DD_L2,2021.2.3,MacIntel,58.82352941,,,,,,,,,,,1.166,0,,,,,,,,,,,,,,,m,0,1.166,,,,,,,,-0.034444444,-0.401111111,0,0,0,,0,16,16,151,1,TINKY,HB,old,z,./images/TINKYHB.png,,,,,,,,,,,,,,,,,,,,,
,,,,,,,,,,,,,,,,,198913,18,2022-01-28_17h54.52.765,lexical_decision_task_DD_L2,2021.2.3,MacIntel,58.82352941,,,,,,,,,,,0.68,0,,,,,,,,,,,,,,,m,0,0.68,,,,,,,,-0.034444444,-0.401111111,0,0,0,,0,17,17,103,1,FLORT,HB,old,z,./images/FLORTHB.png,,,,,,,,,,,,,,,,,,,,,
,,,,,,,,,,,,,,,,,198913,18,2022-01-28_17h54.52.765,lexical_decision_task_DD_L2,2021.2.3,MacIntel,58.82352941,,,,,,,,,,,2.26,1,,,,,,,,,,,,,,,z,1,2.26,,,,,,,,-0.034444444,-0.401111111,0,0,0,,0,18,18,142,1,PLASK,HB,old,z,./images/PLASKHB.png,,,,,,,,,,,,,,,,,,,,,
,,,,,,,,,,,,,,,,,198913,18,2022-01-28_17h54.52.765,lexical_decision_task_DD_L2,2021.2.3,MacIntel,58.82352941,,,,,,,,,,,0.657,1,,,,,,,,,,,,,,,m,1,0.657,,,,,,,,-0.034444444,-0.401111111,0,0,0,,0,19,19,42,1,FOLDER,HB,old,m,./images/FOLDERHB.png,,,,,,,,,,,,,,,,,,,,,
,,,,,,,,,,,,,,,,,198913,18,2022-01-28_17h54.52.765,lexical_decision_task_DD_L2,2021.2.3,MacIntel,58.82352941,,,,,,,,,,,0.708,1,,,,,,,,,,,,,,,m,1,0.708,,,,,,,,-0.034444444,-0.401111111,0,0,0,,0,20,20,32,1,BARREL,C,old,m,./images/BARREL.png,,,,,,,,,,,,,,,,,,,,,
,,,,,,,,,,,,,,,,,198913,18,2022-01-28_17h54.52.765,lexical_decision_task_DD_L2,2021.2.3,MacIntel,58.82352941,,,,,,,,,,,1.648,1,,,,,,,,,,,,,,,z,1,1.648,,,,,,,,-0.034444444,-0.401111111,0,0,0,,0,21,21,91,1,SHENS,HB,old,z,./images/SHENSHB.png,,,,,,,,,,,,,,,,,,,,,
,,,,,,,,,,,,,,,,,198913,18,2022-01-28_17h54.52.765,lexical_decision_task_DD_L2,2021.2.3,MacIntel,58.82352941,,,,,,,,,,,0.861,1,,,,,,,,,,,,,,,z,1,0.861,,,,,,,,-0.034444444,-0.401111111,0,0,0,,0,22,22,129,1,PRANS,C,old,z,./images/PRANS.png,,,,,,,,,,,,,,,,,,,,,
,,,,,,,,,,,,,,,,,198913,18,2022-01-28_17h54.52.765,lexical_decision_task_DD_L2,2021.2.3,MacIntel,58.82352941,,,,,,,,,,,0.963,1,,,,,,,,,,,,,,,z,1,0.963,,,,,,,,-0.034444444,-0.401111111,0,0,0,,0,23,23,146,1,MOOST,LB,old,z,./images/MOOSTLB.png,,,,,,,,,,,,,,,,,,,,,
,,,,,,,,,,,,,,,,,198913,18,2022-01-28_17h54.52.765,lexical_decision_task_DD_L2,2021.2.3,MacIntel,58.82352941,,,,,,,,,,,1.28,1,,,,,,,,,,,,,,,z,1,1.28,,,,,,,,-0.034444444,-0.401111111,0,0,0,,0,24,24,160,1,VEETS,HB,old,z,./images/VEETSHB.png,,,,,,,,,,,,,,,,,,,,,
,,,,,,,,,,,,,,,,,198913,18,2022-01-28_17h54.52.765,lexical_decision_task_DD_L2,2021.2.3,MacIntel,58.82352941,,,,,,,,,,,0.633,1,,,,,,,,,,,,,,,m,1,0.633,,,,,,,,-0.034444444,-0.401111111,0,0,0,,0,25,25,12,1,SHORE,HB,old,m,./images/SHOREHB.png,,,,,,,,,,,,,,,,,,,,,
,,,,,,,,,,,,,,,,,198913,18,2022-01-28_17h54.52.765,lexical_decision_task_DD_L2,2021.2.3,MacIntel,58.82352941,,,,,,,,,,,1.119,1,,,,,,,,,,,,,,,m,1,1.119,,,,,,,,-0.034444444,-0.401111111,0,0,0,,0,26,26,17,1,SKIING,C,old,m,./images/SKIING.png,,,,,,,,,,,,,,,,,,,,,
,,,,,,,,,,,,,,,,,198913,18,2022-01-28_17h54.52.765,lexical_decision_task_DD_L2,2021.2.3,MacIntel,58.82352941,,,,,,,,,,,0.551,1,,,,,,,,,,,,,,,m,1,0.551,,,,,,,,-0.034444444,-0.401111111,0,0,0,,0,27,27,52,1,BANNER,LB,old,m,./images/BANNERLB.png,,,,,,,,,,,,,,,,,,,,,
,,,,,,,,,,,,,,,,,198913,18,2022-01-28_17h54.52.765,lexical_decision_task_DD_L2,2021.2.3,MacIntel,58.82352941,,,,,,,,,,,0.753,0,,,,,,,,,,,,,,,m,0,0.753,,,,,,,,-0.034444444,-0.401111111,0,0,0,,0,28,28,128,1,GRIFT,LB,old,z,./images/GRIFTLB.png,,,,,,,,,,,,,,,,,,,,,
,,,,,,,,,,,,,,,,,198913,18,2022-01-28_17h54.52.765,lexical_decision_task_DD_L2,2021.2.3,MacIntel,58.82352941,,,,,,,,,,,0.932,0,,,,,,,,,,,,,,,m,0,0.932,,,,,,,,-0.034444444,-0.401111111,0,0,0,,0,29,29,108,1,GRUET,C,old,z,./images/GRUET.png,,,,,,,,,,,,,,,,,,,,,
,,,,,,,,,,,,,,,,,198913,18,2022-01-28_17h54.52.765,lexical_decision_task_DD_L2,2021.2.3,MacIntel,58.82352941,,,,,,,,,,,0.796,1,,,,,,,,,,,,,,,z,1,0.796,,,,,,,,-0.034444444,-0.401111111,0,0,0,,0,30,30,149,1,VEASE,LB,old,z,./images/VEASELB.png,,,,,,,,,,,,,,,,,,,,,
,,,,,,,,,,,,,,,,,198913,18,2022-01-28_17h54.52.765,lexical_decision_task_DD_L2,2021.2.3,MacIntel,58.82352941,,,,,,,,,,,0.634,1,,,,,,,,,,,,,,,m,1,0.634,,,,,,,,-0.034444444,-0.401111111,0,0,0,,0,31,31,31,1,QUILL,LB,old,m,./images/QUILLLB.png,,,,,,,,,,,,,,,,,,,,,
,,,,,,,,,,,,,,,,,198913,18,2022-01-28_17h54.52.765,lexical_decision_task_DD_L2,2021.2.3,MacIntel,58.82352941,,,,,,,,,,,0.549,1,,,,,,,,,,,,,,,m,1,0.549,,,,,,,,-0.034444444,-0.401111111,0,0,0,,0,32,32,56,1,PACKET,C,old,m,./images/PACKET.png,,,,,,,,,,,,,,,,,,,,,
,,,,,,,,,,,,,,,,,198913,18,2022-01-28_17h54.52.765,lexical_decision_task_DD_L2,2021.2.3,MacIntel,58.82352941,,,,,,,,,,,0.611,1,,,,,,,,,,,,,,,z,1,0.611,,,,,,,,-0.034444444,-0.401111111,0,0,0,,0,33,33,164,1,SGREW,LB,old,z,./images/SGREWLB.png,,,,,,,,,,,,,,,,,,,,,
,,,,,,,,,,,,,,,,,198913,18,2022-01-28_17h54.52.765,lexical_decision_task_DD_L2,2021.2.3,MacIntel,58.82352941,,,,,,,,,,,1.533,1,,,,,,,,,,,,,,,z,1,1.533,,,,,,,,-0.034444444,-0.401111111,0,0,0,,0,34,34,130,1,CRILL,HB,old,z,./images/CRILLHB.png,,,,,,,,,,,,,,,,,,,,,
,,,,,,,,,,,,,,,,,198913,18,2022-01-28_17h54.52.765,lexical_decision_task_DD_L2,2021.2.3,MacIntel,58.82352941,,,,,,,,,,,0.664,1,,,,,,,,,,,,,,,m,1,0.664,,,,,,,,-0.034444444,-0.401111111,0,0,0,,0,35,35,59,1,BURIAL,C,old,m,./images/BURIAL.png,,,,,,,,,,,,,,,,,,,,,
,,,,,,,,,,,,,,,,,198913,18,2022-01-28_17h54.52.765,lexical_decision_task_DD_L2,2021.2.3,MacIntel,58.82352941,,,,,,,,,,,0.682,1,,,,,,,,,,,,,,,z,1,0.682,,,,,,,,-0.034444444,-0.401111111,0,0,0,,0,36,36,104,1,GITTY,LB,old,z,./images/GITTYLB.png,,,,,,,,,,,,,,,,,,,,,
,,,,,,,,,,,,,,,,,198913,18,2022-01-28_17h54.52.765,lexical_decision_task_DD_L2,2021.2.3,MacIntel,58.82352941,,,,,,,,,,,1.087,1,,,,,,,,,,,,,,,z,1,1.087,,,,,,,,-0.034444444,-0.401111111,0,0,0,,0,37,37,126,1,GUELS,C,old,z,./images/GUELS.png,,,,,,,,,,,,,,,,,,,,,
,,,,,,,,,,,,,,,,,198913,18,2022-01-28_17h54.52.765,lexical_decision_task_DD_L2,2021.2.3,MacIntel,58.82352941,,,,,,,,,,,0.765,1,,,,,,,,,,,,,,,m,1,0.765,,,,,,,,-0.034444444,-0.401111111,0,0,0,,0,38,38,22,1,MELON,LB,old,m,./images/MELONLB.png,,,,,,,,,,,,,,,,,,,,,
,,,,,,,,,,,,,,,,,198913,18,2022-01-28_17h54.52.765,lexical_decision_task_DD_L2,2021.2.3,MacIntel,58.82352941,,,,,,,,,,,0.613,1,,,,,,,,,,,,,,,m,1,0.613,,,,,,,,-0.034444444,-0.401111111,0,0,0,,0,39,39,66,1,SWEAT,HB,old,m,./images/SWEATHB.png,,,,,,,,,,,,,,,,,,,,,
,,,,,,,,,,,,,,,,,198913,18,2022-01-28_17h54.52.765,lexical_decision_task_DD_L2,2021.2.3,MacIntel,58.82352941,,,,,,,,,,,0.675,1,,,,,,,,,,,,,,,z,1,0.675,,,,,,,,-0.034444444,-0.401111111,0,0,0,,0,40,40,89,1,DRIEK,LB,old,z,./images/DRIEKLB.png,,,,,,,,,,,,,,,,,,,,,
,,,,,,,,,,,,,,,,,198913,18,2022-01-28_17h54.52.765,lexical_decision_task_DD_L2,2021.2.3,MacIntel,58.82352941,,,,,,,,,,,0.494,1,,,,,,,,,,,,,,,m,1,0.494,,,,,,,,-0.034444444,-0.401111111,0,0,0,space,0,41,41,73,1,SNACK,LB,old,m,./images/SNACKLB.png,6.395,,,,,,,,,,,,,,,,,,,,
,,,,,,,,,,,,,,,,,198913,18,2022-01-28_17h54.52.765,lexical_decision_task_DD_L2,2021.2.3,MacIntel,58.82352941,,,,,,,,,,,1.604,1,,,,,,,,,,,,,,,z,1,1.604,,,,,,,,-0.034444444,-0.401111111,0,0,0,,0,42,42,115,1,MAWNS,HB,old,z,./images/MAWNSHB.png,,,,,,,,,,,,,,,,,,,,,
,,,,,,,,,,,,,,,,,198913,18,2022-01-28_17h54.52.765,lexical_decision_task_DD_L2,2021.2.3,MacIntel,58.82352941,,,,,,,,,,,1.235,1,,,,,,,,,,,,,,,z,1,1.235,,,,,,,,-0.034444444,-0.401111111,0,0,0,,0,43,43,97,1,CHIDS,HB,old,z,./images/CHIDSHB.png,,,,,,,,,,,,,,,,,,,,,
,,,,,,,,,,,,,,,,,198913,18,2022-01-28_17h54.52.765,lexical_decision_task_DD_L2,2021.2.3,MacIntel,58.82352941,,,,,,,,,,,0.721,1,,,,,,,,,,,,,,,m,1,0.721,,,,,,,,-0.034444444,-0.401111111,0,0,0,,0,44,44,50,1,MALLET,C,old,m,./images/MALLET.png,,,,,,,,,,,,,,,,,,,,,
,,,,,,,,,,,,,,,,,198913,18,2022-01-28_17h54.52.765,lexical_decision_task_DD_L2,2021.2.3,MacIntel,58.82352941,,,,,,,,,,,0.562,0,,,,,,,,,,,,,,,m,0,0.562,,,,,,,,-0.034444444,-0.401111111,0,0,0,,0,45,45,143,1,MONGS,LB,old,z,./images/MONGSLB.png,,,,,,,,,,,,,,,,,,,,,
,,,,,,,,,,,,,,,,,198913,18,2022-01-28_17h54.52.765,lexical_decision_task_DD_L2,2021.2.3,MacIntel,58.82352941,,,,,,,,,,,2.514,1,,,,,,,,,,,,,,,z,1,2.514,,,,,,,,-0.034444444,-0.401111111,0,0,0,,0,46,46,88,1,GLUSH,HB,old,z,./images/GLUSHHB.png,,,,,,,,,,,,,,,,,,,,,
,,,,,,,,,,,,,,,,,198913,18,2022-01-28_17h54.52.765,lexical_decision_task_DD_L2,2021.2.3,MacIntel,58.82352941,,,,,,,,,,,0.748,0,,,,,,,,,,,,,,,m,0,0.748,,,,,,,,-0.034444444,-0.401111111,0,0,0,,0,47,47,110,1,CRUNK,LB,old,z,./images/CRUNKLB.png,,,,,,,,,,,,,,,,,,,,,
,,,,,,,,,,,,,,,,,198913,18,2022-01-28_17h54.52.765,lexical_decision_task_DD_L2,2021.2.3,MacIntel,58.82352941,,,,,,,,,,,0.532,1,,,,,,,,,,,,,,,m,1,0.532,,,,,,,,-0.034444444,-0.401111111,0,0,0,,0,48,48,82,1,SUNSET,LB,old,m,./images/SUNSETLB.png,,,,,,,,,,,,,,,,,,,,,
,,,,,,,,,,,,,,,,,198913,18,2022-01-28_17h54.52.765,lexical_decision_task_DD_L2,2021.2.3,MacIntel,58.82352941,,,,,,,,,,,1.729,1,,,,,,,,,,,,,,,z,1,1.729,,,,,,,,-0.034444444,-0.401111111,0,0,0,,0,49,49,109,1,BURGE,HB,old,z,./images/BURGEHB.png,,,,,,,,,,,,,,,,,,,,,
,,,,,,,,,,,,,,,,,198913,18,2022-01-28_17h54.52.765,lexical_decision_task_DD_L2,2021.2.3,MacIntel,58.82352941,,,,,,,,,,,0.563,1,,,,,,,,,,,,,,,m,1,0.563,,,,,,,,-0.034444444,-0.401111111,0,0,0,,0,50,50,14,1,PICKLE,C,old,m,./images/PICKLE.png,,,,,,,,,,,,,,,,,,,,,
,,,,,,,,,,,,,,,,,198913,18,2022-01-28_17h54.52.765,lexical_decision_task_DD_L2,2021.2.3,MacIntel,58.82352941,,,,,,,,,,,0.597,1,,,,,,,,,,,,,,,m,1,0.597,,,,,,,,-0.034444444,-0.401111111,0,0,0,,0,51,51,65,1,FARMER,C,old,m,./images/FARMER.png,,,,,,,,,,,,,,,,,,,,,
,,,,,,,,,,,,,,,,,198913,18,2022-01-28_17h54.52.765,lexical_decision_task_DD_L2,2021.2.3,MacIntel,58.82352941,,,,,,,,,,,0.845,1,,,,,,,,,,,,,,,z,1,0.845,,,,,,,,-0.034444444,-0.401111111,0,0,0,,0,52,52,90,1,NEAST,C,old,z,./images/NEAST.png,,,,,,,,,,,,,,,,,,,,,
,,,,,,,,,,,,,,,,,198913,18,2022-01-28_17h54.52.765,lexical_decision_task_DD_L2,2021.2.3,MacIntel,58.82352941,,,,,,,,,,,0.549,1,,,,,,,,,,,,,,,m,1,0.549,,,,,,,,-0.034444444,-0.401111111,0,0,0,,0,53,53,53,1,CARPET,C,old,m,./images/CARPET.png,,,,,,,,,,,,,,,,,,,,,
,,,,,,,,,,,,,,,,,198913,18,2022-01-28_17h54.52.765,lexical_decision_task_DD_L2,2021.2.3,MacIntel,58.82352941,,,,,,,,,,,1.038,1,,,,,,,,,,,,,,,z,1,1.038,,,,,,,,-0.034444444,-0.401111111,0,0,0,,0,54,54,141,1,PLEET,C,old,z,./images/PLEET.png,,,,,,,,,,,,,,,,,,,,,
,,,,,,,,,,,,,,,,,198913,18,2022-01-28_17h54.52.765,lexical_decision_task_DD_L2,2021.2.3,MacIntel,58.82352941,,,,,,,,,,,0.463,1,,,,,,,,,,,,,,,m,1,0.463,,,,,,,,-0.034444444,-0.401111111,0,0,0,,0,55,55,5,1,PASTA,C,old,m,./images/PASTA.png,,,,,,,,,,,,,,,,,,,,,
,,,,,,,,,,,,,,,,,198913,18,2022-01-28_17h54.52.765,lexical_decision_task_DD_L2,2021.2.3,MacIntel,58.82352941,,,,,,,,,,,0.549,1,,,,,,,,,,,,,,,m,1,0.549,,,,,,,,-0.034444444,-0.401111111,0,0,0,,0,56,56,77,1,COUCH,C,old,m,./images/COUCH.png,,,,,,,,,,,,,,,,,,,,,
,,,,,,,,,,,,,,,,,198913,18,2022-01-28_17h54.52.765,lexical_decision_task_DD_L2,2021.2.3,MacIntel,58.82352941,,,,,,,,,,,0.563,1,,,,,,,,,,,,,,,m,1,0.563,,,,,,,,-0.034444444,-0.401111111,0,0,0,,0,57,57,81,1,POODLE,HB,old,m,./images/POODLEHB.png,,,,,,,,,,,,,,,,,,,,,
,,,,,,,,,,,,,,,,,198913,18,2022-01-28_17h54.52.765,lexical_decision_task_DD_L2,2021.2.3,MacIntel,58.82352941,,,,,,,,,,,0.589,1,,,,,,,,,,,,,,,z,1,0.589,,,,,,,,-0.034444444,-0.401111111,0,0,0,,0,58,58,158,1,EGECT,LB,old,z,./images/EGECTLB.png,,,,,,,,,,,,,,,,,,,,,
,,,,,,,,,,,,,,,,,198913,18,2022-01-28_17h54.52.765,lexical_decision_task_DD_L2,2021.2.3,MacIntel,58.82352941,,,,,,,,,,,1.78,1,,,,,,,,,,,,,,,z,1,1.78,,,,,,,,-0.034444444,-0.401111111,0,0,0,,0,59,59,86,1,AIFED,LB,old,z,./images/AIFEDLB.png,,,,,,,,,,,,,,,,,,,,,
,,,,,,,,,,,,,,,,,198913,18,2022-01-28_17h54.52.765,lexical_decision_task_DD_L2,2021.2.3,MacIntel,58.82352941,,,,,,,,,,,0.647,1,,,,,,,,,,,,,,,m,1,0.647,,,,,,,,-0.034444444,-0.401111111,0,0,0,,0,60,60,25,1,WRIST,LB,old,m,./images/WRISTLB.png,,,,,,,,,,,,,,,,,,,,,
,,,,,,,,,,,,,,,,,198913,18,2022-01-28_17h54.52.765,lexical_decision_task_DD_L2,2021.2.3,MacIntel,58.82352941,,,,,,,,,,,0.677,1,,,,,,,,,,,,,,,z,1,0.677,,,,,,,,-0.034444444,-0.401111111,0,0,0,,0,61,61,120,1,RINED,C,old,z,./images/RINED.png,,,,,,,,,,,,,,,,,,,,,
,,,,,,,,,,,,,,,,,198913,18,2022-01-28_17h54.52.765,lexical_decision_task_DD_L2,2021.2.3,MacIntel,58.82352941,,,,,,,,,,,1.504,1,,,,,,,,,,,,,,,z,1,1.504,,,,,,,,-0.034444444,-0.401111111,0,0,0,,0,62,62,163,1,GAMBA,HB,old,z,./images/GAMBAHB.png,,,,,,,,,,,,,,,,,,,,,
,,,,,,,,,,,,,,,,,198913,18,2022-01-28_17h54.52.765,lexical_decision_task_DD_L2,2021.2.3,MacIntel,58.82352941,,,,,,,,,,,0.53,1,,,,,,,,,,,,,,,m,1,0.53,,,,,,,,-0.034444444,-0.401111111,0,0,0,,0,63,63,57,1,MOOSE,HB,old,m,./images/MOOSEHB.png,,,,,,,,,,,,,,,,,,,,,
,,,,,,,,,,,,,,,,,198913,18,2022-01-28_17h54.52.765,lexical_decision_task_DD_L2,2021.2.3,MacIntel,58.82352941,,,,,,,,,,,1.478,1,,,,,,,,,,,,,,,z,1,1.478,,,,,,,,-0.034444444,-0.401111111,0,0,0,,0,64,64,121,1,CEERS,HB,old,z,./images/CEERSHB.png,,,,,,,,,,,,,,,,,,,,,
,,,,,,,,,,,,,,,,,198913,18,2022-01-28_17h54.52.765,lexical_decision_task_DD_L2,2021.2.3,MacIntel,58.82352941,,,,,,,,,,,1.9,0,,,,,,,,,,,,,,,m,0,1.9,,,,,,,,-0.034444444,-0.401111111,0,0,0,,0,65,65,166,1,SHORY,HB,old,z,./images/SHORYHB.png,,,,,,,,,,,,,,,,,,,,,
,,,,,,,,,,,,,,,,,198913,18,2022-01-28_17h54.52.765,lexical_decision_task_DD_L2,2021.2.3,MacIntel,58.82352941,,,,,,,,,,,0.58,1,,,,,,,,,,,,,,,m,1,0.58,,,,,,,,-0.034444444,-0.401111111,0,0,0,,0,66,66,75,1,GRAIN,HB,old,m,./images/GRAINHB.png,,,,,,,,,,,,,,,,,,,,,
,,,,,,,,,,,,,,,,,198913,18,2022-01-28_17h54.52.765,lexical_decision_task_DD_L2,2021.2.3,MacIntel,58.82352941,,,,,,,,,,,0.786,0,,,,,,,,,,,,,,,m,0,0.786,,,,,,,,-0.034444444,-0.401111111,0,0,0,,0,67,67,159,1,CUDDY,C,old,z,./images/CUDDY.png,,,,,,,,,,,,,,,,,,,,,
,,,,,,,,,,,,,,,,,198913,18,2022-01-28_17h54.52.765,lexical_decision_task_DD_L2,2021.2.3,MacIntel,58.82352941,,,,,,,,,,,1.134,0,,,,,,,,,,,,,,,m,0,1.134,,,,,,,,-0.034444444,-0.401111111,0,0,0,,0,68,68,136,1,WERVE,HB,old,z,./images/WERVEHB.png,,,,,,,,,,,,,,,,,,,,,
,,,,,,,,,,,,,,,,,198913,18,2022-01-28_17h54.52.765,lexical_decision_task_DD_L2,2021.2.3,MacIntel,58.82352941,,,,,,,,,,,1.534,1,,,,,,,,,,,,,,,z,1,1.534,,,,,,,,-0.034444444,-0.401111111,0,0,0,,0,69,69,94,1,BLANS,HB,old,z,./images/BLANSHB.png,,,,,,,,,,,,,,,,,,,,,
,,,,,,,,,,,,,,,,,198913,18,2022-01-28_17h54.52.765,lexical_decision_task_DD_L2,2021.2.3,MacIntel,58.82352941,,,,,,,,,,,0.646,1,,,,,,,,,,,,,,,m,1,0.646,,,,,,,,-0.034444444,-0.401111111,0,0,0,,0,70,70,18,1,JAGUAR,HB,old,m,./images/JAGUARHB.png,,,,,,,,,,,,,,,,,,,,,
,,,,,,,,,,,,,,,,,198913,18,2022-01-28_17h54.52.765,lexical_decision_task_DD_L2,2021.2.3,MacIntel,58.82352941,,,,,,,,,,,0.614,1,,,,,,,,,,,,,,,m,1,0.614,,,,,,,,-0.034444444,-0.401111111,0,0,0,,0,71,71,9,1,RHINO,HB,old,m,./images/RHINOHB.png,,,,,,,,,,,,,,,,,,,,,
,,,,,,,,,,,,,,,,,198913,18,2022-01-28_17h54.52.765,lexical_decision_task_DD_L2,2021.2.3,MacIntel,58.82352941,,,,,,,,,,,0.781,0,,,,,,,,,,,,,,,m,0,0.781,,,,,,,,-0.034444444,-0.401111111,0,0,0,,0,72,72,111,1,HOSSE,C,old,z,./images/HOSSE.png,,,,,,,,,,,,,,,,,,,,,
,,,,,,,,,,,,,,,,,198913,18,2022-01-28_17h54.52.765,lexical_decision_task_DD_L2,2021.2.3,MacIntel,58.82352941,,,,,,,,,,,0.948,1,,,,,,,,,,,,,,,z,1,0.948,,,,,,,,-0.034444444,-0.401111111,0,0,0,,0,73,73,134,1,TROSS,LB,old,z,./images/TROSSLB.png,,,,,,,,,,,,,,,,,,,,,
,,,,,,,,,,,,,,,,,198913,18,2022-01-28_17h54.52.765,lexical_decision_task_DD_L2,2021.2.3,MacIntel,58.82352941,,,,,,,,,,,1.13,1,,,,,,,,,,,,,,,z,1,1.13,,,,,,,,-0.034444444,-0.401111111,0,0,0,,0,74,74,165,1,TROWN,C,old,z,./images/TROWN.png,,,,,,,,,,,,,,,,,,,,,
,,,,,,,,,,,,,,,,,198913,18,2022-01-28_17h54.52.765,lexical_decision_task_DD_L2,2021.2.3,MacIntel,58.82352941,,,,,,,,,,,1.793,0,,,,,,,,,,,,,,,z,0,1.793,,,,,,,,-0.034444444,-0.401111111,0,0,0,,0,75,75,33,1,MAGGOT,HB,old,m,./images/MAGGOTHB.png,,,,,,,,,,,,,,,,,,,,,
,,,,,,,,,,,,,,,,,198913,18,2022-01-28_17h54.52.765,lexical_decision_task_DD_L2,2021.2.3,MacIntel,58.82352941,,,,,,,,,,,0.866,1,,,,,,,,,,,,,,,m,1,0.866,,,,,,,,-0.034444444,-0.401111111,0,0,0,,0,76,76,34,1,CANYON,LB,old,m,./images/CANYONLB.png,,,,,,,,,,,,,,,,,,,,,
,,,,,,,,,,,,,,,,,198913,18,2022-01-28_17h54.52.765,lexical_decision_task_DD_L2,2021.2.3,MacIntel,58.82352941,,,,,,,,,,,0.862,1,,,,,,,,,,,,,,,z,1,0.862,,,,,,,,-0.034444444,-0.401111111,0,0,0,,0,77,77,133,1,POWDY,HB,old,z,./images/POWDYHB.png,,,,,,,,,,,,,,,,,,,,,
,,,,,,,,,,,,,,,,,198913,18,2022-01-28_17h54.52.765,lexical_decision_task_DD_L2,2021.2.3,MacIntel,58.82352941,,,,,,,,,,,0.583,1,,,,,,,,,,,,,,,m,1,0.583,,,,,,,,-0.034444444,-0.401111111,0,0,0,,0,78,78,20,1,CRADLE,C,old,m,./images/CRADLE.png,,,,,,,,,,,,,,,,,,,,,
,,,,,,,,,,,,,,,,,198913,18,2022-01-28_17h54.52.765,lexical_decision_task_DD_L2,2021.2.3,MacIntel,58.82352941,,,,,,,,,,,0.898,0,,,,,,,,,,,,,,,z,0,0.898,,,,,,,,-0.034444444,-0.401111111,0,0,0,,0,79,79,72,1,NOOSE,HB,old,m,./images/NOOSEHB.png,,,,,,,,,,,,,,,,,,,,,
,,,,,,,,,,,,,,,,,198913,18,2022-01-28_17h54.52.765,lexical_decision_task_DD_L2,2021.2.3,MacIntel,58.82352941,,,,,,,,,,,1.677,1,,,,,,,,,,,,,,,z,1,1.677,,,,,,,,-0.034444444,-0.401111111,0,0,0,,0,80,80,100,1,DRIBS,HB,old,z,./images/DRIBSHB.png,,,,,,,,,,,,,,,,,,,,,
,,,,,,,,,,,,,,,,,198913,18,2022-01-28_17h54.52.765,lexical_decision_task_DD_L2,2021.2.3,MacIntel,58.82352941,,,,,,,,,,,1.512,1,,,,,,,,,,,,,,,z,1,1.512,,,,,,,,-0.034444444,-0.401111111,0,0,0,,0,81,81,147,1,ZOLES,C,old,z,./images/ZOLES.png,,,,,,,,,,,,,,,,,,,,,
,,,,,,,,,,,,,,,,,198913,18,2022-01-28_17h54.52.765,lexical_decision_task_DD_L2,2021.2.3,MacIntel,58.82352941,,,,,,,,,,,0.752,1,,,,,,,,,,,,,,,m,1,0.752,,,,,,,,-0.034444444,-0.401111111,0,0,0,,0,82,82,2,1,BEARD,C,old,m,./images/BEARD.png,,,,,,,,,,,,,,,,,,,,,
,,,,,,,,,,,,,,,,,198913,18,2022-01-28_17h54.52.765,lexical_decision_task_DD_L2,2021.2.3,MacIntel,58.82352941,,,,,,,,,,,0.662,1,,,,,,,,,,,,,,,m,1,0.662,,,,,,,,-0.034444444,-0.401111111,0,0,0,space,0,83,83,45,1,KITTEN,HB,old,m,./images/KITTENHB.png,4.332,,,,,,,,,,,,,,,,,,,,
,,,,,,,,,,,,,,,,,198913,18,2022-01-28_17h54.52.765,lexical_decision_task_DD_L2,2021.2.3,MacIntel,58.82352941,,,,,,,,,,,0.53,1,,,,,,,,,,,,,,,m,1,0.53,,,,,,,,-0.034444444,-0.401111111,0,0,0,,0,84,84,68,1,TORCH,C,old,m,./images/TORCH.png,,,,,,,,,,,,,,,,,,,,,
,,,,,,,,,,,,,,,,,198913,18,2022-01-28_17h54.52.765,lexical_decision_task_DD_L2,2021.2.3,MacIntel,58.82352941,,,,,,,,,,,0.735,1,,,,,,,,,,,,,,,z,1,0.735,,,,,,,,-0.034444444,-0.401111111,0,0,0,,0,85,85,119,1,PAFER,LB,old,z,./images/PAFERLB.png,,,,,,,,,,,,,,,,,,,,,
,,,,,,,,,,,,,,,,,198913,18,2022-01-28_17h54.52.765,lexical_decision_task_DD_L2,2021.2.3,MacIntel,58.82352941,,,,,,,,,,,1.055,1,,,,,,,,,,,,,,,z,1,1.055,,,,,,,,-0.034444444,-0.401111111,0,0,0,,0,86,86,145,1,LAMEL,HB,old,z,./images/LAMELHB.png,,,,,,,,,,,,,,,,,,,,,
,,,,,,,,,,,,,,,,,198913,18,2022-01-28_17h54.52.765,lexical_decision_task_DD_L2,2021.2.3,MacIntel,58.82352941,,,,,,,,,,,0.52,1,,,,,,,,,,,,,,,m,1,0.52,,,,,,,,-0.034444444,-0.401111111,0,0,0,,0,87,87,7,1,PAINT,LB,old,m,./images/PAINTLB.png,,,,,,,,,,,,,,,,,,,,,
,,,,,,,,,,,,,,,,,198913,18,2022-01-28_17h54.52.765,lexical_decision_task_DD_L2,2021.2.3,MacIntel,58.82352941,,,,,,,,,,,0.682,1,,,,,,,,,,,,,,,m,1,0.682,,,,,,,,-0.034444444,-0.401111111,0,0,0,,0,88,88,36,1,THROAT,HB,old,m,./images/THROATHB.png,,,,,,,,,,,,,,,,,,,,,
,,,,,,,,,,,,,,,,,198913,18,2022-01-28_17h54.52.765,lexical_decision_task_DD_L2,2021.2.3,MacIntel,58.82352941,,,,,,,,,,,1.304,1,,,,,,,,,,,,,,,z,1,1.304,,,,,,,,-0.034444444,-0.401111111,0,0,0,,0,89,89,106,1,CLUMS,HB,old,z,./images/CLUMSHB.png,,,,,,,,,,,,,,,,,,,,,
,,,,,,,,,,,,,,,,,198913,18,2022-01-28_17h54.52.765,lexical_decision_task_DD_L2,2021.2.3,MacIntel,58.82352941,,,,,,,,,,,0.634,1,,,,,,,,,,,,,,,z,1,0.634,,,,,,,,-0.034444444,-0.401111111,0,0,0,,0,90,90,102,1,DULLE,C,old,z,./images/DULLE.png,,,,,,,,,,,,,,,,,,,,,
,,,,,,,,,,,,,,,,,198913,18,2022-01-28_17h54.52.765,lexical_decision_task_DD_L2,2021.2.3,MacIntel,58.82352941,,,,,,,,,,,0.765,1,,,,,,,,,,,,,,,m,1,0.765,,,,,,,,-0.034444444,-0.401111111,0,0,0,,0,91,91,1,1,PLANK,LB,old,m,./images/PLANKLB.png,,,,,,,,,,,,,,,,,,,,,
,,,,,,,,,,,,,,,,,198913,18,2022-01-28_17h54.52.765,lexical_decision_task_DD_L2,2021.2.3,MacIntel,58.82352941,,,,,,,,,,,0.863,1,,,,,,,,,,,,,,,z,1,0.863,,,,,,,,-0.034444444,-0.401111111,0,0,0,,0,92,92,101,1,GLEET,LB,old,z,./images/GLEETLB.png,,,,,,,,,,,,,,,,,,,,,
,,,,,,,,,,,,,,,,,198913,18,2022-01-28_17h54.52.765,lexical_decision_task_DD_L2,2021.2.3,MacIntel,58.82352941,,,,,,,,,,,0.504,1,,,,,,,,,,,,,,,m,1,0.504,,,,,,,,-0.034444444,-0.401111111,0,0,0,,0,93,93,35,1,PEACH,C,old,m,./images/PEACH.png,,,,,,,,,,,,,,,,,,,,,
,,,,,,,,,,,,,,,,,198913,18,2022-01-28_17h54.52.765,lexical_decision_task_DD_L2,2021.2.3,MacIntel,58.82352941,,,,,,,,,,,0.431,1,,,,,,,,,,,,,,,m,1,0.431,,,,,,,,-0.034444444,-0.401111111,0,0,0,,0,94,94,37,1,BIRTH,LB,old,m,./images/BIRTHLB.png,,,,,,,,,,,,,,,,,,,,,
,,,,,,,,,,,,,,,,,198913,18,2022-01-28_17h54.52.765,lexical_decision_task_DD_L2,2021.2.3,MacIntel,58.82352941,,,,,,,,,,,0.462,1,,,,,,,,,,,,,,,m,1,0.462,,,,,,,,-0.034444444,-0.401111111,0,0,0,,0,95,95,74,1,CEMENT,C,old,m,./images/CEMENT.png,,,,,,,,,,,,,,,,,,,,,
,,,,,,,,,,,,,,,,,198913,18,2022-01-28_17h54.52.765,lexical_decision_task_DD_L2,2021.2.3,MacIntel,58.82352941,,,,,,,,,,,1.479,1,,,,,,,,,,,,,,,m,1,1.479,,,,,,,,-0.034444444,-0.401111111,0,0,0,,0,96,96,43,1,MOSQUE,LB,old,m,./images/MOSQUELB.png,,,,,,,,,,,,,,,,,,,,,
,,,,,,,,,,,,,,,,,198913,18,2022-01-28_17h54.52.765,lexical_decision_task_DD_L2,2021.2.3,MacIntel,58.82352941,,,,,,,,,,,0.729,1,,,,,,,,,,,,,,,z,1,0.729,,,,,,,,-0.034444444,-0.401111111,0,0,0,,0,97,97,116,1,BALGY,LB,old,z,./images/BALGYLB.png,,,,,,,,,,,,,,,,,,,,,
,,,,,,,,,,,,,,,,,198913,18,2022-01-28_17h54.52.765,lexical_decision_task_DD_L2,2021.2.3,MacIntel,58.82352941,,,,,,,,,,,0.479,1,,,,,,,,,,,,,,,m,1,0.479,,,,,,,,-0.034444444,-0.401111111,0,0,0,,0,98,98,61,1,CANDLE,LB,old,m,./images/CANDLELB.png,,,,,,,,,,,,,,,,,,,,,
,,,,,,,,,,,,,,,,,198913,18,2022-01-28_17h54.52.765,lexical_decision_task_DD_L2,2021.2.3,MacIntel,58.82352941,,,,,,,,,,,0.588,1,,,,,,,,,,,,,,,m,1,0.588,,,,,,,,-0.034444444,-0.401111111,0,0,0,,0,99,99,8,1,TULIP,C,old,m,./images/TULIP.png,,,,,,,,,,,,,,,,,,,,,
,,,,,,,,,,,,,,,,,198913,18,2022-01-28_17h54.52.765,lexical_decision_task_DD_L2,2021.2.3,MacIntel,58.82352941,,,,,,,,,,,0.552,1,,,,,,,,,,,,,,,m,1,0.552,,,,,,,,-0.034444444,-0.401111111,0,0,0,,0,100,100,16,1,PENCE,LB,old,m,./images/PENCELB.png,,,,,,,,,,,,,,,,,,,,,
,,,,,,,,,,,,,,,,,198913,18,2022-01-28_17h54.52.765,lexical_decision_task_DD_L2,2021.2.3,MacIntel,58.82352941,,,,,,,,,,,0.816,1,,,,,,,,,,,,,,,z,1,0.816,,,,,,,,-0.034444444,-0.401111111,0,0,0,,0,101,101,150,1,NOOLS,C,old,z,./images/NOOLS.png,,,,,,,,,,,,,,,,,,,,,
,,,,,,,,,,,,,,,,,198913,18,2022-01-28_17h54.52.765,lexical_decision_task_DD_L2,2021.2.3,MacIntel,58.82352941,,,,,,,,,,,0.984,1,,,,,,,,,,,,,,,z,1,0.984,,,,,,,,-0.034444444,-0.401111111,0,0,0,,0,102,102,124,1,TUNCH,HB,old,z,./images/TUNCHHB.png,,,,,,,,,,,,,,,,,,,,,
,,,,,,,,,,,,,,,,,198913,18,2022-01-28_17h54.52.765,lexical_decision_task_DD_L2,2021.2.3,MacIntel,58.82352941,,,,,,,,,,,1.778,1,,,,,,,,,,,,,,,z,1,1.778,,,,,,,,-0.034444444,-0.401111111,0,0,0,,0,103,103,162,1,LEICH,C,old,z,./images/LEICH.png,,,,,,,,,,,,,,,,,,,,,
,,,,,,,,,,,,,,,,,198913,18,2022-01-28_17h54.52.765,lexical_decision_task_DD_L2,2021.2.3,MacIntel,58.82352941,,,,,,,,,,,0.615,1,,,,,,,,,,,,,,,m,1,0.615,,,,,,,,-0.034444444,-0.401111111,0,0,0,,0,104,104,55,1,MUFFIN,LB,old,m,./images/MUFFINLB.png,,,,,,,,,,,,,,,,,,,,,
,,,,,,,,,,,,,,,,,198913,18,2022-01-28_17h54.52.765,lexical_decision_task_DD_L2,2021.2.3,MacIntel,58.82352941,,,,,,,,,,,0.666,1,,,,,,,,,,,,,,,m,1,0.666,,,,,,,,-0.034444444,-0.401111111,0,0,0,,0,105,105,27,1,ATTIC,HB,old,m,./images/ATTICHB.png,,,,,,,,,,,,,,,,,,,,,
,,,,,,,,,,,,,,,,,198913,18,2022-01-28_17h54.52.765,lexical_decision_task_DD_L2,2021.2.3,MacIntel,58.82352941,,,,,,,,,,,0.666,1,,,,,,,,,,,,,,,z,1,0.666,,,,,,,,-0.034444444,-0.401111111,0,0,0,,0,106,106,155,1,CANGY,LB,old,z,./images/CANGYLB.png,,,,,,,,,,,,,,,,,,,,,
,,,,,,,,,,,,,,,,,198913,18,2022-01-28_17h54.52.765,lexical_decision_task_DD_L2,2021.2.3,MacIntel,58.82352941,,,,,,,,,,,0.564,1,,,,,,,,,,,,,,,m,1,0.564,,,,,,,,-0.034444444,-0.401111111,0,0,0,,0,107,107,44,1,LIZARD,C,old,m,./images/LIZARD.png,,,,,,,,,,,,,,,,,,,,,
,,,,,,,,,,,,,,,,,198913,18,2022-01-28_17h54.52.765,lexical_decision_task_DD_L2,2021.2.3,MacIntel,58.82352941,,,,,,,,,,,0.541,1,,,,,,,,,,,,,,,m,1,0.541,,,,,,,,-0.034444444,-0.401111111,0,0,0,,0,108,108,46,1,PEARL,LB,old,m,./images/PEARLLB.png,,,,,,,,,,,,,,,,,,,,,
,,,,,,,,,,,,,,,,,198913,18,2022-01-28_17h54.52.765,lexical_decision_task_DD_L2,2021.2.3,MacIntel,58.82352941,,,,,,,,,,,0.571,1,,,,,,,,,,,,,,,m,1,0.571,,,,,,,,-0.034444444,-0.401111111,0,0,0,,0,109,109,67,1,SAILOR,LB,old,m,./images/SAILORLB.png,,,,,,,,,,,,,,,,,,,,,
,,,,,,,,,,,,,,,,,198913,18,2022-01-28_17h54.52.765,lexical_decision_task_DD_L2,2021.2.3,MacIntel,58.82352941,,,,,,,,,,,0.59,1,,,,,,,,,,,,,,,m,1,0.59,,,,,,,,-0.034444444,-0.401111111,0,0,0,,0,110,110,29,1,CRUMB,C,old,m,./images/CRUMB.png,,,,,,,,,,,,,,,,,,,,,
,,,,,,,,,,,,,,,,,198913,18,2022-01-28_17h54.52.765,lexical_decision_task_DD_L2,2021.2.3,MacIntel,58.82352941,,,,,,,,,,,0.495,1,,,,,,,,,,,,,,,m,1,0.495,,,,,,,,-0.034444444,-0.401111111,0,0,0,,0,111,111,41,1,STRING,C,old,m,./images/STRING.png,,,,,,,,,,,,,,,,,,,,,
,,,,,,,,,,,,,,,,,198913,18,2022-01-28_17h54.52.765,lexical_decision_task_DD_L2,2021.2.3,MacIntel,58.82352941,,,,,,,,,,,0.674,1,,,,,,,,,,,,,,,z,1,0.674,,,,,,,,-0.034444444,-0.401111111,0,0,0,,0,112,112,92,1,PAIMS,LB,old,z,./images/PAIMSLB.png,,,,,,,,,,,,,,,,,,,,,
,,,,,,,,,,,,,,,,,198913,18,2022-01-28_17h54.52.765,lexical_decision_task_DD_L2,2021.2.3,MacIntel,58.82352941,,,,,,,,,,,1.053,1,,,,,,,,,,,,,,,z,1,1.053,,,,,,,,-0.034444444,-0.401111111,0,0,0,,0,113,113,127,1,NINDY,HB,old,z,./images/NINDYHB.png,,,,,,,,,,,,,,,,,,,,,
,,,,,,,,,,,,,,,,,198913,18,2022-01-28_17h54.52.765,lexical_decision_task_DD_L2,2021.2.3,MacIntel,58.82352941,,,,,,,,,,,0.514,1,,,,,,,,,,,,,,,m,1,0.514,,,,,,,,-0.034444444,-0.401111111,0,0,0,,0,114,114,40,1,SWING,LB,old,m,./images/SWINGLB.png,,,,,,,,,,,,,,,,,,,,,
,,,,,,,,,,,,,,,,,198913,18,2022-01-28_17h54.52.765,lexical_decision_task_DD_L2,2021.2.3,MacIntel,58.82352941,,,,,,,,,,,0.647,1,,,,,,,,,,,,,,,m,1,0.647,,,,,,,,-0.034444444,-0.401111111,0,0,0,,0,115,115,76,1,INFANT,LB,old,m,./images/INFANTLB.png,,,,,,,,,,,,,,,,,,,,,
,,,,,,,,,,,,,,,,,198913,18,2022-01-28_17h54.52.765,lexical_decision_task_DD_L2,2021.2.3,MacIntel,58.82352941,,,,,,,,,,,0.446,1,,,,,,,,,,,,,,,m,1,0.446,,,,,,,,-0.034444444,-0.401111111,0,0,0,,0,116,116,51,1,ONION,HB,old,m,./images/ONIONHB.png,,,,,,,,,,,,,,,,,,,,,
,,,,,,,,,,,,,,,,,198913,18,2022-01-28_17h54.52.765,lexical_decision_task_DD_L2,2021.2.3,MacIntel,58.82352941,,,,,,,,,,,0.479,0,,,,,,,,,,,,,,,m,0,0.479,,,,,,,,-0.034444444,-0.401111111,0,0,0,,0,117,117,132,1,SCIFF,C,old,z,./images/SCIFF.png,,,,,,,,,,,,,,,,,,,,,
,,,,,,,,,,,,,,,,,198913,18,2022-01-28_17h54.52.765,lexical_decision_task_DD_L2,2021.2.3,MacIntel,58.82352941,,,,,,,,,,,0.733,0,,,,,,,,,,,,,,,m,0,0.733,,,,,,,,-0.034444444,-0.401111111,0,0,0,,0,118,118,107,1,FASKS,LB,old,z,./images/FASKSLB.png,,,,,,,,,,,,,,,,,,,,,
,,,,,,,,,,,,,,,,,198913,18,2022-01-28_17h54.52.765,lexical_decision_task_DD_L2,2021.2.3,MacIntel,58.82352941,,,,,,,,,,,0.579,1,,,,,,,,,,,,,,,m,1,0.579,,,,,,,,-0.034444444,-0.401111111,0,0,0,,0,119,119,47,1,BERRY,C,old,m,./images/BERRY.png,,,,,,,,,,,,,,,,,,,,,
,,,,,,,,,,,,,,,,,198913,18,2022-01-28_17h54.52.765,lexical_decision_task_DD_L2,2021.2.3,MacIntel,58.82352941,,,,,,,,,,,0.675,1,,,,,,,,,,,,,,,z,1,0.675,,,,,,,,-0.034444444,-0.401111111,0,0,0,,0,120,120,161,1,BLAPS,LB,old,z,./images/BLAPSLB.png,,,,,,,,,,,,,,,,,,,,,
,,,,,,,,,,,,,,,,,198913,18,2022-01-28_17h54.52.765,lexical_decision_task_DD_L2,2021.2.3,MacIntel,58.82352941,,,,,,,,,,,1.533,1,,,,,,,,,,,,,,,z,1,1.533,,,,,,,,-0.034444444,-0.401111111,0,0,0,,0,121,121,157,1,INLER,HB,old,z,./images/INLERHB.png,,,,,,,,,,,,,,,,,,,,,
,,,,,,,,,,,,,,,,,198913,18,2022-01-28_17h54.52.765,lexical_decision_task_DD_L2,2021.2.3,MacIntel,58.82352941,,,,,,,,,,,0.744,1,,,,,,,,,,,,,,,m,1,0.744,,,,,,,,-0.034444444,-0.401111111,0,0,0,,0,122,122,78,1,LITTER,HB,old,m,./images/LITTERHB.png,,,,,,,,,,,,,,,,,,,,,
,,,,,,,,,,,,,,,,,198913,18,2022-01-28_17h54.52.765,lexical_decision_task_DD_L2,2021.2.3,MacIntel,58.82352941,,,,,,,,,,,0.571,0,,,,,,,,,,,,,,,m,0,0.571,,,,,,,,-0.034444444,-0.401111111,0,0,0,,0,123,123,87,1,TRING,C,old,z,./images/TRING.png,,,,,,,,,,,,,,,,,,,,,
,,,,,,,,,,,,,,,,,198913,18,2022-01-28_17h54.52.765,lexical_decision_task_DD_L2,2021.2.3,MacIntel,58.82352941,,,,,,,,,,,0.917,1,,,,,,,,,,,,,,,z,1,0.917,,,,,,,,-0.034444444,-0.401111111,0,0,0,,0,124,124,96,1,KEAMS,C,old,z,./images/KEAMS.png,,,,,,,,,,,,,,,,,,,,,
,,,,,,,,,,,,,,,,,198913,18,2022-01-28_17h54.52.765,lexical_decision_task_DD_L2,2021.2.3,MacIntel,58.82352941,,,,,,,,,,,1.596,1,,,,,,,,,,,,,,,m,1,1.596,,,,,,,,-0.034444444,-0.401111111,0,0,0,space,0,125,125,69,1,COOKER,HB,old,m,./images/COOKERHB.png,1.892,,,,,,,,,,,,,,,,,,,,
,,,,,,,,,,,,,,,,,198913,18,2022-01-28_17h54.52.765,lexical_decision_task_DD_L2,2021.2.3,MacIntel,58.82352941,,,,,,,,,,,0.606,1,,,,,,,,,,,,,,,m,1,0.606,,,,,,,,-0.034444444,-0.398888889,0,0,0,,0,126,126,60,1,TWINS,HB,old,m,./images/TWINSHB.png,,,,,,,,,,,,,,,,,,,,,
,,,,,,,,,,,,,,,,,198913,18,2022-01-28_17h54.52.765,lexical_decision_task_DD_L2,2021.2.3,MacIntel,58.82352941,,,,,,,,,,,0.627,1,,,,,,,,,,,,,,,m,1,0.627,,,,,,,,-0.034444444,-0.398888889,0,0,0,,0,127,127,15,1,GREASE,HB,old,m,./images/GREASEHB.png,,,,,,,,,,,,,,,,,,,,,
,,,,,,,,,,,,,,,,,198913,18,2022-01-28_17h54.52.765,lexical_decision_task_DD_L2,2021.2.3,MacIntel,58.82352941,,,,,,,,,,,0.446,1,,,,,,,,,,,,,,,m,1,0.446,,,,,,,,-0.034444444,-0.398888889,0,0,0,,0,128,128,26,1,SMOKER,C,old,m,./images/SMOKER.png,,,,,,,,,,,,,,,,,,,,,
,,,,,,,,,,,,,,,,,198913,18,2022-01-28_17h54.52.765,lexical_decision_task_DD_L2,2021.2.3,MacIntel,58.82352941,,,,,,,,,,,0.695,1,,,,,,,,,,,,,,,z,1,0.695,,,,,,,,-0.034444444,-0.398888889,0,0,0,,0,129,129,153,1,CLUPS,C,old,z,./images/CLUPS.png,,,,,,,,,,,,,,,,,,,,,
,,,,,,,,,,,,,,,,,198913,18,2022-01-28_17h54.52.765,lexical_decision_task_DD_L2,2021.2.3,MacIntel,58.82352941,,,,,,,,,,,0.619,1,,,,,,,,,,,,,,,m,1,0.619,,,,,,,,-0.034444444,-0.398888889,0,0,0,,0,130,130,30,1,STORM,HB,old,m,./images/STORMHB.png,,,,,,,,,,,,,,,,,,,,,
,,,,,,,,,,,,,,,,,198913,18,2022-01-28_17h54.52.765,lexical_decision_task_DD_L2,2021.2.3,MacIntel,58.82352941,,,,,,,,,,,0.625,1,,,,,,,,,,,,,,,m,1,0.625,,,,,,,,-0.034444444,-0.398888889,0,0,0,,0,131,131,48,1,SPORT,HB,old,m,./images/SPORTHB.png,,,,,,,,,,,,,,,,,,,,,
,,,,,,,,,,,,,,,,,198913,18,2022-01-28_17h54.52.765,lexical_decision_task_DD_L2,2021.2.3,MacIntel,58.82352941,,,,,,,,,,,0.835,0,,,,,,,,,,,,,,,m,0,0.835,,,,,,,,-0.034444444,-0.398888889,0,0,0,,0,132,132,167,1,ZONET,LB,old,z,./images/ZONETLB.png,,,,,,,,,,,,,,,,,,,,,
,,,,,,,,,,,,,,,,,198913,18,2022-01-28_17h54.52.765,lexical_decision_task_DD_L2,2021.2.3,MacIntel,58.82352941,,,,,,,,,,,0.582,1,,,,,,,,,,,,,,,z,1,0.582,,,,,,,,-0.034444444,-0.398888889,0,0,0,,0,133,133,156,1,HIXES,C,old,z,./images/HIXES.png,,,,,,,,,,,,,,,,,,,,,
,,,,,,,,,,,,,,,,,198913,18,2022-01-28_17h54.52.765,lexical_decision_task_DD_L2,2021.2.3,MacIntel,58.82352941,,,,,,,,,,,0.833,1,,,,,,,,,,,,,,,m,1,0.833,,,,,,,,-0.034444444,-0.398888889,0,0,0,,0,134,134,23,1,WALRUS,C,old,m,./images/WALRUS.png,,,,,,,,,,,,,,,,,,,,,
,,,,,,,,,,,,,,,,,198913,18,2022-01-28_17h54.52.765,lexical_decision_task_DD_L2,2021.2.3,MacIntel,58.82352941,,,,,,,,,,,1.104,1,,,,,,,,,,,,,,,z,1,1.104,,,,,,,,-0.034444444,-0.398888889,0,0,0,,0,135,135,139,1,BLEAR,HB,old,z,./images/BLEARHB.png,,,,,,,,,,,,,,,,,,,,,
,,,,,,,,,,,,,,,,,198913,18,2022-01-28_17h54.52.765,lexical_decision_task_DD_L2,2021.2.3,MacIntel,58.82352941,,,,,,,,,,,0.446,1,,,,,,,,,,,,,,,m,1,0.446,,,,,,,,-0.034444444,-0.398888889,0,0,0,,0,136,136,62,1,PURSE,C,old,m,./images/PURSE.png,,,,,,,,,,,,,,,,,,,,,
,,,,,,,,,,,,,,,,,198913,18,2022-01-28_17h54.52.765,lexical_decision_task_DD_L2,2021.2.3,MacIntel,58.82352941,,,,,,,,,,,0.642,1,,,,,,,,,,,,,,,z,1,0.642,,,,,,,,-0.034444444,-0.398888889,0,0,0,,0,137,137,137,1,JOOST,LB,old,z,./images/JOOSTLB.png,,,,,,,,,,,,,,,,,,,,,
,,,,,,,,,,,,,,,,,198913,18,2022-01-28_17h54.52.765,lexical_decision_task_DD_L2,2021.2.3,MacIntel,58.82352941,,,,,,,,,,,1.28,1,,,,,,,,,,,,,,,z,1,1.28,,,,,,,,-0.034444444,-0.398888889,0,0,0,,0,138,138,112,1,MYING,HB,old,z,./images/MYINGHB.png,,,,,,,,,,,,,,,,,,,,,
,,,,,,,,,,,,,,,,,198913,18,2022-01-28_17h54.52.765,lexical_decision_task_DD_L2,2021.2.3,MacIntel,58.82352941,,,,,,,,,,,1.129,1,,,,,,,,,,,,,,,z,1,1.129,,,,,,,,-0.034444444,-0.398888889,0,0,0,,0,139,139,154,1,THINT,HB,old,z,./images/THINTHB.png,,,,,,,,,,,,,,,,,,,,,
,,,,,,,,,,,,,,,,,198913,18,2022-01-28_17h54.52.765,lexical_decision_task_DD_L2,2021.2.3,MacIntel,58.82352941,,,,,,,,,,,0.668,1,,,,,,,,,,,,,,,m,1,0.668,,,,,,,,-0.034444444,-0.398888889,0,0,0,,0,140,140,21,1,KIDNEY,HB,old,m,./images/KIDNEYHB.png,,,,,,,,,,,,,,,,,,,,,
,,,,,,,,,,,,,,,,,198913,18,2022-01-28_17h54.52.765,lexical_decision_task_DD_L2,2021.2.3,MacIntel,58.82352941,,,,,,,,,,,0.829,1,,,,,,,,,,,,,,,z,1,0.829,,,,,,,,-0.034444444,-0.398888889,0,0,0,,0,141,141,123,1,SEDGE,C,old,z,./images/SEDGE.png,,,,,,,,,,,,,,,,,,,,,
,,,,,,,,,,,,,,,,,198913,18,2022-01-28_17h54.52.765,lexical_decision_task_DD_L2,2021.2.3,MacIntel,58.82352941,,,,,,,,,,,0.795,1,,,,,,,,,,,,,,,z,1,0.795,,,,,,,,-0.034444444,-0.398888889,0,0,0,,0,142,142,114,1,RIKES,C,old,z,./images/RIKES.png,,,,,,,,,,,,,,,,,,,,,
,,,,,,,,,,,,,,,,,198913,18,2022-01-28_17h54.52.765,lexical_decision_task_DD_L2,2021.2.3,MacIntel,58.82352941,,,,,,,,,,,1.034,1,,,,,,,,,,,,,,,z,1,1.034,,,,,,,,-0.034444444,-0.398888889,0,0,0,,0,143,143,118,1,BAVEL,HB,old,z,./images/BAVELHB.png,,,,,,,,,,,,,,,,,,,,,
,,,,,,,,,,,,,,,,,198913,18,2022-01-28_17h54.52.765,lexical_decision_task_DD_L2,2021.2.3,MacIntel,58.82352941,,,,,,,,,,,0.63,1,,,,,,,,,,,,,,,z,1,0.63,,,,,,,,-0.034444444,-0.398888889,0,0,0,,0,144,144,131,1,NACES,LB,old,z,./images/NACESLB.png,,,,,,,,,,,,,,,,,,,,,
,,,,,,,,,,,,,,,,,198913,18,2022-01-28_17h54.52.765,lexical_decision_task_DD_L2,2021.2.3,MacIntel,58.82352941,,,,,,,,,,,1.859,1,,,,,,,,,,,,,,,z,1,1.859,,,,,,,,-0.034444444,-0.398888889,0,0,0,,0,145,145,152,1,FRAIN,LB,old,z,./images/FRAINLB.png,,,,,,,,,,,,,,,,,,,,,
,,,,,,,,,,,,,,,,,198913,18,2022-01-28_17h54.52.765,lexical_decision_task_DD_L2,2021.2.3,MacIntel,58.82352941,,,,,,,,,,,0.531,1,,,,,,,,,,,,,,,m,1,0.531,,,,,,,,-0.034444444,-0.398888889,0,0,0,,0,146,146,49,1,DRUMS,LB,old,m,./images/DRUMSLB.png,,,,,,,,,,,,,,,,,,,,,
,,,,,,,,,,,,,,,,,198913,18,2022-01-28_17h54.52.765,lexical_decision_task_DD_L2,2021.2.3,MacIntel,58.82352941,,,,,,,,,,,0.562,1,,,,,,,,,,,,,,,m,1,0.562,,,,,,,,-0.034444444,-0.398888889,0,0,0,,0,147,147,39,1,SHELF,HB,old,m,./images/SHELFHB.png,,,,,,,,,,,,,,,,,,,,,
,,,,,,,,,,,,,,,,,198913,18,2022-01-28_17h54.52.765,lexical_decision_task_DD_L2,2021.2.3,MacIntel,58.82352941,,,,,,,,,,,0.547,1,,,,,,,,,,,,,,,m,1,0.547,,,,,,,,-0.034444444,-0.398888889,0,0,0,,0,148,148,63,1,MIRROR,HB,old,m,./images/MIRRORHB.png,,,,,,,,,,,,,,,,,,,,,
,,,,,,,,,,,,,,,,,198913,18,2022-01-28_17h54.52.765,lexical_decision_task_DD_L2,2021.2.3,MacIntel,58.82352941,,,,,,,,,,,0.389,1,,,,,,,,,,,,,,,m,1,0.389,,,,,,,,-0.034444444,-0.398888889,0,0,0,,0,149,149,70,1,URINE,LB,old,m,./images/URINELB.png,,,,,,,,,,,,,,,,,,,,,
,,,,,,,,,,,,,,,,,198913,18,2022-01-28_17h54.52.765,lexical_decision_task_DD_L2,2021.2.3,MacIntel,58.82352941,,,,,,,,,,,0.579,1,,,,,,,,,,,,,,,m,1,0.579,,,,,,,,-0.034444444,-0.398888889,0,0,0,,0,150,150,6,1,SQUARE,HB,old,m,./images/SQUAREHB.png,,,,,,,,,,,,,,,,,,,,,
,,,,,,,,,,,,,,,,,198913,18,2022-01-28_17h54.52.765,lexical_decision_task_DD_L2,2021.2.3,MacIntel,58.82352941,,,,,,,,,,,0.523,1,,,,,,,,,,,,,,,z,1,0.523,,,,,,,,-0.034444444,-0.398888889,0,0,0,,0,151,151,95,1,HANTY,LB,old,z,./images/HANTYLB.png,,,,,,,,,,,,,,,,,,,,,
,,,,,,,,,,,,,,,,,198913,18,2022-01-28_17h54.52.765,lexical_decision_task_DD_L2,2021.2.3,MacIntel,58.82352941,,,,,,,,,,,0.734,1,,,,,,,,,,,,,,,z,1,0.734,,,,,,,,-0.034444444,-0.398888889,0,0,0,,0,152,152,125,1,MOOKY,LB,old,z,./images/MOOKYLB.png,,,,,,,,,,,,,,,,,,,,,
,,,,,,,,,,,,,,,,,198913,18,2022-01-28_17h54.52.765,lexical_decision_task_DD_L2,2021.2.3,MacIntel,58.82352941,,,,,,,,,,,0.415,1,,,,,,,,,,,,,,,m,1,0.415,,,,,,,,-0.034444444,-0.398888889,0,0,0,,0,153,153,71,1,PIMPLE,C,old,m,./images/PIMPLE.png,,,,,,,,,,,,,,,,,,,,,
,,,,,,,,,,,,,,,,,198913,18,2022-01-28_17h54.52.765,lexical_decision_task_DD_L2,2021.2.3,MacIntel,58.82352941,,,,,,,,,,,0.512,1,,,,,,,,,,,,,,,m,1,0.512,,,,,,,,-0.034444444,-0.398888889,0,0,0,,0,154,154,64,1,JELLY,LB,old,m,./images/JELLYLB.png,,,,,,,,,,,,,,,,,,,,,
,,,,,,,,,,,,,,,,,198913,18,2022-01-28_17h54.52.765,lexical_decision_task_DD_L2,2021.2.3,MacIntel,58.82352941,,,,,,,,,,,0.637,1,,,,,,,,,,,,,,,m,1,0.637,,,,,,,,-0.034444444,-0.398888889,0,0,0,,0,155,155,58,1,BABOON,LB,old,m,./images/BABOONLB.png,,,,,,,,,,,,,,,,,,,,,
,,,,,,,,,,,,,,,,,198913,18,2022-01-28_17h54.52.765,lexical_decision_task_DD_L2,2021.2.3,MacIntel,58.82352941,,,,,,,,,,,0.543,1,,,,,,,,,,,,,,,m,1,0.543,,,,,,,,-0.034444444,-0.398888889,0,0,0,,0,156,156,24,1,SCREW,HB,old,m,./images/SCREWHB.png,,,,,,,,,,,,,,,,,,,,,
,,,,,,,,,,,,,,,,,198913,18,2022-01-28_17h54.52.765,lexical_decision_task_DD_L2,2021.2.3,MacIntel,58.82352941,,,,,,,,,,,1.221,1,,,,,,,,,,,,,,,z,1,1.221,,,,,,,,-0.034444444,-0.398888889,0,0,0,,0,157,157,84,1,HAXES,C,old,z,./images/HAXES.png,,,,,,,,,,,,,,,,,,,,,
,,,,,,,,,,,,,,,,,198913,18,2022-01-28_17h54.52.765,lexical_decision_task_DD_L2,2021.2.3,MacIntel,58.82352941,,,,,,,,,,,0.476,1,,,,,,,,,,,,,,,m,1,0.476,,,,,,,,-0.034444444,-0.398888889,0,0,0,,0,158,158,80,1,WEASEL,C,old,m,./images/WEASEL.png,,,,,,,,,,,,,,,,,,,,,
,,,,,,,,,,,,,,,,,198913,18,2022-01-28_17h54.52.765,lexical_decision_task_DD_L2,2021.2.3,MacIntel,58.82352941,,,,,,,,,,,0.622,1,,,,,,,,,,,,,,,z,1,0.622,,,,,,,,-0.034444444,-0.398888889,0,0,0,,0,159,159,144,1,NAIRY,C,old,z,./images/NAIRY.png,,,,,,,,,,,,,,,,,,,,,
,,,,,,,,,,,,,,,,,198913,18,2022-01-28_17h54.52.765,lexical_decision_task_DD_L2,2021.2.3,MacIntel,58.82352941,,,,,,,,,,,1.581,1,,,,,,,,,,,,,,,z,1,1.581,,,,,,,,-0.034444444,-0.398888889,0,0,0,,0,160,160,135,1,JOODY,C,old,z,./images/JOODY.png,,,,,,,,,,,,,,,,,,,,,
,,,,,,,,,,,,,,,,,198913,18,2022-01-28_17h54.52.765,lexical_decision_task_DD_L2,2021.2.3,MacIntel,58.82352941,,,,,,,,,,,0.677,1,,,,,,,,,,,,,,,m,1,0.677,,,,,,,,-0.034444444,-0.398888889,0,0,0,,0,161,161,0,1,TOMATO,HB,old,m,./images/TOMATOHB.png,,,,,,,,,,,,,,,,,,,,,
,,,,,,,,,,,,,,,,,198913,18,2022-01-28_17h54.52.765,lexical_decision_task_DD_L2,2021.2.3,MacIntel,58.82352941,,,,,,,,,,,0.928,1,,,,,,,,,,,,,,,z,1,0.928,,,,,,,,-0.034444444,-0.398888889,0,0,0,,0,162,162,117,1,STEEG,C,old,z,./images/STEEG.png,,,,,,,,,,,,,,,,,,,,,
,,,,,,,,,,,,,,,,,198913,18,2022-01-28_17h54.52.765,lexical_decision_task_DD_L2,2021.2.3,MacIntel,58.82352941,,,,,,,,,,,0.533,1,,,,,,,,,,,,,,,m,1,0.533,,,,,,,,-0.034444444,-0.398888889,0,0,0,,0,163,163,28,1,FALCON,LB,old,m,./images/FALCONLB.png,,,,,,,,,,,,,,,,,,,,,
,,,,,,,,,,,,,,,,,198913,18,2022-01-28_17h54.52.765,lexical_decision_task_DD_L2,2021.2.3,MacIntel,58.82352941,,,,,,,,,,,1.604,1,,,,,,,,,,,,,,,z,1,1.604,,,,,,,,-0.034444444,-0.398888889,0,0,0,,0,164,164,148,1,JOMS,HB,old,z,./images/JOMSHB.png,,,,,,,,,,,,,,,,,,,,,
,,,,,,,,,,,,,,,,,198913,18,2022-01-28_17h54.52.765,lexical_decision_task_DD_L2,2021.2.3,MacIntel,58.82352941,,,,,,,,,,,0.597,1,,,,,,,,,,,,,,,m,1,0.597,,,,,,,,-0.034444444,-0.398888889,0,0,0,,0,165,165,10,1,BELLY,LB,old,m,./images/BELLYLB.png,,,,,,,,,,,,,,,,,,,,,
,,,,,,,,,,,,,,,,,198913,18,2022-01-28_17h54.52.765,lexical_decision_task_DD_L2,2021.2.3,MacIntel,58.82352941,,,,,,,,,,,0.73,1,,,,,,,,,,,,,,,z,1,0.73,,,,,,,,-0.034444444,-0.398888889,0,0,0,,0,166,166,122,1,BLOOT,LB,old,z,./images/BLOOTLB.png,,,,,,,,,,,,,,,,,,,,,
,,,,,,,,,,,,,,,,,198913,18,2022-01-28_17h54.52.765,lexical_decision_task_DD_L2,2021.2.3,MacIntel,58.82352941,,,,,,,,,,,0.679,1,,,,,,,,,,,,,,,z,1,0.679,,,,,,,,-0.034444444,-0.398888889,0,0,0,,0,167,167,93,1,SMONE,C,old,z,./images/SMONE.png,,,,,,,,,,,,,,,,,,,,,
space,14.405,-0.034444444,-0.398888889,0,0,0,,,,,,1,test,"In the next phase you will be presented with the words from the the first phase. Your job is to decide whether you remember seeing the word or not. If you remember seeing the word press ""old"" or type ""m"". If you do not remember seeing the word press ""new"" or type ""z"". Please press the space bar or click on continue to begin. ",,,198913,18,2022-01-28_17h54.52.765,lexical_decision_task_DD_L2,2021.2.3,MacIntel,58.82352941,,,,,,,,,,,,,,,,,,,,,,,,,,,,,,,,,,,,,,,,,,,,,,,,,,,,,,0,0,0,0,1,,,,,,,,,,,,,,,
,,-0.034444444,-0.398888889,1,0,0,,,,,,1,test,"In the next phase you will be presented with the words from the the first phase. Your job is to decide whether you remember seeing the word or not. If you remember seeing the word press ""old"" or type ""m"". If you do not remember seeing the word press ""new"" or type ""z"". Please press the space bar or click on continue to begin. ",,,198913,18,2022-01-28_17h54.52.765,lexical_decision_task_DD_L2,2021.2.3,MacIntel,58.82352941,,,,,,,,,,,,,,,,,,,,,instr_done_button,,,,,,,,,,,,,,,,,,,,,,,,,,,,,,,,,1,0,1,0,1,,,,,,,,,,,,,,,
,,-0.034444444,-0.398888889,1,0,0,,,,,,1,test,"In the next phase you will be presented with the words from the the first phase. Your job is to decide whether you remember seeing the word or not. If you remember seeing the word press ""old"" or type ""m"". If you do not remember seeing the word press ""new"" or type ""z"". Please press the space bar or click on continue to begin. ",,,198913,18,2022-01-28_17h54.52.765,lexical_decision_task_DD_L2,2021.2.3,MacIntel,58.82352941,,,,,,,,,,,,,,,,,,,,,instr_done_button,,,,,,,,,,,,,,,,,,,,,,,,,,,,,,,,,2,0,2,0,1,,,,,,,,,,,,,,,
,,-0.003333333,-0.392222222,1,0,0,,,,,,1,test,"In the next phase you will be presented with the words from the the first phase. Your job is to decide whether you remember seeing the word or not. If you remember seeing the word press ""old"" or type ""m"". If you do not remember seeing the word press ""new"" or type ""z"". Please press the space bar or click on continue to begin. ",,,198913,18,2022-01-28_17h54.52.765,lexical_decision_task_DD_L2,2021.2.3,MacIntel,58.82352941,,,,,,,,,,,,,,,,,,,,,instr_done_button,,,,,,,,,,,,,,,,,,,,,,,,,,,,,,,,,3,0,3,0,1,,,,,,,,,,,,,,,
,,0.011111111,-0.397777778,1,0,0,,,,,,1,test,"In the next phase you will be presented with the words from the the first phase. Your job is to decide whether you remember seeing the word or not. If you remember seeing the word press ""old"" or type ""m"". If you do not remember seeing the word press ""new"" or type ""z"". Please press the space bar or click on continue to begin. ",,,198913,18,2022-01-28_17h54.52.765,lexical_decision_task_DD_L2,2021.2.3,MacIntel,58.82352941,,,,,,,,,,,,,,,,,,,,,instr_done_button,,,,,,,,,,,,,,,,,,,,,,,,,,,,,,,,,4,0,4,0,1,,,,,,,,,,,,,,,
,,,,,,,,,,,,,,,,,198913,18,2022-01-28_17h54.52.765,lexical_decision_task_DD_L2,2021.2.3,MacIntel,58.82352941,,,,,,,,,,,3.587,1,,,,,,,,,,,,,,,,,,,,,,,,,0.013333333,-0.398888889,0,0,0,,,,,,,BUTTER,HB,z,y,./images/BUTTERHB.png,,,,,,,z,1,3.587,,,,,,,,0,0,0,111,1
,,,,,,,,,,,,,,,,,198913,18,2022-01-28_17h54.52.765,lexical_decision_task_DD_L2,2021.2.3,MacIntel,58.82352941,,,,,,,,,,,1.309,1,,,,,,,,,,,,,,,,,,,,,,,,,0.013333333,-0.398888889,0,0,0,,,,,,,STREAM,C,z,y,./images/STREAM.png,,,,,,,z,1,1.309,,,,,,,,0,1,1,125,1
,,,,,,,,,,,,,,,,,198913,18,2022-01-28_17h54.52.765,lexical_decision_task_DD_L2,2021.2.3,MacIntel,58.82352941,,,,,,,,,,,1.094,1,,,,,,,,,,,,,,,,,,,,,,,,,0.013333333,-0.398888889,0,0,0,,,,,,,SAUNA,HB,z,y,./images/SAUNAHB.png,,,,,,,z,1,1.094,,,,,,,,0,2,2,117,1
,,,,,,,,,,,,,,,,,198913,18,2022-01-28_17h54.52.765,lexical_decision_task_DD_L2,2021.2.3,MacIntel,58.82352941,,,,,,,,,,,1.395,1,,,,,,,,,,,,,,,,,,,,,,,,,0.013333333,-0.398888889,0,0,0,,,,,,,RAZOR,LB,z,y,./images/RAZORLB.png,,,,,,,z,1,1.395,,,,,,,,0,3,3,118,1
,,,,,,,,,,,,,,,,,198913,18,2022-01-28_17h54.52.765,lexical_decision_task_DD_L2,2021.2.3,MacIntel,58.82352941,,,,,,,,,,,1.866,0,,,,,,,,,,,,,,,,,,,,,,,,,0.013333333,-0.398888889,0,0,0,,,,,,,BLOKE,HB,z,y,./images/BLOKEHB.png,,,,,,,m,0,1.866,,,,,,,,0,4,4,96,1
,,,,,,,,,,,,,,,,,198913,18,2022-01-28_17h54.52.765,lexical_decision_task_DD_L2,2021.2.3,MacIntel,58.82352941,,,,,,,,,,,0.861,0,,,,,,,,,,,,,,,,,,,,,,,,,0.013333333,-0.398888889,0,0,0,,,,,,,DESERT,LB,z,y,./images/DESERTLB.png,,,,,,,m,0,0.861,,,,,,,,0,5,5,136,1
,,,,,,,,,,,,,,,,,198913,18,2022-01-28_17h54.52.765,lexical_decision_task_DD_L2,2021.2.3,MacIntel,58.82352941,,,,,,,,,,,1.528,1,,,,,,,,,,,,,,,,,,,,,,,,,0.013333333,-0.398888889,0,0,0,,,,,,,CANOE,LB,z,y,./images/CANOELB.png,,,,,,,z,1,1.528,,,,,,,,0,6,6,142,1
,,,,,,,,,,,,,,,,,198913,18,2022-01-28_17h54.52.765,lexical_decision_task_DD_L2,2021.2.3,MacIntel,58.82352941,,,,,,,,,,,0.822,1,,,,,,,,,,,,,,,,,,,,,,,,,0.013333333,-0.398888889,0,0,0,,,,,,,PLANET,C,z,y,./images/PLANET.png,,,,,,,z,1,0.822,,,,,,,,0,7,7,164,1
,,,,,,,,,,,,,,,,,198913,18,2022-01-28_17h54.52.765,lexical_decision_task_DD_L2,2021.2.3,MacIntel,58.82352941,,,,,,,,,,,0.897,1,,,,,,,,,,,,,,,,,,,,,,,,,0.013333333,-0.398888889,0,0,0,,,,,,,DIVER,HB,z,y,./images/DIVERHB.png,,,,,,,z,1,0.897,,,,,,,,0,8,8,93,1
,,,,,,,,,,,,,,,,,198913,18,2022-01-28_17h54.52.765,lexical_decision_task_DD_L2,2021.2.3,MacIntel,58.82352941,,,,,,,,,,,0.579,1,,,,,,,,,,,,,,,,,,,,,,,,,0.013333333,-0.398888889,0,0,0,,,,,,,SQUARE,HB,m,y,./images/SQUAREHB.png,,,,,,,m,1,0.579,,,,,,,,0,9,9,6,1
,,,,,,,,,,,,,,,,,198913,18,2022-01-28_17h54.52.765,lexical_decision_task_DD_L2,2021.2.3,MacIntel,58.82352941,,,,,,,,,,,0.668,0,,,,,,,,,,,,,,,,,,,,,,,,,0.013333333,-0.398888889,0,0,0,,,,,,,BUBBLE,C,z,y,./images/BUBBLE.png,,,,,,,m,0,0.668,,,,,,,,0,10,10,155,1
,,,,,,,,,,,,,,,,,198913,18,2022-01-28_17h54.52.765,lexical_decision_task_DD_L2,2021.2.3,MacIntel,58.82352941,,,,,,,,,,,0.798,1,,,,,,,,,,,,,,,,,,,,,,,,,0.013333333,-0.398888889,0,0,0,,,,,,,TOWEL,LB,z,y,./images/TOWELLB.png,,,,,,,z,1,0.798,,,,,,,,0,11,11,85,1
,,,,,,,,,,,,,,,,,198913,18,2022-01-28_17h54.52.765,lexical_decision_task_DD_L2,2021.2.3,MacIntel,58.82352941,,,,,,,,,,,0.843,1,,,,,,,,,,,,,,,,,,,,,,,,,0.013333333,-0.398888889,0,0,0,,,,,,,INFANT,LB,m,y,./images/INFANTLB.png,,,,,,,m,1,0.843,,,,,,,,0,12,12,76,1
,,,,,,,,,,,,,,,,,198913,18,2022-01-28_17h54.52.765,lexical_decision_task_DD_L2,2021.2.3,MacIntel,58.82352941,,,,,,,,,,,0.762,1,,,,,,,,,,,,,,,,,,,,,,,,,0.013333333,-0.398888889,0,0,0,,,,,,,CHERRY,HB,z,y,./images/CHERRYHB.png,,,,,,,z,1,0.762,,,,,,,,0,13,13,138,1
,,,,,,,,,,,,,,,,,198913,18,2022-01-28_17h54.52.765,lexical_decision_task_DD_L2,2021.2.3,MacIntel,58.82352941,,,,,,,,,,,0.696,1,,,,,,,,,,,,,,,,,,,,,,,,,0.013333333,-0.398888889,0,0,0,,,,,,,BONNET,C,m,y,./images/BONNET.png,,,,,,,m,1,0.696,,,,,,,,0,14,14,11,1
,,,,,,,,,,,,,,,,,198913,18,2022-01-28_17h54.52.765,lexical_decision_task_DD_L2,2021.2.3,MacIntel,58.82352941,,,,,,,,,,,0.549,1,,,,,,,,,,,,,,,,,,,,,,,,,0.013333333,-0.398888889,0,0,0,,,,,,,JELLY,LB,m,y,./images/JELLYLB.png,,,,,,,m,1,0.549,,,,,,,,0,15,15,64,1
,,,,,,,,,,,,,,,,,198913,18,2022-01-28_17h54.52.765,lexical_decision_task_DD_L2,2021.2.3,MacIntel,58.82352941,,,,,,,,,,,2.333,1,,,,,,,,,,,,,,,,,,,,,,,,,0.013333333,-0.398888889,0,0,0,,,,,,,BURIAL,C,m,y,./images/BURIAL.png,,,,,,,m,1,2.333,,,,,,,,0,16,16,59,1
,,,,,,,,,,,,,,,,,198913,18,2022-01-28_17h54.52.765,lexical_decision_task_DD_L2,2021.2.3,MacIntel,58.82352941,,,,,,,,,,,2.673,1,,,,,,,,,,,,,,,,,,,,,,,,,0.013333333,-0.398888889,0,0,0,,,,,,,FOLDER,HB,m,y,./images/FOLDERHB.png,,,,,,,m,1,2.673,,,,,,,,0,17,17,42,1
,,,,,,,,,,,,,,,,,198913,18,2022-01-28_17h54.52.765,lexical_decision_task_DD_L2,2021.2.3,MacIntel,58.82352941,,,,,,,,,,,0.747,1,,,,,,,,,,,,,,,,,,,,,,,,,0.013333333,-0.398888889,0,0,0,,,,,,,BANANA,LB,z,y,./images/BANANALB.png,,,,,,,z,1,0.747,,,,,,,,0,18,18,154,1
,,,,,,,,,,,,,,,,,198913,18,2022-01-28_17h54.52.765,lexical_decision_task_DD_L2,2021.2.3,MacIntel,58.82352941,,,,,,,,,,,0.724,1,,,,,,,,,,,,,,,,,,,,,,,,,0.013333333,-0.398888889,0,0,0,,,,,,,SHIELD,HB,z,y,./images/SHIELDHB.png,,,,,,,z,1,0.724,,,,,,,,0,19,19,132,1
,,,,,,,,,,,,,,,,,198913,18,2022-01-28_17h54.52.765,lexical_decision_task_DD_L2,2021.2.3,MacIntel,58.82352941,,,,,,,,,,,0.957,1,,,,,,,,,,,,,,,,,,,,,,,,,0.013333333,-0.398888889,0,0,0,,,,,,,HEATER,C,z,y,./images/HEATER.png,,,,,,,z,1,0.957,,,,,,,,0,20,20,140,1
,,,,,,,,,,,,,,,,,198913,18,2022-01-28_17h54.52.765,lexical_decision_task_DD_L2,2021.2.3,MacIntel,58.82352941,,,,,,,,,,,0.7,1,,,,,,,,,,,,,,,,,,,,,,,,,0.013333333,-0.398888889,0,0,0,,,,,,,SPINE,C,z,y,./images/SPINE.png,,,,,,,z,1,0.7,,,,,,,,0,21,21,149,1
,,,,,,,,,,,,,,,,,198913,18,2022-01-28_17h54.52.765,lexical_decision_task_DD_L2,2021.2.3,MacIntel,58.82352941,,,,,,,,,,,0.646,1,,,,,,,,,,,,,,,,,,,,,,,,,0.013333333,-0.398888889,0,0,0,,,,,,,SCREW,HB,m,y,./images/SCREWHB.png,,,,,,,m,1,0.646,,,,,,,,0,22,22,24,1
,,,,,,,,,,,,,,,,,198913,18,2022-01-28_17h54.52.765,lexical_decision_task_DD_L2,2021.2.3,MacIntel,58.82352941,,,,,,,,,,,0.609,1,,,,,,,,,,,,,,,,,,,,,,,,,0.013333333,-0.398888889,0,0,0,,,,,,,LITTER,HB,m,y,./images/LITTERHB.png,,,,,,,m,1,0.609,,,,,,,,0,23,23,78,1
,,,,,,,,,,,,,,,,,198913,18,2022-01-28_17h54.52.765,lexical_decision_task_DD_L2,2021.2.3,MacIntel,58.82352941,,,,,,,,,,,0.615,1,,,,,,,,,,,,,,,,,,,,,,,,,0.013333333,-0.398888889,0,0,0,,,,,,,SAILOR,LB,m,y,./images/SAILORLB.png,,,,,,,m,1,0.615,,,,,,,,0,24,24,67,1
,,,,,,,,,,,,,,,,,198913,18,2022-01-28_17h54.52.765,lexical_decision_task_DD_L2,2021.2.3,MacIntel,58.82352941,,,,,,,,,,,0.676,0,,,,,,,,,,,,,,,,,,,,,,,,,0.013333333,-0.398888889,0,0,0,,,,,,,PACKET,C,m,y,./images/PACKET.png,,,,,,,z,0,0.676,,,,,,,,0,25,25,56,1
,,,,,,,,,,,,,,,,,198913,18,2022-01-28_17h54.52.765,lexical_decision_task_DD_L2,2021.2.3,MacIntel,58.82352941,,,,,,,,,,,0.631,1,,,,,,,,,,,,,,,,,,,,,,,,,0.013333333,-0.398888889,0,0,0,,,,,,,BELLY,LB,m,y,./images/BELLYLB.png,,,,,,,m,1,0.631,,,,,,,,0,26,26,10,1
,,,,,,,,,,,,,,,,,198913,18,2022-01-28_17h54.52.765,lexical_decision_task_DD_L2,2021.2.3,MacIntel,58.82352941,,,,,,,,,,,0.76,1,,,,,,,,,,,,,,,,,,,,,,,,,0.013333333,-0.398888889,0,0,0,,,,,,,JUMPER,C,z,y,./images/JUMPER.png,,,,,,,z,1,0.76,,,,,,,,0,27,27,158,1
,,,,,,,,,,,,,,,,,198913,18,2022-01-28_17h54.52.765,lexical_decision_task_DD_L2,2021.2.3,MacIntel,58.82352941,,,,,,,,,,,0.861,1,,,,,,,,,,,,,,,,,,,,,,,,,0.013333333,-0.398888889,0,0,0,,,,,,,BERRY,C,m,y,./images/BERRY.png,,,,,,,m,1,0.861,,,,,,,,0,28,28,47,1
,,,,,,,,,,,,,,,,,198913,18,2022-01-28_17h54.52.765,lexical_decision_task_DD_L2,2021.2.3,MacIntel,58.82352941,,,,,,,,,,,0.747,1,,,,,,,,,,,,,,,,,,,,,,,,,0.013333333,-0.398888889,0,0,0,,,,,,,BROOM,HB,z,y,./images/BROOMHB.png,,,,,,,z,1,0.747,,,,,,,,0,29,29,162,1
,,,,,,,,,,,,,,,,,198913,18,2022-01-28_17h54.52.765,lexical_decision_task_DD_L2,2021.2.3,MacIntel,58.82352941,,,,,,,,,,,0.741,1,,,,,,,,,,,,,,,,,,,,,,,,,0.013333333,-0.398888889,0,0,0,,,,,,,PEBBLE,LB,z,y,./images/PEBBLELB.png,,,,,,,z,1,0.741,,,,,,,,0,30,30,166,1
,,,,,,,,,,,,,,,,,198913,18,2022-01-28_17h54.52.765,lexical_decision_task_DD_L2,2021.2.3,MacIntel,58.82352941,,,,,,,,,,,0.842,1,,,,,,,,,,,,,,,,,,,,,,,,,0.013333333,-0.398888889,0,0,0,,,,,,,POKER,LB,z,y,./images/POKERLB.png,,,,,,,z,1,0.842,,,,,,,,0,31,31,151,1
,,,,,,,,,,,,,,,,,198913,18,2022-01-28_17h54.52.765,lexical_decision_task_DD_L2,2021.2.3,MacIntel,58.82352941,,,,,,,,,,,0.696,1,,,,,,,,,,,,,,,,,,,,,,,,,0.013333333,-0.398888889,0,0,0,,,,,,,CLIFF,C,z,y,./images/CLIFF.png,,,,,,,z,1,0.696,,,,,,,,0,32,32,92,1
,,,,,,,,,,,,,,,,,198913,18,2022-01-28_17h54.52.765,lexical_decision_task_DD_L2,2021.2.3,MacIntel,58.82352941,,,,,,,,,,,1.175,1,,,,,,,,,,,,,,,,,,,,,,,,,0.013333333,-0.398888889,0,0,0,,,,,,,WRIST,LB,m,y,./images/WRISTLB.png,,,,,,,m,1,1.175,,,,,,,,0,33,33,25,1
,,,,,,,,,,,,,,,,,198913,18,2022-01-28_17h54.52.765,lexical_decision_task_DD_L2,2021.2.3,MacIntel,58.82352941,,,,,,,,,,,0.611,0,,,,,,,,,,,,,,,,,,,,,,,,,0.013333333,-0.398888889,0,0,0,,,,,,,CANDY,HB,z,y,./images/CANDYHB.png,,,,,,,m,0,0.611,,,,,,,,0,34,34,123,1
,,,,,,,,,,,,,,,,,198913,18,2022-01-28_17h54.52.765,lexical_decision_task_DD_L2,2021.2.3,MacIntel,58.82352941,,,,,,,,,,,0.676,1,,,,,,,,,,,,,,,,,,,,,,,,,0.013333333,-0.398888889,0,0,0,,,,,,,BRUSH,C,z,y,./images/BRUSH.png,,,,,,,z,1,0.676,,,,,,,,0,35,35,143,1
,,,,,,,,,,,,,,,,,198913,18,2022-01-28_17h54.52.765,lexical_decision_task_DD_L2,2021.2.3,MacIntel,58.82352941,,,,,,,,,,,0.891,0,,,,,,,,,,,,,,,,,,,,,,,,,0.013333333,-0.398888889,0,0,0,,,,,,,GREASE,HB,m,y,./images/GREASEHB.png,,,,,,,z,0,0.891,,,,,,,,0,36,36,15,1
,,,,,,,,,,,,,,,,,198913,18,2022-01-28_17h54.52.765,lexical_decision_task_DD_L2,2021.2.3,MacIntel,58.82352941,,,,,,,,,,,0.644,1,,,,,,,,,,,,,,,,,,,,,,,,,0.013333333,-0.398888889,0,0,0,,,,,,,JAGUAR,HB,m,y,./images/JAGUARHB.png,,,,,,,m,1,0.644,,,,,,,,0,37,37,18,1
,,,,,,,,,,,,,,,,,198913,18,2022-01-28_17h54.52.765,lexical_decision_task_DD_L2,2021.2.3,MacIntel,58.82352941,,,,,,,,,,,0.701,1,,,,,,,,,,,,,,,,,,,,,,,,,0.013333333,-0.398888889,0,0,0,,,,,,,BISHOP,LB,z,y,./images/BISHOPLB.png,,,,,,,z,1,0.701,,,,,,,,0,38,38,133,1
,,,,,,,,,,,,,,,,,198913,18,2022-01-28_17h54.52.765,lexical_decision_task_DD_L2,2021.2.3,MacIntel,58.82352941,,,,,,,,,,,0.663,1,,,,,,,,,,,,,,,,,,,,,,,,,0.013333333,-0.398888889,0,0,0,,,,,,,ATTIC,HB,m,y,./images/ATTICHB.png,,,,,,,m,1,0.663,,,,,,,,0,39,39,27,1
,,,,,,,,,,,,,,,,,198913,18,2022-01-28_17h54.52.765,lexical_decision_task_DD_L2,2021.2.3,MacIntel,58.82352941,,,,,,,,,,,0.961,1,,,,,,,,,,,,,,,,,,,,,,,,,0.013333333,-0.398888889,0,0,0,,,,,,,COUCH,C,m,y,./images/COUCH.png,,,,,,,m,1,0.961,,,,,,,,0,40,40,77,1
,,,,,,,,,,,,,,,,,198913,18,2022-01-28_17h54.52.765,lexical_decision_task_DD_L2,2021.2.3,MacIntel,58.82352941,,,,,,,,,,,1.057,1,,,,,,,,,,,,,,,,,,,,,,,,,0.013333333,-0.398888889,0,0,0,space,,,,,,STOOL,LB,z,y,./images/STOOLLB.png,2.735,,,,,,z,1,1.057,,,,,,,,0,41,41,127,1
,,,,,,,,,,,,,,,,,198913,18,2022-01-28_17h54.52.765,lexical_decision_task_DD_L2,2021.2.3,MacIntel,58.82352941,,,,,,,,,,,0.556,0,,,,,,,,,,,,,,,,,,,,,,,,,0.013333333,-0.398888889,0,0,0,,,,,,,STAIN,HB,z,y,./images/STAINHB.png,,,,,,,m,0,0.556,,,,,,,,0,42,42,90,1
,,,,,,,,,,,,,,,,,198913,18,2022-01-28_17h54.52.765,lexical_decision_task_DD_L2,2021.2.3,MacIntel,58.82352941,,,,,,,,,,,0.527,1,,,,,,,,,,,,,,,,,,,,,,,,,0.013333333,-0.398888889,0,0,0,,,,,,,STRING,C,m,y,./images/STRING.png,,,,,,,m,1,0.527,,,,,,,,0,43,43,41,1
,,,,,,,,,,,,,,,,,198913,18,2022-01-28_17h54.52.765,lexical_decision_task_DD_L2,2021.2.3,MacIntel,58.82352941,,,,,,,,,,,4.167,1,,,,,,,,,,,,,,,,,,,,,,,,,0.013333333,-0.398888889,0,0,0,,,,,,,FLESH,HB,z,y,./images/FLESHHB.png,,,,,,,z,1,4.167,,,,,,,,0,44,44,108,1
,,,,,,,,,,,,,,,,,198913,18,2022-01-28_17h54.52.765,lexical_decision_task_DD_L2,2021.2.3,MacIntel,58.82352941,,,,,,,,,,,0.828,1,,,,,,,,,,,,,,,,,,,,,,,,,0.013333333,-0.398888889,0,0,0,,,,,,,BEARD,C,m,y,./images/BEARD.png,,,,,,,m,1,0.828,,,,,,,,0,45,45,2,1
,,,,,,,,,,,,,,,,,198913,18,2022-01-28_17h54.52.765,lexical_decision_task_DD_L2,2021.2.3,MacIntel,58.82352941,,,,,,,,,,,1.127,1,,,,,,,,,,,,,,,,,,,,,,,,,0.013333333,-0.398888889,0,0,0,,,,,,,SWING,LB,m,y,./images/SWINGLB.png,,,,,,,m,1,1.127,,,,,,,,0,46,46,40,1
,,,,,,,,,,,,,,,,,198913,18,2022-01-28_17h54.52.765,lexical_decision_task_DD_L2,2021.2.3,MacIntel,58.82352941,,,,,,,,,,,0.644,0,,,,,,,,,,,,,,,,,,,,,,,,,0.013333333,-0.398888889,0,0,0,,,,,,,PISTOL,C,z,y,./images/PISTOL.png,,,,,,,m,0,0.644,,,,,,,,0,47,47,113,1
,,,,,,,,,,,,,,,,,198913,18,2022-01-28_17h54.52.765,lexical_decision_task_DD_L2,2021.2.3,MacIntel,58.82352941,,,,,,,,,,,0.618,0,,,,,,,,,,,,,,,,,,,,,,,,,0.013333333,-0.398888889,0,0,0,,,,,,,WALNUT,HB,z,y,./images/WALNUTHB.png,,,,,,,m,0,0.618,,,,,,,,0,48,48,84,1
,,,,,,,,,,,,,,,,,198913,18,2022-01-28_17h54.52.765,lexical_decision_task_DD_L2,2021.2.3,MacIntel,58.82352941,,,,,,,,,,,0.728,1,,,,,,,,,,,,,,,,,,,,,,,,,0.013333333,-0.398888889,0,0,0,,,,,,,MELON,LB,m,y,./images/MELONLB.png,,,,,,,m,1,0.728,,,,,,,,0,49,49,22,1
,,,,,,,,,,,,,,,,,198913,18,2022-01-28_17h54.52.765,lexical_decision_task_DD_L2,2021.2.3,MacIntel,58.82352941,,,,,,,,,,,0.712,1,,,,,,,,,,,,,,,,,,,,,,,,,0.013333333,-0.398888889,0,0,0,,,,,,,PURSE,C,m,y,./images/PURSE.png,,,,,,,m,1,0.712,,,,,,,,0,50,50,62,1
,,,,,,,,,,,,,,,,,198913,18,2022-01-28_17h54.52.765,lexical_decision_task_DD_L2,2021.2.3,MacIntel,58.82352941,,,,,,,,,,,0.874,1,,,,,,,,,,,,,,,,,,,,,,,,,0.013333333,-0.398888889,0,0,0,,,,,,,FLASK,HB,z,y,./images/FLASKHB.png,,,,,,,z,1,0.874,,,,,,,,0,51,51,156,1
,,,,,,,,,,,,,,,,,198913,18,2022-01-28_17h54.52.765,lexical_decision_task_DD_L2,2021.2.3,MacIntel,58.82352941,,,,,,,,,,,1.198,0,,,,,,,,,,,,,,,,,,,,,,,,,0.013333333,-0.398888889,0,0,0,,,,,,,BASKET,C,z,y,./images/BASKET.png,,,,,,,m,0,1.198,,,,,,,,0,52,52,128,1
,,,,,,,,,,,,,,,,,198913,18,2022-01-28_17h54.52.765,lexical_decision_task_DD_L2,2021.2.3,MacIntel,58.82352941,,,,,,,,,,,1.039,0,,,,,,,,,,,,,,,,,,,,,,,,,0.013333333,-0.398888889,0,0,0,,,,,,,CRADLE,C,m,y,./images/CRADLE.png,,,,,,,z,0,1.039,,,,,,,,0,53,53,20,1
,,,,,,,,,,,,,,,,,198913,18,2022-01-28_17h54.52.765,lexical_decision_task_DD_L2,2021.2.3,MacIntel,58.82352941,,,,,,,,,,,0.662,1,,,,,,,,,,,,,,,,,,,,,,,,,0.013333333,-0.398888889,0,0,0,,,,,,,MEDAL,C,z,y,./images/MEDAL.png,,,,,,,z,1,0.662,,,,,,,,0,54,54,95,1
,,,,,,,,,,,,,,,,,198913,18,2022-01-28_17h54.52.765,lexical_decision_task_DD_L2,2021.2.3,MacIntel,58.82352941,,,,,,,,,,,0.736,1,,,,,,,,,,,,,,,,,,,,,,,,,0.013333333,-0.398888889,0,0,0,,,,,,,MONKEY,HB,z,y,./images/MONKEYHB.png,,,,,,,z,1,0.736,,,,,,,,0,55,55,129,1
,,,,,,,,,,,,,,,,,198913,18,2022-01-28_17h54.52.765,lexical_decision_task_DD_L2,2021.2.3,MacIntel,58.82352941,,,,,,,,,,,1.134,1,,,,,,,,,,,,,,,,,,,,,,,,,0.013333333,-0.398888889,0,0,0,,,,,,,PARCEL,HB,z,y,./images/PARCELHB.png,,,,,,,z,1,1.134,,,,,,,,0,56,56,102,1
,,,,,,,,,,,,,,,,,198913,18,2022-01-28_17h54.52.765,lexical_decision_task_DD_L2,2021.2.3,MacIntel,58.82352941,,,,,,,,,,,0.6,0,,,,,,,,,,,,,,,,,,,,,,,,,0.013333333,-0.398888889,0,0,0,,,,,,,BANNER,LB,m,y,./images/BANNERLB.png,,,,,,,z,0,0.6,,,,,,,,0,57,57,52,1
,,,,,,,,,,,,,,,,,198913,18,2022-01-28_17h54.52.765,lexical_decision_task_DD_L2,2021.2.3,MacIntel,58.82352941,,,,,,,,,,,0.796,1,,,,,,,,,,,,,,,,,,,,,,,,,0.013333333,-0.398888889,0,0,0,,,,,,,MOSQUE,LB,m,y,./images/MOSQUELB.png,,,,,,,m,1,0.796,,,,,,,,0,58,58,43,1
,,,,,,,,,,,,,,,,,198913,18,2022-01-28_17h54.52.765,lexical_decision_task_DD_L2,2021.2.3,MacIntel,58.82352941,,,,,,,,,,,0.697,1,,,,,,,,,,,,,,,,,,,,,,,,,0.013333333,-0.398888889,0,0,0,,,,,,,CANYON,LB,m,y,./images/CANYONLB.png,,,,,,,m,1,0.697,,,,,,,,0,59,59,34,1
,,,,,,,,,,,,,,,,,198913,18,2022-01-28_17h54.52.765,lexical_decision_task_DD_L2,2021.2.3,MacIntel,58.82352941,,,,,,,,,,,1.229,0,,,,,,,,,,,,,,,,,,,,,,,,,0.013333333,-0.398888889,0,0,0,,,,,,,GRANNY,C,z,y,./images/GRANNY.png,,,,,,,m,0,1.229,,,,,,,,0,60,60,104,1
,,,,,,,,,,,,,,,,,198913,18,2022-01-28_17h54.52.765,lexical_decision_task_DD_L2,2021.2.3,MacIntel,58.82352941,,,,,,,,,,,0.649,1,,,,,,,,,,,,,,,,,,,,,,,,,0.013333333,-0.398888889,0,0,0,,,,,,,GRAIN,HB,m,y,./images/GRAINHB.png,,,,,,,m,1,0.649,,,,,,,,0,61,61,75,1
,,,,,,,,,,,,,,,,,198913,18,2022-01-28_17h54.52.765,lexical_decision_task_DD_L2,2021.2.3,MacIntel,58.82352941,,,,,,,,,,,0.843,1,,,,,,,,,,,,,,,,,,,,,,,,,0.013333333,-0.398888889,0,0,0,,,,,,,FALCON,LB,m,y,./images/FALCONLB.png,,,,,,,m,1,0.843,,,,,,,,0,62,62,28,1
,,,,,,,,,,,,,,,,,198913,18,2022-01-28_17h54.52.765,lexical_decision_task_DD_L2,2021.2.3,MacIntel,58.82352941,,,,,,,,,,,0.734,1,,,,,,,,,,,,,,,,,,,,,,,,,0.013333333,-0.398888889,0,0,0,,,,,,,SAUCE,HB,z,y,./images/SAUCEHB.png,,,,,,,z,1,0.734,,,,,,,,0,63,63,135,1
,,,,,,,,,,,,,,,,,198913,18,2022-01-28_17h54.52.765,lexical_decision_task_DD_L2,2021.2.3,MacIntel,58.82352941,,,,,,,,,,,0.812,1,,,,,,,,,,,,,,,,,,,,,,,,,0.013333333,-0.398888889,0,0,0,,,,,,,FERRY,HB,z,y,./images/FERRYHB.png,,,,,,,z,1,0.812,,,,,,,,0,64,64,141,1
,,,,,,,,,,,,,,,,,198913,18,2022-01-28_17h54.52.765,lexical_decision_task_DD_L2,2021.2.3,MacIntel,58.82352941,,,,,,,,,,,0.599,0,,,,,,,,,,,,,,,,,,,,,,,,,0.013333333,-0.398888889,0,0,0,,,,,,,WHEEL,C,z,y,./images/WHEEL.png,,,,,,,m,0,0.599,,,,,,,,0,65,65,161,1
,,,,,,,,,,,,,,,,,198913,18,2022-01-28_17h54.52.765,lexical_decision_task_DD_L2,2021.2.3,MacIntel,58.82352941,,,,,,,,,,,0.928,0,,,,,,,,,,,,,,,,,,,,,,,,,0.013333333,-0.398888889,0,0,0,,,,,,,PEACH,C,m,y,./images/PEACH.png,,,,,,,z,0,0.928,,,,,,,,0,66,66,35,1
,,,,,,,,,,,,,,,,,198913,18,2022-01-28_17h54.52.765,lexical_decision_task_DD_L2,2021.2.3,MacIntel,58.82352941,,,,,,,,,,,0.855,1,,,,,,,,,,,,,,,,,,,,,,,,,0.013333333,-0.398888889,0,0,0,,,,,,,VALLEY,C,z,y,./images/VALLEY.png,,,,,,,z,1,0.855,,,,,,,,0,67,67,152,1
,,,,,,,,,,,,,,,,,198913,18,2022-01-28_17h54.52.765,lexical_decision_task_DD_L2,2021.2.3,MacIntel,58.82352941,,,,,,,,,,,0.898,0,,,,,,,,,,,,,,,,,,,,,,,,,0.013333333,-0.398888889,0,0,0,,,,,,,POODLE,HB,m,y,./images/POODLEHB.png,,,,,,,z,0,0.898,,,,,,,,0,68,68,81,1
,,,,,,,,,,,,,,,,,198913,18,2022-01-28_17h54.52.765,lexical_decision_task_DD_L2,2021.2.3,MacIntel,58.82352941,,,,,,,,,,,0.694,1,,,,,,,,,,,,,,,,,,,,,,,,,0.013333333,-0.398888889,0,0,0,,,,,,,SKIING,C,m,y,./images/SKIING.png,,,,,,,m,1,0.694,,,,,,,,0,69,69,17,1
,,,,,,,,,,,,,,,,,198913,18,2022-01-28_17h54.52.765,lexical_decision_task_DD_L2,2021.2.3,MacIntel,58.82352941,,,,,,,,,,,0.831,1,,,,,,,,,,,,,,,,,,,,,,,,,0.013333333,-0.398888889,0,0,0,,,,,,,MIDGET,LB,z,y,./images/MIDGETLB.png,,,,,,,z,1,0.831,,,,,,,,0,70,70,160,1
,,,,,,,,,,,,,,,,,198913,18,2022-01-28_17h54.52.765,lexical_decision_task_DD_L2,2021.2.3,MacIntel,58.82352941,,,,,,,,,,,1.041,1,,,,,,,,,,,,,,,,,,,,,,,,,0.013333333,-0.398888889,0,0,0,,,,,,,WALRUS,C,m,y,./images/WALRUS.png,,,,,,,m,1,1.041,,,,,,,,0,71,71,23,1
,,,,,,,,,,,,,,,,,198913,18,2022-01-28_17h54.52.765,lexical_decision_task_DD_L2,2021.2.3,MacIntel,58.82352941,,,,,,,,,,,1.662,1,,,,,,,,,,,,,,,,,,,,,,,,,0.013333333,-0.398888889,0,0,0,,,,,,,SHORE,HB,m,y,./images/SHOREHB.png,,,,,,,m,1,1.662,,,,,,,,0,72,72,12,1
,,,,,,,,,,,,,,,,,198913,18,2022-01-28_17h54.52.765,lexical_decision_task_DD_L2,2021.2.3,MacIntel,58.82352941,,,,,,,,,,,0.752,0,,,,,,,,,,,,,,,,,,,,,,,,,0.013333333,-0.398888889,0,0,0,,,,,,,PICKLE,C,m,y,./images/PICKLE.png,,,,,,,z,0,0.752,,,,,,,,0,73,73,14,1
,,,,,,,,,,,,,,,,,198913,18,2022-01-28_17h54.52.765,lexical_decision_task_DD_L2,2021.2.3,MacIntel,58.82352941,,,,,,,,,,,0.913,0,,,,,,,,,,,,,,,,,,,,,,,,,0.013333333,-0.398888889,0,0,0,,,,,,,MOOSE,HB,m,y,./images/MOOSEHB.png,,,,,,,z,0,0.913,,,,,,,,0,74,74,57,1
,,,,,,,,,,,,,,,,,198913,18,2022-01-28_17h54.52.765,lexical_decision_task_DD_L2,2021.2.3,MacIntel,58.82352941,,,,,,,,,,,0.996,1,,,,,,,,,,,,,,,,,,,,,,,,,0.013333333,-0.398888889,0,0,0,,,,,,,CEMENT,C,m,y,./images/CEMENT.png,,,,,,,m,1,0.996,,,,,,,,0,75,75,74,1
,,,,,,,,,,,,,,,,,198913,18,2022-01-28_17h54.52.765,lexical_decision_task_DD_L2,2021.2.3,MacIntel,58.82352941,,,,,,,,,,,0.75,1,,,,,,,,,,,,,,,,,,,,,,,,,0.013333333,-0.398888889,0,0,0,,,,,,,GARDEN,LB,z,y,./images/GARDENLB.png,,,,,,,z,1,0.75,,,,,,,,0,76,76,94,1
,,,,,,,,,,,,,,,,,198913,18,2022-01-28_17h54.52.765,lexical_decision_task_DD_L2,2021.2.3,MacIntel,58.82352941,,,,,,,,,,,0.724,1,,,,,,,,,,,,,,,,,,,,,,,,,0.013333333,-0.398888889,0,0,0,,,,,,,WHISKY,C,z,y,./images/WHISKY.png,,,,,,,z,1,0.724,,,,,,,,0,77,77,167,1
,,,,,,,,,,,,,,,,,198913,18,2022-01-28_17h54.52.765,lexical_decision_task_DD_L2,2021.2.3,MacIntel,58.82352941,,,,,,,,,,,0.507,0,,,,,,,,,,,,,,,,,,,,,,,,,0.013333333,-0.398888889,0,0,0,,,,,,,SUNSET,LB,m,y,./images/SUNSETLB.png,,,,,,,z,0,0.507,,,,,,,,0,78,78,82,1
,,,,,,,,,,,,,,,,,198913,18,2022-01-28_17h54.52.765,lexical_decision_task_DD_L2,2021.2.3,MacIntel,58.82352941,,,,,,,,,,,0.597,1,,,,,,,,,,,,,,,,,,,,,,,,,0.013333333,-0.398888889,0,0,0,,,,,,,DONKEY,LB,z,y,./images/DONKEYLB.png,,,,,,,z,1,0.597,,,,,,,,0,79,79,103,1
,,,,,,,,,,,,,,,,,198913,18,2022-01-28_17h54.52.765,lexical_decision_task_DD_L2,2021.2.3,MacIntel,58.82352941,,,,,,,,,,,0.821,1,,,,,,,,,,,,,,,,,,,,,,,,,0.013333333,-0.398888889,0,0,0,,,,,,,RULER,LB,z,y,./images/RULERLB.png,,,,,,,z,1,0.821,,,,,,,,0,80,80,163,1
,,,,,,,,,,,,,,,,,198913,18,2022-01-28_17h54.52.765,lexical_decision_task_DD_L2,2021.2.3,MacIntel,58.82352941,,,,,,,,,,,1.198,1,,,,,,,,,,,,,,,,,,,,,,,,,0.013333333,-0.398888889,0,0,0,,,,,,,MUMMY,LB,z,y,./images/MUMMYLB.png,,,,,,,z,1,1.198,,,,,,,,0,81,81,130,1
,,,,,,,,,,,,,,,,,198913,18,2022-01-28_17h54.52.765,lexical_decision_task_DD_L2,2021.2.3,MacIntel,58.82352941,,,,,,,,,,,0.98,1,,,,,,,,,,,,,,,,,,,,,,,,,0.013333333,-0.398888889,0,0,0,,,,,,,PIMPLE,C,m,y,./images/PIMPLE.png,,,,,,,m,1,0.98,,,,,,,,0,82,82,71,1
,,,,,,,,,,,,,,,,,198913,18,2022-01-28_17h54.52.765,lexical_decision_task_DD_L2,2021.2.3,MacIntel,58.82352941,,,,,,,,,,,1.12,1,,,,,,,,,,,,,,,,,,,,,,,,,0.013333333,-0.398888889,0,0,0,space,,,,,,KITTEN,HB,m,y,./images/KITTENHB.png,1.258,,,,,,m,1,1.12,,,,,,,,0,83,83,45,1
,,,,,,,,,,,,,,,,,198913,18,2022-01-28_17h54.52.765,lexical_decision_task_DD_L2,2021.2.3,MacIntel,58.82352941,,,,,,,,,,,0.761,0,,,,,,,,,,,,,,,,,,,,,,,,,0.013333333,-0.398888889,0,0,0,,,,,,,CHAIN,HB,z,y,./images/CHAINHB.png,,,,,,,m,0,0.761,,,,,,,,0,84,84,126,1
,,,,,,,,,,,,,,,,,198913,18,2022-01-28_17h54.52.765,lexical_decision_task_DD_L2,2021.2.3,MacIntel,58.82352941,,,,,,,,,,,2.168,1,,,,,,,,,,,,,,,,,,,,,,,,,0.013333333,-0.398888889,0,0,0,,,,,,,MAGGOT,HB,m,y,./images/MAGGOTHB.png,,,,,,,m,1,2.168,,,,,,,,0,85,85,33,1
,,,,,,,,,,,,,,,,,198913,18,2022-01-28_17h54.52.765,lexical_decision_task_DD_L2,2021.2.3,MacIntel,58.82352941,,,,,,,,,,,1.264,0,,,,,,,,,,,,,,,,,,,,,,,,,0.013333333,-0.398888889,0,0,0,,,,,,,ARROW,HB,z,y,./images/ARROWHB.png,,,,,,,m,0,1.264,,,,,,,,0,86,86,153,1
,,,,,,,,,,,,,,,,,198913,18,2022-01-28_17h54.52.765,lexical_decision_task_DD_L2,2021.2.3,MacIntel,58.82352941,,,,,,,,,,,1.024,0,,,,,,,,,,,,,,,,,,,,,,,,,0.013333333,-0.398888889,0,0,0,,,,,,,FARMER,C,m,y,./images/FARMER.png,,,,,,,z,0,1.024,,,,,,,,0,87,87,65,1
,,,,,,,,,,,,,,,,,198913,18,2022-01-28_17h54.52.765,lexical_decision_task_DD_L2,2021.2.3,MacIntel,58.82352941,,,,,,,,,,,0.948,1,,,,,,,,,,,,,,,,,,,,,,,,,0.013333333,-0.398888889,0,0,0,,,,,,,COOKER,HB,m,y,./images/COOKERHB.png,,,,,,,m,1,0.948,,,,,,,,0,88,88,69,1
,,,,,,,,,,,,,,,,,198913,18,2022-01-28_17h54.52.765,lexical_decision_task_DD_L2,2021.2.3,MacIntel,58.82352941,,,,,,,,,,,0.759,0,,,,,,,,,,,,,,,,,,,,,,,,,0.013333333,-0.398888889,0,0,0,,,,,,,LIZARD,C,m,y,./images/LIZARD.png,,,,,,,z,0,0.759,,,,,,,,0,89,89,44,1
,,,,,,,,,,,,,,,,,198913,18,2022-01-28_17h54.52.765,lexical_decision_task_DD_L2,2021.2.3,MacIntel,58.82352941,,,,,,,,,,,0.74,0,,,,,,,,,,,,,,,,,,,,,,,,,0.013333333,-0.398888889,0,0,0,,,,,,,SMOKER,C,m,y,./images/SMOKER.png,,,,,,,z,0,0.74,,,,,,,,0,90,90,26,1
,,,,,,,,,,,,,,,,,198913,18,2022-01-28_17h54.52.765,lexical_decision_task_DD_L2,2021.2.3,MacIntel,58.82352941,,,,,,,,,,,0.901,1,,,,,,,,,,,,,,,,,,,,,,,,,0.013333333,-0.398888889,0,0,0,,,,,,,URINE,LB,m,y,./images/URINELB.png,,,,,,,m,1,0.901,,,,,,,,0,91,91,70,1
,,,,,,,,,,,,,,,,,198913,18,2022-01-28_17h54.52.765,lexical_decision_task_DD_L2,2021.2.3,MacIntel,58.82352941,,,,,,,,,,,1.026,1,,,,,,,,,,,,,,,,,,,,,,,,,0.013333333,-0.398888889,0,0,0,,,,,,,SNACK,LB,m,y,./images/SNACKLB.png,,,,,,,m,1,1.026,,,,,,,,0,92,92,73,1
,,,,,,,,,,,,,,,,,198913,18,2022-01-28_17h54.52.765,lexical_decision_task_DD_L2,2021.2.3,MacIntel,58.82352941,,,,,,,,,,,0.712,1,,,,,,,,,,,,,,,,,,,,,,,,,0.013333333,-0.398888889,0,0,0,,,,,,,PASTA,C,m,y,./images/PASTA.png,,,,,,,m,1,0.712,,,,,,,,0,93,93,5,1
,,,,,,,,,,,,,,,,,198913,18,2022-01-28_17h54.52.765,lexical_decision_task_DD_L2,2021.2.3,MacIntel,58.82352941,,,,,,,,,,,0.683,1,,,,,,,,,,,,,,,,,,,,,,,,,0.013333333,-0.398888889,0,0,0,,,,,,,SLOPE,HB,z,y,./images/SLOPEHB.png,,,,,,,z,1,0.683,,,,,,,,0,94,94,114,1
,,,,,,,,,,,,,,,,,198913,18,2022-01-28_17h54.52.765,lexical_decision_task_DD_L2,2021.2.3,MacIntel,58.82352941,,,,,,,,,,,1.061,0,,,,,,,,,,,,,,,,,,,,,,,,,0.013333333,-0.398888889,0,0,0,,,,,,,HAMMER,HB,z,y,./images/HAMMERHB.png,,,,,,,m,0,1.061,,,,,,,,0,95,95,159,1
,,,,,,,,,,,,,,,,,198913,18,2022-01-28_17h54.52.765,lexical_decision_task_DD_L2,2021.2.3,MacIntel,58.82352941,,,,,,,,,,,0.836,1,,,,,,,,,,,,,,,,,,,,,,,,,0.013333333,-0.398888889,0,0,0,,,,,,,GLOVE,LB,z,y,./images/GLOVELB.png,,,,,,,z,1,0.836,,,,,,,,0,96,96,157,1
,,,,,,,,,,,,,,,,,198913,18,2022-01-28_17h54.52.765,lexical_decision_task_DD_L2,2021.2.3,MacIntel,58.82352941,,,,,,,,,,,0.831,0,,,,,,,,,,,,,,,,,,,,,,,,,0.013333333,-0.398888889,0,0,0,,,,,,,CRUST,LB,m,y,./images/CRUSTLB.png,,,,,,,z,0,0.831,,,,,,,,0,97,97,79,1
,,,,,,,,,,,,,,,,,198913,18,2022-01-28_17h54.52.765,lexical_decision_task_DD_L2,2021.2.3,MacIntel,58.82352941,,,,,,,,,,,0.894,1,,,,,,,,,,,,,,,,,,,,,,,,,0.013333333,-0.398888889,0,0,0,,,,,,,ARTIST,LB,z,y,./images/ARTISTLB.png,,,,,,,z,1,0.894,,,,,,,,0,98,98,145,1
,,,,,,,,,,,,,,,,,198913,18,2022-01-28_17h54.52.765,lexical_decision_task_DD_L2,2021.2.3,MacIntel,58.82352941,,,,,,,,,,,0.767,1,,,,,,,,,,,,,,,,,,,,,,,,,0.013333333,-0.398888889,0,0,0,,,,,,,POSTER,C,z,y,./images/POSTER.png,,,,,,,z,1,0.767,,,,,,,,0,99,99,137,1
,,,,,,,,,,,,,,,,,198913,18,2022-01-28_17h54.52.765,lexical_decision_task_DD_L2,2021.2.3,MacIntel,58.82352941,,,,,,,,,,,1.736,1,,,,,,,,,,,,,,,,,,,,,,,,,0.013333333,-0.398888889,0,0,0,,,,,,,CANDLE,LB,m,y,./images/CANDLELB.png,,,,,,,m,1,1.736,,,,,,,,0,100,100,61,1
,,,,,,,,,,,,,,,,,198913,18,2022-01-28_17h54.52.765,lexical_decision_task_DD_L2,2021.2.3,MacIntel,58.82352941,,,,,,,,,,,1.657,1,,,,,,,,,,,,,,,,,,,,,,,,,0.013333333,-0.398888889,0,0,0,,,,,,,ALLEY,LB,z,y,./images/ALLEYLB.png,,,,,,,z,1,1.657,,,,,,,,0,101,101,139,1
,,,,,,,,,,,,,,,,,198913,18,2022-01-28_17h54.52.765,lexical_decision_task_DD_L2,2021.2.3,MacIntel,58.82352941,,,,,,,,,,,0.824,1,,,,,,,,,,,,,,,,,,,,,,,,,0.013333333,-0.398888889,0,0,0,,,,,,,TRIPOD,HB,m,y,./images/TRIPODHB.png,,,,,,,m,1,0.824,,,,,,,,0,102,102,54,1
,,,,,,,,,,,,,,,,,198913,18,2022-01-28_17h54.52.765,lexical_decision_task_DD_L2,2021.2.3,MacIntel,58.82352941,,,,,,,,,,,0.882,1,,,,,,,,,,,,,,,,,,,,,,,,,0.013333333,-0.398888889,0,0,0,,,,,,,STOVE,C,z,y,./images/STOVE.png,,,,,,,z,1,0.882,,,,,,,,0,103,103,86,1
,,,,,,,,,,,,,,,,,198913,18,2022-01-28_17h54.52.765,lexical_decision_task_DD_L2,2021.2.3,MacIntel,58.82352941,,,,,,,,,,,1.03,1,,,,,,,,,,,,,,,,,,,,,,,,,0.013333333,-0.398888889,0,0,0,,,,,,,FINGER,HB,m,y,./images/FINGERHB.png,,,,,,,m,1,1.03,,,,,,,,0,104,104,3,1
,,,,,,,,,,,,,,,,,198913,18,2022-01-28_17h54.52.765,lexical_decision_task_DD_L2,2021.2.3,MacIntel,58.82352941,,,,,,,,,,,0.799,1,,,,,,,,,,,,,,,,,,,,,,,,,0.013333333,-0.398888889,0,0,0,,,,,,,BARREL,C,m,y,./images/BARREL.png,,,,,,,m,1,0.799,,,,,,,,0,105,105,32,1
,,,,,,,,,,,,,,,,,198913,18,2022-01-28_17h54.52.765,lexical_decision_task_DD_L2,2021.2.3,MacIntel,58.82352941,,,,,,,,,,,0.71,0,,,,,,,,,,,,,,,,,,,,,,,,,0.013333333,-0.398888889,0,0,0,,,,,,,MOTOR,LB,m,y,./images/MOTORLB.png,,,,,,,z,0,0.71,,,,,,,,0,106,106,13,1
,,,,,,,,,,,,,,,,,198913,18,2022-01-28_17h54.52.765,lexical_decision_task_DD_L2,2021.2.3,MacIntel,58.82352941,,,,,,,,,,,0.663,1,,,,,,,,,,,,,,,,,,,,,,,,,0.013333333,-0.398888889,0,0,0,,,,,,,MIRROR,HB,m,y,./images/MIRRORHB.png,,,,,,,m,1,0.663,,,,,,,,0,107,107,63,1
,,,,,,,,,,,,,,,,,198913,18,2022-01-28_17h54.52.765,lexical_decision_task_DD_L2,2021.2.3,MacIntel,58.82352941,,,,,,,,,,,0.701,0,,,,,,,,,,,,,,,,,,,,,,,,,0.013333333,-0.398888889,0,0,0,,,,,,,SWEAT,HB,m,y,./images/SWEATHB.png,,,,,,,z,0,0.701,,,,,,,,0,108,108,66,1
,,,,,,,,,,,,,,,,,198913,18,2022-01-28_17h54.52.765,lexical_decision_task_DD_L2,2021.2.3,MacIntel,58.82352941,,,,,,,,,,,0.919,1,,,,,,,,,,,,,,,,,,,,,,,,,0.013333333,-0.398888889,0,0,0,,,,,,,CLOTH,C,z,y,./images/CLOTH.png,,,,,,,z,1,0.919,,,,,,,,0,109,109,107,1
,,,,,,,,,,,,,,,,,198913,18,2022-01-28_17h54.52.765,lexical_decision_task_DD_L2,2021.2.3,MacIntel,58.82352941,,,,,,,,,,,0.945,1,,,,,,,,,,,,,,,,,,,,,,,,,0.013333333,-0.398888889,0,0,0,,,,,,,NOOSE,HB,m,y,./images/NOOSEHB.png,,,,,,,m,1,0.945,,,,,,,,0,110,110,72,1
,,,,,,,,,,,,,,,,,198913,18,2022-01-28_17h54.52.765,lexical_decision_task_DD_L2,2021.2.3,MacIntel,58.82352941,,,,,,,,,,,0.78,1,,,,,,,,,,,,,,,,,,,,,,,,,0.013333333,-0.398888889,0,0,0,,,,,,,QUILL,LB,m,y,./images/QUILLLB.png,,,,,,,m,1,0.78,,,,,,,,0,111,111,31,1
,,,,,,,,,,,,,,,,,198913,18,2022-01-28_17h54.52.765,lexical_decision_task_DD_L2,2021.2.3,MacIntel,58.82352941,,,,,,,,,,,0.588,1,,,,,,,,,,,,,,,,,,,,,,,,,0.013333333,-0.398888889,0,0,0,,,,,,,THROAT,HB,m,y,./images/THROATHB.png,,,,,,,m,1,0.588,,,,,,,,0,112,112,36,1
,,,,,,,,,,,,,,,,,198913,18,2022-01-28_17h54.52.765,lexical_decision_task_DD_L2,2021.2.3,MacIntel,58.82352941,,,,,,,,,,,0.912,0,,,,,,,,,,,,,,,,,,,,,,,,,0.013333333,-0.398888889,0,0,0,,,,,,,ENGINE,C,z,y,./images/ENGINE.png,,,,,,,m,0,0.912,,,,,,,,0,113,113,122,1
,,,,,,,,,,,,,,,,,198913,18,2022-01-28_17h54.52.765,lexical_decision_task_DD_L2,2021.2.3,MacIntel,58.82352941,,,,,,,,,,,0.942,1,,,,,,,,,,,,,,,,,,,,,,,,,0.013333333,-0.398888889,0,0,0,,,,,,,LAGOON,C,z,y,./images/LAGOON.png,,,,,,,z,1,0.942,,,,,,,,0,114,114,131,1
,,,,,,,,,,,,,,,,,198913,18,2022-01-28_17h54.52.765,lexical_decision_task_DD_L2,2021.2.3,MacIntel,58.82352941,,,,,,,,,,,0.899,1,,,,,,,,,,,,,,,,,,,,,,,,,0.013333333,-0.398888889,0,0,0,,,,,,,MAMMAL,C,z,y,./images/MAMMAL.png,,,,,,,z,1,0.899,,,,,,,,0,115,115,146,1
,,,,,,,,,,,,,,,,,198913,18,2022-01-28_17h54.52.765,lexical_decision_task_DD_L2,2021.2.3,MacIntel,58.82352941,,,,,,,,,,,0.842,1,,,,,,,,,,,,,,,,,,,,,,,,,0.013333333,-0.398888889,0,0,0,,,,,,,TIGER,LB,z,y,./images/TIGERLB.png,,,,,,,z,1,0.842,,,,,,,,0,116,116,121,1
,,,,,,,,,,,,,,,,,198913,18,2022-01-28_17h54.52.765,lexical_decision_task_DD_L2,2021.2.3,MacIntel,58.82352941,,,,,,,,,,,0.764,1,,,,,,,,,,,,,,,,,,,,,,,,,0.013333333,-0.398888889,0,0,0,,,,,,,CHALK,LB,z,y,./images/CHALKLB.png,,,,,,,z,1,0.764,,,,,,,,0,117,117,109,1
,,,,,,,,,,,,,,,,,198913,18,2022-01-28_17h54.52.765,lexical_decision_task_DD_L2,2021.2.3,MacIntel,58.82352941,,,,,,,,,,,0.642,1,,,,,,,,,,,,,,,,,,,,,,,,,0.013333333,-0.398888889,0,0,0,,,,,,,DANCER,HB,z,y,./images/DANCERHB.png,,,,,,,z,1,0.642,,,,,,,,0,118,118,105,1
,,,,,,,,,,,,,,,,,198913,18,2022-01-28_17h54.52.765,lexical_decision_task_DD_L2,2021.2.3,MacIntel,58.82352941,,,,,,,,,,,0.612,0,,,,,,,,,,,,,,,,,,,,,,,,,0.013333333,-0.398888889,0,0,0,,,,,,,TORCH,C,m,y,./images/TORCH.png,,,,,,,z,0,0.612,,,,,,,,0,119,119,68,1
,,,,,,,,,,,,,,,,,198913,18,2022-01-28_17h54.52.765,lexical_decision_task_DD_L2,2021.2.3,MacIntel,58.82352941,,,,,,,,,,,1.129,1,,,,,,,,,,,,,,,,,,,,,,,,,0.013333333,-0.398888889,0,0,0,,,,,,,TULIP,C,m,y,./images/TULIP.png,,,,,,,m,1,1.129,,,,,,,,0,120,120,8,1
,,,,,,,,,,,,,,,,,198913,18,2022-01-28_17h54.52.765,lexical_decision_task_DD_L2,2021.2.3,MacIntel,58.82352941,,,,,,,,,,,1.06,1,,,,,,,,,,,,,,,,,,,,,,,,,0.013333333,-0.398888889,0,0,0,,,,,,,BAMBOO,C,z,y,./images/BAMBOO.png,,,,,,,z,1,1.06,,,,,,,,0,121,121,89,1
,,,,,,,,,,,,,,,,,198913,18,2022-01-28_17h54.52.765,lexical_decision_task_DD_L2,2021.2.3,MacIntel,58.82352941,,,,,,,,,,,1.064,0,,,,,,,,,,,,,,,,,,,,,,,,,0.013333333,-0.398888889,0,0,0,,,,,,,PILOT,C,z,y,./images/PILOT.png,,,,,,,m,0,1.064,,,,,,,,0,122,122,134,1
,,,,,,,,,,,,,,,,,198913,18,2022-01-28_17h54.52.765,lexical_decision_task_DD_L2,2021.2.3,MacIntel,58.82352941,,,,,,,,,,,1.045,1,,,,,,,,,,,,,,,,,,,,,,,,,0.013333333,-0.398888889,0,0,0,,,,,,,GRAPE,LB,z,y,./images/GRAPELB.png,,,,,,,z,1,1.045,,,,,,,,0,123,123,100,1
,,,,,,,,,,,,,,,,,198913,18,2022-01-28_17h54.52.765,lexical_decision_task_DD_L2,2021.2.3,MacIntel,58.82352941,,,,,,,,,,,0.605,1,,,,,,,,,,,,,,,,,,,,,,,,,0.013333333,-0.398888889,0,0,0,,,,,,,STORM,HB,m,y,./images/STORMHB.png,,,,,,,m,1,0.605,,,,,,,,0,124,124,30,1
,,,,,,,,,,,,,,,,,198913,18,2022-01-28_17h54.52.765,lexical_decision_task_DD_L2,2021.2.3,MacIntel,58.82352941,,,,,,,,,,,0.576,1,,,,,,,,,,,,,,,,,,,,,,,,,0.013333333,-0.398888889,0,0,0,space,,,,,,COLLAR,HB,z,y,./images/COLLARHB.png,1.166,,,,,,z,1,0.576,,,,,,,,0,125,125,99,1
,,,,,,,,,,,,,,,,,198913,18,2022-01-28_17h54.52.765,lexical_decision_task_DD_L2,2021.2.3,MacIntel,58.82352941,,,,,,,,,,,0.588,1,,,,,,,,,,,,,,,,,,,,,,,,,0.013333333,-0.398888889,0,0,0,,,,,,,PARADE,C,z,y,./images/PARADE.png,,,,,,,z,1,0.588,,,,,,,,0,126,126,101,1
,,,,,,,,,,,,,,,,,198913,18,2022-01-28_17h54.52.765,lexical_decision_task_DD_L2,2021.2.3,MacIntel,58.82352941,,,,,,,,,,,0.717,1,,,,,,,,,,,,,,,,,,,,,,,,,0.013333333,-0.398888889,0,0,0,,,,,,,PENCE,LB,m,y,./images/PENCELB.png,,,,,,,m,1,0.717,,,,,,,,0,127,127,16,1
,,,,,,,,,,,,,,,,,198913,18,2022-01-28_17h54.52.765,lexical_decision_task_DD_L2,2021.2.3,MacIntel,58.82352941,,,,,,,,,,,0.701,1,,,,,,,,,,,,,,,,,,,,,,,,,0.013333333,-0.398888889,0,0,0,,,,,,,CARPET,C,m,y,./images/CARPET.png,,,,,,,m,1,0.701,,,,,,,,0,128,128,53,1
,,,,,,,,,,,,,,,,,198913,18,2022-01-28_17h54.52.765,lexical_decision_task_DD_L2,2021.2.3,MacIntel,58.82352941,,,,,,,,,,,0.831,0,,,,,,,,,,,,,,,,,,,,,,,,,0.013333333,-0.398888889,0,0,0,,,,,,,BAKER,HB,z,y,./images/BAKERHB.png,,,,,,,m,0,0.831,,,,,,,,0,129,129,147,1
,,,,,,,,,,,,,,,,,198913,18,2022-01-28_17h54.52.765,lexical_decision_task_DD_L2,2021.2.3,MacIntel,58.82352941,,,,,,,,,,,1.904,1,,,,,,,,,,,,,,,,,,,,,,,,,0.013333333,-0.398888889,0,0,0,,,,,,,RHINO,HB,m,y,./images/RHINOHB.png,,,,,,,m,1,1.904,,,,,,,,0,130,130,9,1
,,,,,,,,,,,,,,,,,198913,18,2022-01-28_17h54.52.765,lexical_decision_task_DD_L2,2021.2.3,MacIntel,58.82352941,,,,,,,,,,,0.693,0,,,,,,,,,,,,,,,,,,,,,,,,,0.013333333,-0.398888889,0,0,0,,,,,,,PAINT,LB,m,y,./images/PAINTLB.png,,,,,,,z,0,0.693,,,,,,,,0,131,131,7,1
,,,,,,,,,,,,,,,,,198913,18,2022-01-28_17h54.52.765,lexical_decision_task_DD_L2,2021.2.3,MacIntel,58.82352941,,,,,,,,,,,0.693,1,,,,,,,,,,,,,,,,,,,,,,,,,0.013333333,-0.398888889,0,0,0,,,,,,,BUNNY,LB,z,y,./images/BUNNYLB.png,,,,,,,z,1,0.693,,,,,,,,0,132,132,97,1
,,,,,,,,,,,,,,,,,198913,18,2022-01-28_17h54.52.765,lexical_decision_task_DD_L2,2021.2.3,MacIntel,58.82352941,,,,,,,,,,,0.831,0,,,,,,,,,,,,,,,,,,,,,,,,,0.013333333,-0.398888889,0,0,0,,,,,,,MUSCLE,LB,m,y,./images/MUSCLELB.png,,,,,,,z,0,0.831,,,,,,,,0,133,133,4,1
,,,,,,,,,,,,,,,,,198913,18,2022-01-28_17h54.52.765,lexical_decision_task_DD_L2,2021.2.3,MacIntel,58.82352941,,,,,,,,,,,0.668,1,,,,,,,,,,,,,,,,,,,,,,,,,0.013333333,-0.398888889,0,0,0,,,,,,,WEASEL,C,m,y,./images/WEASEL.png,,,,,,,m,1,0.668,,,,,,,,0,134,134,80,1
,,,,,,,,,,,,,,,,,198913,18,2022-01-28_17h54.52.765,lexical_decision_task_DD_L2,2021.2.3,MacIntel,58.82352941,,,,,,,,,,,0.66,1,,,,,,,,,,,,,,,,,,,,,,,,,0.013333333,-0.398888889,0,0,0,,,,,,,CLOUD,C,z,y,./images/CLOUD.png,,,,,,,z,1,0.66,,,,,,,,0,135,135,110,1
,,,,,,,,,,,,,,,,,198913,18,2022-01-28_17h54.52.765,lexical_decision_task_DD_L2,2021.2.3,MacIntel,58.82352941,,,,,,,,,,,0.672,0,,,,,,,,,,,,,,,,,,,,,,,,,0.013333333,-0.398888889,0,0,0,,,,,,,TWINS,HB,m,y,./images/TWINSHB.png,,,,,,,z,0,0.672,,,,,,,,0,136,136,60,1
,,,,,,,,,,,,,,,,,198913,18,2022-01-28_17h54.52.765,lexical_decision_task_DD_L2,2021.2.3,MacIntel,58.82352941,,,,,,,,,,,0.639,1,,,,,,,,,,,,,,,,,,,,,,,,,0.013333333,-0.398888889,0,0,0,,,,,,,KIDNEY,HB,m,y,./images/KIDNEYHB.png,,,,,,,m,1,0.639,,,,,,,,0,137,137,21,1
,,,,,,,,,,,,,,,,,198913,18,2022-01-28_17h54.52.765,lexical_decision_task_DD_L2,2021.2.3,MacIntel,58.82352941,,,,,,,,,,,0.596,1,,,,,,,,,,,,,,,,,,,,,,,,,0.013333333,-0.398888889,0,0,0,,,,,,,CASINO,LB,z,y,./images/CASINOLB.png,,,,,,,z,1,0.596,,,,,,,,0,138,138,112,1
,,,,,,,,,,,,,,,,,198913,18,2022-01-28_17h54.52.765,lexical_decision_task_DD_L2,2021.2.3,MacIntel,58.82352941,,,,,,,,,,,0.732,1,,,,,,,,,,,,,,,,,,,,,,,,,0.013333333,-0.398888889,0,0,0,,,,,,,MALLET,C,m,y,./images/MALLET.png,,,,,,,m,1,0.732,,,,,,,,0,139,139,50,1
,,,,,,,,,,,,,,,,,198913,18,2022-01-28_17h54.52.765,lexical_decision_task_DD_L2,2021.2.3,MacIntel,58.82352941,,,,,,,,,,,0.942,1,,,,,,,,,,,,,,,,,,,,,,,,,0.013333333,-0.398888889,0,0,0,,,,,,,LLAMA,C,z,y,./images/LLAMA.png,,,,,,,z,1,0.942,,,,,,,,0,140,140,119,1
,,,,,,,,,,,,,,,,,198913,18,2022-01-28_17h54.52.765,lexical_decision_task_DD_L2,2021.2.3,MacIntel,58.82352941,,,,,,,,,,,0.88,1,,,,,,,,,,,,,,,,,,,,,,,,,0.013333333,-0.398888889,0,0,0,,,,,,,PLANK,LB,m,y,./images/PLANKLB.png,,,,,,,m,1,0.88,,,,,,,,0,141,141,1,1
,,,,,,,,,,,,,,,,,198913,18,2022-01-28_17h54.52.765,lexical_decision_task_DD_L2,2021.2.3,MacIntel,58.82352941,,,,,,,,,,,0.859,0,,,,,,,,,,,,,,,,,,,,,,,,,0.013333333,-0.398888889,0,0,0,,,,,,,DRUMS,LB,m,y,./images/DRUMSLB.png,,,,,,,z,0,0.859,,,,,,,,0,142,142,49,1
,,,,,,,,,,,,,,,,,198913,18,2022-01-28_17h54.52.765,lexical_decision_task_DD_L2,2021.2.3,MacIntel,58.82352941,,,,,,,,,,,0.733,0,,,,,,,,,,,,,,,,,,,,,,,,,0.013333333,-0.398888889,0,0,0,,,,,,,WAGON,LB,z,y,./images/WAGONLB.png,,,,,,,m,0,0.733,,,,,,,,0,143,143,91,1
,,,,,,,,,,,,,,,,,198913,18,2022-01-28_17h54.52.765,lexical_decision_task_DD_L2,2021.2.3,MacIntel,58.82352941,,,,,,,,,,,0.631,1,,,,,,,,,,,,,,,,,,,,,,,,,0.013333333,-0.398888889,0,0,0,,,,,,,CURRY,HB,z,y,./images/CURRYHB.png,,,,,,,z,1,0.631,,,,,,,,0,144,144,144,1
,,,,,,,,,,,,,,,,,198913,18,2022-01-28_17h54.52.765,lexical_decision_task_DD_L2,2021.2.3,MacIntel,58.82352941,,,,,,,,,,,0.686,0,,,,,,,,,,,,,,,,,,,,,,,,,0.013333333,-0.398888889,0,0,0,,,,,,,JUNGLE,C,m,y,./images/JUNGLE.png,,,,,,,z,0,0.686,,,,,,,,0,145,145,83,1
,,,,,,,,,,,,,,,,,198913,18,2022-01-28_17h54.52.765,lexical_decision_task_DD_L2,2021.2.3,MacIntel,58.82352941,,,,,,,,,,,0.696,1,,,,,,,,,,,,,,,,,,,,,,,,,0.013333333,-0.398888889,0,0,0,,,,,,,STEAK,LB,z,y,./images/STEAKLB.png,,,,,,,z,1,0.696,,,,,,,,0,146,146,115,1
,,,,,,,,,,,,,,,,,198913,18,2022-01-28_17h54.52.765,lexical_decision_task_DD_L2,2021.2.3,MacIntel,58.82352941,,,,,,,,,,,0.645,0,,,,,,,,,,,,,,,,,,,,,,,,,0.013333333,-0.398888889,0,0,0,,,,,,,SPORT,HB,m,y,./images/SPORTHB.png,,,,,,,z,0,0.645,,,,,,,,0,147,147,48,1
,,,,,,,,,,,,,,,,,198913,18,2022-01-28_17h54.52.765,lexical_decision_task_DD_L2,2021.2.3,MacIntel,58.82352941,,,,,,,,,,,0.761,1,,,,,,,,,,,,,,,,,,,,,,,,,0.013333333,-0.398888889,0,0,0,,,,,,,CLOWN,LB,z,y,./images/CLOWNLB.png,,,,,,,z,1,0.761,,,,,,,,0,148,148,106,1
,,,,,,,,,,,,,,,,,198913,18,2022-01-28_17h54.52.765,lexical_decision_task_DD_L2,2021.2.3,MacIntel,58.82352941,,,,,,,,,,,0.469,1,,,,,,,,,,,,,,,,,,,,,,,,,0.013333333,-0.398888889,0,0,0,,,,,,,BOXER,LB,z,y,./images/BOXERLB.png,,,,,,,z,1,0.469,,,,,,,,0,149,149,88,1
,,,,,,,,,,,,,,,,,198913,18,2022-01-28_17h54.52.765,lexical_decision_task_DD_L2,2021.2.3,MacIntel,58.82352941,,,,,,,,,,,0.677,0,,,,,,,,,,,,,,,,,,,,,,,,,0.013333333,-0.398888889,0,0,0,,,,,,,ONION,HB,m,y,./images/ONIONHB.png,,,,,,,z,0,0.677,,,,,,,,0,150,150,51,1
,,,,,,,,,,,,,,,,,198913,18,2022-01-28_17h54.52.765,lexical_decision_task_DD_L2,2021.2.3,MacIntel,58.82352941,,,,,,,,,,,1.23,0,,,,,,,,,,,,,,,,,,,,,,,,,0.013333333,-0.398888889,0,0,0,,,,,,,HOCKEY,C,z,y,./images/HOCKEY.png,,,,,,,m,0,1.23,,,,,,,,0,151,151,116,1
,,,,,,,,,,,,,,,,,198913,18,2022-01-28_17h54.52.765,lexical_decision_task_DD_L2,2021.2.3,MacIntel,58.82352941,,,,,,,,,,,0.795,1,,,,,,,,,,,,,,,,,,,,,,,,,0.013333333,-0.398888889,0,0,0,,,,,,,DOUGH,LB,m,y,./images/DOUGHLB.png,,,,,,,m,1,0.795,,,,,,,,0,152,152,19,1
,,,,,,,,,,,,,,,,,198913,18,2022-01-28_17h54.52.765,lexical_decision_task_DD_L2,2021.2.3,MacIntel,58.82352941,,,,,,,,,,,0.697,1,,,,,,,,,,,,,,,,,,,,,,,,,0.013333333,-0.398888889,0,0,0,,,,,,,SNAKE,LB,z,y,./images/SNAKELB.png,,,,,,,z,1,0.697,,,,,,,,0,153,153,124,1
,,,,,,,,,,,,,,,,,198913,18,2022-01-28_17h54.52.765,lexical_decision_task_DD_L2,2021.2.3,MacIntel,58.82352941,,,,,,,,,,,0.704,1,,,,,,,,,,,,,,,,,,,,,,,,,0.013333333,-0.398888889,0,0,0,,,,,,,MUFFIN,LB,m,y,./images/MUFFINLB.png,,,,,,,m,1,0.704,,,,,,,,0,154,154,55,1
,,,,,,,,,,,,,,,,,198913,18,2022-01-28_17h54.52.765,lexical_decision_task_DD_L2,2021.2.3,MacIntel,58.82352941,,,,,,,,,,,0.543,0,,,,,,,,,,,,,,,,,,,,,,,,,0.013333333,-0.398888889,0,0,0,,,,,,,TOMATO,HB,m,y,./images/TOMATOHB.png,,,,,,,z,0,0.543,,,,,,,,0,155,155,0,1
,,,,,,,,,,,,,,,,,198913,18,2022-01-28_17h54.52.765,lexical_decision_task_DD_L2,2021.2.3,MacIntel,58.82352941,,,,,,,,,,,0.516,0,,,,,,,,,,,,,,,,,,,,,,,,,0.013333333,-0.398888889,0,0,0,,,,,,,LADDER,C,m,y,./images/LADDER.png,,,,,,,z,0,0.516,,,,,,,,0,156,156,38,1
,,,,,,,,,,,,,,,,,198913,18,2022-01-28_17h54.52.765,lexical_decision_task_DD_L2,2021.2.3,MacIntel,58.82352941,,,,,,,,,,,0.694,1,,,,,,,,,,,,,,,,,,,,,,,,,0.013333333,-0.398888889,0,0,0,,,,,,,BRIDE,LB,z,y,./images/BRIDELB.png,,,,,,,z,1,0.694,,,,,,,,0,157,157,148,1
,,,,,,,,,,,,,,,,,198913,18,2022-01-28_17h54.52.765,lexical_decision_task_DD_L2,2021.2.3,MacIntel,58.82352941,,,,,,,,,,,0.765,0,,,,,,,,,,,,,,,,,,,,,,,,,0.013333333,-0.398888889,0,0,0,,,,,,,FENCE,C,z,y,./images/FENCE.png,,,,,,,m,0,0.765,,,,,,,,0,158,158,98,1
,,,,,,,,,,,,,,,,,198913,18,2022-01-28_17h54.52.765,lexical_decision_task_DD_L2,2021.2.3,MacIntel,58.82352941,,,,,,,,,,,0.661,0,,,,,,,,,,,,,,,,,,,,,,,,,0.013333333,-0.398888889,0,0,0,,,,,,,PEARL,LB,m,y,./images/PEARLLB.png,,,,,,,z,0,0.661,,,,,,,,0,159,159,46,1
,,,,,,,,,,,,,,,,,198913,18,2022-01-28_17h54.52.765,lexical_decision_task_DD_L2,2021.2.3,MacIntel,58.82352941,,,,,,,,,,,2.242,1,,,,,,,,,,,,,,,,,,,,,,,,,0.013333333,-0.398888889,0,0,0,,,,,,,CRUMB,C,m,y,./images/CRUMB.png,,,,,,,m,1,2.242,,,,,,,,0,160,160,29,1
,,,,,,,,,,,,,,,,,198913,18,2022-01-28_17h54.52.765,lexical_decision_task_DD_L2,2021.2.3,MacIntel,58.82352941,,,,,,,,,,,0.618,1,,,,,,,,,,,,,,,,,,,,,,,,,0.013333333,-0.398888889,0,0,0,,,,,,,STATUE,HB,z,y,./images/STATUEHB.png,,,,,,,z,1,0.618,,,,,,,,0,161,161,150,1
,,,,,,,,,,,,,,,,,198913,18,2022-01-28_17h54.52.765,lexical_decision_task_DD_L2,2021.2.3,MacIntel,58.82352941,,,,,,,,,,,0.757,1,,,,,,,,,,,,,,,,,,,,,,,,,0.013333333,-0.398888889,0,0,0,,,,,,,BOILER,HB,z,y,./images/BOILERHB.png,,,,,,,z,1,0.757,,,,,,,,0,162,162,120,1
,,,,,,,,,,,,,,,,,198913,18,2022-01-28_17h54.52.765,lexical_decision_task_DD_L2,2021.2.3,MacIntel,58.82352941,,,,,,,,,,,0.695,0,,,,,,,,,,,,,,,,,,,,,,,,,0.013333333,-0.398888889,0,0,0,,,,,,,DRILL,HB,z,y,./images/DRILLHB.png,,,,,,,m,0,0.695,,,,,,,,0,163,163,165,1
,,,,,,,,,,,,,,,,,198913,18,2022-01-28_17h54.52.765,lexical_decision_task_DD_L2,2021.2.3,MacIntel,58.82352941,,,,,,,,,,,0.828,1,,,,,,,,,,,,,,,,,,,,,,,,,0.013333333,-0.398888889,0,0,0,,,,,,,BABOON,LB,m,y,./images/BABOONLB.png,,,,,,,m,1,0.828,,,,,,,,0,164,164,58,1
,,,,,,,,,,,,,,,,,198913,18,2022-01-28_17h54.52.765,lexical_decision_task_DD_L2,2021.2.3,MacIntel,58.82352941,,,,,,,,,,,0.937,0,,,,,,,,,,,,,,,,,,,,,,,,,0.013333333,-0.398888889,0,0,0,,,,,,,CRATER,HB,z,y,./images/CRATERHB.png,,,,,,,m,0,0.937,,,,,,,,0,165,165,87,1
,,,,,,,,,,,,,,,,,198913,18,2022-01-28_17h54.52.765,lexical_decision_task_DD_L2,2021.2.3,MacIntel,58.82352941,,,,,,,,,,,0.915,1,,,,,,,,,,,,,,,,,,,,,,,,,0.013333333,-0.398888889,0,0,0,,,,,,,BIRTH,LB,m,y,./images/BIRTHLB.png,,,,,,,m,1,0.915,,,,,,,,0,166,166,37,1
,,,,,,,,,,,,,,,,,198913,18,2022-01-28_17h54.52.765,lexical_decision_task_DD_L2,2021.2.3,MacIntel,58.82352941,,,,,,,,,,,0.837,1,,,,,,,,,,,,,,,,,,,,,,,,,0.013333333,-0.398888889,0,0,0,,,,,,,SHELF,HB,m,y,./images/SHELFHB.png,,,,,,,m,1,0.837,,,,,,,,0,167,167,39,1
