key_resp.keys,instr_done_touch.x,instr_done_touch.y,instr_done_touch.leftButton,instr_done_touch.midButton,instr_done_touch.rightButton,instr_done_touch.clicked_name,instruction_pages.thisRepN,instruction_pages.thisTrialN,instruction_pages.thisN,instruction_pages.thisIndex,instruction_pages.ran,pageN,phase,instruct_text,has_image,instruct_image,participant,age,date,expName,psychopyVersion,OS,frameRate,response.keys,response.corr,response.rt,touch_resp.x,touch_resp.y,touch_resp.leftButton,touch_resp.midButton,touch_resp.rightButton,touch_resp.time,touch_resp.clicked_name,rt,corr,practrials.thisRepN,practrials.thisTrialN,practrials.thisN,practrials.thisIndex,practrials.ran,TrialID,Target,corrAns,end_of_practice_trials_pages.thisRepN,end_of_practice_trials_pages.thisTrialN,end_of_practice_trials_pages.thisN,end_of_practice_trials_pages.thisIndex,end_of_practice_trials_pages.ran,key_resp_2.keys,key_resp_2.corr,key_resp_2.rt,targ_click.x,targ_click.y,targ_click.leftButton,targ_click.midButton,targ_click.rightButton,targ_click.time,targ_click.clicked_name,break_done_touch.x,break_done_touch.y,break_done_touch.leftButton,break_done_touch.midButton,break_done_touch.rightButton,break_done_keyboard.keys,maintrials.thisRepN,maintrials.thisTrialN,maintrials.thisN,maintrials.thisIndex,maintrials.ran,string,blur,study,lex,stim_path,break_done_touch.clicked_name,break_done_keyboard.rt,test_instructions.thisRepN,test_instructions.thisTrialN,test_instructions.thisN,test_instructions.thisIndex,test_instructions.ran,key_resp.rt,key_resp_3.keys,key_resp_3.corr,key_resp_3.rt,test_click.x,test_click.y,test_click.leftButton,test_click.midButton,test_click.rightButton,test_click.time,test_click.clicked_name,test_phase.thisRepN,test_phase.thisTrialN,test_phase.thisN,test_phase.thisIndex,test_phase.ran
,-0.023333333,-0.401111111,1,0,0,instr_done_button,0,0,0,0,1,1,instructions,"INSTRUCTIONS
At the start of each trial, look at the plus sign  (+) in the center of the screen.  This tells you that a trial is about to begin and where to look. Second, the plus sign will disappear and a string of letters will appear. Your task is to determine if the string of letters is a word or not. If the item is a word press the M key (on keyboard)  or touch the word button (phone/tablet).  If the item is not a word,  press the  Z key (on keyboard)  or touch the nonword button (on phone/tablet). 
Press the space bar or touch  continue.",0,,198916,18,2022-01-28_15h18.55.387,lexical_decision_task_DD_L6,2021.2.3,MacIntel,71.42857143,,,,,,,,,,,,,,,,,,,,,,,,,,,,,,,,,,,,,,,,,,,,,,,,,,,,,,,,,,,,,,,,,,,,,,,,,,
,-0.025555556,-0.401111111,1,0,0,instr_done_button,0,1,1,1,1,2,instructions,"If your device has a keyboard, press the 'Z' key for nonwords and the 'M' key for words.





Press the space bar or touch the button below to continue.",0,keyboard-example.gif,198916,18,2022-01-28_15h18.55.387,lexical_decision_task_DD_L6,2021.2.3,MacIntel,71.42857143,,,,,,,,,,,,,,,,,,,,,,,,,,,,,,,,,,,,,,,,,,,,,,,,,,,,,,,,,,,,,,,,,,,,,,,,,,
,-0.025555556,-0.402222222,1,0,0,instr_done_button,0,2,2,2,1,3,instructions,"If you are using a touchscreen only device, use the buttons on the screen. Do not use the mouse.





Press the space bar or touch the button below to continue.",0,touchscreen-example.gif,198916,18,2022-01-28_15h18.55.387,lexical_decision_task_DD_L6,2021.2.3,MacIntel,71.42857143,,,,,,,,,,,,,,,,,,,,,,,,,,,,,,,,,,,,,,,,,,,,,,,,,,,,,,,,,,,,,,,,,,,,,,,,,,
,-0.025555556,-0.401111111,1,0,0,instr_done_button,0,3,3,3,1,4,instructions,"It is very important that you respond as quickly and accurately as possible, as each letter string will only be on the screen for two seconds. If you do not respond within this time, the message 'Too slow!' will be displayed and the experiment will progress to the next letter string. The first 20 trials will be practice trials and you will receive feedback on your answers. 

Press the space bar or touch the button below to start the practice trials.",0,,198916,18,2022-01-28_15h18.55.387,lexical_decision_task_DD_L6,2021.2.3,MacIntel,71.42857143,,,,,,,,,,,,,,,,,,,,,,,,,,,,,,,,,,,,,,,,,,,,,,,,,,,,,,,,,,,,,,,,,,,,,,,,,,
,,,,,,,,,,,,,,,,,198916,18,2022-01-28_15h18.55.387,lexical_decision_task_DD_L6,2021.2.3,MacIntel,71.42857143,z,1,1.667,,,,,,,,1.667,1,0,0,0,10,1,1001,INLADE,z,,,,,,,,,,,,,,,,,,,,,,,,,,,,,,,,,,,,,,,,,,,,,,,,,,,,,,
,,,,,,,,,,,,,,,,,198916,18,2022-01-28_15h18.55.387,lexical_decision_task_DD_L6,2021.2.3,MacIntel,71.42857143,m,1,1.056,,,,,,,,1.056,1,0,1,1,1,1,1001,ADJUST,m,,,,,,,,,,,,,,,,,,,,,,,,,,,,,,,,,,,,,,,,,,,,,,,,,,,,,,
,,,,,,,,,,,,,,,,,198916,18,2022-01-28_15h18.55.387,lexical_decision_task_DD_L6,2021.2.3,MacIntel,71.42857143,m,1,0.904,,,,,,,,0.904,1,0,2,2,0,1,1001,UTOPIA,m,,,,,,,,,,,,,,,,,,,,,,,,,,,,,,,,,,,,,,,,,,,,,,,,,,,,,,
,,,,,,,,,,,,,,,,,198916,18,2022-01-28_15h18.55.387,lexical_decision_task_DD_L6,2021.2.3,MacIntel,71.42857143,z,1,0.794,,,,,,,,0.794,1,0,3,3,14,1,1001,THRALE,z,,,,,,,,,,,,,,,,,,,,,,,,,,,,,,,,,,,,,,,,,,,,,,,,,,,,,,
,,,,,,,,,,,,,,,,,198916,18,2022-01-28_15h18.55.387,lexical_decision_task_DD_L6,2021.2.3,MacIntel,71.42857143,z,1,0.727,,,,,,,,0.727,1,0,4,4,13,1,1001,ROUPET,z,,,,,,,,,,,,,,,,,,,,,,,,,,,,,,,,,,,,,,,,,,,,,,,,,,,,,,
,,,,,,,,,,,,,,,,,198916,18,2022-01-28_15h18.55.387,lexical_decision_task_DD_L6,2021.2.3,MacIntel,71.42857143,m,1,0.774,,,,,,,,0.774,1,0,5,5,5,1,1001,OBTAIN,m,,,,,,,,,,,,,,,,,,,,,,,,,,,,,,,,,,,,,,,,,,,,,,,,,,,,,,
,,,,,,,,,,,,,,,,,198916,18,2022-01-28_15h18.55.387,lexical_decision_task_DD_L6,2021.2.3,MacIntel,71.42857143,m,1,0.528,,,,,,,,0.528,1,0,6,6,2,1,1001,ALMOND,m,,,,,,,,,,,,,,,,,,,,,,,,,,,,,,,,,,,,,,,,,,,,,,,,,,,,,,
,,,,,,,,,,,,,,,,,198916,18,2022-01-28_15h18.55.387,lexical_decision_task_DD_L6,2021.2.3,MacIntel,71.42857143,m,1,0.573,,,,,,,,0.573,1,0,7,7,4,1,1001,SQUEAK,m,,,,,,,,,,,,,,,,,,,,,,,,,,,,,,,,,,,,,,,,,,,,,,,,,,,,,,
,,,,,,,,,,,,,,,,,198916,18,2022-01-28_15h18.55.387,lexical_decision_task_DD_L6,2021.2.3,MacIntel,71.42857143,z,0,0.509,,,,,,,,0.509,0,0,8,8,3,1,1001,MATRIX,m,,,,,,,,,,,,,,,,,,,,,,,,,,,,,,,,,,,,,,,,,,,,,,,,,,,,,,
,,,,,,,,,,,,,,,,,198916,18,2022-01-28_15h18.55.387,lexical_decision_task_DD_L6,2021.2.3,MacIntel,71.42857143,z,1,0.834,,,,,,,,0.834,1,0,9,9,8,1,1001,ASLERT,z,,,,,,,,,,,,,,,,,,,,,,,,,,,,,,,,,,,,,,,,,,,,,,,,,,,,,,
,,,,,,,,,,,,,,,,,198916,18,2022-01-28_15h18.55.387,lexical_decision_task_DD_L6,2021.2.3,MacIntel,71.42857143,z,1,0.827,,,,,,,,0.827,1,0,10,10,9,1,1001,FARINY,z,,,,,,,,,,,,,,,,,,,,,,,,,,,,,,,,,,,,,,,,,,,,,,,,,,,,,,
,,,,,,,,,,,,,,,,,198916,18,2022-01-28_15h18.55.387,lexical_decision_task_DD_L6,2021.2.3,MacIntel,71.42857143,z,1,0.681,,,,,,,,0.681,1,0,11,11,11,1,1001,RASHET,z,,,,,,,,,,,,,,,,,,,,,,,,,,,,,,,,,,,,,,,,,,,,,,,,,,,,,,
,,,,,,,,,,,,,,,,,198916,18,2022-01-28_15h18.55.387,lexical_decision_task_DD_L6,2021.2.3,MacIntel,71.42857143,z,1,1.111,,,,,,,,1.111,1,0,12,12,12,1,1001,SPRINY,z,,,,,,,,,,,,,,,,,,,,,,,,,,,,,,,,,,,,,,,,,,,,,,,,,,,,,,
,,,,,,,,,,,,,,,,,198916,18,2022-01-28_15h18.55.387,lexical_decision_task_DD_L6,2021.2.3,MacIntel,71.42857143,z,1,0.659,,,,,,,,0.659,1,0,13,13,15,1,1001,WHAISE,z,,,,,,,,,,,,,,,,,,,,,,,,,,,,,,,,,,,,,,,,,,,,,,,,,,,,,,
,,,,,,,,,,,,,,,,,198916,18,2022-01-28_15h18.55.387,lexical_decision_task_DD_L6,2021.2.3,MacIntel,71.42857143,m,1,0.622,,,,,,,,0.622,1,0,14,14,6,1,1001,ZOMBIE,m,,,,,,,,,,,,,,,,,,,,,,,,,,,,,,,,,,,,,,,,,,,,,,,,,,,,,,
,,,,,,,,,,,,,,,,,198916,18,2022-01-28_15h18.55.387,lexical_decision_task_DD_L6,2021.2.3,MacIntel,71.42857143,m,1,0.544,,,,,,,,0.544,1,0,15,15,7,1,1001,VOLUME,m,,,,,,,,,,,,,,,,,,,,,,,,,,,,,,,,,,,,,,,,,,,,,,,,,,,,,,
,-0.05,-0.42,1,0,0,instr_done_button,,,,,,1,end_of_practice,"You have completed the practice trials. During the experimental trials, you will not receive feedback. 
Before you begin, please ensure that you are in a comfortable and quiet location and will not be disturbed for about 15 minutes, as we cannot use your data if you do not complete all the trials. 
 When you are ready to start the experimental trials, please press space or touch the button below.",,,198916,18,2022-01-28_15h18.55.387,lexical_decision_task_DD_L6,2021.2.3,MacIntel,71.42857143,,,,,,,,,,,,,,,,,,,,,0,0,0,0,1,,,,,,,,,,,,,,,,,,,,,,,,,,,,,,,,,,,,,,,,,,,,,,,,,
,,,,,,,,,,,,,,,,,198916,18,2022-01-28_15h18.55.387,lexical_decision_task_DD_L6,2021.2.3,MacIntel,71.42857143,,,,,,,,,,,0.808,1,,,,,,,,,,,,,,z,1,0.808,,,,,,,,-0.05,-0.42,0,0,0,,0,0,0,141,1,PLEET,C,old,z,./images/PLEET.png,,,,,,,,,,,,,,,,,,,,,,,
,,,,,,,,,,,,,,,,,198916,18,2022-01-28_15h18.55.387,lexical_decision_task_DD_L6,2021.2.3,MacIntel,71.42857143,,,,,,,,,,,0.625,1,,,,,,,,,,,,,,m,1,0.625,,,,,,,,-0.05,-0.42,0,0,0,,0,1,1,24,1,FLESH,LB,old,m,./images/FLESHLB.png,,,,,,,,,,,,,,,,,,,,,,,
,,,,,,,,,,,,,,,,,198916,18,2022-01-28_15h18.55.387,lexical_decision_task_DD_L6,2021.2.3,MacIntel,71.42857143,,,,,,,,,,,0.63,1,,,,,,,,,,,,,,m,1,0.63,,,,,,,,-0.05,-0.42,0,0,0,,0,2,2,23,1,CLOTH,HB,old,m,./images/CLOTHHB.png,,,,,,,,,,,,,,,,,,,,,,,
,,,,,,,,,,,,,,,,,198916,18,2022-01-28_15h18.55.387,lexical_decision_task_DD_L6,2021.2.3,MacIntel,71.42857143,,,,,,,,,,,0.733,1,,,,,,,,,,,,,,m,1,0.733,,,,,,,,-0.05,-0.42,0,0,0,,0,3,3,31,1,STEAK,C,old,m,./images/STEAK.png,,,,,,,,,,,,,,,,,,,,,,,
,,,,,,,,,,,,,,,,,198916,18,2022-01-28_15h18.55.387,lexical_decision_task_DD_L6,2021.2.3,MacIntel,71.42857143,,,,,,,,,,,0.782,1,,,,,,,,,,,,,,z,1,0.782,,,,,,,,-0.05,-0.42,0,0,0,,0,4,4,155,1,CANGY,LB,old,z,./images/CANGYLB.png,,,,,,,,,,,,,,,,,,,,,,,
,,,,,,,,,,,,,,,,,198916,18,2022-01-28_15h18.55.387,lexical_decision_task_DD_L6,2021.2.3,MacIntel,71.42857143,,,,,,,,,,,0.559,1,,,,,,,,,,,,,,m,1,0.559,,,,,,,,-0.05,-0.42,0,0,0,,0,5,5,46,1,MUMMY,C,old,m,./images/MUMMY.png,,,,,,,,,,,,,,,,,,,,,,,
,,,,,,,,,,,,,,,,,198916,18,2022-01-28_15h18.55.387,lexical_decision_task_DD_L6,2021.2.3,MacIntel,71.42857143,,,,,,,,,,,0.634,1,,,,,,,,,,,,,,m,1,0.634,,,,,,,,-0.05,-0.42,0,0,0,,0,6,6,30,1,SLOPE,LB,old,m,./images/SLOPELB.png,,,,,,,,,,,,,,,,,,,,,,,
,,,,,,,,,,,,,,,,,198916,18,2022-01-28_15h18.55.387,lexical_decision_task_DD_L6,2021.2.3,MacIntel,71.42857143,,,,,,,,,,,0.615,1,,,,,,,,,,,,,,z,1,0.615,,,,,,,,-0.05,-0.42,0,0,0,,0,7,7,144,1,NAIRY,C,old,z,./images/NAIRY.png,,,,,,,,,,,,,,,,,,,,,,,
,,,,,,,,,,,,,,,,,198916,18,2022-01-28_15h18.55.387,lexical_decision_task_DD_L6,2021.2.3,MacIntel,71.42857143,,,,,,,,,,,0.544,1,,,,,,,,,,,,,,m,1,0.544,,,,,,,,-0.05,-0.42,0,0,0,,0,8,8,42,1,CHAIN,LB,old,m,./images/CHAINLB.png,,,,,,,,,,,,,,,,,,,,,,,
,,,,,,,,,,,,,,,,,198916,18,2022-01-28_15h18.55.387,lexical_decision_task_DD_L6,2021.2.3,MacIntel,71.42857143,,,,,,,,,,,0.507,1,,,,,,,,,,,,,,m,1,0.507,,,,,,,,-0.05,-0.42,0,0,0,,0,9,9,54,1,CHERRY,LB,old,m,./images/CHERRYLB.png,,,,,,,,,,,,,,,,,,,,,,,
,,,,,,,,,,,,,,,,,198916,18,2022-01-28_15h18.55.387,lexical_decision_task_DD_L6,2021.2.3,MacIntel,71.42857143,,,,,,,,,,,0.906,1,,,,,,,,,,,,,,z,1,0.906,,,,,,,,-0.05,-0.42,0,0,0,,0,10,10,106,1,CLUMS,HB,old,z,./images/CLUMSHB.png,,,,,,,,,,,,,,,,,,,,,,,
,,,,,,,,,,,,,,,,,198916,18,2022-01-28_15h18.55.387,lexical_decision_task_DD_L6,2021.2.3,MacIntel,71.42857143,,,,,,,,,,,0.899,1,,,,,,,,,,,,,,z,1,0.899,,,,,,,,-0.05,-0.42,0,0,0,,0,11,11,94,1,BLANS,HB,old,z,./images/BLANSHB.png,,,,,,,,,,,,,,,,,,,,,,,
,,,,,,,,,,,,,,,,,198916,18,2022-01-28_15h18.55.387,lexical_decision_task_DD_L6,2021.2.3,MacIntel,71.42857143,,,,,,,,,,,0.926,1,,,,,,,,,,,,,,z,1,0.926,,,,,,,,-0.05,-0.42,0,0,0,,0,12,12,131,1,NACES,LB,old,z,./images/NACESLB.png,,,,,,,,,,,,,,,,,,,,,,,
,,,,,,,,,,,,,,,,,198916,18,2022-01-28_15h18.55.387,lexical_decision_task_DD_L6,2021.2.3,MacIntel,71.42857143,,,,,,,,,,,1.905,1,,,,,,,,,,,,,,z,1,1.905,,,,,,,,-0.05,-0.42,0,0,0,,0,13,13,166,1,SHORY,HB,old,z,./images/SHORYHB.png,,,,,,,,,,,,,,,,,,,,,,,
,,,,,,,,,,,,,,,,,198916,18,2022-01-28_15h18.55.387,lexical_decision_task_DD_L6,2021.2.3,MacIntel,71.42857143,,,,,,,,,,,1.279,1,,,,,,,,,,,,,,z,1,1.279,,,,,,,,-0.05,-0.42,0,0,0,,0,14,14,124,1,TUNCH,HB,old,z,./images/TUNCHHB.png,,,,,,,,,,,,,,,,,,,,,,,
,,,,,,,,,,,,,,,,,198916,18,2022-01-28_15h18.55.387,lexical_decision_task_DD_L6,2021.2.3,MacIntel,71.42857143,,,,,,,,,,,0.958,1,,,,,,,,,,,,,,z,1,0.958,,,,,,,,-0.05,-0.42,0,0,0,,0,15,15,160,1,VEETS,HB,old,z,./images/VEETSHB.png,,,,,,,,,,,,,,,,,,,,,,,
,,,,,,,,,,,,,,,,,198916,18,2022-01-28_15h18.55.387,lexical_decision_task_DD_L6,2021.2.3,MacIntel,71.42857143,,,,,,,,,,,1.28,1,,,,,,,,,,,,,,z,1,1.28,,,,,,,,-0.05,-0.42,0,0,0,,0,16,16,97,1,CHIDS,HB,old,z,./images/CHIDSHB.png,,,,,,,,,,,,,,,,,,,,,,,
,,,,,,,,,,,,,,,,,198916,18,2022-01-28_15h18.55.387,lexical_decision_task_DD_L6,2021.2.3,MacIntel,71.42857143,,,,,,,,,,,1.381,1,,,,,,,,,,,,,,m,1,1.381,,,,,,,,-0.05,-0.42,0,0,0,,0,17,17,41,1,STREAM,HB,old,m,./images/STREAMHB.png,,,,,,,,,,,,,,,,,,,,,,,
,,,,,,,,,,,,,,,,,198916,18,2022-01-28_15h18.55.387,lexical_decision_task_DD_L6,2021.2.3,MacIntel,71.42857143,,,,,,,,,,,0.68,1,,,,,,,,,,,,,,m,1,0.68,,,,,,,,-0.05,-0.42,0,0,0,,0,18,18,35,1,LLAMA,HB,old,m,./images/LLAMAHB.png,,,,,,,,,,,,,,,,,,,,,,,
,,,,,,,,,,,,,,,,,198916,18,2022-01-28_15h18.55.387,lexical_decision_task_DD_L6,2021.2.3,MacIntel,71.42857143,,,,,,,,,,,0.918,1,,,,,,,,,,,,,,z,1,0.918,,,,,,,,-0.05,-0.42,0,0,0,,0,19,19,139,1,BLEAR,HB,old,z,./images/BLEARHB.png,,,,,,,,,,,,,,,,,,,,,,,
,,,,,,,,,,,,,,,,,198916,18,2022-01-28_15h18.55.387,lexical_decision_task_DD_L6,2021.2.3,MacIntel,71.42857143,,,,,,,,,,,0.65,1,,,,,,,,,,,,,,m,1,0.65,,,,,,,,-0.05,-0.42,0,0,0,,0,20,20,66,1,STATUE,LB,old,m,./images/STATUELB.png,,,,,,,,,,,,,,,,,,,,,,,
,,,,,,,,,,,,,,,,,198916,18,2022-01-28_15h18.55.387,lexical_decision_task_DD_L6,2021.2.3,MacIntel,71.42857143,,,,,,,,,,,0.617,1,,,,,,,,,,,,,,m,1,0.617,,,,,,,,-0.05,-0.42,0,0,0,,0,21,21,81,1,DRILL,LB,old,m,./images/DRILLLB.png,,,,,,,,,,,,,,,,,,,,,,,
,,,,,,,,,,,,,,,,,198916,18,2022-01-28_15h18.55.387,lexical_decision_task_DD_L6,2021.2.3,MacIntel,71.42857143,,,,,,,,,,,0.877,1,,,,,,,,,,,,,,m,1,0.877,,,,,,,,-0.05,-0.42,0,0,0,,0,22,22,44,1,BASKET,HB,old,m,./images/BASKETHB.png,,,,,,,,,,,,,,,,,,,,,,,
,,,,,,,,,,,,,,,,,198916,18,2022-01-28_15h18.55.387,lexical_decision_task_DD_L6,2021.2.3,MacIntel,71.42857143,,,,,,,,,,,0.965,1,,,,,,,,,,,,,,m,1,0.965,,,,,,,,-0.05,-0.42,0,0,0,,0,23,23,60,1,CURRY,LB,old,m,./images/CURRYLB.png,,,,,,,,,,,,,,,,,,,,,,,
,,,,,,,,,,,,,,,,,198916,18,2022-01-28_15h18.55.387,lexical_decision_task_DD_L6,2021.2.3,MacIntel,71.42857143,,,,,,,,,,,0.809,1,,,,,,,,,,,,,,m,1,0.809,,,,,,,,-0.05,-0.42,0,0,0,,0,24,24,10,1,GARDEN,C,old,m,./images/GARDEN.png,,,,,,,,,,,,,,,,,,,,,,,
,,,,,,,,,,,,,,,,,198916,18,2022-01-28_15h18.55.387,lexical_decision_task_DD_L6,2021.2.3,MacIntel,71.42857143,,,,,,,,,,,0.805,1,,,,,,,,,,,,,,m,1,0.805,,,,,,,,-0.05,-0.42,0,0,0,,0,25,25,50,1,PILOT,HB,old,m,./images/PILOTHB.png,,,,,,,,,,,,,,,,,,,,,,,
,,,,,,,,,,,,,,,,,198916,18,2022-01-28_15h18.55.387,lexical_decision_task_DD_L6,2021.2.3,MacIntel,71.42857143,,,,,,,,,,,0.685,1,,,,,,,,,,,,,,z,1,0.685,,,,,,,,-0.05,-0.42,0,0,0,,0,26,26,120,1,RINED,C,old,z,./images/RINED.png,,,,,,,,,,,,,,,,,,,,,,,
,,,,,,,,,,,,,,,,,198916,18,2022-01-28_15h18.55.387,lexical_decision_task_DD_L6,2021.2.3,MacIntel,71.42857143,,,,,,,,,,,1.201,1,,,,,,,,,,,,,,m,1,1.201,,,,,,,,-0.05,-0.42,0,0,0,,0,27,27,32,1,HOCKEY,HB,old,m,./images/HOCKEYHB.png,,,,,,,,,,,,,,,,,,,,,,,
,,,,,,,,,,,,,,,,,198916,18,2022-01-28_15h18.55.387,lexical_decision_task_DD_L6,2021.2.3,MacIntel,71.42857143,,,,,,,,,,,0.759,1,,,,,,,,,,,,,,z,1,0.759,,,,,,,,-0.05,-0.42,0,0,0,,0,28,28,137,1,JOOST,LB,old,z,./images/JOOSTLB.png,,,,,,,,,,,,,,,,,,,,,,,
,,,,,,,,,,,,,,,,,198916,18,2022-01-28_15h18.55.387,lexical_decision_task_DD_L6,2021.2.3,MacIntel,71.42857143,,,,,,,,,,,0.819,1,,,,,,,,,,,,,,z,1,0.819,,,,,,,,-0.05,-0.42,0,0,0,,0,29,29,116,1,BALGY,LB,old,z,./images/BALGYLB.png,,,,,,,,,,,,,,,,,,,,,,,
,,,,,,,,,,,,,,,,,198916,18,2022-01-28_15h18.55.387,lexical_decision_task_DD_L6,2021.2.3,MacIntel,71.42857143,,,,,,,,,,,0.632,1,,,,,,,,,,,,,,z,1,0.632,,,,,,,,-0.05,-0.42,0,0,0,,0,30,30,132,1,SCIFF,C,old,z,./images/SCIFF.png,,,,,,,,,,,,,,,,,,,,,,,
,,,,,,,,,,,,,,,,,198916,18,2022-01-28_15h18.55.387,lexical_decision_task_DD_L6,2021.2.3,MacIntel,71.42857143,,,,,,,,,,,0.638,1,,,,,,,,,,,,,,m,1,0.638,,,,,,,,-0.05,-0.42,0,0,0,,0,31,31,19,1,DONKEY,C,old,m,./images/DONKEY.png,,,,,,,,,,,,,,,,,,,,,,,
,,,,,,,,,,,,,,,,,198916,18,2022-01-28_15h18.55.387,lexical_decision_task_DD_L6,2021.2.3,MacIntel,71.42857143,,,,,,,,,,,0.715,1,,,,,,,,,,,,,,z,1,0.715,,,,,,,,-0.05,-0.42,0,0,0,,0,32,32,150,1,NOOLS,C,old,z,./images/NOOLS.png,,,,,,,,,,,,,,,,,,,,,,,
,,,,,,,,,,,,,,,,,198916,18,2022-01-28_15h18.55.387,lexical_decision_task_DD_L6,2021.2.3,MacIntel,71.42857143,,,,,,,,,,,1.191,1,,,,,,,,,,,,,,z,1,1.191,,,,,,,,-0.05,-0.42,0,0,0,,0,33,33,127,1,NINDY,HB,old,z,./images/NINDYHB.png,,,,,,,,,,,,,,,,,,,,,,,
,,,,,,,,,,,,,,,,,198916,18,2022-01-28_15h18.55.387,lexical_decision_task_DD_L6,2021.2.3,MacIntel,71.42857143,,,,,,,,,,,0.75,1,,,,,,,,,,,,,,z,1,0.75,,,,,,,,-0.05,-0.42,0,0,0,,0,34,34,165,1,TROWN,C,old,z,./images/TROWN.png,,,,,,,,,,,,,,,,,,,,,,,
,,,,,,,,,,,,,,,,,198916,18,2022-01-28_15h18.55.387,lexical_decision_task_DD_L6,2021.2.3,MacIntel,71.42857143,,,,,,,,,,,0.565,1,,,,,,,,,,,,,,z,1,0.565,,,,,,,,-0.05,-0.42,0,0,0,,0,35,35,162,1,LEICH,C,old,z,./images/LEICH.png,,,,,,,,,,,,,,,,,,,,,,,
,,,,,,,,,,,,,,,,,198916,18,2022-01-28_15h18.55.387,lexical_decision_task_DD_L6,2021.2.3,MacIntel,71.42857143,,,,,,,,,,,0.766,1,,,,,,,,,,,,,,z,1,0.766,,,,,,,,-0.05,-0.42,0,0,0,,0,36,36,136,1,WERVE,HB,old,z,./images/WERVEHB.png,,,,,,,,,,,,,,,,,,,,,,,
,,,,,,,,,,,,,,,,,198916,18,2022-01-28_15h18.55.387,lexical_decision_task_DD_L6,2021.2.3,MacIntel,71.42857143,,,,,,,,,,,0.618,1,,,,,,,,,,,,,,m,1,0.618,,,,,,,,-0.05,-0.42,0,0,0,,0,37,37,73,1,GLOVE,C,old,m,./images/GLOVE.png,,,,,,,,,,,,,,,,,,,,,,,
,,,,,,,,,,,,,,,,,198916,18,2022-01-28_15h18.55.387,lexical_decision_task_DD_L6,2021.2.3,MacIntel,71.42857143,,,,,,,,,,,0.698,1,,,,,,,,,,,,,,z,1,0.698,,,,,,,,-0.05,-0.42,0,0,0,,0,38,38,138,1,PLICE,C,old,z,./images/PLICE.png,,,,,,,,,,,,,,,,,,,,,,,
,,,,,,,,,,,,,,,,,198916,18,2022-01-28_15h18.55.387,lexical_decision_task_DD_L6,2021.2.3,MacIntel,71.42857143,,,,,,,,,,,0.664,1,,,,,,,,,,,,,,m,1,0.664,,,,,,,,-0.05,-0.42,0,0,0,,0,39,39,43,1,STOOL,C,old,m,./images/STOOL.png,,,,,,,,,,,,,,,,,,,,,,,
,,,,,,,,,,,,,,,,,198916,18,2022-01-28_15h18.55.387,lexical_decision_task_DD_L6,2021.2.3,MacIntel,71.42857143,,,,,,,,,,,0.669,1,,,,,,,,,,,,,,m,1,0.669,,,,,,,,-0.05,-0.42,0,0,0,,0,40,40,33,1,SAUNA,LB,old,m,./images/SAUNALB.png,,,,,,,,,,,,,,,,,,,,,,,
,,,,,,,,,,,,,,,,,198916,18,2022-01-28_15h18.55.387,lexical_decision_task_DD_L6,2021.2.3,MacIntel,71.42857143,,,,,,,,,,,0.755,1,,,,,,,,,,,,,,m,1,0.755,,,,,,,,-0.064444444,-0.404444444,1,0,0,,0,41,41,47,1,LAGOON,HB,old,m,./images/LAGOONHB.png,break_done_button,,,,,,,,,,,,,,,,,,,,,,
,,,,,,,,,,,,,,,,,198916,18,2022-01-28_15h18.55.387,lexical_decision_task_DD_L6,2021.2.3,MacIntel,71.42857143,,,,,,,,,,,0.818,1,,,,,,,,,,,,,,z,1,0.818,,,,,,,,-0.064444444,-0.413333333,0,0,0,,0,42,42,105,1,MOKER,C,old,z,./images/MOKER.png,,,,,,,,,,,,,,,,,,,,,,,
,,,,,,,,,,,,,,,,,198916,18,2022-01-28_15h18.55.387,lexical_decision_task_DD_L6,2021.2.3,MacIntel,71.42857143,,,,,,,,,,,0.63,1,,,,,,,,,,,,,,z,1,0.63,,,,,,,,-0.064444444,-0.413333333,0,0,0,,0,43,43,125,1,MOOKY,LB,old,z,./images/MOOKYLB.png,,,,,,,,,,,,,,,,,,,,,,,
,,,,,,,,,,,,,,,,,198916,18,2022-01-28_15h18.55.387,lexical_decision_task_DD_L6,2021.2.3,MacIntel,71.42857143,,,,,,,,,,,0.569,1,,,,,,,,,,,,,,z,1,0.569,,,,,,,,-0.064444444,-0.413333333,0,0,0,,0,44,44,107,1,FASKS,LB,old,z,./images/FASKSLB.png,,,,,,,,,,,,,,,,,,,,,,,
,,,,,,,,,,,,,,,,,198916,18,2022-01-28_15h18.55.387,lexical_decision_task_DD_L6,2021.2.3,MacIntel,71.42857143,,,,,,,,,,,0.513,1,,,,,,,,,,,,,,z,1,0.513,,,,,,,,-0.064444444,-0.413333333,0,0,0,,0,45,45,143,1,MONGS,LB,old,z,./images/MONGSLB.png,,,,,,,,,,,,,,,,,,,,,,,
,,,,,,,,,,,,,,,,,198916,18,2022-01-28_15h18.55.387,lexical_decision_task_DD_L6,2021.2.3,MacIntel,71.42857143,,,,,,,,,,,0.729,1,,,,,,,,,,,,,,z,1,0.729,,,,,,,,-0.064444444,-0.413333333,0,0,0,,0,46,46,108,1,GRUET,C,old,z,./images/GRUET.png,,,,,,,,,,,,,,,,,,,,,,,
,,,,,,,,,,,,,,,,,198916,18,2022-01-28_15h18.55.387,lexical_decision_task_DD_L6,2021.2.3,MacIntel,71.42857143,,,,,,,,,,,0.635,1,,,,,,,,,,,,,,z,1,0.635,,,,,,,,-0.064444444,-0.413333333,0,0,0,,0,47,47,95,1,HANTY,LB,old,z,./images/HANTYLB.png,,,,,,,,,,,,,,,,,,,,,,,
,,,,,,,,,,,,,,,,,198916,18,2022-01-28_15h18.55.387,lexical_decision_task_DD_L6,2021.2.3,MacIntel,71.42857143,,,,,,,,,,,0.68,1,,,,,,,,,,,,,,m,1,0.68,,,,,,,,-0.064444444,-0.413333333,0,0,0,,0,48,48,69,1,ARROW,LB,old,m,./images/ARROWLB.png,,,,,,,,,,,,,,,,,,,,,,,
,,,,,,,,,,,,,,,,,198916,18,2022-01-28_15h18.55.387,lexical_decision_task_DD_L6,2021.2.3,MacIntel,71.42857143,,,,,,,,,,,0.647,1,,,,,,,,,,,,,,z,1,0.647,,,,,,,,-0.064444444,-0.413333333,0,0,0,,0,49,49,156,1,HIXES,C,old,z,./images/HIXES.png,,,,,,,,,,,,,,,,,,,,,,,
,,,,,,,,,,,,,,,,,198916,18,2022-01-28_15h18.55.387,lexical_decision_task_DD_L6,2021.2.3,MacIntel,71.42857143,,,,,,,,,,,1.177,1,,,,,,,,,,,,,,z,1,1.177,,,,,,,,-0.064444444,-0.413333333,0,0,0,,0,50,50,163,1,GAMBA,HB,old,z,./images/GAMBAHB.png,,,,,,,,,,,,,,,,,,,,,,,
,,,,,,,,,,,,,,,,,198916,18,2022-01-28_15h18.55.387,lexical_decision_task_DD_L6,2021.2.3,MacIntel,71.42857143,,,,,,,,,,,0.685,1,,,,,,,,,,,,,,m,1,0.685,,,,,,,,-0.064444444,-0.413333333,0,0,0,,0,51,51,1,1,TOWEL,C,old,m,./images/TOWEL.png,,,,,,,,,,,,,,,,,,,,,,,
,,,,,,,,,,,,,,,,,198916,18,2022-01-28_15h18.55.387,lexical_decision_task_DD_L6,2021.2.3,MacIntel,71.42857143,,,,,,,,,,,0.799,1,,,,,,,,,,,,,,z,1,0.799,,,,,,,,-0.064444444,-0.413333333,0,0,0,,0,52,52,147,1,ZOLES,C,old,z,./images/ZOLES.png,,,,,,,,,,,,,,,,,,,,,,,
,,,,,,,,,,,,,,,,,198916,18,2022-01-28_15h18.55.387,lexical_decision_task_DD_L6,2021.2.3,MacIntel,71.42857143,,,,,,,,,,,0.867,1,,,,,,,,,,,,,,m,1,0.867,,,,,,,,-0.064444444,-0.413333333,0,0,0,,0,53,53,63,1,BAKER,LB,old,m,./images/BAKERLB.png,,,,,,,,,,,,,,,,,,,,,,,
,,,,,,,,,,,,,,,,,198916,18,2022-01-28_15h18.55.387,lexical_decision_task_DD_L6,2021.2.3,MacIntel,71.42857143,,,,,,,,,,,0.817,1,,,,,,,,,,,,,,m,1,0.817,,,,,,,,-0.064444444,-0.413333333,0,0,0,,0,54,54,75,1,HAMMER,LB,old,m,./images/HAMMERLB.png,,,,,,,,,,,,,,,,,,,,,,,
,,,,,,,,,,,,,,,,,198916,18,2022-01-28_15h18.55.387,lexical_decision_task_DD_L6,2021.2.3,MacIntel,71.42857143,,,,,,,,,,,0.916,1,,,,,,,,,,,,,,m,1,0.916,,,,,,,,-0.064444444,-0.413333333,0,0,0,,0,55,55,76,1,MIDGET,C,old,m,./images/MIDGET.png,,,,,,,,,,,,,,,,,,,,,,,
,,,,,,,,,,,,,,,,,198916,18,2022-01-28_15h18.55.387,lexical_decision_task_DD_L6,2021.2.3,MacIntel,71.42857143,,,,,,,,,,,0.627,1,,,,,,,,,,,,,,m,1,0.627,,,,,,,,-0.064444444,-0.413333333,0,0,0,,0,56,56,48,1,SHIELD,LB,old,m,./images/SHIELDLB.png,,,,,,,,,,,,,,,,,,,,,,,
,,,,,,,,,,,,,,,,,198916,18,2022-01-28_15h18.55.387,lexical_decision_task_DD_L6,2021.2.3,MacIntel,71.42857143,,,,,,,,,,,0.616,1,,,,,,,,,,,,,,m,1,0.616,,,,,,,,-0.064444444,-0.413333333,0,0,0,,0,57,57,15,1,COLLAR,LB,old,m,./images/COLLARLB.png,,,,,,,,,,,,,,,,,,,,,,,
,,,,,,,,,,,,,,,,,198916,18,2022-01-28_15h18.55.387,lexical_decision_task_DD_L6,2021.2.3,MacIntel,71.42857143,,,,,,,,,,,0.526,1,,,,,,,,,,,,,,m,1,0.526,,,,,,,,-0.064444444,-0.413333333,0,0,0,,0,58,58,0,1,WALNUT,LB,old,m,./images/WALNUTLB.png,,,,,,,,,,,,,,,,,,,,,,,
,,,,,,,,,,,,,,,,,198916,18,2022-01-28_15h18.55.387,lexical_decision_task_DD_L6,2021.2.3,MacIntel,71.42857143,,,,,,,,,,,0.867,1,,,,,,,,,,,,,,z,1,0.867,,,,,,,,-0.064444444,-0.413333333,0,0,0,,0,59,59,135,1,JOODY,C,old,z,./images/JOODY.png,,,,,,,,,,,,,,,,,,,,,,,
,,,,,,,,,,,,,,,,,198916,18,2022-01-28_15h18.55.387,lexical_decision_task_DD_L6,2021.2.3,MacIntel,71.42857143,,,,,,,,,,,0.649,1,,,,,,,,,,,,,,m,1,0.649,,,,,,,,-0.064444444,-0.413333333,0,0,0,,0,60,60,39,1,CANDY,LB,old,m,./images/CANDYLB.png,,,,,,,,,,,,,,,,,,,,,,,
,,,,,,,,,,,,,,,,,198916,18,2022-01-28_15h18.55.387,lexical_decision_task_DD_L6,2021.2.3,MacIntel,71.42857143,,,,,,,,,,,0.524,1,,,,,,,,,,,,,,z,1,0.524,,,,,,,,-0.064444444,-0.413333333,0,0,0,,0,61,61,140,1,DOVET,LB,old,z,./images/DOVETLB.png,,,,,,,,,,,,,,,,,,,,,,,
,,,,,,,,,,,,,,,,,198916,18,2022-01-28_15h18.55.387,lexical_decision_task_DD_L6,2021.2.3,MacIntel,71.42857143,,,,,,,,,,,0.615,1,,,,,,,,,,,,,,m,1,0.615,,,,,,,,-0.064444444,-0.413333333,0,0,0,,0,62,62,55,1,ALLEY,C,old,m,./images/ALLEY.png,,,,,,,,,,,,,,,,,,,,,,,
,,,,,,,,,,,,,,,,,198916,18,2022-01-28_15h18.55.387,lexical_decision_task_DD_L6,2021.2.3,MacIntel,71.42857143,,,,,,,,,,,0.548,1,,,,,,,,,,,,,,m,1,0.548,,,,,,,,-0.064444444,-0.413333333,0,0,0,,0,63,63,67,1,POKER,C,old,m,./images/POKER.png,,,,,,,,,,,,,,,,,,,,,,,
,,,,,,,,,,,,,,,,,198916,18,2022-01-28_15h18.55.387,lexical_decision_task_DD_L6,2021.2.3,MacIntel,71.42857143,,,,,,,,,,,0.832,1,,,,,,,,,,,,,,z,1,0.832,,,,,,,,-0.064444444,-0.413333333,0,0,0,,0,64,64,104,1,GITTY,LB,old,z,./images/GITTYLB.png,,,,,,,,,,,,,,,,,,,,,,,
,,,,,,,,,,,,,,,,,198916,18,2022-01-28_15h18.55.387,lexical_decision_task_DD_L6,2021.2.3,MacIntel,71.42857143,,,,,,,,,,,0.795,1,,,,,,,,,,,,,,z,1,0.795,,,,,,,,-0.064444444,-0.413333333,0,0,0,,0,65,65,149,1,VEASE,LB,old,z,./images/VEASELB.png,,,,,,,,,,,,,,,,,,,,,,,
,,,,,,,,,,,,,,,,,198916,18,2022-01-28_15h18.55.387,lexical_decision_task_DD_L6,2021.2.3,MacIntel,71.42857143,,,,,,,,,,,0.649,1,,,,,,,,,,,,,,z,1,0.649,,,,,,,,-0.064444444,-0.413333333,0,0,0,,0,66,66,87,1,TRING,C,old,z,./images/TRING.png,,,,,,,,,,,,,,,,,,,,,,,
,,,,,,,,,,,,,,,,,198916,18,2022-01-28_15h18.55.387,lexical_decision_task_DD_L6,2021.2.3,MacIntel,71.42857143,,,,,,,,,,,1.076,1,,,,,,,,,,,,,,z,1,1.076,,,,,,,,-0.064444444,-0.413333333,0,0,0,,0,67,67,100,1,DRIBS,HB,old,z,./images/DRIBSHB.png,,,,,,,,,,,,,,,,,,,,,,,
,,,,,,,,,,,,,,,,,198916,18,2022-01-28_15h18.55.387,lexical_decision_task_DD_L6,2021.2.3,MacIntel,71.42857143,,,,,,,,,,,1.574,1,,,,,,,,,,,,,,m,1,1.574,,,,,,,,-0.064444444,-0.413333333,0,0,0,,0,68,68,74,1,JUMPER,HB,old,m,./images/JUMPERHB.png,,,,,,,,,,,,,,,,,,,,,,,
,,,,,,,,,,,,,,,,,198916,18,2022-01-28_15h18.55.387,lexical_decision_task_DD_L6,2021.2.3,MacIntel,71.42857143,,,,,,,,,,,0.703,1,,,,,,,,,,,,,,m,1,0.703,,,,,,,,-0.064444444,-0.413333333,0,0,0,,0,69,69,82,1,PEBBLE,C,old,m,./images/PEBBLE.png,,,,,,,,,,,,,,,,,,,,,,,
,,,,,,,,,,,,,,,,,198916,18,2022-01-28_15h18.55.387,lexical_decision_task_DD_L6,2021.2.3,MacIntel,71.42857143,,,,,,,,,,,0.647,1,,,,,,,,,,,,,,m,1,0.647,,,,,,,,-0.064444444,-0.413333333,0,0,0,,0,70,70,38,1,ENGINE,HB,old,m,./images/ENGINEHB.png,,,,,,,,,,,,,,,,,,,,,,,
,,,,,,,,,,,,,,,,,198916,18,2022-01-28_15h18.55.387,lexical_decision_task_DD_L6,2021.2.3,MacIntel,71.42857143,,,,,,,,,,,0.564,1,,,,,,,,,,,,,,m,1,0.564,,,,,,,,-0.064444444,-0.413333333,0,0,0,,0,71,71,36,1,BOILER,LB,old,m,./images/BOILERLB.png,,,,,,,,,,,,,,,,,,,,,,,
,,,,,,,,,,,,,,,,,198916,18,2022-01-28_15h18.55.387,lexical_decision_task_DD_L6,2021.2.3,MacIntel,71.42857143,,,,,,,,,,,0.96,1,,,,,,,,,,,,,,m,1,0.96,,,,,,,,-0.064444444,-0.413333333,0,0,0,,0,72,72,71,1,BUBBLE,HB,old,m,./images/BUBBLEHB.png,,,,,,,,,,,,,,,,,,,,,,,
,,,,,,,,,,,,,,,,,198916,18,2022-01-28_15h18.55.387,lexical_decision_task_DD_L6,2021.2.3,MacIntel,71.42857143,,,,,,,,,,,0.828,1,,,,,,,,,,,,,,z,1,0.828,,,,,,,,-0.064444444,-0.413333333,0,0,0,,0,73,73,118,1,BAVEL,HB,old,z,./images/BAVELHB.png,,,,,,,,,,,,,,,,,,,,,,,
,,,,,,,,,,,,,,,,,198916,18,2022-01-28_15h18.55.387,lexical_decision_task_DD_L6,2021.2.3,MacIntel,71.42857143,,,,,,,,,,,0.65,1,,,,,,,,,,,,,,m,1,0.65,,,,,,,,-0.064444444,-0.413333333,0,0,0,,0,74,74,70,1,BANANA,C,old,m,./images/BANANA.png,,,,,,,,,,,,,,,,,,,,,,,
,,,,,,,,,,,,,,,,,198916,18,2022-01-28_15h18.55.387,lexical_decision_task_DD_L6,2021.2.3,MacIntel,71.42857143,,,,,,,,,,,0.82,1,,,,,,,,,,,,,,z,1,0.82,,,,,,,,-0.064444444,-0.413333333,0,0,0,,0,75,75,111,1,HOSSE,C,old,z,./images/HOSSE.png,,,,,,,,,,,,,,,,,,,,,,,
,,,,,,,,,,,,,,,,,198916,18,2022-01-28_15h18.55.387,lexical_decision_task_DD_L6,2021.2.3,MacIntel,71.42857143,,,,,,,,,,,0.647,1,,,,,,,,,,,,,,m,1,0.647,,,,,,,,-0.064444444,-0.413333333,0,0,0,,0,76,76,34,1,RAZOR,C,old,m,./images/RAZOR.png,,,,,,,,,,,,,,,,,,,,,,,
,,,,,,,,,,,,,,,,,198916,18,2022-01-28_15h18.55.387,lexical_decision_task_DD_L6,2021.2.3,MacIntel,71.42857143,,,,,,,,,,,0.651,1,,,,,,,,,,,,,,z,1,0.651,,,,,,,,-0.064444444,-0.413333333,0,0,0,,0,77,77,110,1,CRUNK,LB,old,z,./images/CRUNKLB.png,,,,,,,,,,,,,,,,,,,,,,,
,,,,,,,,,,,,,,,,,198916,18,2022-01-28_15h18.55.387,lexical_decision_task_DD_L6,2021.2.3,MacIntel,71.42857143,,,,,,,,,,,0.864,1,,,,,,,,,,,,,,z,1,0.864,,,,,,,,-0.064444444,-0.413333333,0,0,0,,0,78,78,145,1,LAMEL,HB,old,z,./images/LAMELHB.png,,,,,,,,,,,,,,,,,,,,,,,
,,,,,,,,,,,,,,,,,198916,18,2022-01-28_15h18.55.387,lexical_decision_task_DD_L6,2021.2.3,MacIntel,71.42857143,,,,,,,,,,,0.633,1,,,,,,,,,,,,,,m,1,0.633,,,,,,,,-0.064444444,-0.413333333,0,0,0,,0,79,79,11,1,MEDAL,HB,old,m,./images/MEDALHB.png,,,,,,,,,,,,,,,,,,,,,,,
,,,,,,,,,,,,,,,,,198916,18,2022-01-28_15h18.55.387,lexical_decision_task_DD_L6,2021.2.3,MacIntel,71.42857143,,,,,,,,,,,0.667,1,,,,,,,,,,,,,,z,1,0.667,,,,,,,,-0.064444444,-0.413333333,0,0,0,,0,80,80,122,1,BLOOT,LB,old,z,./images/BLOOTLB.png,,,,,,,,,,,,,,,,,,,,,,,
,,,,,,,,,,,,,,,,,198916,18,2022-01-28_15h18.55.387,lexical_decision_task_DD_L6,2021.2.3,MacIntel,71.42857143,,,,,,,,,,,0.646,0,,,,,,,,,,,,,,z,0,0.646,,,,,,,,-0.064444444,-0.413333333,0,0,0,,0,81,81,5,1,BAMBOO,HB,old,m,./images/BAMBOOHB.png,,,,,,,,,,,,,,,,,,,,,,,
,,,,,,,,,,,,,,,,,198916,18,2022-01-28_15h18.55.387,lexical_decision_task_DD_L6,2021.2.3,MacIntel,71.42857143,,,,,,,,,,,0.847,1,,,,,,,,,,,,,,z,1,0.847,,,,,,,,-0.064444444,-0.413333333,0,0,0,,0,82,82,159,1,CUDDY,C,old,z,./images/CUDDY.png,,,,,,,,,,,,,,,,,,,,,,,
,,,,,,,,,,,,,,,,,198916,18,2022-01-28_15h18.55.387,lexical_decision_task_DD_L6,2021.2.3,MacIntel,71.42857143,,,,,,,,,,,0.747,1,,,,,,,,,,,,,,z,1,0.747,,,,,,,,-0.064444444,-0.405555556,1,0,0,,0,83,83,158,1,EGECT,LB,old,z,./images/EGECTLB.png,break_done_button,,,,,,,,,,,,,,,,,,,,,,
,,,,,,,,,,,,,,,,,198916,18,2022-01-28_15h18.55.387,lexical_decision_task_DD_L6,2021.2.3,MacIntel,71.42857143,,,,,,,,,,,0.969,1,,,,,,,,,,,,,,z,1,0.969,,,,,,,,-0.064444444,-0.405555556,0,0,0,,0,84,84,154,1,THINT,HB,old,z,./images/THINTHB.png,,,,,,,,,,,,,,,,,,,,,,,
,,,,,,,,,,,,,,,,,198916,18,2022-01-28_15h18.55.387,lexical_decision_task_DD_L6,2021.2.3,MacIntel,71.42857143,,,,,,,,,,,0.648,1,,,,,,,,,,,,,,z,1,0.648,,,,,,,,-0.064444444,-0.405555556,0,0,0,,0,85,85,119,1,PAFER,LB,old,z,./images/PAFERLB.png,,,,,,,,,,,,,,,,,,,,,,,
,,,,,,,,,,,,,,,,,198916,18,2022-01-28_15h18.55.387,lexical_decision_task_DD_L6,2021.2.3,MacIntel,71.42857143,,,,,,,,,,,0.507,1,,,,,,,,,,,,,,z,1,0.507,,,,,,,,-0.064444444,-0.405555556,0,0,0,,0,86,86,99,1,BACKY,C,old,z,./images/BACKY.png,,,,,,,,,,,,,,,,,,,,,,,
,,,,,,,,,,,,,,,,,198916,18,2022-01-28_15h18.55.387,lexical_decision_task_DD_L6,2021.2.3,MacIntel,71.42857143,,,,,,,,,,,1.457,1,,,,,,,,,,,,,,z,1,1.457,,,,,,,,-0.064444444,-0.405555556,0,0,0,,0,87,87,157,1,INLER,HB,old,z,./images/INLERHB.png,,,,,,,,,,,,,,,,,,,,,,,
,,,,,,,,,,,,,,,,,198916,18,2022-01-28_15h18.55.387,lexical_decision_task_DD_L6,2021.2.3,MacIntel,71.42857143,,,,,,,,,,,0.549,1,,,,,,,,,,,,,,m,1,0.549,,,,,,,,-0.064444444,-0.405555556,0,0,0,,0,88,88,51,1,SAUCE,LB,old,m,./images/SAUCELB.png,,,,,,,,,,,,,,,,,,,,,,,
,,,,,,,,,,,,,,,,,198916,18,2022-01-28_15h18.55.387,lexical_decision_task_DD_L6,2021.2.3,MacIntel,71.42857143,,,,,,,,,,,0.612,1,,,,,,,,,,,,,,z,1,0.612,,,,,,,,-0.064444444,-0.405555556,0,0,0,,0,89,89,113,1,LINEW,LB,old,z,./images/LINEWLB.png,,,,,,,,,,,,,,,,,,,,,,,
,,,,,,,,,,,,,,,,,198916,18,2022-01-28_15h18.55.387,lexical_decision_task_DD_L6,2021.2.3,MacIntel,71.42857143,,,,,,,,,,,0.585,1,,,,,,,,,,,,,,z,1,0.585,,,,,,,,-0.064444444,-0.405555556,0,0,0,,0,90,90,96,1,KEAMS,C,old,z,./images/KEAMS.png,,,,,,,,,,,,,,,,,,,,,,,
,,,,,,,,,,,,,,,,,198916,18,2022-01-28_15h18.55.387,lexical_decision_task_DD_L6,2021.2.3,MacIntel,71.42857143,,,,,,,,,,,0.817,1,,,,,,,,,,,,,,m,1,0.817,,,,,,,,-0.064444444,-0.405555556,0,0,0,,0,91,91,59,1,BRUSH,HB,old,m,./images/BRUSHHB.png,,,,,,,,,,,,,,,,,,,,,,,
,,,,,,,,,,,,,,,,,198916,18,2022-01-28_15h18.55.387,lexical_decision_task_DD_L6,2021.2.3,MacIntel,71.42857143,,,,,,,,,,,0.596,1,,,,,,,,,,,,,,z,1,0.596,,,,,,,,-0.064444444,-0.405555556,0,0,0,,0,92,92,98,1,BAMPS,LB,old,z,./images/BAMPSLB.png,,,,,,,,,,,,,,,,,,,,,,,
,,,,,,,,,,,,,,,,,198916,18,2022-01-28_15h18.55.387,lexical_decision_task_DD_L6,2021.2.3,MacIntel,71.42857143,,,,,,,,,,,0.63,1,,,,,,,,,,,,,,m,1,0.63,,,,,,,,-0.064444444,-0.405555556,0,0,0,,0,93,93,77,1,WHEEL,HB,old,m,./images/WHEELHB.png,,,,,,,,,,,,,,,,,,,,,,,
,,,,,,,,,,,,,,,,,198916,18,2022-01-28_15h18.55.387,lexical_decision_task_DD_L6,2021.2.3,MacIntel,71.42857143,,,,,,,,,,,0.576,1,,,,,,,,,,,,,,z,1,0.576,,,,,,,,-0.064444444,-0.405555556,0,0,0,,0,94,94,164,1,SGREW,LB,old,z,./images/SGREWLB.png,,,,,,,,,,,,,,,,,,,,,,,
,,,,,,,,,,,,,,,,,198916,18,2022-01-28_15h18.55.387,lexical_decision_task_DD_L6,2021.2.3,MacIntel,71.42857143,,,,,,,,,,,0.706,1,,,,,,,,,,,,,,m,1,0.706,,,,,,,,-0.064444444,-0.405555556,0,0,0,,0,95,95,14,1,FENCE,HB,old,m,./images/FENCEHB.png,,,,,,,,,,,,,,,,,,,,,,,
,,,,,,,,,,,,,,,,,198916,18,2022-01-28_15h18.55.387,lexical_decision_task_DD_L6,2021.2.3,MacIntel,71.42857143,,,,,,,,,,,0.533,1,,,,,,,,,,,,,,z,1,0.533,,,,,,,,-0.064444444,-0.405555556,0,0,0,,0,96,96,101,1,GLEET,LB,old,z,./images/GLEETLB.png,,,,,,,,,,,,,,,,,,,,,,,
,,,,,,,,,,,,,,,,,198916,18,2022-01-28_15h18.55.387,lexical_decision_task_DD_L6,2021.2.3,MacIntel,71.42857143,,,,,,,,,,,0.627,1,,,,,,,,,,,,,,z,1,0.627,,,,,,,,-0.064444444,-0.405555556,0,0,0,,0,97,97,133,1,POWDY,HB,old,z,./images/POWDYHB.png,,,,,,,,,,,,,,,,,,,,,,,
,,,,,,,,,,,,,,,,,198916,18,2022-01-28_15h18.55.387,lexical_decision_task_DD_L6,2021.2.3,MacIntel,71.42857143,,,,,,,,,,,0.643,1,,,,,,,,,,,,,,z,1,0.643,,,,,,,,-0.064444444,-0.405555556,0,0,0,,0,98,98,84,1,HAXES,C,old,z,./images/HAXES.png,,,,,,,,,,,,,,,,,,,,,,,
,,,,,,,,,,,,,,,,,198916,18,2022-01-28_15h18.55.387,lexical_decision_task_DD_L6,2021.2.3,MacIntel,71.42857143,,,,,,,,,,,0.756,1,,,,,,,,,,,,,,m,1,0.756,,,,,,,,-0.064444444,-0.405555556,0,0,0,,0,99,99,16,1,GRAPE,C,old,m,./images/GRAPE.png,,,,,,,,,,,,,,,,,,,,,,,
,,,,,,,,,,,,,,,,,198916,18,2022-01-28_15h18.55.387,lexical_decision_task_DD_L6,2021.2.3,MacIntel,71.42857143,,,,,,,,,,,0.609,1,,,,,,,,,,,,,,z,1,0.609,,,,,,,,-0.064444444,-0.405555556,0,0,0,,0,100,100,126,1,GUELS,C,old,z,./images/GUELS.png,,,,,,,,,,,,,,,,,,,,,,,
,,,,,,,,,,,,,,,,,198916,18,2022-01-28_15h18.55.387,lexical_decision_task_DD_L6,2021.2.3,MacIntel,71.42857143,,,,,,,,,,,0.88,1,,,,,,,,,,,,,,m,1,0.88,,,,,,,,-0.064444444,-0.405555556,0,0,0,,0,101,101,68,1,VALLEY,HB,old,m,./images/VALLEYHB.png,,,,,,,,,,,,,,,,,,,,,,,
,,,,,,,,,,,,,,,,,198916,18,2022-01-28_15h18.55.387,lexical_decision_task_DD_L6,2021.2.3,MacIntel,71.42857143,,,,,,,,,,,0.547,1,,,,,,,,,,,,,,z,1,0.547,,,,,,,,-0.064444444,-0.405555556,0,0,0,,0,102,102,117,1,STEEG,C,old,z,./images/STEEG.png,,,,,,,,,,,,,,,,,,,,,,,
,,,,,,,,,,,,,,,,,198916,18,2022-01-28_15h18.55.387,lexical_decision_task_DD_L6,2021.2.3,MacIntel,71.42857143,,,,,,,,,,,0.649,1,,,,,,,,,,,,,,m,1,0.649,,,,,,,,-0.064444444,-0.405555556,0,0,0,,0,103,103,79,1,RULER,C,old,m,./images/RULER.png,,,,,,,,,,,,,,,,,,,,,,,
,,,,,,,,,,,,,,,,,198916,18,2022-01-28_15h18.55.387,lexical_decision_task_DD_L6,2021.2.3,MacIntel,71.42857143,,,,,,,,,,,0.639,0,,,,,,,,,,,,,,z,0,0.639,,,,,,,,-0.064444444,-0.405555556,0,0,0,,0,104,104,28,1,CASINO,C,old,m,./images/CASINO.png,,,,,,,,,,,,,,,,,,,,,,,
,,,,,,,,,,,,,,,,,198916,18,2022-01-28_15h18.55.387,lexical_decision_task_DD_L6,2021.2.3,MacIntel,71.42857143,,,,,,,,,,,0.834,1,,,,,,,,,,,,,,m,1,0.834,,,,,,,,-0.064444444,-0.405555556,0,0,0,,0,105,105,52,1,DESERT,C,old,m,./images/DESERT.png,,,,,,,,,,,,,,,,,,,,,,,
,,,,,,,,,,,,,,,,,198916,18,2022-01-28_15h18.55.387,lexical_decision_task_DD_L6,2021.2.3,MacIntel,71.42857143,,,,,,,,,,,0.734,1,,,,,,,,,,,,,,m,1,0.734,,,,,,,,-0.064444444,-0.405555556,0,0,0,,0,106,106,9,1,DIVER,LB,old,m,./images/DIVERLB.png,,,,,,,,,,,,,,,,,,,,,,,
,,,,,,,,,,,,,,,,,198916,18,2022-01-28_15h18.55.387,lexical_decision_task_DD_L6,2021.2.3,MacIntel,71.42857143,,,,,,,,,,,0.773,1,,,,,,,,,,,,,,m,1,0.773,,,,,,,,-0.064444444,-0.405555556,0,0,0,,0,107,107,26,1,CLOUD,HB,old,m,./images/CLOUDHB.png,,,,,,,,,,,,,,,,,,,,,,,
,,,,,,,,,,,,,,,,,198916,18,2022-01-28_15h18.55.387,lexical_decision_task_DD_L6,2021.2.3,MacIntel,71.42857143,,,,,,,,,,,1.136,1,,,,,,,,,,,,,,m,1,1.136,,,,,,,,-0.064444444,-0.405555556,0,0,0,,0,108,108,20,1,GRANNY,HB,old,m,./images/GRANNYHB.png,,,,,,,,,,,,,,,,,,,,,,,
,,,,,,,,,,,,,,,,,198916,18,2022-01-28_15h18.55.387,lexical_decision_task_DD_L6,2021.2.3,MacIntel,71.42857143,,,,,,,,,,,0.684,1,,,,,,,,,,,,,,z,1,0.684,,,,,,,,-0.064444444,-0.405555556,0,0,0,,0,109,109,114,1,RIKES,C,old,z,./images/RIKES.png,,,,,,,,,,,,,,,,,,,,,,,
,,,,,,,,,,,,,,,,,198916,18,2022-01-28_15h18.55.387,lexical_decision_task_DD_L6,2021.2.3,MacIntel,71.42857143,,,,,,,,,,,0.635,0,,,,,,,,,,,,,,m,0,0.635,,,,,,,,-0.064444444,-0.405555556,0,0,0,,0,110,110,153,1,CLUPS,C,old,z,./images/CLUPS.png,,,,,,,,,,,,,,,,,,,,,,,
,,,,,,,,,,,,,,,,,198916,18,2022-01-28_15h18.55.387,lexical_decision_task_DD_L6,2021.2.3,MacIntel,71.42857143,,,,,,,,,,,0.786,1,,,,,,,,,,,,,,m,1,0.786,,,,,,,,-0.064444444,-0.405555556,0,0,0,,0,111,111,65,1,SPINE,HB,old,m,./images/SPINEHB.png,,,,,,,,,,,,,,,,,,,,,,,
,,,,,,,,,,,,,,,,,198916,18,2022-01-28_15h18.55.387,lexical_decision_task_DD_L6,2021.2.3,MacIntel,71.42857143,,,,,,,,,,,0.801,1,,,,,,,,,,,,,,z,1,0.801,,,,,,,,-0.064444444,-0.405555556,0,0,0,,0,112,112,123,1,SEDGE,C,old,z,./images/SEDGE.png,,,,,,,,,,,,,,,,,,,,,,,
,,,,,,,,,,,,,,,,,198916,18,2022-01-28_15h18.55.387,lexical_decision_task_DD_L6,2021.2.3,MacIntel,71.42857143,,,,,,,,,,,1.17,1,,,,,,,,,,,,,,z,1,1.17,,,,,,,,-0.064444444,-0.405555556,0,0,0,,0,113,113,142,1,PLASK,HB,old,z,./images/PLASKHB.png,,,,,,,,,,,,,,,,,,,,,,,
,,,,,,,,,,,,,,,,,198916,18,2022-01-28_15h18.55.387,lexical_decision_task_DD_L6,2021.2.3,MacIntel,71.42857143,,,,,,,,,,,0.995,1,,,,,,,,,,,,,,z,1,0.995,,,,,,,,-0.064444444,-0.405555556,0,0,0,,0,114,114,91,1,SHENS,HB,old,z,./images/SHENSHB.png,,,,,,,,,,,,,,,,,,,,,,,
,,,,,,,,,,,,,,,,,198916,18,2022-01-28_15h18.55.387,lexical_decision_task_DD_L6,2021.2.3,MacIntel,71.42857143,,,,,,,,,,,0.88,1,,,,,,,,,,,,,,m,1,0.88,,,,,,,,-0.064444444,-0.405555556,0,0,0,,0,115,115,17,1,PARADE,HB,old,m,./images/PARADEHB.png,,,,,,,,,,,,,,,,,,,,,,,
,,,,,,,,,,,,,,,,,198916,18,2022-01-28_15h18.55.387,lexical_decision_task_DD_L6,2021.2.3,MacIntel,71.42857143,,,,,,,,,,,0.651,1,,,,,,,,,,,,,,z,1,0.651,,,,,,,,-0.064444444,-0.405555556,0,0,0,,0,116,116,161,1,BLAPS,LB,old,z,./images/BLAPSLB.png,,,,,,,,,,,,,,,,,,,,,,,
,,,,,,,,,,,,,,,,,198916,18,2022-01-28_15h18.55.387,lexical_decision_task_DD_L6,2021.2.3,MacIntel,71.42857143,,,,,,,,,,,0.806,1,,,,,,,,,,,,,,z,1,0.806,,,,,,,,-0.064444444,-0.405555556,0,0,0,,0,117,117,92,1,PAIMS,LB,old,z,./images/PAIMSLB.png,,,,,,,,,,,,,,,,,,,,,,,
,,,,,,,,,,,,,,,,,198916,18,2022-01-28_15h18.55.387,lexical_decision_task_DD_L6,2021.2.3,MacIntel,71.42857143,,,,,,,,,,,0.637,1,,,,,,,,,,,,,,m,1,0.637,,,,,,,,-0.064444444,-0.405555556,0,0,0,,0,118,118,37,1,TIGER,C,old,m,./images/TIGER.png,,,,,,,,,,,,,,,,,,,,,,,
,,,,,,,,,,,,,,,,,198916,18,2022-01-28_15h18.55.387,lexical_decision_task_DD_L6,2021.2.3,MacIntel,71.42857143,,,,,,,,,,,0.602,1,,,,,,,,,,,,,,z,1,0.602,,,,,,,,-0.064444444,-0.405555556,0,0,0,,0,119,119,102,1,DULLE,C,old,z,./images/DULLE.png,,,,,,,,,,,,,,,,,,,,,,,
,,,,,,,,,,,,,,,,,198916,18,2022-01-28_15h18.55.387,lexical_decision_task_DD_L6,2021.2.3,MacIntel,71.42857143,,,,,,,,,,,0.642,1,,,,,,,,,,,,,,m,1,0.642,,,,,,,,-0.064444444,-0.405555556,0,0,0,,0,120,120,4,1,BOXER,C,old,m,./images/BOXER.png,,,,,,,,,,,,,,,,,,,,,,,
,,,,,,,,,,,,,,,,,198916,18,2022-01-28_15h18.55.387,lexical_decision_task_DD_L6,2021.2.3,MacIntel,71.42857143,,,,,,,,,,,1.811,1,,,,,,,,,,,,,,z,1,1.811,,,,,,,,-0.064444444,-0.405555556,0,0,0,,0,121,121,151,1,TINKY,HB,old,z,./images/TINKYHB.png,,,,,,,,,,,,,,,,,,,,,,,
,,,,,,,,,,,,,,,,,198916,18,2022-01-28_15h18.55.387,lexical_decision_task_DD_L6,2021.2.3,MacIntel,71.42857143,,,,,,,,,,,0.629,1,,,,,,,,,,,,,,m,1,0.629,,,,,,,,-0.064444444,-0.405555556,0,0,0,,0,122,122,6,1,STAIN,LB,old,m,./images/STAINLB.png,,,,,,,,,,,,,,,,,,,,,,,
,,,,,,,,,,,,,,,,,198916,18,2022-01-28_15h18.55.387,lexical_decision_task_DD_L6,2021.2.3,MacIntel,71.42857143,,,,,,,,,,,0.653,1,,,,,,,,,,,,,,m,1,0.653,,,,,,,,-0.064444444,-0.405555556,0,0,0,,0,123,123,2,1,STOVE,HB,old,m,./images/STOVEHB.png,,,,,,,,,,,,,,,,,,,,,,,
,,,,,,,,,,,,,,,,,198916,18,2022-01-28_15h18.55.387,lexical_decision_task_DD_L6,2021.2.3,MacIntel,71.42857143,,,,,,,,,,,0.974,1,,,,,,,,,,,,,,z,1,0.974,,,,,,,,-0.064444444,-0.405555556,0,0,0,,0,124,124,129,1,PRANS,C,old,z,./images/PRANS.png,,,,,,,,,,,,,,,,,,,,,,,
,,,,,,,,,,,,,,,,,198916,18,2022-01-28_15h18.55.387,lexical_decision_task_DD_L6,2021.2.3,MacIntel,71.42857143,,,,,,,,,,,0.665,1,,,,,,,,,,,,,,m,1,0.665,,,,,,,,-0.064444444,-0.405555556,0,0,0,space,0,125,125,49,1,BISHOP,C,old,m,./images/BISHOP.png,,7.016,,,,,,,,,,,,,,,,,,,,,
,,,,,,,,,,,,,,,,,198916,18,2022-01-28_15h18.55.387,lexical_decision_task_DD_L6,2021.2.3,MacIntel,71.42857143,,,,,,,,,,,0.634,1,,,,,,,,,,,,,,m,1,0.634,,,,,,,,-0.064444444,-0.405555556,0,0,0,,0,126,126,7,1,WAGON,C,old,m,./images/WAGON.png,,,,,,,,,,,,,,,,,,,,,,,
,,,,,,,,,,,,,,,,,198916,18,2022-01-28_15h18.55.387,lexical_decision_task_DD_L6,2021.2.3,MacIntel,71.42857143,,,,,,,,,,,0.68,1,,,,,,,,,,,,,,z,1,0.68,,,,,,,,-0.064444444,-0.405555556,0,0,0,,0,127,127,90,1,NEAST,C,old,z,./images/NEAST.png,,,,,,,,,,,,,,,,,,,,,,,
,,,,,,,,,,,,,,,,,198916,18,2022-01-28_15h18.55.387,lexical_decision_task_DD_L6,2021.2.3,MacIntel,71.42857143,,,,,,,,,,,0.508,1,,,,,,,,,,,,,,m,1,0.508,,,,,,,,-0.064444444,-0.405555556,0,0,0,,0,128,128,61,1,ARTIST,C,old,m,./images/ARTIST.png,,,,,,,,,,,,,,,,,,,,,,,
,,,,,,,,,,,,,,,,,198916,18,2022-01-28_15h18.55.387,lexical_decision_task_DD_L6,2021.2.3,MacIntel,71.42857143,,,,,,,,,,,0.932,1,,,,,,,,,,,,,,z,1,0.932,,,,,,,,-0.064444444,-0.405555556,0,0,0,,0,129,129,85,1,CHULK,HB,old,z,./images/CHULKHB.png,,,,,,,,,,,,,,,,,,,,,,,
,,,,,,,,,,,,,,,,,198916,18,2022-01-28_15h18.55.387,lexical_decision_task_DD_L6,2021.2.3,MacIntel,71.42857143,,,,,,,,,,,1.131,1,,,,,,,,,,,,,,m,1,1.131,,,,,,,,-0.064444444,-0.405555556,0,0,0,,0,130,130,18,1,PARCEL,LB,old,m,./images/PARCELLB.png,,,,,,,,,,,,,,,,,,,,,,,
,,,,,,,,,,,,,,,,,198916,18,2022-01-28_15h18.55.387,lexical_decision_task_DD_L6,2021.2.3,MacIntel,71.42857143,,,,,,,,,,,1.142,1,,,,,,,,,,,,,,m,1,1.142,,,,,,,,-0.064444444,-0.405555556,0,0,0,,0,131,131,21,1,DANCER,LB,old,m,./images/DANCERLB.png,,,,,,,,,,,,,,,,,,,,,,,
,,,,,,,,,,,,,,,,,198916,18,2022-01-28_15h18.55.387,lexical_decision_task_DD_L6,2021.2.3,MacIntel,71.42857143,,,,,,,,,,,0.817,1,,,,,,,,,,,,,,m,1,0.817,,,,,,,,-0.064444444,-0.405555556,0,0,0,,0,132,132,80,1,PLANET,HB,old,m,./images/PLANETHB.png,,,,,,,,,,,,,,,,,,,,,,,
,,,,,,,,,,,,,,,,,198916,18,2022-01-28_15h18.55.387,lexical_decision_task_DD_L6,2021.2.3,MacIntel,71.42857143,,,,,,,,,,,0.764,1,,,,,,,,,,,,,,m,1,0.764,,,,,,,,-0.064444444,-0.405555556,0,0,0,,0,133,133,3,1,CRATER,LB,old,m,./images/CRATERLB.png,,,,,,,,,,,,,,,,,,,,,,,
,,,,,,,,,,,,,,,,,198916,18,2022-01-28_15h18.55.387,lexical_decision_task_DD_L6,2021.2.3,MacIntel,71.42857143,,,,,,,,,,,0.632,1,,,,,,,,,,,,,,m,1,0.632,,,,,,,,-0.064444444,-0.405555556,0,0,0,,0,134,134,45,1,MONKEY,LB,old,m,./images/MONKEYLB.png,,,,,,,,,,,,,,,,,,,,,,,
,,,,,,,,,,,,,,,,,198916,18,2022-01-28_15h18.55.387,lexical_decision_task_DD_L6,2021.2.3,MacIntel,71.42857143,,,,,,,,,,,0.617,1,,,,,,,,,,,,,,z,1,0.617,,,,,,,,-0.064444444,-0.405555556,0,0,0,,0,135,135,89,1,DRIEK,LB,old,z,./images/DRIEKLB.png,,,,,,,,,,,,,,,,,,,,,,,
,,,,,,,,,,,,,,,,,198916,18,2022-01-28_15h18.55.387,lexical_decision_task_DD_L6,2021.2.3,MacIntel,71.42857143,,,,,,,,,,,1.095,1,,,,,,,,,,,,,,m,1,1.095,,,,,,,,-0.064444444,-0.405555556,0,0,0,,0,136,136,53,1,POSTER,HB,old,m,./images/POSTERHB.png,,,,,,,,,,,,,,,,,,,,,,,
,,,,,,,,,,,,,,,,,198916,18,2022-01-28_15h18.55.387,lexical_decision_task_DD_L6,2021.2.3,MacIntel,71.42857143,,,,,,,,,,,1.084,1,,,,,,,,,,,,,,z,1,1.084,,,,,,,,-0.064444444,-0.405555556,0,0,0,,0,137,137,121,1,CEERS,HB,old,z,./images/CEERSHB.png,,,,,,,,,,,,,,,,,,,,,,,
,,,,,,,,,,,,,,,,,198916,18,2022-01-28_15h18.55.387,lexical_decision_task_DD_L6,2021.2.3,MacIntel,71.42857143,,,,,,,,,,,0.777,1,,,,,,,,,,,,,,z,1,0.777,,,,,,,,-0.064444444,-0.405555556,0,0,0,,0,138,138,86,1,AIFED,LB,old,z,./images/AIFEDLB.png,,,,,,,,,,,,,,,,,,,,,,,
,,,,,,,,,,,,,,,,,198916,18,2022-01-28_15h18.55.387,lexical_decision_task_DD_L6,2021.2.3,MacIntel,71.42857143,,,,,,,,,,,1.006,1,,,,,,,,,,,,,,z,1,1.006,,,,,,,,-0.064444444,-0.405555556,0,0,0,,0,139,139,115,1,MAWNS,HB,old,z,./images/MAWNSHB.png,,,,,,,,,,,,,,,,,,,,,,,
,,,,,,,,,,,,,,,,,198916,18,2022-01-28_15h18.55.387,lexical_decision_task_DD_L6,2021.2.3,MacIntel,71.42857143,,,,,,,,,,,0.571,1,,,,,,,,,,,,,,m,1,0.571,,,,,,,,-0.064444444,-0.405555556,0,0,0,,0,140,140,27,1,BUTTER,LB,old,m,./images/BUTTERLB.png,,,,,,,,,,,,,,,,,,,,,,,
,,,,,,,,,,,,,,,,,198916,18,2022-01-28_15h18.55.387,lexical_decision_task_DD_L6,2021.2.3,MacIntel,71.42857143,,,,,,,,,,,0.964,1,,,,,,,,,,,,,,z,1,0.964,,,,,,,,-0.064444444,-0.405555556,0,0,0,,0,141,141,109,1,BURGE,HB,old,z,./images/BURGEHB.png,,,,,,,,,,,,,,,,,,,,,,,
,,,,,,,,,,,,,,,,,198916,18,2022-01-28_15h18.55.387,lexical_decision_task_DD_L6,2021.2.3,MacIntel,71.42857143,,,,,,,,,,,0.769,1,,,,,,,,,,,,,,m,1,0.769,,,,,,,,-0.064444444,-0.405555556,0,0,0,,0,142,142,8,1,CLIFF,HB,old,m,./images/CLIFFHB.png,,,,,,,,,,,,,,,,,,,,,,,
,,,,,,,,,,,,,,,,,198916,18,2022-01-28_15h18.55.387,lexical_decision_task_DD_L6,2021.2.3,MacIntel,71.42857143,,,,,,,,,,,0.978,1,,,,,,,,,,,,,,z,1,0.978,,,,,,,,-0.064444444,-0.405555556,0,0,0,,0,143,143,103,1,FLORT,HB,old,z,./images/FLORTHB.png,,,,,,,,,,,,,,,,,,,,,,,
,,,,,,,,,,,,,,,,,198916,18,2022-01-28_15h18.55.387,lexical_decision_task_DD_L6,2021.2.3,MacIntel,71.42857143,,,,,,,,,,,0.701,1,,,,,,,,,,,,,,m,1,0.701,,,,,,,,-0.064444444,-0.405555556,0,0,0,,0,144,144,64,1,BRIDE,C,old,m,./images/BRIDE.png,,,,,,,,,,,,,,,,,,,,,,,
,,,,,,,,,,,,,,,,,198916,18,2022-01-28_15h18.55.387,lexical_decision_task_DD_L6,2021.2.3,MacIntel,71.42857143,,,,,,,,,,,0.575,1,,,,,,,,,,,,,,m,1,0.575,,,,,,,,-0.064444444,-0.405555556,0,0,0,,0,145,145,13,1,BUNNY,C,old,m,./images/BUNNY.png,,,,,,,,,,,,,,,,,,,,,,,
,,,,,,,,,,,,,,,,,198916,18,2022-01-28_15h18.55.387,lexical_decision_task_DD_L6,2021.2.3,MacIntel,71.42857143,,,,,,,,,,,1.033,1,,,,,,,,,,,,,,z,1,1.033,,,,,,,,-0.064444444,-0.405555556,0,0,0,,0,146,146,148,1,JOMS,HB,old,z,./images/JOMSHB.png,,,,,,,,,,,,,,,,,,,,,,,
,,,,,,,,,,,,,,,,,198916,18,2022-01-28_15h18.55.387,lexical_decision_task_DD_L6,2021.2.3,MacIntel,71.42857143,,,,,,,,,,,0.565,1,,,,,,,,,,,,,,z,1,0.565,,,,,,,,-0.064444444,-0.405555556,0,0,0,,0,147,147,167,1,ZONET,LB,old,z,./images/ZONETLB.png,,,,,,,,,,,,,,,,,,,,,,,
,,,,,,,,,,,,,,,,,198916,18,2022-01-28_15h18.55.387,lexical_decision_task_DD_L6,2021.2.3,MacIntel,71.42857143,,,,,,,,,,,0.999,1,,,,,,,,,,,,,,z,1,0.999,,,,,,,,-0.064444444,-0.405555556,0,0,0,,0,148,148,130,1,CRILL,HB,old,z,./images/CRILLHB.png,,,,,,,,,,,,,,,,,,,,,,,
,,,,,,,,,,,,,,,,,198916,18,2022-01-28_15h18.55.387,lexical_decision_task_DD_L6,2021.2.3,MacIntel,71.42857143,,,,,,,,,,,0.917,1,,,,,,,,,,,,,,m,1,0.917,,,,,,,,-0.064444444,-0.405555556,0,0,0,,0,149,149,57,1,FERRY,LB,old,m,./images/FERRYLB.png,,,,,,,,,,,,,,,,,,,,,,,
,,,,,,,,,,,,,,,,,198916,18,2022-01-28_15h18.55.387,lexical_decision_task_DD_L6,2021.2.3,MacIntel,71.42857143,,,,,,,,,,,1.41,1,,,,,,,,,,,,,,z,1,1.41,,,,,,,,-0.064444444,-0.405555556,0,0,0,,0,150,150,112,1,MYING,HB,old,z,./images/MYINGHB.png,,,,,,,,,,,,,,,,,,,,,,,
,,,,,,,,,,,,,,,,,198916,18,2022-01-28_15h18.55.387,lexical_decision_task_DD_L6,2021.2.3,MacIntel,71.42857143,,,,,,,,,,,0.615,1,,,,,,,,,,,,,,m,1,0.615,,,,,,,,-0.064444444,-0.405555556,0,0,0,,0,151,151,78,1,BROOM,LB,old,m,./images/BROOMLB.png,,,,,,,,,,,,,,,,,,,,,,,
,,,,,,,,,,,,,,,,,198916,18,2022-01-28_15h18.55.387,lexical_decision_task_DD_L6,2021.2.3,MacIntel,71.42857143,,,,,,,,,,,0.621,1,,,,,,,,,,,,,,z,1,0.621,,,,,,,,-0.064444444,-0.405555556,0,0,0,,0,152,152,93,1,SMONE,C,old,z,./images/SMONE.png,,,,,,,,,,,,,,,,,,,,,,,
,,,,,,,,,,,,,,,,,198916,18,2022-01-28_15h18.55.387,lexical_decision_task_DD_L6,2021.2.3,MacIntel,71.42857143,,,,,,,,,,,0.898,1,,,,,,,,,,,,,,z,1,0.898,,,,,,,,-0.064444444,-0.405555556,0,0,0,,0,153,153,88,1,GLUSH,HB,old,z,./images/GLUSHHB.png,,,,,,,,,,,,,,,,,,,,,,,
,,,,,,,,,,,,,,,,,198916,18,2022-01-28_15h18.55.387,lexical_decision_task_DD_L6,2021.2.3,MacIntel,71.42857143,,,,,,,,,,,0.902,1,,,,,,,,,,,,,,m,1,0.902,,,,,,,,-0.064444444,-0.405555556,0,0,0,,0,154,154,83,1,WHISKY,HB,old,m,./images/WHISKYHB.png,,,,,,,,,,,,,,,,,,,,,,,
,,,,,,,,,,,,,,,,,198916,18,2022-01-28_15h18.55.387,lexical_decision_task_DD_L6,2021.2.3,MacIntel,71.42857143,,,,,,,,,,,0.67,1,,,,,,,,,,,,,,z,1,0.67,,,,,,,,-0.064444444,-0.405555556,0,0,0,,0,155,155,128,1,GRIFT,LB,old,z,./images/GRIFTLB.png,,,,,,,,,,,,,,,,,,,,,,,
,,,,,,,,,,,,,,,,,198916,18,2022-01-28_15h18.55.387,lexical_decision_task_DD_L6,2021.2.3,MacIntel,71.42857143,,,,,,,,,,,0.556,1,,,,,,,,,,,,,,m,1,0.556,,,,,,,,-0.064444444,-0.405555556,0,0,0,,0,156,156,72,1,FLASK,LB,old,m,./images/FLASKLB.png,,,,,,,,,,,,,,,,,,,,,,,
,,,,,,,,,,,,,,,,,198916,18,2022-01-28_15h18.55.387,lexical_decision_task_DD_L6,2021.2.3,MacIntel,71.42857143,,,,,,,,,,,0.828,1,,,,,,,,,,,,,,z,1,0.828,,,,,,,,-0.064444444,-0.405555556,0,0,0,,0,157,157,152,1,FRAIN,LB,old,z,./images/FRAINLB.png,,,,,,,,,,,,,,,,,,,,,,,
,,,,,,,,,,,,,,,,,198916,18,2022-01-28_15h18.55.387,lexical_decision_task_DD_L6,2021.2.3,MacIntel,71.42857143,,,,,,,,,,,0.599,1,,,,,,,,,,,,,,m,1,0.599,,,,,,,,-0.064444444,-0.404444444,0,0,0,,0,158,158,25,1,CHALK,C,old,m,./images/CHALK.png,,,,,,,,,,,,,,,,,,,,,,,
,,,,,,,,,,,,,,,,,198916,18,2022-01-28_15h18.55.387,lexical_decision_task_DD_L6,2021.2.3,MacIntel,71.42857143,,,,,,,,,,,0.676,1,,,,,,,,,,,,,,m,1,0.676,,,,,,,,-0.064444444,-0.404444444,0,0,0,,0,159,159,22,1,CLOWN,C,old,m,./images/CLOWN.png,,,,,,,,,,,,,,,,,,,,,,,
,,,,,,,,,,,,,,,,,198916,18,2022-01-28_15h18.55.387,lexical_decision_task_DD_L6,2021.2.3,MacIntel,71.42857143,,,,,,,,,,,0.673,1,,,,,,,,,,,,,,m,1,0.673,,,,,,,,-0.064444444,-0.404444444,0,0,0,,0,160,160,56,1,HEATER,HB,old,m,./images/HEATERHB.png,,,,,,,,,,,,,,,,,,,,,,,
,,,,,,,,,,,,,,,,,198916,18,2022-01-28_15h18.55.387,lexical_decision_task_DD_L6,2021.2.3,MacIntel,71.42857143,,,,,,,,,,,0.785,1,,,,,,,,,,,,,,m,1,0.785,,,,,,,,-0.064444444,-0.404444444,0,0,0,,0,161,161,12,1,BLOKE,LB,old,m,./images/BLOKELB.png,,,,,,,,,,,,,,,,,,,,,,,
,,,,,,,,,,,,,,,,,198916,18,2022-01-28_15h18.55.387,lexical_decision_task_DD_L6,2021.2.3,MacIntel,71.42857143,,,,,,,,,,,0.837,1,,,,,,,,,,,,,,m,1,0.837,,,,,,,,-0.064444444,-0.403333333,0,0,0,,0,162,162,58,1,CANOE,C,old,m,./images/CANOE.png,,,,,,,,,,,,,,,,,,,,,,,
,,,,,,,,,,,,,,,,,198916,18,2022-01-28_15h18.55.387,lexical_decision_task_DD_L6,2021.2.3,MacIntel,71.42857143,,,,,,,,,,,0.813,1,,,,,,,,,,,,,,z,1,0.813,,,,,,,,-0.064444444,-0.402222222,0,0,0,,0,163,163,146,1,MOOST,LB,old,z,./images/MOOSTLB.png,,,,,,,,,,,,,,,,,,,,,,,
,,,,,,,,,,,,,,,,,198916,18,2022-01-28_15h18.55.387,lexical_decision_task_DD_L6,2021.2.3,MacIntel,71.42857143,,,,,,,,,,,0.762,1,,,,,,,,,,,,,,m,1,0.762,,,,,,,,-0.067777778,-0.4,0,0,0,,0,164,164,29,1,PISTOL,HB,old,m,./images/PISTOLHB.png,,,,,,,,,,,,,,,,,,,,,,,
,,,,,,,,,,,,,,,,,198916,18,2022-01-28_15h18.55.387,lexical_decision_task_DD_L6,2021.2.3,MacIntel,71.42857143,,,,,,,,,,,0.642,1,,,,,,,,,,,,,,z,1,0.642,,,,,,,,-0.067777778,-0.4,0,0,0,,0,165,165,134,1,TROSS,LB,old,z,./images/TROSSLB.png,,,,,,,,,,,,,,,,,,,,,,,
,,,,,,,,,,,,,,,,,198916,18,2022-01-28_15h18.55.387,lexical_decision_task_DD_L6,2021.2.3,MacIntel,71.42857143,,,,,,,,,,,0.833,1,,,,,,,,,,,,,,m,1,0.833,,,,,,,,-0.067777778,-0.4,0,0,0,,0,166,166,62,1,MAMMAL,HB,old,m,./images/MAMMALHB.png,,,,,,,,,,,,,,,,,,,,,,,
,,,,,,,,,,,,,,,,,198916,18,2022-01-28_15h18.55.387,lexical_decision_task_DD_L6,2021.2.3,MacIntel,71.42857143,,,,,,,,,,,1.798,1,,,,,,,,,,,,,,m,1,1.798,,,,,,,,-0.067777778,-0.4,0,0,0,,0,167,167,40,1,SNAKE,C,old,m,./images/SNAKE.png,,,,,,,,,,,,,,,,,,,,,,,
,-0.076666667,-0.393333333,1,0,0,instr_done_button,,,,,,1,test,"In the next phase you will be presented with the words from the the first phase. Your job is to decide whether you remember seeing the word or not. If you remember seeing the word press ""old"" or type ""m"". If you do not remember seeing the word press ""new"" or type ""z"". Please press the space bar or click on continue to begin. ",,,198916,18,2022-01-28_15h18.55.387,lexical_decision_task_DD_L6,2021.2.3,MacIntel,71.42857143,,,,,,,,,,,,,,,,,,,,,,,,,,,,,,,,,,,,,,,,,,,,,,,,,,,,,,0,0,0,0,1,,,,,,,,,,,,,,,,
space,-0.078888889,-0.41,0,0,0,,,,,,,1,test,"In the next phase you will be presented with the words from the the first phase. Your job is to decide whether you remember seeing the word or not. If you remember seeing the word press ""old"" or type ""m"". If you do not remember seeing the word press ""new"" or type ""z"". Please press the space bar or click on continue to begin. ",,,198916,18,2022-01-28_15h18.55.387,lexical_decision_task_DD_L6,2021.2.3,MacIntel,71.42857143,,,,,,,,,,,,,,,,,,,,,,,,,,,,,,,,,,,,,,,,,,,,,,,,,,,,,,1,0,1,0,1,0.977,,,,,,,,,,,,,,,
,-0.078888889,-0.41,1,0,0,instr_done_button,,,,,,1,test,"In the next phase you will be presented with the words from the the first phase. Your job is to decide whether you remember seeing the word or not. If you remember seeing the word press ""old"" or type ""m"". If you do not remember seeing the word press ""new"" or type ""z"". Please press the space bar or click on continue to begin. ",,,198916,18,2022-01-28_15h18.55.387,lexical_decision_task_DD_L6,2021.2.3,MacIntel,71.42857143,,,,,,,,,,,,,,,,,,,,,,,,,,,,,,,,,,,,,,,,,,,,,,,,,,,,,,2,0,2,0,1,,,,,,,,,,,,,,,,
,0.083333333,-0.388888889,1,0,0,instr_done_button,,,,,,1,test,"In the next phase you will be presented with the words from the the first phase. Your job is to decide whether you remember seeing the word or not. If you remember seeing the word press ""old"" or type ""m"". If you do not remember seeing the word press ""new"" or type ""z"". Please press the space bar or click on continue to begin. ",,,198916,18,2022-01-28_15h18.55.387,lexical_decision_task_DD_L6,2021.2.3,MacIntel,71.42857143,,,,,,,,,,,,,,,,,,,,,,,,,,,,,,,,,,,,,,,,,,,,,,,,,,,,,,3,0,3,0,1,,,,,,,,,,,,,,,,
,0.057777778,-0.391111111,1,0,0,instr_done_button,,,,,,1,test,"In the next phase you will be presented with the words from the the first phase. Your job is to decide whether you remember seeing the word or not. If you remember seeing the word press ""old"" or type ""m"". If you do not remember seeing the word press ""new"" or type ""z"". Please press the space bar or click on continue to begin. ",,,198916,18,2022-01-28_15h18.55.387,lexical_decision_task_DD_L6,2021.2.3,MacIntel,71.42857143,,,,,,,,,,,,,,,,,,,,,,,,,,,,,,,,,,,,,,,,,,,,,,,,,,,,,,4,0,4,0,1,,,,,,,,,,,,,,,,
,,,,,,,,,,,,,,,,,198916,18,2022-01-28_15h18.55.387,lexical_decision_task_DD_L6,2021.2.3,MacIntel,71.42857143,,,,,,,,,,,1.761,1,,,,,,,,,,,,,,,,,,,,,,,,0.057777778,-0.391111111,0,0,0,,,,,,,TOMATO,LB,z,y,./images/TOMATOLB.png,,,,,,,,,z,1,1.761,,,,,,,,0,0,0,84,1
,,,,,,,,,,,,,,,,,198916,18,2022-01-28_15h18.55.387,lexical_decision_task_DD_L6,2021.2.3,MacIntel,71.42857143,,,,,,,,,,,3.201,1,,,,,,,,,,,,,,,,,,,,,,,,0.057777778,-0.391111111,0,0,0,,,,,,,SWING,C,z,y,./images/SWING.png,,,,,,,,,z,1,3.201,,,,,,,,0,1,1,124,1
,,,,,,,,,,,,,,,,,198916,18,2022-01-28_15h18.55.387,lexical_decision_task_DD_L6,2021.2.3,MacIntel,71.42857143,,,,,,,,,,,1.126,1,,,,,,,,,,,,,,,,,,,,,,,,0.057777778,-0.391111111,0,0,0,,,,,,,WHEEL,HB,m,y,./images/WHEELHB.png,,,,,,,,,m,1,1.126,,,,,,,,0,2,2,77,1
,,,,,,,,,,,,,,,,,198916,18,2022-01-28_15h18.55.387,lexical_decision_task_DD_L6,2021.2.3,MacIntel,71.42857143,,,,,,,,,,,0.906,1,,,,,,,,,,,,,,,,,,,,,,,,0.057777778,-0.391111111,0,0,0,,,,,,,VALLEY,HB,m,y,./images/VALLEYHB.png,,,,,,,,,m,1,0.906,,,,,,,,0,3,3,68,1
,,,,,,,,,,,,,,,,,198916,18,2022-01-28_15h18.55.387,lexical_decision_task_DD_L6,2021.2.3,MacIntel,71.42857143,,,,,,,,,,,1.45,1,,,,,,,,,,,,,,,,,,,,,,,,0.057777778,-0.391111111,0,0,0,,,,,,,PEACH,HB,z,y,./images/PEACHHB.png,,,,,,,,,z,1,1.45,,,,,,,,0,4,4,119,1
,,,,,,,,,,,,,,,,,198916,18,2022-01-28_15h18.55.387,lexical_decision_task_DD_L6,2021.2.3,MacIntel,71.42857143,,,,,,,,,,,0.86,1,,,,,,,,,,,,,,,,,,,,,,,,0.057777778,-0.391111111,0,0,0,,,,,,,BURIAL,HB,z,y,./images/BURIALHB.png,,,,,,,,,z,1,0.86,,,,,,,,0,5,5,143,1
,,,,,,,,,,,,,,,,,198916,18,2022-01-28_15h18.55.387,lexical_decision_task_DD_L6,2021.2.3,MacIntel,71.42857143,,,,,,,,,,,1.037,1,,,,,,,,,,,,,,,,,,,,,,,,0.057777778,-0.391111111,0,0,0,,,,,,,SQUARE,LB,z,y,./images/SQUARELB.png,,,,,,,,,z,1,1.037,,,,,,,,0,6,6,90,1
,,,,,,,,,,,,,,,,,198916,18,2022-01-28_15h18.55.387,lexical_decision_task_DD_L6,2021.2.3,MacIntel,71.42857143,,,,,,,,,,,0.806,1,,,,,,,,,,,,,,,,,,,,,,,,0.057777778,-0.391111111,0,0,0,,,,,,,MELON,C,z,y,./images/MELON.png,,,,,,,,,z,1,0.806,,,,,,,,0,7,7,106,1
,,,,,,,,,,,,,,,,,198916,18,2022-01-28_15h18.55.387,lexical_decision_task_DD_L6,2021.2.3,MacIntel,71.42857143,,,,,,,,,,,1.404,0,,,,,,,,,,,,,,,,,,,,,,,,0.057777778,-0.391111111,0,0,0,,,,,,,BARREL,HB,z,y,./images/BARRELHB.png,,,,,,,,,m,0,1.404,,,,,,,,0,8,8,116,1
,,,,,,,,,,,,,,,,,198916,18,2022-01-28_15h18.55.387,lexical_decision_task_DD_L6,2021.2.3,MacIntel,71.42857143,,,,,,,,,,,0.938,0,,,,,,,,,,,,,,,,,,,,,,,,0.057777778,-0.391111111,0,0,0,,,,,,,GARDEN,C,m,y,./images/GARDEN.png,,,,,,,,,z,0,0.938,,,,,,,,0,9,9,10,1
,,,,,,,,,,,,,,,,,198916,18,2022-01-28_15h18.55.387,lexical_decision_task_DD_L6,2021.2.3,MacIntel,71.42857143,,,,,,,,,,,0.684,1,,,,,,,,,,,,,,,,,,,,,,,,0.057777778,-0.391111111,0,0,0,,,,,,,MAMMAL,HB,m,y,./images/MAMMALHB.png,,,,,,,,,m,1,0.684,,,,,,,,0,10,10,62,1
,,,,,,,,,,,,,,,,,198916,18,2022-01-28_15h18.55.387,lexical_decision_task_DD_L6,2021.2.3,MacIntel,71.42857143,,,,,,,,,,,0.748,1,,,,,,,,,,,,,,,,,,,,,,,,0.057777778,-0.391111111,0,0,0,,,,,,,MIRROR,LB,z,y,./images/MIRRORLB.png,,,,,,,,,z,1,0.748,,,,,,,,0,11,11,147,1
,,,,,,,,,,,,,,,,,198916,18,2022-01-28_15h18.55.387,lexical_decision_task_DD_L6,2021.2.3,MacIntel,71.42857143,,,,,,,,,,,5.03,0,,,,,,,,,,,,,,,,,,,,,,,,0.057777778,-0.391111111,0,0,0,,,,,,,PENCE,C,z,y,./images/PENCE.png,,,,,,,,,m,0,5.03,,,,,,,,0,12,12,100,1
,,,,,,,,,,,,,,,,,198916,18,2022-01-28_15h18.55.387,lexical_decision_task_DD_L6,2021.2.3,MacIntel,71.42857143,,,,,,,,,,,1.28,0,,,,,,,,,,,,,,,,,,,,,,,,0.057777778,-0.391111111,0,0,0,,,,,,,ALLEY,C,m,y,./images/ALLEY.png,,,,,,,,,z,0,1.28,,,,,,,,0,13,13,55,1
,,,,,,,,,,,,,,,,,198916,18,2022-01-28_15h18.55.387,lexical_decision_task_DD_L6,2021.2.3,MacIntel,71.42857143,,,,,,,,,,,0.96,0,,,,,,,,,,,,,,,,,,,,,,,,0.057777778,-0.391111111,0,0,0,,,,,,,SHORE,LB,z,y,./images/SHORELB.png,,,,,,,,,m,0,0.96,,,,,,,,0,14,14,96,1
,,,,,,,,,,,,,,,,,198916,18,2022-01-28_15h18.55.387,lexical_decision_task_DD_L6,2021.2.3,MacIntel,71.42857143,,,,,,,,,,,1.206,1,,,,,,,,,,,,,,,,,,,,,,,,0.057777778,-0.391111111,0,0,0,,,,,,,SPINE,HB,m,y,./images/SPINEHB.png,,,,,,,,,m,1,1.206,,,,,,,,0,15,15,65,1
,,,,,,,,,,,,,,,,,198916,18,2022-01-28_15h18.55.387,lexical_decision_task_DD_L6,2021.2.3,MacIntel,71.42857143,,,,,,,,,,,0.747,1,,,,,,,,,,,,,,,,,,,,,,,,0.057777778,-0.391111111,0,0,0,,,,,,,FALCON,C,z,y,./images/FALCON.png,,,,,,,,,z,1,0.747,,,,,,,,0,16,16,112,1
,,,,,,,,,,,,,,,,,198916,18,2022-01-28_15h18.55.387,lexical_decision_task_DD_L6,2021.2.3,MacIntel,71.42857143,,,,,,,,,,,0.761,1,,,,,,,,,,,,,,,,,,,,,,,,0.057777778,-0.391111111,0,0,0,,,,,,,SHIELD,LB,m,y,./images/SHIELDLB.png,,,,,,,,,m,1,0.761,,,,,,,,0,17,17,48,1
,,,,,,,,,,,,,,,,,198916,18,2022-01-28_15h18.55.387,lexical_decision_task_DD_L6,2021.2.3,MacIntel,71.42857143,,,,,,,,,,,0.776,1,,,,,,,,,,,,,,,,,,,,,,,,0.057777778,-0.391111111,0,0,0,,,,,,,PLANET,HB,m,y,./images/PLANETHB.png,,,,,,,,,m,1,0.776,,,,,,,,0,18,18,80,1
,,,,,,,,,,,,,,,,,198916,18,2022-01-28_15h18.55.387,lexical_decision_task_DD_L6,2021.2.3,MacIntel,71.42857143,,,,,,,,,,,0.711,1,,,,,,,,,,,,,,,,,,,,,,,,0.057777778,-0.391111111,0,0,0,,,,,,,PEARL,C,z,y,./images/PEARL.png,,,,,,,,,z,1,0.711,,,,,,,,0,19,19,130,1
,,,,,,,,,,,,,,,,,198916,18,2022-01-28_15h18.55.387,lexical_decision_task_DD_L6,2021.2.3,MacIntel,71.42857143,,,,,,,,,,,0.594,1,,,,,,,,,,,,,,,,,,,,,,,,0.057777778,-0.391111111,0,0,0,,,,,,,SNAKE,C,m,y,./images/SNAKE.png,,,,,,,,,m,1,0.594,,,,,,,,0,20,20,40,1
,,,,,,,,,,,,,,,,,198916,18,2022-01-28_15h18.55.387,lexical_decision_task_DD_L6,2021.2.3,MacIntel,71.42857143,,,,,,,,,,,0.587,1,,,,,,,,,,,,,,,,,,,,,,,,0.057777778,-0.391111111,0,0,0,,,,,,,BROOM,LB,m,y,./images/BROOMLB.png,,,,,,,,,m,1,0.587,,,,,,,,0,21,21,78,1
,,,,,,,,,,,,,,,,,198916,18,2022-01-28_15h18.55.387,lexical_decision_task_DD_L6,2021.2.3,MacIntel,71.42857143,,,,,,,,,,,0.551,1,,,,,,,,,,,,,,,,,,,,,,,,0.057777778,-0.391111111,0,0,0,,,,,,,CHALK,C,m,y,./images/CHALK.png,,,,,,,,,m,1,0.551,,,,,,,,0,22,22,25,1
,,,,,,,,,,,,,,,,,198916,18,2022-01-28_15h18.55.387,lexical_decision_task_DD_L6,2021.2.3,MacIntel,71.42857143,,,,,,,,,,,0.694,1,,,,,,,,,,,,,,,,,,,,,,,,0.057777778,-0.391111111,0,0,0,,,,,,,STATUE,LB,m,y,./images/STATUELB.png,,,,,,,,,m,1,0.694,,,,,,,,0,23,23,66,1
,,,,,,,,,,,,,,,,,198916,18,2022-01-28_15h18.55.387,lexical_decision_task_DD_L6,2021.2.3,MacIntel,71.42857143,,,,,,,,,,,0.939,1,,,,,,,,,,,,,,,,,,,,,,,,0.057777778,-0.391111111,0,0,0,,,,,,,CARPET,HB,z,y,./images/CARPETHB.png,,,,,,,,,z,1,0.939,,,,,,,,0,24,24,137,1
,,,,,,,,,,,,,,,,,198916,18,2022-01-28_15h18.55.387,lexical_decision_task_DD_L6,2021.2.3,MacIntel,71.42857143,,,,,,,,,,,1.079,1,,,,,,,,,,,,,,,,,,,,,,,,0.057777778,-0.391111111,0,0,0,,,,,,,SPORT,LB,z,y,./images/SPORTLB.png,,,,,,,,,z,1,1.079,,,,,,,,0,25,25,132,1
,,,,,,,,,,,,,,,,,198916,18,2022-01-28_15h18.55.387,lexical_decision_task_DD_L6,2021.2.3,MacIntel,71.42857143,,,,,,,,,,,0.924,0,,,,,,,,,,,,,,,,,,,,,,,,0.057777778,-0.391111111,0,0,0,,,,,,,THROAT,LB,z,y,./images/THROATLB.png,,,,,,,,,m,0,0.924,,,,,,,,0,26,26,120,1
,,,,,,,,,,,,,,,,,198916,18,2022-01-28_15h18.55.387,lexical_decision_task_DD_L6,2021.2.3,MacIntel,71.42857143,,,,,,,,,,,0.605,1,,,,,,,,,,,,,,,,,,,,,,,,0.057777778,-0.391111111,0,0,0,,,,,,,HAMMER,LB,m,y,./images/HAMMERLB.png,,,,,,,,,m,1,0.605,,,,,,,,0,27,27,75,1
,,,,,,,,,,,,,,,,,198916,18,2022-01-28_15h18.55.387,lexical_decision_task_DD_L6,2021.2.3,MacIntel,71.42857143,,,,,,,,,,,0.651,0,,,,,,,,,,,,,,,,,,,,,,,,0.057777778,-0.391111111,0,0,0,,,,,,,STORM,LB,z,y,./images/STORMLB.png,,,,,,,,,m,0,0.651,,,,,,,,0,28,28,114,1
,,,,,,,,,,,,,,,,,198916,18,2022-01-28_15h18.55.387,lexical_decision_task_DD_L6,2021.2.3,MacIntel,71.42857143,,,,,,,,,,,1.481,1,,,,,,,,,,,,,,,,,,,,,,,,0.057777778,-0.391111111,0,0,0,,,,,,,BERRY,HB,z,y,./images/BERRYHB.png,,,,,,,,,z,1,1.481,,,,,,,,0,29,29,131,1
,,,,,,,,,,,,,,,,,198916,18,2022-01-28_15h18.55.387,lexical_decision_task_DD_L6,2021.2.3,MacIntel,71.42857143,,,,,,,,,,,0.948,1,,,,,,,,,,,,,,,,,,,,,,,,0.057777778,-0.391111111,0,0,0,,,,,,,GRANNY,HB,m,y,./images/GRANNYHB.png,,,,,,,,,m,1,0.948,,,,,,,,0,30,30,20,1
,,,,,,,,,,,,,,,,,198916,18,2022-01-28_15h18.55.387,lexical_decision_task_DD_L6,2021.2.3,MacIntel,71.42857143,,,,,,,,,,,0.868,1,,,,,,,,,,,,,,,,,,,,,,,,0.057777778,-0.391111111,0,0,0,,,,,,,SLOPE,LB,m,y,./images/SLOPELB.png,,,,,,,,,m,1,0.868,,,,,,,,0,31,31,30,1
,,,,,,,,,,,,,,,,,198916,18,2022-01-28_15h18.55.387,lexical_decision_task_DD_L6,2021.2.3,MacIntel,71.42857143,,,,,,,,,,,0.796,1,,,,,,,,,,,,,,,,,,,,,,,,0.057777778,-0.391111111,0,0,0,,,,,,,SAUCE,LB,m,y,./images/SAUCELB.png,,,,,,,,,m,1,0.796,,,,,,,,0,32,32,51,1
,,,,,,,,,,,,,,,,,198916,18,2022-01-28_15h18.55.387,lexical_decision_task_DD_L6,2021.2.3,MacIntel,71.42857143,,,,,,,,,,,0.651,1,,,,,,,,,,,,,,,,,,,,,,,,0.057777778,-0.391111111,0,0,0,,,,,,,BISHOP,C,m,y,./images/BISHOP.png,,,,,,,,,m,1,0.651,,,,,,,,0,33,33,49,1
,,,,,,,,,,,,,,,,,198916,18,2022-01-28_15h18.55.387,lexical_decision_task_DD_L6,2021.2.3,MacIntel,71.42857143,,,,,,,,,,,0.798,1,,,,,,,,,,,,,,,,,,,,,,,,0.057777778,-0.391111111,0,0,0,,,,,,,BOILER,LB,m,y,./images/BOILERLB.png,,,,,,,,,m,1,0.798,,,,,,,,0,34,34,36,1
,,,,,,,,,,,,,,,,,198916,18,2022-01-28_15h18.55.387,lexical_decision_task_DD_L6,2021.2.3,MacIntel,71.42857143,,,,,,,,,,,1.326,0,,,,,,,,,,,,,,,,,,,,,,,,0.057777778,-0.391111111,0,0,0,,,,,,,JUMPER,HB,m,y,./images/JUMPERHB.png,,,,,,,,,z,0,1.326,,,,,,,,0,35,35,74,1
,,,,,,,,,,,,,,,,,198916,18,2022-01-28_15h18.55.387,lexical_decision_task_DD_L6,2021.2.3,MacIntel,71.42857143,,,,,,,,,,,0.807,1,,,,,,,,,,,,,,,,,,,,,,,,0.057777778,-0.391111111,0,0,0,,,,,,,STOOL,C,m,y,./images/STOOL.png,,,,,,,,,m,1,0.807,,,,,,,,0,36,36,43,1
,,,,,,,,,,,,,,,,,198916,18,2022-01-28_15h18.55.387,lexical_decision_task_DD_L6,2021.2.3,MacIntel,71.42857143,,,,,,,,,,,0.625,1,,,,,,,,,,,,,,,,,,,,,,,,0.057777778,-0.391111111,0,0,0,,,,,,,GLOVE,C,m,y,./images/GLOVE.png,,,,,,,,,m,1,0.625,,,,,,,,0,37,37,73,1
,,,,,,,,,,,,,,,,,198916,18,2022-01-28_15h18.55.387,lexical_decision_task_DD_L6,2021.2.3,MacIntel,71.42857143,,,,,,,,,,,0.899,1,,,,,,,,,,,,,,,,,,,,,,,,0.057777778,-0.391111111,0,0,0,,,,,,,BRUSH,HB,m,y,./images/BRUSHHB.png,,,,,,,,,m,1,0.899,,,,,,,,0,38,38,59,1
,,,,,,,,,,,,,,,,,198916,18,2022-01-28_15h18.55.387,lexical_decision_task_DD_L6,2021.2.3,MacIntel,71.42857143,,,,,,,,,,,0.922,1,,,,,,,,,,,,,,,,,,,,,,,,0.057777778,-0.391111111,0,0,0,,,,,,,KIDNEY,LB,z,y,./images/KIDNEYLB.png,,,,,,,,,z,1,0.922,,,,,,,,0,39,39,105,1
,,,,,,,,,,,,,,,,,198916,18,2022-01-28_15h18.55.387,lexical_decision_task_DD_L6,2021.2.3,MacIntel,71.42857143,,,,,,,,,,,1.186,0,,,,,,,,,,,,,,,,,,,,,,,,0.057777778,-0.391111111,0,0,0,,,,,,,CLOTH,HB,m,y,./images/CLOTHHB.png,,,,,,,,,z,0,1.186,,,,,,,,0,40,40,23,1
,,,,,,,,,,,,,,,,,198916,18,2022-01-28_15h18.55.387,lexical_decision_task_DD_L6,2021.2.3,MacIntel,71.42857143,,,,,,,,,,,0.63,0,,,,,,,,,,,,,,,,,,,,,,,,0.032222222,-0.374444444,1,0,0,,,,,,,SCREW,LB,z,y,./images/SCREWLB.png,break_done_button,,,,,,,,m,0,0.63,,,,,,,,0,41,41,108,1
,,,,,,,,,,,,,,,,,198916,18,2022-01-28_15h18.55.387,lexical_decision_task_DD_L6,2021.2.3,MacIntel,71.42857143,,,,,,,,,,,1.217,0,,,,,,,,,,,,,,,,,,,,,,,,0.032222222,-0.374444444,0,0,0,,,,,,,MIDGET,C,m,y,./images/MIDGET.png,,,,,,,,,z,0,1.217,,,,,,,,0,42,42,76,1
,,,,,,,,,,,,,,,,,198916,18,2022-01-28_15h18.55.387,lexical_decision_task_DD_L6,2021.2.3,MacIntel,71.42857143,,,,,,,,,,,0.612,1,,,,,,,,,,,,,,,,,,,,,,,,0.032222222,-0.374444444,0,0,0,,,,,,,DOUGH,C,z,y,./images/DOUGH.png,,,,,,,,,z,1,0.612,,,,,,,,0,43,43,103,1
,,,,,,,,,,,,,,,,,198916,18,2022-01-28_15h18.55.387,lexical_decision_task_DD_L6,2021.2.3,MacIntel,71.42857143,,,,,,,,,,,0.577,1,,,,,,,,,,,,,,,,,,,,,,,,0.032222222,-0.374444444,0,0,0,,,,,,,URINE,C,z,y,./images/URINE.png,,,,,,,,,z,1,0.577,,,,,,,,0,44,44,154,1
,,,,,,,,,,,,,,,,,198916,18,2022-01-28_15h18.55.387,lexical_decision_task_DD_L6,2021.2.3,MacIntel,71.42857143,,,,,,,,,,,0.662,1,,,,,,,,,,,,,,,,,,,,,,,,0.032222222,-0.374444444,0,0,0,,,,,,,CANDY,LB,m,y,./images/CANDYLB.png,,,,,,,,,m,1,0.662,,,,,,,,0,45,45,39,1
,,,,,,,,,,,,,,,,,198916,18,2022-01-28_15h18.55.387,lexical_decision_task_DD_L6,2021.2.3,MacIntel,71.42857143,,,,,,,,,,,0.685,1,,,,,,,,,,,,,,,,,,,,,,,,0.032222222,-0.374444444,0,0,0,,,,,,,TIGER,C,m,y,./images/TIGER.png,,,,,,,,,m,1,0.685,,,,,,,,0,46,46,37,1
,,,,,,,,,,,,,,,,,198916,18,2022-01-28_15h18.55.387,lexical_decision_task_DD_L6,2021.2.3,MacIntel,71.42857143,,,,,,,,,,,0.631,1,,,,,,,,,,,,,,,,,,,,,,,,0.032222222,-0.374444444,0,0,0,,,,,,,ATTIC,LB,z,y,./images/ATTICLB.png,,,,,,,,,z,1,0.631,,,,,,,,0,47,47,111,1
,,,,,,,,,,,,,,,,,198916,18,2022-01-28_15h18.55.387,lexical_decision_task_DD_L6,2021.2.3,MacIntel,71.42857143,,,,,,,,,,,0.681,1,,,,,,,,,,,,,,,,,,,,,,,,0.032222222,-0.374444444,0,0,0,,,,,,,FLASK,LB,m,y,./images/FLASKLB.png,,,,,,,,,m,1,0.681,,,,,,,,0,48,48,72,1
,,,,,,,,,,,,,,,,,198916,18,2022-01-28_15h18.55.387,lexical_decision_task_DD_L6,2021.2.3,MacIntel,71.42857143,,,,,,,,,,,0.666,1,,,,,,,,,,,,,,,,,,,,,,,,0.032222222,-0.374444444,0,0,0,,,,,,,SUNSET,C,z,y,./images/SUNSET.png,,,,,,,,,z,1,0.666,,,,,,,,0,49,49,166,1
,,,,,,,,,,,,,,,,,198916,18,2022-01-28_15h18.55.387,lexical_decision_task_DD_L6,2021.2.3,MacIntel,71.42857143,,,,,,,,,,,0.712,1,,,,,,,,,,,,,,,,,,,,,,,,0.032222222,-0.374444444,0,0,0,,,,,,,ONION,LB,z,y,./images/ONIONLB.png,,,,,,,,,z,1,0.712,,,,,,,,0,50,50,135,1
,,,,,,,,,,,,,,,,,198916,18,2022-01-28_15h18.55.387,lexical_decision_task_DD_L6,2021.2.3,MacIntel,71.42857143,,,,,,,,,,,0.74,1,,,,,,,,,,,,,,,,,,,,,,,,0.032222222,-0.374444444,0,0,0,,,,,,,POKER,C,m,y,./images/POKER.png,,,,,,,,,m,1,0.74,,,,,,,,0,51,51,67,1
,,,,,,,,,,,,,,,,,198916,18,2022-01-28_15h18.55.387,lexical_decision_task_DD_L6,2021.2.3,MacIntel,71.42857143,,,,,,,,,,,0.693,1,,,,,,,,,,,,,,,,,,,,,,,,0.032222222,-0.374444444,0,0,0,,,,,,,LAGOON,HB,m,y,./images/LAGOONHB.png,,,,,,,,,m,1,0.693,,,,,,,,0,52,52,47,1
,,,,,,,,,,,,,,,,,198916,18,2022-01-28_15h18.55.387,lexical_decision_task_DD_L6,2021.2.3,MacIntel,71.42857143,,,,,,,,,,,0.566,1,,,,,,,,,,,,,,,,,,,,,,,,0.032222222,-0.374444444,0,0,0,,,,,,,WAGON,C,m,y,./images/WAGON.png,,,,,,,,,m,1,0.566,,,,,,,,0,53,53,7,1
,,,,,,,,,,,,,,,,,198916,18,2022-01-28_15h18.55.387,lexical_decision_task_DD_L6,2021.2.3,MacIntel,71.42857143,,,,,,,,,,,1.155,0,,,,,,,,,,,,,,,,,,,,,,,,0.032222222,-0.374444444,0,0,0,,,,,,,MOOSE,LB,z,y,./images/MOOSELB.png,,,,,,,,,m,0,1.155,,,,,,,,0,54,54,141,1
,,,,,,,,,,,,,,,,,198916,18,2022-01-28_15h18.55.387,lexical_decision_task_DD_L6,2021.2.3,MacIntel,71.42857143,,,,,,,,,,,0.882,1,,,,,,,,,,,,,,,,,,,,,,,,0.032222222,-0.374444444,0,0,0,,,,,,,ARROW,LB,m,y,./images/ARROWLB.png,,,,,,,,,m,1,0.882,,,,,,,,0,55,55,69,1
,,,,,,,,,,,,,,,,,198916,18,2022-01-28_15h18.55.387,lexical_decision_task_DD_L6,2021.2.3,MacIntel,71.42857143,,,,,,,,,,,0.826,1,,,,,,,,,,,,,,,,,,,,,,,,0.032222222,-0.374444444,0,0,0,,,,,,,WALRUS,HB,z,y,./images/WALRUSHB.png,,,,,,,,,z,1,0.826,,,,,,,,0,56,56,107,1
,,,,,,,,,,,,,,,,,198916,18,2022-01-28_15h18.55.387,lexical_decision_task_DD_L6,2021.2.3,MacIntel,71.42857143,,,,,,,,,,,0.791,0,,,,,,,,,,,,,,,,,,,,,,,,0.032222222,-0.374444444,0,0,0,,,,,,,PLANK,C,z,y,./images/PLANK.png,,,,,,,,,m,0,0.791,,,,,,,,0,57,57,85,1
,,,,,,,,,,,,,,,,,198916,18,2022-01-28_15h18.55.387,lexical_decision_task_DD_L6,2021.2.3,MacIntel,71.42857143,,,,,,,,,,,0.789,1,,,,,,,,,,,,,,,,,,,,,,,,0.032222222,-0.374444444,0,0,0,,,,,,,MOTOR,C,z,y,./images/MOTOR.png,,,,,,,,,z,1,0.789,,,,,,,,0,58,58,97,1
,,,,,,,,,,,,,,,,,198916,18,2022-01-28_15h18.55.387,lexical_decision_task_DD_L6,2021.2.3,MacIntel,71.42857143,,,,,,,,,,,0.652,1,,,,,,,,,,,,,,,,,,,,,,,,0.032222222,-0.374444444,0,0,0,,,,,,,MUMMY,C,m,y,./images/MUMMY.png,,,,,,,,,m,1,0.652,,,,,,,,0,59,59,46,1
,,,,,,,,,,,,,,,,,198916,18,2022-01-28_15h18.55.387,lexical_decision_task_DD_L6,2021.2.3,MacIntel,71.42857143,,,,,,,,,,,0.673,1,,,,,,,,,,,,,,,,,,,,,,,,0.032222222,-0.374444444,0,0,0,,,,,,,COLLAR,LB,m,y,./images/COLLARLB.png,,,,,,,,,m,1,0.673,,,,,,,,0,60,60,15,1
,,,,,,,,,,,,,,,,,198916,18,2022-01-28_15h18.55.387,lexical_decision_task_DD_L6,2021.2.3,MacIntel,71.42857143,,,,,,,,,,,0.711,1,,,,,,,,,,,,,,,,,,,,,,,,0.032222222,-0.374444444,0,0,0,,,,,,,JAGUAR,LB,z,y,./images/JAGUARLB.png,,,,,,,,,z,1,0.711,,,,,,,,0,61,61,102,1
,,,,,,,,,,,,,,,,,198916,18,2022-01-28_15h18.55.387,lexical_decision_task_DD_L6,2021.2.3,MacIntel,71.42857143,,,,,,,,,,,0.925,1,,,,,,,,,,,,,,,,,,,,,,,,0.032222222,-0.374444444,0,0,0,,,,,,,JUNGLE,HB,z,y,./images/JUNGLEHB.png,,,,,,,,,z,1,0.925,,,,,,,,0,62,62,167,1
,,,,,,,,,,,,,,,,,198916,18,2022-01-28_15h18.55.387,lexical_decision_task_DD_L6,2021.2.3,MacIntel,71.42857143,,,,,,,,,,,0.625,1,,,,,,,,,,,,,,,,,,,,,,,,0.032222222,-0.374444444,0,0,0,,,,,,,NOOSE,LB,z,y,./images/NOOSELB.png,,,,,,,,,z,1,0.625,,,,,,,,0,63,63,156,1
,,,,,,,,,,,,,,,,,198916,18,2022-01-28_15h18.55.387,lexical_decision_task_DD_L6,2021.2.3,MacIntel,71.42857143,,,,,,,,,,,1.767,0,,,,,,,,,,,,,,,,,,,,,,,,0.032222222,-0.374444444,0,0,0,,,,,,,SWEAT,LB,z,y,./images/SWEATLB.png,,,,,,,,,m,0,1.767,,,,,,,,0,64,64,150,1
,,,,,,,,,,,,,,,,,198916,18,2022-01-28_15h18.55.387,lexical_decision_task_DD_L6,2021.2.3,MacIntel,71.42857143,,,,,,,,,,,0.753,1,,,,,,,,,,,,,,,,,,,,,,,,0.032222222,-0.374444444,0,0,0,,,,,,,PURSE,HB,z,y,./images/PURSEHB.png,,,,,,,,,z,1,0.753,,,,,,,,0,65,65,146,1
,,,,,,,,,,,,,,,,,198916,18,2022-01-28_15h18.55.387,lexical_decision_task_DD_L6,2021.2.3,MacIntel,71.42857143,,,,,,,,,,,0.695,1,,,,,,,,,,,,,,,,,,,,,,,,0.032222222,-0.374444444,0,0,0,,,,,,,PIMPLE,HB,z,y,./images/PIMPLEHB.png,,,,,,,,,z,1,0.695,,,,,,,,0,66,66,155,1
,,,,,,,,,,,,,,,,,198916,18,2022-01-28_15h18.55.387,lexical_decision_task_DD_L6,2021.2.3,MacIntel,71.42857143,,,,,,,,,,,0.595,1,,,,,,,,,,,,,,,,,,,,,,,,0.032222222,-0.374444444,0,0,0,,,,,,,RAZOR,C,m,y,./images/RAZOR.png,,,,,,,,,m,1,0.595,,,,,,,,0,67,67,34,1
,,,,,,,,,,,,,,,,,198916,18,2022-01-28_15h18.55.387,lexical_decision_task_DD_L6,2021.2.3,MacIntel,71.42857143,,,,,,,,,,,0.676,1,,,,,,,,,,,,,,,,,,,,,,,,0.032222222,-0.374444444,0,0,0,,,,,,,TRIPOD,LB,z,y,./images/TRIPODLB.png,,,,,,,,,z,1,0.676,,,,,,,,0,68,68,138,1
,,,,,,,,,,,,,,,,,198916,18,2022-01-28_15h18.55.387,lexical_decision_task_DD_L6,2021.2.3,MacIntel,71.42857143,,,,,,,,,,,1.281,1,,,,,,,,,,,,,,,,,,,,,,,,0.032222222,-0.374444444,0,0,0,,,,,,,FLESH,LB,m,y,./images/FLESHLB.png,,,,,,,,,m,1,1.281,,,,,,,,0,69,69,24,1
,,,,,,,,,,,,,,,,,198916,18,2022-01-28_15h18.55.387,lexical_decision_task_DD_L6,2021.2.3,MacIntel,71.42857143,,,,,,,,,,,0.784,1,,,,,,,,,,,,,,,,,,,,,,,,0.032222222,-0.374444444,0,0,0,,,,,,,CLIFF,HB,m,y,./images/CLIFFHB.png,,,,,,,,,m,1,0.784,,,,,,,,0,70,70,8,1
,,,,,,,,,,,,,,,,,198916,18,2022-01-28_15h18.55.387,lexical_decision_task_DD_L6,2021.2.3,MacIntel,71.42857143,,,,,,,,,,,0.59,1,,,,,,,,,,,,,,,,,,,,,,,,0.032222222,-0.374444444,0,0,0,,,,,,,CANOE,C,m,y,./images/CANOE.png,,,,,,,,,m,1,0.59,,,,,,,,0,71,71,58,1
,,,,,,,,,,,,,,,,,198916,18,2022-01-28_15h18.55.387,lexical_decision_task_DD_L6,2021.2.3,MacIntel,71.42857143,,,,,,,,,,,0.652,1,,,,,,,,,,,,,,,,,,,,,,,,0.032222222,-0.374444444,0,0,0,,,,,,,MONKEY,LB,m,y,./images/MONKEYLB.png,,,,,,,,,m,1,0.652,,,,,,,,0,72,72,45,1
,,,,,,,,,,,,,,,,,198916,18,2022-01-28_15h18.55.387,lexical_decision_task_DD_L6,2021.2.3,MacIntel,71.42857143,,,,,,,,,,,0.752,1,,,,,,,,,,,,,,,,,,,,,,,,0.032222222,-0.374444444,0,0,0,,,,,,,HEATER,HB,m,y,./images/HEATERHB.png,,,,,,,,,m,1,0.752,,,,,,,,0,73,73,56,1
,,,,,,,,,,,,,,,,,198916,18,2022-01-28_15h18.55.387,lexical_decision_task_DD_L6,2021.2.3,MacIntel,71.42857143,,,,,,,,,,,0.587,0,,,,,,,,,,,,,,,,,,,,,,,,0.032222222,-0.374444444,0,0,0,,,,,,,GRAPE,C,m,y,./images/GRAPE.png,,,,,,,,,z,0,0.587,,,,,,,,0,74,74,16,1
,,,,,,,,,,,,,,,,,198916,18,2022-01-28_15h18.55.387,lexical_decision_task_DD_L6,2021.2.3,MacIntel,71.42857143,,,,,,,,,,,0.932,1,,,,,,,,,,,,,,,,,,,,,,,,0.032222222,-0.374444444,0,0,0,,,,,,,BONNET,HB,z,y,./images/BONNETHB.png,,,,,,,,,z,1,0.932,,,,,,,,0,75,75,95,1
,,,,,,,,,,,,,,,,,198916,18,2022-01-28_15h18.55.387,lexical_decision_task_DD_L6,2021.2.3,MacIntel,71.42857143,,,,,,,,,,,0.677,1,,,,,,,,,,,,,,,,,,,,,,,,0.032222222,-0.374444444,0,0,0,,,,,,,BOXER,C,m,y,./images/BOXER.png,,,,,,,,,m,1,0.677,,,,,,,,0,76,76,4,1
,,,,,,,,,,,,,,,,,198916,18,2022-01-28_15h18.55.387,lexical_decision_task_DD_L6,2021.2.3,MacIntel,71.42857143,,,,,,,,,,,1.912,1,,,,,,,,,,,,,,,,,,,,,,,,0.032222222,-0.374444444,0,0,0,,,,,,,SNACK,C,z,y,./images/SNACK.png,,,,,,,,,z,1,1.912,,,,,,,,0,77,77,157,1
,,,,,,,,,,,,,,,,,198916,18,2022-01-28_15h18.55.387,lexical_decision_task_DD_L6,2021.2.3,MacIntel,71.42857143,,,,,,,,,,,0.766,1,,,,,,,,,,,,,,,,,,,,,,,,0.032222222,-0.374444444,0,0,0,,,,,,,POSTER,HB,m,y,./images/POSTERHB.png,,,,,,,,,m,1,0.766,,,,,,,,0,78,78,53,1
,,,,,,,,,,,,,,,,,198916,18,2022-01-28_15h18.55.387,lexical_decision_task_DD_L6,2021.2.3,MacIntel,71.42857143,,,,,,,,,,,0.819,1,,,,,,,,,,,,,,,,,,,,,,,,0.032222222,-0.374444444,0,0,0,,,,,,,BLOKE,LB,m,y,./images/BLOKELB.png,,,,,,,,,m,1,0.819,,,,,,,,0,79,79,12,1
,,,,,,,,,,,,,,,,,198916,18,2022-01-28_15h18.55.387,lexical_decision_task_DD_L6,2021.2.3,MacIntel,71.42857143,,,,,,,,,,,0.676,1,,,,,,,,,,,,,,,,,,,,,,,,0.032222222,-0.374444444,0,0,0,,,,,,,BANANA,C,m,y,./images/BANANA.png,,,,,,,,,m,1,0.676,,,,,,,,0,80,80,70,1
,,,,,,,,,,,,,,,,,198916,18,2022-01-28_15h18.55.387,lexical_decision_task_DD_L6,2021.2.3,MacIntel,71.42857143,,,,,,,,,,,0.601,1,,,,,,,,,,,,,,,,,,,,,,,,0.032222222,-0.374444444,0,0,0,,,,,,,LIZARD,HB,z,y,./images/LIZARDHB.png,,,,,,,,,z,1,0.601,,,,,,,,0,81,81,128,1
,,,,,,,,,,,,,,,,,198916,18,2022-01-28_15h18.55.387,lexical_decision_task_DD_L6,2021.2.3,MacIntel,71.42857143,,,,,,,,,,,0.684,1,,,,,,,,,,,,,,,,,,,,,,,,0.032222222,-0.374444444,0,0,0,,,,,,,RULER,C,m,y,./images/RULER.png,,,,,,,,,m,1,0.684,,,,,,,,0,82,82,79,1
,,,,,,,,,,,,,,,,,198916,18,2022-01-28_15h18.55.387,lexical_decision_task_DD_L6,2021.2.3,MacIntel,71.42857143,,,,,,,,,,,0.608,1,,,,,,,,,,,,,,,,,,,,,,,,0.032222222,-0.374444444,0,0,0,space,,,,,,HOCKEY,HB,m,y,./images/HOCKEYHB.png,,19.801,,,,,,,m,1,0.608,,,,,,,,0,83,83,32,1
,,,,,,,,,,,,,,,,,198916,18,2022-01-28_15h18.55.387,lexical_decision_task_DD_L6,2021.2.3,MacIntel,71.42857143,,,,,,,,,,,1.254,1,,,,,,,,,,,,,,,,,,,,,,,,0.032222222,-0.374444444,0,0,0,,,,,,,PAINT,C,z,y,./images/PAINT.png,,,,,,,,,z,1,1.254,,,,,,,,0,84,84,91,1
,,,,,,,,,,,,,,,,,198916,18,2022-01-28_15h18.55.387,lexical_decision_task_DD_L6,2021.2.3,MacIntel,71.42857143,,,,,,,,,,,0.704,1,,,,,,,,,,,,,,,,,,,,,,,,0.032222222,-0.374444444,0,0,0,,,,,,,DIVER,LB,m,y,./images/DIVERLB.png,,,,,,,,,m,1,0.704,,,,,,,,0,85,85,9,1
,,,,,,,,,,,,,,,,,198916,18,2022-01-28_15h18.55.387,lexical_decision_task_DD_L6,2021.2.3,MacIntel,71.42857143,,,,,,,,,,,0.903,1,,,,,,,,,,,,,,,,,,,,,,,,0.032222222,-0.374444444,0,0,0,,,,,,,ARTIST,C,m,y,./images/ARTIST.png,,,,,,,,,m,1,0.903,,,,,,,,0,86,86,61,1
,,,,,,,,,,,,,,,,,198916,18,2022-01-28_15h18.55.387,lexical_decision_task_DD_L6,2021.2.3,MacIntel,71.42857143,,,,,,,,,,,0.629,1,,,,,,,,,,,,,,,,,,,,,,,,0.032222222,-0.374444444,0,0,0,,,,,,,TULIP,HB,z,y,./images/TULIPHB.png,,,,,,,,,z,1,0.629,,,,,,,,0,87,87,92,1
,,,,,,,,,,,,,,,,,198916,18,2022-01-28_15h18.55.387,lexical_decision_task_DD_L6,2021.2.3,MacIntel,71.42857143,,,,,,,,,,,0.62,1,,,,,,,,,,,,,,,,,,,,,,,,0.032222222,-0.374444444,0,0,0,,,,,,,PISTOL,HB,m,y,./images/PISTOLHB.png,,,,,,,,,m,1,0.62,,,,,,,,0,88,88,29,1
,,,,,,,,,,,,,,,,,198916,18,2022-01-28_15h18.55.387,lexical_decision_task_DD_L6,2021.2.3,MacIntel,71.42857143,,,,,,,,,,,0.729,1,,,,,,,,,,,,,,,,,,,,,,,,0.032222222,-0.374444444,0,0,0,,,,,,,GRAIN,LB,z,y,./images/GRAINLB.png,,,,,,,,,z,1,0.729,,,,,,,,0,89,89,159,1
,,,,,,,,,,,,,,,,,198916,18,2022-01-28_15h18.55.387,lexical_decision_task_DD_L6,2021.2.3,MacIntel,71.42857143,,,,,,,,,,,0.726,1,,,,,,,,,,,,,,,,,,,,,,,,0.032222222,-0.374444444,0,0,0,,,,,,,WRIST,C,z,y,./images/WRIST.png,,,,,,,,,z,1,0.726,,,,,,,,0,90,90,109,1
,,,,,,,,,,,,,,,,,198916,18,2022-01-28_15h18.55.387,lexical_decision_task_DD_L6,2021.2.3,MacIntel,71.42857143,,,,,,,,,,,0.715,1,,,,,,,,,,,,,,,,,,,,,,,,0.032222222,-0.374444444,0,0,0,,,,,,,COUCH,HB,z,y,./images/COUCHHB.png,,,,,,,,,z,1,0.715,,,,,,,,0,91,91,161,1
,,,,,,,,,,,,,,,,,198916,18,2022-01-28_15h18.55.387,lexical_decision_task_DD_L6,2021.2.3,MacIntel,71.42857143,,,,,,,,,,,0.646,1,,,,,,,,,,,,,,,,,,,,,,,,0.032222222,-0.374444444,0,0,0,,,,,,,FERRY,LB,m,y,./images/FERRYLB.png,,,,,,,,,m,1,0.646,,,,,,,,0,92,92,57,1
,,,,,,,,,,,,,,,,,198916,18,2022-01-28_15h18.55.387,lexical_decision_task_DD_L6,2021.2.3,MacIntel,71.42857143,,,,,,,,,,,0.856,1,,,,,,,,,,,,,,,,,,,,,,,,0.032222222,-0.374444444,0,0,0,,,,,,,COOKER,LB,z,y,./images/COOKERLB.png,,,,,,,,,z,1,0.856,,,,,,,,0,93,93,153,1
,,,,,,,,,,,,,,,,,198916,18,2022-01-28_15h18.55.387,lexical_decision_task_DD_L6,2021.2.3,MacIntel,71.42857143,,,,,,,,,,,0.805,1,,,,,,,,,,,,,,,,,,,,,,,,0.032222222,-0.374444444,0,0,0,,,,,,,STAIN,LB,m,y,./images/STAINLB.png,,,,,,,,,m,1,0.805,,,,,,,,0,94,94,6,1
,,,,,,,,,,,,,,,,,198916,18,2022-01-28_15h18.55.387,lexical_decision_task_DD_L6,2021.2.3,MacIntel,71.42857143,,,,,,,,,,,0.642,1,,,,,,,,,,,,,,,,,,,,,,,,0.032222222,-0.374444444,0,0,0,,,,,,,BIRTH,C,z,y,./images/BIRTH.png,,,,,,,,,z,1,0.642,,,,,,,,0,95,95,121,1
,,,,,,,,,,,,,,,,,198916,18,2022-01-28_15h18.55.387,lexical_decision_task_DD_L6,2021.2.3,MacIntel,71.42857143,,,,,,,,,,,0.829,1,,,,,,,,,,,,,,,,,,,,,,,,0.032222222,-0.374444444,0,0,0,,,,,,,STEAK,C,m,y,./images/STEAK.png,,,,,,,,,m,1,0.829,,,,,,,,0,96,96,31,1
,,,,,,,,,,,,,,,,,198916,18,2022-01-28_15h18.55.387,lexical_decision_task_DD_L6,2021.2.3,MacIntel,71.42857143,,,,,,,,,,,0.673,1,,,,,,,,,,,,,,,,,,,,,,,,0.032222222,-0.374444444,0,0,0,,,,,,,BEARD,HB,z,y,./images/BEARDHB.png,,,,,,,,,z,1,0.673,,,,,,,,0,97,97,86,1
,,,,,,,,,,,,,,,,,198916,18,2022-01-28_15h18.55.387,lexical_decision_task_DD_L6,2021.2.3,MacIntel,71.42857143,,,,,,,,,,,0.801,0,,,,,,,,,,,,,,,,,,,,,,,,0.032222222,-0.374444444,0,0,0,,,,,,,STREAM,HB,m,y,./images/STREAMHB.png,,,,,,,,,z,0,0.801,,,,,,,,0,98,98,41,1
,,,,,,,,,,,,,,,,,198916,18,2022-01-28_15h18.55.387,lexical_decision_task_DD_L6,2021.2.3,MacIntel,71.42857143,,,,,,,,,,,0.744,1,,,,,,,,,,,,,,,,,,,,,,,,0.032222222,-0.374444444,0,0,0,,,,,,,BASKET,HB,m,y,./images/BASKETHB.png,,,,,,,,,m,1,0.744,,,,,,,,0,99,99,44,1
,,,,,,,,,,,,,,,,,198916,18,2022-01-28_15h18.55.387,lexical_decision_task_DD_L6,2021.2.3,MacIntel,71.42857143,,,,,,,,,,,0.76,1,,,,,,,,,,,,,,,,,,,,,,,,0.032222222,-0.374444444,0,0,0,,,,,,,PACKET,HB,z,y,./images/PACKETHB.png,,,,,,,,,z,1,0.76,,,,,,,,0,100,100,140,1
,,,,,,,,,,,,,,,,,198916,18,2022-01-28_15h18.55.387,lexical_decision_task_DD_L6,2021.2.3,MacIntel,71.42857143,,,,,,,,,,,0.718,1,,,,,,,,,,,,,,,,,,,,,,,,0.032222222,-0.374444444,0,0,0,,,,,,,INFANT,C,z,y,./images/INFANT.png,,,,,,,,,z,1,0.718,,,,,,,,0,101,101,160,1
,,,,,,,,,,,,,,,,,198916,18,2022-01-28_15h18.55.387,lexical_decision_task_DD_L6,2021.2.3,MacIntel,71.42857143,,,,,,,,,,,1.209,1,,,,,,,,,,,,,,,,,,,,,,,,0.032222222,-0.374444444,0,0,0,,,,,,,CHAIN,LB,m,y,./images/CHAINLB.png,,,,,,,,,m,1,1.209,,,,,,,,0,102,102,42,1
,,,,,,,,,,,,,,,,,198916,18,2022-01-28_15h18.55.387,lexical_decision_task_DD_L6,2021.2.3,MacIntel,71.42857143,,,,,,,,,,,0.606,1,,,,,,,,,,,,,,,,,,,,,,,,0.032222222,-0.374444444,0,0,0,,,,,,,TOWEL,C,m,y,./images/TOWEL.png,,,,,,,,,m,1,0.606,,,,,,,,0,103,103,1,1
,,,,,,,,,,,,,,,,,198916,18,2022-01-28_15h18.55.387,lexical_decision_task_DD_L6,2021.2.3,MacIntel,71.42857143,,,,,,,,,,,0.604,1,,,,,,,,,,,,,,,,,,,,,,,,0.032222222,-0.374444444,0,0,0,,,,,,,BAMBOO,HB,m,y,./images/BAMBOOHB.png,,,,,,,,,m,1,0.604,,,,,,,,0,104,104,5,1
,,,,,,,,,,,,,,,,,198916,18,2022-01-28_15h18.55.387,lexical_decision_task_DD_L6,2021.2.3,MacIntel,71.42857143,,,,,,,,,,,1.054,1,,,,,,,,,,,,,,,,,,,,,,,,0.032222222,-0.374444444,0,0,0,,,,,,,MUFFIN,C,z,y,./images/MUFFIN.png,,,,,,,,,z,1,1.054,,,,,,,,0,105,105,139,1
,,,,,,,,,,,,,,,,,198916,18,2022-01-28_15h18.55.387,lexical_decision_task_DD_L6,2021.2.3,MacIntel,71.42857143,,,,,,,,,,,0.829,1,,,,,,,,,,,,,,,,,,,,,,,,0.032222222,-0.374444444,0,0,0,,,,,,,WEASEL,HB,z,y,./images/WEASELHB.png,,,,,,,,,z,1,0.829,,,,,,,,0,106,106,164,1
,,,,,,,,,,,,,,,,,198916,18,2022-01-28_15h18.55.387,lexical_decision_task_DD_L6,2021.2.3,MacIntel,71.42857143,,,,,,,,,,,0.934,1,,,,,,,,,,,,,,,,,,,,,,,,0.032222222,-0.374444444,0,0,0,,,,,,,SAILOR,C,z,y,./images/SAILOR.png,,,,,,,,,z,1,0.934,,,,,,,,0,107,107,151,1
,,,,,,,,,,,,,,,,,198916,18,2022-01-28_15h18.55.387,lexical_decision_task_DD_L6,2021.2.3,MacIntel,71.42857143,,,,,,,,,,,0.845,1,,,,,,,,,,,,,,,,,,,,,,,,0.032222222,-0.374444444,0,0,0,,,,,,,BUTTER,LB,m,y,./images/BUTTERLB.png,,,,,,,,,m,1,0.845,,,,,,,,0,108,108,27,1
,,,,,,,,,,,,,,,,,198916,18,2022-01-28_15h18.55.387,lexical_decision_task_DD_L6,2021.2.3,MacIntel,71.42857143,,,,,,,,,,,1.196,1,,,,,,,,,,,,,,,,,,,,,,,,0.032222222,-0.374444444,0,0,0,,,,,,,SKIING,HB,z,y,./images/SKIINGHB.png,,,,,,,,,z,1,1.196,,,,,,,,0,109,109,101,1
,,,,,,,,,,,,,,,,,198916,18,2022-01-28_15h18.55.387,lexical_decision_task_DD_L6,2021.2.3,MacIntel,71.42857143,,,,,,,,,,,0.668,1,,,,,,,,,,,,,,,,,,,,,,,,0.032222222,-0.374444444,0,0,0,,,,,,,FOLDER,LB,z,y,./images/FOLDERLB.png,,,,,,,,,z,1,0.668,,,,,,,,0,110,110,126,1
,,,,,,,,,,,,,,,,,198916,18,2022-01-28_15h18.55.387,lexical_decision_task_DD_L6,2021.2.3,MacIntel,71.42857143,,,,,,,,,,,0.687,1,,,,,,,,,,,,,,,,,,,,,,,,0.032222222,-0.374444444,0,0,0,,,,,,,KITTEN,LB,z,y,./images/KITTENLB.png,,,,,,,,,z,1,0.687,,,,,,,,0,111,111,129,1
,,,,,,,,,,,,,,,,,198916,18,2022-01-28_15h18.55.387,lexical_decision_task_DD_L6,2021.2.3,MacIntel,71.42857143,,,,,,,,,,,0.66,1,,,,,,,,,,,,,,,,,,,,,,,,0.032222222,-0.374444444,0,0,0,,,,,,,CURRY,LB,m,y,./images/CURRYLB.png,,,,,,,,,m,1,0.66,,,,,,,,0,112,112,60,1
,,,,,,,,,,,,,,,,,198916,18,2022-01-28_15h18.55.387,lexical_decision_task_DD_L6,2021.2.3,MacIntel,71.42857143,,,,,,,,,,,1.348,1,,,,,,,,,,,,,,,,,,,,,,,,0.032222222,-0.374444444,0,0,0,,,,,,,DRILL,LB,m,y,./images/DRILLLB.png,,,,,,,,,m,1,1.348,,,,,,,,0,113,113,81,1
,,,,,,,,,,,,,,,,,198916,18,2022-01-28_15h18.55.387,lexical_decision_task_DD_L6,2021.2.3,MacIntel,71.42857143,,,,,,,,,,,0.825,1,,,,,,,,,,,,,,,,,,,,,,,,0.032222222,-0.374444444,0,0,0,,,,,,,CLOWN,C,m,y,./images/CLOWN.png,,,,,,,,,m,1,0.825,,,,,,,,0,114,114,22,1
,,,,,,,,,,,,,,,,,198916,18,2022-01-28_15h18.55.387,lexical_decision_task_DD_L6,2021.2.3,MacIntel,71.42857143,,,,,,,,,,,0.602,1,,,,,,,,,,,,,,,,,,,,,,,,0.032222222,-0.374444444,0,0,0,,,,,,,MAGGOT,LB,z,y,./images/MAGGOTLB.png,,,,,,,,,z,1,0.602,,,,,,,,0,115,115,117,1
,,,,,,,,,,,,,,,,,198916,18,2022-01-28_15h18.55.387,lexical_decision_task_DD_L6,2021.2.3,MacIntel,71.42857143,,,,,,,,,,,0.681,1,,,,,,,,,,,,,,,,,,,,,,,,0.032222222,-0.374444444,0,0,0,,,,,,,JELLY,C,z,y,./images/JELLY.png,,,,,,,,,z,1,0.681,,,,,,,,0,116,116,148,1
,,,,,,,,,,,,,,,,,198916,18,2022-01-28_15h18.55.387,lexical_decision_task_DD_L6,2021.2.3,MacIntel,71.42857143,,,,,,,,,,,0.612,1,,,,,,,,,,,,,,,,,,,,,,,,0.032222222,-0.374444444,0,0,0,,,,,,,WHISKY,HB,m,y,./images/WHISKYHB.png,,,,,,,,,m,1,0.612,,,,,,,,0,117,117,83,1
,,,,,,,,,,,,,,,,,198916,18,2022-01-28_15h18.55.387,lexical_decision_task_DD_L6,2021.2.3,MacIntel,71.42857143,,,,,,,,,,,0.797,1,,,,,,,,,,,,,,,,,,,,,,,,0.032222222,-0.374444444,0,0,0,,,,,,,MOSQUE,C,z,y,./images/MOSQUE.png,,,,,,,,,z,1,0.797,,,,,,,,0,118,118,127,1
,,,,,,,,,,,,,,,,,198916,18,2022-01-28_15h18.55.387,lexical_decision_task_DD_L6,2021.2.3,MacIntel,71.42857143,,,,,,,,,,,2.548,0,,,,,,,,,,,,,,,,,,,,,,,,0.032222222,-0.374444444,0,0,0,,,,,,,CRADLE,HB,z,y,./images/CRADLEHB.png,,,,,,,,,m,0,2.548,,,,,,,,0,119,119,104,1
,,,,,,,,,,,,,,,,,198916,18,2022-01-28_15h18.55.387,lexical_decision_task_DD_L6,2021.2.3,MacIntel,71.42857143,,,,,,,,,,,0.751,1,,,,,,,,,,,,,,,,,,,,,,,,0.032222222,-0.374444444,0,0,0,,,,,,,CRUMB,HB,z,y,./images/CRUMBHB.png,,,,,,,,,z,1,0.751,,,,,,,,0,120,120,113,1
,,,,,,,,,,,,,,,,,198916,18,2022-01-28_15h18.55.387,lexical_decision_task_DD_L6,2021.2.3,MacIntel,71.42857143,,,,,,,,,,,0.768,1,,,,,,,,,,,,,,,,,,,,,,,,0.032222222,-0.374444444,0,0,0,,,,,,,CASINO,C,m,y,./images/CASINO.png,,,,,,,,,m,1,0.768,,,,,,,,0,121,121,28,1
,,,,,,,,,,,,,,,,,198916,18,2022-01-28_15h18.55.387,lexical_decision_task_DD_L6,2021.2.3,MacIntel,71.42857143,,,,,,,,,,,1.875,1,,,,,,,,,,,,,,,,,,,,,,,,0.032222222,-0.374444444,0,0,0,,,,,,,SMOKER,HB,z,y,./images/SMOKERHB.png,,,,,,,,,z,1,1.875,,,,,,,,0,122,122,110,1
,,,,,,,,,,,,,,,,,198916,18,2022-01-28_15h18.55.387,lexical_decision_task_DD_L6,2021.2.3,MacIntel,71.42857143,,,,,,,,,,,0.912,1,,,,,,,,,,,,,,,,,,,,,,,,0.032222222,-0.374444444,0,0,0,,,,,,,BANNER,C,z,y,./images/BANNER.png,,,,,,,,,z,1,0.912,,,,,,,,0,123,123,136,1
,,,,,,,,,,,,,,,,,198916,18,2022-01-28_15h18.55.387,lexical_decision_task_DD_L6,2021.2.3,MacIntel,71.42857143,,,,,,,,,,,1.34,1,,,,,,,,,,,,,,,,,,,,,,,,0.032222222,-0.374444444,0,0,0,,,,,,,CANDLE,C,z,y,./images/CANDLE.png,,,,,,,,,z,1,1.34,,,,,,,,0,124,124,145,1
,,,,,,,,,,,,,,,,,198916,18,2022-01-28_15h18.55.387,lexical_decision_task_DD_L6,2021.2.3,MacIntel,71.42857143,,,,,,,,,,,0.844,1,,,,,,,,,,,,,,,,,,,,,,,,0.032222222,-0.374444444,0,0,0,space,,,,,,BELLY,C,z,y,./images/BELLY.png,,1.295,,,,,,,z,1,0.844,,,,,,,,0,125,125,94,1
,,,,,,,,,,,,,,,,,198916,18,2022-01-28_15h18.55.387,lexical_decision_task_DD_L6,2021.2.3,MacIntel,71.42857143,,,,,,,,,,,1.314,1,,,,,,,,,,,,,,,,,,,,,,,,0.032222222,-0.374444444,0,0,0,,,,,,,RHINO,LB,z,y,./images/RHINOLB.png,,,,,,,,,z,1,1.314,,,,,,,,0,126,126,93,1
,,,,,,,,,,,,,,,,,198916,18,2022-01-28_15h18.55.387,lexical_decision_task_DD_L6,2021.2.3,MacIntel,71.42857143,,,,,,,,,,,0.895,1,,,,,,,,,,,,,,,,,,,,,,,,0.032222222,-0.374444444,0,0,0,,,,,,,DRUMS,C,z,y,./images/DRUMS.png,,,,,,,,,z,1,0.895,,,,,,,,0,127,127,133,1
,,,,,,,,,,,,,,,,,198916,18,2022-01-28_15h18.55.387,lexical_decision_task_DD_L6,2021.2.3,MacIntel,71.42857143,,,,,,,,,,,0.665,1,,,,,,,,,,,,,,,,,,,,,,,,0.032222222,-0.374444444,0,0,0,,,,,,,ENGINE,HB,m,y,./images/ENGINEHB.png,,,,,,,,,m,1,0.665,,,,,,,,0,128,128,38,1
,,,,,,,,,,,,,,,,,198916,18,2022-01-28_15h18.55.387,lexical_decision_task_DD_L6,2021.2.3,MacIntel,71.42857143,,,,,,,,,,,0.722,1,,,,,,,,,,,,,,,,,,,,,,,,0.032222222,-0.374444444,0,0,0,,,,,,,DANCER,LB,m,y,./images/DANCERLB.png,,,,,,,,,m,1,0.722,,,,,,,,0,129,129,21,1
,,,,,,,,,,,,,,,,,198916,18,2022-01-28_15h18.55.387,lexical_decision_task_DD_L6,2021.2.3,MacIntel,71.42857143,,,,,,,,,,,0.746,1,,,,,,,,,,,,,,,,,,,,,,,,0.032222222,-0.374444444,0,0,0,,,,,,,DESERT,C,m,y,./images/DESERT.png,,,,,,,,,m,1,0.746,,,,,,,,0,130,130,52,1
,,,,,,,,,,,,,,,,,198916,18,2022-01-28_15h18.55.387,lexical_decision_task_DD_L6,2021.2.3,MacIntel,71.42857143,,,,,,,,,,,0.687,1,,,,,,,,,,,,,,,,,,,,,,,,0.032222222,-0.374444444,0,0,0,,,,,,,CLOUD,HB,m,y,./images/CLOUDHB.png,,,,,,,,,m,1,0.687,,,,,,,,0,131,131,26,1
,,,,,,,,,,,,,,,,,198916,18,2022-01-28_15h18.55.387,lexical_decision_task_DD_L6,2021.2.3,MacIntel,71.42857143,,,,,,,,,,,0.611,1,,,,,,,,,,,,,,,,,,,,,,,,0.032222222,-0.374444444,0,0,0,,,,,,,TWINS,LB,z,y,./images/TWINSLB.png,,,,,,,,,z,1,0.611,,,,,,,,0,132,132,144,1
,,,,,,,,,,,,,,,,,198916,18,2022-01-28_15h18.55.387,lexical_decision_task_DD_L6,2021.2.3,MacIntel,71.42857143,,,,,,,,,,,0.741,1,,,,,,,,,,,,,,,,,,,,,,,,0.031111111,-0.367777778,0,0,0,,,,,,,MUSCLE,C,z,y,./images/MUSCLE.png,,,,,,,,,z,1,0.741,,,,,,,,0,133,133,88,1
,,,,,,,,,,,,,,,,,198916,18,2022-01-28_15h18.55.387,lexical_decision_task_DD_L6,2021.2.3,MacIntel,71.42857143,,,,,,,,,,,0.618,1,,,,,,,,,,,,,,,,,,,,,,,,0.031111111,-0.367777778,0,0,0,,,,,,,MALLET,HB,z,y,./images/MALLETHB.png,,,,,,,,,z,1,0.618,,,,,,,,0,134,134,134,1
,,,,,,,,,,,,,,,,,198916,18,2022-01-28_15h18.55.387,lexical_decision_task_DD_L6,2021.2.3,MacIntel,71.42857143,,,,,,,,,,,0.607,0,,,,,,,,,,,,,,,,,,,,,,,,0.031111111,-0.367777778,0,0,0,,,,,,,SAUNA,LB,m,y,./images/SAUNALB.png,,,,,,,,,z,0,0.607,,,,,,,,0,135,135,33,1
,,,,,,,,,,,,,,,,,198916,18,2022-01-28_15h18.55.387,lexical_decision_task_DD_L6,2021.2.3,MacIntel,71.42857143,,,,,,,,,,,1.156,1,,,,,,,,,,,,,,,,,,,,,,,,0.031111111,-0.367777778,0,0,0,,,,,,,BAKER,LB,m,y,./images/BAKERLB.png,,,,,,,,,m,1,1.156,,,,,,,,0,136,136,63,1
,,,,,,,,,,,,,,,,,198916,18,2022-01-28_15h18.55.387,lexical_decision_task_DD_L6,2021.2.3,MacIntel,71.42857143,,,,,,,,,,,0.771,1,,,,,,,,,,,,,,,,,,,,,,,,0.031111111,-0.367777778,0,0,0,,,,,,,FARMER,HB,z,y,./images/FARMERHB.png,,,,,,,,,z,1,0.771,,,,,,,,0,137,137,149,1
,,,,,,,,,,,,,,,,,198916,18,2022-01-28_15h18.55.387,lexical_decision_task_DD_L6,2021.2.3,MacIntel,71.42857143,,,,,,,,,,,0.711,1,,,,,,,,,,,,,,,,,,,,,,,,0.031111111,-0.367777778,0,0,0,,,,,,,LADDER,HB,z,y,./images/LADDERHB.png,,,,,,,,,z,1,0.711,,,,,,,,0,138,138,122,1
,,,,,,,,,,,,,,,,,198916,18,2022-01-28_15h18.55.387,lexical_decision_task_DD_L6,2021.2.3,MacIntel,71.42857143,,,,,,,,,,,0.689,0,,,,,,,,,,,,,,,,,,,,,,,,0.031111111,-0.367777778,0,0,0,,,,,,,CHERRY,LB,m,y,./images/CHERRYLB.png,,,,,,,,,z,0,0.689,,,,,,,,0,139,139,54,1
,,,,,,,,,,,,,,,,,198916,18,2022-01-28_15h18.55.387,lexical_decision_task_DD_L6,2021.2.3,MacIntel,71.42857143,,,,,,,,,,,0.869,0,,,,,,,,,,,,,,,,,,,,,,,,0.031111111,-0.367777778,0,0,0,,,,,,,MEDAL,HB,m,y,./images/MEDALHB.png,,,,,,,,,z,0,0.869,,,,,,,,0,140,140,11,1
,,,,,,,,,,,,,,,,,198916,18,2022-01-28_15h18.55.387,lexical_decision_task_DD_L6,2021.2.3,MacIntel,71.42857143,,,,,,,,,,,1.274,1,,,,,,,,,,,,,,,,,,,,,,,,0.03,-0.36,0,0,0,,,,,,,SHELF,LB,z,y,./images/SHELFLB.png,,,,,,,,,z,1,1.274,,,,,,,,0,141,141,123,1
,,,,,,,,,,,,,,,,,198916,18,2022-01-28_15h18.55.387,lexical_decision_task_DD_L6,2021.2.3,MacIntel,71.42857143,,,,,,,,,,,0.745,1,,,,,,,,,,,,,,,,,,,,,,,,0.03,-0.36,0,0,0,,,,,,,GREASE,LB,z,y,./images/GREASELB.png,,,,,,,,,z,1,0.745,,,,,,,,0,142,142,99,1
,,,,,,,,,,,,,,,,,198916,18,2022-01-28_15h18.55.387,lexical_decision_task_DD_L6,2021.2.3,MacIntel,71.42857143,,,,,,,,,,,0.895,1,,,,,,,,,,,,,,,,,,,,,,,,0.03,-0.36,0,0,0,,,,,,,CANYON,C,z,y,./images/CANYON.png,,,,,,,,,z,1,0.895,,,,,,,,0,143,143,118,1
,,,,,,,,,,,,,,,,,198916,18,2022-01-28_15h18.55.387,lexical_decision_task_DD_L6,2021.2.3,MacIntel,71.42857143,,,,,,,,,,,0.804,1,,,,,,,,,,,,,,,,,,,,,,,,0.03,-0.36,0,0,0,,,,,,,PARADE,HB,m,y,./images/PARADEHB.png,,,,,,,,,m,1,0.804,,,,,,,,0,144,144,17,1
,,,,,,,,,,,,,,,,,198916,18,2022-01-28_15h18.55.387,lexical_decision_task_DD_L6,2021.2.3,MacIntel,71.42857143,,,,,,,,,,,0.635,1,,,,,,,,,,,,,,,,,,,,,,,,0.03,-0.36,0,0,0,,,,,,,FENCE,HB,m,y,./images/FENCEHB.png,,,,,,,,,m,1,0.635,,,,,,,,0,145,145,14,1
,,,,,,,,,,,,,,,,,198916,18,2022-01-28_15h18.55.387,lexical_decision_task_DD_L6,2021.2.3,MacIntel,71.42857143,,,,,,,,,,,0.819,1,,,,,,,,,,,,,,,,,,,,,,,,0.031111111,-0.365555556,0,0,0,,,,,,,PICKLE,HB,z,y,./images/PICKLEHB.png,,,,,,,,,z,1,0.819,,,,,,,,0,146,146,98,1
,,,,,,,,,,,,,,,,,198916,18,2022-01-28_15h18.55.387,lexical_decision_task_DD_L6,2021.2.3,MacIntel,71.42857143,,,,,,,,,,,0.722,1,,,,,,,,,,,,,,,,,,,,,,,,0.031111111,-0.365555556,0,0,0,,,,,,,BUBBLE,HB,m,y,./images/BUBBLEHB.png,,,,,,,,,m,1,0.722,,,,,,,,0,147,147,71,1
,,,,,,,,,,,,,,,,,198916,18,2022-01-28_15h18.55.387,lexical_decision_task_DD_L6,2021.2.3,MacIntel,71.42857143,,,,,,,,,,,0.684,1,,,,,,,,,,,,,,,,,,,,,,,,0.031111111,-0.365555556,0,0,0,,,,,,,CRUST,C,z,y,./images/CRUST.png,,,,,,,,,z,1,0.684,,,,,,,,0,148,148,163,1
,,,,,,,,,,,,,,,,,198916,18,2022-01-28_15h18.55.387,lexical_decision_task_DD_L6,2021.2.3,MacIntel,71.42857143,,,,,,,,,,,0.929,0,,,,,,,,,,,,,,,,,,,,,,,,0.031111111,-0.365555556,0,0,0,,,,,,,DONKEY,C,m,y,./images/DONKEY.png,,,,,,,,,z,0,0.929,,,,,,,,0,149,149,19,1
,,,,,,,,,,,,,,,,,198916,18,2022-01-28_15h18.55.387,lexical_decision_task_DD_L6,2021.2.3,MacIntel,71.42857143,,,,,,,,,,,0.917,1,,,,,,,,,,,,,,,,,,,,,,,,0.031111111,-0.365555556,0,0,0,,,,,,,POODLE,LB,z,y,./images/POODLELB.png,,,,,,,,,z,1,0.917,,,,,,,,0,150,150,165,1
,,,,,,,,,,,,,,,,,198916,18,2022-01-28_15h18.55.387,lexical_decision_task_DD_L6,2021.2.3,MacIntel,71.42857143,,,,,,,,,,,0.741,1,,,,,,,,,,,,,,,,,,,,,,,,0.031111111,-0.365555556,0,0,0,,,,,,,PASTA,HB,z,y,./images/PASTAHB.png,,,,,,,,,z,1,0.741,,,,,,,,0,151,151,89,1
,,,,,,,,,,,,,,,,,198916,18,2022-01-28_15h18.55.387,lexical_decision_task_DD_L6,2021.2.3,MacIntel,71.42857143,,,,,,,,,,,0.697,1,,,,,,,,,,,,,,,,,,,,,,,,0.031111111,-0.365555556,0,0,0,,,,,,,LLAMA,HB,m,y,./images/LLAMAHB.png,,,,,,,,,m,1,0.697,,,,,,,,0,152,152,35,1
,,,,,,,,,,,,,,,,,198916,18,2022-01-28_15h18.55.387,lexical_decision_task_DD_L6,2021.2.3,MacIntel,71.42857143,,,,,,,,,,,0.612,1,,,,,,,,,,,,,,,,,,,,,,,,0.031111111,-0.37,0,0,0,,,,,,,CEMENT,HB,z,y,./images/CEMENTHB.png,,,,,,,,,z,1,0.612,,,,,,,,0,153,153,158,1
,,,,,,,,,,,,,,,,,198916,18,2022-01-28_15h18.55.387,lexical_decision_task_DD_L6,2021.2.3,MacIntel,71.42857143,,,,,,,,,,,0.754,1,,,,,,,,,,,,,,,,,,,,,,,,0.031111111,-0.37,0,0,0,,,,,,,LITTER,LB,z,y,./images/LITTERLB.png,,,,,,,,,z,1,0.754,,,,,,,,0,154,154,162,1
,,,,,,,,,,,,,,,,,198916,18,2022-01-28_15h18.55.387,lexical_decision_task_DD_L6,2021.2.3,MacIntel,71.42857143,,,,,,,,,,,0.944,1,,,,,,,,,,,,,,,,,,,,,,,,0.031111111,-0.37,0,0,0,,,,,,,TORCH,HB,z,y,./images/TORCHHB.png,,,,,,,,,z,1,0.944,,,,,,,,0,155,155,152,1
,,,,,,,,,,,,,,,,,198916,18,2022-01-28_15h18.55.387,lexical_decision_task_DD_L6,2021.2.3,MacIntel,71.42857143,,,,,,,,,,,1.057,0,,,,,,,,,,,,,,,,,,,,,,,,0.031111111,-0.37,0,0,0,,,,,,,PILOT,HB,m,y,./images/PILOTHB.png,,,,,,,,,z,0,1.057,,,,,,,,0,156,156,50,1
,,,,,,,,,,,,,,,,,198916,18,2022-01-28_15h18.55.387,lexical_decision_task_DD_L6,2021.2.3,MacIntel,71.42857143,,,,,,,,,,,1.204,1,,,,,,,,,,,,,,,,,,,,,,,,0.031111111,-0.37,0,0,0,,,,,,,BABOON,C,z,y,./images/BABOON.png,,,,,,,,,z,1,1.204,,,,,,,,0,157,157,142,1
,,,,,,,,,,,,,,,,,198916,18,2022-01-28_15h18.55.387,lexical_decision_task_DD_L6,2021.2.3,MacIntel,71.42857143,,,,,,,,,,,0.743,1,,,,,,,,,,,,,,,,,,,,,,,,0.031111111,-0.37,0,0,0,,,,,,,BRIDE,C,m,y,./images/BRIDE.png,,,,,,,,,m,1,0.743,,,,,,,,0,158,158,64,1
,,,,,,,,,,,,,,,,,198916,18,2022-01-28_15h18.55.387,lexical_decision_task_DD_L6,2021.2.3,MacIntel,71.42857143,,,,,,,,,,,1.092,1,,,,,,,,,,,,,,,,,,,,,,,,0.031111111,-0.37,0,0,0,,,,,,,PEBBLE,C,m,y,./images/PEBBLE.png,,,,,,,,,m,1,1.092,,,,,,,,0,159,159,82,1
,,,,,,,,,,,,,,,,,198916,18,2022-01-28_15h18.55.387,lexical_decision_task_DD_L6,2021.2.3,MacIntel,71.42857143,,,,,,,,,,,0.637,1,,,,,,,,,,,,,,,,,,,,,,,,0.031111111,-0.37,0,0,0,,,,,,,STRING,HB,z,y,./images/STRINGHB.png,,,,,,,,,z,1,0.637,,,,,,,,0,160,160,125,1
,,,,,,,,,,,,,,,,,198916,18,2022-01-28_15h18.55.387,lexical_decision_task_DD_L6,2021.2.3,MacIntel,71.42857143,,,,,,,,,,,2.047,1,,,,,,,,,,,,,,,,,,,,,,,,0.031111111,-0.37,0,0,0,,,,,,,STOVE,HB,m,y,./images/STOVEHB.png,,,,,,,,,m,1,2.047,,,,,,,,0,161,161,2,1
,,,,,,,,,,,,,,,,,198916,18,2022-01-28_15h18.55.387,lexical_decision_task_DD_L6,2021.2.3,MacIntel,71.42857143,,,,,,,,,,,0.918,0,,,,,,,,,,,,,,,,,,,,,,,,0.031111111,-0.37,0,0,0,,,,,,,PARCEL,LB,m,y,./images/PARCELLB.png,,,,,,,,,z,0,0.918,,,,,,,,0,162,162,18,1
,,,,,,,,,,,,,,,,,198916,18,2022-01-28_15h18.55.387,lexical_decision_task_DD_L6,2021.2.3,MacIntel,71.42857143,,,,,,,,,,,0.712,1,,,,,,,,,,,,,,,,,,,,,,,,0.031111111,-0.37,0,0,0,,,,,,,FINGER,LB,z,y,./images/FINGERLB.png,,,,,,,,,z,1,0.712,,,,,,,,0,163,163,87,1
,,,,,,,,,,,,,,,,,198916,18,2022-01-28_15h18.55.387,lexical_decision_task_DD_L6,2021.2.3,MacIntel,71.42857143,,,,,,,,,,,1.877,1,,,,,,,,,,,,,,,,,,,,,,,,0.031111111,-0.37,0,0,0,,,,,,,BUNNY,C,m,y,./images/BUNNY.png,,,,,,,,,m,1,1.877,,,,,,,,0,164,164,13,1
,,,,,,,,,,,,,,,,,198916,18,2022-01-28_15h18.55.387,lexical_decision_task_DD_L6,2021.2.3,MacIntel,71.42857143,,,,,,,,,,,0.595,0,,,,,,,,,,,,,,,,,,,,,,,,0.031111111,-0.37,0,0,0,,,,,,,CRATER,LB,m,y,./images/CRATERLB.png,,,,,,,,,z,0,0.595,,,,,,,,0,165,165,3,1
,,,,,,,,,,,,,,,,,198916,18,2022-01-28_15h18.55.387,lexical_decision_task_DD_L6,2021.2.3,MacIntel,71.42857143,,,,,,,,,,,0.836,1,,,,,,,,,,,,,,,,,,,,,,,,0.031111111,-0.37,0,0,0,,,,,,,QUILL,C,z,y,./images/QUILL.png,,,,,,,,,z,1,0.836,,,,,,,,0,166,166,115,1
,,,,,,,,,,,,,,,,,198916,18,2022-01-28_15h18.55.387,lexical_decision_task_DD_L6,2021.2.3,MacIntel,71.42857143,,,,,,,,,,,0.888,1,,,,,,,,,,,,,,,,,,,,,,,,0.031111111,-0.37,0,0,0,,,,,,,WALNUT,LB,m,y,./images/WALNUTLB.png,,,,,,,,,m,1,0.888,,,,,,,,0,167,167,0,1
