key_resp.keys,instr_done_touch.x,instr_done_touch.y,instr_done_touch.leftButton,instr_done_touch.midButton,instr_done_touch.rightButton,instr_done_touch.clicked_name,instruction_pages.thisRepN,instruction_pages.thisTrialN,instruction_pages.thisN,instruction_pages.thisIndex,instruction_pages.ran,pageN,phase,instruct_text,has_image,instruct_image,participant,age,date,expName,psychopyVersion,OS,frameRate,key_resp.rt,response.keys,response.corr,response.rt,touch_resp.x,touch_resp.y,touch_resp.leftButton,touch_resp.midButton,touch_resp.rightButton,touch_resp.time,touch_resp.clicked_name,rt,corr,practrials.thisRepN,practrials.thisTrialN,practrials.thisN,practrials.thisIndex,practrials.ran,TrialID,Target,corrAns,end_of_practice_trials_pages.thisRepN,end_of_practice_trials_pages.thisTrialN,end_of_practice_trials_pages.thisN,end_of_practice_trials_pages.thisIndex,end_of_practice_trials_pages.ran,key_resp_2.keys,key_resp_2.corr,key_resp_2.rt,targ_click.x,targ_click.y,targ_click.leftButton,targ_click.midButton,targ_click.rightButton,targ_click.time,targ_click.clicked_name,break_done_touch.x,break_done_touch.y,break_done_touch.leftButton,break_done_touch.midButton,break_done_touch.rightButton,break_done_keyboard.keys,maintrials.thisRepN,maintrials.thisTrialN,maintrials.thisN,maintrials.thisIndex,maintrials.ran,string,blur,study,lex,stim_path,break_done_keyboard.rt,test_instructions.thisRepN,test_instructions.thisTrialN,test_instructions.thisN,test_instructions.thisIndex,test_instructions.ran,key_resp_3.keys,key_resp_3.corr,key_resp_3.rt,test_click.x,test_click.y,test_click.leftButton,test_click.midButton,test_click.rightButton,test_click.time,test_click.clicked_name,test_phase.thisRepN,test_phase.thisTrialN,test_phase.thisN,test_phase.thisIndex,test_phase.ran
,0.1325,-0.39375,1,0,0,instr_done_button,0,0,0,0,1,1,instructions,"INSTRUCTIONS
At the start of each trial, look at the plus sign  (+) in the center of the screen.  This tells you that a trial is about to begin and where to look. Second, the plus sign will disappear and a string of letters will appear. Your task is to determine if the string of letters is a word or not. If the item is a word press the M key (on keyboard)  or touch the word button (phone/tablet).  If the item is not a word,  press the  Z key (on keyboard)  or touch the nonword button (on phone/tablet). 
Press the space bar or touch  continue.",0,,198946,18,2022-02-01_16h56.35.921,lexical_decision_task_DD_L2,2021.2.3,MacIntel,62.5,,,,,,,,,,,,,,,,,,,,,,,,,,,,,,,,,,,,,,,,,,,,,,,,,,,,,,,,,,,,,,,,,,,,,,,,,
,0.1325,-0.39375,1,0,0,instr_done_button,0,1,1,1,1,2,instructions,"If your device has a keyboard, press the 'Z' key for nonwords and the 'M' key for words.





Press the space bar or touch the button below to continue.",0,keyboard-example.gif,198946,18,2022-02-01_16h56.35.921,lexical_decision_task_DD_L2,2021.2.3,MacIntel,62.5,,,,,,,,,,,,,,,,,,,,,,,,,,,,,,,,,,,,,,,,,,,,,,,,,,,,,,,,,,,,,,,,,,,,,,,,,
,0.1325,-0.39375,1,0,0,instr_done_button,0,2,2,2,1,3,instructions,"If you are using a touchscreen only device, use the buttons on the screen. Do not use the mouse.





Press the space bar or touch the button below to continue.",0,touchscreen-example.gif,198946,18,2022-02-01_16h56.35.921,lexical_decision_task_DD_L2,2021.2.3,MacIntel,62.5,,,,,,,,,,,,,,,,,,,,,,,,,,,,,,,,,,,,,,,,,,,,,,,,,,,,,,,,,,,,,,,,,,,,,,,,,
space,0.13125,-0.30125,0,0,0,,0,3,3,3,1,4,instructions,"It is very important that you respond as quickly and accurately as possible, as each letter string will only be on the screen for two seconds. If you do not respond within this time, the message 'Too slow!' will be displayed and the experiment will progress to the next letter string. The first 20 trials will be practice trials and you will receive feedback on your answers. 

Press the space bar or touch the button below to start the practice trials.",0,,198946,18,2022-02-01_16h56.35.921,lexical_decision_task_DD_L2,2021.2.3,MacIntel,62.5,10.457,,,,,,,,,,,,,,,,,,,,,,,,,,,,,,,,,,,,,,,,,,,,,,,,,,,,,,,,,,,,,,,,,,,,,,,,
,,,,,,,,,,,,,,,,,198946,18,2022-02-01_16h56.35.921,lexical_decision_task_DD_L2,2021.2.3,MacIntel,62.5,,z,0,1.241,,,,,,,,1.241,0,0,0,0,1,1,1001,ADJUST,m,,,,,,,,,,,,,,,,,,,,,,,,,,,,,,,,,,,,,,,,,,,,,,,,,,,,
,,,,,,,,,,,,,,,,,198946,18,2022-02-01_16h56.35.921,lexical_decision_task_DD_L2,2021.2.3,MacIntel,62.5,,z,1,1.209,,,,,,,,1.209,1,0,1,1,9,1,1001,FARINY,z,,,,,,,,,,,,,,,,,,,,,,,,,,,,,,,,,,,,,,,,,,,,,,,,,,,,
,,,,,,,,,,,,,,,,,198946,18,2022-02-01_16h56.35.921,lexical_decision_task_DD_L2,2021.2.3,MacIntel,62.5,,m,1,0.644,,,,,,,,0.644,1,0,2,2,2,1,1001,ALMOND,m,,,,,,,,,,,,,,,,,,,,,,,,,,,,,,,,,,,,,,,,,,,,,,,,,,,,
,,,,,,,,,,,,,,,,,198946,18,2022-02-01_16h56.35.921,lexical_decision_task_DD_L2,2021.2.3,MacIntel,62.5,,m,1,0.605,,,,,,,,0.605,1,0,3,3,6,1,1001,ZOMBIE,m,,,,,,,,,,,,,,,,,,,,,,,,,,,,,,,,,,,,,,,,,,,,,,,,,,,,
,,,,,,,,,,,,,,,,,198946,18,2022-02-01_16h56.35.921,lexical_decision_task_DD_L2,2021.2.3,MacIntel,62.5,,m,0,0.797,,,,,,,,0.797,0,0,4,4,13,1,1001,ROUPET,z,,,,,,,,,,,,,,,,,,,,,,,,,,,,,,,,,,,,,,,,,,,,,,,,,,,,
,,,,,,,,,,,,,,,,,198946,18,2022-02-01_16h56.35.921,lexical_decision_task_DD_L2,2021.2.3,MacIntel,62.5,,m,1,0.658,,,,,,,,0.658,1,0,5,5,3,1,1001,MATRIX,m,,,,,,,,,,,,,,,,,,,,,,,,,,,,,,,,,,,,,,,,,,,,,,,,,,,,
,,,,,,,,,,,,,,,,,198946,18,2022-02-01_16h56.35.921,lexical_decision_task_DD_L2,2021.2.3,MacIntel,62.5,,z,1,0.874,,,,,,,,0.874,1,0,6,6,15,1,1001,WHAISE,z,,,,,,,,,,,,,,,,,,,,,,,,,,,,,,,,,,,,,,,,,,,,,,,,,,,,
,,,,,,,,,,,,,,,,,198946,18,2022-02-01_16h56.35.921,lexical_decision_task_DD_L2,2021.2.3,MacIntel,62.5,,m,1,1.139,,,,,,,,1.139,1,0,7,7,0,1,1001,UTOPIA,m,,,,,,,,,,,,,,,,,,,,,,,,,,,,,,,,,,,,,,,,,,,,,,,,,,,,
,,,,,,,,,,,,,,,,,198946,18,2022-02-01_16h56.35.921,lexical_decision_task_DD_L2,2021.2.3,MacIntel,62.5,,z,1,0.711,,,,,,,,0.711,1,0,8,8,8,1,1001,ASLERT,z,,,,,,,,,,,,,,,,,,,,,,,,,,,,,,,,,,,,,,,,,,,,,,,,,,,,
,,,,,,,,,,,,,,,,,198946,18,2022-02-01_16h56.35.921,lexical_decision_task_DD_L2,2021.2.3,MacIntel,62.5,,z,1,0.692,,,,,,,,0.692,1,0,9,9,11,1,1001,RASHET,z,,,,,,,,,,,,,,,,,,,,,,,,,,,,,,,,,,,,,,,,,,,,,,,,,,,,
,,,,,,,,,,,,,,,,,198946,18,2022-02-01_16h56.35.921,lexical_decision_task_DD_L2,2021.2.3,MacIntel,62.5,,z,1,0.557,,,,,,,,0.557,1,0,10,10,14,1,1001,THRALE,z,,,,,,,,,,,,,,,,,,,,,,,,,,,,,,,,,,,,,,,,,,,,,,,,,,,,
,,,,,,,,,,,,,,,,,198946,18,2022-02-01_16h56.35.921,lexical_decision_task_DD_L2,2021.2.3,MacIntel,62.5,,z,1,0.966,,,,,,,,0.966,1,0,11,11,10,1,1001,INLADE,z,,,,,,,,,,,,,,,,,,,,,,,,,,,,,,,,,,,,,,,,,,,,,,,,,,,,
,,,,,,,,,,,,,,,,,198946,18,2022-02-01_16h56.35.921,lexical_decision_task_DD_L2,2021.2.3,MacIntel,62.5,,m,1,0.58,,,,,,,,0.58,1,0,12,12,4,1,1001,SQUEAK,m,,,,,,,,,,,,,,,,,,,,,,,,,,,,,,,,,,,,,,,,,,,,,,,,,,,,
,,,,,,,,,,,,,,,,,198946,18,2022-02-01_16h56.35.921,lexical_decision_task_DD_L2,2021.2.3,MacIntel,62.5,,z,1,0.764,,,,,,,,0.764,1,0,13,13,12,1,1001,SPRINY,z,,,,,,,,,,,,,,,,,,,,,,,,,,,,,,,,,,,,,,,,,,,,,,,,,,,,
,,,,,,,,,,,,,,,,,198946,18,2022-02-01_16h56.35.921,lexical_decision_task_DD_L2,2021.2.3,MacIntel,62.5,,m,1,0.611,,,,,,,,0.611,1,0,14,14,7,1,1001,VOLUME,m,,,,,,,,,,,,,,,,,,,,,,,,,,,,,,,,,,,,,,,,,,,,,,,,,,,,
,,,,,,,,,,,,,,,,,198946,18,2022-02-01_16h56.35.921,lexical_decision_task_DD_L2,2021.2.3,MacIntel,62.5,,m,1,0.698,,,,,,,,0.698,1,0,15,15,5,1,1001,OBTAIN,m,,,,,,,,,,,,,,,,,,,,,,,,,,,,,,,,,,,,,,,,,,,,,,,,,,,,
space,0.415,0.09875,0,0,0,,,,,,,1,end_of_practice,"You have completed the practice trials. During the experimental trials, you will not receive feedback. 
Before you begin, please ensure that you are in a comfortable and quiet location and will not be disturbed for about 15 minutes, as we cannot use your data if you do not complete all the trials. 
 When you are ready to start the experimental trials, please press space or touch the button below.",,,198946,18,2022-02-01_16h56.35.921,lexical_decision_task_DD_L2,2021.2.3,MacIntel,62.5,3461.401,,,,,,,,,,,,,,,,,,,,,0,0,0,0,1,,,,,,,,,,,,,,,,,,,,,,,,,,,,,,,,,,,,,,,,,,,,,,,
,,,,,,,,,,,,,,,,,198946,18,2022-02-01_16h56.35.921,lexical_decision_task_DD_L2,2021.2.3,MacIntel,62.5,,,,,,,,,,,,1.413,1,,,,,,,,,,,,,,m,1,1.413,,,,,,,,0.415,0.09875,0,0,0,,0,0,0,31,1,QUILL,LB,old,m,./images/QUILLLB.png,,,,,,,,,,,,,,,,,,,,,
,,,,,,,,,,,,,,,,,198946,18,2022-02-01_16h56.35.921,lexical_decision_task_DD_L2,2021.2.3,MacIntel,62.5,,,,,,,,,,,,1.85,1,,,,,,,,,,,,,,z,1,1.85,,,,,,,,0.415,0.09875,0,0,0,,0,1,1,117,1,STEEG,C,old,z,./images/STEEG.png,,,,,,,,,,,,,,,,,,,,,
,,,,,,,,,,,,,,,,,198946,18,2022-02-01_16h56.35.921,lexical_decision_task_DD_L2,2021.2.3,MacIntel,62.5,,,,,,,,,,,,0.674,1,,,,,,,,,,,,,,z,1,0.674,,,,,,,,0.415,0.09875,0,0,0,,0,2,2,96,1,KEAMS,C,old,z,./images/KEAMS.png,,,,,,,,,,,,,,,,,,,,,
,,,,,,,,,,,,,,,,,198946,18,2022-02-01_16h56.35.921,lexical_decision_task_DD_L2,2021.2.3,MacIntel,62.5,,,,,,,,,,,,0.652,1,,,,,,,,,,,,,,z,1,0.652,,,,,,,,0.415,0.09875,0,0,0,,0,3,3,111,1,HOSSE,C,old,z,./images/HOSSE.png,,,,,,,,,,,,,,,,,,,,,
,,,,,,,,,,,,,,,,,198946,18,2022-02-01_16h56.35.921,lexical_decision_task_DD_L2,2021.2.3,MacIntel,62.5,,,,,,,,,,,,0.865,1,,,,,,,,,,,,,,m,1,0.865,,,,,,,,0.415,0.09875,0,0,0,,0,4,4,48,1,SPORT,HB,old,m,./images/SPORTHB.png,,,,,,,,,,,,,,,,,,,,,
,,,,,,,,,,,,,,,,,198946,18,2022-02-01_16h56.35.921,lexical_decision_task_DD_L2,2021.2.3,MacIntel,62.5,,,,,,,,,,,,0.982,1,,,,,,,,,,,,,,z,1,0.982,,,,,,,,0.415,0.09875,0,0,0,,0,5,5,89,1,DRIEK,LB,old,z,./images/DRIEKLB.png,,,,,,,,,,,,,,,,,,,,,
,,,,,,,,,,,,,,,,,198946,18,2022-02-01_16h56.35.921,lexical_decision_task_DD_L2,2021.2.3,MacIntel,62.5,,,,,,,,,,,,1.467,1,,,,,,,,,,,,,,z,1,1.467,,,,,,,,0.415,0.09875,0,0,0,,0,6,6,130,1,CRILL,HB,old,z,./images/CRILLHB.png,,,,,,,,,,,,,,,,,,,,,
,,,,,,,,,,,,,,,,,198946,18,2022-02-01_16h56.35.921,lexical_decision_task_DD_L2,2021.2.3,MacIntel,62.5,,,,,,,,,,,,0.666,1,,,,,,,,,,,,,,m,1,0.666,,,,,,,,0.415,0.09875,0,0,0,,0,7,7,28,1,FALCON,LB,old,m,./images/FALCONLB.png,,,,,,,,,,,,,,,,,,,,,
,,,,,,,,,,,,,,,,,198946,18,2022-02-01_16h56.35.921,lexical_decision_task_DD_L2,2021.2.3,MacIntel,62.5,,,,,,,,,,,,0.609,1,,,,,,,,,,,,,,m,1,0.609,,,,,,,,0.415,0.09875,0,0,0,,0,8,8,51,1,ONION,HB,old,m,./images/ONIONHB.png,,,,,,,,,,,,,,,,,,,,,
,,,,,,,,,,,,,,,,,198946,18,2022-02-01_16h56.35.921,lexical_decision_task_DD_L2,2021.2.3,MacIntel,62.5,,,,,,,,,,,,0.771,1,,,,,,,,,,,,,,m,1,0.771,,,,,,,,0.415,0.09875,0,0,0,,0,9,9,80,1,WEASEL,C,old,m,./images/WEASEL.png,,,,,,,,,,,,,,,,,,,,,
,,,,,,,,,,,,,,,,,198946,18,2022-02-01_16h56.35.921,lexical_decision_task_DD_L2,2021.2.3,MacIntel,62.5,,,,,,,,,,,,0.601,1,,,,,,,,,,,,,,m,1,0.601,,,,,,,,0.415,0.09875,0,0,0,,0,10,10,57,1,MOOSE,HB,old,m,./images/MOOSEHB.png,,,,,,,,,,,,,,,,,,,,,
,,,,,,,,,,,,,,,,,198946,18,2022-02-01_16h56.35.921,lexical_decision_task_DD_L2,2021.2.3,MacIntel,62.5,,,,,,,,,,,,0.55,1,,,,,,,,,,,,,,m,1,0.55,,,,,,,,0.415,0.09875,0,0,0,,0,11,11,10,1,BELLY,LB,old,m,./images/BELLYLB.png,,,,,,,,,,,,,,,,,,,,,
,,,,,,,,,,,,,,,,,198946,18,2022-02-01_16h56.35.921,lexical_decision_task_DD_L2,2021.2.3,MacIntel,62.5,,,,,,,,,,,,0.764,1,,,,,,,,,,,,,,m,1,0.764,,,,,,,,0.415,0.09875,0,0,0,,0,12,12,16,1,PENCE,LB,old,m,./images/PENCELB.png,,,,,,,,,,,,,,,,,,,,,
,,,,,,,,,,,,,,,,,198946,18,2022-02-01_16h56.35.921,lexical_decision_task_DD_L2,2021.2.3,MacIntel,62.5,,,,,,,,,,,,0.938,1,,,,,,,,,,,,,,z,1,0.938,,,,,,,,0.415,0.09875,0,0,0,,0,13,13,98,1,BAMPS,LB,old,z,./images/BAMPSLB.png,,,,,,,,,,,,,,,,,,,,,
,,,,,,,,,,,,,,,,,198946,18,2022-02-01_16h56.35.921,lexical_decision_task_DD_L2,2021.2.3,MacIntel,62.5,,,,,,,,,,,,2.16,1,,,,,,,,,,,,,,z,1,2.16,,,,,,,,0.415,0.09875,0,0,0,,0,14,14,91,1,SHENS,HB,old,z,./images/SHENSHB.png,,,,,,,,,,,,,,,,,,,,,
,,,,,,,,,,,,,,,,,198946,18,2022-02-01_16h56.35.921,lexical_decision_task_DD_L2,2021.2.3,MacIntel,62.5,,,,,,,,,,,,0.632,1,,,,,,,,,,,,,,m,1,0.632,,,,,,,,0.415,0.09875,0,0,0,,0,15,15,65,1,FARMER,C,old,m,./images/FARMER.png,,,,,,,,,,,,,,,,,,,,,
,,,,,,,,,,,,,,,,,198946,18,2022-02-01_16h56.35.921,lexical_decision_task_DD_L2,2021.2.3,MacIntel,62.5,,,,,,,,,,,,0.817,1,,,,,,,,,,,,,,m,1,0.817,,,,,,,,0.415,0.09875,0,0,0,,0,16,16,50,1,MALLET,C,old,m,./images/MALLET.png,,,,,,,,,,,,,,,,,,,,,
,,,,,,,,,,,,,,,,,198946,18,2022-02-01_16h56.35.921,lexical_decision_task_DD_L2,2021.2.3,MacIntel,62.5,,,,,,,,,,,,0.632,1,,,,,,,,,,,,,,m,1,0.632,,,,,,,,0.415,0.09875,0,0,0,,0,17,17,18,1,JAGUAR,HB,old,m,./images/JAGUARHB.png,,,,,,,,,,,,,,,,,,,,,
,,,,,,,,,,,,,,,,,198946,18,2022-02-01_16h56.35.921,lexical_decision_task_DD_L2,2021.2.3,MacIntel,62.5,,,,,,,,,,,,0.514,1,,,,,,,,,,,,,,m,1,0.514,,,,,,,,0.415,0.09875,0,0,0,,0,18,18,49,1,DRUMS,LB,old,m,./images/DRUMSLB.png,,,,,,,,,,,,,,,,,,,,,
,,,,,,,,,,,,,,,,,198946,18,2022-02-01_16h56.35.921,lexical_decision_task_DD_L2,2021.2.3,MacIntel,62.5,,,,,,,,,,,,0.662,1,,,,,,,,,,,,,,z,1,0.662,,,,,,,,0.415,0.09875,0,0,0,,0,19,19,162,1,LEICH,C,old,z,./images/LEICH.png,,,,,,,,,,,,,,,,,,,,,
,,,,,,,,,,,,,,,,,198946,18,2022-02-01_16h56.35.921,lexical_decision_task_DD_L2,2021.2.3,MacIntel,62.5,,,,,,,,,,,,0.597,1,,,,,,,,,,,,,,z,1,0.597,,,,,,,,0.415,0.09875,0,0,0,,0,20,20,108,1,GRUET,C,old,z,./images/GRUET.png,,,,,,,,,,,,,,,,,,,,,
,,,,,,,,,,,,,,,,,198946,18,2022-02-01_16h56.35.921,lexical_decision_task_DD_L2,2021.2.3,MacIntel,62.5,,,,,,,,,,,,0.576,1,,,,,,,,,,,,,,z,1,0.576,,,,,,,,0.415,0.09875,0,0,0,,0,21,21,116,1,BALGY,LB,old,z,./images/BALGYLB.png,,,,,,,,,,,,,,,,,,,,,
,,,,,,,,,,,,,,,,,198946,18,2022-02-01_16h56.35.921,lexical_decision_task_DD_L2,2021.2.3,MacIntel,62.5,,,,,,,,,,,,0.769,1,,,,,,,,,,,,,,z,1,0.769,,,,,,,,0.415,0.09875,0,0,0,,0,22,22,156,1,HIXES,C,old,z,./images/HIXES.png,,,,,,,,,,,,,,,,,,,,,
,,,,,,,,,,,,,,,,,198946,18,2022-02-01_16h56.35.921,lexical_decision_task_DD_L2,2021.2.3,MacIntel,62.5,,,,,,,,,,,,0.6,1,,,,,,,,,,,,,,m,1,0.6,,,,,,,,0.415,0.09875,0,0,0,,0,23,23,64,1,JELLY,LB,old,m,./images/JELLYLB.png,,,,,,,,,,,,,,,,,,,,,
,,,,,,,,,,,,,,,,,198946,18,2022-02-01_16h56.35.921,lexical_decision_task_DD_L2,2021.2.3,MacIntel,62.5,,,,,,,,,,,,0.534,1,,,,,,,,,,,,,,m,1,0.534,,,,,,,,0.415,0.09875,0,0,0,,0,24,24,55,1,MUFFIN,LB,old,m,./images/MUFFINLB.png,,,,,,,,,,,,,,,,,,,,,
,,,,,,,,,,,,,,,,,198946,18,2022-02-01_16h56.35.921,lexical_decision_task_DD_L2,2021.2.3,MacIntel,62.5,,,,,,,,,,,,0.8,1,,,,,,,,,,,,,,z,1,0.8,,,,,,,,0.415,0.09875,0,0,0,,0,25,25,123,1,SEDGE,C,old,z,./images/SEDGE.png,,,,,,,,,,,,,,,,,,,,,
,,,,,,,,,,,,,,,,,198946,18,2022-02-01_16h56.35.921,lexical_decision_task_DD_L2,2021.2.3,MacIntel,62.5,,,,,,,,,,,,3.145,1,,,,,,,,,,,,,,z,1,3.145,,,,,,,,0.415,0.09875,0,0,0,,0,26,26,142,1,PLASK,HB,old,z,./images/PLASKHB.png,,,,,,,,,,,,,,,,,,,,,
,,,,,,,,,,,,,,,,,198946,18,2022-02-01_16h56.35.921,lexical_decision_task_DD_L2,2021.2.3,MacIntel,62.5,,,,,,,,,,,,0.533,1,,,,,,,,,,,,,,m,1,0.533,,,,,,,,0.415,0.09875,0,0,0,,0,27,27,83,1,JUNGLE,C,old,m,./images/JUNGLE.png,,,,,,,,,,,,,,,,,,,,,
,,,,,,,,,,,,,,,,,198946,18,2022-02-01_16h56.35.921,lexical_decision_task_DD_L2,2021.2.3,MacIntel,62.5,,,,,,,,,,,,0.859,1,,,,,,,,,,,,,,z,1,0.859,,,,,,,,0.415,0.09875,0,0,0,,0,28,28,88,1,GLUSH,HB,old,z,./images/GLUSHHB.png,,,,,,,,,,,,,,,,,,,,,
,,,,,,,,,,,,,,,,,198946,18,2022-02-01_16h56.35.921,lexical_decision_task_DD_L2,2021.2.3,MacIntel,62.5,,,,,,,,,,,,1.022,1,,,,,,,,,,,,,,z,1,1.022,,,,,,,,0.415,0.09875,0,0,0,,0,29,29,139,1,BLEAR,HB,old,z,./images/BLEARHB.png,,,,,,,,,,,,,,,,,,,,,
,,,,,,,,,,,,,,,,,198946,18,2022-02-01_16h56.35.921,lexical_decision_task_DD_L2,2021.2.3,MacIntel,62.5,,,,,,,,,,,,0.651,1,,,,,,,,,,,,,,z,1,0.651,,,,,,,,0.415,0.09875,0,0,0,,0,30,30,152,1,FRAIN,LB,old,z,./images/FRAINLB.png,,,,,,,,,,,,,,,,,,,,,
,,,,,,,,,,,,,,,,,198946,18,2022-02-01_16h56.35.921,lexical_decision_task_DD_L2,2021.2.3,MacIntel,62.5,,,,,,,,,,,,0.624,1,,,,,,,,,,,,,,m,1,0.624,,,,,,,,0.415,0.09875,0,0,0,,0,31,31,19,1,DOUGH,LB,old,m,./images/DOUGHLB.png,,,,,,,,,,,,,,,,,,,,,
,,,,,,,,,,,,,,,,,198946,18,2022-02-01_16h56.35.921,lexical_decision_task_DD_L2,2021.2.3,MacIntel,62.5,,,,,,,,,,,,0.836,1,,,,,,,,,,,,,,z,1,0.836,,,,,,,,0.415,0.09875,0,0,0,,0,32,32,149,1,VEASE,LB,old,z,./images/VEASELB.png,,,,,,,,,,,,,,,,,,,,,
,,,,,,,,,,,,,,,,,198946,18,2022-02-01_16h56.35.921,lexical_decision_task_DD_L2,2021.2.3,MacIntel,62.5,,,,,,,,,,,,0.61,1,,,,,,,,,,,,,,m,1,0.61,,,,,,,,0.415,0.09875,0,0,0,,0,33,33,40,1,SWING,LB,old,m,./images/SWINGLB.png,,,,,,,,,,,,,,,,,,,,,
,,,,,,,,,,,,,,,,,198946,18,2022-02-01_16h56.35.921,lexical_decision_task_DD_L2,2021.2.3,MacIntel,62.5,,,,,,,,,,,,0.546,1,,,,,,,,,,,,,,z,1,0.546,,,,,,,,0.415,0.09875,0,0,0,,0,34,34,132,1,SCIFF,C,old,z,./images/SCIFF.png,,,,,,,,,,,,,,,,,,,,,
,,,,,,,,,,,,,,,,,198946,18,2022-02-01_16h56.35.921,lexical_decision_task_DD_L2,2021.2.3,MacIntel,62.5,,,,,,,,,,,,0.585,1,,,,,,,,,,,,,,z,1,0.585,,,,,,,,0.415,0.09875,0,0,0,,0,35,35,131,1,NACES,LB,old,z,./images/NACESLB.png,,,,,,,,,,,,,,,,,,,,,
,,,,,,,,,,,,,,,,,198946,18,2022-02-01_16h56.35.921,lexical_decision_task_DD_L2,2021.2.3,MacIntel,62.5,,,,,,,,,,,,1.168,1,,,,,,,,,,,,,,m,1,1.168,,,,,,,,0.415,0.09875,0,0,0,,0,36,36,22,1,MELON,LB,old,m,./images/MELONLB.png,,,,,,,,,,,,,,,,,,,,,
,,,,,,,,,,,,,,,,,198946,18,2022-02-01_16h56.35.921,lexical_decision_task_DD_L2,2021.2.3,MacIntel,62.5,,,,,,,,,,,,1.152,1,,,,,,,,,,,,,,z,1,1.152,,,,,,,,0.415,0.09875,0,0,0,,0,37,37,97,1,CHIDS,HB,old,z,./images/CHIDSHB.png,,,,,,,,,,,,,,,,,,,,,
,,,,,,,,,,,,,,,,,198946,18,2022-02-01_16h56.35.921,lexical_decision_task_DD_L2,2021.2.3,MacIntel,62.5,,,,,,,,,,,,0.714,1,,,,,,,,,,,,,,z,1,0.714,,,,,,,,0.415,0.09875,0,0,0,,0,38,38,104,1,GITTY,LB,old,z,./images/GITTYLB.png,,,,,,,,,,,,,,,,,,,,,
,,,,,,,,,,,,,,,,,198946,18,2022-02-01_16h56.35.921,lexical_decision_task_DD_L2,2021.2.3,MacIntel,62.5,,,,,,,,,,,,0.66,1,,,,,,,,,,,,,,z,1,0.66,,,,,,,,0.415,0.09875,0,0,0,,0,39,39,153,1,CLUPS,C,old,z,./images/CLUPS.png,,,,,,,,,,,,,,,,,,,,,
,,,,,,,,,,,,,,,,,198946,18,2022-02-01_16h56.35.921,lexical_decision_task_DD_L2,2021.2.3,MacIntel,62.5,,,,,,,,,,,,0.76,1,,,,,,,,,,,,,,z,1,0.76,,,,,,,,0.415,0.09875,0,0,0,,0,40,40,125,1,MOOKY,LB,old,z,./images/MOOKYLB.png,,,,,,,,,,,,,,,,,,,,,
,,,,,,,,,,,,,,,,,198946,18,2022-02-01_16h56.35.921,lexical_decision_task_DD_L2,2021.2.3,MacIntel,62.5,,,,,,,,,,,,0.8,1,,,,,,,,,,,,,,m,1,0.8,,,,,,,,0.415,0.09875,0,0,0,space,0,41,41,9,1,RHINO,HB,old,m,./images/RHINOHB.png,3.144,,,,,,,,,,,,,,,,,,,,
,,,,,,,,,,,,,,,,,198946,18,2022-02-01_16h56.35.921,lexical_decision_task_DD_L2,2021.2.3,MacIntel,62.5,,,,,,,,,,,,0.61,1,,,,,,,,,,,,,,m,1,0.61,,,,,,,,0.415,0.09875,0,0,0,,0,42,42,0,1,TOMATO,HB,old,m,./images/TOMATOHB.png,,,,,,,,,,,,,,,,,,,,,
,,,,,,,,,,,,,,,,,198946,18,2022-02-01_16h56.35.921,lexical_decision_task_DD_L2,2021.2.3,MacIntel,62.5,,,,,,,,,,,,0.626,1,,,,,,,,,,,,,,m,1,0.626,,,,,,,,0.415,0.09875,0,0,0,,0,43,43,62,1,PURSE,C,old,m,./images/PURSE.png,,,,,,,,,,,,,,,,,,,,,
,,,,,,,,,,,,,,,,,198946,18,2022-02-01_16h56.35.921,lexical_decision_task_DD_L2,2021.2.3,MacIntel,62.5,,,,,,,,,,,,2.1,1,,,,,,,,,,,,,,z,1,2.1,,,,,,,,0.415,0.09875,0,0,0,,0,44,44,166,1,SHORY,HB,old,z,./images/SHORYHB.png,,,,,,,,,,,,,,,,,,,,,
,,,,,,,,,,,,,,,,,198946,18,2022-02-01_16h56.35.921,lexical_decision_task_DD_L2,2021.2.3,MacIntel,62.5,,,,,,,,,,,,0.636,1,,,,,,,,,,,,,,z,1,0.636,,,,,,,,0.415,0.09875,0,0,0,,0,45,45,141,1,PLEET,C,old,z,./images/PLEET.png,,,,,,,,,,,,,,,,,,,,,
,,,,,,,,,,,,,,,,,198946,18,2022-02-01_16h56.35.921,lexical_decision_task_DD_L2,2021.2.3,MacIntel,62.5,,,,,,,,,,,,0.603,1,,,,,,,,,,,,,,m,1,0.603,,,,,,,,0.415,0.09875,0,0,0,,0,46,46,63,1,MIRROR,HB,old,m,./images/MIRRORHB.png,,,,,,,,,,,,,,,,,,,,,
,,,,,,,,,,,,,,,,,198946,18,2022-02-01_16h56.35.921,lexical_decision_task_DD_L2,2021.2.3,MacIntel,62.5,,,,,,,,,,,,0.6,1,,,,,,,,,,,,,,z,1,0.6,,,,,,,,0.415,0.09875,0,0,0,,0,47,47,128,1,GRIFT,LB,old,z,./images/GRIFTLB.png,,,,,,,,,,,,,,,,,,,,,
,,,,,,,,,,,,,,,,,198946,18,2022-02-01_16h56.35.921,lexical_decision_task_DD_L2,2021.2.3,MacIntel,62.5,,,,,,,,,,,,0.534,1,,,,,,,,,,,,,,z,1,0.534,,,,,,,,0.415,0.09875,0,0,0,,0,48,48,113,1,LINEW,LB,old,z,./images/LINEWLB.png,,,,,,,,,,,,,,,,,,,,,
,,,,,,,,,,,,,,,,,198946,18,2022-02-01_16h56.35.921,lexical_decision_task_DD_L2,2021.2.3,MacIntel,62.5,,,,,,,,,,,,0.529,1,,,,,,,,,,,,,,z,1,0.529,,,,,,,,0.415,0.09875,0,0,0,,0,49,49,138,1,PLICE,C,old,z,./images/PLICE.png,,,,,,,,,,,,,,,,,,,,,
,,,,,,,,,,,,,,,,,198946,18,2022-02-01_16h56.35.921,lexical_decision_task_DD_L2,2021.2.3,MacIntel,62.5,,,,,,,,,,,,0.483,1,,,,,,,,,,,,,,z,1,0.483,,,,,,,,0.415,0.09875,0,0,0,,0,50,50,129,1,PRANS,C,old,z,./images/PRANS.png,,,,,,,,,,,,,,,,,,,,,
,,,,,,,,,,,,,,,,,198946,18,2022-02-01_16h56.35.921,lexical_decision_task_DD_L2,2021.2.3,MacIntel,62.5,,,,,,,,,,,,0.614,1,,,,,,,,,,,,,,z,1,0.614,,,,,,,,0.415,0.09875,0,0,0,,0,51,51,143,1,MONGS,LB,old,z,./images/MONGSLB.png,,,,,,,,,,,,,,,,,,,,,
,,,,,,,,,,,,,,,,,198946,18,2022-02-01_16h56.35.921,lexical_decision_task_DD_L2,2021.2.3,MacIntel,62.5,,,,,,,,,,,,0.581,1,,,,,,,,,,,,,,m,1,0.581,,,,,,,,0.415,0.09875,0,0,0,,0,52,52,75,1,GRAIN,HB,old,m,./images/GRAINHB.png,,,,,,,,,,,,,,,,,,,,,
,,,,,,,,,,,,,,,,,198946,18,2022-02-01_16h56.35.921,lexical_decision_task_DD_L2,2021.2.3,MacIntel,62.5,,,,,,,,,,,,0.533,1,,,,,,,,,,,,,,m,1,0.533,,,,,,,,0.415,0.09875,0,0,0,,0,53,53,3,1,FINGER,HB,old,m,./images/FINGERHB.png,,,,,,,,,,,,,,,,,,,,,
,,,,,,,,,,,,,,,,,198946,18,2022-02-01_16h56.35.921,lexical_decision_task_DD_L2,2021.2.3,MacIntel,62.5,,,,,,,,,,,,0.5,1,,,,,,,,,,,,,,m,1,0.5,,,,,,,,0.415,0.09875,0,0,0,,0,54,54,61,1,CANDLE,LB,old,m,./images/CANDLELB.png,,,,,,,,,,,,,,,,,,,,,
,,,,,,,,,,,,,,,,,198946,18,2022-02-01_16h56.35.921,lexical_decision_task_DD_L2,2021.2.3,MacIntel,62.5,,,,,,,,,,,,0.566,1,,,,,,,,,,,,,,m,1,0.566,,,,,,,,0.415,0.09875,0,0,0,,0,55,55,24,1,SCREW,HB,old,m,./images/SCREWHB.png,,,,,,,,,,,,,,,,,,,,,
,,,,,,,,,,,,,,,,,198946,18,2022-02-01_16h56.35.921,lexical_decision_task_DD_L2,2021.2.3,MacIntel,62.5,,,,,,,,,,,,0.48,1,,,,,,,,,,,,,,m,1,0.48,,,,,,,,0.415,0.09875,0,0,0,,0,56,56,5,1,PASTA,C,old,m,./images/PASTA.png,,,,,,,,,,,,,,,,,,,,,
,,,,,,,,,,,,,,,,,198946,18,2022-02-01_16h56.35.921,lexical_decision_task_DD_L2,2021.2.3,MacIntel,62.5,,,,,,,,,,,,0.563,1,,,,,,,,,,,,,,z,1,0.563,,,,,,,,0.415,0.09875,0,0,0,,0,57,57,84,1,HAXES,C,old,z,./images/HAXES.png,,,,,,,,,,,,,,,,,,,,,
,,,,,,,,,,,,,,,,,198946,18,2022-02-01_16h56.35.921,lexical_decision_task_DD_L2,2021.2.3,MacIntel,62.5,,,,,,,,,,,,0.572,1,,,,,,,,,,,,,,z,1,0.572,,,,,,,,0.415,0.09875,0,0,0,,0,58,58,147,1,ZOLES,C,old,z,./images/ZOLES.png,,,,,,,,,,,,,,,,,,,,,
,,,,,,,,,,,,,,,,,198946,18,2022-02-01_16h56.35.921,lexical_decision_task_DD_L2,2021.2.3,MacIntel,62.5,,,,,,,,,,,,0.588,1,,,,,,,,,,,,,,m,1,0.588,,,,,,,,0.415,0.09875,0,0,0,,0,59,59,67,1,SAILOR,LB,old,m,./images/SAILORLB.png,,,,,,,,,,,,,,,,,,,,,
,,,,,,,,,,,,,,,,,198946,18,2022-02-01_16h56.35.921,lexical_decision_task_DD_L2,2021.2.3,MacIntel,62.5,,,,,,,,,,,,0.514,1,,,,,,,,,,,,,,m,1,0.514,,,,,,,,0.415,0.09875,0,0,0,,0,60,60,68,1,TORCH,C,old,m,./images/TORCH.png,,,,,,,,,,,,,,,,,,,,,
,,,,,,,,,,,,,,,,,198946,18,2022-02-01_16h56.35.921,lexical_decision_task_DD_L2,2021.2.3,MacIntel,62.5,,,,,,,,,,,,1.22,1,,,,,,,,,,,,,,z,1,1.22,,,,,,,,0.415,0.09875,0,0,0,,0,61,61,159,1,CUDDY,C,old,z,./images/CUDDY.png,,,,,,,,,,,,,,,,,,,,,
,,,,,,,,,,,,,,,,,198946,18,2022-02-01_16h56.35.921,lexical_decision_task_DD_L2,2021.2.3,MacIntel,62.5,,,,,,,,,,,,1.525,1,,,,,,,,,,,,,,z,1,1.525,,,,,,,,0.415,0.09875,0,0,0,,0,62,62,157,1,INLER,HB,old,z,./images/INLERHB.png,,,,,,,,,,,,,,,,,,,,,
,,,,,,,,,,,,,,,,,198946,18,2022-02-01_16h56.35.921,lexical_decision_task_DD_L2,2021.2.3,MacIntel,62.5,,,,,,,,,,,,0.532,1,,,,,,,,,,,,,,m,1,0.532,,,,,,,,0.415,0.09875,0,0,0,,0,63,63,59,1,BURIAL,C,old,m,./images/BURIAL.png,,,,,,,,,,,,,,,,,,,,,
,,,,,,,,,,,,,,,,,198946,18,2022-02-01_16h56.35.921,lexical_decision_task_DD_L2,2021.2.3,MacIntel,62.5,,,,,,,,,,,,0.492,1,,,,,,,,,,,,,,m,1,0.492,,,,,,,,0.415,0.09875,0,0,0,,0,64,64,56,1,PACKET,C,old,m,./images/PACKET.png,,,,,,,,,,,,,,,,,,,,,
,,,,,,,,,,,,,,,,,198946,18,2022-02-01_16h56.35.921,lexical_decision_task_DD_L2,2021.2.3,MacIntel,62.5,,,,,,,,,,,,0.593,1,,,,,,,,,,,,,,m,1,0.593,,,,,,,,0.415,0.09875,0,0,0,,0,65,65,32,1,BARREL,C,old,m,./images/BARREL.png,,,,,,,,,,,,,,,,,,,,,
,,,,,,,,,,,,,,,,,198946,18,2022-02-01_16h56.35.921,lexical_decision_task_DD_L2,2021.2.3,MacIntel,62.5,,,,,,,,,,,,0.593,1,,,,,,,,,,,,,,z,1,0.593,,,,,,,,0.415,0.09875,0,0,0,,0,66,66,86,1,AIFED,LB,old,z,./images/AIFEDLB.png,,,,,,,,,,,,,,,,,,,,,
,,,,,,,,,,,,,,,,,198946,18,2022-02-01_16h56.35.921,lexical_decision_task_DD_L2,2021.2.3,MacIntel,62.5,,,,,,,,,,,,0.977,1,,,,,,,,,,,,,,z,1,0.977,,,,,,,,0.415,0.09875,0,0,0,,0,67,67,90,1,NEAST,C,old,z,./images/NEAST.png,,,,,,,,,,,,,,,,,,,,,
,,,,,,,,,,,,,,,,,198946,18,2022-02-01_16h56.35.921,lexical_decision_task_DD_L2,2021.2.3,MacIntel,62.5,,,,,,,,,,,,0.584,1,,,,,,,,,,,,,,m,1,0.584,,,,,,,,0.415,0.09875,0,0,0,,0,68,68,39,1,SHELF,HB,old,m,./images/SHELFHB.png,,,,,,,,,,,,,,,,,,,,,
,,,,,,,,,,,,,,,,,198946,18,2022-02-01_16h56.35.921,lexical_decision_task_DD_L2,2021.2.3,MacIntel,62.5,,,,,,,,,,,,0.582,1,,,,,,,,,,,,,,m,1,0.582,,,,,,,,0.415,0.09875,0,0,0,,0,69,69,23,1,WALRUS,C,old,m,./images/WALRUS.png,,,,,,,,,,,,,,,,,,,,,
,,,,,,,,,,,,,,,,,198946,18,2022-02-01_16h56.35.921,lexical_decision_task_DD_L2,2021.2.3,MacIntel,62.5,,,,,,,,,,,,0.638,1,,,,,,,,,,,,,,m,1,0.638,,,,,,,,0.415,0.09875,0,0,0,,0,70,70,14,1,PICKLE,C,old,m,./images/PICKLE.png,,,,,,,,,,,,,,,,,,,,,
,,,,,,,,,,,,,,,,,198946,18,2022-02-01_16h56.35.921,lexical_decision_task_DD_L2,2021.2.3,MacIntel,62.5,,,,,,,,,,,,0.515,1,,,,,,,,,,,,,,m,1,0.515,,,,,,,,0.415,0.09875,0,0,0,,0,71,71,71,1,PIMPLE,C,old,m,./images/PIMPLE.png,,,,,,,,,,,,,,,,,,,,,
,,,,,,,,,,,,,,,,,198946,18,2022-02-01_16h56.35.921,lexical_decision_task_DD_L2,2021.2.3,MacIntel,62.5,,,,,,,,,,,,0.545,1,,,,,,,,,,,,,,m,1,0.545,,,,,,,,0.415,0.09875,0,0,0,,0,72,72,45,1,KITTEN,HB,old,m,./images/KITTENHB.png,,,,,,,,,,,,,,,,,,,,,
,,,,,,,,,,,,,,,,,198946,18,2022-02-01_16h56.35.921,lexical_decision_task_DD_L2,2021.2.3,MacIntel,62.5,,,,,,,,,,,,1.033,1,,,,,,,,,,,,,,z,1,1.033,,,,,,,,0.415,0.09875,0,0,0,,0,73,73,106,1,CLUMS,HB,old,z,./images/CLUMSHB.png,,,,,,,,,,,,,,,,,,,,,
,,,,,,,,,,,,,,,,,198946,18,2022-02-01_16h56.35.921,lexical_decision_task_DD_L2,2021.2.3,MacIntel,62.5,,,,,,,,,,,,0.932,1,,,,,,,,,,,,,,z,1,0.932,,,,,,,,0.415,0.09875,0,0,0,,0,74,74,122,1,BLOOT,LB,old,z,./images/BLOOTLB.png,,,,,,,,,,,,,,,,,,,,,
,,,,,,,,,,,,,,,,,198946,18,2022-02-01_16h56.35.921,lexical_decision_task_DD_L2,2021.2.3,MacIntel,62.5,,,,,,,,,,,,2.685,1,,,,,,,,,,,,,,z,1,2.685,,,,,,,,0.415,0.09875,0,0,0,,0,75,75,110,1,CRUNK,LB,old,z,./images/CRUNKLB.png,,,,,,,,,,,,,,,,,,,,,
,,,,,,,,,,,,,,,,,198946,18,2022-02-01_16h56.35.921,lexical_decision_task_DD_L2,2021.2.3,MacIntel,62.5,,,,,,,,,,,,1.034,1,,,,,,,,,,,,,,z,1,1.034,,,,,,,,0.415,0.09875,0,0,0,,0,76,76,160,1,VEETS,HB,old,z,./images/VEETSHB.png,,,,,,,,,,,,,,,,,,,,,
,,,,,,,,,,,,,,,,,198946,18,2022-02-01_16h56.35.921,lexical_decision_task_DD_L2,2021.2.3,MacIntel,62.5,,,,,,,,,,,,0.595,1,,,,,,,,,,,,,,m,1,0.595,,,,,,,,0.415,0.09875,0,0,0,,0,77,77,42,1,FOLDER,HB,old,m,./images/FOLDERHB.png,,,,,,,,,,,,,,,,,,,,,
,,,,,,,,,,,,,,,,,198946,18,2022-02-01_16h56.35.921,lexical_decision_task_DD_L2,2021.2.3,MacIntel,62.5,,,,,,,,,,,,0.522,1,,,,,,,,,,,,,,m,1,0.522,,,,,,,,0.415,0.09875,0,0,0,,0,78,78,53,1,CARPET,C,old,m,./images/CARPET.png,,,,,,,,,,,,,,,,,,,,,
,,,,,,,,,,,,,,,,,198946,18,2022-02-01_16h56.35.921,lexical_decision_task_DD_L2,2021.2.3,MacIntel,62.5,,,,,,,,,,,,0.514,1,,,,,,,,,,,,,,m,1,0.514,,,,,,,,0.415,0.09875,0,0,0,,0,79,79,38,1,LADDER,C,old,m,./images/LADDER.png,,,,,,,,,,,,,,,,,,,,,
,,,,,,,,,,,,,,,,,198946,18,2022-02-01_16h56.35.921,lexical_decision_task_DD_L2,2021.2.3,MacIntel,62.5,,,,,,,,,,,,0.631,1,,,,,,,,,,,,,,z,1,0.631,,,,,,,,0.415,0.09875,0,0,0,,0,80,80,92,1,PAIMS,LB,old,z,./images/PAIMSLB.png,,,,,,,,,,,,,,,,,,,,,
,,,,,,,,,,,,,,,,,198946,18,2022-02-01_16h56.35.921,lexical_decision_task_DD_L2,2021.2.3,MacIntel,62.5,,,,,,,,,,,,0.678,1,,,,,,,,,,,,,,m,1,0.678,,,,,,,,0.415,0.09875,0,0,0,,0,81,81,27,1,ATTIC,HB,old,m,./images/ATTICHB.png,,,,,,,,,,,,,,,,,,,,,
,,,,,,,,,,,,,,,,,198946,18,2022-02-01_16h56.35.921,lexical_decision_task_DD_L2,2021.2.3,MacIntel,62.5,,,,,,,,,,,,2.641,1,,,,,,,,,,,,,,z,1,2.641,,,,,,,,0.415,0.09875,0,0,0,,0,82,82,151,1,TINKY,HB,old,z,./images/TINKYHB.png,,,,,,,,,,,,,,,,,,,,,
,,,,,,,,,,,,,,,,,198946,18,2022-02-01_16h56.35.921,lexical_decision_task_DD_L2,2021.2.3,MacIntel,62.5,,,,,,,,,,,,0.65,1,,,,,,,,,,,,,,m,1,0.65,,,,,,,,0.415,0.09875,0,0,0,space,0,83,83,1,1,PLANK,LB,old,m,./images/PLANKLB.png,114.453,,,,,,,,,,,,,,,,,,,,
,,,,,,,,,,,,,,,,,198946,18,2022-02-01_16h56.35.921,lexical_decision_task_DD_L2,2021.2.3,MacIntel,62.5,,,,,,,,,,,,1.317,1,,,,,,,,,,,,,,z,1,1.317,,,,,,,,0.415,0.09875,0,0,0,,0,84,84,127,1,NINDY,HB,old,z,./images/NINDYHB.png,,,,,,,,,,,,,,,,,,,,,
,,,,,,,,,,,,,,,,,198946,18,2022-02-01_16h56.35.921,lexical_decision_task_DD_L2,2021.2.3,MacIntel,62.5,,,,,,,,,,,,6.217,0,,,,,,,,,,,,,,m,0,6.217,,,,,,,,0.415,0.09875,0,0,0,,0,85,85,109,1,BURGE,HB,old,z,./images/BURGEHB.png,,,,,,,,,,,,,,,,,,,,,
,,,,,,,,,,,,,,,,,198946,18,2022-02-01_16h56.35.921,lexical_decision_task_DD_L2,2021.2.3,MacIntel,62.5,,,,,,,,,,,,0.972,1,,,,,,,,,,,,,,m,1,0.972,,,,,,,,0.415,0.09875,0,0,0,,0,86,86,69,1,COOKER,HB,old,m,./images/COOKERHB.png,,,,,,,,,,,,,,,,,,,,,
,,,,,,,,,,,,,,,,,198946,18,2022-02-01_16h56.35.921,lexical_decision_task_DD_L2,2021.2.3,MacIntel,62.5,,,,,,,,,,,,0.526,1,,,,,,,,,,,,,,m,1,0.526,,,,,,,,0.415,0.09875,0,0,0,,0,87,87,29,1,CRUMB,C,old,m,./images/CRUMB.png,,,,,,,,,,,,,,,,,,,,,
,,,,,,,,,,,,,,,,,198946,18,2022-02-01_16h56.35.921,lexical_decision_task_DD_L2,2021.2.3,MacIntel,62.5,,,,,,,,,,,,0.575,1,,,,,,,,,,,,,,z,1,0.575,,,,,,,,0.415,0.09875,0,0,0,,0,88,88,135,1,JOODY,C,old,z,./images/JOODY.png,,,,,,,,,,,,,,,,,,,,,
,,,,,,,,,,,,,,,,,198946,18,2022-02-01_16h56.35.921,lexical_decision_task_DD_L2,2021.2.3,MacIntel,62.5,,,,,,,,,,,,0.599,1,,,,,,,,,,,,,,z,1,0.599,,,,,,,,0.415,0.09875,0,0,0,,0,89,89,161,1,BLAPS,LB,old,z,./images/BLAPSLB.png,,,,,,,,,,,,,,,,,,,,,
,,,,,,,,,,,,,,,,,198946,18,2022-02-01_16h56.35.921,lexical_decision_task_DD_L2,2021.2.3,MacIntel,62.5,,,,,,,,,,,,0.511,1,,,,,,,,,,,,,,m,1,0.511,,,,,,,,0.415,0.09875,0,0,0,,0,90,90,79,1,CRUST,LB,old,m,./images/CRUSTLB.png,,,,,,,,,,,,,,,,,,,,,
,,,,,,,,,,,,,,,,,198946,18,2022-02-01_16h56.35.921,lexical_decision_task_DD_L2,2021.2.3,MacIntel,62.5,,,,,,,,,,,,0.517,1,,,,,,,,,,,,,,z,1,0.517,,,,,,,,0.415,0.09875,0,0,0,,0,91,91,164,1,SGREW,LB,old,z,./images/SGREWLB.png,,,,,,,,,,,,,,,,,,,,,
,,,,,,,,,,,,,,,,,198946,18,2022-02-01_16h56.35.921,lexical_decision_task_DD_L2,2021.2.3,MacIntel,62.5,,,,,,,,,,,,0.498,1,,,,,,,,,,,,,,m,1,0.498,,,,,,,,0.415,0.09875,0,0,0,,0,92,92,81,1,POODLE,HB,old,m,./images/POODLEHB.png,,,,,,,,,,,,,,,,,,,,,
,,,,,,,,,,,,,,,,,198946,18,2022-02-01_16h56.35.921,lexical_decision_task_DD_L2,2021.2.3,MacIntel,62.5,,,,,,,,,,,,0.598,1,,,,,,,,,,,,,,m,1,0.598,,,,,,,,0.415,0.09875,0,0,0,,0,93,93,37,1,BIRTH,LB,old,m,./images/BIRTHLB.png,,,,,,,,,,,,,,,,,,,,,
,,,,,,,,,,,,,,,,,198946,18,2022-02-01_16h56.35.921,lexical_decision_task_DD_L2,2021.2.3,MacIntel,62.5,,,,,,,,,,,,0.66,1,,,,,,,,,,,,,,z,1,0.66,,,,,,,,0.415,0.09875,0,0,0,,0,94,94,93,1,SMONE,C,old,z,./images/SMONE.png,,,,,,,,,,,,,,,,,,,,,
,,,,,,,,,,,,,,,,,198946,18,2022-02-01_16h56.35.921,lexical_decision_task_DD_L2,2021.2.3,MacIntel,62.5,,,,,,,,,,,,0.473,1,,,,,,,,,,,,,,m,1,0.473,,,,,,,,0.415,0.09875,0,0,0,,0,95,95,47,1,BERRY,C,old,m,./images/BERRY.png,,,,,,,,,,,,,,,,,,,,,
,,,,,,,,,,,,,,,,,198946,18,2022-02-01_16h56.35.921,lexical_decision_task_DD_L2,2021.2.3,MacIntel,62.5,,,,,,,,,,,,1.483,1,,,,,,,,,,,,,,z,1,1.483,,,,,,,,0.415,0.09875,0,0,0,,0,96,96,115,1,MAWNS,HB,old,z,./images/MAWNSHB.png,,,,,,,,,,,,,,,,,,,,,
,,,,,,,,,,,,,,,,,198946,18,2022-02-01_16h56.35.921,lexical_decision_task_DD_L2,2021.2.3,MacIntel,62.5,,,,,,,,,,,,0.592,1,,,,,,,,,,,,,,m,1,0.592,,,,,,,,0.415,0.09875,0,0,0,,0,97,97,25,1,WRIST,LB,old,m,./images/WRISTLB.png,,,,,,,,,,,,,,,,,,,,,
,,,,,,,,,,,,,,,,,198946,18,2022-02-01_16h56.35.921,lexical_decision_task_DD_L2,2021.2.3,MacIntel,62.5,,,,,,,,,,,,0.667,1,,,,,,,,,,,,,,z,1,0.667,,,,,,,,0.415,0.09875,0,0,0,,0,98,98,133,1,POWDY,HB,old,z,./images/POWDYHB.png,,,,,,,,,,,,,,,,,,,,,
,,,,,,,,,,,,,,,,,198946,18,2022-02-01_16h56.35.921,lexical_decision_task_DD_L2,2021.2.3,MacIntel,62.5,,,,,,,,,,,,0.545,1,,,,,,,,,,,,,,m,1,0.545,,,,,,,,0.415,0.09875,0,0,0,,0,99,99,46,1,PEARL,LB,old,m,./images/PEARLLB.png,,,,,,,,,,,,,,,,,,,,,
,,,,,,,,,,,,,,,,,198946,18,2022-02-01_16h56.35.921,lexical_decision_task_DD_L2,2021.2.3,MacIntel,62.5,,,,,,,,,,,,0.547,1,,,,,,,,,,,,,,m,1,0.547,,,,,,,,0.415,0.09875,0,0,0,,0,100,100,26,1,SMOKER,C,old,m,./images/SMOKER.png,,,,,,,,,,,,,,,,,,,,,
,,,,,,,,,,,,,,,,,198946,18,2022-02-01_16h56.35.921,lexical_decision_task_DD_L2,2021.2.3,MacIntel,62.5,,,,,,,,,,,,0.861,1,,,,,,,,,,,,,,m,1,0.861,,,,,,,,0.415,0.09875,0,0,0,,0,101,101,30,1,STORM,HB,old,m,./images/STORMHB.png,,,,,,,,,,,,,,,,,,,,,
,,,,,,,,,,,,,,,,,198946,18,2022-02-01_16h56.35.921,lexical_decision_task_DD_L2,2021.2.3,MacIntel,62.5,,,,,,,,,,,,0.549,1,,,,,,,,,,,,,,m,1,0.549,,,,,,,,0.415,0.09875,0,0,0,,0,102,102,20,1,CRADLE,C,old,m,./images/CRADLE.png,,,,,,,,,,,,,,,,,,,,,
,,,,,,,,,,,,,,,,,198946,18,2022-02-01_16h56.35.921,lexical_decision_task_DD_L2,2021.2.3,MacIntel,62.5,,,,,,,,,,,,0.921,1,,,,,,,,,,,,,,z,1,0.921,,,,,,,,0.415,0.09875,0,0,0,,0,103,103,136,1,WERVE,HB,old,z,./images/WERVEHB.png,,,,,,,,,,,,,,,,,,,,,
,,,,,,,,,,,,,,,,,198946,18,2022-02-01_16h56.35.921,lexical_decision_task_DD_L2,2021.2.3,MacIntel,62.5,,,,,,,,,,,,0.665,1,,,,,,,,,,,,,,m,1,0.665,,,,,,,,0.415,0.09875,0,0,0,,0,104,104,60,1,TWINS,HB,old,m,./images/TWINSHB.png,,,,,,,,,,,,,,,,,,,,,
,,,,,,,,,,,,,,,,,198946,18,2022-02-01_16h56.35.921,lexical_decision_task_DD_L2,2021.2.3,MacIntel,62.5,,,,,,,,,,,,1.238,1,,,,,,,,,,,,,,m,1,1.238,,,,,,,,0.415,0.09875,0,0,0,,0,105,105,15,1,GREASE,HB,old,m,./images/GREASEHB.png,,,,,,,,,,,,,,,,,,,,,
,,,,,,,,,,,,,,,,,198946,18,2022-02-01_16h56.35.921,lexical_decision_task_DD_L2,2021.2.3,MacIntel,62.5,,,,,,,,,,,,0.627,1,,,,,,,,,,,,,,z,1,0.627,,,,,,,,0.415,0.09875,0,0,0,,0,106,106,150,1,NOOLS,C,old,z,./images/NOOLS.png,,,,,,,,,,,,,,,,,,,,,
,,,,,,,,,,,,,,,,,198946,18,2022-02-01_16h56.35.921,lexical_decision_task_DD_L2,2021.2.3,MacIntel,62.5,,,,,,,,,,,,0.577,1,,,,,,,,,,,,,,m,1,0.577,,,,,,,,0.415,0.09875,0,0,0,,0,107,107,2,1,BEARD,C,old,m,./images/BEARD.png,,,,,,,,,,,,,,,,,,,,,
,,,,,,,,,,,,,,,,,198946,18,2022-02-01_16h56.35.921,lexical_decision_task_DD_L2,2021.2.3,MacIntel,62.5,,,,,,,,,,,,0.848,1,,,,,,,,,,,,,,z,1,0.848,,,,,,,,0.415,0.09875,0,0,0,,0,108,108,145,1,LAMEL,HB,old,z,./images/LAMELHB.png,,,,,,,,,,,,,,,,,,,,,
,,,,,,,,,,,,,,,,,198946,18,2022-02-01_16h56.35.921,lexical_decision_task_DD_L2,2021.2.3,MacIntel,62.5,,,,,,,,,,,,1.166,1,,,,,,,,,,,,,,z,1,1.166,,,,,,,,0.415,0.09875,0,0,0,,0,109,109,148,1,JOMS,HB,old,z,./images/JOMSHB.png,,,,,,,,,,,,,,,,,,,,,
,,,,,,,,,,,,,,,,,198946,18,2022-02-01_16h56.35.921,lexical_decision_task_DD_L2,2021.2.3,MacIntel,62.5,,,,,,,,,,,,0.571,1,,,,,,,,,,,,,,z,1,0.571,,,,,,,,0.415,0.09875,0,0,0,,0,110,110,134,1,TROSS,LB,old,z,./images/TROSSLB.png,,,,,,,,,,,,,,,,,,,,,
,,,,,,,,,,,,,,,,,198946,18,2022-02-01_16h56.35.921,lexical_decision_task_DD_L2,2021.2.3,MacIntel,62.5,,,,,,,,,,,,0.56,1,,,,,,,,,,,,,,z,1,0.56,,,,,,,,0.415,0.09875,0,0,0,,0,111,111,87,1,TRING,C,old,z,./images/TRING.png,,,,,,,,,,,,,,,,,,,,,
,,,,,,,,,,,,,,,,,198946,18,2022-02-01_16h56.35.921,lexical_decision_task_DD_L2,2021.2.3,MacIntel,62.5,,,,,,,,,,,,0.662,1,,,,,,,,,,,,,,z,1,0.662,,,,,,,,0.415,0.09875,0,0,0,,0,112,112,103,1,FLORT,HB,old,z,./images/FLORTHB.png,,,,,,,,,,,,,,,,,,,,,
,,,,,,,,,,,,,,,,,198946,18,2022-02-01_16h56.35.921,lexical_decision_task_DD_L2,2021.2.3,MacIntel,62.5,,,,,,,,,,,,0.547,1,,,,,,,,,,,,,,z,1,0.547,,,,,,,,0.415,0.09875,0,0,0,,0,113,113,95,1,HANTY,LB,old,z,./images/HANTYLB.png,,,,,,,,,,,,,,,,,,,,,
,,,,,,,,,,,,,,,,,198946,18,2022-02-01_16h56.35.921,lexical_decision_task_DD_L2,2021.2.3,MacIntel,62.5,,,,,,,,,,,,0.65,1,,,,,,,,,,,,,,z,1,0.65,,,,,,,,0.415,0.09875,0,0,0,,0,114,114,107,1,FASKS,LB,old,z,./images/FASKSLB.png,,,,,,,,,,,,,,,,,,,,,
,,,,,,,,,,,,,,,,,198946,18,2022-02-01_16h56.35.921,lexical_decision_task_DD_L2,2021.2.3,MacIntel,62.5,,,,,,,,,,,,0.566,1,,,,,,,,,,,,,,m,1,0.566,,,,,,,,0.415,0.09875,0,0,0,,0,115,115,76,1,INFANT,LB,old,m,./images/INFANTLB.png,,,,,,,,,,,,,,,,,,,,,
,,,,,,,,,,,,,,,,,198946,18,2022-02-01_16h56.35.921,lexical_decision_task_DD_L2,2021.2.3,MacIntel,62.5,,,,,,,,,,,,0.711,1,,,,,,,,,,,,,,z,1,0.711,,,,,,,,0.415,0.09875,0,0,0,,0,116,116,100,1,DRIBS,HB,old,z,./images/DRIBSHB.png,,,,,,,,,,,,,,,,,,,,,
,,,,,,,,,,,,,,,,,198946,18,2022-02-01_16h56.35.921,lexical_decision_task_DD_L2,2021.2.3,MacIntel,62.5,,,,,,,,,,,,0.793,1,,,,,,,,,,,,,,z,1,0.793,,,,,,,,0.415,0.09875,0,0,0,,0,117,117,94,1,BLANS,HB,old,z,./images/BLANSHB.png,,,,,,,,,,,,,,,,,,,,,
,,,,,,,,,,,,,,,,,198946,18,2022-02-01_16h56.35.921,lexical_decision_task_DD_L2,2021.2.3,MacIntel,62.5,,,,,,,,,,,,0.566,1,,,,,,,,,,,,,,z,1,0.566,,,,,,,,0.415,0.09875,0,0,0,,0,118,118,102,1,DULLE,C,old,z,./images/DULLE.png,,,,,,,,,,,,,,,,,,,,,
,,,,,,,,,,,,,,,,,198946,18,2022-02-01_16h56.35.921,lexical_decision_task_DD_L2,2021.2.3,MacIntel,62.5,,,,,,,,,,,,1.697,1,,,,,,,,,,,,,,z,1,1.697,,,,,,,,0.415,0.09875,0,0,0,,0,119,119,126,1,GUELS,C,old,z,./images/GUELS.png,,,,,,,,,,,,,,,,,,,,,
,,,,,,,,,,,,,,,,,198946,18,2022-02-01_16h56.35.921,lexical_decision_task_DD_L2,2021.2.3,MacIntel,62.5,,,,,,,,,,,,0.65,1,,,,,,,,,,,,,,m,1,0.65,,,,,,,,0.415,0.09875,0,0,0,,0,120,120,73,1,SNACK,LB,old,m,./images/SNACKLB.png,,,,,,,,,,,,,,,,,,,,,
,,,,,,,,,,,,,,,,,198946,18,2022-02-01_16h56.35.921,lexical_decision_task_DD_L2,2021.2.3,MacIntel,62.5,,,,,,,,,,,,0.704,0,,,,,,,,,,,,,,z,0,0.704,,,,,,,,0.415,0.09875,0,0,0,,0,121,121,72,1,NOOSE,HB,old,m,./images/NOOSEHB.png,,,,,,,,,,,,,,,,,,,,,
,,,,,,,,,,,,,,,,,198946,18,2022-02-01_16h56.35.921,lexical_decision_task_DD_L2,2021.2.3,MacIntel,62.5,,,,,,,,,,,,1.227,1,,,,,,,,,,,,,,m,1,1.227,,,,,,,,0.415,0.09875,0,0,0,,0,122,122,8,1,TULIP,C,old,m,./images/TULIP.png,,,,,,,,,,,,,,,,,,,,,
,,,,,,,,,,,,,,,,,198946,18,2022-02-01_16h56.35.921,lexical_decision_task_DD_L2,2021.2.3,MacIntel,62.5,,,,,,,,,,,,0.718,0,,,,,,,,,,,,,,m,0,0.718,,,,,,,,0.415,0.09875,0,0,0,,0,123,123,144,1,NAIRY,C,old,z,./images/NAIRY.png,,,,,,,,,,,,,,,,,,,,,
,,,,,,,,,,,,,,,,,198946,18,2022-02-01_16h56.35.921,lexical_decision_task_DD_L2,2021.2.3,MacIntel,62.5,,,,,,,,,,,,0.538,1,,,,,,,,,,,,,,m,1,0.538,,,,,,,,0.415,0.09875,0,0,0,,0,124,124,41,1,STRING,C,old,m,./images/STRING.png,,,,,,,,,,,,,,,,,,,,,
,,,,,,,,,,,,,,,,,198946,18,2022-02-01_16h56.35.921,lexical_decision_task_DD_L2,2021.2.3,MacIntel,62.5,,,,,,,,,,,,0.633,1,,,,,,,,,,,,,,z,1,0.633,,,,,,,,0.415,0.09875,0,0,0,space,0,125,125,165,1,TROWN,C,old,z,./images/TROWN.png,1.202,,,,,,,,,,,,,,,,,,,,
,,,,,,,,,,,,,,,,,198946,18,2022-02-01_16h56.35.921,lexical_decision_task_DD_L2,2021.2.3,MacIntel,62.5,,,,,,,,,,,,0.641,1,,,,,,,,,,,,,,z,1,0.641,,,,,,,,0.415,0.09875,0,0,0,,0,126,126,119,1,PAFER,LB,old,z,./images/PAFERLB.png,,,,,,,,,,,,,,,,,,,,,
,,,,,,,,,,,,,,,,,198946,18,2022-02-01_16h56.35.921,lexical_decision_task_DD_L2,2021.2.3,MacIntel,62.5,,,,,,,,,,,,0.604,1,,,,,,,,,,,,,,z,1,0.604,,,,,,,,0.415,0.09875,0,0,0,,0,127,127,101,1,GLEET,LB,old,z,./images/GLEETLB.png,,,,,,,,,,,,,,,,,,,,,
,,,,,,,,,,,,,,,,,198946,18,2022-02-01_16h56.35.921,lexical_decision_task_DD_L2,2021.2.3,MacIntel,62.5,,,,,,,,,,,,1.01,1,,,,,,,,,,,,,,z,1,1.01,,,,,,,,0.415,0.09875,0,0,0,,0,128,128,112,1,MYING,HB,old,z,./images/MYINGHB.png,,,,,,,,,,,,,,,,,,,,,
,,,,,,,,,,,,,,,,,198946,18,2022-02-01_16h56.35.921,lexical_decision_task_DD_L2,2021.2.3,MacIntel,62.5,,,,,,,,,,,,0.68,0,,,,,,,,,,,,,,z,0,0.68,,,,,,,,0.415,0.09875,0,0,0,,0,129,129,33,1,MAGGOT,HB,old,m,./images/MAGGOTHB.png,,,,,,,,,,,,,,,,,,,,,
,,,,,,,,,,,,,,,,,198946,18,2022-02-01_16h56.35.921,lexical_decision_task_DD_L2,2021.2.3,MacIntel,62.5,,,,,,,,,,,,0.612,1,,,,,,,,,,,,,,z,1,0.612,,,,,,,,0.415,0.09875,0,0,0,,0,130,130,118,1,BAVEL,HB,old,z,./images/BAVELHB.png,,,,,,,,,,,,,,,,,,,,,
,,,,,,,,,,,,,,,,,198946,18,2022-02-01_16h56.35.921,lexical_decision_task_DD_L2,2021.2.3,MacIntel,62.5,,,,,,,,,,,,0.572,1,,,,,,,,,,,,,,m,1,0.572,,,,,,,,0.415,0.09875,0,0,0,,0,131,131,13,1,MOTOR,LB,old,m,./images/MOTORLB.png,,,,,,,,,,,,,,,,,,,,,
,,,,,,,,,,,,,,,,,198946,18,2022-02-01_16h56.35.921,lexical_decision_task_DD_L2,2021.2.3,MacIntel,62.5,,,,,,,,,,,,0.683,1,,,,,,,,,,,,,,z,1,0.683,,,,,,,,0.415,0.09875,0,0,0,,0,132,132,137,1,JOOST,LB,old,z,./images/JOOSTLB.png,,,,,,,,,,,,,,,,,,,,,
,,,,,,,,,,,,,,,,,198946,18,2022-02-01_16h56.35.921,lexical_decision_task_DD_L2,2021.2.3,MacIntel,62.5,,,,,,,,,,,,2.228,1,,,,,,,,,,,,,,m,1,2.228,,,,,,,,0.415,0.09875,0,0,0,,0,133,133,52,1,BANNER,LB,old,m,./images/BANNERLB.png,,,,,,,,,,,,,,,,,,,,,
,,,,,,,,,,,,,,,,,198946,18,2022-02-01_16h56.35.921,lexical_decision_task_DD_L2,2021.2.3,MacIntel,62.5,,,,,,,,,,,,0.733,1,,,,,,,,,,,,,,m,1,0.733,,,,,,,,0.415,0.09875,0,0,0,,0,134,134,66,1,SWEAT,HB,old,m,./images/SWEATHB.png,,,,,,,,,,,,,,,,,,,,,
,,,,,,,,,,,,,,,,,198946,18,2022-02-01_16h56.35.921,lexical_decision_task_DD_L2,2021.2.3,MacIntel,62.5,,,,,,,,,,,,0.608,1,,,,,,,,,,,,,,z,1,0.608,,,,,,,,0.415,0.09875,0,0,0,,0,135,135,114,1,RIKES,C,old,z,./images/RIKES.png,,,,,,,,,,,,,,,,,,,,,
,,,,,,,,,,,,,,,,,198946,18,2022-02-01_16h56.35.921,lexical_decision_task_DD_L2,2021.2.3,MacIntel,62.5,,,,,,,,,,,,0.581,0,,,,,,,,,,,,,,z,0,0.581,,,,,,,,0.415,0.09875,0,0,0,,0,136,136,17,1,SKIING,C,old,m,./images/SKIING.png,,,,,,,,,,,,,,,,,,,,,
,,,,,,,,,,,,,,,,,198946,18,2022-02-01_16h56.35.921,lexical_decision_task_DD_L2,2021.2.3,MacIntel,62.5,,,,,,,,,,,,0.744,0,,,,,,,,,,,,,,z,0,0.744,,,,,,,,0.415,0.09875,0,0,0,,0,137,137,21,1,KIDNEY,HB,old,m,./images/KIDNEYHB.png,,,,,,,,,,,,,,,,,,,,,
,,,,,,,,,,,,,,,,,198946,18,2022-02-01_16h56.35.921,lexical_decision_task_DD_L2,2021.2.3,MacIntel,62.5,,,,,,,,,,,,0.532,1,,,,,,,,,,,,,,m,1,0.532,,,,,,,,0.415,0.09875,0,0,0,,0,138,138,4,1,MUSCLE,LB,old,m,./images/MUSCLELB.png,,,,,,,,,,,,,,,,,,,,,
,,,,,,,,,,,,,,,,,198946,18,2022-02-01_16h56.35.921,lexical_decision_task_DD_L2,2021.2.3,MacIntel,62.5,,,,,,,,,,,,0.595,1,,,,,,,,,,,,,,m,1,0.595,,,,,,,,0.415,0.09875,0,0,0,,0,139,139,74,1,CEMENT,C,old,m,./images/CEMENT.png,,,,,,,,,,,,,,,,,,,,,
,,,,,,,,,,,,,,,,,198946,18,2022-02-01_16h56.35.921,lexical_decision_task_DD_L2,2021.2.3,MacIntel,62.5,,,,,,,,,,,,0.8,1,,,,,,,,,,,,,,z,1,0.8,,,,,,,,0.415,0.09875,0,0,0,,0,140,140,146,1,MOOST,LB,old,z,./images/MOOSTLB.png,,,,,,,,,,,,,,,,,,,,,
,,,,,,,,,,,,,,,,,198946,18,2022-02-01_16h56.35.921,lexical_decision_task_DD_L2,2021.2.3,MacIntel,62.5,,,,,,,,,,,,0.598,1,,,,,,,,,,,,,,m,1,0.598,,,,,,,,0.415,0.09875,0,0,0,,0,141,141,6,1,SQUARE,HB,old,m,./images/SQUAREHB.png,,,,,,,,,,,,,,,,,,,,,
,,,,,,,,,,,,,,,,,198946,18,2022-02-01_16h56.35.921,lexical_decision_task_DD_L2,2021.2.3,MacIntel,62.5,,,,,,,,,,,,0.651,1,,,,,,,,,,,,,,m,1,0.651,,,,,,,,0.415,0.09875,0,0,0,,0,142,142,78,1,LITTER,HB,old,m,./images/LITTERHB.png,,,,,,,,,,,,,,,,,,,,,
,,,,,,,,,,,,,,,,,198946,18,2022-02-01_16h56.35.921,lexical_decision_task_DD_L2,2021.2.3,MacIntel,62.5,,,,,,,,,,,,0.982,1,,,,,,,,,,,,,,z,1,0.982,,,,,,,,0.415,0.09875,0,0,0,,0,143,143,105,1,MOKER,C,old,z,./images/MOKER.png,,,,,,,,,,,,,,,,,,,,,
,,,,,,,,,,,,,,,,,198946,18,2022-02-01_16h56.35.921,lexical_decision_task_DD_L2,2021.2.3,MacIntel,62.5,,,,,,,,,,,,1.2,1,,,,,,,,,,,,,,z,1,1.2,,,,,,,,0.415,0.09875,0,0,0,,0,144,144,124,1,TUNCH,HB,old,z,./images/TUNCHHB.png,,,,,,,,,,,,,,,,,,,,,
,,,,,,,,,,,,,,,,,198946,18,2022-02-01_16h56.35.921,lexical_decision_task_DD_L2,2021.2.3,MacIntel,62.5,,,,,,,,,,,,0.792,1,,,,,,,,,,,,,,m,1,0.792,,,,,,,,0.415,0.09875,0,0,0,,0,145,145,12,1,SHORE,HB,old,m,./images/SHOREHB.png,,,,,,,,,,,,,,,,,,,,,
,,,,,,,,,,,,,,,,,198946,18,2022-02-01_16h56.35.921,lexical_decision_task_DD_L2,2021.2.3,MacIntel,62.5,,,,,,,,,,,,1.342,1,,,,,,,,,,,,,,z,1,1.342,,,,,,,,0.415,0.09875,0,0,0,,0,146,146,121,1,CEERS,HB,old,z,./images/CEERSHB.png,,,,,,,,,,,,,,,,,,,,,
,,,,,,,,,,,,,,,,,198946,18,2022-02-01_16h56.35.921,lexical_decision_task_DD_L2,2021.2.3,MacIntel,62.5,,,,,,,,,,,,0.929,1,,,,,,,,,,,,,,m,1,0.929,,,,,,,,0.415,0.09875,0,0,0,,0,147,147,43,1,MOSQUE,LB,old,m,./images/MOSQUELB.png,,,,,,,,,,,,,,,,,,,,,
,,,,,,,,,,,,,,,,,198946,18,2022-02-01_16h56.35.921,lexical_decision_task_DD_L2,2021.2.3,MacIntel,62.5,,,,,,,,,,,,0.657,1,,,,,,,,,,,,,,m,1,0.657,,,,,,,,0.415,0.09875,0,0,0,,0,148,148,70,1,URINE,LB,old,m,./images/URINELB.png,,,,,,,,,,,,,,,,,,,,,
,,,,,,,,,,,,,,,,,198946,18,2022-02-01_16h56.35.921,lexical_decision_task_DD_L2,2021.2.3,MacIntel,62.5,,,,,,,,,,,,1.011,1,,,,,,,,,,,,,,m,1,1.011,,,,,,,,0.415,0.09875,0,0,0,,0,149,149,36,1,THROAT,HB,old,m,./images/THROATHB.png,,,,,,,,,,,,,,,,,,,,,
,,,,,,,,,,,,,,,,,198946,18,2022-02-01_16h56.35.921,lexical_decision_task_DD_L2,2021.2.3,MacIntel,62.5,,,,,,,,,,,,0.698,1,,,,,,,,,,,,,,z,1,0.698,,,,,,,,0.415,0.09875,0,0,0,,0,150,150,163,1,GAMBA,HB,old,z,./images/GAMBAHB.png,,,,,,,,,,,,,,,,,,,,,
,,,,,,,,,,,,,,,,,198946,18,2022-02-01_16h56.35.921,lexical_decision_task_DD_L2,2021.2.3,MacIntel,62.5,,,,,,,,,,,,1.36,1,,,,,,,,,,,,,,z,1,1.36,,,,,,,,0.415,0.09875,0,0,0,,0,151,151,85,1,CHULK,HB,old,z,./images/CHULKHB.png,,,,,,,,,,,,,,,,,,,,,
,,,,,,,,,,,,,,,,,198946,18,2022-02-01_16h56.35.921,lexical_decision_task_DD_L2,2021.2.3,MacIntel,62.5,,,,,,,,,,,,1.649,1,,,,,,,,,,,,,,m,1,1.649,,,,,,,,0.415,0.09875,0,0,0,,0,152,152,7,1,PAINT,LB,old,m,./images/PAINTLB.png,,,,,,,,,,,,,,,,,,,,,
,,,,,,,,,,,,,,,,,198946,18,2022-02-01_16h56.35.921,lexical_decision_task_DD_L2,2021.2.3,MacIntel,62.5,,,,,,,,,,,,0.676,1,,,,,,,,,,,,,,z,1,0.676,,,,,,,,0.415,0.09875,0,0,0,,0,153,153,155,1,CANGY,LB,old,z,./images/CANGYLB.png,,,,,,,,,,,,,,,,,,,,,
,,,,,,,,,,,,,,,,,198946,18,2022-02-01_16h56.35.921,lexical_decision_task_DD_L2,2021.2.3,MacIntel,62.5,,,,,,,,,,,,0.798,1,,,,,,,,,,,,,,m,1,0.798,,,,,,,,0.415,0.09875,0,0,0,,0,154,154,58,1,BABOON,LB,old,m,./images/BABOONLB.png,,,,,,,,,,,,,,,,,,,,,
,,,,,,,,,,,,,,,,,198946,18,2022-02-01_16h56.35.921,lexical_decision_task_DD_L2,2021.2.3,MacIntel,62.5,,,,,,,,,,,,0.782,1,,,,,,,,,,,,,,z,1,0.782,,,,,,,,0.415,0.09875,0,0,0,,0,155,155,140,1,DOVET,LB,old,z,./images/DOVETLB.png,,,,,,,,,,,,,,,,,,,,,
,,,,,,,,,,,,,,,,,198946,18,2022-02-01_16h56.35.921,lexical_decision_task_DD_L2,2021.2.3,MacIntel,62.5,,,,,,,,,,,,0.483,1,,,,,,,,,,,,,,m,1,0.483,,,,,,,,0.415,0.09875,0,0,0,,0,156,156,77,1,COUCH,C,old,m,./images/COUCH.png,,,,,,,,,,,,,,,,,,,,,
,,,,,,,,,,,,,,,,,198946,18,2022-02-01_16h56.35.921,lexical_decision_task_DD_L2,2021.2.3,MacIntel,62.5,,,,,,,,,,,,0.505,1,,,,,,,,,,,,,,z,1,0.505,,,,,,,,0.415,0.09875,0,0,0,,0,157,157,167,1,ZONET,LB,old,z,./images/ZONETLB.png,,,,,,,,,,,,,,,,,,,,,
,,,,,,,,,,,,,,,,,198946,18,2022-02-01_16h56.35.921,lexical_decision_task_DD_L2,2021.2.3,MacIntel,62.5,,,,,,,,,,,,0.584,1,,,,,,,,,,,,,,z,1,0.584,,,,,,,,0.415,0.09875,0,0,0,,0,158,158,99,1,BACKY,C,old,z,./images/BACKY.png,,,,,,,,,,,,,,,,,,,,,
,,,,,,,,,,,,,,,,,198946,18,2022-02-01_16h56.35.921,lexical_decision_task_DD_L2,2021.2.3,MacIntel,62.5,,,,,,,,,,,,1.465,1,,,,,,,,,,,,,,z,1,1.465,,,,,,,,0.415,0.09875,0,0,0,,0,159,159,154,1,THINT,HB,old,z,./images/THINTHB.png,,,,,,,,,,,,,,,,,,,,,
,,,,,,,,,,,,,,,,,198946,18,2022-02-01_16h56.35.921,lexical_decision_task_DD_L2,2021.2.3,MacIntel,62.5,,,,,,,,,,,,0.656,1,,,,,,,,,,,,,,z,1,0.656,,,,,,,,0.415,0.09875,0,0,0,,0,160,160,158,1,EGECT,LB,old,z,./images/EGECTLB.png,,,,,,,,,,,,,,,,,,,,,
,,,,,,,,,,,,,,,,,198946,18,2022-02-01_16h56.35.921,lexical_decision_task_DD_L2,2021.2.3,MacIntel,62.5,,,,,,,,,,,,0.492,1,,,,,,,,,,,,,,m,1,0.492,,,,,,,,0.415,0.09875,0,0,0,,0,161,161,44,1,LIZARD,C,old,m,./images/LIZARD.png,,,,,,,,,,,,,,,,,,,,,
,,,,,,,,,,,,,,,,,198946,18,2022-02-01_16h56.35.921,lexical_decision_task_DD_L2,2021.2.3,MacIntel,62.5,,,,,,,,,,,,0.583,1,,,,,,,,,,,,,,m,1,0.583,,,,,,,,0.415,0.09875,0,0,0,,0,162,162,11,1,BONNET,C,old,m,./images/BONNET.png,,,,,,,,,,,,,,,,,,,,,
,,,,,,,,,,,,,,,,,198946,18,2022-02-01_16h56.35.921,lexical_decision_task_DD_L2,2021.2.3,MacIntel,62.5,,,,,,,,,,,,0.711,1,,,,,,,,,,,,,,m,1,0.711,,,,,,,,0.415,0.09875,0,0,0,,0,163,163,82,1,SUNSET,LB,old,m,./images/SUNSETLB.png,,,,,,,,,,,,,,,,,,,,,
,,,,,,,,,,,,,,,,,198946,18,2022-02-01_16h56.35.921,lexical_decision_task_DD_L2,2021.2.3,MacIntel,62.5,,,,,,,,,,,,0.55,1,,,,,,,,,,,,,,z,1,0.55,,,,,,,,0.415,0.09875,0,0,0,,0,164,164,120,1,RINED,C,old,z,./images/RINED.png,,,,,,,,,,,,,,,,,,,,,
,,,,,,,,,,,,,,,,,198946,18,2022-02-01_16h56.35.921,lexical_decision_task_DD_L2,2021.2.3,MacIntel,62.5,,,,,,,,,,,,0.75,1,,,,,,,,,,,,,,m,1,0.75,,,,,,,,0.415,0.09875,0,0,0,,0,165,165,54,1,TRIPOD,HB,old,m,./images/TRIPODHB.png,,,,,,,,,,,,,,,,,,,,,
,,,,,,,,,,,,,,,,,198946,18,2022-02-01_16h56.35.921,lexical_decision_task_DD_L2,2021.2.3,MacIntel,62.5,,,,,,,,,,,,0.632,1,,,,,,,,,,,,,,m,1,0.632,,,,,,,,0.415,0.09875,0,0,0,,0,166,166,34,1,CANYON,LB,old,m,./images/CANYONLB.png,,,,,,,,,,,,,,,,,,,,,
,,,,,,,,,,,,,,,,,198946,18,2022-02-01_16h56.35.921,lexical_decision_task_DD_L2,2021.2.3,MacIntel,62.5,,,,,,,,,,,,0.56,1,,,,,,,,,,,,,,m,1,0.56,,,,,,,,0.415,0.09875,0,0,0,,0,167,167,35,1,PEACH,C,old,m,./images/PEACH.png,,,,,,,,,,,,,,,,,,,,,
,0.11375,-0.41,1,0,0,instr_done_button,,,,,,1,test,"In the next phase you will be presented with the words from the the first phase. Your job is to decide whether you remember seeing the word or not. If you remember seeing the word press ""old"" or type ""m"". If you do not remember seeing the word press ""new"" or type ""z"". Please press the space bar or click on continue to begin. ",,,198946,18,2022-02-01_16h56.35.921,lexical_decision_task_DD_L2,2021.2.3,MacIntel,62.5,,,,,,,,,,,,,,,,,,,,,,,,,,,,,,,,,,,,,,,,,,,,,,,,,,,,,,0,0,0,0,1,,,,,,,,,,,,,,,
,0.11375,-0.41,1,0,0,instr_done_button,,,,,,1,test,"In the next phase you will be presented with the words from the the first phase. Your job is to decide whether you remember seeing the word or not. If you remember seeing the word press ""old"" or type ""m"". If you do not remember seeing the word press ""new"" or type ""z"". Please press the space bar or click on continue to begin. ",,,198946,18,2022-02-01_16h56.35.921,lexical_decision_task_DD_L2,2021.2.3,MacIntel,62.5,,,,,,,,,,,,,,,,,,,,,,,,,,,,,,,,,,,,,,,,,,,,,,,,,,,,,,1,0,1,0,1,,,,,,,,,,,,,,,
space,0.11375,-0.41,0,0,0,,,,,,,1,test,"In the next phase you will be presented with the words from the the first phase. Your job is to decide whether you remember seeing the word or not. If you remember seeing the word press ""old"" or type ""m"". If you do not remember seeing the word press ""new"" or type ""z"". Please press the space bar or click on continue to begin. ",,,198946,18,2022-02-01_16h56.35.921,lexical_decision_task_DD_L2,2021.2.3,MacIntel,62.5,0.729,,,,,,,,,,,,,,,,,,,,,,,,,,,,,,,,,,,,,,,,,,,,,,,,,,,,,2,0,2,0,1,,,,,,,,,,,,,,,
,0.00375,-0.39375,1,0,0,instr_done_button,,,,,,1,test,"In the next phase you will be presented with the words from the the first phase. Your job is to decide whether you remember seeing the word or not. If you remember seeing the word press ""old"" or type ""m"". If you do not remember seeing the word press ""new"" or type ""z"". Please press the space bar or click on continue to begin. ",,,198946,18,2022-02-01_16h56.35.921,lexical_decision_task_DD_L2,2021.2.3,MacIntel,62.5,,,,,,,,,,,,,,,,,,,,,,,,,,,,,,,,,,,,,,,,,,,,,,,,,,,,,,3,0,3,0,1,,,,,,,,,,,,,,,
,0.00375,-0.39375,1,0,0,instr_done_button,,,,,,1,test,"In the next phase you will be presented with the words from the the first phase. Your job is to decide whether you remember seeing the word or not. If you remember seeing the word press ""old"" or type ""m"". If you do not remember seeing the word press ""new"" or type ""z"". Please press the space bar or click on continue to begin. ",,,198946,18,2022-02-01_16h56.35.921,lexical_decision_task_DD_L2,2021.2.3,MacIntel,62.5,,,,,,,,,,,,,,,,,,,,,,,,,,,,,,,,,,,,,,,,,,,,,,,,,,,,,,4,0,4,0,1,,,,,,,,,,,,,,,
,,,,,,,,,,,,,,,,,198946,18,2022-02-01_16h56.35.921,lexical_decision_task_DD_L2,2021.2.3,MacIntel,62.5,,,,,,,,,,,,1.78,1,,,,,,,,,,,,,,,,,,,,,,,,0.06875,-0.21375,0,0,0,,,,,,,JUMPER,C,z,y,./images/JUMPER.png,,,,,,,z,1,1.78,,,,,,,,0,0,0,158,1
,,,,,,,,,,,,,,,,,198946,18,2022-02-01_16h56.35.921,lexical_decision_task_DD_L2,2021.2.3,MacIntel,62.5,,,,,,,,,,,,1.179,1,,,,,,,,,,,,,,,,,,,,,,,,0.06875,-0.21375,0,0,0,,,,,,,KITTEN,HB,m,y,./images/KITTENHB.png,,,,,,,m,1,1.179,,,,,,,,0,1,1,45,1
,,,,,,,,,,,,,,,,,198946,18,2022-02-01_16h56.35.921,lexical_decision_task_DD_L2,2021.2.3,MacIntel,62.5,,,,,,,,,,,,0.738,1,,,,,,,,,,,,,,,,,,,,,,,,0.06875,-0.21375,0,0,0,,,,,,,PIMPLE,C,m,y,./images/PIMPLE.png,,,,,,,m,1,0.738,,,,,,,,0,2,2,71,1
,,,,,,,,,,,,,,,,,198946,18,2022-02-01_16h56.35.921,lexical_decision_task_DD_L2,2021.2.3,MacIntel,62.5,,,,,,,,,,,,0.674,1,,,,,,,,,,,,,,,,,,,,,,,,0.06875,-0.21375,0,0,0,,,,,,,MELON,LB,m,y,./images/MELONLB.png,,,,,,,m,1,0.674,,,,,,,,0,3,3,22,1
,,,,,,,,,,,,,,,,,198946,18,2022-02-01_16h56.35.921,lexical_decision_task_DD_L2,2021.2.3,MacIntel,62.5,,,,,,,,,,,,0.608,1,,,,,,,,,,,,,,,,,,,,,,,,0.06875,-0.21375,0,0,0,,,,,,,CARPET,C,m,y,./images/CARPET.png,,,,,,,m,1,0.608,,,,,,,,0,4,4,53,1
,,,,,,,,,,,,,,,,,198946,18,2022-02-01_16h56.35.921,lexical_decision_task_DD_L2,2021.2.3,MacIntel,62.5,,,,,,,,,,,,0.725,1,,,,,,,,,,,,,,,,,,,,,,,,0.06875,-0.21375,0,0,0,,,,,,,CLOTH,C,z,y,./images/CLOTH.png,,,,,,,z,1,0.725,,,,,,,,0,5,5,107,1
,,,,,,,,,,,,,,,,,198946,18,2022-02-01_16h56.35.921,lexical_decision_task_DD_L2,2021.2.3,MacIntel,62.5,,,,,,,,,,,,0.664,1,,,,,,,,,,,,,,,,,,,,,,,,0.06875,-0.21375,0,0,0,,,,,,,CHERRY,HB,z,y,./images/CHERRYHB.png,,,,,,,z,1,0.664,,,,,,,,0,6,6,138,1
,,,,,,,,,,,,,,,,,198946,18,2022-02-01_16h56.35.921,lexical_decision_task_DD_L2,2021.2.3,MacIntel,62.5,,,,,,,,,,,,0.692,1,,,,,,,,,,,,,,,,,,,,,,,,0.06875,-0.21375,0,0,0,,,,,,,MOSQUE,LB,m,y,./images/MOSQUELB.png,,,,,,,m,1,0.692,,,,,,,,0,7,7,43,1
,,,,,,,,,,,,,,,,,198946,18,2022-02-01_16h56.35.921,lexical_decision_task_DD_L2,2021.2.3,MacIntel,62.5,,,,,,,,,,,,0.629,1,,,,,,,,,,,,,,,,,,,,,,,,0.06875,-0.21375,0,0,0,,,,,,,BRIDE,LB,z,y,./images/BRIDELB.png,,,,,,,z,1,0.629,,,,,,,,0,8,8,148,1
,,,,,,,,,,,,,,,,,198946,18,2022-02-01_16h56.35.921,lexical_decision_task_DD_L2,2021.2.3,MacIntel,62.5,,,,,,,,,,,,0.612,1,,,,,,,,,,,,,,,,,,,,,,,,0.06875,-0.21375,0,0,0,,,,,,,URINE,LB,m,y,./images/URINELB.png,,,,,,,m,1,0.612,,,,,,,,0,9,9,70,1
,,,,,,,,,,,,,,,,,198946,18,2022-02-01_16h56.35.921,lexical_decision_task_DD_L2,2021.2.3,MacIntel,62.5,,,,,,,,,,,,0.595,1,,,,,,,,,,,,,,,,,,,,,,,,0.06875,-0.21375,0,0,0,,,,,,,FOLDER,HB,m,y,./images/FOLDERHB.png,,,,,,,m,1,0.595,,,,,,,,0,10,10,42,1
,,,,,,,,,,,,,,,,,198946,18,2022-02-01_16h56.35.921,lexical_decision_task_DD_L2,2021.2.3,MacIntel,62.5,,,,,,,,,,,,0.767,0,,,,,,,,,,,,,,,,,,,,,,,,0.06875,-0.21375,0,0,0,,,,,,,QUILL,LB,m,y,./images/QUILLLB.png,,,,,,,z,0,0.767,,,,,,,,0,11,11,31,1
,,,,,,,,,,,,,,,,,198946,18,2022-02-01_16h56.35.921,lexical_decision_task_DD_L2,2021.2.3,MacIntel,62.5,,,,,,,,,,,,0.978,1,,,,,,,,,,,,,,,,,,,,,,,,0.06875,-0.21375,0,0,0,,,,,,,BAMBOO,C,z,y,./images/BAMBOO.png,,,,,,,z,1,0.978,,,,,,,,0,12,12,89,1
,,,,,,,,,,,,,,,,,198946,18,2022-02-01_16h56.35.921,lexical_decision_task_DD_L2,2021.2.3,MacIntel,62.5,,,,,,,,,,,,0.658,1,,,,,,,,,,,,,,,,,,,,,,,,0.06875,-0.21375,0,0,0,,,,,,,BUBBLE,C,z,y,./images/BUBBLE.png,,,,,,,z,1,0.658,,,,,,,,0,13,13,155,1
,,,,,,,,,,,,,,,,,198946,18,2022-02-01_16h56.35.921,lexical_decision_task_DD_L2,2021.2.3,MacIntel,62.5,,,,,,,,,,,,1.292,1,,,,,,,,,,,,,,,,,,,,,,,,0.06875,-0.21375,0,0,0,,,,,,,SPINE,C,z,y,./images/SPINE.png,,,,,,,z,1,1.292,,,,,,,,0,14,14,149,1
,,,,,,,,,,,,,,,,,198946,18,2022-02-01_16h56.35.921,lexical_decision_task_DD_L2,2021.2.3,MacIntel,62.5,,,,,,,,,,,,0.744,1,,,,,,,,,,,,,,,,,,,,,,,,0.06875,-0.21375,0,0,0,,,,,,,GLOVE,LB,z,y,./images/GLOVELB.png,,,,,,,z,1,0.744,,,,,,,,0,15,15,157,1
,,,,,,,,,,,,,,,,,198946,18,2022-02-01_16h56.35.921,lexical_decision_task_DD_L2,2021.2.3,MacIntel,62.5,,,,,,,,,,,,0.553,1,,,,,,,,,,,,,,,,,,,,,,,,0.06875,-0.21375,0,0,0,,,,,,,GRANNY,C,z,y,./images/GRANNY.png,,,,,,,z,1,0.553,,,,,,,,0,16,16,104,1
,,,,,,,,,,,,,,,,,198946,18,2022-02-01_16h56.35.921,lexical_decision_task_DD_L2,2021.2.3,MacIntel,62.5,,,,,,,,,,,,0.648,1,,,,,,,,,,,,,,,,,,,,,,,,0.06875,-0.21375,0,0,0,,,,,,,WRIST,LB,m,y,./images/WRISTLB.png,,,,,,,m,1,0.648,,,,,,,,0,17,17,25,1
,,,,,,,,,,,,,,,,,198946,18,2022-02-01_16h56.35.921,lexical_decision_task_DD_L2,2021.2.3,MacIntel,62.5,,,,,,,,,,,,1.046,0,,,,,,,,,,,,,,,,,,,,,,,,0.06875,-0.21375,0,0,0,,,,,,,HOCKEY,C,z,y,./images/HOCKEY.png,,,,,,,m,0,1.046,,,,,,,,0,18,18,116,1
,,,,,,,,,,,,,,,,,198946,18,2022-02-01_16h56.35.921,lexical_decision_task_DD_L2,2021.2.3,MacIntel,62.5,,,,,,,,,,,,1.249,1,,,,,,,,,,,,,,,,,,,,,,,,0.06875,-0.21375,0,0,0,,,,,,,ONION,HB,m,y,./images/ONIONHB.png,,,,,,,m,1,1.249,,,,,,,,0,19,19,51,1
,,,,,,,,,,,,,,,,,198946,18,2022-02-01_16h56.35.921,lexical_decision_task_DD_L2,2021.2.3,MacIntel,62.5,,,,,,,,,,,,1.896,1,,,,,,,,,,,,,,,,,,,,,,,,0.06875,-0.21375,0,0,0,,,,,,,BOILER,HB,z,y,./images/BOILERHB.png,,,,,,,z,1,1.896,,,,,,,,0,20,20,120,1
,,,,,,,,,,,,,,,,,198946,18,2022-02-01_16h56.35.921,lexical_decision_task_DD_L2,2021.2.3,MacIntel,62.5,,,,,,,,,,,,0.88,0,,,,,,,,,,,,,,,,,,,,,,,,0.06875,-0.21375,0,0,0,,,,,,,DIVER,HB,z,y,./images/DIVERHB.png,,,,,,,m,0,0.88,,,,,,,,0,21,21,93,1
,,,,,,,,,,,,,,,,,198946,18,2022-02-01_16h56.35.921,lexical_decision_task_DD_L2,2021.2.3,MacIntel,62.5,,,,,,,,,,,,0.668,1,,,,,,,,,,,,,,,,,,,,,,,,0.06875,-0.21375,0,0,0,,,,,,,GARDEN,LB,z,y,./images/GARDENLB.png,,,,,,,z,1,0.668,,,,,,,,0,22,22,94,1
,,,,,,,,,,,,,,,,,198946,18,2022-02-01_16h56.35.921,lexical_decision_task_DD_L2,2021.2.3,MacIntel,62.5,,,,,,,,,,,,0.681,1,,,,,,,,,,,,,,,,,,,,,,,,0.06875,-0.21375,0,0,0,,,,,,,BERRY,C,m,y,./images/BERRY.png,,,,,,,m,1,0.681,,,,,,,,0,23,23,47,1
,,,,,,,,,,,,,,,,,198946,18,2022-02-01_16h56.35.921,lexical_decision_task_DD_L2,2021.2.3,MacIntel,62.5,,,,,,,,,,,,0.646,1,,,,,,,,,,,,,,,,,,,,,,,,0.06875,-0.21375,0,0,0,,,,,,,PARCEL,HB,z,y,./images/PARCELHB.png,,,,,,,z,1,0.646,,,,,,,,0,24,24,102,1
,,,,,,,,,,,,,,,,,198946,18,2022-02-01_16h56.35.921,lexical_decision_task_DD_L2,2021.2.3,MacIntel,62.5,,,,,,,,,,,,0.598,1,,,,,,,,,,,,,,,,,,,,,,,,0.06875,-0.21375,0,0,0,,,,,,,MUFFIN,LB,m,y,./images/MUFFINLB.png,,,,,,,m,1,0.598,,,,,,,,0,25,25,55,1
,,,,,,,,,,,,,,,,,198946,18,2022-02-01_16h56.35.921,lexical_decision_task_DD_L2,2021.2.3,MacIntel,62.5,,,,,,,,,,,,0.575,1,,,,,,,,,,,,,,,,,,,,,,,,0.06875,-0.21375,0,0,0,,,,,,,THROAT,HB,m,y,./images/THROATHB.png,,,,,,,m,1,0.575,,,,,,,,0,26,26,36,1
,,,,,,,,,,,,,,,,,198946,18,2022-02-01_16h56.35.921,lexical_decision_task_DD_L2,2021.2.3,MacIntel,62.5,,,,,,,,,,,,0.733,1,,,,,,,,,,,,,,,,,,,,,,,,0.06875,-0.21375,0,0,0,,,,,,,LAGOON,C,z,y,./images/LAGOON.png,,,,,,,z,1,0.733,,,,,,,,0,27,27,131,1
,,,,,,,,,,,,,,,,,198946,18,2022-02-01_16h56.35.921,lexical_decision_task_DD_L2,2021.2.3,MacIntel,62.5,,,,,,,,,,,,0.613,1,,,,,,,,,,,,,,,,,,,,,,,,0.06875,-0.21375,0,0,0,,,,,,,MOTOR,LB,m,y,./images/MOTORLB.png,,,,,,,m,1,0.613,,,,,,,,0,28,28,13,1
,,,,,,,,,,,,,,,,,198946,18,2022-02-01_16h56.35.921,lexical_decision_task_DD_L2,2021.2.3,MacIntel,62.5,,,,,,,,,,,,0.696,1,,,,,,,,,,,,,,,,,,,,,,,,0.06875,-0.21375,0,0,0,,,,,,,POKER,LB,z,y,./images/POKERLB.png,,,,,,,z,1,0.696,,,,,,,,0,29,29,151,1
,,,,,,,,,,,,,,,,,198946,18,2022-02-01_16h56.35.921,lexical_decision_task_DD_L2,2021.2.3,MacIntel,62.5,,,,,,,,,,,,1.264,0,,,,,,,,,,,,,,,,,,,,,,,,0.06875,-0.21375,0,0,0,,,,,,,BANNER,LB,m,y,./images/BANNERLB.png,,,,,,,z,0,1.264,,,,,,,,0,30,30,52,1
,,,,,,,,,,,,,,,,,198946,18,2022-02-01_16h56.35.921,lexical_decision_task_DD_L2,2021.2.3,MacIntel,62.5,,,,,,,,,,,,0.596,1,,,,,,,,,,,,,,,,,,,,,,,,0.06875,-0.21375,0,0,0,,,,,,,GRAIN,HB,m,y,./images/GRAINHB.png,,,,,,,m,1,0.596,,,,,,,,0,31,31,75,1
,,,,,,,,,,,,,,,,,198946,18,2022-02-01_16h56.35.921,lexical_decision_task_DD_L2,2021.2.3,MacIntel,62.5,,,,,,,,,,,,1.076,1,,,,,,,,,,,,,,,,,,,,,,,,0.06875,-0.21375,0,0,0,,,,,,,HEATER,C,z,y,./images/HEATER.png,,,,,,,z,1,1.076,,,,,,,,0,32,32,140,1
,,,,,,,,,,,,,,,,,198946,18,2022-02-01_16h56.35.921,lexical_decision_task_DD_L2,2021.2.3,MacIntel,62.5,,,,,,,,,,,,0.544,1,,,,,,,,,,,,,,,,,,,,,,,,0.06875,-0.21375,0,0,0,,,,,,,LITTER,HB,m,y,./images/LITTERHB.png,,,,,,,m,1,0.544,,,,,,,,0,33,33,78,1
,,,,,,,,,,,,,,,,,198946,18,2022-02-01_16h56.35.921,lexical_decision_task_DD_L2,2021.2.3,MacIntel,62.5,,,,,,,,,,,,0.625,1,,,,,,,,,,,,,,,,,,,,,,,,0.06875,-0.21375,0,0,0,,,,,,,CRUMB,C,m,y,./images/CRUMB.png,,,,,,,m,1,0.625,,,,,,,,0,34,34,29,1
,,,,,,,,,,,,,,,,,198946,18,2022-02-01_16h56.35.921,lexical_decision_task_DD_L2,2021.2.3,MacIntel,62.5,,,,,,,,,,,,0.749,1,,,,,,,,,,,,,,,,,,,,,,,,0.06875,-0.21375,0,0,0,,,,,,,SMOKER,C,m,y,./images/SMOKER.png,,,,,,,m,1,0.749,,,,,,,,0,35,35,26,1
,,,,,,,,,,,,,,,,,198946,18,2022-02-01_16h56.35.921,lexical_decision_task_DD_L2,2021.2.3,MacIntel,62.5,,,,,,,,,,,,0.512,1,,,,,,,,,,,,,,,,,,,,,,,,0.06875,-0.21375,0,0,0,,,,,,,MUSCLE,LB,m,y,./images/MUSCLELB.png,,,,,,,m,1,0.512,,,,,,,,0,36,36,4,1
,,,,,,,,,,,,,,,,,198946,18,2022-02-01_16h56.35.921,lexical_decision_task_DD_L2,2021.2.3,MacIntel,62.5,,,,,,,,,,,,0.74,1,,,,,,,,,,,,,,,,,,,,,,,,0.06875,-0.21375,0,0,0,,,,,,,SHIELD,HB,z,y,./images/SHIELDHB.png,,,,,,,z,1,0.74,,,,,,,,0,37,37,132,1
,,,,,,,,,,,,,,,,,198946,18,2022-02-01_16h56.35.921,lexical_decision_task_DD_L2,2021.2.3,MacIntel,62.5,,,,,,,,,,,,0.729,0,,,,,,,,,,,,,,,,,,,,,,,,0.06875,-0.21375,0,0,0,,,,,,,BIRTH,LB,m,y,./images/BIRTHLB.png,,,,,,,z,0,0.729,,,,,,,,0,38,38,37,1
,,,,,,,,,,,,,,,,,198946,18,2022-02-01_16h56.35.921,lexical_decision_task_DD_L2,2021.2.3,MacIntel,62.5,,,,,,,,,,,,0.611,1,,,,,,,,,,,,,,,,,,,,,,,,0.06875,-0.21375,0,0,0,,,,,,,SKIING,C,m,y,./images/SKIING.png,,,,,,,m,1,0.611,,,,,,,,0,39,39,17,1
,,,,,,,,,,,,,,,,,198946,18,2022-02-01_16h56.35.921,lexical_decision_task_DD_L2,2021.2.3,MacIntel,62.5,,,,,,,,,,,,0.674,1,,,,,,,,,,,,,,,,,,,,,,,,0.06875,-0.21375,0,0,0,,,,,,,FALCON,LB,m,y,./images/FALCONLB.png,,,,,,,m,1,0.674,,,,,,,,0,40,40,28,1
,,,,,,,,,,,,,,,,,198946,18,2022-02-01_16h56.35.921,lexical_decision_task_DD_L2,2021.2.3,MacIntel,62.5,,,,,,,,,,,,0.614,1,,,,,,,,,,,,,,,,,,,,,,,,-0.01375,-0.40875,0,0,0,space,,,,,,PASTA,C,m,y,./images/PASTA.png,2.416,,,,,,m,1,0.614,,,,,,,,0,41,41,5,1
,,,,,,,,,,,,,,,,,198946,18,2022-02-01_16h56.35.921,lexical_decision_task_DD_L2,2021.2.3,MacIntel,62.5,,,,,,,,,,,,0.745,0,,,,,,,,,,,,,,,,,,,,,,,,-0.01375,-0.40875,0,0,0,,,,,,,INFANT,LB,m,y,./images/INFANTLB.png,,,,,,,z,0,0.745,,,,,,,,0,42,42,76,1
,,,,,,,,,,,,,,,,,198946,18,2022-02-01_16h56.35.921,lexical_decision_task_DD_L2,2021.2.3,MacIntel,62.5,,,,,,,,,,,,0.692,1,,,,,,,,,,,,,,,,,,,,,,,,-0.01375,-0.40875,0,0,0,,,,,,,LLAMA,C,z,y,./images/LLAMA.png,,,,,,,z,1,0.692,,,,,,,,0,43,43,119,1
,,,,,,,,,,,,,,,,,198946,18,2022-02-01_16h56.35.921,lexical_decision_task_DD_L2,2021.2.3,MacIntel,62.5,,,,,,,,,,,,0.781,1,,,,,,,,,,,,,,,,,,,,,,,,-0.01375,-0.40875,0,0,0,,,,,,,PEBBLE,LB,z,y,./images/PEBBLELB.png,,,,,,,z,1,0.781,,,,,,,,0,44,44,166,1
,,,,,,,,,,,,,,,,,198946,18,2022-02-01_16h56.35.921,lexical_decision_task_DD_L2,2021.2.3,MacIntel,62.5,,,,,,,,,,,,0.592,1,,,,,,,,,,,,,,,,,,,,,,,,-0.01375,-0.40875,0,0,0,,,,,,,PARADE,C,z,y,./images/PARADE.png,,,,,,,z,1,0.592,,,,,,,,0,45,45,101,1
,,,,,,,,,,,,,,,,,198946,18,2022-02-01_16h56.35.921,lexical_decision_task_DD_L2,2021.2.3,MacIntel,62.5,,,,,,,,,,,,0.774,1,,,,,,,,,,,,,,,,,,,,,,,,-0.01375,-0.40875,0,0,0,,,,,,,MAGGOT,HB,m,y,./images/MAGGOTHB.png,,,,,,,m,1,0.774,,,,,,,,0,46,46,33,1
,,,,,,,,,,,,,,,,,198946,18,2022-02-01_16h56.35.921,lexical_decision_task_DD_L2,2021.2.3,MacIntel,62.5,,,,,,,,,,,,0.563,1,,,,,,,,,,,,,,,,,,,,,,,,-0.01375,-0.40875,0,0,0,,,,,,,BLOKE,HB,z,y,./images/BLOKEHB.png,,,,,,,z,1,0.563,,,,,,,,0,47,47,96,1
,,,,,,,,,,,,,,,,,198946,18,2022-02-01_16h56.35.921,lexical_decision_task_DD_L2,2021.2.3,MacIntel,62.5,,,,,,,,,,,,0.852,1,,,,,,,,,,,,,,,,,,,,,,,,-0.01375,-0.40875,0,0,0,,,,,,,ARTIST,LB,z,y,./images/ARTISTLB.png,,,,,,,z,1,0.852,,,,,,,,0,48,48,145,1
,,,,,,,,,,,,,,,,,198946,18,2022-02-01_16h56.35.921,lexical_decision_task_DD_L2,2021.2.3,MacIntel,62.5,,,,,,,,,,,,0.561,1,,,,,,,,,,,,,,,,,,,,,,,,-0.01375,-0.40875,0,0,0,,,,,,,BOXER,LB,z,y,./images/BOXERLB.png,,,,,,,z,1,0.561,,,,,,,,0,49,49,88,1
,,,,,,,,,,,,,,,,,198946,18,2022-02-01_16h56.35.921,lexical_decision_task_DD_L2,2021.2.3,MacIntel,62.5,,,,,,,,,,,,1.242,1,,,,,,,,,,,,,,,,,,,,,,,,-0.01375,-0.40875,0,0,0,,,,,,,POSTER,C,z,y,./images/POSTER.png,,,,,,,z,1,1.242,,,,,,,,0,50,50,137,1
,,,,,,,,,,,,,,,,,198946,18,2022-02-01_16h56.35.921,lexical_decision_task_DD_L2,2021.2.3,MacIntel,62.5,,,,,,,,,,,,0.98,0,,,,,,,,,,,,,,,,,,,,,,,,-0.01375,-0.40875,0,0,0,,,,,,,CANOE,LB,z,y,./images/CANOELB.png,,,,,,,m,0,0.98,,,,,,,,0,51,51,142,1
,,,,,,,,,,,,,,,,,198946,18,2022-02-01_16h56.35.921,lexical_decision_task_DD_L2,2021.2.3,MacIntel,62.5,,,,,,,,,,,,0.838,1,,,,,,,,,,,,,,,,,,,,,,,,-0.01375,-0.40875,0,0,0,,,,,,,BRUSH,C,z,y,./images/BRUSH.png,,,,,,,z,1,0.838,,,,,,,,0,52,52,143,1
,,,,,,,,,,,,,,,,,198946,18,2022-02-01_16h56.35.921,lexical_decision_task_DD_L2,2021.2.3,MacIntel,62.5,,,,,,,,,,,,0.631,1,,,,,,,,,,,,,,,,,,,,,,,,-0.01375,-0.40875,0,0,0,,,,,,,CRATER,HB,z,y,./images/CRATERHB.png,,,,,,,z,1,0.631,,,,,,,,0,53,53,87,1
,,,,,,,,,,,,,,,,,198946,18,2022-02-01_16h56.35.921,lexical_decision_task_DD_L2,2021.2.3,MacIntel,62.5,,,,,,,,,,,,0.582,1,,,,,,,,,,,,,,,,,,,,,,,,-0.01375,-0.40875,0,0,0,,,,,,,BABOON,LB,m,y,./images/BABOONLB.png,,,,,,,m,1,0.582,,,,,,,,0,54,54,58,1
,,,,,,,,,,,,,,,,,198946,18,2022-02-01_16h56.35.921,lexical_decision_task_DD_L2,2021.2.3,MacIntel,62.5,,,,,,,,,,,,0.659,1,,,,,,,,,,,,,,,,,,,,,,,,-0.01375,-0.40875,0,0,0,,,,,,,BELLY,LB,m,y,./images/BELLYLB.png,,,,,,,m,1,0.659,,,,,,,,0,55,55,10,1
,,,,,,,,,,,,,,,,,198946,18,2022-02-01_16h56.35.921,lexical_decision_task_DD_L2,2021.2.3,MacIntel,62.5,,,,,,,,,,,,0.611,1,,,,,,,,,,,,,,,,,,,,,,,,-0.01375,-0.40875,0,0,0,,,,,,,GREASE,HB,m,y,./images/GREASEHB.png,,,,,,,m,1,0.611,,,,,,,,0,56,56,15,1
,,,,,,,,,,,,,,,,,198946,18,2022-02-01_16h56.35.921,lexical_decision_task_DD_L2,2021.2.3,MacIntel,62.5,,,,,,,,,,,,0.607,1,,,,,,,,,,,,,,,,,,,,,,,,-0.01375,-0.40875,0,0,0,,,,,,,TRIPOD,HB,m,y,./images/TRIPODHB.png,,,,,,,m,1,0.607,,,,,,,,0,57,57,54,1
,,,,,,,,,,,,,,,,,198946,18,2022-02-01_16h56.35.921,lexical_decision_task_DD_L2,2021.2.3,MacIntel,62.5,,,,,,,,,,,,0.624,1,,,,,,,,,,,,,,,,,,,,,,,,-0.01375,-0.40875,0,0,0,,,,,,,TOMATO,HB,m,y,./images/TOMATOHB.png,,,,,,,m,1,0.624,,,,,,,,0,58,58,0,1
,,,,,,,,,,,,,,,,,198946,18,2022-02-01_16h56.35.921,lexical_decision_task_DD_L2,2021.2.3,MacIntel,62.5,,,,,,,,,,,,0.662,1,,,,,,,,,,,,,,,,,,,,,,,,-0.01375,-0.40875,0,0,0,,,,,,,BISHOP,LB,z,y,./images/BISHOPLB.png,,,,,,,z,1,0.662,,,,,,,,0,59,59,133,1
,,,,,,,,,,,,,,,,,198946,18,2022-02-01_16h56.35.921,lexical_decision_task_DD_L2,2021.2.3,MacIntel,62.5,,,,,,,,,,,,0.658,1,,,,,,,,,,,,,,,,,,,,,,,,-0.01375,-0.40875,0,0,0,,,,,,,MAMMAL,C,z,y,./images/MAMMAL.png,,,,,,,z,1,0.658,,,,,,,,0,60,60,146,1
,,,,,,,,,,,,,,,,,198946,18,2022-02-01_16h56.35.921,lexical_decision_task_DD_L2,2021.2.3,MacIntel,62.5,,,,,,,,,,,,0.895,1,,,,,,,,,,,,,,,,,,,,,,,,-0.01375,-0.40875,0,0,0,,,,,,,BASKET,C,z,y,./images/BASKET.png,,,,,,,z,1,0.895,,,,,,,,0,61,61,128,1
,,,,,,,,,,,,,,,,,198946,18,2022-02-01_16h56.35.921,lexical_decision_task_DD_L2,2021.2.3,MacIntel,62.5,,,,,,,,,,,,0.632,1,,,,,,,,,,,,,,,,,,,,,,,,-0.01375,-0.40875,0,0,0,,,,,,,CHALK,LB,z,y,./images/CHALKLB.png,,,,,,,z,1,0.632,,,,,,,,0,62,62,109,1
,,,,,,,,,,,,,,,,,198946,18,2022-02-01_16h56.35.921,lexical_decision_task_DD_L2,2021.2.3,MacIntel,62.5,,,,,,,,,,,,0.597,1,,,,,,,,,,,,,,,,,,,,,,,,-0.01375,-0.40875,0,0,0,,,,,,,SAUCE,HB,z,y,./images/SAUCEHB.png,,,,,,,z,1,0.597,,,,,,,,0,63,63,135,1
,,,,,,,,,,,,,,,,,198946,18,2022-02-01_16h56.35.921,lexical_decision_task_DD_L2,2021.2.3,MacIntel,62.5,,,,,,,,,,,,0.562,1,,,,,,,,,,,,,,,,,,,,,,,,-0.01375,-0.40875,0,0,0,,,,,,,BAKER,HB,z,y,./images/BAKERHB.png,,,,,,,z,1,0.562,,,,,,,,0,64,64,147,1
,,,,,,,,,,,,,,,,,198946,18,2022-02-01_16h56.35.921,lexical_decision_task_DD_L2,2021.2.3,MacIntel,62.5,,,,,,,,,,,,0.909,0,,,,,,,,,,,,,,,,,,,,,,,,-0.01375,-0.40875,0,0,0,,,,,,,FENCE,C,z,y,./images/FENCE.png,,,,,,,m,0,0.909,,,,,,,,0,65,65,98,1
,,,,,,,,,,,,,,,,,198946,18,2022-02-01_16h56.35.921,lexical_decision_task_DD_L2,2021.2.3,MacIntel,62.5,,,,,,,,,,,,0.681,1,,,,,,,,,,,,,,,,,,,,,,,,-0.01375,-0.40875,0,0,0,,,,,,,POODLE,HB,m,y,./images/POODLEHB.png,,,,,,,m,1,0.681,,,,,,,,0,66,66,81,1
,,,,,,,,,,,,,,,,,198946,18,2022-02-01_16h56.35.921,lexical_decision_task_DD_L2,2021.2.3,MacIntel,62.5,,,,,,,,,,,,0.763,1,,,,,,,,,,,,,,,,,,,,,,,,-0.01375,-0.40875,0,0,0,,,,,,,PILOT,C,z,y,./images/PILOT.png,,,,,,,z,1,0.763,,,,,,,,0,67,67,134,1
,,,,,,,,,,,,,,,,,198946,18,2022-02-01_16h56.35.921,lexical_decision_task_DD_L2,2021.2.3,MacIntel,62.5,,,,,,,,,,,,0.823,1,,,,,,,,,,,,,,,,,,,,,,,,-0.01375,-0.40875,0,0,0,,,,,,,SNAKE,LB,z,y,./images/SNAKELB.png,,,,,,,z,1,0.823,,,,,,,,0,68,68,124,1
,,,,,,,,,,,,,,,,,198946,18,2022-02-01_16h56.35.921,lexical_decision_task_DD_L2,2021.2.3,MacIntel,62.5,,,,,,,,,,,,0.742,1,,,,,,,,,,,,,,,,,,,,,,,,-0.01375,-0.40875,0,0,0,,,,,,,WALRUS,C,m,y,./images/WALRUS.png,,,,,,,m,1,0.742,,,,,,,,0,69,69,23,1
,,,,,,,,,,,,,,,,,198946,18,2022-02-01_16h56.35.921,lexical_decision_task_DD_L2,2021.2.3,MacIntel,62.5,,,,,,,,,,,,0.733,1,,,,,,,,,,,,,,,,,,,,,,,,-0.01375,-0.40875,0,0,0,,,,,,,ARROW,HB,z,y,./images/ARROWHB.png,,,,,,,z,1,0.733,,,,,,,,0,70,70,153,1
,,,,,,,,,,,,,,,,,198946,18,2022-02-01_16h56.35.921,lexical_decision_task_DD_L2,2021.2.3,MacIntel,62.5,,,,,,,,,,,,0.952,1,,,,,,,,,,,,,,,,,,,,,,,,-0.01375,-0.40875,0,0,0,,,,,,,WALNUT,HB,z,y,./images/WALNUTHB.png,,,,,,,z,1,0.952,,,,,,,,0,71,71,84,1
,,,,,,,,,,,,,,,,,198946,18,2022-02-01_16h56.35.921,lexical_decision_task_DD_L2,2021.2.3,MacIntel,62.5,,,,,,,,,,,,0.93,1,,,,,,,,,,,,,,,,,,,,,,,,-0.01375,-0.40875,0,0,0,,,,,,,ALLEY,LB,z,y,./images/ALLEYLB.png,,,,,,,z,1,0.93,,,,,,,,0,72,72,139,1
,,,,,,,,,,,,,,,,,198946,18,2022-02-01_16h56.35.921,lexical_decision_task_DD_L2,2021.2.3,MacIntel,62.5,,,,,,,,,,,,0.624,1,,,,,,,,,,,,,,,,,,,,,,,,-0.01375,-0.40875,0,0,0,,,,,,,DOUGH,LB,m,y,./images/DOUGHLB.png,,,,,,,m,1,0.624,,,,,,,,0,73,73,19,1
,,,,,,,,,,,,,,,,,198946,18,2022-02-01_16h56.35.921,lexical_decision_task_DD_L2,2021.2.3,MacIntel,62.5,,,,,,,,,,,,0.619,1,,,,,,,,,,,,,,,,,,,,,,,,-0.01375,-0.40875,0,0,0,,,,,,,SAILOR,LB,m,y,./images/SAILORLB.png,,,,,,,m,1,0.619,,,,,,,,0,74,74,67,1
,,,,,,,,,,,,,,,,,198946,18,2022-02-01_16h56.35.921,lexical_decision_task_DD_L2,2021.2.3,MacIntel,62.5,,,,,,,,,,,,0.601,1,,,,,,,,,,,,,,,,,,,,,,,,-0.01375,-0.40875,0,0,0,,,,,,,LADDER,C,m,y,./images/LADDER.png,,,,,,,m,1,0.601,,,,,,,,0,75,75,38,1
,,,,,,,,,,,,,,,,,198946,18,2022-02-01_16h56.35.921,lexical_decision_task_DD_L2,2021.2.3,MacIntel,62.5,,,,,,,,,,,,0.582,1,,,,,,,,,,,,,,,,,,,,,,,,-0.01375,-0.40875,0,0,0,,,,,,,CRADLE,C,m,y,./images/CRADLE.png,,,,,,,m,1,0.582,,,,,,,,0,76,76,20,1
,,,,,,,,,,,,,,,,,198946,18,2022-02-01_16h56.35.921,lexical_decision_task_DD_L2,2021.2.3,MacIntel,62.5,,,,,,,,,,,,0.591,1,,,,,,,,,,,,,,,,,,,,,,,,-0.01375,-0.40875,0,0,0,,,,,,,SUNSET,LB,m,y,./images/SUNSETLB.png,,,,,,,m,1,0.591,,,,,,,,0,77,77,82,1
,,,,,,,,,,,,,,,,,198946,18,2022-02-01_16h56.35.921,lexical_decision_task_DD_L2,2021.2.3,MacIntel,62.5,,,,,,,,,,,,0.645,1,,,,,,,,,,,,,,,,,,,,,,,,-0.01375,-0.40875,0,0,0,,,,,,,PACKET,C,m,y,./images/PACKET.png,,,,,,,m,1,0.645,,,,,,,,0,78,78,56,1
,,,,,,,,,,,,,,,,,198946,18,2022-02-01_16h56.35.921,lexical_decision_task_DD_L2,2021.2.3,MacIntel,62.5,,,,,,,,,,,,0.675,1,,,,,,,,,,,,,,,,,,,,,,,,-0.01375,-0.40875,0,0,0,,,,,,,BARREL,C,m,y,./images/BARREL.png,,,,,,,m,1,0.675,,,,,,,,0,79,79,32,1
,,,,,,,,,,,,,,,,,198946,18,2022-02-01_16h56.35.921,lexical_decision_task_DD_L2,2021.2.3,MacIntel,62.5,,,,,,,,,,,,0.743,1,,,,,,,,,,,,,,,,,,,,,,,,-0.01375,-0.40875,0,0,0,,,,,,,KIDNEY,HB,m,y,./images/KIDNEYHB.png,,,,,,,m,1,0.743,,,,,,,,0,80,80,21,1
,,,,,,,,,,,,,,,,,198946,18,2022-02-01_16h56.35.921,lexical_decision_task_DD_L2,2021.2.3,MacIntel,62.5,,,,,,,,,,,,0.624,1,,,,,,,,,,,,,,,,,,,,,,,,-0.01375,-0.40875,0,0,0,,,,,,,STOVE,C,z,y,./images/STOVE.png,,,,,,,z,1,0.624,,,,,,,,0,81,81,86,1
,,,,,,,,,,,,,,,,,198946,18,2022-02-01_16h56.35.921,lexical_decision_task_DD_L2,2021.2.3,MacIntel,62.5,,,,,,,,,,,,0.625,1,,,,,,,,,,,,,,,,,,,,,,,,-0.01375,-0.40875,0,0,0,,,,,,,WEASEL,C,m,y,./images/WEASEL.png,,,,,,,m,1,0.625,,,,,,,,0,82,82,80,1
,,,,,,,,,,,,,,,,,198946,18,2022-02-01_16h56.35.921,lexical_decision_task_DD_L2,2021.2.3,MacIntel,62.5,,,,,,,,,,,,0.675,0,,,,,,,,,,,,,,,,,,,,,,,,-0.01375,-0.40875,0,0,0,space,,,,,,SPORT,HB,m,y,./images/SPORTHB.png,1.062,,,,,,z,0,0.675,,,,,,,,0,83,83,48,1
,,,,,,,,,,,,,,,,,198946,18,2022-02-01_16h56.35.921,lexical_decision_task_DD_L2,2021.2.3,MacIntel,62.5,,,,,,,,,,,,0.775,1,,,,,,,,,,,,,,,,,,,,,,,,-0.01375,-0.40875,0,0,0,,,,,,,ENGINE,C,z,y,./images/ENGINE.png,,,,,,,z,1,0.775,,,,,,,,0,84,84,122,1
,,,,,,,,,,,,,,,,,198946,18,2022-02-01_16h56.35.921,lexical_decision_task_DD_L2,2021.2.3,MacIntel,62.5,,,,,,,,,,,,0.756,1,,,,,,,,,,,,,,,,,,,,,,,,-0.01375,-0.40875,0,0,0,,,,,,,MIDGET,LB,z,y,./images/MIDGETLB.png,,,,,,,z,1,0.756,,,,,,,,0,85,85,160,1
,,,,,,,,,,,,,,,,,198946,18,2022-02-01_16h56.35.921,lexical_decision_task_DD_L2,2021.2.3,MacIntel,62.5,,,,,,,,,,,,0.963,1,,,,,,,,,,,,,,,,,,,,,,,,-0.01375,-0.40875,0,0,0,,,,,,,RAZOR,LB,z,y,./images/RAZORLB.png,,,,,,,z,1,0.963,,,,,,,,0,86,86,118,1
,,,,,,,,,,,,,,,,,198946,18,2022-02-01_16h56.35.921,lexical_decision_task_DD_L2,2021.2.3,MacIntel,62.5,,,,,,,,,,,,0.668,1,,,,,,,,,,,,,,,,,,,,,,,,-0.01375,-0.40875,0,0,0,,,,,,,DONKEY,LB,z,y,./images/DONKEYLB.png,,,,,,,z,1,0.668,,,,,,,,0,87,87,103,1
,,,,,,,,,,,,,,,,,198946,18,2022-02-01_16h56.35.921,lexical_decision_task_DD_L2,2021.2.3,MacIntel,62.5,,,,,,,,,,,,0.68,1,,,,,,,,,,,,,,,,,,,,,,,,-0.01375,-0.40875,0,0,0,,,,,,,COUCH,C,m,y,./images/COUCH.png,,,,,,,m,1,0.68,,,,,,,,0,88,88,77,1
,,,,,,,,,,,,,,,,,198946,18,2022-02-01_16h56.35.921,lexical_decision_task_DD_L2,2021.2.3,MacIntel,62.5,,,,,,,,,,,,0.811,1,,,,,,,,,,,,,,,,,,,,,,,,-0.01375,-0.40875,0,0,0,,,,,,,DRUMS,LB,m,y,./images/DRUMSLB.png,,,,,,,m,1,0.811,,,,,,,,0,89,89,49,1
,,,,,,,,,,,,,,,,,198946,18,2022-02-01_16h56.35.921,lexical_decision_task_DD_L2,2021.2.3,MacIntel,62.5,,,,,,,,,,,,0.858,1,,,,,,,,,,,,,,,,,,,,,,,,-0.01375,-0.40875,0,0,0,,,,,,,FLESH,HB,z,y,./images/FLESHHB.png,,,,,,,z,1,0.858,,,,,,,,0,90,90,108,1
,,,,,,,,,,,,,,,,,198946,18,2022-02-01_16h56.35.921,lexical_decision_task_DD_L2,2021.2.3,MacIntel,62.5,,,,,,,,,,,,0.896,1,,,,,,,,,,,,,,,,,,,,,,,,-0.01375,-0.40875,0,0,0,,,,,,,COOKER,HB,m,y,./images/COOKERHB.png,,,,,,,m,1,0.896,,,,,,,,0,91,91,69,1
,,,,,,,,,,,,,,,,,198946,18,2022-02-01_16h56.35.921,lexical_decision_task_DD_L2,2021.2.3,MacIntel,62.5,,,,,,,,,,,,0.692,0,,,,,,,,,,,,,,,,,,,,,,,,-0.01375,-0.40875,0,0,0,,,,,,,HAMMER,HB,z,y,./images/HAMMERHB.png,,,,,,,m,0,0.692,,,,,,,,0,92,92,159,1
,,,,,,,,,,,,,,,,,198946,18,2022-02-01_16h56.35.921,lexical_decision_task_DD_L2,2021.2.3,MacIntel,62.5,,,,,,,,,,,,1.094,1,,,,,,,,,,,,,,,,,,,,,,,,-0.01375,-0.40875,0,0,0,,,,,,,JELLY,LB,m,y,./images/JELLYLB.png,,,,,,,m,1,1.094,,,,,,,,0,93,93,64,1
,,,,,,,,,,,,,,,,,198946,18,2022-02-01_16h56.35.921,lexical_decision_task_DD_L2,2021.2.3,MacIntel,62.5,,,,,,,,,,,,0.719,1,,,,,,,,,,,,,,,,,,,,,,,,-0.01375,-0.40875,0,0,0,,,,,,,CHAIN,HB,z,y,./images/CHAINHB.png,,,,,,,z,1,0.719,,,,,,,,0,94,94,126,1
,,,,,,,,,,,,,,,,,198946,18,2022-02-01_16h56.35.921,lexical_decision_task_DD_L2,2021.2.3,MacIntel,62.5,,,,,,,,,,,,0.746,1,,,,,,,,,,,,,,,,,,,,,,,,-0.01375,-0.40875,0,0,0,,,,,,,TORCH,C,m,y,./images/TORCH.png,,,,,,,m,1,0.746,,,,,,,,0,95,95,68,1
,,,,,,,,,,,,,,,,,198946,18,2022-02-01_16h56.35.921,lexical_decision_task_DD_L2,2021.2.3,MacIntel,62.5,,,,,,,,,,,,0.746,1,,,,,,,,,,,,,,,,,,,,,,,,-0.01375,-0.40875,0,0,0,,,,,,,BUNNY,LB,z,y,./images/BUNNYLB.png,,,,,,,z,1,0.746,,,,,,,,0,96,96,97,1
,,,,,,,,,,,,,,,,,198946,18,2022-02-01_16h56.35.921,lexical_decision_task_DD_L2,2021.2.3,MacIntel,62.5,,,,,,,,,,,,0.85,1,,,,,,,,,,,,,,,,,,,,,,,,-0.01375,-0.40875,0,0,0,,,,,,,FINGER,HB,m,y,./images/FINGERHB.png,,,,,,,m,1,0.85,,,,,,,,0,97,97,3,1
,,,,,,,,,,,,,,,,,198946,18,2022-02-01_16h56.35.921,lexical_decision_task_DD_L2,2021.2.3,MacIntel,62.5,,,,,,,,,,,,0.615,0,,,,,,,,,,,,,,,,,,,,,,,,-0.01375,-0.40875,0,0,0,,,,,,,WAGON,LB,z,y,./images/WAGONLB.png,,,,,,,m,0,0.615,,,,,,,,0,98,98,91,1
,,,,,,,,,,,,,,,,,198946,18,2022-02-01_16h56.35.921,lexical_decision_task_DD_L2,2021.2.3,MacIntel,62.5,,,,,,,,,,,,0.559,1,,,,,,,,,,,,,,,,,,,,,,,,-0.01375,-0.40875,0,0,0,,,,,,,PICKLE,C,m,y,./images/PICKLE.png,,,,,,,m,1,0.559,,,,,,,,0,99,99,14,1
,,,,,,,,,,,,,,,,,198946,18,2022-02-01_16h56.35.921,lexical_decision_task_DD_L2,2021.2.3,MacIntel,62.5,,,,,,,,,,,,0.549,1,,,,,,,,,,,,,,,,,,,,,,,,-0.01375,-0.40875,0,0,0,,,,,,,BEARD,C,m,y,./images/BEARD.png,,,,,,,m,1,0.549,,,,,,,,0,100,100,2,1
,,,,,,,,,,,,,,,,,198946,18,2022-02-01_16h56.35.921,lexical_decision_task_DD_L2,2021.2.3,MacIntel,62.5,,,,,,,,,,,,0.797,0,,,,,,,,,,,,,,,,,,,,,,,,-0.01375,-0.40875,0,0,0,,,,,,,SNACK,LB,m,y,./images/SNACKLB.png,,,,,,,z,0,0.797,,,,,,,,0,101,101,73,1
,,,,,,,,,,,,,,,,,198946,18,2022-02-01_16h56.35.921,lexical_decision_task_DD_L2,2021.2.3,MacIntel,62.5,,,,,,,,,,,,0.725,1,,,,,,,,,,,,,,,,,,,,,,,,-0.01375,-0.40875,0,0,0,,,,,,,NOOSE,HB,m,y,./images/NOOSEHB.png,,,,,,,m,1,0.725,,,,,,,,0,102,102,72,1
,,,,,,,,,,,,,,,,,198946,18,2022-02-01_16h56.35.921,lexical_decision_task_DD_L2,2021.2.3,MacIntel,62.5,,,,,,,,,,,,0.528,1,,,,,,,,,,,,,,,,,,,,,,,,-0.01375,-0.40875,0,0,0,,,,,,,CEMENT,C,m,y,./images/CEMENT.png,,,,,,,m,1,0.528,,,,,,,,0,103,103,74,1
,,,,,,,,,,,,,,,,,198946,18,2022-02-01_16h56.35.921,lexical_decision_task_DD_L2,2021.2.3,MacIntel,62.5,,,,,,,,,,,,0.714,1,,,,,,,,,,,,,,,,,,,,,,,,-0.01375,-0.40875,0,0,0,,,,,,,DANCER,HB,z,y,./images/DANCERHB.png,,,,,,,z,1,0.714,,,,,,,,0,104,104,105,1
,,,,,,,,,,,,,,,,,198946,18,2022-02-01_16h56.35.921,lexical_decision_task_DD_L2,2021.2.3,MacIntel,62.5,,,,,,,,,,,,0.682,1,,,,,,,,,,,,,,,,,,,,,,,,-0.01375,-0.40875,0,0,0,,,,,,,MEDAL,C,z,y,./images/MEDAL.png,,,,,,,z,1,0.682,,,,,,,,0,105,105,95,1
,,,,,,,,,,,,,,,,,198946,18,2022-02-01_16h56.35.921,lexical_decision_task_DD_L2,2021.2.3,MacIntel,62.5,,,,,,,,,,,,0.732,1,,,,,,,,,,,,,,,,,,,,,,,,-0.01375,-0.40875,0,0,0,,,,,,,PENCE,LB,m,y,./images/PENCELB.png,,,,,,,m,1,0.732,,,,,,,,0,106,106,16,1
,,,,,,,,,,,,,,,,,198946,18,2022-02-01_16h56.35.921,lexical_decision_task_DD_L2,2021.2.3,MacIntel,62.5,,,,,,,,,,,,0.765,1,,,,,,,,,,,,,,,,,,,,,,,,-0.01375,-0.40875,0,0,0,,,,,,,STREAM,C,z,y,./images/STREAM.png,,,,,,,z,1,0.765,,,,,,,,0,107,107,125,1
,,,,,,,,,,,,,,,,,198946,18,2022-02-01_16h56.35.921,lexical_decision_task_DD_L2,2021.2.3,MacIntel,62.5,,,,,,,,,,,,0.63,1,,,,,,,,,,,,,,,,,,,,,,,,-0.01375,-0.40875,0,0,0,,,,,,,JUNGLE,C,m,y,./images/JUNGLE.png,,,,,,,m,1,0.63,,,,,,,,0,108,108,83,1
,,,,,,,,,,,,,,,,,198946,18,2022-02-01_16h56.35.921,lexical_decision_task_DD_L2,2021.2.3,MacIntel,62.5,,,,,,,,,,,,0.662,1,,,,,,,,,,,,,,,,,,,,,,,,-0.01375,-0.40875,0,0,0,,,,,,,STEAK,LB,z,y,./images/STEAKLB.png,,,,,,,z,1,0.662,,,,,,,,0,109,109,115,1
,,,,,,,,,,,,,,,,,198946,18,2022-02-01_16h56.35.921,lexical_decision_task_DD_L2,2021.2.3,MacIntel,62.5,,,,,,,,,,,,0.606,1,,,,,,,,,,,,,,,,,,,,,,,,-0.01375,-0.40875,0,0,0,,,,,,,SHORE,HB,m,y,./images/SHOREHB.png,,,,,,,m,1,0.606,,,,,,,,0,110,110,12,1
,,,,,,,,,,,,,,,,,198946,18,2022-02-01_16h56.35.921,lexical_decision_task_DD_L2,2021.2.3,MacIntel,62.5,,,,,,,,,,,,0.63,0,,,,,,,,,,,,,,,,,,,,,,,,-0.01375,-0.40875,0,0,0,,,,,,,CLOUD,C,z,y,./images/CLOUD.png,,,,,,,m,0,0.63,,,,,,,,0,111,111,110,1
,,,,,,,,,,,,,,,,,198946,18,2022-02-01_16h56.35.921,lexical_decision_task_DD_L2,2021.2.3,MacIntel,62.5,,,,,,,,,,,,0.684,1,,,,,,,,,,,,,,,,,,,,,,,,-0.01375,-0.40875,0,0,0,,,,,,,CURRY,HB,z,y,./images/CURRYHB.png,,,,,,,z,1,0.684,,,,,,,,0,112,112,144,1
,,,,,,,,,,,,,,,,,198946,18,2022-02-01_16h56.35.921,lexical_decision_task_DD_L2,2021.2.3,MacIntel,62.5,,,,,,,,,,,,0.648,1,,,,,,,,,,,,,,,,,,,,,,,,-0.01375,-0.40875,0,0,0,,,,,,,TWINS,HB,m,y,./images/TWINSHB.png,,,,,,,m,1,0.648,,,,,,,,0,113,113,60,1
,,,,,,,,,,,,,,,,,198946,18,2022-02-01_16h56.35.921,lexical_decision_task_DD_L2,2021.2.3,MacIntel,62.5,,,,,,,,,,,,0.692,1,,,,,,,,,,,,,,,,,,,,,,,,-0.01375,-0.40875,0,0,0,,,,,,,TIGER,LB,z,y,./images/TIGERLB.png,,,,,,,z,1,0.692,,,,,,,,0,114,114,121,1
,,,,,,,,,,,,,,,,,198946,18,2022-02-01_16h56.35.921,lexical_decision_task_DD_L2,2021.2.3,MacIntel,62.5,,,,,,,,,,,,0.646,1,,,,,,,,,,,,,,,,,,,,,,,,-0.01375,-0.40875,0,0,0,,,,,,,PEACH,C,m,y,./images/PEACH.png,,,,,,,m,1,0.646,,,,,,,,0,115,115,35,1
,,,,,,,,,,,,,,,,,198946,18,2022-02-01_16h56.35.921,lexical_decision_task_DD_L2,2021.2.3,MacIntel,62.5,,,,,,,,,,,,0.714,1,,,,,,,,,,,,,,,,,,,,,,,,-0.01375,-0.40875,0,0,0,,,,,,,SCREW,HB,m,y,./images/SCREWHB.png,,,,,,,m,1,0.714,,,,,,,,0,116,116,24,1
,,,,,,,,,,,,,,,,,198946,18,2022-02-01_16h56.35.921,lexical_decision_task_DD_L2,2021.2.3,MacIntel,62.5,,,,,,,,,,,,0.87,1,,,,,,,,,,,,,,,,,,,,,,,,-0.01375,-0.40875,0,0,0,,,,,,,DESERT,LB,z,y,./images/DESERTLB.png,,,,,,,z,1,0.87,,,,,,,,0,117,117,136,1
,,,,,,,,,,,,,,,,,198946,18,2022-02-01_16h56.35.921,lexical_decision_task_DD_L2,2021.2.3,MacIntel,62.5,,,,,,,,,,,,0.641,1,,,,,,,,,,,,,,,,,,,,,,,,-0.01375,-0.40875,0,0,0,,,,,,,BANANA,LB,z,y,./images/BANANALB.png,,,,,,,z,1,0.641,,,,,,,,0,118,118,154,1
,,,,,,,,,,,,,,,,,198946,18,2022-02-01_16h56.35.921,lexical_decision_task_DD_L2,2021.2.3,MacIntel,62.5,,,,,,,,,,,,0.517,1,,,,,,,,,,,,,,,,,,,,,,,,-0.01375,-0.40875,0,0,0,,,,,,,MOOSE,HB,m,y,./images/MOOSEHB.png,,,,,,,m,1,0.517,,,,,,,,0,119,119,57,1
,,,,,,,,,,,,,,,,,198946,18,2022-02-01_16h56.35.921,lexical_decision_task_DD_L2,2021.2.3,MacIntel,62.5,,,,,,,,,,,,0.647,1,,,,,,,,,,,,,,,,,,,,,,,,-0.01375,-0.40875,0,0,0,,,,,,,JAGUAR,HB,m,y,./images/JAGUARHB.png,,,,,,,m,1,0.647,,,,,,,,0,120,120,18,1
,,,,,,,,,,,,,,,,,198946,18,2022-02-01_16h56.35.921,lexical_decision_task_DD_L2,2021.2.3,MacIntel,62.5,,,,,,,,,,,,0.829,0,,,,,,,,,,,,,,,,,,,,,,,,-0.01375,-0.40875,0,0,0,,,,,,,PLANK,LB,m,y,./images/PLANKLB.png,,,,,,,z,0,0.829,,,,,,,,0,121,121,1,1
,,,,,,,,,,,,,,,,,198946,18,2022-02-01_16h56.35.921,lexical_decision_task_DD_L2,2021.2.3,MacIntel,62.5,,,,,,,,,,,,0.692,1,,,,,,,,,,,,,,,,,,,,,,,,-0.01375,-0.40875,0,0,0,,,,,,,CLOWN,LB,z,y,./images/CLOWNLB.png,,,,,,,z,1,0.692,,,,,,,,0,122,122,106,1
,,,,,,,,,,,,,,,,,198946,18,2022-02-01_16h56.35.921,lexical_decision_task_DD_L2,2021.2.3,MacIntel,62.5,,,,,,,,,,,,0.541,1,,,,,,,,,,,,,,,,,,,,,,,,-0.01375,-0.40875,0,0,0,,,,,,,BROOM,HB,z,y,./images/BROOMHB.png,,,,,,,z,1,0.541,,,,,,,,0,123,123,162,1
,,,,,,,,,,,,,,,,,198946,18,2022-02-01_16h56.35.921,lexical_decision_task_DD_L2,2021.2.3,MacIntel,62.5,,,,,,,,,,,,0.647,1,,,,,,,,,,,,,,,,,,,,,,,,-0.01375,-0.40875,0,0,0,,,,,,,BURIAL,C,m,y,./images/BURIAL.png,,,,,,,m,1,0.647,,,,,,,,0,124,124,59,1
,,,,,,,,,,,,,,,,,198946,18,2022-02-01_16h56.35.921,lexical_decision_task_DD_L2,2021.2.3,MacIntel,62.5,,,,,,,,,,,,0.574,1,,,,,,,,,,,,,,,,,,,,,,,,-0.01375,-0.40875,0,0,0,space,,,,,,SAUNA,HB,z,y,./images/SAUNAHB.png,0.977,,,,,,z,1,0.574,,,,,,,,0,125,125,117,1
,,,,,,,,,,,,,,,,,198946,18,2022-02-01_16h56.35.921,lexical_decision_task_DD_L2,2021.2.3,MacIntel,62.5,,,,,,,,,,,,0.729,1,,,,,,,,,,,,,,,,,,,,,,,,-0.01375,-0.40875,0,0,0,,,,,,,SLOPE,HB,z,y,./images/SLOPEHB.png,,,,,,,z,1,0.729,,,,,,,,0,126,126,114,1
,,,,,,,,,,,,,,,,,198946,18,2022-02-01_16h56.35.921,lexical_decision_task_DD_L2,2021.2.3,MacIntel,62.5,,,,,,,,,,,,0.597,1,,,,,,,,,,,,,,,,,,,,,,,,-0.01375,-0.40875,0,0,0,,,,,,,PURSE,C,m,y,./images/PURSE.png,,,,,,,m,1,0.597,,,,,,,,0,127,127,62,1
,,,,,,,,,,,,,,,,,198946,18,2022-02-01_16h56.35.921,lexical_decision_task_DD_L2,2021.2.3,MacIntel,62.5,,,,,,,,,,,,0.698,1,,,,,,,,,,,,,,,,,,,,,,,,-0.01375,-0.40875,0,0,0,,,,,,,SHELF,HB,m,y,./images/SHELFHB.png,,,,,,,m,1,0.698,,,,,,,,0,128,128,39,1
,,,,,,,,,,,,,,,,,198946,18,2022-02-01_16h56.35.921,lexical_decision_task_DD_L2,2021.2.3,MacIntel,62.5,,,,,,,,,,,,0.598,0,,,,,,,,,,,,,,,,,,,,,,,,-0.01375,-0.40875,0,0,0,,,,,,,WHEEL,C,z,y,./images/WHEEL.png,,,,,,,m,0,0.598,,,,,,,,0,129,129,161,1
,,,,,,,,,,,,,,,,,198946,18,2022-02-01_16h56.35.921,lexical_decision_task_DD_L2,2021.2.3,MacIntel,62.5,,,,,,,,,,,,0.574,1,,,,,,,,,,,,,,,,,,,,,,,,-0.01375,-0.40875,0,0,0,,,,,,,MALLET,C,m,y,./images/MALLET.png,,,,,,,m,1,0.574,,,,,,,,0,130,130,50,1
,,,,,,,,,,,,,,,,,198946,18,2022-02-01_16h56.35.921,lexical_decision_task_DD_L2,2021.2.3,MacIntel,62.5,,,,,,,,,,,,0.82,0,,,,,,,,,,,,,,,,,,,,,,,,-0.01375,-0.40875,0,0,0,,,,,,,FLASK,HB,z,y,./images/FLASKHB.png,,,,,,,m,0,0.82,,,,,,,,0,131,131,156,1
,,,,,,,,,,,,,,,,,198946,18,2022-02-01_16h56.35.921,lexical_decision_task_DD_L2,2021.2.3,MacIntel,62.5,,,,,,,,,,,,0.691,0,,,,,,,,,,,,,,,,,,,,,,,,-0.01375,-0.40875,0,0,0,,,,,,,SWEAT,HB,m,y,./images/SWEATHB.png,,,,,,,z,0,0.691,,,,,,,,0,132,132,66,1
,,,,,,,,,,,,,,,,,198946,18,2022-02-01_16h56.35.921,lexical_decision_task_DD_L2,2021.2.3,MacIntel,62.5,,,,,,,,,,,,0.725,1,,,,,,,,,,,,,,,,,,,,,,,,-0.01375,-0.40875,0,0,0,,,,,,,FERRY,HB,z,y,./images/FERRYHB.png,,,,,,,z,1,0.725,,,,,,,,0,133,133,141,1
,,,,,,,,,,,,,,,,,198946,18,2022-02-01_16h56.35.921,lexical_decision_task_DD_L2,2021.2.3,MacIntel,62.5,,,,,,,,,,,,0.573,1,,,,,,,,,,,,,,,,,,,,,,,,-0.01375,-0.40875,0,0,0,,,,,,,CANDLE,LB,m,y,./images/CANDLELB.png,,,,,,,m,1,0.573,,,,,,,,0,134,134,61,1
,,,,,,,,,,,,,,,,,198946,18,2022-02-01_16h56.35.921,lexical_decision_task_DD_L2,2021.2.3,MacIntel,62.5,,,,,,,,,,,,0.581,1,,,,,,,,,,,,,,,,,,,,,,,,-0.01375,-0.40875,0,0,0,,,,,,,STAIN,HB,z,y,./images/STAINHB.png,,,,,,,z,1,0.581,,,,,,,,0,135,135,90,1
,,,,,,,,,,,,,,,,,198946,18,2022-02-01_16h56.35.921,lexical_decision_task_DD_L2,2021.2.3,MacIntel,62.5,,,,,,,,,,,,0.974,1,,,,,,,,,,,,,,,,,,,,,,,,-0.01375,-0.40875,0,0,0,,,,,,,DRILL,HB,z,y,./images/DRILLHB.png,,,,,,,z,1,0.974,,,,,,,,0,136,136,165,1
,,,,,,,,,,,,,,,,,198946,18,2022-02-01_16h56.35.921,lexical_decision_task_DD_L2,2021.2.3,MacIntel,62.5,,,,,,,,,,,,0.658,1,,,,,,,,,,,,,,,,,,,,,,,,-0.01375,-0.40875,0,0,0,,,,,,,CANYON,LB,m,y,./images/CANYONLB.png,,,,,,,m,1,0.658,,,,,,,,0,137,137,34,1
,,,,,,,,,,,,,,,,,198946,18,2022-02-01_16h56.35.921,lexical_decision_task_DD_L2,2021.2.3,MacIntel,62.5,,,,,,,,,,,,0.618,1,,,,,,,,,,,,,,,,,,,,,,,,-0.01375,-0.40875,0,0,0,,,,,,,LIZARD,C,m,y,./images/LIZARD.png,,,,,,,m,1,0.618,,,,,,,,0,138,138,44,1
,,,,,,,,,,,,,,,,,198946,18,2022-02-01_16h56.35.921,lexical_decision_task_DD_L2,2021.2.3,MacIntel,62.5,,,,,,,,,,,,0.663,1,,,,,,,,,,,,,,,,,,,,,,,,-0.01375,-0.40875,0,0,0,,,,,,,ATTIC,HB,m,y,./images/ATTICHB.png,,,,,,,m,1,0.663,,,,,,,,0,139,139,27,1
,,,,,,,,,,,,,,,,,198946,18,2022-02-01_16h56.35.921,lexical_decision_task_DD_L2,2021.2.3,MacIntel,62.5,,,,,,,,,,,,0.564,1,,,,,,,,,,,,,,,,,,,,,,,,-0.01375,-0.40875,0,0,0,,,,,,,STORM,HB,m,y,./images/STORMHB.png,,,,,,,m,1,0.564,,,,,,,,0,140,140,30,1
,,,,,,,,,,,,,,,,,198946,18,2022-02-01_16h56.35.921,lexical_decision_task_DD_L2,2021.2.3,MacIntel,62.5,,,,,,,,,,,,0.575,1,,,,,,,,,,,,,,,,,,,,,,,,-0.01375,-0.40875,0,0,0,,,,,,,SQUARE,HB,m,y,./images/SQUAREHB.png,,,,,,,m,1,0.575,,,,,,,,0,141,141,6,1
,,,,,,,,,,,,,,,,,198946,18,2022-02-01_16h56.35.921,lexical_decision_task_DD_L2,2021.2.3,MacIntel,62.5,,,,,,,,,,,,0.638,1,,,,,,,,,,,,,,,,,,,,,,,,-0.01375,-0.40875,0,0,0,,,,,,,VALLEY,C,z,y,./images/VALLEY.png,,,,,,,z,1,0.638,,,,,,,,0,142,142,152,1
,,,,,,,,,,,,,,,,,198946,18,2022-02-01_16h56.35.921,lexical_decision_task_DD_L2,2021.2.3,MacIntel,62.5,,,,,,,,,,,,0.68,1,,,,,,,,,,,,,,,,,,,,,,,,-0.01375,-0.40875,0,0,0,,,,,,,CANDY,HB,z,y,./images/CANDYHB.png,,,,,,,z,1,0.68,,,,,,,,0,143,143,123,1
,,,,,,,,,,,,,,,,,198946,18,2022-02-01_16h56.35.921,lexical_decision_task_DD_L2,2021.2.3,MacIntel,62.5,,,,,,,,,,,,0.715,1,,,,,,,,,,,,,,,,,,,,,,,,-0.01375,-0.40875,0,0,0,,,,,,,SWING,LB,m,y,./images/SWINGLB.png,,,,,,,m,1,0.715,,,,,,,,0,144,144,40,1
,,,,,,,,,,,,,,,,,198946,18,2022-02-01_16h56.35.921,lexical_decision_task_DD_L2,2021.2.3,MacIntel,62.5,,,,,,,,,,,,0.895,1,,,,,,,,,,,,,,,,,,,,,,,,-0.01375,-0.40875,0,0,0,,,,,,,PISTOL,C,z,y,./images/PISTOL.png,,,,,,,z,1,0.895,,,,,,,,0,145,145,113,1
,,,,,,,,,,,,,,,,,198946,18,2022-02-01_16h56.35.921,lexical_decision_task_DD_L2,2021.2.3,MacIntel,62.5,,,,,,,,,,,,1.032,1,,,,,,,,,,,,,,,,,,,,,,,,-0.01375,-0.40875,0,0,0,,,,,,,STOOL,LB,z,y,./images/STOOLLB.png,,,,,,,z,1,1.032,,,,,,,,0,146,146,127,1
,,,,,,,,,,,,,,,,,198946,18,2022-02-01_16h56.35.921,lexical_decision_task_DD_L2,2021.2.3,MacIntel,62.5,,,,,,,,,,,,0.63,1,,,,,,,,,,,,,,,,,,,,,,,,-0.01375,-0.40875,0,0,0,,,,,,,TULIP,C,m,y,./images/TULIP.png,,,,,,,m,1,0.63,,,,,,,,0,147,147,8,1
,,,,,,,,,,,,,,,,,198946,18,2022-02-01_16h56.35.921,lexical_decision_task_DD_L2,2021.2.3,MacIntel,62.5,,,,,,,,,,,,0.723,0,,,,,,,,,,,,,,,,,,,,,,,,-0.01375,-0.40875,0,0,0,,,,,,,WHISKY,C,z,y,./images/WHISKY.png,,,,,,,m,0,0.723,,,,,,,,0,148,148,167,1
,,,,,,,,,,,,,,,,,198946,18,2022-02-01_16h56.35.921,lexical_decision_task_DD_L2,2021.2.3,MacIntel,62.5,,,,,,,,,,,,0.629,1,,,,,,,,,,,,,,,,,,,,,,,,-0.01375,-0.40875,0,0,0,,,,,,,PLANET,C,z,y,./images/PLANET.png,,,,,,,z,1,0.629,,,,,,,,0,149,149,164,1
,,,,,,,,,,,,,,,,,198946,18,2022-02-01_16h56.35.921,lexical_decision_task_DD_L2,2021.2.3,MacIntel,62.5,,,,,,,,,,,,0.59,1,,,,,,,,,,,,,,,,,,,,,,,,-0.01375,-0.40875,0,0,0,,,,,,,MIRROR,HB,m,y,./images/MIRRORHB.png,,,,,,,m,1,0.59,,,,,,,,0,150,150,63,1
,,,,,,,,,,,,,,,,,198946,18,2022-02-01_16h56.35.921,lexical_decision_task_DD_L2,2021.2.3,MacIntel,62.5,,,,,,,,,,,,0.619,1,,,,,,,,,,,,,,,,,,,,,,,,-0.01375,-0.40875,0,0,0,,,,,,,BONNET,C,m,y,./images/BONNET.png,,,,,,,m,1,0.619,,,,,,,,0,151,151,11,1
,,,,,,,,,,,,,,,,,198946,18,2022-02-01_16h56.35.921,lexical_decision_task_DD_L2,2021.2.3,MacIntel,62.5,,,,,,,,,,,,1.426,1,,,,,,,,,,,,,,,,,,,,,,,,-0.01375,-0.40875,0,0,0,,,,,,,CLIFF,C,z,y,./images/CLIFF.png,,,,,,,z,1,1.426,,,,,,,,0,152,152,92,1
,,,,,,,,,,,,,,,,,198946,18,2022-02-01_16h56.35.921,lexical_decision_task_DD_L2,2021.2.3,MacIntel,62.5,,,,,,,,,,,,0.579,1,,,,,,,,,,,,,,,,,,,,,,,,-0.01375,-0.40875,0,0,0,,,,,,,RULER,LB,z,y,./images/RULERLB.png,,,,,,,z,1,0.579,,,,,,,,0,153,153,163,1
,,,,,,,,,,,,,,,,,198946,18,2022-02-01_16h56.35.921,lexical_decision_task_DD_L2,2021.2.3,MacIntel,62.5,,,,,,,,,,,,0.631,1,,,,,,,,,,,,,,,,,,,,,,,,-0.01375,-0.40875,0,0,0,,,,,,,MONKEY,HB,z,y,./images/MONKEYHB.png,,,,,,,z,1,0.631,,,,,,,,0,154,154,129,1
,,,,,,,,,,,,,,,,,198946,18,2022-02-01_16h56.35.921,lexical_decision_task_DD_L2,2021.2.3,MacIntel,62.5,,,,,,,,,,,,0.532,1,,,,,,,,,,,,,,,,,,,,,,,,-0.01375,-0.40875,0,0,0,,,,,,,PEARL,LB,m,y,./images/PEARLLB.png,,,,,,,m,1,0.532,,,,,,,,0,155,155,46,1
,,,,,,,,,,,,,,,,,198946,18,2022-02-01_16h56.35.921,lexical_decision_task_DD_L2,2021.2.3,MacIntel,62.5,,,,,,,,,,,,0.979,0,,,,,,,,,,,,,,,,,,,,,,,,-0.01375,-0.40875,0,0,0,,,,,,,STRING,C,m,y,./images/STRING.png,,,,,,,z,0,0.979,,,,,,,,0,156,156,41,1
,,,,,,,,,,,,,,,,,198946,18,2022-02-01_16h56.35.921,lexical_decision_task_DD_L2,2021.2.3,MacIntel,62.5,,,,,,,,,,,,0.682,1,,,,,,,,,,,,,,,,,,,,,,,,-0.01375,-0.40875,0,0,0,,,,,,,BUTTER,HB,z,y,./images/BUTTERHB.png,,,,,,,z,1,0.682,,,,,,,,0,157,157,111,1
,,,,,,,,,,,,,,,,,198946,18,2022-02-01_16h56.35.921,lexical_decision_task_DD_L2,2021.2.3,MacIntel,62.5,,,,,,,,,,,,0.549,1,,,,,,,,,,,,,,,,,,,,,,,,-0.01375,-0.40875,0,0,0,,,,,,,TOWEL,LB,z,y,./images/TOWELLB.png,,,,,,,z,1,0.549,,,,,,,,0,158,158,85,1
,,,,,,,,,,,,,,,,,198946,18,2022-02-01_16h56.35.921,lexical_decision_task_DD_L2,2021.2.3,MacIntel,62.5,,,,,,,,,,,,1.046,0,,,,,,,,,,,,,,,,,,,,,,,,-0.01375,-0.40875,0,0,0,,,,,,,GRAPE,LB,z,y,./images/GRAPELB.png,,,,,,,m,0,1.046,,,,,,,,0,159,159,100,1
,,,,,,,,,,,,,,,,,198946,18,2022-02-01_16h56.35.921,lexical_decision_task_DD_L2,2021.2.3,MacIntel,62.5,,,,,,,,,,,,0.638,1,,,,,,,,,,,,,,,,,,,,,,,,-0.01375,-0.40875,0,0,0,,,,,,,COLLAR,HB,z,y,./images/COLLARHB.png,,,,,,,z,1,0.638,,,,,,,,0,160,160,99,1
,,,,,,,,,,,,,,,,,198946,18,2022-02-01_16h56.35.921,lexical_decision_task_DD_L2,2021.2.3,MacIntel,62.5,,,,,,,,,,,,1.148,1,,,,,,,,,,,,,,,,,,,,,,,,-0.01375,-0.40875,0,0,0,,,,,,,STATUE,HB,z,y,./images/STATUEHB.png,,,,,,,z,1,1.148,,,,,,,,0,161,161,150,1
,,,,,,,,,,,,,,,,,198946,18,2022-02-01_16h56.35.921,lexical_decision_task_DD_L2,2021.2.3,MacIntel,62.5,,,,,,,,,,,,1.372,1,,,,,,,,,,,,,,,,,,,,,,,,-0.01375,-0.40875,0,0,0,,,,,,,RHINO,HB,m,y,./images/RHINOHB.png,,,,,,,m,1,1.372,,,,,,,,0,162,162,9,1
,,,,,,,,,,,,,,,,,198946,18,2022-02-01_16h56.35.921,lexical_decision_task_DD_L2,2021.2.3,MacIntel,62.5,,,,,,,,,,,,0.577,1,,,,,,,,,,,,,,,,,,,,,,,,-0.01375,-0.40875,0,0,0,,,,,,,CRUST,LB,m,y,./images/CRUSTLB.png,,,,,,,m,1,0.577,,,,,,,,0,163,163,79,1
,,,,,,,,,,,,,,,,,198946,18,2022-02-01_16h56.35.921,lexical_decision_task_DD_L2,2021.2.3,MacIntel,62.5,,,,,,,,,,,,0.642,0,,,,,,,,,,,,,,,,,,,,,,,,-0.01375,-0.40875,0,0,0,,,,,,,PAINT,LB,m,y,./images/PAINTLB.png,,,,,,,z,0,0.642,,,,,,,,0,164,164,7,1
,,,,,,,,,,,,,,,,,198946,18,2022-02-01_16h56.35.921,lexical_decision_task_DD_L2,2021.2.3,MacIntel,62.5,,,,,,,,,,,,1.44,1,,,,,,,,,,,,,,,,,,,,,,,,-0.01375,-0.40875,0,0,0,,,,,,,FARMER,C,m,y,./images/FARMER.png,,,,,,,m,1,1.44,,,,,,,,0,165,165,65,1
,,,,,,,,,,,,,,,,,198946,18,2022-02-01_16h56.35.921,lexical_decision_task_DD_L2,2021.2.3,MacIntel,62.5,,,,,,,,,,,,0.561,1,,,,,,,,,,,,,,,,,,,,,,,,-0.01375,-0.40875,0,0,0,,,,,,,CASINO,LB,z,y,./images/CASINOLB.png,,,,,,,z,1,0.561,,,,,,,,0,166,166,112,1
,,,,,,,,,,,,,,,,,198946,18,2022-02-01_16h56.35.921,lexical_decision_task_DD_L2,2021.2.3,MacIntel,62.5,,,,,,,,,,,,0.742,1,,,,,,,,,,,,,,,,,,,,,,,,-0.01375,-0.40875,0,0,0,,,,,,,MUMMY,LB,z,y,./images/MUMMYLB.png,,,,,,,z,1,0.742,,,,,,,,0,167,167,130,1
