key_resp.keys,instr_done_touch.x,instr_done_touch.y,instr_done_touch.leftButton,instr_done_touch.midButton,instr_done_touch.rightButton,instr_done_touch.clicked_name,instruction_pages.thisRepN,instruction_pages.thisTrialN,instruction_pages.thisN,instruction_pages.thisIndex,instruction_pages.ran,pageN,phase,instruct_text,has_image,instruct_image,participant,age,date,expName,psychopyVersion,OS,frameRate,response.keys,response.corr,response.rt,touch_resp.x,touch_resp.y,touch_resp.leftButton,touch_resp.midButton,touch_resp.rightButton,touch_resp.time,touch_resp.clicked_name,rt,corr,practrials.thisRepN,practrials.thisTrialN,practrials.thisN,practrials.thisIndex,practrials.ran,TrialID,Target,corrAns,end_of_practice_trials_pages.thisRepN,end_of_practice_trials_pages.thisTrialN,end_of_practice_trials_pages.thisN,end_of_practice_trials_pages.thisIndex,end_of_practice_trials_pages.ran,key_resp_2.keys,key_resp_2.corr,key_resp_2.rt,targ_click.x,targ_click.y,targ_click.leftButton,targ_click.midButton,targ_click.rightButton,targ_click.time,targ_click.clicked_name,break_done_touch.x,break_done_touch.y,break_done_touch.leftButton,break_done_touch.midButton,break_done_touch.rightButton,break_done_keyboard.keys,maintrials.thisRepN,maintrials.thisTrialN,maintrials.thisN,maintrials.thisIndex,maintrials.ran,string,blur,study,lex,stim_path,break_done_keyboard.rt,key_resp.rt,test_instructions.thisRepN,test_instructions.thisTrialN,test_instructions.thisN,test_instructions.thisIndex,test_instructions.ran,key_resp_3.keys,key_resp_3.corr,key_resp_3.rt,test_click.x,test_click.y,test_click.leftButton,test_click.midButton,test_click.rightButton,test_click.time,test_click.clicked_name,test_phase.thisRepN,test_phase.thisTrialN,test_phase.thisN,test_phase.thisIndex,test_phase.ran
,0.021296296,-0.375925926,1,0,0,instr_done_button,0,0,0,0,1,1,instructions,"INSTRUCTIONS
At the start of each trial, look at the plus sign  (+) in the center of the screen.  This tells you that a trial is about to begin and where to look. Second, the plus sign will disappear and a string of letters will appear. Your task is to determine if the string of letters is a word or not. If the item is a word press the M key (on keyboard)  or touch the word button (phone/tablet).  If the item is not a word,  press the  Z key (on keyboard)  or touch the nonword button (on phone/tablet). 
Press the space bar or touch  continue.",0,,198907,18,2022-01-28_14h30.08.352,lexical_decision_task_DD_L3,2021.2.3,Win32,84.91847826,,,,,,,,,,,,,,,,,,,,,,,,,,,,,,,,,,,,,,,,,,,,,,,,,,,,,,,,,,,,,,,,,,,,,,,,,
,0.021296296,-0.375925926,1,0,0,instr_done_button,0,1,1,1,1,2,instructions,"If your device has a keyboard, press the 'Z' key for nonwords and the 'M' key for words.





Press the space bar or touch the button below to continue.",0,keyboard-example.gif,198907,18,2022-01-28_14h30.08.352,lexical_decision_task_DD_L3,2021.2.3,Win32,84.91847826,,,,,,,,,,,,,,,,,,,,,,,,,,,,,,,,,,,,,,,,,,,,,,,,,,,,,,,,,,,,,,,,,,,,,,,,,
,0.021296296,-0.375925926,1,0,0,instr_done_button,0,2,2,2,1,3,instructions,"If you are using a touchscreen only device, use the buttons on the screen. Do not use the mouse.





Press the space bar or touch the button below to continue.",0,touchscreen-example.gif,198907,18,2022-01-28_14h30.08.352,lexical_decision_task_DD_L3,2021.2.3,Win32,84.91847826,,,,,,,,,,,,,,,,,,,,,,,,,,,,,,,,,,,,,,,,,,,,,,,,,,,,,,,,,,,,,,,,,,,,,,,,,
,0.021296296,-0.375925926,1,0,0,instr_done_button,0,3,3,3,1,4,instructions,"It is very important that you respond as quickly and accurately as possible, as each letter string will only be on the screen for two seconds. If you do not respond within this time, the message 'Too slow!' will be displayed and the experiment will progress to the next letter string. The first 20 trials will be practice trials and you will receive feedback on your answers. 

Press the space bar or touch the button below to start the practice trials.",0,,198907,18,2022-01-28_14h30.08.352,lexical_decision_task_DD_L3,2021.2.3,Win32,84.91847826,,,,,,,,,,,,,,,,,,,,,,,,,,,,,,,,,,,,,,,,,,,,,,,,,,,,,,,,,,,,,,,,,,,,,,,,,
,,,,,,,,,,,,,,,,,198907,18,2022-01-28_14h30.08.352,lexical_decision_task_DD_L3,2021.2.3,Win32,84.91847826,m,1,1.8692,,,,,,,,1.8692,1,0,0,0,4,1,1001,SQUEAK,m,,,,,,,,,,,,,,,,,,,,,,,,,,,,,,,,,,,,,,,,,,,,,,,,,,,,,
,,,,,,,,,,,,,,,,,198907,18,2022-01-28_14h30.08.352,lexical_decision_task_DD_L3,2021.2.3,Win32,84.91847826,z,1,1.2909,,,,,,,,1.2909,1,0,1,1,10,1,1001,INLADE,z,,,,,,,,,,,,,,,,,,,,,,,,,,,,,,,,,,,,,,,,,,,,,,,,,,,,,
,,,,,,,,,,,,,,,,,198907,18,2022-01-28_14h30.08.352,lexical_decision_task_DD_L3,2021.2.3,Win32,84.91847826,m,1,0.6454,,,,,,,,0.6454,1,0,2,2,3,1,1001,MATRIX,m,,,,,,,,,,,,,,,,,,,,,,,,,,,,,,,,,,,,,,,,,,,,,,,,,,,,,
,,,,,,,,,,,,,,,,,198907,18,2022-01-28_14h30.08.352,lexical_decision_task_DD_L3,2021.2.3,Win32,84.91847826,m,1,0.5647,,,,,,,,0.5647,1,0,3,3,5,1,1001,OBTAIN,m,,,,,,,,,,,,,,,,,,,,,,,,,,,,,,,,,,,,,,,,,,,,,,,,,,,,,
,,,,,,,,,,,,,,,,,198907,18,2022-01-28_14h30.08.352,lexical_decision_task_DD_L3,2021.2.3,Win32,84.91847826,m,1,0.6757,,,,,,,,0.6757,1,0,4,4,0,1,1001,UTOPIA,m,,,,,,,,,,,,,,,,,,,,,,,,,,,,,,,,,,,,,,,,,,,,,,,,,,,,,
,,,,,,,,,,,,,,,,,198907,18,2022-01-28_14h30.08.352,lexical_decision_task_DD_L3,2021.2.3,Win32,84.91847826,m,1,0.548,,,,,,,,0.548,1,0,5,5,7,1,1001,VOLUME,m,,,,,,,,,,,,,,,,,,,,,,,,,,,,,,,,,,,,,,,,,,,,,,,,,,,,,
,,,,,,,,,,,,,,,,,198907,18,2022-01-28_14h30.08.352,lexical_decision_task_DD_L3,2021.2.3,Win32,84.91847826,m,1,0.621,,,,,,,,0.621,1,0,6,6,1,1,1001,ADJUST,m,,,,,,,,,,,,,,,,,,,,,,,,,,,,,,,,,,,,,,,,,,,,,,,,,,,,,
,,,,,,,,,,,,,,,,,198907,18,2022-01-28_14h30.08.352,lexical_decision_task_DD_L3,2021.2.3,Win32,84.91847826,z,1,0.6273,,,,,,,,0.6273,1,0,7,7,11,1,1001,RASHET,z,,,,,,,,,,,,,,,,,,,,,,,,,,,,,,,,,,,,,,,,,,,,,,,,,,,,,
,,,,,,,,,,,,,,,,,198907,18,2022-01-28_14h30.08.352,lexical_decision_task_DD_L3,2021.2.3,Win32,84.91847826,z,1,0.6224,,,,,,,,0.6224,1,0,8,8,14,1,1001,THRALE,z,,,,,,,,,,,,,,,,,,,,,,,,,,,,,,,,,,,,,,,,,,,,,,,,,,,,,
,,,,,,,,,,,,,,,,,198907,18,2022-01-28_14h30.08.352,lexical_decision_task_DD_L3,2021.2.3,Win32,84.91847826,z,1,0.6123,,,,,,,,0.6123,1,0,9,9,15,1,1001,WHAISE,z,,,,,,,,,,,,,,,,,,,,,,,,,,,,,,,,,,,,,,,,,,,,,,,,,,,,,
,,,,,,,,,,,,,,,,,198907,18,2022-01-28_14h30.08.352,lexical_decision_task_DD_L3,2021.2.3,Win32,84.91847826,z,1,0.7589,,,,,,,,0.7589,1,0,10,10,9,1,1001,FARINY,z,,,,,,,,,,,,,,,,,,,,,,,,,,,,,,,,,,,,,,,,,,,,,,,,,,,,,
,,,,,,,,,,,,,,,,,198907,18,2022-01-28_14h30.08.352,lexical_decision_task_DD_L3,2021.2.3,Win32,84.91847826,z,1,0.6356,,,,,,,,0.6356,1,0,11,11,8,1,1001,ASLERT,z,,,,,,,,,,,,,,,,,,,,,,,,,,,,,,,,,,,,,,,,,,,,,,,,,,,,,
,,,,,,,,,,,,,,,,,198907,18,2022-01-28_14h30.08.352,lexical_decision_task_DD_L3,2021.2.3,Win32,84.91847826,z,1,0.6527,,,,,,,,0.6527,1,0,12,12,13,1,1001,ROUPET,z,,,,,,,,,,,,,,,,,,,,,,,,,,,,,,,,,,,,,,,,,,,,,,,,,,,,,
,,,,,,,,,,,,,,,,,198907,18,2022-01-28_14h30.08.352,lexical_decision_task_DD_L3,2021.2.3,Win32,84.91847826,m,1,0.5902,,,,,,,,0.5902,1,0,13,13,6,1,1001,ZOMBIE,m,,,,,,,,,,,,,,,,,,,,,,,,,,,,,,,,,,,,,,,,,,,,,,,,,,,,,
,,,,,,,,,,,,,,,,,198907,18,2022-01-28_14h30.08.352,lexical_decision_task_DD_L3,2021.2.3,Win32,84.91847826,m,1,0.5039,,,,,,,,0.5039,1,0,14,14,2,1,1001,ALMOND,m,,,,,,,,,,,,,,,,,,,,,,,,,,,,,,,,,,,,,,,,,,,,,,,,,,,,,
,,,,,,,,,,,,,,,,,198907,18,2022-01-28_14h30.08.352,lexical_decision_task_DD_L3,2021.2.3,Win32,84.91847826,z,1,0.7137,,,,,,,,0.7137,1,0,15,15,12,1,1001,SPRINY,z,,,,,,,,,,,,,,,,,,,,,,,,,,,,,,,,,,,,,,,,,,,,,,,,,,,,,
,0.011111111,-0.39537037,1,0,0,instr_done_button,,,,,,1,end_of_practice,"You have completed the practice trials. During the experimental trials, you will not receive feedback. 
Before you begin, please ensure that you are in a comfortable and quiet location and will not be disturbed for about 15 minutes, as we cannot use your data if you do not complete all the trials. 
 When you are ready to start the experimental trials, please press space or touch the button below.",,,198907,18,2022-01-28_14h30.08.352,lexical_decision_task_DD_L3,2021.2.3,Win32,84.91847826,,,,,,,,,,,,,,,,,,,,,0,0,0,0,1,,,,,,,,,,,,,,,,,,,,,,,,,,,,,,,,,,,,,,,,,,,,,,,,
,,,,,,,,,,,,,,,,,198907,18,2022-01-28_14h30.08.352,lexical_decision_task_DD_L3,2021.2.3,Win32,84.91847826,,,,,,,,,,,1.2277,0,,,,,,,,,,,,,,m,0,1.2277,,,,,,,,0.018518519,-0.387962963,0,0,0,,0,0,0,88,1,GLUSH,HB,old,z,./images/GLUSHHB.png,,,,,,,,,,,,,,,,,,,,,,
,,,,,,,,,,,,,,,,,198907,18,2022-01-28_14h30.08.352,lexical_decision_task_DD_L3,2021.2.3,Win32,84.91847826,,,,,,,,,,,0.7522,1,,,,,,,,,,,,,,z,1,0.7522,,,,,,,,0.018518519,-0.387962963,0,0,0,,0,1,1,116,1,BALGY,LB,old,z,./images/BALGYLB.png,,,,,,,,,,,,,,,,,,,,,,
,,,,,,,,,,,,,,,,,198907,18,2022-01-28_14h30.08.352,lexical_decision_task_DD_L3,2021.2.3,Win32,84.91847826,,,,,,,,,,,0.5717,1,,,,,,,,,,,,,,m,1,0.5717,,,,,,,,0.018518519,-0.387962963,0,0,0,,0,2,2,77,1,COUCH,HB,old,m,./images/COUCHHB.png,,,,,,,,,,,,,,,,,,,,,,
,,,,,,,,,,,,,,,,,198907,18,2022-01-28_14h30.08.352,lexical_decision_task_DD_L3,2021.2.3,Win32,84.91847826,,,,,,,,,,,0.848,1,,,,,,,,,,,,,,z,1,0.848,,,,,,,,0.018518519,-0.387962963,0,0,0,,0,3,3,136,1,WERVE,HB,old,z,./images/WERVEHB.png,,,,,,,,,,,,,,,,,,,,,,
,,,,,,,,,,,,,,,,,198907,18,2022-01-28_14h30.08.352,lexical_decision_task_DD_L3,2021.2.3,Win32,84.91847826,,,,,,,,,,,0.7936,1,,,,,,,,,,,,,,m,1,0.7936,,,,,,,,0.018518519,-0.387962963,0,0,0,,0,4,4,54,1,TRIPOD,LB,old,m,./images/TRIPODLB.png,,,,,,,,,,,,,,,,,,,,,,
,,,,,,,,,,,,,,,,,198907,18,2022-01-28_14h30.08.352,lexical_decision_task_DD_L3,2021.2.3,Win32,84.91847826,,,,,,,,,,,1.374,1,,,,,,,,,,,,,,m,1,1.374,,,,,,,,0.018518519,-0.387962963,0,0,0,,0,5,5,8,1,TULIP,HB,old,m,./images/TULIPHB.png,,,,,,,,,,,,,,,,,,,,,,
,,,,,,,,,,,,,,,,,198907,18,2022-01-28_14h30.08.352,lexical_decision_task_DD_L3,2021.2.3,Win32,84.91847826,,,,,,,,,,,0.6549,1,,,,,,,,,,,,,,m,1,0.6549,,,,,,,,0.018518519,-0.387962963,0,0,0,,0,6,6,62,1,PURSE,HB,old,m,./images/PURSEHB.png,,,,,,,,,,,,,,,,,,,,,,
,,,,,,,,,,,,,,,,,198907,18,2022-01-28_14h30.08.352,lexical_decision_task_DD_L3,2021.2.3,Win32,84.91847826,,,,,,,,,,,0.6428,1,,,,,,,,,,,,,,z,1,0.6428,,,,,,,,0.018518519,-0.387962963,0,0,0,,0,7,7,87,1,TRING,C,old,z,./images/TRING.png,,,,,,,,,,,,,,,,,,,,,,
,,,,,,,,,,,,,,,,,198907,18,2022-01-28_14h30.08.352,lexical_decision_task_DD_L3,2021.2.3,Win32,84.91847826,,,,,,,,,,,0.7646,1,,,,,,,,,,,,,,z,1,0.7646,,,,,,,,0.018518519,-0.387962963,0,0,0,,0,8,8,114,1,RIKES,C,old,z,./images/RIKES.png,,,,,,,,,,,,,,,,,,,,,,
,,,,,,,,,,,,,,,,,198907,18,2022-01-28_14h30.08.352,lexical_decision_task_DD_L3,2021.2.3,Win32,84.91847826,,,,,,,,,,,0.5626,1,,,,,,,,,,,,,,m,1,0.5626,,,,,,,,0.018518519,-0.387962963,0,0,0,,0,9,9,0,1,TOMATO,LB,old,m,./images/TOMATOLB.png,,,,,,,,,,,,,,,,,,,,,,
,,,,,,,,,,,,,,,,,198907,18,2022-01-28_14h30.08.352,lexical_decision_task_DD_L3,2021.2.3,Win32,84.91847826,,,,,,,,,,,0.5305,1,,,,,,,,,,,,,,m,1,0.5305,,,,,,,,0.018518519,-0.387962963,0,0,0,,0,10,10,76,1,INFANT,C,old,m,./images/INFANT.png,,,,,,,,,,,,,,,,,,,,,,
,,,,,,,,,,,,,,,,,198907,18,2022-01-28_14h30.08.352,lexical_decision_task_DD_L3,2021.2.3,Win32,84.91847826,,,,,,,,,,,0.5308,1,,,,,,,,,,,,,,m,1,0.5308,,,,,,,,0.018518519,-0.387962963,0,0,0,,0,11,11,6,1,SQUARE,LB,old,m,./images/SQUARELB.png,,,,,,,,,,,,,,,,,,,,,,
,,,,,,,,,,,,,,,,,198907,18,2022-01-28_14h30.08.352,lexical_decision_task_DD_L3,2021.2.3,Win32,84.91847826,,,,,,,,,,,0.678,1,,,,,,,,,,,,,,z,1,0.678,,,,,,,,0.018518519,-0.387962963,0,0,0,,0,12,12,113,1,LINEW,LB,old,z,./images/LINEWLB.png,,,,,,,,,,,,,,,,,,,,,,
,,,,,,,,,,,,,,,,,198907,18,2022-01-28_14h30.08.352,lexical_decision_task_DD_L3,2021.2.3,Win32,84.91847826,,,,,,,,,,,0.5273,1,,,,,,,,,,,,,,m,1,0.5273,,,,,,,,0.018518519,-0.387962963,0,0,0,,0,13,13,27,1,ATTIC,LB,old,m,./images/ATTICLB.png,,,,,,,,,,,,,,,,,,,,,,
,,,,,,,,,,,,,,,,,198907,18,2022-01-28_14h30.08.352,lexical_decision_task_DD_L3,2021.2.3,Win32,84.91847826,,,,,,,,,,,1.0841,1,,,,,,,,,,,,,,z,1,1.0841,,,,,,,,0.018518519,-0.387962963,0,0,0,,0,14,14,142,1,PLASK,HB,old,z,./images/PLASKHB.png,,,,,,,,,,,,,,,,,,,,,,
,,,,,,,,,,,,,,,,,198907,18,2022-01-28_14h30.08.352,lexical_decision_task_DD_L3,2021.2.3,Win32,84.91847826,,,,,,,,,,,0.58,1,,,,,,,,,,,,,,m,1,0.58,,,,,,,,0.018518519,-0.387962963,0,0,0,,0,15,15,78,1,LITTER,LB,old,m,./images/LITTERLB.png,,,,,,,,,,,,,,,,,,,,,,
,,,,,,,,,,,,,,,,,198907,18,2022-01-28_14h30.08.352,lexical_decision_task_DD_L3,2021.2.3,Win32,84.91847826,,,,,,,,,,,1.2657,1,,,,,,,,,,,,,,z,1,1.2657,,,,,,,,0.018518519,-0.387962963,0,0,0,,0,16,16,166,1,SHORY,HB,old,z,./images/SHORYHB.png,,,,,,,,,,,,,,,,,,,,,,
,,,,,,,,,,,,,,,,,198907,18,2022-01-28_14h30.08.352,lexical_decision_task_DD_L3,2021.2.3,Win32,84.91847826,,,,,,,,,,,0.8334,1,,,,,,,,,,,,,,z,1,0.8334,,,,,,,,0.018518519,-0.387962963,0,0,0,,0,17,17,138,1,PLICE,C,old,z,./images/PLICE.png,,,,,,,,,,,,,,,,,,,,,,
,,,,,,,,,,,,,,,,,198907,18,2022-01-28_14h30.08.352,lexical_decision_task_DD_L3,2021.2.3,Win32,84.91847826,,,,,,,,,,,0.99,1,,,,,,,,,,,,,,z,1,0.99,,,,,,,,0.018518519,-0.387962963,0,0,0,,0,18,18,104,1,GITTY,LB,old,z,./images/GITTYLB.png,,,,,,,,,,,,,,,,,,,,,,
,,,,,,,,,,,,,,,,,198907,18,2022-01-28_14h30.08.352,lexical_decision_task_DD_L3,2021.2.3,Win32,84.91847826,,,,,,,,,,,0.6693,1,,,,,,,,,,,,,,z,1,0.6693,,,,,,,,0.018518519,-0.387962963,0,0,0,,0,19,19,117,1,STEEG,C,old,z,./images/STEEG.png,,,,,,,,,,,,,,,,,,,,,,
,,,,,,,,,,,,,,,,,198907,18,2022-01-28_14h30.08.352,lexical_decision_task_DD_L3,2021.2.3,Win32,84.91847826,,,,,,,,,,,0.766,0,,,,,,,,,,,,,,m,0,0.766,,,,,,,,0.018518519,-0.387962963,0,0,0,,0,20,20,110,1,CRUNK,LB,old,z,./images/CRUNKLB.png,,,,,,,,,,,,,,,,,,,,,,
,,,,,,,,,,,,,,,,,198907,18,2022-01-28_14h30.08.352,lexical_decision_task_DD_L3,2021.2.3,Win32,84.91847826,,,,,,,,,,,0.7992,1,,,,,,,,,,,,,,z,1,0.7992,,,,,,,,0.018518519,-0.387962963,0,0,0,,0,21,21,150,1,NOOLS,C,old,z,./images/NOOLS.png,,,,,,,,,,,,,,,,,,,,,,
,,,,,,,,,,,,,,,,,198907,18,2022-01-28_14h30.08.352,lexical_decision_task_DD_L3,2021.2.3,Win32,84.91847826,,,,,,,,,,,0.6182,1,,,,,,,,,,,,,,m,1,0.6182,,,,,,,,0.018518519,-0.387962963,0,0,0,,0,22,22,19,1,DOUGH,C,old,m,./images/DOUGH.png,,,,,,,,,,,,,,,,,,,,,,
,,,,,,,,,,,,,,,,,198907,18,2022-01-28_14h30.08.352,lexical_decision_task_DD_L3,2021.2.3,Win32,84.91847826,,,,,,,,,,,0.6776,1,,,,,,,,,,,,,,m,1,0.6776,,,,,,,,0.018518519,-0.387962963,0,0,0,,0,23,23,39,1,SHELF,LB,old,m,./images/SHELFLB.png,,,,,,,,,,,,,,,,,,,,,,
,,,,,,,,,,,,,,,,,198907,18,2022-01-28_14h30.08.352,lexical_decision_task_DD_L3,2021.2.3,Win32,84.91847826,,,,,,,,,,,0.8066,1,,,,,,,,,,,,,,m,1,0.8066,,,,,,,,0.018518519,-0.387962963,0,0,0,,0,24,24,68,1,TORCH,HB,old,m,./images/TORCHHB.png,,,,,,,,,,,,,,,,,,,,,,
,,,,,,,,,,,,,,,,,198907,18,2022-01-28_14h30.08.352,lexical_decision_task_DD_L3,2021.2.3,Win32,84.91847826,,,,,,,,,,,1.4175,1,,,,,,,,,,,,,,m,1,1.4175,,,,,,,,0.018518519,-0.387962963,0,0,0,,0,25,25,26,1,SMOKER,HB,old,m,./images/SMOKERHB.png,,,,,,,,,,,,,,,,,,,,,,
,,,,,,,,,,,,,,,,,198907,18,2022-01-28_14h30.08.352,lexical_decision_task_DD_L3,2021.2.3,Win32,84.91847826,,,,,,,,,,,0.9804,1,,,,,,,,,,,,,,m,1,0.9804,,,,,,,,0.018518519,-0.387962963,0,0,0,,0,26,26,11,1,BONNET,HB,old,m,./images/BONNETHB.png,,,,,,,,,,,,,,,,,,,,,,
,,,,,,,,,,,,,,,,,198907,18,2022-01-28_14h30.08.352,lexical_decision_task_DD_L3,2021.2.3,Win32,84.91847826,,,,,,,,,,,0.6712,1,,,,,,,,,,,,,,z,1,0.6712,,,,,,,,0.018518519,-0.387962963,0,0,0,,0,27,27,162,1,LEICH,C,old,z,./images/LEICH.png,,,,,,,,,,,,,,,,,,,,,,
,,,,,,,,,,,,,,,,,198907,18,2022-01-28_14h30.08.352,lexical_decision_task_DD_L3,2021.2.3,Win32,84.91847826,,,,,,,,,,,0.7633,0,,,,,,,,,,,,,,z,0,0.7633,,,,,,,,0.018518519,-0.387962963,0,0,0,,0,28,28,44,1,LIZARD,HB,old,m,./images/LIZARDHB.png,,,,,,,,,,,,,,,,,,,,,,
,,,,,,,,,,,,,,,,,198907,18,2022-01-28_14h30.08.352,lexical_decision_task_DD_L3,2021.2.3,Win32,84.91847826,,,,,,,,,,,0.6687,1,,,,,,,,,,,,,,z,1,0.6687,,,,,,,,0.018518519,-0.387962963,0,0,0,,0,29,29,135,1,JOODY,C,old,z,./images/JOODY.png,,,,,,,,,,,,,,,,,,,,,,
,,,,,,,,,,,,,,,,,198907,18,2022-01-28_14h30.08.352,lexical_decision_task_DD_L3,2021.2.3,Win32,84.91847826,,,,,,,,,,,0.6704,1,,,,,,,,,,,,,,z,1,0.6704,,,,,,,,0.018518519,-0.387962963,0,0,0,,0,30,30,140,1,DOVET,LB,old,z,./images/DOVETLB.png,,,,,,,,,,,,,,,,,,,,,,
,,,,,,,,,,,,,,,,,198907,18,2022-01-28_14h30.08.352,lexical_decision_task_DD_L3,2021.2.3,Win32,84.91847826,,,,,,,,,,,0.7205,1,,,,,,,,,,,,,,m,1,0.7205,,,,,,,,0.018518519,-0.387962963,0,0,0,,0,31,31,70,1,URINE,C,old,m,./images/URINE.png,,,,,,,,,,,,,,,,,,,,,,
,,,,,,,,,,,,,,,,,198907,18,2022-01-28_14h30.08.352,lexical_decision_task_DD_L3,2021.2.3,Win32,84.91847826,,,,,,,,,,,1.1213,1,,,,,,,,,,,,,,z,1,1.1213,,,,,,,,0.018518519,-0.387962963,0,0,0,,0,32,32,84,1,HAXES,C,old,z,./images/HAXES.png,,,,,,,,,,,,,,,,,,,,,,
,,,,,,,,,,,,,,,,,198907,18,2022-01-28_14h30.08.352,lexical_decision_task_DD_L3,2021.2.3,Win32,84.91847826,,,,,,,,,,,0.6061,1,,,,,,,,,,,,,,m,1,0.6061,,,,,,,,0.018518519,-0.387962963,0,0,0,,0,33,33,18,1,JAGUAR,LB,old,m,./images/JAGUARLB.png,,,,,,,,,,,,,,,,,,,,,,
,,,,,,,,,,,,,,,,,198907,18,2022-01-28_14h30.08.352,lexical_decision_task_DD_L3,2021.2.3,Win32,84.91847826,,,,,,,,,,,0.5728,1,,,,,,,,,,,,,,m,1,0.5728,,,,,,,,0.018518519,-0.387962963,0,0,0,,0,34,34,73,1,SNACK,C,old,m,./images/SNACK.png,,,,,,,,,,,,,,,,,,,,,,
,,,,,,,,,,,,,,,,,198907,18,2022-01-28_14h30.08.352,lexical_decision_task_DD_L3,2021.2.3,Win32,84.91847826,,,,,,,,,,,0.4359,1,,,,,,,,,,,,,,m,1,0.4359,,,,,,,,0.018518519,-0.387962963,0,0,0,,0,35,35,49,1,DRUMS,C,old,m,./images/DRUMS.png,,,,,,,,,,,,,,,,,,,,,,
,,,,,,,,,,,,,,,,,198907,18,2022-01-28_14h30.08.352,lexical_decision_task_DD_L3,2021.2.3,Win32,84.91847826,,,,,,,,,,,0.5413,0,,,,,,,,,,,,,,m,0,0.5413,,,,,,,,0.018518519,-0.387962963,0,0,0,,0,36,36,132,1,SCIFF,C,old,z,./images/SCIFF.png,,,,,,,,,,,,,,,,,,,,,,
,,,,,,,,,,,,,,,,,198907,18,2022-01-28_14h30.08.352,lexical_decision_task_DD_L3,2021.2.3,Win32,84.91847826,,,,,,,,,,,0.6314,1,,,,,,,,,,,,,,m,1,0.6314,,,,,,,,0.018518519,-0.387962963,0,0,0,,0,37,37,41,1,STRING,HB,old,m,./images/STRINGHB.png,,,,,,,,,,,,,,,,,,,,,,
,,,,,,,,,,,,,,,,,198907,18,2022-01-28_14h30.08.352,lexical_decision_task_DD_L3,2021.2.3,Win32,84.91847826,,,,,,,,,,,1.4488,1,,,,,,,,,,,,,,z,1,1.4488,,,,,,,,0.018518519,-0.387962963,0,0,0,,0,38,38,107,1,FASKS,LB,old,z,./images/FASKSLB.png,,,,,,,,,,,,,,,,,,,,,,
,,,,,,,,,,,,,,,,,198907,18,2022-01-28_14h30.08.352,lexical_decision_task_DD_L3,2021.2.3,Win32,84.91847826,,,,,,,,,,,0.8013,1,,,,,,,,,,,,,,m,1,0.8013,,,,,,,,0.018518519,-0.387962963,0,0,0,,0,39,39,66,1,SWEAT,LB,old,m,./images/SWEATLB.png,,,,,,,,,,,,,,,,,,,,,,
,,,,,,,,,,,,,,,,,198907,18,2022-01-28_14h30.08.352,lexical_decision_task_DD_L3,2021.2.3,Win32,84.91847826,,,,,,,,,,,1.1519,1,,,,,,,,,,,,,,m,1,1.1519,,,,,,,,0.018518519,-0.387962963,0,0,0,,0,40,40,83,1,JUNGLE,HB,old,m,./images/JUNGLEHB.png,,,,,,,,,,,,,,,,,,,,,,
,,,,,,,,,,,,,,,,,198907,18,2022-01-28_14h30.08.352,lexical_decision_task_DD_L3,2021.2.3,Win32,84.91847826,,,,,,,,,,,0.7888,1,,,,,,,,,,,,,,m,1,0.7888,,,,,,,,0.018518519,-0.387962963,0,0,0,space,0,41,41,5,1,PASTA,HB,old,m,./images/PASTAHB.png,3.05,,,,,,,,,,,,,,,,,,,,,
,,,,,,,,,,,,,,,,,198907,18,2022-01-28_14h30.08.352,lexical_decision_task_DD_L3,2021.2.3,Win32,84.91847826,,,,,,,,,,,0.5993,1,,,,,,,,,,,,,,m,1,0.5993,,,,,,,,0.018518519,-0.387962963,0,0,0,,0,42,42,61,1,CANDLE,C,old,m,./images/CANDLE.png,,,,,,,,,,,,,,,,,,,,,,
,,,,,,,,,,,,,,,,,198907,18,2022-01-28_14h30.08.352,lexical_decision_task_DD_L3,2021.2.3,Win32,84.91847826,,,,,,,,,,,0.987,1,,,,,,,,,,,,,,m,1,0.987,,,,,,,,0.018518519,-0.387962963,0,0,0,,0,43,43,72,1,NOOSE,LB,old,m,./images/NOOSELB.png,,,,,,,,,,,,,,,,,,,,,,
,,,,,,,,,,,,,,,,,198907,18,2022-01-28_14h30.08.352,lexical_decision_task_DD_L3,2021.2.3,Win32,84.91847826,,,,,,,,,,,0.7773,1,,,,,,,,,,,,,,m,1,0.7773,,,,,,,,0.018518519,-0.387962963,0,0,0,,0,44,44,75,1,GRAIN,LB,old,m,./images/GRAINLB.png,,,,,,,,,,,,,,,,,,,,,,
,,,,,,,,,,,,,,,,,198907,18,2022-01-28_14h30.08.352,lexical_decision_task_DD_L3,2021.2.3,Win32,84.91847826,,,,,,,,,,,0.6061,1,,,,,,,,,,,,,,z,1,0.6061,,,,,,,,0.018518519,-0.387962963,0,0,0,,0,45,45,102,1,DULLE,C,old,z,./images/DULLE.png,,,,,,,,,,,,,,,,,,,,,,
,,,,,,,,,,,,,,,,,198907,18,2022-01-28_14h30.08.352,lexical_decision_task_DD_L3,2021.2.3,Win32,84.91847826,,,,,,,,,,,1.1938,1,,,,,,,,,,,,,,m,1,1.1938,,,,,,,,0.018518519,-0.387962963,0,0,0,,0,46,46,15,1,GREASE,LB,old,m,./images/GREASELB.png,,,,,,,,,,,,,,,,,,,,,,
,,,,,,,,,,,,,,,,,198907,18,2022-01-28_14h30.08.352,lexical_decision_task_DD_L3,2021.2.3,Win32,84.91847826,,,,,,,,,,,0.834,1,,,,,,,,,,,,,,z,1,0.834,,,,,,,,0.018518519,-0.387962963,0,0,0,,0,47,47,121,1,CEERS,HB,old,z,./images/CEERSHB.png,,,,,,,,,,,,,,,,,,,,,,
,,,,,,,,,,,,,,,,,198907,18,2022-01-28_14h30.08.352,lexical_decision_task_DD_L3,2021.2.3,Win32,84.91847826,,,,,,,,,,,0.6012,1,,,,,,,,,,,,,,z,1,0.6012,,,,,,,,0.018518519,-0.387962963,0,0,0,,0,48,48,86,1,AIFED,LB,old,z,./images/AIFEDLB.png,,,,,,,,,,,,,,,,,,,,,,
,,,,,,,,,,,,,,,,,198907,18,2022-01-28_14h30.08.352,lexical_decision_task_DD_L3,2021.2.3,Win32,84.91847826,,,,,,,,,,,1.1998,1,,,,,,,,,,,,,,z,1,1.1998,,,,,,,,0.018518519,-0.387962963,0,0,0,,0,49,49,154,1,THINT,HB,old,z,./images/THINTHB.png,,,,,,,,,,,,,,,,,,,,,,
,,,,,,,,,,,,,,,,,198907,18,2022-01-28_14h30.08.352,lexical_decision_task_DD_L3,2021.2.3,Win32,84.91847826,,,,,,,,,,,0.8724,1,,,,,,,,,,,,,,z,1,0.8724,,,,,,,,0.018518519,-0.387962963,0,0,0,,0,50,50,118,1,BAVEL,HB,old,z,./images/BAVELHB.png,,,,,,,,,,,,,,,,,,,,,,
,,,,,,,,,,,,,,,,,198907,18,2022-01-28_14h30.08.352,lexical_decision_task_DD_L3,2021.2.3,Win32,84.91847826,,,,,,,,,,,0.9256,1,,,,,,,,,,,,,,z,1,0.9256,,,,,,,,0.018518519,-0.387962963,0,0,0,,0,51,51,94,1,BLANS,HB,old,z,./images/BLANSHB.png,,,,,,,,,,,,,,,,,,,,,,
,,,,,,,,,,,,,,,,,198907,18,2022-01-28_14h30.08.352,lexical_decision_task_DD_L3,2021.2.3,Win32,84.91847826,,,,,,,,,,,0.639,1,,,,,,,,,,,,,,z,1,0.639,,,,,,,,0.018518519,-0.387962963,0,0,0,,0,52,52,92,1,PAIMS,LB,old,z,./images/PAIMSLB.png,,,,,,,,,,,,,,,,,,,,,,
,,,,,,,,,,,,,,,,,198907,18,2022-01-28_14h30.08.352,lexical_decision_task_DD_L3,2021.2.3,Win32,84.91847826,,,,,,,,,,,0.6005,1,,,,,,,,,,,,,,z,1,0.6005,,,,,,,,0.018518519,-0.387962963,0,0,0,,0,53,53,131,1,NACES,LB,old,z,./images/NACESLB.png,,,,,,,,,,,,,,,,,,,,,,
,,,,,,,,,,,,,,,,,198907,18,2022-01-28_14h30.08.352,lexical_decision_task_DD_L3,2021.2.3,Win32,84.91847826,,,,,,,,,,,0.5885,1,,,,,,,,,,,,,,m,1,0.5885,,,,,,,,0.018518519,-0.387962963,0,0,0,,0,54,54,1,1,PLANK,C,old,m,./images/PLANK.png,,,,,,,,,,,,,,,,,,,,,,
,,,,,,,,,,,,,,,,,198907,18,2022-01-28_14h30.08.352,lexical_decision_task_DD_L3,2021.2.3,Win32,84.91847826,,,,,,,,,,,0.5729,1,,,,,,,,,,,,,,z,1,0.5729,,,,,,,,0.018518519,-0.387962963,0,0,0,,0,55,55,126,1,GUELS,C,old,z,./images/GUELS.png,,,,,,,,,,,,,,,,,,,,,,
,,,,,,,,,,,,,,,,,198907,18,2022-01-28_14h30.08.352,lexical_decision_task_DD_L3,2021.2.3,Win32,84.91847826,,,,,,,,,,,0.6243,1,,,,,,,,,,,,,,z,1,0.6243,,,,,,,,0.018518519,-0.387962963,0,0,0,,0,56,56,129,1,PRANS,C,old,z,./images/PRANS.png,,,,,,,,,,,,,,,,,,,,,,
,,,,,,,,,,,,,,,,,198907,18,2022-01-28_14h30.08.352,lexical_decision_task_DD_L3,2021.2.3,Win32,84.91847826,,,,,,,,,,,0.9653,1,,,,,,,,,,,,,,m,1,0.9653,,,,,,,,0.018518519,-0.387962963,0,0,0,,0,57,57,33,1,MAGGOT,LB,old,m,./images/MAGGOTLB.png,,,,,,,,,,,,,,,,,,,,,,
,,,,,,,,,,,,,,,,,198907,18,2022-01-28_14h30.08.352,lexical_decision_task_DD_L3,2021.2.3,Win32,84.91847826,,,,,,,,,,,0.7026,1,,,,,,,,,,,,,,m,1,0.7026,,,,,,,,0.018518519,-0.387962963,0,0,0,,0,58,58,82,1,SUNSET,C,old,m,./images/SUNSET.png,,,,,,,,,,,,,,,,,,,,,,
,,,,,,,,,,,,,,,,,198907,18,2022-01-28_14h30.08.352,lexical_decision_task_DD_L3,2021.2.3,Win32,84.91847826,,,,,,,,,,,0.6313,1,,,,,,,,,,,,,,m,1,0.6313,,,,,,,,0.018518519,-0.387962963,0,0,0,,0,59,59,21,1,KIDNEY,LB,old,m,./images/KIDNEYLB.png,,,,,,,,,,,,,,,,,,,,,,
,,,,,,,,,,,,,,,,,198907,18,2022-01-28_14h30.08.352,lexical_decision_task_DD_L3,2021.2.3,Win32,84.91847826,,,,,,,,,,,0.8055,1,,,,,,,,,,,,,,m,1,0.8055,,,,,,,,0.018518519,-0.387962963,0,0,0,,0,60,60,58,1,BABOON,C,old,m,./images/BABOON.png,,,,,,,,,,,,,,,,,,,,,,
,,,,,,,,,,,,,,,,,198907,18,2022-01-28_14h30.08.352,lexical_decision_task_DD_L3,2021.2.3,Win32,84.91847826,,,,,,,,,,,0.5005,1,,,,,,,,,,,,,,z,1,0.5005,,,,,,,,0.018518519,-0.387962963,0,0,0,,0,61,61,89,1,DRIEK,LB,old,z,./images/DRIEKLB.png,,,,,,,,,,,,,,,,,,,,,,
,,,,,,,,,,,,,,,,,198907,18,2022-01-28_14h30.08.352,lexical_decision_task_DD_L3,2021.2.3,Win32,84.91847826,,,,,,,,,,,0.5327,1,,,,,,,,,,,,,,z,1,0.5327,,,,,,,,0.018518519,-0.387962963,0,0,0,,0,62,62,101,1,GLEET,LB,old,z,./images/GLEETLB.png,,,,,,,,,,,,,,,,,,,,,,
,,,,,,,,,,,,,,,,,198907,18,2022-01-28_14h30.08.352,lexical_decision_task_DD_L3,2021.2.3,Win32,84.91847826,,,,,,,,,,,0.6658,1,,,,,,,,,,,,,,z,1,0.6658,,,,,,,,0.018518519,-0.387962963,0,0,0,,0,63,63,125,1,MOOKY,LB,old,z,./images/MOOKYLB.png,,,,,,,,,,,,,,,,,,,,,,
,,,,,,,,,,,,,,,,,198907,18,2022-01-28_14h30.08.352,lexical_decision_task_DD_L3,2021.2.3,Win32,84.91847826,,,,,,,,,,,0.5275,1,,,,,,,,,,,,,,m,1,0.5275,,,,,,,,0.018518519,-0.387962963,0,0,0,,0,64,64,63,1,MIRROR,LB,old,m,./images/MIRRORLB.png,,,,,,,,,,,,,,,,,,,,,,
,,,,,,,,,,,,,,,,,198907,18,2022-01-28_14h30.08.352,lexical_decision_task_DD_L3,2021.2.3,Win32,84.91847826,,,,,,,,,,,0.8315,1,,,,,,,,,,,,,,z,1,0.8315,,,,,,,,0.018518519,-0.387962963,0,0,0,,0,65,65,112,1,MYING,HB,old,z,./images/MYINGHB.png,,,,,,,,,,,,,,,,,,,,,,
,,,,,,,,,,,,,,,,,198907,18,2022-01-28_14h30.08.352,lexical_decision_task_DD_L3,2021.2.3,Win32,84.91847826,,,,,,,,,,,0.5486,1,,,,,,,,,,,,,,m,1,0.5486,,,,,,,,0.018518519,-0.387962963,0,0,0,,0,66,66,57,1,MOOSE,LB,old,m,./images/MOOSELB.png,,,,,,,,,,,,,,,,,,,,,,
,,,,,,,,,,,,,,,,,198907,18,2022-01-28_14h30.08.352,lexical_decision_task_DD_L3,2021.2.3,Win32,84.91847826,,,,,,,,,,,0.5713,1,,,,,,,,,,,,,,m,1,0.5713,,,,,,,,0.018518519,-0.387962963,0,0,0,,0,67,67,46,1,PEARL,C,old,m,./images/PEARL.png,,,,,,,,,,,,,,,,,,,,,,
,,,,,,,,,,,,,,,,,198907,18,2022-01-28_14h30.08.352,lexical_decision_task_DD_L3,2021.2.3,Win32,84.91847826,,,,,,,,,,,0.6923,1,,,,,,,,,,,,,,z,1,0.6923,,,,,,,,0.018518519,-0.387962963,0,0,0,,0,68,68,144,1,NAIRY,C,old,z,./images/NAIRY.png,,,,,,,,,,,,,,,,,,,,,,
,,,,,,,,,,,,,,,,,198907,18,2022-01-28_14h30.08.352,lexical_decision_task_DD_L3,2021.2.3,Win32,84.91847826,,,,,,,,,,,0.5206,1,,,,,,,,,,,,,,m,1,0.5206,,,,,,,,0.018518519,-0.387962963,0,0,0,,0,69,69,30,1,STORM,LB,old,m,./images/STORMLB.png,,,,,,,,,,,,,,,,,,,,,,
,,,,,,,,,,,,,,,,,198907,18,2022-01-28_14h30.08.352,lexical_decision_task_DD_L3,2021.2.3,Win32,84.91847826,,,,,,,,,,,0.6029,1,,,,,,,,,,,,,,z,1,0.6029,,,,,,,,0.018518519,-0.387962963,0,0,0,,0,70,70,155,1,CANGY,LB,old,z,./images/CANGYLB.png,,,,,,,,,,,,,,,,,,,,,,
,,,,,,,,,,,,,,,,,198907,18,2022-01-28_14h30.08.352,lexical_decision_task_DD_L3,2021.2.3,Win32,84.91847826,,,,,,,,,,,1.3235,1,,,,,,,,,,,,,,m,1,1.3235,,,,,,,,0.018518519,-0.387962963,0,0,0,,0,71,71,2,1,BEARD,HB,old,m,./images/BEARDHB.png,,,,,,,,,,,,,,,,,,,,,,
,,,,,,,,,,,,,,,,,198907,18,2022-01-28_14h30.08.352,lexical_decision_task_DD_L3,2021.2.3,Win32,84.91847826,,,,,,,,,,,1.9192,1,,,,,,,,,,,,,,m,1,1.9192,,,,,,,,0.018518519,-0.387962963,0,0,0,,0,72,72,17,1,SKIING,HB,old,m,./images/SKIINGHB.png,,,,,,,,,,,,,,,,,,,,,,
,,,,,,,,,,,,,,,,,198907,18,2022-01-28_14h30.08.352,lexical_decision_task_DD_L3,2021.2.3,Win32,84.91847826,,,,,,,,,,,0.4776,1,,,,,,,,,,,,,,z,1,0.4776,,,,,,,,0.018518519,-0.387962963,0,0,0,,0,73,73,96,1,KEAMS,C,old,z,./images/KEAMS.png,,,,,,,,,,,,,,,,,,,,,,
,,,,,,,,,,,,,,,,,198907,18,2022-01-28_14h30.08.352,lexical_decision_task_DD_L3,2021.2.3,Win32,84.91847826,,,,,,,,,,,0.5601,1,,,,,,,,,,,,,,m,1,0.5601,,,,,,,,0.018518519,-0.387962963,0,0,0,,0,74,74,69,1,COOKER,LB,old,m,./images/COOKERLB.png,,,,,,,,,,,,,,,,,,,,,,
,,,,,,,,,,,,,,,,,198907,18,2022-01-28_14h30.08.352,lexical_decision_task_DD_L3,2021.2.3,Win32,84.91847826,,,,,,,,,,,0.7496,1,,,,,,,,,,,,,,m,1,0.7496,,,,,,,,0.018518519,-0.387962963,0,0,0,,0,75,75,81,1,POODLE,LB,old,m,./images/POODLELB.png,,,,,,,,,,,,,,,,,,,,,,
,,,,,,,,,,,,,,,,,198907,18,2022-01-28_14h30.08.352,lexical_decision_task_DD_L3,2021.2.3,Win32,84.91847826,,,,,,,,,,,0.7071,1,,,,,,,,,,,,,,m,1,0.7071,,,,,,,,0.018518519,-0.387962963,0,0,0,,0,76,76,79,1,CRUST,C,old,m,./images/CRUST.png,,,,,,,,,,,,,,,,,,,,,,
,,,,,,,,,,,,,,,,,198907,18,2022-01-28_14h30.08.352,lexical_decision_task_DD_L3,2021.2.3,Win32,84.91847826,,,,,,,,,,,0.6866,1,,,,,,,,,,,,,,z,1,0.6866,,,,,,,,0.018518519,-0.387962963,0,0,0,,0,77,77,90,1,NEAST,C,old,z,./images/NEAST.png,,,,,,,,,,,,,,,,,,,,,,
,,,,,,,,,,,,,,,,,198907,18,2022-01-28_14h30.08.352,lexical_decision_task_DD_L3,2021.2.3,Win32,84.91847826,,,,,,,,,,,0.6715,1,,,,,,,,,,,,,,z,1,0.6715,,,,,,,,0.018518519,-0.387962963,0,0,0,,0,78,78,105,1,MOKER,C,old,z,./images/MOKER.png,,,,,,,,,,,,,,,,,,,,,,
,,,,,,,,,,,,,,,,,198907,18,2022-01-28_14h30.08.352,lexical_decision_task_DD_L3,2021.2.3,Win32,84.91847826,,,,,,,,,,,1.0129,1,,,,,,,,,,,,,,m,1,1.0129,,,,,,,,0.018518519,-0.387962963,0,0,0,,0,79,79,74,1,CEMENT,HB,old,m,./images/CEMENTHB.png,,,,,,,,,,,,,,,,,,,,,,
,,,,,,,,,,,,,,,,,198907,18,2022-01-28_14h30.08.352,lexical_decision_task_DD_L3,2021.2.3,Win32,84.91847826,,,,,,,,,,,0.6446,1,,,,,,,,,,,,,,z,1,0.6446,,,,,,,,0.018518519,-0.387962963,0,0,0,,0,80,80,143,1,MONGS,LB,old,z,./images/MONGSLB.png,,,,,,,,,,,,,,,,,,,,,,
,,,,,,,,,,,,,,,,,198907,18,2022-01-28_14h30.08.352,lexical_decision_task_DD_L3,2021.2.3,Win32,84.91847826,,,,,,,,,,,0.7301,1,,,,,,,,,,,,,,m,1,0.7301,,,,,,,,0.018518519,-0.387962963,0,0,0,,0,81,81,32,1,BARREL,HB,old,m,./images/BARRELHB.png,,,,,,,,,,,,,,,,,,,,,,
,,,,,,,,,,,,,,,,,198907,18,2022-01-28_14h30.08.352,lexical_decision_task_DD_L3,2021.2.3,Win32,84.91847826,,,,,,,,,,,0.7621,1,,,,,,,,,,,,,,z,1,0.7621,,,,,,,,0.018518519,-0.387962963,0,0,0,,0,82,82,160,1,VEETS,HB,old,z,./images/VEETSHB.png,,,,,,,,,,,,,,,,,,,,,,
,,,,,,,,,,,,,,,,,198907,18,2022-01-28_14h30.08.352,lexical_decision_task_DD_L3,2021.2.3,Win32,84.91847826,,,,,,,,,,,0.5495,1,,,,,,,,,,,,,,m,1,0.5495,,,,,,,,0.018518519,-0.387962963,0,0,0,space,0,83,83,42,1,FOLDER,LB,old,m,./images/FOLDERLB.png,0.9512,,,,,,,,,,,,,,,,,,,,,
,,,,,,,,,,,,,,,,,198907,18,2022-01-28_14h30.08.352,lexical_decision_task_DD_L3,2021.2.3,Win32,84.91847826,,,,,,,,,,,0.5649,1,,,,,,,,,,,,,,z,1,0.5649,,,,,,,,0.018518519,-0.387962963,0,0,0,,0,84,84,156,1,HIXES,C,old,z,./images/HIXES.png,,,,,,,,,,,,,,,,,,,,,,
,,,,,,,,,,,,,,,,,198907,18,2022-01-28_14h30.08.352,lexical_decision_task_DD_L3,2021.2.3,Win32,84.91847826,,,,,,,,,,,0.8291,1,,,,,,,,,,,,,,z,1,0.8291,,,,,,,,0.018518519,-0.387962963,0,0,0,,0,85,85,115,1,MAWNS,HB,old,z,./images/MAWNSHB.png,,,,,,,,,,,,,,,,,,,,,,
,,,,,,,,,,,,,,,,,198907,18,2022-01-28_14h30.08.352,lexical_decision_task_DD_L3,2021.2.3,Win32,84.91847826,,,,,,,,,,,0.7658,1,,,,,,,,,,,,,,m,1,0.7658,,,,,,,,0.018518519,-0.387962963,0,0,0,,0,86,86,31,1,QUILL,C,old,m,./images/QUILL.png,,,,,,,,,,,,,,,,,,,,,,
,,,,,,,,,,,,,,,,,198907,18,2022-01-28_14h30.08.352,lexical_decision_task_DD_L3,2021.2.3,Win32,84.91847826,,,,,,,,,,,0.6841,1,,,,,,,,,,,,,,z,1,0.6841,,,,,,,,0.018518519,-0.387962963,0,0,0,,0,87,87,146,1,MOOST,LB,old,z,./images/MOOSTLB.png,,,,,,,,,,,,,,,,,,,,,,
,,,,,,,,,,,,,,,,,198907,18,2022-01-28_14h30.08.352,lexical_decision_task_DD_L3,2021.2.3,Win32,84.91847826,,,,,,,,,,,0.7063,1,,,,,,,,,,,,,,m,1,0.7063,,,,,,,,0.018518519,-0.387962963,0,0,0,,0,88,88,12,1,SHORE,LB,old,m,./images/SHORELB.png,,,,,,,,,,,,,,,,,,,,,,
,,,,,,,,,,,,,,,,,198907,18,2022-01-28_14h30.08.352,lexical_decision_task_DD_L3,2021.2.3,Win32,84.91847826,,,,,,,,,,,0.6003,1,,,,,,,,,,,,,,z,1,0.6003,,,,,,,,0.018518519,-0.387962963,0,0,0,,0,89,89,120,1,RINED,C,old,z,./images/RINED.png,,,,,,,,,,,,,,,,,,,,,,
,,,,,,,,,,,,,,,,,198907,18,2022-01-28_14h30.08.352,lexical_decision_task_DD_L3,2021.2.3,Win32,84.91847826,,,,,,,,,,,1.0478,1,,,,,,,,,,,,,,z,1,1.0478,,,,,,,,0.018518519,-0.387962963,0,0,0,,0,90,90,165,1,TROWN,C,old,z,./images/TROWN.png,,,,,,,,,,,,,,,,,,,,,,
,,,,,,,,,,,,,,,,,198907,18,2022-01-28_14h30.08.352,lexical_decision_task_DD_L3,2021.2.3,Win32,84.91847826,,,,,,,,,,,0.8947,1,,,,,,,,,,,,,,z,1,0.8947,,,,,,,,0.018518519,-0.387962963,0,0,0,,0,91,91,103,1,FLORT,HB,old,z,./images/FLORTHB.png,,,,,,,,,,,,,,,,,,,,,,
,,,,,,,,,,,,,,,,,198907,18,2022-01-28_14h30.08.352,lexical_decision_task_DD_L3,2021.2.3,Win32,84.91847826,,,,,,,,,,,0.5621,1,,,,,,,,,,,,,,m,1,0.5621,,,,,,,,0.018518519,-0.387962963,0,0,0,,0,92,92,22,1,MELON,C,old,m,./images/MELON.png,,,,,,,,,,,,,,,,,,,,,,
,,,,,,,,,,,,,,,,,198907,18,2022-01-28_14h30.08.352,lexical_decision_task_DD_L3,2021.2.3,Win32,84.91847826,,,,,,,,,,,0.5208,1,,,,,,,,,,,,,,z,1,0.5208,,,,,,,,0.018518519,-0.387962963,0,0,0,,0,93,93,147,1,ZOLES,C,old,z,./images/ZOLES.png,,,,,,,,,,,,,,,,,,,,,,
,,,,,,,,,,,,,,,,,198907,18,2022-01-28_14h30.08.352,lexical_decision_task_DD_L3,2021.2.3,Win32,84.91847826,,,,,,,,,,,0.5714,1,,,,,,,,,,,,,,z,1,0.5714,,,,,,,,0.018518519,-0.387962963,0,0,0,,0,94,94,152,1,FRAIN,LB,old,z,./images/FRAINLB.png,,,,,,,,,,,,,,,,,,,,,,
,,,,,,,,,,,,,,,,,198907,18,2022-01-28_14h30.08.352,lexical_decision_task_DD_L3,2021.2.3,Win32,84.91847826,,,,,,,,,,,0.616,1,,,,,,,,,,,,,,m,1,0.616,,,,,,,,0.018518519,-0.387962963,0,0,0,,0,95,95,80,1,WEASEL,HB,old,m,./images/WEASELHB.png,,,,,,,,,,,,,,,,,,,,,,
,,,,,,,,,,,,,,,,,198907,18,2022-01-28_14h30.08.352,lexical_decision_task_DD_L3,2021.2.3,Win32,84.91847826,,,,,,,,,,,0.999,1,,,,,,,,,,,,,,z,1,0.999,,,,,,,,0.018518519,-0.387962963,0,0,0,,0,96,96,100,1,DRIBS,HB,old,z,./images/DRIBSHB.png,,,,,,,,,,,,,,,,,,,,,,
,,,,,,,,,,,,,,,,,198907,18,2022-01-28_14h30.08.352,lexical_decision_task_DD_L3,2021.2.3,Win32,84.91847826,,,,,,,,,,,0.5377,1,,,,,,,,,,,,,,m,1,0.5377,,,,,,,,0.018518519,-0.387962963,0,0,0,,0,97,97,28,1,FALCON,C,old,m,./images/FALCON.png,,,,,,,,,,,,,,,,,,,,,,
,,,,,,,,,,,,,,,,,198907,18,2022-01-28_14h30.08.352,lexical_decision_task_DD_L3,2021.2.3,Win32,84.91847826,,,,,,,,,,,0.5905,1,,,,,,,,,,,,,,m,1,0.5905,,,,,,,,0.018518519,-0.387962963,0,0,0,,0,98,98,38,1,LADDER,HB,old,m,./images/LADDERHB.png,,,,,,,,,,,,,,,,,,,,,,
,,,,,,,,,,,,,,,,,198907,18,2022-01-28_14h30.08.352,lexical_decision_task_DD_L3,2021.2.3,Win32,84.91847826,,,,,,,,,,,1.1659,1,,,,,,,,,,,,,,z,1,1.1659,,,,,,,,0.018518519,-0.387962963,0,0,0,,0,99,99,97,1,CHIDS,HB,old,z,./images/CHIDSHB.png,,,,,,,,,,,,,,,,,,,,,,
,,,,,,,,,,,,,,,,,198907,18,2022-01-28_14h30.08.352,lexical_decision_task_DD_L3,2021.2.3,Win32,84.91847826,,,,,,,,,,,1.6043,1,,,,,,,,,,,,,,z,1,1.6043,,,,,,,,0.018518519,-0.387962963,0,0,0,,0,100,100,130,1,CRILL,HB,old,z,./images/CRILLHB.png,,,,,,,,,,,,,,,,,,,,,,
,,,,,,,,,,,,,,,,,198907,18,2022-01-28_14h30.08.352,lexical_decision_task_DD_L3,2021.2.3,Win32,84.91847826,,,,,,,,,,,0.6205,1,,,,,,,,,,,,,,z,1,0.6205,,,,,,,,0.018518519,-0.387962963,0,0,0,,0,101,101,119,1,PAFER,LB,old,z,./images/PAFERLB.png,,,,,,,,,,,,,,,,,,,,,,
,,,,,,,,,,,,,,,,,198907,18,2022-01-28_14h30.08.352,lexical_decision_task_DD_L3,2021.2.3,Win32,84.91847826,,,,,,,,,,,1.165,1,,,,,,,,,,,,,,z,1,1.165,,,,,,,,0.018518519,-0.387962963,0,0,0,,0,102,102,148,1,JOMS,HB,old,z,./images/JOMSHB.png,,,,,,,,,,,,,,,,,,,,,,
,,,,,,,,,,,,,,,,,198907,18,2022-01-28_14h30.08.352,lexical_decision_task_DD_L3,2021.2.3,Win32,84.91847826,,,,,,,,,,,0.6777,1,,,,,,,,,,,,,,z,1,0.6777,,,,,,,,0.018518519,-0.387962963,0,0,0,,0,103,103,137,1,JOOST,LB,old,z,./images/JOOSTLB.png,,,,,,,,,,,,,,,,,,,,,,
,,,,,,,,,,,,,,,,,198907,18,2022-01-28_14h30.08.352,lexical_decision_task_DD_L3,2021.2.3,Win32,84.91847826,,,,,,,,,,,0.634,1,,,,,,,,,,,,,,z,1,0.634,,,,,,,,0.018518519,-0.387962963,0,0,0,,0,104,104,123,1,SEDGE,C,old,z,./images/SEDGE.png,,,,,,,,,,,,,,,,,,,,,,
,,,,,,,,,,,,,,,,,198907,18,2022-01-28_14h30.08.352,lexical_decision_task_DD_L3,2021.2.3,Win32,84.91847826,,,,,,,,,,,0.6014,1,,,,,,,,,,,,,,m,1,0.6014,,,,,,,,0.018518519,-0.387962963,0,0,0,,0,105,105,35,1,PEACH,HB,old,m,./images/PEACHHB.png,,,,,,,,,,,,,,,,,,,,,,
,,,,,,,,,,,,,,,,,198907,18,2022-01-28_14h30.08.352,lexical_decision_task_DD_L3,2021.2.3,Win32,84.91847826,,,,,,,,,,,1.7826,1,,,,,,,,,,,,,,m,1,1.7826,,,,,,,,0.018518519,-0.387962963,0,0,0,,0,106,106,16,1,PENCE,C,old,m,./images/PENCE.png,,,,,,,,,,,,,,,,,,,,,,
,,,,,,,,,,,,,,,,,198907,18,2022-01-28_14h30.08.352,lexical_decision_task_DD_L3,2021.2.3,Win32,84.91847826,,,,,,,,,,,0.6058,1,,,,,,,,,,,,,,m,1,0.6058,,,,,,,,0.018518519,-0.387962963,0,0,0,,0,107,107,9,1,RHINO,LB,old,m,./images/RHINOLB.png,,,,,,,,,,,,,,,,,,,,,,
,,,,,,,,,,,,,,,,,198907,18,2022-01-28_14h30.08.352,lexical_decision_task_DD_L3,2021.2.3,Win32,84.91847826,,,,,,,,,,,0.5028,1,,,,,,,,,,,,,,m,1,0.5028,,,,,,,,0.018518519,-0.387962963,0,0,0,,0,108,108,3,1,FINGER,LB,old,m,./images/FINGERLB.png,,,,,,,,,,,,,,,,,,,,,,
,,,,,,,,,,,,,,,,,198907,18,2022-01-28_14h30.08.352,lexical_decision_task_DD_L3,2021.2.3,Win32,84.91847826,,,,,,,,,,,0.666,1,,,,,,,,,,,,,,m,1,0.666,,,,,,,,0.018518519,-0.387962963,0,0,0,,0,109,109,14,1,PICKLE,HB,old,m,./images/PICKLEHB.png,,,,,,,,,,,,,,,,,,,,,,
,,,,,,,,,,,,,,,,,198907,18,2022-01-28_14h30.08.352,lexical_decision_task_DD_L3,2021.2.3,Win32,84.91847826,,,,,,,,,,,0.7303,1,,,,,,,,,,,,,,m,1,0.7303,,,,,,,,0.018518519,-0.387962963,0,0,0,,0,110,110,47,1,BERRY,HB,old,m,./images/BERRYHB.png,,,,,,,,,,,,,,,,,,,,,,
,,,,,,,,,,,,,,,,,198907,18,2022-01-28_14h30.08.352,lexical_decision_task_DD_L3,2021.2.3,Win32,84.91847826,,,,,,,,,,,1.5743,1,,,,,,,,,,,,,,z,1,1.5743,,,,,,,,0.018518519,-0.387962963,0,0,0,,0,111,111,157,1,INLER,HB,old,z,./images/INLERHB.png,,,,,,,,,,,,,,,,,,,,,,
,,,,,,,,,,,,,,,,,198907,18,2022-01-28_14h30.08.352,lexical_decision_task_DD_L3,2021.2.3,Win32,84.91847826,,,,,,,,,,,0.6424,1,,,,,,,,,,,,,,z,1,0.6424,,,,,,,,0.018518519,-0.387962963,0,0,0,,0,112,112,93,1,SMONE,C,old,z,./images/SMONE.png,,,,,,,,,,,,,,,,,,,,,,
,,,,,,,,,,,,,,,,,198907,18,2022-01-28_14h30.08.352,lexical_decision_task_DD_L3,2021.2.3,Win32,84.91847826,,,,,,,,,,,0.4719,1,,,,,,,,,,,,,,z,1,0.4719,,,,,,,,0.018518519,-0.387962963,0,0,0,,0,113,113,141,1,PLEET,C,old,z,./images/PLEET.png,,,,,,,,,,,,,,,,,,,,,,
,,,,,,,,,,,,,,,,,198907,18,2022-01-28_14h30.08.352,lexical_decision_task_DD_L3,2021.2.3,Win32,84.91847826,,,,,,,,,,,0.6066,1,,,,,,,,,,,,,,m,1,0.6066,,,,,,,,0.018518519,-0.387962963,0,0,0,,0,114,114,7,1,PAINT,C,old,m,./images/PAINT.png,,,,,,,,,,,,,,,,,,,,,,
,,,,,,,,,,,,,,,,,198907,18,2022-01-28_14h30.08.352,lexical_decision_task_DD_L3,2021.2.3,Win32,84.91847826,,,,,,,,,,,1.0248,1,,,,,,,,,,,,,,z,1,1.0248,,,,,,,,0.018518519,-0.387962963,0,0,0,,0,115,115,106,1,CLUMS,HB,old,z,./images/CLUMSHB.png,,,,,,,,,,,,,,,,,,,,,,
,,,,,,,,,,,,,,,,,198907,18,2022-01-28_14h30.08.352,lexical_decision_task_DD_L3,2021.2.3,Win32,84.91847826,,,,,,,,,,,1.0586,1,,,,,,,,,,,,,,z,1,1.0586,,,,,,,,0.018518519,-0.387962963,0,0,0,,0,116,116,134,1,TROSS,LB,old,z,./images/TROSSLB.png,,,,,,,,,,,,,,,,,,,,,,
,,,,,,,,,,,,,,,,,198907,18,2022-01-28_14h30.08.352,lexical_decision_task_DD_L3,2021.2.3,Win32,84.91847826,,,,,,,,,,,0.5379,1,,,,,,,,,,,,,,m,1,0.5379,,,,,,,,0.018518519,-0.387962963,0,0,0,,0,117,117,25,1,WRIST,C,old,m,./images/WRIST.png,,,,,,,,,,,,,,,,,,,,,,
,,,,,,,,,,,,,,,,,198907,18,2022-01-28_14h30.08.352,lexical_decision_task_DD_L3,2021.2.3,Win32,84.91847826,,,,,,,,,,,1.0615,1,,,,,,,,,,,,,,z,1,1.0615,,,,,,,,0.018518519,-0.387962963,0,0,0,,0,118,118,127,1,NINDY,HB,old,z,./images/NINDYHB.png,,,,,,,,,,,,,,,,,,,,,,
,,,,,,,,,,,,,,,,,198907,18,2022-01-28_14h30.08.352,lexical_decision_task_DD_L3,2021.2.3,Win32,84.91847826,,,,,,,,,,,0.5407,1,,,,,,,,,,,,,,m,1,0.5407,,,,,,,,0.018518519,-0.387962963,0,0,0,,0,119,119,52,1,BANNER,C,old,m,./images/BANNER.png,,,,,,,,,,,,,,,,,,,,,,
,,,,,,,,,,,,,,,,,198907,18,2022-01-28_14h30.08.352,lexical_decision_task_DD_L3,2021.2.3,Win32,84.91847826,,,,,,,,,,,0.5841,1,,,,,,,,,,,,,,m,1,0.5841,,,,,,,,0.018518519,-0.387962963,0,0,0,,0,120,120,43,1,MOSQUE,C,old,m,./images/MOSQUE.png,,,,,,,,,,,,,,,,,,,,,,
,,,,,,,,,,,,,,,,,198907,18,2022-01-28_14h30.08.352,lexical_decision_task_DD_L3,2021.2.3,Win32,84.91847826,,,,,,,,,,,0.6059,1,,,,,,,,,,,,,,m,1,0.6059,,,,,,,,0.018518519,-0.387962963,0,0,0,,0,121,121,55,1,MUFFIN,C,old,m,./images/MUFFIN.png,,,,,,,,,,,,,,,,,,,,,,
,,,,,,,,,,,,,,,,,198907,18,2022-01-28_14h30.08.352,lexical_decision_task_DD_L3,2021.2.3,Win32,84.91847826,,,,,,,,,,,0.9659,1,,,,,,,,,,,,,,z,1,0.9659,,,,,,,,0.018518519,-0.387962963,0,0,0,,0,122,122,109,1,BURGE,HB,old,z,./images/BURGEHB.png,,,,,,,,,,,,,,,,,,,,,,
,,,,,,,,,,,,,,,,,198907,18,2022-01-28_14h30.08.352,lexical_decision_task_DD_L3,2021.2.3,Win32,84.91847826,,,,,,,,,,,0.8409,1,,,,,,,,,,,,,,z,1,0.8409,,,,,,,,0.018518519,-0.387962963,0,0,0,,0,123,123,124,1,TUNCH,HB,old,z,./images/TUNCHHB.png,,,,,,,,,,,,,,,,,,,,,,
,,,,,,,,,,,,,,,,,198907,18,2022-01-28_14h30.08.352,lexical_decision_task_DD_L3,2021.2.3,Win32,84.91847826,,,,,,,,,,,0.4259,1,,,,,,,,,,,,,,m,1,0.4259,,,,,,,,0.018518519,-0.387962963,0,0,0,,0,124,124,67,1,SAILOR,C,old,m,./images/SAILOR.png,,,,,,,,,,,,,,,,,,,,,,
,,,,,,,,,,,,,,,,,198907,18,2022-01-28_14h30.08.352,lexical_decision_task_DD_L3,2021.2.3,Win32,84.91847826,,,,,,,,,,,0.8206,1,,,,,,,,,,,,,,m,1,0.8206,,,,,,,,0.018518519,-0.387962963,0,0,0,space,0,125,125,20,1,CRADLE,HB,old,m,./images/CRADLEHB.png,0.719,,,,,,,,,,,,,,,,,,,,,
,,,,,,,,,,,,,,,,,198907,18,2022-01-28_14h30.08.352,lexical_decision_task_DD_L3,2021.2.3,Win32,84.91847826,,,,,,,,,,,1.045,1,,,,,,,,,,,,,,z,1,1.045,,,,,,,,0.018518519,-0.387962963,0,0,0,,0,126,126,159,1,CUDDY,C,old,z,./images/CUDDY.png,,,,,,,,,,,,,,,,,,,,,,
,,,,,,,,,,,,,,,,,198907,18,2022-01-28_14h30.08.352,lexical_decision_task_DD_L3,2021.2.3,Win32,84.91847826,,,,,,,,,,,0.5657,1,,,,,,,,,,,,,,m,1,0.5657,,,,,,,,0.018518519,-0.387962963,0,0,0,,0,127,127,10,1,BELLY,C,old,m,./images/BELLY.png,,,,,,,,,,,,,,,,,,,,,,
,,,,,,,,,,,,,,,,,198907,18,2022-01-28_14h30.08.352,lexical_decision_task_DD_L3,2021.2.3,Win32,84.91847826,,,,,,,,,,,0.7394,1,,,,,,,,,,,,,,m,1,0.7394,,,,,,,,0.018518519,-0.387962963,0,0,0,,0,128,128,29,1,CRUMB,HB,old,m,./images/CRUMBHB.png,,,,,,,,,,,,,,,,,,,,,,
,,,,,,,,,,,,,,,,,198907,18,2022-01-28_14h30.08.352,lexical_decision_task_DD_L3,2021.2.3,Win32,84.91847826,,,,,,,,,,,0.8733,1,,,,,,,,,,,,,,z,1,0.8733,,,,,,,,0.018518519,-0.387962963,0,0,0,,0,129,129,139,1,BLEAR,HB,old,z,./images/BLEARHB.png,,,,,,,,,,,,,,,,,,,,,,
,,,,,,,,,,,,,,,,,198907,18,2022-01-28_14h30.08.352,lexical_decision_task_DD_L3,2021.2.3,Win32,84.91847826,,,,,,,,,,,0.4955,1,,,,,,,,,,,,,,m,1,0.4955,,,,,,,,0.018518519,-0.387962963,0,0,0,,0,130,130,60,1,TWINS,LB,old,m,./images/TWINSLB.png,,,,,,,,,,,,,,,,,,,,,,
,,,,,,,,,,,,,,,,,198907,18,2022-01-28_14h30.08.352,lexical_decision_task_DD_L3,2021.2.3,Win32,84.91847826,,,,,,,,,,,0.7424,1,,,,,,,,,,,,,,m,1,0.7424,,,,,,,,0.018518519,-0.387962963,0,0,0,,0,131,131,23,1,WALRUS,HB,old,m,./images/WALRUSHB.png,,,,,,,,,,,,,,,,,,,,,,
,,,,,,,,,,,,,,,,,198907,18,2022-01-28_14h30.08.352,lexical_decision_task_DD_L3,2021.2.3,Win32,84.91847826,,,,,,,,,,,0.511,1,,,,,,,,,,,,,,m,1,0.511,,,,,,,,0.018518519,-0.387962963,0,0,0,,0,132,132,64,1,JELLY,C,old,m,./images/JELLY.png,,,,,,,,,,,,,,,,,,,,,,
,,,,,,,,,,,,,,,,,198907,18,2022-01-28_14h30.08.352,lexical_decision_task_DD_L3,2021.2.3,Win32,84.91847826,,,,,,,,,,,0.8202,1,,,,,,,,,,,,,,m,1,0.8202,,,,,,,,0.018518519,-0.387962963,0,0,0,,0,133,133,59,1,BURIAL,HB,old,m,./images/BURIALHB.png,,,,,,,,,,,,,,,,,,,,,,
,,,,,,,,,,,,,,,,,198907,18,2022-01-28_14h30.08.352,lexical_decision_task_DD_L3,2021.2.3,Win32,84.91847826,,,,,,,,,,,0.7662,1,,,,,,,,,,,,,,z,1,0.7662,,,,,,,,0.018518519,-0.387962963,0,0,0,,0,134,134,128,1,GRIFT,LB,old,z,./images/GRIFTLB.png,,,,,,,,,,,,,,,,,,,,,,
,,,,,,,,,,,,,,,,,198907,18,2022-01-28_14h30.08.352,lexical_decision_task_DD_L3,2021.2.3,Win32,84.91847826,,,,,,,,,,,1.2673,1,,,,,,,,,,,,,,m,1,1.2673,,,,,,,,0.018518519,-0.387962963,0,0,0,,0,135,135,71,1,PIMPLE,HB,old,m,./images/PIMPLEHB.png,,,,,,,,,,,,,,,,,,,,,,
,,,,,,,,,,,,,,,,,198907,18,2022-01-28_14h30.08.352,lexical_decision_task_DD_L3,2021.2.3,Win32,84.91847826,,,,,,,,,,,0.7033,1,,,,,,,,,,,,,,m,1,0.7033,,,,,,,,0.018518519,-0.387962963,0,0,0,,0,136,136,56,1,PACKET,HB,old,m,./images/PACKETHB.png,,,,,,,,,,,,,,,,,,,,,,
,,,,,,,,,,,,,,,,,198907,18,2022-01-28_14h30.08.352,lexical_decision_task_DD_L3,2021.2.3,Win32,84.91847826,,,,,,,,,,,0.5942,1,,,,,,,,,,,,,,m,1,0.5942,,,,,,,,0.018518519,-0.387962963,0,0,0,,0,137,137,13,1,MOTOR,C,old,m,./images/MOTOR.png,,,,,,,,,,,,,,,,,,,,,,
,,,,,,,,,,,,,,,,,198907,18,2022-01-28_14h30.08.352,lexical_decision_task_DD_L3,2021.2.3,Win32,84.91847826,,,,,,,,,,,2.2755,1,,,,,,,,,,,,,,z,1,2.2755,,,,,,,,0.018518519,-0.387962963,0,0,0,,0,138,138,151,1,TINKY,HB,old,z,./images/TINKYHB.png,,,,,,,,,,,,,,,,,,,,,,
,,,,,,,,,,,,,,,,,198907,18,2022-01-28_14h30.08.352,lexical_decision_task_DD_L3,2021.2.3,Win32,84.91847826,,,,,,,,,,,0.661,1,,,,,,,,,,,,,,z,1,0.661,,,,,,,,0.018518519,-0.387962963,0,0,0,,0,139,139,108,1,GRUET,C,old,z,./images/GRUET.png,,,,,,,,,,,,,,,,,,,,,,
,,,,,,,,,,,,,,,,,198907,18,2022-01-28_14h30.08.352,lexical_decision_task_DD_L3,2021.2.3,Win32,84.91847826,,,,,,,,,,,0.7616,1,,,,,,,,,,,,,,z,1,0.7616,,,,,,,,0.018518519,-0.387962963,0,0,0,,0,140,140,164,1,SGREW,LB,old,z,./images/SGREWLB.png,,,,,,,,,,,,,,,,,,,,,,
,,,,,,,,,,,,,,,,,198907,18,2022-01-28_14h30.08.352,lexical_decision_task_DD_L3,2021.2.3,Win32,84.91847826,,,,,,,,,,,0.6542,1,,,,,,,,,,,,,,z,1,0.6542,,,,,,,,0.018518519,-0.387962963,0,0,0,,0,141,141,167,1,ZONET,LB,old,z,./images/ZONETLB.png,,,,,,,,,,,,,,,,,,,,,,
,,,,,,,,,,,,,,,,,198907,18,2022-01-28_14h30.08.352,lexical_decision_task_DD_L3,2021.2.3,Win32,84.91847826,,,,,,,,,,,0.9239,1,,,,,,,,,,,,,,z,1,0.9239,,,,,,,,0.018518519,-0.387962963,0,0,0,,0,142,142,145,1,LAMEL,HB,old,z,./images/LAMELHB.png,,,,,,,,,,,,,,,,,,,,,,
,,,,,,,,,,,,,,,,,198907,18,2022-01-28_14h30.08.352,lexical_decision_task_DD_L3,2021.2.3,Win32,84.91847826,,,,,,,,,,,0.6996,1,,,,,,,,,,,,,,z,1,0.6996,,,,,,,,0.018518519,-0.387962963,0,0,0,,0,143,143,163,1,GAMBA,HB,old,z,./images/GAMBAHB.png,,,,,,,,,,,,,,,,,,,,,,
,,,,,,,,,,,,,,,,,198907,18,2022-01-28_14h30.08.352,lexical_decision_task_DD_L3,2021.2.3,Win32,84.91847826,,,,,,,,,,,0.6032,1,,,,,,,,,,,,,,m,1,0.6032,,,,,,,,0.018518519,-0.387962963,0,0,0,,0,144,144,36,1,THROAT,LB,old,m,./images/THROATLB.png,,,,,,,,,,,,,,,,,,,,,,
,,,,,,,,,,,,,,,,,198907,18,2022-01-28_14h30.08.352,lexical_decision_task_DD_L3,2021.2.3,Win32,84.91847826,,,,,,,,,,,1.2991,1,,,,,,,,,,,,,,z,1,1.2991,,,,,,,,0.018518519,-0.387962963,0,0,0,,0,145,145,85,1,CHULK,HB,old,z,./images/CHULKHB.png,,,,,,,,,,,,,,,,,,,,,,
,,,,,,,,,,,,,,,,,198907,18,2022-01-28_14h30.08.352,lexical_decision_task_DD_L3,2021.2.3,Win32,84.91847826,,,,,,,,,,,0.5775,1,,,,,,,,,,,,,,m,1,0.5775,,,,,,,,0.018518519,-0.387962963,0,0,0,,0,146,146,48,1,SPORT,LB,old,m,./images/SPORTLB.png,,,,,,,,,,,,,,,,,,,,,,
,,,,,,,,,,,,,,,,,198907,18,2022-01-28_14h30.08.352,lexical_decision_task_DD_L3,2021.2.3,Win32,84.91847826,,,,,,,,,,,0.6442,1,,,,,,,,,,,,,,z,1,0.6442,,,,,,,,0.018518519,-0.387962963,0,0,0,,0,147,147,95,1,HANTY,LB,old,z,./images/HANTYLB.png,,,,,,,,,,,,,,,,,,,,,,
,,,,,,,,,,,,,,,,,198907,18,2022-01-28_14h30.08.352,lexical_decision_task_DD_L3,2021.2.3,Win32,84.91847826,,,,,,,,,,,0.8466,1,,,,,,,,,,,,,,m,1,0.8466,,,,,,,,0.018518519,-0.387962963,0,0,0,,0,148,148,53,1,CARPET,HB,old,m,./images/CARPETHB.png,,,,,,,,,,,,,,,,,,,,,,
,,,,,,,,,,,,,,,,,198907,18,2022-01-28_14h30.08.352,lexical_decision_task_DD_L3,2021.2.3,Win32,84.91847826,,,,,,,,,,,0.6643,1,,,,,,,,,,,,,,m,1,0.6643,,,,,,,,0.018518519,-0.387962963,0,0,0,,0,149,149,24,1,SCREW,LB,old,m,./images/SCREWLB.png,,,,,,,,,,,,,,,,,,,,,,
,,,,,,,,,,,,,,,,,198907,18,2022-01-28_14h30.08.352,lexical_decision_task_DD_L3,2021.2.3,Win32,84.91847826,,,,,,,,,,,0.8033,1,,,,,,,,,,,,,,m,1,0.8033,,,,,,,,0.018518519,-0.387962963,0,0,0,,0,150,150,65,1,FARMER,HB,old,m,./images/FARMERHB.png,,,,,,,,,,,,,,,,,,,,,,
,,,,,,,,,,,,,,,,,198907,18,2022-01-28_14h30.08.352,lexical_decision_task_DD_L3,2021.2.3,Win32,84.91847826,,,,,,,,,,,0.5999,1,,,,,,,,,,,,,,z,1,0.5999,,,,,,,,0.018518519,-0.387962963,0,0,0,,0,151,151,122,1,BLOOT,LB,old,z,./images/BLOOTLB.png,,,,,,,,,,,,,,,,,,,,,,
,,,,,,,,,,,,,,,,,198907,18,2022-01-28_14h30.08.352,lexical_decision_task_DD_L3,2021.2.3,Win32,84.91847826,,,,,,,,,,,0.5743,1,,,,,,,,,,,,,,m,1,0.5743,,,,,,,,0.018518519,-0.387962963,0,0,0,,0,152,152,4,1,MUSCLE,C,old,m,./images/MUSCLE.png,,,,,,,,,,,,,,,,,,,,,,
,,,,,,,,,,,,,,,,,198907,18,2022-01-28_14h30.08.352,lexical_decision_task_DD_L3,2021.2.3,Win32,84.91847826,,,,,,,,,,,0.5022,1,,,,,,,,,,,,,,m,1,0.5022,,,,,,,,0.018518519,-0.387962963,0,0,0,,0,153,153,40,1,SWING,C,old,m,./images/SWING.png,,,,,,,,,,,,,,,,,,,,,,
,,,,,,,,,,,,,,,,,198907,18,2022-01-28_14h30.08.352,lexical_decision_task_DD_L3,2021.2.3,Win32,84.91847826,,,,,,,,,,,0.7388,1,,,,,,,,,,,,,,z,1,0.7388,,,,,,,,0.018518519,-0.387962963,0,0,0,,0,154,154,149,1,VEASE,LB,old,z,./images/VEASELB.png,,,,,,,,,,,,,,,,,,,,,,
,,,,,,,,,,,,,,,,,198907,18,2022-01-28_14h30.08.352,lexical_decision_task_DD_L3,2021.2.3,Win32,84.91847826,,,,,,,,,,,0.5436,1,,,,,,,,,,,,,,z,1,0.5436,,,,,,,,0.018518519,-0.387962963,0,0,0,,0,155,155,158,1,EGECT,LB,old,z,./images/EGECTLB.png,,,,,,,,,,,,,,,,,,,,,,
,,,,,,,,,,,,,,,,,198907,18,2022-01-28_14h30.08.352,lexical_decision_task_DD_L3,2021.2.3,Win32,84.91847826,,,,,,,,,,,0.7155,1,,,,,,,,,,,,,,z,1,0.7155,,,,,,,,0.018518519,-0.387962963,0,0,0,,0,156,156,111,1,HOSSE,C,old,z,./images/HOSSE.png,,,,,,,,,,,,,,,,,,,,,,
,,,,,,,,,,,,,,,,,198907,18,2022-01-28_14h30.08.352,lexical_decision_task_DD_L3,2021.2.3,Win32,84.91847826,,,,,,,,,,,1.3998,1,,,,,,,,,,,,,,z,1,1.3998,,,,,,,,0.018518519,-0.387962963,0,0,0,,0,157,157,91,1,SHENS,HB,old,z,./images/SHENSHB.png,,,,,,,,,,,,,,,,,,,,,,
,,,,,,,,,,,,,,,,,198907,18,2022-01-28_14h30.08.352,lexical_decision_task_DD_L3,2021.2.3,Win32,84.91847826,,,,,,,,,,,0.6006,1,,,,,,,,,,,,,,z,1,0.6006,,,,,,,,0.018518519,-0.387962963,0,0,0,,0,158,158,98,1,BAMPS,LB,old,z,./images/BAMPSLB.png,,,,,,,,,,,,,,,,,,,,,,
,,,,,,,,,,,,,,,,,198907,18,2022-01-28_14h30.08.352,lexical_decision_task_DD_L3,2021.2.3,Win32,84.91847826,,,,,,,,,,,0.5436,1,,,,,,,,,,,,,,z,1,0.5436,,,,,,,,0.018518519,-0.387962963,0,0,0,,0,159,159,153,1,CLUPS,C,old,z,./images/CLUPS.png,,,,,,,,,,,,,,,,,,,,,,
,,,,,,,,,,,,,,,,,198907,18,2022-01-28_14h30.08.352,lexical_decision_task_DD_L3,2021.2.3,Win32,84.91847826,,,,,,,,,,,0.5365,1,,,,,,,,,,,,,,m,1,0.5365,,,,,,,,0.018518519,-0.387962963,0,0,0,,0,160,160,37,1,BIRTH,C,old,m,./images/BIRTH.png,,,,,,,,,,,,,,,,,,,,,,
,,,,,,,,,,,,,,,,,198907,18,2022-01-28_14h30.08.352,lexical_decision_task_DD_L3,2021.2.3,Win32,84.91847826,,,,,,,,,,,0.7035,1,,,,,,,,,,,,,,z,1,0.7035,,,,,,,,0.018518519,-0.387962963,0,0,0,,0,161,161,161,1,BLAPS,LB,old,z,./images/BLAPSLB.png,,,,,,,,,,,,,,,,,,,,,,
,,,,,,,,,,,,,,,,,198907,18,2022-01-28_14h30.08.352,lexical_decision_task_DD_L3,2021.2.3,Win32,84.91847826,,,,,,,,,,,0.6878,1,,,,,,,,,,,,,,m,1,0.6878,,,,,,,,0.018518519,-0.387962963,0,0,0,,0,162,162,50,1,MALLET,HB,old,m,./images/MALLETHB.png,,,,,,,,,,,,,,,,,,,,,,
,,,,,,,,,,,,,,,,,198907,18,2022-01-28_14h30.08.352,lexical_decision_task_DD_L3,2021.2.3,Win32,84.91847826,,,,,,,,,,,0.5893,1,,,,,,,,,,,,,,m,1,0.5893,,,,,,,,0.018518519,-0.387962963,0,0,0,,0,163,163,45,1,KITTEN,LB,old,m,./images/KITTENLB.png,,,,,,,,,,,,,,,,,,,,,,
,,,,,,,,,,,,,,,,,198907,18,2022-01-28_14h30.08.352,lexical_decision_task_DD_L3,2021.2.3,Win32,84.91847826,,,,,,,,,,,0.6814,1,,,,,,,,,,,,,,m,1,0.6814,,,,,,,,0.018518519,-0.387962963,0,0,0,,0,164,164,34,1,CANYON,C,old,m,./images/CANYON.png,,,,,,,,,,,,,,,,,,,,,,
,,,,,,,,,,,,,,,,,198907,18,2022-01-28_14h30.08.352,lexical_decision_task_DD_L3,2021.2.3,Win32,84.91847826,,,,,,,,,,,0.6713,1,,,,,,,,,,,,,,z,1,0.6713,,,,,,,,0.018518519,-0.387962963,0,0,0,,0,165,165,99,1,BACKY,C,old,z,./images/BACKY.png,,,,,,,,,,,,,,,,,,,,,,
,,,,,,,,,,,,,,,,,198907,18,2022-01-28_14h30.08.352,lexical_decision_task_DD_L3,2021.2.3,Win32,84.91847826,,,,,,,,,,,0.5458,1,,,,,,,,,,,,,,m,1,0.5458,,,,,,,,0.018518519,-0.387962963,0,0,0,,0,166,166,51,1,ONION,LB,old,m,./images/ONIONLB.png,,,,,,,,,,,,,,,,,,,,,,
,,,,,,,,,,,,,,,,,198907,18,2022-01-28_14h30.08.352,lexical_decision_task_DD_L3,2021.2.3,Win32,84.91847826,,,,,,,,,,,2.1981,1,,,,,,,,,,,,,,z,1,2.1981,,,,,,,,0.018518519,-0.387962963,0,0,0,,0,167,167,133,1,POWDY,HB,old,z,./images/POWDYHB.png,,,,,,,,,,,,,,,,,,,,,,
space,0.018518519,-0.387962963,0,0,0,,,,,,,1,test,"In the next phase you will be presented with the words from the the first phase. Your job is to decide whether you remember seeing the word or not. If you remember seeing the word press ""old"" or type ""m"". If you do not remember seeing the word press ""new"" or type ""z"". Please press the space bar or click on continue to begin. ",,,198907,18,2022-01-28_14h30.08.352,lexical_decision_task_DD_L3,2021.2.3,Win32,84.91847826,,,,,,,,,,,,,,,,,,,,,,,,,,,,,,,,,,,,,,,,,,,,,,,,,,,,,6.8789,0,0,0,0,1,,,,,,,,,,,,,,,
space,0.018518519,-0.387962963,0,0,0,,,,,,,1,test,"In the next phase you will be presented with the words from the the first phase. Your job is to decide whether you remember seeing the word or not. If you remember seeing the word press ""old"" or type ""m"". If you do not remember seeing the word press ""new"" or type ""z"". Please press the space bar or click on continue to begin. ",,,198907,18,2022-01-28_14h30.08.352,lexical_decision_task_DD_L3,2021.2.3,Win32,84.91847826,,,,,,,,,,,,,,,,,,,,,,,,,,,,,,,,,,,,,,,,,,,,,,,,,,,,,0.8655,1,0,1,0,1,,,,,,,,,,,,,,,
space,0.039814815,-0.382407407,0,0,0,,,,,,,1,test,"In the next phase you will be presented with the words from the the first phase. Your job is to decide whether you remember seeing the word or not. If you remember seeing the word press ""old"" or type ""m"". If you do not remember seeing the word press ""new"" or type ""z"". Please press the space bar or click on continue to begin. ",,,198907,18,2022-01-28_14h30.08.352,lexical_decision_task_DD_L3,2021.2.3,Win32,84.91847826,,,,,,,,,,,,,,,,,,,,,,,,,,,,,,,,,,,,,,,,,,,,,,,,,,,,,1.5271,2,0,2,0,1,,,,,,,,,,,,,,,
,0.039814815,-0.383333333,1,0,0,instr_done_button,,,,,,1,test,"In the next phase you will be presented with the words from the the first phase. Your job is to decide whether you remember seeing the word or not. If you remember seeing the word press ""old"" or type ""m"". If you do not remember seeing the word press ""new"" or type ""z"". Please press the space bar or click on continue to begin. ",,,198907,18,2022-01-28_14h30.08.352,lexical_decision_task_DD_L3,2021.2.3,Win32,84.91847826,,,,,,,,,,,,,,,,,,,,,,,,,,,,,,,,,,,,,,,,,,,,,,,,,,,,,,3,0,3,0,1,,,,,,,,,,,,,,,
,-0.006481481,-0.408333333,1,0,0,instr_done_button,,,,,,1,test,"In the next phase you will be presented with the words from the the first phase. Your job is to decide whether you remember seeing the word or not. If you remember seeing the word press ""old"" or type ""m"". If you do not remember seeing the word press ""new"" or type ""z"". Please press the space bar or click on continue to begin. ",,,198907,18,2022-01-28_14h30.08.352,lexical_decision_task_DD_L3,2021.2.3,Win32,84.91847826,,,,,,,,,,,,,,,,,,,,,,,,,,,,,,,,,,,,,,,,,,,,,,,,,,,,,,4,0,4,0,1,,,,,,,,,,,,,,,
,,,,,,,,,,,,,,,,,198907,18,2022-01-28_14h30.08.352,lexical_decision_task_DD_L3,2021.2.3,Win32,84.91847826,,,,,,,,,,,2.0003,1,,,,,,,,,,,,,,,,,,,,,,,,-0.007407407,-0.393518519,0,0,0,,,,,,,PEARL,C,m,m,./images/PEARL.png,,,,,,,,m,1,2.0003,,,,,,,,0,0,0,46,1
,,,,,,,,,,,,,,,,,198907,18,2022-01-28_14h30.08.352,lexical_decision_task_DD_L3,2021.2.3,Win32,84.91847826,,,,,,,,,,,0.754,0,,,,,,,,,,,,,,,,,,,,,,,,-0.007407407,-0.393518519,0,0,0,,,,,,,SNAKE,C,z,m,./images/SNAKE.png,,,,,,,,m,0,0.754,,,,,,,,0,1,1,124,1
,,,,,,,,,,,,,,,,,198907,18,2022-01-28_14h30.08.352,lexical_decision_task_DD_L3,2021.2.3,Win32,84.91847826,,,,,,,,,,,0.7474,1,,,,,,,,,,,,,,,,,,,,,,,,-0.007407407,-0.393518519,0,0,0,,,,,,,MEDAL,HB,z,m,./images/MEDALHB.png,,,,,,,,z,1,0.7474,,,,,,,,0,2,2,95,1
,,,,,,,,,,,,,,,,,198907,18,2022-01-28_14h30.08.352,lexical_decision_task_DD_L3,2021.2.3,Win32,84.91847826,,,,,,,,,,,0.6362,1,,,,,,,,,,,,,,,,,,,,,,,,-0.007407407,-0.393518519,0,0,0,,,,,,,MOSQUE,C,m,m,./images/MOSQUE.png,,,,,,,,m,1,0.6362,,,,,,,,0,3,3,43,1
,,,,,,,,,,,,,,,,,198907,18,2022-01-28_14h30.08.352,lexical_decision_task_DD_L3,2021.2.3,Win32,84.91847826,,,,,,,,,,,0.7805,1,,,,,,,,,,,,,,,,,,,,,,,,-0.007407407,-0.393518519,0,0,0,,,,,,,SKIING,HB,m,m,./images/SKIINGHB.png,,,,,,,,m,1,0.7805,,,,,,,,0,4,4,17,1
,,,,,,,,,,,,,,,,,198907,18,2022-01-28_14h30.08.352,lexical_decision_task_DD_L3,2021.2.3,Win32,84.91847826,,,,,,,,,,,1.2521,1,,,,,,,,,,,,,,,,,,,,,,,,-0.007407407,-0.393518519,0,0,0,,,,,,,CURRY,LB,z,m,./images/CURRYLB.png,,,,,,,,z,1,1.2521,,,,,,,,0,5,5,144,1
,,,,,,,,,,,,,,,,,198907,18,2022-01-28_14h30.08.352,lexical_decision_task_DD_L3,2021.2.3,Win32,84.91847826,,,,,,,,,,,0.648,1,,,,,,,,,,,,,,,,,,,,,,,,-0.007407407,-0.393518519,0,0,0,,,,,,,DOUGH,C,m,m,./images/DOUGH.png,,,,,,,,m,1,0.648,,,,,,,,0,6,6,19,1
,,,,,,,,,,,,,,,,,198907,18,2022-01-28_14h30.08.352,lexical_decision_task_DD_L3,2021.2.3,Win32,84.91847826,,,,,,,,,,,0.7459,0,,,,,,,,,,,,,,,,,,,,,,,,-0.007407407,-0.393518519,0,0,0,,,,,,,MUMMY,C,z,m,./images/MUMMY.png,,,,,,,,m,0,0.7459,,,,,,,,0,7,7,130,1
,,,,,,,,,,,,,,,,,198907,18,2022-01-28_14h30.08.352,lexical_decision_task_DD_L3,2021.2.3,Win32,84.91847826,,,,,,,,,,,0.7078,1,,,,,,,,,,,,,,,,,,,,,,,,-0.007407407,-0.393518519,0,0,0,,,,,,,CARPET,HB,m,m,./images/CARPETHB.png,,,,,,,,m,1,0.7078,,,,,,,,0,8,8,53,1
,,,,,,,,,,,,,,,,,198907,18,2022-01-28_14h30.08.352,lexical_decision_task_DD_L3,2021.2.3,Win32,84.91847826,,,,,,,,,,,0.5646,1,,,,,,,,,,,,,,,,,,,,,,,,-0.007407407,-0.393518519,0,0,0,,,,,,,MUSCLE,C,m,m,./images/MUSCLE.png,,,,,,,,m,1,0.5646,,,,,,,,0,9,9,4,1
,,,,,,,,,,,,,,,,,198907,18,2022-01-28_14h30.08.352,lexical_decision_task_DD_L3,2021.2.3,Win32,84.91847826,,,,,,,,,,,0.6057,1,,,,,,,,,,,,,,,,,,,,,,,,-0.007407407,-0.393518519,0,0,0,,,,,,,PARADE,HB,z,m,./images/PARADEHB.png,,,,,,,,z,1,0.6057,,,,,,,,0,10,10,101,1
,,,,,,,,,,,,,,,,,198907,18,2022-01-28_14h30.08.352,lexical_decision_task_DD_L3,2021.2.3,Win32,84.91847826,,,,,,,,,,,0.6874,1,,,,,,,,,,,,,,,,,,,,,,,,-0.007407407,-0.393518519,0,0,0,,,,,,,ARROW,LB,z,m,./images/ARROWLB.png,,,,,,,,z,1,0.6874,,,,,,,,0,11,11,153,1
,,,,,,,,,,,,,,,,,198907,18,2022-01-28_14h30.08.352,lexical_decision_task_DD_L3,2021.2.3,Win32,84.91847826,,,,,,,,,,,0.5579,1,,,,,,,,,,,,,,,,,,,,,,,,-0.007407407,-0.393518519,0,0,0,,,,,,,BIRTH,C,m,m,./images/BIRTH.png,,,,,,,,m,1,0.5579,,,,,,,,0,12,12,37,1
,,,,,,,,,,,,,,,,,198907,18,2022-01-28_14h30.08.352,lexical_decision_task_DD_L3,2021.2.3,Win32,84.91847826,,,,,,,,,,,0.6703,1,,,,,,,,,,,,,,,,,,,,,,,,-0.007407407,-0.393518519,0,0,0,,,,,,,TWINS,LB,m,m,./images/TWINSLB.png,,,,,,,,m,1,0.6703,,,,,,,,0,13,13,60,1
,,,,,,,,,,,,,,,,,198907,18,2022-01-28_14h30.08.352,lexical_decision_task_DD_L3,2021.2.3,Win32,84.91847826,,,,,,,,,,,0.8796,0,,,,,,,,,,,,,,,,,,,,,,,,-0.007407407,-0.393518519,0,0,0,,,,,,,BASKET,HB,z,m,./images/BASKETHB.png,,,,,,,,m,0,0.8796,,,,,,,,0,14,14,128,1
,,,,,,,,,,,,,,,,,198907,18,2022-01-28_14h30.08.352,lexical_decision_task_DD_L3,2021.2.3,Win32,84.91847826,,,,,,,,,,,0.837,0,,,,,,,,,,,,,,,,,,,,,,,,-0.007407407,-0.393518519,0,0,0,,,,,,,CANDLE,C,m,m,./images/CANDLE.png,,,,,,,,z,0,0.837,,,,,,,,0,15,15,61,1
,,,,,,,,,,,,,,,,,198907,18,2022-01-28_14h30.08.352,lexical_decision_task_DD_L3,2021.2.3,Win32,84.91847826,,,,,,,,,,,0.5466,1,,,,,,,,,,,,,,,,,,,,,,,,-0.007407407,-0.393518519,0,0,0,,,,,,,STORM,LB,m,m,./images/STORMLB.png,,,,,,,,m,1,0.5466,,,,,,,,0,16,16,30,1
,,,,,,,,,,,,,,,,,198907,18,2022-01-28_14h30.08.352,lexical_decision_task_DD_L3,2021.2.3,Win32,84.91847826,,,,,,,,,,,0.9933,0,,,,,,,,,,,,,,,,,,,,,,,,-0.007407407,-0.393518519,0,0,0,,,,,,,BROOM,LB,z,m,./images/BROOMLB.png,,,,,,,,m,0,0.9933,,,,,,,,0,17,17,162,1
,,,,,,,,,,,,,,,,,198907,18,2022-01-28_14h30.08.352,lexical_decision_task_DD_L3,2021.2.3,Win32,84.91847826,,,,,,,,,,,0.6461,1,,,,,,,,,,,,,,,,,,,,,,,,-0.007407407,-0.393518519,0,0,0,,,,,,,TOMATO,LB,m,m,./images/TOMATOLB.png,,,,,,,,m,1,0.6461,,,,,,,,0,18,18,0,1
,,,,,,,,,,,,,,,,,198907,18,2022-01-28_14h30.08.352,lexical_decision_task_DD_L3,2021.2.3,Win32,84.91847826,,,,,,,,,,,0.653,0,,,,,,,,,,,,,,,,,,,,,,,,-0.007407407,-0.393518519,0,0,0,,,,,,,PARCEL,LB,z,m,./images/PARCELLB.png,,,,,,,,m,0,0.653,,,,,,,,0,19,19,102,1
,,,,,,,,,,,,,,,,,198907,18,2022-01-28_14h30.08.352,lexical_decision_task_DD_L3,2021.2.3,Win32,84.91847826,,,,,,,,,,,0.6009,1,,,,,,,,,,,,,,,,,,,,,,,,-0.007407407,-0.393518519,0,0,0,,,,,,,LADDER,HB,m,m,./images/LADDERHB.png,,,,,,,,m,1,0.6009,,,,,,,,0,20,20,38,1
,,,,,,,,,,,,,,,,,198907,18,2022-01-28_14h30.08.352,lexical_decision_task_DD_L3,2021.2.3,Win32,84.91847826,,,,,,,,,,,0.7652,1,,,,,,,,,,,,,,,,,,,,,,,,-0.007407407,-0.393518519,0,0,0,,,,,,,PLANET,HB,z,m,./images/PLANETHB.png,,,,,,,,z,1,0.7652,,,,,,,,0,21,21,164,1
,,,,,,,,,,,,,,,,,198907,18,2022-01-28_14h30.08.352,lexical_decision_task_DD_L3,2021.2.3,Win32,84.91847826,,,,,,,,,,,0.8813,0,,,,,,,,,,,,,,,,,,,,,,,,-0.007407407,-0.393518519,0,0,0,,,,,,,GRAPE,C,z,m,./images/GRAPE.png,,,,,,,,m,0,0.8813,,,,,,,,0,22,22,100,1
,,,,,,,,,,,,,,,,,198907,18,2022-01-28_14h30.08.352,lexical_decision_task_DD_L3,2021.2.3,Win32,84.91847826,,,,,,,,,,,0.5777,0,,,,,,,,,,,,,,,,,,,,,,,,-0.007407407,-0.393518519,0,0,0,,,,,,,HAMMER,LB,z,m,./images/HAMMERLB.png,,,,,,,,m,0,0.5777,,,,,,,,0,23,23,159,1
,,,,,,,,,,,,,,,,,198907,18,2022-01-28_14h30.08.352,lexical_decision_task_DD_L3,2021.2.3,Win32,84.91847826,,,,,,,,,,,0.9619,0,,,,,,,,,,,,,,,,,,,,,,,,-0.007407407,-0.393518519,0,0,0,,,,,,,FERRY,LB,z,m,./images/FERRYLB.png,,,,,,,,m,0,0.9619,,,,,,,,0,24,24,141,1
,,,,,,,,,,,,,,,,,198907,18,2022-01-28_14h30.08.352,lexical_decision_task_DD_L3,2021.2.3,Win32,84.91847826,,,,,,,,,,,1.8318,0,,,,,,,,,,,,,,,,,,,,,,,,-0.007407407,-0.393518519,0,0,0,,,,,,,CHALK,C,z,m,./images/CHALK.png,,,,,,,,m,0,1.8318,,,,,,,,0,25,25,109,1
,,,,,,,,,,,,,,,,,198907,18,2022-01-28_14h30.08.352,lexical_decision_task_DD_L3,2021.2.3,Win32,84.91847826,,,,,,,,,,,0.6966,1,,,,,,,,,,,,,,,,,,,,,,,,-0.007407407,-0.393518519,0,0,0,,,,,,,CRUMB,HB,m,m,./images/CRUMBHB.png,,,,,,,,m,1,0.6966,,,,,,,,0,26,26,29,1
,,,,,,,,,,,,,,,,,198907,18,2022-01-28_14h30.08.352,lexical_decision_task_DD_L3,2021.2.3,Win32,84.91847826,,,,,,,,,,,0.8153,1,,,,,,,,,,,,,,,,,,,,,,,,-0.007407407,-0.393518519,0,0,0,,,,,,,SWEAT,LB,m,m,./images/SWEATLB.png,,,,,,,,m,1,0.8153,,,,,,,,0,27,27,66,1
,,,,,,,,,,,,,,,,,198907,18,2022-01-28_14h30.08.352,lexical_decision_task_DD_L3,2021.2.3,Win32,84.91847826,,,,,,,,,,,0.672,1,,,,,,,,,,,,,,,,,,,,,,,,-0.007407407,-0.393518519,0,0,0,,,,,,,ONION,LB,m,m,./images/ONIONLB.png,,,,,,,,m,1,0.672,,,,,,,,0,28,28,51,1
,,,,,,,,,,,,,,,,,198907,18,2022-01-28_14h30.08.352,lexical_decision_task_DD_L3,2021.2.3,Win32,84.91847826,,,,,,,,,,,0.7085,1,,,,,,,,,,,,,,,,,,,,,,,,-0.007407407,-0.393518519,0,0,0,,,,,,,FARMER,HB,m,m,./images/FARMERHB.png,,,,,,,,m,1,0.7085,,,,,,,,0,29,29,65,1
,,,,,,,,,,,,,,,,,198907,18,2022-01-28_14h30.08.352,lexical_decision_task_DD_L3,2021.2.3,Win32,84.91847826,,,,,,,,,,,0.747,1,,,,,,,,,,,,,,,,,,,,,,,,-0.007407407,-0.393518519,0,0,0,,,,,,,BELLY,C,m,m,./images/BELLY.png,,,,,,,,m,1,0.747,,,,,,,,0,30,30,10,1
,,,,,,,,,,,,,,,,,198907,18,2022-01-28_14h30.08.352,lexical_decision_task_DD_L3,2021.2.3,Win32,84.91847826,,,,,,,,,,,0.8842,1,,,,,,,,,,,,,,,,,,,,,,,,-0.007407407,-0.393518519,0,0,0,,,,,,,JAGUAR,LB,m,m,./images/JAGUARLB.png,,,,,,,,m,1,0.8842,,,,,,,,0,31,31,18,1
,,,,,,,,,,,,,,,,,198907,18,2022-01-28_14h30.08.352,lexical_decision_task_DD_L3,2021.2.3,Win32,84.91847826,,,,,,,,,,,0.8396,1,,,,,,,,,,,,,,,,,,,,,,,,-0.007407407,-0.393518519,0,0,0,,,,,,,CHERRY,LB,z,m,./images/CHERRYLB.png,,,,,,,,z,1,0.8396,,,,,,,,0,32,32,138,1
,,,,,,,,,,,,,,,,,198907,18,2022-01-28_14h30.08.352,lexical_decision_task_DD_L3,2021.2.3,Win32,84.91847826,,,,,,,,,,,0.6833,1,,,,,,,,,,,,,,,,,,,,,,,,-0.007407407,-0.393518519,0,0,0,,,,,,,DESERT,C,z,m,./images/DESERT.png,,,,,,,,z,1,0.6833,,,,,,,,0,33,33,136,1
,,,,,,,,,,,,,,,,,198907,18,2022-01-28_14h30.08.352,lexical_decision_task_DD_L3,2021.2.3,Win32,84.91847826,,,,,,,,,,,0.684,1,,,,,,,,,,,,,,,,,,,,,,,,-0.007407407,-0.393518519,0,0,0,,,,,,,TORCH,HB,m,m,./images/TORCHHB.png,,,,,,,,m,1,0.684,,,,,,,,0,34,34,68,1
,,,,,,,,,,,,,,,,,198907,18,2022-01-28_14h30.08.352,lexical_decision_task_DD_L3,2021.2.3,Win32,84.91847826,,,,,,,,,,,0.7528,1,,,,,,,,,,,,,,,,,,,,,,,,-0.007407407,-0.393518519,0,0,0,,,,,,,SAILOR,C,m,m,./images/SAILOR.png,,,,,,,,m,1,0.7528,,,,,,,,0,35,35,67,1
,,,,,,,,,,,,,,,,,198907,18,2022-01-28_14h30.08.352,lexical_decision_task_DD_L3,2021.2.3,Win32,84.91847826,,,,,,,,,,,0.6528,0,,,,,,,,,,,,,,,,,,,,,,,,-0.007407407,-0.393518519,0,0,0,,,,,,,BAKER,LB,z,m,./images/BAKERLB.png,,,,,,,,m,0,0.6528,,,,,,,,0,36,36,147,1
,,,,,,,,,,,,,,,,,198907,18,2022-01-28_14h30.08.352,lexical_decision_task_DD_L3,2021.2.3,Win32,84.91847826,,,,,,,,,,,0.6695,1,,,,,,,,,,,,,,,,,,,,,,,,-0.007407407,-0.393518519,0,0,0,,,,,,,PICKLE,HB,m,m,./images/PICKLEHB.png,,,,,,,,m,1,0.6695,,,,,,,,0,37,37,14,1
,,,,,,,,,,,,,,,,,198907,18,2022-01-28_14h30.08.352,lexical_decision_task_DD_L3,2021.2.3,Win32,84.91847826,,,,,,,,,,,0.9885,1,,,,,,,,,,,,,,,,,,,,,,,,-0.007407407,-0.393518519,0,0,0,,,,,,,BLOKE,LB,z,m,./images/BLOKELB.png,,,,,,,,z,1,0.9885,,,,,,,,0,38,38,96,1
,,,,,,,,,,,,,,,,,198907,18,2022-01-28_14h30.08.352,lexical_decision_task_DD_L3,2021.2.3,Win32,84.91847826,,,,,,,,,,,0.9382,0,,,,,,,,,,,,,,,,,,,,,,,,-0.007407407,-0.393518519,0,0,0,,,,,,,SWING,C,m,m,./images/SWING.png,,,,,,,,z,0,0.9382,,,,,,,,0,39,39,40,1
,,,,,,,,,,,,,,,,,198907,18,2022-01-28_14h30.08.352,lexical_decision_task_DD_L3,2021.2.3,Win32,84.91847826,,,,,,,,,,,0.7198,1,,,,,,,,,,,,,,,,,,,,,,,,-0.007407407,-0.393518519,0,0,0,,,,,,,BISHOP,C,z,m,./images/BISHOP.png,,,,,,,,z,1,0.7198,,,,,,,,0,40,40,133,1
,,,,,,,,,,,,,,,,,198907,18,2022-01-28_14h30.08.352,lexical_decision_task_DD_L3,2021.2.3,Win32,84.91847826,,,,,,,,,,,0.6811,0,,,,,,,,,,,,,,,,,,,,,,,,-0.007407407,-0.393518519,0,0,0,space,,,,,,PASTA,HB,m,m,./images/PASTAHB.png,1.4034,,,,,,,z,0,0.6811,,,,,,,,0,41,41,5,1
,,,,,,,,,,,,,,,,,198907,18,2022-01-28_14h30.08.352,lexical_decision_task_DD_L3,2021.2.3,Win32,84.91847826,,,,,,,,,,,0.7131,1,,,,,,,,,,,,,,,,,,,,,,,,-0.007407407,-0.393518519,0,0,0,,,,,,,PISTOL,HB,z,m,./images/PISTOLHB.png,,,,,,,,z,1,0.7131,,,,,,,,0,42,42,113,1
,,,,,,,,,,,,,,,,,198907,18,2022-01-28_14h30.08.352,lexical_decision_task_DD_L3,2021.2.3,Win32,84.91847826,,,,,,,,,,,0.6008,1,,,,,,,,,,,,,,,,,,,,,,,,-0.007407407,-0.393518519,0,0,0,,,,,,,STEAK,C,z,m,./images/STEAK.png,,,,,,,,z,1,0.6008,,,,,,,,0,43,43,115,1
,,,,,,,,,,,,,,,,,198907,18,2022-01-28_14h30.08.352,lexical_decision_task_DD_L3,2021.2.3,Win32,84.91847826,,,,,,,,,,,0.7612,1,,,,,,,,,,,,,,,,,,,,,,,,-0.007407407,-0.393518519,0,0,0,,,,,,,DIVER,LB,z,m,./images/DIVERLB.png,,,,,,,,z,1,0.7612,,,,,,,,0,44,44,93,1
,,,,,,,,,,,,,,,,,198907,18,2022-01-28_14h30.08.352,lexical_decision_task_DD_L3,2021.2.3,Win32,84.91847826,,,,,,,,,,,0.6289,0,,,,,,,,,,,,,,,,,,,,,,,,-0.007407407,-0.393518519,0,0,0,,,,,,,BUNNY,C,z,m,./images/BUNNY.png,,,,,,,,m,0,0.6289,,,,,,,,0,45,45,97,1
,,,,,,,,,,,,,,,,,198907,18,2022-01-28_14h30.08.352,lexical_decision_task_DD_L3,2021.2.3,Win32,84.91847826,,,,,,,,,,,0.596,0,,,,,,,,,,,,,,,,,,,,,,,,-0.007407407,-0.393518519,0,0,0,,,,,,,RULER,C,z,m,./images/RULER.png,,,,,,,,m,0,0.596,,,,,,,,0,46,46,163,1
,,,,,,,,,,,,,,,,,198907,18,2022-01-28_14h30.08.352,lexical_decision_task_DD_L3,2021.2.3,Win32,84.91847826,,,,,,,,,,,0.6122,1,,,,,,,,,,,,,,,,,,,,,,,,-0.007407407,-0.393518519,0,0,0,,,,,,,THROAT,LB,m,m,./images/THROATLB.png,,,,,,,,m,1,0.6122,,,,,,,,0,47,47,36,1
,,,,,,,,,,,,,,,,,198907,18,2022-01-28_14h30.08.352,lexical_decision_task_DD_L3,2021.2.3,Win32,84.91847826,,,,,,,,,,,0.8788,1,,,,,,,,,,,,,,,,,,,,,,,,-0.007407407,-0.393518519,0,0,0,,,,,,,LITTER,LB,m,m,./images/LITTERLB.png,,,,,,,,m,1,0.8788,,,,,,,,0,48,48,78,1
,,,,,,,,,,,,,,,,,198907,18,2022-01-28_14h30.08.352,lexical_decision_task_DD_L3,2021.2.3,Win32,84.91847826,,,,,,,,,,,1.2553,1,,,,,,,,,,,,,,,,,,,,,,,,-0.007407407,-0.393518519,0,0,0,,,,,,,STATUE,LB,z,m,./images/STATUELB.png,,,,,,,,z,1,1.2553,,,,,,,,0,49,49,150,1
,,,,,,,,,,,,,,,,,198907,18,2022-01-28_14h30.08.352,lexical_decision_task_DD_L3,2021.2.3,Win32,84.91847826,,,,,,,,,,,0.777,0,,,,,,,,,,,,,,,,,,,,,,,,-0.007407407,-0.393518519,0,0,0,,,,,,,RAZOR,C,z,m,./images/RAZOR.png,,,,,,,,m,0,0.777,,,,,,,,0,50,50,118,1
,,,,,,,,,,,,,,,,,198907,18,2022-01-28_14h30.08.352,lexical_decision_task_DD_L3,2021.2.3,Win32,84.91847826,,,,,,,,,,,0.6402,1,,,,,,,,,,,,,,,,,,,,,,,,-0.007407407,-0.393518519,0,0,0,,,,,,,SHELF,LB,m,m,./images/SHELFLB.png,,,,,,,,m,1,0.6402,,,,,,,,0,51,51,39,1
,,,,,,,,,,,,,,,,,198907,18,2022-01-28_14h30.08.352,lexical_decision_task_DD_L3,2021.2.3,Win32,84.91847826,,,,,,,,,,,0.682,1,,,,,,,,,,,,,,,,,,,,,,,,-0.007407407,-0.393518519,0,0,0,,,,,,,VALLEY,HB,z,m,./images/VALLEYHB.png,,,,,,,,z,1,0.682,,,,,,,,0,52,52,152,1
,,,,,,,,,,,,,,,,,198907,18,2022-01-28_14h30.08.352,lexical_decision_task_DD_L3,2021.2.3,Win32,84.91847826,,,,,,,,,,,0.6129,0,,,,,,,,,,,,,,,,,,,,,,,,-0.007407407,-0.393518519,0,0,0,,,,,,,BRIDE,C,z,m,./images/BRIDE.png,,,,,,,,m,0,0.6129,,,,,,,,0,53,53,148,1
,,,,,,,,,,,,,,,,,198907,18,2022-01-28_14h30.08.352,lexical_decision_task_DD_L3,2021.2.3,Win32,84.91847826,,,,,,,,,,,0.6853,1,,,,,,,,,,,,,,,,,,,,,,,,-0.007407407,-0.393518519,0,0,0,,,,,,,PEACH,HB,m,m,./images/PEACHHB.png,,,,,,,,m,1,0.6853,,,,,,,,0,54,54,35,1
,,,,,,,,,,,,,,,,,198907,18,2022-01-28_14h30.08.352,lexical_decision_task_DD_L3,2021.2.3,Win32,84.91847826,,,,,,,,,,,0.6618,1,,,,,,,,,,,,,,,,,,,,,,,,-0.007407407,-0.393518519,0,0,0,,,,,,,DRUMS,C,m,m,./images/DRUMS.png,,,,,,,,m,1,0.6618,,,,,,,,0,55,55,49,1
,,,,,,,,,,,,,,,,,198907,18,2022-01-28_14h30.08.352,lexical_decision_task_DD_L3,2021.2.3,Win32,84.91847826,,,,,,,,,,,0.6844,1,,,,,,,,,,,,,,,,,,,,,,,,-0.007407407,-0.393518519,0,0,0,,,,,,,BANNER,C,m,m,./images/BANNER.png,,,,,,,,m,1,0.6844,,,,,,,,0,56,56,52,1
,,,,,,,,,,,,,,,,,198907,18,2022-01-28_14h30.08.352,lexical_decision_task_DD_L3,2021.2.3,Win32,84.91847826,,,,,,,,,,,0.7481,1,,,,,,,,,,,,,,,,,,,,,,,,-0.007407407,-0.393518519,0,0,0,,,,,,,FLASK,LB,z,m,./images/FLASKLB.png,,,,,,,,z,1,0.7481,,,,,,,,0,57,57,156,1
,,,,,,,,,,,,,,,,,198907,18,2022-01-28_14h30.08.352,lexical_decision_task_DD_L3,2021.2.3,Win32,84.91847826,,,,,,,,,,,0.8051,0,,,,,,,,,,,,,,,,,,,,,,,,-0.007407407,-0.393518519,0,0,0,,,,,,,COLLAR,LB,z,m,./images/COLLARLB.png,,,,,,,,m,0,0.8051,,,,,,,,0,58,58,99,1
,,,,,,,,,,,,,,,,,198907,18,2022-01-28_14h30.08.352,lexical_decision_task_DD_L3,2021.2.3,Win32,84.91847826,,,,,,,,,,,0.6899,1,,,,,,,,,,,,,,,,,,,,,,,,-0.007407407,-0.393518519,0,0,0,,,,,,,CLOUD,HB,z,m,./images/CLOUDHB.png,,,,,,,,z,1,0.6899,,,,,,,,0,59,59,110,1
,,,,,,,,,,,,,,,,,198907,18,2022-01-28_14h30.08.352,lexical_decision_task_DD_L3,2021.2.3,Win32,84.91847826,,,,,,,,,,,0.6489,1,,,,,,,,,,,,,,,,,,,,,,,,-0.007407407,-0.393518519,0,0,0,,,,,,,CLIFF,HB,z,m,./images/CLIFFHB.png,,,,,,,,z,1,0.6489,,,,,,,,0,60,60,92,1
,,,,,,,,,,,,,,,,,198907,18,2022-01-28_14h30.08.352,lexical_decision_task_DD_L3,2021.2.3,Win32,84.91847826,,,,,,,,,,,0.6206,1,,,,,,,,,,,,,,,,,,,,,,,,-0.007407407,-0.393518519,0,0,0,,,,,,,PURSE,HB,m,m,./images/PURSEHB.png,,,,,,,,m,1,0.6206,,,,,,,,0,61,61,62,1
,,,,,,,,,,,,,,,,,198907,18,2022-01-28_14h30.08.352,lexical_decision_task_DD_L3,2021.2.3,Win32,84.91847826,,,,,,,,,,,0.5778,0,,,,,,,,,,,,,,,,,,,,,,,,-0.007407407,-0.393518519,0,0,0,,,,,,,TOWEL,C,z,m,./images/TOWEL.png,,,,,,,,m,0,0.5778,,,,,,,,0,62,62,85,1
,,,,,,,,,,,,,,,,,198907,18,2022-01-28_14h30.08.352,lexical_decision_task_DD_L3,2021.2.3,Win32,84.91847826,,,,,,,,,,,0.6944,1,,,,,,,,,,,,,,,,,,,,,,,,-0.007407407,-0.393518519,0,0,0,,,,,,,SAUCE,LB,z,m,./images/SAUCELB.png,,,,,,,,z,1,0.6944,,,,,,,,0,63,63,135,1
,,,,,,,,,,,,,,,,,198907,18,2022-01-28_14h30.08.352,lexical_decision_task_DD_L3,2021.2.3,Win32,84.91847826,,,,,,,,,,,0.8408,1,,,,,,,,,,,,,,,,,,,,,,,,-0.007407407,-0.393518519,0,0,0,,,,,,,FINGER,LB,m,m,./images/FINGERLB.png,,,,,,,,m,1,0.8408,,,,,,,,0,64,64,3,1
,,,,,,,,,,,,,,,,,198907,18,2022-01-28_14h30.08.352,lexical_decision_task_DD_L3,2021.2.3,Win32,84.91847826,,,,,,,,,,,0.8249,1,,,,,,,,,,,,,,,,,,,,,,,,-0.007407407,-0.393518519,0,0,0,,,,,,,SPINE,HB,z,m,./images/SPINEHB.png,,,,,,,,z,1,0.8249,,,,,,,,0,65,65,149,1
,,,,,,,,,,,,,,,,,198907,18,2022-01-28_14h30.08.352,lexical_decision_task_DD_L3,2021.2.3,Win32,84.91847826,,,,,,,,,,,0.6593,1,,,,,,,,,,,,,,,,,,,,,,,,-0.007407407,-0.393518519,0,0,0,,,,,,,MOOSE,LB,m,m,./images/MOOSELB.png,,,,,,,,m,1,0.6593,,,,,,,,0,66,66,57,1
,,,,,,,,,,,,,,,,,198907,18,2022-01-28_14h30.08.352,lexical_decision_task_DD_L3,2021.2.3,Win32,84.91847826,,,,,,,,,,,0.8879,1,,,,,,,,,,,,,,,,,,,,,,,,-0.007407407,-0.393518519,0,0,0,,,,,,,COUCH,HB,m,m,./images/COUCHHB.png,,,,,,,,m,1,0.8879,,,,,,,,0,67,67,77,1
,,,,,,,,,,,,,,,,,198907,18,2022-01-28_14h30.08.352,lexical_decision_task_DD_L3,2021.2.3,Win32,84.91847826,,,,,,,,,,,0.7828,0,,,,,,,,,,,,,,,,,,,,,,,,-0.007407407,-0.393518519,0,0,0,,,,,,,TULIP,HB,m,m,./images/TULIPHB.png,,,,,,,,z,0,0.7828,,,,,,,,0,68,68,8,1
,,,,,,,,,,,,,,,,,198907,18,2022-01-28_14h30.08.352,lexical_decision_task_DD_L3,2021.2.3,Win32,84.91847826,,,,,,,,,,,0.7664,1,,,,,,,,,,,,,,,,,,,,,,,,-0.007407407,-0.393518519,0,0,0,,,,,,,CHAIN,LB,z,m,./images/CHAINLB.png,,,,,,,,z,1,0.7664,,,,,,,,0,69,69,126,1
,,,,,,,,,,,,,,,,,198907,18,2022-01-28_14h30.08.352,lexical_decision_task_DD_L3,2021.2.3,Win32,84.91847826,,,,,,,,,,,0.7567,0,,,,,,,,,,,,,,,,,,,,,,,,-0.007407407,-0.393518519,0,0,0,,,,,,,WEASEL,HB,m,m,./images/WEASELHB.png,,,,,,,,z,0,0.7567,,,,,,,,0,70,70,80,1
,,,,,,,,,,,,,,,,,198907,18,2022-01-28_14h30.08.352,lexical_decision_task_DD_L3,2021.2.3,Win32,84.91847826,,,,,,,,,,,0.7589,1,,,,,,,,,,,,,,,,,,,,,,,,-0.007407407,-0.393518519,0,0,0,,,,,,,JELLY,C,m,m,./images/JELLY.png,,,,,,,,m,1,0.7589,,,,,,,,0,71,71,64,1
,,,,,,,,,,,,,,,,,198907,18,2022-01-28_14h30.08.352,lexical_decision_task_DD_L3,2021.2.3,Win32,84.91847826,,,,,,,,,,,0.6963,1,,,,,,,,,,,,,,,,,,,,,,,,-0.007407407,-0.393518519,0,0,0,,,,,,,FOLDER,LB,m,m,./images/FOLDERLB.png,,,,,,,,m,1,0.6963,,,,,,,,0,72,72,42,1
,,,,,,,,,,,,,,,,,198907,18,2022-01-28_14h30.08.352,lexical_decision_task_DD_L3,2021.2.3,Win32,84.91847826,,,,,,,,,,,0.7366,1,,,,,,,,,,,,,,,,,,,,,,,,-0.007407407,-0.393518519,0,0,0,,,,,,,PILOT,HB,z,m,./images/PILOTHB.png,,,,,,,,z,1,0.7366,,,,,,,,0,73,73,134,1
,,,,,,,,,,,,,,,,,198907,18,2022-01-28_14h30.08.352,lexical_decision_task_DD_L3,2021.2.3,Win32,84.91847826,,,,,,,,,,,0.6737,1,,,,,,,,,,,,,,,,,,,,,,,,-0.007407407,-0.393518519,0,0,0,,,,,,,GREASE,LB,m,m,./images/GREASELB.png,,,,,,,,m,1,0.6737,,,,,,,,0,74,74,15,1
,,,,,,,,,,,,,,,,,198907,18,2022-01-28_14h30.08.352,lexical_decision_task_DD_L3,2021.2.3,Win32,84.91847826,,,,,,,,,,,0.661,1,,,,,,,,,,,,,,,,,,,,,,,,-0.007407407,-0.393518519,0,0,0,,,,,,,MAMMAL,HB,z,m,./images/MAMMALHB.png,,,,,,,,z,1,0.661,,,,,,,,0,75,75,146,1
,,,,,,,,,,,,,,,,,198907,18,2022-01-28_14h30.08.352,lexical_decision_task_DD_L3,2021.2.3,Win32,84.91847826,,,,,,,,,,,0.6195,1,,,,,,,,,,,,,,,,,,,,,,,,-0.007407407,-0.393518519,0,0,0,,,,,,,GRAIN,LB,m,m,./images/GRAINLB.png,,,,,,,,m,1,0.6195,,,,,,,,0,76,76,75,1
,,,,,,,,,,,,,,,,,198907,18,2022-01-28_14h30.08.352,lexical_decision_task_DD_L3,2021.2.3,Win32,84.91847826,,,,,,,,,,,0.9927,1,,,,,,,,,,,,,,,,,,,,,,,,-0.007407407,-0.393518519,0,0,0,,,,,,,WAGON,C,z,m,./images/WAGON.png,,,,,,,,z,1,0.9927,,,,,,,,0,77,77,91,1
,,,,,,,,,,,,,,,,,198907,18,2022-01-28_14h30.08.352,lexical_decision_task_DD_L3,2021.2.3,Win32,84.91847826,,,,,,,,,,,0.7276,1,,,,,,,,,,,,,,,,,,,,,,,,-0.007407407,-0.393518519,0,0,0,,,,,,,PACKET,HB,m,m,./images/PACKETHB.png,,,,,,,,m,1,0.7276,,,,,,,,0,78,78,56,1
,,,,,,,,,,,,,,,,,198907,18,2022-01-28_14h30.08.352,lexical_decision_task_DD_L3,2021.2.3,Win32,84.91847826,,,,,,,,,,,1.0898,1,,,,,,,,,,,,,,,,,,,,,,,,-0.007407407,-0.393518519,0,0,0,,,,,,,BOXER,C,z,m,./images/BOXER.png,,,,,,,,z,1,1.0898,,,,,,,,0,79,79,88,1
,,,,,,,,,,,,,,,,,198907,18,2022-01-28_14h30.08.352,lexical_decision_task_DD_L3,2021.2.3,Win32,84.91847826,,,,,,,,,,,1.1918,1,,,,,,,,,,,,,,,,,,,,,,,,-0.007407407,-0.393518519,0,0,0,,,,,,,SPORT,LB,m,m,./images/SPORTLB.png,,,,,,,,m,1,1.1918,,,,,,,,0,80,80,48,1
,,,,,,,,,,,,,,,,,198907,18,2022-01-28_14h30.08.352,lexical_decision_task_DD_L3,2021.2.3,Win32,84.91847826,,,,,,,,,,,0.5474,1,,,,,,,,,,,,,,,,,,,,,,,,-0.007407407,-0.393518519,0,0,0,,,,,,,CANYON,C,m,m,./images/CANYON.png,,,,,,,,m,1,0.5474,,,,,,,,0,81,81,34,1
,,,,,,,,,,,,,,,,,198907,18,2022-01-28_14h30.08.352,lexical_decision_task_DD_L3,2021.2.3,Win32,84.91847826,,,,,,,,,,,0.6164,0,,,,,,,,,,,,,,,,,,,,,,,,-0.007407407,-0.393518519,0,0,0,,,,,,,BUTTER,LB,z,m,./images/BUTTERLB.png,,,,,,,,m,0,0.6164,,,,,,,,0,82,82,111,1
,,,,,,,,,,,,,,,,,198907,18,2022-01-28_14h30.08.352,lexical_decision_task_DD_L3,2021.2.3,Win32,84.91847826,,,,,,,,,,,0.7408,1,,,,,,,,,,,,,,,,,,,,,,,,-0.007407407,-0.393518519,0,0,0,space,,,,,,BONNET,HB,m,m,./images/BONNETHB.png,0.8882,,,,,,,m,1,0.7408,,,,,,,,0,83,83,11,1
,,,,,,,,,,,,,,,,,198907,18,2022-01-28_14h30.08.352,lexical_decision_task_DD_L3,2021.2.3,Win32,84.91847826,,,,,,,,,,,0.7134,1,,,,,,,,,,,,,,,,,,,,,,,,-0.007407407,-0.393518519,0,0,0,,,,,,,ATTIC,LB,m,m,./images/ATTICLB.png,,,,,,,,m,1,0.7134,,,,,,,,0,84,84,27,1
,,,,,,,,,,,,,,,,,198907,18,2022-01-28_14h30.08.352,lexical_decision_task_DD_L3,2021.2.3,Win32,84.91847826,,,,,,,,,,,0.6729,1,,,,,,,,,,,,,,,,,,,,,,,,-0.007407407,-0.393518519,0,0,0,,,,,,,BAMBOO,HB,z,m,./images/BAMBOOHB.png,,,,,,,,z,1,0.6729,,,,,,,,0,85,85,89,1
,,,,,,,,,,,,,,,,,198907,18,2022-01-28_14h30.08.352,lexical_decision_task_DD_L3,2021.2.3,Win32,84.91847826,,,,,,,,,,,0.7381,1,,,,,,,,,,,,,,,,,,,,,,,,-0.007407407,-0.393518519,0,0,0,,,,,,,URINE,C,m,m,./images/URINE.png,,,,,,,,m,1,0.7381,,,,,,,,0,86,86,70,1
,,,,,,,,,,,,,,,,,198907,18,2022-01-28_14h30.08.352,lexical_decision_task_DD_L3,2021.2.3,Win32,84.91847826,,,,,,,,,,,1.5596,1,,,,,,,,,,,,,,,,,,,,,,,,-0.007407407,-0.393518519,0,0,0,,,,,,,SAUNA,LB,z,m,./images/SAUNALB.png,,,,,,,,z,1,1.5596,,,,,,,,0,87,87,117,1
,,,,,,,,,,,,,,,,,198907,18,2022-01-28_14h30.08.352,lexical_decision_task_DD_L3,2021.2.3,Win32,84.91847826,,,,,,,,,,,0.5936,1,,,,,,,,,,,,,,,,,,,,,,,,-0.007407407,-0.393518519,0,0,0,,,,,,,CRADLE,HB,m,m,./images/CRADLEHB.png,,,,,,,,m,1,0.5936,,,,,,,,0,88,88,20,1
,,,,,,,,,,,,,,,,,198907,18,2022-01-28_14h30.08.352,lexical_decision_task_DD_L3,2021.2.3,Win32,84.91847826,,,,,,,,,,,0.7167,0,,,,,,,,,,,,,,,,,,,,,,,,-0.007407407,-0.393518519,0,0,0,,,,,,,WHEEL,HB,z,m,./images/WHEELHB.png,,,,,,,,m,0,0.7167,,,,,,,,0,89,89,161,1
,,,,,,,,,,,,,,,,,198907,18,2022-01-28_14h30.08.352,lexical_decision_task_DD_L3,2021.2.3,Win32,84.91847826,,,,,,,,,,,0.6683,1,,,,,,,,,,,,,,,,,,,,,,,,-0.007407407,-0.393518519,0,0,0,,,,,,,TRIPOD,LB,m,m,./images/TRIPODLB.png,,,,,,,,m,1,0.6683,,,,,,,,0,90,90,54,1
,,,,,,,,,,,,,,,,,198907,18,2022-01-28_14h30.08.352,lexical_decision_task_DD_L3,2021.2.3,Win32,84.91847826,,,,,,,,,,,0.8624,1,,,,,,,,,,,,,,,,,,,,,,,,-0.007407407,-0.393518519,0,0,0,,,,,,,PLANK,C,m,m,./images/PLANK.png,,,,,,,,m,1,0.8624,,,,,,,,0,91,91,1,1
,,,,,,,,,,,,,,,,,198907,18,2022-01-28_14h30.08.352,lexical_decision_task_DD_L3,2021.2.3,Win32,84.91847826,,,,,,,,,,,0.6238,1,,,,,,,,,,,,,,,,,,,,,,,,-0.007407407,-0.393518519,0,0,0,,,,,,,MAGGOT,LB,m,m,./images/MAGGOTLB.png,,,,,,,,m,1,0.6238,,,,,,,,0,92,92,33,1
,,,,,,,,,,,,,,,,,198907,18,2022-01-28_14h30.08.352,lexical_decision_task_DD_L3,2021.2.3,Win32,84.91847826,,,,,,,,,,,0.6919,1,,,,,,,,,,,,,,,,,,,,,,,,-0.007407407,-0.393518519,0,0,0,,,,,,,INFANT,C,m,m,./images/INFANT.png,,,,,,,,m,1,0.6919,,,,,,,,0,93,93,76,1
,,,,,,,,,,,,,,,,,198907,18,2022-01-28_14h30.08.352,lexical_decision_task_DD_L3,2021.2.3,Win32,84.91847826,,,,,,,,,,,0.6064,1,,,,,,,,,,,,,,,,,,,,,,,,-0.007407407,-0.393518519,0,0,0,,,,,,,KIDNEY,LB,m,m,./images/KIDNEYLB.png,,,,,,,,m,1,0.6064,,,,,,,,0,94,94,21,1
,,,,,,,,,,,,,,,,,198907,18,2022-01-28_14h30.08.352,lexical_decision_task_DD_L3,2021.2.3,Win32,84.91847826,,,,,,,,,,,0.684,1,,,,,,,,,,,,,,,,,,,,,,,,-0.007407407,-0.393518519,0,0,0,,,,,,,STREAM,HB,z,m,./images/STREAMHB.png,,,,,,,,z,1,0.684,,,,,,,,0,95,95,125,1
,,,,,,,,,,,,,,,,,198907,18,2022-01-28_14h30.08.352,lexical_decision_task_DD_L3,2021.2.3,Win32,84.91847826,,,,,,,,,,,0.5583,0,,,,,,,,,,,,,,,,,,,,,,,,-0.007407407,-0.393518519,0,0,0,,,,,,,SUNSET,C,m,m,./images/SUNSET.png,,,,,,,,z,0,0.5583,,,,,,,,0,96,96,82,1
,,,,,,,,,,,,,,,,,198907,18,2022-01-28_14h30.08.352,lexical_decision_task_DD_L3,2021.2.3,Win32,84.91847826,,,,,,,,,,,0.7525,1,,,,,,,,,,,,,,,,,,,,,,,,-0.007407407,-0.393518519,0,0,0,,,,,,,DANCER,LB,z,m,./images/DANCERLB.png,,,,,,,,z,1,0.7525,,,,,,,,0,97,97,105,1
,,,,,,,,,,,,,,,,,198907,18,2022-01-28_14h30.08.352,lexical_decision_task_DD_L3,2021.2.3,Win32,84.91847826,,,,,,,,,,,0.6597,1,,,,,,,,,,,,,,,,,,,,,,,,-0.007407407,-0.393518519,0,0,0,,,,,,,MELON,C,m,m,./images/MELON.png,,,,,,,,m,1,0.6597,,,,,,,,0,98,98,22,1
,,,,,,,,,,,,,,,,,198907,18,2022-01-28_14h30.08.352,lexical_decision_task_DD_L3,2021.2.3,Win32,84.91847826,,,,,,,,,,,0.5532,0,,,,,,,,,,,,,,,,,,,,,,,,-0.007407407,-0.393518519,0,0,0,,,,,,,WALNUT,LB,z,m,./images/WALNUTLB.png,,,,,,,,m,0,0.5532,,,,,,,,0,99,99,84,1
,,,,,,,,,,,,,,,,,198907,18,2022-01-28_14h30.08.352,lexical_decision_task_DD_L3,2021.2.3,Win32,84.91847826,,,,,,,,,,,0.7265,1,,,,,,,,,,,,,,,,,,,,,,,,-0.007407407,-0.393518519,0,0,0,,,,,,,WHISKY,HB,z,m,./images/WHISKYHB.png,,,,,,,,z,1,0.7265,,,,,,,,0,100,100,167,1
,,,,,,,,,,,,,,,,,198907,18,2022-01-28_14h30.08.352,lexical_decision_task_DD_L3,2021.2.3,Win32,84.91847826,,,,,,,,,,,0.7439,1,,,,,,,,,,,,,,,,,,,,,,,,-0.007407407,-0.393518519,0,0,0,,,,,,,PIMPLE,HB,m,m,./images/PIMPLEHB.png,,,,,,,,m,1,0.7439,,,,,,,,0,101,101,71,1
,,,,,,,,,,,,,,,,,198907,18,2022-01-28_14h30.08.352,lexical_decision_task_DD_L3,2021.2.3,Win32,84.91847826,,,,,,,,,,,1.617,1,,,,,,,,,,,,,,,,,,,,,,,,-0.007407407,-0.393518519,0,0,0,,,,,,,PENCE,C,m,m,./images/PENCE.png,,,,,,,,m,1,1.617,,,,,,,,0,102,102,16,1
,,,,,,,,,,,,,,,,,198907,18,2022-01-28_14h30.08.352,lexical_decision_task_DD_L3,2021.2.3,Win32,84.91847826,,,,,,,,,,,1.0135,0,,,,,,,,,,,,,,,,,,,,,,,,-0.007407407,-0.393518519,0,0,0,,,,,,,ENGINE,HB,z,m,./images/ENGINEHB.png,,,,,,,,m,0,1.0135,,,,,,,,0,103,103,122,1
,,,,,,,,,,,,,,,,,198907,18,2022-01-28_14h30.08.352,lexical_decision_task_DD_L3,2021.2.3,Win32,84.91847826,,,,,,,,,,,1.4193,1,,,,,,,,,,,,,,,,,,,,,,,,-0.007407407,-0.393518519,0,0,0,,,,,,,ARTIST,C,z,m,./images/ARTIST.png,,,,,,,,z,1,1.4193,,,,,,,,0,104,104,145,1
,,,,,,,,,,,,,,,,,198907,18,2022-01-28_14h30.08.352,lexical_decision_task_DD_L3,2021.2.3,Win32,84.91847826,,,,,,,,,,,0.8625,1,,,,,,,,,,,,,,,,,,,,,,,,-0.007407407,-0.393518519,0,0,0,,,,,,,STOVE,HB,z,m,./images/STOVEHB.png,,,,,,,,z,1,0.8625,,,,,,,,0,105,105,86,1
,,,,,,,,,,,,,,,,,198907,18,2022-01-28_14h30.08.352,lexical_decision_task_DD_L3,2021.2.3,Win32,84.91847826,,,,,,,,,,,0.6539,1,,,,,,,,,,,,,,,,,,,,,,,,-0.007407407,-0.393518519,0,0,0,,,,,,,RHINO,LB,m,m,./images/RHINOLB.png,,,,,,,,m,1,0.6539,,,,,,,,0,106,106,9,1
,,,,,,,,,,,,,,,,,198907,18,2022-01-28_14h30.08.352,lexical_decision_task_DD_L3,2021.2.3,Win32,84.91847826,,,,,,,,,,,0.9223,1,,,,,,,,,,,,,,,,,,,,,,,,-0.007407407,-0.393518519,0,0,0,,,,,,,BRUSH,HB,z,m,./images/BRUSHHB.png,,,,,,,,z,1,0.9223,,,,,,,,0,107,107,143,1
,,,,,,,,,,,,,,,,,198907,18,2022-01-28_14h30.08.352,lexical_decision_task_DD_L3,2021.2.3,Win32,84.91847826,,,,,,,,,,,0.7399,0,,,,,,,,,,,,,,,,,,,,,,,,-0.007407407,-0.393518519,0,0,0,,,,,,,STAIN,LB,z,m,./images/STAINLB.png,,,,,,,,m,0,0.7399,,,,,,,,0,108,108,90,1
,,,,,,,,,,,,,,,,,198907,18,2022-01-28_14h30.08.352,lexical_decision_task_DD_L3,2021.2.3,Win32,84.91847826,,,,,,,,,,,1.0405,1,,,,,,,,,,,,,,,,,,,,,,,,-0.007407407,-0.393518519,0,0,0,,,,,,,POKER,C,z,m,./images/POKER.png,,,,,,,,z,1,1.0405,,,,,,,,0,109,109,151,1
,,,,,,,,,,,,,,,,,198907,18,2022-01-28_14h30.08.352,lexical_decision_task_DD_L3,2021.2.3,Win32,84.91847826,,,,,,,,,,,0.6599,1,,,,,,,,,,,,,,,,,,,,,,,,-0.007407407,-0.393518519,0,0,0,,,,,,,CANDY,LB,z,m,./images/CANDYLB.png,,,,,,,,z,1,0.6599,,,,,,,,0,110,110,123,1
,,,,,,,,,,,,,,,,,198907,18,2022-01-28_14h30.08.352,lexical_decision_task_DD_L3,2021.2.3,Win32,84.91847826,,,,,,,,,,,0.9132,0,,,,,,,,,,,,,,,,,,,,,,,,-0.007407407,-0.393518519,0,0,0,,,,,,,PEBBLE,C,z,m,./images/PEBBLE.png,,,,,,,,m,0,0.9132,,,,,,,,0,111,111,166,1
,,,,,,,,,,,,,,,,,198907,18,2022-01-28_14h30.08.352,lexical_decision_task_DD_L3,2021.2.3,Win32,84.91847826,,,,,,,,,,,0.6509,1,,,,,,,,,,,,,,,,,,,,,,,,-0.007407407,-0.393518519,0,0,0,,,,,,,MUFFIN,C,m,m,./images/MUFFIN.png,,,,,,,,m,1,0.6509,,,,,,,,0,112,112,55,1
,,,,,,,,,,,,,,,,,198907,18,2022-01-28_14h30.08.352,lexical_decision_task_DD_L3,2021.2.3,Win32,84.91847826,,,,,,,,,,,0.7874,0,,,,,,,,,,,,,,,,,,,,,,,,-0.007407407,-0.393518519,0,0,0,,,,,,,STOOL,C,z,m,./images/STOOL.png,,,,,,,,m,0,0.7874,,,,,,,,0,113,113,127,1
,,,,,,,,,,,,,,,,,198907,18,2022-01-28_14h30.08.352,lexical_decision_task_DD_L3,2021.2.3,Win32,84.91847826,,,,,,,,,,,0.5873,1,,,,,,,,,,,,,,,,,,,,,,,,-0.007407407,-0.393518519,0,0,0,,,,,,,MIRROR,LB,m,m,./images/MIRRORLB.png,,,,,,,,m,1,0.5873,,,,,,,,0,114,114,63,1
,,,,,,,,,,,,,,,,,198907,18,2022-01-28_14h30.08.352,lexical_decision_task_DD_L3,2021.2.3,Win32,84.91847826,,,,,,,,,,,0.533,1,,,,,,,,,,,,,,,,,,,,,,,,-0.007407407,-0.393518519,0,0,0,,,,,,,KITTEN,LB,m,m,./images/KITTENLB.png,,,,,,,,m,1,0.533,,,,,,,,0,115,115,45,1
,,,,,,,,,,,,,,,,,198907,18,2022-01-28_14h30.08.352,lexical_decision_task_DD_L3,2021.2.3,Win32,84.91847826,,,,,,,,,,,0.7403,1,,,,,,,,,,,,,,,,,,,,,,,,-0.007407407,-0.393518519,0,0,0,,,,,,,GARDEN,C,z,m,./images/GARDEN.png,,,,,,,,z,1,0.7403,,,,,,,,0,116,116,94,1
,,,,,,,,,,,,,,,,,198907,18,2022-01-28_14h30.08.352,lexical_decision_task_DD_L3,2021.2.3,Win32,84.91847826,,,,,,,,,,,1.1599,1,,,,,,,,,,,,,,,,,,,,,,,,-0.007407407,-0.393518519,0,0,0,,,,,,,LIZARD,HB,m,m,./images/LIZARDHB.png,,,,,,,,m,1,1.1599,,,,,,,,0,117,117,44,1
,,,,,,,,,,,,,,,,,198907,18,2022-01-28_14h30.08.352,lexical_decision_task_DD_L3,2021.2.3,Win32,84.91847826,,,,,,,,,,,0.7632,0,,,,,,,,,,,,,,,,,,,,,,,,-0.007407407,-0.393518519,0,0,0,,,,,,,CRATER,LB,z,m,./images/CRATERLB.png,,,,,,,,m,0,0.7632,,,,,,,,0,118,118,87,1
,,,,,,,,,,,,,,,,,198907,18,2022-01-28_14h30.08.352,lexical_decision_task_DD_L3,2021.2.3,Win32,84.91847826,,,,,,,,,,,0.6913,0,,,,,,,,,,,,,,,,,,,,,,,,-0.007407407,-0.393518519,0,0,0,,,,,,,GLOVE,C,z,m,./images/GLOVE.png,,,,,,,,m,0,0.6913,,,,,,,,0,119,119,157,1
,,,,,,,,,,,,,,,,,198907,18,2022-01-28_14h30.08.352,lexical_decision_task_DD_L3,2021.2.3,Win32,84.91847826,,,,,,,,,,,0.6486,1,,,,,,,,,,,,,,,,,,,,,,,,-0.007407407,-0.393518519,0,0,0,,,,,,,HEATER,HB,z,m,./images/HEATERHB.png,,,,,,,,z,1,0.6486,,,,,,,,0,120,120,140,1
,,,,,,,,,,,,,,,,,198907,18,2022-01-28_14h30.08.352,lexical_decision_task_DD_L3,2021.2.3,Win32,84.91847826,,,,,,,,,,,0.7213,0,,,,,,,,,,,,,,,,,,,,,,,,-0.007407407,-0.393518519,0,0,0,,,,,,,SNACK,C,m,m,./images/SNACK.png,,,,,,,,z,0,0.7213,,,,,,,,0,121,121,73,1
,,,,,,,,,,,,,,,,,198907,18,2022-01-28_14h30.08.352,lexical_decision_task_DD_L3,2021.2.3,Win32,84.91847826,,,,,,,,,,,0.6945,0,,,,,,,,,,,,,,,,,,,,,,,,-0.007407407,-0.393518519,0,0,0,,,,,,,CANOE,C,z,m,./images/CANOE.png,,,,,,,,m,0,0.6945,,,,,,,,0,122,122,142,1
,,,,,,,,,,,,,,,,,198907,18,2022-01-28_14h30.08.352,lexical_decision_task_DD_L3,2021.2.3,Win32,84.91847826,,,,,,,,,,,0.6905,1,,,,,,,,,,,,,,,,,,,,,,,,-0.007407407,-0.393518519,0,0,0,,,,,,,WALRUS,HB,m,m,./images/WALRUSHB.png,,,,,,,,m,1,0.6905,,,,,,,,0,123,123,23,1
,,,,,,,,,,,,,,,,,198907,18,2022-01-28_14h30.08.352,lexical_decision_task_DD_L3,2021.2.3,Win32,84.91847826,,,,,,,,,,,0.9141,0,,,,,,,,,,,,,,,,,,,,,,,,-0.007407407,-0.393518519,0,0,0,,,,,,,DRILL,LB,z,m,./images/DRILLLB.png,,,,,,,,m,0,0.9141,,,,,,,,0,124,124,165,1
,,,,,,,,,,,,,,,,,198907,18,2022-01-28_14h30.08.352,lexical_decision_task_DD_L3,2021.2.3,Win32,84.91847826,,,,,,,,,,,0.8707,1,,,,,,,,,,,,,,,,,,,,,,,,-0.007407407,-0.393518519,0,0,0,space,,,,,,MIDGET,C,z,m,./images/MIDGET.png,0.8008,,,,,,,z,1,0.8707,,,,,,,,0,125,125,160,1
,,,,,,,,,,,,,,,,,198907,18,2022-01-28_14h30.08.352,lexical_decision_task_DD_L3,2021.2.3,Win32,84.91847826,,,,,,,,,,,0.6017,1,,,,,,,,,,,,,,,,,,,,,,,,-0.007407407,-0.393518519,0,0,0,,,,,,,QUILL,C,m,m,./images/QUILL.png,,,,,,,,m,1,0.6017,,,,,,,,0,126,126,31,1
,,,,,,,,,,,,,,,,,198907,18,2022-01-28_14h30.08.352,lexical_decision_task_DD_L3,2021.2.3,Win32,84.91847826,,,,,,,,,,,1.1709,0,,,,,,,,,,,,,,,,,,,,,,,,-0.007407407,-0.393518519,0,0,0,,,,,,,MONKEY,LB,z,m,./images/MONKEYLB.png,,,,,,,,m,0,1.1709,,,,,,,,0,127,127,129,1
,,,,,,,,,,,,,,,,,198907,18,2022-01-28_14h30.08.352,lexical_decision_task_DD_L3,2021.2.3,Win32,84.91847826,,,,,,,,,,,0.6721,0,,,,,,,,,,,,,,,,,,,,,,,,-0.007407407,-0.393518519,0,0,0,,,,,,,GRANNY,HB,z,m,./images/GRANNYHB.png,,,,,,,,m,0,0.6721,,,,,,,,0,128,128,104,1
,,,,,,,,,,,,,,,,,198907,18,2022-01-28_14h30.08.352,lexical_decision_task_DD_L3,2021.2.3,Win32,84.91847826,,,,,,,,,,,0.8487,1,,,,,,,,,,,,,,,,,,,,,,,,-0.007407407,-0.393518519,0,0,0,,,,,,,SQUARE,LB,m,m,./images/SQUARELB.png,,,,,,,,m,1,0.8487,,,,,,,,0,129,129,6,1
,,,,,,,,,,,,,,,,,198907,18,2022-01-28_14h30.08.352,lexical_decision_task_DD_L3,2021.2.3,Win32,84.91847826,,,,,,,,,,,0.6887,1,,,,,,,,,,,,,,,,,,,,,,,,-0.007407407,-0.393518519,0,0,0,,,,,,,NOOSE,LB,m,m,./images/NOOSELB.png,,,,,,,,m,1,0.6887,,,,,,,,0,130,130,72,1
,,,,,,,,,,,,,,,,,198907,18,2022-01-28_14h30.08.352,lexical_decision_task_DD_L3,2021.2.3,Win32,84.91847826,,,,,,,,,,,0.5869,1,,,,,,,,,,,,,,,,,,,,,,,,-0.007407407,-0.393518519,0,0,0,,,,,,,BABOON,C,m,m,./images/BABOON.png,,,,,,,,m,1,0.5869,,,,,,,,0,131,131,58,1
,,,,,,,,,,,,,,,,,198907,18,2022-01-28_14h30.08.352,lexical_decision_task_DD_L3,2021.2.3,Win32,84.91847826,,,,,,,,,,,0.7565,1,,,,,,,,,,,,,,,,,,,,,,,,-0.007407407,-0.393518519,0,0,0,,,,,,,LAGOON,HB,z,m,./images/LAGOONHB.png,,,,,,,,z,1,0.7565,,,,,,,,0,132,132,131,1
,,,,,,,,,,,,,,,,,198907,18,2022-01-28_14h30.08.352,lexical_decision_task_DD_L3,2021.2.3,Win32,84.91847826,,,,,,,,,,,0.7244,1,,,,,,,,,,,,,,,,,,,,,,,,-0.007407407,-0.393518519,0,0,0,,,,,,,ALLEY,C,z,m,./images/ALLEY.png,,,,,,,,z,1,0.7244,,,,,,,,0,133,133,139,1
,,,,,,,,,,,,,,,,,198907,18,2022-01-28_14h30.08.352,lexical_decision_task_DD_L3,2021.2.3,Win32,84.91847826,,,,,,,,,,,0.6457,1,,,,,,,,,,,,,,,,,,,,,,,,-0.007407407,-0.393518519,0,0,0,,,,,,,DONKEY,C,z,m,./images/DONKEY.png,,,,,,,,z,1,0.6457,,,,,,,,0,134,134,103,1
,,,,,,,,,,,,,,,,,198907,18,2022-01-28_14h30.08.352,lexical_decision_task_DD_L3,2021.2.3,Win32,84.91847826,,,,,,,,,,,0.7406,1,,,,,,,,,,,,,,,,,,,,,,,,-0.007407407,-0.393518519,0,0,0,,,,,,,CASINO,C,z,m,./images/CASINO.png,,,,,,,,z,1,0.7406,,,,,,,,0,135,135,112,1
,,,,,,,,,,,,,,,,,198907,18,2022-01-28_14h30.08.352,lexical_decision_task_DD_L3,2021.2.3,Win32,84.91847826,,,,,,,,,,,0.6978,1,,,,,,,,,,,,,,,,,,,,,,,,-0.007407407,-0.393518519,0,0,0,,,,,,,COOKER,LB,m,m,./images/COOKERLB.png,,,,,,,,m,1,0.6978,,,,,,,,0,136,136,69,1
,,,,,,,,,,,,,,,,,198907,18,2022-01-28_14h30.08.352,lexical_decision_task_DD_L3,2021.2.3,Win32,84.91847826,,,,,,,,,,,1.8259,1,,,,,,,,,,,,,,,,,,,,,,,,-0.007407407,-0.393518519,0,0,0,,,,,,,FENCE,HB,z,m,./images/FENCEHB.png,,,,,,,,z,1,1.8259,,,,,,,,0,137,137,98,1
,,,,,,,,,,,,,,,,,198907,18,2022-01-28_14h30.08.352,lexical_decision_task_DD_L3,2021.2.3,Win32,84.91847826,,,,,,,,,,,0.6959,1,,,,,,,,,,,,,,,,,,,,,,,,-0.007407407,-0.393518519,0,0,0,,,,,,,BANANA,C,z,m,./images/BANANA.png,,,,,,,,z,1,0.6959,,,,,,,,0,138,138,154,1
,,,,,,,,,,,,,,,,,198907,18,2022-01-28_14h30.08.352,lexical_decision_task_DD_L3,2021.2.3,Win32,84.91847826,,,,,,,,,,,1.8066,1,,,,,,,,,,,,,,,,,,,,,,,,-0.007407407,-0.393518519,0,0,0,,,,,,,STRING,HB,m,m,./images/STRINGHB.png,,,,,,,,m,1,1.8066,,,,,,,,0,139,139,41,1
,,,,,,,,,,,,,,,,,198907,18,2022-01-28_14h30.08.352,lexical_decision_task_DD_L3,2021.2.3,Win32,84.91847826,,,,,,,,,,,1.3683,0,,,,,,,,,,,,,,,,,,,,,,,,-0.007407407,-0.393518519,0,0,0,,,,,,,FALCON,C,m,m,./images/FALCON.png,,,,,,,,z,0,1.3683,,,,,,,,0,140,140,28,1
,,,,,,,,,,,,,,,,,198907,18,2022-01-28_14h30.08.352,lexical_decision_task_DD_L3,2021.2.3,Win32,84.91847826,,,,,,,,,,,0.7301,0,,,,,,,,,,,,,,,,,,,,,,,,-0.007407407,-0.393518519,0,0,0,,,,,,,BOILER,LB,z,m,./images/BOILERLB.png,,,,,,,,m,0,0.7301,,,,,,,,0,141,141,120,1
,,,,,,,,,,,,,,,,,198907,18,2022-01-28_14h30.08.352,lexical_decision_task_DD_L3,2021.2.3,Win32,84.91847826,,,,,,,,,,,0.7538,1,,,,,,,,,,,,,,,,,,,,,,,,-0.007407407,-0.393518519,0,0,0,,,,,,,SHIELD,LB,z,m,./images/SHIELDLB.png,,,,,,,,z,1,0.7538,,,,,,,,0,142,142,132,1
,,,,,,,,,,,,,,,,,198907,18,2022-01-28_14h30.08.352,lexical_decision_task_DD_L3,2021.2.3,Win32,84.91847826,,,,,,,,,,,0.8018,1,,,,,,,,,,,,,,,,,,,,,,,,-0.007407407,-0.393518519,0,0,0,,,,,,,CRUST,C,m,m,./images/CRUST.png,,,,,,,,m,1,0.8018,,,,,,,,0,143,143,79,1
,,,,,,,,,,,,,,,,,198907,18,2022-01-28_14h30.08.352,lexical_decision_task_DD_L3,2021.2.3,Win32,84.91847826,,,,,,,,,,,0.8906,0,,,,,,,,,,,,,,,,,,,,,,,,-0.007407407,-0.393518519,0,0,0,,,,,,,BUBBLE,HB,z,m,./images/BUBBLEHB.png,,,,,,,,m,0,0.8906,,,,,,,,0,144,144,155,1
,,,,,,,,,,,,,,,,,198907,18,2022-01-28_14h30.08.352,lexical_decision_task_DD_L3,2021.2.3,Win32,84.91847826,,,,,,,,,,,0.6431,1,,,,,,,,,,,,,,,,,,,,,,,,-0.007407407,-0.393518519,0,0,0,,,,,,,HOCKEY,HB,z,m,./images/HOCKEYHB.png,,,,,,,,z,1,0.6431,,,,,,,,0,145,145,116,1
,,,,,,,,,,,,,,,,,198907,18,2022-01-28_14h30.08.352,lexical_decision_task_DD_L3,2021.2.3,Win32,84.91847826,,,,,,,,,,,0.5516,1,,,,,,,,,,,,,,,,,,,,,,,,-0.007407407,-0.393518519,0,0,0,,,,,,,SHORE,LB,m,m,./images/SHORELB.png,,,,,,,,m,1,0.5516,,,,,,,,0,146,146,12,1
,,,,,,,,,,,,,,,,,198907,18,2022-01-28_14h30.08.352,lexical_decision_task_DD_L3,2021.2.3,Win32,84.91847826,,,,,,,,,,,0.7546,1,,,,,,,,,,,,,,,,,,,,,,,,-0.007407407,-0.393518519,0,0,0,,,,,,,POODLE,LB,m,m,./images/POODLELB.png,,,,,,,,m,1,0.7546,,,,,,,,0,147,147,81,1
,,,,,,,,,,,,,,,,,198907,18,2022-01-28_14h30.08.352,lexical_decision_task_DD_L3,2021.2.3,Win32,84.91847826,,,,,,,,,,,0.5906,1,,,,,,,,,,,,,,,,,,,,,,,,-0.007407407,-0.393518519,0,0,0,,,,,,,MOTOR,C,m,m,./images/MOTOR.png,,,,,,,,m,1,0.5906,,,,,,,,0,148,148,13,1
,,,,,,,,,,,,,,,,,198907,18,2022-01-28_14h30.08.352,lexical_decision_task_DD_L3,2021.2.3,Win32,84.91847826,,,,,,,,,,,0.7553,1,,,,,,,,,,,,,,,,,,,,,,,,-0.007407407,-0.393518519,0,0,0,,,,,,,SCREW,LB,m,m,./images/SCREWLB.png,,,,,,,,m,1,0.7553,,,,,,,,0,149,149,24,1
,,,,,,,,,,,,,,,,,198907,18,2022-01-28_14h30.08.352,lexical_decision_task_DD_L3,2021.2.3,Win32,84.91847826,,,,,,,,,,,0.6472,0,,,,,,,,,,,,,,,,,,,,,,,,-0.007407407,-0.393518519,0,0,0,,,,,,,BURIAL,HB,m,m,./images/BURIALHB.png,,,,,,,,z,0,0.6472,,,,,,,,0,150,150,59,1
,,,,,,,,,,,,,,,,,198907,18,2022-01-28_14h30.08.352,lexical_decision_task_DD_L3,2021.2.3,Win32,84.91847826,,,,,,,,,,,0.5218,1,,,,,,,,,,,,,,,,,,,,,,,,-0.007407407,-0.393518519,0,0,0,,,,,,,CEMENT,HB,m,m,./images/CEMENTHB.png,,,,,,,,m,1,0.5218,,,,,,,,0,151,151,74,1
,,,,,,,,,,,,,,,,,198907,18,2022-01-28_14h30.08.352,lexical_decision_task_DD_L3,2021.2.3,Win32,84.91847826,,,,,,,,,,,0.6908,1,,,,,,,,,,,,,,,,,,,,,,,,-0.007407407,-0.393518519,0,0,0,,,,,,,LLAMA,HB,z,m,./images/LLAMAHB.png,,,,,,,,z,1,0.6908,,,,,,,,0,152,152,119,1
,,,,,,,,,,,,,,,,,198907,18,2022-01-28_14h30.08.352,lexical_decision_task_DD_L3,2021.2.3,Win32,84.91847826,,,,,,,,,,,0.6158,1,,,,,,,,,,,,,,,,,,,,,,,,-0.007407407,-0.393518519,0,0,0,,,,,,,MALLET,HB,m,m,./images/MALLETHB.png,,,,,,,,m,1,0.6158,,,,,,,,0,153,153,50,1
,,,,,,,,,,,,,,,,,198907,18,2022-01-28_14h30.08.352,lexical_decision_task_DD_L3,2021.2.3,Win32,84.91847826,,,,,,,,,,,1.1861,1,,,,,,,,,,,,,,,,,,,,,,,,-0.007407407,-0.393518519,0,0,0,,,,,,,FLESH,LB,z,m,./images/FLESHLB.png,,,,,,,,z,1,1.1861,,,,,,,,0,154,154,108,1
,,,,,,,,,,,,,,,,,198907,18,2022-01-28_14h30.08.352,lexical_decision_task_DD_L3,2021.2.3,Win32,84.91847826,,,,,,,,,,,0.6254,1,,,,,,,,,,,,,,,,,,,,,,,,-0.007407407,-0.393518519,0,0,0,,,,,,,BERRY,HB,m,m,./images/BERRYHB.png,,,,,,,,m,1,0.6254,,,,,,,,0,155,155,47,1
,,,,,,,,,,,,,,,,,198907,18,2022-01-28_14h30.08.352,lexical_decision_task_DD_L3,2021.2.3,Win32,84.91847826,,,,,,,,,,,0.7029,1,,,,,,,,,,,,,,,,,,,,,,,,-0.007407407,-0.393518519,0,0,0,,,,,,,BEARD,HB,m,m,./images/BEARDHB.png,,,,,,,,m,1,0.7029,,,,,,,,0,156,156,2,1
,,,,,,,,,,,,,,,,,198907,18,2022-01-28_14h30.08.352,lexical_decision_task_DD_L3,2021.2.3,Win32,84.91847826,,,,,,,,,,,0.7307,1,,,,,,,,,,,,,,,,,,,,,,,,-0.007407407,-0.393518519,0,0,0,,,,,,,JUNGLE,HB,m,m,./images/JUNGLEHB.png,,,,,,,,m,1,0.7307,,,,,,,,0,157,157,83,1
,,,,,,,,,,,,,,,,,198907,18,2022-01-28_14h30.08.352,lexical_decision_task_DD_L3,2021.2.3,Win32,84.91847826,,,,,,,,,,,3.074,1,,,,,,,,,,,,,,,,,,,,,,,,-0.007407407,-0.393518519,0,0,0,,,,,,,POSTER,HB,z,m,./images/POSTERHB.png,,,,,,,,z,1,3.074,,,,,,,,0,158,158,137,1
,,,,,,,,,,,,,,,,,198907,18,2022-01-28_14h30.08.352,lexical_decision_task_DD_L3,2021.2.3,Win32,84.91847826,,,,,,,,,,,0.7413,1,,,,,,,,,,,,,,,,,,,,,,,,-0.007407407,-0.393518519,0,0,0,,,,,,,PAINT,C,m,m,./images/PAINT.png,,,,,,,,m,1,0.7413,,,,,,,,0,159,159,7,1
,,,,,,,,,,,,,,,,,198907,18,2022-01-28_14h30.08.352,lexical_decision_task_DD_L3,2021.2.3,Win32,84.91847826,,,,,,,,,,,0.5568,0,,,,,,,,,,,,,,,,,,,,,,,,-0.007407407,-0.393518519,0,0,0,,,,,,,TIGER,C,z,m,./images/TIGER.png,,,,,,,,m,0,0.5568,,,,,,,,0,160,160,121,1
,,,,,,,,,,,,,,,,,198907,18,2022-01-28_14h30.08.352,lexical_decision_task_DD_L3,2021.2.3,Win32,84.91847826,,,,,,,,,,,0.6853,1,,,,,,,,,,,,,,,,,,,,,,,,-0.007407407,-0.393518519,0,0,0,,,,,,,CLOWN,C,z,m,./images/CLOWN.png,,,,,,,,z,1,0.6853,,,,,,,,0,161,161,106,1
,,,,,,,,,,,,,,,,,198907,18,2022-01-28_14h30.08.352,lexical_decision_task_DD_L3,2021.2.3,Win32,84.91847826,,,,,,,,,,,0.7401,0,,,,,,,,,,,,,,,,,,,,,,,,-0.007407407,-0.393518519,0,0,0,,,,,,,CLOTH,HB,z,m,./images/CLOTHHB.png,,,,,,,,m,0,0.7401,,,,,,,,0,162,162,107,1
,,,,,,,,,,,,,,,,,198907,18,2022-01-28_14h30.08.352,lexical_decision_task_DD_L3,2021.2.3,Win32,84.91847826,,,,,,,,,,,0.6637,1,,,,,,,,,,,,,,,,,,,,,,,,-0.007407407,-0.393518519,0,0,0,,,,,,,WRIST,C,m,m,./images/WRIST.png,,,,,,,,m,1,0.6637,,,,,,,,0,163,163,25,1
,,,,,,,,,,,,,,,,,198907,18,2022-01-28_14h30.08.352,lexical_decision_task_DD_L3,2021.2.3,Win32,84.91847826,,,,,,,,,,,0.6478,1,,,,,,,,,,,,,,,,,,,,,,,,-0.007407407,-0.393518519,0,0,0,,,,,,,BARREL,HB,m,m,./images/BARRELHB.png,,,,,,,,m,1,0.6478,,,,,,,,0,164,164,32,1
,,,,,,,,,,,,,,,,,198907,18,2022-01-28_14h30.08.352,lexical_decision_task_DD_L3,2021.2.3,Win32,84.91847826,,,,,,,,,,,0.6674,1,,,,,,,,,,,,,,,,,,,,,,,,-0.007407407,-0.393518519,0,0,0,,,,,,,SMOKER,HB,m,m,./images/SMOKERHB.png,,,,,,,,m,1,0.6674,,,,,,,,0,165,165,26,1
,,,,,,,,,,,,,,,,,198907,18,2022-01-28_14h30.08.352,lexical_decision_task_DD_L3,2021.2.3,Win32,84.91847826,,,,,,,,,,,0.8241,1,,,,,,,,,,,,,,,,,,,,,,,,-0.007407407,-0.393518519,0,0,0,,,,,,,JUMPER,HB,z,m,./images/JUMPERHB.png,,,,,,,,z,1,0.8241,,,,,,,,0,166,166,158,1
,,,,,,,,,,,,,,,,,198907,18,2022-01-28_14h30.08.352,lexical_decision_task_DD_L3,2021.2.3,Win32,84.91847826,,,,,,,,,,,1.4084,1,,,,,,,,,,,,,,,,,,,,,,,,-0.007407407,-0.393518519,0,0,0,,,,,,,SLOPE,LB,z,m,./images/SLOPELB.png,,,,,,,,z,1,1.4084,,,,,,,,0,167,167,114,1
