key_resp.keys,instr_done_touch.x,instr_done_touch.y,instr_done_touch.leftButton,instr_done_touch.midButton,instr_done_touch.rightButton,instr_done_touch.clicked_name,instruction_pages.thisRepN,instruction_pages.thisTrialN,instruction_pages.thisN,instruction_pages.thisIndex,instruction_pages.ran,pageN,phase,instruct_text,has_image,instruct_image,participant,age,date,expName,psychopyVersion,OS,frameRate,response.keys,response.corr,response.rt,touch_resp.x,touch_resp.y,touch_resp.leftButton,touch_resp.midButton,touch_resp.rightButton,touch_resp.time,touch_resp.clicked_name,rt,corr,practrials.thisRepN,practrials.thisTrialN,practrials.thisN,practrials.thisIndex,practrials.ran,TrialID,Target,corrAns,key_resp.rt,end_of_practice_trials_pages.thisRepN,end_of_practice_trials_pages.thisTrialN,end_of_practice_trials_pages.thisN,end_of_practice_trials_pages.thisIndex,end_of_practice_trials_pages.ran,key_resp_2.keys,key_resp_2.corr,key_resp_2.rt,targ_click.x,targ_click.y,targ_click.leftButton,targ_click.midButton,targ_click.rightButton,targ_click.time,targ_click.clicked_name,break_done_touch.x,break_done_touch.y,break_done_touch.leftButton,break_done_touch.midButton,break_done_touch.rightButton,break_done_keyboard.keys,maintrials.thisRepN,maintrials.thisTrialN,maintrials.thisN,maintrials.thisIndex,maintrials.ran,string,blur,study,lex,stim_path,break_done_keyboard.rt,test_instructions.thisRepN,test_instructions.thisTrialN,test_instructions.thisN,test_instructions.thisIndex,test_instructions.ran,key_resp_3.keys,key_resp_3.corr,key_resp_3.rt,test_click.x,test_click.y,test_click.leftButton,test_click.midButton,test_click.rightButton,test_click.time,test_click.clicked_name,test_phase.thisRepN,test_phase.thisTrialN,test_phase.thisN,test_phase.thisIndex,test_phase.ran
,0.119181533,-0.377225893,1,0,0,instr_done_button,0,0,0,0,1,1,instructions,"INSTRUCTIONS
At the start of each trial, look at the plus sign  (+) in the center of the screen.  This tells you that a trial is about to begin and where to look. Second, the plus sign will disappear and a string of letters will appear. Your task is to determine if the string of letters is a word or not. If the item is a word press the M key (on keyboard)  or touch the word button (phone/tablet).  If the item is not a word,  press the  Z key (on keyboard)  or touch the nonword button (on phone/tablet). 
Press the space bar or touch  continue.",0,,198988,18,2022-01-31_22h01.37.162,lexical_decision_task_DD_L3,2021.2.3,Win32,60.07449237,,,,,,,,,,,,,,,,,,,,,,,,,,,,,,,,,,,,,,,,,,,,,,,,,,,,,,,,,,,,,,,,,,,,,,,,,
,0.123555167,-0.393470817,1,0,0,instr_done_button,0,1,1,1,1,2,instructions,"If your device has a keyboard, press the 'Z' key for nonwords and the 'M' key for words.





Press the space bar or touch the button below to continue.",0,keyboard-example.gif,198988,18,2022-01-31_22h01.37.162,lexical_decision_task_DD_L3,2021.2.3,Win32,60.07449237,,,,,,,,,,,,,,,,,,,,,,,,,,,,,,,,,,,,,,,,,,,,,,,,,,,,,,,,,,,,,,,,,,,,,,,,,
,0.123555167,-0.393470817,1,0,0,instr_done_button,0,2,2,2,1,3,instructions,"If you are using a touchscreen only device, use the buttons on the screen. Do not use the mouse.





Press the space bar or touch the button below to continue.",0,touchscreen-example.gif,198988,18,2022-01-31_22h01.37.162,lexical_decision_task_DD_L3,2021.2.3,Win32,60.07449237,,,,,,,,,,,,,,,,,,,,,,,,,,,,,,,,,,,,,,,,,,,,,,,,,,,,,,,,,,,,,,,,,,,,,,,,,
,0.117307119,-0.394720427,1,0,0,instr_done_button,0,3,3,3,1,4,instructions,"It is very important that you respond as quickly and accurately as possible, as each letter string will only be on the screen for two seconds. If you do not respond within this time, the message 'Too slow!' will be displayed and the experiment will progress to the next letter string. The first 20 trials will be practice trials and you will receive feedback on your answers. 

Press the space bar or touch the button below to start the practice trials.",0,,198988,18,2022-01-31_22h01.37.162,lexical_decision_task_DD_L3,2021.2.3,Win32,60.07449237,,,,,,,,,,,,,,,,,,,,,,,,,,,,,,,,,,,,,,,,,,,,,,,,,,,,,,,,,,,,,,,,,,,,,,,,,
,,,,,,,,,,,,,,,,,198988,18,2022-01-31_22h01.37.162,lexical_decision_task_DD_L3,2021.2.3,Win32,60.07449237,m,0,2.2901,,,,,,,,2.2901,0,0,0,0,13,1,1001,ROUPET,z,,,,,,,,,,,,,,,,,,,,,,,,,,,,,,,,,,,,,,,,,,,,,,,,,,,,,
,,,,,,,,,,,,,,,,,198988,18,2022-01-31_22h01.37.162,lexical_decision_task_DD_L3,2021.2.3,Win32,60.07449237,m,0,2.1154,,,,,,,,2.1154,0,0,1,1,8,1,1001,ASLERT,z,,,,,,,,,,,,,,,,,,,,,,,,,,,,,,,,,,,,,,,,,,,,,,,,,,,,,
,,,,,,,,,,,,,,,,,198988,18,2022-01-31_22h01.37.162,lexical_decision_task_DD_L3,2021.2.3,Win32,60.07449237,m,0,2.3311,,,,,,,,2.3311,0,0,2,2,10,1,1001,INLADE,z,,,,,,,,,,,,,,,,,,,,,,,,,,,,,,,,,,,,,,,,,,,,,,,,,,,,,
,,,,,,,,,,,,,,,,,198988,18,2022-01-31_22h01.37.162,lexical_decision_task_DD_L3,2021.2.3,Win32,60.07449237,m,1,1.7574,,,,,,,,1.7574,1,0,3,3,2,1,1001,ALMOND,m,,,,,,,,,,,,,,,,,,,,,,,,,,,,,,,,,,,,,,,,,,,,,,,,,,,,,
,,,,,,,,,,,,,,,,,198988,18,2022-01-31_22h01.37.162,lexical_decision_task_DD_L3,2021.2.3,Win32,60.07449237,z,1,1.5301,,,,,,,,1.5301,1,0,4,4,12,1,1001,SPRINY,z,,,,,,,,,,,,,,,,,,,,,,,,,,,,,,,,,,,,,,,,,,,,,,,,,,,,,
,,,,,,,,,,,,,,,,,198988,18,2022-01-31_22h01.37.162,lexical_decision_task_DD_L3,2021.2.3,Win32,60.07449237,z,1,0.8024,,,,,,,,0.8024,1,0,5,5,11,1,1001,RASHET,z,,,,,,,,,,,,,,,,,,,,,,,,,,,,,,,,,,,,,,,,,,,,,,,,,,,,,
,,,,,,,,,,,,,,,,,198988,18,2022-01-31_22h01.37.162,lexical_decision_task_DD_L3,2021.2.3,Win32,60.07449237,m,1,0.7144,,,,,,,,0.7144,1,0,6,6,0,1,1001,UTOPIA,m,,,,,,,,,,,,,,,,,,,,,,,,,,,,,,,,,,,,,,,,,,,,,,,,,,,,,
,,,,,,,,,,,,,,,,,198988,18,2022-01-31_22h01.37.162,lexical_decision_task_DD_L3,2021.2.3,Win32,60.07449237,m,1,0.6486,,,,,,,,0.6486,1,0,7,7,1,1,1001,ADJUST,m,,,,,,,,,,,,,,,,,,,,,,,,,,,,,,,,,,,,,,,,,,,,,,,,,,,,,
,,,,,,,,,,,,,,,,,198988,18,2022-01-31_22h01.37.162,lexical_decision_task_DD_L3,2021.2.3,Win32,60.07449237,z,1,0.8437,,,,,,,,0.8437,1,0,8,8,15,1,1001,WHAISE,z,,,,,,,,,,,,,,,,,,,,,,,,,,,,,,,,,,,,,,,,,,,,,,,,,,,,,
,,,,,,,,,,,,,,,,,198988,18,2022-01-31_22h01.37.162,lexical_decision_task_DD_L3,2021.2.3,Win32,60.07449237,m,1,0.771,,,,,,,,0.771,1,0,9,9,6,1,1001,ZOMBIE,m,,,,,,,,,,,,,,,,,,,,,,,,,,,,,,,,,,,,,,,,,,,,,,,,,,,,,
,,,,,,,,,,,,,,,,,198988,18,2022-01-31_22h01.37.162,lexical_decision_task_DD_L3,2021.2.3,Win32,60.07449237,m,1,0.679,,,,,,,,0.679,1,0,10,10,3,1,1001,MATRIX,m,,,,,,,,,,,,,,,,,,,,,,,,,,,,,,,,,,,,,,,,,,,,,,,,,,,,,
,,,,,,,,,,,,,,,,,198988,18,2022-01-31_22h01.37.162,lexical_decision_task_DD_L3,2021.2.3,Win32,60.07449237,m,1,0.5814,,,,,,,,0.5814,1,0,11,11,5,1,1001,OBTAIN,m,,,,,,,,,,,,,,,,,,,,,,,,,,,,,,,,,,,,,,,,,,,,,,,,,,,,,
,,,,,,,,,,,,,,,,,198988,18,2022-01-31_22h01.37.162,lexical_decision_task_DD_L3,2021.2.3,Win32,60.07449237,m,1,0.575,,,,,,,,0.575,1,0,12,12,4,1,1001,SQUEAK,m,,,,,,,,,,,,,,,,,,,,,,,,,,,,,,,,,,,,,,,,,,,,,,,,,,,,,
,,,,,,,,,,,,,,,,,198988,18,2022-01-31_22h01.37.162,lexical_decision_task_DD_L3,2021.2.3,Win32,60.07449237,m,1,0.8759,,,,,,,,0.8759,1,0,13,13,7,1,1001,VOLUME,m,,,,,,,,,,,,,,,,,,,,,,,,,,,,,,,,,,,,,,,,,,,,,,,,,,,,,
,,,,,,,,,,,,,,,,,198988,18,2022-01-31_22h01.37.162,lexical_decision_task_DD_L3,2021.2.3,Win32,60.07449237,z,1,0.7572,,,,,,,,0.7572,1,0,14,14,9,1,1001,FARINY,z,,,,,,,,,,,,,,,,,,,,,,,,,,,,,,,,,,,,,,,,,,,,,,,,,,,,,
,,,,,,,,,,,,,,,,,198988,18,2022-01-31_22h01.37.162,lexical_decision_task_DD_L3,2021.2.3,Win32,60.07449237,z,1,0.6798,,,,,,,,0.6798,1,0,15,15,14,1,1001,THRALE,z,,,,,,,,,,,,,,,,,,,,,,,,,,,,,,,,,,,,,,,,,,,,,,,,,,,,,
space,0.485941931,-0.084817262,0,0,0,,,,,,,1,end_of_practice,"You have completed the practice trials. During the experimental trials, you will not receive feedback. 
Before you begin, please ensure that you are in a comfortable and quiet location and will not be disturbed for about 15 minutes, as we cannot use your data if you do not complete all the trials. 
 When you are ready to start the experimental trials, please press space or touch the button below.",,,198988,18,2022-01-31_22h01.37.162,lexical_decision_task_DD_L3,2021.2.3,Win32,60.07449237,,,,,,,,,,,,,,,,,,,,,13.1417,0,0,0,0,1,,,,,,,,,,,,,,,,,,,,,,,,,,,,,,,,,,,,,,,,,,,,,,,
,,,,,,,,,,,,,,,,,198988,18,2022-01-31_22h01.37.162,lexical_decision_task_DD_L3,2021.2.3,Win32,60.07449237,,,,,,,,,,,1.1075,1,,,,,,,,,,,,,,,m,1,1.1075,,,,,,,,0.485941931,-0.084817262,0,0,0,,0,0,0,62,1,PURSE,HB,old,m,./images/PURSEHB.png,,,,,,,,,,,,,,,,,,,,,
,,,,,,,,,,,,,,,,,198988,18,2022-01-31_22h01.37.162,lexical_decision_task_DD_L3,2021.2.3,Win32,60.07449237,,,,,,,,,,,0.6253,1,,,,,,,,,,,,,,,m,1,0.6253,,,,,,,,0.485941931,-0.084817262,0,0,0,,0,1,1,35,1,PEACH,HB,old,m,./images/PEACHHB.png,,,,,,,,,,,,,,,,,,,,,
,,,,,,,,,,,,,,,,,198988,18,2022-01-31_22h01.37.162,lexical_decision_task_DD_L3,2021.2.3,Win32,60.07449237,,,,,,,,,,,0.9915,1,,,,,,,,,,,,,,,m,1,0.9915,,,,,,,,0.485941931,-0.084817262,0,0,0,,0,2,2,58,1,BABOON,C,old,m,./images/BABOON.png,,,,,,,,,,,,,,,,,,,,,
,,,,,,,,,,,,,,,,,198988,18,2022-01-31_22h01.37.162,lexical_decision_task_DD_L3,2021.2.3,Win32,60.07449237,,,,,,,,,,,0.6147,1,,,,,,,,,,,,,,,m,1,0.6147,,,,,,,,0.485941931,-0.084817262,0,0,0,,0,3,3,48,1,SPORT,LB,old,m,./images/SPORTLB.png,,,,,,,,,,,,,,,,,,,,,
,,,,,,,,,,,,,,,,,198988,18,2022-01-31_22h01.37.162,lexical_decision_task_DD_L3,2021.2.3,Win32,60.07449237,,,,,,,,,,,0.7936,1,,,,,,,,,,,,,,,m,1,0.7936,,,,,,,,0.485941931,-0.084817262,0,0,0,,0,4,4,80,1,WEASEL,HB,old,m,./images/WEASELHB.png,,,,,,,,,,,,,,,,,,,,,
,,,,,,,,,,,,,,,,,198988,18,2022-01-31_22h01.37.162,lexical_decision_task_DD_L3,2021.2.3,Win32,60.07449237,,,,,,,,,,,1.3614,1,,,,,,,,,,,,,,,z,1,1.3614,,,,,,,,0.485941931,-0.084817262,0,0,0,,0,5,5,148,1,JOMS,HB,old,z,./images/JOMSHB.png,,,,,,,,,,,,,,,,,,,,,
,,,,,,,,,,,,,,,,,198988,18,2022-01-31_22h01.37.162,lexical_decision_task_DD_L3,2021.2.3,Win32,60.07449237,,,,,,,,,,,1.3883,1,,,,,,,,,,,,,,,z,1,1.3883,,,,,,,,0.485941931,-0.084817262,0,0,0,,0,6,6,154,1,THINT,HB,old,z,./images/THINTHB.png,,,,,,,,,,,,,,,,,,,,,
,,,,,,,,,,,,,,,,,198988,18,2022-01-31_22h01.37.162,lexical_decision_task_DD_L3,2021.2.3,Win32,60.07449237,,,,,,,,,,,2.0958,1,,,,,,,,,,,,,,,z,1,2.0958,,,,,,,,0.485941931,-0.084817262,0,0,0,,0,7,7,85,1,CHULK,HB,old,z,./images/CHULKHB.png,,,,,,,,,,,,,,,,,,,,,
,,,,,,,,,,,,,,,,,198988,18,2022-01-31_22h01.37.162,lexical_decision_task_DD_L3,2021.2.3,Win32,60.07449237,,,,,,,,,,,0.6259,1,,,,,,,,,,,,,,,m,1,0.6259,,,,,,,,0.485941931,-0.084817262,0,0,0,,0,8,8,33,1,MAGGOT,LB,old,m,./images/MAGGOTLB.png,,,,,,,,,,,,,,,,,,,,,
,,,,,,,,,,,,,,,,,198988,18,2022-01-31_22h01.37.162,lexical_decision_task_DD_L3,2021.2.3,Win32,60.07449237,,,,,,,,,,,0.7324,1,,,,,,,,,,,,,,,z,1,0.7324,,,,,,,,0.485941931,-0.084817262,0,0,0,,0,9,9,150,1,NOOLS,C,old,z,./images/NOOLS.png,,,,,,,,,,,,,,,,,,,,,
,,,,,,,,,,,,,,,,,198988,18,2022-01-31_22h01.37.162,lexical_decision_task_DD_L3,2021.2.3,Win32,60.07449237,,,,,,,,,,,0.6427,1,,,,,,,,,,,,,,,m,1,0.6427,,,,,,,,0.485941931,-0.084817262,0,0,0,,0,10,10,63,1,MIRROR,LB,old,m,./images/MIRRORLB.png,,,,,,,,,,,,,,,,,,,,,
,,,,,,,,,,,,,,,,,198988,18,2022-01-31_22h01.37.162,lexical_decision_task_DD_L3,2021.2.3,Win32,60.07449237,,,,,,,,,,,0.6033,1,,,,,,,,,,,,,,,m,1,0.6033,,,,,,,,0.485941931,-0.084817262,0,0,0,,0,11,11,21,1,KIDNEY,LB,old,m,./images/KIDNEYLB.png,,,,,,,,,,,,,,,,,,,,,
,,,,,,,,,,,,,,,,,198988,18,2022-01-31_22h01.37.162,lexical_decision_task_DD_L3,2021.2.3,Win32,60.07449237,,,,,,,,,,,1.2592,1,,,,,,,,,,,,,,,z,1,1.2592,,,,,,,,0.485941931,-0.084817262,0,0,0,,0,12,12,152,1,FRAIN,LB,old,z,./images/FRAINLB.png,,,,,,,,,,,,,,,,,,,,,
,,,,,,,,,,,,,,,,,198988,18,2022-01-31_22h01.37.162,lexical_decision_task_DD_L3,2021.2.3,Win32,60.07449237,,,,,,,,,,,0.7057,1,,,,,,,,,,,,,,,z,1,0.7057,,,,,,,,0.485941931,-0.084817262,0,0,0,,0,13,13,84,1,HAXES,C,old,z,./images/HAXES.png,,,,,,,,,,,,,,,,,,,,,
,,,,,,,,,,,,,,,,,198988,18,2022-01-31_22h01.37.162,lexical_decision_task_DD_L3,2021.2.3,Win32,60.07449237,,,,,,,,,,,0.965,1,,,,,,,,,,,,,,,z,1,0.965,,,,,,,,0.485941931,-0.084817262,0,0,0,,0,14,14,87,1,TRING,C,old,z,./images/TRING.png,,,,,,,,,,,,,,,,,,,,,
,,,,,,,,,,,,,,,,,198988,18,2022-01-31_22h01.37.162,lexical_decision_task_DD_L3,2021.2.3,Win32,60.07449237,,,,,,,,,,,0.7286,1,,,,,,,,,,,,,,,m,1,0.7286,,,,,,,,0.485941931,-0.084817262,0,0,0,,0,15,15,54,1,TRIPOD,LB,old,m,./images/TRIPODLB.png,,,,,,,,,,,,,,,,,,,,,
,,,,,,,,,,,,,,,,,198988,18,2022-01-31_22h01.37.162,lexical_decision_task_DD_L3,2021.2.3,Win32,60.07449237,,,,,,,,,,,0.6339,1,,,,,,,,,,,,,,,z,1,0.6339,,,,,,,,0.485941931,-0.084817262,0,0,0,,0,16,16,111,1,HOSSE,C,old,z,./images/HOSSE.png,,,,,,,,,,,,,,,,,,,,,
,,,,,,,,,,,,,,,,,198988,18,2022-01-31_22h01.37.162,lexical_decision_task_DD_L3,2021.2.3,Win32,60.07449237,,,,,,,,,,,1.7178,1,,,,,,,,,,,,,,,z,1,1.7178,,,,,,,,0.485941931,-0.084817262,0,0,0,,0,17,17,112,1,MYING,HB,old,z,./images/MYINGHB.png,,,,,,,,,,,,,,,,,,,,,
,,,,,,,,,,,,,,,,,198988,18,2022-01-31_22h01.37.162,lexical_decision_task_DD_L3,2021.2.3,Win32,60.07449237,,,,,,,,,,,0.8683,1,,,,,,,,,,,,,,,z,1,0.8683,,,,,,,,0.485941931,-0.084817262,0,0,0,,0,18,18,143,1,MONGS,LB,old,z,./images/MONGSLB.png,,,,,,,,,,,,,,,,,,,,,
,,,,,,,,,,,,,,,,,198988,18,2022-01-31_22h01.37.162,lexical_decision_task_DD_L3,2021.2.3,Win32,60.07449237,,,,,,,,,,,1.6178,1,,,,,,,,,,,,,,,m,1,1.6178,,,,,,,,0.485941931,-0.084817262,0,0,0,,0,19,19,44,1,LIZARD,HB,old,m,./images/LIZARDHB.png,,,,,,,,,,,,,,,,,,,,,
,,,,,,,,,,,,,,,,,198988,18,2022-01-31_22h01.37.162,lexical_decision_task_DD_L3,2021.2.3,Win32,60.07449237,,,,,,,,,,,0.7181,1,,,,,,,,,,,,,,,m,1,0.7181,,,,,,,,0.485941931,-0.084817262,0,0,0,,0,20,20,70,1,URINE,C,old,m,./images/URINE.png,,,,,,,,,,,,,,,,,,,,,
,,,,,,,,,,,,,,,,,198988,18,2022-01-31_22h01.37.162,lexical_decision_task_DD_L3,2021.2.3,Win32,60.07449237,,,,,,,,,,,0.9338,1,,,,,,,,,,,,,,,m,1,0.9338,,,,,,,,0.485941931,-0.084817262,0,0,0,,0,21,21,39,1,SHELF,LB,old,m,./images/SHELFLB.png,,,,,,,,,,,,,,,,,,,,,
,,,,,,,,,,,,,,,,,198988,18,2022-01-31_22h01.37.162,lexical_decision_task_DD_L3,2021.2.3,Win32,60.07449237,,,,,,,,,,,1.1676,1,,,,,,,,,,,,,,,z,1,1.1676,,,,,,,,0.485941931,-0.084817262,0,0,0,,0,22,22,100,1,DRIBS,HB,old,z,./images/DRIBSHB.png,,,,,,,,,,,,,,,,,,,,,
,,,,,,,,,,,,,,,,,198988,18,2022-01-31_22h01.37.162,lexical_decision_task_DD_L3,2021.2.3,Win32,60.07449237,,,,,,,,,,,0.751,1,,,,,,,,,,,,,,,z,1,0.751,,,,,,,,0.485941931,-0.084817262,0,0,0,,0,23,23,117,1,STEEG,C,old,z,./images/STEEG.png,,,,,,,,,,,,,,,,,,,,,
,,,,,,,,,,,,,,,,,198988,18,2022-01-31_22h01.37.162,lexical_decision_task_DD_L3,2021.2.3,Win32,60.07449237,,,,,,,,,,,0.6344,1,,,,,,,,,,,,,,,m,1,0.6344,,,,,,,,0.485941931,-0.084817262,0,0,0,,0,24,24,45,1,KITTEN,LB,old,m,./images/KITTENLB.png,,,,,,,,,,,,,,,,,,,,,
,,,,,,,,,,,,,,,,,198988,18,2022-01-31_22h01.37.162,lexical_decision_task_DD_L3,2021.2.3,Win32,60.07449237,,,,,,,,,,,1.0344,1,,,,,,,,,,,,,,,z,1,1.0344,,,,,,,,0.485941931,-0.084817262,0,0,0,,0,25,25,146,1,MOOST,LB,old,z,./images/MOOSTLB.png,,,,,,,,,,,,,,,,,,,,,
,,,,,,,,,,,,,,,,,198988,18,2022-01-31_22h01.37.162,lexical_decision_task_DD_L3,2021.2.3,Win32,60.07449237,,,,,,,,,,,0.9273,1,,,,,,,,,,,,,,,z,1,0.9273,,,,,,,,0.485941931,-0.084817262,0,0,0,,0,26,26,95,1,HANTY,LB,old,z,./images/HANTYLB.png,,,,,,,,,,,,,,,,,,,,,
,,,,,,,,,,,,,,,,,198988,18,2022-01-31_22h01.37.162,lexical_decision_task_DD_L3,2021.2.3,Win32,60.07449237,,,,,,,,,,,1.2836,1,,,,,,,,,,,,,,,z,1,1.2836,,,,,,,,0.485941931,-0.084817262,0,0,0,,0,27,27,122,1,BLOOT,LB,old,z,./images/BLOOTLB.png,,,,,,,,,,,,,,,,,,,,,
,,,,,,,,,,,,,,,,,198988,18,2022-01-31_22h01.37.162,lexical_decision_task_DD_L3,2021.2.3,Win32,60.07449237,,,,,,,,,,,1.034,1,,,,,,,,,,,,,,,z,1,1.034,,,,,,,,0.485941931,-0.084817262,0,0,0,,0,28,28,89,1,DRIEK,LB,old,z,./images/DRIEKLB.png,,,,,,,,,,,,,,,,,,,,,
,,,,,,,,,,,,,,,,,198988,18,2022-01-31_22h01.37.162,lexical_decision_task_DD_L3,2021.2.3,Win32,60.07449237,,,,,,,,,,,0.9525,1,,,,,,,,,,,,,,,z,1,0.9525,,,,,,,,0.485941931,-0.084817262,0,0,0,,0,29,29,156,1,HIXES,C,old,z,./images/HIXES.png,,,,,,,,,,,,,,,,,,,,,
,,,,,,,,,,,,,,,,,198988,18,2022-01-31_22h01.37.162,lexical_decision_task_DD_L3,2021.2.3,Win32,60.07449237,,,,,,,,,,,1.0204,1,,,,,,,,,,,,,,,m,1,1.0204,,,,,,,,0.485941931,-0.084817262,0,0,0,,0,30,30,8,1,TULIP,HB,old,m,./images/TULIPHB.png,,,,,,,,,,,,,,,,,,,,,
,,,,,,,,,,,,,,,,,198988,18,2022-01-31_22h01.37.162,lexical_decision_task_DD_L3,2021.2.3,Win32,60.07449237,,,,,,,,,,,1.2183,1,,,,,,,,,,,,,,,m,1,1.2183,,,,,,,,0.485941931,-0.084817262,0,0,0,,0,31,31,83,1,JUNGLE,HB,old,m,./images/JUNGLEHB.png,,,,,,,,,,,,,,,,,,,,,
,,,,,,,,,,,,,,,,,198988,18,2022-01-31_22h01.37.162,lexical_decision_task_DD_L3,2021.2.3,Win32,60.07449237,,,,,,,,,,,0.8997,1,,,,,,,,,,,,,,,z,1,0.8997,,,,,,,,0.485941931,-0.084817262,0,0,0,,0,32,32,88,1,GLUSH,HB,old,z,./images/GLUSHHB.png,,,,,,,,,,,,,,,,,,,,,
,,,,,,,,,,,,,,,,,198988,18,2022-01-31_22h01.37.162,lexical_decision_task_DD_L3,2021.2.3,Win32,60.07449237,,,,,,,,,,,0.7005,1,,,,,,,,,,,,,,,m,1,0.7005,,,,,,,,0.485941931,-0.084817262,0,0,0,,0,33,33,14,1,PICKLE,HB,old,m,./images/PICKLEHB.png,,,,,,,,,,,,,,,,,,,,,
,,,,,,,,,,,,,,,,,198988,18,2022-01-31_22h01.37.162,lexical_decision_task_DD_L3,2021.2.3,Win32,60.07449237,,,,,,,,,,,0.9372,1,,,,,,,,,,,,,,,z,1,0.9372,,,,,,,,0.485941931,-0.084817262,0,0,0,,0,34,34,124,1,TUNCH,HB,old,z,./images/TUNCHHB.png,,,,,,,,,,,,,,,,,,,,,
,,,,,,,,,,,,,,,,,198988,18,2022-01-31_22h01.37.162,lexical_decision_task_DD_L3,2021.2.3,Win32,60.07449237,,,,,,,,,,,0.6258,1,,,,,,,,,,,,,,,m,1,0.6258,,,,,,,,0.485941931,-0.084817262,0,0,0,,0,35,35,77,1,COUCH,HB,old,m,./images/COUCHHB.png,,,,,,,,,,,,,,,,,,,,,
,,,,,,,,,,,,,,,,,198988,18,2022-01-31_22h01.37.162,lexical_decision_task_DD_L3,2021.2.3,Win32,60.07449237,,,,,,,,,,,0.8787,1,,,,,,,,,,,,,,,m,1,0.8787,,,,,,,,0.485941931,-0.084817262,0,0,0,,0,36,36,29,1,CRUMB,HB,old,m,./images/CRUMBHB.png,,,,,,,,,,,,,,,,,,,,,
,,,,,,,,,,,,,,,,,198988,18,2022-01-31_22h01.37.162,lexical_decision_task_DD_L3,2021.2.3,Win32,60.07449237,,,,,,,,,,,1.0009,1,,,,,,,,,,,,,,,z,1,1.0009,,,,,,,,0.485941931,-0.084817262,0,0,0,,0,37,37,153,1,CLUPS,C,old,z,./images/CLUPS.png,,,,,,,,,,,,,,,,,,,,,
,,,,,,,,,,,,,,,,,198988,18,2022-01-31_22h01.37.162,lexical_decision_task_DD_L3,2021.2.3,Win32,60.07449237,,,,,,,,,,,0.7706,1,,,,,,,,,,,,,,,m,1,0.7706,,,,,,,,0.485941931,-0.084817262,0,0,0,,0,38,38,50,1,MALLET,HB,old,m,./images/MALLETHB.png,,,,,,,,,,,,,,,,,,,,,
,,,,,,,,,,,,,,,,,198988,18,2022-01-31_22h01.37.162,lexical_decision_task_DD_L3,2021.2.3,Win32,60.07449237,,,,,,,,,,,0.6005,1,,,,,,,,,,,,,,,z,1,0.6005,,,,,,,,0.485941931,-0.084817262,0,0,0,,0,39,39,132,1,SCIFF,C,old,z,./images/SCIFF.png,,,,,,,,,,,,,,,,,,,,,
,,,,,,,,,,,,,,,,,198988,18,2022-01-31_22h01.37.162,lexical_decision_task_DD_L3,2021.2.3,Win32,60.07449237,,,,,,,,,,,0.99,1,,,,,,,,,,,,,,,z,1,0.99,,,,,,,,0.485941931,-0.084817262,0,0,0,,0,40,40,91,1,SHENS,HB,old,z,./images/SHENSHB.png,,,,,,,,,,,,,,,,,,,,,
,,,,,,,,,,,,,,,,,198988,18,2022-01-31_22h01.37.162,lexical_decision_task_DD_L3,2021.2.3,Win32,60.07449237,,,,,,,,,,,1.1855,1,,,,,,,,,,,,,,,z,1,1.1855,,,,,,,,0.485941931,-0.084817262,0,0,0,space,0,41,41,145,1,LAMEL,HB,old,z,./images/LAMELHB.png,17.2357,,,,,,,,,,,,,,,,,,,,
,,,,,,,,,,,,,,,,,198988,18,2022-01-31_22h01.37.162,lexical_decision_task_DD_L3,2021.2.3,Win32,60.07449237,,,,,,,,,,,0.7777,1,,,,,,,,,,,,,,,z,1,0.7777,,,,,,,,0.485941931,-0.084817262,0,0,0,,0,42,42,130,1,CRILL,HB,old,z,./images/CRILLHB.png,,,,,,,,,,,,,,,,,,,,,
,,,,,,,,,,,,,,,,,198988,18,2022-01-31_22h01.37.162,lexical_decision_task_DD_L3,2021.2.3,Win32,60.07449237,,,,,,,,,,,0.7019,1,,,,,,,,,,,,,,,m,1,0.7019,,,,,,,,0.485941931,-0.084817262,0,0,0,,0,43,43,68,1,TORCH,HB,old,m,./images/TORCHHB.png,,,,,,,,,,,,,,,,,,,,,
,,,,,,,,,,,,,,,,,198988,18,2022-01-31_22h01.37.162,lexical_decision_task_DD_L3,2021.2.3,Win32,60.07449237,,,,,,,,,,,0.6399,1,,,,,,,,,,,,,,,z,1,0.6399,,,,,,,,0.485941931,-0.084817262,0,0,0,,0,44,44,104,1,GITTY,LB,old,z,./images/GITTYLB.png,,,,,,,,,,,,,,,,,,,,,
,,,,,,,,,,,,,,,,,198988,18,2022-01-31_22h01.37.162,lexical_decision_task_DD_L3,2021.2.3,Win32,60.07449237,,,,,,,,,,,0.984,1,,,,,,,,,,,,,,,z,1,0.984,,,,,,,,0.485941931,-0.084817262,0,0,0,,0,45,45,115,1,MAWNS,HB,old,z,./images/MAWNSHB.png,,,,,,,,,,,,,,,,,,,,,
,,,,,,,,,,,,,,,,,198988,18,2022-01-31_22h01.37.162,lexical_decision_task_DD_L3,2021.2.3,Win32,60.07449237,,,,,,,,,,,0.6173,1,,,,,,,,,,,,,,,m,1,0.6173,,,,,,,,0.485941931,-0.084817262,0,0,0,,0,46,46,53,1,CARPET,HB,old,m,./images/CARPETHB.png,,,,,,,,,,,,,,,,,,,,,
,,,,,,,,,,,,,,,,,198988,18,2022-01-31_22h01.37.162,lexical_decision_task_DD_L3,2021.2.3,Win32,60.07449237,,,,,,,,,,,0.684,1,,,,,,,,,,,,,,,m,1,0.684,,,,,,,,0.485941931,-0.084817262,0,0,0,,0,47,47,73,1,SNACK,C,old,m,./images/SNACK.png,,,,,,,,,,,,,,,,,,,,,
,,,,,,,,,,,,,,,,,198988,18,2022-01-31_22h01.37.162,lexical_decision_task_DD_L3,2021.2.3,Win32,60.07449237,,,,,,,,,,,0.6508,1,,,,,,,,,,,,,,,m,1,0.6508,,,,,,,,0.485941931,-0.084817262,0,0,0,,0,48,48,81,1,POODLE,LB,old,m,./images/POODLELB.png,,,,,,,,,,,,,,,,,,,,,
,,,,,,,,,,,,,,,,,198988,18,2022-01-31_22h01.37.162,lexical_decision_task_DD_L3,2021.2.3,Win32,60.07449237,,,,,,,,,,,1.1009,1,,,,,,,,,,,,,,,m,1,1.1009,,,,,,,,0.485941931,-0.084817262,0,0,0,,0,49,49,74,1,CEMENT,HB,old,m,./images/CEMENTHB.png,,,,,,,,,,,,,,,,,,,,,
,,,,,,,,,,,,,,,,,198988,18,2022-01-31_22h01.37.162,lexical_decision_task_DD_L3,2021.2.3,Win32,60.07449237,,,,,,,,,,,0.5882,0,,,,,,,,,,,,,,,z,0,0.5882,,,,,,,,0.485941931,-0.084817262,0,0,0,,0,50,50,43,1,MOSQUE,C,old,m,./images/MOSQUE.png,,,,,,,,,,,,,,,,,,,,,
,,,,,,,,,,,,,,,,,198988,18,2022-01-31_22h01.37.162,lexical_decision_task_DD_L3,2021.2.3,Win32,60.07449237,,,,,,,,,,,0.9176,1,,,,,,,,,,,,,,,z,1,0.9176,,,,,,,,0.485941931,-0.084817262,0,0,0,,0,51,51,118,1,BAVEL,HB,old,z,./images/BAVELHB.png,,,,,,,,,,,,,,,,,,,,,
,,,,,,,,,,,,,,,,,198988,18,2022-01-31_22h01.37.162,lexical_decision_task_DD_L3,2021.2.3,Win32,60.07449237,,,,,,,,,,,0.4873,1,,,,,,,,,,,,,,,m,1,0.4873,,,,,,,,0.485941931,-0.084817262,0,0,0,,0,52,52,4,1,MUSCLE,C,old,m,./images/MUSCLE.png,,,,,,,,,,,,,,,,,,,,,
,,,,,,,,,,,,,,,,,198988,18,2022-01-31_22h01.37.162,lexical_decision_task_DD_L3,2021.2.3,Win32,60.07449237,,,,,,,,,,,0.6284,1,,,,,,,,,,,,,,,z,1,0.6284,,,,,,,,0.485941931,-0.084817262,0,0,0,,0,53,53,144,1,NAIRY,C,old,z,./images/NAIRY.png,,,,,,,,,,,,,,,,,,,,,
,,,,,,,,,,,,,,,,,198988,18,2022-01-31_22h01.37.162,lexical_decision_task_DD_L3,2021.2.3,Win32,60.07449237,,,,,,,,,,,0.7908,1,,,,,,,,,,,,,,,m,1,0.7908,,,,,,,,0.485941931,-0.084817262,0,0,0,,0,54,54,36,1,THROAT,LB,old,m,./images/THROATLB.png,,,,,,,,,,,,,,,,,,,,,
,,,,,,,,,,,,,,,,,198988,18,2022-01-31_22h01.37.162,lexical_decision_task_DD_L3,2021.2.3,Win32,60.07449237,,,,,,,,,,,0.7342,1,,,,,,,,,,,,,,,z,1,0.7342,,,,,,,,0.485941931,-0.084817262,0,0,0,,0,55,55,116,1,BALGY,LB,old,z,./images/BALGYLB.png,,,,,,,,,,,,,,,,,,,,,
,,,,,,,,,,,,,,,,,198988,18,2022-01-31_22h01.37.162,lexical_decision_task_DD_L3,2021.2.3,Win32,60.07449237,,,,,,,,,,,0.5619,1,,,,,,,,,,,,,,,m,1,0.5619,,,,,,,,0.485941931,-0.084817262,0,0,0,,0,56,56,28,1,FALCON,C,old,m,./images/FALCON.png,,,,,,,,,,,,,,,,,,,,,
,,,,,,,,,,,,,,,,,198988,18,2022-01-31_22h01.37.162,lexical_decision_task_DD_L3,2021.2.3,Win32,60.07449237,,,,,,,,,,,0.6342,1,,,,,,,,,,,,,,,z,1,0.6342,,,,,,,,0.485941931,-0.084817262,0,0,0,,0,57,57,93,1,SMONE,C,old,z,./images/SMONE.png,,,,,,,,,,,,,,,,,,,,,
,,,,,,,,,,,,,,,,,198988,18,2022-01-31_22h01.37.162,lexical_decision_task_DD_L3,2021.2.3,Win32,60.07449237,,,,,,,,,,,0.642,1,,,,,,,,,,,,,,,m,1,0.642,,,,,,,,0.485941931,-0.084817262,0,0,0,,0,58,58,78,1,LITTER,LB,old,m,./images/LITTERLB.png,,,,,,,,,,,,,,,,,,,,,
,,,,,,,,,,,,,,,,,198988,18,2022-01-31_22h01.37.162,lexical_decision_task_DD_L3,2021.2.3,Win32,60.07449237,,,,,,,,,,,0.6005,1,,,,,,,,,,,,,,,z,1,0.6005,,,,,,,,0.485941931,-0.084817262,0,0,0,,0,59,59,114,1,RIKES,C,old,z,./images/RIKES.png,,,,,,,,,,,,,,,,,,,,,
,,,,,,,,,,,,,,,,,198988,18,2022-01-31_22h01.37.162,lexical_decision_task_DD_L3,2021.2.3,Win32,60.07449237,,,,,,,,,,,0.9011,1,,,,,,,,,,,,,,,m,1,0.9011,,,,,,,,0.485941931,-0.084817262,0,0,0,,0,60,60,71,1,PIMPLE,HB,old,m,./images/PIMPLEHB.png,,,,,,,,,,,,,,,,,,,,,
,,,,,,,,,,,,,,,,,198988,18,2022-01-31_22h01.37.162,lexical_decision_task_DD_L3,2021.2.3,Win32,60.07449237,,,,,,,,,,,0.6998,1,,,,,,,,,,,,,,,m,1,0.6998,,,,,,,,0.485941931,-0.084817262,0,0,0,,0,61,61,10,1,BELLY,C,old,m,./images/BELLY.png,,,,,,,,,,,,,,,,,,,,,
,,,,,,,,,,,,,,,,,198988,18,2022-01-31_22h01.37.162,lexical_decision_task_DD_L3,2021.2.3,Win32,60.07449237,,,,,,,,,,,0.6507,1,,,,,,,,,,,,,,,m,1,0.6507,,,,,,,,0.485941931,-0.084817262,0,0,0,,0,62,62,25,1,WRIST,C,old,m,./images/WRIST.png,,,,,,,,,,,,,,,,,,,,,
,,,,,,,,,,,,,,,,,198988,18,2022-01-31_22h01.37.162,lexical_decision_task_DD_L3,2021.2.3,Win32,60.07449237,,,,,,,,,,,0.6269,1,,,,,,,,,,,,,,,m,1,0.6269,,,,,,,,0.485941931,-0.084817262,0,0,0,,0,63,63,2,1,BEARD,HB,old,m,./images/BEARDHB.png,,,,,,,,,,,,,,,,,,,,,
,,,,,,,,,,,,,,,,,198988,18,2022-01-31_22h01.37.162,lexical_decision_task_DD_L3,2021.2.3,Win32,60.07449237,,,,,,,,,,,0.7879,1,,,,,,,,,,,,,,,z,1,0.7879,,,,,,,,0.485941931,-0.084817262,0,0,0,,0,64,64,164,1,SGREW,LB,old,z,./images/SGREWLB.png,,,,,,,,,,,,,,,,,,,,,
,,,,,,,,,,,,,,,,,198988,18,2022-01-31_22h01.37.162,lexical_decision_task_DD_L3,2021.2.3,Win32,60.07449237,,,,,,,,,,,0.8601,1,,,,,,,,,,,,,,,m,1,0.8601,,,,,,,,0.485941931,-0.084817262,0,0,0,,0,65,65,47,1,BERRY,HB,old,m,./images/BERRYHB.png,,,,,,,,,,,,,,,,,,,,,
,,,,,,,,,,,,,,,,,198988,18,2022-01-31_22h01.37.162,lexical_decision_task_DD_L3,2021.2.3,Win32,60.07449237,,,,,,,,,,,0.6997,1,,,,,,,,,,,,,,,z,1,0.6997,,,,,,,,0.485941931,-0.084817262,0,0,0,,0,66,66,108,1,GRUET,C,old,z,./images/GRUET.png,,,,,,,,,,,,,,,,,,,,,
,,,,,,,,,,,,,,,,,198988,18,2022-01-31_22h01.37.162,lexical_decision_task_DD_L3,2021.2.3,Win32,60.07449237,,,,,,,,,,,0.734,1,,,,,,,,,,,,,,,z,1,0.734,,,,,,,,0.485941931,-0.084817262,0,0,0,,0,67,67,120,1,RINED,C,old,z,./images/RINED.png,,,,,,,,,,,,,,,,,,,,,
,,,,,,,,,,,,,,,,,198988,18,2022-01-31_22h01.37.162,lexical_decision_task_DD_L3,2021.2.3,Win32,60.07449237,,,,,,,,,,,0.6179,1,,,,,,,,,,,,,,,z,1,0.6179,,,,,,,,0.485941931,-0.084817262,0,0,0,,0,68,68,137,1,JOOST,LB,old,z,./images/JOOSTLB.png,,,,,,,,,,,,,,,,,,,,,
,,,,,,,,,,,,,,,,,198988,18,2022-01-31_22h01.37.162,lexical_decision_task_DD_L3,2021.2.3,Win32,60.07449237,,,,,,,,,,,0.8404,1,,,,,,,,,,,,,,,m,1,0.8404,,,,,,,,0.485941931,-0.084817262,0,0,0,,0,69,69,23,1,WALRUS,HB,old,m,./images/WALRUSHB.png,,,,,,,,,,,,,,,,,,,,,
,,,,,,,,,,,,,,,,,198988,18,2022-01-31_22h01.37.162,lexical_decision_task_DD_L3,2021.2.3,Win32,60.07449237,,,,,,,,,,,0.9517,1,,,,,,,,,,,,,,,z,1,0.9517,,,,,,,,0.485941931,-0.084817262,0,0,0,,0,70,70,140,1,DOVET,LB,old,z,./images/DOVETLB.png,,,,,,,,,,,,,,,,,,,,,
,,,,,,,,,,,,,,,,,198988,18,2022-01-31_22h01.37.162,lexical_decision_task_DD_L3,2021.2.3,Win32,60.07449237,,,,,,,,,,,0.6939,1,,,,,,,,,,,,,,,z,1,0.6939,,,,,,,,0.485941931,-0.084817262,0,0,0,,0,71,71,126,1,GUELS,C,old,z,./images/GUELS.png,,,,,,,,,,,,,,,,,,,,,
,,,,,,,,,,,,,,,,,198988,18,2022-01-31_22h01.37.162,lexical_decision_task_DD_L3,2021.2.3,Win32,60.07449237,,,,,,,,,,,0.9942,0,,,,,,,,,,,,,,,z,0,0.9942,,,,,,,,0.485941931,-0.084817262,0,0,0,,0,72,72,34,1,CANYON,C,old,m,./images/CANYON.png,,,,,,,,,,,,,,,,,,,,,
,,,,,,,,,,,,,,,,,198988,18,2022-01-31_22h01.37.162,lexical_decision_task_DD_L3,2021.2.3,Win32,60.07449237,,,,,,,,,,,0.7999,1,,,,,,,,,,,,,,,m,1,0.7999,,,,,,,,0.485941931,-0.084817262,0,0,0,,0,73,73,49,1,DRUMS,C,old,m,./images/DRUMS.png,,,,,,,,,,,,,,,,,,,,,
,,,,,,,,,,,,,,,,,198988,18,2022-01-31_22h01.37.162,lexical_decision_task_DD_L3,2021.2.3,Win32,60.07449237,,,,,,,,,,,0.7173,1,,,,,,,,,,,,,,,z,1,0.7173,,,,,,,,0.485941931,-0.084817262,0,0,0,,0,74,74,103,1,FLORT,HB,old,z,./images/FLORTHB.png,,,,,,,,,,,,,,,,,,,,,
,,,,,,,,,,,,,,,,,198988,18,2022-01-31_22h01.37.162,lexical_decision_task_DD_L3,2021.2.3,Win32,60.07449237,,,,,,,,,,,0.9072,1,,,,,,,,,,,,,,,z,1,0.9072,,,,,,,,0.485941931,-0.084817262,0,0,0,,0,75,75,94,1,BLANS,HB,old,z,./images/BLANSHB.png,,,,,,,,,,,,,,,,,,,,,
,,,,,,,,,,,,,,,,,198988,18,2022-01-31_22h01.37.162,lexical_decision_task_DD_L3,2021.2.3,Win32,60.07449237,,,,,,,,,,,0.8022,1,,,,,,,,,,,,,,,z,1,0.8022,,,,,,,,0.485941931,-0.084817262,0,0,0,,0,76,76,105,1,MOKER,C,old,z,./images/MOKER.png,,,,,,,,,,,,,,,,,,,,,
,,,,,,,,,,,,,,,,,198988,18,2022-01-31_22h01.37.162,lexical_decision_task_DD_L3,2021.2.3,Win32,60.07449237,,,,,,,,,,,0.9595,1,,,,,,,,,,,,,,,m,1,0.9595,,,,,,,,0.485941931,-0.084817262,0,0,0,,0,77,77,20,1,CRADLE,HB,old,m,./images/CRADLEHB.png,,,,,,,,,,,,,,,,,,,,,
,,,,,,,,,,,,,,,,,198988,18,2022-01-31_22h01.37.162,lexical_decision_task_DD_L3,2021.2.3,Win32,60.07449237,,,,,,,,,,,0.693,1,,,,,,,,,,,,,,,z,1,0.693,,,,,,,,0.485941931,-0.084817262,0,0,0,,0,78,78,131,1,NACES,LB,old,z,./images/NACESLB.png,,,,,,,,,,,,,,,,,,,,,
,,,,,,,,,,,,,,,,,198988,18,2022-01-31_22h01.37.162,lexical_decision_task_DD_L3,2021.2.3,Win32,60.07449237,,,,,,,,,,,1.7507,1,,,,,,,,,,,,,,,z,1,1.7507,,,,,,,,0.485941931,-0.084817262,0,0,0,,0,79,79,142,1,PLASK,HB,old,z,./images/PLASKHB.png,,,,,,,,,,,,,,,,,,,,,
,,,,,,,,,,,,,,,,,198988,18,2022-01-31_22h01.37.162,lexical_decision_task_DD_L3,2021.2.3,Win32,60.07449237,,,,,,,,,,,1.5163,1,,,,,,,,,,,,,,,m,1,1.5163,,,,,,,,0.485941931,-0.084817262,0,0,0,,0,80,80,13,1,MOTOR,C,old,m,./images/MOTOR.png,,,,,,,,,,,,,,,,,,,,,
,,,,,,,,,,,,,,,,,198988,18,2022-01-31_22h01.37.162,lexical_decision_task_DD_L3,2021.2.3,Win32,60.07449237,,,,,,,,,,,0.6339,1,,,,,,,,,,,,,,,m,1,0.6339,,,,,,,,0.485941931,-0.084817262,0,0,0,,0,81,81,51,1,ONION,LB,old,m,./images/ONIONLB.png,,,,,,,,,,,,,,,,,,,,,
,,,,,,,,,,,,,,,,,198988,18,2022-01-31_22h01.37.162,lexical_decision_task_DD_L3,2021.2.3,Win32,60.07449237,,,,,,,,,,,0.8233,1,,,,,,,,,,,,,,,m,1,0.8233,,,,,,,,0.485941931,-0.084817262,0,0,0,,0,82,82,41,1,STRING,HB,old,m,./images/STRINGHB.png,,,,,,,,,,,,,,,,,,,,,
,,,,,,,,,,,,,,,,,198988,18,2022-01-31_22h01.37.162,lexical_decision_task_DD_L3,2021.2.3,Win32,60.07449237,,,,,,,,,,,0.7508,1,,,,,,,,,,,,,,,z,1,0.7508,,,,,,,,0.485941931,-0.084817262,0,0,0,space,0,83,83,161,1,BLAPS,LB,old,z,./images/BLAPSLB.png,3.1529,,,,,,,,,,,,,,,,,,,,
,,,,,,,,,,,,,,,,,198988,18,2022-01-31_22h01.37.162,lexical_decision_task_DD_L3,2021.2.3,Win32,60.07449237,,,,,,,,,,,0.5841,1,,,,,,,,,,,,,,,m,1,0.5841,,,,,,,,0.485941931,-0.084817262,0,0,0,,0,84,84,7,1,PAINT,C,old,m,./images/PAINT.png,,,,,,,,,,,,,,,,,,,,,
,,,,,,,,,,,,,,,,,198988,18,2022-01-31_22h01.37.162,lexical_decision_task_DD_L3,2021.2.3,Win32,60.07449237,,,,,,,,,,,0.6115,1,,,,,,,,,,,,,,,z,1,0.6115,,,,,,,,0.485941931,-0.084817262,0,0,0,,0,85,85,167,1,ZONET,LB,old,z,./images/ZONETLB.png,,,,,,,,,,,,,,,,,,,,,
,,,,,,,,,,,,,,,,,198988,18,2022-01-31_22h01.37.162,lexical_decision_task_DD_L3,2021.2.3,Win32,60.07449237,,,,,,,,,,,0.5521,1,,,,,,,,,,,,,,,m,1,0.5521,,,,,,,,0.485941931,-0.084817262,0,0,0,,0,86,86,75,1,GRAIN,LB,old,m,./images/GRAINLB.png,,,,,,,,,,,,,,,,,,,,,
,,,,,,,,,,,,,,,,,198988,18,2022-01-31_22h01.37.162,lexical_decision_task_DD_L3,2021.2.3,Win32,60.07449237,,,,,,,,,,,0.8963,1,,,,,,,,,,,,,,,z,1,0.8963,,,,,,,,0.485941931,-0.084817262,0,0,0,,0,87,87,109,1,BURGE,HB,old,z,./images/BURGEHB.png,,,,,,,,,,,,,,,,,,,,,
,,,,,,,,,,,,,,,,,198988,18,2022-01-31_22h01.37.162,lexical_decision_task_DD_L3,2021.2.3,Win32,60.07449237,,,,,,,,,,,0.6561,1,,,,,,,,,,,,,,,z,1,0.6561,,,,,,,,0.485941931,-0.084817262,0,0,0,,0,88,88,86,1,AIFED,LB,old,z,./images/AIFEDLB.png,,,,,,,,,,,,,,,,,,,,,
,,,,,,,,,,,,,,,,,198988,18,2022-01-31_22h01.37.162,lexical_decision_task_DD_L3,2021.2.3,Win32,60.07449237,,,,,,,,,,,0.7661,1,,,,,,,,,,,,,,,z,1,0.7661,,,,,,,,0.485941931,-0.084817262,0,0,0,,0,89,89,119,1,PAFER,LB,old,z,./images/PAFERLB.png,,,,,,,,,,,,,,,,,,,,,
,,,,,,,,,,,,,,,,,198988,18,2022-01-31_22h01.37.162,lexical_decision_task_DD_L3,2021.2.3,Win32,60.07449237,,,,,,,,,,,0.7007,1,,,,,,,,,,,,,,,z,1,0.7007,,,,,,,,0.485941931,-0.084817262,0,0,0,,0,90,90,149,1,VEASE,LB,old,z,./images/VEASELB.png,,,,,,,,,,,,,,,,,,,,,
,,,,,,,,,,,,,,,,,198988,18,2022-01-31_22h01.37.162,lexical_decision_task_DD_L3,2021.2.3,Win32,60.07449237,,,,,,,,,,,0.5671,1,,,,,,,,,,,,,,,m,1,0.5671,,,,,,,,0.485941931,-0.084817262,0,0,0,,0,91,91,30,1,STORM,LB,old,m,./images/STORMLB.png,,,,,,,,,,,,,,,,,,,,,
,,,,,,,,,,,,,,,,,198988,18,2022-01-31_22h01.37.162,lexical_decision_task_DD_L3,2021.2.3,Win32,60.07449237,,,,,,,,,,,1.7409,1,,,,,,,,,,,,,,,z,1,1.7409,,,,,,,,0.485941931,-0.084817262,0,0,0,,0,92,92,151,1,TINKY,HB,old,z,./images/TINKYHB.png,,,,,,,,,,,,,,,,,,,,,
,,,,,,,,,,,,,,,,,198988,18,2022-01-31_22h01.37.162,lexical_decision_task_DD_L3,2021.2.3,Win32,60.07449237,,,,,,,,,,,0.7064,1,,,,,,,,,,,,,,,m,1,0.7064,,,,,,,,0.485941931,-0.084817262,0,0,0,,0,93,93,18,1,JAGUAR,LB,old,m,./images/JAGUARLB.png,,,,,,,,,,,,,,,,,,,,,
,,,,,,,,,,,,,,,,,198988,18,2022-01-31_22h01.37.162,lexical_decision_task_DD_L3,2021.2.3,Win32,60.07449237,,,,,,,,,,,0.6238,1,,,,,,,,,,,,,,,z,1,0.6238,,,,,,,,0.485941931,-0.084817262,0,0,0,,0,94,94,125,1,MOOKY,LB,old,z,./images/MOOKYLB.png,,,,,,,,,,,,,,,,,,,,,
,,,,,,,,,,,,,,,,,198988,18,2022-01-31_22h01.37.162,lexical_decision_task_DD_L3,2021.2.3,Win32,60.07449237,,,,,,,,,,,1.6764,1,,,,,,,,,,,,,,,z,1,1.6764,,,,,,,,0.485941931,-0.084817262,0,0,0,,0,95,95,157,1,INLER,HB,old,z,./images/INLERHB.png,,,,,,,,,,,,,,,,,,,,,
,,,,,,,,,,,,,,,,,198988,18,2022-01-31_22h01.37.162,lexical_decision_task_DD_L3,2021.2.3,Win32,60.07449237,,,,,,,,,,,0.8567,1,,,,,,,,,,,,,,,m,1,0.8567,,,,,,,,0.485941931,-0.084817262,0,0,0,,0,96,96,40,1,SWING,C,old,m,./images/SWING.png,,,,,,,,,,,,,,,,,,,,,
,,,,,,,,,,,,,,,,,198988,18,2022-01-31_22h01.37.162,lexical_decision_task_DD_L3,2021.2.3,Win32,60.07449237,,,,,,,,,,,0.8613,0,,,,,,,,,,,,,,,z,0,0.8613,,,,,,,,0.485941931,-0.084817262,0,0,0,,0,97,97,72,1,NOOSE,LB,old,m,./images/NOOSELB.png,,,,,,,,,,,,,,,,,,,,,
,,,,,,,,,,,,,,,,,198988,18,2022-01-31_22h01.37.162,lexical_decision_task_DD_L3,2021.2.3,Win32,60.07449237,,,,,,,,,,,0.5727,1,,,,,,,,,,,,,,,m,1,0.5727,,,,,,,,0.485941931,-0.084817262,0,0,0,,0,98,98,22,1,MELON,C,old,m,./images/MELON.png,,,,,,,,,,,,,,,,,,,,,
,,,,,,,,,,,,,,,,,198988,18,2022-01-31_22h01.37.162,lexical_decision_task_DD_L3,2021.2.3,Win32,60.07449237,,,,,,,,,,,2.3242,1,,,,,,,,,,,,,,,z,1,2.3242,,,,,,,,0.485941931,-0.084817262,0,0,0,,0,99,99,166,1,SHORY,HB,old,z,./images/SHORYHB.png,,,,,,,,,,,,,,,,,,,,,
,,,,,,,,,,,,,,,,,198988,18,2022-01-31_22h01.37.162,lexical_decision_task_DD_L3,2021.2.3,Win32,60.07449237,,,,,,,,,,,0.6677,1,,,,,,,,,,,,,,,m,1,0.6677,,,,,,,,0.485941931,-0.084817262,0,0,0,,0,100,100,57,1,MOOSE,LB,old,m,./images/MOOSELB.png,,,,,,,,,,,,,,,,,,,,,
,,,,,,,,,,,,,,,,,198988,18,2022-01-31_22h01.37.162,lexical_decision_task_DD_L3,2021.2.3,Win32,60.07449237,,,,,,,,,,,1.0042,1,,,,,,,,,,,,,,,z,1,1.0042,,,,,,,,0.485941931,-0.084817262,0,0,0,,0,101,101,107,1,FASKS,LB,old,z,./images/FASKSLB.png,,,,,,,,,,,,,,,,,,,,,
,,,,,,,,,,,,,,,,,198988,18,2022-01-31_22h01.37.162,lexical_decision_task_DD_L3,2021.2.3,Win32,60.07449237,,,,,,,,,,,0.5509,1,,,,,,,,,,,,,,,m,1,0.5509,,,,,,,,0.485941931,-0.084817262,0,0,0,,0,102,102,79,1,CRUST,C,old,m,./images/CRUST.png,,,,,,,,,,,,,,,,,,,,,
,,,,,,,,,,,,,,,,,198988,18,2022-01-31_22h01.37.162,lexical_decision_task_DD_L3,2021.2.3,Win32,60.07449237,,,,,,,,,,,0.7009,0,,,,,,,,,,,,,,,m,0,0.7009,,,,,,,,0.485941931,-0.084817262,0,0,0,,0,103,103,165,1,TROWN,C,old,z,./images/TROWN.png,,,,,,,,,,,,,,,,,,,,,
,,,,,,,,,,,,,,,,,198988,18,2022-01-31_22h01.37.162,lexical_decision_task_DD_L3,2021.2.3,Win32,60.07449237,,,,,,,,,,,0.6501,1,,,,,,,,,,,,,,,m,1,0.6501,,,,,,,,0.485941931,-0.084817262,0,0,0,,0,104,104,15,1,GREASE,LB,old,m,./images/GREASELB.png,,,,,,,,,,,,,,,,,,,,,
,,,,,,,,,,,,,,,,,198988,18,2022-01-31_22h01.37.162,lexical_decision_task_DD_L3,2021.2.3,Win32,60.07449237,,,,,,,,,,,0.6006,1,,,,,,,,,,,,,,,z,1,0.6006,,,,,,,,0.485941931,-0.084817262,0,0,0,,0,105,105,138,1,PLICE,C,old,z,./images/PLICE.png,,,,,,,,,,,,,,,,,,,,,
,,,,,,,,,,,,,,,,,198988,18,2022-01-31_22h01.37.162,lexical_decision_task_DD_L3,2021.2.3,Win32,60.07449237,,,,,,,,,,,0.6898,1,,,,,,,,,,,,,,,z,1,0.6898,,,,,,,,0.485941931,-0.084817262,0,0,0,,0,106,106,90,1,NEAST,C,old,z,./images/NEAST.png,,,,,,,,,,,,,,,,,,,,,
,,,,,,,,,,,,,,,,,198988,18,2022-01-31_22h01.37.162,lexical_decision_task_DD_L3,2021.2.3,Win32,60.07449237,,,,,,,,,,,2.0674,1,,,,,,,,,,,,,,,z,1,2.0674,,,,,,,,0.485941931,-0.084817262,0,0,0,,0,107,107,97,1,CHIDS,HB,old,z,./images/CHIDSHB.png,,,,,,,,,,,,,,,,,,,,,
,,,,,,,,,,,,,,,,,198988,18,2022-01-31_22h01.37.162,lexical_decision_task_DD_L3,2021.2.3,Win32,60.07449237,,,,,,,,,,,0.5841,1,,,,,,,,,,,,,,,m,1,0.5841,,,,,,,,0.485941931,-0.084817262,0,0,0,,0,108,108,67,1,SAILOR,C,old,m,./images/SAILOR.png,,,,,,,,,,,,,,,,,,,,,
,,,,,,,,,,,,,,,,,198988,18,2022-01-31_22h01.37.162,lexical_decision_task_DD_L3,2021.2.3,Win32,60.07449237,,,,,,,,,,,0.7174,1,,,,,,,,,,,,,,,z,1,0.7174,,,,,,,,0.485941931,-0.084817262,0,0,0,,0,109,109,128,1,GRIFT,LB,old,z,./images/GRIFTLB.png,,,,,,,,,,,,,,,,,,,,,
,,,,,,,,,,,,,,,,,198988,18,2022-01-31_22h01.37.162,lexical_decision_task_DD_L3,2021.2.3,Win32,60.07449237,,,,,,,,,,,0.5725,1,,,,,,,,,,,,,,,m,1,0.5725,,,,,,,,0.485941931,-0.084817262,0,0,0,,0,110,110,3,1,FINGER,LB,old,m,./images/FINGERLB.png,,,,,,,,,,,,,,,,,,,,,
,,,,,,,,,,,,,,,,,198988,18,2022-01-31_22h01.37.162,lexical_decision_task_DD_L3,2021.2.3,Win32,60.07449237,,,,,,,,,,,0.7005,1,,,,,,,,,,,,,,,z,1,0.7005,,,,,,,,0.485941931,-0.084817262,0,0,0,,0,111,111,162,1,LEICH,C,old,z,./images/LEICH.png,,,,,,,,,,,,,,,,,,,,,
,,,,,,,,,,,,,,,,,198988,18,2022-01-31_22h01.37.162,lexical_decision_task_DD_L3,2021.2.3,Win32,60.07449237,,,,,,,,,,,0.9211,1,,,,,,,,,,,,,,,z,1,0.9211,,,,,,,,0.485941931,-0.084817262,0,0,0,,0,112,112,136,1,WERVE,HB,old,z,./images/WERVEHB.png,,,,,,,,,,,,,,,,,,,,,
,,,,,,,,,,,,,,,,,198988,18,2022-01-31_22h01.37.162,lexical_decision_task_DD_L3,2021.2.3,Win32,60.07449237,,,,,,,,,,,0.7678,1,,,,,,,,,,,,,,,z,1,0.7678,,,,,,,,0.485941931,-0.084817262,0,0,0,,0,113,113,134,1,TROSS,LB,old,z,./images/TROSSLB.png,,,,,,,,,,,,,,,,,,,,,
,,,,,,,,,,,,,,,,,198988,18,2022-01-31_22h01.37.162,lexical_decision_task_DD_L3,2021.2.3,Win32,60.07449237,,,,,,,,,,,1.8366,1,,,,,,,,,,,,,,,z,1,1.8366,,,,,,,,0.485941931,-0.084817262,0,0,0,,0,114,114,127,1,NINDY,HB,old,z,./images/NINDYHB.png,,,,,,,,,,,,,,,,,,,,,
,,,,,,,,,,,,,,,,,198988,18,2022-01-31_22h01.37.162,lexical_decision_task_DD_L3,2021.2.3,Win32,60.07449237,,,,,,,,,,,0.757,1,,,,,,,,,,,,,,,z,1,0.757,,,,,,,,0.485941931,-0.084817262,0,0,0,,0,115,115,135,1,JOODY,C,old,z,./images/JOODY.png,,,,,,,,,,,,,,,,,,,,,
,,,,,,,,,,,,,,,,,198988,18,2022-01-31_22h01.37.162,lexical_decision_task_DD_L3,2021.2.3,Win32,60.07449237,,,,,,,,,,,0.5882,1,,,,,,,,,,,,,,,m,1,0.5882,,,,,,,,0.485941931,-0.084817262,0,0,0,,0,116,116,76,1,INFANT,C,old,m,./images/INFANT.png,,,,,,,,,,,,,,,,,,,,,
,,,,,,,,,,,,,,,,,198988,18,2022-01-31_22h01.37.162,lexical_decision_task_DD_L3,2021.2.3,Win32,60.07449237,,,,,,,,,,,0.5842,1,,,,,,,,,,,,,,,m,1,0.5842,,,,,,,,0.485941931,-0.084817262,0,0,0,,0,117,117,1,1,PLANK,C,old,m,./images/PLANK.png,,,,,,,,,,,,,,,,,,,,,
,,,,,,,,,,,,,,,,,198988,18,2022-01-31_22h01.37.162,lexical_decision_task_DD_L3,2021.2.3,Win32,60.07449237,,,,,,,,,,,0.917,1,,,,,,,,,,,,,,,z,1,0.917,,,,,,,,0.485941931,-0.084817262,0,0,0,,0,118,118,133,1,POWDY,HB,old,z,./images/POWDYHB.png,,,,,,,,,,,,,,,,,,,,,
,,,,,,,,,,,,,,,,,198988,18,2022-01-31_22h01.37.162,lexical_decision_task_DD_L3,2021.2.3,Win32,60.07449237,,,,,,,,,,,0.5842,1,,,,,,,,,,,,,,,m,1,0.5842,,,,,,,,0.485941931,-0.084817262,0,0,0,,0,119,119,52,1,BANNER,C,old,m,./images/BANNER.png,,,,,,,,,,,,,,,,,,,,,
,,,,,,,,,,,,,,,,,198988,18,2022-01-31_22h01.37.162,lexical_decision_task_DD_L3,2021.2.3,Win32,60.07449237,,,,,,,,,,,0.5839,1,,,,,,,,,,,,,,,m,1,0.5839,,,,,,,,0.485941931,-0.084817262,0,0,0,,0,120,120,24,1,SCREW,LB,old,m,./images/SCREWLB.png,,,,,,,,,,,,,,,,,,,,,
,,,,,,,,,,,,,,,,,198988,18,2022-01-31_22h01.37.162,lexical_decision_task_DD_L3,2021.2.3,Win32,60.07449237,,,,,,,,,,,0.584,1,,,,,,,,,,,,,,,m,1,0.584,,,,,,,,0.485941931,-0.084817262,0,0,0,,0,121,121,82,1,SUNSET,C,old,m,./images/SUNSET.png,,,,,,,,,,,,,,,,,,,,,
,,,,,,,,,,,,,,,,,198988,18,2022-01-31_22h01.37.162,lexical_decision_task_DD_L3,2021.2.3,Win32,60.07449237,,,,,,,,,,,0.7014,1,,,,,,,,,,,,,,,z,1,0.7014,,,,,,,,0.485941931,-0.084817262,0,0,0,,0,122,122,141,1,PLEET,C,old,z,./images/PLEET.png,,,,,,,,,,,,,,,,,,,,,
,,,,,,,,,,,,,,,,,198988,18,2022-01-31_22h01.37.162,lexical_decision_task_DD_L3,2021.2.3,Win32,60.07449237,,,,,,,,,,,0.6841,1,,,,,,,,,,,,,,,m,1,0.6841,,,,,,,,0.485941931,-0.084817262,0,0,0,,0,123,123,6,1,SQUARE,LB,old,m,./images/SQUARELB.png,,,,,,,,,,,,,,,,,,,,,
,,,,,,,,,,,,,,,,,198988,18,2022-01-31_22h01.37.162,lexical_decision_task_DD_L3,2021.2.3,Win32,60.07449237,,,,,,,,,,,0.7007,1,,,,,,,,,,,,,,,m,1,0.7007,,,,,,,,0.485941931,-0.084817262,0,0,0,,0,124,124,60,1,TWINS,LB,old,m,./images/TWINSLB.png,,,,,,,,,,,,,,,,,,,,,
,,,,,,,,,,,,,,,,,198988,18,2022-01-31_22h01.37.162,lexical_decision_task_DD_L3,2021.2.3,Win32,60.07449237,,,,,,,,,,,1.5246,1,,,,,,,,,,,,,,,m,1,1.5246,,,,,,,,0.485941931,-0.084817262,0,0,0,space,0,125,125,56,1,PACKET,HB,old,m,./images/PACKETHB.png,5.2041,,,,,,,,,,,,,,,,,,,,
,,,,,,,,,,,,,,,,,198988,18,2022-01-31_22h01.37.162,lexical_decision_task_DD_L3,2021.2.3,Win32,60.07449237,,,,,,,,,,,0.617,1,,,,,,,,,,,,,,,m,1,0.617,,,,,,,,0.485941931,-0.084817262,0,0,0,,0,126,126,42,1,FOLDER,LB,old,m,./images/FOLDERLB.png,,,,,,,,,,,,,,,,,,,,,
,,,,,,,,,,,,,,,,,198988,18,2022-01-31_22h01.37.162,lexical_decision_task_DD_L3,2021.2.3,Win32,60.07449237,,,,,,,,,,,0.6542,1,,,,,,,,,,,,,,,m,1,0.6542,,,,,,,,0.485941931,-0.084817262,0,0,0,,0,127,127,59,1,BURIAL,HB,old,m,./images/BURIALHB.png,,,,,,,,,,,,,,,,,,,,,
,,,,,,,,,,,,,,,,,198988,18,2022-01-31_22h01.37.162,lexical_decision_task_DD_L3,2021.2.3,Win32,60.07449237,,,,,,,,,,,0.5338,1,,,,,,,,,,,,,,,m,1,0.5338,,,,,,,,0.485941931,-0.084817262,0,0,0,,0,128,128,27,1,ATTIC,LB,old,m,./images/ATTICLB.png,,,,,,,,,,,,,,,,,,,,,
,,,,,,,,,,,,,,,,,198988,18,2022-01-31_22h01.37.162,lexical_decision_task_DD_L3,2021.2.3,Win32,60.07449237,,,,,,,,,,,0.6622,0,,,,,,,,,,,,,,,m,0,0.6622,,,,,,,,0.485941931,-0.084817262,0,0,0,,0,129,129,106,1,CLUMS,HB,old,z,./images/CLUMSHB.png,,,,,,,,,,,,,,,,,,,,,
,,,,,,,,,,,,,,,,,198988,18,2022-01-31_22h01.37.162,lexical_decision_task_DD_L3,2021.2.3,Win32,60.07449237,,,,,,,,,,,0.9709,1,,,,,,,,,,,,,,,z,1,0.9709,,,,,,,,0.485941931,-0.084817262,0,0,0,,0,130,130,159,1,CUDDY,C,old,z,./images/CUDDY.png,,,,,,,,,,,,,,,,,,,,,
,,,,,,,,,,,,,,,,,198988,18,2022-01-31_22h01.37.162,lexical_decision_task_DD_L3,2021.2.3,Win32,60.07449237,,,,,,,,,,,1.3734,1,,,,,,,,,,,,,,,z,1,1.3734,,,,,,,,0.485941931,-0.084817262,0,0,0,,0,131,131,121,1,CEERS,HB,old,z,./images/CEERSHB.png,,,,,,,,,,,,,,,,,,,,,
,,,,,,,,,,,,,,,,,198988,18,2022-01-31_22h01.37.162,lexical_decision_task_DD_L3,2021.2.3,Win32,60.07449237,,,,,,,,,,,0.7504,1,,,,,,,,,,,,,,,z,1,0.7504,,,,,,,,0.485941931,-0.084817262,0,0,0,,0,132,132,99,1,BACKY,C,old,z,./images/BACKY.png,,,,,,,,,,,,,,,,,,,,,
,,,,,,,,,,,,,,,,,198988,18,2022-01-31_22h01.37.162,lexical_decision_task_DD_L3,2021.2.3,Win32,60.07449237,,,,,,,,,,,0.795,1,,,,,,,,,,,,,,,m,1,0.795,,,,,,,,0.485941931,-0.084817262,0,0,0,,0,133,133,38,1,LADDER,HB,old,m,./images/LADDERHB.png,,,,,,,,,,,,,,,,,,,,,
,,,,,,,,,,,,,,,,,198988,18,2022-01-31_22h01.37.162,lexical_decision_task_DD_L3,2021.2.3,Win32,60.07449237,,,,,,,,,,,0.574,1,,,,,,,,,,,,,,,m,1,0.574,,,,,,,,0.485941931,-0.084817262,0,0,0,,0,134,134,61,1,CANDLE,C,old,m,./images/CANDLE.png,,,,,,,,,,,,,,,,,,,,,
,,,,,,,,,,,,,,,,,198988,18,2022-01-31_22h01.37.162,lexical_decision_task_DD_L3,2021.2.3,Win32,60.07449237,,,,,,,,,,,0.6888,1,,,,,,,,,,,,,,,m,1,0.6888,,,,,,,,0.485941931,-0.084817262,0,0,0,,0,135,135,32,1,BARREL,HB,old,m,./images/BARRELHB.png,,,,,,,,,,,,,,,,,,,,,
,,,,,,,,,,,,,,,,,198988,18,2022-01-31_22h01.37.162,lexical_decision_task_DD_L3,2021.2.3,Win32,60.07449237,,,,,,,,,,,0.8449,0,,,,,,,,,,,,,,,z,0,0.8449,,,,,,,,0.485941931,-0.084817262,0,0,0,,0,136,136,16,1,PENCE,C,old,m,./images/PENCE.png,,,,,,,,,,,,,,,,,,,,,
,,,,,,,,,,,,,,,,,198988,18,2022-01-31_22h01.37.162,lexical_decision_task_DD_L3,2021.2.3,Win32,60.07449237,,,,,,,,,,,0.6202,1,,,,,,,,,,,,,,,z,1,0.6202,,,,,,,,0.485941931,-0.084817262,0,0,0,,0,137,137,96,1,KEAMS,C,old,z,./images/KEAMS.png,,,,,,,,,,,,,,,,,,,,,
,,,,,,,,,,,,,,,,,198988,18,2022-01-31_22h01.37.162,lexical_decision_task_DD_L3,2021.2.3,Win32,60.07449237,,,,,,,,,,,0.5779,1,,,,,,,,,,,,,,,m,1,0.5779,,,,,,,,0.485941931,-0.084817262,0,0,0,,0,138,138,46,1,PEARL,C,old,m,./images/PEARL.png,,,,,,,,,,,,,,,,,,,,,
,,,,,,,,,,,,,,,,,198988,18,2022-01-31_22h01.37.162,lexical_decision_task_DD_L3,2021.2.3,Win32,60.07449237,,,,,,,,,,,0.8175,1,,,,,,,,,,,,,,,z,1,0.8175,,,,,,,,0.485941931,-0.084817262,0,0,0,,0,139,139,123,1,SEDGE,C,old,z,./images/SEDGE.png,,,,,,,,,,,,,,,,,,,,,
,,,,,,,,,,,,,,,,,198988,18,2022-01-31_22h01.37.162,lexical_decision_task_DD_L3,2021.2.3,Win32,60.07449237,,,,,,,,,,,0.6548,1,,,,,,,,,,,,,,,z,1,0.6548,,,,,,,,0.485941931,-0.084817262,0,0,0,,0,140,140,147,1,ZOLES,C,old,z,./images/ZOLES.png,,,,,,,,,,,,,,,,,,,,,
,,,,,,,,,,,,,,,,,198988,18,2022-01-31_22h01.37.162,lexical_decision_task_DD_L3,2021.2.3,Win32,60.07449237,,,,,,,,,,,0.6008,1,,,,,,,,,,,,,,,z,1,0.6008,,,,,,,,0.485941931,-0.084817262,0,0,0,,0,141,141,102,1,DULLE,C,old,z,./images/DULLE.png,,,,,,,,,,,,,,,,,,,,,
,,,,,,,,,,,,,,,,,198988,18,2022-01-31_22h01.37.162,lexical_decision_task_DD_L3,2021.2.3,Win32,60.07449237,,,,,,,,,,,0.6678,1,,,,,,,,,,,,,,,z,1,0.6678,,,,,,,,0.485941931,-0.084817262,0,0,0,,0,142,142,110,1,CRUNK,LB,old,z,./images/CRUNKLB.png,,,,,,,,,,,,,,,,,,,,,
,,,,,,,,,,,,,,,,,198988,18,2022-01-31_22h01.37.162,lexical_decision_task_DD_L3,2021.2.3,Win32,60.07449237,,,,,,,,,,,0.7249,1,,,,,,,,,,,,,,,m,1,0.7249,,,,,,,,0.485941931,-0.084817262,0,0,0,,0,143,143,11,1,BONNET,HB,old,m,./images/BONNETHB.png,,,,,,,,,,,,,,,,,,,,,
,,,,,,,,,,,,,,,,,198988,18,2022-01-31_22h01.37.162,lexical_decision_task_DD_L3,2021.2.3,Win32,60.07449237,,,,,,,,,,,0.5508,1,,,,,,,,,,,,,,,m,1,0.5508,,,,,,,,0.485941931,-0.084817262,0,0,0,,0,144,144,19,1,DOUGH,C,old,m,./images/DOUGH.png,,,,,,,,,,,,,,,,,,,,,
,,,,,,,,,,,,,,,,,198988,18,2022-01-31_22h01.37.162,lexical_decision_task_DD_L3,2021.2.3,Win32,60.07449237,,,,,,,,,,,0.6101,1,,,,,,,,,,,,,,,m,1,0.6101,,,,,,,,0.485941931,-0.084817262,0,0,0,,0,145,145,5,1,PASTA,HB,old,m,./images/PASTAHB.png,,,,,,,,,,,,,,,,,,,,,
,,,,,,,,,,,,,,,,,198988,18,2022-01-31_22h01.37.162,lexical_decision_task_DD_L3,2021.2.3,Win32,60.07449237,,,,,,,,,,,1.4573,1,,,,,,,,,,,,,,,z,1,1.4573,,,,,,,,0.485941931,-0.084817262,0,0,0,,0,146,146,163,1,GAMBA,HB,old,z,./images/GAMBAHB.png,,,,,,,,,,,,,,,,,,,,,
,,,,,,,,,,,,,,,,,198988,18,2022-01-31_22h01.37.162,lexical_decision_task_DD_L3,2021.2.3,Win32,60.07449237,,,,,,,,,,,1.0753,1,,,,,,,,,,,,,,,z,1,1.0753,,,,,,,,0.485941931,-0.084817262,0,0,0,,0,147,147,113,1,LINEW,LB,old,z,./images/LINEWLB.png,,,,,,,,,,,,,,,,,,,,,
,,,,,,,,,,,,,,,,,198988,18,2022-01-31_22h01.37.162,lexical_decision_task_DD_L3,2021.2.3,Win32,60.07449237,,,,,,,,,,,0.7038,1,,,,,,,,,,,,,,,z,1,0.7038,,,,,,,,0.485941931,-0.084817262,0,0,0,,0,148,148,92,1,PAIMS,LB,old,z,./images/PAIMSLB.png,,,,,,,,,,,,,,,,,,,,,
,,,,,,,,,,,,,,,,,198988,18,2022-01-31_22h01.37.162,lexical_decision_task_DD_L3,2021.2.3,Win32,60.07449237,,,,,,,,,,,0.6069,1,,,,,,,,,,,,,,,m,1,0.6069,,,,,,,,0.485941931,-0.084817262,0,0,0,,0,149,149,12,1,SHORE,LB,old,m,./images/SHORELB.png,,,,,,,,,,,,,,,,,,,,,
,,,,,,,,,,,,,,,,,198988,18,2022-01-31_22h01.37.162,lexical_decision_task_DD_L3,2021.2.3,Win32,60.07449237,,,,,,,,,,,0.911,1,,,,,,,,,,,,,,,z,1,0.911,,,,,,,,0.485941931,-0.084817262,0,0,0,,0,150,150,155,1,CANGY,LB,old,z,./images/CANGYLB.png,,,,,,,,,,,,,,,,,,,,,
,,,,,,,,,,,,,,,,,198988,18,2022-01-31_22h01.37.162,lexical_decision_task_DD_L3,2021.2.3,Win32,60.07449237,,,,,,,,,,,0.985,1,,,,,,,,,,,,,,,z,1,0.985,,,,,,,,0.485941931,-0.084817262,0,0,0,,0,151,151,160,1,VEETS,HB,old,z,./images/VEETSHB.png,,,,,,,,,,,,,,,,,,,,,
,,,,,,,,,,,,,,,,,198988,18,2022-01-31_22h01.37.162,lexical_decision_task_DD_L3,2021.2.3,Win32,60.07449237,,,,,,,,,,,0.8008,1,,,,,,,,,,,,,,,m,1,0.8008,,,,,,,,0.485941931,-0.084817262,0,0,0,,0,152,152,65,1,FARMER,HB,old,m,./images/FARMERHB.png,,,,,,,,,,,,,,,,,,,,,
,,,,,,,,,,,,,,,,,198988,18,2022-01-31_22h01.37.162,lexical_decision_task_DD_L3,2021.2.3,Win32,60.07449237,,,,,,,,,,,0.9792,1,,,,,,,,,,,,,,,z,1,0.9792,,,,,,,,0.485941931,-0.084817262,0,0,0,,0,153,153,139,1,BLEAR,HB,old,z,./images/BLEARHB.png,,,,,,,,,,,,,,,,,,,,,
,,,,,,,,,,,,,,,,,198988,18,2022-01-31_22h01.37.162,lexical_decision_task_DD_L3,2021.2.3,Win32,60.07449237,,,,,,,,,,,1.2174,1,,,,,,,,,,,,,,,z,1,1.2174,,,,,,,,0.485941931,-0.084817262,0,0,0,,0,154,154,158,1,EGECT,LB,old,z,./images/EGECTLB.png,,,,,,,,,,,,,,,,,,,,,
,,,,,,,,,,,,,,,,,198988,18,2022-01-31_22h01.37.162,lexical_decision_task_DD_L3,2021.2.3,Win32,60.07449237,,,,,,,,,,,0.5421,1,,,,,,,,,,,,,,,m,1,0.5421,,,,,,,,0.485941931,-0.084817262,0,0,0,,0,155,155,37,1,BIRTH,C,old,m,./images/BIRTH.png,,,,,,,,,,,,,,,,,,,,,
,,,,,,,,,,,,,,,,,198988,18,2022-01-31_22h01.37.162,lexical_decision_task_DD_L3,2021.2.3,Win32,60.07449237,,,,,,,,,,,0.6506,1,,,,,,,,,,,,,,,m,1,0.6506,,,,,,,,0.485941931,-0.084817262,0,0,0,,0,156,156,26,1,SMOKER,HB,old,m,./images/SMOKERHB.png,,,,,,,,,,,,,,,,,,,,,
,,,,,,,,,,,,,,,,,198988,18,2022-01-31_22h01.37.162,lexical_decision_task_DD_L3,2021.2.3,Win32,60.07449237,,,,,,,,,,,1.0175,1,,,,,,,,,,,,,,,m,1,1.0175,,,,,,,,0.485941931,-0.084817262,0,0,0,,0,157,157,17,1,SKIING,HB,old,m,./images/SKIINGHB.png,,,,,,,,,,,,,,,,,,,,,
,,,,,,,,,,,,,,,,,198988,18,2022-01-31_22h01.37.162,lexical_decision_task_DD_L3,2021.2.3,Win32,60.07449237,,,,,,,,,,,0.6673,1,,,,,,,,,,,,,,,m,1,0.6673,,,,,,,,0.485941931,-0.084817262,0,0,0,,0,158,158,69,1,COOKER,LB,old,m,./images/COOKERLB.png,,,,,,,,,,,,,,,,,,,,,
,,,,,,,,,,,,,,,,,198988,18,2022-01-31_22h01.37.162,lexical_decision_task_DD_L3,2021.2.3,Win32,60.07449237,,,,,,,,,,,0.7005,1,,,,,,,,,,,,,,,z,1,0.7005,,,,,,,,0.485941931,-0.084817262,0,0,0,,0,159,159,129,1,PRANS,C,old,z,./images/PRANS.png,,,,,,,,,,,,,,,,,,,,,
,,,,,,,,,,,,,,,,,198988,18,2022-01-31_22h01.37.162,lexical_decision_task_DD_L3,2021.2.3,Win32,60.07449237,,,,,,,,,,,0.8077,1,,,,,,,,,,,,,,,m,1,0.8077,,,,,,,,0.485941931,-0.084817262,0,0,0,,0,160,160,55,1,MUFFIN,C,old,m,./images/MUFFIN.png,,,,,,,,,,,,,,,,,,,,,
,,,,,,,,,,,,,,,,,198988,18,2022-01-31_22h01.37.162,lexical_decision_task_DD_L3,2021.2.3,Win32,60.07449237,,,,,,,,,,,0.5666,1,,,,,,,,,,,,,,,m,1,0.5666,,,,,,,,0.485941931,-0.084817262,0,0,0,,0,161,161,66,1,SWEAT,LB,old,m,./images/SWEATLB.png,,,,,,,,,,,,,,,,,,,,,
,,,,,,,,,,,,,,,,,198988,18,2022-01-31_22h01.37.162,lexical_decision_task_DD_L3,2021.2.3,Win32,60.07449237,,,,,,,,,,,0.701,1,,,,,,,,,,,,,,,z,1,0.701,,,,,,,,0.485941931,-0.084817262,0,0,0,,0,162,162,101,1,GLEET,LB,old,z,./images/GLEETLB.png,,,,,,,,,,,,,,,,,,,,,
,,,,,,,,,,,,,,,,,198988,18,2022-01-31_22h01.37.162,lexical_decision_task_DD_L3,2021.2.3,Win32,60.07449237,,,,,,,,,,,0.7768,1,,,,,,,,,,,,,,,m,1,0.7768,,,,,,,,0.485941931,-0.084817262,0,0,0,,0,163,163,9,1,RHINO,LB,old,m,./images/RHINOLB.png,,,,,,,,,,,,,,,,,,,,,
,,,,,,,,,,,,,,,,,198988,18,2022-01-31_22h01.37.162,lexical_decision_task_DD_L3,2021.2.3,Win32,60.07449237,,,,,,,,,,,1.4341,1,,,,,,,,,,,,,,,z,1,1.4341,,,,,,,,0.485941931,-0.084817262,0,0,0,,0,164,164,98,1,BAMPS,LB,old,z,./images/BAMPSLB.png,,,,,,,,,,,,,,,,,,,,,
,,,,,,,,,,,,,,,,,198988,18,2022-01-31_22h01.37.162,lexical_decision_task_DD_L3,2021.2.3,Win32,60.07449237,,,,,,,,,,,0.7666,1,,,,,,,,,,,,,,,m,1,0.7666,,,,,,,,0.485941931,-0.084817262,0,0,0,,0,165,165,31,1,QUILL,C,old,m,./images/QUILL.png,,,,,,,,,,,,,,,,,,,,,
,,,,,,,,,,,,,,,,,198988,18,2022-01-31_22h01.37.162,lexical_decision_task_DD_L3,2021.2.3,Win32,60.07449237,,,,,,,,,,,0.934,1,,,,,,,,,,,,,,,m,1,0.934,,,,,,,,0.485941931,-0.084817262,0,0,0,,0,166,166,0,1,TOMATO,LB,old,m,./images/TOMATOLB.png,,,,,,,,,,,,,,,,,,,,,
,,,,,,,,,,,,,,,,,198988,18,2022-01-31_22h01.37.162,lexical_decision_task_DD_L3,2021.2.3,Win32,60.07449237,,,,,,,,,,,0.8508,1,,,,,,,,,,,,,,,m,1,0.8508,,,,,,,,0.485941931,-0.084817262,0,0,0,,0,167,167,64,1,JELLY,C,old,m,./images/JELLY.png,,,,,,,,,,,,,,,,,,,,,
space,0.485941931,-0.084817262,0,0,0,,,,,,,1,test,"In the next phase you will be presented with the words from the the first phase. Your job is to decide whether you remember seeing the word or not. If you remember seeing the word press ""old"" or type ""m"". If you do not remember seeing the word press ""new"" or type ""z"". Please press the space bar or click on continue to begin. ",,,198988,18,2022-01-31_22h01.37.162,lexical_decision_task_DD_L3,2021.2.3,Win32,60.07449237,,,,,,,,,,,,,,,,,,,,,13.57,,,,,,,,,,,,,,,,,,,,,,,,,,,,,,,,,0,0,0,0,1,,,,,,,,,,,,,,,
space,0.485941931,-0.084817262,0,0,0,,,,,,,1,test,"In the next phase you will be presented with the words from the the first phase. Your job is to decide whether you remember seeing the word or not. If you remember seeing the word press ""old"" or type ""m"". If you do not remember seeing the word press ""new"" or type ""z"". Please press the space bar or click on continue to begin. ",,,198988,18,2022-01-31_22h01.37.162,lexical_decision_task_DD_L3,2021.2.3,Win32,60.07449237,,,,,,,,,,,,,,,,,,,,,1.3021,,,,,,,,,,,,,,,,,,,,,,,,,,,,,,,,,1,0,1,0,1,,,,,,,,,,,,,,,
space,0.485941931,-0.084817262,0,0,0,,,,,,,1,test,"In the next phase you will be presented with the words from the the first phase. Your job is to decide whether you remember seeing the word or not. If you remember seeing the word press ""old"" or type ""m"". If you do not remember seeing the word press ""new"" or type ""z"". Please press the space bar or click on continue to begin. ",,,198988,18,2022-01-31_22h01.37.162,lexical_decision_task_DD_L3,2021.2.3,Win32,60.07449237,,,,,,,,,,,,,,,,,,,,,0.5505,,,,,,,,,,,,,,,,,,,,,,,,,,,,,,,,,2,0,2,0,1,,,,,,,,,,,,,,,
,-0.110121816,-0.420337422,1,0,0,instr_done_button,,,,,,1,test,"In the next phase you will be presented with the words from the the first phase. Your job is to decide whether you remember seeing the word or not. If you remember seeing the word press ""old"" or type ""m"". If you do not remember seeing the word press ""new"" or type ""z"". Please press the space bar or click on continue to begin. ",,,198988,18,2022-01-31_22h01.37.162,lexical_decision_task_DD_L3,2021.2.3,Win32,60.07449237,,,,,,,,,,,,,,,,,,,,,,,,,,,,,,,,,,,,,,,,,,,,,,,,,,,,,,3,0,3,0,1,,,,,,,,,,,,,,,
,0.029834451,-0.406591717,1,0,0,instr_done_button,,,,,,1,test,"In the next phase you will be presented with the words from the the first phase. Your job is to decide whether you remember seeing the word or not. If you remember seeing the word press ""old"" or type ""m"". If you do not remember seeing the word press ""new"" or type ""z"". Please press the space bar or click on continue to begin. ",,,198988,18,2022-01-31_22h01.37.162,lexical_decision_task_DD_L3,2021.2.3,Win32,60.07449237,,,,,,,,,,,,,,,,,,,,,,,,,,,,,,,,,,,,,,,,,,,,,,,,,,,,,,4,0,4,0,1,,,,,,,,,,,,,,,
,,,,,,,,,,,,,,,,,198988,18,2022-01-31_22h01.37.162,lexical_decision_task_DD_L3,2021.2.3,Win32,60.07449237,,,,,,,,,,,1.2884,1,,,,,,,,,,,,,,,,,,,,,,,,,0.692127505,-0.009215923,0,0,0,,,,,,,TWINS,LB,m,m,./images/TWINSLB.png,,,,,,,m,1,1.2884,,,,,,,,0,0,0,60,1
,,,,,,,,,,,,,,,,,198988,18,2022-01-31_22h01.37.162,lexical_decision_task_DD_L3,2021.2.3,Win32,60.07449237,,,,,,,,,,,0.6322,1,,,,,,,,,,,,,,,,,,,,,,,,,0.692127505,-0.009215923,0,0,0,,,,,,,WALRUS,HB,m,m,./images/WALRUSHB.png,,,,,,,m,1,0.6322,,,,,,,,0,1,1,23,1
,,,,,,,,,,,,,,,,,198988,18,2022-01-31_22h01.37.162,lexical_decision_task_DD_L3,2021.2.3,Win32,60.07449237,,,,,,,,,,,1.6459,1,,,,,,,,,,,,,,,,,,,,,,,,,0.692127505,-0.009215923,0,0,0,,,,,,,STAIN,LB,z,m,./images/STAINLB.png,,,,,,,z,1,1.6459,,,,,,,,0,2,2,90,1
,,,,,,,,,,,,,,,,,198988,18,2022-01-31_22h01.37.162,lexical_decision_task_DD_L3,2021.2.3,Win32,60.07449237,,,,,,,,,,,0.7814,1,,,,,,,,,,,,,,,,,,,,,,,,,0.692127505,-0.009215923,0,0,0,,,,,,,MALLET,HB,m,m,./images/MALLETHB.png,,,,,,,m,1,0.7814,,,,,,,,0,3,3,50,1
,,,,,,,,,,,,,,,,,198988,18,2022-01-31_22h01.37.162,lexical_decision_task_DD_L3,2021.2.3,Win32,60.07449237,,,,,,,,,,,0.7542,1,,,,,,,,,,,,,,,,,,,,,,,,,0.692127505,-0.009215923,0,0,0,,,,,,,SAUNA,LB,z,m,./images/SAUNALB.png,,,,,,,z,1,0.7542,,,,,,,,0,4,4,117,1
,,,,,,,,,,,,,,,,,198988,18,2022-01-31_22h01.37.162,lexical_decision_task_DD_L3,2021.2.3,Win32,60.07449237,,,,,,,,,,,0.7322,1,,,,,,,,,,,,,,,,,,,,,,,,,0.692127505,-0.009215923,0,0,0,,,,,,,PACKET,HB,m,m,./images/PACKETHB.png,,,,,,,m,1,0.7322,,,,,,,,0,5,5,56,1
,,,,,,,,,,,,,,,,,198988,18,2022-01-31_22h01.37.162,lexical_decision_task_DD_L3,2021.2.3,Win32,60.07449237,,,,,,,,,,,1.0931,1,,,,,,,,,,,,,,,,,,,,,,,,,0.692127505,-0.009215923,0,0,0,,,,,,,PENCE,C,m,m,./images/PENCE.png,,,,,,,m,1,1.0931,,,,,,,,0,6,6,16,1
,,,,,,,,,,,,,,,,,198988,18,2022-01-31_22h01.37.162,lexical_decision_task_DD_L3,2021.2.3,Win32,60.07449237,,,,,,,,,,,0.7493,1,,,,,,,,,,,,,,,,,,,,,,,,,0.692127505,-0.009215923,0,0,0,,,,,,,TOMATO,LB,m,m,./images/TOMATOLB.png,,,,,,,m,1,0.7493,,,,,,,,0,7,7,0,1
,,,,,,,,,,,,,,,,,198988,18,2022-01-31_22h01.37.162,lexical_decision_task_DD_L3,2021.2.3,Win32,60.07449237,,,,,,,,,,,0.8821,1,,,,,,,,,,,,,,,,,,,,,,,,,0.692127505,-0.009215923,0,0,0,,,,,,,BOXER,C,z,m,./images/BOXER.png,,,,,,,z,1,0.8821,,,,,,,,0,8,8,88,1
,,,,,,,,,,,,,,,,,198988,18,2022-01-31_22h01.37.162,lexical_decision_task_DD_L3,2021.2.3,Win32,60.07449237,,,,,,,,,,,0.7005,1,,,,,,,,,,,,,,,,,,,,,,,,,0.692127505,-0.009215923,0,0,0,,,,,,,CRUMB,HB,m,m,./images/CRUMBHB.png,,,,,,,m,1,0.7005,,,,,,,,0,9,9,29,1
,,,,,,,,,,,,,,,,,198988,18,2022-01-31_22h01.37.162,lexical_decision_task_DD_L3,2021.2.3,Win32,60.07449237,,,,,,,,,,,0.6144,1,,,,,,,,,,,,,,,,,,,,,,,,,0.692127505,-0.009215923,0,0,0,,,,,,,BONNET,HB,m,m,./images/BONNETHB.png,,,,,,,m,1,0.6144,,,,,,,,0,10,10,11,1
,,,,,,,,,,,,,,,,,198988,18,2022-01-31_22h01.37.162,lexical_decision_task_DD_L3,2021.2.3,Win32,60.07449237,,,,,,,,,,,0.8566,1,,,,,,,,,,,,,,,,,,,,,,,,,0.692127505,-0.009215923,0,0,0,,,,,,,TRIPOD,LB,m,m,./images/TRIPODLB.png,,,,,,,m,1,0.8566,,,,,,,,0,11,11,54,1
,,,,,,,,,,,,,,,,,198988,18,2022-01-31_22h01.37.162,lexical_decision_task_DD_L3,2021.2.3,Win32,60.07449237,,,,,,,,,,,0.7487,1,,,,,,,,,,,,,,,,,,,,,,,,,0.692127505,-0.009215923,0,0,0,,,,,,,PARCEL,LB,z,m,./images/PARCELLB.png,,,,,,,z,1,0.7487,,,,,,,,0,12,12,102,1
,,,,,,,,,,,,,,,,,198988,18,2022-01-31_22h01.37.162,lexical_decision_task_DD_L3,2021.2.3,Win32,60.07449237,,,,,,,,,,,1.121,1,,,,,,,,,,,,,,,,,,,,,,,,,0.692127505,-0.009215923,0,0,0,,,,,,,STREAM,HB,z,m,./images/STREAMHB.png,,,,,,,z,1,1.121,,,,,,,,0,13,13,125,1
,,,,,,,,,,,,,,,,,198988,18,2022-01-31_22h01.37.162,lexical_decision_task_DD_L3,2021.2.3,Win32,60.07449237,,,,,,,,,,,0.8275,1,,,,,,,,,,,,,,,,,,,,,,,,,0.692127505,-0.009215923,0,0,0,,,,,,,MEDAL,HB,z,m,./images/MEDALHB.png,,,,,,,z,1,0.8275,,,,,,,,0,14,14,95,1
,,,,,,,,,,,,,,,,,198988,18,2022-01-31_22h01.37.162,lexical_decision_task_DD_L3,2021.2.3,Win32,60.07449237,,,,,,,,,,,0.8264,1,,,,,,,,,,,,,,,,,,,,,,,,,0.692127505,-0.009215923,0,0,0,,,,,,,RULER,C,z,m,./images/RULER.png,,,,,,,z,1,0.8264,,,,,,,,0,15,15,163,1
,,,,,,,,,,,,,,,,,198988,18,2022-01-31_22h01.37.162,lexical_decision_task_DD_L3,2021.2.3,Win32,60.07449237,,,,,,,,,,,0.6717,1,,,,,,,,,,,,,,,,,,,,,,,,,0.692127505,-0.009215923,0,0,0,,,,,,,MAGGOT,LB,m,m,./images/MAGGOTLB.png,,,,,,,m,1,0.6717,,,,,,,,0,16,16,33,1
,,,,,,,,,,,,,,,,,198988,18,2022-01-31_22h01.37.162,lexical_decision_task_DD_L3,2021.2.3,Win32,60.07449237,,,,,,,,,,,0.5829,1,,,,,,,,,,,,,,,,,,,,,,,,,0.692127505,-0.009215923,0,0,0,,,,,,,BARREL,HB,m,m,./images/BARRELHB.png,,,,,,,m,1,0.5829,,,,,,,,0,17,17,32,1
,,,,,,,,,,,,,,,,,198988,18,2022-01-31_22h01.37.162,lexical_decision_task_DD_L3,2021.2.3,Win32,60.07449237,,,,,,,,,,,1.1818,1,,,,,,,,,,,,,,,,,,,,,,,,,0.692127505,-0.009215923,0,0,0,,,,,,,SNACK,C,m,m,./images/SNACK.png,,,,,,,m,1,1.1818,,,,,,,,0,18,18,73,1
,,,,,,,,,,,,,,,,,198988,18,2022-01-31_22h01.37.162,lexical_decision_task_DD_L3,2021.2.3,Win32,60.07449237,,,,,,,,,,,2.0218,0,,,,,,,,,,,,,,,,,,,,,,,,,0.692127505,-0.009215923,0,0,0,,,,,,,TORCH,HB,m,m,./images/TORCHHB.png,,,,,,,z,0,2.0218,,,,,,,,0,19,19,68,1
,,,,,,,,,,,,,,,,,198988,18,2022-01-31_22h01.37.162,lexical_decision_task_DD_L3,2021.2.3,Win32,60.07449237,,,,,,,,,,,0.6971,1,,,,,,,,,,,,,,,,,,,,,,,,,0.692127505,-0.009215923,0,0,0,,,,,,,GREASE,LB,m,m,./images/GREASELB.png,,,,,,,m,1,0.6971,,,,,,,,0,20,20,15,1
,,,,,,,,,,,,,,,,,198988,18,2022-01-31_22h01.37.162,lexical_decision_task_DD_L3,2021.2.3,Win32,60.07449237,,,,,,,,,,,0.6036,1,,,,,,,,,,,,,,,,,,,,,,,,,0.692127505,-0.009215923,0,0,0,,,,,,,JAGUAR,LB,m,m,./images/JAGUARLB.png,,,,,,,m,1,0.6036,,,,,,,,0,21,21,18,1
,,,,,,,,,,,,,,,,,198988,18,2022-01-31_22h01.37.162,lexical_decision_task_DD_L3,2021.2.3,Win32,60.07449237,,,,,,,,,,,1.043,1,,,,,,,,,,,,,,,,,,,,,,,,,0.692127505,-0.009215923,0,0,0,,,,,,,DONKEY,C,z,m,./images/DONKEY.png,,,,,,,z,1,1.043,,,,,,,,0,22,22,103,1
,,,,,,,,,,,,,,,,,198988,18,2022-01-31_22h01.37.162,lexical_decision_task_DD_L3,2021.2.3,Win32,60.07449237,,,,,,,,,,,0.9091,1,,,,,,,,,,,,,,,,,,,,,,,,,0.692127505,-0.009215923,0,0,0,,,,,,,BABOON,C,m,m,./images/BABOON.png,,,,,,,m,1,0.9091,,,,,,,,0,23,23,58,1
,,,,,,,,,,,,,,,,,198988,18,2022-01-31_22h01.37.162,lexical_decision_task_DD_L3,2021.2.3,Win32,60.07449237,,,,,,,,,,,1.0807,1,,,,,,,,,,,,,,,,,,,,,,,,,0.692127505,-0.009215923,0,0,0,,,,,,,BANANA,C,z,m,./images/BANANA.png,,,,,,,z,1,1.0807,,,,,,,,0,24,24,154,1
,,,,,,,,,,,,,,,,,198988,18,2022-01-31_22h01.37.162,lexical_decision_task_DD_L3,2021.2.3,Win32,60.07449237,,,,,,,,,,,0.6984,0,,,,,,,,,,,,,,,,,,,,,,,,,0.692127505,-0.009215923,0,0,0,,,,,,,FLASK,LB,z,m,./images/FLASKLB.png,,,,,,,m,0,0.6984,,,,,,,,0,25,25,156,1
,,,,,,,,,,,,,,,,,198988,18,2022-01-31_22h01.37.162,lexical_decision_task_DD_L3,2021.2.3,Win32,60.07449237,,,,,,,,,,,0.6413,1,,,,,,,,,,,,,,,,,,,,,,,,,0.692127505,-0.009215923,0,0,0,,,,,,,LITTER,LB,m,m,./images/LITTERLB.png,,,,,,,m,1,0.6413,,,,,,,,0,26,26,78,1
,,,,,,,,,,,,,,,,,198988,18,2022-01-31_22h01.37.162,lexical_decision_task_DD_L3,2021.2.3,Win32,60.07449237,,,,,,,,,,,0.7545,1,,,,,,,,,,,,,,,,,,,,,,,,,0.692127505,-0.009215923,0,0,0,,,,,,,HOCKEY,HB,z,m,./images/HOCKEYHB.png,,,,,,,z,1,0.7545,,,,,,,,0,27,27,116,1
,,,,,,,,,,,,,,,,,198988,18,2022-01-31_22h01.37.162,lexical_decision_task_DD_L3,2021.2.3,Win32,60.07449237,,,,,,,,,,,3.0048,0,,,,,,,,,,,,,,,,,,,,,,,,,0.692127505,-0.009215923,0,0,0,,,,,,,MOSQUE,C,m,m,./images/MOSQUE.png,,,,,,,z,0,3.0048,,,,,,,,0,28,28,43,1
,,,,,,,,,,,,,,,,,198988,18,2022-01-31_22h01.37.162,lexical_decision_task_DD_L3,2021.2.3,Win32,60.07449237,,,,,,,,,,,1.2567,1,,,,,,,,,,,,,,,,,,,,,,,,,0.692127505,-0.009215923,0,0,0,,,,,,,BEARD,HB,m,m,./images/BEARDHB.png,,,,,,,m,1,1.2567,,,,,,,,0,29,29,2,1
,,,,,,,,,,,,,,,,,198988,18,2022-01-31_22h01.37.162,lexical_decision_task_DD_L3,2021.2.3,Win32,60.07449237,,,,,,,,,,,1.5503,0,,,,,,,,,,,,,,,,,,,,,,,,,0.692127505,-0.009215923,0,0,0,,,,,,,MIRROR,LB,m,m,./images/MIRRORLB.png,,,,,,,z,0,1.5503,,,,,,,,0,30,30,63,1
,,,,,,,,,,,,,,,,,198988,18,2022-01-31_22h01.37.162,lexical_decision_task_DD_L3,2021.2.3,Win32,60.07449237,,,,,,,,,,,0.6835,1,,,,,,,,,,,,,,,,,,,,,,,,,0.692127505,-0.009215923,0,0,0,,,,,,,PICKLE,HB,m,m,./images/PICKLEHB.png,,,,,,,m,1,0.6835,,,,,,,,0,31,31,14,1
,,,,,,,,,,,,,,,,,198988,18,2022-01-31_22h01.37.162,lexical_decision_task_DD_L3,2021.2.3,Win32,60.07449237,,,,,,,,,,,3.8588,0,,,,,,,,,,,,,,,,,,,,,,,,,0.692127505,-0.009215923,0,0,0,,,,,,,DRUMS,C,m,m,./images/DRUMS.png,,,,,,,z,0,3.8588,,,,,,,,0,32,32,49,1
,,,,,,,,,,,,,,,,,198988,18,2022-01-31_22h01.37.162,lexical_decision_task_DD_L3,2021.2.3,Win32,60.07449237,,,,,,,,,,,0.7823,1,,,,,,,,,,,,,,,,,,,,,,,,,0.692127505,-0.009215923,0,0,0,,,,,,,PEBBLE,C,z,m,./images/PEBBLE.png,,,,,,,z,1,0.7823,,,,,,,,0,33,33,166,1
,,,,,,,,,,,,,,,,,198988,18,2022-01-31_22h01.37.162,lexical_decision_task_DD_L3,2021.2.3,Win32,60.07449237,,,,,,,,,,,1.8567,0,,,,,,,,,,,,,,,,,,,,,,,,,0.692127505,-0.009215923,0,0,0,,,,,,,KIDNEY,LB,m,m,./images/KIDNEYLB.png,,,,,,,z,0,1.8567,,,,,,,,0,34,34,21,1
,,,,,,,,,,,,,,,,,198988,18,2022-01-31_22h01.37.162,lexical_decision_task_DD_L3,2021.2.3,Win32,60.07449237,,,,,,,,,,,1.0324,1,,,,,,,,,,,,,,,,,,,,,,,,,0.692127505,-0.009215923,0,0,0,,,,,,,BUBBLE,HB,z,m,./images/BUBBLEHB.png,,,,,,,z,1,1.0324,,,,,,,,0,35,35,155,1
,,,,,,,,,,,,,,,,,198988,18,2022-01-31_22h01.37.162,lexical_decision_task_DD_L3,2021.2.3,Win32,60.07449237,,,,,,,,,,,0.5569,0,,,,,,,,,,,,,,,,,,,,,,,,,0.692127505,-0.009215923,0,0,0,,,,,,,HAMMER,LB,z,m,./images/HAMMERLB.png,,,,,,,m,0,0.5569,,,,,,,,0,36,36,159,1
,,,,,,,,,,,,,,,,,198988,18,2022-01-31_22h01.37.162,lexical_decision_task_DD_L3,2021.2.3,Win32,60.07449237,,,,,,,,,,,1.1732,1,,,,,,,,,,,,,,,,,,,,,,,,,0.692127505,-0.009215923,0,0,0,,,,,,,TIGER,C,z,m,./images/TIGER.png,,,,,,,z,1,1.1732,,,,,,,,0,37,37,121,1
,,,,,,,,,,,,,,,,,198988,18,2022-01-31_22h01.37.162,lexical_decision_task_DD_L3,2021.2.3,Win32,60.07449237,,,,,,,,,,,0.5914,1,,,,,,,,,,,,,,,,,,,,,,,,,0.692127505,-0.009215923,0,0,0,,,,,,,KITTEN,LB,m,m,./images/KITTENLB.png,,,,,,,m,1,0.5914,,,,,,,,0,38,38,45,1
,,,,,,,,,,,,,,,,,198988,18,2022-01-31_22h01.37.162,lexical_decision_task_DD_L3,2021.2.3,Win32,60.07449237,,,,,,,,,,,0.7383,1,,,,,,,,,,,,,,,,,,,,,,,,,0.692127505,-0.009215923,0,0,0,,,,,,,BROOM,LB,z,m,./images/BROOMLB.png,,,,,,,z,1,0.7383,,,,,,,,0,39,39,162,1
,,,,,,,,,,,,,,,,,198988,18,2022-01-31_22h01.37.162,lexical_decision_task_DD_L3,2021.2.3,Win32,60.07449237,,,,,,,,,,,0.669,0,,,,,,,,,,,,,,,,,,,,,,,,,0.692127505,-0.009215923,0,0,0,,,,,,,CHERRY,LB,z,m,./images/CHERRYLB.png,,,,,,,m,0,0.669,,,,,,,,0,40,40,138,1
,,,,,,,,,,,,,,,,,198988,18,2022-01-31_22h01.37.162,lexical_decision_task_DD_L3,2021.2.3,Win32,60.07449237,,,,,,,,,,,0.8312,1,,,,,,,,,,,,,,,,,,,,,,,,,0.692127505,-0.009215923,0,0,0,space,,,,,,SHELF,LB,m,m,./images/SHELFLB.png,29.6787,,,,,,m,1,0.8312,,,,,,,,0,41,41,39,1
,,,,,,,,,,,,,,,,,198988,18,2022-01-31_22h01.37.162,lexical_decision_task_DD_L3,2021.2.3,Win32,60.07449237,,,,,,,,,,,1.1821,0,,,,,,,,,,,,,,,,,,,,,,,,,0.692127505,-0.009215923,0,0,0,,,,,,,SAUCE,LB,z,m,./images/SAUCELB.png,,,,,,,m,0,1.1821,,,,,,,,0,42,42,135,1
,,,,,,,,,,,,,,,,,198988,18,2022-01-31_22h01.37.162,lexical_decision_task_DD_L3,2021.2.3,Win32,60.07449237,,,,,,,,,,,0.7703,1,,,,,,,,,,,,,,,,,,,,,,,,,0.692127505,-0.009215923,0,0,0,,,,,,,WRIST,C,m,m,./images/WRIST.png,,,,,,,m,1,0.7703,,,,,,,,0,43,43,25,1
,,,,,,,,,,,,,,,,,198988,18,2022-01-31_22h01.37.162,lexical_decision_task_DD_L3,2021.2.3,Win32,60.07449237,,,,,,,,,,,0.8552,1,,,,,,,,,,,,,,,,,,,,,,,,,0.692127505,-0.009215923,0,0,0,,,,,,,POODLE,LB,m,m,./images/POODLELB.png,,,,,,,m,1,0.8552,,,,,,,,0,44,44,81,1
,,,,,,,,,,,,,,,,,198988,18,2022-01-31_22h01.37.162,lexical_decision_task_DD_L3,2021.2.3,Win32,60.07449237,,,,,,,,,,,1.1716,1,,,,,,,,,,,,,,,,,,,,,,,,,0.692127505,-0.009215923,0,0,0,,,,,,,DESERT,C,z,m,./images/DESERT.png,,,,,,,z,1,1.1716,,,,,,,,0,45,45,136,1
,,,,,,,,,,,,,,,,,198988,18,2022-01-31_22h01.37.162,lexical_decision_task_DD_L3,2021.2.3,Win32,60.07449237,,,,,,,,,,,0.6201,1,,,,,,,,,,,,,,,,,,,,,,,,,0.692127505,-0.009215923,0,0,0,,,,,,,ONION,LB,m,m,./images/ONIONLB.png,,,,,,,m,1,0.6201,,,,,,,,0,46,46,51,1
,,,,,,,,,,,,,,,,,198988,18,2022-01-31_22h01.37.162,lexical_decision_task_DD_L3,2021.2.3,Win32,60.07449237,,,,,,,,,,,0.6665,1,,,,,,,,,,,,,,,,,,,,,,,,,0.692127505,-0.009215923,0,0,0,,,,,,,FARMER,HB,m,m,./images/FARMERHB.png,,,,,,,m,1,0.6665,,,,,,,,0,47,47,65,1
,,,,,,,,,,,,,,,,,198988,18,2022-01-31_22h01.37.162,lexical_decision_task_DD_L3,2021.2.3,Win32,60.07449237,,,,,,,,,,,0.8855,1,,,,,,,,,,,,,,,,,,,,,,,,,0.692127505,-0.009215923,0,0,0,,,,,,,SAILOR,C,m,m,./images/SAILOR.png,,,,,,,m,1,0.8855,,,,,,,,0,48,48,67,1
,,,,,,,,,,,,,,,,,198988,18,2022-01-31_22h01.37.162,lexical_decision_task_DD_L3,2021.2.3,Win32,60.07449237,,,,,,,,,,,1.1075,1,,,,,,,,,,,,,,,,,,,,,,,,,0.692127505,-0.009215923,0,0,0,,,,,,,CLIFF,HB,z,m,./images/CLIFFHB.png,,,,,,,z,1,1.1075,,,,,,,,0,49,49,92,1
,,,,,,,,,,,,,,,,,198988,18,2022-01-31_22h01.37.162,lexical_decision_task_DD_L3,2021.2.3,Win32,60.07449237,,,,,,,,,,,0.6509,1,,,,,,,,,,,,,,,,,,,,,,,,,0.692127505,-0.009215923,0,0,0,,,,,,,RHINO,LB,m,m,./images/RHINOLB.png,,,,,,,m,1,0.6509,,,,,,,,0,50,50,9,1
,,,,,,,,,,,,,,,,,198988,18,2022-01-31_22h01.37.162,lexical_decision_task_DD_L3,2021.2.3,Win32,60.07449237,,,,,,,,,,,0.6568,0,,,,,,,,,,,,,,,,,,,,,,,,,0.692127505,-0.009215923,0,0,0,,,,,,,BUTTER,LB,z,m,./images/BUTTERLB.png,,,,,,,m,0,0.6568,,,,,,,,0,51,51,111,1
,,,,,,,,,,,,,,,,,198988,18,2022-01-31_22h01.37.162,lexical_decision_task_DD_L3,2021.2.3,Win32,60.07449237,,,,,,,,,,,0.6495,1,,,,,,,,,,,,,,,,,,,,,,,,,0.692127505,-0.009215923,0,0,0,,,,,,,GRANNY,HB,z,m,./images/GRANNYHB.png,,,,,,,z,1,0.6495,,,,,,,,0,52,52,104,1
,,,,,,,,,,,,,,,,,198988,18,2022-01-31_22h01.37.162,lexical_decision_task_DD_L3,2021.2.3,Win32,60.07449237,,,,,,,,,,,0.6502,1,,,,,,,,,,,,,,,,,,,,,,,,,0.692127505,-0.009215923,0,0,0,,,,,,,BURIAL,HB,m,m,./images/BURIALHB.png,,,,,,,m,1,0.6502,,,,,,,,0,53,53,59,1
,,,,,,,,,,,,,,,,,198988,18,2022-01-31_22h01.37.162,lexical_decision_task_DD_L3,2021.2.3,Win32,60.07449237,,,,,,,,,,,0.6724,1,,,,,,,,,,,,,,,,,,,,,,,,,0.692127505,-0.009215923,0,0,0,,,,,,,CANOE,C,z,m,./images/CANOE.png,,,,,,,z,1,0.6724,,,,,,,,0,54,54,142,1
,,,,,,,,,,,,,,,,,198988,18,2022-01-31_22h01.37.162,lexical_decision_task_DD_L3,2021.2.3,Win32,60.07449237,,,,,,,,,,,0.6174,1,,,,,,,,,,,,,,,,,,,,,,,,,0.692127505,-0.009215923,0,0,0,,,,,,,SMOKER,HB,m,m,./images/SMOKERHB.png,,,,,,,m,1,0.6174,,,,,,,,0,55,55,26,1
,,,,,,,,,,,,,,,,,198988,18,2022-01-31_22h01.37.162,lexical_decision_task_DD_L3,2021.2.3,Win32,60.07449237,,,,,,,,,,,0.7702,1,,,,,,,,,,,,,,,,,,,,,,,,,0.692127505,-0.009215923,0,0,0,,,,,,,LADDER,HB,m,m,./images/LADDERHB.png,,,,,,,m,1,0.7702,,,,,,,,0,56,56,38,1
,,,,,,,,,,,,,,,,,198988,18,2022-01-31_22h01.37.162,lexical_decision_task_DD_L3,2021.2.3,Win32,60.07449237,,,,,,,,,,,1.0507,1,,,,,,,,,,,,,,,,,,,,,,,,,0.692127505,-0.009215923,0,0,0,,,,,,,POSTER,HB,z,m,./images/POSTERHB.png,,,,,,,z,1,1.0507,,,,,,,,0,57,57,137,1
,,,,,,,,,,,,,,,,,198988,18,2022-01-31_22h01.37.162,lexical_decision_task_DD_L3,2021.2.3,Win32,60.07449237,,,,,,,,,,,0.8457,1,,,,,,,,,,,,,,,,,,,,,,,,,0.692127505,-0.009215923,0,0,0,,,,,,,SPORT,LB,m,m,./images/SPORTLB.png,,,,,,,m,1,0.8457,,,,,,,,0,58,58,48,1
,,,,,,,,,,,,,,,,,198988,18,2022-01-31_22h01.37.162,lexical_decision_task_DD_L3,2021.2.3,Win32,60.07449237,,,,,,,,,,,2.5184,1,,,,,,,,,,,,,,,,,,,,,,,,,0.692127505,-0.009215923,0,0,0,,,,,,,SLOPE,LB,z,m,./images/SLOPELB.png,,,,,,,z,1,2.5184,,,,,,,,0,59,59,114,1
,,,,,,,,,,,,,,,,,198988,18,2022-01-31_22h01.37.162,lexical_decision_task_DD_L3,2021.2.3,Win32,60.07449237,,,,,,,,,,,1.0784,1,,,,,,,,,,,,,,,,,,,,,,,,,0.692127505,-0.009215923,0,0,0,,,,,,,FERRY,LB,z,m,./images/FERRYLB.png,,,,,,,z,1,1.0784,,,,,,,,0,60,60,141,1
,,,,,,,,,,,,,,,,,198988,18,2022-01-31_22h01.37.162,lexical_decision_task_DD_L3,2021.2.3,Win32,60.07449237,,,,,,,,,,,0.7674,1,,,,,,,,,,,,,,,,,,,,,,,,,0.692127505,-0.009215923,0,0,0,,,,,,,LLAMA,HB,z,m,./images/LLAMAHB.png,,,,,,,z,1,0.7674,,,,,,,,0,61,61,119,1
,,,,,,,,,,,,,,,,,198988,18,2022-01-31_22h01.37.162,lexical_decision_task_DD_L3,2021.2.3,Win32,60.07449237,,,,,,,,,,,1.3008,0,,,,,,,,,,,,,,,,,,,,,,,,,0.692127505,-0.009215923,0,0,0,,,,,,,PAINT,C,m,m,./images/PAINT.png,,,,,,,z,0,1.3008,,,,,,,,0,62,62,7,1
,,,,,,,,,,,,,,,,,198988,18,2022-01-31_22h01.37.162,lexical_decision_task_DD_L3,2021.2.3,Win32,60.07449237,,,,,,,,,,,0.7012,1,,,,,,,,,,,,,,,,,,,,,,,,,0.692127505,-0.009215923,0,0,0,,,,,,,SWING,C,m,m,./images/SWING.png,,,,,,,m,1,0.7012,,,,,,,,0,63,63,40,1
,,,,,,,,,,,,,,,,,198988,18,2022-01-31_22h01.37.162,lexical_decision_task_DD_L3,2021.2.3,Win32,60.07449237,,,,,,,,,,,1.0724,1,,,,,,,,,,,,,,,,,,,,,,,,,0.692127505,-0.009215923,0,0,0,,,,,,,COLLAR,LB,z,m,./images/COLLARLB.png,,,,,,,z,1,1.0724,,,,,,,,0,64,64,99,1
,,,,,,,,,,,,,,,,,198988,18,2022-01-31_22h01.37.162,lexical_decision_task_DD_L3,2021.2.3,Win32,60.07449237,,,,,,,,,,,0.8369,1,,,,,,,,,,,,,,,,,,,,,,,,,0.692127505,-0.009215923,0,0,0,,,,,,,WALNUT,LB,z,m,./images/WALNUTLB.png,,,,,,,z,1,0.8369,,,,,,,,0,65,65,84,1
,,,,,,,,,,,,,,,,,198988,18,2022-01-31_22h01.37.162,lexical_decision_task_DD_L3,2021.2.3,Win32,60.07449237,,,,,,,,,,,4.3192,0,,,,,,,,,,,,,,,,,,,,,,,,,0.692127505,-0.009215923,0,0,0,,,,,,,GRAIN,LB,m,m,./images/GRAINLB.png,,,,,,,z,0,4.3192,,,,,,,,0,66,66,75,1
,,,,,,,,,,,,,,,,,198988,18,2022-01-31_22h01.37.162,lexical_decision_task_DD_L3,2021.2.3,Win32,60.07449237,,,,,,,,,,,2.9468,0,,,,,,,,,,,,,,,,,,,,,,,,,0.692127505,-0.009215923,0,0,0,,,,,,,STORM,LB,m,m,./images/STORMLB.png,,,,,,,z,0,2.9468,,,,,,,,0,67,67,30,1
,,,,,,,,,,,,,,,,,198988,18,2022-01-31_22h01.37.162,lexical_decision_task_DD_L3,2021.2.3,Win32,60.07449237,,,,,,,,,,,0.8674,1,,,,,,,,,,,,,,,,,,,,,,,,,0.692127505,-0.009215923,0,0,0,,,,,,,BOILER,LB,z,m,./images/BOILERLB.png,,,,,,,z,1,0.8674,,,,,,,,0,68,68,120,1
,,,,,,,,,,,,,,,,,198988,18,2022-01-31_22h01.37.162,lexical_decision_task_DD_L3,2021.2.3,Win32,60.07449237,,,,,,,,,,,0.8847,1,,,,,,,,,,,,,,,,,,,,,,,,,0.692127505,-0.009215923,0,0,0,,,,,,,FLESH,LB,z,m,./images/FLESHLB.png,,,,,,,z,1,0.8847,,,,,,,,0,69,69,108,1
,,,,,,,,,,,,,,,,,198988,18,2022-01-31_22h01.37.162,lexical_decision_task_DD_L3,2021.2.3,Win32,60.07449237,,,,,,,,,,,0.752,0,,,,,,,,,,,,,,,,,,,,,,,,,0.692127505,-0.009215923,0,0,0,,,,,,,MONKEY,LB,z,m,./images/MONKEYLB.png,,,,,,,m,0,0.752,,,,,,,,0,70,70,129,1
,,,,,,,,,,,,,,,,,198988,18,2022-01-31_22h01.37.162,lexical_decision_task_DD_L3,2021.2.3,Win32,60.07449237,,,,,,,,,,,1.3672,1,,,,,,,,,,,,,,,,,,,,,,,,,0.692127505,-0.009215923,0,0,0,,,,,,,DRILL,LB,z,m,./images/DRILLLB.png,,,,,,,z,1,1.3672,,,,,,,,0,71,71,165,1
,,,,,,,,,,,,,,,,,198988,18,2022-01-31_22h01.37.162,lexical_decision_task_DD_L3,2021.2.3,Win32,60.07449237,,,,,,,,,,,0.757,1,,,,,,,,,,,,,,,,,,,,,,,,,0.692127505,-0.009215923,0,0,0,,,,,,,SPINE,HB,z,m,./images/SPINEHB.png,,,,,,,z,1,0.757,,,,,,,,0,72,72,149,1
,,,,,,,,,,,,,,,,,198988,18,2022-01-31_22h01.37.162,lexical_decision_task_DD_L3,2021.2.3,Win32,60.07449237,,,,,,,,,,,0.8337,0,,,,,,,,,,,,,,,,,,,,,,,,,0.692127505,-0.009215923,0,0,0,,,,,,,STRING,HB,m,m,./images/STRINGHB.png,,,,,,,z,0,0.8337,,,,,,,,0,73,73,41,1
,,,,,,,,,,,,,,,,,198988,18,2022-01-31_22h01.37.162,lexical_decision_task_DD_L3,2021.2.3,Win32,60.07449237,,,,,,,,,,,1.8351,1,,,,,,,,,,,,,,,,,,,,,,,,,0.692127505,-0.009215923,0,0,0,,,,,,,JUMPER,HB,z,m,./images/JUMPERHB.png,,,,,,,z,1,1.8351,,,,,,,,0,74,74,158,1
,,,,,,,,,,,,,,,,,198988,18,2022-01-31_22h01.37.162,lexical_decision_task_DD_L3,2021.2.3,Win32,60.07449237,,,,,,,,,,,1.0386,1,,,,,,,,,,,,,,,,,,,,,,,,,0.692127505,-0.009215923,0,0,0,,,,,,,CANDLE,C,m,m,./images/CANDLE.png,,,,,,,m,1,1.0386,,,,,,,,0,75,75,61,1
,,,,,,,,,,,,,,,,,198988,18,2022-01-31_22h01.37.162,lexical_decision_task_DD_L3,2021.2.3,Win32,60.07449237,,,,,,,,,,,1.6008,1,,,,,,,,,,,,,,,,,,,,,,,,,0.692127505,-0.009215923,0,0,0,,,,,,,STOOL,C,z,m,./images/STOOL.png,,,,,,,z,1,1.6008,,,,,,,,0,76,76,127,1
,,,,,,,,,,,,,,,,,198988,18,2022-01-31_22h01.37.162,lexical_decision_task_DD_L3,2021.2.3,Win32,60.07449237,,,,,,,,,,,0.9083,1,,,,,,,,,,,,,,,,,,,,,,,,,0.692127505,-0.009215923,0,0,0,,,,,,,STEAK,C,z,m,./images/STEAK.png,,,,,,,z,1,0.9083,,,,,,,,0,77,77,115,1
,,,,,,,,,,,,,,,,,198988,18,2022-01-31_22h01.37.162,lexical_decision_task_DD_L3,2021.2.3,Win32,60.07449237,,,,,,,,,,,0.8622,1,,,,,,,,,,,,,,,,,,,,,,,,,0.692127505,-0.009215923,0,0,0,,,,,,,CRUST,C,m,m,./images/CRUST.png,,,,,,,m,1,0.8622,,,,,,,,0,78,78,79,1
,,,,,,,,,,,,,,,,,198988,18,2022-01-31_22h01.37.162,lexical_decision_task_DD_L3,2021.2.3,Win32,60.07449237,,,,,,,,,,,0.6341,1,,,,,,,,,,,,,,,,,,,,,,,,,0.692127505,-0.009215923,0,0,0,,,,,,,ATTIC,LB,m,m,./images/ATTICLB.png,,,,,,,m,1,0.6341,,,,,,,,0,79,79,27,1
,,,,,,,,,,,,,,,,,198988,18,2022-01-31_22h01.37.162,lexical_decision_task_DD_L3,2021.2.3,Win32,60.07449237,,,,,,,,,,,1.3185,0,,,,,,,,,,,,,,,,,,,,,,,,,0.692127505,-0.009215923,0,0,0,,,,,,,BELLY,C,m,m,./images/BELLY.png,,,,,,,z,0,1.3185,,,,,,,,0,80,80,10,1
,,,,,,,,,,,,,,,,,198988,18,2022-01-31_22h01.37.162,lexical_decision_task_DD_L3,2021.2.3,Win32,60.07449237,,,,,,,,,,,0.8794,0,,,,,,,,,,,,,,,,,,,,,,,,,0.692127505,-0.009215923,0,0,0,,,,,,,BIRTH,C,m,m,./images/BIRTH.png,,,,,,,z,0,0.8794,,,,,,,,0,81,81,37,1
,,,,,,,,,,,,,,,,,198988,18,2022-01-31_22h01.37.162,lexical_decision_task_DD_L3,2021.2.3,Win32,60.07449237,,,,,,,,,,,0.6787,1,,,,,,,,,,,,,,,,,,,,,,,,,0.692127505,-0.009215923,0,0,0,,,,,,,MAMMAL,HB,z,m,./images/MAMMALHB.png,,,,,,,z,1,0.6787,,,,,,,,0,82,82,146,1
,,,,,,,,,,,,,,,,,198988,18,2022-01-31_22h01.37.162,lexical_decision_task_DD_L3,2021.2.3,Win32,60.07449237,,,,,,,,,,,1.9255,1,,,,,,,,,,,,,,,,,,,,,,,,,0.692127505,-0.009215923,0,0,0,space,,,,,,GLOVE,C,z,m,./images/GLOVE.png,2.7679,,,,,,z,1,1.9255,,,,,,,,0,83,83,157,1
,,,,,,,,,,,,,,,,,198988,18,2022-01-31_22h01.37.162,lexical_decision_task_DD_L3,2021.2.3,Win32,60.07449237,,,,,,,,,,,1.4967,1,,,,,,,,,,,,,,,,,,,,,,,,,0.692127505,-0.009215923,0,0,0,,,,,,,NOOSE,LB,m,m,./images/NOOSELB.png,,,,,,,m,1,1.4967,,,,,,,,0,84,84,72,1
,,,,,,,,,,,,,,,,,198988,18,2022-01-31_22h01.37.162,lexical_decision_task_DD_L3,2021.2.3,Win32,60.07449237,,,,,,,,,,,1.2506,1,,,,,,,,,,,,,,,,,,,,,,,,,0.692127505,-0.009215923,0,0,0,,,,,,,DANCER,LB,z,m,./images/DANCERLB.png,,,,,,,z,1,1.2506,,,,,,,,0,85,85,105,1
,,,,,,,,,,,,,,,,,198988,18,2022-01-31_22h01.37.162,lexical_decision_task_DD_L3,2021.2.3,Win32,60.07449237,,,,,,,,,,,1.2837,1,,,,,,,,,,,,,,,,,,,,,,,,,0.692127505,-0.009215923,0,0,0,,,,,,,PARADE,HB,z,m,./images/PARADEHB.png,,,,,,,z,1,1.2837,,,,,,,,0,86,86,101,1
,,,,,,,,,,,,,,,,,198988,18,2022-01-31_22h01.37.162,lexical_decision_task_DD_L3,2021.2.3,Win32,60.07449237,,,,,,,,,,,1.8842,1,,,,,,,,,,,,,,,,,,,,,,,,,0.692127505,-0.009215923,0,0,0,,,,,,,ENGINE,HB,z,m,./images/ENGINEHB.png,,,,,,,z,1,1.8842,,,,,,,,0,87,87,122,1
,,,,,,,,,,,,,,,,,198988,18,2022-01-31_22h01.37.162,lexical_decision_task_DD_L3,2021.2.3,Win32,60.07449237,,,,,,,,,,,0.7839,1,,,,,,,,,,,,,,,,,,,,,,,,,0.692127505,-0.009215923,0,0,0,,,,,,,LIZARD,HB,m,m,./images/LIZARDHB.png,,,,,,,m,1,0.7839,,,,,,,,0,88,88,44,1
,,,,,,,,,,,,,,,,,198988,18,2022-01-31_22h01.37.162,lexical_decision_task_DD_L3,2021.2.3,Win32,60.07449237,,,,,,,,,,,1.1898,1,,,,,,,,,,,,,,,,,,,,,,,,,0.692127505,-0.009215923,0,0,0,,,,,,,DIVER,LB,z,m,./images/DIVERLB.png,,,,,,,z,1,1.1898,,,,,,,,0,89,89,93,1
,,,,,,,,,,,,,,,,,198988,18,2022-01-31_22h01.37.162,lexical_decision_task_DD_L3,2021.2.3,Win32,60.07449237,,,,,,,,,,,0.8843,1,,,,,,,,,,,,,,,,,,,,,,,,,0.692127505,-0.009215923,0,0,0,,,,,,,GARDEN,C,z,m,./images/GARDEN.png,,,,,,,z,1,0.8843,,,,,,,,0,90,90,94,1
,,,,,,,,,,,,,,,,,198988,18,2022-01-31_22h01.37.162,lexical_decision_task_DD_L3,2021.2.3,Win32,60.07449237,,,,,,,,,,,2.4433,1,,,,,,,,,,,,,,,,,,,,,,,,,0.692127505,-0.009215923,0,0,0,,,,,,,ARROW,LB,z,m,./images/ARROWLB.png,,,,,,,z,1,2.4433,,,,,,,,0,91,91,153,1
,,,,,,,,,,,,,,,,,198988,18,2022-01-31_22h01.37.162,lexical_decision_task_DD_L3,2021.2.3,Win32,60.07449237,,,,,,,,,,,0.6684,0,,,,,,,,,,,,,,,,,,,,,,,,,0.692127505,-0.009215923,0,0,0,,,,,,,CHALK,C,z,m,./images/CHALK.png,,,,,,,m,0,0.6684,,,,,,,,0,92,92,109,1
,,,,,,,,,,,,,,,,,198988,18,2022-01-31_22h01.37.162,lexical_decision_task_DD_L3,2021.2.3,Win32,60.07449237,,,,,,,,,,,0.6463,1,,,,,,,,,,,,,,,,,,,,,,,,,0.692127505,-0.009215923,0,0,0,,,,,,,JUNGLE,HB,m,m,./images/JUNGLEHB.png,,,,,,,m,1,0.6463,,,,,,,,0,93,93,83,1
,,,,,,,,,,,,,,,,,198988,18,2022-01-31_22h01.37.162,lexical_decision_task_DD_L3,2021.2.3,Win32,60.07449237,,,,,,,,,,,1.5673,1,,,,,,,,,,,,,,,,,,,,,,,,,0.692127505,-0.009215923,0,0,0,,,,,,,WHEEL,HB,z,m,./images/WHEELHB.png,,,,,,,z,1,1.5673,,,,,,,,0,94,94,161,1
,,,,,,,,,,,,,,,,,198988,18,2022-01-31_22h01.37.162,lexical_decision_task_DD_L3,2021.2.3,Win32,60.07449237,,,,,,,,,,,2.3582,0,,,,,,,,,,,,,,,,,,,,,,,,,0.692127505,-0.009215923,0,0,0,,,,,,,PIMPLE,HB,m,m,./images/PIMPLEHB.png,,,,,,,z,0,2.3582,,,,,,,,0,95,95,71,1
,,,,,,,,,,,,,,,,,198988,18,2022-01-31_22h01.37.162,lexical_decision_task_DD_L3,2021.2.3,Win32,60.07449237,,,,,,,,,,,0.7385,1,,,,,,,,,,,,,,,,,,,,,,,,,0.692127505,-0.009215923,0,0,0,,,,,,,SKIING,HB,m,m,./images/SKIINGHB.png,,,,,,,m,1,0.7385,,,,,,,,0,96,96,17,1
,,,,,,,,,,,,,,,,,198988,18,2022-01-31_22h01.37.162,lexical_decision_task_DD_L3,2021.2.3,Win32,60.07449237,,,,,,,,,,,0.8513,1,,,,,,,,,,,,,,,,,,,,,,,,,0.692127505,-0.009215923,0,0,0,,,,,,,CHAIN,LB,z,m,./images/CHAINLB.png,,,,,,,z,1,0.8513,,,,,,,,0,97,97,126,1
,,,,,,,,,,,,,,,,,198988,18,2022-01-31_22h01.37.162,lexical_decision_task_DD_L3,2021.2.3,Win32,60.07449237,,,,,,,,,,,0.917,1,,,,,,,,,,,,,,,,,,,,,,,,,0.692127505,-0.009215923,0,0,0,,,,,,,GRAPE,C,z,m,./images/GRAPE.png,,,,,,,z,1,0.917,,,,,,,,0,98,98,100,1
,,,,,,,,,,,,,,,,,198988,18,2022-01-31_22h01.37.162,lexical_decision_task_DD_L3,2021.2.3,Win32,60.07449237,,,,,,,,,,,0.6592,1,,,,,,,,,,,,,,,,,,,,,,,,,0.692127505,-0.009215923,0,0,0,,,,,,,TULIP,HB,m,m,./images/TULIPHB.png,,,,,,,m,1,0.6592,,,,,,,,0,99,99,8,1
,,,,,,,,,,,,,,,,,198988,18,2022-01-31_22h01.37.162,lexical_decision_task_DD_L3,2021.2.3,Win32,60.07449237,,,,,,,,,,,1.0566,1,,,,,,,,,,,,,,,,,,,,,,,,,0.692127505,-0.009215923,0,0,0,,,,,,,STATUE,LB,z,m,./images/STATUELB.png,,,,,,,z,1,1.0566,,,,,,,,0,100,100,150,1
,,,,,,,,,,,,,,,,,198988,18,2022-01-31_22h01.37.162,lexical_decision_task_DD_L3,2021.2.3,Win32,60.07449237,,,,,,,,,,,2.8357,0,,,,,,,,,,,,,,,,,,,,,,,,,0.692127505,-0.009215923,0,0,0,,,,,,,PEARL,C,m,m,./images/PEARL.png,,,,,,,z,0,2.8357,,,,,,,,0,101,101,46,1
,,,,,,,,,,,,,,,,,198988,18,2022-01-31_22h01.37.162,lexical_decision_task_DD_L3,2021.2.3,Win32,60.07449237,,,,,,,,,,,0.8246,1,,,,,,,,,,,,,,,,,,,,,,,,,0.692127505,-0.009215923,0,0,0,,,,,,,BISHOP,C,z,m,./images/BISHOP.png,,,,,,,z,1,0.8246,,,,,,,,0,102,102,133,1
,,,,,,,,,,,,,,,,,198988,18,2022-01-31_22h01.37.162,lexical_decision_task_DD_L3,2021.2.3,Win32,60.07449237,,,,,,,,,,,1.0354,1,,,,,,,,,,,,,,,,,,,,,,,,,0.692127505,-0.009215923,0,0,0,,,,,,,BUNNY,C,z,m,./images/BUNNY.png,,,,,,,z,1,1.0354,,,,,,,,0,103,103,97,1
,,,,,,,,,,,,,,,,,198988,18,2022-01-31_22h01.37.162,lexical_decision_task_DD_L3,2021.2.3,Win32,60.07449237,,,,,,,,,,,0.8381,1,,,,,,,,,,,,,,,,,,,,,,,,,0.692127505,-0.009215923,0,0,0,,,,,,,PASTA,HB,m,m,./images/PASTAHB.png,,,,,,,m,1,0.8381,,,,,,,,0,104,104,5,1
,,,,,,,,,,,,,,,,,198988,18,2022-01-31_22h01.37.162,lexical_decision_task_DD_L3,2021.2.3,Win32,60.07449237,,,,,,,,,,,0.6545,1,,,,,,,,,,,,,,,,,,,,,,,,,0.692127505,-0.009215923,0,0,0,,,,,,,PEACH,HB,m,m,./images/PEACHHB.png,,,,,,,m,1,0.6545,,,,,,,,0,105,105,35,1
,,,,,,,,,,,,,,,,,198988,18,2022-01-31_22h01.37.162,lexical_decision_task_DD_L3,2021.2.3,Win32,60.07449237,,,,,,,,,,,1.4745,1,,,,,,,,,,,,,,,,,,,,,,,,,0.692127505,-0.009215923,0,0,0,,,,,,,CEMENT,HB,m,m,./images/CEMENTHB.png,,,,,,,m,1,1.4745,,,,,,,,0,106,106,74,1
,,,,,,,,,,,,,,,,,198988,18,2022-01-31_22h01.37.162,lexical_decision_task_DD_L3,2021.2.3,Win32,60.07449237,,,,,,,,,,,0.7507,1,,,,,,,,,,,,,,,,,,,,,,,,,0.692127505,-0.009215923,0,0,0,,,,,,,CURRY,LB,z,m,./images/CURRYLB.png,,,,,,,z,1,0.7507,,,,,,,,0,107,107,144,1
,,,,,,,,,,,,,,,,,198988,18,2022-01-31_22h01.37.162,lexical_decision_task_DD_L3,2021.2.3,Win32,60.07449237,,,,,,,,,,,2.2518,0,,,,,,,,,,,,,,,,,,,,,,,,,0.692127505,-0.009215923,0,0,0,,,,,,,FINGER,LB,m,m,./images/FINGERLB.png,,,,,,,z,0,2.2518,,,,,,,,0,108,108,3,1
,,,,,,,,,,,,,,,,,198988,18,2022-01-31_22h01.37.162,lexical_decision_task_DD_L3,2021.2.3,Win32,60.07449237,,,,,,,,,,,1.2505,1,,,,,,,,,,,,,,,,,,,,,,,,,0.692127505,-0.009215923,0,0,0,,,,,,,ARTIST,C,z,m,./images/ARTIST.png,,,,,,,z,1,1.2505,,,,,,,,0,109,109,145,1
,,,,,,,,,,,,,,,,,198988,18,2022-01-31_22h01.37.162,lexical_decision_task_DD_L3,2021.2.3,Win32,60.07449237,,,,,,,,,,,1.44,1,,,,,,,,,,,,,,,,,,,,,,,,,0.692127505,-0.009215923,0,0,0,,,,,,,VALLEY,HB,z,m,./images/VALLEYHB.png,,,,,,,z,1,1.44,,,,,,,,0,110,110,152,1
,,,,,,,,,,,,,,,,,198988,18,2022-01-31_22h01.37.162,lexical_decision_task_DD_L3,2021.2.3,Win32,60.07449237,,,,,,,,,,,1.2587,0,,,,,,,,,,,,,,,,,,,,,,,,,0.692127505,-0.009215923,0,0,0,,,,,,,MOTOR,C,m,m,./images/MOTOR.png,,,,,,,z,0,1.2587,,,,,,,,0,111,111,13,1
,,,,,,,,,,,,,,,,,198988,18,2022-01-31_22h01.37.162,lexical_decision_task_DD_L3,2021.2.3,Win32,60.07449237,,,,,,,,,,,0.9528,1,,,,,,,,,,,,,,,,,,,,,,,,,0.692127505,-0.009215923,0,0,0,,,,,,,STOVE,HB,z,m,./images/STOVEHB.png,,,,,,,z,1,0.9528,,,,,,,,0,112,112,86,1
,,,,,,,,,,,,,,,,,198988,18,2022-01-31_22h01.37.162,lexical_decision_task_DD_L3,2021.2.3,Win32,60.07449237,,,,,,,,,,,0.8536,0,,,,,,,,,,,,,,,,,,,,,,,,,0.692127505,-0.009215923,0,0,0,,,,,,,CANDY,LB,z,m,./images/CANDYLB.png,,,,,,,m,0,0.8536,,,,,,,,0,113,113,123,1
,,,,,,,,,,,,,,,,,198988,18,2022-01-31_22h01.37.162,lexical_decision_task_DD_L3,2021.2.3,Win32,60.07449237,,,,,,,,,,,0.6376,1,,,,,,,,,,,,,,,,,,,,,,,,,0.692127505,-0.009215923,0,0,0,,,,,,,BERRY,HB,m,m,./images/BERRYHB.png,,,,,,,m,1,0.6376,,,,,,,,0,114,114,47,1
,,,,,,,,,,,,,,,,,198988,18,2022-01-31_22h01.37.162,lexical_decision_task_DD_L3,2021.2.3,Win32,60.07449237,,,,,,,,,,,0.6505,0,,,,,,,,,,,,,,,,,,,,,,,,,0.692127505,-0.009215923,0,0,0,,,,,,,SCREW,LB,m,m,./images/SCREWLB.png,,,,,,,z,0,0.6505,,,,,,,,0,115,115,24,1
,,,,,,,,,,,,,,,,,198988,18,2022-01-31_22h01.37.162,lexical_decision_task_DD_L3,2021.2.3,Win32,60.07449237,,,,,,,,,,,0.8341,1,,,,,,,,,,,,,,,,,,,,,,,,,0.692127505,-0.009215923,0,0,0,,,,,,,HEATER,HB,z,m,./images/HEATERHB.png,,,,,,,z,1,0.8341,,,,,,,,0,116,116,140,1
,,,,,,,,,,,,,,,,,198988,18,2022-01-31_22h01.37.162,lexical_decision_task_DD_L3,2021.2.3,Win32,60.07449237,,,,,,,,,,,0.7557,0,,,,,,,,,,,,,,,,,,,,,,,,,0.692127505,-0.009215923,0,0,0,,,,,,,MUFFIN,C,m,m,./images/MUFFIN.png,,,,,,,z,0,0.7557,,,,,,,,0,117,117,55,1
,,,,,,,,,,,,,,,,,198988,18,2022-01-31_22h01.37.162,lexical_decision_task_DD_L3,2021.2.3,Win32,60.07449237,,,,,,,,,,,1.2676,1,,,,,,,,,,,,,,,,,,,,,,,,,0.692127505,-0.009215923,0,0,0,,,,,,,BRUSH,HB,z,m,./images/BRUSHHB.png,,,,,,,z,1,1.2676,,,,,,,,0,118,118,143,1
,,,,,,,,,,,,,,,,,198988,18,2022-01-31_22h01.37.162,lexical_decision_task_DD_L3,2021.2.3,Win32,60.07449237,,,,,,,,,,,1.0881,1,,,,,,,,,,,,,,,,,,,,,,,,,0.692127505,-0.009215923,0,0,0,,,,,,,WEASEL,HB,m,m,./images/WEASELHB.png,,,,,,,m,1,1.0881,,,,,,,,0,119,119,80,1
,,,,,,,,,,,,,,,,,198988,18,2022-01-31_22h01.37.162,lexical_decision_task_DD_L3,2021.2.3,Win32,60.07449237,,,,,,,,,,,1.0001,1,,,,,,,,,,,,,,,,,,,,,,,,,0.692127505,-0.009215923,0,0,0,,,,,,,BAMBOO,HB,z,m,./images/BAMBOOHB.png,,,,,,,z,1,1.0001,,,,,,,,0,120,120,89,1
,,,,,,,,,,,,,,,,,198988,18,2022-01-31_22h01.37.162,lexical_decision_task_DD_L3,2021.2.3,Win32,60.07449237,,,,,,,,,,,0.813,1,,,,,,,,,,,,,,,,,,,,,,,,,0.692127505,-0.009215923,0,0,0,,,,,,,CARPET,HB,m,m,./images/CARPETHB.png,,,,,,,m,1,0.813,,,,,,,,0,121,121,53,1
,,,,,,,,,,,,,,,,,198988,18,2022-01-31_22h01.37.162,lexical_decision_task_DD_L3,2021.2.3,Win32,60.07449237,,,,,,,,,,,0.6681,1,,,,,,,,,,,,,,,,,,,,,,,,,0.692127505,-0.009215923,0,0,0,,,,,,,COUCH,HB,m,m,./images/COUCHHB.png,,,,,,,m,1,0.6681,,,,,,,,0,122,122,77,1
,,,,,,,,,,,,,,,,,198988,18,2022-01-31_22h01.37.162,lexical_decision_task_DD_L3,2021.2.3,Win32,60.07449237,,,,,,,,,,,0.6186,1,,,,,,,,,,,,,,,,,,,,,,,,,0.692127505,-0.009215923,0,0,0,,,,,,,BLOKE,LB,z,m,./images/BLOKELB.png,,,,,,,z,1,0.6186,,,,,,,,0,123,123,96,1
,,,,,,,,,,,,,,,,,198988,18,2022-01-31_22h01.37.162,lexical_decision_task_DD_L3,2021.2.3,Win32,60.07449237,,,,,,,,,,,0.8008,1,,,,,,,,,,,,,,,,,,,,,,,,,0.692127505,-0.009215923,0,0,0,,,,,,,SHORE,LB,m,m,./images/SHORELB.png,,,,,,,m,1,0.8008,,,,,,,,0,124,124,12,1
,,,,,,,,,,,,,,,,,198988,18,2022-01-31_22h01.37.162,lexical_decision_task_DD_L3,2021.2.3,Win32,60.07449237,,,,,,,,,,,1.1175,1,,,,,,,,,,,,,,,,,,,,,,,,,0.692127505,-0.009215923,0,0,0,space,,,,,,CANYON,C,m,m,./images/CANYON.png,4.9344,,,,,,m,1,1.1175,,,,,,,,0,125,125,34,1
,,,,,,,,,,,,,,,,,198988,18,2022-01-31_22h01.37.162,lexical_decision_task_DD_L3,2021.2.3,Win32,60.07449237,,,,,,,,,,,0.9508,0,,,,,,,,,,,,,,,,,,,,,,,,,0.692127505,-0.009215923,0,0,0,,,,,,,THROAT,LB,m,m,./images/THROATLB.png,,,,,,,z,0,0.9508,,,,,,,,0,126,126,36,1
,,,,,,,,,,,,,,,,,198988,18,2022-01-31_22h01.37.162,lexical_decision_task_DD_L3,2021.2.3,Win32,60.07449237,,,,,,,,,,,0.9578,1,,,,,,,,,,,,,,,,,,,,,,,,,0.692127505,-0.009215923,0,0,0,,,,,,,MELON,C,m,m,./images/MELON.png,,,,,,,m,1,0.9578,,,,,,,,0,127,127,22,1
,,,,,,,,,,,,,,,,,198988,18,2022-01-31_22h01.37.162,lexical_decision_task_DD_L3,2021.2.3,Win32,60.07449237,,,,,,,,,,,0.7886,1,,,,,,,,,,,,,,,,,,,,,,,,,0.692127505,-0.009215923,0,0,0,,,,,,,TOWEL,C,z,m,./images/TOWEL.png,,,,,,,z,1,0.7886,,,,,,,,0,128,128,85,1
,,,,,,,,,,,,,,,,,198988,18,2022-01-31_22h01.37.162,lexical_decision_task_DD_L3,2021.2.3,Win32,60.07449237,,,,,,,,,,,0.8837,1,,,,,,,,,,,,,,,,,,,,,,,,,0.692127505,-0.009215923,0,0,0,,,,,,,FALCON,C,m,m,./images/FALCON.png,,,,,,,m,1,0.8837,,,,,,,,0,129,129,28,1
,,,,,,,,,,,,,,,,,198988,18,2022-01-31_22h01.37.162,lexical_decision_task_DD_L3,2021.2.3,Win32,60.07449237,,,,,,,,,,,1.6877,0,,,,,,,,,,,,,,,,,,,,,,,,,0.692127505,-0.009215923,0,0,0,,,,,,,FOLDER,LB,m,m,./images/FOLDERLB.png,,,,,,,z,0,1.6877,,,,,,,,0,130,130,42,1
,,,,,,,,,,,,,,,,,198988,18,2022-01-31_22h01.37.162,lexical_decision_task_DD_L3,2021.2.3,Win32,60.07449237,,,,,,,,,,,1.3509,1,,,,,,,,,,,,,,,,,,,,,,,,,0.692127505,-0.009215923,0,0,0,,,,,,,URINE,C,m,m,./images/URINE.png,,,,,,,m,1,1.3509,,,,,,,,0,131,131,70,1
,,,,,,,,,,,,,,,,,198988,18,2022-01-31_22h01.37.162,lexical_decision_task_DD_L3,2021.2.3,Win32,60.07449237,,,,,,,,,,,2.8509,1,,,,,,,,,,,,,,,,,,,,,,,,,0.692127505,-0.009215923,0,0,0,,,,,,,CRATER,LB,z,m,./images/CRATERLB.png,,,,,,,z,1,2.8509,,,,,,,,0,132,132,87,1
,,,,,,,,,,,,,,,,,198988,18,2022-01-31_22h01.37.162,lexical_decision_task_DD_L3,2021.2.3,Win32,60.07449237,,,,,,,,,,,0.6507,1,,,,,,,,,,,,,,,,,,,,,,,,,0.692127505,-0.009215923,0,0,0,,,,,,,SWEAT,LB,m,m,./images/SWEATLB.png,,,,,,,m,1,0.6507,,,,,,,,0,133,133,66,1
,,,,,,,,,,,,,,,,,198988,18,2022-01-31_22h01.37.162,lexical_decision_task_DD_L3,2021.2.3,Win32,60.07449237,,,,,,,,,,,0.7167,1,,,,,,,,,,,,,,,,,,,,,,,,,0.692127505,-0.009215923,0,0,0,,,,,,,SHIELD,LB,z,m,./images/SHIELDLB.png,,,,,,,z,1,0.7167,,,,,,,,0,134,134,132,1
,,,,,,,,,,,,,,,,,198988,18,2022-01-31_22h01.37.162,lexical_decision_task_DD_L3,2021.2.3,Win32,60.07449237,,,,,,,,,,,0.9501,1,,,,,,,,,,,,,,,,,,,,,,,,,0.692127505,-0.009215923,0,0,0,,,,,,,LAGOON,HB,z,m,./images/LAGOONHB.png,,,,,,,z,1,0.9501,,,,,,,,0,135,135,131,1
,,,,,,,,,,,,,,,,,198988,18,2022-01-31_22h01.37.162,lexical_decision_task_DD_L3,2021.2.3,Win32,60.07449237,,,,,,,,,,,0.8008,1,,,,,,,,,,,,,,,,,,,,,,,,,0.692127505,-0.009215923,0,0,0,,,,,,,MUMMY,C,z,m,./images/MUMMY.png,,,,,,,z,1,0.8008,,,,,,,,0,136,136,130,1
,,,,,,,,,,,,,,,,,198988,18,2022-01-31_22h01.37.162,lexical_decision_task_DD_L3,2021.2.3,Win32,60.07449237,,,,,,,,,,,2.274,1,,,,,,,,,,,,,,,,,,,,,,,,,0.692127505,-0.009215923,0,0,0,,,,,,,BAKER,LB,z,m,./images/BAKERLB.png,,,,,,,z,1,2.274,,,,,,,,0,137,137,147,1
,,,,,,,,,,,,,,,,,198988,18,2022-01-31_22h01.37.162,lexical_decision_task_DD_L3,2021.2.3,Win32,60.07449237,,,,,,,,,,,0.6725,1,,,,,,,,,,,,,,,,,,,,,,,,,0.692127505,-0.009215923,0,0,0,,,,,,,MOOSE,LB,m,m,./images/MOOSELB.png,,,,,,,m,1,0.6725,,,,,,,,0,138,138,57,1
,,,,,,,,,,,,,,,,,198988,18,2022-01-31_22h01.37.162,lexical_decision_task_DD_L3,2021.2.3,Win32,60.07449237,,,,,,,,,,,0.7343,1,,,,,,,,,,,,,,,,,,,,,,,,,0.692127505,-0.009215923,0,0,0,,,,,,,WHISKY,HB,z,m,./images/WHISKYHB.png,,,,,,,z,1,0.7343,,,,,,,,0,139,139,167,1
,,,,,,,,,,,,,,,,,198988,18,2022-01-31_22h01.37.162,lexical_decision_task_DD_L3,2021.2.3,Win32,60.07449237,,,,,,,,,,,0.5923,1,,,,,,,,,,,,,,,,,,,,,,,,,0.692127505,-0.009215923,0,0,0,,,,,,,BRIDE,C,z,m,./images/BRIDE.png,,,,,,,z,1,0.5923,,,,,,,,0,140,140,148,1
,,,,,,,,,,,,,,,,,198988,18,2022-01-31_22h01.37.162,lexical_decision_task_DD_L3,2021.2.3,Win32,60.07449237,,,,,,,,,,,1.122,0,,,,,,,,,,,,,,,,,,,,,,,,,0.692127505,-0.009215923,0,0,0,,,,,,,PLANK,C,m,m,./images/PLANK.png,,,,,,,z,0,1.122,,,,,,,,0,141,141,1,1
,,,,,,,,,,,,,,,,,198988,18,2022-01-31_22h01.37.162,lexical_decision_task_DD_L3,2021.2.3,Win32,60.07449237,,,,,,,,,,,0.6774,1,,,,,,,,,,,,,,,,,,,,,,,,,0.692127505,-0.009215923,0,0,0,,,,,,,SNAKE,C,z,m,./images/SNAKE.png,,,,,,,z,1,0.6774,,,,,,,,0,142,142,124,1
,,,,,,,,,,,,,,,,,198988,18,2022-01-31_22h01.37.162,lexical_decision_task_DD_L3,2021.2.3,Win32,60.07449237,,,,,,,,,,,0.7008,1,,,,,,,,,,,,,,,,,,,,,,,,,0.692127505,-0.009215923,0,0,0,,,,,,,CLOWN,C,z,m,./images/CLOWN.png,,,,,,,z,1,0.7008,,,,,,,,0,143,143,106,1
,,,,,,,,,,,,,,,,,198988,18,2022-01-31_22h01.37.162,lexical_decision_task_DD_L3,2021.2.3,Win32,60.07449237,,,,,,,,,,,1.0965,0,,,,,,,,,,,,,,,,,,,,,,,,,0.692127505,-0.009215923,0,0,0,,,,,,,BASKET,HB,z,m,./images/BASKETHB.png,,,,,,,m,0,1.0965,,,,,,,,0,144,144,128,1
,,,,,,,,,,,,,,,,,198988,18,2022-01-31_22h01.37.162,lexical_decision_task_DD_L3,2021.2.3,Win32,60.07449237,,,,,,,,,,,0.6886,1,,,,,,,,,,,,,,,,,,,,,,,,,0.692127505,-0.009215923,0,0,0,,,,,,,PLANET,HB,z,m,./images/PLANETHB.png,,,,,,,z,1,0.6886,,,,,,,,0,145,145,164,1
,,,,,,,,,,,,,,,,,198988,18,2022-01-31_22h01.37.162,lexical_decision_task_DD_L3,2021.2.3,Win32,60.07449237,,,,,,,,,,,1.7858,1,,,,,,,,,,,,,,,,,,,,,,,,,0.692127505,-0.009215923,0,0,0,,,,,,,CLOTH,HB,z,m,./images/CLOTHHB.png,,,,,,,z,1,1.7858,,,,,,,,0,146,146,107,1
,,,,,,,,,,,,,,,,,198988,18,2022-01-31_22h01.37.162,lexical_decision_task_DD_L3,2021.2.3,Win32,60.07449237,,,,,,,,,,,0.9775,1,,,,,,,,,,,,,,,,,,,,,,,,,0.692127505,-0.009215923,0,0,0,,,,,,,MIDGET,C,z,m,./images/MIDGET.png,,,,,,,z,1,0.9775,,,,,,,,0,147,147,160,1
,,,,,,,,,,,,,,,,,198988,18,2022-01-31_22h01.37.162,lexical_decision_task_DD_L3,2021.2.3,Win32,60.07449237,,,,,,,,,,,1.5899,0,,,,,,,,,,,,,,,,,,,,,,,,,0.692127505,-0.009215923,0,0,0,,,,,,,QUILL,C,m,m,./images/QUILL.png,,,,,,,z,0,1.5899,,,,,,,,0,148,148,31,1
,,,,,,,,,,,,,,,,,198988,18,2022-01-31_22h01.37.162,lexical_decision_task_DD_L3,2021.2.3,Win32,60.07449237,,,,,,,,,,,0.6998,1,,,,,,,,,,,,,,,,,,,,,,,,,0.692127505,-0.009215923,0,0,0,,,,,,,WAGON,C,z,m,./images/WAGON.png,,,,,,,z,1,0.6998,,,,,,,,0,149,149,91,1
,,,,,,,,,,,,,,,,,198988,18,2022-01-31_22h01.37.162,lexical_decision_task_DD_L3,2021.2.3,Win32,60.07449237,,,,,,,,,,,0.6878,1,,,,,,,,,,,,,,,,,,,,,,,,,0.692127505,-0.009215923,0,0,0,,,,,,,PISTOL,HB,z,m,./images/PISTOLHB.png,,,,,,,z,1,0.6878,,,,,,,,0,150,150,113,1
,,,,,,,,,,,,,,,,,198988,18,2022-01-31_22h01.37.162,lexical_decision_task_DD_L3,2021.2.3,Win32,60.07449237,,,,,,,,,,,2.1172,1,,,,,,,,,,,,,,,,,,,,,,,,,0.692127505,-0.009215923,0,0,0,,,,,,,POKER,C,z,m,./images/POKER.png,,,,,,,z,1,2.1172,,,,,,,,0,151,151,151,1
,,,,,,,,,,,,,,,,,198988,18,2022-01-31_22h01.37.162,lexical_decision_task_DD_L3,2021.2.3,Win32,60.07449237,,,,,,,,,,,1.0574,1,,,,,,,,,,,,,,,,,,,,,,,,,0.692127505,-0.009215923,0,0,0,,,,,,,ALLEY,C,z,m,./images/ALLEY.png,,,,,,,z,1,1.0574,,,,,,,,0,152,152,139,1
,,,,,,,,,,,,,,,,,198988,18,2022-01-31_22h01.37.162,lexical_decision_task_DD_L3,2021.2.3,Win32,60.07449237,,,,,,,,,,,0.72,1,,,,,,,,,,,,,,,,,,,,,,,,,0.692127505,-0.009215923,0,0,0,,,,,,,RAZOR,C,z,m,./images/RAZOR.png,,,,,,,z,1,0.72,,,,,,,,0,153,153,118,1
,,,,,,,,,,,,,,,,,198988,18,2022-01-31_22h01.37.162,lexical_decision_task_DD_L3,2021.2.3,Win32,60.07449237,,,,,,,,,,,3.334,0,,,,,,,,,,,,,,,,,,,,,,,,,0.692127505,-0.009215923,0,0,0,,,,,,,INFANT,C,m,m,./images/INFANT.png,,,,,,,z,0,3.334,,,,,,,,0,154,154,76,1
,,,,,,,,,,,,,,,,,198988,18,2022-01-31_22h01.37.162,lexical_decision_task_DD_L3,2021.2.3,Win32,60.07449237,,,,,,,,,,,0.8505,0,,,,,,,,,,,,,,,,,,,,,,,,,0.692127505,-0.009215923,0,0,0,,,,,,,PURSE,HB,m,m,./images/PURSEHB.png,,,,,,,z,0,0.8505,,,,,,,,0,155,155,62,1
,,,,,,,,,,,,,,,,,198988,18,2022-01-31_22h01.37.162,lexical_decision_task_DD_L3,2021.2.3,Win32,60.07449237,,,,,,,,,,,0.934,0,,,,,,,,,,,,,,,,,,,,,,,,,0.692127505,-0.009215923,0,0,0,,,,,,,JELLY,C,m,m,./images/JELLY.png,,,,,,,z,0,0.934,,,,,,,,0,156,156,64,1
,,,,,,,,,,,,,,,,,198988,18,2022-01-31_22h01.37.162,lexical_decision_task_DD_L3,2021.2.3,Win32,60.07449237,,,,,,,,,,,2.2172,0,,,,,,,,,,,,,,,,,,,,,,,,,0.692127505,-0.009215923,0,0,0,,,,,,,MUSCLE,C,m,m,./images/MUSCLE.png,,,,,,,z,0,2.2172,,,,,,,,0,157,157,4,1
,,,,,,,,,,,,,,,,,198988,18,2022-01-31_22h01.37.162,lexical_decision_task_DD_L3,2021.2.3,Win32,60.07449237,,,,,,,,,,,0.9257,1,,,,,,,,,,,,,,,,,,,,,,,,,0.692127505,-0.009215923,0,0,0,,,,,,,CASINO,C,z,m,./images/CASINO.png,,,,,,,z,1,0.9257,,,,,,,,0,158,158,112,1
,,,,,,,,,,,,,,,,,198988,18,2022-01-31_22h01.37.162,lexical_decision_task_DD_L3,2021.2.3,Win32,60.07449237,,,,,,,,,,,1.0175,1,,,,,,,,,,,,,,,,,,,,,,,,,0.692127505,-0.009215923,0,0,0,,,,,,,SQUARE,LB,m,m,./images/SQUARELB.png,,,,,,,m,1,1.0175,,,,,,,,0,159,159,6,1
,,,,,,,,,,,,,,,,,198988,18,2022-01-31_22h01.37.162,lexical_decision_task_DD_L3,2021.2.3,Win32,60.07449237,,,,,,,,,,,0.7237,1,,,,,,,,,,,,,,,,,,,,,,,,,0.692127505,-0.009215923,0,0,0,,,,,,,CLOUD,HB,z,m,./images/CLOUDHB.png,,,,,,,z,1,0.7237,,,,,,,,0,160,160,110,1
,,,,,,,,,,,,,,,,,198988,18,2022-01-31_22h01.37.162,lexical_decision_task_DD_L3,2021.2.3,Win32,60.07449237,,,,,,,,,,,0.9558,0,,,,,,,,,,,,,,,,,,,,,,,,,0.692127505,-0.009215923,0,0,0,,,,,,,DOUGH,C,m,m,./images/DOUGH.png,,,,,,,z,0,0.9558,,,,,,,,0,161,161,19,1
,,,,,,,,,,,,,,,,,198988,18,2022-01-31_22h01.37.162,lexical_decision_task_DD_L3,2021.2.3,Win32,60.07449237,,,,,,,,,,,1.3672,1,,,,,,,,,,,,,,,,,,,,,,,,,0.692127505,-0.009215923,0,0,0,,,,,,,BANNER,C,m,m,./images/BANNER.png,,,,,,,m,1,1.3672,,,,,,,,0,162,162,52,1
,,,,,,,,,,,,,,,,,198988,18,2022-01-31_22h01.37.162,lexical_decision_task_DD_L3,2021.2.3,Win32,60.07449237,,,,,,,,,,,2.2674,1,,,,,,,,,,,,,,,,,,,,,,,,,0.692127505,-0.009215923,0,0,0,,,,,,,PILOT,HB,z,m,./images/PILOTHB.png,,,,,,,z,1,2.2674,,,,,,,,0,163,163,134,1
,,,,,,,,,,,,,,,,,198988,18,2022-01-31_22h01.37.162,lexical_decision_task_DD_L3,2021.2.3,Win32,60.07449237,,,,,,,,,,,1.0843,1,,,,,,,,,,,,,,,,,,,,,,,,,0.692127505,-0.009215923,0,0,0,,,,,,,FENCE,HB,z,m,./images/FENCEHB.png,,,,,,,z,1,1.0843,,,,,,,,0,164,164,98,1
,,,,,,,,,,,,,,,,,198988,18,2022-01-31_22h01.37.162,lexical_decision_task_DD_L3,2021.2.3,Win32,60.07449237,,,,,,,,,,,1.0172,1,,,,,,,,,,,,,,,,,,,,,,,,,0.692127505,-0.009215923,0,0,0,,,,,,,COOKER,LB,m,m,./images/COOKERLB.png,,,,,,,m,1,1.0172,,,,,,,,0,165,165,69,1
,,,,,,,,,,,,,,,,,198988,18,2022-01-31_22h01.37.162,lexical_decision_task_DD_L3,2021.2.3,Win32,60.07449237,,,,,,,,,,,1.8674,1,,,,,,,,,,,,,,,,,,,,,,,,,0.692127505,-0.009215923,0,0,0,,,,,,,CRADLE,HB,m,m,./images/CRADLEHB.png,,,,,,,m,1,1.8674,,,,,,,,0,166,166,20,1
,,,,,,,,,,,,,,,,,198988,18,2022-01-31_22h01.37.162,lexical_decision_task_DD_L3,2021.2.3,Win32,60.07449237,,,,,,,,,,,1.3567,0,,,,,,,,,,,,,,,,,,,,,,,,,0.692127505,-0.009215923,0,0,0,,,,,,,SUNSET,C,m,m,./images/SUNSET.png,,,,,,,z,0,1.3567,,,,,,,,0,167,167,82,1
