key_resp.keys,key_resp.rt,instr_done_touch.x,instr_done_touch.y,instr_done_touch.leftButton,instr_done_touch.midButton,instr_done_touch.rightButton,instruction_pages.thisRepN,instruction_pages.thisTrialN,instruction_pages.thisN,instruction_pages.thisIndex,instruction_pages.ran,pageN,phase,instruct_text,has_image,instruct_image,participant,age,date,expName,psychopyVersion,OS,frameRate,response.keys,response.corr,response.rt,touch_resp.x,touch_resp.y,touch_resp.leftButton,touch_resp.midButton,touch_resp.rightButton,touch_resp.time,touch_resp.clicked_name,rt,corr,practrials.thisRepN,practrials.thisTrialN,practrials.thisN,practrials.thisIndex,practrials.ran,TrialID,Target,corrAns,end_of_practice_trials_pages.thisRepN,end_of_practice_trials_pages.thisTrialN,end_of_practice_trials_pages.thisN,end_of_practice_trials_pages.thisIndex,end_of_practice_trials_pages.ran,key_resp_2.keys,key_resp_2.corr,key_resp_2.rt,targ_click.x,targ_click.y,targ_click.leftButton,targ_click.midButton,targ_click.rightButton,targ_click.time,targ_click.clicked_name,break_done_touch.x,break_done_touch.y,break_done_touch.leftButton,break_done_touch.midButton,break_done_touch.rightButton,break_done_keyboard.keys,maintrials.thisRepN,maintrials.thisTrialN,maintrials.thisN,maintrials.thisIndex,maintrials.ran,string,blur,study,lex,stim_path,break_done_keyboard.rt,instr_done_touch.clicked_name,test_instructions.thisRepN,test_instructions.thisTrialN,test_instructions.thisN,test_instructions.thisIndex,test_instructions.ran,key_resp_3.keys,key_resp_3.corr,key_resp_3.rt,test_click.x,test_click.y,test_click.leftButton,test_click.midButton,test_click.rightButton,test_click.time,test_click.clicked_name,test_phase.thisRepN,test_phase.thisTrialN,test_phase.thisN,test_phase.thisIndex,test_phase.ran
space,28.738,-0.184444444,-0.052222222,0,0,0,0,0,0,0,1,1,instructions,"INSTRUCTIONS
At the start of each trial, look at the plus sign  (+) in the center of the screen.  This tells you that a trial is about to begin and where to look. Second, the plus sign will disappear and a string of letters will appear. Your task is to determine if the string of letters is a word or not. If the item is a word press the M key (on keyboard)  or touch the word button (phone/tablet).  If the item is not a word,  press the  Z key (on keyboard)  or touch the nonword button (on phone/tablet). 
Press the space bar or touch  continue.",0,,198991,18,2022-01-28_23h25.20.700,lexical_decision_task_DD,2021.2.3,MacIntel,58.82352941,,,,,,,,,,,,,,,,,,,,,,,,,,,,,,,,,,,,,,,,,,,,,,,,,,,,,,,,,,,,,,,,,,,,,,,,,
space,5.821,-0.184444444,-0.052222222,0,0,0,0,1,1,1,1,2,instructions,"If your device has a keyboard, press the 'Z' key for nonwords and the 'M' key for words.





Press the space bar or touch the button below to continue.",0,keyboard-example.gif,198991,18,2022-01-28_23h25.20.700,lexical_decision_task_DD,2021.2.3,MacIntel,58.82352941,,,,,,,,,,,,,,,,,,,,,,,,,,,,,,,,,,,,,,,,,,,,,,,,,,,,,,,,,,,,,,,,,,,,,,,,,
space,5.138,-0.184444444,-0.052222222,0,0,0,0,2,2,2,1,3,instructions,"If you are using a touchscreen only device, use the buttons on the screen. Do not use the mouse.





Press the space bar or touch the button below to continue.",0,touchscreen-example.gif,198991,18,2022-01-28_23h25.20.700,lexical_decision_task_DD,2021.2.3,MacIntel,58.82352941,,,,,,,,,,,,,,,,,,,,,,,,,,,,,,,,,,,,,,,,,,,,,,,,,,,,,,,,,,,,,,,,,,,,,,,,,
space,4.274,-0.184444444,-0.052222222,0,0,0,0,3,3,3,1,4,instructions,"It is very important that you respond as quickly and accurately as possible, as each letter string will only be on the screen for two seconds. If you do not respond within this time, the message 'Too slow!' will be displayed and the experiment will progress to the next letter string. The first 20 trials will be practice trials and you will receive feedback on your answers. 

Press the space bar or touch the button below to start the practice trials.",0,,198991,18,2022-01-28_23h25.20.700,lexical_decision_task_DD,2021.2.3,MacIntel,58.82352941,,,,,,,,,,,,,,,,,,,,,,,,,,,,,,,,,,,,,,,,,,,,,,,,,,,,,,,,,,,,,,,,,,,,,,,,,
,,,,,,,,,,,,,,,,,198991,18,2022-01-28_23h25.20.700,lexical_decision_task_DD,2021.2.3,MacIntel,58.82352941,m,1,2.806,,,,,,,,2.806,1,0,0,0,5,1,1001,OBTAIN,m,,,,,,,,,,,,,,,,,,,,,,,,,,,,,,,,,,,,,,,,,,,,,,,,,,,,,
,,,,,,,,,,,,,,,,,198991,18,2022-01-28_23h25.20.700,lexical_decision_task_DD,2021.2.3,MacIntel,58.82352941,z,1,1.686,,,,,,,,1.686,1,0,1,1,9,1,1001,FARINY,z,,,,,,,,,,,,,,,,,,,,,,,,,,,,,,,,,,,,,,,,,,,,,,,,,,,,,
,,,,,,,,,,,,,,,,,198991,18,2022-01-28_23h25.20.700,lexical_decision_task_DD,2021.2.3,MacIntel,58.82352941,m,1,0.802,,,,,,,,0.802,1,0,2,2,4,1,1001,SQUEAK,m,,,,,,,,,,,,,,,,,,,,,,,,,,,,,,,,,,,,,,,,,,,,,,,,,,,,,
,,,,,,,,,,,,,,,,,198991,18,2022-01-28_23h25.20.700,lexical_decision_task_DD,2021.2.3,MacIntel,58.82352941,z,1,0.96,,,,,,,,0.96,1,0,3,3,10,1,1001,INLADE,z,,,,,,,,,,,,,,,,,,,,,,,,,,,,,,,,,,,,,,,,,,,,,,,,,,,,,
,,,,,,,,,,,,,,,,,198991,18,2022-01-28_23h25.20.700,lexical_decision_task_DD,2021.2.3,MacIntel,58.82352941,z,1,0.841,,,,,,,,0.841,1,0,4,4,15,1,1001,WHAISE,z,,,,,,,,,,,,,,,,,,,,,,,,,,,,,,,,,,,,,,,,,,,,,,,,,,,,,
,,,,,,,,,,,,,,,,,198991,18,2022-01-28_23h25.20.700,lexical_decision_task_DD,2021.2.3,MacIntel,58.82352941,z,1,0.822,,,,,,,,0.822,1,0,5,5,12,1,1001,SPRINY,z,,,,,,,,,,,,,,,,,,,,,,,,,,,,,,,,,,,,,,,,,,,,,,,,,,,,,
,,,,,,,,,,,,,,,,,198991,18,2022-01-28_23h25.20.700,lexical_decision_task_DD,2021.2.3,MacIntel,58.82352941,z,1,0.843,,,,,,,,0.843,1,0,6,6,8,1,1001,ASLERT,z,,,,,,,,,,,,,,,,,,,,,,,,,,,,,,,,,,,,,,,,,,,,,,,,,,,,,
,,,,,,,,,,,,,,,,,198991,18,2022-01-28_23h25.20.700,lexical_decision_task_DD,2021.2.3,MacIntel,58.82352941,m,1,0.81,,,,,,,,0.81,1,0,7,7,2,1,1001,ALMOND,m,,,,,,,,,,,,,,,,,,,,,,,,,,,,,,,,,,,,,,,,,,,,,,,,,,,,,
,,,,,,,,,,,,,,,,,198991,18,2022-01-28_23h25.20.700,lexical_decision_task_DD,2021.2.3,MacIntel,58.82352941,m,1,1.175,,,,,,,,1.175,1,0,8,8,1,1,1001,ADJUST,m,,,,,,,,,,,,,,,,,,,,,,,,,,,,,,,,,,,,,,,,,,,,,,,,,,,,,
,,,,,,,,,,,,,,,,,198991,18,2022-01-28_23h25.20.700,lexical_decision_task_DD,2021.2.3,MacIntel,58.82352941,z,1,0.729,,,,,,,,0.729,1,0,9,9,14,1,1001,THRALE,z,,,,,,,,,,,,,,,,,,,,,,,,,,,,,,,,,,,,,,,,,,,,,,,,,,,,,
,,,,,,,,,,,,,,,,,198991,18,2022-01-28_23h25.20.700,lexical_decision_task_DD,2021.2.3,MacIntel,58.82352941,z,1,0.717,,,,,,,,0.717,1,0,10,10,13,1,1001,ROUPET,z,,,,,,,,,,,,,,,,,,,,,,,,,,,,,,,,,,,,,,,,,,,,,,,,,,,,,
,,,,,,,,,,,,,,,,,198991,18,2022-01-28_23h25.20.700,lexical_decision_task_DD,2021.2.3,MacIntel,58.82352941,m,0,0.698,,,,,,,,0.698,0,0,11,11,11,1,1001,RASHET,z,,,,,,,,,,,,,,,,,,,,,,,,,,,,,,,,,,,,,,,,,,,,,,,,,,,,,
,,,,,,,,,,,,,,,,,198991,18,2022-01-28_23h25.20.700,lexical_decision_task_DD,2021.2.3,MacIntel,58.82352941,m,1,0.975,,,,,,,,0.975,1,0,12,12,3,1,1001,MATRIX,m,,,,,,,,,,,,,,,,,,,,,,,,,,,,,,,,,,,,,,,,,,,,,,,,,,,,,
,,,,,,,,,,,,,,,,,198991,18,2022-01-28_23h25.20.700,lexical_decision_task_DD,2021.2.3,MacIntel,58.82352941,m,1,0.588,,,,,,,,0.588,1,0,13,13,0,1,1001,UTOPIA,m,,,,,,,,,,,,,,,,,,,,,,,,,,,,,,,,,,,,,,,,,,,,,,,,,,,,,
,,,,,,,,,,,,,,,,,198991,18,2022-01-28_23h25.20.700,lexical_decision_task_DD,2021.2.3,MacIntel,58.82352941,m,1,0.522,,,,,,,,0.522,1,0,14,14,6,1,1001,ZOMBIE,m,,,,,,,,,,,,,,,,,,,,,,,,,,,,,,,,,,,,,,,,,,,,,,,,,,,,,
,,,,,,,,,,,,,,,,,198991,18,2022-01-28_23h25.20.700,lexical_decision_task_DD,2021.2.3,MacIntel,58.82352941,m,1,0.543,,,,,,,,0.543,1,0,15,15,7,1,1001,VOLUME,m,,,,,,,,,,,,,,,,,,,,,,,,,,,,,,,,,,,,,,,,,,,,,,,,,,,,,
space,14.398,-0.083333333,-0.396666667,0,0,0,,,,,,1,end_of_practice,"You have completed the practice trials. During the experimental trials, you will not receive feedback. 
Before you begin, please ensure that you are in a comfortable and quiet location and will not be disturbed for about 15 minutes, as we cannot use your data if you do not complete all the trials. 
 When you are ready to start the experimental trials, please press space or touch the button below.",,,198991,18,2022-01-28_23h25.20.700,lexical_decision_task_DD,2021.2.3,MacIntel,58.82352941,,,,,,,,,,,,,,,,,,,,,0,0,0,0,1,,,,,,,,,,,,,,,,,,,,,,,,,,,,,,,,,,,,,,,,,,,,,,,,
,,,,,,,,,,,,,,,,,198991,18,2022-01-28_23h25.20.700,lexical_decision_task_DD,2021.2.3,MacIntel,58.82352941,,,,,,,,,,,1.918,1,,,,,,,,,,,,,,m,1,1.918,,,,,,,,-0.083333333,-0.396666667,0,0,0,,0,0,0,35,1,PEACH,LB,old,m,./images/PEACHLB.png,,,,,,,,,,,,,,,,,,,,,,
,,,,,,,,,,,,,,,,,198991,18,2022-01-28_23h25.20.700,lexical_decision_task_DD,2021.2.3,MacIntel,58.82352941,,,,,,,,,,,0.809,1,,,,,,,,,,,,,,z,1,0.809,,,,,,,,-0.083333333,-0.396666667,0,0,0,,0,1,1,143,1,MONGS,LB,old,z,./images/MONGSLB.png,,,,,,,,,,,,,,,,,,,,,,
,,,,,,,,,,,,,,,,,198991,18,2022-01-28_23h25.20.700,lexical_decision_task_DD,2021.2.3,MacIntel,58.82352941,,,,,,,,,,,0.721,1,,,,,,,,,,,,,,m,1,0.721,,,,,,,,-0.083333333,-0.396666667,0,0,0,,0,2,2,69,1,COOKER,C,old,m,./images/COOKER.png,,,,,,,,,,,,,,,,,,,,,,
,,,,,,,,,,,,,,,,,198991,18,2022-01-28_23h25.20.700,lexical_decision_task_DD,2021.2.3,MacIntel,58.82352941,,,,,,,,,,,0.607,1,,,,,,,,,,,,,,m,1,0.607,,,,,,,,-0.083333333,-0.396666667,0,0,0,,0,3,3,62,1,PURSE,LB,old,m,./images/PURSELB.png,,,,,,,,,,,,,,,,,,,,,,
,,,,,,,,,,,,,,,,,198991,18,2022-01-28_23h25.20.700,lexical_decision_task_DD,2021.2.3,MacIntel,58.82352941,,,,,,,,,,,0.689,1,,,,,,,,,,,,,,z,1,0.689,,,,,,,,-0.083333333,-0.396666667,0,0,0,,0,4,4,111,1,HOSSE,C,old,z,./images/HOSSE.png,,,,,,,,,,,,,,,,,,,,,,
,,,,,,,,,,,,,,,,,198991,18,2022-01-28_23h25.20.700,lexical_decision_task_DD,2021.2.3,MacIntel,58.82352941,,,,,,,,,,,0.81,1,,,,,,,,,,,,,,m,1,0.81,,,,,,,,-0.083333333,-0.396666667,0,0,0,,0,5,5,83,1,JUNGLE,LB,old,m,./images/JUNGLELB.png,,,,,,,,,,,,,,,,,,,,,,
,,,,,,,,,,,,,,,,,198991,18,2022-01-28_23h25.20.700,lexical_decision_task_DD,2021.2.3,MacIntel,58.82352941,,,,,,,,,,,0.822,1,,,,,,,,,,,,,,z,1,0.822,,,,,,,,-0.083333333,-0.396666667,0,0,0,,0,6,6,87,1,TRING,C,old,z,./images/TRING.png,,,,,,,,,,,,,,,,,,,,,,
,,,,,,,,,,,,,,,,,198991,18,2022-01-28_23h25.20.700,lexical_decision_task_DD,2021.2.3,MacIntel,58.82352941,,,,,,,,,,,0.629,1,,,,,,,,,,,,,,m,1,0.629,,,,,,,,-0.083333333,-0.396666667,0,0,0,,0,7,7,26,1,SMOKER,LB,old,m,./images/SMOKERLB.png,,,,,,,,,,,,,,,,,,,,,,
,,,,,,,,,,,,,,,,,198991,18,2022-01-28_23h25.20.700,lexical_decision_task_DD,2021.2.3,MacIntel,58.82352941,,,,,,,,,,,0.93,0,,,,,,,,,,,,,,m,0,0.93,,,,,,,,-0.083333333,-0.396666667,0,0,0,,0,8,8,114,1,RIKES,C,old,z,./images/RIKES.png,,,,,,,,,,,,,,,,,,,,,,
,,,,,,,,,,,,,,,,,198991,18,2022-01-28_23h25.20.700,lexical_decision_task_DD,2021.2.3,MacIntel,58.82352941,,,,,,,,,,,1.354,1,,,,,,,,,,,,,,z,1,1.354,,,,,,,,-0.083333333,-0.396666667,0,0,0,,0,9,9,124,1,TUNCH,HB,old,z,./images/TUNCHHB.png,,,,,,,,,,,,,,,,,,,,,,
,,,,,,,,,,,,,,,,,198991,18,2022-01-28_23h25.20.700,lexical_decision_task_DD,2021.2.3,MacIntel,58.82352941,,,,,,,,,,,1.009,0,,,,,,,,,,,,,,m,0,1.009,,,,,,,,-0.083333333,-0.396666667,0,0,0,,0,10,10,109,1,BURGE,HB,old,z,./images/BURGEHB.png,,,,,,,,,,,,,,,,,,,,,,
,,,,,,,,,,,,,,,,,198991,18,2022-01-28_23h25.20.700,lexical_decision_task_DD,2021.2.3,MacIntel,58.82352941,,,,,,,,,,,1.318,0,,,,,,,,,,,,,,m,0,1.318,,,,,,,,-0.083333333,-0.396666667,0,0,0,,0,11,11,142,1,PLASK,HB,old,z,./images/PLASKHB.png,,,,,,,,,,,,,,,,,,,,,,
,,,,,,,,,,,,,,,,,198991,18,2022-01-28_23h25.20.700,lexical_decision_task_DD,2021.2.3,MacIntel,58.82352941,,,,,,,,,,,0.93,1,,,,,,,,,,,,,,m,1,0.93,,,,,,,,-0.083333333,-0.396666667,0,0,0,,0,12,12,71,1,PIMPLE,LB,old,m,./images/PIMPLELB.png,,,,,,,,,,,,,,,,,,,,,,
,,,,,,,,,,,,,,,,,198991,18,2022-01-28_23h25.20.700,lexical_decision_task_DD,2021.2.3,MacIntel,58.82352941,,,,,,,,,,,0.578,1,,,,,,,,,,,,,,m,1,0.578,,,,,,,,-0.083333333,-0.396666667,0,0,0,,0,13,13,68,1,TORCH,LB,old,m,./images/TORCHLB.png,,,,,,,,,,,,,,,,,,,,,,
,,,,,,,,,,,,,,,,,198991,18,2022-01-28_23h25.20.700,lexical_decision_task_DD,2021.2.3,MacIntel,58.82352941,,,,,,,,,,,0.896,1,,,,,,,,,,,,,,z,1,0.896,,,,,,,,-0.083333333,-0.396666667,0,0,0,,0,14,14,147,1,ZOLES,C,old,z,./images/ZOLES.png,,,,,,,,,,,,,,,,,,,,,,
,,,,,,,,,,,,,,,,,198991,18,2022-01-28_23h25.20.700,lexical_decision_task_DD,2021.2.3,MacIntel,58.82352941,,,,,,,,,,,0.786,1,,,,,,,,,,,,,,m,1,0.786,,,,,,,,-0.083333333,-0.396666667,0,0,0,,0,15,15,10,1,BELLY,HB,old,m,./images/BELLYHB.png,,,,,,,,,,,,,,,,,,,,,,
,,,,,,,,,,,,,,,,,198991,18,2022-01-28_23h25.20.700,lexical_decision_task_DD,2021.2.3,MacIntel,58.82352941,,,,,,,,,,,0.795,1,,,,,,,,,,,,,,z,1,0.795,,,,,,,,-0.083333333,-0.396666667,0,0,0,,0,16,16,164,1,SGREW,LB,old,z,./images/SGREWLB.png,,,,,,,,,,,,,,,,,,,,,,
,,,,,,,,,,,,,,,,,198991,18,2022-01-28_23h25.20.700,lexical_decision_task_DD,2021.2.3,MacIntel,58.82352941,,,,,,,,,,,0.996,1,,,,,,,,,,,,,,m,1,0.996,,,,,,,,-0.083333333,-0.396666667,0,0,0,,0,17,17,49,1,DRUMS,HB,old,m,./images/DRUMSHB.png,,,,,,,,,,,,,,,,,,,,,,
,,,,,,,,,,,,,,,,,198991,18,2022-01-28_23h25.20.700,lexical_decision_task_DD,2021.2.3,MacIntel,58.82352941,,,,,,,,,,,0.696,1,,,,,,,,,,,,,,m,1,0.696,,,,,,,,-0.083333333,-0.396666667,0,0,0,,0,18,18,78,1,LITTER,C,old,m,./images/LITTER.png,,,,,,,,,,,,,,,,,,,,,,
,,,,,,,,,,,,,,,,,198991,18,2022-01-28_23h25.20.700,lexical_decision_task_DD,2021.2.3,MacIntel,58.82352941,,,,,,,,,,,3.733,1,,,,,,,,,,,,,,z,1,3.733,,,,,,,,-0.083333333,-0.396666667,0,0,0,,0,19,19,100,1,DRIBS,HB,old,z,./images/DRIBSHB.png,,,,,,,,,,,,,,,,,,,,,,
,,,,,,,,,,,,,,,,,198991,18,2022-01-28_23h25.20.700,lexical_decision_task_DD,2021.2.3,MacIntel,58.82352941,,,,,,,,,,,1.453,0,,,,,,,,,,,,,,m,0,1.453,,,,,,,,-0.083333333,-0.396666667,0,0,0,,0,20,20,115,1,MAWNS,HB,old,z,./images/MAWNSHB.png,,,,,,,,,,,,,,,,,,,,,,
,,,,,,,,,,,,,,,,,198991,18,2022-01-28_23h25.20.700,lexical_decision_task_DD,2021.2.3,MacIntel,58.82352941,,,,,,,,,,,0.757,1,,,,,,,,,,,,,,z,1,0.757,,,,,,,,-0.083333333,-0.396666667,0,0,0,,0,21,21,123,1,SEDGE,C,old,z,./images/SEDGE.png,,,,,,,,,,,,,,,,,,,,,,
,,,,,,,,,,,,,,,,,198991,18,2022-01-28_23h25.20.700,lexical_decision_task_DD,2021.2.3,MacIntel,58.82352941,,,,,,,,,,,1.061,1,,,,,,,,,,,,,,z,1,1.061,,,,,,,,-0.083333333,-0.396666667,0,0,0,,0,22,22,146,1,MOOST,LB,old,z,./images/MOOSTLB.png,,,,,,,,,,,,,,,,,,,,,,
,,,,,,,,,,,,,,,,,198991,18,2022-01-28_23h25.20.700,lexical_decision_task_DD,2021.2.3,MacIntel,58.82352941,,,,,,,,,,,1.438,0,,,,,,,,,,,,,,m,0,1.438,,,,,,,,-0.083333333,-0.396666667,0,0,0,,0,23,23,134,1,TROSS,LB,old,z,./images/TROSSLB.png,,,,,,,,,,,,,,,,,,,,,,
,,,,,,,,,,,,,,,,,198991,18,2022-01-28_23h25.20.700,lexical_decision_task_DD,2021.2.3,MacIntel,58.82352941,,,,,,,,,,,0.875,1,,,,,,,,,,,,,,m,1,0.875,,,,,,,,-0.083333333,-0.396666667,0,0,0,,0,24,24,5,1,PASTA,LB,old,m,./images/PASTALB.png,,,,,,,,,,,,,,,,,,,,,,
,,,,,,,,,,,,,,,,,198991,18,2022-01-28_23h25.20.700,lexical_decision_task_DD,2021.2.3,MacIntel,58.82352941,,,,,,,,,,,1.015,1,,,,,,,,,,,,,,m,1,1.015,,,,,,,,-0.083333333,-0.396666667,0,0,0,,0,25,25,37,1,BIRTH,HB,old,m,./images/BIRTHHB.png,,,,,,,,,,,,,,,,,,,,,,
,,,,,,,,,,,,,,,,,198991,18,2022-01-28_23h25.20.700,lexical_decision_task_DD,2021.2.3,MacIntel,58.82352941,,,,,,,,,,,0.757,1,,,,,,,,,,,,,,z,1,0.757,,,,,,,,-0.083333333,-0.396666667,0,0,0,,0,26,26,138,1,PLICE,C,old,z,./images/PLICE.png,,,,,,,,,,,,,,,,,,,,,,
,,,,,,,,,,,,,,,,,198991,18,2022-01-28_23h25.20.700,lexical_decision_task_DD,2021.2.3,MacIntel,58.82352941,,,,,,,,,,,1.45,1,,,,,,,,,,,,,,m,1,1.45,,,,,,,,-0.083333333,-0.396666667,0,0,0,,0,27,27,17,1,SKIING,LB,old,m,./images/SKIINGLB.png,,,,,,,,,,,,,,,,,,,,,,
,,,,,,,,,,,,,,,,,198991,18,2022-01-28_23h25.20.700,lexical_decision_task_DD,2021.2.3,MacIntel,58.82352941,,,,,,,,,,,0.81,1,,,,,,,,,,,,,,m,1,0.81,,,,,,,,-0.083333333,-0.396666667,0,0,0,,0,28,28,42,1,FOLDER,C,old,m,./images/FOLDER.png,,,,,,,,,,,,,,,,,,,,,,
,,,,,,,,,,,,,,,,,198991,18,2022-01-28_23h25.20.700,lexical_decision_task_DD,2021.2.3,MacIntel,58.82352941,,,,,,,,,,,0.612,1,,,,,,,,,,,,,,m,1,0.612,,,,,,,,-0.083333333,-0.396666667,0,0,0,,0,29,29,39,1,SHELF,C,old,m,./images/SHELF.png,,,,,,,,,,,,,,,,,,,,,,
,,,,,,,,,,,,,,,,,198991,18,2022-01-28_23h25.20.700,lexical_decision_task_DD,2021.2.3,MacIntel,58.82352941,,,,,,,,,,,1.402,1,,,,,,,,,,,,,,z,1,1.402,,,,,,,,-0.083333333,-0.396666667,0,0,0,,0,30,30,136,1,WERVE,HB,old,z,./images/WERVEHB.png,,,,,,,,,,,,,,,,,,,,,,
,,,,,,,,,,,,,,,,,198991,18,2022-01-28_23h25.20.700,lexical_decision_task_DD,2021.2.3,MacIntel,58.82352941,,,,,,,,,,,1.048,1,,,,,,,,,,,,,,m,1,1.048,,,,,,,,-0.083333333,-0.396666667,0,0,0,,0,31,31,12,1,SHORE,C,old,m,./images/SHORE.png,,,,,,,,,,,,,,,,,,,,,,
,,,,,,,,,,,,,,,,,198991,18,2022-01-28_23h25.20.700,lexical_decision_task_DD,2021.2.3,MacIntel,58.82352941,,,,,,,,,,,2.369,0,,,,,,,,,,,,,,m,0,2.369,,,,,,,,-0.083333333,-0.396666667,0,0,0,,0,32,32,151,1,TINKY,HB,old,z,./images/TINKYHB.png,,,,,,,,,,,,,,,,,,,,,,
,,,,,,,,,,,,,,,,,198991,18,2022-01-28_23h25.20.700,lexical_decision_task_DD,2021.2.3,MacIntel,58.82352941,,,,,,,,,,,0.829,0,,,,,,,,,,,,,,m,0,0.829,,,,,,,,-0.083333333,-0.396666667,0,0,0,,0,33,33,110,1,CRUNK,LB,old,z,./images/CRUNKLB.png,,,,,,,,,,,,,,,,,,,,,,
,,,,,,,,,,,,,,,,,198991,18,2022-01-28_23h25.20.700,lexical_decision_task_DD,2021.2.3,MacIntel,58.82352941,,,,,,,,,,,0.51,0,,,,,,,,,,,,,,m,0,0.51,,,,,,,,-0.083333333,-0.396666667,0,0,0,,0,34,34,128,1,GRIFT,LB,old,z,./images/GRIFTLB.png,,,,,,,,,,,,,,,,,,,,,,
,,,,,,,,,,,,,,,,,198991,18,2022-01-28_23h25.20.700,lexical_decision_task_DD,2021.2.3,MacIntel,58.82352941,,,,,,,,,,,0.678,1,,,,,,,,,,,,,,m,1,0.678,,,,,,,,-0.083333333,-0.396666667,0,0,0,,0,35,35,44,1,LIZARD,LB,old,m,./images/LIZARDLB.png,,,,,,,,,,,,,,,,,,,,,,
,,,,,,,,,,,,,,,,,198991,18,2022-01-28_23h25.20.700,lexical_decision_task_DD,2021.2.3,MacIntel,58.82352941,,,,,,,,,,,1.436,1,,,,,,,,,,,,,,m,1,1.436,,,,,,,,-0.083333333,-0.396666667,0,0,0,,0,36,36,58,1,BABOON,HB,old,m,./images/BABOONHB.png,,,,,,,,,,,,,,,,,,,,,,
,,,,,,,,,,,,,,,,,198991,18,2022-01-28_23h25.20.700,lexical_decision_task_DD,2021.2.3,MacIntel,58.82352941,,,,,,,,,,,16.868,1,,,,,,,,,,,,,,z,1,16.868,,,,,,,,-0.083333333,-0.396666667,0,0,0,,0,37,37,88,1,GLUSH,HB,old,z,./images/GLUSHHB.png,,,,,,,,,,,,,,,,,,,,,,
,,,,,,,,,,,,,,,,,198991,18,2022-01-28_23h25.20.700,lexical_decision_task_DD,2021.2.3,MacIntel,58.82352941,,,,,,,,,,,1.696,0,,,,,,,,,,,,,,m,0,1.696,,,,,,,,-0.083333333,-0.396666667,0,0,0,,0,38,38,160,1,VEETS,HB,old,z,./images/VEETSHB.png,,,,,,,,,,,,,,,,,,,,,,
,,,,,,,,,,,,,,,,,198991,18,2022-01-28_23h25.20.700,lexical_decision_task_DD,2021.2.3,MacIntel,58.82352941,,,,,,,,,,,0.548,1,,,,,,,,,,,,,,m,1,0.548,,,,,,,,-0.083333333,-0.396666667,0,0,0,,0,39,39,21,1,KIDNEY,C,old,m,./images/KIDNEY.png,,,,,,,,,,,,,,,,,,,,,,
,,,,,,,,,,,,,,,,,198991,18,2022-01-28_23h25.20.700,lexical_decision_task_DD,2021.2.3,MacIntel,58.82352941,,,,,,,,,,,0.436,1,,,,,,,,,,,,,,m,1,0.436,,,,,,,,-0.083333333,-0.396666667,0,0,0,,0,40,40,11,1,BONNET,LB,old,m,./images/BONNETLB.png,,,,,,,,,,,,,,,,,,,,,,
,,,,,,,,,,,,,,,,,198991,18,2022-01-28_23h25.20.700,lexical_decision_task_DD,2021.2.3,MacIntel,58.82352941,,,,,,,,,,,0.945,0,,,,,,,,,,,,,,m,0,0.945,,,,,,,,-0.083333333,-0.396666667,0,0,0,space,0,41,41,133,1,POWDY,HB,old,z,./images/POWDYHB.png,11.566,,,,,,,,,,,,,,,,,,,,,
,,,,,,,,,,,,,,,,,198991,18,2022-01-28_23h25.20.700,lexical_decision_task_DD,2021.2.3,MacIntel,58.82352941,,,,,,,,,,,0.865,1,,,,,,,,,,,,,,z,1,0.865,,,,,,,,-0.083333333,-0.396666667,0,0,0,,0,42,42,108,1,GRUET,C,old,z,./images/GRUET.png,,,,,,,,,,,,,,,,,,,,,,
,,,,,,,,,,,,,,,,,198991,18,2022-01-28_23h25.20.700,lexical_decision_task_DD,2021.2.3,MacIntel,58.82352941,,,,,,,,,,,1.175,1,,,,,,,,,,,,,,m,1,1.175,,,,,,,,-0.083333333,-0.396666667,0,0,0,,0,43,43,59,1,BURIAL,LB,old,m,./images/BURIALLB.png,,,,,,,,,,,,,,,,,,,,,,
,,,,,,,,,,,,,,,,,198991,18,2022-01-28_23h25.20.700,lexical_decision_task_DD,2021.2.3,MacIntel,58.82352941,,,,,,,,,,,1.344,1,,,,,,,,,,,,,,z,1,1.344,,,,,,,,-0.083333333,-0.396666667,0,0,0,,0,44,44,91,1,SHENS,HB,old,z,./images/SHENSHB.png,,,,,,,,,,,,,,,,,,,,,,
,,,,,,,,,,,,,,,,,198991,18,2022-01-28_23h25.20.700,lexical_decision_task_DD,2021.2.3,MacIntel,58.82352941,,,,,,,,,,,0.889,1,,,,,,,,,,,,,,m,1,0.889,,,,,,,,-0.083333333,-0.396666667,0,0,0,,0,45,45,80,1,WEASEL,LB,old,m,./images/WEASELLB.png,,,,,,,,,,,,,,,,,,,,,,
,,,,,,,,,,,,,,,,,198991,18,2022-01-28_23h25.20.700,lexical_decision_task_DD,2021.2.3,MacIntel,58.82352941,,,,,,,,,,,0.646,1,,,,,,,,,,,,,,m,1,0.646,,,,,,,,-0.083333333,-0.396666667,0,0,0,,0,46,46,54,1,TRIPOD,C,old,m,./images/TRIPOD.png,,,,,,,,,,,,,,,,,,,,,,
,,,,,,,,,,,,,,,,,198991,18,2022-01-28_23h25.20.700,lexical_decision_task_DD,2021.2.3,MacIntel,58.82352941,,,,,,,,,,,0.493,1,,,,,,,,,,,,,,m,1,0.493,,,,,,,,-0.083333333,-0.396666667,0,0,0,,0,47,47,47,1,BERRY,LB,old,m,./images/BERRYLB.png,,,,,,,,,,,,,,,,,,,,,,
,,,,,,,,,,,,,,,,,198991,18,2022-01-28_23h25.20.700,lexical_decision_task_DD,2021.2.3,MacIntel,58.82352941,,,,,,,,,,,0.438,0,,,,,,,,,,,,,,m,0,0.438,,,,,,,,-0.083333333,-0.396666667,0,0,0,,0,48,48,96,1,KEAMS,C,old,z,./images/KEAMS.png,,,,,,,,,,,,,,,,,,,,,,
,,,,,,,,,,,,,,,,,198991,18,2022-01-28_23h25.20.700,lexical_decision_task_DD,2021.2.3,MacIntel,58.82352941,,,,,,,,,,,0.395,0,,,,,,,,,,,,,,z,0,0.395,,,,,,,,-0.083333333,-0.396666667,0,0,0,,0,49,49,20,1,CRADLE,LB,old,m,./images/CRADLELB.png,,,,,,,,,,,,,,,,,,,,,,
,,,,,,,,,,,,,,,,,198991,18,2022-01-28_23h25.20.700,lexical_decision_task_DD,2021.2.3,MacIntel,58.82352941,,,,,,,,,,,0.418,0,,,,,,,,,,,,,,m,0,0.418,,,,,,,,-0.083333333,-0.396666667,0,0,0,,0,50,50,90,1,NEAST,C,old,z,./images/NEAST.png,,,,,,,,,,,,,,,,,,,,,,
,,,,,,,,,,,,,,,,,198991,18,2022-01-28_23h25.20.700,lexical_decision_task_DD,2021.2.3,MacIntel,58.82352941,,,,,,,,,,,0.78,1,,,,,,,,,,,,,,z,1,0.78,,,,,,,,-0.083333333,-0.396666667,0,0,0,,0,51,51,89,1,DRIEK,LB,old,z,./images/DRIEKLB.png,,,,,,,,,,,,,,,,,,,,,,
,,,,,,,,,,,,,,,,,198991,18,2022-01-28_23h25.20.700,lexical_decision_task_DD,2021.2.3,MacIntel,58.82352941,,,,,,,,,,,1.271,1,,,,,,,,,,,,,,z,1,1.271,,,,,,,,-0.083333333,-0.396666667,0,0,0,,0,52,52,144,1,NAIRY,C,old,z,./images/NAIRY.png,,,,,,,,,,,,,,,,,,,,,,
,,,,,,,,,,,,,,,,,198991,18,2022-01-28_23h25.20.700,lexical_decision_task_DD,2021.2.3,MacIntel,58.82352941,,,,,,,,,,,0.998,1,,,,,,,,,,,,,,m,1,0.998,,,,,,,,-0.083333333,-0.396666667,0,0,0,,0,53,53,76,1,INFANT,HB,old,m,./images/INFANTHB.png,,,,,,,,,,,,,,,,,,,,,,
,,,,,,,,,,,,,,,,,198991,18,2022-01-28_23h25.20.700,lexical_decision_task_DD,2021.2.3,MacIntel,58.82352941,,,,,,,,,,,0.463,1,,,,,,,,,,,,,,m,1,0.463,,,,,,,,-0.083333333,-0.396666667,0,0,0,,0,54,54,2,1,BEARD,LB,old,m,./images/BEARDLB.png,,,,,,,,,,,,,,,,,,,,,,
,,,,,,,,,,,,,,,,,198991,18,2022-01-28_23h25.20.700,lexical_decision_task_DD,2021.2.3,MacIntel,58.82352941,,,,,,,,,,,1.629,1,,,,,,,,,,,,,,z,1,1.629,,,,,,,,-0.083333333,-0.396666667,0,0,0,,0,55,55,112,1,MYING,HB,old,z,./images/MYINGHB.png,,,,,,,,,,,,,,,,,,,,,,
,,,,,,,,,,,,,,,,,198991,18,2022-01-28_23h25.20.700,lexical_decision_task_DD,2021.2.3,MacIntel,58.82352941,,,,,,,,,,,0.669,1,,,,,,,,,,,,,,m,1,0.669,,,,,,,,-0.083333333,-0.396666667,0,0,0,,0,56,56,29,1,CRUMB,LB,old,m,./images/CRUMBLB.png,,,,,,,,,,,,,,,,,,,,,,
,,,,,,,,,,,,,,,,,198991,18,2022-01-28_23h25.20.700,lexical_decision_task_DD,2021.2.3,MacIntel,58.82352941,,,,,,,,,,,0.502,0,,,,,,,,,,,,,,m,0,0.502,,,,,,,,-0.083333333,-0.396666667,0,0,0,,0,57,57,95,1,HANTY,LB,old,z,./images/HANTYLB.png,,,,,,,,,,,,,,,,,,,,,,
,,,,,,,,,,,,,,,,,198991,18,2022-01-28_23h25.20.700,lexical_decision_task_DD,2021.2.3,MacIntel,58.82352941,,,,,,,,,,,1.231,1,,,,,,,,,,,,,,m,1,1.231,,,,,,,,-0.083333333,-0.396666667,0,0,0,,0,58,58,8,1,TULIP,LB,old,m,./images/TULIPLB.png,,,,,,,,,,,,,,,,,,,,,,
,,,,,,,,,,,,,,,,,198991,18,2022-01-28_23h25.20.700,lexical_decision_task_DD,2021.2.3,MacIntel,58.82352941,,,,,,,,,,,1.164,1,,,,,,,,,,,,,,m,1,1.164,,,,,,,,-0.083333333,-0.396666667,0,0,0,,0,59,59,40,1,SWING,HB,old,m,./images/SWINGHB.png,,,,,,,,,,,,,,,,,,,,,,
,,,,,,,,,,,,,,,,,198991,18,2022-01-28_23h25.20.700,lexical_decision_task_DD,2021.2.3,MacIntel,58.82352941,,,,,,,,,,,0.689,0,,,,,,,,,,,,,,m,0,0.689,,,,,,,,-0.083333333,-0.396666667,0,0,0,,0,60,60,94,1,BLANS,HB,old,z,./images/BLANSHB.png,,,,,,,,,,,,,,,,,,,,,,
,,,,,,,,,,,,,,,,,198991,18,2022-01-28_23h25.20.700,lexical_decision_task_DD,2021.2.3,MacIntel,58.82352941,,,,,,,,,,,1.053,1,,,,,,,,,,,,,,m,1,1.053,,,,,,,,-0.083333333,-0.396666667,0,0,0,,0,61,61,72,1,NOOSE,C,old,m,./images/NOOSE.png,,,,,,,,,,,,,,,,,,,,,,
,,,,,,,,,,,,,,,,,198991,18,2022-01-28_23h25.20.700,lexical_decision_task_DD,2021.2.3,MacIntel,58.82352941,,,,,,,,,,,0.665,1,,,,,,,,,,,,,,m,1,0.665,,,,,,,,-0.083333333,-0.396666667,0,0,0,,0,62,62,43,1,MOSQUE,HB,old,m,./images/MOSQUEHB.png,,,,,,,,,,,,,,,,,,,,,,
,,,,,,,,,,,,,,,,,198991,18,2022-01-28_23h25.20.700,lexical_decision_task_DD,2021.2.3,MacIntel,58.82352941,,,,,,,,,,,1.073,0,,,,,,,,,,,,,,m,0,1.073,,,,,,,,-0.083333333,-0.396666667,0,0,0,,0,63,63,130,1,CRILL,HB,old,z,./images/CRILLHB.png,,,,,,,,,,,,,,,,,,,,,,
,,,,,,,,,,,,,,,,,198991,18,2022-01-28_23h25.20.700,lexical_decision_task_DD,2021.2.3,MacIntel,58.82352941,,,,,,,,,,,0.987,0,,,,,,,,,,,,,,m,0,0.987,,,,,,,,-0.083333333,-0.396666667,0,0,0,,0,64,64,167,1,ZONET,LB,old,z,./images/ZONETLB.png,,,,,,,,,,,,,,,,,,,,,,
,,,,,,,,,,,,,,,,,198991,18,2022-01-28_23h25.20.700,lexical_decision_task_DD,2021.2.3,MacIntel,58.82352941,,,,,,,,,,,0.911,1,,,,,,,,,,,,,,m,1,0.911,,,,,,,,-0.083333333,-0.396666667,0,0,0,,0,65,65,3,1,FINGER,C,old,m,./images/FINGER.png,,,,,,,,,,,,,,,,,,,,,,
,,,,,,,,,,,,,,,,,198991,18,2022-01-28_23h25.20.700,lexical_decision_task_DD,2021.2.3,MacIntel,58.82352941,,,,,,,,,,,0.565,1,,,,,,,,,,,,,,m,1,0.565,,,,,,,,-0.083333333,-0.396666667,0,0,0,,0,66,66,13,1,MOTOR,HB,old,m,./images/MOTORHB.png,,,,,,,,,,,,,,,,,,,,,,
,,,,,,,,,,,,,,,,,198991,18,2022-01-28_23h25.20.700,lexical_decision_task_DD,2021.2.3,MacIntel,58.82352941,,,,,,,,,,,0.435,1,,,,,,,,,,,,,,m,1,0.435,,,,,,,,-0.083333333,-0.396666667,0,0,0,,0,67,67,9,1,RHINO,C,old,m,./images/RHINO.png,,,,,,,,,,,,,,,,,,,,,,
,,,,,,,,,,,,,,,,,198991,18,2022-01-28_23h25.20.700,lexical_decision_task_DD,2021.2.3,MacIntel,58.82352941,,,,,,,,,,,0.502,0,,,,,,,,,,,,,,m,0,0.502,,,,,,,,-0.083333333,-0.396666667,0,0,0,,0,68,68,102,1,DULLE,C,old,z,./images/DULLE.png,,,,,,,,,,,,,,,,,,,,,,
,,,,,,,,,,,,,,,,,198991,18,2022-01-28_23h25.20.700,lexical_decision_task_DD,2021.2.3,MacIntel,58.82352941,,,,,,,,,,,0.929,1,,,,,,,,,,,,,,z,1,0.929,,,,,,,,-0.083333333,-0.396666667,0,0,0,,0,69,69,129,1,PRANS,C,old,z,./images/PRANS.png,,,,,,,,,,,,,,,,,,,,,,
,,,,,,,,,,,,,,,,,198991,18,2022-01-28_23h25.20.700,lexical_decision_task_DD,2021.2.3,MacIntel,58.82352941,,,,,,,,,,,1.131,1,,,,,,,,,,,,,,m,1,1.131,,,,,,,,-0.083333333,-0.396666667,0,0,0,,0,70,70,67,1,SAILOR,HB,old,m,./images/SAILORHB.png,,,,,,,,,,,,,,,,,,,,,,
,,,,,,,,,,,,,,,,,198991,18,2022-01-28_23h25.20.700,lexical_decision_task_DD,2021.2.3,MacIntel,58.82352941,,,,,,,,,,,1.211,1,,,,,,,,,,,,,,m,1,1.211,,,,,,,,-0.083333333,-0.396666667,0,0,0,,0,71,71,4,1,MUSCLE,HB,old,m,./images/MUSCLEHB.png,,,,,,,,,,,,,,,,,,,,,,
,,,,,,,,,,,,,,,,,198991,18,2022-01-28_23h25.20.700,lexical_decision_task_DD,2021.2.3,MacIntel,58.82352941,,,,,,,,,,,1.404,1,,,,,,,,,,,,,,z,1,1.404,,,,,,,,-0.083333333,-0.396666667,0,0,0,,0,72,72,157,1,INLER,HB,old,z,./images/INLERHB.png,,,,,,,,,,,,,,,,,,,,,,
,,,,,,,,,,,,,,,,,198991,18,2022-01-28_23h25.20.700,lexical_decision_task_DD,2021.2.3,MacIntel,58.82352941,,,,,,,,,,,1.111,1,,,,,,,,,,,,,,z,1,1.111,,,,,,,,-0.083333333,-0.396666667,0,0,0,,0,73,73,105,1,MOKER,C,old,z,./images/MOKER.png,,,,,,,,,,,,,,,,,,,,,,
,,,,,,,,,,,,,,,,,198991,18,2022-01-28_23h25.20.700,lexical_decision_task_DD,2021.2.3,MacIntel,58.82352941,,,,,,,,,,,1.452,1,,,,,,,,,,,,,,m,1,1.452,,,,,,,,-0.083333333,-0.396666667,0,0,0,,0,74,74,66,1,SWEAT,C,old,m,./images/SWEAT.png,,,,,,,,,,,,,,,,,,,,,,
,,,,,,,,,,,,,,,,,198991,18,2022-01-28_23h25.20.700,lexical_decision_task_DD,2021.2.3,MacIntel,58.82352941,,,,,,,,,,,1.183,1,,,,,,,,,,,,,,m,1,1.183,,,,,,,,-0.083333333,-0.396666667,0,0,0,,0,75,75,56,1,PACKET,LB,old,m,./images/PACKETLB.png,,,,,,,,,,,,,,,,,,,,,,
,,,,,,,,,,,,,,,,,198991,18,2022-01-28_23h25.20.700,lexical_decision_task_DD,2021.2.3,MacIntel,58.82352941,,,,,,,,,,,2.818,1,,,,,,,,,,,,,,z,1,2.818,,,,,,,,-0.083333333,-0.396666667,0,0,0,,0,76,76,106,1,CLUMS,HB,old,z,./images/CLUMSHB.png,,,,,,,,,,,,,,,,,,,,,,
,,,,,,,,,,,,,,,,,198991,18,2022-01-28_23h25.20.700,lexical_decision_task_DD,2021.2.3,MacIntel,58.82352941,,,,,,,,,,,1.171,1,,,,,,,,,,,,,,m,1,1.171,,,,,,,,-0.083333333,-0.396666667,0,0,0,,0,77,77,48,1,SPORT,C,old,m,./images/SPORT.png,,,,,,,,,,,,,,,,,,,,,,
,,,,,,,,,,,,,,,,,198991,18,2022-01-28_23h25.20.700,lexical_decision_task_DD,2021.2.3,MacIntel,58.82352941,,,,,,,,,,,0.713,0,,,,,,,,,,,,,,m,0,0.713,,,,,,,,-0.083333333,-0.396666667,0,0,0,,0,78,78,122,1,BLOOT,LB,old,z,./images/BLOOTLB.png,,,,,,,,,,,,,,,,,,,,,,
,,,,,,,,,,,,,,,,,198991,18,2022-01-28_23h25.20.700,lexical_decision_task_DD,2021.2.3,MacIntel,58.82352941,,,,,,,,,,,0.814,1,,,,,,,,,,,,,,z,1,0.814,,,,,,,,-0.083333333,-0.396666667,0,0,0,,0,79,79,152,1,FRAIN,LB,old,z,./images/FRAINLB.png,,,,,,,,,,,,,,,,,,,,,,
,,,,,,,,,,,,,,,,,198991,18,2022-01-28_23h25.20.700,lexical_decision_task_DD,2021.2.3,MacIntel,58.82352941,,,,,,,,,,,0.697,1,,,,,,,,,,,,,,m,1,0.697,,,,,,,,-0.083333333,-0.396666667,0,0,0,,0,80,80,25,1,WRIST,HB,old,m,./images/WRISTHB.png,,,,,,,,,,,,,,,,,,,,,,
,,,,,,,,,,,,,,,,,198991,18,2022-01-28_23h25.20.700,lexical_decision_task_DD,2021.2.3,MacIntel,58.82352941,,,,,,,,,,,0.75,1,,,,,,,,,,,,,,m,1,0.75,,,,,,,,-0.083333333,-0.396666667,0,0,0,,0,81,81,82,1,SUNSET,HB,old,m,./images/SUNSETHB.png,,,,,,,,,,,,,,,,,,,,,,
,,,,,,,,,,,,,,,,,198991,18,2022-01-28_23h25.20.700,lexical_decision_task_DD,2021.2.3,MacIntel,58.82352941,,,,,,,,,,,0.556,1,,,,,,,,,,,,,,m,1,0.556,,,,,,,,-0.083333333,-0.396666667,0,0,0,,0,82,82,60,1,TWINS,C,old,m,./images/TWINS.png,,,,,,,,,,,,,,,,,,,,,,
,,,,,,,,,,,,,,,,,198991,18,2022-01-28_23h25.20.700,lexical_decision_task_DD,2021.2.3,MacIntel,58.82352941,,,,,,,,,,,0.61,1,,,,,,,,,,,,,,m,1,0.61,,,,,,,,-0.083333333,-0.396666667,0,0,0,space,0,83,83,79,1,CRUST,HB,old,m,./images/CRUSTHB.png,43.476,,,,,,,,,,,,,,,,,,,,,
,,,,,,,,,,,,,,,,,198991,18,2022-01-28_23h25.20.700,lexical_decision_task_DD,2021.2.3,MacIntel,58.82352941,,,,,,,,,,,3.044,1,,,,,,,,,,,,,,m,1,3.044,,,,,,,,-0.083333333,-0.396666667,0,0,0,,0,84,84,64,1,JELLY,HB,old,m,./images/JELLYHB.png,,,,,,,,,,,,,,,,,,,,,,
,,,,,,,,,,,,,,,,,198991,18,2022-01-28_23h25.20.700,lexical_decision_task_DD,2021.2.3,MacIntel,58.82352941,,,,,,,,,,,0.696,0,,,,,,,,,,,,,,m,0,0.696,,,,,,,,-0.083333333,-0.396666667,0,0,0,,0,85,85,149,1,VEASE,LB,old,z,./images/VEASELB.png,,,,,,,,,,,,,,,,,,,,,,
,,,,,,,,,,,,,,,,,198991,18,2022-01-28_23h25.20.700,lexical_decision_task_DD,2021.2.3,MacIntel,58.82352941,,,,,,,,,,,1.045,0,,,,,,,,,,,,,,m,0,1.045,,,,,,,,-0.083333333,-0.396666667,0,0,0,,0,86,86,104,1,GITTY,LB,old,z,./images/GITTYLB.png,,,,,,,,,,,,,,,,,,,,,,
,,,,,,,,,,,,,,,,,198991,18,2022-01-28_23h25.20.700,lexical_decision_task_DD,2021.2.3,MacIntel,58.82352941,,,,,,,,,,,0.615,1,,,,,,,,,,,,,,m,1,0.615,,,,,,,,-0.083333333,-0.396666667,0,0,0,,0,87,87,77,1,COUCH,LB,old,m,./images/COUCHLB.png,,,,,,,,,,,,,,,,,,,,,,
,,,,,,,,,,,,,,,,,198991,18,2022-01-28_23h25.20.700,lexical_decision_task_DD,2021.2.3,MacIntel,58.82352941,,,,,,,,,,,1.744,1,,,,,,,,,,,,,,m,1,1.744,,,,,,,,-0.083333333,-0.396666667,0,0,0,,0,88,88,1,1,PLANK,HB,old,m,./images/PLANKHB.png,,,,,,,,,,,,,,,,,,,,,,
,,,,,,,,,,,,,,,,,198991,18,2022-01-28_23h25.20.700,lexical_decision_task_DD,2021.2.3,MacIntel,58.82352941,,,,,,,,,,,0.998,1,,,,,,,,,,,,,,z,1,0.998,,,,,,,,-0.083333333,-0.396666667,0,0,0,,0,89,89,120,1,RINED,C,old,z,./images/RINED.png,,,,,,,,,,,,,,,,,,,,,,
,,,,,,,,,,,,,,,,,198991,18,2022-01-28_23h25.20.700,lexical_decision_task_DD,2021.2.3,MacIntel,58.82352941,,,,,,,,,,,0.645,1,,,,,,,,,,,,,,m,1,0.645,,,,,,,,-0.083333333,-0.396666667,0,0,0,,0,90,90,63,1,MIRROR,C,old,m,./images/MIRROR.png,,,,,,,,,,,,,,,,,,,,,,
,,,,,,,,,,,,,,,,,198991,18,2022-01-28_23h25.20.700,lexical_decision_task_DD,2021.2.3,MacIntel,58.82352941,,,,,,,,,,,0.778,1,,,,,,,,,,,,,,z,1,0.778,,,,,,,,-0.083333333,-0.396666667,0,0,0,,0,91,91,119,1,PAFER,LB,old,z,./images/PAFERLB.png,,,,,,,,,,,,,,,,,,,,,,
,,,,,,,,,,,,,,,,,198991,18,2022-01-28_23h25.20.700,lexical_decision_task_DD,2021.2.3,MacIntel,58.82352941,,,,,,,,,,,1.521,1,,,,,,,,,,,,,,z,1,1.521,,,,,,,,-0.083333333,-0.396666667,0,0,0,,0,92,92,163,1,GAMBA,HB,old,z,./images/GAMBAHB.png,,,,,,,,,,,,,,,,,,,,,,
,,,,,,,,,,,,,,,,,198991,18,2022-01-28_23h25.20.700,lexical_decision_task_DD,2021.2.3,MacIntel,58.82352941,,,,,,,,,,,1.002,1,,,,,,,,,,,,,,m,1,1.002,,,,,,,,-0.083333333,-0.396666667,0,0,0,,0,93,93,45,1,KITTEN,C,old,m,./images/KITTEN.png,,,,,,,,,,,,,,,,,,,,,,
,,,,,,,,,,,,,,,,,198991,18,2022-01-28_23h25.20.700,lexical_decision_task_DD,2021.2.3,MacIntel,58.82352941,,,,,,,,,,,0.895,1,,,,,,,,,,,,,,z,1,0.895,,,,,,,,-0.083333333,-0.396666667,0,0,0,,0,94,94,161,1,BLAPS,LB,old,z,./images/BLAPSLB.png,,,,,,,,,,,,,,,,,,,,,,
,,,,,,,,,,,,,,,,,198991,18,2022-01-28_23h25.20.700,lexical_decision_task_DD,2021.2.3,MacIntel,58.82352941,,,,,,,,,,,1.096,1,,,,,,,,,,,,,,z,1,1.096,,,,,,,,-0.083333333,-0.396666667,0,0,0,,0,95,95,101,1,GLEET,LB,old,z,./images/GLEETLB.png,,,,,,,,,,,,,,,,,,,,,,
,,,,,,,,,,,,,,,,,198991,18,2022-01-28_23h25.20.700,lexical_decision_task_DD,2021.2.3,MacIntel,58.82352941,,,,,,,,,,,0.877,1,,,,,,,,,,,,,,m,1,0.877,,,,,,,,-0.083333333,-0.396666667,0,0,0,,0,96,96,28,1,FALCON,HB,old,m,./images/FALCONHB.png,,,,,,,,,,,,,,,,,,,,,,
,,,,,,,,,,,,,,,,,198991,18,2022-01-28_23h25.20.700,lexical_decision_task_DD,2021.2.3,MacIntel,58.82352941,,,,,,,,,,,0.984,1,,,,,,,,,,,,,,z,1,0.984,,,,,,,,-0.083333333,-0.396666667,0,0,0,,0,97,97,140,1,DOVET,LB,old,z,./images/DOVETLB.png,,,,,,,,,,,,,,,,,,,,,,
,,,,,,,,,,,,,,,,,198991,18,2022-01-28_23h25.20.700,lexical_decision_task_DD,2021.2.3,MacIntel,58.82352941,,,,,,,,,,,0.929,1,,,,,,,,,,,,,,z,1,0.929,,,,,,,,-0.083333333,-0.396666667,0,0,0,,0,98,98,125,1,MOOKY,LB,old,z,./images/MOOKYLB.png,,,,,,,,,,,,,,,,,,,,,,
,,,,,,,,,,,,,,,,,198991,18,2022-01-28_23h25.20.700,lexical_decision_task_DD,2021.2.3,MacIntel,58.82352941,,,,,,,,,,,0.603,1,,,,,,,,,,,,,,m,1,0.603,,,,,,,,-0.083333333,-0.396666667,0,0,0,,0,99,99,32,1,BARREL,LB,old,m,./images/BARRELLB.png,,,,,,,,,,,,,,,,,,,,,,
,,,,,,,,,,,,,,,,,198991,18,2022-01-28_23h25.20.700,lexical_decision_task_DD,2021.2.3,MacIntel,58.82352941,,,,,,,,,,,0.712,1,,,,,,,,,,,,,,z,1,0.712,,,,,,,,-0.083333333,-0.396666667,0,0,0,,0,100,100,153,1,CLUPS,C,old,z,./images/CLUPS.png,,,,,,,,,,,,,,,,,,,,,,
,,,,,,,,,,,,,,,,,198991,18,2022-01-28_23h25.20.700,lexical_decision_task_DD,2021.2.3,MacIntel,58.82352941,,,,,,,,,,,1.27,1,,,,,,,,,,,,,,z,1,1.27,,,,,,,,-0.083333333,-0.396666667,0,0,0,,0,101,101,127,1,NINDY,HB,old,z,./images/NINDYHB.png,,,,,,,,,,,,,,,,,,,,,,
,,,,,,,,,,,,,,,,,198991,18,2022-01-28_23h25.20.700,lexical_decision_task_DD,2021.2.3,MacIntel,58.82352941,,,,,,,,,,,1.045,1,,,,,,,,,,,,,,m,1,1.045,,,,,,,,-0.083333333,-0.396666667,0,0,0,,0,102,102,70,1,URINE,HB,old,m,./images/URINEHB.png,,,,,,,,,,,,,,,,,,,,,,
,,,,,,,,,,,,,,,,,198991,18,2022-01-28_23h25.20.700,lexical_decision_task_DD,2021.2.3,MacIntel,58.82352941,,,,,,,,,,,0.654,1,,,,,,,,,,,,,,m,1,0.654,,,,,,,,-0.083333333,-0.396666667,0,0,0,,0,103,103,55,1,MUFFIN,HB,old,m,./images/MUFFINHB.png,,,,,,,,,,,,,,,,,,,,,,
,,,,,,,,,,,,,,,,,198991,18,2022-01-28_23h25.20.700,lexical_decision_task_DD,2021.2.3,MacIntel,58.82352941,,,,,,,,,,,3.612,1,,,,,,,,,,,,,,z,1,3.612,,,,,,,,-0.083333333,-0.396666667,0,0,0,,0,104,104,166,1,SHORY,HB,old,z,./images/SHORYHB.png,,,,,,,,,,,,,,,,,,,,,,
,,,,,,,,,,,,,,,,,198991,18,2022-01-28_23h25.20.700,lexical_decision_task_DD,2021.2.3,MacIntel,58.82352941,,,,,,,,,,,1.13,1,,,,,,,,,,,,,,m,1,1.13,,,,,,,,-0.083333333,-0.396666667,0,0,0,,0,105,105,33,1,MAGGOT,C,old,m,./images/MAGGOT.png,,,,,,,,,,,,,,,,,,,,,,
,,,,,,,,,,,,,,,,,198991,18,2022-01-28_23h25.20.700,lexical_decision_task_DD,2021.2.3,MacIntel,58.82352941,,,,,,,,,,,0.829,1,,,,,,,,,,,,,,z,1,0.829,,,,,,,,-0.083333333,-0.396666667,0,0,0,,0,106,106,126,1,GUELS,C,old,z,./images/GUELS.png,,,,,,,,,,,,,,,,,,,,,,
,,,,,,,,,,,,,,,,,198991,18,2022-01-28_23h25.20.700,lexical_decision_task_DD,2021.2.3,MacIntel,58.82352941,,,,,,,,,,,0.494,1,,,,,,,,,,,,,,m,1,0.494,,,,,,,,-0.083333333,-0.396666667,0,0,0,,0,107,107,65,1,FARMER,LB,old,m,./images/FARMERLB.png,,,,,,,,,,,,,,,,,,,,,,
,,,,,,,,,,,,,,,,,198991,18,2022-01-28_23h25.20.700,lexical_decision_task_DD,2021.2.3,MacIntel,58.82352941,,,,,,,,,,,0.696,1,,,,,,,,,,,,,,m,1,0.696,,,,,,,,-0.083333333,-0.396666667,0,0,0,,0,108,108,27,1,ATTIC,C,old,m,./images/ATTIC.png,,,,,,,,,,,,,,,,,,,,,,
,,,,,,,,,,,,,,,,,198991,18,2022-01-28_23h25.20.700,lexical_decision_task_DD,2021.2.3,MacIntel,58.82352941,,,,,,,,,,,0.814,1,,,,,,,,,,,,,,z,1,0.814,,,,,,,,-0.083333333,-0.396666667,0,0,0,,0,109,109,86,1,AIFED,LB,old,z,./images/AIFEDLB.png,,,,,,,,,,,,,,,,,,,,,,
,,,,,,,,,,,,,,,,,198991,18,2022-01-28_23h25.20.700,lexical_decision_task_DD,2021.2.3,MacIntel,58.82352941,,,,,,,,,,,0.894,1,,,,,,,,,,,,,,m,1,0.894,,,,,,,,-0.083333333,-0.396666667,0,0,0,,0,110,110,46,1,PEARL,HB,old,m,./images/PEARLHB.png,,,,,,,,,,,,,,,,,,,,,,
,,,,,,,,,,,,,,,,,198991,18,2022-01-28_23h25.20.700,lexical_decision_task_DD,2021.2.3,MacIntel,58.82352941,,,,,,,,,,,1.081,1,,,,,,,,,,,,,,m,1,1.081,,,,,,,,-0.083333333,-0.396666667,0,0,0,,0,111,111,73,1,SNACK,HB,old,m,./images/SNACKHB.png,,,,,,,,,,,,,,,,,,,,,,
,,,,,,,,,,,,,,,,,198991,18,2022-01-28_23h25.20.700,lexical_decision_task_DD,2021.2.3,MacIntel,58.82352941,,,,,,,,,,,0.852,1,,,,,,,,,,,,,,m,1,0.852,,,,,,,,-0.083333333,-0.396666667,0,0,0,,0,112,112,57,1,MOOSE,C,old,m,./images/MOOSE.png,,,,,,,,,,,,,,,,,,,,,,
,,,,,,,,,,,,,,,,,198991,18,2022-01-28_23h25.20.700,lexical_decision_task_DD,2021.2.3,MacIntel,58.82352941,,,,,,,,,,,0.955,1,,,,,,,,,,,,,,z,1,0.955,,,,,,,,-0.083333333,-0.396666667,0,0,0,,0,113,113,148,1,JOMS,HB,old,z,./images/JOMSHB.png,,,,,,,,,,,,,,,,,,,,,,
,,,,,,,,,,,,,,,,,198991,18,2022-01-28_23h25.20.700,lexical_decision_task_DD,2021.2.3,MacIntel,58.82352941,,,,,,,,,,,0.811,0,,,,,,,,,,,,,,m,0,0.811,,,,,,,,-0.083333333,-0.396666667,0,0,0,,0,114,114,97,1,CHIDS,HB,old,z,./images/CHIDSHB.png,,,,,,,,,,,,,,,,,,,,,,
,,,,,,,,,,,,,,,,,198991,18,2022-01-28_23h25.20.700,lexical_decision_task_DD,2021.2.3,MacIntel,58.82352941,,,,,,,,,,,0.668,1,,,,,,,,,,,,,,z,1,0.668,,,,,,,,-0.083333333,-0.396666667,0,0,0,,0,115,115,131,1,NACES,LB,old,z,./images/NACESLB.png,,,,,,,,,,,,,,,,,,,,,,
,,,,,,,,,,,,,,,,,198991,18,2022-01-28_23h25.20.700,lexical_decision_task_DD,2021.2.3,MacIntel,58.82352941,,,,,,,,,,,0.563,1,,,,,,,,,,,,,,m,1,0.563,,,,,,,,-0.083333333,-0.396666667,0,0,0,,0,116,116,18,1,JAGUAR,C,old,m,./images/JAGUAR.png,,,,,,,,,,,,,,,,,,,,,,
,,,,,,,,,,,,,,,,,198991,18,2022-01-28_23h25.20.700,lexical_decision_task_DD,2021.2.3,MacIntel,58.82352941,,,,,,,,,,,0.516,0,,,,,,,,,,,,,,m,0,0.516,,,,,,,,-0.083333333,-0.396666667,0,0,0,,0,117,117,116,1,BALGY,LB,old,z,./images/BALGYLB.png,,,,,,,,,,,,,,,,,,,,,,
,,,,,,,,,,,,,,,,,198991,18,2022-01-28_23h25.20.700,lexical_decision_task_DD,2021.2.3,MacIntel,58.82352941,,,,,,,,,,,0.493,0,,,,,,,,,,,,,,m,0,0.493,,,,,,,,-0.083333333,-0.396666667,0,0,0,,0,118,118,159,1,CUDDY,C,old,z,./images/CUDDY.png,,,,,,,,,,,,,,,,,,,,,,
,,,,,,,,,,,,,,,,,198991,18,2022-01-28_23h25.20.700,lexical_decision_task_DD,2021.2.3,MacIntel,58.82352941,,,,,,,,,,,0.662,1,,,,,,,,,,,,,,z,1,0.662,,,,,,,,-0.083333333,-0.396666667,0,0,0,,0,119,119,117,1,STEEG,C,old,z,./images/STEEG.png,,,,,,,,,,,,,,,,,,,,,,
,,,,,,,,,,,,,,,,,198991,18,2022-01-28_23h25.20.700,lexical_decision_task_DD,2021.2.3,MacIntel,58.82352941,,,,,,,,,,,0.88,1,,,,,,,,,,,,,,m,1,0.88,,,,,,,,-0.083333333,-0.396666667,0,0,0,,0,120,120,34,1,CANYON,HB,old,m,./images/CANYONHB.png,,,,,,,,,,,,,,,,,,,,,,
,,,,,,,,,,,,,,,,,198991,18,2022-01-28_23h25.20.700,lexical_decision_task_DD,2021.2.3,MacIntel,58.82352941,,,,,,,,,,,0.587,1,,,,,,,,,,,,,,m,1,0.587,,,,,,,,-0.083333333,-0.396666667,0,0,0,,0,121,121,16,1,PENCE,HB,old,m,./images/PENCEHB.png,,,,,,,,,,,,,,,,,,,,,,
,,,,,,,,,,,,,,,,,198991,18,2022-01-28_23h25.20.700,lexical_decision_task_DD,2021.2.3,MacIntel,58.82352941,,,,,,,,,,,0.669,1,,,,,,,,,,,,,,m,1,0.669,,,,,,,,-0.083333333,-0.396666667,0,0,0,,0,122,122,22,1,MELON,HB,old,m,./images/MELONHB.png,,,,,,,,,,,,,,,,,,,,,,
,,,,,,,,,,,,,,,,,198991,18,2022-01-28_23h25.20.700,lexical_decision_task_DD,2021.2.3,MacIntel,58.82352941,,,,,,,,,,,0.678,1,,,,,,,,,,,,,,m,1,0.678,,,,,,,,-0.083333333,-0.396666667,0,0,0,,0,123,123,50,1,MALLET,LB,old,m,./images/MALLETLB.png,,,,,,,,,,,,,,,,,,,,,,
,,,,,,,,,,,,,,,,,198991,18,2022-01-28_23h25.20.700,lexical_decision_task_DD,2021.2.3,MacIntel,58.82352941,,,,,,,,,,,1.064,1,,,,,,,,,,,,,,z,1,1.064,,,,,,,,-0.083333333,-0.396666667,0,0,0,,0,124,124,93,1,SMONE,C,old,z,./images/SMONE.png,,,,,,,,,,,,,,,,,,,,,,
,,,,,,,,,,,,,,,,,198991,18,2022-01-28_23h25.20.700,lexical_decision_task_DD,2021.2.3,MacIntel,58.82352941,,,,,,,,,,,8.348,0,,,,,,,,,,,,,,z,0,8.348,,,,,,,,-0.083333333,-0.396666667,0,0,0,space,0,125,125,61,1,CANDLE,HB,old,m,./images/CANDLEHB.png,7.48,,,,,,,,,,,,,,,,,,,,,
,,,,,,,,,,,,,,,,,198991,18,2022-01-28_23h25.20.700,lexical_decision_task_DD,2021.2.3,MacIntel,58.82352941,,,,,,,,,,,0.795,1,,,,,,,,,,,,,,z,1,0.795,,,,,,,,-0.083333333,-0.396666667,0,0,0,,0,126,126,92,1,PAIMS,LB,old,z,./images/PAIMSLB.png,,,,,,,,,,,,,,,,,,,,,,
,,,,,,,,,,,,,,,,,198991,18,2022-01-28_23h25.20.700,lexical_decision_task_DD,2021.2.3,MacIntel,58.82352941,,,,,,,,,,,0.644,0,,,,,,,,,,,,,,m,0,0.644,,,,,,,,-0.083333333,-0.396666667,0,0,0,,0,127,127,137,1,JOOST,LB,old,z,./images/JOOSTLB.png,,,,,,,,,,,,,,,,,,,,,,
,,,,,,,,,,,,,,,,,198991,18,2022-01-28_23h25.20.700,lexical_decision_task_DD,2021.2.3,MacIntel,58.82352941,,,,,,,,,,,1.624,1,,,,,,,,,,,,,,m,1,1.624,,,,,,,,-0.083333333,-0.396666667,0,0,0,,0,128,128,51,1,ONION,C,old,m,./images/ONION.png,,,,,,,,,,,,,,,,,,,,,,
,,,,,,,,,,,,,,,,,198991,18,2022-01-28_23h25.20.700,lexical_decision_task_DD,2021.2.3,MacIntel,58.82352941,,,,,,,,,,,0.866,1,,,,,,,,,,,,,,z,1,0.866,,,,,,,,-0.083333333,-0.396666667,0,0,0,,0,129,129,145,1,LAMEL,HB,old,z,./images/LAMELHB.png,,,,,,,,,,,,,,,,,,,,,,
,,,,,,,,,,,,,,,,,198991,18,2022-01-28_23h25.20.700,lexical_decision_task_DD,2021.2.3,MacIntel,58.82352941,,,,,,,,,,,0.862,1,,,,,,,,,,,,,,m,1,0.862,,,,,,,,-0.083333333,-0.396666667,0,0,0,,0,130,130,19,1,DOUGH,HB,old,m,./images/DOUGHHB.png,,,,,,,,,,,,,,,,,,,,,,
,,,,,,,,,,,,,,,,,198991,18,2022-01-28_23h25.20.700,lexical_decision_task_DD,2021.2.3,MacIntel,58.82352941,,,,,,,,,,,0.695,1,,,,,,,,,,,,,,z,1,0.695,,,,,,,,-0.083333333,-0.396666667,0,0,0,,0,131,131,98,1,BAMPS,LB,old,z,./images/BAMPSLB.png,,,,,,,,,,,,,,,,,,,,,,
,,,,,,,,,,,,,,,,,198991,18,2022-01-28_23h25.20.700,lexical_decision_task_DD,2021.2.3,MacIntel,58.82352941,,,,,,,,,,,0.961,1,,,,,,,,,,,,,,z,1,0.961,,,,,,,,-0.083333333,-0.396666667,0,0,0,,0,132,132,165,1,TROWN,C,old,z,./images/TROWN.png,,,,,,,,,,,,,,,,,,,,,,
,,,,,,,,,,,,,,,,,198991,18,2022-01-28_23h25.20.700,lexical_decision_task_DD,2021.2.3,MacIntel,58.82352941,,,,,,,,,,,1.412,1,,,,,,,,,,,,,,z,1,1.412,,,,,,,,-0.083333333,-0.396666667,0,0,0,,0,133,133,99,1,BACKY,C,old,z,./images/BACKY.png,,,,,,,,,,,,,,,,,,,,,,
,,,,,,,,,,,,,,,,,198991,18,2022-01-28_23h25.20.700,lexical_decision_task_DD,2021.2.3,MacIntel,58.82352941,,,,,,,,,,,0.451,1,,,,,,,,,,,,,,m,1,0.451,,,,,,,,-0.083333333,-0.396666667,0,0,0,,0,134,134,24,1,SCREW,C,old,m,./images/SCREW.png,,,,,,,,,,,,,,,,,,,,,,
,,,,,,,,,,,,,,,,,198991,18,2022-01-28_23h25.20.700,lexical_decision_task_DD,2021.2.3,MacIntel,58.82352941,,,,,,,,,,,0.582,1,,,,,,,,,,,,,,m,1,0.582,,,,,,,,-0.083333333,-0.396666667,0,0,0,,0,135,135,53,1,CARPET,LB,old,m,./images/CARPETLB.png,,,,,,,,,,,,,,,,,,,,,,
,,,,,,,,,,,,,,,,,198991,18,2022-01-28_23h25.20.700,lexical_decision_task_DD,2021.2.3,MacIntel,58.82352941,,,,,,,,,,,0.978,1,,,,,,,,,,,,,,z,1,0.978,,,,,,,,-0.083333333,-0.396666667,0,0,0,,0,136,136,113,1,LINEW,LB,old,z,./images/LINEWLB.png,,,,,,,,,,,,,,,,,,,,,,
,,,,,,,,,,,,,,,,,198991,18,2022-01-28_23h25.20.700,lexical_decision_task_DD,2021.2.3,MacIntel,58.82352941,,,,,,,,,,,1.331,1,,,,,,,,,,,,,,z,1,1.331,,,,,,,,-0.083333333,-0.396666667,0,0,0,,0,137,137,154,1,THINT,HB,old,z,./images/THINTHB.png,,,,,,,,,,,,,,,,,,,,,,
,,,,,,,,,,,,,,,,,198991,18,2022-01-28_23h25.20.700,lexical_decision_task_DD,2021.2.3,MacIntel,58.82352941,,,,,,,,,,,0.997,0,,,,,,,,,,,,,,z,0,0.997,,,,,,,,-0.083333333,-0.396666667,0,0,0,,0,138,138,41,1,STRING,LB,old,m,./images/STRINGLB.png,,,,,,,,,,,,,,,,,,,,,,
,,,,,,,,,,,,,,,,,198991,18,2022-01-28_23h25.20.700,lexical_decision_task_DD,2021.2.3,MacIntel,58.82352941,,,,,,,,,,,1.046,1,,,,,,,,,,,,,,m,1,1.046,,,,,,,,-0.083333333,-0.396666667,0,0,0,,0,139,139,81,1,POODLE,C,old,m,./images/POODLE.png,,,,,,,,,,,,,,,,,,,,,,
,,,,,,,,,,,,,,,,,198991,18,2022-01-28_23h25.20.700,lexical_decision_task_DD,2021.2.3,MacIntel,58.82352941,,,,,,,,,,,1.604,1,,,,,,,,,,,,,,z,1,1.604,,,,,,,,-0.083333333,-0.396666667,0,0,0,,0,140,140,107,1,FASKS,LB,old,z,./images/FASKSLB.png,,,,,,,,,,,,,,,,,,,,,,
,,,,,,,,,,,,,,,,,198991,18,2022-01-28_23h25.20.700,lexical_decision_task_DD,2021.2.3,MacIntel,58.82352941,,,,,,,,,,,0.873,1,,,,,,,,,,,,,,m,1,0.873,,,,,,,,-0.083333333,-0.396666667,0,0,0,,0,141,141,23,1,WALRUS,LB,old,m,./images/WALRUSLB.png,,,,,,,,,,,,,,,,,,,,,,
,,,,,,,,,,,,,,,,,198991,18,2022-01-28_23h25.20.700,lexical_decision_task_DD,2021.2.3,MacIntel,58.82352941,,,,,,,,,,,0.904,1,,,,,,,,,,,,,,m,1,0.904,,,,,,,,-0.083333333,-0.396666667,0,0,0,,0,142,142,36,1,THROAT,C,old,m,./images/THROAT.png,,,,,,,,,,,,,,,,,,,,,,
,,,,,,,,,,,,,,,,,198991,18,2022-01-28_23h25.20.700,lexical_decision_task_DD,2021.2.3,MacIntel,58.82352941,,,,,,,,,,,0.521,1,,,,,,,,,,,,,,m,1,0.521,,,,,,,,-0.083333333,-0.396666667,0,0,0,,0,143,143,15,1,GREASE,C,old,m,./images/GREASE.png,,,,,,,,,,,,,,,,,,,,,,
,,,,,,,,,,,,,,,,,198991,18,2022-01-28_23h25.20.700,lexical_decision_task_DD,2021.2.3,MacIntel,58.82352941,,,,,,,,,,,1.041,0,,,,,,,,,,,,,,m,0,1.041,,,,,,,,-0.083333333,-0.396666667,0,0,0,,0,144,144,84,1,HAXES,C,old,z,./images/HAXES.png,,,,,,,,,,,,,,,,,,,,,,
,,,,,,,,,,,,,,,,,198991,18,2022-01-28_23h25.20.700,lexical_decision_task_DD,2021.2.3,MacIntel,58.82352941,,,,,,,,,,,0.969,1,,,,,,,,,,,,,,z,1,0.969,,,,,,,,-0.083333333,-0.396666667,0,0,0,,0,145,145,118,1,BAVEL,HB,old,z,./images/BAVELHB.png,,,,,,,,,,,,,,,,,,,,,,
,,,,,,,,,,,,,,,,,198991,18,2022-01-28_23h25.20.700,lexical_decision_task_DD,2021.2.3,MacIntel,58.82352941,,,,,,,,,,,0.562,1,,,,,,,,,,,,,,m,1,0.562,,,,,,,,-0.083333333,-0.396666667,0,0,0,,0,146,146,30,1,STORM,C,old,m,./images/STORM.png,,,,,,,,,,,,,,,,,,,,,,
,,,,,,,,,,,,,,,,,198991,18,2022-01-28_23h25.20.700,lexical_decision_task_DD,2021.2.3,MacIntel,58.82352941,,,,,,,,,,,0.714,1,,,,,,,,,,,,,,m,1,0.714,,,,,,,,-0.083333333,-0.396666667,0,0,0,,0,147,147,75,1,GRAIN,C,old,m,./images/GRAIN.png,,,,,,,,,,,,,,,,,,,,,,
,,,,,,,,,,,,,,,,,198991,18,2022-01-28_23h25.20.700,lexical_decision_task_DD,2021.2.3,MacIntel,58.82352941,,,,,,,,,,,0.538,0,,,,,,,,,,,,,,m,0,0.538,,,,,,,,-0.083333333,-0.396666667,0,0,0,,0,148,148,150,1,NOOLS,C,old,z,./images/NOOLS.png,,,,,,,,,,,,,,,,,,,,,,
,,,,,,,,,,,,,,,,,198991,18,2022-01-28_23h25.20.700,lexical_decision_task_DD,2021.2.3,MacIntel,58.82352941,,,,,,,,,,,0.647,1,,,,,,,,,,,,,,m,1,0.647,,,,,,,,-0.083333333,-0.396666667,0,0,0,,0,149,149,7,1,PAINT,HB,old,m,./images/PAINTHB.png,,,,,,,,,,,,,,,,,,,,,,
,,,,,,,,,,,,,,,,,198991,18,2022-01-28_23h25.20.700,lexical_decision_task_DD,2021.2.3,MacIntel,58.82352941,,,,,,,,,,,0.684,0,,,,,,,,,,,,,,m,0,0.684,,,,,,,,-0.083333333,-0.396666667,0,0,0,,0,150,150,162,1,LEICH,C,old,z,./images/LEICH.png,,,,,,,,,,,,,,,,,,,,,,
,,,,,,,,,,,,,,,,,198991,18,2022-01-28_23h25.20.700,lexical_decision_task_DD,2021.2.3,MacIntel,58.82352941,,,,,,,,,,,0.813,1,,,,,,,,,,,,,,z,1,0.813,,,,,,,,-0.083333333,-0.396666667,0,0,0,,0,151,151,132,1,SCIFF,C,old,z,./images/SCIFF.png,,,,,,,,,,,,,,,,,,,,,,
,,,,,,,,,,,,,,,,,198991,18,2022-01-28_23h25.20.700,lexical_decision_task_DD,2021.2.3,MacIntel,58.82352941,,,,,,,,,,,0.646,1,,,,,,,,,,,,,,z,1,0.646,,,,,,,,-0.083333333,-0.396666667,0,0,0,,0,152,152,156,1,HIXES,C,old,z,./images/HIXES.png,,,,,,,,,,,,,,,,,,,,,,
,,,,,,,,,,,,,,,,,198991,18,2022-01-28_23h25.20.700,lexical_decision_task_DD,2021.2.3,MacIntel,58.82352941,,,,,,,,,,,0.746,0,,,,,,,,,,,,,,m,0,0.746,,,,,,,,-0.083333333,-0.396666667,0,0,0,,0,153,153,139,1,BLEAR,HB,old,z,./images/BLEARHB.png,,,,,,,,,,,,,,,,,,,,,,
,,,,,,,,,,,,,,,,,198991,18,2022-01-28_23h25.20.700,lexical_decision_task_DD,2021.2.3,MacIntel,58.82352941,,,,,,,,,,,0.995,1,,,,,,,,,,,,,,m,1,0.995,,,,,,,,-0.083333333,-0.396666667,0,0,0,,0,154,154,38,1,LADDER,LB,old,m,./images/LADDERLB.png,,,,,,,,,,,,,,,,,,,,,,
,,,,,,,,,,,,,,,,,198991,18,2022-01-28_23h25.20.700,lexical_decision_task_DD,2021.2.3,MacIntel,58.82352941,,,,,,,,,,,0.821,1,,,,,,,,,,,,,,m,1,0.821,,,,,,,,-0.083333333,-0.396666667,0,0,0,,0,155,155,0,1,TOMATO,C,old,m,./images/TOMATO.png,,,,,,,,,,,,,,,,,,,,,,
,,,,,,,,,,,,,,,,,198991,18,2022-01-28_23h25.20.700,lexical_decision_task_DD,2021.2.3,MacIntel,58.82352941,,,,,,,,,,,3.112,1,,,,,,,,,,,,,,z,1,3.112,,,,,,,,-0.083333333,-0.396666667,0,0,0,,0,156,156,158,1,EGECT,LB,old,z,./images/EGECTLB.png,,,,,,,,,,,,,,,,,,,,,,
,,,,,,,,,,,,,,,,,198991,18,2022-01-28_23h25.20.700,lexical_decision_task_DD,2021.2.3,MacIntel,58.82352941,,,,,,,,,,,1.165,1,,,,,,,,,,,,,,z,1,1.165,,,,,,,,-0.083333333,-0.396666667,0,0,0,,0,157,157,85,1,CHULK,HB,old,z,./images/CHULKHB.png,,,,,,,,,,,,,,,,,,,,,,
,,,,,,,,,,,,,,,,,198991,18,2022-01-28_23h25.20.700,lexical_decision_task_DD,2021.2.3,MacIntel,58.82352941,,,,,,,,,,,0.579,0,,,,,,,,,,,,,,z,0,0.579,,,,,,,,-0.083333333,-0.396666667,0,0,0,,0,158,158,31,1,QUILL,HB,old,m,./images/QUILLHB.png,,,,,,,,,,,,,,,,,,,,,,
,,,,,,,,,,,,,,,,,198991,18,2022-01-28_23h25.20.700,lexical_decision_task_DD,2021.2.3,MacIntel,58.82352941,,,,,,,,,,,0.745,1,,,,,,,,,,,,,,z,1,0.745,,,,,,,,-0.083333333,-0.396666667,0,0,0,,0,159,159,155,1,CANGY,LB,old,z,./images/CANGYLB.png,,,,,,,,,,,,,,,,,,,,,,
,,,,,,,,,,,,,,,,,198991,18,2022-01-28_23h25.20.700,lexical_decision_task_DD,2021.2.3,MacIntel,58.82352941,,,,,,,,,,,0.997,1,,,,,,,,,,,,,,m,1,0.997,,,,,,,,-0.083333333,-0.396666667,0,0,0,,0,160,160,52,1,BANNER,HB,old,m,./images/BANNERHB.png,,,,,,,,,,,,,,,,,,,,,,
,,,,,,,,,,,,,,,,,198991,18,2022-01-28_23h25.20.700,lexical_decision_task_DD,2021.2.3,MacIntel,58.82352941,,,,,,,,,,,5.348,1,,,,,,,,,,,,,,z,1,5.348,,,,,,,,-0.083333333,-0.396666667,0,0,0,,0,161,161,141,1,PLEET,C,old,z,./images/PLEET.png,,,,,,,,,,,,,,,,,,,,,,
,,,,,,,,,,,,,,,,,198991,18,2022-01-28_23h25.20.700,lexical_decision_task_DD,2021.2.3,MacIntel,58.82352941,,,,,,,,,,,2.834,1,,,,,,,,,,,,,,z,1,2.834,,,,,,,,-0.083333333,-0.396666667,0,0,0,,0,162,162,121,1,CEERS,HB,old,z,./images/CEERSHB.png,,,,,,,,,,,,,,,,,,,,,,
,,,,,,,,,,,,,,,,,198991,18,2022-01-28_23h25.20.700,lexical_decision_task_DD,2021.2.3,MacIntel,58.82352941,,,,,,,,,,,1.695,1,,,,,,,,,,,,,,m,1,1.695,,,,,,,,-0.083333333,-0.396666667,0,0,0,,0,163,163,14,1,PICKLE,LB,old,m,./images/PICKLELB.png,,,,,,,,,,,,,,,,,,,,,,
,,,,,,,,,,,,,,,,,198991,18,2022-01-28_23h25.20.700,lexical_decision_task_DD,2021.2.3,MacIntel,58.82352941,,,,,,,,,,,1.152,1,,,,,,,,,,,,,,m,1,1.152,,,,,,,,-0.083333333,-0.396666667,0,0,0,,0,164,164,6,1,SQUARE,C,old,m,./images/SQUARE.png,,,,,,,,,,,,,,,,,,,,,,
,,,,,,,,,,,,,,,,,198991,18,2022-01-28_23h25.20.700,lexical_decision_task_DD,2021.2.3,MacIntel,58.82352941,,,,,,,,,,,0.613,1,,,,,,,,,,,,,,z,1,0.613,,,,,,,,-0.083333333,-0.396666667,0,0,0,,0,165,165,135,1,JOODY,C,old,z,./images/JOODY.png,,,,,,,,,,,,,,,,,,,,,,
,,,,,,,,,,,,,,,,,198991,18,2022-01-28_23h25.20.700,lexical_decision_task_DD,2021.2.3,MacIntel,58.82352941,,,,,,,,,,,1.202,1,,,,,,,,,,,,,,z,1,1.202,,,,,,,,-0.083333333,-0.396666667,0,0,0,,0,166,166,103,1,FLORT,HB,old,z,./images/FLORTHB.png,,,,,,,,,,,,,,,,,,,,,,
,,,,,,,,,,,,,,,,,198991,18,2022-01-28_23h25.20.700,lexical_decision_task_DD,2021.2.3,MacIntel,58.82352941,,,,,,,,,,,1.488,1,,,,,,,,,,,,,,m,1,1.488,,,,,,,,-0.083333333,-0.396666667,0,0,0,,0,167,167,74,1,CEMENT,LB,old,m,./images/CEMENTLB.png,,,,,,,,,,,,,,,,,,,,,,
,,-0.07,-0.383333333,1,0,0,,,,,,1,test,"In the next phase you will be presented with the words from the the first phase. Your job is to decide whether you remember seeing the word or not. If you remember seeing the word press ""old"" or type ""m"". If you do not remember seeing the word press ""new"" or type ""z"". Please press the space bar or click on continue to begin. ",,,198991,18,2022-01-28_23h25.20.700,lexical_decision_task_DD,2021.2.3,MacIntel,58.82352941,,,,,,,,,,,,,,,,,,,,,,,,,,,,,,,,,,,,,,,,,,,,,,,,,,,,,instr_done_button,0,0,0,0,1,,,,,,,,,,,,,,,
space,1.083,-0.068888889,-0.383333333,0,0,0,,,,,,1,test,"In the next phase you will be presented with the words from the the first phase. Your job is to decide whether you remember seeing the word or not. If you remember seeing the word press ""old"" or type ""m"". If you do not remember seeing the word press ""new"" or type ""z"". Please press the space bar or click on continue to begin. ",,,198991,18,2022-01-28_23h25.20.700,lexical_decision_task_DD,2021.2.3,MacIntel,58.82352941,,,,,,,,,,,,,,,,,,,,,,,,,,,,,,,,,,,,,,,,,,,,,,,,,,,,,,1,0,1,0,1,,,,,,,,,,,,,,,
,,-0.073333333,-0.413333333,1,0,0,,,,,,1,test,"In the next phase you will be presented with the words from the the first phase. Your job is to decide whether you remember seeing the word or not. If you remember seeing the word press ""old"" or type ""m"". If you do not remember seeing the word press ""new"" or type ""z"". Please press the space bar or click on continue to begin. ",,,198991,18,2022-01-28_23h25.20.700,lexical_decision_task_DD,2021.2.3,MacIntel,58.82352941,,,,,,,,,,,,,,,,,,,,,,,,,,,,,,,,,,,,,,,,,,,,,,,,,,,,,instr_done_button,2,0,2,0,1,,,,,,,,,,,,,,,
space,0.585,-0.073333333,-0.413333333,0,0,0,,,,,,1,test,"In the next phase you will be presented with the words from the the first phase. Your job is to decide whether you remember seeing the word or not. If you remember seeing the word press ""old"" or type ""m"". If you do not remember seeing the word press ""new"" or type ""z"". Please press the space bar or click on continue to begin. ",,,198991,18,2022-01-28_23h25.20.700,lexical_decision_task_DD,2021.2.3,MacIntel,58.82352941,,,,,,,,,,,,,,,,,,,,,,,,,,,,,,,,,,,,,,,,,,,,,,,,,,,,,,3,0,3,0,1,,,,,,,,,,,,,,,
space,0.51,-0.073333333,-0.413333333,0,0,0,,,,,,1,test,"In the next phase you will be presented with the words from the the first phase. Your job is to decide whether you remember seeing the word or not. If you remember seeing the word press ""old"" or type ""m"". If you do not remember seeing the word press ""new"" or type ""z"". Please press the space bar or click on continue to begin. ",,,198991,18,2022-01-28_23h25.20.700,lexical_decision_task_DD,2021.2.3,MacIntel,58.82352941,,,,,,,,,,,,,,,,,,,,,,,,,,,,,,,,,,,,,,,,,,,,,,,,,,,,,,4,0,4,0,1,,,,,,,,,,,,,,,
,,,,,,,,,,,,,,,,,198991,18,2022-01-28_23h25.20.700,lexical_decision_task_DD,2021.2.3,MacIntel,58.82352941,,,,,,,,,,,4.025,1,,,,,,,,,,,,,,,,,,,,,,,,-0.073333333,-0.413333333,0,0,0,,,,,,,BEARD,LB,m,m,./images/BEARDLB.png,,,,,,,,m,1,4.025,,,,,,,,0,0,0,2,1
,,,,,,,,,,,,,,,,,198991,18,2022-01-28_23h25.20.700,lexical_decision_task_DD,2021.2.3,MacIntel,58.82352941,,,,,,,,,,,0.631,1,,,,,,,,,,,,,,,,,,,,,,,,-0.073333333,-0.413333333,0,0,0,,,,,,,POKER,HB,z,m,./images/POKERHB.png,,,,,,,,z,1,0.631,,,,,,,,0,1,1,151,1
,,,,,,,,,,,,,,,,,198991,18,2022-01-28_23h25.20.700,lexical_decision_task_DD,2021.2.3,MacIntel,58.82352941,,,,,,,,,,,0.75,1,,,,,,,,,,,,,,,,,,,,,,,,-0.073333333,-0.413333333,0,0,0,,,,,,,MEDAL,LB,z,m,./images/MEDALLB.png,,,,,,,,z,1,0.75,,,,,,,,0,2,2,95,1
,,,,,,,,,,,,,,,,,198991,18,2022-01-28_23h25.20.700,lexical_decision_task_DD,2021.2.3,MacIntel,58.82352941,,,,,,,,,,,0.602,1,,,,,,,,,,,,,,,,,,,,,,,,-0.073333333,-0.413333333,0,0,0,,,,,,,HOCKEY,LB,z,m,./images/HOCKEYLB.png,,,,,,,,z,1,0.602,,,,,,,,0,3,3,116,1
,,,,,,,,,,,,,,,,,198991,18,2022-01-28_23h25.20.700,lexical_decision_task_DD,2021.2.3,MacIntel,58.82352941,,,,,,,,,,,0.331,1,,,,,,,,,,,,,,,,,,,,,,,,-0.073333333,-0.413333333,0,0,0,,,,,,,CLOWN,HB,z,m,./images/CLOWNHB.png,,,,,,,,z,1,0.331,,,,,,,,0,4,4,106,1
,,,,,,,,,,,,,,,,,198991,18,2022-01-28_23h25.20.700,lexical_decision_task_DD,2021.2.3,MacIntel,58.82352941,,,,,,,,,,,0.696,1,,,,,,,,,,,,,,,,,,,,,,,,-0.073333333,-0.413333333,0,0,0,,,,,,,DIVER,C,z,m,./images/DIVER.png,,,,,,,,z,1,0.696,,,,,,,,0,5,5,93,1
,,,,,,,,,,,,,,,,,198991,18,2022-01-28_23h25.20.700,lexical_decision_task_DD,2021.2.3,MacIntel,58.82352941,,,,,,,,,,,0.434,1,,,,,,,,,,,,,,,,,,,,,,,,-0.073333333,-0.413333333,0,0,0,,,,,,,PILOT,LB,z,m,./images/PILOTLB.png,,,,,,,,z,1,0.434,,,,,,,,0,6,6,134,1
,,,,,,,,,,,,,,,,,198991,18,2022-01-28_23h25.20.700,lexical_decision_task_DD,2021.2.3,MacIntel,58.82352941,,,,,,,,,,,0.565,1,,,,,,,,,,,,,,,,,,,,,,,,-0.073333333,-0.413333333,0,0,0,,,,,,,BANNER,HB,m,m,./images/BANNERHB.png,,,,,,,,m,1,0.565,,,,,,,,0,7,7,52,1
,,,,,,,,,,,,,,,,,198991,18,2022-01-28_23h25.20.700,lexical_decision_task_DD,2021.2.3,MacIntel,58.82352941,,,,,,,,,,,0.43,1,,,,,,,,,,,,,,,,,,,,,,,,-0.073333333,-0.413333333,0,0,0,,,,,,,BELLY,HB,m,m,./images/BELLYHB.png,,,,,,,,m,1,0.43,,,,,,,,0,8,8,10,1
,,,,,,,,,,,,,,,,,198991,18,2022-01-28_23h25.20.700,lexical_decision_task_DD,2021.2.3,MacIntel,58.82352941,,,,,,,,,,,0.359,1,,,,,,,,,,,,,,,,,,,,,,,,-0.073333333,-0.413333333,0,0,0,,,,,,,BERRY,LB,m,m,./images/BERRYLB.png,,,,,,,,m,1,0.359,,,,,,,,0,9,9,47,1
,,,,,,,,,,,,,,,,,198991,18,2022-01-28_23h25.20.700,lexical_decision_task_DD,2021.2.3,MacIntel,58.82352941,,,,,,,,,,,0.545,1,,,,,,,,,,,,,,,,,,,,,,,,-0.073333333,-0.413333333,0,0,0,,,,,,,PAINT,HB,m,m,./images/PAINTHB.png,,,,,,,,m,1,0.545,,,,,,,,0,10,10,7,1
,,,,,,,,,,,,,,,,,198991,18,2022-01-28_23h25.20.700,lexical_decision_task_DD,2021.2.3,MacIntel,58.82352941,,,,,,,,,,,0.909,0,,,,,,,,,,,,,,,,,,,,,,,,-0.073333333,-0.413333333,0,0,0,,,,,,,SAILOR,HB,m,m,./images/SAILORHB.png,,,,,,,,z,0,0.909,,,,,,,,0,11,11,67,1
,,,,,,,,,,,,,,,,,198991,18,2022-01-28_23h25.20.700,lexical_decision_task_DD,2021.2.3,MacIntel,58.82352941,,,,,,,,,,,1.194,1,,,,,,,,,,,,,,,,,,,,,,,,-0.073333333,-0.413333333,0,0,0,,,,,,,BISHOP,HB,z,m,./images/BISHOPHB.png,,,,,,,,z,1,1.194,,,,,,,,0,12,12,133,1
,,,,,,,,,,,,,,,,,198991,18,2022-01-28_23h25.20.700,lexical_decision_task_DD,2021.2.3,MacIntel,58.82352941,,,,,,,,,,,0.548,0,,,,,,,,,,,,,,,,,,,,,,,,-0.073333333,-0.413333333,0,0,0,,,,,,,MUSCLE,HB,m,m,./images/MUSCLEHB.png,,,,,,,,z,0,0.548,,,,,,,,0,13,13,4,1
,,,,,,,,,,,,,,,,,198991,18,2022-01-28_23h25.20.700,lexical_decision_task_DD,2021.2.3,MacIntel,58.82352941,,,,,,,,,,,0.468,1,,,,,,,,,,,,,,,,,,,,,,,,-0.073333333,-0.413333333,0,0,0,,,,,,,SPINE,LB,z,m,./images/SPINELB.png,,,,,,,,z,1,0.468,,,,,,,,0,14,14,149,1
,,,,,,,,,,,,,,,,,198991,18,2022-01-28_23h25.20.700,lexical_decision_task_DD,2021.2.3,MacIntel,58.82352941,,,,,,,,,,,0.57,1,,,,,,,,,,,,,,,,,,,,,,,,-0.073333333,-0.413333333,0,0,0,,,,,,,PEARL,HB,m,m,./images/PEARLHB.png,,,,,,,,m,1,0.57,,,,,,,,0,15,15,46,1
,,,,,,,,,,,,,,,,,198991,18,2022-01-28_23h25.20.700,lexical_decision_task_DD,2021.2.3,MacIntel,58.82352941,,,,,,,,,,,0.368,1,,,,,,,,,,,,,,,,,,,,,,,,-0.073333333,-0.413333333,0,0,0,,,,,,,HAMMER,C,z,m,./images/HAMMER.png,,,,,,,,z,1,0.368,,,,,,,,0,16,16,159,1
,,,,,,,,,,,,,,,,,198991,18,2022-01-28_23h25.20.700,lexical_decision_task_DD,2021.2.3,MacIntel,58.82352941,,,,,,,,,,,0.18,1,,,,,,,,,,,,,,,,,,,,,,,,-0.073333333,-0.413333333,0,0,0,,,,,,,PACKET,LB,m,m,./images/PACKETLB.png,,,,,,,,m,1,0.18,,,,,,,,0,17,17,56,1
,,,,,,,,,,,,,,,,,198991,18,2022-01-28_23h25.20.700,lexical_decision_task_DD,2021.2.3,MacIntel,58.82352941,,,,,,,,,,,0.333,0,,,,,,,,,,,,,,,,,,,,,,,,-0.073333333,-0.413333333,0,0,0,,,,,,,SWING,HB,m,m,./images/SWINGHB.png,,,,,,,,z,0,0.333,,,,,,,,0,18,18,40,1
,,,,,,,,,,,,,,,,,198991,18,2022-01-28_23h25.20.700,lexical_decision_task_DD,2021.2.3,MacIntel,58.82352941,,,,,,,,,,,0.649,1,,,,,,,,,,,,,,,,,,,,,,,,-0.073333333,-0.413333333,0,0,0,,,,,,,SWEAT,C,m,m,./images/SWEAT.png,,,,,,,,m,1,0.649,,,,,,,,0,19,19,66,1
,,,,,,,,,,,,,,,,,198991,18,2022-01-28_23h25.20.700,lexical_decision_task_DD,2021.2.3,MacIntel,58.82352941,,,,,,,,,,,0.463,1,,,,,,,,,,,,,,,,,,,,,,,,-0.073333333,-0.413333333,0,0,0,,,,,,,MOOSE,C,m,m,./images/MOOSE.png,,,,,,,,m,1,0.463,,,,,,,,0,20,20,57,1
,,,,,,,,,,,,,,,,,198991,18,2022-01-28_23h25.20.700,lexical_decision_task_DD,2021.2.3,MacIntel,58.82352941,,,,,,,,,,,0.415,1,,,,,,,,,,,,,,,,,,,,,,,,-0.073333333,-0.413333333,0,0,0,,,,,,,JELLY,HB,m,m,./images/JELLYHB.png,,,,,,,,m,1,0.415,,,,,,,,0,21,21,64,1
,,,,,,,,,,,,,,,,,198991,18,2022-01-28_23h25.20.700,lexical_decision_task_DD,2021.2.3,MacIntel,58.82352941,,,,,,,,,,,0.36,0,,,,,,,,,,,,,,,,,,,,,,,,-0.073333333,-0.413333333,0,0,0,,,,,,,FENCE,LB,z,m,./images/FENCELB.png,,,,,,,,m,0,0.36,,,,,,,,0,22,22,98,1
,,,,,,,,,,,,,,,,,198991,18,2022-01-28_23h25.20.700,lexical_decision_task_DD,2021.2.3,MacIntel,58.82352941,,,,,,,,,,,0.428,1,,,,,,,,,,,,,,,,,,,,,,,,-0.073333333,-0.413333333,0,0,0,,,,,,,ATTIC,C,m,m,./images/ATTIC.png,,,,,,,,m,1,0.428,,,,,,,,0,23,23,27,1
,,,,,,,,,,,,,,,,,198991,18,2022-01-28_23h25.20.700,lexical_decision_task_DD,2021.2.3,MacIntel,58.82352941,,,,,,,,,,,0.384,1,,,,,,,,,,,,,,,,,,,,,,,,-0.073333333,-0.413333333,0,0,0,,,,,,,BONNET,LB,m,m,./images/BONNETLB.png,,,,,,,,m,1,0.384,,,,,,,,0,24,24,11,1
,,,,,,,,,,,,,,,,,198991,18,2022-01-28_23h25.20.700,lexical_decision_task_DD,2021.2.3,MacIntel,58.82352941,,,,,,,,,,,0.361,1,,,,,,,,,,,,,,,,,,,,,,,,-0.073333333,-0.413333333,0,0,0,,,,,,,PIMPLE,LB,m,m,./images/PIMPLELB.png,,,,,,,,m,1,0.361,,,,,,,,0,25,25,71,1
,,,,,,,,,,,,,,,,,198991,18,2022-01-28_23h25.20.700,lexical_decision_task_DD,2021.2.3,MacIntel,58.82352941,,,,,,,,,,,1.444,0,,,,,,,,,,,,,,,,,,,,,,,,-0.073333333,-0.413333333,0,0,0,,,,,,,FERRY,C,z,m,./images/FERRY.png,,,,,,,,m,0,1.444,,,,,,,,0,26,26,141,1
,,,,,,,,,,,,,,,,,198991,18,2022-01-28_23h25.20.700,lexical_decision_task_DD,2021.2.3,MacIntel,58.82352941,,,,,,,,,,,0.493,1,,,,,,,,,,,,,,,,,,,,,,,,-0.073333333,-0.413333333,0,0,0,,,,,,,WEASEL,LB,m,m,./images/WEASELLB.png,,,,,,,,m,1,0.493,,,,,,,,0,27,27,80,1
,,,,,,,,,,,,,,,,,198991,18,2022-01-28_23h25.20.700,lexical_decision_task_DD,2021.2.3,MacIntel,58.82352941,,,,,,,,,,,1.131,1,,,,,,,,,,,,,,,,,,,,,,,,-0.073333333,-0.413333333,0,0,0,,,,,,,ARROW,C,z,m,./images/ARROW.png,,,,,,,,z,1,1.131,,,,,,,,0,28,28,153,1
,,,,,,,,,,,,,,,,,198991,18,2022-01-28_23h25.20.700,lexical_decision_task_DD,2021.2.3,MacIntel,58.82352941,,,,,,,,,,,0.314,1,,,,,,,,,,,,,,,,,,,,,,,,-0.073333333,-0.413333333,0,0,0,,,,,,,GRANNY,LB,z,m,./images/GRANNYLB.png,,,,,,,,z,1,0.314,,,,,,,,0,29,29,104,1
,,,,,,,,,,,,,,,,,198991,18,2022-01-28_23h25.20.700,lexical_decision_task_DD,2021.2.3,MacIntel,58.82352941,,,,,,,,,,,0.163,1,,,,,,,,,,,,,,,,,,,,,,,,-0.073333333,-0.413333333,0,0,0,,,,,,,COOKER,C,m,m,./images/COOKER.png,,,,,,,,m,1,0.163,,,,,,,,0,30,30,69,1
,,,,,,,,,,,,,,,,,198991,18,2022-01-28_23h25.20.700,lexical_decision_task_DD,2021.2.3,MacIntel,58.82352941,,,,,,,,,,,0.396,0,,,,,,,,,,,,,,,,,,,,,,,,-0.073333333,-0.413333333,0,0,0,,,,,,,WHISKY,LB,z,m,./images/WHISKYLB.png,,,,,,,,m,0,0.396,,,,,,,,0,31,31,167,1
,,,,,,,,,,,,,,,,,198991,18,2022-01-28_23h25.20.700,lexical_decision_task_DD,2021.2.3,MacIntel,58.82352941,,,,,,,,,,,0.478,0,,,,,,,,,,,,,,,,,,,,,,,,-0.073333333,-0.413333333,0,0,0,,,,,,,RAZOR,HB,z,m,./images/RAZORHB.png,,,,,,,,m,0,0.478,,,,,,,,0,32,32,118,1
,,,,,,,,,,,,,,,,,198991,18,2022-01-28_23h25.20.700,lexical_decision_task_DD,2021.2.3,MacIntel,58.82352941,,,,,,,,,,,1.026,1,,,,,,,,,,,,,,,,,,,,,,,,-0.073333333,-0.413333333,0,0,0,,,,,,,BOILER,C,z,m,./images/BOILER.png,,,,,,,,z,1,1.026,,,,,,,,0,33,33,120,1
,,,,,,,,,,,,,,,,,198991,18,2022-01-28_23h25.20.700,lexical_decision_task_DD,2021.2.3,MacIntel,58.82352941,,,,,,,,,,,1.612,1,,,,,,,,,,,,,,,,,,,,,,,,-0.073333333,-0.413333333,0,0,0,,,,,,,CHAIN,C,z,m,./images/CHAIN.png,,,,,,,,z,1,1.612,,,,,,,,0,34,34,126,1
,,,,,,,,,,,,,,,,,198991,18,2022-01-28_23h25.20.700,lexical_decision_task_DD,2021.2.3,MacIntel,58.82352941,,,,,,,,,,,1.494,0,,,,,,,,,,,,,,,,,,,,,,,,-0.073333333,-0.413333333,0,0,0,,,,,,,BOXER,HB,z,m,./images/BOXERHB.png,,,,,,,,m,0,1.494,,,,,,,,0,35,35,88,1
,,,,,,,,,,,,,,,,,198991,18,2022-01-28_23h25.20.700,lexical_decision_task_DD,2021.2.3,MacIntel,58.82352941,,,,,,,,,,,0.077,0,,,,,,,,,,,,,,,,,,,,,,,,-0.073333333,-0.413333333,0,0,0,,,,,,,ENGINE,LB,z,m,./images/ENGINELB.png,,,,,,,,m,0,0.077,,,,,,,,0,36,36,122,1
,,,,,,,,,,,,,,,,,198991,18,2022-01-28_23h25.20.700,lexical_decision_task_DD,2021.2.3,MacIntel,58.82352941,,,,,,,,,,,0.244,0,,,,,,,,,,,,,,,,,,,,,,,,-0.073333333,-0.413333333,0,0,0,,,,,,,PLANET,LB,z,m,./images/PLANETLB.png,,,,,,,,m,0,0.244,,,,,,,,0,37,37,164,1
,,,,,,,,,,,,,,,,,198991,18,2022-01-28_23h25.20.700,lexical_decision_task_DD,2021.2.3,MacIntel,58.82352941,,,,,,,,,,,0.509,0,,,,,,,,,,,,,,,,,,,,,,,,-0.073333333,-0.413333333,0,0,0,,,,,,,HEATER,LB,z,m,./images/HEATERLB.png,,,,,,,,m,0,0.509,,,,,,,,0,38,38,140,1
,,,,,,,,,,,,,,,,,198991,18,2022-01-28_23h25.20.700,lexical_decision_task_DD,2021.2.3,MacIntel,58.82352941,,,,,,,,,,,0.639,1,,,,,,,,,,,,,,,,,,,,,,,,-0.073333333,-0.413333333,0,0,0,,,,,,,POODLE,C,m,m,./images/POODLE.png,,,,,,,,m,1,0.639,,,,,,,,0,39,39,81,1
,,,,,,,,,,,,,,,,,198991,18,2022-01-28_23h25.20.700,lexical_decision_task_DD,2021.2.3,MacIntel,58.82352941,,,,,,,,,,,0,1,,,,,,,,,,,,,,,,,,,,,,,,-0.073333333,-0.413333333,0,0,0,,,,,,,MAMMAL,LB,z,m,./images/MAMMALLB.png,,,,,,,,z,1,0,,,,,,,,0,40,40,146,1
,,,,,,,,,,,,,,,,,198991,18,2022-01-28_23h25.20.700,lexical_decision_task_DD,2021.2.3,MacIntel,58.82352941,,,,,,,,,,,0.379,1,,,,,,,,,,,,,,,,,,,,,,,,-0.073333333,-0.413333333,0,0,0,space,,,,,,STAIN,C,z,m,./images/STAIN.png,3.342,,,,,,,z,1,0.379,,,,,,,,0,41,41,90,1
,,,,,,,,,,,,,,,,,198991,18,2022-01-28_23h25.20.700,lexical_decision_task_DD,2021.2.3,MacIntel,58.82352941,,,,,,,,,,,0.333,1,,,,,,,,,,,,,,,,,,,,,,,,-0.073333333,-0.413333333,0,0,0,,,,,,,CRATER,C,z,m,./images/CRATER.png,,,,,,,,z,1,0.333,,,,,,,,0,42,42,87,1
,,,,,,,,,,,,,,,,,198991,18,2022-01-28_23h25.20.700,lexical_decision_task_DD,2021.2.3,MacIntel,58.82352941,,,,,,,,,,,0.796,1,,,,,,,,,,,,,,,,,,,,,,,,-0.073333333,-0.413333333,0,0,0,,,,,,,ONION,C,m,m,./images/ONION.png,,,,,,,,m,1,0.796,,,,,,,,0,43,43,51,1
,,,,,,,,,,,,,,,,,198991,18,2022-01-28_23h25.20.700,lexical_decision_task_DD,2021.2.3,MacIntel,58.82352941,,,,,,,,,,,0.339,0,,,,,,,,,,,,,,,,,,,,,,,,-0.073333333,-0.413333333,0,0,0,,,,,,,CHALK,HB,z,m,./images/CHALKHB.png,,,,,,,,m,0,0.339,,,,,,,,0,44,44,109,1
,,,,,,,,,,,,,,,,,198991,18,2022-01-28_23h25.20.700,lexical_decision_task_DD,2021.2.3,MacIntel,58.82352941,,,,,,,,,,,1.999,0,,,,,,,,,,,,,,,,,,,,,,,,-0.073333333,-0.413333333,0,0,0,,,,,,,CASINO,HB,z,m,./images/CASINOHB.png,,,,,,,,m,0,1.999,,,,,,,,0,45,45,112,1
,,,,,,,,,,,,,,,,,198991,18,2022-01-28_23h25.20.700,lexical_decision_task_DD,2021.2.3,MacIntel,58.82352941,,,,,,,,,,,1.249,0,,,,,,,,,,,,,,,,,,,,,,,,-0.073333333,-0.413333333,0,0,0,,,,,,,BARREL,LB,m,m,./images/BARRELLB.png,,,,,,,,z,0,1.249,,,,,,,,0,46,46,32,1
,,,,,,,,,,,,,,,,,198991,18,2022-01-28_23h25.20.700,lexical_decision_task_DD,2021.2.3,MacIntel,58.82352941,,,,,,,,,,,0.405,1,,,,,,,,,,,,,,,,,,,,,,,,-0.073333333,-0.413333333,0,0,0,,,,,,,SKIING,LB,m,m,./images/SKIINGLB.png,,,,,,,,m,1,0.405,,,,,,,,0,47,47,17,1
,,,,,,,,,,,,,,,,,198991,18,2022-01-28_23h25.20.700,lexical_decision_task_DD,2021.2.3,MacIntel,58.82352941,,,,,,,,,,,0.633,0,,,,,,,,,,,,,,,,,,,,,,,,-0.073333333,-0.413333333,0,0,0,,,,,,,BUBBLE,LB,z,m,./images/BUBBLELB.png,,,,,,,,m,0,0.633,,,,,,,,0,48,48,155,1
,,,,,,,,,,,,,,,,,198991,18,2022-01-28_23h25.20.700,lexical_decision_task_DD,2021.2.3,MacIntel,58.82352941,,,,,,,,,,,0.528,1,,,,,,,,,,,,,,,,,,,,,,,,-0.073333333,-0.413333333,0,0,0,,,,,,,MALLET,LB,m,m,./images/MALLETLB.png,,,,,,,,m,1,0.528,,,,,,,,0,49,49,50,1
,,,,,,,,,,,,,,,,,198991,18,2022-01-28_23h25.20.700,lexical_decision_task_DD,2021.2.3,MacIntel,58.82352941,,,,,,,,,,,1.48,1,,,,,,,,,,,,,,,,,,,,,,,,-0.073333333,-0.413333333,0,0,0,,,,,,,JUMPER,LB,z,m,./images/JUMPERLB.png,,,,,,,,z,1,1.48,,,,,,,,0,50,50,158,1
,,,,,,,,,,,,,,,,,198991,18,2022-01-28_23h25.20.700,lexical_decision_task_DD,2021.2.3,MacIntel,58.82352941,,,,,,,,,,,0.396,1,,,,,,,,,,,,,,,,,,,,,,,,-0.073333333,-0.413333333,0,0,0,,,,,,,GREASE,C,m,m,./images/GREASE.png,,,,,,,,m,1,0.396,,,,,,,,0,51,51,15,1
,,,,,,,,,,,,,,,,,198991,18,2022-01-28_23h25.20.700,lexical_decision_task_DD,2021.2.3,MacIntel,58.82352941,,,,,,,,,,,0.474,1,,,,,,,,,,,,,,,,,,,,,,,,-0.073333333,-0.413333333,0,0,0,,,,,,,FOLDER,C,m,m,./images/FOLDER.png,,,,,,,,m,1,0.474,,,,,,,,0,52,52,42,1
,,,,,,,,,,,,,,,,,198991,18,2022-01-28_23h25.20.700,lexical_decision_task_DD,2021.2.3,MacIntel,58.82352941,,,,,,,,,,,0.384,1,,,,,,,,,,,,,,,,,,,,,,,,-0.073333333,-0.413333333,0,0,0,,,,,,,PLANK,HB,m,m,./images/PLANKHB.png,,,,,,,,m,1,0.384,,,,,,,,0,53,53,1,1
,,,,,,,,,,,,,,,,,198991,18,2022-01-28_23h25.20.700,lexical_decision_task_DD,2021.2.3,MacIntel,58.82352941,,,,,,,,,,,1.08,0,,,,,,,,,,,,,,,,,,,,,,,,-0.073333333,-0.413333333,0,0,0,,,,,,,SMOKER,LB,m,m,./images/SMOKERLB.png,,,,,,,,z,0,1.08,,,,,,,,0,54,54,26,1
,,,,,,,,,,,,,,,,,198991,18,2022-01-28_23h25.20.700,lexical_decision_task_DD,2021.2.3,MacIntel,58.82352941,,,,,,,,,,,0.328,0,,,,,,,,,,,,,,,,,,,,,,,,-0.073333333,-0.413333333,0,0,0,,,,,,,DANCER,C,z,m,./images/DANCER.png,,,,,,,,m,0,0.328,,,,,,,,0,55,55,105,1
,,,,,,,,,,,,,,,,,198991,18,2022-01-28_23h25.20.700,lexical_decision_task_DD,2021.2.3,MacIntel,58.82352941,,,,,,,,,,,0.213,0,,,,,,,,,,,,,,,,,,,,,,,,-0.073333333,-0.413333333,0,0,0,,,,,,,SAUCE,C,z,m,./images/SAUCE.png,,,,,,,,m,0,0.213,,,,,,,,0,56,56,135,1
,,,,,,,,,,,,,,,,,198991,18,2022-01-28_23h25.20.700,lexical_decision_task_DD,2021.2.3,MacIntel,58.82352941,,,,,,,,,,,0.398,0,,,,,,,,,,,,,,,,,,,,,,,,-0.073333333,-0.413333333,0,0,0,,,,,,,PEACH,LB,m,m,./images/PEACHLB.png,,,,,,,,z,0,0.398,,,,,,,,0,57,57,35,1
,,,,,,,,,,,,,,,,,198991,18,2022-01-28_23h25.20.700,lexical_decision_task_DD,2021.2.3,MacIntel,58.82352941,,,,,,,,,,,0.745,0,,,,,,,,,,,,,,,,,,,,,,,,-0.073333333,-0.413333333,0,0,0,,,,,,,DESERT,HB,z,m,./images/DESERTHB.png,,,,,,,,m,0,0.745,,,,,,,,0,58,58,136,1
,,,,,,,,,,,,,,,,,198991,18,2022-01-28_23h25.20.700,lexical_decision_task_DD,2021.2.3,MacIntel,58.82352941,,,,,,,,,,,0.292,0,,,,,,,,,,,,,,,,,,,,,,,,-0.073333333,-0.413333333,0,0,0,,,,,,,SHIELD,C,z,m,./images/SHIELD.png,,,,,,,,m,0,0.292,,,,,,,,0,59,59,132,1
,,,,,,,,,,,,,,,,,198991,18,2022-01-28_23h25.20.700,lexical_decision_task_DD,2021.2.3,MacIntel,58.82352941,,,,,,,,,,,0.296,0,,,,,,,,,,,,,,,,,,,,,,,,-0.073333333,-0.413333333,0,0,0,,,,,,,MUMMY,HB,z,m,./images/MUMMYHB.png,,,,,,,,m,0,0.296,,,,,,,,0,60,60,130,1
,,,,,,,,,,,,,,,,,198991,18,2022-01-28_23h25.20.700,lexical_decision_task_DD,2021.2.3,MacIntel,58.82352941,,,,,,,,,,,0.634,1,,,,,,,,,,,,,,,,,,,,,,,,-0.073333333,-0.413333333,0,0,0,,,,,,,CRADLE,LB,m,m,./images/CRADLELB.png,,,,,,,,m,1,0.634,,,,,,,,0,61,61,20,1
,,,,,,,,,,,,,,,,,198991,18,2022-01-28_23h25.20.700,lexical_decision_task_DD,2021.2.3,MacIntel,58.82352941,,,,,,,,,,,0.641,1,,,,,,,,,,,,,,,,,,,,,,,,-0.073333333,-0.413333333,0,0,0,,,,,,,LIZARD,LB,m,m,./images/LIZARDLB.png,,,,,,,,m,1,0.641,,,,,,,,0,62,62,44,1
,,,,,,,,,,,,,,,,,198991,18,2022-01-28_23h25.20.700,lexical_decision_task_DD,2021.2.3,MacIntel,58.82352941,,,,,,,,,,,0.631,0,,,,,,,,,,,,,,,,,,,,,,,,-0.073333333,-0.413333333,0,0,0,,,,,,,STREAM,LB,z,m,./images/STREAMLB.png,,,,,,,,m,0,0.631,,,,,,,,0,63,63,125,1
,,,,,,,,,,,,,,,,,198991,18,2022-01-28_23h25.20.700,lexical_decision_task_DD,2021.2.3,MacIntel,58.82352941,,,,,,,,,,,0.385,0,,,,,,,,,,,,,,,,,,,,,,,,-0.073333333,-0.413333333,0,0,0,,,,,,,MIDGET,HB,z,m,./images/MIDGETHB.png,,,,,,,,m,0,0.385,,,,,,,,0,64,64,160,1
,,,,,,,,,,,,,,,,,198991,18,2022-01-28_23h25.20.700,lexical_decision_task_DD,2021.2.3,MacIntel,58.82352941,,,,,,,,,,,0.845,1,,,,,,,,,,,,,,,,,,,,,,,,-0.073333333,-0.413333333,0,0,0,,,,,,,WALNUT,C,z,m,./images/WALNUT.png,,,,,,,,z,1,0.845,,,,,,,,0,65,65,84,1
,,,,,,,,,,,,,,,,,198991,18,2022-01-28_23h25.20.700,lexical_decision_task_DD,2021.2.3,MacIntel,58.82352941,,,,,,,,,,,0.815,0,,,,,,,,,,,,,,,,,,,,,,,,-0.073333333,-0.413333333,0,0,0,,,,,,,SHORE,C,m,m,./images/SHORE.png,,,,,,,,z,0,0.815,,,,,,,,0,66,66,12,1
,,,,,,,,,,,,,,,,,198991,18,2022-01-28_23h25.20.700,lexical_decision_task_DD,2021.2.3,MacIntel,58.82352941,,,,,,,,,,,0.776,1,,,,,,,,,,,,,,,,,,,,,,,,-0.073333333,-0.413333333,0,0,0,,,,,,,MOTOR,HB,m,m,./images/MOTORHB.png,,,,,,,,m,1,0.776,,,,,,,,0,67,67,13,1
,,,,,,,,,,,,,,,,,198991,18,2022-01-28_23h25.20.700,lexical_decision_task_DD,2021.2.3,MacIntel,58.82352941,,,,,,,,,,,0.709,0,,,,,,,,,,,,,,,,,,,,,,,,-0.073333333,-0.413333333,0,0,0,,,,,,,QUILL,HB,m,m,./images/QUILLHB.png,,,,,,,,z,0,0.709,,,,,,,,0,68,68,31,1
,,,,,,,,,,,,,,,,,198991,18,2022-01-28_23h25.20.700,lexical_decision_task_DD,2021.2.3,MacIntel,58.82352941,,,,,,,,,,,0.866,1,,,,,,,,,,,,,,,,,,,,,,,,-0.073333333,-0.413333333,0,0,0,,,,,,,CEMENT,LB,m,m,./images/CEMENTLB.png,,,,,,,,m,1,0.866,,,,,,,,0,69,69,74,1
,,,,,,,,,,,,,,,,,198991,18,2022-01-28_23h25.20.700,lexical_decision_task_DD,2021.2.3,MacIntel,58.82352941,,,,,,,,,,,0.62,0,,,,,,,,,,,,,,,,,,,,,,,,-0.073333333,-0.413333333,0,0,0,,,,,,,CANOE,HB,z,m,./images/CANOEHB.png,,,,,,,,m,0,0.62,,,,,,,,0,70,70,142,1
,,,,,,,,,,,,,,,,,198991,18,2022-01-28_23h25.20.700,lexical_decision_task_DD,2021.2.3,MacIntel,58.82352941,,,,,,,,,,,0.489,0,,,,,,,,,,,,,,,,,,,,,,,,-0.073333333,-0.413333333,0,0,0,,,,,,,BURIAL,LB,m,m,./images/BURIALLB.png,,,,,,,,z,0,0.489,,,,,,,,0,71,71,59,1
,,,,,,,,,,,,,,,,,198991,18,2022-01-28_23h25.20.700,lexical_decision_task_DD,2021.2.3,MacIntel,58.82352941,,,,,,,,,,,0.35,1,,,,,,,,,,,,,,,,,,,,,,,,-0.073333333,-0.413333333,0,0,0,,,,,,,BIRTH,HB,m,m,./images/BIRTHHB.png,,,,,,,,m,1,0.35,,,,,,,,0,72,72,37,1
,,,,,,,,,,,,,,,,,198991,18,2022-01-28_23h25.20.700,lexical_decision_task_DD,2021.2.3,MacIntel,58.82352941,,,,,,,,,,,0.363,0,,,,,,,,,,,,,,,,,,,,,,,,-0.073333333,-0.413333333,0,0,0,,,,,,,SLOPE,C,z,m,./images/SLOPE.png,,,,,,,,m,0,0.363,,,,,,,,0,73,73,114,1
,,,,,,,,,,,,,,,,,198991,18,2022-01-28_23h25.20.700,lexical_decision_task_DD,2021.2.3,MacIntel,58.82352941,,,,,,,,,,,0.779,1,,,,,,,,,,,,,,,,,,,,,,,,-0.073333333,-0.413333333,0,0,0,,,,,,,SNAKE,HB,z,m,./images/SNAKEHB.png,,,,,,,,z,1,0.779,,,,,,,,0,74,74,124,1
,,,,,,,,,,,,,,,,,198991,18,2022-01-28_23h25.20.700,lexical_decision_task_DD,2021.2.3,MacIntel,58.82352941,,,,,,,,,,,0.434,1,,,,,,,,,,,,,,,,,,,,,,,,-0.073333333,-0.413333333,0,0,0,,,,,,,LLAMA,LB,z,m,./images/LLAMALB.png,,,,,,,,z,1,0.434,,,,,,,,0,75,75,119,1
,,,,,,,,,,,,,,,,,198991,18,2022-01-28_23h25.20.700,lexical_decision_task_DD,2021.2.3,MacIntel,58.82352941,,,,,,,,,,,1.015,1,,,,,,,,,,,,,,,,,,,,,,,,-0.073333333,-0.413333333,0,0,0,,,,,,,BAKER,C,z,m,./images/BAKER.png,,,,,,,,z,1,1.015,,,,,,,,0,76,76,147,1
,,,,,,,,,,,,,,,,,198991,18,2022-01-28_23h25.20.700,lexical_decision_task_DD,2021.2.3,MacIntel,58.82352941,,,,,,,,,,,0.835,0,,,,,,,,,,,,,,,,,,,,,,,,-0.073333333,-0.413333333,0,0,0,,,,,,,BABOON,HB,m,m,./images/BABOONHB.png,,,,,,,,z,0,0.835,,,,,,,,0,77,77,58,1
,,,,,,,,,,,,,,,,,198991,18,2022-01-28_23h25.20.700,lexical_decision_task_DD,2021.2.3,MacIntel,58.82352941,,,,,,,,,,,0.246,1,,,,,,,,,,,,,,,,,,,,,,,,-0.073333333,-0.413333333,0,0,0,,,,,,,INFANT,HB,m,m,./images/INFANTHB.png,,,,,,,,m,1,0.246,,,,,,,,0,78,78,76,1
,,,,,,,,,,,,,,,,,198991,18,2022-01-28_23h25.20.700,lexical_decision_task_DD,2021.2.3,MacIntel,58.82352941,,,,,,,,,,,0.445,1,,,,,,,,,,,,,,,,,,,,,,,,-0.073333333,-0.413333333,0,0,0,,,,,,,URINE,HB,m,m,./images/URINEHB.png,,,,,,,,m,1,0.445,,,,,,,,0,79,79,70,1
,,,,,,,,,,,,,,,,,198991,18,2022-01-28_23h25.20.700,lexical_decision_task_DD,2021.2.3,MacIntel,58.82352941,,,,,,,,,,,0.375,1,,,,,,,,,,,,,,,,,,,,,,,,-0.073333333,-0.413333333,0,0,0,,,,,,,SUNSET,HB,m,m,./images/SUNSETHB.png,,,,,,,,m,1,0.375,,,,,,,,0,80,80,82,1
,,,,,,,,,,,,,,,,,198991,18,2022-01-28_23h25.20.700,lexical_decision_task_DD,2021.2.3,MacIntel,58.82352941,,,,,,,,,,,0.061,0,,,,,,,,,,,,,,,,,,,,,,,,-0.073333333,-0.413333333,0,0,0,,,,,,,STOOL,HB,z,m,./images/STOOLHB.png,,,,,,,,m,0,0.061,,,,,,,,0,81,81,127,1
,,,,,,,,,,,,,,,,,198991,18,2022-01-28_23h25.20.700,lexical_decision_task_DD,2021.2.3,MacIntel,58.82352941,,,,,,,,,,,1.046,1,,,,,,,,,,,,,,,,,,,,,,,,-0.073333333,-0.413333333,0,0,0,,,,,,,MUFFIN,HB,m,m,./images/MUFFINHB.png,,,,,,,,m,1,1.046,,,,,,,,0,82,82,55,1
,,,,,,,,,,,,,,,,,198991,18,2022-01-28_23h25.20.700,lexical_decision_task_DD,2021.2.3,MacIntel,58.82352941,,,,,,,,,,,0.647,1,,,,,,,,,,,,,,,,,,,,,,,,-0.073333333,-0.413333333,0,0,0,space,,,,,,TULIP,LB,m,m,./images/TULIPLB.png,4.463,,,,,,,m,1,0.647,,,,,,,,0,83,83,8,1
,,,,,,,,,,,,,,,,,198991,18,2022-01-28_23h25.20.700,lexical_decision_task_DD,2021.2.3,MacIntel,58.82352941,,,,,,,,,,,2.296,1,,,,,,,,,,,,,,,,,,,,,,,,-0.073333333,-0.413333333,0,0,0,,,,,,,LITTER,C,m,m,./images/LITTER.png,,,,,,,,m,1,2.296,,,,,,,,0,84,84,78,1
,,,,,,,,,,,,,,,,,198991,18,2022-01-28_23h25.20.700,lexical_decision_task_DD,2021.2.3,MacIntel,58.82352941,,,,,,,,,,,0.42,0,,,,,,,,,,,,,,,,,,,,,,,,-0.073333333,-0.413333333,0,0,0,,,,,,,GLOVE,HB,z,m,./images/GLOVEHB.png,,,,,,,,m,0,0.42,,,,,,,,0,85,85,157,1
,,,,,,,,,,,,,,,,,198991,18,2022-01-28_23h25.20.700,lexical_decision_task_DD,2021.2.3,MacIntel,58.82352941,,,,,,,,,,,0.045,1,,,,,,,,,,,,,,,,,,,,,,,,-0.073333333,-0.413333333,0,0,0,,,,,,,DRUMS,HB,m,m,./images/DRUMSHB.png,,,,,,,,m,1,0.045,,,,,,,,0,86,86,49,1
,,,,,,,,,,,,,,,,,198991,18,2022-01-28_23h25.20.700,lexical_decision_task_DD,2021.2.3,MacIntel,58.82352941,,,,,,,,,,,0.128,1,,,,,,,,,,,,,,,,,,,,,,,,-0.073333333,-0.413333333,0,0,0,,,,,,,FARMER,LB,m,m,./images/FARMERLB.png,,,,,,,,m,1,0.128,,,,,,,,0,87,87,65,1
,,,,,,,,,,,,,,,,,198991,18,2022-01-28_23h25.20.700,lexical_decision_task_DD,2021.2.3,MacIntel,58.82352941,,,,,,,,,,,0.312,1,,,,,,,,,,,,,,,,,,,,,,,,-0.073333333,-0.413333333,0,0,0,,,,,,,CRUMB,LB,m,m,./images/CRUMBLB.png,,,,,,,,m,1,0.312,,,,,,,,0,88,88,29,1
,,,,,,,,,,,,,,,,,198991,18,2022-01-28_23h25.20.700,lexical_decision_task_DD,2021.2.3,MacIntel,58.82352941,,,,,,,,,,,0.545,0,,,,,,,,,,,,,,,,,,,,,,,,-0.073333333,-0.413333333,0,0,0,,,,,,,RULER,HB,z,m,./images/RULERHB.png,,,,,,,,m,0,0.545,,,,,,,,0,89,89,163,1
,,,,,,,,,,,,,,,,,198991,18,2022-01-28_23h25.20.700,lexical_decision_task_DD,2021.2.3,MacIntel,58.82352941,,,,,,,,,,,0.392,1,,,,,,,,,,,,,,,,,,,,,,,,-0.073333333,-0.413333333,0,0,0,,,,,,,TORCH,LB,m,m,./images/TORCHLB.png,,,,,,,,m,1,0.392,,,,,,,,0,90,90,68,1
,,,,,,,,,,,,,,,,,198991,18,2022-01-28_23h25.20.700,lexical_decision_task_DD,2021.2.3,MacIntel,58.82352941,,,,,,,,,,,0.162,0,,,,,,,,,,,,,,,,,,,,,,,,-0.073333333,-0.413333333,0,0,0,,,,,,,MONKEY,C,z,m,./images/MONKEY.png,,,,,,,,m,0,0.162,,,,,,,,0,91,91,129,1
,,,,,,,,,,,,,,,,,198991,18,2022-01-28_23h25.20.700,lexical_decision_task_DD,2021.2.3,MacIntel,58.82352941,,,,,,,,,,,0.294,1,,,,,,,,,,,,,,,,,,,,,,,,-0.073333333,-0.413333333,0,0,0,,,,,,,CANDY,C,z,m,./images/CANDY.png,,,,,,,,z,1,0.294,,,,,,,,0,92,92,123,1
,,,,,,,,,,,,,,,,,198991,18,2022-01-28_23h25.20.700,lexical_decision_task_DD,2021.2.3,MacIntel,58.82352941,,,,,,,,,,,0.708,0,,,,,,,,,,,,,,,,,,,,,,,,-0.073333333,-0.413333333,0,0,0,,,,,,,WHEEL,LB,z,m,./images/WHEELLB.png,,,,,,,,m,0,0.708,,,,,,,,0,93,93,161,1
,,,,,,,,,,,,,,,,,198991,18,2022-01-28_23h25.20.700,lexical_decision_task_DD,2021.2.3,MacIntel,58.82352941,,,,,,,,,,,0.826,1,,,,,,,,,,,,,,,,,,,,,,,,-0.073333333,-0.413333333,0,0,0,,,,,,,FINGER,C,m,m,./images/FINGER.png,,,,,,,,m,1,0.826,,,,,,,,0,94,94,3,1
,,,,,,,,,,,,,,,,,198991,18,2022-01-28_23h25.20.700,lexical_decision_task_DD,2021.2.3,MacIntel,58.82352941,,,,,,,,,,,0.523,1,,,,,,,,,,,,,,,,,,,,,,,,-0.073333333,-0.413333333,0,0,0,,,,,,,CHERRY,C,z,m,./images/CHERRY.png,,,,,,,,z,1,0.523,,,,,,,,0,95,95,138,1
,,,,,,,,,,,,,,,,,198991,18,2022-01-28_23h25.20.700,lexical_decision_task_DD,2021.2.3,MacIntel,58.82352941,,,,,,,,,,,0.428,1,,,,,,,,,,,,,,,,,,,,,,,,-0.073333333,-0.413333333,0,0,0,,,,,,,COUCH,LB,m,m,./images/COUCHLB.png,,,,,,,,m,1,0.428,,,,,,,,0,96,96,77,1
,,,,,,,,,,,,,,,,,198991,18,2022-01-28_23h25.20.700,lexical_decision_task_DD,2021.2.3,MacIntel,58.82352941,,,,,,,,,,,0.46,0,,,,,,,,,,,,,,,,,,,,,,,,-0.073333333,-0.413333333,0,0,0,,,,,,,PISTOL,LB,z,m,./images/PISTOLLB.png,,,,,,,,m,0,0.46,,,,,,,,0,97,97,113,1
,,,,,,,,,,,,,,,,,198991,18,2022-01-28_23h25.20.700,lexical_decision_task_DD,2021.2.3,MacIntel,58.82352941,,,,,,,,,,,0.274,0,,,,,,,,,,,,,,,,,,,,,,,,-0.073333333,-0.413333333,0,0,0,,,,,,,DRILL,C,z,m,./images/DRILL.png,,,,,,,,m,0,0.274,,,,,,,,0,98,98,165,1
,,,,,,,,,,,,,,,,,198991,18,2022-01-28_23h25.20.700,lexical_decision_task_DD,2021.2.3,MacIntel,58.82352941,,,,,,,,,,,0.603,1,,,,,,,,,,,,,,,,,,,,,,,,-0.073333333,-0.413333333,0,0,0,,,,,,,SCREW,C,m,m,./images/SCREW.png,,,,,,,,m,1,0.603,,,,,,,,0,99,99,24,1
,,,,,,,,,,,,,,,,,198991,18,2022-01-28_23h25.20.700,lexical_decision_task_DD,2021.2.3,MacIntel,58.82352941,,,,,,,,,,,10.749,1,,,,,,,,,,,,,,,,,,,,,,,,-0.073333333,-0.413333333,0,0,0,,,,,,,MIRROR,C,m,m,./images/MIRROR.png,,,,,,,,m,1,10.749,,,,,,,,0,100,100,63,1
,,,,,,,,,,,,,,,,,198991,18,2022-01-28_23h25.20.700,lexical_decision_task_DD,2021.2.3,MacIntel,58.82352941,,,,,,,,,,,0.911,1,,,,,,,,,,,,,,,,,,,,,,,,-0.073333333,-0.413333333,0,0,0,,,,,,,BUTTER,C,z,m,./images/BUTTER.png,,,,,,,,z,1,0.911,,,,,,,,0,101,101,111,1
,,,,,,,,,,,,,,,,,198991,18,2022-01-28_23h25.20.700,lexical_decision_task_DD,2021.2.3,MacIntel,58.82352941,,,,,,,,,,,4.877,1,,,,,,,,,,,,,,,,,,,,,,,,-0.073333333,-0.413333333,0,0,0,,,,,,,FALCON,HB,m,m,./images/FALCONHB.png,,,,,,,,m,1,4.877,,,,,,,,0,102,102,28,1
,,,,,,,,,,,,,,,,,198991,18,2022-01-28_23h25.20.700,lexical_decision_task_DD,2021.2.3,MacIntel,58.82352941,,,,,,,,,,,0.443,0,,,,,,,,,,,,,,,,,,,,,,,,-0.073333333,-0.413333333,0,0,0,,,,,,,COLLAR,C,z,m,./images/COLLAR.png,,,,,,,,m,0,0.443,,,,,,,,0,103,103,99,1
,,,,,,,,,,,,,,,,,198991,18,2022-01-28_23h25.20.700,lexical_decision_task_DD,2021.2.3,MacIntel,58.82352941,,,,,,,,,,,0.493,1,,,,,,,,,,,,,,,,,,,,,,,,-0.073333333,-0.413333333,0,0,0,,,,,,,MELON,HB,m,m,./images/MELONHB.png,,,,,,,,m,1,0.493,,,,,,,,0,104,104,22,1
,,,,,,,,,,,,,,,,,198991,18,2022-01-28_23h25.20.700,lexical_decision_task_DD,2021.2.3,MacIntel,58.82352941,,,,,,,,,,,0.395,1,,,,,,,,,,,,,,,,,,,,,,,,-0.073333333,-0.413333333,0,0,0,,,,,,,STORM,C,m,m,./images/STORM.png,,,,,,,,m,1,0.395,,,,,,,,0,105,105,30,1
,,,,,,,,,,,,,,,,,198991,18,2022-01-28_23h25.20.700,lexical_decision_task_DD,2021.2.3,MacIntel,58.82352941,,,,,,,,,,,0.596,0,,,,,,,,,,,,,,,,,,,,,,,,-0.073333333,-0.413333333,0,0,0,,,,,,,BUNNY,HB,z,m,./images/BUNNYHB.png,,,,,,,,m,0,0.596,,,,,,,,0,106,106,97,1
,,,,,,,,,,,,,,,,,198991,18,2022-01-28_23h25.20.700,lexical_decision_task_DD,2021.2.3,MacIntel,58.82352941,,,,,,,,,,,0.396,1,,,,,,,,,,,,,,,,,,,,,,,,-0.073333333,-0.413333333,0,0,0,,,,,,,BRUSH,LB,z,m,./images/BRUSHLB.png,,,,,,,,z,1,0.396,,,,,,,,0,107,107,143,1
,,,,,,,,,,,,,,,,,198991,18,2022-01-28_23h25.20.700,lexical_decision_task_DD,2021.2.3,MacIntel,58.82352941,,,,,,,,,,,0.378,1,,,,,,,,,,,,,,,,,,,,,,,,-0.073333333,-0.413333333,0,0,0,,,,,,,JUNGLE,LB,m,m,./images/JUNGLELB.png,,,,,,,,m,1,0.378,,,,,,,,0,108,108,83,1
,,,,,,,,,,,,,,,,,198991,18,2022-01-28_23h25.20.700,lexical_decision_task_DD,2021.2.3,MacIntel,58.82352941,,,,,,,,,,,0.629,0,,,,,,,,,,,,,,,,,,,,,,,,-0.073333333,-0.413333333,0,0,0,,,,,,,STEAK,HB,z,m,./images/STEAKHB.png,,,,,,,,m,0,0.629,,,,,,,,0,109,109,115,1
,,,,,,,,,,,,,,,,,198991,18,2022-01-28_23h25.20.700,lexical_decision_task_DD,2021.2.3,MacIntel,58.82352941,,,,,,,,,,,1.112,1,,,,,,,,,,,,,,,,,,,,,,,,-0.073333333,-0.413333333,0,0,0,,,,,,,SQUARE,C,m,m,./images/SQUARE.png,,,,,,,,m,1,1.112,,,,,,,,0,110,110,6,1
,,,,,,,,,,,,,,,,,198991,18,2022-01-28_23h25.20.700,lexical_decision_task_DD,2021.2.3,MacIntel,58.82352941,,,,,,,,,,,2.66,1,,,,,,,,,,,,,,,,,,,,,,,,-0.073333333,-0.413333333,0,0,0,,,,,,,STOVE,LB,z,m,./images/STOVELB.png,,,,,,,,z,1,2.66,,,,,,,,0,111,111,86,1
,,,,,,,,,,,,,,,,,198991,18,2022-01-28_23h25.20.700,lexical_decision_task_DD,2021.2.3,MacIntel,58.82352941,,,,,,,,,,,2.186,1,,,,,,,,,,,,,,,,,,,,,,,,-0.073333333,-0.413333333,0,0,0,,,,,,,FLESH,C,z,m,./images/FLESH.png,,,,,,,,z,1,2.186,,,,,,,,0,112,112,108,1
,,,,,,,,,,,,,,,,,198991,18,2022-01-28_23h25.20.700,lexical_decision_task_DD,2021.2.3,MacIntel,58.82352941,,,,,,,,,,,1.033,1,,,,,,,,,,,,,,,,,,,,,,,,-0.073333333,-0.413333333,0,0,0,,,,,,,TOWEL,HB,z,m,./images/TOWELHB.png,,,,,,,,z,1,1.033,,,,,,,,0,113,113,85,1
,,,,,,,,,,,,,,,,,198991,18,2022-01-28_23h25.20.700,lexical_decision_task_DD,2021.2.3,MacIntel,58.82352941,,,,,,,,,,,0.985,1,,,,,,,,,,,,,,,,,,,,,,,,-0.073333333,-0.413333333,0,0,0,,,,,,,CLOUD,LB,z,m,./images/CLOUDLB.png,,,,,,,,z,1,0.985,,,,,,,,0,114,114,110,1
,,,,,,,,,,,,,,,,,198991,18,2022-01-28_23h25.20.700,lexical_decision_task_DD,2021.2.3,MacIntel,58.82352941,,,,,,,,,,,0.929,1,,,,,,,,,,,,,,,,,,,,,,,,-0.073333333,-0.413333333,0,0,0,,,,,,,NOOSE,C,m,m,./images/NOOSE.png,,,,,,,,m,1,0.929,,,,,,,,0,115,115,72,1
,,,,,,,,,,,,,,,,,198991,18,2022-01-28_23h25.20.700,lexical_decision_task_DD,2021.2.3,MacIntel,58.82352941,,,,,,,,,,,3.129,1,,,,,,,,,,,,,,,,,,,,,,,,-0.073333333,-0.413333333,0,0,0,,,,,,,BROOM,C,z,m,./images/BROOM.png,,,,,,,,z,1,3.129,,,,,,,,0,116,116,162,1
,,,,,,,,,,,,,,,,,198991,18,2022-01-28_23h25.20.700,lexical_decision_task_DD,2021.2.3,MacIntel,58.82352941,,,,,,,,,,,1.172,0,,,,,,,,,,,,,,,,,,,,,,,,-0.073333333,-0.413333333,0,0,0,,,,,,,BLOKE,C,z,m,./images/BLOKE.png,,,,,,,,m,0,1.172,,,,,,,,0,117,117,96,1
,,,,,,,,,,,,,,,,,198991,18,2022-01-28_23h25.20.700,lexical_decision_task_DD,2021.2.3,MacIntel,58.82352941,,,,,,,,,,,0.361,1,,,,,,,,,,,,,,,,,,,,,,,,-0.073333333,-0.413333333,0,0,0,,,,,,,PASTA,LB,m,m,./images/PASTALB.png,,,,,,,,m,1,0.361,,,,,,,,0,118,118,5,1
,,,,,,,,,,,,,,,,,198991,18,2022-01-28_23h25.20.700,lexical_decision_task_DD,2021.2.3,MacIntel,58.82352941,,,,,,,,,,,0.346,1,,,,,,,,,,,,,,,,,,,,,,,,-0.073333333,-0.413333333,0,0,0,,,,,,,LADDER,LB,m,m,./images/LADDERLB.png,,,,,,,,m,1,0.346,,,,,,,,0,119,119,38,1
,,,,,,,,,,,,,,,,,198991,18,2022-01-28_23h25.20.700,lexical_decision_task_DD,2021.2.3,MacIntel,58.82352941,,,,,,,,,,,0.362,1,,,,,,,,,,,,,,,,,,,,,,,,-0.073333333,-0.413333333,0,0,0,,,,,,,WAGON,HB,z,m,./images/WAGONHB.png,,,,,,,,z,1,0.362,,,,,,,,0,120,120,91,1
,,,,,,,,,,,,,,,,,198991,18,2022-01-28_23h25.20.700,lexical_decision_task_DD,2021.2.3,MacIntel,58.82352941,,,,,,,,,,,0.441,0,,,,,,,,,,,,,,,,,,,,,,,,-0.073333333,-0.413333333,0,0,0,,,,,,,JAGUAR,C,m,m,./images/JAGUAR.png,,,,,,,,z,0,0.441,,,,,,,,0,121,121,18,1
,,,,,,,,,,,,,,,,,198991,18,2022-01-28_23h25.20.700,lexical_decision_task_DD,2021.2.3,MacIntel,58.82352941,,,,,,,,,,,0.26,0,,,,,,,,,,,,,,,,,,,,,,,,-0.073333333,-0.413333333,0,0,0,,,,,,,BAMBOO,LB,z,m,./images/BAMBOOLB.png,,,,,,,,m,0,0.26,,,,,,,,0,122,122,89,1
,,,,,,,,,,,,,,,,,198991,18,2022-01-28_23h25.20.700,lexical_decision_task_DD,2021.2.3,MacIntel,58.82352941,,,,,,,,,,,0.151,1,,,,,,,,,,,,,,,,,,,,,,,,-0.073333333,-0.413333333,0,0,0,,,,,,,KITTEN,C,m,m,./images/KITTEN.png,,,,,,,,m,1,0.151,,,,,,,,0,123,123,45,1
,,,,,,,,,,,,,,,,,198991,18,2022-01-28_23h25.20.700,lexical_decision_task_DD,2021.2.3,MacIntel,58.82352941,,,,,,,,,,,0.371,0,,,,,,,,,,,,,,,,,,,,,,,,-0.073333333,-0.413333333,0,0,0,,,,,,,STATUE,C,z,m,./images/STATUE.png,,,,,,,,m,0,0.371,,,,,,,,0,124,124,150,1
,,,,,,,,,,,,,,,,,198991,18,2022-01-28_23h25.20.700,lexical_decision_task_DD,2021.2.3,MacIntel,58.82352941,,,,,,,,,,,0.395,0,,,,,,,,,,,,,,,,,,,,,,,,-0.073333333,-0.413333333,0,0,0,space,,,,,,GRAPE,HB,z,m,./images/GRAPEHB.png,1.435,,,,,,,m,0,0.395,,,,,,,,0,125,125,100,1
,,,,,,,,,,,,,,,,,198991,18,2022-01-28_23h25.20.700,lexical_decision_task_DD,2021.2.3,MacIntel,58.82352941,,,,,,,,,,,4.713,1,,,,,,,,,,,,,,,,,,,,,,,,-0.073333333,-0.413333333,0,0,0,,,,,,,MAGGOT,C,m,m,./images/MAGGOT.png,,,,,,,,m,1,4.713,,,,,,,,0,126,126,33,1
,,,,,,,,,,,,,,,,,198991,18,2022-01-28_23h25.20.700,lexical_decision_task_DD,2021.2.3,MacIntel,58.82352941,,,,,,,,,,,1.294,1,,,,,,,,,,,,,,,,,,,,,,,,-0.073333333,-0.413333333,0,0,0,,,,,,,MOSQUE,HB,m,m,./images/MOSQUEHB.png,,,,,,,,m,1,1.294,,,,,,,,0,127,127,43,1
,,,,,,,,,,,,,,,,,198991,18,2022-01-28_23h25.20.700,lexical_decision_task_DD,2021.2.3,MacIntel,58.82352941,,,,,,,,,,,0.9,1,,,,,,,,,,,,,,,,,,,,,,,,-0.073333333,-0.413333333,0,0,0,,,,,,,THROAT,C,m,m,./images/THROAT.png,,,,,,,,m,1,0.9,,,,,,,,0,128,128,36,1
,,,,,,,,,,,,,,,,,198991,18,2022-01-28_23h25.20.700,lexical_decision_task_DD,2021.2.3,MacIntel,58.82352941,,,,,,,,,,,0.795,1,,,,,,,,,,,,,,,,,,,,,,,,-0.073333333,-0.413333333,0,0,0,,,,,,,WRIST,HB,m,m,./images/WRISTHB.png,,,,,,,,m,1,0.795,,,,,,,,0,129,129,25,1
,,,,,,,,,,,,,,,,,198991,18,2022-01-28_23h25.20.700,lexical_decision_task_DD,2021.2.3,MacIntel,58.82352941,,,,,,,,,,,1.102,1,,,,,,,,,,,,,,,,,,,,,,,,-0.073333333,-0.413333333,0,0,0,,,,,,,PURSE,LB,m,m,./images/PURSELB.png,,,,,,,,m,1,1.102,,,,,,,,0,130,130,62,1
,,,,,,,,,,,,,,,,,198991,18,2022-01-28_23h25.20.700,lexical_decision_task_DD,2021.2.3,MacIntel,58.82352941,,,,,,,,,,,0.796,1,,,,,,,,,,,,,,,,,,,,,,,,-0.073333333,-0.413333333,0,0,0,,,,,,,TRIPOD,C,m,m,./images/TRIPOD.png,,,,,,,,m,1,0.796,,,,,,,,0,131,131,54,1
,,,,,,,,,,,,,,,,,198991,18,2022-01-28_23h25.20.700,lexical_decision_task_DD,2021.2.3,MacIntel,58.82352941,,,,,,,,,,,0.529,1,,,,,,,,,,,,,,,,,,,,,,,,-0.073333333,-0.413333333,0,0,0,,,,,,,TOMATO,C,m,m,./images/TOMATO.png,,,,,,,,m,1,0.529,,,,,,,,0,132,132,0,1
,,,,,,,,,,,,,,,,,198991,18,2022-01-28_23h25.20.700,lexical_decision_task_DD,2021.2.3,MacIntel,58.82352941,,,,,,,,,,,0.539,0,,,,,,,,,,,,,,,,,,,,,,,,-0.073333333,-0.413333333,0,0,0,,,,,,,CURRY,C,z,m,./images/CURRY.png,,,,,,,,m,0,0.539,,,,,,,,0,133,133,144,1
,,,,,,,,,,,,,,,,,198991,18,2022-01-28_23h25.20.700,lexical_decision_task_DD,2021.2.3,MacIntel,58.82352941,,,,,,,,,,,1.197,0,,,,,,,,,,,,,,,,,,,,,,,,-0.073333333,-0.413333333,0,0,0,,,,,,,FLASK,C,z,m,./images/FLASK.png,,,,,,,,m,0,1.197,,,,,,,,0,134,134,156,1
,,,,,,,,,,,,,,,,,198991,18,2022-01-28_23h25.20.700,lexical_decision_task_DD,2021.2.3,MacIntel,58.82352941,,,,,,,,,,,1.178,0,,,,,,,,,,,,,,,,,,,,,,,,-0.073333333,-0.413333333,0,0,0,,,,,,,CARPET,LB,m,m,./images/CARPETLB.png,,,,,,,,z,0,1.178,,,,,,,,0,135,135,53,1
,,,,,,,,,,,,,,,,,198991,18,2022-01-28_23h25.20.700,lexical_decision_task_DD,2021.2.3,MacIntel,58.82352941,,,,,,,,,,,1.21,1,,,,,,,,,,,,,,,,,,,,,,,,-0.073333333,-0.413333333,0,0,0,,,,,,,RHINO,C,m,m,./images/RHINO.png,,,,,,,,m,1,1.21,,,,,,,,0,136,136,9,1
,,,,,,,,,,,,,,,,,198991,18,2022-01-28_23h25.20.700,lexical_decision_task_DD,2021.2.3,MacIntel,58.82352941,,,,,,,,,,,0.915,1,,,,,,,,,,,,,,,,,,,,,,,,-0.073333333,-0.413333333,0,0,0,,,,,,,TIGER,HB,z,m,./images/TIGERHB.png,,,,,,,,z,1,0.915,,,,,,,,0,137,137,121,1
,,,,,,,,,,,,,,,,,198991,18,2022-01-28_23h25.20.700,lexical_decision_task_DD,2021.2.3,MacIntel,58.82352941,,,,,,,,,,,1.374,1,,,,,,,,,,,,,,,,,,,,,,,,-0.073333333,-0.413333333,0,0,0,,,,,,,ARTIST,HB,z,m,./images/ARTISTHB.png,,,,,,,,z,1,1.374,,,,,,,,0,138,138,145,1
,,,,,,,,,,,,,,,,,198991,18,2022-01-28_23h25.20.700,lexical_decision_task_DD,2021.2.3,MacIntel,58.82352941,,,,,,,,,,,1.26,1,,,,,,,,,,,,,,,,,,,,,,,,-0.073333333,-0.413333333,0,0,0,,,,,,,SPORT,C,m,m,./images/SPORT.png,,,,,,,,m,1,1.26,,,,,,,,0,139,139,48,1
,,,,,,,,,,,,,,,,,198991,18,2022-01-28_23h25.20.700,lexical_decision_task_DD,2021.2.3,MacIntel,58.82352941,,,,,,,,,,,0.478,0,,,,,,,,,,,,,,,,,,,,,,,,-0.073333333,-0.413333333,0,0,0,,,,,,,CLIFF,LB,z,m,./images/CLIFFLB.png,,,,,,,,m,0,0.478,,,,,,,,0,140,140,92,1
,,,,,,,,,,,,,,,,,198991,18,2022-01-28_23h25.20.700,lexical_decision_task_DD,2021.2.3,MacIntel,58.82352941,,,,,,,,,,,0.728,1,,,,,,,,,,,,,,,,,,,,,,,,-0.073333333,-0.413333333,0,0,0,,,,,,,DOUGH,HB,m,m,./images/DOUGHHB.png,,,,,,,,m,1,0.728,,,,,,,,0,141,141,19,1
,,,,,,,,,,,,,,,,,198991,18,2022-01-28_23h25.20.700,lexical_decision_task_DD,2021.2.3,MacIntel,58.82352941,,,,,,,,,,,0.54,1,,,,,,,,,,,,,,,,,,,,,,,,-0.073333333,-0.413333333,0,0,0,,,,,,,BRIDE,HB,z,m,./images/BRIDEHB.png,,,,,,,,z,1,0.54,,,,,,,,0,142,142,148,1
,,,,,,,,,,,,,,,,,198991,18,2022-01-28_23h25.20.700,lexical_decision_task_DD,2021.2.3,MacIntel,58.82352941,,,,,,,,,,,0.328,1,,,,,,,,,,,,,,,,,,,,,,,,-0.073333333,-0.413333333,0,0,0,,,,,,,ALLEY,HB,z,m,./images/ALLEYHB.png,,,,,,,,z,1,0.328,,,,,,,,0,143,143,139,1
,,,,,,,,,,,,,,,,,198991,18,2022-01-28_23h25.20.700,lexical_decision_task_DD,2021.2.3,MacIntel,58.82352941,,,,,,,,,,,0.496,1,,,,,,,,,,,,,,,,,,,,,,,,-0.073333333,-0.413333333,0,0,0,,,,,,,GARDEN,HB,z,m,./images/GARDENHB.png,,,,,,,,z,1,0.496,,,,,,,,0,144,144,94,1
,,,,,,,,,,,,,,,,,198991,18,2022-01-28_23h25.20.700,lexical_decision_task_DD,2021.2.3,MacIntel,58.82352941,,,,,,,,,,,0.578,1,,,,,,,,,,,,,,,,,,,,,,,,-0.073333333,-0.413333333,0,0,0,,,,,,,PEBBLE,HB,z,m,./images/PEBBLEHB.png,,,,,,,,z,1,0.578,,,,,,,,0,145,145,166,1
,,,,,,,,,,,,,,,,,198991,18,2022-01-28_23h25.20.700,lexical_decision_task_DD,2021.2.3,MacIntel,58.82352941,,,,,,,,,,,0.778,1,,,,,,,,,,,,,,,,,,,,,,,,-0.073333333,-0.413333333,0,0,0,,,,,,,PARADE,LB,z,m,./images/PARADELB.png,,,,,,,,z,1,0.778,,,,,,,,0,146,146,101,1
,,,,,,,,,,,,,,,,,198991,18,2022-01-28_23h25.20.700,lexical_decision_task_DD,2021.2.3,MacIntel,58.82352941,,,,,,,,,,,0.664,1,,,,,,,,,,,,,,,,,,,,,,,,-0.073333333,-0.413333333,0,0,0,,,,,,,PARCEL,C,z,m,./images/PARCEL.png,,,,,,,,z,1,0.664,,,,,,,,0,147,147,102,1
,,,,,,,,,,,,,,,,,198991,18,2022-01-28_23h25.20.700,lexical_decision_task_DD,2021.2.3,MacIntel,58.82352941,,,,,,,,,,,0.579,0,,,,,,,,,,,,,,,,,,,,,,,,-0.073333333,-0.413333333,0,0,0,,,,,,,CRUST,HB,m,m,./images/CRUSTHB.png,,,,,,,,z,0,0.579,,,,,,,,0,148,148,79,1
,,,,,,,,,,,,,,,,,198991,18,2022-01-28_23h25.20.700,lexical_decision_task_DD,2021.2.3,MacIntel,58.82352941,,,,,,,,,,,0.445,0,,,,,,,,,,,,,,,,,,,,,,,,-0.073333333,-0.413333333,0,0,0,,,,,,,POSTER,LB,z,m,./images/POSTERLB.png,,,,,,,,m,0,0.445,,,,,,,,0,149,149,137,1
,,,,,,,,,,,,,,,,,198991,18,2022-01-28_23h25.20.700,lexical_decision_task_DD,2021.2.3,MacIntel,58.82352941,,,,,,,,,,,0.715,1,,,,,,,,,,,,,,,,,,,,,,,,-0.073333333,-0.413333333,0,0,0,,,,,,,PENCE,HB,m,m,./images/PENCEHB.png,,,,,,,,m,1,0.715,,,,,,,,0,150,150,16,1
,,,,,,,,,,,,,,,,,198991,18,2022-01-28_23h25.20.700,lexical_decision_task_DD,2021.2.3,MacIntel,58.82352941,,,,,,,,,,,1.328,1,,,,,,,,,,,,,,,,,,,,,,,,-0.073333333,-0.413333333,0,0,0,,,,,,,WALRUS,LB,m,m,./images/WALRUSLB.png,,,,,,,,m,1,1.328,,,,,,,,0,151,151,23,1
,,,,,,,,,,,,,,,,,198991,18,2022-01-28_23h25.20.700,lexical_decision_task_DD,2021.2.3,MacIntel,58.82352941,,,,,,,,,,,8.911,0,,,,,,,,,,,,,,,,,,,,,,,,-0.073333333,-0.413333333,0,0,0,,,,,,,TWINS,C,m,m,./images/TWINS.png,,,,,,,,z,0,8.911,,,,,,,,0,152,152,60,1
,,,,,,,,,,,,,,,,,198991,18,2022-01-28_23h25.20.700,lexical_decision_task_DD,2021.2.3,MacIntel,58.82352941,,,,,,,,,,,2.511,1,,,,,,,,,,,,,,,,,,,,,,,,-0.073333333,-0.413333333,0,0,0,,,,,,,SAUNA,C,z,m,./images/SAUNA.png,,,,,,,,z,1,2.511,,,,,,,,0,153,153,117,1
,,,,,,,,,,,,,,,,,198991,18,2022-01-28_23h25.20.700,lexical_decision_task_DD,2021.2.3,MacIntel,58.82352941,,,,,,,,,,,0.879,0,,,,,,,,,,,,,,,,,,,,,,,,-0.073333333,-0.413333333,0,0,0,,,,,,,CANDLE,HB,m,m,./images/CANDLEHB.png,,,,,,,,z,0,0.879,,,,,,,,0,154,154,61,1
,,,,,,,,,,,,,,,,,198991,18,2022-01-28_23h25.20.700,lexical_decision_task_DD,2021.2.3,MacIntel,58.82352941,,,,,,,,,,,4.06,0,,,,,,,,,,,,,,,,,,,,,,,,-0.073333333,-0.413333333,0,0,0,,,,,,,PICKLE,LB,m,m,./images/PICKLELB.png,,,,,,,,z,0,4.06,,,,,,,,0,155,155,14,1
,,,,,,,,,,,,,,,,,198991,18,2022-01-28_23h25.20.700,lexical_decision_task_DD,2021.2.3,MacIntel,58.82352941,,,,,,,,,,,4.996,1,,,,,,,,,,,,,,,,,,,,,,,,-0.073333333,-0.413333333,0,0,0,,,,,,,VALLEY,LB,z,m,./images/VALLEYLB.png,,,,,,,,z,1,4.996,,,,,,,,0,156,156,152,1
,,,,,,,,,,,,,,,,,198991,18,2022-01-28_23h25.20.700,lexical_decision_task_DD,2021.2.3,MacIntel,58.82352941,,,,,,,,,,,0.746,0,,,,,,,,,,,,,,,,,,,,,,,,-0.073333333,-0.413333333,0,0,0,,,,,,,CANYON,HB,m,m,./images/CANYONHB.png,,,,,,,,z,0,0.746,,,,,,,,0,157,157,34,1
,,,,,,,,,,,,,,,,,198991,18,2022-01-28_23h25.20.700,lexical_decision_task_DD,2021.2.3,MacIntel,58.82352941,,,,,,,,,,,0.844,1,,,,,,,,,,,,,,,,,,,,,,,,-0.073333333,-0.413333333,0,0,0,,,,,,,CLOTH,LB,z,m,./images/CLOTHLB.png,,,,,,,,z,1,0.844,,,,,,,,0,158,158,107,1
,,,,,,,,,,,,,,,,,198991,18,2022-01-28_23h25.20.700,lexical_decision_task_DD,2021.2.3,MacIntel,58.82352941,,,,,,,,,,,0.81,1,,,,,,,,,,,,,,,,,,,,,,,,-0.073333333,-0.413333333,0,0,0,,,,,,,DONKEY,HB,z,m,./images/DONKEYHB.png,,,,,,,,z,1,0.81,,,,,,,,0,159,159,103,1
,,,,,,,,,,,,,,,,,198991,18,2022-01-28_23h25.20.700,lexical_decision_task_DD,2021.2.3,MacIntel,58.82352941,,,,,,,,,,,0.382,0,,,,,,,,,,,,,,,,,,,,,,,,-0.073333333,-0.413333333,0,0,0,,,,,,,SHELF,C,m,m,./images/SHELF.png,,,,,,,,z,0,0.382,,,,,,,,0,160,160,39,1
,,,,,,,,,,,,,,,,,198991,18,2022-01-28_23h25.20.700,lexical_decision_task_DD,2021.2.3,MacIntel,58.82352941,,,,,,,,,,,0.805,1,,,,,,,,,,,,,,,,,,,,,,,,-0.073333333,-0.413333333,0,0,0,,,,,,,STRING,LB,m,m,./images/STRINGLB.png,,,,,,,,m,1,0.805,,,,,,,,0,161,161,41,1
,,,,,,,,,,,,,,,,,198991,18,2022-01-28_23h25.20.700,lexical_decision_task_DD,2021.2.3,MacIntel,58.82352941,,,,,,,,,,,0.571,1,,,,,,,,,,,,,,,,,,,,,,,,-0.073333333,-0.413333333,0,0,0,,,,,,,GRAIN,C,m,m,./images/GRAIN.png,,,,,,,,m,1,0.571,,,,,,,,0,162,162,75,1
,,,,,,,,,,,,,,,,,198991,18,2022-01-28_23h25.20.700,lexical_decision_task_DD,2021.2.3,MacIntel,58.82352941,,,,,,,,,,,1.05,1,,,,,,,,,,,,,,,,,,,,,,,,-0.073333333,-0.413333333,0,0,0,,,,,,,SNACK,HB,m,m,./images/SNACKHB.png,,,,,,,,m,1,1.05,,,,,,,,0,163,163,73,1
,,,,,,,,,,,,,,,,,198991,18,2022-01-28_23h25.20.700,lexical_decision_task_DD,2021.2.3,MacIntel,58.82352941,,,,,,,,,,,2.416,1,,,,,,,,,,,,,,,,,,,,,,,,-0.073333333,-0.413333333,0,0,0,,,,,,,BANANA,HB,z,m,./images/BANANAHB.png,,,,,,,,z,1,2.416,,,,,,,,0,164,164,154,1
,,,,,,,,,,,,,,,,,198991,18,2022-01-28_23h25.20.700,lexical_decision_task_DD,2021.2.3,MacIntel,58.82352941,,,,,,,,,,,0.612,0,,,,,,,,,,,,,,,,,,,,,,,,-0.073333333,-0.413333333,0,0,0,,,,,,,KIDNEY,C,m,m,./images/KIDNEY.png,,,,,,,,z,0,0.612,,,,,,,,0,165,165,21,1
,,,,,,,,,,,,,,,,,198991,18,2022-01-28_23h25.20.700,lexical_decision_task_DD,2021.2.3,MacIntel,58.82352941,,,,,,,,,,,0.787,0,,,,,,,,,,,,,,,,,,,,,,,,-0.073333333,-0.413333333,0,0,0,,,,,,,LAGOON,LB,z,m,./images/LAGOONLB.png,,,,,,,,m,0,0.787,,,,,,,,0,166,166,131,1
,,,,,,,,,,,,,,,,,198991,18,2022-01-28_23h25.20.700,lexical_decision_task_DD,2021.2.3,MacIntel,58.82352941,,,,,,,,,,,1.943,0,,,,,,,,,,,,,,,,,,,,,,,,-0.073333333,-0.413333333,0,0,0,,,,,,,BASKET,LB,z,m,./images/BASKETLB.png,,,,,,,,m,0,1.943,,,,,,,,0,167,167,128,1
