key_resp.keys,instr_done_touch.x,instr_done_touch.y,instr_done_touch.leftButton,instr_done_touch.midButton,instr_done_touch.rightButton,instr_done_touch.clicked_name,instruction_pages.thisRepN,instruction_pages.thisTrialN,instruction_pages.thisN,instruction_pages.thisIndex,instruction_pages.ran,pageN,phase,instruct_text,has_image,instruct_image,participant,age,date,expName,psychopyVersion,OS,frameRate,response.keys,response.corr,touch_resp.x,touch_resp.y,touch_resp.leftButton,touch_resp.midButton,touch_resp.rightButton,touch_resp.time,touch_resp.clicked_name,rt,corr,practrials.thisRepN,practrials.thisTrialN,practrials.thisN,practrials.thisIndex,practrials.ran,TrialID,Target,corrAns,end_of_practice_trials_pages.thisRepN,end_of_practice_trials_pages.thisTrialN,end_of_practice_trials_pages.thisN,end_of_practice_trials_pages.thisIndex,end_of_practice_trials_pages.ran,key_resp_2.keys,key_resp_2.corr,targ_click.x,targ_click.y,targ_click.leftButton,targ_click.midButton,targ_click.rightButton,targ_click.time,targ_click.clicked_name,break_done_touch.x,break_done_touch.y,break_done_touch.leftButton,break_done_touch.midButton,break_done_touch.rightButton,break_done_keyboard.keys,maintrials.thisRepN,maintrials.thisTrialN,maintrials.thisN,maintrials.thisIndex,maintrials.ran,string,blur,study,lex,stim_path,break_done_touch.clicked_name,test_instructions.thisRepN,test_instructions.thisTrialN,test_instructions.thisN,test_instructions.thisIndex,test_instructions.ran,key_resp.rt,key_resp_3.keys,key_resp_3.corr,test_click.x,test_click.y,test_click.leftButton,test_click.midButton,test_click.rightButton,test_click.time,test_click.clicked_name,test_phase.thisRepN,test_phase.thisTrialN,test_phase.thisN,test_phase.thisIndex,test_phase.ran
,-0.086111111,-0.387963019,1,0,0,instr_done_button,0,0,0,0,1,1,instructions,"INSTRUCTIONS
At the start of each trial, look at the plus sign  (+) in the center of the screen.  This tells you that a trial is about to begin and where to look. Second, the plus sign will disappear and a string of letters will appear. Your task is to determine if the string of letters is a word or not. If the item is a word press the M key (on keyboard)  or touch the word button (phone/tablet).  If the item is not a word,  press the  Z key (on keyboard)  or touch the nonword button (on phone/tablet). 
Press the space bar or touch  continue.",0,,198931,18,2022-01-29_11h19.07.551,lexical_decision_task_DD_L6,2021.2.3,Win32,61.13964294,,,,,,,,,,,,,,,,,,,,,,,,,,,,,,,,,,,,,,,,,,,,,,,,,,,,,,,,,,,,,,,,,,,,,,
,0.139814843,-0.411111111,1,0,0,instr_done_button,0,1,1,1,1,2,instructions,"If your device has a keyboard, press the 'Z' key for nonwords and the 'M' key for words.





Press the space bar or touch the button below to continue.",0,keyboard-example.gif,198931,18,2022-01-29_11h19.07.551,lexical_decision_task_DD_L6,2021.2.3,Win32,61.13964294,,,,,,,,,,,,,,,,,,,,,,,,,,,,,,,,,,,,,,,,,,,,,,,,,,,,,,,,,,,,,,,,,,,,,,
,-0.059259203,-0.401851908,1,0,0,instr_done_button,0,2,2,2,1,3,instructions,"If you are using a touchscreen only device, use the buttons on the screen. Do not use the mouse.





Press the space bar or touch the button below to continue.",0,touchscreen-example.gif,198931,18,2022-01-29_11h19.07.551,lexical_decision_task_DD_L6,2021.2.3,Win32,61.13964294,,,,,,,,,,,,,,,,,,,,,,,,,,,,,,,,,,,,,,,,,,,,,,,,,,,,,,,,,,,,,,,,,,,,,,
,0.020370399,-0.416666667,1,0,0,instr_done_button,0,3,3,3,1,4,instructions,"It is very important that you respond as quickly and accurately as possible, as each letter string will only be on the screen for two seconds. If you do not respond within this time, the message 'Too slow!' will be displayed and the experiment will progress to the next letter string. The first 20 trials will be practice trials and you will receive feedback on your answers. 

Press the space bar or touch the button below to start the practice trials.",0,,198931,18,2022-01-29_11h19.07.551,lexical_decision_task_DD_L6,2021.2.3,Win32,61.13964294,,,,,,,,,,,,,,,,,,,,,,,,,,,,,,,,,,,,,,,,,,,,,,,,,,,,,,,,,,,,,,,,,,,,,,
,,,,,,,,,,,,,,,,,198931,18,2022-01-29_11h19.07.551,lexical_decision_task_DD_L6,2021.2.3,Win32,61.13964294,,0,0.275,-0.316666667,1,0,0,2.8751,button_right,2.8751,0,0,0,0,8,1,1001,ASLERT,z,,,,,,,,,,,,,,,,,,,,,,,,,,,,,,,,,,,,,,,,,,,,,,,,,,,
,,,,,,,,,,,,,,,,,198931,18,2022-01-29_11h19.07.551,lexical_decision_task_DD_L6,2021.2.3,Win32,61.13964294,,0,-0.267592578,-0.328703732,1,0,0,2.6474,button_left,2.6474,1,0,1,1,15,1,1001,WHAISE,z,,,,,,,,,,,,,,,,,,,,,,,,,,,,,,,,,,,,,,,,,,,,,,,,,,,
,,,,,,,,,,,,,,,,,198931,18,2022-01-29_11h19.07.551,lexical_decision_task_DD_L6,2021.2.3,Win32,61.13964294,,0,-0.265740712,-0.350925954,1,0,0,3.1506,button_left,3.1506,1,0,2,2,11,1,1001,RASHET,z,,,,,,,,,,,,,,,,,,,,,,,,,,,,,,,,,,,,,,,,,,,,,,,,,,,
,,,,,,,,,,,,,,,,,198931,18,2022-01-29_11h19.07.551,lexical_decision_task_DD_L6,2021.2.3,Win32,61.13964294,,0,0.307407464,-0.324074131,1,0,0,1.7139,button_right,1.7139,1,0,3,3,1,1,1001,ADJUST,m,,,,,,,,,,,,,,,,,,,,,,,,,,,,,,,,,,,,,,,,,,,,,,,,,,,
,,,,,,,,,,,,,,,,,198931,18,2022-01-29_11h19.07.551,lexical_decision_task_DD_L6,2021.2.3,Win32,61.13964294,,0,-0.358333333,-0.325925954,1,0,0,1.2839,button_left,1.2839,1,0,4,4,13,1,1001,ROUPET,z,,,,,,,,,,,,,,,,,,,,,,,,,,,,,,,,,,,,,,,,,,,,,,,,,,,
,,,,,,,,,,,,,,,,,198931,18,2022-01-29_11h19.07.551,lexical_decision_task_DD_L6,2021.2.3,Win32,61.13964294,,0,-0.283333333,-0.345370399,1,0,0,1.581,button_left,1.581,1,0,5,5,14,1,1001,THRALE,z,,,,,,,,,,,,,,,,,,,,,,,,,,,,,,,,,,,,,,,,,,,,,,,,,,,
,,,,,,,,,,,,,,,,,198931,18,2022-01-29_11h19.07.551,lexical_decision_task_DD_L6,2021.2.3,Win32,61.13964294,,0,0.292592621,-0.337963019,1,0,0,1.1631,button_right,1.1631,1,0,6,6,5,1,1001,OBTAIN,m,,,,,,,,,,,,,,,,,,,,,,,,,,,,,,,,,,,,,,,,,,,,,,,,,,,
,,,,,,,,,,,,,,,,,198931,18,2022-01-29_11h19.07.551,lexical_decision_task_DD_L6,2021.2.3,Win32,61.13964294,,0,0.327777778,-0.347222222,1,0,0,1.2152,button_right,1.2152,1,0,7,7,6,1,1001,ZOMBIE,m,,,,,,,,,,,,,,,,,,,,,,,,,,,,,,,,,,,,,,,,,,,,,,,,,,,
,,,,,,,,,,,,,,,,,198931,18,2022-01-29_11h19.07.551,lexical_decision_task_DD_L6,2021.2.3,Win32,61.13964294,,0,0.307407464,-0.35,1,0,0,1.164,button_right,1.164,1,0,8,8,3,1,1001,MATRIX,m,,,,,,,,,,,,,,,,,,,,,,,,,,,,,,,,,,,,,,,,,,,,,,,,,,,
,,,,,,,,,,,,,,,,,198931,18,2022-01-29_11h19.07.551,lexical_decision_task_DD_L6,2021.2.3,Win32,61.13964294,,0,0.236111111,-0.363888889,1,0,0,1.1334,button_right,1.1334,0,0,9,9,12,1,1001,SPRINY,z,,,,,,,,,,,,,,,,,,,,,,,,,,,,,,,,,,,,,,,,,,,,,,,,,,,
,,,,,,,,,,,,,,,,,198931,18,2022-01-29_11h19.07.551,lexical_decision_task_DD_L6,2021.2.3,Win32,61.13964294,,0,0.267592621,-0.358333333,1,0,0,1.0645,button_right,1.0645,1,0,10,10,0,1,1001,UTOPIA,m,,,,,,,,,,,,,,,,,,,,,,,,,,,,,,,,,,,,,,,,,,,,,,,,,,,
,,,,,,,,,,,,,,,,,198931,18,2022-01-29_11h19.07.551,lexical_decision_task_DD_L6,2021.2.3,Win32,61.13964294,,0,-0.206481467,-0.355555556,1,0,0,1.1642,button_left,1.1642,1,0,11,11,10,1,1001,INLADE,z,,,,,,,,,,,,,,,,,,,,,,,,,,,,,,,,,,,,,,,,,,,,,,,,,,,
,,,,,,,,,,,,,,,,,198931,18,2022-01-29_11h19.07.551,lexical_decision_task_DD_L6,2021.2.3,Win32,61.13964294,,0,0.251851908,-0.35,1,0,0,0.9811,button_right,0.9811,1,0,12,12,2,1,1001,ALMOND,m,,,,,,,,,,,,,,,,,,,,,,,,,,,,,,,,,,,,,,,,,,,,,,,,,,,
,,,,,,,,,,,,,,,,,198931,18,2022-01-29_11h19.07.551,lexical_decision_task_DD_L6,2021.2.3,Win32,61.13964294,,0,0.275,-0.384259288,1,0,0,1.0002,button_right,1.0002,1,0,13,13,4,1,1001,SQUEAK,m,,,,,,,,,,,,,,,,,,,,,,,,,,,,,,,,,,,,,,,,,,,,,,,,,,,
,,,,,,,,,,,,,,,,,198931,18,2022-01-29_11h19.07.551,lexical_decision_task_DD_L6,2021.2.3,Win32,61.13964294,,0,0.252777778,-0.364814843,1,0,0,0.9135,button_right,0.9135,1,0,14,14,7,1,1001,VOLUME,m,,,,,,,,,,,,,,,,,,,,,,,,,,,,,,,,,,,,,,,,,,,,,,,,,,,
,,,,,,,,,,,,,,,,,198931,18,2022-01-29_11h19.07.551,lexical_decision_task_DD_L6,2021.2.3,Win32,61.13964294,,0,-0.309259245,-0.35,1,0,0,1.2469,button_left,1.2469,1,0,15,15,9,1,1001,FARINY,z,,,,,,,,,,,,,,,,,,,,,,,,,,,,,,,,,,,,,,,,,,,,,,,,,,,
,0.057407464,-0.410185242,1,0,0,instr_done_button,,,,,,1,end_of_practice,"You have completed the practice trials. During the experimental trials, you will not receive feedback. 
Before you begin, please ensure that you are in a comfortable and quiet location and will not be disturbed for about 15 minutes, as we cannot use your data if you do not complete all the trials. 
 When you are ready to start the experimental trials, please press space or touch the button below.",,,198931,18,2022-01-29_11h19.07.551,lexical_decision_task_DD_L6,2021.2.3,Win32,61.13964294,,,,,,,,,,,,,,,,,,,,0,0,0,0,1,,,,,,,,,,,,,,,,,,,,,,,,,,,,,,,,,,,,,,,,,,,,,,
,,,,,,,,,,,,,,,,,198931,18,2022-01-29_11h19.07.551,lexical_decision_task_DD_L6,2021.2.3,Win32,61.13964294,,,,,,,,,,1.5951,1,,,,,,,,,,,,,,,0,-0.254629601,-0.324074131,1,0,0,1.5951,button_left_main,-0.254629601,-0.324074131,1,0,0,,0,0,0,86,1,AIFED,LB,old,z,./images/AIFEDLB.png,,,,,,,,,,,,,,,,,,,,,
,,,,,,,,,,,,,,,,,198931,18,2022-01-29_11h19.07.551,lexical_decision_task_DD_L6,2021.2.3,Win32,61.13964294,,,,,,,,,,1.1647,1,,,,,,,,,,,,,,,0,0.285185242,-0.369444444,1,0,0,1.1647,button_right_main,0.285185242,-0.369444444,1,0,0,,0,1,1,2,1,STOVE,HB,old,m,./images/STOVEHB.png,,,,,,,,,,,,,,,,,,,,,
,,,,,,,,,,,,,,,,,198931,18,2022-01-29_11h19.07.551,lexical_decision_task_DD_L6,2021.2.3,Win32,61.13964294,,,,,,,,,,1.5133,1,,,,,,,,,,,,,,,0,-0.25,-0.344444444,1,0,0,1.5133,button_left_main,-0.25,-0.344444444,1,0,0,,0,2,2,135,1,JOODY,C,old,z,./images/JOODY.png,,,,,,,,,,,,,,,,,,,,,
,,,,,,,,,,,,,,,,,198931,18,2022-01-29_11h19.07.551,lexical_decision_task_DD_L6,2021.2.3,Win32,61.13964294,,,,,,,,,,0.9484,1,,,,,,,,,,,,,,,0,0.279629686,-0.371296353,1,0,0,0.9484,button_right_main,0.279629686,-0.371296353,1,0,0,,0,3,3,60,1,CURRY,LB,old,m,./images/CURRYLB.png,,,,,,,,,,,,,,,,,,,,,
,,,,,,,,,,,,,,,,,198931,18,2022-01-29_11h19.07.551,lexical_decision_task_DD_L6,2021.2.3,Win32,61.13964294,,,,,,,,,,1.748,0,,,,,,,,,,,,,,,0,0.262963019,-0.342592621,1,0,0,1.748,button_right_main,0.262963019,-0.342592621,1,0,0,,0,4,4,100,1,DRIBS,HB,old,z,./images/DRIBSHB.png,,,,,,,,,,,,,,,,,,,,,
,,,,,,,,,,,,,,,,,198931,18,2022-01-29_11h19.07.551,lexical_decision_task_DD_L6,2021.2.3,Win32,61.13964294,,,,,,,,,,1.1485,1,,,,,,,,,,,,,,,0,0.242592621,-0.366666667,1,0,0,1.1485,button_right_main,0.242592621,-0.366666667,1,0,0,,0,5,5,72,1,FLASK,LB,old,m,./images/FLASKLB.png,,,,,,,,,,,,,,,,,,,,,
,,,,,,,,,,,,,,,,,198931,18,2022-01-29_11h19.07.551,lexical_decision_task_DD_L6,2021.2.3,Win32,61.13964294,,,,,,,,,,1.413,1,,,,,,,,,,,,,,,0,-0.282407379,-0.311111111,1,0,0,1.413,button_left_main,-0.282407379,-0.311111111,1,0,0,,0,6,6,89,1,DRIEK,LB,old,z,./images/DRIEKLB.png,,,,,,,,,,,,,,,,,,,,,
,,,,,,,,,,,,,,,,,198931,18,2022-01-29_11h19.07.551,lexical_decision_task_DD_L6,2021.2.3,Win32,61.13964294,,,,,,,,,,2.7464,0,,,,,,,,,,,,,,,0,-0.285185157,-0.307407464,1,0,0,2.7464,button_left_main,-0.285185157,-0.307407464,1,0,0,,0,7,7,65,1,SPINE,HB,old,m,./images/SPINEHB.png,,,,,,,,,,,,,,,,,,,,,
,,,,,,,,,,,,,,,,,198931,18,2022-01-29_11h19.07.551,lexical_decision_task_DD_L6,2021.2.3,Win32,61.13964294,,,,,,,,,,1.1331,1,,,,,,,,,,,,,,,0,0.234259288,-0.336111111,1,0,0,1.1331,button_right_main,0.234259288,-0.336111111,1,0,0,,0,8,8,19,1,DONKEY,C,old,m,./images/DONKEY.png,,,,,,,,,,,,,,,,,,,,,
,,,,,,,,,,,,,,,,,198931,18,2022-01-29_11h19.07.551,lexical_decision_task_DD_L6,2021.2.3,Win32,61.13964294,,,,,,,,,,1.2819,1,,,,,,,,,,,,,,,0,-0.280555556,-0.344444444,1,0,0,1.2819,button_left_main,-0.280555556,-0.344444444,1,0,0,,0,9,9,111,1,HOSSE,C,old,z,./images/HOSSE.png,,,,,,,,,,,,,,,,,,,,,
,,,,,,,,,,,,,,,,,198931,18,2022-01-29_11h19.07.551,lexical_decision_task_DD_L6,2021.2.3,Win32,61.13964294,,,,,,,,,,0.9963,1,,,,,,,,,,,,,,,0,0.252777778,-0.362037065,1,0,0,0.9963,button_right_main,0.252777778,-0.362037065,1,0,0,,0,10,10,40,1,SNAKE,C,old,m,./images/SNAKE.png,,,,,,,,,,,,,,,,,,,,,
,,,,,,,,,,,,,,,,,198931,18,2022-01-29_11h19.07.551,lexical_decision_task_DD_L6,2021.2.3,Win32,61.13964294,,,,,,,,,,1.8652,0,,,,,,,,,,,,,,,0,-0.287037023,-0.319444444,1,0,0,1.8652,button_left_main,-0.287037023,-0.319444444,1,0,0,,0,11,11,12,1,BLOKE,LB,old,m,./images/BLOKELB.png,,,,,,,,,,,,,,,,,,,,,
,,,,,,,,,,,,,,,,,198931,18,2022-01-29_11h19.07.551,lexical_decision_task_DD_L6,2021.2.3,Win32,61.13964294,,,,,,,,,,1.2484,1,,,,,,,,,,,,,,,0,-0.317592578,-0.325,1,0,0,1.2484,button_left_main,-0.317592578,-0.325,1,0,0,,0,12,12,144,1,NAIRY,C,old,z,./images/NAIRY.png,,,,,,,,,,,,,,,,,,,,,
,,,,,,,,,,,,,,,,,198931,18,2022-01-29_11h19.07.551,lexical_decision_task_DD_L6,2021.2.3,Win32,61.13964294,,,,,,,,,,1.0469,1,,,,,,,,,,,,,,,0,0.279629686,-0.338888889,1,0,0,1.0469,button_right_main,0.279629686,-0.338888889,1,0,0,,0,13,13,35,1,LLAMA,HB,old,m,./images/LLAMAHB.png,,,,,,,,,,,,,,,,,,,,,
,,,,,,,,,,,,,,,,,198931,18,2022-01-29_11h19.07.551,lexical_decision_task_DD_L6,2021.2.3,Win32,61.13964294,,,,,,,,,,2.0826,1,,,,,,,,,,,,,,,0,-0.237037023,-0.325,1,0,0,2.0826,button_left_main,-0.237037023,-0.325,1,0,0,,0,14,14,130,1,CRILL,HB,old,z,./images/CRILLHB.png,,,,,,,,,,,,,,,,,,,,,
,,,,,,,,,,,,,,,,,198931,18,2022-01-29_11h19.07.551,lexical_decision_task_DD_L6,2021.2.3,Win32,61.13964294,,,,,,,,,,1.0997,1,,,,,,,,,,,,,,,0,-0.314814801,-0.317592621,1,0,0,1.0997,button_left_main,-0.314814801,-0.317592621,1,0,0,,0,15,15,161,1,BLAPS,LB,old,z,./images/BLAPSLB.png,,,,,,,,,,,,,,,,,,,,,
,,,,,,,,,,,,,,,,,198931,18,2022-01-29_11h19.07.551,lexical_decision_task_DD_L6,2021.2.3,Win32,61.13964294,,,,,,,,,,0.9316,1,,,,,,,,,,,,,,,0,0.289814843,-0.377777778,1,0,0,0.9316,button_right_main,0.289814843,-0.377777778,1,0,0,,0,16,16,75,1,HAMMER,LB,old,m,./images/HAMMERLB.png,,,,,,,,,,,,,,,,,,,,,
,,,,,,,,,,,,,,,,,198931,18,2022-01-29_11h19.07.551,lexical_decision_task_DD_L6,2021.2.3,Win32,61.13964294,,,,,,,,,,1.2823,1,,,,,,,,,,,,,,,0,-0.275,-0.319444444,1,0,0,1.2823,button_left_main,-0.275,-0.319444444,1,0,0,,0,17,17,126,1,GUELS,C,old,z,./images/GUELS.png,,,,,,,,,,,,,,,,,,,,,
,,,,,,,,,,,,,,,,,198931,18,2022-01-29_11h19.07.551,lexical_decision_task_DD_L6,2021.2.3,Win32,61.13964294,,,,,,,,,,1.0317,1,,,,,,,,,,,,,,,0,0.276851908,-0.371296353,1,0,0,1.0317,button_right_main,0.276851908,-0.371296353,1,0,0,,0,18,18,51,1,SAUCE,LB,old,m,./images/SAUCELB.png,,,,,,,,,,,,,,,,,,,,,
,,,,,,,,,,,,,,,,,198931,18,2022-01-29_11h19.07.551,lexical_decision_task_DD_L6,2021.2.3,Win32,61.13964294,,,,,,,,,,1.213,1,,,,,,,,,,,,,,,0,-0.260185157,-0.301851908,1,0,0,1.213,button_left_main,-0.260185157,-0.301851908,1,0,0,,0,19,19,143,1,MONGS,LB,old,z,./images/MONGSLB.png,,,,,,,,,,,,,,,,,,,,,
,,,,,,,,,,,,,,,,,198931,18,2022-01-29_11h19.07.551,lexical_decision_task_DD_L6,2021.2.3,Win32,61.13964294,,,,,,,,,,0.9986,1,,,,,,,,,,,,,,,0,0.283333333,-0.335185242,1,0,0,0.9986,button_right_main,0.283333333,-0.335185242,1,0,0,,0,20,20,64,1,BRIDE,C,old,m,./images/BRIDE.png,,,,,,,,,,,,,,,,,,,,,
,,,,,,,,,,,,,,,,,198931,18,2022-01-29_11h19.07.551,lexical_decision_task_DD_L6,2021.2.3,Win32,61.13964294,,,,,,,,,,1.7131,1,,,,,,,,,,,,,,,0,-0.275,-0.324074131,1,0,0,1.7131,button_left_main,-0.275,-0.324074131,1,0,0,,0,21,21,165,1,TROWN,C,old,z,./images/TROWN.png,,,,,,,,,,,,,,,,,,,,,
,,,,,,,,,,,,,,,,,198931,18,2022-01-29_11h19.07.551,lexical_decision_task_DD_L6,2021.2.3,Win32,61.13964294,,,,,,,,,,1.7017,1,,,,,,,,,,,,,,,0,-0.261111111,-0.312963019,1,0,0,1.7017,button_left_main,-0.261111111,-0.312963019,1,0,0,,0,22,22,164,1,SGREW,LB,old,z,./images/SGREWLB.png,,,,,,,,,,,,,,,,,,,,,
,,,,,,,,,,,,,,,,,198931,18,2022-01-29_11h19.07.551,lexical_decision_task_DD_L6,2021.2.3,Win32,61.13964294,,,,,,,,,,1.0485,1,,,,,,,,,,,,,,,0,0.298148176,-0.318518575,1,0,0,1.0485,button_right_main,0.298148176,-0.318518575,1,0,0,,0,23,23,7,1,WAGON,C,old,m,./images/WAGON.png,,,,,,,,,,,,,,,,,,,,,
,,,,,,,,,,,,,,,,,198931,18,2022-01-29_11h19.07.551,lexical_decision_task_DD_L6,2021.2.3,Win32,61.13964294,,,,,,,,,,1.199,1,,,,,,,,,,,,,,,0,-0.269444444,-0.329629686,1,0,0,1.199,button_left_main,-0.269444444,-0.329629686,1,0,0,,0,24,24,147,1,ZOLES,C,old,z,./images/ZOLES.png,,,,,,,,,,,,,,,,,,,,,
,,,,,,,,,,,,,,,,,198931,18,2022-01-29_11h19.07.551,lexical_decision_task_DD_L6,2021.2.3,Win32,61.13964294,,,,,,,,,,1.1344,1,,,,,,,,,,,,,,,0,-0.252777778,-0.318518575,1,0,0,1.1344,button_left_main,-0.252777778,-0.318518575,1,0,0,,0,25,25,117,1,STEEG,C,old,z,./images/STEEG.png,,,,,,,,,,,,,,,,,,,,,
,,,,,,,,,,,,,,,,,198931,18,2022-01-29_11h19.07.551,lexical_decision_task_DD_L6,2021.2.3,Win32,61.13964294,,,,,,,,,,1.1489,1,,,,,,,,,,,,,,,0,0.325925954,-0.299074131,1,0,0,1.1489,button_right_main,0.325925954,-0.299074131,1,0,0,,0,26,26,36,1,BOILER,LB,old,m,./images/BOILERLB.png,,,,,,,,,,,,,,,,,,,,,
,,,,,,,,,,,,,,,,,198931,18,2022-01-29_11h19.07.551,lexical_decision_task_DD_L6,2021.2.3,Win32,61.13964294,,,,,,,,,,1.1828,1,,,,,,,,,,,,,,,0,0.307407464,-0.318518575,1,0,0,1.1828,button_right_main,0.307407464,-0.318518575,1,0,0,,0,27,27,41,1,STREAM,HB,old,m,./images/STREAMHB.png,,,,,,,,,,,,,,,,,,,,,
,,,,,,,,,,,,,,,,,198931,18,2022-01-29_11h19.07.551,lexical_decision_task_DD_L6,2021.2.3,Win32,61.13964294,,,,,,,,,,1.1466,1,,,,,,,,,,,,,,,0,-0.246296268,-0.318518575,1,0,0,1.1466,button_left_main,-0.246296268,-0.318518575,1,0,0,,0,28,28,108,1,GRUET,C,old,z,./images/GRUET.png,,,,,,,,,,,,,,,,,,,,,
,,,,,,,,,,,,,,,,,198931,18,2022-01-29_11h19.07.551,lexical_decision_task_DD_L6,2021.2.3,Win32,61.13964294,,,,,,,,,,1.8462,1,,,,,,,,,,,,,,,0,-0.248148134,-0.318518575,1,0,0,1.8462,button_left_main,-0.248148134,-0.318518575,1,0,0,,0,29,29,124,1,TUNCH,HB,old,z,./images/TUNCHHB.png,,,,,,,,,,,,,,,,,,,,,
,,,,,,,,,,,,,,,,,198931,18,2022-01-29_11h19.07.551,lexical_decision_task_DD_L6,2021.2.3,Win32,61.13964294,,,,,,,,,,0.9134,1,,,,,,,,,,,,,,,0,0.294444444,-0.329629686,1,0,0,0.9134,button_right_main,0.294444444,-0.329629686,1,0,0,,0,30,30,30,1,SLOPE,LB,old,m,./images/SLOPELB.png,,,,,,,,,,,,,,,,,,,,,
,,,,,,,,,,,,,,,,,198931,18,2022-01-29_11h19.07.551,lexical_decision_task_DD_L6,2021.2.3,Win32,61.13964294,,,,,,,,,,1.0296,1,,,,,,,,,,,,,,,0,0.260185242,-0.323148176,1,0,0,1.0296,button_right_main,0.260185242,-0.323148176,1,0,0,,0,31,31,44,1,BASKET,HB,old,m,./images/BASKETHB.png,,,,,,,,,,,,,,,,,,,,,
,,,,,,,,,,,,,,,,,198931,18,2022-01-29_11h19.07.551,lexical_decision_task_DD_L6,2021.2.3,Win32,61.13964294,,,,,,,,,,0.9634,1,,,,,,,,,,,,,,,0,0.254629686,-0.347222222,1,0,0,0.9634,button_right_main,0.254629686,-0.347222222,1,0,0,,0,32,32,1,1,TOWEL,C,old,m,./images/TOWEL.png,,,,,,,,,,,,,,,,,,,,,
,,,,,,,,,,,,,,,,,198931,18,2022-01-29_11h19.07.551,lexical_decision_task_DD_L6,2021.2.3,Win32,61.13964294,,,,,,,,,,0.8966,1,,,,,,,,,,,,,,,0,0.25,-0.347222222,1,0,0,0.8966,button_right_main,0.25,-0.347222222,1,0,0,,0,33,33,6,1,STAIN,LB,old,m,./images/STAINLB.png,,,,,,,,,,,,,,,,,,,,,
,,,,,,,,,,,,,,,,,198931,18,2022-01-29_11h19.07.551,lexical_decision_task_DD_L6,2021.2.3,Win32,61.13964294,,,,,,,,,,1.2634,1,,,,,,,,,,,,,,,0,-0.312037023,-0.313888889,1,0,0,1.2634,button_left_main,-0.312037023,-0.313888889,1,0,0,,0,34,34,141,1,PLEET,C,old,z,./images/PLEET.png,,,,,,,,,,,,,,,,,,,,,
,,,,,,,,,,,,,,,,,198931,18,2022-01-29_11h19.07.551,lexical_decision_task_DD_L6,2021.2.3,Win32,61.13964294,,,,,,,,,,1.3797,0,,,,,,,,,,,,,,,0,0.287963019,-0.365740797,1,0,0,1.3797,button_right_main,0.287963019,-0.365740797,1,0,0,,0,35,35,148,1,JOMS,HB,old,z,./images/JOMSHB.png,,,,,,,,,,,,,,,,,,,,,
,,,,,,,,,,,,,,,,,198931,18,2022-01-29_11h19.07.551,lexical_decision_task_DD_L6,2021.2.3,Win32,61.13964294,,,,,,,,,,1.0967,1,,,,,,,,,,,,,,,0,-0.311111111,-0.324074131,1,0,0,1.0967,button_left_main,-0.311111111,-0.324074131,1,0,0,,0,36,36,105,1,MOKER,C,old,z,./images/MOKER.png,,,,,,,,,,,,,,,,,,,,,
,,,,,,,,,,,,,,,,,198931,18,2022-01-29_11h19.07.551,lexical_decision_task_DD_L6,2021.2.3,Win32,61.13964294,,,,,,,,,,1.3628,1,,,,,,,,,,,,,,,0,0.262963019,-0.352777778,1,0,0,1.3628,button_right_main,0.262963019,-0.352777778,1,0,0,,0,37,37,26,1,CLOUD,HB,old,m,./images/CLOUDHB.png,,,,,,,,,,,,,,,,,,,,,
,,,,,,,,,,,,,,,,,198931,18,2022-01-29_11h19.07.551,lexical_decision_task_DD_L6,2021.2.3,Win32,61.13964294,,,,,,,,,,1.2128,1,,,,,,,,,,,,,,,0,0.245370399,-0.344444444,1,0,0,1.2128,button_right_main,0.245370399,-0.344444444,1,0,0,,0,38,38,59,1,BRUSH,HB,old,m,./images/BRUSHHB.png,,,,,,,,,,,,,,,,,,,,,
,,,,,,,,,,,,,,,,,198931,18,2022-01-29_11h19.07.551,lexical_decision_task_DD_L6,2021.2.3,Win32,61.13964294,,,,,,,,,,3.1801,1,,,,,,,,,,,,,,,0,-0.2,-0.336111111,1,0,0,3.1801,button_left_main,-0.25370369,-0.333333333,1,0,0,,0,39,39,133,1,POWDY,HB,old,z,./images/POWDYHB.png,,,,,,,,,,,,,,,,,,,,,
,,,,,,,,,,,,,,,,,198931,18,2022-01-29_11h19.07.551,lexical_decision_task_DD_L6,2021.2.3,Win32,61.13964294,,,,,,,,,,1.7637,0,,,,,,,,,,,,,,,0,0.283333333,-0.316666667,1,0,0,1.7637,button_right_main,0.283333333,-0.316666667,1,0,0,,0,40,40,136,1,WERVE,HB,old,z,./images/WERVEHB.png,,,,,,,,,,,,,,,,,,,,,
,,,,,,,,,,,,,,,,,198931,18,2022-01-29_11h19.07.551,lexical_decision_task_DD_L6,2021.2.3,Win32,61.13964294,,,,,,,,,,1.1816,1,,,,,,,,,,,,,,,0,-0.30370369,-0.310185242,1,0,0,1.1816,button_left_main,-0.057407379,-0.407407464,1,0,0,,0,41,41,134,1,TROSS,LB,old,z,./images/TROSSLB.png,break_done_button,,,,,,,,,,,,,,,,,,,,
,,,,,,,,,,,,,,,,,198931,18,2022-01-29_11h19.07.551,lexical_decision_task_DD_L6,2021.2.3,Win32,61.13964294,,,,,,,,,,0.998,1,,,,,,,,,,,,,,,0,0.313888889,-0.294444444,1,0,0,0.998,button_right_main,0.313888889,-0.294444444,1,0,0,,0,42,42,61,1,ARTIST,C,old,m,./images/ARTIST.png,,,,,,,,,,,,,,,,,,,,,
,,,,,,,,,,,,,,,,,198931,18,2022-01-29_11h19.07.551,lexical_decision_task_DD_L6,2021.2.3,Win32,61.13964294,,,,,,,,,,1.9997,1,,,,,,,,,,,,,,,0,0.268518575,-0.339814843,1,0,0,1.9997,button_right_main,0.268518575,-0.339814843,1,0,0,,0,43,43,69,1,ARROW,LB,old,m,./images/ARROWLB.png,,,,,,,,,,,,,,,,,,,,,
,,,,,,,,,,,,,,,,,198931,18,2022-01-29_11h19.07.551,lexical_decision_task_DD_L6,2021.2.3,Win32,61.13964294,,,,,,,,,,1.3503,1,,,,,,,,,,,,,,,0,-0.374074046,-0.303703732,1,0,0,1.3503,button_left_main,-0.374074046,-0.303703732,1,0,0,,0,44,44,123,1,SEDGE,C,old,z,./images/SEDGE.png,,,,,,,,,,,,,,,,,,,,,
,,,,,,,,,,,,,,,,,198931,18,2022-01-29_11h19.07.551,lexical_decision_task_DD_L6,2021.2.3,Win32,61.13964294,,,,,,,,,,1.582,0,,,,,,,,,,,,,,,0,-0.34351849,-0.313888889,1,0,0,1.582,button_left_main,-0.34351849,-0.313888889,1,0,0,,0,45,45,62,1,MAMMAL,HB,old,m,./images/MAMMALHB.png,,,,,,,,,,,,,,,,,,,,,
,,,,,,,,,,,,,,,,,198931,18,2022-01-29_11h19.07.551,lexical_decision_task_DD_L6,2021.2.3,Win32,61.13964294,,,,,,,,,,2.7995,1,,,,,,,,,,,,,,,0,-0.264814801,-0.323148176,1,0,0,2.7995,button_left_main,-0.264814801,-0.323148176,1,0,0,,0,46,46,154,1,THINT,HB,old,z,./images/THINTHB.png,,,,,,,,,,,,,,,,,,,,,
,,,,,,,,,,,,,,,,,198931,18,2022-01-29_11h19.07.551,lexical_decision_task_DD_L6,2021.2.3,Win32,61.13964294,,,,,,,,,,1.346,1,,,,,,,,,,,,,,,0,-0.311111111,-0.319444444,1,0,0,1.346,button_left_main,-0.311111111,-0.319444444,1,0,0,,0,47,47,167,1,ZONET,LB,old,z,./images/ZONETLB.png,,,,,,,,,,,,,,,,,,,,,
,,,,,,,,,,,,,,,,,198931,18,2022-01-29_11h19.07.551,lexical_decision_task_DD_L6,2021.2.3,Win32,61.13964294,,,,,,,,,,0.9797,1,,,,,,,,,,,,,,,0,0.271296353,-0.339814843,1,0,0,0.9797,button_right_main,0.271296353,-0.339814843,1,0,0,,0,48,48,49,1,BISHOP,C,old,m,./images/BISHOP.png,,,,,,,,,,,,,,,,,,,,,
,,,,,,,,,,,,,,,,,198931,18,2022-01-29_11h19.07.551,lexical_decision_task_DD_L6,2021.2.3,Win32,61.13964294,,,,,,,,,,1.314,1,,,,,,,,,,,,,,,0,-0.250925912,-0.322222222,1,0,0,1.314,button_left_main,-0.250925912,-0.322222222,1,0,0,,0,49,49,99,1,BACKY,C,old,z,./images/BACKY.png,,,,,,,,,,,,,,,,,,,,,
,,,,,,,,,,,,,,,,,198931,18,2022-01-29_11h19.07.551,lexical_decision_task_DD_L6,2021.2.3,Win32,61.13964294,,,,,,,,,,1.3968,1,,,,,,,,,,,,,,,0,0.283333333,-0.327777778,1,0,0,1.3968,button_right_main,0.283333333,-0.327777778,1,0,0,,0,50,50,14,1,FENCE,HB,old,m,./images/FENCEHB.png,,,,,,,,,,,,,,,,,,,,,
,,,,,,,,,,,,,,,,,198931,18,2022-01-29_11h19.07.551,lexical_decision_task_DD_L6,2021.2.3,Win32,61.13964294,,,,,,,,,,1.1327,1,,,,,,,,,,,,,,,0,0.275925954,-0.312037065,1,0,0,1.1327,button_right_main,0.275925954,-0.312037065,1,0,0,,0,51,51,39,1,CANDY,LB,old,m,./images/CANDYLB.png,,,,,,,,,,,,,,,,,,,,,
,,,,,,,,,,,,,,,,,198931,18,2022-01-29_11h19.07.551,lexical_decision_task_DD_L6,2021.2.3,Win32,61.13964294,,,,,,,,,,2.3649,0,,,,,,,,,,,,,,,0,0.235185242,-0.330555556,1,0,0,2.3649,button_right_main,0.235185242,-0.330555556,1,0,0,,0,52,52,106,1,CLUMS,HB,old,z,./images/CLUMSHB.png,,,,,,,,,,,,,,,,,,,,,
,,,,,,,,,,,,,,,,,198931,18,2022-01-29_11h19.07.551,lexical_decision_task_DD_L6,2021.2.3,Win32,61.13964294,,,,,,,,,,1.4824,1,,,,,,,,,,,,,,,0,-0.287037023,-0.299074131,1,0,0,1.4824,button_left_main,-0.287037023,-0.299074131,1,0,0,,0,53,53,139,1,BLEAR,HB,old,z,./images/BLEARHB.png,,,,,,,,,,,,,,,,,,,,,
,,,,,,,,,,,,,,,,,198931,18,2022-01-29_11h19.07.551,lexical_decision_task_DD_L6,2021.2.3,Win32,61.13964294,,,,,,,,,,1.3646,1,,,,,,,,,,,,,,,0,0.291666667,-0.303703732,1,0,0,1.3646,button_right_main,0.291666667,-0.303703732,1,0,0,,0,54,54,5,1,BAMBOO,HB,old,m,./images/BAMBOOHB.png,,,,,,,,,,,,,,,,,,,,,
,,,,,,,,,,,,,,,,,198931,18,2022-01-29_11h19.07.551,lexical_decision_task_DD_L6,2021.2.3,Win32,61.13964294,,,,,,,,,,1.1131,0,,,,,,,,,,,,,,,0,0.235185242,-0.315740797,1,0,0,1.1131,button_right_main,0.235185242,-0.315740797,1,0,0,,0,55,55,109,1,BURGE,HB,old,z,./images/BURGEHB.png,,,,,,,,,,,,,,,,,,,,,
,,,,,,,,,,,,,,,,,198931,18,2022-01-29_11h19.07.551,lexical_decision_task_DD_L6,2021.2.3,Win32,61.13964294,,,,,,,,,,1.3823,1,,,,,,,,,,,,,,,0,-0.300925912,-0.320370399,1,0,0,1.3823,button_left_main,-0.300925912,-0.320370399,1,0,0,,0,56,56,88,1,GLUSH,HB,old,z,./images/GLUSHHB.png,,,,,,,,,,,,,,,,,,,,,
,,,,,,,,,,,,,,,,,198931,18,2022-01-29_11h19.07.551,lexical_decision_task_DD_L6,2021.2.3,Win32,61.13964294,,,,,,,,,,1.3827,0,,,,,,,,,,,,,,,0,0.245370399,-0.319444444,1,0,0,1.3827,button_right_main,0.245370399,-0.319444444,1,0,0,,0,57,57,85,1,CHULK,HB,old,z,./images/CHULKHB.png,,,,,,,,,,,,,,,,,,,,,
,,,,,,,,,,,,,,,,,198931,18,2022-01-29_11h19.07.551,lexical_decision_task_DD_L6,2021.2.3,Win32,61.13964294,,,,,,,,,,1.1488,1,,,,,,,,,,,,,,,0,-0.338888889,-0.318518575,1,0,0,1.1488,button_left_main,-0.338888889,-0.318518575,1,0,0,,0,58,58,93,1,SMONE,C,old,z,./images/SMONE.png,,,,,,,,,,,,,,,,,,,,,
,,,,,,,,,,,,,,,,,198931,18,2022-01-29_11h19.07.551,lexical_decision_task_DD_L6,2021.2.3,Win32,61.13964294,,,,,,,,,,1.3153,1,,,,,,,,,,,,,,,0,-0.285185157,-0.307407464,1,0,0,1.3153,button_left_main,-0.285185157,-0.307407464,1,0,0,,0,59,59,127,1,NINDY,HB,old,z,./images/NINDYHB.png,,,,,,,,,,,,,,,,,,,,,
,,,,,,,,,,,,,,,,,198931,18,2022-01-29_11h19.07.551,lexical_decision_task_DD_L6,2021.2.3,Win32,61.13964294,,,,,,,,,,1.1491,1,,,,,,,,,,,,,,,0,0.255555556,-0.341666667,1,0,0,1.1491,button_right_main,0.255555556,-0.341666667,1,0,0,,0,60,60,66,1,STATUE,LB,old,m,./images/STATUELB.png,,,,,,,,,,,,,,,,,,,,,
,,,,,,,,,,,,,,,,,198931,18,2022-01-29_11h19.07.551,lexical_decision_task_DD_L6,2021.2.3,Win32,61.13964294,,,,,,,,,,1.366,1,,,,,,,,,,,,,,,0,-0.334259245,-0.327777778,1,0,0,1.366,button_left_main,-0.334259245,-0.327777778,1,0,0,,0,61,61,96,1,KEAMS,C,old,z,./images/KEAMS.png,,,,,,,,,,,,,,,,,,,,,
,,,,,,,,,,,,,,,,,198931,18,2022-01-29_11h19.07.551,lexical_decision_task_DD_L6,2021.2.3,Win32,61.13964294,,,,,,,,,,1.5645,1,,,,,,,,,,,,,,,0,-0.288888889,-0.325925954,1,0,0,1.5645,button_left_main,-0.288888889,-0.325925954,1,0,0,,0,62,62,101,1,GLEET,LB,old,z,./images/GLEETLB.png,,,,,,,,,,,,,,,,,,,,,
,,,,,,,,,,,,,,,,,198931,18,2022-01-29_11h19.07.551,lexical_decision_task_DD_L6,2021.2.3,Win32,61.13964294,,,,,,,,,,1.6988,1,,,,,,,,,,,,,,,0,-0.362037023,-0.294444444,1,0,0,1.6988,button_left_main,-0.362037023,-0.294444444,1,0,0,,0,63,63,146,1,MOOST,LB,old,z,./images/MOOSTLB.png,,,,,,,,,,,,,,,,,,,,,
,,,,,,,,,,,,,,,,,198931,18,2022-01-29_11h19.07.551,lexical_decision_task_DD_L6,2021.2.3,Win32,61.13964294,,,,,,,,,,0.9802,1,,,,,,,,,,,,,,,0,0.286111111,-0.343518575,1,0,0,0.9802,button_right_main,0.286111111,-0.343518575,1,0,0,,0,64,64,50,1,PILOT,HB,old,m,./images/PILOTHB.png,,,,,,,,,,,,,,,,,,,,,
,,,,,,,,,,,,,,,,,198931,18,2022-01-29_11h19.07.551,lexical_decision_task_DD_L6,2021.2.3,Win32,61.13964294,,,,,,,,,,1.0634,0,,,,,,,,,,,,,,,0,0.268518575,-0.334259288,1,0,0,1.0634,button_right_main,0.268518575,-0.334259288,1,0,0,,0,65,65,166,1,SHORY,HB,old,z,./images/SHORYHB.png,,,,,,,,,,,,,,,,,,,,,
,,,,,,,,,,,,,,,,,198931,18,2022-01-29_11h19.07.551,lexical_decision_task_DD_L6,2021.2.3,Win32,61.13964294,,,,,,,,,,1.0486,1,,,,,,,,,,,,,,,0,-0.352777778,-0.292592621,1,0,0,1.0486,button_left_main,-0.352777778,-0.292592621,1,0,0,,0,66,66,90,1,NEAST,C,old,z,./images/NEAST.png,,,,,,,,,,,,,,,,,,,,,
,,,,,,,,,,,,,,,,,198931,18,2022-01-29_11h19.07.551,lexical_decision_task_DD_L6,2021.2.3,Win32,61.13964294,,,,,,,,,,1.1298,1,,,,,,,,,,,,,,,0,0.280555556,-0.337963019,1,0,0,1.1298,button_right_main,0.280555556,-0.337963019,1,0,0,,0,67,67,54,1,CHERRY,LB,old,m,./images/CHERRYLB.png,,,,,,,,,,,,,,,,,,,,,
,,,,,,,,,,,,,,,,,198931,18,2022-01-29_11h19.07.551,lexical_decision_task_DD_L6,2021.2.3,Win32,61.13964294,,,,,,,,,,1.1659,1,,,,,,,,,,,,,,,0,-0.340740712,-0.322222222,1,0,0,1.1659,button_left_main,-0.340740712,-0.322222222,1,0,0,,0,68,68,128,1,GRIFT,LB,old,z,./images/GRIFTLB.png,,,,,,,,,,,,,,,,,,,,,
,,,,,,,,,,,,,,,,,198931,18,2022-01-29_11h19.07.551,lexical_decision_task_DD_L6,2021.2.3,Win32,61.13964294,,,,,,,,,,1.2969,1,,,,,,,,,,,,,,,0,-0.338888889,-0.299074131,1,0,0,1.2969,button_left_main,-0.338888889,-0.299074131,1,0,0,,0,69,69,142,1,PLASK,HB,old,z,./images/PLASKHB.png,,,,,,,,,,,,,,,,,,,,,
,,,,,,,,,,,,,,,,,198931,18,2022-01-29_11h19.07.551,lexical_decision_task_DD_L6,2021.2.3,Win32,61.13964294,,,,,,,,,,1.0986,1,,,,,,,,,,,,,,,0,-0.298148134,-0.305555556,1,0,0,1.0986,button_left_main,-0.298148134,-0.305555556,1,0,0,,0,70,70,104,1,GITTY,LB,old,z,./images/GITTYLB.png,,,,,,,,,,,,,,,,,,,,,
,,,,,,,,,,,,,,,,,198931,18,2022-01-29_11h19.07.551,lexical_decision_task_DD_L6,2021.2.3,Win32,61.13964294,,,,,,,,,,0.9803,1,,,,,,,,,,,,,,,0,0.282407464,-0.354629686,1,0,0,0.9803,button_right_main,0.282407464,-0.354629686,1,0,0,,0,71,71,0,1,WALNUT,LB,old,m,./images/WALNUTLB.png,,,,,,,,,,,,,,,,,,,,,
,,,,,,,,,,,,,,,,,198931,18,2022-01-29_11h19.07.551,lexical_decision_task_DD_L6,2021.2.3,Win32,61.13964294,,,,,,,,,,0.9819,1,,,,,,,,,,,,,,,0,0.279629686,-0.322222222,1,0,0,0.9819,button_right_main,0.279629686,-0.322222222,1,0,0,,0,72,72,46,1,MUMMY,C,old,m,./images/MUMMY.png,,,,,,,,,,,,,,,,,,,,,
,,,,,,,,,,,,,,,,,198931,18,2022-01-29_11h19.07.551,lexical_decision_task_DD_L6,2021.2.3,Win32,61.13964294,,,,,,,,,,0.9653,1,,,,,,,,,,,,,,,0,0.269444444,-0.327777778,1,0,0,0.9653,button_right_main,0.269444444,-0.327777778,1,0,0,,0,73,73,13,1,BUNNY,C,old,m,./images/BUNNY.png,,,,,,,,,,,,,,,,,,,,,
,,,,,,,,,,,,,,,,,198931,18,2022-01-29_11h19.07.551,lexical_decision_task_DD_L6,2021.2.3,Win32,61.13964294,,,,,,,,,,2.0317,0,,,,,,,,,,,,,,,0,0.271296353,-0.349074131,1,0,0,2.0317,button_right_main,0.271296353,-0.349074131,1,0,0,,0,74,74,115,1,MAWNS,HB,old,z,./images/MAWNSHB.png,,,,,,,,,,,,,,,,,,,,,
,,,,,,,,,,,,,,,,,198931,18,2022-01-29_11h19.07.551,lexical_decision_task_DD_L6,2021.2.3,Win32,61.13964294,,,,,,,,,,1.198,1,,,,,,,,,,,,,,,0,0.273148176,-0.342592621,1,0,0,1.198,button_right_main,0.273148176,-0.342592621,1,0,0,,0,75,75,68,1,VALLEY,HB,old,m,./images/VALLEYHB.png,,,,,,,,,,,,,,,,,,,,,
,,,,,,,,,,,,,,,,,198931,18,2022-01-29_11h19.07.551,lexical_decision_task_DD_L6,2021.2.3,Win32,61.13964294,,,,,,,,,,1.196,1,,,,,,,,,,,,,,,0,0.269444444,-0.342592621,1,0,0,1.196,button_right_main,0.269444444,-0.342592621,1,0,0,,0,76,76,32,1,HOCKEY,HB,old,m,./images/HOCKEYHB.png,,,,,,,,,,,,,,,,,,,,,
,,,,,,,,,,,,,,,,,198931,18,2022-01-29_11h19.07.551,lexical_decision_task_DD_L6,2021.2.3,Win32,61.13964294,,,,,,,,,,1.0968,1,,,,,,,,,,,,,,,0,-0.302777778,-0.325925954,1,0,0,1.0968,button_left_main,-0.302777778,-0.325925954,1,0,0,,0,77,77,162,1,LEICH,C,old,z,./images/LEICH.png,,,,,,,,,,,,,,,,,,,,,
,,,,,,,,,,,,,,,,,198931,18,2022-01-29_11h19.07.551,lexical_decision_task_DD_L6,2021.2.3,Win32,61.13964294,,,,,,,,,,1.0965,1,,,,,,,,,,,,,,,0,0.245370399,-0.323148176,1,0,0,1.0965,button_right_main,0.245370399,-0.323148176,1,0,0,,0,78,78,9,1,DIVER,LB,old,m,./images/DIVERLB.png,,,,,,,,,,,,,,,,,,,,,
,,,,,,,,,,,,,,,,,198931,18,2022-01-29_11h19.07.551,lexical_decision_task_DD_L6,2021.2.3,Win32,61.13964294,,,,,,,,,,1.1136,1,,,,,,,,,,,,,,,0,-0.359259245,-0.327777778,1,0,0,1.1136,button_left_main,-0.359259245,-0.327777778,1,0,0,,0,79,79,149,1,VEASE,LB,old,z,./images/VEASELB.png,,,,,,,,,,,,,,,,,,,,,
,,,,,,,,,,,,,,,,,198931,18,2022-01-29_11h19.07.551,lexical_decision_task_DD_L6,2021.2.3,Win32,61.13964294,,,,,,,,,,0.9994,1,,,,,,,,,,,,,,,0,0.275925954,-0.33148151,1,0,0,0.9994,button_right_main,0.275925954,-0.33148151,1,0,0,,0,80,80,29,1,PISTOL,HB,old,m,./images/PISTOLHB.png,,,,,,,,,,,,,,,,,,,,,
,,,,,,,,,,,,,,,,,198931,18,2022-01-29_11h19.07.551,lexical_decision_task_DD_L6,2021.2.3,Win32,61.13964294,,,,,,,,,,2.6797,1,,,,,,,,,,,,,,,0,-0.331481467,-0.325925954,1,0,0,2.6797,button_left_main,-0.331481467,-0.325925954,1,0,0,,0,81,81,97,1,CHIDS,HB,old,z,./images/CHIDSHB.png,,,,,,,,,,,,,,,,,,,,,
,,,,,,,,,,,,,,,,,198931,18,2022-01-29_11h19.07.551,lexical_decision_task_DD_L6,2021.2.3,Win32,61.13964294,,,,,,,,,,2.218,0,,,,,,,,,,,,,,,0,0.245370399,-0.343518575,1,0,0,2.218,button_right_main,0.245370399,-0.343518575,1,0,0,,0,82,82,157,1,INLER,HB,old,z,./images/INLERHB.png,,,,,,,,,,,,,,,,,,,,,
,,,,,,,,,,,,,,,,,198931,18,2022-01-29_11h19.07.551,lexical_decision_task_DD_L6,2021.2.3,Win32,61.13964294,,,,,,,,,,1.2463,1,,,,,,,,,,,,,,,0,-0.319444444,-0.324074131,1,0,0,1.2463,button_left_main,0.116666667,-0.375,1,0,0,,0,83,83,153,1,CLUPS,C,old,z,./images/CLUPS.png,break_done_button,,,,,,,,,,,,,,,,,,,,
,,,,,,,,,,,,,,,,,198931,18,2022-01-29_11h19.07.551,lexical_decision_task_DD_L6,2021.2.3,Win32,61.13964294,,,,,,,,,,1.3826,1,,,,,,,,,,,,,,,0,-0.419444444,-0.285185242,1,0,0,1.3826,button_left_main,-0.419444444,-0.285185242,1,0,0,,0,84,84,159,1,CUDDY,C,old,z,./images/CUDDY.png,,,,,,,,,,,,,,,,,,,,,
,,,,,,,,,,,,,,,,,198931,18,2022-01-29_11h19.07.551,lexical_decision_task_DD_L6,2021.2.3,Win32,61.13964294,,,,,,,,,,1.013,1,,,,,,,,,,,,,,,0,-0.299074046,-0.314814843,1,0,0,1.013,button_left_main,-0.299074046,-0.314814843,1,0,0,,0,85,85,152,1,FRAIN,LB,old,z,./images/FRAINLB.png,,,,,,,,,,,,,,,,,,,,,
,,,,,,,,,,,,,,,,,198931,18,2022-01-29_11h19.07.551,lexical_decision_task_DD_L6,2021.2.3,Win32,61.13964294,,,,,,,,,,1.0296,1,,,,,,,,,,,,,,,0,-0.290740712,-0.264814843,1,0,0,1.0296,button_left_main,-0.290740712,-0.264814843,1,0,0,,0,86,86,125,1,MOOKY,LB,old,z,./images/MOOKYLB.png,,,,,,,,,,,,,,,,,,,,,
,,,,,,,,,,,,,,,,,198931,18,2022-01-29_11h19.07.551,lexical_decision_task_DD_L6,2021.2.3,Win32,61.13964294,,,,,,,,,,1.2301,1,,,,,,,,,,,,,,,0,0.394444444,-0.280555556,1,0,0,1.2301,button_right_main,0.394444444,-0.280555556,1,0,0,,0,87,87,82,1,PEBBLE,C,old,m,./images/PEBBLE.png,,,,,,,,,,,,,,,,,,,,,
,,,,,,,,,,,,,,,,,198931,18,2022-01-29_11h19.07.551,lexical_decision_task_DD_L6,2021.2.3,Win32,61.13964294,,,,,,,,,,1.1014,1,,,,,,,,,,,,,,,0,0.373148176,-0.259259288,1,0,0,1.1014,button_right_main,0.373148176,-0.259259288,1,0,0,,0,88,88,71,1,BUBBLE,HB,old,m,./images/BUBBLEHB.png,,,,,,,,,,,,,,,,,,,,,
,,,,,,,,,,,,,,,,,198931,18,2022-01-29_11h19.07.551,lexical_decision_task_DD_L6,2021.2.3,Win32,61.13964294,,,,,,,,,,0.9989,1,,,,,,,,,,,,,,,0,-0.290740712,-0.285185242,1,0,0,0.9989,button_left_main,-0.290740712,-0.285185242,1,0,0,,0,89,89,156,1,HIXES,C,old,z,./images/HIXES.png,,,,,,,,,,,,,,,,,,,,,
,,,,,,,,,,,,,,,,,198931,18,2022-01-29_11h19.07.551,lexical_decision_task_DD_L6,2021.2.3,Win32,61.13964294,,,,,,,,,,1.1631,1,,,,,,,,,,,,,,,0,0.369444444,-0.324074131,1,0,0,1.1631,button_right_main,0.369444444,-0.324074131,1,0,0,,0,90,90,80,1,PLANET,HB,old,m,./images/PLANETHB.png,,,,,,,,,,,,,,,,,,,,,
,,,,,,,,,,,,,,,,,198931,18,2022-01-29_11h19.07.551,lexical_decision_task_DD_L6,2021.2.3,Win32,61.13964294,,,,,,,,,,0.9467,1,,,,,,,,,,,,,,,0,0.357407464,-0.314814843,1,0,0,0.9467,button_right_main,0.357407464,-0.314814843,1,0,0,,0,91,91,57,1,FERRY,LB,old,m,./images/FERRYLB.png,,,,,,,,,,,,,,,,,,,,,
,,,,,,,,,,,,,,,,,198931,18,2022-01-29_11h19.07.551,lexical_decision_task_DD_L6,2021.2.3,Win32,61.13964294,,,,,,,,,,1.0489,1,,,,,,,,,,,,,,,0,0.413888889,-0.337963019,1,0,0,1.0489,button_right_main,0.413888889,-0.337963019,1,0,0,,0,92,92,42,1,CHAIN,LB,old,m,./images/CHAINLB.png,,,,,,,,,,,,,,,,,,,,,
,,,,,,,,,,,,,,,,,198931,18,2022-01-29_11h19.07.551,lexical_decision_task_DD_L6,2021.2.3,Win32,61.13964294,,,,,,,,,,0.9659,1,,,,,,,,,,,,,,,0,0.311111111,-0.351851908,1,0,0,0.9659,button_right_main,0.311111111,-0.351851908,1,0,0,,0,93,93,23,1,CLOTH,HB,old,m,./images/CLOTHHB.png,,,,,,,,,,,,,,,,,,,,,
,,,,,,,,,,,,,,,,,198931,18,2022-01-29_11h19.07.551,lexical_decision_task_DD_L6,2021.2.3,Win32,61.13964294,,,,,,,,,,1.2654,1,,,,,,,,,,,,,,,0,-0.325925912,-0.337963019,1,0,0,1.2654,button_left_main,-0.325925912,-0.337963019,1,0,0,,0,94,94,94,1,BLANS,HB,old,z,./images/BLANSHB.png,,,,,,,,,,,,,,,,,,,,,
,,,,,,,,,,,,,,,,,198931,18,2022-01-29_11h19.07.551,lexical_decision_task_DD_L6,2021.2.3,Win32,61.13964294,,,,,,,,,,2.0648,1,,,,,,,,,,,,,,,0,-0.238888889,-0.334259288,1,0,0,2.0648,button_left_main,-0.238888889,-0.334259288,1,0,0,,0,95,95,129,1,PRANS,C,old,z,./images/PRANS.png,,,,,,,,,,,,,,,,,,,,,
,,,,,,,,,,,,,,,,,198931,18,2022-01-29_11h19.07.551,lexical_decision_task_DD_L6,2021.2.3,Win32,61.13964294,,,,,,,,,,1.1633,1,,,,,,,,,,,,,,,0,-0.244444444,-0.315740797,1,0,0,1.1633,button_left_main,-0.244444444,-0.315740797,1,0,0,,0,96,96,119,1,PAFER,LB,old,z,./images/PAFERLB.png,,,,,,,,,,,,,,,,,,,,,
,,,,,,,,,,,,,,,,,198931,18,2022-01-29_11h19.07.551,lexical_decision_task_DD_L6,2021.2.3,Win32,61.13964294,,,,,,,,,,3.2632,0,,,,,,,,,,,,,,,0,-0.259259245,-0.325925954,1,0,0,3.2632,button_left_main,-0.259259245,-0.325925954,1,0,0,,0,97,97,74,1,JUMPER,HB,old,m,./images/JUMPERHB.png,,,,,,,,,,,,,,,,,,,,,
,,,,,,,,,,,,,,,,,198931,18,2022-01-29_11h19.07.551,lexical_decision_task_DD_L6,2021.2.3,Win32,61.13964294,,,,,,,,,,1.5468,1,,,,,,,,,,,,,,,0,-0.250925912,-0.310185242,1,0,0,1.5468,button_left_main,-0.250925912,-0.310185242,1,0,0,,0,98,98,163,1,GAMBA,HB,old,z,./images/GAMBAHB.png,,,,,,,,,,,,,,,,,,,,,
,,,,,,,,,,,,,,,,,198931,18,2022-01-29_11h19.07.551,lexical_decision_task_DD_L6,2021.2.3,Win32,61.13964294,,,,,,,,,,1.2186,1,,,,,,,,,,,,,,,0,0.346296353,-0.290740797,1,0,0,1.2186,button_right_main,0.346296353,-0.290740797,1,0,0,,0,99,99,52,1,DESERT,C,old,m,./images/DESERT.png,,,,,,,,,,,,,,,,,,,,,
,,,,,,,,,,,,,,,,,198931,18,2022-01-29_11h19.07.551,lexical_decision_task_DD_L6,2021.2.3,Win32,61.13964294,,,,,,,,,,1.6999,1,,,,,,,,,,,,,,,0,0.312963019,-0.264814843,1,0,0,1.6999,button_right_main,0.312963019,-0.264814843,1,0,0,,0,100,100,81,1,DRILL,LB,old,m,./images/DRILLLB.png,,,,,,,,,,,,,,,,,,,,,
,,,,,,,,,,,,,,,,,198931,18,2022-01-29_11h19.07.551,lexical_decision_task_DD_L6,2021.2.3,Win32,61.13964294,,,,,,,,,,1.0992,1,,,,,,,,,,,,,,,0,0.35,-0.298148176,1,0,0,1.0992,button_right_main,0.35,-0.298148176,1,0,0,,0,101,101,24,1,FLESH,LB,old,m,./images/FLESHLB.png,,,,,,,,,,,,,,,,,,,,,
,,,,,,,,,,,,,,,,,198931,18,2022-01-29_11h19.07.551,lexical_decision_task_DD_L6,2021.2.3,Win32,61.13964294,,,,,,,,,,1.1798,1,,,,,,,,,,,,,,,0,0.362963019,-0.276851908,1,0,0,1.1798,button_right_main,0.362963019,-0.276851908,1,0,0,,0,102,102,38,1,ENGINE,HB,old,m,./images/ENGINEHB.png,,,,,,,,,,,,,,,,,,,,,
,,,,,,,,,,,,,,,,,198931,18,2022-01-29_11h19.07.551,lexical_decision_task_DD_L6,2021.2.3,Win32,61.13964294,,,,,,,,,,0.9963,1,,,,,,,,,,,,,,,0,0.333333333,-0.303703732,1,0,0,0.9963,button_right_main,0.333333333,-0.303703732,1,0,0,,0,103,103,15,1,COLLAR,LB,old,m,./images/COLLARLB.png,,,,,,,,,,,,,,,,,,,,,
,,,,,,,,,,,,,,,,,198931,18,2022-01-29_11h19.07.551,lexical_decision_task_DD_L6,2021.2.3,Win32,61.13964294,,,,,,,,,,1.1654,1,,,,,,,,,,,,,,,0,-0.260185157,-0.292592621,1,0,0,1.1654,button_left_main,-0.260185157,-0.292592621,1,0,0,,0,104,104,158,1,EGECT,LB,old,z,./images/EGECTLB.png,,,,,,,,,,,,,,,,,,,,,
,,,,,,,,,,,,,,,,,198931,18,2022-01-29_11h19.07.551,lexical_decision_task_DD_L6,2021.2.3,Win32,61.13964294,,,,,,,,,,1.3965,1,,,,,,,,,,,,,,,0,-0.26851849,-0.316666667,1,0,0,1.3965,button_left_main,-0.26851849,-0.316666667,1,0,0,,0,105,105,150,1,NOOLS,C,old,z,./images/NOOLS.png,,,,,,,,,,,,,,,,,,,,,
,,,,,,,,,,,,,,,,,198931,18,2022-01-29_11h19.07.551,lexical_decision_task_DD_L6,2021.2.3,Win32,61.13964294,,,,,,,,,,1.0135,1,,,,,,,,,,,,,,,0,0.350925954,-0.338888889,1,0,0,1.0135,button_right_main,0.350925954,-0.338888889,1,0,0,,0,106,106,16,1,GRAPE,C,old,m,./images/GRAPE.png,,,,,,,,,,,,,,,,,,,,,
,,,,,,,,,,,,,,,,,198931,18,2022-01-29_11h19.07.551,lexical_decision_task_DD_L6,2021.2.3,Win32,61.13964294,,,,,,,,,,0.9135,1,,,,,,,,,,,,,,,0,0.309259288,-0.320370399,1,0,0,0.9135,button_right_main,0.309259288,-0.320370399,1,0,0,,0,107,107,43,1,STOOL,C,old,m,./images/STOOL.png,,,,,,,,,,,,,,,,,,,,,
,,,,,,,,,,,,,,,,,198931,18,2022-01-29_11h19.07.551,lexical_decision_task_DD_L6,2021.2.3,Win32,61.13964294,,,,,,,,,,0.9303,1,,,,,,,,,,,,,,,0,0.296296353,-0.318518575,1,0,0,0.9303,button_right_main,0.296296353,-0.318518575,1,0,0,,0,108,108,4,1,BOXER,C,old,m,./images/BOXER.png,,,,,,,,,,,,,,,,,,,,,
,,,,,,,,,,,,,,,,,198931,18,2022-01-29_11h19.07.551,lexical_decision_task_DD_L6,2021.2.3,Win32,61.13964294,,,,,,,,,,0.7645,1,,,,,,,,,,,,,,,0,0.324074131,-0.307407464,1,0,0,0.7645,button_right_main,0.324074131,-0.307407464,1,0,0,,0,109,109,37,1,TIGER,C,old,m,./images/TIGER.png,,,,,,,,,,,,,,,,,,,,,
,,,,,,,,,,,,,,,,,198931,18,2022-01-29_11h19.07.551,lexical_decision_task_DD_L6,2021.2.3,Win32,61.13964294,,,,,,,,,,1.8494,1,,,,,,,,,,,,,,,0,-0.259259245,-0.33148151,1,0,0,1.8494,button_left_main,-0.259259245,-0.33148151,1,0,0,,0,110,110,95,1,HANTY,LB,old,z,./images/HANTYLB.png,,,,,,,,,,,,,,,,,,,,,
,,,,,,,,,,,,,,,,,198931,18,2022-01-29_11h19.07.551,lexical_decision_task_DD_L6,2021.2.3,Win32,61.13964294,,,,,,,,,,1.4486,1,,,,,,,,,,,,,,,0,0.345370399,-0.349074131,1,0,0,1.4486,button_right_main,0.345370399,-0.349074131,1,0,0,,0,111,111,48,1,SHIELD,LB,old,m,./images/SHIELDLB.png,,,,,,,,,,,,,,,,,,,,,
,,,,,,,,,,,,,,,,,198931,18,2022-01-29_11h19.07.551,lexical_decision_task_DD_L6,2021.2.3,Win32,61.13964294,,,,,,,,,,1.3632,1,,,,,,,,,,,,,,,0,-0.246296268,-0.327777778,1,0,0,1.3632,button_left_main,-0.246296268,-0.327777778,1,0,0,,0,112,112,91,1,SHENS,HB,old,z,./images/SHENSHB.png,,,,,,,,,,,,,,,,,,,,,
,,,,,,,,,,,,,,,,,198931,18,2022-01-29_11h19.07.551,lexical_decision_task_DD_L6,2021.2.3,Win32,61.13964294,,,,,,,,,,1.9468,1,,,,,,,,,,,,,,,0,-0.232407379,-0.319444444,1,0,0,1.9468,button_left_main,-0.232407379,-0.319444444,1,0,0,,0,113,113,103,1,FLORT,HB,old,z,./images/FLORTHB.png,,,,,,,,,,,,,,,,,,,,,
,,,,,,,,,,,,,,,,,198931,18,2022-01-29_11h19.07.551,lexical_decision_task_DD_L6,2021.2.3,Win32,61.13964294,,,,,,,,,,1.0655,1,,,,,,,,,,,,,,,0,0.366666667,-0.301851908,1,0,0,1.0655,button_right_main,0.366666667,-0.301851908,1,0,0,,0,114,114,17,1,PARADE,HB,old,m,./images/PARADEHB.png,,,,,,,,,,,,,,,,,,,,,
,,,,,,,,,,,,,,,,,198931,18,2022-01-29_11h19.07.551,lexical_decision_task_DD_L6,2021.2.3,Win32,61.13964294,,,,,,,,,,0.8994,1,,,,,,,,,,,,,,,0,0.337037065,-0.279629686,1,0,0,0.8994,button_right_main,0.337037065,-0.279629686,1,0,0,,0,115,115,21,1,DANCER,LB,old,m,./images/DANCERLB.png,,,,,,,,,,,,,,,,,,,,,
,,,,,,,,,,,,,,,,,198931,18,2022-01-29_11h19.07.551,lexical_decision_task_DD_L6,2021.2.3,Win32,61.13964294,,,,,,,,,,0.9632,1,,,,,,,,,,,,,,,0,-0.319444444,-0.35648151,1,0,0,0.9632,button_left_main,-0.319444444,-0.35648151,1,0,0,,0,116,116,132,1,SCIFF,C,old,z,./images/SCIFF.png,,,,,,,,,,,,,,,,,,,,,
,,,,,,,,,,,,,,,,,198931,18,2022-01-29_11h19.07.551,lexical_decision_task_DD_L6,2021.2.3,Win32,61.13964294,,,,,,,,,,1.0654,1,,,,,,,,,,,,,,,0,-0.288888889,-0.336111111,1,0,0,1.0654,button_left_main,-0.288888889,-0.336111111,1,0,0,,0,117,117,137,1,JOOST,LB,old,z,./images/JOOSTLB.png,,,,,,,,,,,,,,,,,,,,,
,,,,,,,,,,,,,,,,,198931,18,2022-01-29_11h19.07.551,lexical_decision_task_DD_L6,2021.2.3,Win32,61.13964294,,,,,,,,,,1.1799,1,,,,,,,,,,,,,,,0,-0.281481467,-0.317592621,1,0,0,1.1799,button_left_main,-0.281481467,-0.317592621,1,0,0,,0,118,118,121,1,CEERS,HB,old,z,./images/CEERSHB.png,,,,,,,,,,,,,,,,,,,,,
,,,,,,,,,,,,,,,,,198931,18,2022-01-29_11h19.07.551,lexical_decision_task_DD_L6,2021.2.3,Win32,61.13964294,,,,,,,,,,1.2157,1,,,,,,,,,,,,,,,0,0.334259288,-0.291666667,1,0,0,1.2157,button_right_main,0.334259288,-0.291666667,1,0,0,,0,119,119,56,1,HEATER,HB,old,m,./images/HEATERHB.png,,,,,,,,,,,,,,,,,,,,,
,,,,,,,,,,,,,,,,,198931,18,2022-01-29_11h19.07.551,lexical_decision_task_DD_L6,2021.2.3,Win32,61.13964294,,,,,,,,,,1.6796,1,,,,,,,,,,,,,,,0,0.318518575,-0.3,1,0,0,1.6796,button_right_main,0.318518575,-0.3,1,0,0,,0,120,120,67,1,POKER,C,old,m,./images/POKER.png,,,,,,,,,,,,,,,,,,,,,
,,,,,,,,,,,,,,,,,198931,18,2022-01-29_11h19.07.551,lexical_decision_task_DD_L6,2021.2.3,Win32,61.13964294,,,,,,,,,,1.015,1,,,,,,,,,,,,,,,0,-0.255555556,-0.319444444,1,0,0,1.015,button_left_main,-0.255555556,-0.319444444,1,0,0,,0,121,121,113,1,LINEW,LB,old,z,./images/LINEWLB.png,,,,,,,,,,,,,,,,,,,,,
,,,,,,,,,,,,,,,,,198931,18,2022-01-29_11h19.07.551,lexical_decision_task_DD_L6,2021.2.3,Win32,61.13964294,,,,,,,,,,1.9317,1,,,,,,,,,,,,,,,0,-0.267592578,-0.312963019,1,0,0,1.9317,button_left_main,-0.267592578,-0.312963019,1,0,0,,0,122,122,112,1,MYING,HB,old,z,./images/MYINGHB.png,,,,,,,,,,,,,,,,,,,,,
,,,,,,,,,,,,,,,,,198931,18,2022-01-29_11h19.07.551,lexical_decision_task_DD_L6,2021.2.3,Win32,61.13964294,,,,,,,,,,1.1019,1,,,,,,,,,,,,,,,0,-0.266666667,-0.343518575,1,0,0,1.1019,button_left_main,-0.266666667,-0.343518575,1,0,0,,0,123,123,116,1,BALGY,LB,old,z,./images/BALGYLB.png,,,,,,,,,,,,,,,,,,,,,
,,,,,,,,,,,,,,,,,198931,18,2022-01-29_11h19.07.551,lexical_decision_task_DD_L6,2021.2.3,Win32,61.13964294,,,,,,,,,,2.1153,1,,,,,,,,,,,,,,,0,-0.25,-0.334259288,1,0,0,2.1153,button_left_main,-0.25,-0.334259288,1,0,0,,0,124,124,84,1,HAXES,C,old,z,./images/HAXES.png,,,,,,,,,,,,,,,,,,,,,
,,,,,,,,,,,,,,,,,198931,18,2022-01-29_11h19.07.551,lexical_decision_task_DD_L6,2021.2.3,Win32,61.13964294,,,,,,,,,,2.965,1,,,,,,,,,,,,,,,0,0.338888889,-0.316666667,1,0,0,2.965,button_right_main,0.028703732,-0.402777778,1,0,0,,0,125,125,20,1,GRANNY,HB,old,m,./images/GRANNYHB.png,break_done_button,,,,,,,,,,,,,,,,,,,,
,,,,,,,,,,,,,,,,,198931,18,2022-01-29_11h19.07.551,lexical_decision_task_DD_L6,2021.2.3,Win32,61.13964294,,,,,,,,,,1.2155,1,,,,,,,,,,,,,,,0,0.4,-0.271296353,1,0,0,1.2155,button_right_main,0.4,-0.271296353,1,0,0,,0,126,126,70,1,BANANA,C,old,m,./images/BANANA.png,,,,,,,,,,,,,,,,,,,,,
,,,,,,,,,,,,,,,,,198931,18,2022-01-29_11h19.07.551,lexical_decision_task_DD_L6,2021.2.3,Win32,61.13964294,,,,,,,,,,0.9462,1,,,,,,,,,,,,,,,0,-0.320370356,-0.294444444,1,0,0,0.9462,button_left_main,-0.320370356,-0.294444444,1,0,0,,0,127,127,131,1,NACES,LB,old,z,./images/NACESLB.png,,,,,,,,,,,,,,,,,,,,,
,,,,,,,,,,,,,,,,,198931,18,2022-01-29_11h19.07.551,lexical_decision_task_DD_L6,2021.2.3,Win32,61.13964294,,,,,,,,,,0.8798,1,,,,,,,,,,,,,,,0,0.350925954,-0.28148151,1,0,0,0.8798,button_right_main,0.350925954,-0.28148151,1,0,0,,0,128,128,79,1,RULER,C,old,m,./images/RULER.png,,,,,,,,,,,,,,,,,,,,,
,,,,,,,,,,,,,,,,,198931,18,2022-01-29_11h19.07.551,lexical_decision_task_DD_L6,2021.2.3,Win32,61.13964294,,,,,,,,,,1.1297,1,,,,,,,,,,,,,,,0,0.354629686,-0.278703732,1,0,0,1.1297,button_right_main,0.354629686,-0.278703732,1,0,0,,0,129,129,27,1,BUTTER,LB,old,m,./images/BUTTERLB.png,,,,,,,,,,,,,,,,,,,,,
,,,,,,,,,,,,,,,,,198931,18,2022-01-29_11h19.07.551,lexical_decision_task_DD_L6,2021.2.3,Win32,61.13964294,,,,,,,,,,1.6828,1,,,,,,,,,,,,,,,0,-0.288888889,-0.274074131,1,0,0,1.6828,button_left_main,-0.288888889,-0.274074131,1,0,0,,0,130,130,140,1,DOVET,LB,old,z,./images/DOVETLB.png,,,,,,,,,,,,,,,,,,,,,
,,,,,,,,,,,,,,,,,198931,18,2022-01-29_11h19.07.551,lexical_decision_task_DD_L6,2021.2.3,Win32,61.13964294,,,,,,,,,,1.3655,1,,,,,,,,,,,,,,,0,-0.248148134,-0.234259288,1,0,0,1.3655,button_left_main,-0.248148134,-0.234259288,1,0,0,,0,131,131,145,1,LAMEL,HB,old,z,./images/LAMELHB.png,,,,,,,,,,,,,,,,,,,,,
,,,,,,,,,,,,,,,,,198931,18,2022-01-29_11h19.07.551,lexical_decision_task_DD_L6,2021.2.3,Win32,61.13964294,,,,,,,,,,1.2631,1,,,,,,,,,,,,,,,0,-0.281481467,-0.272222222,1,0,0,1.2631,button_left_main,-0.281481467,-0.272222222,1,0,0,,0,132,132,110,1,CRUNK,LB,old,z,./images/CRUNKLB.png,,,,,,,,,,,,,,,,,,,,,
,,,,,,,,,,,,,,,,,198931,18,2022-01-29_11h19.07.551,lexical_decision_task_DD_L6,2021.2.3,Win32,61.13964294,,,,,,,,,,1.198,1,,,,,,,,,,,,,,,0,-0.283333333,-0.262963019,1,0,0,1.198,button_left_main,-0.283333333,-0.262963019,1,0,0,,0,133,133,138,1,PLICE,C,old,z,./images/PLICE.png,,,,,,,,,,,,,,,,,,,,,
,,,,,,,,,,,,,,,,,198931,18,2022-01-29_11h19.07.551,lexical_decision_task_DD_L6,2021.2.3,Win32,61.13964294,,,,,,,,,,1.1965,1,,,,,,,,,,,,,,,0,0.436111111,-0.307407464,1,0,0,1.1965,button_right_main,0.436111111,-0.307407464,1,0,0,,0,134,134,78,1,BROOM,LB,old,m,./images/BROOMLB.png,,,,,,,,,,,,,,,,,,,,,
,,,,,,,,,,,,,,,,,198931,18,2022-01-29_11h19.07.551,lexical_decision_task_DD_L6,2021.2.3,Win32,61.13964294,,,,,,,,,,1.4844,1,,,,,,,,,,,,,,,0,0.402777778,-0.326851908,1,0,0,1.4844,button_right_main,0.402777778,-0.326851908,1,0,0,,0,135,135,18,1,PARCEL,LB,old,m,./images/PARCELLB.png,,,,,,,,,,,,,,,,,,,,,
,,,,,,,,,,,,,,,,,198931,18,2022-01-29_11h19.07.551,lexical_decision_task_DD_L6,2021.2.3,Win32,61.13964294,,,,,,,,,,0.9653,1,,,,,,,,,,,,,,,0,0.444444444,-0.325,1,0,0,0.9653,button_right_main,0.444444444,-0.325,1,0,0,,0,136,136,10,1,GARDEN,C,old,m,./images/GARDEN.png,,,,,,,,,,,,,,,,,,,,,
,,,,,,,,,,,,,,,,,198931,18,2022-01-29_11h19.07.551,lexical_decision_task_DD_L6,2021.2.3,Win32,61.13964294,,,,,,,,,,1.1803,1,,,,,,,,,,,,,,,0,-0.267592578,-0.292592621,1,0,0,1.1803,button_left_main,-0.267592578,-0.292592621,1,0,0,,0,137,137,122,1,BLOOT,LB,old,z,./images/BLOOTLB.png,,,,,,,,,,,,,,,,,,,,,
,,,,,,,,,,,,,,,,,198931,18,2022-01-29_11h19.07.551,lexical_decision_task_DD_L6,2021.2.3,Win32,61.13964294,,,,,,,,,,1.1016,1,,,,,,,,,,,,,,,0,0.414814843,-0.330555556,1,0,0,1.1016,button_right_main,0.414814843,-0.330555556,1,0,0,,0,138,138,58,1,CANOE,C,old,m,./images/CANOE.png,,,,,,,,,,,,,,,,,,,,,
,,,,,,,,,,,,,,,,,198931,18,2022-01-29_11h19.07.551,lexical_decision_task_DD_L6,2021.2.3,Win32,61.13964294,,,,,,,,,,1.2468,1,,,,,,,,,,,,,,,0,0.359259288,-0.296296353,1,0,0,1.2468,button_right_main,0.359259288,-0.296296353,1,0,0,,0,139,139,47,1,LAGOON,HB,old,m,./images/LAGOONHB.png,,,,,,,,,,,,,,,,,,,,,
,,,,,,,,,,,,,,,,,198931,18,2022-01-29_11h19.07.551,lexical_decision_task_DD_L6,2021.2.3,Win32,61.13964294,,,,,,,,,,1.3488,1,,,,,,,,,,,,,,,0,-0.252777778,-0.336111111,1,0,0,1.3488,button_left_main,-0.252777778,-0.336111111,1,0,0,,0,140,140,160,1,VEETS,HB,old,z,./images/VEETSHB.png,,,,,,,,,,,,,,,,,,,,,
,,,,,,,,,,,,,,,,,198931,18,2022-01-29_11h19.07.551,lexical_decision_task_DD_L6,2021.2.3,Win32,61.13964294,,,,,,,,,,1.8301,1,,,,,,,,,,,,,,,0,0.313888889,-0.316666667,1,0,0,1.8301,button_right_main,0.313888889,-0.316666667,1,0,0,,0,141,141,28,1,CASINO,C,old,m,./images/CASINO.png,,,,,,,,,,,,,,,,,,,,,
,,,,,,,,,,,,,,,,,198931,18,2022-01-29_11h19.07.551,lexical_decision_task_DD_L6,2021.2.3,Win32,61.13964294,,,,,,,,,,1.6652,1,,,,,,,,,,,,,,,0,0.354629686,-0.307407464,1,0,0,1.6652,button_right_main,0.354629686,-0.307407464,1,0,0,,0,142,142,77,1,WHEEL,HB,old,m,./images/WHEELHB.png,,,,,,,,,,,,,,,,,,,,,
,,,,,,,,,,,,,,,,,198931,18,2022-01-29_11h19.07.551,lexical_decision_task_DD_L6,2021.2.3,Win32,61.13964294,,,,,,,,,,1.0802,1,,,,,,,,,,,,,,,0,0.299074131,-0.278703732,1,0,0,1.0802,button_right_main,0.299074131,-0.278703732,1,0,0,,0,143,143,33,1,SAUNA,LB,old,m,./images/SAUNALB.png,,,,,,,,,,,,,,,,,,,,,
,,,,,,,,,,,,,,,,,198931,18,2022-01-29_11h19.07.551,lexical_decision_task_DD_L6,2021.2.3,Win32,61.13964294,,,,,,,,,,0.9299,1,,,,,,,,,,,,,,,0,0.354629686,-0.322222222,1,0,0,0.9299,button_right_main,0.354629686,-0.322222222,1,0,0,,0,144,144,73,1,GLOVE,C,old,m,./images/GLOVE.png,,,,,,,,,,,,,,,,,,,,,
,,,,,,,,,,,,,,,,,198931,18,2022-01-29_11h19.07.551,lexical_decision_task_DD_L6,2021.2.3,Win32,61.13964294,,,,,,,,,,1.2534,1,,,,,,,,,,,,,,,0,-0.230555556,-0.3,1,0,0,1.2534,button_left_main,-0.230555556,-0.3,1,0,0,,0,145,145,98,1,BAMPS,LB,old,z,./images/BAMPSLB.png,,,,,,,,,,,,,,,,,,,,,
,,,,,,,,,,,,,,,,,198931,18,2022-01-29_11h19.07.551,lexical_decision_task_DD_L6,2021.2.3,Win32,61.13964294,,,,,,,,,,0.9626,1,,,,,,,,,,,,,,,0,0.4,-0.342592621,1,0,0,0.9626,button_right_main,0.4,-0.342592621,1,0,0,,0,146,146,45,1,MONKEY,LB,old,m,./images/MONKEYLB.png,,,,,,,,,,,,,,,,,,,,,
,,,,,,,,,,,,,,,,,198931,18,2022-01-29_11h19.07.551,lexical_decision_task_DD_L6,2021.2.3,Win32,61.13964294,,,,,,,,,,2.863,0,,,,,,,,,,,,,,,0,-0.240740712,-0.334259288,1,0,0,2.863,button_left_main,-0.240740712,-0.334259288,1,0,0,,0,147,147,76,1,MIDGET,C,old,m,./images/MIDGET.png,,,,,,,,,,,,,,,,,,,,,
,,,,,,,,,,,,,,,,,198931,18,2022-01-29_11h19.07.551,lexical_decision_task_DD_L6,2021.2.3,Win32,61.13964294,,,,,,,,,,0.9652,1,,,,,,,,,,,,,,,0,0.371296353,-0.301851908,1,0,0,0.9652,button_right_main,0.371296353,-0.301851908,1,0,0,,0,148,148,63,1,BAKER,LB,old,m,./images/BAKERLB.png,,,,,,,,,,,,,,,,,,,,,
,,,,,,,,,,,,,,,,,198931,18,2022-01-29_11h19.07.551,lexical_decision_task_DD_L6,2021.2.3,Win32,61.13964294,,,,,,,,,,1.4987,0,,,,,,,,,,,,,,,0,-0.284259245,-0.283333333,1,0,0,1.4987,button_left_main,-0.284259245,-0.283333333,1,0,0,,0,149,149,53,1,POSTER,HB,old,m,./images/POSTERHB.png,,,,,,,,,,,,,,,,,,,,,
,,,,,,,,,,,,,,,,,198931,18,2022-01-29_11h19.07.551,lexical_decision_task_DD_L6,2021.2.3,Win32,61.13964294,,,,,,,,,,1.2158,1,,,,,,,,,,,,,,,0,0.307407464,-0.283333333,1,0,0,1.2158,button_right_main,0.307407464,-0.283333333,1,0,0,,0,150,150,25,1,CHALK,C,old,m,./images/CHALK.png,,,,,,,,,,,,,,,,,,,,,
,,,,,,,,,,,,,,,,,198931,18,2022-01-29_11h19.07.551,lexical_decision_task_DD_L6,2021.2.3,Win32,61.13964294,,,,,,,,,,1.2487,1,,,,,,,,,,,,,,,0,0.344444444,-0.310185242,1,0,0,1.2487,button_right_main,0.344444444,-0.310185242,1,0,0,,0,151,151,31,1,STEAK,C,old,m,./images/STEAK.png,,,,,,,,,,,,,,,,,,,,,
,,,,,,,,,,,,,,,,,198931,18,2022-01-29_11h19.07.551,lexical_decision_task_DD_L6,2021.2.3,Win32,61.13964294,,,,,,,,,,1.0318,1,,,,,,,,,,,,,,,0,-0.240740712,-0.272222222,1,0,0,1.0318,button_left_main,-0.240740712,-0.272222222,1,0,0,,0,152,152,92,1,PAIMS,LB,old,z,./images/PAIMSLB.png,,,,,,,,,,,,,,,,,,,,,
,,,,,,,,,,,,,,,,,198931,18,2022-01-29_11h19.07.551,lexical_decision_task_DD_L6,2021.2.3,Win32,61.13964294,,,,,,,,,,1.3131,1,,,,,,,,,,,,,,,0,-0.256481467,-0.296296353,1,0,0,1.3131,button_left_main,-0.256481467,-0.296296353,1,0,0,,0,153,153,87,1,TRING,C,old,z,./images/TRING.png,,,,,,,,,,,,,,,,,,,,,
,,,,,,,,,,,,,,,,,198931,18,2022-01-29_11h19.07.551,lexical_decision_task_DD_L6,2021.2.3,Win32,61.13964294,,,,,,,,,,2.4156,0,,,,,,,,,,,,,,,0,-0.264814801,-0.312963019,1,0,0,2.4156,button_left_main,-0.264814801,-0.312963019,1,0,0,,0,154,154,83,1,WHISKY,HB,old,m,./images/WHISKYHB.png,,,,,,,,,,,,,,,,,,,,,
,,,,,,,,,,,,,,,,,198931,18,2022-01-29_11h19.07.551,lexical_decision_task_DD_L6,2021.2.3,Win32,61.13964294,,,,,,,,,,1.0462,1,,,,,,,,,,,,,,,0,-0.30370369,-0.337963019,1,0,0,1.0462,button_left_main,-0.30370369,-0.337963019,1,0,0,,0,155,155,102,1,DULLE,C,old,z,./images/DULLE.png,,,,,,,,,,,,,,,,,,,,,
,,,,,,,,,,,,,,,,,198931,18,2022-01-29_11h19.07.551,lexical_decision_task_DD_L6,2021.2.3,Win32,61.13964294,,,,,,,,,,1.1986,1,,,,,,,,,,,,,,,0,0.272222222,-0.297222222,1,0,0,1.1986,button_right_main,0.272222222,-0.297222222,1,0,0,,0,156,156,3,1,CRATER,LB,old,m,./images/CRATERLB.png,,,,,,,,,,,,,,,,,,,,,
,,,,,,,,,,,,,,,,,198931,18,2022-01-29_11h19.07.551,lexical_decision_task_DD_L6,2021.2.3,Win32,61.13964294,,,,,,,,,,1.1799,1,,,,,,,,,,,,,,,0,-0.238888889,-0.314814843,1,0,0,1.1799,button_left_main,-0.238888889,-0.314814843,1,0,0,,0,157,157,107,1,FASKS,LB,old,z,./images/FASKSLB.png,,,,,,,,,,,,,,,,,,,,,
,,,,,,,,,,,,,,,,,198931,18,2022-01-29_11h19.07.551,lexical_decision_task_DD_L6,2021.2.3,Win32,61.13964294,,,,,,,,,,0.9463,1,,,,,,,,,,,,,,,0,0.297222222,-0.323148176,1,0,0,0.9463,button_right_main,0.297222222,-0.323148176,1,0,0,,0,158,158,8,1,CLIFF,HB,old,m,./images/CLIFFHB.png,,,,,,,,,,,,,,,,,,,,,
,,,,,,,,,,,,,,,,,198931,18,2022-01-29_11h19.07.551,lexical_decision_task_DD_L6,2021.2.3,Win32,61.13964294,,,,,,,,,,1.0489,1,,,,,,,,,,,,,,,0,0.287963019,-0.30648151,1,0,0,1.0489,button_right_main,0.287963019,-0.30648151,1,0,0,,0,159,159,11,1,MEDAL,HB,old,m,./images/MEDALHB.png,,,,,,,,,,,,,,,,,,,,,
,,,,,,,,,,,,,,,,,198931,18,2022-01-29_11h19.07.551,lexical_decision_task_DD_L6,2021.2.3,Win32,61.13964294,,,,,,,,,,2.1804,1,,,,,,,,,,,,,,,0,-0.304629601,-0.332407464,1,0,0,2.1804,button_left_main,-0.304629601,-0.332407464,1,0,0,,0,160,160,151,1,TINKY,HB,old,z,./images/TINKYHB.png,,,,,,,,,,,,,,,,,,,,,
,,,,,,,,,,,,,,,,,198931,18,2022-01-29_11h19.07.551,lexical_decision_task_DD_L6,2021.2.3,Win32,61.13964294,,,,,,,,,,1.2967,1,,,,,,,,,,,,,,,0,-0.26851849,-0.320370399,1,0,0,1.2967,button_left_main,-0.26851849,-0.320370399,1,0,0,,0,161,161,155,1,CANGY,LB,old,z,./images/CANGYLB.png,,,,,,,,,,,,,,,,,,,,,
,,,,,,,,,,,,,,,,,198931,18,2022-01-29_11h19.07.551,lexical_decision_task_DD_L6,2021.2.3,Win32,61.13964294,,,,,,,,,,1.0156,1,,,,,,,,,,,,,,,0,0.374074131,-0.25648151,1,0,0,1.0156,button_right_main,0.374074131,-0.25648151,1,0,0,,0,162,162,22,1,CLOWN,C,old,m,./images/CLOWN.png,,,,,,,,,,,,,,,,,,,,,
,,,,,,,,,,,,,,,,,198931,18,2022-01-29_11h19.07.551,lexical_decision_task_DD_L6,2021.2.3,Win32,61.13964294,,,,,,,,,,1.096,1,,,,,,,,,,,,,,,0,0.283333333,-0.280555556,1,0,0,1.096,button_right_main,0.283333333,-0.280555556,1,0,0,,0,163,163,34,1,RAZOR,C,old,m,./images/RAZOR.png,,,,,,,,,,,,,,,,,,,,,
,,,,,,,,,,,,,,,,,198931,18,2022-01-29_11h19.07.551,lexical_decision_task_DD_L6,2021.2.3,Win32,61.13964294,,,,,,,,,,2.0469,1,,,,,,,,,,,,,,,0,-0.231481467,-0.336111111,1,0,0,2.0469,button_left_main,-0.231481467,-0.336111111,1,0,0,,0,164,164,114,1,RIKES,C,old,z,./images/RIKES.png,,,,,,,,,,,,,,,,,,,,,
,,,,,,,,,,,,,,,,,198931,18,2022-01-29_11h19.07.551,lexical_decision_task_DD_L6,2021.2.3,Win32,61.13964294,,,,,,,,,,0.997,1,,,,,,,,,,,,,,,0,0.318518575,-0.270370399,1,0,0,0.997,button_right_main,0.318518575,-0.270370399,1,0,0,,0,165,165,55,1,ALLEY,C,old,m,./images/ALLEY.png,,,,,,,,,,,,,,,,,,,,,
,,,,,,,,,,,,,,,,,198931,18,2022-01-29_11h19.07.551,lexical_decision_task_DD_L6,2021.2.3,Win32,61.13964294,,,,,,,,,,1.1179,1,,,,,,,,,,,,,,,0,-0.282407379,-0.310185242,1,0,0,1.1179,button_left_main,-0.282407379,-0.310185242,1,0,0,,0,166,166,120,1,RINED,C,old,z,./images/RINED.png,,,,,,,,,,,,,,,,,,,,,
,,,,,,,,,,,,,,,,,198931,18,2022-01-29_11h19.07.551,lexical_decision_task_DD_L6,2021.2.3,Win32,61.13964294,,,,,,,,,,2.3963,1,,,,,,,,,,,,,,,0,-0.264814801,-0.334259288,1,0,0,2.3963,button_left_main,-0.264814801,-0.334259288,1,0,0,,0,167,167,118,1,BAVEL,HB,old,z,./images/BAVELHB.png,,,,,,,,,,,,,,,,,,,,,
,0.064814843,-0.424074131,1,0,0,instr_done_button,,,,,,1,test,"In the next phase you will be presented with the words from the the first phase. Your job is to decide whether you remember seeing the word or not. If you remember seeing the word press ""old"" or type ""m"". If you do not remember seeing the word press ""new"" or type ""z"". Please press the space bar or click on continue to begin. ",,,198931,18,2022-01-29_11h19.07.551,lexical_decision_task_DD_L6,2021.2.3,Win32,61.13964294,,,,,,,,,,,,,,,,,,,,,,,,,,,,,,,,,,,,,,,,,,,,,,,,,,,0,0,0,0,1,,,,,,,,,,,,,,,
,-0.016666667,-0.399074131,1,0,0,instr_done_button,,,,,,1,test,"In the next phase you will be presented with the words from the the first phase. Your job is to decide whether you remember seeing the word or not. If you remember seeing the word press ""old"" or type ""m"". If you do not remember seeing the word press ""new"" or type ""z"". Please press the space bar or click on continue to begin. ",,,198931,18,2022-01-29_11h19.07.551,lexical_decision_task_DD_L6,2021.2.3,Win32,61.13964294,,,,,,,,,,,,,,,,,,,,,,,,,,,,,,,,,,,,,,,,,,,,,,,,,,,1,0,1,0,1,,,,,,,,,,,,,,,
,0.071296353,-0.38148151,1,0,0,instr_done_button,,,,,,1,test,"In the next phase you will be presented with the words from the the first phase. Your job is to decide whether you remember seeing the word or not. If you remember seeing the word press ""old"" or type ""m"". If you do not remember seeing the word press ""new"" or type ""z"". Please press the space bar or click on continue to begin. ",,,198931,18,2022-01-29_11h19.07.551,lexical_decision_task_DD_L6,2021.2.3,Win32,61.13964294,,,,,,,,,,,,,,,,,,,,,,,,,,,,,,,,,,,,,,,,,,,,,,,,,,,2,0,2,0,1,,,,,,,,,,,,,,,
space,0.070370399,-0.377777778,0,0,0,,,,,,,1,test,"In the next phase you will be presented with the words from the the first phase. Your job is to decide whether you remember seeing the word or not. If you remember seeing the word press ""old"" or type ""m"". If you do not remember seeing the word press ""new"" or type ""z"". Please press the space bar or click on continue to begin. ",,,198931,18,2022-01-29_11h19.07.551,lexical_decision_task_DD_L6,2021.2.3,Win32,61.13964294,,,,,,,,,,,,,,,,,,,,,,,,,,,,,,,,,,,,,,,,,,,,,,,,,,,3,0,3,0,1,1.2434,,,,,,,,,,,,,,
,0.032407491,-0.402777805,1,0,0,instr_done_button,,,,,,1,test,"In the next phase you will be presented with the words from the the first phase. Your job is to decide whether you remember seeing the word or not. If you remember seeing the word press ""old"" or type ""m"". If you do not remember seeing the word press ""new"" or type ""z"". Please press the space bar or click on continue to begin. ",,,198931,18,2022-01-29_11h19.07.551,lexical_decision_task_DD_L6,2021.2.3,Win32,61.13964294,,,,,,,,,,,,,,,,,,,,,,,,,,,,,,,,,,,,,,,,,,,,,,,,,,,4,0,4,0,1,,,,,,,,,,,,,,,
,,,,,,,,,,,,,,,,,198931,18,2022-01-29_11h19.07.551,lexical_decision_task_DD_L6,2021.2.3,Win32,61.13964294,,,,,,,,,,2.0782,1,,,,,,,,,,,,,,,,,,,,,,,-0.283333333,-0.316666667,1,0,0,,,,,,,FOLDER,LB,z,y,./images/FOLDERLB.png,,,,,,,,,0,-0.283333333,-0.316666667,1,0,0,2.0782,button_left_test,0,0,0,126,1
,,,,,,,,,,,,,,,,,198931,18,2022-01-29_11h19.07.551,lexical_decision_task_DD_L6,2021.2.3,Win32,61.13964294,,,,,,,,,,1.2647,1,,,,,,,,,,,,,,,,,,,,,,,0.325,-0.297222222,1,0,0,,,,,,,BAMBOO,HB,m,y,./images/BAMBOOHB.png,,,,,,,,,0,0.325,-0.297222222,1,0,0,1.2647,button_right_test,0,1,1,5,1
,,,,,,,,,,,,,,,,,198931,18,2022-01-29_11h19.07.551,lexical_decision_task_DD_L6,2021.2.3,Win32,61.13964294,,,,,,,,,,1.7306,0,,,,,,,,,,,,,,,,,,,,,,,-0.275,-0.284259288,1,0,0,,,,,,,CLOUD,HB,m,y,./images/CLOUDHB.png,,,,,,,,,0,-0.275,-0.284259288,1,0,0,1.7306,button_left_test,0,2,2,26,1
,,,,,,,,,,,,,,,,,198931,18,2022-01-29_11h19.07.551,lexical_decision_task_DD_L6,2021.2.3,Win32,61.13964294,,,,,,,,,,1.2138,1,,,,,,,,,,,,,,,,,,,,,,,-0.274074046,-0.319444444,1,0,0,,,,,,,CARPET,HB,z,y,./images/CARPETHB.png,,,,,,,,,0,-0.274074046,-0.319444444,1,0,0,1.2138,button_left_test,0,3,3,137,1
,,,,,,,,,,,,,,,,,198931,18,2022-01-29_11h19.07.551,lexical_decision_task_DD_L6,2021.2.3,Win32,61.13964294,,,,,,,,,,1.5643,0,,,,,,,,,,,,,,,,,,,,,,,-0.247222222,-0.373148176,1,0,0,,,,,,,POSTER,HB,m,y,./images/POSTERHB.png,,,,,,,,,0,-0.247222222,-0.373148176,1,0,0,1.5643,button_left_test,0,4,4,53,1
,,,,,,,,,,,,,,,,,198931,18,2022-01-29_11h19.07.551,lexical_decision_task_DD_L6,2021.2.3,Win32,61.13964294,,,,,,,,,,1.3644,0,,,,,,,,,,,,,,,,,,,,,,,0.282407464,-0.3,1,0,0,,,,,,,WALRUS,HB,z,y,./images/WALRUSHB.png,,,,,,,,,0,0.282407464,-0.3,1,0,0,1.3644,button_right_test,0,5,5,107,1
,,,,,,,,,,,,,,,,,198931,18,2022-01-29_11h19.07.551,lexical_decision_task_DD_L6,2021.2.3,Win32,61.13964294,,,,,,,,,,0.9959,1,,,,,,,,,,,,,,,,,,,,,,,0.307407464,-0.297222222,1,0,0,,,,,,,PARADE,HB,m,y,./images/PARADEHB.png,,,,,,,,,0,0.307407464,-0.297222222,1,0,0,0.9959,button_right_test,0,6,6,17,1
,,,,,,,,,,,,,,,,,198931,18,2022-01-29_11h19.07.551,lexical_decision_task_DD_L6,2021.2.3,Win32,61.13964294,,,,,,,,,,1.3128,0,,,,,,,,,,,,,,,,,,,,,,,-0.281481467,-0.346296353,1,0,0,,,,,,,PISTOL,HB,m,y,./images/PISTOLHB.png,,,,,,,,,0,-0.281481467,-0.346296353,1,0,0,1.3128,button_left_test,0,7,7,29,1
,,,,,,,,,,,,,,,,,198931,18,2022-01-29_11h19.07.551,lexical_decision_task_DD_L6,2021.2.3,Win32,61.13964294,,,,,,,,,,0.963,0,,,,,,,,,,,,,,,,,,,,,,,-0.287037023,-0.329629686,1,0,0,,,,,,,DRILL,LB,m,y,./images/DRILLLB.png,,,,,,,,,0,-0.287037023,-0.329629686,1,0,0,0.963,button_left_test,0,8,8,81,1
,,,,,,,,,,,,,,,,,198931,18,2022-01-29_11h19.07.551,lexical_decision_task_DD_L6,2021.2.3,Win32,61.13964294,,,,,,,,,,0.9955,1,,,,,,,,,,,,,,,,,,,,,,,0.360185242,-0.284259288,1,0,0,,,,,,,RAZOR,C,m,y,./images/RAZOR.png,,,,,,,,,0,0.360185242,-0.284259288,1,0,0,0.9955,button_right_test,0,9,9,34,1
,,,,,,,,,,,,,,,,,198931,18,2022-01-29_11h19.07.551,lexical_decision_task_DD_L6,2021.2.3,Win32,61.13964294,,,,,,,,,,2.4315,1,,,,,,,,,,,,,,,,,,,,,,,0.297222222,-0.314814843,1,0,0,,,,,,,FERRY,LB,m,y,./images/FERRYLB.png,,,,,,,,,0,0.297222222,-0.314814843,1,0,0,2.4315,button_right_test,0,10,10,57,1
,,,,,,,,,,,,,,,,,198931,18,2022-01-29_11h19.07.551,lexical_decision_task_DD_L6,2021.2.3,Win32,61.13964294,,,,,,,,,,1.2656,1,,,,,,,,,,,,,,,,,,,,,,,0.341666667,-0.293518575,1,0,0,,,,,,,WHISKY,HB,m,y,./images/WHISKYHB.png,,,,,,,,,0,0.341666667,-0.293518575,1,0,0,1.2656,button_right_test,0,11,11,83,1
,,,,,,,,,,,,,,,,,198931,18,2022-01-29_11h19.07.551,lexical_decision_task_DD_L6,2021.2.3,Win32,61.13964294,,,,,,,,,,1.1143,0,,,,,,,,,,,,,,,,,,,,,,,-0.231481467,-0.278703732,1,0,0,,,,,,,FLESH,LB,m,y,./images/FLESHLB.png,,,,,,,,,0,-0.231481467,-0.278703732,1,0,0,1.1143,button_left_test,0,12,12,24,1
,,,,,,,,,,,,,,,,,198931,18,2022-01-29_11h19.07.551,lexical_decision_task_DD_L6,2021.2.3,Win32,61.13964294,,,,,,,,,,1.1484,1,,,,,,,,,,,,,,,,,,,,,,,-0.25370369,-0.297222222,1,0,0,,,,,,,BIRTH,C,z,y,./images/BIRTH.png,,,,,,,,,0,-0.25370369,-0.297222222,1,0,0,1.1484,button_left_test,0,13,13,121,1
,,,,,,,,,,,,,,,,,198931,18,2022-01-29_11h19.07.551,lexical_decision_task_DD_L6,2021.2.3,Win32,61.13964294,,,,,,,,,,1.1126,1,,,,,,,,,,,,,,,,,,,,,,,0.387037065,-0.295370399,1,0,0,,,,,,,HAMMER,LB,m,y,./images/HAMMERLB.png,,,,,,,,,0,0.387037065,-0.295370399,1,0,0,1.1126,button_right_test,0,14,14,75,1
,,,,,,,,,,,,,,,,,198931,18,2022-01-29_11h19.07.551,lexical_decision_task_DD_L6,2021.2.3,Win32,61.13964294,,,,,,,,,,1.1176,1,,,,,,,,,,,,,,,,,,,,,,,0.312037065,-0.303703732,1,0,0,,,,,,,HOCKEY,HB,m,y,./images/HOCKEYHB.png,,,,,,,,,0,0.312037065,-0.303703732,1,0,0,1.1176,button_right_test,0,15,15,32,1
,,,,,,,,,,,,,,,,,198931,18,2022-01-29_11h19.07.551,lexical_decision_task_DD_L6,2021.2.3,Win32,61.13964294,,,,,,,,,,1.3812,1,,,,,,,,,,,,,,,,,,,,,,,-0.22870369,-0.359259288,1,0,0,,,,,,,CRADLE,HB,z,y,./images/CRADLEHB.png,,,,,,,,,0,-0.22870369,-0.359259288,1,0,0,1.3812,button_left_test,0,16,16,104,1
,,,,,,,,,,,,,,,,,198931,18,2022-01-29_11h19.07.551,lexical_decision_task_DD_L6,2021.2.3,Win32,61.13964294,,,,,,,,,,1.3304,0,,,,,,,,,,,,,,,,,,,,,,,-0.291666667,-0.342592621,1,0,0,,,,,,,ENGINE,HB,m,y,./images/ENGINEHB.png,,,,,,,,,0,-0.291666667,-0.342592621,1,0,0,1.3304,button_left_test,0,17,17,38,1
,,,,,,,,,,,,,,,,,198931,18,2022-01-29_11h19.07.551,lexical_decision_task_DD_L6,2021.2.3,Win32,61.13964294,,,,,,,,,,1.4509,0,,,,,,,,,,,,,,,,,,,,,,,-0.255555556,-0.348148176,1,0,0,,,,,,,DANCER,LB,m,y,./images/DANCERLB.png,,,,,,,,,0,-0.255555556,-0.348148176,1,0,0,1.4509,button_left_test,0,18,18,21,1
,,,,,,,,,,,,,,,,,198931,18,2022-01-29_11h19.07.551,lexical_decision_task_DD_L6,2021.2.3,Win32,61.13964294,,,,,,,,,,1.1144,0,,,,,,,,,,,,,,,,,,,,,,,0.28148151,-0.316666667,1,0,0,,,,,,,PEACH,HB,z,y,./images/PEACHHB.png,,,,,,,,,0,0.28148151,-0.316666667,1,0,0,1.1144,button_right_test,0,19,19,119,1
,,,,,,,,,,,,,,,,,198931,18,2022-01-29_11h19.07.551,lexical_decision_task_DD_L6,2021.2.3,Win32,61.13964294,,,,,,,,,,1.0124,1,,,,,,,,,,,,,,,,,,,,,,,0.314814843,-0.300925954,1,0,0,,,,,,,CANOE,C,m,y,./images/CANOE.png,,,,,,,,,0,0.314814843,-0.300925954,1,0,0,1.0124,button_right_test,0,20,20,58,1
,,,,,,,,,,,,,,,,,198931,18,2022-01-29_11h19.07.551,lexical_decision_task_DD_L6,2021.2.3,Win32,61.13964294,,,,,,,,,,0.9309,1,,,,,,,,,,,,,,,,,,,,,,,0.320370399,-0.314814843,1,0,0,,,,,,,LLAMA,HB,m,y,./images/LLAMAHB.png,,,,,,,,,0,0.320370399,-0.314814843,1,0,0,0.9309,button_right_test,0,21,21,35,1
,,,,,,,,,,,,,,,,,198931,18,2022-01-29_11h19.07.551,lexical_decision_task_DD_L6,2021.2.3,Win32,61.13964294,,,,,,,,,,0.8458,1,,,,,,,,,,,,,,,,,,,,,,,0.343518575,-0.340740797,1,0,0,,,,,,,POKER,C,m,y,./images/POKER.png,,,,,,,,,0,0.343518575,-0.340740797,1,0,0,0.8458,button_right_test,0,22,22,67,1
,,,,,,,,,,,,,,,,,198931,18,2022-01-29_11h19.07.551,lexical_decision_task_DD_L6,2021.2.3,Win32,61.13964294,,,,,,,,,,1.7959,1,,,,,,,,,,,,,,,,,,,,,,,-0.306481467,-0.305555556,1,0,0,,,,,,,PICKLE,HB,z,y,./images/PICKLEHB.png,,,,,,,,,0,-0.306481467,-0.305555556,1,0,0,1.7959,button_left_test,0,23,23,98,1
,,,,,,,,,,,,,,,,,198931,18,2022-01-29_11h19.07.551,lexical_decision_task_DD_L6,2021.2.3,Win32,61.13964294,,,,,,,,,,2.646,0,,,,,,,,,,,,,,,,,,,,,,,-0.272222222,-0.262037065,1,0,0,,,,,,,CLOWN,C,m,y,./images/CLOWN.png,,,,,,,,,0,-0.272222222,-0.262037065,1,0,0,2.646,button_left_test,0,24,24,22,1
,,,,,,,,,,,,,,,,,198931,18,2022-01-29_11h19.07.551,lexical_decision_task_DD_L6,2021.2.3,Win32,61.13964294,,,,,,,,,,0.9643,1,,,,,,,,,,,,,,,,,,,,,,,0.375925954,-0.302777778,1,0,0,,,,,,,TIGER,C,m,y,./images/TIGER.png,,,,,,,,,0,0.375925954,-0.302777778,1,0,0,0.9643,button_right_test,0,25,25,37,1
,,,,,,,,,,,,,,,,,198931,18,2022-01-29_11h19.07.551,lexical_decision_task_DD_L6,2021.2.3,Win32,61.13964294,,,,,,,,,,1.1308,1,,,,,,,,,,,,,,,,,,,,,,,-0.259259245,-0.275,1,0,0,,,,,,,THROAT,LB,z,y,./images/THROATLB.png,,,,,,,,,0,-0.259259245,-0.275,1,0,0,1.1308,button_left_test,0,26,26,120,1
,,,,,,,,,,,,,,,,,198931,18,2022-01-29_11h19.07.551,lexical_decision_task_DD_L6,2021.2.3,Win32,61.13964294,,,,,,,,,,1.0129,1,,,,,,,,,,,,,,,,,,,,,,,0.325925954,-0.335185242,1,0,0,,,,,,,BANANA,C,m,y,./images/BANANA.png,,,,,,,,,0,0.325925954,-0.335185242,1,0,0,1.0129,button_right_test,0,27,27,70,1
,,,,,,,,,,,,,,,,,198931,18,2022-01-29_11h19.07.551,lexical_decision_task_DD_L6,2021.2.3,Win32,61.13964294,,,,,,,,,,1.0295,1,,,,,,,,,,,,,,,,,,,,,,,0.287037065,-0.337963019,1,0,0,,,,,,,BASKET,HB,m,y,./images/BASKETHB.png,,,,,,,,,0,0.287037065,-0.337963019,1,0,0,1.0295,button_right_test,0,28,28,44,1
,,,,,,,,,,,,,,,,,198931,18,2022-01-29_11h19.07.551,lexical_decision_task_DD_L6,2021.2.3,Win32,61.13964294,,,,,,,,,,0.9643,1,,,,,,,,,,,,,,,,,,,,,,,-0.247222222,-0.28148151,1,0,0,,,,,,,SHELF,LB,z,y,./images/SHELFLB.png,,,,,,,,,0,-0.247222222,-0.28148151,1,0,0,0.9643,button_left_test,0,29,29,123,1
,,,,,,,,,,,,,,,,,198931,18,2022-01-29_11h19.07.551,lexical_decision_task_DD_L6,2021.2.3,Win32,61.13964294,,,,,,,,,,1.563,1,,,,,,,,,,,,,,,,,,,,,,,-0.256481467,-0.302777778,1,0,0,,,,,,,CANYON,C,z,y,./images/CANYON.png,,,,,,,,,0,-0.256481467,-0.302777778,1,0,0,1.563,button_left_test,0,30,30,118,1
,,,,,,,,,,,,,,,,,198931,18,2022-01-29_11h19.07.551,lexical_decision_task_DD_L6,2021.2.3,Win32,61.13964294,,,,,,,,,,1.0175,1,,,,,,,,,,,,,,,,,,,,,,,0.283333333,-0.346296353,1,0,0,,,,,,,MUMMY,C,m,y,./images/MUMMY.png,,,,,,,,,0,0.283333333,-0.346296353,1,0,0,1.0175,button_right_test,0,31,31,46,1
,,,,,,,,,,,,,,,,,198931,18,2022-01-29_11h19.07.551,lexical_decision_task_DD_L6,2021.2.3,Win32,61.13964294,,,,,,,,,,1.1479,1,,,,,,,,,,,,,,,,,,,,,,,-0.275,-0.332407464,1,0,0,,,,,,,MALLET,HB,z,y,./images/MALLETHB.png,,,,,,,,,0,-0.275,-0.332407464,1,0,0,1.1479,button_left_test,0,32,32,134,1
,,,,,,,,,,,,,,,,,198931,18,2022-01-29_11h19.07.551,lexical_decision_task_DD_L6,2021.2.3,Win32,61.13964294,,,,,,,,,,1.5789,1,,,,,,,,,,,,,,,,,,,,,,,-0.250925912,-0.310185242,1,0,0,,,,,,,JAGUAR,LB,z,y,./images/JAGUARLB.png,,,,,,,,,0,-0.250925912,-0.310185242,1,0,0,1.5789,button_left_test,0,33,33,102,1
,,,,,,,,,,,,,,,,,198931,18,2022-01-29_11h19.07.551,lexical_decision_task_DD_L6,2021.2.3,Win32,61.13964294,,,,,,,,,,1.1977,1,,,,,,,,,,,,,,,,,,,,,,,-0.269444444,-0.323148176,1,0,0,,,,,,,INFANT,C,z,y,./images/INFANT.png,,,,,,,,,0,-0.269444444,-0.323148176,1,0,0,1.1977,button_left_test,0,34,34,160,1
,,,,,,,,,,,,,,,,,198931,18,2022-01-29_11h19.07.551,lexical_decision_task_DD_L6,2021.2.3,Win32,61.13964294,,,,,,,,,,1.0645,1,,,,,,,,,,,,,,,,,,,,,,,-0.287962935,-0.330555556,1,0,0,,,,,,,BELLY,C,z,y,./images/BELLY.png,,,,,,,,,0,-0.287962935,-0.330555556,1,0,0,1.0645,button_left_test,0,35,35,94,1
,,,,,,,,,,,,,,,,,198931,18,2022-01-29_11h19.07.551,lexical_decision_task_DD_L6,2021.2.3,Win32,61.13964294,,,,,,,,,,0.9813,1,,,,,,,,,,,,,,,,,,,,,,,0.269444444,-0.361111111,1,0,0,,,,,,,SLOPE,LB,m,y,./images/SLOPELB.png,,,,,,,,,0,0.269444444,-0.361111111,1,0,0,0.9813,button_right_test,0,36,36,30,1
,,,,,,,,,,,,,,,,,198931,18,2022-01-29_11h19.07.551,lexical_decision_task_DD_L6,2021.2.3,Win32,61.13964294,,,,,,,,,,1.1295,1,,,,,,,,,,,,,,,,,,,,,,,-0.284259245,-0.348148176,1,0,0,,,,,,,PEARL,C,z,y,./images/PEARL.png,,,,,,,,,0,-0.284259245,-0.348148176,1,0,0,1.1295,button_left_test,0,37,37,130,1
,,,,,,,,,,,,,,,,,198931,18,2022-01-29_11h19.07.551,lexical_decision_task_DD_L6,2021.2.3,Win32,61.13964294,,,,,,,,,,1.2975,1,,,,,,,,,,,,,,,,,,,,,,,0.242592621,-0.362037065,1,0,0,,,,,,,CHALK,C,m,y,./images/CHALK.png,,,,,,,,,0,0.242592621,-0.362037065,1,0,0,1.2975,button_right_test,0,38,38,25,1
,,,,,,,,,,,,,,,,,198931,18,2022-01-29_11h19.07.551,lexical_decision_task_DD_L6,2021.2.3,Win32,61.13964294,,,,,,,,,,1.3628,0,,,,,,,,,,,,,,,,,,,,,,,-0.262962935,-0.327777778,1,0,0,,,,,,,MAMMAL,HB,m,y,./images/MAMMALHB.png,,,,,,,,,0,-0.262962935,-0.327777778,1,0,0,1.3628,button_left_test,0,39,39,62,1
,,,,,,,,,,,,,,,,,198931,18,2022-01-29_11h19.07.551,lexical_decision_task_DD_L6,2021.2.3,Win32,61.13964294,,,,,,,,,,1.1123,1,,,,,,,,,,,,,,,,,,,,,,,-0.254629601,-0.366666667,1,0,0,,,,,,,SUNSET,C,z,y,./images/SUNSET.png,,,,,,,,,0,-0.254629601,-0.366666667,1,0,0,1.1123,button_left_test,0,40,40,166,1
,,,,,,,,,,,,,,,,,198931,18,2022-01-29_11h19.07.551,lexical_decision_task_DD_L6,2021.2.3,Win32,61.13964294,,,,,,,,,,1.1292,1,,,,,,,,,,,,,,,,,,,,,,,0.069444444,-0.399074131,1,0,0,,,,,,,CANDLE,C,z,y,./images/CANDLE.png,break_done_button,,,,,,,,0,-0.247222222,-0.349074131,1,0,0,1.1292,button_left_test,0,41,41,145,1
,,,,,,,,,,,,,,,,,198931,18,2022-01-29_11h19.07.551,lexical_decision_task_DD_L6,2021.2.3,Win32,61.13964294,,,,,,,,,,1.0982,1,,,,,,,,,,,,,,,,,,,,,,,-0.30370369,-0.327777778,1,0,0,,,,,,,PLANK,C,z,y,./images/PLANK.png,,,,,,,,,0,-0.30370369,-0.327777778,1,0,0,1.0982,button_left_test,0,42,42,85,1
,,,,,,,,,,,,,,,,,198931,18,2022-01-29_11h19.07.551,lexical_decision_task_DD_L6,2021.2.3,Win32,61.13964294,,,,,,,,,,1.0627,1,,,,,,,,,,,,,,,,,,,,,,,-0.275,-0.341666667,1,0,0,,,,,,,JUNGLE,HB,z,y,./images/JUNGLEHB.png,,,,,,,,,0,-0.275,-0.341666667,1,0,0,1.0627,button_left_test,0,43,43,167,1
,,,,,,,,,,,,,,,,,198931,18,2022-01-29_11h19.07.551,lexical_decision_task_DD_L6,2021.2.3,Win32,61.13964294,,,,,,,,,,1.4496,1,,,,,,,,,,,,,,,,,,,,,,,0.302777778,-0.374074131,1,0,0,,,,,,,WAGON,C,m,y,./images/WAGON.png,,,,,,,,,0,0.302777778,-0.374074131,1,0,0,1.4496,button_right_test,0,44,44,7,1
,,,,,,,,,,,,,,,,,198931,18,2022-01-29_11h19.07.551,lexical_decision_task_DD_L6,2021.2.3,Win32,61.13964294,,,,,,,,,,1.3629,0,,,,,,,,,,,,,,,,,,,,,,,-0.25,-0.305555556,1,0,0,,,,,,,ALLEY,C,m,y,./images/ALLEY.png,,,,,,,,,0,-0.25,-0.305555556,1,0,0,1.3629,button_left_test,0,45,45,55,1
,,,,,,,,,,,,,,,,,198931,18,2022-01-29_11h19.07.551,lexical_decision_task_DD_L6,2021.2.3,Win32,61.13964294,,,,,,,,,,1.2789,0,,,,,,,,,,,,,,,,,,,,,,,-0.246296268,-0.329629686,1,0,0,,,,,,,CANDY,LB,m,y,./images/CANDYLB.png,,,,,,,,,0,-0.246296268,-0.329629686,1,0,0,1.2789,button_left_test,0,46,46,39,1
,,,,,,,,,,,,,,,,,198931,18,2022-01-29_11h19.07.551,lexical_decision_task_DD_L6,2021.2.3,Win32,61.13964294,,,,,,,,,,0.9123,1,,,,,,,,,,,,,,,,,,,,,,,-0.24351849,-0.330555556,1,0,0,,,,,,,SWEAT,LB,z,y,./images/SWEATLB.png,,,,,,,,,0,-0.24351849,-0.330555556,1,0,0,0.9123,button_left_test,0,47,47,150,1
,,,,,,,,,,,,,,,,,198931,18,2022-01-29_11h19.07.551,lexical_decision_task_DD_L6,2021.2.3,Win32,61.13964294,,,,,,,,,,0.8796,1,,,,,,,,,,,,,,,,,,,,,,,-0.22870369,-0.324074131,1,0,0,,,,,,,RHINO,LB,z,y,./images/RHINOLB.png,,,,,,,,,0,-0.22870369,-0.324074131,1,0,0,0.8796,button_left_test,0,48,48,93,1
,,,,,,,,,,,,,,,,,198931,18,2022-01-29_11h19.07.551,lexical_decision_task_DD_L6,2021.2.3,Win32,61.13964294,,,,,,,,,,0.9633,1,,,,,,,,,,,,,,,,,,,,,,,0.357407464,-0.371296353,1,0,0,,,,,,,STAIN,LB,m,y,./images/STAINLB.png,,,,,,,,,0,0.357407464,-0.371296353,1,0,0,0.9633,button_right_test,0,49,49,6,1
,,,,,,,,,,,,,,,,,198931,18,2022-01-29_11h19.07.551,lexical_decision_task_DD_L6,2021.2.3,Win32,61.13964294,,,,,,,,,,0.9794,1,,,,,,,,,,,,,,,,,,,,,,,-0.245370356,-0.30648151,1,0,0,,,,,,,SHORE,LB,z,y,./images/SHORELB.png,,,,,,,,,0,-0.245370356,-0.30648151,1,0,0,0.9794,button_left_test,0,50,50,96,1
,,,,,,,,,,,,,,,,,198931,18,2022-01-29_11h19.07.551,lexical_decision_task_DD_L6,2021.2.3,Win32,61.13964294,,,,,,,,,,1.4146,0,,,,,,,,,,,,,,,,,,,,,,,-0.271296268,-0.338888889,1,0,0,,,,,,,COLLAR,LB,m,y,./images/COLLARLB.png,,,,,,,,,0,-0.271296268,-0.338888889,1,0,0,1.4146,button_left_test,0,51,51,15,1
,,,,,,,,,,,,,,,,,198931,18,2022-01-29_11h19.07.551,lexical_decision_task_DD_L6,2021.2.3,Win32,61.13964294,,,,,,,,,,1.1834,0,,,,,,,,,,,,,,,,,,,,,,,-0.22870369,-0.35,1,0,0,,,,,,,GRANNY,HB,m,y,./images/GRANNYHB.png,,,,,,,,,0,-0.22870369,-0.35,1,0,0,1.1834,button_left_test,0,52,52,20,1
,,,,,,,,,,,,,,,,,198931,18,2022-01-29_11h19.07.551,lexical_decision_task_DD_L6,2021.2.3,Win32,61.13964294,,,,,,,,,,1.1297,0,,,,,,,,,,,,,,,,,,,,,,,0.25648151,-0.394444444,1,0,0,,,,,,,MUSCLE,C,z,y,./images/MUSCLE.png,,,,,,,,,0,0.25648151,-0.394444444,1,0,0,1.1297,button_right_test,0,53,53,88,1
,,,,,,,,,,,,,,,,,198931,18,2022-01-29_11h19.07.551,lexical_decision_task_DD_L6,2021.2.3,Win32,61.13964294,,,,,,,,,,0.7648,1,,,,,,,,,,,,,,,,,,,,,,,0.262037065,-0.368518575,1,0,0,,,,,,,CLOTH,HB,m,y,./images/CLOTHHB.png,,,,,,,,,0,0.262037065,-0.368518575,1,0,0,0.7648,button_right_test,0,54,54,23,1
,,,,,,,,,,,,,,,,,198931,18,2022-01-29_11h19.07.551,lexical_decision_task_DD_L6,2021.2.3,Win32,61.13964294,,,,,,,,,,0.7477,1,,,,,,,,,,,,,,,,,,,,,,,0.248148176,-0.366666667,1,0,0,,,,,,,BUNNY,C,m,y,./images/BUNNY.png,,,,,,,,,0,0.248148176,-0.366666667,1,0,0,0.7477,button_right_test,0,55,55,13,1
,,,,,,,,,,,,,,,,,198931,18,2022-01-29_11h19.07.551,lexical_decision_task_DD_L6,2021.2.3,Win32,61.13964294,,,,,,,,,,0.7956,0,,,,,,,,,,,,,,,,,,,,,,,0.237037065,-0.35,1,0,0,,,,,,,ATTIC,LB,z,y,./images/ATTICLB.png,,,,,,,,,0,0.237037065,-0.35,1,0,0,0.7956,button_right_test,0,56,56,111,1
,,,,,,,,,,,,,,,,,198931,18,2022-01-29_11h19.07.551,lexical_decision_task_DD_L6,2021.2.3,Win32,61.13964294,,,,,,,,,,0.8814,1,,,,,,,,,,,,,,,,,,,,,,,0.275925954,-0.364814843,1,0,0,,,,,,,FLASK,LB,m,y,./images/FLASKLB.png,,,,,,,,,0,0.275925954,-0.364814843,1,0,0,0.8814,button_right_test,0,57,57,72,1
,,,,,,,,,,,,,,,,,198931,18,2022-01-29_11h19.07.551,lexical_decision_task_DD_L6,2021.2.3,Win32,61.13964294,,,,,,,,,,1.0461,1,,,,,,,,,,,,,,,,,,,,,,,0.265740797,-0.35648151,1,0,0,,,,,,,PLANET,HB,m,y,./images/PLANETHB.png,,,,,,,,,0,0.265740797,-0.35648151,1,0,0,1.0461,button_right_test,0,58,58,80,1
,,,,,,,,,,,,,,,,,198931,18,2022-01-29_11h19.07.551,lexical_decision_task_DD_L6,2021.2.3,Win32,61.13964294,,,,,,,,,,0.9481,1,,,,,,,,,,,,,,,,,,,,,,,0.255555556,-0.35,1,0,0,,,,,,,BUBBLE,HB,m,y,./images/BUBBLEHB.png,,,,,,,,,0,0.255555556,-0.35,1,0,0,0.9481,button_right_test,0,59,59,71,1
,,,,,,,,,,,,,,,,,198931,18,2022-01-29_11h19.07.551,lexical_decision_task_DD_L6,2021.2.3,Win32,61.13964294,,,,,,,,,,0.9646,1,,,,,,,,,,,,,,,,,,,,,,,0.302777778,-0.358333333,1,0,0,,,,,,,DONKEY,C,m,y,./images/DONKEY.png,,,,,,,,,0,0.302777778,-0.358333333,1,0,0,0.9646,button_right_test,0,60,60,19,1
,,,,,,,,,,,,,,,,,198931,18,2022-01-29_11h19.07.551,lexical_decision_task_DD_L6,2021.2.3,Win32,61.13964294,,,,,,,,,,0.8126,1,,,,,,,,,,,,,,,,,,,,,,,0.272222222,-0.332407464,1,0,0,,,,,,,STREAM,HB,m,y,./images/STREAMHB.png,,,,,,,,,0,0.272222222,-0.332407464,1,0,0,0.8126,button_right_test,0,61,61,41,1
,,,,,,,,,,,,,,,,,198931,18,2022-01-29_11h19.07.551,lexical_decision_task_DD_L6,2021.2.3,Win32,61.13964294,,,,,,,,,,1.1311,1,,,,,,,,,,,,,,,,,,,,,,,-0.281481467,-0.322222222,1,0,0,,,,,,,TORCH,HB,z,y,./images/TORCHHB.png,,,,,,,,,0,-0.281481467,-0.322222222,1,0,0,1.1311,button_left_test,0,62,62,152,1
,,,,,,,,,,,,,,,,,198931,18,2022-01-29_11h19.07.551,lexical_decision_task_DD_L6,2021.2.3,Win32,61.13964294,,,,,,,,,,1.0488,0,,,,,,,,,,,,,,,,,,,,,,,-0.233333333,-0.344444444,1,0,0,,,,,,,SPINE,HB,m,y,./images/SPINEHB.png,,,,,,,,,0,-0.233333333,-0.344444444,1,0,0,1.0488,button_left_test,0,63,63,65,1
,,,,,,,,,,,,,,,,,198931,18,2022-01-29_11h19.07.551,lexical_decision_task_DD_L6,2021.2.3,Win32,61.13964294,,,,,,,,,,0.8782,1,,,,,,,,,,,,,,,,,,,,,,,0.282407464,-0.368518575,1,0,0,,,,,,,FENCE,HB,m,y,./images/FENCEHB.png,,,,,,,,,0,0.282407464,-0.368518575,1,0,0,0.8782,button_right_test,0,64,64,14,1
,,,,,,,,,,,,,,,,,198931,18,2022-01-29_11h19.07.551,lexical_decision_task_DD_L6,2021.2.3,Win32,61.13964294,,,,,,,,,,0.996,0,,,,,,,,,,,,,,,,,,,,,,,0.266666667,-0.336111111,1,0,0,,,,,,,SCREW,LB,z,y,./images/SCREWLB.png,,,,,,,,,0,0.266666667,-0.336111111,1,0,0,0.996,button_right_test,0,65,65,108,1
,,,,,,,,,,,,,,,,,198931,18,2022-01-29_11h19.07.551,lexical_decision_task_DD_L6,2021.2.3,Win32,61.13964294,,,,,,,,,,0.8797,1,,,,,,,,,,,,,,,,,,,,,,,-0.262037023,-0.335185242,1,0,0,,,,,,,GREASE,LB,z,y,./images/GREASELB.png,,,,,,,,,0,-0.262037023,-0.335185242,1,0,0,0.8797,button_left_test,0,66,66,99,1
,,,,,,,,,,,,,,,,,198931,18,2022-01-29_11h19.07.551,lexical_decision_task_DD_L6,2021.2.3,Win32,61.13964294,,,,,,,,,,0.8312,1,,,,,,,,,,,,,,,,,,,,,,,-0.254629601,-0.330555556,1,0,0,,,,,,,SNACK,C,z,y,./images/SNACK.png,,,,,,,,,0,-0.254629601,-0.330555556,1,0,0,0.8312,button_left_test,0,67,67,157,1
,,,,,,,,,,,,,,,,,198931,18,2022-01-29_11h19.07.551,lexical_decision_task_DD_L6,2021.2.3,Win32,61.13964294,,,,,,,,,,0.93,0,,,,,,,,,,,,,,,,,,,,,,,-0.250925912,-0.351851908,1,0,0,,,,,,,JUMPER,HB,m,y,./images/JUMPERHB.png,,,,,,,,,0,-0.250925912,-0.351851908,1,0,0,0.93,button_left_test,0,68,68,74,1
,,,,,,,,,,,,,,,,,198931,18,2022-01-29_11h19.07.551,lexical_decision_task_DD_L6,2021.2.3,Win32,61.13964294,,,,,,,,,,1.0814,1,,,,,,,,,,,,,,,,,,,,,,,-0.231481467,-0.341666667,1,0,0,,,,,,,BURIAL,HB,z,y,./images/BURIALHB.png,,,,,,,,,0,-0.231481467,-0.341666667,1,0,0,1.0814,button_left_test,0,69,69,143,1
,,,,,,,,,,,,,,,,,198931,18,2022-01-29_11h19.07.551,lexical_decision_task_DD_L6,2021.2.3,Win32,61.13964294,,,,,,,,,,1.0623,1,,,,,,,,,,,,,,,,,,,,,,,-0.262962935,-0.340740797,1,0,0,,,,,,,PURSE,HB,z,y,./images/PURSEHB.png,,,,,,,,,0,-0.262962935,-0.340740797,1,0,0,1.0623,button_left_test,0,70,70,146,1
,,,,,,,,,,,,,,,,,198931,18,2022-01-29_11h19.07.551,lexical_decision_task_DD_L6,2021.2.3,Win32,61.13964294,,,,,,,,,,0.8144,0,,,,,,,,,,,,,,,,,,,,,,,0.307407464,-0.370370399,1,0,0,,,,,,,MOOSE,LB,z,y,./images/MOOSELB.png,,,,,,,,,0,0.307407464,-0.370370399,1,0,0,0.8144,button_right_test,0,71,71,141,1
,,,,,,,,,,,,,,,,,198931,18,2022-01-29_11h19.07.551,lexical_decision_task_DD_L6,2021.2.3,Win32,61.13964294,,,,,,,,,,0.8288,0,,,,,,,,,,,,,,,,,,,,,,,0.258333333,-0.362963019,1,0,0,,,,,,,LADDER,HB,z,y,./images/LADDERHB.png,,,,,,,,,0,0.258333333,-0.362963019,1,0,0,0.8288,button_right_test,0,72,72,122,1
,,,,,,,,,,,,,,,,,198931,18,2022-01-29_11h19.07.551,lexical_decision_task_DD_L6,2021.2.3,Win32,61.13964294,,,,,,,,,,0.9301,1,,,,,,,,,,,,,,,,,,,,,,,-0.270370356,-0.338888889,1,0,0,,,,,,,CRUMB,HB,z,y,./images/CRUMBHB.png,,,,,,,,,0,-0.270370356,-0.338888889,1,0,0,0.9301,button_left_test,0,73,73,113,1
,,,,,,,,,,,,,,,,,198931,18,2022-01-29_11h19.07.551,lexical_decision_task_DD_L6,2021.2.3,Win32,61.13964294,,,,,,,,,,0.8456,1,,,,,,,,,,,,,,,,,,,,,,,-0.233333333,-0.304629686,1,0,0,,,,,,,CEMENT,HB,z,y,./images/CEMENTHB.png,,,,,,,,,0,-0.233333333,-0.304629686,1,0,0,0.8456,button_left_test,0,74,74,158,1
,,,,,,,,,,,,,,,,,198931,18,2022-01-29_11h19.07.551,lexical_decision_task_DD_L6,2021.2.3,Win32,61.13964294,,,,,,,,,,1.6319,0,,,,,,,,,,,,,,,,,,,,,,,-0.250925912,-0.332407464,1,0,0,,,,,,,STEAK,C,m,y,./images/STEAK.png,,,,,,,,,0,-0.250925912,-0.332407464,1,0,0,1.6319,button_left_test,0,75,75,31,1
,,,,,,,,,,,,,,,,,198931,18,2022-01-29_11h19.07.551,lexical_decision_task_DD_L6,2021.2.3,Win32,61.13964294,,,,,,,,,,0.9312,1,,,,,,,,,,,,,,,,,,,,,,,0.321296353,-0.336111111,1,0,0,,,,,,,BOXER,C,m,y,./images/BOXER.png,,,,,,,,,0,0.321296353,-0.336111111,1,0,0,0.9312,button_right_test,0,76,76,4,1
,,,,,,,,,,,,,,,,,198931,18,2022-01-29_11h19.07.551,lexical_decision_task_DD_L6,2021.2.3,Win32,61.13964294,,,,,,,,,,0.9655,1,,,,,,,,,,,,,,,,,,,,,,,0.368518575,-0.324074131,1,0,0,,,,,,,BISHOP,C,m,y,./images/BISHOP.png,,,,,,,,,0,0.368518575,-0.324074131,1,0,0,0.9655,button_right_test,0,77,77,49,1
,,,,,,,,,,,,,,,,,198931,18,2022-01-29_11h19.07.551,lexical_decision_task_DD_L6,2021.2.3,Win32,61.13964294,,,,,,,,,,1.0961,1,,,,,,,,,,,,,,,,,,,,,,,0.280555556,-0.312963019,1,0,0,,,,,,,BROOM,LB,m,y,./images/BROOMLB.png,,,,,,,,,0,0.280555556,-0.312963019,1,0,0,1.0961,button_right_test,0,78,78,78,1
,,,,,,,,,,,,,,,,,198931,18,2022-01-29_11h19.07.551,lexical_decision_task_DD_L6,2021.2.3,Win32,61.13964294,,,,,,,,,,0.9126,1,,,,,,,,,,,,,,,,,,,,,,,0.310185242,-0.322222222,1,0,0,,,,,,,DIVER,LB,m,y,./images/DIVERLB.png,,,,,,,,,0,0.310185242,-0.322222222,1,0,0,0.9126,button_right_test,0,79,79,9,1
,,,,,,,,,,,,,,,,,198931,18,2022-01-29_11h19.07.551,lexical_decision_task_DD_L6,2021.2.3,Win32,61.13964294,,,,,,,,,,0.9121,1,,,,,,,,,,,,,,,,,,,,,,,0.326851908,-0.302777778,1,0,0,,,,,,,ARTIST,C,m,y,./images/ARTIST.png,,,,,,,,,0,0.326851908,-0.302777778,1,0,0,0.9121,button_right_test,0,80,80,61,1
,,,,,,,,,,,,,,,,,198931,18,2022-01-29_11h19.07.551,lexical_decision_task_DD_L6,2021.2.3,Win32,61.13964294,,,,,,,,,,0.7633,1,,,,,,,,,,,,,,,,,,,,,,,-0.25370369,-0.272222222,1,0,0,,,,,,,PIMPLE,HB,z,y,./images/PIMPLEHB.png,,,,,,,,,0,-0.25370369,-0.272222222,1,0,0,0.7633,button_left_test,0,81,81,155,1
,,,,,,,,,,,,,,,,,198931,18,2022-01-29_11h19.07.551,lexical_decision_task_DD_L6,2021.2.3,Win32,61.13964294,,,,,,,,,,2.2672,0,,,,,,,,,,,,,,,,,,,,,,,0.259259288,-0.304629686,1,0,0,,,,,,,BARREL,HB,z,y,./images/BARRELHB.png,,,,,,,,,0,0.259259288,-0.304629686,1,0,0,2.2672,button_right_test,0,82,82,116,1
,,,,,,,,,,,,,,,,,198931,18,2022-01-29_11h19.07.551,lexical_decision_task_DD_L6,2021.2.3,Win32,61.13964294,,,,,,,,,,1.0128,0,,,,,,,,,,,,,,,,,,,,,,,0.170370399,-0.387037065,1,0,0,,,,,,,CHERRY,LB,m,y,./images/CHERRYLB.png,break_done_button,,,,,,,,0,-0.211111111,-0.261111111,1,0,0,1.0128,button_left_test,0,83,83,54,1
,,,,,,,,,,,,,,,,,198931,18,2022-01-29_11h19.07.551,lexical_decision_task_DD_L6,2021.2.3,Win32,61.13964294,,,,,,,,,,1.098,1,,,,,,,,,,,,,,,,,,,,,,,-0.315740712,-0.266666667,1,0,0,,,,,,,FARMER,HB,z,y,./images/FARMERHB.png,,,,,,,,,0,-0.315740712,-0.266666667,1,0,0,1.098,button_left_test,0,84,84,149,1
,,,,,,,,,,,,,,,,,198931,18,2022-01-29_11h19.07.551,lexical_decision_task_DD_L6,2021.2.3,Win32,61.13964294,,,,,,,,,,0.9957,1,,,,,,,,,,,,,,,,,,,,,,,0.328703732,-0.319444444,1,0,0,,,,,,,GARDEN,C,m,y,./images/GARDEN.png,,,,,,,,,0,0.328703732,-0.319444444,1,0,0,0.9957,button_right_test,0,85,85,10,1
,,,,,,,,,,,,,,,,,198931,18,2022-01-29_11h19.07.551,lexical_decision_task_DD_L6,2021.2.3,Win32,61.13964294,,,,,,,,,,1.2645,1,,,,,,,,,,,,,,,,,,,,,,,0.325925954,-0.319444444,1,0,0,,,,,,,CRATER,LB,m,y,./images/CRATERLB.png,,,,,,,,,0,0.325925954,-0.319444444,1,0,0,1.2645,button_right_test,0,86,86,3,1
,,,,,,,,,,,,,,,,,198931,18,2022-01-29_11h19.07.551,lexical_decision_task_DD_L6,2021.2.3,Win32,61.13964294,,,,,,,,,,1.0134,1,,,,,,,,,,,,,,,,,,,,,,,-0.222222222,-0.275,1,0,0,,,,,,,LIZARD,HB,z,y,./images/LIZARDHB.png,,,,,,,,,0,-0.222222222,-0.275,1,0,0,1.0134,button_left_test,0,87,87,128,1
,,,,,,,,,,,,,,,,,198931,18,2022-01-29_11h19.07.551,lexical_decision_task_DD_L6,2021.2.3,Win32,61.13964294,,,,,,,,,,1.0975,1,,,,,,,,,,,,,,,,,,,,,,,-0.242592578,-0.275925954,1,0,0,,,,,,,SAILOR,C,z,y,./images/SAILOR.png,,,,,,,,,0,-0.242592578,-0.275925954,1,0,0,1.0975,button_left_test,0,88,88,151,1
,,,,,,,,,,,,,,,,,198931,18,2022-01-29_11h19.07.551,lexical_decision_task_DD_L6,2021.2.3,Win32,61.13964294,,,,,,,,,,0.9797,1,,,,,,,,,,,,,,,,,,,,,,,0.28148151,-0.340740797,1,0,0,,,,,,,STOVE,HB,m,y,./images/STOVEHB.png,,,,,,,,,0,0.28148151,-0.340740797,1,0,0,0.9797,button_right_test,0,89,89,2,1
,,,,,,,,,,,,,,,,,198931,18,2022-01-29_11h19.07.551,lexical_decision_task_DD_L6,2021.2.3,Win32,61.13964294,,,,,,,,,,1.3786,0,,,,,,,,,,,,,,,,,,,,,,,0.274074131,-0.321296353,1,0,0,,,,,,,STRING,HB,z,y,./images/STRINGHB.png,,,,,,,,,0,0.274074131,-0.321296353,1,0,0,1.3786,button_right_test,0,90,90,125,1
,,,,,,,,,,,,,,,,,198931,18,2022-01-29_11h19.07.551,lexical_decision_task_DD_L6,2021.2.3,Win32,61.13964294,,,,,,,,,,0.8809,1,,,,,,,,,,,,,,,,,,,,,,,-0.240740712,-0.3,1,0,0,,,,,,,MUFFIN,C,z,y,./images/MUFFIN.png,,,,,,,,,0,-0.240740712,-0.3,1,0,0,0.8809,button_left_test,0,91,91,139,1
,,,,,,,,,,,,,,,,,198931,18,2022-01-29_11h19.07.551,lexical_decision_task_DD_L6,2021.2.3,Win32,61.13964294,,,,,,,,,,0.9962,1,,,,,,,,,,,,,,,,,,,,,,,0.326851908,-0.347222222,1,0,0,,,,,,,SHIELD,LB,m,y,./images/SHIELDLB.png,,,,,,,,,0,0.326851908,-0.347222222,1,0,0,0.9962,button_right_test,0,92,92,48,1
,,,,,,,,,,,,,,,,,198931,18,2022-01-29_11h19.07.551,lexical_decision_task_DD_L6,2021.2.3,Win32,61.13964294,,,,,,,,,,1.5625,0,,,,,,,,,,,,,,,,,,,,,,,0.277777778,-0.344444444,1,0,0,,,,,,,PENCE,C,z,y,./images/PENCE.png,,,,,,,,,0,0.277777778,-0.344444444,1,0,0,1.5625,button_right_test,0,93,93,100,1
,,,,,,,,,,,,,,,,,198931,18,2022-01-29_11h19.07.551,lexical_decision_task_DD_L6,2021.2.3,Win32,61.13964294,,,,,,,,,,0.9456,1,,,,,,,,,,,,,,,,,,,,,,,0.251851908,-0.347222222,1,0,0,,,,,,,MONKEY,LB,m,y,./images/MONKEYLB.png,,,,,,,,,0,0.251851908,-0.347222222,1,0,0,0.9456,button_right_test,0,94,94,45,1
,,,,,,,,,,,,,,,,,198931,18,2022-01-29_11h19.07.551,lexical_decision_task_DD_L6,2021.2.3,Win32,61.13964294,,,,,,,,,,0.9458,1,,,,,,,,,,,,,,,,,,,,,,,-0.256481467,-0.302777778,1,0,0,,,,,,,TWINS,LB,z,y,./images/TWINSLB.png,,,,,,,,,0,-0.256481467,-0.302777778,1,0,0,0.9458,button_left_test,0,95,95,144,1
,,,,,,,,,,,,,,,,,198931,18,2022-01-29_11h19.07.551,lexical_decision_task_DD_L6,2021.2.3,Win32,61.13964294,,,,,,,,,,1.148,1,,,,,,,,,,,,,,,,,,,,,,,-0.25370369,-0.305555556,1,0,0,,,,,,,DRUMS,C,z,y,./images/DRUMS.png,,,,,,,,,0,-0.25370369,-0.305555556,1,0,0,1.148,button_left_test,0,96,96,133,1
,,,,,,,,,,,,,,,,,198931,18,2022-01-29_11h19.07.551,lexical_decision_task_DD_L6,2021.2.3,Win32,61.13964294,,,,,,,,,,1.7813,1,,,,,,,,,,,,,,,,,,,,,,,-0.202777778,-0.285185242,1,0,0,,,,,,,COUCH,HB,z,y,./images/COUCHHB.png,,,,,,,,,0,-0.202777778,-0.285185242,1,0,0,1.7813,button_left_test,0,97,97,161,1
,,,,,,,,,,,,,,,,,198931,18,2022-01-29_11h19.07.551,lexical_decision_task_DD_L6,2021.2.3,Win32,61.13964294,,,,,,,,,,1.0627,1,,,,,,,,,,,,,,,,,,,,,,,-0.242592578,-0.287963019,1,0,0,,,,,,,MAGGOT,LB,z,y,./images/MAGGOTLB.png,,,,,,,,,0,-0.242592578,-0.287963019,1,0,0,1.0627,button_left_test,0,98,98,117,1
,,,,,,,,,,,,,,,,,198931,18,2022-01-29_11h19.07.551,lexical_decision_task_DD_L6,2021.2.3,Win32,61.13964294,,,,,,,,,,1.0326,0,,,,,,,,,,,,,,,,,,,,,,,0.262037065,-0.317592621,1,0,0,,,,,,,MIRROR,LB,z,y,./images/MIRRORLB.png,,,,,,,,,0,0.262037065,-0.317592621,1,0,0,1.0326,button_right_test,0,99,99,147,1
,,,,,,,,,,,,,,,,,198931,18,2022-01-29_11h19.07.551,lexical_decision_task_DD_L6,2021.2.3,Win32,61.13964294,,,,,,,,,,1.1819,1,,,,,,,,,,,,,,,,,,,,,,,0.280555556,-0.352777778,1,0,0,,,,,,,CHAIN,LB,m,y,./images/CHAINLB.png,,,,,,,,,0,0.280555556,-0.352777778,1,0,0,1.1819,button_right_test,0,100,100,42,1
,,,,,,,,,,,,,,,,,198931,18,2022-01-29_11h19.07.551,lexical_decision_task_DD_L6,2021.2.3,Win32,61.13964294,,,,,,,,,,0.9481,1,,,,,,,,,,,,,,,,,,,,,,,0.255555556,-0.345370399,1,0,0,,,,,,,SAUNA,LB,m,y,./images/SAUNALB.png,,,,,,,,,0,0.255555556,-0.345370399,1,0,0,0.9481,button_right_test,0,101,101,33,1
,,,,,,,,,,,,,,,,,198931,18,2022-01-29_11h19.07.551,lexical_decision_task_DD_L6,2021.2.3,Win32,61.13964294,,,,,,,,,,1.2124,1,,,,,,,,,,,,,,,,,,,,,,,-0.252777778,-0.278703732,1,0,0,,,,,,,PASTA,HB,z,y,./images/PASTAHB.png,,,,,,,,,0,-0.252777778,-0.278703732,1,0,0,1.2124,button_left_test,0,102,102,89,1
,,,,,,,,,,,,,,,,,198931,18,2022-01-29_11h19.07.551,lexical_decision_task_DD_L6,2021.2.3,Win32,61.13964294,,,,,,,,,,1.2509,1,,,,,,,,,,,,,,,,,,,,,,,-0.237962935,-0.295370399,1,0,0,,,,,,,BONNET,HB,z,y,./images/BONNETHB.png,,,,,,,,,0,-0.237962935,-0.295370399,1,0,0,1.2509,button_left_test,0,103,103,95,1
,,,,,,,,,,,,,,,,,198931,18,2022-01-29_11h19.07.551,lexical_decision_task_DD_L6,2021.2.3,Win32,61.13964294,,,,,,,,,,0.9812,1,,,,,,,,,,,,,,,,,,,,,,,0.282407464,-0.366666667,1,0,0,,,,,,,CASINO,C,m,y,./images/CASINO.png,,,,,,,,,0,0.282407464,-0.366666667,1,0,0,0.9812,button_right_test,0,104,104,28,1
,,,,,,,,,,,,,,,,,198931,18,2022-01-29_11h19.07.551,lexical_decision_task_DD_L6,2021.2.3,Win32,61.13964294,,,,,,,,,,0.7459,1,,,,,,,,,,,,,,,,,,,,,,,-0.25370369,-0.307407464,1,0,0,,,,,,,QUILL,C,z,y,./images/QUILL.png,,,,,,,,,0,-0.25370369,-0.307407464,1,0,0,0.7459,button_left_test,0,105,105,115,1
,,,,,,,,,,,,,,,,,198931,18,2022-01-29_11h19.07.551,lexical_decision_task_DD_L6,2021.2.3,Win32,61.13964294,,,,,,,,,,1.0175,1,,,,,,,,,,,,,,,,,,,,,,,-0.238888889,-0.312037065,1,0,0,,,,,,,JELLY,C,z,y,./images/JELLY.png,,,,,,,,,0,-0.238888889,-0.312037065,1,0,0,1.0175,button_left_test,0,106,106,148,1
,,,,,,,,,,,,,,,,,198931,18,2022-01-29_11h19.07.551,lexical_decision_task_DD_L6,2021.2.3,Win32,61.13964294,,,,,,,,,,1.0476,1,,,,,,,,,,,,,,,,,,,,,,,0.262963019,-0.387963019,1,0,0,,,,,,,SAUCE,LB,m,y,./images/SAUCELB.png,,,,,,,,,0,0.262963019,-0.387963019,1,0,0,1.0476,button_right_test,0,107,107,51,1
,,,,,,,,,,,,,,,,,198931,18,2022-01-29_11h19.07.551,lexical_decision_task_DD_L6,2021.2.3,Win32,61.13964294,,,,,,,,,,0.8298,1,,,,,,,,,,,,,,,,,,,,,,,-0.252777778,-0.327777778,1,0,0,,,,,,,ONION,LB,z,y,./images/ONIONLB.png,,,,,,,,,0,-0.252777778,-0.327777778,1,0,0,0.8298,button_left_test,0,108,108,135,1
,,,,,,,,,,,,,,,,,198931,18,2022-01-29_11h19.07.551,lexical_decision_task_DD_L6,2021.2.3,Win32,61.13964294,,,,,,,,,,0.9289,1,,,,,,,,,,,,,,,,,,,,,,,-0.262037023,-0.35,1,0,0,,,,,,,PAINT,C,z,y,./images/PAINT.png,,,,,,,,,0,-0.262037023,-0.35,1,0,0,0.9289,button_left_test,0,109,109,91,1
,,,,,,,,,,,,,,,,,198931,18,2022-01-29_11h19.07.551,lexical_decision_task_DD_L6,2021.2.3,Win32,61.13964294,,,,,,,,,,0.9793,1,,,,,,,,,,,,,,,,,,,,,,,-0.244444444,-0.315740797,1,0,0,,,,,,,FINGER,LB,z,y,./images/FINGERLB.png,,,,,,,,,0,-0.244444444,-0.315740797,1,0,0,0.9793,button_left_test,0,110,110,87,1
,,,,,,,,,,,,,,,,,198931,18,2022-01-29_11h19.07.551,lexical_decision_task_DD_L6,2021.2.3,Win32,61.13964294,,,,,,,,,,0.8324,0,,,,,,,,,,,,,,,,,,,,,,,-0.241666667,-0.339814843,1,0,0,,,,,,,PEBBLE,C,m,y,./images/PEBBLE.png,,,,,,,,,0,-0.241666667,-0.339814843,1,0,0,0.8324,button_left_test,0,111,111,82,1
,,,,,,,,,,,,,,,,,198931,18,2022-01-29_11h19.07.551,lexical_decision_task_DD_L6,2021.2.3,Win32,61.13964294,,,,,,,,,,1.1615,1,,,,,,,,,,,,,,,,,,,,,,,-0.254629601,-0.328703732,1,0,0,,,,,,,LITTER,LB,z,y,./images/LITTERLB.png,,,,,,,,,0,-0.254629601,-0.328703732,1,0,0,1.1615,button_left_test,0,112,112,162,1
,,,,,,,,,,,,,,,,,198931,18,2022-01-29_11h19.07.551,lexical_decision_task_DD_L6,2021.2.3,Win32,61.13964294,,,,,,,,,,0.9627,0,,,,,,,,,,,,,,,,,,,,,,,-0.25,-0.340740797,1,0,0,,,,,,,SNAKE,C,m,y,./images/SNAKE.png,,,,,,,,,0,-0.25,-0.340740797,1,0,0,0.9627,button_left_test,0,113,113,40,1
,,,,,,,,,,,,,,,,,198931,18,2022-01-29_11h19.07.551,lexical_decision_task_DD_L6,2021.2.3,Win32,61.13964294,,,,,,,,,,0.8827,1,,,,,,,,,,,,,,,,,,,,,,,-0.26851849,-0.348148176,1,0,0,,,,,,,TRIPOD,LB,z,y,./images/TRIPODLB.png,,,,,,,,,0,-0.26851849,-0.348148176,1,0,0,0.8827,button_left_test,0,114,114,138,1
,,,,,,,,,,,,,,,,,198931,18,2022-01-29_11h19.07.551,lexical_decision_task_DD_L6,2021.2.3,Win32,61.13964294,,,,,,,,,,0.8979,1,,,,,,,,,,,,,,,,,,,,,,,-0.260185157,-0.342592621,1,0,0,,,,,,,DOUGH,C,z,y,./images/DOUGH.png,,,,,,,,,0,-0.260185157,-0.342592621,1,0,0,0.8979,button_left_test,0,115,115,103,1
,,,,,,,,,,,,,,,,,198931,18,2022-01-29_11h19.07.551,lexical_decision_task_DD_L6,2021.2.3,Win32,61.13964294,,,,,,,,,,0.8477,1,,,,,,,,,,,,,,,,,,,,,,,-0.217592578,-0.324074131,1,0,0,,,,,,,PACKET,HB,z,y,./images/PACKETHB.png,,,,,,,,,0,-0.217592578,-0.324074131,1,0,0,0.8477,button_left_test,0,116,116,140,1
,,,,,,,,,,,,,,,,,198931,18,2022-01-29_11h19.07.551,lexical_decision_task_DD_L6,2021.2.3,Win32,61.13964294,,,,,,,,,,1.3477,1,,,,,,,,,,,,,,,,,,,,,,,0.285185242,-0.371296353,1,0,0,,,,,,,MIDGET,C,m,y,./images/MIDGET.png,,,,,,,,,0,0.285185242,-0.371296353,1,0,0,1.3477,button_right_test,0,117,117,76,1
,,,,,,,,,,,,,,,,,198931,18,2022-01-29_11h19.07.551,lexical_decision_task_DD_L6,2021.2.3,Win32,61.13964294,,,,,,,,,,1.1174,1,,,,,,,,,,,,,,,,,,,,,,,-0.295370356,-0.325,1,0,0,,,,,,,SKIING,HB,z,y,./images/SKIINGHB.png,,,,,,,,,0,-0.295370356,-0.325,1,0,0,1.1174,button_left_test,0,118,118,101,1
,,,,,,,,,,,,,,,,,198931,18,2022-01-29_11h19.07.551,lexical_decision_task_DD_L6,2021.2.3,Win32,61.13964294,,,,,,,,,,0.9313,1,,,,,,,,,,,,,,,,,,,,,,,-0.238888889,-0.327777778,1,0,0,,,,,,,BANNER,C,z,y,./images/BANNER.png,,,,,,,,,0,-0.238888889,-0.327777778,1,0,0,0.9313,button_left_test,0,119,119,136,1
,,,,,,,,,,,,,,,,,198931,18,2022-01-29_11h19.07.551,lexical_decision_task_DD_L6,2021.2.3,Win32,61.13964294,,,,,,,,,,1.0797,0,,,,,,,,,,,,,,,,,,,,,,,0.319444444,-0.384259288,1,0,0,,,,,,,BABOON,C,z,y,./images/BABOON.png,,,,,,,,,0,0.319444444,-0.384259288,1,0,0,1.0797,button_right_test,0,120,120,142,1
,,,,,,,,,,,,,,,,,198931,18,2022-01-29_11h19.07.551,lexical_decision_task_DD_L6,2021.2.3,Win32,61.13964294,,,,,,,,,,1.2482,1,,,,,,,,,,,,,,,,,,,,,,,0.3,-0.377777778,1,0,0,,,,,,,STATUE,LB,m,y,./images/STATUELB.png,,,,,,,,,0,0.3,-0.377777778,1,0,0,1.2482,button_right_test,0,121,121,66,1
,,,,,,,,,,,,,,,,,198931,18,2022-01-29_11h19.07.551,lexical_decision_task_DD_L6,2021.2.3,Win32,61.13964294,,,,,,,,,,1.0985,1,,,,,,,,,,,,,,,,,,,,,,,-0.275925912,-0.315740797,1,0,0,,,,,,,URINE,C,z,y,./images/URINE.png,,,,,,,,,0,-0.275925912,-0.315740797,1,0,0,1.0985,button_left_test,0,122,122,154,1
,,,,,,,,,,,,,,,,,198931,18,2022-01-29_11h19.07.551,lexical_decision_task_DD_L6,2021.2.3,Win32,61.13964294,,,,,,,,,,1.0453,1,,,,,,,,,,,,,,,,,,,,,,,0.288888889,-0.358333333,1,0,0,,,,,,,BAKER,LB,m,y,./images/BAKERLB.png,,,,,,,,,0,0.288888889,-0.358333333,1,0,0,1.0453,button_right_test,0,123,123,63,1
,,,,,,,,,,,,,,,,,198931,18,2022-01-29_11h19.07.551,lexical_decision_task_DD_L6,2021.2.3,Win32,61.13964294,,,,,,,,,,1.0124,1,,,,,,,,,,,,,,,,,,,,,,,0.284259288,-0.349074131,1,0,0,,,,,,,PARCEL,LB,m,y,./images/PARCELLB.png,,,,,,,,,0,0.284259288,-0.349074131,1,0,0,1.0124,button_right_test,0,124,124,18,1
,,,,,,,,,,,,,,,,,198931,18,2022-01-29_11h19.07.551,lexical_decision_task_DD_L6,2021.2.3,Win32,61.13964294,,,,,,,,,,1.063,1,,,,,,,,,,,,,,,,,,,,,,,-0.057407379,-0.430555556,1,0,0,,,,,,,KITTEN,LB,z,y,./images/KITTENLB.png,break_done_button,,,,,,,,0,-0.263888889,-0.325925954,1,0,0,1.063,button_left_test,0,125,125,129,1
,,,,,,,,,,,,,,,,,198931,18,2022-01-29_11h19.07.551,lexical_decision_task_DD_L6,2021.2.3,Win32,61.13964294,,,,,,,,,,1.581,0,,,,,,,,,,,,,,,,,,,,,,,-0.300925912,-0.208333333,1,0,0,,,,,,,WALNUT,LB,m,y,./images/WALNUTLB.png,,,,,,,,,0,-0.300925912,-0.208333333,1,0,0,1.581,button_left_test,0,126,126,0,1
,,,,,,,,,,,,,,,,,198931,18,2022-01-29_11h19.07.551,lexical_decision_task_DD_L6,2021.2.3,Win32,61.13964294,,,,,,,,,,0.8142,1,,,,,,,,,,,,,,,,,,,,,,,-0.247222222,-0.280555556,1,0,0,,,,,,,BEARD,HB,z,y,./images/BEARDHB.png,,,,,,,,,0,-0.247222222,-0.280555556,1,0,0,0.8142,button_left_test,0,127,127,86,1
,,,,,,,,,,,,,,,,,198931,18,2022-01-29_11h19.07.551,lexical_decision_task_DD_L6,2021.2.3,Win32,61.13964294,,,,,,,,,,0.8978,1,,,,,,,,,,,,,,,,,,,,,,,-0.252777778,-0.312963019,1,0,0,,,,,,,FALCON,C,z,y,./images/FALCON.png,,,,,,,,,0,-0.252777778,-0.312963019,1,0,0,0.8978,button_left_test,0,128,128,112,1
,,,,,,,,,,,,,,,,,198931,18,2022-01-29_11h19.07.551,lexical_decision_task_DD_L6,2021.2.3,Win32,61.13964294,,,,,,,,,,0.781,1,,,,,,,,,,,,,,,,,,,,,,,-0.234259245,-0.289814843,1,0,0,,,,,,,COOKER,LB,z,y,./images/COOKERLB.png,,,,,,,,,0,-0.234259245,-0.289814843,1,0,0,0.781,button_left_test,0,129,129,153,1
