key_resp.keys,key_resp.rt,instr_done_touch.x,instr_done_touch.y,instr_done_touch.leftButton,instr_done_touch.midButton,instr_done_touch.rightButton,instruction_pages.thisRepN,instruction_pages.thisTrialN,instruction_pages.thisN,instruction_pages.thisIndex,instruction_pages.ran,pageN,phase,instruct_text,has_image,instruct_image,participant,age,date,expName,psychopyVersion,OS,frameRate,response.keys,response.corr,response.rt,touch_resp.x,touch_resp.y,touch_resp.leftButton,touch_resp.midButton,touch_resp.rightButton,touch_resp.time,touch_resp.clicked_name,rt,corr,practrials.thisRepN,practrials.thisTrialN,practrials.thisN,practrials.thisIndex,practrials.ran,TrialID,Target,corrAns,end_of_practice_trials_pages.thisRepN,end_of_practice_trials_pages.thisTrialN,end_of_practice_trials_pages.thisN,end_of_practice_trials_pages.thisIndex,end_of_practice_trials_pages.ran,key_resp_2.keys,key_resp_2.corr,key_resp_2.rt,targ_click.x,targ_click.y,targ_click.leftButton,targ_click.midButton,targ_click.rightButton,targ_click.time,targ_click.clicked_name,break_done_touch.x,break_done_touch.y,break_done_touch.leftButton,break_done_touch.midButton,break_done_touch.rightButton,break_done_keyboard.keys,maintrials.thisRepN,maintrials.thisTrialN,maintrials.thisN,maintrials.thisIndex,maintrials.ran,string,blur,study,lex,stim_path,break_done_keyboard.rt,test_instructions.thisRepN,test_instructions.thisTrialN,test_instructions.thisN,test_instructions.thisIndex,test_instructions.ran,instr_done_touch.clicked_name,key_resp_3.keys,key_resp_3.corr,key_resp_3.rt,test_click.x,test_click.y,test_click.leftButton,test_click.midButton,test_click.rightButton,test_click.time,test_click.clicked_name,test_phase.thisRepN,test_phase.thisTrialN,test_phase.thisN,test_phase.thisIndex,test_phase.ran
space,15.6757,0.05296441,-0.13687934,0,0,0,0,0,0,0,1,1,instructions,"INSTRUCTIONS
At the start of each trial, look at the plus sign  (+) in the center of the screen.  This tells you that a trial is about to begin and where to look. Second, the plus sign will disappear and a string of letters will appear. Your task is to determine if the string of letters is a word or not. If the item is a word press the M key (on keyboard)  or touch the word button (phone/tablet).  If the item is not a word,  press the  Z key (on keyboard)  or touch the nonword button (on phone/tablet). 
Press the space bar or touch  continue.",0,,198973,18,2022-01-28_23h57.20.248,lexical_decision_task_DD_L2,2021.2.3,MacIntel,59.99880002,,,,,,,,,,,,,,,,,,,,,,,,,,,,,,,,,,,,,,,,,,,,,,,,,,,,,,,,,,,,,,,,,,,,,,,,,
space,8.5865,0.05296441,-0.13687934,0,0,0,0,1,1,1,1,2,instructions,"If your device has a keyboard, press the 'Z' key for nonwords and the 'M' key for words.





Press the space bar or touch the button below to continue.",0,keyboard-example.gif,198973,18,2022-01-28_23h57.20.248,lexical_decision_task_DD_L2,2021.2.3,MacIntel,59.99880002,,,,,,,,,,,,,,,,,,,,,,,,,,,,,,,,,,,,,,,,,,,,,,,,,,,,,,,,,,,,,,,,,,,,,,,,,
space,6.7754,0.075555556,-0.397304687,0,0,0,0,2,2,2,1,3,instructions,"If you are using a touchscreen only device, use the buttons on the screen. Do not use the mouse.





Press the space bar or touch the button below to continue.",0,touchscreen-example.gif,198973,18,2022-01-28_23h57.20.248,lexical_decision_task_DD_L2,2021.2.3,MacIntel,59.99880002,,,,,,,,,,,,,,,,,,,,,,,,,,,,,,,,,,,,,,,,,,,,,,,,,,,,,,,,,,,,,,,,,,,,,,,,,
space,11.3607,0.075555556,-0.397304687,0,0,0,0,3,3,3,1,4,instructions,"It is very important that you respond as quickly and accurately as possible, as each letter string will only be on the screen for two seconds. If you do not respond within this time, the message 'Too slow!' will be displayed and the experiment will progress to the next letter string. The first 20 trials will be practice trials and you will receive feedback on your answers. 

Press the space bar or touch the button below to start the practice trials.",0,,198973,18,2022-01-28_23h57.20.248,lexical_decision_task_DD_L2,2021.2.3,MacIntel,59.99880002,,,,,,,,,,,,,,,,,,,,,,,,,,,,,,,,,,,,,,,,,,,,,,,,,,,,,,,,,,,,,,,,,,,,,,,,,
,,,,,,,,,,,,,,,,,198973,18,2022-01-28_23h57.20.248,lexical_decision_task_DD_L2,2021.2.3,MacIntel,59.99880002,z,1,4.1459,,,,,,,,4.1459,1,0,0,0,13,1,1001,ROUPET,z,,,,,,,,,,,,,,,,,,,,,,,,,,,,,,,,,,,,,,,,,,,,,,,,,,,,,
,,,,,,,,,,,,,,,,,198973,18,2022-01-28_23h57.20.248,lexical_decision_task_DD_L2,2021.2.3,MacIntel,59.99880002,m,0,6.6494,,,,,,,,6.6494,0,0,1,1,15,1,1001,WHAISE,z,,,,,,,,,,,,,,,,,,,,,,,,,,,,,,,,,,,,,,,,,,,,,,,,,,,,,
,,,,,,,,,,,,,,,,,198973,18,2022-01-28_23h57.20.248,lexical_decision_task_DD_L2,2021.2.3,MacIntel,59.99880002,m,1,1.0114,,,,,,,,1.0114,1,0,2,2,5,1,1001,OBTAIN,m,,,,,,,,,,,,,,,,,,,,,,,,,,,,,,,,,,,,,,,,,,,,,,,,,,,,,
,,,,,,,,,,,,,,,,,198973,18,2022-01-28_23h57.20.248,lexical_decision_task_DD_L2,2021.2.3,MacIntel,59.99880002,z,1,2.0606,,,,,,,,2.0606,1,0,3,3,10,1,1001,INLADE,z,,,,,,,,,,,,,,,,,,,,,,,,,,,,,,,,,,,,,,,,,,,,,,,,,,,,,
,,,,,,,,,,,,,,,,,198973,18,2022-01-28_23h57.20.248,lexical_decision_task_DD_L2,2021.2.3,MacIntel,59.99880002,m,1,0.8221,,,,,,,,0.8221,1,0,4,4,2,1,1001,ALMOND,m,,,,,,,,,,,,,,,,,,,,,,,,,,,,,,,,,,,,,,,,,,,,,,,,,,,,,
,,,,,,,,,,,,,,,,,198973,18,2022-01-28_23h57.20.248,lexical_decision_task_DD_L2,2021.2.3,MacIntel,59.99880002,z,1,3.7781,,,,,,,,3.7781,1,0,5,5,9,1,1001,FARINY,z,,,,,,,,,,,,,,,,,,,,,,,,,,,,,,,,,,,,,,,,,,,,,,,,,,,,,
,,,,,,,,,,,,,,,,,198973,18,2022-01-28_23h57.20.248,lexical_decision_task_DD_L2,2021.2.3,MacIntel,59.99880002,z,1,4.016,,,,,,,,4.016,1,0,6,6,11,1,1001,RASHET,z,,,,,,,,,,,,,,,,,,,,,,,,,,,,,,,,,,,,,,,,,,,,,,,,,,,,,
,,,,,,,,,,,,,,,,,198973,18,2022-01-28_23h57.20.248,lexical_decision_task_DD_L2,2021.2.3,MacIntel,59.99880002,z,1,0.886,,,,,,,,0.886,1,0,7,7,12,1,1001,SPRINY,z,,,,,,,,,,,,,,,,,,,,,,,,,,,,,,,,,,,,,,,,,,,,,,,,,,,,,
,,,,,,,,,,,,,,,,,198973,18,2022-01-28_23h57.20.248,lexical_decision_task_DD_L2,2021.2.3,MacIntel,59.99880002,z,1,1.0333,,,,,,,,1.0333,1,0,8,8,14,1,1001,THRALE,z,,,,,,,,,,,,,,,,,,,,,,,,,,,,,,,,,,,,,,,,,,,,,,,,,,,,,
,,,,,,,,,,,,,,,,,198973,18,2022-01-28_23h57.20.248,lexical_decision_task_DD_L2,2021.2.3,MacIntel,59.99880002,z,1,0.6174,,,,,,,,0.6174,1,0,9,9,8,1,1001,ASLERT,z,,,,,,,,,,,,,,,,,,,,,,,,,,,,,,,,,,,,,,,,,,,,,,,,,,,,,
,,,,,,,,,,,,,,,,,198973,18,2022-01-28_23h57.20.248,lexical_decision_task_DD_L2,2021.2.3,MacIntel,59.99880002,m,1,0.6304,,,,,,,,0.6304,1,0,10,10,3,1,1001,MATRIX,m,,,,,,,,,,,,,,,,,,,,,,,,,,,,,,,,,,,,,,,,,,,,,,,,,,,,,
,,,,,,,,,,,,,,,,,198973,18,2022-01-28_23h57.20.248,lexical_decision_task_DD_L2,2021.2.3,MacIntel,59.99880002,m,1,0.5517,,,,,,,,0.5517,1,0,11,11,1,1,1001,ADJUST,m,,,,,,,,,,,,,,,,,,,,,,,,,,,,,,,,,,,,,,,,,,,,,,,,,,,,,
,,,,,,,,,,,,,,,,,198973,18,2022-01-28_23h57.20.248,lexical_decision_task_DD_L2,2021.2.3,MacIntel,59.99880002,m,1,0.4917,,,,,,,,0.4917,1,0,12,12,4,1,1001,SQUEAK,m,,,,,,,,,,,,,,,,,,,,,,,,,,,,,,,,,,,,,,,,,,,,,,,,,,,,,
,,,,,,,,,,,,,,,,,198973,18,2022-01-28_23h57.20.248,lexical_decision_task_DD_L2,2021.2.3,MacIntel,59.99880002,z,0,0.8192,,,,,,,,0.8192,0,0,13,13,0,1,1001,UTOPIA,m,,,,,,,,,,,,,,,,,,,,,,,,,,,,,,,,,,,,,,,,,,,,,,,,,,,,,
,,,,,,,,,,,,,,,,,198973,18,2022-01-28_23h57.20.248,lexical_decision_task_DD_L2,2021.2.3,MacIntel,59.99880002,m,1,0.5304,,,,,,,,0.5304,1,0,14,14,7,1,1001,VOLUME,m,,,,,,,,,,,,,,,,,,,,,,,,,,,,,,,,,,,,,,,,,,,,,,,,,,,,,
,,,,,,,,,,,,,,,,,198973,18,2022-01-28_23h57.20.248,lexical_decision_task_DD_L2,2021.2.3,MacIntel,59.99880002,m,1,0.4797,,,,,,,,0.4797,1,0,15,15,6,1,1001,ZOMBIE,m,,,,,,,,,,,,,,,,,,,,,,,,,,,,,,,,,,,,,,,,,,,,,,,,,,,,,
space,10.9149,0.075555556,-0.397304687,0,0,0,,,,,,1,end_of_practice,"You have completed the practice trials. During the experimental trials, you will not receive feedback. 
Before you begin, please ensure that you are in a comfortable and quiet location and will not be disturbed for about 15 minutes, as we cannot use your data if you do not complete all the trials. 
 When you are ready to start the experimental trials, please press space or touch the button below.",,,198973,18,2022-01-28_23h57.20.248,lexical_decision_task_DD_L2,2021.2.3,MacIntel,59.99880002,,,,,,,,,,,,,,,,,,,,,0,0,0,0,1,,,,,,,,,,,,,,,,,,,,,,,,,,,,,,,,,,,,,,,,,,,,,,,,
,,,,,,,,,,,,,,,,,198973,18,2022-01-28_23h57.20.248,lexical_decision_task_DD_L2,2021.2.3,MacIntel,59.99880002,,,,,,,,,,,4.0818,1,,,,,,,,,,,,,,z,1,4.0818,,,,,,,,0.075555556,-0.397304687,0,0,0,,0,0,0,127,1,NINDY,HB,old,z,./images/NINDYHB.png,,,,,,,,,,,,,,,,,,,,,,
,,,,,,,,,,,,,,,,,198973,18,2022-01-28_23h57.20.248,lexical_decision_task_DD_L2,2021.2.3,MacIntel,59.99880002,,,,,,,,,,,0.6825,1,,,,,,,,,,,,,,m,1,0.6825,,,,,,,,0.075555556,-0.397304687,0,0,0,,0,1,1,49,1,DRUMS,LB,old,m,./images/DRUMSLB.png,,,,,,,,,,,,,,,,,,,,,,
,,,,,,,,,,,,,,,,,198973,18,2022-01-28_23h57.20.248,lexical_decision_task_DD_L2,2021.2.3,MacIntel,59.99880002,,,,,,,,,,,0.6057,1,,,,,,,,,,,,,,m,1,0.6057,,,,,,,,0.075555556,-0.397304687,0,0,0,,0,2,2,60,1,TWINS,HB,old,m,./images/TWINSHB.png,,,,,,,,,,,,,,,,,,,,,,
,,,,,,,,,,,,,,,,,198973,18,2022-01-28_23h57.20.248,lexical_decision_task_DD_L2,2021.2.3,MacIntel,59.99880002,,,,,,,,,,,0.6795,1,,,,,,,,,,,,,,m,1,0.6795,,,,,,,,0.075555556,-0.397304687,0,0,0,,0,3,3,2,1,BEARD,C,old,m,./images/BEARD.png,,,,,,,,,,,,,,,,,,,,,,
,,,,,,,,,,,,,,,,,198973,18,2022-01-28_23h57.20.248,lexical_decision_task_DD_L2,2021.2.3,MacIntel,59.99880002,,,,,,,,,,,2.3808,1,,,,,,,,,,,,,,z,1,2.3808,,,,,,,,0.075555556,-0.397304687,0,0,0,,0,4,4,118,1,BAVEL,HB,old,z,./images/BAVELHB.png,,,,,,,,,,,,,,,,,,,,,,
,,,,,,,,,,,,,,,,,198973,18,2022-01-28_23h57.20.248,lexical_decision_task_DD_L2,2021.2.3,MacIntel,59.99880002,,,,,,,,,,,0.5575,1,,,,,,,,,,,,,,m,1,0.5575,,,,,,,,0.075555556,-0.397304687,0,0,0,,0,5,5,56,1,PACKET,C,old,m,./images/PACKET.png,,,,,,,,,,,,,,,,,,,,,,
,,,,,,,,,,,,,,,,,198973,18,2022-01-28_23h57.20.248,lexical_decision_task_DD_L2,2021.2.3,MacIntel,59.99880002,,,,,,,,,,,0.419,1,,,,,,,,,,,,,,m,1,0.419,,,,,,,,0.075555556,-0.397304687,0,0,0,,0,6,6,77,1,COUCH,C,old,m,./images/COUCH.png,,,,,,,,,,,,,,,,,,,,,,
,,,,,,,,,,,,,,,,,198973,18,2022-01-28_23h57.20.248,lexical_decision_task_DD_L2,2021.2.3,MacIntel,59.99880002,,,,,,,,,,,1.9738,1,,,,,,,,,,,,,,z,1,1.9738,,,,,,,,0.075555556,-0.397304687,0,0,0,,0,7,7,157,1,INLER,HB,old,z,./images/INLERHB.png,,,,,,,,,,,,,,,,,,,,,,
,,,,,,,,,,,,,,,,,198973,18,2022-01-28_23h57.20.248,lexical_decision_task_DD_L2,2021.2.3,MacIntel,59.99880002,,,,,,,,,,,0.7027,1,,,,,,,,,,,,,,z,1,0.7027,,,,,,,,0.075555556,-0.397304687,0,0,0,,0,8,8,144,1,NAIRY,C,old,z,./images/NAIRY.png,,,,,,,,,,,,,,,,,,,,,,
,,,,,,,,,,,,,,,,,198973,18,2022-01-28_23h57.20.248,lexical_decision_task_DD_L2,2021.2.3,MacIntel,59.99880002,,,,,,,,,,,2.3635,1,,,,,,,,,,,,,,z,1,2.3635,,,,,,,,0.075555556,-0.397304687,0,0,0,,0,9,9,97,1,CHIDS,HB,old,z,./images/CHIDSHB.png,,,,,,,,,,,,,,,,,,,,,,
,,,,,,,,,,,,,,,,,198973,18,2022-01-28_23h57.20.248,lexical_decision_task_DD_L2,2021.2.3,MacIntel,59.99880002,,,,,,,,,,,0.5469,1,,,,,,,,,,,,,,m,1,0.5469,,,,,,,,0.075555556,-0.397304687,0,0,0,,0,10,10,57,1,MOOSE,HB,old,m,./images/MOOSEHB.png,,,,,,,,,,,,,,,,,,,,,,
,,,,,,,,,,,,,,,,,198973,18,2022-01-28_23h57.20.248,lexical_decision_task_DD_L2,2021.2.3,MacIntel,59.99880002,,,,,,,,,,,0.946,1,,,,,,,,,,,,,,z,1,0.946,,,,,,,,0.075555556,-0.397304687,0,0,0,,0,11,11,93,1,SMONE,C,old,z,./images/SMONE.png,,,,,,,,,,,,,,,,,,,,,,
,,,,,,,,,,,,,,,,,198973,18,2022-01-28_23h57.20.248,lexical_decision_task_DD_L2,2021.2.3,MacIntel,59.99880002,,,,,,,,,,,0.8466,1,,,,,,,,,,,,,,m,1,0.8466,,,,,,,,0.075555556,-0.397304687,0,0,0,,0,12,12,75,1,GRAIN,HB,old,m,./images/GRAINHB.png,,,,,,,,,,,,,,,,,,,,,,
,,,,,,,,,,,,,,,,,198973,18,2022-01-28_23h57.20.248,lexical_decision_task_DD_L2,2021.2.3,MacIntel,59.99880002,,,,,,,,,,,0.5958,1,,,,,,,,,,,,,,m,1,0.5958,,,,,,,,0.075555556,-0.397304687,0,0,0,,0,13,13,23,1,WALRUS,C,old,m,./images/WALRUS.png,,,,,,,,,,,,,,,,,,,,,,
,,,,,,,,,,,,,,,,,198973,18,2022-01-28_23h57.20.248,lexical_decision_task_DD_L2,2021.2.3,MacIntel,59.99880002,,,,,,,,,,,0.5048,1,,,,,,,,,,,,,,m,1,0.5048,,,,,,,,0.075555556,-0.397304687,0,0,0,,0,14,14,30,1,STORM,HB,old,m,./images/STORMHB.png,,,,,,,,,,,,,,,,,,,,,,
,,,,,,,,,,,,,,,,,198973,18,2022-01-28_23h57.20.248,lexical_decision_task_DD_L2,2021.2.3,MacIntel,59.99880002,,,,,,,,,,,2.116,1,,,,,,,,,,,,,,z,1,2.116,,,,,,,,0.075555556,-0.397304687,0,0,0,,0,15,15,154,1,THINT,HB,old,z,./images/THINTHB.png,,,,,,,,,,,,,,,,,,,,,,
,,,,,,,,,,,,,,,,,198973,18,2022-01-28_23h57.20.248,lexical_decision_task_DD_L2,2021.2.3,MacIntel,59.99880002,,,,,,,,,,,0.7224,1,,,,,,,,,,,,,,m,1,0.7224,,,,,,,,0.075555556,-0.397304687,0,0,0,,0,16,16,50,1,MALLET,C,old,m,./images/MALLET.png,,,,,,,,,,,,,,,,,,,,,,
,,,,,,,,,,,,,,,,,198973,18,2022-01-28_23h57.20.248,lexical_decision_task_DD_L2,2021.2.3,MacIntel,59.99880002,,,,,,,,,,,0.5001,1,,,,,,,,,,,,,,m,1,0.5001,,,,,,,,0.075555556,-0.397304687,0,0,0,,0,17,17,46,1,PEARL,LB,old,m,./images/PEARLLB.png,,,,,,,,,,,,,,,,,,,,,,
,,,,,,,,,,,,,,,,,198973,18,2022-01-28_23h57.20.248,lexical_decision_task_DD_L2,2021.2.3,MacIntel,59.99880002,,,,,,,,,,,0.6075,1,,,,,,,,,,,,,,z,1,0.6075,,,,,,,,0.075555556,-0.397304687,0,0,0,,0,18,18,132,1,SCIFF,C,old,z,./images/SCIFF.png,,,,,,,,,,,,,,,,,,,,,,
,,,,,,,,,,,,,,,,,198973,18,2022-01-28_23h57.20.248,lexical_decision_task_DD_L2,2021.2.3,MacIntel,59.99880002,,,,,,,,,,,0.4641,0,,,,,,,,,,,,,,m,0,0.4641,,,,,,,,0.075555556,-0.397304687,0,0,0,,0,19,19,92,1,PAIMS,LB,old,z,./images/PAIMSLB.png,,,,,,,,,,,,,,,,,,,,,,
,,,,,,,,,,,,,,,,,198973,18,2022-01-28_23h57.20.248,lexical_decision_task_DD_L2,2021.2.3,MacIntel,59.99880002,,,,,,,,,,,0.7516,1,,,,,,,,,,,,,,z,1,0.7516,,,,,,,,0.075555556,-0.397304687,0,0,0,,0,20,20,153,1,CLUPS,C,old,z,./images/CLUPS.png,,,,,,,,,,,,,,,,,,,,,,
,,,,,,,,,,,,,,,,,198973,18,2022-01-28_23h57.20.248,lexical_decision_task_DD_L2,2021.2.3,MacIntel,59.99880002,,,,,,,,,,,0.5705,1,,,,,,,,,,,,,,m,1,0.5705,,,,,,,,0.075555556,-0.397304687,0,0,0,,0,21,21,53,1,CARPET,C,old,m,./images/CARPET.png,,,,,,,,,,,,,,,,,,,,,,
,,,,,,,,,,,,,,,,,198973,18,2022-01-28_23h57.20.248,lexical_decision_task_DD_L2,2021.2.3,MacIntel,59.99880002,,,,,,,,,,,0.8482,1,,,,,,,,,,,,,,z,1,0.8482,,,,,,,,0.075555556,-0.397304687,0,0,0,,0,22,22,164,1,SGREW,LB,old,z,./images/SGREWLB.png,,,,,,,,,,,,,,,,,,,,,,
,,,,,,,,,,,,,,,,,198973,18,2022-01-28_23h57.20.248,lexical_decision_task_DD_L2,2021.2.3,MacIntel,59.99880002,,,,,,,,,,,0.5264,1,,,,,,,,,,,,,,m,1,0.5264,,,,,,,,0.075555556,-0.397304687,0,0,0,,0,23,23,41,1,STRING,C,old,m,./images/STRING.png,,,,,,,,,,,,,,,,,,,,,,
,,,,,,,,,,,,,,,,,198973,18,2022-01-28_23h57.20.248,lexical_decision_task_DD_L2,2021.2.3,MacIntel,59.99880002,,,,,,,,,,,1.4714,1,,,,,,,,,,,,,,z,1,1.4714,,,,,,,,0.075555556,-0.397304687,0,0,0,,0,24,24,114,1,RIKES,C,old,z,./images/RIKES.png,,,,,,,,,,,,,,,,,,,,,,
,,,,,,,,,,,,,,,,,198973,18,2022-01-28_23h57.20.248,lexical_decision_task_DD_L2,2021.2.3,MacIntel,59.99880002,,,,,,,,,,,1.7046,1,,,,,,,,,,,,,,z,1,1.7046,,,,,,,,0.075555556,-0.397304687,0,0,0,,0,25,25,166,1,SHORY,HB,old,z,./images/SHORYHB.png,,,,,,,,,,,,,,,,,,,,,,
,,,,,,,,,,,,,,,,,198973,18,2022-01-28_23h57.20.248,lexical_decision_task_DD_L2,2021.2.3,MacIntel,59.99880002,,,,,,,,,,,0.7699,1,,,,,,,,,,,,,,z,1,0.7699,,,,,,,,0.075555556,-0.397304687,0,0,0,,0,26,26,129,1,PRANS,C,old,z,./images/PRANS.png,,,,,,,,,,,,,,,,,,,,,,
,,,,,,,,,,,,,,,,,198973,18,2022-01-28_23h57.20.248,lexical_decision_task_DD_L2,2021.2.3,MacIntel,59.99880002,,,,,,,,,,,0.6882,1,,,,,,,,,,,,,,m,1,0.6882,,,,,,,,0.075555556,-0.397304687,0,0,0,,0,27,27,76,1,INFANT,LB,old,m,./images/INFANTLB.png,,,,,,,,,,,,,,,,,,,,,,
,,,,,,,,,,,,,,,,,198973,18,2022-01-28_23h57.20.248,lexical_decision_task_DD_L2,2021.2.3,MacIntel,59.99880002,,,,,,,,,,,0.4733,1,,,,,,,,,,,,,,m,1,0.4733,,,,,,,,0.075555556,-0.397304687,0,0,0,,0,28,28,80,1,WEASEL,C,old,m,./images/WEASEL.png,,,,,,,,,,,,,,,,,,,,,,
,,,,,,,,,,,,,,,,,198973,18,2022-01-28_23h57.20.248,lexical_decision_task_DD_L2,2021.2.3,MacIntel,59.99880002,,,,,,,,,,,0.731,1,,,,,,,,,,,,,,m,1,0.731,,,,,,,,0.075555556,-0.397304687,0,0,0,,0,29,29,79,1,CRUST,LB,old,m,./images/CRUSTLB.png,,,,,,,,,,,,,,,,,,,,,,
,,,,,,,,,,,,,,,,,198973,18,2022-01-28_23h57.20.248,lexical_decision_task_DD_L2,2021.2.3,MacIntel,59.99880002,,,,,,,,,,,4.4403,1,,,,,,,,,,,,,,m,1,4.4403,,,,,,,,0.075555556,-0.397304687,0,0,0,,0,30,30,33,1,MAGGOT,HB,old,m,./images/MAGGOTHB.png,,,,,,,,,,,,,,,,,,,,,,
,,,,,,,,,,,,,,,,,198973,18,2022-01-28_23h57.20.248,lexical_decision_task_DD_L2,2021.2.3,MacIntel,59.99880002,,,,,,,,,,,0.5155,1,,,,,,,,,,,,,,m,1,0.5155,,,,,,,,0.075555556,-0.397304687,0,0,0,,0,31,31,16,1,PENCE,LB,old,m,./images/PENCELB.png,,,,,,,,,,,,,,,,,,,,,,
,,,,,,,,,,,,,,,,,198973,18,2022-01-28_23h57.20.248,lexical_decision_task_DD_L2,2021.2.3,MacIntel,59.99880002,,,,,,,,,,,0.4759,0,,,,,,,,,,,,,,m,0,0.4759,,,,,,,,0.075555556,-0.397304687,0,0,0,,0,32,32,98,1,BAMPS,LB,old,z,./images/BAMPSLB.png,,,,,,,,,,,,,,,,,,,,,,
,,,,,,,,,,,,,,,,,198973,18,2022-01-28_23h57.20.248,lexical_decision_task_DD_L2,2021.2.3,MacIntel,59.99880002,,,,,,,,,,,0.502,1,,,,,,,,,,,,,,m,1,0.502,,,,,,,,0.075555556,-0.397304687,0,0,0,,0,33,33,70,1,URINE,LB,old,m,./images/URINELB.png,,,,,,,,,,,,,,,,,,,,,,
,,,,,,,,,,,,,,,,,198973,18,2022-01-28_23h57.20.248,lexical_decision_task_DD_L2,2021.2.3,MacIntel,59.99880002,,,,,,,,,,,0.5501,1,,,,,,,,,,,,,,m,1,0.5501,,,,,,,,0.075555556,-0.397304687,0,0,0,,0,34,34,24,1,SCREW,HB,old,m,./images/SCREWHB.png,,,,,,,,,,,,,,,,,,,,,,
,,,,,,,,,,,,,,,,,198973,18,2022-01-28_23h57.20.248,lexical_decision_task_DD_L2,2021.2.3,MacIntel,59.99880002,,,,,,,,,,,0.5822,1,,,,,,,,,,,,,,z,1,0.5822,,,,,,,,0.075555556,-0.397304687,0,0,0,,0,35,35,152,1,FRAIN,LB,old,z,./images/FRAINLB.png,,,,,,,,,,,,,,,,,,,,,,
,,,,,,,,,,,,,,,,,198973,18,2022-01-28_23h57.20.248,lexical_decision_task_DD_L2,2021.2.3,MacIntel,59.99880002,,,,,,,,,,,0.4827,1,,,,,,,,,,,,,,m,1,0.4827,,,,,,,,0.075555556,-0.397304687,0,0,0,,0,36,36,28,1,FALCON,LB,old,m,./images/FALCONLB.png,,,,,,,,,,,,,,,,,,,,,,
,,,,,,,,,,,,,,,,,198973,18,2022-01-28_23h57.20.248,lexical_decision_task_DD_L2,2021.2.3,MacIntel,59.99880002,,,,,,,,,,,1.1131,1,,,,,,,,,,,,,,m,1,1.1131,,,,,,,,0.075555556,-0.397304687,0,0,0,,0,37,37,78,1,LITTER,HB,old,m,./images/LITTERHB.png,,,,,,,,,,,,,,,,,,,,,,
,,,,,,,,,,,,,,,,,198973,18,2022-01-28_23h57.20.248,lexical_decision_task_DD_L2,2021.2.3,MacIntel,59.99880002,,,,,,,,,,,0.6499,1,,,,,,,,,,,,,,z,1,0.6499,,,,,,,,0.075555556,-0.397304687,0,0,0,,0,38,38,161,1,BLAPS,LB,old,z,./images/BLAPSLB.png,,,,,,,,,,,,,,,,,,,,,,
,,,,,,,,,,,,,,,,,198973,18,2022-01-28_23h57.20.248,lexical_decision_task_DD_L2,2021.2.3,MacIntel,59.99880002,,,,,,,,,,,0.7165,1,,,,,,,,,,,,,,m,1,0.7165,,,,,,,,0.075555556,-0.397304687,0,0,0,,0,39,39,27,1,ATTIC,HB,old,m,./images/ATTICHB.png,,,,,,,,,,,,,,,,,,,,,,
,,,,,,,,,,,,,,,,,198973,18,2022-01-28_23h57.20.248,lexical_decision_task_DD_L2,2021.2.3,MacIntel,59.99880002,,,,,,,,,,,0.4863,1,,,,,,,,,,,,,,m,1,0.4863,,,,,,,,0.075555556,-0.397304687,0,0,0,,0,40,40,81,1,POODLE,HB,old,m,./images/POODLEHB.png,,,,,,,,,,,,,,,,,,,,,,
,,,,,,,,,,,,,,,,,198973,18,2022-01-28_23h57.20.248,lexical_decision_task_DD_L2,2021.2.3,MacIntel,59.99880002,,,,,,,,,,,0.5371,1,,,,,,,,,,,,,,z,1,0.5371,,,,,,,,0.075555556,-0.397304687,0,0,0,space,0,41,41,120,1,RINED,C,old,z,./images/RINED.png,2.4881,,,,,,,,,,,,,,,,,,,,,
,,,,,,,,,,,,,,,,,198973,18,2022-01-28_23h57.20.248,lexical_decision_task_DD_L2,2021.2.3,MacIntel,59.99880002,,,,,,,,,,,0.553,1,,,,,,,,,,,,,,m,1,0.553,,,,,,,,0.075555556,-0.397304687,0,0,0,,0,42,42,19,1,DOUGH,LB,old,m,./images/DOUGHLB.png,,,,,,,,,,,,,,,,,,,,,,
,,,,,,,,,,,,,,,,,198973,18,2022-01-28_23h57.20.248,lexical_decision_task_DD_L2,2021.2.3,MacIntel,59.99880002,,,,,,,,,,,0.7175,0,,,,,,,,,,,,,,z,0,0.7175,,,,,,,,0.075555556,-0.397304687,0,0,0,,0,43,43,43,1,MOSQUE,LB,old,m,./images/MOSQUELB.png,,,,,,,,,,,,,,,,,,,,,,
,,,,,,,,,,,,,,,,,198973,18,2022-01-28_23h57.20.248,lexical_decision_task_DD_L2,2021.2.3,MacIntel,59.99880002,,,,,,,,,,,0.5768,1,,,,,,,,,,,,,,z,1,0.5768,,,,,,,,0.075555556,-0.397304687,0,0,0,,0,44,44,138,1,PLICE,C,old,z,./images/PLICE.png,,,,,,,,,,,,,,,,,,,,,,
,,,,,,,,,,,,,,,,,198973,18,2022-01-28_23h57.20.248,lexical_decision_task_DD_L2,2021.2.3,MacIntel,59.99880002,,,,,,,,,,,0.9276,1,,,,,,,,,,,,,,m,1,0.9276,,,,,,,,0.075555556,-0.397304687,0,0,0,,0,45,45,12,1,SHORE,HB,old,m,./images/SHOREHB.png,,,,,,,,,,,,,,,,,,,,,,
,,,,,,,,,,,,,,,,,198973,18,2022-01-28_23h57.20.248,lexical_decision_task_DD_L2,2021.2.3,MacIntel,59.99880002,,,,,,,,,,,1.1172,1,,,,,,,,,,,,,,z,1,1.1172,,,,,,,,0.075555556,-0.397304687,0,0,0,,0,46,46,85,1,CHULK,HB,old,z,./images/CHULKHB.png,,,,,,,,,,,,,,,,,,,,,,
,,,,,,,,,,,,,,,,,198973,18,2022-01-28_23h57.20.248,lexical_decision_task_DD_L2,2021.2.3,MacIntel,59.99880002,,,,,,,,,,,1.2818,1,,,,,,,,,,,,,,z,1,1.2818,,,,,,,,0.075555556,-0.397304687,0,0,0,,0,47,47,109,1,BURGE,HB,old,z,./images/BURGEHB.png,,,,,,,,,,,,,,,,,,,,,,
,,,,,,,,,,,,,,,,,198973,18,2022-01-28_23h57.20.248,lexical_decision_task_DD_L2,2021.2.3,MacIntel,59.99880002,,,,,,,,,,,0.5037,1,,,,,,,,,,,,,,m,1,0.5037,,,,,,,,0.075555556,-0.397304687,0,0,0,,0,48,48,6,1,SQUARE,HB,old,m,./images/SQUAREHB.png,,,,,,,,,,,,,,,,,,,,,,
,,,,,,,,,,,,,,,,,198973,18,2022-01-28_23h57.20.248,lexical_decision_task_DD_L2,2021.2.3,MacIntel,59.99880002,,,,,,,,,,,0.5411,1,,,,,,,,,,,,,,m,1,0.5411,,,,,,,,0.075555556,-0.397304687,0,0,0,,0,49,49,63,1,MIRROR,HB,old,m,./images/MIRRORHB.png,,,,,,,,,,,,,,,,,,,,,,
,,,,,,,,,,,,,,,,,198973,18,2022-01-28_23h57.20.248,lexical_decision_task_DD_L2,2021.2.3,MacIntel,59.99880002,,,,,,,,,,,0.4831,1,,,,,,,,,,,,,,m,1,0.4831,,,,,,,,0.075555556,-0.397304687,0,0,0,,0,50,50,48,1,SPORT,HB,old,m,./images/SPORTHB.png,,,,,,,,,,,,,,,,,,,,,,
,,,,,,,,,,,,,,,,,198973,18,2022-01-28_23h57.20.248,lexical_decision_task_DD_L2,2021.2.3,MacIntel,59.99880002,,,,,,,,,,,0.5824,1,,,,,,,,,,,,,,z,1,0.5824,,,,,,,,0.075555556,-0.397304687,0,0,0,,0,51,51,116,1,BALGY,LB,old,z,./images/BALGYLB.png,,,,,,,,,,,,,,,,,,,,,,
,,,,,,,,,,,,,,,,,198973,18,2022-01-28_23h57.20.248,lexical_decision_task_DD_L2,2021.2.3,MacIntel,59.99880002,,,,,,,,,,,0.4812,1,,,,,,,,,,,,,,m,1,0.4812,,,,,,,,0.075555556,-0.397304687,0,0,0,,0,52,52,10,1,BELLY,LB,old,m,./images/BELLYLB.png,,,,,,,,,,,,,,,,,,,,,,
,,,,,,,,,,,,,,,,,198973,18,2022-01-28_23h57.20.248,lexical_decision_task_DD_L2,2021.2.3,MacIntel,59.99880002,,,,,,,,,,,0.5744,1,,,,,,,,,,,,,,z,1,0.5744,,,,,,,,0.075555556,-0.397304687,0,0,0,,0,53,53,108,1,GRUET,C,old,z,./images/GRUET.png,,,,,,,,,,,,,,,,,,,,,,
,,,,,,,,,,,,,,,,,198973,18,2022-01-28_23h57.20.248,lexical_decision_task_DD_L2,2021.2.3,MacIntel,59.99880002,,,,,,,,,,,1.1816,1,,,,,,,,,,,,,,z,1,1.1816,,,,,,,,0.075555556,-0.397304687,0,0,0,,0,54,54,87,1,TRING,C,old,z,./images/TRING.png,,,,,,,,,,,,,,,,,,,,,,
,,,,,,,,,,,,,,,,,198973,18,2022-01-28_23h57.20.248,lexical_decision_task_DD_L2,2021.2.3,MacIntel,59.99880002,,,,,,,,,,,0.9176,1,,,,,,,,,,,,,,z,1,0.9176,,,,,,,,0.075555556,-0.397304687,0,0,0,,0,55,55,142,1,PLASK,HB,old,z,./images/PLASKHB.png,,,,,,,,,,,,,,,,,,,,,,
,,,,,,,,,,,,,,,,,198973,18,2022-01-28_23h57.20.248,lexical_decision_task_DD_L2,2021.2.3,MacIntel,59.99880002,,,,,,,,,,,1.5036,1,,,,,,,,,,,,,,z,1,1.5036,,,,,,,,0.075555556,-0.397304687,0,0,0,,0,56,56,148,1,JOMS,HB,old,z,./images/JOMSHB.png,,,,,,,,,,,,,,,,,,,,,,
,,,,,,,,,,,,,,,,,198973,18,2022-01-28_23h57.20.248,lexical_decision_task_DD_L2,2021.2.3,MacIntel,59.99880002,,,,,,,,,,,0.5302,1,,,,,,,,,,,,,,m,1,0.5302,,,,,,,,0.075555556,-0.397304687,0,0,0,,0,57,57,8,1,TULIP,C,old,m,./images/TULIP.png,,,,,,,,,,,,,,,,,,,,,,
,,,,,,,,,,,,,,,,,198973,18,2022-01-28_23h57.20.248,lexical_decision_task_DD_L2,2021.2.3,MacIntel,59.99880002,,,,,,,,,,,0.6321,1,,,,,,,,,,,,,,z,1,0.6321,,,,,,,,0.075555556,-0.397304687,0,0,0,,0,58,58,105,1,MOKER,C,old,z,./images/MOKER.png,,,,,,,,,,,,,,,,,,,,,,
,,,,,,,,,,,,,,,,,198973,18,2022-01-28_23h57.20.248,lexical_decision_task_DD_L2,2021.2.3,MacIntel,59.99880002,,,,,,,,,,,0.716,1,,,,,,,,,,,,,,z,1,0.716,,,,,,,,0.075555556,-0.397304687,0,0,0,,0,59,59,86,1,AIFED,LB,old,z,./images/AIFEDLB.png,,,,,,,,,,,,,,,,,,,,,,
,,,,,,,,,,,,,,,,,198973,18,2022-01-28_23h57.20.248,lexical_decision_task_DD_L2,2021.2.3,MacIntel,59.99880002,,,,,,,,,,,0.5394,1,,,,,,,,,,,,,,z,1,0.5394,,,,,,,,0.075555556,-0.397304687,0,0,0,,0,60,60,165,1,TROWN,C,old,z,./images/TROWN.png,,,,,,,,,,,,,,,,,,,,,,
,,,,,,,,,,,,,,,,,198973,18,2022-01-28_23h57.20.248,lexical_decision_task_DD_L2,2021.2.3,MacIntel,59.99880002,,,,,,,,,,,0.6181,1,,,,,,,,,,,,,,z,1,0.6181,,,,,,,,0.075555556,-0.397304687,0,0,0,,0,61,61,147,1,ZOLES,C,old,z,./images/ZOLES.png,,,,,,,,,,,,,,,,,,,,,,
,,,,,,,,,,,,,,,,,198973,18,2022-01-28_23h57.20.248,lexical_decision_task_DD_L2,2021.2.3,MacIntel,59.99880002,,,,,,,,,,,0.6559,1,,,,,,,,,,,,,,z,1,0.6559,,,,,,,,0.075555556,-0.397304687,0,0,0,,0,62,62,96,1,KEAMS,C,old,z,./images/KEAMS.png,,,,,,,,,,,,,,,,,,,,,,
,,,,,,,,,,,,,,,,,198973,18,2022-01-28_23h57.20.248,lexical_decision_task_DD_L2,2021.2.3,MacIntel,59.99880002,,,,,,,,,,,0.4995,1,,,,,,,,,,,,,,z,1,0.4995,,,,,,,,0.075555556,-0.397304687,0,0,0,,0,63,63,102,1,DULLE,C,old,z,./images/DULLE.png,,,,,,,,,,,,,,,,,,,,,,
,,,,,,,,,,,,,,,,,198973,18,2022-01-28_23h57.20.248,lexical_decision_task_DD_L2,2021.2.3,MacIntel,59.99880002,,,,,,,,,,,0.6529,1,,,,,,,,,,,,,,z,1,0.6529,,,,,,,,0.075555556,-0.397304687,0,0,0,,0,64,64,119,1,PAFER,LB,old,z,./images/PAFERLB.png,,,,,,,,,,,,,,,,,,,,,,
,,,,,,,,,,,,,,,,,198973,18,2022-01-28_23h57.20.248,lexical_decision_task_DD_L2,2021.2.3,MacIntel,59.99880002,,,,,,,,,,,0.5215,1,,,,,,,,,,,,,,m,1,0.5215,,,,,,,,0.075555556,-0.397304687,0,0,0,,0,65,65,66,1,SWEAT,HB,old,m,./images/SWEATHB.png,,,,,,,,,,,,,,,,,,,,,,
,,,,,,,,,,,,,,,,,198973,18,2022-01-28_23h57.20.248,lexical_decision_task_DD_L2,2021.2.3,MacIntel,59.99880002,,,,,,,,,,,0.4357,1,,,,,,,,,,,,,,m,1,0.4357,,,,,,,,0.075555556,-0.397304687,0,0,0,,0,66,66,11,1,BONNET,C,old,m,./images/BONNET.png,,,,,,,,,,,,,,,,,,,,,,
,,,,,,,,,,,,,,,,,198973,18,2022-01-28_23h57.20.248,lexical_decision_task_DD_L2,2021.2.3,MacIntel,59.99880002,,,,,,,,,,,0.4342,1,,,,,,,,,,,,,,m,1,0.4342,,,,,,,,0.075555556,-0.397304687,0,0,0,,0,67,67,40,1,SWING,LB,old,m,./images/SWINGLB.png,,,,,,,,,,,,,,,,,,,,,,
,,,,,,,,,,,,,,,,,198973,18,2022-01-28_23h57.20.248,lexical_decision_task_DD_L2,2021.2.3,MacIntel,59.99880002,,,,,,,,,,,0.4706,1,,,,,,,,,,,,,,m,1,0.4706,,,,,,,,0.075555556,-0.397304687,0,0,0,,0,68,68,25,1,WRIST,LB,old,m,./images/WRISTLB.png,,,,,,,,,,,,,,,,,,,,,,
,,,,,,,,,,,,,,,,,198973,18,2022-01-28_23h57.20.248,lexical_decision_task_DD_L2,2021.2.3,MacIntel,59.99880002,,,,,,,,,,,0.8837,1,,,,,,,,,,,,,,z,1,0.8837,,,,,,,,0.075555556,-0.397304687,0,0,0,,0,69,69,133,1,POWDY,HB,old,z,./images/POWDYHB.png,,,,,,,,,,,,,,,,,,,,,,
,,,,,,,,,,,,,,,,,198973,18,2022-01-28_23h57.20.248,lexical_decision_task_DD_L2,2021.2.3,MacIntel,59.99880002,,,,,,,,,,,0.4075,1,,,,,,,,,,,,,,m,1,0.4075,,,,,,,,0.075555556,-0.397304687,0,0,0,,0,70,70,83,1,JUNGLE,C,old,m,./images/JUNGLE.png,,,,,,,,,,,,,,,,,,,,,,
,,,,,,,,,,,,,,,,,198973,18,2022-01-28_23h57.20.248,lexical_decision_task_DD_L2,2021.2.3,MacIntel,59.99880002,,,,,,,,,,,0.5071,0,,,,,,,,,,,,,,z,0,0.5071,,,,,,,,0.075555556,-0.397304687,0,0,0,,0,71,71,0,1,TOMATO,HB,old,m,./images/TOMATOHB.png,,,,,,,,,,,,,,,,,,,,,,
,,,,,,,,,,,,,,,,,198973,18,2022-01-28_23h57.20.248,lexical_decision_task_DD_L2,2021.2.3,MacIntel,59.99880002,,,,,,,,,,,0.6567,1,,,,,,,,,,,,,,z,1,0.6567,,,,,,,,0.075555556,-0.397304687,0,0,0,,0,72,72,117,1,STEEG,C,old,z,./images/STEEG.png,,,,,,,,,,,,,,,,,,,,,,
,,,,,,,,,,,,,,,,,198973,18,2022-01-28_23h57.20.248,lexical_decision_task_DD_L2,2021.2.3,MacIntel,59.99880002,,,,,,,,,,,0.5284,1,,,,,,,,,,,,,,m,1,0.5284,,,,,,,,0.075555556,-0.397304687,0,0,0,,0,73,73,65,1,FARMER,C,old,m,./images/FARMER.png,,,,,,,,,,,,,,,,,,,,,,
,,,,,,,,,,,,,,,,,198973,18,2022-01-28_23h57.20.248,lexical_decision_task_DD_L2,2021.2.3,MacIntel,59.99880002,,,,,,,,,,,0.6414,1,,,,,,,,,,,,,,z,1,0.6414,,,,,,,,0.075555556,-0.397304687,0,0,0,,0,74,74,167,1,ZONET,LB,old,z,./images/ZONETLB.png,,,,,,,,,,,,,,,,,,,,,,
,,,,,,,,,,,,,,,,,198973,18,2022-01-28_23h57.20.248,lexical_decision_task_DD_L2,2021.2.3,MacIntel,59.99880002,,,,,,,,,,,1.1715,1,,,,,,,,,,,,,,z,1,1.1715,,,,,,,,0.075555556,-0.397304687,0,0,0,,0,75,75,128,1,GRIFT,LB,old,z,./images/GRIFTLB.png,,,,,,,,,,,,,,,,,,,,,,
,,,,,,,,,,,,,,,,,198973,18,2022-01-28_23h57.20.248,lexical_decision_task_DD_L2,2021.2.3,MacIntel,59.99880002,,,,,,,,,,,0.7145,1,,,,,,,,,,,,,,z,1,0.7145,,,,,,,,0.075555556,-0.397304687,0,0,0,,0,76,76,104,1,GITTY,LB,old,z,./images/GITTYLB.png,,,,,,,,,,,,,,,,,,,,,,
,,,,,,,,,,,,,,,,,198973,18,2022-01-28_23h57.20.248,lexical_decision_task_DD_L2,2021.2.3,MacIntel,59.99880002,,,,,,,,,,,0.4908,1,,,,,,,,,,,,,,m,1,0.4908,,,,,,,,0.075555556,-0.397304687,0,0,0,,0,77,77,29,1,CRUMB,C,old,m,./images/CRUMB.png,,,,,,,,,,,,,,,,,,,,,,
,,,,,,,,,,,,,,,,,198973,18,2022-01-28_23h57.20.248,lexical_decision_task_DD_L2,2021.2.3,MacIntel,59.99880002,,,,,,,,,,,0.6666,0,,,,,,,,,,,,,,m,0,0.6666,,,,,,,,0.075555556,-0.397304687,0,0,0,,0,78,78,121,1,CEERS,HB,old,z,./images/CEERSHB.png,,,,,,,,,,,,,,,,,,,,,,
,,,,,,,,,,,,,,,,,198973,18,2022-01-28_23h57.20.248,lexical_decision_task_DD_L2,2021.2.3,MacIntel,59.99880002,,,,,,,,,,,0.6176,0,,,,,,,,,,,,,,m,0,0.6176,,,,,,,,0.075555556,-0.397304687,0,0,0,,0,79,79,103,1,FLORT,HB,old,z,./images/FLORTHB.png,,,,,,,,,,,,,,,,,,,,,,
,,,,,,,,,,,,,,,,,198973,18,2022-01-28_23h57.20.248,lexical_decision_task_DD_L2,2021.2.3,MacIntel,59.99880002,,,,,,,,,,,0.5192,1,,,,,,,,,,,,,,m,1,0.5192,,,,,,,,0.075555556,-0.397304687,0,0,0,,0,80,80,59,1,BURIAL,C,old,m,./images/BURIAL.png,,,,,,,,,,,,,,,,,,,,,,
,,,,,,,,,,,,,,,,,198973,18,2022-01-28_23h57.20.248,lexical_decision_task_DD_L2,2021.2.3,MacIntel,59.99880002,,,,,,,,,,,0.6174,1,,,,,,,,,,,,,,m,1,0.6174,,,,,,,,0.075555556,-0.397304687,0,0,0,,0,81,81,22,1,MELON,LB,old,m,./images/MELONLB.png,,,,,,,,,,,,,,,,,,,,,,
,,,,,,,,,,,,,,,,,198973,18,2022-01-28_23h57.20.248,lexical_decision_task_DD_L2,2021.2.3,MacIntel,59.99880002,,,,,,,,,,,0.4863,1,,,,,,,,,,,,,,m,1,0.4863,,,,,,,,0.075555556,-0.397304687,0,0,0,,0,82,82,47,1,BERRY,C,old,m,./images/BERRY.png,,,,,,,,,,,,,,,,,,,,,,
,,,,,,,,,,,,,,,,,198973,18,2022-01-28_23h57.20.248,lexical_decision_task_DD_L2,2021.2.3,MacIntel,59.99880002,,,,,,,,,,,0.6712,1,,,,,,,,,,,,,,z,1,0.6712,,,,,,,,0.075555556,-0.397304687,0,0,0,space,0,83,83,131,1,NACES,LB,old,z,./images/NACESLB.png,0.987,,,,,,,,,,,,,,,,,,,,,
,,,,,,,,,,,,,,,,,198973,18,2022-01-28_23h57.20.248,lexical_decision_task_DD_L2,2021.2.3,MacIntel,59.99880002,,,,,,,,,,,0.8165,1,,,,,,,,,,,,,,z,1,0.8165,,,,,,,,0.075555556,-0.397304687,0,0,0,,0,84,84,139,1,BLEAR,HB,old,z,./images/BLEARHB.png,,,,,,,,,,,,,,,,,,,,,,
,,,,,,,,,,,,,,,,,198973,18,2022-01-28_23h57.20.248,lexical_decision_task_DD_L2,2021.2.3,MacIntel,59.99880002,,,,,,,,,,,0.4959,1,,,,,,,,,,,,,,m,1,0.4959,,,,,,,,0.075555556,-0.397304687,0,0,0,,0,85,85,58,1,BABOON,LB,old,m,./images/BABOONLB.png,,,,,,,,,,,,,,,,,,,,,,
,,,,,,,,,,,,,,,,,198973,18,2022-01-28_23h57.20.248,lexical_decision_task_DD_L2,2021.2.3,MacIntel,59.99880002,,,,,,,,,,,0.5725,1,,,,,,,,,,,,,,z,1,0.5725,,,,,,,,0.075555556,-0.397304687,0,0,0,,0,86,86,159,1,CUDDY,C,old,z,./images/CUDDY.png,,,,,,,,,,,,,,,,,,,,,,
,,,,,,,,,,,,,,,,,198973,18,2022-01-28_23h57.20.248,lexical_decision_task_DD_L2,2021.2.3,MacIntel,59.99880002,,,,,,,,,,,0.7215,1,,,,,,,,,,,,,,z,1,0.7215,,,,,,,,0.075555556,-0.397304687,0,0,0,,0,87,87,156,1,HIXES,C,old,z,./images/HIXES.png,,,,,,,,,,,,,,,,,,,,,,
,,,,,,,,,,,,,,,,,198973,18,2022-01-28_23h57.20.248,lexical_decision_task_DD_L2,2021.2.3,MacIntel,59.99880002,,,,,,,,,,,0.6517,1,,,,,,,,,,,,,,z,1,0.6517,,,,,,,,0.075555556,-0.397304687,0,0,0,,0,88,88,110,1,CRUNK,LB,old,z,./images/CRUNKLB.png,,,,,,,,,,,,,,,,,,,,,,
,,,,,,,,,,,,,,,,,198973,18,2022-01-28_23h57.20.248,lexical_decision_task_DD_L2,2021.2.3,MacIntel,59.99880002,,,,,,,,,,,0.8145,1,,,,,,,,,,,,,,z,1,0.8145,,,,,,,,0.075555556,-0.397304687,0,0,0,,0,89,89,160,1,VEETS,HB,old,z,./images/VEETSHB.png,,,,,,,,,,,,,,,,,,,,,,
,,,,,,,,,,,,,,,,,198973,18,2022-01-28_23h57.20.248,lexical_decision_task_DD_L2,2021.2.3,MacIntel,59.99880002,,,,,,,,,,,0.599,1,,,,,,,,,,,,,,m,1,0.599,,,,,,,,0.075555556,-0.397304687,0,0,0,,0,90,90,36,1,THROAT,HB,old,m,./images/THROATHB.png,,,,,,,,,,,,,,,,,,,,,,
,,,,,,,,,,,,,,,,,198973,18,2022-01-28_23h57.20.248,lexical_decision_task_DD_L2,2021.2.3,MacIntel,59.99880002,,,,,,,,,,,0.5653,1,,,,,,,,,,,,,,m,1,0.5653,,,,,,,,0.075555556,-0.397304687,0,0,0,,0,91,91,45,1,KITTEN,HB,old,m,./images/KITTENHB.png,,,,,,,,,,,,,,,,,,,,,,
,,,,,,,,,,,,,,,,,198973,18,2022-01-28_23h57.20.248,lexical_decision_task_DD_L2,2021.2.3,MacIntel,59.99880002,,,,,,,,,,,0.6603,1,,,,,,,,,,,,,,z,1,0.6603,,,,,,,,0.075555556,-0.397304687,0,0,0,,0,92,92,99,1,BACKY,C,old,z,./images/BACKY.png,,,,,,,,,,,,,,,,,,,,,,
,,,,,,,,,,,,,,,,,198973,18,2022-01-28_23h57.20.248,lexical_decision_task_DD_L2,2021.2.3,MacIntel,59.99880002,,,,,,,,,,,0.4888,0,,,,,,,,,,,,,,m,0,0.4888,,,,,,,,0.075555556,-0.397304687,0,0,0,,0,93,93,125,1,MOOKY,LB,old,z,./images/MOOKYLB.png,,,,,,,,,,,,,,,,,,,,,,
,,,,,,,,,,,,,,,,,198973,18,2022-01-28_23h57.20.248,lexical_decision_task_DD_L2,2021.2.3,MacIntel,59.99880002,,,,,,,,,,,0.671,1,,,,,,,,,,,,,,z,1,0.671,,,,,,,,0.075555556,-0.397304687,0,0,0,,0,94,94,150,1,NOOLS,C,old,z,./images/NOOLS.png,,,,,,,,,,,,,,,,,,,,,,
,,,,,,,,,,,,,,,,,198973,18,2022-01-28_23h57.20.248,lexical_decision_task_DD_L2,2021.2.3,MacIntel,59.99880002,,,,,,,,,,,0.6151,1,,,,,,,,,,,,,,z,1,0.6151,,,,,,,,0.075555556,-0.397304687,0,0,0,,0,95,95,95,1,HANTY,LB,old,z,./images/HANTYLB.png,,,,,,,,,,,,,,,,,,,,,,
,,,,,,,,,,,,,,,,,198973,18,2022-01-28_23h57.20.248,lexical_decision_task_DD_L2,2021.2.3,MacIntel,59.99880002,,,,,,,,,,,0.6296,1,,,,,,,,,,,,,,m,1,0.6296,,,,,,,,0.075555556,-0.397304687,0,0,0,,0,96,96,20,1,CRADLE,C,old,m,./images/CRADLE.png,,,,,,,,,,,,,,,,,,,,,,
,,,,,,,,,,,,,,,,,198973,18,2022-01-28_23h57.20.248,lexical_decision_task_DD_L2,2021.2.3,MacIntel,59.99880002,,,,,,,,,,,0.581,1,,,,,,,,,,,,,,m,1,0.581,,,,,,,,0.075555556,-0.397304687,0,0,0,,0,97,97,18,1,JAGUAR,HB,old,m,./images/JAGUARHB.png,,,,,,,,,,,,,,,,,,,,,,
,,,,,,,,,,,,,,,,,198973,18,2022-01-28_23h57.20.248,lexical_decision_task_DD_L2,2021.2.3,MacIntel,59.99880002,,,,,,,,,,,0.6746,1,,,,,,,,,,,,,,m,1,0.6746,,,,,,,,0.075555556,-0.397304687,0,0,0,,0,98,98,15,1,GREASE,HB,old,m,./images/GREASEHB.png,,,,,,,,,,,,,,,,,,,,,,
,,,,,,,,,,,,,,,,,198973,18,2022-01-28_23h57.20.248,lexical_decision_task_DD_L2,2021.2.3,MacIntel,59.99880002,,,,,,,,,,,0.5716,1,,,,,,,,,,,,,,m,1,0.5716,,,,,,,,0.075555556,-0.397304687,0,0,0,,0,99,99,9,1,RHINO,HB,old,m,./images/RHINOHB.png,,,,,,,,,,,,,,,,,,,,,,
,,,,,,,,,,,,,,,,,198973,18,2022-01-28_23h57.20.248,lexical_decision_task_DD_L2,2021.2.3,MacIntel,59.99880002,,,,,,,,,,,0.5423,1,,,,,,,,,,,,,,z,1,0.5423,,,,,,,,0.075555556,-0.397304687,0,0,0,,0,100,100,123,1,SEDGE,C,old,z,./images/SEDGE.png,,,,,,,,,,,,,,,,,,,,,,
,,,,,,,,,,,,,,,,,198973,18,2022-01-28_23h57.20.248,lexical_decision_task_DD_L2,2021.2.3,MacIntel,59.99880002,,,,,,,,,,,1.4441,0,,,,,,,,,,,,,,m,0,1.4441,,,,,,,,0.075555556,-0.397304687,0,0,0,,0,101,101,141,1,PLEET,C,old,z,./images/PLEET.png,,,,,,,,,,,,,,,,,,,,,,
,,,,,,,,,,,,,,,,,198973,18,2022-01-28_23h57.20.248,lexical_decision_task_DD_L2,2021.2.3,MacIntel,59.99880002,,,,,,,,,,,1.8457,1,,,,,,,,,,,,,,z,1,1.8457,,,,,,,,0.075555556,-0.397304687,0,0,0,,0,102,102,136,1,WERVE,HB,old,z,./images/WERVEHB.png,,,,,,,,,,,,,,,,,,,,,,
,,,,,,,,,,,,,,,,,198973,18,2022-01-28_23h57.20.248,lexical_decision_task_DD_L2,2021.2.3,MacIntel,59.99880002,,,,,,,,,,,0.5802,1,,,,,,,,,,,,,,m,1,0.5802,,,,,,,,0.075555556,-0.397304687,0,0,0,,0,103,103,61,1,CANDLE,LB,old,m,./images/CANDLELB.png,,,,,,,,,,,,,,,,,,,,,,
,,,,,,,,,,,,,,,,,198973,18,2022-01-28_23h57.20.248,lexical_decision_task_DD_L2,2021.2.3,MacIntel,59.99880002,,,,,,,,,,,0.5076,1,,,,,,,,,,,,,,m,1,0.5076,,,,,,,,0.075555556,-0.397304687,0,0,0,,0,104,104,32,1,BARREL,C,old,m,./images/BARREL.png,,,,,,,,,,,,,,,,,,,,,,
,,,,,,,,,,,,,,,,,198973,18,2022-01-28_23h57.20.248,lexical_decision_task_DD_L2,2021.2.3,MacIntel,59.99880002,,,,,,,,,,,0.7222,1,,,,,,,,,,,,,,z,1,0.7222,,,,,,,,0.075555556,-0.397304687,0,0,0,,0,105,105,111,1,HOSSE,C,old,z,./images/HOSSE.png,,,,,,,,,,,,,,,,,,,,,,
,,,,,,,,,,,,,,,,,198973,18,2022-01-28_23h57.20.248,lexical_decision_task_DD_L2,2021.2.3,MacIntel,59.99880002,,,,,,,,,,,1.5751,1,,,,,,,,,,,,,,z,1,1.5751,,,,,,,,0.075555556,-0.397304687,0,0,0,,0,106,106,134,1,TROSS,LB,old,z,./images/TROSSLB.png,,,,,,,,,,,,,,,,,,,,,,
,,,,,,,,,,,,,,,,,198973,18,2022-01-28_23h57.20.248,lexical_decision_task_DD_L2,2021.2.3,MacIntel,59.99880002,,,,,,,,,,,0.7314,1,,,,,,,,,,,,,,z,1,0.7314,,,,,,,,0.075555556,-0.397304687,0,0,0,,0,107,107,89,1,DRIEK,LB,old,z,./images/DRIEKLB.png,,,,,,,,,,,,,,,,,,,,,,
,,,,,,,,,,,,,,,,,198973,18,2022-01-28_23h57.20.248,lexical_decision_task_DD_L2,2021.2.3,MacIntel,59.99880002,,,,,,,,,,,1.9154,0,,,,,,,,,,,,,,m,0,1.9154,,,,,,,,0.075555556,-0.397304687,0,0,0,,0,108,108,149,1,VEASE,LB,old,z,./images/VEASELB.png,,,,,,,,,,,,,,,,,,,,,,
,,,,,,,,,,,,,,,,,198973,18,2022-01-28_23h57.20.248,lexical_decision_task_DD_L2,2021.2.3,MacIntel,59.99880002,,,,,,,,,,,1.2719,1,,,,,,,,,,,,,,m,1,1.2719,,,,,,,,0.075555556,-0.397304687,0,0,0,,0,109,109,69,1,COOKER,HB,old,m,./images/COOKERHB.png,,,,,,,,,,,,,,,,,,,,,,
,,,,,,,,,,,,,,,,,198973,18,2022-01-28_23h57.20.248,lexical_decision_task_DD_L2,2021.2.3,MacIntel,59.99880002,,,,,,,,,,,0.4086,1,,,,,,,,,,,,,,m,1,0.4086,,,,,,,,0.075555556,-0.397304687,0,0,0,,0,110,110,5,1,PASTA,C,old,m,./images/PASTA.png,,,,,,,,,,,,,,,,,,,,,,
,,,,,,,,,,,,,,,,,198973,18,2022-01-28_23h57.20.248,lexical_decision_task_DD_L2,2021.2.3,MacIntel,59.99880002,,,,,,,,,,,1.1225,1,,,,,,,,,,,,,,z,1,1.1225,,,,,,,,0.075555556,-0.397304687,0,0,0,,0,111,111,162,1,LEICH,C,old,z,./images/LEICH.png,,,,,,,,,,,,,,,,,,,,,,
,,,,,,,,,,,,,,,,,198973,18,2022-01-28_23h57.20.248,lexical_decision_task_DD_L2,2021.2.3,MacIntel,59.99880002,,,,,,,,,,,0.5659,1,,,,,,,,,,,,,,m,1,0.5659,,,,,,,,0.075555556,-0.397304687,0,0,0,,0,112,112,52,1,BANNER,LB,old,m,./images/BANNERLB.png,,,,,,,,,,,,,,,,,,,,,,
,,,,,,,,,,,,,,,,,198973,18,2022-01-28_23h57.20.248,lexical_decision_task_DD_L2,2021.2.3,MacIntel,59.99880002,,,,,,,,,,,0.9459,1,,,,,,,,,,,,,,m,1,0.9459,,,,,,,,0.075555556,-0.397304687,0,0,0,,0,113,113,34,1,CANYON,LB,old,m,./images/CANYONLB.png,,,,,,,,,,,,,,,,,,,,,,
,,,,,,,,,,,,,,,,,198973,18,2022-01-28_23h57.20.248,lexical_decision_task_DD_L2,2021.2.3,MacIntel,59.99880002,,,,,,,,,,,0.6328,1,,,,,,,,,,,,,,z,1,0.6328,,,,,,,,0.075555556,-0.397304687,0,0,0,,0,114,114,158,1,EGECT,LB,old,z,./images/EGECTLB.png,,,,,,,,,,,,,,,,,,,,,,
,,,,,,,,,,,,,,,,,198973,18,2022-01-28_23h57.20.248,lexical_decision_task_DD_L2,2021.2.3,MacIntel,59.99880002,,,,,,,,,,,0.7347,1,,,,,,,,,,,,,,m,1,0.7347,,,,,,,,0.075555556,-0.397304687,0,0,0,,0,115,115,31,1,QUILL,LB,old,m,./images/QUILLLB.png,,,,,,,,,,,,,,,,,,,,,,
,,,,,,,,,,,,,,,,,198973,18,2022-01-28_23h57.20.248,lexical_decision_task_DD_L2,2021.2.3,MacIntel,59.99880002,,,,,,,,,,,0.6414,1,,,,,,,,,,,,,,z,1,0.6414,,,,,,,,0.075555556,-0.397304687,0,0,0,,0,116,116,155,1,CANGY,LB,old,z,./images/CANGYLB.png,,,,,,,,,,,,,,,,,,,,,,
,,,,,,,,,,,,,,,,,198973,18,2022-01-28_23h57.20.248,lexical_decision_task_DD_L2,2021.2.3,MacIntel,59.99880002,,,,,,,,,,,0.7337,1,,,,,,,,,,,,,,m,1,0.7337,,,,,,,,0.075555556,-0.397304687,0,0,0,,0,117,117,64,1,JELLY,LB,old,m,./images/JELLYLB.png,,,,,,,,,,,,,,,,,,,,,,
,,,,,,,,,,,,,,,,,198973,18,2022-01-28_23h57.20.248,lexical_decision_task_DD_L2,2021.2.3,MacIntel,59.99880002,,,,,,,,,,,0.491,1,,,,,,,,,,,,,,m,1,0.491,,,,,,,,0.075555556,-0.397304687,0,0,0,,0,118,118,68,1,TORCH,C,old,m,./images/TORCH.png,,,,,,,,,,,,,,,,,,,,,,
,,,,,,,,,,,,,,,,,198973,18,2022-01-28_23h57.20.248,lexical_decision_task_DD_L2,2021.2.3,MacIntel,59.99880002,,,,,,,,,,,0.4805,1,,,,,,,,,,,,,,m,1,0.4805,,,,,,,,0.075555556,-0.397304687,0,0,0,,0,119,119,38,1,LADDER,C,old,m,./images/LADDER.png,,,,,,,,,,,,,,,,,,,,,,
,,,,,,,,,,,,,,,,,198973,18,2022-01-28_23h57.20.248,lexical_decision_task_DD_L2,2021.2.3,MacIntel,59.99880002,,,,,,,,,,,0.6224,1,,,,,,,,,,,,,,z,1,0.6224,,,,,,,,0.075555556,-0.397304687,0,0,0,,0,120,120,107,1,FASKS,LB,old,z,./images/FASKSLB.png,,,,,,,,,,,,,,,,,,,,,,
,,,,,,,,,,,,,,,,,198973,18,2022-01-28_23h57.20.248,lexical_decision_task_DD_L2,2021.2.3,MacIntel,59.99880002,,,,,,,,,,,0.546,1,,,,,,,,,,,,,,m,1,0.546,,,,,,,,0.075555556,-0.397304687,0,0,0,,0,121,121,4,1,MUSCLE,LB,old,m,./images/MUSCLELB.png,,,,,,,,,,,,,,,,,,,,,,
,,,,,,,,,,,,,,,,,198973,18,2022-01-28_23h57.20.248,lexical_decision_task_DD_L2,2021.2.3,MacIntel,59.99880002,,,,,,,,,,,0.9497,1,,,,,,,,,,,,,,m,1,0.9497,,,,,,,,0.075555556,-0.397304687,0,0,0,,0,122,122,72,1,NOOSE,HB,old,m,./images/NOOSEHB.png,,,,,,,,,,,,,,,,,,,,,,
,,,,,,,,,,,,,,,,,198973,18,2022-01-28_23h57.20.248,lexical_decision_task_DD_L2,2021.2.3,MacIntel,59.99880002,,,,,,,,,,,0.6728,1,,,,,,,,,,,,,,z,1,0.6728,,,,,,,,0.075555556,-0.397304687,0,0,0,,0,123,123,135,1,JOODY,C,old,z,./images/JOODY.png,,,,,,,,,,,,,,,,,,,,,,
,,,,,,,,,,,,,,,,,198973,18,2022-01-28_23h57.20.248,lexical_decision_task_DD_L2,2021.2.3,MacIntel,59.99880002,,,,,,,,,,,0.6634,1,,,,,,,,,,,,,,z,1,0.6634,,,,,,,,0.075555556,-0.397304687,0,0,0,,0,124,124,126,1,GUELS,C,old,z,./images/GUELS.png,,,,,,,,,,,,,,,,,,,,,,
,,,,,,,,,,,,,,,,,198973,18,2022-01-28_23h57.20.248,lexical_decision_task_DD_L2,2021.2.3,MacIntel,59.99880002,,,,,,,,,,,1.8648,1,,,,,,,,,,,,,,z,1,1.8648,,,,,,,,0.075555556,-0.397304687,0,0,0,space,0,125,125,151,1,TINKY,HB,old,z,./images/TINKYHB.png,0.8268,,,,,,,,,,,,,,,,,,,,,
,,,,,,,,,,,,,,,,,198973,18,2022-01-28_23h57.20.248,lexical_decision_task_DD_L2,2021.2.3,MacIntel,59.99880002,,,,,,,,,,,1.6253,1,,,,,,,,,,,,,,z,1,1.6253,,,,,,,,0.075555556,-0.397304687,0,0,0,,0,126,126,112,1,MYING,HB,old,z,./images/MYINGHB.png,,,,,,,,,,,,,,,,,,,,,,
,,,,,,,,,,,,,,,,,198973,18,2022-01-28_23h57.20.248,lexical_decision_task_DD_L2,2021.2.3,MacIntel,59.99880002,,,,,,,,,,,0.6455,1,,,,,,,,,,,,,,m,1,0.6455,,,,,,,,0.075555556,-0.397304687,0,0,0,,0,127,127,54,1,TRIPOD,HB,old,m,./images/TRIPODHB.png,,,,,,,,,,,,,,,,,,,,,,
,,,,,,,,,,,,,,,,,198973,18,2022-01-28_23h57.20.248,lexical_decision_task_DD_L2,2021.2.3,MacIntel,59.99880002,,,,,,,,,,,0.4087,1,,,,,,,,,,,,,,m,1,0.4087,,,,,,,,0.075555556,-0.397304687,0,0,0,,0,128,128,62,1,PURSE,C,old,m,./images/PURSE.png,,,,,,,,,,,,,,,,,,,,,,
,,,,,,,,,,,,,,,,,198973,18,2022-01-28_23h57.20.248,lexical_decision_task_DD_L2,2021.2.3,MacIntel,59.99880002,,,,,,,,,,,0.5036,1,,,,,,,,,,,,,,m,1,0.5036,,,,,,,,0.075555556,-0.397304687,0,0,0,,0,129,129,74,1,CEMENT,C,old,m,./images/CEMENT.png,,,,,,,,,,,,,,,,,,,,,,
,,,,,,,,,,,,,,,,,198973,18,2022-01-28_23h57.20.248,lexical_decision_task_DD_L2,2021.2.3,MacIntel,59.99880002,,,,,,,,,,,0.4309,0,,,,,,,,,,,,,,m,0,0.4309,,,,,,,,0.075555556,-0.397304687,0,0,0,,0,130,130,146,1,MOOST,LB,old,z,./images/MOOSTLB.png,,,,,,,,,,,,,,,,,,,,,,
,,,,,,,,,,,,,,,,,198973,18,2022-01-28_23h57.20.248,lexical_decision_task_DD_L2,2021.2.3,MacIntel,59.99880002,,,,,,,,,,,0.4566,1,,,,,,,,,,,,,,m,1,0.4566,,,,,,,,0.075555556,-0.397304687,0,0,0,,0,131,131,14,1,PICKLE,C,old,m,./images/PICKLE.png,,,,,,,,,,,,,,,,,,,,,,
,,,,,,,,,,,,,,,,,198973,18,2022-01-28_23h57.20.248,lexical_decision_task_DD_L2,2021.2.3,MacIntel,59.99880002,,,,,,,,,,,0.6581,1,,,,,,,,,,,,,,m,1,0.6581,,,,,,,,0.075555556,-0.397304687,0,0,0,,0,132,132,1,1,PLANK,LB,old,m,./images/PLANKLB.png,,,,,,,,,,,,,,,,,,,,,,
,,,,,,,,,,,,,,,,,198973,18,2022-01-28_23h57.20.248,lexical_decision_task_DD_L2,2021.2.3,MacIntel,59.99880002,,,,,,,,,,,0.6696,1,,,,,,,,,,,,,,z,1,0.6696,,,,,,,,0.075555556,-0.397304687,0,0,0,,0,133,133,90,1,NEAST,C,old,z,./images/NEAST.png,,,,,,,,,,,,,,,,,,,,,,
,,,,,,,,,,,,,,,,,198973,18,2022-01-28_23h57.20.248,lexical_decision_task_DD_L2,2021.2.3,MacIntel,59.99880002,,,,,,,,,,,1.2157,1,,,,,,,,,,,,,,z,1,1.2157,,,,,,,,0.075555556,-0.397304687,0,0,0,,0,134,134,115,1,MAWNS,HB,old,z,./images/MAWNSHB.png,,,,,,,,,,,,,,,,,,,,,,
,,,,,,,,,,,,,,,,,198973,18,2022-01-28_23h57.20.248,lexical_decision_task_DD_L2,2021.2.3,MacIntel,59.99880002,,,,,,,,,,,1.6404,1,,,,,,,,,,,,,,z,1,1.6404,,,,,,,,0.075555556,-0.397304687,0,0,0,,0,135,135,130,1,CRILL,HB,old,z,./images/CRILLHB.png,,,,,,,,,,,,,,,,,,,,,,
,,,,,,,,,,,,,,,,,198973,18,2022-01-28_23h57.20.248,lexical_decision_task_DD_L2,2021.2.3,MacIntel,59.99880002,,,,,,,,,,,0.5211,1,,,,,,,,,,,,,,m,1,0.5211,,,,,,,,0.075555556,-0.397304687,0,0,0,,0,136,136,37,1,BIRTH,LB,old,m,./images/BIRTHLB.png,,,,,,,,,,,,,,,,,,,,,,
,,,,,,,,,,,,,,,,,198973,18,2022-01-28_23h57.20.248,lexical_decision_task_DD_L2,2021.2.3,MacIntel,59.99880002,,,,,,,,,,,0.4661,1,,,,,,,,,,,,,,m,1,0.4661,,,,,,,,0.075555556,-0.397304687,0,0,0,,0,137,137,13,1,MOTOR,LB,old,m,./images/MOTORLB.png,,,,,,,,,,,,,,,,,,,,,,
,,,,,,,,,,,,,,,,,198973,18,2022-01-28_23h57.20.248,lexical_decision_task_DD_L2,2021.2.3,MacIntel,59.99880002,,,,,,,,,,,0.5427,1,,,,,,,,,,,,,,m,1,0.5427,,,,,,,,0.075555556,-0.397304687,0,0,0,,0,138,138,44,1,LIZARD,C,old,m,./images/LIZARD.png,,,,,,,,,,,,,,,,,,,,,,
,,,,,,,,,,,,,,,,,198973,18,2022-01-28_23h57.20.248,lexical_decision_task_DD_L2,2021.2.3,MacIntel,59.99880002,,,,,,,,,,,0.599,1,,,,,,,,,,,,,,m,1,0.599,,,,,,,,0.075555556,-0.397304687,0,0,0,,0,139,139,3,1,FINGER,HB,old,m,./images/FINGERHB.png,,,,,,,,,,,,,,,,,,,,,,
,,,,,,,,,,,,,,,,,198973,18,2022-01-28_23h57.20.248,lexical_decision_task_DD_L2,2021.2.3,MacIntel,59.99880002,,,,,,,,,,,0.5145,1,,,,,,,,,,,,,,m,1,0.5145,,,,,,,,0.075555556,-0.397304687,0,0,0,,0,140,140,82,1,SUNSET,LB,old,m,./images/SUNSETLB.png,,,,,,,,,,,,,,,,,,,,,,
,,,,,,,,,,,,,,,,,198973,18,2022-01-28_23h57.20.248,lexical_decision_task_DD_L2,2021.2.3,MacIntel,59.99880002,,,,,,,,,,,0.7482,1,,,,,,,,,,,,,,z,1,0.7482,,,,,,,,0.075555556,-0.397304687,0,0,0,,0,141,141,143,1,MONGS,LB,old,z,./images/MONGSLB.png,,,,,,,,,,,,,,,,,,,,,,
,,,,,,,,,,,,,,,,,198973,18,2022-01-28_23h57.20.248,lexical_decision_task_DD_L2,2021.2.3,MacIntel,59.99880002,,,,,,,,,,,0.6823,1,,,,,,,,,,,,,,z,1,0.6823,,,,,,,,0.075555556,-0.397304687,0,0,0,,0,142,142,140,1,DOVET,LB,old,z,./images/DOVETLB.png,,,,,,,,,,,,,,,,,,,,,,
,,,,,,,,,,,,,,,,,198973,18,2022-01-28_23h57.20.248,lexical_decision_task_DD_L2,2021.2.3,MacIntel,59.99880002,,,,,,,,,,,1.7913,1,,,,,,,,,,,,,,z,1,1.7913,,,,,,,,0.075555556,-0.397304687,0,0,0,,0,143,143,163,1,GAMBA,HB,old,z,./images/GAMBAHB.png,,,,,,,,,,,,,,,,,,,,,,
,,,,,,,,,,,,,,,,,198973,18,2022-01-28_23h57.20.248,lexical_decision_task_DD_L2,2021.2.3,MacIntel,59.99880002,,,,,,,,,,,0.534,1,,,,,,,,,,,,,,m,1,0.534,,,,,,,,0.075555556,-0.397304687,0,0,0,,0,144,144,7,1,PAINT,LB,old,m,./images/PAINTLB.png,,,,,,,,,,,,,,,,,,,,,,
,,,,,,,,,,,,,,,,,198973,18,2022-01-28_23h57.20.248,lexical_decision_task_DD_L2,2021.2.3,MacIntel,59.99880002,,,,,,,,,,,0.5163,1,,,,,,,,,,,,,,m,1,0.5163,,,,,,,,0.075555556,-0.397304687,0,0,0,,0,145,145,55,1,MUFFIN,LB,old,m,./images/MUFFINLB.png,,,,,,,,,,,,,,,,,,,,,,
,,,,,,,,,,,,,,,,,198973,18,2022-01-28_23h57.20.248,lexical_decision_task_DD_L2,2021.2.3,MacIntel,59.99880002,,,,,,,,,,,1.132,1,,,,,,,,,,,,,,z,1,1.132,,,,,,,,0.075555556,-0.397304687,0,0,0,,0,146,146,88,1,GLUSH,HB,old,z,./images/GLUSHHB.png,,,,,,,,,,,,,,,,,,,,,,
,,,,,,,,,,,,,,,,,198973,18,2022-01-28_23h57.20.248,lexical_decision_task_DD_L2,2021.2.3,MacIntel,59.99880002,,,,,,,,,,,0.4809,1,,,,,,,,,,,,,,m,1,0.4809,,,,,,,,0.075555556,-0.397304687,0,0,0,,0,147,147,71,1,PIMPLE,C,old,m,./images/PIMPLE.png,,,,,,,,,,,,,,,,,,,,,,
,,,,,,,,,,,,,,,,,198973,18,2022-01-28_23h57.20.248,lexical_decision_task_DD_L2,2021.2.3,MacIntel,59.99880002,,,,,,,,,,,1.8675,1,,,,,,,,,,,,,,z,1,1.8675,,,,,,,,0.075555556,-0.397304687,0,0,0,,0,148,148,94,1,BLANS,HB,old,z,./images/BLANSHB.png,,,,,,,,,,,,,,,,,,,,,,
,,,,,,,,,,,,,,,,,198973,18,2022-01-28_23h57.20.248,lexical_decision_task_DD_L2,2021.2.3,MacIntel,59.99880002,,,,,,,,,,,0.6231,1,,,,,,,,,,,,,,z,1,0.6231,,,,,,,,0.075555556,-0.397304687,0,0,0,,0,149,149,137,1,JOOST,LB,old,z,./images/JOOSTLB.png,,,,,,,,,,,,,,,,,,,,,,
,,,,,,,,,,,,,,,,,198973,18,2022-01-28_23h57.20.248,lexical_decision_task_DD_L2,2021.2.3,MacIntel,59.99880002,,,,,,,,,,,0.5804,1,,,,,,,,,,,,,,z,1,0.5804,,,,,,,,0.075555556,-0.397304687,0,0,0,,0,150,150,113,1,LINEW,LB,old,z,./images/LINEWLB.png,,,,,,,,,,,,,,,,,,,,,,
,,,,,,,,,,,,,,,,,198973,18,2022-01-28_23h57.20.248,lexical_decision_task_DD_L2,2021.2.3,MacIntel,59.99880002,,,,,,,,,,,0.6022,1,,,,,,,,,,,,,,m,1,0.6022,,,,,,,,0.075555556,-0.397304687,0,0,0,,0,151,151,67,1,SAILOR,LB,old,m,./images/SAILORLB.png,,,,,,,,,,,,,,,,,,,,,,
,,,,,,,,,,,,,,,,,198973,18,2022-01-28_23h57.20.248,lexical_decision_task_DD_L2,2021.2.3,MacIntel,59.99880002,,,,,,,,,,,0.9986,1,,,,,,,,,,,,,,z,1,0.9986,,,,,,,,0.075555556,-0.397304687,0,0,0,,0,152,152,145,1,LAMEL,HB,old,z,./images/LAMELHB.png,,,,,,,,,,,,,,,,,,,,,,
,,,,,,,,,,,,,,,,,198973,18,2022-01-28_23h57.20.248,lexical_decision_task_DD_L2,2021.2.3,MacIntel,59.99880002,,,,,,,,,,,0.766,1,,,,,,,,,,,,,,z,1,0.766,,,,,,,,0.075555556,-0.397304687,0,0,0,,0,153,153,124,1,TUNCH,HB,old,z,./images/TUNCHHB.png,,,,,,,,,,,,,,,,,,,,,,
,,,,,,,,,,,,,,,,,198973,18,2022-01-28_23h57.20.248,lexical_decision_task_DD_L2,2021.2.3,MacIntel,59.99880002,,,,,,,,,,,0.6511,1,,,,,,,,,,,,,,z,1,0.6511,,,,,,,,0.075555556,-0.397304687,0,0,0,,0,154,154,101,1,GLEET,LB,old,z,./images/GLEETLB.png,,,,,,,,,,,,,,,,,,,,,,
,,,,,,,,,,,,,,,,,198973,18,2022-01-28_23h57.20.248,lexical_decision_task_DD_L2,2021.2.3,MacIntel,59.99880002,,,,,,,,,,,0.5164,1,,,,,,,,,,,,,,m,1,0.5164,,,,,,,,0.075555556,-0.397304687,0,0,0,,0,155,155,21,1,KIDNEY,HB,old,m,./images/KIDNEYHB.png,,,,,,,,,,,,,,,,,,,,,,
,,,,,,,,,,,,,,,,,198973,18,2022-01-28_23h57.20.248,lexical_decision_task_DD_L2,2021.2.3,MacIntel,59.99880002,,,,,,,,,,,1.6479,1,,,,,,,,,,,,,,z,1,1.6479,,,,,,,,0.075555556,-0.397304687,0,0,0,,0,156,156,91,1,SHENS,HB,old,z,./images/SHENSHB.png,,,,,,,,,,,,,,,,,,,,,,
,,,,,,,,,,,,,,,,,198973,18,2022-01-28_23h57.20.248,lexical_decision_task_DD_L2,2021.2.3,MacIntel,59.99880002,,,,,,,,,,,0.5501,1,,,,,,,,,,,,,,m,1,0.5501,,,,,,,,0.075555556,-0.397304687,0,0,0,,0,157,157,39,1,SHELF,HB,old,m,./images/SHELFHB.png,,,,,,,,,,,,,,,,,,,,,,
,,,,,,,,,,,,,,,,,198973,18,2022-01-28_23h57.20.248,lexical_decision_task_DD_L2,2021.2.3,MacIntel,59.99880002,,,,,,,,,,,0.6644,0,,,,,,,,,,,,,,m,0,0.6644,,,,,,,,0.075555556,-0.397304687,0,0,0,,0,158,158,106,1,CLUMS,HB,old,z,./images/CLUMSHB.png,,,,,,,,,,,,,,,,,,,,,,
,,,,,,,,,,,,,,,,,198973,18,2022-01-28_23h57.20.248,lexical_decision_task_DD_L2,2021.2.3,MacIntel,59.99880002,,,,,,,,,,,0.5163,1,,,,,,,,,,,,,,m,1,0.5163,,,,,,,,0.075555556,-0.397304687,0,0,0,,0,159,159,42,1,FOLDER,HB,old,m,./images/FOLDERHB.png,,,,,,,,,,,,,,,,,,,,,,
,,,,,,,,,,,,,,,,,198973,18,2022-01-28_23h57.20.248,lexical_decision_task_DD_L2,2021.2.3,MacIntel,59.99880002,,,,,,,,,,,0.449,1,,,,,,,,,,,,,,m,1,0.449,,,,,,,,0.075555556,-0.397304687,0,0,0,,0,160,160,35,1,PEACH,C,old,m,./images/PEACH.png,,,,,,,,,,,,,,,,,,,,,,
,,,,,,,,,,,,,,,,,198973,18,2022-01-28_23h57.20.248,lexical_decision_task_DD_L2,2021.2.3,MacIntel,59.99880002,,,,,,,,,,,0.4725,1,,,,,,,,,,,,,,m,1,0.4725,,,,,,,,0.075555556,-0.397304687,0,0,0,,0,161,161,73,1,SNACK,LB,old,m,./images/SNACKLB.png,,,,,,,,,,,,,,,,,,,,,,
,,,,,,,,,,,,,,,,,198973,18,2022-01-28_23h57.20.248,lexical_decision_task_DD_L2,2021.2.3,MacIntel,59.99880002,,,,,,,,,,,0.5371,1,,,,,,,,,,,,,,z,1,0.5371,,,,,,,,0.075555556,-0.397304687,0,0,0,,0,162,162,122,1,BLOOT,LB,old,z,./images/BLOOTLB.png,,,,,,,,,,,,,,,,,,,,,,
,,,,,,,,,,,,,,,,,198973,18,2022-01-28_23h57.20.248,lexical_decision_task_DD_L2,2021.2.3,MacIntel,59.99880002,,,,,,,,,,,0.5394,1,,,,,,,,,,,,,,z,1,0.5394,,,,,,,,0.075555556,-0.397304687,0,0,0,,0,163,163,84,1,HAXES,C,old,z,./images/HAXES.png,,,,,,,,,,,,,,,,,,,,,,
,,,,,,,,,,,,,,,,,198973,18,2022-01-28_23h57.20.248,lexical_decision_task_DD_L2,2021.2.3,MacIntel,59.99880002,,,,,,,,,,,0.7086,1,,,,,,,,,,,,,,m,1,0.7086,,,,,,,,0.075555556,-0.397304687,0,0,0,,0,164,164,26,1,SMOKER,C,old,m,./images/SMOKER.png,,,,,,,,,,,,,,,,,,,,,,
,,,,,,,,,,,,,,,,,198973,18,2022-01-28_23h57.20.248,lexical_decision_task_DD_L2,2021.2.3,MacIntel,59.99880002,,,,,,,,,,,0.8532,1,,,,,,,,,,,,,,m,1,0.8532,,,,,,,,0.075555556,-0.397304687,0,0,0,,0,165,165,17,1,SKIING,C,old,m,./images/SKIING.png,,,,,,,,,,,,,,,,,,,,,,
,,,,,,,,,,,,,,,,,198973,18,2022-01-28_23h57.20.248,lexical_decision_task_DD_L2,2021.2.3,MacIntel,59.99880002,,,,,,,,,,,0.501,1,,,,,,,,,,,,,,m,1,0.501,,,,,,,,0.075555556,-0.397304687,0,0,0,,0,166,166,51,1,ONION,HB,old,m,./images/ONIONHB.png,,,,,,,,,,,,,,,,,,,,,,
,,,,,,,,,,,,,,,,,198973,18,2022-01-28_23h57.20.248,lexical_decision_task_DD_L2,2021.2.3,MacIntel,59.99880002,,,,,,,,,,,2.1486,1,,,,,,,,,,,,,,z,1,2.1486,,,,,,,,0.075555556,-0.397304687,0,0,0,,0,167,167,100,1,DRIBS,HB,old,z,./images/DRIBSHB.png,,,,,,,,,,,,,,,,,,,,,,
space,12.1948,0.075555556,-0.397304687,0,0,0,,,,,,1,test,"In the next phase you will be presented with the words from the the first phase. Your job is to decide whether you remember seeing the word or not. If you remember seeing the word press ""old"" or type ""m"". If you do not remember seeing the word press ""new"" or type ""z"". Please press the space bar or click on continue to begin. ",,,198973,18,2022-01-28_23h57.20.248,lexical_decision_task_DD_L2,2021.2.3,MacIntel,59.99880002,,,,,,,,,,,,,,,,,,,,,,,,,,,,,,,,,,,,,,,,,,,,,,,,,,,,,0,0,0,0,1,,,,,,,,,,,,,,,,
space,1.4241,0.075555556,-0.397304687,0,0,0,,,,,,1,test,"In the next phase you will be presented with the words from the the first phase. Your job is to decide whether you remember seeing the word or not. If you remember seeing the word press ""old"" or type ""m"". If you do not remember seeing the word press ""new"" or type ""z"". Please press the space bar or click on continue to begin. ",,,198973,18,2022-01-28_23h57.20.248,lexical_decision_task_DD_L2,2021.2.3,MacIntel,59.99880002,,,,,,,,,,,,,,,,,,,,,,,,,,,,,,,,,,,,,,,,,,,,,,,,,,,,,1,0,1,0,1,,,,,,,,,,,,,,,,
,,0.075555556,-0.397304687,1,0,0,,,,,,1,test,"In the next phase you will be presented with the words from the the first phase. Your job is to decide whether you remember seeing the word or not. If you remember seeing the word press ""old"" or type ""m"". If you do not remember seeing the word press ""new"" or type ""z"". Please press the space bar or click on continue to begin. ",,,198973,18,2022-01-28_23h57.20.248,lexical_decision_task_DD_L2,2021.2.3,MacIntel,59.99880002,,,,,,,,,,,,,,,,,,,,,,,,,,,,,,,,,,,,,,,,,,,,,,,,,,,,,2,0,2,0,1,instr_done_button,,,,,,,,,,,,,,,
space,1.9169,0.073211806,-0.324704861,0,0,0,,,,,,1,test,"In the next phase you will be presented with the words from the the first phase. Your job is to decide whether you remember seeing the word or not. If you remember seeing the word press ""old"" or type ""m"". If you do not remember seeing the word press ""new"" or type ""z"". Please press the space bar or click on continue to begin. ",,,198973,18,2022-01-28_23h57.20.248,lexical_decision_task_DD_L2,2021.2.3,MacIntel,59.99880002,,,,,,,,,,,,,,,,,,,,,,,,,,,,,,,,,,,,,,,,,,,,,,,,,,,,,3,0,3,0,1,,,,,,,,,,,,,,,,
,,-0.007352431,-0.423116319,1,0,0,,,,,,1,test,"In the next phase you will be presented with the words from the the first phase. Your job is to decide whether you remember seeing the word or not. If you remember seeing the word press ""old"" or type ""m"". If you do not remember seeing the word press ""new"" or type ""z"". Please press the space bar or click on continue to begin. ",,,198973,18,2022-01-28_23h57.20.248,lexical_decision_task_DD_L2,2021.2.3,MacIntel,59.99880002,,,,,,,,,,,,,,,,,,,,,,,,,,,,,,,,,,,,,,,,,,,,,,,,,,,,,4,0,4,0,1,instr_done_button,,,,,,,,,,,,,,,
,,,,,,,,,,,,,,,,,198973,18,2022-01-28_23h57.20.248,lexical_decision_task_DD_L2,2021.2.3,MacIntel,59.99880002,,,,,,,,,,,2.1158,1,,,,,,,,,,,,,,,,,,,,,,,,0.273702257,-0.499978299,0,0,0,,,,,,,ARROW,HB,z,y,./images/ARROWHB.png,,,,,,,,z,1,2.1158,,,,,,,,0,0,0,153,1
,,,,,,,,,,,,,,,,,198973,18,2022-01-28_23h57.20.248,lexical_decision_task_DD_L2,2021.2.3,MacIntel,59.99880002,,,,,,,,,,,0.6518,1,,,,,,,,,,,,,,,,,,,,,,,,0.273702257,-0.499978299,0,0,0,,,,,,,SAILOR,LB,m,y,./images/SAILORLB.png,,,,,,,,m,1,0.6518,,,,,,,,0,1,1,67,1
,,,,,,,,,,,,,,,,,198973,18,2022-01-28_23h57.20.248,lexical_decision_task_DD_L2,2021.2.3,MacIntel,59.99880002,,,,,,,,,,,1.9061,1,,,,,,,,,,,,,,,,,,,,,,,,0.273702257,-0.499978299,0,0,0,,,,,,,CLIFF,C,z,y,./images/CLIFF.png,,,,,,,,z,1,1.9061,,,,,,,,0,2,2,92,1
,,,,,,,,,,,,,,,,,198973,18,2022-01-28_23h57.20.248,lexical_decision_task_DD_L2,2021.2.3,MacIntel,59.99880002,,,,,,,,,,,0.7335,1,,,,,,,,,,,,,,,,,,,,,,,,0.273702257,-0.499978299,0,0,0,,,,,,,PASTA,C,m,y,./images/PASTA.png,,,,,,,,m,1,0.7335,,,,,,,,0,3,3,5,1
,,,,,,,,,,,,,,,,,198973,18,2022-01-28_23h57.20.248,lexical_decision_task_DD_L2,2021.2.3,MacIntel,59.99880002,,,,,,,,,,,0.8168,1,,,,,,,,,,,,,,,,,,,,,,,,0.273702257,-0.499978299,0,0,0,,,,,,,HAMMER,HB,z,y,./images/HAMMERHB.png,,,,,,,,z,1,0.8168,,,,,,,,0,4,4,159,1
,,,,,,,,,,,,,,,,,198973,18,2022-01-28_23h57.20.248,lexical_decision_task_DD_L2,2021.2.3,MacIntel,59.99880002,,,,,,,,,,,0.9554,1,,,,,,,,,,,,,,,,,,,,,,,,0.273702257,-0.499978299,0,0,0,,,,,,,PENCE,LB,m,y,./images/PENCELB.png,,,,,,,,m,1,0.9554,,,,,,,,0,5,5,16,1
,,,,,,,,,,,,,,,,,198973,18,2022-01-28_23h57.20.248,lexical_decision_task_DD_L2,2021.2.3,MacIntel,59.99880002,,,,,,,,,,,0.6725,1,,,,,,,,,,,,,,,,,,,,,,,,0.273702257,-0.499978299,0,0,0,,,,,,,KIDNEY,HB,m,y,./images/KIDNEYHB.png,,,,,,,,m,1,0.6725,,,,,,,,0,6,6,21,1
,,,,,,,,,,,,,,,,,198973,18,2022-01-28_23h57.20.248,lexical_decision_task_DD_L2,2021.2.3,MacIntel,59.99880002,,,,,,,,,,,0.6289,1,,,,,,,,,,,,,,,,,,,,,,,,0.273702257,-0.499978299,0,0,0,,,,,,,RAZOR,LB,z,y,./images/RAZORLB.png,,,,,,,,z,1,0.6289,,,,,,,,0,7,7,118,1
,,,,,,,,,,,,,,,,,198973,18,2022-01-28_23h57.20.248,lexical_decision_task_DD_L2,2021.2.3,MacIntel,59.99880002,,,,,,,,,,,0.6554,1,,,,,,,,,,,,,,,,,,,,,,,,0.273702257,-0.499978299,0,0,0,,,,,,,WHEEL,C,z,y,./images/WHEEL.png,,,,,,,,z,1,0.6554,,,,,,,,0,8,8,161,1
,,,,,,,,,,,,,,,,,198973,18,2022-01-28_23h57.20.248,lexical_decision_task_DD_L2,2021.2.3,MacIntel,59.99880002,,,,,,,,,,,0.6709,1,,,,,,,,,,,,,,,,,,,,,,,,0.273702257,-0.499978299,0,0,0,,,,,,,CLOTH,C,z,y,./images/CLOTH.png,,,,,,,,z,1,0.6709,,,,,,,,0,9,9,107,1
,,,,,,,,,,,,,,,,,198973,18,2022-01-28_23h57.20.248,lexical_decision_task_DD_L2,2021.2.3,MacIntel,59.99880002,,,,,,,,,,,0.5315,1,,,,,,,,,,,,,,,,,,,,,,,,0.273702257,-0.499978299,0,0,0,,,,,,,GRAIN,HB,m,y,./images/GRAINHB.png,,,,,,,,m,1,0.5315,,,,,,,,0,10,10,75,1
,,,,,,,,,,,,,,,,,198973,18,2022-01-28_23h57.20.248,lexical_decision_task_DD_L2,2021.2.3,MacIntel,59.99880002,,,,,,,,,,,0.5881,1,,,,,,,,,,,,,,,,,,,,,,,,0.273702257,-0.499978299,0,0,0,,,,,,,DOUGH,LB,m,y,./images/DOUGHLB.png,,,,,,,,m,1,0.5881,,,,,,,,0,11,11,19,1
,,,,,,,,,,,,,,,,,198973,18,2022-01-28_23h57.20.248,lexical_decision_task_DD_L2,2021.2.3,MacIntel,59.99880002,,,,,,,,,,,0.4659,1,,,,,,,,,,,,,,,,,,,,,,,,0.273702257,-0.499978299,0,0,0,,,,,,,SMOKER,C,m,y,./images/SMOKER.png,,,,,,,,m,1,0.4659,,,,,,,,0,12,12,26,1
,,,,,,,,,,,,,,,,,198973,18,2022-01-28_23h57.20.248,lexical_decision_task_DD_L2,2021.2.3,MacIntel,59.99880002,,,,,,,,,,,0.5835,1,,,,,,,,,,,,,,,,,,,,,,,,0.273702257,-0.499978299,0,0,0,,,,,,,TOMATO,HB,m,y,./images/TOMATOHB.png,,,,,,,,m,1,0.5835,,,,,,,,0,13,13,0,1
,,,,,,,,,,,,,,,,,198973,18,2022-01-28_23h57.20.248,lexical_decision_task_DD_L2,2021.2.3,MacIntel,59.99880002,,,,,,,,,,,0.7659,0,,,,,,,,,,,,,,,,,,,,,,,,0.273702257,-0.499978299,0,0,0,,,,,,,COUCH,C,m,y,./images/COUCH.png,,,,,,,,z,0,0.7659,,,,,,,,0,14,14,77,1
,,,,,,,,,,,,,,,,,198973,18,2022-01-28_23h57.20.248,lexical_decision_task_DD_L2,2021.2.3,MacIntel,59.99880002,,,,,,,,,,,1.2164,0,,,,,,,,,,,,,,,,,,,,,,,,0.273702257,-0.499978299,0,0,0,,,,,,,MUFFIN,LB,m,y,./images/MUFFINLB.png,,,,,,,,z,0,1.2164,,,,,,,,0,15,15,55,1
,,,,,,,,,,,,,,,,,198973,18,2022-01-28_23h57.20.248,lexical_decision_task_DD_L2,2021.2.3,MacIntel,59.99880002,,,,,,,,,,,0.5825,1,,,,,,,,,,,,,,,,,,,,,,,,0.273702257,-0.499978299,0,0,0,,,,,,,SHORE,HB,m,y,./images/SHOREHB.png,,,,,,,,m,1,0.5825,,,,,,,,0,16,16,12,1
,,,,,,,,,,,,,,,,,198973,18,2022-01-28_23h57.20.248,lexical_decision_task_DD_L2,2021.2.3,MacIntel,59.99880002,,,,,,,,,,,0.858,0,,,,,,,,,,,,,,,,,,,,,,,,0.273702257,-0.499978299,0,0,0,,,,,,,FENCE,C,z,y,./images/FENCE.png,,,,,,,,m,0,0.858,,,,,,,,0,17,17,98,1
,,,,,,,,,,,,,,,,,198973,18,2022-01-28_23h57.20.248,lexical_decision_task_DD_L2,2021.2.3,MacIntel,59.99880002,,,,,,,,,,,1.3846,1,,,,,,,,,,,,,,,,,,,,,,,,0.273702257,-0.499978299,0,0,0,,,,,,,MOTOR,LB,m,y,./images/MOTORLB.png,,,,,,,,m,1,1.3846,,,,,,,,0,18,18,13,1
,,,,,,,,,,,,,,,,,198973,18,2022-01-28_23h57.20.248,lexical_decision_task_DD_L2,2021.2.3,MacIntel,59.99880002,,,,,,,,,,,0.6997,1,,,,,,,,,,,,,,,,,,,,,,,,0.273702257,-0.499978299,0,0,0,,,,,,,GRAPE,LB,z,y,./images/GRAPELB.png,,,,,,,,z,1,0.6997,,,,,,,,0,19,19,100,1
,,,,,,,,,,,,,,,,,198973,18,2022-01-28_23h57.20.248,lexical_decision_task_DD_L2,2021.2.3,MacIntel,59.99880002,,,,,,,,,,,0.7033,1,,,,,,,,,,,,,,,,,,,,,,,,0.273702257,-0.499978299,0,0,0,,,,,,,BARREL,C,m,y,./images/BARREL.png,,,,,,,,m,1,0.7033,,,,,,,,0,20,20,32,1
,,,,,,,,,,,,,,,,,198973,18,2022-01-28_23h57.20.248,lexical_decision_task_DD_L2,2021.2.3,MacIntel,59.99880002,,,,,,,,,,,0.6367,1,,,,,,,,,,,,,,,,,,,,,,,,0.273702257,-0.499978299,0,0,0,,,,,,,BASKET,C,z,y,./images/BASKET.png,,,,,,,,z,1,0.6367,,,,,,,,0,21,21,128,1
,,,,,,,,,,,,,,,,,198973,18,2022-01-28_23h57.20.248,lexical_decision_task_DD_L2,2021.2.3,MacIntel,59.99880002,,,,,,,,,,,0.8347,1,,,,,,,,,,,,,,,,,,,,,,,,0.273702257,-0.499978299,0,0,0,,,,,,,STATUE,HB,z,y,./images/STATUEHB.png,,,,,,,,z,1,0.8347,,,,,,,,0,22,22,150,1
,,,,,,,,,,,,,,,,,198973,18,2022-01-28_23h57.20.248,lexical_decision_task_DD_L2,2021.2.3,MacIntel,59.99880002,,,,,,,,,,,0.8354,1,,,,,,,,,,,,,,,,,,,,,,,,0.273702257,-0.499978299,0,0,0,,,,,,,JUMPER,C,z,y,./images/JUMPER.png,,,,,,,,z,1,0.8354,,,,,,,,0,23,23,158,1
,,,,,,,,,,,,,,,,,198973,18,2022-01-28_23h57.20.248,lexical_decision_task_DD_L2,2021.2.3,MacIntel,59.99880002,,,,,,,,,,,0.6507,1,,,,,,,,,,,,,,,,,,,,,,,,0.273702257,-0.499978299,0,0,0,,,,,,,BUTTER,HB,z,y,./images/BUTTERHB.png,,,,,,,,z,1,0.6507,,,,,,,,0,24,24,111,1
,,,,,,,,,,,,,,,,,198973,18,2022-01-28_23h57.20.248,lexical_decision_task_DD_L2,2021.2.3,MacIntel,59.99880002,,,,,,,,,,,0.9201,1,,,,,,,,,,,,,,,,,,,,,,,,0.273702257,-0.499978299,0,0,0,,,,,,,POKER,LB,z,y,./images/POKERLB.png,,,,,,,,z,1,0.9201,,,,,,,,0,25,25,151,1
,,,,,,,,,,,,,,,,,198973,18,2022-01-28_23h57.20.248,lexical_decision_task_DD_L2,2021.2.3,MacIntel,59.99880002,,,,,,,,,,,0.7217,1,,,,,,,,,,,,,,,,,,,,,,,,0.273702257,-0.499978299,0,0,0,,,,,,,CEMENT,C,m,y,./images/CEMENT.png,,,,,,,,m,1,0.7217,,,,,,,,0,26,26,74,1
,,,,,,,,,,,,,,,,,198973,18,2022-01-28_23h57.20.248,lexical_decision_task_DD_L2,2021.2.3,MacIntel,59.99880002,,,,,,,,,,,0.4677,0,,,,,,,,,,,,,,,,,,,,,,,,0.273702257,-0.499978299,0,0,0,,,,,,,BAKER,HB,z,y,./images/BAKERHB.png,,,,,,,,m,0,0.4677,,,,,,,,0,27,27,147,1
,,,,,,,,,,,,,,,,,198973,18,2022-01-28_23h57.20.248,lexical_decision_task_DD_L2,2021.2.3,MacIntel,59.99880002,,,,,,,,,,,0.5346,0,,,,,,,,,,,,,,,,,,,,,,,,0.273702257,-0.499978299,0,0,0,,,,,,,POSTER,C,z,y,./images/POSTER.png,,,,,,,,m,0,0.5346,,,,,,,,0,28,28,137,1
,,,,,,,,,,,,,,,,,198973,18,2022-01-28_23h57.20.248,lexical_decision_task_DD_L2,2021.2.3,MacIntel,59.99880002,,,,,,,,,,,2.3312,0,,,,,,,,,,,,,,,,,,,,,,,,0.273702257,-0.499978299,0,0,0,,,,,,,STRING,C,m,y,./images/STRING.png,,,,,,,,z,0,2.3312,,,,,,,,0,29,29,41,1
,,,,,,,,,,,,,,,,,198973,18,2022-01-28_23h57.20.248,lexical_decision_task_DD_L2,2021.2.3,MacIntel,59.99880002,,,,,,,,,,,1.267,1,,,,,,,,,,,,,,,,,,,,,,,,0.273702257,-0.499978299,0,0,0,,,,,,,STOOL,LB,z,y,./images/STOOLLB.png,,,,,,,,z,1,1.267,,,,,,,,0,30,30,127,1
,,,,,,,,,,,,,,,,,198973,18,2022-01-28_23h57.20.248,lexical_decision_task_DD_L2,2021.2.3,MacIntel,59.99880002,,,,,,,,,,,0.9204,1,,,,,,,,,,,,,,,,,,,,,,,,0.273702257,-0.499978299,0,0,0,,,,,,,SAUCE,HB,z,y,./images/SAUCEHB.png,,,,,,,,z,1,0.9204,,,,,,,,0,31,31,135,1
,,,,,,,,,,,,,,,,,198973,18,2022-01-28_23h57.20.248,lexical_decision_task_DD_L2,2021.2.3,MacIntel,59.99880002,,,,,,,,,,,0.5753,1,,,,,,,,,,,,,,,,,,,,,,,,0.273702257,-0.499978299,0,0,0,,,,,,,INFANT,LB,m,y,./images/INFANTLB.png,,,,,,,,m,1,0.5753,,,,,,,,0,32,32,76,1
,,,,,,,,,,,,,,,,,198973,18,2022-01-28_23h57.20.248,lexical_decision_task_DD_L2,2021.2.3,MacIntel,59.99880002,,,,,,,,,,,0.9659,0,,,,,,,,,,,,,,,,,,,,,,,,0.273702257,-0.499978299,0,0,0,,,,,,,BLOKE,HB,z,y,./images/BLOKEHB.png,,,,,,,,m,0,0.9659,,,,,,,,0,33,33,96,1
,,,,,,,,,,,,,,,,,198973,18,2022-01-28_23h57.20.248,lexical_decision_task_DD_L2,2021.2.3,MacIntel,59.99880002,,,,,,,,,,,0.7292,1,,,,,,,,,,,,,,,,,,,,,,,,0.273702257,-0.499978299,0,0,0,,,,,,,DESERT,LB,z,y,./images/DESERTLB.png,,,,,,,,z,1,0.7292,,,,,,,,0,34,34,136,1
,,,,,,,,,,,,,,,,,198973,18,2022-01-28_23h57.20.248,lexical_decision_task_DD_L2,2021.2.3,MacIntel,59.99880002,,,,,,,,,,,0.6168,1,,,,,,,,,,,,,,,,,,,,,,,,0.273702257,-0.499978299,0,0,0,,,,,,,FERRY,HB,z,y,./images/FERRYHB.png,,,,,,,,z,1,0.6168,,,,,,,,0,35,35,141,1
,,,,,,,,,,,,,,,,,198973,18,2022-01-28_23h57.20.248,lexical_decision_task_DD_L2,2021.2.3,MacIntel,59.99880002,,,,,,,,,,,1.1337,0,,,,,,,,,,,,,,,,,,,,,,,,0.273702257,-0.499978299,0,0,0,,,,,,,CANDY,HB,z,y,./images/CANDYHB.png,,,,,,,,m,0,1.1337,,,,,,,,0,36,36,123,1
,,,,,,,,,,,,,,,,,198973,18,2022-01-28_23h57.20.248,lexical_decision_task_DD_L2,2021.2.3,MacIntel,59.99880002,,,,,,,,,,,0.9189,1,,,,,,,,,,,,,,,,,,,,,,,,0.273702257,-0.499978299,0,0,0,,,,,,,STREAM,C,z,y,./images/STREAM.png,,,,,,,,z,1,0.9189,,,,,,,,0,37,37,125,1
,,,,,,,,,,,,,,,,,198973,18,2022-01-28_23h57.20.248,lexical_decision_task_DD_L2,2021.2.3,MacIntel,59.99880002,,,,,,,,,,,0.906,0,,,,,,,,,,,,,,,,,,,,,,,,0.273702257,-0.499978299,0,0,0,,,,,,,BROOM,HB,z,y,./images/BROOMHB.png,,,,,,,,m,0,0.906,,,,,,,,0,38,38,162,1
,,,,,,,,,,,,,,,,,198973,18,2022-01-28_23h57.20.248,lexical_decision_task_DD_L2,2021.2.3,MacIntel,59.99880002,,,,,,,,,,,1.3691,1,,,,,,,,,,,,,,,,,,,,,,,,0.273702257,-0.499978299,0,0,0,,,,,,,SLOPE,HB,z,y,./images/SLOPEHB.png,,,,,,,,z,1,1.3691,,,,,,,,0,39,39,114,1
,,,,,,,,,,,,,,,,,198973,18,2022-01-28_23h57.20.248,lexical_decision_task_DD_L2,2021.2.3,MacIntel,59.99880002,,,,,,,,,,,0.6993,1,,,,,,,,,,,,,,,,,,,,,,,,0.273702257,-0.499978299,0,0,0,,,,,,,CHERRY,HB,z,y,./images/CHERRYHB.png,,,,,,,,z,1,0.6993,,,,,,,,0,40,40,138,1
,,,,,,,,,,,,,,,,,198973,18,2022-01-28_23h57.20.248,lexical_decision_task_DD_L2,2021.2.3,MacIntel,59.99880002,,,,,,,,,,,0.6863,1,,,,,,,,,,,,,,,,,,,,,,,,0.216684028,-0.464895833,0,0,0,space,,,,,,BRIDE,LB,z,y,./images/BRIDELB.png,52.7922,,,,,,,z,1,0.6863,,,,,,,,0,41,41,148,1
,,,,,,,,,,,,,,,,,198973,18,2022-01-28_23h57.20.248,lexical_decision_task_DD_L2,2021.2.3,MacIntel,59.99880002,,,,,,,,,,,0.667,1,,,,,,,,,,,,,,,,,,,,,,,,0.216684028,-0.464895833,0,0,0,,,,,,,SWEAT,HB,m,y,./images/SWEATHB.png,,,,,,,,m,1,0.667,,,,,,,,0,42,42,66,1
,,,,,,,,,,,,,,,,,198973,18,2022-01-28_23h57.20.248,lexical_decision_task_DD_L2,2021.2.3,MacIntel,59.99880002,,,,,,,,,,,0.7367,1,,,,,,,,,,,,,,,,,,,,,,,,0.216684028,-0.464895833,0,0,0,,,,,,,COLLAR,HB,z,y,./images/COLLARHB.png,,,,,,,,z,1,0.7367,,,,,,,,0,43,43,99,1
,,,,,,,,,,,,,,,,,198973,18,2022-01-28_23h57.20.248,lexical_decision_task_DD_L2,2021.2.3,MacIntel,59.99880002,,,,,,,,,,,1.7521,0,,,,,,,,,,,,,,,,,,,,,,,,0.216684028,-0.464895833,0,0,0,,,,,,,BOILER,HB,z,y,./images/BOILERHB.png,,,,,,,,m,0,1.7521,,,,,,,,0,44,44,120,1
,,,,,,,,,,,,,,,,,198973,18,2022-01-28_23h57.20.248,lexical_decision_task_DD_L2,2021.2.3,MacIntel,59.99880002,,,,,,,,,,,0.9936,0,,,,,,,,,,,,,,,,,,,,,,,,0.216684028,-0.464895833,0,0,0,,,,,,,SQUARE,HB,m,y,./images/SQUAREHB.png,,,,,,,,z,0,0.9936,,,,,,,,0,45,45,6,1
,,,,,,,,,,,,,,,,,198973,18,2022-01-28_23h57.20.248,lexical_decision_task_DD_L2,2021.2.3,MacIntel,59.99880002,,,,,,,,,,,0.6187,1,,,,,,,,,,,,,,,,,,,,,,,,0.216684028,-0.464895833,0,0,0,,,,,,,BUBBLE,C,z,y,./images/BUBBLE.png,,,,,,,,z,1,0.6187,,,,,,,,0,46,46,155,1
,,,,,,,,,,,,,,,,,198973,18,2022-01-28_23h57.20.248,lexical_decision_task_DD_L2,2021.2.3,MacIntel,59.99880002,,,,,,,,,,,0.9507,1,,,,,,,,,,,,,,,,,,,,,,,,0.216684028,-0.464895833,0,0,0,,,,,,,VALLEY,C,z,y,./images/VALLEY.png,,,,,,,,z,1,0.9507,,,,,,,,0,47,47,152,1
,,,,,,,,,,,,,,,,,198973,18,2022-01-28_23h57.20.248,lexical_decision_task_DD_L2,2021.2.3,MacIntel,59.99880002,,,,,,,,,,,0.6169,1,,,,,,,,,,,,,,,,,,,,,,,,0.216684028,-0.464895833,0,0,0,,,,,,,THROAT,HB,m,y,./images/THROATHB.png,,,,,,,,m,1,0.6169,,,,,,,,0,48,48,36,1
,,,,,,,,,,,,,,,,,198973,18,2022-01-28_23h57.20.248,lexical_decision_task_DD_L2,2021.2.3,MacIntel,59.99880002,,,,,,,,,,,0.5498,1,,,,,,,,,,,,,,,,,,,,,,,,0.216684028,-0.464895833,0,0,0,,,,,,,CRATER,HB,z,y,./images/CRATERHB.png,,,,,,,,z,1,0.5498,,,,,,,,0,49,49,87,1
,,,,,,,,,,,,,,,,,198973,18,2022-01-28_23h57.20.248,lexical_decision_task_DD_L2,2021.2.3,MacIntel,59.99880002,,,,,,,,,,,0.6684,1,,,,,,,,,,,,,,,,,,,,,,,,0.216684028,-0.464895833,0,0,0,,,,,,,FALCON,LB,m,y,./images/FALCONLB.png,,,,,,,,m,1,0.6684,,,,,,,,0,50,50,28,1
,,,,,,,,,,,,,,,,,198973,18,2022-01-28_23h57.20.248,lexical_decision_task_DD_L2,2021.2.3,MacIntel,59.99880002,,,,,,,,,,,0.6006,1,,,,,,,,,,,,,,,,,,,,,,,,0.216684028,-0.464895833,0,0,0,,,,,,,MOOSE,HB,m,y,./images/MOOSEHB.png,,,,,,,,m,1,0.6006,,,,,,,,0,51,51,57,1
,,,,,,,,,,,,,,,,,198973,18,2022-01-28_23h57.20.248,lexical_decision_task_DD_L2,2021.2.3,MacIntel,59.99880002,,,,,,,,,,,0.6429,1,,,,,,,,,,,,,,,,,,,,,,,,0.216684028,-0.464895833,0,0,0,,,,,,,TOWEL,LB,z,y,./images/TOWELLB.png,,,,,,,,z,1,0.6429,,,,,,,,0,52,52,85,1
,,,,,,,,,,,,,,,,,198973,18,2022-01-28_23h57.20.248,lexical_decision_task_DD_L2,2021.2.3,MacIntel,59.99880002,,,,,,,,,,,1.0015,0,,,,,,,,,,,,,,,,,,,,,,,,0.216684028,-0.464895833,0,0,0,,,,,,,MIRROR,HB,m,y,./images/MIRRORHB.png,,,,,,,,z,0,1.0015,,,,,,,,0,53,53,63,1
,,,,,,,,,,,,,,,,,198973,18,2022-01-28_23h57.20.248,lexical_decision_task_DD_L2,2021.2.3,MacIntel,59.99880002,,,,,,,,,,,1.385,1,,,,,,,,,,,,,,,,,,,,,,,,0.216684028,-0.464895833,0,0,0,,,,,,,CLOUD,C,z,y,./images/CLOUD.png,,,,,,,,z,1,1.385,,,,,,,,0,54,54,110,1
,,,,,,,,,,,,,,,,,198973,18,2022-01-28_23h57.20.248,lexical_decision_task_DD_L2,2021.2.3,MacIntel,59.99880002,,,,,,,,,,,0.6206,1,,,,,,,,,,,,,,,,,,,,,,,,0.216684028,-0.464895833,0,0,0,,,,,,,FLESH,HB,z,y,./images/FLESHHB.png,,,,,,,,z,1,0.6206,,,,,,,,0,55,55,108,1
,,,,,,,,,,,,,,,,,198973,18,2022-01-28_23h57.20.248,lexical_decision_task_DD_L2,2021.2.3,MacIntel,59.99880002,,,,,,,,,,,0.9789,1,,,,,,,,,,,,,,,,,,,,,,,,0.216684028,-0.464895833,0,0,0,,,,,,,LITTER,HB,m,y,./images/LITTERHB.png,,,,,,,,m,1,0.9789,,,,,,,,0,56,56,78,1
,,,,,,,,,,,,,,,,,198973,18,2022-01-28_23h57.20.248,lexical_decision_task_DD_L2,2021.2.3,MacIntel,59.99880002,,,,,,,,,,,0.825,1,,,,,,,,,,,,,,,,,,,,,,,,0.216684028,-0.464895833,0,0,0,,,,,,,BISHOP,LB,z,y,./images/BISHOPLB.png,,,,,,,,z,1,0.825,,,,,,,,0,57,57,133,1
,,,,,,,,,,,,,,,,,198973,18,2022-01-28_23h57.20.248,lexical_decision_task_DD_L2,2021.2.3,MacIntel,59.99880002,,,,,,,,,,,0.5842,1,,,,,,,,,,,,,,,,,,,,,,,,0.216684028,-0.464895833,0,0,0,,,,,,,DIVER,HB,z,y,./images/DIVERHB.png,,,,,,,,z,1,0.5842,,,,,,,,0,58,58,93,1
,,,,,,,,,,,,,,,,,198973,18,2022-01-28_23h57.20.248,lexical_decision_task_DD_L2,2021.2.3,MacIntel,59.99880002,,,,,,,,,,,0.6505,1,,,,,,,,,,,,,,,,,,,,,,,,0.216684028,-0.464895833,0,0,0,,,,,,,BANANA,LB,z,y,./images/BANANALB.png,,,,,,,,z,1,0.6505,,,,,,,,0,59,59,154,1
,,,,,,,,,,,,,,,,,198973,18,2022-01-28_23h57.20.248,lexical_decision_task_DD_L2,2021.2.3,MacIntel,59.99880002,,,,,,,,,,,0.6216,1,,,,,,,,,,,,,,,,,,,,,,,,0.216684028,-0.464895833,0,0,0,,,,,,,SNACK,LB,m,y,./images/SNACKLB.png,,,,,,,,m,1,0.6216,,,,,,,,0,60,60,73,1
,,,,,,,,,,,,,,,,,198973,18,2022-01-28_23h57.20.248,lexical_decision_task_DD_L2,2021.2.3,MacIntel,59.99880002,,,,,,,,,,,0.5378,1,,,,,,,,,,,,,,,,,,,,,,,,0.216684028,-0.464895833,0,0,0,,,,,,,DONKEY,LB,z,y,./images/DONKEYLB.png,,,,,,,,z,1,0.5378,,,,,,,,0,61,61,103,1
,,,,,,,,,,,,,,,,,198973,18,2022-01-28_23h57.20.248,lexical_decision_task_DD_L2,2021.2.3,MacIntel,59.99880002,,,,,,,,,,,0.5926,1,,,,,,,,,,,,,,,,,,,,,,,,0.216684028,-0.464895833,0,0,0,,,,,,,WALNUT,HB,z,y,./images/WALNUTHB.png,,,,,,,,z,1,0.5926,,,,,,,,0,62,62,84,1
,,,,,,,,,,,,,,,,,198973,18,2022-01-28_23h57.20.248,lexical_decision_task_DD_L2,2021.2.3,MacIntel,59.99880002,,,,,,,,,,,0.6342,1,,,,,,,,,,,,,,,,,,,,,,,,0.216684028,-0.464895833,0,0,0,,,,,,,SKIING,C,m,y,./images/SKIING.png,,,,,,,,m,1,0.6342,,,,,,,,0,63,63,17,1
,,,,,,,,,,,,,,,,,198973,18,2022-01-28_23h57.20.248,lexical_decision_task_DD_L2,2021.2.3,MacIntel,59.99880002,,,,,,,,,,,0.55,1,,,,,,,,,,,,,,,,,,,,,,,,0.216684028,-0.464895833,0,0,0,,,,,,,ONION,HB,m,y,./images/ONIONHB.png,,,,,,,,m,1,0.55,,,,,,,,0,64,64,51,1
,,,,,,,,,,,,,,,,,198973,18,2022-01-28_23h57.20.248,lexical_decision_task_DD_L2,2021.2.3,MacIntel,59.99880002,,,,,,,,,,,0.8232,1,,,,,,,,,,,,,,,,,,,,,,,,0.216684028,-0.464895833,0,0,0,,,,,,,MUSCLE,LB,m,y,./images/MUSCLELB.png,,,,,,,,m,1,0.8232,,,,,,,,0,65,65,4,1
,,,,,,,,,,,,,,,,,198973,18,2022-01-28_23h57.20.248,lexical_decision_task_DD_L2,2021.2.3,MacIntel,59.99880002,,,,,,,,,,,0.8811,0,,,,,,,,,,,,,,,,,,,,,,,,0.216684028,-0.464895833,0,0,0,,,,,,,FINGER,HB,m,y,./images/FINGERHB.png,,,,,,,,z,0,0.8811,,,,,,,,0,66,66,3,1
,,,,,,,,,,,,,,,,,198973,18,2022-01-28_23h57.20.248,lexical_decision_task_DD_L2,2021.2.3,MacIntel,59.99880002,,,,,,,,,,,0.6148,1,,,,,,,,,,,,,,,,,,,,,,,,0.216684028,-0.464895833,0,0,0,,,,,,,GLOVE,LB,z,y,./images/GLOVELB.png,,,,,,,,z,1,0.6148,,,,,,,,0,67,67,157,1
,,,,,,,,,,,,,,,,,198973,18,2022-01-28_23h57.20.248,lexical_decision_task_DD_L2,2021.2.3,MacIntel,59.99880002,,,,,,,,,,,1.0065,0,,,,,,,,,,,,,,,,,,,,,,,,0.216684028,-0.464895833,0,0,0,,,,,,,GARDEN,LB,z,y,./images/GARDENLB.png,,,,,,,,m,0,1.0065,,,,,,,,0,68,68,94,1
,,,,,,,,,,,,,,,,,198973,18,2022-01-28_23h57.20.248,lexical_decision_task_DD_L2,2021.2.3,MacIntel,59.99880002,,,,,,,,,,,0.6852,0,,,,,,,,,,,,,,,,,,,,,,,,0.216684028,-0.464895833,0,0,0,,,,,,,BERRY,C,m,y,./images/BERRY.png,,,,,,,,z,0,0.6852,,,,,,,,0,69,69,47,1
,,,,,,,,,,,,,,,,,198973,18,2022-01-28_23h57.20.248,lexical_decision_task_DD_L2,2021.2.3,MacIntel,59.99880002,,,,,,,,,,,0.649,1,,,,,,,,,,,,,,,,,,,,,,,,0.216684028,-0.464895833,0,0,0,,,,,,,PARCEL,HB,z,y,./images/PARCELHB.png,,,,,,,,z,1,0.649,,,,,,,,0,70,70,102,1
,,,,,,,,,,,,,,,,,198973,18,2022-01-28_23h57.20.248,lexical_decision_task_DD_L2,2021.2.3,MacIntel,59.99880002,,,,,,,,,,,2.1681,1,,,,,,,,,,,,,,,,,,,,,,,,0.216684028,-0.464895833,0,0,0,,,,,,,MOSQUE,LB,m,y,./images/MOSQUELB.png,,,,,,,,m,1,2.1681,,,,,,,,0,71,71,43,1
,,,,,,,,,,,,,,,,,198973,18,2022-01-28_23h57.20.248,lexical_decision_task_DD_L2,2021.2.3,MacIntel,59.99880002,,,,,,,,,,,0.7919,1,,,,,,,,,,,,,,,,,,,,,,,,0.216684028,-0.464895833,0,0,0,,,,,,,DRUMS,LB,m,y,./images/DRUMSLB.png,,,,,,,,m,1,0.7919,,,,,,,,0,72,72,49,1
,,,,,,,,,,,,,,,,,198973,18,2022-01-28_23h57.20.248,lexical_decision_task_DD_L2,2021.2.3,MacIntel,59.99880002,,,,,,,,,,,1.4489,1,,,,,,,,,,,,,,,,,,,,,,,,0.216684028,-0.464895833,0,0,0,,,,,,,GRANNY,C,z,y,./images/GRANNY.png,,,,,,,,z,1,1.4489,,,,,,,,0,73,73,104,1
,,,,,,,,,,,,,,,,,198973,18,2022-01-28_23h57.20.248,lexical_decision_task_DD_L2,2021.2.3,MacIntel,59.99880002,,,,,,,,,,,1.3843,1,,,,,,,,,,,,,,,,,,,,,,,,0.216684028,-0.464895833,0,0,0,,,,,,,JUNGLE,C,m,y,./images/JUNGLE.png,,,,,,,,m,1,1.3843,,,,,,,,0,74,74,83,1
,,,,,,,,,,,,,,,,,198973,18,2022-01-28_23h57.20.248,lexical_decision_task_DD_L2,2021.2.3,MacIntel,59.99880002,,,,,,,,,,,1.1307,1,,,,,,,,,,,,,,,,,,,,,,,,0.216684028,-0.464895833,0,0,0,,,,,,,PEBBLE,LB,z,y,./images/PEBBLELB.png,,,,,,,,z,1,1.1307,,,,,,,,0,75,75,166,1
,,,,,,,,,,,,,,,,,198973,18,2022-01-28_23h57.20.248,lexical_decision_task_DD_L2,2021.2.3,MacIntel,59.99880002,,,,,,,,,,,0.7673,1,,,,,,,,,,,,,,,,,,,,,,,,0.216684028,-0.464895833,0,0,0,,,,,,,SAUNA,HB,z,y,./images/SAUNAHB.png,,,,,,,,z,1,0.7673,,,,,,,,0,76,76,117,1
,,,,,,,,,,,,,,,,,198973,18,2022-01-28_23h57.20.248,lexical_decision_task_DD_L2,2021.2.3,MacIntel,59.99880002,,,,,,,,,,,0.8207,1,,,,,,,,,,,,,,,,,,,,,,,,0.216684028,-0.464895833,0,0,0,,,,,,,NOOSE,HB,m,y,./images/NOOSEHB.png,,,,,,,,m,1,0.8207,,,,,,,,0,77,77,72,1
,,,,,,,,,,,,,,,,,198973,18,2022-01-28_23h57.20.248,lexical_decision_task_DD_L2,2021.2.3,MacIntel,59.99880002,,,,,,,,,,,2.5407,1,,,,,,,,,,,,,,,,,,,,,,,,0.216684028,-0.464895833,0,0,0,,,,,,,SCREW,HB,m,y,./images/SCREWHB.png,,,,,,,,m,1,2.5407,,,,,,,,0,78,78,24,1
,,,,,,,,,,,,,,,,,198973,18,2022-01-28_23h57.20.248,lexical_decision_task_DD_L2,2021.2.3,MacIntel,59.99880002,,,,,,,,,,,0.65,1,,,,,,,,,,,,,,,,,,,,,,,,0.216684028,-0.464895833,0,0,0,,,,,,,MIDGET,LB,z,y,./images/MIDGETLB.png,,,,,,,,z,1,0.65,,,,,,,,0,79,79,160,1
,,,,,,,,,,,,,,,,,198973,18,2022-01-28_23h57.20.248,lexical_decision_task_DD_L2,2021.2.3,MacIntel,59.99880002,,,,,,,,,,,0.7072,0,,,,,,,,,,,,,,,,,,,,,,,,0.216684028,-0.464895833,0,0,0,,,,,,,CRADLE,C,m,y,./images/CRADLE.png,,,,,,,,z,0,0.7072,,,,,,,,0,80,80,20,1
,,,,,,,,,,,,,,,,,198973,18,2022-01-28_23h57.20.248,lexical_decision_task_DD_L2,2021.2.3,MacIntel,59.99880002,,,,,,,,,,,1.519,0,,,,,,,,,,,,,,,,,,,,,,,,0.216684028,-0.464895833,0,0,0,,,,,,,PACKET,C,m,y,./images/PACKET.png,,,,,,,,z,0,1.519,,,,,,,,0,81,81,56,1
,,,,,,,,,,,,,,,,,198973,18,2022-01-28_23h57.20.248,lexical_decision_task_DD_L2,2021.2.3,MacIntel,59.99880002,,,,,,,,,,,1.717,1,,,,,,,,,,,,,,,,,,,,,,,,0.216684028,-0.464895833,0,0,0,,,,,,,PLANET,C,z,y,./images/PLANET.png,,,,,,,,z,1,1.717,,,,,,,,0,82,82,164,1
,,,,,,,,,,,,,,,,,198973,18,2022-01-28_23h57.20.248,lexical_decision_task_DD_L2,2021.2.3,MacIntel,59.99880002,,,,,,,,,,,1.3361,1,,,,,,,,,,,,,,,,,,,,,,,,0.216684028,-0.464895833,0,0,0,space,,,,,,MAMMAL,C,z,y,./images/MAMMAL.png,197.6137,,,,,,,z,1,1.3361,,,,,,,,0,83,83,146,1
,,,,,,,,,,,,,,,,,198973,18,2022-01-28_23h57.20.248,lexical_decision_task_DD_L2,2021.2.3,MacIntel,59.99880002,,,,,,,,,,,1.3178,1,,,,,,,,,,,,,,,,,,,,,,,,0.216684028,-0.464895833,0,0,0,,,,,,,WALRUS,C,m,y,./images/WALRUS.png,,,,,,,,m,1,1.3178,,,,,,,,0,84,84,23,1
,,,,,,,,,,,,,,,,,198973,18,2022-01-28_23h57.20.248,lexical_decision_task_DD_L2,2021.2.3,MacIntel,59.99880002,,,,,,,,,,,0.6494,1,,,,,,,,,,,,,,,,,,,,,,,,0.216684028,-0.464895833,0,0,0,,,,,,,CLOWN,LB,z,y,./images/CLOWNLB.png,,,,,,,,z,1,0.6494,,,,,,,,0,85,85,106,1
,,,,,,,,,,,,,,,,,198973,18,2022-01-28_23h57.20.248,lexical_decision_task_DD_L2,2021.2.3,MacIntel,59.99880002,,,,,,,,,,,0.5671,1,,,,,,,,,,,,,,,,,,,,,,,,0.216684028,-0.464895833,0,0,0,,,,,,,RULER,LB,z,y,./images/RULERLB.png,,,,,,,,z,1,0.5671,,,,,,,,0,86,86,163,1
,,,,,,,,,,,,,,,,,198973,18,2022-01-28_23h57.20.248,lexical_decision_task_DD_L2,2021.2.3,MacIntel,59.99880002,,,,,,,,,,,0.6258,1,,,,,,,,,,,,,,,,,,,,,,,,0.216684028,-0.464895833,0,0,0,,,,,,,JELLY,LB,m,y,./images/JELLYLB.png,,,,,,,,m,1,0.6258,,,,,,,,0,87,87,64,1
,,,,,,,,,,,,,,,,,198973,18,2022-01-28_23h57.20.248,lexical_decision_task_DD_L2,2021.2.3,MacIntel,59.99880002,,,,,,,,,,,3.1359,0,,,,,,,,,,,,,,,,,,,,,,,,0.216684028,-0.464895833,0,0,0,,,,,,,HOCKEY,C,z,y,./images/HOCKEY.png,,,,,,,,m,0,3.1359,,,,,,,,0,88,88,116,1
,,,,,,,,,,,,,,,,,198973,18,2022-01-28_23h57.20.248,lexical_decision_task_DD_L2,2021.2.3,MacIntel,59.99880002,,,,,,,,,,,0.6641,1,,,,,,,,,,,,,,,,,,,,,,,,0.216684028,-0.464895833,0,0,0,,,,,,,BONNET,C,m,y,./images/BONNET.png,,,,,,,,m,1,0.6641,,,,,,,,0,89,89,11,1
,,,,,,,,,,,,,,,,,198973,18,2022-01-28_23h57.20.248,lexical_decision_task_DD_L2,2021.2.3,MacIntel,59.99880002,,,,,,,,,,,0.8926,1,,,,,,,,,,,,,,,,,,,,,,,,0.216684028,-0.464895833,0,0,0,,,,,,,CHAIN,HB,z,y,./images/CHAINHB.png,,,,,,,,z,1,0.8926,,,,,,,,0,90,90,126,1
,,,,,,,,,,,,,,,,,198973,18,2022-01-28_23h57.20.248,lexical_decision_task_DD_L2,2021.2.3,MacIntel,59.99880002,,,,,,,,,,,0.7008,1,,,,,,,,,,,,,,,,,,,,,,,,0.216684028,-0.464895833,0,0,0,,,,,,,PIMPLE,C,m,y,./images/PIMPLE.png,,,,,,,,m,1,0.7008,,,,,,,,0,91,91,71,1
,,,,,,,,,,,,,,,,,198973,18,2022-01-28_23h57.20.248,lexical_decision_task_DD_L2,2021.2.3,MacIntel,59.99880002,,,,,,,,,,,0.9642,1,,,,,,,,,,,,,,,,,,,,,,,,0.216684028,-0.464895833,0,0,0,,,,,,,BRUSH,C,z,y,./images/BRUSH.png,,,,,,,,z,1,0.9642,,,,,,,,0,92,92,143,1
,,,,,,,,,,,,,,,,,198973,18,2022-01-28_23h57.20.248,lexical_decision_task_DD_L2,2021.2.3,MacIntel,59.99880002,,,,,,,,,,,0.6178,1,,,,,,,,,,,,,,,,,,,,,,,,0.216684028,-0.464895833,0,0,0,,,,,,,ATTIC,HB,m,y,./images/ATTICHB.png,,,,,,,,m,1,0.6178,,,,,,,,0,93,93,27,1
,,,,,,,,,,,,,,,,,198973,18,2022-01-28_23h57.20.248,lexical_decision_task_DD_L2,2021.2.3,MacIntel,59.99880002,,,,,,,,,,,0.8519,1,,,,,,,,,,,,,,,,,,,,,,,,0.216684028,-0.464895833,0,0,0,,,,,,,LIZARD,C,m,y,./images/LIZARD.png,,,,,,,,m,1,0.8519,,,,,,,,0,94,94,44,1
,,,,,,,,,,,,,,,,,198973,18,2022-01-28_23h57.20.248,lexical_decision_task_DD_L2,2021.2.3,MacIntel,59.99880002,,,,,,,,,,,0.6182,1,,,,,,,,,,,,,,,,,,,,,,,,0.216684028,-0.464895833,0,0,0,,,,,,,CRUST,LB,m,y,./images/CRUSTLB.png,,,,,,,,m,1,0.6182,,,,,,,,0,95,95,79,1
,,,,,,,,,,,,,,,,,198973,18,2022-01-28_23h57.20.248,lexical_decision_task_DD_L2,2021.2.3,MacIntel,59.99880002,,,,,,,,,,,0.7498,1,,,,,,,,,,,,,,,,,,,,,,,,0.216684028,-0.464895833,0,0,0,,,,,,,CASINO,LB,z,y,./images/CASINOLB.png,,,,,,,,z,1,0.7498,,,,,,,,0,96,96,112,1
,,,,,,,,,,,,,,,,,198973,18,2022-01-28_23h57.20.248,lexical_decision_task_DD_L2,2021.2.3,MacIntel,59.99880002,,,,,,,,,,,0.6525,1,,,,,,,,,,,,,,,,,,,,,,,,0.216684028,-0.464895833,0,0,0,,,,,,,SWING,LB,m,y,./images/SWINGLB.png,,,,,,,,m,1,0.6525,,,,,,,,0,97,97,40,1
,,,,,,,,,,,,,,,,,198973,18,2022-01-28_23h57.20.248,lexical_decision_task_DD_L2,2021.2.3,MacIntel,59.99880002,,,,,,,,,,,2.085,0,,,,,,,,,,,,,,,,,,,,,,,,0.216684028,-0.464895833,0,0,0,,,,,,,STOVE,C,z,y,./images/STOVE.png,,,,,,,,m,0,2.085,,,,,,,,0,98,98,86,1
,,,,,,,,,,,,,,,,,198973,18,2022-01-28_23h57.20.248,lexical_decision_task_DD_L2,2021.2.3,MacIntel,59.99880002,,,,,,,,,,,0.6005,1,,,,,,,,,,,,,,,,,,,,,,,,0.216684028,-0.464895833,0,0,0,,,,,,,GREASE,HB,m,y,./images/GREASEHB.png,,,,,,,,m,1,0.6005,,,,,,,,0,99,99,15,1
,,,,,,,,,,,,,,,,,198973,18,2022-01-28_23h57.20.248,lexical_decision_task_DD_L2,2021.2.3,MacIntel,59.99880002,,,,,,,,,,,0.5339,1,,,,,,,,,,,,,,,,,,,,,,,,0.216684028,-0.464895833,0,0,0,,,,,,,TORCH,C,m,y,./images/TORCH.png,,,,,,,,m,1,0.5339,,,,,,,,0,100,100,68,1
,,,,,,,,,,,,,,,,,198973,18,2022-01-28_23h57.20.248,lexical_decision_task_DD_L2,2021.2.3,MacIntel,59.99880002,,,,,,,,,,,0.6332,1,,,,,,,,,,,,,,,,,,,,,,,,0.216684028,-0.464895833,0,0,0,,,,,,,JAGUAR,HB,m,y,./images/JAGUARHB.png,,,,,,,,m,1,0.6332,,,,,,,,0,101,101,18,1
,,,,,,,,,,,,,,,,,198973,18,2022-01-28_23h57.20.248,lexical_decision_task_DD_L2,2021.2.3,MacIntel,59.99880002,,,,,,,,,,,1.475,1,,,,,,,,,,,,,,,,,,,,,,,,0.216684028,-0.464895833,0,0,0,,,,,,,ALLEY,LB,z,y,./images/ALLEYLB.png,,,,,,,,z,1,1.475,,,,,,,,0,102,102,139,1
,,,,,,,,,,,,,,,,,198973,18,2022-01-28_23h57.20.248,lexical_decision_task_DD_L2,2021.2.3,MacIntel,59.99880002,,,,,,,,,,,1.0052,1,,,,,,,,,,,,,,,,,,,,,,,,0.216684028,-0.464895833,0,0,0,,,,,,,PLANK,LB,m,y,./images/PLANKLB.png,,,,,,,,m,1,1.0052,,,,,,,,0,103,103,1,1
,,,,,,,,,,,,,,,,,198973,18,2022-01-28_23h57.20.248,lexical_decision_task_DD_L2,2021.2.3,MacIntel,59.99880002,,,,,,,,,,,3.3692,1,,,,,,,,,,,,,,,,,,,,,,,,0.216684028,-0.464895833,0,0,0,,,,,,,MONKEY,HB,z,y,./images/MONKEYHB.png,,,,,,,,z,1,3.3692,,,,,,,,0,104,104,129,1
,,,,,,,,,,,,,,,,,198973,18,2022-01-28_23h57.20.248,lexical_decision_task_DD_L2,2021.2.3,MacIntel,59.99880002,,,,,,,,,,,0.9826,1,,,,,,,,,,,,,,,,,,,,,,,,0.216684028,-0.464895833,0,0,0,,,,,,,MEDAL,C,z,y,./images/MEDAL.png,,,,,,,,z,1,0.9826,,,,,,,,0,105,105,95,1
,,,,,,,,,,,,,,,,,198973,18,2022-01-28_23h57.20.248,lexical_decision_task_DD_L2,2021.2.3,MacIntel,59.99880002,,,,,,,,,,,1.1662,0,,,,,,,,,,,,,,,,,,,,,,,,0.216684028,-0.464895833,0,0,0,,,,,,,MALLET,C,m,y,./images/MALLET.png,,,,,,,,z,0,1.1662,,,,,,,,0,106,106,50,1
,,,,,,,,,,,,,,,,,198973,18,2022-01-28_23h57.20.248,lexical_decision_task_DD_L2,2021.2.3,MacIntel,59.99880002,,,,,,,,,,,2.6348,1,,,,,,,,,,,,,,,,,,,,,,,,0.216684028,-0.464895833,0,0,0,,,,,,,STEAK,LB,z,y,./images/STEAKLB.png,,,,,,,,z,1,2.6348,,,,,,,,0,107,107,115,1
,,,,,,,,,,,,,,,,,198973,18,2022-01-28_23h57.20.248,lexical_decision_task_DD_L2,2021.2.3,MacIntel,59.99880002,,,,,,,,,,,0.9679,0,,,,,,,,,,,,,,,,,,,,,,,,0.216684028,-0.464895833,0,0,0,,,,,,,BANNER,LB,m,y,./images/BANNERLB.png,,,,,,,,z,0,0.9679,,,,,,,,0,108,108,52,1
,,,,,,,,,,,,,,,,,198973,18,2022-01-28_23h57.20.248,lexical_decision_task_DD_L2,2021.2.3,MacIntel,59.99880002,,,,,,,,,,,0.5317,1,,,,,,,,,,,,,,,,,,,,,,,,0.216684028,-0.464895833,0,0,0,,,,,,,CANDLE,LB,m,y,./images/CANDLELB.png,,,,,,,,m,1,0.5317,,,,,,,,0,109,109,61,1
,,,,,,,,,,,,,,,,,198973,18,2022-01-28_23h57.20.248,lexical_decision_task_DD_L2,2021.2.3,MacIntel,59.99880002,,,,,,,,,,,0.6181,1,,,,,,,,,,,,,,,,,,,,,,,,0.216684028,-0.464895833,0,0,0,,,,,,,ARTIST,LB,z,y,./images/ARTISTLB.png,,,,,,,,z,1,0.6181,,,,,,,,0,110,110,145,1
,,,,,,,,,,,,,,,,,198973,18,2022-01-28_23h57.20.248,lexical_decision_task_DD_L2,2021.2.3,MacIntel,59.99880002,,,,,,,,,,,0.8336,0,,,,,,,,,,,,,,,,,,,,,,,,0.216684028,-0.464895833,0,0,0,,,,,,,MAGGOT,HB,m,y,./images/MAGGOTHB.png,,,,,,,,z,0,0.8336,,,,,,,,0,111,111,33,1
,,,,,,,,,,,,,,,,,198973,18,2022-01-28_23h57.20.248,lexical_decision_task_DD_L2,2021.2.3,MacIntel,59.99880002,,,,,,,,,,,0.6353,0,,,,,,,,,,,,,,,,,,,,,,,,0.216684028,-0.464895833,0,0,0,,,,,,,SUNSET,LB,m,y,./images/SUNSETLB.png,,,,,,,,z,0,0.6353,,,,,,,,0,112,112,82,1
,,,,,,,,,,,,,,,,,198973,18,2022-01-28_23h57.20.248,lexical_decision_task_DD_L2,2021.2.3,MacIntel,59.99880002,,,,,,,,,,,0.7317,1,,,,,,,,,,,,,,,,,,,,,,,,0.216684028,-0.464895833,0,0,0,,,,,,,SPORT,HB,m,y,./images/SPORTHB.png,,,,,,,,m,1,0.7317,,,,,,,,0,113,113,48,1
,,,,,,,,,,,,,,,,,198973,18,2022-01-28_23h57.20.248,lexical_decision_task_DD_L2,2021.2.3,MacIntel,59.99880002,,,,,,,,,,,0.8588,1,,,,,,,,,,,,,,,,,,,,,,,,0.216684028,-0.464895833,0,0,0,,,,,,,WHISKY,C,z,y,./images/WHISKY.png,,,,,,,,z,1,0.8588,,,,,,,,0,114,114,167,1
,,,,,,,,,,,,,,,,,198973,18,2022-01-28_23h57.20.248,lexical_decision_task_DD_L2,2021.2.3,MacIntel,59.99880002,,,,,,,,,,,1.2154,0,,,,,,,,,,,,,,,,,,,,,,,,0.216684028,-0.464895833,0,0,0,,,,,,,BEARD,C,m,y,./images/BEARD.png,,,,,,,,z,0,1.2154,,,,,,,,0,115,115,2,1
,,,,,,,,,,,,,,,,,198973,18,2022-01-28_23h57.20.248,lexical_decision_task_DD_L2,2021.2.3,MacIntel,59.99880002,,,,,,,,,,,0.5566,0,,,,,,,,,,,,,,,,,,,,,,,,0.216684028,-0.464895833,0,0,0,,,,,,,BURIAL,C,m,y,./images/BURIAL.png,,,,,,,,z,0,0.5566,,,,,,,,0,116,116,59,1
,,,,,,,,,,,,,,,,,198973,18,2022-01-28_23h57.20.248,lexical_decision_task_DD_L2,2021.2.3,MacIntel,59.99880002,,,,,,,,,,,1.9424,1,,,,,,,,,,,,,,,,,,,,,,,,0.216684028,-0.464895833,0,0,0,,,,,,,HEATER,C,z,y,./images/HEATER.png,,,,,,,,z,1,1.9424,,,,,,,,0,117,117,140,1
,,,,,,,,,,,,,,,,,198973,18,2022-01-28_23h57.20.248,lexical_decision_task_DD_L2,2021.2.3,MacIntel,59.99880002,,,,,,,,,,,1.7698,1,,,,,,,,,,,,,,,,,,,,,,,,0.216684028,-0.464895833,0,0,0,,,,,,,ENGINE,C,z,y,./images/ENGINE.png,,,,,,,,z,1,1.7698,,,,,,,,0,118,118,122,1
,,,,,,,,,,,,,,,,,198973,18,2022-01-28_23h57.20.248,lexical_decision_task_DD_L2,2021.2.3,MacIntel,59.99880002,,,,,,,,,,,1.7021,0,,,,,,,,,,,,,,,,,,,,,,,,0.216684028,-0.464895833,0,0,0,,,,,,,MELON,LB,m,y,./images/MELONLB.png,,,,,,,,z,0,1.7021,,,,,,,,0,119,119,22,1
,,,,,,,,,,,,,,,,,198973,18,2022-01-28_23h57.20.248,lexical_decision_task_DD_L2,2021.2.3,MacIntel,59.99880002,,,,,,,,,,,1.4519,1,,,,,,,,,,,,,,,,,,,,,,,,0.216684028,-0.464895833,0,0,0,,,,,,,BAMBOO,C,z,y,./images/BAMBOO.png,,,,,,,,z,1,1.4519,,,,,,,,0,120,120,89,1
,,,,,,,,,,,,,,,,,198973,18,2022-01-28_23h57.20.248,lexical_decision_task_DD_L2,2021.2.3,MacIntel,59.99880002,,,,,,,,,,,1.4631,1,,,,,,,,,,,,,,,,,,,,,,,,0.216684028,-0.464895833,0,0,0,,,,,,,COOKER,HB,m,y,./images/COOKERHB.png,,,,,,,,m,1,1.4631,,,,,,,,0,121,121,69,1
,,,,,,,,,,,,,,,,,198973,18,2022-01-28_23h57.20.248,lexical_decision_task_DD_L2,2021.2.3,MacIntel,59.99880002,,,,,,,,,,,0.5817,1,,,,,,,,,,,,,,,,,,,,,,,,0.216684028,-0.464895833,0,0,0,,,,,,,DRILL,HB,z,y,./images/DRILLHB.png,,,,,,,,z,1,0.5817,,,,,,,,0,122,122,165,1
,,,,,,,,,,,,,,,,,198973,18,2022-01-28_23h57.20.248,lexical_decision_task_DD_L2,2021.2.3,MacIntel,59.99880002,,,,,,,,,,,1.7592,1,,,,,,,,,,,,,,,,,,,,,,,,0.216684028,-0.464895833,0,0,0,,,,,,,TIGER,LB,z,y,./images/TIGERLB.png,,,,,,,,z,1,1.7592,,,,,,,,0,123,123,121,1
,,,,,,,,,,,,,,,,,198973,18,2022-01-28_23h57.20.248,lexical_decision_task_DD_L2,2021.2.3,MacIntel,59.99880002,,,,,,,,,,,0.5755,1,,,,,,,,,,,,,,,,,,,,,,,,0.216684028,-0.464895833,0,0,0,,,,,,,LADDER,C,m,y,./images/LADDER.png,,,,,,,,m,1,0.5755,,,,,,,,0,124,124,38,1
,,,,,,,,,,,,,,,,,198973,18,2022-01-28_23h57.20.248,lexical_decision_task_DD_L2,2021.2.3,MacIntel,59.99880002,,,,,,,,,,,1.2416,0,,,,,,,,,,,,,,,,,,,,,,,,0.216684028,-0.464895833,0,0,0,space,,,,,,FARMER,C,m,y,./images/FARMER.png,160.8059,,,,,,,z,0,1.2416,,,,,,,,0,125,125,65,1
,,,,,,,,,,,,,,,,,198973,18,2022-01-28_23h57.20.248,lexical_decision_task_DD_L2,2021.2.3,MacIntel,59.99880002,,,,,,,,,,,0.8977,0,,,,,,,,,,,,,,,,,,,,,,,,0.216684028,-0.464895833,0,0,0,,,,,,,QUILL,LB,m,y,./images/QUILLLB.png,,,,,,,,z,0,0.8977,,,,,,,,0,126,126,31,1
,,,,,,,,,,,,,,,,,198973,18,2022-01-28_23h57.20.248,lexical_decision_task_DD_L2,2021.2.3,MacIntel,59.99880002,,,,,,,,,,,0.6758,1,,,,,,,,,,,,,,,,,,,,,,,,0.216684028,-0.464895833,0,0,0,,,,,,,DANCER,HB,z,y,./images/DANCERHB.png,,,,,,,,z,1,0.6758,,,,,,,,0,127,127,105,1
,,,,,,,,,,,,,,,,,198973,18,2022-01-28_23h57.20.248,lexical_decision_task_DD_L2,2021.2.3,MacIntel,59.99880002,,,,,,,,,,,0.5689,1,,,,,,,,,,,,,,,,,,,,,,,,0.216684028,-0.464895833,0,0,0,,,,,,,CRUMB,C,m,y,./images/CRUMB.png,,,,,,,,m,1,0.5689,,,,,,,,0,128,128,29,1
,,,,,,,,,,,,,,,,,198973,18,2022-01-28_23h57.20.248,lexical_decision_task_DD_L2,2021.2.3,MacIntel,59.99880002,,,,,,,,,,,0.5482,1,,,,,,,,,,,,,,,,,,,,,,,,0.216684028,-0.464895833,0,0,0,,,,,,,WRIST,LB,m,y,./images/WRISTLB.png,,,,,,,,m,1,0.5482,,,,,,,,0,129,129,25,1
,,,,,,,,,,,,,,,,,198973,18,2022-01-28_23h57.20.248,lexical_decision_task_DD_L2,2021.2.3,MacIntel,59.99880002,,,,,,,,,,,1.1247,1,,,,,,,,,,,,,,,,,,,,,,,,0.216684028,-0.464895833,0,0,0,,,,,,,RHINO,HB,m,y,./images/RHINOHB.png,,,,,,,,m,1,1.1247,,,,,,,,0,130,130,9,1
,,,,,,,,,,,,,,,,,198973,18,2022-01-28_23h57.20.248,lexical_decision_task_DD_L2,2021.2.3,MacIntel,59.99880002,,,,,,,,,,,0.6349,1,,,,,,,,,,,,,,,,,,,,,,,,0.216684028,-0.464895833,0,0,0,,,,,,,BUNNY,LB,z,y,./images/BUNNYLB.png,,,,,,,,z,1,0.6349,,,,,,,,0,131,131,97,1
,,,,,,,,,,,,,,,,,198973,18,2022-01-28_23h57.20.248,lexical_decision_task_DD_L2,2021.2.3,MacIntel,59.99880002,,,,,,,,,,,0.6831,1,,,,,,,,,,,,,,,,,,,,,,,,0.216684028,-0.464895833,0,0,0,,,,,,,WEASEL,C,m,y,./images/WEASEL.png,,,,,,,,m,1,0.6831,,,,,,,,0,132,132,80,1
,,,,,,,,,,,,,,,,,198973,18,2022-01-28_23h57.20.248,lexical_decision_task_DD_L2,2021.2.3,MacIntel,59.99880002,,,,,,,,,,,1.2873,1,,,,,,,,,,,,,,,,,,,,,,,,0.216684028,-0.464895833,0,0,0,,,,,,,CANOE,LB,z,y,./images/CANOELB.png,,,,,,,,z,1,1.2873,,,,,,,,0,133,133,142,1
,,,,,,,,,,,,,,,,,198973,18,2022-01-28_23h57.20.248,lexical_decision_task_DD_L2,2021.2.3,MacIntel,59.99880002,,,,,,,,,,,0.7837,1,,,,,,,,,,,,,,,,,,,,,,,,0.216684028,-0.464895833,0,0,0,,,,,,,TRIPOD,HB,m,y,./images/TRIPODHB.png,,,,,,,,m,1,0.7837,,,,,,,,0,134,134,54,1
,,,,,,,,,,,,,,,,,198973,18,2022-01-28_23h57.20.248,lexical_decision_task_DD_L2,2021.2.3,MacIntel,59.99880002,,,,,,,,,,,3.5576,0,,,,,,,,,,,,,,,,,,,,,,,,0.216684028,-0.464895833,0,0,0,,,,,,,BIRTH,LB,m,y,./images/BIRTHLB.png,,,,,,,,z,0,3.5576,,,,,,,,0,135,135,37,1
,,,,,,,,,,,,,,,,,198973,18,2022-01-28_23h57.20.248,lexical_decision_task_DD_L2,2021.2.3,MacIntel,59.99880002,,,,,,,,,,,0.617,1,,,,,,,,,,,,,,,,,,,,,,,,0.216684028,-0.464895833,0,0,0,,,,,,,PEACH,C,m,y,./images/PEACH.png,,,,,,,,m,1,0.617,,,,,,,,0,136,136,35,1
,,,,,,,,,,,,,,,,,198973,18,2022-01-28_23h57.20.248,lexical_decision_task_DD_L2,2021.2.3,MacIntel,59.99880002,,,,,,,,,,,0.6683,1,,,,,,,,,,,,,,,,,,,,,,,,0.216684028,-0.464895833,0,0,0,,,,,,,POODLE,HB,m,y,./images/POODLEHB.png,,,,,,,,m,1,0.6683,,,,,,,,0,137,137,81,1
,,,,,,,,,,,,,,,,,198973,18,2022-01-28_23h57.20.248,lexical_decision_task_DD_L2,2021.2.3,MacIntel,59.99880002,,,,,,,,,,,1.3421,1,,,,,,,,,,,,,,,,,,,,,,,,0.216684028,-0.464895833,0,0,0,,,,,,,URINE,LB,m,y,./images/URINELB.png,,,,,,,,m,1,1.3421,,,,,,,,0,138,138,70,1
,,,,,,,,,,,,,,,,,198973,18,2022-01-28_23h57.20.248,lexical_decision_task_DD_L2,2021.2.3,MacIntel,59.99880002,,,,,,,,,,,3.4577,1,,,,,,,,,,,,,,,,,,,,,,,,0.216684028,-0.464895833,0,0,0,,,,,,,BOXER,LB,z,y,./images/BOXERLB.png,,,,,,,,z,1,3.4577,,,,,,,,0,139,139,88,1
,,,,,,,,,,,,,,,,,198973,18,2022-01-28_23h57.20.248,lexical_decision_task_DD_L2,2021.2.3,MacIntel,59.99880002,,,,,,,,,,,0.6999,1,,,,,,,,,,,,,,,,,,,,,,,,0.216684028,-0.464895833,0,0,0,,,,,,,CURRY,HB,z,y,./images/CURRYHB.png,,,,,,,,z,1,0.6999,,,,,,,,0,140,140,144,1
,,,,,,,,,,,,,,,,,198973,18,2022-01-28_23h57.20.248,lexical_decision_task_DD_L2,2021.2.3,MacIntel,59.99880002,,,,,,,,,,,0.6011,1,,,,,,,,,,,,,,,,,,,,,,,,0.216684028,-0.464895833,0,0,0,,,,,,,CANYON,LB,m,y,./images/CANYONLB.png,,,,,,,,m,1,0.6011,,,,,,,,0,141,141,34,1
,,,,,,,,,,,,,,,,,198973,18,2022-01-28_23h57.20.248,lexical_decision_task_DD_L2,2021.2.3,MacIntel,59.99880002,,,,,,,,,,,1.5757,1,,,,,,,,,,,,,,,,,,,,,,,,0.216684028,-0.464895833,0,0,0,,,,,,,STORM,HB,m,y,./images/STORMHB.png,,,,,,,,m,1,1.5757,,,,,,,,0,142,142,30,1
,,,,,,,,,,,,,,,,,198973,18,2022-01-28_23h57.20.248,lexical_decision_task_DD_L2,2021.2.3,MacIntel,59.99880002,,,,,,,,,,,0.8627,0,,,,,,,,,,,,,,,,,,,,,,,,0.216684028,-0.464895833,0,0,0,,,,,,,MUMMY,LB,z,y,./images/MUMMYLB.png,,,,,,,,m,0,0.8627,,,,,,,,0,143,143,130,1
,,,,,,,,,,,,,,,,,198973,18,2022-01-28_23h57.20.248,lexical_decision_task_DD_L2,2021.2.3,MacIntel,59.99880002,,,,,,,,,,,0.6051,0,,,,,,,,,,,,,,,,,,,,,,,,0.216684028,-0.464895833,0,0,0,,,,,,,FOLDER,HB,m,y,./images/FOLDERHB.png,,,,,,,,z,0,0.6051,,,,,,,,0,144,144,42,1
,,,,,,,,,,,,,,,,,198973,18,2022-01-28_23h57.20.248,lexical_decision_task_DD_L2,2021.2.3,MacIntel,59.99880002,,,,,,,,,,,0.6713,1,,,,,,,,,,,,,,,,,,,,,,,,0.216684028,-0.464895833,0,0,0,,,,,,,FLASK,HB,z,y,./images/FLASKHB.png,,,,,,,,z,1,0.6713,,,,,,,,0,145,145,156,1
,,,,,,,,,,,,,,,,,198973,18,2022-01-28_23h57.20.248,lexical_decision_task_DD_L2,2021.2.3,MacIntel,59.99880002,,,,,,,,,,,3.9676,1,,,,,,,,,,,,,,,,,,,,,,,,0.216684028,-0.464895833,0,0,0,,,,,,,TWINS,HB,m,y,./images/TWINSHB.png,,,,,,,,m,1,3.9676,,,,,,,,0,146,146,60,1
,,,,,,,,,,,,,,,,,198973,18,2022-01-28_23h57.20.248,lexical_decision_task_DD_L2,2021.2.3,MacIntel,59.99880002,,,,,,,,,,,0.6387,1,,,,,,,,,,,,,,,,,,,,,,,,0.216684028,-0.464895833,0,0,0,,,,,,,STAIN,HB,z,y,./images/STAINHB.png,,,,,,,,z,1,0.6387,,,,,,,,0,147,147,90,1
,,,,,,,,,,,,,,,,,198973,18,2022-01-28_23h57.20.248,lexical_decision_task_DD_L2,2021.2.3,MacIntel,59.99880002,,,,,,,,,,,1.9805,1,,,,,,,,,,,,,,,,,,,,,,,,0.216684028,-0.464895833,0,0,0,,,,,,,PAINT,LB,m,y,./images/PAINTLB.png,,,,,,,,m,1,1.9805,,,,,,,,0,148,148,7,1
,,,,,,,,,,,,,,,,,198973,18,2022-01-28_23h57.20.248,lexical_decision_task_DD_L2,2021.2.3,MacIntel,59.99880002,,,,,,,,,,,1.7056,1,,,,,,,,,,,,,,,,,,,,,,,,0.216684028,-0.464895833,0,0,0,,,,,,,PILOT,C,z,y,./images/PILOT.png,,,,,,,,z,1,1.7056,,,,,,,,0,149,149,134,1
,,,,,,,,,,,,,,,,,198973,18,2022-01-28_23h57.20.248,lexical_decision_task_DD_L2,2021.2.3,MacIntel,59.99880002,,,,,,,,,,,1.1922,1,,,,,,,,,,,,,,,,,,,,,,,,0.216684028,-0.464895833,0,0,0,,,,,,,LAGOON,C,z,y,./images/LAGOON.png,,,,,,,,z,1,1.1922,,,,,,,,0,150,150,131,1
,,,,,,,,,,,,,,,,,198973,18,2022-01-28_23h57.20.248,lexical_decision_task_DD_L2,2021.2.3,MacIntel,59.99880002,,,,,,,,,,,1.2997,1,,,,,,,,,,,,,,,,,,,,,,,,0.216684028,-0.464895833,0,0,0,,,,,,,LLAMA,C,z,y,./images/LLAMA.png,,,,,,,,z,1,1.2997,,,,,,,,0,151,151,119,1
,,,,,,,,,,,,,,,,,198973,18,2022-01-28_23h57.20.248,lexical_decision_task_DD_L2,2021.2.3,MacIntel,59.99880002,,,,,,,,,,,0.7548,1,,,,,,,,,,,,,,,,,,,,,,,,0.216684028,-0.464895833,0,0,0,,,,,,,SPINE,C,z,y,./images/SPINE.png,,,,,,,,z,1,0.7548,,,,,,,,0,152,152,149,1
,,,,,,,,,,,,,,,,,198973,18,2022-01-28_23h57.20.248,lexical_decision_task_DD_L2,2021.2.3,MacIntel,59.99880002,,,,,,,,,,,2.2682,1,,,,,,,,,,,,,,,,,,,,,,,,0.216684028,-0.464895833,0,0,0,,,,,,,SHIELD,HB,z,y,./images/SHIELDHB.png,,,,,,,,z,1,2.2682,,,,,,,,0,153,153,132,1
,,,,,,,,,,,,,,,,,198973,18,2022-01-28_23h57.20.248,lexical_decision_task_DD_L2,2021.2.3,MacIntel,59.99880002,,,,,,,,,,,0.8491,0,,,,,,,,,,,,,,,,,,,,,,,,0.216684028,-0.464895833,0,0,0,,,,,,,BELLY,LB,m,y,./images/BELLYLB.png,,,,,,,,z,0,0.8491,,,,,,,,0,154,154,10,1
,,,,,,,,,,,,,,,,,198973,18,2022-01-28_23h57.20.248,lexical_decision_task_DD_L2,2021.2.3,MacIntel,59.99880002,,,,,,,,,,,1.0329,1,,,,,,,,,,,,,,,,,,,,,,,,0.216684028,-0.464895833,0,0,0,,,,,,,SNAKE,LB,z,y,./images/SNAKELB.png,,,,,,,,z,1,1.0329,,,,,,,,0,155,155,124,1
,,,,,,,,,,,,,,,,,198973,18,2022-01-28_23h57.20.248,lexical_decision_task_DD_L2,2021.2.3,MacIntel,59.99880002,,,,,,,,,,,0.819,1,,,,,,,,,,,,,,,,,,,,,,,,0.216684028,-0.464895833,0,0,0,,,,,,,BABOON,LB,m,y,./images/BABOONLB.png,,,,,,,,m,1,0.819,,,,,,,,0,156,156,58,1
,,,,,,,,,,,,,,,,,198973,18,2022-01-28_23h57.20.248,lexical_decision_task_DD_L2,2021.2.3,MacIntel,59.99880002,,,,,,,,,,,3.2353,0,,,,,,,,,,,,,,,,,,,,,,,,0.216684028,-0.464895833,0,0,0,,,,,,,KITTEN,HB,m,y,./images/KITTENHB.png,,,,,,,,z,0,3.2353,,,,,,,,0,157,157,45,1
,,,,,,,,,,,,,,,,,198973,18,2022-01-28_23h57.20.248,lexical_decision_task_DD_L2,2021.2.3,MacIntel,59.99880002,,,,,,,,,,,1.0016,0,,,,,,,,,,,,,,,,,,,,,,,,0.216684028,-0.464895833,0,0,0,,,,,,,PEARL,LB,m,y,./images/PEARLLB.png,,,,,,,,z,0,1.0016,,,,,,,,0,158,158,46,1
,,,,,,,,,,,,,,,,,198973,18,2022-01-28_23h57.20.248,lexical_decision_task_DD_L2,2021.2.3,MacIntel,59.99880002,,,,,,,,,,,0.8179,0,,,,,,,,,,,,,,,,,,,,,,,,0.216684028,-0.464895833,0,0,0,,,,,,,PICKLE,C,m,y,./images/PICKLE.png,,,,,,,,z,0,0.8179,,,,,,,,0,159,159,14,1
,,,,,,,,,,,,,,,,,198973,18,2022-01-28_23h57.20.248,lexical_decision_task_DD_L2,2021.2.3,MacIntel,59.99880002,,,,,,,,,,,1.0581,1,,,,,,,,,,,,,,,,,,,,,,,,0.216684028,-0.464895833,0,0,0,,,,,,,SHELF,HB,m,y,./images/SHELFHB.png,,,,,,,,m,1,1.0581,,,,,,,,0,160,160,39,1
,,,,,,,,,,,,,,,,,198973,18,2022-01-28_23h57.20.248,lexical_decision_task_DD_L2,2021.2.3,MacIntel,59.99880002,,,,,,,,,,,0.6683,1,,,,,,,,,,,,,,,,,,,,,,,,0.216684028,-0.464895833,0,0,0,,,,,,,PARADE,C,z,y,./images/PARADE.png,,,,,,,,z,1,0.6683,,,,,,,,0,161,161,101,1
,,,,,,,,,,,,,,,,,198973,18,2022-01-28_23h57.20.248,lexical_decision_task_DD_L2,2021.2.3,MacIntel,59.99880002,,,,,,,,,,,0.5861,1,,,,,,,,,,,,,,,,,,,,,,,,0.216684028,-0.464895833,0,0,0,,,,,,,PISTOL,C,z,y,./images/PISTOL.png,,,,,,,,z,1,0.5861,,,,,,,,0,162,162,113,1
,,,,,,,,,,,,,,,,,198973,18,2022-01-28_23h57.20.248,lexical_decision_task_DD_L2,2021.2.3,MacIntel,59.99880002,,,,,,,,,,,0.6811,1,,,,,,,,,,,,,,,,,,,,,,,,0.216684028,-0.464895833,0,0,0,,,,,,,CARPET,C,m,y,./images/CARPET.png,,,,,,,,m,1,0.6811,,,,,,,,0,163,163,53,1
,,,,,,,,,,,,,,,,,198973,18,2022-01-28_23h57.20.248,lexical_decision_task_DD_L2,2021.2.3,MacIntel,59.99880002,,,,,,,,,,,0.9016,0,,,,,,,,,,,,,,,,,,,,,,,,0.216684028,-0.464895833,0,0,0,,,,,,,WAGON,LB,z,y,./images/WAGONLB.png,,,,,,,,m,0,0.9016,,,,,,,,0,164,164,91,1
,,,,,,,,,,,,,,,,,198973,18,2022-01-28_23h57.20.248,lexical_decision_task_DD_L2,2021.2.3,MacIntel,59.99880002,,,,,,,,,,,0.6024,1,,,,,,,,,,,,,,,,,,,,,,,,0.216684028,-0.464895833,0,0,0,,,,,,,TULIP,C,m,y,./images/TULIP.png,,,,,,,,m,1,0.6024,,,,,,,,0,165,165,8,1
,,,,,,,,,,,,,,,,,198973,18,2022-01-28_23h57.20.248,lexical_decision_task_DD_L2,2021.2.3,MacIntel,59.99880002,,,,,,,,,,,0.6008,1,,,,,,,,,,,,,,,,,,,,,,,,0.216684028,-0.464895833,0,0,0,,,,,,,PURSE,C,m,y,./images/PURSE.png,,,,,,,,m,1,0.6008,,,,,,,,0,166,166,62,1
,,,,,,,,,,,,,,,,,198973,18,2022-01-28_23h57.20.248,lexical_decision_task_DD_L2,2021.2.3,MacIntel,59.99880002,,,,,,,,,,,1.6022,1,,,,,,,,,,,,,,,,,,,,,,,,-0.010980903,-0.368324653,0,0,0,,,,,,,CHALK,LB,z,y,./images/CHALKLB.png,,,,,,,,z,1,1.6022,,,,,,,,0,167,167,109,1
