key_resp.keys,instr_done_touch.x,instr_done_touch.y,instr_done_touch.leftButton,instr_done_touch.midButton,instr_done_touch.rightButton,instr_done_touch.clicked_name,instruction_pages.thisRepN,instruction_pages.thisTrialN,instruction_pages.thisN,instruction_pages.thisIndex,instruction_pages.ran,pageN,phase,instruct_text,has_image,instruct_image,participant,age,date,expName,psychopyVersion,OS,frameRate,response.keys,response.corr,response.rt,touch_resp.x,touch_resp.y,touch_resp.leftButton,touch_resp.midButton,touch_resp.rightButton,touch_resp.time,touch_resp.clicked_name,rt,corr,practrials.thisRepN,practrials.thisTrialN,practrials.thisN,practrials.thisIndex,practrials.ran,TrialID,Target,corrAns,end_of_practice_trials_pages.thisRepN,end_of_practice_trials_pages.thisTrialN,end_of_practice_trials_pages.thisN,end_of_practice_trials_pages.thisIndex,end_of_practice_trials_pages.ran,key_resp_2.keys,key_resp_2.corr,key_resp_2.rt,targ_click.x,targ_click.y,targ_click.leftButton,targ_click.midButton,targ_click.rightButton,targ_click.time,targ_click.clicked_name,break_done_touch.x,break_done_touch.y,break_done_touch.leftButton,break_done_touch.midButton,break_done_touch.rightButton,break_done_keyboard.keys,maintrials.thisRepN,maintrials.thisTrialN,maintrials.thisN,maintrials.thisIndex,maintrials.ran,string,blur,study,lex,stim_path,break_done_keyboard.rt,test_instructions.thisRepN,test_instructions.thisTrialN,test_instructions.thisN,test_instructions.thisIndex,test_instructions.ran,key_resp.rt,key_resp_3.keys,key_resp_3.corr,key_resp_3.rt,test_click.x,test_click.y,test_click.leftButton,test_click.midButton,test_click.rightButton,test_click.time,test_click.clicked_name,test_phase.thisRepN,test_phase.thisTrialN,test_phase.thisN,test_phase.thisIndex,test_phase.ran
,-0.025182699,-0.369161784,1,0,0,instr_done_button,0,0,0,0,1,1,instructions,"INSTRUCTIONS
At the start of each trial, look at the plus sign  (+) in the center of the screen.  This tells you that a trial is about to begin and where to look. Second, the plus sign will disappear and a string of letters will appear. Your task is to determine if the string of letters is a word or not. If the item is a word press the M key (on keyboard)  or touch the word button (phone/tablet).  If the item is not a word,  press the  Z key (on keyboard)  or touch the nonword button (on phone/tablet). 
Press the space bar or touch  continue.",0,,199039,19,2022-01-29_16h42.30.964,lexical_decision_task_DD_L5,2021.2.3,MacIntel,60.0024001,,,,,,,,,,,,,,,,,,,,,,,,,,,,,,,,,,,,,,,,,,,,,,,,,,,,,,,,,,,,,,,,,,,,,,,,,
,-0.042731459,-0.382903171,1,0,0,instr_done_button,0,1,1,1,1,2,instructions,"If your device has a keyboard, press the 'Z' key for nonwords and the 'M' key for words.





Press the space bar or touch the button below to continue.",0,keyboard-example.gif,199039,19,2022-01-29_16h42.30.964,lexical_decision_task_DD_L5,2021.2.3,MacIntel,60.0024001,,,,,,,,,,,,,,,,,,,,,,,,,,,,,,,,,,,,,,,,,,,,,,,,,,,,,,,,,,,,,,,,,,,,,,,,,
,-0.040371094,-0.38236301,1,0,0,instr_done_button,0,2,2,2,1,3,instructions,"If you are using a touchscreen only device, use the buttons on the screen. Do not use the mouse.





Press the space bar or touch the button below to continue.",0,touchscreen-example.gif,199039,19,2022-01-29_16h42.30.964,lexical_decision_task_DD_L5,2021.2.3,MacIntel,60.0024001,,,,,,,,,,,,,,,,,,,,,,,,,,,,,,,,,,,,,,,,,,,,,,,,,,,,,,,,,,,,,,,,,,,,,,,,,
,-0.069452989,-0.401807522,1,0,0,instr_done_button,0,3,3,3,1,4,instructions,"It is very important that you respond as quickly and accurately as possible, as each letter string will only be on the screen for two seconds. If you do not respond within this time, the message 'Too slow!' will be displayed and the experiment will progress to the next letter string. The first 20 trials will be practice trials and you will receive feedback on your answers. 

Press the space bar or touch the button below to start the practice trials.",0,,199039,19,2022-01-29_16h42.30.964,lexical_decision_task_DD_L5,2021.2.3,MacIntel,60.0024001,,,,,,,,,,,,,,,,,,,,,,,,,,,,,,,,,,,,,,,,,,,,,,,,,,,,,,,,,,,,,,,,,,,,,,,,,
,,,,,,,,,,,,,,,,,199039,19,2022-01-29_16h42.30.964,lexical_decision_task_DD_L5,2021.2.3,MacIntel,60.0024001,m,1,3.55,,,,,,,,3.55,1,0,0,0,1,1,1001,ADJUST,m,,,,,,,,,,,,,,,,,,,,,,,,,,,,,,,,,,,,,,,,,,,,,,,,,,,,,
,,,,,,,,,,,,,,,,,199039,19,2022-01-29_16h42.30.964,lexical_decision_task_DD_L5,2021.2.3,MacIntel,60.0024001,z,1,3.2988,,,,,,,,3.2988,1,0,1,1,9,1,1001,FARINY,z,,,,,,,,,,,,,,,,,,,,,,,,,,,,,,,,,,,,,,,,,,,,,,,,,,,,,
,,,,,,,,,,,,,,,,,199039,19,2022-01-29_16h42.30.964,lexical_decision_task_DD_L5,2021.2.3,MacIntel,60.0024001,m,1,1.3843,,,,,,,,1.3843,1,0,2,2,6,1,1001,ZOMBIE,m,,,,,,,,,,,,,,,,,,,,,,,,,,,,,,,,,,,,,,,,,,,,,,,,,,,,,
,,,,,,,,,,,,,,,,,199039,19,2022-01-29_16h42.30.964,lexical_decision_task_DD_L5,2021.2.3,MacIntel,60.0024001,z,1,2.1705,,,,,,,,2.1705,1,0,3,3,10,1,1001,INLADE,z,,,,,,,,,,,,,,,,,,,,,,,,,,,,,,,,,,,,,,,,,,,,,,,,,,,,,
,,,,,,,,,,,,,,,,,199039,19,2022-01-29_16h42.30.964,lexical_decision_task_DD_L5,2021.2.3,MacIntel,60.0024001,m,1,1.1932,,,,,,,,1.1932,1,0,4,4,4,1,1001,SQUEAK,m,,,,,,,,,,,,,,,,,,,,,,,,,,,,,,,,,,,,,,,,,,,,,,,,,,,,,
,,,,,,,,,,,,,,,,,199039,19,2022-01-29_16h42.30.964,lexical_decision_task_DD_L5,2021.2.3,MacIntel,60.0024001,z,1,2.5652,,,,,,,,2.5652,1,0,5,5,11,1,1001,RASHET,z,,,,,,,,,,,,,,,,,,,,,,,,,,,,,,,,,,,,,,,,,,,,,,,,,,,,,
,,,,,,,,,,,,,,,,,199039,19,2022-01-29_16h42.30.964,lexical_decision_task_DD_L5,2021.2.3,MacIntel,60.0024001,m,1,1.5163,,,,,,,,1.5163,1,0,6,6,3,1,1001,MATRIX,m,,,,,,,,,,,,,,,,,,,,,,,,,,,,,,,,,,,,,,,,,,,,,,,,,,,,,
,,,,,,,,,,,,,,,,,199039,19,2022-01-29_16h42.30.964,lexical_decision_task_DD_L5,2021.2.3,MacIntel,60.0024001,m,1,1.3735,,,,,,,,1.3735,1,0,7,7,7,1,1001,VOLUME,m,,,,,,,,,,,,,,,,,,,,,,,,,,,,,,,,,,,,,,,,,,,,,,,,,,,,,
,,,,,,,,,,,,,,,,,199039,19,2022-01-29_16h42.30.964,lexical_decision_task_DD_L5,2021.2.3,MacIntel,60.0024001,m,1,1.0144,,,,,,,,1.0144,1,0,8,8,5,1,1001,OBTAIN,m,,,,,,,,,,,,,,,,,,,,,,,,,,,,,,,,,,,,,,,,,,,,,,,,,,,,,
,,,,,,,,,,,,,,,,,199039,19,2022-01-29_16h42.30.964,lexical_decision_task_DD_L5,2021.2.3,MacIntel,60.0024001,z,1,1.2299,,,,,,,,1.2299,1,0,9,9,13,1,1001,ROUPET,z,,,,,,,,,,,,,,,,,,,,,,,,,,,,,,,,,,,,,,,,,,,,,,,,,,,,,
,,,,,,,,,,,,,,,,,199039,19,2022-01-29_16h42.30.964,lexical_decision_task_DD_L5,2021.2.3,MacIntel,60.0024001,m,1,2.3493,,,,,,,,2.3493,1,0,10,10,0,1,1001,UTOPIA,m,,,,,,,,,,,,,,,,,,,,,,,,,,,,,,,,,,,,,,,,,,,,,,,,,,,,,
,,,,,,,,,,,,,,,,,199039,19,2022-01-29_16h42.30.964,lexical_decision_task_DD_L5,2021.2.3,MacIntel,60.0024001,z,1,1.7336,,,,,,,,1.7336,1,0,11,11,14,1,1001,THRALE,z,,,,,,,,,,,,,,,,,,,,,,,,,,,,,,,,,,,,,,,,,,,,,,,,,,,,,
,,,,,,,,,,,,,,,,,199039,19,2022-01-29_16h42.30.964,lexical_decision_task_DD_L5,2021.2.3,MacIntel,60.0024001,m,1,1.0218,,,,,,,,1.0218,1,0,12,12,2,1,1001,ALMOND,m,,,,,,,,,,,,,,,,,,,,,,,,,,,,,,,,,,,,,,,,,,,,,,,,,,,,,
,,,,,,,,,,,,,,,,,199039,19,2022-01-29_16h42.30.964,lexical_decision_task_DD_L5,2021.2.3,MacIntel,60.0024001,z,1,1.2133,,,,,,,,1.2133,1,0,13,13,15,1,1001,WHAISE,z,,,,,,,,,,,,,,,,,,,,,,,,,,,,,,,,,,,,,,,,,,,,,,,,,,,,,
,,,,,,,,,,,,,,,,,199039,19,2022-01-29_16h42.30.964,lexical_decision_task_DD_L5,2021.2.3,MacIntel,60.0024001,z,1,0.9614,,,,,,,,0.9614,1,0,14,14,12,1,1001,SPRINY,z,,,,,,,,,,,,,,,,,,,,,,,,,,,,,,,,,,,,,,,,,,,,,,,,,,,,,
,,,,,,,,,,,,,,,,,199039,19,2022-01-29_16h42.30.964,lexical_decision_task_DD_L5,2021.2.3,MacIntel,60.0024001,z,1,2.1199,,,,,,,,2.1199,1,0,15,15,8,1,1001,ASLERT,z,,,,,,,,,,,,,,,,,,,,,,,,,,,,,,,,,,,,,,,,,,,,,,,,,,,,,
,-0.059332275,-0.395001492,1,0,0,instr_done_button,,,,,,1,end_of_practice,"You have completed the practice trials. During the experimental trials, you will not receive feedback. 
Before you begin, please ensure that you are in a comfortable and quiet location and will not be disturbed for about 15 minutes, as we cannot use your data if you do not complete all the trials. 
 When you are ready to start the experimental trials, please press space or touch the button below.",,,199039,19,2022-01-29_16h42.30.964,lexical_decision_task_DD_L5,2021.2.3,MacIntel,60.0024001,,,,,,,,,,,,,,,,,,,,,0,0,0,0,1,,,,,,,,,,,,,,,,,,,,,,,,,,,,,,,,,,,,,,,,,,,,,,,,
,,,,,,,,,,,,,,,,,199039,19,2022-01-29_16h42.30.964,lexical_decision_task_DD_L5,2021.2.3,MacIntel,60.0024001,,,,,,,,,,,1.7947,1,,,,,,,,,,,,,,z,1,1.7947,,,,,,,,0.201482612,0.062327508,0,0,0,,0,0,0,105,1,MOKER,C,old,z,./images/MOKER.png,,,,,,,,,,,,,,,,,,,,,,
,,,,,,,,,,,,,,,,,199039,19,2022-01-29_16h42.30.964,lexical_decision_task_DD_L5,2021.2.3,MacIntel,60.0024001,,,,,,,,,,,2.4992,1,,,,,,,,,,,,,,z,1,2.4992,,,,,,,,0.201482612,0.062327508,0,0,0,,0,1,1,134,1,TROSS,LB,old,z,./images/TROSSLB.png,,,,,,,,,,,,,,,,,,,,,,
,,,,,,,,,,,,,,,,,199039,19,2022-01-29_16h42.30.964,lexical_decision_task_DD_L5,2021.2.3,MacIntel,60.0024001,,,,,,,,,,,1.5011,1,,,,,,,,,,,,,,z,1,1.5011,,,,,,,,0.201482612,0.062327508,0,0,0,,0,2,2,167,1,ZONET,LB,old,z,./images/ZONETLB.png,,,,,,,,,,,,,,,,,,,,,,
,,,,,,,,,,,,,,,,,199039,19,2022-01-29_16h42.30.964,lexical_decision_task_DD_L5,2021.2.3,MacIntel,60.0024001,,,,,,,,,,,1.0612,1,,,,,,,,,,,,,,m,1,1.0612,,,,,,,,0.201482612,0.062327508,0,0,0,,0,3,3,41,1,STREAM,C,old,m,./images/STREAM.png,,,,,,,,,,,,,,,,,,,,,,
,,,,,,,,,,,,,,,,,199039,19,2022-01-29_16h42.30.964,lexical_decision_task_DD_L5,2021.2.3,MacIntel,60.0024001,,,,,,,,,,,1.7105,1,,,,,,,,,,,,,,z,1,1.7105,,,,,,,,0.201482612,0.062327508,0,0,0,,0,4,4,147,1,ZOLES,C,old,z,./images/ZOLES.png,,,,,,,,,,,,,,,,,,,,,,
,,,,,,,,,,,,,,,,,199039,19,2022-01-29_16h42.30.964,lexical_decision_task_DD_L5,2021.2.3,MacIntel,60.0024001,,,,,,,,,,,1.78,1,,,,,,,,,,,,,,z,1,1.78,,,,,,,,0.201482612,0.062327508,0,0,0,,0,5,5,95,1,HANTY,LB,old,z,./images/HANTYLB.png,,,,,,,,,,,,,,,,,,,,,,
,,,,,,,,,,,,,,,,,199039,19,2022-01-29_16h42.30.964,lexical_decision_task_DD_L5,2021.2.3,MacIntel,60.0024001,,,,,,,,,,,1.5176,1,,,,,,,,,,,,,,m,1,1.5176,,,,,,,,0.201482612,0.062327508,0,0,0,,0,6,6,57,1,FERRY,HB,old,m,./images/FERRYHB.png,,,,,,,,,,,,,,,,,,,,,,
,,,,,,,,,,,,,,,,,199039,19,2022-01-29_16h42.30.964,lexical_decision_task_DD_L5,2021.2.3,MacIntel,60.0024001,,,,,,,,,,,1.1418,1,,,,,,,,,,,,,,m,1,1.1418,,,,,,,,0.201482612,0.062327508,0,0,0,,0,7,7,8,1,CLIFF,C,old,m,./images/CLIFF.png,,,,,,,,,,,,,,,,,,,,,,
,,,,,,,,,,,,,,,,,199039,19,2022-01-29_16h42.30.964,lexical_decision_task_DD_L5,2021.2.3,MacIntel,60.0024001,,,,,,,,,,,1.7829,1,,,,,,,,,,,,,,z,1,1.7829,,,,,,,,0.201482612,0.062327508,0,0,0,,0,8,8,92,1,PAIMS,LB,old,z,./images/PAIMSLB.png,,,,,,,,,,,,,,,,,,,,,,
,,,,,,,,,,,,,,,,,199039,19,2022-01-29_16h42.30.964,lexical_decision_task_DD_L5,2021.2.3,MacIntel,60.0024001,,,,,,,,,,,1.8441,1,,,,,,,,,,,,,,m,1,1.8441,,,,,,,,0.201482612,0.062327508,0,0,0,,0,9,9,36,1,BOILER,HB,old,m,./images/BOILERHB.png,,,,,,,,,,,,,,,,,,,,,,
,,,,,,,,,,,,,,,,,199039,19,2022-01-29_16h42.30.964,lexical_decision_task_DD_L5,2021.2.3,MacIntel,60.0024001,,,,,,,,,,,1.0289,1,,,,,,,,,,,,,,m,1,1.0289,,,,,,,,0.201482612,0.062327508,0,0,0,,0,10,10,11,1,MEDAL,C,old,m,./images/MEDAL.png,,,,,,,,,,,,,,,,,,,,,,
,,,,,,,,,,,,,,,,,199039,19,2022-01-29_16h42.30.964,lexical_decision_task_DD_L5,2021.2.3,MacIntel,60.0024001,,,,,,,,,,,3.5591,0,,,,,,,,,,,,,,m,0,3.5591,,,,,,,,0.201482612,0.062327508,0,0,0,,0,11,11,151,1,TINKY,HB,old,z,./images/TINKYHB.png,,,,,,,,,,,,,,,,,,,,,,
,,,,,,,,,,,,,,,,,199039,19,2022-01-29_16h42.30.964,lexical_decision_task_DD_L5,2021.2.3,MacIntel,60.0024001,,,,,,,,,,,1.4274,1,,,,,,,,,,,,,,z,1,1.4274,,,,,,,,0.201482612,0.062327508,0,0,0,,0,12,12,117,1,STEEG,C,old,z,./images/STEEG.png,,,,,,,,,,,,,,,,,,,,,,
,,,,,,,,,,,,,,,,,199039,19,2022-01-29_16h42.30.964,lexical_decision_task_DD_L5,2021.2.3,MacIntel,60.0024001,,,,,,,,,,,0.7492,1,,,,,,,,,,,,,,m,1,0.7492,,,,,,,,0.201482612,0.062327508,0,0,0,,0,13,13,43,1,STOOL,LB,old,m,./images/STOOLLB.png,,,,,,,,,,,,,,,,,,,,,,
,,,,,,,,,,,,,,,,,199039,19,2022-01-29_16h42.30.964,lexical_decision_task_DD_L5,2021.2.3,MacIntel,60.0024001,,,,,,,,,,,1.7769,1,,,,,,,,,,,,,,z,1,1.7769,,,,,,,,0.201482612,0.062327508,0,0,0,,0,14,14,160,1,VEETS,HB,old,z,./images/VEETSHB.png,,,,,,,,,,,,,,,,,,,,,,
,,,,,,,,,,,,,,,,,199039,19,2022-01-29_16h42.30.964,lexical_decision_task_DD_L5,2021.2.3,MacIntel,60.0024001,,,,,,,,,,,1.9097,1,,,,,,,,,,,,,,z,1,1.9097,,,,,,,,0.201482612,0.062327508,0,0,0,,0,15,15,97,1,CHIDS,HB,old,z,./images/CHIDSHB.png,,,,,,,,,,,,,,,,,,,,,,
,,,,,,,,,,,,,,,,,199039,19,2022-01-29_16h42.30.964,lexical_decision_task_DD_L5,2021.2.3,MacIntel,60.0024001,,,,,,,,,,,0.8997,1,,,,,,,,,,,,,,m,1,0.8997,,,,,,,,0.201482612,0.062327508,0,0,0,,0,16,16,81,1,DRILL,HB,old,m,./images/DRILLHB.png,,,,,,,,,,,,,,,,,,,,,,
,,,,,,,,,,,,,,,,,199039,19,2022-01-29_16h42.30.964,lexical_decision_task_DD_L5,2021.2.3,MacIntel,60.0024001,,,,,,,,,,,0.8,1,,,,,,,,,,,,,,m,1,0.8,,,,,,,,0.201482612,0.062327508,0,0,0,,0,17,17,39,1,CANDY,HB,old,m,./images/CANDYHB.png,,,,,,,,,,,,,,,,,,,,,,
,,,,,,,,,,,,,,,,,199039,19,2022-01-29_16h42.30.964,lexical_decision_task_DD_L5,2021.2.3,MacIntel,60.0024001,,,,,,,,,,,0.7641,1,,,,,,,,,,,,,,m,1,0.7641,,,,,,,,0.201482612,0.062327508,0,0,0,,0,18,18,73,1,GLOVE,LB,old,m,./images/GLOVELB.png,,,,,,,,,,,,,,,,,,,,,,
,,,,,,,,,,,,,,,,,199039,19,2022-01-29_16h42.30.964,lexical_decision_task_DD_L5,2021.2.3,MacIntel,60.0024001,,,,,,,,,,,3.2643,1,,,,,,,,,,,,,,z,1,3.2643,,,,,,,,0.201482612,0.062327508,0,0,0,,0,19,19,111,1,HOSSE,C,old,z,./images/HOSSE.png,,,,,,,,,,,,,,,,,,,,,,
,,,,,,,,,,,,,,,,,199039,19,2022-01-29_16h42.30.964,lexical_decision_task_DD_L5,2021.2.3,MacIntel,60.0024001,,,,,,,,,,,0.6904,1,,,,,,,,,,,,,,m,1,0.6904,,,,,,,,0.201482612,0.062327508,0,0,0,,0,20,20,46,1,MUMMY,LB,old,m,./images/MUMMYLB.png,,,,,,,,,,,,,,,,,,,,,,
,,,,,,,,,,,,,,,,,199039,19,2022-01-29_16h42.30.964,lexical_decision_task_DD_L5,2021.2.3,MacIntel,60.0024001,,,,,,,,,,,0.7463,1,,,,,,,,,,,,,,m,1,0.7463,,,,,,,,0.201482612,0.062327508,0,0,0,,0,21,21,26,1,CLOUD,C,old,m,./images/CLOUD.png,,,,,,,,,,,,,,,,,,,,,,
,,,,,,,,,,,,,,,,,199039,19,2022-01-29_16h42.30.964,lexical_decision_task_DD_L5,2021.2.3,MacIntel,60.0024001,,,,,,,,,,,0.9983,1,,,,,,,,,,,,,,z,1,0.9983,,,,,,,,0.201482612,0.062327508,0,0,0,,0,22,22,164,1,SGREW,LB,old,z,./images/SGREWLB.png,,,,,,,,,,,,,,,,,,,,,,
,,,,,,,,,,,,,,,,,199039,19,2022-01-29_16h42.30.964,lexical_decision_task_DD_L5,2021.2.3,MacIntel,60.0024001,,,,,,,,,,,0.8604,1,,,,,,,,,,,,,,m,1,0.8604,,,,,,,,0.201482612,0.062327508,0,0,0,,0,23,23,58,1,CANOE,LB,old,m,./images/CANOELB.png,,,,,,,,,,,,,,,,,,,,,,
,,,,,,,,,,,,,,,,,199039,19,2022-01-29_16h42.30.964,lexical_decision_task_DD_L5,2021.2.3,MacIntel,60.0024001,,,,,,,,,,,1.2999,1,,,,,,,,,,,,,,z,1,1.2999,,,,,,,,0.201482612,0.062327508,0,0,0,,0,24,24,124,1,TUNCH,HB,old,z,./images/TUNCHHB.png,,,,,,,,,,,,,,,,,,,,,,
,,,,,,,,,,,,,,,,,199039,19,2022-01-29_16h42.30.964,lexical_decision_task_DD_L5,2021.2.3,MacIntel,60.0024001,,,,,,,,,,,1.6496,1,,,,,,,,,,,,,,z,1,1.6496,,,,,,,,0.201482612,0.062327508,0,0,0,,0,25,25,107,1,FASKS,LB,old,z,./images/FASKSLB.png,,,,,,,,,,,,,,,,,,,,,,
,,,,,,,,,,,,,,,,,199039,19,2022-01-29_16h42.30.964,lexical_decision_task_DD_L5,2021.2.3,MacIntel,60.0024001,,,,,,,,,,,0.6324,1,,,,,,,,,,,,,,m,1,0.6324,,,,,,,,0.201482612,0.062327508,0,0,0,,0,26,26,2,1,STOVE,C,old,m,./images/STOVE.png,,,,,,,,,,,,,,,,,,,,,,
,,,,,,,,,,,,,,,,,199039,19,2022-01-29_16h42.30.964,lexical_decision_task_DD_L5,2021.2.3,MacIntel,60.0024001,,,,,,,,,,,0.6263,1,,,,,,,,,,,,,,m,1,0.6263,,,,,,,,0.201482612,0.062327508,0,0,0,,0,27,27,44,1,BASKET,C,old,m,./images/BASKET.png,,,,,,,,,,,,,,,,,,,,,,
,,,,,,,,,,,,,,,,,199039,19,2022-01-29_16h42.30.964,lexical_decision_task_DD_L5,2021.2.3,MacIntel,60.0024001,,,,,,,,,,,1.1288,1,,,,,,,,,,,,,,m,1,1.1288,,,,,,,,0.201482612,0.062327508,0,0,0,,0,28,28,7,1,WAGON,LB,old,m,./images/WAGONLB.png,,,,,,,,,,,,,,,,,,,,,,
,,,,,,,,,,,,,,,,,199039,19,2022-01-29_16h42.30.964,lexical_decision_task_DD_L5,2021.2.3,MacIntel,60.0024001,,,,,,,,,,,0.8143,1,,,,,,,,,,,,,,z,1,0.8143,,,,,,,,0.201482612,0.062327508,0,0,0,,0,29,29,137,1,JOOST,LB,old,z,./images/JOOSTLB.png,,,,,,,,,,,,,,,,,,,,,,
,,,,,,,,,,,,,,,,,199039,19,2022-01-29_16h42.30.964,lexical_decision_task_DD_L5,2021.2.3,MacIntel,60.0024001,,,,,,,,,,,0.7325,1,,,,,,,,,,,,,,m,1,0.7325,,,,,,,,0.201482612,0.062327508,0,0,0,,0,30,30,34,1,RAZOR,LB,old,m,./images/RAZORLB.png,,,,,,,,,,,,,,,,,,,,,,
,,,,,,,,,,,,,,,,,199039,19,2022-01-29_16h42.30.964,lexical_decision_task_DD_L5,2021.2.3,MacIntel,60.0024001,,,,,,,,,,,1.1487,1,,,,,,,,,,,,,,z,1,1.1487,,,,,,,,0.201482612,0.062327508,0,0,0,,0,31,31,108,1,GRUET,C,old,z,./images/GRUET.png,,,,,,,,,,,,,,,,,,,,,,
,,,,,,,,,,,,,,,,,199039,19,2022-01-29_16h42.30.964,lexical_decision_task_DD_L5,2021.2.3,MacIntel,60.0024001,,,,,,,,,,,1.3578,1,,,,,,,,,,,,,,z,1,1.3578,,,,,,,,0.201482612,0.062327508,0,0,0,,0,32,32,120,1,RINED,C,old,z,./images/RINED.png,,,,,,,,,,,,,,,,,,,,,,
,,,,,,,,,,,,,,,,,199039,19,2022-01-29_16h42.30.964,lexical_decision_task_DD_L5,2021.2.3,MacIntel,60.0024001,,,,,,,,,,,1.8793,1,,,,,,,,,,,,,,z,1,1.8793,,,,,,,,0.201482612,0.062327508,0,0,0,,0,33,33,130,1,CRILL,HB,old,z,./images/CRILLHB.png,,,,,,,,,,,,,,,,,,,,,,
,,,,,,,,,,,,,,,,,199039,19,2022-01-29_16h42.30.964,lexical_decision_task_DD_L5,2021.2.3,MacIntel,60.0024001,,,,,,,,,,,0.8929,1,,,,,,,,,,,,,,m,1,0.8929,,,,,,,,0.201482612,0.062327508,0,0,0,,0,34,34,30,1,SLOPE,HB,old,m,./images/SLOPEHB.png,,,,,,,,,,,,,,,,,,,,,,
,,,,,,,,,,,,,,,,,199039,19,2022-01-29_16h42.30.964,lexical_decision_task_DD_L5,2021.2.3,MacIntel,60.0024001,,,,,,,,,,,0.8152,0,,,,,,,,,,,,,,m,0,0.8152,,,,,,,,0.201482612,0.062327508,0,0,0,,0,35,35,110,1,CRUNK,LB,old,z,./images/CRUNKLB.png,,,,,,,,,,,,,,,,,,,,,,
,,,,,,,,,,,,,,,,,199039,19,2022-01-29_16h42.30.964,lexical_decision_task_DD_L5,2021.2.3,MacIntel,60.0024001,,,,,,,,,,,0.9764,1,,,,,,,,,,,,,,z,1,0.9764,,,,,,,,0.201482612,0.062327508,0,0,0,,0,36,36,161,1,BLAPS,LB,old,z,./images/BLAPSLB.png,,,,,,,,,,,,,,,,,,,,,,
,,,,,,,,,,,,,,,,,199039,19,2022-01-29_16h42.30.964,lexical_decision_task_DD_L5,2021.2.3,MacIntel,60.0024001,,,,,,,,,,,1.4828,0,,,,,,,,,,,,,,m,0,1.4828,,,,,,,,0.201482612,0.062327508,0,0,0,,0,37,37,127,1,NINDY,HB,old,z,./images/NINDYHB.png,,,,,,,,,,,,,,,,,,,,,,
,,,,,,,,,,,,,,,,,199039,19,2022-01-29_16h42.30.964,lexical_decision_task_DD_L5,2021.2.3,MacIntel,60.0024001,,,,,,,,,,,0.6986,1,,,,,,,,,,,,,,m,1,0.6986,,,,,,,,0.201482612,0.062327508,0,0,0,,0,38,38,70,1,BANANA,LB,old,m,./images/BANANALB.png,,,,,,,,,,,,,,,,,,,,,,
,,,,,,,,,,,,,,,,,199039,19,2022-01-29_16h42.30.964,lexical_decision_task_DD_L5,2021.2.3,MacIntel,60.0024001,,,,,,,,,,,0.9409,1,,,,,,,,,,,,,,m,1,0.9409,,,,,,,,0.201482612,0.062327508,0,0,0,,0,39,39,32,1,HOCKEY,C,old,m,./images/HOCKEY.png,,,,,,,,,,,,,,,,,,,,,,
,,,,,,,,,,,,,,,,,199039,19,2022-01-29_16h42.30.964,lexical_decision_task_DD_L5,2021.2.3,MacIntel,60.0024001,,,,,,,,,,,1.3635,1,,,,,,,,,,,,,,z,1,1.3635,,,,,,,,0.201482612,0.062327508,0,0,0,,0,40,40,159,1,CUDDY,C,old,z,./images/CUDDY.png,,,,,,,,,,,,,,,,,,,,,,
,,,,,,,,,,,,,,,,,199039,19,2022-01-29_16h42.30.964,lexical_decision_task_DD_L5,2021.2.3,MacIntel,60.0024001,,,,,,,,,,,0.6086,1,,,,,,,,,,,,,,m,1,0.6086,,,,,,,,0.201482612,0.062327508,0,0,0,space,0,41,41,1,1,TOWEL,LB,old,m,./images/TOWELLB.png,3.4462,,,,,,,,,,,,,,,,,,,,,
,,,,,,,,,,,,,,,,,199039,19,2022-01-29_16h42.30.964,lexical_decision_task_DD_L5,2021.2.3,MacIntel,60.0024001,,,,,,,,,,,0.7601,1,,,,,,,,,,,,,,m,1,0.7601,,,,,,,,0.201482612,0.062327508,0,0,0,,0,42,42,68,1,VALLEY,C,old,m,./images/VALLEY.png,,,,,,,,,,,,,,,,,,,,,,
,,,,,,,,,,,,,,,,,199039,19,2022-01-29_16h42.30.964,lexical_decision_task_DD_L5,2021.2.3,MacIntel,60.0024001,,,,,,,,,,,0.6574,1,,,,,,,,,,,,,,m,1,0.6574,,,,,,,,0.201482612,0.062327508,0,0,0,,0,43,43,5,1,BAMBOO,C,old,m,./images/BAMBOO.png,,,,,,,,,,,,,,,,,,,,,,
,,,,,,,,,,,,,,,,,199039,19,2022-01-29_16h42.30.964,lexical_decision_task_DD_L5,2021.2.3,MacIntel,60.0024001,,,,,,,,,,,0.8434,1,,,,,,,,,,,,,,m,1,0.8434,,,,,,,,0.201482612,0.062327508,0,0,0,,0,44,44,53,1,POSTER,C,old,m,./images/POSTER.png,,,,,,,,,,,,,,,,,,,,,,
,,,,,,,,,,,,,,,,,199039,19,2022-01-29_16h42.30.964,lexical_decision_task_DD_L5,2021.2.3,MacIntel,60.0024001,,,,,,,,,,,0.682,1,,,,,,,,,,,,,,m,1,0.682,,,,,,,,0.201482612,0.062327508,0,0,0,,0,45,45,54,1,CHERRY,HB,old,m,./images/CHERRYHB.png,,,,,,,,,,,,,,,,,,,,,,
,,,,,,,,,,,,,,,,,199039,19,2022-01-29_16h42.30.964,lexical_decision_task_DD_L5,2021.2.3,MacIntel,60.0024001,,,,,,,,,,,0.5809,1,,,,,,,,,,,,,,m,1,0.5809,,,,,,,,0.201482612,0.062327508,0,0,0,,0,46,46,31,1,STEAK,LB,old,m,./images/STEAKLB.png,,,,,,,,,,,,,,,,,,,,,,
,,,,,,,,,,,,,,,,,199039,19,2022-01-29_16h42.30.964,lexical_decision_task_DD_L5,2021.2.3,MacIntel,60.0024001,,,,,,,,,,,0.6823,1,,,,,,,,,,,,,,m,1,0.6823,,,,,,,,0.201482612,0.062327508,0,0,0,,0,47,47,40,1,SNAKE,LB,old,m,./images/SNAKELB.png,,,,,,,,,,,,,,,,,,,,,,
,,,,,,,,,,,,,,,,,199039,19,2022-01-29_16h42.30.964,lexical_decision_task_DD_L5,2021.2.3,MacIntel,60.0024001,,,,,,,,,,,1.0456,1,,,,,,,,,,,,,,z,1,1.0456,,,,,,,,0.201482612,0.062327508,0,0,0,,0,48,48,129,1,PRANS,C,old,z,./images/PRANS.png,,,,,,,,,,,,,,,,,,,,,,
,,,,,,,,,,,,,,,,,199039,19,2022-01-29_16h42.30.964,lexical_decision_task_DD_L5,2021.2.3,MacIntel,60.0024001,,,,,,,,,,,0.7286,1,,,,,,,,,,,,,,m,1,0.7286,,,,,,,,0.201482612,0.062327508,0,0,0,,0,49,49,25,1,CHALK,LB,old,m,./images/CHALKLB.png,,,,,,,,,,,,,,,,,,,,,,
,,,,,,,,,,,,,,,,,199039,19,2022-01-29_16h42.30.964,lexical_decision_task_DD_L5,2021.2.3,MacIntel,60.0024001,,,,,,,,,,,0.5903,1,,,,,,,,,,,,,,m,1,0.5903,,,,,,,,0.201482612,0.062327508,0,0,0,,0,50,50,4,1,BOXER,LB,old,m,./images/BOXERLB.png,,,,,,,,,,,,,,,,,,,,,,
,,,,,,,,,,,,,,,,,199039,19,2022-01-29_16h42.30.964,lexical_decision_task_DD_L5,2021.2.3,MacIntel,60.0024001,,,,,,,,,,,0.6261,0,,,,,,,,,,,,,,z,0,0.6261,,,,,,,,0.201482612,0.062327508,0,0,0,,0,51,51,61,1,ARTIST,LB,old,m,./images/ARTISTLB.png,,,,,,,,,,,,,,,,,,,,,,
,,,,,,,,,,,,,,,,,199039,19,2022-01-29_16h42.30.964,lexical_decision_task_DD_L5,2021.2.3,MacIntel,60.0024001,,,,,,,,,,,1.7639,1,,,,,,,,,,,,,,m,1,1.7639,,,,,,,,0.201482612,0.062327508,0,0,0,,0,52,52,42,1,CHAIN,HB,old,m,./images/CHAINHB.png,,,,,,,,,,,,,,,,,,,,,,
,,,,,,,,,,,,,,,,,199039,19,2022-01-29_16h42.30.964,lexical_decision_task_DD_L5,2021.2.3,MacIntel,60.0024001,,,,,,,,,,,0.7303,1,,,,,,,,,,,,,,m,1,0.7303,,,,,,,,0.201482612,0.062327508,0,0,0,,0,53,53,37,1,TIGER,LB,old,m,./images/TIGERLB.png,,,,,,,,,,,,,,,,,,,,,,
,,,,,,,,,,,,,,,,,199039,19,2022-01-29_16h42.30.964,lexical_decision_task_DD_L5,2021.2.3,MacIntel,60.0024001,,,,,,,,,,,1.3818,1,,,,,,,,,,,,,,z,1,1.3818,,,,,,,,0.201482612,0.062327508,0,0,0,,0,54,54,102,1,DULLE,C,old,z,./images/DULLE.png,,,,,,,,,,,,,,,,,,,,,,
,,,,,,,,,,,,,,,,,199039,19,2022-01-29_16h42.30.964,lexical_decision_task_DD_L5,2021.2.3,MacIntel,60.0024001,,,,,,,,,,,1.8655,1,,,,,,,,,,,,,,z,1,1.8655,,,,,,,,0.201482612,0.062327508,0,0,0,,0,55,55,87,1,TRING,C,old,z,./images/TRING.png,,,,,,,,,,,,,,,,,,,,,,
,,,,,,,,,,,,,,,,,199039,19,2022-01-29_16h42.30.964,lexical_decision_task_DD_L5,2021.2.3,MacIntel,60.0024001,,,,,,,,,,,1.0816,1,,,,,,,,,,,,,,m,1,1.0816,,,,,,,,0.201482612,0.062327508,0,0,0,,0,56,56,3,1,CRATER,HB,old,m,./images/CRATERHB.png,,,,,,,,,,,,,,,,,,,,,,
,,,,,,,,,,,,,,,,,199039,19,2022-01-29_16h42.30.964,lexical_decision_task_DD_L5,2021.2.3,MacIntel,60.0024001,,,,,,,,,,,1.4333,1,,,,,,,,,,,,,,m,1,1.4333,,,,,,,,0.201482612,0.062327508,0,0,0,,0,57,57,78,1,BROOM,HB,old,m,./images/BROOMHB.png,,,,,,,,,,,,,,,,,,,,,,
,,,,,,,,,,,,,,,,,199039,19,2022-01-29_16h42.30.964,lexical_decision_task_DD_L5,2021.2.3,MacIntel,60.0024001,,,,,,,,,,,0.9653,1,,,,,,,,,,,,,,m,1,0.9653,,,,,,,,0.201482612,0.062327508,0,0,0,,0,58,58,51,1,SAUCE,HB,old,m,./images/SAUCEHB.png,,,,,,,,,,,,,,,,,,,,,,
,,,,,,,,,,,,,,,,,199039,19,2022-01-29_16h42.30.964,lexical_decision_task_DD_L5,2021.2.3,MacIntel,60.0024001,,,,,,,,,,,0.9952,1,,,,,,,,,,,,,,z,1,0.9952,,,,,,,,0.201482612,0.062327508,0,0,0,,0,59,59,101,1,GLEET,LB,old,z,./images/GLEETLB.png,,,,,,,,,,,,,,,,,,,,,,
,,,,,,,,,,,,,,,,,199039,19,2022-01-29_16h42.30.964,lexical_decision_task_DD_L5,2021.2.3,MacIntel,60.0024001,,,,,,,,,,,0.7605,1,,,,,,,,,,,,,,m,1,0.7605,,,,,,,,0.201482612,0.062327508,0,0,0,,0,60,60,17,1,PARADE,C,old,m,./images/PARADE.png,,,,,,,,,,,,,,,,,,,,,,
,,,,,,,,,,,,,,,,,199039,19,2022-01-29_16h42.30.964,lexical_decision_task_DD_L5,2021.2.3,MacIntel,60.0024001,,,,,,,,,,,0.9838,1,,,,,,,,,,,,,,z,1,0.9838,,,,,,,,0.201482612,0.062327508,0,0,0,,0,61,61,143,1,MONGS,LB,old,z,./images/MONGSLB.png,,,,,,,,,,,,,,,,,,,,,,
,,,,,,,,,,,,,,,,,199039,19,2022-01-29_16h42.30.964,lexical_decision_task_DD_L5,2021.2.3,MacIntel,60.0024001,,,,,,,,,,,1.1341,1,,,,,,,,,,,,,,z,1,1.1341,,,,,,,,0.201482612,0.062327508,0,0,0,,0,62,62,93,1,SMONE,C,old,z,./images/SMONE.png,,,,,,,,,,,,,,,,,,,,,,
,,,,,,,,,,,,,,,,,199039,19,2022-01-29_16h42.30.964,lexical_decision_task_DD_L5,2021.2.3,MacIntel,60.0024001,,,,,,,,,,,0.6654,1,,,,,,,,,,,,,,m,1,0.6654,,,,,,,,0.201482612,0.062327508,0,0,0,,0,63,63,79,1,RULER,LB,old,m,./images/RULERLB.png,,,,,,,,,,,,,,,,,,,,,,
,,,,,,,,,,,,,,,,,199039,19,2022-01-29_16h42.30.964,lexical_decision_task_DD_L5,2021.2.3,MacIntel,60.0024001,,,,,,,,,,,3.4495,1,,,,,,,,,,,,,,z,1,3.4495,,,,,,,,0.201482612,0.062327508,0,0,0,,0,64,64,157,1,INLER,HB,old,z,./images/INLERHB.png,,,,,,,,,,,,,,,,,,,,,,
,,,,,,,,,,,,,,,,,199039,19,2022-01-29_16h42.30.964,lexical_decision_task_DD_L5,2021.2.3,MacIntel,60.0024001,,,,,,,,,,,1.0334,1,,,,,,,,,,,,,,m,1,1.0334,,,,,,,,0.201482612,0.062327508,0,0,0,,0,65,65,28,1,CASINO,LB,old,m,./images/CASINOLB.png,,,,,,,,,,,,,,,,,,,,,,
,,,,,,,,,,,,,,,,,199039,19,2022-01-29_16h42.30.964,lexical_decision_task_DD_L5,2021.2.3,MacIntel,60.0024001,,,,,,,,,,,1.5134,1,,,,,,,,,,,,,,m,1,1.5134,,,,,,,,0.201482612,0.062327508,0,0,0,,0,66,66,83,1,WHISKY,C,old,m,./images/WHISKY.png,,,,,,,,,,,,,,,,,,,,,,
,,,,,,,,,,,,,,,,,199039,19,2022-01-29_16h42.30.964,lexical_decision_task_DD_L5,2021.2.3,MacIntel,60.0024001,,,,,,,,,,,4.1802,0,,,,,,,,,,,,,,m,0,4.1802,,,,,,,,0.201482612,0.062327508,0,0,0,,0,67,67,136,1,WERVE,HB,old,z,./images/WERVEHB.png,,,,,,,,,,,,,,,,,,,,,,
,,,,,,,,,,,,,,,,,199039,19,2022-01-29_16h42.30.964,lexical_decision_task_DD_L5,2021.2.3,MacIntel,60.0024001,,,,,,,,,,,1.9328,1,,,,,,,,,,,,,,z,1,1.9328,,,,,,,,0.201482612,0.062327508,0,0,0,,0,68,68,148,1,JOMS,HB,old,z,./images/JOMSHB.png,,,,,,,,,,,,,,,,,,,,,,
,,,,,,,,,,,,,,,,,199039,19,2022-01-29_16h42.30.964,lexical_decision_task_DD_L5,2021.2.3,MacIntel,60.0024001,,,,,,,,,,,0.7462,1,,,,,,,,,,,,,,m,1,0.7462,,,,,,,,0.201482612,0.062327508,0,0,0,,0,69,69,64,1,BRIDE,LB,old,m,./images/BRIDELB.png,,,,,,,,,,,,,,,,,,,,,,
,,,,,,,,,,,,,,,,,199039,19,2022-01-29_16h42.30.964,lexical_decision_task_DD_L5,2021.2.3,MacIntel,60.0024001,,,,,,,,,,,1.2912,1,,,,,,,,,,,,,,z,1,1.2912,,,,,,,,0.201482612,0.062327508,0,0,0,,0,70,70,125,1,MOOKY,LB,old,z,./images/MOOKYLB.png,,,,,,,,,,,,,,,,,,,,,,
,,,,,,,,,,,,,,,,,199039,19,2022-01-29_16h42.30.964,lexical_decision_task_DD_L5,2021.2.3,MacIntel,60.0024001,,,,,,,,,,,0.7506,1,,,,,,,,,,,,,,m,1,0.7506,,,,,,,,0.201482612,0.062327508,0,0,0,,0,71,71,56,1,HEATER,C,old,m,./images/HEATER.png,,,,,,,,,,,,,,,,,,,,,,
,,,,,,,,,,,,,,,,,199039,19,2022-01-29_16h42.30.964,lexical_decision_task_DD_L5,2021.2.3,MacIntel,60.0024001,,,,,,,,,,,0.8985,1,,,,,,,,,,,,,,z,1,0.8985,,,,,,,,0.201482612,0.062327508,0,0,0,,0,72,72,155,1,CANGY,LB,old,z,./images/CANGYLB.png,,,,,,,,,,,,,,,,,,,,,,
,,,,,,,,,,,,,,,,,199039,19,2022-01-29_16h42.30.964,lexical_decision_task_DD_L5,2021.2.3,MacIntel,60.0024001,,,,,,,,,,,0.9605,1,,,,,,,,,,,,,,m,1,0.9605,,,,,,,,0.201482612,0.062327508,0,0,0,,0,73,73,18,1,PARCEL,HB,old,m,./images/PARCELHB.png,,,,,,,,,,,,,,,,,,,,,,
,,,,,,,,,,,,,,,,,199039,19,2022-01-29_16h42.30.964,lexical_decision_task_DD_L5,2021.2.3,MacIntel,60.0024001,,,,,,,,,,,0.8645,1,,,,,,,,,,,,,,z,1,0.8645,,,,,,,,0.201482612,0.062327508,0,0,0,,0,74,74,131,1,NACES,LB,old,z,./images/NACESLB.png,,,,,,,,,,,,,,,,,,,,,,
,,,,,,,,,,,,,,,,,199039,19,2022-01-29_16h42.30.964,lexical_decision_task_DD_L5,2021.2.3,MacIntel,60.0024001,,,,,,,,,,,1.3934,1,,,,,,,,,,,,,,m,1,1.3934,,,,,,,,0.201482612,0.062327508,0,0,0,,0,75,75,0,1,WALNUT,HB,old,m,./images/WALNUTHB.png,,,,,,,,,,,,,,,,,,,,,,
,,,,,,,,,,,,,,,,,199039,19,2022-01-29_16h42.30.964,lexical_decision_task_DD_L5,2021.2.3,MacIntel,60.0024001,,,,,,,,,,,0.7785,1,,,,,,,,,,,,,,z,1,0.7785,,,,,,,,0.201482612,0.062327508,0,0,0,,0,76,76,104,1,GITTY,LB,old,z,./images/GITTYLB.png,,,,,,,,,,,,,,,,,,,,,,
,,,,,,,,,,,,,,,,,199039,19,2022-01-29_16h42.30.964,lexical_decision_task_DD_L5,2021.2.3,MacIntel,60.0024001,,,,,,,,,,,1.4994,1,,,,,,,,,,,,,,m,1,1.4994,,,,,,,,0.201482612,0.062327508,0,0,0,,0,77,77,82,1,PEBBLE,LB,old,m,./images/PEBBLELB.png,,,,,,,,,,,,,,,,,,,,,,
,,,,,,,,,,,,,,,,,199039,19,2022-01-29_16h42.30.964,lexical_decision_task_DD_L5,2021.2.3,MacIntel,60.0024001,,,,,,,,,,,0.8802,1,,,,,,,,,,,,,,z,1,0.8802,,,,,,,,0.201482612,0.062327508,0,0,0,,0,78,78,126,1,GUELS,C,old,z,./images/GUELS.png,,,,,,,,,,,,,,,,,,,,,,
,,,,,,,,,,,,,,,,,199039,19,2022-01-29_16h42.30.964,lexical_decision_task_DD_L5,2021.2.3,MacIntel,60.0024001,,,,,,,,,,,0.9492,1,,,,,,,,,,,,,,z,1,0.9492,,,,,,,,0.201482612,0.062327508,0,0,0,,0,79,79,158,1,EGECT,LB,old,z,./images/EGECTLB.png,,,,,,,,,,,,,,,,,,,,,,
,,,,,,,,,,,,,,,,,199039,19,2022-01-29_16h42.30.964,lexical_decision_task_DD_L5,2021.2.3,MacIntel,60.0024001,,,,,,,,,,,0.9736,1,,,,,,,,,,,,,,z,1,0.9736,,,,,,,,0.201482612,0.062327508,0,0,0,,0,80,80,119,1,PAFER,LB,old,z,./images/PAFERLB.png,,,,,,,,,,,,,,,,,,,,,,
,,,,,,,,,,,,,,,,,199039,19,2022-01-29_16h42.30.964,lexical_decision_task_DD_L5,2021.2.3,MacIntel,60.0024001,,,,,,,,,,,0.6111,1,,,,,,,,,,,,,,m,1,0.6111,,,,,,,,0.201482612,0.062327508,0,0,0,,0,81,81,13,1,BUNNY,LB,old,m,./images/BUNNYLB.png,,,,,,,,,,,,,,,,,,,,,,
,,,,,,,,,,,,,,,,,199039,19,2022-01-29_16h42.30.964,lexical_decision_task_DD_L5,2021.2.3,MacIntel,60.0024001,,,,,,,,,,,1.1162,1,,,,,,,,,,,,,,z,1,1.1162,,,,,,,,0.201482612,0.062327508,0,0,0,,0,82,82,88,1,GLUSH,HB,old,z,./images/GLUSHHB.png,,,,,,,,,,,,,,,,,,,,,,
,,,,,,,,,,,,,,,,,199039,19,2022-01-29_16h42.30.964,lexical_decision_task_DD_L5,2021.2.3,MacIntel,60.0024001,,,,,,,,,,,0.7832,1,,,,,,,,,,,,,,m,1,0.7832,,,,,,,,0.201482612,0.062327508,0,0,0,space,0,83,83,27,1,BUTTER,HB,old,m,./images/BUTTERHB.png,4.1386,,,,,,,,,,,,,,,,,,,,,
,,,,,,,,,,,,,,,,,199039,19,2022-01-29_16h42.30.964,lexical_decision_task_DD_L5,2021.2.3,MacIntel,60.0024001,,,,,,,,,,,1.7132,1,,,,,,,,,,,,,,z,1,1.7132,,,,,,,,0.201482612,0.062327508,0,0,0,,0,84,84,123,1,SEDGE,C,old,z,./images/SEDGE.png,,,,,,,,,,,,,,,,,,,,,,
,,,,,,,,,,,,,,,,,199039,19,2022-01-29_16h42.30.964,lexical_decision_task_DD_L5,2021.2.3,MacIntel,60.0024001,,,,,,,,,,,1.9601,1,,,,,,,,,,,,,,z,1,1.9601,,,,,,,,0.201482612,0.062327508,0,0,0,,0,85,85,115,1,MAWNS,HB,old,z,./images/MAWNSHB.png,,,,,,,,,,,,,,,,,,,,,,
,,,,,,,,,,,,,,,,,199039,19,2022-01-29_16h42.30.964,lexical_decision_task_DD_L5,2021.2.3,MacIntel,60.0024001,,,,,,,,,,,1.8169,0,,,,,,,,,,,,,,m,0,1.8169,,,,,,,,0.201482612,0.062327508,0,0,0,,0,86,86,85,1,CHULK,HB,old,z,./images/CHULKHB.png,,,,,,,,,,,,,,,,,,,,,,
,,,,,,,,,,,,,,,,,199039,19,2022-01-29_16h42.30.964,lexical_decision_task_DD_L5,2021.2.3,MacIntel,60.0024001,,,,,,,,,,,1.9822,1,,,,,,,,,,,,,,z,1,1.9822,,,,,,,,0.201482612,0.062327508,0,0,0,,0,87,87,112,1,MYING,HB,old,z,./images/MYINGHB.png,,,,,,,,,,,,,,,,,,,,,,
,,,,,,,,,,,,,,,,,199039,19,2022-01-29_16h42.30.964,lexical_decision_task_DD_L5,2021.2.3,MacIntel,60.0024001,,,,,,,,,,,2.2979,1,,,,,,,,,,,,,,z,1,2.2979,,,,,,,,0.201482612,0.062327508,0,0,0,,0,88,88,122,1,BLOOT,LB,old,z,./images/BLOOTLB.png,,,,,,,,,,,,,,,,,,,,,,
,,,,,,,,,,,,,,,,,199039,19,2022-01-29_16h42.30.964,lexical_decision_task_DD_L5,2021.2.3,MacIntel,60.0024001,,,,,,,,,,,1.7489,1,,,,,,,,,,,,,,z,1,1.7489,,,,,,,,0.201482612,0.062327508,0,0,0,,0,89,89,89,1,DRIEK,LB,old,z,./images/DRIEKLB.png,,,,,,,,,,,,,,,,,,,,,,
,,,,,,,,,,,,,,,,,199039,19,2022-01-29_16h42.30.964,lexical_decision_task_DD_L5,2021.2.3,MacIntel,60.0024001,,,,,,,,,,,1.2965,1,,,,,,,,,,,,,,m,1,1.2965,,,,,,,,0.201482612,0.062327508,0,0,0,,0,90,90,33,1,SAUNA,HB,old,m,./images/SAUNAHB.png,,,,,,,,,,,,,,,,,,,,,,
,,,,,,,,,,,,,,,,,199039,19,2022-01-29_16h42.30.964,lexical_decision_task_DD_L5,2021.2.3,MacIntel,60.0024001,,,,,,,,,,,1.7923,1,,,,,,,,,,,,,,z,1,1.7923,,,,,,,,0.201482612,0.062327508,0,0,0,,0,91,91,154,1,THINT,HB,old,z,./images/THINTHB.png,,,,,,,,,,,,,,,,,,,,,,
,,,,,,,,,,,,,,,,,199039,19,2022-01-29_16h42.30.964,lexical_decision_task_DD_L5,2021.2.3,MacIntel,60.0024001,,,,,,,,,,,1.4483,1,,,,,,,,,,,,,,z,1,1.4483,,,,,,,,0.201482612,0.062327508,0,0,0,,0,92,92,94,1,BLANS,HB,old,z,./images/BLANSHB.png,,,,,,,,,,,,,,,,,,,,,,
,,,,,,,,,,,,,,,,,199039,19,2022-01-29_16h42.30.964,lexical_decision_task_DD_L5,2021.2.3,MacIntel,60.0024001,,,,,,,,,,,0.8486,1,,,,,,,,,,,,,,m,1,0.8486,,,,,,,,0.201482612,0.062327508,0,0,0,,0,93,93,50,1,PILOT,C,old,m,./images/PILOT.png,,,,,,,,,,,,,,,,,,,,,,
,,,,,,,,,,,,,,,,,199039,19,2022-01-29_16h42.30.964,lexical_decision_task_DD_L5,2021.2.3,MacIntel,60.0024001,,,,,,,,,,,1.0008,1,,,,,,,,,,,,,,m,1,1.0008,,,,,,,,0.201482612,0.062327508,0,0,0,,0,94,94,52,1,DESERT,LB,old,m,./images/DESERTLB.png,,,,,,,,,,,,,,,,,,,,,,
,,,,,,,,,,,,,,,,,199039,19,2022-01-29_16h42.30.964,lexical_decision_task_DD_L5,2021.2.3,MacIntel,60.0024001,,,,,,,,,,,1.5476,1,,,,,,,,,,,,,,z,1,1.5476,,,,,,,,0.201482612,0.062327508,0,0,0,,0,95,95,109,1,BURGE,HB,old,z,./images/BURGEHB.png,,,,,,,,,,,,,,,,,,,,,,
,,,,,,,,,,,,,,,,,199039,19,2022-01-29_16h42.30.964,lexical_decision_task_DD_L5,2021.2.3,MacIntel,60.0024001,,,,,,,,,,,1.1078,1,,,,,,,,,,,,,,m,1,1.1078,,,,,,,,0.201482612,0.062327508,0,0,0,,0,96,96,60,1,CURRY,HB,old,m,./images/CURRYHB.png,,,,,,,,,,,,,,,,,,,,,,
,,,,,,,,,,,,,,,,,199039,19,2022-01-29_16h42.30.964,lexical_decision_task_DD_L5,2021.2.3,MacIntel,60.0024001,,,,,,,,,,,0.6987,1,,,,,,,,,,,,,,m,1,0.6987,,,,,,,,0.201482612,0.062327508,0,0,0,,0,97,97,21,1,DANCER,HB,old,m,./images/DANCERHB.png,,,,,,,,,,,,,,,,,,,,,,
,,,,,,,,,,,,,,,,,199039,19,2022-01-29_16h42.30.964,lexical_decision_task_DD_L5,2021.2.3,MacIntel,60.0024001,,,,,,,,,,,0.8113,1,,,,,,,,,,,,,,m,1,0.8113,,,,,,,,0.201482612,0.062327508,0,0,0,,0,98,98,20,1,GRANNY,C,old,m,./images/GRANNY.png,,,,,,,,,,,,,,,,,,,,,,
,,,,,,,,,,,,,,,,,199039,19,2022-01-29_16h42.30.964,lexical_decision_task_DD_L5,2021.2.3,MacIntel,60.0024001,,,,,,,,,,,1.0808,1,,,,,,,,,,,,,,z,1,1.0808,,,,,,,,0.201482612,0.062327508,0,0,0,,0,99,99,128,1,GRIFT,LB,old,z,./images/GRIFTLB.png,,,,,,,,,,,,,,,,,,,,,,
,,,,,,,,,,,,,,,,,199039,19,2022-01-29_16h42.30.964,lexical_decision_task_DD_L5,2021.2.3,MacIntel,60.0024001,,,,,,,,,,,1.145,1,,,,,,,,,,,,,,z,1,1.145,,,,,,,,0.201482612,0.062327508,0,0,0,,0,100,100,138,1,PLICE,C,old,z,./images/PLICE.png,,,,,,,,,,,,,,,,,,,,,,
,,,,,,,,,,,,,,,,,199039,19,2022-01-29_16h42.30.964,lexical_decision_task_DD_L5,2021.2.3,MacIntel,60.0024001,,,,,,,,,,,0.8126,1,,,,,,,,,,,,,,m,1,0.8126,,,,,,,,0.201482612,0.062327508,0,0,0,,0,101,101,15,1,COLLAR,HB,old,m,./images/COLLARHB.png,,,,,,,,,,,,,,,,,,,,,,
,,,,,,,,,,,,,,,,,199039,19,2022-01-29_16h42.30.964,lexical_decision_task_DD_L5,2021.2.3,MacIntel,60.0024001,,,,,,,,,,,1.2633,1,,,,,,,,,,,,,,z,1,1.2633,,,,,,,,0.201482612,0.062327508,0,0,0,,0,102,102,116,1,BALGY,LB,old,z,./images/BALGYLB.png,,,,,,,,,,,,,,,,,,,,,,
,,,,,,,,,,,,,,,,,199039,19,2022-01-29_16h42.30.964,lexical_decision_task_DD_L5,2021.2.3,MacIntel,60.0024001,,,,,,,,,,,0.6628,1,,,,,,,,,,,,,,m,1,0.6628,,,,,,,,0.201482612,0.062327508,0,0,0,,0,103,103,23,1,CLOTH,C,old,m,./images/CLOTH.png,,,,,,,,,,,,,,,,,,,,,,
,,,,,,,,,,,,,,,,,199039,19,2022-01-29_16h42.30.964,lexical_decision_task_DD_L5,2021.2.3,MacIntel,60.0024001,,,,,,,,,,,1.3471,1,,,,,,,,,,,,,,z,1,1.3471,,,,,,,,0.201482612,0.062327508,0,0,0,,0,104,104,100,1,DRIBS,HB,old,z,./images/DRIBSHB.png,,,,,,,,,,,,,,,,,,,,,,
,,,,,,,,,,,,,,,,,199039,19,2022-01-29_16h42.30.964,lexical_decision_task_DD_L5,2021.2.3,MacIntel,60.0024001,,,,,,,,,,,0.5621,1,,,,,,,,,,,,,,m,1,0.5621,,,,,,,,0.201482612,0.062327508,0,0,0,,0,105,105,59,1,BRUSH,C,old,m,./images/BRUSH.png,,,,,,,,,,,,,,,,,,,,,,
,,,,,,,,,,,,,,,,,199039,19,2022-01-29_16h42.30.964,lexical_decision_task_DD_L5,2021.2.3,MacIntel,60.0024001,,,,,,,,,,,0.7958,1,,,,,,,,,,,,,,z,1,0.7958,,,,,,,,0.201482612,0.062327508,0,0,0,,0,106,106,96,1,KEAMS,C,old,z,./images/KEAMS.png,,,,,,,,,,,,,,,,,,,,,,
,,,,,,,,,,,,,,,,,199039,19,2022-01-29_16h42.30.964,lexical_decision_task_DD_L5,2021.2.3,MacIntel,60.0024001,,,,,,,,,,,0.8298,1,,,,,,,,,,,,,,z,1,0.8298,,,,,,,,0.201482612,0.062327508,0,0,0,,0,107,107,156,1,HIXES,C,old,z,./images/HIXES.png,,,,,,,,,,,,,,,,,,,,,,
,,,,,,,,,,,,,,,,,199039,19,2022-01-29_16h42.30.964,lexical_decision_task_DD_L5,2021.2.3,MacIntel,60.0024001,,,,,,,,,,,0.7461,1,,,,,,,,,,,,,,z,1,0.7461,,,,,,,,0.201482612,0.062327508,0,0,0,,0,108,108,165,1,TROWN,C,old,z,./images/TROWN.png,,,,,,,,,,,,,,,,,,,,,,
,,,,,,,,,,,,,,,,,199039,19,2022-01-29_16h42.30.964,lexical_decision_task_DD_L5,2021.2.3,MacIntel,60.0024001,,,,,,,,,,,1.1133,1,,,,,,,,,,,,,,z,1,1.1133,,,,,,,,0.201482612,0.062327508,0,0,0,,0,109,109,114,1,RIKES,C,old,z,./images/RIKES.png,,,,,,,,,,,,,,,,,,,,,,
,,,,,,,,,,,,,,,,,199039,19,2022-01-29_16h42.30.964,lexical_decision_task_DD_L5,2021.2.3,MacIntel,60.0024001,,,,,,,,,,,1.1137,1,,,,,,,,,,,,,,m,1,1.1137,,,,,,,,0.201482612,0.062327508,0,0,0,,0,110,110,76,1,MIDGET,LB,old,m,./images/MIDGETLB.png,,,,,,,,,,,,,,,,,,,,,,
,,,,,,,,,,,,,,,,,199039,19,2022-01-29_16h42.30.964,lexical_decision_task_DD_L5,2021.2.3,MacIntel,60.0024001,,,,,,,,,,,0.7124,1,,,,,,,,,,,,,,m,1,0.7124,,,,,,,,0.201482612,0.062327508,0,0,0,,0,111,111,14,1,FENCE,C,old,m,./images/FENCE.png,,,,,,,,,,,,,,,,,,,,,,
,,,,,,,,,,,,,,,,,199039,19,2022-01-29_16h42.30.964,lexical_decision_task_DD_L5,2021.2.3,MacIntel,60.0024001,,,,,,,,,,,0.8998,1,,,,,,,,,,,,,,z,1,0.8998,,,,,,,,0.201482612,0.062327508,0,0,0,,0,112,112,86,1,AIFED,LB,old,z,./images/AIFEDLB.png,,,,,,,,,,,,,,,,,,,,,,
,,,,,,,,,,,,,,,,,199039,19,2022-01-29_16h42.30.964,lexical_decision_task_DD_L5,2021.2.3,MacIntel,60.0024001,,,,,,,,,,,0.9555,1,,,,,,,,,,,,,,z,1,0.9555,,,,,,,,0.201482612,0.062327508,0,0,0,,0,113,113,144,1,NAIRY,C,old,z,./images/NAIRY.png,,,,,,,,,,,,,,,,,,,,,,
,,,,,,,,,,,,,,,,,199039,19,2022-01-29_16h42.30.964,lexical_decision_task_DD_L5,2021.2.3,MacIntel,60.0024001,,,,,,,,,,,1.4799,0,,,,,,,,,,,,,,z,0,1.4799,,,,,,,,0.201482612,0.062327508,0,0,0,,0,114,114,12,1,BLOKE,HB,old,m,./images/BLOKEHB.png,,,,,,,,,,,,,,,,,,,,,,
,,,,,,,,,,,,,,,,,199039,19,2022-01-29_16h42.30.964,lexical_decision_task_DD_L5,2021.2.3,MacIntel,60.0024001,,,,,,,,,,,1.0993,1,,,,,,,,,,,,,,m,1,1.0993,,,,,,,,0.201482612,0.062327508,0,0,0,,0,115,115,65,1,SPINE,C,old,m,./images/SPINE.png,,,,,,,,,,,,,,,,,,,,,,
,,,,,,,,,,,,,,,,,199039,19,2022-01-29_16h42.30.964,lexical_decision_task_DD_L5,2021.2.3,MacIntel,60.0024001,,,,,,,,,,,0.8949,1,,,,,,,,,,,,,,z,1,0.8949,,,,,,,,0.201482612,0.062327508,0,0,0,,0,116,116,113,1,LINEW,LB,old,z,./images/LINEWLB.png,,,,,,,,,,,,,,,,,,,,,,
,,,,,,,,,,,,,,,,,199039,19,2022-01-29_16h42.30.964,lexical_decision_task_DD_L5,2021.2.3,MacIntel,60.0024001,,,,,,,,,,,1.4504,1,,,,,,,,,,,,,,z,1,1.4504,,,,,,,,0.201482612,0.062327508,0,0,0,,0,117,117,139,1,BLEAR,HB,old,z,./images/BLEARHB.png,,,,,,,,,,,,,,,,,,,,,,
,,,,,,,,,,,,,,,,,199039,19,2022-01-29_16h42.30.964,lexical_decision_task_DD_L5,2021.2.3,MacIntel,60.0024001,,,,,,,,,,,0.6348,1,,,,,,,,,,,,,,m,1,0.6348,,,,,,,,0.201482612,0.062327508,0,0,0,,0,118,118,22,1,CLOWN,LB,old,m,./images/CLOWNLB.png,,,,,,,,,,,,,,,,,,,,,,
,,,,,,,,,,,,,,,,,199039,19,2022-01-29_16h42.30.964,lexical_decision_task_DD_L5,2021.2.3,MacIntel,60.0024001,,,,,,,,,,,0.8999,1,,,,,,,,,,,,,,m,1,0.8999,,,,,,,,0.201482612,0.062327508,0,0,0,,0,119,119,16,1,GRAPE,LB,old,m,./images/GRAPELB.png,,,,,,,,,,,,,,,,,,,,,,
,,,,,,,,,,,,,,,,,199039,19,2022-01-29_16h42.30.964,lexical_decision_task_DD_L5,2021.2.3,MacIntel,60.0024001,,,,,,,,,,,1.6503,1,,,,,,,,,,,,,,z,1,1.6503,,,,,,,,0.201482612,0.062327508,0,0,0,,0,120,120,140,1,DOVET,LB,old,z,./images/DOVETLB.png,,,,,,,,,,,,,,,,,,,,,,
,,,,,,,,,,,,,,,,,199039,19,2022-01-29_16h42.30.964,lexical_decision_task_DD_L5,2021.2.3,MacIntel,60.0024001,,,,,,,,,,,0.7178,1,,,,,,,,,,,,,,m,1,0.7178,,,,,,,,0.201482612,0.062327508,0,0,0,,0,121,121,49,1,BISHOP,LB,old,m,./images/BISHOPLB.png,,,,,,,,,,,,,,,,,,,,,,
,,,,,,,,,,,,,,,,,199039,19,2022-01-29_16h42.30.964,lexical_decision_task_DD_L5,2021.2.3,MacIntel,60.0024001,,,,,,,,,,,0.7123,1,,,,,,,,,,,,,,m,1,0.7123,,,,,,,,0.201482612,0.062327508,0,0,0,,0,122,122,19,1,DONKEY,LB,old,m,./images/DONKEYLB.png,,,,,,,,,,,,,,,,,,,,,,
,,,,,,,,,,,,,,,,,199039,19,2022-01-29_16h42.30.964,lexical_decision_task_DD_L5,2021.2.3,MacIntel,60.0024001,,,,,,,,,,,0.6573,1,,,,,,,,,,,,,,m,1,0.6573,,,,,,,,0.201482612,0.062327508,0,0,0,,0,123,123,10,1,GARDEN,LB,old,m,./images/GARDENLB.png,,,,,,,,,,,,,,,,,,,,,,
,,,,,,,,,,,,,,,,,199039,19,2022-01-29_16h42.30.964,lexical_decision_task_DD_L5,2021.2.3,MacIntel,60.0024001,,,,,,,,,,,3.5321,0,,,,,,,,,,,,,,m,0,3.5321,,,,,,,,0.201482612,0.062327508,0,0,0,,0,124,124,166,1,SHORY,HB,old,z,./images/SHORYHB.png,,,,,,,,,,,,,,,,,,,,,,
,,,,,,,,,,,,,,,,,199039,19,2022-01-29_16h42.30.964,lexical_decision_task_DD_L5,2021.2.3,MacIntel,60.0024001,,,,,,,,,,,0.7384,1,,,,,,,,,,,,,,m,1,0.7384,,,,,,,,0.201482612,0.062327508,0,0,0,space,0,125,125,35,1,LLAMA,C,old,m,./images/LLAMA.png,1.0024,,,,,,,,,,,,,,,,,,,,,
,,,,,,,,,,,,,,,,,199039,19,2022-01-29_16h42.30.964,lexical_decision_task_DD_L5,2021.2.3,MacIntel,60.0024001,,,,,,,,,,,0.8836,1,,,,,,,,,,,,,,z,1,0.8836,,,,,,,,0.201482612,0.062327508,0,0,0,,0,126,126,150,1,NOOLS,C,old,z,./images/NOOLS.png,,,,,,,,,,,,,,,,,,,,,,
,,,,,,,,,,,,,,,,,199039,19,2022-01-29_16h42.30.964,lexical_decision_task_DD_L5,2021.2.3,MacIntel,60.0024001,,,,,,,,,,,0.63,1,,,,,,,,,,,,,,m,1,0.63,,,,,,,,0.201482612,0.062327508,0,0,0,,0,127,127,55,1,ALLEY,LB,old,m,./images/ALLEYLB.png,,,,,,,,,,,,,,,,,,,,,,
,,,,,,,,,,,,,,,,,199039,19,2022-01-29_16h42.30.964,lexical_decision_task_DD_L5,2021.2.3,MacIntel,60.0024001,,,,,,,,,,,1.7596,0,,,,,,,,,,,,,,m,0,1.7596,,,,,,,,0.201482612,0.062327508,0,0,0,,0,128,128,142,1,PLASK,HB,old,z,./images/PLASKHB.png,,,,,,,,,,,,,,,,,,,,,,
,,,,,,,,,,,,,,,,,199039,19,2022-01-29_16h42.30.964,lexical_decision_task_DD_L5,2021.2.3,MacIntel,60.0024001,,,,,,,,,,,0.7978,1,,,,,,,,,,,,,,m,1,0.7978,,,,,,,,0.201482612,0.062327508,0,0,0,,0,129,129,62,1,MAMMAL,C,old,m,./images/MAMMAL.png,,,,,,,,,,,,,,,,,,,,,,
,,,,,,,,,,,,,,,,,199039,19,2022-01-29_16h42.30.964,lexical_decision_task_DD_L5,2021.2.3,MacIntel,60.0024001,,,,,,,,,,,0.8649,1,,,,,,,,,,,,,,m,1,0.8649,,,,,,,,0.201482612,0.062327508,0,0,0,,0,130,130,6,1,STAIN,HB,old,m,./images/STAINHB.png,,,,,,,,,,,,,,,,,,,,,,
,,,,,,,,,,,,,,,,,199039,19,2022-01-29_16h42.30.964,lexical_decision_task_DD_L5,2021.2.3,MacIntel,60.0024001,,,,,,,,,,,0.9508,1,,,,,,,,,,,,,,m,1,0.9508,,,,,,,,0.201482612,0.062327508,0,0,0,,0,131,131,9,1,DIVER,HB,old,m,./images/DIVERHB.png,,,,,,,,,,,,,,,,,,,,,,
,,,,,,,,,,,,,,,,,199039,19,2022-01-29_16h42.30.964,lexical_decision_task_DD_L5,2021.2.3,MacIntel,60.0024001,,,,,,,,,,,0.9102,1,,,,,,,,,,,,,,m,1,0.9102,,,,,,,,0.201482612,0.062327508,0,0,0,,0,132,132,72,1,FLASK,HB,old,m,./images/FLASKHB.png,,,,,,,,,,,,,,,,,,,,,,
,,,,,,,,,,,,,,,,,199039,19,2022-01-29_16h42.30.964,lexical_decision_task_DD_L5,2021.2.3,MacIntel,60.0024001,,,,,,,,,,,3.7612,1,,,,,,,,,,,,,,z,1,3.7612,,,,,,,,0.201482612,0.062327508,0,0,0,,0,133,133,121,1,CEERS,HB,old,z,./images/CEERSHB.png,,,,,,,,,,,,,,,,,,,,,,
,,,,,,,,,,,,,,,,,199039,19,2022-01-29_16h42.30.964,lexical_decision_task_DD_L5,2021.2.3,MacIntel,60.0024001,,,,,,,,,,,1.825,1,,,,,,,,,,,,,,z,1,1.825,,,,,,,,0.201482612,0.062327508,0,0,0,,0,134,134,163,1,GAMBA,HB,old,z,./images/GAMBAHB.png,,,,,,,,,,,,,,,,,,,,,,
,,,,,,,,,,,,,,,,,199039,19,2022-01-29_16h42.30.964,lexical_decision_task_DD_L5,2021.2.3,MacIntel,60.0024001,,,,,,,,,,,1.7941,1,,,,,,,,,,,,,,z,1,1.7941,,,,,,,,0.201482612,0.062327508,0,0,0,,0,135,135,153,1,CLUPS,C,old,z,./images/CLUPS.png,,,,,,,,,,,,,,,,,,,,,,
,,,,,,,,,,,,,,,,,199039,19,2022-01-29_16h42.30.964,lexical_decision_task_DD_L5,2021.2.3,MacIntel,60.0024001,,,,,,,,,,,1.1976,1,,,,,,,,,,,,,,m,1,1.1976,,,,,,,,0.201482612,0.062327508,0,0,0,,0,136,136,47,1,LAGOON,C,old,m,./images/LAGOON.png,,,,,,,,,,,,,,,,,,,,,,
,,,,,,,,,,,,,,,,,199039,19,2022-01-29_16h42.30.964,lexical_decision_task_DD_L5,2021.2.3,MacIntel,60.0024001,,,,,,,,,,,1.1466,1,,,,,,,,,,,,,,z,1,1.1466,,,,,,,,0.201482612,0.062327508,0,0,0,,0,137,137,90,1,NEAST,C,old,z,./images/NEAST.png,,,,,,,,,,,,,,,,,,,,,,
,,,,,,,,,,,,,,,,,199039,19,2022-01-29_16h42.30.964,lexical_decision_task_DD_L5,2021.2.3,MacIntel,60.0024001,,,,,,,,,,,1.5441,0,,,,,,,,,,,,,,m,0,1.5441,,,,,,,,0.201482612,0.062327508,0,0,0,,0,138,138,133,1,POWDY,HB,old,z,./images/POWDYHB.png,,,,,,,,,,,,,,,,,,,,,,
,,,,,,,,,,,,,,,,,199039,19,2022-01-29_16h42.30.964,lexical_decision_task_DD_L5,2021.2.3,MacIntel,60.0024001,,,,,,,,,,,0.717,1,,,,,,,,,,,,,,m,1,0.717,,,,,,,,0.201482612,0.062327508,0,0,0,,0,139,139,69,1,ARROW,HB,old,m,./images/ARROWHB.png,,,,,,,,,,,,,,,,,,,,,,
,,,,,,,,,,,,,,,,,199039,19,2022-01-29_16h42.30.964,lexical_decision_task_DD_L5,2021.2.3,MacIntel,60.0024001,,,,,,,,,,,1.0756,1,,,,,,,,,,,,,,m,1,1.0756,,,,,,,,0.201482612,0.062327508,0,0,0,,0,140,140,45,1,MONKEY,HB,old,m,./images/MONKEYHB.png,,,,,,,,,,,,,,,,,,,,,,
,,,,,,,,,,,,,,,,,199039,19,2022-01-29_16h42.30.964,lexical_decision_task_DD_L5,2021.2.3,MacIntel,60.0024001,,,,,,,,,,,1.7922,0,,,,,,,,,,,,,,m,0,1.7922,,,,,,,,0.201482612,0.062327508,0,0,0,,0,141,141,99,1,BACKY,C,old,z,./images/BACKY.png,,,,,,,,,,,,,,,,,,,,,,
,,,,,,,,,,,,,,,,,199039,19,2022-01-29_16h42.30.964,lexical_decision_task_DD_L5,2021.2.3,MacIntel,60.0024001,,,,,,,,,,,2.6331,0,,,,,,,,,,,,,,m,0,2.6331,,,,,,,,0.201482612,0.062327508,0,0,0,,0,142,142,145,1,LAMEL,HB,old,z,./images/LAMELHB.png,,,,,,,,,,,,,,,,,,,,,,
,,,,,,,,,,,,,,,,,199039,19,2022-01-29_16h42.30.964,lexical_decision_task_DD_L5,2021.2.3,MacIntel,60.0024001,,,,,,,,,,,0.7511,1,,,,,,,,,,,,,,m,1,0.7511,,,,,,,,0.201482612,0.062327508,0,0,0,,0,143,143,48,1,SHIELD,HB,old,m,./images/SHIELDHB.png,,,,,,,,,,,,,,,,,,,,,,
,,,,,,,,,,,,,,,,,199039,19,2022-01-29_16h42.30.964,lexical_decision_task_DD_L5,2021.2.3,MacIntel,60.0024001,,,,,,,,,,,1.5242,0,,,,,,,,,,,,,,m,0,1.5242,,,,,,,,0.201482612,0.062327508,0,0,0,,0,144,144,146,1,MOOST,LB,old,z,./images/MOOSTLB.png,,,,,,,,,,,,,,,,,,,,,,
,,,,,,,,,,,,,,,,,199039,19,2022-01-29_16h42.30.964,lexical_decision_task_DD_L5,2021.2.3,MacIntel,60.0024001,,,,,,,,,,,0.7135,1,,,,,,,,,,,,,,z,1,0.7135,,,,,,,,0.201482612,0.062327508,0,0,0,,0,145,145,135,1,JOODY,C,old,z,./images/JOODY.png,,,,,,,,,,,,,,,,,,,,,,
,,,,,,,,,,,,,,,,,199039,19,2022-01-29_16h42.30.964,lexical_decision_task_DD_L5,2021.2.3,MacIntel,60.0024001,,,,,,,,,,,0.7287,1,,,,,,,,,,,,,,m,1,0.7287,,,,,,,,0.201482612,0.062327508,0,0,0,,0,146,146,29,1,PISTOL,C,old,m,./images/PISTOL.png,,,,,,,,,,,,,,,,,,,,,,
,,,,,,,,,,,,,,,,,199039,19,2022-01-29_16h42.30.964,lexical_decision_task_DD_L5,2021.2.3,MacIntel,60.0024001,,,,,,,,,,,1.0986,1,,,,,,,,,,,,,,z,1,1.0986,,,,,,,,0.201482612,0.062327508,0,0,0,,0,147,147,84,1,HAXES,C,old,z,./images/HAXES.png,,,,,,,,,,,,,,,,,,,,,,
,,,,,,,,,,,,,,,,,199039,19,2022-01-29_16h42.30.964,lexical_decision_task_DD_L5,2021.2.3,MacIntel,60.0024001,,,,,,,,,,,2.2451,1,,,,,,,,,,,,,,z,1,2.2451,,,,,,,,0.201482612,0.062327508,0,0,0,,0,148,148,118,1,BAVEL,HB,old,z,./images/BAVELHB.png,,,,,,,,,,,,,,,,,,,,,,
,,,,,,,,,,,,,,,,,199039,19,2022-01-29_16h42.30.964,lexical_decision_task_DD_L5,2021.2.3,MacIntel,60.0024001,,,,,,,,,,,2.2336,1,,,,,,,,,,,,,,z,1,2.2336,,,,,,,,0.201482612,0.062327508,0,0,0,,0,149,149,152,1,FRAIN,LB,old,z,./images/FRAINLB.png,,,,,,,,,,,,,,,,,,,,,,
,,,,,,,,,,,,,,,,,199039,19,2022-01-29_16h42.30.964,lexical_decision_task_DD_L5,2021.2.3,MacIntel,60.0024001,,,,,,,,,,,0.78,1,,,,,,,,,,,,,,m,1,0.78,,,,,,,,0.201482612,0.062327508,0,0,0,,0,150,150,38,1,ENGINE,C,old,m,./images/ENGINE.png,,,,,,,,,,,,,,,,,,,,,,
,,,,,,,,,,,,,,,,,199039,19,2022-01-29_16h42.30.964,lexical_decision_task_DD_L5,2021.2.3,MacIntel,60.0024001,,,,,,,,,,,0.6924,1,,,,,,,,,,,,,,m,1,0.6924,,,,,,,,0.201482612,0.062327508,0,0,0,,0,151,151,71,1,BUBBLE,C,old,m,./images/BUBBLE.png,,,,,,,,,,,,,,,,,,,,,,
,,,,,,,,,,,,,,,,,199039,19,2022-01-29_16h42.30.964,lexical_decision_task_DD_L5,2021.2.3,MacIntel,60.0024001,,,,,,,,,,,1.4618,1,,,,,,,,,,,,,,m,1,1.4618,,,,,,,,0.201482612,0.062327508,0,0,0,,0,152,152,66,1,STATUE,HB,old,m,./images/STATUEHB.png,,,,,,,,,,,,,,,,,,,,,,
,,,,,,,,,,,,,,,,,199039,19,2022-01-29_16h42.30.964,lexical_decision_task_DD_L5,2021.2.3,MacIntel,60.0024001,,,,,,,,,,,0.7253,1,,,,,,,,,,,,,,m,1,0.7253,,,,,,,,0.201482612,0.062327508,0,0,0,,0,153,153,80,1,PLANET,C,old,m,./images/PLANET.png,,,,,,,,,,,,,,,,,,,,,,
,,,,,,,,,,,,,,,,,199039,19,2022-01-29_16h42.30.964,lexical_decision_task_DD_L5,2021.2.3,MacIntel,60.0024001,,,,,,,,,,,1.9437,1,,,,,,,,,,,,,,m,1,1.9437,,,,,,,,0.201482612,0.062327508,0,0,0,,0,154,154,75,1,HAMMER,HB,old,m,./images/HAMMERHB.png,,,,,,,,,,,,,,,,,,,,,,
,,,,,,,,,,,,,,,,,199039,19,2022-01-29_16h42.30.964,lexical_decision_task_DD_L5,2021.2.3,MacIntel,60.0024001,,,,,,,,,,,0.9999,1,,,,,,,,,,,,,,z,1,0.9999,,,,,,,,0.201482612,0.062327508,0,0,0,,0,155,155,98,1,BAMPS,LB,old,z,./images/BAMPSLB.png,,,,,,,,,,,,,,,,,,,,,,
,,,,,,,,,,,,,,,,,199039,19,2022-01-29_16h42.30.964,lexical_decision_task_DD_L5,2021.2.3,MacIntel,60.0024001,,,,,,,,,,,1.755,1,,,,,,,,,,,,,,z,1,1.755,,,,,,,,0.201482612,0.062327508,0,0,0,,0,156,156,103,1,FLORT,HB,old,z,./images/FLORTHB.png,,,,,,,,,,,,,,,,,,,,,,
,,,,,,,,,,,,,,,,,199039,19,2022-01-29_16h42.30.964,lexical_decision_task_DD_L5,2021.2.3,MacIntel,60.0024001,,,,,,,,,,,0.8478,1,,,,,,,,,,,,,,z,1,0.8478,,,,,,,,0.201482612,0.062327508,0,0,0,,0,157,157,132,1,SCIFF,C,old,z,./images/SCIFF.png,,,,,,,,,,,,,,,,,,,,,,
,,,,,,,,,,,,,,,,,199039,19,2022-01-29_16h42.30.964,lexical_decision_task_DD_L5,2021.2.3,MacIntel,60.0024001,,,,,,,,,,,3.0992,1,,,,,,,,,,,,,,z,1,3.0992,,,,,,,,0.201482612,0.062327508,0,0,0,,0,158,158,91,1,SHENS,HB,old,z,./images/SHENSHB.png,,,,,,,,,,,,,,,,,,,,,,
,,,,,,,,,,,,,,,,,199039,19,2022-01-29_16h42.30.964,lexical_decision_task_DD_L5,2021.2.3,MacIntel,60.0024001,,,,,,,,,,,0.6932,1,,,,,,,,,,,,,,m,1,0.6932,,,,,,,,0.201482612,0.062327508,0,0,0,,0,159,159,74,1,JUMPER,C,old,m,./images/JUMPER.png,,,,,,,,,,,,,,,,,,,,,,
,,,,,,,,,,,,,,,,,199039,19,2022-01-29_16h42.30.964,lexical_decision_task_DD_L5,2021.2.3,MacIntel,60.0024001,,,,,,,,,,,0.7938,1,,,,,,,,,,,,,,m,1,0.7938,,,,,,,,0.201482612,0.062327508,0,0,0,,0,160,160,67,1,POKER,LB,old,m,./images/POKERLB.png,,,,,,,,,,,,,,,,,,,,,,
,,,,,,,,,,,,,,,,,199039,19,2022-01-29_16h42.30.964,lexical_decision_task_DD_L5,2021.2.3,MacIntel,60.0024001,,,,,,,,,,,0.9241,1,,,,,,,,,,,,,,z,1,0.9241,,,,,,,,0.201482612,0.062327508,0,0,0,,0,161,161,149,1,VEASE,LB,old,z,./images/VEASELB.png,,,,,,,,,,,,,,,,,,,,,,
,,,,,,,,,,,,,,,,,199039,19,2022-01-29_16h42.30.964,lexical_decision_task_DD_L5,2021.2.3,MacIntel,60.0024001,,,,,,,,,,,1.674,0,,,,,,,,,,,,,,m,0,1.674,,,,,,,,0.201482612,0.062327508,0,0,0,,0,162,162,141,1,PLEET,C,old,z,./images/PLEET.png,,,,,,,,,,,,,,,,,,,,,,
,,,,,,,,,,,,,,,,,199039,19,2022-01-29_16h42.30.964,lexical_decision_task_DD_L5,2021.2.3,MacIntel,60.0024001,,,,,,,,,,,2.0954,1,,,,,,,,,,,,,,z,1,2.0954,,,,,,,,0.201482612,0.062327508,0,0,0,,0,163,163,162,1,LEICH,C,old,z,./images/LEICH.png,,,,,,,,,,,,,,,,,,,,,,
,,,,,,,,,,,,,,,,,199039,19,2022-01-29_16h42.30.964,lexical_decision_task_DD_L5,2021.2.3,MacIntel,60.0024001,,,,,,,,,,,1.4998,1,,,,,,,,,,,,,,m,1,1.4998,,,,,,,,0.201482612,0.062327508,0,0,0,,0,164,164,24,1,FLESH,HB,old,m,./images/FLESHHB.png,,,,,,,,,,,,,,,,,,,,,,
,,,,,,,,,,,,,,,,,199039,19,2022-01-29_16h42.30.964,lexical_decision_task_DD_L5,2021.2.3,MacIntel,60.0024001,,,,,,,,,,,2.8503,1,,,,,,,,,,,,,,z,1,2.8503,,,,,,,,0.201482612,0.062327508,0,0,0,,0,165,165,106,1,CLUMS,HB,old,z,./images/CLUMSHB.png,,,,,,,,,,,,,,,,,,,,,,
,,,,,,,,,,,,,,,,,199039,19,2022-01-29_16h42.30.964,lexical_decision_task_DD_L5,2021.2.3,MacIntel,60.0024001,,,,,,,,,,,1.2335,1,,,,,,,,,,,,,,m,1,1.2335,,,,,,,,0.201482612,0.062327508,0,0,0,,0,166,166,63,1,BAKER,HB,old,m,./images/BAKERHB.png,,,,,,,,,,,,,,,,,,,,,,
,,,,,,,,,,,,,,,,,199039,19,2022-01-29_16h42.30.964,lexical_decision_task_DD_L5,2021.2.3,MacIntel,60.0024001,,,,,,,,,,,0.738,1,,,,,,,,,,,,,,m,1,0.738,,,,,,,,0.201482612,0.062327508,0,0,0,,0,167,167,77,1,WHEEL,C,old,m,./images/WHEEL.png,,,,,,,,,,,,,,,,,,,,,,
,-0.065156521,-0.427936605,1,0,0,instr_done_button,,,,,,1,test,"In the next phase you will be presented with the words from the the first phase. Your job is to decide whether you remember seeing the word or not. If you remember seeing the word press ""old"" or type ""m"". If you do not remember seeing the word press ""new"" or type ""z"". Please press the space bar or click on continue to begin. ",,,199039,19,2022-01-29_16h42.30.964,lexical_decision_task_DD_L5,2021.2.3,MacIntel,60.0024001,,,,,,,,,,,,,,,,,,,,,,,,,,,,,,,,,,,,,,,,,,,,,,,,,,,,,0,0,0,0,1,,,,,,,,,,,,,,,,
space,-0.105709907,-0.380086127,0,0,0,,,,,,,1,test,"In the next phase you will be presented with the words from the the first phase. Your job is to decide whether you remember seeing the word or not. If you remember seeing the word press ""old"" or type ""m"". If you do not remember seeing the word press ""new"" or type ""z"". Please press the space bar or click on continue to begin. ",,,199039,19,2022-01-29_16h42.30.964,lexical_decision_task_DD_L5,2021.2.3,MacIntel,60.0024001,,,,,,,,,,,,,,,,,,,,,,,,,,,,,,,,,,,,,,,,,,,,,,,,,,,,,1,0,1,0,1,3.9168,,,,,,,,,,,,,,,
,-0.098173286,-0.392573853,1,0,0,instr_done_button,,,,,,1,test,"In the next phase you will be presented with the words from the the first phase. Your job is to decide whether you remember seeing the word or not. If you remember seeing the word press ""old"" or type ""m"". If you do not remember seeing the word press ""new"" or type ""z"". Please press the space bar or click on continue to begin. ",,,199039,19,2022-01-29_16h42.30.964,lexical_decision_task_DD_L5,2021.2.3,MacIntel,60.0024001,,,,,,,,,,,,,,,,,,,,,,,,,,,,,,,,,,,,,,,,,,,,,,,,,,,,,2,0,2,0,1,,,,,,,,,,,,,,,,
,-0.048211806,-0.383526476,1,0,0,instr_done_button,,,,,,1,test,"In the next phase you will be presented with the words from the the first phase. Your job is to decide whether you remember seeing the word or not. If you remember seeing the word press ""old"" or type ""m"". If you do not remember seeing the word press ""new"" or type ""z"". Please press the space bar or click on continue to begin. ",,,199039,19,2022-01-29_16h42.30.964,lexical_decision_task_DD_L5,2021.2.3,MacIntel,60.0024001,,,,,,,,,,,,,,,,,,,,,,,,,,,,,,,,,,,,,,,,,,,,,,,,,,,,,3,0,3,0,1,,,,,,,,,,,,,,,,
space,0.046333889,-0.010799323,0,0,0,,,,,,,1,test,"In the next phase you will be presented with the words from the the first phase. Your job is to decide whether you remember seeing the word or not. If you remember seeing the word press ""old"" or type ""m"". If you do not remember seeing the word press ""new"" or type ""z"". Please press the space bar or click on continue to begin. ",,,199039,19,2022-01-29_16h42.30.964,lexical_decision_task_DD_L5,2021.2.3,MacIntel,60.0024001,,,,,,,,,,,,,,,,,,,,,,,,,,,,,,,,,,,,,,,,,,,,,,,,,,,,,4,0,4,0,1,1.7564,,,,,,,,,,,,,,,
,,,,,,,,,,,,,,,,,199039,19,2022-01-29_16h42.30.964,lexical_decision_task_DD_L5,2021.2.3,MacIntel,60.0024001,,,,,,,,,,,2.8168,1,,,,,,,,,,,,,,,,,,,,,,,,0.046333889,-0.010799323,0,0,0,,,,,,,SCREW,HB,z,y,./images/SCREWHB.png,,,,,,,,z,1,2.8168,,,,,,,,0,0,0,108,1
,,,,,,,,,,,,,,,,,199039,19,2022-01-29_16h42.30.964,lexical_decision_task_DD_L5,2021.2.3,MacIntel,60.0024001,,,,,,,,,,,2.0816,1,,,,,,,,,,,,,,,,,,,,,,,,0.046333889,-0.010799323,0,0,0,,,,,,,GRANNY,C,m,y,./images/GRANNY.png,,,,,,,,m,1,2.0816,,,,,,,,0,1,1,20,1
,,,,,,,,,,,,,,,,,199039,19,2022-01-29_16h42.30.964,lexical_decision_task_DD_L5,2021.2.3,MacIntel,60.0024001,,,,,,,,,,,1.5763,1,,,,,,,,,,,,,,,,,,,,,,,,0.046333889,-0.010799323,0,0,0,,,,,,,CARPET,C,z,y,./images/CARPET.png,,,,,,,,z,1,1.5763,,,,,,,,0,2,2,137,1
,,,,,,,,,,,,,,,,,199039,19,2022-01-29_16h42.30.964,lexical_decision_task_DD_L5,2021.2.3,MacIntel,60.0024001,,,,,,,,,,,0.7305,1,,,,,,,,,,,,,,,,,,,,,,,,0.046333889,-0.010799323,0,0,0,,,,,,,POKER,LB,m,y,./images/POKERLB.png,,,,,,,,m,1,0.7305,,,,,,,,0,3,3,67,1
,,,,,,,,,,,,,,,,,199039,19,2022-01-29_16h42.30.964,lexical_decision_task_DD_L5,2021.2.3,MacIntel,60.0024001,,,,,,,,,,,1.64,1,,,,,,,,,,,,,,,,,,,,,,,,0.046333889,-0.010799323,0,0,0,,,,,,,SMOKER,C,z,y,./images/SMOKER.png,,,,,,,,z,1,1.64,,,,,,,,0,4,4,110,1
,,,,,,,,,,,,,,,,,199039,19,2022-01-29_16h42.30.964,lexical_decision_task_DD_L5,2021.2.3,MacIntel,60.0024001,,,,,,,,,,,0.929,1,,,,,,,,,,,,,,,,,,,,,,,,0.046333889,-0.010799323,0,0,0,,,,,,,FOLDER,HB,z,y,./images/FOLDERHB.png,,,,,,,,z,1,0.929,,,,,,,,0,5,5,126,1
,,,,,,,,,,,,,,,,,199039,19,2022-01-29_16h42.30.964,lexical_decision_task_DD_L5,2021.2.3,MacIntel,60.0024001,,,,,,,,,,,0.8493,1,,,,,,,,,,,,,,,,,,,,,,,,0.046333889,-0.010799323,0,0,0,,,,,,,TWINS,HB,z,y,./images/TWINSHB.png,,,,,,,,z,1,0.8493,,,,,,,,0,6,6,144,1
,,,,,,,,,,,,,,,,,199039,19,2022-01-29_16h42.30.964,lexical_decision_task_DD_L5,2021.2.3,MacIntel,60.0024001,,,,,,,,,,,2.1185,1,,,,,,,,,,,,,,,,,,,,,,,,0.046333889,-0.010799323,0,0,0,,,,,,,CRADLE,C,z,y,./images/CRADLE.png,,,,,,,,z,1,2.1185,,,,,,,,0,7,7,104,1
,,,,,,,,,,,,,,,,,199039,19,2022-01-29_16h42.30.964,lexical_decision_task_DD_L5,2021.2.3,MacIntel,60.0024001,,,,,,,,,,,1.1195,1,,,,,,,,,,,,,,,,,,,,,,,,0.046333889,-0.010799323,0,0,0,,,,,,,MAGGOT,HB,z,y,./images/MAGGOTHB.png,,,,,,,,z,1,1.1195,,,,,,,,0,8,8,117,1
,,,,,,,,,,,,,,,,,199039,19,2022-01-29_16h42.30.964,lexical_decision_task_DD_L5,2021.2.3,MacIntel,60.0024001,,,,,,,,,,,1.3044,1,,,,,,,,,,,,,,,,,,,,,,,,0.046333889,-0.010799323,0,0,0,,,,,,,WAGON,LB,m,y,./images/WAGONLB.png,,,,,,,,m,1,1.3044,,,,,,,,0,9,9,7,1
,,,,,,,,,,,,,,,,,199039,19,2022-01-29_16h42.30.964,lexical_decision_task_DD_L5,2021.2.3,MacIntel,60.0024001,,,,,,,,,,,0.9955,1,,,,,,,,,,,,,,,,,,,,,,,,0.046333889,-0.010799323,0,0,0,,,,,,,ONION,HB,z,y,./images/ONIONHB.png,,,,,,,,z,1,0.9955,,,,,,,,0,10,10,135,1
,,,,,,,,,,,,,,,,,199039,19,2022-01-29_16h42.30.964,lexical_decision_task_DD_L5,2021.2.3,MacIntel,60.0024001,,,,,,,,,,,1.2804,1,,,,,,,,,,,,,,,,,,,,,,,,0.046333889,-0.010799323,0,0,0,,,,,,,BABOON,LB,z,y,./images/BABOONLB.png,,,,,,,,z,1,1.2804,,,,,,,,0,11,11,142,1
,,,,,,,,,,,,,,,,,199039,19,2022-01-29_16h42.30.964,lexical_decision_task_DD_L5,2021.2.3,MacIntel,60.0024001,,,,,,,,,,,0.7963,1,,,,,,,,,,,,,,,,,,,,,,,,0.046333889,-0.010799323,0,0,0,,,,,,,CLOTH,C,m,y,./images/CLOTH.png,,,,,,,,m,1,0.7963,,,,,,,,0,12,12,23,1
,,,,,,,,,,,,,,,,,199039,19,2022-01-29_16h42.30.964,lexical_decision_task_DD_L5,2021.2.3,MacIntel,60.0024001,,,,,,,,,,,0.6862,1,,,,,,,,,,,,,,,,,,,,,,,,0.046333889,-0.010799323,0,0,0,,,,,,,CANDY,HB,m,y,./images/CANDYHB.png,,,,,,,,m,1,0.6862,,,,,,,,0,13,13,39,1
,,,,,,,,,,,,,,,,,199039,19,2022-01-29_16h42.30.964,lexical_decision_task_DD_L5,2021.2.3,MacIntel,60.0024001,,,,,,,,,,,0.8885,1,,,,,,,,,,,,,,,,,,,,,,,,0.046333889,-0.010799323,0,0,0,,,,,,,TOMATO,HB,z,y,./images/TOMATOHB.png,,,,,,,,z,1,0.8885,,,,,,,,0,14,14,84,1
,,,,,,,,,,,,,,,,,199039,19,2022-01-29_16h42.30.964,lexical_decision_task_DD_L5,2021.2.3,MacIntel,60.0024001,,,,,,,,,,,1.1126,1,,,,,,,,,,,,,,,,,,,,,,,,0.046333889,-0.010799323,0,0,0,,,,,,,SAILOR,LB,z,y,./images/SAILORLB.png,,,,,,,,z,1,1.1126,,,,,,,,0,15,15,151,1
,,,,,,,,,,,,,,,,,199039,19,2022-01-29_16h42.30.964,lexical_decision_task_DD_L5,2021.2.3,MacIntel,60.0024001,,,,,,,,,,,0.8033,1,,,,,,,,,,,,,,,,,,,,,,,,0.046333889,-0.010799323,0,0,0,,,,,,,TORCH,C,z,y,./images/TORCH.png,,,,,,,,z,1,0.8033,,,,,,,,0,16,16,152,1
,,,,,,,,,,,,,,,,,199039,19,2022-01-29_16h42.30.964,lexical_decision_task_DD_L5,2021.2.3,MacIntel,60.0024001,,,,,,,,,,,2.1316,1,,,,,,,,,,,,,,,,,,,,,,,,0.046333889,-0.010799323,0,0,0,,,,,,,NOOSE,HB,z,y,./images/NOOSEHB.png,,,,,,,,z,1,2.1316,,,,,,,,0,17,17,156,1
,,,,,,,,,,,,,,,,,199039,19,2022-01-29_16h42.30.964,lexical_decision_task_DD_L5,2021.2.3,MacIntel,60.0024001,,,,,,,,,,,2.3686,1,,,,,,,,,,,,,,,,,,,,,,,,0.046333889,-0.010799323,0,0,0,,,,,,,SNAKE,LB,m,y,./images/SNAKELB.png,,,,,,,,m,1,2.3686,,,,,,,,0,18,18,40,1
,,,,,,,,,,,,,,,,,199039,19,2022-01-29_16h42.30.964,lexical_decision_task_DD_L5,2021.2.3,MacIntel,60.0024001,,,,,,,,,,,0.9684,1,,,,,,,,,,,,,,,,,,,,,,,,0.046333889,-0.010799323,0,0,0,,,,,,,JUNGLE,C,z,y,./images/JUNGLE.png,,,,,,,,z,1,0.9684,,,,,,,,0,19,19,167,1
,,,,,,,,,,,,,,,,,199039,19,2022-01-29_16h42.30.964,lexical_decision_task_DD_L5,2021.2.3,MacIntel,60.0024001,,,,,,,,,,,1.8838,0,,,,,,,,,,,,,,,,,,,,,,,,0.046333889,-0.010799323,0,0,0,,,,,,,CHERRY,HB,m,y,./images/CHERRYHB.png,,,,,,,,z,0,1.8838,,,,,,,,0,20,20,54,1
,,,,,,,,,,,,,,,,,199039,19,2022-01-29_16h42.30.964,lexical_decision_task_DD_L5,2021.2.3,MacIntel,60.0024001,,,,,,,,,,,0.967,1,,,,,,,,,,,,,,,,,,,,,,,,0.046333889,-0.010799323,0,0,0,,,,,,,PAINT,LB,z,y,./images/PAINTLB.png,,,,,,,,z,1,0.967,,,,,,,,0,21,21,91,1
,,,,,,,,,,,,,,,,,199039,19,2022-01-29_16h42.30.964,lexical_decision_task_DD_L5,2021.2.3,MacIntel,60.0024001,,,,,,,,,,,0.8309,1,,,,,,,,,,,,,,,,,,,,,,,,0.046333889,-0.010799323,0,0,0,,,,,,,SWING,LB,z,y,./images/SWINGLB.png,,,,,,,,z,1,0.8309,,,,,,,,0,22,22,124,1
,,,,,,,,,,,,,,,,,199039,19,2022-01-29_16h42.30.964,lexical_decision_task_DD_L5,2021.2.3,MacIntel,60.0024001,,,,,,,,,,,0.7864,1,,,,,,,,,,,,,,,,,,,,,,,,0.046333889,-0.010799323,0,0,0,,,,,,,MOSQUE,LB,z,y,./images/MOSQUELB.png,,,,,,,,z,1,0.7864,,,,,,,,0,23,23,127,1
,,,,,,,,,,,,,,,,,199039,19,2022-01-29_16h42.30.964,lexical_decision_task_DD_L5,2021.2.3,MacIntel,60.0024001,,,,,,,,,,,1.1088,1,,,,,,,,,,,,,,,,,,,,,,,,0.046333889,-0.010799323,0,0,0,,,,,,,PEBBLE,LB,m,y,./images/PEBBLELB.png,,,,,,,,m,1,1.1088,,,,,,,,0,24,24,82,1
,,,,,,,,,,,,,,,,,199039,19,2022-01-29_16h42.30.964,lexical_decision_task_DD_L5,2021.2.3,MacIntel,60.0024001,,,,,,,,,,,1.1496,1,,,,,,,,,,,,,,,,,,,,,,,,0.046333889,-0.010799323,0,0,0,,,,,,,URINE,LB,z,y,./images/URINELB.png,,,,,,,,z,1,1.1496,,,,,,,,0,25,25,154,1
,,,,,,,,,,,,,,,,,199039,19,2022-01-29_16h42.30.964,lexical_decision_task_DD_L5,2021.2.3,MacIntel,60.0024001,,,,,,,,,,,0.8763,1,,,,,,,,,,,,,,,,,,,,,,,,0.046333889,-0.010799323,0,0,0,,,,,,,DIVER,HB,m,y,./images/DIVERHB.png,,,,,,,,m,1,0.8763,,,,,,,,0,26,26,9,1
,,,,,,,,,,,,,,,,,199039,19,2022-01-29_16h42.30.964,lexical_decision_task_DD_L5,2021.2.3,MacIntel,60.0024001,,,,,,,,,,,1.7767,1,,,,,,,,,,,,,,,,,,,,,,,,0.046333889,-0.010799323,0,0,0,,,,,,,STEAK,LB,m,y,./images/STEAKLB.png,,,,,,,,m,1,1.7767,,,,,,,,0,27,27,31,1
,,,,,,,,,,,,,,,,,199039,19,2022-01-29_16h42.30.964,lexical_decision_task_DD_L5,2021.2.3,MacIntel,60.0024001,,,,,,,,,,,1.3339,1,,,,,,,,,,,,,,,,,,,,,,,,0.046333889,-0.010799323,0,0,0,,,,,,,CANYON,LB,z,y,./images/CANYONLB.png,,,,,,,,z,1,1.3339,,,,,,,,0,28,28,118,1
,,,,,,,,,,,,,,,,,199039,19,2022-01-29_16h42.30.964,lexical_decision_task_DD_L5,2021.2.3,MacIntel,60.0024001,,,,,,,,,,,0.9162,1,,,,,,,,,,,,,,,,,,,,,,,,0.046333889,-0.010799323,0,0,0,,,,,,,PIMPLE,C,z,y,./images/PIMPLE.png,,,,,,,,z,1,0.9162,,,,,,,,0,29,29,155,1
,,,,,,,,,,,,,,,,,199039,19,2022-01-29_16h42.30.964,lexical_decision_task_DD_L5,2021.2.3,MacIntel,60.0024001,,,,,,,,,,,0.9895,0,,,,,,,,,,,,,,,,,,,,,,,,0.046333889,-0.010799323,0,0,0,,,,,,,SHORE,HB,z,y,./images/SHOREHB.png,,,,,,,,m,0,0.9895,,,,,,,,0,30,30,96,1
,,,,,,,,,,,,,,,,,199039,19,2022-01-29_16h42.30.964,lexical_decision_task_DD_L5,2021.2.3,MacIntel,60.0024001,,,,,,,,,,,0.6796,0,,,,,,,,,,,,,,,,,,,,,,,,0.046333889,-0.010799323,0,0,0,,,,,,,GRAIN,HB,z,y,./images/GRAINHB.png,,,,,,,,m,0,0.6796,,,,,,,,0,31,31,159,1
,,,,,,,,,,,,,,,,,199039,19,2022-01-29_16h42.30.964,lexical_decision_task_DD_L5,2021.2.3,MacIntel,60.0024001,,,,,,,,,,,1.2652,1,,,,,,,,,,,,,,,,,,,,,,,,0.046333889,-0.010799323,0,0,0,,,,,,,JAGUAR,HB,z,y,./images/JAGUARHB.png,,,,,,,,z,1,1.2652,,,,,,,,0,32,32,102,1
,,,,,,,,,,,,,,,,,199039,19,2022-01-29_16h42.30.964,lexical_decision_task_DD_L5,2021.2.3,MacIntel,60.0024001,,,,,,,,,,,0.769,1,,,,,,,,,,,,,,,,,,,,,,,,0.046333889,-0.010799323,0,0,0,,,,,,,SPORT,HB,z,y,./images/SPORTHB.png,,,,,,,,z,1,0.769,,,,,,,,0,33,33,132,1
,,,,,,,,,,,,,,,,,199039,19,2022-01-29_16h42.30.964,lexical_decision_task_DD_L5,2021.2.3,MacIntel,60.0024001,,,,,,,,,,,0.8162,1,,,,,,,,,,,,,,,,,,,,,,,,0.046333889,-0.010799323,0,0,0,,,,,,,TULIP,C,z,y,./images/TULIP.png,,,,,,,,z,1,0.8162,,,,,,,,0,34,34,92,1
,,,,,,,,,,,,,,,,,199039,19,2022-01-29_16h42.30.964,lexical_decision_task_DD_L5,2021.2.3,MacIntel,60.0024001,,,,,,,,,,,0.8995,1,,,,,,,,,,,,,,,,,,,,,,,,0.046333889,-0.010799323,0,0,0,,,,,,,HOCKEY,C,m,y,./images/HOCKEY.png,,,,,,,,m,1,0.8995,,,,,,,,0,35,35,32,1
,,,,,,,,,,,,,,,,,199039,19,2022-01-29_16h42.30.964,lexical_decision_task_DD_L5,2021.2.3,MacIntel,60.0024001,,,,,,,,,,,2.7109,1,,,,,,,,,,,,,,,,,,,,,,,,0.046333889,-0.010799323,0,0,0,,,,,,,GREASE,HB,z,y,./images/GREASEHB.png,,,,,,,,z,1,2.7109,,,,,,,,0,36,36,99,1
,,,,,,,,,,,,,,,,,199039,19,2022-01-29_16h42.30.964,lexical_decision_task_DD_L5,2021.2.3,MacIntel,60.0024001,,,,,,,,,,,1.3372,1,,,,,,,,,,,,,,,,,,,,,,,,0.046333889,-0.010799323,0,0,0,,,,,,,MOTOR,LB,z,y,./images/MOTORLB.png,,,,,,,,z,1,1.3372,,,,,,,,0,37,37,97,1
,,,,,,,,,,,,,,,,,199039,19,2022-01-29_16h42.30.964,lexical_decision_task_DD_L5,2021.2.3,MacIntel,60.0024001,,,,,,,,,,,0.7093,1,,,,,,,,,,,,,,,,,,,,,,,,0.046333889,-0.010799323,0,0,0,,,,,,,BOXER,LB,m,y,./images/BOXERLB.png,,,,,,,,m,1,0.7093,,,,,,,,0,38,38,4,1
,,,,,,,,,,,,,,,,,199039,19,2022-01-29_16h42.30.964,lexical_decision_task_DD_L5,2021.2.3,MacIntel,60.0024001,,,,,,,,,,,0.7385,1,,,,,,,,,,,,,,,,,,,,,,,,0.046333889,-0.010799323,0,0,0,,,,,,,PASTA,C,z,y,./images/PASTA.png,,,,,,,,z,1,0.7385,,,,,,,,0,39,39,89,1
,,,,,,,,,,,,,,,,,199039,19,2022-01-29_16h42.30.964,lexical_decision_task_DD_L5,2021.2.3,MacIntel,60.0024001,,,,,,,,,,,0.6961,1,,,,,,,,,,,,,,,,,,,,,,,,0.046333889,-0.010799323,0,0,0,,,,,,,CURRY,HB,m,y,./images/CURRYHB.png,,,,,,,,m,1,0.6961,,,,,,,,0,40,40,60,1
,,,,,,,,,,,,,,,,,199039,19,2022-01-29_16h42.30.964,lexical_decision_task_DD_L5,2021.2.3,MacIntel,60.0024001,,,,,,,,,,,1.9523,1,,,,,,,,,,,,,,,,,,,,,,,,0.046333889,-0.010799323,0,0,0,space,,,,,,SPINE,C,m,y,./images/SPINE.png,1.7519,,,,,,,m,1,1.9523,,,,,,,,0,41,41,65,1
,,,,,,,,,,,,,,,,,199039,19,2022-01-29_16h42.30.964,lexical_decision_task_DD_L5,2021.2.3,MacIntel,60.0024001,,,,,,,,,,,1.1422,1,,,,,,,,,,,,,,,,,,,,,,,,0.046333889,-0.010799323,0,0,0,,,,,,,GRAPE,LB,m,y,./images/GRAPELB.png,,,,,,,,m,1,1.1422,,,,,,,,0,42,42,16,1
,,,,,,,,,,,,,,,,,199039,19,2022-01-29_16h42.30.964,lexical_decision_task_DD_L5,2021.2.3,MacIntel,60.0024001,,,,,,,,,,,0.8603,1,,,,,,,,,,,,,,,,,,,,,,,,0.046333889,-0.010799323,1,0,0,,,,,,,PURSE,C,z,y,./images/PURSE.png,,,,,,,,z,1,0.8603,0.046333889,-0.010799323,1,0,0,0.7148,,0,43,43,146,1
,,,,,,,,,,,,,,,,,199039,19,2022-01-29_16h42.30.964,lexical_decision_task_DD_L5,2021.2.3,MacIntel,60.0024001,,,,,,,,,,,0.8027,1,,,,,,,,,,,,,,,,,,,,,,,,0.046333889,-0.010543349,1,0,0,,,,,,,BAMBOO,C,m,y,./images/BAMBOO.png,,,,,,,,m,1,0.8027,0.046333889,-0.010543349,1,0,0,0.8147,,0,44,44,5,1
,,,,,,,,,,,,,,,,,199039,19,2022-01-29_16h42.30.964,lexical_decision_task_DD_L5,2021.2.3,MacIntel,60.0024001,,,,,,,,,,,0.9523,1,,,,,,,,,,,,,,,,,,,,,,,,0.046333889,-0.009432237,0,0,0,,,,,,,PARCEL,HB,m,y,./images/PARCELHB.png,,,,,,,,m,1,0.9523,,,,,,,,0,45,45,18,1
,,,,,,,,,,,,,,,,,199039,19,2022-01-29_16h42.30.964,lexical_decision_task_DD_L5,2021.2.3,MacIntel,60.0024001,,,,,,,,,,,1.0752,1,,,,,,,,,,,,,,,,,,,,,,,,0.046333889,-0.009432237,0,0,0,,,,,,,SLOPE,HB,m,y,./images/SLOPEHB.png,,,,,,,,m,1,1.0752,,,,,,,,0,46,46,30,1
,,,,,,,,,,,,,,,,,199039,19,2022-01-29_16h42.30.964,lexical_decision_task_DD_L5,2021.2.3,MacIntel,60.0024001,,,,,,,,,,,0.782,1,,,,,,,,,,,,,,,,,,,,,,,,0.046333889,-0.008890144,0,0,0,,,,,,,SHIELD,HB,m,y,./images/SHIELDHB.png,,,,,,,,m,1,0.782,,,,,,,,0,47,47,48,1
,,,,,,,,,,,,,,,,,199039,19,2022-01-29_16h42.30.964,lexical_decision_task_DD_L5,2021.2.3,MacIntel,60.0024001,,,,,,,,,,,1.1893,1,,,,,,,,,,,,,,,,,,,,,,,,0.046333889,-0.008890144,0,0,0,,,,,,,CLIFF,C,m,y,./images/CLIFF.png,,,,,,,,m,1,1.1893,,,,,,,,0,48,48,8,1
,,,,,,,,,,,,,,,,,199039,19,2022-01-29_16h42.30.964,lexical_decision_task_DD_L5,2021.2.3,MacIntel,60.0024001,,,,,,,,,,,0.886,1,,,,,,,,,,,,,,,,,,,,,,,,0.046333889,-0.008890144,0,0,0,,,,,,,CRUMB,C,z,y,./images/CRUMB.png,,,,,,,,z,1,0.886,,,,,,,,0,49,49,113,1
,,,,,,,,,,,,,,,,,199039,19,2022-01-29_16h42.30.964,lexical_decision_task_DD_L5,2021.2.3,MacIntel,60.0024001,,,,,,,,,,,0.9694,1,,,,,,,,,,,,,,,,,,,,,,,,0.046333889,-0.008890144,0,0,0,,,,,,,COOKER,HB,z,y,./images/COOKERHB.png,,,,,,,,z,1,0.9694,,,,,,,,0,50,50,153,1
,,,,,,,,,,,,,,,,,199039,19,2022-01-29_16h42.30.964,lexical_decision_task_DD_L5,2021.2.3,MacIntel,60.0024001,,,,,,,,,,,1.9939,1,,,,,,,,,,,,,,,,,,,,,,,,0.046333889,-0.008890144,0,0,0,,,,,,,PLANET,C,m,y,./images/PLANET.png,,,,,,,,m,1,1.9939,,,,,,,,0,51,51,80,1
,,,,,,,,,,,,,,,,,199039,19,2022-01-29_16h42.30.964,lexical_decision_task_DD_L5,2021.2.3,MacIntel,60.0024001,,,,,,,,,,,1.2494,1,,,,,,,,,,,,,,,,,,,,,,,,0.046333889,-0.008890144,0,0,0,,,,,,,STOOL,LB,m,y,./images/STOOLLB.png,,,,,,,,m,1,1.2494,,,,,,,,0,52,52,43,1
,,,,,,,,,,,,,,,,,199039,19,2022-01-29_16h42.30.964,lexical_decision_task_DD_L5,2021.2.3,MacIntel,60.0024001,,,,,,,,,,,0.7501,1,,,,,,,,,,,,,,,,,,,,,,,,0.046333889,-0.008890144,0,0,0,,,,,,,CASINO,LB,m,y,./images/CASINOLB.png,,,,,,,,m,1,0.7501,,,,,,,,0,53,53,28,1
,,,,,,,,,,,,,,,,,199039,19,2022-01-29_16h42.30.964,lexical_decision_task_DD_L5,2021.2.3,MacIntel,60.0024001,,,,,,,,,,,0.7993,1,,,,,,,,,,,,,,,,,,,,,,,,0.046333889,-0.008890144,0,0,0,,,,,,,MUSCLE,LB,z,y,./images/MUSCLELB.png,,,,,,,,z,1,0.7993,,,,,,,,0,54,54,88,1
,,,,,,,,,,,,,,,,,199039,19,2022-01-29_16h42.30.964,lexical_decision_task_DD_L5,2021.2.3,MacIntel,60.0024001,,,,,,,,,,,1.1794,1,,,,,,,,,,,,,,,,,,,,,,,,0.046333889,-0.008890144,0,0,0,,,,,,,BIRTH,LB,z,y,./images/BIRTHLB.png,,,,,,,,z,1,1.1794,,,,,,,,0,55,55,121,1
,,,,,,,,,,,,,,,,,199039,19,2022-01-29_16h42.30.964,lexical_decision_task_DD_L5,2021.2.3,MacIntel,60.0024001,,,,,,,,,,,1.767,0,,,,,,,,,,,,,,,,,,,,,,,,0.046047092,-0.008634135,0,0,0,,,,,,,STRING,C,z,y,./images/STRING.png,,,,,,,,m,0,1.767,,,,,,,,0,56,56,125,1
,,,,,,,,,,,,,,,,,199039,19,2022-01-29_16h42.30.964,lexical_decision_task_DD_L5,2021.2.3,MacIntel,60.0024001,,,,,,,,,,,0.921,1,,,,,,,,,,,,,,,,,,,,,,,,0.045211656,-0.007539978,0,0,0,,,,,,,PICKLE,C,z,y,./images/PICKLE.png,,,,,,,,z,1,0.921,,,,,,,,0,57,57,98,1
,,,,,,,,,,,,,,,,,199039,19,2022-01-29_16h42.30.964,lexical_decision_task_DD_L5,2021.2.3,MacIntel,60.0024001,,,,,,,,,,,0.968,1,,,,,,,,,,,,,,,,,,,,,,,,0.045211656,-0.007539978,0,0,0,,,,,,,WHEEL,C,m,y,./images/WHEEL.png,,,,,,,,m,1,0.968,,,,,,,,0,58,58,77,1
,,,,,,,,,,,,,,,,,199039,19,2022-01-29_16h42.30.964,lexical_decision_task_DD_L5,2021.2.3,MacIntel,60.0024001,,,,,,,,,,,0.8875,1,,,,,,,,,,,,,,,,,,,,,,,,0.045211656,-0.007539978,0,0,0,,,,,,,THROAT,HB,z,y,./images/THROATHB.png,,,,,,,,z,1,0.8875,,,,,,,,0,59,59,120,1
,,,,,,,,,,,,,,,,,199039,19,2022-01-29_16h42.30.964,lexical_decision_task_DD_L5,2021.2.3,MacIntel,60.0024001,,,,,,,,,,,0.7877,0,,,,,,,,,,,,,,,,,,,,,,,,0.045211656,-0.007539978,0,0,0,,,,,,,RAZOR,LB,m,y,./images/RAZORLB.png,,,,,,,,z,0,0.7877,,,,,,,,0,60,60,34,1
,,,,,,,,,,,,,,,,,199039,19,2022-01-29_16h42.30.964,lexical_decision_task_DD_L5,2021.2.3,MacIntel,60.0024001,,,,,,,,,,,0.8976,1,,,,,,,,,,,,,,,,,,,,,,,,0.045211656,-0.007539978,0,0,0,,,,,,,BUBBLE,C,m,y,./images/BUBBLE.png,,,,,,,,m,1,0.8976,,,,,,,,0,61,61,71,1
,,,,,,,,,,,,,,,,,199039,19,2022-01-29_16h42.30.964,lexical_decision_task_DD_L5,2021.2.3,MacIntel,60.0024001,,,,,,,,,,,0.9361,1,,,,,,,,,,,,,,,,,,,,,,,,0.045211656,-0.007539978,0,0,0,,,,,,,FARMER,C,z,y,./images/FARMER.png,,,,,,,,z,1,0.9361,,,,,,,,0,62,62,149,1
,,,,,,,,,,,,,,,,,199039,19,2022-01-29_16h42.30.964,lexical_decision_task_DD_L5,2021.2.3,MacIntel,60.0024001,,,,,,,,,,,0.6974,1,,,,,,,,,,,,,,,,,,,,,,,,0.045211656,-0.007539978,0,0,0,,,,,,,LLAMA,C,m,y,./images/LLAMA.png,,,,,,,,m,1,0.6974,,,,,,,,0,63,63,35,1
,,,,,,,,,,,,,,,,,199039,19,2022-01-29_16h42.30.964,lexical_decision_task_DD_L5,2021.2.3,MacIntel,60.0024001,,,,,,,,,,,0.922,1,,,,,,,,,,,,,,,,,,,,,,,,0.045211656,-0.007539978,0,0,0,,,,,,,PEACH,C,z,y,./images/PEACH.png,,,,,,,,z,1,0.922,,,,,,,,0,64,64,119,1
,,,,,,,,,,,,,,,,,199039,19,2022-01-29_16h42.30.964,lexical_decision_task_DD_L5,2021.2.3,MacIntel,60.0024001,,,,,,,,,,,0.8432,1,,,,,,,,,,,,,,,,,,,,,,,,0.045211656,-0.007539978,0,0,0,,,,,,,STREAM,C,m,y,./images/STREAM.png,,,,,,,,m,1,0.8432,,,,,,,,0,65,65,41,1
,,,,,,,,,,,,,,,,,199039,19,2022-01-29_16h42.30.964,lexical_decision_task_DD_L5,2021.2.3,MacIntel,60.0024001,,,,,,,,,,,0.682,1,,,,,,,,,,,,,,,,,,,,,,,,0.045211656,-0.007539978,0,0,0,,,,,,,VALLEY,C,m,y,./images/VALLEY.png,,,,,,,,m,1,0.682,,,,,,,,0,66,66,68,1
,,,,,,,,,,,,,,,,,199039,19,2022-01-29_16h42.30.964,lexical_decision_task_DD_L5,2021.2.3,MacIntel,60.0024001,,,,,,,,,,,1.0035,1,,,,,,,,,,,,,,,,,,,,,,,,0.045211656,-0.007539978,0,0,0,,,,,,,PACKET,C,z,y,./images/PACKET.png,,,,,,,,z,1,1.0035,,,,,,,,0,67,67,140,1
,,,,,,,,,,,,,,,,,199039,19,2022-01-29_16h42.30.964,lexical_decision_task_DD_L5,2021.2.3,MacIntel,60.0024001,,,,,,,,,,,1.0369,1,,,,,,,,,,,,,,,,,,,,,,,,0.045211656,-0.007539978,0,0,0,,,,,,,FERRY,HB,m,y,./images/FERRYHB.png,,,,,,,,m,1,1.0369,,,,,,,,0,68,68,57,1
,,,,,,,,,,,,,,,,,199039,19,2022-01-29_16h42.30.964,lexical_decision_task_DD_L5,2021.2.3,MacIntel,60.0024001,,,,,,,,,,,1.9698,0,,,,,,,,,,,,,,,,,,,,,,,,0.045211656,-0.007539978,0,0,0,,,,,,,QUILL,LB,z,y,./images/QUILLLB.png,,,,,,,,m,0,1.9698,,,,,,,,0,69,69,115,1
,,,,,,,,,,,,,,,,,199039,19,2022-01-29_16h42.30.964,lexical_decision_task_DD_L5,2021.2.3,MacIntel,60.0024001,,,,,,,,,,,0.7847,1,,,,,,,,,,,,,,,,,,,,,,,,0.045211656,-0.007539978,0,0,0,,,,,,,BOILER,HB,m,y,./images/BOILERHB.png,,,,,,,,m,1,0.7847,,,,,,,,0,70,70,36,1
,,,,,,,,,,,,,,,,,199039,19,2022-01-29_16h42.30.964,lexical_decision_task_DD_L5,2021.2.3,MacIntel,60.0024001,,,,,,,,,,,0.6977,1,,,,,,,,,,,,,,,,,,,,,,,,0.045211656,-0.007539978,0,0,0,,,,,,,INFANT,LB,z,y,./images/INFANTLB.png,,,,,,,,z,1,0.6977,,,,,,,,0,71,71,160,1
,,,,,,,,,,,,,,,,,199039,19,2022-01-29_16h42.30.964,lexical_decision_task_DD_L5,2021.2.3,MacIntel,60.0024001,,,,,,,,,,,1.0433,1,,,,,,,,,,,,,,,,,,,,,,,,0.045211656,-0.007539978,0,0,0,,,,,,,WEASEL,C,z,y,./images/WEASEL.png,,,,,,,,z,1,1.0433,,,,,,,,0,72,72,164,1
,,,,,,,,,,,,,,,,,199039,19,2022-01-29_16h42.30.964,lexical_decision_task_DD_L5,2021.2.3,MacIntel,60.0024001,,,,,,,,,,,0.919,1,,,,,,,,,,,,,,,,,,,,,,,,0.045211656,-0.007539978,0,0,0,,,,,,,LITTER,HB,z,y,./images/LITTERHB.png,,,,,,,,z,1,0.919,,,,,,,,0,73,73,162,1
,,,,,,,,,,,,,,,,,199039,19,2022-01-29_16h42.30.964,lexical_decision_task_DD_L5,2021.2.3,MacIntel,60.0024001,,,,,,,,,,,1.7944,1,,,,,,,,,,,,,,,,,,,,,,,,0.045211656,-0.007539978,0,0,0,,,,,,,POODLE,HB,z,y,./images/POODLEHB.png,,,,,,,,z,1,1.7944,,,,,,,,0,74,74,165,1
,,,,,,,,,,,,,,,,,199039,19,2022-01-29_16h42.30.964,lexical_decision_task_DD_L5,2021.2.3,MacIntel,60.0024001,,,,,,,,,,,0.8817,1,,,,,,,,,,,,,,,,,,,,,,,,0.045211656,-0.007539978,0,0,0,,,,,,,CHALK,LB,m,y,./images/CHALKLB.png,,,,,,,,m,1,0.8817,,,,,,,,0,75,75,25,1
,,,,,,,,,,,,,,,,,199039,19,2022-01-29_16h42.30.964,lexical_decision_task_DD_L5,2021.2.3,MacIntel,60.0024001,,,,,,,,,,,0.666,1,,,,,,,,,,,,,,,,,,,,,,,,0.045211656,-0.007539978,0,0,0,,,,,,,PISTOL,C,m,y,./images/PISTOL.png,,,,,,,,m,1,0.666,,,,,,,,0,76,76,29,1
,,,,,,,,,,,,,,,,,199039,19,2022-01-29_16h42.30.964,lexical_decision_task_DD_L5,2021.2.3,MacIntel,60.0024001,,,,,,,,,,,0.8972,0,,,,,,,,,,,,,,,,,,,,,,,,0.045211656,-0.007539978,0,0,0,,,,,,,MEDAL,C,m,y,./images/MEDAL.png,,,,,,,,z,0,0.8972,,,,,,,,0,77,77,11,1
,,,,,,,,,,,,,,,,,199039,19,2022-01-29_16h42.30.964,lexical_decision_task_DD_L5,2021.2.3,MacIntel,60.0024001,,,,,,,,,,,0.7051,1,,,,,,,,,,,,,,,,,,,,,,,,0.045211656,-0.007539978,0,0,0,,,,,,,COLLAR,HB,m,y,./images/COLLARHB.png,,,,,,,,m,1,0.7051,,,,,,,,0,78,78,15,1
,,,,,,,,,,,,,,,,,199039,19,2022-01-29_16h42.30.964,lexical_decision_task_DD_L5,2021.2.3,MacIntel,60.0024001,,,,,,,,,,,0.8344,1,,,,,,,,,,,,,,,,,,,,,,,,0.045211656,-0.007539978,0,0,0,,,,,,,WRIST,LB,z,y,./images/WRISTLB.png,,,,,,,,z,1,0.8344,,,,,,,,0,79,79,109,1
,,,,,,,,,,,,,,,,,199039,19,2022-01-29_16h42.30.964,lexical_decision_task_DD_L5,2021.2.3,MacIntel,60.0024001,,,,,,,,,,,2.1119,1,,,,,,,,,,,,,,,,,,,,,,,,0.045211656,-0.007539978,0,0,0,,,,,,,BERRY,C,z,y,./images/BERRY.png,,,,,,,,z,1,2.1119,,,,,,,,0,80,80,131,1
,,,,,,,,,,,,,,,,,199039,19,2022-01-29_16h42.30.964,lexical_decision_task_DD_L5,2021.2.3,MacIntel,60.0024001,,,,,,,,,,,0.9285,0,,,,,,,,,,,,,,,,,,,,,,,,0.045211656,-0.007539978,0,0,0,,,,,,,FLESH,HB,m,y,./images/FLESHHB.png,,,,,,,,z,0,0.9285,,,,,,,,0,81,81,24,1
,,,,,,,,,,,,,,,,,199039,19,2022-01-29_16h42.30.964,lexical_decision_task_DD_L5,2021.2.3,MacIntel,60.0024001,,,,,,,,,,,1.1329,1,,,,,,,,,,,,,,,,,,,,,,,,0.045211656,-0.007539978,0,0,0,,,,,,,CANOE,LB,m,y,./images/CANOELB.png,,,,,,,,m,1,1.1329,,,,,,,,0,82,82,58,1
,,,,,,,,,,,,,,,,,199039,19,2022-01-29_16h42.30.964,lexical_decision_task_DD_L5,2021.2.3,MacIntel,60.0024001,,,,,,,,,,,0.7825,1,,,,,,,,,,,,,,,,,,,,,,,,0.045211656,-0.007539978,0,0,0,space,,,,,,FINGER,HB,z,y,./images/FINGERHB.png,0.9467,,,,,,,z,1,0.7825,,,,,,,,0,83,83,87,1
,,,,,,,,,,,,,,,,,199039,19,2022-01-29_16h42.30.964,lexical_decision_task_DD_L5,2021.2.3,MacIntel,60.0024001,,,,,,,,,,,0.7993,0,,,,,,,,,,,,,,,,,,,,,,,,0.045211656,-0.007539978,0,0,0,,,,,,,MIRROR,HB,z,y,./images/MIRRORHB.png,,,,,,,,m,0,0.7993,,,,,,,,0,84,84,147,1
,,,,,,,,,,,,,,,,,199039,19,2022-01-29_16h42.30.964,lexical_decision_task_DD_L5,2021.2.3,MacIntel,60.0024001,,,,,,,,,,,0.7983,0,,,,,,,,,,,,,,,,,,,,,,,,0.045211656,-0.007539978,0,0,0,,,,,,,MOOSE,HB,z,y,./images/MOOSEHB.png,,,,,,,,m,0,0.7983,,,,,,,,0,85,85,141,1
,,,,,,,,,,,,,,,,,199039,19,2022-01-29_16h42.30.964,lexical_decision_task_DD_L5,2021.2.3,MacIntel,60.0024001,,,,,,,,,,,0.695,1,,,,,,,,,,,,,,,,,,,,,,,,0.045211656,-0.007539978,0,0,0,,,,,,,MUFFIN,LB,z,y,./images/MUFFINLB.png,,,,,,,,z,1,0.695,,,,,,,,0,86,86,139,1
,,,,,,,,,,,,,,,,,199039,19,2022-01-29_16h42.30.964,lexical_decision_task_DD_L5,2021.2.3,MacIntel,60.0024001,,,,,,,,,,,1.3501,1,,,,,,,,,,,,,,,,,,,,,,,,0.045211656,-0.007539978,0,0,0,,,,,,,GLOVE,LB,m,y,./images/GLOVELB.png,,,,,,,,m,1,1.3501,,,,,,,,0,87,87,73,1
,,,,,,,,,,,,,,,,,199039,19,2022-01-29_16h42.30.964,lexical_decision_task_DD_L5,2021.2.3,MacIntel,60.0024001,,,,,,,,,,,1.8552,0,,,,,,,,,,,,,,,,,,,,,,,,0.045211656,-0.007539978,0,0,0,,,,,,,MELON,LB,z,y,./images/MELONLB.png,,,,,,,,m,0,1.8552,,,,,,,,0,88,88,106,1
,,,,,,,,,,,,,,,,,199039,19,2022-01-29_16h42.30.964,lexical_decision_task_DD_L5,2021.2.3,MacIntel,60.0024001,,,,,,,,,,,0.7152,1,,,,,,,,,,,,,,,,,,,,,,,,0.045211656,-0.007539978,0,0,0,,,,,,,RHINO,HB,z,y,./images/RHINOHB.png,,,,,,,,z,1,0.7152,,,,,,,,0,89,89,93,1
,,,,,,,,,,,,,,,,,199039,19,2022-01-29_16h42.30.964,lexical_decision_task_DD_L5,2021.2.3,MacIntel,60.0024001,,,,,,,,,,,0.9172,1,,,,,,,,,,,,,,,,,,,,,,,,0.045211656,-0.007539978,0,0,0,,,,,,,JUMPER,C,m,y,./images/JUMPER.png,,,,,,,,m,1,0.9172,,,,,,,,0,90,90,74,1
,,,,,,,,,,,,,,,,,199039,19,2022-01-29_16h42.30.964,lexical_decision_task_DD_L5,2021.2.3,MacIntel,60.0024001,,,,,,,,,,,1.5178,0,,,,,,,,,,,,,,,,,,,,,,,,0.045211656,-0.007539978,0,0,0,,,,,,,POSTER,C,m,y,./images/POSTER.png,,,,,,,,z,0,1.5178,,,,,,,,0,91,91,53,1
,,,,,,,,,,,,,,,,,199039,19,2022-01-29_16h42.30.964,lexical_decision_task_DD_L5,2021.2.3,MacIntel,60.0024001,,,,,,,,,,,1.4999,1,,,,,,,,,,,,,,,,,,,,,,,,0.045211656,-0.007539978,0,0,0,,,,,,,ALLEY,LB,m,y,./images/ALLEYLB.png,,,,,,,,m,1,1.4999,,,,,,,,0,92,92,55,1
,,,,,,,,,,,,,,,,,199039,19,2022-01-29_16h42.30.964,lexical_decision_task_DD_L5,2021.2.3,MacIntel,60.0024001,,,,,,,,,,,1.125,1,,,,,,,,,,,,,,,,,,,,,,,,0.045211656,-0.007539978,0,0,0,,,,,,,STOVE,C,m,y,./images/STOVE.png,,,,,,,,m,1,1.125,,,,,,,,0,93,93,2,1
,,,,,,,,,,,,,,,,,199039,19,2022-01-29_16h42.30.964,lexical_decision_task_DD_L5,2021.2.3,MacIntel,60.0024001,,,,,,,,,,,0.7886,1,,,,,,,,,,,,,,,,,,,,,,,,0.045211656,-0.007539978,0,0,0,,,,,,,DESERT,LB,m,y,./images/DESERTLB.png,,,,,,,,m,1,0.7886,,,,,,,,0,94,94,52,1
,,,,,,,,,,,,,,,,,199039,19,2022-01-29_16h42.30.964,lexical_decision_task_DD_L5,2021.2.3,MacIntel,60.0024001,,,,,,,,,,,0.8006,1,,,,,,,,,,,,,,,,,,,,,,,,0.045211656,-0.007539978,0,0,0,,,,,,,MIDGET,LB,m,y,./images/MIDGETLB.png,,,,,,,,m,1,0.8006,,,,,,,,0,95,95,76,1
,,,,,,,,,,,,,,,,,199039,19,2022-01-29_16h42.30.964,lexical_decision_task_DD_L5,2021.2.3,MacIntel,60.0024001,,,,,,,,,,,0.8816,1,,,,,,,,,,,,,,,,,,,,,,,,0.045211656,-0.007539978,0,0,0,,,,,,,HEATER,C,m,y,./images/HEATER.png,,,,,,,,m,1,0.8816,,,,,,,,0,96,96,56,1
,,,,,,,,,,,,,,,,,199039,19,2022-01-29_16h42.30.964,lexical_decision_task_DD_L5,2021.2.3,MacIntel,60.0024001,,,,,,,,,,,0.9611,0,,,,,,,,,,,,,,,,,,,,,,,,0.045211656,-0.007539978,0,0,0,,,,,,,BASKET,C,m,y,./images/BASKET.png,,,,,,,,z,0,0.9611,,,,,,,,0,97,97,44,1
,,,,,,,,,,,,,,,,,199039,19,2022-01-29_16h42.30.964,lexical_decision_task_DD_L5,2021.2.3,MacIntel,60.0024001,,,,,,,,,,,0.9523,1,,,,,,,,,,,,,,,,,,,,,,,,0.045211656,-0.007539978,0,0,0,,,,,,,ATTIC,HB,z,y,./images/ATTICHB.png,,,,,,,,z,1,0.9523,,,,,,,,0,98,98,111,1
,,,,,,,,,,,,,,,,,199039,19,2022-01-29_16h42.30.964,lexical_decision_task_DD_L5,2021.2.3,MacIntel,60.0024001,,,,,,,,,,,0.9227,0,,,,,,,,,,,,,,,,,,,,,,,,0.045211656,-0.007539978,0,0,0,,,,,,,PARADE,C,m,y,./images/PARADE.png,,,,,,,,z,0,0.9227,,,,,,,,0,99,99,17,1
,,,,,,,,,,,,,,,,,199039,19,2022-01-29_16h42.30.964,lexical_decision_task_DD_L5,2021.2.3,MacIntel,60.0024001,,,,,,,,,,,0.983,1,,,,,,,,,,,,,,,,,,,,,,,,0.045211656,-0.007539978,0,0,0,,,,,,,BURIAL,C,z,y,./images/BURIAL.png,,,,,,,,z,1,0.983,,,,,,,,0,100,100,143,1
,,,,,,,,,,,,,,,,,199039,19,2022-01-29_16h42.30.964,lexical_decision_task_DD_L5,2021.2.3,MacIntel,60.0024001,,,,,,,,,,,0.6978,1,,,,,,,,,,,,,,,,,,,,,,,,0.045211656,-0.007539978,0,0,0,,,,,,,LIZARD,C,z,y,./images/LIZARD.png,,,,,,,,z,1,0.6978,,,,,,,,0,101,101,128,1
,,,,,,,,,,,,,,,,,199039,19,2022-01-29_16h42.30.964,lexical_decision_task_DD_L5,2021.2.3,MacIntel,60.0024001,,,,,,,,,,,0.6981,0,,,,,,,,,,,,,,,,,,,,,,,,0.045211656,-0.007539978,0,0,0,,,,,,,ENGINE,C,m,y,./images/ENGINE.png,,,,,,,,z,0,0.6981,,,,,,,,0,102,102,38,1
,,,,,,,,,,,,,,,,,199039,19,2022-01-29_16h42.30.964,lexical_decision_task_DD_L5,2021.2.3,MacIntel,60.0024001,,,,,,,,,,,0.9259,1,,,,,,,,,,,,,,,,,,,,,,,,0.045211656,-0.007539978,0,0,0,,,,,,,BRUSH,C,m,y,./images/BRUSH.png,,,,,,,,m,1,0.9259,,,,,,,,0,103,103,59,1
,,,,,,,,,,,,,,,,,199039,19,2022-01-29_16h42.30.964,lexical_decision_task_DD_L5,2021.2.3,MacIntel,60.0024001,,,,,,,,,,,0.7327,1,,,,,,,,,,,,,,,,,,,,,,,,0.045211656,-0.007539978,0,0,0,,,,,,,RULER,LB,m,y,./images/RULERLB.png,,,,,,,,m,1,0.7327,,,,,,,,0,104,104,79,1
,,,,,,,,,,,,,,,,,199039,19,2022-01-29_16h42.30.964,lexical_decision_task_DD_L5,2021.2.3,MacIntel,60.0024001,,,,,,,,,,,0.8327,1,,,,,,,,,,,,,,,,,,,,,,,,0.045211656,-0.007539978,0,0,0,,,,,,,FALCON,LB,z,y,./images/FALCONLB.png,,,,,,,,z,1,0.8327,,,,,,,,0,105,105,112,1
,,,,,,,,,,,,,,,,,199039,19,2022-01-29_16h42.30.964,lexical_decision_task_DD_L5,2021.2.3,MacIntel,60.0024001,,,,,,,,,,,2.4375,0,,,,,,,,,,,,,,,,,,,,,,,,0.045211656,-0.007539978,0,0,0,,,,,,,CANDLE,LB,z,y,./images/CANDLELB.png,,,,,,,,m,0,2.4375,,,,,,,,0,106,106,145,1
,,,,,,,,,,,,,,,,,199039,19,2022-01-29_16h42.30.964,lexical_decision_task_DD_L5,2021.2.3,MacIntel,60.0024001,,,,,,,,,,,0.9046,1,,,,,,,,,,,,,,,,,,,,,,,,0.045211656,-0.007539978,0,0,0,,,,,,,SNACK,LB,z,y,./images/SNACKLB.png,,,,,,,,z,1,0.9046,,,,,,,,0,107,107,157,1
,,,,,,,,,,,,,,,,,199039,19,2022-01-29_16h42.30.964,lexical_decision_task_DD_L5,2021.2.3,MacIntel,60.0024001,,,,,,,,,,,0.8842,0,,,,,,,,,,,,,,,,,,,,,,,,0.045211656,-0.007539978,0,0,0,,,,,,,DONKEY,LB,m,y,./images/DONKEYLB.png,,,,,,,,z,0,0.8842,,,,,,,,0,108,108,19,1
,,,,,,,,,,,,,,,,,199039,19,2022-01-29_16h42.30.964,lexical_decision_task_DD_L5,2021.2.3,MacIntel,60.0024001,,,,,,,,,,,0.7199,1,,,,,,,,,,,,,,,,,,,,,,,,0.045211656,-0.007539978,0,0,0,,,,,,,KITTEN,HB,z,y,./images/KITTENHB.png,,,,,,,,z,1,0.7199,,,,,,,,0,109,109,129,1
,,,,,,,,,,,,,,,,,199039,19,2022-01-29_16h42.30.964,lexical_decision_task_DD_L5,2021.2.3,MacIntel,60.0024001,,,,,,,,,,,0.7376,0,,,,,,,,,,,,,,,,,,,,,,,,0.045211656,-0.007539978,0,0,0,,,,,,,TIGER,LB,m,y,./images/TIGERLB.png,,,,,,,,z,0,0.7376,,,,,,,,0,110,110,37,1
,,,,,,,,,,,,,,,,,199039,19,2022-01-29_16h42.30.964,lexical_decision_task_DD_L5,2021.2.3,MacIntel,60.0024001,,,,,,,,,,,0.8543,1,,,,,,,,,,,,,,,,,,,,,,,,0.045211656,-0.007539978,0,0,0,,,,,,,SKIING,C,z,y,./images/SKIING.png,,,,,,,,z,1,0.8543,,,,,,,,0,111,111,101,1
,,,,,,,,,,,,,,,,,199039,19,2022-01-29_16h42.30.964,lexical_decision_task_DD_L5,2021.2.3,MacIntel,60.0024001,,,,,,,,,,,0.852,1,,,,,,,,,,,,,,,,,,,,,,,,0.045211656,-0.007539978,0,0,0,,,,,,,MALLET,C,z,y,./images/MALLET.png,,,,,,,,z,1,0.852,,,,,,,,0,112,112,134,1
,,,,,,,,,,,,,,,,,199039,19,2022-01-29_16h42.30.964,lexical_decision_task_DD_L5,2021.2.3,MacIntel,60.0024001,,,,,,,,,,,1.0362,1,,,,,,,,,,,,,,,,,,,,,,,,0.045211656,-0.007539978,0,0,0,,,,,,,PLANK,LB,z,y,./images/PLANKLB.png,,,,,,,,z,1,1.0362,,,,,,,,0,113,113,85,1
,,,,,,,,,,,,,,,,,199039,19,2022-01-29_16h42.30.964,lexical_decision_task_DD_L5,2021.2.3,MacIntel,60.0024001,,,,,,,,,,,2.5152,1,,,,,,,,,,,,,,,,,,,,,,,,0.045211656,-0.007539978,0,0,0,,,,,,,BEARD,C,z,y,./images/BEARD.png,,,,,,,,z,1,2.5152,,,,,,,,0,114,114,86,1
,,,,,,,,,,,,,,,,,199039,19,2022-01-29_16h42.30.964,lexical_decision_task_DD_L5,2021.2.3,MacIntel,60.0024001,,,,,,,,,,,1.1998,1,,,,,,,,,,,,,,,,,,,,,,,,0.045211656,-0.007539978,0,0,0,,,,,,,FENCE,C,m,y,./images/FENCE.png,,,,,,,,m,1,1.1998,,,,,,,,0,115,115,14,1
,,,,,,,,,,,,,,,,,199039,19,2022-01-29_16h42.30.964,lexical_decision_task_DD_L5,2021.2.3,MacIntel,60.0024001,,,,,,,,,,,0.8343,1,,,,,,,,,,,,,,,,,,,,,,,,0.045211656,-0.007539978,0,0,0,,,,,,,SAUNA,HB,m,y,./images/SAUNAHB.png,,,,,,,,m,1,0.8343,,,,,,,,0,116,116,33,1
,,,,,,,,,,,,,,,,,199039,19,2022-01-29_16h42.30.964,lexical_decision_task_DD_L5,2021.2.3,MacIntel,60.0024001,,,,,,,,,,,0.8964,1,,,,,,,,,,,,,,,,,,,,,,,,0.045211656,-0.007539978,0,0,0,,,,,,,MUMMY,LB,m,y,./images/MUMMYLB.png,,,,,,,,m,1,0.8964,,,,,,,,0,117,117,46,1
,,,,,,,,,,,,,,,,,199039,19,2022-01-29_16h42.30.964,lexical_decision_task_DD_L5,2021.2.3,MacIntel,60.0024001,,,,,,,,,,,1.0857,1,,,,,,,,,,,,,,,,,,,,,,,,0.045211656,-0.007539978,0,0,0,,,,,,,CRUST,LB,z,y,./images/CRUSTLB.png,,,,,,,,z,1,1.0857,,,,,,,,0,118,118,163,1
,,,,,,,,,,,,,,,,,199039,19,2022-01-29_16h42.30.964,lexical_decision_task_DD_L5,2021.2.3,MacIntel,60.0024001,,,,,,,,,,,1.2202,1,,,,,,,,,,,,,,,,,,,,,,,,0.045211656,-0.007539978,0,0,0,,,,,,,STORM,HB,z,y,./images/STORMHB.png,,,,,,,,z,1,1.2202,,,,,,,,0,119,119,114,1
,,,,,,,,,,,,,,,,,199039,19,2022-01-29_16h42.30.964,lexical_decision_task_DD_L5,2021.2.3,MacIntel,60.0024001,,,,,,,,,,,1.417,1,,,,,,,,,,,,,,,,,,,,,,,,0.045211656,-0.007539978,0,0,0,,,,,,,BUNNY,LB,m,y,./images/BUNNYLB.png,,,,,,,,m,1,1.417,,,,,,,,0,120,120,13,1
,,,,,,,,,,,,,,,,,199039,19,2022-01-29_16h42.30.964,lexical_decision_task_DD_L5,2021.2.3,MacIntel,60.0024001,,,,,,,,,,,0.7307,1,,,,,,,,,,,,,,,,,,,,,,,,0.045211656,-0.007539978,0,0,0,,,,,,,FLASK,HB,m,y,./images/FLASKHB.png,,,,,,,,m,1,0.7307,,,,,,,,0,121,121,72,1
,,,,,,,,,,,,,,,,,199039,19,2022-01-29_16h42.30.964,lexical_decision_task_DD_L5,2021.2.3,MacIntel,60.0024001,,,,,,,,,,,1.6306,1,,,,,,,,,,,,,,,,,,,,,,,,0.045211656,-0.007539978,0,0,0,,,,,,,PEARL,LB,z,y,./images/PEARLLB.png,,,,,,,,z,1,1.6306,,,,,,,,0,122,122,130,1
,,,,,,,,,,,,,,,,,199039,19,2022-01-29_16h42.30.964,lexical_decision_task_DD_L5,2021.2.3,MacIntel,60.0024001,,,,,,,,,,,0.8099,1,,,,,,,,,,,,,,,,,,,,,,,,0.045211656,-0.007539978,0,0,0,,,,,,,DRUMS,LB,z,y,./images/DRUMSLB.png,,,,,,,,z,1,0.8099,0.045211656,-0.007539978,1,0,0,0.1116,,0,123,123,133,1
,,,,,,,,,,,,,,,,,199039,19,2022-01-29_16h42.30.964,lexical_decision_task_DD_L5,2021.2.3,MacIntel,60.0024001,,,,,,,,,,,0.8989,0,,,,,,,,,,,,,,,,,,,,,,,,0.049341566,-0.007025214,0,0,0,,,,,,,BANNER,LB,z,y,./images/BANNERLB.png,,,,,,,,m,0,0.8989,,,,,,,,0,124,124,136,1
,,,,,,,,,,,,,,,,,199039,19,2022-01-29_16h42.30.964,lexical_decision_task_DD_L5,2021.2.3,MacIntel,60.0024001,,,,,,,,,,,0.8642,1,,,,,,,,,,,,,,,,,,,,,,,,0.050025499,-0.007025214,0,0,0,space,,,,,,WALNUT,HB,m,y,./images/WALNUTHB.png,0.8854,,,,,,,m,1,0.8642,,,,,,,,0,125,125,0,1
,,,,,,,,,,,,,,,,,199039,19,2022-01-29_16h42.30.964,lexical_decision_task_DD_L5,2021.2.3,MacIntel,60.0024001,,,,,,,,,,,0.7804,1,,,,,,,,,,,,,,,,,,,,,,,,0.050025499,-0.007025214,0,0,0,,,,,,,STAIN,HB,m,y,./images/STAINHB.png,,,,,,,,m,1,0.7804,,,,,,,,0,126,126,6,1
,,,,,,,,,,,,,,,,,199039,19,2022-01-29_16h42.30.964,lexical_decision_task_DD_L5,2021.2.3,MacIntel,60.0024001,,,,,,,,,,,0.721,1,,,,,,,,,,,,,,,,,,,,,,,,0.050025499,-0.007025214,0,0,0,,,,,,,BISHOP,LB,m,y,./images/BISHOPLB.png,,,,,,,,m,1,0.721,,,,,,,,0,127,127,49,1
,,,,,,,,,,,,,,,,,199039,19,2022-01-29_16h42.30.964,lexical_decision_task_DD_L5,2021.2.3,MacIntel,60.0024001,,,,,,,,,,,0.9611,1,,,,,,,,,,,,,,,,,,,,,,,,0.050025499,-0.007025214,0,0,0,,,,,,,BAKER,HB,m,y,./images/BAKERHB.png,,,,,,,,m,1,0.9611,,,,,,,,0,128,128,63,1
,,,,,,,,,,,,,,,,,199039,19,2022-01-29_16h42.30.964,lexical_decision_task_DD_L5,2021.2.3,MacIntel,60.0024001,,,,,,,,,,,0.7874,1,,,,,,,,,,,,,,,,,,,,,,,,0.050025499,-0.007025214,0,0,0,,,,,,,JELLY,LB,z,y,./images/JELLYLB.png,,,,,,,,z,1,0.7874,,,,,,,,0,129,129,148,1
,,,,,,,,,,,,,,,,,199039,19,2022-01-29_16h42.30.964,lexical_decision_task_DD_L5,2021.2.3,MacIntel,60.0024001,,,,,,,,,,,1.6841,0,,,,,,,,,,,,,,,,,,,,,,,,0.050025499,-0.007025214,0,0,0,,,,,,,SAUCE,HB,m,y,./images/SAUCEHB.png,,,,,,,,z,0,1.6841,,,,,,,,0,130,130,51,1
,,,,,,,,,,,,,,,,,199039,19,2022-01-29_16h42.30.964,lexical_decision_task_DD_L5,2021.2.3,MacIntel,60.0024001,,,,,,,,,,,0.8308,1,,,,,,,,,,,,,,,,,,,,,,,,0.050025499,-0.007025214,0,0,0,,,,,,,BROOM,HB,m,y,./images/BROOMHB.png,,,,,,,,m,1,0.8308,,,,,,,,0,131,131,78,1
,,,,,,,,,,,,,,,,,199039,19,2022-01-29_16h42.30.964,lexical_decision_task_DD_L5,2021.2.3,MacIntel,60.0024001,,,,,,,,,,,1.1689,1,,,,,,,,,,,,,,,,,,,,,,,,0.050025499,-0.007025214,0,0,0,,,,,,,GARDEN,LB,m,y,./images/GARDENLB.png,,,,,,,,m,1,1.1689,,,,,,,,0,132,132,10,1
,,,,,,,,,,,,,,,,,199039,19,2022-01-29_16h42.30.964,lexical_decision_task_DD_L5,2021.2.3,MacIntel,60.0024001,,,,,,,,,,,1.0316,0,,,,,,,,,,,,,,,,,,,,,,,,0.050025499,-0.007025214,0,0,0,,,,,,,ARTIST,LB,m,y,./images/ARTISTLB.png,,,,,,,,z,0,1.0316,,,,,,,,0,133,133,61,1
,,,,,,,,,,,,,,,,,199039,19,2022-01-29_16h42.30.964,lexical_decision_task_DD_L5,2021.2.3,MacIntel,60.0024001,,,,,,,,,,,1.8292,1,,,,,,,,,,,,,,,,,,,,,,,,0.050025499,-0.007025214,0,0,0,,,,,,,BARREL,C,z,y,./images/BARREL.png,,,,,,,,z,1,1.8292,,,,,,,,0,134,134,116,1
,,,,,,,,,,,,,,,,,199039,19,2022-01-29_16h42.30.964,lexical_decision_task_DD_L5,2021.2.3,MacIntel,60.0024001,,,,,,,,,,,1.12,1,,,,,,,,,,,,,,,,,,,,,,,,0.050025499,-0.007025214,0,0,0,,,,,,,LAGOON,C,m,y,./images/LAGOON.png,,,,,,,,m,1,1.12,,,,,,,,0,135,135,47,1
,,,,,,,,,,,,,,,,,199039,19,2022-01-29_16h42.30.964,lexical_decision_task_DD_L5,2021.2.3,MacIntel,60.0024001,,,,,,,,,,,0.9314,1,,,,,,,,,,,,,,,,,,,,,,,,0.050025499,-0.007025214,0,0,0,,,,,,,HAMMER,HB,m,y,./images/HAMMERHB.png,,,,,,,,m,1,0.9314,,,,,,,,0,136,136,75,1
,,,,,,,,,,,,,,,,,199039,19,2022-01-29_16h42.30.964,lexical_decision_task_DD_L5,2021.2.3,MacIntel,60.0024001,,,,,,,,,,,1.3359,0,,,,,,,,,,,,,,,,,,,,,,,,0.050025499,-0.007025214,0,0,0,,,,,,,PILOT,C,m,y,./images/PILOT.png,,,,,,,,z,0,1.3359,,,,,,,,0,137,137,50,1
,,,,,,,,,,,,,,,,,199039,19,2022-01-29_16h42.30.964,lexical_decision_task_DD_L5,2021.2.3,MacIntel,60.0024001,,,,,,,,,,,0.9833,1,,,,,,,,,,,,,,,,,,,,,,,,0.050025499,-0.007025214,0,0,0,,,,,,,PENCE,LB,z,y,./images/PENCELB.png,,,,,,,,z,1,0.9833,,,,,,,,0,138,138,100,1
,,,,,,,,,,,,,,,,,199039,19,2022-01-29_16h42.30.964,lexical_decision_task_DD_L5,2021.2.3,MacIntel,60.0024001,,,,,,,,,,,0.7985,1,,,,,,,,,,,,,,,,,,,,,,,,0.050025499,-0.007025214,0,0,0,,,,,,,SQUARE,HB,z,y,./images/SQUAREHB.png,,,,,,,,z,1,0.7985,,,,,,,,0,139,139,90,1
,,,,,,,,,,,,,,,,,199039,19,2022-01-29_16h42.30.964,lexical_decision_task_DD_L5,2021.2.3,MacIntel,60.0024001,,,,,,,,,,,0.7054,1,,,,,,,,,,,,,,,,,,,,,,,,0.050025499,-0.007025214,0,0,0,,,,,,,MAMMAL,C,m,y,./images/MAMMAL.png,,,,,,,,m,1,0.7054,,,,,,,,0,140,140,62,1
,,,,,,,,,,,,,,,,,199039,19,2022-01-29_16h42.30.964,lexical_decision_task_DD_L5,2021.2.3,MacIntel,60.0024001,,,,,,,,,,,0.9853,0,,,,,,,,,,,,,,,,,,,,,,,,0.050025499,-0.007025214,0,0,0,,,,,,,TOWEL,LB,m,y,./images/TOWELLB.png,,,,,,,,z,0,0.9853,,,,,,,,0,141,141,1,1
,,,,,,,,,,,,,,,,,199039,19,2022-01-29_16h42.30.964,lexical_decision_task_DD_L5,2021.2.3,MacIntel,60.0024001,,,,,,,,,,,0.7799,1,,,,,,,,,,,,,,,,,,,,,,,,0.050025499,-0.007025214,0,0,0,,,,,,,DOUGH,LB,z,y,./images/DOUGHLB.png,,,,,,,,z,1,0.7799,,,,,,,,0,142,142,103,1
,,,,,,,,,,,,,,,,,199039,19,2022-01-29_16h42.30.964,lexical_decision_task_DD_L5,2021.2.3,MacIntel,60.0024001,,,,,,,,,,,0.8007,1,,,,,,,,,,,,,,,,,,,,,,,,0.050025499,-0.007025214,0,0,0,,,,,,,BUTTER,HB,m,y,./images/BUTTERHB.png,,,,,,,,m,1,0.8007,,,,,,,,0,143,143,27,1
,,,,,,,,,,,,,,,,,199039,19,2022-01-29_16h42.30.964,lexical_decision_task_DD_L5,2021.2.3,MacIntel,60.0024001,,,,,,,,,,,0.9717,0,,,,,,,,,,,,,,,,,,,,,,,,0.050025499,-0.007025214,0,0,0,,,,,,,CLOUD,C,m,y,./images/CLOUD.png,,,,,,,,z,0,0.9717,,,,,,,,0,144,144,26,1
,,,,,,,,,,,,,,,,,199039,19,2022-01-29_16h42.30.964,lexical_decision_task_DD_L5,2021.2.3,MacIntel,60.0024001,,,,,,,,,,,0.7095,1,,,,,,,,,,,,,,,,,,,,,,,,0.050025499,-0.007025214,0,0,0,,,,,,,DRILL,HB,m,y,./images/DRILLHB.png,,,,,,,,m,1,0.7095,,,,,,,,0,145,145,81,1
,,,,,,,,,,,,,,,,,199039,19,2022-01-29_16h42.30.964,lexical_decision_task_DD_L5,2021.2.3,MacIntel,60.0024001,,,,,,,,,,,0.9136,1,,,,,,,,,,,,,,,,,,,,,,,,0.050025499,-0.007025214,0,0,0,,,,,,,SHELF,HB,z,y,./images/SHELFHB.png,,,,,,,,z,1,0.9136,,,,,,,,0,146,146,123,1
,,,,,,,,,,,,,,,,,199039,19,2022-01-29_16h42.30.964,lexical_decision_task_DD_L5,2021.2.3,MacIntel,60.0024001,,,,,,,,,,,0.7038,1,,,,,,,,,,,,,,,,,,,,,,,,0.050025499,-0.007025214,0,0,0,,,,,,,CRATER,HB,m,y,./images/CRATERHB.png,,,,,,,,m,1,0.7038,,,,,,,,0,147,147,3,1
,,,,,,,,,,,,,,,,,199039,19,2022-01-29_16h42.30.964,lexical_decision_task_DD_L5,2021.2.3,MacIntel,60.0024001,,,,,,,,,,,0.8856,1,,,,,,,,,,,,,,,,,,,,,,,,0.050025499,-0.007025214,0,0,0,,,,,,,ARROW,HB,m,y,./images/ARROWHB.png,,,,,,,,m,1,0.8856,,,,,,,,0,148,148,69,1
,,,,,,,,,,,,,,,,,199039,19,2022-01-29_16h42.30.964,lexical_decision_task_DD_L5,2021.2.3,MacIntel,60.0024001,,,,,,,,,,,1.4536,0,,,,,,,,,,,,,,,,,,,,,,,,0.050025499,-0.007025214,0,0,0,,,,,,,LADDER,C,z,y,./images/LADDER.png,,,,,,,,m,0,1.4536,,,,,,,,0,149,149,122,1
,,,,,,,,,,,,,,,,,199039,19,2022-01-29_16h42.30.964,lexical_decision_task_DD_L5,2021.2.3,MacIntel,60.0024001,,,,,,,,,,,0.7355,1,,,,,,,,,,,,,,,,,,,,,,,,0.050025499,-0.007025214,0,0,0,,,,,,,CHAIN,HB,m,y,./images/CHAINHB.png,,,,,,,,m,1,0.7355,,,,,,,,0,150,150,42,1
,,,,,,,,,,,,,,,,,199039,19,2022-01-29_16h42.30.964,lexical_decision_task_DD_L5,2021.2.3,MacIntel,60.0024001,,,,,,,,,,,0.971,0,,,,,,,,,,,,,,,,,,,,,,,,0.050025499,-0.007025214,0,0,0,,,,,,,BRIDE,LB,m,y,./images/BRIDELB.png,,,,,,,,z,0,0.971,,,,,,,,0,151,151,64,1
,,,,,,,,,,,,,,,,,199039,19,2022-01-29_16h42.30.964,lexical_decision_task_DD_L5,2021.2.3,MacIntel,60.0024001,,,,,,,,,,,0.9354,1,,,,,,,,,,,,,,,,,,,,,,,,0.050025499,-0.007025214,0,0,0,,,,,,,WALRUS,C,z,y,./images/WALRUS.png,,,,,,,,z,1,0.9354,,,,,,,,0,152,152,107,1
,,,,,,,,,,,,,,,,,199039,19,2022-01-29_16h42.30.964,lexical_decision_task_DD_L5,2021.2.3,MacIntel,60.0024001,,,,,,,,,,,1.471,0,,,,,,,,,,,,,,,,,,,,,,,,0.050025499,-0.007025214,0,0,0,,,,,,,SWEAT,HB,z,y,./images/SWEATHB.png,,,,,,,,m,0,1.471,,,,,,,,0,153,153,150,1
,,,,,,,,,,,,,,,,,199039,19,2022-01-29_16h42.30.964,lexical_decision_task_DD_L5,2021.2.3,MacIntel,60.0024001,,,,,,,,,,,0.8157,1,,,,,,,,,,,,,,,,,,,,,,,,0.050025499,-0.007025214,0,0,0,,,,,,,BELLY,LB,z,y,./images/BELLYLB.png,,,,,,,,z,1,0.8157,,,,,,,,0,154,154,94,1
,,,,,,,,,,,,,,,,,199039,19,2022-01-29_16h42.30.964,lexical_decision_task_DD_L5,2021.2.3,MacIntel,60.0024001,,,,,,,,,,,0.8532,0,,,,,,,,,,,,,,,,,,,,,,,,0.050025499,-0.007025214,0,0,0,,,,,,,WHISKY,C,m,y,./images/WHISKY.png,,,,,,,,z,0,0.8532,,,,,,,,0,155,155,83,1
,,,,,,,,,,,,,,,,,199039,19,2022-01-29_16h42.30.964,lexical_decision_task_DD_L5,2021.2.3,MacIntel,60.0024001,,,,,,,,,,,1.5435,1,,,,,,,,,,,,,,,,,,,,,,,,0.050025499,-0.007025214,0,0,0,,,,,,,STATUE,HB,m,y,./images/STATUEHB.png,,,,,,,,m,1,1.5435,,,,,,,,0,156,156,66,1
,,,,,,,,,,,,,,,,,199039,19,2022-01-29_16h42.30.964,lexical_decision_task_DD_L5,2021.2.3,MacIntel,60.0024001,,,,,,,,,,,0.9363,0,,,,,,,,,,,,,,,,,,,,,,,,0.050025499,-0.007025214,0,0,0,,,,,,,CLOWN,LB,m,y,./images/CLOWNLB.png,,,,,,,,z,0,0.9363,,,,,,,,0,157,157,22,1
,,,,,,,,,,,,,,,,,199039,19,2022-01-29_16h42.30.964,lexical_decision_task_DD_L5,2021.2.3,MacIntel,60.0024001,,,,,,,,,,,0.9201,1,,,,,,,,,,,,,,,,,,,,,,,,0.050025499,-0.007025214,0,0,0,,,,,,,MONKEY,HB,m,y,./images/MONKEYHB.png,,,,,,,,m,1,0.9201,,,,,,,,0,158,158,45,1
,,,,,,,,,,,,,,,,,199039,19,2022-01-29_16h42.30.964,lexical_decision_task_DD_L5,2021.2.3,MacIntel,60.0024001,,,,,,,,,,,0.799,1,,,,,,,,,,,,,,,,,,,,,,,,0.050025499,-0.007025214,0,0,0,,,,,,,COUCH,C,z,y,./images/COUCH.png,,,,,,,,z,1,0.799,,,,,,,,0,159,159,161,1
,,,,,,,,,,,,,,,,,199039,19,2022-01-29_16h42.30.964,lexical_decision_task_DD_L5,2021.2.3,MacIntel,60.0024001,,,,,,,,,,,0.7708,1,,,,,,,,,,,,,,,,,,,,,,,,0.050025499,-0.007025214,0,0,0,,,,,,,KIDNEY,HB,z,y,./images/KIDNEYHB.png,,,,,,,,z,1,0.7708,,,,,,,,0,160,160,105,1
,,,,,,,,,,,,,,,,,199039,19,2022-01-29_16h42.30.964,lexical_decision_task_DD_L5,2021.2.3,MacIntel,60.0024001,,,,,,,,,,,0.6705,1,,,,,,,,,,,,,,,,,,,,,,,,0.050025499,-0.007025214,0,0,0,,,,,,,CEMENT,C,z,y,./images/CEMENT.png,,,,,,,,z,1,0.6705,,,,,,,,0,161,161,158,1
,,,,,,,,,,,,,,,,,199039,19,2022-01-29_16h42.30.964,lexical_decision_task_DD_L5,2021.2.3,MacIntel,60.0024001,,,,,,,,,,,0.8154,1,,,,,,,,,,,,,,,,,,,,,,,,0.050025499,-0.007025214,0,0,0,,,,,,,SUNSET,LB,z,y,./images/SUNSETLB.png,,,,,,,,z,1,0.8154,,,,,,,,0,162,162,166,1
,,,,,,,,,,,,,,,,,199039,19,2022-01-29_16h42.30.964,lexical_decision_task_DD_L5,2021.2.3,MacIntel,60.0024001,,,,,,,,,,,1.0396,1,,,,,,,,,,,,,,,,,,,,,,,,0.050025499,-0.007025214,0,0,0,,,,,,,DANCER,HB,m,y,./images/DANCERHB.png,,,,,,,,m,1,1.0396,,,,,,,,0,163,163,21,1
,,,,,,,,,,,,,,,,,199039,19,2022-01-29_16h42.30.964,lexical_decision_task_DD_L5,2021.2.3,MacIntel,60.0024001,,,,,,,,,,,0.8205,1,,,,,,,,,,,,,,,,,,,,,,,,0.050025499,-0.007025214,0,0,0,,,,,,,BANANA,LB,m,y,./images/BANANALB.png,,,,,,,,m,1,0.8205,,,,,,,,0,164,164,70,1
,,,,,,,,,,,,,,,,,199039,19,2022-01-29_16h42.30.964,lexical_decision_task_DD_L5,2021.2.3,MacIntel,60.0024001,,,,,,,,,,,0.8495,1,,,,,,,,,,,,,,,,,,,,,,,,0.050025499,-0.007025214,0,0,0,,,,,,,TRIPOD,HB,z,y,./images/TRIPODHB.png,,,,,,,,z,1,0.8495,,,,,,,,0,165,165,138,1
,,,,,,,,,,,,,,,,,199039,19,2022-01-29_16h42.30.964,lexical_decision_task_DD_L5,2021.2.3,MacIntel,60.0024001,,,,,,,,,,,0.892,1,,,,,,,,,,,,,,,,,,,,,,,,0.050025499,-0.007025214,0,0,0,,,,,,,BONNET,C,z,y,./images/BONNET.png,,,,,,,,z,1,0.892,,,,,,,,0,166,166,95,1
,,,,,,,,,,,,,,,,,199039,19,2022-01-29_16h42.30.964,lexical_decision_task_DD_L5,2021.2.3,MacIntel,60.0024001,,,,,,,,,,,0.9202,0,,,,,,,,,,,,,,,,,,,,,,,,0.050025499,-0.007025214,0,0,0,,,,,,,BLOKE,HB,m,y,./images/BLOKEHB.png,,,,,,,,z,0,0.9202,,,,,,,,0,167,167,12,1
