key_resp.keys,instr_done_touch.x,instr_done_touch.y,instr_done_touch.leftButton,instr_done_touch.midButton,instr_done_touch.rightButton,instr_done_touch.clicked_name,instruction_pages.thisRepN,instruction_pages.thisTrialN,instruction_pages.thisN,instruction_pages.thisIndex,instruction_pages.ran,pageN,phase,instruct_text,has_image,instruct_image,participant,age,date,expName,psychopyVersion,OS,frameRate,key_resp.rt,response.keys,response.corr,response.rt,touch_resp.x,touch_resp.y,touch_resp.leftButton,touch_resp.midButton,touch_resp.rightButton,touch_resp.time,touch_resp.clicked_name,rt,corr,practrials.thisRepN,practrials.thisTrialN,practrials.thisN,practrials.thisIndex,practrials.ran,TrialID,Target,corrAns,end_of_practice_trials_pages.thisRepN,end_of_practice_trials_pages.thisTrialN,end_of_practice_trials_pages.thisN,end_of_practice_trials_pages.thisIndex,end_of_practice_trials_pages.ran,key_resp_2.keys,key_resp_2.corr,key_resp_2.rt,targ_click.x,targ_click.y,targ_click.leftButton,targ_click.midButton,targ_click.rightButton,targ_click.time,targ_click.clicked_name,break_done_touch.x,break_done_touch.y,break_done_touch.leftButton,break_done_touch.midButton,break_done_touch.rightButton,break_done_keyboard.keys,maintrials.thisRepN,maintrials.thisTrialN,maintrials.thisN,maintrials.thisIndex,maintrials.ran,string,blur,study,lex,stim_path,break_done_keyboard.rt,test_instructions.thisRepN,test_instructions.thisTrialN,test_instructions.thisN,test_instructions.thisIndex,test_instructions.ran,key_resp_3.keys,key_resp_3.corr,key_resp_3.rt,test_click.x,test_click.y,test_click.leftButton,test_click.midButton,test_click.rightButton,test_click.time,test_click.clicked_name,test_phase.thisRepN,test_phase.thisTrialN,test_phase.thisN,test_phase.thisIndex,test_phase.ran
,0.092721354,-0.374544271,1,0,0,instr_done_button,0,0,0,0,1,1,instructions,"INSTRUCTIONS
At the start of each trial, look at the plus sign  (+) in the center of the screen.  This tells you that a trial is about to begin and where to look. Second, the plus sign will disappear and a string of letters will appear. Your task is to determine if the string of letters is a word or not. If the item is a word press the M key (on keyboard)  or touch the word button (phone/tablet).  If the item is not a word,  press the  Z key (on keyboard)  or touch the nonword button (on phone/tablet). 
Press the space bar or touch  continue.",0,,199015,21,2022-01-29_24h08.50.527,lexical_decision_task_DD_L6,2021.2.3,MacIntel,59.99880002,,,,,,,,,,,,,,,,,,,,,,,,,,,,,,,,,,,,,,,,,,,,,,,,,,,,,,,,,,,,,,,,,,,,,,,,,
,0.092721354,-0.374544271,1,0,0,instr_done_button,0,1,1,1,1,2,instructions,"If your device has a keyboard, press the 'Z' key for nonwords and the 'M' key for words.





Press the space bar or touch the button below to continue.",0,keyboard-example.gif,199015,21,2022-01-29_24h08.50.527,lexical_decision_task_DD_L6,2021.2.3,MacIntel,59.99880002,,,,,,,,,,,,,,,,,,,,,,,,,,,,,,,,,,,,,,,,,,,,,,,,,,,,,,,,,,,,,,,,,,,,,,,,,
,0.128927951,-0.406163194,1,0,0,instr_done_button,0,2,2,2,1,3,instructions,"If you are using a touchscreen only device, use the buttons on the screen. Do not use the mouse.





Press the space bar or touch the button below to continue.",0,touchscreen-example.gif,199015,21,2022-01-29_24h08.50.527,lexical_decision_task_DD_L6,2021.2.3,MacIntel,59.99880002,,,,,,,,,,,,,,,,,,,,,,,,,,,,,,,,,,,,,,,,,,,,,,,,,,,,,,,,,,,,,,,,,,,,,,,,,
space,0.128927951,-0.406163194,0,0,0,,0,3,3,3,1,4,instructions,"It is very important that you respond as quickly and accurately as possible, as each letter string will only be on the screen for two seconds. If you do not respond within this time, the message 'Too slow!' will be displayed and the experiment will progress to the next letter string. The first 20 trials will be practice trials and you will receive feedback on your answers. 

Press the space bar or touch the button below to start the practice trials.",0,,199015,21,2022-01-29_24h08.50.527,lexical_decision_task_DD_L6,2021.2.3,MacIntel,59.99880002,4.3312,,,,,,,,,,,,,,,,,,,,,,,,,,,,,,,,,,,,,,,,,,,,,,,,,,,,,,,,,,,,,,,,,,,,,,,,
,,,,,,,,,,,,,,,,,199015,21,2022-01-29_24h08.50.527,lexical_decision_task_DD_L6,2021.2.3,MacIntel,59.99880002,,m,1,5.6725,,,,,,,,5.6725,1,0,0,0,4,1,1001,SQUEAK,m,,,,,,,,,,,,,,,,,,,,,,,,,,,,,,,,,,,,,,,,,,,,,,,,,,,,
,,,,,,,,,,,,,,,,,199015,21,2022-01-29_24h08.50.527,lexical_decision_task_DD_L6,2021.2.3,MacIntel,59.99880002,,m,1,1.3655,,,,,,,,1.3655,1,0,1,1,1,1,1001,ADJUST,m,,,,,,,,,,,,,,,,,,,,,,,,,,,,,,,,,,,,,,,,,,,,,,,,,,,,
,,,,,,,,,,,,,,,,,199015,21,2022-01-29_24h08.50.527,lexical_decision_task_DD_L6,2021.2.3,MacIntel,59.99880002,,z,1,1.4703,,,,,,,,1.4703,1,0,2,2,9,1,1001,FARINY,z,,,,,,,,,,,,,,,,,,,,,,,,,,,,,,,,,,,,,,,,,,,,,,,,,,,,
,,,,,,,,,,,,,,,,,199015,21,2022-01-29_24h08.50.527,lexical_decision_task_DD_L6,2021.2.3,MacIntel,59.99880002,,m,0,1.4079,,,,,,,,1.4079,0,0,3,3,10,1,1001,INLADE,z,,,,,,,,,,,,,,,,,,,,,,,,,,,,,,,,,,,,,,,,,,,,,,,,,,,,
,,,,,,,,,,,,,,,,,199015,21,2022-01-29_24h08.50.527,lexical_decision_task_DD_L6,2021.2.3,MacIntel,59.99880002,,m,1,0.7935,,,,,,,,0.7935,1,0,4,4,5,1,1001,OBTAIN,m,,,,,,,,,,,,,,,,,,,,,,,,,,,,,,,,,,,,,,,,,,,,,,,,,,,,
,,,,,,,,,,,,,,,,,199015,21,2022-01-29_24h08.50.527,lexical_decision_task_DD_L6,2021.2.3,MacIntel,59.99880002,,m,0,1.9693,,,,,,,,1.9693,0,0,5,5,11,1,1001,RASHET,z,,,,,,,,,,,,,,,,,,,,,,,,,,,,,,,,,,,,,,,,,,,,,,,,,,,,
,,,,,,,,,,,,,,,,,199015,21,2022-01-29_24h08.50.527,lexical_decision_task_DD_L6,2021.2.3,MacIntel,59.99880002,,m,1,0.6683,,,,,,,,0.6683,1,0,6,6,2,1,1001,ALMOND,m,,,,,,,,,,,,,,,,,,,,,,,,,,,,,,,,,,,,,,,,,,,,,,,,,,,,
,,,,,,,,,,,,,,,,,199015,21,2022-01-29_24h08.50.527,lexical_decision_task_DD_L6,2021.2.3,MacIntel,59.99880002,,z,1,1.0359,,,,,,,,1.0359,1,0,7,7,8,1,1001,ASLERT,z,,,,,,,,,,,,,,,,,,,,,,,,,,,,,,,,,,,,,,,,,,,,,,,,,,,,
,,,,,,,,,,,,,,,,,199015,21,2022-01-29_24h08.50.527,lexical_decision_task_DD_L6,2021.2.3,MacIntel,59.99880002,,m,1,0.9093,,,,,,,,0.9093,1,0,8,8,3,1,1001,MATRIX,m,,,,,,,,,,,,,,,,,,,,,,,,,,,,,,,,,,,,,,,,,,,,,,,,,,,,
,,,,,,,,,,,,,,,,,199015,21,2022-01-29_24h08.50.527,lexical_decision_task_DD_L6,2021.2.3,MacIntel,59.99880002,,m,0,1.4723,,,,,,,,1.4723,0,0,9,9,14,1,1001,THRALE,z,,,,,,,,,,,,,,,,,,,,,,,,,,,,,,,,,,,,,,,,,,,,,,,,,,,,
,,,,,,,,,,,,,,,,,199015,21,2022-01-29_24h08.50.527,lexical_decision_task_DD_L6,2021.2.3,MacIntel,59.99880002,,z,1,0.8477,,,,,,,,0.8477,1,0,10,10,13,1,1001,ROUPET,z,,,,,,,,,,,,,,,,,,,,,,,,,,,,,,,,,,,,,,,,,,,,,,,,,,,,
,,,,,,,,,,,,,,,,,199015,21,2022-01-29_24h08.50.527,lexical_decision_task_DD_L6,2021.2.3,MacIntel,59.99880002,,m,0,1.0241,,,,,,,,1.0241,0,0,11,11,12,1,1001,SPRINY,z,,,,,,,,,,,,,,,,,,,,,,,,,,,,,,,,,,,,,,,,,,,,,,,,,,,,
,,,,,,,,,,,,,,,,,199015,21,2022-01-29_24h08.50.527,lexical_decision_task_DD_L6,2021.2.3,MacIntel,59.99880002,,m,1,0.8525,,,,,,,,0.8525,1,0,12,12,0,1,1001,UTOPIA,m,,,,,,,,,,,,,,,,,,,,,,,,,,,,,,,,,,,,,,,,,,,,,,,,,,,,
,,,,,,,,,,,,,,,,,199015,21,2022-01-29_24h08.50.527,lexical_decision_task_DD_L6,2021.2.3,MacIntel,59.99880002,,m,1,0.7381,,,,,,,,0.7381,1,0,13,13,7,1,1001,VOLUME,m,,,,,,,,,,,,,,,,,,,,,,,,,,,,,,,,,,,,,,,,,,,,,,,,,,,,
,,,,,,,,,,,,,,,,,199015,21,2022-01-29_24h08.50.527,lexical_decision_task_DD_L6,2021.2.3,MacIntel,59.99880002,,z,1,1.2385,,,,,,,,1.2385,1,0,14,14,15,1,1001,WHAISE,z,,,,,,,,,,,,,,,,,,,,,,,,,,,,,,,,,,,,,,,,,,,,,,,,,,,,
,,,,,,,,,,,,,,,,,199015,21,2022-01-29_24h08.50.527,lexical_decision_task_DD_L6,2021.2.3,MacIntel,59.99880002,,m,1,0.8126,,,,,,,,0.8126,1,0,15,15,6,1,1001,ZOMBIE,m,,,,,,,,,,,,,,,,,,,,,,,,,,,,,,,,,,,,,,,,,,,,,,,,,,,,
space,0.128927951,-0.406163194,0,0,0,,,,,,,1,end_of_practice,"You have completed the practice trials. During the experimental trials, you will not receive feedback. 
Before you begin, please ensure that you are in a comfortable and quiet location and will not be disturbed for about 15 minutes, as we cannot use your data if you do not complete all the trials. 
 When you are ready to start the experimental trials, please press space or touch the button below.",,,199015,21,2022-01-29_24h08.50.527,lexical_decision_task_DD_L6,2021.2.3,MacIntel,59.99880002,1.1345,,,,,,,,,,,,,,,,,,,,,0,0,0,0,1,,,,,,,,,,,,,,,,,,,,,,,,,,,,,,,,,,,,,,,,,,,,,,,
,,,,,,,,,,,,,,,,,199015,21,2022-01-29_24h08.50.527,lexical_decision_task_DD_L6,2021.2.3,MacIntel,59.99880002,,,,,,,,,,,,1.4337,0,,,,,,,,,,,,,,m,0,1.4337,,,,,,,,0.128927951,-0.406163194,0,0,0,,0,0,0,93,1,SMONE,C,old,z,./images/SMONE.png,,,,,,,,,,,,,,,,,,,,,
,,,,,,,,,,,,,,,,,199015,21,2022-01-29_24h08.50.527,lexical_decision_task_DD_L6,2021.2.3,MacIntel,59.99880002,,,,,,,,,,,,1.186,1,,,,,,,,,,,,,,m,1,1.186,,,,,,,,0.128927951,-0.406163194,0,0,0,,0,1,1,34,1,RAZOR,C,old,m,./images/RAZOR.png,,,,,,,,,,,,,,,,,,,,,
,,,,,,,,,,,,,,,,,199015,21,2022-01-29_24h08.50.527,lexical_decision_task_DD_L6,2021.2.3,MacIntel,59.99880002,,,,,,,,,,,,1.7862,1,,,,,,,,,,,,,,m,1,1.7862,,,,,,,,0.128927951,-0.406163194,0,0,0,,0,2,2,32,1,HOCKEY,HB,old,m,./images/HOCKEYHB.png,,,,,,,,,,,,,,,,,,,,,
,,,,,,,,,,,,,,,,,199015,21,2022-01-29_24h08.50.527,lexical_decision_task_DD_L6,2021.2.3,MacIntel,59.99880002,,,,,,,,,,,,0.7288,1,,,,,,,,,,,,,,m,1,0.7288,,,,,,,,0.128927951,-0.406163194,0,0,0,,0,3,3,13,1,BUNNY,C,old,m,./images/BUNNY.png,,,,,,,,,,,,,,,,,,,,,
,,,,,,,,,,,,,,,,,199015,21,2022-01-29_24h08.50.527,lexical_decision_task_DD_L6,2021.2.3,MacIntel,59.99880002,,,,,,,,,,,,0.9793,0,,,,,,,,,,,,,,m,0,0.9793,,,,,,,,0.128927951,-0.406163194,0,0,0,,0,4,4,128,1,GRIFT,LB,old,z,./images/GRIFTLB.png,,,,,,,,,,,,,,,,,,,,,
,,,,,,,,,,,,,,,,,199015,21,2022-01-29_24h08.50.527,lexical_decision_task_DD_L6,2021.2.3,MacIntel,59.99880002,,,,,,,,,,,,1.0269,1,,,,,,,,,,,,,,m,1,1.0269,,,,,,,,0.128927951,-0.406163194,0,0,0,,0,5,5,81,1,DRILL,LB,old,m,./images/DRILLLB.png,,,,,,,,,,,,,,,,,,,,,
,,,,,,,,,,,,,,,,,199015,21,2022-01-29_24h08.50.527,lexical_decision_task_DD_L6,2021.2.3,MacIntel,59.99880002,,,,,,,,,,,,2.1877,1,,,,,,,,,,,,,,z,1,2.1877,,,,,,,,0.128927951,-0.406163194,0,0,0,,0,6,6,124,1,TUNCH,HB,old,z,./images/TUNCHHB.png,,,,,,,,,,,,,,,,,,,,,
,,,,,,,,,,,,,,,,,199015,21,2022-01-29_24h08.50.527,lexical_decision_task_DD_L6,2021.2.3,MacIntel,59.99880002,,,,,,,,,,,,1.463,1,,,,,,,,,,,,,,m,1,1.463,,,,,,,,0.128927951,-0.406163194,0,0,0,,0,7,7,75,1,HAMMER,LB,old,m,./images/HAMMERLB.png,,,,,,,,,,,,,,,,,,,,,
,,,,,,,,,,,,,,,,,199015,21,2022-01-29_24h08.50.527,lexical_decision_task_DD_L6,2021.2.3,MacIntel,59.99880002,,,,,,,,,,,,1.2989,1,,,,,,,,,,,,,,m,1,1.2989,,,,,,,,0.128927951,-0.406163194,0,0,0,,0,8,8,23,1,CLOTH,HB,old,m,./images/CLOTHHB.png,,,,,,,,,,,,,,,,,,,,,
,,,,,,,,,,,,,,,,,199015,21,2022-01-29_24h08.50.527,lexical_decision_task_DD_L6,2021.2.3,MacIntel,59.99880002,,,,,,,,,,,,0.9011,1,,,,,,,,,,,,,,m,1,0.9011,,,,,,,,0.128927951,-0.406163194,0,0,0,,0,9,9,0,1,WALNUT,LB,old,m,./images/WALNUTLB.png,,,,,,,,,,,,,,,,,,,,,
,,,,,,,,,,,,,,,,,199015,21,2022-01-29_24h08.50.527,lexical_decision_task_DD_L6,2021.2.3,MacIntel,59.99880002,,,,,,,,,,,,2.9344,1,,,,,,,,,,,,,,m,1,2.9344,,,,,,,,0.128927951,-0.406163194,0,0,0,,0,10,10,56,1,HEATER,HB,old,m,./images/HEATERHB.png,,,,,,,,,,,,,,,,,,,,,
,,,,,,,,,,,,,,,,,199015,21,2022-01-29_24h08.50.527,lexical_decision_task_DD_L6,2021.2.3,MacIntel,59.99880002,,,,,,,,,,,,0.8524,1,,,,,,,,,,,,,,m,1,0.8524,,,,,,,,0.128927951,-0.406163194,0,0,0,,0,11,11,36,1,BOILER,LB,old,m,./images/BOILERLB.png,,,,,,,,,,,,,,,,,,,,,
,,,,,,,,,,,,,,,,,199015,21,2022-01-29_24h08.50.527,lexical_decision_task_DD_L6,2021.2.3,MacIntel,59.99880002,,,,,,,,,,,,0.9703,0,,,,,,,,,,,,,,z,0,0.9703,,,,,,,,0.128927951,-0.406163194,0,0,0,,0,12,12,33,1,SAUNA,LB,old,m,./images/SAUNALB.png,,,,,,,,,,,,,,,,,,,,,
,,,,,,,,,,,,,,,,,199015,21,2022-01-29_24h08.50.527,lexical_decision_task_DD_L6,2021.2.3,MacIntel,59.99880002,,,,,,,,,,,,1.0613,1,,,,,,,,,,,,,,z,1,1.0613,,,,,,,,0.128927951,-0.406163194,0,0,0,,0,13,13,162,1,LEICH,C,old,z,./images/LEICH.png,,,,,,,,,,,,,,,,,,,,,
,,,,,,,,,,,,,,,,,199015,21,2022-01-29_24h08.50.527,lexical_decision_task_DD_L6,2021.2.3,MacIntel,59.99880002,,,,,,,,,,,,0.8355,1,,,,,,,,,,,,,,m,1,0.8355,,,,,,,,0.128927951,-0.406163194,0,0,0,,0,14,14,83,1,WHISKY,HB,old,m,./images/WHISKYHB.png,,,,,,,,,,,,,,,,,,,,,
,,,,,,,,,,,,,,,,,199015,21,2022-01-29_24h08.50.527,lexical_decision_task_DD_L6,2021.2.3,MacIntel,59.99880002,,,,,,,,,,,,1.0435,1,,,,,,,,,,,,,,m,1,1.0435,,,,,,,,0.128927951,-0.406163194,0,0,0,,0,15,15,61,1,ARTIST,C,old,m,./images/ARTIST.png,,,,,,,,,,,,,,,,,,,,,
,,,,,,,,,,,,,,,,,199015,21,2022-01-29_24h08.50.527,lexical_decision_task_DD_L6,2021.2.3,MacIntel,59.99880002,,,,,,,,,,,,0.9282,1,,,,,,,,,,,,,,z,1,0.9282,,,,,,,,0.128927951,-0.406163194,0,0,0,,0,16,16,102,1,DULLE,C,old,z,./images/DULLE.png,,,,,,,,,,,,,,,,,,,,,
,,,,,,,,,,,,,,,,,199015,21,2022-01-29_24h08.50.527,lexical_decision_task_DD_L6,2021.2.3,MacIntel,59.99880002,,,,,,,,,,,,4.1531,1,,,,,,,,,,,,,,z,1,4.1531,,,,,,,,0.128927951,-0.406163194,0,0,0,,0,17,17,97,1,CHIDS,HB,old,z,./images/CHIDSHB.png,,,,,,,,,,,,,,,,,,,,,
,,,,,,,,,,,,,,,,,199015,21,2022-01-29_24h08.50.527,lexical_decision_task_DD_L6,2021.2.3,MacIntel,59.99880002,,,,,,,,,,,,2.6318,1,,,,,,,,,,,,,,m,1,2.6318,,,,,,,,0.128927951,-0.406163194,0,0,0,,0,18,18,9,1,DIVER,LB,old,m,./images/DIVERLB.png,,,,,,,,,,,,,,,,,,,,,
,,,,,,,,,,,,,,,,,199015,21,2022-01-29_24h08.50.527,lexical_decision_task_DD_L6,2021.2.3,MacIntel,59.99880002,,,,,,,,,,,,3.4423,0,,,,,,,,,,,,,,z,0,3.4423,,,,,,,,0.128927951,-0.406163194,0,0,0,,0,19,19,52,1,DESERT,C,old,m,./images/DESERT.png,,,,,,,,,,,,,,,,,,,,,
,,,,,,,,,,,,,,,,,199015,21,2022-01-29_24h08.50.527,lexical_decision_task_DD_L6,2021.2.3,MacIntel,59.99880002,,,,,,,,,,,,3.1323,1,,,,,,,,,,,,,,m,1,3.1323,,,,,,,,0.128927951,-0.406163194,0,0,0,,0,20,20,24,1,FLESH,LB,old,m,./images/FLESHLB.png,,,,,,,,,,,,,,,,,,,,,
,,,,,,,,,,,,,,,,,199015,21,2022-01-29_24h08.50.527,lexical_decision_task_DD_L6,2021.2.3,MacIntel,59.99880002,,,,,,,,,,,,0.6659,1,,,,,,,,,,,,,,m,1,0.6659,,,,,,,,0.128927951,-0.406163194,0,0,0,,0,21,21,66,1,STATUE,LB,old,m,./images/STATUELB.png,,,,,,,,,,,,,,,,,,,,,
,,,,,,,,,,,,,,,,,199015,21,2022-01-29_24h08.50.527,lexical_decision_task_DD_L6,2021.2.3,MacIntel,59.99880002,,,,,,,,,,,,1.178,0,,,,,,,,,,,,,,m,0,1.178,,,,,,,,0.128927951,-0.406163194,0,0,0,,0,22,22,165,1,TROWN,C,old,z,./images/TROWN.png,,,,,,,,,,,,,,,,,,,,,
,,,,,,,,,,,,,,,,,199015,21,2022-01-29_24h08.50.527,lexical_decision_task_DD_L6,2021.2.3,MacIntel,59.99880002,,,,,,,,,,,,2.0463,0,,,,,,,,,,,,,,m,0,2.0463,,,,,,,,0.128927951,-0.406163194,0,0,0,,0,23,23,132,1,SCIFF,C,old,z,./images/SCIFF.png,,,,,,,,,,,,,,,,,,,,,
,,,,,,,,,,,,,,,,,199015,21,2022-01-29_24h08.50.527,lexical_decision_task_DD_L6,2021.2.3,MacIntel,59.99880002,,,,,,,,,,,,0.7145,1,,,,,,,,,,,,,,m,1,0.7145,,,,,,,,0.128927951,-0.406163194,0,0,0,,0,24,24,8,1,CLIFF,HB,old,m,./images/CLIFFHB.png,,,,,,,,,,,,,,,,,,,,,
,,,,,,,,,,,,,,,,,199015,21,2022-01-29_24h08.50.527,lexical_decision_task_DD_L6,2021.2.3,MacIntel,59.99880002,,,,,,,,,,,,0.965,1,,,,,,,,,,,,,,m,1,0.965,,,,,,,,0.128927951,-0.406163194,0,0,0,,0,25,25,21,1,DANCER,LB,old,m,./images/DANCERLB.png,,,,,,,,,,,,,,,,,,,,,
,,,,,,,,,,,,,,,,,199015,21,2022-01-29_24h08.50.527,lexical_decision_task_DD_L6,2021.2.3,MacIntel,59.99880002,,,,,,,,,,,,1.5895,0,,,,,,,,,,,,,,m,0,1.5895,,,,,,,,0.128927951,-0.406163194,0,0,0,,0,26,26,87,1,TRING,C,old,z,./images/TRING.png,,,,,,,,,,,,,,,,,,,,,
,,,,,,,,,,,,,,,,,199015,21,2022-01-29_24h08.50.527,lexical_decision_task_DD_L6,2021.2.3,MacIntel,59.99880002,,,,,,,,,,,,1.0995,0,,,,,,,,,,,,,,m,0,1.0995,,,,,,,,0.128927951,-0.406163194,0,0,0,,0,27,27,143,1,MONGS,LB,old,z,./images/MONGSLB.png,,,,,,,,,,,,,,,,,,,,,
,,,,,,,,,,,,,,,,,199015,21,2022-01-29_24h08.50.527,lexical_decision_task_DD_L6,2021.2.3,MacIntel,59.99880002,,,,,,,,,,,,0.5991,1,,,,,,,,,,,,,,m,1,0.5991,,,,,,,,0.128927951,-0.406163194,0,0,0,,0,28,28,39,1,CANDY,LB,old,m,./images/CANDYLB.png,,,,,,,,,,,,,,,,,,,,,
,,,,,,,,,,,,,,,,,199015,21,2022-01-29_24h08.50.527,lexical_decision_task_DD_L6,2021.2.3,MacIntel,59.99880002,,,,,,,,,,,,3.3924,1,,,,,,,,,,,,,,z,1,3.3924,,,,,,,,0.128927951,-0.406163194,0,0,0,,0,29,29,136,1,WERVE,HB,old,z,./images/WERVEHB.png,,,,,,,,,,,,,,,,,,,,,
,,,,,,,,,,,,,,,,,199015,21,2022-01-29_24h08.50.527,lexical_decision_task_DD_L6,2021.2.3,MacIntel,59.99880002,,,,,,,,,,,,0.6979,1,,,,,,,,,,,,,,m,1,0.6979,,,,,,,,0.128927951,-0.406163194,0,0,0,,0,30,30,78,1,BROOM,LB,old,m,./images/BROOMLB.png,,,,,,,,,,,,,,,,,,,,,
,,,,,,,,,,,,,,,,,199015,21,2022-01-29_24h08.50.527,lexical_decision_task_DD_L6,2021.2.3,MacIntel,59.99880002,,,,,,,,,,,,1.173,0,,,,,,,,,,,,,,m,0,1.173,,,,,,,,0.128927951,-0.406163194,0,0,0,,0,31,31,153,1,CLUPS,C,old,z,./images/CLUPS.png,,,,,,,,,,,,,,,,,,,,,
,,,,,,,,,,,,,,,,,199015,21,2022-01-29_24h08.50.527,lexical_decision_task_DD_L6,2021.2.3,MacIntel,59.99880002,,,,,,,,,,,,4.2129,1,,,,,,,,,,,,,,z,1,4.2129,,,,,,,,0.128927951,-0.406163194,0,0,0,,0,32,32,151,1,TINKY,HB,old,z,./images/TINKYHB.png,,,,,,,,,,,,,,,,,,,,,
,,,,,,,,,,,,,,,,,199015,21,2022-01-29_24h08.50.527,lexical_decision_task_DD_L6,2021.2.3,MacIntel,59.99880002,,,,,,,,,,,,1.0901,0,,,,,,,,,,,,,,m,0,1.0901,,,,,,,,0.128927951,-0.406163194,0,0,0,,0,33,33,99,1,BACKY,C,old,z,./images/BACKY.png,,,,,,,,,,,,,,,,,,,,,
,,,,,,,,,,,,,,,,,199015,21,2022-01-29_24h08.50.527,lexical_decision_task_DD_L6,2021.2.3,MacIntel,59.99880002,,,,,,,,,,,,1.4525,1,,,,,,,,,,,,,,m,1,1.4525,,,,,,,,0.128927951,-0.406163194,0,0,0,,0,34,34,46,1,MUMMY,C,old,m,./images/MUMMY.png,,,,,,,,,,,,,,,,,,,,,
,,,,,,,,,,,,,,,,,199015,21,2022-01-29_24h08.50.527,lexical_decision_task_DD_L6,2021.2.3,MacIntel,59.99880002,,,,,,,,,,,,0.6407,1,,,,,,,,,,,,,,z,1,0.6407,,,,,,,,0.128927951,-0.406163194,0,0,0,,0,35,35,108,1,GRUET,C,old,z,./images/GRUET.png,,,,,,,,,,,,,,,,,,,,,
,,,,,,,,,,,,,,,,,199015,21,2022-01-29_24h08.50.527,lexical_decision_task_DD_L6,2021.2.3,MacIntel,59.99880002,,,,,,,,,,,,1.414,1,,,,,,,,,,,,,,m,1,1.414,,,,,,,,0.128927951,-0.406163194,0,0,0,,0,36,36,20,1,GRANNY,HB,old,m,./images/GRANNYHB.png,,,,,,,,,,,,,,,,,,,,,
,,,,,,,,,,,,,,,,,199015,21,2022-01-29_24h08.50.527,lexical_decision_task_DD_L6,2021.2.3,MacIntel,59.99880002,,,,,,,,,,,,3.8437,0,,,,,,,,,,,,,,z,0,3.8437,,,,,,,,0.128927951,-0.406163194,0,0,0,,0,37,37,12,1,BLOKE,LB,old,m,./images/BLOKELB.png,,,,,,,,,,,,,,,,,,,,,
,,,,,,,,,,,,,,,,,199015,21,2022-01-29_24h08.50.527,lexical_decision_task_DD_L6,2021.2.3,MacIntel,59.99880002,,,,,,,,,,,,1.6644,1,,,,,,,,,,,,,,m,1,1.6644,,,,,,,,0.128927951,-0.406163194,0,0,0,,0,38,38,77,1,WHEEL,HB,old,m,./images/WHEELHB.png,,,,,,,,,,,,,,,,,,,,,
,,,,,,,,,,,,,,,,,199015,21,2022-01-29_24h08.50.527,lexical_decision_task_DD_L6,2021.2.3,MacIntel,59.99880002,,,,,,,,,,,,0.8745,1,,,,,,,,,,,,,,m,1,0.8745,,,,,,,,0.128927951,-0.406163194,0,0,0,,0,39,39,55,1,ALLEY,C,old,m,./images/ALLEY.png,,,,,,,,,,,,,,,,,,,,,
,,,,,,,,,,,,,,,,,199015,21,2022-01-29_24h08.50.527,lexical_decision_task_DD_L6,2021.2.3,MacIntel,59.99880002,,,,,,,,,,,,0.7899,1,,,,,,,,,,,,,,z,1,0.7899,,,,,,,,0.128927951,-0.406163194,0,0,0,,0,40,40,149,1,VEASE,LB,old,z,./images/VEASELB.png,,,,,,,,,,,,,,,,,,,,,
,,,,,,,,,,,,,,,,,199015,21,2022-01-29_24h08.50.527,lexical_decision_task_DD_L6,2021.2.3,MacIntel,59.99880002,,,,,,,,,,,,0.7022,1,,,,,,,,,,,,,,m,1,0.7022,,,,,,,,0.128927951,-0.406163194,0,0,0,space,0,41,41,57,1,FERRY,LB,old,m,./images/FERRYLB.png,5.7111,,,,,,,,,,,,,,,,,,,,
,,,,,,,,,,,,,,,,,199015,21,2022-01-29_24h08.50.527,lexical_decision_task_DD_L6,2021.2.3,MacIntel,59.99880002,,,,,,,,,,,,0.6785,0,,,,,,,,,,,,,,m,0,0.6785,,,,,,,,0.128927951,-0.406163194,0,0,0,,0,42,42,150,1,NOOLS,C,old,z,./images/NOOLS.png,,,,,,,,,,,,,,,,,,,,,
,,,,,,,,,,,,,,,,,199015,21,2022-01-29_24h08.50.527,lexical_decision_task_DD_L6,2021.2.3,MacIntel,59.99880002,,,,,,,,,,,,0.5202,0,,,,,,,,,,,,,,z,0,0.5202,,,,,,,,0.128927951,-0.406163194,0,0,0,,0,43,43,48,1,SHIELD,LB,old,m,./images/SHIELDLB.png,,,,,,,,,,,,,,,,,,,,,
,,,,,,,,,,,,,,,,,199015,21,2022-01-29_24h08.50.527,lexical_decision_task_DD_L6,2021.2.3,MacIntel,59.99880002,,,,,,,,,,,,1.9755,0,,,,,,,,,,,,,,m,0,1.9755,,,,,,,,0.128927951,-0.406163194,0,0,0,,0,44,44,118,1,BAVEL,HB,old,z,./images/BAVELHB.png,,,,,,,,,,,,,,,,,,,,,
,,,,,,,,,,,,,,,,,199015,21,2022-01-29_24h08.50.527,lexical_decision_task_DD_L6,2021.2.3,MacIntel,59.99880002,,,,,,,,,,,,1.7266,0,,,,,,,,,,,,,,m,0,1.7266,,,,,,,,0.128927951,-0.406163194,0,0,0,,0,45,45,142,1,PLASK,HB,old,z,./images/PLASKHB.png,,,,,,,,,,,,,,,,,,,,,
,,,,,,,,,,,,,,,,,199015,21,2022-01-29_24h08.50.527,lexical_decision_task_DD_L6,2021.2.3,MacIntel,59.99880002,,,,,,,,,,,,0.6303,1,,,,,,,,,,,,,,m,1,0.6303,,,,,,,,0.128927951,-0.406163194,0,0,0,,0,46,46,4,1,BOXER,C,old,m,./images/BOXER.png,,,,,,,,,,,,,,,,,,,,,
,,,,,,,,,,,,,,,,,199015,21,2022-01-29_24h08.50.527,lexical_decision_task_DD_L6,2021.2.3,MacIntel,59.99880002,,,,,,,,,,,,0.9143,1,,,,,,,,,,,,,,z,1,0.9143,,,,,,,,0.128927951,-0.406163194,0,0,0,,0,47,47,155,1,CANGY,LB,old,z,./images/CANGYLB.png,,,,,,,,,,,,,,,,,,,,,
,,,,,,,,,,,,,,,,,199015,21,2022-01-29_24h08.50.527,lexical_decision_task_DD_L6,2021.2.3,MacIntel,59.99880002,,,,,,,,,,,,0.8512,1,,,,,,,,,,,,,,m,1,0.8512,,,,,,,,0.128927951,-0.406163194,0,0,0,,0,48,48,50,1,PILOT,HB,old,m,./images/PILOTHB.png,,,,,,,,,,,,,,,,,,,,,
,,,,,,,,,,,,,,,,,199015,21,2022-01-29_24h08.50.527,lexical_decision_task_DD_L6,2021.2.3,MacIntel,59.99880002,,,,,,,,,,,,2.2504,1,,,,,,,,,,,,,,z,1,2.2504,,,,,,,,0.128927951,-0.406163194,0,0,0,,0,49,49,130,1,CRILL,HB,old,z,./images/CRILLHB.png,,,,,,,,,,,,,,,,,,,,,
,,,,,,,,,,,,,,,,,199015,21,2022-01-29_24h08.50.527,lexical_decision_task_DD_L6,2021.2.3,MacIntel,59.99880002,,,,,,,,,,,,0.7745,1,,,,,,,,,,,,,,m,1,0.7745,,,,,,,,0.128927951,-0.406163194,0,0,0,,0,50,50,49,1,BISHOP,C,old,m,./images/BISHOP.png,,,,,,,,,,,,,,,,,,,,,
,,,,,,,,,,,,,,,,,199015,21,2022-01-29_24h08.50.527,lexical_decision_task_DD_L6,2021.2.3,MacIntel,59.99880002,,,,,,,,,,,,1.0658,0,,,,,,,,,,,,,,m,0,1.0658,,,,,,,,0.128927951,-0.406163194,0,0,0,,0,51,51,107,1,FASKS,LB,old,z,./images/FASKSLB.png,,,,,,,,,,,,,,,,,,,,,
,,,,,,,,,,,,,,,,,199015,21,2022-01-29_24h08.50.527,lexical_decision_task_DD_L6,2021.2.3,MacIntel,59.99880002,,,,,,,,,,,,0.8548,1,,,,,,,,,,,,,,m,1,0.8548,,,,,,,,0.128927951,-0.406163194,0,0,0,,0,52,52,80,1,PLANET,HB,old,m,./images/PLANETHB.png,,,,,,,,,,,,,,,,,,,,,
,,,,,,,,,,,,,,,,,199015,21,2022-01-29_24h08.50.527,lexical_decision_task_DD_L6,2021.2.3,MacIntel,59.99880002,,,,,,,,,,,,0.7567,1,,,,,,,,,,,,,,m,1,0.7567,,,,,,,,0.128927951,-0.406163194,0,0,0,,0,53,53,63,1,BAKER,LB,old,m,./images/BAKERLB.png,,,,,,,,,,,,,,,,,,,,,
,,,,,,,,,,,,,,,,,199015,21,2022-01-29_24h08.50.527,lexical_decision_task_DD_L6,2021.2.3,MacIntel,59.99880002,,,,,,,,,,,,1.2701,1,,,,,,,,,,,,,,z,1,1.2701,,,,,,,,0.128927951,-0.406163194,0,0,0,,0,54,54,138,1,PLICE,C,old,z,./images/PLICE.png,,,,,,,,,,,,,,,,,,,,,
,,,,,,,,,,,,,,,,,199015,21,2022-01-29_24h08.50.527,lexical_decision_task_DD_L6,2021.2.3,MacIntel,59.99880002,,,,,,,,,,,,1.8186,1,,,,,,,,,,,,,,z,1,1.8186,,,,,,,,0.128927951,-0.406163194,0,0,0,,0,55,55,91,1,SHENS,HB,old,z,./images/SHENSHB.png,,,,,,,,,,,,,,,,,,,,,
,,,,,,,,,,,,,,,,,199015,21,2022-01-29_24h08.50.527,lexical_decision_task_DD_L6,2021.2.3,MacIntel,59.99880002,,,,,,,,,,,,0.767,1,,,,,,,,,,,,,,m,1,0.767,,,,,,,,0.128927951,-0.406163194,0,0,0,,0,56,56,18,1,PARCEL,LB,old,m,./images/PARCELLB.png,,,,,,,,,,,,,,,,,,,,,
,,,,,,,,,,,,,,,,,199015,21,2022-01-29_24h08.50.527,lexical_decision_task_DD_L6,2021.2.3,MacIntel,59.99880002,,,,,,,,,,,,1.12,1,,,,,,,,,,,,,,z,1,1.12,,,,,,,,0.128927951,-0.406163194,0,0,0,,0,57,57,123,1,SEDGE,C,old,z,./images/SEDGE.png,,,,,,,,,,,,,,,,,,,,,
,,,,,,,,,,,,,,,,,199015,21,2022-01-29_24h08.50.527,lexical_decision_task_DD_L6,2021.2.3,MacIntel,59.99880002,,,,,,,,,,,,0.7657,1,,,,,,,,,,,,,,m,1,0.7657,,,,,,,,0.128927951,-0.406163194,0,0,0,,0,58,58,47,1,LAGOON,HB,old,m,./images/LAGOONHB.png,,,,,,,,,,,,,,,,,,,,,
,,,,,,,,,,,,,,,,,199015,21,2022-01-29_24h08.50.527,lexical_decision_task_DD_L6,2021.2.3,MacIntel,59.99880002,,,,,,,,,,,,1.1037,1,,,,,,,,,,,,,,m,1,1.1037,,,,,,,,0.128927951,-0.406163194,0,0,0,,0,59,59,43,1,STOOL,C,old,m,./images/STOOL.png,,,,,,,,,,,,,,,,,,,,,
,,,,,,,,,,,,,,,,,199015,21,2022-01-29_24h08.50.527,lexical_decision_task_DD_L6,2021.2.3,MacIntel,59.99880002,,,,,,,,,,,,0.8118,1,,,,,,,,,,,,,,m,1,0.8118,,,,,,,,0.128927951,-0.406163194,0,0,0,,0,60,60,37,1,TIGER,C,old,m,./images/TIGER.png,,,,,,,,,,,,,,,,,,,,,
,,,,,,,,,,,,,,,,,199015,21,2022-01-29_24h08.50.527,lexical_decision_task_DD_L6,2021.2.3,MacIntel,59.99880002,,,,,,,,,,,,1.4313,1,,,,,,,,,,,,,,m,1,1.4313,,,,,,,,0.128927951,-0.406163194,0,0,0,,0,61,61,29,1,PISTOL,HB,old,m,./images/PISTOLHB.png,,,,,,,,,,,,,,,,,,,,,
,,,,,,,,,,,,,,,,,199015,21,2022-01-29_24h08.50.527,lexical_decision_task_DD_L6,2021.2.3,MacIntel,59.99880002,,,,,,,,,,,,0.7082,1,,,,,,,,,,,,,,m,1,0.7082,,,,,,,,0.128927951,-0.406163194,0,0,0,,0,62,62,40,1,SNAKE,C,old,m,./images/SNAKE.png,,,,,,,,,,,,,,,,,,,,,
,,,,,,,,,,,,,,,,,199015,21,2022-01-29_24h08.50.527,lexical_decision_task_DD_L6,2021.2.3,MacIntel,59.99880002,,,,,,,,,,,,1.4324,1,,,,,,,,,,,,,,z,1,1.4324,,,,,,,,0.128927951,-0.406163194,0,0,0,,0,63,63,113,1,LINEW,LB,old,z,./images/LINEWLB.png,,,,,,,,,,,,,,,,,,,,,
,,,,,,,,,,,,,,,,,199015,21,2022-01-29_24h08.50.527,lexical_decision_task_DD_L6,2021.2.3,MacIntel,59.99880002,,,,,,,,,,,,0.7312,1,,,,,,,,,,,,,,m,1,0.7312,,,,,,,,0.128927951,-0.406163194,0,0,0,,0,64,64,7,1,WAGON,C,old,m,./images/WAGON.png,,,,,,,,,,,,,,,,,,,,,
,,,,,,,,,,,,,,,,,199015,21,2022-01-29_24h08.50.527,lexical_decision_task_DD_L6,2021.2.3,MacIntel,59.99880002,,,,,,,,,,,,0.5042,1,,,,,,,,,,,,,,m,1,0.5042,,,,,,,,0.128927951,-0.406163194,0,0,0,,0,65,65,79,1,RULER,C,old,m,./images/RULER.png,,,,,,,,,,,,,,,,,,,,,
,,,,,,,,,,,,,,,,,199015,21,2022-01-29_24h08.50.527,lexical_decision_task_DD_L6,2021.2.3,MacIntel,59.99880002,,,,,,,,,,,,0.8541,1,,,,,,,,,,,,,,z,1,0.8541,,,,,,,,0.128927951,-0.406163194,0,0,0,,0,66,66,134,1,TROSS,LB,old,z,./images/TROSSLB.png,,,,,,,,,,,,,,,,,,,,,
,,,,,,,,,,,,,,,,,199015,21,2022-01-29_24h08.50.527,lexical_decision_task_DD_L6,2021.2.3,MacIntel,59.99880002,,,,,,,,,,,,0.6112,0,,,,,,,,,,,,,,m,0,0.6112,,,,,,,,0.128927951,-0.406163194,0,0,0,,0,67,67,105,1,MOKER,C,old,z,./images/MOKER.png,,,,,,,,,,,,,,,,,,,,,
,,,,,,,,,,,,,,,,,199015,21,2022-01-29_24h08.50.527,lexical_decision_task_DD_L6,2021.2.3,MacIntel,59.99880002,,,,,,,,,,,,0.9714,1,,,,,,,,,,,,,,z,1,0.9714,,,,,,,,0.128927951,-0.406163194,0,0,0,,0,68,68,111,1,HOSSE,C,old,z,./images/HOSSE.png,,,,,,,,,,,,,,,,,,,,,
,,,,,,,,,,,,,,,,,199015,21,2022-01-29_24h08.50.527,lexical_decision_task_DD_L6,2021.2.3,MacIntel,59.99880002,,,,,,,,,,,,0.8236,1,,,,,,,,,,,,,,z,1,0.8236,,,,,,,,0.128927951,-0.406163194,0,0,0,,0,69,69,140,1,DOVET,LB,old,z,./images/DOVETLB.png,,,,,,,,,,,,,,,,,,,,,
,,,,,,,,,,,,,,,,,199015,21,2022-01-29_24h08.50.527,lexical_decision_task_DD_L6,2021.2.3,MacIntel,59.99880002,,,,,,,,,,,,4.9653,1,,,,,,,,,,,,,,z,1,4.9653,,,,,,,,0.128927951,-0.406163194,0,0,0,,0,70,70,127,1,NINDY,HB,old,z,./images/NINDYHB.png,,,,,,,,,,,,,,,,,,,,,
,,,,,,,,,,,,,,,,,199015,21,2022-01-29_24h08.50.527,lexical_decision_task_DD_L6,2021.2.3,MacIntel,59.99880002,,,,,,,,,,,,1.399,1,,,,,,,,,,,,,,z,1,1.399,,,,,,,,0.128927951,-0.406163194,0,0,0,,0,71,71,88,1,GLUSH,HB,old,z,./images/GLUSHHB.png,,,,,,,,,,,,,,,,,,,,,
,,,,,,,,,,,,,,,,,199015,21,2022-01-29_24h08.50.527,lexical_decision_task_DD_L6,2021.2.3,MacIntel,59.99880002,,,,,,,,,,,,0.6711,0,,,,,,,,,,,,,,m,0,0.6711,,,,,,,,0.128927951,-0.406163194,0,0,0,,0,72,72,159,1,CUDDY,C,old,z,./images/CUDDY.png,,,,,,,,,,,,,,,,,,,,,
,,,,,,,,,,,,,,,,,199015,21,2022-01-29_24h08.50.527,lexical_decision_task_DD_L6,2021.2.3,MacIntel,59.99880002,,,,,,,,,,,,1.0327,1,,,,,,,,,,,,,,m,1,1.0327,,,,,,,,0.128927951,-0.406163194,0,0,0,,0,73,73,71,1,BUBBLE,HB,old,m,./images/BUBBLEHB.png,,,,,,,,,,,,,,,,,,,,,
,,,,,,,,,,,,,,,,,199015,21,2022-01-29_24h08.50.527,lexical_decision_task_DD_L6,2021.2.3,MacIntel,59.99880002,,,,,,,,,,,,5.3436,1,,,,,,,,,,,,,,z,1,5.3436,,,,,,,,0.128927951,-0.406163194,0,0,0,,0,74,74,157,1,INLER,HB,old,z,./images/INLERHB.png,,,,,,,,,,,,,,,,,,,,,
,,,,,,,,,,,,,,,,,199015,21,2022-01-29_24h08.50.527,lexical_decision_task_DD_L6,2021.2.3,MacIntel,59.99880002,,,,,,,,,,,,1.5157,1,,,,,,,,,,,,,,z,1,1.5157,,,,,,,,0.128927951,-0.406163194,0,0,0,,0,75,75,112,1,MYING,HB,old,z,./images/MYINGHB.png,,,,,,,,,,,,,,,,,,,,,
,,,,,,,,,,,,,,,,,199015,21,2022-01-29_24h08.50.527,lexical_decision_task_DD_L6,2021.2.3,MacIntel,59.99880002,,,,,,,,,,,,1.8376,1,,,,,,,,,,,,,,m,1,1.8376,,,,,,,,0.128927951,-0.406163194,0,0,0,,0,76,76,53,1,POSTER,HB,old,m,./images/POSTERHB.png,,,,,,,,,,,,,,,,,,,,,
,,,,,,,,,,,,,,,,,199015,21,2022-01-29_24h08.50.527,lexical_decision_task_DD_L6,2021.2.3,MacIntel,59.99880002,,,,,,,,,,,,0.8587,1,,,,,,,,,,,,,,z,1,0.8587,,,,,,,,0.128927951,-0.406163194,0,0,0,,0,77,77,135,1,JOODY,C,old,z,./images/JOODY.png,,,,,,,,,,,,,,,,,,,,,
,,,,,,,,,,,,,,,,,199015,21,2022-01-29_24h08.50.527,lexical_decision_task_DD_L6,2021.2.3,MacIntel,59.99880002,,,,,,,,,,,,1.134,1,,,,,,,,,,,,,,m,1,1.134,,,,,,,,0.128927951,-0.406163194,0,0,0,,0,78,78,30,1,SLOPE,LB,old,m,./images/SLOPELB.png,,,,,,,,,,,,,,,,,,,,,
,,,,,,,,,,,,,,,,,199015,21,2022-01-29_24h08.50.527,lexical_decision_task_DD_L6,2021.2.3,MacIntel,59.99880002,,,,,,,,,,,,2.8741,1,,,,,,,,,,,,,,z,1,2.8741,,,,,,,,0.128927951,-0.406163194,0,0,0,,0,79,79,110,1,CRUNK,LB,old,z,./images/CRUNKLB.png,,,,,,,,,,,,,,,,,,,,,
,,,,,,,,,,,,,,,,,199015,21,2022-01-29_24h08.50.527,lexical_decision_task_DD_L6,2021.2.3,MacIntel,59.99880002,,,,,,,,,,,,1.4082,1,,,,,,,,,,,,,,m,1,1.4082,,,,,,,,0.128927951,-0.406163194,0,0,0,,0,80,80,62,1,MAMMAL,HB,old,m,./images/MAMMALHB.png,,,,,,,,,,,,,,,,,,,,,
,,,,,,,,,,,,,,,,,199015,21,2022-01-29_24h08.50.527,lexical_decision_task_DD_L6,2021.2.3,MacIntel,59.99880002,,,,,,,,,,,,1.8563,1,,,,,,,,,,,,,,z,1,1.8563,,,,,,,,0.128927951,-0.406163194,0,0,0,,0,81,81,133,1,POWDY,HB,old,z,./images/POWDYHB.png,,,,,,,,,,,,,,,,,,,,,
,,,,,,,,,,,,,,,,,199015,21,2022-01-29_24h08.50.527,lexical_decision_task_DD_L6,2021.2.3,MacIntel,59.99880002,,,,,,,,,,,,3.4908,1,,,,,,,,,,,,,,z,1,3.4908,,,,,,,,0.128927951,-0.406163194,0,0,0,,0,82,82,103,1,FLORT,HB,old,z,./images/FLORTHB.png,,,,,,,,,,,,,,,,,,,,,
,,,,,,,,,,,,,,,,,199015,21,2022-01-29_24h08.50.527,lexical_decision_task_DD_L6,2021.2.3,MacIntel,59.99880002,,,,,,,,,,,,0.8368,1,,,,,,,,,,,,,,m,1,0.8368,,,,,,,,0.128927951,-0.406163194,0,0,0,space,0,83,83,16,1,GRAPE,C,old,m,./images/GRAPE.png,2.1979,,,,,,,,,,,,,,,,,,,,
,,,,,,,,,,,,,,,,,199015,21,2022-01-29_24h08.50.527,lexical_decision_task_DD_L6,2021.2.3,MacIntel,59.99880002,,,,,,,,,,,,1.7933,1,,,,,,,,,,,,,,z,1,1.7933,,,,,,,,0.128927951,-0.406163194,0,0,0,,0,84,84,164,1,SGREW,LB,old,z,./images/SGREWLB.png,,,,,,,,,,,,,,,,,,,,,
,,,,,,,,,,,,,,,,,199015,21,2022-01-29_24h08.50.527,lexical_decision_task_DD_L6,2021.2.3,MacIntel,59.99880002,,,,,,,,,,,,2.3144,0,,,,,,,,,,,,,,m,0,2.3144,,,,,,,,0.128927951,-0.406163194,0,0,0,,0,85,85,122,1,BLOOT,LB,old,z,./images/BLOOTLB.png,,,,,,,,,,,,,,,,,,,,,
,,,,,,,,,,,,,,,,,199015,21,2022-01-29_24h08.50.527,lexical_decision_task_DD_L6,2021.2.3,MacIntel,59.99880002,,,,,,,,,,,,3.2027,1,,,,,,,,,,,,,,z,1,3.2027,,,,,,,,0.128927951,-0.406163194,0,0,0,,0,86,86,163,1,GAMBA,HB,old,z,./images/GAMBAHB.png,,,,,,,,,,,,,,,,,,,,,
,,,,,,,,,,,,,,,,,199015,21,2022-01-29_24h08.50.527,lexical_decision_task_DD_L6,2021.2.3,MacIntel,59.99880002,,,,,,,,,,,,1.2895,1,,,,,,,,,,,,,,z,1,1.2895,,,,,,,,0.128927951,-0.406163194,0,0,0,,0,87,87,131,1,NACES,LB,old,z,./images/NACESLB.png,,,,,,,,,,,,,,,,,,,,,
,,,,,,,,,,,,,,,,,199015,21,2022-01-29_24h08.50.527,lexical_decision_task_DD_L6,2021.2.3,MacIntel,59.99880002,,,,,,,,,,,,0.8874,1,,,,,,,,,,,,,,m,1,0.8874,,,,,,,,0.128927951,-0.406163194,0,0,0,,0,88,88,74,1,JUMPER,HB,old,m,./images/JUMPERHB.png,,,,,,,,,,,,,,,,,,,,,
,,,,,,,,,,,,,,,,,199015,21,2022-01-29_24h08.50.527,lexical_decision_task_DD_L6,2021.2.3,MacIntel,59.99880002,,,,,,,,,,,,1.7281,1,,,,,,,,,,,,,,z,1,1.7281,,,,,,,,0.128927951,-0.406163194,0,0,0,,0,89,89,148,1,JOMS,HB,old,z,./images/JOMSHB.png,,,,,,,,,,,,,,,,,,,,,
,,,,,,,,,,,,,,,,,199015,21,2022-01-29_24h08.50.527,lexical_decision_task_DD_L6,2021.2.3,MacIntel,59.99880002,,,,,,,,,,,,1.0354,1,,,,,,,,,,,,,,m,1,1.0354,,,,,,,,0.128927951,-0.406163194,0,0,0,,0,90,90,28,1,CASINO,C,old,m,./images/CASINO.png,,,,,,,,,,,,,,,,,,,,,
,,,,,,,,,,,,,,,,,199015,21,2022-01-29_24h08.50.527,lexical_decision_task_DD_L6,2021.2.3,MacIntel,59.99880002,,,,,,,,,,,,3.9503,1,,,,,,,,,,,,,,z,1,3.9503,,,,,,,,0.128927951,-0.406163194,0,0,0,,0,91,91,154,1,THINT,HB,old,z,./images/THINTHB.png,,,,,,,,,,,,,,,,,,,,,
,,,,,,,,,,,,,,,,,199015,21,2022-01-29_24h08.50.527,lexical_decision_task_DD_L6,2021.2.3,MacIntel,59.99880002,,,,,,,,,,,,0.7818,0,,,,,,,,,,,,,,m,0,0.7818,,,,,,,,0.128927951,-0.406163194,0,0,0,,0,92,92,152,1,FRAIN,LB,old,z,./images/FRAINLB.png,,,,,,,,,,,,,,,,,,,,,
,,,,,,,,,,,,,,,,,199015,21,2022-01-29_24h08.50.527,lexical_decision_task_DD_L6,2021.2.3,MacIntel,59.99880002,,,,,,,,,,,,1.5579,1,,,,,,,,,,,,,,m,1,1.5579,,,,,,,,0.128927951,-0.406163194,0,0,0,,0,93,93,25,1,CHALK,C,old,m,./images/CHALK.png,,,,,,,,,,,,,,,,,,,,,
,,,,,,,,,,,,,,,,,199015,21,2022-01-29_24h08.50.527,lexical_decision_task_DD_L6,2021.2.3,MacIntel,59.99880002,,,,,,,,,,,,0.9661,1,,,,,,,,,,,,,,z,1,0.9661,,,,,,,,0.128927951,-0.406163194,0,0,0,,0,94,94,160,1,VEETS,HB,old,z,./images/VEETSHB.png,,,,,,,,,,,,,,,,,,,,,
,,,,,,,,,,,,,,,,,199015,21,2022-01-29_24h08.50.527,lexical_decision_task_DD_L6,2021.2.3,MacIntel,59.99880002,,,,,,,,,,,,1.7982,1,,,,,,,,,,,,,,z,1,1.7982,,,,,,,,0.128927951,-0.406163194,0,0,0,,0,95,95,166,1,SHORY,HB,old,z,./images/SHORYHB.png,,,,,,,,,,,,,,,,,,,,,
,,,,,,,,,,,,,,,,,199015,21,2022-01-29_24h08.50.527,lexical_decision_task_DD_L6,2021.2.3,MacIntel,59.99880002,,,,,,,,,,,,0.984,1,,,,,,,,,,,,,,m,1,0.984,,,,,,,,0.128927951,-0.406163194,0,0,0,,0,96,96,14,1,FENCE,HB,old,m,./images/FENCEHB.png,,,,,,,,,,,,,,,,,,,,,
,,,,,,,,,,,,,,,,,199015,21,2022-01-29_24h08.50.527,lexical_decision_task_DD_L6,2021.2.3,MacIntel,59.99880002,,,,,,,,,,,,1.3657,1,,,,,,,,,,,,,,z,1,1.3657,,,,,,,,0.128927951,-0.406163194,0,0,0,,0,97,97,145,1,LAMEL,HB,old,z,./images/LAMELHB.png,,,,,,,,,,,,,,,,,,,,,
,,,,,,,,,,,,,,,,,199015,21,2022-01-29_24h08.50.527,lexical_decision_task_DD_L6,2021.2.3,MacIntel,59.99880002,,,,,,,,,,,,1.0848,1,,,,,,,,,,,,,,m,1,1.0848,,,,,,,,0.128927951,-0.406163194,0,0,0,,0,98,98,44,1,BASKET,HB,old,m,./images/BASKETHB.png,,,,,,,,,,,,,,,,,,,,,
,,,,,,,,,,,,,,,,,199015,21,2022-01-29_24h08.50.527,lexical_decision_task_DD_L6,2021.2.3,MacIntel,59.99880002,,,,,,,,,,,,2.5887,0,,,,,,,,,,,,,,m,0,2.5887,,,,,,,,0.128927951,-0.406163194,0,0,0,,0,99,99,121,1,CEERS,HB,old,z,./images/CEERSHB.png,,,,,,,,,,,,,,,,,,,,,
,,,,,,,,,,,,,,,,,199015,21,2022-01-29_24h08.50.527,lexical_decision_task_DD_L6,2021.2.3,MacIntel,59.99880002,,,,,,,,,,,,0.8973,1,,,,,,,,,,,,,,z,1,0.8973,,,,,,,,0.128927951,-0.406163194,0,0,0,,0,100,100,90,1,NEAST,C,old,z,./images/NEAST.png,,,,,,,,,,,,,,,,,,,,,
,,,,,,,,,,,,,,,,,199015,21,2022-01-29_24h08.50.527,lexical_decision_task_DD_L6,2021.2.3,MacIntel,59.99880002,,,,,,,,,,,,0.9698,1,,,,,,,,,,,,,,z,1,0.9698,,,,,,,,0.128927951,-0.406163194,0,0,0,,0,101,101,167,1,ZONET,LB,old,z,./images/ZONETLB.png,,,,,,,,,,,,,,,,,,,,,
,,,,,,,,,,,,,,,,,199015,21,2022-01-29_24h08.50.527,lexical_decision_task_DD_L6,2021.2.3,MacIntel,59.99880002,,,,,,,,,,,,0.6997,1,,,,,,,,,,,,,,m,1,0.6997,,,,,,,,0.128927951,-0.406163194,0,0,0,,0,102,102,27,1,BUTTER,LB,old,m,./images/BUTTERLB.png,,,,,,,,,,,,,,,,,,,,,
,,,,,,,,,,,,,,,,,199015,21,2022-01-29_24h08.50.527,lexical_decision_task_DD_L6,2021.2.3,MacIntel,59.99880002,,,,,,,,,,,,1.2471,1,,,,,,,,,,,,,,z,1,1.2471,,,,,,,,0.128927951,-0.406163194,0,0,0,,0,103,103,89,1,DRIEK,LB,old,z,./images/DRIEKLB.png,,,,,,,,,,,,,,,,,,,,,
,,,,,,,,,,,,,,,,,199015,21,2022-01-29_24h08.50.527,lexical_decision_task_DD_L6,2021.2.3,MacIntel,59.99880002,,,,,,,,,,,,0.6354,1,,,,,,,,,,,,,,m,1,0.6354,,,,,,,,0.128927951,-0.406163194,0,0,0,,0,104,104,26,1,CLOUD,HB,old,m,./images/CLOUDHB.png,,,,,,,,,,,,,,,,,,,,,
,,,,,,,,,,,,,,,,,199015,21,2022-01-29_24h08.50.527,lexical_decision_task_DD_L6,2021.2.3,MacIntel,59.99880002,,,,,,,,,,,,0.6441,1,,,,,,,,,,,,,,m,1,0.6441,,,,,,,,0.128927951,-0.406163194,0,0,0,,0,105,105,19,1,DONKEY,C,old,m,./images/DONKEY.png,,,,,,,,,,,,,,,,,,,,,
,,,,,,,,,,,,,,,,,199015,21,2022-01-29_24h08.50.527,lexical_decision_task_DD_L6,2021.2.3,MacIntel,59.99880002,,,,,,,,,,,,1.0292,1,,,,,,,,,,,,,,m,1,1.0292,,,,,,,,0.128927951,-0.406163194,0,0,0,,0,106,106,15,1,COLLAR,LB,old,m,./images/COLLARLB.png,,,,,,,,,,,,,,,,,,,,,
,,,,,,,,,,,,,,,,,199015,21,2022-01-29_24h08.50.527,lexical_decision_task_DD_L6,2021.2.3,MacIntel,59.99880002,,,,,,,,,,,,0.7436,1,,,,,,,,,,,,,,m,1,0.7436,,,,,,,,0.128927951,-0.406163194,0,0,0,,0,107,107,68,1,VALLEY,HB,old,m,./images/VALLEYHB.png,,,,,,,,,,,,,,,,,,,,,
,,,,,,,,,,,,,,,,,199015,21,2022-01-29_24h08.50.527,lexical_decision_task_DD_L6,2021.2.3,MacIntel,59.99880002,,,,,,,,,,,,0.6738,1,,,,,,,,,,,,,,z,1,0.6738,,,,,,,,0.128927951,-0.406163194,0,0,0,,0,108,108,84,1,HAXES,C,old,z,./images/HAXES.png,,,,,,,,,,,,,,,,,,,,,
,,,,,,,,,,,,,,,,,199015,21,2022-01-29_24h08.50.527,lexical_decision_task_DD_L6,2021.2.3,MacIntel,59.99880002,,,,,,,,,,,,0.7922,1,,,,,,,,,,,,,,z,1,0.7922,,,,,,,,0.128927951,-0.406163194,0,0,0,,0,109,109,117,1,STEEG,C,old,z,./images/STEEG.png,,,,,,,,,,,,,,,,,,,,,
,,,,,,,,,,,,,,,,,199015,21,2022-01-29_24h08.50.527,lexical_decision_task_DD_L6,2021.2.3,MacIntel,59.99880002,,,,,,,,,,,,0.791,1,,,,,,,,,,,,,,m,1,0.791,,,,,,,,0.128927951,-0.406163194,0,0,0,,0,110,110,73,1,GLOVE,C,old,m,./images/GLOVE.png,,,,,,,,,,,,,,,,,,,,,
,,,,,,,,,,,,,,,,,199015,21,2022-01-29_24h08.50.527,lexical_decision_task_DD_L6,2021.2.3,MacIntel,59.99880002,,,,,,,,,,,,1.3625,1,,,,,,,,,,,,,,z,1,1.3625,,,,,,,,0.128927951,-0.406163194,0,0,0,,0,111,111,129,1,PRANS,C,old,z,./images/PRANS.png,,,,,,,,,,,,,,,,,,,,,
,,,,,,,,,,,,,,,,,199015,21,2022-01-29_24h08.50.527,lexical_decision_task_DD_L6,2021.2.3,MacIntel,59.99880002,,,,,,,,,,,,0.8723,1,,,,,,,,,,,,,,m,1,0.8723,,,,,,,,0.128927951,-0.406163194,0,0,0,,0,112,112,3,1,CRATER,LB,old,m,./images/CRATERLB.png,,,,,,,,,,,,,,,,,,,,,
,,,,,,,,,,,,,,,,,199015,21,2022-01-29_24h08.50.527,lexical_decision_task_DD_L6,2021.2.3,MacIntel,59.99880002,,,,,,,,,,,,0.6162,1,,,,,,,,,,,,,,m,1,0.6162,,,,,,,,0.128927951,-0.406163194,0,0,0,,0,113,113,1,1,TOWEL,C,old,m,./images/TOWEL.png,,,,,,,,,,,,,,,,,,,,,
,,,,,,,,,,,,,,,,,199015,21,2022-01-29_24h08.50.527,lexical_decision_task_DD_L6,2021.2.3,MacIntel,59.99880002,,,,,,,,,,,,0.774,1,,,,,,,,,,,,,,z,1,0.774,,,,,,,,0.128927951,-0.406163194,0,0,0,,0,114,114,137,1,JOOST,LB,old,z,./images/JOOSTLB.png,,,,,,,,,,,,,,,,,,,,,
,,,,,,,,,,,,,,,,,199015,21,2022-01-29_24h08.50.527,lexical_decision_task_DD_L6,2021.2.3,MacIntel,59.99880002,,,,,,,,,,,,0.9658,1,,,,,,,,,,,,,,z,1,0.9658,,,,,,,,0.128927951,-0.406163194,0,0,0,,0,115,115,86,1,AIFED,LB,old,z,./images/AIFEDLB.png,,,,,,,,,,,,,,,,,,,,,
,,,,,,,,,,,,,,,,,199015,21,2022-01-29_24h08.50.527,lexical_decision_task_DD_L6,2021.2.3,MacIntel,59.99880002,,,,,,,,,,,,0.9986,1,,,,,,,,,,,,,,z,1,0.9986,,,,,,,,0.128927951,-0.406163194,0,0,0,,0,116,116,119,1,PAFER,LB,old,z,./images/PAFERLB.png,,,,,,,,,,,,,,,,,,,,,
,,,,,,,,,,,,,,,,,199015,21,2022-01-29_24h08.50.527,lexical_decision_task_DD_L6,2021.2.3,MacIntel,59.99880002,,,,,,,,,,,,3.1738,0,,,,,,,,,,,,,,m,0,3.1738,,,,,,,,0.128927951,-0.406163194,0,0,0,,0,117,117,156,1,HIXES,C,old,z,./images/HIXES.png,,,,,,,,,,,,,,,,,,,,,
,,,,,,,,,,,,,,,,,199015,21,2022-01-29_24h08.50.527,lexical_decision_task_DD_L6,2021.2.3,MacIntel,59.99880002,,,,,,,,,,,,0.7729,1,,,,,,,,,,,,,,m,1,0.7729,,,,,,,,0.128927951,-0.406163194,0,0,0,,0,118,118,76,1,MIDGET,C,old,m,./images/MIDGET.png,,,,,,,,,,,,,,,,,,,,,
,,,,,,,,,,,,,,,,,199015,21,2022-01-29_24h08.50.527,lexical_decision_task_DD_L6,2021.2.3,MacIntel,59.99880002,,,,,,,,,,,,0.5691,1,,,,,,,,,,,,,,m,1,0.5691,,,,,,,,0.128927951,-0.406163194,0,0,0,,0,119,119,72,1,FLASK,LB,old,m,./images/FLASKLB.png,,,,,,,,,,,,,,,,,,,,,
,,,,,,,,,,,,,,,,,199015,21,2022-01-29_24h08.50.527,lexical_decision_task_DD_L6,2021.2.3,MacIntel,59.99880002,,,,,,,,,,,,0.4244,0,,,,,,,,,,,,,,m,0,0.4244,,,,,,,,0.128927951,-0.406163194,0,0,0,,0,120,120,147,1,ZOLES,C,old,z,./images/ZOLES.png,,,,,,,,,,,,,,,,,,,,,
,,,,,,,,,,,,,,,,,199015,21,2022-01-29_24h08.50.527,lexical_decision_task_DD_L6,2021.2.3,MacIntel,59.99880002,,,,,,,,,,,,0.8475,1,,,,,,,,,,,,,,z,1,0.8475,,,,,,,,0.128927951,-0.406163194,0,0,0,,0,121,121,116,1,BALGY,LB,old,z,./images/BALGYLB.png,,,,,,,,,,,,,,,,,,,,,
,,,,,,,,,,,,,,,,,199015,21,2022-01-29_24h08.50.527,lexical_decision_task_DD_L6,2021.2.3,MacIntel,59.99880002,,,,,,,,,,,,0.6727,1,,,,,,,,,,,,,,m,1,0.6727,,,,,,,,0.128927951,-0.406163194,0,0,0,,0,122,122,70,1,BANANA,C,old,m,./images/BANANA.png,,,,,,,,,,,,,,,,,,,,,
,,,,,,,,,,,,,,,,,199015,21,2022-01-29_24h08.50.527,lexical_decision_task_DD_L6,2021.2.3,MacIntel,59.99880002,,,,,,,,,,,,3.7003,0,,,,,,,,,,,,,,m,0,3.7003,,,,,,,,0.128927951,-0.406163194,0,0,0,,0,123,123,106,1,CLUMS,HB,old,z,./images/CLUMSHB.png,,,,,,,,,,,,,,,,,,,,,
,,,,,,,,,,,,,,,,,199015,21,2022-01-29_24h08.50.527,lexical_decision_task_DD_L6,2021.2.3,MacIntel,59.99880002,,,,,,,,,,,,0.7976,1,,,,,,,,,,,,,,m,1,0.7976,,,,,,,,0.128927951,-0.406163194,0,0,0,,0,124,124,41,1,STREAM,HB,old,m,./images/STREAMHB.png,,,,,,,,,,,,,,,,,,,,,
,,,,,,,,,,,,,,,,,199015,21,2022-01-29_24h08.50.527,lexical_decision_task_DD_L6,2021.2.3,MacIntel,59.99880002,,,,,,,,,,,,0.6502,1,,,,,,,,,,,,,,m,1,0.6502,,,,,,,,0.128927951,-0.406163194,0,0,0,space,0,125,125,42,1,CHAIN,LB,old,m,./images/CHAINLB.png,2.3051,,,,,,,,,,,,,,,,,,,,
,,,,,,,,,,,,,,,,,199015,21,2022-01-29_24h08.50.527,lexical_decision_task_DD_L6,2021.2.3,MacIntel,59.99880002,,,,,,,,,,,,0.8004,1,,,,,,,,,,,,,,m,1,0.8004,,,,,,,,0.128927951,-0.406163194,0,0,0,,0,126,126,6,1,STAIN,LB,old,m,./images/STAINLB.png,,,,,,,,,,,,,,,,,,,,,
,,,,,,,,,,,,,,,,,199015,21,2022-01-29_24h08.50.527,lexical_decision_task_DD_L6,2021.2.3,MacIntel,59.99880002,,,,,,,,,,,,1.0363,1,,,,,,,,,,,,,,z,1,1.0363,,,,,,,,0.128927951,-0.406163194,0,0,0,,0,127,127,125,1,MOOKY,LB,old,z,./images/MOOKYLB.png,,,,,,,,,,,,,,,,,,,,,
,,,,,,,,,,,,,,,,,199015,21,2022-01-29_24h08.50.527,lexical_decision_task_DD_L6,2021.2.3,MacIntel,59.99880002,,,,,,,,,,,,5.4674,1,,,,,,,,,,,,,,z,1,5.4674,,,,,,,,0.128927951,-0.406163194,0,0,0,,0,128,128,139,1,BLEAR,HB,old,z,./images/BLEARHB.png,,,,,,,,,,,,,,,,,,,,,
,,,,,,,,,,,,,,,,,199015,21,2022-01-29_24h08.50.527,lexical_decision_task_DD_L6,2021.2.3,MacIntel,59.99880002,,,,,,,,,,,,0.8072,1,,,,,,,,,,,,,,z,1,0.8072,,,,,,,,0.128927951,-0.406163194,0,0,0,,0,129,129,141,1,PLEET,C,old,z,./images/PLEET.png,,,,,,,,,,,,,,,,,,,,,
,,,,,,,,,,,,,,,,,199015,21,2022-01-29_24h08.50.527,lexical_decision_task_DD_L6,2021.2.3,MacIntel,59.99880002,,,,,,,,,,,,3.097,1,,,,,,,,,,,,,,z,1,3.097,,,,,,,,0.128927951,-0.406163194,0,0,0,,0,130,130,94,1,BLANS,HB,old,z,./images/BLANSHB.png,,,,,,,,,,,,,,,,,,,,,
,,,,,,,,,,,,,,,,,199015,21,2022-01-29_24h08.50.527,lexical_decision_task_DD_L6,2021.2.3,MacIntel,59.99880002,,,,,,,,,,,,0.7523,0,,,,,,,,,,,,,,m,0,0.7523,,,,,,,,0.128927951,-0.406163194,0,0,0,,0,131,131,126,1,GUELS,C,old,z,./images/GUELS.png,,,,,,,,,,,,,,,,,,,,,
,,,,,,,,,,,,,,,,,199015,21,2022-01-29_24h08.50.527,lexical_decision_task_DD_L6,2021.2.3,MacIntel,59.99880002,,,,,,,,,,,,0.7233,1,,,,,,,,,,,,,,m,1,0.7233,,,,,,,,0.128927951,-0.406163194,0,0,0,,0,132,132,54,1,CHERRY,LB,old,m,./images/CHERRYLB.png,,,,,,,,,,,,,,,,,,,,,
,,,,,,,,,,,,,,,,,199015,21,2022-01-29_24h08.50.527,lexical_decision_task_DD_L6,2021.2.3,MacIntel,59.99880002,,,,,,,,,,,,0.724,0,,,,,,,,,,,,,,m,0,0.724,,,,,,,,0.128927951,-0.406163194,0,0,0,,0,133,133,120,1,RINED,C,old,z,./images/RINED.png,,,,,,,,,,,,,,,,,,,,,
,,,,,,,,,,,,,,,,,199015,21,2022-01-29_24h08.50.527,lexical_decision_task_DD_L6,2021.2.3,MacIntel,59.99880002,,,,,,,,,,,,0.9179,1,,,,,,,,,,,,,,m,1,0.9179,,,,,,,,0.128927951,-0.406163194,0,0,0,,0,134,134,59,1,BRUSH,HB,old,m,./images/BRUSHHB.png,,,,,,,,,,,,,,,,,,,,,
,,,,,,,,,,,,,,,,,199015,21,2022-01-29_24h08.50.527,lexical_decision_task_DD_L6,2021.2.3,MacIntel,59.99880002,,,,,,,,,,,,1.488,1,,,,,,,,,,,,,,z,1,1.488,,,,,,,,0.128927951,-0.406163194,0,0,0,,0,135,135,109,1,BURGE,HB,old,z,./images/BURGEHB.png,,,,,,,,,,,,,,,,,,,,,
,,,,,,,,,,,,,,,,,199015,21,2022-01-29_24h08.50.527,lexical_decision_task_DD_L6,2021.2.3,MacIntel,59.99880002,,,,,,,,,,,,0.8828,1,,,,,,,,,,,,,,z,1,0.8828,,,,,,,,0.128927951,-0.406163194,0,0,0,,0,136,136,144,1,NAIRY,C,old,z,./images/NAIRY.png,,,,,,,,,,,,,,,,,,,,,
,,,,,,,,,,,,,,,,,199015,21,2022-01-29_24h08.50.527,lexical_decision_task_DD_L6,2021.2.3,MacIntel,59.99880002,,,,,,,,,,,,1.1447,1,,,,,,,,,,,,,,m,1,1.1447,,,,,,,,0.128927951,-0.406163194,0,0,0,,0,137,137,82,1,PEBBLE,C,old,m,./images/PEBBLE.png,,,,,,,,,,,,,,,,,,,,,
,,,,,,,,,,,,,,,,,199015,21,2022-01-29_24h08.50.527,lexical_decision_task_DD_L6,2021.2.3,MacIntel,59.99880002,,,,,,,,,,,,0.6169,1,,,,,,,,,,,,,,m,1,0.6169,,,,,,,,0.128927951,-0.406163194,0,0,0,,0,138,138,64,1,BRIDE,C,old,m,./images/BRIDE.png,,,,,,,,,,,,,,,,,,,,,
,,,,,,,,,,,,,,,,,199015,21,2022-01-29_24h08.50.527,lexical_decision_task_DD_L6,2021.2.3,MacIntel,59.99880002,,,,,,,,,,,,1.6016,1,,,,,,,,,,,,,,z,1,1.6016,,,,,,,,0.128927951,-0.406163194,0,0,0,,0,139,139,92,1,PAIMS,LB,old,z,./images/PAIMSLB.png,,,,,,,,,,,,,,,,,,,,,
,,,,,,,,,,,,,,,,,199015,21,2022-01-29_24h08.50.527,lexical_decision_task_DD_L6,2021.2.3,MacIntel,59.99880002,,,,,,,,,,,,1.175,1,,,,,,,,,,,,,,z,1,1.175,,,,,,,,0.128927951,-0.406163194,0,0,0,,0,140,140,96,1,KEAMS,C,old,z,./images/KEAMS.png,,,,,,,,,,,,,,,,,,,,,
,,,,,,,,,,,,,,,,,199015,21,2022-01-29_24h08.50.527,lexical_decision_task_DD_L6,2021.2.3,MacIntel,59.99880002,,,,,,,,,,,,3.0513,1,,,,,,,,,,,,,,z,1,3.0513,,,,,,,,0.128927951,-0.406163194,0,0,0,,0,141,141,100,1,DRIBS,HB,old,z,./images/DRIBSHB.png,,,,,,,,,,,,,,,,,,,,,
,,,,,,,,,,,,,,,,,199015,21,2022-01-29_24h08.50.527,lexical_decision_task_DD_L6,2021.2.3,MacIntel,59.99880002,,,,,,,,,,,,0.583,1,,,,,,,,,,,,,,m,1,0.583,,,,,,,,0.128927951,-0.406163194,0,0,0,,0,142,142,45,1,MONKEY,LB,old,m,./images/MONKEYLB.png,,,,,,,,,,,,,,,,,,,,,
,,,,,,,,,,,,,,,,,199015,21,2022-01-29_24h08.50.527,lexical_decision_task_DD_L6,2021.2.3,MacIntel,59.99880002,,,,,,,,,,,,1.0869,1,,,,,,,,,,,,,,z,1,1.0869,,,,,,,,0.128927951,-0.406163194,0,0,0,,0,143,143,95,1,HANTY,LB,old,z,./images/HANTYLB.png,,,,,,,,,,,,,,,,,,,,,
,,,,,,,,,,,,,,,,,199015,21,2022-01-29_24h08.50.527,lexical_decision_task_DD_L6,2021.2.3,MacIntel,59.99880002,,,,,,,,,,,,6.1351,1,,,,,,,,,,,,,,z,1,6.1351,,,,,,,,0.128927951,-0.406163194,0,0,0,,0,144,144,101,1,GLEET,LB,old,z,./images/GLEETLB.png,,,,,,,,,,,,,,,,,,,,,
,,,,,,,,,,,,,,,,,199015,21,2022-01-29_24h08.50.527,lexical_decision_task_DD_L6,2021.2.3,MacIntel,59.99880002,,,,,,,,,,,,4.8336,1,,,,,,,,,,,,,,z,1,4.8336,,,,,,,,0.128927951,-0.406163194,0,0,0,,0,145,145,146,1,MOOST,LB,old,z,./images/MOOSTLB.png,,,,,,,,,,,,,,,,,,,,,
,,,,,,,,,,,,,,,,,199015,21,2022-01-29_24h08.50.527,lexical_decision_task_DD_L6,2021.2.3,MacIntel,59.99880002,,,,,,,,,,,,2.3248,1,,,,,,,,,,,,,,m,1,2.3248,,,,,,,,0.128927951,-0.406163194,0,0,0,,0,146,146,58,1,CANOE,C,old,m,./images/CANOE.png,,,,,,,,,,,,,,,,,,,,,
,,,,,,,,,,,,,,,,,199015,21,2022-01-29_24h08.50.527,lexical_decision_task_DD_L6,2021.2.3,MacIntel,59.99880002,,,,,,,,,,,,1.3256,1,,,,,,,,,,,,,,z,1,1.3256,,,,,,,,0.128927951,-0.406163194,0,0,0,,0,147,147,115,1,MAWNS,HB,old,z,./images/MAWNSHB.png,,,,,,,,,,,,,,,,,,,,,
,,,,,,,,,,,,,,,,,199015,21,2022-01-29_24h08.50.527,lexical_decision_task_DD_L6,2021.2.3,MacIntel,59.99880002,,,,,,,,,,,,1.8052,1,,,,,,,,,,,,,,m,1,1.8052,,,,,,,,0.128927951,-0.406163194,0,0,0,,0,148,148,65,1,SPINE,HB,old,m,./images/SPINEHB.png,,,,,,,,,,,,,,,,,,,,,
,,,,,,,,,,,,,,,,,199015,21,2022-01-29_24h08.50.527,lexical_decision_task_DD_L6,2021.2.3,MacIntel,59.99880002,,,,,,,,,,,,2.2171,0,,,,,,,,,,,,,,m,0,2.2171,,,,,,,,0.128927951,-0.406163194,0,0,0,,0,149,149,85,1,CHULK,HB,old,z,./images/CHULKHB.png,,,,,,,,,,,,,,,,,,,,,
,,,,,,,,,,,,,,,,,199015,21,2022-01-29_24h08.50.527,lexical_decision_task_DD_L6,2021.2.3,MacIntel,59.99880002,,,,,,,,,,,,1.4036,1,,,,,,,,,,,,,,m,1,1.4036,,,,,,,,0.128927951,-0.406163194,0,0,0,,0,150,150,38,1,ENGINE,HB,old,m,./images/ENGINEHB.png,,,,,,,,,,,,,,,,,,,,,
,,,,,,,,,,,,,,,,,199015,21,2022-01-29_24h08.50.527,lexical_decision_task_DD_L6,2021.2.3,MacIntel,59.99880002,,,,,,,,,,,,0.8045,0,,,,,,,,,,,,,,m,0,0.8045,,,,,,,,0.128927951,-0.406163194,0,0,0,,0,151,151,161,1,BLAPS,LB,old,z,./images/BLAPSLB.png,,,,,,,,,,,,,,,,,,,,,
,,,,,,,,,,,,,,,,,199015,21,2022-01-29_24h08.50.527,lexical_decision_task_DD_L6,2021.2.3,MacIntel,59.99880002,,,,,,,,,,,,0.7315,1,,,,,,,,,,,,,,m,1,0.7315,,,,,,,,0.128927951,-0.406163194,0,0,0,,0,152,152,2,1,STOVE,HB,old,m,./images/STOVEHB.png,,,,,,,,,,,,,,,,,,,,,
,,,,,,,,,,,,,,,,,199015,21,2022-01-29_24h08.50.527,lexical_decision_task_DD_L6,2021.2.3,MacIntel,59.99880002,,,,,,,,,,,,0.8498,1,,,,,,,,,,,,,,m,1,0.8498,,,,,,,,0.128927951,-0.406163194,0,0,0,,0,153,153,17,1,PARADE,HB,old,m,./images/PARADEHB.png,,,,,,,,,,,,,,,,,,,,,
,,,,,,,,,,,,,,,,,199015,21,2022-01-29_24h08.50.527,lexical_decision_task_DD_L6,2021.2.3,MacIntel,59.99880002,,,,,,,,,,,,0.8981,1,,,,,,,,,,,,,,m,1,0.8981,,,,,,,,0.128927951,-0.406163194,0,0,0,,0,154,154,60,1,CURRY,LB,old,m,./images/CURRYLB.png,,,,,,,,,,,,,,,,,,,,,
,,,,,,,,,,,,,,,,,199015,21,2022-01-29_24h08.50.527,lexical_decision_task_DD_L6,2021.2.3,MacIntel,59.99880002,,,,,,,,,,,,0.6387,1,,,,,,,,,,,,,,m,1,0.6387,,,,,,,,0.128927951,-0.406163194,0,0,0,,0,155,155,10,1,GARDEN,C,old,m,./images/GARDEN.png,,,,,,,,,,,,,,,,,,,,,
,,,,,,,,,,,,,,,,,199015,21,2022-01-29_24h08.50.527,lexical_decision_task_DD_L6,2021.2.3,MacIntel,59.99880002,,,,,,,,,,,,1.534,1,,,,,,,,,,,,,,z,1,1.534,,,,,,,,0.128927951,-0.406163194,0,0,0,,0,156,156,98,1,BAMPS,LB,old,z,./images/BAMPSLB.png,,,,,,,,,,,,,,,,,,,,,
,,,,,,,,,,,,,,,,,199015,21,2022-01-29_24h08.50.527,lexical_decision_task_DD_L6,2021.2.3,MacIntel,59.99880002,,,,,,,,,,,,3.4677,1,,,,,,,,,,,,,,z,1,3.4677,,,,,,,,0.128927951,-0.406163194,0,0,0,,0,157,157,104,1,GITTY,LB,old,z,./images/GITTYLB.png,,,,,,,,,,,,,,,,,,,,,
,,,,,,,,,,,,,,,,,199015,21,2022-01-29_24h08.50.527,lexical_decision_task_DD_L6,2021.2.3,MacIntel,59.99880002,,,,,,,,,,,,0.8826,1,,,,,,,,,,,,,,m,1,0.8826,,,,,,,,0.128927951,-0.406163194,0,0,0,,0,158,158,11,1,MEDAL,HB,old,m,./images/MEDALHB.png,,,,,,,,,,,,,,,,,,,,,
,,,,,,,,,,,,,,,,,199015,21,2022-01-29_24h08.50.527,lexical_decision_task_DD_L6,2021.2.3,MacIntel,59.99880002,,,,,,,,,,,,4.0818,1,,,,,,,,,,,,,,z,1,4.0818,,,,,,,,0.128927951,-0.406163194,0,0,0,,0,159,159,158,1,EGECT,LB,old,z,./images/EGECTLB.png,,,,,,,,,,,,,,,,,,,,,
,,,,,,,,,,,,,,,,,199015,21,2022-01-29_24h08.50.527,lexical_decision_task_DD_L6,2021.2.3,MacIntel,59.99880002,,,,,,,,,,,,1.4727,1,,,,,,,,,,,,,,m,1,1.4727,,,,,,,,0.128927951,-0.406163194,0,0,0,,0,160,160,51,1,SAUCE,LB,old,m,./images/SAUCELB.png,,,,,,,,,,,,,,,,,,,,,
,,,,,,,,,,,,,,,,,199015,21,2022-01-29_24h08.50.527,lexical_decision_task_DD_L6,2021.2.3,MacIntel,59.99880002,,,,,,,,,,,,0.9749,1,,,,,,,,,,,,,,m,1,0.9749,,,,,,,,0.128927951,-0.406163194,0,0,0,,0,161,161,22,1,CLOWN,C,old,m,./images/CLOWN.png,,,,,,,,,,,,,,,,,,,,,
,,,,,,,,,,,,,,,,,199015,21,2022-01-29_24h08.50.527,lexical_decision_task_DD_L6,2021.2.3,MacIntel,59.99880002,,,,,,,,,,,,1.1378,1,,,,,,,,,,,,,,z,1,1.1378,,,,,,,,0.128927951,-0.406163194,0,0,0,,0,162,162,114,1,RIKES,C,old,z,./images/RIKES.png,,,,,,,,,,,,,,,,,,,,,
,,,,,,,,,,,,,,,,,199015,21,2022-01-29_24h08.50.527,lexical_decision_task_DD_L6,2021.2.3,MacIntel,59.99880002,,,,,,,,,,,,0.5527,1,,,,,,,,,,,,,,m,1,0.5527,,,,,,,,0.128927951,-0.406163194,0,0,0,,0,163,163,69,1,ARROW,LB,old,m,./images/ARROWLB.png,,,,,,,,,,,,,,,,,,,,,
,,,,,,,,,,,,,,,,,199015,21,2022-01-29_24h08.50.527,lexical_decision_task_DD_L6,2021.2.3,MacIntel,59.99880002,,,,,,,,,,,,0.8125,1,,,,,,,,,,,,,,m,1,0.8125,,,,,,,,0.128927951,-0.406163194,0,0,0,,0,164,164,35,1,LLAMA,HB,old,m,./images/LLAMAHB.png,,,,,,,,,,,,,,,,,,,,,
,,,,,,,,,,,,,,,,,199015,21,2022-01-29_24h08.50.527,lexical_decision_task_DD_L6,2021.2.3,MacIntel,59.99880002,,,,,,,,,,,,1.2587,1,,,,,,,,,,,,,,m,1,1.2587,,,,,,,,0.128927951,-0.406163194,0,0,0,,0,165,165,31,1,STEAK,C,old,m,./images/STEAK.png,,,,,,,,,,,,,,,,,,,,,
,,,,,,,,,,,,,,,,,199015,21,2022-01-29_24h08.50.527,lexical_decision_task_DD_L6,2021.2.3,MacIntel,59.99880002,,,,,,,,,,,,1.9567,1,,,,,,,,,,,,,,m,1,1.9567,,,,,,,,0.128927951,-0.406163194,0,0,0,,0,166,166,5,1,BAMBOO,HB,old,m,./images/BAMBOOHB.png,,,,,,,,,,,,,,,,,,,,,
,,,,,,,,,,,,,,,,,199015,21,2022-01-29_24h08.50.527,lexical_decision_task_DD_L6,2021.2.3,MacIntel,59.99880002,,,,,,,,,,,,0.7679,1,,,,,,,,,,,,,,m,1,0.7679,,,,,,,,0.128927951,-0.406163194,0,0,0,,0,167,167,67,1,POKER,C,old,m,./images/POKER.png,,,,,,,,,,,,,,,,,,,,,
space,0.128927951,-0.406163194,0,0,0,,,,,,,1,test,"In the next phase you will be presented with the words from the the first phase. Your job is to decide whether you remember seeing the word or not. If you remember seeing the word press ""old"" or type ""m"". If you do not remember seeing the word press ""new"" or type ""z"". Please press the space bar or click on continue to begin. ",,,199015,21,2022-01-29_24h08.50.527,lexical_decision_task_DD_L6,2021.2.3,MacIntel,59.99880002,0.941,,,,,,,,,,,,,,,,,,,,,,,,,,,,,,,,,,,,,,,,,,,,,,,,,,,,,0,0,0,0,1,,,,,,,,,,,,,,,
space,0.128927951,-0.406163194,0,0,0,,,,,,,1,test,"In the next phase you will be presented with the words from the the first phase. Your job is to decide whether you remember seeing the word or not. If you remember seeing the word press ""old"" or type ""m"". If you do not remember seeing the word press ""new"" or type ""z"". Please press the space bar or click on continue to begin. ",,,199015,21,2022-01-29_24h08.50.527,lexical_decision_task_DD_L6,2021.2.3,MacIntel,59.99880002,0.5529,,,,,,,,,,,,,,,,,,,,,,,,,,,,,,,,,,,,,,,,,,,,,,,,,,,,,1,0,1,0,1,,,,,,,,,,,,,,,
space,0.128927951,-0.406163194,0,0,0,,,,,,,1,test,"In the next phase you will be presented with the words from the the first phase. Your job is to decide whether you remember seeing the word or not. If you remember seeing the word press ""old"" or type ""m"". If you do not remember seeing the word press ""new"" or type ""z"". Please press the space bar or click on continue to begin. ",,,199015,21,2022-01-29_24h08.50.527,lexical_decision_task_DD_L6,2021.2.3,MacIntel,59.99880002,1.0382,,,,,,,,,,,,,,,,,,,,,,,,,,,,,,,,,,,,,,,,,,,,,,,,,,,,,2,0,2,0,1,,,,,,,,,,,,,,,
space,0.122669271,-0.388736979,0,0,0,,,,,,,1,test,"In the next phase you will be presented with the words from the the first phase. Your job is to decide whether you remember seeing the word or not. If you remember seeing the word press ""old"" or type ""m"". If you do not remember seeing the word press ""new"" or type ""z"". Please press the space bar or click on continue to begin. ",,,199015,21,2022-01-29_24h08.50.527,lexical_decision_task_DD_L6,2021.2.3,MacIntel,59.99880002,3.1019,,,,,,,,,,,,,,,,,,,,,,,,,,,,,,,,,,,,,,,,,,,,,,,,,,,,,3,0,3,0,1,,,,,,,,,,,,,,,
,0.122408854,-0.388997396,1,0,0,instr_done_button,,,,,,1,test,"In the next phase you will be presented with the words from the the first phase. Your job is to decide whether you remember seeing the word or not. If you remember seeing the word press ""old"" or type ""m"". If you do not remember seeing the word press ""new"" or type ""z"". Please press the space bar or click on continue to begin. ",,,199015,21,2022-01-29_24h08.50.527,lexical_decision_task_DD_L6,2021.2.3,MacIntel,59.99880002,,,,,,,,,,,,,,,,,,,,,,,,,,,,,,,,,,,,,,,,,,,,,,,,,,,,,,4,0,4,0,1,,,,,,,,,,,,,,,
,,,,,,,,,,,,,,,,,199015,21,2022-01-29_24h08.50.527,lexical_decision_task_DD_L6,2021.2.3,MacIntel,59.99880002,,,,,,,,,,,,7.0694,1,,,,,,,,,,,,,,,,,,,,,,,,0.121289063,-0.378671875,0,0,0,,,,,,,GARDEN,C,m,y,./images/GARDEN.png,,,,,,,m,1,7.0694,,,,,,,,0,0,0,10,1
,,,,,,,,,,,,,,,,,199015,21,2022-01-29_24h08.50.527,lexical_decision_task_DD_L6,2021.2.3,MacIntel,59.99880002,,,,,,,,,,,,2.4105,1,,,,,,,,,,,,,,,,,,,,,,,,0.121289063,-0.378671875,0,0,0,,,,,,,CHALK,C,m,y,./images/CHALK.png,,,,,,,m,1,2.4105,,,,,,,,0,1,1,25,1
,,,,,,,,,,,,,,,,,199015,21,2022-01-29_24h08.50.527,lexical_decision_task_DD_L6,2021.2.3,MacIntel,59.99880002,,,,,,,,,,,,1.0259,1,,,,,,,,,,,,,,,,,,,,,,,,0.121289063,-0.378671875,0,0,0,,,,,,,SNAKE,C,m,y,./images/SNAKE.png,,,,,,,m,1,1.0259,,,,,,,,0,2,2,40,1
,,,,,,,,,,,,,,,,,199015,21,2022-01-29_24h08.50.527,lexical_decision_task_DD_L6,2021.2.3,MacIntel,59.99880002,,,,,,,,,,,,0.8474,0,,,,,,,,,,,,,,,,,,,,,,,,0.121289063,-0.378671875,0,0,0,,,,,,,GRAIN,LB,z,y,./images/GRAINLB.png,,,,,,,m,0,0.8474,,,,,,,,0,3,3,159,1
,,,,,,,,,,,,,,,,,199015,21,2022-01-29_24h08.50.527,lexical_decision_task_DD_L6,2021.2.3,MacIntel,59.99880002,,,,,,,,,,,,0.6202,1,,,,,,,,,,,,,,,,,,,,,,,,0.121289063,-0.378671875,0,0,0,,,,,,,POKER,C,m,y,./images/POKER.png,,,,,,,m,1,0.6202,,,,,,,,0,4,4,67,1
,,,,,,,,,,,,,,,,,199015,21,2022-01-29_24h08.50.527,lexical_decision_task_DD_L6,2021.2.3,MacIntel,59.99880002,,,,,,,,,,,,1.1149,1,,,,,,,,,,,,,,,,,,,,,,,,0.121289063,-0.378671875,0,0,0,,,,,,,CURRY,LB,m,y,./images/CURRYLB.png,,,,,,,m,1,1.1149,,,,,,,,0,5,5,60,1
,,,,,,,,,,,,,,,,,199015,21,2022-01-29_24h08.50.527,lexical_decision_task_DD_L6,2021.2.3,MacIntel,59.99880002,,,,,,,,,,,,1.0781,0,,,,,,,,,,,,,,,,,,,,,,,,0.121289063,-0.378671875,0,0,0,,,,,,,MOOSE,LB,z,y,./images/MOOSELB.png,,,,,,,m,0,1.0781,,,,,,,,0,6,6,141,1
,,,,,,,,,,,,,,,,,199015,21,2022-01-29_24h08.50.527,lexical_decision_task_DD_L6,2021.2.3,MacIntel,59.99880002,,,,,,,,,,,,0.764,1,,,,,,,,,,,,,,,,,,,,,,,,0.121289063,-0.378671875,0,0,0,,,,,,,STATUE,LB,m,y,./images/STATUELB.png,,,,,,,m,1,0.764,,,,,,,,0,7,7,66,1
,,,,,,,,,,,,,,,,,199015,21,2022-01-29_24h08.50.527,lexical_decision_task_DD_L6,2021.2.3,MacIntel,59.99880002,,,,,,,,,,,,0.6199,0,,,,,,,,,,,,,,,,,,,,,,,,0.121289063,-0.378671875,0,0,0,,,,,,,SUNSET,C,z,y,./images/SUNSET.png,,,,,,,m,0,0.6199,,,,,,,,0,8,8,166,1
,,,,,,,,,,,,,,,,,199015,21,2022-01-29_24h08.50.527,lexical_decision_task_DD_L6,2021.2.3,MacIntel,59.99880002,,,,,,,,,,,,1.8328,0,,,,,,,,,,,,,,,,,,,,,,,,0.121289063,-0.378671875,0,0,0,,,,,,,NOOSE,LB,z,y,./images/NOOSELB.png,,,,,,,m,0,1.8328,,,,,,,,0,9,9,156,1
,,,,,,,,,,,,,,,,,199015,21,2022-01-29_24h08.50.527,lexical_decision_task_DD_L6,2021.2.3,MacIntel,59.99880002,,,,,,,,,,,,1.9991,1,,,,,,,,,,,,,,,,,,,,,,,,0.121289063,-0.378671875,0,0,0,,,,,,,FLESH,LB,m,y,./images/FLESHLB.png,,,,,,,m,1,1.9991,,,,,,,,0,10,10,24,1
,,,,,,,,,,,,,,,,,199015,21,2022-01-29_24h08.50.527,lexical_decision_task_DD_L6,2021.2.3,MacIntel,59.99880002,,,,,,,,,,,,0.8496,0,,,,,,,,,,,,,,,,,,,,,,,,0.121289063,-0.378671875,0,0,0,,,,,,,CANDLE,C,z,y,./images/CANDLE.png,,,,,,,m,0,0.8496,,,,,,,,0,11,11,145,1
,,,,,,,,,,,,,,,,,199015,21,2022-01-29_24h08.50.527,lexical_decision_task_DD_L6,2021.2.3,MacIntel,59.99880002,,,,,,,,,,,,0.5794,1,,,,,,,,,,,,,,,,,,,,,,,,0.121289063,-0.378671875,0,0,0,,,,,,,FLASK,LB,m,y,./images/FLASKLB.png,,,,,,,m,1,0.5794,,,,,,,,0,12,12,72,1
,,,,,,,,,,,,,,,,,199015,21,2022-01-29_24h08.50.527,lexical_decision_task_DD_L6,2021.2.3,MacIntel,59.99880002,,,,,,,,,,,,0.6641,1,,,,,,,,,,,,,,,,,,,,,,,,0.121289063,-0.378671875,0,0,0,,,,,,,BOILER,LB,m,y,./images/BOILERLB.png,,,,,,,m,1,0.6641,,,,,,,,0,13,13,36,1
,,,,,,,,,,,,,,,,,199015,21,2022-01-29_24h08.50.527,lexical_decision_task_DD_L6,2021.2.3,MacIntel,59.99880002,,,,,,,,,,,,0.8176,0,,,,,,,,,,,,,,,,,,,,,,,,0.121289063,-0.378671875,0,0,0,,,,,,,MOTOR,C,z,y,./images/MOTOR.png,,,,,,,m,0,0.8176,,,,,,,,0,14,14,97,1
,,,,,,,,,,,,,,,,,199015,21,2022-01-29_24h08.50.527,lexical_decision_task_DD_L6,2021.2.3,MacIntel,59.99880002,,,,,,,,,,,,0.8396,0,,,,,,,,,,,,,,,,,,,,,,,,0.121289063,-0.378671875,0,0,0,,,,,,,DRUMS,C,z,y,./images/DRUMS.png,,,,,,,m,0,0.8396,,,,,,,,0,15,15,133,1
,,,,,,,,,,,,,,,,,199015,21,2022-01-29_24h08.50.527,lexical_decision_task_DD_L6,2021.2.3,MacIntel,59.99880002,,,,,,,,,,,,2.2518,0,,,,,,,,,,,,,,,,,,,,,,,,0.121289063,-0.378671875,0,0,0,,,,,,,BABOON,C,z,y,./images/BABOON.png,,,,,,,m,0,2.2518,,,,,,,,0,16,16,142,1
,,,,,,,,,,,,,,,,,199015,21,2022-01-29_24h08.50.527,lexical_decision_task_DD_L6,2021.2.3,MacIntel,59.99880002,,,,,,,,,,,,0.9339,1,,,,,,,,,,,,,,,,,,,,,,,,0.121289063,-0.378671875,0,0,0,,,,,,,MIDGET,C,m,y,./images/MIDGET.png,,,,,,,m,1,0.9339,,,,,,,,0,17,17,76,1
,,,,,,,,,,,,,,,,,199015,21,2022-01-29_24h08.50.527,lexical_decision_task_DD_L6,2021.2.3,MacIntel,59.99880002,,,,,,,,,,,,0.7673,1,,,,,,,,,,,,,,,,,,,,,,,,0.121289063,-0.378671875,0,0,0,,,,,,,LAGOON,HB,m,y,./images/LAGOONHB.png,,,,,,,m,1,0.7673,,,,,,,,0,18,18,47,1
,,,,,,,,,,,,,,,,,199015,21,2022-01-29_24h08.50.527,lexical_decision_task_DD_L6,2021.2.3,MacIntel,59.99880002,,,,,,,,,,,,0.7842,1,,,,,,,,,,,,,,,,,,,,,,,,0.121289063,-0.378671875,0,0,0,,,,,,,ARROW,LB,m,y,./images/ARROWLB.png,,,,,,,m,1,0.7842,,,,,,,,0,19,19,69,1
,,,,,,,,,,,,,,,,,199015,21,2022-01-29_24h08.50.527,lexical_decision_task_DD_L6,2021.2.3,MacIntel,59.99880002,,,,,,,,,,,,0.6397,0,,,,,,,,,,,,,,,,,,,,,,,,0.121289063,-0.378671875,0,0,0,,,,,,,PEACH,HB,z,y,./images/PEACHHB.png,,,,,,,m,0,0.6397,,,,,,,,0,20,20,119,1
,,,,,,,,,,,,,,,,,199015,21,2022-01-29_24h08.50.527,lexical_decision_task_DD_L6,2021.2.3,MacIntel,59.99880002,,,,,,,,,,,,0.4856,0,,,,,,,,,,,,,,,,,,,,,,,,0.121289063,-0.378671875,0,0,0,,,,,,,STORM,LB,z,y,./images/STORMLB.png,,,,,,,m,0,0.4856,,,,,,,,0,21,21,114,1
,,,,,,,,,,,,,,,,,199015,21,2022-01-29_24h08.50.527,lexical_decision_task_DD_L6,2021.2.3,MacIntel,59.99880002,,,,,,,,,,,,0.5509,0,,,,,,,,,,,,,,,,,,,,,,,,0.121289063,-0.378671875,0,0,0,,,,,,,CRADLE,HB,z,y,./images/CRADLEHB.png,,,,,,,m,0,0.5509,,,,,,,,0,22,22,104,1
,,,,,,,,,,,,,,,,,199015,21,2022-01-29_24h08.50.527,lexical_decision_task_DD_L6,2021.2.3,MacIntel,59.99880002,,,,,,,,,,,,1.1161,0,,,,,,,,,,,,,,,,,,,,,,,,0.121289063,-0.378671875,0,0,0,,,,,,,SKIING,HB,z,y,./images/SKIINGHB.png,,,,,,,m,0,1.1161,,,,,,,,0,23,23,101,1
,,,,,,,,,,,,,,,,,199015,21,2022-01-29_24h08.50.527,lexical_decision_task_DD_L6,2021.2.3,MacIntel,59.99880002,,,,,,,,,,,,1.1031,1,,,,,,,,,,,,,,,,,,,,,,,,0.121289063,-0.378671875,0,0,0,,,,,,,DESERT,C,m,y,./images/DESERT.png,,,,,,,m,1,1.1031,,,,,,,,0,24,24,52,1
,,,,,,,,,,,,,,,,,199015,21,2022-01-29_24h08.50.527,lexical_decision_task_DD_L6,2021.2.3,MacIntel,59.99880002,,,,,,,,,,,,0.7493,0,,,,,,,,,,,,,,,,,,,,,,,,0.121289063,-0.378671875,0,0,0,,,,,,,BIRTH,C,z,y,./images/BIRTH.png,,,,,,,m,0,0.7493,,,,,,,,0,25,25,121,1
,,,,,,,,,,,,,,,,,199015,21,2022-01-29_24h08.50.527,lexical_decision_task_DD_L6,2021.2.3,MacIntel,59.99880002,,,,,,,,,,,,1.6076,1,,,,,,,,,,,,,,,,,,,,,,,,0.121289063,-0.378671875,0,0,0,,,,,,,BISHOP,C,m,y,./images/BISHOP.png,,,,,,,m,1,1.6076,,,,,,,,0,26,26,49,1
,,,,,,,,,,,,,,,,,199015,21,2022-01-29_24h08.50.527,lexical_decision_task_DD_L6,2021.2.3,MacIntel,59.99880002,,,,,,,,,,,,0.7314,1,,,,,,,,,,,,,,,,,,,,,,,,0.121289063,-0.378671875,0,0,0,,,,,,,RAZOR,C,m,y,./images/RAZOR.png,,,,,,,m,1,0.7314,,,,,,,,0,27,27,34,1
,,,,,,,,,,,,,,,,,199015,21,2022-01-29_24h08.50.527,lexical_decision_task_DD_L6,2021.2.3,MacIntel,59.99880002,,,,,,,,,,,,0.7956,0,,,,,,,,,,,,,,,,,,,,,,,,0.121289063,-0.378671875,0,0,0,,,,,,,CRUST,C,z,y,./images/CRUST.png,,,,,,,m,0,0.7956,,,,,,,,0,28,28,163,1
,,,,,,,,,,,,,,,,,199015,21,2022-01-29_24h08.50.527,lexical_decision_task_DD_L6,2021.2.3,MacIntel,59.99880002,,,,,,,,,,,,0.7864,0,,,,,,,,,,,,,,,,,,,,,,,,0.121289063,-0.378671875,0,0,0,,,,,,,BELLY,C,z,y,./images/BELLY.png,,,,,,,m,0,0.7864,,,,,,,,0,29,29,94,1
,,,,,,,,,,,,,,,,,199015,21,2022-01-29_24h08.50.527,lexical_decision_task_DD_L6,2021.2.3,MacIntel,59.99880002,,,,,,,,,,,,0.8826,0,,,,,,,,,,,,,,,,,,,,,,,,0.121289063,-0.378671875,0,0,0,,,,,,,CEMENT,HB,z,y,./images/CEMENTHB.png,,,,,,,m,0,0.8826,,,,,,,,0,30,30,158,1
,,,,,,,,,,,,,,,,,199015,21,2022-01-29_24h08.50.527,lexical_decision_task_DD_L6,2021.2.3,MacIntel,59.99880002,,,,,,,,,,,,0.6229,1,,,,,,,,,,,,,,,,,,,,,,,,0.121289063,-0.378671875,0,0,0,,,,,,,CASINO,C,m,y,./images/CASINO.png,,,,,,,m,1,0.6229,,,,,,,,0,31,31,28,1
,,,,,,,,,,,,,,,,,199015,21,2022-01-29_24h08.50.527,lexical_decision_task_DD_L6,2021.2.3,MacIntel,59.99880002,,,,,,,,,,,,1.3188,1,,,,,,,,,,,,,,,,,,,,,,,,0.121289063,-0.378671875,0,0,0,,,,,,,PENCE,C,z,y,./images/PENCE.png,,,,,,,z,1,1.3188,,,,,,,,0,32,32,100,1
,,,,,,,,,,,,,,,,,199015,21,2022-01-29_24h08.50.527,lexical_decision_task_DD_L6,2021.2.3,MacIntel,59.99880002,,,,,,,,,,,,0.9352,0,,,,,,,,,,,,,,,,,,,,,,,,0.121289063,-0.378671875,0,0,0,,,,,,,CARPET,HB,z,y,./images/CARPETHB.png,,,,,,,m,0,0.9352,,,,,,,,0,33,33,137,1
,,,,,,,,,,,,,,,,,199015,21,2022-01-29_24h08.50.527,lexical_decision_task_DD_L6,2021.2.3,MacIntel,59.99880002,,,,,,,,,,,,1.0291,0,,,,,,,,,,,,,,,,,,,,,,,,0.121289063,-0.378671875,0,0,0,,,,,,,JAGUAR,LB,z,y,./images/JAGUARLB.png,,,,,,,m,0,1.0291,,,,,,,,0,34,34,102,1
,,,,,,,,,,,,,,,,,199015,21,2022-01-29_24h08.50.527,lexical_decision_task_DD_L6,2021.2.3,MacIntel,59.99880002,,,,,,,,,,,,0.5375,1,,,,,,,,,,,,,,,,,,,,,,,,0.121289063,-0.378671875,0,0,0,,,,,,,DANCER,LB,m,y,./images/DANCERLB.png,,,,,,,m,1,0.5375,,,,,,,,0,35,35,21,1
,,,,,,,,,,,,,,,,,199015,21,2022-01-29_24h08.50.527,lexical_decision_task_DD_L6,2021.2.3,MacIntel,59.99880002,,,,,,,,,,,,0.5217,1,,,,,,,,,,,,,,,,,,,,,,,,0.121289063,-0.378671875,0,0,0,,,,,,,MONKEY,LB,m,y,./images/MONKEYLB.png,,,,,,,m,1,0.5217,,,,,,,,0,36,36,45,1
,,,,,,,,,,,,,,,,,199015,21,2022-01-29_24h08.50.527,lexical_decision_task_DD_L6,2021.2.3,MacIntel,59.99880002,,,,,,,,,,,,1.0231,0,,,,,,,,,,,,,,,,,,,,,,,,0.121289063,-0.378671875,0,0,0,,,,,,,SWEAT,LB,z,y,./images/SWEATLB.png,,,,,,,m,0,1.0231,,,,,,,,0,37,37,150,1
,,,,,,,,,,,,,,,,,199015,21,2022-01-29_24h08.50.527,lexical_decision_task_DD_L6,2021.2.3,MacIntel,59.99880002,,,,,,,,,,,,0.9378,1,,,,,,,,,,,,,,,,,,,,,,,,0.121289063,-0.378671875,0,0,0,,,,,,,PEBBLE,C,m,y,./images/PEBBLE.png,,,,,,,m,1,0.9378,,,,,,,,0,38,38,82,1
,,,,,,,,,,,,,,,,,199015,21,2022-01-29_24h08.50.527,lexical_decision_task_DD_L6,2021.2.3,MacIntel,59.99880002,,,,,,,,,,,,0.6512,1,,,,,,,,,,,,,,,,,,,,,,,,0.121289063,-0.378671875,0,0,0,,,,,,,PISTOL,HB,m,y,./images/PISTOLHB.png,,,,,,,m,1,0.6512,,,,,,,,0,39,39,29,1
,,,,,,,,,,,,,,,,,199015,21,2022-01-29_24h08.50.527,lexical_decision_task_DD_L6,2021.2.3,MacIntel,59.99880002,,,,,,,,,,,,0.5686,0,,,,,,,,,,,,,,,,,,,,,,,,0.121289063,-0.378671875,0,0,0,,,,,,,JELLY,C,z,y,./images/JELLY.png,,,,,,,m,0,0.5686,,,,,,,,0,40,40,148,1
,,,,,,,,,,,,,,,,,199015,21,2022-01-29_24h08.50.527,lexical_decision_task_DD_L6,2021.2.3,MacIntel,59.99880002,,,,,,,,,,,,0.5006,0,,,,,,,,,,,,,,,,,,,,,,,,0.121289063,-0.378671875,0,0,0,space,,,,,,PAINT,C,z,y,./images/PAINT.png,3.0232,,,,,,m,0,0.5006,,,,,,,,0,41,41,91,1
,,,,,,,,,,,,,,,,,199015,21,2022-01-29_24h08.50.527,lexical_decision_task_DD_L6,2021.2.3,MacIntel,59.99880002,,,,,,,,,,,,1.1652,0,,,,,,,,,,,,,,,,,,,,,,,,0.121289063,-0.378671875,0,0,0,,,,,,,TORCH,HB,z,y,./images/TORCHHB.png,,,,,,,m,0,1.1652,,,,,,,,0,42,42,152,1
,,,,,,,,,,,,,,,,,199015,21,2022-01-29_24h08.50.527,lexical_decision_task_DD_L6,2021.2.3,MacIntel,59.99880002,,,,,,,,,,,,0.5338,1,,,,,,,,,,,,,,,,,,,,,,,,0.121289063,-0.378671875,0,0,0,,,,,,,GRAPE,C,m,y,./images/GRAPE.png,,,,,,,m,1,0.5338,,,,,,,,0,43,43,16,1
,,,,,,,,,,,,,,,,,199015,21,2022-01-29_24h08.50.527,lexical_decision_task_DD_L6,2021.2.3,MacIntel,59.99880002,,,,,,,,,,,,1.5007,0,,,,,,,,,,,,,,,,,,,,,,,,0.121289063,-0.378671875,0,0,0,,,,,,,BONNET,HB,z,y,./images/BONNETHB.png,,,,,,,m,0,1.5007,,,,,,,,0,44,44,95,1
,,,,,,,,,,,,,,,,,199015,21,2022-01-29_24h08.50.527,lexical_decision_task_DD_L6,2021.2.3,MacIntel,59.99880002,,,,,,,,,,,,0.4652,1,,,,,,,,,,,,,,,,,,,,,,,,0.121289063,-0.378671875,0,0,0,,,,,,,TOWEL,C,m,y,./images/TOWEL.png,,,,,,,m,1,0.4652,,,,,,,,0,45,45,1,1
,,,,,,,,,,,,,,,,,199015,21,2022-01-29_24h08.50.527,lexical_decision_task_DD_L6,2021.2.3,MacIntel,59.99880002,,,,,,,,,,,,0.9332,0,,,,,,,,,,,,,,,,,,,,,,,,0.121289063,-0.378671875,0,0,0,,,,,,,MIRROR,LB,z,y,./images/MIRRORLB.png,,,,,,,m,0,0.9332,,,,,,,,0,46,46,147,1
,,,,,,,,,,,,,,,,,199015,21,2022-01-29_24h08.50.527,lexical_decision_task_DD_L6,2021.2.3,MacIntel,59.99880002,,,,,,,,,,,,1.8893,0,,,,,,,,,,,,,,,,,,,,,,,,0.121289063,-0.378671875,0,0,0,,,,,,,CANYON,C,z,y,./images/CANYON.png,,,,,,,m,0,1.8893,,,,,,,,0,47,47,118,1
,,,,,,,,,,,,,,,,,199015,21,2022-01-29_24h08.50.527,lexical_decision_task_DD_L6,2021.2.3,MacIntel,59.99880002,,,,,,,,,,,,0.5344,0,,,,,,,,,,,,,,,,,,,,,,,,0.121289063,-0.378671875,0,0,0,,,,,,,POODLE,LB,z,y,./images/POODLELB.png,,,,,,,m,0,0.5344,,,,,,,,0,48,48,165,1
,,,,,,,,,,,,,,,,,199015,21,2022-01-29_24h08.50.527,lexical_decision_task_DD_L6,2021.2.3,MacIntel,59.99880002,,,,,,,,,,,,0.6679,1,,,,,,,,,,,,,,,,,,,,,,,,0.121289063,-0.378671875,0,0,0,,,,,,,BROOM,LB,m,y,./images/BROOMLB.png,,,,,,,m,1,0.6679,,,,,,,,0,49,49,78,1
,,,,,,,,,,,,,,,,,199015,21,2022-01-29_24h08.50.527,lexical_decision_task_DD_L6,2021.2.3,MacIntel,59.99880002,,,,,,,,,,,,0.599,0,,,,,,,,,,,,,,,,,,,,,,,,0.121289063,-0.378671875,0,0,0,,,,,,,JUNGLE,HB,z,y,./images/JUNGLEHB.png,,,,,,,m,0,0.599,,,,,,,,0,50,50,167,1
,,,,,,,,,,,,,,,,,199015,21,2022-01-29_24h08.50.527,lexical_decision_task_DD_L6,2021.2.3,MacIntel,59.99880002,,,,,,,,,,,,0.4005,0,,,,,,,,,,,,,,,,,,,,,,,,0.121289063,-0.378671875,0,0,0,,,,,,,STRING,HB,z,y,./images/STRINGHB.png,,,,,,,m,0,0.4005,,,,,,,,0,51,51,125,1
,,,,,,,,,,,,,,,,,199015,21,2022-01-29_24h08.50.527,lexical_decision_task_DD_L6,2021.2.3,MacIntel,59.99880002,,,,,,,,,,,,0.4063,1,,,,,,,,,,,,,,,,,,,,,,,,0.121289063,-0.378671875,0,0,0,,,,,,,ENGINE,HB,m,y,./images/ENGINEHB.png,,,,,,,m,1,0.4063,,,,,,,,0,52,52,38,1
,,,,,,,,,,,,,,,,,199015,21,2022-01-29_24h08.50.527,lexical_decision_task_DD_L6,2021.2.3,MacIntel,59.99880002,,,,,,,,,,,,0.8675,0,,,,,,,,,,,,,,,,,,,,,,,,0.121289063,-0.378671875,0,0,0,,,,,,,PLANK,C,z,y,./images/PLANK.png,,,,,,,m,0,0.8675,,,,,,,,0,53,53,85,1
,,,,,,,,,,,,,,,,,199015,21,2022-01-29_24h08.50.527,lexical_decision_task_DD_L6,2021.2.3,MacIntel,59.99880002,,,,,,,,,,,,1.267,0,,,,,,,,,,,,,,,,,,,,,,,,0.121289063,-0.378671875,0,0,0,,,,,,,SAUNA,LB,m,y,./images/SAUNALB.png,,,,,,,z,0,1.267,,,,,,,,0,54,54,33,1
,,,,,,,,,,,,,,,,,199015,21,2022-01-29_24h08.50.527,lexical_decision_task_DD_L6,2021.2.3,MacIntel,59.99880002,,,,,,,,,,,,0.5899,1,,,,,,,,,,,,,,,,,,,,,,,,0.121289063,-0.378671875,0,0,0,,,,,,,MUMMY,C,m,y,./images/MUMMY.png,,,,,,,m,1,0.5899,,,,,,,,0,55,55,46,1
,,,,,,,,,,,,,,,,,199015,21,2022-01-29_24h08.50.527,lexical_decision_task_DD_L6,2021.2.3,MacIntel,59.99880002,,,,,,,,,,,,0.6977,1,,,,,,,,,,,,,,,,,,,,,,,,0.121289063,-0.378671875,0,0,0,,,,,,,BUBBLE,HB,m,y,./images/BUBBLEHB.png,,,,,,,m,1,0.6977,,,,,,,,0,56,56,71,1
,,,,,,,,,,,,,,,,,199015,21,2022-01-29_24h08.50.527,lexical_decision_task_DD_L6,2021.2.3,MacIntel,59.99880002,,,,,,,,,,,,0.6216,1,,,,,,,,,,,,,,,,,,,,,,,,0.121289063,-0.378671875,0,0,0,,,,,,,HAMMER,LB,m,y,./images/HAMMERLB.png,,,,,,,m,1,0.6216,,,,,,,,0,57,57,75,1
,,,,,,,,,,,,,,,,,199015,21,2022-01-29_24h08.50.527,lexical_decision_task_DD_L6,2021.2.3,MacIntel,59.99880002,,,,,,,,,,,,0.5074,1,,,,,,,,,,,,,,,,,,,,,,,,0.121289063,-0.378671875,0,0,0,,,,,,,STREAM,HB,m,y,./images/STREAMHB.png,,,,,,,m,1,0.5074,,,,,,,,0,58,58,41,1
,,,,,,,,,,,,,,,,,199015,21,2022-01-29_24h08.50.527,lexical_decision_task_DD_L6,2021.2.3,MacIntel,59.99880002,,,,,,,,,,,,0.9507,1,,,,,,,,,,,,,,,,,,,,,,,,0.121289063,-0.378671875,0,0,0,,,,,,,CHAIN,LB,m,y,./images/CHAINLB.png,,,,,,,m,1,0.9507,,,,,,,,0,59,59,42,1
,,,,,,,,,,,,,,,,,199015,21,2022-01-29_24h08.50.527,lexical_decision_task_DD_L6,2021.2.3,MacIntel,59.99880002,,,,,,,,,,,,0.9718,0,,,,,,,,,,,,,,,,,,,,,,,,0.121289063,-0.378671875,0,0,0,,,,,,,PURSE,HB,z,y,./images/PURSEHB.png,,,,,,,m,0,0.9718,,,,,,,,0,60,60,146,1
,,,,,,,,,,,,,,,,,199015,21,2022-01-29_24h08.50.527,lexical_decision_task_DD_L6,2021.2.3,MacIntel,59.99880002,,,,,,,,,,,,0.45,1,,,,,,,,,,,,,,,,,,,,,,,,0.121289063,-0.378671875,0,0,0,,,,,,,FERRY,LB,m,y,./images/FERRYLB.png,,,,,,,m,1,0.45,,,,,,,,0,61,61,57,1
,,,,,,,,,,,,,,,,,199015,21,2022-01-29_24h08.50.527,lexical_decision_task_DD_L6,2021.2.3,MacIntel,59.99880002,,,,,,,,,,,,0.6168,1,,,,,,,,,,,,,,,,,,,,,,,,0.121289063,-0.378671875,0,0,0,,,,,,,BANANA,C,m,y,./images/BANANA.png,,,,,,,m,1,0.6168,,,,,,,,0,62,62,70,1
,,,,,,,,,,,,,,,,,199015,21,2022-01-29_24h08.50.527,lexical_decision_task_DD_L6,2021.2.3,MacIntel,59.99880002,,,,,,,,,,,,0.6346,0,,,,,,,,,,,,,,,,,,,,,,,,0.121289063,-0.378671875,0,0,0,,,,,,,SCREW,LB,z,y,./images/SCREWLB.png,,,,,,,m,0,0.6346,,,,,,,,0,63,63,108,1
,,,,,,,,,,,,,,,,,199015,21,2022-01-29_24h08.50.527,lexical_decision_task_DD_L6,2021.2.3,MacIntel,59.99880002,,,,,,,,,,,,1.3006,0,,,,,,,,,,,,,,,,,,,,,,,,0.121289063,-0.378671875,0,0,0,,,,,,,BARREL,HB,z,y,./images/BARRELHB.png,,,,,,,m,0,1.3006,,,,,,,,0,64,64,116,1
,,,,,,,,,,,,,,,,,199015,21,2022-01-29_24h08.50.527,lexical_decision_task_DD_L6,2021.2.3,MacIntel,59.99880002,,,,,,,,,,,,0.4438,0,,,,,,,,,,,,,,,,,,,,,,,,0.121289063,-0.378671875,0,0,0,,,,,,,WALRUS,HB,z,y,./images/WALRUSHB.png,,,,,,,m,0,0.4438,,,,,,,,0,65,65,107,1
,,,,,,,,,,,,,,,,,199015,21,2022-01-29_24h08.50.527,lexical_decision_task_DD_L6,2021.2.3,MacIntel,59.99880002,,,,,,,,,,,,0.7338,0,,,,,,,,,,,,,,,,,,,,,,,,0.121289063,-0.378671875,0,0,0,,,,,,,COUCH,HB,z,y,./images/COUCHHB.png,,,,,,,m,0,0.7338,,,,,,,,0,66,66,161,1
,,,,,,,,,,,,,,,,,199015,21,2022-01-29_24h08.50.527,lexical_decision_task_DD_L6,2021.2.3,MacIntel,59.99880002,,,,,,,,,,,,0.6562,1,,,,,,,,,,,,,,,,,,,,,,,,0.121289063,-0.378671875,0,0,0,,,,,,,STAIN,LB,m,y,./images/STAINLB.png,,,,,,,m,1,0.6562,,,,,,,,0,67,67,6,1
,,,,,,,,,,,,,,,,,199015,21,2022-01-29_24h08.50.527,lexical_decision_task_DD_L6,2021.2.3,MacIntel,59.99880002,,,,,,,,,,,,0.6713,0,,,,,,,,,,,,,,,,,,,,,,,,0.121289063,-0.378671875,0,0,0,,,,,,,URINE,C,z,y,./images/URINE.png,,,,,,,m,0,0.6713,,,,,,,,0,68,68,154,1
,,,,,,,,,,,,,,,,,199015,21,2022-01-29_24h08.50.527,lexical_decision_task_DD_L6,2021.2.3,MacIntel,59.99880002,,,,,,,,,,,,0.7738,0,,,,,,,,,,,,,,,,,,,,,,,,0.121289063,-0.378671875,0,0,0,,,,,,,ATTIC,LB,z,y,./images/ATTICLB.png,,,,,,,m,0,0.7738,,,,,,,,0,69,69,111,1
,,,,,,,,,,,,,,,,,199015,21,2022-01-29_24h08.50.527,lexical_decision_task_DD_L6,2021.2.3,MacIntel,59.99880002,,,,,,,,,,,,0.6315,0,,,,,,,,,,,,,,,,,,,,,,,,0.121289063,-0.378671875,0,0,0,,,,,,,MUSCLE,C,z,y,./images/MUSCLE.png,,,,,,,m,0,0.6315,,,,,,,,0,70,70,88,1
,,,,,,,,,,,,,,,,,199015,21,2022-01-29_24h08.50.527,lexical_decision_task_DD_L6,2021.2.3,MacIntel,59.99880002,,,,,,,,,,,,0.5567,0,,,,,,,,,,,,,,,,,,,,,,,,0.121289063,-0.378671875,0,0,0,,,,,,,SAILOR,C,z,y,./images/SAILOR.png,,,,,,,m,0,0.5567,,,,,,,,0,71,71,151,1
,,,,,,,,,,,,,,,,,199015,21,2022-01-29_24h08.50.527,lexical_decision_task_DD_L6,2021.2.3,MacIntel,59.99880002,,,,,,,,,,,,1.2045,1,,,,,,,,,,,,,,,,,,,,,,,,0.121289063,-0.378671875,0,0,0,,,,,,,BAMBOO,HB,m,y,./images/BAMBOOHB.png,,,,,,,m,1,1.2045,,,,,,,,0,72,72,5,1
,,,,,,,,,,,,,,,,,199015,21,2022-01-29_24h08.50.527,lexical_decision_task_DD_L6,2021.2.3,MacIntel,59.99880002,,,,,,,,,,,,0.5791,1,,,,,,,,,,,,,,,,,,,,,,,,0.121289063,-0.378671875,0,0,0,,,,,,,SAUCE,LB,m,y,./images/SAUCELB.png,,,,,,,m,1,0.5791,,,,,,,,0,73,73,51,1
,,,,,,,,,,,,,,,,,199015,21,2022-01-29_24h08.50.527,lexical_decision_task_DD_L6,2021.2.3,MacIntel,59.99880002,,,,,,,,,,,,0.6635,1,,,,,,,,,,,,,,,,,,,,,,,,0.121289063,-0.378671875,0,0,0,,,,,,,MAMMAL,HB,m,y,./images/MAMMALHB.png,,,,,,,m,1,0.6635,,,,,,,,0,74,74,62,1
,,,,,,,,,,,,,,,,,199015,21,2022-01-29_24h08.50.527,lexical_decision_task_DD_L6,2021.2.3,MacIntel,59.99880002,,,,,,,,,,,,0.4584,0,,,,,,,,,,,,,,,,,,,,,,,,0.121289063,-0.378671875,0,0,0,,,,,,,KIDNEY,LB,z,y,./images/KIDNEYLB.png,,,,,,,m,0,0.4584,,,,,,,,0,75,75,105,1
,,,,,,,,,,,,,,,,,199015,21,2022-01-29_24h08.50.527,lexical_decision_task_DD_L6,2021.2.3,MacIntel,59.99880002,,,,,,,,,,,,0.686,1,,,,,,,,,,,,,,,,,,,,,,,,0.121289063,-0.378671875,0,0,0,,,,,,,BUNNY,C,m,y,./images/BUNNY.png,,,,,,,m,1,0.686,,,,,,,,0,76,76,13,1
,,,,,,,,,,,,,,,,,199015,21,2022-01-29_24h08.50.527,lexical_decision_task_DD_L6,2021.2.3,MacIntel,59.99880002,,,,,,,,,,,,0.5586,1,,,,,,,,,,,,,,,,,,,,,,,,0.121289063,-0.378671875,0,0,0,,,,,,,PARCEL,LB,m,y,./images/PARCELLB.png,,,,,,,m,1,0.5586,,,,,,,,0,77,77,18,1
,,,,,,,,,,,,,,,,,199015,21,2022-01-29_24h08.50.527,lexical_decision_task_DD_L6,2021.2.3,MacIntel,59.99880002,,,,,,,,,,,,0.523,1,,,,,,,,,,,,,,,,,,,,,,,,0.121289063,-0.378671875,0,0,0,,,,,,,CLOWN,C,m,y,./images/CLOWN.png,,,,,,,m,1,0.523,,,,,,,,0,78,78,22,1
,,,,,,,,,,,,,,,,,199015,21,2022-01-29_24h08.50.527,lexical_decision_task_DD_L6,2021.2.3,MacIntel,59.99880002,,,,,,,,,,,,1.8006,1,,,,,,,,,,,,,,,,,,,,,,,,0.121289063,-0.378671875,0,0,0,,,,,,,STEAK,C,m,y,./images/STEAK.png,,,,,,,m,1,1.8006,,,,,,,,0,79,79,31,1
,,,,,,,,,,,,,,,,,199015,21,2022-01-29_24h08.50.527,lexical_decision_task_DD_L6,2021.2.3,MacIntel,59.99880002,,,,,,,,,,,,0.9665,1,,,,,,,,,,,,,,,,,,,,,,,,0.121289063,-0.378671875,0,0,0,,,,,,,HOCKEY,HB,m,y,./images/HOCKEYHB.png,,,,,,,m,1,0.9665,,,,,,,,0,80,80,32,1
,,,,,,,,,,,,,,,,,199015,21,2022-01-29_24h08.50.527,lexical_decision_task_DD_L6,2021.2.3,MacIntel,59.99880002,,,,,,,,,,,,1.1494,0,,,,,,,,,,,,,,,,,,,,,,,,0.121289063,-0.378671875,0,0,0,,,,,,,BLOKE,LB,m,y,./images/BLOKELB.png,,,,,,,z,0,1.1494,,,,,,,,0,81,81,12,1
,,,,,,,,,,,,,,,,,199015,21,2022-01-29_24h08.50.527,lexical_decision_task_DD_L6,2021.2.3,MacIntel,59.99880002,,,,,,,,,,,,0.5349,0,,,,,,,,,,,,,,,,,,,,,,,,0.121289063,-0.378671875,0,0,0,,,,,,,LIZARD,HB,z,y,./images/LIZARDHB.png,,,,,,,m,0,0.5349,,,,,,,,0,82,82,128,1
,,,,,,,,,,,,,,,,,199015,21,2022-01-29_24h08.50.527,lexical_decision_task_DD_L6,2021.2.3,MacIntel,59.99880002,,,,,,,,,,,,0.8411,0,,,,,,,,,,,,,,,,,,,,,,,,0.121289063,-0.378671875,0,0,0,space,,,,,,PEARL,C,z,y,./images/PEARL.png,2.0759,,,,,,m,0,0.8411,,,,,,,,0,83,83,130,1
,,,,,,,,,,,,,,,,,199015,21,2022-01-29_24h08.50.527,lexical_decision_task_DD_L6,2021.2.3,MacIntel,59.99880002,,,,,,,,,,,,0.9387,1,,,,,,,,,,,,,,,,,,,,,,,,0.121289063,-0.378671875,0,0,0,,,,,,,QUILL,C,z,y,./images/QUILL.png,,,,,,,z,1,0.9387,,,,,,,,0,84,84,115,1
,,,,,,,,,,,,,,,,,199015,21,2022-01-29_24h08.50.527,lexical_decision_task_DD_L6,2021.2.3,MacIntel,59.99880002,,,,,,,,,,,,0.5651,0,,,,,,,,,,,,,,,,,,,,,,,,0.121289063,-0.378671875,0,0,0,,,,,,,SHORE,LB,z,y,./images/SHORELB.png,,,,,,,m,0,0.5651,,,,,,,,0,85,85,96,1
,,,,,,,,,,,,,,,,,199015,21,2022-01-29_24h08.50.527,lexical_decision_task_DD_L6,2021.2.3,MacIntel,59.99880002,,,,,,,,,,,,0.582,1,,,,,,,,,,,,,,,,,,,,,,,,0.121289063,-0.378671875,0,0,0,,,,,,,MEDAL,HB,m,y,./images/MEDALHB.png,,,,,,,m,1,0.582,,,,,,,,0,86,86,11,1
,,,,,,,,,,,,,,,,,199015,21,2022-01-29_24h08.50.527,lexical_decision_task_DD_L6,2021.2.3,MacIntel,59.99880002,,,,,,,,,,,,0.4657,1,,,,,,,,,,,,,,,,,,,,,,,,0.121289063,-0.378671875,0,0,0,,,,,,,STOVE,HB,m,y,./images/STOVEHB.png,,,,,,,m,1,0.4657,,,,,,,,0,87,87,2,1
,,,,,,,,,,,,,,,,,199015,21,2022-01-29_24h08.50.527,lexical_decision_task_DD_L6,2021.2.3,MacIntel,59.99880002,,,,,,,,,,,,1.5833,0,,,,,,,,,,,,,,,,,,,,,,,,0.121289063,-0.378671875,0,0,0,,,,,,,DOUGH,C,z,y,./images/DOUGH.png,,,,,,,m,0,1.5833,,,,,,,,0,88,88,103,1
,,,,,,,,,,,,,,,,,199015,21,2022-01-29_24h08.50.527,lexical_decision_task_DD_L6,2021.2.3,MacIntel,59.99880002,,,,,,,,,,,,1.1193,0,,,,,,,,,,,,,,,,,,,,,,,,0.121289063,-0.378671875,0,0,0,,,,,,,SQUARE,LB,z,y,./images/SQUARELB.png,,,,,,,m,0,1.1193,,,,,,,,0,89,89,90,1
,,,,,,,,,,,,,,,,,199015,21,2022-01-29_24h08.50.527,lexical_decision_task_DD_L6,2021.2.3,MacIntel,59.99880002,,,,,,,,,,,,0.5326,0,,,,,,,,,,,,,,,,,,,,,,,,0.121289063,-0.378671875,0,0,0,,,,,,,LITTER,LB,z,y,./images/LITTERLB.png,,,,,,,m,0,0.5326,,,,,,,,0,90,90,162,1
,,,,,,,,,,,,,,,,,199015,21,2022-01-29_24h08.50.527,lexical_decision_task_DD_L6,2021.2.3,MacIntel,59.99880002,,,,,,,,,,,,0.55,0,,,,,,,,,,,,,,,,,,,,,,,,0.121289063,-0.378671875,0,0,0,,,,,,,MUFFIN,C,z,y,./images/MUFFIN.png,,,,,,,m,0,0.55,,,,,,,,0,91,91,139,1
,,,,,,,,,,,,,,,,,199015,21,2022-01-29_24h08.50.527,lexical_decision_task_DD_L6,2021.2.3,MacIntel,59.99880002,,,,,,,,,,,,0.5656,1,,,,,,,,,,,,,,,,,,,,,,,,0.121289063,-0.378671875,0,0,0,,,,,,,BOXER,C,m,y,./images/BOXER.png,,,,,,,m,1,0.5656,,,,,,,,0,92,92,4,1
,,,,,,,,,,,,,,,,,199015,21,2022-01-29_24h08.50.527,lexical_decision_task_DD_L6,2021.2.3,MacIntel,59.99880002,,,,,,,,,,,,0.5258,1,,,,,,,,,,,,,,,,,,,,,,,,0.121289063,-0.378671875,0,0,0,,,,,,,POSTER,HB,m,y,./images/POSTERHB.png,,,,,,,m,1,0.5258,,,,,,,,0,93,93,53,1
,,,,,,,,,,,,,,,,,199015,21,2022-01-29_24h08.50.527,lexical_decision_task_DD_L6,2021.2.3,MacIntel,59.99880002,,,,,,,,,,,,0.4613,1,,,,,,,,,,,,,,,,,,,,,,,,0.121289063,-0.378671875,0,0,0,,,,,,,CHERRY,LB,m,y,./images/CHERRYLB.png,,,,,,,m,1,0.4613,,,,,,,,0,94,94,54,1
,,,,,,,,,,,,,,,,,199015,21,2022-01-29_24h08.50.527,lexical_decision_task_DD_L6,2021.2.3,MacIntel,59.99880002,,,,,,,,,,,,0.4064,1,,,,,,,,,,,,,,,,,,,,,,,,0.121289063,-0.378671875,0,0,0,,,,,,,VALLEY,HB,m,y,./images/VALLEYHB.png,,,,,,,m,1,0.4064,,,,,,,,0,95,95,68,1
,,,,,,,,,,,,,,,,,199015,21,2022-01-29_24h08.50.527,lexical_decision_task_DD_L6,2021.2.3,MacIntel,59.99880002,,,,,,,,,,,,0.5885,0,,,,,,,,,,,,,,,,,,,,,,,,0.121289063,-0.378671875,0,0,0,,,,,,,BERRY,HB,z,y,./images/BERRYHB.png,,,,,,,m,0,0.5885,,,,,,,,0,96,96,131,1
,,,,,,,,,,,,,,,,,199015,21,2022-01-29_24h08.50.527,lexical_decision_task_DD_L6,2021.2.3,MacIntel,59.99880002,,,,,,,,,,,,0.6872,1,,,,,,,,,,,,,,,,,,,,,,,,0.121289063,-0.378671875,0,0,0,,,,,,,COLLAR,LB,m,y,./images/COLLARLB.png,,,,,,,m,1,0.6872,,,,,,,,0,97,97,15,1
,,,,,,,,,,,,,,,,,199015,21,2022-01-29_24h08.50.527,lexical_decision_task_DD_L6,2021.2.3,MacIntel,59.99880002,,,,,,,,,,,,0.4155,1,,,,,,,,,,,,,,,,,,,,,,,,0.121289063,-0.378671875,0,0,0,,,,,,,CLOTH,HB,m,y,./images/CLOTHHB.png,,,,,,,m,1,0.4155,,,,,,,,0,98,98,23,1
,,,,,,,,,,,,,,,,,199015,21,2022-01-29_24h08.50.527,lexical_decision_task_DD_L6,2021.2.3,MacIntel,59.99880002,,,,,,,,,,,,0.387,1,,,,,,,,,,,,,,,,,,,,,,,,0.121289063,-0.378671875,0,0,0,,,,,,,BRUSH,HB,m,y,./images/BRUSHHB.png,,,,,,,m,1,0.387,,,,,,,,0,99,99,59,1
,,,,,,,,,,,,,,,,,199015,21,2022-01-29_24h08.50.527,lexical_decision_task_DD_L6,2021.2.3,MacIntel,59.99880002,,,,,,,,,,,,0.3298,1,,,,,,,,,,,,,,,,,,,,,,,,0.121289063,-0.378671875,0,0,0,,,,,,,RULER,C,m,y,./images/RULER.png,,,,,,,m,1,0.3298,,,,,,,,0,100,100,79,1
,,,,,,,,,,,,,,,,,199015,21,2022-01-29_24h08.50.527,lexical_decision_task_DD_L6,2021.2.3,MacIntel,59.99880002,,,,,,,,,,,,0.4609,1,,,,,,,,,,,,,,,,,,,,,,,,0.121289063,-0.378671875,0,0,0,,,,,,,BASKET,HB,m,y,./images/BASKETHB.png,,,,,,,m,1,0.4609,,,,,,,,0,101,101,44,1
,,,,,,,,,,,,,,,,,199015,21,2022-01-29_24h08.50.527,lexical_decision_task_DD_L6,2021.2.3,MacIntel,59.99880002,,,,,,,,,,,,0.85,1,,,,,,,,,,,,,,,,,,,,,,,,0.121289063,-0.378671875,0,0,0,,,,,,,MOSQUE,C,z,y,./images/MOSQUE.png,,,,,,,z,1,0.85,,,,,,,,0,102,102,127,1
,,,,,,,,,,,,,,,,,199015,21,2022-01-29_24h08.50.527,lexical_decision_task_DD_L6,2021.2.3,MacIntel,59.99880002,,,,,,,,,,,,0.6484,0,,,,,,,,,,,,,,,,,,,,,,,,0.121289063,-0.378671875,0,0,0,,,,,,,TOMATO,LB,z,y,./images/TOMATOLB.png,,,,,,,m,0,0.6484,,,,,,,,0,103,103,84,1
,,,,,,,,,,,,,,,,,199015,21,2022-01-29_24h08.50.527,lexical_decision_task_DD_L6,2021.2.3,MacIntel,59.99880002,,,,,,,,,,,,0.3579,0,,,,,,,,,,,,,,,,,,,,,,,,0.121289063,-0.378671875,0,0,0,,,,,,,TULIP,HB,z,y,./images/TULIPHB.png,,,,,,,m,0,0.3579,,,,,,,,0,104,104,92,1
,,,,,,,,,,,,,,,,,199015,21,2022-01-29_24h08.50.527,lexical_decision_task_DD_L6,2021.2.3,MacIntel,59.99880002,,,,,,,,,,,,0.4158,1,,,,,,,,,,,,,,,,,,,,,,,,0.121289063,-0.378671875,0,0,0,,,,,,,WALNUT,LB,m,y,./images/WALNUTLB.png,,,,,,,m,1,0.4158,,,,,,,,0,105,105,0,1
,,,,,,,,,,,,,,,,,199015,21,2022-01-29_24h08.50.527,lexical_decision_task_DD_L6,2021.2.3,MacIntel,59.99880002,,,,,,,,,,,,0.3938,0,,,,,,,,,,,,,,,,,,,,,,,,0.121289063,-0.378671875,0,0,0,,,,,,,PICKLE,HB,z,y,./images/PICKLEHB.png,,,,,,,m,0,0.3938,,,,,,,,0,106,106,98,1
,,,,,,,,,,,,,,,,,199015,21,2022-01-29_24h08.50.527,lexical_decision_task_DD_L6,2021.2.3,MacIntel,59.99880002,,,,,,,,,,,,0.332,0,,,,,,,,,,,,,,,,,,,,,,,,0.121289063,-0.378671875,0,0,0,,,,,,,SHELF,LB,z,y,./images/SHELFLB.png,,,,,,,m,0,0.332,,,,,,,,0,107,107,123,1
,,,,,,,,,,,,,,,,,199015,21,2022-01-29_24h08.50.527,lexical_decision_task_DD_L6,2021.2.3,MacIntel,59.99880002,,,,,,,,,,,,0.4511,1,,,,,,,,,,,,,,,,,,,,,,,,0.121289063,-0.378671875,0,0,0,,,,,,,BUTTER,LB,m,y,./images/BUTTERLB.png,,,,,,,m,1,0.4511,,,,,,,,0,108,108,27,1
,,,,,,,,,,,,,,,,,199015,21,2022-01-29_24h08.50.527,lexical_decision_task_DD_L6,2021.2.3,MacIntel,59.99880002,,,,,,,,,,,,0.6724,1,,,,,,,,,,,,,,,,,,,,,,,,0.121289063,-0.378671875,0,0,0,,,,,,,DRILL,LB,m,y,./images/DRILLLB.png,,,,,,,m,1,0.6724,,,,,,,,0,109,109,81,1
,,,,,,,,,,,,,,,,,199015,21,2022-01-29_24h08.50.527,lexical_decision_task_DD_L6,2021.2.3,MacIntel,59.99880002,,,,,,,,,,,,0.665,1,,,,,,,,,,,,,,,,,,,,,,,,0.121289063,-0.378671875,0,0,0,,,,,,,SHIELD,LB,m,y,./images/SHIELDLB.png,,,,,,,m,1,0.665,,,,,,,,0,110,110,48,1
,,,,,,,,,,,,,,,,,199015,21,2022-01-29_24h08.50.527,lexical_decision_task_DD_L6,2021.2.3,MacIntel,59.99880002,,,,,,,,,,,,0.4363,1,,,,,,,,,,,,,,,,,,,,,,,,0.121289063,-0.378671875,0,0,0,,,,,,,CANDY,LB,m,y,./images/CANDYLB.png,,,,,,,m,1,0.4363,,,,,,,,0,111,111,39,1
,,,,,,,,,,,,,,,,,199015,21,2022-01-29_24h08.50.527,lexical_decision_task_DD_L6,2021.2.3,MacIntel,59.99880002,,,,,,,,,,,,0.5165,1,,,,,,,,,,,,,,,,,,,,,,,,0.121289063,-0.378671875,0,0,0,,,,,,,WAGON,C,m,y,./images/WAGON.png,,,,,,,m,1,0.5165,,,,,,,,0,112,112,7,1
,,,,,,,,,,,,,,,,,199015,21,2022-01-29_24h08.50.527,lexical_decision_task_DD_L6,2021.2.3,MacIntel,59.99880002,,,,,,,,,,,,0.9751,0,,,,,,,,,,,,,,,,,,,,,,,,0.121289063,-0.378671875,0,0,0,,,,,,,BURIAL,HB,z,y,./images/BURIALHB.png,,,,,,,m,0,0.9751,,,,,,,,0,113,113,143,1
,,,,,,,,,,,,,,,,,199015,21,2022-01-29_24h08.50.527,lexical_decision_task_DD_L6,2021.2.3,MacIntel,59.99880002,,,,,,,,,,,,0.5389,0,,,,,,,,,,,,,,,,,,,,,,,,0.121289063,-0.378671875,0,0,0,,,,,,,PIMPLE,HB,z,y,./images/PIMPLEHB.png,,,,,,,m,0,0.5389,,,,,,,,0,114,114,155,1
,,,,,,,,,,,,,,,,,199015,21,2022-01-29_24h08.50.527,lexical_decision_task_DD_L6,2021.2.3,MacIntel,59.99880002,,,,,,,,,,,,0.5502,1,,,,,,,,,,,,,,,,,,,,,,,,0.121289063,-0.378671875,0,0,0,,,,,,,PLANET,HB,m,y,./images/PLANETHB.png,,,,,,,m,1,0.5502,,,,,,,,0,115,115,80,1
,,,,,,,,,,,,,,,,,199015,21,2022-01-29_24h08.50.527,lexical_decision_task_DD_L6,2021.2.3,MacIntel,59.99880002,,,,,,,,,,,,0.8842,0,,,,,,,,,,,,,,,,,,,,,,,,0.121289063,-0.378671875,0,0,0,,,,,,,KITTEN,LB,z,y,./images/KITTENLB.png,,,,,,,m,0,0.8842,,,,,,,,0,116,116,129,1
,,,,,,,,,,,,,,,,,199015,21,2022-01-29_24h08.50.527,lexical_decision_task_DD_L6,2021.2.3,MacIntel,59.99880002,,,,,,,,,,,,0.3831,0,,,,,,,,,,,,,,,,,,,,,,,,0.121289063,-0.378671875,0,0,0,,,,,,,MELON,C,z,y,./images/MELON.png,,,,,,,m,0,0.3831,,,,,,,,0,117,117,106,1
,,,,,,,,,,,,,,,,,199015,21,2022-01-29_24h08.50.527,lexical_decision_task_DD_L6,2021.2.3,MacIntel,59.99880002,,,,,,,,,,,,0.3671,1,,,,,,,,,,,,,,,,,,,,,,,,0.121289063,-0.378671875,0,0,0,,,,,,,CLOUD,HB,m,y,./images/CLOUDHB.png,,,,,,,m,1,0.3671,,,,,,,,0,118,118,26,1
,,,,,,,,,,,,,,,,,199015,21,2022-01-29_24h08.50.527,lexical_decision_task_DD_L6,2021.2.3,MacIntel,59.99880002,,,,,,,,,,,,0.4872,1,,,,,,,,,,,,,,,,,,,,,,,,0.121289063,-0.378671875,0,0,0,,,,,,,FENCE,HB,m,y,./images/FENCEHB.png,,,,,,,m,1,0.4872,,,,,,,,0,119,119,14,1
,,,,,,,,,,,,,,,,,199015,21,2022-01-29_24h08.50.527,lexical_decision_task_DD_L6,2021.2.3,MacIntel,59.99880002,,,,,,,,,,,,0.4167,1,,,,,,,,,,,,,,,,,,,,,,,,0.121289063,-0.378671875,0,0,0,,,,,,,DIVER,LB,m,y,./images/DIVERLB.png,,,,,,,m,1,0.4167,,,,,,,,0,120,120,9,1
,,,,,,,,,,,,,,,,,199015,21,2022-01-29_24h08.50.527,lexical_decision_task_DD_L6,2021.2.3,MacIntel,59.99880002,,,,,,,,,,,,0.4154,1,,,,,,,,,,,,,,,,,,,,,,,,0.121289063,-0.378671875,0,0,0,,,,,,,WHISKY,HB,m,y,./images/WHISKYHB.png,,,,,,,m,1,0.4154,,,,,,,,0,121,121,83,1
,,,,,,,,,,,,,,,,,199015,21,2022-01-29_24h08.50.527,lexical_decision_task_DD_L6,2021.2.3,MacIntel,59.99880002,,,,,,,,,,,,0.5082,0,,,,,,,,,,,,,,,,,,,,,,,,0.121289063,-0.378671875,0,0,0,,,,,,,TRIPOD,LB,z,y,./images/TRIPODLB.png,,,,,,,m,0,0.5082,,,,,,,,0,122,122,138,1
,,,,,,,,,,,,,,,,,199015,21,2022-01-29_24h08.50.527,lexical_decision_task_DD_L6,2021.2.3,MacIntel,59.99880002,,,,,,,,,,,,0.3831,1,,,,,,,,,,,,,,,,,,,,,,,,0.121289063,-0.378671875,0,0,0,,,,,,,BRIDE,C,m,y,./images/BRIDE.png,,,,,,,m,1,0.3831,,,,,,,,0,123,123,64,1
,,,,,,,,,,,,,,,,,199015,21,2022-01-29_24h08.50.527,lexical_decision_task_DD_L6,2021.2.3,MacIntel,59.99880002,,,,,,,,,,,,0.3661,0,,,,,,,,,,,,,,,,,,,,,,,,0.121289063,-0.378671875,0,0,0,,,,,,,TWINS,LB,z,y,./images/TWINSLB.png,,,,,,,m,0,0.3661,,,,,,,,0,124,124,144,1
,,,,,,,,,,,,,,,,,199015,21,2022-01-29_24h08.50.527,lexical_decision_task_DD_L6,2021.2.3,MacIntel,59.99880002,,,,,,,,,,,,4.3049,0,,,,,,,,,,,,,,,,,,,,,,,,0.129700521,-0.398025174,0,0,0,space,,,,,,GREASE,LB,z,y,./images/GREASELB.png,1.0863,,,,,,m,0,4.3049,,,,,,,,0,125,125,99,1
,,,,,,,,,,,,,,,,,199015,21,2022-01-29_24h08.50.527,lexical_decision_task_DD_L6,2021.2.3,MacIntel,59.99880002,,,,,,,,,,,,0.7998,1,,,,,,,,,,,,,,,,,,,,,,,,0.129700521,-0.398025174,0,0,0,,,,,,,HEATER,HB,m,y,./images/HEATERHB.png,,,,,,,m,1,0.7998,,,,,,,,0,126,126,56,1
,,,,,,,,,,,,,,,,,199015,21,2022-01-29_24h08.50.527,lexical_decision_task_DD_L6,2021.2.3,MacIntel,59.99880002,,,,,,,,,,,,0.5999,1,,,,,,,,,,,,,,,,,,,,,,,,0.129700521,-0.398025174,0,0,0,,,,,,,TIGER,C,m,y,./images/TIGER.png,,,,,,,m,1,0.5999,,,,,,,,0,127,127,37,1
,,,,,,,,,,,,,,,,,199015,21,2022-01-29_24h08.50.527,lexical_decision_task_DD_L6,2021.2.3,MacIntel,59.99880002,,,,,,,,,,,,0.4434,0,,,,,,,,,,,,,,,,,,,,,,,,0.129700521,-0.398025174,0,0,0,,,,,,,FALCON,C,z,y,./images/FALCON.png,,,,,,,m,0,0.4434,,,,,,,,0,128,128,112,1
,,,,,,,,,,,,,,,,,199015,21,2022-01-29_24h08.50.527,lexical_decision_task_DD_L6,2021.2.3,MacIntel,59.99880002,,,,,,,,,,,,0.5579,0,,,,,,,,,,,,,,,,,,,,,,,,0.129700521,-0.398025174,0,0,0,,,,,,,INFANT,C,z,y,./images/INFANT.png,,,,,,,m,0,0.5579,,,,,,,,0,129,129,160,1
,,,,,,,,,,,,,,,,,199015,21,2022-01-29_24h08.50.527,lexical_decision_task_DD_L6,2021.2.3,MacIntel,59.99880002,,,,,,,,,,,,0.3285,0,,,,,,,,,,,,,,,,,,,,,,,,0.129700521,-0.398025174,0,0,0,,,,,,,SWING,C,z,y,./images/SWING.png,,,,,,,m,0,0.3285,,,,,,,,0,130,130,124,1
,,,,,,,,,,,,,,,,,199015,21,2022-01-29_24h08.50.527,lexical_decision_task_DD_L6,2021.2.3,MacIntel,59.99880002,,,,,,,,,,,,0.3049,1,,,,,,,,,,,,,,,,,,,,,,,,0.129700521,-0.398025174,0,0,0,,,,,,,GLOVE,C,m,y,./images/GLOVE.png,,,,,,,m,1,0.3049,,,,,,,,0,131,131,73,1
,,,,,,,,,,,,,,,,,199015,21,2022-01-29_24h08.50.527,lexical_decision_task_DD_L6,2021.2.3,MacIntel,59.99880002,,,,,,,,,,,,0.4324,1,,,,,,,,,,,,,,,,,,,,,,,,0.129700521,-0.398025174,0,0,0,,,,,,,DONKEY,C,m,y,./images/DONKEY.png,,,,,,,m,1,0.4324,,,,,,,,0,132,132,19,1
,,,,,,,,,,,,,,,,,199015,21,2022-01-29_24h08.50.527,lexical_decision_task_DD_L6,2021.2.3,MacIntel,59.99880002,,,,,,,,,,,,1.0076,1,,,,,,,,,,,,,,,,,,,,,,,,0.129700521,-0.398025174,0,0,0,,,,,,,CANOE,C,m,y,./images/CANOE.png,,,,,,,m,1,1.0076,,,,,,,,0,133,133,58,1
,,,,,,,,,,,,,,,,,199015,21,2022-01-29_24h08.50.527,lexical_decision_task_DD_L6,2021.2.3,MacIntel,59.99880002,,,,,,,,,,,,0.4175,1,,,,,,,,,,,,,,,,,,,,,,,,0.129700521,-0.398025174,0,0,0,,,,,,,ARTIST,C,m,y,./images/ARTIST.png,,,,,,,m,1,0.4175,,,,,,,,0,134,134,61,1
,,,,,,,,,,,,,,,,,199015,21,2022-01-29_24h08.50.527,lexical_decision_task_DD_L6,2021.2.3,MacIntel,59.99880002,,,,,,,,,,,,0.4346,0,,,,,,,,,,,,,,,,,,,,,,,,0.129700521,-0.398025174,0,0,0,,,,,,,SMOKER,HB,z,y,./images/SMOKERHB.png,,,,,,,m,0,0.4346,,,,,,,,0,135,135,110,1
,,,,,,,,,,,,,,,,,199015,21,2022-01-29_24h08.50.527,lexical_decision_task_DD_L6,2021.2.3,MacIntel,59.99880002,,,,,,,,,,,,0.5327,1,,,,,,,,,,,,,,,,,,,,,,,,0.129700521,-0.398025174,0,0,0,,,,,,,WHEEL,HB,m,y,./images/WHEELHB.png,,,,,,,m,1,0.5327,,,,,,,,0,136,136,77,1
,,,,,,,,,,,,,,,,,199015,21,2022-01-29_24h08.50.527,lexical_decision_task_DD_L6,2021.2.3,MacIntel,59.99880002,,,,,,,,,,,,0.4518,1,,,,,,,,,,,,,,,,,,,,,,,,0.129700521,-0.398025174,0,0,0,,,,,,,CRATER,LB,m,y,./images/CRATERLB.png,,,,,,,m,1,0.4518,,,,,,,,0,137,137,3,1
,,,,,,,,,,,,,,,,,199015,21,2022-01-29_24h08.50.527,lexical_decision_task_DD_L6,2021.2.3,MacIntel,59.99880002,,,,,,,,,,,,0.6796,0,,,,,,,,,,,,,,,,,,,,,,,,0.129700521,-0.398025174,0,0,0,,,,,,,PACKET,HB,z,y,./images/PACKETHB.png,,,,,,,m,0,0.6796,,,,,,,,0,138,138,140,1
,,,,,,,,,,,,,,,,,199015,21,2022-01-29_24h08.50.527,lexical_decision_task_DD_L6,2021.2.3,MacIntel,59.99880002,,,,,,,,,,,,0.8179,0,,,,,,,,,,,,,,,,,,,,,,,,0.129700521,-0.398025174,0,0,0,,,,,,,RHINO,LB,z,y,./images/RHINOLB.png,,,,,,,m,0,0.8179,,,,,,,,0,139,139,93,1
,,,,,,,,,,,,,,,,,199015,21,2022-01-29_24h08.50.527,lexical_decision_task_DD_L6,2021.2.3,MacIntel,59.99880002,,,,,,,,,,,,0.4169,1,,,,,,,,,,,,,,,,,,,,,,,,0.129700521,-0.398025174,0,0,0,,,,,,,GRANNY,HB,m,y,./images/GRANNYHB.png,,,,,,,m,1,0.4169,,,,,,,,0,140,140,20,1
,,,,,,,,,,,,,,,,,199015,21,2022-01-29_24h08.50.527,lexical_decision_task_DD_L6,2021.2.3,MacIntel,59.99880002,,,,,,,,,,,,0.4323,1,,,,,,,,,,,,,,,,,,,,,,,,0.129700521,-0.398025174,0,0,0,,,,,,,BAKER,LB,m,y,./images/BAKERLB.png,,,,,,,m,1,0.4323,,,,,,,,0,141,141,63,1
,,,,,,,,,,,,,,,,,199015,21,2022-01-29_24h08.50.527,lexical_decision_task_DD_L6,2021.2.3,MacIntel,59.99880002,,,,,,,,,,,,0.3997,0,,,,,,,,,,,,,,,,,,,,,,,,0.129700521,-0.398025174,0,0,0,,,,,,,WEASEL,HB,z,y,./images/WEASELHB.png,,,,,,,m,0,0.3997,,,,,,,,0,142,142,164,1
,,,,,,,,,,,,,,,,,199015,21,2022-01-29_24h08.50.527,lexical_decision_task_DD_L6,2021.2.3,MacIntel,59.99880002,,,,,,,,,,,,0.8239,0,,,,,,,,,,,,,,,,,,,,,,,,0.129700521,-0.398025174,0,0,0,,,,,,,BANNER,C,z,y,./images/BANNER.png,,,,,,,m,0,0.8239,,,,,,,,0,143,143,136,1
,,,,,,,,,,,,,,,,,199015,21,2022-01-29_24h08.50.527,lexical_decision_task_DD_L6,2021.2.3,MacIntel,59.99880002,,,,,,,,,,,,0.4021,0,,,,,,,,,,,,,,,,,,,,,,,,0.129700521,-0.398025174,0,0,0,,,,,,,ONION,LB,z,y,./images/ONIONLB.png,,,,,,,m,0,0.4021,,,,,,,,0,144,144,135,1
,,,,,,,,,,,,,,,,,199015,21,2022-01-29_24h08.50.527,lexical_decision_task_DD_L6,2021.2.3,MacIntel,59.99880002,,,,,,,,,,,,0.8166,0,,,,,,,,,,,,,,,,,,,,,,,,0.129700521,-0.398025174,0,0,0,,,,,,,PASTA,HB,z,y,./images/PASTAHB.png,,,,,,,m,0,0.8166,,,,,,,,0,145,145,89,1
,,,,,,,,,,,,,,,,,199015,21,2022-01-29_24h08.50.527,lexical_decision_task_DD_L6,2021.2.3,MacIntel,59.99880002,,,,,,,,,,,,0.5656,1,,,,,,,,,,,,,,,,,,,,,,,,0.129700521,-0.398025174,0,0,0,,,,,,,STOOL,C,m,y,./images/STOOL.png,,,,,,,m,1,0.5656,,,,,,,,0,146,146,43,1
,,,,,,,,,,,,,,,,,199015,21,2022-01-29_24h08.50.527,lexical_decision_task_DD_L6,2021.2.3,MacIntel,59.99880002,,,,,,,,,,,,0.5177,0,,,,,,,,,,,,,,,,,,,,,,,,0.129700521,-0.398025174,0,0,0,,,,,,,SPORT,LB,z,y,./images/SPORTLB.png,,,,,,,m,0,0.5177,,,,,,,,0,147,147,132,1
,,,,,,,,,,,,,,,,,199015,21,2022-01-29_24h08.50.527,lexical_decision_task_DD_L6,2021.2.3,MacIntel,59.99880002,,,,,,,,,,,,0.4261,0,,,,,,,,,,,,,,,,,,,,,,,,0.129700521,-0.398025174,0,0,0,,,,,,,MALLET,HB,z,y,./images/MALLETHB.png,,,,,,,m,0,0.4261,,,,,,,,0,148,148,134,1
,,,,,,,,,,,,,,,,,199015,21,2022-01-29_24h08.50.527,lexical_decision_task_DD_L6,2021.2.3,MacIntel,59.99880002,,,,,,,,,,,,0.4179,1,,,,,,,,,,,,,,,,,,,,,,,,0.129700521,-0.398025174,0,0,0,,,,,,,CLIFF,HB,m,y,./images/CLIFFHB.png,,,,,,,m,1,0.4179,,,,,,,,0,149,149,8,1
,,,,,,,,,,,,,,,,,199015,21,2022-01-29_24h08.50.527,lexical_decision_task_DD_L6,2021.2.3,MacIntel,59.99880002,,,,,,,,,,,,0.0004,0,,,,,,,,,,,,,,,,,,,,,,,,0.129700521,-0.398025174,0,0,0,,,,,,,WRIST,C,z,y,./images/WRIST.png,,,,,,,m,0,0.0004,,,,,,,,0,150,150,109,1
,,,,,,,,,,,,,,,,,199015,21,2022-01-29_24h08.50.527,lexical_decision_task_DD_L6,2021.2.3,MacIntel,59.99880002,,,,,,,,,,,,0.5508,0,,,,,,,,,,,,,,,,,,,,,,,,0.129700521,-0.398025174,0,0,0,,,,,,,CRUMB,HB,z,y,./images/CRUMBHB.png,,,,,,,m,0,0.5508,,,,,,,,0,151,151,113,1
,,,,,,,,,,,,,,,,,199015,21,2022-01-29_24h08.50.527,lexical_decision_task_DD_L6,2021.2.3,MacIntel,59.99880002,,,,,,,,,,,,0.4043,1,,,,,,,,,,,,,,,,,,,,,,,,0.129700521,-0.398025174,0,0,0,,,,,,,ALLEY,C,m,y,./images/ALLEY.png,,,,,,,m,1,0.4043,,,,,,,,0,152,152,55,1
,,,,,,,,,,,,,,,,,199015,21,2022-01-29_24h08.50.527,lexical_decision_task_DD_L6,2021.2.3,MacIntel,59.99880002,,,,,,,,,,,,0.4928,0,,,,,,,,,,,,,,,,,,,,,,,,0.129700521,-0.398025174,0,0,0,,,,,,,SNACK,C,z,y,./images/SNACK.png,,,,,,,m,0,0.4928,,,,,,,,0,153,153,157,1
,,,,,,,,,,,,,,,,,199015,21,2022-01-29_24h08.50.527,lexical_decision_task_DD_L6,2021.2.3,MacIntel,59.99880002,,,,,,,,,,,,1.2304,1,,,,,,,,,,,,,,,,,,,,,,,,0.129700521,-0.398025174,0,0,0,,,,,,,LLAMA,HB,m,y,./images/LLAMAHB.png,,,,,,,m,1,1.2304,,,,,,,,0,154,154,35,1
,,,,,,,,,,,,,,,,,199015,21,2022-01-29_24h08.50.527,lexical_decision_task_DD_L6,2021.2.3,MacIntel,59.99880002,,,,,,,,,,,,0.6669,0,,,,,,,,,,,,,,,,,,,,,,,,0.129700521,-0.398025174,0,0,0,,,,,,,BEARD,HB,z,y,./images/BEARDHB.png,,,,,,,m,0,0.6669,,,,,,,,0,155,155,86,1
,,,,,,,,,,,,,,,,,199015,21,2022-01-29_24h08.50.527,lexical_decision_task_DD_L6,2021.2.3,MacIntel,59.99880002,,,,,,,,,,,,0.7535,1,,,,,,,,,,,,,,,,,,,,,,,,0.129700521,-0.398025174,0,0,0,,,,,,,SLOPE,LB,m,y,./images/SLOPELB.png,,,,,,,m,1,0.7535,,,,,,,,0,156,156,30,1
,,,,,,,,,,,,,,,,,199015,21,2022-01-29_24h08.50.527,lexical_decision_task_DD_L6,2021.2.3,MacIntel,59.99880002,,,,,,,,,,,,0.493,1,,,,,,,,,,,,,,,,,,,,,,,,0.129700521,-0.398025174,0,0,0,,,,,,,JUMPER,HB,m,y,./images/JUMPERHB.png,,,,,,,m,1,0.493,,,,,,,,0,157,157,74,1
,,,,,,,,,,,,,,,,,199015,21,2022-01-29_24h08.50.527,lexical_decision_task_DD_L6,2021.2.3,MacIntel,59.99880002,,,,,,,,,,,,0.5172,0,,,,,,,,,,,,,,,,,,,,,,,,0.129700521,-0.398025174,0,0,0,,,,,,,MAGGOT,LB,z,y,./images/MAGGOTLB.png,,,,,,,m,0,0.5172,,,,,,,,0,158,158,117,1
,,,,,,,,,,,,,,,,,199015,21,2022-01-29_24h08.50.527,lexical_decision_task_DD_L6,2021.2.3,MacIntel,59.99880002,,,,,,,,,,,,0.7333,0,,,,,,,,,,,,,,,,,,,,,,,,0.129700521,-0.398025174,0,0,0,,,,,,,FINGER,LB,z,y,./images/FINGERLB.png,,,,,,,m,0,0.7333,,,,,,,,0,159,159,87,1
,,,,,,,,,,,,,,,,,199015,21,2022-01-29_24h08.50.527,lexical_decision_task_DD_L6,2021.2.3,MacIntel,59.99880002,,,,,,,,,,,,0.7664,1,,,,,,,,,,,,,,,,,,,,,,,,0.129700521,-0.398025174,0,0,0,,,,,,,SPINE,HB,m,y,./images/SPINEHB.png,,,,,,,m,1,0.7664,,,,,,,,0,160,160,65,1
,,,,,,,,,,,,,,,,,199015,21,2022-01-29_24h08.50.527,lexical_decision_task_DD_L6,2021.2.3,MacIntel,59.99880002,,,,,,,,,,,,0.5835,0,,,,,,,,,,,,,,,,,,,,,,,,0.129700521,-0.398025174,0,0,0,,,,,,,THROAT,LB,z,y,./images/THROATLB.png,,,,,,,m,0,0.5835,,,,,,,,0,161,161,120,1
,,,,,,,,,,,,,,,,,199015,21,2022-01-29_24h08.50.527,lexical_decision_task_DD_L6,2021.2.3,MacIntel,59.99880002,,,,,,,,,,,,0.4384,1,,,,,,,,,,,,,,,,,,,,,,,,0.129700521,-0.398025174,0,0,0,,,,,,,PILOT,HB,m,y,./images/PILOTHB.png,,,,,,,m,1,0.4384,,,,,,,,0,162,162,50,1
,,,,,,,,,,,,,,,,,199015,21,2022-01-29_24h08.50.527,lexical_decision_task_DD_L6,2021.2.3,MacIntel,59.99880002,,,,,,,,,,,,0.51,0,,,,,,,,,,,,,,,,,,,,,,,,0.129700521,-0.398025174,0,0,0,,,,,,,FARMER,HB,z,y,./images/FARMERHB.png,,,,,,,m,0,0.51,,,,,,,,0,163,163,149,1
,,,,,,,,,,,,,,,,,199015,21,2022-01-29_24h08.50.527,lexical_decision_task_DD_L6,2021.2.3,MacIntel,59.99880002,,,,,,,,,,,,0.4316,0,,,,,,,,,,,,,,,,,,,,,,,,0.129700521,-0.398025174,0,0,0,,,,,,,COOKER,LB,z,y,./images/COOKERLB.png,,,,,,,m,0,0.4316,,,,,,,,0,164,164,153,1
,,,,,,,,,,,,,,,,,199015,21,2022-01-29_24h08.50.527,lexical_decision_task_DD_L6,2021.2.3,MacIntel,59.99880002,,,,,,,,,,,,0.549,0,,,,,,,,,,,,,,,,,,,,,,,,0.129700521,-0.398025174,0,0,0,,,,,,,FOLDER,LB,z,y,./images/FOLDERLB.png,,,,,,,m,0,0.549,,,,,,,,0,165,165,126,1
,,,,,,,,,,,,,,,,,199015,21,2022-01-29_24h08.50.527,lexical_decision_task_DD_L6,2021.2.3,MacIntel,59.99880002,,,,,,,,,,,,0.5689,0,,,,,,,,,,,,,,,,,,,,,,,,0.129700521,-0.398025174,0,0,0,,,,,,,LADDER,HB,z,y,./images/LADDERHB.png,,,,,,,m,0,0.5689,,,,,,,,0,166,166,122,1
,,,,,,,,,,,,,,,,,199015,21,2022-01-29_24h08.50.527,lexical_decision_task_DD_L6,2021.2.3,MacIntel,59.99880002,,,,,,,,,,,,0.5181,1,,,,,,,,,,,,,,,,,,,,,,,,0.129700521,-0.398025174,0,0,0,,,,,,,PARADE,HB,m,y,./images/PARADEHB.png,,,,,,,m,1,0.5181,,,,,,,,0,167,167,17,1
