key_resp.keys,key_resp.rt,instr_done_touch.x,instr_done_touch.y,instr_done_touch.leftButton,instr_done_touch.midButton,instr_done_touch.rightButton,instruction_pages.thisRepN,instruction_pages.thisTrialN,instruction_pages.thisN,instruction_pages.thisIndex,instruction_pages.ran,pageN,phase,instruct_text,has_image,instruct_image,participant,age,date,expName,psychopyVersion,OS,frameRate,response.keys,response.corr,response.rt,touch_resp.x,touch_resp.y,touch_resp.leftButton,touch_resp.midButton,touch_resp.rightButton,touch_resp.time,touch_resp.clicked_name,rt,corr,practrials.thisRepN,practrials.thisTrialN,practrials.thisN,practrials.thisIndex,practrials.ran,TrialID,Target,corrAns,instr_done_touch.clicked_name,end_of_practice_trials_pages.thisRepN,end_of_practice_trials_pages.thisTrialN,end_of_practice_trials_pages.thisN,end_of_practice_trials_pages.thisIndex,end_of_practice_trials_pages.ran,key_resp_2.keys,key_resp_2.corr,key_resp_2.rt,targ_click.x,targ_click.y,targ_click.leftButton,targ_click.midButton,targ_click.rightButton,targ_click.time,targ_click.clicked_name,break_done_touch.x,break_done_touch.y,break_done_touch.leftButton,break_done_touch.midButton,break_done_touch.rightButton,break_done_keyboard.keys,maintrials.thisRepN,maintrials.thisTrialN,maintrials.thisN,maintrials.thisIndex,maintrials.ran,string,blur,study,lex,stim_path,break_done_keyboard.rt,test_instructions.thisRepN,test_instructions.thisTrialN,test_instructions.thisN,test_instructions.thisIndex,test_instructions.ran,key_resp_3.keys,key_resp_3.corr,key_resp_3.rt,test_click.x,test_click.y,test_click.leftButton,test_click.midButton,test_click.rightButton,test_click.time,test_click.clicked_name,test_phase.thisRepN,test_phase.thisTrialN,test_phase.thisN,test_phase.thisIndex,test_phase.ran
space,36.2065,-0.005347222,-0.176822917,0,0,0,0,0,0,0,1,1,instructions,"INSTRUCTIONS
At the start of each trial, look at the plus sign  (+) in the center of the screen.  This tells you that a trial is about to begin and where to look. Second, the plus sign will disappear and a string of letters will appear. Your task is to determine if the string of letters is a word or not. If the item is a word press the M key (on keyboard)  or touch the word button (phone/tablet).  If the item is not a word,  press the  Z key (on keyboard)  or touch the nonword button (on phone/tablet). 
Press the space bar or touch  continue.",0,,199009,19,2022-01-25_21h27.31.248,lexical_decision_task_DD_L5,2021.2.3,MacIntel,60.0024001,,,,,,,,,,,,,,,,,,,,,,,,,,,,,,,,,,,,,,,,,,,,,,,,,,,,,,,,,,,,,,,,,,,,,,,,,
space,29.7589,-0.005347222,-0.176822917,0,0,0,0,1,1,1,1,2,instructions,"If your device has a keyboard, press the 'Z' key for nonwords and the 'M' key for words.





Press the space bar or touch the button below to continue.",0,keyboard-example.gif,199009,19,2022-01-25_21h27.31.248,lexical_decision_task_DD_L5,2021.2.3,MacIntel,60.0024001,,,,,,,,,,,,,,,,,,,,,,,,,,,,,,,,,,,,,,,,,,,,,,,,,,,,,,,,,,,,,,,,,,,,,,,,,
space,2.1075,-0.005347222,-0.176822917,0,0,0,0,2,2,2,1,3,instructions,"If you are using a touchscreen only device, use the buttons on the screen. Do not use the mouse.





Press the space bar or touch the button below to continue.",0,touchscreen-example.gif,199009,19,2022-01-25_21h27.31.248,lexical_decision_task_DD_L5,2021.2.3,MacIntel,60.0024001,,,,,,,,,,,,,,,,,,,,,,,,,,,,,,,,,,,,,,,,,,,,,,,,,,,,,,,,,,,,,,,,,,,,,,,,,
space,5.0151,-0.005347222,-0.176822917,0,0,0,0,3,3,3,1,4,instructions,"It is very important that you respond as quickly and accurately as possible, as each letter string will only be on the screen for two seconds. If you do not respond within this time, the message 'Too slow!' will be displayed and the experiment will progress to the next letter string. The first 20 trials will be practice trials and you will receive feedback on your answers. 

Press the space bar or touch the button below to start the practice trials.",0,,199009,19,2022-01-25_21h27.31.248,lexical_decision_task_DD_L5,2021.2.3,MacIntel,60.0024001,,,,,,,,,,,,,,,,,,,,,,,,,,,,,,,,,,,,,,,,,,,,,,,,,,,,,,,,,,,,,,,,,,,,,,,,,
,,,,,,,,,,,,,,,,,199009,19,2022-01-25_21h27.31.248,lexical_decision_task_DD_L5,2021.2.3,MacIntel,60.0024001,z,1,1.563,,,,,,,,1.563,1,0,0,0,10,1,1001,INLADE,z,,,,,,,,,,,,,,,,,,,,,,,,,,,,,,,,,,,,,,,,,,,,,,,,,,,,,
,,,,,,,,,,,,,,,,,199009,19,2022-01-25_21h27.31.248,lexical_decision_task_DD_L5,2021.2.3,MacIntel,60.0024001,m,0,1.6144,,,,,,,,1.6144,0,0,1,1,14,1,1001,THRALE,z,,,,,,,,,,,,,,,,,,,,,,,,,,,,,,,,,,,,,,,,,,,,,,,,,,,,,
,,,,,,,,,,,,,,,,,199009,19,2022-01-25_21h27.31.248,lexical_decision_task_DD_L5,2021.2.3,MacIntel,60.0024001,z,1,1.2648,,,,,,,,1.2648,1,0,2,2,15,1,1001,WHAISE,z,,,,,,,,,,,,,,,,,,,,,,,,,,,,,,,,,,,,,,,,,,,,,,,,,,,,,
,,,,,,,,,,,,,,,,,199009,19,2022-01-25_21h27.31.248,lexical_decision_task_DD_L5,2021.2.3,MacIntel,60.0024001,z,1,1.2507,,,,,,,,1.2507,1,0,3,3,11,1,1001,RASHET,z,,,,,,,,,,,,,,,,,,,,,,,,,,,,,,,,,,,,,,,,,,,,,,,,,,,,,
,,,,,,,,,,,,,,,,,199009,19,2022-01-25_21h27.31.248,lexical_decision_task_DD_L5,2021.2.3,MacIntel,60.0024001,m,1,0.807,,,,,,,,0.807,1,0,4,4,6,1,1001,ZOMBIE,m,,,,,,,,,,,,,,,,,,,,,,,,,,,,,,,,,,,,,,,,,,,,,,,,,,,,,
,,,,,,,,,,,,,,,,,199009,19,2022-01-25_21h27.31.248,lexical_decision_task_DD_L5,2021.2.3,MacIntel,60.0024001,m,1,0.5233,,,,,,,,0.5233,1,0,5,5,7,1,1001,VOLUME,m,,,,,,,,,,,,,,,,,,,,,,,,,,,,,,,,,,,,,,,,,,,,,,,,,,,,,
,,,,,,,,,,,,,,,,,199009,19,2022-01-25_21h27.31.248,lexical_decision_task_DD_L5,2021.2.3,MacIntel,60.0024001,m,1,0.6675,,,,,,,,0.6675,1,0,6,6,4,1,1001,SQUEAK,m,,,,,,,,,,,,,,,,,,,,,,,,,,,,,,,,,,,,,,,,,,,,,,,,,,,,,
,,,,,,,,,,,,,,,,,199009,19,2022-01-25_21h27.31.248,lexical_decision_task_DD_L5,2021.2.3,MacIntel,60.0024001,m,1,0.8044,,,,,,,,0.8044,1,0,7,7,5,1,1001,OBTAIN,m,,,,,,,,,,,,,,,,,,,,,,,,,,,,,,,,,,,,,,,,,,,,,,,,,,,,,
,,,,,,,,,,,,,,,,,199009,19,2022-01-25_21h27.31.248,lexical_decision_task_DD_L5,2021.2.3,MacIntel,60.0024001,m,1,0.6202,,,,,,,,0.6202,1,0,8,8,3,1,1001,MATRIX,m,,,,,,,,,,,,,,,,,,,,,,,,,,,,,,,,,,,,,,,,,,,,,,,,,,,,,
,,,,,,,,,,,,,,,,,199009,19,2022-01-25_21h27.31.248,lexical_decision_task_DD_L5,2021.2.3,MacIntel,60.0024001,m,1,0.5175,,,,,,,,0.5175,1,0,9,9,2,1,1001,ALMOND,m,,,,,,,,,,,,,,,,,,,,,,,,,,,,,,,,,,,,,,,,,,,,,,,,,,,,,
,,,,,,,,,,,,,,,,,199009,19,2022-01-25_21h27.31.248,lexical_decision_task_DD_L5,2021.2.3,MacIntel,60.0024001,z,1,1.1006,,,,,,,,1.1006,1,0,10,10,12,1,1001,SPRINY,z,,,,,,,,,,,,,,,,,,,,,,,,,,,,,,,,,,,,,,,,,,,,,,,,,,,,,
,,,,,,,,,,,,,,,,,199009,19,2022-01-25_21h27.31.248,lexical_decision_task_DD_L5,2021.2.3,MacIntel,60.0024001,z,1,1.4353,,,,,,,,1.4353,1,0,11,11,13,1,1001,ROUPET,z,,,,,,,,,,,,,,,,,,,,,,,,,,,,,,,,,,,,,,,,,,,,,,,,,,,,,
,,,,,,,,,,,,,,,,,199009,19,2022-01-25_21h27.31.248,lexical_decision_task_DD_L5,2021.2.3,MacIntel,60.0024001,z,1,0.9806,,,,,,,,0.9806,1,0,12,12,9,1,1001,FARINY,z,,,,,,,,,,,,,,,,,,,,,,,,,,,,,,,,,,,,,,,,,,,,,,,,,,,,,
,,,,,,,,,,,,,,,,,199009,19,2022-01-25_21h27.31.248,lexical_decision_task_DD_L5,2021.2.3,MacIntel,60.0024001,z,1,1.1252,,,,,,,,1.1252,1,0,13,13,8,1,1001,ASLERT,z,,,,,,,,,,,,,,,,,,,,,,,,,,,,,,,,,,,,,,,,,,,,,,,,,,,,,
,,,,,,,,,,,,,,,,,199009,19,2022-01-25_21h27.31.248,lexical_decision_task_DD_L5,2021.2.3,MacIntel,60.0024001,m,1,0.8494,,,,,,,,0.8494,1,0,14,14,0,1,1001,UTOPIA,m,,,,,,,,,,,,,,,,,,,,,,,,,,,,,,,,,,,,,,,,,,,,,,,,,,,,,
,,,,,,,,,,,,,,,,,199009,19,2022-01-25_21h27.31.248,lexical_decision_task_DD_L5,2021.2.3,MacIntel,60.0024001,m,1,0.7396,,,,,,,,0.7396,1,0,15,15,1,1,1001,ADJUST,m,,,,,,,,,,,,,,,,,,,,,,,,,,,,,,,,,,,,,,,,,,,,,,,,,,,,,
,,-0.030442708,-0.381497396,1,0,0,,,,,,1,end_of_practice,"You have completed the practice trials. During the experimental trials, you will not receive feedback. 
Before you begin, please ensure that you are in a comfortable and quiet location and will not be disturbed for about 15 minutes, as we cannot use your data if you do not complete all the trials. 
 When you are ready to start the experimental trials, please press space or touch the button below.",,,199009,19,2022-01-25_21h27.31.248,lexical_decision_task_DD_L5,2021.2.3,MacIntel,60.0024001,,,,,,,,,,,,,,,,,,,,,instr_done_button,0,0,0,0,1,,,,,,,,,,,,,,,,,,,,,,,,,,,,,,,,,,,,,,,,,,,,,,,
,,,,,,,,,,,,,,,,,199009,19,2022-01-25_21h27.31.248,lexical_decision_task_DD_L5,2021.2.3,MacIntel,60.0024001,,,,,,,,,,,1.2454,0,,,,,,,,,,,,,,,m,0,1.2454,,,,,,,,-0.030442708,-0.381497396,0,0,0,,0,0,0,1,1,TOWEL,LB,old,y,./images/TOWELLB.png,,,,,,,,,,,,,,,,,,,,,
,,,,,,,,,,,,,,,,,199009,19,2022-01-25_21h27.31.248,lexical_decision_task_DD_L5,2021.2.3,MacIntel,60.0024001,,,,,,,,,,,2.4808,0,,,,,,,,,,,,,,,m,0,2.4808,,,,,,,,-0.030442708,-0.381497396,0,0,0,,0,1,1,39,1,CANDY,HB,old,y,./images/CANDYHB.png,,,,,,,,,,,,,,,,,,,,,
,,,,,,,,,,,,,,,,,199009,19,2022-01-25_21h27.31.248,lexical_decision_task_DD_L5,2021.2.3,MacIntel,60.0024001,,,,,,,,,,,1.1545,0,,,,,,,,,,,,,,,z,0,1.1545,,,,,,,,-0.030442708,-0.381497396,0,0,0,,0,2,2,112,1,MYING,HB,old,n,./images/MYINGHB.png,,,,,,,,,,,,,,,,,,,,,
,,,,,,,,,,,,,,,,,199009,19,2022-01-25_21h27.31.248,lexical_decision_task_DD_L5,2021.2.3,MacIntel,60.0024001,,,,,,,,,,,1.1401,0,,,,,,,,,,,,,,,z,0,1.1401,,,,,,,,-0.030442708,-0.381497396,0,0,0,,0,3,3,105,1,MOKER,C,old,n,./images/MOKER.png,,,,,,,,,,,,,,,,,,,,,
,,,,,,,,,,,,,,,,,199009,19,2022-01-25_21h27.31.248,lexical_decision_task_DD_L5,2021.2.3,MacIntel,60.0024001,,,,,,,,,,,0.6466,0,,,,,,,,,,,,,,,m,0,0.6466,,,,,,,,-0.030442708,-0.381497396,0,0,0,,0,4,4,70,1,BANANA,LB,old,y,./images/BANANALB.png,,,,,,,,,,,,,,,,,,,,,
,,,,,,,,,,,,,,,,,199009,19,2022-01-25_21h27.31.248,lexical_decision_task_DD_L5,2021.2.3,MacIntel,60.0024001,,,,,,,,,,,0.6067,0,,,,,,,,,,,,,,,m,0,0.6067,,,,,,,,-0.030442708,-0.381497396,0,0,0,,0,5,5,77,1,WHEEL,C,old,y,./images/WHEEL.png,,,,,,,,,,,,,,,,,,,,,
,,,,,,,,,,,,,,,,,199009,19,2022-01-25_21h27.31.248,lexical_decision_task_DD_L5,2021.2.3,MacIntel,60.0024001,,,,,,,,,,,1.0465,0,,,,,,,,,,,,,,,m,0,1.0465,,,,,,,,-0.030442708,-0.381497396,0,0,0,,0,6,6,75,1,HAMMER,HB,old,y,./images/HAMMERHB.png,,,,,,,,,,,,,,,,,,,,,
,,,,,,,,,,,,,,,,,199009,19,2022-01-25_21h27.31.248,lexical_decision_task_DD_L5,2021.2.3,MacIntel,60.0024001,,,,,,,,,,,0.63,0,,,,,,,,,,,,,,,m,0,0.63,,,,,,,,-0.030442708,-0.381497396,0,0,0,,0,7,7,25,1,CHALK,LB,old,y,./images/CHALKLB.png,,,,,,,,,,,,,,,,,,,,,
,,,,,,,,,,,,,,,,,199009,19,2022-01-25_21h27.31.248,lexical_decision_task_DD_L5,2021.2.3,MacIntel,60.0024001,,,,,,,,,,,0.6645,0,,,,,,,,,,,,,,,m,0,0.6645,,,,,,,,-0.030442708,-0.381497396,0,0,0,,0,8,8,19,1,DONKEY,LB,old,y,./images/DONKEYLB.png,,,,,,,,,,,,,,,,,,,,,
,,,,,,,,,,,,,,,,,199009,19,2022-01-25_21h27.31.248,lexical_decision_task_DD_L5,2021.2.3,MacIntel,60.0024001,,,,,,,,,,,1.2648,0,,,,,,,,,,,,,,,z,0,1.2648,,,,,,,,-0.030442708,-0.381497396,0,0,0,,0,9,9,142,1,PLASK,HB,old,n,./images/PLASKHB.png,,,,,,,,,,,,,,,,,,,,,
,,,,,,,,,,,,,,,,,199009,19,2022-01-25_21h27.31.248,lexical_decision_task_DD_L5,2021.2.3,MacIntel,60.0024001,,,,,,,,,,,0.9658,0,,,,,,,,,,,,,,,z,0,0.9658,,,,,,,,-0.030442708,-0.381497396,0,0,0,,0,10,10,114,1,RIKES,C,old,n,./images/RIKES.png,,,,,,,,,,,,,,,,,,,,,
,,,,,,,,,,,,,,,,,199009,19,2022-01-25_21h27.31.248,lexical_decision_task_DD_L5,2021.2.3,MacIntel,60.0024001,,,,,,,,,,,0.912,0,,,,,,,,,,,,,,,z,0,0.912,,,,,,,,-0.030442708,-0.381497396,0,0,0,,0,11,11,155,1,CANGY,LB,old,n,./images/CANGYLB.png,,,,,,,,,,,,,,,,,,,,,
,,,,,,,,,,,,,,,,,199009,19,2022-01-25_21h27.31.248,lexical_decision_task_DD_L5,2021.2.3,MacIntel,60.0024001,,,,,,,,,,,0.6415,0,,,,,,,,,,,,,,,m,0,0.6415,,,,,,,,-0.030442708,-0.381497396,0,0,0,,0,12,12,28,1,CASINO,LB,old,y,./images/CASINOLB.png,,,,,,,,,,,,,,,,,,,,,
,,,,,,,,,,,,,,,,,199009,19,2022-01-25_21h27.31.248,lexical_decision_task_DD_L5,2021.2.3,MacIntel,60.0024001,,,,,,,,,,,0.6364,0,,,,,,,,,,,,,,,m,0,0.6364,,,,,,,,-0.030442708,-0.381497396,0,0,0,,0,13,13,76,1,MIDGET,LB,old,y,./images/MIDGETLB.png,,,,,,,,,,,,,,,,,,,,,
,,,,,,,,,,,,,,,,,199009,19,2022-01-25_21h27.31.248,lexical_decision_task_DD_L5,2021.2.3,MacIntel,60.0024001,,,,,,,,,,,0.8335,0,,,,,,,,,,,,,,,z,0,0.8335,,,,,,,,-0.030442708,-0.381497396,0,0,0,,0,14,14,131,1,NACES,LB,old,n,./images/NACESLB.png,,,,,,,,,,,,,,,,,,,,,
,,,,,,,,,,,,,,,,,199009,19,2022-01-25_21h27.31.248,lexical_decision_task_DD_L5,2021.2.3,MacIntel,60.0024001,,,,,,,,,,,0.8843,0,,,,,,,,,,,,,,,z,0,0.8843,,,,,,,,-0.030442708,-0.381497396,0,0,0,,0,15,15,86,1,AIFED,LB,old,n,./images/AIFEDLB.png,,,,,,,,,,,,,,,,,,,,,
,,,,,,,,,,,,,,,,,199009,19,2022-01-25_21h27.31.248,lexical_decision_task_DD_L5,2021.2.3,MacIntel,60.0024001,,,,,,,,,,,0.5962,0,,,,,,,,,,,,,,,m,0,0.5962,,,,,,,,-0.030442708,-0.381497396,0,0,0,,0,16,16,2,1,STOVE,C,old,y,./images/STOVE.png,,,,,,,,,,,,,,,,,,,,,
,,,,,,,,,,,,,,,,,199009,19,2022-01-25_21h27.31.248,lexical_decision_task_DD_L5,2021.2.3,MacIntel,60.0024001,,,,,,,,,,,4.3873,0,,,,,,,,,,,,,,,z,0,4.3873,,,,,,,,-0.030442708,-0.381497396,0,0,0,,0,17,17,157,1,INLER,HB,old,n,./images/INLERHB.png,,,,,,,,,,,,,,,,,,,,,
,,,,,,,,,,,,,,,,,199009,19,2022-01-25_21h27.31.248,lexical_decision_task_DD_L5,2021.2.3,MacIntel,60.0024001,,,,,,,,,,,0.7844,0,,,,,,,,,,,,,,,m,0,0.7844,,,,,,,,-0.030442708,-0.381497396,0,0,0,,0,18,18,13,1,BUNNY,LB,old,y,./images/BUNNYLB.png,,,,,,,,,,,,,,,,,,,,,
,,,,,,,,,,,,,,,,,199009,19,2022-01-25_21h27.31.248,lexical_decision_task_DD_L5,2021.2.3,MacIntel,60.0024001,,,,,,,,,,,2.8999,0,,,,,,,,,,,,,,,z,0,2.8999,,,,,,,,-0.030442708,-0.381497396,0,0,0,,0,19,19,150,1,NOOLS,C,old,n,./images/NOOLS.png,,,,,,,,,,,,,,,,,,,,,
,,,,,,,,,,,,,,,,,199009,19,2022-01-25_21h27.31.248,lexical_decision_task_DD_L5,2021.2.3,MacIntel,60.0024001,,,,,,,,,,,0.6902,0,,,,,,,,,,,,,,,m,0,0.6902,,,,,,,,-0.030442708,-0.381497396,0,0,0,,0,20,20,47,1,LAGOON,C,old,y,./images/LAGOON.png,,,,,,,,,,,,,,,,,,,,,
,,,,,,,,,,,,,,,,,199009,19,2022-01-25_21h27.31.248,lexical_decision_task_DD_L5,2021.2.3,MacIntel,60.0024001,,,,,,,,,,,1.8502,0,,,,,,,,,,,,,,,z,0,1.8502,,,,,,,,-0.030442708,-0.381497396,0,0,0,,0,21,21,130,1,CRILL,HB,old,n,./images/CRILLHB.png,,,,,,,,,,,,,,,,,,,,,
,,,,,,,,,,,,,,,,,199009,19,2022-01-25_21h27.31.248,lexical_decision_task_DD_L5,2021.2.3,MacIntel,60.0024001,,,,,,,,,,,1.0681,0,,,,,,,,,,,,,,,m,0,1.0681,,,,,,,,-0.030442708,-0.381497396,0,0,0,,0,22,22,18,1,PARCEL,HB,old,y,./images/PARCELHB.png,,,,,,,,,,,,,,,,,,,,,
,,,,,,,,,,,,,,,,,199009,19,2022-01-25_21h27.31.248,lexical_decision_task_DD_L5,2021.2.3,MacIntel,60.0024001,,,,,,,,,,,0.6831,0,,,,,,,,,,,,,,,m,0,0.6831,,,,,,,,-0.030442708,-0.381497396,0,0,0,,0,23,23,32,1,HOCKEY,C,old,y,./images/HOCKEY.png,,,,,,,,,,,,,,,,,,,,,
,,,,,,,,,,,,,,,,,199009,19,2022-01-25_21h27.31.248,lexical_decision_task_DD_L5,2021.2.3,MacIntel,60.0024001,,,,,,,,,,,1.3801,0,,,,,,,,,,,,,,,m,0,1.3801,,,,,,,,-0.030442708,-0.381497396,0,0,0,,0,24,24,43,1,STOOL,LB,old,y,./images/STOOLLB.png,,,,,,,,,,,,,,,,,,,,,
,,,,,,,,,,,,,,,,,199009,19,2022-01-25_21h27.31.248,lexical_decision_task_DD_L5,2021.2.3,MacIntel,60.0024001,,,,,,,,,,,0.741,0,,,,,,,,,,,,,,,m,0,0.741,,,,,,,,-0.030442708,-0.381497396,0,0,0,,0,25,25,72,1,FLASK,HB,old,y,./images/FLASKHB.png,,,,,,,,,,,,,,,,,,,,,
,,,,,,,,,,,,,,,,,199009,19,2022-01-25_21h27.31.248,lexical_decision_task_DD_L5,2021.2.3,MacIntel,60.0024001,,,,,,,,,,,1.5782,0,,,,,,,,,,,,,,,z,0,1.5782,,,,,,,,-0.030442708,-0.381497396,0,0,0,,0,26,26,97,1,CHIDS,HB,old,n,./images/CHIDSHB.png,,,,,,,,,,,,,,,,,,,,,
,,,,,,,,,,,,,,,,,199009,19,2022-01-25_21h27.31.248,lexical_decision_task_DD_L5,2021.2.3,MacIntel,60.0024001,,,,,,,,,,,1.1169,0,,,,,,,,,,,,,,,m,0,1.1169,,,,,,,,-0.030442708,-0.381497396,0,0,0,,0,27,27,51,1,SAUCE,HB,old,y,./images/SAUCEHB.png,,,,,,,,,,,,,,,,,,,,,
,,,,,,,,,,,,,,,,,199009,19,2022-01-25_21h27.31.248,lexical_decision_task_DD_L5,2021.2.3,MacIntel,60.0024001,,,,,,,,,,,1.4969,0,,,,,,,,,,,,,,,m,0,1.4969,,,,,,,,-0.030442708,-0.381497396,0,0,0,,0,28,28,63,1,BAKER,HB,old,y,./images/BAKERHB.png,,,,,,,,,,,,,,,,,,,,,
,,,,,,,,,,,,,,,,,199009,19,2022-01-25_21h27.31.248,lexical_decision_task_DD_L5,2021.2.3,MacIntel,60.0024001,,,,,,,,,,,1.7151,0,,,,,,,,,,,,,,,z,0,1.7151,,,,,,,,-0.030442708,-0.381497396,0,0,0,,0,29,29,128,1,GRIFT,LB,old,n,./images/GRIFTLB.png,,,,,,,,,,,,,,,,,,,,,
,,,,,,,,,,,,,,,,,199009,19,2022-01-25_21h27.31.248,lexical_decision_task_DD_L5,2021.2.3,MacIntel,60.0024001,,,,,,,,,,,1.2029,0,,,,,,,,,,,,,,,z,0,1.2029,,,,,,,,-0.030442708,-0.381497396,0,0,0,,0,30,30,143,1,MONGS,LB,old,n,./images/MONGSLB.png,,,,,,,,,,,,,,,,,,,,,
,,,,,,,,,,,,,,,,,199009,19,2022-01-25_21h27.31.248,lexical_decision_task_DD_L5,2021.2.3,MacIntel,60.0024001,,,,,,,,,,,0.9557,0,,,,,,,,,,,,,,,z,0,0.9557,,,,,,,,-0.030442708,-0.381497396,0,0,0,,0,31,31,158,1,EGECT,LB,old,n,./images/EGECTLB.png,,,,,,,,,,,,,,,,,,,,,
,,,,,,,,,,,,,,,,,199009,19,2022-01-25_21h27.31.248,lexical_decision_task_DD_L5,2021.2.3,MacIntel,60.0024001,,,,,,,,,,,1.2054,0,,,,,,,,,,,,,,,m,0,1.2054,,,,,,,,-0.030442708,-0.381497396,0,0,0,,0,32,32,151,1,TINKY,HB,old,n,./images/TINKYHB.png,,,,,,,,,,,,,,,,,,,,,
,,,,,,,,,,,,,,,,,199009,19,2022-01-25_21h27.31.248,lexical_decision_task_DD_L5,2021.2.3,MacIntel,60.0024001,,,,,,,,,,,1.1104,0,,,,,,,,,,,,,,,z,0,1.1104,,,,,,,,-0.030442708,-0.381497396,0,0,0,,0,33,33,117,1,STEEG,C,old,n,./images/STEEG.png,,,,,,,,,,,,,,,,,,,,,
,,,,,,,,,,,,,,,,,199009,19,2022-01-25_21h27.31.248,lexical_decision_task_DD_L5,2021.2.3,MacIntel,60.0024001,,,,,,,,,,,2.5541,0,,,,,,,,,,,,,,,z,0,2.5541,,,,,,,,-0.030442708,-0.381497396,0,0,0,,0,34,34,127,1,NINDY,HB,old,n,./images/NINDYHB.png,,,,,,,,,,,,,,,,,,,,,
,,,,,,,,,,,,,,,,,199009,19,2022-01-25_21h27.31.248,lexical_decision_task_DD_L5,2021.2.3,MacIntel,60.0024001,,,,,,,,,,,2.5814,0,,,,,,,,,,,,,,,z,0,2.5814,,,,,,,,-0.030442708,-0.381497396,0,0,0,,0,35,35,145,1,LAMEL,HB,old,n,./images/LAMELHB.png,,,,,,,,,,,,,,,,,,,,,
,,,,,,,,,,,,,,,,,199009,19,2022-01-25_21h27.31.248,lexical_decision_task_DD_L5,2021.2.3,MacIntel,60.0024001,,,,,,,,,,,1.4792,0,,,,,,,,,,,,,,,z,0,1.4792,,,,,,,,-0.030442708,-0.381497396,0,0,0,,0,36,36,135,1,JOODY,C,old,n,./images/JOODY.png,,,,,,,,,,,,,,,,,,,,,
,,,,,,,,,,,,,,,,,199009,19,2022-01-25_21h27.31.248,lexical_decision_task_DD_L5,2021.2.3,MacIntel,60.0024001,,,,,,,,,,,1.1488,0,,,,,,,,,,,,,,,m,0,1.1488,,,,,,,,-0.030442708,-0.381497396,0,0,0,,0,37,37,81,1,DRILL,HB,old,y,./images/DRILLHB.png,,,,,,,,,,,,,,,,,,,,,
,,,,,,,,,,,,,,,,,199009,19,2022-01-25_21h27.31.248,lexical_decision_task_DD_L5,2021.2.3,MacIntel,60.0024001,,,,,,,,,,,0.6707,0,,,,,,,,,,,,,,,m,0,0.6707,,,,,,,,-0.030442708,-0.381497396,0,0,0,,0,38,38,45,1,MONKEY,HB,old,y,./images/MONKEYHB.png,,,,,,,,,,,,,,,,,,,,,
,,,,,,,,,,,,,,,,,199009,19,2022-01-25_21h27.31.248,lexical_decision_task_DD_L5,2021.2.3,MacIntel,60.0024001,,,,,,,,,,,0.8068,0,,,,,,,,,,,,,,,z,0,0.8068,,,,,,,,-0.030442708,-0.381497396,0,0,0,,0,39,39,141,1,PLEET,C,old,n,./images/PLEET.png,,,,,,,,,,,,,,,,,,,,,
,,,,,,,,,,,,,,,,,199009,19,2022-01-25_21h27.31.248,lexical_decision_task_DD_L5,2021.2.3,MacIntel,60.0024001,,,,,,,,,,,1.4835,0,,,,,,,,,,,,,,,m,0,1.4835,,,,,,,,-0.030442708,-0.381497396,0,0,0,,0,40,40,6,1,STAIN,HB,old,y,./images/STAINHB.png,,,,,,,,,,,,,,,,,,,,,
,,,,,,,,,,,,,,,,,199009,19,2022-01-25_21h27.31.248,lexical_decision_task_DD_L5,2021.2.3,MacIntel,60.0024001,,,,,,,,,,,0.7989,0,,,,,,,,,,,,,,,z,0,0.7989,,,,,,,,-0.030442708,-0.381497396,0,0,0,space,0,41,41,147,1,ZOLES,C,old,n,./images/ZOLES.png,205.1764,,,,,,,,,,,,,,,,,,,,
,,,,,,,,,,,,,,,,,199009,19,2022-01-25_21h27.31.248,lexical_decision_task_DD_L5,2021.2.3,MacIntel,60.0024001,,,,,,,,,,,0.9487,0,,,,,,,,,,,,,,,z,0,0.9487,,,,,,,,-0.030442708,-0.381497396,0,0,0,,0,42,42,160,1,VEETS,HB,old,n,./images/VEETSHB.png,,,,,,,,,,,,,,,,,,,,,
,,,,,,,,,,,,,,,,,199009,19,2022-01-25_21h27.31.248,lexical_decision_task_DD_L5,2021.2.3,MacIntel,60.0024001,,,,,,,,,,,0.9914,0,,,,,,,,,,,,,,,z,0,0.9914,,,,,,,,-0.030442708,-0.381497396,0,0,0,,0,43,43,95,1,HANTY,LB,old,n,./images/HANTYLB.png,,,,,,,,,,,,,,,,,,,,,
,,,,,,,,,,,,,,,,,199009,19,2022-01-25_21h27.31.248,lexical_decision_task_DD_L5,2021.2.3,MacIntel,60.0024001,,,,,,,,,,,0.7058,0,,,,,,,,,,,,,,,m,0,0.7058,,,,,,,,-0.030442708,-0.381497396,0,0,0,,0,44,44,42,1,CHAIN,HB,old,y,./images/CHAINHB.png,,,,,,,,,,,,,,,,,,,,,
,,,,,,,,,,,,,,,,,199009,19,2022-01-25_21h27.31.248,lexical_decision_task_DD_L5,2021.2.3,MacIntel,60.0024001,,,,,,,,,,,0.6521,0,,,,,,,,,,,,,,,z,0,0.6521,,,,,,,,-0.030442708,-0.381497396,0,0,0,,0,45,45,116,1,BALGY,LB,old,n,./images/BALGYLB.png,,,,,,,,,,,,,,,,,,,,,
,,,,,,,,,,,,,,,,,199009,19,2022-01-25_21h27.31.248,lexical_decision_task_DD_L5,2021.2.3,MacIntel,60.0024001,,,,,,,,,,,0.7638,0,,,,,,,,,,,,,,,m,0,0.7638,,,,,,,,-0.030442708,-0.381497396,0,0,0,,0,46,46,57,1,FERRY,HB,old,y,./images/FERRYHB.png,,,,,,,,,,,,,,,,,,,,,
,,,,,,,,,,,,,,,,,199009,19,2022-01-25_21h27.31.248,lexical_decision_task_DD_L5,2021.2.3,MacIntel,60.0024001,,,,,,,,,,,1.4009,0,,,,,,,,,,,,,,,z,0,1.4009,,,,,,,,-0.030442708,-0.381497396,0,0,0,,0,47,47,115,1,MAWNS,HB,old,n,./images/MAWNSHB.png,,,,,,,,,,,,,,,,,,,,,
,,,,,,,,,,,,,,,,,199009,19,2022-01-25_21h27.31.248,lexical_decision_task_DD_L5,2021.2.3,MacIntel,60.0024001,,,,,,,,,,,0.5931,0,,,,,,,,,,,,,,,m,0,0.5931,,,,,,,,-0.030442708,-0.381497396,0,0,0,,0,48,48,37,1,TIGER,LB,old,y,./images/TIGERLB.png,,,,,,,,,,,,,,,,,,,,,
,,,,,,,,,,,,,,,,,199009,19,2022-01-25_21h27.31.248,lexical_decision_task_DD_L5,2021.2.3,MacIntel,60.0024001,,,,,,,,,,,0.8906,0,,,,,,,,,,,,,,,z,0,0.8906,,,,,,,,-0.030442708,-0.381497396,0,0,0,,0,49,49,146,1,MOOST,LB,old,n,./images/MOOSTLB.png,,,,,,,,,,,,,,,,,,,,,
,,,,,,,,,,,,,,,,,199009,19,2022-01-25_21h27.31.248,lexical_decision_task_DD_L5,2021.2.3,MacIntel,60.0024001,,,,,,,,,,,0.6498,0,,,,,,,,,,,,,,,m,0,0.6498,,,,,,,,-0.030442708,-0.381497396,0,0,0,,0,50,50,64,1,BRIDE,LB,old,y,./images/BRIDELB.png,,,,,,,,,,,,,,,,,,,,,
,,,,,,,,,,,,,,,,,199009,19,2022-01-25_21h27.31.248,lexical_decision_task_DD_L5,2021.2.3,MacIntel,60.0024001,,,,,,,,,,,0.7921,0,,,,,,,,,,,,,,,z,0,0.7921,,,,,,,,-0.030442708,-0.381497396,0,0,0,,0,51,51,102,1,DULLE,C,old,n,./images/DULLE.png,,,,,,,,,,,,,,,,,,,,,
,,,,,,,,,,,,,,,,,199009,19,2022-01-25_21h27.31.248,lexical_decision_task_DD_L5,2021.2.3,MacIntel,60.0024001,,,,,,,,,,,0.7824,0,,,,,,,,,,,,,,,m,0,0.7824,,,,,,,,-0.030442708,-0.381497396,0,0,0,,0,52,52,24,1,FLESH,HB,old,y,./images/FLESHHB.png,,,,,,,,,,,,,,,,,,,,,
,,,,,,,,,,,,,,,,,199009,19,2022-01-25_21h27.31.248,lexical_decision_task_DD_L5,2021.2.3,MacIntel,60.0024001,,,,,,,,,,,1.1536,0,,,,,,,,,,,,,,,z,0,1.1536,,,,,,,,-0.030442708,-0.381497396,0,0,0,,0,53,53,123,1,SEDGE,C,old,n,./images/SEDGE.png,,,,,,,,,,,,,,,,,,,,,
,,,,,,,,,,,,,,,,,199009,19,2022-01-25_21h27.31.248,lexical_decision_task_DD_L5,2021.2.3,MacIntel,60.0024001,,,,,,,,,,,0.6626,0,,,,,,,,,,,,,,,m,0,0.6626,,,,,,,,-0.030442708,-0.381497396,0,0,0,,0,54,54,159,1,CUDDY,C,old,n,./images/CUDDY.png,,,,,,,,,,,,,,,,,,,,,
,,,,,,,,,,,,,,,,,199009,19,2022-01-25_21h27.31.248,lexical_decision_task_DD_L5,2021.2.3,MacIntel,60.0024001,,,,,,,,,,,0.938,0,,,,,,,,,,,,,,,m,0,0.938,,,,,,,,-0.030442708,-0.381497396,0,0,0,,0,55,55,85,1,CHULK,HB,old,n,./images/CHULKHB.png,,,,,,,,,,,,,,,,,,,,,
,,,,,,,,,,,,,,,,,199009,19,2022-01-25_21h27.31.248,lexical_decision_task_DD_L5,2021.2.3,MacIntel,60.0024001,,,,,,,,,,,3.1963,0,,,,,,,,,,,,,,,z,0,3.1963,,,,,,,,-0.030442708,-0.381497396,0,0,0,,0,56,56,3,1,CRATER,HB,old,y,./images/CRATERHB.png,,,,,,,,,,,,,,,,,,,,,
,,,,,,,,,,,,,,,,,199009,19,2022-01-25_21h27.31.248,lexical_decision_task_DD_L5,2021.2.3,MacIntel,60.0024001,,,,,,,,,,,0.9602,0,,,,,,,,,,,,,,,m,0,0.9602,,,,,,,,-0.030442708,-0.381497396,0,0,0,,0,57,57,8,1,CLIFF,C,old,y,./images/CLIFF.png,,,,,,,,,,,,,,,,,,,,,
,,,,,,,,,,,,,,,,,199009,19,2022-01-25_21h27.31.248,lexical_decision_task_DD_L5,2021.2.3,MacIntel,60.0024001,,,,,,,,,,,0.7983,0,,,,,,,,,,,,,,,z,0,0.7983,,,,,,,,-0.030442708,-0.381497396,0,0,0,,0,58,58,89,1,DRIEK,LB,old,n,./images/DRIEKLB.png,,,,,,,,,,,,,,,,,,,,,
,,,,,,,,,,,,,,,,,199009,19,2022-01-25_21h27.31.248,lexical_decision_task_DD_L5,2021.2.3,MacIntel,60.0024001,,,,,,,,,,,0.901,0,,,,,,,,,,,,,,,z,0,0.901,,,,,,,,-0.030442708,-0.381497396,0,0,0,,0,59,59,111,1,HOSSE,C,old,n,./images/HOSSE.png,,,,,,,,,,,,,,,,,,,,,
,,,,,,,,,,,,,,,,,199009,19,2022-01-25_21h27.31.248,lexical_decision_task_DD_L5,2021.2.3,MacIntel,60.0024001,,,,,,,,,,,0.9379,0,,,,,,,,,,,,,,,z,0,0.9379,,,,,,,,-0.030442708,-0.381497396,0,0,0,,0,60,60,164,1,SGREW,LB,old,n,./images/SGREWLB.png,,,,,,,,,,,,,,,,,,,,,
,,,,,,,,,,,,,,,,,199009,19,2022-01-25_21h27.31.248,lexical_decision_task_DD_L5,2021.2.3,MacIntel,60.0024001,,,,,,,,,,,1.1236,0,,,,,,,,,,,,,,,m,0,1.1236,,,,,,,,-0.030442708,-0.381497396,0,0,0,,0,61,61,30,1,SLOPE,HB,old,y,./images/SLOPEHB.png,,,,,,,,,,,,,,,,,,,,,
,,,,,,,,,,,,,,,,,199009,19,2022-01-25_21h27.31.248,lexical_decision_task_DD_L5,2021.2.3,MacIntel,60.0024001,,,,,,,,,,,1.1564,0,,,,,,,,,,,,,,,z,0,1.1564,,,,,,,,-0.030442708,-0.381497396,0,0,0,,0,62,62,88,1,GLUSH,HB,old,n,./images/GLUSHHB.png,,,,,,,,,,,,,,,,,,,,,
,,,,,,,,,,,,,,,,,199009,19,2022-01-25_21h27.31.248,lexical_decision_task_DD_L5,2021.2.3,MacIntel,60.0024001,,,,,,,,,,,0.7102,0,,,,,,,,,,,,,,,m,0,0.7102,,,,,,,,-0.030442708,-0.381497396,0,0,0,,0,63,63,58,1,CANOE,LB,old,y,./images/CANOELB.png,,,,,,,,,,,,,,,,,,,,,
,,,,,,,,,,,,,,,,,199009,19,2022-01-25_21h27.31.248,lexical_decision_task_DD_L5,2021.2.3,MacIntel,60.0024001,,,,,,,,,,,2.8267,0,,,,,,,,,,,,,,,z,0,2.8267,,,,,,,,-0.030442708,-0.381497396,0,0,0,,0,64,64,90,1,NEAST,C,old,n,./images/NEAST.png,,,,,,,,,,,,,,,,,,,,,
,,,,,,,,,,,,,,,,,199009,19,2022-01-25_21h27.31.248,lexical_decision_task_DD_L5,2021.2.3,MacIntel,60.0024001,,,,,,,,,,,1.1978,0,,,,,,,,,,,,,,,m,0,1.1978,,,,,,,,-0.030442708,-0.381497396,0,0,0,,0,65,65,31,1,STEAK,LB,old,y,./images/STEAKLB.png,,,,,,,,,,,,,,,,,,,,,
,,,,,,,,,,,,,,,,,199009,19,2022-01-25_21h27.31.248,lexical_decision_task_DD_L5,2021.2.3,MacIntel,60.0024001,,,,,,,,,,,1.319,0,,,,,,,,,,,,,,,m,0,1.319,,,,,,,,-0.030442708,-0.381497396,0,0,0,,0,66,66,54,1,CHERRY,HB,old,y,./images/CHERRYHB.png,,,,,,,,,,,,,,,,,,,,,
,,,,,,,,,,,,,,,,,199009,19,2022-01-25_21h27.31.248,lexical_decision_task_DD_L5,2021.2.3,MacIntel,60.0024001,,,,,,,,,,,0.6693,0,,,,,,,,,,,,,,,m,0,0.6693,,,,,,,,-0.030442708,-0.381497396,0,0,0,,0,67,67,40,1,SNAKE,LB,old,y,./images/SNAKELB.png,,,,,,,,,,,,,,,,,,,,,
,,,,,,,,,,,,,,,,,199009,19,2022-01-25_21h27.31.248,lexical_decision_task_DD_L5,2021.2.3,MacIntel,60.0024001,,,,,,,,,,,1.0021,0,,,,,,,,,,,,,,,m,0,1.0021,,,,,,,,-0.030442708,-0.381497396,0,0,0,,0,68,68,66,1,STATUE,HB,old,y,./images/STATUEHB.png,,,,,,,,,,,,,,,,,,,,,
,,,,,,,,,,,,,,,,,199009,19,2022-01-25_21h27.31.248,lexical_decision_task_DD_L5,2021.2.3,MacIntel,60.0024001,,,,,,,,,,,0.7093,0,,,,,,,,,,,,,,,z,0,0.7093,,,,,,,,-0.030442708,-0.381497396,0,0,0,,0,69,69,120,1,RINED,C,old,n,./images/RINED.png,,,,,,,,,,,,,,,,,,,,,
,,,,,,,,,,,,,,,,,199009,19,2022-01-25_21h27.31.248,lexical_decision_task_DD_L5,2021.2.3,MacIntel,60.0024001,,,,,,,,,,,2.3064,0,,,,,,,,,,,,,,,m,0,2.3064,,,,,,,,-0.030442708,-0.381497396,0,0,0,,0,70,70,49,1,BISHOP,LB,old,y,./images/BISHOPLB.png,,,,,,,,,,,,,,,,,,,,,
,,,,,,,,,,,,,,,,,199009,19,2022-01-25_21h27.31.248,lexical_decision_task_DD_L5,2021.2.3,MacIntel,60.0024001,,,,,,,,,,,0.8156,0,,,,,,,,,,,,,,,m,0,0.8156,,,,,,,,-0.030442708,-0.381497396,0,0,0,,0,71,71,100,1,DRIBS,HB,old,n,./images/DRIBSHB.png,,,,,,,,,,,,,,,,,,,,,
,,,,,,,,,,,,,,,,,199009,19,2022-01-25_21h27.31.248,lexical_decision_task_DD_L5,2021.2.3,MacIntel,60.0024001,,,,,,,,,,,0.7974,0,,,,,,,,,,,,,,,m,0,0.7974,,,,,,,,-0.030442708,-0.381497396,0,0,0,,0,72,72,48,1,SHIELD,HB,old,y,./images/SHIELDHB.png,,,,,,,,,,,,,,,,,,,,,
,,,,,,,,,,,,,,,,,199009,19,2022-01-25_21h27.31.248,lexical_decision_task_DD_L5,2021.2.3,MacIntel,60.0024001,,,,,,,,,,,0.6302,0,,,,,,,,,,,,,,,m,0,0.6302,,,,,,,,-0.030442708,-0.381497396,0,0,0,,0,73,73,17,1,PARADE,C,old,y,./images/PARADE.png,,,,,,,,,,,,,,,,,,,,,
,,,,,,,,,,,,,,,,,199009,19,2022-01-25_21h27.31.248,lexical_decision_task_DD_L5,2021.2.3,MacIntel,60.0024001,,,,,,,,,,,0.9817,0,,,,,,,,,,,,,,,z,0,0.9817,,,,,,,,-0.030442708,-0.381497396,0,0,0,,0,74,74,167,1,ZONET,LB,old,n,./images/ZONETLB.png,,,,,,,,,,,,,,,,,,,,,
,,,,,,,,,,,,,,,,,199009,19,2022-01-25_21h27.31.248,lexical_decision_task_DD_L5,2021.2.3,MacIntel,60.0024001,,,,,,,,,,,2.6333,0,,,,,,,,,,,,,,,z,0,2.6333,,,,,,,,-0.030442708,-0.381497396,0,0,0,,0,75,75,149,1,VEASE,LB,old,n,./images/VEASELB.png,,,,,,,,,,,,,,,,,,,,,
,,,,,,,,,,,,,,,,,199009,19,2022-01-25_21h27.31.248,lexical_decision_task_DD_L5,2021.2.3,MacIntel,60.0024001,,,,,,,,,,,2.2671,0,,,,,,,,,,,,,,,m,0,2.2671,,,,,,,,-0.030442708,-0.381497396,0,0,0,,0,76,76,23,1,CLOTH,C,old,y,./images/CLOTH.png,,,,,,,,,,,,,,,,,,,,,
,,,,,,,,,,,,,,,,,199009,19,2022-01-25_21h27.31.248,lexical_decision_task_DD_L5,2021.2.3,MacIntel,60.0024001,,,,,,,,,,,0.6467,0,,,,,,,,,,,,,,,m,0,0.6467,,,,,,,,-0.030442708,-0.381497396,0,0,0,,0,77,77,56,1,HEATER,C,old,y,./images/HEATER.png,,,,,,,,,,,,,,,,,,,,,
,,,,,,,,,,,,,,,,,199009,19,2022-01-25_21h27.31.248,lexical_decision_task_DD_L5,2021.2.3,MacIntel,60.0024001,,,,,,,,,,,0.7814,0,,,,,,,,,,,,,,,m,0,0.7814,,,,,,,,-0.030442708,-0.381497396,0,0,0,,0,78,78,52,1,DESERT,LB,old,y,./images/DESERTLB.png,,,,,,,,,,,,,,,,,,,,,
,,,,,,,,,,,,,,,,,199009,19,2022-01-25_21h27.31.248,lexical_decision_task_DD_L5,2021.2.3,MacIntel,60.0024001,,,,,,,,,,,1.1637,0,,,,,,,,,,,,,,,z,0,1.1637,,,,,,,,-0.030442708,-0.381497396,0,0,0,,0,79,79,103,1,FLORT,HB,old,n,./images/FLORTHB.png,,,,,,,,,,,,,,,,,,,,,
,,,,,,,,,,,,,,,,,199009,19,2022-01-25_21h27.31.248,lexical_decision_task_DD_L5,2021.2.3,MacIntel,60.0024001,,,,,,,,,,,0.9547,0,,,,,,,,,,,,,,,z,0,0.9547,,,,,,,,-0.030442708,-0.381497396,0,0,0,,0,80,80,125,1,MOOKY,LB,old,n,./images/MOOKYLB.png,,,,,,,,,,,,,,,,,,,,,
,,,,,,,,,,,,,,,,,199009,19,2022-01-25_21h27.31.248,lexical_decision_task_DD_L5,2021.2.3,MacIntel,60.0024001,,,,,,,,,,,0.6746,0,,,,,,,,,,,,,,,m,0,0.6746,,,,,,,,-0.030442708,-0.381241319,0,0,0,,0,81,81,65,1,SPINE,C,old,y,./images/SPINE.png,,,,,,,,,,,,,,,,,,,,,
,,,,,,,,,,,,,,,,,199009,19,2022-01-25_21h27.31.248,lexical_decision_task_DD_L5,2021.2.3,MacIntel,60.0024001,,,,,,,,,,,0.7523,0,,,,,,,,,,,,,,,z,0,0.7523,,,,,,,,-0.030442708,-0.381241319,0,0,0,,0,82,82,126,1,GUELS,C,old,n,./images/GUELS.png,,,,,,,,,,,,,,,,,,,,,
,,,,,,,,,,,,,,,,,199009,19,2022-01-25_21h27.31.248,lexical_decision_task_DD_L5,2021.2.3,MacIntel,60.0024001,,,,,,,,,,,1.1712,0,,,,,,,,,,,,,,,z,0,1.1712,,,,,,,,-0.034661458,-0.380342882,0,0,0,space,0,83,83,108,1,GRUET,C,old,n,./images/GRUET.png,168.2425,,,,,,,,,,,,,,,,,,,,
,,,,,,,,,,,,,,,,,199009,19,2022-01-25_21h27.31.248,lexical_decision_task_DD_L5,2021.2.3,MacIntel,60.0024001,,,,,,,,,,,0.9117,0,,,,,,,,,,,,,,,m,0,0.9117,,,,,,,,-0.034661458,-0.380342882,0,0,0,,0,84,84,22,1,CLOWN,LB,old,y,./images/CLOWNLB.png,,,,,,,,,,,,,,,,,,,,,
,,,,,,,,,,,,,,,,,199009,19,2022-01-25_21h27.31.248,lexical_decision_task_DD_L5,2021.2.3,MacIntel,60.0024001,,,,,,,,,,,1.0176,0,,,,,,,,,,,,,,,z,0,1.0176,,,,,,,,-0.034661458,-0.380342882,0,0,0,,0,85,85,148,1,JOMS,HB,old,n,./images/JOMSHB.png,,,,,,,,,,,,,,,,,,,,,
,,,,,,,,,,,,,,,,,199009,19,2022-01-25_21h27.31.248,lexical_decision_task_DD_L5,2021.2.3,MacIntel,60.0024001,,,,,,,,,,,2.1156,0,,,,,,,,,,,,,,,z,0,2.1156,,,,,,,,-0.034661458,-0.380342882,0,0,0,,0,86,86,92,1,PAIMS,LB,old,n,./images/PAIMSLB.png,,,,,,,,,,,,,,,,,,,,,
,,,,,,,,,,,,,,,,,199009,19,2022-01-25_21h27.31.248,lexical_decision_task_DD_L5,2021.2.3,MacIntel,60.0024001,,,,,,,,,,,0.8133,0,,,,,,,,,,,,,,,m,0,0.8133,,,,,,,,-0.034661458,-0.380342882,0,0,0,,0,87,87,27,1,BUTTER,HB,old,y,./images/BUTTERHB.png,,,,,,,,,,,,,,,,,,,,,
,,,,,,,,,,,,,,,,,199009,19,2022-01-25_21h27.31.248,lexical_decision_task_DD_L5,2021.2.3,MacIntel,60.0024001,,,,,,,,,,,0.6837,0,,,,,,,,,,,,,,,m,0,0.6837,,,,,,,,-0.034661458,-0.380342882,0,0,0,,0,88,88,16,1,GRAPE,LB,old,y,./images/GRAPELB.png,,,,,,,,,,,,,,,,,,,,,
,,,,,,,,,,,,,,,,,199009,19,2022-01-25_21h27.31.248,lexical_decision_task_DD_L5,2021.2.3,MacIntel,60.0024001,,,,,,,,,,,0.7694,0,,,,,,,,,,,,,,,m,0,0.7694,,,,,,,,-0.034661458,-0.380342882,0,0,0,,0,89,89,20,1,GRANNY,C,old,y,./images/GRANNY.png,,,,,,,,,,,,,,,,,,,,,
,,,,,,,,,,,,,,,,,199009,19,2022-01-25_21h27.31.248,lexical_decision_task_DD_L5,2021.2.3,MacIntel,60.0024001,,,,,,,,,,,2.8897,0,,,,,,,,,,,,,,,z,0,2.8897,,,,,,,,-0.034661458,-0.380342882,0,0,0,,0,90,90,109,1,BURGE,HB,old,n,./images/BURGEHB.png,,,,,,,,,,,,,,,,,,,,,
,,,,,,,,,,,,,,,,,199009,19,2022-01-25_21h27.31.248,lexical_decision_task_DD_L5,2021.2.3,MacIntel,60.0024001,,,,,,,,,,,1.9818,0,,,,,,,,,,,,,,,m,0,1.9818,,,,,,,,-0.034661458,-0.380342882,0,0,0,,0,91,91,104,1,GITTY,LB,old,n,./images/GITTYLB.png,,,,,,,,,,,,,,,,,,,,,
,,,,,,,,,,,,,,,,,199009,19,2022-01-25_21h27.31.248,lexical_decision_task_DD_L5,2021.2.3,MacIntel,60.0024001,,,,,,,,,,,3.2781,0,,,,,,,,,,,,,,,z,0,3.2781,,,,,,,,-0.034661458,-0.380342882,0,0,0,,0,92,92,124,1,TUNCH,HB,old,n,./images/TUNCHHB.png,,,,,,,,,,,,,,,,,,,,,
,,,,,,,,,,,,,,,,,199009,19,2022-01-25_21h27.31.248,lexical_decision_task_DD_L5,2021.2.3,MacIntel,60.0024001,,,,,,,,,,,0.8342,0,,,,,,,,,,,,,,,m,0,0.8342,,,,,,,,-0.034661458,-0.380342882,0,0,0,,0,93,93,0,1,WALNUT,HB,old,y,./images/WALNUTHB.png,,,,,,,,,,,,,,,,,,,,,
,,,,,,,,,,,,,,,,,199009,19,2022-01-25_21h27.31.248,lexical_decision_task_DD_L5,2021.2.3,MacIntel,60.0024001,,,,,,,,,,,0.6134,0,,,,,,,,,,,,,,,m,0,0.6134,,,,,,,,-0.034661458,-0.380342882,0,0,0,,0,94,94,83,1,WHISKY,C,old,y,./images/WHISKY.png,,,,,,,,,,,,,,,,,,,,,
,,,,,,,,,,,,,,,,,199009,19,2022-01-25_21h27.31.248,lexical_decision_task_DD_L5,2021.2.3,MacIntel,60.0024001,,,,,,,,,,,0.7229,0,,,,,,,,,,,,,,,m,0,0.7229,,,,,,,,-0.034661458,-0.380342882,0,0,0,,0,95,95,110,1,CRUNK,LB,old,n,./images/CRUNKLB.png,,,,,,,,,,,,,,,,,,,,,
,,,,,,,,,,,,,,,,,199009,19,2022-01-25_21h27.31.248,lexical_decision_task_DD_L5,2021.2.3,MacIntel,60.0024001,,,,,,,,,,,1.8146,0,,,,,,,,,,,,,,,z,0,1.8146,,,,,,,,-0.034661458,-0.380342882,0,0,0,,0,96,96,96,1,KEAMS,C,old,n,./images/KEAMS.png,,,,,,,,,,,,,,,,,,,,,
,,,,,,,,,,,,,,,,,199009,19,2022-01-25_21h27.31.248,lexical_decision_task_DD_L5,2021.2.3,MacIntel,60.0024001,,,,,,,,,,,0.7161,0,,,,,,,,,,,,,,,m,0,0.7161,,,,,,,,-0.034661458,-0.380342882,0,0,0,,0,97,97,73,1,GLOVE,LB,old,y,./images/GLOVELB.png,,,,,,,,,,,,,,,,,,,,,
,,,,,,,,,,,,,,,,,199009,19,2022-01-25_21h27.31.248,lexical_decision_task_DD_L5,2021.2.3,MacIntel,60.0024001,,,,,,,,,,,0.6173,0,,,,,,,,,,,,,,,m,0,0.6173,,,,,,,,-0.034661458,-0.380342882,0,0,0,,0,98,98,29,1,PISTOL,C,old,y,./images/PISTOL.png,,,,,,,,,,,,,,,,,,,,,
,,,,,,,,,,,,,,,,,199009,19,2022-01-25_21h27.31.248,lexical_decision_task_DD_L5,2021.2.3,MacIntel,60.0024001,,,,,,,,,,,0.6516,0,,,,,,,,,,,,,,,m,0,0.6516,,,,,,,,-0.034661458,-0.380342882,0,0,0,,0,99,99,71,1,BUBBLE,C,old,y,./images/BUBBLE.png,,,,,,,,,,,,,,,,,,,,,
,,,,,,,,,,,,,,,,,199009,19,2022-01-25_21h27.31.248,lexical_decision_task_DD_L5,2021.2.3,MacIntel,60.0024001,,,,,,,,,,,1.3809,0,,,,,,,,,,,,,,,z,0,1.3809,,,,,,,,-0.034661458,-0.380342882,0,0,0,,0,100,100,118,1,BAVEL,HB,old,n,./images/BAVELHB.png,,,,,,,,,,,,,,,,,,,,,
,,,,,,,,,,,,,,,,,199009,19,2022-01-25_21h27.31.248,lexical_decision_task_DD_L5,2021.2.3,MacIntel,60.0024001,,,,,,,,,,,0.7263,0,,,,,,,,,,,,,,,z,0,0.7263,,,,,,,,-0.034661458,-0.380342882,0,0,0,,0,101,101,84,1,HAXES,C,old,n,./images/HAXES.png,,,,,,,,,,,,,,,,,,,,,
,,,,,,,,,,,,,,,,,199009,19,2022-01-25_21h27.31.248,lexical_decision_task_DD_L5,2021.2.3,MacIntel,60.0024001,,,,,,,,,,,0.6795,0,,,,,,,,,,,,,,,m,0,0.6795,,,,,,,,-0.034661458,-0.380342882,0,0,0,,0,102,102,44,1,BASKET,C,old,y,./images/BASKET.png,,,,,,,,,,,,,,,,,,,,,
,,,,,,,,,,,,,,,,,199009,19,2022-01-25_21h27.31.248,lexical_decision_task_DD_L5,2021.2.3,MacIntel,60.0024001,,,,,,,,,,,0.8669,0,,,,,,,,,,,,,,,m,0,0.8669,,,,,,,,-0.034661458,-0.380342882,0,0,0,,0,103,103,21,1,DANCER,HB,old,y,./images/DANCERHB.png,,,,,,,,,,,,,,,,,,,,,
,,,,,,,,,,,,,,,,,199009,19,2022-01-25_21h27.31.248,lexical_decision_task_DD_L5,2021.2.3,MacIntel,60.0024001,,,,,,,,,,,0.828,0,,,,,,,,,,,,,,,z,0,0.828,,,,,,,,-0.034661458,-0.380342882,0,0,0,,0,104,104,137,1,JOOST,LB,old,n,./images/JOOSTLB.png,,,,,,,,,,,,,,,,,,,,,
,,,,,,,,,,,,,,,,,199009,19,2022-01-25_21h27.31.248,lexical_decision_task_DD_L5,2021.2.3,MacIntel,60.0024001,,,,,,,,,,,0.8607,0,,,,,,,,,,,,,,,z,0,0.8607,,,,,,,,-0.034661458,-0.380342882,0,0,0,,0,105,105,144,1,NAIRY,C,old,n,./images/NAIRY.png,,,,,,,,,,,,,,,,,,,,,
,,,,,,,,,,,,,,,,,199009,19,2022-01-25_21h27.31.248,lexical_decision_task_DD_L5,2021.2.3,MacIntel,60.0024001,,,,,,,,,,,0.9679,0,,,,,,,,,,,,,,,m,0,0.9679,,,,,,,,-0.034661458,-0.380342882,0,0,0,,0,106,106,15,1,COLLAR,HB,old,y,./images/COLLARHB.png,,,,,,,,,,,,,,,,,,,,,
,,,,,,,,,,,,,,,,,199009,19,2022-01-25_21h27.31.248,lexical_decision_task_DD_L5,2021.2.3,MacIntel,60.0024001,,,,,,,,,,,1.0654,0,,,,,,,,,,,,,,,m,0,1.0654,,,,,,,,-0.034661458,-0.380342882,0,0,0,,0,107,107,78,1,BROOM,HB,old,y,./images/BROOMHB.png,,,,,,,,,,,,,,,,,,,,,
,,,,,,,,,,,,,,,,,199009,19,2022-01-25_21h27.31.248,lexical_decision_task_DD_L5,2021.2.3,MacIntel,60.0024001,,,,,,,,,,,1.3347,0,,,,,,,,,,,,,,,m,0,1.3347,,,,,,,,-0.034661458,-0.380342882,0,0,0,,0,108,108,36,1,BOILER,HB,old,y,./images/BOILERHB.png,,,,,,,,,,,,,,,,,,,,,
,,,,,,,,,,,,,,,,,199009,19,2022-01-25_21h27.31.248,lexical_decision_task_DD_L5,2021.2.3,MacIntel,60.0024001,,,,,,,,,,,1.135,0,,,,,,,,,,,,,,,m,0,1.135,,,,,,,,-0.034661458,-0.380342882,0,0,0,,0,109,109,60,1,CURRY,HB,old,y,./images/CURRYHB.png,,,,,,,,,,,,,,,,,,,,,
,,,,,,,,,,,,,,,,,199009,19,2022-01-25_21h27.31.248,lexical_decision_task_DD_L5,2021.2.3,MacIntel,60.0024001,,,,,,,,,,,0.944,0,,,,,,,,,,,,,,,m,0,0.944,,,,,,,,-0.034661458,-0.380342882,0,0,0,,0,110,110,74,1,JUMPER,C,old,y,./images/JUMPER.png,,,,,,,,,,,,,,,,,,,,,
,,,,,,,,,,,,,,,,,199009,19,2022-01-25_21h27.31.248,lexical_decision_task_DD_L5,2021.2.3,MacIntel,60.0024001,,,,,,,,,,,1.6985,0,,,,,,,,,,,,,,,m,0,1.6985,,,,,,,,-0.034661458,-0.380342882,0,0,0,,0,111,111,121,1,CEERS,HB,old,n,./images/CEERSHB.png,,,,,,,,,,,,,,,,,,,,,
,,,,,,,,,,,,,,,,,199009,19,2022-01-25_21h27.31.248,lexical_decision_task_DD_L5,2021.2.3,MacIntel,60.0024001,,,,,,,,,,,0.8497,0,,,,,,,,,,,,,,,m,0,0.8497,,,,,,,,-0.034661458,-0.380342882,0,0,0,,0,112,112,4,1,BOXER,LB,old,y,./images/BOXERLB.png,,,,,,,,,,,,,,,,,,,,,
,,,,,,,,,,,,,,,,,199009,19,2022-01-25_21h27.31.248,lexical_decision_task_DD_L5,2021.2.3,MacIntel,60.0024001,,,,,,,,,,,0.8815,0,,,,,,,,,,,,,,,z,0,0.8815,,,,,,,,-0.034661458,-0.380342882,0,0,0,,0,113,113,139,1,BLEAR,HB,old,n,./images/BLEARHB.png,,,,,,,,,,,,,,,,,,,,,
,,,,,,,,,,,,,,,,,199009,19,2022-01-25_21h27.31.248,lexical_decision_task_DD_L5,2021.2.3,MacIntel,60.0024001,,,,,,,,,,,0.8108,0,,,,,,,,,,,,,,,z,0,0.8108,,,,,,,,-0.034661458,-0.380342882,0,0,0,,0,114,114,165,1,TROWN,C,old,n,./images/TROWN.png,,,,,,,,,,,,,,,,,,,,,
,,,,,,,,,,,,,,,,,199009,19,2022-01-25_21h27.31.248,lexical_decision_task_DD_L5,2021.2.3,MacIntel,60.0024001,,,,,,,,,,,0.9662,0,,,,,,,,,,,,,,,z,0,0.9662,,,,,,,,-0.034661458,-0.380342882,0,0,0,,0,115,115,122,1,BLOOT,LB,old,n,./images/BLOOTLB.png,,,,,,,,,,,,,,,,,,,,,
,,,,,,,,,,,,,,,,,199009,19,2022-01-25_21h27.31.248,lexical_decision_task_DD_L5,2021.2.3,MacIntel,60.0024001,,,,,,,,,,,0.7709,0,,,,,,,,,,,,,,,z,0,0.7709,,,,,,,,-0.034661458,-0.380342882,0,0,0,,0,116,116,119,1,PAFER,LB,old,n,./images/PAFERLB.png,,,,,,,,,,,,,,,,,,,,,
,,,,,,,,,,,,,,,,,199009,19,2022-01-25_21h27.31.248,lexical_decision_task_DD_L5,2021.2.3,MacIntel,60.0024001,,,,,,,,,,,1.4475,0,,,,,,,,,,,,,,,z,0,1.4475,,,,,,,,-0.034661458,-0.380342882,0,0,0,,0,117,117,166,1,SHORY,HB,old,n,./images/SHORYHB.png,,,,,,,,,,,,,,,,,,,,,
,,,,,,,,,,,,,,,,,199009,19,2022-01-25_21h27.31.248,lexical_decision_task_DD_L5,2021.2.3,MacIntel,60.0024001,,,,,,,,,,,0.6998,0,,,,,,,,,,,,,,,m,0,0.6998,,,,,,,,-0.034661458,-0.380342882,0,0,0,,0,118,118,59,1,BRUSH,C,old,y,./images/BRUSH.png,,,,,,,,,,,,,,,,,,,,,
,,,,,,,,,,,,,,,,,199009,19,2022-01-25_21h27.31.248,lexical_decision_task_DD_L5,2021.2.3,MacIntel,60.0024001,,,,,,,,,,,0.7757,0,,,,,,,,,,,,,,,z,0,0.7757,,,,,,,,-0.034661458,-0.380342882,0,0,0,,0,119,119,129,1,PRANS,C,old,n,./images/PRANS.png,,,,,,,,,,,,,,,,,,,,,
,,,,,,,,,,,,,,,,,199009,19,2022-01-25_21h27.31.248,lexical_decision_task_DD_L5,2021.2.3,MacIntel,60.0024001,,,,,,,,,,,0.7766,0,,,,,,,,,,,,,,,z,0,0.7766,,,,,,,,-0.034661458,-0.380342882,0,0,0,,0,120,120,113,1,LINEW,LB,old,n,./images/LINEWLB.png,,,,,,,,,,,,,,,,,,,,,
,,,,,,,,,,,,,,,,,199009,19,2022-01-25_21h27.31.248,lexical_decision_task_DD_L5,2021.2.3,MacIntel,60.0024001,,,,,,,,,,,1.6493,0,,,,,,,,,,,,,,,z,0,1.6493,,,,,,,,-0.034661458,-0.380342882,0,0,0,,0,121,121,136,1,WERVE,HB,old,n,./images/WERVEHB.png,,,,,,,,,,,,,,,,,,,,,
,,,,,,,,,,,,,,,,,199009,19,2022-01-25_21h27.31.248,lexical_decision_task_DD_L5,2021.2.3,MacIntel,60.0024001,,,,,,,,,,,1.3113,0,,,,,,,,,,,,,,,z,0,1.3113,,,,,,,,-0.034661458,-0.380594618,0,0,0,,0,122,122,156,1,HIXES,C,old,n,./images/HIXES.png,,,,,,,,,,,,,,,,,,,,,
,,,,,,,,,,,,,,,,,199009,19,2022-01-25_21h27.31.248,lexical_decision_task_DD_L5,2021.2.3,MacIntel,60.0024001,,,,,,,,,,,0.6148,0,,,,,,,,,,,,,,,m,0,0.6148,,,,,,,,-0.034661458,-0.380850694,0,0,0,,0,123,123,41,1,STREAM,C,old,y,./images/STREAM.png,,,,,,,,,,,,,,,,,,,,,
,,,,,,,,,,,,,,,,,199009,19,2022-01-25_21h27.31.248,lexical_decision_task_DD_L5,2021.2.3,MacIntel,60.0024001,,,,,,,,,,,0.7943,0,,,,,,,,,,,,,,,m,0,0.7943,,,,,,,,-0.034661458,-0.380850694,0,0,0,,0,124,124,62,1,MAMMAL,C,old,y,./images/MAMMAL.png,,,,,,,,,,,,,,,,,,,,,
,,,,,,,,,,,,,,,,,199009,19,2022-01-25_21h27.31.248,lexical_decision_task_DD_L5,2021.2.3,MacIntel,60.0024001,,,,,,,,,,,0.8742,0,,,,,,,,,,,,,,,m,0,0.8742,,,,,,,,-0.037756076,-0.381102431,0,0,0,space,0,125,125,5,1,BAMBOO,C,old,y,./images/BAMBOO.png,61.4061,,,,,,,,,,,,,,,,,,,,
,,,,,,,,,,,,,,,,,199009,19,2022-01-25_21h27.31.248,lexical_decision_task_DD_L5,2021.2.3,MacIntel,60.0024001,,,,,,,,,,,0.6979,0,,,,,,,,,,,,,,,m,0,0.6979,,,,,,,,-0.037756076,-0.381102431,0,0,0,,0,126,126,35,1,LLAMA,C,old,y,./images/LLAMA.png,,,,,,,,,,,,,,,,,,,,,
,,,,,,,,,,,,,,,,,199009,19,2022-01-25_21h27.31.248,lexical_decision_task_DD_L5,2021.2.3,MacIntel,60.0024001,,,,,,,,,,,1.3472,0,,,,,,,,,,,,,,,m,0,1.3472,,,,,,,,-0.037756076,-0.381102431,0,0,0,,0,127,127,9,1,DIVER,HB,old,y,./images/DIVERHB.png,,,,,,,,,,,,,,,,,,,,,
,,,,,,,,,,,,,,,,,199009,19,2022-01-25_21h27.31.248,lexical_decision_task_DD_L5,2021.2.3,MacIntel,60.0024001,,,,,,,,,,,0.6049,0,,,,,,,,,,,,,,,m,0,0.6049,,,,,,,,-0.037756076,-0.381102431,0,0,0,,0,128,128,34,1,RAZOR,LB,old,y,./images/RAZORLB.png,,,,,,,,,,,,,,,,,,,,,
,,,,,,,,,,,,,,,,,199009,19,2022-01-25_21h27.31.248,lexical_decision_task_DD_L5,2021.2.3,MacIntel,60.0024001,,,,,,,,,,,2.0807,0,,,,,,,,,,,,,,,z,0,2.0807,,,,,,,,-0.037756076,-0.381102431,0,0,0,,0,129,129,140,1,DOVET,LB,old,n,./images/DOVETLB.png,,,,,,,,,,,,,,,,,,,,,
,,,,,,,,,,,,,,,,,199009,19,2022-01-25_21h27.31.248,lexical_decision_task_DD_L5,2021.2.3,MacIntel,60.0024001,,,,,,,,,,,0.744,0,,,,,,,,,,,,,,,z,0,0.744,,,,,,,,-0.037756076,-0.381102431,0,0,0,,0,130,130,132,1,SCIFF,C,old,n,./images/SCIFF.png,,,,,,,,,,,,,,,,,,,,,
,,,,,,,,,,,,,,,,,199009,19,2022-01-25_21h27.31.248,lexical_decision_task_DD_L5,2021.2.3,MacIntel,60.0024001,,,,,,,,,,,1.786,0,,,,,,,,,,,,,,,z,0,1.786,,,,,,,,-0.037756076,-0.381102431,0,0,0,,0,131,131,154,1,THINT,HB,old,n,./images/THINTHB.png,,,,,,,,,,,,,,,,,,,,,
,,,,,,,,,,,,,,,,,199009,19,2022-01-25_21h27.31.248,lexical_decision_task_DD_L5,2021.2.3,MacIntel,60.0024001,,,,,,,,,,,0.8348,0,,,,,,,,,,,,,,,z,0,0.8348,,,,,,,,-0.037756076,-0.381102431,0,0,0,,0,132,132,152,1,FRAIN,LB,old,n,./images/FRAINLB.png,,,,,,,,,,,,,,,,,,,,,
,,,,,,,,,,,,,,,,,199009,19,2022-01-25_21h27.31.248,lexical_decision_task_DD_L5,2021.2.3,MacIntel,60.0024001,,,,,,,,,,,0.6765,0,,,,,,,,,,,,,,,z,0,0.6765,,,,,,,,-0.037756076,-0.381102431,0,0,0,,0,133,133,138,1,PLICE,C,old,n,./images/PLICE.png,,,,,,,,,,,,,,,,,,,,,
,,,,,,,,,,,,,,,,,199009,19,2022-01-25_21h27.31.248,lexical_decision_task_DD_L5,2021.2.3,MacIntel,60.0024001,,,,,,,,,,,0.7629,0,,,,,,,,,,,,,,,z,0,0.7629,,,,,,,,-0.037756076,-0.381102431,0,0,0,,0,134,134,87,1,TRING,C,old,n,./images/TRING.png,,,,,,,,,,,,,,,,,,,,,
,,,,,,,,,,,,,,,,,199009,19,2022-01-25_21h27.31.248,lexical_decision_task_DD_L5,2021.2.3,MacIntel,60.0024001,,,,,,,,,,,1.1253,0,,,,,,,,,,,,,,,m,0,1.1253,,,,,,,,-0.037756076,-0.381102431,0,0,0,,0,135,135,11,1,MEDAL,C,old,y,./images/MEDAL.png,,,,,,,,,,,,,,,,,,,,,
,,,,,,,,,,,,,,,,,199009,19,2022-01-25_21h27.31.248,lexical_decision_task_DD_L5,2021.2.3,MacIntel,60.0024001,,,,,,,,,,,1.2797,0,,,,,,,,,,,,,,,z,0,1.2797,,,,,,,,-0.037756076,-0.381102431,0,0,0,,0,136,136,98,1,BAMPS,LB,old,n,./images/BAMPSLB.png,,,,,,,,,,,,,,,,,,,,,
,,,,,,,,,,,,,,,,,199009,19,2022-01-25_21h27.31.248,lexical_decision_task_DD_L5,2021.2.3,MacIntel,60.0024001,,,,,,,,,,,0.813,0,,,,,,,,,,,,,,,z,0,0.813,,,,,,,,-0.037756076,-0.381102431,0,0,0,,0,137,137,107,1,FASKS,LB,old,n,./images/FASKSLB.png,,,,,,,,,,,,,,,,,,,,,
,,,,,,,,,,,,,,,,,199009,19,2022-01-25_21h27.31.248,lexical_decision_task_DD_L5,2021.2.3,MacIntel,60.0024001,,,,,,,,,,,0.7346,0,,,,,,,,,,,,,,,m,0,0.7346,,,,,,,,-0.037756076,-0.381102431,0,0,0,,0,138,138,55,1,ALLEY,LB,old,y,./images/ALLEYLB.png,,,,,,,,,,,,,,,,,,,,,
,,,,,,,,,,,,,,,,,199009,19,2022-01-25_21h27.31.248,lexical_decision_task_DD_L5,2021.2.3,MacIntel,60.0024001,,,,,,,,,,,0.6991,0,,,,,,,,,,,,,,,m,0,0.6991,,,,,,,,-0.037756076,-0.381354167,0,0,0,,0,139,139,14,1,FENCE,C,old,y,./images/FENCE.png,,,,,,,,,,,,,,,,,,,,,
,,,,,,,,,,,,,,,,,199009,19,2022-01-25_21h27.31.248,lexical_decision_task_DD_L5,2021.2.3,MacIntel,60.0024001,,,,,,,,,,,0.808,0,,,,,,,,,,,,,,,m,0,0.808,,,,,,,,-0.037756076,-0.381354167,0,0,0,,0,140,140,53,1,POSTER,C,old,y,./images/POSTER.png,,,,,,,,,,,,,,,,,,,,,
,,,,,,,,,,,,,,,,,199009,19,2022-01-25_21h27.31.248,lexical_decision_task_DD_L5,2021.2.3,MacIntel,60.0024001,,,,,,,,,,,0.5795,0,,,,,,,,,,,,,,,m,0,0.5795,,,,,,,,-0.037756076,-0.381354167,0,0,0,,0,141,141,67,1,POKER,LB,old,y,./images/POKERLB.png,,,,,,,,,,,,,,,,,,,,,
,,,,,,,,,,,,,,,,,199009,19,2022-01-25_21h27.31.248,lexical_decision_task_DD_L5,2021.2.3,MacIntel,60.0024001,,,,,,,,,,,1.1123,0,,,,,,,,,,,,,,,m,0,1.1123,,,,,,,,-0.037756076,-0.381354167,0,0,0,,0,142,142,106,1,CLUMS,HB,old,n,./images/CLUMSHB.png,,,,,,,,,,,,,,,,,,,,,
,,,,,,,,,,,,,,,,,199009,19,2022-01-25_21h27.31.248,lexical_decision_task_DD_L5,2021.2.3,MacIntel,60.0024001,,,,,,,,,,,0.7439,0,,,,,,,,,,,,,,,z,0,0.7439,,,,,,,,-0.037756076,-0.381354167,0,0,0,,0,143,143,93,1,SMONE,C,old,n,./images/SMONE.png,,,,,,,,,,,,,,,,,,,,,
,,,,,,,,,,,,,,,,,199009,19,2022-01-25_21h27.31.248,lexical_decision_task_DD_L5,2021.2.3,MacIntel,60.0024001,,,,,,,,,,,0.7332,0,,,,,,,,,,,,,,,z,0,0.7332,,,,,,,,-0.037756076,-0.381354167,0,0,0,,0,144,144,161,1,BLAPS,LB,old,n,./images/BLAPSLB.png,,,,,,,,,,,,,,,,,,,,,
,,,,,,,,,,,,,,,,,199009,19,2022-01-25_21h27.31.248,lexical_decision_task_DD_L5,2021.2.3,MacIntel,60.0024001,,,,,,,,,,,0.9382,0,,,,,,,,,,,,,,,m,0,0.9382,,,,,,,,-0.037756076,-0.381354167,0,0,0,,0,145,145,46,1,MUMMY,LB,old,y,./images/MUMMYLB.png,,,,,,,,,,,,,,,,,,,,,
,,,,,,,,,,,,,,,,,199009,19,2022-01-25_21h27.31.248,lexical_decision_task_DD_L5,2021.2.3,MacIntel,60.0024001,,,,,,,,,,,0.7842,0,,,,,,,,,,,,,,,m,0,0.7842,,,,,,,,-0.037756076,-0.381354167,0,0,0,,0,146,146,61,1,ARTIST,LB,old,y,./images/ARTISTLB.png,,,,,,,,,,,,,,,,,,,,,
,,,,,,,,,,,,,,,,,199009,19,2022-01-25_21h27.31.248,lexical_decision_task_DD_L5,2021.2.3,MacIntel,60.0024001,,,,,,,,,,,0.877,0,,,,,,,,,,,,,,,m,0,0.877,,,,,,,,-0.037756076,-0.381354167,0,0,0,,0,147,147,162,1,LEICH,C,old,n,./images/LEICH.png,,,,,,,,,,,,,,,,,,,,,
,,,,,,,,,,,,,,,,,199009,19,2022-01-25_21h27.31.248,lexical_decision_task_DD_L5,2021.2.3,MacIntel,60.0024001,,,,,,,,,,,0.7116,0,,,,,,,,,,,,,,,z,0,0.7116,,,,,,,,-0.037756076,-0.381354167,0,0,0,,0,148,148,134,1,TROSS,LB,old,n,./images/TROSSLB.png,,,,,,,,,,,,,,,,,,,,,
,,,,,,,,,,,,,,,,,199009,19,2022-01-25_21h27.31.248,lexical_decision_task_DD_L5,2021.2.3,MacIntel,60.0024001,,,,,,,,,,,0.5866,0,,,,,,,,,,,,,,,m,0,0.5866,,,,,,,,-0.037756076,-0.381354167,0,0,0,,0,149,149,79,1,RULER,LB,old,y,./images/RULERLB.png,,,,,,,,,,,,,,,,,,,,,
,,,,,,,,,,,,,,,,,199009,19,2022-01-25_21h27.31.248,lexical_decision_task_DD_L5,2021.2.3,MacIntel,60.0024001,,,,,,,,,,,1.9029,0,,,,,,,,,,,,,,,z,0,1.9029,,,,,,,,-0.037756076,-0.381354167,0,0,0,,0,150,150,91,1,SHENS,HB,old,n,./images/SHENSHB.png,,,,,,,,,,,,,,,,,,,,,
,,,,,,,,,,,,,,,,,199009,19,2022-01-25_21h27.31.248,lexical_decision_task_DD_L5,2021.2.3,MacIntel,60.0024001,,,,,,,,,,,1.0843,0,,,,,,,,,,,,,,,z,0,1.0843,,,,,,,,-0.037756076,-0.381354167,0,0,0,,0,151,151,163,1,GAMBA,HB,old,n,./images/GAMBAHB.png,,,,,,,,,,,,,,,,,,,,,
,,,,,,,,,,,,,,,,,199009,19,2022-01-25_21h27.31.248,lexical_decision_task_DD_L5,2021.2.3,MacIntel,60.0024001,,,,,,,,,,,0.7003,0,,,,,,,,,,,,,,,m,0,0.7003,,,,,,,,-0.037756076,-0.381354167,0,0,0,,0,152,152,69,1,ARROW,HB,old,y,./images/ARROWHB.png,,,,,,,,,,,,,,,,,,,,,
,,,,,,,,,,,,,,,,,199009,19,2022-01-25_21h27.31.248,lexical_decision_task_DD_L5,2021.2.3,MacIntel,60.0024001,,,,,,,,,,,0.8515,0,,,,,,,,,,,,,,,z,0,0.8515,,,,,,,,-0.037756076,-0.381354167,0,0,0,,0,153,153,94,1,BLANS,HB,old,n,./images/BLANSHB.png,,,,,,,,,,,,,,,,,,,,,
,,,,,,,,,,,,,,,,,199009,19,2022-01-25_21h27.31.248,lexical_decision_task_DD_L5,2021.2.3,MacIntel,60.0024001,,,,,,,,,,,0.6082,0,,,,,,,,,,,,,,,m,0,0.6082,,,,,,,,-0.037756076,-0.381354167,0,0,0,,0,154,154,38,1,ENGINE,C,old,y,./images/ENGINE.png,,,,,,,,,,,,,,,,,,,,,
,,,,,,,,,,,,,,,,,199009,19,2022-01-25_21h27.31.248,lexical_decision_task_DD_L5,2021.2.3,MacIntel,60.0024001,,,,,,,,,,,1.2006,0,,,,,,,,,,,,,,,m,0,1.2006,,,,,,,,-0.037756076,-0.381354167,0,0,0,,0,155,155,12,1,BLOKE,HB,old,y,./images/BLOKEHB.png,,,,,,,,,,,,,,,,,,,,,
,,,,,,,,,,,,,,,,,199009,19,2022-01-25_21h27.31.248,lexical_decision_task_DD_L5,2021.2.3,MacIntel,60.0024001,,,,,,,,,,,0.6683,0,,,,,,,,,,,,,,,z,0,0.6683,,,,,,,,-0.037756076,-0.381354167,0,0,0,,0,156,156,153,1,CLUPS,C,old,n,./images/CLUPS.png,,,,,,,,,,,,,,,,,,,,,
,,,,,,,,,,,,,,,,,199009,19,2022-01-25_21h27.31.248,lexical_decision_task_DD_L5,2021.2.3,MacIntel,60.0024001,,,,,,,,,,,0.6867,0,,,,,,,,,,,,,,,m,0,0.6867,,,,,,,,-0.037756076,-0.381354167,0,0,0,,0,157,157,50,1,PILOT,C,old,y,./images/PILOT.png,,,,,,,,,,,,,,,,,,,,,
,,,,,,,,,,,,,,,,,199009,19,2022-01-25_21h27.31.248,lexical_decision_task_DD_L5,2021.2.3,MacIntel,60.0024001,,,,,,,,,,,0.7084,0,,,,,,,,,,,,,,,m,0,0.7084,,,,,,,,-0.037756076,-0.381354167,0,0,0,,0,158,158,82,1,PEBBLE,LB,old,y,./images/PEBBLELB.png,,,,,,,,,,,,,,,,,,,,,
,,,,,,,,,,,,,,,,,199009,19,2022-01-25_21h27.31.248,lexical_decision_task_DD_L5,2021.2.3,MacIntel,60.0024001,,,,,,,,,,,0.5854,0,,,,,,,,,,,,,,,m,0,0.5854,,,,,,,,-0.037756076,-0.381354167,0,0,0,,0,159,159,10,1,GARDEN,LB,old,y,./images/GARDENLB.png,,,,,,,,,,,,,,,,,,,,,
,,,,,,,,,,,,,,,,,199009,19,2022-01-25_21h27.31.248,lexical_decision_task_DD_L5,2021.2.3,MacIntel,60.0024001,,,,,,,,,,,0.5499,0,,,,,,,,,,,,,,,m,0,0.5499,,,,,,,,-0.037756076,-0.381354167,0,0,0,,0,160,160,26,1,CLOUD,C,old,y,./images/CLOUD.png,,,,,,,,,,,,,,,,,,,,,
,,,,,,,,,,,,,,,,,199009,19,2022-01-25_21h27.31.248,lexical_decision_task_DD_L5,2021.2.3,MacIntel,60.0024001,,,,,,,,,,,2.168,0,,,,,,,,,,,,,,,m,0,2.168,,,,,,,,-0.037756076,-0.381354167,0,0,0,,0,161,161,33,1,SAUNA,HB,old,y,./images/SAUNAHB.png,,,,,,,,,,,,,,,,,,,,,
,,,,,,,,,,,,,,,,,199009,19,2022-01-25_21h27.31.248,lexical_decision_task_DD_L5,2021.2.3,MacIntel,60.0024001,,,,,,,,,,,0.9954,0,,,,,,,,,,,,,,,m,0,0.9954,,,,,,,,-0.037756076,-0.381354167,0,0,0,,0,162,162,7,1,WAGON,LB,old,y,./images/WAGONLB.png,,,,,,,,,,,,,,,,,,,,,
,,,,,,,,,,,,,,,,,199009,19,2022-01-25_21h27.31.248,lexical_decision_task_DD_L5,2021.2.3,MacIntel,60.0024001,,,,,,,,,,,0.6108,0,,,,,,,,,,,,,,,m,0,0.6108,,,,,,,,-0.037756076,-0.381354167,0,0,0,,0,163,163,68,1,VALLEY,C,old,y,./images/VALLEY.png,,,,,,,,,,,,,,,,,,,,,
,,,,,,,,,,,,,,,,,199009,19,2022-01-25_21h27.31.248,lexical_decision_task_DD_L5,2021.2.3,MacIntel,60.0024001,,,,,,,,,,,0.5783,0,,,,,,,,,,,,,,,m,0,0.5783,,,,,,,,-0.037756076,-0.381354167,0,0,0,,0,164,164,80,1,PLANET,C,old,y,./images/PLANET.png,,,,,,,,,,,,,,,,,,,,,
,,,,,,,,,,,,,,,,,199009,19,2022-01-25_21h27.31.248,lexical_decision_task_DD_L5,2021.2.3,MacIntel,60.0024001,,,,,,,,,,,0.8159,0,,,,,,,,,,,,,,,z,0,0.8159,,,,,,,,-0.037756076,-0.381354167,0,0,0,,0,165,165,101,1,GLEET,LB,old,n,./images/GLEETLB.png,,,,,,,,,,,,,,,,,,,,,
,,,,,,,,,,,,,,,,,199009,19,2022-01-25_21h27.31.248,lexical_decision_task_DD_L5,2021.2.3,MacIntel,60.0024001,,,,,,,,,,,1.0359,0,,,,,,,,,,,,,,,z,0,1.0359,,,,,,,,-0.037756076,-0.381354167,0,0,0,,0,166,166,133,1,POWDY,HB,old,n,./images/POWDYHB.png,,,,,,,,,,,,,,,,,,,,,
,,,,,,,,,,,,,,,,,199009,19,2022-01-25_21h27.31.248,lexical_decision_task_DD_L5,2021.2.3,MacIntel,60.0024001,,,,,,,,,,,0.9935,0,,,,,,,,,,,,,,,z,0,0.9935,,,,,,,,-0.037756076,-0.381354167,0,0,0,,0,167,167,99,1,BACKY,C,old,n,./images/BACKY.png,,,,,,,,,,,,,,,,,,,,,
space,16.3867,-0.037756076,-0.381354167,0,0,0,,,,,,1,test,"In the next phase you will be presented with the words from the the first phase. Your job is to decide whether you remember seeing the word or not. If you remember seeing the word press ""old"" or type ""m"". If you do not remember seeing the word press ""new"" or type ""z"". Please press the space bar or click on continue to begin. ",,,199009,19,2022-01-25_21h27.31.248,lexical_decision_task_DD_L5,2021.2.3,MacIntel,60.0024001,,,,,,,,,,,,,,,,,,,,,,,,,,,,,,,,,,,,,,,,,,,,,,,,,,,,,,0,0,0,0,1,,,,,,,,,,,,,,,
space,0.6459,-0.037756076,-0.381354167,0,0,0,,,,,,1,test,"In the next phase you will be presented with the words from the the first phase. Your job is to decide whether you remember seeing the word or not. If you remember seeing the word press ""old"" or type ""m"". If you do not remember seeing the word press ""new"" or type ""z"". Please press the space bar or click on continue to begin. ",,,199009,19,2022-01-25_21h27.31.248,lexical_decision_task_DD_L5,2021.2.3,MacIntel,60.0024001,,,,,,,,,,,,,,,,,,,,,,,,,,,,,,,,,,,,,,,,,,,,,,,,,,,,,,1,0,1,0,1,,,,,,,,,,,,,,,
,,-0.037756076,-0.381354167,1,0,0,,,,,,1,test,"In the next phase you will be presented with the words from the the first phase. Your job is to decide whether you remember seeing the word or not. If you remember seeing the word press ""old"" or type ""m"". If you do not remember seeing the word press ""new"" or type ""z"". Please press the space bar or click on continue to begin. ",,,199009,19,2022-01-25_21h27.31.248,lexical_decision_task_DD_L5,2021.2.3,MacIntel,60.0024001,,,,,,,,,,,,,,,,,,,,,instr_done_button,,,,,,,,,,,,,,,,,,,,,,,,,,,,,,,,,2,0,2,0,1,,,,,,,,,,,,,,,
space,1.0424,-0.048402778,-0.387547743,0,0,0,,,,,,1,test,"In the next phase you will be presented with the words from the the first phase. Your job is to decide whether you remember seeing the word or not. If you remember seeing the word press ""old"" or type ""m"". If you do not remember seeing the word press ""new"" or type ""z"". Please press the space bar or click on continue to begin. ",,,199009,19,2022-01-25_21h27.31.248,lexical_decision_task_DD_L5,2021.2.3,MacIntel,60.0024001,,,,,,,,,,,,,,,,,,,,,,,,,,,,,,,,,,,,,,,,,,,,,,,,,,,,,,3,0,3,0,1,,,,,,,,,,,,,,,
,,-0.0371875,-0.381323785,1,0,0,,,,,,1,test,"In the next phase you will be presented with the words from the the first phase. Your job is to decide whether you remember seeing the word or not. If you remember seeing the word press ""old"" or type ""m"". If you do not remember seeing the word press ""new"" or type ""z"". Please press the space bar or click on continue to begin. ",,,199009,19,2022-01-25_21h27.31.248,lexical_decision_task_DD_L5,2021.2.3,MacIntel,60.0024001,,,,,,,,,,,,,,,,,,,,,instr_done_button,,,,,,,,,,,,,,,,,,,,,,,,,,,,,,,,,4,0,4,0,1,,,,,,,,,,,,,,,
,,,,,,,,,,,,,,,,,199009,19,2022-01-25_21h27.31.248,lexical_decision_task_DD_L5,2021.2.3,MacIntel,60.0024001,,,,,,,,,,,2.7093,0,,,,,,,,,,,,,,,,,,,,,,,,,-0.027256944,-0.308576389,0,0,0,,,,,,,POKER,LB,old,y,./images/POKERLB.png,,,,,,,m,0,2.7093,,,,,,,,0,0,0,67,1
,,,,,,,,,,,,,,,,,199009,19,2022-01-25_21h27.31.248,lexical_decision_task_DD_L5,2021.2.3,MacIntel,60.0024001,,,,,,,,,,,1.4314,0,,,,,,,,,,,,,,,,,,,,,,,,,-0.027256944,-0.308576389,0,0,0,,,,,,,CLIFF,C,old,y,./images/CLIFF.png,,,,,,,m,0,1.4314,,,,,,,,0,1,1,8,1
,,,,,,,,,,,,,,,,,199009,19,2022-01-25_21h27.31.248,lexical_decision_task_DD_L5,2021.2.3,MacIntel,60.0024001,,,,,,,,,,,1.1185,0,,,,,,,,,,,,,,,,,,,,,,,,,-0.027256944,-0.308576389,0,0,0,,,,,,,FARMER,C,new,y,./images/FARMER.png,,,,,,,z,0,1.1185,,,,,,,,0,2,2,149,1
,,,,,,,,,,,,,,,,,199009,19,2022-01-25_21h27.31.248,lexical_decision_task_DD_L5,2021.2.3,MacIntel,60.0024001,,,,,,,,,,,2.2308,0,,,,,,,,,,,,,,,,,,,,,,,,,-0.027256944,-0.308576389,0,0,0,,,,,,,BUTTER,HB,old,y,./images/BUTTERHB.png,,,,,,,m,0,2.2308,,,,,,,,0,3,3,27,1
,,,,,,,,,,,,,,,,,199009,19,2022-01-25_21h27.31.248,lexical_decision_task_DD_L5,2021.2.3,MacIntel,60.0024001,,,,,,,,,,,1.3807,0,,,,,,,,,,,,,,,,,,,,,,,,,-0.027256944,-0.308576389,0,0,0,,,,,,,STRING,C,new,y,./images/STRING.png,,,,,,,m,0,1.3807,,,,,,,,0,4,4,125,1
,,,,,,,,,,,,,,,,,199009,19,2022-01-25_21h27.31.248,lexical_decision_task_DD_L5,2021.2.3,MacIntel,60.0024001,,,,,,,,,,,1.5502,0,,,,,,,,,,,,,,,,,,,,,,,,,-0.027256944,-0.308576389,0,0,0,,,,,,,BASKET,C,old,y,./images/BASKET.png,,,,,,,m,0,1.5502,,,,,,,,0,5,5,44,1
,,,,,,,,,,,,,,,,,199009,19,2022-01-25_21h27.31.248,lexical_decision_task_DD_L5,2021.2.3,MacIntel,60.0024001,,,,,,,,,,,0.8909,0,,,,,,,,,,,,,,,,,,,,,,,,,-0.027256944,-0.308576389,0,0,0,,,,,,,CANDY,HB,old,y,./images/CANDYHB.png,,,,,,,m,0,0.8909,,,,,,,,0,6,6,39,1
,,,,,,,,,,,,,,,,,199009,19,2022-01-25_21h27.31.248,lexical_decision_task_DD_L5,2021.2.3,MacIntel,60.0024001,,,,,,,,,,,1.1939,0,,,,,,,,,,,,,,,,,,,,,,,,,-0.027256944,-0.308576389,0,0,0,,,,,,,COLLAR,HB,old,y,./images/COLLARHB.png,,,,,,,z,0,1.1939,,,,,,,,0,7,7,15,1
,,,,,,,,,,,,,,,,,199009,19,2022-01-25_21h27.31.248,lexical_decision_task_DD_L5,2021.2.3,MacIntel,60.0024001,,,,,,,,,,,0.7314,0,,,,,,,,,,,,,,,,,,,,,,,,,-0.027256944,-0.308576389,0,0,0,,,,,,,POSTER,C,old,y,./images/POSTER.png,,,,,,,m,0,0.7314,,,,,,,,0,8,8,53,1
,,,,,,,,,,,,,,,,,199009,19,2022-01-25_21h27.31.248,lexical_decision_task_DD_L5,2021.2.3,MacIntel,60.0024001,,,,,,,,,,,1.8906,0,,,,,,,,,,,,,,,,,,,,,,,,,-0.027256944,-0.308576389,0,0,0,,,,,,,GRANNY,C,old,y,./images/GRANNY.png,,,,,,,m,0,1.8906,,,,,,,,0,9,9,20,1
,,,,,,,,,,,,,,,,,199009,19,2022-01-25_21h27.31.248,lexical_decision_task_DD_L5,2021.2.3,MacIntel,60.0024001,,,,,,,,,,,1.3529,0,,,,,,,,,,,,,,,,,,,,,,,,,-0.027256944,-0.308576389,0,0,0,,,,,,,CEMENT,C,new,y,./images/CEMENT.png,,,,,,,z,0,1.3529,,,,,,,,0,10,10,158,1
,,,,,,,,,,,,,,,,,199009,19,2022-01-25_21h27.31.248,lexical_decision_task_DD_L5,2021.2.3,MacIntel,60.0024001,,,,,,,,,,,1.1068,0,,,,,,,,,,,,,,,,,,,,,,,,,-0.027256944,-0.308576389,0,0,0,,,,,,,SWING,LB,new,y,./images/SWINGLB.png,,,,,,,m,0,1.1068,,,,,,,,0,11,11,124,1
,,,,,,,,,,,,,,,,,199009,19,2022-01-25_21h27.31.248,lexical_decision_task_DD_L5,2021.2.3,MacIntel,60.0024001,,,,,,,,,,,1.3856,0,,,,,,,,,,,,,,,,,,,,,,,,,-0.027256944,-0.308576389,0,0,0,,,,,,,ONION,HB,new,y,./images/ONIONHB.png,,,,,,,m,0,1.3856,,,,,,,,0,12,12,135,1
,,,,,,,,,,,,,,,,,199009,19,2022-01-25_21h27.31.248,lexical_decision_task_DD_L5,2021.2.3,MacIntel,60.0024001,,,,,,,,,,,0.6984,0,,,,,,,,,,,,,,,,,,,,,,,,,-0.027256944,-0.308576389,0,0,0,,,,,,,DONKEY,LB,old,y,./images/DONKEYLB.png,,,,,,,m,0,0.6984,,,,,,,,0,13,13,19,1
,,,,,,,,,,,,,,,,,199009,19,2022-01-25_21h27.31.248,lexical_decision_task_DD_L5,2021.2.3,MacIntel,60.0024001,,,,,,,,,,,1.6483,0,,,,,,,,,,,,,,,,,,,,,,,,,-0.027256944,-0.308576389,0,0,0,,,,,,,LADDER,C,new,y,./images/LADDER.png,,,,,,,m,0,1.6483,,,,,,,,0,14,14,122,1
,,,,,,,,,,,,,,,,,199009,19,2022-01-25_21h27.31.248,lexical_decision_task_DD_L5,2021.2.3,MacIntel,60.0024001,,,,,,,,,,,1.5044,0,,,,,,,,,,,,,,,,,,,,,,,,,-0.027256944,-0.308576389,0,0,0,,,,,,,KIDNEY,HB,new,y,./images/KIDNEYHB.png,,,,,,,m,0,1.5044,,,,,,,,0,15,15,105,1
,,,,,,,,,,,,,,,,,199009,19,2022-01-25_21h27.31.248,lexical_decision_task_DD_L5,2021.2.3,MacIntel,60.0024001,,,,,,,,,,,1.2307,0,,,,,,,,,,,,,,,,,,,,,,,,,-0.027256944,-0.308576389,0,0,0,,,,,,,BERRY,C,new,y,./images/BERRY.png,,,,,,,z,0,1.2307,,,,,,,,0,16,16,131,1
,,,,,,,,,,,,,,,,,199009,19,2022-01-25_21h27.31.248,lexical_decision_task_DD_L5,2021.2.3,MacIntel,60.0024001,,,,,,,,,,,0.8436,0,,,,,,,,,,,,,,,,,,,,,,,,,-0.027256944,-0.308576389,0,0,0,,,,,,,SAUCE,HB,old,y,./images/SAUCEHB.png,,,,,,,m,0,0.8436,,,,,,,,0,17,17,51,1
,,,,,,,,,,,,,,,,,199009,19,2022-01-25_21h27.31.248,lexical_decision_task_DD_L5,2021.2.3,MacIntel,60.0024001,,,,,,,,,,,1.9292,0,,,,,,,,,,,,,,,,,,,,,,,,,-0.027256944,-0.308576389,0,0,0,,,,,,,BLOKE,HB,old,y,./images/BLOKEHB.png,,,,,,,m,0,1.9292,,,,,,,,0,18,18,12,1
,,,,,,,,,,,,,,,,,199009,19,2022-01-25_21h27.31.248,lexical_decision_task_DD_L5,2021.2.3,MacIntel,60.0024001,,,,,,,,,,,0.6984,0,,,,,,,,,,,,,,,,,,,,,,,,,-0.027256944,-0.308576389,0,0,0,,,,,,,BANNER,LB,new,y,./images/BANNERLB.png,,,,,,,m,0,0.6984,,,,,,,,0,19,19,136,1
,,,,,,,,,,,,,,,,,199009,19,2022-01-25_21h27.31.248,lexical_decision_task_DD_L5,2021.2.3,MacIntel,60.0024001,,,,,,,,,,,1.2578,0,,,,,,,,,,,,,,,,,,,,,,,,,-0.027256944,-0.308576389,0,0,0,,,,,,,PARCEL,HB,old,y,./images/PARCELHB.png,,,,,,,z,0,1.2578,,,,,,,,0,20,20,18,1
,,,,,,,,,,,,,,,,,199009,19,2022-01-25_21h27.31.248,lexical_decision_task_DD_L5,2021.2.3,MacIntel,60.0024001,,,,,,,,,,,1.3067,0,,,,,,,,,,,,,,,,,,,,,,,,,-0.027256944,-0.308576389,0,0,0,,,,,,,SHORE,HB,new,y,./images/SHOREHB.png,,,,,,,z,0,1.3067,,,,,,,,0,21,21,96,1
,,,,,,,,,,,,,,,,,199009,19,2022-01-25_21h27.31.248,lexical_decision_task_DD_L5,2021.2.3,MacIntel,60.0024001,,,,,,,,,,,1.935,0,,,,,,,,,,,,,,,,,,,,,,,,,-0.027256944,-0.308576389,0,0,0,,,,,,,PENCE,LB,new,y,./images/PENCELB.png,,,,,,,z,0,1.935,,,,,,,,0,22,22,100,1
,,,,,,,,,,,,,,,,,199009,19,2022-01-25_21h27.31.248,lexical_decision_task_DD_L5,2021.2.3,MacIntel,60.0024001,,,,,,,,,,,1.1167,0,,,,,,,,,,,,,,,,,,,,,,,,,-0.027256944,-0.308576389,0,0,0,,,,,,,MALLET,C,new,y,./images/MALLET.png,,,,,,,m,0,1.1167,,,,,,,,0,23,23,134,1
,,,,,,,,,,,,,,,,,199009,19,2022-01-25_21h27.31.248,lexical_decision_task_DD_L5,2021.2.3,MacIntel,60.0024001,,,,,,,,,,,0.7915,0,,,,,,,,,,,,,,,,,,,,,,,,,-0.027256944,-0.308576389,0,0,0,,,,,,,SPORT,HB,new,y,./images/SPORTHB.png,,,,,,,m,0,0.7915,,,,,,,,0,24,24,132,1
,,,,,,,,,,,,,,,,,199009,19,2022-01-25_21h27.31.248,lexical_decision_task_DD_L5,2021.2.3,MacIntel,60.0024001,,,,,,,,,,,0.7265,0,,,,,,,,,,,,,,,,,,,,,,,,,-0.027256944,-0.308576389,0,0,0,,,,,,,FALCON,LB,new,y,./images/FALCONLB.png,,,,,,,m,0,0.7265,,,,,,,,0,25,25,112,1
,,,,,,,,,,,,,,,,,199009,19,2022-01-25_21h27.31.248,lexical_decision_task_DD_L5,2021.2.3,MacIntel,60.0024001,,,,,,,,,,,0.6469,0,,,,,,,,,,,,,,,,,,,,,,,,,-0.027256944,-0.308576389,0,0,0,,,,,,,WALNUT,HB,old,y,./images/WALNUTHB.png,,,,,,,m,0,0.6469,,,,,,,,0,26,26,0,1
,,,,,,,,,,,,,,,,,199009,19,2022-01-25_21h27.31.248,lexical_decision_task_DD_L5,2021.2.3,MacIntel,60.0024001,,,,,,,,,,,0.6851,0,,,,,,,,,,,,,,,,,,,,,,,,,-0.027256944,-0.308576389,0,0,0,,,,,,,GRAPE,LB,old,y,./images/GRAPELB.png,,,,,,,m,0,0.6851,,,,,,,,0,27,27,16,1
,,,,,,,,,,,,,,,,,199009,19,2022-01-25_21h27.31.248,lexical_decision_task_DD_L5,2021.2.3,MacIntel,60.0024001,,,,,,,,,,,0.6322,0,,,,,,,,,,,,,,,,,,,,,,,,,-0.027256944,-0.308576389,0,0,0,,,,,,,PEBBLE,LB,old,y,./images/PEBBLELB.png,,,,,,,m,0,0.6322,,,,,,,,0,28,28,82,1
,,,,,,,,,,,,,,,,,199009,19,2022-01-25_21h27.31.248,lexical_decision_task_DD_L5,2021.2.3,MacIntel,60.0024001,,,,,,,,,,,0.5702,0,,,,,,,,,,,,,,,,,,,,,,,,,-0.027256944,-0.308576389,0,0,0,,,,,,,CRUMB,C,new,y,./images/CRUMB.png,,,,,,,m,0,0.5702,,,,,,,,0,29,29,113,1
,,,,,,,,,,,,,,,,,199009,19,2022-01-25_21h27.31.248,lexical_decision_task_DD_L5,2021.2.3,MacIntel,60.0024001,,,,,,,,,,,1.2015,0,,,,,,,,,,,,,,,,,,,,,,,,,-0.027256944,-0.308576389,0,0,0,,,,,,,CLOTH,C,old,y,./images/CLOTH.png,,,,,,,m,0,1.2015,,,,,,,,0,30,30,23,1
,,,,,,,,,,,,,,,,,199009,19,2022-01-25_21h27.31.248,lexical_decision_task_DD_L5,2021.2.3,MacIntel,60.0024001,,,,,,,,,,,3.2168,0,,,,,,,,,,,,,,,,,,,,,,,,,-0.027256944,-0.308576389,0,0,0,,,,,,,CHAIN,HB,old,y,./images/CHAINHB.png,,,,,,,m,0,3.2168,,,,,,,,0,31,31,42,1
,,,,,,,,,,,,,,,,,199009,19,2022-01-25_21h27.31.248,lexical_decision_task_DD_L5,2021.2.3,MacIntel,60.0024001,,,,,,,,,,,0.79,0,,,,,,,,,,,,,,,,,,,,,,,,,-0.027256944,-0.308576389,0,0,0,,,,,,,CANDLE,LB,new,y,./images/CANDLELB.png,,,,,,,m,0,0.79,,,,,,,,0,32,32,145,1
,,,,,,,,,,,,,,,,,199009,19,2022-01-25_21h27.31.248,lexical_decision_task_DD_L5,2021.2.3,MacIntel,60.0024001,,,,,,,,,,,0.6158,0,,,,,,,,,,,,,,,,,,,,,,,,,-0.027256944,-0.308576389,0,0,0,,,,,,,WHEEL,C,old,y,./images/WHEEL.png,,,,,,,m,0,0.6158,,,,,,,,0,33,33,77,1
,,,,,,,,,,,,,,,,,199009,19,2022-01-25_21h27.31.248,lexical_decision_task_DD_L5,2021.2.3,MacIntel,60.0024001,,,,,,,,,,,0.5864,0,,,,,,,,,,,,,,,,,,,,,,,,,-0.027256944,-0.308576389,0,0,0,,,,,,,GLOVE,LB,old,y,./images/GLOVELB.png,,,,,,,m,0,0.5864,,,,,,,,0,34,34,73,1
,,,,,,,,,,,,,,,,,199009,19,2022-01-25_21h27.31.248,lexical_decision_task_DD_L5,2021.2.3,MacIntel,60.0024001,,,,,,,,,,,0.7548,0,,,,,,,,,,,,,,,,,,,,,,,,,-0.027256944,-0.308576389,0,0,0,,,,,,,SUNSET,LB,new,y,./images/SUNSETLB.png,,,,,,,z,0,0.7548,,,,,,,,0,35,35,166,1
,,,,,,,,,,,,,,,,,199009,19,2022-01-25_21h27.31.248,lexical_decision_task_DD_L5,2021.2.3,MacIntel,60.0024001,,,,,,,,,,,0.8452,0,,,,,,,,,,,,,,,,,,,,,,,,,-0.027256944,-0.308576389,0,0,0,,,,,,,CHERRY,HB,old,y,./images/CHERRYHB.png,,,,,,,m,0,0.8452,,,,,,,,0,36,36,54,1
,,,,,,,,,,,,,,,,,199009,19,2022-01-25_21h27.31.248,lexical_decision_task_DD_L5,2021.2.3,MacIntel,60.0024001,,,,,,,,,,,0.574,0,,,,,,,,,,,,,,,,,,,,,,,,,-0.027256944,-0.308576389,0,0,0,,,,,,,MONKEY,HB,old,y,./images/MONKEYHB.png,,,,,,,m,0,0.574,,,,,,,,0,37,37,45,1
,,,,,,,,,,,,,,,,,199009,19,2022-01-25_21h27.31.248,lexical_decision_task_DD_L5,2021.2.3,MacIntel,60.0024001,,,,,,,,,,,1.0203,0,,,,,,,,,,,,,,,,,,,,,,,,,-0.027256944,-0.308576389,0,0,0,,,,,,,DOUGH,LB,new,y,./images/DOUGHLB.png,,,,,,,z,0,1.0203,,,,,,,,0,38,38,103,1
,,,,,,,,,,,,,,,,,199009,19,2022-01-25_21h27.31.248,lexical_decision_task_DD_L5,2021.2.3,MacIntel,60.0024001,,,,,,,,,,,0.7754,0,,,,,,,,,,,,,,,,,,,,,,,,,-0.027256944,-0.308576389,0,0,0,,,,,,,WEASEL,C,new,y,./images/WEASEL.png,,,,,,,m,0,0.7754,,,,,,,,0,39,39,164,1
,,,,,,,,,,,,,,,,,199009,19,2022-01-25_21h27.31.248,lexical_decision_task_DD_L5,2021.2.3,MacIntel,60.0024001,,,,,,,,,,,0.5751,0,,,,,,,,,,,,,,,,,,,,,,,,,-0.027256944,-0.308576389,0,0,0,,,,,,,CANOE,LB,old,y,./images/CANOELB.png,,,,,,,m,0,0.5751,,,,,,,,0,40,40,58,1
,,,,,,,,,,,,,,,,,199009,19,2022-01-25_21h27.31.248,lexical_decision_task_DD_L5,2021.2.3,MacIntel,60.0024001,,,,,,,,,,,0.5314,0,,,,,,,,,,,,,,,,,,,,,,,,,-0.027256944,-0.308576389,0,0,0,space,,,,,,WHISKY,C,old,y,./images/WHISKY.png,13.0848,,,,,,m,0,0.5314,,,,,,,,0,41,41,83,1
,,,,,,,,,,,,,,,,,199009,19,2022-01-25_21h27.31.248,lexical_decision_task_DD_L5,2021.2.3,MacIntel,60.0024001,,,,,,,,,,,1.2394,0,,,,,,,,,,,,,,,,,,,,,,,,,-0.027256944,-0.308576389,0,0,0,,,,,,,QUILL,LB,new,y,./images/QUILLLB.png,,,,,,,m,0,1.2394,,,,,,,,0,42,42,115,1
,,,,,,,,,,,,,,,,,199009,19,2022-01-25_21h27.31.248,lexical_decision_task_DD_L5,2021.2.3,MacIntel,60.0024001,,,,,,,,,,,1.0047,0,,,,,,,,,,,,,,,,,,,,,,,,,-0.027256944,-0.308576389,0,0,0,,,,,,,GREASE,HB,new,y,./images/GREASEHB.png,,,,,,,m,0,1.0047,,,,,,,,0,43,43,99,1
,,,,,,,,,,,,,,,,,199009,19,2022-01-25_21h27.31.248,lexical_decision_task_DD_L5,2021.2.3,MacIntel,60.0024001,,,,,,,,,,,0.6724,0,,,,,,,,,,,,,,,,,,,,,,,,,-0.027256944,-0.308576389,0,0,0,,,,,,,GARDEN,LB,old,y,./images/GARDENLB.png,,,,,,,m,0,0.6724,,,,,,,,0,44,44,10,1
,,,,,,,,,,,,,,,,,199009,19,2022-01-25_21h27.31.248,lexical_decision_task_DD_L5,2021.2.3,MacIntel,60.0024001,,,,,,,,,,,0.7837,0,,,,,,,,,,,,,,,,,,,,,,,,,-0.027256944,-0.308576389,0,0,0,,,,,,,BOILER,HB,old,y,./images/BOILERHB.png,,,,,,,m,0,0.7837,,,,,,,,0,45,45,36,1
,,,,,,,,,,,,,,,,,199009,19,2022-01-25_21h27.31.248,lexical_decision_task_DD_L5,2021.2.3,MacIntel,60.0024001,,,,,,,,,,,0.8577,0,,,,,,,,,,,,,,,,,,,,,,,,,-0.027256944,-0.308576389,0,0,0,,,,,,,RHINO,HB,new,y,./images/RHINOHB.png,,,,,,,z,0,0.8577,,,,,,,,0,46,46,93,1
,,,,,,,,,,,,,,,,,199009,19,2022-01-25_21h27.31.248,lexical_decision_task_DD_L5,2021.2.3,MacIntel,60.0024001,,,,,,,,,,,1.6062,0,,,,,,,,,,,,,,,,,,,,,,,,,-0.027256944,-0.308576389,0,0,0,,,,,,,SWEAT,HB,new,y,./images/SWEATHB.png,,,,,,,z,0,1.6062,,,,,,,,0,47,47,150,1
,,,,,,,,,,,,,,,,,199009,19,2022-01-25_21h27.31.248,lexical_decision_task_DD_L5,2021.2.3,MacIntel,60.0024001,,,,,,,,,,,0.7748,0,,,,,,,,,,,,,,,,,,,,,,,,,-0.027256944,-0.308576389,0,0,0,,,,,,,BUBBLE,C,old,y,./images/BUBBLE.png,,,,,,,m,0,0.7748,,,,,,,,0,48,48,71,1
,,,,,,,,,,,,,,,,,199009,19,2022-01-25_21h27.31.248,lexical_decision_task_DD_L5,2021.2.3,MacIntel,60.0024001,,,,,,,,,,,0.5366,0,,,,,,,,,,,,,,,,,,,,,,,,,-0.027256944,-0.308576389,0,0,0,,,,,,,BAKER,HB,old,y,./images/BAKERHB.png,,,,,,,m,0,0.5366,,,,,,,,0,49,49,63,1
,,,,,,,,,,,,,,,,,199009,19,2022-01-25_21h27.31.248,lexical_decision_task_DD_L5,2021.2.3,MacIntel,60.0024001,,,,,,,,,,,0.6049,0,,,,,,,,,,,,,,,,,,,,,,,,,-0.027256944,-0.308576389,0,0,0,,,,,,,SHELF,HB,new,y,./images/SHELFHB.png,,,,,,,m,0,0.6049,,,,,,,,0,50,50,123,1
,,,,,,,,,,,,,,,,,199009,19,2022-01-25_21h27.31.248,lexical_decision_task_DD_L5,2021.2.3,MacIntel,60.0024001,,,,,,,,,,,0.6208,0,,,,,,,,,,,,,,,,,,,,,,,,,-0.027256944,-0.308576389,0,0,0,,,,,,,SPINE,C,old,y,./images/SPINE.png,,,,,,,m,0,0.6208,,,,,,,,0,51,51,65,1
,,,,,,,,,,,,,,,,,199009,19,2022-01-25_21h27.31.248,lexical_decision_task_DD_L5,2021.2.3,MacIntel,60.0024001,,,,,,,,,,,0.601,0,,,,,,,,,,,,,,,,,,,,,,,,,-0.027256944,-0.308576389,0,0,0,,,,,,,PEACH,C,new,y,./images/PEACH.png,,,,,,,m,0,0.601,,,,,,,,0,52,52,119,1
,,,,,,,,,,,,,,,,,199009,19,2022-01-25_21h27.31.248,lexical_decision_task_DD_L5,2021.2.3,MacIntel,60.0024001,,,,,,,,,,,1.0646,0,,,,,,,,,,,,,,,,,,,,,,,,,-0.027256944,-0.308576389,0,0,0,,,,,,,MUMMY,LB,old,y,./images/MUMMYLB.png,,,,,,,m,0,1.0646,,,,,,,,0,53,53,46,1
,,,,,,,,,,,,,,,,,199009,19,2022-01-25_21h27.31.248,lexical_decision_task_DD_L5,2021.2.3,MacIntel,60.0024001,,,,,,,,,,,0.6829,0,,,,,,,,,,,,,,,,,,,,,,,,,-0.027256944,-0.308576389,0,0,0,,,,,,,BAMBOO,C,old,y,./images/BAMBOO.png,,,,,,,m,0,0.6829,,,,,,,,0,54,54,5,1
,,,,,,,,,,,,,,,,,199009,19,2022-01-25_21h27.31.248,lexical_decision_task_DD_L5,2021.2.3,MacIntel,60.0024001,,,,,,,,,,,0.6537,0,,,,,,,,,,,,,,,,,,,,,,,,,-0.027256944,-0.308576389,0,0,0,,,,,,,BUNNY,LB,old,y,./images/BUNNYLB.png,,,,,,,m,0,0.6537,,,,,,,,0,55,55,13,1
,,,,,,,,,,,,,,,,,199009,19,2022-01-25_21h27.31.248,lexical_decision_task_DD_L5,2021.2.3,MacIntel,60.0024001,,,,,,,,,,,1.0917,0,,,,,,,,,,,,,,,,,,,,,,,,,-0.027256944,-0.308576389,0,0,0,,,,,,,COOKER,HB,new,y,./images/COOKERHB.png,,,,,,,z,0,1.0917,,,,,,,,0,56,56,153,1
,,,,,,,,,,,,,,,,,199009,19,2022-01-25_21h27.31.248,lexical_decision_task_DD_L5,2021.2.3,MacIntel,60.0024001,,,,,,,,,,,2.2559,0,,,,,,,,,,,,,,,,,,,,,,,,,-0.027256944,-0.308576389,0,0,0,,,,,,,BOXER,LB,old,y,./images/BOXERLB.png,,,,,,,z,0,2.2559,,,,,,,,0,57,57,4,1
,,,,,,,,,,,,,,,,,199009,19,2022-01-25_21h27.31.248,lexical_decision_task_DD_L5,2021.2.3,MacIntel,60.0024001,,,,,,,,,,,0.8347,0,,,,,,,,,,,,,,,,,,,,,,,,,-0.027256944,-0.308576389,0,0,0,,,,,,,FINGER,HB,new,y,./images/FINGERHB.png,,,,,,,z,0,0.8347,,,,,,,,0,58,58,87,1
,,,,,,,,,,,,,,,,,199009,19,2022-01-25_21h27.31.248,lexical_decision_task_DD_L5,2021.2.3,MacIntel,60.0024001,,,,,,,,,,,0.7141,0,,,,,,,,,,,,,,,,,,,,,,,,,-0.027256944,-0.308576389,0,0,0,,,,,,,BRUSH,C,old,y,./images/BRUSH.png,,,,,,,m,0,0.7141,,,,,,,,0,59,59,59,1
,,,,,,,,,,,,,,,,,199009,19,2022-01-25_21h27.31.248,lexical_decision_task_DD_L5,2021.2.3,MacIntel,60.0024001,,,,,,,,,,,1.1519,0,,,,,,,,,,,,,,,,,,,,,,,,,-0.027256944,-0.308576389,0,0,0,,,,,,,TIGER,LB,old,y,./images/TIGERLB.png,,,,,,,m,0,1.1519,,,,,,,,0,60,60,37,1
,,,,,,,,,,,,,,,,,199009,19,2022-01-25_21h27.31.248,lexical_decision_task_DD_L5,2021.2.3,MacIntel,60.0024001,,,,,,,,,,,0.6663,0,,,,,,,,,,,,,,,,,,,,,,,,,-0.027256944,-0.308576389,0,0,0,,,,,,,MIDGET,LB,old,y,./images/MIDGETLB.png,,,,,,,m,0,0.6663,,,,,,,,0,61,61,76,1
,,,,,,,,,,,,,,,,,199009,19,2022-01-25_21h27.31.248,lexical_decision_task_DD_L5,2021.2.3,MacIntel,60.0024001,,,,,,,,,,,0.6621,0,,,,,,,,,,,,,,,,,,,,,,,,,-0.027256944,-0.308576389,0,0,0,,,,,,,STREAM,C,old,y,./images/STREAM.png,,,,,,,m,0,0.6621,,,,,,,,0,62,62,41,1
,,,,,,,,,,,,,,,,,199009,19,2022-01-25_21h27.31.248,lexical_decision_task_DD_L5,2021.2.3,MacIntel,60.0024001,,,,,,,,,,,0.5545,0,,,,,,,,,,,,,,,,,,,,,,,,,-0.027256944,-0.308576389,0,0,0,,,,,,,SAILOR,LB,new,y,./images/SAILORLB.png,,,,,,,m,0,0.5545,,,,,,,,0,63,63,151,1
,,,,,,,,,,,,,,,,,199009,19,2022-01-25_21h27.31.248,lexical_decision_task_DD_L5,2021.2.3,MacIntel,60.0024001,,,,,,,,,,,0.8065,0,,,,,,,,,,,,,,,,,,,,,,,,,-0.027256944,-0.308576389,0,0,0,,,,,,,JAGUAR,HB,new,y,./images/JAGUARHB.png,,,,,,,z,0,0.8065,,,,,,,,0,64,64,102,1
,,,,,,,,,,,,,,,,,199009,19,2022-01-25_21h27.31.248,lexical_decision_task_DD_L5,2021.2.3,MacIntel,60.0024001,,,,,,,,,,,1.0051,0,,,,,,,,,,,,,,,,,,,,,,,,,-0.027256944,-0.308576389,0,0,0,,,,,,,SHIELD,HB,old,y,./images/SHIELDHB.png,,,,,,,m,0,1.0051,,,,,,,,0,65,65,48,1
,,,,,,,,,,,,,,,,,199009,19,2022-01-25_21h27.31.248,lexical_decision_task_DD_L5,2021.2.3,MacIntel,60.0024001,,,,,,,,,,,0.8501,0,,,,,,,,,,,,,,,,,,,,,,,,,-0.027256944,-0.308576389,0,0,0,,,,,,,MOTOR,LB,new,y,./images/MOTORLB.png,,,,,,,m,0,0.8501,,,,,,,,0,66,66,97,1
,,,,,,,,,,,,,,,,,199009,19,2022-01-25_21h27.31.248,lexical_decision_task_DD_L5,2021.2.3,MacIntel,60.0024001,,,,,,,,,,,1.416,0,,,,,,,,,,,,,,,,,,,,,,,,,-0.027256944,-0.308576389,0,0,0,,,,,,,SCREW,HB,new,y,./images/SCREWHB.png,,,,,,,m,0,1.416,,,,,,,,0,67,67,108,1
,,,,,,,,,,,,,,,,,199009,19,2022-01-25_21h27.31.248,lexical_decision_task_DD_L5,2021.2.3,MacIntel,60.0024001,,,,,,,,,,,2.5574,0,,,,,,,,,,,,,,,,,,,,,,,,,-0.027256944,-0.308576389,0,0,0,,,,,,,JELLY,LB,new,y,./images/JELLYLB.png,,,,,,,z,0,2.5574,,,,,,,,0,68,68,148,1
,,,,,,,,,,,,,,,,,199009,19,2022-01-25_21h27.31.248,lexical_decision_task_DD_L5,2021.2.3,MacIntel,60.0024001,,,,,,,,,,,1.6674,0,,,,,,,,,,,,,,,,,,,,,,,,,-0.027256944,-0.308576389,0,0,0,,,,,,,DRILL,HB,old,y,./images/DRILLHB.png,,,,,,,m,0,1.6674,,,,,,,,0,69,69,81,1
,,,,,,,,,,,,,,,,,199009,19,2022-01-25_21h27.31.248,lexical_decision_task_DD_L5,2021.2.3,MacIntel,60.0024001,,,,,,,,,,,0.7191,0,,,,,,,,,,,,,,,,,,,,,,,,,-0.027256944,-0.308576389,0,0,0,,,,,,,MUFFIN,LB,new,y,./images/MUFFINLB.png,,,,,,,m,0,0.7191,,,,,,,,0,70,70,139,1
,,,,,,,,,,,,,,,,,199009,19,2022-01-25_21h27.31.248,lexical_decision_task_DD_L5,2021.2.3,MacIntel,60.0024001,,,,,,,,,,,0.7048,0,,,,,,,,,,,,,,,,,,,,,,,,,-0.027256944,-0.308576389,0,0,0,,,,,,,PACKET,C,new,y,./images/PACKET.png,,,,,,,m,0,0.7048,,,,,,,,0,71,71,140,1
,,,,,,,,,,,,,,,,,199009,19,2022-01-25_21h27.31.248,lexical_decision_task_DD_L5,2021.2.3,MacIntel,60.0024001,,,,,,,,,,,0.8302,0,,,,,,,,,,,,,,,,,,,,,,,,,-0.027256944,-0.308576389,0,0,0,,,,,,,LAGOON,C,old,y,./images/LAGOON.png,,,,,,,m,0,0.8302,,,,,,,,0,72,72,47,1
,,,,,,,,,,,,,,,,,199009,19,2022-01-25_21h27.31.248,lexical_decision_task_DD_L5,2021.2.3,MacIntel,60.0024001,,,,,,,,,,,0.6675,0,,,,,,,,,,,,,,,,,,,,,,,,,-0.027256944,-0.308576389,0,0,0,,,,,,,LITTER,HB,new,y,./images/LITTERHB.png,,,,,,,z,0,0.6675,,,,,,,,0,73,73,162,1
,,,,,,,,,,,,,,,,,199009,19,2022-01-25_21h27.31.248,lexical_decision_task_DD_L5,2021.2.3,MacIntel,60.0024001,,,,,,,,,,,0.9852,0,,,,,,,,,,,,,,,,,,,,,,,,,-0.027256944,-0.308576389,0,0,0,,,,,,,CLOUD,C,old,y,./images/CLOUD.png,,,,,,,m,0,0.9852,,,,,,,,0,74,74,26,1
,,,,,,,,,,,,,,,,,199009,19,2022-01-25_21h27.31.248,lexical_decision_task_DD_L5,2021.2.3,MacIntel,60.0024001,,,,,,,,,,,0.9841,0,,,,,,,,,,,,,,,,,,,,,,,,,-0.027256944,-0.308576389,0,0,0,,,,,,,POODLE,HB,new,y,./images/POODLEHB.png,,,,,,,m,0,0.9841,,,,,,,,0,75,75,165,1
,,,,,,,,,,,,,,,,,199009,19,2022-01-25_21h27.31.248,lexical_decision_task_DD_L5,2021.2.3,MacIntel,60.0024001,,,,,,,,,,,0.7003,0,,,,,,,,,,,,,,,,,,,,,,,,,-0.027256944,-0.308576389,0,0,0,,,,,,,DANCER,HB,old,y,./images/DANCERHB.png,,,,,,,m,0,0.7003,,,,,,,,0,76,76,21,1
,,,,,,,,,,,,,,,,,199009,19,2022-01-25_21h27.31.248,lexical_decision_task_DD_L5,2021.2.3,MacIntel,60.0024001,,,,,,,,,,,0.7037,0,,,,,,,,,,,,,,,,,,,,,,,,,-0.027256944,-0.308576389,0,0,0,,,,,,,SAUNA,HB,old,y,./images/SAUNAHB.png,,,,,,,m,0,0.7037,,,,,,,,0,77,77,33,1
,,,,,,,,,,,,,,,,,199009,19,2022-01-25_21h27.31.248,lexical_decision_task_DD_L5,2021.2.3,MacIntel,60.0024001,,,,,,,,,,,0.9004,0,,,,,,,,,,,,,,,,,,,,,,,,,-0.027256944,-0.308576389,0,0,0,,,,,,,ATTIC,HB,new,y,./images/ATTICHB.png,,,,,,,m,0,0.9004,,,,,,,,0,78,78,111,1
,,,,,,,,,,,,,,,,,199009,19,2022-01-25_21h27.31.248,lexical_decision_task_DD_L5,2021.2.3,MacIntel,60.0024001,,,,,,,,,,,2.3677,0,,,,,,,,,,,,,,,,,,,,,,,,,-0.027256944,-0.308576389,0,0,0,,,,,,,WALRUS,C,new,y,./images/WALRUS.png,,,,,,,z,0,2.3677,,,,,,,,0,79,79,107,1
,,,,,,,,,,,,,,,,,199009,19,2022-01-25_21h27.31.248,lexical_decision_task_DD_L5,2021.2.3,MacIntel,60.0024001,,,,,,,,,,,0.8305,0,,,,,,,,,,,,,,,,,,,,,,,,,-0.027256944,-0.308576389,0,0,0,,,,,,,DIVER,HB,old,y,./images/DIVERHB.png,,,,,,,m,0,0.8305,,,,,,,,0,80,80,9,1
,,,,,,,,,,,,,,,,,199009,19,2022-01-25_21h27.31.248,lexical_decision_task_DD_L5,2021.2.3,MacIntel,60.0024001,,,,,,,,,,,2.294,0,,,,,,,,,,,,,,,,,,,,,,,,,-0.027256944,-0.308576389,0,0,0,,,,,,,CASINO,LB,old,y,./images/CASINOLB.png,,,,,,,m,0,2.294,,,,,,,,0,81,81,28,1
,,,,,,,,,,,,,,,,,199009,19,2022-01-25_21h27.31.248,lexical_decision_task_DD_L5,2021.2.3,MacIntel,60.0024001,,,,,,,,,,,0.735,0,,,,,,,,,,,,,,,,,,,,,,,,,-0.027256944,-0.308576389,0,0,0,,,,,,,RULER,LB,old,y,./images/RULERLB.png,,,,,,,m,0,0.735,,,,,,,,0,82,82,79,1
,,,,,,,,,,,,,,,,,199009,19,2022-01-25_21h27.31.248,lexical_decision_task_DD_L5,2021.2.3,MacIntel,60.0024001,,,,,,,,,,,0.8711,0,,,,,,,,,,,,,,,,,,,,,,,,,-0.027256944,-0.308576389,0,0,0,space,,,,,,ARROW,HB,old,y,./images/ARROWHB.png,56.2076,,,,,,m,0,0.8711,,,,,,,,0,83,83,69,1
,,,,,,,,,,,,,,,,,199009,19,2022-01-25_21h27.31.248,lexical_decision_task_DD_L5,2021.2.3,MacIntel,60.0024001,,,,,,,,,,,0.7767,0,,,,,,,,,,,,,,,,,,,,,,,,,-0.027256944,-0.308576389,0,0,0,,,,,,,SLOPE,HB,old,y,./images/SLOPEHB.png,,,,,,,m,0,0.7767,,,,,,,,0,84,84,30,1
,,,,,,,,,,,,,,,,,199009,19,2022-01-25_21h27.31.248,lexical_decision_task_DD_L5,2021.2.3,MacIntel,60.0024001,,,,,,,,,,,1.0964,0,,,,,,,,,,,,,,,,,,,,,,,,,-0.027256944,-0.308576389,0,0,0,,,,,,,MELON,LB,new,y,./images/MELONLB.png,,,,,,,z,0,1.0964,,,,,,,,0,85,85,106,1
,,,,,,,,,,,,,,,,,199009,19,2022-01-25_21h27.31.248,lexical_decision_task_DD_L5,2021.2.3,MacIntel,60.0024001,,,,,,,,,,,1.1744,0,,,,,,,,,,,,,,,,,,,,,,,,,-0.027256944,-0.308576389,0,0,0,,,,,,,MAGGOT,HB,new,y,./images/MAGGOTHB.png,,,,,,,m,0,1.1744,,,,,,,,0,86,86,117,1
,,,,,,,,,,,,,,,,,199009,19,2022-01-25_21h27.31.248,lexical_decision_task_DD_L5,2021.2.3,MacIntel,60.0024001,,,,,,,,,,,1.056,0,,,,,,,,,,,,,,,,,,,,,,,,,-0.027256944,-0.308576389,0,0,0,,,,,,,WRIST,LB,new,y,./images/WRISTLB.png,,,,,,,z,0,1.056,,,,,,,,0,87,87,109,1
,,,,,,,,,,,,,,,,,199009,19,2022-01-25_21h27.31.248,lexical_decision_task_DD_L5,2021.2.3,MacIntel,60.0024001,,,,,,,,,,,1.5709,0,,,,,,,,,,,,,,,,,,,,,,,,,-0.027256944,-0.308576389,0,0,0,,,,,,,THROAT,HB,new,y,./images/THROATHB.png,,,,,,,z,0,1.5709,,,,,,,,0,88,88,120,1
,,,,,,,,,,,,,,,,,199009,19,2022-01-25_21h27.31.248,lexical_decision_task_DD_L5,2021.2.3,MacIntel,60.0024001,,,,,,,,,,,0.5939,0,,,,,,,,,,,,,,,,,,,,,,,,,-0.027256944,-0.308576389,0,0,0,,,,,,,BRIDE,LB,old,y,./images/BRIDELB.png,,,,,,,m,0,0.5939,,,,,,,,0,89,89,64,1
,,,,,,,,,,,,,,,,,199009,19,2022-01-25_21h27.31.248,lexical_decision_task_DD_L5,2021.2.3,MacIntel,60.0024001,,,,,,,,,,,0.7391,0,,,,,,,,,,,,,,,,,,,,,,,,,-0.027256944,-0.308576389,0,0,0,,,,,,,DRUMS,LB,new,y,./images/DRUMSLB.png,,,,,,,m,0,0.7391,,,,,,,,0,90,90,133,1
,,,,,,,,,,,,,,,,,199009,19,2022-01-25_21h27.31.248,lexical_decision_task_DD_L5,2021.2.3,MacIntel,60.0024001,,,,,,,,,,,1.419,0,,,,,,,,,,,,,,,,,,,,,,,,,-0.027256944,-0.308576389,0,0,0,,,,,,,BURIAL,C,new,y,./images/BURIAL.png,,,,,,,z,0,1.419,,,,,,,,0,91,91,143,1
,,,,,,,,,,,,,,,,,199009,19,2022-01-25_21h27.31.248,lexical_decision_task_DD_L5,2021.2.3,MacIntel,60.0024001,,,,,,,,,,,0.7911,0,,,,,,,,,,,,,,,,,,,,,,,,,-0.027256944,-0.308576389,0,0,0,,,,,,,BISHOP,LB,old,y,./images/BISHOPLB.png,,,,,,,m,0,0.7911,,,,,,,,0,92,92,49,1
,,,,,,,,,,,,,,,,,199009,19,2022-01-25_21h27.31.248,lexical_decision_task_DD_L5,2021.2.3,MacIntel,60.0024001,,,,,,,,,,,1.2676,0,,,,,,,,,,,,,,,,,,,,,,,,,-0.027256944,-0.308576389,0,0,0,,,,,,,CRATER,HB,old,y,./images/CRATERHB.png,,,,,,,m,0,1.2676,,,,,,,,0,93,93,3,1
,,,,,,,,,,,,,,,,,199009,19,2022-01-25_21h27.31.248,lexical_decision_task_DD_L5,2021.2.3,MacIntel,60.0024001,,,,,,,,,,,1.4636,0,,,,,,,,,,,,,,,,,,,,,,,,,-0.027256944,-0.308576389,0,0,0,,,,,,,CRUST,LB,new,y,./images/CRUSTLB.png,,,,,,,m,0,1.4636,,,,,,,,0,94,94,163,1
,,,,,,,,,,,,,,,,,199009,19,2022-01-25_21h27.31.248,lexical_decision_task_DD_L5,2021.2.3,MacIntel,60.0024001,,,,,,,,,,,0.7005,0,,,,,,,,,,,,,,,,,,,,,,,,,-0.027256944,-0.308576389,0,0,0,,,,,,,STOOL,LB,old,y,./images/STOOLLB.png,,,,,,,m,0,0.7005,,,,,,,,0,95,95,43,1
,,,,,,,,,,,,,,,,,199009,19,2022-01-25_21h27.31.248,lexical_decision_task_DD_L5,2021.2.3,MacIntel,60.0024001,,,,,,,,,,,0.832,0,,,,,,,,,,,,,,,,,,,,,,,,,-0.027256944,-0.308576389,0,0,0,,,,,,,TOWEL,LB,old,y,./images/TOWELLB.png,,,,,,,m,0,0.832,,,,,,,,0,96,96,1,1
,,,,,,,,,,,,,,,,,199009,19,2022-01-25_21h27.31.248,lexical_decision_task_DD_L5,2021.2.3,MacIntel,60.0024001,,,,,,,,,,,0.7175,0,,,,,,,,,,,,,,,,,,,,,,,,,-0.027256944,-0.308576389,0,0,0,,,,,,,HEATER,C,old,y,./images/HEATER.png,,,,,,,m,0,0.7175,,,,,,,,0,97,97,56,1
,,,,,,,,,,,,,,,,,199009,19,2022-01-25_21h27.31.248,lexical_decision_task_DD_L5,2021.2.3,MacIntel,60.0024001,,,,,,,,,,,1.6697,0,,,,,,,,,,,,,,,,,,,,,,,,,-0.027256944,-0.308576389,0,0,0,,,,,,,BONNET,C,new,y,./images/BONNET.png,,,,,,,z,0,1.6697,,,,,,,,0,98,98,95,1
,,,,,,,,,,,,,,,,,199009,19,2022-01-25_21h27.31.248,lexical_decision_task_DD_L5,2021.2.3,MacIntel,60.0024001,,,,,,,,,,,1.9672,0,,,,,,,,,,,,,,,,,,,,,,,,,-0.027256944,-0.308576389,0,0,0,,,,,,,MIRROR,HB,new,y,./images/MIRRORHB.png,,,,,,,m,0,1.9672,,,,,,,,0,99,99,147,1
,,,,,,,,,,,,,,,,,199009,19,2022-01-25_21h27.31.248,lexical_decision_task_DD_L5,2021.2.3,MacIntel,60.0024001,,,,,,,,,,,0.7556,0,,,,,,,,,,,,,,,,,,,,,,,,,-0.027256944,-0.308576389,0,0,0,,,,,,,SMOKER,C,new,y,./images/SMOKER.png,,,,,,,m,0,0.7556,,,,,,,,0,100,100,110,1
,,,,,,,,,,,,,,,,,199009,19,2022-01-25_21h27.31.248,lexical_decision_task_DD_L5,2021.2.3,MacIntel,60.0024001,,,,,,,,,,,0.8844,0,,,,,,,,,,,,,,,,,,,,,,,,,-0.027256944,-0.308576389,0,0,0,,,,,,,NOOSE,HB,new,y,./images/NOOSEHB.png,,,,,,,m,0,0.8844,,,,,,,,0,101,101,156,1
,,,,,,,,,,,,,,,,,199009,19,2022-01-25_21h27.31.248,lexical_decision_task_DD_L5,2021.2.3,MacIntel,60.0024001,,,,,,,,,,,4.0198,0,,,,,,,,,,,,,,,,,,,,,,,,,-0.027256944,-0.308576389,0,0,0,,,,,,,TORCH,C,new,y,./images/TORCH.png,,,,,,,m,0,4.0198,,,,,,,,0,102,102,152,1
,,,,,,,,,,,,,,,,,199009,19,2022-01-25_21h27.31.248,lexical_decision_task_DD_L5,2021.2.3,MacIntel,60.0024001,,,,,,,,,,,0.7367,0,,,,,,,,,,,,,,,,,,,,,,,,,-0.027256944,-0.308576389,0,0,0,,,,,,,RAZOR,LB,old,y,./images/RAZORLB.png,,,,,,,m,0,0.7367,,,,,,,,0,103,103,34,1
,,,,,,,,,,,,,,,,,199009,19,2022-01-25_21h27.31.248,lexical_decision_task_DD_L5,2021.2.3,MacIntel,60.0024001,,,,,,,,,,,1.0001,0,,,,,,,,,,,,,,,,,,,,,,,,,-0.027256944,-0.308576389,0,0,0,,,,,,,SNAKE,LB,old,y,./images/SNAKELB.png,,,,,,,z,0,1.0001,,,,,,,,0,104,104,40,1
,,,,,,,,,,,,,,,,,199009,19,2022-01-25_21h27.31.248,lexical_decision_task_DD_L5,2021.2.3,MacIntel,60.0024001,,,,,,,,,,,0.6884,0,,,,,,,,,,,,,,,,,,,,,,,,,-0.027256944,-0.308576389,0,0,0,,,,,,,MAMMAL,C,old,y,./images/MAMMAL.png,,,,,,,m,0,0.6884,,,,,,,,0,105,105,62,1
,,,,,,,,,,,,,,,,,199009,19,2022-01-25_21h27.31.248,lexical_decision_task_DD_L5,2021.2.3,MacIntel,60.0024001,,,,,,,,,,,2.0883,0,,,,,,,,,,,,,,,,,,,,,,,,,-0.027256944,-0.308576389,0,0,0,,,,,,,PURSE,C,new,y,./images/PURSE.png,,,,,,,z,0,2.0883,,,,,,,,0,106,106,146,1
,,,,,,,,,,,,,,,,,199009,19,2022-01-25_21h27.31.248,lexical_decision_task_DD_L5,2021.2.3,MacIntel,60.0024001,,,,,,,,,,,1.2672,0,,,,,,,,,,,,,,,,,,,,,,,,,-0.027256944,-0.308576389,0,0,0,,,,,,,PAINT,LB,new,y,./images/PAINTLB.png,,,,,,,m,0,1.2672,,,,,,,,0,107,107,91,1
,,,,,,,,,,,,,,,,,199009,19,2022-01-25_21h27.31.248,lexical_decision_task_DD_L5,2021.2.3,MacIntel,60.0024001,,,,,,,,,,,0.8506,0,,,,,,,,,,,,,,,,,,,,,,,,,-0.027256944,-0.308576389,0,0,0,,,,,,,CHALK,LB,old,y,./images/CHALKLB.png,,,,,,,m,0,0.8506,,,,,,,,0,108,108,25,1
,,,,,,,,,,,,,,,,,199009,19,2022-01-25_21h27.31.248,lexical_decision_task_DD_L5,2021.2.3,MacIntel,60.0024001,,,,,,,,,,,1.0832,0,,,,,,,,,,,,,,,,,,,,,,,,,-0.027256944,-0.308576389,0,0,0,,,,,,,STOVE,C,old,y,./images/STOVE.png,,,,,,,m,0,1.0832,,,,,,,,0,109,109,2,1
,,,,,,,,,,,,,,,,,199009,19,2022-01-25_21h27.31.248,lexical_decision_task_DD_L5,2021.2.3,MacIntel,60.0024001,,,,,,,,,,,2.0823,0,,,,,,,,,,,,,,,,,,,,,,,,,-0.027256944,-0.308576389,0,0,0,,,,,,,MOSQUE,LB,new,y,./images/MOSQUELB.png,,,,,,,z,0,2.0823,,,,,,,,0,110,110,127,1
,,,,,,,,,,,,,,,,,199009,19,2022-01-25_21h27.31.248,lexical_decision_task_DD_L5,2021.2.3,MacIntel,60.0024001,,,,,,,,,,,0.7203,0,,,,,,,,,,,,,,,,,,,,,,,,,-0.027256944,-0.308576389,0,0,0,,,,,,,STORM,HB,new,y,./images/STORMHB.png,,,,,,,m,0,0.7203,,,,,,,,0,111,111,114,1
,,,,,,,,,,,,,,,,,199009,19,2022-01-25_21h27.31.248,lexical_decision_task_DD_L5,2021.2.3,MacIntel,60.0024001,,,,,,,,,,,1.1323,0,,,,,,,,,,,,,,,,,,,,,,,,,-0.027256944,-0.308576389,0,0,0,,,,,,,SNACK,LB,new,y,./images/SNACKLB.png,,,,,,,m,0,1.1323,,,,,,,,0,112,112,157,1
,,,,,,,,,,,,,,,,,199009,19,2022-01-25_21h27.31.248,lexical_decision_task_DD_L5,2021.2.3,MacIntel,60.0024001,,,,,,,,,,,2.7671,0,,,,,,,,,,,,,,,,,,,,,,,,,-0.027256944,-0.308576389,0,0,0,,,,,,,JUNGLE,C,new,y,./images/JUNGLE.png,,,,,,,m,0,2.7671,,,,,,,,0,113,113,167,1
,,,,,,,,,,,,,,,,,199009,19,2022-01-25_21h27.31.248,lexical_decision_task_DD_L5,2021.2.3,MacIntel,60.0024001,,,,,,,,,,,0.6581,0,,,,,,,,,,,,,,,,,,,,,,,,,-0.027256944,-0.308576389,0,0,0,,,,,,,STEAK,LB,old,y,./images/STEAKLB.png,,,,,,,m,0,0.6581,,,,,,,,0,114,114,31,1
,,,,,,,,,,,,,,,,,199009,19,2022-01-25_21h27.31.248,lexical_decision_task_DD_L5,2021.2.3,MacIntel,60.0024001,,,,,,,,,,,0.9256,0,,,,,,,,,,,,,,,,,,,,,,,,,-0.027256944,-0.308576389,0,0,0,,,,,,,TWINS,HB,new,y,./images/TWINSHB.png,,,,,,,z,0,0.9256,,,,,,,,0,115,115,144,1
,,,,,,,,,,,,,,,,,199009,19,2022-01-25_21h27.31.248,lexical_decision_task_DD_L5,2021.2.3,MacIntel,60.0024001,,,,,,,,,,,0.9992,0,,,,,,,,,,,,,,,,,,,,,,,,,-0.027256944,-0.308576389,0,0,0,,,,,,,TOMATO,HB,new,y,./images/TOMATOHB.png,,,,,,,z,0,0.9992,,,,,,,,0,116,116,84,1
,,,,,,,,,,,,,,,,,199009,19,2022-01-25_21h27.31.248,lexical_decision_task_DD_L5,2021.2.3,MacIntel,60.0024001,,,,,,,,,,,1.1263,0,,,,,,,,,,,,,,,,,,,,,,,,,-0.027256944,-0.308576389,0,0,0,,,,,,,CARPET,C,new,y,./images/CARPET.png,,,,,,,m,0,1.1263,,,,,,,,0,117,117,137,1
,,,,,,,,,,,,,,,,,199009,19,2022-01-25_21h27.31.248,lexical_decision_task_DD_L5,2021.2.3,MacIntel,60.0024001,,,,,,,,,,,0.7288,0,,,,,,,,,,,,,,,,,,,,,,,,,-0.027256944,-0.308576389,0,0,0,,,,,,,SKIING,C,new,y,./images/SKIING.png,,,,,,,m,0,0.7288,,,,,,,,0,118,118,101,1
,,,,,,,,,,,,,,,,,199009,19,2022-01-25_21h27.31.248,lexical_decision_task_DD_L5,2021.2.3,MacIntel,60.0024001,,,,,,,,,,,1.8039,0,,,,,,,,,,,,,,,,,,,,,,,,,-0.027256944,-0.308576389,0,0,0,,,,,,,MEDAL,C,old,y,./images/MEDAL.png,,,,,,,m,0,1.8039,,,,,,,,0,119,119,11,1
,,,,,,,,,,,,,,,,,199009,19,2022-01-25_21h27.31.248,lexical_decision_task_DD_L5,2021.2.3,MacIntel,60.0024001,,,,,,,,,,,2.1581,0,,,,,,,,,,,,,,,,,,,,,,,,,-0.027256944,-0.308576389,0,0,0,,,,,,,PEARL,LB,new,y,./images/PEARLLB.png,,,,,,,z,0,2.1581,,,,,,,,0,120,120,130,1
,,,,,,,,,,,,,,,,,199009,19,2022-01-25_21h27.31.248,lexical_decision_task_DD_L5,2021.2.3,MacIntel,60.0024001,,,,,,,,,,,1.0548,0,,,,,,,,,,,,,,,,,,,,,,,,,-0.027256944,-0.308576389,0,0,0,,,,,,,FENCE,C,old,y,./images/FENCE.png,,,,,,,m,0,1.0548,,,,,,,,0,121,121,14,1
,,,,,,,,,,,,,,,,,199009,19,2022-01-25_21h27.31.248,lexical_decision_task_DD_L5,2021.2.3,MacIntel,60.0024001,,,,,,,,,,,0.6167,0,,,,,,,,,,,,,,,,,,,,,,,,,-0.027256944,-0.308576389,0,0,0,,,,,,,LLAMA,C,old,y,./images/LLAMA.png,,,,,,,m,0,0.6167,,,,,,,,0,122,122,35,1
,,,,,,,,,,,,,,,,,199009,19,2022-01-25_21h27.31.248,lexical_decision_task_DD_L5,2021.2.3,MacIntel,60.0024001,,,,,,,,,,,2.5496,0,,,,,,,,,,,,,,,,,,,,,,,,,-0.027256944,-0.308576389,0,0,0,,,,,,,PARADE,C,old,y,./images/PARADE.png,,,,,,,m,0,2.5496,,,,,,,,0,123,123,17,1
,,,,,,,,,,,,,,,,,199009,19,2022-01-25_21h27.31.248,lexical_decision_task_DD_L5,2021.2.3,MacIntel,60.0024001,,,,,,,,,,,0.518,0,,,,,,,,,,,,,,,,,,,,,,,,,-0.027256944,-0.308576389,0,0,0,,,,,,,FLESH,HB,old,y,./images/FLESHHB.png,,,,,,,m,0,0.518,,,,,,,,0,124,124,24,1
,,,,,,,,,,,,,,,,,199009,19,2022-01-25_21h27.31.248,lexical_decision_task_DD_L5,2021.2.3,MacIntel,60.0024001,,,,,,,,,,,0.6372,0,,,,,,,,,,,,,,,,,,,,,,,,,-0.027256944,-0.308576389,0,0,0,space,,,,,,KITTEN,HB,new,y,./images/KITTENHB.png,7.5774,,,,,,m,0,0.6372,,,,,,,,0,125,125,129,1
,,,,,,,,,,,,,,,,,199009,19,2022-01-25_21h27.31.248,lexical_decision_task_DD_L5,2021.2.3,MacIntel,60.0024001,,,,,,,,,,,1.0468,0,,,,,,,,,,,,,,,,,,,,,,,,,-0.027256944,-0.308576389,0,0,0,,,,,,,PASTA,C,new,y,./images/PASTA.png,,,,,,,z,0,1.0468,,,,,,,,0,126,126,89,1
,,,,,,,,,,,,,,,,,199009,19,2022-01-25_21h27.31.248,lexical_decision_task_DD_L5,2021.2.3,MacIntel,60.0024001,,,,,,,,,,,1.0899,0,,,,,,,,,,,,,,,,,,,,,,,,,-0.027256944,-0.308576389,0,0,0,,,,,,,TRIPOD,HB,new,y,./images/TRIPODHB.png,,,,,,,z,0,1.0899,,,,,,,,0,127,127,138,1
,,,,,,,,,,,,,,,,,199009,19,2022-01-25_21h27.31.248,lexical_decision_task_DD_L5,2021.2.3,MacIntel,60.0024001,,,,,,,,,,,1.061,0,,,,,,,,,,,,,,,,,,,,,,,,,-0.027256944,-0.308576389,0,0,0,,,,,,,MOOSE,HB,new,y,./images/MOOSEHB.png,,,,,,,m,0,1.061,,,,,,,,0,128,128,141,1
,,,,,,,,,,,,,,,,,199009,19,2022-01-25_21h27.31.248,lexical_decision_task_DD_L5,2021.2.3,MacIntel,60.0024001,,,,,,,,,,,0.8365,0,,,,,,,,,,,,,,,,,,,,,,,,,-0.027256944,-0.308576389,0,0,0,,,,,,,PLANK,LB,new,y,./images/PLANKLB.png,,,,,,,z,0,0.8365,,,,,,,,0,129,129,85,1
,,,,,,,,,,,,,,,,,199009,19,2022-01-25_21h27.31.248,lexical_decision_task_DD_L5,2021.2.3,MacIntel,60.0024001,,,,,,,,,,,0.681,0,,,,,,,,,,,,,,,,,,,,,,,,,-0.027256944,-0.308576389,0,0,0,,,,,,,PLANET,C,old,y,./images/PLANET.png,,,,,,,m,0,0.681,,,,,,,,0,130,130,80,1
,,,,,,,,,,,,,,,,,199009,19,2022-01-25_21h27.31.248,lexical_decision_task_DD_L5,2021.2.3,MacIntel,60.0024001,,,,,,,,,,,4.5898,0,,,,,,,,,,,,,,,,,,,,,,,,,-0.027005208,-0.308576389,0,0,0,,,,,,,MUSCLE,LB,new,y,./images/MUSCLELB.png,,,,,,,z,0,4.5898,,,,,,,,0,131,131,88,1
,,,,,,,,,,,,,,,,,199009,19,2022-01-25_21h27.31.248,lexical_decision_task_DD_L5,2021.2.3,MacIntel,60.0024001,,,,,,,,,,,1.1804,0,,,,,,,,,,,,,,,,,,,,,,,,,-0.027005208,-0.308576389,0,0,0,,,,,,,BEARD,C,new,y,./images/BEARD.png,,,,,,,z,0,1.1804,,,,,,,,0,132,132,86,1
,,,,,,,,,,,,,,,,,199009,19,2022-01-25_21h27.31.248,lexical_decision_task_DD_L5,2021.2.3,MacIntel,60.0024001,,,,,,,,,,,1.1593,0,,,,,,,,,,,,,,,,,,,,,,,,,-0.027005208,-0.308576389,0,0,0,,,,,,,ALLEY,LB,old,y,./images/ALLEYLB.png,,,,,,,z,0,1.1593,,,,,,,,0,133,133,55,1
,,,,,,,,,,,,,,,,,199009,19,2022-01-25_21h27.31.248,lexical_decision_task_DD_L5,2021.2.3,MacIntel,60.0024001,,,,,,,,,,,0.8202,0,,,,,,,,,,,,,,,,,,,,,,,,,-0.027005208,-0.308576389,0,0,0,,,,,,,VALLEY,C,old,y,./images/VALLEY.png,,,,,,,m,0,0.8202,,,,,,,,0,134,134,68,1
,,,,,,,,,,,,,,,,,199009,19,2022-01-25_21h27.31.248,lexical_decision_task_DD_L5,2021.2.3,MacIntel,60.0024001,,,,,,,,,,,0.7413,0,,,,,,,,,,,,,,,,,,,,,,,,,-0.027005208,-0.308576389,0,0,0,,,,,,,URINE,LB,new,y,./images/URINELB.png,,,,,,,z,0,0.7413,,,,,,,,0,135,135,154,1
,,,,,,,,,,,,,,,,,199009,19,2022-01-25_21h27.31.248,lexical_decision_task_DD_L5,2021.2.3,MacIntel,60.0024001,,,,,,,,,,,0.9345,0,,,,,,,,,,,,,,,,,,,,,,,,,-0.027005208,-0.308576389,0,0,0,,,,,,,STAIN,HB,old,y,./images/STAINHB.png,,,,,,,m,0,0.9345,,,,,,,,0,136,136,6,1
,,,,,,,,,,,,,,,,,199009,19,2022-01-25_21h27.31.248,lexical_decision_task_DD_L5,2021.2.3,MacIntel,60.0024001,,,,,,,,,,,0.8084,0,,,,,,,,,,,,,,,,,,,,,,,,,-0.027005208,-0.308576389,0,0,0,,,,,,,PIMPLE,C,new,y,./images/PIMPLE.png,,,,,,,z,0,0.8084,,,,,,,,0,137,137,155,1
,,,,,,,,,,,,,,,,,199009,19,2022-01-25_21h27.31.248,lexical_decision_task_DD_L5,2021.2.3,MacIntel,60.0024001,,,,,,,,,,,7.666,0,,,,,,,,,,,,,,,,,,,,,,,,,-0.026783854,-0.308320313,0,0,0,,,,,,,COUCH,C,new,y,./images/COUCH.png,,,,,,,m,0,7.666,,,,,,,,0,138,138,161,1
,,,,,,,,,,,,,,,,,199009,19,2022-01-25_21h27.31.248,lexical_decision_task_DD_L5,2021.2.3,MacIntel,60.0024001,,,,,,,,,,,2.0805,0,,,,,,,,,,,,,,,,,,,,,,,,,-0.026783854,-0.308320313,0,0,0,,,,,,,HOCKEY,C,old,y,./images/HOCKEY.png,,,,,,,m,0,2.0805,,,,,,,,0,139,139,32,1
,,,,,,,,,,,,,,,,,199009,19,2022-01-25_21h27.31.248,lexical_decision_task_DD_L5,2021.2.3,MacIntel,60.0024001,,,,,,,,,,,1.8964,0,,,,,,,,,,,,,,,,,,,,,,,,,-0.026783854,-0.308320313,0,0,0,,,,,,,BELLY,LB,new,y,./images/BELLYLB.png,,,,,,,z,0,1.8964,,,,,,,,0,140,140,94,1
,,,,,,,,,,,,,,,,,199009,19,2022-01-25_21h27.31.248,lexical_decision_task_DD_L5,2021.2.3,MacIntel,60.0024001,,,,,,,,,,,8.5303,0,,,,,,,,,,,,,,,,,,,,,,,,,-0.026783854,-0.308320313,0,0,0,,,,,,,SQUARE,HB,new,y,./images/SQUAREHB.png,,,,,,,z,0,8.5303,,,,,,,,0,141,141,90,1
,,,,,,,,,,,,,,,,,199009,19,2022-01-25_21h27.31.248,lexical_decision_task_DD_L5,2021.2.3,MacIntel,60.0024001,,,,,,,,,,,2.0346,0,,,,,,,,,,,,,,,,,,,,,,,,,-0.027039931,-0.308320313,0,0,0,,,,,,,LIZARD,C,new,y,./images/LIZARD.png,,,,,,,m,0,2.0346,,,,,,,,0,142,142,128,1
,,,,,,,,,,,,,,,,,199009,19,2022-01-25_21h27.31.248,lexical_decision_task_DD_L5,2021.2.3,MacIntel,60.0024001,,,,,,,,,,,1.2551,0,,,,,,,,,,,,,,,,,,,,,,,,,-0.025460069,-0.308320313,0,0,0,,,,,,,CRADLE,C,new,y,./images/CRADLE.png,,,,,,,z,0,1.2551,,,,,,,,0,143,143,104,1
,,,,,,,,,,,,,,,,,199009,19,2022-01-25_21h27.31.248,lexical_decision_task_DD_L5,2021.2.3,MacIntel,60.0024001,,,,,,,,,,,1.2839,0,,,,,,,,,,,,,,,,,,,,,,,,,-0.025460069,-0.308320313,0,0,0,,,,,,,PILOT,C,old,y,./images/PILOT.png,,,,,,,m,0,1.2839,,,,,,,,0,144,144,50,1
,,,,,,,,,,,,,,,,,199009,19,2022-01-25_21h27.31.248,lexical_decision_task_DD_L5,2021.2.3,MacIntel,60.0024001,,,,,,,,,,,4.8694,0,,,,,,,,,,,,,,,,,,,,,,,,,-0.024926215,-0.308320313,0,0,0,,,,,,,WAGON,LB,old,y,./images/WAGONLB.png,,,,,,,m,0,4.8694,,,,,,,,0,145,145,7,1
,,,,,,,,,,,,,,,,,199009,19,2022-01-25_21h27.31.248,lexical_decision_task_DD_L5,2021.2.3,MacIntel,60.0024001,,,,,,,,,,,0.5216,0,,,,,,,,,,,,,,,,,,,,,,,,,-0.025182292,-0.308320313,0,0,0,,,,,,,ENGINE,C,old,y,./images/ENGINE.png,,,,,,,m,0,0.5216,,,,,,,,0,146,146,38,1
,,,,,,,,,,,,,,,,,199009,19,2022-01-25_21h27.31.248,lexical_decision_task_DD_L5,2021.2.3,MacIntel,60.0024001,,,,,,,,,,,0.9011,0,,,,,,,,,,,,,,,,,,,,,,,,,-0.023628472,-0.308585069,0,0,0,,,,,,,CURRY,HB,old,y,./images/CURRYHB.png,,,,,,,m,0,0.9011,,,,,,,,0,147,147,60,1
,,,,,,,,,,,,,,,,,199009,19,2022-01-25_21h27.31.248,lexical_decision_task_DD_L5,2021.2.3,MacIntel,60.0024001,,,,,,,,,,,0.8682,0,,,,,,,,,,,,,,,,,,,,,,,,,-0.022855903,-0.308854167,0,0,0,,,,,,,FOLDER,HB,new,y,./images/FOLDERHB.png,,,,,,,z,0,0.8682,,,,,,,,0,148,148,126,1
,,,,,,,,,,,,,,,,,199009,19,2022-01-25_21h27.31.248,lexical_decision_task_DD_L5,2021.2.3,MacIntel,60.0024001,,,,,,,,,,,1.3948,0,,,,,,,,,,,,,,,,,,,,,,,,,-0.022291667,-0.309665799,0,0,0,,,,,,,FERRY,HB,old,y,./images/FERRYHB.png,,,,,,,m,0,1.3948,,,,,,,,0,149,149,57,1
,,,,,,,,,,,,,,,,,199009,19,2022-01-25_21h27.31.248,lexical_decision_task_DD_L5,2021.2.3,MacIntel,60.0024001,,,,,,,,,,,0.8204,0,,,,,,,,,,,,,,,,,,,,,,,,,-0.022552083,-0.310177951,0,0,0,,,,,,,BABOON,LB,new,y,./images/BABOONLB.png,,,,,,,m,0,0.8204,,,,,,,,0,150,150,142,1
,,,,,,,,,,,,,,,,,199009,19,2022-01-25_21h27.31.248,lexical_decision_task_DD_L5,2021.2.3,MacIntel,60.0024001,,,,,,,,,,,0.9128,0,,,,,,,,,,,,,,,,,,,,,,,,,-0.022552083,-0.30937934,0,0,0,,,,,,,TULIP,C,new,y,./images/TULIP.png,,,,,,,m,0,0.9128,,,,,,,,0,151,151,92,1
,,,,,,,,,,,,,,,,,199009,19,2022-01-25_21h27.31.248,lexical_decision_task_DD_L5,2021.2.3,MacIntel,60.0024001,,,,,,,,,,,0.7876,0,,,,,,,,,,,,,,,,,,,,,,,,,-0.020716146,-0.309891493,0,0,0,,,,,,,INFANT,LB,new,y,./images/INFANTLB.png,,,,,,,z,0,0.7876,,,,,,,,0,152,152,160,1
,,,,,,,,,,,,,,,,,199009,19,2022-01-25_21h27.31.248,lexical_decision_task_DD_L5,2021.2.3,MacIntel,60.0024001,,,,,,,,,,,0.6992,0,,,,,,,,,,,,,,,,,,,,,,,,,-0.020716146,-0.309891493,0,0,0,,,,,,,PISTOL,C,old,y,./images/PISTOL.png,,,,,,,m,0,0.6992,,,,,,,,0,153,153,29,1
,,,,,,,,,,,,,,,,,199009,19,2022-01-25_21h27.31.248,lexical_decision_task_DD_L5,2021.2.3,MacIntel,60.0024001,,,,,,,,,,,1.0002,0,,,,,,,,,,,,,,,,,,,,,,,,,-0.020972222,-0.309891493,0,0,0,,,,,,,HAMMER,HB,old,y,./images/HAMMERHB.png,,,,,,,m,0,1.0002,,,,,,,,0,154,154,75,1
,,,,,,,,,,,,,,,,,199009,19,2022-01-25_21h27.31.248,lexical_decision_task_DD_L5,2021.2.3,MacIntel,60.0024001,,,,,,,,,,,1.0549,0,,,,,,,,,,,,,,,,,,,,,,,,,-0.021501736,-0.309600694,0,0,0,,,,,,,PICKLE,C,new,y,./images/PICKLE.png,,,,,,,m,0,1.0549,,,,,,,,0,155,155,98,1
,,,,,,,,,,,,,,,,,199009,19,2022-01-25_21h27.31.248,lexical_decision_task_DD_L5,2021.2.3,MacIntel,60.0024001,,,,,,,,,,,0.5713,0,,,,,,,,,,,,,,,,,,,,,,,,,-0.020729167,-0.309600694,0,0,0,,,,,,,BANANA,LB,old,y,./images/BANANALB.png,,,,,,,m,0,0.5713,,,,,,,,0,156,156,70,1
,,,,,,,,,,,,,,,,,199009,19,2022-01-25_21h27.31.248,lexical_decision_task_DD_L5,2021.2.3,MacIntel,60.0024001,,,,,,,,,,,0.447,0,,,,,,,,,,,,,,,,,,,,,,,,,-0.020729167,-0.309600694,0,0,0,,,,,,,BARREL,C,new,y,./images/BARREL.png,,,,,,,m,0,0.447,,,,,,,,0,157,157,116,1
,,,,,,,,,,,,,,,,,199009,19,2022-01-25_21h27.31.248,lexical_decision_task_DD_L5,2021.2.3,MacIntel,60.0024001,,,,,,,,,,,0.7849,0,,,,,,,,,,,,,,,,,,,,,,,,,-0.020729167,-0.309600694,0,0,0,,,,,,,ARTIST,LB,old,y,./images/ARTISTLB.png,,,,,,,m,0,0.7849,,,,,,,,0,158,158,61,1
,,,,,,,,,,,,,,,,,199009,19,2022-01-25_21h27.31.248,lexical_decision_task_DD_L5,2021.2.3,MacIntel,60.0024001,,,,,,,,,,,0.7012,0,,,,,,,,,,,,,,,,,,,,,,,,,-0.020729167,-0.309600694,0,0,0,,,,,,,DESERT,LB,old,y,./images/DESERTLB.png,,,,,,,m,0,0.7012,,,,,,,,0,159,159,52,1
,,,,,,,,,,,,,,,,,199009,19,2022-01-25_21h27.31.248,lexical_decision_task_DD_L5,2021.2.3,MacIntel,60.0024001,,,,,,,,,,,0.5753,0,,,,,,,,,,,,,,,,,,,,,,,,,-0.020729167,-0.309600694,0,0,0,,,,,,,BROOM,HB,old,y,./images/BROOMHB.png,,,,,,,m,0,0.5753,,,,,,,,0,160,160,78,1
,,,,,,,,,,,,,,,,,199009,19,2022-01-25_21h27.31.248,lexical_decision_task_DD_L5,2021.2.3,MacIntel,60.0024001,,,,,,,,,,,0.69,0,,,,,,,,,,,,,,,,,,,,,,,,,-0.020729167,-0.309600694,0,0,0,,,,,,,BIRTH,LB,new,y,./images/BIRTHLB.png,,,,,,,z,0,0.69,,,,,,,,0,161,161,121,1
,,,,,,,,,,,,,,,,,199009,19,2022-01-25_21h27.31.248,lexical_decision_task_DD_L5,2021.2.3,MacIntel,60.0024001,,,,,,,,,,,0.7511,0,,,,,,,,,,,,,,,,,,,,,,,,,-0.020729167,-0.309600694,0,0,0,,,,,,,CANYON,LB,new,y,./images/CANYONLB.png,,,,,,,m,0,0.7511,,,,,,,,0,162,162,118,1
,,,,,,,,,,,,,,,,,199009,19,2022-01-25_21h27.31.248,lexical_decision_task_DD_L5,2021.2.3,MacIntel,60.0024001,,,,,,,,,,,1.219,0,,,,,,,,,,,,,,,,,,,,,,,,,-0.020729167,-0.309600694,0,0,0,,,,,,,FLASK,HB,old,y,./images/FLASKHB.png,,,,,,,z,0,1.219,,,,,,,,0,163,163,72,1
,,,,,,,,,,,,,,,,,199009,19,2022-01-25_21h27.31.248,lexical_decision_task_DD_L5,2021.2.3,MacIntel,60.0024001,,,,,,,,,,,0.9128,0,,,,,,,,,,,,,,,,,,,,,,,,,-0.021506076,-0.309019097,0,0,0,,,,,,,JUMPER,C,old,y,./images/JUMPER.png,,,,,,,m,0,0.9128,,,,,,,,0,164,164,74,1
,,,,,,,,,,,,,,,,,199009,19,2022-01-25_21h27.31.248,lexical_decision_task_DD_L5,2021.2.3,MacIntel,60.0024001,,,,,,,,,,,0.9739,0,,,,,,,,,,,,,,,,,,,,,,,,,-0.021506076,-0.309019097,0,0,0,,,,,,,GRAIN,HB,new,y,./images/GRAINHB.png,,,,,,,m,0,0.9739,,,,,,,,0,165,165,159,1
,,,,,,,,,,,,,,,,,199009,19,2022-01-25_21h27.31.248,lexical_decision_task_DD_L5,2021.2.3,MacIntel,60.0024001,,,,,,,,,,,0.6899,0,,,,,,,,,,,,,,,,,,,,,,,,,-0.021506076,-0.309019097,0,0,0,,,,,,,STATUE,HB,old,y,./images/STATUEHB.png,,,,,,,m,0,0.6899,,,,,,,,0,166,166,66,1
,,,,,,,,,,,,,,,,,199009,19,2022-01-25_21h27.31.248,lexical_decision_task_DD_L5,2021.2.3,MacIntel,60.0024001,,,,,,,,,,,1.0011,0,,,,,,,,,,,,,,,,,,,,,,,,,-0.023064236,-0.307947049,0,0,0,,,,,,,CLOWN,LB,old,y,./images/CLOWNLB.png,,,,,,,m,0,1.0011,,,,,,,,0,167,167,22,1
