key_resp.keys,instr_done_touch.x,instr_done_touch.y,instr_done_touch.leftButton,instr_done_touch.midButton,instr_done_touch.rightButton,instr_done_touch.clicked_name,instruction_pages.thisRepN,instruction_pages.thisTrialN,instruction_pages.thisN,instruction_pages.thisIndex,instruction_pages.ran,pageN,phase,instruct_text,has_image,instruct_image,participant,age,date,expName,psychopyVersion,OS,frameRate,response.keys,response.corr,touch_resp.x,touch_resp.y,touch_resp.leftButton,touch_resp.midButton,touch_resp.rightButton,touch_resp.time,touch_resp.clicked_name,rt,corr,practrials.thisRepN,practrials.thisTrialN,practrials.thisN,practrials.thisIndex,practrials.ran,TrialID,Target,corrAns,end_of_practice_trials_pages.thisRepN,end_of_practice_trials_pages.thisTrialN,end_of_practice_trials_pages.thisN,end_of_practice_trials_pages.thisIndex,end_of_practice_trials_pages.ran,key_resp_2.keys,key_resp_2.corr,targ_click.x,targ_click.y,targ_click.leftButton,targ_click.midButton,targ_click.rightButton,targ_click.time,targ_click.clicked_name,break_done_touch.x,break_done_touch.y,break_done_touch.leftButton,break_done_touch.midButton,break_done_touch.rightButton,break_done_keyboard.keys,maintrials.thisRepN,maintrials.thisTrialN,maintrials.thisN,maintrials.thisIndex,maintrials.ran,string,blur,study,lex,stim_path,break_done_touch.clicked_name,test_instructions.thisRepN,test_instructions.thisTrialN,test_instructions.thisN,test_instructions.thisIndex,test_instructions.ran,key_resp.rt,key_resp_3.keys,key_resp_3.corr,test_click.x,test_click.y,test_click.leftButton,test_click.midButton,test_click.rightButton,test_click.time,test_click.clicked_name,test_phase.thisRepN,test_phase.thisTrialN,test_phase.thisN,test_phase.thisIndex,test_phase.ran
,0.091666696,-0.397222249,1,0,0,instr_done_button,0,0,0,0,1,1,instructions,"INSTRUCTIONS
At the start of each trial, look at the plus sign  (+) in the center of the screen.  This tells you that a trial is about to begin and where to look. Second, the plus sign will disappear and a string of letters will appear. Your task is to determine if the string of letters is a word or not. If the item is a word press the M key (on keyboard)  or touch the word button (phone/tablet).  If the item is not a word,  press the  Z key (on keyboard)  or touch the nonword button (on phone/tablet). 
Press the space bar or touch  continue.",0,,199045,18,2022-01-28_17h48.36.594,lexical_decision_task_DD_L2,2021.2.3,Win32,60.01680471,,,,,,,,,,,,,,,,,,,,,,,,,,,,,,,,,,,,,,,,,,,,,,,,,,,,,,,,,,,,,,,,,,,,,,
,0.052777806,-0.403703731,1,0,0,instr_done_button,0,1,1,1,1,2,instructions,"If your device has a keyboard, press the 'Z' key for nonwords and the 'M' key for words.





Press the space bar or touch the button below to continue.",0,keyboard-example.gif,199045,18,2022-01-28_17h48.36.594,lexical_decision_task_DD_L2,2021.2.3,Win32,60.01680471,,,,,,,,,,,,,,,,,,,,,,,,,,,,,,,,,,,,,,,,,,,,,,,,,,,,,,,,,,,,,,,,,,,,,,
,0.062962991,-0.390740824,1,0,0,instr_done_button,0,2,2,2,1,3,instructions,"If you are using a touchscreen only device, use the buttons on the screen. Do not use the mouse.





Press the space bar or touch the button below to continue.",0,touchscreen-example.gif,199045,18,2022-01-28_17h48.36.594,lexical_decision_task_DD_L2,2021.2.3,Win32,60.01680471,,,,,,,,,,,,,,,,,,,,,,,,,,,,,,,,,,,,,,,,,,,,,,,,,,,,,,,,,,,,,,,,,,,,,,
,0.025925953,-0.391666693,1,0,0,instr_done_button,0,3,3,3,1,4,instructions,"It is very important that you respond as quickly and accurately as possible, as each letter string will only be on the screen for two seconds. If you do not respond within this time, the message 'Too slow!' will be displayed and the experiment will progress to the next letter string. The first 20 trials will be practice trials and you will receive feedback on your answers. 

Press the space bar or touch the button below to start the practice trials.",0,,199045,18,2022-01-28_17h48.36.594,lexical_decision_task_DD_L2,2021.2.3,Win32,60.01680471,,,,,,,,,,,,,,,,,,,,,,,,,,,,,,,,,,,,,,,,,,,,,,,,,,,,,,,,,,,,,,,,,,,,,,
,,,,,,,,,,,,,,,,,199045,18,2022-01-28_17h48.36.594,lexical_decision_task_DD_L2,2021.2.3,Win32,60.01680471,,0,0.490740782,-0.287963043,1,0,0,1.7097,button_right,1.7097,1,0,0,0,6,1,1001,ZOMBIE,m,,,,,,,,,,,,,,,,,,,,,,,,,,,,,,,,,,,,,,,,,,,,,,,,,,,
,,,,,,,,,,,,,,,,,199045,18,2022-01-28_17h48.36.594,lexical_decision_task_DD_L2,2021.2.3,Win32,60.01680471,,0,-0.424999986,-0.303703728,1,0,0,2.0461,button_left,2.0461,1,0,1,1,8,1,1001,ASLERT,z,,,,,,,,,,,,,,,,,,,,,,,,,,,,,,,,,,,,,,,,,,,,,,,,,,,
,,,,,,,,,,,,,,,,,199045,18,2022-01-28_17h48.36.594,lexical_decision_task_DD_L2,2021.2.3,Win32,60.01680471,,0,-0.249074055,-0.288888912,1,0,0,2.3125,button_left,2.3125,1,0,2,2,12,1,1001,SPRINY,z,,,,,,,,,,,,,,,,,,,,,,,,,,,,,,,,,,,,,,,,,,,,,,,,,,,
,,,,,,,,,,,,,,,,,199045,18,2022-01-28_17h48.36.594,lexical_decision_task_DD_L2,2021.2.3,Win32,60.01680471,,0,0.429629669,-0.278703727,1,0,0,1.0472,button_right,1.0472,1,0,3,3,7,1,1001,VOLUME,m,,,,,,,,,,,,,,,,,,,,,,,,,,,,,,,,,,,,,,,,,,,,,,,,,,,
,,,,,,,,,,,,,,,,,199045,18,2022-01-28_17h48.36.594,lexical_decision_task_DD_L2,2021.2.3,Win32,60.01680471,,0,-0.269444426,-0.285185265,1,0,0,1.4809,button_left,1.4809,1,0,4,4,14,1,1001,THRALE,z,,,,,,,,,,,,,,,,,,,,,,,,,,,,,,,,,,,,,,,,,,,,,,,,,,,
,,,,,,,,,,,,,,,,,199045,18,2022-01-28_17h48.36.594,lexical_decision_task_DD_L2,2021.2.3,Win32,60.01680471,,0,0.397222261,-0.285185265,1,0,0,1.147,button_right,1.147,1,0,5,5,3,1,1001,MATRIX,m,,,,,,,,,,,,,,,,,,,,,,,,,,,,,,,,,,,,,,,,,,,,,,,,,,,
,,,,,,,,,,,,,,,,,199045,18,2022-01-28_17h48.36.594,lexical_decision_task_DD_L2,2021.2.3,Win32,60.01680471,,0,0.362963,-0.299074154,1,0,0,1.5473,button_right,1.5473,0,0,6,6,11,1,1001,RASHET,z,,,,,,,,,,,,,,,,,,,,,,,,,,,,,,,,,,,,,,,,,,,,,,,,,,,
,,,,,,,,,,,,,,,,,199045,18,2022-01-28_17h48.36.594,lexical_decision_task_DD_L2,2021.2.3,Win32,60.01680471,,0,-0.372222207,-0.324074155,1,0,0,1.1302,button_left,1.1302,1,0,7,7,9,1,1001,FARINY,z,,,,,,,,,,,,,,,,,,,,,,,,,,,,,,,,,,,,,,,,,,,,,,,,,,,
,,,,,,,,,,,,,,,,,199045,18,2022-01-28_17h48.36.594,lexical_decision_task_DD_L2,2021.2.3,Win32,60.01680471,,0,0.352777815,-0.286111135,1,0,0,0.8639,button_right,0.8639,1,0,8,8,4,1,1001,SQUEAK,m,,,,,,,,,,,,,,,,,,,,,,,,,,,,,,,,,,,,,,,,,,,,,,,,,,,
,,,,,,,,,,,,,,,,,199045,18,2022-01-28_17h48.36.594,lexical_decision_task_DD_L2,2021.2.3,Win32,60.01680471,,0,-0.369444429,-0.297222246,1,0,0,0.9305,button_left,0.9305,1,0,9,9,15,1,1001,WHAISE,z,,,,,,,,,,,,,,,,,,,,,,,,,,,,,,,,,,,,,,,,,,,,,,,,,,,
,,,,,,,,,,,,,,,,,199045,18,2022-01-28_17h48.36.594,lexical_decision_task_DD_L2,2021.2.3,Win32,60.01680471,,0,0.325000036,-0.262963042,1,0,0,0.8309,button_right,0.8309,1,0,10,10,0,1,1001,UTOPIA,m,,,,,,,,,,,,,,,,,,,,,,,,,,,,,,,,,,,,,,,,,,,,,,,,,,,
,,,,,,,,,,,,,,,,,199045,18,2022-01-28_17h48.36.594,lexical_decision_task_DD_L2,2021.2.3,Win32,60.01680471,,0,-0.358333318,-0.292592616,1,0,0,1.0145,button_left,1.0145,1,0,11,11,13,1,1001,ROUPET,z,,,,,,,,,,,,,,,,,,,,,,,,,,,,,,,,,,,,,,,,,,,,,,,,,,,
,,,,,,,,,,,,,,,,,199045,18,2022-01-28_17h48.36.594,lexical_decision_task_DD_L2,2021.2.3,Win32,60.01680471,,0,0.329629666,-0.282407487,1,0,0,0.7473,button_right,0.7473,1,0,12,12,1,1,1001,ADJUST,m,,,,,,,,,,,,,,,,,,,,,,,,,,,,,,,,,,,,,,,,,,,,,,,,,,,
,,,,,,,,,,,,,,,,,199045,18,2022-01-28_17h48.36.594,lexical_decision_task_DD_L2,2021.2.3,Win32,60.01680471,,0,0.508333375,-0.302777802,1,0,0,0.798,button_right,0.798,1,0,13,13,5,1,1001,OBTAIN,m,,,,,,,,,,,,,,,,,,,,,,,,,,,,,,,,,,,,,,,,,,,,,,,,,,,
,,,,,,,,,,,,,,,,,199045,18,2022-01-28_17h48.36.594,lexical_decision_task_DD_L2,2021.2.3,Win32,60.01680471,,0,0.44074078,-0.294444468,1,0,0,0.8472,button_right,0.8472,1,0,14,14,2,1,1001,ALMOND,m,,,,,,,,,,,,,,,,,,,,,,,,,,,,,,,,,,,,,,,,,,,,,,,,,,,
,,,,,,,,,,,,,,,,,199045,18,2022-01-28_17h48.36.594,lexical_decision_task_DD_L2,2021.2.3,Win32,60.01680471,,0,0.361111148,-0.292592616,1,0,0,1.6978,button_right,1.6978,0,0,15,15,10,1,1001,INLADE,z,,,,,,,,,,,,,,,,,,,,,,,,,,,,,,,,,,,,,,,,,,,,,,,,,,,
,0.066666695,-0.40833336,1,0,0,instr_done_button,,,,,,1,end_of_practice,"You have completed the practice trials. During the experimental trials, you will not receive feedback. 
Before you begin, please ensure that you are in a comfortable and quiet location and will not be disturbed for about 15 minutes, as we cannot use your data if you do not complete all the trials. 
 When you are ready to start the experimental trials, please press space or touch the button below.",,,199045,18,2022-01-28_17h48.36.594,lexical_decision_task_DD_L2,2021.2.3,Win32,60.01680471,,,,,,,,,,,,,,,,,,,,0,0,0,0,1,,,,,,,,,,,,,,,,,,,,,,,,,,,,,,,,,,,,,,,,,,,,,,
,,,,,,,,,,,,,,,,,199045,18,2022-01-28_17h48.36.594,lexical_decision_task_DD_L2,2021.2.3,Win32,60.01680471,,,,,,,,,,2.7442,0,,,,,,,,,,,,,,,0,0.310185221,-0.275000023,1,0,0,2.7442,button_right_main,0.310185221,-0.275000023,1,0,0,,0,0,0,100,1,DRIBS,HB,old,z,./images/DRIBSHB.png,,,,,,,,,,,,,,,,,,,,,
,,,,,,,,,,,,,,,,,199045,18,2022-01-28_17h48.36.594,lexical_decision_task_DD_L2,2021.2.3,Win32,60.01680471,,,,,,,,,,1.0317,1,,,,,,,,,,,,,,,0,0.593518563,-0.312963044,1,0,0,1.0317,button_right_main,0.593518563,-0.312963044,1,0,0,,0,1,1,53,1,CARPET,C,old,m,./images/CARPET.png,,,,,,,,,,,,,,,,,,,,,
,,,,,,,,,,,,,,,,,199045,18,2022-01-28_17h48.36.594,lexical_decision_task_DD_L2,2021.2.3,Win32,60.01680471,,,,,,,,,,2.9508,0,,,,,,,,,,,,,,,0,0.325000036,-0.26203706,1,0,0,2.9508,button_right_main,0.325000036,-0.26203706,1,0,0,,0,2,2,113,1,LINEW,LB,old,z,./images/LINEWLB.png,,,,,,,,,,,,,,,,,,,,,
,,,,,,,,,,,,,,,,,199045,18,2022-01-28_17h48.36.594,lexical_decision_task_DD_L2,2021.2.3,Win32,60.01680471,,,,,,,,,,0.9315,1,,,,,,,,,,,,,,,0,0.499074115,-0.277777801,1,0,0,0.9315,button_right_main,0.499074115,-0.277777801,1,0,0,,0,3,3,76,1,INFANT,LB,old,m,./images/INFANTLB.png,,,,,,,,,,,,,,,,,,,,,
,,,,,,,,,,,,,,,,,199045,18,2022-01-28_17h48.36.594,lexical_decision_task_DD_L2,2021.2.3,Win32,60.01680471,,,,,,,,,,1.2315,1,,,,,,,,,,,,,,,0,-0.398148134,-0.299074154,1,0,0,1.2315,button_left_main,-0.398148134,-0.299074154,1,0,0,,0,4,4,126,1,GUELS,C,old,z,./images/GUELS.png,,,,,,,,,,,,,,,,,,,,,
,,,,,,,,,,,,,,,,,199045,18,2022-01-28_17h48.36.594,lexical_decision_task_DD_L2,2021.2.3,Win32,60.01680471,,,,,,,,,,2.1984,1,,,,,,,,,,,,,,,0,-0.22499998,-0.288888912,1,0,0,2.1984,button_left_main,-0.22499998,-0.288888912,1,0,0,,0,5,5,118,1,BAVEL,HB,old,z,./images/BAVELHB.png,,,,,,,,,,,,,,,,,,,,,
,,,,,,,,,,,,,,,,,199045,18,2022-01-28_17h48.36.594,lexical_decision_task_DD_L2,2021.2.3,Win32,60.01680471,,,,,,,,,,1.0177,1,,,,,,,,,,,,,,,0,0.290740776,-0.255555578,1,0,0,1.0177,button_right_main,0.290740776,-0.255555578,1,0,0,,0,6,6,34,1,CANYON,LB,old,m,./images/CANYONLB.png,,,,,,,,,,,,,,,,,,,,,
,,,,,,,,,,,,,,,,,199045,18,2022-01-28_17h48.36.594,lexical_decision_task_DD_L2,2021.2.3,Win32,60.01680471,,,,,,,,,,0.8848,1,,,,,,,,,,,,,,,0,0.375000038,-0.280555579,1,0,0,0.8848,button_right_main,0.375000038,-0.280555579,1,0,0,,0,7,7,20,1,CRADLE,C,old,m,./images/CRADLE.png,,,,,,,,,,,,,,,,,,,,,
,,,,,,,,,,,,,,,,,199045,18,2022-01-28_17h48.36.594,lexical_decision_task_DD_L2,2021.2.3,Win32,60.01680471,,,,,,,,,,0.9985,1,,,,,,,,,,,,,,,0,-0.265740722,-0.303703728,1,0,0,0.9985,button_left_main,-0.265740722,-0.303703728,1,0,0,,0,8,8,116,1,BALGY,LB,old,z,./images/BALGYLB.png,,,,,,,,,,,,,,,,,,,,,
,,,,,,,,,,,,,,,,,199045,18,2022-01-28_17h48.36.594,lexical_decision_task_DD_L2,2021.2.3,Win32,60.01680471,,,,,,,,,,0.8016,1,,,,,,,,,,,,,,,0,0.299074109,-0.261111134,1,0,0,0.8016,button_right_main,0.299074109,-0.261111134,1,0,0,,0,9,9,60,1,TWINS,HB,old,m,./images/TWINSHB.png,,,,,,,,,,,,,,,,,,,,,
,,,,,,,,,,,,,,,,,199045,18,2022-01-28_17h48.36.594,lexical_decision_task_DD_L2,2021.2.3,Win32,60.01680471,,,,,,,,,,0.682,1,,,,,,,,,,,,,,,0,0.487963004,-0.288888912,1,0,0,0.682,button_right_main,0.487963004,-0.288888912,1,0,0,,0,10,10,19,1,DOUGH,LB,old,m,./images/DOUGHLB.png,,,,,,,,,,,,,,,,,,,,,
,,,,,,,,,,,,,,,,,199045,18,2022-01-28_17h48.36.594,lexical_decision_task_DD_L2,2021.2.3,Win32,60.01680471,,,,,,,,,,0.8348,1,,,,,,,,,,,,,,,0,0.358333371,-0.280555579,1,0,0,0.8348,button_right_main,0.358333371,-0.280555579,1,0,0,,0,11,11,47,1,BERRY,C,old,m,./images/BERRY.png,,,,,,,,,,,,,,,,,,,,,
,,,,,,,,,,,,,,,,,199045,18,2022-01-28_17h48.36.594,lexical_decision_task_DD_L2,2021.2.3,Win32,60.01680471,,,,,,,,,,1.6317,1,,,,,,,,,,,,,,,0,-0.305555538,-0.277777801,1,0,0,1.6317,button_left_main,-0.305555538,-0.277777801,1,0,0,,0,12,12,121,1,CEERS,HB,old,z,./images/CEERSHB.png,,,,,,,,,,,,,,,,,,,,,
,,,,,,,,,,,,,,,,,199045,18,2022-01-28_17h48.36.594,lexical_decision_task_DD_L2,2021.2.3,Win32,60.01680471,,,,,,,,,,0.9155,1,,,,,,,,,,,,,,,0,0.435185225,-0.256481504,1,0,0,0.9155,button_right_main,0.435185225,-0.256481504,1,0,0,,0,13,13,9,1,RHINO,HB,old,m,./images/RHINOHB.png,,,,,,,,,,,,,,,,,,,,,
,,,,,,,,,,,,,,,,,199045,18,2022-01-28_17h48.36.594,lexical_decision_task_DD_L2,2021.2.3,Win32,60.01680471,,,,,,,,,,1.1652,1,,,,,,,,,,,,,,,0,0.314814851,-0.262963042,1,0,0,1.1652,button_right_main,0.314814851,-0.262963042,1,0,0,,0,14,14,55,1,MUFFIN,LB,old,m,./images/MUFFINLB.png,,,,,,,,,,,,,,,,,,,,,
,,,,,,,,,,,,,,,,,199045,18,2022-01-28_17h48.36.594,lexical_decision_task_DD_L2,2021.2.3,Win32,60.01680471,,,,,,,,,,0.9642,1,,,,,,,,,,,,,,,0,-0.34629628,-0.302777802,1,0,0,0.9642,button_left_main,-0.34629628,-0.302777802,1,0,0,,0,15,15,132,1,SCIFF,C,old,z,./images/SCIFF.png,,,,,,,,,,,,,,,,,,,,,
,,,,,,,,,,,,,,,,,199045,18,2022-01-28_17h48.36.594,lexical_decision_task_DD_L2,2021.2.3,Win32,60.01680471,,,,,,,,,,1.3318,1,,,,,,,,,,,,,,,0,0.286111146,-0.26203706,1,0,0,1.3318,button_right_main,0.286111146,-0.26203706,1,0,0,,0,16,16,8,1,TULIP,C,old,m,./images/TULIP.png,,,,,,,,,,,,,,,,,,,,,
,,,,,,,,,,,,,,,,,199045,18,2022-01-28_17h48.36.594,lexical_decision_task_DD_L2,2021.2.3,Win32,60.01680471,,,,,,,,,,0.7988,1,,,,,,,,,,,,,,,0,0.31944448,-0.268518598,1,0,0,0.7988,button_right_main,0.31944448,-0.268518598,1,0,0,,0,17,17,0,1,TOMATO,HB,old,m,./images/TOMATOHB.png,,,,,,,,,,,,,,,,,,,,,
,,,,,,,,,,,,,,,,,199045,18,2022-01-28_17h48.36.594,lexical_decision_task_DD_L2,2021.2.3,Win32,60.01680471,,,,,,,,,,0.6152,1,,,,,,,,,,,,,,,0,0.417592632,-0.279629709,1,0,0,0.6152,button_right_main,0.417592632,-0.279629709,1,0,0,,0,18,18,44,1,LIZARD,C,old,m,./images/LIZARD.png,,,,,,,,,,,,,,,,,,,,,
,,,,,,,,,,,,,,,,,199045,18,2022-01-28_17h48.36.594,lexical_decision_task_DD_L2,2021.2.3,Win32,60.01680471,,,,,,,,,,0.915,1,,,,,,,,,,,,,,,0,-0.267592574,-0.284259283,1,0,0,0.915,button_left_main,-0.267592574,-0.284259283,1,0,0,,0,19,19,155,1,CANGY,LB,old,z,./images/CANGYLB.png,,,,,,,,,,,,,,,,,,,,,
,,,,,,,,,,,,,,,,,199045,18,2022-01-28_17h48.36.594,lexical_decision_task_DD_L2,2021.2.3,Win32,60.01680471,,,,,,,,,,1.2486,1,,,,,,,,,,,,,,,0,-0.38518517,-0.272222245,1,0,0,1.2486,button_left_main,-0.38518517,-0.272222245,1,0,0,,0,20,20,84,1,HAXES,C,old,z,./images/HAXES.png,,,,,,,,,,,,,,,,,,,,,
,,,,,,,,,,,,,,,,,199045,18,2022-01-28_17h48.36.594,lexical_decision_task_DD_L2,2021.2.3,Win32,60.01680471,,,,,,,,,,0.8151,1,,,,,,,,,,,,,,,0,-0.31666665,-0.301851932,1,0,0,0.8151,button_left_main,-0.31666665,-0.301851932,1,0,0,,0,21,21,147,1,ZOLES,C,old,z,./images/ZOLES.png,,,,,,,,,,,,,,,,,,,,,
,,,,,,,,,,,,,,,,,199045,18,2022-01-28_17h48.36.594,lexical_decision_task_DD_L2,2021.2.3,Win32,60.01680471,,,,,,,,,,1.0461,1,,,,,,,,,,,,,,,0,-0.402777763,-0.289814838,1,0,0,1.0461,button_left_main,-0.402777763,-0.289814838,1,0,0,,0,22,22,128,1,GRIFT,LB,old,z,./images/GRIFTLB.png,,,,,,,,,,,,,,,,,,,,,
,,,,,,,,,,,,,,,,,199045,18,2022-01-28_17h48.36.594,lexical_decision_task_DD_L2,2021.2.3,Win32,60.01680471,,,,,,,,,,1.9482,0,,,,,,,,,,,,,,,0,0.417592632,-0.279629709,1,0,0,1.9482,button_right_main,0.417592632,-0.279629709,1,0,0,,0,23,23,130,1,CRILL,HB,old,z,./images/CRILLHB.png,,,,,,,,,,,,,,,,,,,,,
,,,,,,,,,,,,,,,,,199045,18,2022-01-28_17h48.36.594,lexical_decision_task_DD_L2,2021.2.3,Win32,60.01680471,,,,,,,,,,1.0822,1,,,,,,,,,,,,,,,0,-0.330555539,-0.28703706,1,0,0,1.0822,button_left_main,-0.330555539,-0.28703706,1,0,0,,0,24,24,136,1,WERVE,HB,old,z,./images/WERVEHB.png,,,,,,,,,,,,,,,,,,,,,
,,,,,,,,,,,,,,,,,199045,18,2022-01-28_17h48.36.594,lexical_decision_task_DD_L2,2021.2.3,Win32,60.01680471,,,,,,,,,,0.8157,1,,,,,,,,,,,,,,,0,0.442592632,-0.255555578,1,0,0,0.8157,button_right_main,0.442592632,-0.255555578,1,0,0,,0,25,25,61,1,CANDLE,LB,old,m,./images/CANDLELB.png,,,,,,,,,,,,,,,,,,,,,
,,,,,,,,,,,,,,,,,199045,18,2022-01-28_17h48.36.594,lexical_decision_task_DD_L2,2021.2.3,Win32,60.01680471,,,,,,,,,,0.7821,1,,,,,,,,,,,,,,,0,-0.261111092,-0.299074154,1,0,0,0.7821,button_left_main,-0.261111092,-0.299074154,1,0,0,,0,26,26,167,1,ZONET,LB,old,z,./images/ZONETLB.png,,,,,,,,,,,,,,,,,,,,,
,,,,,,,,,,,,,,,,,199045,18,2022-01-28_17h48.36.594,lexical_decision_task_DD_L2,2021.2.3,Win32,60.01680471,,,,,,,,,,1.0826,1,,,,,,,,,,,,,,,0,-0.292592575,-0.292592616,1,0,0,1.0826,button_left_main,-0.292592575,-0.292592616,1,0,0,,0,27,27,165,1,TROWN,C,old,z,./images/TROWN.png,,,,,,,,,,,,,,,,,,,,,
,,,,,,,,,,,,,,,,,199045,18,2022-01-28_17h48.36.594,lexical_decision_task_DD_L2,2021.2.3,Win32,60.01680471,,,,,,,,,,0.6154,1,,,,,,,,,,,,,,,0,0.456481522,-0.298148172,1,0,0,0.6154,button_right_main,0.456481522,-0.298148172,1,0,0,,0,28,28,5,1,PASTA,C,old,m,./images/PASTA.png,,,,,,,,,,,,,,,,,,,,,
,,,,,,,,,,,,,,,,,199045,18,2022-01-28_17h48.36.594,lexical_decision_task_DD_L2,2021.2.3,Win32,60.01680471,,,,,,,,,,0.8154,1,,,,,,,,,,,,,,,0,-0.301851834,-0.29166669,1,0,0,0.8154,button_left_main,-0.301851834,-0.29166669,1,0,0,,0,29,29,156,1,HIXES,C,old,z,./images/HIXES.png,,,,,,,,,,,,,,,,,,,,,
,,,,,,,,,,,,,,,,,199045,18,2022-01-28_17h48.36.594,lexical_decision_task_DD_L2,2021.2.3,Win32,60.01680471,,,,,,,,,,0.716,1,,,,,,,,,,,,,,,0,0.441666706,-0.275000023,1,0,0,0.716,button_right_main,0.441666706,-0.275000023,1,0,0,,0,30,30,49,1,DRUMS,LB,old,m,./images/DRUMSLB.png,,,,,,,,,,,,,,,,,,,,,
,,,,,,,,,,,,,,,,,199045,18,2022-01-28_17h48.36.594,lexical_decision_task_DD_L2,2021.2.3,Win32,60.01680471,,,,,,,,,,0.6487,1,,,,,,,,,,,,,,,0,0.413888928,-0.285185265,1,0,0,0.6487,button_right_main,0.413888928,-0.285185265,1,0,0,,0,31,31,40,1,SWING,LB,old,m,./images/SWINGLB.png,,,,,,,,,,,,,,,,,,,,,
,,,,,,,,,,,,,,,,,199045,18,2022-01-28_17h48.36.594,lexical_decision_task_DD_L2,2021.2.3,Win32,60.01680471,,,,,,,,,,0.9519,1,,,,,,,,,,,,,,,0,-0.252777759,-0.299074154,1,0,0,0.9519,button_left_main,-0.252777759,-0.299074154,1,0,0,,0,32,32,124,1,TUNCH,HB,old,z,./images/TUNCHHB.png,,,,,,,,,,,,,,,,,,,,,
,,,,,,,,,,,,,,,,,199045,18,2022-01-28_17h48.36.594,lexical_decision_task_DD_L2,2021.2.3,Win32,60.01680471,,,,,,,,,,0.7154,1,,,,,,,,,,,,,,,0,0.364814852,-0.271296376,1,0,0,0.7154,button_right_main,0.364814852,-0.271296376,1,0,0,,0,33,33,13,1,MOTOR,LB,old,m,./images/MOTORLB.png,,,,,,,,,,,,,,,,,,,,,
,,,,,,,,,,,,,,,,,199045,18,2022-01-28_17h48.36.594,lexical_decision_task_DD_L2,2021.2.3,Win32,60.01680471,,,,,,,,,,0.8488,1,,,,,,,,,,,,,,,0,-0.304629612,-0.282407487,1,0,0,0.8488,button_left_main,-0.304629612,-0.282407487,1,0,0,,0,34,34,108,1,GRUET,C,old,z,./images/GRUET.png,,,,,,,,,,,,,,,,,,,,,
,,,,,,,,,,,,,,,,,199045,18,2022-01-28_17h48.36.594,lexical_decision_task_DD_L2,2021.2.3,Win32,60.01680471,,,,,,,,,,1.0179,1,,,,,,,,,,,,,,,0,-0.274999982,-0.275000023,1,0,0,1.0179,button_left_main,-0.274999982,-0.275000023,1,0,0,,0,35,35,160,1,VEETS,HB,old,z,./images/VEETSHB.png,,,,,,,,,,,,,,,,,,,,,
,,,,,,,,,,,,,,,,,199045,18,2022-01-28_17h48.36.594,lexical_decision_task_DD_L2,2021.2.3,Win32,60.01680471,,,,,,,,,,0.8984,1,,,,,,,,,,,,,,,0,-0.324074057,-0.273148171,1,0,0,0.8984,button_left_main,-0.324074057,-0.273148171,1,0,0,,0,36,36,129,1,PRANS,C,old,z,./images/PRANS.png,,,,,,,,,,,,,,,,,,,,,
,,,,,,,,,,,,,,,,,199045,18,2022-01-28_17h48.36.594,lexical_decision_task_DD_L2,2021.2.3,Win32,60.01680471,,,,,,,,,,0.685,1,,,,,,,,,,,,,,,0,0.338888925,-0.293518599,1,0,0,0.685,button_right_main,0.338888925,-0.293518599,1,0,0,,0,37,37,38,1,LADDER,C,old,m,./images/LADDER.png,,,,,,,,,,,,,,,,,,,,,
,,,,,,,,,,,,,,,,,199045,18,2022-01-28_17h48.36.594,lexical_decision_task_DD_L2,2021.2.3,Win32,60.01680471,,,,,,,,,,1.0018,1,,,,,,,,,,,,,,,0,-0.25925924,-0.308333357,1,0,0,1.0018,button_left_main,-0.25925924,-0.308333357,1,0,0,,0,38,38,99,1,BACKY,C,old,z,./images/BACKY.png,,,,,,,,,,,,,,,,,,,,,
,,,,,,,,,,,,,,,,,199045,18,2022-01-28_17h48.36.594,lexical_decision_task_DD_L2,2021.2.3,Win32,60.01680471,,,,,,,,,,1.0486,1,,,,,,,,,,,,,,,0,0.437963003,-0.279629709,1,0,0,1.0486,button_right_main,0.437963003,-0.279629709,1,0,0,,0,39,39,54,1,TRIPOD,HB,old,m,./images/TRIPODHB.png,,,,,,,,,,,,,,,,,,,,,
,,,,,,,,,,,,,,,,,199045,18,2022-01-28_17h48.36.594,lexical_decision_task_DD_L2,2021.2.3,Win32,60.01680471,,,,,,,,,,0.7488,1,,,,,,,,,,,,,,,0,0.650926085,-0.286111135,1,0,0,0.7488,button_right_main,0.409259298,-0.29166669,1,0,0,,0,40,40,36,1,THROAT,HB,old,m,./images/THROATHB.png,,,,,,,,,,,,,,,,,,,,,
,,,,,,,,,,,,,,,,,199045,18,2022-01-28_17h48.36.594,lexical_decision_task_DD_L2,2021.2.3,Win32,60.01680471,,,,,,,,,,0.7149,1,,,,,,,,,,,,,,,0,0.598148305,-0.284259283,1,0,0,0.7149,button_right_main,0.080555584,-0.431481509,1,0,0,,0,41,41,81,1,POODLE,HB,old,m,./images/POODLEHB.png,break_done_button,,,,,,,,,,,,,,,,,,,,
,,,,,,,,,,,,,,,,,199045,18,2022-01-28_17h48.36.594,lexical_decision_task_DD_L2,2021.2.3,Win32,60.01680471,,,,,,,,,,0.9483,1,,,,,,,,,,,,,,,0,-0.388888874,-0.272222245,1,0,0,0.9483,button_left_main,-0.388888874,-0.272222245,1,0,0,,0,42,42,107,1,FASKS,LB,old,z,./images/FASKSLB.png,,,,,,,,,,,,,,,,,,,,,
,,,,,,,,,,,,,,,,,199045,18,2022-01-28_17h48.36.594,lexical_decision_task_DD_L2,2021.2.3,Win32,60.01680471,,,,,,,,,,0.7989,1,,,,,,,,,,,,,,,0,0.332407444,-0.262963042,1,0,0,0.7989,button_right_main,0.332407444,-0.262963042,1,0,0,,0,43,43,12,1,SHORE,HB,old,m,./images/SHOREHB.png,,,,,,,,,,,,,,,,,,,,,
,,,,,,,,,,,,,,,,,199045,18,2022-01-28_17h48.36.594,lexical_decision_task_DD_L2,2021.2.3,Win32,60.01680471,,,,,,,,,,0.5662,1,,,,,,,,,,,,,,,0,0.318518555,-0.269444467,1,0,0,0.5662,button_right_main,0.318518555,-0.269444467,1,0,0,,0,44,44,70,1,URINE,LB,old,m,./images/URINELB.png,,,,,,,,,,,,,,,,,,,,,
,,,,,,,,,,,,,,,,,199045,18,2022-01-28_17h48.36.594,lexical_decision_task_DD_L2,2021.2.3,Win32,60.01680471,,,,,,,,,,0.9658,1,,,,,,,,,,,,,,,0,0.282407442,-0.28703706,1,0,0,0.9658,button_right_main,0.282407442,-0.28703706,1,0,0,,0,45,45,16,1,PENCE,LB,old,m,./images/PENCELB.png,,,,,,,,,,,,,,,,,,,,,
,,,,,,,,,,,,,,,,,199045,18,2022-01-28_17h48.36.594,lexical_decision_task_DD_L2,2021.2.3,Win32,60.01680471,,,,,,,,,,1.349,1,,,,,,,,,,,,,,,0,-0.284259241,-0.301851932,1,0,0,1.349,button_left_main,-0.284259241,-0.301851932,1,0,0,,0,46,46,154,1,THINT,HB,old,z,./images/THINTHB.png,,,,,,,,,,,,,,,,,,,,,
,,,,,,,,,,,,,,,,,199045,18,2022-01-28_17h48.36.594,lexical_decision_task_DD_L2,2021.2.3,Win32,60.01680471,,,,,,,,,,0.8487,1,,,,,,,,,,,,,,,0,-0.333333317,-0.292592616,1,0,0,0.8487,button_left_main,-0.333333317,-0.292592616,1,0,0,,0,47,47,159,1,CUDDY,C,old,z,./images/CUDDY.png,,,,,,,,,,,,,,,,,,,,,
,,,,,,,,,,,,,,,,,199045,18,2022-01-28_17h48.36.594,lexical_decision_task_DD_L2,2021.2.3,Win32,60.01680471,,,,,,,,,,1.4156,0,,,,,,,,,,,,,,,0,0.385185223,-0.274074154,1,0,0,1.4156,button_right_main,0.385185223,-0.274074154,1,0,0,,0,48,48,101,1,GLEET,LB,old,z,./images/GLEETLB.png,,,,,,,,,,,,,,,,,,,,,
,,,,,,,,,,,,,,,,,199045,18,2022-01-28_17h48.36.594,lexical_decision_task_DD_L2,2021.2.3,Win32,60.01680471,,,,,,,,,,0.6127,1,,,,,,,,,,,,,,,0,0.362037074,-0.293518599,1,0,0,0.6127,button_right_main,0.362037074,-0.293518599,1,0,0,,0,49,49,14,1,PICKLE,C,old,m,./images/PICKLE.png,,,,,,,,,,,,,,,,,,,,,
,,,,,,,,,,,,,,,,,199045,18,2022-01-28_17h48.36.594,lexical_decision_task_DD_L2,2021.2.3,Win32,60.01680471,,,,,,,,,,0.6796,1,,,,,,,,,,,,,,,0,0.270370405,-0.296296377,1,0,0,0.6796,button_right_main,0.270370405,-0.296296377,1,0,0,,0,50,50,39,1,SHELF,HB,old,m,./images/SHELFHB.png,,,,,,,,,,,,,,,,,,,,,
,,,,,,,,,,,,,,,,,199045,18,2022-01-28_17h48.36.594,lexical_decision_task_DD_L2,2021.2.3,Win32,60.01680471,,,,,,,,,,0.6486,1,,,,,,,,,,,,,,,0,0.427777817,-0.307407488,1,0,0,0.6486,button_right_main,0.427777817,-0.307407488,1,0,0,,0,51,51,35,1,PEACH,C,old,m,./images/PEACH.png,,,,,,,,,,,,,,,,,,,,,
,,,,,,,,,,,,,,,,,199045,18,2022-01-28_17h48.36.594,lexical_decision_task_DD_L2,2021.2.3,Win32,60.01680471,,,,,,,,,,0.7985,1,,,,,,,,,,,,,,,0,0.407407446,-0.281481505,1,0,0,0.7985,button_right_main,0.407407446,-0.281481505,1,0,0,,0,52,52,18,1,JAGUAR,HB,old,m,./images/JAGUARHB.png,,,,,,,,,,,,,,,,,,,,,
,,,,,,,,,,,,,,,,,199045,18,2022-01-28_17h48.36.594,lexical_decision_task_DD_L2,2021.2.3,Win32,60.01680471,,,,,,,,,,0.7153,1,,,,,,,,,,,,,,,0,-0.396296282,-0.290740821,1,0,0,0.7153,button_left_main,-0.396296282,-0.290740821,1,0,0,,0,53,53,117,1,STEEG,C,old,z,./images/STEEG.png,,,,,,,,,,,,,,,,,,,,,
,,,,,,,,,,,,,,,,,199045,18,2022-01-28_17h48.36.594,lexical_decision_task_DD_L2,2021.2.3,Win32,60.01680471,,,,,,,,,,0.9154,1,,,,,,,,,,,,,,,0,-0.298148131,-0.271296376,1,0,0,0.9154,button_left_main,-0.298148131,-0.271296376,1,0,0,,0,54,54,92,1,PAIMS,LB,old,z,./images/PAIMSLB.png,,,,,,,,,,,,,,,,,,,,,
,,,,,,,,,,,,,,,,,199045,18,2022-01-28_17h48.36.594,lexical_decision_task_DD_L2,2021.2.3,Win32,60.01680471,,,,,,,,,,1.2484,1,,,,,,,,,,,,,,,0,-0.382407392,-0.276851932,1,0,0,1.2484,button_left_main,-0.382407392,-0.276851932,1,0,0,,0,55,55,158,1,EGECT,LB,old,z,./images/EGECTLB.png,,,,,,,,,,,,,,,,,,,,,
,,,,,,,,,,,,,,,,,199045,18,2022-01-28_17h48.36.594,lexical_decision_task_DD_L2,2021.2.3,Win32,60.01680471,,,,,,,,,,0.7632,1,,,,,,,,,,,,,,,0,0.418518557,-0.287963043,1,0,0,0.7632,button_right_main,0.418518557,-0.287963043,1,0,0,,0,56,56,2,1,BEARD,C,old,m,./images/BEARD.png,,,,,,,,,,,,,,,,,,,,,
,,,,,,,,,,,,,,,,,199045,18,2022-01-28_17h48.36.594,lexical_decision_task_DD_L2,2021.2.3,Win32,60.01680471,,,,,,,,,,0.7688,1,,,,,,,,,,,,,,,0,0.228703737,-0.300000024,1,0,0,0.7688,button_right_main,0.228703737,-0.300000024,1,0,0,,0,57,57,63,1,MIRROR,HB,old,m,./images/MIRRORHB.png,,,,,,,,,,,,,,,,,,,,,
,,,,,,,,,,,,,,,,,199045,18,2022-01-28_17h48.36.594,lexical_decision_task_DD_L2,2021.2.3,Win32,60.01680471,,,,,,,,,,0.632,1,,,,,,,,,,,,,,,0,0.371296334,-0.297222246,1,0,0,0.632,button_right_main,0.371296334,-0.297222246,1,0,0,,0,58,58,48,1,SPORT,HB,old,m,./images/SPORTHB.png,,,,,,,,,,,,,,,,,,,,,
,,,,,,,,,,,,,,,,,199045,18,2022-01-28_17h48.36.594,lexical_decision_task_DD_L2,2021.2.3,Win32,60.01680471,,,,,,,,,,0.5521,1,,,,,,,,,,,,,,,0,0.404629668,-0.290740821,1,0,0,0.5521,button_right_main,0.404629668,-0.290740821,1,0,0,,0,59,59,66,1,SWEAT,HB,old,m,./images/SWEATHB.png,,,,,,,,,,,,,,,,,,,,,
,,,,,,,,,,,,,,,,,199045,18,2022-01-28_17h48.36.594,lexical_decision_task_DD_L2,2021.2.3,Win32,60.01680471,,,,,,,,,,0.9183,1,,,,,,,,,,,,,,,0,-0.323148131,-0.316666691,1,0,0,0.9183,button_left_main,-0.323148131,-0.316666691,1,0,0,,0,60,60,112,1,MYING,HB,old,z,./images/MYINGHB.png,,,,,,,,,,,,,,,,,,,,,
,,,,,,,,,,,,,,,,,199045,18,2022-01-28_17h48.36.594,lexical_decision_task_DD_L2,2021.2.3,Win32,60.01680471,,,,,,,,,,0.8155,1,,,,,,,,,,,,,,,0,0.33333337,-0.283333357,1,0,0,0.8155,button_right_main,0.33333337,-0.283333357,1,0,0,,0,61,61,82,1,SUNSET,LB,old,m,./images/SUNSETLB.png,,,,,,,,,,,,,,,,,,,,,
,,,,,,,,,,,,,,,,,199045,18,2022-01-28_17h48.36.594,lexical_decision_task_DD_L2,2021.2.3,Win32,60.01680471,,,,,,,,,,0.4846,1,,,,,,,,,,,,,,,0,0.363888926,-0.296296377,1,0,0,0.4846,button_right_main,0.363888926,-0.296296377,1,0,0,,0,62,62,41,1,STRING,C,old,m,./images/STRING.png,,,,,,,,,,,,,,,,,,,,,
,,,,,,,,,,,,,,,,,199045,18,2022-01-28_17h48.36.594,lexical_decision_task_DD_L2,2021.2.3,Win32,60.01680471,,,,,,,,,,0.6822,1,,,,,,,,,,,,,,,0,0.314814851,-0.28703706,1,0,0,0.6822,button_right_main,0.314814851,-0.28703706,1,0,0,,0,63,63,30,1,STORM,HB,old,m,./images/STORMHB.png,,,,,,,,,,,,,,,,,,,,,
,,,,,,,,,,,,,,,,,199045,18,2022-01-28_17h48.36.594,lexical_decision_task_DD_L2,2021.2.3,Win32,60.01680471,,,,,,,,,,0.6488,1,,,,,,,,,,,,,,,0,-0.416666653,-0.293518599,1,0,0,0.6488,button_left_main,-0.416666653,-0.293518599,1,0,0,,0,64,64,144,1,NAIRY,C,old,z,./images/NAIRY.png,,,,,,,,,,,,,,,,,,,,,
,,,,,,,,,,,,,,,,,199045,18,2022-01-28_17h48.36.594,lexical_decision_task_DD_L2,2021.2.3,Win32,60.01680471,,,,,,,,,,0.9185,1,,,,,,,,,,,,,,,0,0.273148183,-0.274074154,1,0,0,0.9185,button_right_main,0.273148183,-0.274074154,1,0,0,,0,65,65,21,1,KIDNEY,HB,old,m,./images/KIDNEYHB.png,,,,,,,,,,,,,,,,,,,,,
,,,,,,,,,,,,,,,,,199045,18,2022-01-28_17h48.36.594,lexical_decision_task_DD_L2,2021.2.3,Win32,60.01680471,,,,,,,,,,0.7987,1,,,,,,,,,,,,,,,0,-0.269444426,-0.283333357,1,0,0,0.7987,button_left_main,-0.269444426,-0.283333357,1,0,0,,0,66,66,114,1,RIKES,C,old,z,./images/RIKES.png,,,,,,,,,,,,,,,,,,,,,
,,,,,,,,,,,,,,,,,199045,18,2022-01-28_17h48.36.594,lexical_decision_task_DD_L2,2021.2.3,Win32,60.01680471,,,,,,,,,,0.8981,1,,,,,,,,,,,,,,,0,-0.35555554,-0.259259282,1,0,0,0.8981,button_left_main,-0.35555554,-0.259259282,1,0,0,,0,67,67,157,1,INLER,HB,old,z,./images/INLERHB.png,,,,,,,,,,,,,,,,,,,,,
,,,,,,,,,,,,,,,,,199045,18,2022-01-28_17h48.36.594,lexical_decision_task_DD_L2,2021.2.3,Win32,60.01680471,,,,,,,,,,1.0014,1,,,,,,,,,,,,,,,0,-0.382407392,-0.281481505,1,0,0,1.0014,button_left_main,-0.382407392,-0.281481505,1,0,0,,0,68,68,97,1,CHIDS,HB,old,z,./images/CHIDSHB.png,,,,,,,,,,,,,,,,,,,,,
,,,,,,,,,,,,,,,,,199045,18,2022-01-28_17h48.36.594,lexical_decision_task_DD_L2,2021.2.3,Win32,60.01680471,,,,,,,,,,0.6321,1,,,,,,,,,,,,,,,0,0.438888928,-0.275000023,1,0,0,0.6321,button_right_main,0.438888928,-0.275000023,1,0,0,,0,69,69,50,1,MALLET,C,old,m,./images/MALLET.png,,,,,,,,,,,,,,,,,,,,,
,,,,,,,,,,,,,,,,,199045,18,2022-01-28_17h48.36.594,lexical_decision_task_DD_L2,2021.2.3,Win32,60.01680471,,,,,,,,,,0.6656,1,,,,,,,,,,,,,,,0,0.267592627,-0.294444468,1,0,0,0.6656,button_right_main,0.267592627,-0.294444468,1,0,0,,0,70,70,42,1,FOLDER,HB,old,m,./images/FOLDERHB.png,,,,,,,,,,,,,,,,,,,,,
,,,,,,,,,,,,,,,,,199045,18,2022-01-28_17h48.36.594,lexical_decision_task_DD_L2,2021.2.3,Win32,60.01680471,,,,,,,,,,0.668,1,,,,,,,,,,,,,,,0,-0.294444427,-0.303703728,1,0,0,0.668,button_left_main,-0.294444427,-0.303703728,1,0,0,,0,71,71,105,1,MOKER,C,old,z,./images/MOKER.png,,,,,,,,,,,,,,,,,,,,,
,,,,,,,,,,,,,,,,,199045,18,2022-01-28_17h48.36.594,lexical_decision_task_DD_L2,2021.2.3,Win32,60.01680471,,,,,,,,,,0.7849,1,,,,,,,,,,,,,,,0,-0.364814799,-0.293518599,1,0,0,0.7849,button_left_main,-0.364814799,-0.293518599,1,0,0,,0,72,72,86,1,AIFED,LB,old,z,./images/AIFEDLB.png,,,,,,,,,,,,,,,,,,,,,
,,,,,,,,,,,,,,,,,199045,18,2022-01-28_17h48.36.594,lexical_decision_task_DD_L2,2021.2.3,Win32,60.01680471,,,,,,,,,,0.7308,1,,,,,,,,,,,,,,,0,0.482407448,-0.275925949,1,0,0,0.7308,button_right_main,0.482407448,-0.275925949,1,0,0,,0,73,73,6,1,SQUARE,HB,old,m,./images/SQUAREHB.png,,,,,,,,,,,,,,,,,,,,,
,,,,,,,,,,,,,,,,,199045,18,2022-01-28_17h48.36.594,lexical_decision_task_DD_L2,2021.2.3,Win32,60.01680471,,,,,,,,,,0.7848,1,,,,,,,,,,,,,,,0,-0.400925911,-0.284259283,1,0,0,0.7848,button_left_main,-0.400925911,-0.284259283,1,0,0,,0,74,74,89,1,DRIEK,LB,old,z,./images/DRIEKLB.png,,,,,,,,,,,,,,,,,,,,,
,,,,,,,,,,,,,,,,,199045,18,2022-01-28_17h48.36.594,lexical_decision_task_DD_L2,2021.2.3,Win32,60.01680471,,,,,,,,,,0.7155,1,,,,,,,,,,,,,,,0,-0.293518501,-0.281481505,1,0,0,0.7155,button_left_main,-0.293518501,-0.281481505,1,0,0,,0,75,75,102,1,DULLE,C,old,z,./images/DULLE.png,,,,,,,,,,,,,,,,,,,,,
,,,,,,,,,,,,,,,,,199045,18,2022-01-28_17h48.36.594,lexical_decision_task_DD_L2,2021.2.3,Win32,60.01680471,,,,,,,,,,0.7857,1,,,,,,,,,,,,,,,0,-0.387037022,-0.273148171,1,0,0,0.7857,button_left_main,-0.387037022,-0.273148171,1,0,0,,0,76,76,87,1,TRING,C,old,z,./images/TRING.png,,,,,,,,,,,,,,,,,,,,,
,,,,,,,,,,,,,,,,,199045,18,2022-01-28_17h48.36.594,lexical_decision_task_DD_L2,2021.2.3,Win32,60.01680471,,,,,,,,,,0.8522,1,,,,,,,,,,,,,,,0,0.52314819,-0.282407487,1,0,0,0.8522,button_right_main,0.52314819,-0.282407487,1,0,0,,0,77,77,72,1,NOOSE,HB,old,m,./images/NOOSEHB.png,,,,,,,,,,,,,,,,,,,,,
,,,,,,,,,,,,,,,,,199045,18,2022-01-28_17h48.36.594,lexical_decision_task_DD_L2,2021.2.3,Win32,60.01680471,,,,,,,,,,1.502,1,,,,,,,,,,,,,,,0,-0.427777764,-0.286111135,1,0,0,1.502,button_left_main,-0.427777764,-0.286111135,1,0,0,,0,78,78,110,1,CRUNK,LB,old,z,./images/CRUNKLB.png,,,,,,,,,,,,,,,,,,,,,
,,,,,,,,,,,,,,,,,199045,18,2022-01-28_17h48.36.594,lexical_decision_task_DD_L2,2021.2.3,Win32,60.01680471,,,,,,,,,,1.848,0,,,,,,,,,,,,,,,0,0.387037075,-0.310185266,1,0,0,1.848,button_right_main,0.387037075,-0.310185266,1,0,0,,0,79,79,163,1,GAMBA,HB,old,z,./images/GAMBAHB.png,,,,,,,,,,,,,,,,,,,,,
,,,,,,,,,,,,,,,,,199045,18,2022-01-28_17h48.36.594,lexical_decision_task_DD_L2,2021.2.3,Win32,60.01680471,,,,,,,,,,0.6344,1,,,,,,,,,,,,,,,0,0.343518555,-0.298148172,1,0,0,0.6344,button_right_main,0.343518555,-0.298148172,1,0,0,,0,80,80,24,1,SCREW,HB,old,m,./images/SCREWHB.png,,,,,,,,,,,,,,,,,,,,,
,,,,,,,,,,,,,,,,,199045,18,2022-01-28_17h48.36.594,lexical_decision_task_DD_L2,2021.2.3,Win32,60.01680471,,,,,,,,,,0.7825,1,,,,,,,,,,,,,,,0,-0.289814797,-0.303703728,1,0,0,0.7825,button_left_main,-0.289814797,-0.303703728,1,0,0,,0,81,81,98,1,BAMPS,LB,old,z,./images/BAMPSLB.png,,,,,,,,,,,,,,,,,,,,,
,,,,,,,,,,,,,,,,,199045,18,2022-01-28_17h48.36.594,lexical_decision_task_DD_L2,2021.2.3,Win32,60.01680471,,,,,,,,,,0.6297,1,,,,,,,,,,,,,,,0,0.515740783,-0.288888912,1,0,0,0.6297,button_right_main,0.515740783,-0.288888912,1,0,0,,0,82,82,83,1,JUNGLE,C,old,m,./images/JUNGLE.png,,,,,,,,,,,,,,,,,,,,,
,,,,,,,,,,,,,,,,,199045,18,2022-01-28_17h48.36.594,lexical_decision_task_DD_L2,2021.2.3,Win32,60.01680471,,,,,,,,,,1.416,0,,,,,,,,,,,,,,,0,0.256481516,-0.283333357,1,0,0,1.416,button_right_main,0.113888919,-0.400925953,1,0,0,,0,83,83,152,1,FRAIN,LB,old,z,./images/FRAINLB.png,break_done_button,,,,,,,,,,,,,,,,,,,,
,,,,,,,,,,,,,,,,,199045,18,2022-01-28_17h48.36.594,lexical_decision_task_DD_L2,2021.2.3,Win32,60.01680471,,,,,,,,,,1.0345,1,,,,,,,,,,,,,,,0,-0.315740724,-0.270370393,1,0,0,1.0345,button_left_main,-0.315740724,-0.270370393,1,0,0,,0,84,84,137,1,JOOST,LB,old,z,./images/JOOSTLB.png,,,,,,,,,,,,,,,,,,,,,
,,,,,,,,,,,,,,,,,199045,18,2022-01-28_17h48.36.594,lexical_decision_task_DD_L2,2021.2.3,Win32,60.01680471,,,,,,,,,,0.9155,1,,,,,,,,,,,,,,,0,0.469444485,-0.268518598,1,0,0,0.9155,button_right_main,0.469444485,-0.268518598,1,0,0,,0,85,85,79,1,CRUST,LB,old,m,./images/CRUSTLB.png,,,,,,,,,,,,,,,,,,,,,
,,,,,,,,,,,,,,,,,199045,18,2022-01-28_17h48.36.594,lexical_decision_task_DD_L2,2021.2.3,Win32,60.01680471,,,,,,,,,,1.8654,0,,,,,,,,,,,,,,,0,-0.310185168,-0.303703728,1,0,0,1.8654,button_left_main,-0.310185168,-0.303703728,1,0,0,,0,86,86,33,1,MAGGOT,HB,old,m,./images/MAGGOTHB.png,,,,,,,,,,,,,,,,,,,,,
,,,,,,,,,,,,,,,,,199045,18,2022-01-28_17h48.36.594,lexical_decision_task_DD_L2,2021.2.3,Win32,60.01680471,,,,,,,,,,0.5987,1,,,,,,,,,,,,,,,0,0.325925962,-0.297222246,1,0,0,0.5987,button_right_main,0.325925962,-0.297222246,1,0,0,,0,87,87,59,1,BURIAL,C,old,m,./images/BURIAL.png,,,,,,,,,,,,,,,,,,,,,
,,,,,,,,,,,,,,,,,199045,18,2022-01-28_17h48.36.594,lexical_decision_task_DD_L2,2021.2.3,Win32,60.01680471,,,,,,,,,,0.7683,1,,,,,,,,,,,,,,,0,0.45000004,-0.273148171,1,0,0,0.7683,button_right_main,0.45000004,-0.273148171,1,0,0,,0,88,88,43,1,MOSQUE,LB,old,m,./images/MOSQUELB.png,,,,,,,,,,,,,,,,,,,,,
,,,,,,,,,,,,,,,,,199045,18,2022-01-28_17h48.36.594,lexical_decision_task_DD_L2,2021.2.3,Win32,60.01680471,,,,,,,,,,0.5522,1,,,,,,,,,,,,,,,0,0.334259296,-0.287963043,1,0,0,0.5522,button_right_main,0.334259296,-0.287963043,1,0,0,,0,89,89,29,1,CRUMB,C,old,m,./images/CRUMB.png,,,,,,,,,,,,,,,,,,,,,
,,,,,,,,,,,,,,,,,199045,18,2022-01-28_17h48.36.594,lexical_decision_task_DD_L2,2021.2.3,Win32,60.01680471,,,,,,,,,,0.5185,1,,,,,,,,,,,,,,,0,0.281481516,-0.281481505,1,0,0,0.5185,button_right_main,0.281481516,-0.281481505,1,0,0,,0,90,90,46,1,PEARL,LB,old,m,./images/PEARLLB.png,,,,,,,,,,,,,,,,,,,,,
,,,,,,,,,,,,,,,,,199045,18,2022-01-28_17h48.36.594,lexical_decision_task_DD_L2,2021.2.3,Win32,60.01680471,,,,,,,,,,0.7817,1,,,,,,,,,,,,,,,0,-0.524074035,-0.274074154,1,0,0,0.7817,button_left_main,-0.524074035,-0.274074154,1,0,0,,0,91,91,150,1,NOOLS,C,old,z,./images/NOOLS.png,,,,,,,,,,,,,,,,,,,,,
,,,,,,,,,,,,,,,,,199045,18,2022-01-28_17h48.36.594,lexical_decision_task_DD_L2,2021.2.3,Win32,60.01680471,,,,,,,,,,1.2336,1,,,,,,,,,,,,,,,0,-0.272222204,-0.288888912,1,0,0,1.2336,button_left_main,-0.272222204,-0.288888912,1,0,0,,0,92,92,88,1,GLUSH,HB,old,z,./images/GLUSHHB.png,,,,,,,,,,,,,,,,,,,,,
,,,,,,,,,,,,,,,,,199045,18,2022-01-28_17h48.36.594,lexical_decision_task_DD_L2,2021.2.3,Win32,60.01680471,,,,,,,,,,0.9654,1,,,,,,,,,,,,,,,0,-0.314814798,-0.277777801,1,0,0,0.9654,button_left_main,-0.314814798,-0.277777801,1,0,0,,0,93,93,140,1,DOVET,LB,old,z,./images/DOVETLB.png,,,,,,,,,,,,,,,,,,,,,
,,,,,,,,,,,,,,,,,199045,18,2022-01-28_17h48.36.594,lexical_decision_task_DD_L2,2021.2.3,Win32,60.01680471,,,,,,,,,,1.1486,1,,,,,,,,,,,,,,,0,-0.412962949,-0.300000024,1,0,0,1.1486,button_left_main,-0.412962949,-0.300000024,1,0,0,,0,94,94,145,1,LAMEL,HB,old,z,./images/LAMELHB.png,,,,,,,,,,,,,,,,,,,,,
,,,,,,,,,,,,,,,,,199045,18,2022-01-28_17h48.36.594,lexical_decision_task_DD_L2,2021.2.3,Win32,60.01680471,,,,,,,,,,1.1987,1,,,,,,,,,,,,,,,0,-0.315740724,-0.308333357,1,0,0,1.1987,button_left_main,-0.315740724,-0.308333357,1,0,0,,0,95,95,103,1,FLORT,HB,old,z,./images/FLORTHB.png,,,,,,,,,,,,,,,,,,,,,
,,,,,,,,,,,,,,,,,199045,18,2022-01-28_17h48.36.594,lexical_decision_task_DD_L2,2021.2.3,Win32,60.01680471,,,,,,,,,,0.8481,1,,,,,,,,,,,,,,,0,-0.304629612,-0.290740821,1,0,0,0.8481,button_left_main,-0.304629612,-0.290740821,1,0,0,,0,96,96,93,1,SMONE,C,old,z,./images/SMONE.png,,,,,,,,,,,,,,,,,,,,,
,,,,,,,,,,,,,,,,,199045,18,2022-01-28_17h48.36.594,lexical_decision_task_DD_L2,2021.2.3,Win32,60.01680471,,,,,,,,,,0.8322,1,,,,,,,,,,,,,,,0,0.500000041,-0.308333357,1,0,0,0.8322,button_right_main,0.500000041,-0.308333357,1,0,0,,0,97,97,56,1,PACKET,C,old,m,./images/PACKET.png,,,,,,,,,,,,,,,,,,,,,
,,,,,,,,,,,,,,,,,199045,18,2022-01-28_17h48.36.594,lexical_decision_task_DD_L2,2021.2.3,Win32,60.01680471,,,,,,,,,,0.6485,1,,,,,,,,,,,,,,,0,0.570370527,-0.268518598,1,0,0,0.6485,button_right_main,0.570370527,-0.268518598,1,0,0,,0,98,98,32,1,BARREL,C,old,m,./images/BARREL.png,,,,,,,,,,,,,,,,,,,,,
,,,,,,,,,,,,,,,,,199045,18,2022-01-28_17h48.36.594,lexical_decision_task_DD_L2,2021.2.3,Win32,60.01680471,,,,,,,,,,1.3185,1,,,,,,,,,,,,,,,0,-0.272222204,-0.310185266,1,0,0,1.3185,button_left_main,-0.272222204,-0.310185266,1,0,0,,0,99,99,127,1,NINDY,HB,old,z,./images/NINDYHB.png,,,,,,,,,,,,,,,,,,,,,
,,,,,,,,,,,,,,,,,199045,18,2022-01-28_17h48.36.594,lexical_decision_task_DD_L2,2021.2.3,Win32,60.01680471,,,,,,,,,,2.0798,1,,,,,,,,,,,,,,,0,-0.270370352,-0.301851932,1,0,0,2.0798,button_left_main,-0.270370352,-0.301851932,1,0,0,,0,100,100,142,1,PLASK,HB,old,z,./images/PLASKHB.png,,,,,,,,,,,,,,,,,,,,,
,,,,,,,,,,,,,,,,,199045,18,2022-01-28_17h48.36.594,lexical_decision_task_DD_L2,2021.2.3,Win32,60.01680471,,,,,,,,,,0.6309,1,,,,,,,,,,,,,,,0,0.443518558,-0.285185265,1,0,0,0.6309,button_right_main,0.443518558,-0.285185265,1,0,0,,0,101,101,65,1,FARMER,C,old,m,./images/FARMER.png,,,,,,,,,,,,,,,,,,,,,
,,,,,,,,,,,,,,,,,199045,18,2022-01-28_17h48.36.594,lexical_decision_task_DD_L2,2021.2.3,Win32,60.01680471,,,,,,,,,,1.096,1,,,,,,,,,,,,,,,0,-0.281481463,-0.289814838,1,0,0,1.096,button_left_main,-0.281481463,-0.289814838,1,0,0,,0,102,102,104,1,GITTY,LB,old,z,./images/GITTYLB.png,,,,,,,,,,,,,,,,,,,,,
,,,,,,,,,,,,,,,,,199045,18,2022-01-28_17h48.36.594,lexical_decision_task_DD_L2,2021.2.3,Win32,60.01680471,,,,,,,,,,0.7513,1,,,,,,,,,,,,,,,0,-0.288888871,-0.295370394,1,0,0,0.7513,button_left_main,-0.288888871,-0.295370394,1,0,0,,0,103,103,125,1,MOOKY,LB,old,z,./images/MOOKYLB.png,,,,,,,,,,,,,,,,,,,,,
,,,,,,,,,,,,,,,,,199045,18,2022-01-28_17h48.36.594,lexical_decision_task_DD_L2,2021.2.3,Win32,60.01680471,,,,,,,,,,0.699,1,,,,,,,,,,,,,,,0,0.387037075,-0.26203706,1,0,0,0.699,button_right_main,0.387037075,-0.26203706,1,0,0,,0,104,104,26,1,SMOKER,C,old,m,./images/SMOKER.png,,,,,,,,,,,,,,,,,,,,,
,,,,,,,,,,,,,,,,,199045,18,2022-01-28_17h48.36.594,lexical_decision_task_DD_L2,2021.2.3,Win32,60.01680471,,,,,,,,,,0.6823,1,,,,,,,,,,,,,,,0,0.303703739,-0.274074154,1,0,0,0.6823,button_right_main,0.303703739,-0.274074154,1,0,0,,0,105,105,3,1,FINGER,HB,old,m,./images/FINGERHB.png,,,,,,,,,,,,,,,,,,,,,
,,,,,,,,,,,,,,,,,199045,18,2022-01-28_17h48.36.594,lexical_decision_task_DD_L2,2021.2.3,Win32,60.01680471,,,,,,,,,,0.649,1,,,,,,,,,,,,,,,0,-0.22962961,-0.274074154,1,0,0,0.649,button_left_main,-0.22962961,-0.274074154,1,0,0,,0,106,106,135,1,JOODY,C,old,z,./images/JOODY.png,,,,,,,,,,,,,,,,,,,,,
,,,,,,,,,,,,,,,,,199045,18,2022-01-28_17h48.36.594,lexical_decision_task_DD_L2,2021.2.3,Win32,60.01680471,,,,,,,,,,0.6654,1,,,,,,,,,,,,,,,0,-0.297222205,-0.28703706,1,0,0,0.6654,button_left_main,-0.297222205,-0.28703706,1,0,0,,0,107,107,123,1,SEDGE,C,old,z,./images/SEDGE.png,,,,,,,,,,,,,,,,,,,,,
,,,,,,,,,,,,,,,,,199045,18,2022-01-28_17h48.36.594,lexical_decision_task_DD_L2,2021.2.3,Win32,60.01680471,,,,,,,,,,0.6465,1,,,,,,,,,,,,,,,0,0.378703741,-0.281481505,1,0,0,0.6465,button_right_main,0.378703741,-0.281481505,1,0,0,,0,108,108,7,1,PAINT,LB,old,m,./images/PAINTLB.png,,,,,,,,,,,,,,,,,,,,,
,,,,,,,,,,,,,,,,,199045,18,2022-01-28_17h48.36.594,lexical_decision_task_DD_L2,2021.2.3,Win32,60.01680471,,,,,,,,,,0.7799,1,,,,,,,,,,,,,,,0,0.583333377,-0.271296376,1,0,0,0.7799,button_right_main,0.583333377,-0.271296376,1,0,0,,0,109,109,31,1,QUILL,LB,old,m,./images/QUILLLB.png,,,,,,,,,,,,,,,,,,,,,
,,,,,,,,,,,,,,,,,199045,18,2022-01-28_17h48.36.594,lexical_decision_task_DD_L2,2021.2.3,Win32,60.01680471,,,,,,,,,,0.6979,0,,,,,,,,,,,,,,,0,-0.412037023,-0.283333357,1,0,0,0.6979,button_left_main,-0.412037023,-0.283333357,1,0,0,,0,110,110,17,1,SKIING,C,old,m,./images/SKIING.png,,,,,,,,,,,,,,,,,,,,,
,,,,,,,,,,,,,,,,,199045,18,2022-01-28_17h48.36.594,lexical_decision_task_DD_L2,2021.2.3,Win32,60.01680471,,,,,,,,,,0.6515,1,,,,,,,,,,,,,,,0,0.268518553,-0.288888912,1,0,0,0.6515,button_right_main,0.268518553,-0.288888912,1,0,0,,0,111,111,22,1,MELON,LB,old,m,./images/MELONLB.png,,,,,,,,,,,,,,,,,,,,,
,,,,,,,,,,,,,,,,,199045,18,2022-01-28_17h48.36.594,lexical_decision_task_DD_L2,2021.2.3,Win32,60.01680471,,,,,,,,,,0.7851,1,,,,,,,,,,,,,,,0,-0.253703685,-0.341666692,1,0,0,0.7851,button_left_main,-0.253703685,-0.341666692,1,0,0,,0,112,112,149,1,VEASE,LB,old,z,./images/VEASELB.png,,,,,,,,,,,,,,,,,,,,,
,,,,,,,,,,,,,,,,,199045,18,2022-01-28_17h48.36.594,lexical_decision_task_DD_L2,2021.2.3,Win32,60.01680471,,,,,,,,,,0.7819,1,,,,,,,,,,,,,,,0,-0.369444429,-0.28703706,1,0,0,0.7819,button_left_main,-0.369444429,-0.28703706,1,0,0,,0,113,113,122,1,BLOOT,LB,old,z,./images/BLOOTLB.png,,,,,,,,,,,,,,,,,,,,,
,,,,,,,,,,,,,,,,,199045,18,2022-01-28_17h48.36.594,lexical_decision_task_DD_L2,2021.2.3,Win32,60.01680471,,,,,,,,,,1.1822,1,,,,,,,,,,,,,,,0,-0.249074055,-0.29166669,1,0,0,1.1822,button_left_main,-0.249074055,-0.29166669,1,0,0,,0,114,114,133,1,POWDY,HB,old,z,./images/POWDYHB.png,,,,,,,,,,,,,,,,,,,,,
,,,,,,,,,,,,,,,,,199045,18,2022-01-28_17h48.36.594,lexical_decision_task_DD_L2,2021.2.3,Win32,60.01680471,,,,,,,,,,0.7521,1,,,,,,,,,,,,,,,0,0.278703739,-0.278703727,1,0,0,0.7521,button_right_main,0.278703739,-0.278703727,1,0,0,,0,115,115,1,1,PLANK,LB,old,m,./images/PLANKLB.png,,,,,,,,,,,,,,,,,,,,,
,,,,,,,,,,,,,,,,,199045,18,2022-01-28_17h48.36.594,lexical_decision_task_DD_L2,2021.2.3,Win32,60.01680471,,,,,,,,,,0.5351,1,,,,,,,,,,,,,,,0,0.359259296,-0.273148171,1,0,0,0.5351,button_right_main,0.359259296,-0.273148171,1,0,0,,0,116,116,25,1,WRIST,LB,old,m,./images/WRISTLB.png,,,,,,,,,,,,,,,,,,,,,
,,,,,,,,,,,,,,,,,199045,18,2022-01-28_17h48.36.594,lexical_decision_task_DD_L2,2021.2.3,Win32,60.01680471,,,,,,,,,,1.2992,1,,,,,,,,,,,,,,,0,-0.250925907,-0.312963044,1,0,0,1.2992,button_left_main,-0.250925907,-0.312963044,1,0,0,,0,117,117,91,1,SHENS,HB,old,z,./images/SHENSHB.png,,,,,,,,,,,,,,,,,,,,,
,,,,,,,,,,,,,,,,,199045,18,2022-01-28_17h48.36.594,lexical_decision_task_DD_L2,2021.2.3,Win32,60.01680471,,,,,,,,,,0.6293,1,,,,,,,,,,,,,,,0,0.41574078,-0.277777801,1,0,0,0.6293,button_right_main,0.41574078,-0.277777801,1,0,0,,0,118,118,51,1,ONION,HB,old,m,./images/ONIONHB.png,,,,,,,,,,,,,,,,,,,,,
,,,,,,,,,,,,,,,,,199045,18,2022-01-28_17h48.36.594,lexical_decision_task_DD_L2,2021.2.3,Win32,60.01680471,,,,,,,,,,1.5653,1,,,,,,,,,,,,,,,0,0.337963,-0.281481505,1,0,0,1.5653,button_right_main,0.337963,-0.281481505,1,0,0,,0,119,119,69,1,COOKER,HB,old,m,./images/COOKERHB.png,,,,,,,,,,,,,,,,,,,,,
,,,,,,,,,,,,,,,,,199045,18,2022-01-28_17h48.36.594,lexical_decision_task_DD_L2,2021.2.3,Win32,60.01680471,,,,,,,,,,0.7349,1,,,,,,,,,,,,,,,0,0.356481519,-0.231481503,1,0,0,0.7349,button_right_main,0.356481519,-0.231481503,1,0,0,,0,120,120,75,1,GRAIN,HB,old,m,./images/GRAINHB.png,,,,,,,,,,,,,,,,,,,,,
,,,,,,,,,,,,,,,,,199045,18,2022-01-28_17h48.36.594,lexical_decision_task_DD_L2,2021.2.3,Win32,60.01680471,,,,,,,,,,0.5503,1,,,,,,,,,,,,,,,0,0.296296332,-0.251851931,1,0,0,0.5503,button_right_main,0.296296332,-0.251851931,1,0,0,,0,121,121,73,1,SNACK,LB,old,m,./images/SNACKLB.png,,,,,,,,,,,,,,,,,,,,,
,,,,,,,,,,,,,,,,,199045,18,2022-01-28_17h48.36.594,lexical_decision_task_DD_L2,2021.2.3,Win32,60.01680471,,,,,,,,,,0.6531,1,,,,,,,,,,,,,,,0,0.297222258,-0.262963042,1,0,0,0.6531,button_right_main,0.297222258,-0.262963042,1,0,0,,0,122,122,52,1,BANNER,LB,old,m,./images/BANNERLB.png,,,,,,,,,,,,,,,,,,,,,
,,,,,,,,,,,,,,,,,199045,18,2022-01-28_17h48.36.594,lexical_decision_task_DD_L2,2021.2.3,Win32,60.01680471,,,,,,,,,,0.6695,1,,,,,,,,,,,,,,,0,-0.267592574,-0.322222247,1,0,0,0.6695,button_left_main,-0.267592574,-0.322222247,1,0,0,,0,123,123,141,1,PLEET,C,old,z,./images/PLEET.png,,,,,,,,,,,,,,,,,,,,,
,,,,,,,,,,,,,,,,,199045,18,2022-01-28_17h48.36.594,lexical_decision_task_DD_L2,2021.2.3,Win32,60.01680471,,,,,,,,,,0.6823,1,,,,,,,,,,,,,,,0,0.459259299,-0.26666669,1,0,0,0.6823,button_right_main,0.459259299,-0.26666669,1,0,0,,0,124,124,62,1,PURSE,C,old,m,./images/PURSE.png,,,,,,,,,,,,,,,,,,,,,
,,,,,,,,,,,,,,,,,199045,18,2022-01-28_17h48.36.594,lexical_decision_task_DD_L2,2021.2.3,Win32,60.01680471,,,,,,,,,,0.982,1,,,,,,,,,,,,,,,0,0.459259299,-0.287963043,1,0,0,0.982,button_right_main,0.059259288,-0.384259286,1,0,0,,0,125,125,58,1,BABOON,LB,old,m,./images/BABOONLB.png,break_done_button,,,,,,,,,,,,,,,,,,,,
,,,,,,,,,,,,,,,,,199045,18,2022-01-28_17h48.36.594,lexical_decision_task_DD_L2,2021.2.3,Win32,60.01680471,,,,,,,,,,0.7016,1,,,,,,,,,,,,,,,0,0.432407447,-0.229629708,1,0,0,0.7016,button_right_main,0.432407447,-0.229629708,1,0,0,,0,126,126,71,1,PIMPLE,C,old,m,./images/PIMPLE.png,,,,,,,,,,,,,,,,,,,,,
,,,,,,,,,,,,,,,,,199045,18,2022-01-28_17h48.36.594,lexical_decision_task_DD_L2,2021.2.3,Win32,60.01680471,,,,,,,,,,0.7681,1,,,,,,,,,,,,,,,0,0.410185224,-0.261111134,1,0,0,0.7681,button_right_main,0.410185224,-0.261111134,1,0,0,,0,127,127,78,1,LITTER,HB,old,m,./images/LITTERHB.png,,,,,,,,,,,,,,,,,,,,,
,,,,,,,,,,,,,,,,,199045,18,2022-01-28_17h48.36.594,lexical_decision_task_DD_L2,2021.2.3,Win32,60.01680471,,,,,,,,,,0.8329,1,,,,,,,,,,,,,,,0,-0.249999981,-0.287963043,1,0,0,0.8329,button_left_main,-0.249999981,-0.287963043,1,0,0,,0,128,128,96,1,KEAMS,C,old,z,./images/KEAMS.png,,,,,,,,,,,,,,,,,,,,,
,,,,,,,,,,,,,,,,,199045,18,2022-01-28_17h48.36.594,lexical_decision_task_DD_L2,2021.2.3,Win32,60.01680471,,,,,,,,,,1.6294,1,,,,,,,,,,,,,,,0,-0.322222205,-0.328703728,1,0,0,1.6294,button_left_main,-0.322222205,-0.328703728,1,0,0,,0,129,129,109,1,BURGE,HB,old,z,./images/BURGEHB.png,,,,,,,,,,,,,,,,,,,,,
,,,,,,,,,,,,,,,,,199045,18,2022-01-28_17h48.36.594,lexical_decision_task_DD_L2,2021.2.3,Win32,60.01680471,,,,,,,,,,0.7027,1,,,,,,,,,,,,,,,0,0.394444483,-0.251851931,1,0,0,0.7027,button_right_main,0.394444483,-0.251851931,1,0,0,,0,130,130,74,1,CEMENT,C,old,m,./images/CEMENT.png,,,,,,,,,,,,,,,,,,,,,
,,,,,,,,,,,,,,,,,199045,18,2022-01-28_17h48.36.594,lexical_decision_task_DD_L2,2021.2.3,Win32,60.01680471,,,,,,,,,,0.6022,1,,,,,,,,,,,,,,,0,0.499074115,-0.26574082,1,0,0,0.6022,button_right_main,0.499074115,-0.26574082,1,0,0,,0,131,131,68,1,TORCH,C,old,m,./images/TORCH.png,,,,,,,,,,,,,,,,,,,,,
,,,,,,,,,,,,,,,,,199045,18,2022-01-28_17h48.36.594,lexical_decision_task_DD_L2,2021.2.3,Win32,60.01680471,,,,,,,,,,0.7487,1,,,,,,,,,,,,,,,0,-0.397222208,-0.290740821,1,0,0,0.7487,button_left_main,-0.397222208,-0.290740821,1,0,0,,0,132,132,153,1,CLUPS,C,old,z,./images/CLUPS.png,,,,,,,,,,,,,,,,,,,,,
,,,,,,,,,,,,,,,,,199045,18,2022-01-28_17h48.36.594,lexical_decision_task_DD_L2,2021.2.3,Win32,60.01680471,,,,,,,,,,1.1988,1,,,,,,,,,,,,,,,0,-0.324074057,-0.268518598,1,0,0,1.1988,button_left_main,-0.324074057,-0.268518598,1,0,0,,0,133,133,166,1,SHORY,HB,old,z,./images/SHORYHB.png,,,,,,,,,,,,,,,,,,,,,
,,,,,,,,,,,,,,,,,199045,18,2022-01-28_17h48.36.594,lexical_decision_task_DD_L2,2021.2.3,Win32,60.01680471,,,,,,,,,,0.7348,1,,,,,,,,,,,,,,,0,-0.406481467,-0.302777802,1,0,0,0.7348,button_left_main,-0.406481467,-0.302777802,1,0,0,,0,134,134,131,1,NACES,LB,old,z,./images/NACESLB.png,,,,,,,,,,,,,,,,,,,,,
,,,,,,,,,,,,,,,,,199045,18,2022-01-28_17h48.36.594,lexical_decision_task_DD_L2,2021.2.3,Win32,60.01680471,,,,,,,,,,1.0463,1,,,,,,,,,,,,,,,0,-0.269444426,-0.28703706,1,0,0,1.0463,button_left_main,-0.269444426,-0.28703706,1,0,0,,0,135,135,115,1,MAWNS,HB,old,z,./images/MAWNSHB.png,,,,,,,,,,,,,,,,,,,,,
,,,,,,,,,,,,,,,,,199045,18,2022-01-28_17h48.36.594,lexical_decision_task_DD_L2,2021.2.3,Win32,60.01680471,,,,,,,,,,0.5857,1,,,,,,,,,,,,,,,0,0.380555593,-0.269444467,1,0,0,0.5857,button_right_main,0.380555593,-0.269444467,1,0,0,,0,136,136,10,1,BELLY,LB,old,m,./images/BELLYLB.png,,,,,,,,,,,,,,,,,,,,,
,,,,,,,,,,,,,,,,,199045,18,2022-01-28_17h48.36.594,lexical_decision_task_DD_L2,2021.2.3,Win32,60.01680471,,,,,,,,,,0.5685,1,,,,,,,,,,,,,,,0,0.337963,-0.278703727,1,0,0,0.5685,button_right_main,0.337963,-0.278703727,1,0,0,,0,137,137,28,1,FALCON,LB,old,m,./images/FALCONLB.png,,,,,,,,,,,,,,,,,,,,,
,,,,,,,,,,,,,,,,,199045,18,2022-01-28_17h48.36.594,lexical_decision_task_DD_L2,2021.2.3,Win32,60.01680471,,,,,,,,,,1.2016,1,,,,,,,,,,,,,,,0,-0.580555546,-0.302777802,1,0,0,1.2016,button_left_main,-0.580555546,-0.302777802,1,0,0,,0,138,138,162,1,LEICH,C,old,z,./images/LEICH.png,,,,,,,,,,,,,,,,,,,,,
,,,,,,,,,,,,,,,,,199045,18,2022-01-28_17h48.36.594,lexical_decision_task_DD_L2,2021.2.3,Win32,60.01680471,,,,,,,,,,0.769,1,,,,,,,,,,,,,,,0,-0.324999983,-0.288888912,1,0,0,0.769,button_left_main,-0.324999983,-0.288888912,1,0,0,,0,139,139,120,1,RINED,C,old,z,./images/RINED.png,,,,,,,,,,,,,,,,,,,,,
,,,,,,,,,,,,,,,,,199045,18,2022-01-28_17h48.36.594,lexical_decision_task_DD_L2,2021.2.3,Win32,60.01680471,,,,,,,,,,0.8644,1,,,,,,,,,,,,,,,0,-0.286111093,-0.30555558,1,0,0,0.8644,button_left_main,-0.286111093,-0.30555558,1,0,0,,0,140,140,90,1,NEAST,C,old,z,./images/NEAST.png,,,,,,,,,,,,,,,,,,,,,
,,,,,,,,,,,,,,,,,199045,18,2022-01-28_17h48.36.594,lexical_decision_task_DD_L2,2021.2.3,Win32,60.01680471,,,,,,,,,,0.5489,1,,,,,,,,,,,,,,,0,0.355555593,-0.294444468,1,0,0,0.5489,button_right_main,0.355555593,-0.294444468,1,0,0,,0,141,141,77,1,COUCH,C,old,m,./images/COUCH.png,,,,,,,,,,,,,,,,,,,,,
,,,,,,,,,,,,,,,,,199045,18,2022-01-28_17h48.36.594,lexical_decision_task_DD_L2,2021.2.3,Win32,60.01680471,,,,,,,,,,1.0686,1,,,,,,,,,,,,,,,0,-0.164814737,-0.312963044,1,0,0,1.0686,button_left_main,-0.298148131,-0.316666691,1,0,0,,0,142,142,164,1,SGREW,LB,old,z,./images/SGREWLB.png,,,,,,,,,,,,,,,,,,,,,
,,,,,,,,,,,,,,,,,199045,18,2022-01-28_17h48.36.594,lexical_decision_task_DD_L2,2021.2.3,Win32,60.01680471,,,,,,,,,,0.5652,1,,,,,,,,,,,,,,,0,0.398148187,-0.260185264,1,0,0,0.5652,button_right_main,0.398148187,-0.260185264,1,0,0,,0,143,143,4,1,MUSCLE,LB,old,m,./images/MUSCLELB.png,,,,,,,,,,,,,,,,,,,,,
,,,,,,,,,,,,,,,,,199045,18,2022-01-28_17h48.36.594,lexical_decision_task_DD_L2,2021.2.3,Win32,60.01680471,,,,,,,,,,1.0328,1,,,,,,,,,,,,,,,0,-0.305555538,-0.296296377,1,0,0,1.0328,button_left_main,-0.305555538,-0.296296377,1,0,0,,0,144,144,106,1,CLUMS,HB,old,z,./images/CLUMSHB.png,,,,,,,,,,,,,,,,,,,,,
,,,,,,,,,,,,,,,,,199045,18,2022-01-28_17h48.36.594,lexical_decision_task_DD_L2,2021.2.3,Win32,60.01680471,,,,,,,,,,0.5989,1,,,,,,,,,,,,,,,0,0.301851887,-0.275000023,1,0,0,0.5989,button_right_main,0.301851887,-0.275000023,1,0,0,,0,145,145,80,1,WEASEL,C,old,m,./images/WEASEL.png,,,,,,,,,,,,,,,,,,,,,
,,,,,,,,,,,,,,,,,199045,18,2022-01-28_17h48.36.594,lexical_decision_task_DD_L2,2021.2.3,Win32,60.01680471,,,,,,,,,,0.7467,1,,,,,,,,,,,,,,,0,-0.206481461,-0.290740821,1,0,0,0.7467,button_left_main,-0.206481461,-0.290740821,1,0,0,,0,146,146,161,1,BLAPS,LB,old,z,./images/BLAPSLB.png,,,,,,,,,,,,,,,,,,,,,
,,,,,,,,,,,,,,,,,199045,18,2022-01-28_17h48.36.594,lexical_decision_task_DD_L2,2021.2.3,Win32,60.01680471,,,,,,,,,,0.7824,1,,,,,,,,,,,,,,,0,0.41574078,-0.279629709,1,0,0,0.7824,button_right_main,0.41574078,-0.279629709,1,0,0,,0,147,147,64,1,JELLY,LB,old,m,./images/JELLYLB.png,,,,,,,,,,,,,,,,,,,,,
,,,,,,,,,,,,,,,,,199045,18,2022-01-28_17h48.36.594,lexical_decision_task_DD_L2,2021.2.3,Win32,60.01680471,,,,,,,,,,1.3819,1,,,,,,,,,,,,,,,0,-0.30277776,-0.264814838,1,0,0,1.3819,button_left_main,-0.30277776,-0.264814838,1,0,0,,0,148,148,151,1,TINKY,HB,old,z,./images/TINKYHB.png,,,,,,,,,,,,,,,,,,,,,
,,,,,,,,,,,,,,,,,199045,18,2022-01-28_17h48.36.594,lexical_decision_task_DD_L2,2021.2.3,Win32,60.01680471,,,,,,,,,,0.7961,1,,,,,,,,,,,,,,,0,-0.271296278,-0.322222247,1,0,0,0.7961,button_left_main,-0.271296278,-0.322222247,1,0,0,,0,149,149,138,1,PLICE,C,old,z,./images/PLICE.png,,,,,,,,,,,,,,,,,,,,,
,,,,,,,,,,,,,,,,,199045,18,2022-01-28_17h48.36.594,lexical_decision_task_DD_L2,2021.2.3,Win32,60.01680471,,,,,,,,,,1.832,0,,,,,,,,,,,,,,,0,0.378703741,-0.307407488,1,0,0,1.832,button_right_main,0.378703741,-0.307407488,1,0,0,,0,150,150,139,1,BLEAR,HB,old,z,./images/BLEARHB.png,,,,,,,,,,,,,,,,,,,,,
,,,,,,,,,,,,,,,,,199045,18,2022-01-28_17h48.36.594,lexical_decision_task_DD_L2,2021.2.3,Win32,60.01680471,,,,,,,,,,0.6352,1,,,,,,,,,,,,,,,0,0.511111153,-0.292592616,1,0,0,0.6352,button_right_main,0.511111153,-0.292592616,1,0,0,,0,151,151,67,1,SAILOR,LB,old,m,./images/SAILORLB.png,,,,,,,,,,,,,,,,,,,,,
,,,,,,,,,,,,,,,,,199045,18,2022-01-28_17h48.36.594,lexical_decision_task_DD_L2,2021.2.3,Win32,60.01680471,,,,,,,,,,0.6976,1,,,,,,,,,,,,,,,0,0.342592629,-0.281481505,1,0,0,0.6976,button_right_main,0.342592629,-0.281481505,1,0,0,,0,152,152,15,1,GREASE,HB,old,m,./images/GREASEHB.png,,,,,,,,,,,,,,,,,,,,,
,,,,,,,,,,,,,,,,,199045,18,2022-01-28_17h48.36.594,lexical_decision_task_DD_L2,2021.2.3,Win32,60.01680471,,,,,,,,,,0.6186,1,,,,,,,,,,,,,,,0,0.386111149,-0.298148172,1,0,0,0.6186,button_right_main,0.386111149,-0.298148172,1,0,0,,0,153,153,45,1,KITTEN,HB,old,m,./images/KITTENHB.png,,,,,,,,,,,,,,,,,,,,,
,,,,,,,,,,,,,,,,,199045,18,2022-01-28_17h48.36.594,lexical_decision_task_DD_L2,2021.2.3,Win32,60.01680471,,,,,,,,,,0.8152,1,,,,,,,,,,,,,,,0,0.343518555,-0.271296376,1,0,0,0.8152,button_right_main,0.343518555,-0.271296376,1,0,0,,0,154,154,11,1,BONNET,C,old,m,./images/BONNET.png,,,,,,,,,,,,,,,,,,,,,
,,,,,,,,,,,,,,,,,199045,18,2022-01-28_17h48.36.594,lexical_decision_task_DD_L2,2021.2.3,Win32,60.01680471,,,,,,,,,,0.563,1,,,,,,,,,,,,,,,0,0.337963,-0.292592616,1,0,0,0.563,button_right_main,0.337963,-0.292592616,1,0,0,,0,155,155,27,1,ATTIC,HB,old,m,./images/ATTICHB.png,,,,,,,,,,,,,,,,,,,,,
,,,,,,,,,,,,,,,,,199045,18,2022-01-28_17h48.36.594,lexical_decision_task_DD_L2,2021.2.3,Win32,60.01680471,,,,,,,,,,0.7984,1,,,,,,,,,,,,,,,0,-0.288888871,-0.30555558,1,0,0,0.7984,button_left_main,-0.288888871,-0.30555558,1,0,0,,0,156,156,95,1,HANTY,LB,old,z,./images/HANTYLB.png,,,,,,,,,,,,,,,,,,,,,
,,,,,,,,,,,,,,,,,199045,18,2022-01-28_17h48.36.594,lexical_decision_task_DD_L2,2021.2.3,Win32,60.01680471,,,,,,,,,,0.8851,1,,,,,,,,,,,,,,,0,-0.301851834,-0.294444468,1,0,0,0.8851,button_left_main,-0.301851834,-0.294444468,1,0,0,,0,157,157,148,1,JOMS,HB,old,z,./images/JOMSHB.png,,,,,,,,,,,,,,,,,,,,,
,,,,,,,,,,,,,,,,,199045,18,2022-01-28_17h48.36.594,lexical_decision_task_DD_L2,2021.2.3,Win32,60.01680471,,,,,,,,,,0.898,1,,,,,,,,,,,,,,,0,-0.390740726,-0.253703726,1,0,0,0.898,button_left_main,-0.390740726,-0.253703726,1,0,0,,0,158,158,146,1,MOOST,LB,old,z,./images/MOOSTLB.png,,,,,,,,,,,,,,,,,,,,,
,,,,,,,,,,,,,,,,,199045,18,2022-01-28_17h48.36.594,lexical_decision_task_DD_L2,2021.2.3,Win32,60.01680471,,,,,,,,,,0.6794,1,,,,,,,,,,,,,,,0,-0.31666665,-0.302777802,1,0,0,0.6794,button_left_main,-0.31666665,-0.302777802,1,0,0,,0,159,159,143,1,MONGS,LB,old,z,./images/MONGSLB.png,,,,,,,,,,,,,,,,,,,,,
,,,,,,,,,,,,,,,,,199045,18,2022-01-28_17h48.36.594,lexical_decision_task_DD_L2,2021.2.3,Win32,60.01680471,,,,,,,,,,0.8988,1,,,,,,,,,,,,,,,0,-0.400925911,-0.281481505,1,0,0,0.8988,button_left_main,-0.400925911,-0.281481505,1,0,0,,0,160,160,85,1,CHULK,HB,old,z,./images/CHULKHB.png,,,,,,,,,,,,,,,,,,,,,
,,,,,,,,,,,,,,,,,199045,18,2022-01-28_17h48.36.594,lexical_decision_task_DD_L2,2021.2.3,Win32,60.01680471,,,,,,,,,,0.7152,1,,,,,,,,,,,,,,,0,-0.335185169,-0.277777801,1,0,0,0.7152,button_left_main,-0.335185169,-0.277777801,1,0,0,,0,161,161,111,1,HOSSE,C,old,z,./images/HOSSE.png,,,,,,,,,,,,,,,,,,,,,
,,,,,,,,,,,,,,,,,199045,18,2022-01-28_17h48.36.594,lexical_decision_task_DD_L2,2021.2.3,Win32,60.01680471,,,,,,,,,,0.6818,1,,,,,,,,,,,,,,,0,0.368518556,-0.26574082,1,0,0,0.6818,button_right_main,0.368518556,-0.26574082,1,0,0,,0,162,162,57,1,MOOSE,HB,old,m,./images/MOOSEHB.png,,,,,,,,,,,,,,,,,,,,,
,,,,,,,,,,,,,,,,,199045,18,2022-01-28_17h48.36.594,lexical_decision_task_DD_L2,2021.2.3,Win32,60.01680471,,,,,,,,,,0.8323,1,,,,,,,,,,,,,,,0,-0.429629588,-0.29166669,1,0,0,0.8323,button_left_main,-0.429629588,-0.29166669,1,0,0,,0,163,163,94,1,BLANS,HB,old,z,./images/BLANSHB.png,,,,,,,,,,,,,,,,,,,,,
,,,,,,,,,,,,,,,,,199045,18,2022-01-28_17h48.36.594,lexical_decision_task_DD_L2,2021.2.3,Win32,60.01680471,,,,,,,,,,0.7322,1,,,,,,,,,,,,,,,0,-0.264814796,-0.318518599,1,0,0,0.7322,button_left_main,-0.264814796,-0.318518599,1,0,0,,0,164,164,119,1,PAFER,LB,old,z,./images/PAFERLB.png,,,,,,,,,,,,,,,,,,,,,
,,,,,,,,,,,,,,,,,199045,18,2022-01-28_17h48.36.594,lexical_decision_task_DD_L2,2021.2.3,Win32,60.01680471,,,,,,,,,,0.7653,1,,,,,,,,,,,,,,,0,0.606481639,-0.33055558,1,0,0,0.7653,button_right_main,0.533333376,-0.33055558,1,0,0,,0,165,165,37,1,BIRTH,LB,old,m,./images/BIRTHLB.png,,,,,,,,,,,,,,,,,,,,,
,,,,,,,,,,,,,,,,,199045,18,2022-01-28_17h48.36.594,lexical_decision_task_DD_L2,2021.2.3,Win32,60.01680471,,,,,,,,,,0.9689,0,,,,,,,,,,,,,,,0,0.491666708,-0.30462971,1,0,0,0.9689,button_right_main,0.491666708,-0.30462971,1,0,0,,0,166,166,134,1,TROSS,LB,old,z,./images/TROSSLB.png,,,,,,,,,,,,,,,,,,,,,
,,,,,,,,,,,,,,,,,199045,18,2022-01-28_17h48.36.594,lexical_decision_task_DD_L2,2021.2.3,Win32,60.01680471,,,,,,,,,,1.9814,1,,,,,,,,,,,,,,,0,0.428703743,-0.311111135,1,0,0,1.9814,button_right_main,0.428703743,-0.311111135,1,0,0,,0,167,167,23,1,WALRUS,C,old,m,./images/WALRUS.png,,,,,,,,,,,,,,,,,,,,,
,-0.027777752,-0.409259286,1,0,0,instr_done_button,,,,,,1,test,"In the next phase you will be presented with the words from the the first phase. Your job is to decide whether you remember seeing the word or not. If you remember seeing the word press ""old"" or type ""m"". If you do not remember seeing the word press ""new"" or type ""z"". Please press the space bar or click on continue to begin. ",,,199045,18,2022-01-28_17h48.36.594,lexical_decision_task_DD_L2,2021.2.3,Win32,60.01680471,,,,,,,,,,,,,,,,,,,,,,,,,,,,,,,,,,,,,,,,,,,,,,,,,,,0,0,0,0,1,,,,,,,,,,,,,,,
,0.007407491,-0.388888915,1,0,0,instr_done_button,,,,,,1,test,"In the next phase you will be presented with the words from the the first phase. Your job is to decide whether you remember seeing the word or not. If you remember seeing the word press ""old"" or type ""m"". If you do not remember seeing the word press ""new"" or type ""z"". Please press the space bar or click on continue to begin. ",,,199045,18,2022-01-28_17h48.36.594,lexical_decision_task_DD_L2,2021.2.3,Win32,60.01680471,,,,,,,,,,,,,,,,,,,,,,,,,,,,,,,,,,,,,,,,,,,,,,,,,,,1,0,1,0,1,,,,,,,,,,,,,,,
,0.040740825,-0.359259285,1,0,0,instr_done_button,,,,,,1,test,"In the next phase you will be presented with the words from the the first phase. Your job is to decide whether you remember seeing the word or not. If you remember seeing the word press ""old"" or type ""m"". If you do not remember seeing the word press ""new"" or type ""z"". Please press the space bar or click on continue to begin. ",,,199045,18,2022-01-28_17h48.36.594,lexical_decision_task_DD_L2,2021.2.3,Win32,60.01680471,,,,,,,,,,,,,,,,,,,,,,,,,,,,,,,,,,,,,,,,,,,,,,,,,,,2,0,2,0,1,,,,,,,,,,,,,,,
space,0.436111151,-0.257407486,0,0,0,,,,,,,1,test,"In the next phase you will be presented with the words from the the first phase. Your job is to decide whether you remember seeing the word or not. If you remember seeing the word press ""old"" or type ""m"". If you do not remember seeing the word press ""new"" or type ""z"". Please press the space bar or click on continue to begin. ",,,199045,18,2022-01-28_17h48.36.594,lexical_decision_task_DD_L2,2021.2.3,Win32,60.01680471,,,,,,,,,,,,,,,,,,,,,,,,,,,,,,,,,,,,,,,,,,,,,,,,,,,3,0,3,0,1,1.7906,,,,,,,,,,,,,,
,0.023148175,-0.394444471,1,0,0,instr_done_button,,,,,,1,test,"In the next phase you will be presented with the words from the the first phase. Your job is to decide whether you remember seeing the word or not. If you remember seeing the word press ""old"" or type ""m"". If you do not remember seeing the word press ""new"" or type ""z"". Please press the space bar or click on continue to begin. ",,,199045,18,2022-01-28_17h48.36.594,lexical_decision_task_DD_L2,2021.2.3,Win32,60.01680471,,,,,,,,,,,,,,,,,,,,,,,,,,,,,,,,,,,,,,,,,,,,,,,,,,,4,0,4,0,1,,,,,,,,,,,,,,,
,,,,,,,,,,,,,,,,,199045,18,2022-01-28_17h48.36.594,lexical_decision_task_DD_L2,2021.2.3,Win32,60.01680471,,,,,,,,,,2.761,1,,,,,,,,,,,,,,,,,,,,,,,-0.357407392,-0.334259284,1,0,0,,,,,,,STREAM,C,z,y,./images/STREAM.png,,,,,,,,,0,-0.357407392,-0.334259284,1,0,0,2.761,button_left_test,0,0,0,125,1
,,,,,,,,,,,,,,,,,199045,18,2022-01-28_17h48.36.594,lexical_decision_task_DD_L2,2021.2.3,Win32,60.01680471,,,,,,,,,,1.2638,1,,,,,,,,,,,,,,,,,,,,,,,-0.318518502,-0.293518599,1,0,0,,,,,,,GLOVE,LB,z,y,./images/GLOVELB.png,,,,,,,,,0,-0.318518502,-0.293518599,1,0,0,1.2638,button_left_test,0,1,1,157,1
,,,,,,,,,,,,,,,,,199045,18,2022-01-28_17h48.36.594,lexical_decision_task_DD_L2,2021.2.3,Win32,60.01680471,,,,,,,,,,1.4976,1,,,,,,,,,,,,,,,,,,,,,,,0.387037075,-0.284259283,1,0,0,,,,,,,PEACH,C,m,y,./images/PEACH.png,,,,,,,,,0,0.387037075,-0.284259283,1,0,0,1.4976,button_right_test,0,2,2,35,1
,,,,,,,,,,,,,,,,,199045,18,2022-01-28_17h48.36.594,lexical_decision_task_DD_L2,2021.2.3,Win32,60.01680471,,,,,,,,,,3.0972,0,,,,,,,,,,,,,,,,,,,,,,,0.531481524,-0.303703728,1,0,0,,,,,,,CANDY,HB,z,y,./images/CANDYHB.png,,,,,,,,,0,0.531481524,-0.303703728,1,0,0,3.0972,button_right_test,0,3,3,123,1
,,,,,,,,,,,,,,,,,199045,18,2022-01-28_17h48.36.594,lexical_decision_task_DD_L2,2021.2.3,Win32,60.01680471,,,,,,,,,,1.2981,1,,,,,,,,,,,,,,,,,,,,,,,-0.313888872,-0.319444469,1,0,0,,,,,,,STOVE,C,z,y,./images/STOVE.png,,,,,,,,,0,-0.313888872,-0.319444469,1,0,0,1.2981,button_left_test,0,4,4,86,1
,,,,,,,,,,,,,,,,,199045,18,2022-01-28_17h48.36.594,lexical_decision_task_DD_L2,2021.2.3,Win32,60.01680471,,,,,,,,,,1.5478,1,,,,,,,,,,,,,,,,,,,,,,,0.505555597,-0.274074154,1,0,0,,,,,,,SQUARE,HB,m,y,./images/SQUAREHB.png,,,,,,,,,0,0.505555597,-0.274074154,1,0,0,1.5478,button_right_test,0,5,5,6,1
,,,,,,,,,,,,,,,,,199045,18,2022-01-28_17h48.36.594,lexical_decision_task_DD_L2,2021.2.3,Win32,60.01680471,,,,,,,,,,0.8841,1,,,,,,,,,,,,,,,,,,,,,,,-0.387962948,-0.292592616,1,0,0,,,,,,,POKER,LB,z,y,./images/POKERLB.png,,,,,,,,,0,-0.387962948,-0.292592616,1,0,0,0.8841,button_left_test,0,6,6,151,1
,,,,,,,,,,,,,,,,,199045,18,2022-01-28_17h48.36.594,lexical_decision_task_DD_L2,2021.2.3,Win32,60.01680471,,,,,,,,,,1.1481,1,,,,,,,,,,,,,,,,,,,,,,,-0.363888873,-0.30462971,1,0,0,,,,,,,STEAK,LB,z,y,./images/STEAKLB.png,,,,,,,,,0,-0.363888873,-0.30462971,1,0,0,1.1481,button_left_test,0,7,7,115,1
,,,,,,,,,,,,,,,,,199045,18,2022-01-28_17h48.36.594,lexical_decision_task_DD_L2,2021.2.3,Win32,60.01680471,,,,,,,,,,1.9124,0,,,,,,,,,,,,,,,,,,,,,,,0.555555599,-0.332407489,1,0,0,,,,,,,CASINO,LB,z,y,./images/CASINOLB.png,,,,,,,,,0,0.555555599,-0.332407489,1,0,0,1.9124,button_right_test,0,8,8,112,1
,,,,,,,,,,,,,,,,,199045,18,2022-01-28_17h48.36.594,lexical_decision_task_DD_L2,2021.2.3,Win32,60.01680471,,,,,,,,,,1.5115,0,,,,,,,,,,,,,,,,,,,,,,,0.36759263,-0.314814839,1,0,0,,,,,,,TIGER,LB,z,y,./images/TIGERLB.png,,,,,,,,,0,0.36759263,-0.314814839,1,0,0,1.5115,button_right_test,0,9,9,121,1
,,,,,,,,,,,,,,,,,199045,18,2022-01-28_17h48.36.594,lexical_decision_task_DD_L2,2021.2.3,Win32,60.01680471,,,,,,,,,,0.7151,1,,,,,,,,,,,,,,,,,,,,,,,0.383333371,-0.30555558,1,0,0,,,,,,,CRUMB,C,m,y,./images/CRUMB.png,,,,,,,,,0,0.383333371,-0.30555558,1,0,0,0.7151,button_right_test,0,10,10,29,1
,,,,,,,,,,,,,,,,,199045,18,2022-01-28_17h48.36.594,lexical_decision_task_DD_L2,2021.2.3,Win32,60.01680471,,,,,,,,,,1.5147,1,,,,,,,,,,,,,,,,,,,,,,,-0.404629615,-0.296296377,1,0,0,,,,,,,BLOKE,HB,z,y,./images/BLOKEHB.png,,,,,,,,,0,-0.404629615,-0.296296377,1,0,0,1.5147,button_left_test,0,11,11,96,1
,,,,,,,,,,,,,,,,,199045,18,2022-01-28_17h48.36.594,lexical_decision_task_DD_L2,2021.2.3,Win32,60.01680471,,,,,,,,,,0.8807,1,,,,,,,,,,,,,,,,,,,,,,,0.482407448,-0.267592615,1,0,0,,,,,,,PENCE,LB,m,y,./images/PENCELB.png,,,,,,,,,0,0.482407448,-0.267592615,1,0,0,0.8807,button_right_test,0,12,12,16,1
,,,,,,,,,,,,,,,,,199045,18,2022-01-28_17h48.36.594,lexical_decision_task_DD_L2,2021.2.3,Win32,60.01680471,,,,,,,,,,0.9314,1,,,,,,,,,,,,,,,,,,,,,,,0.417592632,-0.281481505,1,0,0,,,,,,,PIMPLE,C,m,y,./images/PIMPLE.png,,,,,,,,,0,0.417592632,-0.281481505,1,0,0,0.9314,button_right_test,0,13,13,71,1
,,,,,,,,,,,,,,,,,199045,18,2022-01-28_17h48.36.594,lexical_decision_task_DD_L2,2021.2.3,Win32,60.01680471,,,,,,,,,,0.6652,1,,,,,,,,,,,,,,,,,,,,,,,0.434259299,-0.33981484,1,0,0,,,,,,,WEASEL,C,m,y,./images/WEASEL.png,,,,,,,,,0,0.434259299,-0.33981484,1,0,0,0.6652,button_right_test,0,14,14,80,1
,,,,,,,,,,,,,,,,,199045,18,2022-01-28_17h48.36.594,lexical_decision_task_DD_L2,2021.2.3,Win32,60.01680471,,,,,,,,,,1.2974,0,,,,,,,,,,,,,,,,,,,,,,,0.384259297,-0.294444468,1,0,0,,,,,,,GRANNY,C,z,y,./images/GRANNY.png,,,,,,,,,0,0.384259297,-0.294444468,1,0,0,1.2974,button_right_test,0,15,15,104,1
,,,,,,,,,,,,,,,,,199045,18,2022-01-28_17h48.36.594,lexical_decision_task_DD_L2,2021.2.3,Win32,60.01680471,,,,,,,,,,1.3479,1,,,,,,,,,,,,,,,,,,,,,,,-0.297222205,-0.327777802,1,0,0,,,,,,,STAIN,HB,z,y,./images/STAINHB.png,,,,,,,,,0,-0.297222205,-0.327777802,1,0,0,1.3479,button_left_test,0,16,16,90,1
,,,,,,,,,,,,,,,,,199045,18,2022-01-28_17h48.36.594,lexical_decision_task_DD_L2,2021.2.3,Win32,60.01680471,,,,,,,,,,1.5481,1,,,,,,,,,,,,,,,,,,,,,,,-0.379629614,-0.313888913,1,0,0,,,,,,,MAMMAL,C,z,y,./images/MAMMAL.png,,,,,,,,,0,-0.379629614,-0.313888913,1,0,0,1.5481,button_left_test,0,17,17,146,1
,,,,,,,,,,,,,,,,,199045,18,2022-01-28_17h48.36.594,lexical_decision_task_DD_L2,2021.2.3,Win32,60.01680471,,,,,,,,,,0.8477,1,,,,,,,,,,,,,,,,,,,,,,,0.409259298,-0.290740821,1,0,0,,,,,,,TULIP,C,m,y,./images/TULIP.png,,,,,,,,,0,0.409259298,-0.290740821,1,0,0,0.8477,button_right_test,0,18,18,8,1
,,,,,,,,,,,,,,,,,199045,18,2022-01-28_17h48.36.594,lexical_decision_task_DD_L2,2021.2.3,Win32,60.01680471,,,,,,,,,,0.7145,0,,,,,,,,,,,,,,,,,,,,,,,0.388888927,-0.319444469,1,0,0,,,,,,,WAGON,LB,z,y,./images/WAGONLB.png,,,,,,,,,0,0.388888927,-0.319444469,1,0,0,0.7145,button_right_test,0,19,19,91,1
,,,,,,,,,,,,,,,,,199045,18,2022-01-28_17h48.36.594,lexical_decision_task_DD_L2,2021.2.3,Win32,60.01680471,,,,,,,,,,1.0647,0,,,,,,,,,,,,,,,,,,,,,,,0.510185227,-0.329629711,1,0,0,,,,,,,FERRY,HB,z,y,./images/FERRYHB.png,,,,,,,,,0,0.510185227,-0.329629711,1,0,0,1.0647,button_right_test,0,20,20,141,1
,,,,,,,,,,,,,,,,,199045,18,2022-01-28_17h48.36.594,lexical_decision_task_DD_L2,2021.2.3,Win32,60.01680471,,,,,,,,,,0.8458,1,,,,,,,,,,,,,,,,,,,,,,,0.362963,-0.336111136,1,0,0,,,,,,,DOUGH,LB,m,y,./images/DOUGHLB.png,,,,,,,,,0,0.362963,-0.336111136,1,0,0,0.8458,button_right_test,0,21,21,19,1
,,,,,,,,,,,,,,,,,199045,18,2022-01-28_17h48.36.594,lexical_decision_task_DD_L2,2021.2.3,Win32,60.01680471,,,,,,,,,,0.8006,1,,,,,,,,,,,,,,,,,,,,,,,0.327777814,-0.288888912,1,0,0,,,,,,,SWING,LB,m,y,./images/SWINGLB.png,,,,,,,,,0,0.327777814,-0.288888912,1,0,0,0.8006,button_right_test,0,22,22,40,1
,,,,,,,,,,,,,,,,,199045,18,2022-01-28_17h48.36.594,lexical_decision_task_DD_L2,2021.2.3,Win32,60.01680471,,,,,,,,,,0.6483,1,,,,,,,,,,,,,,,,,,,,,,,0.277777813,-0.281481505,1,0,0,,,,,,,JAGUAR,HB,m,y,./images/JAGUARHB.png,,,,,,,,,0,0.277777813,-0.281481505,1,0,0,0.6483,button_right_test,0,23,23,18,1
,,,,,,,,,,,,,,,,,199045,18,2022-01-28_17h48.36.594,lexical_decision_task_DD_L2,2021.2.3,Win32,60.01680471,,,,,,,,,,0.8487,0,,,,,,,,,,,,,,,,,,,,,,,0.310185221,-0.277777801,1,0,0,,,,,,,MONKEY,HB,z,y,./images/MONKEYHB.png,,,,,,,,,0,0.310185221,-0.277777801,1,0,0,0.8487,button_right_test,0,24,24,129,1
,,,,,,,,,,,,,,,,,199045,18,2022-01-28_17h48.36.594,lexical_decision_task_DD_L2,2021.2.3,Win32,60.01680471,,,,,,,,,,1.0305,0,,,,,,,,,,,,,,,,,,,,,,,0.262962997,-0.279629709,1,0,0,,,,,,,DONKEY,LB,z,y,./images/DONKEYLB.png,,,,,,,,,0,0.262962997,-0.279629709,1,0,0,1.0305,button_right_test,0,25,25,103,1
,,,,,,,,,,,,,,,,,199045,18,2022-01-28_17h48.36.594,lexical_decision_task_DD_L2,2021.2.3,Win32,60.01680471,,,,,,,,,,0.831,0,,,,,,,,,,,,,,,,,,,,,,,0.325000036,-0.294444468,1,0,0,,,,,,,PILOT,C,z,y,./images/PILOT.png,,,,,,,,,0,0.325000036,-0.294444468,1,0,0,0.831,button_right_test,0,26,26,134,1
,,,,,,,,,,,,,,,,,199045,18,2022-01-28_17h48.36.594,lexical_decision_task_DD_L2,2021.2.3,Win32,60.01680471,,,,,,,,,,1.8304,1,,,,,,,,,,,,,,,,,,,,,,,-0.360185169,-0.257407486,1,0,0,,,,,,,FENCE,C,z,y,./images/FENCE.png,,,,,,,,,0,-0.360185169,-0.257407486,1,0,0,1.8304,button_left_test,0,27,27,98,1
,,,,,,,,,,,,,,,,,199045,18,2022-01-28_17h48.36.594,lexical_decision_task_DD_L2,2021.2.3,Win32,60.01680471,,,,,,,,,,1.6483,0,,,,,,,,,,,,,,,,,,,,,,,0.409259298,-0.361111137,1,0,0,,,,,,,VALLEY,C,z,y,./images/VALLEY.png,,,,,,,,,0,0.409259298,-0.361111137,1,0,0,1.6483,button_right_test,0,28,28,152,1
,,,,,,,,,,,,,,,,,199045,18,2022-01-28_17h48.36.594,lexical_decision_task_DD_L2,2021.2.3,Win32,60.01680471,,,,,,,,,,1.0977,1,,,,,,,,,,,,,,,,,,,,,,,0.275925961,-0.280555579,1,0,0,,,,,,,COOKER,HB,m,y,./images/COOKERHB.png,,,,,,,,,0,0.275925961,-0.280555579,1,0,0,1.0977,button_right_test,0,29,29,69,1
,,,,,,,,,,,,,,,,,199045,18,2022-01-28_17h48.36.594,lexical_decision_task_DD_L2,2021.2.3,Win32,60.01680471,,,,,,,,,,0.7979,1,,,,,,,,,,,,,,,,,,,,,,,0.424074113,-0.290740821,1,0,0,,,,,,,LADDER,C,m,y,./images/LADDER.png,,,,,,,,,0,0.424074113,-0.290740821,1,0,0,0.7979,button_right_test,0,30,30,38,1
,,,,,,,,,,,,,,,,,199045,18,2022-01-28_17h48.36.594,lexical_decision_task_DD_L2,2021.2.3,Win32,60.01680471,,,,,,,,,,1.1645,1,,,,,,,,,,,,,,,,,,,,,,,-0.279629611,-0.302777802,1,0,0,,,,,,,BISHOP,LB,z,y,./images/BISHOPLB.png,,,,,,,,,0,-0.279629611,-0.302777802,1,0,0,1.1645,button_left_test,0,31,31,133,1
,,,,,,,,,,,,,,,,,199045,18,2022-01-28_17h48.36.594,lexical_decision_task_DD_L2,2021.2.3,Win32,60.01680471,,,,,,,,,,1.0846,1,,,,,,,,,,,,,,,,,,,,,,,-0.464814802,-0.302777802,1,0,0,,,,,,,HOCKEY,C,z,y,./images/HOCKEY.png,,,,,,,,,0,-0.464814802,-0.302777802,1,0,0,1.0846,button_left_test,0,32,32,116,1
,,,,,,,,,,,,,,,,,199045,18,2022-01-28_17h48.36.594,lexical_decision_task_DD_L2,2021.2.3,Win32,60.01680471,,,,,,,,,,0.7977,1,,,,,,,,,,,,,,,,,,,,,,,0.399074112,-0.325000025,1,0,0,,,,,,,BERRY,C,m,y,./images/BERRY.png,,,,,,,,,0,0.399074112,-0.325000025,1,0,0,0.7977,button_right_test,0,33,33,47,1
,,,,,,,,,,,,,,,,,199045,18,2022-01-28_17h48.36.594,lexical_decision_task_DD_L2,2021.2.3,Win32,60.01680471,,,,,,,,,,1.1647,1,,,,,,,,,,,,,,,,,,,,,,,-0.2685185,-0.306481506,1,0,0,,,,,,,LLAMA,C,z,y,./images/LLAMA.png,,,,,,,,,0,-0.2685185,-0.306481506,1,0,0,1.1647,button_left_test,0,34,34,119,1
,,,,,,,,,,,,,,,,,199045,18,2022-01-28_17h48.36.594,lexical_decision_task_DD_L2,2021.2.3,Win32,60.01680471,,,,,,,,,,0.8977,1,,,,,,,,,,,,,,,,,,,,,,,0.392592631,-0.308333357,1,0,0,,,,,,,PLANK,LB,m,y,./images/PLANKLB.png,,,,,,,,,0,0.392592631,-0.308333357,1,0,0,0.8977,button_right_test,0,35,35,1,1
,,,,,,,,,,,,,,,,,199045,18,2022-01-28_17h48.36.594,lexical_decision_task_DD_L2,2021.2.3,Win32,60.01680471,,,,,,,,,,1.6146,1,,,,,,,,,,,,,,,,,,,,,,,0.311111147,-0.335185267,1,0,0,,,,,,,CANDLE,LB,m,y,./images/CANDLELB.png,,,,,,,,,0,0.311111147,-0.335185267,1,0,0,1.6146,button_right_test,0,36,36,61,1
,,,,,,,,,,,,,,,,,199045,18,2022-01-28_17h48.36.594,lexical_decision_task_DD_L2,2021.2.3,Win32,60.01680471,,,,,,,,,,1.3961,0,,,,,,,,,,,,,,,,,,,,,,,0.546296339,-0.30462971,1,0,0,,,,,,,JUMPER,C,z,y,./images/JUMPER.png,,,,,,,,,0,0.546296339,-0.30462971,1,0,0,1.3961,button_right_test,0,37,37,158,1
,,,,,,,,,,,,,,,,,199045,18,2022-01-28_17h48.36.594,lexical_decision_task_DD_L2,2021.2.3,Win32,60.01680471,,,,,,,,,,1.1149,1,,,,,,,,,,,,,,,,,,,,,,,0.32407411,-0.258333356,1,0,0,,,,,,,SAILOR,LB,m,y,./images/SAILORLB.png,,,,,,,,,0,0.32407411,-0.258333356,1,0,0,1.1149,button_right_test,0,38,38,67,1
,,,,,,,,,,,,,,,,,199045,18,2022-01-28_17h48.36.594,lexical_decision_task_DD_L2,2021.2.3,Win32,60.01680471,,,,,,,,,,1.0649,1,,,,,,,,,,,,,,,,,,,,,,,0.363888926,-0.309259283,1,0,0,,,,,,,KITTEN,HB,m,y,./images/KITTENHB.png,,,,,,,,,0,0.363888926,-0.309259283,1,0,0,1.0649,button_right_test,0,39,39,45,1
,,,,,,,,,,,,,,,,,199045,18,2022-01-28_17h48.36.594,lexical_decision_task_DD_L2,2021.2.3,Win32,60.01680471,,,,,,,,,,0.8644,1,,,,,,,,,,,,,,,,,,,,,,,-0.287037019,-0.30555558,1,0,0,,,,,,,BRIDE,LB,z,y,./images/BRIDELB.png,,,,,,,,,0,-0.287037019,-0.30555558,1,0,0,0.8644,button_left_test,0,40,40,148,1
,,,,,,,,,,,,,,,,,199045,18,2022-01-28_17h48.36.594,lexical_decision_task_DD_L2,2021.2.3,Win32,60.01680471,,,,,,,,,,1.048,1,,,,,,,,,,,,,,,,,,,,,,,-0.03055553,-0.424074158,1,0,0,,,,,,,BAMBOO,C,z,y,./images/BAMBOO.png,break_done_button,,,,,,,,0,-0.39444443,-0.277777801,1,0,0,1.048,button_left_test,0,41,41,89,1
,,,,,,,,,,,,,,,,,199045,18,2022-01-28_17h48.36.594,lexical_decision_task_DD_L2,2021.2.3,Win32,60.01680471,,,,,,,,,,1.4813,0,,,,,,,,,,,,,,,,,,,,,,,0.247222256,-0.295370394,1,0,0,,,,,,,CLOTH,C,z,y,./images/CLOTH.png,,,,,,,,,0,0.247222256,-0.295370394,1,0,0,1.4813,button_right_test,0,42,42,107,1
,,,,,,,,,,,,,,,,,199045,18,2022-01-28_17h48.36.594,lexical_decision_task_DD_L2,2021.2.3,Win32,60.01680471,,,,,,,,,,2.5617,1,,,,,,,,,,,,,,,,,,,,,,,-0.59351851,-0.311111135,1,0,0,,,,,,,RULER,LB,z,y,./images/RULERLB.png,,,,,,,,,0,-0.59351851,-0.311111135,1,0,0,2.5617,button_left_test,0,43,43,163,1
,,,,,,,,,,,,,,,,,199045,18,2022-01-28_17h48.36.594,lexical_decision_task_DD_L2,2021.2.3,Win32,60.01680471,,,,,,,,,,1.0338,1,,,,,,,,,,,,,,,,,,,,,,,-0.402777763,-0.345370396,1,0,0,,,,,,,PLANET,C,z,y,./images/PLANET.png,,,,,,,,,0,-0.402777763,-0.345370396,1,0,0,1.0338,button_left_test,0,44,44,164,1
,,,,,,,,,,,,,,,,,199045,18,2022-01-28_17h48.36.594,lexical_decision_task_DD_L2,2021.2.3,Win32,60.01680471,,,,,,,,,,0.9294,1,,,,,,,,,,,,,,,,,,,,,,,0.337963,-0.317592617,1,0,0,,,,,,,CRUST,LB,m,y,./images/CRUSTLB.png,,,,,,,,,0,0.337963,-0.317592617,1,0,0,0.9294,button_right_test,0,45,45,79,1
,,,,,,,,,,,,,,,,,199045,18,2022-01-28_17h48.36.594,lexical_decision_task_DD_L2,2021.2.3,Win32,60.01680471,,,,,,,,,,1.1473,1,,,,,,,,,,,,,,,,,,,,,,,-0.443518477,-0.360185267,1,0,0,,,,,,,CRATER,HB,z,y,./images/CRATERHB.png,,,,,,,,,0,-0.443518477,-0.360185267,1,0,0,1.1473,button_left_test,0,46,46,87,1
,,,,,,,,,,,,,,,,,199045,18,2022-01-28_17h48.36.594,lexical_decision_task_DD_L2,2021.2.3,Win32,60.01680471,,,,,,,,,,0.7975,1,,,,,,,,,,,,,,,,,,,,,,,-0.255555537,-0.322222247,1,0,0,,,,,,,MEDAL,C,z,y,./images/MEDAL.png,,,,,,,,,0,-0.255555537,-0.322222247,1,0,0,0.7975,button_left_test,0,47,47,95,1
,,,,,,,,,,,,,,,,,199045,18,2022-01-28_17h48.36.594,lexical_decision_task_DD_L2,2021.2.3,Win32,60.01680471,,,,,,,,,,0.7973,0,,,,,,,,,,,,,,,,,,,,,,,0.331481518,-0.317592617,1,0,0,,,,,,,BAKER,HB,z,y,./images/BAKERHB.png,,,,,,,,,0,0.331481518,-0.317592617,1,0,0,0.7973,button_right_test,0,48,48,147,1
,,,,,,,,,,,,,,,,,199045,18,2022-01-28_17h48.36.594,lexical_decision_task_DD_L2,2021.2.3,Win32,60.01680471,,,,,,,,,,0.8814,0,,,,,,,,,,,,,,,,,,,,,,,0.350000037,-0.298148172,1,0,0,,,,,,,TOWEL,LB,z,y,./images/TOWELLB.png,,,,,,,,,0,0.350000037,-0.298148172,1,0,0,0.8814,button_right_test,0,49,49,85,1
,,,,,,,,,,,,,,,,,199045,18,2022-01-28_17h48.36.594,lexical_decision_task_DD_L2,2021.2.3,Win32,60.01680471,,,,,,,,,,0.6626,1,,,,,,,,,,,,,,,,,,,,,,,0.451851892,-0.312037061,1,0,0,,,,,,,SNACK,LB,m,y,./images/SNACKLB.png,,,,,,,,,0,0.451851892,-0.312037061,1,0,0,0.6626,button_right_test,0,50,50,73,1
,,,,,,,,,,,,,,,,,199045,18,2022-01-28_17h48.36.594,lexical_decision_task_DD_L2,2021.2.3,Win32,60.01680471,,,,,,,,,,0.9789,1,,,,,,,,,,,,,,,,,,,,,,,0.334259296,-0.312037061,1,0,0,,,,,,,BURIAL,C,m,y,./images/BURIAL.png,,,,,,,,,0,0.334259296,-0.312037061,1,0,0,0.9789,button_right_test,0,51,51,59,1
,,,,,,,,,,,,,,,,,199045,18,2022-01-28_17h48.36.594,lexical_decision_task_DD_L2,2021.2.3,Win32,60.01680471,,,,,,,,,,0.9648,0,,,,,,,,,,,,,,,,,,,,,,,0.546296339,-0.341666692,1,0,0,,,,,,,DRILL,HB,z,y,./images/DRILLHB.png,,,,,,,,,0,0.546296339,-0.341666692,1,0,0,0.9648,button_right_test,0,52,52,165,1
,,,,,,,,,,,,,,,,,199045,18,2022-01-28_17h48.36.594,lexical_decision_task_DD_L2,2021.2.3,Win32,60.01680471,,,,,,,,,,0.8288,1,,,,,,,,,,,,,,,,,,,,,,,0.444444484,-0.338888914,1,0,0,,,,,,,SMOKER,C,m,y,./images/SMOKER.png,,,,,,,,,0,0.444444484,-0.338888914,1,0,0,0.8288,button_right_test,0,53,53,26,1
,,,,,,,,,,,,,,,,,199045,18,2022-01-28_17h48.36.594,lexical_decision_task_DD_L2,2021.2.3,Win32,60.01680471,,,,,,,,,,1.3119,1,,,,,,,,,,,,,,,,,,,,,,,-0.23425924,-0.315740822,1,0,0,,,,,,,SAUCE,HB,z,y,./images/SAUCEHB.png,,,,,,,,,0,-0.23425924,-0.315740822,1,0,0,1.3119,button_left_test,0,54,54,135,1
,,,,,,,,,,,,,,,,,199045,18,2022-01-28_17h48.36.594,lexical_decision_task_DD_L2,2021.2.3,Win32,60.01680471,,,,,,,,,,1.1303,0,,,,,,,,,,,,,,,,,,,,,,,0.475925967,-0.33055558,1,0,0,,,,,,,LAGOON,C,z,y,./images/LAGOON.png,,,,,,,,,0,0.475925967,-0.33055558,1,0,0,1.1303,button_right_test,0,55,55,131,1
,,,,,,,,,,,,,,,,,199045,18,2022-01-28_17h48.36.594,lexical_decision_task_DD_L2,2021.2.3,Win32,60.01680471,,,,,,,,,,0.9312,1,,,,,,,,,,,,,,,,,,,,,,,-0.274999982,-0.327777802,1,0,0,,,,,,,BUBBLE,C,z,y,./images/BUBBLE.png,,,,,,,,,0,-0.274999982,-0.327777802,1,0,0,0.9312,button_left_test,0,56,56,155,1
,,,,,,,,,,,,,,,,,199045,18,2022-01-28_17h48.36.594,lexical_decision_task_DD_L2,2021.2.3,Win32,60.01680471,,,,,,,,,,0.797,1,,,,,,,,,,,,,,,,,,,,,,,0.350000037,-0.316666691,1,0,0,,,,,,,KIDNEY,HB,m,y,./images/KIDNEYHB.png,,,,,,,,,0,0.350000037,-0.316666691,1,0,0,0.797,button_right_test,0,57,57,21,1
,,,,,,,,,,,,,,,,,199045,18,2022-01-28_17h48.36.594,lexical_decision_task_DD_L2,2021.2.3,Win32,60.01680471,,,,,,,,,,0.8286,1,,,,,,,,,,,,,,,,,,,,,,,0.458333373,-0.278703727,1,0,0,,,,,,,GRAIN,HB,m,y,./images/GRAINHB.png,,,,,,,,,0,0.458333373,-0.278703727,1,0,0,0.8286,button_right_test,0,58,58,75,1
,,,,,,,,,,,,,,,,,199045,18,2022-01-28_17h48.36.594,lexical_decision_task_DD_L2,2021.2.3,Win32,60.01680471,,,,,,,,,,0.8449,1,,,,,,,,,,,,,,,,,,,,,,,0.528703746,-0.267592615,1,0,0,,,,,,,FOLDER,HB,m,y,./images/FOLDERHB.png,,,,,,,,,0,0.528703746,-0.267592615,1,0,0,0.8449,button_right_test,0,59,59,42,1
,,,,,,,,,,,,,,,,,199045,18,2022-01-28_17h48.36.594,lexical_decision_task_DD_L2,2021.2.3,Win32,60.01680471,,,,,,,,,,0.8309,1,,,,,,,,,,,,,,,,,,,,,,,-0.342592576,-0.317592617,1,0,0,,,,,,,CLOUD,C,z,y,./images/CLOUD.png,,,,,,,,,0,-0.342592576,-0.317592617,1,0,0,0.8309,button_left_test,0,60,60,110,1
,,,,,,,,,,,,,,,,,199045,18,2022-01-28_17h48.36.594,lexical_decision_task_DD_L2,2021.2.3,Win32,60.01680471,,,,,,,,,,0.7647,1,,,,,,,,,,,,,,,,,,,,,,,0.375000038,-0.258333356,1,0,0,,,,,,,WALRUS,C,m,y,./images/WALRUS.png,,,,,,,,,0,0.375000038,-0.258333356,1,0,0,0.7647,button_right_test,0,61,61,23,1
,,,,,,,,,,,,,,,,,199045,18,2022-01-28_17h48.36.594,lexical_decision_task_DD_L2,2021.2.3,Win32,60.01680471,,,,,,,,,,1.301,0,,,,,,,,,,,,,,,,,,,,,,,-0.408333319,-0.302777802,1,0,0,,,,,,,GREASE,HB,m,y,./images/GREASEHB.png,,,,,,,,,0,-0.408333319,-0.302777802,1,0,0,1.301,button_left_test,0,62,62,15,1
,,,,,,,,,,,,,,,,,199045,18,2022-01-28_17h48.36.594,lexical_decision_task_DD_L2,2021.2.3,Win32,60.01680471,,,,,,,,,,0.8479,1,,,,,,,,,,,,,,,,,,,,,,,0.341666703,-0.327777802,1,0,0,,,,,,,MALLET,C,m,y,./images/MALLET.png,,,,,,,,,0,0.341666703,-0.327777802,1,0,0,0.8479,button_right_test,0,63,63,50,1
,,,,,,,,,,,,,,,,,199045,18,2022-01-28_17h48.36.594,lexical_decision_task_DD_L2,2021.2.3,Win32,60.01680471,,,,,,,,,,1.0313,0,,,,,,,,,,,,,,,,,,,,,,,-0.342592576,-0.293518599,1,0,0,,,,,,,LITTER,HB,m,y,./images/LITTERHB.png,,,,,,,,,0,-0.342592576,-0.293518599,1,0,0,1.0313,button_left_test,0,64,64,78,1
,,,,,,,,,,,,,,,,,199045,18,2022-01-28_17h48.36.594,lexical_decision_task_DD_L2,2021.2.3,Win32,60.01680471,,,,,,,,,,1.1813,1,,,,,,,,,,,,,,,,,,,,,,,-0.35555554,-0.329629711,1,0,0,,,,,,,DESERT,LB,z,y,./images/DESERTLB.png,,,,,,,,,0,-0.35555554,-0.329629711,1,0,0,1.1813,button_left_test,0,65,65,136,1
,,,,,,,,,,,,,,,,,199045,18,2022-01-28_17h48.36.594,lexical_decision_task_DD_L2,2021.2.3,Win32,60.01680471,,,,,,,,,,1.046,1,,,,,,,,,,,,,,,,,,,,,,,-0.420370356,-0.322222247,1,0,0,,,,,,,MUMMY,LB,z,y,./images/MUMMYLB.png,,,,,,,,,0,-0.420370356,-0.322222247,1,0,0,1.046,button_left_test,0,66,66,130,1
,,,,,,,,,,,,,,,,,199045,18,2022-01-28_17h48.36.594,lexical_decision_task_DD_L2,2021.2.3,Win32,60.01680471,,,,,,,,,,1.1816,1,,,,,,,,,,,,,,,,,,,,,,,0.297222258,-0.280555579,1,0,0,,,,,,,BABOON,LB,m,y,./images/BABOONLB.png,,,,,,,,,0,0.297222258,-0.280555579,1,0,0,1.1816,button_right_test,0,67,67,58,1
,,,,,,,,,,,,,,,,,199045,18,2022-01-28_17h48.36.594,lexical_decision_task_DD_L2,2021.2.3,Win32,60.01680471,,,,,,,,,,0.9145,1,,,,,,,,,,,,,,,,,,,,,,,0.495370412,-0.354629712,1,0,0,,,,,,,NOOSE,HB,m,y,./images/NOOSEHB.png,,,,,,,,,0,0.629629675,-0.38333336,1,0,0,0.9145,button_right_test,0,68,68,72,1
,,,,,,,,,,,,,,,,,199045,18,2022-01-28_17h48.36.594,lexical_decision_task_DD_L2,2021.2.3,Win32,60.01680471,,,,,,,,,,0.9148,0,,,,,,,,,,,,,,,,,,,,,,,-0.299074056,-0.321296377,1,0,0,,,,,,,TWINS,HB,m,y,./images/TWINSHB.png,,,,,,,,,0,-0.299074056,-0.321296377,1,0,0,0.9148,button_left_test,0,69,69,60,1
,,,,,,,,,,,,,,,,,199045,18,2022-01-28_17h48.36.594,lexical_decision_task_DD_L2,2021.2.3,Win32,60.01680471,,,,,,,,,,0.8785,1,,,,,,,,,,,,,,,,,,,,,,,0.398148187,-0.324074155,1,0,0,,,,,,,CRADLE,C,m,y,./images/CRADLE.png,,,,,,,,,0,0.398148187,-0.324074155,1,0,0,0.8785,button_right_test,0,70,70,20,1
,,,,,,,,,,,,,,,,,199045,18,2022-01-28_17h48.36.594,lexical_decision_task_DD_L2,2021.2.3,Win32,60.01680471,,,,,,,,,,1.0478,1,,,,,,,,,,,,,,,,,,,,,,,0.312037073,-0.30092595,1,0,0,,,,,,,MOSQUE,LB,m,y,./images/MOSQUELB.png,,,,,,,,,0,0.312037073,-0.30092595,1,0,0,1.0478,button_right_test,0,71,71,43,1
,,,,,,,,,,,,,,,,,199045,18,2022-01-28_17h48.36.594,lexical_decision_task_DD_L2,2021.2.3,Win32,60.01680471,,,,,,,,,,1.248,1,,,,,,,,,,,,,,,,,,,,,,,-0.478703691,-0.28703706,1,0,0,,,,,,,SNAKE,LB,z,y,./images/SNAKELB.png,,,,,,,,,0,-0.478703691,-0.28703706,1,0,0,1.248,button_left_test,0,72,72,124,1
,,,,,,,,,,,,,,,,,199045,18,2022-01-28_17h48.36.594,lexical_decision_task_DD_L2,2021.2.3,Win32,60.01680471,,,,,,,,,,1.0485,1,,,,,,,,,,,,,,,,,,,,,,,0.486111152,-0.334259284,1,0,0,,,,,,,QUILL,LB,m,y,./images/QUILLLB.png,,,,,,,,,0,0.486111152,-0.334259284,1,0,0,1.0485,button_right_test,0,73,73,31,1
,,,,,,,,,,,,,,,,,199045,18,2022-01-28_17h48.36.594,lexical_decision_task_DD_L2,2021.2.3,Win32,60.01680471,,,,,,,,,,1.0291,1,,,,,,,,,,,,,,,,,,,,,,,-0.383333318,-0.320370395,1,0,0,,,,,,,STOOL,LB,z,y,./images/STOOLLB.png,,,,,,,,,0,-0.383333318,-0.320370395,1,0,0,1.0291,button_left_test,0,74,74,127,1
,,,,,,,,,,,,,,,,,199045,18,2022-01-28_17h48.36.594,lexical_decision_task_DD_L2,2021.2.3,Win32,60.01680471,,,,,,,,,,1.1126,1,,,,,,,,,,,,,,,,,,,,,,,-0.292592575,-0.325000025,1,0,0,,,,,,,CLIFF,C,z,y,./images/CLIFF.png,,,,,,,,,0,-0.292592575,-0.325000025,1,0,0,1.1126,button_left_test,0,75,75,92,1
,,,,,,,,,,,,,,,,,199045,18,2022-01-28_17h48.36.594,lexical_decision_task_DD_L2,2021.2.3,Win32,60.01680471,,,,,,,,,,0.9124,1,,,,,,,,,,,,,,,,,,,,,,,-0.358333318,-0.33981484,1,0,0,,,,,,,BRUSH,C,z,y,./images/BRUSH.png,,,,,,,,,0,-0.358333318,-0.33981484,1,0,0,0.9124,button_left_test,0,76,76,143,1
,,,,,,,,,,,,,,,,,199045,18,2022-01-28_17h48.36.594,lexical_decision_task_DD_L2,2021.2.3,Win32,60.01680471,,,,,,,,,,1.0168,1,,,,,,,,,,,,,,,,,,,,,,,0.393518557,-0.307407488,1,0,0,,,,,,,ONION,HB,m,y,./images/ONIONHB.png,,,,,,,,,0,0.393518557,-0.307407488,1,0,0,1.0168,button_right_test,0,77,77,51,1
,,,,,,,,,,,,,,,,,199045,18,2022-01-28_17h48.36.594,lexical_decision_task_DD_L2,2021.2.3,Win32,60.01680471,,,,,,,,,,0.6334,1,,,,,,,,,,,,,,,,,,,,,,,0.387963001,-0.302777802,1,0,0,,,,,,,BARREL,C,m,y,./images/BARREL.png,,,,,,,,,0,0.387963001,-0.302777802,1,0,0,0.6334,button_right_test,0,78,78,32,1
,,,,,,,,,,,,,,,,,199045,18,2022-01-28_17h48.36.594,lexical_decision_task_DD_L2,2021.2.3,Win32,60.01680471,,,,,,,,,,0.8143,1,,,,,,,,,,,,,,,,,,,,,,,-0.320370353,-0.316666691,1,0,0,,,,,,,ARTIST,LB,z,y,./images/ARTISTLB.png,,,,,,,,,0,-0.320370353,-0.316666691,1,0,0,0.8143,button_left_test,0,79,79,145,1
,,,,,,,,,,,,,,,,,199045,18,2022-01-28_17h48.36.594,lexical_decision_task_DD_L2,2021.2.3,Win32,60.01680471,,,,,,,,,,0.7674,1,,,,,,,,,,,,,,,,,,,,,,,-0.352777762,-0.30555558,1,0,0,,,,,,,BOILER,HB,z,y,./images/BOILERHB.png,,,,,,,,,0,-0.352777762,-0.30555558,1,0,0,0.7674,button_left_test,0,80,80,120,1
,,,,,,,,,,,,,,,,,199045,18,2022-01-28_17h48.36.594,lexical_decision_task_DD_L2,2021.2.3,Win32,60.01680471,,,,,,,,,,0.9308,1,,,,,,,,,,,,,,,,,,,,,,,0.282407442,-0.287963043,1,0,0,,,,,,,SCREW,HB,m,y,./images/SCREWHB.png,,,,,,,,,0,0.282407442,-0.287963043,1,0,0,0.9308,button_right_test,0,81,81,24,1
,,,,,,,,,,,,,,,,,199045,18,2022-01-28_17h48.36.594,lexical_decision_task_DD_L2,2021.2.3,Win32,60.01680471,,,,,,,,,,1.1178,1,,,,,,,,,,,,,,,,,,,,,,,0.491666708,-0.276851932,1,0,0,,,,,,,PACKET,C,m,y,./images/PACKET.png,,,,,,,,,0,0.491666708,-0.276851932,1,0,0,1.1178,button_right_test,0,82,82,56,1
,,,,,,,,,,,,,,,,,199045,18,2022-01-28_17h48.36.594,lexical_decision_task_DD_L2,2021.2.3,Win32,60.01680471,,,,,,,,,,1.3981,1,,,,,,,,,,,,,,,,,,,,,,,-0.061111086,-0.410185269,1,0,0,,,,,,,CURRY,HB,z,y,./images/CURRYHB.png,break_done_button,,,,,,,,0,-0.437037024,-0.287963043,1,0,0,1.3981,button_left_test,0,83,83,144,1
,,,,,,,,,,,,,,,,,199045,18,2022-01-28_17h48.36.594,lexical_decision_task_DD_L2,2021.2.3,Win32,60.01680471,,,,,,,,,,1.1145,1,,,,,,,,,,,,,,,,,,,,,,,0.513888931,-0.282407487,1,0,0,,,,,,,PICKLE,C,m,y,./images/PICKLE.png,,,,,,,,,0,0.513888931,-0.282407487,1,0,0,1.1145,button_right_test,0,84,84,14,1
,,,,,,,,,,,,,,,,,199045,18,2022-01-28_17h48.36.594,lexical_decision_task_DD_L2,2021.2.3,Win32,60.01680471,,,,,,,,,,0.7345,1,,,,,,,,,,,,,,,,,,,,,,,0.203703736,-0.328703728,1,0,0,,,,,,,PEARL,LB,m,y,./images/PEARLLB.png,,,,,,,,,0,0.203703736,-0.328703728,1,0,0,0.7345,button_right_test,0,85,85,46,1
,,,,,,,,,,,,,,,,,199045,18,2022-01-28_17h48.36.594,lexical_decision_task_DD_L2,2021.2.3,Win32,60.01680471,,,,,,,,,,0.9119,1,,,,,,,,,,,,,,,,,,,,,,,-0.298148131,-0.333333358,1,0,0,,,,,,,SPINE,C,z,y,./images/SPINE.png,,,,,,,,,0,-0.436111098,-0.409259286,1,0,0,0.9119,button_left_test,0,86,86,149,1
,,,,,,,,,,,,,,,,,199045,18,2022-01-28_17h48.36.594,lexical_decision_task_DD_L2,2021.2.3,Win32,60.01680471,,,,,,,,,,1.014,1,,,,,,,,,,,,,,,,,,,,,,,-0.333333317,-0.311111135,1,0,0,,,,,,,BUTTER,HB,z,y,./images/BUTTERHB.png,,,,,,,,,0,-0.333333317,-0.311111135,1,0,0,1.014,button_left_test,0,87,87,111,1
,,,,,,,,,,,,,,,,,199045,18,2022-01-28_17h48.36.594,lexical_decision_task_DD_L2,2021.2.3,Win32,60.01680471,,,,,,,,,,0.8315,1,,,,,,,,,,,,,,,,,,,,,,,-0.333333317,-0.280555579,1,0,0,,,,,,,WALNUT,HB,z,y,./images/WALNUTHB.png,,,,,,,,,0,-0.333333317,-0.280555579,1,0,0,0.8315,button_left_test,0,88,88,84,1
,,,,,,,,,,,,,,,,,199045,18,2022-01-28_17h48.36.594,lexical_decision_task_DD_L2,2021.2.3,Win32,60.01680471,,,,,,,,,,0.8144,1,,,,,,,,,,,,,,,,,,,,,,,0.359259296,-0.350925951,1,0,0,,,,,,,MOOSE,HB,m,y,./images/MOOSEHB.png,,,,,,,,,0,0.359259296,-0.350925951,1,0,0,0.8144,button_right_test,0,89,89,57,1
,,,,,,,,,,,,,,,,,199045,18,2022-01-28_17h48.36.594,lexical_decision_task_DD_L2,2021.2.3,Win32,60.01680471,,,,,,,,,,0.8982,1,,,,,,,,,,,,,,,,,,,,,,,-0.356481466,-0.323148173,1,0,0,,,,,,,SHIELD,HB,z,y,./images/SHIELDHB.png,,,,,,,,,0,-0.356481466,-0.323148173,1,0,0,0.8982,button_left_test,0,90,90,132,1
,,,,,,,,,,,,,,,,,199045,18,2022-01-28_17h48.36.594,lexical_decision_task_DD_L2,2021.2.3,Win32,60.01680471,,,,,,,,,,0.8638,1,,,,,,,,,,,,,,,,,,,,,,,0.425000039,-0.315740822,1,0,0,,,,,,,BONNET,C,m,y,./images/BONNET.png,,,,,,,,,0,0.425000039,-0.315740822,1,0,0,0.8638,button_right_test,0,91,91,11,1
,,,,,,,,,,,,,,,,,199045,18,2022-01-28_17h48.36.594,lexical_decision_task_DD_L2,2021.2.3,Win32,60.01680471,,,,,,,,,,0.9509,0,,,,,,,,,,,,,,,,,,,,,,,0.318518555,-0.294444468,1,0,0,,,,,,,HAMMER,HB,z,y,./images/HAMMERHB.png,,,,,,,,,0,0.318518555,-0.294444468,1,0,0,0.9509,button_right_test,0,92,92,159,1
,,,,,,,,,,,,,,,,,199045,18,2022-01-28_17h48.36.594,lexical_decision_task_DD_L2,2021.2.3,Win32,60.01680471,,,,,,,,,,0.9815,1,,,,,,,,,,,,,,,,,,,,,,,-0.215740721,-0.319444469,1,0,0,,,,,,,BANANA,LB,z,y,./images/BANANALB.png,,,,,,,,,0,-0.215740721,-0.319444469,1,0,0,0.9815,button_left_test,0,93,93,154,1
,,,,,,,,,,,,,,,,,199045,18,2022-01-28_17h48.36.594,lexical_decision_task_DD_L2,2021.2.3,Win32,60.01680471,,,,,,,,,,1.262,1,,,,,,,,,,,,,,,,,,,,,,,0.380555593,-0.294444468,1,0,0,,,,,,,FALCON,LB,m,y,./images/FALCONLB.png,,,,,,,,,0,0.380555593,-0.294444468,1,0,0,1.262,button_right_test,0,94,94,28,1
,,,,,,,,,,,,,,,,,199045,18,2022-01-28_17h48.36.594,lexical_decision_task_DD_L2,2021.2.3,Win32,60.01680471,,,,,,,,,,1.112,0,,,,,,,,,,,,,,,,,,,,,,,-0.440740699,-0.279629709,1,0,0,,,,,,,FARMER,C,m,y,./images/FARMER.png,,,,,,,,,0,-0.440740699,-0.279629709,1,0,0,1.112,button_left_test,0,95,95,65,1
,,,,,,,,,,,,,,,,,199045,18,2022-01-28_17h48.36.594,lexical_decision_task_DD_L2,2021.2.3,Win32,60.01680471,,,,,,,,,,1.3787,1,,,,,,,,,,,,,,,,,,,,,,,0.284259294,-0.294444468,1,0,0,,,,,,,MUFFIN,LB,m,y,./images/MUFFINLB.png,,,,,,,,,0,0.284259294,-0.294444468,1,0,0,1.3787,button_right_test,0,96,96,55,1
,,,,,,,,,,,,,,,,,199045,18,2022-01-28_17h48.36.594,lexical_decision_task_DD_L2,2021.2.3,Win32,60.01680471,,,,,,,,,,0.8802,1,,,,,,,,,,,,,,,,,,,,,,,-0.243518499,-0.297222246,1,0,0,,,,,,,GARDEN,LB,z,y,./images/GARDENLB.png,,,,,,,,,0,-0.243518499,-0.297222246,1,0,0,0.8802,button_left_test,0,97,97,94,1
,,,,,,,,,,,,,,,,,199045,18,2022-01-28_17h48.36.594,lexical_decision_task_DD_L2,2021.2.3,Win32,60.01680471,,,,,,,,,,1.3647,1,,,,,,,,,,,,,,,,,,,,,,,0.446296336,-0.296296377,1,0,0,,,,,,,BIRTH,LB,m,y,./images/BIRTHLB.png,,,,,,,,,0,0.446296336,-0.296296377,1,0,0,1.3647,button_right_test,0,98,98,37,1
,,,,,,,,,,,,,,,,,199045,18,2022-01-28_17h48.36.594,lexical_decision_task_DD_L2,2021.2.3,Win32,60.01680471,,,,,,,,,,0.9155,1,,,,,,,,,,,,,,,,,,,,,,,-0.358333318,-0.308333357,1,0,0,,,,,,,MIDGET,LB,z,y,./images/MIDGETLB.png,,,,,,,,,0,-0.358333318,-0.308333357,1,0,0,0.9155,button_left_test,0,99,99,160,1
,,,,,,,,,,,,,,,,,199045,18,2022-01-28_17h48.36.594,lexical_decision_task_DD_L2,2021.2.3,Win32,60.01680471,,,,,,,,,,1.9811,1,,,,,,,,,,,,,,,,,,,,,,,0.257407442,-0.309259283,1,0,0,,,,,,,SKIING,C,m,y,./images/SKIING.png,,,,,,,,,0,0.257407442,-0.309259283,1,0,0,1.9811,button_right_test,0,100,100,17,1
,,,,,,,,,,,,,,,,,199045,18,2022-01-28_17h48.36.594,lexical_decision_task_DD_L2,2021.2.3,Win32,60.01680471,,,,,,,,,,4.3978,1,,,,,,,,,,,,,,,,,,,,,,,0.51851856,-0.33055558,1,0,0,,,,,,,LIZARD,C,m,y,./images/LIZARD.png,,,,,,,,,0,0.51851856,-0.33055558,1,0,0,4.3978,button_right_test,0,101,101,44,1
,,,,,,,,,,,,,,,,,199045,18,2022-01-28_17h48.36.594,lexical_decision_task_DD_L2,2021.2.3,Win32,60.01680471,,,,,,,,,,1.0813,1,,,,,,,,,,,,,,,,,,,,,,,-0.368518503,-0.317592617,1,0,0,,,,,,,ARROW,HB,z,y,./images/ARROWHB.png,,,,,,,,,0,-0.368518503,-0.317592617,1,0,0,1.0813,button_left_test,0,102,102,153,1
,,,,,,,,,,,,,,,,,199045,18,2022-01-28_17h48.36.594,lexical_decision_task_DD_L2,2021.2.3,Win32,60.01680471,,,,,,,,,,0.9288,1,,,,,,,,,,,,,,,,,,,,,,,0.424074113,-0.316666691,1,0,0,,,,,,,TRIPOD,HB,m,y,./images/TRIPODHB.png,,,,,,,,,0,0.424074113,-0.316666691,1,0,0,0.9288,button_right_test,0,103,103,54,1
,,,,,,,,,,,,,,,,,199045,18,2022-01-28_17h48.36.594,lexical_decision_task_DD_L2,2021.2.3,Win32,60.01680471,,,,,,,,,,0.982,1,,,,,,,,,,,,,,,,,,,,,,,0.481481522,-0.315740822,1,0,0,,,,,,,SHELF,HB,m,y,./images/SHELFHB.png,,,,,,,,,0,0.481481522,-0.315740822,1,0,0,0.982,button_right_test,0,104,104,39,1
,,,,,,,,,,,,,,,,,199045,18,2022-01-28_17h48.36.594,lexical_decision_task_DD_L2,2021.2.3,Win32,60.01680471,,,,,,,,,,0.9813,1,,,,,,,,,,,,,,,,,,,,,,,-0.34166665,-0.314814839,1,0,0,,,,,,,CANOE,LB,z,y,./images/CANOELB.png,,,,,,,,,0,-0.34166665,-0.314814839,1,0,0,0.9813,button_left_test,0,105,105,142,1
,,,,,,,,,,,,,,,,,199045,18,2022-01-28_17h48.36.594,lexical_decision_task_DD_L2,2021.2.3,Win32,60.01680471,,,,,,,,,,0.8147,1,,,,,,,,,,,,,,,,,,,,,,,0.389814853,-0.375000026,1,0,0,,,,,,,COUCH,C,m,y,./images/COUCH.png,,,,,,,,,0,0.389814853,-0.375000026,1,0,0,0.8147,button_right_test,0,106,106,77,1
,,,,,,,,,,,,,,,,,199045,18,2022-01-28_17h48.36.594,lexical_decision_task_DD_L2,2021.2.3,Win32,60.01680471,,,,,,,,,,0.9816,1,,,,,,,,,,,,,,,,,,,,,,,0.361111148,-0.366666692,1,0,0,,,,,,,CEMENT,C,m,y,./images/CEMENT.png,,,,,,,,,0,0.361111148,-0.366666692,1,0,0,0.9816,button_right_test,0,107,107,74,1
,,,,,,,,,,,,,,,,,199045,18,2022-01-28_17h48.36.594,lexical_decision_task_DD_L2,2021.2.3,Win32,60.01680471,,,,,,,,,,0.9308,1,,,,,,,,,,,,,,,,,,,,,,,0.361111148,-0.366666692,1,0,0,,,,,,,FINGER,HB,m,y,./images/FINGERHB.png,,,,,,,,,0,0.361111148,-0.366666692,1,0,0,0.9308,button_right_test,0,108,108,3,1
,,,,,,,,,,,,,,,,,199045,18,2022-01-28_17h48.36.594,lexical_decision_task_DD_L2,2021.2.3,Win32,60.01680471,,,,,,,,,,1.0815,1,,,,,,,,,,,,,,,,,,,,,,,-0.509259248,-0.309259283,1,0,0,,,,,,,BUNNY,LB,z,y,./images/BUNNYLB.png,,,,,,,,,0,-0.509259248,-0.309259283,1,0,0,1.0815,button_left_test,0,109,109,97,1
,,,,,,,,,,,,,,,,,199045,18,2022-01-28_17h48.36.594,lexical_decision_task_DD_L2,2021.2.3,Win32,60.01680471,,,,,,,,,,0.9955,0,,,,,,,,,,,,,,,,,,,,,,,-0.446296255,-0.329629711,1,0,0,,,,,,,SPORT,HB,m,y,./images/SPORTHB.png,,,,,,,,,0,-0.446296255,-0.329629711,1,0,0,0.9955,button_left_test,0,110,110,48,1
,,,,,,,,,,,,,,,,,199045,18,2022-01-28_17h48.36.594,lexical_decision_task_DD_L2,2021.2.3,Win32,60.01680471,,,,,,,,,,0.7144,0,,,,,,,,,,,,,,,,,,,,,,,0.325000036,-0.295370394,1,0,0,,,,,,,BROOM,HB,z,y,./images/BROOMHB.png,,,,,,,,,0,0.325000036,-0.295370394,1,0,0,0.7144,button_right_test,0,111,111,162,1
,,,,,,,,,,,,,,,,,199045,18,2022-01-28_17h48.36.594,lexical_decision_task_DD_L2,2021.2.3,Win32,60.01680471,,,,,,,,,,2.2643,1,,,,,,,,,,,,,,,,,,,,,,,-0.513888878,-0.289814838,1,0,0,,,,,,,COLLAR,HB,z,y,./images/COLLARHB.png,,,,,,,,,0,-0.513888878,-0.289814838,1,0,0,2.2643,button_left_test,0,112,112,99,1
,,,,,,,,,,,,,,,,,199045,18,2022-01-28_17h48.36.594,lexical_decision_task_DD_L2,2021.2.3,Win32,60.01680471,,,,,,,,,,0.6509,1,,,,,,,,,,,,,,,,,,,,,,,0.335185222,-0.316666691,1,0,0,,,,,,,MUSCLE,LB,m,y,./images/MUSCLELB.png,,,,,,,,,0,0.335185222,-0.316666691,1,0,0,0.6509,button_right_test,0,113,113,4,1
,,,,,,,,,,,,,,,,,199045,18,2022-01-28_17h48.36.594,lexical_decision_task_DD_L2,2021.2.3,Win32,60.01680471,,,,,,,,,,1.5512,0,,,,,,,,,,,,,,,,,,,,,,,0.336111148,-0.310185266,1,0,0,,,,,,,DIVER,HB,z,y,./images/DIVERHB.png,,,,,,,,,0,0.336111148,-0.310185266,1,0,0,1.5512,button_right_test,0,114,114,93,1
,,,,,,,,,,,,,,,,,199045,18,2022-01-28_17h48.36.594,lexical_decision_task_DD_L2,2021.2.3,Win32,60.01680471,,,,,,,,,,0.8282,1,,,,,,,,,,,,,,,,,,,,,,,0.300925961,-0.262963042,1,0,0,,,,,,,SHORE,HB,m,y,./images/SHOREHB.png,,,,,,,,,0,0.300925961,-0.262963042,1,0,0,0.8282,button_right_test,0,115,115,12,1
,,,,,,,,,,,,,,,,,199045,18,2022-01-28_17h48.36.594,lexical_decision_task_DD_L2,2021.2.3,Win32,60.01680471,,,,,,,,,,0.8505,0,,,,,,,,,,,,,,,,,,,,,,,0.45462967,-0.267592615,1,0,0,,,,,,,BOXER,LB,z,y,./images/BOXERLB.png,,,,,,,,,0,0.45462967,-0.267592615,1,0,0,0.8505,button_right_test,0,116,116,88,1
,,,,,,,,,,,,,,,,,199045,18,2022-01-28_17h48.36.594,lexical_decision_task_DD_L2,2021.2.3,Win32,60.01680471,,,,,,,,,,0.7308,1,,,,,,,,,,,,,,,,,,,,,,,0.402777816,-0.279629709,1,0,0,,,,,,,URINE,LB,m,y,./images/URINELB.png,,,,,,,,,0,0.402777816,-0.279629709,1,0,0,0.7308,button_right_test,0,117,117,70,1
,,,,,,,,,,,,,,,,,199045,18,2022-01-28_17h48.36.594,lexical_decision_task_DD_L2,2021.2.3,Win32,60.01680471,,,,,,,,,,1.5142,0,,,,,,,,,,,,,,,,,,,,,,,-0.435185143,-0.274074154,1,0,0,,,,,,,MOTOR,LB,m,y,./images/MOTORLB.png,,,,,,,,,0,-0.435185143,-0.274074154,1,0,0,1.5142,button_left_test,0,118,118,13,1
,,,,,,,,,,,,,,,,,199045,18,2022-01-28_17h48.36.594,lexical_decision_task_DD_L2,2021.2.3,Win32,60.01680471,,,,,,,,,,1.1169,0,,,,,,,,,,,,,,,,,,,,,,,0.272222257,-0.279629709,1,0,0,,,,,,,WHEEL,C,z,y,./images/WHEEL.png,,,,,,,,,0,0.272222257,-0.279629709,1,0,0,1.1169,button_right_test,0,119,119,161,1
,,,,,,,,,,,,,,,,,199045,18,2022-01-28_17h48.36.594,lexical_decision_task_DD_L2,2021.2.3,Win32,60.01680471,,,,,,,,,,1.1317,1,,,,,,,,,,,,,,,,,,,,,,,-0.441666653,-0.283333357,1,0,0,,,,,,,HEATER,C,z,y,./images/HEATER.png,,,,,,,,,0,-0.441666653,-0.283333357,1,0,0,1.1317,button_left_test,0,120,120,140,1
,,,,,,,,,,,,,,,,,199045,18,2022-01-28_17h48.36.594,lexical_decision_task_DD_L2,2021.2.3,Win32,60.01680471,,,,,,,,,,0.9648,0,,,,,,,,,,,,,,,,,,,,,,,0.242592626,-0.296296377,1,0,0,,,,,,,RAZOR,LB,z,y,./images/RAZORLB.png,,,,,,,,,0,0.242592626,-0.296296377,1,0,0,0.9648,button_right_test,0,121,121,118,1
,,,,,,,,,,,,,,,,,199045,18,2022-01-28_17h48.36.594,lexical_decision_task_DD_L2,2021.2.3,Win32,60.01680471,,,,,,,,,,1.001,0,,,,,,,,,,,,,,,,,,,,,,,-0.23888887,-0.275000023,1,0,0,,,,,,,SUNSET,LB,m,y,./images/SUNSETLB.png,,,,,,,,,0,-0.23888887,-0.275000023,1,0,0,1.001,button_left_test,0,122,122,82,1
,,,,,,,,,,,,,,,,,199045,18,2022-01-28_17h48.36.594,lexical_decision_task_DD_L2,2021.2.3,Win32,60.01680471,,,,,,,,,,1.0648,0,,,,,,,,,,,,,,,,,,,,,,,-0.23888887,-0.275925949,1,0,0,,,,,,,PURSE,C,m,y,./images/PURSE.png,,,,,,,,,0,-0.23888887,-0.275925949,1,0,0,1.0648,button_left_test,0,123,123,62,1
,,,,,,,,,,,,,,,,,199045,18,2022-01-28_17h48.36.594,lexical_decision_task_DD_L2,2021.2.3,Win32,60.01680471,,,,,,,,,,0.8816,1,,,,,,,,,,,,,,,,,,,,,,,0.594444489,-0.293518599,1,0,0,,,,,,,WRIST,LB,m,y,./images/WRISTLB.png,,,,,,,,,0,0.594444489,-0.293518599,1,0,0,0.8816,button_right_test,0,124,124,25,1
,,,,,,,,,,,,,,,,,199045,18,2022-01-28_17h48.36.594,lexical_decision_task_DD_L2,2021.2.3,Win32,60.01680471,,,,,,,,,,0.764,1,,,,,,,,,,,,,,,,,,,,,,,0.079629658,-0.440740825,1,0,0,,,,,,,PASTA,C,m,y,./images/PASTA.png,break_done_button,,,,,,,,0,0.290740776,-0.277777801,1,0,0,0.764,button_right_test,0,125,125,5,1
,,,,,,,,,,,,,,,,,199045,18,2022-01-28_17h48.36.594,lexical_decision_task_DD_L2,2021.2.3,Win32,60.01680471,,,,,,,,,,0.9812,0,,,,,,,,,,,,,,,,,,,,,,,-0.404629615,-0.312037061,1,0,0,,,,,,,DRUMS,LB,m,y,./images/DRUMSLB.png,,,,,,,,,0,-0.404629615,-0.312037061,1,0,0,0.9812,button_left_test,0,126,126,49,1
,,,,,,,,,,,,,,,,,199045,18,2022-01-28_17h48.36.594,lexical_decision_task_DD_L2,2021.2.3,Win32,60.01680471,,,,,,,,,,1.0483,0,,,,,,,,,,,,,,,,,,,,,,,0.512037079,-0.311111135,1,0,0,,,,,,,FLASK,HB,z,y,./images/FLASKHB.png,,,,,,,,,0,0.512037079,-0.311111135,1,0,0,1.0483,button_right_test,0,127,127,156,1
,,,,,,,,,,,,,,,,,199045,18,2022-01-28_17h48.36.594,lexical_decision_task_DD_L2,2021.2.3,Win32,60.01680471,,,,,,,,,,0.8004,1,,,,,,,,,,,,,,,,,,,,,,,0.251851886,-0.294444468,1,0,0,,,,,,,JELLY,LB,m,y,./images/JELLYLB.png,,,,,,,,,0,0.251851886,-0.294444468,1,0,0,0.8004,button_right_test,0,128,128,64,1
