key_resp.keys,key_resp.rt,instr_done_touch.x,instr_done_touch.y,instr_done_touch.leftButton,instr_done_touch.midButton,instr_done_touch.rightButton,instruction_pages.thisRepN,instruction_pages.thisTrialN,instruction_pages.thisN,instruction_pages.thisIndex,instruction_pages.ran,pageN,phase,instruct_text,has_image,instruct_image,participant,age,date,expName,psychopyVersion,OS,frameRate,response.keys,response.corr,response.rt,touch_resp.x,touch_resp.y,touch_resp.leftButton,touch_resp.midButton,touch_resp.rightButton,touch_resp.time,touch_resp.clicked_name,rt,corr,practrials.thisRepN,practrials.thisTrialN,practrials.thisN,practrials.thisIndex,practrials.ran,TrialID,Target,corrAns,end_of_practice_trials_pages.thisRepN,end_of_practice_trials_pages.thisTrialN,end_of_practice_trials_pages.thisN,end_of_practice_trials_pages.thisIndex,end_of_practice_trials_pages.ran,key_resp_2.keys,key_resp_2.corr,key_resp_2.rt,targ_click.x,targ_click.y,targ_click.leftButton,targ_click.midButton,targ_click.rightButton,targ_click.time,targ_click.clicked_name,break_done_touch.x,break_done_touch.y,break_done_touch.leftButton,break_done_touch.midButton,break_done_touch.rightButton,break_done_keyboard.keys,maintrials.thisRepN,maintrials.thisTrialN,maintrials.thisN,maintrials.thisIndex,maintrials.ran,string,blur,study,lex,stim_path,break_done_keyboard.rt,test_instructions.thisRepN,test_instructions.thisTrialN,test_instructions.thisN,test_instructions.thisIndex,test_instructions.ran,instr_done_touch.clicked_name,key_resp_3.keys,key_resp_3.corr,key_resp_3.rt,test_click.x,test_click.y,test_click.leftButton,test_click.midButton,test_click.rightButton,test_click.time,test_click.clicked_name,test_phase.thisRepN,test_phase.thisTrialN,test_phase.thisN,test_phase.thisIndex,test_phase.ran
space,34.9119,0.661400475,0.021759256,0,0,0,0,0,0,0,1,1,instructions,"INSTRUCTIONS
At the start of each trial, look at the plus sign  (+) in the center of the screen.  This tells you that a trial is about to begin and where to look. Second, the plus sign will disappear and a string of letters will appear. Your task is to determine if the string of letters is a word or not. If the item is a word press the M key (on keyboard)  or touch the word button (phone/tablet).  If the item is not a word,  press the  Z key (on keyboard)  or touch the nonword button (on phone/tablet). 
Press the space bar or touch  continue.",0,,199096,21,2022-01-28_18h10.56.295,lexical_decision_task_DD_L2,2021.2.3,Win32,59.97361161,,,,,,,,,,,,,,,,,,,,,,,,,,,,,,,,,,,,,,,,,,,,,,,,,,,,,,,,,,,,,,,,,,,,,,,,,
space,3.3591,0.661400475,0.021759256,0,0,0,0,1,1,1,1,2,instructions,"If your device has a keyboard, press the 'Z' key for nonwords and the 'M' key for words.





Press the space bar or touch the button below to continue.",0,keyboard-example.gif,199096,21,2022-01-28_18h10.56.295,lexical_decision_task_DD_L2,2021.2.3,Win32,59.97361161,,,,,,,,,,,,,,,,,,,,,,,,,,,,,,,,,,,,,,,,,,,,,,,,,,,,,,,,,,,,,,,,,,,,,,,,,
space,1.8483,0.661400475,0.021759256,0,0,0,0,2,2,2,1,3,instructions,"If you are using a touchscreen only device, use the buttons on the screen. Do not use the mouse.





Press the space bar or touch the button below to continue.",0,touchscreen-example.gif,199096,21,2022-01-28_18h10.56.295,lexical_decision_task_DD_L2,2021.2.3,Win32,59.97361161,,,,,,,,,,,,,,,,,,,,,,,,,,,,,,,,,,,,,,,,,,,,,,,,,,,,,,,,,,,,,,,,,,,,,,,,,
space,11.717,0.661400475,0.021759256,0,0,0,0,3,3,3,1,4,instructions,"It is very important that you respond as quickly and accurately as possible, as each letter string will only be on the screen for two seconds. If you do not respond within this time, the message 'Too slow!' will be displayed and the experiment will progress to the next letter string. The first 20 trials will be practice trials and you will receive feedback on your answers. 

Press the space bar or touch the button below to start the practice trials.",0,,199096,21,2022-01-28_18h10.56.295,lexical_decision_task_DD_L2,2021.2.3,Win32,59.97361161,,,,,,,,,,,,,,,,,,,,,,,,,,,,,,,,,,,,,,,,,,,,,,,,,,,,,,,,,,,,,,,,,,,,,,,,,
,,,,,,,,,,,,,,,,,199096,21,2022-01-28_18h10.56.295,lexical_decision_task_DD_L2,2021.2.3,Win32,59.97361161,z,1,1.1426,,,,,,,,1.1426,1,0,0,0,10,1,1001,INLADE,z,,,,,,,,,,,,,,,,,,,,,,,,,,,,,,,,,,,,,,,,,,,,,,,,,,,,,
,,,,,,,,,,,,,,,,,199096,21,2022-01-28_18h10.56.295,lexical_decision_task_DD_L2,2021.2.3,Win32,59.97361161,m,1,0.6987,,,,,,,,0.6987,1,0,1,1,7,1,1001,VOLUME,m,,,,,,,,,,,,,,,,,,,,,,,,,,,,,,,,,,,,,,,,,,,,,,,,,,,,,
,,,,,,,,,,,,,,,,,199096,21,2022-01-28_18h10.56.295,lexical_decision_task_DD_L2,2021.2.3,Win32,59.97361161,z,1,1.1561,,,,,,,,1.1561,1,0,2,2,9,1,1001,FARINY,z,,,,,,,,,,,,,,,,,,,,,,,,,,,,,,,,,,,,,,,,,,,,,,,,,,,,,
,,,,,,,,,,,,,,,,,199096,21,2022-01-28_18h10.56.295,lexical_decision_task_DD_L2,2021.2.3,Win32,59.97361161,z,1,0.9985,,,,,,,,0.9985,1,0,3,3,12,1,1001,SPRINY,z,,,,,,,,,,,,,,,,,,,,,,,,,,,,,,,,,,,,,,,,,,,,,,,,,,,,,
,,,,,,,,,,,,,,,,,199096,21,2022-01-28_18h10.56.295,lexical_decision_task_DD_L2,2021.2.3,Win32,59.97361161,z,1,0.95,,,,,,,,0.95,1,0,4,4,8,1,1001,ASLERT,z,,,,,,,,,,,,,,,,,,,,,,,,,,,,,,,,,,,,,,,,,,,,,,,,,,,,,
,,,,,,,,,,,,,,,,,199096,21,2022-01-28_18h10.56.295,lexical_decision_task_DD_L2,2021.2.3,Win32,59.97361161,m,1,0.659,,,,,,,,0.659,1,0,5,5,2,1,1001,ALMOND,m,,,,,,,,,,,,,,,,,,,,,,,,,,,,,,,,,,,,,,,,,,,,,,,,,,,,,
,,,,,,,,,,,,,,,,,199096,21,2022-01-28_18h10.56.295,lexical_decision_task_DD_L2,2021.2.3,Win32,59.97361161,m,1,0.5552,,,,,,,,0.5552,1,0,6,6,4,1,1001,SQUEAK,m,,,,,,,,,,,,,,,,,,,,,,,,,,,,,,,,,,,,,,,,,,,,,,,,,,,,,
,,,,,,,,,,,,,,,,,199096,21,2022-01-28_18h10.56.295,lexical_decision_task_DD_L2,2021.2.3,Win32,59.97361161,z,1,1.0168,,,,,,,,1.0168,1,0,7,7,15,1,1001,WHAISE,z,,,,,,,,,,,,,,,,,,,,,,,,,,,,,,,,,,,,,,,,,,,,,,,,,,,,,
,,,,,,,,,,,,,,,,,199096,21,2022-01-28_18h10.56.295,lexical_decision_task_DD_L2,2021.2.3,Win32,59.97361161,m,1,0.9162,,,,,,,,0.9162,1,0,8,8,1,1,1001,ADJUST,m,,,,,,,,,,,,,,,,,,,,,,,,,,,,,,,,,,,,,,,,,,,,,,,,,,,,,
,,,,,,,,,,,,,,,,,199096,21,2022-01-28_18h10.56.295,lexical_decision_task_DD_L2,2021.2.3,Win32,59.97361161,z,1,0.7969,,,,,,,,0.7969,1,0,9,9,11,1,1001,RASHET,z,,,,,,,,,,,,,,,,,,,,,,,,,,,,,,,,,,,,,,,,,,,,,,,,,,,,,
,,,,,,,,,,,,,,,,,199096,21,2022-01-28_18h10.56.295,lexical_decision_task_DD_L2,2021.2.3,Win32,59.97361161,m,1,0.6785,,,,,,,,0.6785,1,0,10,10,0,1,1001,UTOPIA,m,,,,,,,,,,,,,,,,,,,,,,,,,,,,,,,,,,,,,,,,,,,,,,,,,,,,,
,,,,,,,,,,,,,,,,,199096,21,2022-01-28_18h10.56.295,lexical_decision_task_DD_L2,2021.2.3,Win32,59.97361161,m,1,0.5503,,,,,,,,0.5503,1,0,11,11,6,1,1001,ZOMBIE,m,,,,,,,,,,,,,,,,,,,,,,,,,,,,,,,,,,,,,,,,,,,,,,,,,,,,,
,,,,,,,,,,,,,,,,,199096,21,2022-01-28_18h10.56.295,lexical_decision_task_DD_L2,2021.2.3,Win32,59.97361161,m,0,0.8925,,,,,,,,0.8925,0,0,12,12,13,1,1001,ROUPET,z,,,,,,,,,,,,,,,,,,,,,,,,,,,,,,,,,,,,,,,,,,,,,,,,,,,,,
,,,,,,,,,,,,,,,,,199096,21,2022-01-28_18h10.56.295,lexical_decision_task_DD_L2,2021.2.3,Win32,59.97361161,m,1,0.9245,,,,,,,,0.9245,1,0,13,13,5,1,1001,OBTAIN,m,,,,,,,,,,,,,,,,,,,,,,,,,,,,,,,,,,,,,,,,,,,,,,,,,,,,,
,,,,,,,,,,,,,,,,,199096,21,2022-01-28_18h10.56.295,lexical_decision_task_DD_L2,2021.2.3,Win32,59.97361161,m,1,0.5665,,,,,,,,0.5665,1,0,14,14,3,1,1001,MATRIX,m,,,,,,,,,,,,,,,,,,,,,,,,,,,,,,,,,,,,,,,,,,,,,,,,,,,,,
,,,,,,,,,,,,,,,,,199096,21,2022-01-28_18h10.56.295,lexical_decision_task_DD_L2,2021.2.3,Win32,59.97361161,z,1,0.808,,,,,,,,0.808,1,0,15,15,14,1,1001,THRALE,z,,,,,,,,,,,,,,,,,,,,,,,,,,,,,,,,,,,,,,,,,,,,,,,,,,,,,
space,10.8114,0.661400475,0.021759256,0,0,0,,,,,,1,end_of_practice,"You have completed the practice trials. During the experimental trials, you will not receive feedback. 
Before you begin, please ensure that you are in a comfortable and quiet location and will not be disturbed for about 15 minutes, as we cannot use your data if you do not complete all the trials. 
 When you are ready to start the experimental trials, please press space or touch the button below.",,,199096,21,2022-01-28_18h10.56.295,lexical_decision_task_DD_L2,2021.2.3,Win32,59.97361161,,,,,,,,,,,,,,,,,,,,,0,0,0,0,1,,,,,,,,,,,,,,,,,,,,,,,,,,,,,,,,,,,,,,,,,,,,,,,,
,,,,,,,,,,,,,,,,,199096,21,2022-01-28_18h10.56.295,lexical_decision_task_DD_L2,2021.2.3,Win32,59.97361161,,,,,,,,,,,1.3467,1,,,,,,,,,,,,,,z,1,1.3467,,,,,,,,0.661400475,0.021759256,0,0,0,,0,0,0,133,1,POWDY,HB,old,z,./images/POWDYHB.png,,,,,,,,,,,,,,,,,,,,,,
,,,,,,,,,,,,,,,,,199096,21,2022-01-28_18h10.56.295,lexical_decision_task_DD_L2,2021.2.3,Win32,59.97361161,,,,,,,,,,,0.8558,1,,,,,,,,,,,,,,z,1,0.8558,,,,,,,,0.661400475,0.021759256,0,0,0,,0,1,1,153,1,CLUPS,C,old,z,./images/CLUPS.png,,,,,,,,,,,,,,,,,,,,,,
,,,,,,,,,,,,,,,,,199096,21,2022-01-28_18h10.56.295,lexical_decision_task_DD_L2,2021.2.3,Win32,59.97361161,,,,,,,,,,,0.6069,1,,,,,,,,,,,,,,m,1,0.6069,,,,,,,,0.661400475,0.021759256,0,0,0,,0,2,2,76,1,INFANT,LB,old,m,./images/INFANTLB.png,,,,,,,,,,,,,,,,,,,,,,
,,,,,,,,,,,,,,,,,199096,21,2022-01-28_18h10.56.295,lexical_decision_task_DD_L2,2021.2.3,Win32,59.97361161,,,,,,,,,,,0.7184,1,,,,,,,,,,,,,,m,1,0.7184,,,,,,,,0.661400475,0.021759256,0,0,0,,0,3,3,78,1,LITTER,HB,old,m,./images/LITTERHB.png,,,,,,,,,,,,,,,,,,,,,,
,,,,,,,,,,,,,,,,,199096,21,2022-01-28_18h10.56.295,lexical_decision_task_DD_L2,2021.2.3,Win32,59.97361161,,,,,,,,,,,1.2094,1,,,,,,,,,,,,,,z,1,1.2094,,,,,,,,0.661400475,0.021759256,0,0,0,,0,4,4,121,1,CEERS,HB,old,z,./images/CEERSHB.png,,,,,,,,,,,,,,,,,,,,,,
,,,,,,,,,,,,,,,,,199096,21,2022-01-28_18h10.56.295,lexical_decision_task_DD_L2,2021.2.3,Win32,59.97361161,,,,,,,,,,,0.6564,1,,,,,,,,,,,,,,m,1,0.6564,,,,,,,,0.661400475,0.021759256,0,0,0,,0,5,5,51,1,ONION,HB,old,m,./images/ONIONHB.png,,,,,,,,,,,,,,,,,,,,,,
,,,,,,,,,,,,,,,,,199096,21,2022-01-28_18h10.56.295,lexical_decision_task_DD_L2,2021.2.3,Win32,59.97361161,,,,,,,,,,,0.5898,1,,,,,,,,,,,,,,m,1,0.5898,,,,,,,,0.661400475,0.021759256,0,0,0,,0,6,6,39,1,SHELF,HB,old,m,./images/SHELFHB.png,,,,,,,,,,,,,,,,,,,,,,
,,,,,,,,,,,,,,,,,199096,21,2022-01-28_18h10.56.295,lexical_decision_task_DD_L2,2021.2.3,Win32,59.97361161,,,,,,,,,,,1.1818,1,,,,,,,,,,,,,,z,1,1.1818,,,,,,,,0.661400475,0.021759256,0,0,0,,0,7,7,100,1,DRIBS,HB,old,z,./images/DRIBSHB.png,,,,,,,,,,,,,,,,,,,,,,
,,,,,,,,,,,,,,,,,199096,21,2022-01-28_18h10.56.295,lexical_decision_task_DD_L2,2021.2.3,Win32,59.97361161,,,,,,,,,,,0.5259,1,,,,,,,,,,,,,,m,1,0.5259,,,,,,,,0.661400475,0.021759256,0,0,0,,0,8,8,40,1,SWING,LB,old,m,./images/SWINGLB.png,,,,,,,,,,,,,,,,,,,,,,
,,,,,,,,,,,,,,,,,199096,21,2022-01-28_18h10.56.295,lexical_decision_task_DD_L2,2021.2.3,Win32,59.97361161,,,,,,,,,,,0.4799,1,,,,,,,,,,,,,,m,1,0.4799,,,,,,,,0.661400475,0.021759256,0,0,0,,0,9,9,57,1,MOOSE,HB,old,m,./images/MOOSEHB.png,,,,,,,,,,,,,,,,,,,,,,
,,,,,,,,,,,,,,,,,199096,21,2022-01-28_18h10.56.295,lexical_decision_task_DD_L2,2021.2.3,Win32,59.97361161,,,,,,,,,,,0.5087,0,,,,,,,,,,,,,,m,0,0.5087,,,,,,,,0.661400475,0.021759256,0,0,0,,0,10,10,143,1,MONGS,LB,old,z,./images/MONGSLB.png,,,,,,,,,,,,,,,,,,,,,,
,,,,,,,,,,,,,,,,,199096,21,2022-01-28_18h10.56.295,lexical_decision_task_DD_L2,2021.2.3,Win32,59.97361161,,,,,,,,,,,1.1038,1,,,,,,,,,,,,,,z,1,1.1038,,,,,,,,0.661400475,0.021759256,0,0,0,,0,11,11,115,1,MAWNS,HB,old,z,./images/MAWNSHB.png,,,,,,,,,,,,,,,,,,,,,,
,,,,,,,,,,,,,,,,,199096,21,2022-01-28_18h10.56.295,lexical_decision_task_DD_L2,2021.2.3,Win32,59.97361161,,,,,,,,,,,0.803,1,,,,,,,,,,,,,,m,1,0.803,,,,,,,,0.661400475,0.021759256,0,0,0,,0,12,12,28,1,FALCON,LB,old,m,./images/FALCONLB.png,,,,,,,,,,,,,,,,,,,,,,
,,,,,,,,,,,,,,,,,199096,21,2022-01-28_18h10.56.295,lexical_decision_task_DD_L2,2021.2.3,Win32,59.97361161,,,,,,,,,,,0.5226,1,,,,,,,,,,,,,,m,1,0.5226,,,,,,,,0.661400475,0.021759256,0,0,0,,0,13,13,55,1,MUFFIN,LB,old,m,./images/MUFFINLB.png,,,,,,,,,,,,,,,,,,,,,,
,,,,,,,,,,,,,,,,,199096,21,2022-01-28_18h10.56.295,lexical_decision_task_DD_L2,2021.2.3,Win32,59.97361161,,,,,,,,,,,0.965,1,,,,,,,,,,,,,,z,1,0.965,,,,,,,,0.661400475,0.021759256,0,0,0,,0,14,14,106,1,CLUMS,HB,old,z,./images/CLUMSHB.png,,,,,,,,,,,,,,,,,,,,,,
,,,,,,,,,,,,,,,,,199096,21,2022-01-28_18h10.56.295,lexical_decision_task_DD_L2,2021.2.3,Win32,59.97361161,,,,,,,,,,,0.7227,1,,,,,,,,,,,,,,z,1,0.7227,,,,,,,,0.661400475,0.021759256,0,0,0,,0,15,15,123,1,SEDGE,C,old,z,./images/SEDGE.png,,,,,,,,,,,,,,,,,,,,,,
,,,,,,,,,,,,,,,,,199096,21,2022-01-28_18h10.56.295,lexical_decision_task_DD_L2,2021.2.3,Win32,59.97361161,,,,,,,,,,,1.4405,1,,,,,,,,,,,,,,z,1,1.4405,,,,,,,,0.661400475,0.021759256,0,0,0,,0,16,16,166,1,SHORY,HB,old,z,./images/SHORYHB.png,,,,,,,,,,,,,,,,,,,,,,
,,,,,,,,,,,,,,,,,199096,21,2022-01-28_18h10.56.295,lexical_decision_task_DD_L2,2021.2.3,Win32,59.97361161,,,,,,,,,,,1.1186,1,,,,,,,,,,,,,,z,1,1.1186,,,,,,,,0.661400475,0.021759256,0,0,0,,0,17,17,85,1,CHULK,HB,old,z,./images/CHULKHB.png,,,,,,,,,,,,,,,,,,,,,,
,,,,,,,,,,,,,,,,,199096,21,2022-01-28_18h10.56.295,lexical_decision_task_DD_L2,2021.2.3,Win32,59.97361161,,,,,,,,,,,1.2252,1,,,,,,,,,,,,,,z,1,1.2252,,,,,,,,0.661400475,0.021759256,0,0,0,,0,18,18,160,1,VEETS,HB,old,z,./images/VEETSHB.png,,,,,,,,,,,,,,,,,,,,,,
,,,,,,,,,,,,,,,,,199096,21,2022-01-28_18h10.56.295,lexical_decision_task_DD_L2,2021.2.3,Win32,59.97361161,,,,,,,,,,,0.5599,1,,,,,,,,,,,,,,m,1,0.5599,,,,,,,,0.661400475,0.021759256,0,0,0,,0,19,19,7,1,PAINT,LB,old,m,./images/PAINTLB.png,,,,,,,,,,,,,,,,,,,,,,
,,,,,,,,,,,,,,,,,199096,21,2022-01-28_18h10.56.295,lexical_decision_task_DD_L2,2021.2.3,Win32,59.97361161,,,,,,,,,,,0.7054,1,,,,,,,,,,,,,,m,1,0.7054,,,,,,,,0.661400475,0.021759256,0,0,0,,0,20,20,9,1,RHINO,HB,old,m,./images/RHINOHB.png,,,,,,,,,,,,,,,,,,,,,,
,,,,,,,,,,,,,,,,,199096,21,2022-01-28_18h10.56.295,lexical_decision_task_DD_L2,2021.2.3,Win32,59.97361161,,,,,,,,,,,0.8686,1,,,,,,,,,,,,,,z,1,0.8686,,,,,,,,0.661400475,0.021759256,0,0,0,,0,21,21,152,1,FRAIN,LB,old,z,./images/FRAINLB.png,,,,,,,,,,,,,,,,,,,,,,
,,,,,,,,,,,,,,,,,199096,21,2022-01-28_18h10.56.295,lexical_decision_task_DD_L2,2021.2.3,Win32,59.97361161,,,,,,,,,,,0.6815,1,,,,,,,,,,,,,,z,1,0.6815,,,,,,,,0.661400475,0.021759256,0,0,0,,0,22,22,104,1,GITTY,LB,old,z,./images/GITTYLB.png,,,,,,,,,,,,,,,,,,,,,,
,,,,,,,,,,,,,,,,,199096,21,2022-01-28_18h10.56.295,lexical_decision_task_DD_L2,2021.2.3,Win32,59.97361161,,,,,,,,,,,0.5706,1,,,,,,,,,,,,,,m,1,0.5706,,,,,,,,0.661400475,0.021759256,0,0,0,,0,23,23,23,1,WALRUS,C,old,m,./images/WALRUS.png,,,,,,,,,,,,,,,,,,,,,,
,,,,,,,,,,,,,,,,,199096,21,2022-01-28_18h10.56.295,lexical_decision_task_DD_L2,2021.2.3,Win32,59.97361161,,,,,,,,,,,0.6273,1,,,,,,,,,,,,,,m,1,0.6273,,,,,,,,0.661400475,0.021759256,0,0,0,,0,24,24,47,1,BERRY,C,old,m,./images/BERRY.png,,,,,,,,,,,,,,,,,,,,,,
,,,,,,,,,,,,,,,,,199096,21,2022-01-28_18h10.56.295,lexical_decision_task_DD_L2,2021.2.3,Win32,59.97361161,,,,,,,,,,,1.1975,1,,,,,,,,,,,,,,z,1,1.1975,,,,,,,,0.661400475,0.021759256,0,0,0,,0,25,25,124,1,TUNCH,HB,old,z,./images/TUNCHHB.png,,,,,,,,,,,,,,,,,,,,,,
,,,,,,,,,,,,,,,,,199096,21,2022-01-28_18h10.56.295,lexical_decision_task_DD_L2,2021.2.3,Win32,59.97361161,,,,,,,,,,,0.5806,1,,,,,,,,,,,,,,m,1,0.5806,,,,,,,,0.661400475,0.021759256,0,0,0,,0,26,26,12,1,SHORE,HB,old,m,./images/SHOREHB.png,,,,,,,,,,,,,,,,,,,,,,
,,,,,,,,,,,,,,,,,199096,21,2022-01-28_18h10.56.295,lexical_decision_task_DD_L2,2021.2.3,Win32,59.97361161,,,,,,,,,,,0.8434,1,,,,,,,,,,,,,,m,1,0.8434,,,,,,,,0.661400475,0.021759256,0,0,0,,0,27,27,30,1,STORM,HB,old,m,./images/STORMHB.png,,,,,,,,,,,,,,,,,,,,,,
,,,,,,,,,,,,,,,,,199096,21,2022-01-28_18h10.56.295,lexical_decision_task_DD_L2,2021.2.3,Win32,59.97361161,,,,,,,,,,,1.1693,0,,,,,,,,,,,,,,m,0,1.1693,,,,,,,,0.661400475,0.021759256,0,0,0,,0,28,28,101,1,GLEET,LB,old,z,./images/GLEETLB.png,,,,,,,,,,,,,,,,,,,,,,
,,,,,,,,,,,,,,,,,199096,21,2022-01-28_18h10.56.295,lexical_decision_task_DD_L2,2021.2.3,Win32,59.97361161,,,,,,,,,,,0.6647,1,,,,,,,,,,,,,,m,1,0.6647,,,,,,,,0.661400475,0.021759256,0,0,0,,0,29,29,17,1,SKIING,C,old,m,./images/SKIING.png,,,,,,,,,,,,,,,,,,,,,,
,,,,,,,,,,,,,,,,,199096,21,2022-01-28_18h10.56.295,lexical_decision_task_DD_L2,2021.2.3,Win32,59.97361161,,,,,,,,,,,1.2961,1,,,,,,,,,,,,,,z,1,1.2961,,,,,,,,0.661400475,0.021759256,0,0,0,,0,30,30,126,1,GUELS,C,old,z,./images/GUELS.png,,,,,,,,,,,,,,,,,,,,,,
,,,,,,,,,,,,,,,,,199096,21,2022-01-28_18h10.56.295,lexical_decision_task_DD_L2,2021.2.3,Win32,59.97361161,,,,,,,,,,,0.721,1,,,,,,,,,,,,,,z,1,0.721,,,,,,,,0.661400475,0.021759256,0,0,0,,0,31,31,117,1,STEEG,C,old,z,./images/STEEG.png,,,,,,,,,,,,,,,,,,,,,,
,,,,,,,,,,,,,,,,,199096,21,2022-01-28_18h10.56.295,lexical_decision_task_DD_L2,2021.2.3,Win32,59.97361161,,,,,,,,,,,1.3487,1,,,,,,,,,,,,,,m,1,1.3487,,,,,,,,0.661400475,0.021759256,0,0,0,,0,32,32,16,1,PENCE,LB,old,m,./images/PENCELB.png,,,,,,,,,,,,,,,,,,,,,,
,,,,,,,,,,,,,,,,,199096,21,2022-01-28_18h10.56.295,lexical_decision_task_DD_L2,2021.2.3,Win32,59.97361161,,,,,,,,,,,1.2473,1,,,,,,,,,,,,,,z,1,1.2473,,,,,,,,0.661400475,0.021759256,0,0,0,,0,33,33,127,1,NINDY,HB,old,z,./images/NINDYHB.png,,,,,,,,,,,,,,,,,,,,,,
,,,,,,,,,,,,,,,,,199096,21,2022-01-28_18h10.56.295,lexical_decision_task_DD_L2,2021.2.3,Win32,59.97361161,,,,,,,,,,,0.7438,1,,,,,,,,,,,,,,z,1,0.7438,,,,,,,,0.661400475,0.021759256,0,0,0,,0,34,34,87,1,TRING,C,old,z,./images/TRING.png,,,,,,,,,,,,,,,,,,,,,,
,,,,,,,,,,,,,,,,,199096,21,2022-01-28_18h10.56.295,lexical_decision_task_DD_L2,2021.2.3,Win32,59.97361161,,,,,,,,,,,0.5811,1,,,,,,,,,,,,,,m,1,0.5811,,,,,,,,0.661400475,0.021759256,0,0,0,,0,35,35,22,1,MELON,LB,old,m,./images/MELONLB.png,,,,,,,,,,,,,,,,,,,,,,
,,,,,,,,,,,,,,,,,199096,21,2022-01-28_18h10.56.295,lexical_decision_task_DD_L2,2021.2.3,Win32,59.97361161,,,,,,,,,,,0.6175,1,,,,,,,,,,,,,,m,1,0.6175,,,,,,,,0.661400475,0.021759256,0,0,0,,0,36,36,38,1,LADDER,C,old,m,./images/LADDER.png,,,,,,,,,,,,,,,,,,,,,,
,,,,,,,,,,,,,,,,,199096,21,2022-01-28_18h10.56.295,lexical_decision_task_DD_L2,2021.2.3,Win32,59.97361161,,,,,,,,,,,2.8755,1,,,,,,,,,,,,,,m,1,2.8755,,,,,,,,0.661400475,0.021759256,0,0,0,,0,37,37,33,1,MAGGOT,HB,old,m,./images/MAGGOTHB.png,,,,,,,,,,,,,,,,,,,,,,
,,,,,,,,,,,,,,,,,199096,21,2022-01-28_18h10.56.295,lexical_decision_task_DD_L2,2021.2.3,Win32,59.97361161,,,,,,,,,,,1.288,1,,,,,,,,,,,,,,z,1,1.288,,,,,,,,0.661400475,0.021759256,0,0,0,,0,38,38,118,1,BAVEL,HB,old,z,./images/BAVELHB.png,,,,,,,,,,,,,,,,,,,,,,
,,,,,,,,,,,,,,,,,199096,21,2022-01-28_18h10.56.295,lexical_decision_task_DD_L2,2021.2.3,Win32,59.97361161,,,,,,,,,,,0.7323,1,,,,,,,,,,,,,,z,1,0.7323,,,,,,,,0.661400475,0.021759256,0,0,0,,0,39,39,116,1,BALGY,LB,old,z,./images/BALGYLB.png,,,,,,,,,,,,,,,,,,,,,,
,,,,,,,,,,,,,,,,,199096,21,2022-01-28_18h10.56.295,lexical_decision_task_DD_L2,2021.2.3,Win32,59.97361161,,,,,,,,,,,0.7423,1,,,,,,,,,,,,,,z,1,0.7423,,,,,,,,0.661400475,0.021759256,0,0,0,,0,40,40,136,1,WERVE,HB,old,z,./images/WERVEHB.png,,,,,,,,,,,,,,,,,,,,,,
,,,,,,,,,,,,,,,,,199096,21,2022-01-28_18h10.56.295,lexical_decision_task_DD_L2,2021.2.3,Win32,59.97361161,,,,,,,,,,,0.6528,1,,,,,,,,,,,,,,z,1,0.6528,,,,,,,,0.661400475,0.021759256,0,0,0,space,0,41,41,96,1,KEAMS,C,old,z,./images/KEAMS.png,5.8641,,,,,,,,,,,,,,,,,,,,,
,,,,,,,,,,,,,,,,,199096,21,2022-01-28_18h10.56.295,lexical_decision_task_DD_L2,2021.2.3,Win32,59.97361161,,,,,,,,,,,0.8985,1,,,,,,,,,,,,,,z,1,0.8985,,,,,,,,0.661400475,0.021759256,0,0,0,,0,42,42,157,1,INLER,HB,old,z,./images/INLERHB.png,,,,,,,,,,,,,,,,,,,,,,
,,,,,,,,,,,,,,,,,199096,21,2022-01-28_18h10.56.295,lexical_decision_task_DD_L2,2021.2.3,Win32,59.97361161,,,,,,,,,,,0.614,1,,,,,,,,,,,,,,m,1,0.614,,,,,,,,0.661400475,0.021759256,0,0,0,,0,43,43,48,1,SPORT,HB,old,m,./images/SPORTHB.png,,,,,,,,,,,,,,,,,,,,,,
,,,,,,,,,,,,,,,,,199096,21,2022-01-28_18h10.56.295,lexical_decision_task_DD_L2,2021.2.3,Win32,59.97361161,,,,,,,,,,,0.7485,1,,,,,,,,,,,,,,z,1,0.7485,,,,,,,,0.661400475,0.021759256,0,0,0,,0,44,44,109,1,BURGE,HB,old,z,./images/BURGEHB.png,,,,,,,,,,,,,,,,,,,,,,
,,,,,,,,,,,,,,,,,199096,21,2022-01-28_18h10.56.295,lexical_decision_task_DD_L2,2021.2.3,Win32,59.97361161,,,,,,,,,,,0.6934,1,,,,,,,,,,,,,,z,1,0.6934,,,,,,,,0.661400475,0.021759256,0,0,0,,0,45,45,95,1,HANTY,LB,old,z,./images/HANTYLB.png,,,,,,,,,,,,,,,,,,,,,,
,,,,,,,,,,,,,,,,,199096,21,2022-01-28_18h10.56.295,lexical_decision_task_DD_L2,2021.2.3,Win32,59.97361161,,,,,,,,,,,0.7138,1,,,,,,,,,,,,,,m,1,0.7138,,,,,,,,0.661400475,0.021759256,0,0,0,,0,46,46,42,1,FOLDER,HB,old,m,./images/FOLDERHB.png,,,,,,,,,,,,,,,,,,,,,,
,,,,,,,,,,,,,,,,,199096,21,2022-01-28_18h10.56.295,lexical_decision_task_DD_L2,2021.2.3,Win32,59.97361161,,,,,,,,,,,0.6522,1,,,,,,,,,,,,,,z,1,0.6522,,,,,,,,0.661400475,0.021759256,0,0,0,,0,47,47,131,1,NACES,LB,old,z,./images/NACESLB.png,,,,,,,,,,,,,,,,,,,,,,
,,,,,,,,,,,,,,,,,199096,21,2022-01-28_18h10.56.295,lexical_decision_task_DD_L2,2021.2.3,Win32,59.97361161,,,,,,,,,,,0.6098,1,,,,,,,,,,,,,,m,1,0.6098,,,,,,,,0.661400475,0.021759256,0,0,0,,0,48,48,63,1,MIRROR,HB,old,m,./images/MIRRORHB.png,,,,,,,,,,,,,,,,,,,,,,
,,,,,,,,,,,,,,,,,199096,21,2022-01-28_18h10.56.295,lexical_decision_task_DD_L2,2021.2.3,Win32,59.97361161,,,,,,,,,,,0.665,1,,,,,,,,,,,,,,z,1,0.665,,,,,,,,0.661400475,0.021759256,0,0,0,,0,49,49,125,1,MOOKY,LB,old,z,./images/MOOKYLB.png,,,,,,,,,,,,,,,,,,,,,,
,,,,,,,,,,,,,,,,,199096,21,2022-01-28_18h10.56.295,lexical_decision_task_DD_L2,2021.2.3,Win32,59.97361161,,,,,,,,,,,0.8697,1,,,,,,,,,,,,,,z,1,0.8697,,,,,,,,0.661400475,0.021759256,0,0,0,,0,50,50,142,1,PLASK,HB,old,z,./images/PLASKHB.png,,,,,,,,,,,,,,,,,,,,,,
,,,,,,,,,,,,,,,,,199096,21,2022-01-28_18h10.56.295,lexical_decision_task_DD_L2,2021.2.3,Win32,59.97361161,,,,,,,,,,,1.1544,1,,,,,,,,,,,,,,m,1,1.1544,,,,,,,,0.661400475,0.021759256,0,0,0,,0,51,51,69,1,COOKER,HB,old,m,./images/COOKERHB.png,,,,,,,,,,,,,,,,,,,,,,
,,,,,,,,,,,,,,,,,199096,21,2022-01-28_18h10.56.295,lexical_decision_task_DD_L2,2021.2.3,Win32,59.97361161,,,,,,,,,,,0.6677,1,,,,,,,,,,,,,,z,1,0.6677,,,,,,,,0.661400475,0.021759256,0,0,0,,0,52,52,128,1,GRIFT,LB,old,z,./images/GRIFTLB.png,,,,,,,,,,,,,,,,,,,,,,
,,,,,,,,,,,,,,,,,199096,21,2022-01-28_18h10.56.295,lexical_decision_task_DD_L2,2021.2.3,Win32,59.97361161,,,,,,,,,,,0.5925,1,,,,,,,,,,,,,,m,1,0.5925,,,,,,,,0.661400475,0.021759256,0,0,0,,0,53,53,79,1,CRUST,LB,old,m,./images/CRUSTLB.png,,,,,,,,,,,,,,,,,,,,,,
,,,,,,,,,,,,,,,,,199096,21,2022-01-28_18h10.56.295,lexical_decision_task_DD_L2,2021.2.3,Win32,59.97361161,,,,,,,,,,,0.8708,1,,,,,,,,,,,,,,m,1,0.8708,,,,,,,,0.661400475,0.021759256,0,0,0,,0,54,54,14,1,PICKLE,C,old,m,./images/PICKLE.png,,,,,,,,,,,,,,,,,,,,,,
,,,,,,,,,,,,,,,,,199096,21,2022-01-28_18h10.56.295,lexical_decision_task_DD_L2,2021.2.3,Win32,59.97361161,,,,,,,,,,,0.5131,1,,,,,,,,,,,,,,m,1,0.5131,,,,,,,,0.661400475,0.021759256,0,0,0,,0,55,55,5,1,PASTA,C,old,m,./images/PASTA.png,,,,,,,,,,,,,,,,,,,,,,
,,,,,,,,,,,,,,,,,199096,21,2022-01-28_18h10.56.295,lexical_decision_task_DD_L2,2021.2.3,Win32,59.97361161,,,,,,,,,,,0.6305,1,,,,,,,,,,,,,,z,1,0.6305,,,,,,,,0.661400475,0.021759256,0,0,0,,0,56,56,144,1,NAIRY,C,old,z,./images/NAIRY.png,,,,,,,,,,,,,,,,,,,,,,
,,,,,,,,,,,,,,,,,199096,21,2022-01-28_18h10.56.295,lexical_decision_task_DD_L2,2021.2.3,Win32,59.97361161,,,,,,,,,,,0.9656,1,,,,,,,,,,,,,,z,1,0.9656,,,,,,,,0.661400475,0.021759256,0,0,0,,0,57,57,146,1,MOOST,LB,old,z,./images/MOOSTLB.png,,,,,,,,,,,,,,,,,,,,,,
,,,,,,,,,,,,,,,,,199096,21,2022-01-28_18h10.56.295,lexical_decision_task_DD_L2,2021.2.3,Win32,59.97361161,,,,,,,,,,,0.6473,1,,,,,,,,,,,,,,z,1,0.6473,,,,,,,,0.661400475,0.021759256,0,0,0,,0,58,58,167,1,ZONET,LB,old,z,./images/ZONETLB.png,,,,,,,,,,,,,,,,,,,,,,
,,,,,,,,,,,,,,,,,199096,21,2022-01-28_18h10.56.295,lexical_decision_task_DD_L2,2021.2.3,Win32,59.97361161,,,,,,,,,,,0.8761,1,,,,,,,,,,,,,,m,1,0.8761,,,,,,,,0.661400475,0.021759256,0,0,0,,0,59,59,58,1,BABOON,LB,old,m,./images/BABOONLB.png,,,,,,,,,,,,,,,,,,,,,,
,,,,,,,,,,,,,,,,,199096,21,2022-01-28_18h10.56.295,lexical_decision_task_DD_L2,2021.2.3,Win32,59.97361161,,,,,,,,,,,0.5911,1,,,,,,,,,,,,,,m,1,0.5911,,,,,,,,0.661400475,0.021759256,0,0,0,,0,60,60,65,1,FARMER,C,old,m,./images/FARMER.png,,,,,,,,,,,,,,,,,,,,,,
,,,,,,,,,,,,,,,,,199096,21,2022-01-28_18h10.56.295,lexical_decision_task_DD_L2,2021.2.3,Win32,59.97361161,,,,,,,,,,,0.5589,1,,,,,,,,,,,,,,m,1,0.5589,,,,,,,,0.661400475,0.021759256,0,0,0,,0,61,61,68,1,TORCH,C,old,m,./images/TORCH.png,,,,,,,,,,,,,,,,,,,,,,
,,,,,,,,,,,,,,,,,199096,21,2022-01-28_18h10.56.295,lexical_decision_task_DD_L2,2021.2.3,Win32,59.97361161,,,,,,,,,,,0.5661,1,,,,,,,,,,,,,,z,1,0.5661,,,,,,,,0.661400475,0.021759256,0,0,0,,0,62,62,120,1,RINED,C,old,z,./images/RINED.png,,,,,,,,,,,,,,,,,,,,,,
,,,,,,,,,,,,,,,,,199096,21,2022-01-28_18h10.56.295,lexical_decision_task_DD_L2,2021.2.3,Win32,59.97361161,,,,,,,,,,,0.6572,1,,,,,,,,,,,,,,m,1,0.6572,,,,,,,,0.661400475,0.021759256,0,0,0,,0,63,63,74,1,CEMENT,C,old,m,./images/CEMENT.png,,,,,,,,,,,,,,,,,,,,,,
,,,,,,,,,,,,,,,,,199096,21,2022-01-28_18h10.56.295,lexical_decision_task_DD_L2,2021.2.3,Win32,59.97361161,,,,,,,,,,,0.9597,0,,,,,,,,,,,,,,z,0,0.9597,,,,,,,,0.661400475,0.021759256,0,0,0,,0,64,64,31,1,QUILL,LB,old,m,./images/QUILLLB.png,,,,,,,,,,,,,,,,,,,,,,
,,,,,,,,,,,,,,,,,199096,21,2022-01-28_18h10.56.295,lexical_decision_task_DD_L2,2021.2.3,Win32,59.97361161,,,,,,,,,,,0.8138,1,,,,,,,,,,,,,,z,1,0.8138,,,,,,,,0.661400475,0.021759256,0,0,0,,0,65,65,105,1,MOKER,C,old,z,./images/MOKER.png,,,,,,,,,,,,,,,,,,,,,,
,,,,,,,,,,,,,,,,,199096,21,2022-01-28_18h10.56.295,lexical_decision_task_DD_L2,2021.2.3,Win32,59.97361161,,,,,,,,,,,0.6775,1,,,,,,,,,,,,,,m,1,0.6775,,,,,,,,0.661400475,0.021759256,0,0,0,,0,66,66,59,1,BURIAL,C,old,m,./images/BURIAL.png,,,,,,,,,,,,,,,,,,,,,,
,,,,,,,,,,,,,,,,,199096,21,2022-01-28_18h10.56.295,lexical_decision_task_DD_L2,2021.2.3,Win32,59.97361161,,,,,,,,,,,0.6998,1,,,,,,,,,,,,,,z,1,0.6998,,,,,,,,0.661400475,0.021759256,0,0,0,,0,67,67,122,1,BLOOT,LB,old,z,./images/BLOOTLB.png,,,,,,,,,,,,,,,,,,,,,,
,,,,,,,,,,,,,,,,,199096,21,2022-01-28_18h10.56.295,lexical_decision_task_DD_L2,2021.2.3,Win32,59.97361161,,,,,,,,,,,0.6279,1,,,,,,,,,,,,,,m,1,0.6279,,,,,,,,0.661400475,0.021759256,0,0,0,,0,68,68,41,1,STRING,C,old,m,./images/STRING.png,,,,,,,,,,,,,,,,,,,,,,
,,,,,,,,,,,,,,,,,199096,21,2022-01-28_18h10.56.295,lexical_decision_task_DD_L2,2021.2.3,Win32,59.97361161,,,,,,,,,,,0.6474,1,,,,,,,,,,,,,,z,1,0.6474,,,,,,,,0.661400475,0.021759256,0,0,0,,0,69,69,158,1,EGECT,LB,old,z,./images/EGECTLB.png,,,,,,,,,,,,,,,,,,,,,,
,,,,,,,,,,,,,,,,,199096,21,2022-01-28_18h10.56.295,lexical_decision_task_DD_L2,2021.2.3,Win32,59.97361161,,,,,,,,,,,0.6985,1,,,,,,,,,,,,,,z,1,0.6985,,,,,,,,0.661400475,0.021759256,0,0,0,,0,70,70,107,1,FASKS,LB,old,z,./images/FASKSLB.png,,,,,,,,,,,,,,,,,,,,,,
,,,,,,,,,,,,,,,,,199096,21,2022-01-28_18h10.56.295,lexical_decision_task_DD_L2,2021.2.3,Win32,59.97361161,,,,,,,,,,,0.8542,1,,,,,,,,,,,,,,z,1,0.8542,,,,,,,,0.661400475,0.021759256,0,0,0,,0,71,71,151,1,TINKY,HB,old,z,./images/TINKYHB.png,,,,,,,,,,,,,,,,,,,,,,
,,,,,,,,,,,,,,,,,199096,21,2022-01-28_18h10.56.295,lexical_decision_task_DD_L2,2021.2.3,Win32,59.97361161,,,,,,,,,,,0.5873,1,,,,,,,,,,,,,,m,1,0.5873,,,,,,,,0.661400475,0.021759256,0,0,0,,0,72,72,4,1,MUSCLE,LB,old,m,./images/MUSCLELB.png,,,,,,,,,,,,,,,,,,,,,,
,,,,,,,,,,,,,,,,,199096,21,2022-01-28_18h10.56.295,lexical_decision_task_DD_L2,2021.2.3,Win32,59.97361161,,,,,,,,,,,0.6591,1,,,,,,,,,,,,,,z,1,0.6591,,,,,,,,0.661400475,0.021759256,0,0,0,,0,73,73,86,1,AIFED,LB,old,z,./images/AIFEDLB.png,,,,,,,,,,,,,,,,,,,,,,
,,,,,,,,,,,,,,,,,199096,21,2022-01-28_18h10.56.295,lexical_decision_task_DD_L2,2021.2.3,Win32,59.97361161,,,,,,,,,,,0.6393,1,,,,,,,,,,,,,,z,1,0.6393,,,,,,,,0.661400475,0.021759256,0,0,0,,0,74,74,90,1,NEAST,C,old,z,./images/NEAST.png,,,,,,,,,,,,,,,,,,,,,,
,,,,,,,,,,,,,,,,,199096,21,2022-01-28_18h10.56.295,lexical_decision_task_DD_L2,2021.2.3,Win32,59.97361161,,,,,,,,,,,0.579,1,,,,,,,,,,,,,,z,1,0.579,,,,,,,,0.661400475,0.021759256,0,0,0,,0,75,75,108,1,GRUET,C,old,z,./images/GRUET.png,,,,,,,,,,,,,,,,,,,,,,
,,,,,,,,,,,,,,,,,199096,21,2022-01-28_18h10.56.295,lexical_decision_task_DD_L2,2021.2.3,Win32,59.97361161,,,,,,,,,,,1.2386,1,,,,,,,,,,,,,,z,1,1.2386,,,,,,,,0.661400475,0.021759256,0,0,0,,0,76,76,154,1,THINT,HB,old,z,./images/THINTHB.png,,,,,,,,,,,,,,,,,,,,,,
,,,,,,,,,,,,,,,,,199096,21,2022-01-28_18h10.56.295,lexical_decision_task_DD_L2,2021.2.3,Win32,59.97361161,,,,,,,,,,,0.6595,1,,,,,,,,,,,,,,m,1,0.6595,,,,,,,,0.661400475,0.021759256,0,0,0,,0,77,77,29,1,CRUMB,C,old,m,./images/CRUMB.png,,,,,,,,,,,,,,,,,,,,,,
,,,,,,,,,,,,,,,,,199096,21,2022-01-28_18h10.56.295,lexical_decision_task_DD_L2,2021.2.3,Win32,59.97361161,,,,,,,,,,,0.5925,1,,,,,,,,,,,,,,z,1,0.5925,,,,,,,,0.661400475,0.021759256,0,0,0,,0,78,78,129,1,PRANS,C,old,z,./images/PRANS.png,,,,,,,,,,,,,,,,,,,,,,
,,,,,,,,,,,,,,,,,199096,21,2022-01-28_18h10.56.295,lexical_decision_task_DD_L2,2021.2.3,Win32,59.97361161,,,,,,,,,,,0.5219,1,,,,,,,,,,,,,,z,1,0.5219,,,,,,,,0.661400475,0.021759256,0,0,0,,0,79,79,149,1,VEASE,LB,old,z,./images/VEASELB.png,,,,,,,,,,,,,,,,,,,,,,
,,,,,,,,,,,,,,,,,199096,21,2022-01-28_18h10.56.295,lexical_decision_task_DD_L2,2021.2.3,Win32,59.97361161,,,,,,,,,,,0.7647,1,,,,,,,,,,,,,,z,1,0.7647,,,,,,,,0.661400475,0.021759256,0,0,0,,0,80,80,94,1,BLANS,HB,old,z,./images/BLANSHB.png,,,,,,,,,,,,,,,,,,,,,,
,,,,,,,,,,,,,,,,,199096,21,2022-01-28_18h10.56.295,lexical_decision_task_DD_L2,2021.2.3,Win32,59.97361161,,,,,,,,,,,0.7976,1,,,,,,,,,,,,,,m,1,0.7976,,,,,,,,0.661400475,0.021759256,0,0,0,,0,81,81,6,1,SQUARE,HB,old,m,./images/SQUAREHB.png,,,,,,,,,,,,,,,,,,,,,,
,,,,,,,,,,,,,,,,,199096,21,2022-01-28_18h10.56.295,lexical_decision_task_DD_L2,2021.2.3,Win32,59.97361161,,,,,,,,,,,0.8509,1,,,,,,,,,,,,,,z,1,0.8509,,,,,,,,0.661400475,0.021759256,0,0,0,,0,82,82,165,1,TROWN,C,old,z,./images/TROWN.png,,,,,,,,,,,,,,,,,,,,,,
,,,,,,,,,,,,,,,,,199096,21,2022-01-28_18h10.56.295,lexical_decision_task_DD_L2,2021.2.3,Win32,59.97361161,,,,,,,,,,,0.8904,1,,,,,,,,,,,,,,m,1,0.8904,,,,,,,,0.661400475,0.021759256,0,0,0,space,0,83,83,21,1,KIDNEY,HB,old,m,./images/KIDNEYHB.png,4.8939,,,,,,,,,,,,,,,,,,,,,
,,,,,,,,,,,,,,,,,199096,21,2022-01-28_18h10.56.295,lexical_decision_task_DD_L2,2021.2.3,Win32,59.97361161,,,,,,,,,,,0.85,1,,,,,,,,,,,,,,z,1,0.85,,,,,,,,0.661400475,0.021759256,0,0,0,,0,84,84,137,1,JOOST,LB,old,z,./images/JOOSTLB.png,,,,,,,,,,,,,,,,,,,,,,
,,,,,,,,,,,,,,,,,199096,21,2022-01-28_18h10.56.295,lexical_decision_task_DD_L2,2021.2.3,Win32,59.97361161,,,,,,,,,,,0.6135,1,,,,,,,,,,,,,,z,1,0.6135,,,,,,,,0.661400475,0.021759256,0,0,0,,0,85,85,132,1,SCIFF,C,old,z,./images/SCIFF.png,,,,,,,,,,,,,,,,,,,,,,
,,,,,,,,,,,,,,,,,199096,21,2022-01-28_18h10.56.295,lexical_decision_task_DD_L2,2021.2.3,Win32,59.97361161,,,,,,,,,,,0.4382,1,,,,,,,,,,,,,,m,1,0.4382,,,,,,,,0.661400475,0.021759256,0,0,0,,0,86,86,34,1,CANYON,LB,old,m,./images/CANYONLB.png,,,,,,,,,,,,,,,,,,,,,,
,,,,,,,,,,,,,,,,,199096,21,2022-01-28_18h10.56.295,lexical_decision_task_DD_L2,2021.2.3,Win32,59.97361161,,,,,,,,,,,0.6347,1,,,,,,,,,,,,,,m,1,0.6347,,,,,,,,0.661400475,0.021759256,0,0,0,,0,87,87,50,1,MALLET,C,old,m,./images/MALLET.png,,,,,,,,,,,,,,,,,,,,,,
,,,,,,,,,,,,,,,,,199096,21,2022-01-28_18h10.56.295,lexical_decision_task_DD_L2,2021.2.3,Win32,59.97361161,,,,,,,,,,,0.6147,1,,,,,,,,,,,,,,z,1,0.6147,,,,,,,,0.661400475,0.021759256,0,0,0,,0,88,88,138,1,PLICE,C,old,z,./images/PLICE.png,,,,,,,,,,,,,,,,,,,,,,
,,,,,,,,,,,,,,,,,199096,21,2022-01-28_18h10.56.295,lexical_decision_task_DD_L2,2021.2.3,Win32,59.97361161,,,,,,,,,,,0.6301,1,,,,,,,,,,,,,,z,1,0.6301,,,,,,,,0.661400475,0.021759256,0,0,0,,0,89,89,147,1,ZOLES,C,old,z,./images/ZOLES.png,,,,,,,,,,,,,,,,,,,,,,
,,,,,,,,,,,,,,,,,199096,21,2022-01-28_18h10.56.295,lexical_decision_task_DD_L2,2021.2.3,Win32,59.97361161,,,,,,,,,,,0.5093,1,,,,,,,,,,,,,,m,1,0.5093,,,,,,,,0.661400475,0.021759256,0,0,0,,0,90,90,77,1,COUCH,C,old,m,./images/COUCH.png,,,,,,,,,,,,,,,,,,,,,,
,,,,,,,,,,,,,,,,,199096,21,2022-01-28_18h10.56.295,lexical_decision_task_DD_L2,2021.2.3,Win32,59.97361161,,,,,,,,,,,0.4786,1,,,,,,,,,,,,,,m,1,0.4786,,,,,,,,0.661400475,0.021759256,0,0,0,,0,91,91,32,1,BARREL,C,old,m,./images/BARREL.png,,,,,,,,,,,,,,,,,,,,,,
,,,,,,,,,,,,,,,,,199096,21,2022-01-28_18h10.56.295,lexical_decision_task_DD_L2,2021.2.3,Win32,59.97361161,,,,,,,,,,,0.5263,1,,,,,,,,,,,,,,m,1,0.5263,,,,,,,,0.661400475,0.021759256,0,0,0,,0,92,92,10,1,BELLY,LB,old,m,./images/BELLYLB.png,,,,,,,,,,,,,,,,,,,,,,
,,,,,,,,,,,,,,,,,199096,21,2022-01-28_18h10.56.295,lexical_decision_task_DD_L2,2021.2.3,Win32,59.97361161,,,,,,,,,,,0.6887,1,,,,,,,,,,,,,,z,1,0.6887,,,,,,,,0.661400475,0.021759256,0,0,0,,0,93,93,91,1,SHENS,HB,old,z,./images/SHENSHB.png,,,,,,,,,,,,,,,,,,,,,,
,,,,,,,,,,,,,,,,,199096,21,2022-01-28_18h10.56.295,lexical_decision_task_DD_L2,2021.2.3,Win32,59.97361161,,,,,,,,,,,0.4847,1,,,,,,,,,,,,,,m,1,0.4847,,,,,,,,0.661400475,0.021759256,0,0,0,,0,94,94,45,1,KITTEN,HB,old,m,./images/KITTENHB.png,,,,,,,,,,,,,,,,,,,,,,
,,,,,,,,,,,,,,,,,199096,21,2022-01-28_18h10.56.295,lexical_decision_task_DD_L2,2021.2.3,Win32,59.97361161,,,,,,,,,,,0.5928,1,,,,,,,,,,,,,,z,1,0.5928,,,,,,,,0.661400475,0.021759256,0,0,0,,0,95,95,119,1,PAFER,LB,old,z,./images/PAFERLB.png,,,,,,,,,,,,,,,,,,,,,,
,,,,,,,,,,,,,,,,,199096,21,2022-01-28_18h10.56.295,lexical_decision_task_DD_L2,2021.2.3,Win32,59.97361161,,,,,,,,,,,0.5107,1,,,,,,,,,,,,,,m,1,0.5107,,,,,,,,0.661400475,0.021759256,0,0,0,,0,96,96,53,1,CARPET,C,old,m,./images/CARPET.png,,,,,,,,,,,,,,,,,,,,,,
,,,,,,,,,,,,,,,,,199096,21,2022-01-28_18h10.56.295,lexical_decision_task_DD_L2,2021.2.3,Win32,59.97361161,,,,,,,,,,,0.7075,1,,,,,,,,,,,,,,m,1,0.7075,,,,,,,,0.661400475,0.021759256,0,0,0,,0,97,97,25,1,WRIST,LB,old,m,./images/WRISTLB.png,,,,,,,,,,,,,,,,,,,,,,
,,,,,,,,,,,,,,,,,199096,21,2022-01-28_18h10.56.295,lexical_decision_task_DD_L2,2021.2.3,Win32,59.97361161,,,,,,,,,,,0.7111,1,,,,,,,,,,,,,,m,1,0.7111,,,,,,,,0.661400475,0.021759256,0,0,0,,0,98,98,24,1,SCREW,HB,old,m,./images/SCREWHB.png,,,,,,,,,,,,,,,,,,,,,,
,,,,,,,,,,,,,,,,,199096,21,2022-01-28_18h10.56.295,lexical_decision_task_DD_L2,2021.2.3,Win32,59.97361161,,,,,,,,,,,0.721,1,,,,,,,,,,,,,,m,1,0.721,,,,,,,,0.661400475,0.021759256,0,0,0,,0,99,99,56,1,PACKET,C,old,m,./images/PACKET.png,,,,,,,,,,,,,,,,,,,,,,
,,,,,,,,,,,,,,,,,199096,21,2022-01-28_18h10.56.295,lexical_decision_task_DD_L2,2021.2.3,Win32,59.97361161,,,,,,,,,,,0.4607,1,,,,,,,,,,,,,,m,1,0.4607,,,,,,,,0.661400475,0.021759256,0,0,0,,0,100,100,49,1,DRUMS,LB,old,m,./images/DRUMSLB.png,,,,,,,,,,,,,,,,,,,,,,
,,,,,,,,,,,,,,,,,199096,21,2022-01-28_18h10.56.295,lexical_decision_task_DD_L2,2021.2.3,Win32,59.97361161,,,,,,,,,,,0.5542,1,,,,,,,,,,,,,,m,1,0.5542,,,,,,,,0.661400475,0.021759256,0,0,0,,0,101,101,73,1,SNACK,LB,old,m,./images/SNACKLB.png,,,,,,,,,,,,,,,,,,,,,,
,,,,,,,,,,,,,,,,,199096,21,2022-01-28_18h10.56.295,lexical_decision_task_DD_L2,2021.2.3,Win32,59.97361161,,,,,,,,,,,0.6354,1,,,,,,,,,,,,,,m,1,0.6354,,,,,,,,0.661400475,0.021759256,0,0,0,,0,102,102,13,1,MOTOR,LB,old,m,./images/MOTORLB.png,,,,,,,,,,,,,,,,,,,,,,
,,,,,,,,,,,,,,,,,199096,21,2022-01-28_18h10.56.295,lexical_decision_task_DD_L2,2021.2.3,Win32,59.97361161,,,,,,,,,,,0.5198,0,,,,,,,,,,,,,,z,0,0.5198,,,,,,,,0.661400475,0.021759256,0,0,0,,0,103,103,11,1,BONNET,C,old,m,./images/BONNET.png,,,,,,,,,,,,,,,,,,,,,,
,,,,,,,,,,,,,,,,,199096,21,2022-01-28_18h10.56.295,lexical_decision_task_DD_L2,2021.2.3,Win32,59.97361161,,,,,,,,,,,0.6433,1,,,,,,,,,,,,,,z,1,0.6433,,,,,,,,0.661400475,0.021759256,0,0,0,,0,104,104,93,1,SMONE,C,old,z,./images/SMONE.png,,,,,,,,,,,,,,,,,,,,,,
,,,,,,,,,,,,,,,,,199096,21,2022-01-28_18h10.56.295,lexical_decision_task_DD_L2,2021.2.3,Win32,59.97361161,,,,,,,,,,,0.5305,1,,,,,,,,,,,,,,m,1,0.5305,,,,,,,,0.661400475,0.021759256,0,0,0,,0,105,105,19,1,DOUGH,LB,old,m,./images/DOUGHLB.png,,,,,,,,,,,,,,,,,,,,,,
,,,,,,,,,,,,,,,,,199096,21,2022-01-28_18h10.56.295,lexical_decision_task_DD_L2,2021.2.3,Win32,59.97361161,,,,,,,,,,,0.691,1,,,,,,,,,,,,,,m,1,0.691,,,,,,,,0.661400475,0.021759256,0,0,0,,0,106,106,8,1,TULIP,C,old,m,./images/TULIP.png,,,,,,,,,,,,,,,,,,,,,,
,,,,,,,,,,,,,,,,,199096,21,2022-01-28_18h10.56.295,lexical_decision_task_DD_L2,2021.2.3,Win32,59.97361161,,,,,,,,,,,0.6481,1,,,,,,,,,,,,,,z,1,0.6481,,,,,,,,0.661400475,0.021759256,0,0,0,,0,107,107,92,1,PAIMS,LB,old,z,./images/PAIMSLB.png,,,,,,,,,,,,,,,,,,,,,,
,,,,,,,,,,,,,,,,,199096,21,2022-01-28_18h10.56.295,lexical_decision_task_DD_L2,2021.2.3,Win32,59.97361161,,,,,,,,,,,0.4761,1,,,,,,,,,,,,,,m,1,0.4761,,,,,,,,0.661400475,0.021759256,0,0,0,,0,108,108,44,1,LIZARD,C,old,m,./images/LIZARD.png,,,,,,,,,,,,,,,,,,,,,,
,,,,,,,,,,,,,,,,,199096,21,2022-01-28_18h10.56.295,lexical_decision_task_DD_L2,2021.2.3,Win32,59.97361161,,,,,,,,,,,0.618,1,,,,,,,,,,,,,,z,1,0.618,,,,,,,,0.661400475,0.021759256,0,0,0,,0,109,109,148,1,JOMS,HB,old,z,./images/JOMSHB.png,,,,,,,,,,,,,,,,,,,,,,
,,,,,,,,,,,,,,,,,199096,21,2022-01-28_18h10.56.295,lexical_decision_task_DD_L2,2021.2.3,Win32,59.97361161,,,,,,,,,,,0.4639,1,,,,,,,,,,,,,,m,1,0.4639,,,,,,,,0.661400475,0.021759256,0,0,0,,0,110,110,35,1,PEACH,C,old,m,./images/PEACH.png,,,,,,,,,,,,,,,,,,,,,,
,,,,,,,,,,,,,,,,,199096,21,2022-01-28_18h10.56.295,lexical_decision_task_DD_L2,2021.2.3,Win32,59.97361161,,,,,,,,,,,0.5781,1,,,,,,,,,,,,,,z,1,0.5781,,,,,,,,0.661400475,0.021759256,0,0,0,,0,111,111,150,1,NOOLS,C,old,z,./images/NOOLS.png,,,,,,,,,,,,,,,,,,,,,,
,,,,,,,,,,,,,,,,,199096,21,2022-01-28_18h10.56.295,lexical_decision_task_DD_L2,2021.2.3,Win32,59.97361161,,,,,,,,,,,0.4774,1,,,,,,,,,,,,,,m,1,0.4774,,,,,,,,0.661400475,0.021759256,0,0,0,,0,112,112,61,1,CANDLE,LB,old,m,./images/CANDLELB.png,,,,,,,,,,,,,,,,,,,,,,
,,,,,,,,,,,,,,,,,199096,21,2022-01-28_18h10.56.295,lexical_decision_task_DD_L2,2021.2.3,Win32,59.97361161,,,,,,,,,,,0.5473,1,,,,,,,,,,,,,,z,1,0.5473,,,,,,,,0.661400475,0.021759256,0,0,0,,0,113,113,89,1,DRIEK,LB,old,z,./images/DRIEKLB.png,,,,,,,,,,,,,,,,,,,,,,
,,,,,,,,,,,,,,,,,199096,21,2022-01-28_18h10.56.295,lexical_decision_task_DD_L2,2021.2.3,Win32,59.97361161,,,,,,,,,,,0.6036,1,,,,,,,,,,,,,,z,1,0.6036,,,,,,,,0.661400475,0.021759256,0,0,0,,0,114,114,155,1,CANGY,LB,old,z,./images/CANGYLB.png,,,,,,,,,,,,,,,,,,,,,,
,,,,,,,,,,,,,,,,,199096,21,2022-01-28_18h10.56.295,lexical_decision_task_DD_L2,2021.2.3,Win32,59.97361161,,,,,,,,,,,0.8029,1,,,,,,,,,,,,,,z,1,0.8029,,,,,,,,0.661400475,0.021759256,0,0,0,,0,115,115,112,1,MYING,HB,old,z,./images/MYINGHB.png,,,,,,,,,,,,,,,,,,,,,,
,,,,,,,,,,,,,,,,,199096,21,2022-01-28_18h10.56.295,lexical_decision_task_DD_L2,2021.2.3,Win32,59.97361161,,,,,,,,,,,0.4987,1,,,,,,,,,,,,,,m,1,0.4987,,,,,,,,0.661400475,0.021759256,0,0,0,,0,116,116,67,1,SAILOR,LB,old,m,./images/SAILORLB.png,,,,,,,,,,,,,,,,,,,,,,
,,,,,,,,,,,,,,,,,199096,21,2022-01-28_18h10.56.295,lexical_decision_task_DD_L2,2021.2.3,Win32,59.97361161,,,,,,,,,,,0.5945,1,,,,,,,,,,,,,,m,1,0.5945,,,,,,,,0.661400475,0.021759256,0,0,0,,0,117,117,83,1,JUNGLE,C,old,m,./images/JUNGLE.png,,,,,,,,,,,,,,,,,,,,,,
,,,,,,,,,,,,,,,,,199096,21,2022-01-28_18h10.56.295,lexical_decision_task_DD_L2,2021.2.3,Win32,59.97361161,,,,,,,,,,,0.6529,1,,,,,,,,,,,,,,m,1,0.6529,,,,,,,,0.661400475,0.021759256,0,0,0,,0,118,118,52,1,BANNER,LB,old,m,./images/BANNERLB.png,,,,,,,,,,,,,,,,,,,,,,
,,,,,,,,,,,,,,,,,199096,21,2022-01-28_18h10.56.295,lexical_decision_task_DD_L2,2021.2.3,Win32,59.97361161,,,,,,,,,,,0.569,1,,,,,,,,,,,,,,z,1,0.569,,,,,,,,0.661400475,0.021759256,0,0,0,,0,119,119,114,1,RIKES,C,old,z,./images/RIKES.png,,,,,,,,,,,,,,,,,,,,,,
,,,,,,,,,,,,,,,,,199096,21,2022-01-28_18h10.56.295,lexical_decision_task_DD_L2,2021.2.3,Win32,59.97361161,,,,,,,,,,,0.5608,1,,,,,,,,,,,,,,z,1,0.5608,,,,,,,,0.661400475,0.021759256,0,0,0,,0,120,120,99,1,BACKY,C,old,z,./images/BACKY.png,,,,,,,,,,,,,,,,,,,,,,
,,,,,,,,,,,,,,,,,199096,21,2022-01-28_18h10.56.295,lexical_decision_task_DD_L2,2021.2.3,Win32,59.97361161,,,,,,,,,,,0.5397,1,,,,,,,,,,,,,,m,1,0.5397,,,,,,,,0.661400475,0.021759256,0,0,0,,0,121,121,72,1,NOOSE,HB,old,m,./images/NOOSEHB.png,,,,,,,,,,,,,,,,,,,,,,
,,,,,,,,,,,,,,,,,199096,21,2022-01-28_18h10.56.295,lexical_decision_task_DD_L2,2021.2.3,Win32,59.97361161,,,,,,,,,,,0.6929,1,,,,,,,,,,,,,,m,1,0.6929,,,,,,,,0.661400475,0.021759256,0,0,0,,0,122,122,62,1,PURSE,C,old,m,./images/PURSE.png,,,,,,,,,,,,,,,,,,,,,,
,,,,,,,,,,,,,,,,,199096,21,2022-01-28_18h10.56.295,lexical_decision_task_DD_L2,2021.2.3,Win32,59.97361161,,,,,,,,,,,0.7582,1,,,,,,,,,,,,,,z,1,0.7582,,,,,,,,0.661400475,0.021759256,0,0,0,,0,123,123,159,1,CUDDY,C,old,z,./images/CUDDY.png,,,,,,,,,,,,,,,,,,,,,,
,,,,,,,,,,,,,,,,,199096,21,2022-01-28_18h10.56.295,lexical_decision_task_DD_L2,2021.2.3,Win32,59.97361161,,,,,,,,,,,0.6659,1,,,,,,,,,,,,,,m,1,0.6659,,,,,,,,0.661400475,0.021759256,0,0,0,,0,124,124,2,1,BEARD,C,old,m,./images/BEARD.png,,,,,,,,,,,,,,,,,,,,,,
,,,,,,,,,,,,,,,,,199096,21,2022-01-28_18h10.56.295,lexical_decision_task_DD_L2,2021.2.3,Win32,59.97361161,,,,,,,,,,,0.7273,1,,,,,,,,,,,,,,m,1,0.7273,,,,,,,,0.661400475,0.021759256,0,0,0,space,0,125,125,27,1,ATTIC,HB,old,m,./images/ATTICHB.png,1.1882,,,,,,,,,,,,,,,,,,,,,
,,,,,,,,,,,,,,,,,199096,21,2022-01-28_18h10.56.295,lexical_decision_task_DD_L2,2021.2.3,Win32,59.97361161,,,,,,,,,,,0.6743,1,,,,,,,,,,,,,,z,1,0.6743,,,,,,,,0.661400475,0.021759256,0,0,0,,0,126,126,110,1,CRUNK,LB,old,z,./images/CRUNKLB.png,,,,,,,,,,,,,,,,,,,,,,
,,,,,,,,,,,,,,,,,199096,21,2022-01-28_18h10.56.295,lexical_decision_task_DD_L2,2021.2.3,Win32,59.97361161,,,,,,,,,,,0.5274,1,,,,,,,,,,,,,,m,1,0.5274,,,,,,,,0.661400475,0.021759256,0,0,0,,0,127,127,70,1,URINE,LB,old,m,./images/URINELB.png,,,,,,,,,,,,,,,,,,,,,,
,,,,,,,,,,,,,,,,,199096,21,2022-01-28_18h10.56.295,lexical_decision_task_DD_L2,2021.2.3,Win32,59.97361161,,,,,,,,,,,0.4897,1,,,,,,,,,,,,,,m,1,0.4897,,,,,,,,0.661400475,0.021759256,0,0,0,,0,128,128,36,1,THROAT,HB,old,m,./images/THROATHB.png,,,,,,,,,,,,,,,,,,,,,,
,,,,,,,,,,,,,,,,,199096,21,2022-01-28_18h10.56.295,lexical_decision_task_DD_L2,2021.2.3,Win32,59.97361161,,,,,,,,,,,0.5898,1,,,,,,,,,,,,,,z,1,0.5898,,,,,,,,0.661400475,0.021759256,0,0,0,,0,129,129,161,1,BLAPS,LB,old,z,./images/BLAPSLB.png,,,,,,,,,,,,,,,,,,,,,,
,,,,,,,,,,,,,,,,,199096,21,2022-01-28_18h10.56.295,lexical_decision_task_DD_L2,2021.2.3,Win32,59.97361161,,,,,,,,,,,0.6697,1,,,,,,,,,,,,,,m,1,0.6697,,,,,,,,0.661400475,0.021759256,0,0,0,,0,130,130,43,1,MOSQUE,LB,old,m,./images/MOSQUELB.png,,,,,,,,,,,,,,,,,,,,,,
,,,,,,,,,,,,,,,,,199096,21,2022-01-28_18h10.56.295,lexical_decision_task_DD_L2,2021.2.3,Win32,59.97361161,,,,,,,,,,,0.6987,1,,,,,,,,,,,,,,z,1,0.6987,,,,,,,,0.661400475,0.021759256,0,0,0,,0,131,131,163,1,GAMBA,HB,old,z,./images/GAMBAHB.png,,,,,,,,,,,,,,,,,,,,,,
,,,,,,,,,,,,,,,,,199096,21,2022-01-28_18h10.56.295,lexical_decision_task_DD_L2,2021.2.3,Win32,59.97361161,,,,,,,,,,,0.6366,1,,,,,,,,,,,,,,z,1,0.6366,,,,,,,,0.661400475,0.021759256,0,0,0,,0,132,132,162,1,LEICH,C,old,z,./images/LEICH.png,,,,,,,,,,,,,,,,,,,,,,
,,,,,,,,,,,,,,,,,199096,21,2022-01-28_18h10.56.295,lexical_decision_task_DD_L2,2021.2.3,Win32,59.97361161,,,,,,,,,,,0.6601,1,,,,,,,,,,,,,,z,1,0.6601,,,,,,,,0.661400475,0.021759256,0,0,0,,0,133,133,88,1,GLUSH,HB,old,z,./images/GLUSHHB.png,,,,,,,,,,,,,,,,,,,,,,
,,,,,,,,,,,,,,,,,199096,21,2022-01-28_18h10.56.295,lexical_decision_task_DD_L2,2021.2.3,Win32,59.97361161,,,,,,,,,,,0.5772,1,,,,,,,,,,,,,,m,1,0.5772,,,,,,,,0.661400475,0.021759256,0,0,0,,0,134,134,18,1,JAGUAR,HB,old,m,./images/JAGUARHB.png,,,,,,,,,,,,,,,,,,,,,,
,,,,,,,,,,,,,,,,,199096,21,2022-01-28_18h10.56.295,lexical_decision_task_DD_L2,2021.2.3,Win32,59.97361161,,,,,,,,,,,0.5377,1,,,,,,,,,,,,,,m,1,0.5377,,,,,,,,0.661400475,0.021759256,0,0,0,,0,135,135,82,1,SUNSET,LB,old,m,./images/SUNSETLB.png,,,,,,,,,,,,,,,,,,,,,,
,,,,,,,,,,,,,,,,,199096,21,2022-01-28_18h10.56.295,lexical_decision_task_DD_L2,2021.2.3,Win32,59.97361161,,,,,,,,,,,0.8436,1,,,,,,,,,,,,,,z,1,0.8436,,,,,,,,0.661400475,0.021759256,0,0,0,,0,136,136,139,1,BLEAR,HB,old,z,./images/BLEARHB.png,,,,,,,,,,,,,,,,,,,,,,
,,,,,,,,,,,,,,,,,199096,21,2022-01-28_18h10.56.295,lexical_decision_task_DD_L2,2021.2.3,Win32,59.97361161,,,,,,,,,,,0.6339,1,,,,,,,,,,,,,,m,1,0.6339,,,,,,,,0.661400475,0.021759256,0,0,0,,0,137,137,75,1,GRAIN,HB,old,m,./images/GRAINHB.png,,,,,,,,,,,,,,,,,,,,,,
,,,,,,,,,,,,,,,,,199096,21,2022-01-28_18h10.56.295,lexical_decision_task_DD_L2,2021.2.3,Win32,59.97361161,,,,,,,,,,,0.6318,1,,,,,,,,,,,,,,z,1,0.6318,,,,,,,,0.661400475,0.021759256,0,0,0,,0,138,138,145,1,LAMEL,HB,old,z,./images/LAMELHB.png,,,,,,,,,,,,,,,,,,,,,,
,,,,,,,,,,,,,,,,,199096,21,2022-01-28_18h10.56.295,lexical_decision_task_DD_L2,2021.2.3,Win32,59.97361161,,,,,,,,,,,0.6367,1,,,,,,,,,,,,,,z,1,0.6367,,,,,,,,0.661400475,0.021759256,0,0,0,,0,139,139,141,1,PLEET,C,old,z,./images/PLEET.png,,,,,,,,,,,,,,,,,,,,,,
,,,,,,,,,,,,,,,,,199096,21,2022-01-28_18h10.56.295,lexical_decision_task_DD_L2,2021.2.3,Win32,59.97361161,,,,,,,,,,,0.7079,1,,,,,,,,,,,,,,m,1,0.7079,,,,,,,,0.661400475,0.021759256,0,0,0,,0,140,140,54,1,TRIPOD,HB,old,m,./images/TRIPODHB.png,,,,,,,,,,,,,,,,,,,,,,
,,,,,,,,,,,,,,,,,199096,21,2022-01-28_18h10.56.295,lexical_decision_task_DD_L2,2021.2.3,Win32,59.97361161,,,,,,,,,,,0.4638,1,,,,,,,,,,,,,,m,1,0.4638,,,,,,,,0.661400475,0.021759256,0,0,0,,0,141,141,46,1,PEARL,LB,old,m,./images/PEARLLB.png,,,,,,,,,,,,,,,,,,,,,,
,,,,,,,,,,,,,,,,,199096,21,2022-01-28_18h10.56.295,lexical_decision_task_DD_L2,2021.2.3,Win32,59.97361161,,,,,,,,,,,0.7806,1,,,,,,,,,,,,,,z,1,0.7806,,,,,,,,0.661400475,0.021759256,0,0,0,,0,142,142,103,1,FLORT,HB,old,z,./images/FLORTHB.png,,,,,,,,,,,,,,,,,,,,,,
,,,,,,,,,,,,,,,,,199096,21,2022-01-28_18h10.56.295,lexical_decision_task_DD_L2,2021.2.3,Win32,59.97361161,,,,,,,,,,,0.5878,1,,,,,,,,,,,,,,m,1,0.5878,,,,,,,,0.661400475,0.021759256,0,0,0,,0,143,143,66,1,SWEAT,HB,old,m,./images/SWEATHB.png,,,,,,,,,,,,,,,,,,,,,,
,,,,,,,,,,,,,,,,,199096,21,2022-01-28_18h10.56.295,lexical_decision_task_DD_L2,2021.2.3,Win32,59.97361161,,,,,,,,,,,0.7159,1,,,,,,,,,,,,,,z,1,0.7159,,,,,,,,0.661400475,0.021759256,0,0,0,,0,144,144,97,1,CHIDS,HB,old,z,./images/CHIDSHB.png,,,,,,,,,,,,,,,,,,,,,,
,,,,,,,,,,,,,,,,,199096,21,2022-01-28_18h10.56.295,lexical_decision_task_DD_L2,2021.2.3,Win32,59.97361161,,,,,,,,,,,0.6868,1,,,,,,,,,,,,,,z,1,0.6868,,,,,,,,0.661400475,0.021759256,0,0,0,,0,145,145,130,1,CRILL,HB,old,z,./images/CRILLHB.png,,,,,,,,,,,,,,,,,,,,,,
,,,,,,,,,,,,,,,,,199096,21,2022-01-28_18h10.56.295,lexical_decision_task_DD_L2,2021.2.3,Win32,59.97361161,,,,,,,,,,,0.6076,1,,,,,,,,,,,,,,z,1,0.6076,,,,,,,,0.661400475,0.021759256,0,0,0,,0,146,146,102,1,DULLE,C,old,z,./images/DULLE.png,,,,,,,,,,,,,,,,,,,,,,
,,,,,,,,,,,,,,,,,199096,21,2022-01-28_18h10.56.295,lexical_decision_task_DD_L2,2021.2.3,Win32,59.97361161,,,,,,,,,,,0.5937,1,,,,,,,,,,,,,,m,1,0.5937,,,,,,,,0.661400475,0.021759256,0,0,0,,0,147,147,3,1,FINGER,HB,old,m,./images/FINGERHB.png,,,,,,,,,,,,,,,,,,,,,,
,,,,,,,,,,,,,,,,,199096,21,2022-01-28_18h10.56.295,lexical_decision_task_DD_L2,2021.2.3,Win32,59.97361161,,,,,,,,,,,0.61,1,,,,,,,,,,,,,,m,1,0.61,,,,,,,,0.661400475,0.021759256,0,0,0,,0,148,148,1,1,PLANK,LB,old,m,./images/PLANKLB.png,,,,,,,,,,,,,,,,,,,,,,
,,,,,,,,,,,,,,,,,199096,21,2022-01-28_18h10.56.295,lexical_decision_task_DD_L2,2021.2.3,Win32,59.97361161,,,,,,,,,,,0.5012,1,,,,,,,,,,,,,,m,1,0.5012,,,,,,,,0.661400475,0.021759256,0,0,0,,0,149,149,26,1,SMOKER,C,old,m,./images/SMOKER.png,,,,,,,,,,,,,,,,,,,,,,
,,,,,,,,,,,,,,,,,199096,21,2022-01-28_18h10.56.295,lexical_decision_task_DD_L2,2021.2.3,Win32,59.97361161,,,,,,,,,,,0.563,1,,,,,,,,,,,,,,m,1,0.563,,,,,,,,0.661400475,0.021759256,0,0,0,,0,150,150,20,1,CRADLE,C,old,m,./images/CRADLE.png,,,,,,,,,,,,,,,,,,,,,,
,,,,,,,,,,,,,,,,,199096,21,2022-01-28_18h10.56.295,lexical_decision_task_DD_L2,2021.2.3,Win32,59.97361161,,,,,,,,,,,0.5976,1,,,,,,,,,,,,,,z,1,0.5976,,,,,,,,0.661400475,0.021759256,0,0,0,,0,151,151,113,1,LINEW,LB,old,z,./images/LINEWLB.png,,,,,,,,,,,,,,,,,,,,,,
,,,,,,,,,,,,,,,,,199096,21,2022-01-28_18h10.56.295,lexical_decision_task_DD_L2,2021.2.3,Win32,59.97361161,,,,,,,,,,,0.5567,1,,,,,,,,,,,,,,m,1,0.5567,,,,,,,,0.661400475,0.021759256,0,0,0,,0,152,152,81,1,POODLE,HB,old,m,./images/POODLEHB.png,,,,,,,,,,,,,,,,,,,,,,
,,,,,,,,,,,,,,,,,199096,21,2022-01-28_18h10.56.295,lexical_decision_task_DD_L2,2021.2.3,Win32,59.97361161,,,,,,,,,,,0.582,1,,,,,,,,,,,,,,m,1,0.582,,,,,,,,0.661400475,0.021759256,0,0,0,,0,153,153,15,1,GREASE,HB,old,m,./images/GREASEHB.png,,,,,,,,,,,,,,,,,,,,,,
,,,,,,,,,,,,,,,,,199096,21,2022-01-28_18h10.56.295,lexical_decision_task_DD_L2,2021.2.3,Win32,59.97361161,,,,,,,,,,,0.7501,1,,,,,,,,,,,,,,z,1,0.7501,,,,,,,,0.661400475,0.021759256,0,0,0,,0,154,154,140,1,DOVET,LB,old,z,./images/DOVETLB.png,,,,,,,,,,,,,,,,,,,,,,
,,,,,,,,,,,,,,,,,199096,21,2022-01-28_18h10.56.295,lexical_decision_task_DD_L2,2021.2.3,Win32,59.97361161,,,,,,,,,,,0.5638,1,,,,,,,,,,,,,,m,1,0.5638,,,,,,,,0.661400475,0.021759256,0,0,0,,0,155,155,71,1,PIMPLE,C,old,m,./images/PIMPLE.png,,,,,,,,,,,,,,,,,,,,,,
,,,,,,,,,,,,,,,,,199096,21,2022-01-28_18h10.56.295,lexical_decision_task_DD_L2,2021.2.3,Win32,59.97361161,,,,,,,,,,,0.632,1,,,,,,,,,,,,,,z,1,0.632,,,,,,,,0.661400475,0.021759256,0,0,0,,0,156,156,164,1,SGREW,LB,old,z,./images/SGREWLB.png,,,,,,,,,,,,,,,,,,,,,,
,,,,,,,,,,,,,,,,,199096,21,2022-01-28_18h10.56.295,lexical_decision_task_DD_L2,2021.2.3,Win32,59.97361161,,,,,,,,,,,0.6625,1,,,,,,,,,,,,,,z,1,0.6625,,,,,,,,0.661400475,0.021759256,0,0,0,,0,157,157,111,1,HOSSE,C,old,z,./images/HOSSE.png,,,,,,,,,,,,,,,,,,,,,,
,,,,,,,,,,,,,,,,,199096,21,2022-01-28_18h10.56.295,lexical_decision_task_DD_L2,2021.2.3,Win32,59.97361161,,,,,,,,,,,0.5066,1,,,,,,,,,,,,,,m,1,0.5066,,,,,,,,0.661400475,0.021759256,0,0,0,,0,158,158,64,1,JELLY,LB,old,m,./images/JELLYLB.png,,,,,,,,,,,,,,,,,,,,,,
,,,,,,,,,,,,,,,,,199096,21,2022-01-28_18h10.56.295,lexical_decision_task_DD_L2,2021.2.3,Win32,59.97361161,,,,,,,,,,,0.5727,1,,,,,,,,,,,,,,m,1,0.5727,,,,,,,,0.661400475,0.021759256,0,0,0,,0,159,159,80,1,WEASEL,C,old,m,./images/WEASEL.png,,,,,,,,,,,,,,,,,,,,,,
,,,,,,,,,,,,,,,,,199096,21,2022-01-28_18h10.56.295,lexical_decision_task_DD_L2,2021.2.3,Win32,59.97361161,,,,,,,,,,,0.7106,1,,,,,,,,,,,,,,m,1,0.7106,,,,,,,,0.661400475,0.021759256,0,0,0,,0,160,160,0,1,TOMATO,HB,old,m,./images/TOMATOHB.png,,,,,,,,,,,,,,,,,,,,,,
,,,,,,,,,,,,,,,,,199096,21,2022-01-28_18h10.56.295,lexical_decision_task_DD_L2,2021.2.3,Win32,59.97361161,,,,,,,,,,,0.569,1,,,,,,,,,,,,,,z,1,0.569,,,,,,,,0.661400475,0.021759256,0,0,0,,0,161,161,135,1,JOODY,C,old,z,./images/JOODY.png,,,,,,,,,,,,,,,,,,,,,,
,,,,,,,,,,,,,,,,,199096,21,2022-01-28_18h10.56.295,lexical_decision_task_DD_L2,2021.2.3,Win32,59.97361161,,,,,,,,,,,0.8734,1,,,,,,,,,,,,,,z,1,0.8734,,,,,,,,0.661400475,0.021759256,0,0,0,,0,162,162,84,1,HAXES,C,old,z,./images/HAXES.png,,,,,,,,,,,,,,,,,,,,,,
,,,,,,,,,,,,,,,,,199096,21,2022-01-28_18h10.56.295,lexical_decision_task_DD_L2,2021.2.3,Win32,59.97361161,,,,,,,,,,,0.4973,1,,,,,,,,,,,,,,m,1,0.4973,,,,,,,,0.661400475,0.021759256,0,0,0,,0,163,163,37,1,BIRTH,LB,old,m,./images/BIRTHLB.png,,,,,,,,,,,,,,,,,,,,,,
,,,,,,,,,,,,,,,,,199096,21,2022-01-28_18h10.56.295,lexical_decision_task_DD_L2,2021.2.3,Win32,59.97361161,,,,,,,,,,,0.4907,1,,,,,,,,,,,,,,m,1,0.4907,,,,,,,,0.661400475,0.021759256,0,0,0,,0,164,164,60,1,TWINS,HB,old,m,./images/TWINSHB.png,,,,,,,,,,,,,,,,,,,,,,
,,,,,,,,,,,,,,,,,199096,21,2022-01-28_18h10.56.295,lexical_decision_task_DD_L2,2021.2.3,Win32,59.97361161,,,,,,,,,,,0.5906,1,,,,,,,,,,,,,,z,1,0.5906,,,,,,,,0.661400475,0.021759256,0,0,0,,0,165,165,134,1,TROSS,LB,old,z,./images/TROSSLB.png,,,,,,,,,,,,,,,,,,,,,,
,,,,,,,,,,,,,,,,,199096,21,2022-01-28_18h10.56.295,lexical_decision_task_DD_L2,2021.2.3,Win32,59.97361161,,,,,,,,,,,0.5894,1,,,,,,,,,,,,,,z,1,0.5894,,,,,,,,0.661400475,0.021759256,0,0,0,,0,166,166,156,1,HIXES,C,old,z,./images/HIXES.png,,,,,,,,,,,,,,,,,,,,,,
,,,,,,,,,,,,,,,,,199096,21,2022-01-28_18h10.56.295,lexical_decision_task_DD_L2,2021.2.3,Win32,59.97361161,,,,,,,,,,,0.6867,1,,,,,,,,,,,,,,z,1,0.6867,,,,,,,,0.661400475,0.021759256,0,0,0,,0,167,167,98,1,BAMPS,LB,old,z,./images/BAMPSLB.png,,,,,,,,,,,,,,,,,,,,,,
space,12.3088,0.661400475,0.021759256,0,0,0,,,,,,1,test,"In the next phase you will be presented with the words from the the first phase. Your job is to decide whether you remember seeing the word or not. If you remember seeing the word press ""old"" or type ""m"". If you do not remember seeing the word press ""new"" or type ""z"". Please press the space bar or click on continue to begin. ",,,199096,21,2022-01-28_18h10.56.295,lexical_decision_task_DD_L2,2021.2.3,Win32,59.97361161,,,,,,,,,,,,,,,,,,,,,,,,,,,,,,,,,,,,,,,,,,,,,,,,,,,,,0,0,0,0,1,,,,,,,,,,,,,,,,
space,1.445,0.661400475,0.021759256,0,0,0,,,,,,1,test,"In the next phase you will be presented with the words from the the first phase. Your job is to decide whether you remember seeing the word or not. If you remember seeing the word press ""old"" or type ""m"". If you do not remember seeing the word press ""new"" or type ""z"". Please press the space bar or click on continue to begin. ",,,199096,21,2022-01-28_18h10.56.295,lexical_decision_task_DD_L2,2021.2.3,Win32,59.97361161,,,,,,,,,,,,,,,,,,,,,,,,,,,,,,,,,,,,,,,,,,,,,,,,,,,,,1,0,1,0,1,,,,,,,,,,,,,,,,
space,2.2433,0.661400475,0.021759256,0,0,0,,,,,,1,test,"In the next phase you will be presented with the words from the the first phase. Your job is to decide whether you remember seeing the word or not. If you remember seeing the word press ""old"" or type ""m"". If you do not remember seeing the word press ""new"" or type ""z"". Please press the space bar or click on continue to begin. ",,,199096,21,2022-01-28_18h10.56.295,lexical_decision_task_DD_L2,2021.2.3,Win32,59.97361161,,,,,,,,,,,,,,,,,,,,,,,,,,,,,,,,,,,,,,,,,,,,,,,,,,,,,2,0,2,0,1,,,,,,,,,,,,,,,,
,,0.033159729,-0.40833334,1,0,0,,,,,,1,test,"In the next phase you will be presented with the words from the the first phase. Your job is to decide whether you remember seeing the word or not. If you remember seeing the word press ""old"" or type ""m"". If you do not remember seeing the word press ""new"" or type ""z"". Please press the space bar or click on continue to begin. ",,,199096,21,2022-01-28_18h10.56.295,lexical_decision_task_DD_L2,2021.2.3,Win32,59.97361161,,,,,,,,,,,,,,,,,,,,,,,,,,,,,,,,,,,,,,,,,,,,,,,,,,,,,3,0,3,0,1,instr_done_button,,,,,,,,,,,,,,,
space,1.6975,0.528993066,0.091666664,0,0,0,,,,,,1,test,"In the next phase you will be presented with the words from the the first phase. Your job is to decide whether you remember seeing the word or not. If you remember seeing the word press ""old"" or type ""m"". If you do not remember seeing the word press ""new"" or type ""z"". Please press the space bar or click on continue to begin. ",,,199096,21,2022-01-28_18h10.56.295,lexical_decision_task_DD_L2,2021.2.3,Win32,59.97361161,,,,,,,,,,,,,,,,,,,,,,,,,,,,,,,,,,,,,,,,,,,,,,,,,,,,,4,0,4,0,1,,,,,,,,,,,,,,,,
,,,,,,,,,,,,,,,,,199096,21,2022-01-28_18h10.56.295,lexical_decision_task_DD_L2,2021.2.3,Win32,59.97361161,,,,,,,,,,,1.7631,1,,,,,,,,,,,,,,,,,,,,,,,,0.528993066,0.091666664,0,0,0,,,,,,,LADDER,C,m,y,./images/LADDER.png,,,,,,,,m,1,1.7631,,,,,,,,0,0,0,38,1
,,,,,,,,,,,,,,,,,199096,21,2022-01-28_18h10.56.295,lexical_decision_task_DD_L2,2021.2.3,Win32,59.97361161,,,,,,,,,,,0.852,1,,,,,,,,,,,,,,,,,,,,,,,,0.528993066,0.091666664,0,0,0,,,,,,,BONNET,C,m,y,./images/BONNET.png,,,,,,,,m,1,0.852,,,,,,,,0,1,1,11,1
,,,,,,,,,,,,,,,,,199096,21,2022-01-28_18h10.56.295,lexical_decision_task_DD_L2,2021.2.3,Win32,59.97361161,,,,,,,,,,,0.9471,0,,,,,,,,,,,,,,,,,,,,,,,,0.528993066,0.091666664,0,0,0,,,,,,,MUMMY,LB,z,y,./images/MUMMYLB.png,,,,,,,,m,0,0.9471,,,,,,,,0,2,2,130,1
,,,,,,,,,,,,,,,,,199096,21,2022-01-28_18h10.56.295,lexical_decision_task_DD_L2,2021.2.3,Win32,59.97361161,,,,,,,,,,,0.7063,1,,,,,,,,,,,,,,,,,,,,,,,,0.528993066,0.091666664,0,0,0,,,,,,,MUSCLE,LB,m,y,./images/MUSCLELB.png,,,,,,,,m,1,0.7063,,,,,,,,0,3,3,4,1
,,,,,,,,,,,,,,,,,199096,21,2022-01-28_18h10.56.295,lexical_decision_task_DD_L2,2021.2.3,Win32,59.97361161,,,,,,,,,,,1.4537,1,,,,,,,,,,,,,,,,,,,,,,,,0.528993066,0.091666664,0,0,0,,,,,,,CHERRY,HB,z,y,./images/CHERRYHB.png,,,,,,,,z,1,1.4537,,,,,,,,0,4,4,138,1
,,,,,,,,,,,,,,,,,199096,21,2022-01-28_18h10.56.295,lexical_decision_task_DD_L2,2021.2.3,Win32,59.97361161,,,,,,,,,,,0.7638,1,,,,,,,,,,,,,,,,,,,,,,,,0.528993066,0.091666664,0,0,0,,,,,,,SWING,LB,m,y,./images/SWINGLB.png,,,,,,,,m,1,0.7638,,,,,,,,0,5,5,40,1
,,,,,,,,,,,,,,,,,199096,21,2022-01-28_18h10.56.295,lexical_decision_task_DD_L2,2021.2.3,Win32,59.97361161,,,,,,,,,,,0.7881,1,,,,,,,,,,,,,,,,,,,,,,,,0.528993066,0.091666664,0,0,0,,,,,,,BANANA,LB,z,y,./images/BANANALB.png,,,,,,,,z,1,0.7881,,,,,,,,0,6,6,154,1
,,,,,,,,,,,,,,,,,199096,21,2022-01-28_18h10.56.295,lexical_decision_task_DD_L2,2021.2.3,Win32,59.97361161,,,,,,,,,,,0.6757,0,,,,,,,,,,,,,,,,,,,,,,,,0.528993066,0.091666664,0,0,0,,,,,,,PILOT,C,z,y,./images/PILOT.png,,,,,,,,m,0,0.6757,,,,,,,,0,7,7,134,1
,,,,,,,,,,,,,,,,,199096,21,2022-01-28_18h10.56.295,lexical_decision_task_DD_L2,2021.2.3,Win32,59.97361161,,,,,,,,,,,1.1045,1,,,,,,,,,,,,,,,,,,,,,,,,0.528993066,0.091666664,0,0,0,,,,,,,SLOPE,HB,z,y,./images/SLOPEHB.png,,,,,,,,z,1,1.1045,,,,,,,,0,8,8,114,1
,,,,,,,,,,,,,,,,,199096,21,2022-01-28_18h10.56.295,lexical_decision_task_DD_L2,2021.2.3,Win32,59.97361161,,,,,,,,,,,1.404,1,,,,,,,,,,,,,,,,,,,,,,,,0.528993066,0.091666664,0,0,0,,,,,,,CLOTH,C,z,y,./images/CLOTH.png,,,,,,,,z,1,1.404,,,,,,,,0,9,9,107,1
,,,,,,,,,,,,,,,,,199096,21,2022-01-28_18h10.56.295,lexical_decision_task_DD_L2,2021.2.3,Win32,59.97361161,,,,,,,,,,,1.0112,0,,,,,,,,,,,,,,,,,,,,,,,,0.528993066,0.091666664,0,0,0,,,,,,,FALCON,LB,m,y,./images/FALCONLB.png,,,,,,,,z,0,1.0112,,,,,,,,0,10,10,28,1
,,,,,,,,,,,,,,,,,199096,21,2022-01-28_18h10.56.295,lexical_decision_task_DD_L2,2021.2.3,Win32,59.97361161,,,,,,,,,,,1.7389,0,,,,,,,,,,,,,,,,,,,,,,,,0.528993066,0.091666664,0,0,0,,,,,,,ATTIC,HB,m,y,./images/ATTICHB.png,,,,,,,,z,0,1.7389,,,,,,,,0,11,11,27,1
,,,,,,,,,,,,,,,,,199096,21,2022-01-28_18h10.56.295,lexical_decision_task_DD_L2,2021.2.3,Win32,59.97361161,,,,,,,,,,,0.8049,1,,,,,,,,,,,,,,,,,,,,,,,,0.528993066,0.091666664,0,0,0,,,,,,,SHORE,HB,m,y,./images/SHOREHB.png,,,,,,,,m,1,0.8049,,,,,,,,0,12,12,12,1
,,,,,,,,,,,,,,,,,199096,21,2022-01-28_18h10.56.295,lexical_decision_task_DD_L2,2021.2.3,Win32,59.97361161,,,,,,,,,,,0.7878,1,,,,,,,,,,,,,,,,,,,,,,,,0.528993066,0.091666664,0,0,0,,,,,,,INFANT,LB,m,y,./images/INFANTLB.png,,,,,,,,m,1,0.7878,,,,,,,,0,13,13,76,1
,,,,,,,,,,,,,,,,,199096,21,2022-01-28_18h10.56.295,lexical_decision_task_DD_L2,2021.2.3,Win32,59.97361161,,,,,,,,,,,1.836,1,,,,,,,,,,,,,,,,,,,,,,,,0.528993066,0.091666664,0,0,0,,,,,,,MIDGET,LB,z,y,./images/MIDGETLB.png,,,,,,,,z,1,1.836,,,,,,,,0,14,14,160,1
,,,,,,,,,,,,,,,,,199096,21,2022-01-28_18h10.56.295,lexical_decision_task_DD_L2,2021.2.3,Win32,59.97361161,,,,,,,,,,,0.6019,1,,,,,,,,,,,,,,,,,,,,,,,,0.528993066,0.091666664,0,0,0,,,,,,,SKIING,C,m,y,./images/SKIING.png,,,,,,,,m,1,0.6019,,,,,,,,0,15,15,17,1
,,,,,,,,,,,,,,,,,199096,21,2022-01-28_18h10.56.295,lexical_decision_task_DD_L2,2021.2.3,Win32,59.97361161,,,,,,,,,,,0.9617,1,,,,,,,,,,,,,,,,,,,,,,,,0.528993066,0.091666664,0,0,0,,,,,,,RULER,LB,z,y,./images/RULERLB.png,,,,,,,,z,1,0.9617,,,,,,,,0,16,16,163,1
,,,,,,,,,,,,,,,,,199096,21,2022-01-28_18h10.56.295,lexical_decision_task_DD_L2,2021.2.3,Win32,59.97361161,,,,,,,,,,,0.627,1,,,,,,,,,,,,,,,,,,,,,,,,0.528993066,0.091666664,0,0,0,,,,,,,BARREL,C,m,y,./images/BARREL.png,,,,,,,,m,1,0.627,,,,,,,,0,17,17,32,1
,,,,,,,,,,,,,,,,,199096,21,2022-01-28_18h10.56.295,lexical_decision_task_DD_L2,2021.2.3,Win32,59.97361161,,,,,,,,,,,1.2493,0,,,,,,,,,,,,,,,,,,,,,,,,0.528993066,0.091666664,0,0,0,,,,,,,SHIELD,HB,z,y,./images/SHIELDHB.png,,,,,,,,m,0,1.2493,,,,,,,,0,18,18,132,1
,,,,,,,,,,,,,,,,,199096,21,2022-01-28_18h10.56.295,lexical_decision_task_DD_L2,2021.2.3,Win32,59.97361161,,,,,,,,,,,0.8229,1,,,,,,,,,,,,,,,,,,,,,,,,0.528993066,0.091666664,0,0,0,,,,,,,FLASK,HB,z,y,./images/FLASKHB.png,,,,,,,,z,1,0.8229,,,,,,,,0,19,19,156,1
,,,,,,,,,,,,,,,,,199096,21,2022-01-28_18h10.56.295,lexical_decision_task_DD_L2,2021.2.3,Win32,59.97361161,,,,,,,,,,,0.5575,1,,,,,,,,,,,,,,,,,,,,,,,,0.528993066,0.091666664,0,0,0,,,,,,,URINE,LB,m,y,./images/URINELB.png,,,,,,,,m,1,0.5575,,,,,,,,0,20,20,70,1
,,,,,,,,,,,,,,,,,199096,21,2022-01-28_18h10.56.295,lexical_decision_task_DD_L2,2021.2.3,Win32,59.97361161,,,,,,,,,,,0.6141,0,,,,,,,,,,,,,,,,,,,,,,,,0.528993066,0.091666664,0,0,0,,,,,,,STOOL,LB,z,y,./images/STOOLLB.png,,,,,,,,m,0,0.6141,,,,,,,,0,21,21,127,1
,,,,,,,,,,,,,,,,,199096,21,2022-01-28_18h10.56.295,lexical_decision_task_DD_L2,2021.2.3,Win32,59.97361161,,,,,,,,,,,0.59,1,,,,,,,,,,,,,,,,,,,,,,,,0.528993066,0.091666664,0,0,0,,,,,,,GRAIN,HB,m,y,./images/GRAINHB.png,,,,,,,,m,1,0.59,,,,,,,,0,22,22,75,1
,,,,,,,,,,,,,,,,,199096,21,2022-01-28_18h10.56.295,lexical_decision_task_DD_L2,2021.2.3,Win32,59.97361161,,,,,,,,,,,1.6213,1,,,,,,,,,,,,,,,,,,,,,,,,0.528993066,0.091666664,0,0,0,,,,,,,SAUNA,HB,z,y,./images/SAUNAHB.png,,,,,,,,z,1,1.6213,,,,,,,,0,23,23,117,1
,,,,,,,,,,,,,,,,,199096,21,2022-01-28_18h10.56.295,lexical_decision_task_DD_L2,2021.2.3,Win32,59.97361161,,,,,,,,,,,1.4762,1,,,,,,,,,,,,,,,,,,,,,,,,0.528993066,0.091666664,0,0,0,,,,,,,SPINE,C,z,y,./images/SPINE.png,,,,,,,,z,1,1.4762,,,,,,,,0,24,24,149,1
,,,,,,,,,,,,,,,,,199096,21,2022-01-28_18h10.56.295,lexical_decision_task_DD_L2,2021.2.3,Win32,59.97361161,,,,,,,,,,,1.9368,1,,,,,,,,,,,,,,,,,,,,,,,,0.528993066,0.091666664,0,0,0,,,,,,,CRATER,HB,z,y,./images/CRATERHB.png,,,,,,,,z,1,1.9368,,,,,,,,0,25,25,87,1
,,,,,,,,,,,,,,,,,199096,21,2022-01-28_18h10.56.295,lexical_decision_task_DD_L2,2021.2.3,Win32,59.97361161,,,,,,,,,,,0.667,0,,,,,,,,,,,,,,,,,,,,,,,,0.528993066,0.091666664,0,0,0,,,,,,,VALLEY,C,z,y,./images/VALLEY.png,,,,,,,,m,0,0.667,,,,,,,,0,26,26,152,1
,,,,,,,,,,,,,,,,,199096,21,2022-01-28_18h10.56.295,lexical_decision_task_DD_L2,2021.2.3,Win32,59.97361161,,,,,,,,,,,0.5594,1,,,,,,,,,,,,,,,,,,,,,,,,0.528993066,0.091666664,0,0,0,,,,,,,POODLE,HB,m,y,./images/POODLEHB.png,,,,,,,,m,1,0.5594,,,,,,,,0,27,27,81,1
,,,,,,,,,,,,,,,,,199096,21,2022-01-28_18h10.56.295,lexical_decision_task_DD_L2,2021.2.3,Win32,59.97361161,,,,,,,,,,,0.6568,0,,,,,,,,,,,,,,,,,,,,,,,,0.528993066,0.091666664,0,0,0,,,,,,,STEAK,LB,z,y,./images/STEAKLB.png,,,,,,,,m,0,0.6568,,,,,,,,0,28,28,115,1
,,,,,,,,,,,,,,,,,199096,21,2022-01-28_18h10.56.295,lexical_decision_task_DD_L2,2021.2.3,Win32,59.97361161,,,,,,,,,,,0.6702,0,,,,,,,,,,,,,,,,,,,,,,,,0.528993066,0.091666664,0,0,0,,,,,,,WHEEL,C,z,y,./images/WHEEL.png,,,,,,,,m,0,0.6702,,,,,,,,0,29,29,161,1
,,,,,,,,,,,,,,,,,199096,21,2022-01-28_18h10.56.295,lexical_decision_task_DD_L2,2021.2.3,Win32,59.97361161,,,,,,,,,,,1.4268,1,,,,,,,,,,,,,,,,,,,,,,,,0.528993066,0.091666664,0,0,0,,,,,,,COUCH,C,m,y,./images/COUCH.png,,,,,,,,m,1,1.4268,,,,,,,,0,30,30,77,1
,,,,,,,,,,,,,,,,,199096,21,2022-01-28_18h10.56.295,lexical_decision_task_DD_L2,2021.2.3,Win32,59.97361161,,,,,,,,,,,0.9138,1,,,,,,,,,,,,,,,,,,,,,,,,0.528993066,0.091666664,0,0,0,,,,,,,MOSQUE,LB,m,y,./images/MOSQUELB.png,,,,,,,,m,1,0.9138,,,,,,,,0,31,31,43,1
,,,,,,,,,,,,,,,,,199096,21,2022-01-28_18h10.56.295,lexical_decision_task_DD_L2,2021.2.3,Win32,59.97361161,,,,,,,,,,,0.9399,1,,,,,,,,,,,,,,,,,,,,,,,,0.528993066,0.091666664,0,0,0,,,,,,,BRUSH,C,z,y,./images/BRUSH.png,,,,,,,,z,1,0.9399,,,,,,,,0,32,32,143,1
,,,,,,,,,,,,,,,,,199096,21,2022-01-28_18h10.56.295,lexical_decision_task_DD_L2,2021.2.3,Win32,59.97361161,,,,,,,,,,,0.606,1,,,,,,,,,,,,,,,,,,,,,,,,0.528993066,0.091666664,0,0,0,,,,,,,THROAT,HB,m,y,./images/THROATHB.png,,,,,,,,m,1,0.606,,,,,,,,0,33,33,36,1
,,,,,,,,,,,,,,,,,199096,21,2022-01-28_18h10.56.295,lexical_decision_task_DD_L2,2021.2.3,Win32,59.97361161,,,,,,,,,,,0.8474,1,,,,,,,,,,,,,,,,,,,,,,,,0.528993066,0.091666664,0,0,0,,,,,,,DRILL,HB,z,y,./images/DRILLHB.png,,,,,,,,z,1,0.8474,,,,,,,,0,34,34,165,1
,,,,,,,,,,,,,,,,,199096,21,2022-01-28_18h10.56.295,lexical_decision_task_DD_L2,2021.2.3,Win32,59.97361161,,,,,,,,,,,2.0989,0,,,,,,,,,,,,,,,,,,,,,,,,0.528993066,0.091666664,0,0,0,,,,,,,MEDAL,C,z,y,./images/MEDAL.png,,,,,,,,m,0,2.0989,,,,,,,,0,35,35,95,1
,,,,,,,,,,,,,,,,,199096,21,2022-01-28_18h10.56.295,lexical_decision_task_DD_L2,2021.2.3,Win32,59.97361161,,,,,,,,,,,0.6705,1,,,,,,,,,,,,,,,,,,,,,,,,0.528993066,0.091666664,0,0,0,,,,,,,CEMENT,C,m,y,./images/CEMENT.png,,,,,,,,m,1,0.6705,,,,,,,,0,36,36,74,1
,,,,,,,,,,,,,,,,,199096,21,2022-01-28_18h10.56.295,lexical_decision_task_DD_L2,2021.2.3,Win32,59.97361161,,,,,,,,,,,1.1148,1,,,,,,,,,,,,,,,,,,,,,,,,0.528993066,0.091666664,0,0,0,,,,,,,JUMPER,C,z,y,./images/JUMPER.png,,,,,,,,z,1,1.1148,,,,,,,,0,37,37,158,1
,,,,,,,,,,,,,,,,,199096,21,2022-01-28_18h10.56.295,lexical_decision_task_DD_L2,2021.2.3,Win32,59.97361161,,,,,,,,,,,0.6694,0,,,,,,,,,,,,,,,,,,,,,,,,0.528993066,0.091666664,0,0,0,,,,,,,CHALK,LB,z,y,./images/CHALKLB.png,,,,,,,,m,0,0.6694,,,,,,,,0,38,38,109,1
,,,,,,,,,,,,,,,,,199096,21,2022-01-28_18h10.56.295,lexical_decision_task_DD_L2,2021.2.3,Win32,59.97361161,,,,,,,,,,,0.5704,1,,,,,,,,,,,,,,,,,,,,,,,,0.528993066,0.091666664,0,0,0,,,,,,,SCREW,HB,m,y,./images/SCREWHB.png,,,,,,,,m,1,0.5704,,,,,,,,0,39,39,24,1
,,,,,,,,,,,,,,,,,199096,21,2022-01-28_18h10.56.295,lexical_decision_task_DD_L2,2021.2.3,Win32,59.97361161,,,,,,,,,,,1.2987,0,,,,,,,,,,,,,,,,,,,,,,,,0.528993066,0.091666664,0,0,0,,,,,,,BUBBLE,C,z,y,./images/BUBBLE.png,,,,,,,,m,0,1.2987,,,,,,,,0,40,40,155,1
,,,,,,,,,,,,,,,,,199096,21,2022-01-28_18h10.56.295,lexical_decision_task_DD_L2,2021.2.3,Win32,59.97361161,,,,,,,,,,,0.5897,1,,,,,,,,,,,,,,,,,,,,,,,,0.528993066,0.091666664,0,0,0,space,,,,,,WALRUS,C,m,y,./images/WALRUS.png,1.0937,,,,,,,m,1,0.5897,,,,,,,,0,41,41,23,1
,,,,,,,,,,,,,,,,,199096,21,2022-01-28_18h10.56.295,lexical_decision_task_DD_L2,2021.2.3,Win32,59.97361161,,,,,,,,,,,0.6423,1,,,,,,,,,,,,,,,,,,,,,,,,0.528993066,0.091666664,0,0,0,,,,,,,MELON,LB,m,y,./images/MELONLB.png,,,,,,,,m,1,0.6423,,,,,,,,0,42,42,22,1
,,,,,,,,,,,,,,,,,199096,21,2022-01-28_18h10.56.295,lexical_decision_task_DD_L2,2021.2.3,Win32,59.97361161,,,,,,,,,,,0.7441,1,,,,,,,,,,,,,,,,,,,,,,,,0.528993066,0.091666664,0,0,0,,,,,,,CANOE,LB,z,y,./images/CANOELB.png,,,,,,,,z,1,0.7441,,,,,,,,0,43,43,142,1
,,,,,,,,,,,,,,,,,199096,21,2022-01-28_18h10.56.295,lexical_decision_task_DD_L2,2021.2.3,Win32,59.97361161,,,,,,,,,,,1.1941,1,,,,,,,,,,,,,,,,,,,,,,,,0.528993066,0.091666664,0,0,0,,,,,,,CANDY,HB,z,y,./images/CANDYHB.png,,,,,,,,z,1,1.1941,,,,,,,,0,44,44,123,1
,,,,,,,,,,,,,,,,,199096,21,2022-01-28_18h10.56.295,lexical_decision_task_DD_L2,2021.2.3,Win32,59.97361161,,,,,,,,,,,0.8102,0,,,,,,,,,,,,,,,,,,,,,,,,0.528993066,0.091666664,0,0,0,,,,,,,LLAMA,C,z,y,./images/LLAMA.png,,,,,,,,m,0,0.8102,,,,,,,,0,45,45,119,1
,,,,,,,,,,,,,,,,,199096,21,2022-01-28_18h10.56.295,lexical_decision_task_DD_L2,2021.2.3,Win32,59.97361161,,,,,,,,,,,0.9638,1,,,,,,,,,,,,,,,,,,,,,,,,0.528993066,0.091666664,0,0,0,,,,,,,JUNGLE,C,m,y,./images/JUNGLE.png,,,,,,,,m,1,0.9638,,,,,,,,0,46,46,83,1
,,,,,,,,,,,,,,,,,199096,21,2022-01-28_18h10.56.295,lexical_decision_task_DD_L2,2021.2.3,Win32,59.97361161,,,,,,,,,,,0.6502,0,,,,,,,,,,,,,,,,,,,,,,,,0.528993066,0.091666664,0,0,0,,,,,,,CLIFF,C,z,y,./images/CLIFF.png,,,,,,,,m,0,0.6502,,,,,,,,0,47,47,92,1
,,,,,,,,,,,,,,,,,199096,21,2022-01-28_18h10.56.295,lexical_decision_task_DD_L2,2021.2.3,Win32,59.97361161,,,,,,,,,,,0.6719,1,,,,,,,,,,,,,,,,,,,,,,,,0.528993066,0.091666664,0,0,0,,,,,,,DRUMS,LB,m,y,./images/DRUMSLB.png,,,,,,,,m,1,0.6719,,,,,,,,0,48,48,49,1
,,,,,,,,,,,,,,,,,199096,21,2022-01-28_18h10.56.295,lexical_decision_task_DD_L2,2021.2.3,Win32,59.97361161,,,,,,,,,,,0.5644,1,,,,,,,,,,,,,,,,,,,,,,,,0.528993066,0.091666664,0,0,0,,,,,,,BABOON,LB,m,y,./images/BABOONLB.png,,,,,,,,m,1,0.5644,,,,,,,,0,49,49,58,1
,,,,,,,,,,,,,,,,,199096,21,2022-01-28_18h10.56.295,lexical_decision_task_DD_L2,2021.2.3,Win32,59.97361161,,,,,,,,,,,0.6848,1,,,,,,,,,,,,,,,,,,,,,,,,0.528993066,0.091666664,0,0,0,,,,,,,WRIST,LB,m,y,./images/WRISTLB.png,,,,,,,,m,1,0.6848,,,,,,,,0,50,50,25,1
,,,,,,,,,,,,,,,,,199096,21,2022-01-28_18h10.56.295,lexical_decision_task_DD_L2,2021.2.3,Win32,59.97361161,,,,,,,,,,,0.4891,1,,,,,,,,,,,,,,,,,,,,,,,,0.528993066,0.091666664,0,0,0,,,,,,,CANYON,LB,m,y,./images/CANYONLB.png,,,,,,,,m,1,0.4891,,,,,,,,0,51,51,34,1
,,,,,,,,,,,,,,,,,199096,21,2022-01-28_18h10.56.295,lexical_decision_task_DD_L2,2021.2.3,Win32,59.97361161,,,,,,,,,,,1.3172,0,,,,,,,,,,,,,,,,,,,,,,,,0.528993066,0.091666664,0,0,0,,,,,,,BOXER,LB,z,y,./images/BOXERLB.png,,,,,,,,m,0,1.3172,,,,,,,,0,52,52,88,1
,,,,,,,,,,,,,,,,,199096,21,2022-01-28_18h10.56.295,lexical_decision_task_DD_L2,2021.2.3,Win32,59.97361161,,,,,,,,,,,0.5757,1,,,,,,,,,,,,,,,,,,,,,,,,0.528993066,0.091666664,0,0,0,,,,,,,DOUGH,LB,m,y,./images/DOUGHLB.png,,,,,,,,m,1,0.5757,,,,,,,,0,53,53,19,1
,,,,,,,,,,,,,,,,,199096,21,2022-01-28_18h10.56.295,lexical_decision_task_DD_L2,2021.2.3,Win32,59.97361161,,,,,,,,,,,0.4976,1,,,,,,,,,,,,,,,,,,,,,,,,0.528993066,0.091666664,0,0,0,,,,,,,CRUST,LB,m,y,./images/CRUSTLB.png,,,,,,,,m,1,0.4976,,,,,,,,0,54,54,79,1
,,,,,,,,,,,,,,,,,199096,21,2022-01-28_18h10.56.295,lexical_decision_task_DD_L2,2021.2.3,Win32,59.97361161,,,,,,,,,,,0.7803,1,,,,,,,,,,,,,,,,,,,,,,,,0.528993066,0.091666664,0,0,0,,,,,,,STAIN,HB,z,y,./images/STAINHB.png,,,,,,,,z,1,0.7803,,,,,,,,0,55,55,90,1
,,,,,,,,,,,,,,,,,199096,21,2022-01-28_18h10.56.295,lexical_decision_task_DD_L2,2021.2.3,Win32,59.97361161,,,,,,,,,,,0.6435,1,,,,,,,,,,,,,,,,,,,,,,,,0.528993066,0.091666664,0,0,0,,,,,,,PICKLE,C,m,y,./images/PICKLE.png,,,,,,,,m,1,0.6435,,,,,,,,0,56,56,14,1
,,,,,,,,,,,,,,,,,199096,21,2022-01-28_18h10.56.295,lexical_decision_task_DD_L2,2021.2.3,Win32,59.97361161,,,,,,,,,,,0.9221,1,,,,,,,,,,,,,,,,,,,,,,,,0.528993066,0.091666664,0,0,0,,,,,,,BISHOP,LB,z,y,./images/BISHOPLB.png,,,,,,,,z,1,0.9221,,,,,,,,0,57,57,133,1
,,,,,,,,,,,,,,,,,199096,21,2022-01-28_18h10.56.295,lexical_decision_task_DD_L2,2021.2.3,Win32,59.97361161,,,,,,,,,,,0.631,1,,,,,,,,,,,,,,,,,,,,,,,,0.528993066,0.091666664,0,0,0,,,,,,,GREASE,HB,m,y,./images/GREASEHB.png,,,,,,,,m,1,0.631,,,,,,,,0,58,58,15,1
,,,,,,,,,,,,,,,,,199096,21,2022-01-28_18h10.56.295,lexical_decision_task_DD_L2,2021.2.3,Win32,59.97361161,,,,,,,,,,,1.0502,1,,,,,,,,,,,,,,,,,,,,,,,,0.528993066,0.091666664,0,0,0,,,,,,,BAMBOO,C,z,y,./images/BAMBOO.png,,,,,,,,z,1,1.0502,,,,,,,,0,59,59,89,1
,,,,,,,,,,,,,,,,,199096,21,2022-01-28_18h10.56.295,lexical_decision_task_DD_L2,2021.2.3,Win32,59.97361161,,,,,,,,,,,0.6397,1,,,,,,,,,,,,,,,,,,,,,,,,0.528993066,0.091666664,0,0,0,,,,,,,CASINO,LB,z,y,./images/CASINOLB.png,,,,,,,,z,1,0.6397,,,,,,,,0,60,60,112,1
,,,,,,,,,,,,,,,,,199096,21,2022-01-28_18h10.56.295,lexical_decision_task_DD_L2,2021.2.3,Win32,59.97361161,,,,,,,,,,,0.5658,1,,,,,,,,,,,,,,,,,,,,,,,,0.528993066,0.091666664,0,0,0,,,,,,,PEACH,C,m,y,./images/PEACH.png,,,,,,,,m,1,0.5658,,,,,,,,0,61,61,35,1
,,,,,,,,,,,,,,,,,199096,21,2022-01-28_18h10.56.295,lexical_decision_task_DD_L2,2021.2.3,Win32,59.97361161,,,,,,,,,,,0.7022,1,,,,,,,,,,,,,,,,,,,,,,,,0.528993066,0.091666664,0,0,0,,,,,,,BANNER,LB,m,y,./images/BANNERLB.png,,,,,,,,m,1,0.7022,,,,,,,,0,62,62,52,1
,,,,,,,,,,,,,,,,,199096,21,2022-01-28_18h10.56.295,lexical_decision_task_DD_L2,2021.2.3,Win32,59.97361161,,,,,,,,,,,0.6979,1,,,,,,,,,,,,,,,,,,,,,,,,0.528993066,0.091666664,0,0,0,,,,,,,PLANET,C,z,y,./images/PLANET.png,,,,,,,,z,1,0.6979,,,,,,,,0,63,63,164,1
,,,,,,,,,,,,,,,,,199096,21,2022-01-28_18h10.56.295,lexical_decision_task_DD_L2,2021.2.3,Win32,59.97361161,,,,,,,,,,,0.6534,1,,,,,,,,,,,,,,,,,,,,,,,,0.528993066,0.091666664,0,0,0,,,,,,,CRADLE,C,m,y,./images/CRADLE.png,,,,,,,,m,1,0.6534,,,,,,,,0,64,64,20,1
,,,,,,,,,,,,,,,,,199096,21,2022-01-28_18h10.56.295,lexical_decision_task_DD_L2,2021.2.3,Win32,59.97361161,,,,,,,,,,,0.6344,1,,,,,,,,,,,,,,,,,,,,,,,,0.528993066,0.091666664,0,0,0,,,,,,,RAZOR,LB,z,y,./images/RAZORLB.png,,,,,,,,z,1,0.6344,,,,,,,,0,65,65,118,1
,,,,,,,,,,,,,,,,,199096,21,2022-01-28_18h10.56.295,lexical_decision_task_DD_L2,2021.2.3,Win32,59.97361161,,,,,,,,,,,0.7363,1,,,,,,,,,,,,,,,,,,,,,,,,0.528993066,0.091666664,0,0,0,,,,,,,POSTER,C,z,y,./images/POSTER.png,,,,,,,,z,1,0.7363,,,,,,,,0,66,66,137,1
,,,,,,,,,,,,,,,,,199096,21,2022-01-28_18h10.56.295,lexical_decision_task_DD_L2,2021.2.3,Win32,59.97361161,,,,,,,,,,,0.4905,1,,,,,,,,,,,,,,,,,,,,,,,,0.528993066,0.091666664,0,0,0,,,,,,,CARPET,C,m,y,./images/CARPET.png,,,,,,,,m,1,0.4905,,,,,,,,0,67,67,53,1
,,,,,,,,,,,,,,,,,199096,21,2022-01-28_18h10.56.295,lexical_decision_task_DD_L2,2021.2.3,Win32,59.97361161,,,,,,,,,,,0.6145,1,,,,,,,,,,,,,,,,,,,,,,,,0.528993066,0.091666664,0,0,0,,,,,,,FERRY,HB,z,y,./images/FERRYHB.png,,,,,,,,z,1,0.6145,,,,,,,,0,68,68,141,1
,,,,,,,,,,,,,,,,,199096,21,2022-01-28_18h10.56.295,lexical_decision_task_DD_L2,2021.2.3,Win32,59.97361161,,,,,,,,,,,0.6451,1,,,,,,,,,,,,,,,,,,,,,,,,0.528993066,0.091666664,0,0,0,,,,,,,FINGER,HB,m,y,./images/FINGERHB.png,,,,,,,,m,1,0.6451,,,,,,,,0,69,69,3,1
,,,,,,,,,,,,,,,,,199096,21,2022-01-28_18h10.56.295,lexical_decision_task_DD_L2,2021.2.3,Win32,59.97361161,,,,,,,,,,,0.8357,1,,,,,,,,,,,,,,,,,,,,,,,,0.528993066,0.091666664,0,0,0,,,,,,,PASTA,C,m,y,./images/PASTA.png,,,,,,,,m,1,0.8357,,,,,,,,0,70,70,5,1
,,,,,,,,,,,,,,,,,199096,21,2022-01-28_18h10.56.295,lexical_decision_task_DD_L2,2021.2.3,Win32,59.97361161,,,,,,,,,,,0.5933,1,,,,,,,,,,,,,,,,,,,,,,,,0.528993066,0.091666664,0,0,0,,,,,,,NOOSE,HB,m,y,./images/NOOSEHB.png,,,,,,,,m,1,0.5933,,,,,,,,0,71,71,72,1
,,,,,,,,,,,,,,,,,199096,21,2022-01-28_18h10.56.295,lexical_decision_task_DD_L2,2021.2.3,Win32,59.97361161,,,,,,,,,,,0.5695,0,,,,,,,,,,,,,,,,,,,,,,,,0.528993066,0.091666664,0,0,0,,,,,,,WHISKY,C,z,y,./images/WHISKY.png,,,,,,,,m,0,0.5695,,,,,,,,0,72,72,167,1
,,,,,,,,,,,,,,,,,199096,21,2022-01-28_18h10.56.295,lexical_decision_task_DD_L2,2021.2.3,Win32,59.97361161,,,,,,,,,,,0.7304,1,,,,,,,,,,,,,,,,,,,,,,,,0.528993066,0.091666664,0,0,0,,,,,,,FLESH,HB,z,y,./images/FLESHHB.png,,,,,,,,z,1,0.7304,,,,,,,,0,73,73,108,1
,,,,,,,,,,,,,,,,,199096,21,2022-01-28_18h10.56.295,lexical_decision_task_DD_L2,2021.2.3,Win32,59.97361161,,,,,,,,,,,0.6759,1,,,,,,,,,,,,,,,,,,,,,,,,0.528993066,0.091666664,0,0,0,,,,,,,TULIP,C,m,y,./images/TULIP.png,,,,,,,,m,1,0.6759,,,,,,,,0,74,74,8,1
,,,,,,,,,,,,,,,,,199096,21,2022-01-28_18h10.56.295,lexical_decision_task_DD_L2,2021.2.3,Win32,59.97361161,,,,,,,,,,,1.1139,1,,,,,,,,,,,,,,,,,,,,,,,,0.528993066,0.091666664,0,0,0,,,,,,,CRUMB,C,m,y,./images/CRUMB.png,,,,,,,,m,1,1.1139,,,,,,,,0,75,75,29,1
,,,,,,,,,,,,,,,,,199096,21,2022-01-28_18h10.56.295,lexical_decision_task_DD_L2,2021.2.3,Win32,59.97361161,,,,,,,,,,,0.9714,1,,,,,,,,,,,,,,,,,,,,,,,,0.528993066,0.091666664,0,0,0,,,,,,,CLOUD,C,z,y,./images/CLOUD.png,,,,,,,,z,1,0.9714,,,,,,,,0,76,76,110,1
,,,,,,,,,,,,,,,,,199096,21,2022-01-28_18h10.56.295,lexical_decision_task_DD_L2,2021.2.3,Win32,59.97361161,,,,,,,,,,,0.724,1,,,,,,,,,,,,,,,,,,,,,,,,0.528993066,0.091666664,0,0,0,,,,,,,GLOVE,LB,z,y,./images/GLOVELB.png,,,,,,,,z,1,0.724,,,,,,,,0,77,77,157,1
,,,,,,,,,,,,,,,,,199096,21,2022-01-28_18h10.56.295,lexical_decision_task_DD_L2,2021.2.3,Win32,59.97361161,,,,,,,,,,,0.6548,1,,,,,,,,,,,,,,,,,,,,,,,,0.528993066,0.091666664,0,0,0,,,,,,,FENCE,C,z,y,./images/FENCE.png,,,,,,,,z,1,0.6548,,,,,,,,0,78,78,98,1
,,,,,,,,,,,,,,,,,199096,21,2022-01-28_18h10.56.295,lexical_decision_task_DD_L2,2021.2.3,Win32,59.97361161,,,,,,,,,,,0.6359,1,,,,,,,,,,,,,,,,,,,,,,,,0.528993066,0.091666664,0,0,0,,,,,,,FARMER,C,m,y,./images/FARMER.png,,,,,,,,m,1,0.6359,,,,,,,,0,79,79,65,1
,,,,,,,,,,,,,,,,,199096,21,2022-01-28_18h10.56.295,lexical_decision_task_DD_L2,2021.2.3,Win32,59.97361161,,,,,,,,,,,0.8738,1,,,,,,,,,,,,,,,,,,,,,,,,0.528993066,0.091666664,0,0,0,,,,,,,SQUARE,HB,m,y,./images/SQUAREHB.png,,,,,,,,m,1,0.8738,,,,,,,,0,80,80,6,1
,,,,,,,,,,,,,,,,,199096,21,2022-01-28_18h10.56.295,lexical_decision_task_DD_L2,2021.2.3,Win32,59.97361161,,,,,,,,,,,1.3108,0,,,,,,,,,,,,,,,,,,,,,,,,0.528993066,0.091666664,0,0,0,,,,,,,SUNSET,LB,m,y,./images/SUNSETLB.png,,,,,,,,z,0,1.3108,,,,,,,,0,81,81,82,1
,,,,,,,,,,,,,,,,,199096,21,2022-01-28_18h10.56.295,lexical_decision_task_DD_L2,2021.2.3,Win32,59.97361161,,,,,,,,,,,0.6258,0,,,,,,,,,,,,,,,,,,,,,,,,0.528993066,0.091666664,0,0,0,,,,,,,BAKER,HB,z,y,./images/BAKERHB.png,,,,,,,,m,0,0.6258,,,,,,,,0,82,82,147,1
,,,,,,,,,,,,,,,,,199096,21,2022-01-28_18h10.56.295,lexical_decision_task_DD_L2,2021.2.3,Win32,59.97361161,,,,,,,,,,,1.7138,0,,,,,,,,,,,,,,,,,,,,,,,,0.528993066,0.091666664,0,0,0,space,,,,,,SAILOR,LB,m,y,./images/SAILORLB.png,1.0349,,,,,,,z,0,1.7138,,,,,,,,0,83,83,67,1
,,,,,,,,,,,,,,,,,199096,21,2022-01-28_18h10.56.295,lexical_decision_task_DD_L2,2021.2.3,Win32,59.97361161,,,,,,,,,,,0.7213,1,,,,,,,,,,,,,,,,,,,,,,,,0.528993066,0.091666664,0,0,0,,,,,,,GRANNY,C,z,y,./images/GRANNY.png,,,,,,,,z,1,0.7213,,,,,,,,0,84,84,104,1
,,,,,,,,,,,,,,,,,199096,21,2022-01-28_18h10.56.295,lexical_decision_task_DD_L2,2021.2.3,Win32,59.97361161,,,,,,,,,,,1.5005,1,,,,,,,,,,,,,,,,,,,,,,,,0.528993066,0.091666664,0,0,0,,,,,,,ALLEY,LB,z,y,./images/ALLEYLB.png,,,,,,,,z,1,1.5005,,,,,,,,0,85,85,139,1
,,,,,,,,,,,,,,,,,199096,21,2022-01-28_18h10.56.295,lexical_decision_task_DD_L2,2021.2.3,Win32,59.97361161,,,,,,,,,,,0.7193,1,,,,,,,,,,,,,,,,,,,,,,,,0.528993066,0.091666664,0,0,0,,,,,,,MOTOR,LB,m,y,./images/MOTORLB.png,,,,,,,,m,1,0.7193,,,,,,,,0,86,86,13,1
,,,,,,,,,,,,,,,,,199096,21,2022-01-28_18h10.56.295,lexical_decision_task_DD_L2,2021.2.3,Win32,59.97361161,,,,,,,,,,,0.57,1,,,,,,,,,,,,,,,,,,,,,,,,0.528993066,0.091666664,0,0,0,,,,,,,PEARL,LB,m,y,./images/PEARLLB.png,,,,,,,,m,1,0.57,,,,,,,,0,87,87,46,1
,,,,,,,,,,,,,,,,,199096,21,2022-01-28_18h10.56.295,lexical_decision_task_DD_L2,2021.2.3,Win32,59.97361161,,,,,,,,,,,0.5806,1,,,,,,,,,,,,,,,,,,,,,,,,0.528993066,0.091666664,0,0,0,,,,,,,TOMATO,HB,m,y,./images/TOMATOHB.png,,,,,,,,m,1,0.5806,,,,,,,,0,88,88,0,1
,,,,,,,,,,,,,,,,,199096,21,2022-01-28_18h10.56.295,lexical_decision_task_DD_L2,2021.2.3,Win32,59.97361161,,,,,,,,,,,0.7226,1,,,,,,,,,,,,,,,,,,,,,,,,0.528993066,0.091666664,0,0,0,,,,,,,MONKEY,HB,z,y,./images/MONKEYHB.png,,,,,,,,z,1,0.7226,,,,,,,,0,89,89,129,1
,,,,,,,,,,,,,,,,,199096,21,2022-01-28_18h10.56.295,lexical_decision_task_DD_L2,2021.2.3,Win32,59.97361161,,,,,,,,,,,0.5491,1,,,,,,,,,,,,,,,,,,,,,,,,0.528993066,0.091666664,0,0,0,,,,,,,QUILL,LB,m,y,./images/QUILLLB.png,,,,,,,,m,1,0.5491,,,,,,,,0,90,90,31,1
,,,,,,,,,,,,,,,,,199096,21,2022-01-28_18h10.56.295,lexical_decision_task_DD_L2,2021.2.3,Win32,59.97361161,,,,,,,,,,,2.6948,1,,,,,,,,,,,,,,,,,,,,,,,,0.528993066,0.091666664,0,0,0,,,,,,,PACKET,C,m,y,./images/PACKET.png,,,,,,,,m,1,2.6948,,,,,,,,0,91,91,56,1
,,,,,,,,,,,,,,,,,199096,21,2022-01-28_18h10.56.295,lexical_decision_task_DD_L2,2021.2.3,Win32,59.97361161,,,,,,,,,,,1.0012,1,,,,,,,,,,,,,,,,,,,,,,,,0.528993066,0.091666664,0,0,0,,,,,,,DESERT,LB,z,y,./images/DESERTLB.png,,,,,,,,z,1,1.0012,,,,,,,,0,92,92,136,1
,,,,,,,,,,,,,,,,,199096,21,2022-01-28_18h10.56.295,lexical_decision_task_DD_L2,2021.2.3,Win32,59.97361161,,,,,,,,,,,0.7141,1,,,,,,,,,,,,,,,,,,,,,,,,0.528993066,0.091666664,0,0,0,,,,,,,TIGER,LB,z,y,./images/TIGERLB.png,,,,,,,,z,1,0.7141,,,,,,,,0,93,93,121,1
,,,,,,,,,,,,,,,,,199096,21,2022-01-28_18h10.56.295,lexical_decision_task_DD_L2,2021.2.3,Win32,59.97361161,,,,,,,,,,,0.7405,1,,,,,,,,,,,,,,,,,,,,,,,,0.528993066,0.091666664,0,0,0,,,,,,,CURRY,HB,z,y,./images/CURRYHB.png,,,,,,,,z,1,0.7405,,,,,,,,0,94,94,144,1
,,,,,,,,,,,,,,,,,199096,21,2022-01-28_18h10.56.295,lexical_decision_task_DD_L2,2021.2.3,Win32,59.97361161,,,,,,,,,,,0.8226,0,,,,,,,,,,,,,,,,,,,,,,,,0.528993066,0.091666664,0,0,0,,,,,,,MUFFIN,LB,m,y,./images/MUFFINLB.png,,,,,,,,z,0,0.8226,,,,,,,,0,95,95,55,1
,,,,,,,,,,,,,,,,,199096,21,2022-01-28_18h10.56.295,lexical_decision_task_DD_L2,2021.2.3,Win32,59.97361161,,,,,,,,,,,0.6615,1,,,,,,,,,,,,,,,,,,,,,,,,0.528993066,0.091666664,0,0,0,,,,,,,LITTER,HB,m,y,./images/LITTERHB.png,,,,,,,,m,1,0.6615,,,,,,,,0,96,96,78,1
,,,,,,,,,,,,,,,,,199096,21,2022-01-28_18h10.56.295,lexical_decision_task_DD_L2,2021.2.3,Win32,59.97361161,,,,,,,,,,,0.5951,1,,,,,,,,,,,,,,,,,,,,,,,,0.528993066,0.091666664,0,0,0,,,,,,,JAGUAR,HB,m,y,./images/JAGUARHB.png,,,,,,,,m,1,0.5951,,,,,,,,0,97,97,18,1
,,,,,,,,,,,,,,,,,199096,21,2022-01-28_18h10.56.295,lexical_decision_task_DD_L2,2021.2.3,Win32,59.97361161,,,,,,,,,,,0.6742,1,,,,,,,,,,,,,,,,,,,,,,,,0.528993066,0.091666664,0,0,0,,,,,,,HEATER,C,z,y,./images/HEATER.png,,,,,,,,z,1,0.6742,,,,,,,,0,98,98,140,1
,,,,,,,,,,,,,,,,,199096,21,2022-01-28_18h10.56.295,lexical_decision_task_DD_L2,2021.2.3,Win32,59.97361161,,,,,,,,,,,2.1434,0,,,,,,,,,,,,,,,,,,,,,,,,0.528993066,0.091666664,0,0,0,,,,,,,LAGOON,C,z,y,./images/LAGOON.png,,,,,,,,m,0,2.1434,,,,,,,,0,99,99,131,1
,,,,,,,,,,,,,,,,,199096,21,2022-01-28_18h10.56.295,lexical_decision_task_DD_L2,2021.2.3,Win32,59.97361161,,,,,,,,,,,0.7614,1,,,,,,,,,,,,,,,,,,,,,,,,0.528993066,0.091666664,0,0,0,,,,,,,TORCH,C,m,y,./images/TORCH.png,,,,,,,,m,1,0.7614,,,,,,,,0,100,100,68,1
,,,,,,,,,,,,,,,,,199096,21,2022-01-28_18h10.56.295,lexical_decision_task_DD_L2,2021.2.3,Win32,59.97361161,,,,,,,,,,,0.8026,1,,,,,,,,,,,,,,,,,,,,,,,,0.528993066,0.091666664,0,0,0,,,,,,,BRIDE,LB,z,y,./images/BRIDELB.png,,,,,,,,z,1,0.8026,,,,,,,,0,101,101,148,1
,,,,,,,,,,,,,,,,,199096,21,2022-01-28_18h10.56.295,lexical_decision_task_DD_L2,2021.2.3,Win32,59.97361161,,,,,,,,,,,1.2746,1,,,,,,,,,,,,,,,,,,,,,,,,0.528993066,0.091666664,0,0,0,,,,,,,COLLAR,HB,z,y,./images/COLLARHB.png,,,,,,,,z,1,1.2746,,,,,,,,0,102,102,99,1
,,,,,,,,,,,,,,,,,199096,21,2022-01-28_18h10.56.295,lexical_decision_task_DD_L2,2021.2.3,Win32,59.97361161,,,,,,,,,,,0.8947,1,,,,,,,,,,,,,,,,,,,,,,,,0.528993066,0.091666664,0,0,0,,,,,,,KIDNEY,HB,m,y,./images/KIDNEYHB.png,,,,,,,,m,1,0.8947,,,,,,,,0,103,103,21,1
,,,,,,,,,,,,,,,,,199096,21,2022-01-28_18h10.56.295,lexical_decision_task_DD_L2,2021.2.3,Win32,59.97361161,,,,,,,,,,,0.7307,1,,,,,,,,,,,,,,,,,,,,,,,,0.528993066,0.091666664,0,0,0,,,,,,,PLANK,LB,m,y,./images/PLANKLB.png,,,,,,,,m,1,0.7307,,,,,,,,0,104,104,1,1
,,,,,,,,,,,,,,,,,199096,21,2022-01-28_18h10.56.295,lexical_decision_task_DD_L2,2021.2.3,Win32,59.97361161,,,,,,,,,,,0.6137,1,,,,,,,,,,,,,,,,,,,,,,,,0.528993066,0.091666664,0,0,0,,,,,,,PARADE,C,z,y,./images/PARADE.png,,,,,,,,z,1,0.6137,,,,,,,,0,105,105,101,1
,,,,,,,,,,,,,,,,,199096,21,2022-01-28_18h10.56.295,lexical_decision_task_DD_L2,2021.2.3,Win32,59.97361161,,,,,,,,,,,0.6112,1,,,,,,,,,,,,,,,,,,,,,,,,0.528993066,0.091666664,0,0,0,,,,,,,PIMPLE,C,m,y,./images/PIMPLE.png,,,,,,,,m,1,0.6112,,,,,,,,0,106,106,71,1
,,,,,,,,,,,,,,,,,199096,21,2022-01-28_18h10.56.295,lexical_decision_task_DD_L2,2021.2.3,Win32,59.97361161,,,,,,,,,,,0.5867,0,,,,,,,,,,,,,,,,,,,,,,,,0.528993066,0.091666664,0,0,0,,,,,,,SHELF,HB,m,y,./images/SHELFHB.png,,,,,,,,z,0,0.5867,,,,,,,,0,107,107,39,1
,,,,,,,,,,,,,,,,,199096,21,2022-01-28_18h10.56.295,lexical_decision_task_DD_L2,2021.2.3,Win32,59.97361161,,,,,,,,,,,0.5472,1,,,,,,,,,,,,,,,,,,,,,,,,0.528993066,0.091666664,0,0,0,,,,,,,KITTEN,HB,m,y,./images/KITTENHB.png,,,,,,,,m,1,0.5472,,,,,,,,0,108,108,45,1
,,,,,,,,,,,,,,,,,199096,21,2022-01-28_18h10.56.295,lexical_decision_task_DD_L2,2021.2.3,Win32,59.97361161,,,,,,,,,,,2.7002,1,,,,,,,,,,,,,,,,,,,,,,,,0.528993066,0.091666664,0,0,0,,,,,,,COOKER,HB,m,y,./images/COOKERHB.png,,,,,,,,m,1,2.7002,,,,,,,,0,109,109,69,1
,,,,,,,,,,,,,,,,,199096,21,2022-01-28_18h10.56.295,lexical_decision_task_DD_L2,2021.2.3,Win32,59.97361161,,,,,,,,,,,1.0075,1,,,,,,,,,,,,,,,,,,,,,,,,0.528993066,0.091666664,0,0,0,,,,,,,SWEAT,HB,m,y,./images/SWEATHB.png,,,,,,,,m,1,1.0075,,,,,,,,0,110,110,66,1
,,,,,,,,,,,,,,,,,199096,21,2022-01-28_18h10.56.295,lexical_decision_task_DD_L2,2021.2.3,Win32,59.97361161,,,,,,,,,,,0.6473,1,,,,,,,,,,,,,,,,,,,,,,,,0.528993066,0.091666664,0,0,0,,,,,,,BURIAL,C,m,y,./images/BURIAL.png,,,,,,,,m,1,0.6473,,,,,,,,0,111,111,59,1
,,,,,,,,,,,,,,,,,199096,21,2022-01-28_18h10.56.295,lexical_decision_task_DD_L2,2021.2.3,Win32,59.97361161,,,,,,,,,,,1.7249,1,,,,,,,,,,,,,,,,,,,,,,,,0.528993066,0.091666664,0,0,0,,,,,,,WAGON,LB,z,y,./images/WAGONLB.png,,,,,,,,z,1,1.7249,,,,,,,,0,112,112,91,1
,,,,,,,,,,,,,,,,,199096,21,2022-01-28_18h10.56.295,lexical_decision_task_DD_L2,2021.2.3,Win32,59.97361161,,,,,,,,,,,0.8068,1,,,,,,,,,,,,,,,,,,,,,,,,0.528993066,0.091666664,0,0,0,,,,,,,PARCEL,HB,z,y,./images/PARCELHB.png,,,,,,,,z,1,0.8068,,,,,,,,0,113,113,102,1
,,,,,,,,,,,,,,,,,199096,21,2022-01-28_18h10.56.295,lexical_decision_task_DD_L2,2021.2.3,Win32,59.97361161,,,,,,,,,,,0.5743,1,,,,,,,,,,,,,,,,,,,,,,,,0.528993066,0.091666664,0,0,0,,,,,,,PURSE,C,m,y,./images/PURSE.png,,,,,,,,m,1,0.5743,,,,,,,,0,114,114,62,1
,,,,,,,,,,,,,,,,,199096,21,2022-01-28_18h10.56.295,lexical_decision_task_DD_L2,2021.2.3,Win32,59.97361161,,,,,,,,,,,0.5748,1,,,,,,,,,,,,,,,,,,,,,,,,0.528993066,0.091666664,0,0,0,,,,,,,TWINS,HB,m,y,./images/TWINSHB.png,,,,,,,,m,1,0.5748,,,,,,,,0,115,115,60,1
,,,,,,,,,,,,,,,,,199096,21,2022-01-28_18h10.56.295,lexical_decision_task_DD_L2,2021.2.3,Win32,59.97361161,,,,,,,,,,,0.647,1,,,,,,,,,,,,,,,,,,,,,,,,0.528993066,0.091666664,0,0,0,,,,,,,ONION,HB,m,y,./images/ONIONHB.png,,,,,,,,m,1,0.647,,,,,,,,0,116,116,51,1
,,,,,,,,,,,,,,,,,199096,21,2022-01-28_18h10.56.295,lexical_decision_task_DD_L2,2021.2.3,Win32,59.97361161,,,,,,,,,,,0.5487,1,,,,,,,,,,,,,,,,,,,,,,,,0.528993066,0.091666664,0,0,0,,,,,,,BEARD,C,m,y,./images/BEARD.png,,,,,,,,m,1,0.5487,,,,,,,,0,117,117,2,1
,,,,,,,,,,,,,,,,,199096,21,2022-01-28_18h10.56.295,lexical_decision_task_DD_L2,2021.2.3,Win32,59.97361161,,,,,,,,,,,0.7186,1,,,,,,,,,,,,,,,,,,,,,,,,0.528993066,0.091666664,0,0,0,,,,,,,POKER,LB,z,y,./images/POKERLB.png,,,,,,,,z,1,0.7186,,,,,,,,0,118,118,151,1
,,,,,,,,,,,,,,,,,199096,21,2022-01-28_18h10.56.295,lexical_decision_task_DD_L2,2021.2.3,Win32,59.97361161,,,,,,,,,,,0.6243,1,,,,,,,,,,,,,,,,,,,,,,,,0.528993066,0.091666664,0,0,0,,,,,,,RHINO,HB,m,y,./images/RHINOHB.png,,,,,,,,m,1,0.6243,,,,,,,,0,119,119,9,1
,,,,,,,,,,,,,,,,,199096,21,2022-01-28_18h10.56.295,lexical_decision_task_DD_L2,2021.2.3,Win32,59.97361161,,,,,,,,,,,0.6715,1,,,,,,,,,,,,,,,,,,,,,,,,0.528993066,0.091666664,0,0,0,,,,,,,DONKEY,LB,z,y,./images/DONKEYLB.png,,,,,,,,z,1,0.6715,,,,,,,,0,120,120,103,1
,,,,,,,,,,,,,,,,,199096,21,2022-01-28_18h10.56.295,lexical_decision_task_DD_L2,2021.2.3,Win32,59.97361161,,,,,,,,,,,0.6443,1,,,,,,,,,,,,,,,,,,,,,,,,0.528993066,0.091666664,0,0,0,,,,,,,ARTIST,LB,z,y,./images/ARTISTLB.png,,,,,,,,z,1,0.6443,,,,,,,,0,121,121,145,1
,,,,,,,,,,,,,,,,,199096,21,2022-01-28_18h10.56.295,lexical_decision_task_DD_L2,2021.2.3,Win32,59.97361161,,,,,,,,,,,0.6024,1,,,,,,,,,,,,,,,,,,,,,,,,0.528993066,0.091666664,0,0,0,,,,,,,STOVE,C,z,y,./images/STOVE.png,,,,,,,,z,1,0.6024,,,,,,,,0,122,122,86,1
,,,,,,,,,,,,,,,,,199096,21,2022-01-28_18h10.56.295,lexical_decision_task_DD_L2,2021.2.3,Win32,59.97361161,,,,,,,,,,,0.6496,1,,,,,,,,,,,,,,,,,,,,,,,,0.528993066,0.091666664,0,0,0,,,,,,,BELLY,LB,m,y,./images/BELLYLB.png,,,,,,,,m,1,0.6496,,,,,,,,0,123,123,10,1
,,,,,,,,,,,,,,,,,199096,21,2022-01-28_18h10.56.295,lexical_decision_task_DD_L2,2021.2.3,Win32,59.97361161,,,,,,,,,,,0.8712,0,,,,,,,,,,,,,,,,,,,,,,,,0.528993066,0.091666664,0,0,0,,,,,,,STATUE,HB,z,y,./images/STATUEHB.png,,,,,,,,m,0,0.8712,,,,,,,,0,124,124,150,1
,,,,,,,,,,,,,,,,,199096,21,2022-01-28_18h10.56.295,lexical_decision_task_DD_L2,2021.2.3,Win32,59.97361161,,,,,,,,,,,0.8758,0,,,,,,,,,,,,,,,,,,,,,,,,0.528993066,0.091666664,0,0,0,space,,,,,,CLOWN,LB,z,y,./images/CLOWNLB.png,1.16,,,,,,,m,0,0.8758,,,,,,,,0,125,125,106,1
,,,,,,,,,,,,,,,,,199096,21,2022-01-28_18h10.56.295,lexical_decision_task_DD_L2,2021.2.3,Win32,59.97361161,,,,,,,,,,,1.1697,1,,,,,,,,,,,,,,,,,,,,,,,,0.528993066,0.091666664,0,0,0,,,,,,,BUTTER,HB,z,y,./images/BUTTERHB.png,,,,,,,,z,1,1.1697,,,,,,,,0,126,126,111,1
,,,,,,,,,,,,,,,,,199096,21,2022-01-28_18h10.56.295,lexical_decision_task_DD_L2,2021.2.3,Win32,59.97361161,,,,,,,,,,,0.6022,1,,,,,,,,,,,,,,,,,,,,,,,,0.528993066,0.091666664,0,0,0,,,,,,,PISTOL,C,z,y,./images/PISTOL.png,,,,,,,,z,1,0.6022,,,,,,,,0,127,127,113,1
,,,,,,,,,,,,,,,,,199096,21,2022-01-28_18h10.56.295,lexical_decision_task_DD_L2,2021.2.3,Win32,59.97361161,,,,,,,,,,,0.8897,1,,,,,,,,,,,,,,,,,,,,,,,,0.528993066,0.091666664,0,0,0,,,,,,,PENCE,LB,m,y,./images/PENCELB.png,,,,,,,,m,1,0.8897,,,,,,,,0,128,128,16,1
,,,,,,,,,,,,,,,,,199096,21,2022-01-28_18h10.56.295,lexical_decision_task_DD_L2,2021.2.3,Win32,59.97361161,,,,,,,,,,,0.6303,1,,,,,,,,,,,,,,,,,,,,,,,,0.528993066,0.091666664,0,0,0,,,,,,,CANDLE,LB,m,y,./images/CANDLELB.png,,,,,,,,m,1,0.6303,,,,,,,,0,129,129,61,1
,,,,,,,,,,,,,,,,,199096,21,2022-01-28_18h10.56.295,lexical_decision_task_DD_L2,2021.2.3,Win32,59.97361161,,,,,,,,,,,2.0597,1,,,,,,,,,,,,,,,,,,,,,,,,0.528993066,0.091666664,0,0,0,,,,,,,SNAKE,LB,z,y,./images/SNAKELB.png,,,,,,,,z,1,2.0597,,,,,,,,0,130,130,124,1
,,,,,,,,,,,,,,,,,199096,21,2022-01-28_18h10.56.295,lexical_decision_task_DD_L2,2021.2.3,Win32,59.97361161,,,,,,,,,,,0.625,1,,,,,,,,,,,,,,,,,,,,,,,,0.528993066,0.091666664,0,0,0,,,,,,,TRIPOD,HB,m,y,./images/TRIPODHB.png,,,,,,,,m,1,0.625,,,,,,,,0,131,131,54,1
,,,,,,,,,,,,,,,,,199096,21,2022-01-28_18h10.56.295,lexical_decision_task_DD_L2,2021.2.3,Win32,59.97361161,,,,,,,,,,,0.8077,1,,,,,,,,,,,,,,,,,,,,,,,,0.528993066,0.091666664,0,0,0,,,,,,,MAMMAL,C,z,y,./images/MAMMAL.png,,,,,,,,z,1,0.8077,,,,,,,,0,132,132,146,1
,,,,,,,,,,,,,,,,,199096,21,2022-01-28_18h10.56.295,lexical_decision_task_DD_L2,2021.2.3,Win32,59.97361161,,,,,,,,,,,0.6074,1,,,,,,,,,,,,,,,,,,,,,,,,0.528993066,0.091666664,0,0,0,,,,,,,MAGGOT,HB,m,y,./images/MAGGOTHB.png,,,,,,,,m,1,0.6074,,,,,,,,0,133,133,33,1
,,,,,,,,,,,,,,,,,199096,21,2022-01-28_18h10.56.295,lexical_decision_task_DD_L2,2021.2.3,Win32,59.97361161,,,,,,,,,,,1.5508,1,,,,,,,,,,,,,,,,,,,,,,,,0.528993066,0.091666664,0,0,0,,,,,,,HOCKEY,C,z,y,./images/HOCKEY.png,,,,,,,,z,1,1.5508,,,,,,,,0,134,134,116,1
,,,,,,,,,,,,,,,,,199096,21,2022-01-28_18h10.56.295,lexical_decision_task_DD_L2,2021.2.3,Win32,59.97361161,,,,,,,,,,,0.6972,0,,,,,,,,,,,,,,,,,,,,,,,,0.528993066,0.091666664,0,0,0,,,,,,,STRING,C,m,y,./images/STRING.png,,,,,,,,z,0,0.6972,,,,,,,,0,135,135,41,1
,,,,,,,,,,,,,,,,,199096,21,2022-01-28_18h10.56.295,lexical_decision_task_DD_L2,2021.2.3,Win32,59.97361161,,,,,,,,,,,0.6432,0,,,,,,,,,,,,,,,,,,,,,,,,0.528993066,0.091666664,0,0,0,,,,,,,BASKET,C,z,y,./images/BASKET.png,,,,,,,,m,0,0.6432,,,,,,,,0,136,136,128,1
,,,,,,,,,,,,,,,,,199096,21,2022-01-28_18h10.56.295,lexical_decision_task_DD_L2,2021.2.3,Win32,59.97361161,,,,,,,,,,,0.8573,1,,,,,,,,,,,,,,,,,,,,,,,,0.528993066,0.091666664,0,0,0,,,,,,,MIRROR,HB,m,y,./images/MIRRORHB.png,,,,,,,,m,1,0.8573,,,,,,,,0,137,137,63,1
,,,,,,,,,,,,,,,,,199096,21,2022-01-28_18h10.56.295,lexical_decision_task_DD_L2,2021.2.3,Win32,59.97361161,,,,,,,,,,,0.6144,1,,,,,,,,,,,,,,,,,,,,,,,,0.528993066,0.091666664,0,0,0,,,,,,,MOOSE,HB,m,y,./images/MOOSEHB.png,,,,,,,,m,1,0.6144,,,,,,,,0,138,138,57,1
,,,,,,,,,,,,,,,,,199096,21,2022-01-28_18h10.56.295,lexical_decision_task_DD_L2,2021.2.3,Win32,59.97361161,,,,,,,,,,,0.6214,1,,,,,,,,,,,,,,,,,,,,,,,,0.528993066,0.091666664,0,0,0,,,,,,,MALLET,C,m,y,./images/MALLET.png,,,,,,,,m,1,0.6214,,,,,,,,0,139,139,50,1
,,,,,,,,,,,,,,,,,199096,21,2022-01-28_18h10.56.295,lexical_decision_task_DD_L2,2021.2.3,Win32,59.97361161,,,,,,,,,,,1.06,1,,,,,,,,,,,,,,,,,,,,,,,,0.528993066,0.091666664,0,0,0,,,,,,,BROOM,HB,z,y,./images/BROOMHB.png,,,,,,,,z,1,1.06,,,,,,,,0,140,140,162,1
,,,,,,,,,,,,,,,,,199096,21,2022-01-28_18h10.56.295,lexical_decision_task_DD_L2,2021.2.3,Win32,59.97361161,,,,,,,,,,,0.681,0,,,,,,,,,,,,,,,,,,,,,,,,0.528993066,0.091666664,0,0,0,,,,,,,SMOKER,C,m,y,./images/SMOKER.png,,,,,,,,z,0,0.681,,,,,,,,0,141,141,26,1
,,,,,,,,,,,,,,,,,199096,21,2022-01-28_18h10.56.295,lexical_decision_task_DD_L2,2021.2.3,Win32,59.97361161,,,,,,,,,,,0.6373,1,,,,,,,,,,,,,,,,,,,,,,,,0.528993066,0.091666664,0,0,0,,,,,,,STORM,HB,m,y,./images/STORMHB.png,,,,,,,,m,1,0.6373,,,,,,,,0,142,142,30,1
,,,,,,,,,,,,,,,,,199096,21,2022-01-28_18h10.56.295,lexical_decision_task_DD_L2,2021.2.3,Win32,59.97361161,,,,,,,,,,,1.2583,1,,,,,,,,,,,,,,,,,,,,,,,,0.528993066,0.091666664,0,0,0,,,,,,,TOWEL,LB,z,y,./images/TOWELLB.png,,,,,,,,z,1,1.2583,,,,,,,,0,143,143,85,1
,,,,,,,,,,,,,,,,,199096,21,2022-01-28_18h10.56.295,lexical_decision_task_DD_L2,2021.2.3,Win32,59.97361161,,,,,,,,,,,0.6322,1,,,,,,,,,,,,,,,,,,,,,,,,0.528993066,0.091666664,0,0,0,,,,,,,FOLDER,HB,m,y,./images/FOLDERHB.png,,,,,,,,m,1,0.6322,,,,,,,,0,144,144,42,1
,,,,,,,,,,,,,,,,,199096,21,2022-01-28_18h10.56.295,lexical_decision_task_DD_L2,2021.2.3,Win32,59.97361161,,,,,,,,,,,0.6863,1,,,,,,,,,,,,,,,,,,,,,,,,0.528993066,0.091666664,0,0,0,,,,,,,ENGINE,C,z,y,./images/ENGINE.png,,,,,,,,z,1,0.6863,,,,,,,,0,145,145,122,1
,,,,,,,,,,,,,,,,,199096,21,2022-01-28_18h10.56.295,lexical_decision_task_DD_L2,2021.2.3,Win32,59.97361161,,,,,,,,,,,0.7148,1,,,,,,,,,,,,,,,,,,,,,,,,0.528993066,0.091666664,0,0,0,,,,,,,ARROW,HB,z,y,./images/ARROWHB.png,,,,,,,,z,1,0.7148,,,,,,,,0,146,146,153,1
,,,,,,,,,,,,,,,,,199096,21,2022-01-28_18h10.56.295,lexical_decision_task_DD_L2,2021.2.3,Win32,59.97361161,,,,,,,,,,,0.6371,0,,,,,,,,,,,,,,,,,,,,,,,,0.528993066,0.091666664,0,0,0,,,,,,,LIZARD,C,m,y,./images/LIZARD.png,,,,,,,,z,0,0.6371,,,,,,,,0,147,147,44,1
,,,,,,,,,,,,,,,,,199096,21,2022-01-28_18h10.56.295,lexical_decision_task_DD_L2,2021.2.3,Win32,59.97361161,,,,,,,,,,,0.6302,1,,,,,,,,,,,,,,,,,,,,,,,,0.528993066,0.091666664,0,0,0,,,,,,,BOILER,HB,z,y,./images/BOILERHB.png,,,,,,,,z,1,0.6302,,,,,,,,0,148,148,120,1
,,,,,,,,,,,,,,,,,199096,21,2022-01-28_18h10.56.295,lexical_decision_task_DD_L2,2021.2.3,Win32,59.97361161,,,,,,,,,,,0.6251,1,,,,,,,,,,,,,,,,,,,,,,,,0.528993066,0.091666664,0,0,0,,,,,,,WEASEL,C,m,y,./images/WEASEL.png,,,,,,,,m,1,0.6251,,,,,,,,0,149,149,80,1
,,,,,,,,,,,,,,,,,199096,21,2022-01-28_18h10.56.295,lexical_decision_task_DD_L2,2021.2.3,Win32,59.97361161,,,,,,,,,,,0.4805,1,,,,,,,,,,,,,,,,,,,,,,,,0.528993066,0.091666664,0,0,0,,,,,,,BLOKE,HB,z,y,./images/BLOKEHB.png,,,,,,,,z,1,0.4805,,,,,,,,0,150,150,96,1
,,,,,,,,,,,,,,,,,199096,21,2022-01-28_18h10.56.295,lexical_decision_task_DD_L2,2021.2.3,Win32,59.97361161,,,,,,,,,,,1.0679,0,,,,,,,,,,,,,,,,,,,,,,,,0.528993066,0.091666664,0,0,0,,,,,,,DIVER,HB,z,y,./images/DIVERHB.png,,,,,,,,m,0,1.0679,,,,,,,,0,151,151,93,1
,,,,,,,,,,,,,,,,,199096,21,2022-01-28_18h10.56.295,lexical_decision_task_DD_L2,2021.2.3,Win32,59.97361161,,,,,,,,,,,0.5928,1,,,,,,,,,,,,,,,,,,,,,,,,0.528993066,0.091666664,0,0,0,,,,,,,JELLY,LB,m,y,./images/JELLYLB.png,,,,,,,,m,1,0.5928,,,,,,,,0,152,152,64,1
,,,,,,,,,,,,,,,,,199096,21,2022-01-28_18h10.56.295,lexical_decision_task_DD_L2,2021.2.3,Win32,59.97361161,,,,,,,,,,,1.6886,0,,,,,,,,,,,,,,,,,,,,,,,,0.528993066,0.091666664,0,0,0,,,,,,,GRAPE,LB,z,y,./images/GRAPELB.png,,,,,,,,m,0,1.6886,,,,,,,,0,153,153,100,1
,,,,,,,,,,,,,,,,,199096,21,2022-01-28_18h10.56.295,lexical_decision_task_DD_L2,2021.2.3,Win32,59.97361161,,,,,,,,,,,0.7087,1,,,,,,,,,,,,,,,,,,,,,,,,0.528993066,0.091666664,0,0,0,,,,,,,STREAM,C,z,y,./images/STREAM.png,,,,,,,,z,1,0.7087,,,,,,,,0,154,154,125,1
,,,,,,,,,,,,,,,,,199096,21,2022-01-28_18h10.56.295,lexical_decision_task_DD_L2,2021.2.3,Win32,59.97361161,,,,,,,,,,,0.6639,1,,,,,,,,,,,,,,,,,,,,,,,,0.528993066,0.091666664,0,0,0,,,,,,,SNACK,LB,m,y,./images/SNACKLB.png,,,,,,,,m,1,0.6639,,,,,,,,0,155,155,73,1
,,,,,,,,,,,,,,,,,199096,21,2022-01-28_18h10.56.295,lexical_decision_task_DD_L2,2021.2.3,Win32,59.97361161,,,,,,,,,,,0.6432,1,,,,,,,,,,,,,,,,,,,,,,,,0.528993066,0.091666664,0,0,0,,,,,,,PAINT,LB,m,y,./images/PAINTLB.png,,,,,,,,m,1,0.6432,,,,,,,,0,156,156,7,1
,,,,,,,,,,,,,,,,,199096,21,2022-01-28_18h10.56.295,lexical_decision_task_DD_L2,2021.2.3,Win32,59.97361161,,,,,,,,,,,0.6509,0,,,,,,,,,,,,,,,,,,,,,,,,0.528993066,0.091666664,0,0,0,,,,,,,GARDEN,LB,z,y,./images/GARDENLB.png,,,,,,,,m,0,0.6509,,,,,,,,0,157,157,94,1
,,,,,,,,,,,,,,,,,199096,21,2022-01-28_18h10.56.295,lexical_decision_task_DD_L2,2021.2.3,Win32,59.97361161,,,,,,,,,,,0.6479,1,,,,,,,,,,,,,,,,,,,,,,,,0.528993066,0.091666664,0,0,0,,,,,,,PEBBLE,LB,z,y,./images/PEBBLELB.png,,,,,,,,z,1,0.6479,,,,,,,,0,158,158,166,1
,,,,,,,,,,,,,,,,,199096,21,2022-01-28_18h10.56.295,lexical_decision_task_DD_L2,2021.2.3,Win32,59.97361161,,,,,,,,,,,0.6852,0,,,,,,,,,,,,,,,,,,,,,,,,0.528993066,0.091666664,0,0,0,,,,,,,WALNUT,HB,z,y,./images/WALNUTHB.png,,,,,,,,m,0,0.6852,,,,,,,,0,159,159,84,1
,,,,,,,,,,,,,,,,,199096,21,2022-01-28_18h10.56.295,lexical_decision_task_DD_L2,2021.2.3,Win32,59.97361161,,,,,,,,,,,0.8883,1,,,,,,,,,,,,,,,,,,,,,,,,0.528993066,0.091666664,0,0,0,,,,,,,HAMMER,HB,z,y,./images/HAMMERHB.png,,,,,,,,z,1,0.8883,,,,,,,,0,160,160,159,1
,,,,,,,,,,,,,,,,,199096,21,2022-01-28_18h10.56.295,lexical_decision_task_DD_L2,2021.2.3,Win32,59.97361161,,,,,,,,,,,0.5735,1,,,,,,,,,,,,,,,,,,,,,,,,0.528993066,0.091666664,0,0,0,,,,,,,SAUCE,HB,z,y,./images/SAUCEHB.png,,,,,,,,z,1,0.5735,,,,,,,,0,161,161,135,1
,,,,,,,,,,,,,,,,,199096,21,2022-01-28_18h10.56.295,lexical_decision_task_DD_L2,2021.2.3,Win32,59.97361161,,,,,,,,,,,0.6938,1,,,,,,,,,,,,,,,,,,,,,,,,0.528993066,0.091666664,0,0,0,,,,,,,DANCER,HB,z,y,./images/DANCERHB.png,,,,,,,,z,1,0.6938,,,,,,,,0,162,162,105,1
,,,,,,,,,,,,,,,,,199096,21,2022-01-28_18h10.56.295,lexical_decision_task_DD_L2,2021.2.3,Win32,59.97361161,,,,,,,,,,,0.6505,1,,,,,,,,,,,,,,,,,,,,,,,,0.528993066,0.091666664,0,0,0,,,,,,,CHAIN,HB,z,y,./images/CHAINHB.png,,,,,,,,z,1,0.6505,,,,,,,,0,163,163,126,1
,,,,,,,,,,,,,,,,,199096,21,2022-01-28_18h10.56.295,lexical_decision_task_DD_L2,2021.2.3,Win32,59.97361161,,,,,,,,,,,0.8873,0,,,,,,,,,,,,,,,,,,,,,,,,0.528993066,0.091666664,0,0,0,,,,,,,BERRY,C,m,y,./images/BERRY.png,,,,,,,,z,0,0.8873,,,,,,,,0,164,164,47,1
,,,,,,,,,,,,,,,,,199096,21,2022-01-28_18h10.56.295,lexical_decision_task_DD_L2,2021.2.3,Win32,59.97361161,,,,,,,,,,,0.6674,0,,,,,,,,,,,,,,,,,,,,,,,,0.528993066,0.091666664,0,0,0,,,,,,,SPORT,HB,m,y,./images/SPORTHB.png,,,,,,,,z,0,0.6674,,,,,,,,0,165,165,48,1
,,,,,,,,,,,,,,,,,199096,21,2022-01-28_18h10.56.295,lexical_decision_task_DD_L2,2021.2.3,Win32,59.97361161,,,,,,,,,,,0.968,0,,,,,,,,,,,,,,,,,,,,,,,,0.528993066,0.091666664,0,0,0,,,,,,,BIRTH,LB,m,y,./images/BIRTHLB.png,,,,,,,,z,0,0.968,,,,,,,,0,166,166,37,1
,,,,,,,,,,,,,,,,,199096,21,2022-01-28_18h10.56.295,lexical_decision_task_DD_L2,2021.2.3,Win32,59.97361161,,,,,,,,,,,0.8408,0,,,,,,,,,,,,,,,,,,,,,,,,0.528993066,0.091666664,0,0,0,,,,,,,BUNNY,LB,z,y,./images/BUNNYLB.png,,,,,,,,m,0,0.8408,,,,,,,,0,167,167,97,1
