key_resp.keys,instr_done_touch.x,instr_done_touch.y,instr_done_touch.leftButton,instr_done_touch.midButton,instr_done_touch.rightButton,instr_done_touch.clicked_name,instruction_pages.thisRepN,instruction_pages.thisTrialN,instruction_pages.thisN,instruction_pages.thisIndex,instruction_pages.ran,pageN,phase,instruct_text,has_image,instruct_image,participant,age,date,expName,psychopyVersion,OS,frameRate,response.keys,response.corr,touch_resp.x,touch_resp.y,touch_resp.leftButton,touch_resp.midButton,touch_resp.rightButton,touch_resp.time,touch_resp.clicked_name,rt,corr,practrials.thisRepN,practrials.thisTrialN,practrials.thisN,practrials.thisIndex,practrials.ran,TrialID,Target,corrAns,end_of_practice_trials_pages.thisRepN,end_of_practice_trials_pages.thisTrialN,end_of_practice_trials_pages.thisN,end_of_practice_trials_pages.thisIndex,end_of_practice_trials_pages.ran,key_resp_2.keys,key_resp_2.corr,targ_click.x,targ_click.y,targ_click.leftButton,targ_click.midButton,targ_click.rightButton,targ_click.time,targ_click.clicked_name,break_done_touch.x,break_done_touch.y,break_done_touch.leftButton,break_done_touch.midButton,break_done_touch.rightButton,break_done_keyboard.keys,maintrials.thisRepN,maintrials.thisTrialN,maintrials.thisN,maintrials.thisIndex,maintrials.ran,string,blur,study,lex,stim_path,key_resp_2.rt,break_done_keyboard.rt,break_done_touch.clicked_name,key_resp.rt,test_instructions.thisRepN,test_instructions.thisTrialN,test_instructions.thisN,test_instructions.thisIndex,test_instructions.ran,key_resp_3.keys,key_resp_3.corr,key_resp_3.rt,test_click.x,test_click.y,test_click.leftButton,test_click.midButton,test_click.rightButton,test_click.time,test_click.clicked_name,test_phase.thisRepN,test_phase.thisTrialN,test_phase.thisN,test_phase.thisIndex,test_phase.ran
,-0.008333333,-0.417592593,1,0,0,instr_done_button,0,0,0,0,1,1,instructions,"INSTRUCTIONS
At the start of each trial, look at the plus sign  (+) in the center of the screen.  This tells you that a trial is about to begin and where to look. Second, the plus sign will disappear and a string of letters will appear. Your task is to determine if the string of letters is a word or not. If the item is a word press the M key (on keyboard)  or touch the word button (phone/tablet).  If the item is not a word,  press the  Z key (on keyboard)  or touch the nonword button (on phone/tablet). 
Press the space bar or touch  continue.",0,,199012,18,2022-01-28_15h58.13.098,lexical_decision_task_DD_L5,2021.2.3,Win32,74.91759065,,,,,,,,,,,,,,,,,,,,,,,,,,,,,,,,,,,,,,,,,,,,,,,,,,,,,,,,,,,,,,,,,,,,,,,,,
,-0.008333333,-0.417592593,1,0,0,instr_done_button,0,1,1,1,1,2,instructions,"If your device has a keyboard, press the 'Z' key for nonwords and the 'M' key for words.





Press the space bar or touch the button below to continue.",0,keyboard-example.gif,199012,18,2022-01-28_15h58.13.098,lexical_decision_task_DD_L5,2021.2.3,Win32,74.91759065,,,,,,,,,,,,,,,,,,,,,,,,,,,,,,,,,,,,,,,,,,,,,,,,,,,,,,,,,,,,,,,,,,,,,,,,,
,-0.008333333,-0.417592593,1,0,0,instr_done_button,0,2,2,2,1,3,instructions,"If you are using a touchscreen only device, use the buttons on the screen. Do not use the mouse.





Press the space bar or touch the button below to continue.",0,touchscreen-example.gif,199012,18,2022-01-28_15h58.13.098,lexical_decision_task_DD_L5,2021.2.3,Win32,74.91759065,,,,,,,,,,,,,,,,,,,,,,,,,,,,,,,,,,,,,,,,,,,,,,,,,,,,,,,,,,,,,,,,,,,,,,,,,
,-0.008333333,-0.417592593,1,0,0,instr_done_button,0,3,3,3,1,4,instructions,"It is very important that you respond as quickly and accurately as possible, as each letter string will only be on the screen for two seconds. If you do not respond within this time, the message 'Too slow!' will be displayed and the experiment will progress to the next letter string. The first 20 trials will be practice trials and you will receive feedback on your answers. 

Press the space bar or touch the button below to start the practice trials.",0,,199012,18,2022-01-28_15h58.13.098,lexical_decision_task_DD_L5,2021.2.3,Win32,74.91759065,,,,,,,,,,,,,,,,,,,,,,,,,,,,,,,,,,,,,,,,,,,,,,,,,,,,,,,,,,,,,,,,,,,,,,,,,
,,,,,,,,,,,,,,,,,199012,18,2022-01-28_15h58.13.098,lexical_decision_task_DD_L5,2021.2.3,Win32,74.91759065,,0,-0.327777778,-0.361111111,1,0,0,7.6402,button_left,7.6402,0,0,0,0,6,1,1001,ZOMBIE,m,,,,,,,,,,,,,,,,,,,,,,,,,,,,,,,,,,,,,,,,,,,,,,,,,,,,,,
,,,,,,,,,,,,,,,,,199012,18,2022-01-28_15h58.13.098,lexical_decision_task_DD_L5,2021.2.3,Win32,74.91759065,,0,-0.45,-0.334259259,1,0,0,4.1066,button_left,4.1066,1,0,1,1,15,1,1001,WHAISE,z,,,,,,,,,,,,,,,,,,,,,,,,,,,,,,,,,,,,,,,,,,,,,,,,,,,,,,
,,,,,,,,,,,,,,,,,199012,18,2022-01-28_15h58.13.098,lexical_decision_task_DD_L5,2021.2.3,Win32,74.91759065,,0,0.305555556,-0.27037037,1,0,0,1.3444,button_right,1.3444,1,0,2,2,0,1,1001,UTOPIA,m,,,,,,,,,,,,,,,,,,,,,,,,,,,,,,,,,,,,,,,,,,,,,,,,,,,,,,
,,,,,,,,,,,,,,,,,199012,18,2022-01-28_15h58.13.098,lexical_decision_task_DD_L5,2021.2.3,Win32,74.91759065,,0,0.237962963,-0.290740741,1,0,0,1.3193,button_right,1.3193,1,0,3,3,7,1,1001,VOLUME,m,,,,,,,,,,,,,,,,,,,,,,,,,,,,,,,,,,,,,,,,,,,,,,,,,,,,,,
,,,,,,,,,,,,,,,,,199012,18,2022-01-28_15h58.13.098,lexical_decision_task_DD_L5,2021.2.3,Win32,74.91759065,,0,0.375925926,-0.308333333,1,0,0,3.2932,button_right,3.2932,1,0,4,4,3,1,1001,MATRIX,m,,,,,,,,,,,,,,,,,,,,,,,,,,,,,,,,,,,,,,,,,,,,,,,,,,,,,,
,,,,,,,,,,,,,,,,,199012,18,2022-01-28_15h58.13.098,lexical_decision_task_DD_L5,2021.2.3,Win32,74.91759065,,0,0.301851852,-0.284259259,1,0,0,1.4257,button_right,1.4257,1,0,5,5,2,1,1001,ALMOND,m,,,,,,,,,,,,,,,,,,,,,,,,,,,,,,,,,,,,,,,,,,,,,,,,,,,,,,
,,,,,,,,,,,,,,,,,199012,18,2022-01-28_15h58.13.098,lexical_decision_task_DD_L5,2021.2.3,Win32,74.91759065,,0,-0.512962963,-0.27962963,1,0,0,1.6395,button_left,1.6395,1,0,6,6,9,1,1001,FARINY,z,,,,,,,,,,,,,,,,,,,,,,,,,,,,,,,,,,,,,,,,,,,,,,,,,,,,,,
,,,,,,,,,,,,,,,,,199012,18,2022-01-28_15h58.13.098,lexical_decision_task_DD_L5,2021.2.3,Win32,74.91759065,,0,-0.47962963,-0.289814815,1,0,0,1.2548,button_left,1.2548,1,0,7,7,11,1,1001,RASHET,z,,,,,,,,,,,,,,,,,,,,,,,,,,,,,,,,,,,,,,,,,,,,,,,,,,,,,,
,,,,,,,,,,,,,,,,,199012,18,2022-01-28_15h58.13.098,lexical_decision_task_DD_L5,2021.2.3,Win32,74.91759065,,0,0.50462963,-0.302777778,1,0,0,1.6265,button_right,1.6265,1,0,8,8,1,1,1001,ADJUST,m,,,,,,,,,,,,,,,,,,,,,,,,,,,,,,,,,,,,,,,,,,,,,,,,,,,,,,
,,,,,,,,,,,,,,,,,199012,18,2022-01-28_15h58.13.098,lexical_decision_task_DD_L5,2021.2.3,Win32,74.91759065,,0,-0.480555556,-0.277777778,1,0,0,1.3463,button_left,1.3463,1,0,9,9,8,1,1001,ASLERT,z,,,,,,,,,,,,,,,,,,,,,,,,,,,,,,,,,,,,,,,,,,,,,,,,,,,,,,
,,,,,,,,,,,,,,,,,199012,18,2022-01-28_15h58.13.098,lexical_decision_task_DD_L5,2021.2.3,Win32,74.91759065,,0,-0.292592593,-0.350925926,1,0,0,2.5602,button_left,2.5602,1,0,10,10,13,1,1001,ROUPET,z,,,,,,,,,,,,,,,,,,,,,,,,,,,,,,,,,,,,,,,,,,,,,,,,,,,,,,
,,,,,,,,,,,,,,,,,199012,18,2022-01-28_15h58.13.098,lexical_decision_task_DD_L5,2021.2.3,Win32,74.91759065,,0,-0.292592593,-0.350925926,1,0,0,1.0241,button_left,1.0241,1,0,11,11,10,1,1001,INLADE,z,,,,,,,,,,,,,,,,,,,,,,,,,,,,,,,,,,,,,,,,,,,,,,,,,,,,,,
,,,,,,,,,,,,,,,,,199012,18,2022-01-28_15h58.13.098,lexical_decision_task_DD_L5,2021.2.3,Win32,74.91759065,,0,-0.381410256,-0.27991453,1,0,0,71.0911,button_left,71.0911,1,0,12,12,12,1,1001,SPRINY,z,,,,,,,,,,,,,,,,,,,,,,,,,,,,,,,,,,,,,,,,,,,,,,,,,,,,,,
,,,,,,,,,,,,,,,,,199012,18,2022-01-28_15h58.13.098,lexical_decision_task_DD_L5,2021.2.3,Win32,74.91759065,,0,0.260683761,-0.338675214,1,0,0,1.4258,button_right,1.4258,1,0,13,13,5,1,1001,OBTAIN,m,,,,,,,,,,,,,,,,,,,,,,,,,,,,,,,,,,,,,,,,,,,,,,,,,,,,,,
,,,,,,,,,,,,,,,,,199012,18,2022-01-28_15h58.13.098,lexical_decision_task_DD_L5,2021.2.3,Win32,74.91759065,,0,-0.314102564,-0.333333333,1,0,0,1.3461,button_left,1.3461,1,0,14,14,14,1,1001,THRALE,z,,,,,,,,,,,,,,,,,,,,,,,,,,,,,,,,,,,,,,,,,,,,,,,,,,,,,,
,,,,,,,,,,,,,,,,,199012,18,2022-01-28_15h58.13.098,lexical_decision_task_DD_L5,2021.2.3,Win32,74.91759065,,0,0.292735043,-0.333333333,1,0,0,1.2134,button_right,1.2134,1,0,15,15,4,1,1001,SQUEAK,m,,,,,,,,,,,,,,,,,,,,,,,,,,,,,,,,,,,,,,,,,,,,,,,,,,,,,,
,-0.01814301,-0.401814301,1,0,0,instr_done_button,,,,,,1,end_of_practice,"You have completed the practice trials. During the experimental trials, you will not receive feedback. 
Before you begin, please ensure that you are in a comfortable and quiet location and will not be disturbed for about 15 minutes, as we cannot use your data if you do not complete all the trials. 
 When you are ready to start the experimental trials, please press space or touch the button below.",,,199012,18,2022-01-28_15h58.13.098,lexical_decision_task_DD_L5,2021.2.3,Win32,74.91759065,,,,,,,,,,,,,,,,,,,,0,0,0,0,1,,,,,,,,,,,,,,,,,,,,,,,,,,,,,,,,,,,,,,,,,,,,,,,,,
,,,,,,,,,,,,,,,,,199012,18,2022-01-28_15h58.13.098,lexical_decision_task_DD_L5,2021.2.3,Win32,74.91759065,,,,,,,,,,2.3475,1,,,,,,,,,,,,,,,0,-0.30416222,-0.305763074,1,0,0,2.3475,button_left_main,-0.30416222,-0.305763074,1,0,0,,0,0,0,92,1,PAIMS,LB,old,z,./images/PAIMSLB.png,,,,,,,,,,,,,,,,,,,,,,,,
,,,,,,,,,,,,,,,,,199012,18,2022-01-28_15h58.13.098,lexical_decision_task_DD_L5,2021.2.3,Win32,74.91759065,,,,,,,,,,3.5622,1,,,,,,,,,,,,,,,0,-0.305229456,-0.305763074,1,0,0,3.5622,button_left_main,-0.305229456,-0.305763074,1,0,0,,0,1,1,133,1,POWDY,HB,old,z,./images/POWDYHB.png,,,,,,,,,,,,,,,,,,,,,,,,
,,,,,,,,,,,,,,,,,199012,18,2022-01-28_15h58.13.098,lexical_decision_task_DD_L5,2021.2.3,Win32,74.91759065,,,,,,,,,,1.5335,1,,,,,,,,,,,,,,,0,0.3660619,-0.243863394,1,0,0,1.5335,button_right_main,0.3660619,-0.243863394,1,0,0,,0,2,2,81,1,DRILL,HB,old,m,./images/DRILLHB.png,,,,,,,,,,,,,,,,,,,,,,,,
,,,,,,,,,,,,,,,,,199012,18,2022-01-28_15h58.13.098,lexical_decision_task_DD_L5,2021.2.3,Win32,74.91759065,,,,,,,,,,2.2004,1,,,,,,,,,,,,,,,0,0.240128068,-0.263073639,1,0,0,2.2004,button_right_main,0.240128068,-0.263073639,1,0,0,,0,3,3,80,1,PLANET,C,old,m,./images/PLANET.png,,,,,,,,,,,,,,,,,,,,,,,,
,,,,,,,,,,,,,,,,,199012,18,2022-01-28_15h58.13.098,lexical_decision_task_DD_L5,2021.2.3,Win32,74.91759065,,,,,,,,,,3.3474,1,,,,,,,,,,,,,,,0,0.227321238,-0.279082177,1,0,0,3.3474,button_right_main,0.227321238,-0.279082177,1,0,0,,0,4,4,42,1,CHAIN,HB,old,m,./images/CHAINHB.png,,,,,,,,,,,,,,,,,,,,,,,,
,,,,,,,,,,,,,,,,,199012,18,2022-01-28_15h58.13.098,lexical_decision_task_DD_L5,2021.2.3,Win32,74.91759065,,,,,,,,,,1.1331,1,,,,,,,,,,,,,,,0,0.227321238,-0.279082177,1,0,0,1.1331,button_right_main,0.227321238,-0.279082177,1,0,0,,0,5,5,59,1,BRUSH,C,old,m,./images/BRUSH.png,,,,,,,,,,,,,,,,,,,,,,,,
,,,,,,,,,,,,,,,,,199012,18,2022-01-28_15h58.13.098,lexical_decision_task_DD_L5,2021.2.3,Win32,74.91759065,,,,,,,,,,5.0265,1,,,,,,,,,,,,,,,0,-0.511205977,-0.264140875,1,0,0,5.0265,button_left_main,-0.511205977,-0.264140875,1,0,0,,0,6,6,85,1,CHULK,HB,old,z,./images/CHULKHB.png,,,,,,,,,,,,,,,,,,,,,,,,
,,,,,,,,,,,,,,,,,199012,18,2022-01-28_15h58.13.098,lexical_decision_task_DD_L5,2021.2.3,Win32,74.91759065,,,,,,,,,,1.3866,1,,,,,,,,,,,,,,,0,-0.511205977,-0.264140875,1,0,0,1.3866,button_left_main,-0.511205977,-0.264140875,1,0,0,,0,7,7,160,1,VEETS,HB,old,z,./images/VEETSHB.png,,,,,,,,,,,,,,,,,,,,,,,,
,,,,,,,,,,,,,,,,,199012,18,2022-01-28_15h58.13.098,lexical_decision_task_DD_L5,2021.2.3,Win32,74.91759065,,,,,,,,,,2.2536,1,,,,,,,,,,,,,,,0,0.408751334,-0.285485592,1,0,0,2.2536,button_right_main,0.408751334,-0.285485592,1,0,0,,0,8,8,2,1,STOVE,C,old,m,./images/STOVE.png,,,,,,,,,,,,,,,,,,,,,,,,
,,,,,,,,,,,,,,,,,199012,18,2022-01-28_15h58.13.098,lexical_decision_task_DD_L5,2021.2.3,Win32,74.91759065,,,,,,,,,,1.2534,1,,,,,,,,,,,,,,,0,-0.28601921,-0.23959445,1,0,0,1.2534,button_left_main,-0.28601921,-0.23959445,1,0,0,,0,9,9,132,1,SCIFF,C,old,z,./images/SCIFF.png,,,,,,,,,,,,,,,,,,,,,,,,
,,,,,,,,,,,,,,,,,199012,18,2022-01-28_15h58.13.098,lexical_decision_task_DD_L5,2021.2.3,Win32,74.91759065,,,,,,,,,,2.0006,1,,,,,,,,,,,,,,,0,-0.290288154,-0.254535752,1,0,0,2.0006,button_left_main,-0.290288154,-0.254535752,1,0,0,,0,10,10,112,1,MYING,HB,old,z,./images/MYINGHB.png,,,,,,,,,,,,,,,,,,,,,,,,
,,,,,,,,,,,,,,,,,199012,18,2022-01-28_15h58.13.098,lexical_decision_task_DD_L5,2021.2.3,Win32,74.91759065,,,,,,,,,,0.9998,1,,,,,,,,,,,,,,,0,-0.290288154,-0.254535752,1,0,0,0.9998,button_left_main,-0.290288154,-0.254535752,1,0,0,,0,11,11,124,1,TUNCH,HB,old,z,./images/TUNCHHB.png,,,,,,,,,,,,,,,,,,,,,,,,
,,,,,,,,,,,,,,,,,199012,18,2022-01-28_15h58.13.098,lexical_decision_task_DD_L5,2021.2.3,Win32,74.91759065,,,,,,,,,,1.3867,1,,,,,,,,,,,,,,,0,0.161152615,-0.298292423,1,0,0,1.3867,button_right_main,0.209178228,-0.306830309,1,0,0,,0,12,12,71,1,BUBBLE,C,old,m,./images/BUBBLE.png,,,,,,,,,,,,,,,,,,,,,,,,
,,,,,,,,,,,,,,,,,199012,18,2022-01-28_15h58.13.098,lexical_decision_task_DD_L5,2021.2.3,Win32,74.91759065,,,,,,,,,,2.7032,0,,,,,,,,,,,,,,z,0,,,,,,,,0.209178228,-0.306830309,0,0,0,,0,13,13,24,1,FLESH,HB,old,m,./images/FLESHHB.png,2.7032,,,,,,,,,,,,,,,,,,,,,,,
,,,,,,,,,,,,,,,,,199012,18,2022-01-28_15h58.13.098,lexical_decision_task_DD_L5,2021.2.3,Win32,74.91759065,,,,,,,,,,0.9771,1,,,,,,,,,,,,,,m,1,,,,,,,,0.209178228,-0.306830309,0,0,0,,0,14,14,28,1,CASINO,LB,old,m,./images/CASINOLB.png,0.9771,,,,,,,,,,,,,,,,,,,,,,,
,,,,,,,,,,,,,,,,,199012,18,2022-01-28_15h58.13.098,lexical_decision_task_DD_L5,2021.2.3,Win32,74.91759065,,,,,,,,,,0.7205,1,,,,,,,,,,,,,,z,1,,,,,,,,0.209178228,-0.306830309,0,0,0,,0,15,15,120,1,RINED,C,old,z,./images/RINED.png,0.7205,,,,,,,,,,,,,,,,,,,,,,,
,,,,,,,,,,,,,,,,,199012,18,2022-01-28_15h58.13.098,lexical_decision_task_DD_L5,2021.2.3,Win32,74.91759065,,,,,,,,,,0.7413,1,,,,,,,,,,,,,,z,1,,,,,,,,0.209178228,-0.306830309,0,0,0,,0,16,16,126,1,GUELS,C,old,z,./images/GUELS.png,0.7413,,,,,,,,,,,,,,,,,,,,,,,
,,,,,,,,,,,,,,,,,199012,18,2022-01-28_15h58.13.098,lexical_decision_task_DD_L5,2021.2.3,Win32,74.91759065,,,,,,,,,,1.3009,1,,,,,,,,,,,,,,z,1,,,,,,,,0.209178228,-0.306830309,0,0,0,,0,17,17,134,1,TROSS,LB,old,z,./images/TROSSLB.png,1.3009,,,,,,,,,,,,,,,,,,,,,,,
,,,,,,,,,,,,,,,,,199012,18,2022-01-28_15h58.13.098,lexical_decision_task_DD_L5,2021.2.3,Win32,74.91759065,,,,,,,,,,0.9962,1,,,,,,,,,,,,,,m,1,,,,,,,,0.209178228,-0.306830309,0,0,0,,0,18,18,55,1,ALLEY,LB,old,m,./images/ALLEYLB.png,0.9962,,,,,,,,,,,,,,,,,,,,,,,
,,,,,,,,,,,,,,,,,199012,18,2022-01-28_15h58.13.098,lexical_decision_task_DD_L5,2021.2.3,Win32,74.91759065,,,,,,,,,,1.3344,1,,,,,,,,,,,,,,m,1,,,,,,,,0.209178228,-0.306830309,0,0,0,,0,19,19,58,1,CANOE,LB,old,m,./images/CANOELB.png,1.3344,,,,,,,,,,,,,,,,,,,,,,,
,,,,,,,,,,,,,,,,,199012,18,2022-01-28_15h58.13.098,lexical_decision_task_DD_L5,2021.2.3,Win32,74.91759065,,,,,,,,,,1.0935,0,,,,,,,,,,,,,,m,0,,,,,,,,0.209178228,-0.306830309,0,0,0,,0,20,20,142,1,PLASK,HB,old,z,./images/PLASKHB.png,1.0935,,,,,,,,,,,,,,,,,,,,,,,
,,,,,,,,,,,,,,,,,199012,18,2022-01-28_15h58.13.098,lexical_decision_task_DD_L5,2021.2.3,Win32,74.91759065,,,,,,,,,,0.741,1,,,,,,,,,,,,,,m,1,,,,,,,,0.209178228,-0.306830309,0,0,0,,0,21,21,61,1,ARTIST,LB,old,m,./images/ARTISTLB.png,0.741,,,,,,,,,,,,,,,,,,,,,,,
,,,,,,,,,,,,,,,,,199012,18,2022-01-28_15h58.13.098,lexical_decision_task_DD_L5,2021.2.3,Win32,74.91759065,,,,,,,,,,0.7245,1,,,,,,,,,,,,,,z,1,,,,,,,,0.209178228,-0.306830309,0,0,0,,0,22,22,89,1,DRIEK,LB,old,z,./images/DRIEKLB.png,0.7245,,,,,,,,,,,,,,,,,,,,,,,
,,,,,,,,,,,,,,,,,199012,18,2022-01-28_15h58.13.098,lexical_decision_task_DD_L5,2021.2.3,Win32,74.91759065,,,,,,,,,,0.8094,1,,,,,,,,,,,,,,z,1,,,,,,,,0.209178228,-0.306830309,0,0,0,,0,23,23,159,1,CUDDY,C,old,z,./images/CUDDY.png,0.8094,,,,,,,,,,,,,,,,,,,,,,,
,,,,,,,,,,,,,,,,,199012,18,2022-01-28_15h58.13.098,lexical_decision_task_DD_L5,2021.2.3,Win32,74.91759065,,,,,,,,,,1.6624,1,,,,,,,,,,,,,,z,1,,,,,,,,0.209178228,-0.306830309,0,0,0,,0,24,24,115,1,MAWNS,HB,old,z,./images/MAWNSHB.png,1.6624,,,,,,,,,,,,,,,,,,,,,,,
,,,,,,,,,,,,,,,,,199012,18,2022-01-28_15h58.13.098,lexical_decision_task_DD_L5,2021.2.3,Win32,74.91759065,,,,,,,,,,0.9734,1,,,,,,,,,,,,,,z,1,,,,,,,,0.209178228,-0.306830309,0,0,0,,0,25,25,99,1,BACKY,C,old,z,./images/BACKY.png,0.9734,,,,,,,,,,,,,,,,,,,,,,,
,,,,,,,,,,,,,,,,,199012,18,2022-01-28_15h58.13.098,lexical_decision_task_DD_L5,2021.2.3,Win32,74.91759065,,,,,,,,,,0.725,1,,,,,,,,,,,,,,z,1,,,,,,,,0.209178228,-0.306830309,0,0,0,,0,26,26,143,1,MONGS,LB,old,z,./images/MONGSLB.png,0.725,,,,,,,,,,,,,,,,,,,,,,,
,,,,,,,,,,,,,,,,,199012,18,2022-01-28_15h58.13.098,lexical_decision_task_DD_L5,2021.2.3,Win32,74.91759065,,,,,,,,,,0.6337,1,,,,,,,,,,,,,,z,1,,,,,,,,0.209178228,-0.306830309,0,0,0,,0,27,27,123,1,SEDGE,C,old,z,./images/SEDGE.png,0.6337,,,,,,,,,,,,,,,,,,,,,,,
,,,,,,,,,,,,,,,,,199012,18,2022-01-28_15h58.13.098,lexical_decision_task_DD_L5,2021.2.3,Win32,74.91759065,,,,,,,,,,0.6598,1,,,,,,,,,,,,,,z,1,,,,,,,,0.209178228,-0.306830309,0,0,0,,0,28,28,144,1,NAIRY,C,old,z,./images/NAIRY.png,0.6598,,,,,,,,,,,,,,,,,,,,,,,
,,,,,,,,,,,,,,,,,199012,18,2022-01-28_15h58.13.098,lexical_decision_task_DD_L5,2021.2.3,Win32,74.91759065,,,,,,,,,,0.6997,1,,,,,,,,,,,,,,m,1,,,,,,,,0.209178228,-0.306830309,0,0,0,,0,29,29,67,1,POKER,LB,old,m,./images/POKERLB.png,0.6997,,,,,,,,,,,,,,,,,,,,,,,
,,,,,,,,,,,,,,,,,199012,18,2022-01-28_15h58.13.098,lexical_decision_task_DD_L5,2021.2.3,Win32,74.91759065,,,,,,,,,,0.683,1,,,,,,,,,,,,,,z,1,,,,,,,,0.209178228,-0.306830309,0,0,0,,0,30,30,152,1,FRAIN,LB,old,z,./images/FRAINLB.png,0.683,,,,,,,,,,,,,,,,,,,,,,,
,,,,,,,,,,,,,,,,,199012,18,2022-01-28_15h58.13.098,lexical_decision_task_DD_L5,2021.2.3,Win32,74.91759065,,,,,,,,,,1.0959,1,,,,,,,,,,,,,,z,1,,,,,,,,0.209178228,-0.306830309,0,0,0,,0,31,31,150,1,NOOLS,C,old,z,./images/NOOLS.png,1.0959,,,,,,,,,,,,,,,,,,,,,,,
,,,,,,,,,,,,,,,,,199012,18,2022-01-28_15h58.13.098,lexical_decision_task_DD_L5,2021.2.3,Win32,74.91759065,,,,,,,,,,1.2232,1,,,,,,,,,,,,,,z,1,,,,,,,,0.209178228,-0.306830309,0,0,0,,0,32,32,121,1,CEERS,HB,old,z,./images/CEERSHB.png,1.2232,,,,,,,,,,,,,,,,,,,,,,,
,,,,,,,,,,,,,,,,,199012,18,2022-01-28_15h58.13.098,lexical_decision_task_DD_L5,2021.2.3,Win32,74.91759065,,,,,,,,,,0.7196,1,,,,,,,,,,,,,,m,1,,,,,,,,0.209178228,-0.306830309,0,0,0,,0,33,33,69,1,ARROW,HB,old,m,./images/ARROWHB.png,0.7196,,,,,,,,,,,,,,,,,,,,,,,
,,,,,,,,,,,,,,,,,199012,18,2022-01-28_15h58.13.098,lexical_decision_task_DD_L5,2021.2.3,Win32,74.91759065,,,,,,,,,,1.5075,1,,,,,,,,,,,,,,m,1,,,,,,,,0.209178228,-0.306830309,0,0,0,,0,34,34,7,1,WAGON,LB,old,m,./images/WAGONLB.png,1.5075,,,,,,,,,,,,,,,,,,,,,,,
,,,,,,,,,,,,,,,,,199012,18,2022-01-28_15h58.13.098,lexical_decision_task_DD_L5,2021.2.3,Win32,74.91759065,,,,,,,,,,1.0296,1,,,,,,,,,,,,,,z,1,,,,,,,,0.209178228,-0.306830309,0,0,0,,0,35,35,153,1,CLUPS,C,old,z,./images/CLUPS.png,1.0296,,,,,,,,,,,,,,,,,,,,,,,
,,,,,,,,,,,,,,,,,199012,18,2022-01-28_15h58.13.098,lexical_decision_task_DD_L5,2021.2.3,Win32,74.91759065,,,,,,,,,,0.6397,1,,,,,,,,,,,,,,m,1,,,,,,,,0.209178228,-0.306830309,0,0,0,,0,36,36,17,1,PARADE,C,old,m,./images/PARADE.png,0.6397,,,,,,,,,,,,,,,,,,,,,,,
,,,,,,,,,,,,,,,,,199012,18,2022-01-28_15h58.13.098,lexical_decision_task_DD_L5,2021.2.3,Win32,74.91759065,,,,,,,,,,0.9004,1,,,,,,,,,,,,,,m,1,,,,,,,,0.209178228,-0.306830309,0,0,0,,0,37,37,51,1,SAUCE,HB,old,m,./images/SAUCEHB.png,0.9004,,,,,,,,,,,,,,,,,,,,,,,
,,,,,,,,,,,,,,,,,199012,18,2022-01-28_15h58.13.098,lexical_decision_task_DD_L5,2021.2.3,Win32,74.91759065,,,,,,,,,,0.8758,1,,,,,,,,,,,,,,z,1,,,,,,,,0.209178228,-0.306830309,0,0,0,,0,38,38,131,1,NACES,LB,old,z,./images/NACESLB.png,0.8758,,,,,,,,,,,,,,,,,,,,,,,
,,,,,,,,,,,,,,,,,199012,18,2022-01-28_15h58.13.098,lexical_decision_task_DD_L5,2021.2.3,Win32,74.91759065,,,,,,,,,,0.926,1,,,,,,,,,,,,,,z,1,,,,,,,,0.209178228,-0.306830309,0,0,0,,0,39,39,114,1,RIKES,C,old,z,./images/RIKES.png,0.926,,,,,,,,,,,,,,,,,,,,,,,
,,,,,,,,,,,,,,,,,199012,18,2022-01-28_15h58.13.098,lexical_decision_task_DD_L5,2021.2.3,Win32,74.91759065,,,,,,,,,,1.1788,1,,,,,,,,,,,,,,m,1,,,,,,,,0.209178228,-0.306830309,0,0,0,,0,40,40,6,1,STAIN,HB,old,m,./images/STAINHB.png,1.1788,,,,,,,,,,,,,,,,,,,,,,,
,,,,,,,,,,,,,,,,,199012,18,2022-01-28_15h58.13.098,lexical_decision_task_DD_L5,2021.2.3,Win32,74.91759065,,,,,,,,,,0.77,1,,,,,,,,,,,,,,z,1,,,,,,,,0.805763074,-0.081643543,0,0,0,space,0,41,41,155,1,CANGY,LB,old,z,./images/CANGYLB.png,0.77,3.8812,,,,,,,,,,,,,,,,,,,,,,
,,,,,,,,,,,,,,,,,199012,18,2022-01-28_15h58.13.098,lexical_decision_task_DD_L5,2021.2.3,Win32,74.91759065,,,,,,,,,,1.9794,1,,,,,,,,,,,,,,z,1,,,,,,,,1.002134472,-0.114727855,0,0,0,,0,42,42,163,1,GAMBA,HB,old,z,./images/GAMBAHB.png,1.9794,,,,,,,,,,,,,,,,,,,,,,,
,,,,,,,,,,,,,,,,,199012,18,2022-01-28_15h58.13.098,lexical_decision_task_DD_L5,2021.2.3,Win32,74.91759065,,,,,,,,,,1.8427,1,,,,,,,,,,,,,,z,1,,,,,,,,1.002134472,-0.114727855,0,0,0,,0,43,43,130,1,CRILL,HB,old,z,./images/CRILLHB.png,1.8427,,,,,,,,,,,,,,,,,,,,,,,
,,,,,,,,,,,,,,,,,199012,18,2022-01-28_15h58.13.098,lexical_decision_task_DD_L5,2021.2.3,Win32,74.91759065,,,,,,,,,,1.4069,1,,,,,,,,,,,,,,z,1,,,,,,,,1.002134472,-0.114727855,0,0,0,,0,44,44,140,1,DOVET,LB,old,z,./images/DOVETLB.png,1.4069,,,,,,,,,,,,,,,,,,,,,,,
,,,,,,,,,,,,,,,,,199012,18,2022-01-28_15h58.13.098,lexical_decision_task_DD_L5,2021.2.3,Win32,74.91759065,,,,,,,,,,1.8838,1,,,,,,,,,,,,,,m,1,,,,,,,,1.002134472,-0.114727855,0,0,0,,0,45,45,8,1,CLIFF,C,old,m,./images/CLIFF.png,1.8838,,,,,,,,,,,,,,,,,,,,,,,
,,,,,,,,,,,,,,,,,199012,18,2022-01-28_15h58.13.098,lexical_decision_task_DD_L5,2021.2.3,Win32,74.91759065,,,,,,,,,,2.5443,1,,,,,,,,,,,,,,z,1,,,,,,,,1.002134472,-0.114727855,0,0,0,,0,46,46,94,1,BLANS,HB,old,z,./images/BLANSHB.png,2.5443,,,,,,,,,,,,,,,,,,,,,,,
,,,,,,,,,,,,,,,,,199012,18,2022-01-28_15h58.13.098,lexical_decision_task_DD_L5,2021.2.3,Win32,74.91759065,,,,,,,,,,0.7197,1,,,,,,,,,,,,,,m,1,,,,,,,,1.002134472,-0.114727855,0,0,0,,0,47,47,37,1,TIGER,LB,old,m,./images/TIGERLB.png,0.7197,,,,,,,,,,,,,,,,,,,,,,,
,,,,,,,,,,,,,,,,,199012,18,2022-01-28_15h58.13.098,lexical_decision_task_DD_L5,2021.2.3,Win32,74.91759065,,,,,,,,,,0.6132,1,,,,,,,,,,,,,,m,1,,,,,,,,1.002134472,-0.114727855,0,0,0,,0,48,48,74,1,JUMPER,C,old,m,./images/JUMPER.png,0.6132,,,,,,,,,,,,,,,,,,,,,,,
,,,,,,,,,,,,,,,,,199012,18,2022-01-28_15h58.13.098,lexical_decision_task_DD_L5,2021.2.3,Win32,74.91759065,,,,,,,,,,0.4994,1,,,,,,,,,,,,,,z,1,,,,,,,,1.002134472,-0.114727855,0,0,0,,0,49,49,102,1,DULLE,C,old,z,./images/DULLE.png,0.4994,,,,,,,,,,,,,,,,,,,,,,,
,,,,,,,,,,,,,,,,,199012,18,2022-01-28_15h58.13.098,lexical_decision_task_DD_L5,2021.2.3,Win32,74.91759065,,,,,,,,,,0.5304,1,,,,,,,,,,,,,,m,1,,,,,,,,1.002134472,-0.114727855,0,0,0,,0,50,50,52,1,DESERT,LB,old,m,./images/DESERTLB.png,0.5304,,,,,,,,,,,,,,,,,,,,,,,
,,,,,,,,,,,,,,,,,199012,18,2022-01-28_15h58.13.098,lexical_decision_task_DD_L5,2021.2.3,Win32,74.91759065,,,,,,,,,,0.936,1,,,,,,,,,,,,,,z,1,,,,,,,,1.002134472,-0.114727855,0,0,0,,0,51,51,105,1,MOKER,C,old,z,./images/MOKER.png,0.936,,,,,,,,,,,,,,,,,,,,,,,
,,,,,,,,,,,,,,,,,199012,18,2022-01-28_15h58.13.098,lexical_decision_task_DD_L5,2021.2.3,Win32,74.91759065,,,,,,,,,,0.9515,1,,,,,,,,,,,,,,m,1,,,,,,,,1.002134472,-0.114727855,0,0,0,,0,52,52,48,1,SHIELD,HB,old,m,./images/SHIELDHB.png,0.9515,,,,,,,,,,,,,,,,,,,,,,,
,,,,,,,,,,,,,,,,,199012,18,2022-01-28_15h58.13.098,lexical_decision_task_DD_L5,2021.2.3,Win32,74.91759065,,,,,,,,,,1.4338,1,,,,,,,,,,,,,,z,1,,,,,,,,1.002134472,-0.114727855,0,0,0,,0,53,53,127,1,NINDY,HB,old,z,./images/NINDYHB.png,1.4338,,,,,,,,,,,,,,,,,,,,,,,
,,,,,,,,,,,,,,,,,199012,18,2022-01-28_15h58.13.098,lexical_decision_task_DD_L5,2021.2.3,Win32,74.91759065,,,,,,,,,,1.1876,1,,,,,,,,,,,,,,m,1,,,,,,,,1.002134472,-0.114727855,0,0,0,,0,54,54,14,1,FENCE,C,old,m,./images/FENCE.png,1.1876,,,,,,,,,,,,,,,,,,,,,,,
,,,,,,,,,,,,,,,,,199012,18,2022-01-28_15h58.13.098,lexical_decision_task_DD_L5,2021.2.3,Win32,74.91759065,,,,,,,,,,1.6671,0,,,,,,,,,,,,,,z,0,,,,,,,,1.002134472,-0.114727855,0,0,0,,0,55,55,27,1,BUTTER,HB,old,m,./images/BUTTERHB.png,1.6671,,,,,,,,,,,,,,,,,,,,,,,
,,,,,,,,,,,,,,,,,199012,18,2022-01-28_15h58.13.098,lexical_decision_task_DD_L5,2021.2.3,Win32,74.91759065,,,,,,,,,,0.6931,1,,,,,,,,,,,,,,m,1,,,,,,,,1.002134472,-0.114727855,0,0,0,,0,56,56,82,1,PEBBLE,LB,old,m,./images/PEBBLELB.png,0.6931,,,,,,,,,,,,,,,,,,,,,,,
,,,,,,,,,,,,,,,,,199012,18,2022-01-28_15h58.13.098,lexical_decision_task_DD_L5,2021.2.3,Win32,74.91759065,,,,,,,,,,1.6048,1,,,,,,,,,,,,,,m,1,,,,,,,,1.002134472,-0.114727855,0,0,0,,0,57,57,25,1,CHALK,LB,old,m,./images/CHALKLB.png,1.6048,,,,,,,,,,,,,,,,,,,,,,,
,,,,,,,,,,,,,,,,,199012,18,2022-01-28_15h58.13.098,lexical_decision_task_DD_L5,2021.2.3,Win32,74.91759065,,,,,,,,,,1.401,1,,,,,,,,,,,,,,z,1,,,,,,,,1.002134472,-0.114727855,0,0,0,,0,58,58,166,1,SHORY,HB,old,z,./images/SHORYHB.png,1.401,,,,,,,,,,,,,,,,,,,,,,,
,,,,,,,,,,,,,,,,,199012,18,2022-01-28_15h58.13.098,lexical_decision_task_DD_L5,2021.2.3,Win32,74.91759065,,,,,,,,,,1.9578,1,,,,,,,,,,,,,,z,1,,,,,,,,1.002134472,-0.114727855,0,0,0,,0,59,59,103,1,FLORT,HB,old,z,./images/FLORTHB.png,1.9578,,,,,,,,,,,,,,,,,,,,,,,
,,,,,,,,,,,,,,,,,199012,18,2022-01-28_15h58.13.098,lexical_decision_task_DD_L5,2021.2.3,Win32,74.91759065,,,,,,,,,,3.904,1,,,,,,,,,,,,,,z,1,,,,,,,,1.002134472,-0.114727855,0,0,0,,0,60,60,84,1,HAXES,C,old,z,./images/HAXES.png,3.904,,,,,,,,,,,,,,,,,,,,,,,
,,,,,,,,,,,,,,,,,199012,18,2022-01-28_15h58.13.098,lexical_decision_task_DD_L5,2021.2.3,Win32,74.91759065,,,,,,,,,,2.2064,1,,,,,,,,,,,,,,z,1,,,,,,,,1.002134472,-0.114727855,0,0,0,,0,61,61,148,1,JOMS,HB,old,z,./images/JOMSHB.png,2.2064,,,,,,,,,,,,,,,,,,,,,,,
,,,,,,,,,,,,,,,,,199012,18,2022-01-28_15h58.13.098,lexical_decision_task_DD_L5,2021.2.3,Win32,74.91759065,,,,,,,,,,1.0347,1,,,,,,,,,,,,,,m,1,,,,,,,,1.002134472,-0.114727855,0,0,0,,0,62,62,75,1,HAMMER,HB,old,m,./images/HAMMERHB.png,1.0347,,,,,,,,,,,,,,,,,,,,,,,
,,,,,,,,,,,,,,,,,199012,18,2022-01-28_15h58.13.098,lexical_decision_task_DD_L5,2021.2.3,Win32,74.91759065,,,,,,,,,,0.7969,1,,,,,,,,,,,,,,m,1,,,,,,,,1.002134472,-0.114727855,0,0,0,,0,63,63,46,1,MUMMY,LB,old,m,./images/MUMMYLB.png,0.7969,,,,,,,,,,,,,,,,,,,,,,,
,,,,,,,,,,,,,,,,,199012,18,2022-01-28_15h58.13.098,lexical_decision_task_DD_L5,2021.2.3,Win32,74.91759065,,,,,,,,,,0.6708,1,,,,,,,,,,,,,,z,1,,,,,,,,1.002134472,-0.114727855,0,0,0,,0,64,64,146,1,MOOST,LB,old,z,./images/MOOSTLB.png,0.6708,,,,,,,,,,,,,,,,,,,,,,,
,,,,,,,,,,,,,,,,,199012,18,2022-01-28_15h58.13.098,lexical_decision_task_DD_L5,2021.2.3,Win32,74.91759065,,,,,,,,,,0.9373,1,,,,,,,,,,,,,,m,1,,,,,,,,1.002134472,-0.114727855,0,0,0,,0,65,65,0,1,WALNUT,HB,old,m,./images/WALNUTHB.png,0.9373,,,,,,,,,,,,,,,,,,,,,,,
,,,,,,,,,,,,,,,,,199012,18,2022-01-28_15h58.13.098,lexical_decision_task_DD_L5,2021.2.3,Win32,74.91759065,,,,,,,,,,1.7286,1,,,,,,,,,,,,,,z,1,,,,,,,,1.002134472,-0.114727855,0,0,0,,0,66,66,90,1,NEAST,C,old,z,./images/NEAST.png,1.7286,,,,,,,,,,,,,,,,,,,,,,,
,,,,,,,,,,,,,,,,,199012,18,2022-01-28_15h58.13.098,lexical_decision_task_DD_L5,2021.2.3,Win32,74.91759065,,,,,,,,,,3.6614,1,,,,,,,,,,,,,,m,1,,,,,,,,1.002134472,-0.114727855,0,0,0,,0,67,67,32,1,HOCKEY,C,old,m,./images/HOCKEY.png,3.6614,,,,,,,,,,,,,,,,,,,,,,,
,,,,,,,,,,,,,,,,,199012,18,2022-01-28_15h58.13.098,lexical_decision_task_DD_L5,2021.2.3,Win32,74.91759065,,,,,,,,,,1.5642,1,,,,,,,,,,,,,,z,1,,,,,,,,1.002134472,-0.114727855,0,0,0,,0,68,68,156,1,HIXES,C,old,z,./images/HIXES.png,1.5642,,,,,,,,,,,,,,,,,,,,,,,
,,,,,,,,,,,,,,,,,199012,18,2022-01-28_15h58.13.098,lexical_decision_task_DD_L5,2021.2.3,Win32,74.91759065,,,,,,,,,,0.8326,1,,,,,,,,,,,,,,m,1,,,,,,,,1.002134472,-0.114727855,0,0,0,,0,69,69,68,1,VALLEY,C,old,m,./images/VALLEY.png,0.8326,,,,,,,,,,,,,,,,,,,,,,,
,,,,,,,,,,,,,,,,,199012,18,2022-01-28_15h58.13.098,lexical_decision_task_DD_L5,2021.2.3,Win32,74.91759065,,,,,,,,,,1.8827,0,,,,,,,,,,,,,,m,0,,,,,,,,1.002134472,-0.114727855,0,0,0,,0,70,70,109,1,BURGE,HB,old,z,./images/BURGEHB.png,1.8827,,,,,,,,,,,,,,,,,,,,,,,
,,,,,,,,,,,,,,,,,199012,18,2022-01-28_15h58.13.098,lexical_decision_task_DD_L5,2021.2.3,Win32,74.91759065,,,,,,,,,,0.6233,1,,,,,,,,,,,,,,z,1,,,,,,,,1.002134472,-0.114727855,0,0,0,,0,71,71,113,1,LINEW,LB,old,z,./images/LINEWLB.png,0.6233,,,,,,,,,,,,,,,,,,,,,,,
,,,,,,,,,,,,,,,,,199012,18,2022-01-28_15h58.13.098,lexical_decision_task_DD_L5,2021.2.3,Win32,74.91759065,,,,,,,,,,0.7267,1,,,,,,,,,,,,,,z,1,,,,,,,,1.002134472,-0.114727855,0,0,0,,0,72,72,167,1,ZONET,LB,old,z,./images/ZONETLB.png,0.7267,,,,,,,,,,,,,,,,,,,,,,,
,,,,,,,,,,,,,,,,,199012,18,2022-01-28_15h58.13.098,lexical_decision_task_DD_L5,2021.2.3,Win32,74.91759065,,,,,,,,,,6.8764,1,,,,,,,,,,,,,,m,1,,,,,,,,1.002134472,-0.114727855,0,0,0,,0,73,73,60,1,CURRY,HB,old,m,./images/CURRYHB.png,6.8764,,,,,,,,,,,,,,,,,,,,,,,
,,,,,,,,,,,,,,,,,199012,18,2022-01-28_15h58.13.098,lexical_decision_task_DD_L5,2021.2.3,Win32,74.91759065,,,,,,,,,,1.1481,1,,,,,,,,,,,,,,z,1,,,,,,,,1.002134472,-0.114727855,0,0,0,,0,74,74,100,1,DRIBS,HB,old,z,./images/DRIBSHB.png,1.1481,,,,,,,,,,,,,,,,,,,,,,,
,,,,,,,,,,,,,,,,,199012,18,2022-01-28_15h58.13.098,lexical_decision_task_DD_L5,2021.2.3,Win32,74.91759065,,,,,,,,,,0.7198,1,,,,,,,,,,,,,,m,1,,,,,,,,1.002134472,-0.114727855,0,0,0,,0,75,75,13,1,BUNNY,LB,old,m,./images/BUNNYLB.png,0.7198,,,,,,,,,,,,,,,,,,,,,,,
,,,,,,,,,,,,,,,,,199012,18,2022-01-28_15h58.13.098,lexical_decision_task_DD_L5,2021.2.3,Win32,74.91759065,,,,,,,,,,0.7391,1,,,,,,,,,,,,,,m,1,,,,,,,,1.002134472,-0.114727855,0,0,0,,0,76,76,29,1,PISTOL,C,old,m,./images/PISTOL.png,0.7391,,,,,,,,,,,,,,,,,,,,,,,
,,,,,,,,,,,,,,,,,199012,18,2022-01-28_15h58.13.098,lexical_decision_task_DD_L5,2021.2.3,Win32,74.91759065,,,,,,,,,,0.6506,1,,,,,,,,,,,,,,m,1,,,,,,,,1.002134472,-0.114727855,0,0,0,,0,77,77,5,1,BAMBOO,C,old,m,./images/BAMBOO.png,0.6506,,,,,,,,,,,,,,,,,,,,,,,
,,,,,,,,,,,,,,,,,199012,18,2022-01-28_15h58.13.098,lexical_decision_task_DD_L5,2021.2.3,Win32,74.91759065,,,,,,,,,,0.5754,1,,,,,,,,,,,,,,z,1,,,,,,,,1.002134472,-0.114727855,0,0,0,,0,78,78,87,1,TRING,C,old,z,./images/TRING.png,0.5754,,,,,,,,,,,,,,,,,,,,,,,
,,,,,,,,,,,,,,,,,199012,18,2022-01-28_15h58.13.098,lexical_decision_task_DD_L5,2021.2.3,Win32,74.91759065,,,,,,,,,,0.7672,1,,,,,,,,,,,,,,m,1,,,,,,,,1.002134472,-0.114727855,0,0,0,,0,79,79,45,1,MONKEY,HB,old,m,./images/MONKEYHB.png,0.7672,,,,,,,,,,,,,,,,,,,,,,,
,,,,,,,,,,,,,,,,,199012,18,2022-01-28_15h58.13.098,lexical_decision_task_DD_L5,2021.2.3,Win32,74.91759065,,,,,,,,,,0.8131,1,,,,,,,,,,,,,,z,1,,,,,,,,1.002134472,-0.114727855,0,0,0,,0,80,80,91,1,SHENS,HB,old,z,./images/SHENSHB.png,0.8131,,,,,,,,,,,,,,,,,,,,,,,
,,,,,,,,,,,,,,,,,199012,18,2022-01-28_15h58.13.098,lexical_decision_task_DD_L5,2021.2.3,Win32,74.91759065,,,,,,,,,,0.7392,1,,,,,,,,,,,,,,z,1,,,,,,,,1.002134472,-0.114727855,0,0,0,,0,81,81,164,1,SGREW,LB,old,z,./images/SGREWLB.png,0.7392,,,,,,,,,,,,,,,,,,,,,,,
,,,,,,,,,,,,,,,,,199012,18,2022-01-28_15h58.13.098,lexical_decision_task_DD_L5,2021.2.3,Win32,74.91759065,,,,,,,,,,1.4188,1,,,,,,,,,,,,,,m,1,,,,,,,,1.002134472,-0.114727855,0,0,0,,0,82,82,78,1,BROOM,HB,old,m,./images/BROOMHB.png,1.4188,,,,,,,,,,,,,,,,,,,,,,,
,,,,,,,,,,,,,,,,,199012,18,2022-01-28_15h58.13.098,lexical_decision_task_DD_L5,2021.2.3,Win32,74.91759065,,,,,,,,,,0.8664,0,,,,,,,,,,,,,,z,0,,,,,,,,0.053361793,-0.427427962,1,0,0,,0,83,83,41,1,STREAM,C,old,m,./images/STREAM.png,0.8664,,break_done_button,,,,,,,,,,,,,,,,,,,,,
,,,,,,,,,,,,,,,,,199012,18,2022-01-28_15h58.13.098,lexical_decision_task_DD_L5,2021.2.3,Win32,74.91759065,,,,,,,,,,4.1559,1,,,,,,,,,,,,,,z,1,,,,,,,,1.023479189,-0.401814301,0,0,0,,0,84,84,118,1,BAVEL,HB,old,z,./images/BAVELHB.png,4.1559,,,,,,,,,,,,,,,,,,,,,,,
,,,,,,,,,,,,,,,,,199012,18,2022-01-28_15h58.13.098,lexical_decision_task_DD_L5,2021.2.3,Win32,74.91759065,,,,,,,,,,0.7168,1,,,,,,,,,,,,,,m,1,,,,,,,,1.023479189,-0.401814301,0,0,0,,0,85,85,34,1,RAZOR,LB,old,m,./images/RAZORLB.png,0.7168,,,,,,,,,,,,,,,,,,,,,,,
,,,,,,,,,,,,,,,,,199012,18,2022-01-28_15h58.13.098,lexical_decision_task_DD_L5,2021.2.3,Win32,74.91759065,,,,,,,,,,2.3913,1,,,,,,,,,,,,,,m,1,,,,,,,,1.023479189,-0.401814301,0,0,0,,0,86,86,63,1,BAKER,HB,old,m,./images/BAKERHB.png,2.3913,,,,,,,,,,,,,,,,,,,,,,,
,,,,,,,,,,,,,,,,,199012,18,2022-01-28_15h58.13.098,lexical_decision_task_DD_L5,2021.2.3,Win32,74.91759065,,,,,,,,,,1.6248,1,,,,,,,,,,,,,,m,1,,,,,,,,1.023479189,-0.401814301,0,0,0,,0,87,87,35,1,LLAMA,C,old,m,./images/LLAMA.png,1.6248,,,,,,,,,,,,,,,,,,,,,,,
,,,,,,,,,,,,,,,,,199012,18,2022-01-28_15h58.13.098,lexical_decision_task_DD_L5,2021.2.3,Win32,74.91759065,,,,,,,,,,0.9522,1,,,,,,,,,,,,,,m,1,,,,,,,,1.023479189,-0.401814301,0,0,0,,0,88,88,66,1,STATUE,HB,old,m,./images/STATUEHB.png,0.9522,,,,,,,,,,,,,,,,,,,,,,,
,,,,,,,,,,,,,,,,,199012,18,2022-01-28_15h58.13.098,lexical_decision_task_DD_L5,2021.2.3,Win32,74.91759065,,,,,,,,,,3.2344,1,,,,,,,,,,,,,,m,1,,,,,,,,1.023479189,-0.401814301,0,0,0,,0,89,89,53,1,POSTER,C,old,m,./images/POSTER.png,3.2344,,,,,,,,,,,,,,,,,,,,,,,
,,,,,,,,,,,,,,,,,199012,18,2022-01-28_15h58.13.098,lexical_decision_task_DD_L5,2021.2.3,Win32,74.91759065,,,,,,,,,,1.3334,1,,,,,,,,,,,,,,m,1,,,,,,,,1.023479189,-0.401814301,0,0,0,,0,90,90,30,1,SLOPE,HB,old,m,./images/SLOPEHB.png,1.3334,,,,,,,,,,,,,,,,,,,,,,,
,,,,,,,,,,,,,,,,,199012,18,2022-01-28_15h58.13.098,lexical_decision_task_DD_L5,2021.2.3,Win32,74.91759065,,,,,,,,,,0.835,1,,,,,,,,,,,,,,z,1,,,,,,,,1.023479189,-0.401814301,0,0,0,,0,91,91,119,1,PAFER,LB,old,z,./images/PAFERLB.png,0.835,,,,,,,,,,,,,,,,,,,,,,,
,,,,,,,,,,,,,,,,,199012,18,2022-01-28_15h58.13.098,lexical_decision_task_DD_L5,2021.2.3,Win32,74.91759065,,,,,,,,,,1.9093,1,,,,,,,,,,,,,,m,1,,,,,,,,1.023479189,-0.401814301,0,0,0,,0,92,92,4,1,BOXER,LB,old,m,./images/BOXERLB.png,1.9093,,,,,,,,,,,,,,,,,,,,,,,
,,,,,,,,,,,,,,,,,199012,18,2022-01-28_15h58.13.098,lexical_decision_task_DD_L5,2021.2.3,Win32,74.91759065,,,,,,,,,,0.775,1,,,,,,,,,,,,,,z,1,,,,,,,,1.023479189,-0.401814301,0,0,0,,0,93,93,111,1,HOSSE,C,old,z,./images/HOSSE.png,0.775,,,,,,,,,,,,,,,,,,,,,,,
,,,,,,,,,,,,,,,,,199012,18,2022-01-28_15h58.13.098,lexical_decision_task_DD_L5,2021.2.3,Win32,74.91759065,,,,,,,,,,0.6707,1,,,,,,,,,,,,,,m,1,,,,,,,,1.023479189,-0.401814301,0,0,0,,0,94,94,54,1,CHERRY,HB,old,m,./images/CHERRYHB.png,0.6707,,,,,,,,,,,,,,,,,,,,,,,
,,,,,,,,,,,,,,,,,199012,18,2022-01-28_15h58.13.098,lexical_decision_task_DD_L5,2021.2.3,Win32,74.91759065,,,,,,,,,,0.8408,1,,,,,,,,,,,,,,m,1,,,,,,,,1.023479189,-0.401814301,0,0,0,,0,95,95,70,1,BANANA,LB,old,m,./images/BANANALB.png,0.8408,,,,,,,,,,,,,,,,,,,,,,,
,,,,,,,,,,,,,,,,,199012,18,2022-01-28_15h58.13.098,lexical_decision_task_DD_L5,2021.2.3,Win32,74.91759065,,,,,,,,,,2.2138,1,,,,,,,,,,,,,,m,1,,,,,,,,1.023479189,-0.401814301,0,0,0,,0,96,96,31,1,STEAK,LB,old,m,./images/STEAKLB.png,2.2138,,,,,,,,,,,,,,,,,,,,,,,
,,,,,,,,,,,,,,,,,199012,18,2022-01-28_15h58.13.098,lexical_decision_task_DD_L5,2021.2.3,Win32,74.91759065,,,,,,,,,,0.7968,1,,,,,,,,,,,,,,m,1,,,,,,,,1.023479189,-0.401814301,0,0,0,,0,97,97,83,1,WHISKY,C,old,m,./images/WHISKY.png,0.7968,,,,,,,,,,,,,,,,,,,,,,,
,,,,,,,,,,,,,,,,,199012,18,2022-01-28_15h58.13.098,lexical_decision_task_DD_L5,2021.2.3,Win32,74.91759065,,,,,,,,,,1.0228,0,,,,,,,,,,,,,,m,0,,,,,,,,1.023479189,-0.401814301,0,0,0,,0,98,98,128,1,GRIFT,LB,old,z,./images/GRIFTLB.png,1.0228,,,,,,,,,,,,,,,,,,,,,,,
,,,,,,,,,,,,,,,,,199012,18,2022-01-28_15h58.13.098,lexical_decision_task_DD_L5,2021.2.3,Win32,74.91759065,,,,,,,,,,0.8223,1,,,,,,,,,,,,,,z,1,,,,,,,,1.023479189,-0.401814301,0,0,0,,0,99,99,96,1,KEAMS,C,old,z,./images/KEAMS.png,0.8223,,,,,,,,,,,,,,,,,,,,,,,
,,,,,,,,,,,,,,,,,199012,18,2022-01-28_15h58.13.098,lexical_decision_task_DD_L5,2021.2.3,Win32,74.91759065,,,,,,,,,,2.022,1,,,,,,,,,,,,,,z,1,,,,,,,,1.023479189,-0.401814301,0,0,0,,0,100,100,104,1,GITTY,LB,old,z,./images/GITTYLB.png,2.022,,,,,,,,,,,,,,,,,,,,,,,
,,,,,,,,,,,,,,,,,199012,18,2022-01-28_15h58.13.098,lexical_decision_task_DD_L5,2021.2.3,Win32,74.91759065,,,,,,,,,,0.9409,1,,,,,,,,,,,,,,z,1,,,,,,,,1.023479189,-0.401814301,0,0,0,,0,101,101,145,1,LAMEL,HB,old,z,./images/LAMELHB.png,0.9409,,,,,,,,,,,,,,,,,,,,,,,
,,,,,,,,,,,,,,,,,199012,18,2022-01-28_15h58.13.098,lexical_decision_task_DD_L5,2021.2.3,Win32,74.91759065,,,,,,,,,,1.5484,1,,,,,,,,,,,,,,z,1,,,,,,,,1.023479189,-0.401814301,0,0,0,,0,102,102,162,1,LEICH,C,old,z,./images/LEICH.png,1.5484,,,,,,,,,,,,,,,,,,,,,,,
,,,,,,,,,,,,,,,,,199012,18,2022-01-28_15h58.13.098,lexical_decision_task_DD_L5,2021.2.3,Win32,74.91759065,,,,,,,,,,0.6463,1,,,,,,,,,,,,,,z,1,,,,,,,,1.023479189,-0.401814301,0,0,0,,0,103,103,147,1,ZOLES,C,old,z,./images/ZOLES.png,0.6463,,,,,,,,,,,,,,,,,,,,,,,
,,,,,,,,,,,,,,,,,199012,18,2022-01-28_15h58.13.098,lexical_decision_task_DD_L5,2021.2.3,Win32,74.91759065,,,,,,,,,,0.843,1,,,,,,,,,,,,,,m,1,,,,,,,,1.023479189,-0.401814301,0,0,0,,0,104,104,44,1,BASKET,C,old,m,./images/BASKET.png,0.843,,,,,,,,,,,,,,,,,,,,,,,
,,,,,,,,,,,,,,,,,199012,18,2022-01-28_15h58.13.098,lexical_decision_task_DD_L5,2021.2.3,Win32,74.91759065,,,,,,,,,,1.2162,1,,,,,,,,,,,,,,z,1,,,,,,,,1.023479189,-0.401814301,0,0,0,,0,105,105,161,1,BLAPS,LB,old,z,./images/BLAPSLB.png,1.2162,,,,,,,,,,,,,,,,,,,,,,,
,,,,,,,,,,,,,,,,,199012,18,2022-01-28_15h58.13.098,lexical_decision_task_DD_L5,2021.2.3,Win32,74.91759065,,,,,,,,,,9.6165,0,,,,,,,,,,,,,,z,0,,,,,,,,1.023479189,-0.401814301,0,0,0,,0,106,106,18,1,PARCEL,HB,old,m,./images/PARCELHB.png,9.6165,,,,,,,,,,,,,,,,,,,,,,,
,,,,,,,,,,,,,,,,,199012,18,2022-01-28_15h58.13.098,lexical_decision_task_DD_L5,2021.2.3,Win32,74.91759065,,,,,,,,,,3.5408,1,,,,,,,,,,,,,,z,1,,,,,,,,1.023479189,-0.401814301,0,0,0,,0,107,107,136,1,WERVE,HB,old,z,./images/WERVEHB.png,3.5408,,,,,,,,,,,,,,,,,,,,,,,
,,,,,,,,,,,,,,,,,199012,18,2022-01-28_15h58.13.098,lexical_decision_task_DD_L5,2021.2.3,Win32,74.91759065,,,,,,,,,,3.9476,1,,,,,,,,,,,,,,m,1,,,,,,,,1.023479189,-0.401814301,0,0,0,,0,108,108,64,1,BRIDE,LB,old,m,./images/BRIDELB.png,3.9476,,,,,,,,,,,,,,,,,,,,,,,
,,,,,,,,,,,,,,,,,199012,18,2022-01-28_15h58.13.098,lexical_decision_task_DD_L5,2021.2.3,Win32,74.91759065,,,,,,,,,,1.5409,1,,,,,,,,,,,,,,m,1,,,,,,,,1.023479189,-0.401814301,0,0,0,,0,109,109,56,1,HEATER,C,old,m,./images/HEATER.png,1.5409,,,,,,,,,,,,,,,,,,,,,,,
,,,,,,,,,,,,,,,,,199012,18,2022-01-28_15h58.13.098,lexical_decision_task_DD_L5,2021.2.3,Win32,74.91759065,,,,,,,,,,1.3401,1,,,,,,,,,,,,,,z,1,,,,,,,,1.023479189,-0.401814301,0,0,0,,0,110,110,122,1,BLOOT,LB,old,z,./images/BLOOTLB.png,1.3401,,,,,,,,,,,,,,,,,,,,,,,
,,,,,,,,,,,,,,,,,199012,18,2022-01-28_15h58.13.098,lexical_decision_task_DD_L5,2021.2.3,Win32,74.91759065,,,,,,,,,,0.8594,1,,,,,,,,,,,,,,z,1,,,,,,,,1.023479189,-0.401814301,0,0,0,,0,111,111,95,1,HANTY,LB,old,z,./images/HANTYLB.png,0.8594,,,,,,,,,,,,,,,,,,,,,,,
,,,,,,,,,,,,,,,,,199012,18,2022-01-28_15h58.13.098,lexical_decision_task_DD_L5,2021.2.3,Win32,74.91759065,,,,,,,,,,0.8508,1,,,,,,,,,,,,,,m,1,,,,,,,,1.023479189,-0.401814301,0,0,0,,0,112,112,39,1,CANDY,HB,old,m,./images/CANDYHB.png,0.8508,,,,,,,,,,,,,,,,,,,,,,,
,,,,,,,,,,,,,,,,,199012,18,2022-01-28_15h58.13.098,lexical_decision_task_DD_L5,2021.2.3,Win32,74.91759065,,,,,,,,,,0.9358,1,,,,,,,,,,,,,,z,1,,,,,,,,1.023479189,-0.401814301,0,0,0,,0,113,113,165,1,TROWN,C,old,z,./images/TROWN.png,0.9358,,,,,,,,,,,,,,,,,,,,,,,
,,,,,,,,,,,,,,,,,199012,18,2022-01-28_15h58.13.098,lexical_decision_task_DD_L5,2021.2.3,Win32,74.91759065,,,,,,,,,,2.1915,1,,,,,,,,,,,,,,m,1,,,,,,,,1.023479189,-0.401814301,0,0,0,,0,114,114,12,1,BLOKE,HB,old,m,./images/BLOKEHB.png,2.1915,,,,,,,,,,,,,,,,,,,,,,,
,,,,,,,,,,,,,,,,,199012,18,2022-01-28_15h58.13.098,lexical_decision_task_DD_L5,2021.2.3,Win32,74.91759065,,,,,,,,,,0.9129,1,,,,,,,,,,,,,,m,1,,,,,,,,1.023479189,-0.401814301,0,0,0,,0,115,115,49,1,BISHOP,LB,old,m,./images/BISHOPLB.png,0.9129,,,,,,,,,,,,,,,,,,,,,,,
,,,,,,,,,,,,,,,,,199012,18,2022-01-28_15h58.13.098,lexical_decision_task_DD_L5,2021.2.3,Win32,74.91759065,,,,,,,,,,0.6989,1,,,,,,,,,,,,,,m,1,,,,,,,,1.023479189,-0.401814301,0,0,0,,0,116,116,15,1,COLLAR,HB,old,m,./images/COLLARHB.png,0.6989,,,,,,,,,,,,,,,,,,,,,,,
,,,,,,,,,,,,,,,,,199012,18,2022-01-28_15h58.13.098,lexical_decision_task_DD_L5,2021.2.3,Win32,74.91759065,,,,,,,,,,0.6265,1,,,,,,,,,,,,,,m,1,,,,,,,,1.023479189,-0.401814301,0,0,0,,0,117,117,1,1,TOWEL,LB,old,m,./images/TOWELLB.png,0.6265,,,,,,,,,,,,,,,,,,,,,,,
,,,,,,,,,,,,,,,,,199012,18,2022-01-28_15h58.13.098,lexical_decision_task_DD_L5,2021.2.3,Win32,74.91759065,,,,,,,,,,0.8286,1,,,,,,,,,,,,,,m,1,,,,,,,,1.023479189,-0.401814301,0,0,0,,0,118,118,79,1,RULER,LB,old,m,./images/RULERLB.png,0.8286,,,,,,,,,,,,,,,,,,,,,,,
,,,,,,,,,,,,,,,,,199012,18,2022-01-28_15h58.13.098,lexical_decision_task_DD_L5,2021.2.3,Win32,74.91759065,,,,,,,,,,0.6708,1,,,,,,,,,,,,,,m,1,,,,,,,,1.023479189,-0.401814301,0,0,0,,0,119,119,38,1,ENGINE,C,old,m,./images/ENGINE.png,0.6708,,,,,,,,,,,,,,,,,,,,,,,
,,,,,,,,,,,,,,,,,199012,18,2022-01-28_15h58.13.098,lexical_decision_task_DD_L5,2021.2.3,Win32,74.91759065,,,,,,,,,,0.6891,1,,,,,,,,,,,,,,m,1,,,,,,,,1.023479189,-0.401814301,0,0,0,,0,120,120,47,1,LAGOON,C,old,m,./images/LAGOON.png,0.6891,,,,,,,,,,,,,,,,,,,,,,,
,,,,,,,,,,,,,,,,,199012,18,2022-01-28_15h58.13.098,lexical_decision_task_DD_L5,2021.2.3,Win32,74.91759065,,,,,,,,,,2.7662,1,,,,,,,,,,,,,,m,1,,,,,,,,1.023479189,-0.401814301,0,0,0,,0,121,121,36,1,BOILER,HB,old,m,./images/BOILERHB.png,2.7662,,,,,,,,,,,,,,,,,,,,,,,
,,,,,,,,,,,,,,,,,199012,18,2022-01-28_15h58.13.098,lexical_decision_task_DD_L5,2021.2.3,Win32,74.91759065,,,,,,,,,,1.267,1,,,,,,,,,,,,,,m,1,,,,,,,,1.023479189,-0.401814301,0,0,0,,0,122,122,3,1,CRATER,HB,old,m,./images/CRATERHB.png,1.267,,,,,,,,,,,,,,,,,,,,,,,
,,,,,,,,,,,,,,,,,199012,18,2022-01-28_15h58.13.098,lexical_decision_task_DD_L5,2021.2.3,Win32,74.91759065,,,,,,,,,,0.7332,1,,,,,,,,,,,,,,z,1,,,,,,,,1.023479189,-0.401814301,0,0,0,,0,123,123,138,1,PLICE,C,old,z,./images/PLICE.png,0.7332,,,,,,,,,,,,,,,,,,,,,,,
,,,,,,,,,,,,,,,,,199012,18,2022-01-28_15h58.13.098,lexical_decision_task_DD_L5,2021.2.3,Win32,74.91759065,,,,,,,,,,0.7078,1,,,,,,,,,,,,,,z,1,,,,,,,,1.023479189,-0.401814301,0,0,0,,0,124,124,98,1,BAMPS,LB,old,z,./images/BAMPSLB.png,0.7078,,,,,,,,,,,,,,,,,,,,,,,
,,,,,,,,,,,,,,,,,199012,18,2022-01-28_15h58.13.098,lexical_decision_task_DD_L5,2021.2.3,Win32,74.91759065,,,,,,,,,,1.046,1,,,,,,,,,,,,,,m,1,,,,,,,,1.023479189,-0.401814301,0,0,0,space,0,125,125,16,1,GRAPE,LB,old,m,./images/GRAPELB.png,1.046,4.2916,,,,,,,,,,,,,,,,,,,,,,
,,,,,,,,,,,,,,,,,199012,18,2022-01-28_15h58.13.098,lexical_decision_task_DD_L5,2021.2.3,Win32,74.91759065,,,,,,,,,,1.0069,1,,,,,,,,,,,,,,z,1,,,,,,,,1.023479189,-0.401814301,0,0,0,,0,126,126,101,1,GLEET,LB,old,z,./images/GLEETLB.png,1.0069,,,,,,,,,,,,,,,,,,,,,,,
,,,,,,,,,,,,,,,,,199012,18,2022-01-28_15h58.13.098,lexical_decision_task_DD_L5,2021.2.3,Win32,74.91759065,,,,,,,,,,1.8199,1,,,,,,,,,,,,,,z,1,,,,,,,,1.023479189,-0.401814301,0,0,0,,0,127,127,97,1,CHIDS,HB,old,z,./images/CHIDSHB.png,1.8199,,,,,,,,,,,,,,,,,,,,,,,
,,,,,,,,,,,,,,,,,199012,18,2022-01-28_15h58.13.098,lexical_decision_task_DD_L5,2021.2.3,Win32,74.91759065,,,,,,,,,,1.0748,1,,,,,,,,,,,,,,z,1,,,,,,,,1.023479189,-0.401814301,0,0,0,,0,128,128,88,1,GLUSH,HB,old,z,./images/GLUSHHB.png,1.0748,,,,,,,,,,,,,,,,,,,,,,,
,,,,,,,,,,,,,,,,,199012,18,2022-01-28_15h58.13.098,lexical_decision_task_DD_L5,2021.2.3,Win32,74.91759065,,,,,,,,,,1.261,1,,,,,,,,,,,,,,m,1,,,,,,,,1.023479189,-0.401814301,0,0,0,,0,129,129,65,1,SPINE,C,old,m,./images/SPINE.png,1.261,,,,,,,,,,,,,,,,,,,,,,,
,,,,,,,,,,,,,,,,,199012,18,2022-01-28_15h58.13.098,lexical_decision_task_DD_L5,2021.2.3,Win32,74.91759065,,,,,,,,,,1.0844,1,,,,,,,,,,,,,,z,1,,,,,,,,1.023479189,-0.401814301,0,0,0,,0,130,130,154,1,THINT,HB,old,z,./images/THINTHB.png,1.0844,,,,,,,,,,,,,,,,,,,,,,,
,,,,,,,,,,,,,,,,,199012,18,2022-01-28_15h58.13.098,lexical_decision_task_DD_L5,2021.2.3,Win32,74.91759065,,,,,,,,,,2.3294,1,,,,,,,,,,,,,,m,1,,,,,,,,1.023479189,-0.401814301,0,0,0,,0,131,131,21,1,DANCER,HB,old,m,./images/DANCERHB.png,2.3294,,,,,,,,,,,,,,,,,,,,,,,
,,,,,,,,,,,,,,,,,199012,18,2022-01-28_15h58.13.098,lexical_decision_task_DD_L5,2021.2.3,Win32,74.91759065,,,,,,,,,,0.9414,1,,,,,,,,,,,,,,z,1,,,,,,,,1.023479189,-0.401814301,0,0,0,,0,132,132,107,1,FASKS,LB,old,z,./images/FASKSLB.png,0.9414,,,,,,,,,,,,,,,,,,,,,,,
,,,,,,,,,,,,,,,,,199012,18,2022-01-28_15h58.13.098,lexical_decision_task_DD_L5,2021.2.3,Win32,74.91759065,,,,,,,,,,0.837,1,,,,,,,,,,,,,,m,1,,,,,,,,1.023479189,-0.401814301,0,0,0,,0,133,133,23,1,CLOTH,C,old,m,./images/CLOTH.png,0.837,,,,,,,,,,,,,,,,,,,,,,,
,,,,,,,,,,,,,,,,,199012,18,2022-01-28_15h58.13.098,lexical_decision_task_DD_L5,2021.2.3,Win32,74.91759065,,,,,,,,,,1.6712,1,,,,,,,,,,,,,,m,1,,,,,,,,1.023479189,-0.401814301,0,0,0,,0,134,134,26,1,CLOUD,C,old,m,./images/CLOUD.png,1.6712,,,,,,,,,,,,,,,,,,,,,,,
,,,,,,,,,,,,,,,,,199012,18,2022-01-28_15h58.13.098,lexical_decision_task_DD_L5,2021.2.3,Win32,74.91759065,,,,,,,,,,2.7374,1,,,,,,,,,,,,,,z,1,,,,,,,,1.023479189,-0.401814301,0,0,0,,0,135,135,116,1,BALGY,LB,old,z,./images/BALGYLB.png,2.7374,,,,,,,,,,,,,,,,,,,,,,,
,,,,,,,,,,,,,,,,,199012,18,2022-01-28_15h58.13.098,lexical_decision_task_DD_L5,2021.2.3,Win32,74.91759065,,,,,,,,,,2.3682,1,,,,,,,,,,,,,,z,1,,,,,,,,1.023479189,-0.401814301,0,0,0,,0,136,136,135,1,JOODY,C,old,z,./images/JOODY.png,2.3682,,,,,,,,,,,,,,,,,,,,,,,
,,,,,,,,,,,,,,,,,199012,18,2022-01-28_15h58.13.098,lexical_decision_task_DD_L5,2021.2.3,Win32,74.91759065,,,,,,,,,,0.9804,1,,,,,,,,,,,,,,m,1,,,,,,,,1.023479189,-0.401814301,0,0,0,,0,137,137,22,1,CLOWN,LB,old,m,./images/CLOWNLB.png,0.9804,,,,,,,,,,,,,,,,,,,,,,,
,,,,,,,,,,,,,,,,,199012,18,2022-01-28_15h58.13.098,lexical_decision_task_DD_L5,2021.2.3,Win32,74.91759065,,,,,,,,,,1.484,1,,,,,,,,,,,,,,z,1,,,,,,,,1.023479189,-0.401814301,0,0,0,,0,138,138,93,1,SMONE,C,old,z,./images/SMONE.png,1.484,,,,,,,,,,,,,,,,,,,,,,,
,,,,,,,,,,,,,,,,,199012,18,2022-01-28_15h58.13.098,lexical_decision_task_DD_L5,2021.2.3,Win32,74.91759065,,,,,,,,,,1.8569,1,,,,,,,,,,,,,,m,1,,,,,,,,1.023479189,-0.401814301,0,0,0,,0,139,139,43,1,STOOL,LB,old,m,./images/STOOLLB.png,1.8569,,,,,,,,,,,,,,,,,,,,,,,
,,,,,,,,,,,,,,,,,199012,18,2022-01-28_15h58.13.098,lexical_decision_task_DD_L5,2021.2.3,Win32,74.91759065,,,,,,,,,,0.7998,1,,,,,,,,,,,,,,m,1,,,,,,,,1.023479189,-0.401814301,0,0,0,,0,140,140,10,1,GARDEN,LB,old,m,./images/GARDENLB.png,0.7998,,,,,,,,,,,,,,,,,,,,,,,
,,,,,,,,,,,,,,,,,199012,18,2022-01-28_15h58.13.098,lexical_decision_task_DD_L5,2021.2.3,Win32,74.91759065,,,,,,,,,,0.7965,1,,,,,,,,,,,,,,m,1,,,,,,,,1.023479189,-0.401814301,0,0,0,,0,141,141,40,1,SNAKE,LB,old,m,./images/SNAKELB.png,0.7965,,,,,,,,,,,,,,,,,,,,,,,
,,,,,,,,,,,,,,,,,199012,18,2022-01-28_15h58.13.098,lexical_decision_task_DD_L5,2021.2.3,Win32,74.91759065,,,,,,,,,,0.8067,1,,,,,,,,,,,,,,m,1,,,,,,,,1.023479189,-0.401814301,0,0,0,,0,142,142,72,1,FLASK,HB,old,m,./images/FLASKHB.png,0.8067,,,,,,,,,,,,,,,,,,,,,,,
,,,,,,,,,,,,,,,,,199012,18,2022-01-28_15h58.13.098,lexical_decision_task_DD_L5,2021.2.3,Win32,74.91759065,,,,,,,,,,1.0755,1,,,,,,,,,,,,,,z,1,,,,,,,,1.023479189,-0.401814301,0,0,0,,0,143,143,139,1,BLEAR,HB,old,z,./images/BLEARHB.png,1.0755,,,,,,,,,,,,,,,,,,,,,,,
,,,,,,,,,,,,,,,,,199012,18,2022-01-28_15h58.13.098,lexical_decision_task_DD_L5,2021.2.3,Win32,74.91759065,,,,,,,,,,2.638,1,,,,,,,,,,,,,,z,1,,,,,,,,1.023479189,-0.401814301,0,0,0,,0,144,144,125,1,MOOKY,LB,old,z,./images/MOOKYLB.png,2.638,,,,,,,,,,,,,,,,,,,,,,,
,,,,,,,,,,,,,,,,,199012,18,2022-01-28_15h58.13.098,lexical_decision_task_DD_L5,2021.2.3,Win32,74.91759065,,,,,,,,,,0.7997,1,,,,,,,,,,,,,,m,1,,,,,,,,1.023479189,-0.401814301,0,0,0,,0,145,145,20,1,GRANNY,C,old,m,./images/GRANNY.png,0.7997,,,,,,,,,,,,,,,,,,,,,,,
,,,,,,,,,,,,,,,,,199012,18,2022-01-28_15h58.13.098,lexical_decision_task_DD_L5,2021.2.3,Win32,74.91759065,,,,,,,,,,1.5642,1,,,,,,,,,,,,,,z,1,,,,,,,,1.023479189,-0.401814301,0,0,0,,0,146,146,117,1,STEEG,C,old,z,./images/STEEG.png,1.5642,,,,,,,,,,,,,,,,,,,,,,,
,,,,,,,,,,,,,,,,,199012,18,2022-01-28_15h58.13.098,lexical_decision_task_DD_L5,2021.2.3,Win32,74.91759065,,,,,,,,,,1.9689,1,,,,,,,,,,,,,,z,1,,,,,,,,1.023479189,-0.401814301,0,0,0,,0,147,147,137,1,JOOST,LB,old,z,./images/JOOSTLB.png,1.9689,,,,,,,,,,,,,,,,,,,,,,,
,,,,,,,,,,,,,,,,,199012,18,2022-01-28_15h58.13.098,lexical_decision_task_DD_L5,2021.2.3,Win32,74.91759065,,,,,,,,,,1.0374,1,,,,,,,,,,,,,,m,1,,,,,,,,1.023479189,-0.401814301,0,0,0,,0,148,148,50,1,PILOT,C,old,m,./images/PILOT.png,1.0374,,,,,,,,,,,,,,,,,,,,,,,
,,,,,,,,,,,,,,,,,199012,18,2022-01-28_15h58.13.098,lexical_decision_task_DD_L5,2021.2.3,Win32,74.91759065,,,,,,,,,,1.2,1,,,,,,,,,,,,,,m,1,,,,,,,,1.023479189,-0.401814301,0,0,0,,0,149,149,19,1,DONKEY,LB,old,m,./images/DONKEYLB.png,1.2,,,,,,,,,,,,,,,,,,,,,,,
,,,,,,,,,,,,,,,,,199012,18,2022-01-28_15h58.13.098,lexical_decision_task_DD_L5,2021.2.3,Win32,74.91759065,,,,,,,,,,1.9481,1,,,,,,,,,,,,,,z,1,,,,,,,,1.023479189,-0.401814301,0,0,0,,0,150,150,86,1,AIFED,LB,old,z,./images/AIFEDLB.png,1.9481,,,,,,,,,,,,,,,,,,,,,,,
,,,,,,,,,,,,,,,,,199012,18,2022-01-28_15h58.13.098,lexical_decision_task_DD_L5,2021.2.3,Win32,74.91759065,,,,,,,,,,3.2222,1,,,,,,,,,,,,,,z,1,,,,,,,,1.023479189,-0.401814301,0,0,0,,0,151,151,151,1,TINKY,HB,old,z,./images/TINKYHB.png,3.2222,,,,,,,,,,,,,,,,,,,,,,,
,,,,,,,,,,,,,,,,,199012,18,2022-01-28_15h58.13.098,lexical_decision_task_DD_L5,2021.2.3,Win32,74.91759065,,,,,,,,,,1.3334,1,,,,,,,,,,,,,,m,1,,,,,,,,1.023479189,-0.401814301,0,0,0,,0,152,152,77,1,WHEEL,C,old,m,./images/WHEEL.png,1.3334,,,,,,,,,,,,,,,,,,,,,,,
,,,,,,,,,,,,,,,,,199012,18,2022-01-28_15h58.13.098,lexical_decision_task_DD_L5,2021.2.3,Win32,74.91759065,,,,,,,,,,1.2362,1,,,,,,,,,,,,,,z,1,,,,,,,,1.023479189,-0.401814301,0,0,0,,0,153,153,149,1,VEASE,LB,old,z,./images/VEASELB.png,1.2362,,,,,,,,,,,,,,,,,,,,,,,
,,,,,,,,,,,,,,,,,199012,18,2022-01-28_15h58.13.098,lexical_decision_task_DD_L5,2021.2.3,Win32,74.91759065,,,,,,,,,,1.1502,1,,,,,,,,,,,,,,m,1,,,,,,,,1.023479189,-0.401814301,0,0,0,,0,154,154,57,1,FERRY,HB,old,m,./images/FERRYHB.png,1.1502,,,,,,,,,,,,,,,,,,,,,,,
,,,,,,,,,,,,,,,,,199012,18,2022-01-28_15h58.13.098,lexical_decision_task_DD_L5,2021.2.3,Win32,74.91759065,,,,,,,,,,1.3922,1,,,,,,,,,,,,,,m,1,,,,,,,,1.023479189,-0.401814301,0,0,0,,0,155,155,62,1,MAMMAL,C,old,m,./images/MAMMAL.png,1.3922,,,,,,,,,,,,,,,,,,,,,,,
,,,,,,,,,,,,,,,,,199012,18,2022-01-28_15h58.13.098,lexical_decision_task_DD_L5,2021.2.3,Win32,74.91759065,,,,,,,,,,1.1625,1,,,,,,,,,,,,,,m,1,,,,,,,,1.023479189,-0.401814301,0,0,0,,0,156,156,9,1,DIVER,HB,old,m,./images/DIVERHB.png,1.1625,,,,,,,,,,,,,,,,,,,,,,,
,,,,,,,,,,,,,,,,,199012,18,2022-01-28_15h58.13.098,lexical_decision_task_DD_L5,2021.2.3,Win32,74.91759065,,,,,,,,,,1.927,1,,,,,,,,,,,,,,z,1,,,,,,,,1.023479189,-0.401814301,0,0,0,,0,157,157,157,1,INLER,HB,old,z,./images/INLERHB.png,1.927,,,,,,,,,,,,,,,,,,,,,,,
,,,,,,,,,,,,,,,,,199012,18,2022-01-28_15h58.13.098,lexical_decision_task_DD_L5,2021.2.3,Win32,74.91759065,,,,,,,,,,0.8675,1,,,,,,,,,,,,,,m,1,,,,,,,,1.023479189,-0.401814301,0,0,0,,0,158,158,73,1,GLOVE,LB,old,m,./images/GLOVELB.png,0.8675,,,,,,,,,,,,,,,,,,,,,,,
,,,,,,,,,,,,,,,,,199012,18,2022-01-28_15h58.13.098,lexical_decision_task_DD_L5,2021.2.3,Win32,74.91759065,,,,,,,,,,1.2617,1,,,,,,,,,,,,,,z,1,,,,,,,,1.023479189,-0.401814301,0,0,0,,0,159,159,158,1,EGECT,LB,old,z,./images/EGECTLB.png,1.2617,,,,,,,,,,,,,,,,,,,,,,,
,,,,,,,,,,,,,,,,,199012,18,2022-01-28_15h58.13.098,lexical_decision_task_DD_L5,2021.2.3,Win32,74.91759065,,,,,,,,,,0.8533,1,,,,,,,,,,,,,,m,1,,,,,,,,1.023479189,-0.401814301,0,0,0,,0,160,160,76,1,MIDGET,LB,old,m,./images/MIDGETLB.png,0.8533,,,,,,,,,,,,,,,,,,,,,,,
,,,,,,,,,,,,,,,,,199012,18,2022-01-28_15h58.13.098,lexical_decision_task_DD_L5,2021.2.3,Win32,74.91759065,,,,,,,,,,1.0206,1,,,,,,,,,,,,,,z,1,,,,,,,,1.023479189,-0.401814301,0,0,0,,0,161,161,129,1,PRANS,C,old,z,./images/PRANS.png,1.0206,,,,,,,,,,,,,,,,,,,,,,,
,,,,,,,,,,,,,,,,,199012,18,2022-01-28_15h58.13.098,lexical_decision_task_DD_L5,2021.2.3,Win32,74.91759065,,,,,,,,,,0.6199,1,,,,,,,,,,,,,,z,1,,,,,,,,1.023479189,-0.401814301,0,0,0,,0,162,162,141,1,PLEET,C,old,z,./images/PLEET.png,0.6199,,,,,,,,,,,,,,,,,,,,,,,
,,,,,,,,,,,,,,,,,199012,18,2022-01-28_15h58.13.098,lexical_decision_task_DD_L5,2021.2.3,Win32,74.91759065,,,,,,,,,,0.5794,1,,,,,,,,,,,,,,z,1,,,,,,,,1.023479189,-0.401814301,0,0,0,,0,163,163,110,1,CRUNK,LB,old,z,./images/CRUNKLB.png,0.5794,,,,,,,,,,,,,,,,,,,,,,,
,,,,,,,,,,,,,,,,,199012,18,2022-01-28_15h58.13.098,lexical_decision_task_DD_L5,2021.2.3,Win32,74.91759065,,,,,,,,,,1.8191,1,,,,,,,,,,,,,,m,1,,,,,,,,1.023479189,-0.401814301,0,0,0,,0,164,164,33,1,SAUNA,HB,old,m,./images/SAUNAHB.png,1.8191,,,,,,,,,,,,,,,,,,,,,,,
,,,,,,,,,,,,,,,,,199012,18,2022-01-28_15h58.13.098,lexical_decision_task_DD_L5,2021.2.3,Win32,74.91759065,,,,,,,,,,1.1142,1,,,,,,,,,,,,,,m,1,,,,,,,,1.023479189,-0.401814301,0,0,0,,0,165,165,11,1,MEDAL,C,old,m,./images/MEDAL.png,1.1142,,,,,,,,,,,,,,,,,,,,,,,
,,,,,,,,,,,,,,,,,199012,18,2022-01-28_15h58.13.098,lexical_decision_task_DD_L5,2021.2.3,Win32,74.91759065,,,,,,,,,,2.8367,1,,,,,,,,,,,,,,z,1,,,,,,,,1.023479189,-0.401814301,0,0,0,,0,166,166,106,1,CLUMS,HB,old,z,./images/CLUMSHB.png,2.8367,,,,,,,,,,,,,,,,,,,,,,,
,,,,,,,,,,,,,,,,,199012,18,2022-01-28_15h58.13.098,lexical_decision_task_DD_L5,2021.2.3,Win32,74.91759065,,,,,,,,,,0.8539,1,,,,,,,,,,,,,,z,1,,,,,,,,1.023479189,-0.401814301,0,0,0,,0,167,167,108,1,GRUET,C,old,z,./images/GRUET.png,0.8539,,,,,,,,,,,,,,,,,,,,,,,
space,1.023479189,-0.401814301,0,0,0,,,,,,,1,test,"In the next phase you will be presented with the words from the the first phase. Your job is to decide whether you remember seeing the word or not. If you remember seeing the word press ""old"" or type ""m"". If you do not remember seeing the word press ""new"" or type ""z"". Please press the space bar or click on continue to begin. ",,,199012,18,2022-01-28_15h58.13.098,lexical_decision_task_DD_L5,2021.2.3,Win32,74.91759065,,,,,,,,,,,,,,,,,,,,,,,,,,,,,,,,,,,,,,,,,,,,,,,,,,,,,11.0625,0,0,0,0,1,,,,,,,,,,,,,,,
space,1.023479189,-0.401814301,0,0,0,,,,,,,1,test,"In the next phase you will be presented with the words from the the first phase. Your job is to decide whether you remember seeing the word or not. If you remember seeing the word press ""old"" or type ""m"". If you do not remember seeing the word press ""new"" or type ""z"". Please press the space bar or click on continue to begin. ",,,199012,18,2022-01-28_15h58.13.098,lexical_decision_task_DD_L5,2021.2.3,Win32,74.91759065,,,,,,,,,,,,,,,,,,,,,,,,,,,,,,,,,,,,,,,,,,,,,,,,,,,,,1.6112,1,0,1,0,1,,,,,,,,,,,,,,,
space,1.023479189,-0.401814301,0,0,0,,,,,,,1,test,"In the next phase you will be presented with the words from the the first phase. Your job is to decide whether you remember seeing the word or not. If you remember seeing the word press ""old"" or type ""m"". If you do not remember seeing the word press ""new"" or type ""z"". Please press the space bar or click on continue to begin. ",,,199012,18,2022-01-28_15h58.13.098,lexical_decision_task_DD_L5,2021.2.3,Win32,74.91759065,,,,,,,,,,,,,,,,,,,,,,,,,,,,,,,,,,,,,,,,,,,,,,,,,,,,,0.312,2,0,2,0,1,,,,,,,,,,,,,,,
space,1.023479189,-0.401814301,0,0,0,,,,,,,1,test,"In the next phase you will be presented with the words from the the first phase. Your job is to decide whether you remember seeing the word or not. If you remember seeing the word press ""old"" or type ""m"". If you do not remember seeing the word press ""new"" or type ""z"". Please press the space bar or click on continue to begin. ",,,199012,18,2022-01-28_15h58.13.098,lexical_decision_task_DD_L5,2021.2.3,Win32,74.91759065,,,,,,,,,,,,,,,,,,,,,,,,,,,,,,,,,,,,,,,,,,,,,,,,,,,,,0.2905,3,0,3,0,1,,,,,,,,,,,,,,,
space,1.023479189,-0.401814301,0,0,0,,,,,,,1,test,"In the next phase you will be presented with the words from the the first phase. Your job is to decide whether you remember seeing the word or not. If you remember seeing the word press ""old"" or type ""m"". If you do not remember seeing the word press ""new"" or type ""z"". Please press the space bar or click on continue to begin. ",,,199012,18,2022-01-28_15h58.13.098,lexical_decision_task_DD_L5,2021.2.3,Win32,74.91759065,,,,,,,,,,,,,,,,,,,,,,,,,,,,,,,,,,,,,,,,,,,,,,,,,,,,,0.2934,4,0,4,0,1,,,,,,,,,,,,,,,
,,,,,,,,,,,,,,,,,199012,18,2022-01-28_15h58.13.098,lexical_decision_task_DD_L5,2021.2.3,Win32,74.91759065,,,,,,,,,,2.0002,1,,,,,,,,,,,,,,,,,,,,,,,1.023479189,-0.401814301,0,0,0,,,,,,,BEARD,C,z,y,./images/BEARD.png,,,,,,,,,,z,1,2.0002,,,,,,,,0,0,0,86,1
,,,,,,,,,,,,,,,,,199012,18,2022-01-28_15h58.13.098,lexical_decision_task_DD_L5,2021.2.3,Win32,74.91759065,,,,,,,,,,4.2605,1,,,,,,,,,,,,,,,,,,,,,,,1.023479189,-0.401814301,0,0,0,,,,,,,BANANA,LB,m,y,./images/BANANALB.png,,,,,,,,,,m,1,4.2605,,,,,,,,0,1,1,70,1
,,,,,,,,,,,,,,,,,199012,18,2022-01-28_15h58.13.098,lexical_decision_task_DD_L5,2021.2.3,Win32,74.91759065,,,,,,,,,,0.8586,1,,,,,,,,,,,,,,,,,,,,,,,1.023479189,-0.401814301,0,0,0,,,,,,,SHIELD,HB,m,y,./images/SHIELDHB.png,,,,,,,,,,m,1,0.8586,,,,,,,,0,2,2,48,1
,,,,,,,,,,,,,,,,,199012,18,2022-01-28_15h58.13.098,lexical_decision_task_DD_L5,2021.2.3,Win32,74.91759065,,,,,,,,,,1.2902,1,,,,,,,,,,,,,,,,,,,,,,,1.023479189,-0.401814301,0,0,0,,,,,,,BLOKE,HB,m,y,./images/BLOKEHB.png,,,,,,,,,,m,1,1.2902,,,,,,,,0,3,3,12,1
,,,,,,,,,,,,,,,,,199012,18,2022-01-28_15h58.13.098,lexical_decision_task_DD_L5,2021.2.3,Win32,74.91759065,,,,,,,,,,0.9268,0,,,,,,,,,,,,,,,,,,,,,,,1.023479189,-0.401814301,0,0,0,,,,,,,PAINT,LB,z,y,./images/PAINTLB.png,,,,,,,,,,m,0,0.9268,,,,,,,,0,4,4,91,1
,,,,,,,,,,,,,,,,,199012,18,2022-01-28_15h58.13.098,lexical_decision_task_DD_L5,2021.2.3,Win32,74.91759065,,,,,,,,,,1.8837,0,,,,,,,,,,,,,,,,,,,,,,,1.023479189,-0.401814301,0,0,0,,,,,,,BELLY,LB,z,y,./images/BELLYLB.png,,,,,,,,,,m,0,1.8837,,,,,,,,0,5,5,94,1
,,,,,,,,,,,,,,,,,199012,18,2022-01-28_15h58.13.098,lexical_decision_task_DD_L5,2021.2.3,Win32,74.91759065,,,,,,,,,,0.8003,1,,,,,,,,,,,,,,,,,,,,,,,1.023479189,-0.401814301,0,0,0,,,,,,,PASTA,C,z,y,./images/PASTA.png,,,,,,,,,,z,1,0.8003,,,,,,,,0,6,6,89,1
,,,,,,,,,,,,,,,,,199012,18,2022-01-28_15h58.13.098,lexical_decision_task_DD_L5,2021.2.3,Win32,74.91759065,,,,,,,,,,0.6502,0,,,,,,,,,,,,,,,,,,,,,,,1.023479189,-0.401814301,0,0,0,,,,,,,CHAIN,HB,m,y,./images/CHAINHB.png,,,,,,,,,,z,0,0.6502,,,,,,,,0,7,7,42,1
,,,,,,,,,,,,,,,,,199012,18,2022-01-28_15h58.13.098,lexical_decision_task_DD_L5,2021.2.3,Win32,74.91759065,,,,,,,,,,1.4711,1,,,,,,,,,,,,,,,,,,,,,,,1.023479189,-0.401814301,0,0,0,,,,,,,STATUE,HB,m,y,./images/STATUEHB.png,,,,,,,,,,m,1,1.4711,,,,,,,,0,8,8,66,1
,,,,,,,,,,,,,,,,,199012,18,2022-01-28_15h58.13.098,lexical_decision_task_DD_L5,2021.2.3,Win32,74.91759065,,,,,,,,,,0.3931,1,,,,,,,,,,,,,,,,,,,,,,,1.023479189,-0.401814301,0,0,0,,,,,,,PENCE,LB,z,y,./images/PENCELB.png,,,,,,,,,,z,1,0.3931,,,,,,,,0,9,9,100,1
,,,,,,,,,,,,,,,,,199012,18,2022-01-28_15h58.13.098,lexical_decision_task_DD_L5,2021.2.3,Win32,74.91759065,,,,,,,,,,0.0432,1,,,,,,,,,,,,,,,,,,,,,,,1.023479189,-0.401814301,0,0,0,,,,,,,SPINE,C,m,y,./images/SPINE.png,,,,,,,,,,m,1,0.0432,,,,,,,,0,10,10,65,1
,,,,,,,,,,,,,,,,,199012,18,2022-01-28_15h58.13.098,lexical_decision_task_DD_L5,2021.2.3,Win32,74.91759065,,,,,,,,,,0.0007,1,,,,,,,,,,,,,,,,,,,,,,,1.023479189,-0.401814301,0,0,0,,,,,,,BASKET,C,m,y,./images/BASKET.png,,,,,,,,,,m,1,0.0007,,,,,,,,0,11,11,44,1
,,,,,,,,,,,,,,,,,199012,18,2022-01-28_15h58.13.098,lexical_decision_task_DD_L5,2021.2.3,Win32,74.91759065,,,,,,,,,,0.0026,1,,,,,,,,,,,,,,,,,,,,,,,1.023479189,-0.401814301,0,0,0,,,,,,,FENCE,C,m,y,./images/FENCE.png,,,,,,,,,,m,1,0.0026,,,,,,,,0,12,12,14,1
,,,,,,,,,,,,,,,,,199012,18,2022-01-28_15h58.13.098,lexical_decision_task_DD_L5,2021.2.3,Win32,74.91759065,,,,,,,,,,0.0875,1,,,,,,,,,,,,,,,,,,,,,,,1.023479189,-0.401814301,0,0,0,,,,,,,RULER,LB,m,y,./images/RULERLB.png,,,,,,,,,,m,1,0.0875,,,,,,,,0,13,13,79,1
,,,,,,,,,,,,,,,,,199012,18,2022-01-28_15h58.13.098,lexical_decision_task_DD_L5,2021.2.3,Win32,74.91759065,,,,,,,,,,0.053,0,,,,,,,,,,,,,,,,,,,,,,,1.023479189,-0.401814301,0,0,0,,,,,,,KIDNEY,HB,z,y,./images/KIDNEYHB.png,,,,,,,,,,m,0,0.053,,,,,,,,0,14,14,105,1
,,,,,,,,,,,,,,,,,199012,18,2022-01-28_15h58.13.098,lexical_decision_task_DD_L5,2021.2.3,Win32,74.91759065,,,,,,,,,,0.0203,1,,,,,,,,,,,,,,,,,,,,,,,1.023479189,-0.401814301,0,0,0,,,,,,,MONKEY,HB,m,y,./images/MONKEYHB.png,,,,,,,,,,m,1,0.0203,,,,,,,,0,15,15,45,1
,,,,,,,,,,,,,,,,,199012,18,2022-01-28_15h58.13.098,lexical_decision_task_DD_L5,2021.2.3,Win32,74.91759065,,,,,,,,,,0.013,1,,,,,,,,,,,,,,,,,,,,,,,1.023479189,-0.401814301,0,0,0,,,,,,,SWEAT,HB,z,y,./images/SWEATHB.png,,,,,,,,,,z,1,0.013,,,,,,,,0,16,16,150,1
,,,,,,,,,,,,,,,,,199012,18,2022-01-28_15h58.13.098,lexical_decision_task_DD_L5,2021.2.3,Win32,74.91759065,,,,,,,,,,0.0278,1,,,,,,,,,,,,,,,,,,,,,,,1.023479189,-0.401814301,0,0,0,,,,,,,WHEEL,C,m,y,./images/WHEEL.png,,,,,,,,,,m,1,0.0278,,,,,,,,0,17,17,77,1
,,,,,,,,,,,,,,,,,199012,18,2022-01-28_15h58.13.098,lexical_decision_task_DD_L5,2021.2.3,Win32,74.91759065,,,,,,,,,,0.118,0,,,,,,,,,,,,,,,,,,,,,,,1.023479189,-0.401814301,0,0,0,,,,,,,URINE,LB,z,y,./images/URINELB.png,,,,,,,,,,m,0,0.118,,,,,,,,0,18,18,154,1
,,,,,,,,,,,,,,,,,199012,18,2022-01-28_15h58.13.098,lexical_decision_task_DD_L5,2021.2.3,Win32,74.91759065,,,,,,,,,,0.0802,1,,,,,,,,,,,,,,,,,,,,,,,1.023479189,-0.401814301,0,0,0,,,,,,,GRAPE,LB,m,y,./images/GRAPELB.png,,,,,,,,,,m,1,0.0802,,,,,,,,0,19,19,16,1
,,,,,,,,,,,,,,,,,199012,18,2022-01-28_15h58.13.098,lexical_decision_task_DD_L5,2021.2.3,Win32,74.91759065,,,,,,,,,,0.0935,0,,,,,,,,,,,,,,,,,,,,,,,1.023479189,-0.401814301,0,0,0,,,,,,,THROAT,HB,z,y,./images/THROATHB.png,,,,,,,,,,m,0,0.0935,,,,,,,,0,20,20,120,1
,,,,,,,,,,,,,,,,,199012,18,2022-01-28_15h58.13.098,lexical_decision_task_DD_L5,2021.2.3,Win32,74.91759065,,,,,,,,,,0.045,0,,,,,,,,,,,,,,,,,,,,,,,1.023479189,-0.401814301,0,0,0,,,,,,,JUNGLE,C,z,y,./images/JUNGLE.png,,,,,,,,,,m,0,0.045,,,,,,,,0,21,21,167,1
,,,,,,,,,,,,,,,,,199012,18,2022-01-28_15h58.13.098,lexical_decision_task_DD_L5,2021.2.3,Win32,74.91759065,,,,,,,,,,0.1064,0,,,,,,,,,,,,,,,,,,,,,,,1.023479189,-0.401814301,0,0,0,,,,,,,SUNSET,LB,z,y,./images/SUNSETLB.png,,,,,,,,,,m,0,0.1064,,,,,,,,0,22,22,166,1
,,,,,,,,,,,,,,,,,199012,18,2022-01-28_15h58.13.098,lexical_decision_task_DD_L5,2021.2.3,Win32,74.91759065,,,,,,,,,,0.1082,1,,,,,,,,,,,,,,,,,,,,,,,1.023479189,-0.401814301,0,0,0,,,,,,,BROOM,HB,m,y,./images/BROOMHB.png,,,,,,,,,,m,1,0.1082,,,,,,,,0,23,23,78,1
,,,,,,,,,,,,,,,,,199012,18,2022-01-28_15h58.13.098,lexical_decision_task_DD_L5,2021.2.3,Win32,74.91759065,,,,,,,,,,0.0397,0,,,,,,,,,,,,,,,,,,,,,,,1.023479189,-0.401814301,0,0,0,,,,,,,MIDGET,LB,m,y,./images/MIDGETLB.png,,,,,,,,,,z,0,0.0397,,,,,,,,0,24,24,76,1
,,,,,,,,,,,,,,,,,199012,18,2022-01-28_15h58.13.098,lexical_decision_task_DD_L5,2021.2.3,Win32,74.91759065,,,,,,,,,,0.7157,1,,,,,,,,,,,,,,,,,,,,,,,1.023479189,-0.401814301,0,0,0,,,,,,,CANDY,HB,m,y,./images/CANDYHB.png,,,,,,,,,,m,1,0.7157,,,,,,,,0,25,25,39,1
,,,,,,,,,,,,,,,,,199012,18,2022-01-28_15h58.13.098,lexical_decision_task_DD_L5,2021.2.3,Win32,74.91759065,,,,,,,,,,1.278,1,,,,,,,,,,,,,,,,,,,,,,,1.023479189,-0.401814301,0,0,0,,,,,,,TWINS,HB,z,y,./images/TWINSHB.png,,,,,,,,,,z,1,1.278,,,,,,,,0,26,26,144,1
,,,,,,,,,,,,,,,,,199012,18,2022-01-28_15h58.13.098,lexical_decision_task_DD_L5,2021.2.3,Win32,74.91759065,,,,,,,,,,1.0801,0,,,,,,,,,,,,,,,,,,,,,,,1.023479189,-0.401814301,0,0,0,,,,,,,SHELF,HB,z,y,./images/SHELFHB.png,,,,,,,,,,m,0,1.0801,,,,,,,,0,27,27,123,1
,,,,,,,,,,,,,,,,,199012,18,2022-01-28_15h58.13.098,lexical_decision_task_DD_L5,2021.2.3,Win32,74.91759065,,,,,,,,,,0.4048,1,,,,,,,,,,,,,,,,,,,,,,,1.023479189,-0.401814301,0,0,0,,,,,,,DESERT,LB,m,y,./images/DESERTLB.png,,,,,,,,,,m,1,0.4048,,,,,,,,0,28,28,52,1
,,,,,,,,,,,,,,,,,199012,18,2022-01-28_15h58.13.098,lexical_decision_task_DD_L5,2021.2.3,Win32,74.91759065,,,,,,,,,,0.6816,1,,,,,,,,,,,,,,,,,,,,,,,1.023479189,-0.401814301,0,0,0,,,,,,,SAUNA,HB,m,y,./images/SAUNAHB.png,,,,,,,,,,m,1,0.6816,,,,,,,,0,29,29,33,1
,,,,,,,,,,,,,,,,,199012,18,2022-01-28_15h58.13.098,lexical_decision_task_DD_L5,2021.2.3,Win32,74.91759065,,,,,,,,,,1.1987,0,,,,,,,,,,,,,,,,,,,,,,,1.023479189,-0.401814301,0,0,0,,,,,,,SWING,LB,z,y,./images/SWINGLB.png,,,,,,,,,,m,0,1.1987,,,,,,,,0,30,30,124,1
,,,,,,,,,,,,,,,,,199012,18,2022-01-28_15h58.13.098,lexical_decision_task_DD_L5,2021.2.3,Win32,74.91759065,,,,,,,,,,0.9606,1,,,,,,,,,,,,,,,,,,,,,,,1.023479189,-0.401814301,0,0,0,,,,,,,SNAKE,LB,m,y,./images/SNAKELB.png,,,,,,,,,,m,1,0.9606,,,,,,,,0,31,31,40,1
,,,,,,,,,,,,,,,,,199012,18,2022-01-28_15h58.13.098,lexical_decision_task_DD_L5,2021.2.3,Win32,74.91759065,,,,,,,,,,2.1657,1,,,,,,,,,,,,,,,,,,,,,,,1.023479189,-0.401814301,0,0,0,,,,,,,STREAM,C,m,y,./images/STREAM.png,,,,,,,,,,m,1,2.1657,,,,,,,,0,32,32,41,1
,,,,,,,,,,,,,,,,,199012,18,2022-01-28_15h58.13.098,lexical_decision_task_DD_L5,2021.2.3,Win32,74.91759065,,,,,,,,,,0.6178,1,,,,,,,,,,,,,,,,,,,,,,,1.023479189,-0.401814301,0,0,0,,,,,,,BERRY,C,z,y,./images/BERRY.png,,,,,,,,,,z,1,0.6178,,,,,,,,0,33,33,131,1
,,,,,,,,,,,,,,,,,199012,18,2022-01-28_15h58.13.098,lexical_decision_task_DD_L5,2021.2.3,Win32,74.91759065,,,,,,,,,,0.8014,1,,,,,,,,,,,,,,,,,,,,,,,1.023479189,-0.401814301,0,0,0,,,,,,,MOSQUE,LB,z,y,./images/MOSQUELB.png,,,,,,,,,,z,1,0.8014,,,,,,,,0,34,34,127,1
,,,,,,,,,,,,,,,,,199012,18,2022-01-28_15h58.13.098,lexical_decision_task_DD_L5,2021.2.3,Win32,74.91759065,,,,,,,,,,0.7501,0,,,,,,,,,,,,,,,,,,,,,,,1.023479189,-0.401814301,0,0,0,,,,,,,BUBBLE,C,m,y,./images/BUBBLE.png,,,,,,,,,,z,0,0.7501,,,,,,,,0,35,35,71,1
,,,,,,,,,,,,,,,,,199012,18,2022-01-28_15h58.13.098,lexical_decision_task_DD_L5,2021.2.3,Win32,74.91759065,,,,,,,,,,0.9124,1,,,,,,,,,,,,,,,,,,,,,,,1.023479189,-0.401814301,0,0,0,,,,,,,STOOL,LB,m,y,./images/STOOLLB.png,,,,,,,,,,m,1,0.9124,,,,,,,,0,36,36,43,1
,,,,,,,,,,,,,,,,,199012,18,2022-01-28_15h58.13.098,lexical_decision_task_DD_L5,2021.2.3,Win32,74.91759065,,,,,,,,,,0.8024,1,,,,,,,,,,,,,,,,,,,,,,,1.023479189,-0.401814301,0,0,0,,,,,,,TOMATO,HB,z,y,./images/TOMATOHB.png,,,,,,,,,,z,1,0.8024,,,,,,,,0,37,37,84,1
,,,,,,,,,,,,,,,,,199012,18,2022-01-28_15h58.13.098,lexical_decision_task_DD_L5,2021.2.3,Win32,74.91759065,,,,,,,,,,1.1354,1,,,,,,,,,,,,,,,,,,,,,,,1.023479189,-0.401814301,0,0,0,,,,,,,BONNET,C,z,y,./images/BONNET.png,,,,,,,,,,z,1,1.1354,,,,,,,,0,38,38,95,1
,,,,,,,,,,,,,,,,,199012,18,2022-01-28_15h58.13.098,lexical_decision_task_DD_L5,2021.2.3,Win32,74.91759065,,,,,,,,,,0.8067,1,,,,,,,,,,,,,,,,,,,,,,,1.023479189,-0.401814301,0,0,0,,,,,,,LAGOON,C,m,y,./images/LAGOON.png,,,,,,,,,,m,1,0.8067,,,,,,,,0,39,39,47,1
,,,,,,,,,,,,,,,,,199012,18,2022-01-28_15h58.13.098,lexical_decision_task_DD_L5,2021.2.3,Win32,74.91759065,,,,,,,,,,1.3635,0,,,,,,,,,,,,,,,,,,,,,,,1.023479189,-0.401814301,0,0,0,,,,,,,STORM,HB,z,y,./images/STORMHB.png,,,,,,,,,,m,0,1.3635,,,,,,,,0,40,40,114,1
,,,,,,,,,,,,,,,,,199012,18,2022-01-28_15h58.13.098,lexical_decision_task_DD_L5,2021.2.3,Win32,74.91759065,,,,,,,,,,0.7041,1,,,,,,,,,,,,,,,,,,,,,,,1.023479189,-0.401814301,0,0,0,space,,,,,,PEACH,C,z,y,./images/PEACH.png,,1.3203,,,,,,,,z,1,0.7041,,,,,,,,0,41,41,119,1
,,,,,,,,,,,,,,,,,199012,18,2022-01-28_15h58.13.098,lexical_decision_task_DD_L5,2021.2.3,Win32,74.91759065,,,,,,,,,,0.0002,0,,,,,,,,,,,,,,,,,,,,,,,1.023479189,-0.401814301,0,0,0,,,,,,,FLASK,HB,m,y,./images/FLASKHB.png,,,,,,,,,,z,0,0.0002,,,,,,,,0,42,42,72,1
,,,,,,,,,,,,,,,,,199012,18,2022-01-28_15h58.13.098,lexical_decision_task_DD_L5,2021.2.3,Win32,74.91759065,,,,,,,,,,0.0307,1,,,,,,,,,,,,,,,,,,,,,,,1.023479189,-0.401814301,0,0,0,,,,,,,DOUGH,LB,z,y,./images/DOUGHLB.png,,,,,,,,,,z,1,0.0307,,,,,,,,0,43,43,103,1
,,,,,,,,,,,,,,,,,199012,18,2022-01-28_15h58.13.098,lexical_decision_task_DD_L5,2021.2.3,Win32,74.91759065,,,,,,,,,,0.0812,0,,,,,,,,,,,,,,,,,,,,,,,1.023479189,-0.401814301,0,0,0,,,,,,,SAILOR,LB,z,y,./images/SAILORLB.png,,,,,,,,,,m,0,0.0812,,,,,,,,0,44,44,151,1
,,,,,,,,,,,,,,,,,199012,18,2022-01-28_15h58.13.098,lexical_decision_task_DD_L5,2021.2.3,Win32,74.91759065,,,,,,,,,,0.0222,1,,,,,,,,,,,,,,,,,,,,,,,1.023479189,-0.401814301,0,0,0,,,,,,,BURIAL,C,z,y,./images/BURIAL.png,,,,,,,,,,z,1,0.0222,,,,,,,,0,45,45,143,1
,,,,,,,,,,,,,,,,,199012,18,2022-01-28_15h58.13.098,lexical_decision_task_DD_L5,2021.2.3,Win32,74.91759065,,,,,,,,,,0.014,1,,,,,,,,,,,,,,,,,,,,,,,1.023479189,-0.401814301,0,0,0,,,,,,,MOTOR,LB,z,y,./images/MOTORLB.png,,,,,,,,,,z,1,0.014,,,,,,,,0,46,46,97,1
,,,,,,,,,,,,,,,,,199012,18,2022-01-28_15h58.13.098,lexical_decision_task_DD_L5,2021.2.3,Win32,74.91759065,,,,,,,,,,0.0056,1,,,,,,,,,,,,,,,,,,,,,,,1.023479189,-0.401814301,0,0,0,,,,,,,QUILL,LB,z,y,./images/QUILLLB.png,,,,,,,,,,z,1,0.0056,,,,,,,,0,47,47,115,1
,,,,,,,,,,,,,,,,,199012,18,2022-01-28_15h58.13.098,lexical_decision_task_DD_L5,2021.2.3,Win32,74.91759065,,,,,,,,,,0.0745,0,,,,,,,,,,,,,,,,,,,,,,,1.023479189,-0.401814301,0,0,0,,,,,,,TRIPOD,HB,z,y,./images/TRIPODHB.png,,,,,,,,,,m,0,0.0745,,,,,,,,0,48,48,138,1
,,,,,,,,,,,,,,,,,199012,18,2022-01-28_15h58.13.098,lexical_decision_task_DD_L5,2021.2.3,Win32,74.91759065,,,,,,,,,,0.0532,1,,,,,,,,,,,,,,,,,,,,,,,1.023479189,-0.401814301,0,0,0,,,,,,,JUMPER,C,m,y,./images/JUMPER.png,,,,,,,,,,m,1,0.0532,,,,,,,,0,49,49,74,1
,,,,,,,,,,,,,,,,,199012,18,2022-01-28_15h58.13.098,lexical_decision_task_DD_L5,2021.2.3,Win32,74.91759065,,,,,,,,,,0.0931,1,,,,,,,,,,,,,,,,,,,,,,,1.023479189,-0.401814301,0,0,0,,,,,,,BRIDE,LB,m,y,./images/BRIDELB.png,,,,,,,,,,m,1,0.0931,,,,,,,,0,50,50,64,1
,,,,,,,,,,,,,,,,,199012,18,2022-01-28_15h58.13.098,lexical_decision_task_DD_L5,2021.2.3,Win32,74.91759065,,,,,,,,,,0.0603,1,,,,,,,,,,,,,,,,,,,,,,,1.023479189,-0.401814301,0,0,0,,,,,,,MEDAL,C,m,y,./images/MEDAL.png,,,,,,,,,,m,1,0.0603,,,,,,,,0,51,51,11,1
,,,,,,,,,,,,,,,,,199012,18,2022-01-28_15h58.13.098,lexical_decision_task_DD_L5,2021.2.3,Win32,74.91759065,,,,,,,,,,0.036,1,,,,,,,,,,,,,,,,,,,,,,,1.023479189,-0.401814301,0,0,0,,,,,,,CEMENT,C,z,y,./images/CEMENT.png,,,,,,,,,,z,1,0.036,,,,,,,,0,52,52,158,1
,,,,,,,,,,,,,,,,,199012,18,2022-01-28_15h58.13.098,lexical_decision_task_DD_L5,2021.2.3,Win32,74.91759065,,,,,,,,,,0.0065,0,,,,,,,,,,,,,,,,,,,,,,,1.023479189,-0.401814301,0,0,0,,,,,,,SKIING,C,z,y,./images/SKIING.png,,,,,,,,,,m,0,0.0065,,,,,,,,0,53,53,101,1
,,,,,,,,,,,,,,,,,199012,18,2022-01-28_15h58.13.098,lexical_decision_task_DD_L5,2021.2.3,Win32,74.91759065,,,,,,,,,,0.0352,0,,,,,,,,,,,,,,,,,,,,,,,1.023479189,-0.401814301,0,0,0,,,,,,,CHALK,LB,m,y,./images/CHALKLB.png,,,,,,,,,,z,0,0.0352,,,,,,,,0,54,54,25,1
,,,,,,,,,,,,,,,,,199012,18,2022-01-28_15h58.13.098,lexical_decision_task_DD_L5,2021.2.3,Win32,74.91759065,,,,,,,,,,0.0378,1,,,,,,,,,,,,,,,,,,,,,,,1.023479189,-0.401814301,0,0,0,,,,,,,DONKEY,LB,m,y,./images/DONKEYLB.png,,,,,,,,,,m,1,0.0378,,,,,,,,0,55,55,19,1
,,,,,,,,,,,,,,,,,199012,18,2022-01-28_15h58.13.098,lexical_decision_task_DD_L5,2021.2.3,Win32,74.91759065,,,,,,,,,,0.0399,0,,,,,,,,,,,,,,,,,,,,,,,1.023479189,-0.401814301,0,0,0,,,,,,,PEBBLE,LB,m,y,./images/PEBBLELB.png,,,,,,,,,,z,0,0.0399,,,,,,,,0,56,56,82,1
,,,,,,,,,,,,,,,,,199012,18,2022-01-28_15h58.13.098,lexical_decision_task_DD_L5,2021.2.3,Win32,74.91759065,,,,,,,,,,0.125,1,,,,,,,,,,,,,,,,,,,,,,,1.023479189,-0.401814301,0,0,0,,,,,,,MALLET,C,z,y,./images/MALLET.png,,,,,,,,,,z,1,0.125,,,,,,,,0,57,57,134,1
,,,,,,,,,,,,,,,,,199012,18,2022-01-28_15h58.13.098,lexical_decision_task_DD_L5,2021.2.3,Win32,74.91759065,,,,,,,,,,0.1541,0,,,,,,,,,,,,,,,,,,,,,,,1.023479189,-0.401814301,0,0,0,,,,,,,STEAK,LB,m,y,./images/STEAKLB.png,,,,,,,,,,z,0,0.1541,,,,,,,,0,58,58,31,1
,,,,,,,,,,,,,,,,,199012,18,2022-01-28_15h58.13.098,lexical_decision_task_DD_L5,2021.2.3,Win32,74.91759065,,,,,,,,,,0.0003,0,,,,,,,,,,,,,,,,,,,,,,,1.023479189,-0.401814301,0,0,0,,,,,,,MAGGOT,HB,z,y,./images/MAGGOTHB.png,,,,,,,,,,m,0,0.0003,,,,,,,,0,59,59,117,1
,,,,,,,,,,,,,,,,,199012,18,2022-01-28_15h58.13.098,lexical_decision_task_DD_L5,2021.2.3,Win32,74.91759065,,,,,,,,,,0.0229,0,,,,,,,,,,,,,,,,,,,,,,,1.023479189,-0.401814301,0,0,0,,,,,,,SNACK,LB,z,y,./images/SNACKLB.png,,,,,,,,,,m,0,0.0229,,,,,,,,0,60,60,157,1
,,,,,,,,,,,,,,,,,199012,18,2022-01-28_15h58.13.098,lexical_decision_task_DD_L5,2021.2.3,Win32,74.91759065,,,,,,,,,,0.0624,1,,,,,,,,,,,,,,,,,,,,,,,1.023479189,-0.401814301,0,0,0,,,,,,,FARMER,C,z,y,./images/FARMER.png,,,,,,,,,,z,1,0.0624,,,,,,,,0,61,61,149,1
,,,,,,,,,,,,,,,,,199012,18,2022-01-28_15h58.13.098,lexical_decision_task_DD_L5,2021.2.3,Win32,74.91759065,,,,,,,,,,0.0699,1,,,,,,,,,,,,,,,,,,,,,,,1.023479189,-0.401814301,0,0,0,,,,,,,MELON,LB,z,y,./images/MELONLB.png,,,,,,,,,,z,1,0.0699,,,,,,,,0,62,62,106,1
,,,,,,,,,,,,,,,,,199012,18,2022-01-28_15h58.13.098,lexical_decision_task_DD_L5,2021.2.3,Win32,74.91759065,,,,,,,,,,0.0084,0,,,,,,,,,,,,,,,,,,,,,,,1.023479189,-0.401814301,0,0,0,,,,,,,FOLDER,HB,z,y,./images/FOLDERHB.png,,,,,,,,,,m,0,0.0084,,,,,,,,0,63,63,126,1
,,,,,,,,,,,,,,,,,199012,18,2022-01-28_15h58.13.098,lexical_decision_task_DD_L5,2021.2.3,Win32,74.91759065,,,,,,,,,,0.0694,1,,,,,,,,,,,,,,,,,,,,,,,1.023479189,-0.401814301,0,0,0,,,,,,,PURSE,C,z,y,./images/PURSE.png,,,,,,,,,,z,1,0.0694,,,,,,,,0,64,64,146,1
,,,,,,,,,,,,,,,,,199012,18,2022-01-28_15h58.13.098,lexical_decision_task_DD_L5,2021.2.3,Win32,74.91759065,,,,,,,,,,0.0316,0,,,,,,,,,,,,,,,,,,,,,,,1.023479189,-0.401814301,0,0,0,,,,,,,COOKER,HB,z,y,./images/COOKERHB.png,,,,,,,,,,m,0,0.0316,,,,,,,,0,65,65,153,1
,,,,,,,,,,,,,,,,,199012,18,2022-01-28_15h58.13.098,lexical_decision_task_DD_L5,2021.2.3,Win32,74.91759065,,,,,,,,,,9.99999E-05,1,,,,,,,,,,,,,,,,,,,,,,,1.023479189,-0.401814301,0,0,0,,,,,,,CRATER,HB,m,y,./images/CRATERHB.png,,,,,,,,,,m,1,9.99999E-05,,,,,,,,0,66,66,3,1
,,,,,,,,,,,,,,,,,199012,18,2022-01-28_15h58.13.098,lexical_decision_task_DD_L5,2021.2.3,Win32,74.91759065,,,,,,,,,,0.0045,1,,,,,,,,,,,,,,,,,,,,,,,1.023479189,-0.401814301,0,0,0,,,,,,,SLOPE,HB,m,y,./images/SLOPEHB.png,,,,,,,,,,m,1,0.0045,,,,,,,,0,67,67,30,1
,,,,,,,,,,,,,,,,,199012,18,2022-01-28_15h58.13.098,lexical_decision_task_DD_L5,2021.2.3,Win32,74.91759065,,,,,,,,,,0.1064,1,,,,,,,,,,,,,,,,,,,,,,,1.023479189,-0.401814301,0,0,0,,,,,,,FALCON,LB,z,y,./images/FALCONLB.png,,,,,,,,,,z,1,0.1064,,,,,,,,0,68,68,112,1
,,,,,,,,,,,,,,,,,199012,18,2022-01-28_15h58.13.098,lexical_decision_task_DD_L5,2021.2.3,Win32,74.91759065,,,,,,,,,,0.0037,1,,,,,,,,,,,,,,,,,,,,,,,1.023479189,-0.401814301,0,0,0,,,,,,,MUMMY,LB,m,y,./images/MUMMYLB.png,,,,,,,,,,m,1,0.0037,,,,,,,,0,69,69,46,1
,,,,,,,,,,,,,,,,,199012,18,2022-01-28_15h58.13.098,lexical_decision_task_DD_L5,2021.2.3,Win32,74.91759065,,,,,,,,,,0.1449,1,,,,,,,,,,,,,,,,,,,,,,,1.023479189,-0.401814301,0,0,0,,,,,,,CRUMB,C,z,y,./images/CRUMB.png,,,,,,,,,,z,1,0.1449,,,,,,,,0,70,70,113,1
,,,,,,,,,,,,,,,,,199012,18,2022-01-28_15h58.13.098,lexical_decision_task_DD_L5,2021.2.3,Win32,74.91759065,,,,,,,,,,0.1045,0,,,,,,,,,,,,,,,,,,,,,,,1.023479189,-0.401814301,0,0,0,,,,,,,STRING,C,z,y,./images/STRING.png,,,,,,,,,,m,0,0.1045,,,,,,,,0,71,71,125,1
,,,,,,,,,,,,,,,,,199012,18,2022-01-28_15h58.13.098,lexical_decision_task_DD_L5,2021.2.3,Win32,74.91759065,,,,,,,,,,0.0642,1,,,,,,,,,,,,,,,,,,,,,,,1.023479189,-0.401814301,0,0,0,,,,,,,WRIST,LB,z,y,./images/WRISTLB.png,,,,,,,,,,z,1,0.0642,,,,,,,,0,72,72,109,1
,,,,,,,,,,,,,,,,,199012,18,2022-01-28_15h58.13.098,lexical_decision_task_DD_L5,2021.2.3,Win32,74.91759065,,,,,,,,,,0.0558,0,,,,,,,,,,,,,,,,,,,,,,,1.023479189,-0.401814301,0,0,0,,,,,,,SAUCE,HB,m,y,./images/SAUCEHB.png,,,,,,,,,,z,0,0.0558,,,,,,,,0,73,73,51,1
,,,,,,,,,,,,,,,,,199012,18,2022-01-28_15h58.13.098,lexical_decision_task_DD_L5,2021.2.3,Win32,74.91759065,,,,,,,,,,0.0157,1,,,,,,,,,,,,,,,,,,,,,,,1.023479189,-0.401814301,0,0,0,,,,,,,PISTOL,C,m,y,./images/PISTOL.png,,,,,,,,,,m,1,0.0157,,,,,,,,0,74,74,29,1
,,,,,,,,,,,,,,,,,199012,18,2022-01-28_15h58.13.098,lexical_decision_task_DD_L5,2021.2.3,Win32,74.91759065,,,,,,,,,,0.0711,1,,,,,,,,,,,,,,,,,,,,,,,1.023479189,-0.401814301,0,0,0,,,,,,,CARPET,C,z,y,./images/CARPET.png,,,,,,,,,,z,1,0.0711,,,,,,,,0,75,75,137,1
,,,,,,,,,,,,,,,,,199012,18,2022-01-28_15h58.13.098,lexical_decision_task_DD_L5,2021.2.3,Win32,74.91759065,,,,,,,,,,0.1375,0,,,,,,,,,,,,,,,,,,,,,,,1.023479189,-0.401814301,0,0,0,,,,,,,CLIFF,C,m,y,./images/CLIFF.png,,,,,,,,,,z,0,0.1375,,,,,,,,0,76,76,8,1
,,,,,,,,,,,,,,,,,199012,18,2022-01-28_15h58.13.098,lexical_decision_task_DD_L5,2021.2.3,Win32,74.91759065,,,,,,,,,,0.0002,1,,,,,,,,,,,,,,,,,,,,,,,1.023479189,-0.401814301,0,0,0,,,,,,,FINGER,HB,z,y,./images/FINGERHB.png,,,,,,,,,,z,1,0.0002,,,,,,,,0,77,77,87,1
,,,,,,,,,,,,,,,,,199012,18,2022-01-28_15h58.13.098,lexical_decision_task_DD_L5,2021.2.3,Win32,74.91759065,,,,,,,,,,0.0001,0,,,,,,,,,,,,,,,,,,,,,,,1.023479189,-0.401814301,0,0,0,,,,,,,CLOTH,C,m,y,./images/CLOTH.png,,,,,,,,,,z,0,0.0001,,,,,,,,0,78,78,23,1
,,,,,,,,,,,,,,,,,199012,18,2022-01-28_15h58.13.098,lexical_decision_task_DD_L5,2021.2.3,Win32,74.91759065,,,,,,,,,,0.0862,0,,,,,,,,,,,,,,,,,,,,,,,1.023479189,-0.401814301,0,0,0,,,,,,,PICKLE,C,z,y,./images/PICKLE.png,,,,,,,,,,m,0,0.0862,,,,,,,,0,79,79,98,1
,,,,,,,,,,,,,,,,,199012,18,2022-01-28_15h58.13.098,lexical_decision_task_DD_L5,2021.2.3,Win32,74.91759065,,,,,,,,,,0.1311,0,,,,,,,,,,,,,,,,,,,,,,,1.023479189,-0.401814301,0,0,0,,,,,,,CURRY,HB,m,y,./images/CURRYHB.png,,,,,,,,,,z,0,0.1311,,,,,,,,0,80,80,60,1
,,,,,,,,,,,,,,,,,199012,18,2022-01-28_15h58.13.098,lexical_decision_task_DD_L5,2021.2.3,Win32,74.91759065,,,,,,,,,,0.088,0,,,,,,,,,,,,,,,,,,,,,,,1.023479189,-0.401814301,0,0,0,,,,,,,CASINO,LB,m,y,./images/CASINOLB.png,,,,,,,,,,z,0,0.088,,,,,,,,0,81,81,28,1
,,,,,,,,,,,,,,,,,199012,18,2022-01-28_15h58.13.098,lexical_decision_task_DD_L5,2021.2.3,Win32,74.91759065,,,,,,,,,,0.0767,0,,,,,,,,,,,,,,,,,,,,,,,1.023479189,-0.401814301,0,0,0,,,,,,,BOXER,LB,m,y,./images/BOXERLB.png,,,,,,,,,,z,0,0.0767,,,,,,,,0,82,82,4,1
,,,,,,,,,,,,,,,,,199012,18,2022-01-28_15h58.13.098,lexical_decision_task_DD_L5,2021.2.3,Win32,74.91759065,,,,,,,,,,0.0152,0,,,,,,,,,,,,,,,,,,,,,,,1.023479189,-0.401814301,0,0,0,space,,,,,,CANYON,LB,z,y,./images/CANYONLB.png,,0.9913,,,,,,,,m,0,0.0152,,,,,,,,0,83,83,118,1
,,,,,,,,,,,,,,,,,199012,18,2022-01-28_15h58.13.098,lexical_decision_task_DD_L5,2021.2.3,Win32,74.91759065,,,,,,,,,,2.5297,1,,,,,,,,,,,,,,,,,,,,,,,1.023479189,-0.401814301,0,0,0,,,,,,,TOWEL,LB,m,y,./images/TOWELLB.png,,,,,,,,,,m,1,2.5297,,,,,,,,0,84,84,1,1
,,,,,,,,,,,,,,,,,199012,18,2022-01-28_15h58.13.098,lexical_decision_task_DD_L5,2021.2.3,Win32,74.91759065,,,,,,,,,,0.9578,1,,,,,,,,,,,,,,,,,,,,,,,1.023479189,-0.401814301,0,0,0,,,,,,,RHINO,HB,z,y,./images/RHINOHB.png,,,,,,,,,,z,1,0.9578,,,,,,,,0,85,85,93,1
,,,,,,,,,,,,,,,,,199012,18,2022-01-28_15h58.13.098,lexical_decision_task_DD_L5,2021.2.3,Win32,74.91759065,,,,,,,,,,1.5762,1,,,,,,,,,,,,,,,,,,,,,,,1.023479189,-0.401814301,0,0,0,,,,,,,GARDEN,LB,m,y,./images/GARDENLB.png,,,,,,,,,,m,1,1.5762,,,,,,,,0,86,86,10,1
,,,,,,,,,,,,,,,,,199012,18,2022-01-28_15h58.13.098,lexical_decision_task_DD_L5,2021.2.3,Win32,74.91759065,,,,,,,,,,0.8313,1,,,,,,,,,,,,,,,,,,,,,,,1.023479189,-0.401814301,0,0,0,,,,,,,POODLE,HB,z,y,./images/POODLEHB.png,,,,,,,,,,z,1,0.8313,,,,,,,,0,87,87,165,1
,,,,,,,,,,,,,,,,,199012,18,2022-01-28_15h58.13.098,lexical_decision_task_DD_L5,2021.2.3,Win32,74.91759065,,,,,,,,,,1.5374,0,,,,,,,,,,,,,,,,,,,,,,,1.023479189,-0.401814301,0,0,0,,,,,,,PARCEL,HB,m,y,./images/PARCELHB.png,,,,,,,,,,z,0,1.5374,,,,,,,,0,88,88,18,1
,,,,,,,,,,,,,,,,,199012,18,2022-01-28_15h58.13.098,lexical_decision_task_DD_L5,2021.2.3,Win32,74.91759065,,,,,,,,,,0.9525,1,,,,,,,,,,,,,,,,,,,,,,,1.023479189,-0.401814301,0,0,0,,,,,,,LADDER,C,z,y,./images/LADDER.png,,,,,,,,,,z,1,0.9525,,,,,,,,0,89,89,122,1
,,,,,,,,,,,,,,,,,199012,18,2022-01-28_15h58.13.098,lexical_decision_task_DD_L5,2021.2.3,Win32,74.91759065,,,,,,,,,,0.9549,1,,,,,,,,,,,,,,,,,,,,,,,1.023479189,-0.401814301,0,0,0,,,,,,,WEASEL,C,z,y,./images/WEASEL.png,,,,,,,,,,z,1,0.9549,,,,,,,,0,90,90,164,1
,,,,,,,,,,,,,,,,,199012,18,2022-01-28_15h58.13.098,lexical_decision_task_DD_L5,2021.2.3,Win32,74.91759065,,,,,,,,,,0.957,1,,,,,,,,,,,,,,,,,,,,,,,1.023479189,-0.401814301,0,0,0,,,,,,,KITTEN,HB,z,y,./images/KITTENHB.png,,,,,,,,,,z,1,0.957,,,,,,,,0,91,91,129,1
,,,,,,,,,,,,,,,,,199012,18,2022-01-28_15h58.13.098,lexical_decision_task_DD_L5,2021.2.3,Win32,74.91759065,,,,,,,,,,0.6311,1,,,,,,,,,,,,,,,,,,,,,,,1.023479189,-0.401814301,0,0,0,,,,,,,TIGER,LB,m,y,./images/TIGERLB.png,,,,,,,,,,m,1,0.6311,,,,,,,,0,92,92,37,1
,,,,,,,,,,,,,,,,,199012,18,2022-01-28_15h58.13.098,lexical_decision_task_DD_L5,2021.2.3,Win32,74.91759065,,,,,,,,,,0.8667,1,,,,,,,,,,,,,,,,,,,,,,,1.023479189,-0.401814301,0,0,0,,,,,,,ONION,HB,z,y,./images/ONIONHB.png,,,,,,,,,,z,1,0.8667,,,,,,,,0,93,93,135,1
,,,,,,,,,,,,,,,,,199012,18,2022-01-28_15h58.13.098,lexical_decision_task_DD_L5,2021.2.3,Win32,74.91759065,,,,,,,,,,0.9635,1,,,,,,,,,,,,,,,,,,,,,,,1.023479189,-0.401814301,0,0,0,,,,,,,COLLAR,HB,m,y,./images/COLLARHB.png,,,,,,,,,,m,1,0.9635,,,,,,,,0,94,94,15,1
,,,,,,,,,,,,,,,,,199012,18,2022-01-28_15h58.13.098,lexical_decision_task_DD_L5,2021.2.3,Win32,74.91759065,,,,,,,,,,1.4941,1,,,,,,,,,,,,,,,,,,,,,,,1.023479189,-0.401814301,0,0,0,,,,,,,LIZARD,C,z,y,./images/LIZARD.png,,,,,,,,,,z,1,1.4941,,,,,,,,0,95,95,128,1
,,,,,,,,,,,,,,,,,199012,18,2022-01-28_15h58.13.098,lexical_decision_task_DD_L5,2021.2.3,Win32,74.91759065,,,,,,,,,,1.4449,0,,,,,,,,,,,,,,,,,,,,,,,1.023479189,-0.401814301,0,0,0,,,,,,,CLOWN,LB,m,y,./images/CLOWNLB.png,,,,,,,,,,z,0,1.4449,,,,,,,,0,96,96,22,1
,,,,,,,,,,,,,,,,,199012,18,2022-01-28_15h58.13.098,lexical_decision_task_DD_L5,2021.2.3,Win32,74.91759065,,,,,,,,,,1.0414,0,,,,,,,,,,,,,,,,,,,,,,,1.023479189,-0.401814301,0,0,0,,,,,,,WALNUT,HB,m,y,./images/WALNUTHB.png,,,,,,,,,,z,0,1.0414,,,,,,,,0,97,97,0,1
,,,,,,,,,,,,,,,,,199012,18,2022-01-28_15h58.13.098,lexical_decision_task_DD_L5,2021.2.3,Win32,74.91759065,,,,,,,,,,0.6803,1,,,,,,,,,,,,,,,,,,,,,,,1.023479189,-0.401814301,0,0,0,,,,,,,GRANNY,C,m,y,./images/GRANNY.png,,,,,,,,,,m,1,0.6803,,,,,,,,0,98,98,20,1
,,,,,,,,,,,,,,,,,199012,18,2022-01-28_15h58.13.098,lexical_decision_task_DD_L5,2021.2.3,Win32,74.91759065,,,,,,,,,,1.3845,1,,,,,,,,,,,,,,,,,,,,,,,1.023479189,-0.401814301,0,0,0,,,,,,,JAGUAR,HB,z,y,./images/JAGUARHB.png,,,,,,,,,,z,1,1.3845,,,,,,,,0,99,99,102,1
,,,,,,,,,,,,,,,,,199012,18,2022-01-28_15h58.13.098,lexical_decision_task_DD_L5,2021.2.3,Win32,74.91759065,,,,,,,,,,1.4002,1,,,,,,,,,,,,,,,,,,,,,,,1.023479189,-0.401814301,0,0,0,,,,,,,WHISKY,C,m,y,./images/WHISKY.png,,,,,,,,,,m,1,1.4002,,,,,,,,0,100,100,83,1
,,,,,,,,,,,,,,,,,199012,18,2022-01-28_15h58.13.098,lexical_decision_task_DD_L5,2021.2.3,Win32,74.91759065,,,,,,,,,,0.667,1,,,,,,,,,,,,,,,,,,,,,,,1.023479189,-0.401814301,0,0,0,,,,,,,JELLY,LB,z,y,./images/JELLYLB.png,,,,,,,,,,z,1,0.667,,,,,,,,0,101,101,148,1
,,,,,,,,,,,,,,,,,199012,18,2022-01-28_15h58.13.098,lexical_decision_task_DD_L5,2021.2.3,Win32,74.91759065,,,,,,,,,,0.9559,1,,,,,,,,,,,,,,,,,,,,,,,1.023479189,-0.401814301,0,0,0,,,,,,,PACKET,C,z,y,./images/PACKET.png,,,,,,,,,,z,1,0.9559,,,,,,,,0,102,102,140,1
,,,,,,,,,,,,,,,,,199012,18,2022-01-28_15h58.13.098,lexical_decision_task_DD_L5,2021.2.3,Win32,74.91759065,,,,,,,,,,2.3022,1,,,,,,,,,,,,,,,,,,,,,,,1.023479189,-0.401814301,0,0,0,,,,,,,GREASE,HB,z,y,./images/GREASEHB.png,,,,,,,,,,z,1,2.3022,,,,,,,,0,103,103,99,1
,,,,,,,,,,,,,,,,,199012,18,2022-01-28_15h58.13.098,lexical_decision_task_DD_L5,2021.2.3,Win32,74.91759065,,,,,,,,,,1.0135,1,,,,,,,,,,,,,,,,,,,,,,,1.023479189,-0.401814301,0,0,0,,,,,,,BISHOP,LB,m,y,./images/BISHOPLB.png,,,,,,,,,,m,1,1.0135,,,,,,,,0,104,104,49,1
,,,,,,,,,,,,,,,,,199012,18,2022-01-28_15h58.13.098,lexical_decision_task_DD_L5,2021.2.3,Win32,74.91759065,,,,,,,,,,0.9167,1,,,,,,,,,,,,,,,,,,,,,,,1.023479189,-0.401814301,0,0,0,,,,,,,NOOSE,HB,z,y,./images/NOOSEHB.png,,,,,,,,,,z,1,0.9167,,,,,,,,0,105,105,156,1
,,,,,,,,,,,,,,,,,199012,18,2022-01-28_15h58.13.098,lexical_decision_task_DD_L5,2021.2.3,Win32,74.91759065,,,,,,,,,,0.8147,1,,,,,,,,,,,,,,,,,,,,,,,1.023479189,-0.401814301,0,0,0,,,,,,,ATTIC,HB,z,y,./images/ATTICHB.png,,,,,,,,,,z,1,0.8147,,,,,,,,0,106,106,111,1
,,,,,,,,,,,,,,,,,199012,18,2022-01-28_15h58.13.098,lexical_decision_task_DD_L5,2021.2.3,Win32,74.91759065,,,,,,,,,,1.1262,0,,,,,,,,,,,,,,,,,,,,,,,1.023479189,-0.401814301,0,0,0,,,,,,,HEATER,C,m,y,./images/HEATER.png,,,,,,,,,,z,0,1.1262,,,,,,,,0,107,107,56,1
,,,,,,,,,,,,,,,,,199012,18,2022-01-28_15h58.13.098,lexical_decision_task_DD_L5,2021.2.3,Win32,74.91759065,,,,,,,,,,0.8989,1,,,,,,,,,,,,,,,,,,,,,,,1.023479189,-0.401814301,0,0,0,,,,,,,BAMBOO,C,m,y,./images/BAMBOO.png,,,,,,,,,,m,1,0.8989,,,,,,,,0,108,108,5,1
,,,,,,,,,,,,,,,,,199012,18,2022-01-28_15h58.13.098,lexical_decision_task_DD_L5,2021.2.3,Win32,74.91759065,,,,,,,,,,0.7944,1,,,,,,,,,,,,,,,,,,,,,,,1.023479189,-0.401814301,0,0,0,,,,,,,DIVER,HB,m,y,./images/DIVERHB.png,,,,,,,,,,m,1,0.7944,,,,,,,,0,109,109,9,1
,,,,,,,,,,,,,,,,,199012,18,2022-01-28_15h58.13.098,lexical_decision_task_DD_L5,2021.2.3,Win32,74.91759065,,,,,,,,,,0.8533,0,,,,,,,,,,,,,,,,,,,,,,,1.023479189,-0.401814301,0,0,0,,,,,,,HAMMER,HB,m,y,./images/HAMMERHB.png,,,,,,,,,,z,0,0.8533,,,,,,,,0,110,110,75,1
,,,,,,,,,,,,,,,,,199012,18,2022-01-28_15h58.13.098,lexical_decision_task_DD_L5,2021.2.3,Win32,74.91759065,,,,,,,,,,0.6759,1,,,,,,,,,,,,,,,,,,,,,,,1.023479189,-0.401814301,0,0,0,,,,,,,SPORT,HB,z,y,./images/SPORTHB.png,,,,,,,,,,z,1,0.6759,,,,,,,,0,111,111,132,1
,,,,,,,,,,,,,,,,,199012,18,2022-01-28_15h58.13.098,lexical_decision_task_DD_L5,2021.2.3,Win32,74.91759065,,,,,,,,,,1.3262,1,,,,,,,,,,,,,,,,,,,,,,,1.023479189,-0.401814301,0,0,0,,,,,,,BARREL,C,z,y,./images/BARREL.png,,,,,,,,,,z,1,1.3262,,,,,,,,0,112,112,116,1
,,,,,,,,,,,,,,,,,199012,18,2022-01-28_15h58.13.098,lexical_decision_task_DD_L5,2021.2.3,Win32,74.91759065,,,,,,,,,,0.8429,1,,,,,,,,,,,,,,,,,,,,,,,1.023479189,-0.401814301,0,0,0,,,,,,,BIRTH,LB,z,y,./images/BIRTHLB.png,,,,,,,,,,z,1,0.8429,,,,,,,,0,113,113,121,1
,,,,,,,,,,,,,,,,,199012,18,2022-01-28_15h58.13.098,lexical_decision_task_DD_L5,2021.2.3,Win32,74.91759065,,,,,,,,,,0.6315,1,,,,,,,,,,,,,,,,,,,,,,,1.023479189,-0.401814301,0,0,0,,,,,,,PARADE,C,m,y,./images/PARADE.png,,,,,,,,,,m,1,0.6315,,,,,,,,0,114,114,17,1
,,,,,,,,,,,,,,,,,199012,18,2022-01-28_15h58.13.098,lexical_decision_task_DD_L5,2021.2.3,Win32,74.91759065,,,,,,,,,,1.1779,1,,,,,,,,,,,,,,,,,,,,,,,1.023479189,-0.401814301,0,0,0,,,,,,,GLOVE,LB,m,y,./images/GLOVELB.png,,,,,,,,,,m,1,1.1779,,,,,,,,0,115,115,73,1
,,,,,,,,,,,,,,,,,199012,18,2022-01-28_15h58.13.098,lexical_decision_task_DD_L5,2021.2.3,Win32,74.91759065,,,,,,,,,,0.7533,1,,,,,,,,,,,,,,,,,,,,,,,1.023479189,-0.401814301,0,0,0,,,,,,,ENGINE,C,m,y,./images/ENGINE.png,,,,,,,,,,m,1,0.7533,,,,,,,,0,116,116,38,1
,,,,,,,,,,,,,,,,,199012,18,2022-01-28_15h58.13.098,lexical_decision_task_DD_L5,2021.2.3,Win32,74.91759065,,,,,,,,,,0.0002,1,,,,,,,,,,,,,,,,,,,,,,,1.023479189,-0.401814301,0,0,0,,,,,,,SHORE,HB,z,y,./images/SHOREHB.png,,,,,,,,,,z,1,0.0002,,,,,,,,0,117,117,96,1
,,,,,,,,,,,,,,,,,199012,18,2022-01-28_15h58.13.098,lexical_decision_task_DD_L5,2021.2.3,Win32,74.91759065,,,,,,,,,,0.0935,1,,,,,,,,,,,,,,,,,,,,,,,1.023479189,-0.401814301,0,0,0,,,,,,,WAGON,LB,m,y,./images/WAGONLB.png,,,,,,,,,,m,1,0.0935,,,,,,,,0,118,118,7,1
,,,,,,,,,,,,,,,,,199012,18,2022-01-28_15h58.13.098,lexical_decision_task_DD_L5,2021.2.3,Win32,74.91759065,,,,,,,,,,0.0374,0,,,,,,,,,,,,,,,,,,,,,,,1.023479189,-0.401814301,0,0,0,,,,,,,DRUMS,LB,z,y,./images/DRUMSLB.png,,,,,,,,,,m,0,0.0374,,,,,,,,0,119,119,133,1
,,,,,,,,,,,,,,,,,199012,18,2022-01-28_15h58.13.098,lexical_decision_task_DD_L5,2021.2.3,Win32,74.91759065,,,,,,,,,,0.0715,0,,,,,,,,,,,,,,,,,,,,,,,1.023479189,-0.401814301,0,0,0,,,,,,,MAMMAL,C,m,y,./images/MAMMAL.png,,,,,,,,,,z,0,0.0715,,,,,,,,0,120,120,62,1
,,,,,,,,,,,,,,,,,199012,18,2022-01-28_15h58.13.098,lexical_decision_task_DD_L5,2021.2.3,Win32,74.91759065,,,,,,,,,,0.0179,1,,,,,,,,,,,,,,,,,,,,,,,1.023479189,-0.401814301,0,0,0,,,,,,,TORCH,C,z,y,./images/TORCH.png,,,,,,,,,,z,1,0.0179,,,,,,,,0,121,121,152,1
,,,,,,,,,,,,,,,,,199012,18,2022-01-28_15h58.13.098,lexical_decision_task_DD_L5,2021.2.3,Win32,74.91759065,,,,,,,,,,0.0336,0,,,,,,,,,,,,,,,,,,,,,,,1.023479189,-0.401814301,0,0,0,,,,,,,DRILL,HB,m,y,./images/DRILLHB.png,,,,,,,,,,z,0,0.0336,,,,,,,,0,122,122,81,1
,,,,,,,,,,,,,,,,,199012,18,2022-01-28_15h58.13.098,lexical_decision_task_DD_L5,2021.2.3,Win32,74.91759065,,,,,,,,,,0.1158,0,,,,,,,,,,,,,,,,,,,,,,,1.023479189,-0.401814301,0,0,0,,,,,,,ALLEY,LB,m,y,./images/ALLEYLB.png,,,,,,,,,,z,0,0.1158,,,,,,,,0,123,123,55,1
,,,,,,,,,,,,,,,,,199012,18,2022-01-28_15h58.13.098,lexical_decision_task_DD_L5,2021.2.3,Win32,74.91759065,,,,,,,,,,0.0782,0,,,,,,,,,,,,,,,,,,,,,,,1.023479189,-0.401814301,0,0,0,,,,,,,ARTIST,LB,m,y,./images/ARTISTLB.png,,,,,,,,,,z,0,0.0782,,,,,,,,0,124,124,61,1
,,,,,,,,,,,,,,,,,199012,18,2022-01-28_15h58.13.098,lexical_decision_task_DD_L5,2021.2.3,Win32,74.91759065,,,,,,,,,,0.0412,1,,,,,,,,,,,,,,,,,,,,,,,1.023479189,-0.401814301,0,0,0,space,,,,,,BUNNY,LB,m,y,./images/BUNNYLB.png,,2.5422,,,,,,,,m,1,0.0412,,,,,,,,0,125,125,13,1
,,,,,,,,,,,,,,,,,199012,18,2022-01-28_15h58.13.098,lexical_decision_task_DD_L5,2021.2.3,Win32,74.91759065,,,,,,,,,,0.0052,0,,,,,,,,,,,,,,,,,,,,,,,1.023479189,-0.401814301,0,0,0,,,,,,,PLANET,C,m,y,./images/PLANET.png,,,,,,,,,,z,0,0.0052,,,,,,,,0,126,126,80,1
,,,,,,,,,,,,,,,,,199012,18,2022-01-28_15h58.13.098,lexical_decision_task_DD_L5,2021.2.3,Win32,74.91759065,,,,,,,,,,0.0664,1,,,,,,,,,,,,,,,,,,,,,,,1.023479189,-0.401814301,0,0,0,,,,,,,BRUSH,C,m,y,./images/BRUSH.png,,,,,,,,,,m,1,0.0664,,,,,,,,0,127,127,59,1
,,,,,,,,,,,,,,,,,199012,18,2022-01-28_15h58.13.098,lexical_decision_task_DD_L5,2021.2.3,Win32,74.91759065,,,,,,,,,,0.0931,0,,,,,,,,,,,,,,,,,,,,,,,1.023479189,-0.401814301,0,0,0,,,,,,,SCREW,HB,z,y,./images/SCREWHB.png,,,,,,,,,,m,0,0.0931,,,,,,,,0,128,128,108,1
,,,,,,,,,,,,,,,,,199012,18,2022-01-28_15h58.13.098,lexical_decision_task_DD_L5,2021.2.3,Win32,74.91759065,,,,,,,,,,0.0838,1,,,,,,,,,,,,,,,,,,,,,,,1.023479189,-0.401814301,0,0,0,,,,,,,POSTER,C,m,y,./images/POSTER.png,,,,,,,,,,m,1,0.0838,,,,,,,,0,129,129,53,1
,,,,,,,,,,,,,,,,,199012,18,2022-01-28_15h58.13.098,lexical_decision_task_DD_L5,2021.2.3,Win32,74.91759065,,,,,,,,,,0.0665,0,,,,,,,,,,,,,,,,,,,,,,,1.023479189,-0.401814301,0,0,0,,,,,,,MOOSE,HB,z,y,./images/MOOSEHB.png,,,,,,,,,,m,0,0.0665,,,,,,,,0,130,130,141,1
,,,,,,,,,,,,,,,,,199012,18,2022-01-28_15h58.13.098,lexical_decision_task_DD_L5,2021.2.3,Win32,74.91759065,,,,,,,,,,9.99999E-05,0,,,,,,,,,,,,,,,,,,,,,,,1.023479189,-0.401814301,0,0,0,,,,,,,FERRY,HB,m,y,./images/FERRYHB.png,,,,,,,,,,z,0,9.99999E-05,,,,,,,,0,131,131,57,1
,,,,,,,,,,,,,,,,,199012,18,2022-01-28_15h58.13.098,lexical_decision_task_DD_L5,2021.2.3,Win32,74.91759065,,,,,,,,,,0.0401,0,,,,,,,,,,,,,,,,,,,,,,,1.023479189,-0.401814301,0,0,0,,,,,,,HOCKEY,C,m,y,./images/HOCKEY.png,,,,,,,,,,z,0,0.0401,,,,,,,,0,132,132,32,1
,,,,,,,,,,,,,,,,,199012,18,2022-01-28_15h58.13.098,lexical_decision_task_DD_L5,2021.2.3,Win32,74.91759065,,,,,,,,,,0.0002,1,,,,,,,,,,,,,,,,,,,,,,,1.023479189,-0.401814301,0,0,0,,,,,,,PLANK,LB,z,y,./images/PLANKLB.png,,,,,,,,,,z,1,0.0002,,,,,,,,0,133,133,85,1
,,,,,,,,,,,,,,,,,199012,18,2022-01-28_15h58.13.098,lexical_decision_task_DD_L5,2021.2.3,Win32,74.91759065,,,,,,,,,,0.0182,1,,,,,,,,,,,,,,,,,,,,,,,1.023479189,-0.401814301,0,0,0,,,,,,,BAKER,HB,m,y,./images/BAKERHB.png,,,,,,,,,,m,1,0.0182,,,,,,,,0,134,134,63,1
,,,,,,,,,,,,,,,,,199012,18,2022-01-28_15h58.13.098,lexical_decision_task_DD_L5,2021.2.3,Win32,74.91759065,,,,,,,,,,0.114,0,,,,,,,,,,,,,,,,,,,,,,,1.023479189,-0.401814301,0,0,0,,,,,,,POKER,LB,m,y,./images/POKERLB.png,,,,,,,,,,z,0,0.114,,,,,,,,0,135,135,67,1
,,,,,,,,,,,,,,,,,199012,18,2022-01-28_15h58.13.098,lexical_decision_task_DD_L5,2021.2.3,Win32,74.91759065,,,,,,,,,,0.0134,0,,,,,,,,,,,,,,,,,,,,,,,1.023479189,-0.401814301,0,0,0,,,,,,,CANDLE,LB,z,y,./images/CANDLELB.png,,,,,,,,,,m,0,0.0134,,,,,,,,0,136,136,145,1
,,,,,,,,,,,,,,,,,199012,18,2022-01-28_15h58.13.098,lexical_decision_task_DD_L5,2021.2.3,Win32,74.91759065,,,,,,,,,,0.1464,1,,,,,,,,,,,,,,,,,,,,,,,1.023479189,-0.401814301,0,0,0,,,,,,,CRADLE,C,z,y,./images/CRADLE.png,,,,,,,,,,z,1,0.1464,,,,,,,,0,137,137,104,1
,,,,,,,,,,,,,,,,,199012,18,2022-01-28_15h58.13.098,lexical_decision_task_DD_L5,2021.2.3,Win32,74.91759065,,,,,,,,,,0.0836,1,,,,,,,,,,,,,,,,,,,,,,,1.023479189,-0.401814301,0,0,0,,,,,,,ARROW,HB,m,y,./images/ARROWHB.png,,,,,,,,,,m,1,0.0836,,,,,,,,0,138,138,69,1
,,,,,,,,,,,,,,,,,199012,18,2022-01-28_15h58.13.098,lexical_decision_task_DD_L5,2021.2.3,Win32,74.91759065,,,,,,,,,,1.0329,1,,,,,,,,,,,,,,,,,,,,,,,1.023479189,-0.401814301,0,0,0,,,,,,,TULIP,C,z,y,./images/TULIP.png,,,,,,,,,,z,1,1.0329,,,,,,,,0,139,139,92,1
,,,,,,,,,,,,,,,,,199012,18,2022-01-28_15h58.13.098,lexical_decision_task_DD_L5,2021.2.3,Win32,74.91759065,,,,,,,,,,1.771,1,,,,,,,,,,,,,,,,,,,,,,,1.023479189,-0.401814301,0,0,0,,,,,,,BOILER,HB,m,y,./images/BOILERHB.png,,,,,,,,,,m,1,1.771,,,,,,,,0,140,140,36,1
,,,,,,,,,,,,,,,,,199012,18,2022-01-28_15h58.13.098,lexical_decision_task_DD_L5,2021.2.3,Win32,74.91759065,,,,,,,,,,0.9036,1,,,,,,,,,,,,,,,,,,,,,,,1.023479189,-0.401814301,0,0,0,,,,,,,CHERRY,HB,m,y,./images/CHERRYHB.png,,,,,,,,,,m,1,0.9036,,,,,,,,0,141,141,54,1
,,,,,,,,,,,,,,,,,199012,18,2022-01-28_15h58.13.098,lexical_decision_task_DD_L5,2021.2.3,Win32,74.91759065,,,,,,,,,,0.8231,1,,,,,,,,,,,,,,,,,,,,,,,1.023479189,-0.401814301,0,0,0,,,,,,,MUSCLE,LB,z,y,./images/MUSCLELB.png,,,,,,,,,,z,1,0.8231,,,,,,,,0,142,142,88,1
,,,,,,,,,,,,,,,,,199012,18,2022-01-28_15h58.13.098,lexical_decision_task_DD_L5,2021.2.3,Win32,74.91759065,,,,,,,,,,1.9185,1,,,,,,,,,,,,,,,,,,,,,,,1.023479189,-0.401814301,0,0,0,,,,,,,WALRUS,C,z,y,./images/WALRUS.png,,,,,,,,,,z,1,1.9185,,,,,,,,0,143,143,107,1
,,,,,,,,,,,,,,,,,199012,18,2022-01-28_15h58.13.098,lexical_decision_task_DD_L5,2021.2.3,Win32,74.91759065,,,,,,,,,,0.7923,1,,,,,,,,,,,,,,,,,,,,,,,1.023479189,-0.401814301,0,0,0,,,,,,,INFANT,LB,z,y,./images/INFANTLB.png,,,,,,,,,,z,1,0.7923,,,,,,,,0,144,144,160,1
,,,,,,,,,,,,,,,,,199012,18,2022-01-28_15h58.13.098,lexical_decision_task_DD_L5,2021.2.3,Win32,74.91759065,,,,,,,,,,1.0024,0,,,,,,,,,,,,,,,,,,,,,,,1.023479189,-0.401814301,0,0,0,,,,,,,VALLEY,C,m,y,./images/VALLEY.png,,,,,,,,,,z,0,1.0024,,,,,,,,0,145,145,68,1
,,,,,,,,,,,,,,,,,199012,18,2022-01-28_15h58.13.098,lexical_decision_task_DD_L5,2021.2.3,Win32,74.91759065,,,,,,,,,,0.9273,1,,,,,,,,,,,,,,,,,,,,,,,1.023479189,-0.401814301,0,0,0,,,,,,,MIRROR,HB,z,y,./images/MIRRORHB.png,,,,,,,,,,z,1,0.9273,,,,,,,,0,146,146,147,1
,,,,,,,,,,,,,,,,,199012,18,2022-01-28_15h58.13.098,lexical_decision_task_DD_L5,2021.2.3,Win32,74.91759065,,,,,,,,,,0.8934,1,,,,,,,,,,,,,,,,,,,,,,,1.023479189,-0.401814301,0,0,0,,,,,,,LLAMA,C,m,y,./images/LLAMA.png,,,,,,,,,,m,1,0.8934,,,,,,,,0,147,147,35,1
,,,,,,,,,,,,,,,,,199012,18,2022-01-28_15h58.13.098,lexical_decision_task_DD_L5,2021.2.3,Win32,74.91759065,,,,,,,,,,0.7717,1,,,,,,,,,,,,,,,,,,,,,,,1.023479189,-0.401814301,0,0,0,,,,,,,STAIN,HB,m,y,./images/STAINHB.png,,,,,,,,,,m,1,0.7717,,,,,,,,0,148,148,6,1
,,,,,,,,,,,,,,,,,199012,18,2022-01-28_15h58.13.098,lexical_decision_task_DD_L5,2021.2.3,Win32,74.91759065,,,,,,,,,,1.5123,1,,,,,,,,,,,,,,,,,,,,,,,1.023479189,-0.401814301,0,0,0,,,,,,,RAZOR,LB,m,y,./images/RAZORLB.png,,,,,,,,,,m,1,1.5123,,,,,,,,0,149,149,34,1
,,,,,,,,,,,,,,,,,199012,18,2022-01-28_15h58.13.098,lexical_decision_task_DD_L5,2021.2.3,Win32,74.91759065,,,,,,,,,,1.2423,1,,,,,,,,,,,,,,,,,,,,,,,1.023479189,-0.401814301,0,0,0,,,,,,,PIMPLE,C,z,y,./images/PIMPLE.png,,,,,,,,,,z,1,1.2423,,,,,,,,0,150,150,155,1
,,,,,,,,,,,,,,,,,199012,18,2022-01-28_15h58.13.098,lexical_decision_task_DD_L5,2021.2.3,Win32,74.91759065,,,,,,,,,,0.855,1,,,,,,,,,,,,,,,,,,,,,,,1.023479189,-0.401814301,0,0,0,,,,,,,LITTER,HB,z,y,./images/LITTERHB.png,,,,,,,,,,z,1,0.855,,,,,,,,0,151,151,162,1
,,,,,,,,,,,,,,,,,199012,18,2022-01-28_15h58.13.098,lexical_decision_task_DD_L5,2021.2.3,Win32,74.91759065,,,,,,,,,,2.5349,1,,,,,,,,,,,,,,,,,,,,,,,1.023479189,-0.401814301,0,0,0,,,,,,,BABOON,LB,z,y,./images/BABOONLB.png,,,,,,,,,,z,1,2.5349,,,,,,,,0,152,152,142,1
,,,,,,,,,,,,,,,,,199012,18,2022-01-28_15h58.13.098,lexical_decision_task_DD_L5,2021.2.3,Win32,74.91759065,,,,,,,,,,0.8055,1,,,,,,,,,,,,,,,,,,,,,,,1.023479189,-0.401814301,0,0,0,,,,,,,SQUARE,HB,z,y,./images/SQUAREHB.png,,,,,,,,,,z,1,0.8055,,,,,,,,0,153,153,90,1
,,,,,,,,,,,,,,,,,199012,18,2022-01-28_15h58.13.098,lexical_decision_task_DD_L5,2021.2.3,Win32,74.91759065,,,,,,,,,,1.6424,1,,,,,,,,,,,,,,,,,,,,,,,1.023479189,-0.401814301,0,0,0,,,,,,,GRAIN,HB,z,y,./images/GRAINHB.png,,,,,,,,,,z,1,1.6424,,,,,,,,0,154,154,159,1
,,,,,,,,,,,,,,,,,199012,18,2022-01-28_15h58.13.098,lexical_decision_task_DD_L5,2021.2.3,Win32,74.91759065,,,,,,,,,,0.8001,1,,,,,,,,,,,,,,,,,,,,,,,1.023479189,-0.401814301,0,0,0,,,,,,,PEARL,LB,z,y,./images/PEARLLB.png,,,,,,,,,,z,1,0.8001,,,,,,,,0,155,155,130,1
,,,,,,,,,,,,,,,,,199012,18,2022-01-28_15h58.13.098,lexical_decision_task_DD_L5,2021.2.3,Win32,74.91759065,,,,,,,,,,1.3718,0,,,,,,,,,,,,,,,,,,,,,,,1.023479189,-0.401814301,0,0,0,,,,,,,FLESH,HB,m,y,./images/FLESHHB.png,,,,,,,,,,z,0,1.3718,,,,,,,,0,156,156,24,1
,,,,,,,,,,,,,,,,,199012,18,2022-01-28_15h58.13.098,lexical_decision_task_DD_L5,2021.2.3,Win32,74.91759065,,,,,,,,,,13.2818,0,,,,,,,,,,,,,,,,,,,,,,,1.023479189,-0.401814301,0,0,0,,,,,,,CLOUD,C,m,y,./images/CLOUD.png,,,,,,,,,,z,0,13.2818,,,,,,,,0,157,157,26,1
,,,,,,,,,,,,,,,,,199012,18,2022-01-28_15h58.13.098,lexical_decision_task_DD_L5,2021.2.3,Win32,74.91759065,,,,,,,,,,1.3915,0,,,,,,,,,,,,,,,,,,,,,,,1.023479189,-0.401814301,0,0,0,,,,,,,BANNER,LB,z,y,./images/BANNERLB.png,,,,,,,,,,m,0,1.3915,,,,,,,,0,158,158,136,1
,,,,,,,,,,,,,,,,,199012,18,2022-01-28_15h58.13.098,lexical_decision_task_DD_L5,2021.2.3,Win32,74.91759065,,,,,,,,,,1.3694,1,,,,,,,,,,,,,,,,,,,,,,,1.023479189,-0.401814301,0,0,0,,,,,,,MUFFIN,LB,z,y,./images/MUFFINLB.png,,,,,,,,,,z,1,1.3694,,,,,,,,0,159,159,139,1
,,,,,,,,,,,,,,,,,199012,18,2022-01-28_15h58.13.098,lexical_decision_task_DD_L5,2021.2.3,Win32,74.91759065,,,,,,,,,,0.0002,1,,,,,,,,,,,,,,,,,,,,,,,1.023479189,-0.401814301,0,0,0,,,,,,,COUCH,C,z,y,./images/COUCH.png,,,,,,,,,,z,1,0.0002,,,,,,,,0,160,160,161,1
,,,,,,,,,,,,,,,,,199012,18,2022-01-28_15h58.13.098,lexical_decision_task_DD_L5,2021.2.3,Win32,74.91759065,,,,,,,,,,0.0011,0,,,,,,,,,,,,,,,,,,,,,,,1.023479189,-0.401814301,0,0,0,,,,,,,DANCER,HB,m,y,./images/DANCERHB.png,,,,,,,,,,z,0,0.0011,,,,,,,,0,161,161,21,1
,,,,,,,,,,,,,,,,,199012,18,2022-01-28_15h58.13.098,lexical_decision_task_DD_L5,2021.2.3,Win32,74.91759065,,,,,,,,,,0.0533,0,,,,,,,,,,,,,,,,,,,,,,,1.023479189,-0.401814301,0,0,0,,,,,,,SMOKER,C,z,y,./images/SMOKER.png,,,,,,,,,,m,0,0.0533,,,,,,,,0,162,162,110,1
,,,,,,,,,,,,,,,,,199012,18,2022-01-28_15h58.13.098,lexical_decision_task_DD_L5,2021.2.3,Win32,74.91759065,,,,,,,,,,0.0367,1,,,,,,,,,,,,,,,,,,,,,,,1.023479189,-0.401814301,0,0,0,,,,,,,CRUST,LB,z,y,./images/CRUSTLB.png,,,,,,,,,,z,1,0.0367,,,,,,,,0,163,163,163,1
,,,,,,,,,,,,,,,,,199012,18,2022-01-28_15h58.13.098,lexical_decision_task_DD_L5,2021.2.3,Win32,74.91759065,,,,,,,,,,0.0153,0,,,,,,,,,,,,,,,,,,,,,,,1.023479189,-0.401814301,0,0,0,,,,,,,STOVE,C,m,y,./images/STOVE.png,,,,,,,,,,z,0,0.0153,,,,,,,,0,164,164,2,1
,,,,,,,,,,,,,,,,,199012,18,2022-01-28_15h58.13.098,lexical_decision_task_DD_L5,2021.2.3,Win32,74.91759065,,,,,,,,,,0.0002,0,,,,,,,,,,,,,,,,,,,,,,,1.023479189,-0.401814301,0,0,0,,,,,,,CANOE,LB,m,y,./images/CANOELB.png,,,,,,,,,,z,0,0.0002,,,,,,,,0,165,165,58,1
,,,,,,,,,,,,,,,,,199012,18,2022-01-28_15h58.13.098,lexical_decision_task_DD_L5,2021.2.3,Win32,74.91759065,,,,,,,,,,1.2177,1,,,,,,,,,,,,,,,,,,,,,,,1.023479189,-0.401814301,0,0,0,,,,,,,PILOT,C,m,y,./images/PILOT.png,,,,,,,,,,m,1,1.2177,,,,,,,,0,166,166,50,1
,,,,,,,,,,,,,,,,,199012,18,2022-01-28_15h58.13.098,lexical_decision_task_DD_L5,2021.2.3,Win32,74.91759065,,,,,,,,,,0.993,0,,,,,,,,,,,,,,,,,,,,,,,1.023479189,-0.401814301,0,0,0,,,,,,,BUTTER,HB,m,y,./images/BUTTERHB.png,,,,,,,,,,z,0,0.993,,,,,,,,0,167,167,27,1
