key_resp.keys,key_resp.rt,instr_done_touch.x,instr_done_touch.y,instr_done_touch.leftButton,instr_done_touch.midButton,instr_done_touch.rightButton,instruction_pages.thisRepN,instruction_pages.thisTrialN,instruction_pages.thisN,instruction_pages.thisIndex,instruction_pages.ran,pageN,phase,instruct_text,has_image,instruct_image,participant,age,date,expName,psychopyVersion,OS,frameRate,response.keys,response.corr,response.rt,touch_resp.x,touch_resp.y,touch_resp.leftButton,touch_resp.midButton,touch_resp.rightButton,touch_resp.time,touch_resp.clicked_name,rt,corr,practrials.thisRepN,practrials.thisTrialN,practrials.thisN,practrials.thisIndex,practrials.ran,TrialID,Target,corrAns,end_of_practice_trials_pages.thisRepN,end_of_practice_trials_pages.thisTrialN,end_of_practice_trials_pages.thisN,end_of_practice_trials_pages.thisIndex,end_of_practice_trials_pages.ran,key_resp_2.keys,key_resp_2.corr,key_resp_2.rt,targ_click.x,targ_click.y,targ_click.leftButton,targ_click.midButton,targ_click.rightButton,targ_click.time,targ_click.clicked_name,break_done_touch.x,break_done_touch.y,break_done_touch.leftButton,break_done_touch.midButton,break_done_touch.rightButton,break_done_keyboard.keys,maintrials.thisRepN,maintrials.thisTrialN,maintrials.thisN,maintrials.thisIndex,maintrials.ran,string,blur,study,lex,stim_path,break_done_keyboard.rt,test_instructions.thisRepN,test_instructions.thisTrialN,test_instructions.thisN,test_instructions.thisIndex,test_instructions.ran,instr_done_touch.clicked_name,key_resp_3.keys,key_resp_3.corr,key_resp_3.rt,test_click.x,test_click.y,test_click.leftButton,test_click.midButton,test_click.rightButton,test_click.time,test_click.clicked_name,test_phase.thisRepN,test_phase.thisTrialN,test_phase.thisN,test_phase.thisIndex,test_phase.ran
space,37.9952,0.1,-0.389814815,0,0,0,0,0,0,0,1,1,instructions,"INSTRUCTIONS
At the start of each trial, look at the plus sign  (+) in the center of the screen.  This tells you that a trial is about to begin and where to look. Second, the plus sign will disappear and a string of letters will appear. Your task is to determine if the string of letters is a word or not. If the item is a word press the M key (on keyboard)  or touch the word button (phone/tablet).  If the item is not a word,  press the  Z key (on keyboard)  or touch the nonword button (on phone/tablet). 
Press the space bar or touch  continue.",0,,199033,18,2022-01-28_16h42.25.140,lexical_decision_task_DD_L5,2021.2.3,Win32,75.00187505,,,,,,,,,,,,,,,,,,,,,,,,,,,,,,,,,,,,,,,,,,,,,,,,,,,,,,,,,,,,,,,,,,,,,,,,,
space,3.2206,0.113888889,-0.006481481,0,0,0,0,1,1,1,1,2,instructions,"If your device has a keyboard, press the 'Z' key for nonwords and the 'M' key for words.





Press the space bar or touch the button below to continue.",0,keyboard-example.gif,199033,18,2022-01-28_16h42.25.140,lexical_decision_task_DD_L5,2021.2.3,Win32,75.00187505,,,,,,,,,,,,,,,,,,,,,,,,,,,,,,,,,,,,,,,,,,,,,,,,,,,,,,,,,,,,,,,,,,,,,,,,,
space,1.4194,0.113888889,-0.006481481,0,0,0,0,2,2,2,1,3,instructions,"If you are using a touchscreen only device, use the buttons on the screen. Do not use the mouse.





Press the space bar or touch the button below to continue.",0,touchscreen-example.gif,199033,18,2022-01-28_16h42.25.140,lexical_decision_task_DD_L5,2021.2.3,Win32,75.00187505,,,,,,,,,,,,,,,,,,,,,,,,,,,,,,,,,,,,,,,,,,,,,,,,,,,,,,,,,,,,,,,,,,,,,,,,,
space,7.9234,0.113888889,-0.006481481,0,0,0,0,3,3,3,1,4,instructions,"It is very important that you respond as quickly and accurately as possible, as each letter string will only be on the screen for two seconds. If you do not respond within this time, the message 'Too slow!' will be displayed and the experiment will progress to the next letter string. The first 20 trials will be practice trials and you will receive feedback on your answers. 

Press the space bar or touch the button below to start the practice trials.",0,,199033,18,2022-01-28_16h42.25.140,lexical_decision_task_DD_L5,2021.2.3,Win32,75.00187505,,,,,,,,,,,,,,,,,,,,,,,,,,,,,,,,,,,,,,,,,,,,,,,,,,,,,,,,,,,,,,,,,,,,,,,,,
,,,,,,,,,,,,,,,,,199033,18,2022-01-28_16h42.25.140,lexical_decision_task_DD_L5,2021.2.3,Win32,75.00187505,z,1,1.2102,,,,,,,,1.2102,1,0,0,0,15,1,1001,WHAISE,z,,,,,,,,,,,,,,,,,,,,,,,,,,,,,,,,,,,,,,,,,,,,,,,,,,,,,
,,,,,,,,,,,,,,,,,199033,18,2022-01-28_16h42.25.140,lexical_decision_task_DD_L5,2021.2.3,Win32,75.00187505,z,1,0.5771,,,,,,,,0.5771,1,0,1,1,14,1,1001,THRALE,z,,,,,,,,,,,,,,,,,,,,,,,,,,,,,,,,,,,,,,,,,,,,,,,,,,,,,
,,,,,,,,,,,,,,,,,199033,18,2022-01-28_16h42.25.140,lexical_decision_task_DD_L5,2021.2.3,Win32,75.00187505,m,1,0.4522,,,,,,,,0.4522,1,0,2,2,4,1,1001,SQUEAK,m,,,,,,,,,,,,,,,,,,,,,,,,,,,,,,,,,,,,,,,,,,,,,,,,,,,,,
,,,,,,,,,,,,,,,,,199033,18,2022-01-28_16h42.25.140,lexical_decision_task_DD_L5,2021.2.3,Win32,75.00187505,z,0,0.6539,,,,,,,,0.6539,0,0,3,3,0,1,1001,UTOPIA,m,,,,,,,,,,,,,,,,,,,,,,,,,,,,,,,,,,,,,,,,,,,,,,,,,,,,,
,,,,,,,,,,,,,,,,,199033,18,2022-01-28_16h42.25.140,lexical_decision_task_DD_L5,2021.2.3,Win32,75.00187505,m,0,0.8729,,,,,,,,0.8729,0,0,4,4,12,1,1001,SPRINY,z,,,,,,,,,,,,,,,,,,,,,,,,,,,,,,,,,,,,,,,,,,,,,,,,,,,,,
,,,,,,,,,,,,,,,,,199033,18,2022-01-28_16h42.25.140,lexical_decision_task_DD_L5,2021.2.3,Win32,75.00187505,m,1,0.7094,,,,,,,,0.7094,1,0,5,5,5,1,1001,OBTAIN,m,,,,,,,,,,,,,,,,,,,,,,,,,,,,,,,,,,,,,,,,,,,,,,,,,,,,,
,,,,,,,,,,,,,,,,,199033,18,2022-01-28_16h42.25.140,lexical_decision_task_DD_L5,2021.2.3,Win32,75.00187505,m,1,0.7859,,,,,,,,0.7859,1,0,6,6,3,1,1001,MATRIX,m,,,,,,,,,,,,,,,,,,,,,,,,,,,,,,,,,,,,,,,,,,,,,,,,,,,,,
,,,,,,,,,,,,,,,,,199033,18,2022-01-28_16h42.25.140,lexical_decision_task_DD_L5,2021.2.3,Win32,75.00187505,z,1,0.9589,,,,,,,,0.9589,1,0,7,7,11,1,1001,RASHET,z,,,,,,,,,,,,,,,,,,,,,,,,,,,,,,,,,,,,,,,,,,,,,,,,,,,,,
,,,,,,,,,,,,,,,,,199033,18,2022-01-28_16h42.25.140,lexical_decision_task_DD_L5,2021.2.3,Win32,75.00187505,m,1,0.8629,,,,,,,,0.8629,1,0,8,8,6,1,1001,ZOMBIE,m,,,,,,,,,,,,,,,,,,,,,,,,,,,,,,,,,,,,,,,,,,,,,,,,,,,,,
,,,,,,,,,,,,,,,,,199033,18,2022-01-28_16h42.25.140,lexical_decision_task_DD_L5,2021.2.3,Win32,75.00187505,z,1,0.8498,,,,,,,,0.8498,1,0,9,9,8,1,1001,ASLERT,z,,,,,,,,,,,,,,,,,,,,,,,,,,,,,,,,,,,,,,,,,,,,,,,,,,,,,
,,,,,,,,,,,,,,,,,199033,18,2022-01-28_16h42.25.140,lexical_decision_task_DD_L5,2021.2.3,Win32,75.00187505,z,1,0.7764,,,,,,,,0.7764,1,0,10,10,10,1,1001,INLADE,z,,,,,,,,,,,,,,,,,,,,,,,,,,,,,,,,,,,,,,,,,,,,,,,,,,,,,
,,,,,,,,,,,,,,,,,199033,18,2022-01-28_16h42.25.140,lexical_decision_task_DD_L5,2021.2.3,Win32,75.00187505,m,1,0.5725,,,,,,,,0.5725,1,0,11,11,7,1,1001,VOLUME,m,,,,,,,,,,,,,,,,,,,,,,,,,,,,,,,,,,,,,,,,,,,,,,,,,,,,,
,,,,,,,,,,,,,,,,,199033,18,2022-01-28_16h42.25.140,lexical_decision_task_DD_L5,2021.2.3,Win32,75.00187505,z,1,0.605,,,,,,,,0.605,1,0,12,12,13,1,1001,ROUPET,z,,,,,,,,,,,,,,,,,,,,,,,,,,,,,,,,,,,,,,,,,,,,,,,,,,,,,
,,,,,,,,,,,,,,,,,199033,18,2022-01-28_16h42.25.140,lexical_decision_task_DD_L5,2021.2.3,Win32,75.00187505,m,1,0.4933,,,,,,,,0.4933,1,0,13,13,2,1,1001,ALMOND,m,,,,,,,,,,,,,,,,,,,,,,,,,,,,,,,,,,,,,,,,,,,,,,,,,,,,,
,,,,,,,,,,,,,,,,,199033,18,2022-01-28_16h42.25.140,lexical_decision_task_DD_L5,2021.2.3,Win32,75.00187505,z,1,0.6073,,,,,,,,0.6073,1,0,14,14,9,1,1001,FARINY,z,,,,,,,,,,,,,,,,,,,,,,,,,,,,,,,,,,,,,,,,,,,,,,,,,,,,,
,,,,,,,,,,,,,,,,,199033,18,2022-01-28_16h42.25.140,lexical_decision_task_DD_L5,2021.2.3,Win32,75.00187505,m,1,0.5111,,,,,,,,0.5111,1,0,15,15,1,1,1001,ADJUST,m,,,,,,,,,,,,,,,,,,,,,,,,,,,,,,,,,,,,,,,,,,,,,,,,,,,,,
space,23.3011,0.113888889,-0.006481481,0,0,0,,,,,,1,end_of_practice,"You have completed the practice trials. During the experimental trials, you will not receive feedback. 
Before you begin, please ensure that you are in a comfortable and quiet location and will not be disturbed for about 15 minutes, as we cannot use your data if you do not complete all the trials. 
 When you are ready to start the experimental trials, please press space or touch the button below.",,,199033,18,2022-01-28_16h42.25.140,lexical_decision_task_DD_L5,2021.2.3,Win32,75.00187505,,,,,,,,,,,,,,,,,,,,,0,0,0,0,1,,,,,,,,,,,,,,,,,,,,,,,,,,,,,,,,,,,,,,,,,,,,,,,,
,,,,,,,,,,,,,,,,,199033,18,2022-01-28_16h42.25.140,lexical_decision_task_DD_L5,2021.2.3,Win32,75.00187505,,,,,,,,,,,1.0276,1,,,,,,,,,,,,,,m,1,1.0276,,,,,,,,0.113888889,-0.006481481,0,0,0,,0,0,0,28,1,CASINO,LB,old,m,./images/CASINOLB.png,,,,,,,,,,,,,,,,,,,,,,
,,,,,,,,,,,,,,,,,199033,18,2022-01-28_16h42.25.140,lexical_decision_task_DD_L5,2021.2.3,Win32,75.00187505,,,,,,,,,,,1.7844,1,,,,,,,,,,,,,,m,1,1.7844,,,,,,,,0.113888889,-0.006481481,0,0,0,,0,1,1,75,1,HAMMER,HB,old,m,./images/HAMMERHB.png,,,,,,,,,,,,,,,,,,,,,,
,,,,,,,,,,,,,,,,,199033,18,2022-01-28_16h42.25.140,lexical_decision_task_DD_L5,2021.2.3,Win32,75.00187505,,,,,,,,,,,0.8566,1,,,,,,,,,,,,,,m,1,0.8566,,,,,,,,0.113888889,-0.006481481,0,0,0,,0,2,2,81,1,DRILL,HB,old,m,./images/DRILLHB.png,,,,,,,,,,,,,,,,,,,,,,
,,,,,,,,,,,,,,,,,199033,18,2022-01-28_16h42.25.140,lexical_decision_task_DD_L5,2021.2.3,Win32,75.00187505,,,,,,,,,,,0.7492,1,,,,,,,,,,,,,,z,1,0.7492,,,,,,,,0.113888889,-0.006481481,0,0,0,,0,3,3,146,1,MOOST,LB,old,z,./images/MOOSTLB.png,,,,,,,,,,,,,,,,,,,,,,
,,,,,,,,,,,,,,,,,199033,18,2022-01-28_16h42.25.140,lexical_decision_task_DD_L5,2021.2.3,Win32,75.00187505,,,,,,,,,,,0.6579,1,,,,,,,,,,,,,,z,1,0.6579,,,,,,,,0.113888889,-0.006481481,0,0,0,,0,4,4,111,1,HOSSE,C,old,z,./images/HOSSE.png,,,,,,,,,,,,,,,,,,,,,,
,,,,,,,,,,,,,,,,,199033,18,2022-01-28_16h42.25.140,lexical_decision_task_DD_L5,2021.2.3,Win32,75.00187505,,,,,,,,,,,0.6229,1,,,,,,,,,,,,,,m,1,0.6229,,,,,,,,0.113888889,-0.006481481,0,0,0,,0,5,5,35,1,LLAMA,C,old,m,./images/LLAMA.png,,,,,,,,,,,,,,,,,,,,,,
,,,,,,,,,,,,,,,,,199033,18,2022-01-28_16h42.25.140,lexical_decision_task_DD_L5,2021.2.3,Win32,75.00187505,,,,,,,,,,,0.6736,1,,,,,,,,,,,,,,z,1,0.6736,,,,,,,,0.113888889,-0.006481481,0,0,0,,0,6,6,134,1,TROSS,LB,old,z,./images/TROSSLB.png,,,,,,,,,,,,,,,,,,,,,,
,,,,,,,,,,,,,,,,,199033,18,2022-01-28_16h42.25.140,lexical_decision_task_DD_L5,2021.2.3,Win32,75.00187505,,,,,,,,,,,0.8228,1,,,,,,,,,,,,,,m,1,0.8228,,,,,,,,0.113888889,-0.006481481,0,0,0,,0,7,7,56,1,HEATER,C,old,m,./images/HEATER.png,,,,,,,,,,,,,,,,,,,,,,
,,,,,,,,,,,,,,,,,199033,18,2022-01-28_16h42.25.140,lexical_decision_task_DD_L5,2021.2.3,Win32,75.00187505,,,,,,,,,,,0.905,1,,,,,,,,,,,,,,z,1,0.905,,,,,,,,0.113888889,-0.006481481,0,0,0,,0,8,8,160,1,VEETS,HB,old,z,./images/VEETSHB.png,,,,,,,,,,,,,,,,,,,,,,
,,,,,,,,,,,,,,,,,199033,18,2022-01-28_16h42.25.140,lexical_decision_task_DD_L5,2021.2.3,Win32,75.00187505,,,,,,,,,,,0.728,1,,,,,,,,,,,,,,m,1,0.728,,,,,,,,0.113888889,-0.006481481,0,0,0,,0,9,9,8,1,CLIFF,C,old,m,./images/CLIFF.png,,,,,,,,,,,,,,,,,,,,,,
,,,,,,,,,,,,,,,,,199033,18,2022-01-28_16h42.25.140,lexical_decision_task_DD_L5,2021.2.3,Win32,75.00187505,,,,,,,,,,,0.6138,1,,,,,,,,,,,,,,z,1,0.6138,,,,,,,,0.113888889,-0.006481481,0,0,0,,0,10,10,122,1,BLOOT,LB,old,z,./images/BLOOTLB.png,,,,,,,,,,,,,,,,,,,,,,
,,,,,,,,,,,,,,,,,199033,18,2022-01-28_16h42.25.140,lexical_decision_task_DD_L5,2021.2.3,Win32,75.00187505,,,,,,,,,,,1.0269,1,,,,,,,,,,,,,,m,1,1.0269,,,,,,,,0.113888889,-0.006481481,0,0,0,,0,11,11,54,1,CHERRY,HB,old,m,./images/CHERRYHB.png,,,,,,,,,,,,,,,,,,,,,,
,,,,,,,,,,,,,,,,,199033,18,2022-01-28_16h42.25.140,lexical_decision_task_DD_L5,2021.2.3,Win32,75.00187505,,,,,,,,,,,1.0075,1,,,,,,,,,,,,,,m,1,1.0075,,,,,,,,0.113888889,-0.006481481,0,0,0,,0,12,12,47,1,LAGOON,C,old,m,./images/LAGOON.png,,,,,,,,,,,,,,,,,,,,,,
,,,,,,,,,,,,,,,,,199033,18,2022-01-28_16h42.25.140,lexical_decision_task_DD_L5,2021.2.3,Win32,75.00187505,,,,,,,,,,,0.5755,0,,,,,,,,,,,,,,z,0,0.5755,,,,,,,,0.113888889,-0.006481481,0,0,0,,0,13,13,7,1,WAGON,LB,old,m,./images/WAGONLB.png,,,,,,,,,,,,,,,,,,,,,,
,,,,,,,,,,,,,,,,,199033,18,2022-01-28_16h42.25.140,lexical_decision_task_DD_L5,2021.2.3,Win32,75.00187505,,,,,,,,,,,0.5934,1,,,,,,,,,,,,,,m,1,0.5934,,,,,,,,0.113888889,-0.006481481,0,0,0,,0,14,14,50,1,PILOT,C,old,m,./images/PILOT.png,,,,,,,,,,,,,,,,,,,,,,
,,,,,,,,,,,,,,,,,199033,18,2022-01-28_16h42.25.140,lexical_decision_task_DD_L5,2021.2.3,Win32,75.00187505,,,,,,,,,,,0.5958,1,,,,,,,,,,,,,,m,1,0.5958,,,,,,,,0.113888889,-0.006481481,0,0,0,,0,15,15,23,1,CLOTH,C,old,m,./images/CLOTH.png,,,,,,,,,,,,,,,,,,,,,,
,,,,,,,,,,,,,,,,,199033,18,2022-01-28_16h42.25.140,lexical_decision_task_DD_L5,2021.2.3,Win32,75.00187505,,,,,,,,,,,0.5612,1,,,,,,,,,,,,,,z,1,0.5612,,,,,,,,0.113888889,-0.006481481,0,0,0,,0,16,16,131,1,NACES,LB,old,z,./images/NACESLB.png,,,,,,,,,,,,,,,,,,,,,,
,,,,,,,,,,,,,,,,,199033,18,2022-01-28_16h42.25.140,lexical_decision_task_DD_L5,2021.2.3,Win32,75.00187505,,,,,,,,,,,0.6117,1,,,,,,,,,,,,,,m,1,0.6117,,,,,,,,0.113888889,-0.006481481,0,0,0,,0,17,17,67,1,POKER,LB,old,m,./images/POKERLB.png,,,,,,,,,,,,,,,,,,,,,,
,,,,,,,,,,,,,,,,,199033,18,2022-01-28_16h42.25.140,lexical_decision_task_DD_L5,2021.2.3,Win32,75.00187505,,,,,,,,,,,0.6536,1,,,,,,,,,,,,,,z,1,0.6536,,,,,,,,0.113888889,-0.006481481,0,0,0,,0,18,18,84,1,HAXES,C,old,z,./images/HAXES.png,,,,,,,,,,,,,,,,,,,,,,
,,,,,,,,,,,,,,,,,199033,18,2022-01-28_16h42.25.140,lexical_decision_task_DD_L5,2021.2.3,Win32,75.00187505,,,,,,,,,,,0.7969,1,,,,,,,,,,,,,,z,1,0.7969,,,,,,,,0.113888889,-0.006481481,0,0,0,,0,19,19,121,1,CEERS,HB,old,z,./images/CEERSHB.png,,,,,,,,,,,,,,,,,,,,,,
,,,,,,,,,,,,,,,,,199033,18,2022-01-28_16h42.25.140,lexical_decision_task_DD_L5,2021.2.3,Win32,75.00187505,,,,,,,,,,,0.9523,1,,,,,,,,,,,,,,z,1,0.9523,,,,,,,,0.113888889,-0.006481481,0,0,0,,0,20,20,139,1,BLEAR,HB,old,z,./images/BLEARHB.png,,,,,,,,,,,,,,,,,,,,,,
,,,,,,,,,,,,,,,,,199033,18,2022-01-28_16h42.25.140,lexical_decision_task_DD_L5,2021.2.3,Win32,75.00187505,,,,,,,,,,,0.7195,1,,,,,,,,,,,,,,m,1,0.7195,,,,,,,,0.113888889,-0.006481481,0,0,0,,0,21,21,60,1,CURRY,HB,old,m,./images/CURRYHB.png,,,,,,,,,,,,,,,,,,,,,,
,,,,,,,,,,,,,,,,,199033,18,2022-01-28_16h42.25.140,lexical_decision_task_DD_L5,2021.2.3,Win32,75.00187505,,,,,,,,,,,0.7142,1,,,,,,,,,,,,,,z,1,0.7142,,,,,,,,0.113888889,-0.006481481,0,0,0,,0,22,22,97,1,CHIDS,HB,old,z,./images/CHIDSHB.png,,,,,,,,,,,,,,,,,,,,,,
,,,,,,,,,,,,,,,,,199033,18,2022-01-28_16h42.25.140,lexical_decision_task_DD_L5,2021.2.3,Win32,75.00187505,,,,,,,,,,,1.2902,1,,,,,,,,,,,,,,m,1,1.2902,,,,,,,,0.113888889,-0.006481481,0,0,0,,0,23,23,6,1,STAIN,HB,old,m,./images/STAINHB.png,,,,,,,,,,,,,,,,,,,,,,
,,,,,,,,,,,,,,,,,199033,18,2022-01-28_16h42.25.140,lexical_decision_task_DD_L5,2021.2.3,Win32,75.00187505,,,,,,,,,,,0.6191,1,,,,,,,,,,,,,,m,1,0.6191,,,,,,,,0.113888889,-0.006481481,0,0,0,,0,24,24,74,1,JUMPER,C,old,m,./images/JUMPER.png,,,,,,,,,,,,,,,,,,,,,,
,,,,,,,,,,,,,,,,,199033,18,2022-01-28_16h42.25.140,lexical_decision_task_DD_L5,2021.2.3,Win32,75.00187505,,,,,,,,,,,1.1181,1,,,,,,,,,,,,,,z,1,1.1181,,,,,,,,0.113888889,-0.006481481,0,0,0,,0,25,25,100,1,DRIBS,HB,old,z,./images/DRIBSHB.png,,,,,,,,,,,,,,,,,,,,,,
,,,,,,,,,,,,,,,,,199033,18,2022-01-28_16h42.25.140,lexical_decision_task_DD_L5,2021.2.3,Win32,75.00187505,,,,,,,,,,,1.0727,1,,,,,,,,,,,,,,m,1,1.0727,,,,,,,,0.113888889,-0.006481481,0,0,0,,0,26,26,72,1,FLASK,HB,old,m,./images/FLASKHB.png,,,,,,,,,,,,,,,,,,,,,,
,,,,,,,,,,,,,,,,,199033,18,2022-01-28_16h42.25.140,lexical_decision_task_DD_L5,2021.2.3,Win32,75.00187505,,,,,,,,,,,0.5975,1,,,,,,,,,,,,,,z,1,0.5975,,,,,,,,0.113888889,-0.006481481,0,0,0,,0,27,27,117,1,STEEG,C,old,z,./images/STEEG.png,,,,,,,,,,,,,,,,,,,,,,
,,,,,,,,,,,,,,,,,199033,18,2022-01-28_16h42.25.140,lexical_decision_task_DD_L5,2021.2.3,Win32,75.00187505,,,,,,,,,,,0.5786,1,,,,,,,,,,,,,,m,1,0.5786,,,,,,,,0.113888889,-0.006481481,0,0,0,,0,28,28,46,1,MUMMY,LB,old,m,./images/MUMMYLB.png,,,,,,,,,,,,,,,,,,,,,,
,,,,,,,,,,,,,,,,,199033,18,2022-01-28_16h42.25.140,lexical_decision_task_DD_L5,2021.2.3,Win32,75.00187505,,,,,,,,,,,0.7517,1,,,,,,,,,,,,,,m,1,0.7517,,,,,,,,0.113888889,-0.006481481,0,0,0,,0,29,29,55,1,ALLEY,LB,old,m,./images/ALLEYLB.png,,,,,,,,,,,,,,,,,,,,,,
,,,,,,,,,,,,,,,,,199033,18,2022-01-28_16h42.25.140,lexical_decision_task_DD_L5,2021.2.3,Win32,75.00187505,,,,,,,,,,,0.5959,1,,,,,,,,,,,,,,z,1,0.5959,,,,,,,,0.113888889,-0.006481481,0,0,0,,0,30,30,120,1,RINED,C,old,z,./images/RINED.png,,,,,,,,,,,,,,,,,,,,,,
,,,,,,,,,,,,,,,,,199033,18,2022-01-28_16h42.25.140,lexical_decision_task_DD_L5,2021.2.3,Win32,75.00187505,,,,,,,,,,,0.9614,1,,,,,,,,,,,,,,z,1,0.9614,,,,,,,,0.113888889,-0.006481481,0,0,0,,0,31,31,94,1,BLANS,HB,old,z,./images/BLANSHB.png,,,,,,,,,,,,,,,,,,,,,,
,,,,,,,,,,,,,,,,,199033,18,2022-01-28_16h42.25.140,lexical_decision_task_DD_L5,2021.2.3,Win32,75.00187505,,,,,,,,,,,0.636,1,,,,,,,,,,,,,,m,1,0.636,,,,,,,,0.113888889,-0.006481481,0,0,0,,0,32,32,64,1,BRIDE,LB,old,m,./images/BRIDELB.png,,,,,,,,,,,,,,,,,,,,,,
,,,,,,,,,,,,,,,,,199033,18,2022-01-28_16h42.25.140,lexical_decision_task_DD_L5,2021.2.3,Win32,75.00187505,,,,,,,,,,,0.5879,1,,,,,,,,,,,,,,z,1,0.5879,,,,,,,,0.113888889,-0.006481481,0,0,0,,0,33,33,123,1,SEDGE,C,old,z,./images/SEDGE.png,,,,,,,,,,,,,,,,,,,,,,
,,,,,,,,,,,,,,,,,199033,18,2022-01-28_16h42.25.140,lexical_decision_task_DD_L5,2021.2.3,Win32,75.00187505,,,,,,,,,,,0.998,1,,,,,,,,,,,,,,z,1,0.998,,,,,,,,0.113888889,-0.006481481,0,0,0,,0,34,34,109,1,BURGE,HB,old,z,./images/BURGEHB.png,,,,,,,,,,,,,,,,,,,,,,
,,,,,,,,,,,,,,,,,199033,18,2022-01-28_16h42.25.140,lexical_decision_task_DD_L5,2021.2.3,Win32,75.00187505,,,,,,,,,,,1.1926,1,,,,,,,,,,,,,,z,1,1.1926,,,,,,,,0.113888889,-0.006481481,0,0,0,,0,35,35,151,1,TINKY,HB,old,z,./images/TINKYHB.png,,,,,,,,,,,,,,,,,,,,,,
,,,,,,,,,,,,,,,,,199033,18,2022-01-28_16h42.25.140,lexical_decision_task_DD_L5,2021.2.3,Win32,75.00187505,,,,,,,,,,,0.5654,1,,,,,,,,,,,,,,z,1,0.5654,,,,,,,,0.113888889,-0.006481481,0,0,0,,0,36,36,93,1,SMONE,C,old,z,./images/SMONE.png,,,,,,,,,,,,,,,,,,,,,,
,,,,,,,,,,,,,,,,,199033,18,2022-01-28_16h42.25.140,lexical_decision_task_DD_L5,2021.2.3,Win32,75.00187505,,,,,,,,,,,1.0741,1,,,,,,,,,,,,,,z,1,1.0741,,,,,,,,0.113888889,-0.006481481,0,0,0,,0,37,37,148,1,JOMS,HB,old,z,./images/JOMSHB.png,,,,,,,,,,,,,,,,,,,,,,
,,,,,,,,,,,,,,,,,199033,18,2022-01-28_16h42.25.140,lexical_decision_task_DD_L5,2021.2.3,Win32,75.00187505,,,,,,,,,,,0.6024,1,,,,,,,,,,,,,,z,1,0.6024,,,,,,,,0.113888889,-0.006481481,0,0,0,,0,38,38,113,1,LINEW,LB,old,z,./images/LINEWLB.png,,,,,,,,,,,,,,,,,,,,,,
,,,,,,,,,,,,,,,,,199033,18,2022-01-28_16h42.25.140,lexical_decision_task_DD_L5,2021.2.3,Win32,75.00187505,,,,,,,,,,,0.556,1,,,,,,,,,,,,,,m,1,0.556,,,,,,,,0.113888889,-0.006481481,0,0,0,,0,39,39,19,1,DONKEY,LB,old,m,./images/DONKEYLB.png,,,,,,,,,,,,,,,,,,,,,,
,,,,,,,,,,,,,,,,,199033,18,2022-01-28_16h42.25.140,lexical_decision_task_DD_L5,2021.2.3,Win32,75.00187505,,,,,,,,,,,1.3027,1,,,,,,,,,,,,,,m,1,1.3027,,,,,,,,0.113888889,-0.006481481,0,0,0,,0,40,40,3,1,CRATER,HB,old,m,./images/CRATERHB.png,,,,,,,,,,,,,,,,,,,,,,
,,,,,,,,,,,,,,,,,199033,18,2022-01-28_16h42.25.140,lexical_decision_task_DD_L5,2021.2.3,Win32,75.00187505,,,,,,,,,,,0.5235,1,,,,,,,,,,,,,,z,1,0.5235,,,,,,,,0.113888889,-0.006481481,0,0,0,space,0,41,41,156,1,HIXES,C,old,z,./images/HIXES.png,5.7339,,,,,,,,,,,,,,,,,,,,,
,,,,,,,,,,,,,,,,,199033,18,2022-01-28_16h42.25.140,lexical_decision_task_DD_L5,2021.2.3,Win32,75.00187505,,,,,,,,,,,0.5382,1,,,,,,,,,,,,,,m,1,0.5382,,,,,,,,0.113888889,-0.006481481,0,0,0,,0,42,42,80,1,PLANET,C,old,m,./images/PLANET.png,,,,,,,,,,,,,,,,,,,,,,
,,,,,,,,,,,,,,,,,199033,18,2022-01-28_16h42.25.140,lexical_decision_task_DD_L5,2021.2.3,Win32,75.00187505,,,,,,,,,,,0.4796,1,,,,,,,,,,,,,,z,1,0.4796,,,,,,,,0.113888889,-0.006481481,0,0,0,,0,43,43,147,1,ZOLES,C,old,z,./images/ZOLES.png,,,,,,,,,,,,,,,,,,,,,,
,,,,,,,,,,,,,,,,,199033,18,2022-01-28_16h42.25.140,lexical_decision_task_DD_L5,2021.2.3,Win32,75.00187505,,,,,,,,,,,0.5324,1,,,,,,,,,,,,,,z,1,0.5324,,,,,,,,0.113888889,-0.006481481,0,0,0,,0,44,44,167,1,ZONET,LB,old,z,./images/ZONETLB.png,,,,,,,,,,,,,,,,,,,,,,
,,,,,,,,,,,,,,,,,199033,18,2022-01-28_16h42.25.140,lexical_decision_task_DD_L5,2021.2.3,Win32,75.00187505,,,,,,,,,,,1.0709,0,,,,,,,,,,,,,,m,0,1.0709,,,,,,,,0.113888889,-0.006481481,0,0,0,,0,45,45,159,1,CUDDY,C,old,z,./images/CUDDY.png,,,,,,,,,,,,,,,,,,,,,,
,,,,,,,,,,,,,,,,,199033,18,2022-01-28_16h42.25.140,lexical_decision_task_DD_L5,2021.2.3,Win32,75.00187505,,,,,,,,,,,0.6413,1,,,,,,,,,,,,,,m,1,0.6413,,,,,,,,0.113888889,-0.006481481,0,0,0,,0,46,46,61,1,ARTIST,LB,old,m,./images/ARTISTLB.png,,,,,,,,,,,,,,,,,,,,,,
,,,,,,,,,,,,,,,,,199033,18,2022-01-28_16h42.25.140,lexical_decision_task_DD_L5,2021.2.3,Win32,75.00187505,,,,,,,,,,,0.777,1,,,,,,,,,,,,,,m,1,0.777,,,,,,,,0.113888889,-0.006481481,0,0,0,,0,47,47,53,1,POSTER,C,old,m,./images/POSTER.png,,,,,,,,,,,,,,,,,,,,,,
,,,,,,,,,,,,,,,,,199033,18,2022-01-28_16h42.25.140,lexical_decision_task_DD_L5,2021.2.3,Win32,75.00187505,,,,,,,,,,,0.6081,1,,,,,,,,,,,,,,z,1,0.6081,,,,,,,,0.113888889,-0.006481481,0,0,0,,0,48,48,108,1,GRUET,C,old,z,./images/GRUET.png,,,,,,,,,,,,,,,,,,,,,,
,,,,,,,,,,,,,,,,,199033,18,2022-01-28_16h42.25.140,lexical_decision_task_DD_L5,2021.2.3,Win32,75.00187505,,,,,,,,,,,0.5309,1,,,,,,,,,,,,,,z,1,0.5309,,,,,,,,0.113888889,-0.006481481,0,0,0,,0,49,49,102,1,DULLE,C,old,z,./images/DULLE.png,,,,,,,,,,,,,,,,,,,,,,
,,,,,,,,,,,,,,,,,199033,18,2022-01-28_16h42.25.140,lexical_decision_task_DD_L5,2021.2.3,Win32,75.00187505,,,,,,,,,,,0.7516,1,,,,,,,,,,,,,,z,1,0.7516,,,,,,,,0.113888889,-0.006481481,0,0,0,,0,50,50,99,1,BACKY,C,old,z,./images/BACKY.png,,,,,,,,,,,,,,,,,,,,,,
,,,,,,,,,,,,,,,,,199033,18,2022-01-28_16h42.25.140,lexical_decision_task_DD_L5,2021.2.3,Win32,75.00187505,,,,,,,,,,,0.6582,0,,,,,,,,,,,,,,z,0,0.6582,,,,,,,,0.113888889,-0.006481481,0,0,0,,0,51,51,51,1,SAUCE,HB,old,m,./images/SAUCEHB.png,,,,,,,,,,,,,,,,,,,,,,
,,,,,,,,,,,,,,,,,199033,18,2022-01-28_16h42.25.140,lexical_decision_task_DD_L5,2021.2.3,Win32,75.00187505,,,,,,,,,,,0.7681,1,,,,,,,,,,,,,,z,1,0.7681,,,,,,,,0.113888889,-0.006481481,0,0,0,,0,52,52,92,1,PAIMS,LB,old,z,./images/PAIMSLB.png,,,,,,,,,,,,,,,,,,,,,,
,,,,,,,,,,,,,,,,,199033,18,2022-01-28_16h42.25.140,lexical_decision_task_DD_L5,2021.2.3,Win32,75.00187505,,,,,,,,,,,0.5695,1,,,,,,,,,,,,,,z,1,0.5695,,,,,,,,0.113888889,-0.006481481,0,0,0,,0,53,53,149,1,VEASE,LB,old,z,./images/VEASELB.png,,,,,,,,,,,,,,,,,,,,,,
,,,,,,,,,,,,,,,,,199033,18,2022-01-28_16h42.25.140,lexical_decision_task_DD_L5,2021.2.3,Win32,75.00187505,,,,,,,,,,,0.6628,1,,,,,,,,,,,,,,m,1,0.6628,,,,,,,,0.113888889,-0.006481481,0,0,0,,0,54,54,78,1,BROOM,HB,old,m,./images/BROOMHB.png,,,,,,,,,,,,,,,,,,,,,,
,,,,,,,,,,,,,,,,,199033,18,2022-01-28_16h42.25.140,lexical_decision_task_DD_L5,2021.2.3,Win32,75.00187505,,,,,,,,,,,0.6953,1,,,,,,,,,,,,,,m,1,0.6953,,,,,,,,0.113888889,-0.006481481,0,0,0,,0,55,55,69,1,ARROW,HB,old,m,./images/ARROWHB.png,,,,,,,,,,,,,,,,,,,,,,
,,,,,,,,,,,,,,,,,199033,18,2022-01-28_16h42.25.140,lexical_decision_task_DD_L5,2021.2.3,Win32,75.00187505,,,,,,,,,,,0.8604,1,,,,,,,,,,,,,,z,1,0.8604,,,,,,,,0.113888889,-0.006481481,0,0,0,,0,56,56,130,1,CRILL,HB,old,z,./images/CRILLHB.png,,,,,,,,,,,,,,,,,,,,,,
,,,,,,,,,,,,,,,,,199033,18,2022-01-28_16h42.25.140,lexical_decision_task_DD_L5,2021.2.3,Win32,75.00187505,,,,,,,,,,,0.598,1,,,,,,,,,,,,,,z,1,0.598,,,,,,,,0.113888889,-0.006481481,0,0,0,,0,57,57,162,1,LEICH,C,old,z,./images/LEICH.png,,,,,,,,,,,,,,,,,,,,,,
,,,,,,,,,,,,,,,,,199033,18,2022-01-28_16h42.25.140,lexical_decision_task_DD_L5,2021.2.3,Win32,75.00187505,,,,,,,,,,,0.963,1,,,,,,,,,,,,,,m,1,0.963,,,,,,,,0.113888889,-0.006481481,0,0,0,,0,58,58,15,1,COLLAR,HB,old,m,./images/COLLARHB.png,,,,,,,,,,,,,,,,,,,,,,
,,,,,,,,,,,,,,,,,199033,18,2022-01-28_16h42.25.140,lexical_decision_task_DD_L5,2021.2.3,Win32,75.00187505,,,,,,,,,,,0.4907,1,,,,,,,,,,,,,,z,1,0.4907,,,,,,,,0.113888889,-0.006481481,0,0,0,,0,59,59,135,1,JOODY,C,old,z,./images/JOODY.png,,,,,,,,,,,,,,,,,,,,,,
,,,,,,,,,,,,,,,,,199033,18,2022-01-28_16h42.25.140,lexical_decision_task_DD_L5,2021.2.3,Win32,75.00187505,,,,,,,,,,,0.7627,1,,,,,,,,,,,,,,z,1,0.7627,,,,,,,,0.113888889,-0.006481481,0,0,0,,0,60,60,154,1,THINT,HB,old,z,./images/THINTHB.png,,,,,,,,,,,,,,,,,,,,,,
,,,,,,,,,,,,,,,,,199033,18,2022-01-28_16h42.25.140,lexical_decision_task_DD_L5,2021.2.3,Win32,75.00187505,,,,,,,,,,,0.6738,1,,,,,,,,,,,,,,z,1,0.6738,,,,,,,,0.113888889,-0.006481481,0,0,0,,0,61,61,165,1,TROWN,C,old,z,./images/TROWN.png,,,,,,,,,,,,,,,,,,,,,,
,,,,,,,,,,,,,,,,,199033,18,2022-01-28_16h42.25.140,lexical_decision_task_DD_L5,2021.2.3,Win32,75.00187505,,,,,,,,,,,0.6391,1,,,,,,,,,,,,,,m,1,0.6391,,,,,,,,0.113888889,-0.006481481,0,0,0,,0,62,62,16,1,GRAPE,LB,old,m,./images/GRAPELB.png,,,,,,,,,,,,,,,,,,,,,,
,,,,,,,,,,,,,,,,,199033,18,2022-01-28_16h42.25.140,lexical_decision_task_DD_L5,2021.2.3,Win32,75.00187505,,,,,,,,,,,1.0818,1,,,,,,,,,,,,,,z,1,1.0818,,,,,,,,0.113888889,-0.006481481,0,0,0,,0,63,63,115,1,MAWNS,HB,old,z,./images/MAWNSHB.png,,,,,,,,,,,,,,,,,,,,,,
,,,,,,,,,,,,,,,,,199033,18,2022-01-28_16h42.25.140,lexical_decision_task_DD_L5,2021.2.3,Win32,75.00187505,,,,,,,,,,,0.5876,1,,,,,,,,,,,,,,m,1,0.5876,,,,,,,,0.113888889,-0.006481481,0,0,0,,0,64,64,10,1,GARDEN,LB,old,m,./images/GARDENLB.png,,,,,,,,,,,,,,,,,,,,,,
,,,,,,,,,,,,,,,,,199033,18,2022-01-28_16h42.25.140,lexical_decision_task_DD_L5,2021.2.3,Win32,75.00187505,,,,,,,,,,,0.7399,1,,,,,,,,,,,,,,m,1,0.7399,,,,,,,,0.113888889,-0.006481481,0,0,0,,0,65,65,49,1,BISHOP,LB,old,m,./images/BISHOPLB.png,,,,,,,,,,,,,,,,,,,,,,
,,,,,,,,,,,,,,,,,199033,18,2022-01-28_16h42.25.140,lexical_decision_task_DD_L5,2021.2.3,Win32,75.00187505,,,,,,,,,,,0.6407,1,,,,,,,,,,,,,,m,1,0.6407,,,,,,,,0.113888889,-0.006481481,0,0,0,,0,66,66,27,1,BUTTER,HB,old,m,./images/BUTTERHB.png,,,,,,,,,,,,,,,,,,,,,,
,,,,,,,,,,,,,,,,,199033,18,2022-01-28_16h42.25.140,lexical_decision_task_DD_L5,2021.2.3,Win32,75.00187505,,,,,,,,,,,1.019,1,,,,,,,,,,,,,,z,1,1.019,,,,,,,,0.113888889,-0.006481481,0,0,0,,0,67,67,112,1,MYING,HB,old,z,./images/MYINGHB.png,,,,,,,,,,,,,,,,,,,,,,
,,,,,,,,,,,,,,,,,199033,18,2022-01-28_16h42.25.140,lexical_decision_task_DD_L5,2021.2.3,Win32,75.00187505,,,,,,,,,,,0.688,1,,,,,,,,,,,,,,z,1,0.688,,,,,,,,0.113888889,-0.006481481,0,0,0,,0,68,68,86,1,AIFED,LB,old,z,./images/AIFEDLB.png,,,,,,,,,,,,,,,,,,,,,,
,,,,,,,,,,,,,,,,,199033,18,2022-01-28_16h42.25.140,lexical_decision_task_DD_L5,2021.2.3,Win32,75.00187505,,,,,,,,,,,0.5062,1,,,,,,,,,,,,,,m,1,0.5062,,,,,,,,0.113888889,-0.006481481,0,0,0,,0,69,69,73,1,GLOVE,LB,old,m,./images/GLOVELB.png,,,,,,,,,,,,,,,,,,,,,,
,,,,,,,,,,,,,,,,,199033,18,2022-01-28_16h42.25.140,lexical_decision_task_DD_L5,2021.2.3,Win32,75.00187505,,,,,,,,,,,0.7384,1,,,,,,,,,,,,,,z,1,0.7384,,,,,,,,0.113888889,-0.006481481,0,0,0,,0,70,70,91,1,SHENS,HB,old,z,./images/SHENSHB.png,,,,,,,,,,,,,,,,,,,,,,
,,,,,,,,,,,,,,,,,199033,18,2022-01-28_16h42.25.140,lexical_decision_task_DD_L5,2021.2.3,Win32,75.00187505,,,,,,,,,,,0.6633,1,,,,,,,,,,,,,,z,1,0.6633,,,,,,,,0.113888889,-0.006481481,0,0,0,,0,71,71,128,1,GRIFT,LB,old,z,./images/GRIFTLB.png,,,,,,,,,,,,,,,,,,,,,,
,,,,,,,,,,,,,,,,,199033,18,2022-01-28_16h42.25.140,lexical_decision_task_DD_L5,2021.2.3,Win32,75.00187505,,,,,,,,,,,0.518,1,,,,,,,,,,,,,,m,1,0.518,,,,,,,,0.113888889,-0.006481481,0,0,0,,0,72,72,82,1,PEBBLE,LB,old,m,./images/PEBBLELB.png,,,,,,,,,,,,,,,,,,,,,,
,,,,,,,,,,,,,,,,,199033,18,2022-01-28_16h42.25.140,lexical_decision_task_DD_L5,2021.2.3,Win32,75.00187505,,,,,,,,,,,0.6174,1,,,,,,,,,,,,,,m,1,0.6174,,,,,,,,0.113888889,-0.006481481,0,0,0,,0,73,73,48,1,SHIELD,HB,old,m,./images/SHIELDHB.png,,,,,,,,,,,,,,,,,,,,,,
,,,,,,,,,,,,,,,,,199033,18,2022-01-28_16h42.25.140,lexical_decision_task_DD_L5,2021.2.3,Win32,75.00187505,,,,,,,,,,,0.5477,1,,,,,,,,,,,,,,m,1,0.5477,,,,,,,,0.113888889,-0.006481481,0,0,0,,0,74,74,59,1,BRUSH,C,old,m,./images/BRUSH.png,,,,,,,,,,,,,,,,,,,,,,
,,,,,,,,,,,,,,,,,199033,18,2022-01-28_16h42.25.140,lexical_decision_task_DD_L5,2021.2.3,Win32,75.00187505,,,,,,,,,,,0.515,1,,,,,,,,,,,,,,m,1,0.515,,,,,,,,0.113888889,-0.006481481,0,0,0,,0,75,75,38,1,ENGINE,C,old,m,./images/ENGINE.png,,,,,,,,,,,,,,,,,,,,,,
,,,,,,,,,,,,,,,,,199033,18,2022-01-28_16h42.25.140,lexical_decision_task_DD_L5,2021.2.3,Win32,75.00187505,,,,,,,,,,,0.5604,1,,,,,,,,,,,,,,z,1,0.5604,,,,,,,,0.113888889,-0.006481481,0,0,0,,0,76,76,119,1,PAFER,LB,old,z,./images/PAFERLB.png,,,,,,,,,,,,,,,,,,,,,,
,,,,,,,,,,,,,,,,,199033,18,2022-01-28_16h42.25.140,lexical_decision_task_DD_L5,2021.2.3,Win32,75.00187505,,,,,,,,,,,0.5351,1,,,,,,,,,,,,,,m,1,0.5351,,,,,,,,0.113888889,-0.006481481,0,0,0,,0,77,77,77,1,WHEEL,C,old,m,./images/WHEEL.png,,,,,,,,,,,,,,,,,,,,,,
,,,,,,,,,,,,,,,,,199033,18,2022-01-28_16h42.25.140,lexical_decision_task_DD_L5,2021.2.3,Win32,75.00187505,,,,,,,,,,,0.6295,1,,,,,,,,,,,,,,z,1,0.6295,,,,,,,,0.113888889,-0.006481481,0,0,0,,0,78,78,129,1,PRANS,C,old,z,./images/PRANS.png,,,,,,,,,,,,,,,,,,,,,,
,,,,,,,,,,,,,,,,,199033,18,2022-01-28_16h42.25.140,lexical_decision_task_DD_L5,2021.2.3,Win32,75.00187505,,,,,,,,,,,1.0472,1,,,,,,,,,,,,,,m,1,1.0472,,,,,,,,0.113888889,-0.006481481,0,0,0,,0,79,79,58,1,CANOE,LB,old,m,./images/CANOELB.png,,,,,,,,,,,,,,,,,,,,,,
,,,,,,,,,,,,,,,,,199033,18,2022-01-28_16h42.25.140,lexical_decision_task_DD_L5,2021.2.3,Win32,75.00187505,,,,,,,,,,,0.9374,1,,,,,,,,,,,,,,z,1,0.9374,,,,,,,,0.113888889,-0.006481481,0,0,0,,0,80,80,166,1,SHORY,HB,old,z,./images/SHORYHB.png,,,,,,,,,,,,,,,,,,,,,,
,,,,,,,,,,,,,,,,,199033,18,2022-01-28_16h42.25.140,lexical_decision_task_DD_L5,2021.2.3,Win32,75.00187505,,,,,,,,,,,0.5186,1,,,,,,,,,,,,,,z,1,0.5186,,,,,,,,0.113888889,-0.006481481,0,0,0,,0,81,81,89,1,DRIEK,LB,old,z,./images/DRIEKLB.png,,,,,,,,,,,,,,,,,,,,,,
,,,,,,,,,,,,,,,,,199033,18,2022-01-28_16h42.25.140,lexical_decision_task_DD_L5,2021.2.3,Win32,75.00187505,,,,,,,,,,,0.4945,1,,,,,,,,,,,,,,m,1,0.4945,,,,,,,,0.113888889,-0.006481481,0,0,0,,0,82,82,14,1,FENCE,C,old,m,./images/FENCE.png,,,,,,,,,,,,,,,,,,,,,,
,,,,,,,,,,,,,,,,,199033,18,2022-01-28_16h42.25.140,lexical_decision_task_DD_L5,2021.2.3,Win32,75.00187505,,,,,,,,,,,0.5476,1,,,,,,,,,,,,,,m,1,0.5476,,,,,,,,0.113888889,-0.006481481,0,0,0,space,0,83,83,83,1,WHISKY,C,old,m,./images/WHISKY.png,0.9282,,,,,,,,,,,,,,,,,,,,,
,,,,,,,,,,,,,,,,,199033,18,2022-01-28_16h42.25.140,lexical_decision_task_DD_L5,2021.2.3,Win32,75.00187505,,,,,,,,,,,0.7922,1,,,,,,,,,,,,,,m,1,0.7922,,,,,,,,0.113888889,-0.006481481,0,0,0,,0,84,84,57,1,FERRY,HB,old,m,./images/FERRYHB.png,,,,,,,,,,,,,,,,,,,,,,
,,,,,,,,,,,,,,,,,199033,18,2022-01-28_16h42.25.140,lexical_decision_task_DD_L5,2021.2.3,Win32,75.00187505,,,,,,,,,,,0.6564,1,,,,,,,,,,,,,,m,1,0.6564,,,,,,,,0.113888889,-0.006481481,0,0,0,,0,85,85,63,1,BAKER,HB,old,m,./images/BAKERHB.png,,,,,,,,,,,,,,,,,,,,,,
,,,,,,,,,,,,,,,,,199033,18,2022-01-28_16h42.25.140,lexical_decision_task_DD_L5,2021.2.3,Win32,75.00187505,,,,,,,,,,,0.5566,0,,,,,,,,,,,,,,z,0,0.5566,,,,,,,,0.113888889,-0.006481481,0,0,0,,0,86,86,18,1,PARCEL,HB,old,m,./images/PARCELHB.png,,,,,,,,,,,,,,,,,,,,,,
,,,,,,,,,,,,,,,,,199033,18,2022-01-28_16h42.25.140,lexical_decision_task_DD_L5,2021.2.3,Win32,75.00187505,,,,,,,,,,,0.6876,1,,,,,,,,,,,,,,z,1,0.6876,,,,,,,,0.113888889,-0.006481481,0,0,0,,0,87,87,161,1,BLAPS,LB,old,z,./images/BLAPSLB.png,,,,,,,,,,,,,,,,,,,,,,
,,,,,,,,,,,,,,,,,199033,18,2022-01-28_16h42.25.140,lexical_decision_task_DD_L5,2021.2.3,Win32,75.00187505,,,,,,,,,,,0.535,1,,,,,,,,,,,,,,m,1,0.535,,,,,,,,0.113888889,-0.006481481,0,0,0,,0,88,88,62,1,MAMMAL,C,old,m,./images/MAMMAL.png,,,,,,,,,,,,,,,,,,,,,,
,,,,,,,,,,,,,,,,,199033,18,2022-01-28_16h42.25.140,lexical_decision_task_DD_L5,2021.2.3,Win32,75.00187505,,,,,,,,,,,0.5269,1,,,,,,,,,,,,,,z,1,0.5269,,,,,,,,0.113888889,-0.006481481,0,0,0,,0,89,89,101,1,GLEET,LB,old,z,./images/GLEETLB.png,,,,,,,,,,,,,,,,,,,,,,
,,,,,,,,,,,,,,,,,199033,18,2022-01-28_16h42.25.140,lexical_decision_task_DD_L5,2021.2.3,Win32,75.00187505,,,,,,,,,,,0.4497,0,,,,,,,,,,,,,,z,0,0.4497,,,,,,,,0.113888889,-0.006481481,0,0,0,,0,90,90,1,1,TOWEL,LB,old,m,./images/TOWELLB.png,,,,,,,,,,,,,,,,,,,,,,
,,,,,,,,,,,,,,,,,199033,18,2022-01-28_16h42.25.140,lexical_decision_task_DD_L5,2021.2.3,Win32,75.00187505,,,,,,,,,,,0.5663,1,,,,,,,,,,,,,,z,1,0.5663,,,,,,,,0.113888889,-0.006481481,0,0,0,,0,91,91,137,1,JOOST,LB,old,z,./images/JOOSTLB.png,,,,,,,,,,,,,,,,,,,,,,
,,,,,,,,,,,,,,,,,199033,18,2022-01-28_16h42.25.140,lexical_decision_task_DD_L5,2021.2.3,Win32,75.00187505,,,,,,,,,,,0.6809,0,,,,,,,,,,,,,,z,0,0.6809,,,,,,,,0.113888889,-0.006481481,0,0,0,,0,92,92,66,1,STATUE,HB,old,m,./images/STATUEHB.png,,,,,,,,,,,,,,,,,,,,,,
,,,,,,,,,,,,,,,,,199033,18,2022-01-28_16h42.25.140,lexical_decision_task_DD_L5,2021.2.3,Win32,75.00187505,,,,,,,,,,,0.8111,1,,,,,,,,,,,,,,m,1,0.8111,,,,,,,,0.113888889,-0.006481481,0,0,0,,0,93,93,33,1,SAUNA,HB,old,m,./images/SAUNAHB.png,,,,,,,,,,,,,,,,,,,,,,
,,,,,,,,,,,,,,,,,199033,18,2022-01-28_16h42.25.140,lexical_decision_task_DD_L5,2021.2.3,Win32,75.00187505,,,,,,,,,,,0.6128,1,,,,,,,,,,,,,,m,1,0.6128,,,,,,,,0.113888889,-0.006481481,0,0,0,,0,94,94,41,1,STREAM,C,old,m,./images/STREAM.png,,,,,,,,,,,,,,,,,,,,,,
,,,,,,,,,,,,,,,,,199033,18,2022-01-28_16h42.25.140,lexical_decision_task_DD_L5,2021.2.3,Win32,75.00187505,,,,,,,,,,,0.7464,1,,,,,,,,,,,,,,z,1,0.7464,,,,,,,,0.113888889,-0.006481481,0,0,0,,0,95,95,114,1,RIKES,C,old,z,./images/RIKES.png,,,,,,,,,,,,,,,,,,,,,,
,,,,,,,,,,,,,,,,,199033,18,2022-01-28_16h42.25.140,lexical_decision_task_DD_L5,2021.2.3,Win32,75.00187505,,,,,,,,,,,0.5779,1,,,,,,,,,,,,,,m,1,0.5779,,,,,,,,0.113888889,-0.006481481,0,0,0,,0,96,96,68,1,VALLEY,C,old,m,./images/VALLEY.png,,,,,,,,,,,,,,,,,,,,,,
,,,,,,,,,,,,,,,,,199033,18,2022-01-28_16h42.25.140,lexical_decision_task_DD_L5,2021.2.3,Win32,75.00187505,,,,,,,,,,,0.8259,1,,,,,,,,,,,,,,m,1,0.8259,,,,,,,,0.113888889,-0.006481481,0,0,0,,0,97,97,42,1,CHAIN,HB,old,m,./images/CHAINHB.png,,,,,,,,,,,,,,,,,,,,,,
,,,,,,,,,,,,,,,,,199033,18,2022-01-28_16h42.25.140,lexical_decision_task_DD_L5,2021.2.3,Win32,75.00187505,,,,,,,,,,,1.1938,1,,,,,,,,,,,,,,z,1,1.1938,,,,,,,,0.113888889,-0.006481481,0,0,0,,0,98,98,104,1,GITTY,LB,old,z,./images/GITTYLB.png,,,,,,,,,,,,,,,,,,,,,,
,,,,,,,,,,,,,,,,,199033,18,2022-01-28_16h42.25.140,lexical_decision_task_DD_L5,2021.2.3,Win32,75.00187505,,,,,,,,,,,0.9709,1,,,,,,,,,,,,,,z,1,0.9709,,,,,,,,0.113888889,-0.006481481,0,0,0,,0,99,99,143,1,MONGS,LB,old,z,./images/MONGSLB.png,,,,,,,,,,,,,,,,,,,,,,
,,,,,,,,,,,,,,,,,199033,18,2022-01-28_16h42.25.140,lexical_decision_task_DD_L5,2021.2.3,Win32,75.00187505,,,,,,,,,,,0.7339,1,,,,,,,,,,,,,,m,1,0.7339,,,,,,,,0.113888889,-0.006481481,0,0,0,,0,100,100,52,1,DESERT,LB,old,m,./images/DESERTLB.png,,,,,,,,,,,,,,,,,,,,,,
,,,,,,,,,,,,,,,,,199033,18,2022-01-28_16h42.25.140,lexical_decision_task_DD_L5,2021.2.3,Win32,75.00187505,,,,,,,,,,,0.5317,1,,,,,,,,,,,,,,m,1,0.5317,,,,,,,,0.113888889,-0.006481481,0,0,0,,0,101,101,25,1,CHALK,LB,old,m,./images/CHALKLB.png,,,,,,,,,,,,,,,,,,,,,,
,,,,,,,,,,,,,,,,,199033,18,2022-01-28_16h42.25.140,lexical_decision_task_DD_L5,2021.2.3,Win32,75.00187505,,,,,,,,,,,0.7119,1,,,,,,,,,,,,,,m,1,0.7119,,,,,,,,0.113888889,-0.006481481,0,0,0,,0,102,102,0,1,WALNUT,HB,old,m,./images/WALNUTHB.png,,,,,,,,,,,,,,,,,,,,,,
,,,,,,,,,,,,,,,,,199033,18,2022-01-28_16h42.25.140,lexical_decision_task_DD_L5,2021.2.3,Win32,75.00187505,,,,,,,,,,,0.5096,1,,,,,,,,,,,,,,m,1,0.5096,,,,,,,,0.113888889,-0.006481481,0,0,0,,0,103,103,11,1,MEDAL,C,old,m,./images/MEDAL.png,,,,,,,,,,,,,,,,,,,,,,
,,,,,,,,,,,,,,,,,199033,18,2022-01-28_16h42.25.140,lexical_decision_task_DD_L5,2021.2.3,Win32,75.00187505,,,,,,,,,,,0.6237,0,,,,,,,,,,,,,,z,0,0.6237,,,,,,,,0.113888889,-0.006481481,0,0,0,,0,104,104,12,1,BLOKE,HB,old,m,./images/BLOKEHB.png,,,,,,,,,,,,,,,,,,,,,,
,,,,,,,,,,,,,,,,,199033,18,2022-01-28_16h42.25.140,lexical_decision_task_DD_L5,2021.2.3,Win32,75.00187505,,,,,,,,,,,0.8959,1,,,,,,,,,,,,,,z,1,0.8959,,,,,,,,0.113888889,-0.006481481,0,0,0,,0,105,105,106,1,CLUMS,HB,old,z,./images/CLUMSHB.png,,,,,,,,,,,,,,,,,,,,,,
,,,,,,,,,,,,,,,,,199033,18,2022-01-28_16h42.25.140,lexical_decision_task_DD_L5,2021.2.3,Win32,75.00187505,,,,,,,,,,,0.8521,1,,,,,,,,,,,,,,z,1,0.8521,,,,,,,,0.113888889,-0.006481481,0,0,0,,0,106,106,124,1,TUNCH,HB,old,z,./images/TUNCHHB.png,,,,,,,,,,,,,,,,,,,,,,
,,,,,,,,,,,,,,,,,199033,18,2022-01-28_16h42.25.140,lexical_decision_task_DD_L5,2021.2.3,Win32,75.00187505,,,,,,,,,,,0.7846,0,,,,,,,,,,,,,,m,0,0.7846,,,,,,,,0.113888889,-0.006481481,0,0,0,,0,107,107,107,1,FASKS,LB,old,z,./images/FASKSLB.png,,,,,,,,,,,,,,,,,,,,,,
,,,,,,,,,,,,,,,,,199033,18,2022-01-28_16h42.25.140,lexical_decision_task_DD_L5,2021.2.3,Win32,75.00187505,,,,,,,,,,,0.6809,1,,,,,,,,,,,,,,z,1,0.6809,,,,,,,,0.113888889,-0.006481481,0,0,0,,0,108,108,127,1,NINDY,HB,old,z,./images/NINDYHB.png,,,,,,,,,,,,,,,,,,,,,,
,,,,,,,,,,,,,,,,,199033,18,2022-01-28_16h42.25.140,lexical_decision_task_DD_L5,2021.2.3,Win32,75.00187505,,,,,,,,,,,0.6196,1,,,,,,,,,,,,,,m,1,0.6196,,,,,,,,0.113888889,-0.006481481,0,0,0,,0,109,109,40,1,SNAKE,LB,old,m,./images/SNAKELB.png,,,,,,,,,,,,,,,,,,,,,,
,,,,,,,,,,,,,,,,,199033,18,2022-01-28_16h42.25.140,lexical_decision_task_DD_L5,2021.2.3,Win32,75.00187505,,,,,,,,,,,0.5363,1,,,,,,,,,,,,,,z,1,0.5363,,,,,,,,0.113888889,-0.006481481,0,0,0,,0,110,110,158,1,EGECT,LB,old,z,./images/EGECTLB.png,,,,,,,,,,,,,,,,,,,,,,
,,,,,,,,,,,,,,,,,199033,18,2022-01-28_16h42.25.140,lexical_decision_task_DD_L5,2021.2.3,Win32,75.00187505,,,,,,,,,,,0.563,1,,,,,,,,,,,,,,m,1,0.563,,,,,,,,0.113888889,-0.006481481,0,0,0,,0,111,111,26,1,CLOUD,C,old,m,./images/CLOUD.png,,,,,,,,,,,,,,,,,,,,,,
,,,,,,,,,,,,,,,,,199033,18,2022-01-28_16h42.25.140,lexical_decision_task_DD_L5,2021.2.3,Win32,75.00187505,,,,,,,,,,,1.3726,1,,,,,,,,,,,,,,z,1,1.3726,,,,,,,,0.113888889,-0.006481481,0,0,0,,0,112,112,141,1,PLEET,C,old,z,./images/PLEET.png,,,,,,,,,,,,,,,,,,,,,,
,,,,,,,,,,,,,,,,,199033,18,2022-01-28_16h42.25.140,lexical_decision_task_DD_L5,2021.2.3,Win32,75.00187505,,,,,,,,,,,0.7008,1,,,,,,,,,,,,,,m,1,0.7008,,,,,,,,0.113888889,-0.006481481,0,0,0,,0,113,113,30,1,SLOPE,HB,old,m,./images/SLOPEHB.png,,,,,,,,,,,,,,,,,,,,,,
,,,,,,,,,,,,,,,,,199033,18,2022-01-28_16h42.25.140,lexical_decision_task_DD_L5,2021.2.3,Win32,75.00187505,,,,,,,,,,,1.3059,0,,,,,,,,,,,,,,m,0,1.3059,,,,,,,,0.113888889,-0.006481481,0,0,0,,0,114,114,110,1,CRUNK,LB,old,z,./images/CRUNKLB.png,,,,,,,,,,,,,,,,,,,,,,
,,,,,,,,,,,,,,,,,199033,18,2022-01-28_16h42.25.140,lexical_decision_task_DD_L5,2021.2.3,Win32,75.00187505,,,,,,,,,,,0.6143,1,,,,,,,,,,,,,,z,1,0.6143,,,,,,,,0.113888889,-0.006481481,0,0,0,,0,115,115,150,1,NOOLS,C,old,z,./images/NOOLS.png,,,,,,,,,,,,,,,,,,,,,,
,,,,,,,,,,,,,,,,,199033,18,2022-01-28_16h42.25.140,lexical_decision_task_DD_L5,2021.2.3,Win32,75.00187505,,,,,,,,,,,1.0065,1,,,,,,,,,,,,,,m,1,1.0065,,,,,,,,0.113888889,-0.006481481,0,0,0,,0,116,116,43,1,STOOL,LB,old,m,./images/STOOLLB.png,,,,,,,,,,,,,,,,,,,,,,
,,,,,,,,,,,,,,,,,199033,18,2022-01-28_16h42.25.140,lexical_decision_task_DD_L5,2021.2.3,Win32,75.00187505,,,,,,,,,,,0.6008,1,,,,,,,,,,,,,,z,1,0.6008,,,,,,,,0.113888889,-0.006481481,0,0,0,,0,117,117,155,1,CANGY,LB,old,z,./images/CANGYLB.png,,,,,,,,,,,,,,,,,,,,,,
,,,,,,,,,,,,,,,,,199033,18,2022-01-28_16h42.25.140,lexical_decision_task_DD_L5,2021.2.3,Win32,75.00187505,,,,,,,,,,,0.7172,1,,,,,,,,,,,,,,z,1,0.7172,,,,,,,,0.113888889,-0.006481481,0,0,0,,0,118,118,85,1,CHULK,HB,old,z,./images/CHULKHB.png,,,,,,,,,,,,,,,,,,,,,,
,,,,,,,,,,,,,,,,,199033,18,2022-01-28_16h42.25.140,lexical_decision_task_DD_L5,2021.2.3,Win32,75.00187505,,,,,,,,,,,0.5418,1,,,,,,,,,,,,,,m,1,0.5418,,,,,,,,0.113888889,-0.006481481,0,0,0,,0,119,119,13,1,BUNNY,LB,old,m,./images/BUNNYLB.png,,,,,,,,,,,,,,,,,,,,,,
,,,,,,,,,,,,,,,,,199033,18,2022-01-28_16h42.25.140,lexical_decision_task_DD_L5,2021.2.3,Win32,75.00187505,,,,,,,,,,,0.5147,1,,,,,,,,,,,,,,m,1,0.5147,,,,,,,,0.113888889,-0.006481481,0,0,0,,0,120,120,70,1,BANANA,LB,old,m,./images/BANANALB.png,,,,,,,,,,,,,,,,,,,,,,
,,,,,,,,,,,,,,,,,199033,18,2022-01-28_16h42.25.140,lexical_decision_task_DD_L5,2021.2.3,Win32,75.00187505,,,,,,,,,,,0.8715,1,,,,,,,,,,,,,,m,1,0.8715,,,,,,,,0.113888889,-0.006481481,0,0,0,,0,121,121,44,1,BASKET,C,old,m,./images/BASKET.png,,,,,,,,,,,,,,,,,,,,,,
,,,,,,,,,,,,,,,,,199033,18,2022-01-28_16h42.25.140,lexical_decision_task_DD_L5,2021.2.3,Win32,75.00187505,,,,,,,,,,,0.8744,0,,,,,,,,,,,,,,z,0,0.8744,,,,,,,,0.113888889,-0.006481481,0,0,0,,0,122,122,9,1,DIVER,HB,old,m,./images/DIVERHB.png,,,,,,,,,,,,,,,,,,,,,,
,,,,,,,,,,,,,,,,,199033,18,2022-01-28_16h42.25.140,lexical_decision_task_DD_L5,2021.2.3,Win32,75.00187505,,,,,,,,,,,0.5507,1,,,,,,,,,,,,,,z,1,0.5507,,,,,,,,0.113888889,-0.006481481,0,0,0,,0,123,123,87,1,TRING,C,old,z,./images/TRING.png,,,,,,,,,,,,,,,,,,,,,,
,,,,,,,,,,,,,,,,,199033,18,2022-01-28_16h42.25.140,lexical_decision_task_DD_L5,2021.2.3,Win32,75.00187505,,,,,,,,,,,0.7531,1,,,,,,,,,,,,,,z,1,0.7531,,,,,,,,0.113888889,-0.006481481,0,0,0,,0,124,124,157,1,INLER,HB,old,z,./images/INLERHB.png,,,,,,,,,,,,,,,,,,,,,,
,,,,,,,,,,,,,,,,,199033,18,2022-01-28_16h42.25.140,lexical_decision_task_DD_L5,2021.2.3,Win32,75.00187505,,,,,,,,,,,0.6167,1,,,,,,,,,,,,,,z,1,0.6167,,,,,,,,0.113888889,-0.006481481,0,0,0,space,0,125,125,152,1,FRAIN,LB,old,z,./images/FRAINLB.png,0.7124,,,,,,,,,,,,,,,,,,,,,
,,,,,,,,,,,,,,,,,199033,18,2022-01-28_16h42.25.140,lexical_decision_task_DD_L5,2021.2.3,Win32,75.00187505,,,,,,,,,,,0.571,1,,,,,,,,,,,,,,m,1,0.571,,,,,,,,0.113888889,-0.006481481,0,0,0,,0,126,126,2,1,STOVE,C,old,m,./images/STOVE.png,,,,,,,,,,,,,,,,,,,,,,
,,,,,,,,,,,,,,,,,199033,18,2022-01-28_16h42.25.140,lexical_decision_task_DD_L5,2021.2.3,Win32,75.00187505,,,,,,,,,,,0.5359,1,,,,,,,,,,,,,,z,1,0.5359,,,,,,,,0.113888889,-0.006481481,0,0,0,,0,127,127,138,1,PLICE,C,old,z,./images/PLICE.png,,,,,,,,,,,,,,,,,,,,,,
,,,,,,,,,,,,,,,,,199033,18,2022-01-28_16h42.25.140,lexical_decision_task_DD_L5,2021.2.3,Win32,75.00187505,,,,,,,,,,,0.5417,1,,,,,,,,,,,,,,z,1,0.5417,,,,,,,,0.113888889,-0.006481481,0,0,0,,0,128,128,126,1,GUELS,C,old,z,./images/GUELS.png,,,,,,,,,,,,,,,,,,,,,,
,,,,,,,,,,,,,,,,,199033,18,2022-01-28_16h42.25.140,lexical_decision_task_DD_L5,2021.2.3,Win32,75.00187505,,,,,,,,,,,0.5998,1,,,,,,,,,,,,,,z,1,0.5998,,,,,,,,0.113888889,-0.006481481,0,0,0,,0,129,129,95,1,HANTY,LB,old,z,./images/HANTYLB.png,,,,,,,,,,,,,,,,,,,,,,
,,,,,,,,,,,,,,,,,199033,18,2022-01-28_16h42.25.140,lexical_decision_task_DD_L5,2021.2.3,Win32,75.00187505,,,,,,,,,,,0.7226,1,,,,,,,,,,,,,,m,1,0.7226,,,,,,,,0.113888889,-0.006481481,0,0,0,,0,130,130,22,1,CLOWN,LB,old,m,./images/CLOWNLB.png,,,,,,,,,,,,,,,,,,,,,,
,,,,,,,,,,,,,,,,,199033,18,2022-01-28_16h42.25.140,lexical_decision_task_DD_L5,2021.2.3,Win32,75.00187505,,,,,,,,,,,0.6601,0,,,,,,,,,,,,,,z,0,0.6601,,,,,,,,0.113888889,-0.006481481,0,0,0,,0,131,131,24,1,FLESH,HB,old,m,./images/FLESHHB.png,,,,,,,,,,,,,,,,,,,,,,
,,,,,,,,,,,,,,,,,199033,18,2022-01-28_16h42.25.140,lexical_decision_task_DD_L5,2021.2.3,Win32,75.00187505,,,,,,,,,,,0.6147,1,,,,,,,,,,,,,,m,1,0.6147,,,,,,,,0.113888889,-0.006481481,0,0,0,,0,132,132,5,1,BAMBOO,C,old,m,./images/BAMBOO.png,,,,,,,,,,,,,,,,,,,,,,
,,,,,,,,,,,,,,,,,199033,18,2022-01-28_16h42.25.140,lexical_decision_task_DD_L5,2021.2.3,Win32,75.00187505,,,,,,,,,,,0.6437,1,,,,,,,,,,,,,,m,1,0.6437,,,,,,,,0.113888889,-0.006481481,0,0,0,,0,133,133,20,1,GRANNY,C,old,m,./images/GRANNY.png,,,,,,,,,,,,,,,,,,,,,,
,,,,,,,,,,,,,,,,,199033,18,2022-01-28_16h42.25.140,lexical_decision_task_DD_L5,2021.2.3,Win32,75.00187505,,,,,,,,,,,0.4623,1,,,,,,,,,,,,,,m,1,0.4623,,,,,,,,0.113888889,-0.006481481,0,0,0,,0,134,134,29,1,PISTOL,C,old,m,./images/PISTOL.png,,,,,,,,,,,,,,,,,,,,,,
,,,,,,,,,,,,,,,,,199033,18,2022-01-28_16h42.25.140,lexical_decision_task_DD_L5,2021.2.3,Win32,75.00187505,,,,,,,,,,,1.1767,1,,,,,,,,,,,,,,z,1,1.1767,,,,,,,,0.113888889,-0.006481481,0,0,0,,0,135,135,88,1,GLUSH,HB,old,z,./images/GLUSHHB.png,,,,,,,,,,,,,,,,,,,,,,
,,,,,,,,,,,,,,,,,199033,18,2022-01-28_16h42.25.140,lexical_decision_task_DD_L5,2021.2.3,Win32,75.00187505,,,,,,,,,,,0.7659,1,,,,,,,,,,,,,,z,1,0.7659,,,,,,,,0.113888889,-0.006481481,0,0,0,,0,136,136,142,1,PLASK,HB,old,z,./images/PLASKHB.png,,,,,,,,,,,,,,,,,,,,,,
,,,,,,,,,,,,,,,,,199033,18,2022-01-28_16h42.25.140,lexical_decision_task_DD_L5,2021.2.3,Win32,75.00187505,,,,,,,,,,,0.7118,0,,,,,,,,,,,,,,z,0,0.7118,,,,,,,,0.113888889,-0.006481481,0,0,0,,0,137,137,39,1,CANDY,HB,old,m,./images/CANDYHB.png,,,,,,,,,,,,,,,,,,,,,,
,,,,,,,,,,,,,,,,,199033,18,2022-01-28_16h42.25.140,lexical_decision_task_DD_L5,2021.2.3,Win32,75.00187505,,,,,,,,,,,0.5892,1,,,,,,,,,,,,,,m,1,0.5892,,,,,,,,0.113888889,-0.006481481,0,0,0,,0,138,138,32,1,HOCKEY,C,old,m,./images/HOCKEY.png,,,,,,,,,,,,,,,,,,,,,,
,,,,,,,,,,,,,,,,,199033,18,2022-01-28_16h42.25.140,lexical_decision_task_DD_L5,2021.2.3,Win32,75.00187505,,,,,,,,,,,0.5002,1,,,,,,,,,,,,,,m,1,0.5002,,,,,,,,0.113888889,-0.006481481,0,0,0,,0,139,139,71,1,BUBBLE,C,old,m,./images/BUBBLE.png,,,,,,,,,,,,,,,,,,,,,,
,,,,,,,,,,,,,,,,,199033,18,2022-01-28_16h42.25.140,lexical_decision_task_DD_L5,2021.2.3,Win32,75.00187505,,,,,,,,,,,0.9246,1,,,,,,,,,,,,,,m,1,0.9246,,,,,,,,0.113888889,-0.006481481,0,0,0,,0,140,140,65,1,SPINE,C,old,m,./images/SPINE.png,,,,,,,,,,,,,,,,,,,,,,
,,,,,,,,,,,,,,,,,199033,18,2022-01-28_16h42.25.140,lexical_decision_task_DD_L5,2021.2.3,Win32,75.00187505,,,,,,,,,,,0.8093,1,,,,,,,,,,,,,,z,1,0.8093,,,,,,,,0.113888889,-0.006481481,0,0,0,,0,141,141,118,1,BAVEL,HB,old,z,./images/BAVELHB.png,,,,,,,,,,,,,,,,,,,,,,
,,,,,,,,,,,,,,,,,199033,18,2022-01-28_16h42.25.140,lexical_decision_task_DD_L5,2021.2.3,Win32,75.00187505,,,,,,,,,,,0.8949,1,,,,,,,,,,,,,,z,1,0.8949,,,,,,,,0.113888889,-0.006481481,0,0,0,,0,142,142,98,1,BAMPS,LB,old,z,./images/BAMPSLB.png,,,,,,,,,,,,,,,,,,,,,,
,,,,,,,,,,,,,,,,,199033,18,2022-01-28_16h42.25.140,lexical_decision_task_DD_L5,2021.2.3,Win32,75.00187505,,,,,,,,,,,0.5232,1,,,,,,,,,,,,,,z,1,0.5232,,,,,,,,0.113888889,-0.006481481,0,0,0,,0,143,143,125,1,MOOKY,LB,old,z,./images/MOOKYLB.png,,,,,,,,,,,,,,,,,,,,,,
,,,,,,,,,,,,,,,,,199033,18,2022-01-28_16h42.25.140,lexical_decision_task_DD_L5,2021.2.3,Win32,75.00187505,,,,,,,,,,,0.5661,1,,,,,,,,,,,,,,z,1,0.5661,,,,,,,,0.113888889,-0.006481481,0,0,0,,0,144,144,140,1,DOVET,LB,old,z,./images/DOVETLB.png,,,,,,,,,,,,,,,,,,,,,,
,,,,,,,,,,,,,,,,,199033,18,2022-01-28_16h42.25.140,lexical_decision_task_DD_L5,2021.2.3,Win32,75.00187505,,,,,,,,,,,0.5291,1,,,,,,,,,,,,,,m,1,0.5291,,,,,,,,0.113888889,-0.006481481,0,0,0,,0,145,145,4,1,BOXER,LB,old,m,./images/BOXERLB.png,,,,,,,,,,,,,,,,,,,,,,
,,,,,,,,,,,,,,,,,199033,18,2022-01-28_16h42.25.140,lexical_decision_task_DD_L5,2021.2.3,Win32,75.00187505,,,,,,,,,,,0.7654,1,,,,,,,,,,,,,,m,1,0.7654,,,,,,,,0.113888889,-0.006481481,0,0,0,,0,146,146,21,1,DANCER,HB,old,m,./images/DANCERHB.png,,,,,,,,,,,,,,,,,,,,,,
,,,,,,,,,,,,,,,,,199033,18,2022-01-28_16h42.25.140,lexical_decision_task_DD_L5,2021.2.3,Win32,75.00187505,,,,,,,,,,,0.6635,1,,,,,,,,,,,,,,z,1,0.6635,,,,,,,,0.113888889,-0.006481481,0,0,0,,0,147,147,116,1,BALGY,LB,old,z,./images/BALGYLB.png,,,,,,,,,,,,,,,,,,,,,,
,,,,,,,,,,,,,,,,,199033,18,2022-01-28_16h42.25.140,lexical_decision_task_DD_L5,2021.2.3,Win32,75.00187505,,,,,,,,,,,0.7651,1,,,,,,,,,,,,,,z,1,0.7651,,,,,,,,0.113888889,-0.006481481,0,0,0,,0,148,148,90,1,NEAST,C,old,z,./images/NEAST.png,,,,,,,,,,,,,,,,,,,,,,
,,,,,,,,,,,,,,,,,199033,18,2022-01-28_16h42.25.140,lexical_decision_task_DD_L5,2021.2.3,Win32,75.00187505,,,,,,,,,,,0.5296,1,,,,,,,,,,,,,,m,1,0.5296,,,,,,,,0.113888889,-0.006481481,0,0,0,,0,149,149,34,1,RAZOR,LB,old,m,./images/RAZORLB.png,,,,,,,,,,,,,,,,,,,,,,
,,,,,,,,,,,,,,,,,199033,18,2022-01-28_16h42.25.140,lexical_decision_task_DD_L5,2021.2.3,Win32,75.00187505,,,,,,,,,,,0.6793,1,,,,,,,,,,,,,,z,1,0.6793,,,,,,,,0.113888889,-0.006481481,0,0,0,,0,150,150,103,1,FLORT,HB,old,z,./images/FLORTHB.png,,,,,,,,,,,,,,,,,,,,,,
,,,,,,,,,,,,,,,,,199033,18,2022-01-28_16h42.25.140,lexical_decision_task_DD_L5,2021.2.3,Win32,75.00187505,,,,,,,,,,,0.5506,1,,,,,,,,,,,,,,z,1,0.5506,,,,,,,,0.113888889,-0.006481481,0,0,0,,0,151,151,153,1,CLUPS,C,old,z,./images/CLUPS.png,,,,,,,,,,,,,,,,,,,,,,
,,,,,,,,,,,,,,,,,199033,18,2022-01-28_16h42.25.140,lexical_decision_task_DD_L5,2021.2.3,Win32,75.00187505,,,,,,,,,,,0.931,1,,,,,,,,,,,,,,z,1,0.931,,,,,,,,0.113888889,-0.006481481,0,0,0,,0,152,152,163,1,GAMBA,HB,old,z,./images/GAMBAHB.png,,,,,,,,,,,,,,,,,,,,,,
,,,,,,,,,,,,,,,,,199033,18,2022-01-28_16h42.25.140,lexical_decision_task_DD_L5,2021.2.3,Win32,75.00187505,,,,,,,,,,,1.0245,1,,,,,,,,,,,,,,z,1,1.0245,,,,,,,,0.113888889,-0.006481481,0,0,0,,0,153,153,136,1,WERVE,HB,old,z,./images/WERVEHB.png,,,,,,,,,,,,,,,,,,,,,,
,,,,,,,,,,,,,,,,,199033,18,2022-01-28_16h42.25.140,lexical_decision_task_DD_L5,2021.2.3,Win32,75.00187505,,,,,,,,,,,0.6054,1,,,,,,,,,,,,,,m,1,0.6054,,,,,,,,0.113888889,-0.006481481,0,0,0,,0,154,154,45,1,MONKEY,HB,old,m,./images/MONKEYHB.png,,,,,,,,,,,,,,,,,,,,,,
,,,,,,,,,,,,,,,,,199033,18,2022-01-28_16h42.25.140,lexical_decision_task_DD_L5,2021.2.3,Win32,75.00187505,,,,,,,,,,,0.597,1,,,,,,,,,,,,,,z,1,0.597,,,,,,,,0.113888889,-0.006481481,0,0,0,,0,155,155,132,1,SCIFF,C,old,z,./images/SCIFF.png,,,,,,,,,,,,,,,,,,,,,,
,,,,,,,,,,,,,,,,,199033,18,2022-01-28_16h42.25.140,lexical_decision_task_DD_L5,2021.2.3,Win32,75.00187505,,,,,,,,,,,0.9139,0,,,,,,,,,,,,,,z,0,0.9139,,,,,,,,0.113888889,-0.006481481,0,0,0,,0,156,156,36,1,BOILER,HB,old,m,./images/BOILERHB.png,,,,,,,,,,,,,,,,,,,,,,
,,,,,,,,,,,,,,,,,199033,18,2022-01-28_16h42.25.140,lexical_decision_task_DD_L5,2021.2.3,Win32,75.00187505,,,,,,,,,,,0.8898,1,,,,,,,,,,,,,,z,1,0.8898,,,,,,,,0.113888889,-0.006481481,0,0,0,,0,157,157,133,1,POWDY,HB,old,z,./images/POWDYHB.png,,,,,,,,,,,,,,,,,,,,,,
,,,,,,,,,,,,,,,,,199033,18,2022-01-28_16h42.25.140,lexical_decision_task_DD_L5,2021.2.3,Win32,75.00187505,,,,,,,,,,,0.5875,1,,,,,,,,,,,,,,z,1,0.5875,,,,,,,,0.113888889,-0.006481481,0,0,0,,0,158,158,105,1,MOKER,C,old,z,./images/MOKER.png,,,,,,,,,,,,,,,,,,,,,,
,,,,,,,,,,,,,,,,,199033,18,2022-01-28_16h42.25.140,lexical_decision_task_DD_L5,2021.2.3,Win32,75.00187505,,,,,,,,,,,0.5802,1,,,,,,,,,,,,,,z,1,0.5802,,,,,,,,0.113888889,-0.006481481,0,0,0,,0,159,159,144,1,NAIRY,C,old,z,./images/NAIRY.png,,,,,,,,,,,,,,,,,,,,,,
,,,,,,,,,,,,,,,,,199033,18,2022-01-28_16h42.25.140,lexical_decision_task_DD_L5,2021.2.3,Win32,75.00187505,,,,,,,,,,,0.4754,1,,,,,,,,,,,,,,z,1,0.4754,,,,,,,,0.113888889,-0.006481481,0,0,0,,0,160,160,96,1,KEAMS,C,old,z,./images/KEAMS.png,,,,,,,,,,,,,,,,,,,,,,
,,,,,,,,,,,,,,,,,199033,18,2022-01-28_16h42.25.140,lexical_decision_task_DD_L5,2021.2.3,Win32,75.00187505,,,,,,,,,,,0.571,1,,,,,,,,,,,,,,z,1,0.571,,,,,,,,0.113888889,-0.006481481,0,0,0,,0,161,161,164,1,SGREW,LB,old,z,./images/SGREWLB.png,,,,,,,,,,,,,,,,,,,,,,
,,,,,,,,,,,,,,,,,199033,18,2022-01-28_16h42.25.140,lexical_decision_task_DD_L5,2021.2.3,Win32,75.00187505,,,,,,,,,,,0.5041,1,,,,,,,,,,,,,,m,1,0.5041,,,,,,,,0.113888889,-0.006481481,0,0,0,,0,162,162,37,1,TIGER,LB,old,m,./images/TIGERLB.png,,,,,,,,,,,,,,,,,,,,,,
,,,,,,,,,,,,,,,,,199033,18,2022-01-28_16h42.25.140,lexical_decision_task_DD_L5,2021.2.3,Win32,75.00187505,,,,,,,,,,,0.563,1,,,,,,,,,,,,,,m,1,0.563,,,,,,,,0.113888889,-0.006481481,0,0,0,,0,163,163,17,1,PARADE,C,old,m,./images/PARADE.png,,,,,,,,,,,,,,,,,,,,,,
,,,,,,,,,,,,,,,,,199033,18,2022-01-28_16h42.25.140,lexical_decision_task_DD_L5,2021.2.3,Win32,75.00187505,,,,,,,,,,,0.656,1,,,,,,,,,,,,,,z,1,0.656,,,,,,,,0.113888889,-0.006481481,0,0,0,,0,164,164,145,1,LAMEL,HB,old,z,./images/LAMELHB.png,,,,,,,,,,,,,,,,,,,,,,
,,,,,,,,,,,,,,,,,199033,18,2022-01-28_16h42.25.140,lexical_decision_task_DD_L5,2021.2.3,Win32,75.00187505,,,,,,,,,,,0.4767,1,,,,,,,,,,,,,,m,1,0.4767,,,,,,,,0.113888889,-0.006481481,0,0,0,,0,165,165,31,1,STEAK,LB,old,m,./images/STEAKLB.png,,,,,,,,,,,,,,,,,,,,,,
,,,,,,,,,,,,,,,,,199033,18,2022-01-28_16h42.25.140,lexical_decision_task_DD_L5,2021.2.3,Win32,75.00187505,,,,,,,,,,,0.6315,1,,,,,,,,,,,,,,m,1,0.6315,,,,,,,,0.113888889,-0.006481481,0,0,0,,0,166,166,79,1,RULER,LB,old,m,./images/RULERLB.png,,,,,,,,,,,,,,,,,,,,,,
,,,,,,,,,,,,,,,,,199033,18,2022-01-28_16h42.25.140,lexical_decision_task_DD_L5,2021.2.3,Win32,75.00187505,,,,,,,,,,,0.6393,1,,,,,,,,,,,,,,m,1,0.6393,,,,,,,,0.113888889,-0.006481481,0,0,0,,0,167,167,76,1,MIDGET,LB,old,m,./images/MIDGETLB.png,,,,,,,,,,,,,,,,,,,,,,
space,21.5884,0.113888889,-0.006481481,0,0,0,,,,,,1,test,"In the next phase you will be presented with the words from the the first phase. Your job is to decide whether you remember seeing the word or not. If you remember seeing the word press ""old"" or type ""m"". If you do not remember seeing the word press ""new"" or type ""z"". Please press the space bar or click on continue to begin. ",,,199033,18,2022-01-28_16h42.25.140,lexical_decision_task_DD_L5,2021.2.3,Win32,75.00187505,,,,,,,,,,,,,,,,,,,,,,,,,,,,,,,,,,,,,,,,,,,,,,,,,,,,,0,0,0,0,1,,,,,,,,,,,,,,,,
space,1.0511,0.113888889,-0.006481481,0,0,0,,,,,,1,test,"In the next phase you will be presented with the words from the the first phase. Your job is to decide whether you remember seeing the word or not. If you remember seeing the word press ""old"" or type ""m"". If you do not remember seeing the word press ""new"" or type ""z"". Please press the space bar or click on continue to begin. ",,,199033,18,2022-01-28_16h42.25.140,lexical_decision_task_DD_L5,2021.2.3,Win32,75.00187505,,,,,,,,,,,,,,,,,,,,,,,,,,,,,,,,,,,,,,,,,,,,,,,,,,,,,1,0,1,0,1,,,,,,,,,,,,,,,,
,,0.078703704,-0.368518519,1,0,0,,,,,,1,test,"In the next phase you will be presented with the words from the the first phase. Your job is to decide whether you remember seeing the word or not. If you remember seeing the word press ""old"" or type ""m"". If you do not remember seeing the word press ""new"" or type ""z"". Please press the space bar or click on continue to begin. ",,,199033,18,2022-01-28_16h42.25.140,lexical_decision_task_DD_L5,2021.2.3,Win32,75.00187505,,,,,,,,,,,,,,,,,,,,,,,,,,,,,,,,,,,,,,,,,,,,,,,,,,,,,2,0,2,0,1,instr_done_button,,,,,,,,,,,,,,,
space,0.497,0.087037037,-0.412037037,0,0,0,,,,,,1,test,"In the next phase you will be presented with the words from the the first phase. Your job is to decide whether you remember seeing the word or not. If you remember seeing the word press ""old"" or type ""m"". If you do not remember seeing the word press ""new"" or type ""z"". Please press the space bar or click on continue to begin. ",,,199033,18,2022-01-28_16h42.25.140,lexical_decision_task_DD_L5,2021.2.3,Win32,75.00187505,,,,,,,,,,,,,,,,,,,,,,,,,,,,,,,,,,,,,,,,,,,,,,,,,,,,,3,0,3,0,1,,,,,,,,,,,,,,,,
space,0.9979,0.313888889,-0.211111111,0,0,0,,,,,,1,test,"In the next phase you will be presented with the words from the the first phase. Your job is to decide whether you remember seeing the word or not. If you remember seeing the word press ""old"" or type ""m"". If you do not remember seeing the word press ""new"" or type ""z"". Please press the space bar or click on continue to begin. ",,,199033,18,2022-01-28_16h42.25.140,lexical_decision_task_DD_L5,2021.2.3,Win32,75.00187505,,,,,,,,,,,,,,,,,,,,,,,,,,,,,,,,,,,,,,,,,,,,,,,,,,,,,4,0,4,0,1,,,,,,,,,,,,,,,,
,,,,,,,,,,,,,,,,,199033,18,2022-01-28_16h42.25.140,lexical_decision_task_DD_L5,2021.2.3,Win32,75.00187505,,,,,,,,,,,2.6411,1,,,,,,,,,,,,,,,,,,,,,,,,0.313888889,-0.211111111,0,0,0,,,,,,,BRIDE,LB,m,y,./images/BRIDELB.png,,,,,,,,m,1,2.6411,,,,,,,,0,0,0,64,1
,,,,,,,,,,,,,,,,,199033,18,2022-01-28_16h42.25.140,lexical_decision_task_DD_L5,2021.2.3,Win32,75.00187505,,,,,,,,,,,3.9351,1,,,,,,,,,,,,,,,,,,,,,,,,0.313888889,-0.211111111,0,0,0,,,,,,,PISTOL,C,m,y,./images/PISTOL.png,,,,,,,,m,1,3.9351,,,,,,,,0,1,1,29,1
,,,,,,,,,,,,,,,,,199033,18,2022-01-28_16h42.25.140,lexical_decision_task_DD_L5,2021.2.3,Win32,75.00187505,,,,,,,,,,,2.8936,0,,,,,,,,,,,,,,,,,,,,,,,,0.313888889,-0.211111111,0,0,0,,,,,,,SNAKE,LB,m,y,./images/SNAKELB.png,,,,,,,,z,0,2.8936,,,,,,,,0,2,2,40,1
,,,,,,,,,,,,,,,,,199033,18,2022-01-28_16h42.25.140,lexical_decision_task_DD_L5,2021.2.3,Win32,75.00187505,,,,,,,,,,,1.8801,1,,,,,,,,,,,,,,,,,,,,,,,,0.313888889,-0.211111111,0,0,0,,,,,,,BABOON,LB,z,y,./images/BABOONLB.png,,,,,,,,z,1,1.8801,,,,,,,,0,3,3,142,1
,,,,,,,,,,,,,,,,,199033,18,2022-01-28_16h42.25.140,lexical_decision_task_DD_L5,2021.2.3,Win32,75.00187505,,,,,,,,,,,1.3217,1,,,,,,,,,,,,,,,,,,,,,,,,0.313888889,-0.211111111,0,0,0,,,,,,,MUSCLE,LB,z,y,./images/MUSCLELB.png,,,,,,,,z,1,1.3217,,,,,,,,0,4,4,88,1
,,,,,,,,,,,,,,,,,199033,18,2022-01-28_16h42.25.140,lexical_decision_task_DD_L5,2021.2.3,Win32,75.00187505,,,,,,,,,,,2.1163,1,,,,,,,,,,,,,,,,,,,,,,,,0.313888889,-0.211111111,0,0,0,,,,,,,GRAPE,LB,m,y,./images/GRAPELB.png,,,,,,,,m,1,2.1163,,,,,,,,0,5,5,16,1
,,,,,,,,,,,,,,,,,199033,18,2022-01-28_16h42.25.140,lexical_decision_task_DD_L5,2021.2.3,Win32,75.00187505,,,,,,,,,,,1.0206,1,,,,,,,,,,,,,,,,,,,,,,,,0.313888889,-0.211111111,0,0,0,,,,,,,WRIST,LB,z,y,./images/WRISTLB.png,,,,,,,,z,1,1.0206,,,,,,,,0,6,6,109,1
,,,,,,,,,,,,,,,,,199033,18,2022-01-28_16h42.25.140,lexical_decision_task_DD_L5,2021.2.3,Win32,75.00187505,,,,,,,,,,,1.1532,1,,,,,,,,,,,,,,,,,,,,,,,,0.313888889,-0.211111111,0,0,0,,,,,,,GLOVE,LB,m,y,./images/GLOVELB.png,,,,,,,,m,1,1.1532,,,,,,,,0,7,7,73,1
,,,,,,,,,,,,,,,,,199033,18,2022-01-28_16h42.25.140,lexical_decision_task_DD_L5,2021.2.3,Win32,75.00187505,,,,,,,,,,,2.1866,0,,,,,,,,,,,,,,,,,,,,,,,,0.313888889,-0.211111111,0,0,0,,,,,,,COUCH,C,z,y,./images/COUCH.png,,,,,,,,m,0,2.1866,,,,,,,,0,8,8,161,1
,,,,,,,,,,,,,,,,,199033,18,2022-01-28_16h42.25.140,lexical_decision_task_DD_L5,2021.2.3,Win32,75.00187505,,,,,,,,,,,1.4003,1,,,,,,,,,,,,,,,,,,,,,,,,0.313888889,-0.211111111,0,0,0,,,,,,,LAGOON,C,m,y,./images/LAGOON.png,,,,,,,,m,1,1.4003,,,,,,,,0,9,9,47,1
,,,,,,,,,,,,,,,,,199033,18,2022-01-28_16h42.25.140,lexical_decision_task_DD_L5,2021.2.3,Win32,75.00187505,,,,,,,,,,,1.3142,1,,,,,,,,,,,,,,,,,,,,,,,,0.313888889,-0.211111111,0,0,0,,,,,,,MOSQUE,LB,z,y,./images/MOSQUELB.png,,,,,,,,z,1,1.3142,,,,,,,,0,10,10,127,1
,,,,,,,,,,,,,,,,,199033,18,2022-01-28_16h42.25.140,lexical_decision_task_DD_L5,2021.2.3,Win32,75.00187505,,,,,,,,,,,1.9941,1,,,,,,,,,,,,,,,,,,,,,,,,0.313888889,-0.211111111,0,0,0,,,,,,,CEMENT,C,z,y,./images/CEMENT.png,,,,,,,,z,1,1.9941,,,,,,,,0,11,11,158,1
,,,,,,,,,,,,,,,,,199033,18,2022-01-28_16h42.25.140,lexical_decision_task_DD_L5,2021.2.3,Win32,75.00187505,,,,,,,,,,,2.9296,1,,,,,,,,,,,,,,,,,,,,,,,,0.313888889,-0.211111111,0,0,0,,,,,,,GRAIN,HB,z,y,./images/GRAINHB.png,,,,,,,,z,1,2.9296,,,,,,,,0,12,12,159,1
,,,,,,,,,,,,,,,,,199033,18,2022-01-28_16h42.25.140,lexical_decision_task_DD_L5,2021.2.3,Win32,75.00187505,,,,,,,,,,,1.6998,1,,,,,,,,,,,,,,,,,,,,,,,,0.313888889,-0.211111111,0,0,0,,,,,,,PAINT,LB,z,y,./images/PAINTLB.png,,,,,,,,z,1,1.6998,,,,,,,,0,13,13,91,1
,,,,,,,,,,,,,,,,,199033,18,2022-01-28_16h42.25.140,lexical_decision_task_DD_L5,2021.2.3,Win32,75.00187505,,,,,,,,,,,1.2486,1,,,,,,,,,,,,,,,,,,,,,,,,0.313888889,-0.211111111,0,0,0,,,,,,,CHERRY,HB,m,y,./images/CHERRYHB.png,,,,,,,,m,1,1.2486,,,,,,,,0,14,14,54,1
,,,,,,,,,,,,,,,,,199033,18,2022-01-28_16h42.25.140,lexical_decision_task_DD_L5,2021.2.3,Win32,75.00187505,,,,,,,,,,,2.0187,1,,,,,,,,,,,,,,,,,,,,,,,,0.313888889,-0.211111111,0,0,0,,,,,,,RULER,LB,m,y,./images/RULERLB.png,,,,,,,,m,1,2.0187,,,,,,,,0,15,15,79,1
,,,,,,,,,,,,,,,,,199033,18,2022-01-28_16h42.25.140,lexical_decision_task_DD_L5,2021.2.3,Win32,75.00187505,,,,,,,,,,,1.4075,0,,,,,,,,,,,,,,,,,,,,,,,,0.313888889,-0.211111111,0,0,0,,,,,,,SAILOR,LB,z,y,./images/SAILORLB.png,,,,,,,,m,0,1.4075,,,,,,,,0,16,16,151,1
,,,,,,,,,,,,,,,,,199033,18,2022-01-28_16h42.25.140,lexical_decision_task_DD_L5,2021.2.3,Win32,75.00187505,,,,,,,,,,,1.05,1,,,,,,,,,,,,,,,,,,,,,,,,0.313888889,-0.211111111,0,0,0,,,,,,,VALLEY,C,m,y,./images/VALLEY.png,,,,,,,,m,1,1.05,,,,,,,,0,17,17,68,1
,,,,,,,,,,,,,,,,,199033,18,2022-01-28_16h42.25.140,lexical_decision_task_DD_L5,2021.2.3,Win32,75.00187505,,,,,,,,,,,1.4037,1,,,,,,,,,,,,,,,,,,,,,,,,0.313888889,-0.211111111,0,0,0,,,,,,,SCREW,HB,z,y,./images/SCREWHB.png,,,,,,,,z,1,1.4037,,,,,,,,0,18,18,108,1
,,,,,,,,,,,,,,,,,199033,18,2022-01-28_16h42.25.140,lexical_decision_task_DD_L5,2021.2.3,Win32,75.00187505,,,,,,,,,,,1.0801,1,,,,,,,,,,,,,,,,,,,,,,,,0.313888889,-0.211111111,0,0,0,,,,,,,DONKEY,LB,m,y,./images/DONKEYLB.png,,,,,,,,m,1,1.0801,,,,,,,,0,19,19,19,1
,,,,,,,,,,,,,,,,,199033,18,2022-01-28_16h42.25.140,lexical_decision_task_DD_L5,2021.2.3,Win32,75.00187505,,,,,,,,,,,0.9366,0,,,,,,,,,,,,,,,,,,,,,,,,0.313888889,-0.211111111,0,0,0,,,,,,,LIZARD,C,z,y,./images/LIZARD.png,,,,,,,,m,0,0.9366,,,,,,,,0,20,20,128,1
,,,,,,,,,,,,,,,,,199033,18,2022-01-28_16h42.25.140,lexical_decision_task_DD_L5,2021.2.3,Win32,75.00187505,,,,,,,,,,,0.9818,1,,,,,,,,,,,,,,,,,,,,,,,,0.313888889,-0.211111111,0,0,0,,,,,,,GRANNY,C,m,y,./images/GRANNY.png,,,,,,,,m,1,0.9818,,,,,,,,0,21,21,20,1
,,,,,,,,,,,,,,,,,199033,18,2022-01-28_16h42.25.140,lexical_decision_task_DD_L5,2021.2.3,Win32,75.00187505,,,,,,,,,,,1.0588,0,,,,,,,,,,,,,,,,,,,,,,,,0.313888889,-0.211111111,0,0,0,,,,,,,SHELF,HB,z,y,./images/SHELFHB.png,,,,,,,,m,0,1.0588,,,,,,,,0,22,22,123,1
,,,,,,,,,,,,,,,,,199033,18,2022-01-28_16h42.25.140,lexical_decision_task_DD_L5,2021.2.3,Win32,75.00187505,,,,,,,,,,,1.2239,1,,,,,,,,,,,,,,,,,,,,,,,,0.313888889,-0.211111111,0,0,0,,,,,,,CRUMB,C,z,y,./images/CRUMB.png,,,,,,,,z,1,1.2239,,,,,,,,0,23,23,113,1
,,,,,,,,,,,,,,,,,199033,18,2022-01-28_16h42.25.140,lexical_decision_task_DD_L5,2021.2.3,Win32,75.00187505,,,,,,,,,,,3.4685,0,,,,,,,,,,,,,,,,,,,,,,,,0.313888889,-0.211111111,0,0,0,,,,,,,PENCE,LB,z,y,./images/PENCELB.png,,,,,,,,m,0,3.4685,,,,,,,,0,24,24,100,1
,,,,,,,,,,,,,,,,,199033,18,2022-01-28_16h42.25.140,lexical_decision_task_DD_L5,2021.2.3,Win32,75.00187505,,,,,,,,,,,1.4679,1,,,,,,,,,,,,,,,,,,,,,,,,0.313888889,-0.211111111,0,0,0,,,,,,,BURIAL,C,z,y,./images/BURIAL.png,,,,,,,,z,1,1.4679,,,,,,,,0,25,25,143,1
,,,,,,,,,,,,,,,,,199033,18,2022-01-28_16h42.25.140,lexical_decision_task_DD_L5,2021.2.3,Win32,75.00187505,,,,,,,,,,,0.9337,1,,,,,,,,,,,,,,,,,,,,,,,,0.313888889,-0.211111111,0,0,0,,,,,,,FLESH,HB,m,y,./images/FLESHHB.png,,,,,,,,m,1,0.9337,,,,,,,,0,26,26,24,1
,,,,,,,,,,,,,,,,,199033,18,2022-01-28_16h42.25.140,lexical_decision_task_DD_L5,2021.2.3,Win32,75.00187505,,,,,,,,,,,0.8806,1,,,,,,,,,,,,,,,,,,,,,,,,0.313888889,-0.211111111,0,0,0,,,,,,,SPINE,C,m,y,./images/SPINE.png,,,,,,,,m,1,0.8806,,,,,,,,0,27,27,65,1
,,,,,,,,,,,,,,,,,199033,18,2022-01-28_16h42.25.140,lexical_decision_task_DD_L5,2021.2.3,Win32,75.00187505,,,,,,,,,,,1.1225,1,,,,,,,,,,,,,,,,,,,,,,,,0.313888889,-0.211111111,0,0,0,,,,,,,MAGGOT,HB,z,y,./images/MAGGOTHB.png,,,,,,,,z,1,1.1225,,,,,,,,0,28,28,117,1
,,,,,,,,,,,,,,,,,199033,18,2022-01-28_16h42.25.140,lexical_decision_task_DD_L5,2021.2.3,Win32,75.00187505,,,,,,,,,,,1.4927,1,,,,,,,,,,,,,,,,,,,,,,,,0.313888889,-0.211111111,0,0,0,,,,,,,KIDNEY,HB,z,y,./images/KIDNEYHB.png,,,,,,,,z,1,1.4927,,,,,,,,0,29,29,105,1
,,,,,,,,,,,,,,,,,199033,18,2022-01-28_16h42.25.140,lexical_decision_task_DD_L5,2021.2.3,Win32,75.00187505,,,,,,,,,,,1.8102,1,,,,,,,,,,,,,,,,,,,,,,,,0.313888889,-0.211111111,0,0,0,,,,,,,THROAT,HB,z,y,./images/THROATHB.png,,,,,,,,z,1,1.8102,,,,,,,,0,30,30,120,1
,,,,,,,,,,,,,,,,,199033,18,2022-01-28_16h42.25.140,lexical_decision_task_DD_L5,2021.2.3,Win32,75.00187505,,,,,,,,,,,1.0447,1,,,,,,,,,,,,,,,,,,,,,,,,0.313888889,-0.211111111,0,0,0,,,,,,,MALLET,C,z,y,./images/MALLET.png,,,,,,,,z,1,1.0447,,,,,,,,0,31,31,134,1
,,,,,,,,,,,,,,,,,199033,18,2022-01-28_16h42.25.140,lexical_decision_task_DD_L5,2021.2.3,Win32,75.00187505,,,,,,,,,,,0.6795,1,,,,,,,,,,,,,,,,,,,,,,,,0.313888889,-0.211111111,0,0,0,,,,,,,JELLY,LB,z,y,./images/JELLYLB.png,,,,,,,,z,1,0.6795,,,,,,,,0,32,32,148,1
,,,,,,,,,,,,,,,,,199033,18,2022-01-28_16h42.25.140,lexical_decision_task_DD_L5,2021.2.3,Win32,75.00187505,,,,,,,,,,,0.6169,1,,,,,,,,,,,,,,,,,,,,,,,,0.313888889,-0.211111111,0,0,0,,,,,,,COLLAR,HB,m,y,./images/COLLARHB.png,,,,,,,,m,1,0.6169,,,,,,,,0,33,33,15,1
,,,,,,,,,,,,,,,,,199033,18,2022-01-28_16h42.25.140,lexical_decision_task_DD_L5,2021.2.3,Win32,75.00187505,,,,,,,,,,,0.8219,1,,,,,,,,,,,,,,,,,,,,,,,,0.313888889,-0.211111111,0,0,0,,,,,,,SWEAT,HB,z,y,./images/SWEATHB.png,,,,,,,,z,1,0.8219,,,,,,,,0,34,34,150,1
,,,,,,,,,,,,,,,,,199033,18,2022-01-28_16h42.25.140,lexical_decision_task_DD_L5,2021.2.3,Win32,75.00187505,,,,,,,,,,,0.7788,1,,,,,,,,,,,,,,,,,,,,,,,,0.313888889,-0.211111111,0,0,0,,,,,,,LITTER,HB,z,y,./images/LITTERHB.png,,,,,,,,z,1,0.7788,,,,,,,,0,35,35,162,1
,,,,,,,,,,,,,,,,,199033,18,2022-01-28_16h42.25.140,lexical_decision_task_DD_L5,2021.2.3,Win32,75.00187505,,,,,,,,,,,0.7681,1,,,,,,,,,,,,,,,,,,,,,,,,0.313888889,-0.211111111,0,0,0,,,,,,,TOWEL,LB,m,y,./images/TOWELLB.png,,,,,,,,m,1,0.7681,,,,,,,,0,36,36,1,1
,,,,,,,,,,,,,,,,,199033,18,2022-01-28_16h42.25.140,lexical_decision_task_DD_L5,2021.2.3,Win32,75.00187505,,,,,,,,,,,0.8495,1,,,,,,,,,,,,,,,,,,,,,,,,0.313888889,-0.211111111,0,0,0,,,,,,,SPORT,HB,z,y,./images/SPORTHB.png,,,,,,,,z,1,0.8495,,,,,,,,0,37,37,132,1
,,,,,,,,,,,,,,,,,199033,18,2022-01-28_16h42.25.140,lexical_decision_task_DD_L5,2021.2.3,Win32,75.00187505,,,,,,,,,,,0.8678,1,,,,,,,,,,,,,,,,,,,,,,,,0.313888889,-0.211111111,0,0,0,,,,,,,BIRTH,LB,z,y,./images/BIRTHLB.png,,,,,,,,z,1,0.8678,,,,,,,,0,38,38,121,1
,,,,,,,,,,,,,,,,,199033,18,2022-01-28_16h42.25.140,lexical_decision_task_DD_L5,2021.2.3,Win32,75.00187505,,,,,,,,,,,0.7323,1,,,,,,,,,,,,,,,,,,,,,,,,0.313888889,-0.211111111,0,0,0,,,,,,,CRATER,HB,m,y,./images/CRATERHB.png,,,,,,,,m,1,0.7323,,,,,,,,0,39,39,3,1
,,,,,,,,,,,,,,,,,199033,18,2022-01-28_16h42.25.140,lexical_decision_task_DD_L5,2021.2.3,Win32,75.00187505,,,,,,,,,,,0.6091,1,,,,,,,,,,,,,,,,,,,,,,,,0.313888889,-0.211111111,0,0,0,,,,,,,BROOM,HB,m,y,./images/BROOMHB.png,,,,,,,,m,1,0.6091,,,,,,,,0,40,40,78,1
,,,,,,,,,,,,,,,,,199033,18,2022-01-28_16h42.25.140,lexical_decision_task_DD_L5,2021.2.3,Win32,75.00187505,,,,,,,,,,,0.7081,1,,,,,,,,,,,,,,,,,,,,,,,,0.313888889,-0.211111111,0,0,0,space,,,,,,DRILL,HB,m,y,./images/DRILLHB.png,2.1955,,,,,,,m,1,0.7081,,,,,,,,0,41,41,81,1
,,,,,,,,,,,,,,,,,199033,18,2022-01-28_16h42.25.140,lexical_decision_task_DD_L5,2021.2.3,Win32,75.00187505,,,,,,,,,,,1.4029,1,,,,,,,,,,,,,,,,,,,,,,,,0.313888889,-0.211111111,0,0,0,,,,,,,BAKER,HB,m,y,./images/BAKERHB.png,,,,,,,,m,1,1.4029,,,,,,,,0,42,42,63,1
,,,,,,,,,,,,,,,,,199033,18,2022-01-28_16h42.25.140,lexical_decision_task_DD_L5,2021.2.3,Win32,75.00187505,,,,,,,,,,,1.0612,1,,,,,,,,,,,,,,,,,,,,,,,,0.313888889,-0.211111111,0,0,0,,,,,,,SNACK,LB,z,y,./images/SNACKLB.png,,,,,,,,z,1,1.0612,,,,,,,,0,43,43,157,1
,,,,,,,,,,,,,,,,,199033,18,2022-01-28_16h42.25.140,lexical_decision_task_DD_L5,2021.2.3,Win32,75.00187505,,,,,,,,,,,1.1786,0,,,,,,,,,,,,,,,,,,,,,,,,0.313888889,-0.211111111,0,0,0,,,,,,,SHORE,HB,z,y,./images/SHOREHB.png,,,,,,,,m,0,1.1786,,,,,,,,0,44,44,96,1
,,,,,,,,,,,,,,,,,199033,18,2022-01-28_16h42.25.140,lexical_decision_task_DD_L5,2021.2.3,Win32,75.00187505,,,,,,,,,,,0.855,1,,,,,,,,,,,,,,,,,,,,,,,,0.313888889,-0.211111111,0,0,0,,,,,,,CANOE,LB,m,y,./images/CANOELB.png,,,,,,,,m,1,0.855,,,,,,,,0,45,45,58,1
,,,,,,,,,,,,,,,,,199033,18,2022-01-28_16h42.25.140,lexical_decision_task_DD_L5,2021.2.3,Win32,75.00187505,,,,,,,,,,,0.9649,1,,,,,,,,,,,,,,,,,,,,,,,,0.313888889,-0.211111111,0,0,0,,,,,,,SKIING,C,z,y,./images/SKIING.png,,,,,,,,z,1,0.9649,,,,,,,,0,46,46,101,1
,,,,,,,,,,,,,,,,,199033,18,2022-01-28_16h42.25.140,lexical_decision_task_DD_L5,2021.2.3,Win32,75.00187505,,,,,,,,,,,2.5603,1,,,,,,,,,,,,,,,,,,,,,,,,0.313888889,-0.211111111,0,0,0,,,,,,,CARPET,C,z,y,./images/CARPET.png,,,,,,,,z,1,2.5603,,,,,,,,0,47,47,137,1
,,,,,,,,,,,,,,,,,199033,18,2022-01-28_16h42.25.140,lexical_decision_task_DD_L5,2021.2.3,Win32,75.00187505,,,,,,,,,,,0.6725,0,,,,,,,,,,,,,,,,,,,,,,,,0.313888889,-0.211111111,0,0,0,,,,,,,FARMER,C,z,y,./images/FARMER.png,,,,,,,,m,0,0.6725,,,,,,,,0,48,48,149,1
,,,,,,,,,,,,,,,,,199033,18,2022-01-28_16h42.25.140,lexical_decision_task_DD_L5,2021.2.3,Win32,75.00187505,,,,,,,,,,,1.1363,0,,,,,,,,,,,,,,,,,,,,,,,,0.313888889,-0.211111111,0,0,0,,,,,,,BANNER,LB,z,y,./images/BANNERLB.png,,,,,,,,m,0,1.1363,,,,,,,,0,49,49,136,1
,,,,,,,,,,,,,,,,,199033,18,2022-01-28_16h42.25.140,lexical_decision_task_DD_L5,2021.2.3,Win32,75.00187505,,,,,,,,,,,1.3334,1,,,,,,,,,,,,,,,,,,,,,,,,0.313888889,-0.211111111,0,0,0,,,,,,,BLOKE,HB,m,y,./images/BLOKEHB.png,,,,,,,,m,1,1.3334,,,,,,,,0,50,50,12,1
,,,,,,,,,,,,,,,,,199033,18,2022-01-28_16h42.25.140,lexical_decision_task_DD_L5,2021.2.3,Win32,75.00187505,,,,,,,,,,,0.6419,1,,,,,,,,,,,,,,,,,,,,,,,,0.313888889,-0.211111111,0,0,0,,,,,,,CLOWN,LB,m,y,./images/CLOWNLB.png,,,,,,,,m,1,0.6419,,,,,,,,0,51,51,22,1
,,,,,,,,,,,,,,,,,199033,18,2022-01-28_16h42.25.140,lexical_decision_task_DD_L5,2021.2.3,Win32,75.00187505,,,,,,,,,,,1.2204,0,,,,,,,,,,,,,,,,,,,,,,,,0.313888889,-0.211111111,0,0,0,,,,,,,JUMPER,C,m,y,./images/JUMPER.png,,,,,,,,z,0,1.2204,,,,,,,,0,52,52,74,1
,,,,,,,,,,,,,,,,,199033,18,2022-01-28_16h42.25.140,lexical_decision_task_DD_L5,2021.2.3,Win32,75.00187505,,,,,,,,,,,0.8015,0,,,,,,,,,,,,,,,,,,,,,,,,0.313888889,-0.211111111,0,0,0,,,,,,,CRADLE,C,z,y,./images/CRADLE.png,,,,,,,,m,0,0.8015,,,,,,,,0,53,53,104,1
,,,,,,,,,,,,,,,,,199033,18,2022-01-28_16h42.25.140,lexical_decision_task_DD_L5,2021.2.3,Win32,75.00187505,,,,,,,,,,,0.8677,1,,,,,,,,,,,,,,,,,,,,,,,,0.313888889,-0.211111111,0,0,0,,,,,,,SQUARE,HB,z,y,./images/SQUAREHB.png,,,,,,,,z,1,0.8677,,,,,,,,0,54,54,90,1
,,,,,,,,,,,,,,,,,199033,18,2022-01-28_16h42.25.140,lexical_decision_task_DD_L5,2021.2.3,Win32,75.00187505,,,,,,,,,,,0.9327,1,,,,,,,,,,,,,,,,,,,,,,,,0.313888889,-0.211111111,0,0,0,,,,,,,PACKET,C,z,y,./images/PACKET.png,,,,,,,,z,1,0.9327,,,,,,,,0,55,55,140,1
,,,,,,,,,,,,,,,,,199033,18,2022-01-28_16h42.25.140,lexical_decision_task_DD_L5,2021.2.3,Win32,75.00187505,,,,,,,,,,,0.7202,1,,,,,,,,,,,,,,,,,,,,,,,,0.313888889,-0.211111111,0,0,0,,,,,,,GREASE,HB,z,y,./images/GREASEHB.png,,,,,,,,z,1,0.7202,,,,,,,,0,56,56,99,1
,,,,,,,,,,,,,,,,,199033,18,2022-01-28_16h42.25.140,lexical_decision_task_DD_L5,2021.2.3,Win32,75.00187505,,,,,,,,,,,0.5948,1,,,,,,,,,,,,,,,,,,,,,,,,0.313888889,-0.211111111,0,0,0,,,,,,,TRIPOD,HB,z,y,./images/TRIPODHB.png,,,,,,,,z,1,0.5948,,,,,,,,0,57,57,138,1
,,,,,,,,,,,,,,,,,199033,18,2022-01-28_16h42.25.140,lexical_decision_task_DD_L5,2021.2.3,Win32,75.00187505,,,,,,,,,,,1.1542,1,,,,,,,,,,,,,,,,,,,,,,,,0.313888889,-0.211111111,0,0,0,,,,,,,POSTER,C,m,y,./images/POSTER.png,,,,,,,,m,1,1.1542,,,,,,,,0,58,58,53,1
,,,,,,,,,,,,,,,,,199033,18,2022-01-28_16h42.25.140,lexical_decision_task_DD_L5,2021.2.3,Win32,75.00187505,,,,,,,,,,,0.7707,1,,,,,,,,,,,,,,,,,,,,,,,,0.313888889,-0.211111111,0,0,0,,,,,,,COOKER,HB,z,y,./images/COOKERHB.png,,,,,,,,z,1,0.7707,,,,,,,,0,59,59,153,1
,,,,,,,,,,,,,,,,,199033,18,2022-01-28_16h42.25.140,lexical_decision_task_DD_L5,2021.2.3,Win32,75.00187505,,,,,,,,,,,0.9248,1,,,,,,,,,,,,,,,,,,,,,,,,0.313888889,-0.211111111,0,0,0,,,,,,,SLOPE,HB,m,y,./images/SLOPEHB.png,,,,,,,,m,1,0.9248,,,,,,,,0,60,60,30,1
,,,,,,,,,,,,,,,,,199033,18,2022-01-28_16h42.25.140,lexical_decision_task_DD_L5,2021.2.3,Win32,75.00187505,,,,,,,,,,,1.4867,1,,,,,,,,,,,,,,,,,,,,,,,,0.313888889,-0.211111111,0,0,0,,,,,,,BANANA,LB,m,y,./images/BANANALB.png,,,,,,,,m,1,1.4867,,,,,,,,0,61,61,70,1
,,,,,,,,,,,,,,,,,199033,18,2022-01-28_16h42.25.140,lexical_decision_task_DD_L5,2021.2.3,Win32,75.00187505,,,,,,,,,,,0.9295,1,,,,,,,,,,,,,,,,,,,,,,,,0.313888889,-0.211111111,0,0,0,,,,,,,WEASEL,C,z,y,./images/WEASEL.png,,,,,,,,z,1,0.9295,,,,,,,,0,62,62,164,1
,,,,,,,,,,,,,,,,,199033,18,2022-01-28_16h42.25.140,lexical_decision_task_DD_L5,2021.2.3,Win32,75.00187505,,,,,,,,,,,1.8122,0,,,,,,,,,,,,,,,,,,,,,,,,0.313888889,-0.211111111,0,0,0,,,,,,,BOILER,HB,m,y,./images/BOILERHB.png,,,,,,,,z,0,1.8122,,,,,,,,0,63,63,36,1
,,,,,,,,,,,,,,,,,199033,18,2022-01-28_16h42.25.140,lexical_decision_task_DD_L5,2021.2.3,Win32,75.00187505,,,,,,,,,,,0.7124,1,,,,,,,,,,,,,,,,,,,,,,,,0.313888889,-0.211111111,0,0,0,,,,,,,POODLE,HB,z,y,./images/POODLEHB.png,,,,,,,,z,1,0.7124,,,,,,,,0,64,64,165,1
,,,,,,,,,,,,,,,,,199033,18,2022-01-28_16h42.25.140,lexical_decision_task_DD_L5,2021.2.3,Win32,75.00187505,,,,,,,,,,,0.7682,1,,,,,,,,,,,,,,,,,,,,,,,,0.313888889,-0.211111111,0,0,0,,,,,,,STOOL,LB,m,y,./images/STOOLLB.png,,,,,,,,m,1,0.7682,,,,,,,,0,65,65,43,1
,,,,,,,,,,,,,,,,,199033,18,2022-01-28_16h42.25.140,lexical_decision_task_DD_L5,2021.2.3,Win32,75.00187505,,,,,,,,,,,0.9862,1,,,,,,,,,,,,,,,,,,,,,,,,0.313888889,-0.211111111,0,0,0,,,,,,,DOUGH,LB,z,y,./images/DOUGHLB.png,,,,,,,,z,1,0.9862,,,,,,,,0,66,66,103,1
,,,,,,,,,,,,,,,,,199033,18,2022-01-28_16h42.25.140,lexical_decision_task_DD_L5,2021.2.3,Win32,75.00187505,,,,,,,,,,,0.7379,1,,,,,,,,,,,,,,,,,,,,,,,,0.313888889,-0.211111111,0,0,0,,,,,,,FOLDER,HB,z,y,./images/FOLDERHB.png,,,,,,,,z,1,0.7379,,,,,,,,0,67,67,126,1
,,,,,,,,,,,,,,,,,199033,18,2022-01-28_16h42.25.140,lexical_decision_task_DD_L5,2021.2.3,Win32,75.00187505,,,,,,,,,,,0.7348,1,,,,,,,,,,,,,,,,,,,,,,,,0.313888889,-0.211111111,0,0,0,,,,,,,BEARD,C,z,y,./images/BEARD.png,,,,,,,,z,1,0.7348,,,,,,,,0,68,68,86,1
,,,,,,,,,,,,,,,,,199033,18,2022-01-28_16h42.25.140,lexical_decision_task_DD_L5,2021.2.3,Win32,75.00187505,,,,,,,,,,,0.6601,1,,,,,,,,,,,,,,,,,,,,,,,,0.313888889,-0.211111111,0,0,0,,,,,,,WALNUT,HB,m,y,./images/WALNUTHB.png,,,,,,,,m,1,0.6601,,,,,,,,0,69,69,0,1
,,,,,,,,,,,,,,,,,199033,18,2022-01-28_16h42.25.140,lexical_decision_task_DD_L5,2021.2.3,Win32,75.00187505,,,,,,,,,,,0.7868,1,,,,,,,,,,,,,,,,,,,,,,,,0.313888889,-0.211111111,0,0,0,,,,,,,CLIFF,C,m,y,./images/CLIFF.png,,,,,,,,m,1,0.7868,,,,,,,,0,70,70,8,1
,,,,,,,,,,,,,,,,,199033,18,2022-01-28_16h42.25.140,lexical_decision_task_DD_L5,2021.2.3,Win32,75.00187505,,,,,,,,,,,0.6666,1,,,,,,,,,,,,,,,,,,,,,,,,0.313888889,-0.211111111,0,0,0,,,,,,,STORM,HB,z,y,./images/STORMHB.png,,,,,,,,z,1,0.6666,,,,,,,,0,71,71,114,1
,,,,,,,,,,,,,,,,,199033,18,2022-01-28_16h42.25.140,lexical_decision_task_DD_L5,2021.2.3,Win32,75.00187505,,,,,,,,,,,1.1366,1,,,,,,,,,,,,,,,,,,,,,,,,0.313888889,-0.211111111,0,0,0,,,,,,,BARREL,C,z,y,./images/BARREL.png,,,,,,,,z,1,1.1366,,,,,,,,0,72,72,116,1
,,,,,,,,,,,,,,,,,199033,18,2022-01-28_16h42.25.140,lexical_decision_task_DD_L5,2021.2.3,Win32,75.00187505,,,,,,,,,,,0.6928,1,,,,,,,,,,,,,,,,,,,,,,,,0.313888889,-0.211111111,0,0,0,,,,,,,SAUNA,HB,m,y,./images/SAUNAHB.png,,,,,,,,m,1,0.6928,,,,,,,,0,73,73,33,1
,,,,,,,,,,,,,,,,,199033,18,2022-01-28_16h42.25.140,lexical_decision_task_DD_L5,2021.2.3,Win32,75.00187505,,,,,,,,,,,0.5624,0,,,,,,,,,,,,,,,,,,,,,,,,0.313888889,-0.211111111,0,0,0,,,,,,,STRING,C,z,y,./images/STRING.png,,,,,,,,m,0,0.5624,,,,,,,,0,74,74,125,1
,,,,,,,,,,,,,,,,,199033,18,2022-01-28_16h42.25.140,lexical_decision_task_DD_L5,2021.2.3,Win32,75.00187505,,,,,,,,,,,0.6928,1,,,,,,,,,,,,,,,,,,,,,,,,0.313888889,-0.211111111,0,0,0,,,,,,,MIRROR,HB,z,y,./images/MIRRORHB.png,,,,,,,,z,1,0.6928,,,,,,,,0,75,75,147,1
,,,,,,,,,,,,,,,,,199033,18,2022-01-28_16h42.25.140,lexical_decision_task_DD_L5,2021.2.3,Win32,75.00187505,,,,,,,,,,,0.65,1,,,,,,,,,,,,,,,,,,,,,,,,0.313888889,-0.211111111,0,0,0,,,,,,,BASKET,C,m,y,./images/BASKET.png,,,,,,,,m,1,0.65,,,,,,,,0,76,76,44,1
,,,,,,,,,,,,,,,,,199033,18,2022-01-28_16h42.25.140,lexical_decision_task_DD_L5,2021.2.3,Win32,75.00187505,,,,,,,,,,,0.7642,0,,,,,,,,,,,,,,,,,,,,,,,,0.313888889,-0.211111111,0,0,0,,,,,,,PLANET,C,m,y,./images/PLANET.png,,,,,,,,z,0,0.7642,,,,,,,,0,77,77,80,1
,,,,,,,,,,,,,,,,,199033,18,2022-01-28_16h42.25.140,lexical_decision_task_DD_L5,2021.2.3,Win32,75.00187505,,,,,,,,,,,1.2624,0,,,,,,,,,,,,,,,,,,,,,,,,0.313888889,-0.211111111,0,0,0,,,,,,,DANCER,HB,m,y,./images/DANCERHB.png,,,,,,,,z,0,1.2624,,,,,,,,0,78,78,21,1
,,,,,,,,,,,,,,,,,199033,18,2022-01-28_16h42.25.140,lexical_decision_task_DD_L5,2021.2.3,Win32,75.00187505,,,,,,,,,,,0.6432,1,,,,,,,,,,,,,,,,,,,,,,,,0.313888889,-0.211111111,0,0,0,,,,,,,MUMMY,LB,m,y,./images/MUMMYLB.png,,,,,,,,m,1,0.6432,,,,,,,,0,79,79,46,1
,,,,,,,,,,,,,,,,,199033,18,2022-01-28_16h42.25.140,lexical_decision_task_DD_L5,2021.2.3,Win32,75.00187505,,,,,,,,,,,0.6397,1,,,,,,,,,,,,,,,,,,,,,,,,0.313888889,-0.211111111,0,0,0,,,,,,,BISHOP,LB,m,y,./images/BISHOPLB.png,,,,,,,,m,1,0.6397,,,,,,,,0,80,80,49,1
,,,,,,,,,,,,,,,,,199033,18,2022-01-28_16h42.25.140,lexical_decision_task_DD_L5,2021.2.3,Win32,75.00187505,,,,,,,,,,,0.9522,0,,,,,,,,,,,,,,,,,,,,,,,,0.313888889,-0.211111111,0,0,0,,,,,,,STATUE,HB,m,y,./images/STATUEHB.png,,,,,,,,z,0,0.9522,,,,,,,,0,81,81,66,1
,,,,,,,,,,,,,,,,,199033,18,2022-01-28_16h42.25.140,lexical_decision_task_DD_L5,2021.2.3,Win32,75.00187505,,,,,,,,,,,0.784,1,,,,,,,,,,,,,,,,,,,,,,,,0.313888889,-0.211111111,0,0,0,,,,,,,CHAIN,HB,m,y,./images/CHAINHB.png,,,,,,,,m,1,0.784,,,,,,,,0,82,82,42,1
,,,,,,,,,,,,,,,,,199033,18,2022-01-28_16h42.25.140,lexical_decision_task_DD_L5,2021.2.3,Win32,75.00187505,,,,,,,,,,,0.7967,1,,,,,,,,,,,,,,,,,,,,,,,,0.313888889,-0.211111111,0,0,0,space,,,,,,CANDLE,LB,z,y,./images/CANDLELB.png,0.7963,,,,,,,z,1,0.7967,,,,,,,,0,83,83,145,1
,,,,,,,,,,,,,,,,,199033,18,2022-01-28_16h42.25.140,lexical_decision_task_DD_L5,2021.2.3,Win32,75.00187505,,,,,,,,,,,1.6608,1,,,,,,,,,,,,,,,,,,,,,,,,0.313888889,-0.211111111,0,0,0,,,,,,,BUTTER,HB,m,y,./images/BUTTERHB.png,,,,,,,,m,1,1.6608,,,,,,,,0,84,84,27,1
,,,,,,,,,,,,,,,,,199033,18,2022-01-28_16h42.25.140,lexical_decision_task_DD_L5,2021.2.3,Win32,75.00187505,,,,,,,,,,,1.1291,1,,,,,,,,,,,,,,,,,,,,,,,,0.313888889,-0.211111111,0,0,0,,,,,,,WHISKY,C,m,y,./images/WHISKY.png,,,,,,,,m,1,1.1291,,,,,,,,0,85,85,83,1
,,,,,,,,,,,,,,,,,199033,18,2022-01-28_16h42.25.140,lexical_decision_task_DD_L5,2021.2.3,Win32,75.00187505,,,,,,,,,,,0.5795,1,,,,,,,,,,,,,,,,,,,,,,,,0.313888889,-0.211111111,0,0,0,,,,,,,TOMATO,HB,z,y,./images/TOMATOHB.png,,,,,,,,z,1,0.5795,,,,,,,,0,86,86,84,1
,,,,,,,,,,,,,,,,,199033,18,2022-01-28_16h42.25.140,lexical_decision_task_DD_L5,2021.2.3,Win32,75.00187505,,,,,,,,,,,0.8084,1,,,,,,,,,,,,,,,,,,,,,,,,0.313888889,-0.211111111,0,0,0,,,,,,,BAMBOO,C,m,y,./images/BAMBOO.png,,,,,,,,m,1,0.8084,,,,,,,,0,87,87,5,1
,,,,,,,,,,,,,,,,,199033,18,2022-01-28_16h42.25.140,lexical_decision_task_DD_L5,2021.2.3,Win32,75.00187505,,,,,,,,,,,0.8121,1,,,,,,,,,,,,,,,,,,,,,,,,0.313888889,-0.211111111,0,0,0,,,,,,,PURSE,C,z,y,./images/PURSE.png,,,,,,,,z,1,0.8121,,,,,,,,0,88,88,146,1
,,,,,,,,,,,,,,,,,199033,18,2022-01-28_16h42.25.140,lexical_decision_task_DD_L5,2021.2.3,Win32,75.00187505,,,,,,,,,,,0.704,1,,,,,,,,,,,,,,,,,,,,,,,,0.313888889,-0.211111111,0,0,0,,,,,,,CHALK,LB,m,y,./images/CHALKLB.png,,,,,,,,m,1,0.704,,,,,,,,0,89,89,25,1
,,,,,,,,,,,,,,,,,199033,18,2022-01-28_16h42.25.140,lexical_decision_task_DD_L5,2021.2.3,Win32,75.00187505,,,,,,,,,,,0.7576,1,,,,,,,,,,,,,,,,,,,,,,,,0.313888889,-0.211111111,0,0,0,,,,,,,PIMPLE,C,z,y,./images/PIMPLE.png,,,,,,,,z,1,0.7576,,,,,,,,0,90,90,155,1
,,,,,,,,,,,,,,,,,199033,18,2022-01-28_16h42.25.140,lexical_decision_task_DD_L5,2021.2.3,Win32,75.00187505,,,,,,,,,,,0.7721,1,,,,,,,,,,,,,,,,,,,,,,,,0.313888889,-0.211111111,0,0,0,,,,,,,JUNGLE,C,z,y,./images/JUNGLE.png,,,,,,,,z,1,0.7721,,,,,,,,0,91,91,167,1
,,,,,,,,,,,,,,,,,199033,18,2022-01-28_16h42.25.140,lexical_decision_task_DD_L5,2021.2.3,Win32,75.00187505,,,,,,,,,,,0.6494,1,,,,,,,,,,,,,,,,,,,,,,,,0.313888889,-0.211111111,0,0,0,,,,,,,MIDGET,LB,m,y,./images/MIDGETLB.png,,,,,,,,m,1,0.6494,,,,,,,,0,92,92,76,1
,,,,,,,,,,,,,,,,,199033,18,2022-01-28_16h42.25.140,lexical_decision_task_DD_L5,2021.2.3,Win32,75.00187505,,,,,,,,,,,0.6608,1,,,,,,,,,,,,,,,,,,,,,,,,0.313888889,-0.211111111,0,0,0,,,,,,,SMOKER,C,z,y,./images/SMOKER.png,,,,,,,,z,1,0.6608,,,,,,,,0,93,93,110,1
,,,,,,,,,,,,,,,,,199033,18,2022-01-28_16h42.25.140,lexical_decision_task_DD_L5,2021.2.3,Win32,75.00187505,,,,,,,,,,,0.8491,1,,,,,,,,,,,,,,,,,,,,,,,,0.313888889,-0.211111111,0,0,0,,,,,,,HEATER,C,m,y,./images/HEATER.png,,,,,,,,m,1,0.8491,,,,,,,,0,94,94,56,1
,,,,,,,,,,,,,,,,,199033,18,2022-01-28_16h42.25.140,lexical_decision_task_DD_L5,2021.2.3,Win32,75.00187505,,,,,,,,,,,0.7796,0,,,,,,,,,,,,,,,,,,,,,,,,0.313888889,-0.211111111,0,0,0,,,,,,,POKER,LB,m,y,./images/POKERLB.png,,,,,,,,z,0,0.7796,,,,,,,,0,95,95,67,1
,,,,,,,,,,,,,,,,,199033,18,2022-01-28_16h42.25.140,lexical_decision_task_DD_L5,2021.2.3,Win32,75.00187505,,,,,,,,,,,0.6164,1,,,,,,,,,,,,,,,,,,,,,,,,0.313888889,-0.211111111,0,0,0,,,,,,,MELON,LB,z,y,./images/MELONLB.png,,,,,,,,z,1,0.6164,,,,,,,,0,96,96,106,1
,,,,,,,,,,,,,,,,,199033,18,2022-01-28_16h42.25.140,lexical_decision_task_DD_L5,2021.2.3,Win32,75.00187505,,,,,,,,,,,2.1258,0,,,,,,,,,,,,,,,,,,,,,,,,0.313888889,-0.211111111,0,0,0,,,,,,,STREAM,C,m,y,./images/STREAM.png,,,,,,,,z,0,2.1258,,,,,,,,0,97,97,41,1
,,,,,,,,,,,,,,,,,199033,18,2022-01-28_16h42.25.140,lexical_decision_task_DD_L5,2021.2.3,Win32,75.00187505,,,,,,,,,,,2.3838,1,,,,,,,,,,,,,,,,,,,,,,,,0.313888889,-0.211111111,0,0,0,,,,,,,HAMMER,HB,m,y,./images/HAMMERHB.png,,,,,,,,m,1,2.3838,,,,,,,,0,98,98,75,1
,,,,,,,,,,,,,,,,,199033,18,2022-01-28_16h42.25.140,lexical_decision_task_DD_L5,2021.2.3,Win32,75.00187505,,,,,,,,,,,2.421,1,,,,,,,,,,,,,,,,,,,,,,,,0.313888889,-0.211111111,0,0,0,,,,,,,LLAMA,C,m,y,./images/LLAMA.png,,,,,,,,m,1,2.421,,,,,,,,0,99,99,35,1
,,,,,,,,,,,,,,,,,199033,18,2022-01-28_16h42.25.140,lexical_decision_task_DD_L5,2021.2.3,Win32,75.00187505,,,,,,,,,,,0.9525,1,,,,,,,,,,,,,,,,,,,,,,,,0.313888889,-0.211111111,0,0,0,,,,,,,CLOTH,C,m,y,./images/CLOTH.png,,,,,,,,m,1,0.9525,,,,,,,,0,100,100,23,1
,,,,,,,,,,,,,,,,,199033,18,2022-01-28_16h42.25.140,lexical_decision_task_DD_L5,2021.2.3,Win32,75.00187505,,,,,,,,,,,0.6568,1,,,,,,,,,,,,,,,,,,,,,,,,0.313888889,-0.211111111,0,0,0,,,,,,,MONKEY,HB,m,y,./images/MONKEYHB.png,,,,,,,,m,1,0.6568,,,,,,,,0,101,101,45,1
,,,,,,,,,,,,,,,,,199033,18,2022-01-28_16h42.25.140,lexical_decision_task_DD_L5,2021.2.3,Win32,75.00187505,,,,,,,,,,,0.8541,1,,,,,,,,,,,,,,,,,,,,,,,,0.313888889,-0.211111111,0,0,0,,,,,,,PEBBLE,LB,m,y,./images/PEBBLELB.png,,,,,,,,m,1,0.8541,,,,,,,,0,102,102,82,1
,,,,,,,,,,,,,,,,,199033,18,2022-01-28_16h42.25.140,lexical_decision_task_DD_L5,2021.2.3,Win32,75.00187505,,,,,,,,,,,1.5951,1,,,,,,,,,,,,,,,,,,,,,,,,0.313888889,-0.211111111,0,0,0,,,,,,,ARROW,HB,m,y,./images/ARROWHB.png,,,,,,,,m,1,1.5951,,,,,,,,0,103,103,69,1
,,,,,,,,,,,,,,,,,199033,18,2022-01-28_16h42.25.140,lexical_decision_task_DD_L5,2021.2.3,Win32,75.00187505,,,,,,,,,,,1.2425,0,,,,,,,,,,,,,,,,,,,,,,,,0.313888889,-0.211111111,0,0,0,,,,,,,LADDER,C,z,y,./images/LADDER.png,,,,,,,,m,0,1.2425,,,,,,,,0,104,104,122,1
,,,,,,,,,,,,,,,,,199033,18,2022-01-28_16h42.25.140,lexical_decision_task_DD_L5,2021.2.3,Win32,75.00187505,,,,,,,,,,,0.9403,0,,,,,,,,,,,,,,,,,,,,,,,,0.313888889,-0.211111111,0,0,0,,,,,,,ARTIST,LB,m,y,./images/ARTISTLB.png,,,,,,,,z,0,0.9403,,,,,,,,0,105,105,61,1
,,,,,,,,,,,,,,,,,199033,18,2022-01-28_16h42.25.140,lexical_decision_task_DD_L5,2021.2.3,Win32,75.00187505,,,,,,,,,,,0.6416,1,,,,,,,,,,,,,,,,,,,,,,,,0.313888889,-0.211111111,0,0,0,,,,,,,PILOT,C,m,y,./images/PILOT.png,,,,,,,,m,1,0.6416,,,,,,,,0,106,106,50,1
,,,,,,,,,,,,,,,,,199033,18,2022-01-28_16h42.25.140,lexical_decision_task_DD_L5,2021.2.3,Win32,75.00187505,,,,,,,,,,,0.7157,1,,,,,,,,,,,,,,,,,,,,,,,,0.313888889,-0.211111111,0,0,0,,,,,,,KITTEN,HB,z,y,./images/KITTENHB.png,,,,,,,,z,1,0.7157,,,,,,,,0,107,107,129,1
,,,,,,,,,,,,,,,,,199033,18,2022-01-28_16h42.25.140,lexical_decision_task_DD_L5,2021.2.3,Win32,75.00187505,,,,,,,,,,,0.6933,0,,,,,,,,,,,,,,,,,,,,,,,,0.313888889,-0.211111111,0,0,0,,,,,,,DIVER,HB,m,y,./images/DIVERHB.png,,,,,,,,z,0,0.6933,,,,,,,,0,108,108,9,1
,,,,,,,,,,,,,,,,,199033,18,2022-01-28_16h42.25.140,lexical_decision_task_DD_L5,2021.2.3,Win32,75.00187505,,,,,,,,,,,1.2005,1,,,,,,,,,,,,,,,,,,,,,,,,0.313888889,-0.211111111,0,0,0,,,,,,,WALRUS,C,z,y,./images/WALRUS.png,,,,,,,,z,1,1.2005,,,,,,,,0,109,109,107,1
,,,,,,,,,,,,,,,,,199033,18,2022-01-28_16h42.25.140,lexical_decision_task_DD_L5,2021.2.3,Win32,75.00187505,,,,,,,,,,,0.7148,1,,,,,,,,,,,,,,,,,,,,,,,,0.313888889,-0.211111111,0,0,0,,,,,,,FLASK,HB,m,y,./images/FLASKHB.png,,,,,,,,m,1,0.7148,,,,,,,,0,110,110,72,1
,,,,,,,,,,,,,,,,,199033,18,2022-01-28_16h42.25.140,lexical_decision_task_DD_L5,2021.2.3,Win32,75.00187505,,,,,,,,,,,0.7547,1,,,,,,,,,,,,,,,,,,,,,,,,0.313888889,-0.211111111,0,0,0,,,,,,,ONION,HB,z,y,./images/ONIONHB.png,,,,,,,,z,1,0.7547,,,,,,,,0,111,111,135,1
,,,,,,,,,,,,,,,,,199033,18,2022-01-28_16h42.25.140,lexical_decision_task_DD_L5,2021.2.3,Win32,75.00187505,,,,,,,,,,,0.7382,1,,,,,,,,,,,,,,,,,,,,,,,,0.313888889,-0.211111111,0,0,0,,,,,,,STOVE,C,m,y,./images/STOVE.png,,,,,,,,m,1,0.7382,,,,,,,,0,112,112,2,1
,,,,,,,,,,,,,,,,,199033,18,2022-01-28_16h42.25.140,lexical_decision_task_DD_L5,2021.2.3,Win32,75.00187505,,,,,,,,,,,0.7356,1,,,,,,,,,,,,,,,,,,,,,,,,0.313888889,-0.211111111,0,0,0,,,,,,,BOXER,LB,m,y,./images/BOXERLB.png,,,,,,,,m,1,0.7356,,,,,,,,0,113,113,4,1
,,,,,,,,,,,,,,,,,199033,18,2022-01-28_16h42.25.140,lexical_decision_task_DD_L5,2021.2.3,Win32,75.00187505,,,,,,,,,,,0.7004,1,,,,,,,,,,,,,,,,,,,,,,,,0.313888889,-0.211111111,0,0,0,,,,,,,MEDAL,C,m,y,./images/MEDAL.png,,,,,,,,m,1,0.7004,,,,,,,,0,114,114,11,1
,,,,,,,,,,,,,,,,,199033,18,2022-01-28_16h42.25.140,lexical_decision_task_DD_L5,2021.2.3,Win32,75.00187505,,,,,,,,,,,0.6411,0,,,,,,,,,,,,,,,,,,,,,,,,0.313888889,-0.211111111,0,0,0,,,,,,,STAIN,HB,m,y,./images/STAINHB.png,,,,,,,,z,0,0.6411,,,,,,,,0,115,115,6,1
,,,,,,,,,,,,,,,,,199033,18,2022-01-28_16h42.25.140,lexical_decision_task_DD_L5,2021.2.3,Win32,75.00187505,,,,,,,,,,,1.0685,1,,,,,,,,,,,,,,,,,,,,,,,,0.313888889,-0.211111111,0,0,0,,,,,,,SHIELD,HB,m,y,./images/SHIELDHB.png,,,,,,,,m,1,1.0685,,,,,,,,0,116,116,48,1
,,,,,,,,,,,,,,,,,199033,18,2022-01-28_16h42.25.140,lexical_decision_task_DD_L5,2021.2.3,Win32,75.00187505,,,,,,,,,,,0.8934,1,,,,,,,,,,,,,,,,,,,,,,,,0.313888889,-0.211111111,0,0,0,,,,,,,QUILL,LB,z,y,./images/QUILLLB.png,,,,,,,,z,1,0.8934,,,,,,,,0,117,117,115,1
,,,,,,,,,,,,,,,,,199033,18,2022-01-28_16h42.25.140,lexical_decision_task_DD_L5,2021.2.3,Win32,75.00187505,,,,,,,,,,,0.6325,1,,,,,,,,,,,,,,,,,,,,,,,,0.313888889,-0.211111111,0,0,0,,,,,,,HOCKEY,C,m,y,./images/HOCKEY.png,,,,,,,,m,1,0.6325,,,,,,,,0,118,118,32,1
,,,,,,,,,,,,,,,,,199033,18,2022-01-28_16h42.25.140,lexical_decision_task_DD_L5,2021.2.3,Win32,75.00187505,,,,,,,,,,,0.6884,1,,,,,,,,,,,,,,,,,,,,,,,,0.313888889,-0.211111111,0,0,0,,,,,,,RHINO,HB,z,y,./images/RHINOHB.png,,,,,,,,z,1,0.6884,,,,,,,,0,119,119,93,1
,,,,,,,,,,,,,,,,,199033,18,2022-01-28_16h42.25.140,lexical_decision_task_DD_L5,2021.2.3,Win32,75.00187505,,,,,,,,,,,0.7861,1,,,,,,,,,,,,,,,,,,,,,,,,0.313888889,-0.211111111,0,0,0,,,,,,,PLANK,LB,z,y,./images/PLANKLB.png,,,,,,,,z,1,0.7861,,,,,,,,0,120,120,85,1
,,,,,,,,,,,,,,,,,199033,18,2022-01-28_16h42.25.140,lexical_decision_task_DD_L5,2021.2.3,Win32,75.00187505,,,,,,,,,,,0.674,1,,,,,,,,,,,,,,,,,,,,,,,,0.313888889,-0.211111111,0,0,0,,,,,,,PICKLE,C,z,y,./images/PICKLE.png,,,,,,,,z,1,0.674,,,,,,,,0,121,121,98,1
,,,,,,,,,,,,,,,,,199033,18,2022-01-28_16h42.25.140,lexical_decision_task_DD_L5,2021.2.3,Win32,75.00187505,,,,,,,,,,,0.8499,0,,,,,,,,,,,,,,,,,,,,,,,,0.313888889,-0.211111111,0,0,0,,,,,,,MAMMAL,C,m,y,./images/MAMMAL.png,,,,,,,,z,0,0.8499,,,,,,,,0,122,122,62,1
,,,,,,,,,,,,,,,,,199033,18,2022-01-28_16h42.25.140,lexical_decision_task_DD_L5,2021.2.3,Win32,75.00187505,,,,,,,,,,,1.9646,1,,,,,,,,,,,,,,,,,,,,,,,,0.313888889,-0.211111111,0,0,0,,,,,,,PEACH,C,z,y,./images/PEACH.png,,,,,,,,z,1,1.9646,,,,,,,,0,123,123,119,1
,,,,,,,,,,,,,,,,,199033,18,2022-01-28_16h42.25.140,lexical_decision_task_DD_L5,2021.2.3,Win32,75.00187505,,,,,,,,,,,0.7823,1,,,,,,,,,,,,,,,,,,,,,,,,0.313888889,-0.211111111,0,0,0,,,,,,,PARCEL,HB,m,y,./images/PARCELHB.png,,,,,,,,m,1,0.7823,,,,,,,,0,124,124,18,1
,,,,,,,,,,,,,,,,,199033,18,2022-01-28_16h42.25.140,lexical_decision_task_DD_L5,2021.2.3,Win32,75.00187505,,,,,,,,,,,0.7733,0,,,,,,,,,,,,,,,,,,,,,,,,0.313888889,-0.211111111,0,0,0,space,,,,,,MOTOR,LB,z,y,./images/MOTORLB.png,1.1356,,,,,,,m,0,0.7733,,,,,,,,0,125,125,97,1
,,,,,,,,,,,,,,,,,199033,18,2022-01-28_16h42.25.140,lexical_decision_task_DD_L5,2021.2.3,Win32,75.00187505,,,,,,,,,,,0.8056,1,,,,,,,,,,,,,,,,,,,,,,,,0.313888889,-0.211111111,0,0,0,,,,,,,FENCE,C,m,y,./images/FENCE.png,,,,,,,,m,1,0.8056,,,,,,,,0,126,126,14,1
,,,,,,,,,,,,,,,,,199033,18,2022-01-28_16h42.25.140,lexical_decision_task_DD_L5,2021.2.3,Win32,75.00187505,,,,,,,,,,,1.376,1,,,,,,,,,,,,,,,,,,,,,,,,0.313888889,-0.211111111,0,0,0,,,,,,,ENGINE,C,m,y,./images/ENGINE.png,,,,,,,,m,1,1.376,,,,,,,,0,127,127,38,1
,,,,,,,,,,,,,,,,,199033,18,2022-01-28_16h42.25.140,lexical_decision_task_DD_L5,2021.2.3,Win32,75.00187505,,,,,,,,,,,1.0851,1,,,,,,,,,,,,,,,,,,,,,,,,0.313888889,-0.211111111,0,0,0,,,,,,,CANYON,LB,z,y,./images/CANYONLB.png,,,,,,,,z,1,1.0851,,,,,,,,0,128,128,118,1
,,,,,,,,,,,,,,,,,199033,18,2022-01-28_16h42.25.140,lexical_decision_task_DD_L5,2021.2.3,Win32,75.00187505,,,,,,,,,,,2.8471,0,,,,,,,,,,,,,,,,,,,,,,,,0.313888889,-0.211111111,0,0,0,,,,,,,SWING,LB,z,y,./images/SWINGLB.png,,,,,,,,m,0,2.8471,,,,,,,,0,129,129,124,1
,,,,,,,,,,,,,,,,,199033,18,2022-01-28_16h42.25.140,lexical_decision_task_DD_L5,2021.2.3,Win32,75.00187505,,,,,,,,,,,0.6412,1,,,,,,,,,,,,,,,,,,,,,,,,0.313888889,-0.211111111,0,0,0,,,,,,,SUNSET,LB,z,y,./images/SUNSETLB.png,,,,,,,,z,1,0.6412,,,,,,,,0,130,130,166,1
,,,,,,,,,,,,,,,,,199033,18,2022-01-28_16h42.25.140,lexical_decision_task_DD_L5,2021.2.3,Win32,75.00187505,,,,,,,,,,,0.6276,0,,,,,,,,,,,,,,,,,,,,,,,,0.313888889,-0.211111111,0,0,0,,,,,,,CLOUD,C,m,y,./images/CLOUD.png,,,,,,,,z,0,0.6276,,,,,,,,0,131,131,26,1
,,,,,,,,,,,,,,,,,199033,18,2022-01-28_16h42.25.140,lexical_decision_task_DD_L5,2021.2.3,Win32,75.00187505,,,,,,,,,,,0.5951,1,,,,,,,,,,,,,,,,,,,,,,,,0.313888889,-0.211111111,0,0,0,,,,,,,FALCON,LB,z,y,./images/FALCONLB.png,,,,,,,,z,1,0.5951,,,,,,,,0,132,132,112,1
,,,,,,,,,,,,,,,,,199033,18,2022-01-28_16h42.25.140,lexical_decision_task_DD_L5,2021.2.3,Win32,75.00187505,,,,,,,,,,,0.6355,1,,,,,,,,,,,,,,,,,,,,,,,,0.313888889,-0.211111111,0,0,0,,,,,,,ATTIC,HB,z,y,./images/ATTICHB.png,,,,,,,,z,1,0.6355,,,,,,,,0,133,133,111,1
,,,,,,,,,,,,,,,,,199033,18,2022-01-28_16h42.25.140,lexical_decision_task_DD_L5,2021.2.3,Win32,75.00187505,,,,,,,,,,,0.6664,1,,,,,,,,,,,,,,,,,,,,,,,,0.313888889,-0.211111111,0,0,0,,,,,,,INFANT,LB,z,y,./images/INFANTLB.png,,,,,,,,z,1,0.6664,,,,,,,,0,134,134,160,1
,,,,,,,,,,,,,,,,,199033,18,2022-01-28_16h42.25.140,lexical_decision_task_DD_L5,2021.2.3,Win32,75.00187505,,,,,,,,,,,0.6257,1,,,,,,,,,,,,,,,,,,,,,,,,0.313888889,-0.211111111,0,0,0,,,,,,,TWINS,HB,z,y,./images/TWINSHB.png,,,,,,,,z,1,0.6257,,,,,,,,0,135,135,144,1
,,,,,,,,,,,,,,,,,199033,18,2022-01-28_16h42.25.140,lexical_decision_task_DD_L5,2021.2.3,Win32,75.00187505,,,,,,,,,,,0.6185,1,,,,,,,,,,,,,,,,,,,,,,,,0.313888889,-0.211111111,0,0,0,,,,,,,PEARL,LB,z,y,./images/PEARLLB.png,,,,,,,,z,1,0.6185,,,,,,,,0,136,136,130,1
,,,,,,,,,,,,,,,,,199033,18,2022-01-28_16h42.25.140,lexical_decision_task_DD_L5,2021.2.3,Win32,75.00187505,,,,,,,,,,,0.6392,0,,,,,,,,,,,,,,,,,,,,,,,,0.313888889,-0.211111111,0,0,0,,,,,,,SAUCE,HB,m,y,./images/SAUCEHB.png,,,,,,,,z,0,0.6392,,,,,,,,0,137,137,51,1
,,,,,,,,,,,,,,,,,199033,18,2022-01-28_16h42.25.140,lexical_decision_task_DD_L5,2021.2.3,Win32,75.00187505,,,,,,,,,,,0.7213,1,,,,,,,,,,,,,,,,,,,,,,,,0.313888889,-0.211111111,0,0,0,,,,,,,DESERT,LB,m,y,./images/DESERTLB.png,,,,,,,,m,1,0.7213,,,,,,,,0,138,138,52,1
,,,,,,,,,,,,,,,,,199033,18,2022-01-28_16h42.25.140,lexical_decision_task_DD_L5,2021.2.3,Win32,75.00187505,,,,,,,,,,,0.5719,1,,,,,,,,,,,,,,,,,,,,,,,,0.313888889,-0.211111111,0,0,0,,,,,,,DRUMS,LB,z,y,./images/DRUMSLB.png,,,,,,,,z,1,0.5719,,,,,,,,0,139,139,133,1
,,,,,,,,,,,,,,,,,199033,18,2022-01-28_16h42.25.140,lexical_decision_task_DD_L5,2021.2.3,Win32,75.00187505,,,,,,,,,,,0.6666,1,,,,,,,,,,,,,,,,,,,,,,,,0.313888889,-0.211111111,0,0,0,,,,,,,ALLEY,LB,m,y,./images/ALLEYLB.png,,,,,,,,m,1,0.6666,,,,,,,,0,140,140,55,1
,,,,,,,,,,,,,,,,,199033,18,2022-01-28_16h42.25.140,lexical_decision_task_DD_L5,2021.2.3,Win32,75.00187505,,,,,,,,,,,0.6165,1,,,,,,,,,,,,,,,,,,,,,,,,0.313888889,-0.211111111,0,0,0,,,,,,,NOOSE,HB,z,y,./images/NOOSEHB.png,,,,,,,,z,1,0.6165,,,,,,,,0,141,141,156,1
,,,,,,,,,,,,,,,,,199033,18,2022-01-28_16h42.25.140,lexical_decision_task_DD_L5,2021.2.3,Win32,75.00187505,,,,,,,,,,,0.8456,1,,,,,,,,,,,,,,,,,,,,,,,,0.313888889,-0.211111111,0,0,0,,,,,,,BUBBLE,C,m,y,./images/BUBBLE.png,,,,,,,,m,1,0.8456,,,,,,,,0,142,142,71,1
,,,,,,,,,,,,,,,,,199033,18,2022-01-28_16h42.25.140,lexical_decision_task_DD_L5,2021.2.3,Win32,75.00187505,,,,,,,,,,,0.8719,1,,,,,,,,,,,,,,,,,,,,,,,,0.313888889,-0.211111111,0,0,0,,,,,,,TORCH,C,z,y,./images/TORCH.png,,,,,,,,z,1,0.8719,,,,,,,,0,143,143,152,1
,,,,,,,,,,,,,,,,,199033,18,2022-01-28_16h42.25.140,lexical_decision_task_DD_L5,2021.2.3,Win32,75.00187505,,,,,,,,,,,0.6871,1,,,,,,,,,,,,,,,,,,,,,,,,0.313888889,-0.211111111,0,0,0,,,,,,,BRUSH,C,m,y,./images/BRUSH.png,,,,,,,,m,1,0.6871,,,,,,,,0,144,144,59,1
,,,,,,,,,,,,,,,,,199033,18,2022-01-28_16h42.25.140,lexical_decision_task_DD_L5,2021.2.3,Win32,75.00187505,,,,,,,,,,,0.8822,1,,,,,,,,,,,,,,,,,,,,,,,,0.313888889,-0.211111111,0,0,0,,,,,,,FERRY,HB,m,y,./images/FERRYHB.png,,,,,,,,m,1,0.8822,,,,,,,,0,145,145,57,1
,,,,,,,,,,,,,,,,,199033,18,2022-01-28_16h42.25.140,lexical_decision_task_DD_L5,2021.2.3,Win32,75.00187505,,,,,,,,,,,0.9719,1,,,,,,,,,,,,,,,,,,,,,,,,0.313888889,-0.211111111,0,0,0,,,,,,,PARADE,C,m,y,./images/PARADE.png,,,,,,,,m,1,0.9719,,,,,,,,0,146,146,17,1
,,,,,,,,,,,,,,,,,199033,18,2022-01-28_16h42.25.140,lexical_decision_task_DD_L5,2021.2.3,Win32,75.00187505,,,,,,,,,,,1.033,0,,,,,,,,,,,,,,,,,,,,,,,,0.313888889,-0.211111111,0,0,0,,,,,,,CANDY,HB,m,y,./images/CANDYHB.png,,,,,,,,z,0,1.033,,,,,,,,0,147,147,39,1
,,,,,,,,,,,,,,,,,199033,18,2022-01-28_16h42.25.140,lexical_decision_task_DD_L5,2021.2.3,Win32,75.00187505,,,,,,,,,,,0.753,1,,,,,,,,,,,,,,,,,,,,,,,,0.313888889,-0.211111111,0,0,0,,,,,,,WHEEL,C,m,y,./images/WHEEL.png,,,,,,,,m,1,0.753,,,,,,,,0,148,148,77,1
,,,,,,,,,,,,,,,,,199033,18,2022-01-28_16h42.25.140,lexical_decision_task_DD_L5,2021.2.3,Win32,75.00187505,,,,,,,,,,,1.2086,1,,,,,,,,,,,,,,,,,,,,,,,,0.313888889,-0.211111111,0,0,0,,,,,,,MUFFIN,LB,z,y,./images/MUFFINLB.png,,,,,,,,z,1,1.2086,,,,,,,,0,149,149,139,1
,,,,,,,,,,,,,,,,,199033,18,2022-01-28_16h42.25.140,lexical_decision_task_DD_L5,2021.2.3,Win32,75.00187505,,,,,,,,,,,0.5793,1,,,,,,,,,,,,,,,,,,,,,,,,0.313888889,-0.211111111,0,0,0,,,,,,,FINGER,HB,z,y,./images/FINGERHB.png,,,,,,,,z,1,0.5793,,,,,,,,0,150,150,87,1
,,,,,,,,,,,,,,,,,199033,18,2022-01-28_16h42.25.140,lexical_decision_task_DD_L5,2021.2.3,Win32,75.00187505,,,,,,,,,,,0.6641,1,,,,,,,,,,,,,,,,,,,,,,,,0.313888889,-0.211111111,0,0,0,,,,,,,TULIP,C,z,y,./images/TULIP.png,,,,,,,,z,1,0.6641,,,,,,,,0,151,151,92,1
,,,,,,,,,,,,,,,,,199033,18,2022-01-28_16h42.25.140,lexical_decision_task_DD_L5,2021.2.3,Win32,75.00187505,,,,,,,,,,,0.5807,1,,,,,,,,,,,,,,,,,,,,,,,,0.313888889,-0.211111111,0,0,0,,,,,,,PASTA,C,z,y,./images/PASTA.png,,,,,,,,z,1,0.5807,,,,,,,,0,152,152,89,1
,,,,,,,,,,,,,,,,,199033,18,2022-01-28_16h42.25.140,lexical_decision_task_DD_L5,2021.2.3,Win32,75.00187505,,,,,,,,,,,0.8586,1,,,,,,,,,,,,,,,,,,,,,,,,0.313888889,-0.211111111,0,0,0,,,,,,,MOOSE,HB,z,y,./images/MOOSEHB.png,,,,,,,,z,1,0.8586,,,,,,,,0,153,153,141,1
,,,,,,,,,,,,,,,,,199033,18,2022-01-28_16h42.25.140,lexical_decision_task_DD_L5,2021.2.3,Win32,75.00187505,,,,,,,,,,,0.5829,1,,,,,,,,,,,,,,,,,,,,,,,,0.313888889,-0.211111111,0,0,0,,,,,,,URINE,LB,z,y,./images/URINELB.png,,,,,,,,z,1,0.5829,,,,,,,,0,154,154,154,1
,,,,,,,,,,,,,,,,,199033,18,2022-01-28_16h42.25.140,lexical_decision_task_DD_L5,2021.2.3,Win32,75.00187505,,,,,,,,,,,0.6521,0,,,,,,,,,,,,,,,,,,,,,,,,0.313888889,-0.211111111,0,0,0,,,,,,,CASINO,LB,m,y,./images/CASINOLB.png,,,,,,,,z,0,0.6521,,,,,,,,0,155,155,28,1
,,,,,,,,,,,,,,,,,199033,18,2022-01-28_16h42.25.140,lexical_decision_task_DD_L5,2021.2.3,Win32,75.00187505,,,,,,,,,,,0.5691,1,,,,,,,,,,,,,,,,,,,,,,,,0.313888889,-0.211111111,0,0,0,,,,,,,BUNNY,LB,m,y,./images/BUNNYLB.png,,,,,,,,m,1,0.5691,,,,,,,,0,156,156,13,1
,,,,,,,,,,,,,,,,,199033,18,2022-01-28_16h42.25.140,lexical_decision_task_DD_L5,2021.2.3,Win32,75.00187505,,,,,,,,,,,0.6435,1,,,,,,,,,,,,,,,,,,,,,,,,0.313888889,-0.211111111,0,0,0,,,,,,,BELLY,LB,z,y,./images/BELLYLB.png,,,,,,,,z,1,0.6435,,,,,,,,0,157,157,94,1
,,,,,,,,,,,,,,,,,199033,18,2022-01-28_16h42.25.140,lexical_decision_task_DD_L5,2021.2.3,Win32,75.00187505,,,,,,,,,,,0.662,0,,,,,,,,,,,,,,,,,,,,,,,,0.313888889,-0.211111111,0,0,0,,,,,,,GARDEN,LB,m,y,./images/GARDENLB.png,,,,,,,,z,0,0.662,,,,,,,,0,158,158,10,1
,,,,,,,,,,,,,,,,,199033,18,2022-01-28_16h42.25.140,lexical_decision_task_DD_L5,2021.2.3,Win32,75.00187505,,,,,,,,,,,0.763,0,,,,,,,,,,,,,,,,,,,,,,,,0.313888889,-0.211111111,0,0,0,,,,,,,TIGER,LB,m,y,./images/TIGERLB.png,,,,,,,,z,0,0.763,,,,,,,,0,159,159,37,1
,,,,,,,,,,,,,,,,,199033,18,2022-01-28_16h42.25.140,lexical_decision_task_DD_L5,2021.2.3,Win32,75.00187505,,,,,,,,,,,0.5652,1,,,,,,,,,,,,,,,,,,,,,,,,0.313888889,-0.211111111,0,0,0,,,,,,,JAGUAR,HB,z,y,./images/JAGUARHB.png,,,,,,,,z,1,0.5652,,,,,,,,0,160,160,102,1
,,,,,,,,,,,,,,,,,199033,18,2022-01-28_16h42.25.140,lexical_decision_task_DD_L5,2021.2.3,Win32,75.00187505,,,,,,,,,,,1.0398,0,,,,,,,,,,,,,,,,,,,,,,,,0.313888889,-0.211111111,0,0,0,,,,,,,BERRY,C,z,y,./images/BERRY.png,,,,,,,,m,0,1.0398,,,,,,,,0,161,161,131,1
,,,,,,,,,,,,,,,,,199033,18,2022-01-28_16h42.25.140,lexical_decision_task_DD_L5,2021.2.3,Win32,75.00187505,,,,,,,,,,,1.0501,1,,,,,,,,,,,,,,,,,,,,,,,,0.313888889,-0.211111111,0,0,0,,,,,,,STEAK,LB,m,y,./images/STEAKLB.png,,,,,,,,m,1,1.0501,,,,,,,,0,162,162,31,1
,,,,,,,,,,,,,,,,,199033,18,2022-01-28_16h42.25.140,lexical_decision_task_DD_L5,2021.2.3,Win32,75.00187505,,,,,,,,,,,0.6286,1,,,,,,,,,,,,,,,,,,,,,,,,0.313888889,-0.211111111,0,0,0,,,,,,,CRUST,LB,z,y,./images/CRUSTLB.png,,,,,,,,z,1,0.6286,,,,,,,,0,163,163,163,1
,,,,,,,,,,,,,,,,,199033,18,2022-01-28_16h42.25.140,lexical_decision_task_DD_L5,2021.2.3,Win32,75.00187505,,,,,,,,,,,1.1478,1,,,,,,,,,,,,,,,,,,,,,,,,0.313888889,-0.211111111,0,0,0,,,,,,,WAGON,LB,m,y,./images/WAGONLB.png,,,,,,,,m,1,1.1478,,,,,,,,0,164,164,7,1
,,,,,,,,,,,,,,,,,199033,18,2022-01-28_16h42.25.140,lexical_decision_task_DD_L5,2021.2.3,Win32,75.00187505,,,,,,,,,,,0.6676,1,,,,,,,,,,,,,,,,,,,,,,,,0.313888889,-0.211111111,0,0,0,,,,,,,BONNET,C,z,y,./images/BONNET.png,,,,,,,,z,1,0.6676,,,,,,,,0,165,165,95,1
,,,,,,,,,,,,,,,,,199033,18,2022-01-28_16h42.25.140,lexical_decision_task_DD_L5,2021.2.3,Win32,75.00187505,,,,,,,,,,,0.8533,1,,,,,,,,,,,,,,,,,,,,,,,,0.313888889,-0.211111111,0,0,0,,,,,,,RAZOR,LB,m,y,./images/RAZORLB.png,,,,,,,,m,1,0.8533,,,,,,,,0,166,166,34,1
,,,,,,,,,,,,,,,,,199033,18,2022-01-28_16h42.25.140,lexical_decision_task_DD_L5,2021.2.3,Win32,75.00187505,,,,,,,,,,,0.9468,1,,,,,,,,,,,,,,,,,,,,,,,,0.313888889,-0.211111111,0,0,0,,,,,,,CURRY,HB,m,y,./images/CURRYHB.png,,,,,,,,m,1,0.9468,,,,,,,,0,167,167,60,1
