key_resp.keys,key_resp.rt,instr_done_touch.x,instr_done_touch.y,instr_done_touch.leftButton,instr_done_touch.midButton,instr_done_touch.rightButton,instruction_pages.thisRepN,instruction_pages.thisTrialN,instruction_pages.thisN,instruction_pages.thisIndex,instruction_pages.ran,pageN,phase,instruct_text,has_image,instruct_image,participant,age,date,expName,psychopyVersion,OS,frameRate,response.keys,response.corr,response.rt,touch_resp.x,touch_resp.y,touch_resp.leftButton,touch_resp.midButton,touch_resp.rightButton,touch_resp.time,touch_resp.clicked_name,rt,corr,practrials.thisRepN,practrials.thisTrialN,practrials.thisN,practrials.thisIndex,practrials.ran,TrialID,Target,corrAns,end_of_practice_trials_pages.thisRepN,end_of_practice_trials_pages.thisTrialN,end_of_practice_trials_pages.thisN,end_of_practice_trials_pages.thisIndex,end_of_practice_trials_pages.ran,key_resp_2.keys,key_resp_2.corr,key_resp_2.rt,targ_click.x,targ_click.y,targ_click.leftButton,targ_click.midButton,targ_click.rightButton,targ_click.time,targ_click.clicked_name,break_done_touch.x,break_done_touch.y,break_done_touch.leftButton,break_done_touch.midButton,break_done_touch.rightButton,break_done_keyboard.keys,maintrials.thisRepN,maintrials.thisTrialN,maintrials.thisN,maintrials.thisIndex,maintrials.ran,string,blur,study,lex,stim_path,break_done_keyboard.rt,test_instructions.thisRepN,test_instructions.thisTrialN,test_instructions.thisN,test_instructions.thisIndex,test_instructions.ran,instr_done_touch.clicked_name,key_resp_3.keys,key_resp_3.corr,key_resp_3.rt,test_click.x,test_click.y,test_click.leftButton,test_click.midButton,test_click.rightButton,test_click.time,test_click.clicked_name,test_phase.thisRepN,test_phase.thisTrialN,test_phase.thisN,test_phase.thisIndex,test_phase.ran
space,31.8559,0.288693576,-0.086775174,0,0,0,0,0,0,0,1,1,instructions,"INSTRUCTIONS
At the start of each trial, look at the plus sign  (+) in the center of the screen.  This tells you that a trial is about to begin and where to look. Second, the plus sign will disappear and a string of letters will appear. Your task is to determine if the string of letters is a word or not. If the item is a word press the M key (on keyboard)  or touch the word button (phone/tablet).  If the item is not a word,  press the  Z key (on keyboard)  or touch the nonword button (on phone/tablet). 
Press the space bar or touch  continue.",0,,199060,18,2022-01-28_17h31.32.433,lexical_decision_task_DD,2021.2.3,MacIntel,60.0024001,,,,,,,,,,,,,,,,,,,,,,,,,,,,,,,,,,,,,,,,,,,,,,,,,,,,,,,,,,,,,,,,,,,,,,,,,
space,4.3338,0.288693576,-0.086775174,0,0,0,0,1,1,1,1,2,instructions,"If your device has a keyboard, press the 'Z' key for nonwords and the 'M' key for words.





Press the space bar or touch the button below to continue.",0,keyboard-example.gif,199060,18,2022-01-28_17h31.32.433,lexical_decision_task_DD,2021.2.3,MacIntel,60.0024001,,,,,,,,,,,,,,,,,,,,,,,,,,,,,,,,,,,,,,,,,,,,,,,,,,,,,,,,,,,,,,,,,,,,,,,,,
space,4.6979,0.288693576,-0.086775174,0,0,0,0,2,2,2,1,3,instructions,"If you are using a touchscreen only device, use the buttons on the screen. Do not use the mouse.





Press the space bar or touch the button below to continue.",0,touchscreen-example.gif,199060,18,2022-01-28_17h31.32.433,lexical_decision_task_DD,2021.2.3,MacIntel,60.0024001,,,,,,,,,,,,,,,,,,,,,,,,,,,,,,,,,,,,,,,,,,,,,,,,,,,,,,,,,,,,,,,,,,,,,,,,,
space,12.3342,0.288693576,-0.086775174,0,0,0,0,3,3,3,1,4,instructions,"It is very important that you respond as quickly and accurately as possible, as each letter string will only be on the screen for two seconds. If you do not respond within this time, the message 'Too slow!' will be displayed and the experiment will progress to the next letter string. The first 20 trials will be practice trials and you will receive feedback on your answers. 

Press the space bar or touch the button below to start the practice trials.",0,,199060,18,2022-01-28_17h31.32.433,lexical_decision_task_DD,2021.2.3,MacIntel,60.0024001,,,,,,,,,,,,,,,,,,,,,,,,,,,,,,,,,,,,,,,,,,,,,,,,,,,,,,,,,,,,,,,,,,,,,,,,,
,,,,,,,,,,,,,,,,,199060,18,2022-01-28_17h31.32.433,lexical_decision_task_DD,2021.2.3,MacIntel,60.0024001,m,1,3.0569,,,,,,,,3.0569,1,0,0,0,0,1,1001,UTOPIA,m,,,,,,,,,,,,,,,,,,,,,,,,,,,,,,,,,,,,,,,,,,,,,,,,,,,,,
,,,,,,,,,,,,,,,,,199060,18,2022-01-28_17h31.32.433,lexical_decision_task_DD,2021.2.3,MacIntel,60.0024001,m,1,1.706,,,,,,,,1.706,1,0,1,1,7,1,1001,VOLUME,m,,,,,,,,,,,,,,,,,,,,,,,,,,,,,,,,,,,,,,,,,,,,,,,,,,,,,
,,,,,,,,,,,,,,,,,199060,18,2022-01-28_17h31.32.433,lexical_decision_task_DD,2021.2.3,MacIntel,60.0024001,z,1,1.5946,,,,,,,,1.5946,1,0,2,2,14,1,1001,THRALE,z,,,,,,,,,,,,,,,,,,,,,,,,,,,,,,,,,,,,,,,,,,,,,,,,,,,,,
,,,,,,,,,,,,,,,,,199060,18,2022-01-28_17h31.32.433,lexical_decision_task_DD,2021.2.3,MacIntel,60.0024001,z,1,1.3816,,,,,,,,1.3816,1,0,3,3,13,1,1001,ROUPET,z,,,,,,,,,,,,,,,,,,,,,,,,,,,,,,,,,,,,,,,,,,,,,,,,,,,,,
,,,,,,,,,,,,,,,,,199060,18,2022-01-28_17h31.32.433,lexical_decision_task_DD,2021.2.3,MacIntel,60.0024001,z,1,2.1417,,,,,,,,2.1417,1,0,4,4,12,1,1001,SPRINY,z,,,,,,,,,,,,,,,,,,,,,,,,,,,,,,,,,,,,,,,,,,,,,,,,,,,,,
,,,,,,,,,,,,,,,,,199060,18,2022-01-28_17h31.32.433,lexical_decision_task_DD,2021.2.3,MacIntel,60.0024001,m,1,1.5769,,,,,,,,1.5769,1,0,5,5,1,1,1001,ADJUST,m,,,,,,,,,,,,,,,,,,,,,,,,,,,,,,,,,,,,,,,,,,,,,,,,,,,,,
,,,,,,,,,,,,,,,,,199060,18,2022-01-28_17h31.32.433,lexical_decision_task_DD,2021.2.3,MacIntel,60.0024001,m,1,1.6217,,,,,,,,1.6217,1,0,6,6,2,1,1001,ALMOND,m,,,,,,,,,,,,,,,,,,,,,,,,,,,,,,,,,,,,,,,,,,,,,,,,,,,,,
,,,,,,,,,,,,,,,,,199060,18,2022-01-28_17h31.32.433,lexical_decision_task_DD,2021.2.3,MacIntel,60.0024001,z,1,1.6686,,,,,,,,1.6686,1,0,7,7,8,1,1001,ASLERT,z,,,,,,,,,,,,,,,,,,,,,,,,,,,,,,,,,,,,,,,,,,,,,,,,,,,,,
,,,,,,,,,,,,,,,,,199060,18,2022-01-28_17h31.32.433,lexical_decision_task_DD,2021.2.3,MacIntel,60.0024001,z,1,0.9875,,,,,,,,0.9875,1,0,8,8,15,1,1001,WHAISE,z,,,,,,,,,,,,,,,,,,,,,,,,,,,,,,,,,,,,,,,,,,,,,,,,,,,,,
,,,,,,,,,,,,,,,,,199060,18,2022-01-28_17h31.32.433,lexical_decision_task_DD,2021.2.3,MacIntel,60.0024001,m,1,1.4842,,,,,,,,1.4842,1,0,9,9,4,1,1001,SQUEAK,m,,,,,,,,,,,,,,,,,,,,,,,,,,,,,,,,,,,,,,,,,,,,,,,,,,,,,
,,,,,,,,,,,,,,,,,199060,18,2022-01-28_17h31.32.433,lexical_decision_task_DD,2021.2.3,MacIntel,60.0024001,m,1,1.2661,,,,,,,,1.2661,1,0,10,10,5,1,1001,OBTAIN,m,,,,,,,,,,,,,,,,,,,,,,,,,,,,,,,,,,,,,,,,,,,,,,,,,,,,,
,,,,,,,,,,,,,,,,,199060,18,2022-01-28_17h31.32.433,lexical_decision_task_DD,2021.2.3,MacIntel,60.0024001,z,1,1.4977,,,,,,,,1.4977,1,0,11,11,10,1,1001,INLADE,z,,,,,,,,,,,,,,,,,,,,,,,,,,,,,,,,,,,,,,,,,,,,,,,,,,,,,
,,,,,,,,,,,,,,,,,199060,18,2022-01-28_17h31.32.433,lexical_decision_task_DD,2021.2.3,MacIntel,60.0024001,m,1,1.3333,,,,,,,,1.3333,1,0,12,12,6,1,1001,ZOMBIE,m,,,,,,,,,,,,,,,,,,,,,,,,,,,,,,,,,,,,,,,,,,,,,,,,,,,,,
,,,,,,,,,,,,,,,,,199060,18,2022-01-28_17h31.32.433,lexical_decision_task_DD,2021.2.3,MacIntel,60.0024001,z,1,1.4678,,,,,,,,1.4678,1,0,13,13,11,1,1001,RASHET,z,,,,,,,,,,,,,,,,,,,,,,,,,,,,,,,,,,,,,,,,,,,,,,,,,,,,,
,,,,,,,,,,,,,,,,,199060,18,2022-01-28_17h31.32.433,lexical_decision_task_DD,2021.2.3,MacIntel,60.0024001,m,1,1.5868,,,,,,,,1.5868,1,0,14,14,3,1,1001,MATRIX,m,,,,,,,,,,,,,,,,,,,,,,,,,,,,,,,,,,,,,,,,,,,,,,,,,,,,,
,,,,,,,,,,,,,,,,,199060,18,2022-01-28_17h31.32.433,lexical_decision_task_DD,2021.2.3,MacIntel,60.0024001,z,1,1.5901,,,,,,,,1.5901,1,0,15,15,9,1,1001,FARINY,z,,,,,,,,,,,,,,,,,,,,,,,,,,,,,,,,,,,,,,,,,,,,,,,,,,,,,
space,16.5655,0.119700521,-0.390642361,0,0,0,,,,,,1,end_of_practice,"You have completed the practice trials. During the experimental trials, you will not receive feedback. 
Before you begin, please ensure that you are in a comfortable and quiet location and will not be disturbed for about 15 minutes, as we cannot use your data if you do not complete all the trials. 
 When you are ready to start the experimental trials, please press space or touch the button below.",,,199060,18,2022-01-28_17h31.32.433,lexical_decision_task_DD,2021.2.3,MacIntel,60.0024001,,,,,,,,,,,,,,,,,,,,,0,0,0,0,1,,,,,,,,,,,,,,,,,,,,,,,,,,,,,,,,,,,,,,,,,,,,,,,,
,,,,,,,,,,,,,,,,,199060,18,2022-01-28_17h31.32.433,lexical_decision_task_DD,2021.2.3,MacIntel,60.0024001,,,,,,,,,,,2.2067,1,,,,,,,,,,,,,,m,1,2.2067,,,,,,,,0.119700521,-0.390642361,0,0,0,,0,0,0,75,1,GRAIN,C,old,m,./images/GRAIN.png,,,,,,,,,,,,,,,,,,,,,,
,,,,,,,,,,,,,,,,,199060,18,2022-01-28_17h31.32.433,lexical_decision_task_DD,2021.2.3,MacIntel,60.0024001,,,,,,,,,,,1.0268,1,,,,,,,,,,,,,,m,1,1.0268,,,,,,,,0.119700521,-0.390642361,0,0,0,,0,1,1,9,1,RHINO,C,old,m,./images/RHINO.png,,,,,,,,,,,,,,,,,,,,,,
,,,,,,,,,,,,,,,,,199060,18,2022-01-28_17h31.32.433,lexical_decision_task_DD,2021.2.3,MacIntel,60.0024001,,,,,,,,,,,0.6772,1,,,,,,,,,,,,,,m,1,0.6772,,,,,,,,0.119700521,-0.390642361,0,0,0,,0,2,2,30,1,STORM,C,old,m,./images/STORM.png,,,,,,,,,,,,,,,,,,,,,,
,,,,,,,,,,,,,,,,,199060,18,2022-01-28_17h31.32.433,lexical_decision_task_DD,2021.2.3,MacIntel,60.0024001,,,,,,,,,,,2.6548,1,,,,,,,,,,,,,,m,1,2.6548,,,,,,,,0.119700521,-0.390642361,0,0,0,,0,3,3,61,1,CANDLE,HB,old,m,./images/CANDLEHB.png,,,,,,,,,,,,,,,,,,,,,,
,,,,,,,,,,,,,,,,,199060,18,2022-01-28_17h31.32.433,lexical_decision_task_DD,2021.2.3,MacIntel,60.0024001,,,,,,,,,,,1.9278,1,,,,,,,,,,,,,,z,1,1.9278,,,,,,,,0.119700521,-0.390642361,0,0,0,,0,4,4,88,1,GLUSH,HB,old,z,./images/GLUSHHB.png,,,,,,,,,,,,,,,,,,,,,,
,,,,,,,,,,,,,,,,,199060,18,2022-01-28_17h31.32.433,lexical_decision_task_DD,2021.2.3,MacIntel,60.0024001,,,,,,,,,,,2.3475,1,,,,,,,,,,,,,,z,1,2.3475,,,,,,,,0.119700521,-0.390642361,0,0,0,,0,5,5,139,1,BLEAR,HB,old,z,./images/BLEARHB.png,,,,,,,,,,,,,,,,,,,,,,
,,,,,,,,,,,,,,,,,199060,18,2022-01-28_17h31.32.433,lexical_decision_task_DD,2021.2.3,MacIntel,60.0024001,,,,,,,,,,,1.7855,1,,,,,,,,,,,,,,z,1,1.7855,,,,,,,,0.119700521,-0.390642361,0,0,0,,0,6,6,159,1,CUDDY,C,old,z,./images/CUDDY.png,,,,,,,,,,,,,,,,,,,,,,
,,,,,,,,,,,,,,,,,199060,18,2022-01-28_17h31.32.433,lexical_decision_task_DD,2021.2.3,MacIntel,60.0024001,,,,,,,,,,,1.4503,1,,,,,,,,,,,,,,z,1,1.4503,,,,,,,,0.119700521,-0.390642361,0,0,0,,0,7,7,86,1,AIFED,LB,old,z,./images/AIFEDLB.png,,,,,,,,,,,,,,,,,,,,,,
,,,,,,,,,,,,,,,,,199060,18,2022-01-28_17h31.32.433,lexical_decision_task_DD,2021.2.3,MacIntel,60.0024001,,,,,,,,,,,1.1742,1,,,,,,,,,,,,,,z,1,1.1742,,,,,,,,0.119700521,-0.390642361,0,0,0,,0,8,8,140,1,DOVET,LB,old,z,./images/DOVETLB.png,,,,,,,,,,,,,,,,,,,,,,
,,,,,,,,,,,,,,,,,199060,18,2022-01-28_17h31.32.433,lexical_decision_task_DD,2021.2.3,MacIntel,60.0024001,,,,,,,,,,,1.3716,1,,,,,,,,,,,,,,m,1,1.3716,,,,,,,,0.119700521,-0.390642361,0,0,0,,0,9,9,74,1,CEMENT,LB,old,m,./images/CEMENTLB.png,,,,,,,,,,,,,,,,,,,,,,
,,,,,,,,,,,,,,,,,199060,18,2022-01-28_17h31.32.433,lexical_decision_task_DD,2021.2.3,MacIntel,60.0024001,,,,,,,,,,,3.365,1,,,,,,,,,,,,,,m,1,3.365,,,,,,,,0.119700521,-0.390642361,0,0,0,,0,10,10,7,1,PAINT,HB,old,m,./images/PAINTHB.png,,,,,,,,,,,,,,,,,,,,,,
,,,,,,,,,,,,,,,,,199060,18,2022-01-28_17h31.32.433,lexical_decision_task_DD,2021.2.3,MacIntel,60.0024001,,,,,,,,,,,1.2849,1,,,,,,,,,,,,,,m,1,1.2849,,,,,,,,0.119700521,-0.390642361,0,0,0,,0,11,11,38,1,LADDER,LB,old,m,./images/LADDERLB.png,,,,,,,,,,,,,,,,,,,,,,
,,,,,,,,,,,,,,,,,199060,18,2022-01-28_17h31.32.433,lexical_decision_task_DD,2021.2.3,MacIntel,60.0024001,,,,,,,,,,,1.2315,1,,,,,,,,,,,,,,m,1,1.2315,,,,,,,,0.119700521,-0.390642361,0,0,0,,0,12,12,55,1,MUFFIN,HB,old,m,./images/MUFFINHB.png,,,,,,,,,,,,,,,,,,,,,,
,,,,,,,,,,,,,,,,,199060,18,2022-01-28_17h31.32.433,lexical_decision_task_DD,2021.2.3,MacIntel,60.0024001,,,,,,,,,,,2.9827,1,,,,,,,,,,,,,,z,1,2.9827,,,,,,,,0.119700521,-0.390642361,0,0,0,,0,13,13,154,1,THINT,HB,old,z,./images/THINTHB.png,,,,,,,,,,,,,,,,,,,,,,
,,,,,,,,,,,,,,,,,199060,18,2022-01-28_17h31.32.433,lexical_decision_task_DD,2021.2.3,MacIntel,60.0024001,,,,,,,,,,,1.4618,1,,,,,,,,,,,,,,z,1,1.4618,,,,,,,,0.119700521,-0.390642361,0,0,0,,0,14,14,165,1,TROWN,C,old,z,./images/TROWN.png,,,,,,,,,,,,,,,,,,,,,,
,,,,,,,,,,,,,,,,,199060,18,2022-01-28_17h31.32.433,lexical_decision_task_DD,2021.2.3,MacIntel,60.0024001,,,,,,,,,,,1.817,1,,,,,,,,,,,,,,m,1,1.817,,,,,,,,0.119700521,-0.390642361,0,0,0,,0,15,15,34,1,CANYON,HB,old,m,./images/CANYONHB.png,,,,,,,,,,,,,,,,,,,,,,
,,,,,,,,,,,,,,,,,199060,18,2022-01-28_17h31.32.433,lexical_decision_task_DD,2021.2.3,MacIntel,60.0024001,,,,,,,,,,,1.3748,1,,,,,,,,,,,,,,m,1,1.3748,,,,,,,,0.119700521,-0.390642361,0,0,0,,0,16,16,78,1,LITTER,C,old,m,./images/LITTER.png,,,,,,,,,,,,,,,,,,,,,,
,,,,,,,,,,,,,,,,,199060,18,2022-01-28_17h31.32.433,lexical_decision_task_DD,2021.2.3,MacIntel,60.0024001,,,,,,,,,,,2.2138,1,,,,,,,,,,,,,,z,1,2.2138,,,,,,,,0.119700521,-0.390642361,0,0,0,,0,17,17,109,1,BURGE,HB,old,z,./images/BURGEHB.png,,,,,,,,,,,,,,,,,,,,,,
,,,,,,,,,,,,,,,,,199060,18,2022-01-28_17h31.32.433,lexical_decision_task_DD,2021.2.3,MacIntel,60.0024001,,,,,,,,,,,1.7866,1,,,,,,,,,,,,,,m,1,1.7866,,,,,,,,0.119700521,-0.390642361,0,0,0,,0,18,18,32,1,BARREL,LB,old,m,./images/BARRELLB.png,,,,,,,,,,,,,,,,,,,,,,
,,,,,,,,,,,,,,,,,199060,18,2022-01-28_17h31.32.433,lexical_decision_task_DD,2021.2.3,MacIntel,60.0024001,,,,,,,,,,,1.3671,1,,,,,,,,,,,,,,z,1,1.3671,,,,,,,,0.119700521,-0.390642361,0,0,0,,0,19,19,161,1,BLAPS,LB,old,z,./images/BLAPSLB.png,,,,,,,,,,,,,,,,,,,,,,
,,,,,,,,,,,,,,,,,199060,18,2022-01-28_17h31.32.433,lexical_decision_task_DD,2021.2.3,MacIntel,60.0024001,,,,,,,,,,,1.7153,1,,,,,,,,,,,,,,z,1,1.7153,,,,,,,,0.119700521,-0.390642361,0,0,0,,0,20,20,122,1,BLOOT,LB,old,z,./images/BLOOTLB.png,,,,,,,,,,,,,,,,,,,,,,
,,,,,,,,,,,,,,,,,199060,18,2022-01-28_17h31.32.433,lexical_decision_task_DD,2021.2.3,MacIntel,60.0024001,,,,,,,,,,,2.1863,0,,,,,,,,,,,,,,z,0,2.1863,,,,,,,,0.119700521,-0.390642361,0,0,0,,0,21,21,16,1,PENCE,HB,old,m,./images/PENCEHB.png,,,,,,,,,,,,,,,,,,,,,,
,,,,,,,,,,,,,,,,,199060,18,2022-01-28_17h31.32.433,lexical_decision_task_DD,2021.2.3,MacIntel,60.0024001,,,,,,,,,,,1.2943,1,,,,,,,,,,,,,,m,1,1.2943,,,,,,,,0.119700521,-0.390642361,0,0,0,,0,22,22,23,1,WALRUS,LB,old,m,./images/WALRUSLB.png,,,,,,,,,,,,,,,,,,,,,,
,,,,,,,,,,,,,,,,,199060,18,2022-01-28_17h31.32.433,lexical_decision_task_DD,2021.2.3,MacIntel,60.0024001,,,,,,,,,,,1.0877,1,,,,,,,,,,,,,,z,1,1.0877,,,,,,,,0.119700521,-0.390642361,0,0,0,,0,23,23,117,1,STEEG,C,old,z,./images/STEEG.png,,,,,,,,,,,,,,,,,,,,,,
,,,,,,,,,,,,,,,,,199060,18,2022-01-28_17h31.32.433,lexical_decision_task_DD,2021.2.3,MacIntel,60.0024001,,,,,,,,,,,2.1622,1,,,,,,,,,,,,,,z,1,2.1622,,,,,,,,0.119700521,-0.390642361,0,0,0,,0,24,24,148,1,JOMS,HB,old,z,./images/JOMSHB.png,,,,,,,,,,,,,,,,,,,,,,
,,,,,,,,,,,,,,,,,199060,18,2022-01-28_17h31.32.433,lexical_decision_task_DD,2021.2.3,MacIntel,60.0024001,,,,,,,,,,,1.9487,1,,,,,,,,,,,,,,m,1,1.9487,,,,,,,,0.119700521,-0.390642361,0,0,0,,0,25,25,52,1,BANNER,HB,old,m,./images/BANNERHB.png,,,,,,,,,,,,,,,,,,,,,,
,,,,,,,,,,,,,,,,,199060,18,2022-01-28_17h31.32.433,lexical_decision_task_DD,2021.2.3,MacIntel,60.0024001,,,,,,,,,,,1.3176,1,,,,,,,,,,,,,,m,1,1.3176,,,,,,,,0.119700521,-0.390642361,0,0,0,,0,26,26,25,1,WRIST,HB,old,m,./images/WRISTHB.png,,,,,,,,,,,,,,,,,,,,,,
,,,,,,,,,,,,,,,,,199060,18,2022-01-28_17h31.32.433,lexical_decision_task_DD,2021.2.3,MacIntel,60.0024001,,,,,,,,,,,1.223,1,,,,,,,,,,,,,,z,1,1.223,,,,,,,,0.119700521,-0.390642361,0,0,0,,0,27,27,112,1,MYING,HB,old,z,./images/MYINGHB.png,,,,,,,,,,,,,,,,,,,,,,
,,,,,,,,,,,,,,,,,199060,18,2022-01-28_17h31.32.433,lexical_decision_task_DD,2021.2.3,MacIntel,60.0024001,,,,,,,,,,,1.1378,1,,,,,,,,,,,,,,z,1,1.1378,,,,,,,,0.119700521,-0.390642361,0,0,0,,0,28,28,108,1,GRUET,C,old,z,./images/GRUET.png,,,,,,,,,,,,,,,,,,,,,,
,,,,,,,,,,,,,,,,,199060,18,2022-01-28_17h31.32.433,lexical_decision_task_DD,2021.2.3,MacIntel,60.0024001,,,,,,,,,,,1.2634,1,,,,,,,,,,,,,,m,1,1.2634,,,,,,,,0.119700521,-0.390642361,0,0,0,,0,29,29,40,1,SWING,HB,old,m,./images/SWINGHB.png,,,,,,,,,,,,,,,,,,,,,,
,,,,,,,,,,,,,,,,,199060,18,2022-01-28_17h31.32.433,lexical_decision_task_DD,2021.2.3,MacIntel,60.0024001,,,,,,,,,,,1.0938,1,,,,,,,,,,,,,,m,1,1.0938,,,,,,,,0.119700521,-0.390642361,0,0,0,,0,30,30,72,1,NOOSE,C,old,m,./images/NOOSE.png,,,,,,,,,,,,,,,,,,,,,,
,,,,,,,,,,,,,,,,,199060,18,2022-01-28_17h31.32.433,lexical_decision_task_DD,2021.2.3,MacIntel,60.0024001,,,,,,,,,,,1.2614,1,,,,,,,,,,,,,,z,1,1.2614,,,,,,,,0.119700521,-0.390642361,0,0,0,,0,31,31,153,1,CLUPS,C,old,z,./images/CLUPS.png,,,,,,,,,,,,,,,,,,,,,,
,,,,,,,,,,,,,,,,,199060,18,2022-01-28_17h31.32.433,lexical_decision_task_DD,2021.2.3,MacIntel,60.0024001,,,,,,,,,,,0.9091,1,,,,,,,,,,,,,,m,1,0.9091,,,,,,,,0.119700521,-0.390642361,0,0,0,,0,32,32,42,1,FOLDER,C,old,m,./images/FOLDER.png,,,,,,,,,,,,,,,,,,,,,,
,,,,,,,,,,,,,,,,,199060,18,2022-01-28_17h31.32.433,lexical_decision_task_DD,2021.2.3,MacIntel,60.0024001,,,,,,,,,,,1.4653,1,,,,,,,,,,,,,,m,1,1.4653,,,,,,,,0.119700521,-0.390642361,0,0,0,,0,33,33,68,1,TORCH,LB,old,m,./images/TORCHLB.png,,,,,,,,,,,,,,,,,,,,,,
,,,,,,,,,,,,,,,,,199060,18,2022-01-28_17h31.32.433,lexical_decision_task_DD,2021.2.3,MacIntel,60.0024001,,,,,,,,,,,1.7549,1,,,,,,,,,,,,,,m,1,1.7549,,,,,,,,0.119700521,-0.390642361,0,0,0,,0,34,34,33,1,MAGGOT,C,old,m,./images/MAGGOT.png,,,,,,,,,,,,,,,,,,,,,,
,,,,,,,,,,,,,,,,,199060,18,2022-01-28_17h31.32.433,lexical_decision_task_DD,2021.2.3,MacIntel,60.0024001,,,,,,,,,,,0.8292,1,,,,,,,,,,,,,,m,1,0.8292,,,,,,,,0.119700521,-0.390642361,0,0,0,,0,35,35,27,1,ATTIC,C,old,m,./images/ATTIC.png,,,,,,,,,,,,,,,,,,,,,,
,,,,,,,,,,,,,,,,,199060,18,2022-01-28_17h31.32.433,lexical_decision_task_DD,2021.2.3,MacIntel,60.0024001,,,,,,,,,,,0.6856,1,,,,,,,,,,,,,,m,1,0.6856,,,,,,,,0.119700521,-0.390642361,0,0,0,,0,36,36,24,1,SCREW,C,old,m,./images/SCREW.png,,,,,,,,,,,,,,,,,,,,,,
,,,,,,,,,,,,,,,,,199060,18,2022-01-28_17h31.32.433,lexical_decision_task_DD,2021.2.3,MacIntel,60.0024001,,,,,,,,,,,1.6096,1,,,,,,,,,,,,,,z,1,1.6096,,,,,,,,0.119700521,-0.390642361,0,0,0,,0,37,37,91,1,SHENS,HB,old,z,./images/SHENSHB.png,,,,,,,,,,,,,,,,,,,,,,
,,,,,,,,,,,,,,,,,199060,18,2022-01-28_17h31.32.433,lexical_decision_task_DD,2021.2.3,MacIntel,60.0024001,,,,,,,,,,,1.1798,1,,,,,,,,,,,,,,z,1,1.1798,,,,,,,,0.119700521,-0.390642361,0,0,0,,0,38,38,149,1,VEASE,LB,old,z,./images/VEASELB.png,,,,,,,,,,,,,,,,,,,,,,
,,,,,,,,,,,,,,,,,199060,18,2022-01-28_17h31.32.433,lexical_decision_task_DD,2021.2.3,MacIntel,60.0024001,,,,,,,,,,,1.466,1,,,,,,,,,,,,,,z,1,1.466,,,,,,,,0.119700521,-0.390642361,0,0,0,,0,39,39,133,1,POWDY,HB,old,z,./images/POWDYHB.png,,,,,,,,,,,,,,,,,,,,,,
,,,,,,,,,,,,,,,,,199060,18,2022-01-28_17h31.32.433,lexical_decision_task_DD,2021.2.3,MacIntel,60.0024001,,,,,,,,,,,0.8648,1,,,,,,,,,,,,,,z,1,0.8648,,,,,,,,0.119700521,-0.390642361,0,0,0,,0,40,40,84,1,HAXES,C,old,z,./images/HAXES.png,,,,,,,,,,,,,,,,,,,,,,
,,,,,,,,,,,,,,,,,199060,18,2022-01-28_17h31.32.433,lexical_decision_task_DD,2021.2.3,MacIntel,60.0024001,,,,,,,,,,,0.9296,1,,,,,,,,,,,,,,m,1,0.9296,,,,,,,,0.119700521,-0.390642361,0,0,0,space,0,41,41,26,1,SMOKER,LB,old,m,./images/SMOKERLB.png,9.3504,,,,,,,,,,,,,,,,,,,,,
,,,,,,,,,,,,,,,,,199060,18,2022-01-28_17h31.32.433,lexical_decision_task_DD,2021.2.3,MacIntel,60.0024001,,,,,,,,,,,1.8565,1,,,,,,,,,,,,,,m,1,1.8565,,,,,,,,0.119700521,-0.390642361,0,0,0,,0,42,42,73,1,SNACK,HB,old,m,./images/SNACKHB.png,,,,,,,,,,,,,,,,,,,,,,
,,,,,,,,,,,,,,,,,199060,18,2022-01-28_17h31.32.433,lexical_decision_task_DD,2021.2.3,MacIntel,60.0024001,,,,,,,,,,,1.6461,1,,,,,,,,,,,,,,m,1,1.6461,,,,,,,,0.119700521,-0.390642361,0,0,0,,0,43,43,17,1,SKIING,LB,old,m,./images/SKIINGLB.png,,,,,,,,,,,,,,,,,,,,,,
,,,,,,,,,,,,,,,,,199060,18,2022-01-28_17h31.32.433,lexical_decision_task_DD,2021.2.3,MacIntel,60.0024001,,,,,,,,,,,1.2276,1,,,,,,,,,,,,,,m,1,1.2276,,,,,,,,0.119700521,-0.390642361,0,0,0,,0,44,44,60,1,TWINS,C,old,m,./images/TWINS.png,,,,,,,,,,,,,,,,,,,,,,
,,,,,,,,,,,,,,,,,199060,18,2022-01-28_17h31.32.433,lexical_decision_task_DD,2021.2.3,MacIntel,60.0024001,,,,,,,,,,,0.9878,1,,,,,,,,,,,,,,z,1,0.9878,,,,,,,,0.119700521,-0.390642361,0,0,0,,0,45,45,105,1,MOKER,C,old,z,./images/MOKER.png,,,,,,,,,,,,,,,,,,,,,,
,,,,,,,,,,,,,,,,,199060,18,2022-01-28_17h31.32.433,lexical_decision_task_DD,2021.2.3,MacIntel,60.0024001,,,,,,,,,,,1.1321,1,,,,,,,,,,,,,,m,1,1.1321,,,,,,,,0.119700521,-0.390642361,0,0,0,,0,46,46,8,1,TULIP,LB,old,m,./images/TULIPLB.png,,,,,,,,,,,,,,,,,,,,,,
,,,,,,,,,,,,,,,,,199060,18,2022-01-28_17h31.32.433,lexical_decision_task_DD,2021.2.3,MacIntel,60.0024001,,,,,,,,,,,1.7444,1,,,,,,,,,,,,,,z,1,1.7444,,,,,,,,0.119700521,-0.390642361,0,0,0,,0,47,47,157,1,INLER,HB,old,z,./images/INLERHB.png,,,,,,,,,,,,,,,,,,,,,,
,,,,,,,,,,,,,,,,,199060,18,2022-01-28_17h31.32.433,lexical_decision_task_DD,2021.2.3,MacIntel,60.0024001,,,,,,,,,,,2.1916,1,,,,,,,,,,,,,,z,1,2.1916,,,,,,,,0.119700521,-0.390642361,0,0,0,,0,48,48,90,1,NEAST,C,old,z,./images/NEAST.png,,,,,,,,,,,,,,,,,,,,,,
,,,,,,,,,,,,,,,,,199060,18,2022-01-28_17h31.32.433,lexical_decision_task_DD,2021.2.3,MacIntel,60.0024001,,,,,,,,,,,0.9294,1,,,,,,,,,,,,,,m,1,0.9294,,,,,,,,0.119700521,-0.390642361,0,0,0,,0,49,49,0,1,TOMATO,C,old,m,./images/TOMATO.png,,,,,,,,,,,,,,,,,,,,,,
,,,,,,,,,,,,,,,,,199060,18,2022-01-28_17h31.32.433,lexical_decision_task_DD,2021.2.3,MacIntel,60.0024001,,,,,,,,,,,0.9266,1,,,,,,,,,,,,,,z,1,0.9266,,,,,,,,0.119700521,-0.390642361,0,0,0,,0,50,50,96,1,KEAMS,C,old,z,./images/KEAMS.png,,,,,,,,,,,,,,,,,,,,,,
,,,,,,,,,,,,,,,,,199060,18,2022-01-28_17h31.32.433,lexical_decision_task_DD,2021.2.3,MacIntel,60.0024001,,,,,,,,,,,1.9291,1,,,,,,,,,,,,,,m,1,1.9291,,,,,,,,0.119700521,-0.390642361,0,0,0,,0,51,51,76,1,INFANT,HB,old,m,./images/INFANTHB.png,,,,,,,,,,,,,,,,,,,,,,
,,,,,,,,,,,,,,,,,199060,18,2022-01-28_17h31.32.433,lexical_decision_task_DD,2021.2.3,MacIntel,60.0024001,,,,,,,,,,,2.7961,1,,,,,,,,,,,,,,z,1,2.7961,,,,,,,,0.119700521,-0.390642361,0,0,0,,0,52,52,166,1,SHORY,HB,old,z,./images/SHORYHB.png,,,,,,,,,,,,,,,,,,,,,,
,,,,,,,,,,,,,,,,,199060,18,2022-01-28_17h31.32.433,lexical_decision_task_DD,2021.2.3,MacIntel,60.0024001,,,,,,,,,,,1.1897,1,,,,,,,,,,,,,,m,1,1.1897,,,,,,,,0.119700521,-0.390642361,0,0,0,,0,53,53,51,1,ONION,C,old,m,./images/ONION.png,,,,,,,,,,,,,,,,,,,,,,
,,,,,,,,,,,,,,,,,199060,18,2022-01-28_17h31.32.433,lexical_decision_task_DD,2021.2.3,MacIntel,60.0024001,,,,,,,,,,,0.7172,1,,,,,,,,,,,,,,z,1,0.7172,,,,,,,,0.119700521,-0.390642361,0,0,0,,0,54,54,101,1,GLEET,LB,old,z,./images/GLEETLB.png,,,,,,,,,,,,,,,,,,,,,,
,,,,,,,,,,,,,,,,,199060,18,2022-01-28_17h31.32.433,lexical_decision_task_DD,2021.2.3,MacIntel,60.0024001,,,,,,,,,,,0.8087,1,,,,,,,,,,,,,,z,1,0.8087,,,,,,,,0.119700521,-0.390642361,0,0,0,,0,55,55,126,1,GUELS,C,old,z,./images/GUELS.png,,,,,,,,,,,,,,,,,,,,,,
,,,,,,,,,,,,,,,,,199060,18,2022-01-28_17h31.32.433,lexical_decision_task_DD,2021.2.3,MacIntel,60.0024001,,,,,,,,,,,0.7357,1,,,,,,,,,,,,,,z,1,0.7357,,,,,,,,0.119700521,-0.390642361,0,0,0,,0,56,56,99,1,BACKY,C,old,z,./images/BACKY.png,,,,,,,,,,,,,,,,,,,,,,
,,,,,,,,,,,,,,,,,199060,18,2022-01-28_17h31.32.433,lexical_decision_task_DD,2021.2.3,MacIntel,60.0024001,,,,,,,,,,,2.5821,1,,,,,,,,,,,,,,m,1,2.5821,,,,,,,,0.119700521,-0.390642361,0,0,0,,0,57,57,43,1,MOSQUE,HB,old,m,./images/MOSQUEHB.png,,,,,,,,,,,,,,,,,,,,,,
,,,,,,,,,,,,,,,,,199060,18,2022-01-28_17h31.32.433,lexical_decision_task_DD,2021.2.3,MacIntel,60.0024001,,,,,,,,,,,0.7024,1,,,,,,,,,,,,,,z,1,0.7024,,,,,,,,0.119700521,-0.390642361,0,0,0,,0,58,58,147,1,ZOLES,C,old,z,./images/ZOLES.png,,,,,,,,,,,,,,,,,,,,,,
,,,,,,,,,,,,,,,,,199060,18,2022-01-28_17h31.32.433,lexical_decision_task_DD,2021.2.3,MacIntel,60.0024001,,,,,,,,,,,1.6865,1,,,,,,,,,,,,,,m,1,1.6865,,,,,,,,0.119700521,-0.390642361,0,0,0,,0,59,59,65,1,FARMER,LB,old,m,./images/FARMERLB.png,,,,,,,,,,,,,,,,,,,,,,
,,,,,,,,,,,,,,,,,199060,18,2022-01-28_17h31.32.433,lexical_decision_task_DD,2021.2.3,MacIntel,60.0024001,,,,,,,,,,,0.7809,1,,,,,,,,,,,,,,z,1,0.7809,,,,,,,,0.119700521,-0.390642361,0,0,0,,0,60,60,124,1,TUNCH,HB,old,z,./images/TUNCHHB.png,,,,,,,,,,,,,,,,,,,,,,
,,,,,,,,,,,,,,,,,199060,18,2022-01-28_17h31.32.433,lexical_decision_task_DD,2021.2.3,MacIntel,60.0024001,,,,,,,,,,,0.9897,1,,,,,,,,,,,,,,z,1,0.9897,,,,,,,,0.119700521,-0.390642361,0,0,0,,0,61,61,131,1,NACES,LB,old,z,./images/NACESLB.png,,,,,,,,,,,,,,,,,,,,,,
,,,,,,,,,,,,,,,,,199060,18,2022-01-28_17h31.32.433,lexical_decision_task_DD,2021.2.3,MacIntel,60.0024001,,,,,,,,,,,1.2837,1,,,,,,,,,,,,,,z,1,1.2837,,,,,,,,0.119700521,-0.390642361,0,0,0,,0,62,62,125,1,MOOKY,LB,old,z,./images/MOOKYLB.png,,,,,,,,,,,,,,,,,,,,,,
,,,,,,,,,,,,,,,,,199060,18,2022-01-28_17h31.32.433,lexical_decision_task_DD,2021.2.3,MacIntel,60.0024001,,,,,,,,,,,1.734,1,,,,,,,,,,,,,,z,1,1.734,,,,,,,,0.119700521,-0.390642361,0,0,0,,0,63,63,106,1,CLUMS,HB,old,z,./images/CLUMSHB.png,,,,,,,,,,,,,,,,,,,,,,
,,,,,,,,,,,,,,,,,199060,18,2022-01-28_17h31.32.433,lexical_decision_task_DD,2021.2.3,MacIntel,60.0024001,,,,,,,,,,,0.7726,1,,,,,,,,,,,,,,z,1,0.7726,,,,,,,,0.119700521,-0.390642361,0,0,0,,0,64,64,135,1,JOODY,C,old,z,./images/JOODY.png,,,,,,,,,,,,,,,,,,,,,,
,,,,,,,,,,,,,,,,,199060,18,2022-01-28_17h31.32.433,lexical_decision_task_DD,2021.2.3,MacIntel,60.0024001,,,,,,,,,,,0.8665,1,,,,,,,,,,,,,,m,1,0.8665,,,,,,,,0.119700521,-0.390642361,0,0,0,,0,65,65,35,1,PEACH,LB,old,m,./images/PEACHLB.png,,,,,,,,,,,,,,,,,,,,,,
,,,,,,,,,,,,,,,,,199060,18,2022-01-28_17h31.32.433,lexical_decision_task_DD,2021.2.3,MacIntel,60.0024001,,,,,,,,,,,1.0199,1,,,,,,,,,,,,,,m,1,1.0199,,,,,,,,0.119700521,-0.390642361,0,0,0,,0,66,66,19,1,DOUGH,HB,old,m,./images/DOUGHHB.png,,,,,,,,,,,,,,,,,,,,,,
,,,,,,,,,,,,,,,,,199060,18,2022-01-28_17h31.32.433,lexical_decision_task_DD,2021.2.3,MacIntel,60.0024001,,,,,,,,,,,0.905,1,,,,,,,,,,,,,,m,1,0.905,,,,,,,,0.119700521,-0.390642361,0,0,0,,0,67,67,64,1,JELLY,HB,old,m,./images/JELLYHB.png,,,,,,,,,,,,,,,,,,,,,,
,,,,,,,,,,,,,,,,,199060,18,2022-01-28_17h31.32.433,lexical_decision_task_DD,2021.2.3,MacIntel,60.0024001,,,,,,,,,,,0.7209,0,,,,,,,,,,,,,,m,0,0.7209,,,,,,,,0.119700521,-0.390642361,0,0,0,,0,68,68,120,1,RINED,C,old,z,./images/RINED.png,,,,,,,,,,,,,,,,,,,,,,
,,,,,,,,,,,,,,,,,199060,18,2022-01-28_17h31.32.433,lexical_decision_task_DD,2021.2.3,MacIntel,60.0024001,,,,,,,,,,,0.8878,1,,,,,,,,,,,,,,m,1,0.8878,,,,,,,,0.119700521,-0.390642361,0,0,0,,0,69,69,57,1,MOOSE,C,old,m,./images/MOOSE.png,,,,,,,,,,,,,,,,,,,,,,
,,,,,,,,,,,,,,,,,199060,18,2022-01-28_17h31.32.433,lexical_decision_task_DD,2021.2.3,MacIntel,60.0024001,,,,,,,,,,,1.7966,1,,,,,,,,,,,,,,z,1,1.7966,,,,,,,,0.119700521,-0.390642361,0,0,0,,0,70,70,104,1,GITTY,LB,old,z,./images/GITTYLB.png,,,,,,,,,,,,,,,,,,,,,,
,,,,,,,,,,,,,,,,,199060,18,2022-01-28_17h31.32.433,lexical_decision_task_DD,2021.2.3,MacIntel,60.0024001,,,,,,,,,,,0.939,1,,,,,,,,,,,,,,m,1,0.939,,,,,,,,0.119700521,-0.390642361,0,0,0,,0,71,71,36,1,THROAT,C,old,m,./images/THROAT.png,,,,,,,,,,,,,,,,,,,,,,
,,,,,,,,,,,,,,,,,199060,18,2022-01-28_17h31.32.433,lexical_decision_task_DD,2021.2.3,MacIntel,60.0024001,,,,,,,,,,,0.9952,1,,,,,,,,,,,,,,m,1,0.9952,,,,,,,,0.119700521,-0.390642361,0,0,0,,0,72,72,10,1,BELLY,HB,old,m,./images/BELLYHB.png,,,,,,,,,,,,,,,,,,,,,,
,,,,,,,,,,,,,,,,,199060,18,2022-01-28_17h31.32.433,lexical_decision_task_DD,2021.2.3,MacIntel,60.0024001,,,,,,,,,,,1.2197,1,,,,,,,,,,,,,,z,1,1.2197,,,,,,,,0.119700521,-0.390642361,0,0,0,,0,73,73,85,1,CHULK,HB,old,z,./images/CHULKHB.png,,,,,,,,,,,,,,,,,,,,,,
,,,,,,,,,,,,,,,,,199060,18,2022-01-28_17h31.32.433,lexical_decision_task_DD,2021.2.3,MacIntel,60.0024001,,,,,,,,,,,1.6913,1,,,,,,,,,,,,,,m,1,1.6913,,,,,,,,0.119700521,-0.390642361,0,0,0,,0,74,74,49,1,DRUMS,HB,old,m,./images/DRUMSHB.png,,,,,,,,,,,,,,,,,,,,,,
,,,,,,,,,,,,,,,,,199060,18,2022-01-28_17h31.32.433,lexical_decision_task_DD,2021.2.3,MacIntel,60.0024001,,,,,,,,,,,1.2311,1,,,,,,,,,,,,,,m,1,1.2311,,,,,,,,0.119700521,-0.390642361,0,0,0,,0,75,75,4,1,MUSCLE,HB,old,m,./images/MUSCLEHB.png,,,,,,,,,,,,,,,,,,,,,,
,,,,,,,,,,,,,,,,,199060,18,2022-01-28_17h31.32.433,lexical_decision_task_DD,2021.2.3,MacIntel,60.0024001,,,,,,,,,,,0.994,1,,,,,,,,,,,,,,m,1,0.994,,,,,,,,0.119700521,-0.390642361,0,0,0,,0,76,76,12,1,SHORE,C,old,m,./images/SHORE.png,,,,,,,,,,,,,,,,,,,,,,
,,,,,,,,,,,,,,,,,199060,18,2022-01-28_17h31.32.433,lexical_decision_task_DD,2021.2.3,MacIntel,60.0024001,,,,,,,,,,,0.9346,1,,,,,,,,,,,,,,m,1,0.9346,,,,,,,,0.119700521,-0.390642361,0,0,0,,0,77,77,46,1,PEARL,HB,old,m,./images/PEARLHB.png,,,,,,,,,,,,,,,,,,,,,,
,,,,,,,,,,,,,,,,,199060,18,2022-01-28_17h31.32.433,lexical_decision_task_DD,2021.2.3,MacIntel,60.0024001,,,,,,,,,,,1.8824,1,,,,,,,,,,,,,,m,1,1.8824,,,,,,,,0.119700521,-0.390642361,0,0,0,,0,78,78,82,1,SUNSET,HB,old,m,./images/SUNSETHB.png,,,,,,,,,,,,,,,,,,,,,,
,,,,,,,,,,,,,,,,,199060,18,2022-01-28_17h31.32.433,lexical_decision_task_DD,2021.2.3,MacIntel,60.0024001,,,,,,,,,,,0.9216,1,,,,,,,,,,,,,,z,1,0.9216,,,,,,,,0.119700521,-0.390642361,0,0,0,,0,79,79,110,1,CRUNK,LB,old,z,./images/CRUNKLB.png,,,,,,,,,,,,,,,,,,,,,,
,,,,,,,,,,,,,,,,,199060,18,2022-01-28_17h31.32.433,lexical_decision_task_DD,2021.2.3,MacIntel,60.0024001,,,,,,,,,,,1.3824,1,,,,,,,,,,,,,,z,1,1.3824,,,,,,,,0.119409722,-0.387842882,0,0,0,,0,80,80,103,1,FLORT,HB,old,z,./images/FLORTHB.png,,,,,,,,,,,,,,,,,,,,,,
,,,,,,,,,,,,,,,,,199060,18,2022-01-28_17h31.32.433,lexical_decision_task_DD,2021.2.3,MacIntel,60.0024001,,,,,,,,,,,0.8243,1,,,,,,,,,,,,,,z,1,0.8243,,,,,,,,0.119149306,-0.390269097,0,0,0,,0,81,81,87,1,TRING,C,old,z,./images/TRING.png,,,,,,,,,,,,,,,,,,,,,,
,,,,,,,,,,,,,,,,,199060,18,2022-01-28_17h31.32.433,lexical_decision_task_DD,2021.2.3,MacIntel,60.0024001,,,,,,,,,,,0.7975,1,,,,,,,,,,,,,,z,1,0.7975,,,,,,,,0.117717014,-0.39468316,0,0,0,,0,82,82,113,1,LINEW,LB,old,z,./images/LINEWLB.png,,,,,,,,,,,,,,,,,,,,,,
,,,,,,,,,,,,,,,,,199060,18,2022-01-28_17h31.32.433,lexical_decision_task_DD,2021.2.3,MacIntel,60.0024001,,,,,,,,,,,0.8347,1,,,,,,,,,,,,,,z,1,0.8347,,,,,,,,0.121861979,-0.373311632,0,0,0,space,0,83,83,93,1,SMONE,C,old,z,./images/SMONE.png,15.3507,,,,,,,,,,,,,,,,,,,,,
,,,,,,,,,,,,,,,,,199060,18,2022-01-28_17h31.32.433,lexical_decision_task_DD,2021.2.3,MacIntel,60.0024001,,,,,,,,,,,1.0893,0,,,,,,,,,,,,,,z,0,1.0893,,,,,,,,0.121861979,-0.373311632,0,0,0,,0,84,84,69,1,COOKER,C,old,m,./images/COOKER.png,,,,,,,,,,,,,,,,,,,,,,
,,,,,,,,,,,,,,,,,199060,18,2022-01-28_17h31.32.433,lexical_decision_task_DD,2021.2.3,MacIntel,60.0024001,,,,,,,,,,,0.8107,1,,,,,,,,,,,,,,z,1,0.8107,,,,,,,,0.121861979,-0.373311632,0,0,0,,0,85,85,95,1,HANTY,LB,old,z,./images/HANTYLB.png,,,,,,,,,,,,,,,,,,,,,,
,,,,,,,,,,,,,,,,,199060,18,2022-01-28_17h31.32.433,lexical_decision_task_DD,2021.2.3,MacIntel,60.0024001,,,,,,,,,,,0.8618,1,,,,,,,,,,,,,,z,1,0.8618,,,,,,,,0.121861979,-0.373311632,0,0,0,,0,86,86,89,1,DRIEK,LB,old,z,./images/DRIEKLB.png,,,,,,,,,,,,,,,,,,,,,,
,,,,,,,,,,,,,,,,,199060,18,2022-01-28_17h31.32.433,lexical_decision_task_DD,2021.2.3,MacIntel,60.0024001,,,,,,,,,,,1.454,1,,,,,,,,,,,,,,m,1,1.454,,,,,,,,0.121861979,-0.373311632,0,0,0,,0,87,87,1,1,PLANK,HB,old,m,./images/PLANKHB.png,,,,,,,,,,,,,,,,,,,,,,
,,,,,,,,,,,,,,,,,199060,18,2022-01-28_17h31.32.433,lexical_decision_task_DD,2021.2.3,MacIntel,60.0024001,,,,,,,,,,,0.697,1,,,,,,,,,,,,,,m,1,0.697,,,,,,,,0.121861979,-0.373311632,0,0,0,,0,88,88,21,1,KIDNEY,C,old,m,./images/KIDNEY.png,,,,,,,,,,,,,,,,,,,,,,
,,,,,,,,,,,,,,,,,199060,18,2022-01-28_17h31.32.433,lexical_decision_task_DD,2021.2.3,MacIntel,60.0024001,,,,,,,,,,,1.873,1,,,,,,,,,,,,,,z,1,1.873,,,,,,,,0.121861979,-0.373311632,0,0,0,,0,89,89,158,1,EGECT,LB,old,z,./images/EGECTLB.png,,,,,,,,,,,,,,,,,,,,,,
,,,,,,,,,,,,,,,,,199060,18,2022-01-28_17h31.32.433,lexical_decision_task_DD,2021.2.3,MacIntel,60.0024001,,,,,,,,,,,3.0051,1,,,,,,,,,,,,,,m,1,3.0051,,,,,,,,0.121861979,-0.373311632,0,0,0,,0,90,90,54,1,TRIPOD,C,old,m,./images/TRIPOD.png,,,,,,,,,,,,,,,,,,,,,,
,,,,,,,,,,,,,,,,,199060,18,2022-01-28_17h31.32.433,lexical_decision_task_DD,2021.2.3,MacIntel,60.0024001,,,,,,,,,,,0.7469,1,,,,,,,,,,,,,,z,1,0.7469,,,,,,,,0.121861979,-0.373311632,0,0,0,,0,91,91,130,1,CRILL,HB,old,z,./images/CRILLHB.png,,,,,,,,,,,,,,,,,,,,,,
,,,,,,,,,,,,,,,,,199060,18,2022-01-28_17h31.32.433,lexical_decision_task_DD,2021.2.3,MacIntel,60.0024001,,,,,,,,,,,1.1503,1,,,,,,,,,,,,,,m,1,1.1503,,,,,,,,0.121861979,-0.373311632,0,0,0,,0,92,92,83,1,JUNGLE,LB,old,m,./images/JUNGLELB.png,,,,,,,,,,,,,,,,,,,,,,
,,,,,,,,,,,,,,,,,199060,18,2022-01-28_17h31.32.433,lexical_decision_task_DD,2021.2.3,MacIntel,60.0024001,,,,,,,,,,,2.4199,1,,,,,,,,,,,,,,m,1,2.4199,,,,,,,,0.121861979,-0.373311632,0,0,0,,0,93,93,3,1,FINGER,C,old,m,./images/FINGER.png,,,,,,,,,,,,,,,,,,,,,,
,,,,,,,,,,,,,,,,,199060,18,2022-01-28_17h31.32.433,lexical_decision_task_DD,2021.2.3,MacIntel,60.0024001,,,,,,,,,,,1.1858,1,,,,,,,,,,,,,,z,1,1.1858,,,,,,,,0.121861979,-0.373311632,0,0,0,,0,94,94,129,1,PRANS,C,old,z,./images/PRANS.png,,,,,,,,,,,,,,,,,,,,,,
,,,,,,,,,,,,,,,,,199060,18,2022-01-28_17h31.32.433,lexical_decision_task_DD,2021.2.3,MacIntel,60.0024001,,,,,,,,,,,0.8934,1,,,,,,,,,,,,,,m,1,0.8934,,,,,,,,0.121861979,-0.373311632,0,0,0,,0,95,95,45,1,KITTEN,C,old,m,./images/KITTEN.png,,,,,,,,,,,,,,,,,,,,,,
,,,,,,,,,,,,,,,,,199060,18,2022-01-28_17h31.32.433,lexical_decision_task_DD,2021.2.3,MacIntel,60.0024001,,,,,,,,,,,1.6999,1,,,,,,,,,,,,,,z,1,1.6999,,,,,,,,0.121861979,-0.373311632,0,0,0,,0,96,96,163,1,GAMBA,HB,old,z,./images/GAMBAHB.png,,,,,,,,,,,,,,,,,,,,,,
,,,,,,,,,,,,,,,,,199060,18,2022-01-28_17h31.32.433,lexical_decision_task_DD,2021.2.3,MacIntel,60.0024001,,,,,,,,,,,1.6159,1,,,,,,,,,,,,,,z,1,1.6159,,,,,,,,0.121861979,-0.373311632,0,0,0,,0,97,97,136,1,WERVE,HB,old,z,./images/WERVEHB.png,,,,,,,,,,,,,,,,,,,,,,
,,,,,,,,,,,,,,,,,199060,18,2022-01-28_17h31.32.433,lexical_decision_task_DD,2021.2.3,MacIntel,60.0024001,,,,,,,,,,,0.7349,1,,,,,,,,,,,,,,m,1,0.7349,,,,,,,,0.121861979,-0.373311632,0,0,0,,0,98,98,63,1,MIRROR,C,old,m,./images/MIRROR.png,,,,,,,,,,,,,,,,,,,,,,
,,,,,,,,,,,,,,,,,199060,18,2022-01-28_17h31.32.433,lexical_decision_task_DD,2021.2.3,MacIntel,60.0024001,,,,,,,,,,,1.1306,1,,,,,,,,,,,,,,z,1,1.1306,,,,,,,,0.121861979,-0.373311632,0,0,0,,0,99,99,155,1,CANGY,LB,old,z,./images/CANGYLB.png,,,,,,,,,,,,,,,,,,,,,,
,,,,,,,,,,,,,,,,,199060,18,2022-01-28_17h31.32.433,lexical_decision_task_DD,2021.2.3,MacIntel,60.0024001,,,,,,,,,,,1.4961,1,,,,,,,,,,,,,,z,1,1.4961,,,,,,,,0.121861979,-0.373311632,0,0,0,,0,100,100,114,1,RIKES,C,old,z,./images/RIKES.png,,,,,,,,,,,,,,,,,,,,,,
,,,,,,,,,,,,,,,,,199060,18,2022-01-28_17h31.32.433,lexical_decision_task_DD,2021.2.3,MacIntel,60.0024001,,,,,,,,,,,1.3372,1,,,,,,,,,,,,,,m,1,1.3372,,,,,,,,0.121861979,-0.373311632,0,0,0,,0,101,101,2,1,BEARD,LB,old,m,./images/BEARDLB.png,,,,,,,,,,,,,,,,,,,,,,
,,,,,,,,,,,,,,,,,199060,18,2022-01-28_17h31.32.433,lexical_decision_task_DD,2021.2.3,MacIntel,60.0024001,,,,,,,,,,,0.9335,1,,,,,,,,,,,,,,z,1,0.9335,,,,,,,,0.121861979,-0.373311632,0,0,0,,0,102,102,97,1,CHIDS,HB,old,z,./images/CHIDSHB.png,,,,,,,,,,,,,,,,,,,,,,
,,,,,,,,,,,,,,,,,199060,18,2022-01-28_17h31.32.433,lexical_decision_task_DD,2021.2.3,MacIntel,60.0024001,,,,,,,,,,,0.7789,1,,,,,,,,,,,,,,z,1,0.7789,,,,,,,,0.121861979,-0.373311632,0,0,0,,0,103,103,92,1,PAIMS,LB,old,z,./images/PAIMSLB.png,,,,,,,,,,,,,,,,,,,,,,
,,,,,,,,,,,,,,,,,199060,18,2022-01-28_17h31.32.433,lexical_decision_task_DD,2021.2.3,MacIntel,60.0024001,,,,,,,,,,,0.9794,1,,,,,,,,,,,,,,z,1,0.9794,,,,,,,,0.121861979,-0.373311632,0,0,0,,0,104,104,111,1,HOSSE,C,old,z,./images/HOSSE.png,,,,,,,,,,,,,,,,,,,,,,
,,,,,,,,,,,,,,,,,199060,18,2022-01-28_17h31.32.433,lexical_decision_task_DD,2021.2.3,MacIntel,60.0024001,,,,,,,,,,,0.8857,1,,,,,,,,,,,,,,m,1,0.8857,,,,,,,,0.121861979,-0.373311632,0,0,0,,0,105,105,81,1,POODLE,C,old,m,./images/POODLE.png,,,,,,,,,,,,,,,,,,,,,,
,,,,,,,,,,,,,,,,,199060,18,2022-01-28_17h31.32.433,lexical_decision_task_DD,2021.2.3,MacIntel,60.0024001,,,,,,,,,,,1.2718,1,,,,,,,,,,,,,,z,1,1.2718,,,,,,,,0.121861979,-0.373311632,0,0,0,,0,106,106,98,1,BAMPS,LB,old,z,./images/BAMPSLB.png,,,,,,,,,,,,,,,,,,,,,,
,,,,,,,,,,,,,,,,,199060,18,2022-01-28_17h31.32.433,lexical_decision_task_DD,2021.2.3,MacIntel,60.0024001,,,,,,,,,,,0.9945,1,,,,,,,,,,,,,,m,1,0.9945,,,,,,,,0.121861979,-0.373311632,0,0,0,,0,107,107,80,1,WEASEL,LB,old,m,./images/WEASELLB.png,,,,,,,,,,,,,,,,,,,,,,
,,,,,,,,,,,,,,,,,199060,18,2022-01-28_17h31.32.433,lexical_decision_task_DD,2021.2.3,MacIntel,60.0024001,,,,,,,,,,,1.8637,1,,,,,,,,,,,,,,m,1,1.8637,,,,,,,,0.121861979,-0.373311632,0,0,0,,0,108,108,37,1,BIRTH,HB,old,m,./images/BIRTHHB.png,,,,,,,,,,,,,,,,,,,,,,
,,,,,,,,,,,,,,,,,199060,18,2022-01-28_17h31.32.433,lexical_decision_task_DD,2021.2.3,MacIntel,60.0024001,,,,,,,,,,,0.8445,1,,,,,,,,,,,,,,z,1,0.8445,,,,,,,,0.121861979,-0.373311632,0,0,0,,0,109,109,132,1,SCIFF,C,old,z,./images/SCIFF.png,,,,,,,,,,,,,,,,,,,,,,
,,,,,,,,,,,,,,,,,199060,18,2022-01-28_17h31.32.433,lexical_decision_task_DD,2021.2.3,MacIntel,60.0024001,,,,,,,,,,,0.9683,1,,,,,,,,,,,,,,m,1,0.9683,,,,,,,,0.121861979,-0.373311632,0,0,0,,0,110,110,50,1,MALLET,LB,old,m,./images/MALLETLB.png,,,,,,,,,,,,,,,,,,,,,,
,,,,,,,,,,,,,,,,,199060,18,2022-01-28_17h31.32.433,lexical_decision_task_DD,2021.2.3,MacIntel,60.0024001,,,,,,,,,,,0.6141,1,,,,,,,,,,,,,,z,1,0.6141,,,,,,,,0.121861979,-0.373311632,0,0,0,,0,111,111,167,1,ZONET,LB,old,z,./images/ZONETLB.png,,,,,,,,,,,,,,,,,,,,,,
,,,,,,,,,,,,,,,,,199060,18,2022-01-28_17h31.32.433,lexical_decision_task_DD,2021.2.3,MacIntel,60.0024001,,,,,,,,,,,0.7378,1,,,,,,,,,,,,,,m,1,0.7378,,,,,,,,0.121861979,-0.373311632,0,0,0,,0,112,112,39,1,SHELF,C,old,m,./images/SHELF.png,,,,,,,,,,,,,,,,,,,,,,
,,,,,,,,,,,,,,,,,199060,18,2022-01-28_17h31.32.433,lexical_decision_task_DD,2021.2.3,MacIntel,60.0024001,,,,,,,,,,,0.7408,1,,,,,,,,,,,,,,z,1,0.7408,,,,,,,,0.121861979,-0.373311632,0,0,0,,0,113,113,134,1,TROSS,LB,old,z,./images/TROSSLB.png,,,,,,,,,,,,,,,,,,,,,,
,,,,,,,,,,,,,,,,,199060,18,2022-01-28_17h31.32.433,lexical_decision_task_DD,2021.2.3,MacIntel,60.0024001,,,,,,,,,,,1.1504,1,,,,,,,,,,,,,,m,1,1.1504,,,,,,,,0.121861979,-0.373311632,0,0,0,,0,114,114,56,1,PACKET,LB,old,m,./images/PACKETLB.png,,,,,,,,,,,,,,,,,,,,,,
,,,,,,,,,,,,,,,,,199060,18,2022-01-28_17h31.32.433,lexical_decision_task_DD,2021.2.3,MacIntel,60.0024001,,,,,,,,,,,1.1492,1,,,,,,,,,,,,,,z,1,1.1492,,,,,,,,0.121861979,-0.373311632,0,0,0,,0,115,115,146,1,MOOST,LB,old,z,./images/MOOSTLB.png,,,,,,,,,,,,,,,,,,,,,,
,,,,,,,,,,,,,,,,,199060,18,2022-01-28_17h31.32.433,lexical_decision_task_DD,2021.2.3,MacIntel,60.0024001,,,,,,,,,,,1.0469,1,,,,,,,,,,,,,,m,1,1.0469,,,,,,,,0.121861979,-0.373311632,0,0,0,,0,116,116,41,1,STRING,LB,old,m,./images/STRINGLB.png,,,,,,,,,,,,,,,,,,,,,,
,,,,,,,,,,,,,,,,,199060,18,2022-01-28_17h31.32.433,lexical_decision_task_DD,2021.2.3,MacIntel,60.0024001,,,,,,,,,,,0.7757,1,,,,,,,,,,,,,,z,1,0.7757,,,,,,,,0.121861979,-0.373311632,0,0,0,,0,117,117,145,1,LAMEL,HB,old,z,./images/LAMELHB.png,,,,,,,,,,,,,,,,,,,,,,
,,,,,,,,,,,,,,,,,199060,18,2022-01-28_17h31.32.433,lexical_decision_task_DD,2021.2.3,MacIntel,60.0024001,,,,,,,,,,,1.7823,1,,,,,,,,,,,,,,z,1,1.7823,,,,,,,,0.121861979,-0.373311632,0,0,0,,0,118,118,121,1,CEERS,HB,old,z,./images/CEERSHB.png,,,,,,,,,,,,,,,,,,,,,,
,,,,,,,,,,,,,,,,,199060,18,2022-01-28_17h31.32.433,lexical_decision_task_DD,2021.2.3,MacIntel,60.0024001,,,,,,,,,,,0.8299,1,,,,,,,,,,,,,,m,1,0.8299,,,,,,,,0.121861979,-0.373311632,0,0,0,,0,119,119,47,1,BERRY,LB,old,m,./images/BERRYLB.png,,,,,,,,,,,,,,,,,,,,,,
,,,,,,,,,,,,,,,,,199060,18,2022-01-28_17h31.32.433,lexical_decision_task_DD,2021.2.3,MacIntel,60.0024001,,,,,,,,,,,0.8853,1,,,,,,,,,,,,,,z,1,0.8853,,,,,,,,0.121861979,-0.373311632,0,0,0,,0,120,120,115,1,MAWNS,HB,old,z,./images/MAWNSHB.png,,,,,,,,,,,,,,,,,,,,,,
,,,,,,,,,,,,,,,,,199060,18,2022-01-28_17h31.32.433,lexical_decision_task_DD,2021.2.3,MacIntel,60.0024001,,,,,,,,,,,0.9035,1,,,,,,,,,,,,,,z,1,0.9035,,,,,,,,0.121861979,-0.373311632,0,0,0,,0,121,121,128,1,GRIFT,LB,old,z,./images/GRIFTLB.png,,,,,,,,,,,,,,,,,,,,,,
,,,,,,,,,,,,,,,,,199060,18,2022-01-28_17h31.32.433,lexical_decision_task_DD,2021.2.3,MacIntel,60.0024001,,,,,,,,,,,1.1704,1,,,,,,,,,,,,,,z,1,1.1704,,,,,,,,0.121861979,-0.373311632,0,0,0,,0,122,122,116,1,BALGY,LB,old,z,./images/BALGYLB.png,,,,,,,,,,,,,,,,,,,,,,
,,,,,,,,,,,,,,,,,199060,18,2022-01-28_17h31.32.433,lexical_decision_task_DD,2021.2.3,MacIntel,60.0024001,,,,,,,,,,,1.1808,1,,,,,,,,,,,,,,z,1,1.1808,,,,,,,,0.121861979,-0.373311632,0,0,0,,0,123,123,94,1,BLANS,HB,old,z,./images/BLANSHB.png,,,,,,,,,,,,,,,,,,,,,,
,,,,,,,,,,,,,,,,,199060,18,2022-01-28_17h31.32.433,lexical_decision_task_DD,2021.2.3,MacIntel,60.0024001,,,,,,,,,,,0.8127,1,,,,,,,,,,,,,,z,1,0.8127,,,,,,,,0.121861979,-0.373311632,0,0,0,,0,124,124,119,1,PAFER,LB,old,z,./images/PAFERLB.png,,,,,,,,,,,,,,,,,,,,,,
,,,,,,,,,,,,,,,,,199060,18,2022-01-28_17h31.32.433,lexical_decision_task_DD,2021.2.3,MacIntel,60.0024001,,,,,,,,,,,0.9553,1,,,,,,,,,,,,,,z,1,0.9553,,,,,,,,0.121861979,-0.373311632,0,0,0,space,0,125,125,151,1,TINKY,HB,old,z,./images/TINKYHB.png,2.4378,,,,,,,,,,,,,,,,,,,,,
,,,,,,,,,,,,,,,,,199060,18,2022-01-28_17h31.32.433,lexical_decision_task_DD,2021.2.3,MacIntel,60.0024001,,,,,,,,,,,1.1157,1,,,,,,,,,,,,,,z,1,1.1157,,,,,,,,0.121861979,-0.373311632,0,0,0,,0,126,126,118,1,BAVEL,HB,old,z,./images/BAVELHB.png,,,,,,,,,,,,,,,,,,,,,,
,,,,,,,,,,,,,,,,,199060,18,2022-01-28_17h31.32.433,lexical_decision_task_DD,2021.2.3,MacIntel,60.0024001,,,,,,,,,,,0.8663,1,,,,,,,,,,,,,,m,1,0.8663,,,,,,,,0.121861979,-0.373311632,0,0,0,,0,127,127,29,1,CRUMB,LB,old,m,./images/CRUMBLB.png,,,,,,,,,,,,,,,,,,,,,,
,,,,,,,,,,,,,,,,,199060,18,2022-01-28_17h31.32.433,lexical_decision_task_DD,2021.2.3,MacIntel,60.0024001,,,,,,,,,,,1.188,1,,,,,,,,,,,,,,m,1,1.188,,,,,,,,0.121861979,-0.373311632,0,0,0,,0,128,128,18,1,JAGUAR,C,old,m,./images/JAGUAR.png,,,,,,,,,,,,,,,,,,,,,,
,,,,,,,,,,,,,,,,,199060,18,2022-01-28_17h31.32.433,lexical_decision_task_DD,2021.2.3,MacIntel,60.0024001,,,,,,,,,,,0.8568,1,,,,,,,,,,,,,,m,1,0.8568,,,,,,,,0.121861979,-0.373311632,0,0,0,,0,129,129,59,1,BURIAL,LB,old,m,./images/BURIALLB.png,,,,,,,,,,,,,,,,,,,,,,
,,,,,,,,,,,,,,,,,199060,18,2022-01-28_17h31.32.433,lexical_decision_task_DD,2021.2.3,MacIntel,60.0024001,,,,,,,,,,,1.1365,1,,,,,,,,,,,,,,z,1,1.1365,,,,,,,,0.121861979,-0.373311632,0,0,0,,0,130,130,156,1,HIXES,C,old,z,./images/HIXES.png,,,,,,,,,,,,,,,,,,,,,,
,,,,,,,,,,,,,,,,,199060,18,2022-01-28_17h31.32.433,lexical_decision_task_DD,2021.2.3,MacIntel,60.0024001,,,,,,,,,,,2.6311,1,,,,,,,,,,,,,,m,1,2.6311,,,,,,,,0.121861979,-0.373311632,0,0,0,,0,131,131,28,1,FALCON,HB,old,m,./images/FALCONHB.png,,,,,,,,,,,,,,,,,,,,,,
,,,,,,,,,,,,,,,,,199060,18,2022-01-28_17h31.32.433,lexical_decision_task_DD,2021.2.3,MacIntel,60.0024001,,,,,,,,,,,1.1475,1,,,,,,,,,,,,,,z,1,1.1475,,,,,,,,0.121861979,-0.373311632,0,0,0,,0,132,132,137,1,JOOST,LB,old,z,./images/JOOSTLB.png,,,,,,,,,,,,,,,,,,,,,,
,,,,,,,,,,,,,,,,,199060,18,2022-01-28_17h31.32.433,lexical_decision_task_DD,2021.2.3,MacIntel,60.0024001,,,,,,,,,,,1.1011,1,,,,,,,,,,,,,,m,1,1.1011,,,,,,,,0.121861979,-0.373311632,0,0,0,,0,133,133,77,1,COUCH,LB,old,m,./images/COUCHLB.png,,,,,,,,,,,,,,,,,,,,,,
,,,,,,,,,,,,,,,,,199060,18,2022-01-28_17h31.32.433,lexical_decision_task_DD,2021.2.3,MacIntel,60.0024001,,,,,,,,,,,1.5426,1,,,,,,,,,,,,,,z,1,1.5426,,,,,,,,0.121861979,-0.373311632,0,0,0,,0,134,134,142,1,PLASK,HB,old,z,./images/PLASKHB.png,,,,,,,,,,,,,,,,,,,,,,
,,,,,,,,,,,,,,,,,199060,18,2022-01-28_17h31.32.433,lexical_decision_task_DD,2021.2.3,MacIntel,60.0024001,,,,,,,,,,,1.1718,1,,,,,,,,,,,,,,z,1,1.1718,,,,,,,,0.121861979,-0.373311632,0,0,0,,0,135,135,127,1,NINDY,HB,old,z,./images/NINDYHB.png,,,,,,,,,,,,,,,,,,,,,,
,,,,,,,,,,,,,,,,,199060,18,2022-01-28_17h31.32.433,lexical_decision_task_DD,2021.2.3,MacIntel,60.0024001,,,,,,,,,,,1.1817,1,,,,,,,,,,,,,,z,1,1.1817,,,,,,,,0.121861979,-0.373311632,0,0,0,,0,136,136,100,1,DRIBS,HB,old,z,./images/DRIBSHB.png,,,,,,,,,,,,,,,,,,,,,,
,,,,,,,,,,,,,,,,,199060,18,2022-01-28_17h31.32.433,lexical_decision_task_DD,2021.2.3,MacIntel,60.0024001,,,,,,,,,,,1.3461,1,,,,,,,,,,,,,,m,1,1.3461,,,,,,,,0.121861979,-0.373311632,0,0,0,,0,137,137,13,1,MOTOR,HB,old,m,./images/MOTORHB.png,,,,,,,,,,,,,,,,,,,,,,
,,,,,,,,,,,,,,,,,199060,18,2022-01-28_17h31.32.433,lexical_decision_task_DD,2021.2.3,MacIntel,60.0024001,,,,,,,,,,,0.8887,1,,,,,,,,,,,,,,z,1,0.8887,,,,,,,,0.121861979,-0.373311632,0,0,0,,0,138,138,152,1,FRAIN,LB,old,z,./images/FRAINLB.png,,,,,,,,,,,,,,,,,,,,,,
,,,,,,,,,,,,,,,,,199060,18,2022-01-28_17h31.32.433,lexical_decision_task_DD,2021.2.3,MacIntel,60.0024001,,,,,,,,,,,0.8188,1,,,,,,,,,,,,,,m,1,0.8188,,,,,,,,0.121861979,-0.373311632,0,0,0,,0,139,139,44,1,LIZARD,LB,old,m,./images/LIZARDLB.png,,,,,,,,,,,,,,,,,,,,,,
,,,,,,,,,,,,,,,,,199060,18,2022-01-28_17h31.32.433,lexical_decision_task_DD,2021.2.3,MacIntel,60.0024001,,,,,,,,,,,0.8482,1,,,,,,,,,,,,,,m,1,0.8482,,,,,,,,0.121861979,-0.373311632,0,0,0,,0,140,140,5,1,PASTA,LB,old,m,./images/PASTALB.png,,,,,,,,,,,,,,,,,,,,,,
,,,,,,,,,,,,,,,,,199060,18,2022-01-28_17h31.32.433,lexical_decision_task_DD,2021.2.3,MacIntel,60.0024001,,,,,,,,,,,1.1552,1,,,,,,,,,,,,,,m,1,1.1552,,,,,,,,0.121861979,-0.373311632,0,0,0,,0,141,141,15,1,GREASE,C,old,m,./images/GREASE.png,,,,,,,,,,,,,,,,,,,,,,
,,,,,,,,,,,,,,,,,199060,18,2022-01-28_17h31.32.433,lexical_decision_task_DD,2021.2.3,MacIntel,60.0024001,,,,,,,,,,,1.6085,1,,,,,,,,,,,,,,m,1,1.6085,,,,,,,,0.121861979,-0.373311632,0,0,0,,0,142,142,79,1,CRUST,HB,old,m,./images/CRUSTHB.png,,,,,,,,,,,,,,,,,,,,,,
,,,,,,,,,,,,,,,,,199060,18,2022-01-28_17h31.32.433,lexical_decision_task_DD,2021.2.3,MacIntel,60.0024001,,,,,,,,,,,1.7398,1,,,,,,,,,,,,,,m,1,1.7398,,,,,,,,0.121861979,-0.373311632,0,0,0,,0,143,143,70,1,URINE,HB,old,m,./images/URINEHB.png,,,,,,,,,,,,,,,,,,,,,,
,,,,,,,,,,,,,,,,,199060,18,2022-01-28_17h31.32.433,lexical_decision_task_DD,2021.2.3,MacIntel,60.0024001,,,,,,,,,,,1.1331,1,,,,,,,,,,,,,,m,1,1.1331,,,,,,,,0.121861979,-0.373311632,0,0,0,,0,144,144,14,1,PICKLE,LB,old,m,./images/PICKLELB.png,,,,,,,,,,,,,,,,,,,,,,
,,,,,,,,,,,,,,,,,199060,18,2022-01-28_17h31.32.433,lexical_decision_task_DD,2021.2.3,MacIntel,60.0024001,,,,,,,,,,,3.3406,1,,,,,,,,,,,,,,z,1,3.3406,,,,,,,,0.121861979,-0.373311632,0,0,0,,0,145,145,138,1,PLICE,C,old,z,./images/PLICE.png,,,,,,,,,,,,,,,,,,,,,,
,,,,,,,,,,,,,,,,,199060,18,2022-01-28_17h31.32.433,lexical_decision_task_DD,2021.2.3,MacIntel,60.0024001,,,,,,,,,,,0.7235,1,,,,,,,,,,,,,,z,1,0.7235,,,,,,,,0.121861979,-0.373311632,0,0,0,,0,146,146,143,1,MONGS,LB,old,z,./images/MONGSLB.png,,,,,,,,,,,,,,,,,,,,,,
,,,,,,,,,,,,,,,,,199060,18,2022-01-28_17h31.32.433,lexical_decision_task_DD,2021.2.3,MacIntel,60.0024001,,,,,,,,,,,0.776,1,,,,,,,,,,,,,,z,1,0.776,,,,,,,,0.121861979,-0.373311632,0,0,0,,0,147,147,144,1,NAIRY,C,old,z,./images/NAIRY.png,,,,,,,,,,,,,,,,,,,,,,
,,,,,,,,,,,,,,,,,199060,18,2022-01-28_17h31.32.433,lexical_decision_task_DD,2021.2.3,MacIntel,60.0024001,,,,,,,,,,,2.7569,1,,,,,,,,,,,,,,m,1,2.7569,,,,,,,,0.121861979,-0.373311632,0,0,0,,0,148,148,58,1,BABOON,HB,old,m,./images/BABOONHB.png,,,,,,,,,,,,,,,,,,,,,,
,,,,,,,,,,,,,,,,,199060,18,2022-01-28_17h31.32.433,lexical_decision_task_DD,2021.2.3,MacIntel,60.0024001,,,,,,,,,,,1.284,1,,,,,,,,,,,,,,m,1,1.284,,,,,,,,0.121861979,-0.373311632,0,0,0,,0,149,149,31,1,QUILL,HB,old,m,./images/QUILLHB.png,,,,,,,,,,,,,,,,,,,,,,
,,,,,,,,,,,,,,,,,199060,18,2022-01-28_17h31.32.433,lexical_decision_task_DD,2021.2.3,MacIntel,60.0024001,,,,,,,,,,,0.9304,1,,,,,,,,,,,,,,m,1,0.9304,,,,,,,,0.121861979,-0.373311632,0,0,0,,0,150,150,22,1,MELON,HB,old,m,./images/MELONHB.png,,,,,,,,,,,,,,,,,,,,,,
,,,,,,,,,,,,,,,,,199060,18,2022-01-28_17h31.32.433,lexical_decision_task_DD,2021.2.3,MacIntel,60.0024001,,,,,,,,,,,1.0195,1,,,,,,,,,,,,,,m,1,1.0195,,,,,,,,0.121861979,-0.373311632,0,0,0,,0,151,151,6,1,SQUARE,C,old,m,./images/SQUARE.png,,,,,,,,,,,,,,,,,,,,,,
,,,,,,,,,,,,,,,,,199060,18,2022-01-28_17h31.32.433,lexical_decision_task_DD,2021.2.3,MacIntel,60.0024001,,,,,,,,,,,1.0458,1,,,,,,,,,,,,,,z,1,1.0458,,,,,,,,0.121861979,-0.373311632,0,0,0,,0,152,152,162,1,LEICH,C,old,z,./images/LEICH.png,,,,,,,,,,,,,,,,,,,,,,
,,,,,,,,,,,,,,,,,199060,18,2022-01-28_17h31.32.433,lexical_decision_task_DD,2021.2.3,MacIntel,60.0024001,,,,,,,,,,,0.753,1,,,,,,,,,,,,,,z,1,0.753,,,,,,,,0.121861979,-0.373311632,0,0,0,,0,153,153,107,1,FASKS,LB,old,z,./images/FASKSLB.png,,,,,,,,,,,,,,,,,,,,,,
,,,,,,,,,,,,,,,,,199060,18,2022-01-28_17h31.32.433,lexical_decision_task_DD,2021.2.3,MacIntel,60.0024001,,,,,,,,,,,0.8042,1,,,,,,,,,,,,,,z,1,0.8042,,,,,,,,0.121861979,-0.373311632,0,0,0,,0,154,154,150,1,NOOLS,C,old,z,./images/NOOLS.png,,,,,,,,,,,,,,,,,,,,,,
,,,,,,,,,,,,,,,,,199060,18,2022-01-28_17h31.32.433,lexical_decision_task_DD,2021.2.3,MacIntel,60.0024001,,,,,,,,,,,1.25,1,,,,,,,,,,,,,,m,1,1.25,,,,,,,,0.121861979,-0.373311632,0,0,0,,0,155,155,62,1,PURSE,LB,old,m,./images/PURSELB.png,,,,,,,,,,,,,,,,,,,,,,
,,,,,,,,,,,,,,,,,199060,18,2022-01-28_17h31.32.433,lexical_decision_task_DD,2021.2.3,MacIntel,60.0024001,,,,,,,,,,,1.2762,1,,,,,,,,,,,,,,z,1,1.2762,,,,,,,,0.121861979,-0.373311632,0,0,0,,0,156,156,141,1,PLEET,C,old,z,./images/PLEET.png,,,,,,,,,,,,,,,,,,,,,,
,,,,,,,,,,,,,,,,,199060,18,2022-01-28_17h31.32.433,lexical_decision_task_DD,2021.2.3,MacIntel,60.0024001,,,,,,,,,,,1.0891,1,,,,,,,,,,,,,,m,1,1.0891,,,,,,,,0.121861979,-0.373311632,0,0,0,,0,157,157,48,1,SPORT,C,old,m,./images/SPORT.png,,,,,,,,,,,,,,,,,,,,,,
,,,,,,,,,,,,,,,,,199060,18,2022-01-28_17h31.32.433,lexical_decision_task_DD,2021.2.3,MacIntel,60.0024001,,,,,,,,,,,0.7889,1,,,,,,,,,,,,,,z,1,0.7889,,,,,,,,0.121861979,-0.373311632,0,0,0,,0,158,158,123,1,SEDGE,C,old,z,./images/SEDGE.png,,,,,,,,,,,,,,,,,,,,,,
,,,,,,,,,,,,,,,,,199060,18,2022-01-28_17h31.32.433,lexical_decision_task_DD,2021.2.3,MacIntel,60.0024001,,,,,,,,,,,0.8043,1,,,,,,,,,,,,,,m,1,0.8043,,,,,,,,0.121861979,-0.373311632,0,0,0,,0,159,159,66,1,SWEAT,C,old,m,./images/SWEAT.png,,,,,,,,,,,,,,,,,,,,,,
,,,,,,,,,,,,,,,,,199060,18,2022-01-28_17h31.32.433,lexical_decision_task_DD,2021.2.3,MacIntel,60.0024001,,,,,,,,,,,0.6829,1,,,,,,,,,,,,,,z,1,0.6829,,,,,,,,0.121861979,-0.373311632,0,0,0,,0,160,160,164,1,SGREW,LB,old,z,./images/SGREWLB.png,,,,,,,,,,,,,,,,,,,,,,
,,,,,,,,,,,,,,,,,199060,18,2022-01-28_17h31.32.433,lexical_decision_task_DD,2021.2.3,MacIntel,60.0024001,,,,,,,,,,,0.8327,1,,,,,,,,,,,,,,m,1,0.8327,,,,,,,,0.121861979,-0.373311632,0,0,0,,0,161,161,20,1,CRADLE,LB,old,m,./images/CRADLELB.png,,,,,,,,,,,,,,,,,,,,,,
,,,,,,,,,,,,,,,,,199060,18,2022-01-28_17h31.32.433,lexical_decision_task_DD,2021.2.3,MacIntel,60.0024001,,,,,,,,,,,1.2295,1,,,,,,,,,,,,,,m,1,1.2295,,,,,,,,0.121861979,-0.373311632,0,0,0,,0,162,162,67,1,SAILOR,HB,old,m,./images/SAILORHB.png,,,,,,,,,,,,,,,,,,,,,,
,,,,,,,,,,,,,,,,,199060,18,2022-01-28_17h31.32.433,lexical_decision_task_DD,2021.2.3,MacIntel,60.0024001,,,,,,,,,,,0.9143,1,,,,,,,,,,,,,,m,1,0.9143,,,,,,,,0.121861979,-0.373311632,0,0,0,,0,163,163,11,1,BONNET,LB,old,m,./images/BONNETLB.png,,,,,,,,,,,,,,,,,,,,,,
,,,,,,,,,,,,,,,,,199060,18,2022-01-28_17h31.32.433,lexical_decision_task_DD,2021.2.3,MacIntel,60.0024001,,,,,,,,,,,0.8182,1,,,,,,,,,,,,,,m,1,0.8182,,,,,,,,0.121861979,-0.373311632,0,0,0,,0,164,164,71,1,PIMPLE,LB,old,m,./images/PIMPLELB.png,,,,,,,,,,,,,,,,,,,,,,
,,,,,,,,,,,,,,,,,199060,18,2022-01-28_17h31.32.433,lexical_decision_task_DD,2021.2.3,MacIntel,60.0024001,,,,,,,,,,,0.8327,1,,,,,,,,,,,,,,m,1,0.8327,,,,,,,,0.121861979,-0.373311632,0,0,0,,0,165,165,53,1,CARPET,LB,old,m,./images/CARPETLB.png,,,,,,,,,,,,,,,,,,,,,,
,,,,,,,,,,,,,,,,,199060,18,2022-01-28_17h31.32.433,lexical_decision_task_DD,2021.2.3,MacIntel,60.0024001,,,,,,,,,,,0.7883,1,,,,,,,,,,,,,,z,1,0.7883,,,,,,,,0.121861979,-0.373311632,0,0,0,,0,166,166,102,1,DULLE,C,old,z,./images/DULLE.png,,,,,,,,,,,,,,,,,,,,,,
,,,,,,,,,,,,,,,,,199060,18,2022-01-28_17h31.32.433,lexical_decision_task_DD,2021.2.3,MacIntel,60.0024001,,,,,,,,,,,2.9166,1,,,,,,,,,,,,,,z,1,2.9166,,,,,,,,0.121861979,-0.373311632,0,0,0,,0,167,167,160,1,VEETS,HB,old,z,./images/VEETSHB.png,,,,,,,,,,,,,,,,,,,,,,
space,20.3932,0.121861979,-0.373311632,0,0,0,,,,,,1,test,"In the next phase you will be presented with the words from the the first phase. Your job is to decide whether you remember seeing the word or not. If you remember seeing the word press ""old"" or type ""m"". If you do not remember seeing the word press ""new"" or type ""z"". Please press the space bar or click on continue to begin. ",,,199060,18,2022-01-28_17h31.32.433,lexical_decision_task_DD,2021.2.3,MacIntel,60.0024001,,,,,,,,,,,,,,,,,,,,,,,,,,,,,,,,,,,,,,,,,,,,,,,,,,,,,0,0,0,0,1,,,,,,,,,,,,,,,,
space,3.9879,0.117122396,-0.379440104,0,0,0,,,,,,1,test,"In the next phase you will be presented with the words from the the first phase. Your job is to decide whether you remember seeing the word or not. If you remember seeing the word press ""old"" or type ""m"". If you do not remember seeing the word press ""new"" or type ""z"". Please press the space bar or click on continue to begin. ",,,199060,18,2022-01-28_17h31.32.433,lexical_decision_task_DD,2021.2.3,MacIntel,60.0024001,,,,,,,,,,,,,,,,,,,,,,,,,,,,,,,,,,,,,,,,,,,,,,,,,,,,,1,0,1,0,1,,,,,,,,,,,,,,,,
,,0.117122396,-0.379440104,1,0,0,,,,,,1,test,"In the next phase you will be presented with the words from the the first phase. Your job is to decide whether you remember seeing the word or not. If you remember seeing the word press ""old"" or type ""m"". If you do not remember seeing the word press ""new"" or type ""z"". Please press the space bar or click on continue to begin. ",,,199060,18,2022-01-28_17h31.32.433,lexical_decision_task_DD,2021.2.3,MacIntel,60.0024001,,,,,,,,,,,,,,,,,,,,,,,,,,,,,,,,,,,,,,,,,,,,,,,,,,,,,2,0,2,0,1,instr_done_button,,,,,,,,,,,,,,,
space,2.1213,0.192482639,-0.096349826,0,0,0,,,,,,1,test,"In the next phase you will be presented with the words from the the first phase. Your job is to decide whether you remember seeing the word or not. If you remember seeing the word press ""old"" or type ""m"". If you do not remember seeing the word press ""new"" or type ""z"". Please press the space bar or click on continue to begin. ",,,199060,18,2022-01-28_17h31.32.433,lexical_decision_task_DD,2021.2.3,MacIntel,60.0024001,,,,,,,,,,,,,,,,,,,,,,,,,,,,,,,,,,,,,,,,,,,,,,,,,,,,,3,0,3,0,1,,,,,,,,,,,,,,,,
space,0.1859,0.192482639,-0.096349826,0,0,0,,,,,,1,test,"In the next phase you will be presented with the words from the the first phase. Your job is to decide whether you remember seeing the word or not. If you remember seeing the word press ""old"" or type ""m"". If you do not remember seeing the word press ""new"" or type ""z"". Please press the space bar or click on continue to begin. ",,,199060,18,2022-01-28_17h31.32.433,lexical_decision_task_DD,2021.2.3,MacIntel,60.0024001,,,,,,,,,,,,,,,,,,,,,,,,,,,,,,,,,,,,,,,,,,,,,,,,,,,,,4,0,4,0,1,,,,,,,,,,,,,,,,
,,,,,,,,,,,,,,,,,199060,18,2022-01-28_17h31.32.433,lexical_decision_task_DD,2021.2.3,MacIntel,60.0024001,,,,,,,,,,,3.1644,1,,,,,,,,,,,,,,,,,,,,,,,,0.192482639,-0.096349826,0,0,0,,,,,,,PEARL,HB,m,m,./images/PEARLHB.png,,,,,,,,m,1,3.1644,,,,,,,,0,0,0,46,1
,,,,,,,,,,,,,,,,,199060,18,2022-01-28_17h31.32.433,lexical_decision_task_DD,2021.2.3,MacIntel,60.0024001,,,,,,,,,,,1.5511,1,,,,,,,,,,,,,,,,,,,,,,,,0.192482639,-0.096349826,0,0,0,,,,,,,POODLE,C,m,m,./images/POODLE.png,,,,,,,,m,1,1.5511,,,,,,,,0,1,1,81,1
,,,,,,,,,,,,,,,,,199060,18,2022-01-28_17h31.32.433,lexical_decision_task_DD,2021.2.3,MacIntel,60.0024001,,,,,,,,,,,3.9691,1,,,,,,,,,,,,,,,,,,,,,,,,0.192482639,-0.096349826,0,0,0,,,,,,,WALNUT,C,z,m,./images/WALNUT.png,,,,,,,,z,1,3.9691,,,,,,,,0,2,2,84,1
,,,,,,,,,,,,,,,,,199060,18,2022-01-28_17h31.32.433,lexical_decision_task_DD,2021.2.3,MacIntel,60.0024001,,,,,,,,,,,1.2523,0,,,,,,,,,,,,,,,,,,,,,,,,0.192482639,-0.096349826,0,0,0,,,,,,,FLASK,C,z,m,./images/FLASK.png,,,,,,,,m,0,1.2523,,,,,,,,0,3,3,156,1
,,,,,,,,,,,,,,,,,199060,18,2022-01-28_17h31.32.433,lexical_decision_task_DD,2021.2.3,MacIntel,60.0024001,,,,,,,,,,,0.8329,1,,,,,,,,,,,,,,,,,,,,,,,,0.192482639,-0.096349826,0,0,0,,,,,,,PIMPLE,LB,m,m,./images/PIMPLELB.png,,,,,,,,m,1,0.8329,,,,,,,,0,4,4,71,1
,,,,,,,,,,,,,,,,,199060,18,2022-01-28_17h31.32.433,lexical_decision_task_DD,2021.2.3,MacIntel,60.0024001,,,,,,,,,,,1.6338,1,,,,,,,,,,,,,,,,,,,,,,,,0.192482639,-0.096349826,0,0,0,,,,,,,HAMMER,C,z,m,./images/HAMMER.png,,,,,,,,z,1,1.6338,,,,,,,,0,5,5,159,1
,,,,,,,,,,,,,,,,,199060,18,2022-01-28_17h31.32.433,lexical_decision_task_DD,2021.2.3,MacIntel,60.0024001,,,,,,,,,,,1.1439,1,,,,,,,,,,,,,,,,,,,,,,,,0.192482639,-0.096349826,0,0,0,,,,,,,CRUST,HB,m,m,./images/CRUSTHB.png,,,,,,,,m,1,1.1439,,,,,,,,0,6,6,79,1
,,,,,,,,,,,,,,,,,199060,18,2022-01-28_17h31.32.433,lexical_decision_task_DD,2021.2.3,MacIntel,60.0024001,,,,,,,,,,,1.0801,1,,,,,,,,,,,,,,,,,,,,,,,,0.192482639,-0.096349826,0,0,0,,,,,,,BAMBOO,LB,z,m,./images/BAMBOOLB.png,,,,,,,,z,1,1.0801,,,,,,,,0,7,7,89,1
,,,,,,,,,,,,,,,,,199060,18,2022-01-28_17h31.32.433,lexical_decision_task_DD,2021.2.3,MacIntel,60.0024001,,,,,,,,,,,1.5027,0,,,,,,,,,,,,,,,,,,,,,,,,0.192482639,-0.096349826,0,0,0,,,,,,,BIRTH,HB,m,m,./images/BIRTHHB.png,,,,,,,,z,0,1.5027,,,,,,,,0,8,8,37,1
,,,,,,,,,,,,,,,,,199060,18,2022-01-28_17h31.32.433,lexical_decision_task_DD,2021.2.3,MacIntel,60.0024001,,,,,,,,,,,1.2677,1,,,,,,,,,,,,,,,,,,,,,,,,0.192482639,-0.096349826,0,0,0,,,,,,,PLANET,LB,z,m,./images/PLANETLB.png,,,,,,,,z,1,1.2677,,,,,,,,0,9,9,164,1
,,,,,,,,,,,,,,,,,199060,18,2022-01-28_17h31.32.433,lexical_decision_task_DD,2021.2.3,MacIntel,60.0024001,,,,,,,,,,,0.8158,1,,,,,,,,,,,,,,,,,,,,,,,,0.192482639,-0.096349826,0,0,0,,,,,,,CANDY,C,z,m,./images/CANDY.png,,,,,,,,z,1,0.8158,,,,,,,,0,10,10,123,1
,,,,,,,,,,,,,,,,,199060,18,2022-01-28_17h31.32.433,lexical_decision_task_DD,2021.2.3,MacIntel,60.0024001,,,,,,,,,,,0.8899,1,,,,,,,,,,,,,,,,,,,,,,,,0.192482639,-0.096349826,0,0,0,,,,,,,PARCEL,C,z,m,./images/PARCEL.png,,,,,,,,z,1,0.8899,,,,,,,,0,11,11,102,1
,,,,,,,,,,,,,,,,,199060,18,2022-01-28_17h31.32.433,lexical_decision_task_DD,2021.2.3,MacIntel,60.0024001,,,,,,,,,,,1.0039,0,,,,,,,,,,,,,,,,,,,,,,,,0.192482639,-0.096349826,0,0,0,,,,,,,SQUARE,C,m,m,./images/SQUARE.png,,,,,,,,z,0,1.0039,,,,,,,,0,12,12,6,1
,,,,,,,,,,,,,,,,,199060,18,2022-01-28_17h31.32.433,lexical_decision_task_DD,2021.2.3,MacIntel,60.0024001,,,,,,,,,,,1.0004,0,,,,,,,,,,,,,,,,,,,,,,,,0.192482639,-0.096349826,0,0,0,,,,,,,PILOT,LB,z,m,./images/PILOTLB.png,,,,,,,,m,0,1.0004,,,,,,,,0,13,13,134,1
,,,,,,,,,,,,,,,,,199060,18,2022-01-28_17h31.32.433,lexical_decision_task_DD,2021.2.3,MacIntel,60.0024001,,,,,,,,,,,1.0574,0,,,,,,,,,,,,,,,,,,,,,,,,0.192482639,-0.096349826,0,0,0,,,,,,,VALLEY,LB,z,m,./images/VALLEYLB.png,,,,,,,,m,0,1.0574,,,,,,,,0,14,14,152,1
,,,,,,,,,,,,,,,,,199060,18,2022-01-28_17h31.32.433,lexical_decision_task_DD,2021.2.3,MacIntel,60.0024001,,,,,,,,,,,1.2735,1,,,,,,,,,,,,,,,,,,,,,,,,0.192482639,-0.096349826,0,0,0,,,,,,,ARTIST,HB,z,m,./images/ARTISTHB.png,,,,,,,,z,1,1.2735,,,,,,,,0,15,15,145,1
,,,,,,,,,,,,,,,,,199060,18,2022-01-28_17h31.32.433,lexical_decision_task_DD,2021.2.3,MacIntel,60.0024001,,,,,,,,,,,0.997,1,,,,,,,,,,,,,,,,,,,,,,,,0.192482639,-0.096349826,0,0,0,,,,,,,DOUGH,HB,m,m,./images/DOUGHHB.png,,,,,,,,m,1,0.997,,,,,,,,0,16,16,19,1
,,,,,,,,,,,,,,,,,199060,18,2022-01-28_17h31.32.433,lexical_decision_task_DD,2021.2.3,MacIntel,60.0024001,,,,,,,,,,,3.2999,1,,,,,,,,,,,,,,,,,,,,,,,,0.192482639,-0.096349826,0,0,0,,,,,,,GARDEN,HB,z,m,./images/GARDENHB.png,,,,,,,,z,1,3.2999,,,,,,,,0,17,17,94,1
,,,,,,,,,,,,,,,,,199060,18,2022-01-28_17h31.32.433,lexical_decision_task_DD,2021.2.3,MacIntel,60.0024001,,,,,,,,,,,1.3003,1,,,,,,,,,,,,,,,,,,,,,,,,0.192482639,-0.096349826,0,0,0,,,,,,,WEASEL,LB,m,m,./images/WEASELLB.png,,,,,,,,m,1,1.3003,,,,,,,,0,18,18,80,1
,,,,,,,,,,,,,,,,,199060,18,2022-01-28_17h31.32.433,lexical_decision_task_DD,2021.2.3,MacIntel,60.0024001,,,,,,,,,,,0.8061,1,,,,,,,,,,,,,,,,,,,,,,,,0.192482639,-0.096349826,0,0,0,,,,,,,ARROW,C,z,m,./images/ARROW.png,,,,,,,,z,1,0.8061,,,,,,,,0,19,19,153,1
,,,,,,,,,,,,,,,,,199060,18,2022-01-28_17h31.32.433,lexical_decision_task_DD,2021.2.3,MacIntel,60.0024001,,,,,,,,,,,1.1729,1,,,,,,,,,,,,,,,,,,,,,,,,0.192482639,-0.096349826,0,0,0,,,,,,,TORCH,LB,m,m,./images/TORCHLB.png,,,,,,,,m,1,1.1729,,,,,,,,0,20,20,68,1
,,,,,,,,,,,,,,,,,199060,18,2022-01-28_17h31.32.433,lexical_decision_task_DD,2021.2.3,MacIntel,60.0024001,,,,,,,,,,,0.7034,1,,,,,,,,,,,,,,,,,,,,,,,,0.192482639,-0.096349826,0,0,0,,,,,,,LIZARD,LB,m,m,./images/LIZARDLB.png,,,,,,,,m,1,0.7034,,,,,,,,0,21,21,44,1
,,,,,,,,,,,,,,,,,199060,18,2022-01-28_17h31.32.433,lexical_decision_task_DD,2021.2.3,MacIntel,60.0024001,,,,,,,,,,,0.919,0,,,,,,,,,,,,,,,,,,,,,,,,0.192482639,-0.096349826,0,0,0,,,,,,,PICKLE,LB,m,m,./images/PICKLELB.png,,,,,,,,z,0,0.919,,,,,,,,0,22,22,14,1
,,,,,,,,,,,,,,,,,199060,18,2022-01-28_17h31.32.433,lexical_decision_task_DD,2021.2.3,MacIntel,60.0024001,,,,,,,,,,,0.802,0,,,,,,,,,,,,,,,,,,,,,,,,0.192482639,-0.096349826,0,0,0,,,,,,,SLOPE,C,z,m,./images/SLOPE.png,,,,,,,,m,0,0.802,,,,,,,,0,23,23,114,1
,,,,,,,,,,,,,,,,,199060,18,2022-01-28_17h31.32.433,lexical_decision_task_DD,2021.2.3,MacIntel,60.0024001,,,,,,,,,,,0.9515,1,,,,,,,,,,,,,,,,,,,,,,,,0.192482639,-0.096349826,0,0,0,,,,,,,WHISKY,LB,z,m,./images/WHISKYLB.png,,,,,,,,z,1,0.9515,,,,,,,,0,24,24,167,1
,,,,,,,,,,,,,,,,,199060,18,2022-01-28_17h31.32.433,lexical_decision_task_DD,2021.2.3,MacIntel,60.0024001,,,,,,,,,,,1.0466,1,,,,,,,,,,,,,,,,,,,,,,,,0.192482639,-0.096349826,0,0,0,,,,,,,TOMATO,C,m,m,./images/TOMATO.png,,,,,,,,m,1,1.0466,,,,,,,,0,25,25,0,1
,,,,,,,,,,,,,,,,,199060,18,2022-01-28_17h31.32.433,lexical_decision_task_DD,2021.2.3,MacIntel,60.0024001,,,,,,,,,,,1.2846,0,,,,,,,,,,,,,,,,,,,,,,,,0.192482639,-0.096349826,0,0,0,,,,,,,STOVE,LB,z,m,./images/STOVELB.png,,,,,,,,m,0,1.2846,,,,,,,,0,26,26,86,1
,,,,,,,,,,,,,,,,,199060,18,2022-01-28_17h31.32.433,lexical_decision_task_DD,2021.2.3,MacIntel,60.0024001,,,,,,,,,,,1.1531,1,,,,,,,,,,,,,,,,,,,,,,,,0.192482639,-0.096349826,0,0,0,,,,,,,FALCON,HB,m,m,./images/FALCONHB.png,,,,,,,,m,1,1.1531,,,,,,,,0,27,27,28,1
,,,,,,,,,,,,,,,,,199060,18,2022-01-28_17h31.32.433,lexical_decision_task_DD,2021.2.3,MacIntel,60.0024001,,,,,,,,,,,0.8918,1,,,,,,,,,,,,,,,,,,,,,,,,0.194357639,-0.096349826,0,0,0,,,,,,,MALLET,LB,m,m,./images/MALLETLB.png,,,,,,,,m,1,0.8918,,,,,,,,0,28,28,50,1
,,,,,,,,,,,,,,,,,199060,18,2022-01-28_17h31.32.433,lexical_decision_task_DD,2021.2.3,MacIntel,60.0024001,,,,,,,,,,,0.864,1,,,,,,,,,,,,,,,,,,,,,,,,0.194613715,-0.096349826,0,0,0,,,,,,,URINE,HB,m,m,./images/URINEHB.png,,,,,,,,m,1,0.864,,,,,,,,0,29,29,70,1
,,,,,,,,,,,,,,,,,199060,18,2022-01-28_17h31.32.433,lexical_decision_task_DD,2021.2.3,MacIntel,60.0024001,,,,,,,,,,,0.6472,1,,,,,,,,,,,,,,,,,,,,,,,,0.194613715,-0.096349826,0,0,0,,,,,,,GREASE,C,m,m,./images/GREASE.png,,,,,,,,m,1,0.6472,,,,,,,,0,30,30,15,1
,,,,,,,,,,,,,,,,,199060,18,2022-01-28_17h31.32.433,lexical_decision_task_DD,2021.2.3,MacIntel,60.0024001,,,,,,,,,,,1.0252,1,,,,,,,,,,,,,,,,,,,,,,,,0.194613715,-0.096349826,0,0,0,,,,,,,BUBBLE,LB,z,m,./images/BUBBLELB.png,,,,,,,,z,1,1.0252,,,,,,,,0,31,31,155,1
,,,,,,,,,,,,,,,,,199060,18,2022-01-28_17h31.32.433,lexical_decision_task_DD,2021.2.3,MacIntel,60.0024001,,,,,,,,,,,3.0673,1,,,,,,,,,,,,,,,,,,,,,,,,0.194613715,-0.096349826,0,0,0,,,,,,,BUTTER,C,z,m,./images/BUTTER.png,,,,,,,,z,1,3.0673,,,,,,,,0,32,32,111,1
,,,,,,,,,,,,,,,,,199060,18,2022-01-28_17h31.32.433,lexical_decision_task_DD,2021.2.3,MacIntel,60.0024001,,,,,,,,,,,1.3683,0,,,,,,,,,,,,,,,,,,,,,,,,0.194613715,-0.096349826,0,0,0,,,,,,,PASTA,LB,m,m,./images/PASTALB.png,,,,,,,,z,0,1.3683,,,,,,,,0,33,33,5,1
,,,,,,,,,,,,,,,,,199060,18,2022-01-28_17h31.32.433,lexical_decision_task_DD,2021.2.3,MacIntel,60.0024001,,,,,,,,,,,0.6814,0,,,,,,,,,,,,,,,,,,,,,,,,0.194613715,-0.096349826,0,0,0,,,,,,,SWING,HB,m,m,./images/SWINGHB.png,,,,,,,,z,0,0.6814,,,,,,,,0,34,34,40,1
,,,,,,,,,,,,,,,,,199060,18,2022-01-28_17h31.32.433,lexical_decision_task_DD,2021.2.3,MacIntel,60.0024001,,,,,,,,,,,0.9407,0,,,,,,,,,,,,,,,,,,,,,,,,0.193307292,-0.096883681,0,0,0,,,,,,,CLOTH,LB,z,m,./images/CLOTHLB.png,,,,,,,,m,0,0.9407,,,,,,,,0,35,35,107,1
,,,,,,,,,,,,,,,,,199060,18,2022-01-28_17h31.32.433,lexical_decision_task_DD,2021.2.3,MacIntel,60.0024001,,,,,,,,,,,0.9172,1,,,,,,,,,,,,,,,,,,,,,,,,0.189644097,-0.098250868,0,0,0,,,,,,,TWINS,C,m,m,./images/TWINS.png,,,,,,,,m,1,0.9172,,,,,,,,0,36,36,60,1
,,,,,,,,,,,,,,,,,199060,18,2022-01-28_17h31.32.433,lexical_decision_task_DD,2021.2.3,MacIntel,60.0024001,,,,,,,,,,,0.897,1,,,,,,,,,,,,,,,,,,,,,,,,0.189644097,-0.098250868,0,0,0,,,,,,,SWEAT,C,m,m,./images/SWEAT.png,,,,,,,,m,1,0.897,,,,,,,,0,37,37,66,1
,,,,,,,,,,,,,,,,,199060,18,2022-01-28_17h31.32.433,lexical_decision_task_DD,2021.2.3,MacIntel,60.0024001,,,,,,,,,,,0.9998,0,,,,,,,,,,,,,,,,,,,,,,,,0.189644097,-0.098250868,0,0,0,,,,,,,BISHOP,HB,z,m,./images/BISHOPHB.png,,,,,,,,m,0,0.9998,,,,,,,,0,38,38,133,1
,,,,,,,,,,,,,,,,,199060,18,2022-01-28_17h31.32.433,lexical_decision_task_DD,2021.2.3,MacIntel,60.0024001,,,,,,,,,,,1.1836,1,,,,,,,,,,,,,,,,,,,,,,,,0.189644097,-0.098250868,0,0,0,,,,,,,BERRY,LB,m,m,./images/BERRYLB.png,,,,,,,,m,1,1.1836,,,,,,,,0,39,39,47,1
,,,,,,,,,,,,,,,,,199060,18,2022-01-28_17h31.32.433,lexical_decision_task_DD,2021.2.3,MacIntel,60.0024001,,,,,,,,,,,0.799,1,,,,,,,,,,,,,,,,,,,,,,,,0.189644097,-0.098250868,0,0,0,,,,,,,THROAT,C,m,m,./images/THROAT.png,,,,,,,,m,1,0.799,,,,,,,,0,40,40,36,1
,,,,,,,,,,,,,,,,,199060,18,2022-01-28_17h31.32.433,lexical_decision_task_DD,2021.2.3,MacIntel,60.0024001,,,,,,,,,,,0.8813,0,,,,,,,,,,,,,,,,,,,,,,,,0.189644097,-0.098250868,0,0,0,space,,,,,,RHINO,C,m,m,./images/RHINO.png,20.302,,,,,,,z,0,0.8813,,,,,,,,0,41,41,9,1
,,,,,,,,,,,,,,,,,199060,18,2022-01-28_17h31.32.433,lexical_decision_task_DD,2021.2.3,MacIntel,60.0024001,,,,,,,,,,,2.3718,1,,,,,,,,,,,,,,,,,,,,,,,,0.189644097,-0.098250868,0,0,0,,,,,,,SMOKER,LB,m,m,./images/SMOKERLB.png,,,,,,,,m,1,2.3718,,,,,,,,0,42,42,26,1
,,,,,,,,,,,,,,,,,199060,18,2022-01-28_17h31.32.433,lexical_decision_task_DD,2021.2.3,MacIntel,60.0024001,,,,,,,,,,,0.8698,1,,,,,,,,,,,,,,,,,,,,,,,,0.189644097,-0.098250868,0,0,0,,,,,,,INFANT,HB,m,m,./images/INFANTHB.png,,,,,,,,m,1,0.8698,,,,,,,,0,43,43,76,1
,,,,,,,,,,,,,,,,,199060,18,2022-01-28_17h31.32.433,lexical_decision_task_DD,2021.2.3,MacIntel,60.0024001,,,,,,,,,,,1.7519,1,,,,,,,,,,,,,,,,,,,,,,,,0.189644097,-0.098250868,0,0,0,,,,,,,PEACH,LB,m,m,./images/PEACHLB.png,,,,,,,,m,1,1.7519,,,,,,,,0,44,44,35,1
,,,,,,,,,,,,,,,,,199060,18,2022-01-28_17h31.32.433,lexical_decision_task_DD,2021.2.3,MacIntel,60.0024001,,,,,,,,,,,0.9824,1,,,,,,,,,,,,,,,,,,,,,,,,0.189644097,-0.098250868,0,0,0,,,,,,,CURRY,C,z,m,./images/CURRY.png,,,,,,,,z,1,0.9824,,,,,,,,0,45,45,144,1
,,,,,,,,,,,,,,,,,199060,18,2022-01-28_17h31.32.433,lexical_decision_task_DD,2021.2.3,MacIntel,60.0024001,,,,,,,,,,,1.9014,0,,,,,,,,,,,,,,,,,,,,,,,,0.189644097,-0.098250868,0,0,0,,,,,,,MELON,HB,m,m,./images/MELONHB.png,,,,,,,,z,0,1.9014,,,,,,,,0,46,46,22,1
,,,,,,,,,,,,,,,,,199060,18,2022-01-28_17h31.32.433,lexical_decision_task_DD,2021.2.3,MacIntel,60.0024001,,,,,,,,,,,2.4642,1,,,,,,,,,,,,,,,,,,,,,,,,0.189644097,-0.098250868,0,0,0,,,,,,,SCREW,C,m,m,./images/SCREW.png,,,,,,,,m,1,2.4642,,,,,,,,0,47,47,24,1
,,,,,,,,,,,,,,,,,199060,18,2022-01-28_17h31.32.433,lexical_decision_task_DD,2021.2.3,MacIntel,60.0024001,,,,,,,,,,,2.1818,0,,,,,,,,,,,,,,,,,,,,,,,,0.189644097,-0.098250868,0,0,0,,,,,,,ATTIC,C,m,m,./images/ATTIC.png,,,,,,,,z,0,2.1818,,,,,,,,0,48,48,27,1
,,,,,,,,,,,,,,,,,199060,18,2022-01-28_17h31.32.433,lexical_decision_task_DD,2021.2.3,MacIntel,60.0024001,,,,,,,,,,,0.9288,1,,,,,,,,,,,,,,,,,,,,,,,,0.189644097,-0.098250868,0,0,0,,,,,,,GRANNY,LB,z,m,./images/GRANNYLB.png,,,,,,,,z,1,0.9288,,,,,,,,0,49,49,104,1
,,,,,,,,,,,,,,,,,199060,18,2022-01-28_17h31.32.433,lexical_decision_task_DD,2021.2.3,MacIntel,60.0024001,,,,,,,,,,,0.7822,1,,,,,,,,,,,,,,,,,,,,,,,,0.189644097,-0.098250868,0,0,0,,,,,,,BURIAL,LB,m,m,./images/BURIALLB.png,,,,,,,,m,1,0.7822,,,,,,,,0,50,50,59,1
,,,,,,,,,,,,,,,,,199060,18,2022-01-28_17h31.32.433,lexical_decision_task_DD,2021.2.3,MacIntel,60.0024001,,,,,,,,,,,1.4875,1,,,,,,,,,,,,,,,,,,,,,,,,0.189644097,-0.098250868,0,0,0,,,,,,,SHORE,C,m,m,./images/SHORE.png,,,,,,,,m,1,1.4875,,,,,,,,0,51,51,12,1
,,,,,,,,,,,,,,,,,199060,18,2022-01-28_17h31.32.433,lexical_decision_task_DD,2021.2.3,MacIntel,60.0024001,,,,,,,,,,,1.2228,0,,,,,,,,,,,,,,,,,,,,,,,,0.189644097,-0.098250868,0,0,0,,,,,,,LLAMA,LB,z,m,./images/LLAMALB.png,,,,,,,,m,0,1.2228,,,,,,,,0,52,52,119,1
,,,,,,,,,,,,,,,,,199060,18,2022-01-28_17h31.32.433,lexical_decision_task_DD,2021.2.3,MacIntel,60.0024001,,,,,,,,,,,1.1173,1,,,,,,,,,,,,,,,,,,,,,,,,0.189644097,-0.098250868,0,0,0,,,,,,,WALRUS,LB,m,m,./images/WALRUSLB.png,,,,,,,,m,1,1.1173,,,,,,,,0,53,53,23,1
,,,,,,,,,,,,,,,,,199060,18,2022-01-28_17h31.32.433,lexical_decision_task_DD,2021.2.3,MacIntel,60.0024001,,,,,,,,,,,2.8998,0,,,,,,,,,,,,,,,,,,,,,,,,0.189644097,-0.098250868,0,0,0,,,,,,,GRAIN,C,m,m,./images/GRAIN.png,,,,,,,,z,0,2.8998,,,,,,,,0,54,54,75,1
,,,,,,,,,,,,,,,,,199060,18,2022-01-28_17h31.32.433,lexical_decision_task_DD,2021.2.3,MacIntel,60.0024001,,,,,,,,,,,1.4161,1,,,,,,,,,,,,,,,,,,,,,,,,0.189644097,-0.098250868,0,0,0,,,,,,,SHELF,C,m,m,./images/SHELF.png,,,,,,,,m,1,1.4161,,,,,,,,0,55,55,39,1
,,,,,,,,,,,,,,,,,199060,18,2022-01-28_17h31.32.433,lexical_decision_task_DD,2021.2.3,MacIntel,60.0024001,,,,,,,,,,,1.0741,1,,,,,,,,,,,,,,,,,,,,,,,,0.189644097,-0.098250868,0,0,0,,,,,,,NOOSE,C,m,m,./images/NOOSE.png,,,,,,,,m,1,1.0741,,,,,,,,0,56,56,72,1
,,,,,,,,,,,,,,,,,199060,18,2022-01-28_17h31.32.433,lexical_decision_task_DD,2021.2.3,MacIntel,60.0024001,,,,,,,,,,,0.8553,0,,,,,,,,,,,,,,,,,,,,,,,,0.189644097,-0.098250868,0,0,0,,,,,,,DRILL,C,z,m,./images/DRILL.png,,,,,,,,m,0,0.8553,,,,,,,,0,57,57,165,1
,,,,,,,,,,,,,,,,,199060,18,2022-01-28_17h31.32.433,lexical_decision_task_DD,2021.2.3,MacIntel,60.0024001,,,,,,,,,,,1.0156,1,,,,,,,,,,,,,,,,,,,,,,,,0.189644097,-0.098250868,0,0,0,,,,,,,SUNSET,HB,m,m,./images/SUNSETHB.png,,,,,,,,m,1,1.0156,,,,,,,,0,58,58,82,1
,,,,,,,,,,,,,,,,,199060,18,2022-01-28_17h31.32.433,lexical_decision_task_DD,2021.2.3,MacIntel,60.0024001,,,,,,,,,,,1.2333,0,,,,,,,,,,,,,,,,,,,,,,,,0.189644097,-0.098250868,0,0,0,,,,,,,CRATER,C,z,m,./images/CRATER.png,,,,,,,,m,0,1.2333,,,,,,,,0,59,59,87,1
,,,,,,,,,,,,,,,,,199060,18,2022-01-28_17h31.32.433,lexical_decision_task_DD,2021.2.3,MacIntel,60.0024001,,,,,,,,,,,1.3477,1,,,,,,,,,,,,,,,,,,,,,,,,0.189644097,-0.098250868,0,0,0,,,,,,,BRUSH,LB,z,m,./images/BRUSHLB.png,,,,,,,,z,1,1.3477,,,,,,,,0,60,60,143,1
,,,,,,,,,,,,,,,,,199060,18,2022-01-28_17h31.32.433,lexical_decision_task_DD,2021.2.3,MacIntel,60.0024001,,,,,,,,,,,0.9358,1,,,,,,,,,,,,,,,,,,,,,,,,0.189644097,-0.098250868,0,0,0,,,,,,,BELLY,HB,m,m,./images/BELLYHB.png,,,,,,,,m,1,0.9358,,,,,,,,0,61,61,10,1
,,,,,,,,,,,,,,,,,199060,18,2022-01-28_17h31.32.433,lexical_decision_task_DD,2021.2.3,MacIntel,60.0024001,,,,,,,,,,,1.0881,1,,,,,,,,,,,,,,,,,,,,,,,,0.189644097,-0.098250868,0,0,0,,,,,,,LITTER,C,m,m,./images/LITTER.png,,,,,,,,m,1,1.0881,,,,,,,,0,62,62,78,1
,,,,,,,,,,,,,,,,,199060,18,2022-01-28_17h31.32.433,lexical_decision_task_DD,2021.2.3,MacIntel,60.0024001,,,,,,,,,,,0.9864,1,,,,,,,,,,,,,,,,,,,,,,,,0.189644097,-0.098250868,0,0,0,,,,,,,CHERRY,C,z,m,./images/CHERRY.png,,,,,,,,z,1,0.9864,,,,,,,,0,63,63,138,1
,,,,,,,,,,,,,,,,,199060,18,2022-01-28_17h31.32.433,lexical_decision_task_DD,2021.2.3,MacIntel,60.0024001,,,,,,,,,,,0.8179,1,,,,,,,,,,,,,,,,,,,,,,,,0.189644097,-0.098250868,0,0,0,,,,,,,BROOM,C,z,m,./images/BROOM.png,,,,,,,,z,1,0.8179,,,,,,,,0,64,64,162,1
,,,,,,,,,,,,,,,,,199060,18,2022-01-28_17h31.32.433,lexical_decision_task_DD,2021.2.3,MacIntel,60.0024001,,,,,,,,,,,0.8643,1,,,,,,,,,,,,,,,,,,,,,,,,0.189644097,-0.098250868,0,0,0,,,,,,,ONION,C,m,m,./images/ONION.png,,,,,,,,m,1,0.8643,,,,,,,,0,65,65,51,1
,,,,,,,,,,,,,,,,,199060,18,2022-01-28_17h31.32.433,lexical_decision_task_DD,2021.2.3,MacIntel,60.0024001,,,,,,,,,,,2.2498,0,,,,,,,,,,,,,,,,,,,,,,,,0.189644097,-0.098250868,0,0,0,,,,,,,SAUCE,C,z,m,./images/SAUCE.png,,,,,,,,m,0,2.2498,,,,,,,,0,66,66,135,1
,,,,,,,,,,,,,,,,,199060,18,2022-01-28_17h31.32.433,lexical_decision_task_DD,2021.2.3,MacIntel,60.0024001,,,,,,,,,,,1.2533,0,,,,,,,,,,,,,,,,,,,,,,,,0.189644097,-0.098250868,0,0,0,,,,,,,CANDLE,HB,m,m,./images/CANDLEHB.png,,,,,,,,z,0,1.2533,,,,,,,,0,67,67,61,1
,,,,,,,,,,,,,,,,,199060,18,2022-01-28_17h31.32.433,lexical_decision_task_DD,2021.2.3,MacIntel,60.0024001,,,,,,,,,,,1.3365,1,,,,,,,,,,,,,,,,,,,,,,,,0.189644097,-0.098250868,0,0,0,,,,,,,WAGON,HB,z,m,./images/WAGONHB.png,,,,,,,,z,1,1.3365,,,,,,,,0,68,68,91,1
,,,,,,,,,,,,,,,,,199060,18,2022-01-28_17h31.32.433,lexical_decision_task_DD,2021.2.3,MacIntel,60.0024001,,,,,,,,,,,1.6664,1,,,,,,,,,,,,,,,,,,,,,,,,0.189644097,-0.098250868,0,0,0,,,,,,,WRIST,HB,m,m,./images/WRISTHB.png,,,,,,,,m,1,1.6664,,,,,,,,0,69,69,25,1
,,,,,,,,,,,,,,,,,199060,18,2022-01-28_17h31.32.433,lexical_decision_task_DD,2021.2.3,MacIntel,60.0024001,,,,,,,,,,,1.1666,1,,,,,,,,,,,,,,,,,,,,,,,,0.189644097,-0.098250868,0,0,0,,,,,,,SNAKE,HB,z,m,./images/SNAKEHB.png,,,,,,,,z,1,1.1666,,,,,,,,0,70,70,124,1
,,,,,,,,,,,,,,,,,199060,18,2022-01-28_17h31.32.433,lexical_decision_task_DD,2021.2.3,MacIntel,60.0024001,,,,,,,,,,,1.5808,0,,,,,,,,,,,,,,,,,,,,,,,,0.189644097,-0.098250868,0,0,0,,,,,,,BANNER,HB,m,m,./images/BANNERHB.png,,,,,,,,z,0,1.5808,,,,,,,,0,71,71,52,1
,,,,,,,,,,,,,,,,,199060,18,2022-01-28_17h31.32.433,lexical_decision_task_DD,2021.2.3,MacIntel,60.0024001,,,,,,,,,,,0.9442,1,,,,,,,,,,,,,,,,,,,,,,,,0.189644097,-0.098250868,0,0,0,,,,,,,BOXER,HB,z,m,./images/BOXERHB.png,,,,,,,,z,1,0.9442,,,,,,,,0,72,72,88,1
,,,,,,,,,,,,,,,,,199060,18,2022-01-28_17h31.32.433,lexical_decision_task_DD,2021.2.3,MacIntel,60.0024001,,,,,,,,,,,1.2522,1,,,,,,,,,,,,,,,,,,,,,,,,0.189644097,-0.098250868,0,0,0,,,,,,,BABOON,HB,m,m,./images/BABOONHB.png,,,,,,,,m,1,1.2522,,,,,,,,0,73,73,58,1
,,,,,,,,,,,,,,,,,199060,18,2022-01-28_17h31.32.433,lexical_decision_task_DD,2021.2.3,MacIntel,60.0024001,,,,,,,,,,,0.908,1,,,,,,,,,,,,,,,,,,,,,,,,0.189644097,-0.098250868,0,0,0,,,,,,,CANOE,HB,z,m,./images/CANOEHB.png,,,,,,,,z,1,0.908,,,,,,,,0,74,74,142,1
,,,,,,,,,,,,,,,,,199060,18,2022-01-28_17h31.32.433,lexical_decision_task_DD,2021.2.3,MacIntel,60.0024001,,,,,,,,,,,1.2995,0,,,,,,,,,,,,,,,,,,,,,,,,0.189644097,-0.098250868,0,0,0,,,,,,,QUILL,HB,m,m,./images/QUILLHB.png,,,,,,,,z,0,1.2995,,,,,,,,0,75,75,31,1
,,,,,,,,,,,,,,,,,199060,18,2022-01-28_17h31.32.433,lexical_decision_task_DD,2021.2.3,MacIntel,60.0024001,,,,,,,,,,,0.7077,1,,,,,,,,,,,,,,,,,,,,,,,,0.189644097,-0.098250868,0,0,0,,,,,,,FLESH,C,z,m,./images/FLESH.png,,,,,,,,z,1,0.7077,,,,,,,,0,76,76,108,1
,,,,,,,,,,,,,,,,,199060,18,2022-01-28_17h31.32.433,lexical_decision_task_DD,2021.2.3,MacIntel,60.0024001,,,,,,,,,,,3.4666,0,,,,,,,,,,,,,,,,,,,,,,,,0.189644097,-0.098250868,0,0,0,,,,,,,CLOUD,LB,z,m,./images/CLOUDLB.png,,,,,,,,m,0,3.4666,,,,,,,,0,77,77,110,1
,,,,,,,,,,,,,,,,,199060,18,2022-01-28_17h31.32.433,lexical_decision_task_DD,2021.2.3,MacIntel,60.0024001,,,,,,,,,,,5.8655,0,,,,,,,,,,,,,,,,,,,,,,,,0.189644097,-0.098250868,0,0,0,,,,,,,PARADE,LB,z,m,./images/PARADELB.png,,,,,,,,m,0,5.8655,,,,,,,,0,78,78,101,1
,,,,,,,,,,,,,,,,,199060,18,2022-01-28_17h31.32.433,lexical_decision_task_DD,2021.2.3,MacIntel,60.0024001,,,,,,,,,,,1.2501,1,,,,,,,,,,,,,,,,,,,,,,,,0.189644097,-0.098250868,0,0,0,,,,,,,TIGER,HB,z,m,./images/TIGERHB.png,,,,,,,,z,1,1.2501,,,,,,,,0,79,79,121,1
,,,,,,,,,,,,,,,,,199060,18,2022-01-28_17h31.32.433,lexical_decision_task_DD,2021.2.3,MacIntel,60.0024001,,,,,,,,,,,0.9484,1,,,,,,,,,,,,,,,,,,,,,,,,0.189644097,-0.098250868,0,0,0,,,,,,,MUFFIN,HB,m,m,./images/MUFFINHB.png,,,,,,,,m,1,0.9484,,,,,,,,0,80,80,55,1
,,,,,,,,,,,,,,,,,199060,18,2022-01-28_17h31.32.433,lexical_decision_task_DD,2021.2.3,MacIntel,60.0024001,,,,,,,,,,,0.9549,0,,,,,,,,,,,,,,,,,,,,,,,,0.189644097,-0.098250868,0,0,0,,,,,,,TOWEL,HB,z,m,./images/TOWELHB.png,,,,,,,,m,0,0.9549,,,,,,,,0,81,81,85,1
,,,,,,,,,,,,,,,,,199060,18,2022-01-28_17h31.32.433,lexical_decision_task_DD,2021.2.3,MacIntel,60.0024001,,,,,,,,,,,1.1415,1,,,,,,,,,,,,,,,,,,,,,,,,0.189644097,-0.098250868,0,0,0,,,,,,,BOILER,C,z,m,./images/BOILER.png,,,,,,,,z,1,1.1415,,,,,,,,0,82,82,120,1
,,,,,,,,,,,,,,,,,199060,18,2022-01-28_17h31.32.433,lexical_decision_task_DD,2021.2.3,MacIntel,60.0024001,,,,,,,,,,,1.5686,1,,,,,,,,,,,,,,,,,,,,,,,,0.189644097,-0.098250868,0,0,0,space,,,,,,BEARD,LB,m,m,./images/BEARDLB.png,2.7376,,,,,,,m,1,1.5686,,,,,,,,0,83,83,2,1
,,,,,,,,,,,,,,,,,199060,18,2022-01-28_17h31.32.433,lexical_decision_task_DD,2021.2.3,MacIntel,60.0024001,,,,,,,,,,,4.0726,1,,,,,,,,,,,,,,,,,,,,,,,,0.189644097,-0.098250868,0,0,0,,,,,,,BARREL,LB,m,m,./images/BARRELLB.png,,,,,,,,m,1,4.0726,,,,,,,,0,84,84,32,1
,,,,,,,,,,,,,,,,,199060,18,2022-01-28_17h31.32.433,lexical_decision_task_DD,2021.2.3,MacIntel,60.0024001,,,,,,,,,,,1.7737,0,,,,,,,,,,,,,,,,,,,,,,,,0.189644097,-0.098250868,0,0,0,,,,,,,CLIFF,LB,z,m,./images/CLIFFLB.png,,,,,,,,m,0,1.7737,,,,,,,,0,85,85,92,1
,,,,,,,,,,,,,,,,,199060,18,2022-01-28_17h31.32.433,lexical_decision_task_DD,2021.2.3,MacIntel,60.0024001,,,,,,,,,,,0.9022,1,,,,,,,,,,,,,,,,,,,,,,,,0.189644097,-0.098250868,0,0,0,,,,,,,RULER,HB,z,m,./images/RULERHB.png,,,,,,,,z,1,0.9022,,,,,,,,0,86,86,163,1
,,,,,,,,,,,,,,,,,199060,18,2022-01-28_17h31.32.433,lexical_decision_task_DD,2021.2.3,MacIntel,60.0024001,,,,,,,,,,,0.9283,1,,,,,,,,,,,,,,,,,,,,,,,,0.189644097,-0.098250868,0,0,0,,,,,,,MOOSE,C,m,m,./images/MOOSE.png,,,,,,,,m,1,0.9283,,,,,,,,0,87,87,57,1
,,,,,,,,,,,,,,,,,199060,18,2022-01-28_17h31.32.433,lexical_decision_task_DD,2021.2.3,MacIntel,60.0024001,,,,,,,,,,,2.3726,1,,,,,,,,,,,,,,,,,,,,,,,,0.189644097,-0.098250868,0,0,0,,,,,,,POKER,HB,z,m,./images/POKERHB.png,,,,,,,,z,1,2.3726,,,,,,,,0,88,88,151,1
,,,,,,,,,,,,,,,,,199060,18,2022-01-28_17h31.32.433,lexical_decision_task_DD,2021.2.3,MacIntel,60.0024001,,,,,,,,,,,1.1984,1,,,,,,,,,,,,,,,,,,,,,,,,0.189644097,-0.098250868,0,0,0,,,,,,,COUCH,LB,m,m,./images/COUCHLB.png,,,,,,,,m,1,1.1984,,,,,,,,0,89,89,77,1
,,,,,,,,,,,,,,,,,199060,18,2022-01-28_17h31.32.433,lexical_decision_task_DD,2021.2.3,MacIntel,60.0024001,,,,,,,,,,,0.9177,0,,,,,,,,,,,,,,,,,,,,,,,,0.189644097,-0.098250868,0,0,0,,,,,,,STEAK,HB,z,m,./images/STEAKHB.png,,,,,,,,m,0,0.9177,,,,,,,,0,90,90,115,1
,,,,,,,,,,,,,,,,,199060,18,2022-01-28_17h31.32.433,lexical_decision_task_DD,2021.2.3,MacIntel,60.0024001,,,,,,,,,,,0.7682,1,,,,,,,,,,,,,,,,,,,,,,,,0.189644097,-0.098250868,0,0,0,,,,,,,STREAM,LB,z,m,./images/STREAMLB.png,,,,,,,,z,1,0.7682,,,,,,,,0,91,91,125,1
,,,,,,,,,,,,,,,,,199060,18,2022-01-28_17h31.32.433,lexical_decision_task_DD,2021.2.3,MacIntel,60.0024001,,,,,,,,,,,0.838,1,,,,,,,,,,,,,,,,,,,,,,,,0.189644097,-0.098250868,0,0,0,,,,,,,MIRROR,C,m,m,./images/MIRROR.png,,,,,,,,m,1,0.838,,,,,,,,0,92,92,63,1
,,,,,,,,,,,,,,,,,199060,18,2022-01-28_17h31.32.433,lexical_decision_task_DD,2021.2.3,MacIntel,60.0024001,,,,,,,,,,,0.9168,0,,,,,,,,,,,,,,,,,,,,,,,,0.189644097,-0.098250868,0,0,0,,,,,,,LADDER,LB,m,m,./images/LADDERLB.png,,,,,,,,z,0,0.9168,,,,,,,,0,93,93,38,1
,,,,,,,,,,,,,,,,,199060,18,2022-01-28_17h31.32.433,lexical_decision_task_DD,2021.2.3,MacIntel,60.0024001,,,,,,,,,,,0.9474,0,,,,,,,,,,,,,,,,,,,,,,,,0.189644097,-0.098250868,0,0,0,,,,,,,SHIELD,C,z,m,./images/SHIELD.png,,,,,,,,m,0,0.9474,,,,,,,,0,94,94,132,1
,,,,,,,,,,,,,,,,,199060,18,2022-01-28_17h31.32.433,lexical_decision_task_DD,2021.2.3,MacIntel,60.0024001,,,,,,,,,,,1.2335,0,,,,,,,,,,,,,,,,,,,,,,,,0.189644097,-0.098250868,0,0,0,,,,,,,FENCE,LB,z,m,./images/FENCELB.png,,,,,,,,m,0,1.2335,,,,,,,,0,95,95,98,1
,,,,,,,,,,,,,,,,,199060,18,2022-01-28_17h31.32.433,lexical_decision_task_DD,2021.2.3,MacIntel,60.0024001,,,,,,,,,,,0.9477,1,,,,,,,,,,,,,,,,,,,,,,,,0.189644097,-0.098250868,0,0,0,,,,,,,BRIDE,HB,z,m,./images/BRIDEHB.png,,,,,,,,z,1,0.9477,,,,,,,,0,96,96,148,1
,,,,,,,,,,,,,,,,,199060,18,2022-01-28_17h31.32.433,lexical_decision_task_DD,2021.2.3,MacIntel,60.0024001,,,,,,,,,,,0.8689,1,,,,,,,,,,,,,,,,,,,,,,,,0.189644097,-0.098250868,0,0,0,,,,,,,SPINE,LB,z,m,./images/SPINELB.png,,,,,,,,z,1,0.8689,,,,,,,,0,97,97,149,1
,,,,,,,,,,,,,,,,,199060,18,2022-01-28_17h31.32.433,lexical_decision_task_DD,2021.2.3,MacIntel,60.0024001,,,,,,,,,,,0.9034,1,,,,,,,,,,,,,,,,,,,,,,,,0.189644097,-0.098250868,0,0,0,,,,,,,SNACK,HB,m,m,./images/SNACKHB.png,,,,,,,,m,1,0.9034,,,,,,,,0,98,98,73,1
,,,,,,,,,,,,,,,,,199060,18,2022-01-28_17h31.32.433,lexical_decision_task_DD,2021.2.3,MacIntel,60.0024001,,,,,,,,,,,1.0923,0,,,,,,,,,,,,,,,,,,,,,,,,0.189644097,-0.098250868,0,0,0,,,,,,,DRUMS,HB,m,m,./images/DRUMSHB.png,,,,,,,,z,0,1.0923,,,,,,,,0,99,99,49,1
,,,,,,,,,,,,,,,,,199060,18,2022-01-28_17h31.32.433,lexical_decision_task_DD,2021.2.3,MacIntel,60.0024001,,,,,,,,,,,0.8003,1,,,,,,,,,,,,,,,,,,,,,,,,0.189644097,-0.098250868,0,0,0,,,,,,,TRIPOD,C,m,m,./images/TRIPOD.png,,,,,,,,m,1,0.8003,,,,,,,,0,100,100,54,1
,,,,,,,,,,,,,,,,,199060,18,2022-01-28_17h31.32.433,lexical_decision_task_DD,2021.2.3,MacIntel,60.0024001,,,,,,,,,,,1.4331,1,,,,,,,,,,,,,,,,,,,,,,,,0.189644097,-0.098250868,0,0,0,,,,,,,JUNGLE,LB,m,m,./images/JUNGLELB.png,,,,,,,,m,1,1.4331,,,,,,,,0,101,101,83,1
,,,,,,,,,,,,,,,,,199060,18,2022-01-28_17h31.32.433,lexical_decision_task_DD,2021.2.3,MacIntel,60.0024001,,,,,,,,,,,1.1169,1,,,,,,,,,,,,,,,,,,,,,,,,0.189644097,-0.098250868,0,0,0,,,,,,,CEMENT,LB,m,m,./images/CEMENTLB.png,,,,,,,,m,1,1.1169,,,,,,,,0,102,102,74,1
,,,,,,,,,,,,,,,,,199060,18,2022-01-28_17h31.32.433,lexical_decision_task_DD,2021.2.3,MacIntel,60.0024001,,,,,,,,,,,1.1583,1,,,,,,,,,,,,,,,,,,,,,,,,0.189644097,-0.098250868,0,0,0,,,,,,,HEATER,LB,z,m,./images/HEATERLB.png,,,,,,,,z,1,1.1583,,,,,,,,0,103,103,140,1
,,,,,,,,,,,,,,,,,199060,18,2022-01-28_17h31.32.433,lexical_decision_task_DD,2021.2.3,MacIntel,60.0024001,,,,,,,,,,,0.8092,1,,,,,,,,,,,,,,,,,,,,,,,,0.189644097,-0.098250868,0,0,0,,,,,,,BUNNY,HB,z,m,./images/BUNNYHB.png,,,,,,,,z,1,0.8092,,,,,,,,0,104,104,97,1
,,,,,,,,,,,,,,,,,199060,18,2022-01-28_17h31.32.433,lexical_decision_task_DD,2021.2.3,MacIntel,60.0024001,,,,,,,,,,,0.5499,0,,,,,,,,,,,,,,,,,,,,,,,,0.189644097,-0.098250868,0,0,0,,,,,,,PACKET,LB,m,m,./images/PACKETLB.png,,,,,,,,z,0,0.5499,,,,,,,,0,105,105,56,1
,,,,,,,,,,,,,,,,,199060,18,2022-01-28_17h31.32.433,lexical_decision_task_DD,2021.2.3,MacIntel,60.0024001,,,,,,,,,,,0.9215,1,,,,,,,,,,,,,,,,,,,,,,,,0.189644097,-0.098250868,0,0,0,,,,,,,KIDNEY,C,m,m,./images/KIDNEY.png,,,,,,,,m,1,0.9215,,,,,,,,0,106,106,21,1
,,,,,,,,,,,,,,,,,199060,18,2022-01-28_17h31.32.433,lexical_decision_task_DD,2021.2.3,MacIntel,60.0024001,,,,,,,,,,,0.9072,1,,,,,,,,,,,,,,,,,,,,,,,,0.189644097,-0.098250868,0,0,0,,,,,,,DONKEY,HB,z,m,./images/DONKEYHB.png,,,,,,,,z,1,0.9072,,,,,,,,0,107,107,103,1
,,,,,,,,,,,,,,,,,199060,18,2022-01-28_17h31.32.433,lexical_decision_task_DD,2021.2.3,MacIntel,60.0024001,,,,,,,,,,,0.9405,0,,,,,,,,,,,,,,,,,,,,,,,,0.189644097,-0.098250868,0,0,0,,,,,,,CHALK,HB,z,m,./images/CHALKHB.png,,,,,,,,m,0,0.9405,,,,,,,,0,108,108,109,1
,,,,,,,,,,,,,,,,,199060,18,2022-01-28_17h31.32.433,lexical_decision_task_DD,2021.2.3,MacIntel,60.0024001,,,,,,,,,,,1.219,1,,,,,,,,,,,,,,,,,,,,,,,,0.189644097,-0.098250868,0,0,0,,,,,,,FERRY,C,z,m,./images/FERRY.png,,,,,,,,z,1,1.219,,,,,,,,0,109,109,141,1
,,,,,,,,,,,,,,,,,199060,18,2022-01-28_17h31.32.433,lexical_decision_task_DD,2021.2.3,MacIntel,60.0024001,,,,,,,,,,,1.1033,0,,,,,,,,,,,,,,,,,,,,,,,,0.189644097,-0.098250868,0,0,0,,,,,,,SAUNA,C,z,m,./images/SAUNA.png,,,,,,,,m,0,1.1033,,,,,,,,0,110,110,117,1
,,,,,,,,,,,,,,,,,199060,18,2022-01-28_17h31.32.433,lexical_decision_task_DD,2021.2.3,MacIntel,60.0024001,,,,,,,,,,,1.3336,1,,,,,,,,,,,,,,,,,,,,,,,,0.189644097,-0.098250868,0,0,0,,,,,,,TULIP,LB,m,m,./images/TULIPLB.png,,,,,,,,m,1,1.3336,,,,,,,,0,111,111,8,1
,,,,,,,,,,,,,,,,,199060,18,2022-01-28_17h31.32.433,lexical_decision_task_DD,2021.2.3,MacIntel,60.0024001,,,,,,,,,,,1.1043,1,,,,,,,,,,,,,,,,,,,,,,,,0.189644097,-0.098250868,0,0,0,,,,,,,MIDGET,HB,z,m,./images/MIDGETHB.png,,,,,,,,z,1,1.1043,,,,,,,,0,112,112,160,1
,,,,,,,,,,,,,,,,,199060,18,2022-01-28_17h31.32.433,lexical_decision_task_DD,2021.2.3,MacIntel,60.0024001,,,,,,,,,,,1.117,0,,,,,,,,,,,,,,,,,,,,,,,,0.189644097,-0.098250868,0,0,0,,,,,,,DESERT,HB,z,m,./images/DESERTHB.png,,,,,,,,m,0,1.117,,,,,,,,0,113,113,136,1
,,,,,,,,,,,,,,,,,199060,18,2022-01-28_17h31.32.433,lexical_decision_task_DD,2021.2.3,MacIntel,60.0024001,,,,,,,,,,,1.0733,1,,,,,,,,,,,,,,,,,,,,,,,,0.189644097,-0.098250868,0,0,0,,,,,,,CASINO,HB,z,m,./images/CASINOHB.png,,,,,,,,z,1,1.0733,,,,,,,,0,114,114,112,1
,,,,,,,,,,,,,,,,,199060,18,2022-01-28_17h31.32.433,lexical_decision_task_DD,2021.2.3,MacIntel,60.0024001,,,,,,,,,,,0.88,0,,,,,,,,,,,,,,,,,,,,,,,,0.189644097,-0.098250868,0,0,0,,,,,,,HOCKEY,LB,z,m,./images/HOCKEYLB.png,,,,,,,,m,0,0.88,,,,,,,,0,115,115,116,1
,,,,,,,,,,,,,,,,,199060,18,2022-01-28_17h31.32.433,lexical_decision_task_DD,2021.2.3,MacIntel,60.0024001,,,,,,,,,,,0.8598,1,,,,,,,,,,,,,,,,,,,,,,,,0.189644097,-0.098250868,0,0,0,,,,,,,JAGUAR,C,m,m,./images/JAGUAR.png,,,,,,,,m,1,0.8598,,,,,,,,0,116,116,18,1
,,,,,,,,,,,,,,,,,199060,18,2022-01-28_17h31.32.433,lexical_decision_task_DD,2021.2.3,MacIntel,60.0024001,,,,,,,,,,,0.6678,0,,,,,,,,,,,,,,,,,,,,,,,,0.189644097,-0.098250868,0,0,0,,,,,,,ENGINE,LB,z,m,./images/ENGINELB.png,,,,,,,,m,0,0.6678,,,,,,,,0,117,117,122,1
,,,,,,,,,,,,,,,,,199060,18,2022-01-28_17h31.32.433,lexical_decision_task_DD,2021.2.3,MacIntel,60.0024001,,,,,,,,,,,1.1022,0,,,,,,,,,,,,,,,,,,,,,,,,0.189644097,-0.098250868,0,0,0,,,,,,,PENCE,HB,m,m,./images/PENCEHB.png,,,,,,,,z,0,1.1022,,,,,,,,0,118,118,16,1
,,,,,,,,,,,,,,,,,199060,18,2022-01-28_17h31.32.433,lexical_decision_task_DD,2021.2.3,MacIntel,60.0024001,,,,,,,,,,,1.0972,1,,,,,,,,,,,,,,,,,,,,,,,,0.189644097,-0.098250868,0,0,0,,,,,,,SKIING,LB,m,m,./images/SKIINGLB.png,,,,,,,,m,1,1.0972,,,,,,,,0,119,119,17,1
,,,,,,,,,,,,,,,,,199060,18,2022-01-28_17h31.32.433,lexical_decision_task_DD,2021.2.3,MacIntel,60.0024001,,,,,,,,,,,1.2748,0,,,,,,,,,,,,,,,,,,,,,,,,0.189644097,-0.098250868,0,0,0,,,,,,,MAMMAL,LB,z,m,./images/MAMMALLB.png,,,,,,,,m,0,1.2748,,,,,,,,0,120,120,146,1
,,,,,,,,,,,,,,,,,199060,18,2022-01-28_17h31.32.433,lexical_decision_task_DD,2021.2.3,MacIntel,60.0024001,,,,,,,,,,,7.6168,1,,,,,,,,,,,,,,,,,,,,,,,,0.189644097,-0.098250868,0,0,0,,,,,,,GRAPE,HB,z,m,./images/GRAPEHB.png,,,,,,,,z,1,7.6168,,,,,,,,0,121,121,100,1
,,,,,,,,,,,,,,,,,199060,18,2022-01-28_17h31.32.433,lexical_decision_task_DD,2021.2.3,MacIntel,60.0024001,,,,,,,,,,,0.7353,0,,,,,,,,,,,,,,,,,,,,,,,,0.189644097,-0.098250868,0,0,0,,,,,,,STAIN,C,z,m,./images/STAIN.png,,,,,,,,m,0,0.7353,,,,,,,,0,122,122,90,1
,,,,,,,,,,,,,,,,,199060,18,2022-01-28_17h31.32.433,lexical_decision_task_DD,2021.2.3,MacIntel,60.0024001,,,,,,,,,,,0.8864,1,,,,,,,,,,,,,,,,,,,,,,,,0.189644097,-0.098250868,0,0,0,,,,,,,SAILOR,HB,m,m,./images/SAILORHB.png,,,,,,,,m,1,0.8864,,,,,,,,0,123,123,67,1
,,,,,,,,,,,,,,,,,199060,18,2022-01-28_17h31.32.433,lexical_decision_task_DD,2021.2.3,MacIntel,60.0024001,,,,,,,,,,,0.9834,1,,,,,,,,,,,,,,,,,,,,,,,,0.189644097,-0.098250868,0,0,0,,,,,,,FARMER,LB,m,m,./images/FARMERLB.png,,,,,,,,m,1,0.9834,,,,,,,,0,124,124,65,1
,,,,,,,,,,,,,,,,,199060,18,2022-01-28_17h31.32.433,lexical_decision_task_DD,2021.2.3,MacIntel,60.0024001,,,,,,,,,,,0.817,0,,,,,,,,,,,,,,,,,,,,,,,,0.189644097,-0.098250868,0,0,0,space,,,,,,MEDAL,LB,z,m,./images/MEDALLB.png,2.6456,,,,,,,m,0,0.817,,,,,,,,0,125,125,95,1
,,,,,,,,,,,,,,,,,199060,18,2022-01-28_17h31.32.433,lexical_decision_task_DD,2021.2.3,MacIntel,60.0024001,,,,,,,,,,,2.5073,0,,,,,,,,,,,,,,,,,,,,,,,,0.189644097,-0.098250868,0,0,0,,,,,,,SPORT,C,m,m,./images/SPORT.png,,,,,,,,z,0,2.5073,,,,,,,,0,126,126,48,1
,,,,,,,,,,,,,,,,,199060,18,2022-01-28_17h31.32.433,lexical_decision_task_DD,2021.2.3,MacIntel,60.0024001,,,,,,,,,,,1.2994,0,,,,,,,,,,,,,,,,,,,,,,,,0.189644097,-0.098250868,0,0,0,,,,,,,PAINT,HB,m,m,./images/PAINTHB.png,,,,,,,,z,0,1.2994,,,,,,,,0,127,127,7,1
,,,,,,,,,,,,,,,,,199060,18,2022-01-28_17h31.32.433,lexical_decision_task_DD,2021.2.3,MacIntel,60.0024001,,,,,,,,,,,0.8695,1,,,,,,,,,,,,,,,,,,,,,,,,0.189644097,-0.098250868,0,0,0,,,,,,,MUMMY,HB,z,m,./images/MUMMYHB.png,,,,,,,,z,1,0.8695,,,,,,,,0,128,128,130,1
,,,,,,,,,,,,,,,,,199060,18,2022-01-28_17h31.32.433,lexical_decision_task_DD,2021.2.3,MacIntel,60.0024001,,,,,,,,,,,0.9582,0,,,,,,,,,,,,,,,,,,,,,,,,0.189644097,-0.098250868,0,0,0,,,,,,,MONKEY,C,z,m,./images/MONKEY.png,,,,,,,,m,0,0.9582,,,,,,,,0,129,129,129,1
,,,,,,,,,,,,,,,,,199060,18,2022-01-28_17h31.32.433,lexical_decision_task_DD,2021.2.3,MacIntel,60.0024001,,,,,,,,,,,1.2632,1,,,,,,,,,,,,,,,,,,,,,,,,0.189644097,-0.098250868,0,0,0,,,,,,,CRADLE,LB,m,m,./images/CRADLELB.png,,,,,,,,m,1,1.2632,,,,,,,,0,130,130,20,1
,,,,,,,,,,,,,,,,,199060,18,2022-01-28_17h31.32.433,lexical_decision_task_DD,2021.2.3,MacIntel,60.0024001,,,,,,,,,,,1.0057,0,,,,,,,,,,,,,,,,,,,,,,,,0.189644097,-0.098250868,0,0,0,,,,,,,PLANK,HB,m,m,./images/PLANKHB.png,,,,,,,,z,0,1.0057,,,,,,,,0,131,131,1,1
,,,,,,,,,,,,,,,,,199060,18,2022-01-28_17h31.32.433,lexical_decision_task_DD,2021.2.3,MacIntel,60.0024001,,,,,,,,,,,0.7216,0,,,,,,,,,,,,,,,,,,,,,,,,0.189644097,-0.098250868,0,0,0,,,,,,,DANCER,C,z,m,./images/DANCER.png,,,,,,,,m,0,0.7216,,,,,,,,0,132,132,105,1
,,,,,,,,,,,,,,,,,199060,18,2022-01-28_17h31.32.433,lexical_decision_task_DD,2021.2.3,MacIntel,60.0024001,,,,,,,,,,,1.1481,0,,,,,,,,,,,,,,,,,,,,,,,,0.189644097,-0.098250868,0,0,0,,,,,,,CHAIN,C,z,m,./images/CHAIN.png,,,,,,,,m,0,1.1481,,,,,,,,0,133,133,126,1
,,,,,,,,,,,,,,,,,199060,18,2022-01-28_17h31.32.433,lexical_decision_task_DD,2021.2.3,MacIntel,60.0024001,,,,,,,,,,,0.8965,1,,,,,,,,,,,,,,,,,,,,,,,,0.189644097,-0.098250868,0,0,0,,,,,,,WHEEL,LB,z,m,./images/WHEELLB.png,,,,,,,,z,1,0.8965,,,,,,,,0,134,134,161,1
,,,,,,,,,,,,,,,,,199060,18,2022-01-28_17h31.32.433,lexical_decision_task_DD,2021.2.3,MacIntel,60.0024001,,,,,,,,,,,0.7847,0,,,,,,,,,,,,,,,,,,,,,,,,0.189644097,-0.098250868,0,0,0,,,,,,,CANYON,HB,m,m,./images/CANYONHB.png,,,,,,,,z,0,0.7847,,,,,,,,0,135,135,34,1
,,,,,,,,,,,,,,,,,199060,18,2022-01-28_17h31.32.433,lexical_decision_task_DD,2021.2.3,MacIntel,60.0024001,,,,,,,,,,,1.6653,0,,,,,,,,,,,,,,,,,,,,,,,,0.189644097,-0.098250868,0,0,0,,,,,,,BONNET,LB,m,m,./images/BONNETLB.png,,,,,,,,z,0,1.6653,,,,,,,,0,136,136,11,1
,,,,,,,,,,,,,,,,,199060,18,2022-01-28_17h31.32.433,lexical_decision_task_DD,2021.2.3,MacIntel,60.0024001,,,,,,,,,,,0.8698,1,,,,,,,,,,,,,,,,,,,,,,,,0.189644097,-0.098250868,0,0,0,,,,,,,DIVER,C,z,m,./images/DIVER.png,,,,,,,,z,1,0.8698,,,,,,,,0,137,137,93,1
,,,,,,,,,,,,,,,,,199060,18,2022-01-28_17h31.32.433,lexical_decision_task_DD,2021.2.3,MacIntel,60.0024001,,,,,,,,,,,0.9086,1,,,,,,,,,,,,,,,,,,,,,,,,0.189644097,-0.098250868,0,0,0,,,,,,,ALLEY,HB,z,m,./images/ALLEYHB.png,,,,,,,,z,1,0.9086,,,,,,,,0,138,138,139,1
,,,,,,,,,,,,,,,,,199060,18,2022-01-28_17h31.32.433,lexical_decision_task_DD,2021.2.3,MacIntel,60.0024001,,,,,,,,,,,0.9081,0,,,,,,,,,,,,,,,,,,,,,,,,0.189644097,-0.098250868,0,0,0,,,,,,,MOTOR,HB,m,m,./images/MOTORHB.png,,,,,,,,z,0,0.9081,,,,,,,,0,139,139,13,1
,,,,,,,,,,,,,,,,,199060,18,2022-01-28_17h31.32.433,lexical_decision_task_DD,2021.2.3,MacIntel,60.0024001,,,,,,,,,,,1.0499,1,,,,,,,,,,,,,,,,,,,,,,,,0.189644097,-0.098250868,0,0,0,,,,,,,MOSQUE,HB,m,m,./images/MOSQUEHB.png,,,,,,,,m,1,1.0499,,,,,,,,0,140,140,43,1
,,,,,,,,,,,,,,,,,199060,18,2022-01-28_17h31.32.433,lexical_decision_task_DD,2021.2.3,MacIntel,60.0024001,,,,,,,,,,,1.2488,1,,,,,,,,,,,,,,,,,,,,,,,,0.189644097,-0.098250868,0,0,0,,,,,,,COLLAR,C,z,m,./images/COLLAR.png,,,,,,,,z,1,1.2488,,,,,,,,0,141,141,99,1
,,,,,,,,,,,,,,,,,199060,18,2022-01-28_17h31.32.433,lexical_decision_task_DD,2021.2.3,MacIntel,60.0024001,,,,,,,,,,,0.7188,1,,,,,,,,,,,,,,,,,,,,,,,,0.189644097,-0.098250868,0,0,0,,,,,,,CLOWN,HB,z,m,./images/CLOWNHB.png,,,,,,,,z,1,0.7188,,,,,,,,0,142,142,106,1
,,,,,,,,,,,,,,,,,199060,18,2022-01-28_17h31.32.433,lexical_decision_task_DD,2021.2.3,MacIntel,60.0024001,,,,,,,,,,,0.6596,1,,,,,,,,,,,,,,,,,,,,,,,,0.189644097,-0.098250868,0,0,0,,,,,,,BASKET,LB,z,m,./images/BASKETLB.png,,,,,,,,z,1,0.6596,,,,,,,,0,143,143,128,1
,,,,,,,,,,,,,,,,,199060,18,2022-01-28_17h31.32.433,lexical_decision_task_DD,2021.2.3,MacIntel,60.0024001,,,,,,,,,,,0.9525,0,,,,,,,,,,,,,,,,,,,,,,,,0.189644097,-0.098250868,0,0,0,,,,,,,STORM,C,m,m,./images/STORM.png,,,,,,,,z,0,0.9525,,,,,,,,0,144,144,30,1
,,,,,,,,,,,,,,,,,199060,18,2022-01-28_17h31.32.433,lexical_decision_task_DD,2021.2.3,MacIntel,60.0024001,,,,,,,,,,,0.6507,0,,,,,,,,,,,,,,,,,,,,,,,,0.189644097,-0.098250868,0,0,0,,,,,,,PURSE,LB,m,m,./images/PURSELB.png,,,,,,,,z,0,0.6507,,,,,,,,0,145,145,62,1
,,,,,,,,,,,,,,,,,199060,18,2022-01-28_17h31.32.433,lexical_decision_task_DD,2021.2.3,MacIntel,60.0024001,,,,,,,,,,,0.6842,1,,,,,,,,,,,,,,,,,,,,,,,,0.189644097,-0.098250868,0,0,0,,,,,,,LAGOON,LB,z,m,./images/LAGOONLB.png,,,,,,,,z,1,0.6842,,,,,,,,0,146,146,131,1
,,,,,,,,,,,,,,,,,199060,18,2022-01-28_17h31.32.433,lexical_decision_task_DD,2021.2.3,MacIntel,60.0024001,,,,,,,,,,,0.6005,0,,,,,,,,,,,,,,,,,,,,,,,,0.189644097,-0.098250868,0,0,0,,,,,,,FINGER,C,m,m,./images/FINGER.png,,,,,,,,z,0,0.6005,,,,,,,,0,147,147,3,1
,,,,,,,,,,,,,,,,,199060,18,2022-01-28_17h31.32.433,lexical_decision_task_DD,2021.2.3,MacIntel,60.0024001,,,,,,,,,,,0.9993,0,,,,,,,,,,,,,,,,,,,,,,,,0.189644097,-0.098250868,0,0,0,,,,,,,JELLY,HB,m,m,./images/JELLYHB.png,,,,,,,,z,0,0.9993,,,,,,,,0,148,148,64,1
,,,,,,,,,,,,,,,,,199060,18,2022-01-28_17h31.32.433,lexical_decision_task_DD,2021.2.3,MacIntel,60.0024001,,,,,,,,,,,0.5164,1,,,,,,,,,,,,,,,,,,,,,,,,0.189644097,-0.098250868,0,0,0,,,,,,,BLOKE,C,z,m,./images/BLOKE.png,,,,,,,,z,1,0.5164,,,,,,,,0,149,149,96,1
,,,,,,,,,,,,,,,,,199060,18,2022-01-28_17h31.32.433,lexical_decision_task_DD,2021.2.3,MacIntel,60.0024001,,,,,,,,,,,1.7808,1,,,,,,,,,,,,,,,,,,,,,,,,0.189644097,-0.098250868,0,0,0,,,,,,,BANANA,HB,z,m,./images/BANANAHB.png,,,,,,,,z,1,1.7808,,,,,,,,0,150,150,154,1
,,,,,,,,,,,,,,,,,199060,18,2022-01-28_17h31.32.433,lexical_decision_task_DD,2021.2.3,MacIntel,60.0024001,,,,,,,,,,,0.6347,1,,,,,,,,,,,,,,,,,,,,,,,,0.189644097,-0.098250868,0,0,0,,,,,,,JUMPER,LB,z,m,./images/JUMPERLB.png,,,,,,,,z,1,0.6347,,,,,,,,0,151,151,158,1
,,,,,,,,,,,,,,,,,199060,18,2022-01-28_17h31.32.433,lexical_decision_task_DD,2021.2.3,MacIntel,60.0024001,,,,,,,,,,,0.6856,1,,,,,,,,,,,,,,,,,,,,,,,,0.189644097,-0.098250868,0,0,0,,,,,,,STOOL,HB,z,m,./images/STOOLHB.png,,,,,,,,z,1,0.6856,,,,,,,,0,152,152,127,1
,,,,,,,,,,,,,,,,,199060,18,2022-01-28_17h31.32.433,lexical_decision_task_DD,2021.2.3,MacIntel,60.0024001,,,,,,,,,,,0.7869,1,,,,,,,,,,,,,,,,,,,,,,,,0.189644097,-0.098250868,0,0,0,,,,,,,POSTER,LB,z,m,./images/POSTERLB.png,,,,,,,,z,1,0.7869,,,,,,,,0,153,153,137,1
,,,,,,,,,,,,,,,,,199060,18,2022-01-28_17h31.32.433,lexical_decision_task_DD,2021.2.3,MacIntel,60.0024001,,,,,,,,,,,1.0213,1,,,,,,,,,,,,,,,,,,,,,,,,0.189644097,-0.098250868,0,0,0,,,,,,,RAZOR,HB,z,m,./images/RAZORHB.png,,,,,,,,z,1,1.0213,,,,,,,,0,154,154,118,1
,,,,,,,,,,,,,,,,,199060,18,2022-01-28_17h31.32.433,lexical_decision_task_DD,2021.2.3,MacIntel,60.0024001,,,,,,,,,,,0.7219,0,,,,,,,,,,,,,,,,,,,,,,,,0.189644097,-0.098250868,0,0,0,,,,,,,CARPET,LB,m,m,./images/CARPETLB.png,,,,,,,,z,0,0.7219,,,,,,,,0,155,155,53,1
,,,,,,,,,,,,,,,,,199060,18,2022-01-28_17h31.32.433,lexical_decision_task_DD,2021.2.3,MacIntel,60.0024001,,,,,,,,,,,0.775,1,,,,,,,,,,,,,,,,,,,,,,,,0.189644097,-0.098250868,0,0,0,,,,,,,CRUMB,LB,m,m,./images/CRUMBLB.png,,,,,,,,m,1,0.775,,,,,,,,0,156,156,29,1
,,,,,,,,,,,,,,,,,199060,18,2022-01-28_17h31.32.433,lexical_decision_task_DD,2021.2.3,MacIntel,60.0024001,,,,,,,,,,,1.301,0,,,,,,,,,,,,,,,,,,,,,,,,0.189644097,-0.098250868,0,0,0,,,,,,,STRING,LB,m,m,./images/STRINGLB.png,,,,,,,,z,0,1.301,,,,,,,,0,157,157,41,1
,,,,,,,,,,,,,,,,,199060,18,2022-01-28_17h31.32.433,lexical_decision_task_DD,2021.2.3,MacIntel,60.0024001,,,,,,,,,,,0.8376,1,,,,,,,,,,,,,,,,,,,,,,,,0.189644097,-0.098250868,0,0,0,,,,,,,PEBBLE,HB,z,m,./images/PEBBLEHB.png,,,,,,,,z,1,0.8376,,,,,,,,0,158,158,166,1
,,,,,,,,,,,,,,,,,199060,18,2022-01-28_17h31.32.433,lexical_decision_task_DD,2021.2.3,MacIntel,60.0024001,,,,,,,,,,,0.9009,0,,,,,,,,,,,,,,,,,,,,,,,,0.189644097,-0.098250868,0,0,0,,,,,,,COOKER,C,m,m,./images/COOKER.png,,,,,,,,z,0,0.9009,,,,,,,,0,159,159,69,1
,,,,,,,,,,,,,,,,,199060,18,2022-01-28_17h31.32.433,lexical_decision_task_DD,2021.2.3,MacIntel,60.0024001,,,,,,,,,,,0.8788,1,,,,,,,,,,,,,,,,,,,,,,,,0.189644097,-0.098250868,0,0,0,,,,,,,MAGGOT,C,m,m,./images/MAGGOT.png,,,,,,,,m,1,0.8788,,,,,,,,0,160,160,33,1
,,,,,,,,,,,,,,,,,199060,18,2022-01-28_17h31.32.433,lexical_decision_task_DD,2021.2.3,MacIntel,60.0024001,,,,,,,,,,,0.8566,1,,,,,,,,,,,,,,,,,,,,,,,,0.189644097,-0.098250868,0,0,0,,,,,,,MUSCLE,HB,m,m,./images/MUSCLEHB.png,,,,,,,,m,1,0.8566,,,,,,,,0,161,161,4,1
,,,,,,,,,,,,,,,,,199060,18,2022-01-28_17h31.32.433,lexical_decision_task_DD,2021.2.3,MacIntel,60.0024001,,,,,,,,,,,0.9664,1,,,,,,,,,,,,,,,,,,,,,,,,0.189644097,-0.098250868,0,0,0,,,,,,,BAKER,C,z,m,./images/BAKER.png,,,,,,,,z,1,0.9664,,,,,,,,0,162,162,147,1
,,,,,,,,,,,,,,,,,199060,18,2022-01-28_17h31.32.433,lexical_decision_task_DD,2021.2.3,MacIntel,60.0024001,,,,,,,,,,,1.3187,0,,,,,,,,,,,,,,,,,,,,,,,,0.189644097,-0.098250868,0,0,0,,,,,,,STATUE,C,z,m,./images/STATUE.png,,,,,,,,m,0,1.3187,,,,,,,,0,163,163,150,1
,,,,,,,,,,,,,,,,,199060,18,2022-01-28_17h31.32.433,lexical_decision_task_DD,2021.2.3,MacIntel,60.0024001,,,,,,,,,,,1.116,1,,,,,,,,,,,,,,,,,,,,,,,,0.189644097,-0.098250868,0,0,0,,,,,,,GLOVE,HB,z,m,./images/GLOVEHB.png,,,,,,,,z,1,1.116,,,,,,,,0,164,164,157,1
,,,,,,,,,,,,,,,,,199060,18,2022-01-28_17h31.32.433,lexical_decision_task_DD,2021.2.3,MacIntel,60.0024001,,,,,,,,,,,0.6018,1,,,,,,,,,,,,,,,,,,,,,,,,0.189644097,-0.098250868,0,0,0,,,,,,,FOLDER,C,m,m,./images/FOLDER.png,,,,,,,,m,1,0.6018,,,,,,,,0,165,165,42,1
,,,,,,,,,,,,,,,,,199060,18,2022-01-28_17h31.32.433,lexical_decision_task_DD,2021.2.3,MacIntel,60.0024001,,,,,,,,,,,0.6156,1,,,,,,,,,,,,,,,,,,,,,,,,0.189644097,-0.098250868,0,0,0,,,,,,,PISTOL,LB,z,m,./images/PISTOLLB.png,,,,,,,,z,1,0.6156,,,,,,,,0,166,166,113,1
,,,,,,,,,,,,,,,,,199060,18,2022-01-28_17h31.32.433,lexical_decision_task_DD,2021.2.3,MacIntel,60.0024001,,,,,,,,,,,0.7219,1,,,,,,,,,,,,,,,,,,,,,,,,0.189644097,-0.098250868,0,0,0,,,,,,,KITTEN,C,m,m,./images/KITTEN.png,,,,,,,,m,1,0.7219,,,,,,,,0,167,167,45,1
